instructions_2afc.started,instructions_2afc.stopped,instructions_2afc_loop.thisRepN,instructions_2afc_loop.thisTrialN,instructions_2afc_loop.thisN,instructions_2afc_loop.thisIndex,instructions_2afc_loop.ran,instructions_text,continue_text,participant_id,"What variety of Spanish are you most familiar with? (e.g., Peruvian, Spanish, Mexican)",At what age did you begin learning Spanish?,Are you proficient in any languages other than English/Spanish?,"Are you familiar with Caribbean (e.g., Caribbean, Puerto Rican) or Galician Spanish?",date,expName,psychopyVersion,OS,frameRate,id,study_id,session,practice_2afc.started,practice_2afc.stopped,key_resp_2afc_practice.keys,key_resp_2afc_practice.corr,key_resp_2afc_practice.rt,key_resp_2afc_practice.duration,trials_2afc_practice_loop.thisRepN,trials_2afc_practice_loop.thisTrialN,trials_2afc_practice_loop.thisN,trials_2afc_practice_loop.thisIndex,trials_2afc_practice_loop.ran,path,correct_response,check_2afc.started,check_2afc.stopped,trial_2afc.started,trial_2afc.stopped,key_resp_2afc_trial.keys,key_resp_2afc_trial.corr,key_resp_2afc_trial.rt,key_resp_2afc_trial.duration,trials_2afc_loop.thisRepN,trials_2afc_loop.thisTrialN,trials_2afc_loop.thisN,trials_2afc_loop.thisIndex,trials_2afc_loop.ran,item_num,target,variety,instructions_lextale.started,instructions_lextale.stopped,instructions_lextale_loop.thisRepN,instructions_lextale_loop.thisTrialN,instructions_lextale_loop.thisN,instructions_lextale_loop.thisIndex,instructions_lextale_loop.ran,practice_lextale.started,practice_lextale.stopped,key_resp_lextale_practice.keys,key_resp_lextale_practice.corr,key_resp_lextale_practice.rt,key_resp_lextale_practice.duration,practice_feedback_lextale.started,practice_feedback_lextale.stopped,trials_lextale_practice_loop.thisRepN,trials_lextale_practice_loop.thisTrialN,trials_lextale_practice_loop.thisN,trials_lextale_practice_loop.thisIndex,trials_lextale_practice_loop.ran,stim,word,prac_button_real,prac_button_false,check_lextale.started,check_lextale.stopped,trial_lextale.started,trial_lextale.stopped,key_resp_lextale_trial.keys,key_resp_lextale_trial.corr,key_resp_lextale_trial.rt,key_resp_lextale_trial.duration,trials_lextale_loop.thisRepN,trials_lextale_loop.thisTrialN,trials_lextale_loop.thisN,trials_lextale_loop.thisIndex,trials_lextale_loop.ran,button_real,button_false,instructions_eq.started,instructions_eq.stopped,trial_eq.started,trial_eq.stopped,slider_eq_trial.response,trials_eq_loop.thisRepN,trials_eq_loop.thisTrialN,trials_eq_loop.thisN,trials_eq_loop.thisIndex,trials_eq_loop.ran,item,is_test_item,is_distractor,is_agree_score,is_disagree_score,end_exp.started,end_exp.stopped
0.0289,4.8416,0,0,0,0,1,"In the following task you are going to hear a series of utterances. 

  You will decide if the utterances sound like questions or not using your keyboard.", (press the spacebar to continue),67478b43d90864464fd088bb,Spanish,younger than 13,"no, only English or Spanish",no,2025-08-12_17h05.11.849,empathy_intonation_perc_control,2024.2.4,Linux x86_64,59.88023952,67478b43d90864464fd088bb,68817205a84113384fffdfe3,689bac5dc0f86fcd5150ee18,,,,,,,,,,,,,,,,,,,,,,,,,,,,,,,,,,,,,,,,,,,,,,,,,,,,,,,,,,,,,,,,,,,,,,,,,,,,,,,,,,,,,
4.8452,8.274,0,1,1,1,1,"If you believe the utterance is a question, type '1' (for 'yes') and if you do not 
  believe it is a question type '0' (for 'no').

  Let's practice a bit...", (press the spacebar to continue),67478b43d90864464fd088bb,Spanish,younger than 13,"no, only English or Spanish",no,2025-08-12_17h05.11.849,empathy_intonation_perc_control,2024.2.4,Linux x86_64,59.88023952,67478b43d90864464fd088bb,68817205a84113384fffdfe3,689bac5dc0f86fcd5150ee18,,,,,,,,,,,,,,,,,,,,,,,,,,,,,,,,,,,,,,,,,,,,,,,,,,,,,,,,,,,,,,,,,,,,,,,,,,,,,,,,,,,,,
,,,,,,,,,67478b43d90864464fd088bb,Spanish,younger than 13,"no, only English or Spanish",no,2025-08-12_17h05.11.849,empathy_intonation_perc_control,2024.2.4,Linux x86_64,59.88023952,67478b43d90864464fd088bb,68817205a84113384fffdfe3,689bac5dc0f86fcd5150ee18,8.2939,15.6894,1,1,6.8636,,0,0,0,0,1,./stim/wavs/castilian_question_filler_Mi-esposo-conoce-al-chico.wav,1,,,,,,,,,,,,,,,,,,,,,,,,,,,,,,,,,,,,,,,,,,,,,,,,,,,,,,,,,,,,,,,,,,,,,,,,
,,,,,,,,,67478b43d90864464fd088bb,Spanish,younger than 13,"no, only English or Spanish",no,2025-08-12_17h05.11.849,empathy_intonation_perc_control,2024.2.4,Linux x86_64,59.88023952,67478b43d90864464fd088bb,68817205a84113384fffdfe3,689bac5dc0f86fcd5150ee18,15.6906,19.4044,1,1,3.1834,,0,1,1,3,1,./stim/wavs/mexican_question_filler_Felipe-no-tiene-contrasena.wav,1,,,,,,,,,,,,,,,,,,,,,,,,,,,,,,,,,,,,,,,,,,,,,,,,,,,,,,,,,,,,,,,,,,,,,,,,
,,,,,,,,,67478b43d90864464fd088bb,Spanish,younger than 13,"no, only English or Spanish",no,2025-08-12_17h05.11.849,empathy_intonation_perc_control,2024.2.4,Linux x86_64,59.88023952,67478b43d90864464fd088bb,68817205a84113384fffdfe3,689bac5dc0f86fcd5150ee18,19.4054,30.1182,1,0,10.1791,,0,2,2,5,1,./stim/wavs/andalusian_statement_filler_Alberto-nunca-se-afeita.wav,0,,,,,,,,,,,,,,,,,,,,,,,,,,,,,,,,,,,,,,,,,,,,,,,,,,,,,,,,,,,,,,,,,,,,,,,,
,,,,,,,,,67478b43d90864464fd088bb,Spanish,younger than 13,"no, only English or Spanish",no,2025-08-12_17h05.11.849,empathy_intonation_perc_control,2024.2.4,Linux x86_64,59.88023952,67478b43d90864464fd088bb,68817205a84113384fffdfe3,689bac5dc0f86fcd5150ee18,30.1191,41.0486,0,0,10.3981,,0,3,3,1,1,./stim/wavs/argentine_question_filler_Mi-vecino-habla-mucho.wav,1,,,,,,,,,,,,,,,,,,,,,,,,,,,,,,,,,,,,,,,,,,,,,,,,,,,,,,,,,,,,,,,,,,,,,,,,
,,,,,,,,,67478b43d90864464fd088bb,Spanish,younger than 13,"no, only English or Spanish",no,2025-08-12_17h05.11.849,empathy_intonation_perc_control,2024.2.4,Linux x86_64,59.88023952,67478b43d90864464fd088bb,68817205a84113384fffdfe3,689bac5dc0f86fcd5150ee18,41.0496,45.9894,0,1,4.4005,,0,4,4,6,1,./stim/wavs/peruvian_statement_filler_El-nino-habla-con-su-madre.wav,0,,,,,,,,,,,,,,,,,,,,,,,,,,,,,,,,,,,,,,,,,,,,,,,,,,,,,,,,,,,,,,,,,,,,,,,,
,,,,,,,,,67478b43d90864464fd088bb,Spanish,younger than 13,"no, only English or Spanish",no,2025-08-12_17h05.11.849,empathy_intonation_perc_control,2024.2.4,Linux x86_64,59.88023952,67478b43d90864464fd088bb,68817205a84113384fffdfe3,689bac5dc0f86fcd5150ee18,45.9909,48.9966,0,1,2.4848,,0,5,5,4,1,./stim/wavs/cuban_statement_filler_Cocinabas-por-la-noche.wav,0,,,,,,,,,,,,,,,,,,,,,,,,,,,,,,,,,,,,,,,,,,,,,,,,,,,,,,,,,,,,,,,,,,,,,,,,
,,,,,,,,,67478b43d90864464fd088bb,Spanish,younger than 13,"no, only English or Spanish",no,2025-08-12_17h05.11.849,empathy_intonation_perc_control,2024.2.4,Linux x86_64,59.88023952,67478b43d90864464fd088bb,68817205a84113384fffdfe3,689bac5dc0f86fcd5150ee18,48.9975,52.7954,0,1,3.2711,,0,6,6,7,1,./stim/wavs/puertorican_statement_filler_La-nina-pinta-con-su-amiga.wav,0,,,,,,,,,,,,,,,,,,,,,,,,,,,,,,,,,,,,,,,,,,,,,,,,,,,,,,,,,,,,,,,,,,,,,,,,
,,,,,,,,,67478b43d90864464fd088bb,Spanish,younger than 13,"no, only English or Spanish",no,2025-08-12_17h05.11.849,empathy_intonation_perc_control,2024.2.4,Linux x86_64,59.88023952,67478b43d90864464fd088bb,68817205a84113384fffdfe3,689bac5dc0f86fcd5150ee18,52.7963,55.1783,1,1,1.8566,,0,7,7,2,1,./stim/wavs/chilean_question_filler_Mi-padre-cantaba-bien.wav,1,,,,,,,,,,,,,,,,,,,,,,,,,,,,,,,,,,,,,,,,,,,,,,,,,,,,,,,,,,,,,,,,,,,,,,,,
,,,,,,,,,67478b43d90864464fd088bb,Spanish,younger than 13,"no, only English or Spanish",no,2025-08-12_17h05.11.849,empathy_intonation_perc_control,2024.2.4,Linux x86_64,59.88023952,67478b43d90864464fd088bb,68817205a84113384fffdfe3,689bac5dc0f86fcd5150ee18,,,,,,,,,,,,,,55.1787,60.1102,,,,,,,,,,,,,,,,,,,,,,,,,,,,,,,,,,,,,,,,,,,,,,,,,,,,,,,,,,,,,,,,,,,,,,
,,,,,,,,,67478b43d90864464fd088bb,Spanish,younger than 13,"no, only English or Spanish",no,2025-08-12_17h05.11.849,empathy_intonation_perc_control,2024.2.4,Linux x86_64,59.88023952,67478b43d90864464fd088bb,68817205a84113384fffdfe3,689bac5dc0f86fcd5150ee18,,,,,,,,,,,,./stim/wavs/castilian_mismatch_declarative-broad-focus_La-nina-lava-el-plato.wav,0,,,60.1302,62.9928,0,1,2.3373,,0,0,0,70,1,71,0,castilian,,,,,,,,,,,,,,,,,,,,,,,,,,,,,,,,,,,,,,,,,,,,,,,,,,,,,,,,
,,,,,,,,,67478b43d90864464fd088bb,Spanish,younger than 13,"no, only English or Spanish",no,2025-08-12_17h05.11.849,empathy_intonation_perc_control,2024.2.4,Linux x86_64,59.88023952,67478b43d90864464fd088bb,68817205a84113384fffdfe3,689bac5dc0f86fcd5150ee18,,,,,,,,,,,,./stim/wavs/mexican_match_declarative-broad-focus_Emilio-ama-la-marcha.wav,0,,,62.9938,66.3915,0,1,2.8705,,0,1,1,59,1,60,0,mexican,,,,,,,,,,,,,,,,,,,,,,,,,,,,,,,,,,,,,,,,,,,,,,,,,,,,,,,,
,,,,,,,,,67478b43d90864464fd088bb,Spanish,younger than 13,"no, only English or Spanish",no,2025-08-12_17h05.11.849,empathy_intonation_perc_control,2024.2.4,Linux x86_64,59.88023952,67478b43d90864464fd088bb,68817205a84113384fffdfe3,689bac5dc0f86fcd5150ee18,,,,,,,,,,,,./stim/wavs/cuban_mismatch_declarative-broad-focus_Mi-novio-viene-del-lago.wav,0,,,66.3923,70.1243,0,1,3.208,,0,2,2,76,1,77,0,cuban,,,,,,,,,,,,,,,,,,,,,,,,,,,,,,,,,,,,,,,,,,,,,,,,,,,,,,,,
,,,,,,,,,67478b43d90864464fd088bb,Spanish,younger than 13,"no, only English or Spanish",no,2025-08-12_17h05.11.849,empathy_intonation_perc_control,2024.2.4,Linux x86_64,59.88023952,67478b43d90864464fd088bb,68817205a84113384fffdfe3,689bac5dc0f86fcd5150ee18,,,,,,,,,,,,./stim/wavs/cuban_match_interrogative-total-yn_Ana-lleva-el-abrigo.wav,1,,,70.1251,72.7399,0,0,2.0922,,0,3,3,6,1,7,1,cuban,,,,,,,,,,,,,,,,,,,,,,,,,,,,,,,,,,,,,,,,,,,,,,,,,,,,,,,,
,,,,,,,,,67478b43d90864464fd088bb,Spanish,younger than 13,"no, only English or Spanish",no,2025-08-12_17h05.11.849,empathy_intonation_perc_control,2024.2.4,Linux x86_64,59.88023952,67478b43d90864464fd088bb,68817205a84113384fffdfe3,689bac5dc0f86fcd5150ee18,,,,,,,,,,,,./stim/wavs/puertorican_match_interrogative-total-yn_David-leia-el-libro.wav,1,,,72.7405,76.3222,1,1,3.0569,,0,4,4,20,1,21,1,puertorican,,,,,,,,,,,,,,,,,,,,,,,,,,,,,,,,,,,,,,,,,,,,,,,,,,,,,,,,
,,,,,,,,,67478b43d90864464fd088bb,Spanish,younger than 13,"no, only English or Spanish",no,2025-08-12_17h05.11.849,empathy_intonation_perc_control,2024.2.4,Linux x86_64,59.88023952,67478b43d90864464fd088bb,68817205a84113384fffdfe3,689bac5dc0f86fcd5150ee18,,,,,,,,,,,,./stim/wavs/cuban_match_interrogative-total-yn_Daniel-iba-a-Bolivia.wav,1,,,76.323,79.8545,1,1,3.0129,,0,5,5,7,1,8,1,cuban,,,,,,,,,,,,,,,,,,,,,,,,,,,,,,,,,,,,,,,,,,,,,,,,,,,,,,,,
,,,,,,,,,67478b43d90864464fd088bb,Spanish,younger than 13,"no, only English or Spanish",no,2025-08-12_17h05.11.849,empathy_intonation_perc_control,2024.2.4,Linux x86_64,59.88023952,67478b43d90864464fd088bb,68817205a84113384fffdfe3,689bac5dc0f86fcd5150ee18,,,,,,,,,,,,./stim/wavs/mexican_mismatch_declarative-broad-focus_Mi-tia-odia-la-lluvia.wav,0,,,79.8553,83.6202,1,0,3.2426,,0,6,6,82,1,83,0,mexican,,,,,,,,,,,,,,,,,,,,,,,,,,,,,,,,,,,,,,,,,,,,,,,,,,,,,,,,
,,,,,,,,,67478b43d90864464fd088bb,Spanish,younger than 13,"no, only English or Spanish",no,2025-08-12_17h05.11.849,empathy_intonation_perc_control,2024.2.4,Linux x86_64,59.88023952,67478b43d90864464fd088bb,68817205a84113384fffdfe3,689bac5dc0f86fcd5150ee18,,,,,,,,,,,,./stim/wavs/castilian_match_interrogative-total-yn_Marta-abre-el-regalo.wav,1,,,83.621,86.3194,1,1,2.1913,,0,7,7,5,1,6,0,castilian,,,,,,,,,,,,,,,,,,,,,,,,,,,,,,,,,,,,,,,,,,,,,,,,,,,,,,,,
,,,,,,,,,67478b43d90864464fd088bb,Spanish,younger than 13,"no, only English or Spanish",no,2025-08-12_17h05.11.849,empathy_intonation_perc_control,2024.2.4,Linux x86_64,59.88023952,67478b43d90864464fd088bb,68817205a84113384fffdfe3,689bac5dc0f86fcd5150ee18,,,,,,,,,,,,./stim/wavs/mexican_match_declarative-broad-focus_David-leia-el-libro.wav,0,,,86.3201,88.7691,0,1,1.9175,,0,8,8,58,1,59,0,mexican,,,,,,,,,,,,,,,,,,,,,,,,,,,,,,,,,,,,,,,,,,,,,,,,,,,,,,,,
,,,,,,,,,67478b43d90864464fd088bb,Spanish,younger than 13,"no, only English or Spanish",no,2025-08-12_17h05.11.849,empathy_intonation_perc_control,2024.2.4,Linux x86_64,59.88023952,67478b43d90864464fd088bb,68817205a84113384fffdfe3,689bac5dc0f86fcd5150ee18,,,,,,,,,,,,./stim/wavs/cuban_match_interrogative-total-yn_Maria-bebe-el-vino.wav,1,,,88.7699,91.4687,0,0,2.1685,,0,9,9,9,1,10,1,cuban,,,,,,,,,,,,,,,,,,,,,,,,,,,,,,,,,,,,,,,,,,,,,,,,,,,,,,,,
,,,,,,,,,67478b43d90864464fd088bb,Spanish,younger than 13,"no, only English or Spanish",no,2025-08-12_17h05.11.849,empathy_intonation_perc_control,2024.2.4,Linux x86_64,59.88023952,67478b43d90864464fd088bb,68817205a84113384fffdfe3,689bac5dc0f86fcd5150ee18,,,,,,,,,,,,./stim/wavs/puertorican_match_declarative-broad-focus_David-leia-el-libro.wav,0,,,91.4695,93.9344,0,1,1.9425,,0,10,10,64,1,65,0,puertorican,,,,,,,,,,,,,,,,,,,,,,,,,,,,,,,,,,,,,,,,,,,,,,,,,,,,,,,,
,,,,,,,,,67478b43d90864464fd088bb,Spanish,younger than 13,"no, only English or Spanish",no,2025-08-12_17h05.11.849,empathy_intonation_perc_control,2024.2.4,Linux x86_64,59.88023952,67478b43d90864464fd088bb,68817205a84113384fffdfe3,689bac5dc0f86fcd5150ee18,,,,,,,,,,,,./stim/wavs/castilian_mismatch_declarative-broad-focus_Mi-tia-odia-la-lluvia.wav,0,,,93.9351,97.2672,0,1,2.8029,,0,11,11,72,1,73,0,castilian,,,,,,,,,,,,,,,,,,,,,,,,,,,,,,,,,,,,,,,,,,,,,,,,,,,,,,,,
,,,,,,,,,67478b43d90864464fd088bb,Spanish,younger than 13,"no, only English or Spanish",no,2025-08-12_17h05.11.849,empathy_intonation_perc_control,2024.2.4,Linux x86_64,59.88023952,67478b43d90864464fd088bb,68817205a84113384fffdfe3,689bac5dc0f86fcd5150ee18,,,,,,,,,,,,./stim/wavs/mexican_match_declarative-broad-focus_Daniel-iba-a-Bolivia.wav,0,,,97.268,100.1496,0,1,2.3558,,0,12,12,57,1,58,0,mexican,,,,,,,,,,,,,,,,,,,,,,,,,,,,,,,,,,,,,,,,,,,,,,,,,,,,,,,,
,,,,,,,,,67478b43d90864464fd088bb,Spanish,younger than 13,"no, only English or Spanish",no,2025-08-12_17h05.11.849,empathy_intonation_perc_control,2024.2.4,Linux x86_64,59.88023952,67478b43d90864464fd088bb,68817205a84113384fffdfe3,689bac5dc0f86fcd5150ee18,,,,,,,,,,,,./stim/wavs/puertorican_match_interrogative-total-yn_Daniel-iba-a-Bolivia.wav,1,,,100.1502,104.0152,1,1,3.3428,,0,13,13,19,1,20,1,puertorican,,,,,,,,,,,,,,,,,,,,,,,,,,,,,,,,,,,,,,,,,,,,,,,,,,,,,,,,
,,,,,,,,,67478b43d90864464fd088bb,Spanish,younger than 13,"no, only English or Spanish",no,2025-08-12_17h05.11.849,empathy_intonation_perc_control,2024.2.4,Linux x86_64,59.88023952,67478b43d90864464fd088bb,68817205a84113384fffdfe3,689bac5dc0f86fcd5150ee18,,,,,,,,,,,,./stim/wavs/mexican_mismatch_declarative-broad-focus_El-bebe-comia-muy-bien.wav,0,,,104.0158,108.1305,0,1,3.6039,,0,14,14,78,1,79,0,mexican,,,,,,,,,,,,,,,,,,,,,,,,,,,,,,,,,,,,,,,,,,,,,,,,,,,,,,,,
,,,,,,,,,67478b43d90864464fd088bb,Spanish,younger than 13,"no, only English or Spanish",no,2025-08-12_17h05.11.849,empathy_intonation_perc_control,2024.2.4,Linux x86_64,59.88023952,67478b43d90864464fd088bb,68817205a84113384fffdfe3,689bac5dc0f86fcd5150ee18,,,,,,,,,,,,./stim/wavs/mexican_mismatch_interrogative-total-yn_Mi-tia-odia-la-lluvia.wav,1,,,108.1313,110.68,1,1,2.0324,,0,15,15,38,1,39,0,mexican,,,,,,,,,,,,,,,,,,,,,,,,,,,,,,,,,,,,,,,,,,,,,,,,,,,,,,,,
,,,,,,,,,67478b43d90864464fd088bb,Spanish,younger than 13,"no, only English or Spanish",no,2025-08-12_17h05.11.849,empathy_intonation_perc_control,2024.2.4,Linux x86_64,59.88023952,67478b43d90864464fd088bb,68817205a84113384fffdfe3,689bac5dc0f86fcd5150ee18,,,,,,,,,,,,./stim/wavs/cuban_mismatch_interrogative-total-yn_El-hombre-mira-la-luna.wav,1,,,110.6807,115.4474,1,1,4.2457,,0,16,16,29,1,30,1,cuban,,,,,,,,,,,,,,,,,,,,,,,,,,,,,,,,,,,,,,,,,,,,,,,,,,,,,,,,
,,,,,,,,,67478b43d90864464fd088bb,Spanish,younger than 13,"no, only English or Spanish",no,2025-08-12_17h05.11.849,empathy_intonation_perc_control,2024.2.4,Linux x86_64,59.88023952,67478b43d90864464fd088bb,68817205a84113384fffdfe3,689bac5dc0f86fcd5150ee18,,,,,,,,,,,,./stim/wavs/castilian_match_interrogative-total-yn_Manuela-vende-el-carro.wav,1,,,115.4483,119.995,1,1,4.0223,,0,17,17,2,1,3,0,castilian,,,,,,,,,,,,,,,,,,,,,,,,,,,,,,,,,,,,,,,,,,,,,,,,,,,,,,,,
,,,,,,,,,67478b43d90864464fd088bb,Spanish,younger than 13,"no, only English or Spanish",no,2025-08-12_17h05.11.849,empathy_intonation_perc_control,2024.2.4,Linux x86_64,59.88023952,67478b43d90864464fd088bb,68817205a84113384fffdfe3,689bac5dc0f86fcd5150ee18,,,,,,,,,,,,./stim/wavs/puertorican_match_declarative-broad-focus_Ana-lleva-el-abrigo.wav,0,,,119.9956,123.0601,0,1,2.5402,,0,18,18,62,1,63,0,puertorican,,,,,,,,,,,,,,,,,,,,,,,,,,,,,,,,,,,,,,,,,,,,,,,,,,,,,,,,
,,,,,,,,,67478b43d90864464fd088bb,Spanish,younger than 13,"no, only English or Spanish",no,2025-08-12_17h05.11.849,empathy_intonation_perc_control,2024.2.4,Linux x86_64,59.88023952,67478b43d90864464fd088bb,68817205a84113384fffdfe3,689bac5dc0f86fcd5150ee18,,,,,,,,,,,,./stim/wavs/cuban_mismatch_declarative-broad-focus_La-nina-lava-el-plato.wav,0,,,123.0607,126.9923,0,1,3.406,,0,19,19,75,1,76,0,cuban,,,,,,,,,,,,,,,,,,,,,,,,,,,,,,,,,,,,,,,,,,,,,,,,,,,,,,,,
,,,,,,,,,67478b43d90864464fd088bb,Spanish,younger than 13,"no, only English or Spanish",no,2025-08-12_17h05.11.849,empathy_intonation_perc_control,2024.2.4,Linux x86_64,59.88023952,67478b43d90864464fd088bb,68817205a84113384fffdfe3,689bac5dc0f86fcd5150ee18,,,,,,,,,,,,./stim/wavs/cuban_mismatch_interrogative-total-yn_Mi-madre-come-la-fruta.wav,1,,,126.993,131.466,0,0,3.9381,,0,20,20,31,1,32,1,cuban,,,,,,,,,,,,,,,,,,,,,,,,,,,,,,,,,,,,,,,,,,,,,,,,,,,,,,,,
,,,,,,,,,67478b43d90864464fd088bb,Spanish,younger than 13,"no, only English or Spanish",no,2025-08-12_17h05.11.849,empathy_intonation_perc_control,2024.2.4,Linux x86_64,59.88023952,67478b43d90864464fd088bb,68817205a84113384fffdfe3,689bac5dc0f86fcd5150ee18,,,,,,,,,,,,./stim/wavs/castilian_mismatch_interrogative-total-yn_La-nina-lava-el-plato.wav,1,,,131.4677,134.0236,1,1,2.0394,,0,21,21,25,1,26,0,castilian,,,,,,,,,,,,,,,,,,,,,,,,,,,,,,,,,,,,,,,,,,,,,,,,,,,,,,,,
,,,,,,,,,67478b43d90864464fd088bb,Spanish,younger than 13,"no, only English or Spanish",no,2025-08-12_17h05.11.849,empathy_intonation_perc_control,2024.2.4,Linux x86_64,59.88023952,67478b43d90864464fd088bb,68817205a84113384fffdfe3,689bac5dc0f86fcd5150ee18,,,,,,,,,,,,./stim/wavs/cuban_mismatch_interrogative-total-yn_El-nino-oye-el-rio.wav,1,,,134.0243,136.6398,0,0,2.0822,,0,22,22,30,1,31,1,cuban,,,,,,,,,,,,,,,,,,,,,,,,,,,,,,,,,,,,,,,,,,,,,,,,,,,,,,,,
,,,,,,,,,67478b43d90864464fd088bb,Spanish,younger than 13,"no, only English or Spanish",no,2025-08-12_17h05.11.849,empathy_intonation_perc_control,2024.2.4,Linux x86_64,59.88023952,67478b43d90864464fd088bb,68817205a84113384fffdfe3,689bac5dc0f86fcd5150ee18,,,,,,,,,,,,./stim/wavs/castilian_mismatch_declarative-broad-focus_Mi-novio-viene-del-lago.wav,0,,,136.6404,139.5222,0,1,2.3502,,0,23,23,71,1,72,0,castilian,,,,,,,,,,,,,,,,,,,,,,,,,,,,,,,,,,,,,,,,,,,,,,,,,,,,,,,,
,,,,,,,,,67478b43d90864464fd088bb,Spanish,younger than 13,"no, only English or Spanish",no,2025-08-12_17h05.11.849,empathy_intonation_perc_control,2024.2.4,Linux x86_64,59.88023952,67478b43d90864464fd088bb,68817205a84113384fffdfe3,689bac5dc0f86fcd5150ee18,,,,,,,,,,,,./stim/wavs/cuban_mismatch_interrogative-total-yn_Mi-novio-viene-del-lago.wav,1,,,139.5229,142.9047,0,0,2.85,,0,24,24,32,1,33,1,cuban,,,,,,,,,,,,,,,,,,,,,,,,,,,,,,,,,,,,,,,,,,,,,,,,,,,,,,,,
,,,,,,,,,67478b43d90864464fd088bb,Spanish,younger than 13,"no, only English or Spanish",no,2025-08-12_17h05.11.849,empathy_intonation_perc_control,2024.2.4,Linux x86_64,59.88023952,67478b43d90864464fd088bb,68817205a84113384fffdfe3,689bac5dc0f86fcd5150ee18,,,,,,,,,,,,./stim/wavs/puertorican_mismatch_declarative-broad-focus_El-hombre-mira-la-luna.wav,0,,,142.9054,145.7367,0,1,2.3082,,0,25,25,84,1,85,0,puertorican,,,,,,,,,,,,,,,,,,,,,,,,,,,,,,,,,,,,,,,,,,,,,,,,,,,,,,,,
,,,,,,,,,67478b43d90864464fd088bb,Spanish,younger than 13,"no, only English or Spanish",no,2025-08-12_17h05.11.849,empathy_intonation_perc_control,2024.2.4,Linux x86_64,59.88023952,67478b43d90864464fd088bb,68817205a84113384fffdfe3,689bac5dc0f86fcd5150ee18,,,,,,,,,,,,./stim/wavs/puertorican_mismatch_interrogative-total-yn_El-hombre-mira-la-luna.wav,1,,,145.7374,148.4538,1,1,2.1899,,0,26,26,39,1,40,1,puertorican,,,,,,,,,,,,,,,,,,,,,,,,,,,,,,,,,,,,,,,,,,,,,,,,,,,,,,,,
,,,,,,,,,67478b43d90864464fd088bb,Spanish,younger than 13,"no, only English or Spanish",no,2025-08-12_17h05.11.849,empathy_intonation_perc_control,2024.2.4,Linux x86_64,59.88023952,67478b43d90864464fd088bb,68817205a84113384fffdfe3,689bac5dc0f86fcd5150ee18,,,,,,,,,,,,./stim/wavs/cuban_match_interrogative-total-yn_Mariano-habla-del-tiempo.wav,1,,,148.4546,153.8352,0,0,4.8604,,0,27,27,10,1,11,1,cuban,,,,,,,,,,,,,,,,,,,,,,,,,,,,,,,,,,,,,,,,,,,,,,,,,,,,,,,,
,,,,,,,,,67478b43d90864464fd088bb,Spanish,younger than 13,"no, only English or Spanish",no,2025-08-12_17h05.11.849,empathy_intonation_perc_control,2024.2.4,Linux x86_64,59.88023952,67478b43d90864464fd088bb,68817205a84113384fffdfe3,689bac5dc0f86fcd5150ee18,,,,,,,,,,,,./stim/wavs/cuban_match_declarative-broad-focus_Maria-bebe-el-vino.wav,0,,,153.836,156.4004,0,1,2.0423,,0,28,28,53,1,54,0,cuban,,,,,,,,,,,,,,,,,,,,,,,,,,,,,,,,,,,,,,,,,,,,,,,,,,,,,,,,
,,,,,,,,,67478b43d90864464fd088bb,Spanish,younger than 13,"no, only English or Spanish",no,2025-08-12_17h05.11.849,empathy_intonation_perc_control,2024.2.4,Linux x86_64,59.88023952,67478b43d90864464fd088bb,68817205a84113384fffdfe3,689bac5dc0f86fcd5150ee18,,,,,,,,,,,,./stim/wavs/mexican_match_interrogative-total-yn_Emilio-ama-la-marcha.wav,1,,,156.4009,159.6826,1,1,2.7519,,0,29,29,15,1,16,0,mexican,,,,,,,,,,,,,,,,,,,,,,,,,,,,,,,,,,,,,,,,,,,,,,,,,,,,,,,,
,,,,,,,,,67478b43d90864464fd088bb,Spanish,younger than 13,"no, only English or Spanish",no,2025-08-12_17h05.11.849,empathy_intonation_perc_control,2024.2.4,Linux x86_64,59.88023952,67478b43d90864464fd088bb,68817205a84113384fffdfe3,689bac5dc0f86fcd5150ee18,,,,,,,,,,,,./stim/wavs/puertorican_mismatch_interrogative-total-yn_La-nina-lava-el-plato.wav,1,,,159.6833,164.1218,1,1,3.8999,,0,30,30,42,1,43,1,puertorican,,,,,,,,,,,,,,,,,,,,,,,,,,,,,,,,,,,,,,,,,,,,,,,,,,,,,,,,
,,,,,,,,,67478b43d90864464fd088bb,Spanish,younger than 13,"no, only English or Spanish",no,2025-08-12_17h05.11.849,empathy_intonation_perc_control,2024.2.4,Linux x86_64,59.88023952,67478b43d90864464fd088bb,68817205a84113384fffdfe3,689bac5dc0f86fcd5150ee18,,,,,,,,,,,,./stim/wavs/castilian_match_interrogative-total-yn_Maria-bebe-el-vino.wav,1,,,164.1239,166.8309,1,1,2.1864,,0,31,31,3,1,4,0,castilian,,,,,,,,,,,,,,,,,,,,,,,,,,,,,,,,,,,,,,,,,,,,,,,,,,,,,,,,
,,,,,,,,,67478b43d90864464fd088bb,Spanish,younger than 13,"no, only English or Spanish",no,2025-08-12_17h05.11.849,empathy_intonation_perc_control,2024.2.4,Linux x86_64,59.88023952,67478b43d90864464fd088bb,68817205a84113384fffdfe3,689bac5dc0f86fcd5150ee18,,,,,,,,,,,,./stim/wavs/mexican_mismatch_declarative-broad-focus_El-hombre-mira-la-luna.wav,0,,,166.8314,171.6294,0,1,4.2661,,0,32,32,79,1,80,0,mexican,,,,,,,,,,,,,,,,,,,,,,,,,,,,,,,,,,,,,,,,,,,,,,,,,,,,,,,,
,,,,,,,,,67478b43d90864464fd088bb,Spanish,younger than 13,"no, only English or Spanish",no,2025-08-12_17h05.11.849,empathy_intonation_perc_control,2024.2.4,Linux x86_64,59.88023952,67478b43d90864464fd088bb,68817205a84113384fffdfe3,689bac5dc0f86fcd5150ee18,,,,,,,,,,,,./stim/wavs/castilian_match_declarative-broad-focus_Maria-bebe-el-vino.wav,0,,,171.6299,174.7954,0,1,2.6341,,0,33,33,47,1,48,0,castilian,,,,,,,,,,,,,,,,,,,,,,,,,,,,,,,,,,,,,,,,,,,,,,,,,,,,,,,,
,,,,,,,,,67478b43d90864464fd088bb,Spanish,younger than 13,"no, only English or Spanish",no,2025-08-12_17h05.11.849,empathy_intonation_perc_control,2024.2.4,Linux x86_64,59.88023952,67478b43d90864464fd088bb,68817205a84113384fffdfe3,689bac5dc0f86fcd5150ee18,,,,,,,,,,,,./stim/wavs/castilian_mismatch_interrogative-total-yn_La-maestra-vive-en-Paris.wav,1,,,174.7961,177.6772,1,1,2.3503,,0,34,34,24,1,25,0,castilian,,,,,,,,,,,,,,,,,,,,,,,,,,,,,,,,,,,,,,,,,,,,,,,,,,,,,,,,
,,,,,,,,,67478b43d90864464fd088bb,Spanish,younger than 13,"no, only English or Spanish",no,2025-08-12_17h05.11.849,empathy_intonation_perc_control,2024.2.4,Linux x86_64,59.88023952,67478b43d90864464fd088bb,68817205a84113384fffdfe3,689bac5dc0f86fcd5150ee18,,,,,,,,,,,,./stim/wavs/mexican_mismatch_interrogative-total-yn_El-hombre-mira-la-luna.wav,1,,,177.6779,180.0604,1,1,1.8592,,0,35,35,34,1,35,0,mexican,,,,,,,,,,,,,,,,,,,,,,,,,,,,,,,,,,,,,,,,,,,,,,,,,,,,,,,,
,,,,,,,,,67478b43d90864464fd088bb,Spanish,younger than 13,"no, only English or Spanish",no,2025-08-12_17h05.11.849,empathy_intonation_perc_control,2024.2.4,Linux x86_64,59.88023952,67478b43d90864464fd088bb,68817205a84113384fffdfe3,689bac5dc0f86fcd5150ee18,,,,,,,,,,,,./stim/wavs/castilian_match_declarative-broad-focus_Marta-abre-el-regalo.wav,0,,,180.0609,182.8594,0,1,2.2761,,0,36,36,49,1,50,0,castilian,,,,,,,,,,,,,,,,,,,,,,,,,,,,,,,,,,,,,,,,,,,,,,,,,,,,,,,,
,,,,,,,,,67478b43d90864464fd088bb,Spanish,younger than 13,"no, only English or Spanish",no,2025-08-12_17h05.11.849,empathy_intonation_perc_control,2024.2.4,Linux x86_64,59.88023952,67478b43d90864464fd088bb,68817205a84113384fffdfe3,689bac5dc0f86fcd5150ee18,,,,,,,,,,,,./stim/wavs/cuban_match_declarative-broad-focus_Ana-lleva-el-abrigo.wav,0,,,182.8601,185.4087,0,1,2.017,,0,37,37,50,1,51,0,cuban,,,,,,,,,,,,,,,,,,,,,,,,,,,,,,,,,,,,,,,,,,,,,,,,,,,,,,,,
,,,,,,,,,67478b43d90864464fd088bb,Spanish,younger than 13,"no, only English or Spanish",no,2025-08-12_17h05.11.849,empathy_intonation_perc_control,2024.2.4,Linux x86_64,59.88023952,67478b43d90864464fd088bb,68817205a84113384fffdfe3,689bac5dc0f86fcd5150ee18,,,,,,,,,,,,./stim/wavs/puertorican_match_interrogative-total-yn_Ana-lleva-el-abrigo.wav,1,,,185.4098,187.8079,0,0,1.8666,,0,38,38,18,1,19,1,puertorican,,,,,,,,,,,,,,,,,,,,,,,,,,,,,,,,,,,,,,,,,,,,,,,,,,,,,,,,
,,,,,,,,,67478b43d90864464fd088bb,Spanish,younger than 13,"no, only English or Spanish",no,2025-08-12_17h05.11.849,empathy_intonation_perc_control,2024.2.4,Linux x86_64,59.88023952,67478b43d90864464fd088bb,68817205a84113384fffdfe3,689bac5dc0f86fcd5150ee18,,,,,,,,,,,,./stim/wavs/mexican_match_declarative-broad-focus_Marta-abre-el-regalo.wav,0,,,187.8087,190.4072,0,1,2.0672,,0,39,39,61,1,62,0,mexican,,,,,,,,,,,,,,,,,,,,,,,,,,,,,,,,,,,,,,,,,,,,,,,,,,,,,,,,
,,,,,,,,,67478b43d90864464fd088bb,Spanish,younger than 13,"no, only English or Spanish",no,2025-08-12_17h05.11.849,empathy_intonation_perc_control,2024.2.4,Linux x86_64,59.88023952,67478b43d90864464fd088bb,68817205a84113384fffdfe3,689bac5dc0f86fcd5150ee18,,,,,,,,,,,,./stim/wavs/puertorican_mismatch_declarative-broad-focus_El-bebe-comia-muy-bien.wav,0,,,190.4079,193.1235,0,1,2.1899,,0,40,40,83,1,84,0,puertorican,,,,,,,,,,,,,,,,,,,,,,,,,,,,,,,,,,,,,,,,,,,,,,,,,,,,,,,,
,,,,,,,,,67478b43d90864464fd088bb,Spanish,younger than 13,"no, only English or Spanish",no,2025-08-12_17h05.11.849,empathy_intonation_perc_control,2024.2.4,Linux x86_64,59.88023952,67478b43d90864464fd088bb,68817205a84113384fffdfe3,689bac5dc0f86fcd5150ee18,,,,,,,,,,,,./stim/wavs/castilian_mismatch_interrogative-total-yn_Mi-madre-come-la-fruta.wav,1,,,193.1243,195.772,1,1,2.1186,,0,41,41,26,1,27,0,castilian,,,,,,,,,,,,,,,,,,,,,,,,,,,,,,,,,,,,,,,,,,,,,,,,,,,,,,,,
,,,,,,,,,67478b43d90864464fd088bb,Spanish,younger than 13,"no, only English or Spanish",no,2025-08-12_17h05.11.849,empathy_intonation_perc_control,2024.2.4,Linux x86_64,59.88023952,67478b43d90864464fd088bb,68817205a84113384fffdfe3,689bac5dc0f86fcd5150ee18,,,,,,,,,,,,./stim/wavs/puertorican_match_interrogative-total-yn_Manuela-vende-el-carro.wav,1,,,195.7727,198.2382,0,0,1.9334,,0,42,42,22,1,23,1,puertorican,,,,,,,,,,,,,,,,,,,,,,,,,,,,,,,,,,,,,,,,,,,,,,,,,,,,,,,,
,,,,,,,,,67478b43d90864464fd088bb,Spanish,younger than 13,"no, only English or Spanish",no,2025-08-12_17h05.11.849,empathy_intonation_perc_control,2024.2.4,Linux x86_64,59.88023952,67478b43d90864464fd088bb,68817205a84113384fffdfe3,689bac5dc0f86fcd5150ee18,,,,,,,,,,,,./stim/wavs/mexican_match_interrogative-total-yn_Daniel-iba-a-Bolivia.wav,1,,,198.239,201.8534,1,1,3.0916,,0,43,43,13,1,14,0,mexican,,,,,,,,,,,,,,,,,,,,,,,,,,,,,,,,,,,,,,,,,,,,,,,,,,,,,,,,
,,,,,,,,,67478b43d90864464fd088bb,Spanish,younger than 13,"no, only English or Spanish",no,2025-08-12_17h05.11.849,empathy_intonation_perc_control,2024.2.4,Linux x86_64,59.88023952,67478b43d90864464fd088bb,68817205a84113384fffdfe3,689bac5dc0f86fcd5150ee18,,,,,,,,,,,,./stim/wavs/cuban_mismatch_interrogative-total-yn_Mi-tia-odia-la-lluvia.wav,1,,,201.8541,205.0695,0,0,2.6827,,0,44,44,33,1,34,1,cuban,,,,,,,,,,,,,,,,,,,,,,,,,,,,,,,,,,,,,,,,,,,,,,,,,,,,,,,,
,,,,,,,,,67478b43d90864464fd088bb,Spanish,younger than 13,"no, only English or Spanish",no,2025-08-12_17h05.11.849,empathy_intonation_perc_control,2024.2.4,Linux x86_64,59.88023952,67478b43d90864464fd088bb,68817205a84113384fffdfe3,689bac5dc0f86fcd5150ee18,,,,,,,,,,,,./stim/wavs/castilian_match_interrogative-total-yn_David-leia-el-libro.wav,1,,,205.0702,207.8189,1,1,2.2179,,0,45,45,0,1,1,0,castilian,,,,,,,,,,,,,,,,,,,,,,,,,,,,,,,,,,,,,,,,,,,,,,,,,,,,,,,,
,,,,,,,,,67478b43d90864464fd088bb,Spanish,younger than 13,"no, only English or Spanish",no,2025-08-12_17h05.11.849,empathy_intonation_perc_control,2024.2.4,Linux x86_64,59.88023952,67478b43d90864464fd088bb,68817205a84113384fffdfe3,689bac5dc0f86fcd5150ee18,,,,,,,,,,,,./stim/wavs/puertorican_mismatch_declarative-broad-focus_La-nina-lava-el-plato.wav,0,,,207.8197,210.2508,0,1,1.9002,,0,46,46,87,1,88,0,puertorican,,,,,,,,,,,,,,,,,,,,,,,,,,,,,,,,,,,,,,,,,,,,,,,,,,,,,,,,
,,,,,,,,,67478b43d90864464fd088bb,Spanish,younger than 13,"no, only English or Spanish",no,2025-08-12_17h05.11.849,empathy_intonation_perc_control,2024.2.4,Linux x86_64,59.88023952,67478b43d90864464fd088bb,68817205a84113384fffdfe3,689bac5dc0f86fcd5150ee18,,,,,,,,,,,,./stim/wavs/castilian_match_declarative-broad-focus_Mariano-habla-del-tiempo.wav,0,,,210.2514,213.5504,0,1,2.7825,,0,47,47,48,1,49,0,castilian,,,,,,,,,,,,,,,,,,,,,,,,,,,,,,,,,,,,,,,,,,,,,,,,,,,,,,,,
,,,,,,,,,67478b43d90864464fd088bb,Spanish,younger than 13,"no, only English or Spanish",no,2025-08-12_17h05.11.849,empathy_intonation_perc_control,2024.2.4,Linux x86_64,59.88023952,67478b43d90864464fd088bb,68817205a84113384fffdfe3,689bac5dc0f86fcd5150ee18,,,,,,,,,,,,./stim/wavs/puertorican_mismatch_interrogative-total-yn_La-maestra-vive-en-Paris.wav,1,,,213.5512,216.3158,0,0,2.2376,,0,48,48,41,1,42,1,puertorican,,,,,,,,,,,,,,,,,,,,,,,,,,,,,,,,,,,,,,,,,,,,,,,,,,,,,,,,
,,,,,,,,,67478b43d90864464fd088bb,Spanish,younger than 13,"no, only English or Spanish",no,2025-08-12_17h05.11.849,empathy_intonation_perc_control,2024.2.4,Linux x86_64,59.88023952,67478b43d90864464fd088bb,68817205a84113384fffdfe3,689bac5dc0f86fcd5150ee18,,,,,,,,,,,,./stim/wavs/mexican_match_interrogative-total-yn_Ana-lleva-el-abrigo.wav,1,,,216.3166,219.5983,1,1,2.7566,,0,49,49,12,1,13,0,mexican,,,,,,,,,,,,,,,,,,,,,,,,,,,,,,,,,,,,,,,,,,,,,,,,,,,,,,,,
,,,,,,,,,67478b43d90864464fd088bb,Spanish,younger than 13,"no, only English or Spanish",no,2025-08-12_17h05.11.849,empathy_intonation_perc_control,2024.2.4,Linux x86_64,59.88023952,67478b43d90864464fd088bb,68817205a84113384fffdfe3,689bac5dc0f86fcd5150ee18,,,,,,,,,,,,./stim/wavs/puertorican_mismatch_declarative-broad-focus_El-nino-oye-el-rio.wav,0,,,219.599,221.8142,0,1,1.6907,,0,50,50,85,1,86,0,puertorican,,,,,,,,,,,,,,,,,,,,,,,,,,,,,,,,,,,,,,,,,,,,,,,,,,,,,,,,
,,,,,,,,,67478b43d90864464fd088bb,Spanish,younger than 13,"no, only English or Spanish",no,2025-08-12_17h05.11.849,empathy_intonation_perc_control,2024.2.4,Linux x86_64,59.88023952,67478b43d90864464fd088bb,68817205a84113384fffdfe3,689bac5dc0f86fcd5150ee18,,,,,,,,,,,,./stim/wavs/cuban_match_declarative-broad-focus_Daniel-iba-a-Bolivia.wav,0,,,221.8149,225.6467,0,1,3.3064,,0,51,51,51,1,52,0,cuban,,,,,,,,,,,,,,,,,,,,,,,,,,,,,,,,,,,,,,,,,,,,,,,,,,,,,,,,
,,,,,,,,,67478b43d90864464fd088bb,Spanish,younger than 13,"no, only English or Spanish",no,2025-08-12_17h05.11.849,empathy_intonation_perc_control,2024.2.4,Linux x86_64,59.88023952,67478b43d90864464fd088bb,68817205a84113384fffdfe3,689bac5dc0f86fcd5150ee18,,,,,,,,,,,,./stim/wavs/cuban_mismatch_declarative-broad-focus_Mi-tia-odia-la-lluvia.wav,0,,,225.6475,228.5461,0,1,2.374,,0,52,52,77,1,78,0,cuban,,,,,,,,,,,,,,,,,,,,,,,,,,,,,,,,,,,,,,,,,,,,,,,,,,,,,,,,
,,,,,,,,,67478b43d90864464fd088bb,Spanish,younger than 13,"no, only English or Spanish",no,2025-08-12_17h05.11.849,empathy_intonation_perc_control,2024.2.4,Linux x86_64,59.88023952,67478b43d90864464fd088bb,68817205a84113384fffdfe3,689bac5dc0f86fcd5150ee18,,,,,,,,,,,,./stim/wavs/cuban_match_declarative-broad-focus_Mariano-habla-del-tiempo.wav,0,,,228.5467,233.0634,0,1,3.9889,,0,53,53,54,1,55,0,cuban,,,,,,,,,,,,,,,,,,,,,,,,,,,,,,,,,,,,,,,,,,,,,,,,,,,,,,,,
,,,,,,,,,67478b43d90864464fd088bb,Spanish,younger than 13,"no, only English or Spanish",no,2025-08-12_17h05.11.849,empathy_intonation_perc_control,2024.2.4,Linux x86_64,59.88023952,67478b43d90864464fd088bb,68817205a84113384fffdfe3,689bac5dc0f86fcd5150ee18,,,,,,,,,,,,./stim/wavs/castilian_match_interrogative-total-yn_Mariano-habla-del-tiempo.wav,1,,,233.064,235.9437,1,1,2.3565,,0,54,54,4,1,5,0,castilian,,,,,,,,,,,,,,,,,,,,,,,,,,,,,,,,,,,,,,,,,,,,,,,,,,,,,,,,
,,,,,,,,,67478b43d90864464fd088bb,Spanish,younger than 13,"no, only English or Spanish",no,2025-08-12_17h05.11.849,empathy_intonation_perc_control,2024.2.4,Linux x86_64,59.88023952,67478b43d90864464fd088bb,68817205a84113384fffdfe3,689bac5dc0f86fcd5150ee18,,,,,,,,,,,,./stim/wavs/cuban_mismatch_declarative-broad-focus_El-hombre-mira-la-luna.wav,0,,,235.9442,238.5097,0,1,2.0376,,0,55,55,74,1,75,0,cuban,,,,,,,,,,,,,,,,,,,,,,,,,,,,,,,,,,,,,,,,,,,,,,,,,,,,,,,,
,,,,,,,,,67478b43d90864464fd088bb,Spanish,younger than 13,"no, only English or Spanish",no,2025-08-12_17h05.11.849,empathy_intonation_perc_control,2024.2.4,Linux x86_64,59.88023952,67478b43d90864464fd088bb,68817205a84113384fffdfe3,689bac5dc0f86fcd5150ee18,,,,,,,,,,,,./stim/wavs/puertorican_mismatch_interrogative-total-yn_El-nino-oye-el-rio.wav,1,,,238.5104,242.1753,0,0,3.1329,,0,56,56,40,1,41,1,puertorican,,,,,,,,,,,,,,,,,,,,,,,,,,,,,,,,,,,,,,,,,,,,,,,,,,,,,,,,
,,,,,,,,,67478b43d90864464fd088bb,Spanish,younger than 13,"no, only English or Spanish",no,2025-08-12_17h05.11.849,empathy_intonation_perc_control,2024.2.4,Linux x86_64,59.88023952,67478b43d90864464fd088bb,68817205a84113384fffdfe3,689bac5dc0f86fcd5150ee18,,,,,,,,,,,,./stim/wavs/cuban_match_declarative-broad-focus_Manuela-vende-el-carro.wav,0,,,242.1759,244.8247,0,1,2.1238,,0,57,57,52,1,53,0,cuban,,,,,,,,,,,,,,,,,,,,,,,,,,,,,,,,,,,,,,,,,,,,,,,,,,,,,,,,
,,,,,,,,,67478b43d90864464fd088bb,Spanish,younger than 13,"no, only English or Spanish",no,2025-08-12_17h05.11.849,empathy_intonation_perc_control,2024.2.4,Linux x86_64,59.88023952,67478b43d90864464fd088bb,68817205a84113384fffdfe3,689bac5dc0f86fcd5150ee18,,,,,,,,,,,,./stim/wavs/mexican_match_interrogative-total-yn_Marta-abre-el-regalo.wav,1,,,244.8252,247.2568,1,1,1.9036,,0,58,58,17,1,18,0,mexican,,,,,,,,,,,,,,,,,,,,,,,,,,,,,,,,,,,,,,,,,,,,,,,,,,,,,,,,
,,,,,,,,,67478b43d90864464fd088bb,Spanish,younger than 13,"no, only English or Spanish",no,2025-08-12_17h05.11.849,empathy_intonation_perc_control,2024.2.4,Linux x86_64,59.88023952,67478b43d90864464fd088bb,68817205a84113384fffdfe3,689bac5dc0f86fcd5150ee18,,,,,,,,,,,,./stim/wavs/mexican_mismatch_interrogative-total-yn_Mi-novio-viene-del-lago.wav,1,,,247.2574,250.3899,1,1,2.6068,,0,59,59,37,1,38,0,mexican,,,,,,,,,,,,,,,,,,,,,,,,,,,,,,,,,,,,,,,,,,,,,,,,,,,,,,,,
,,,,,,,,,67478b43d90864464fd088bb,Spanish,younger than 13,"no, only English or Spanish",no,2025-08-12_17h05.11.849,empathy_intonation_perc_control,2024.2.4,Linux x86_64,59.88023952,67478b43d90864464fd088bb,68817205a84113384fffdfe3,689bac5dc0f86fcd5150ee18,,,,,,,,,,,,./stim/wavs/castilian_match_declarative-broad-focus_David-leia-el-libro.wav,0,,,250.391,253.0889,0,1,2.1713,,0,60,60,44,1,45,0,castilian,,,,,,,,,,,,,,,,,,,,,,,,,,,,,,,,,,,,,,,,,,,,,,,,,,,,,,,,
,,,,,,,,,67478b43d90864464fd088bb,Spanish,younger than 13,"no, only English or Spanish",no,2025-08-12_17h05.11.849,empathy_intonation_perc_control,2024.2.4,Linux x86_64,59.88023952,67478b43d90864464fd088bb,68817205a84113384fffdfe3,689bac5dc0f86fcd5150ee18,,,,,,,,,,,,./stim/wavs/castilian_match_declarative-broad-focus_Manuela-vende-el-carro.wav,0,,,253.0895,255.988,0,1,2.3674,,0,61,61,46,1,47,0,castilian,,,,,,,,,,,,,,,,,,,,,,,,,,,,,,,,,,,,,,,,,,,,,,,,,,,,,,,,
,,,,,,,,,67478b43d90864464fd088bb,Spanish,younger than 13,"no, only English or Spanish",no,2025-08-12_17h05.11.849,empathy_intonation_perc_control,2024.2.4,Linux x86_64,59.88023952,67478b43d90864464fd088bb,68817205a84113384fffdfe3,689bac5dc0f86fcd5150ee18,,,,,,,,,,,,./stim/wavs/puertorican_match_declarative-broad-focus_Emilio-ama-la-marcha.wav,0,,,255.9886,258.4873,0,1,1.975,,0,62,62,65,1,66,0,puertorican,,,,,,,,,,,,,,,,,,,,,,,,,,,,,,,,,,,,,,,,,,,,,,,,,,,,,,,,
,,,,,,,,,67478b43d90864464fd088bb,Spanish,younger than 13,"no, only English or Spanish",no,2025-08-12_17h05.11.849,empathy_intonation_perc_control,2024.2.4,Linux x86_64,59.88023952,67478b43d90864464fd088bb,68817205a84113384fffdfe3,689bac5dc0f86fcd5150ee18,,,,,,,,,,,,./stim/wavs/mexican_mismatch_declarative-broad-focus_La-maestra-vive-en-Paris.wav,0,,,258.4879,261.2198,0,1,2.2005,,0,63,63,80,1,81,0,mexican,,,,,,,,,,,,,,,,,,,,,,,,,,,,,,,,,,,,,,,,,,,,,,,,,,,,,,,,
,,,,,,,,,67478b43d90864464fd088bb,Spanish,younger than 13,"no, only English or Spanish",no,2025-08-12_17h05.11.849,empathy_intonation_perc_control,2024.2.4,Linux x86_64,59.88023952,67478b43d90864464fd088bb,68817205a84113384fffdfe3,689bac5dc0f86fcd5150ee18,,,,,,,,,,,,./stim/wavs/mexican_match_interrogative-total-yn_Mariano-habla-del-tiempo.wav,1,,,261.2205,263.786,1,1,2.0341,,0,64,64,16,1,17,0,mexican,,,,,,,,,,,,,,,,,,,,,,,,,,,,,,,,,,,,,,,,,,,,,,,,,,,,,,,,
,,,,,,,,,67478b43d90864464fd088bb,Spanish,younger than 13,"no, only English or Spanish",no,2025-08-12_17h05.11.849,empathy_intonation_perc_control,2024.2.4,Linux x86_64,59.88023952,67478b43d90864464fd088bb,68817205a84113384fffdfe3,689bac5dc0f86fcd5150ee18,,,,,,,,,,,,./stim/wavs/mexican_match_declarative-broad-focus_Mariano-habla-del-tiempo.wav,0,,,263.7867,266.1178,0,1,1.811,,0,65,65,60,1,61,0,mexican,,,,,,,,,,,,,,,,,,,,,,,,,,,,,,,,,,,,,,,,,,,,,,,,,,,,,,,,
,,,,,,,,,67478b43d90864464fd088bb,Spanish,younger than 13,"no, only English or Spanish",no,2025-08-12_17h05.11.849,empathy_intonation_perc_control,2024.2.4,Linux x86_64,59.88023952,67478b43d90864464fd088bb,68817205a84113384fffdfe3,689bac5dc0f86fcd5150ee18,,,,,,,,,,,,./stim/wavs/cuban_match_declarative-broad-focus_Marta-abre-el-regalo.wav,0,,,266.1185,268.634,0,1,1.9836,,0,66,66,55,1,56,0,cuban,,,,,,,,,,,,,,,,,,,,,,,,,,,,,,,,,,,,,,,,,,,,,,,,,,,,,,,,
,,,,,,,,,67478b43d90864464fd088bb,Spanish,younger than 13,"no, only English or Spanish",no,2025-08-12_17h05.11.849,empathy_intonation_perc_control,2024.2.4,Linux x86_64,59.88023952,67478b43d90864464fd088bb,68817205a84113384fffdfe3,689bac5dc0f86fcd5150ee18,,,,,,,,,,,,./stim/wavs/castilian_match_interrogative-total-yn_Emilio-ama-la-marcha.wav,1,,,268.6347,271.3828,1,1,2.2198,,0,67,67,1,1,2,0,castilian,,,,,,,,,,,,,,,,,,,,,,,,,,,,,,,,,,,,,,,,,,,,,,,,,,,,,,,,
,,,,,,,,,67478b43d90864464fd088bb,Spanish,younger than 13,"no, only English or Spanish",no,2025-08-12_17h05.11.849,empathy_intonation_perc_control,2024.2.4,Linux x86_64,59.88023952,67478b43d90864464fd088bb,68817205a84113384fffdfe3,689bac5dc0f86fcd5150ee18,,,,,,,,,,,,./stim/wavs/puertorican_mismatch_declarative-broad-focus_La-maestra-vive-en-Paris.wav,0,,,271.3835,274.0487,0,1,2.1385,,0,68,68,86,1,87,0,puertorican,,,,,,,,,,,,,,,,,,,,,,,,,,,,,,,,,,,,,,,,,,,,,,,,,,,,,,,,
,,,,,,,,,67478b43d90864464fd088bb,Spanish,younger than 13,"no, only English or Spanish",no,2025-08-12_17h05.11.849,empathy_intonation_perc_control,2024.2.4,Linux x86_64,59.88023952,67478b43d90864464fd088bb,68817205a84113384fffdfe3,689bac5dc0f86fcd5150ee18,,,,,,,,,,,,./stim/wavs/mexican_mismatch_declarative-broad-focus_Mi-novio-viene-del-lago.wav,0,,,274.0494,276.7645,0,1,2.1904,,0,69,69,81,1,82,0,mexican,,,,,,,,,,,,,,,,,,,,,,,,,,,,,,,,,,,,,,,,,,,,,,,,,,,,,,,,
,,,,,,,,,67478b43d90864464fd088bb,Spanish,younger than 13,"no, only English or Spanish",no,2025-08-12_17h05.11.849,empathy_intonation_perc_control,2024.2.4,Linux x86_64,59.88023952,67478b43d90864464fd088bb,68817205a84113384fffdfe3,689bac5dc0f86fcd5150ee18,,,,,,,,,,,,./stim/wavs/cuban_match_interrogative-total-yn_Manuela-vende-el-carro.wav,1,,,276.7653,279.4475,0,0,2.1529,,0,70,70,8,1,9,1,cuban,,,,,,,,,,,,,,,,,,,,,,,,,,,,,,,,,,,,,,,,,,,,,,,,,,,,,,,,
,,,,,,,,,67478b43d90864464fd088bb,Spanish,younger than 13,"no, only English or Spanish",no,2025-08-12_17h05.11.849,empathy_intonation_perc_control,2024.2.4,Linux x86_64,59.88023952,67478b43d90864464fd088bb,68817205a84113384fffdfe3,689bac5dc0f86fcd5150ee18,,,,,,,,,,,,./stim/wavs/cuban_mismatch_declarative-broad-focus_El-bebe-comia-muy-bien.wav,0,,,279.4482,282.0464,0,1,2.0669,,0,71,71,73,1,74,0,cuban,,,,,,,,,,,,,,,,,,,,,,,,,,,,,,,,,,,,,,,,,,,,,,,,,,,,,,,,
,,,,,,,,,67478b43d90864464fd088bb,Spanish,younger than 13,"no, only English or Spanish",no,2025-08-12_17h05.11.849,empathy_intonation_perc_control,2024.2.4,Linux x86_64,59.88023952,67478b43d90864464fd088bb,68817205a84113384fffdfe3,689bac5dc0f86fcd5150ee18,,,,,,,,,,,,./stim/wavs/puertorican_mismatch_interrogative-total-yn_Mi-madre-come-la-fruta.wav,1,,,282.047,284.6122,0,0,2.0391,,0,72,72,43,1,44,1,puertorican,,,,,,,,,,,,,,,,,,,,,,,,,,,,,,,,,,,,,,,,,,,,,,,,,,,,,,,,
,,,,,,,,,67478b43d90864464fd088bb,Spanish,younger than 13,"no, only English or Spanish",no,2025-08-12_17h05.11.849,empathy_intonation_perc_control,2024.2.4,Linux x86_64,59.88023952,67478b43d90864464fd088bb,68817205a84113384fffdfe3,689bac5dc0f86fcd5150ee18,,,,,,,,,,,,./stim/wavs/mexican_match_interrogative-total-yn_David-leia-el-libro.wav,1,,,284.6129,286.8956,1,1,1.7525,,0,73,73,14,1,15,0,mexican,,,,,,,,,,,,,,,,,,,,,,,,,,,,,,,,,,,,,,,,,,,,,,,,,,,,,,,,
,,,,,,,,,67478b43d90864464fd088bb,Spanish,younger than 13,"no, only English or Spanish",no,2025-08-12_17h05.11.849,empathy_intonation_perc_control,2024.2.4,Linux x86_64,59.88023952,67478b43d90864464fd088bb,68817205a84113384fffdfe3,689bac5dc0f86fcd5150ee18,,,,,,,,,,,,./stim/wavs/castilian_mismatch_declarative-broad-focus_La-maestra-vive-en-Paris.wav,0,,,286.8963,289.5778,0,1,2.1586,,0,74,74,69,1,70,0,castilian,,,,,,,,,,,,,,,,,,,,,,,,,,,,,,,,,,,,,,,,,,,,,,,,,,,,,,,,
,,,,,,,,,67478b43d90864464fd088bb,Spanish,younger than 13,"no, only English or Spanish",no,2025-08-12_17h05.11.849,empathy_intonation_perc_control,2024.2.4,Linux x86_64,59.88023952,67478b43d90864464fd088bb,68817205a84113384fffdfe3,689bac5dc0f86fcd5150ee18,,,,,,,,,,,,./stim/wavs/castilian_mismatch_declarative-broad-focus_El-nino-oye-el-rio.wav,0,,,289.5784,292.6105,0,1,2.5002,,0,75,75,68,1,69,0,castilian,,,,,,,,,,,,,,,,,,,,,,,,,,,,,,,,,,,,,,,,,,,,,,,,,,,,,,,,
,,,,,,,,,67478b43d90864464fd088bb,Spanish,younger than 13,"no, only English or Spanish",no,2025-08-12_17h05.11.849,empathy_intonation_perc_control,2024.2.4,Linux x86_64,59.88023952,67478b43d90864464fd088bb,68817205a84113384fffdfe3,689bac5dc0f86fcd5150ee18,,,,,,,,,,,,./stim/wavs/cuban_match_interrogative-total-yn_Marta-abre-el-regalo.wav,1,,,292.6111,296.2756,0,0,3.1361,,0,76,76,11,1,12,1,cuban,,,,,,,,,,,,,,,,,,,,,,,,,,,,,,,,,,,,,,,,,,,,,,,,,,,,,,,,
,,,,,,,,,67478b43d90864464fd088bb,Spanish,younger than 13,"no, only English or Spanish",no,2025-08-12_17h05.11.849,empathy_intonation_perc_control,2024.2.4,Linux x86_64,59.88023952,67478b43d90864464fd088bb,68817205a84113384fffdfe3,689bac5dc0f86fcd5150ee18,,,,,,,,,,,,./stim/wavs/castilian_mismatch_interrogative-total-yn_Mi-novio-viene-del-lago.wav,1,,,296.2763,299.575,1,1,2.7665,,0,77,77,27,1,28,0,castilian,,,,,,,,,,,,,,,,,,,,,,,,,,,,,,,,,,,,,,,,,,,,,,,,,,,,,,,,
,,,,,,,,,67478b43d90864464fd088bb,Spanish,younger than 13,"no, only English or Spanish",no,2025-08-12_17h05.11.849,empathy_intonation_perc_control,2024.2.4,Linux x86_64,59.88023952,67478b43d90864464fd088bb,68817205a84113384fffdfe3,689bac5dc0f86fcd5150ee18,,,,,,,,,,,,./stim/wavs/puertorican_match_interrogative-total-yn_Maria-bebe-el-vino.wav,1,,,299.5756,302.4911,0,0,2.384,,0,78,78,23,1,24,1,puertorican,,,,,,,,,,,,,,,,,,,,,,,,,,,,,,,,,,,,,,,,,,,,,,,,,,,,,,,,
,,,,,,,,,67478b43d90864464fd088bb,Spanish,younger than 13,"no, only English or Spanish",no,2025-08-12_17h05.11.849,empathy_intonation_perc_control,2024.2.4,Linux x86_64,59.88023952,67478b43d90864464fd088bb,68817205a84113384fffdfe3,689bac5dc0f86fcd5150ee18,,,,,,,,,,,,./stim/wavs/castilian_mismatch_interrogative-total-yn_Mi-tia-odia-la-lluvia.wav,1,,,302.4918,305.0743,1,1,2.0511,,0,79,79,28,1,29,0,castilian,,,,,,,,,,,,,,,,,,,,,,,,,,,,,,,,,,,,,,,,,,,,,,,,,,,,,,,,
,,,,,,,,,67478b43d90864464fd088bb,Spanish,younger than 13,"no, only English or Spanish",no,2025-08-12_17h05.11.849,empathy_intonation_perc_control,2024.2.4,Linux x86_64,59.88023952,67478b43d90864464fd088bb,68817205a84113384fffdfe3,689bac5dc0f86fcd5150ee18,,,,,,,,,,,,./stim/wavs/castilian_match_declarative-broad-focus_Emilio-ama-la-marcha.wav,0,,,305.0755,308.3724,0,1,2.7765,,0,80,80,45,1,46,0,castilian,,,,,,,,,,,,,,,,,,,,,,,,,,,,,,,,,,,,,,,,,,,,,,,,,,,,,,,,
,,,,,,,,,67478b43d90864464fd088bb,Spanish,younger than 13,"no, only English or Spanish",no,2025-08-12_17h05.11.849,empathy_intonation_perc_control,2024.2.4,Linux x86_64,59.88023952,67478b43d90864464fd088bb,68817205a84113384fffdfe3,689bac5dc0f86fcd5150ee18,,,,,,,,,,,,./stim/wavs/puertorican_match_declarative-broad-focus_Maria-bebe-el-vino.wav,0,,,308.373,311.821,0,1,2.9201,,0,81,81,67,1,68,0,puertorican,,,,,,,,,,,,,,,,,,,,,,,,,,,,,,,,,,,,,,,,,,,,,,,,,,,,,,,,
,,,,,,,,,67478b43d90864464fd088bb,Spanish,younger than 13,"no, only English or Spanish",no,2025-08-12_17h05.11.849,empathy_intonation_perc_control,2024.2.4,Linux x86_64,59.88023952,67478b43d90864464fd088bb,68817205a84113384fffdfe3,689bac5dc0f86fcd5150ee18,,,,,,,,,,,,./stim/wavs/puertorican_match_declarative-broad-focus_Daniel-iba-a-Bolivia.wav,0,,,311.8218,314.3379,0,1,1.9844,,0,82,82,63,1,64,0,puertorican,,,,,,,,,,,,,,,,,,,,,,,,,,,,,,,,,,,,,,,,,,,,,,,,,,,,,,,,
,,,,,,,,,67478b43d90864464fd088bb,Spanish,younger than 13,"no, only English or Spanish",no,2025-08-12_17h05.11.849,empathy_intonation_perc_control,2024.2.4,Linux x86_64,59.88023952,67478b43d90864464fd088bb,68817205a84113384fffdfe3,689bac5dc0f86fcd5150ee18,,,,,,,,,,,,./stim/wavs/mexican_match_declarative-broad-focus_Ana-lleva-el-abrigo.wav,0,,,314.3387,317.5862,0,1,2.7238,,0,83,83,56,1,57,0,mexican,,,,,,,,,,,,,,,,,,,,,,,,,,,,,,,,,,,,,,,,,,,,,,,,,,,,,,,,
,,,,,,,,,67478b43d90864464fd088bb,Spanish,younger than 13,"no, only English or Spanish",no,2025-08-12_17h05.11.849,empathy_intonation_perc_control,2024.2.4,Linux x86_64,59.88023952,67478b43d90864464fd088bb,68817205a84113384fffdfe3,689bac5dc0f86fcd5150ee18,,,,,,,,,,,,./stim/wavs/mexican_mismatch_interrogative-total-yn_La-maestra-vive-en-Paris.wav,1,,,317.5868,320.5688,1,1,2.4601,,0,84,84,36,1,37,0,mexican,,,,,,,,,,,,,,,,,,,,,,,,,,,,,,,,,,,,,,,,,,,,,,,,,,,,,,,,
,,,,,,,,,67478b43d90864464fd088bb,Spanish,younger than 13,"no, only English or Spanish",no,2025-08-12_17h05.11.849,empathy_intonation_perc_control,2024.2.4,Linux x86_64,59.88023952,67478b43d90864464fd088bb,68817205a84113384fffdfe3,689bac5dc0f86fcd5150ee18,,,,,,,,,,,,./stim/wavs/puertorican_match_declarative-broad-focus_Manuela-vende-el-carro.wav,0,,,320.5694,323.4509,0,1,2.359,,0,85,85,66,1,67,0,puertorican,,,,,,,,,,,,,,,,,,,,,,,,,,,,,,,,,,,,,,,,,,,,,,,,,,,,,,,,
,,,,,,,,,67478b43d90864464fd088bb,Spanish,younger than 13,"no, only English or Spanish",no,2025-08-12_17h05.11.849,empathy_intonation_perc_control,2024.2.4,Linux x86_64,59.88023952,67478b43d90864464fd088bb,68817205a84113384fffdfe3,689bac5dc0f86fcd5150ee18,,,,,,,,,,,,./stim/wavs/puertorican_match_interrogative-total-yn_Emilio-ama-la-marcha.wav,1,,,323.4516,327.5167,0,0,3.5361,,0,86,86,21,1,22,1,puertorican,,,,,,,,,,,,,,,,,,,,,,,,,,,,,,,,,,,,,,,,,,,,,,,,,,,,,,,,
,,,,,,,,,67478b43d90864464fd088bb,Spanish,younger than 13,"no, only English or Spanish",no,2025-08-12_17h05.11.849,empathy_intonation_perc_control,2024.2.4,Linux x86_64,59.88023952,67478b43d90864464fd088bb,68817205a84113384fffdfe3,689bac5dc0f86fcd5150ee18,,,,,,,,,,,,./stim/wavs/mexican_mismatch_interrogative-total-yn_El-nino-oye-el-rio.wav,1,,,327.5173,329.7162,1,1,1.6925,,0,87,87,35,1,36,0,mexican,,,,,,,,,,,,,,,,,,,,,,,,,,,,,,,,,,,,,,,,,,,,,,,,,,,,,,,,
,,,,,,,"Great! Now we will move on. The next task consists of about 60 trials, in each of which you will see a string of letters. 
  
  Your task is to decide whether this is a real Spanish word or not.", (press the spacebar to continue),67478b43d90864464fd088bb,Spanish,younger than 13,"no, only English or Spanish",no,2025-08-12_17h05.11.849,empathy_intonation_perc_control,2024.2.4,Linux x86_64,59.88023952,67478b43d90864464fd088bb,68817205a84113384fffdfe3,689bac5dc0f86fcd5150ee18,,,,,,,,,,,,,,,,,,,,,,,,,,,,,,329.7278,349.9941,0,0,0,0,1,,,,,,,,,,,,,,,,,,,,,,,,,,,,,,,,,,,,,,,,,,,,,,,,,
,,,,,,,"If you think it is an existing Spanish word, you type '1' (for 'REAL'), and if you think it is not an existing Spanish word, you type '0' (for 'FAKE').", (press the spacebar to continue),67478b43d90864464fd088bb,Spanish,younger than 13,"no, only English or Spanish",no,2025-08-12_17h05.11.849,empathy_intonation_perc_control,2024.2.4,Linux x86_64,59.88023952,67478b43d90864464fd088bb,68817205a84113384fffdfe3,689bac5dc0f86fcd5150ee18,,,,,,,,,,,,,,,,,,,,,,,,,,,,,,349.9971,358.3078,0,1,1,1,1,,,,,,,,,,,,,,,,,,,,,,,,,,,,,,,,,,,,,,,,,,,,,,,,,
,,,,,,,"If you are sure that the word exists, even though you don’t know its exact meaning, you may still respond '1' (REAL). 
  
  But if you are not sure if it is an existing word, you should respond '0' (FAKE).
  
  Let's do a practice round...", (press the spacebar to continue),67478b43d90864464fd088bb,Spanish,younger than 13,"no, only English or Spanish",no,2025-08-12_17h05.11.849,empathy_intonation_perc_control,2024.2.4,Linux x86_64,59.88023952,67478b43d90864464fd088bb,68817205a84113384fffdfe3,689bac5dc0f86fcd5150ee18,,,,,,,,,,,,,,,,,,,,,,,,,,,,,,358.3111,371.6878,0,2,2,2,1,,,,,,,,,,,,,,,,,,,,,,,,,,,,,,,,,,,,,,,,,,,,,,,,,
,,,,,,,,,67478b43d90864464fd088bb,Spanish,younger than 13,"no, only English or Spanish",no,2025-08-12_17h05.11.849,empathy_intonation_perc_control,2024.2.4,Linux x86_64,59.88023952,67478b43d90864464fd088bb,68817205a84113384fffdfe3,689bac5dc0f86fcd5150ee18,,,,,,,,,,,,,0,,,,,,,,,,,,,,,,,,,,,,,,371.6975,376.5695,1,0,4.3445,,376.5699,377.5691,0,0,0,0,1,0,depiste,REAL,FAKE,,,,,,,,,,,,,,,,,,,,,,,,,,,,,,,,
,,,,,,,,,67478b43d90864464fd088bb,Spanish,younger than 13,"no, only English or Spanish",no,2025-08-12_17h05.11.849,empathy_intonation_perc_control,2024.2.4,Linux x86_64,59.88023952,67478b43d90864464fd088bb,68817205a84113384fffdfe3,689bac5dc0f86fcd5150ee18,,,,,,,,,,,,,1,,,,,,,,,,,,,,,,,,,,,,,,377.5708,379.1856,1,1,1.0855,,379.1864,380.1845,0,1,1,1,1,0,sí,REAL,FAKE,,,,,,,,,,,,,,,,,,,,,,,,,,,,,,,,
,,,,,,,,,67478b43d90864464fd088bb,Spanish,younger than 13,"no, only English or Spanish",no,2025-08-12_17h05.11.849,empathy_intonation_perc_control,2024.2.4,Linux x86_64,59.88023952,67478b43d90864464fd088bb,68817205a84113384fffdfe3,689bac5dc0f86fcd5150ee18,,,,,,,,,,,,,0,,,,,,,,,,,,,,,,,,,,,,,,380.1856,383.867,1,0,3.1596,,383.8681,384.867,0,2,2,2,1,0,coné,REAL,FAKE,,,,,,,,,,,,,,,,,,,,,,,,,,,,,,,,
,,,,,,,,,67478b43d90864464fd088bb,Spanish,younger than 13,"no, only English or Spanish",no,2025-08-12_17h05.11.849,empathy_intonation_perc_control,2024.2.4,Linux x86_64,59.88023952,67478b43d90864464fd088bb,68817205a84113384fffdfe3,689bac5dc0f86fcd5150ee18,,,,,,,,,,,,,0,,,,,,,,,,,,,,,,,,,,,,,,384.8684,386.8348,1,0,1.4432,,386.835,387.8326,0,3,3,3,1,0,calpar,REAL,FAKE,,,,,,,,,,,,,,,,,,,,,,,,,,,,,,,,
,,,,,,,,,67478b43d90864464fd088bb,Spanish,younger than 13,"no, only English or Spanish",no,2025-08-12_17h05.11.849,empathy_intonation_perc_control,2024.2.4,Linux x86_64,59.88023952,67478b43d90864464fd088bb,68817205a84113384fffdfe3,689bac5dc0f86fcd5150ee18,,,,,,,,,,,,,0,,,,,,,,,,,,,,,,,,,,,,,,387.8341,390.9992,0,1,2.6301,,391.0004,391.9977,0,4,4,4,1,0,joten,REAL,FAKE,,,,,,,,,,,,,,,,,,,,,,,,,,,,,,,,
,,,,,,,,,67478b43d90864464fd088bb,Spanish,younger than 13,"no, only English or Spanish",no,2025-08-12_17h05.11.849,empathy_intonation_perc_control,2024.2.4,Linux x86_64,59.88023952,67478b43d90864464fd088bb,68817205a84113384fffdfe3,689bac5dc0f86fcd5150ee18,,,,,,,,,,,,,1,,,,,,,,,,,,,,,,,,,,,,,,391.999,393.8809,1,1,1.3601,,393.881,394.8811,0,5,5,5,1,0,sacapuntas,REAL,FAKE,,,,,,,,,,,,,,,,,,,,,,,,,,,,,,,,
,,,,,,,,,67478b43d90864464fd088bb,Spanish,younger than 13,"no, only English or Spanish",no,2025-08-12_17h05.11.849,empathy_intonation_perc_control,2024.2.4,Linux x86_64,59.88023952,67478b43d90864464fd088bb,68817205a84113384fffdfe3,689bac5dc0f86fcd5150ee18,,,,,,,,,,,,,0,,,,,,,,,,,,,,,,,,,,,,,,394.8824,397.0807,0,1,1.6768,,397.0808,398.0801,0,6,6,6,1,0,priba,REAL,FAKE,,,,,,,,,,,,,,,,,,,,,,,,,,,,,,,,
,,,,,,,,,67478b43d90864464fd088bb,Spanish,younger than 13,"no, only English or Spanish",no,2025-08-12_17h05.11.849,empathy_intonation_perc_control,2024.2.4,Linux x86_64,59.88023952,67478b43d90864464fd088bb,68817205a84113384fffdfe3,689bac5dc0f86fcd5150ee18,,,,,,,,,,,,,0,,,,,,,,,,,,,,,,,,,,,,,,398.0813,400.662,1,0,2.0436,,400.6633,401.662,0,7,7,7,1,0,pelasula,REAL,FAKE,,,,,,,,,,,,,,,,,,,,,,,,,,,,,,,,
,,,,,,,,,67478b43d90864464fd088bb,Spanish,younger than 13,"no, only English or Spanish",no,2025-08-12_17h05.11.849,empathy_intonation_perc_control,2024.2.4,Linux x86_64,59.88023952,67478b43d90864464fd088bb,68817205a84113384fffdfe3,689bac5dc0f86fcd5150ee18,,,,,,,,,,,,,1,,,,,,,,,,,,,,,,,,,,,,,,401.6632,403.2287,1,1,1.0274,,403.2295,404.2278,0,8,8,8,1,0,bien,REAL,FAKE,,,,,,,,,,,,,,,,,,,,,,,,,,,,,,,,
,,,,,,,,,67478b43d90864464fd088bb,Spanish,younger than 13,"no, only English or Spanish",no,2025-08-12_17h05.11.849,empathy_intonation_perc_control,2024.2.4,Linux x86_64,59.88023952,67478b43d90864464fd088bb,68817205a84113384fffdfe3,689bac5dc0f86fcd5150ee18,,,,,,,,,,,,,1,,,,,,,,,,,,,,,,,,,,,,,,404.2291,406.5775,1,1,1.8112,,406.5777,407.5765,0,9,9,9,1,0,casa,REAL,FAKE,,,,,,,,,,,,,,,,,,,,,,,,,,,,,,,,
,,,,,,,,,67478b43d90864464fd088bb,Spanish,younger than 13,"no, only English or Spanish",no,2025-08-12_17h05.11.849,empathy_intonation_perc_control,2024.2.4,Linux x86_64,59.88023952,67478b43d90864464fd088bb,68817205a84113384fffdfe3,689bac5dc0f86fcd5150ee18,,,,,,,,,,,,,0,,,,,,,,,,,,,,,,,,,,,,,,407.5779,409.5607,1,0,1.449,,409.5626,410.5594,0,10,10,10,1,0,lejo,REAL,FAKE,,,,,,,,,,,,,,,,,,,,,,,,,,,,,,,,
,,,,,,,,,67478b43d90864464fd088bb,Spanish,younger than 13,"no, only English or Spanish",no,2025-08-12_17h05.11.849,empathy_intonation_perc_control,2024.2.4,Linux x86_64,59.88023952,67478b43d90864464fd088bb,68817205a84113384fffdfe3,689bac5dc0f86fcd5150ee18,,,,,,,,,,,,,0,,,,,,,,,,,,,,,,,,,,,,,,410.5607,413.5925,0,1,2.5024,,413.5932,414.5918,0,11,11,11,1,0,pretantas,REAL,FAKE,,,,,,,,,,,,,,,,,,,,,,,,,,,,,,,,
,,,,,,,,,67478b43d90864464fd088bb,Spanish,younger than 13,"no, only English or Spanish",no,2025-08-12_17h05.11.849,empathy_intonation_perc_control,2024.2.4,Linux x86_64,59.88023952,67478b43d90864464fd088bb,68817205a84113384fffdfe3,689bac5dc0f86fcd5150ee18,,,,,,,,,,,,,,,,,,,,,,,,,,,,,,,,,,,,,,,,,,,,,,,,,,,,,,414.5922,420.4404,,,,,,,,,,,,,,,,,,,,,,,,,,,,,,
,,,,,,,,,67478b43d90864464fd088bb,Spanish,younger than 13,"no, only English or Spanish",no,2025-08-12_17h05.11.849,empathy_intonation_perc_control,2024.2.4,Linux x86_64,59.88023952,67478b43d90864464fd088bb,68817205a84113384fffdfe3,689bac5dc0f86fcd5150ee18,,,,,,,,,,,,,0,,,,,,,,,,,,,,,,,,,,,,,,,,,,,,,,,,,,,19,brecedad,,,,,420.4688,422.3729,0,1,1.3864,,0,0,0,18,1,REAL,FAKE,,,,,,,,,,,,,,,,,
,,,,,,,,,67478b43d90864464fd088bb,Spanish,younger than 13,"no, only English or Spanish",no,2025-08-12_17h05.11.849,empathy_intonation_perc_control,2024.2.4,Linux x86_64,59.88023952,67478b43d90864464fd088bb,68817205a84113384fffdfe3,689bac5dc0f86fcd5150ee18,,,,,,,,,,,,,1,,,,,,,,,,,,,,,,,,,,,,,,,,,,,,,,,,,,,7,pésimo,,,,,422.3743,424.889,1,1,1.9738,,0,1,1,6,1,REAL,FAKE,,,,,,,,,,,,,,,,,
,,,,,,,,,67478b43d90864464fd088bb,Spanish,younger than 13,"no, only English or Spanish",no,2025-08-12_17h05.11.849,empathy_intonation_perc_control,2024.2.4,Linux x86_64,59.88023952,67478b43d90864464fd088bb,68817205a84113384fffdfe3,689bac5dc0f86fcd5150ee18,,,,,,,,,,,,,1,,,,,,,,,,,,,,,,,,,,,,,,,,,,,,,,,,,,,78,frondoso,,,,,424.8903,426.555,0,0,1.1333,,0,2,2,77,1,REAL,FAKE,,,,,,,,,,,,,,,,,
,,,,,,,,,67478b43d90864464fd088bb,Spanish,younger than 13,"no, only English or Spanish",no,2025-08-12_17h05.11.849,empathy_intonation_perc_control,2024.2.4,Linux x86_64,59.88023952,67478b43d90864464fd088bb,68817205a84113384fffdfe3,689bac5dc0f86fcd5150ee18,,,,,,,,,,,,,0,,,,,,,,,,,,,,,,,,,,,,,,,,,,,,,,,,,,,10,antar,,,,,426.5562,428.3547,0,1,1.277,,0,3,3,9,1,REAL,FAKE,,,,,,,,,,,,,,,,,
,,,,,,,,,67478b43d90864464fd088bb,Spanish,younger than 13,"no, only English or Spanish",no,2025-08-12_17h05.11.849,empathy_intonation_perc_control,2024.2.4,Linux x86_64,59.88023952,67478b43d90864464fd088bb,68817205a84113384fffdfe3,689bac5dc0f86fcd5150ee18,,,,,,,,,,,,,1,,,,,,,,,,,,,,,,,,,,,,,,,,,,,,,,,,,,,65,bizcocho,,,,,428.356,430.7214,0,0,1.8333,,0,4,4,64,1,REAL,FAKE,,,,,,,,,,,,,,,,,
,,,,,,,,,67478b43d90864464fd088bb,Spanish,younger than 13,"no, only English or Spanish",no,2025-08-12_17h05.11.849,empathy_intonation_perc_control,2024.2.4,Linux x86_64,59.88023952,67478b43d90864464fd088bb,68817205a84113384fffdfe3,689bac5dc0f86fcd5150ee18,,,,,,,,,,,,,0,,,,,,,,,,,,,,,,,,,,,,,,,,,,,,,,,,,,,29,decar,,,,,430.7236,433.154,1,0,1.8975,,0,5,5,28,1,REAL,FAKE,,,,,,,,,,,,,,,,,
,,,,,,,,,67478b43d90864464fd088bb,Spanish,younger than 13,"no, only English or Spanish",no,2025-08-12_17h05.11.849,empathy_intonation_perc_control,2024.2.4,Linux x86_64,59.88023952,67478b43d90864464fd088bb,68817205a84113384fffdfe3,689bac5dc0f86fcd5150ee18,,,,,,,,,,,,,1,,,,,,,,,,,,,,,,,,,,,,,,,,,,,,,,,,,,,67,cabello,,,,,433.1563,436.7189,1,1,3.0309,,0,6,6,66,1,REAL,FAKE,,,,,,,,,,,,,,,,,
,,,,,,,,,67478b43d90864464fd088bb,Spanish,younger than 13,"no, only English or Spanish",no,2025-08-12_17h05.11.849,empathy_intonation_perc_control,2024.2.4,Linux x86_64,59.88023952,67478b43d90864464fd088bb,68817205a84113384fffdfe3,689bac5dc0f86fcd5150ee18,,,,,,,,,,,,,1,,,,,,,,,,,,,,,,,,,,,,,,,,,,,,,,,,,,,3,pulmones,,,,,436.7205,440.1178,0,0,2.8648,,0,7,7,2,1,REAL,FAKE,,,,,,,,,,,,,,,,,
,,,,,,,,,67478b43d90864464fd088bb,Spanish,younger than 13,"no, only English or Spanish",no,2025-08-12_17h05.11.849,empathy_intonation_perc_control,2024.2.4,Linux x86_64,59.88023952,67478b43d90864464fd088bb,68817205a84113384fffdfe3,689bac5dc0f86fcd5150ee18,,,,,,,,,,,,,1,,,,,,,,,,,,,,,,,,,,,,,,,,,,,,,,,,,,,80,hormiga,,,,,440.1192,444.3998,0,0,3.7535,,0,8,8,79,1,REAL,FAKE,,,,,,,,,,,,,,,,,
,,,,,,,,,67478b43d90864464fd088bb,Spanish,younger than 13,"no, only English or Spanish",no,2025-08-12_17h05.11.849,empathy_intonation_perc_control,2024.2.4,Linux x86_64,59.88023952,67478b43d90864464fd088bb,68817205a84113384fffdfe3,689bac5dc0f86fcd5150ee18,,,,,,,,,,,,,1,,,,,,,,,,,,,,,,,,,,,,,,,,,,,,,,,,,,,26,secuestro,,,,,444.4014,446.6996,1,1,1.7666,,0,9,9,25,1,REAL,FAKE,,,,,,,,,,,,,,,,,
,,,,,,,,,67478b43d90864464fd088bb,Spanish,younger than 13,"no, only English or Spanish",no,2025-08-12_17h05.11.849,empathy_intonation_perc_control,2024.2.4,Linux x86_64,59.88023952,67478b43d90864464fd088bb,68817205a84113384fffdfe3,689bac5dc0f86fcd5150ee18,,,,,,,,,,,,,1,,,,,,,,,,,,,,,,,,,,,,,,,,,,,,,,,,,,,36,loro,,,,,446.7009,448.2489,0,0,1.0209,,0,10,10,35,1,REAL,FAKE,,,,,,,,,,,,,,,,,
,,,,,,,,,67478b43d90864464fd088bb,Spanish,younger than 13,"no, only English or Spanish",no,2025-08-12_17h05.11.849,empathy_intonation_perc_control,2024.2.4,Linux x86_64,59.88023952,67478b43d90864464fd088bb,68817205a84113384fffdfe3,689bac5dc0f86fcd5150ee18,,,,,,,,,,,,,1,,,,,,,,,,,,,,,,,,,,,,,,,,,,,,,,,,,,,38,estornudar,,,,,448.25,451.581,1,1,2.7953,,0,11,11,37,1,REAL,FAKE,,,,,,,,,,,,,,,,,
,,,,,,,,,67478b43d90864464fd088bb,Spanish,younger than 13,"no, only English or Spanish",no,2025-08-12_17h05.11.849,empathy_intonation_perc_control,2024.2.4,Linux x86_64,59.88023952,67478b43d90864464fd088bb,68817205a84113384fffdfe3,689bac5dc0f86fcd5150ee18,,,,,,,,,,,,,0,,,,,,,,,,,,,,,,,,,,,,,,,,,,,,,,,,,,,92,click the 0 key.,,,,,451.5827,453.5636,0,1,1.4654,,0,12,12,91,1,REAL,FAKE,,,,,,,,,,,,,,,,,
,,,,,,,,,67478b43d90864464fd088bb,Spanish,younger than 13,"no, only English or Spanish",no,2025-08-12_17h05.11.849,empathy_intonation_perc_control,2024.2.4,Linux x86_64,59.88023952,67478b43d90864464fd088bb,68817205a84113384fffdfe3,689bac5dc0f86fcd5150ee18,,,,,,,,,,,,,1,,,,,,,,,,,,,,,,,,,,,,,,,,,,,,,,,,,,,2,pellizcar,,,,,453.5647,455.6471,0,0,1.5601,,0,13,13,1,1,REAL,FAKE,,,,,,,,,,,,,,,,,
,,,,,,,,,67478b43d90864464fd088bb,Spanish,younger than 13,"no, only English or Spanish",no,2025-08-12_17h05.11.849,empathy_intonation_perc_control,2024.2.4,Linux x86_64,59.88023952,67478b43d90864464fd088bb,68817205a84113384fffdfe3,689bac5dc0f86fcd5150ee18,,,,,,,,,,,,,1,,,,,,,,,,,,,,,,,,,,,,,,,,,,,,,,,,,,,85,laúd,,,,,455.6482,457.4962,0,0,1.319,,0,14,14,84,1,REAL,FAKE,,,,,,,,,,,,,,,,,
,,,,,,,,,67478b43d90864464fd088bb,Spanish,younger than 13,"no, only English or Spanish",no,2025-08-12_17h05.11.849,empathy_intonation_perc_control,2024.2.4,Linux x86_64,59.88023952,67478b43d90864464fd088bb,68817205a84113384fffdfe3,689bac5dc0f86fcd5150ee18,,,,,,,,,,,,,1,,,,,,,,,,,,,,,,,,,,,,,,,,,,,,,,,,,,,90,clavel,,,,,457.4974,459.8288,0,0,1.8091,,0,15,15,89,1,REAL,FAKE,,,,,,,,,,,,,,,,,
,,,,,,,,,67478b43d90864464fd088bb,Spanish,younger than 13,"no, only English or Spanish",no,2025-08-12_17h05.11.849,empathy_intonation_perc_control,2024.2.4,Linux x86_64,59.88023952,67478b43d90864464fd088bb,68817205a84113384fffdfe3,689bac5dc0f86fcd5150ee18,,,,,,,,,,,,,1,,,,,,,,,,,,,,,,,,,,,,,,,,,,,,,,,,,,,89,prisa,,,,,459.83,461.5447,1,1,1.1925,,0,16,16,88,1,REAL,FAKE,,,,,,,,,,,,,,,,,
,,,,,,,,,67478b43d90864464fd088bb,Spanish,younger than 13,"no, only English or Spanish",no,2025-08-12_17h05.11.849,empathy_intonation_perc_control,2024.2.4,Linux x86_64,59.88023952,67478b43d90864464fd088bb,68817205a84113384fffdfe3,689bac5dc0f86fcd5150ee18,,,,,,,,,,,,,1,,,,,,,,,,,,,,,,,,,,,,,,,,,,,,,,,,,,,69,engatusar,,,,,461.546,464.5949,1,1,2.521,,0,17,17,68,1,REAL,FAKE,,,,,,,,,,,,,,,,,
,,,,,,,,,67478b43d90864464fd088bb,Spanish,younger than 13,"no, only English or Spanish",no,2025-08-12_17h05.11.849,empathy_intonation_perc_control,2024.2.4,Linux x86_64,59.88023952,67478b43d90864464fd088bb,68817205a84113384fffdfe3,689bac5dc0f86fcd5150ee18,,,,,,,,,,,,,1,,,,,,,,,,,,,,,,,,,,,,,,,,,,,,,,,,,,,12,asesinato,,,,,464.598,468.9103,0,0,3.7782,,0,18,18,11,1,REAL,FAKE,,,,,,,,,,,,,,,,,
,,,,,,,,,67478b43d90864464fd088bb,Spanish,younger than 13,"no, only English or Spanish",no,2025-08-12_17h05.11.849,empathy_intonation_perc_control,2024.2.4,Linux x86_64,59.88023952,67478b43d90864464fd088bb,68817205a84113384fffdfe3,689bac5dc0f86fcd5150ee18,,,,,,,,,,,,,1,,,,,,,,,,,,,,,,,,,,,,,,,,,,,,,,,,,,,77,tiburón,,,,,468.9124,471.7088,0,0,2.2707,,0,19,19,76,1,REAL,FAKE,,,,,,,,,,,,,,,,,
,,,,,,,,,67478b43d90864464fd088bb,Spanish,younger than 13,"no, only English or Spanish",no,2025-08-12_17h05.11.849,empathy_intonation_perc_control,2024.2.4,Linux x86_64,59.88023952,67478b43d90864464fd088bb,68817205a84113384fffdfe3,689bac5dc0f86fcd5150ee18,,,,,,,,,,,,,1,,,,,,,,,,,,,,,,,,,,,,,,,,,,,,,,,,,,,43,canela,,,,,471.7102,473.4578,1,1,1.2179,,0,20,20,42,1,REAL,FAKE,,,,,,,,,,,,,,,,,
,,,,,,,,,67478b43d90864464fd088bb,Spanish,younger than 13,"no, only English or Spanish",no,2025-08-12_17h05.11.849,empathy_intonation_perc_control,2024.2.4,Linux x86_64,59.88023952,67478b43d90864464fd088bb,68817205a84113384fffdfe3,689bac5dc0f86fcd5150ee18,,,,,,,,,,,,,0,,,,,,,,,,,,,,,,,,,,,,,,,,,,,,,,,,,,,35,rompido,,,,,473.459,477.2067,1,0,3.2254,,0,21,21,34,1,REAL,FAKE,,,,,,,,,,,,,,,,,
,,,,,,,,,67478b43d90864464fd088bb,Spanish,younger than 13,"no, only English or Spanish",no,2025-08-12_17h05.11.849,empathy_intonation_perc_control,2024.2.4,Linux x86_64,59.88023952,67478b43d90864464fd088bb,68817205a84113384fffdfe3,689bac5dc0f86fcd5150ee18,,,,,,,,,,,,,0,,,,,,,,,,,,,,,,,,,,,,,,,,,,,,,,,,,,,50,flamida,,,,,477.2078,482.8226,0,1,5.0969,,0,22,22,49,1,REAL,FAKE,,,,,,,,,,,,,,,,,
,,,,,,,,,67478b43d90864464fd088bb,Spanish,younger than 13,"no, only English or Spanish",no,2025-08-12_17h05.11.849,empathy_intonation_perc_control,2024.2.4,Linux x86_64,59.88023952,67478b43d90864464fd088bb,68817205a84113384fffdfe3,689bac5dc0f86fcd5150ee18,,,,,,,,,,,,,0,,,,,,,,,,,,,,,,,,,,,,,,,,,,,,,,,,,,,32,fatacidad,,,,,482.8241,485.6386,0,1,2.2855,,0,23,23,31,1,REAL,FAKE,,,,,,,,,,,,,,,,,
,,,,,,,,,67478b43d90864464fd088bb,Spanish,younger than 13,"no, only English or Spanish",no,2025-08-12_17h05.11.849,empathy_intonation_perc_control,2024.2.4,Linux x86_64,59.88023952,67478b43d90864464fd088bb,68817205a84113384fffdfe3,689bac5dc0f86fcd5150ee18,,,,,,,,,,,,,0,,,,,,,,,,,,,,,,,,,,,,,,,,,,,,,,,,,,,84,escuto,,,,,485.6402,490.4377,1,0,4.2749,,0,24,24,83,1,REAL,FAKE,,,,,,,,,,,,,,,,,
,,,,,,,,,67478b43d90864464fd088bb,Spanish,younger than 13,"no, only English or Spanish",no,2025-08-12_17h05.11.849,empathy_intonation_perc_control,2024.2.4,Linux x86_64,59.88023952,67478b43d90864464fd088bb,68817205a84113384fffdfe3,689bac5dc0f86fcd5150ee18,,,,,,,,,,,,,1,,,,,,,,,,,,,,,,,,,,,,,,,,,,,,,,,,,,,68,alegre,,,,,490.4398,492.1359,1,1,1.1632,,0,25,25,67,1,REAL,FAKE,,,,,,,,,,,,,,,,,
,,,,,,,,,67478b43d90864464fd088bb,Spanish,younger than 13,"no, only English or Spanish",no,2025-08-12_17h05.11.849,empathy_intonation_perc_control,2024.2.4,Linux x86_64,59.88023952,67478b43d90864464fd088bb,68817205a84113384fffdfe3,689bac5dc0f86fcd5150ee18,,,,,,,,,,,,,1,,,,,,,,,,,,,,,,,,,,,,,,,,,,,,,,,,,,,28,merodear,,,,,492.1372,498.6344,0,0,5.9595,,0,26,26,27,1,REAL,FAKE,,,,,,,,,,,,,,,,,
,,,,,,,,,67478b43d90864464fd088bb,Spanish,younger than 13,"no, only English or Spanish",no,2025-08-12_17h05.11.849,empathy_intonation_perc_control,2024.2.4,Linux x86_64,59.88023952,67478b43d90864464fd088bb,68817205a84113384fffdfe3,689bac5dc0f86fcd5150ee18,,,,,,,,,,,,,0,,,,,,,,,,,,,,,,,,,,,,,,,,,,,,,,,,,,,66,hacido,,,,,498.6357,500.3503,1,0,1.1864,,0,27,27,65,1,REAL,FAKE,,,,,,,,,,,,,,,,,
,,,,,,,,,67478b43d90864464fd088bb,Spanish,younger than 13,"no, only English or Spanish",no,2025-08-12_17h05.11.849,empathy_intonation_perc_control,2024.2.4,Linux x86_64,59.88023952,67478b43d90864464fd088bb,68817205a84113384fffdfe3,689bac5dc0f86fcd5150ee18,,,,,,,,,,,,,1,,,,,,,,,,,,,,,,,,,,,,,,,,,,,,,,,,,,,83,guante,,,,,500.3515,503.7661,0,0,2.8822,,0,28,28,82,1,REAL,FAKE,,,,,,,,,,,,,,,,,
,,,,,,,,,67478b43d90864464fd088bb,Spanish,younger than 13,"no, only English or Spanish",no,2025-08-12_17h05.11.849,empathy_intonation_perc_control,2024.2.4,Linux x86_64,59.88023952,67478b43d90864464fd088bb,68817205a84113384fffdfe3,689bac5dc0f86fcd5150ee18,,,,,,,,,,,,,1,,,,,,,,,,,,,,,,,,,,,,,,,,,,,,,,,,,,,61,seda,,,,,503.7676,505.6163,0,0,1.3267,,0,29,29,60,1,REAL,FAKE,,,,,,,,,,,,,,,,,
,,,,,,,,,67478b43d90864464fd088bb,Spanish,younger than 13,"no, only English or Spanish",no,2025-08-12_17h05.11.849,empathy_intonation_perc_control,2024.2.4,Linux x86_64,59.88023952,67478b43d90864464fd088bb,68817205a84113384fffdfe3,689bac5dc0f86fcd5150ee18,,,,,,,,,,,,,1,,,,,,,,,,,,,,,,,,,,,,,,,,,,,,,,,,,,,88,acantilado,,,,,505.6182,508.1481,1,1,2.0044,,0,30,30,87,1,REAL,FAKE,,,,,,,,,,,,,,,,,
,,,,,,,,,67478b43d90864464fd088bb,Spanish,younger than 13,"no, only English or Spanish",no,2025-08-12_17h05.11.849,empathy_intonation_perc_control,2024.2.4,Linux x86_64,59.88023952,67478b43d90864464fd088bb,68817205a84113384fffdfe3,689bac5dc0f86fcd5150ee18,,,,,,,,,,,,,1,,,,,,,,,,,,,,,,,,,,,,,,,,,,,,,,,,,,,44,cuchara,,,,,508.1499,510.2328,1,1,1.5451,,0,31,31,43,1,REAL,FAKE,,,,,,,,,,,,,,,,,
,,,,,,,,,67478b43d90864464fd088bb,Spanish,younger than 13,"no, only English or Spanish",no,2025-08-12_17h05.11.849,empathy_intonation_perc_control,2024.2.4,Linux x86_64,59.88023952,67478b43d90864464fd088bb,68817205a84113384fffdfe3,689bac5dc0f86fcd5150ee18,,,,,,,,,,,,,1,,,,,,,,,,,,,,,,,,,,,,,,,,,,,,,,,,,,,46,martillo,,,,,510.2345,512.2138,1,1,1.4583,,0,32,32,45,1,REAL,FAKE,,,,,,,,,,,,,,,,,
,,,,,,,,,67478b43d90864464fd088bb,Spanish,younger than 13,"no, only English or Spanish",no,2025-08-12_17h05.11.849,empathy_intonation_perc_control,2024.2.4,Linux x86_64,59.88023952,67478b43d90864464fd088bb,68817205a84113384fffdfe3,689bac5dc0f86fcd5150ee18,,,,,,,,,,,,,0,,,,,,,,,,,,,,,,,,,,,,,,,,,,,,,,,,,,,30,alardio,,,,,512.2148,514.9299,1,0,2.1807,,0,33,33,29,1,REAL,FAKE,,,,,,,,,,,,,,,,,
,,,,,,,,,67478b43d90864464fd088bb,Spanish,younger than 13,"no, only English or Spanish",no,2025-08-12_17h05.11.849,empathy_intonation_perc_control,2024.2.4,Linux x86_64,59.88023952,67478b43d90864464fd088bb,68817205a84113384fffdfe3,689bac5dc0f86fcd5150ee18,,,,,,,,,,,,,1,,,,,,,,,,,,,,,,,,,,,,,,,,,,,,,,,,,,,55,nevar,,,,,514.9313,517.0626,0,0,1.6045,,0,34,34,54,1,REAL,FAKE,,,,,,,,,,,,,,,,,
,,,,,,,,,67478b43d90864464fd088bb,Spanish,younger than 13,"no, only English or Spanish",no,2025-08-12_17h05.11.849,empathy_intonation_perc_control,2024.2.4,Linux x86_64,59.88023952,67478b43d90864464fd088bb,68817205a84113384fffdfe3,689bac5dc0f86fcd5150ee18,,,,,,,,,,,,,1,,,,,,,,,,,,,,,,,,,,,,,,,,,,,,,,,,,,,39,torpe,,,,,517.0638,519.0114,0,0,1.4157,,0,35,35,38,1,REAL,FAKE,,,,,,,,,,,,,,,,,
,,,,,,,,,67478b43d90864464fd088bb,Spanish,younger than 13,"no, only English or Spanish",no,2025-08-12_17h05.11.849,empathy_intonation_perc_control,2024.2.4,Linux x86_64,59.88023952,67478b43d90864464fd088bb,68817205a84113384fffdfe3,689bac5dc0f86fcd5150ee18,,,,,,,,,,,,,1,,,,,,,,,,,,,,,,,,,,,,,,,,,,,,,,,,,,,48,ladrón,,,,,519.0126,521.9779,0,0,2.4309,,0,36,36,47,1,REAL,FAKE,,,,,,,,,,,,,,,,,
,,,,,,,,,67478b43d90864464fd088bb,Spanish,younger than 13,"no, only English or Spanish",no,2025-08-12_17h05.11.849,empathy_intonation_perc_control,2024.2.4,Linux x86_64,59.88023952,67478b43d90864464fd088bb,68817205a84113384fffdfe3,689bac5dc0f86fcd5150ee18,,,,,,,,,,,,,0,,,,,,,,,,,,,,,,,,,,,,,,,,,,,,,,,,,,,33,pauca,,,,,521.9792,523.7774,1,0,1.2771,,0,37,37,32,1,REAL,FAKE,,,,,,,,,,,,,,,,,
,,,,,,,,,67478b43d90864464fd088bb,Spanish,younger than 13,"no, only English or Spanish",no,2025-08-12_17h05.11.849,empathy_intonation_perc_control,2024.2.4,Linux x86_64,59.88023952,67478b43d90864464fd088bb,68817205a84113384fffdfe3,689bac5dc0f86fcd5150ee18,,,,,,,,,,,,,1,,,,,,,,,,,,,,,,,,,,,,,,,,,,,,,,,,,,,37,granuja,,,,,523.7785,527.2762,1,1,2.9724,,0,38,38,36,1,REAL,FAKE,,,,,,,,,,,,,,,,,
,,,,,,,,,67478b43d90864464fd088bb,Spanish,younger than 13,"no, only English or Spanish",no,2025-08-12_17h05.11.849,empathy_intonation_perc_control,2024.2.4,Linux x86_64,59.88023952,67478b43d90864464fd088bb,68817205a84113384fffdfe3,689bac5dc0f86fcd5150ee18,,,,,,,,,,,,,1,,,,,,,,,,,,,,,,,,,,,,,,,,,,,,,,,,,,,5,zapato,,,,,527.2775,528.7427,1,1,0.9314,,0,39,39,4,1,REAL,FAKE,,,,,,,,,,,,,,,,,
,,,,,,,,,67478b43d90864464fd088bb,Spanish,younger than 13,"no, only English or Spanish",no,2025-08-12_17h05.11.849,empathy_intonation_perc_control,2024.2.4,Linux x86_64,59.88023952,67478b43d90864464fd088bb,68817205a84113384fffdfe3,689bac5dc0f86fcd5150ee18,,,,,,,,,,,,,0,,,,,,,,,,,,,,,,,,,,,,,,,,,,,,,,,,,,,74,cintro,,,,,528.7442,530.575,1,0,1.2953,,0,40,40,73,1,REAL,FAKE,,,,,,,,,,,,,,,,,
,,,,,,,,,67478b43d90864464fd088bb,Spanish,younger than 13,"no, only English or Spanish",no,2025-08-12_17h05.11.849,empathy_intonation_perc_control,2024.2.4,Linux x86_64,59.88023952,67478b43d90864464fd088bb,68817205a84113384fffdfe3,689bac5dc0f86fcd5150ee18,,,,,,,,,,,,,1,,,,,,,,,,,,,,,,,,,,,,,,,,,,,,,,,,,,,59,besar,,,,,530.5762,532.3088,0,0,1.201,,0,41,41,58,1,REAL,FAKE,,,,,,,,,,,,,,,,,
,,,,,,,,,67478b43d90864464fd088bb,Spanish,younger than 13,"no, only English or Spanish",no,2025-08-12_17h05.11.849,empathy_intonation_perc_control,2024.2.4,Linux x86_64,59.88023952,67478b43d90864464fd088bb,68817205a84113384fffdfe3,689bac5dc0f86fcd5150ee18,,,,,,,,,,,,,1,,,,,,,,,,,,,,,,,,,,,,,,,,,,,,,,,,,,,91,click the 1 key.,,,,,532.3111,534.8907,1,1,2.0437,,0,42,42,90,1,REAL,FAKE,,,,,,,,,,,,,,,,,
,,,,,,,,,67478b43d90864464fd088bb,Spanish,younger than 13,"no, only English or Spanish",no,2025-08-12_17h05.11.849,empathy_intonation_perc_control,2024.2.4,Linux x86_64,59.88023952,67478b43d90864464fd088bb,68817205a84113384fffdfe3,689bac5dc0f86fcd5150ee18,,,,,,,,,,,,,1,,,,,,,,,,,,,,,,,,,,,,,,,,,,,,,,,,,,,56,musgo,,,,,534.8921,537.9736,0,0,2.5418,,0,43,43,55,1,REAL,FAKE,,,,,,,,,,,,,,,,,
,,,,,,,,,67478b43d90864464fd088bb,Spanish,younger than 13,"no, only English or Spanish",no,2025-08-12_17h05.11.849,empathy_intonation_perc_control,2024.2.4,Linux x86_64,59.88023952,67478b43d90864464fd088bb,68817205a84113384fffdfe3,689bac5dc0f86fcd5150ee18,,,,,,,,,,,,,1,,,,,,,,,,,,,,,,,,,,,,,,,,,,,,,,,,,,,45,jilguero,,,,,537.9765,543.0212,1,1,4.513,,0,44,44,44,1,REAL,FAKE,,,,,,,,,,,,,,,,,
,,,,,,,,,67478b43d90864464fd088bb,Spanish,younger than 13,"no, only English or Spanish",no,2025-08-12_17h05.11.849,empathy_intonation_perc_control,2024.2.4,Linux x86_64,59.88023952,67478b43d90864464fd088bb,68817205a84113384fffdfe3,689bac5dc0f86fcd5150ee18,,,,,,,,,,,,,1,,,,,,,,,,,,,,,,,,,,,,,,,,,,,,,,,,,,,25,bisagra,,,,,543.0223,545.8547,1,1,2.3203,,0,45,45,24,1,REAL,FAKE,,,,,,,,,,,,,,,,,
,,,,,,,,,67478b43d90864464fd088bb,Spanish,younger than 13,"no, only English or Spanish",no,2025-08-12_17h05.11.849,empathy_intonation_perc_control,2024.2.4,Linux x86_64,59.88023952,67478b43d90864464fd088bb,68817205a84113384fffdfe3,689bac5dc0f86fcd5150ee18,,,,,,,,,,,,,1,,,,,,,,,,,,,,,,,,,,,,,,,,,,,,,,,,,,,54,fomentar,,,,,545.856,547.5035,1,1,1.1101,,0,46,46,53,1,REAL,FAKE,,,,,,,,,,,,,,,,,
,,,,,,,,,67478b43d90864464fd088bb,Spanish,younger than 13,"no, only English or Spanish",no,2025-08-12_17h05.11.849,empathy_intonation_perc_control,2024.2.4,Linux x86_64,59.88023952,67478b43d90864464fd088bb,68817205a84113384fffdfe3,689bac5dc0f86fcd5150ee18,,,,,,,,,,,,,0,,,,,,,,,,,,,,,,,,,,,,,,,,,,,,,,,,,,,79,tropaje,,,,,547.5048,549.8698,1,0,1.8299,,0,47,47,78,1,REAL,FAKE,,,,,,,,,,,,,,,,,
,,,,,,,,,67478b43d90864464fd088bb,Spanish,younger than 13,"no, only English or Spanish",no,2025-08-12_17h05.11.849,empathy_intonation_perc_control,2024.2.4,Linux x86_64,59.88023952,67478b43d90864464fd088bb,68817205a84113384fffdfe3,689bac5dc0f86fcd5150ee18,,,,,,,,,,,,,1,,,,,,,,,,,,,,,,,,,,,,,,,,,,,,,,,,,,,13,helar,,,,,549.8711,551.8856,0,0,1.4822,,0,48,48,12,1,REAL,FAKE,,,,,,,,,,,,,,,,,
,,,,,,,,,67478b43d90864464fd088bb,Spanish,younger than 13,"no, only English or Spanish",no,2025-08-12_17h05.11.849,empathy_intonation_perc_control,2024.2.4,Linux x86_64,59.88023952,67478b43d90864464fd088bb,68817205a84113384fffdfe3,689bac5dc0f86fcd5150ee18,,,,,,,,,,,,,0,,,,,,,,,,,,,,,,,,,,,,,,,,,,,,,,,,,,,8,cadeña,,,,,551.887,553.802,1,0,1.3807,,0,49,49,7,1,REAL,FAKE,,,,,,,,,,,,,,,,,
,,,,,,,,,67478b43d90864464fd088bb,Spanish,younger than 13,"no, only English or Spanish",no,2025-08-12_17h05.11.849,empathy_intonation_perc_control,2024.2.4,Linux x86_64,59.88023952,67478b43d90864464fd088bb,68817205a84113384fffdfe3,689bac5dc0f86fcd5150ee18,,,,,,,,,,,,,1,,,,,,,,,,,,,,,,,,,,,,,,,,,,,,,,,,,,,11,cenefa,,,,,553.8031,555.435,0,0,1.1094,,0,50,50,10,1,REAL,FAKE,,,,,,,,,,,,,,,,,
,,,,,,,,,67478b43d90864464fd088bb,Spanish,younger than 13,"no, only English or Spanish",no,2025-08-12_17h05.11.849,empathy_intonation_perc_control,2024.2.4,Linux x86_64,59.88023952,67478b43d90864464fd088bb,68817205a84113384fffdfe3,689bac5dc0f86fcd5150ee18,,,,,,,,,,,,,1,,,,,,,,,,,,,,,,,,,,,,,,,,,,,,,,,,,,,14,yunque,,,,,555.4362,557.7181,1,1,1.7567,,0,51,51,13,1,REAL,FAKE,,,,,,,,,,,,,,,,,
,,,,,,,,,67478b43d90864464fd088bb,Spanish,younger than 13,"no, only English or Spanish",no,2025-08-12_17h05.11.849,empathy_intonation_perc_control,2024.2.4,Linux x86_64,59.88023952,67478b43d90864464fd088bb,68817205a84113384fffdfe3,689bac5dc0f86fcd5150ee18,,,,,,,,,,,,,1,,,,,,,,,,,,,,,,,,,,,,,,,,,,,,,,,,,,,6,tergiversar,,,,,557.7195,561.2995,1,1,3.0453,,0,52,52,5,1,REAL,FAKE,,,,,,,,,,,,,,,,,
,,,,,,,,,67478b43d90864464fd088bb,Spanish,younger than 13,"no, only English or Spanish",no,2025-08-12_17h05.11.849,empathy_intonation_perc_control,2024.2.4,Linux x86_64,59.88023952,67478b43d90864464fd088bb,68817205a84113384fffdfe3,689bac5dc0f86fcd5150ee18,,,,,,,,,,,,,0,,,,,,,,,,,,,,,,,,,,,,,,,,,,,,,,,,,,,21,capillo,,,,,561.3008,562.7834,1,0,0.9497,,0,53,53,20,1,REAL,FAKE,,,,,,,,,,,,,,,,,
,,,,,,,,,67478b43d90864464fd088bb,Spanish,younger than 13,"no, only English or Spanish",no,2025-08-12_17h05.11.849,empathy_intonation_perc_control,2024.2.4,Linux x86_64,59.88023952,67478b43d90864464fd088bb,68817205a84113384fffdfe3,689bac5dc0f86fcd5150ee18,,,,,,,,,,,,,1,,,,,,,,,,,,,,,,,,,,,,,,,,,,,,,,,,,,,15,regar,,,,,562.7844,566.2653,1,1,2.9508,,0,54,54,14,1,REAL,FAKE,,,,,,,,,,,,,,,,,
,,,,,,,,,67478b43d90864464fd088bb,Spanish,younger than 13,"no, only English or Spanish",no,2025-08-12_17h05.11.849,empathy_intonation_perc_control,2024.2.4,Linux x86_64,59.88023952,67478b43d90864464fd088bb,68817205a84113384fffdfe3,689bac5dc0f86fcd5150ee18,,,,,,,,,,,,,0,,,,,,,,,,,,,,,,,,,,,,,,,,,,,,,,,,,,,16,abracer,,,,,566.2667,567.8984,0,1,1.0993,,0,55,55,15,1,REAL,FAKE,,,,,,,,,,,,,,,,,
,,,,,,,,,67478b43d90864464fd088bb,Spanish,younger than 13,"no, only English or Spanish",no,2025-08-12_17h05.11.849,empathy_intonation_perc_control,2024.2.4,Linux x86_64,59.88023952,67478b43d90864464fd088bb,68817205a84113384fffdfe3,689bac5dc0f86fcd5150ee18,,,,,,,,,,,,,0,,,,,,,,,,,,,,,,,,,,,,,,,,,,,,,,,,,,,1,terzo,,,,,567.8993,569.5472,0,1,1.1075,,0,56,56,0,1,REAL,FAKE,,,,,,,,,,,,,,,,,
,,,,,,,,,67478b43d90864464fd088bb,Spanish,younger than 13,"no, only English or Spanish",no,2025-08-12_17h05.11.849,empathy_intonation_perc_control,2024.2.4,Linux x86_64,59.88023952,67478b43d90864464fd088bb,68817205a84113384fffdfe3,689bac5dc0f86fcd5150ee18,,,,,,,,,,,,,1,,,,,,,,,,,,,,,,,,,,,,,,,,,,,,,,,,,,,71,polvoriento,,,,,569.549,573.7302,0,0,3.6633,,0,57,57,70,1,REAL,FAKE,,,,,,,,,,,,,,,,,
,,,,,,,,,67478b43d90864464fd088bb,Spanish,younger than 13,"no, only English or Spanish",no,2025-08-12_17h05.11.849,empathy_intonation_perc_control,2024.2.4,Linux x86_64,59.88023952,67478b43d90864464fd088bb,68817205a84113384fffdfe3,689bac5dc0f86fcd5150ee18,,,,,,,,,,,,,1,,,,,,,,,,,,,,,,,,,,,,,,,,,,,,,,,,,,,22,lacayo,,,,,573.7318,575.6453,1,1,1.3867,,0,58,58,21,1,REAL,FAKE,,,,,,,,,,,,,,,,,
,,,,,,,,,67478b43d90864464fd088bb,Spanish,younger than 13,"no, only English or Spanish",no,2025-08-12_17h05.11.849,empathy_intonation_perc_control,2024.2.4,Linux x86_64,59.88023952,67478b43d90864464fd088bb,68817205a84113384fffdfe3,689bac5dc0f86fcd5150ee18,,,,,,,,,,,,,0,,,,,,,,,,,,,,,,,,,,,,,,,,,,,,,,,,,,,70,temblo,,,,,575.6469,577.4621,0,1,1.282,,0,59,59,69,1,REAL,FAKE,,,,,,,,,,,,,,,,,
,,,,,,,,,67478b43d90864464fd088bb,Spanish,younger than 13,"no, only English or Spanish",no,2025-08-12_17h05.11.849,empathy_intonation_perc_control,2024.2.4,Linux x86_64,59.88023952,67478b43d90864464fd088bb,68817205a84113384fffdfe3,689bac5dc0f86fcd5150ee18,,,,,,,,,,,,,1,,,,,,,,,,,,,,,,,,,,,,,,,,,,,,,,,,,,,60,matar,,,,,577.4634,579.4444,0,0,1.4454,,0,60,60,59,1,REAL,FAKE,,,,,,,,,,,,,,,,,
,,,,,,,,,67478b43d90864464fd088bb,Spanish,younger than 13,"no, only English or Spanish",no,2025-08-12_17h05.11.849,empathy_intonation_perc_control,2024.2.4,Linux x86_64,59.88023952,67478b43d90864464fd088bb,68817205a84113384fffdfe3,689bac5dc0f86fcd5150ee18,,,,,,,,,,,,,1,,,,,,,,,,,,,,,,,,,,,,,,,,,,,,,,,,,,,73,hervidor,,,,,579.4455,582.611,0,0,2.6303,,0,61,61,72,1,REAL,FAKE,,,,,,,,,,,,,,,,,
,,,,,,,,,67478b43d90864464fd088bb,Spanish,younger than 13,"no, only English or Spanish",no,2025-08-12_17h05.11.849,empathy_intonation_perc_control,2024.2.4,Linux x86_64,59.88023952,67478b43d90864464fd088bb,68817205a84113384fffdfe3,689bac5dc0f86fcd5150ee18,,,,,,,,,,,,,0,,,,,,,,,,,,,,,,,,,,,,,,,,,,,,,,,,,,,17,floroso,,,,,582.6127,585.2595,1,0,2.122,,0,62,62,16,1,REAL,FAKE,,,,,,,,,,,,,,,,,
,,,,,,,,,67478b43d90864464fd088bb,Spanish,younger than 13,"no, only English or Spanish",no,2025-08-12_17h05.11.849,empathy_intonation_perc_control,2024.2.4,Linux x86_64,59.88023952,67478b43d90864464fd088bb,68817205a84113384fffdfe3,689bac5dc0f86fcd5150ee18,,,,,,,,,,,,,0,,,,,,,,,,,,,,,,,,,,,,,,,,,,,,,,,,,,,47,cartinar,,,,,585.2608,588.4922,1,0,2.7148,,0,63,63,46,1,REAL,FAKE,,,,,,,,,,,,,,,,,
,,,,,,,,,67478b43d90864464fd088bb,Spanish,younger than 13,"no, only English or Spanish",no,2025-08-12_17h05.11.849,empathy_intonation_perc_control,2024.2.4,Linux x86_64,59.88023952,67478b43d90864464fd088bb,68817205a84113384fffdfe3,689bac5dc0f86fcd5150ee18,,,,,,,,,,,,,1,,,,,,,,,,,,,,,,,,,,,,,,,,,,,,,,,,,,,64,orgulloso,,,,,588.4935,591.3247,0,0,2.2977,,0,64,64,63,1,REAL,FAKE,,,,,,,,,,,,,,,,,
,,,,,,,,,67478b43d90864464fd088bb,Spanish,younger than 13,"no, only English or Spanish",no,2025-08-12_17h05.11.849,empathy_intonation_perc_control,2024.2.4,Linux x86_64,59.88023952,67478b43d90864464fd088bb,68817205a84113384fffdfe3,689bac5dc0f86fcd5150ee18,,,,,,,,,,,,,1,,,,,,,,,,,,,,,,,,,,,,,,,,,,,,,,,,,,,81,pozo,,,,,591.3259,593.2411,0,0,1.386,,0,65,65,80,1,REAL,FAKE,,,,,,,,,,,,,,,,,
,,,,,,,,,67478b43d90864464fd088bb,Spanish,younger than 13,"no, only English or Spanish",no,2025-08-12_17h05.11.849,empathy_intonation_perc_control,2024.2.4,Linux x86_64,59.88023952,67478b43d90864464fd088bb,68817205a84113384fffdfe3,689bac5dc0f86fcd5150ee18,,,,,,,,,,,,,1,,,,,,,,,,,,,,,,,,,,,,,,,,,,,,,,,,,,,34,aviso,,,,,593.2423,594.9407,1,1,1.1696,,0,66,66,33,1,REAL,FAKE,,,,,,,,,,,,,,,,,
,,,,,,,,,67478b43d90864464fd088bb,Spanish,younger than 13,"no, only English or Spanish",no,2025-08-12_17h05.11.849,empathy_intonation_perc_control,2024.2.4,Linux x86_64,59.88023952,67478b43d90864464fd088bb,68817205a84113384fffdfe3,689bac5dc0f86fcd5150ee18,,,,,,,,,,,,,1,,,,,,,,,,,,,,,,,,,,,,,,,,,,,,,,,,,,,75,yacer,,,,,594.9418,596.7568,1,1,1.2815,,0,67,67,74,1,REAL,FAKE,,,,,,,,,,,,,,,,,
,,,,,,,,,67478b43d90864464fd088bb,Spanish,younger than 13,"no, only English or Spanish",no,2025-08-12_17h05.11.849,empathy_intonation_perc_control,2024.2.4,Linux x86_64,59.88023952,67478b43d90864464fd088bb,68817205a84113384fffdfe3,689bac5dc0f86fcd5150ee18,,,,,,,,,,,,,1,,,,,,,,,,,,,,,,,,,,,,,,,,,,,,,,,,,,,40,alfombra,,,,,596.7581,598.9558,0,0,1.6664,,0,68,68,39,1,REAL,FAKE,,,,,,,,,,,,,,,,,
,,,,,,,,,67478b43d90864464fd088bb,Spanish,younger than 13,"no, only English or Spanish",no,2025-08-12_17h05.11.849,empathy_intonation_perc_control,2024.2.4,Linux x86_64,59.88023952,67478b43d90864464fd088bb,68817205a84113384fffdfe3,689bac5dc0f86fcd5150ee18,,,,,,,,,,,,,0,,,,,,,,,,,,,,,,,,,,,,,,,,,,,,,,,,,,,4,batillón,,,,,598.9571,602.7548,1,0,3.2752,,0,69,69,3,1,REAL,FAKE,,,,,,,,,,,,,,,,,
,,,,,,,,,67478b43d90864464fd088bb,Spanish,younger than 13,"no, only English or Spanish",no,2025-08-12_17h05.11.849,empathy_intonation_perc_control,2024.2.4,Linux x86_64,59.88023952,67478b43d90864464fd088bb,68817205a84113384fffdfe3,689bac5dc0f86fcd5150ee18,,,,,,,,,,,,,1,,,,,,,,,,,,,,,,,,,,,,,,,,,,,,,,,,,,,86,barato,,,,,602.7558,604.5541,1,1,1.2629,,0,70,70,85,1,REAL,FAKE,,,,,,,,,,,,,,,,,
,,,,,,,,,67478b43d90864464fd088bb,Spanish,younger than 13,"no, only English or Spanish",no,2025-08-12_17h05.11.849,empathy_intonation_perc_control,2024.2.4,Linux x86_64,59.88023952,67478b43d90864464fd088bb,68817205a84113384fffdfe3,689bac5dc0f86fcd5150ee18,,,,,,,,,,,,,1,,,,,,,,,,,,,,,,,,,,,,,,,,,,,,,,,,,,,9,hacha,,,,,604.5553,605.9539,1,1,0.8631,,0,71,71,8,1,REAL,FAKE,,,,,,,,,,,,,,,,,
,,,,,,,,,67478b43d90864464fd088bb,Spanish,younger than 13,"no, only English or Spanish",no,2025-08-12_17h05.11.849,empathy_intonation_perc_control,2024.2.4,Linux x86_64,59.88023952,67478b43d90864464fd088bb,68817205a84113384fffdfe3,689bac5dc0f86fcd5150ee18,,,,,,,,,,,,,0,,,,,,,,,,,,,,,,,,,,,,,,,,,,,,,,,,,,,87,grodo,,,,,605.9549,608.4697,0,1,1.9823,,0,72,72,86,1,REAL,FAKE,,,,,,,,,,,,,,,,,
,,,,,,,,,67478b43d90864464fd088bb,Spanish,younger than 13,"no, only English or Spanish",no,2025-08-12_17h05.11.849,empathy_intonation_perc_control,2024.2.4,Linux x86_64,59.88023952,67478b43d90864464fd088bb,68817205a84113384fffdfe3,689bac5dc0f86fcd5150ee18,,,,,,,,,,,,,0,,,,,,,,,,,,,,,,,,,,,,,,,,,,,,,,,,,,,27,acutación,,,,,608.4711,611.053,1,0,2.0489,,0,73,73,26,1,REAL,FAKE,,,,,,,,,,,,,,,,,
,,,,,,,,,67478b43d90864464fd088bb,Spanish,younger than 13,"no, only English or Spanish",no,2025-08-12_17h05.11.849,empathy_intonation_perc_control,2024.2.4,Linux x86_64,59.88023952,67478b43d90864464fd088bb,68817205a84113384fffdfe3,689bac5dc0f86fcd5150ee18,,,,,,,,,,,,,1,,,,,,,,,,,,,,,,,,,,,,,,,,,,,,,,,,,,,20,ávido,,,,,611.0545,613.552,1,1,1.9727,,0,74,74,19,1,REAL,FAKE,,,,,,,,,,,,,,,,,
,,,,,,,,,67478b43d90864464fd088bb,Spanish,younger than 13,"no, only English or Spanish",no,2025-08-12_17h05.11.849,empathy_intonation_perc_control,2024.2.4,Linux x86_64,59.88023952,67478b43d90864464fd088bb,68817205a84113384fffdfe3,689bac5dc0f86fcd5150ee18,,,,,,,,,,,,,1,,,,,,,,,,,,,,,,,,,,,,,,,,,,,,,,,,,,,76,atar,,,,,613.5532,616.9177,0,0,2.8341,,0,75,75,75,1,REAL,FAKE,,,,,,,,,,,,,,,,,
,,,,,,,,,67478b43d90864464fd088bb,Spanish,younger than 13,"no, only English or Spanish",no,2025-08-12_17h05.11.849,empathy_intonation_perc_control,2024.2.4,Linux x86_64,59.88023952,67478b43d90864464fd088bb,68817205a84113384fffdfe3,689bac5dc0f86fcd5150ee18,,,,,,,,,,,,,1,,,,,,,,,,,,,,,,,,,,,,,,,,,,,,,,,,,,,62,flaco,,,,,616.9188,620.3998,0,0,2.9379,,0,76,76,61,1,REAL,FAKE,,,,,,,,,,,,,,,,,
,,,,,,,,,67478b43d90864464fd088bb,Spanish,younger than 13,"no, only English or Spanish",no,2025-08-12_17h05.11.849,empathy_intonation_perc_control,2024.2.4,Linux x86_64,59.88023952,67478b43d90864464fd088bb,68817205a84113384fffdfe3,689bac5dc0f86fcd5150ee18,,,,,,,,,,,,,1,,,,,,,,,,,,,,,,,,,,,,,,,,,,,,,,,,,,,31,pandilla,,,,,620.4011,622.183,1,1,1.2369,,0,77,77,30,1,REAL,FAKE,,,,,,,,,,,,,,,,,
,,,,,,,,,67478b43d90864464fd088bb,Spanish,younger than 13,"no, only English or Spanish",no,2025-08-12_17h05.11.849,empathy_intonation_perc_control,2024.2.4,Linux x86_64,59.88023952,67478b43d90864464fd088bb,68817205a84113384fffdfe3,689bac5dc0f86fcd5150ee18,,,,,,,,,,,,,0,,,,,,,,,,,,,,,,,,,,,,,,,,,,,,,,,,,,,82,empirador,,,,,622.1842,624.4825,1,0,1.7765,,0,78,78,81,1,REAL,FAKE,,,,,,,,,,,,,,,,,
,,,,,,,,,67478b43d90864464fd088bb,Spanish,younger than 13,"no, only English or Spanish",no,2025-08-12_17h05.11.849,empathy_intonation_perc_control,2024.2.4,Linux x86_64,59.88023952,67478b43d90864464fd088bb,68817205a84113384fffdfe3,689bac5dc0f86fcd5150ee18,,,,,,,,,,,,,0,,,,,,,,,,,,,,,,,,,,,,,,,,,,,,,,,,,,,23,lampera,,,,,624.4836,626.4477,1,0,1.4337,,0,79,79,22,1,REAL,FAKE,,,,,,,,,,,,,,,,,
,,,,,,,,,67478b43d90864464fd088bb,Spanish,younger than 13,"no, only English or Spanish",no,2025-08-12_17h05.11.849,empathy_intonation_perc_control,2024.2.4,Linux x86_64,59.88023952,67478b43d90864464fd088bb,68817205a84113384fffdfe3,689bac5dc0f86fcd5150ee18,,,,,,,,,,,,,1,,,,,,,,,,,,,,,,,,,,,,,,,,,,,,,,,,,,,41,rebuscar,,,,,626.4487,630.6138,0,0,3.633,,0,80,80,40,1,REAL,FAKE,,,,,,,,,,,,,,,,,
,,,,,,,,,67478b43d90864464fd088bb,Spanish,younger than 13,"no, only English or Spanish",no,2025-08-12_17h05.11.849,empathy_intonation_perc_control,2024.2.4,Linux x86_64,59.88023952,67478b43d90864464fd088bb,68817205a84113384fffdfe3,689bac5dc0f86fcd5150ee18,,,,,,,,,,,,,0,,,,,,,,,,,,,,,,,,,,,,,,,,,,,,,,,,,,,18,arsa,,,,,630.6154,633.6798,1,0,2.5263,,0,81,81,17,1,REAL,FAKE,,,,,,,,,,,,,,,,,
,,,,,,,,,67478b43d90864464fd088bb,Spanish,younger than 13,"no, only English or Spanish",no,2025-08-12_17h05.11.849,empathy_intonation_perc_control,2024.2.4,Linux x86_64,59.88023952,67478b43d90864464fd088bb,68817205a84113384fffdfe3,689bac5dc0f86fcd5150ee18,,,,,,,,,,,,,1,,,,,,,,,,,,,,,,,,,,,,,,,,,,,,,,,,,,,51,candado,,,,,633.6811,636.845,1,1,2.6321,,0,82,82,50,1,REAL,FAKE,,,,,,,,,,,,,,,,,
,,,,,,,,,67478b43d90864464fd088bb,Spanish,younger than 13,"no, only English or Spanish",no,2025-08-12_17h05.11.849,empathy_intonation_perc_control,2024.2.4,Linux x86_64,59.88023952,67478b43d90864464fd088bb,68817205a84113384fffdfe3,689bac5dc0f86fcd5150ee18,,,,,,,,,,,,,1,,,,,,,,,,,,,,,,,,,,,,,,,,,,,,,,,,,,,49,ganar,,,,,636.8467,639.4945,1,1,2.1223,,0,83,83,48,1,REAL,FAKE,,,,,,,,,,,,,,,,,
,,,,,,,,,67478b43d90864464fd088bb,Spanish,younger than 13,"no, only English or Spanish",no,2025-08-12_17h05.11.849,empathy_intonation_perc_control,2024.2.4,Linux x86_64,59.88023952,67478b43d90864464fd088bb,68817205a84113384fffdfe3,689bac5dc0f86fcd5150ee18,,,,,,,,,,,,,1,,,,,,,,,,,,,,,,,,,,,,,,,,,,,,,,,,,,,57,tacaño,,,,,639.4955,641.3606,1,1,1.3273,,0,84,84,56,1,REAL,FAKE,,,,,,,,,,,,,,,,,
,,,,,,,,,67478b43d90864464fd088bb,Spanish,younger than 13,"no, only English or Spanish",no,2025-08-12_17h05.11.849,empathy_intonation_perc_control,2024.2.4,Linux x86_64,59.88023952,67478b43d90864464fd088bb,68817205a84113384fffdfe3,689bac5dc0f86fcd5150ee18,,,,,,,,,,,,,1,,,,,,,,,,,,,,,,,,,,,,,,,,,,,,,,,,,,,24,látigo,,,,,641.3617,643.643,1,1,1.7398,,0,85,85,23,1,REAL,FAKE,,,,,,,,,,,,,,,,,
,,,,,,,,,67478b43d90864464fd088bb,Spanish,younger than 13,"no, only English or Spanish",no,2025-08-12_17h05.11.849,empathy_intonation_perc_control,2024.2.4,Linux x86_64,59.88023952,67478b43d90864464fd088bb,68817205a84113384fffdfe3,689bac5dc0f86fcd5150ee18,,,,,,,,,,,,,0,,,,,,,,,,,,,,,,,,,,,,,,,,,,,,,,,,,,,63,esposante,,,,,643.6444,646.1926,1,0,2.0105,,0,86,86,62,1,REAL,FAKE,,,,,,,,,,,,,,,,,
,,,,,,,,,67478b43d90864464fd088bb,Spanish,younger than 13,"no, only English or Spanish",no,2025-08-12_17h05.11.849,empathy_intonation_perc_control,2024.2.4,Linux x86_64,59.88023952,67478b43d90864464fd088bb,68817205a84113384fffdfe3,689bac5dc0f86fcd5150ee18,,,,,,,,,,,,,0,,,,,,,,,,,,,,,,,,,,,,,,,,,,,,,,,,,,,58,plaudir,,,,,646.1944,647.7255,0,1,1.01,,0,87,87,57,1,REAL,FAKE,,,,,,,,,,,,,,,,,
,,,,,,,,,67478b43d90864464fd088bb,Spanish,younger than 13,"no, only English or Spanish",no,2025-08-12_17h05.11.849,empathy_intonation_perc_control,2024.2.4,Linux x86_64,59.88023952,67478b43d90864464fd088bb,68817205a84113384fffdfe3,689bac5dc0f86fcd5150ee18,,,,,,,,,,,,,0,,,,,,,,,,,,,,,,,,,,,,,,,,,,,,,,,,,,,42,cadallo,,,,,647.7266,650.6579,0,1,2.3864,,0,88,88,41,1,REAL,FAKE,,,,,,,,,,,,,,,,,
,,,,,,,,,67478b43d90864464fd088bb,Spanish,younger than 13,"no, only English or Spanish",no,2025-08-12_17h05.11.849,empathy_intonation_perc_control,2024.2.4,Linux x86_64,59.88023952,67478b43d90864464fd088bb,68817205a84113384fffdfe3,689bac5dc0f86fcd5150ee18,,,,,,,,,,,,,0,,,,,,,,,,,,,,,,,,,,,,,,,,,,,,,,,,,,,72,pemición,,,,,650.6589,653.3089,1,0,2.138,,0,89,89,71,1,REAL,FAKE,,,,,,,,,,,,,,,,,
,,,,,,,,,67478b43d90864464fd088bb,Spanish,younger than 13,"no, only English or Spanish",no,2025-08-12_17h05.11.849,empathy_intonation_perc_control,2024.2.4,Linux x86_64,59.88023952,67478b43d90864464fd088bb,68817205a84113384fffdfe3,689bac5dc0f86fcd5150ee18,,,,,,,,,,,,,0,,,,,,,,,,,,,,,,,,,,,,,,,,,,,,,,,,,,,53,vegada,,,,,653.3105,655.3236,0,1,1.4696,,0,90,90,52,1,REAL,FAKE,,,,,,,,,,,,,,,,,
,,,,,,,,,67478b43d90864464fd088bb,Spanish,younger than 13,"no, only English or Spanish",no,2025-08-12_17h05.11.849,empathy_intonation_perc_control,2024.2.4,Linux x86_64,59.88023952,67478b43d90864464fd088bb,68817205a84113384fffdfe3,689bac5dc0f86fcd5150ee18,,,,,,,,,,,,,1,,,,,,,,,,,,,,,,,,,,,,,,,,,,,,,,,,,,,52,camisa,,,,,655.3248,657.556,0,0,1.7059,,0,91,91,51,1,REAL,FAKE,,,,,,,,,,,,,,,,,
,,,,,,,,,67478b43d90864464fd088bb,Spanish,younger than 13,"no, only English or Spanish",no,2025-08-12_17h05.11.849,empathy_intonation_perc_control,2024.2.4,Linux x86_64,59.88023952,67478b43d90864464fd088bb,68817205a84113384fffdfe3,689bac5dc0f86fcd5150ee18,,,,,,,,,,,,,,,,,,,,,,,,,,,,,,,,,,,,,,,,,,,,,,,,,,,,,,,,,,,,,,,,,,,,,657.5567,665.2712,,,,,,,,,,,,,,,
,,,,,,,,,67478b43d90864464fd088bb,Spanish,younger than 13,"no, only English or Spanish",no,2025-08-12_17h05.11.849,empathy_intonation_perc_control,2024.2.4,Linux x86_64,59.88023952,67478b43d90864464fd088bb,68817205a84113384fffdfe3,689bac5dc0f86fcd5150ee18,,,,,,,,,,,,,,,,,,,,,,,,,,,1,,,,,,,,,,,,,,,,,,,,,,,,,,,,,,,,,,,,,,,,,,,,665.2887,668.0197,strongly agree,0,0,0,0,1,I can easily tell if someone else wants to enter a conversation.,1,0,1,0,,
,,,,,,,,,67478b43d90864464fd088bb,Spanish,younger than 13,"no, only English or Spanish",no,2025-08-12_17h05.11.849,empathy_intonation_perc_control,2024.2.4,Linux x86_64,59.88023952,67478b43d90864464fd088bb,68817205a84113384fffdfe3,689bac5dc0f86fcd5150ee18,,,,,,,,,,,,,,,,,,,,,,,,,,,2,,,,,,,,,,,,,,,,,,,,,,,,,,,,,,,,,,,,,,,,,,,,668.0219,670.2531,slightly agree,0,1,1,1,1,I prefer animals to humans.,0,1,0,0,,
,,,,,,,,,67478b43d90864464fd088bb,Spanish,younger than 13,"no, only English or Spanish",no,2025-08-12_17h05.11.849,empathy_intonation_perc_control,2024.2.4,Linux x86_64,59.88023952,67478b43d90864464fd088bb,68817205a84113384fffdfe3,689bac5dc0f86fcd5150ee18,,,,,,,,,,,,,,,,,,,,,,,,,,,3,,,,,,,,,,,,,,,,,,,,,,,,,,,,,,,,,,,,,,,,,,,,670.2557,672.7348,slightly disagree,0,2,2,2,1,I try to keep up with the current trends and fashions.,0,1,0,0,,
,,,,,,,,,67478b43d90864464fd088bb,Spanish,younger than 13,"no, only English or Spanish",no,2025-08-12_17h05.11.849,empathy_intonation_perc_control,2024.2.4,Linux x86_64,59.88023952,67478b43d90864464fd088bb,68817205a84113384fffdfe3,689bac5dc0f86fcd5150ee18,,,,,,,,,,,,,,,,,,,,,,,,,,,4,,,,,,,,,,,,,,,,,,,,,,,,,,,,,,,,,,,,,,,,,,,,672.7373,685.1653,slightly agree,0,3,3,3,1,"I find it difficult to explain to others things that I understand easily,   when they don't understand it first time.",1,0,0,1,,
,,,,,,,,,67478b43d90864464fd088bb,Spanish,younger than 13,"no, only English or Spanish",no,2025-08-12_17h05.11.849,empathy_intonation_perc_control,2024.2.4,Linux x86_64,59.88023952,67478b43d90864464fd088bb,68817205a84113384fffdfe3,689bac5dc0f86fcd5150ee18,,,,,,,,,,,,,,,,,,,,,,,,,,,5,,,,,,,,,,,,,,,,,,,,,,,,,,,,,,,,,,,,,,,,,,,,685.1672,686.9982,slightly disagree,0,4,4,4,1,I dream most nights.,0,1,0,0,,
,,,,,,,,,67478b43d90864464fd088bb,Spanish,younger than 13,"no, only English or Spanish",no,2025-08-12_17h05.11.849,empathy_intonation_perc_control,2024.2.4,Linux x86_64,59.88023952,67478b43d90864464fd088bb,68817205a84113384fffdfe3,689bac5dc0f86fcd5150ee18,,,,,,,,,,,,,,,,,,,,,,,,,,,6,,,,,,,,,,,,,,,,,,,,,,,,,,,,,,,,,,,,,,,,,,,,687.0003,692.7299,slightly agree,0,5,5,5,1,I really enjoy caring for other people.,1,0,1,0,,
,,,,,,,,,67478b43d90864464fd088bb,Spanish,younger than 13,"no, only English or Spanish",no,2025-08-12_17h05.11.849,empathy_intonation_perc_control,2024.2.4,Linux x86_64,59.88023952,67478b43d90864464fd088bb,68817205a84113384fffdfe3,689bac5dc0f86fcd5150ee18,,,,,,,,,,,,,,,,,,,,,,,,,,,7,,,,,,,,,,,,,,,,,,,,,,,,,,,,,,,,,,,,,,,,,,,,692.7323,695.846,strongly disagree,0,6,6,6,1,I try to solve my own problems rather than discussing them with others.,0,1,0,0,,
,,,,,,,,,67478b43d90864464fd088bb,Spanish,younger than 13,"no, only English or Spanish",no,2025-08-12_17h05.11.849,empathy_intonation_perc_control,2024.2.4,Linux x86_64,59.88023952,67478b43d90864464fd088bb,68817205a84113384fffdfe3,689bac5dc0f86fcd5150ee18,,,,,,,,,,,,,,,,,,,,,,,,,,,8,,,,,,,,,,,,,,,,,,,,,,,,,,,,,,,,,,,,,,,,,,,,695.8479,699.4615,strongly disagree,0,7,7,7,1,I find it hard to know what to do in a social situation.,1,0,0,1,,
,,,,,,,,,67478b43d90864464fd088bb,Spanish,younger than 13,"no, only English or Spanish",no,2025-08-12_17h05.11.849,empathy_intonation_perc_control,2024.2.4,Linux x86_64,59.88023952,67478b43d90864464fd088bb,68817205a84113384fffdfe3,689bac5dc0f86fcd5150ee18,,,,,,,,,,,,,,,,,,,,,,,,,,,9,,,,,,,,,,,,,,,,,,,,,,,,,,,,,,,,,,,,,,,,,,,,699.464,701.8942,slightly disagree,0,8,8,8,1,I am at my best first thing in the morning.,0,1,0,0,,
,,,,,,,,,67478b43d90864464fd088bb,Spanish,younger than 13,"no, only English or Spanish",no,2025-08-12_17h05.11.849,empathy_intonation_perc_control,2024.2.4,Linux x86_64,59.88023952,67478b43d90864464fd088bb,68817205a84113384fffdfe3,689bac5dc0f86fcd5150ee18,,,,,,,,,,,,,,,,,,,,,,,,,,,10,,,,,,,,,,,,,,,,,,,,,,,,,,,,,,,,,,,,,,,,,,,,701.897,707.6087,strongly disagree,0,9,9,9,1,People often tell me that I went too far in driving my point home in a discussion.,1,0,0,1,,
,,,,,,,,,67478b43d90864464fd088bb,Spanish,younger than 13,"no, only English or Spanish",no,2025-08-12_17h05.11.849,empathy_intonation_perc_control,2024.2.4,Linux x86_64,59.88023952,67478b43d90864464fd088bb,68817205a84113384fffdfe3,689bac5dc0f86fcd5150ee18,,,,,,,,,,,,,,,,,,,,,,,,,,,11,,,,,,,,,,,,,,,,,,,,,,,,,,,,,,,,,,,,,,,,,,,,707.6107,713.1408,strongly disagree,0,10,10,10,1,It doesn't bother me too much if I am late meeting a friend.,1,0,0,1,,
,,,,,,,,,67478b43d90864464fd088bb,Spanish,younger than 13,"no, only English or Spanish",no,2025-08-12_17h05.11.849,empathy_intonation_perc_control,2024.2.4,Linux x86_64,59.88023952,67478b43d90864464fd088bb,68817205a84113384fffdfe3,689bac5dc0f86fcd5150ee18,,,,,,,,,,,,,,,,,,,,,,,,,,,12,,,,,,,,,,,,,,,,,,,,,,,,,,,,,,,,,,,,,,,,,,,,713.1432,718.289,slightly agree,0,11,11,11,1,"Friendships and relationships are just too difficult, so I tend not to 
  bother with them.",1,0,0,1,,
,,,,,,,,,67478b43d90864464fd088bb,Spanish,younger than 13,"no, only English or Spanish",no,2025-08-12_17h05.11.849,empathy_intonation_perc_control,2024.2.4,Linux x86_64,59.88023952,67478b43d90864464fd088bb,68817205a84113384fffdfe3,689bac5dc0f86fcd5150ee18,,,,,,,,,,,,,,,,,,,,,,,,,,,13,,,,,,,,,,,,,,,,,,,,,,,,,,,,,,,,,,,,,,,,,,,,718.2911,720.8221,strongly agree,0,12,12,12,1,"I would never break a law, no matter how minor.",0,1,0,0,,
,,,,,,,,,67478b43d90864464fd088bb,Spanish,younger than 13,"no, only English or Spanish",no,2025-08-12_17h05.11.849,empathy_intonation_perc_control,2024.2.4,Linux x86_64,59.88023952,67478b43d90864464fd088bb,68817205a84113384fffdfe3,689bac5dc0f86fcd5150ee18,,,,,,,,,,,,,,,,,,,,,,,,,,,14,,,,,,,,,,,,,,,,,,,,,,,,,,,,,,,,,,,,,,,,,,,,720.8244,724.7871,strongly disagree,0,13,13,13,1,I often find it difficult to judge if something is rude or polite.,1,0,0,1,,
,,,,,,,,,67478b43d90864464fd088bb,Spanish,younger than 13,"no, only English or Spanish",no,2025-08-12_17h05.11.849,empathy_intonation_perc_control,2024.2.4,Linux x86_64,59.88023952,67478b43d90864464fd088bb,68817205a84113384fffdfe3,689bac5dc0f86fcd5150ee18,,,,,,,,,,,,,,,,,,,,,,,,,,,15,,,,,,,,,,,,,,,,,,,,,,,,,,,,,,,,,,,,,,,,,,,,724.7896,729.1863,strongly disagree,0,14,14,14,1,"In a conversation, I tend to focus on my own thoughts rather than on what 
  my listener might be thinking.",1,0,0,1,,
,,,,,,,,,67478b43d90864464fd088bb,Spanish,younger than 13,"no, only English or Spanish",no,2025-08-12_17h05.11.849,empathy_intonation_perc_control,2024.2.4,Linux x86_64,59.88023952,67478b43d90864464fd088bb,68817205a84113384fffdfe3,689bac5dc0f86fcd5150ee18,,,,,,,,,,,,,,,,,,,,,,,,,,,16,,,,,,,,,,,,,,,,,,,,,,,,,,,,,,,,,,,,,,,,,,,,729.1889,734.2344,strongly disagree,0,15,15,15,1,I prefer practical jokes to verbal humor.,0,1,0,0,,
,,,,,,,,,67478b43d90864464fd088bb,Spanish,younger than 13,"no, only English or Spanish",no,2025-08-12_17h05.11.849,empathy_intonation_perc_control,2024.2.4,Linux x86_64,59.88023952,67478b43d90864464fd088bb,68817205a84113384fffdfe3,689bac5dc0f86fcd5150ee18,,,,,,,,,,,,,,,,,,,,,,,,,,,17,,,,,,,,,,,,,,,,,,,,,,,,,,,,,,,,,,,,,,,,,,,,734.2364,740.1832,slightly disagree,0,16,16,16,1,I live life for today rather than the future.,0,1,0,0,,
,,,,,,,,,67478b43d90864464fd088bb,Spanish,younger than 13,"no, only English or Spanish",no,2025-08-12_17h05.11.849,empathy_intonation_perc_control,2024.2.4,Linux x86_64,59.88023952,67478b43d90864464fd088bb,68817205a84113384fffdfe3,689bac5dc0f86fcd5150ee18,,,,,,,,,,,,,,,,,,,,,,,,,,,18,,,,,,,,,,,,,,,,,,,,,,,,,,,,,,,,,,,,,,,,,,,,740.1853,742.9826,strongly disagree,0,17,17,17,1,"When I was a child, I enjoyed cutting up worms to see what would happen.",1,0,0,1,,
,,,,,,,,,67478b43d90864464fd088bb,Spanish,younger than 13,"no, only English or Spanish",no,2025-08-12_17h05.11.849,empathy_intonation_perc_control,2024.2.4,Linux x86_64,59.88023952,67478b43d90864464fd088bb,68817205a84113384fffdfe3,689bac5dc0f86fcd5150ee18,,,,,,,,,,,,,,,,,,,,,,,,,,,19,,,,,,,,,,,,,,,,,,,,,,,,,,,,,,,,,,,,,,,,,,,,742.9848,750.1152,slightly agree,0,18,18,18,1,I can pick up quickly if someone says one thing but means another.,1,0,1,0,,
