instructions_2afc.started,instructions_2afc.stopped,instructions_2afc_loop.thisRepN,instructions_2afc_loop.thisTrialN,instructions_2afc_loop.thisN,instructions_2afc_loop.thisIndex,instructions_2afc_loop.ran,instructions_text,continue_text,participant_id,"What variety of Spanish are you most familiar with? (e.g., Peruvian, Spanish, Mexican)",At what age did you begin learning Spanish?,Are you proficient in any languages other than English/Spanish?,"Are you familiar with Caribbean (e.g., Caribbean, Puerto Rican) or Galician Spanish?",date,expName,psychopyVersion,OS,frameRate,id,study_id,session,practice_2afc.started,practice_2afc.stopped,key_resp_2afc_practice.keys,key_resp_2afc_practice.corr,key_resp_2afc_practice.rt,key_resp_2afc_practice.duration,trials_2afc_practice_loop.thisRepN,trials_2afc_practice_loop.thisTrialN,trials_2afc_practice_loop.thisN,trials_2afc_practice_loop.thisIndex,trials_2afc_practice_loop.ran,path,correct_response,check_2afc.started,check_2afc.stopped,trial_2afc.started,trial_2afc.stopped,key_resp_2afc_trial.keys,key_resp_2afc_trial.corr,key_resp_2afc_trial.rt,key_resp_2afc_trial.duration,trials_2afc_loop.thisRepN,trials_2afc_loop.thisTrialN,trials_2afc_loop.thisN,trials_2afc_loop.thisIndex,trials_2afc_loop.ran,item_num,target,variety,instructions_lextale.started,instructions_lextale.stopped,instructions_lextale_loop.thisRepN,instructions_lextale_loop.thisTrialN,instructions_lextale_loop.thisN,instructions_lextale_loop.thisIndex,instructions_lextale_loop.ran,practice_lextale.started,practice_lextale.stopped,key_resp_lextale_practice.keys,key_resp_lextale_practice.corr,key_resp_lextale_practice.rt,key_resp_lextale_practice.duration,practice_feedback_lextale.started,practice_feedback_lextale.stopped,trials_lextale_practice_loop.thisRepN,trials_lextale_practice_loop.thisTrialN,trials_lextale_practice_loop.thisN,trials_lextale_practice_loop.thisIndex,trials_lextale_practice_loop.ran,stim,word,prac_button_real,prac_button_false,check_lextale.started,check_lextale.stopped,trial_lextale.started,trial_lextale.stopped,key_resp_lextale_trial.keys,key_resp_lextale_trial.corr,key_resp_lextale_trial.rt,key_resp_lextale_trial.duration,trials_lextale_loop.thisRepN,trials_lextale_loop.thisTrialN,trials_lextale_loop.thisN,trials_lextale_loop.thisIndex,trials_lextale_loop.ran,button_real,button_false,instructions_eq.started,instructions_eq.stopped,trial_eq.started,trial_eq.stopped,slider_eq_trial.response,trials_eq_loop.thisRepN,trials_eq_loop.thisTrialN,trials_eq_loop.thisN,trials_eq_loop.thisIndex,trials_eq_loop.ran,item,is_test_item,is_distractor,is_agree_score,is_disagree_score,end_exp.started,end_exp.stopped
0.0241,5.4484,0,0,0,0,1,"In the following task you are going to hear a series of utterances. 

  You will decide if the utterances sound like questions or not using your keyboard.", (press the spacebar to continue),674fa4a78b9d8a734154456f,spanish,13 or older,"no, only English or Spanish",no,2025-08-12_15h45.05.346,empathy_intonation_perc_control,2024.2.4,Win32,58.82352941,674fa4a78b9d8a734154456f,68817205a84113384fffdfe3,689b9989d9944364faf9f434,,,,,,,,,,,,,,,,,,,,,,,,,,,,,,,,,,,,,,,,,,,,,,,,,,,,,,,,,,,,,,,,,,,,,,,,,,,,,,,,,,,,,
5.4495,10.7145,0,1,1,1,1,"If you believe the utterance is a question, type '1' (for 'yes') and if you do not 
  believe it is a question type '0' (for 'no').

  Let's practice a bit...", (press the spacebar to continue),674fa4a78b9d8a734154456f,spanish,13 or older,"no, only English or Spanish",no,2025-08-12_15h45.05.346,empathy_intonation_perc_control,2024.2.4,Win32,58.82352941,674fa4a78b9d8a734154456f,68817205a84113384fffdfe3,689b9989d9944364faf9f434,,,,,,,,,,,,,,,,,,,,,,,,,,,,,,,,,,,,,,,,,,,,,,,,,,,,,,,,,,,,,,,,,,,,,,,,,,,,,,,,,,,,,
,,,,,,,,,674fa4a78b9d8a734154456f,spanish,13 or older,"no, only English or Spanish",no,2025-08-12_15h45.05.346,empathy_intonation_perc_control,2024.2.4,Win32,58.82352941,674fa4a78b9d8a734154456f,68817205a84113384fffdfe3,689b9989d9944364faf9f434,10.7332,17.8649,1,1,6.5969,,0,0,0,0,1,./stim/wavs/castilian_question_filler_Mi-esposo-conoce-al-chico.wav,1,,,,,,,,,,,,,,,,,,,,,,,,,,,,,,,,,,,,,,,,,,,,,,,,,,,,,,,,,,,,,,,,,,,,,,,,
,,,,,,,,,674fa4a78b9d8a734154456f,spanish,13 or older,"no, only English or Spanish",no,2025-08-12_15h45.05.346,empathy_intonation_perc_control,2024.2.4,Win32,58.82352941,674fa4a78b9d8a734154456f,68817205a84113384fffdfe3,689b9989d9944364faf9f434,17.8663,24.0806,1,1,5.6835,,0,1,1,1,1,./stim/wavs/argentine_question_filler_Mi-vecino-habla-mucho.wav,1,,,,,,,,,,,,,,,,,,,,,,,,,,,,,,,,,,,,,,,,,,,,,,,,,,,,,,,,,,,,,,,,,,,,,,,,
,,,,,,,,,674fa4a78b9d8a734154456f,spanish,13 or older,"no, only English or Spanish",no,2025-08-12_15h45.05.346,empathy_intonation_perc_control,2024.2.4,Win32,58.82352941,674fa4a78b9d8a734154456f,68817205a84113384fffdfe3,689b9989d9944364faf9f434,24.0818,29.0971,1,1,4.4832,,0,2,2,2,1,./stim/wavs/chilean_question_filler_Mi-padre-cantaba-bien.wav,1,,,,,,,,,,,,,,,,,,,,,,,,,,,,,,,,,,,,,,,,,,,,,,,,,,,,,,,,,,,,,,,,,,,,,,,,
,,,,,,,,,674fa4a78b9d8a734154456f,spanish,13 or older,"no, only English or Spanish",no,2025-08-12_15h45.05.346,empathy_intonation_perc_control,2024.2.4,Win32,58.82352941,674fa4a78b9d8a734154456f,68817205a84113384fffdfe3,689b9989d9944364faf9f434,29.0981,31.4469,0,1,1.8181,,0,3,3,4,1,./stim/wavs/cuban_statement_filler_Cocinabas-por-la-noche.wav,0,,,,,,,,,,,,,,,,,,,,,,,,,,,,,,,,,,,,,,,,,,,,,,,,,,,,,,,,,,,,,,,,,,,,,,,,
,,,,,,,,,674fa4a78b9d8a734154456f,spanish,13 or older,"no, only English or Spanish",no,2025-08-12_15h45.05.346,empathy_intonation_perc_control,2024.2.4,Win32,58.82352941,674fa4a78b9d8a734154456f,68817205a84113384fffdfe3,689b9989d9944364faf9f434,31.4481,34.0803,1,1,2.1002,,0,4,4,3,1,./stim/wavs/mexican_question_filler_Felipe-no-tiene-contrasena.wav,1,,,,,,,,,,,,,,,,,,,,,,,,,,,,,,,,,,,,,,,,,,,,,,,,,,,,,,,,,,,,,,,,,,,,,,,,
,,,,,,,,,674fa4a78b9d8a734154456f,spanish,13 or older,"no, only English or Spanish",no,2025-08-12_15h45.05.346,empathy_intonation_perc_control,2024.2.4,Win32,58.82352941,674fa4a78b9d8a734154456f,68817205a84113384fffdfe3,689b9989d9944364faf9f434,34.0815,36.7969,0,1,2.1884,,0,5,5,5,1,./stim/wavs/andalusian_statement_filler_Alberto-nunca-se-afeita.wav,0,,,,,,,,,,,,,,,,,,,,,,,,,,,,,,,,,,,,,,,,,,,,,,,,,,,,,,,,,,,,,,,,,,,,,,,,
,,,,,,,,,674fa4a78b9d8a734154456f,spanish,13 or older,"no, only English or Spanish",no,2025-08-12_15h45.05.346,empathy_intonation_perc_control,2024.2.4,Win32,58.82352941,674fa4a78b9d8a734154456f,68817205a84113384fffdfe3,689b9989d9944364faf9f434,36.7979,40.0635,0,1,2.7379,,0,6,6,6,1,./stim/wavs/peruvian_statement_filler_El-nino-habla-con-su-madre.wav,0,,,,,,,,,,,,,,,,,,,,,,,,,,,,,,,,,,,,,,,,,,,,,,,,,,,,,,,,,,,,,,,,,,,,,,,,
,,,,,,,,,674fa4a78b9d8a734154456f,spanish,13 or older,"no, only English or Spanish",no,2025-08-12_15h45.05.346,empathy_intonation_perc_control,2024.2.4,Win32,58.82352941,674fa4a78b9d8a734154456f,68817205a84113384fffdfe3,689b9989d9944364faf9f434,40.0644,42.4135,0,1,1.8164,,0,7,7,7,1,./stim/wavs/puertorican_statement_filler_La-nina-pinta-con-su-amiga.wav,0,,,,,,,,,,,,,,,,,,,,,,,,,,,,,,,,,,,,,,,,,,,,,,,,,,,,,,,,,,,,,,,,,,,,,,,,
,,,,,,,,,674fa4a78b9d8a734154456f,spanish,13 or older,"no, only English or Spanish",no,2025-08-12_15h45.05.346,empathy_intonation_perc_control,2024.2.4,Win32,58.82352941,674fa4a78b9d8a734154456f,68817205a84113384fffdfe3,689b9989d9944364faf9f434,,,,,,,,,,,,,,42.4144,45.6644,,,,,,,,,,,,,,,,,,,,,,,,,,,,,,,,,,,,,,,,,,,,,,,,,,,,,,,,,,,,,,,,,,,,,,
,,,,,,,,,674fa4a78b9d8a734154456f,spanish,13 or older,"no, only English or Spanish",no,2025-08-12_15h45.05.346,empathy_intonation_perc_control,2024.2.4,Win32,58.82352941,674fa4a78b9d8a734154456f,68817205a84113384fffdfe3,689b9989d9944364faf9f434,,,,,,,,,,,,./stim/wavs/puertorican_match_declarative-broad-focus_Maria-bebe-el-vino.wav,0,,,45.683,48.3143,0,1,2.1073,,0,0,0,67,1,68,0,puertorican,,,,,,,,,,,,,,,,,,,,,,,,,,,,,,,,,,,,,,,,,,,,,,,,,,,,,,,,
,,,,,,,,,674fa4a78b9d8a734154456f,spanish,13 or older,"no, only English or Spanish",no,2025-08-12_15h45.05.346,empathy_intonation_perc_control,2024.2.4,Win32,58.82352941,674fa4a78b9d8a734154456f,68817205a84113384fffdfe3,689b9989d9944364faf9f434,,,,,,,,,,,,./stim/wavs/cuban_mismatch_declarative-broad-focus_Mi-tia-odia-la-lluvia.wav,0,,,48.316,50.6301,0,1,1.7865,,0,1,1,77,1,78,0,cuban,,,,,,,,,,,,,,,,,,,,,,,,,,,,,,,,,,,,,,,,,,,,,,,,,,,,,,,,
,,,,,,,,,674fa4a78b9d8a734154456f,spanish,13 or older,"no, only English or Spanish",no,2025-08-12_15h45.05.346,empathy_intonation_perc_control,2024.2.4,Win32,58.82352941,674fa4a78b9d8a734154456f,68817205a84113384fffdfe3,689b9989d9944364faf9f434,,,,,,,,,,,,./stim/wavs/puertorican_mismatch_interrogative-total-yn_El-hombre-mira-la-luna.wav,1,,,50.6315,52.9633,0,0,1.8005,,0,2,2,39,1,40,1,puertorican,,,,,,,,,,,,,,,,,,,,,,,,,,,,,,,,,,,,,,,,,,,,,,,,,,,,,,,,
,,,,,,,,,674fa4a78b9d8a734154456f,spanish,13 or older,"no, only English or Spanish",no,2025-08-12_15h45.05.346,empathy_intonation_perc_control,2024.2.4,Win32,58.82352941,674fa4a78b9d8a734154456f,68817205a84113384fffdfe3,689b9989d9944364faf9f434,,,,,,,,,,,,./stim/wavs/mexican_mismatch_declarative-broad-focus_El-bebe-comia-muy-bien.wav,0,,,52.9649,55.4127,0,1,1.9257,,0,3,3,78,1,79,0,mexican,,,,,,,,,,,,,,,,,,,,,,,,,,,,,,,,,,,,,,,,,,,,,,,,,,,,,,,,
,,,,,,,,,674fa4a78b9d8a734154456f,spanish,13 or older,"no, only English or Spanish",no,2025-08-12_15h45.05.346,empathy_intonation_perc_control,2024.2.4,Win32,58.82352941,674fa4a78b9d8a734154456f,68817205a84113384fffdfe3,689b9989d9944364faf9f434,,,,,,,,,,,,./stim/wavs/puertorican_match_declarative-broad-focus_Ana-lleva-el-abrigo.wav,0,,,55.4139,57.5127,0,1,1.575,,0,4,4,62,1,63,0,puertorican,,,,,,,,,,,,,,,,,,,,,,,,,,,,,,,,,,,,,,,,,,,,,,,,,,,,,,,,
,,,,,,,,,674fa4a78b9d8a734154456f,spanish,13 or older,"no, only English or Spanish",no,2025-08-12_15h45.05.346,empathy_intonation_perc_control,2024.2.4,Win32,58.82352941,674fa4a78b9d8a734154456f,68817205a84113384fffdfe3,689b9989d9944364faf9f434,,,,,,,,,,,,./stim/wavs/cuban_match_declarative-broad-focus_Maria-bebe-el-vino.wav,0,,,57.514,59.7466,0,1,1.7078,,0,5,5,53,1,54,0,cuban,,,,,,,,,,,,,,,,,,,,,,,,,,,,,,,,,,,,,,,,,,,,,,,,,,,,,,,,
,,,,,,,,,674fa4a78b9d8a734154456f,spanish,13 or older,"no, only English or Spanish",no,2025-08-12_15h45.05.346,empathy_intonation_perc_control,2024.2.4,Win32,58.82352941,674fa4a78b9d8a734154456f,68817205a84113384fffdfe3,689b9989d9944364faf9f434,,,,,,,,,,,,./stim/wavs/puertorican_mismatch_interrogative-total-yn_La-nina-lava-el-plato.wav,1,,,59.7476,62.3463,0,0,2.0731,,0,6,6,42,1,43,1,puertorican,,,,,,,,,,,,,,,,,,,,,,,,,,,,,,,,,,,,,,,,,,,,,,,,,,,,,,,,
,,,,,,,,,674fa4a78b9d8a734154456f,spanish,13 or older,"no, only English or Spanish",no,2025-08-12_15h45.05.346,empathy_intonation_perc_control,2024.2.4,Win32,58.82352941,674fa4a78b9d8a734154456f,68817205a84113384fffdfe3,689b9989d9944364faf9f434,,,,,,,,,,,,./stim/wavs/puertorican_mismatch_declarative-broad-focus_El-bebe-comia-muy-bien.wav,0,,,62.3475,64.546,1,0,1.6634,,0,7,7,83,1,84,0,puertorican,,,,,,,,,,,,,,,,,,,,,,,,,,,,,,,,,,,,,,,,,,,,,,,,,,,,,,,,
,,,,,,,,,674fa4a78b9d8a734154456f,spanish,13 or older,"no, only English or Spanish",no,2025-08-12_15h45.05.346,empathy_intonation_perc_control,2024.2.4,Win32,58.82352941,674fa4a78b9d8a734154456f,68817205a84113384fffdfe3,689b9989d9944364faf9f434,,,,,,,,,,,,./stim/wavs/cuban_mismatch_declarative-broad-focus_El-hombre-mira-la-luna.wav,0,,,64.5468,66.6462,1,0,1.5686,,0,8,8,74,1,75,0,cuban,,,,,,,,,,,,,,,,,,,,,,,,,,,,,,,,,,,,,,,,,,,,,,,,,,,,,,,,
,,,,,,,,,674fa4a78b9d8a734154456f,spanish,13 or older,"no, only English or Spanish",no,2025-08-12_15h45.05.346,empathy_intonation_perc_control,2024.2.4,Win32,58.82352941,674fa4a78b9d8a734154456f,68817205a84113384fffdfe3,689b9989d9944364faf9f434,,,,,,,,,,,,./stim/wavs/castilian_match_declarative-broad-focus_Manuela-vende-el-carro.wav,0,,,66.6473,69.6459,0,1,2.4768,,0,9,9,46,1,47,0,castilian,,,,,,,,,,,,,,,,,,,,,,,,,,,,,,,,,,,,,,,,,,,,,,,,,,,,,,,,
,,,,,,,,,674fa4a78b9d8a734154456f,spanish,13 or older,"no, only English or Spanish",no,2025-08-12_15h45.05.346,empathy_intonation_perc_control,2024.2.4,Win32,58.82352941,674fa4a78b9d8a734154456f,68817205a84113384fffdfe3,689b9989d9944364faf9f434,,,,,,,,,,,,./stim/wavs/cuban_match_interrogative-total-yn_Mariano-habla-del-tiempo.wav,1,,,69.6471,72.7293,0,0,2.5575,,0,10,10,10,1,11,1,cuban,,,,,,,,,,,,,,,,,,,,,,,,,,,,,,,,,,,,,,,,,,,,,,,,,,,,,,,,
,,,,,,,,,674fa4a78b9d8a734154456f,spanish,13 or older,"no, only English or Spanish",no,2025-08-12_15h45.05.346,empathy_intonation_perc_control,2024.2.4,Win32,58.82352941,674fa4a78b9d8a734154456f,68817205a84113384fffdfe3,689b9989d9944364faf9f434,,,,,,,,,,,,./stim/wavs/castilian_match_declarative-broad-focus_David-leia-el-libro.wav,0,,,72.7304,75.1629,1,0,1.9016,,0,11,11,44,1,45,0,castilian,,,,,,,,,,,,,,,,,,,,,,,,,,,,,,,,,,,,,,,,,,,,,,,,,,,,,,,,
,,,,,,,,,674fa4a78b9d8a734154456f,spanish,13 or older,"no, only English or Spanish",no,2025-08-12_15h45.05.346,empathy_intonation_perc_control,2024.2.4,Win32,58.82352941,674fa4a78b9d8a734154456f,68817205a84113384fffdfe3,689b9989d9944364faf9f434,,,,,,,,,,,,./stim/wavs/puertorican_mismatch_declarative-broad-focus_La-nina-lava-el-plato.wav,0,,,75.1641,77.2628,0,1,1.5737,,0,12,12,87,1,88,0,puertorican,,,,,,,,,,,,,,,,,,,,,,,,,,,,,,,,,,,,,,,,,,,,,,,,,,,,,,,,
,,,,,,,,,674fa4a78b9d8a734154456f,spanish,13 or older,"no, only English or Spanish",no,2025-08-12_15h45.05.346,empathy_intonation_perc_control,2024.2.4,Win32,58.82352941,674fa4a78b9d8a734154456f,68817205a84113384fffdfe3,689b9989d9944364faf9f434,,,,,,,,,,,,./stim/wavs/castilian_mismatch_interrogative-total-yn_La-nina-lava-el-plato.wav,1,,,77.2639,80.2122,1,1,2.4265,,0,13,13,25,1,26,0,castilian,,,,,,,,,,,,,,,,,,,,,,,,,,,,,,,,,,,,,,,,,,,,,,,,,,,,,,,,
,,,,,,,,,674fa4a78b9d8a734154456f,spanish,13 or older,"no, only English or Spanish",no,2025-08-12_15h45.05.346,empathy_intonation_perc_control,2024.2.4,Win32,58.82352941,674fa4a78b9d8a734154456f,68817205a84113384fffdfe3,689b9989d9944364faf9f434,,,,,,,,,,,,./stim/wavs/castilian_mismatch_declarative-broad-focus_Mi-novio-viene-del-lago.wav,0,,,80.2135,82.8958,1,0,2.1522,,0,14,14,71,1,72,0,castilian,,,,,,,,,,,,,,,,,,,,,,,,,,,,,,,,,,,,,,,,,,,,,,,,,,,,,,,,
,,,,,,,,,674fa4a78b9d8a734154456f,spanish,13 or older,"no, only English or Spanish",no,2025-08-12_15h45.05.346,empathy_intonation_perc_control,2024.2.4,Win32,58.82352941,674fa4a78b9d8a734154456f,68817205a84113384fffdfe3,689b9989d9944364faf9f434,,,,,,,,,,,,./stim/wavs/puertorican_mismatch_declarative-broad-focus_El-nino-oye-el-rio.wav,0,,,82.8969,85.1293,0,1,1.7055,,0,15,15,85,1,86,0,puertorican,,,,,,,,,,,,,,,,,,,,,,,,,,,,,,,,,,,,,,,,,,,,,,,,,,,,,,,,
,,,,,,,,,674fa4a78b9d8a734154456f,spanish,13 or older,"no, only English or Spanish",no,2025-08-12_15h45.05.346,empathy_intonation_perc_control,2024.2.4,Win32,58.82352941,674fa4a78b9d8a734154456f,68817205a84113384fffdfe3,689b9989d9944364faf9f434,,,,,,,,,,,,./stim/wavs/castilian_match_declarative-broad-focus_Emilio-ama-la-marcha.wav,0,,,85.1305,87.5455,0,1,1.8848,,0,16,16,45,1,46,0,castilian,,,,,,,,,,,,,,,,,,,,,,,,,,,,,,,,,,,,,,,,,,,,,,,,,,,,,,,,
,,,,,,,,,674fa4a78b9d8a734154456f,spanish,13 or older,"no, only English or Spanish",no,2025-08-12_15h45.05.346,empathy_intonation_perc_control,2024.2.4,Win32,58.82352941,674fa4a78b9d8a734154456f,68817205a84113384fffdfe3,689b9989d9944364faf9f434,,,,,,,,,,,,./stim/wavs/cuban_match_declarative-broad-focus_Manuela-vende-el-carro.wav,0,,,87.5466,89.7794,0,1,1.7035,,0,17,17,52,1,53,0,cuban,,,,,,,,,,,,,,,,,,,,,,,,,,,,,,,,,,,,,,,,,,,,,,,,,,,,,,,,
,,,,,,,,,674fa4a78b9d8a734154456f,spanish,13 or older,"no, only English or Spanish",no,2025-08-12_15h45.05.346,empathy_intonation_perc_control,2024.2.4,Win32,58.82352941,674fa4a78b9d8a734154456f,68817205a84113384fffdfe3,689b9989d9944364faf9f434,,,,,,,,,,,,./stim/wavs/cuban_match_interrogative-total-yn_Ana-lleva-el-abrigo.wav,1,,,89.7804,92.1792,1,1,1.8748,,0,18,18,6,1,7,1,cuban,,,,,,,,,,,,,,,,,,,,,,,,,,,,,,,,,,,,,,,,,,,,,,,,,,,,,,,,
,,,,,,,,,674fa4a78b9d8a734154456f,spanish,13 or older,"no, only English or Spanish",no,2025-08-12_15h45.05.346,empathy_intonation_perc_control,2024.2.4,Win32,58.82352941,674fa4a78b9d8a734154456f,68817205a84113384fffdfe3,689b9989d9944364faf9f434,,,,,,,,,,,,./stim/wavs/puertorican_match_interrogative-total-yn_Maria-bebe-el-vino.wav,1,,,92.1803,94.0791,0,0,1.368,,0,19,19,23,1,24,1,puertorican,,,,,,,,,,,,,,,,,,,,,,,,,,,,,,,,,,,,,,,,,,,,,,,,,,,,,,,,
,,,,,,,,,674fa4a78b9d8a734154456f,spanish,13 or older,"no, only English or Spanish",no,2025-08-12_15h45.05.346,empathy_intonation_perc_control,2024.2.4,Win32,58.82352941,674fa4a78b9d8a734154456f,68817205a84113384fffdfe3,689b9989d9944364faf9f434,,,,,,,,,,,,./stim/wavs/mexican_match_declarative-broad-focus_Marta-abre-el-regalo.wav,0,,,94.0802,96.0955,0,1,1.4917,,0,20,20,61,1,62,0,mexican,,,,,,,,,,,,,,,,,,,,,,,,,,,,,,,,,,,,,,,,,,,,,,,,,,,,,,,,
,,,,,,,,,674fa4a78b9d8a734154456f,spanish,13 or older,"no, only English or Spanish",no,2025-08-12_15h45.05.346,empathy_intonation_perc_control,2024.2.4,Win32,58.82352941,674fa4a78b9d8a734154456f,68817205a84113384fffdfe3,689b9989d9944364faf9f434,,,,,,,,,,,,./stim/wavs/cuban_mismatch_interrogative-total-yn_El-hombre-mira-la-luna.wav,1,,,96.0967,98.4954,1,1,1.8732,,0,21,21,29,1,30,1,cuban,,,,,,,,,,,,,,,,,,,,,,,,,,,,,,,,,,,,,,,,,,,,,,,,,,,,,,,,
,,,,,,,,,674fa4a78b9d8a734154456f,spanish,13 or older,"no, only English or Spanish",no,2025-08-12_15h45.05.346,empathy_intonation_perc_control,2024.2.4,Win32,58.82352941,674fa4a78b9d8a734154456f,68817205a84113384fffdfe3,689b9989d9944364faf9f434,,,,,,,,,,,,./stim/wavs/puertorican_match_interrogative-total-yn_Emilio-ama-la-marcha.wav,1,,,98.4965,101.079,0,0,2.0521,,0,22,22,21,1,22,1,puertorican,,,,,,,,,,,,,,,,,,,,,,,,,,,,,,,,,,,,,,,,,,,,,,,,,,,,,,,,
,,,,,,,,,674fa4a78b9d8a734154456f,spanish,13 or older,"no, only English or Spanish",no,2025-08-12_15h45.05.346,empathy_intonation_perc_control,2024.2.4,Win32,58.82352941,674fa4a78b9d8a734154456f,68817205a84113384fffdfe3,689b9989d9944364faf9f434,,,,,,,,,,,,./stim/wavs/cuban_mismatch_interrogative-total-yn_Mi-tia-odia-la-lluvia.wav,1,,,101.0801,103.1955,1,1,1.5895,,0,23,23,33,1,34,1,cuban,,,,,,,,,,,,,,,,,,,,,,,,,,,,,,,,,,,,,,,,,,,,,,,,,,,,,,,,
,,,,,,,,,674fa4a78b9d8a734154456f,spanish,13 or older,"no, only English or Spanish",no,2025-08-12_15h45.05.346,empathy_intonation_perc_control,2024.2.4,Win32,58.82352941,674fa4a78b9d8a734154456f,68817205a84113384fffdfe3,689b9989d9944364faf9f434,,,,,,,,,,,,./stim/wavs/castilian_match_interrogative-total-yn_Mariano-habla-del-tiempo.wav,1,,,103.1965,105.7292,1,1,2.0083,,0,24,24,4,1,5,0,castilian,,,,,,,,,,,,,,,,,,,,,,,,,,,,,,,,,,,,,,,,,,,,,,,,,,,,,,,,
,,,,,,,,,674fa4a78b9d8a734154456f,spanish,13 or older,"no, only English or Spanish",no,2025-08-12_15h45.05.346,empathy_intonation_perc_control,2024.2.4,Win32,58.82352941,674fa4a78b9d8a734154456f,68817205a84113384fffdfe3,689b9989d9944364faf9f434,,,,,,,,,,,,./stim/wavs/mexican_mismatch_interrogative-total-yn_Mi-tia-odia-la-lluvia.wav,1,,,105.7302,108.145,1,1,1.8764,,0,25,25,38,1,39,0,mexican,,,,,,,,,,,,,,,,,,,,,,,,,,,,,,,,,,,,,,,,,,,,,,,,,,,,,,,,
,,,,,,,,,674fa4a78b9d8a734154456f,spanish,13 or older,"no, only English or Spanish",no,2025-08-12_15h45.05.346,empathy_intonation_perc_control,2024.2.4,Win32,58.82352941,674fa4a78b9d8a734154456f,68817205a84113384fffdfe3,689b9989d9944364faf9f434,,,,,,,,,,,,./stim/wavs/mexican_match_interrogative-total-yn_Mariano-habla-del-tiempo.wav,1,,,108.1459,110.3951,1,1,1.7225,,0,26,26,16,1,17,0,mexican,,,,,,,,,,,,,,,,,,,,,,,,,,,,,,,,,,,,,,,,,,,,,,,,,,,,,,,,
,,,,,,,,,674fa4a78b9d8a734154456f,spanish,13 or older,"no, only English or Spanish",no,2025-08-12_15h45.05.346,empathy_intonation_perc_control,2024.2.4,Win32,58.82352941,674fa4a78b9d8a734154456f,68817205a84113384fffdfe3,689b9989d9944364faf9f434,,,,,,,,,,,,./stim/wavs/cuban_mismatch_interrogative-total-yn_Mi-novio-viene-del-lago.wav,1,,,110.3962,112.8953,0,0,1.971,,0,27,27,32,1,33,1,cuban,,,,,,,,,,,,,,,,,,,,,,,,,,,,,,,,,,,,,,,,,,,,,,,,,,,,,,,,
,,,,,,,,,674fa4a78b9d8a734154456f,spanish,13 or older,"no, only English or Spanish",no,2025-08-12_15h45.05.346,empathy_intonation_perc_control,2024.2.4,Win32,58.82352941,674fa4a78b9d8a734154456f,68817205a84113384fffdfe3,689b9989d9944364faf9f434,,,,,,,,,,,,./stim/wavs/puertorican_mismatch_interrogative-total-yn_El-nino-oye-el-rio.wav,1,,,112.8966,115.2287,0,0,1.801,,0,28,28,40,1,41,1,puertorican,,,,,,,,,,,,,,,,,,,,,,,,,,,,,,,,,,,,,,,,,,,,,,,,,,,,,,,,
,,,,,,,,,674fa4a78b9d8a734154456f,spanish,13 or older,"no, only English or Spanish",no,2025-08-12_15h45.05.346,empathy_intonation_perc_control,2024.2.4,Win32,58.82352941,674fa4a78b9d8a734154456f,68817205a84113384fffdfe3,689b9989d9944364faf9f434,,,,,,,,,,,,./stim/wavs/cuban_match_declarative-broad-focus_Marta-abre-el-regalo.wav,0,,,115.2299,117.9952,0,1,2.2391,,0,29,29,55,1,56,0,cuban,,,,,,,,,,,,,,,,,,,,,,,,,,,,,,,,,,,,,,,,,,,,,,,,,,,,,,,,
,,,,,,,,,674fa4a78b9d8a734154456f,spanish,13 or older,"no, only English or Spanish",no,2025-08-12_15h45.05.346,empathy_intonation_perc_control,2024.2.4,Win32,58.82352941,674fa4a78b9d8a734154456f,68817205a84113384fffdfe3,689b9989d9944364faf9f434,,,,,,,,,,,,./stim/wavs/castilian_match_interrogative-total-yn_Manuela-vende-el-carro.wav,1,,,117.9962,120.412,1,1,1.8843,,0,30,30,2,1,3,0,castilian,,,,,,,,,,,,,,,,,,,,,,,,,,,,,,,,,,,,,,,,,,,,,,,,,,,,,,,,
,,,,,,,,,674fa4a78b9d8a734154456f,spanish,13 or older,"no, only English or Spanish",no,2025-08-12_15h45.05.346,empathy_intonation_perc_control,2024.2.4,Win32,58.82352941,674fa4a78b9d8a734154456f,68817205a84113384fffdfe3,689b9989d9944364faf9f434,,,,,,,,,,,,./stim/wavs/castilian_match_interrogative-total-yn_Emilio-ama-la-marcha.wav,1,,,120.4132,122.4951,1,1,1.556,,0,31,31,1,1,2,0,castilian,,,,,,,,,,,,,,,,,,,,,,,,,,,,,,,,,,,,,,,,,,,,,,,,,,,,,,,,
,,,,,,,,,674fa4a78b9d8a734154456f,spanish,13 or older,"no, only English or Spanish",no,2025-08-12_15h45.05.346,empathy_intonation_perc_control,2024.2.4,Win32,58.82352941,674fa4a78b9d8a734154456f,68817205a84113384fffdfe3,689b9989d9944364faf9f434,,,,,,,,,,,,./stim/wavs/castilian_match_interrogative-total-yn_Marta-abre-el-regalo.wav,1,,,122.4961,124.645,1,1,1.6235,,0,32,32,5,1,6,0,castilian,,,,,,,,,,,,,,,,,,,,,,,,,,,,,,,,,,,,,,,,,,,,,,,,,,,,,,,,
,,,,,,,,,674fa4a78b9d8a734154456f,spanish,13 or older,"no, only English or Spanish",no,2025-08-12_15h45.05.346,empathy_intonation_perc_control,2024.2.4,Win32,58.82352941,674fa4a78b9d8a734154456f,68817205a84113384fffdfe3,689b9989d9944364faf9f434,,,,,,,,,,,,./stim/wavs/mexican_match_interrogative-total-yn_Emilio-ama-la-marcha.wav,1,,,124.6461,127.2785,1,1,2.1001,,0,33,33,15,1,16,0,mexican,,,,,,,,,,,,,,,,,,,,,,,,,,,,,,,,,,,,,,,,,,,,,,,,,,,,,,,,
,,,,,,,,,674fa4a78b9d8a734154456f,spanish,13 or older,"no, only English or Spanish",no,2025-08-12_15h45.05.346,empathy_intonation_perc_control,2024.2.4,Win32,58.82352941,674fa4a78b9d8a734154456f,68817205a84113384fffdfe3,689b9989d9944364faf9f434,,,,,,,,,,,,./stim/wavs/castilian_mismatch_interrogative-total-yn_Mi-madre-come-la-fruta.wav,1,,,127.2797,129.7113,1,1,1.9103,,0,34,34,26,1,27,0,castilian,,,,,,,,,,,,,,,,,,,,,,,,,,,,,,,,,,,,,,,,,,,,,,,,,,,,,,,,
,,,,,,,,,674fa4a78b9d8a734154456f,spanish,13 or older,"no, only English or Spanish",no,2025-08-12_15h45.05.346,empathy_intonation_perc_control,2024.2.4,Win32,58.82352941,674fa4a78b9d8a734154456f,68817205a84113384fffdfe3,689b9989d9944364faf9f434,,,,,,,,,,,,./stim/wavs/mexican_match_declarative-broad-focus_Emilio-ama-la-marcha.wav,0,,,129.7123,131.945,1,0,1.7045,,0,35,35,59,1,60,0,mexican,,,,,,,,,,,,,,,,,,,,,,,,,,,,,,,,,,,,,,,,,,,,,,,,,,,,,,,,
,,,,,,,,,674fa4a78b9d8a734154456f,spanish,13 or older,"no, only English or Spanish",no,2025-08-12_15h45.05.346,empathy_intonation_perc_control,2024.2.4,Win32,58.82352941,674fa4a78b9d8a734154456f,68817205a84113384fffdfe3,689b9989d9944364faf9f434,,,,,,,,,,,,./stim/wavs/mexican_mismatch_interrogative-total-yn_La-maestra-vive-en-Paris.wav,1,,,131.9458,134.5286,1,1,2.0511,,0,36,36,36,1,37,0,mexican,,,,,,,,,,,,,,,,,,,,,,,,,,,,,,,,,,,,,,,,,,,,,,,,,,,,,,,,
,,,,,,,,,674fa4a78b9d8a734154456f,spanish,13 or older,"no, only English or Spanish",no,2025-08-12_15h45.05.346,empathy_intonation_perc_control,2024.2.4,Win32,58.82352941,674fa4a78b9d8a734154456f,68817205a84113384fffdfe3,689b9989d9944364faf9f434,,,,,,,,,,,,./stim/wavs/cuban_mismatch_declarative-broad-focus_Mi-novio-viene-del-lago.wav,0,,,134.5296,136.8783,0,1,1.8174,,0,37,37,76,1,77,0,cuban,,,,,,,,,,,,,,,,,,,,,,,,,,,,,,,,,,,,,,,,,,,,,,,,,,,,,,,,
,,,,,,,,,674fa4a78b9d8a734154456f,spanish,13 or older,"no, only English or Spanish",no,2025-08-12_15h45.05.346,empathy_intonation_perc_control,2024.2.4,Win32,58.82352941,674fa4a78b9d8a734154456f,68817205a84113384fffdfe3,689b9989d9944364faf9f434,,,,,,,,,,,,./stim/wavs/castilian_mismatch_interrogative-total-yn_Mi-novio-viene-del-lago.wav,1,,,136.8794,139.1776,1,1,1.7779,,0,38,38,27,1,28,0,castilian,,,,,,,,,,,,,,,,,,,,,,,,,,,,,,,,,,,,,,,,,,,,,,,,,,,,,,,,
,,,,,,,,,674fa4a78b9d8a734154456f,spanish,13 or older,"no, only English or Spanish",no,2025-08-12_15h45.05.346,empathy_intonation_perc_control,2024.2.4,Win32,58.82352941,674fa4a78b9d8a734154456f,68817205a84113384fffdfe3,689b9989d9944364faf9f434,,,,,,,,,,,,./stim/wavs/castilian_match_declarative-broad-focus_Mariano-habla-del-tiempo.wav,0,,,139.1785,141.9283,0,1,2.2242,,0,39,39,48,1,49,0,castilian,,,,,,,,,,,,,,,,,,,,,,,,,,,,,,,,,,,,,,,,,,,,,,,,,,,,,,,,
,,,,,,,,,674fa4a78b9d8a734154456f,spanish,13 or older,"no, only English or Spanish",no,2025-08-12_15h45.05.346,empathy_intonation_perc_control,2024.2.4,Win32,58.82352941,674fa4a78b9d8a734154456f,68817205a84113384fffdfe3,689b9989d9944364faf9f434,,,,,,,,,,,,./stim/wavs/castilian_mismatch_declarative-broad-focus_Mi-tia-odia-la-lluvia.wav,0,,,141.9295,144.1616,0,1,1.6996,,0,40,40,72,1,73,0,castilian,,,,,,,,,,,,,,,,,,,,,,,,,,,,,,,,,,,,,,,,,,,,,,,,,,,,,,,,
,,,,,,,,,674fa4a78b9d8a734154456f,spanish,13 or older,"no, only English or Spanish",no,2025-08-12_15h45.05.346,empathy_intonation_perc_control,2024.2.4,Win32,58.82352941,674fa4a78b9d8a734154456f,68817205a84113384fffdfe3,689b9989d9944364faf9f434,,,,,,,,,,,,./stim/wavs/castilian_match_interrogative-total-yn_Maria-bebe-el-vino.wav,1,,,144.1628,146.5113,1,1,1.825,,0,41,41,3,1,4,0,castilian,,,,,,,,,,,,,,,,,,,,,,,,,,,,,,,,,,,,,,,,,,,,,,,,,,,,,,,,
,,,,,,,,,674fa4a78b9d8a734154456f,spanish,13 or older,"no, only English or Spanish",no,2025-08-12_15h45.05.346,empathy_intonation_perc_control,2024.2.4,Win32,58.82352941,674fa4a78b9d8a734154456f,68817205a84113384fffdfe3,689b9989d9944364faf9f434,,,,,,,,,,,,./stim/wavs/mexican_match_interrogative-total-yn_David-leia-el-libro.wav,1,,,146.5123,149.9115,1,1,2.8665,,0,42,42,14,1,15,0,mexican,,,,,,,,,,,,,,,,,,,,,,,,,,,,,,,,,,,,,,,,,,,,,,,,,,,,,,,,
,,,,,,,,,674fa4a78b9d8a734154456f,spanish,13 or older,"no, only English or Spanish",no,2025-08-12_15h45.05.346,empathy_intonation_perc_control,2024.2.4,Win32,58.82352941,674fa4a78b9d8a734154456f,68817205a84113384fffdfe3,689b9989d9944364faf9f434,,,,,,,,,,,,./stim/wavs/castilian_mismatch_declarative-broad-focus_El-nino-oye-el-rio.wav,0,,,149.9126,152.328,0,1,1.8908,,0,43,43,68,1,69,0,castilian,,,,,,,,,,,,,,,,,,,,,,,,,,,,,,,,,,,,,,,,,,,,,,,,,,,,,,,,
,,,,,,,,,674fa4a78b9d8a734154456f,spanish,13 or older,"no, only English or Spanish",no,2025-08-12_15h45.05.346,empathy_intonation_perc_control,2024.2.4,Win32,58.82352941,674fa4a78b9d8a734154456f,68817205a84113384fffdfe3,689b9989d9944364faf9f434,,,,,,,,,,,,./stim/wavs/castilian_mismatch_declarative-broad-focus_La-nina-lava-el-plato.wav,0,,,152.3292,154.6613,0,1,1.8059,,0,44,44,70,1,71,0,castilian,,,,,,,,,,,,,,,,,,,,,,,,,,,,,,,,,,,,,,,,,,,,,,,,,,,,,,,,
,,,,,,,,,674fa4a78b9d8a734154456f,spanish,13 or older,"no, only English or Spanish",no,2025-08-12_15h45.05.346,empathy_intonation_perc_control,2024.2.4,Win32,58.82352941,674fa4a78b9d8a734154456f,68817205a84113384fffdfe3,689b9989d9944364faf9f434,,,,,,,,,,,,./stim/wavs/cuban_mismatch_interrogative-total-yn_Mi-madre-come-la-fruta.wav,1,,,154.6625,157.0445,0,0,1.8503,,0,45,45,31,1,32,1,cuban,,,,,,,,,,,,,,,,,,,,,,,,,,,,,,,,,,,,,,,,,,,,,,,,,,,,,,,,
,,,,,,,,,674fa4a78b9d8a734154456f,spanish,13 or older,"no, only English or Spanish",no,2025-08-12_15h45.05.346,empathy_intonation_perc_control,2024.2.4,Win32,58.82352941,674fa4a78b9d8a734154456f,68817205a84113384fffdfe3,689b9989d9944364faf9f434,,,,,,,,,,,,./stim/wavs/cuban_mismatch_interrogative-total-yn_El-nino-oye-el-rio.wav,1,,,157.0455,158.9944,0,0,1.4169,,0,46,46,30,1,31,1,cuban,,,,,,,,,,,,,,,,,,,,,,,,,,,,,,,,,,,,,,,,,,,,,,,,,,,,,,,,
,,,,,,,,,674fa4a78b9d8a734154456f,spanish,13 or older,"no, only English or Spanish",no,2025-08-12_15h45.05.346,empathy_intonation_perc_control,2024.2.4,Win32,58.82352941,674fa4a78b9d8a734154456f,68817205a84113384fffdfe3,689b9989d9944364faf9f434,,,,,,,,,,,,./stim/wavs/puertorican_match_interrogative-total-yn_David-leia-el-libro.wav,1,,,158.9952,161.0775,0,0,1.5615,,0,47,47,20,1,21,1,puertorican,,,,,,,,,,,,,,,,,,,,,,,,,,,,,,,,,,,,,,,,,,,,,,,,,,,,,,,,
,,,,,,,,,674fa4a78b9d8a734154456f,spanish,13 or older,"no, only English or Spanish",no,2025-08-12_15h45.05.346,empathy_intonation_perc_control,2024.2.4,Win32,58.82352941,674fa4a78b9d8a734154456f,68817205a84113384fffdfe3,689b9989d9944364faf9f434,,,,,,,,,,,,./stim/wavs/cuban_match_interrogative-total-yn_Maria-bebe-el-vino.wav,1,,,161.0787,163.5441,0,0,1.9416,,0,48,48,9,1,10,1,cuban,,,,,,,,,,,,,,,,,,,,,,,,,,,,,,,,,,,,,,,,,,,,,,,,,,,,,,,,
,,,,,,,,,674fa4a78b9d8a734154456f,spanish,13 or older,"no, only English or Spanish",no,2025-08-12_15h45.05.346,empathy_intonation_perc_control,2024.2.4,Win32,58.82352941,674fa4a78b9d8a734154456f,68817205a84113384fffdfe3,689b9989d9944364faf9f434,,,,,,,,,,,,./stim/wavs/cuban_mismatch_declarative-broad-focus_La-nina-lava-el-plato.wav,0,,,163.5449,165.6778,0,1,1.6055,,0,49,49,75,1,76,0,cuban,,,,,,,,,,,,,,,,,,,,,,,,,,,,,,,,,,,,,,,,,,,,,,,,,,,,,,,,
,,,,,,,,,674fa4a78b9d8a734154456f,spanish,13 or older,"no, only English or Spanish",no,2025-08-12_15h45.05.346,empathy_intonation_perc_control,2024.2.4,Win32,58.82352941,674fa4a78b9d8a734154456f,68817205a84113384fffdfe3,689b9989d9944364faf9f434,,,,,,,,,,,,./stim/wavs/cuban_match_declarative-broad-focus_Ana-lleva-el-abrigo.wav,0,,,165.6789,168.0277,0,1,1.8173,,0,50,50,50,1,51,0,cuban,,,,,,,,,,,,,,,,,,,,,,,,,,,,,,,,,,,,,,,,,,,,,,,,,,,,,,,,
,,,,,,,,,674fa4a78b9d8a734154456f,spanish,13 or older,"no, only English or Spanish",no,2025-08-12_15h45.05.346,empathy_intonation_perc_control,2024.2.4,Win32,58.82352941,674fa4a78b9d8a734154456f,68817205a84113384fffdfe3,689b9989d9944364faf9f434,,,,,,,,,,,,./stim/wavs/cuban_match_interrogative-total-yn_Marta-abre-el-regalo.wav,1,,,168.0289,170.6105,0,0,2.0593,,0,51,51,11,1,12,1,cuban,,,,,,,,,,,,,,,,,,,,,,,,,,,,,,,,,,,,,,,,,,,,,,,,,,,,,,,,
,,,,,,,,,674fa4a78b9d8a734154456f,spanish,13 or older,"no, only English or Spanish",no,2025-08-12_15h45.05.346,empathy_intonation_perc_control,2024.2.4,Win32,58.82352941,674fa4a78b9d8a734154456f,68817205a84113384fffdfe3,689b9989d9944364faf9f434,,,,,,,,,,,,./stim/wavs/mexican_match_declarative-broad-focus_Mariano-habla-del-tiempo.wav,0,,,170.6113,173.4606,1,0,2.3282,,0,52,52,60,1,61,0,mexican,,,,,,,,,,,,,,,,,,,,,,,,,,,,,,,,,,,,,,,,,,,,,,,,,,,,,,,,
,,,,,,,,,674fa4a78b9d8a734154456f,spanish,13 or older,"no, only English or Spanish",no,2025-08-12_15h45.05.346,empathy_intonation_perc_control,2024.2.4,Win32,58.82352941,674fa4a78b9d8a734154456f,68817205a84113384fffdfe3,689b9989d9944364faf9f434,,,,,,,,,,,,./stim/wavs/castilian_match_declarative-broad-focus_Marta-abre-el-regalo.wav,0,,,173.4614,175.9775,0,1,1.9846,,0,53,53,49,1,50,0,castilian,,,,,,,,,,,,,,,,,,,,,,,,,,,,,,,,,,,,,,,,,,,,,,,,,,,,,,,,
,,,,,,,,,674fa4a78b9d8a734154456f,spanish,13 or older,"no, only English or Spanish",no,2025-08-12_15h45.05.346,empathy_intonation_perc_control,2024.2.4,Win32,58.82352941,674fa4a78b9d8a734154456f,68817205a84113384fffdfe3,689b9989d9944364faf9f434,,,,,,,,,,,,./stim/wavs/castilian_mismatch_interrogative-total-yn_La-maestra-vive-en-Paris.wav,1,,,175.9786,178.5775,1,1,2.0683,,0,54,54,24,1,25,0,castilian,,,,,,,,,,,,,,,,,,,,,,,,,,,,,,,,,,,,,,,,,,,,,,,,,,,,,,,,
,,,,,,,,,674fa4a78b9d8a734154456f,spanish,13 or older,"no, only English or Spanish",no,2025-08-12_15h45.05.346,empathy_intonation_perc_control,2024.2.4,Win32,58.82352941,674fa4a78b9d8a734154456f,68817205a84113384fffdfe3,689b9989d9944364faf9f434,,,,,,,,,,,,./stim/wavs/puertorican_match_interrogative-total-yn_Ana-lleva-el-abrigo.wav,1,,,178.5787,180.6776,1,1,1.5686,,0,55,55,18,1,19,1,puertorican,,,,,,,,,,,,,,,,,,,,,,,,,,,,,,,,,,,,,,,,,,,,,,,,,,,,,,,,
,,,,,,,,,674fa4a78b9d8a734154456f,spanish,13 or older,"no, only English or Spanish",no,2025-08-12_15h45.05.346,empathy_intonation_perc_control,2024.2.4,Win32,58.82352941,674fa4a78b9d8a734154456f,68817205a84113384fffdfe3,689b9989d9944364faf9f434,,,,,,,,,,,,./stim/wavs/mexican_match_interrogative-total-yn_Marta-abre-el-regalo.wav,1,,,180.6786,183.1274,1,1,1.922,,0,56,56,17,1,18,0,mexican,,,,,,,,,,,,,,,,,,,,,,,,,,,,,,,,,,,,,,,,,,,,,,,,,,,,,,,,
,,,,,,,,,674fa4a78b9d8a734154456f,spanish,13 or older,"no, only English or Spanish",no,2025-08-12_15h45.05.346,empathy_intonation_perc_control,2024.2.4,Win32,58.82352941,674fa4a78b9d8a734154456f,68817205a84113384fffdfe3,689b9989d9944364faf9f434,,,,,,,,,,,,./stim/wavs/puertorican_match_declarative-broad-focus_Emilio-ama-la-marcha.wav,0,,,183.1282,185.2603,0,1,1.6106,,0,57,57,65,1,66,0,puertorican,,,,,,,,,,,,,,,,,,,,,,,,,,,,,,,,,,,,,,,,,,,,,,,,,,,,,,,,
,,,,,,,,,674fa4a78b9d8a734154456f,spanish,13 or older,"no, only English or Spanish",no,2025-08-12_15h45.05.346,empathy_intonation_perc_control,2024.2.4,Win32,58.82352941,674fa4a78b9d8a734154456f,68817205a84113384fffdfe3,689b9989d9944364faf9f434,,,,,,,,,,,,./stim/wavs/puertorican_mismatch_interrogative-total-yn_Mi-madre-come-la-fruta.wav,1,,,185.261,187.7607,1,1,1.9671,,0,58,58,43,1,44,1,puertorican,,,,,,,,,,,,,,,,,,,,,,,,,,,,,,,,,,,,,,,,,,,,,,,,,,,,,,,,
,,,,,,,,,674fa4a78b9d8a734154456f,spanish,13 or older,"no, only English or Spanish",no,2025-08-12_15h45.05.346,empathy_intonation_perc_control,2024.2.4,Win32,58.82352941,674fa4a78b9d8a734154456f,68817205a84113384fffdfe3,689b9989d9944364faf9f434,,,,,,,,,,,,./stim/wavs/puertorican_mismatch_declarative-broad-focus_La-maestra-vive-en-Paris.wav,0,,,187.7619,190.2104,0,1,1.9273,,0,59,59,86,1,87,0,puertorican,,,,,,,,,,,,,,,,,,,,,,,,,,,,,,,,,,,,,,,,,,,,,,,,,,,,,,,,
,,,,,,,,,674fa4a78b9d8a734154456f,spanish,13 or older,"no, only English or Spanish",no,2025-08-12_15h45.05.346,empathy_intonation_perc_control,2024.2.4,Win32,58.82352941,674fa4a78b9d8a734154456f,68817205a84113384fffdfe3,689b9989d9944364faf9f434,,,,,,,,,,,,./stim/wavs/mexican_mismatch_interrogative-total-yn_El-hombre-mira-la-luna.wav,1,,,190.2117,192.444,1,1,1.7158,,0,60,60,34,1,35,0,mexican,,,,,,,,,,,,,,,,,,,,,,,,,,,,,,,,,,,,,,,,,,,,,,,,,,,,,,,,
,,,,,,,,,674fa4a78b9d8a734154456f,spanish,13 or older,"no, only English or Spanish",no,2025-08-12_15h45.05.346,empathy_intonation_perc_control,2024.2.4,Win32,58.82352941,674fa4a78b9d8a734154456f,68817205a84113384fffdfe3,689b9989d9944364faf9f434,,,,,,,,,,,,./stim/wavs/puertorican_match_declarative-broad-focus_Manuela-vende-el-carro.wav,0,,,192.4448,194.8825,0,1,1.9169,,0,61,61,66,1,67,0,puertorican,,,,,,,,,,,,,,,,,,,,,,,,,,,,,,,,,,,,,,,,,,,,,,,,,,,,,,,,
,,,,,,,,,674fa4a78b9d8a734154456f,spanish,13 or older,"no, only English or Spanish",no,2025-08-12_15h45.05.346,empathy_intonation_perc_control,2024.2.4,Win32,58.82352941,674fa4a78b9d8a734154456f,68817205a84113384fffdfe3,689b9989d9944364faf9f434,,,,,,,,,,,,./stim/wavs/mexican_match_interrogative-total-yn_Daniel-iba-a-Bolivia.wav,1,,,194.8832,197.127,1,1,1.7028,,0,62,62,13,1,14,0,mexican,,,,,,,,,,,,,,,,,,,,,,,,,,,,,,,,,,,,,,,,,,,,,,,,,,,,,,,,
,,,,,,,,,674fa4a78b9d8a734154456f,spanish,13 or older,"no, only English or Spanish",no,2025-08-12_15h45.05.346,empathy_intonation_perc_control,2024.2.4,Win32,58.82352941,674fa4a78b9d8a734154456f,68817205a84113384fffdfe3,689b9989d9944364faf9f434,,,,,,,,,,,,./stim/wavs/puertorican_mismatch_interrogative-total-yn_La-maestra-vive-en-Paris.wav,1,,,197.1282,199.6273,0,0,1.9574,,0,63,63,41,1,42,1,puertorican,,,,,,,,,,,,,,,,,,,,,,,,,,,,,,,,,,,,,,,,,,,,,,,,,,,,,,,,
,,,,,,,,,674fa4a78b9d8a734154456f,spanish,13 or older,"no, only English or Spanish",no,2025-08-12_15h45.05.346,empathy_intonation_perc_control,2024.2.4,Win32,58.82352941,674fa4a78b9d8a734154456f,68817205a84113384fffdfe3,689b9989d9944364faf9f434,,,,,,,,,,,,./stim/wavs/mexican_mismatch_declarative-broad-focus_Mi-tia-odia-la-lluvia.wav,0,,,199.6283,202.0654,0,1,1.9168,,0,64,64,82,1,83,0,mexican,,,,,,,,,,,,,,,,,,,,,,,,,,,,,,,,,,,,,,,,,,,,,,,,,,,,,,,,
,,,,,,,,,674fa4a78b9d8a734154456f,spanish,13 or older,"no, only English or Spanish",no,2025-08-12_15h45.05.346,empathy_intonation_perc_control,2024.2.4,Win32,58.82352941,674fa4a78b9d8a734154456f,68817205a84113384fffdfe3,689b9989d9944364faf9f434,,,,,,,,,,,,./stim/wavs/mexican_mismatch_interrogative-total-yn_El-nino-oye-el-rio.wav,1,,,202.0661,204.7433,1,1,2.1596,,0,65,65,35,1,36,0,mexican,,,,,,,,,,,,,,,,,,,,,,,,,,,,,,,,,,,,,,,,,,,,,,,,,,,,,,,,
,,,,,,,,,674fa4a78b9d8a734154456f,spanish,13 or older,"no, only English or Spanish",no,2025-08-12_15h45.05.346,empathy_intonation_perc_control,2024.2.4,Win32,58.82352941,674fa4a78b9d8a734154456f,68817205a84113384fffdfe3,689b9989d9944364faf9f434,,,,,,,,,,,,./stim/wavs/castilian_mismatch_declarative-broad-focus_La-maestra-vive-en-Paris.wav,0,,,204.7443,207.8935,0,1,2.6257,,0,66,66,69,1,70,0,castilian,,,,,,,,,,,,,,,,,,,,,,,,,,,,,,,,,,,,,,,,,,,,,,,,,,,,,,,,
,,,,,,,,,674fa4a78b9d8a734154456f,spanish,13 or older,"no, only English or Spanish",no,2025-08-12_15h45.05.346,empathy_intonation_perc_control,2024.2.4,Win32,58.82352941,674fa4a78b9d8a734154456f,68817205a84113384fffdfe3,689b9989d9944364faf9f434,,,,,,,,,,,,./stim/wavs/puertorican_match_interrogative-total-yn_Manuela-vende-el-carro.wav,1,,,207.8949,210.3432,0,0,1.9255,,0,67,67,22,1,23,1,puertorican,,,,,,,,,,,,,,,,,,,,,,,,,,,,,,,,,,,,,,,,,,,,,,,,,,,,,,,,
,,,,,,,,,674fa4a78b9d8a734154456f,spanish,13 or older,"no, only English or Spanish",no,2025-08-12_15h45.05.346,empathy_intonation_perc_control,2024.2.4,Win32,58.82352941,674fa4a78b9d8a734154456f,68817205a84113384fffdfe3,689b9989d9944364faf9f434,,,,,,,,,,,,./stim/wavs/mexican_mismatch_declarative-broad-focus_La-maestra-vive-en-Paris.wav,0,,,210.3446,212.4603,0,1,1.5795,,0,68,68,80,1,81,0,mexican,,,,,,,,,,,,,,,,,,,,,,,,,,,,,,,,,,,,,,,,,,,,,,,,,,,,,,,,
,,,,,,,,,674fa4a78b9d8a734154456f,spanish,13 or older,"no, only English or Spanish",no,2025-08-12_15h45.05.346,empathy_intonation_perc_control,2024.2.4,Win32,58.82352941,674fa4a78b9d8a734154456f,68817205a84113384fffdfe3,689b9989d9944364faf9f434,,,,,,,,,,,,./stim/wavs/puertorican_match_declarative-broad-focus_David-leia-el-libro.wav,0,,,212.4614,215.2651,0,1,2.2835,,0,69,69,64,1,65,0,puertorican,,,,,,,,,,,,,,,,,,,,,,,,,,,,,,,,,,,,,,,,,,,,,,,,,,,,,,,,
,,,,,,,,,674fa4a78b9d8a734154456f,spanish,13 or older,"no, only English or Spanish",no,2025-08-12_15h45.05.346,empathy_intonation_perc_control,2024.2.4,Win32,58.82352941,674fa4a78b9d8a734154456f,68817205a84113384fffdfe3,689b9989d9944364faf9f434,,,,,,,,,,,,./stim/wavs/puertorican_match_declarative-broad-focus_Daniel-iba-a-Bolivia.wav,0,,,215.2659,217.5318,0,1,1.7505,,0,70,70,63,1,64,0,puertorican,,,,,,,,,,,,,,,,,,,,,,,,,,,,,,,,,,,,,,,,,,,,,,,,,,,,,,,,
,,,,,,,,,674fa4a78b9d8a734154456f,spanish,13 or older,"no, only English or Spanish",no,2025-08-12_15h45.05.346,empathy_intonation_perc_control,2024.2.4,Win32,58.82352941,674fa4a78b9d8a734154456f,68817205a84113384fffdfe3,689b9989d9944364faf9f434,,,,,,,,,,,,./stim/wavs/cuban_match_interrogative-total-yn_Daniel-iba-a-Bolivia.wav,1,,,217.5325,219.5651,1,1,1.5002,,0,71,71,7,1,8,1,cuban,,,,,,,,,,,,,,,,,,,,,,,,,,,,,,,,,,,,,,,,,,,,,,,,,,,,,,,,
,,,,,,,,,674fa4a78b9d8a734154456f,spanish,13 or older,"no, only English or Spanish",no,2025-08-12_15h45.05.346,empathy_intonation_perc_control,2024.2.4,Win32,58.82352941,674fa4a78b9d8a734154456f,68817205a84113384fffdfe3,689b9989d9944364faf9f434,,,,,,,,,,,,./stim/wavs/mexican_mismatch_declarative-broad-focus_Mi-novio-viene-del-lago.wav,0,,,219.5658,221.7434,0,1,1.6501,,0,72,72,81,1,82,0,mexican,,,,,,,,,,,,,,,,,,,,,,,,,,,,,,,,,,,,,,,,,,,,,,,,,,,,,,,,
,,,,,,,,,674fa4a78b9d8a734154456f,spanish,13 or older,"no, only English or Spanish",no,2025-08-12_15h45.05.346,empathy_intonation_perc_control,2024.2.4,Win32,58.82352941,674fa4a78b9d8a734154456f,68817205a84113384fffdfe3,689b9989d9944364faf9f434,,,,,,,,,,,,./stim/wavs/puertorican_mismatch_declarative-broad-focus_El-hombre-mira-la-luna.wav,0,,,221.7446,224.5135,0,1,2.2484,,0,73,73,84,1,85,0,puertorican,,,,,,,,,,,,,,,,,,,,,,,,,,,,,,,,,,,,,,,,,,,,,,,,,,,,,,,,
,,,,,,,,,674fa4a78b9d8a734154456f,spanish,13 or older,"no, only English or Spanish",no,2025-08-12_15h45.05.346,empathy_intonation_perc_control,2024.2.4,Win32,58.82352941,674fa4a78b9d8a734154456f,68817205a84113384fffdfe3,689b9989d9944364faf9f434,,,,,,,,,,,,./stim/wavs/castilian_mismatch_interrogative-total-yn_Mi-tia-odia-la-lluvia.wav,1,,,224.5143,226.8434,1,1,1.7998,,0,74,74,28,1,29,0,castilian,,,,,,,,,,,,,,,,,,,,,,,,,,,,,,,,,,,,,,,,,,,,,,,,,,,,,,,,
,,,,,,,,,674fa4a78b9d8a734154456f,spanish,13 or older,"no, only English or Spanish",no,2025-08-12_15h45.05.346,empathy_intonation_perc_control,2024.2.4,Win32,58.82352941,674fa4a78b9d8a734154456f,68817205a84113384fffdfe3,689b9989d9944364faf9f434,,,,,,,,,,,,./stim/wavs/puertorican_match_interrogative-total-yn_Daniel-iba-a-Bolivia.wav,1,,,226.8443,229.0933,0,0,1.723,,0,75,75,19,1,20,1,puertorican,,,,,,,,,,,,,,,,,,,,,,,,,,,,,,,,,,,,,,,,,,,,,,,,,,,,,,,,
,,,,,,,,,674fa4a78b9d8a734154456f,spanish,13 or older,"no, only English or Spanish",no,2025-08-12_15h45.05.346,empathy_intonation_perc_control,2024.2.4,Win32,58.82352941,674fa4a78b9d8a734154456f,68817205a84113384fffdfe3,689b9989d9944364faf9f434,,,,,,,,,,,,./stim/wavs/mexican_mismatch_declarative-broad-focus_El-hombre-mira-la-luna.wav,0,,,229.0947,231.4099,0,1,1.7844,,0,76,76,79,1,80,0,mexican,,,,,,,,,,,,,,,,,,,,,,,,,,,,,,,,,,,,,,,,,,,,,,,,,,,,,,,,
,,,,,,,,,674fa4a78b9d8a734154456f,spanish,13 or older,"no, only English or Spanish",no,2025-08-12_15h45.05.346,empathy_intonation_perc_control,2024.2.4,Win32,58.82352941,674fa4a78b9d8a734154456f,68817205a84113384fffdfe3,689b9989d9944364faf9f434,,,,,,,,,,,,./stim/wavs/mexican_match_interrogative-total-yn_Ana-lleva-el-abrigo.wav,1,,,231.4112,233.4934,0,0,1.5626,,0,77,77,12,1,13,0,mexican,,,,,,,,,,,,,,,,,,,,,,,,,,,,,,,,,,,,,,,,,,,,,,,,,,,,,,,,
,,,,,,,,,674fa4a78b9d8a734154456f,spanish,13 or older,"no, only English or Spanish",no,2025-08-12_15h45.05.346,empathy_intonation_perc_control,2024.2.4,Win32,58.82352941,674fa4a78b9d8a734154456f,68817205a84113384fffdfe3,689b9989d9944364faf9f434,,,,,,,,,,,,./stim/wavs/mexican_match_declarative-broad-focus_David-leia-el-libro.wav,0,,,233.4946,235.5433,0,1,1.5185,,0,78,78,58,1,59,0,mexican,,,,,,,,,,,,,,,,,,,,,,,,,,,,,,,,,,,,,,,,,,,,,,,,,,,,,,,,
,,,,,,,,,674fa4a78b9d8a734154456f,spanish,13 or older,"no, only English or Spanish",no,2025-08-12_15h45.05.346,empathy_intonation_perc_control,2024.2.4,Win32,58.82352941,674fa4a78b9d8a734154456f,68817205a84113384fffdfe3,689b9989d9944364faf9f434,,,,,,,,,,,,./stim/wavs/mexican_match_declarative-broad-focus_Ana-lleva-el-abrigo.wav,0,,,235.544,237.3261,0,1,1.2604,,0,79,79,56,1,57,0,mexican,,,,,,,,,,,,,,,,,,,,,,,,,,,,,,,,,,,,,,,,,,,,,,,,,,,,,,,,
,,,,,,,,,674fa4a78b9d8a734154456f,spanish,13 or older,"no, only English or Spanish",no,2025-08-12_15h45.05.346,empathy_intonation_perc_control,2024.2.4,Win32,58.82352941,674fa4a78b9d8a734154456f,68817205a84113384fffdfe3,689b9989d9944364faf9f434,,,,,,,,,,,,./stim/wavs/cuban_match_declarative-broad-focus_Daniel-iba-a-Bolivia.wav,0,,,237.3271,239.893,0,1,2.0361,,0,80,80,51,1,52,0,cuban,,,,,,,,,,,,,,,,,,,,,,,,,,,,,,,,,,,,,,,,,,,,,,,,,,,,,,,,
,,,,,,,,,674fa4a78b9d8a734154456f,spanish,13 or older,"no, only English or Spanish",no,2025-08-12_15h45.05.346,empathy_intonation_perc_control,2024.2.4,Win32,58.82352941,674fa4a78b9d8a734154456f,68817205a84113384fffdfe3,689b9989d9944364faf9f434,,,,,,,,,,,,./stim/wavs/mexican_mismatch_interrogative-total-yn_Mi-novio-viene-del-lago.wav,1,,,239.8938,241.9763,1,1,1.5569,,0,81,81,37,1,38,0,mexican,,,,,,,,,,,,,,,,,,,,,,,,,,,,,,,,,,,,,,,,,,,,,,,,,,,,,,,,
,,,,,,,,,674fa4a78b9d8a734154456f,spanish,13 or older,"no, only English or Spanish",no,2025-08-12_15h45.05.346,empathy_intonation_perc_control,2024.2.4,Win32,58.82352941,674fa4a78b9d8a734154456f,68817205a84113384fffdfe3,689b9989d9944364faf9f434,,,,,,,,,,,,./stim/wavs/castilian_match_declarative-broad-focus_Maria-bebe-el-vino.wav,0,,,241.9774,244.6426,0,1,2.1418,,0,82,82,47,1,48,0,castilian,,,,,,,,,,,,,,,,,,,,,,,,,,,,,,,,,,,,,,,,,,,,,,,,,,,,,,,,
,,,,,,,,,674fa4a78b9d8a734154456f,spanish,13 or older,"no, only English or Spanish",no,2025-08-12_15h45.05.346,empathy_intonation_perc_control,2024.2.4,Win32,58.82352941,674fa4a78b9d8a734154456f,68817205a84113384fffdfe3,689b9989d9944364faf9f434,,,,,,,,,,,,./stim/wavs/castilian_match_interrogative-total-yn_David-leia-el-libro.wav,1,,,244.6437,247.243,1,1,2.0734,,0,83,83,0,1,1,0,castilian,,,,,,,,,,,,,,,,,,,,,,,,,,,,,,,,,,,,,,,,,,,,,,,,,,,,,,,,
,,,,,,,,,674fa4a78b9d8a734154456f,spanish,13 or older,"no, only English or Spanish",no,2025-08-12_15h45.05.346,empathy_intonation_perc_control,2024.2.4,Win32,58.82352941,674fa4a78b9d8a734154456f,68817205a84113384fffdfe3,689b9989d9944364faf9f434,,,,,,,,,,,,./stim/wavs/cuban_match_declarative-broad-focus_Mariano-habla-del-tiempo.wav,0,,,247.2442,249.5261,0,1,1.7505,,0,84,84,54,1,55,0,cuban,,,,,,,,,,,,,,,,,,,,,,,,,,,,,,,,,,,,,,,,,,,,,,,,,,,,,,,,
,,,,,,,,,674fa4a78b9d8a734154456f,spanish,13 or older,"no, only English or Spanish",no,2025-08-12_15h45.05.346,empathy_intonation_perc_control,2024.2.4,Win32,58.82352941,674fa4a78b9d8a734154456f,68817205a84113384fffdfe3,689b9989d9944364faf9f434,,,,,,,,,,,,./stim/wavs/cuban_match_interrogative-total-yn_Manuela-vende-el-carro.wav,1,,,249.5271,251.7261,0,0,1.6676,,0,85,85,8,1,9,1,cuban,,,,,,,,,,,,,,,,,,,,,,,,,,,,,,,,,,,,,,,,,,,,,,,,,,,,,,,,
,,,,,,,,,674fa4a78b9d8a734154456f,spanish,13 or older,"no, only English or Spanish",no,2025-08-12_15h45.05.346,empathy_intonation_perc_control,2024.2.4,Win32,58.82352941,674fa4a78b9d8a734154456f,68817205a84113384fffdfe3,689b9989d9944364faf9f434,,,,,,,,,,,,./stim/wavs/cuban_mismatch_declarative-broad-focus_El-bebe-comia-muy-bien.wav,0,,,251.7273,253.6595,0,1,1.4002,,0,86,86,73,1,74,0,cuban,,,,,,,,,,,,,,,,,,,,,,,,,,,,,,,,,,,,,,,,,,,,,,,,,,,,,,,,
,,,,,,,,,674fa4a78b9d8a734154456f,spanish,13 or older,"no, only English or Spanish",no,2025-08-12_15h45.05.346,empathy_intonation_perc_control,2024.2.4,Win32,58.82352941,674fa4a78b9d8a734154456f,68817205a84113384fffdfe3,689b9989d9944364faf9f434,,,,,,,,,,,,./stim/wavs/mexican_match_declarative-broad-focus_Daniel-iba-a-Bolivia.wav,0,,,253.6605,255.9761,0,1,1.7919,,0,87,87,57,1,58,0,mexican,,,,,,,,,,,,,,,,,,,,,,,,,,,,,,,,,,,,,,,,,,,,,,,,,,,,,,,,
,,,,,,,"Great! Now we will move on. The next task consists of about 60 trials, in each of which you will see a string of letters. 
  
  Your task is to decide whether this is a real Spanish word or not.", (press the spacebar to continue),674fa4a78b9d8a734154456f,spanish,13 or older,"no, only English or Spanish",no,2025-08-12_15h45.05.346,empathy_intonation_perc_control,2024.2.4,Win32,58.82352941,674fa4a78b9d8a734154456f,68817205a84113384fffdfe3,689b9989d9944364faf9f434,,,,,,,,,,,,,,,,,,,,,,,,,,,,,,255.986,262.3763,0,0,0,0,1,,,,,,,,,,,,,,,,,,,,,,,,,,,,,,,,,,,,,,,,,,,,,,,,,
,,,,,,,"If you think it is an existing Spanish word, you type '1' (for 'REAL'), and if you think it is not an existing Spanish word, you type '0' (for 'FAKE').", (press the spacebar to continue),674fa4a78b9d8a734154456f,spanish,13 or older,"no, only English or Spanish",no,2025-08-12_15h45.05.346,empathy_intonation_perc_control,2024.2.4,Win32,58.82352941,674fa4a78b9d8a734154456f,68817205a84113384fffdfe3,689b9989d9944364faf9f434,,,,,,,,,,,,,,,,,,,,,,,,,,,,,,262.3801,265.7427,0,1,1,1,1,,,,,,,,,,,,,,,,,,,,,,,,,,,,,,,,,,,,,,,,,,,,,,,,,
,,,,,,,"If you are sure that the word exists, even though you don’t know its exact meaning, you may still respond '1' (REAL). 
  
  But if you are not sure if it is an existing word, you should respond '0' (FAKE).
  
  Let's do a practice round...", (press the spacebar to continue),674fa4a78b9d8a734154456f,spanish,13 or older,"no, only English or Spanish",no,2025-08-12_15h45.05.346,empathy_intonation_perc_control,2024.2.4,Win32,58.82352941,674fa4a78b9d8a734154456f,68817205a84113384fffdfe3,689b9989d9944364faf9f434,,,,,,,,,,,,,,,,,,,,,,,,,,,,,,265.7461,271.2093,0,2,2,2,1,,,,,,,,,,,,,,,,,,,,,,,,,,,,,,,,,,,,,,,,,,,,,,,,,
,,,,,,,,,674fa4a78b9d8a734154456f,spanish,13 or older,"no, only English or Spanish",no,2025-08-12_15h45.05.346,empathy_intonation_perc_control,2024.2.4,Win32,58.82352941,674fa4a78b9d8a734154456f,68817205a84113384fffdfe3,689b9989d9944364faf9f434,,,,,,,,,,,,,0,,,,,,,,,,,,,,,,,,,,,,,,271.2184,273.6428,1,0,1.8999,,273.6434,274.6427,0,0,0,0,1,0,depiste,REAL,FAKE,,,,,,,,,,,,,,,,,,,,,,,,,,,,,,,,
,,,,,,,,,674fa4a78b9d8a734154456f,spanish,13 or older,"no, only English or Spanish",no,2025-08-12_15h45.05.346,empathy_intonation_perc_control,2024.2.4,Win32,58.82352941,674fa4a78b9d8a734154456f,68817205a84113384fffdfe3,689b9989d9944364faf9f434,,,,,,,,,,,,,1,,,,,,,,,,,,,,,,,,,,,,,,274.6448,276.4423,1,1,1.2678,,276.4443,277.4424,0,1,1,1,1,0,sí,REAL,FAKE,,,,,,,,,,,,,,,,,,,,,,,,,,,,,,,,
,,,,,,,,,674fa4a78b9d8a734154456f,spanish,13 or older,"no, only English or Spanish",no,2025-08-12_15h45.05.346,empathy_intonation_perc_control,2024.2.4,Win32,58.82352941,674fa4a78b9d8a734154456f,68817205a84113384fffdfe3,689b9989d9944364faf9f434,,,,,,,,,,,,,0,,,,,,,,,,,,,,,,,,,,,,,,277.4445,278.9755,1,0,0.996,,278.9766,279.9753,0,2,2,2,1,0,coné,REAL,FAKE,,,,,,,,,,,,,,,,,,,,,,,,,,,,,,,,
,,,,,,,,,674fa4a78b9d8a734154456f,spanish,13 or older,"no, only English or Spanish",no,2025-08-12_15h45.05.346,empathy_intonation_perc_control,2024.2.4,Win32,58.82352941,674fa4a78b9d8a734154456f,68817205a84113384fffdfe3,689b9989d9944364faf9f434,,,,,,,,,,,,,0,,,,,,,,,,,,,,,,,,,,,,,,279.9773,281.5919,1,0,1.09,,281.5919,282.5922,0,3,3,3,1,0,calpar,REAL,FAKE,,,,,,,,,,,,,,,,,,,,,,,,,,,,,,,,
,,,,,,,,,674fa4a78b9d8a734154456f,spanish,13 or older,"no, only English or Spanish",no,2025-08-12_15h45.05.346,empathy_intonation_perc_control,2024.2.4,Win32,58.82352941,674fa4a78b9d8a734154456f,68817205a84113384fffdfe3,689b9989d9944364faf9f434,,,,,,,,,,,,,0,,,,,,,,,,,,,,,,,,,,,,,,282.5941,284.5584,0,1,1.439,,284.5592,285.5589,0,4,4,4,1,0,joten,REAL,FAKE,,,,,,,,,,,,,,,,,,,,,,,,,,,,,,,,
,,,,,,,,,674fa4a78b9d8a734154456f,spanish,13 or older,"no, only English or Spanish",no,2025-08-12_15h45.05.346,empathy_intonation_perc_control,2024.2.4,Win32,58.82352941,674fa4a78b9d8a734154456f,68817205a84113384fffdfe3,689b9989d9944364faf9f434,,,,,,,,,,,,,1,,,,,,,,,,,,,,,,,,,,,,,,285.5605,287.0756,0,0,0.9794,,287.0768,288.0755,0,5,5,5,1,0,sacapuntas,REAL,FAKE,,,,,,,,,,,,,,,,,,,,,,,,,,,,,,,,
,,,,,,,,,674fa4a78b9d8a734154456f,spanish,13 or older,"no, only English or Spanish",no,2025-08-12_15h45.05.346,empathy_intonation_perc_control,2024.2.4,Win32,58.82352941,674fa4a78b9d8a734154456f,68817205a84113384fffdfe3,689b9989d9944364faf9f434,,,,,,,,,,,,,0,,,,,,,,,,,,,,,,,,,,,,,,288.0775,289.6756,1,0,1.0623,,289.6757,290.6756,0,6,6,6,1,0,priba,REAL,FAKE,,,,,,,,,,,,,,,,,,,,,,,,,,,,,,,,
,,,,,,,,,674fa4a78b9d8a734154456f,spanish,13 or older,"no, only English or Spanish",no,2025-08-12_15h45.05.346,empathy_intonation_perc_control,2024.2.4,Win32,58.82352941,674fa4a78b9d8a734154456f,68817205a84113384fffdfe3,689b9989d9944364faf9f434,,,,,,,,,,,,,0,,,,,,,,,,,,,,,,,,,,,,,,290.677,292.2088,0,1,0.9976,,292.2097,293.2087,0,7,7,7,1,0,pelasula,REAL,FAKE,,,,,,,,,,,,,,,,,,,,,,,,,,,,,,,,
,,,,,,,,,674fa4a78b9d8a734154456f,spanish,13 or older,"no, only English or Spanish",no,2025-08-12_15h45.05.346,empathy_intonation_perc_control,2024.2.4,Win32,58.82352941,674fa4a78b9d8a734154456f,68817205a84113384fffdfe3,689b9989d9944364faf9f434,,,,,,,,,,,,,1,,,,,,,,,,,,,,,,,,,,,,,,293.2102,294.9254,1,1,1.18,,294.9256,295.9253,0,8,8,8,1,0,bien,REAL,FAKE,,,,,,,,,,,,,,,,,,,,,,,,,,,,,,,,
,,,,,,,,,674fa4a78b9d8a734154456f,spanish,13 or older,"no, only English or Spanish",no,2025-08-12_15h45.05.346,empathy_intonation_perc_control,2024.2.4,Win32,58.82352941,674fa4a78b9d8a734154456f,68817205a84113384fffdfe3,689b9989d9944364faf9f434,,,,,,,,,,,,,1,,,,,,,,,,,,,,,,,,,,,,,,295.9267,297.392,1,1,0.9289,,297.392,298.3919,0,9,9,9,1,0,casa,REAL,FAKE,,,,,,,,,,,,,,,,,,,,,,,,,,,,,,,,
,,,,,,,,,674fa4a78b9d8a734154456f,spanish,13 or older,"no, only English or Spanish",no,2025-08-12_15h45.05.346,empathy_intonation_perc_control,2024.2.4,Win32,58.82352941,674fa4a78b9d8a734154456f,68817205a84113384fffdfe3,689b9989d9944364faf9f434,,,,,,,,,,,,,0,,,,,,,,,,,,,,,,,,,,,,,,298.3934,299.8585,1,0,0.9351,,299.8597,300.8586,0,10,10,10,1,0,lejo,REAL,FAKE,,,,,,,,,,,,,,,,,,,,,,,,,,,,,,,,
,,,,,,,,,674fa4a78b9d8a734154456f,spanish,13 or older,"no, only English or Spanish",no,2025-08-12_15h45.05.346,empathy_intonation_perc_control,2024.2.4,Win32,58.82352941,674fa4a78b9d8a734154456f,68817205a84113384fffdfe3,689b9989d9944364faf9f434,,,,,,,,,,,,,0,,,,,,,,,,,,,,,,,,,,,,,,300.8601,302.3416,1,0,0.9457,,302.3417,303.3418,0,11,11,11,1,0,pretantas,REAL,FAKE,,,,,,,,,,,,,,,,,,,,,,,,,,,,,,,,
,,,,,,,,,674fa4a78b9d8a734154456f,spanish,13 or older,"no, only English or Spanish",no,2025-08-12_15h45.05.346,empathy_intonation_perc_control,2024.2.4,Win32,58.82352941,674fa4a78b9d8a734154456f,68817205a84113384fffdfe3,689b9989d9944364faf9f434,,,,,,,,,,,,,,,,,,,,,,,,,,,,,,,,,,,,,,,,,,,,,,,,,,,,,,303.3424,304.742,,,,,,,,,,,,,,,,,,,,,,,,,,,,,,
,,,,,,,,,674fa4a78b9d8a734154456f,spanish,13 or older,"no, only English or Spanish",no,2025-08-12_15h45.05.346,empathy_intonation_perc_control,2024.2.4,Win32,58.82352941,674fa4a78b9d8a734154456f,68817205a84113384fffdfe3,689b9989d9944364faf9f434,,,,,,,,,,,,,0,,,,,,,,,,,,,,,,,,,,,,,,,,,,,,,,,,,,,84,escuto,,,,,304.7559,306.9255,1,0,1.6549,,0,0,0,83,1,REAL,FAKE,,,,,,,,,,,,,,,,,
,,,,,,,,,674fa4a78b9d8a734154456f,spanish,13 or older,"no, only English or Spanish",no,2025-08-12_15h45.05.346,empathy_intonation_perc_control,2024.2.4,Win32,58.82352941,674fa4a78b9d8a734154456f,68817205a84113384fffdfe3,689b9989d9944364faf9f434,,,,,,,,,,,,,1,,,,,,,,,,,,,,,,,,,,,,,,,,,,,,,,,,,,,31,pandilla,,,,,306.9271,308.3915,1,1,0.9384,,0,1,1,30,1,REAL,FAKE,,,,,,,,,,,,,,,,,
,,,,,,,,,674fa4a78b9d8a734154456f,spanish,13 or older,"no, only English or Spanish",no,2025-08-12_15h45.05.346,empathy_intonation_perc_control,2024.2.4,Win32,58.82352941,674fa4a78b9d8a734154456f,68817205a84113384fffdfe3,689b9989d9944364faf9f434,,,,,,,,,,,,,0,,,,,,,,,,,,,,,,,,,,,,,,,,,,,,,,,,,,,92,click the 0 key.,,,,,308.394,310.0415,0,1,1.1221,,0,2,2,91,1,REAL,FAKE,,,,,,,,,,,,,,,,,
,,,,,,,,,674fa4a78b9d8a734154456f,spanish,13 or older,"no, only English or Spanish",no,2025-08-12_15h45.05.346,empathy_intonation_perc_control,2024.2.4,Win32,58.82352941,674fa4a78b9d8a734154456f,68817205a84113384fffdfe3,689b9989d9944364faf9f434,,,,,,,,,,,,,1,,,,,,,,,,,,,,,,,,,,,,,,,,,,,,,,,,,,,61,seda,,,,,310.043,311.8916,0,0,1.3148,,0,3,3,60,1,REAL,FAKE,,,,,,,,,,,,,,,,,
,,,,,,,,,674fa4a78b9d8a734154456f,spanish,13 or older,"no, only English or Spanish",no,2025-08-12_15h45.05.346,empathy_intonation_perc_control,2024.2.4,Win32,58.82352941,674fa4a78b9d8a734154456f,68817205a84113384fffdfe3,689b9989d9944364faf9f434,,,,,,,,,,,,,1,,,,,,,,,,,,,,,,,,,,,,,,,,,,,,,,,,,,,64,orgulloso,,,,,311.8937,313.4918,0,0,1.0618,,0,4,4,63,1,REAL,FAKE,,,,,,,,,,,,,,,,,
,,,,,,,,,674fa4a78b9d8a734154456f,spanish,13 or older,"no, only English or Spanish",no,2025-08-12_15h45.05.346,empathy_intonation_perc_control,2024.2.4,Win32,58.82352941,674fa4a78b9d8a734154456f,68817205a84113384fffdfe3,689b9989d9944364faf9f434,,,,,,,,,,,,,0,,,,,,,,,,,,,,,,,,,,,,,,,,,,,,,,,,,,,53,vegada,,,,,313.4936,315.0911,1,0,1.0681,,0,5,5,52,1,REAL,FAKE,,,,,,,,,,,,,,,,,
,,,,,,,,,674fa4a78b9d8a734154456f,spanish,13 or older,"no, only English or Spanish",no,2025-08-12_15h45.05.346,empathy_intonation_perc_control,2024.2.4,Win32,58.82352941,674fa4a78b9d8a734154456f,68817205a84113384fffdfe3,689b9989d9944364faf9f434,,,,,,,,,,,,,1,,,,,,,,,,,,,,,,,,,,,,,,,,,,,,,,,,,,,46,martillo,,,,,315.093,316.575,1,1,0.949,,0,6,6,45,1,REAL,FAKE,,,,,,,,,,,,,,,,,
,,,,,,,,,674fa4a78b9d8a734154456f,spanish,13 or older,"no, only English or Spanish",no,2025-08-12_15h45.05.346,empathy_intonation_perc_control,2024.2.4,Win32,58.82352941,674fa4a78b9d8a734154456f,68817205a84113384fffdfe3,689b9989d9944364faf9f434,,,,,,,,,,,,,1,,,,,,,,,,,,,,,,,,,,,,,,,,,,,,,,,,,,,56,musgo,,,,,316.5764,318.1251,0,0,1.015,,0,7,7,55,1,REAL,FAKE,,,,,,,,,,,,,,,,,
,,,,,,,,,674fa4a78b9d8a734154456f,spanish,13 or older,"no, only English or Spanish",no,2025-08-12_15h45.05.346,empathy_intonation_perc_control,2024.2.4,Win32,58.82352941,674fa4a78b9d8a734154456f,68817205a84113384fffdfe3,689b9989d9944364faf9f434,,,,,,,,,,,,,1,,,,,,,,,,,,,,,,,,,,,,,,,,,,,,,,,,,,,7,pésimo,,,,,318.1265,319.7743,0,0,1.1235,,0,8,8,6,1,REAL,FAKE,,,,,,,,,,,,,,,,,
,,,,,,,,,674fa4a78b9d8a734154456f,spanish,13 or older,"no, only English or Spanish",no,2025-08-12_15h45.05.346,empathy_intonation_perc_control,2024.2.4,Win32,58.82352941,674fa4a78b9d8a734154456f,68817205a84113384fffdfe3,689b9989d9944364faf9f434,,,,,,,,,,,,,1,,,,,,,,,,,,,,,,,,,,,,,,,,,,,,,,,,,,,49,ganar,,,,,319.7756,321.4916,0,0,1.1789,,0,9,9,48,1,REAL,FAKE,,,,,,,,,,,,,,,,,
,,,,,,,,,674fa4a78b9d8a734154456f,spanish,13 or older,"no, only English or Spanish",no,2025-08-12_15h45.05.346,empathy_intonation_perc_control,2024.2.4,Win32,58.82352941,674fa4a78b9d8a734154456f,68817205a84113384fffdfe3,689b9989d9944364faf9f434,,,,,,,,,,,,,1,,,,,,,,,,,,,,,,,,,,,,,,,,,,,,,,,,,,,60,matar,,,,,321.493,322.6917,1,1,0.6663,,0,10,10,59,1,REAL,FAKE,,,,,,,,,,,,,,,,,
,,,,,,,,,674fa4a78b9d8a734154456f,spanish,13 or older,"no, only English or Spanish",no,2025-08-12_15h45.05.346,empathy_intonation_perc_control,2024.2.4,Win32,58.82352941,674fa4a78b9d8a734154456f,68817205a84113384fffdfe3,689b9989d9944364faf9f434,,,,,,,,,,,,,0,,,,,,,,,,,,,,,,,,,,,,,,,,,,,,,,,,,,,30,alardio,,,,,322.693,324.0748,1,0,0.8536,,0,11,11,29,1,REAL,FAKE,,,,,,,,,,,,,,,,,
,,,,,,,,,674fa4a78b9d8a734154456f,spanish,13 or older,"no, only English or Spanish",no,2025-08-12_15h45.05.346,empathy_intonation_perc_control,2024.2.4,Win32,58.82352941,674fa4a78b9d8a734154456f,68817205a84113384fffdfe3,689b9989d9944364faf9f434,,,,,,,,,,,,,1,,,,,,,,,,,,,,,,,,,,,,,,,,,,,,,,,,,,,44,cuchara,,,,,324.0763,325.9247,1,1,1.3119,,0,12,12,43,1,REAL,FAKE,,,,,,,,,,,,,,,,,
,,,,,,,,,674fa4a78b9d8a734154456f,spanish,13 or older,"no, only English or Spanish",no,2025-08-12_15h45.05.346,empathy_intonation_perc_control,2024.2.4,Win32,58.82352941,674fa4a78b9d8a734154456f,68817205a84113384fffdfe3,689b9989d9944364faf9f434,,,,,,,,,,,,,0,,,,,,,,,,,,,,,,,,,,,,,,,,,,,,,,,,,,,74,cintro,,,,,325.9259,327.5749,1,0,1.1195,,0,13,13,73,1,REAL,FAKE,,,,,,,,,,,,,,,,,
,,,,,,,,,674fa4a78b9d8a734154456f,spanish,13 or older,"no, only English or Spanish",no,2025-08-12_15h45.05.346,empathy_intonation_perc_control,2024.2.4,Win32,58.82352941,674fa4a78b9d8a734154456f,68817205a84113384fffdfe3,689b9989d9944364faf9f434,,,,,,,,,,,,,1,,,,,,,,,,,,,,,,,,,,,,,,,,,,,,,,,,,,,67,cabello,,,,,327.5761,329.3576,1,1,1.257,,0,14,14,66,1,REAL,FAKE,,,,,,,,,,,,,,,,,
,,,,,,,,,674fa4a78b9d8a734154456f,spanish,13 or older,"no, only English or Spanish",no,2025-08-12_15h45.05.346,empathy_intonation_perc_control,2024.2.4,Win32,58.82352941,674fa4a78b9d8a734154456f,68817205a84113384fffdfe3,689b9989d9944364faf9f434,,,,,,,,,,,,,1,,,,,,,,,,,,,,,,,,,,,,,,,,,,,,,,,,,,,39,torpe,,,,,329.3587,330.7081,0,0,0.8132,,0,15,15,38,1,REAL,FAKE,,,,,,,,,,,,,,,,,
,,,,,,,,,674fa4a78b9d8a734154456f,spanish,13 or older,"no, only English or Spanish",no,2025-08-12_15h45.05.346,empathy_intonation_perc_control,2024.2.4,Win32,58.82352941,674fa4a78b9d8a734154456f,68817205a84113384fffdfe3,689b9989d9944364faf9f434,,,,,,,,,,,,,1,,,,,,,,,,,,,,,,,,,,,,,,,,,,,,,,,,,,,26,secuestro,,,,,330.7095,332.2743,0,0,1.0333,,0,16,16,25,1,REAL,FAKE,,,,,,,,,,,,,,,,,
,,,,,,,,,674fa4a78b9d8a734154456f,spanish,13 or older,"no, only English or Spanish",no,2025-08-12_15h45.05.346,empathy_intonation_perc_control,2024.2.4,Win32,58.82352941,674fa4a78b9d8a734154456f,68817205a84113384fffdfe3,689b9989d9944364faf9f434,,,,,,,,,,,,,0,,,,,,,,,,,,,,,,,,,,,,,,,,,,,,,,,,,,,82,empirador,,,,,332.2758,335.6408,1,0,2.8393,,0,17,17,81,1,REAL,FAKE,,,,,,,,,,,,,,,,,
,,,,,,,,,674fa4a78b9d8a734154456f,spanish,13 or older,"no, only English or Spanish",no,2025-08-12_15h45.05.346,empathy_intonation_perc_control,2024.2.4,Win32,58.82352941,674fa4a78b9d8a734154456f,68817205a84113384fffdfe3,689b9989d9944364faf9f434,,,,,,,,,,,,,1,,,,,,,,,,,,,,,,,,,,,,,,,,,,,,,,,,,,,40,alfombra,,,,,335.6427,337.1074,0,0,0.9354,,0,18,18,39,1,REAL,FAKE,,,,,,,,,,,,,,,,,
,,,,,,,,,674fa4a78b9d8a734154456f,spanish,13 or older,"no, only English or Spanish",no,2025-08-12_15h45.05.346,empathy_intonation_perc_control,2024.2.4,Win32,58.82352941,674fa4a78b9d8a734154456f,68817205a84113384fffdfe3,689b9989d9944364faf9f434,,,,,,,,,,,,,1,,,,,,,,,,,,,,,,,,,,,,,,,,,,,,,,,,,,,41,rebuscar,,,,,337.1086,338.9074,1,1,1.2727,,0,19,19,40,1,REAL,FAKE,,,,,,,,,,,,,,,,,
,,,,,,,,,674fa4a78b9d8a734154456f,spanish,13 or older,"no, only English or Spanish",no,2025-08-12_15h45.05.346,empathy_intonation_perc_control,2024.2.4,Win32,58.82352941,674fa4a78b9d8a734154456f,68817205a84113384fffdfe3,689b9989d9944364faf9f434,,,,,,,,,,,,,1,,,,,,,,,,,,,,,,,,,,,,,,,,,,,,,,,,,,,78,frondoso,,,,,338.9089,340.5579,0,0,1.116,,0,20,20,77,1,REAL,FAKE,,,,,,,,,,,,,,,,,
,,,,,,,,,674fa4a78b9d8a734154456f,spanish,13 or older,"no, only English or Spanish",no,2025-08-12_15h45.05.346,empathy_intonation_perc_control,2024.2.4,Win32,58.82352941,674fa4a78b9d8a734154456f,68817205a84113384fffdfe3,689b9989d9944364faf9f434,,,,,,,,,,,,,1,,,,,,,,,,,,,,,,,,,,,,,,,,,,,,,,,,,,,88,acantilado,,,,,340.5593,342.1076,0,0,1.0133,,0,21,21,87,1,REAL,FAKE,,,,,,,,,,,,,,,,,
,,,,,,,,,674fa4a78b9d8a734154456f,spanish,13 or older,"no, only English or Spanish",no,2025-08-12_15h45.05.346,empathy_intonation_perc_control,2024.2.4,Win32,58.82352941,674fa4a78b9d8a734154456f,68817205a84113384fffdfe3,689b9989d9944364faf9f434,,,,,,,,,,,,,1,,,,,,,,,,,,,,,,,,,,,,,,,,,,,,,,,,,,,2,pellizcar,,,,,342.1093,344.1571,0,0,1.5221,,0,22,22,1,1,REAL,FAKE,,,,,,,,,,,,,,,,,
,,,,,,,,,674fa4a78b9d8a734154456f,spanish,13 or older,"no, only English or Spanish",no,2025-08-12_15h45.05.346,empathy_intonation_perc_control,2024.2.4,Win32,58.82352941,674fa4a78b9d8a734154456f,68817205a84113384fffdfe3,689b9989d9944364faf9f434,,,,,,,,,,,,,1,,,,,,,,,,,,,,,,,,,,,,,,,,,,,,,,,,,,,54,fomentar,,,,,344.1583,347.7578,0,0,3.0616,,0,23,23,53,1,REAL,FAKE,,,,,,,,,,,,,,,,,
,,,,,,,,,674fa4a78b9d8a734154456f,spanish,13 or older,"no, only English or Spanish",no,2025-08-12_15h45.05.346,empathy_intonation_perc_control,2024.2.4,Win32,58.82352941,674fa4a78b9d8a734154456f,68817205a84113384fffdfe3,689b9989d9944364faf9f434,,,,,,,,,,,,,0,,,,,,,,,,,,,,,,,,,,,,,,,,,,,,,,,,,,,70,temblo,,,,,347.7592,349.1911,1,0,0.9021,,0,24,24,69,1,REAL,FAKE,,,,,,,,,,,,,,,,,
,,,,,,,,,674fa4a78b9d8a734154456f,spanish,13 or older,"no, only English or Spanish",no,2025-08-12_15h45.05.346,empathy_intonation_perc_control,2024.2.4,Win32,58.82352941,674fa4a78b9d8a734154456f,68817205a84113384fffdfe3,689b9989d9944364faf9f434,,,,,,,,,,,,,0,,,,,,,,,,,,,,,,,,,,,,,,,,,,,,,,,,,,,29,decar,,,,,349.1926,350.5411,1,0,0.8139,,0,25,25,28,1,REAL,FAKE,,,,,,,,,,,,,,,,,
,,,,,,,,,674fa4a78b9d8a734154456f,spanish,13 or older,"no, only English or Spanish",no,2025-08-12_15h45.05.346,empathy_intonation_perc_control,2024.2.4,Win32,58.82352941,674fa4a78b9d8a734154456f,68817205a84113384fffdfe3,689b9989d9944364faf9f434,,,,,,,,,,,,,1,,,,,,,,,,,,,,,,,,,,,,,,,,,,,,,,,,,,,5,zapato,,,,,350.5425,351.8244,1,1,0.7467,,0,26,26,4,1,REAL,FAKE,,,,,,,,,,,,,,,,,
,,,,,,,,,674fa4a78b9d8a734154456f,spanish,13 or older,"no, only English or Spanish",no,2025-08-12_15h45.05.346,empathy_intonation_perc_control,2024.2.4,Win32,58.82352941,674fa4a78b9d8a734154456f,68817205a84113384fffdfe3,689b9989d9944364faf9f434,,,,,,,,,,,,,1,,,,,,,,,,,,,,,,,,,,,,,,,,,,,,,,,,,,,89,prisa,,,,,351.8259,353.6409,1,1,1.2851,,0,27,27,88,1,REAL,FAKE,,,,,,,,,,,,,,,,,
,,,,,,,,,674fa4a78b9d8a734154456f,spanish,13 or older,"no, only English or Spanish",no,2025-08-12_15h45.05.346,empathy_intonation_perc_control,2024.2.4,Win32,58.82352941,674fa4a78b9d8a734154456f,68817205a84113384fffdfe3,689b9989d9944364faf9f434,,,,,,,,,,,,,1,,,,,,,,,,,,,,,,,,,,,,,,,,,,,,,,,,,,,25,bisagra,,,,,353.6424,355.0242,0,0,0.8471,,0,28,28,24,1,REAL,FAKE,,,,,,,,,,,,,,,,,
,,,,,,,,,674fa4a78b9d8a734154456f,spanish,13 or older,"no, only English or Spanish",no,2025-08-12_15h45.05.346,empathy_intonation_perc_control,2024.2.4,Win32,58.82352941,674fa4a78b9d8a734154456f,68817205a84113384fffdfe3,689b9989d9944364faf9f434,,,,,,,,,,,,,1,,,,,,,,,,,,,,,,,,,,,,,,,,,,,,,,,,,,,90,clavel,,,,,355.0256,356.5242,0,0,0.9692,,0,29,29,89,1,REAL,FAKE,,,,,,,,,,,,,,,,,
,,,,,,,,,674fa4a78b9d8a734154456f,spanish,13 or older,"no, only English or Spanish",no,2025-08-12_15h45.05.346,empathy_intonation_perc_control,2024.2.4,Win32,58.82352941,674fa4a78b9d8a734154456f,68817205a84113384fffdfe3,689b9989d9944364faf9f434,,,,,,,,,,,,,1,,,,,,,,,,,,,,,,,,,,,,,,,,,,,,,,,,,,,52,camisa,,,,,356.5256,357.8577,0,0,0.7965,,0,30,30,51,1,REAL,FAKE,,,,,,,,,,,,,,,,,
,,,,,,,,,674fa4a78b9d8a734154456f,spanish,13 or older,"no, only English or Spanish",no,2025-08-12_15h45.05.346,empathy_intonation_perc_control,2024.2.4,Win32,58.82352941,674fa4a78b9d8a734154456f,68817205a84113384fffdfe3,689b9989d9944364faf9f434,,,,,,,,,,,,,0,,,,,,,,,,,,,,,,,,,,,,,,,,,,,,,,,,,,,47,cartinar,,,,,357.8592,360.4073,0,1,2.0185,,0,31,31,46,1,REAL,FAKE,,,,,,,,,,,,,,,,,
,,,,,,,,,674fa4a78b9d8a734154456f,spanish,13 or older,"no, only English or Spanish",no,2025-08-12_15h45.05.346,empathy_intonation_perc_control,2024.2.4,Win32,58.82352941,674fa4a78b9d8a734154456f,68817205a84113384fffdfe3,689b9989d9944364faf9f434,,,,,,,,,,,,,1,,,,,,,,,,,,,,,,,,,,,,,,,,,,,,,,,,,,,91,click the 1 key.,,,,,360.4094,362.5073,1,1,1.5636,,0,32,32,90,1,REAL,FAKE,,,,,,,,,,,,,,,,,
,,,,,,,,,674fa4a78b9d8a734154456f,spanish,13 or older,"no, only English or Spanish",no,2025-08-12_15h45.05.346,empathy_intonation_perc_control,2024.2.4,Win32,58.82352941,674fa4a78b9d8a734154456f,68817205a84113384fffdfe3,689b9989d9944364faf9f434,,,,,,,,,,,,,0,,,,,,,,,,,,,,,,,,,,,,,,,,,,,,,,,,,,,27,acutación,,,,,362.5094,363.9408,0,1,0.8958,,0,33,33,26,1,REAL,FAKE,,,,,,,,,,,,,,,,,
,,,,,,,,,674fa4a78b9d8a734154456f,spanish,13 or older,"no, only English or Spanish",no,2025-08-12_15h45.05.346,empathy_intonation_perc_control,2024.2.4,Win32,58.82352941,674fa4a78b9d8a734154456f,68817205a84113384fffdfe3,689b9989d9944364faf9f434,,,,,,,,,,,,,0,,,,,,,,,,,,,,,,,,,,,,,,,,,,,,,,,,,,,42,cadallo,,,,,363.9421,365.374,1,0,0.8964,,0,34,34,41,1,REAL,FAKE,,,,,,,,,,,,,,,,,
,,,,,,,,,674fa4a78b9d8a734154456f,spanish,13 or older,"no, only English or Spanish",no,2025-08-12_15h45.05.346,empathy_intonation_perc_control,2024.2.4,Win32,58.82352941,674fa4a78b9d8a734154456f,68817205a84113384fffdfe3,689b9989d9944364faf9f434,,,,,,,,,,,,,0,,,,,,,,,,,,,,,,,,,,,,,,,,,,,,,,,,,,,18,arsa,,,,,365.3755,367.224,0,1,1.3212,,0,35,35,17,1,REAL,FAKE,,,,,,,,,,,,,,,,,
,,,,,,,,,674fa4a78b9d8a734154456f,spanish,13 or older,"no, only English or Spanish",no,2025-08-12_15h45.05.346,empathy_intonation_perc_control,2024.2.4,Win32,58.82352941,674fa4a78b9d8a734154456f,68817205a84113384fffdfe3,689b9989d9944364faf9f434,,,,,,,,,,,,,0,,,,,,,,,,,,,,,,,,,,,,,,,,,,,,,,,,,,,33,pauca,,,,,367.2254,368.6402,0,1,0.8891,,0,36,36,32,1,REAL,FAKE,,,,,,,,,,,,,,,,,
,,,,,,,,,674fa4a78b9d8a734154456f,spanish,13 or older,"no, only English or Spanish",no,2025-08-12_15h45.05.346,empathy_intonation_perc_control,2024.2.4,Win32,58.82352941,674fa4a78b9d8a734154456f,68817205a84113384fffdfe3,689b9989d9944364faf9f434,,,,,,,,,,,,,1,,,,,,,,,,,,,,,,,,,,,,,,,,,,,,,,,,,,,77,tiburón,,,,,368.6418,369.9906,1,1,0.8139,,0,37,37,76,1,REAL,FAKE,,,,,,,,,,,,,,,,,
,,,,,,,,,674fa4a78b9d8a734154456f,spanish,13 or older,"no, only English or Spanish",no,2025-08-12_15h45.05.346,empathy_intonation_perc_control,2024.2.4,Win32,58.82352941,674fa4a78b9d8a734154456f,68817205a84113384fffdfe3,689b9989d9944364faf9f434,,,,,,,,,,,,,1,,,,,,,,,,,,,,,,,,,,,,,,,,,,,,,,,,,,,68,alegre,,,,,369.9919,371.7075,0,0,1.182,,0,38,38,67,1,REAL,FAKE,,,,,,,,,,,,,,,,,
,,,,,,,,,674fa4a78b9d8a734154456f,spanish,13 or older,"no, only English or Spanish",no,2025-08-12_15h45.05.346,empathy_intonation_perc_control,2024.2.4,Win32,58.82352941,674fa4a78b9d8a734154456f,68817205a84113384fffdfe3,689b9989d9944364faf9f434,,,,,,,,,,,,,1,,,,,,,,,,,,,,,,,,,,,,,,,,,,,,,,,,,,,36,loro,,,,,371.7088,372.9739,0,0,0.7295,,0,39,39,35,1,REAL,FAKE,,,,,,,,,,,,,,,,,
,,,,,,,,,674fa4a78b9d8a734154456f,spanish,13 or older,"no, only English or Spanish",no,2025-08-12_15h45.05.346,empathy_intonation_perc_control,2024.2.4,Win32,58.82352941,674fa4a78b9d8a734154456f,68817205a84113384fffdfe3,689b9989d9944364faf9f434,,,,,,,,,,,,,1,,,,,,,,,,,,,,,,,,,,,,,,,,,,,,,,,,,,,28,merodear,,,,,372.9755,374.624,0,0,1.1133,,0,40,40,27,1,REAL,FAKE,,,,,,,,,,,,,,,,,
,,,,,,,,,674fa4a78b9d8a734154456f,spanish,13 or older,"no, only English or Spanish",no,2025-08-12_15h45.05.346,empathy_intonation_perc_control,2024.2.4,Win32,58.82352941,674fa4a78b9d8a734154456f,68817205a84113384fffdfe3,689b9989d9944364faf9f434,,,,,,,,,,,,,1,,,,,,,,,,,,,,,,,,,,,,,,,,,,,,,,,,,,,45,jilguero,,,,,374.6254,375.8073,0,0,0.6477,,0,41,41,44,1,REAL,FAKE,,,,,,,,,,,,,,,,,
,,,,,,,,,674fa4a78b9d8a734154456f,spanish,13 or older,"no, only English or Spanish",no,2025-08-12_15h45.05.346,empathy_intonation_perc_control,2024.2.4,Win32,58.82352941,674fa4a78b9d8a734154456f,68817205a84113384fffdfe3,689b9989d9944364faf9f434,,,,,,,,,,,,,0,,,,,,,,,,,,,,,,,,,,,,,,,,,,,,,,,,,,,23,lampera,,,,,375.8088,381.0572,1,0,4.7126,,0,42,42,22,1,REAL,FAKE,,,,,,,,,,,,,,,,,
,,,,,,,,,674fa4a78b9d8a734154456f,spanish,13 or older,"no, only English or Spanish",no,2025-08-12_15h45.05.346,empathy_intonation_perc_control,2024.2.4,Win32,58.82352941,674fa4a78b9d8a734154456f,68817205a84113384fffdfe3,689b9989d9944364faf9f434,,,,,,,,,,,,,0,,,,,,,,,,,,,,,,,,,,,,,,,,,,,,,,,,,,,35,rompido,,,,,381.0587,382.6406,1,0,1.0487,,0,43,43,34,1,REAL,FAKE,,,,,,,,,,,,,,,,,
,,,,,,,,,674fa4a78b9d8a734154456f,spanish,13 or older,"no, only English or Spanish",no,2025-08-12_15h45.05.346,empathy_intonation_perc_control,2024.2.4,Win32,58.82352941,674fa4a78b9d8a734154456f,68817205a84113384fffdfe3,689b9989d9944364faf9f434,,,,,,,,,,,,,1,,,,,,,,,,,,,,,,,,,,,,,,,,,,,,,,,,,,,22,lacayo,,,,,382.6421,384.2906,0,0,1.1257,,0,44,44,21,1,REAL,FAKE,,,,,,,,,,,,,,,,,
,,,,,,,,,674fa4a78b9d8a734154456f,spanish,13 or older,"no, only English or Spanish",no,2025-08-12_15h45.05.346,empathy_intonation_perc_control,2024.2.4,Win32,58.82352941,674fa4a78b9d8a734154456f,68817205a84113384fffdfe3,689b9989d9944364faf9f434,,,,,,,,,,,,,0,,,,,,,,,,,,,,,,,,,,,,,,,,,,,,,,,,,,,17,floroso,,,,,384.2921,385.5229,0,1,0.7066,,0,45,45,16,1,REAL,FAKE,,,,,,,,,,,,,,,,,
,,,,,,,,,674fa4a78b9d8a734154456f,spanish,13 or older,"no, only English or Spanish",no,2025-08-12_15h45.05.346,empathy_intonation_perc_control,2024.2.4,Win32,58.82352941,674fa4a78b9d8a734154456f,68817205a84113384fffdfe3,689b9989d9944364faf9f434,,,,,,,,,,,,,0,,,,,,,,,,,,,,,,,,,,,,,,,,,,,,,,,,,,,58,plaudir,,,,,385.5244,386.7566,0,1,0.7068,,0,46,46,57,1,REAL,FAKE,,,,,,,,,,,,,,,,,
,,,,,,,,,674fa4a78b9d8a734154456f,spanish,13 or older,"no, only English or Spanish",no,2025-08-12_15h45.05.346,empathy_intonation_perc_control,2024.2.4,Win32,58.82352941,674fa4a78b9d8a734154456f,68817205a84113384fffdfe3,689b9989d9944364faf9f434,,,,,,,,,,,,,1,,,,,,,,,,,,,,,,,,,,,,,,,,,,,,,,,,,,,6,tergiversar,,,,,386.758,388.7236,0,0,1.4316,,0,47,47,5,1,REAL,FAKE,,,,,,,,,,,,,,,,,
,,,,,,,,,674fa4a78b9d8a734154456f,spanish,13 or older,"no, only English or Spanish",no,2025-08-12_15h45.05.346,empathy_intonation_perc_control,2024.2.4,Win32,58.82352941,674fa4a78b9d8a734154456f,68817205a84113384fffdfe3,689b9989d9944364faf9f434,,,,,,,,,,,,,1,,,,,,,,,,,,,,,,,,,,,,,,,,,,,,,,,,,,,86,barato,,,,,388.7251,389.8568,1,1,0.5962,,0,48,48,85,1,REAL,FAKE,,,,,,,,,,,,,,,,,
,,,,,,,,,674fa4a78b9d8a734154456f,spanish,13 or older,"no, only English or Spanish",no,2025-08-12_15h45.05.346,empathy_intonation_perc_control,2024.2.4,Win32,58.82352941,674fa4a78b9d8a734154456f,68817205a84113384fffdfe3,689b9989d9944364faf9f434,,,,,,,,,,,,,0,,,,,,,,,,,,,,,,,,,,,,,,,,,,,,,,,,,,,87,grodo,,,,,389.8586,391.7402,0,1,1.346,,0,49,49,86,1,REAL,FAKE,,,,,,,,,,,,,,,,,
,,,,,,,,,674fa4a78b9d8a734154456f,spanish,13 or older,"no, only English or Spanish",no,2025-08-12_15h45.05.346,empathy_intonation_perc_control,2024.2.4,Win32,58.82352941,674fa4a78b9d8a734154456f,68817205a84113384fffdfe3,689b9989d9944364faf9f434,,,,,,,,,,,,,1,,,,,,,,,,,,,,,,,,,,,,,,,,,,,,,,,,,,,24,látigo,,,,,391.7423,393.1402,1,1,0.8614,,0,50,50,23,1,REAL,FAKE,,,,,,,,,,,,,,,,,
,,,,,,,,,674fa4a78b9d8a734154456f,spanish,13 or older,"no, only English or Spanish",no,2025-08-12_15h45.05.346,empathy_intonation_perc_control,2024.2.4,Win32,58.82352941,674fa4a78b9d8a734154456f,68817205a84113384fffdfe3,689b9989d9944364faf9f434,,,,,,,,,,,,,1,,,,,,,,,,,,,,,,,,,,,,,,,,,,,,,,,,,,,9,hacha,,,,,393.1417,395.1067,0,0,1.4345,,0,51,51,8,1,REAL,FAKE,,,,,,,,,,,,,,,,,
,,,,,,,,,674fa4a78b9d8a734154456f,spanish,13 or older,"no, only English or Spanish",no,2025-08-12_15h45.05.346,empathy_intonation_perc_control,2024.2.4,Win32,58.82352941,674fa4a78b9d8a734154456f,68817205a84113384fffdfe3,689b9989d9944364faf9f434,,,,,,,,,,,,,0,,,,,,,,,,,,,,,,,,,,,,,,,,,,,,,,,,,,,19,brecedad,,,,,395.1079,397.5237,0,1,1.8807,,0,52,52,18,1,REAL,FAKE,,,,,,,,,,,,,,,,,
,,,,,,,,,674fa4a78b9d8a734154456f,spanish,13 or older,"no, only English or Spanish",no,2025-08-12_15h45.05.346,empathy_intonation_perc_control,2024.2.4,Win32,58.82352941,674fa4a78b9d8a734154456f,68817205a84113384fffdfe3,689b9989d9944364faf9f434,,,,,,,,,,,,,0,,,,,,,,,,,,,,,,,,,,,,,,,,,,,,,,,,,,,72,pemición,,,,,397.5251,399.1737,1,0,1.1202,,0,53,53,71,1,REAL,FAKE,,,,,,,,,,,,,,,,,
,,,,,,,,,674fa4a78b9d8a734154456f,spanish,13 or older,"no, only English or Spanish",no,2025-08-12_15h45.05.346,empathy_intonation_perc_control,2024.2.4,Win32,58.82352941,674fa4a78b9d8a734154456f,68817205a84113384fffdfe3,689b9989d9944364faf9f434,,,,,,,,,,,,,1,,,,,,,,,,,,,,,,,,,,,,,,,,,,,,,,,,,,,14,yunque,,,,,399.1751,400.59,0,0,0.8845,,0,54,54,13,1,REAL,FAKE,,,,,,,,,,,,,,,,,
,,,,,,,,,674fa4a78b9d8a734154456f,spanish,13 or older,"no, only English or Spanish",no,2025-08-12_15h45.05.346,empathy_intonation_perc_control,2024.2.4,Win32,58.82352941,674fa4a78b9d8a734154456f,68817205a84113384fffdfe3,689b9989d9944364faf9f434,,,,,,,,,,,,,1,,,,,,,,,,,,,,,,,,,,,,,,,,,,,,,,,,,,,73,hervidor,,,,,400.5914,403.34,0,0,2.2194,,0,55,55,72,1,REAL,FAKE,,,,,,,,,,,,,,,,,
,,,,,,,,,674fa4a78b9d8a734154456f,spanish,13 or older,"no, only English or Spanish",no,2025-08-12_15h45.05.346,empathy_intonation_perc_control,2024.2.4,Win32,58.82352941,674fa4a78b9d8a734154456f,68817205a84113384fffdfe3,689b9989d9944364faf9f434,,,,,,,,,,,,,1,,,,,,,,,,,,,,,,,,,,,,,,,,,,,,,,,,,,,59,besar,,,,,403.3415,405.306,0,0,1.4392,,0,56,56,58,1,REAL,FAKE,,,,,,,,,,,,,,,,,
,,,,,,,,,674fa4a78b9d8a734154456f,spanish,13 or older,"no, only English or Spanish",no,2025-08-12_15h45.05.346,empathy_intonation_perc_control,2024.2.4,Win32,58.82352941,674fa4a78b9d8a734154456f,68817205a84113384fffdfe3,689b9989d9944364faf9f434,,,,,,,,,,,,,1,,,,,,,,,,,,,,,,,,,,,,,,,,,,,,,,,,,,,71,polvoriento,,,,,405.3073,406.6561,0,0,0.8137,,0,57,57,70,1,REAL,FAKE,,,,,,,,,,,,,,,,,
,,,,,,,,,674fa4a78b9d8a734154456f,spanish,13 or older,"no, only English or Spanish",no,2025-08-12_15h45.05.346,empathy_intonation_perc_control,2024.2.4,Win32,58.82352941,674fa4a78b9d8a734154456f,68817205a84113384fffdfe3,689b9989d9944364faf9f434,,,,,,,,,,,,,0,,,,,,,,,,,,,,,,,,,,,,,,,,,,,,,,,,,,,50,flamida,,,,,406.6576,407.7898,1,0,0.6069,,0,58,58,49,1,REAL,FAKE,,,,,,,,,,,,,,,,,
,,,,,,,,,674fa4a78b9d8a734154456f,spanish,13 or older,"no, only English or Spanish",no,2025-08-12_15h45.05.346,empathy_intonation_perc_control,2024.2.4,Win32,58.82352941,674fa4a78b9d8a734154456f,68817205a84113384fffdfe3,689b9989d9944364faf9f434,,,,,,,,,,,,,1,,,,,,,,,,,,,,,,,,,,,,,,,,,,,,,,,,,,,51,candado,,,,,407.7913,409.1567,1,1,0.8322,,0,59,59,50,1,REAL,FAKE,,,,,,,,,,,,,,,,,
,,,,,,,,,674fa4a78b9d8a734154456f,spanish,13 or older,"no, only English or Spanish",no,2025-08-12_15h45.05.346,empathy_intonation_perc_control,2024.2.4,Win32,58.82352941,674fa4a78b9d8a734154456f,68817205a84113384fffdfe3,689b9989d9944364faf9f434,,,,,,,,,,,,,1,,,,,,,,,,,,,,,,,,,,,,,,,,,,,,,,,,,,,62,flaco,,,,,409.1579,410.5063,1,1,0.8203,,0,60,60,61,1,REAL,FAKE,,,,,,,,,,,,,,,,,
,,,,,,,,,674fa4a78b9d8a734154456f,spanish,13 or older,"no, only English or Spanish",no,2025-08-12_15h45.05.346,empathy_intonation_perc_control,2024.2.4,Win32,58.82352941,674fa4a78b9d8a734154456f,68817205a84113384fffdfe3,689b9989d9944364faf9f434,,,,,,,,,,,,,1,,,,,,,,,,,,,,,,,,,,,,,,,,,,,,,,,,,,,13,helar,,,,,410.5076,411.6732,0,0,0.6347,,0,61,61,12,1,REAL,FAKE,,,,,,,,,,,,,,,,,
,,,,,,,,,674fa4a78b9d8a734154456f,spanish,13 or older,"no, only English or Spanish",no,2025-08-12_15h45.05.346,empathy_intonation_perc_control,2024.2.4,Win32,58.82352941,674fa4a78b9d8a734154456f,68817205a84113384fffdfe3,689b9989d9944364faf9f434,,,,,,,,,,,,,1,,,,,,,,,,,,,,,,,,,,,,,,,,,,,,,,,,,,,55,nevar,,,,,411.6746,413.5731,0,0,1.3668,,0,62,62,54,1,REAL,FAKE,,,,,,,,,,,,,,,,,
,,,,,,,,,674fa4a78b9d8a734154456f,spanish,13 or older,"no, only English or Spanish",no,2025-08-12_15h45.05.346,empathy_intonation_perc_control,2024.2.4,Win32,58.82352941,674fa4a78b9d8a734154456f,68817205a84113384fffdfe3,689b9989d9944364faf9f434,,,,,,,,,,,,,1,,,,,,,,,,,,,,,,,,,,,,,,,,,,,,,,,,,,,83,guante,,,,,413.5743,415.2226,1,1,1.1242,,0,63,63,82,1,REAL,FAKE,,,,,,,,,,,,,,,,,
,,,,,,,,,674fa4a78b9d8a734154456f,spanish,13 or older,"no, only English or Spanish",no,2025-08-12_15h45.05.346,empathy_intonation_perc_control,2024.2.4,Win32,58.82352941,674fa4a78b9d8a734154456f,68817205a84113384fffdfe3,689b9989d9944364faf9f434,,,,,,,,,,,,,0,,,,,,,,,,,,,,,,,,,,,,,,,,,,,,,,,,,,,4,batillón,,,,,415.2241,417.023,1,0,1.2626,,0,64,64,3,1,REAL,FAKE,,,,,,,,,,,,,,,,,
,,,,,,,,,674fa4a78b9d8a734154456f,spanish,13 or older,"no, only English or Spanish",no,2025-08-12_15h45.05.346,empathy_intonation_perc_control,2024.2.4,Win32,58.82352941,674fa4a78b9d8a734154456f,68817205a84113384fffdfe3,689b9989d9944364faf9f434,,,,,,,,,,,,,1,,,,,,,,,,,,,,,,,,,,,,,,,,,,,,,,,,,,,38,estornudar,,,,,417.0244,418.9064,1,1,1.3487,,0,65,65,37,1,REAL,FAKE,,,,,,,,,,,,,,,,,
,,,,,,,,,674fa4a78b9d8a734154456f,spanish,13 or older,"no, only English or Spanish",no,2025-08-12_15h45.05.346,empathy_intonation_perc_control,2024.2.4,Win32,58.82352941,674fa4a78b9d8a734154456f,68817205a84113384fffdfe3,689b9989d9944364faf9f434,,,,,,,,,,,,,1,,,,,,,,,,,,,,,,,,,,,,,,,,,,,,,,,,,,,80,hormiga,,,,,418.9078,420.4563,0,0,1.0139,,0,66,66,79,1,REAL,FAKE,,,,,,,,,,,,,,,,,
,,,,,,,,,674fa4a78b9d8a734154456f,spanish,13 or older,"no, only English or Spanish",no,2025-08-12_15h45.05.346,empathy_intonation_perc_control,2024.2.4,Win32,58.82352941,674fa4a78b9d8a734154456f,68817205a84113384fffdfe3,689b9989d9944364faf9f434,,,,,,,,,,,,,0,,,,,,,,,,,,,,,,,,,,,,,,,,,,,,,,,,,,,16,abracer,,,,,420.4576,422.1726,0,1,1.1832,,0,67,67,15,1,REAL,FAKE,,,,,,,,,,,,,,,,,
,,,,,,,,,674fa4a78b9d8a734154456f,spanish,13 or older,"no, only English or Spanish",no,2025-08-12_15h45.05.346,empathy_intonation_perc_control,2024.2.4,Win32,58.82352941,674fa4a78b9d8a734154456f,68817205a84113384fffdfe3,689b9989d9944364faf9f434,,,,,,,,,,,,,0,,,,,,,,,,,,,,,,,,,,,,,,,,,,,,,,,,,,,79,tropaje,,,,,422.1736,424.2063,0,1,1.5021,,0,68,68,78,1,REAL,FAKE,,,,,,,,,,,,,,,,,
,,,,,,,,,674fa4a78b9d8a734154456f,spanish,13 or older,"no, only English or Spanish",no,2025-08-12_15h45.05.346,empathy_intonation_perc_control,2024.2.4,Win32,58.82352941,674fa4a78b9d8a734154456f,68817205a84113384fffdfe3,689b9989d9944364faf9f434,,,,,,,,,,,,,1,,,,,,,,,,,,,,,,,,,,,,,,,,,,,,,,,,,,,81,pozo,,,,,424.2077,425.7395,0,0,0.9959,,0,69,69,80,1,REAL,FAKE,,,,,,,,,,,,,,,,,
,,,,,,,,,674fa4a78b9d8a734154456f,spanish,13 or older,"no, only English or Spanish",no,2025-08-12_15h45.05.346,empathy_intonation_perc_control,2024.2.4,Win32,58.82352941,674fa4a78b9d8a734154456f,68817205a84113384fffdfe3,689b9989d9944364faf9f434,,,,,,,,,,,,,0,,,,,,,,,,,,,,,,,,,,,,,,,,,,,,,,,,,,,8,cadeña,,,,,425.7415,427.0896,1,0,0.8124,,0,70,70,7,1,REAL,FAKE,,,,,,,,,,,,,,,,,
,,,,,,,,,674fa4a78b9d8a734154456f,spanish,13 or older,"no, only English or Spanish",no,2025-08-12_15h45.05.346,empathy_intonation_perc_control,2024.2.4,Win32,58.82352941,674fa4a78b9d8a734154456f,68817205a84113384fffdfe3,689b9989d9944364faf9f434,,,,,,,,,,,,,0,,,,,,,,,,,,,,,,,,,,,,,,,,,,,,,,,,,,,63,esposante,,,,,427.091,428.3897,1,0,0.7639,,0,71,71,62,1,REAL,FAKE,,,,,,,,,,,,,,,,,
,,,,,,,,,674fa4a78b9d8a734154456f,spanish,13 or older,"no, only English or Spanish",no,2025-08-12_15h45.05.346,empathy_intonation_perc_control,2024.2.4,Win32,58.82352941,674fa4a78b9d8a734154456f,68817205a84113384fffdfe3,689b9989d9944364faf9f434,,,,,,,,,,,,,1,,,,,,,,,,,,,,,,,,,,,,,,,,,,,,,,,,,,,12,asesinato,,,,,428.3909,430.1728,1,1,1.2503,,0,72,72,11,1,REAL,FAKE,,,,,,,,,,,,,,,,,
,,,,,,,,,674fa4a78b9d8a734154456f,spanish,13 or older,"no, only English or Spanish",no,2025-08-12_15h45.05.346,empathy_intonation_perc_control,2024.2.4,Win32,58.82352941,674fa4a78b9d8a734154456f,68817205a84113384fffdfe3,689b9989d9944364faf9f434,,,,,,,,,,,,,1,,,,,,,,,,,,,,,,,,,,,,,,,,,,,,,,,,,,,20,ávido,,,,,430.1741,431.9228,1,1,1.214,,0,73,73,19,1,REAL,FAKE,,,,,,,,,,,,,,,,,
,,,,,,,,,674fa4a78b9d8a734154456f,spanish,13 or older,"no, only English or Spanish",no,2025-08-12_15h45.05.346,empathy_intonation_perc_control,2024.2.4,Win32,58.82352941,674fa4a78b9d8a734154456f,68817205a84113384fffdfe3,689b9989d9944364faf9f434,,,,,,,,,,,,,1,,,,,,,,,,,,,,,,,,,,,,,,,,,,,,,,,,,,,11,cenefa,,,,,431.9242,433.4722,0,0,1.023,,0,74,74,10,1,REAL,FAKE,,,,,,,,,,,,,,,,,
,,,,,,,,,674fa4a78b9d8a734154456f,spanish,13 or older,"no, only English or Spanish",no,2025-08-12_15h45.05.346,empathy_intonation_perc_control,2024.2.4,Win32,58.82352941,674fa4a78b9d8a734154456f,68817205a84113384fffdfe3,689b9989d9944364faf9f434,,,,,,,,,,,,,1,,,,,,,,,,,,,,,,,,,,,,,,,,,,,,,,,,,,,76,atar,,,,,433.4736,434.7061,1,1,0.701,,0,75,75,75,1,REAL,FAKE,,,,,,,,,,,,,,,,,
,,,,,,,,,674fa4a78b9d8a734154456f,spanish,13 or older,"no, only English or Spanish",no,2025-08-12_15h45.05.346,empathy_intonation_perc_control,2024.2.4,Win32,58.82352941,674fa4a78b9d8a734154456f,68817205a84113384fffdfe3,689b9989d9944364faf9f434,,,,,,,,,,,,,1,,,,,,,,,,,,,,,,,,,,,,,,,,,,,,,,,,,,,34,aviso,,,,,434.7075,436.1228,1,1,0.8807,,0,76,76,33,1,REAL,FAKE,,,,,,,,,,,,,,,,,
,,,,,,,,,674fa4a78b9d8a734154456f,spanish,13 or older,"no, only English or Spanish",no,2025-08-12_15h45.05.346,empathy_intonation_perc_control,2024.2.4,Win32,58.82352941,674fa4a78b9d8a734154456f,68817205a84113384fffdfe3,689b9989d9944364faf9f434,,,,,,,,,,,,,0,,,,,,,,,,,,,,,,,,,,,,,,,,,,,,,,,,,,,21,capillo,,,,,436.1241,437.4722,1,0,0.8222,,0,77,77,20,1,REAL,FAKE,,,,,,,,,,,,,,,,,
,,,,,,,,,674fa4a78b9d8a734154456f,spanish,13 or older,"no, only English or Spanish",no,2025-08-12_15h45.05.346,empathy_intonation_perc_control,2024.2.4,Win32,58.82352941,674fa4a78b9d8a734154456f,68817205a84113384fffdfe3,689b9989d9944364faf9f434,,,,,,,,,,,,,0,,,,,,,,,,,,,,,,,,,,,,,,,,,,,,,,,,,,,32,fatacidad,,,,,437.4735,438.7227,0,1,0.7135,,0,78,78,31,1,REAL,FAKE,,,,,,,,,,,,,,,,,
,,,,,,,,,674fa4a78b9d8a734154456f,spanish,13 or older,"no, only English or Spanish",no,2025-08-12_15h45.05.346,empathy_intonation_perc_control,2024.2.4,Win32,58.82352941,674fa4a78b9d8a734154456f,68817205a84113384fffdfe3,689b9989d9944364faf9f434,,,,,,,,,,,,,1,,,,,,,,,,,,,,,,,,,,,,,,,,,,,,,,,,,,,15,regar,,,,,438.7241,440.356,0,0,1.1006,,0,79,79,14,1,REAL,FAKE,,,,,,,,,,,,,,,,,
,,,,,,,,,674fa4a78b9d8a734154456f,spanish,13 or older,"no, only English or Spanish",no,2025-08-12_15h45.05.346,empathy_intonation_perc_control,2024.2.4,Win32,58.82352941,674fa4a78b9d8a734154456f,68817205a84113384fffdfe3,689b9989d9944364faf9f434,,,,,,,,,,,,,1,,,,,,,,,,,,,,,,,,,,,,,,,,,,,,,,,,,,,43,canela,,,,,440.3574,441.8059,0,0,0.9126,,0,80,80,42,1,REAL,FAKE,,,,,,,,,,,,,,,,,
,,,,,,,,,674fa4a78b9d8a734154456f,spanish,13 or older,"no, only English or Spanish",no,2025-08-12_15h45.05.346,empathy_intonation_perc_control,2024.2.4,Win32,58.82352941,674fa4a78b9d8a734154456f,68817205a84113384fffdfe3,689b9989d9944364faf9f434,,,,,,,,,,,,,1,,,,,,,,,,,,,,,,,,,,,,,,,,,,,,,,,,,,,57,tacaño,,,,,441.8073,443.7726,1,1,1.4332,,0,81,81,56,1,REAL,FAKE,,,,,,,,,,,,,,,,,
,,,,,,,,,674fa4a78b9d8a734154456f,spanish,13 or older,"no, only English or Spanish",no,2025-08-12_15h45.05.346,empathy_intonation_perc_control,2024.2.4,Win32,58.82352941,674fa4a78b9d8a734154456f,68817205a84113384fffdfe3,689b9989d9944364faf9f434,,,,,,,,,,,,,1,,,,,,,,,,,,,,,,,,,,,,,,,,,,,,,,,,,,,48,ladrón,,,,,443.774,445.5559,0,0,1.246,,0,82,82,47,1,REAL,FAKE,,,,,,,,,,,,,,,,,
,,,,,,,,,674fa4a78b9d8a734154456f,spanish,13 or older,"no, only English or Spanish",no,2025-08-12_15h45.05.346,empathy_intonation_perc_control,2024.2.4,Win32,58.82352941,674fa4a78b9d8a734154456f,68817205a84113384fffdfe3,689b9989d9944364faf9f434,,,,,,,,,,,,,1,,,,,,,,,,,,,,,,,,,,,,,,,,,,,,,,,,,,,75,yacer,,,,,445.5573,446.8393,0,0,0.7532,,0,83,83,74,1,REAL,FAKE,,,,,,,,,,,,,,,,,
,,,,,,,,,674fa4a78b9d8a734154456f,spanish,13 or older,"no, only English or Spanish",no,2025-08-12_15h45.05.346,empathy_intonation_perc_control,2024.2.4,Win32,58.82352941,674fa4a78b9d8a734154456f,68817205a84113384fffdfe3,689b9989d9944364faf9f434,,,,,,,,,,,,,1,,,,,,,,,,,,,,,,,,,,,,,,,,,,,,,,,,,,,69,engatusar,,,,,446.8406,448.6225,0,0,1.2459,,0,84,84,68,1,REAL,FAKE,,,,,,,,,,,,,,,,,
,,,,,,,,,674fa4a78b9d8a734154456f,spanish,13 or older,"no, only English or Spanish",no,2025-08-12_15h45.05.346,empathy_intonation_perc_control,2024.2.4,Win32,58.82352941,674fa4a78b9d8a734154456f,68817205a84113384fffdfe3,689b9989d9944364faf9f434,,,,,,,,,,,,,0,,,,,,,,,,,,,,,,,,,,,,,,,,,,,,,,,,,,,1,terzo,,,,,448.6239,450.5391,1,0,1.3875,,0,85,85,0,1,REAL,FAKE,,,,,,,,,,,,,,,,,
,,,,,,,,,674fa4a78b9d8a734154456f,spanish,13 or older,"no, only English or Spanish",no,2025-08-12_15h45.05.346,empathy_intonation_perc_control,2024.2.4,Win32,58.82352941,674fa4a78b9d8a734154456f,68817205a84113384fffdfe3,689b9989d9944364faf9f434,,,,,,,,,,,,,0,,,,,,,,,,,,,,,,,,,,,,,,,,,,,,,,,,,,,10,antar,,,,,450.5405,451.722,0,1,0.6559,,0,86,86,9,1,REAL,FAKE,,,,,,,,,,,,,,,,,
,,,,,,,,,674fa4a78b9d8a734154456f,spanish,13 or older,"no, only English or Spanish",no,2025-08-12_15h45.05.346,empathy_intonation_perc_control,2024.2.4,Win32,58.82352941,674fa4a78b9d8a734154456f,68817205a84113384fffdfe3,689b9989d9944364faf9f434,,,,,,,,,,,,,1,,,,,,,,,,,,,,,,,,,,,,,,,,,,,,,,,,,,,37,granuja,,,,,451.7236,453.3221,1,1,1.0722,,0,87,87,36,1,REAL,FAKE,,,,,,,,,,,,,,,,,
,,,,,,,,,674fa4a78b9d8a734154456f,spanish,13 or older,"no, only English or Spanish",no,2025-08-12_15h45.05.346,empathy_intonation_perc_control,2024.2.4,Win32,58.82352941,674fa4a78b9d8a734154456f,68817205a84113384fffdfe3,689b9989d9944364faf9f434,,,,,,,,,,,,,1,,,,,,,,,,,,,,,,,,,,,,,,,,,,,,,,,,,,,3,pulmones,,,,,453.3232,454.5723,0,0,0.72,,0,88,88,2,1,REAL,FAKE,,,,,,,,,,,,,,,,,
,,,,,,,,,674fa4a78b9d8a734154456f,spanish,13 or older,"no, only English or Spanish",no,2025-08-12_15h45.05.346,empathy_intonation_perc_control,2024.2.4,Win32,58.82352941,674fa4a78b9d8a734154456f,68817205a84113384fffdfe3,689b9989d9944364faf9f434,,,,,,,,,,,,,0,,,,,,,,,,,,,,,,,,,,,,,,,,,,,,,,,,,,,66,hacido,,,,,454.5737,456.4388,1,0,1.3386,,0,89,89,65,1,REAL,FAKE,,,,,,,,,,,,,,,,,
,,,,,,,,,674fa4a78b9d8a734154456f,spanish,13 or older,"no, only English or Spanish",no,2025-08-12_15h45.05.346,empathy_intonation_perc_control,2024.2.4,Win32,58.82352941,674fa4a78b9d8a734154456f,68817205a84113384fffdfe3,689b9989d9944364faf9f434,,,,,,,,,,,,,1,,,,,,,,,,,,,,,,,,,,,,,,,,,,,,,,,,,,,85,laúd,,,,,456.4407,457.889,0,0,0.9152,,0,90,90,84,1,REAL,FAKE,,,,,,,,,,,,,,,,,
,,,,,,,,,674fa4a78b9d8a734154456f,spanish,13 or older,"no, only English or Spanish",no,2025-08-12_15h45.05.346,empathy_intonation_perc_control,2024.2.4,Win32,58.82352941,674fa4a78b9d8a734154456f,68817205a84113384fffdfe3,689b9989d9944364faf9f434,,,,,,,,,,,,,1,,,,,,,,,,,,,,,,,,,,,,,,,,,,,,,,,,,,,65,bizcocho,,,,,457.8904,459.2888,0,0,0.869,,0,91,91,64,1,REAL,FAKE,,,,,,,,,,,,,,,,,
,,,,,,,,,674fa4a78b9d8a734154456f,spanish,13 or older,"no, only English or Spanish",no,2025-08-12_15h45.05.346,empathy_intonation_perc_control,2024.2.4,Win32,58.82352941,674fa4a78b9d8a734154456f,68817205a84113384fffdfe3,689b9989d9944364faf9f434,,,,,,,,,,,,,,,,,,,,,,,,,,,,,,,,,,,,,,,,,,,,,,,,,,,,,,,,,,,,,,,,,,,,,459.2897,465.4394,,,,,,,,,,,,,,,
,,,,,,,,,674fa4a78b9d8a734154456f,spanish,13 or older,"no, only English or Spanish",no,2025-08-12_15h45.05.346,empathy_intonation_perc_control,2024.2.4,Win32,58.82352941,674fa4a78b9d8a734154456f,68817205a84113384fffdfe3,689b9989d9944364faf9f434,,,,,,,,,,,,,,,,,,,,,,,,,,,1,,,,,,,,,,,,,,,,,,,,,,,,,,,,,,,,,,,,,,,,,,,,465.4551,471.089,slightly agree,0,0,0,0,1,I can easily tell if someone else wants to enter a conversation.,1,0,1,0,,
,,,,,,,,,674fa4a78b9d8a734154456f,spanish,13 or older,"no, only English or Spanish",no,2025-08-12_15h45.05.346,empathy_intonation_perc_control,2024.2.4,Win32,58.82352941,674fa4a78b9d8a734154456f,68817205a84113384fffdfe3,689b9989d9944364faf9f434,,,,,,,,,,,,,,,,,,,,,,,,,,,2,,,,,,,,,,,,,,,,,,,,,,,,,,,,,,,,,,,,,,,,,,,,471.0921,473.7052,slightly agree,0,1,1,1,1,I prefer animals to humans.,0,1,0,0,,
,,,,,,,,,674fa4a78b9d8a734154456f,spanish,13 or older,"no, only English or Spanish",no,2025-08-12_15h45.05.346,empathy_intonation_perc_control,2024.2.4,Win32,58.82352941,674fa4a78b9d8a734154456f,68817205a84113384fffdfe3,689b9989d9944364faf9f434,,,,,,,,,,,,,,,,,,,,,,,,,,,3,,,,,,,,,,,,,,,,,,,,,,,,,,,,,,,,,,,,,,,,,,,,473.708,477.222,strongly disagree,0,2,2,2,1,I try to keep up with the current trends and fashions.,0,1,0,0,,
,,,,,,,,,674fa4a78b9d8a734154456f,spanish,13 or older,"no, only English or Spanish",no,2025-08-12_15h45.05.346,empathy_intonation_perc_control,2024.2.4,Win32,58.82352941,674fa4a78b9d8a734154456f,68817205a84113384fffdfe3,689b9989d9944364faf9f434,,,,,,,,,,,,,,,,,,,,,,,,,,,4,,,,,,,,,,,,,,,,,,,,,,,,,,,,,,,,,,,,,,,,,,,,477.2256,483.5548,slightly agree,0,3,3,3,1,"I find it difficult to explain to others things that I understand easily,   when they don't understand it first time.",1,0,0,1,,
,,,,,,,,,674fa4a78b9d8a734154456f,spanish,13 or older,"no, only English or Spanish",no,2025-08-12_15h45.05.346,empathy_intonation_perc_control,2024.2.4,Win32,58.82352941,674fa4a78b9d8a734154456f,68817205a84113384fffdfe3,689b9989d9944364faf9f434,,,,,,,,,,,,,,,,,,,,,,,,,,,5,,,,,,,,,,,,,,,,,,,,,,,,,,,,,,,,,,,,,,,,,,,,483.5564,485.8385,strongly agree,0,4,4,4,1,I dream most nights.,0,1,0,0,,
,,,,,,,,,674fa4a78b9d8a734154456f,spanish,13 or older,"no, only English or Spanish",no,2025-08-12_15h45.05.346,empathy_intonation_perc_control,2024.2.4,Win32,58.82352941,674fa4a78b9d8a734154456f,68817205a84113384fffdfe3,689b9989d9944364faf9f434,,,,,,,,,,,,,,,,,,,,,,,,,,,6,,,,,,,,,,,,,,,,,,,,,,,,,,,,,,,,,,,,,,,,,,,,485.8409,488.4048,slightly agree,0,5,5,5,1,I really enjoy caring for other people.,1,0,1,0,,
,,,,,,,,,674fa4a78b9d8a734154456f,spanish,13 or older,"no, only English or Spanish",no,2025-08-12_15h45.05.346,empathy_intonation_perc_control,2024.2.4,Win32,58.82352941,674fa4a78b9d8a734154456f,68817205a84113384fffdfe3,689b9989d9944364faf9f434,,,,,,,,,,,,,,,,,,,,,,,,,,,7,,,,,,,,,,,,,,,,,,,,,,,,,,,,,,,,,,,,,,,,,,,,488.4073,491.8551,slightly disagree,0,6,6,6,1,I try to solve my own problems rather than discussing them with others.,0,1,0,0,,
,,,,,,,,,674fa4a78b9d8a734154456f,spanish,13 or older,"no, only English or Spanish",no,2025-08-12_15h45.05.346,empathy_intonation_perc_control,2024.2.4,Win32,58.82352941,674fa4a78b9d8a734154456f,68817205a84113384fffdfe3,689b9989d9944364faf9f434,,,,,,,,,,,,,,,,,,,,,,,,,,,8,,,,,,,,,,,,,,,,,,,,,,,,,,,,,,,,,,,,,,,,,,,,491.857,495.7049,slightly disagree,0,7,7,7,1,I find it hard to know what to do in a social situation.,1,0,0,1,,
,,,,,,,,,674fa4a78b9d8a734154456f,spanish,13 or older,"no, only English or Spanish",no,2025-08-12_15h45.05.346,empathy_intonation_perc_control,2024.2.4,Win32,58.82352941,674fa4a78b9d8a734154456f,68817205a84113384fffdfe3,689b9989d9944364faf9f434,,,,,,,,,,,,,,,,,,,,,,,,,,,9,,,,,,,,,,,,,,,,,,,,,,,,,,,,,,,,,,,,,,,,,,,,495.7069,498.6882,slightly disagree,0,8,8,8,1,I am at my best first thing in the morning.,0,1,0,0,,
,,,,,,,,,674fa4a78b9d8a734154456f,spanish,13 or older,"no, only English or Spanish",no,2025-08-12_15h45.05.346,empathy_intonation_perc_control,2024.2.4,Win32,58.82352941,674fa4a78b9d8a734154456f,68817205a84113384fffdfe3,689b9989d9944364faf9f434,,,,,,,,,,,,,,,,,,,,,,,,,,,10,,,,,,,,,,,,,,,,,,,,,,,,,,,,,,,,,,,,,,,,,,,,498.6908,503.7942,strongly disagree,0,9,9,9,1,People often tell me that I went too far in driving my point home in a discussion.,1,0,0,1,,
,,,,,,,,,674fa4a78b9d8a734154456f,spanish,13 or older,"no, only English or Spanish",no,2025-08-12_15h45.05.346,empathy_intonation_perc_control,2024.2.4,Win32,58.82352941,674fa4a78b9d8a734154456f,68817205a84113384fffdfe3,689b9989d9944364faf9f434,,,,,,,,,,,,,,,,,,,,,,,,,,,11,,,,,,,,,,,,,,,,,,,,,,,,,,,,,,,,,,,,,,,,,,,,503.7959,508.2547,strongly disagree,0,10,10,10,1,It doesn't bother me too much if I am late meeting a friend.,1,0,0,1,,
,,,,,,,,,674fa4a78b9d8a734154456f,spanish,13 or older,"no, only English or Spanish",no,2025-08-12_15h45.05.346,empathy_intonation_perc_control,2024.2.4,Win32,58.82352941,674fa4a78b9d8a734154456f,68817205a84113384fffdfe3,689b9989d9944364faf9f434,,,,,,,,,,,,,,,,,,,,,,,,,,,12,,,,,,,,,,,,,,,,,,,,,,,,,,,,,,,,,,,,,,,,,,,,508.2573,512.638,slightly disagree,0,11,11,11,1,"Friendships and relationships are just too difficult, so I tend not to 
  bother with them.",1,0,0,1,,
,,,,,,,,,674fa4a78b9d8a734154456f,spanish,13 or older,"no, only English or Spanish",no,2025-08-12_15h45.05.346,empathy_intonation_perc_control,2024.2.4,Win32,58.82352941,674fa4a78b9d8a734154456f,68817205a84113384fffdfe3,689b9989d9944364faf9f434,,,,,,,,,,,,,,,,,,,,,,,,,,,13,,,,,,,,,,,,,,,,,,,,,,,,,,,,,,,,,,,,,,,,,,,,512.6402,515.094,strongly agree,0,12,12,12,1,"I would never break a law, no matter how minor.",0,1,0,0,,
,,,,,,,,,674fa4a78b9d8a734154456f,spanish,13 or older,"no, only English or Spanish",no,2025-08-12_15h45.05.346,empathy_intonation_perc_control,2024.2.4,Win32,58.82352941,674fa4a78b9d8a734154456f,68817205a84113384fffdfe3,689b9989d9944364faf9f434,,,,,,,,,,,,,,,,,,,,,,,,,,,14,,,,,,,,,,,,,,,,,,,,,,,,,,,,,,,,,,,,,,,,,,,,515.0956,521.0875,strongly disagree,0,13,13,13,1,I often find it difficult to judge if something is rude or polite.,1,0,0,1,,
,,,,,,,,,674fa4a78b9d8a734154456f,spanish,13 or older,"no, only English or Spanish",no,2025-08-12_15h45.05.346,empathy_intonation_perc_control,2024.2.4,Win32,58.82352941,674fa4a78b9d8a734154456f,68817205a84113384fffdfe3,689b9989d9944364faf9f434,,,,,,,,,,,,,,,,,,,,,,,,,,,15,,,,,,,,,,,,,,,,,,,,,,,,,,,,,,,,,,,,,,,,,,,,521.0895,526.1711,slightly disagree,0,14,14,14,1,"In a conversation, I tend to focus on my own thoughts rather than on what 
  my listener might be thinking.",1,0,0,1,,
,,,,,,,,,674fa4a78b9d8a734154456f,spanish,13 or older,"no, only English or Spanish",no,2025-08-12_15h45.05.346,empathy_intonation_perc_control,2024.2.4,Win32,58.82352941,674fa4a78b9d8a734154456f,68817205a84113384fffdfe3,689b9989d9944364faf9f434,,,,,,,,,,,,,,,,,,,,,,,,,,,16,,,,,,,,,,,,,,,,,,,,,,,,,,,,,,,,,,,,,,,,,,,,526.1731,530.7581,strongly disagree,0,15,15,15,1,I prefer practical jokes to verbal humor.,0,1,0,0,,
,,,,,,,,,674fa4a78b9d8a734154456f,spanish,13 or older,"no, only English or Spanish",no,2025-08-12_15h45.05.346,empathy_intonation_perc_control,2024.2.4,Win32,58.82352941,674fa4a78b9d8a734154456f,68817205a84113384fffdfe3,689b9989d9944364faf9f434,,,,,,,,,,,,,,,,,,,,,,,,,,,17,,,,,,,,,,,,,,,,,,,,,,,,,,,,,,,,,,,,,,,,,,,,530.7596,534.9437,slightly disagree,0,16,16,16,1,I live life for today rather than the future.,0,1,0,0,,
,,,,,,,,,674fa4a78b9d8a734154456f,spanish,13 or older,"no, only English or Spanish",no,2025-08-12_15h45.05.346,empathy_intonation_perc_control,2024.2.4,Win32,58.82352941,674fa4a78b9d8a734154456f,68817205a84113384fffdfe3,689b9989d9944364faf9f434,,,,,,,,,,,,,,,,,,,,,,,,,,,18,,,,,,,,,,,,,,,,,,,,,,,,,,,,,,,,,,,,,,,,,,,,534.9459,538.6435,strongly disagree,0,17,17,17,1,"When I was a child, I enjoyed cutting up worms to see what would happen.",1,0,0,1,,
,,,,,,,,,674fa4a78b9d8a734154456f,spanish,13 or older,"no, only English or Spanish",no,2025-08-12_15h45.05.346,empathy_intonation_perc_control,2024.2.4,Win32,58.82352941,674fa4a78b9d8a734154456f,68817205a84113384fffdfe3,689b9989d9944364faf9f434,,,,,,,,,,,,,,,,,,,,,,,,,,,19,,,,,,,,,,,,,,,,,,,,,,,,,,,,,,,,,,,,,,,,,,,,538.6452,543.4205,slightly agree,0,18,18,18,1,I can pick up quickly if someone says one thing but means another.,1,0,1,0,,
,,,,,,,,,674fa4a78b9d8a734154456f,spanish,13 or older,"no, only English or Spanish",no,2025-08-12_15h45.05.346,empathy_intonation_perc_control,2024.2.4,Win32,58.82352941,674fa4a78b9d8a734154456f,68817205a84113384fffdfe3,689b9989d9944364faf9f434,,,,,,,,,,,,,,,,,,,,,,,,,,,20,,,,,,,,,,,,,,,,,,,,,,,,,,,,,,,,,,,,,,,,,,,,543.4229,549.5269,slightly agree,0,19,19,19,1,I tend to have very strong opinions about morality.,0,1,0,0,,
,,,,,,,,,674fa4a78b9d8a734154456f,spanish,13 or older,"no, only English or Spanish",no,2025-08-12_15h45.05.346,empathy_intonation_perc_control,2024.2.4,Win32,58.82352941,674fa4a78b9d8a734154456f,68817205a84113384fffdfe3,689b9989d9944364faf9f434,,,,,,,,,,,,,,,,,,,,,,,,,,,21,,,,,,,,,,,,,,,,,,,,,,,,,,,,,,,,,,,,,,,,,,,,549.5285,550.9039,slightly agree,0,20,20,20,1,It is hard for me to see why some things upset people so much.,1,0,0,1,,
,,,,,,,,,674fa4a78b9d8a734154456f,spanish,13 or older,"no, only English or Spanish",no,2025-08-12_15h45.05.346,empathy_intonation_perc_control,2024.2.4,Win32,58.82352941,674fa4a78b9d8a734154456f,68817205a84113384fffdfe3,689b9989d9944364faf9f434,,,,,,,,,,,,,,,,,,,,,,,,,,,22,,,,,,,,,,,,,,,,,,,,,,,,,,,,,,,,,,,,,,,,,,,,550.906,553.2703,slightly agree,0,21,21,21,1,I find it easy to put myself in somebody else's shoes.,1,0,1,0,,
,,,,,,,,,674fa4a78b9d8a734154456f,spanish,13 or older,"no, only English or Spanish",no,2025-08-12_15h45.05.346,empathy_intonation_perc_control,2024.2.4,Win32,58.82352941,674fa4a78b9d8a734154456f,68817205a84113384fffdfe3,689b9989d9944364faf9f434,,,,,,,,,,,,,,,,,,,,,,,,,,,23,,,,,,,,,,,,,,,,,,,,,,,,,,,,,,,,,,,,,,,,,,,,553.2725,556.5873,slightly agree,0,22,22,22,1,I think that good manners are the most important thing a parent can teach their child.,0,1,0,0,,
,,,,,,,,,674fa4a78b9d8a734154456f,spanish,13 or older,"no, only English or Spanish",no,2025-08-12_15h45.05.346,empathy_intonation_perc_control,2024.2.4,Win32,58.82352941,674fa4a78b9d8a734154456f,68817205a84113384fffdfe3,689b9989d9944364faf9f434,,,,,,,,,,,,,,,,,,,,,,,,,,,24,,,,,,,,,,,,,,,,,,,,,,,,,,,,,,,,,,,,,,,,,,,,556.5893,561.8371,strongly disagree,0,23,23,23,1,I like to do things on the spur of the moment.,0,1,0,0,,
,,,,,,,,,674fa4a78b9d8a734154456f,spanish,13 or older,"no, only English or Spanish",no,2025-08-12_15h45.05.346,empathy_intonation_perc_control,2024.2.4,Win32,58.82352941,674fa4a78b9d8a734154456f,68817205a84113384fffdfe3,689b9989d9944364faf9f434,,,,,,,,,,,,,,,,,,,,,,,,,,,25,,,,,,,,,,,,,,,,,,,,,,,,,,,,,,,,,,,,,,,,,,,,561.8395,565.0038,slightly agree,0,24,24,24,1,I am good at predicting how someone will feel.,1,0,1,0,,
