instructions_2afc.started,instructions_2afc.stopped,instructions_2afc_loop.thisRepN,instructions_2afc_loop.thisTrialN,instructions_2afc_loop.thisN,instructions_2afc_loop.thisIndex,instructions_2afc_loop.ran,instructions_text,continue_text,participant_id,"What variety of Spanish are you most familiar with? (e.g., Peruvian, Spanish, Mexican)",At what age did you begin learning Spanish?,Are you proficient in any languages other than English/Spanish?,"Are you familiar with Caribbean (e.g., Caribbean, Puerto Rican) or Galician Spanish?",date,expName,psychopyVersion,OS,frameRate,id,study_id,session,practice_2afc.started,practice_2afc.stopped,key_resp_2afc_practice.keys,key_resp_2afc_practice.corr,key_resp_2afc_practice.rt,key_resp_2afc_practice.duration,trials_2afc_practice_loop.thisRepN,trials_2afc_practice_loop.thisTrialN,trials_2afc_practice_loop.thisN,trials_2afc_practice_loop.thisIndex,trials_2afc_practice_loop.ran,path,correct_response,check_2afc.started,check_2afc.stopped,trial_2afc.started,trial_2afc.stopped,key_resp_2afc_trial.keys,key_resp_2afc_trial.corr,key_resp_2afc_trial.rt,key_resp_2afc_trial.duration,trials_2afc_loop.thisRepN,trials_2afc_loop.thisTrialN,trials_2afc_loop.thisN,trials_2afc_loop.thisIndex,trials_2afc_loop.ran,item_num,target,variety,instructions_lextale.started,instructions_lextale.stopped,instructions_lextale_loop.thisRepN,instructions_lextale_loop.thisTrialN,instructions_lextale_loop.thisN,instructions_lextale_loop.thisIndex,instructions_lextale_loop.ran,practice_lextale.started,practice_lextale.stopped,key_resp_lextale_practice.keys,key_resp_lextale_practice.corr,key_resp_lextale_practice.rt,key_resp_lextale_practice.duration,practice_feedback_lextale.started,practice_feedback_lextale.stopped,trials_lextale_practice_loop.thisRepN,trials_lextale_practice_loop.thisTrialN,trials_lextale_practice_loop.thisN,trials_lextale_practice_loop.thisIndex,trials_lextale_practice_loop.ran,stim,word,prac_button_real,prac_button_false,check_lextale.started,check_lextale.stopped,trial_lextale.started,trial_lextale.stopped,key_resp_lextale_trial.keys,key_resp_lextale_trial.corr,key_resp_lextale_trial.rt,key_resp_lextale_trial.duration,trials_lextale_loop.thisRepN,trials_lextale_loop.thisTrialN,trials_lextale_loop.thisN,trials_lextale_loop.thisIndex,trials_lextale_loop.ran,button_real,button_false,instructions_eq.started,instructions_eq.stopped,trial_eq.started,trial_eq.stopped,slider_eq_trial.response,trials_eq_loop.thisRepN,trials_eq_loop.thisTrialN,trials_eq_loop.thisN,trials_eq_loop.thisIndex,trials_eq_loop.ran,item,is_test_item,is_distractor,is_agree_score,is_disagree_score,end_exp.started,end_exp.stopped
0.0847,8.6317,0,0,0,0,1,"In the following task you are going to hear a series of utterances. 

  You will decide if the utterances sound like questions or not using your keyboard.", (press the spacebar to continue),6768815b73d3cbf6add75750,Spanish,13 or older,"no, only English or Spanish",no,2025-07-24_08h43.37.155,empathy_intonation_perc_control,2024.2.4,Win32,59.17159763,6768815b73d3cbf6add75750,68817205a84113384fffdfe3,688229c4704a76f51b67c797,,,,,,,,,,,,,,,,,,,,,,,,,,,,,,,,,,,,,,,,,,,,,,,,,,,,,,,,,,,,,,,,,,,,,,,,,,,,,,,,,,,,,
8.6339,14.2199,0,1,1,1,1,"If you believe the utterance is a question, type '1' (for 'yes') and if you do not 
  believe it is a question type '0' (for 'no').

  Let's practice a bit...", (press the spacebar to continue),6768815b73d3cbf6add75750,Spanish,13 or older,"no, only English or Spanish",no,2025-07-24_08h43.37.155,empathy_intonation_perc_control,2024.2.4,Win32,59.17159763,6768815b73d3cbf6add75750,68817205a84113384fffdfe3,688229c4704a76f51b67c797,,,,,,,,,,,,,,,,,,,,,,,,,,,,,,,,,,,,,,,,,,,,,,,,,,,,,,,,,,,,,,,,,,,,,,,,,,,,,,,,,,,,,
,,,,,,,,,6768815b73d3cbf6add75750,Spanish,13 or older,"no, only English or Spanish",no,2025-07-24_08h43.37.155,empathy_intonation_perc_control,2024.2.4,Win32,59.17159763,6768815b73d3cbf6add75750,68817205a84113384fffdfe3,688229c4704a76f51b67c797,14.2611,17.5522,1,1,2.7521,,0,0,0,1,1,./stim/wavs/argentine_question_filler_Mi-vecino-habla-mucho.wav,1,,,,,,,,,,,,,,,,,,,,,,,,,,,,,,,,,,,,,,,,,,,,,,,,,,,,,,,,,,,,,,,,,,,,,,,,
,,,,,,,,,6768815b73d3cbf6add75750,Spanish,13 or older,"no, only English or Spanish",no,2025-07-24_08h43.37.155,empathy_intonation_perc_control,2024.2.4,Win32,59.17159763,6768815b73d3cbf6add75750,68817205a84113384fffdfe3,688229c4704a76f51b67c797,17.5549,20.315,0,0,2.229,,0,1,1,2,1,./stim/wavs/chilean_question_filler_Mi-padre-cantaba-bien.wav,1,,,,,,,,,,,,,,,,,,,,,,,,,,,,,,,,,,,,,,,,,,,,,,,,,,,,,,,,,,,,,,,,,,,,,,,,
,,,,,,,,,6768815b73d3cbf6add75750,Spanish,13 or older,"no, only English or Spanish",no,2025-07-24_08h43.37.155,empathy_intonation_perc_control,2024.2.4,Win32,59.17159763,6768815b73d3cbf6add75750,68817205a84113384fffdfe3,688229c4704a76f51b67c797,20.317,24.6771,1,1,3.8305,,0,2,2,3,1,./stim/wavs/mexican_question_filler_Felipe-no-tiene-contrasena.wav,1,,,,,,,,,,,,,,,,,,,,,,,,,,,,,,,,,,,,,,,,,,,,,,,,,,,,,,,,,,,,,,,,,,,,,,,,
,,,,,,,,,6768815b73d3cbf6add75750,Spanish,13 or older,"no, only English or Spanish",no,2025-07-24_08h43.37.155,empathy_intonation_perc_control,2024.2.4,Win32,59.17159763,6768815b73d3cbf6add75750,68817205a84113384fffdfe3,688229c4704a76f51b67c797,24.6783,27.2248,0,1,2.016,,0,3,3,4,1,./stim/wavs/cuban_statement_filler_Cocinabas-por-la-noche.wav,0,,,,,,,,,,,,,,,,,,,,,,,,,,,,,,,,,,,,,,,,,,,,,,,,,,,,,,,,,,,,,,,,,,,,,,,,
,,,,,,,,,6768815b73d3cbf6add75750,Spanish,13 or older,"no, only English or Spanish",no,2025-07-24_08h43.37.155,empathy_intonation_perc_control,2024.2.4,Win32,59.17159763,6768815b73d3cbf6add75750,68817205a84113384fffdfe3,688229c4704a76f51b67c797,27.2269,30.167,1,1,2.4187,,0,4,4,0,1,./stim/wavs/castilian_question_filler_Mi-esposo-conoce-al-chico.wav,1,,,,,,,,,,,,,,,,,,,,,,,,,,,,,,,,,,,,,,,,,,,,,,,,,,,,,,,,,,,,,,,,,,,,,,,,
,,,,,,,,,6768815b73d3cbf6add75750,Spanish,13 or older,"no, only English or Spanish",no,2025-07-24_08h43.37.155,empathy_intonation_perc_control,2024.2.4,Win32,59.17159763,6768815b73d3cbf6add75750,68817205a84113384fffdfe3,688229c4704a76f51b67c797,30.169,33.0269,0,1,2.3294,,0,5,5,5,1,./stim/wavs/andalusian_statement_filler_Alberto-nunca-se-afeita.wav,0,,,,,,,,,,,,,,,,,,,,,,,,,,,,,,,,,,,,,,,,,,,,,,,,,,,,,,,,,,,,,,,,,,,,,,,,
,,,,,,,,,6768815b73d3cbf6add75750,Spanish,13 or older,"no, only English or Spanish",no,2025-07-24_08h43.37.155,empathy_intonation_perc_control,2024.2.4,Win32,59.17159763,6768815b73d3cbf6add75750,68817205a84113384fffdfe3,688229c4704a76f51b67c797,33.0289,36.0946,0,1,2.5332,,0,6,6,6,1,./stim/wavs/peruvian_statement_filler_El-nino-habla-con-su-madre.wav,0,,,,,,,,,,,,,,,,,,,,,,,,,,,,,,,,,,,,,,,,,,,,,,,,,,,,,,,,,,,,,,,,,,,,,,,,
,,,,,,,,,6768815b73d3cbf6add75750,Spanish,13 or older,"no, only English or Spanish",no,2025-07-24_08h43.37.155,empathy_intonation_perc_control,2024.2.4,Win32,59.17159763,6768815b73d3cbf6add75750,68817205a84113384fffdfe3,688229c4704a76f51b67c797,36.0959,38.787,0,1,2.1641,,0,7,7,7,1,./stim/wavs/puertorican_statement_filler_La-nina-pinta-con-su-amiga.wav,0,,,,,,,,,,,,,,,,,,,,,,,,,,,,,,,,,,,,,,,,,,,,,,,,,,,,,,,,,,,,,,,,,,,,,,,,
,,,,,,,,,6768815b73d3cbf6add75750,Spanish,13 or older,"no, only English or Spanish",no,2025-07-24_08h43.37.155,empathy_intonation_perc_control,2024.2.4,Win32,59.17159763,6768815b73d3cbf6add75750,68817205a84113384fffdfe3,688229c4704a76f51b67c797,,,,,,,,,,,,,,38.7881,50.2791,,,,,,,,,,,,,,,,,,,,,,,,,,,,,,,,,,,,,,,,,,,,,,,,,,,,,,,,,,,,,,,,,,,,,,
,,,,,,,,,6768815b73d3cbf6add75750,Spanish,13 or older,"no, only English or Spanish",no,2025-07-24_08h43.37.155,empathy_intonation_perc_control,2024.2.4,Win32,59.17159763,6768815b73d3cbf6add75750,68817205a84113384fffdfe3,688229c4704a76f51b67c797,,,,,,,,,,,,./stim/wavs/castilian_mismatch_interrogative-total-yn_La-nina-lava-el-plato.wav,1,,,50.3206,52.9083,1,1,2.0548,,0,0,0,25,1,26,0,castilian,,,,,,,,,,,,,,,,,,,,,,,,,,,,,,,,,,,,,,,,,,,,,,,,,,,,,,,,
,,,,,,,,,6768815b73d3cbf6add75750,Spanish,13 or older,"no, only English or Spanish",no,2025-07-24_08h43.37.155,empathy_intonation_perc_control,2024.2.4,Win32,59.17159763,6768815b73d3cbf6add75750,68817205a84113384fffdfe3,688229c4704a76f51b67c797,,,,,,,,,,,,./stim/wavs/puertorican_match_interrogative-total-yn_Maria-bebe-el-vino.wav,1,,,52.9102,55.182,0,0,1.7457,,0,1,1,23,1,24,1,puertorican,,,,,,,,,,,,,,,,,,,,,,,,,,,,,,,,,,,,,,,,,,,,,,,,,,,,,,,,
,,,,,,,,,6768815b73d3cbf6add75750,Spanish,13 or older,"no, only English or Spanish",no,2025-07-24_08h43.37.155,empathy_intonation_perc_control,2024.2.4,Win32,59.17159763,6768815b73d3cbf6add75750,68817205a84113384fffdfe3,688229c4704a76f51b67c797,,,,,,,,,,,,./stim/wavs/mexican_match_interrogative-total-yn_Marta-abre-el-regalo.wav,1,,,55.1857,57.4008,0,0,1.7006,,0,2,2,17,1,18,0,mexican,,,,,,,,,,,,,,,,,,,,,,,,,,,,,,,,,,,,,,,,,,,,,,,,,,,,,,,,
,,,,,,,,,6768815b73d3cbf6add75750,Spanish,13 or older,"no, only English or Spanish",no,2025-07-24_08h43.37.155,empathy_intonation_perc_control,2024.2.4,Win32,59.17159763,6768815b73d3cbf6add75750,68817205a84113384fffdfe3,688229c4704a76f51b67c797,,,,,,,,,,,,./stim/wavs/puertorican_match_declarative-broad-focus_Manuela-vende-el-carro.wav,0,,,57.404,59.7785,0,1,1.8405,,0,3,3,66,1,67,0,puertorican,,,,,,,,,,,,,,,,,,,,,,,,,,,,,,,,,,,,,,,,,,,,,,,,,,,,,,,,
,,,,,,,,,6768815b73d3cbf6add75750,Spanish,13 or older,"no, only English or Spanish",no,2025-07-24_08h43.37.155,empathy_intonation_perc_control,2024.2.4,Win32,59.17159763,6768815b73d3cbf6add75750,68817205a84113384fffdfe3,688229c4704a76f51b67c797,,,,,,,,,,,,./stim/wavs/puertorican_mismatch_declarative-broad-focus_La-maestra-vive-en-Paris.wav,0,,,59.7805,62.1456,0,1,1.8327,,0,4,4,86,1,87,0,puertorican,,,,,,,,,,,,,,,,,,,,,,,,,,,,,,,,,,,,,,,,,,,,,,,,,,,,,,,,
,,,,,,,,,6768815b73d3cbf6add75750,Spanish,13 or older,"no, only English or Spanish",no,2025-07-24_08h43.37.155,empathy_intonation_perc_control,2024.2.4,Win32,59.17159763,6768815b73d3cbf6add75750,68817205a84113384fffdfe3,688229c4704a76f51b67c797,,,,,,,,,,,,./stim/wavs/cuban_mismatch_declarative-broad-focus_El-hombre-mira-la-luna.wav,0,,,62.1485,64.4012,0,1,1.7123,,0,5,5,74,1,75,0,cuban,,,,,,,,,,,,,,,,,,,,,,,,,,,,,,,,,,,,,,,,,,,,,,,,,,,,,,,,
,,,,,,,,,6768815b73d3cbf6add75750,Spanish,13 or older,"no, only English or Spanish",no,2025-07-24_08h43.37.155,empathy_intonation_perc_control,2024.2.4,Win32,59.17159763,6768815b73d3cbf6add75750,68817205a84113384fffdfe3,688229c4704a76f51b67c797,,,,,,,,,,,,./stim/wavs/castilian_match_declarative-broad-focus_Marta-abre-el-regalo.wav,0,,,64.4046,66.8925,0,1,1.961,,0,6,6,49,1,50,0,castilian,,,,,,,,,,,,,,,,,,,,,,,,,,,,,,,,,,,,,,,,,,,,,,,,,,,,,,,,
,,,,,,,,,6768815b73d3cbf6add75750,Spanish,13 or older,"no, only English or Spanish",no,2025-07-24_08h43.37.155,empathy_intonation_perc_control,2024.2.4,Win32,59.17159763,6768815b73d3cbf6add75750,68817205a84113384fffdfe3,688229c4704a76f51b67c797,,,,,,,,,,,,./stim/wavs/mexican_match_interrogative-total-yn_Emilio-ama-la-marcha.wav,1,,,66.8942,69.3885,1,1,1.9683,,0,7,7,15,1,16,0,mexican,,,,,,,,,,,,,,,,,,,,,,,,,,,,,,,,,,,,,,,,,,,,,,,,,,,,,,,,
,,,,,,,,,6768815b73d3cbf6add75750,Spanish,13 or older,"no, only English or Spanish",no,2025-07-24_08h43.37.155,empathy_intonation_perc_control,2024.2.4,Win32,59.17159763,6768815b73d3cbf6add75750,68817205a84113384fffdfe3,688229c4704a76f51b67c797,,,,,,,,,,,,./stim/wavs/cuban_match_interrogative-total-yn_Manuela-vende-el-carro.wav,1,,,69.3896,71.7544,0,0,1.8483,,0,8,8,8,1,9,1,cuban,,,,,,,,,,,,,,,,,,,,,,,,,,,,,,,,,,,,,,,,,,,,,,,,,,,,,,,,
,,,,,,,,,6768815b73d3cbf6add75750,Spanish,13 or older,"no, only English or Spanish",no,2025-07-24_08h43.37.155,empathy_intonation_perc_control,2024.2.4,Win32,59.17159763,6768815b73d3cbf6add75750,68817205a84113384fffdfe3,688229c4704a76f51b67c797,,,,,,,,,,,,./stim/wavs/mexican_mismatch_declarative-broad-focus_La-maestra-vive-en-Paris.wav,0,,,71.7564,74.4825,0,1,2.1858,,0,9,9,80,1,81,0,mexican,,,,,,,,,,,,,,,,,,,,,,,,,,,,,,,,,,,,,,,,,,,,,,,,,,,,,,,,
,,,,,,,,,6768815b73d3cbf6add75750,Spanish,13 or older,"no, only English or Spanish",no,2025-07-24_08h43.37.155,empathy_intonation_perc_control,2024.2.4,Win32,59.17159763,6768815b73d3cbf6add75750,68817205a84113384fffdfe3,688229c4704a76f51b67c797,,,,,,,,,,,,./stim/wavs/mexican_match_declarative-broad-focus_David-leia-el-libro.wav,0,,,74.4849,76.8953,0,1,1.8804,,0,10,10,58,1,59,0,mexican,,,,,,,,,,,,,,,,,,,,,,,,,,,,,,,,,,,,,,,,,,,,,,,,,,,,,,,,
,,,,,,,,,6768815b73d3cbf6add75750,Spanish,13 or older,"no, only English or Spanish",no,2025-07-24_08h43.37.155,empathy_intonation_perc_control,2024.2.4,Win32,59.17159763,6768815b73d3cbf6add75750,68817205a84113384fffdfe3,688229c4704a76f51b67c797,,,,,,,,,,,,./stim/wavs/cuban_mismatch_interrogative-total-yn_El-nino-oye-el-rio.wav,1,,,76.8978,79.3885,0,0,1.9435,,0,11,11,30,1,31,1,cuban,,,,,,,,,,,,,,,,,,,,,,,,,,,,,,,,,,,,,,,,,,,,,,,,,,,,,,,,
,,,,,,,,,6768815b73d3cbf6add75750,Spanish,13 or older,"no, only English or Spanish",no,2025-07-24_08h43.37.155,empathy_intonation_perc_control,2024.2.4,Win32,59.17159763,6768815b73d3cbf6add75750,68817205a84113384fffdfe3,688229c4704a76f51b67c797,,,,,,,,,,,,./stim/wavs/puertorican_mismatch_interrogative-total-yn_Mi-madre-come-la-fruta.wav,1,,,79.3903,81.9542,1,1,2.0337,,0,12,12,43,1,44,1,puertorican,,,,,,,,,,,,,,,,,,,,,,,,,,,,,,,,,,,,,,,,,,,,,,,,,,,,,,,,
,,,,,,,,,6768815b73d3cbf6add75750,Spanish,13 or older,"no, only English or Spanish",no,2025-07-24_08h43.37.155,empathy_intonation_perc_control,2024.2.4,Win32,59.17159763,6768815b73d3cbf6add75750,68817205a84113384fffdfe3,688229c4704a76f51b67c797,,,,,,,,,,,,./stim/wavs/cuban_match_interrogative-total-yn_Mariano-habla-del-tiempo.wav,1,,,81.9565,84.5058,1,1,2.0265,,0,13,13,10,1,11,1,cuban,,,,,,,,,,,,,,,,,,,,,,,,,,,,,,,,,,,,,,,,,,,,,,,,,,,,,,,,
,,,,,,,,,6768815b73d3cbf6add75750,Spanish,13 or older,"no, only English or Spanish",no,2025-07-24_08h43.37.155,empathy_intonation_perc_control,2024.2.4,Win32,59.17159763,6768815b73d3cbf6add75750,68817205a84113384fffdfe3,688229c4704a76f51b67c797,,,,,,,,,,,,./stim/wavs/puertorican_mismatch_interrogative-total-yn_La-nina-lava-el-plato.wav,1,,,84.5071,86.988,0,0,1.952,,0,14,14,42,1,43,1,puertorican,,,,,,,,,,,,,,,,,,,,,,,,,,,,,,,,,,,,,,,,,,,,,,,,,,,,,,,,
,,,,,,,,,6768815b73d3cbf6add75750,Spanish,13 or older,"no, only English or Spanish",no,2025-07-24_08h43.37.155,empathy_intonation_perc_control,2024.2.4,Win32,59.17159763,6768815b73d3cbf6add75750,68817205a84113384fffdfe3,688229c4704a76f51b67c797,,,,,,,,,,,,./stim/wavs/cuban_match_declarative-broad-focus_Maria-bebe-el-vino.wav,0,,,86.9894,89.3649,1,0,1.8525,,0,15,15,53,1,54,0,cuban,,,,,,,,,,,,,,,,,,,,,,,,,,,,,,,,,,,,,,,,,,,,,,,,,,,,,,,,
,,,,,,,,,6768815b73d3cbf6add75750,Spanish,13 or older,"no, only English or Spanish",no,2025-07-24_08h43.37.155,empathy_intonation_perc_control,2024.2.4,Win32,59.17159763,6768815b73d3cbf6add75750,68817205a84113384fffdfe3,688229c4704a76f51b67c797,,,,,,,,,,,,./stim/wavs/mexican_mismatch_declarative-broad-focus_Mi-novio-viene-del-lago.wav,0,,,89.3667,91.6392,0,1,1.7476,,0,16,16,81,1,82,0,mexican,,,,,,,,,,,,,,,,,,,,,,,,,,,,,,,,,,,,,,,,,,,,,,,,,,,,,,,,
,,,,,,,,,6768815b73d3cbf6add75750,Spanish,13 or older,"no, only English or Spanish",no,2025-07-24_08h43.37.155,empathy_intonation_perc_control,2024.2.4,Win32,59.17159763,6768815b73d3cbf6add75750,68817205a84113384fffdfe3,688229c4704a76f51b67c797,,,,,,,,,,,,./stim/wavs/cuban_mismatch_interrogative-total-yn_Mi-madre-come-la-fruta.wav,1,,,91.6416,94.4237,1,1,2.2494,,0,17,17,31,1,32,1,cuban,,,,,,,,,,,,,,,,,,,,,,,,,,,,,,,,,,,,,,,,,,,,,,,,,,,,,,,,
,,,,,,,,,6768815b73d3cbf6add75750,Spanish,13 or older,"no, only English or Spanish",no,2025-07-24_08h43.37.155,empathy_intonation_perc_control,2024.2.4,Win32,59.17159763,6768815b73d3cbf6add75750,68817205a84113384fffdfe3,688229c4704a76f51b67c797,,,,,,,,,,,,./stim/wavs/puertorican_match_interrogative-total-yn_Ana-lleva-el-abrigo.wav,1,,,94.4264,97.0994,1,1,2.1513,,0,18,18,18,1,19,1,puertorican,,,,,,,,,,,,,,,,,,,,,,,,,,,,,,,,,,,,,,,,,,,,,,,,,,,,,,,,
,,,,,,,,,6768815b73d3cbf6add75750,Spanish,13 or older,"no, only English or Spanish",no,2025-07-24_08h43.37.155,empathy_intonation_perc_control,2024.2.4,Win32,59.17159763,6768815b73d3cbf6add75750,68817205a84113384fffdfe3,688229c4704a76f51b67c797,,,,,,,,,,,,./stim/wavs/castilian_mismatch_declarative-broad-focus_Mi-tia-odia-la-lluvia.wav,0,,,97.1033,99.9151,1,0,2.2889,,0,19,19,72,1,73,0,castilian,,,,,,,,,,,,,,,,,,,,,,,,,,,,,,,,,,,,,,,,,,,,,,,,,,,,,,,,
,,,,,,,,,6768815b73d3cbf6add75750,Spanish,13 or older,"no, only English or Spanish",no,2025-07-24_08h43.37.155,empathy_intonation_perc_control,2024.2.4,Win32,59.17159763,6768815b73d3cbf6add75750,68817205a84113384fffdfe3,688229c4704a76f51b67c797,,,,,,,,,,,,./stim/wavs/puertorican_mismatch_declarative-broad-focus_El-hombre-mira-la-luna.wav,0,,,99.9166,102.5671,0,1,2.137,,0,20,20,84,1,85,0,puertorican,,,,,,,,,,,,,,,,,,,,,,,,,,,,,,,,,,,,,,,,,,,,,,,,,,,,,,,,
,,,,,,,,,6768815b73d3cbf6add75750,Spanish,13 or older,"no, only English or Spanish",no,2025-07-24_08h43.37.155,empathy_intonation_perc_control,2024.2.4,Win32,59.17159763,6768815b73d3cbf6add75750,68817205a84113384fffdfe3,688229c4704a76f51b67c797,,,,,,,,,,,,./stim/wavs/castilian_mismatch_declarative-broad-focus_La-maestra-vive-en-Paris.wav,0,,,102.5685,105.0879,0,1,1.9931,,0,21,21,69,1,70,0,castilian,,,,,,,,,,,,,,,,,,,,,,,,,,,,,,,,,,,,,,,,,,,,,,,,,,,,,,,,
,,,,,,,,,6768815b73d3cbf6add75750,Spanish,13 or older,"no, only English or Spanish",no,2025-07-24_08h43.37.155,empathy_intonation_perc_control,2024.2.4,Win32,59.17159763,6768815b73d3cbf6add75750,68817205a84113384fffdfe3,688229c4704a76f51b67c797,,,,,,,,,,,,./stim/wavs/cuban_mismatch_interrogative-total-yn_El-hombre-mira-la-luna.wav,1,,,105.0892,107.3737,1,1,1.7617,,0,22,22,29,1,30,1,cuban,,,,,,,,,,,,,,,,,,,,,,,,,,,,,,,,,,,,,,,,,,,,,,,,,,,,,,,,
,,,,,,,,,6768815b73d3cbf6add75750,Spanish,13 or older,"no, only English or Spanish",no,2025-07-24_08h43.37.155,empathy_intonation_perc_control,2024.2.4,Win32,59.17159763,6768815b73d3cbf6add75750,68817205a84113384fffdfe3,688229c4704a76f51b67c797,,,,,,,,,,,,./stim/wavs/cuban_match_interrogative-total-yn_Marta-abre-el-regalo.wav,1,,,107.3761,110.2044,0,0,2.3036,,0,23,23,11,1,12,1,cuban,,,,,,,,,,,,,,,,,,,,,,,,,,,,,,,,,,,,,,,,,,,,,,,,,,,,,,,,
,,,,,,,,,6768815b73d3cbf6add75750,Spanish,13 or older,"no, only English or Spanish",no,2025-07-24_08h43.37.155,empathy_intonation_perc_control,2024.2.4,Win32,59.17159763,6768815b73d3cbf6add75750,68817205a84113384fffdfe3,688229c4704a76f51b67c797,,,,,,,,,,,,./stim/wavs/mexican_mismatch_declarative-broad-focus_Mi-tia-odia-la-lluvia.wav,0,,,110.2089,112.8816,0,1,2.1341,,0,24,24,82,1,83,0,mexican,,,,,,,,,,,,,,,,,,,,,,,,,,,,,,,,,,,,,,,,,,,,,,,,,,,,,,,,
,,,,,,,,,6768815b73d3cbf6add75750,Spanish,13 or older,"no, only English or Spanish",no,2025-07-24_08h43.37.155,empathy_intonation_perc_control,2024.2.4,Win32,59.17159763,6768815b73d3cbf6add75750,68817205a84113384fffdfe3,688229c4704a76f51b67c797,,,,,,,,,,,,./stim/wavs/puertorican_match_declarative-broad-focus_Ana-lleva-el-abrigo.wav,0,,,112.8858,115.5352,0,1,2.1188,,0,25,25,62,1,63,0,puertorican,,,,,,,,,,,,,,,,,,,,,,,,,,,,,,,,,,,,,,,,,,,,,,,,,,,,,,,,
,,,,,,,,,6768815b73d3cbf6add75750,Spanish,13 or older,"no, only English or Spanish",no,2025-07-24_08h43.37.155,empathy_intonation_perc_control,2024.2.4,Win32,59.17159763,6768815b73d3cbf6add75750,68817205a84113384fffdfe3,688229c4704a76f51b67c797,,,,,,,,,,,,./stim/wavs/castilian_match_interrogative-total-yn_David-leia-el-libro.wav,1,,,115.5368,118.1666,0,0,2.1068,,0,26,26,0,1,1,0,castilian,,,,,,,,,,,,,,,,,,,,,,,,,,,,,,,,,,,,,,,,,,,,,,,,,,,,,,,,
,,,,,,,,,6768815b73d3cbf6add75750,Spanish,13 or older,"no, only English or Spanish",no,2025-07-24_08h43.37.155,empathy_intonation_perc_control,2024.2.4,Win32,59.17159763,6768815b73d3cbf6add75750,68817205a84113384fffdfe3,688229c4704a76f51b67c797,,,,,,,,,,,,./stim/wavs/mexican_match_interrogative-total-yn_Ana-lleva-el-abrigo.wav,1,,,118.1677,120.9082,1,1,2.2164,,0,27,27,12,1,13,0,mexican,,,,,,,,,,,,,,,,,,,,,,,,,,,,,,,,,,,,,,,,,,,,,,,,,,,,,,,,
,,,,,,,,,6768815b73d3cbf6add75750,Spanish,13 or older,"no, only English or Spanish",no,2025-07-24_08h43.37.155,empathy_intonation_perc_control,2024.2.4,Win32,59.17159763,6768815b73d3cbf6add75750,68817205a84113384fffdfe3,688229c4704a76f51b67c797,,,,,,,,,,,,./stim/wavs/puertorican_mismatch_declarative-broad-focus_El-nino-oye-el-rio.wav,0,,,120.91,123.3414,0,1,1.9051,,0,28,28,85,1,86,0,puertorican,,,,,,,,,,,,,,,,,,,,,,,,,,,,,,,,,,,,,,,,,,,,,,,,,,,,,,,,
,,,,,,,,,6768815b73d3cbf6add75750,Spanish,13 or older,"no, only English or Spanish",no,2025-07-24_08h43.37.155,empathy_intonation_perc_control,2024.2.4,Win32,59.17159763,6768815b73d3cbf6add75750,68817205a84113384fffdfe3,688229c4704a76f51b67c797,,,,,,,,,,,,./stim/wavs/mexican_match_declarative-broad-focus_Daniel-iba-a-Bolivia.wav,0,,,123.3435,125.7827,0,1,1.9122,,0,29,29,57,1,58,0,mexican,,,,,,,,,,,,,,,,,,,,,,,,,,,,,,,,,,,,,,,,,,,,,,,,,,,,,,,,
,,,,,,,,,6768815b73d3cbf6add75750,Spanish,13 or older,"no, only English or Spanish",no,2025-07-24_08h43.37.155,empathy_intonation_perc_control,2024.2.4,Win32,59.17159763,6768815b73d3cbf6add75750,68817205a84113384fffdfe3,688229c4704a76f51b67c797,,,,,,,,,,,,./stim/wavs/castilian_match_interrogative-total-yn_Emilio-ama-la-marcha.wav,1,,,125.785,128.5566,1,1,2.2417,,0,30,30,1,1,2,0,castilian,,,,,,,,,,,,,,,,,,,,,,,,,,,,,,,,,,,,,,,,,,,,,,,,,,,,,,,,
,,,,,,,,,6768815b73d3cbf6add75750,Spanish,13 or older,"no, only English or Spanish",no,2025-07-24_08h43.37.155,empathy_intonation_perc_control,2024.2.4,Win32,59.17159763,6768815b73d3cbf6add75750,68817205a84113384fffdfe3,688229c4704a76f51b67c797,,,,,,,,,,,,./stim/wavs/mexican_match_declarative-broad-focus_Emilio-ama-la-marcha.wav,0,,,128.558,131.1348,0,1,2.0556,,0,31,31,59,1,60,0,mexican,,,,,,,,,,,,,,,,,,,,,,,,,,,,,,,,,,,,,,,,,,,,,,,,,,,,,,,,
,,,,,,,,,6768815b73d3cbf6add75750,Spanish,13 or older,"no, only English or Spanish",no,2025-07-24_08h43.37.155,empathy_intonation_perc_control,2024.2.4,Win32,59.17159763,6768815b73d3cbf6add75750,68817205a84113384fffdfe3,688229c4704a76f51b67c797,,,,,,,,,,,,./stim/wavs/puertorican_match_interrogative-total-yn_Emilio-ama-la-marcha.wav,1,,,131.136,133.6155,0,0,1.958,,0,32,32,21,1,22,1,puertorican,,,,,,,,,,,,,,,,,,,,,,,,,,,,,,,,,,,,,,,,,,,,,,,,,,,,,,,,
,,,,,,,,,6768815b73d3cbf6add75750,Spanish,13 or older,"no, only English or Spanish",no,2025-07-24_08h43.37.155,empathy_intonation_perc_control,2024.2.4,Win32,59.17159763,6768815b73d3cbf6add75750,68817205a84113384fffdfe3,688229c4704a76f51b67c797,,,,,,,,,,,,./stim/wavs/mexican_match_declarative-broad-focus_Ana-lleva-el-abrigo.wav,0,,,133.6167,136.0244,0,1,1.8816,,0,33,33,56,1,57,0,mexican,,,,,,,,,,,,,,,,,,,,,,,,,,,,,,,,,,,,,,,,,,,,,,,,,,,,,,,,
,,,,,,,,,6768815b73d3cbf6add75750,Spanish,13 or older,"no, only English or Spanish",no,2025-07-24_08h43.37.155,empathy_intonation_perc_control,2024.2.4,Win32,59.17159763,6768815b73d3cbf6add75750,68817205a84113384fffdfe3,688229c4704a76f51b67c797,,,,,,,,,,,,./stim/wavs/cuban_match_declarative-broad-focus_Marta-abre-el-regalo.wav,0,,,136.0261,138.6083,0,1,2.0528,,0,34,34,55,1,56,0,cuban,,,,,,,,,,,,,,,,,,,,,,,,,,,,,,,,,,,,,,,,,,,,,,,,,,,,,,,,
,,,,,,,,,6768815b73d3cbf6add75750,Spanish,13 or older,"no, only English or Spanish",no,2025-07-24_08h43.37.155,empathy_intonation_perc_control,2024.2.4,Win32,59.17159763,6768815b73d3cbf6add75750,68817205a84113384fffdfe3,688229c4704a76f51b67c797,,,,,,,,,,,,./stim/wavs/cuban_match_declarative-broad-focus_Daniel-iba-a-Bolivia.wav,0,,,138.6102,141.3683,0,1,2.2294,,0,35,35,51,1,52,0,cuban,,,,,,,,,,,,,,,,,,,,,,,,,,,,,,,,,,,,,,,,,,,,,,,,,,,,,,,,
,,,,,,,,,6768815b73d3cbf6add75750,Spanish,13 or older,"no, only English or Spanish",no,2025-07-24_08h43.37.155,empathy_intonation_perc_control,2024.2.4,Win32,59.17159763,6768815b73d3cbf6add75750,68817205a84113384fffdfe3,688229c4704a76f51b67c797,,,,,,,,,,,,./stim/wavs/mexican_mismatch_interrogative-total-yn_El-nino-oye-el-rio.wav,1,,,141.3702,143.6022,1,1,1.6832,,0,36,36,35,1,36,0,mexican,,,,,,,,,,,,,,,,,,,,,,,,,,,,,,,,,,,,,,,,,,,,,,,,,,,,,,,,
,,,,,,,,,6768815b73d3cbf6add75750,Spanish,13 or older,"no, only English or Spanish",no,2025-07-24_08h43.37.155,empathy_intonation_perc_control,2024.2.4,Win32,59.17159763,6768815b73d3cbf6add75750,68817205a84113384fffdfe3,688229c4704a76f51b67c797,,,,,,,,,,,,./stim/wavs/puertorican_mismatch_interrogative-total-yn_La-maestra-vive-en-Paris.wav,1,,,143.6037,146.4617,1,1,2.3309,,0,37,37,41,1,42,1,puertorican,,,,,,,,,,,,,,,,,,,,,,,,,,,,,,,,,,,,,,,,,,,,,,,,,,,,,,,,
,,,,,,,,,6768815b73d3cbf6add75750,Spanish,13 or older,"no, only English or Spanish",no,2025-07-24_08h43.37.155,empathy_intonation_perc_control,2024.2.4,Win32,59.17159763,6768815b73d3cbf6add75750,68817205a84113384fffdfe3,688229c4704a76f51b67c797,,,,,,,,,,,,./stim/wavs/castilian_match_interrogative-total-yn_Mariano-habla-del-tiempo.wav,1,,,146.4644,149.1748,1,1,2.1791,,0,38,38,4,1,5,0,castilian,,,,,,,,,,,,,,,,,,,,,,,,,,,,,,,,,,,,,,,,,,,,,,,,,,,,,,,,
,,,,,,,,,6768815b73d3cbf6add75750,Spanish,13 or older,"no, only English or Spanish",no,2025-07-24_08h43.37.155,empathy_intonation_perc_control,2024.2.4,Win32,59.17159763,6768815b73d3cbf6add75750,68817205a84113384fffdfe3,688229c4704a76f51b67c797,,,,,,,,,,,,./stim/wavs/mexican_mismatch_declarative-broad-focus_El-hombre-mira-la-luna.wav,0,,,149.1775,151.8278,0,1,2.123,,0,39,39,79,1,80,0,mexican,,,,,,,,,,,,,,,,,,,,,,,,,,,,,,,,,,,,,,,,,,,,,,,,,,,,,,,,
,,,,,,,,,6768815b73d3cbf6add75750,Spanish,13 or older,"no, only English or Spanish",no,2025-07-24_08h43.37.155,empathy_intonation_perc_control,2024.2.4,Win32,59.17159763,6768815b73d3cbf6add75750,68817205a84113384fffdfe3,688229c4704a76f51b67c797,,,,,,,,,,,,./stim/wavs/cuban_mismatch_declarative-broad-focus_Mi-novio-viene-del-lago.wav,0,,,151.8296,154.4999,1,0,2.1417,,0,40,40,76,1,77,0,cuban,,,,,,,,,,,,,,,,,,,,,,,,,,,,,,,,,,,,,,,,,,,,,,,,,,,,,,,,
,,,,,,,,,6768815b73d3cbf6add75750,Spanish,13 or older,"no, only English or Spanish",no,2025-07-24_08h43.37.155,empathy_intonation_perc_control,2024.2.4,Win32,59.17159763,6768815b73d3cbf6add75750,68817205a84113384fffdfe3,688229c4704a76f51b67c797,,,,,,,,,,,,./stim/wavs/puertorican_match_declarative-broad-focus_Emilio-ama-la-marcha.wav,0,,,154.5043,157.2983,1,0,2.2635,,0,41,41,65,1,66,0,puertorican,,,,,,,,,,,,,,,,,,,,,,,,,,,,,,,,,,,,,,,,,,,,,,,,,,,,,,,,
,,,,,,,,,6768815b73d3cbf6add75750,Spanish,13 or older,"no, only English or Spanish",no,2025-07-24_08h43.37.155,empathy_intonation_perc_control,2024.2.4,Win32,59.17159763,6768815b73d3cbf6add75750,68817205a84113384fffdfe3,688229c4704a76f51b67c797,,,,,,,,,,,,./stim/wavs/castilian_match_declarative-broad-focus_Mariano-habla-del-tiempo.wav,0,,,157.3002,160.0779,1,0,2.2489,,0,42,42,48,1,49,0,castilian,,,,,,,,,,,,,,,,,,,,,,,,,,,,,,,,,,,,,,,,,,,,,,,,,,,,,,,,
,,,,,,,,,6768815b73d3cbf6add75750,Spanish,13 or older,"no, only English or Spanish",no,2025-07-24_08h43.37.155,empathy_intonation_perc_control,2024.2.4,Win32,59.17159763,6768815b73d3cbf6add75750,68817205a84113384fffdfe3,688229c4704a76f51b67c797,,,,,,,,,,,,./stim/wavs/cuban_match_declarative-broad-focus_Mariano-habla-del-tiempo.wav,0,,,160.08,162.7148,0,1,2.1046,,0,43,43,54,1,55,0,cuban,,,,,,,,,,,,,,,,,,,,,,,,,,,,,,,,,,,,,,,,,,,,,,,,,,,,,,,,
,,,,,,,,,6768815b73d3cbf6add75750,Spanish,13 or older,"no, only English or Spanish",no,2025-07-24_08h43.37.155,empathy_intonation_perc_control,2024.2.4,Win32,59.17159763,6768815b73d3cbf6add75750,68817205a84113384fffdfe3,688229c4704a76f51b67c797,,,,,,,,,,,,./stim/wavs/puertorican_match_declarative-broad-focus_Daniel-iba-a-Bolivia.wav,0,,,162.7159,165.6769,0,1,2.4419,,0,44,44,63,1,64,0,puertorican,,,,,,,,,,,,,,,,,,,,,,,,,,,,,,,,,,,,,,,,,,,,,,,,,,,,,,,,
,,,,,,,,,6768815b73d3cbf6add75750,Spanish,13 or older,"no, only English or Spanish",no,2025-07-24_08h43.37.155,empathy_intonation_perc_control,2024.2.4,Win32,59.17159763,6768815b73d3cbf6add75750,68817205a84113384fffdfe3,688229c4704a76f51b67c797,,,,,,,,,,,,./stim/wavs/cuban_mismatch_declarative-broad-focus_Mi-tia-odia-la-lluvia.wav,0,,,165.6783,168.1328,0,1,1.9277,,0,45,45,77,1,78,0,cuban,,,,,,,,,,,,,,,,,,,,,,,,,,,,,,,,,,,,,,,,,,,,,,,,,,,,,,,,
,,,,,,,,,6768815b73d3cbf6add75750,Spanish,13 or older,"no, only English or Spanish",no,2025-07-24_08h43.37.155,empathy_intonation_perc_control,2024.2.4,Win32,59.17159763,6768815b73d3cbf6add75750,68817205a84113384fffdfe3,688229c4704a76f51b67c797,,,,,,,,,,,,./stim/wavs/cuban_mismatch_declarative-broad-focus_El-bebe-comia-muy-bien.wav,0,,,168.137,170.8329,0,1,2.1713,,0,46,46,73,1,74,0,cuban,,,,,,,,,,,,,,,,,,,,,,,,,,,,,,,,,,,,,,,,,,,,,,,,,,,,,,,,
,,,,,,,,,6768815b73d3cbf6add75750,Spanish,13 or older,"no, only English or Spanish",no,2025-07-24_08h43.37.155,empathy_intonation_perc_control,2024.2.4,Win32,59.17159763,6768815b73d3cbf6add75750,68817205a84113384fffdfe3,688229c4704a76f51b67c797,,,,,,,,,,,,./stim/wavs/cuban_mismatch_interrogative-total-yn_Mi-novio-viene-del-lago.wav,1,,,170.8346,173.2806,0,0,1.9156,,0,47,47,32,1,33,1,cuban,,,,,,,,,,,,,,,,,,,,,,,,,,,,,,,,,,,,,,,,,,,,,,,,,,,,,,,,
,,,,,,,,,6768815b73d3cbf6add75750,Spanish,13 or older,"no, only English or Spanish",no,2025-07-24_08h43.37.155,empathy_intonation_perc_control,2024.2.4,Win32,59.17159763,6768815b73d3cbf6add75750,68817205a84113384fffdfe3,688229c4704a76f51b67c797,,,,,,,,,,,,./stim/wavs/castilian_mismatch_interrogative-total-yn_La-maestra-vive-en-Paris.wav,1,,,173.2856,176.5766,1,1,2.7476,,0,48,48,24,1,25,0,castilian,,,,,,,,,,,,,,,,,,,,,,,,,,,,,,,,,,,,,,,,,,,,,,,,,,,,,,,,
,,,,,,,,,6768815b73d3cbf6add75750,Spanish,13 or older,"no, only English or Spanish",no,2025-07-24_08h43.37.155,empathy_intonation_perc_control,2024.2.4,Win32,59.17159763,6768815b73d3cbf6add75750,68817205a84113384fffdfe3,688229c4704a76f51b67c797,,,,,,,,,,,,./stim/wavs/castilian_mismatch_interrogative-total-yn_Mi-madre-come-la-fruta.wav,1,,,176.5788,179.3591,1,1,2.2351,,0,49,49,26,1,27,0,castilian,,,,,,,,,,,,,,,,,,,,,,,,,,,,,,,,,,,,,,,,,,,,,,,,,,,,,,,,
,,,,,,,,,6768815b73d3cbf6add75750,Spanish,13 or older,"no, only English or Spanish",no,2025-07-24_08h43.37.155,empathy_intonation_perc_control,2024.2.4,Win32,59.17159763,6768815b73d3cbf6add75750,68817205a84113384fffdfe3,688229c4704a76f51b67c797,,,,,,,,,,,,./stim/wavs/castilian_match_interrogative-total-yn_Manuela-vende-el-carro.wav,1,,,179.3621,182.0694,1,1,2.1767,,0,50,50,2,1,3,0,castilian,,,,,,,,,,,,,,,,,,,,,,,,,,,,,,,,,,,,,,,,,,,,,,,,,,,,,,,,
,,,,,,,,,6768815b73d3cbf6add75750,Spanish,13 or older,"no, only English or Spanish",no,2025-07-24_08h43.37.155,empathy_intonation_perc_control,2024.2.4,Win32,59.17159763,6768815b73d3cbf6add75750,68817205a84113384fffdfe3,688229c4704a76f51b67c797,,,,,,,,,,,,./stim/wavs/castilian_match_interrogative-total-yn_Maria-bebe-el-vino.wav,1,,,182.0715,184.498,1,1,1.8817,,0,51,51,3,1,4,0,castilian,,,,,,,,,,,,,,,,,,,,,,,,,,,,,,,,,,,,,,,,,,,,,,,,,,,,,,,,
,,,,,,,,,6768815b73d3cbf6add75750,Spanish,13 or older,"no, only English or Spanish",no,2025-07-24_08h43.37.155,empathy_intonation_perc_control,2024.2.4,Win32,59.17159763,6768815b73d3cbf6add75750,68817205a84113384fffdfe3,688229c4704a76f51b67c797,,,,,,,,,,,,./stim/wavs/mexican_mismatch_declarative-broad-focus_El-bebe-comia-muy-bien.wav,0,,,184.5008,186.7743,0,1,1.7247,,0,52,52,78,1,79,0,mexican,,,,,,,,,,,,,,,,,,,,,,,,,,,,,,,,,,,,,,,,,,,,,,,,,,,,,,,,
,,,,,,,,,6768815b73d3cbf6add75750,Spanish,13 or older,"no, only English or Spanish",no,2025-07-24_08h43.37.155,empathy_intonation_perc_control,2024.2.4,Win32,59.17159763,6768815b73d3cbf6add75750,68817205a84113384fffdfe3,688229c4704a76f51b67c797,,,,,,,,,,,,./stim/wavs/puertorican_match_declarative-broad-focus_David-leia-el-libro.wav,0,,,186.7754,189.1771,0,1,1.8804,,0,53,53,64,1,65,0,puertorican,,,,,,,,,,,,,,,,,,,,,,,,,,,,,,,,,,,,,,,,,,,,,,,,,,,,,,,,
,,,,,,,,,6768815b73d3cbf6add75750,Spanish,13 or older,"no, only English or Spanish",no,2025-07-24_08h43.37.155,empathy_intonation_perc_control,2024.2.4,Win32,59.17159763,6768815b73d3cbf6add75750,68817205a84113384fffdfe3,688229c4704a76f51b67c797,,,,,,,,,,,,./stim/wavs/castilian_mismatch_declarative-broad-focus_La-nina-lava-el-plato.wav,0,,,189.1791,191.6924,1,0,1.9769,,0,54,54,70,1,71,0,castilian,,,,,,,,,,,,,,,,,,,,,,,,,,,,,,,,,,,,,,,,,,,,,,,,,,,,,,,,
,,,,,,,,,6768815b73d3cbf6add75750,Spanish,13 or older,"no, only English or Spanish",no,2025-07-24_08h43.37.155,empathy_intonation_perc_control,2024.2.4,Win32,59.17159763,6768815b73d3cbf6add75750,68817205a84113384fffdfe3,688229c4704a76f51b67c797,,,,,,,,,,,,./stim/wavs/mexican_mismatch_interrogative-total-yn_El-hombre-mira-la-luna.wav,1,,,191.6943,194.0445,0,0,1.8338,,0,55,55,34,1,35,0,mexican,,,,,,,,,,,,,,,,,,,,,,,,,,,,,,,,,,,,,,,,,,,,,,,,,,,,,,,,
,,,,,,,,,6768815b73d3cbf6add75750,Spanish,13 or older,"no, only English or Spanish",no,2025-07-24_08h43.37.155,empathy_intonation_perc_control,2024.2.4,Win32,59.17159763,6768815b73d3cbf6add75750,68817205a84113384fffdfe3,688229c4704a76f51b67c797,,,,,,,,,,,,./stim/wavs/cuban_mismatch_declarative-broad-focus_La-nina-lava-el-plato.wav,0,,,194.0456,196.3432,1,0,1.7694,,0,56,56,75,1,76,0,cuban,,,,,,,,,,,,,,,,,,,,,,,,,,,,,,,,,,,,,,,,,,,,,,,,,,,,,,,,
,,,,,,,,,6768815b73d3cbf6add75750,Spanish,13 or older,"no, only English or Spanish",no,2025-07-24_08h43.37.155,empathy_intonation_perc_control,2024.2.4,Win32,59.17159763,6768815b73d3cbf6add75750,68817205a84113384fffdfe3,688229c4704a76f51b67c797,,,,,,,,,,,,./stim/wavs/puertorican_mismatch_interrogative-total-yn_El-hombre-mira-la-luna.wav,1,,,196.3444,198.8676,1,1,1.9954,,0,57,57,39,1,40,1,puertorican,,,,,,,,,,,,,,,,,,,,,,,,,,,,,,,,,,,,,,,,,,,,,,,,,,,,,,,,
,,,,,,,,,6768815b73d3cbf6add75750,Spanish,13 or older,"no, only English or Spanish",no,2025-07-24_08h43.37.155,empathy_intonation_perc_control,2024.2.4,Win32,59.17159763,6768815b73d3cbf6add75750,68817205a84113384fffdfe3,688229c4704a76f51b67c797,,,,,,,,,,,,./stim/wavs/castilian_mismatch_interrogative-total-yn_Mi-novio-viene-del-lago.wav,1,,,198.8704,201.4692,1,1,2.0838,,0,58,58,27,1,28,0,castilian,,,,,,,,,,,,,,,,,,,,,,,,,,,,,,,,,,,,,,,,,,,,,,,,,,,,,,,,
,,,,,,,,,6768815b73d3cbf6add75750,Spanish,13 or older,"no, only English or Spanish",no,2025-07-24_08h43.37.155,empathy_intonation_perc_control,2024.2.4,Win32,59.17159763,6768815b73d3cbf6add75750,68817205a84113384fffdfe3,688229c4704a76f51b67c797,,,,,,,,,,,,./stim/wavs/mexican_mismatch_interrogative-total-yn_Mi-tia-odia-la-lluvia.wav,1,,,201.4712,204.2132,0,0,2.2146,,0,59,59,38,1,39,0,mexican,,,,,,,,,,,,,,,,,,,,,,,,,,,,,,,,,,,,,,,,,,,,,,,,,,,,,,,,
,,,,,,,,,6768815b73d3cbf6add75750,Spanish,13 or older,"no, only English or Spanish",no,2025-07-24_08h43.37.155,empathy_intonation_perc_control,2024.2.4,Win32,59.17159763,6768815b73d3cbf6add75750,68817205a84113384fffdfe3,688229c4704a76f51b67c797,,,,,,,,,,,,./stim/wavs/mexican_match_declarative-broad-focus_Marta-abre-el-regalo.wav,0,,,204.2149,206.8458,0,1,2.0902,,0,60,60,61,1,62,0,mexican,,,,,,,,,,,,,,,,,,,,,,,,,,,,,,,,,,,,,,,,,,,,,,,,,,,,,,,,
,,,,,,,,,6768815b73d3cbf6add75750,Spanish,13 or older,"no, only English or Spanish",no,2025-07-24_08h43.37.155,empathy_intonation_perc_control,2024.2.4,Win32,59.17159763,6768815b73d3cbf6add75750,68817205a84113384fffdfe3,688229c4704a76f51b67c797,,,,,,,,,,,,./stim/wavs/cuban_match_declarative-broad-focus_Manuela-vende-el-carro.wav,0,,,206.8473,209.2253,0,1,1.8516,,0,61,61,52,1,53,0,cuban,,,,,,,,,,,,,,,,,,,,,,,,,,,,,,,,,,,,,,,,,,,,,,,,,,,,,,,,
,,,,,,,,,6768815b73d3cbf6add75750,Spanish,13 or older,"no, only English or Spanish",no,2025-07-24_08h43.37.155,empathy_intonation_perc_control,2024.2.4,Win32,59.17159763,6768815b73d3cbf6add75750,68817205a84113384fffdfe3,688229c4704a76f51b67c797,,,,,,,,,,,,./stim/wavs/mexican_match_declarative-broad-focus_Mariano-habla-del-tiempo.wav,0,,,209.2269,212.4934,0,1,2.746,,0,62,62,60,1,61,0,mexican,,,,,,,,,,,,,,,,,,,,,,,,,,,,,,,,,,,,,,,,,,,,,,,,,,,,,,,,
,,,,,,,,,6768815b73d3cbf6add75750,Spanish,13 or older,"no, only English or Spanish",no,2025-07-24_08h43.37.155,empathy_intonation_perc_control,2024.2.4,Win32,59.17159763,6768815b73d3cbf6add75750,68817205a84113384fffdfe3,688229c4704a76f51b67c797,,,,,,,,,,,,./stim/wavs/puertorican_match_declarative-broad-focus_Maria-bebe-el-vino.wav,0,,,212.4947,214.7163,1,0,1.6933,,0,63,63,67,1,68,0,puertorican,,,,,,,,,,,,,,,,,,,,,,,,,,,,,,,,,,,,,,,,,,,,,,,,,,,,,,,,
,,,,,,,,,6768815b73d3cbf6add75750,Spanish,13 or older,"no, only English or Spanish",no,2025-07-24_08h43.37.155,empathy_intonation_perc_control,2024.2.4,Win32,59.17159763,6768815b73d3cbf6add75750,68817205a84113384fffdfe3,688229c4704a76f51b67c797,,,,,,,,,,,,./stim/wavs/castilian_match_interrogative-total-yn_Marta-abre-el-regalo.wav,1,,,214.7187,217.2636,1,1,2.0156,,0,64,64,5,1,6,0,castilian,,,,,,,,,,,,,,,,,,,,,,,,,,,,,,,,,,,,,,,,,,,,,,,,,,,,,,,,
,,,,,,,,,6768815b73d3cbf6add75750,Spanish,13 or older,"no, only English or Spanish",no,2025-07-24_08h43.37.155,empathy_intonation_perc_control,2024.2.4,Win32,59.17159763,6768815b73d3cbf6add75750,68817205a84113384fffdfe3,688229c4704a76f51b67c797,,,,,,,,,,,,./stim/wavs/puertorican_match_interrogative-total-yn_David-leia-el-libro.wav,1,,,217.2656,219.7979,0,0,2.0038,,0,65,65,20,1,21,1,puertorican,,,,,,,,,,,,,,,,,,,,,,,,,,,,,,,,,,,,,,,,,,,,,,,,,,,,,,,,
,,,,,,,,,6768815b73d3cbf6add75750,Spanish,13 or older,"no, only English or Spanish",no,2025-07-24_08h43.37.155,empathy_intonation_perc_control,2024.2.4,Win32,59.17159763,6768815b73d3cbf6add75750,68817205a84113384fffdfe3,688229c4704a76f51b67c797,,,,,,,,,,,,./stim/wavs/puertorican_mismatch_declarative-broad-focus_La-nina-lava-el-plato.wav,0,,,219.7994,221.9933,0,1,1.6758,,0,66,66,87,1,88,0,puertorican,,,,,,,,,,,,,,,,,,,,,,,,,,,,,,,,,,,,,,,,,,,,,,,,,,,,,,,,
,,,,,,,,,6768815b73d3cbf6add75750,Spanish,13 or older,"no, only English or Spanish",no,2025-07-24_08h43.37.155,empathy_intonation_perc_control,2024.2.4,Win32,59.17159763,6768815b73d3cbf6add75750,68817205a84113384fffdfe3,688229c4704a76f51b67c797,,,,,,,,,,,,./stim/wavs/castilian_match_declarative-broad-focus_Emilio-ama-la-marcha.wav,0,,,221.995,224.7879,0,1,2.266,,0,67,67,45,1,46,0,castilian,,,,,,,,,,,,,,,,,,,,,,,,,,,,,,,,,,,,,,,,,,,,,,,,,,,,,,,,
,,,,,,,,,6768815b73d3cbf6add75750,Spanish,13 or older,"no, only English or Spanish",no,2025-07-24_08h43.37.155,empathy_intonation_perc_control,2024.2.4,Win32,59.17159763,6768815b73d3cbf6add75750,68817205a84113384fffdfe3,688229c4704a76f51b67c797,,,,,,,,,,,,./stim/wavs/mexican_match_interrogative-total-yn_Mariano-habla-del-tiempo.wav,1,,,224.7899,227.4974,0,0,2.1648,,0,68,68,16,1,17,0,mexican,,,,,,,,,,,,,,,,,,,,,,,,,,,,,,,,,,,,,,,,,,,,,,,,,,,,,,,,
,,,,,,,,,6768815b73d3cbf6add75750,Spanish,13 or older,"no, only English or Spanish",no,2025-07-24_08h43.37.155,empathy_intonation_perc_control,2024.2.4,Win32,59.17159763,6768815b73d3cbf6add75750,68817205a84113384fffdfe3,688229c4704a76f51b67c797,,,,,,,,,,,,./stim/wavs/cuban_match_declarative-broad-focus_Ana-lleva-el-abrigo.wav,0,,,227.4997,230.5301,1,0,2.4954,,0,69,69,50,1,51,0,cuban,,,,,,,,,,,,,,,,,,,,,,,,,,,,,,,,,,,,,,,,,,,,,,,,,,,,,,,,
,,,,,,,,,6768815b73d3cbf6add75750,Spanish,13 or older,"no, only English or Spanish",no,2025-07-24_08h43.37.155,empathy_intonation_perc_control,2024.2.4,Win32,59.17159763,6768815b73d3cbf6add75750,68817205a84113384fffdfe3,688229c4704a76f51b67c797,,,,,,,,,,,,./stim/wavs/castilian_match_declarative-broad-focus_David-leia-el-libro.wav,0,,,230.532,233.3101,0,1,2.2487,,0,70,70,44,1,45,0,castilian,,,,,,,,,,,,,,,,,,,,,,,,,,,,,,,,,,,,,,,,,,,,,,,,,,,,,,,,
,,,,,,,,,6768815b73d3cbf6add75750,Spanish,13 or older,"no, only English or Spanish",no,2025-07-24_08h43.37.155,empathy_intonation_perc_control,2024.2.4,Win32,59.17159763,6768815b73d3cbf6add75750,68817205a84113384fffdfe3,688229c4704a76f51b67c797,,,,,,,,,,,,./stim/wavs/mexican_match_interrogative-total-yn_Daniel-iba-a-Bolivia.wav,1,,,233.312,235.9044,1,1,2.058,,0,71,71,13,1,14,0,mexican,,,,,,,,,,,,,,,,,,,,,,,,,,,,,,,,,,,,,,,,,,,,,,,,,,,,,,,,
,,,,,,,,,6768815b73d3cbf6add75750,Spanish,13 or older,"no, only English or Spanish",no,2025-07-24_08h43.37.155,empathy_intonation_perc_control,2024.2.4,Win32,59.17159763,6768815b73d3cbf6add75750,68817205a84113384fffdfe3,688229c4704a76f51b67c797,,,,,,,,,,,,./stim/wavs/puertorican_match_interrogative-total-yn_Daniel-iba-a-Bolivia.wav,1,,,235.9073,238.1803,1,1,1.7488,,0,72,72,19,1,20,1,puertorican,,,,,,,,,,,,,,,,,,,,,,,,,,,,,,,,,,,,,,,,,,,,,,,,,,,,,,,,
,,,,,,,,,6768815b73d3cbf6add75750,Spanish,13 or older,"no, only English or Spanish",no,2025-07-24_08h43.37.155,empathy_intonation_perc_control,2024.2.4,Win32,59.17159763,6768815b73d3cbf6add75750,68817205a84113384fffdfe3,688229c4704a76f51b67c797,,,,,,,,,,,,./stim/wavs/puertorican_mismatch_interrogative-total-yn_El-nino-oye-el-rio.wav,1,,,238.1819,240.8556,0,0,2.1482,,0,73,73,40,1,41,1,puertorican,,,,,,,,,,,,,,,,,,,,,,,,,,,,,,,,,,,,,,,,,,,,,,,,,,,,,,,,
,,,,,,,,,6768815b73d3cbf6add75750,Spanish,13 or older,"no, only English or Spanish",no,2025-07-24_08h43.37.155,empathy_intonation_perc_control,2024.2.4,Win32,59.17159763,6768815b73d3cbf6add75750,68817205a84113384fffdfe3,688229c4704a76f51b67c797,,,,,,,,,,,,./stim/wavs/cuban_match_interrogative-total-yn_Daniel-iba-a-Bolivia.wav,1,,,240.8581,243.2874,1,1,1.9131,,0,74,74,7,1,8,1,cuban,,,,,,,,,,,,,,,,,,,,,,,,,,,,,,,,,,,,,,,,,,,,,,,,,,,,,,,,
,,,,,,,,,6768815b73d3cbf6add75750,Spanish,13 or older,"no, only English or Spanish",no,2025-07-24_08h43.37.155,empathy_intonation_perc_control,2024.2.4,Win32,59.17159763,6768815b73d3cbf6add75750,68817205a84113384fffdfe3,688229c4704a76f51b67c797,,,,,,,,,,,,./stim/wavs/cuban_match_interrogative-total-yn_Maria-bebe-el-vino.wav,1,,,243.2893,245.4465,0,0,1.617,,0,75,75,9,1,10,1,cuban,,,,,,,,,,,,,,,,,,,,,,,,,,,,,,,,,,,,,,,,,,,,,,,,,,,,,,,,
,,,,,,,,,6768815b73d3cbf6add75750,Spanish,13 or older,"no, only English or Spanish",no,2025-07-24_08h43.37.155,empathy_intonation_perc_control,2024.2.4,Win32,59.17159763,6768815b73d3cbf6add75750,68817205a84113384fffdfe3,688229c4704a76f51b67c797,,,,,,,,,,,,./stim/wavs/puertorican_match_interrogative-total-yn_Manuela-vende-el-carro.wav,1,,,245.448,248.0201,0,0,2.0366,,0,76,76,22,1,23,1,puertorican,,,,,,,,,,,,,,,,,,,,,,,,,,,,,,,,,,,,,,,,,,,,,,,,,,,,,,,,
,,,,,,,,,6768815b73d3cbf6add75750,Spanish,13 or older,"no, only English or Spanish",no,2025-07-24_08h43.37.155,empathy_intonation_perc_control,2024.2.4,Win32,59.17159763,6768815b73d3cbf6add75750,68817205a84113384fffdfe3,688229c4704a76f51b67c797,,,,,,,,,,,,./stim/wavs/cuban_mismatch_interrogative-total-yn_Mi-tia-odia-la-lluvia.wav,1,,,248.0245,250.305,1,1,1.7614,,0,77,77,33,1,34,1,cuban,,,,,,,,,,,,,,,,,,,,,,,,,,,,,,,,,,,,,,,,,,,,,,,,,,,,,,,,
,,,,,,,,,6768815b73d3cbf6add75750,Spanish,13 or older,"no, only English or Spanish",no,2025-07-24_08h43.37.155,empathy_intonation_perc_control,2024.2.4,Win32,59.17159763,6768815b73d3cbf6add75750,68817205a84113384fffdfe3,688229c4704a76f51b67c797,,,,,,,,,,,,./stim/wavs/mexican_mismatch_interrogative-total-yn_Mi-novio-viene-del-lago.wav,1,,,250.3076,252.5523,0,0,1.7152,,0,78,78,37,1,38,0,mexican,,,,,,,,,,,,,,,,,,,,,,,,,,,,,,,,,,,,,,,,,,,,,,,,,,,,,,,,
,,,,,,,,,6768815b73d3cbf6add75750,Spanish,13 or older,"no, only English or Spanish",no,2025-07-24_08h43.37.155,empathy_intonation_perc_control,2024.2.4,Win32,59.17159763,6768815b73d3cbf6add75750,68817205a84113384fffdfe3,688229c4704a76f51b67c797,,,,,,,,,,,,./stim/wavs/castilian_mismatch_declarative-broad-focus_El-nino-oye-el-rio.wav,0,,,252.5553,255.2693,1,0,2.1947,,0,79,79,68,1,69,0,castilian,,,,,,,,,,,,,,,,,,,,,,,,,,,,,,,,,,,,,,,,,,,,,,,,,,,,,,,,
,,,,,,,,,6768815b73d3cbf6add75750,Spanish,13 or older,"no, only English or Spanish",no,2025-07-24_08h43.37.155,empathy_intonation_perc_control,2024.2.4,Win32,59.17159763,6768815b73d3cbf6add75750,68817205a84113384fffdfe3,688229c4704a76f51b67c797,,,,,,,,,,,,./stim/wavs/puertorican_mismatch_declarative-broad-focus_El-bebe-comia-muy-bien.wav,0,,,255.2711,257.8001,0,1,2.0018,,0,80,80,83,1,84,0,puertorican,,,,,,,,,,,,,,,,,,,,,,,,,,,,,,,,,,,,,,,,,,,,,,,,,,,,,,,,
,,,,,,,,,6768815b73d3cbf6add75750,Spanish,13 or older,"no, only English or Spanish",no,2025-07-24_08h43.37.155,empathy_intonation_perc_control,2024.2.4,Win32,59.17159763,6768815b73d3cbf6add75750,68817205a84113384fffdfe3,688229c4704a76f51b67c797,,,,,,,,,,,,./stim/wavs/cuban_match_interrogative-total-yn_Ana-lleva-el-abrigo.wav,1,,,257.8033,260.2041,1,1,1.8664,,0,81,81,6,1,7,1,cuban,,,,,,,,,,,,,,,,,,,,,,,,,,,,,,,,,,,,,,,,,,,,,,,,,,,,,,,,
,,,,,,,,,6768815b73d3cbf6add75750,Spanish,13 or older,"no, only English or Spanish",no,2025-07-24_08h43.37.155,empathy_intonation_perc_control,2024.2.4,Win32,59.17159763,6768815b73d3cbf6add75750,68817205a84113384fffdfe3,688229c4704a76f51b67c797,,,,,,,,,,,,./stim/wavs/castilian_mismatch_declarative-broad-focus_Mi-novio-viene-del-lago.wav,0,,,260.2056,262.4163,0,1,1.6864,,0,82,82,71,1,72,0,castilian,,,,,,,,,,,,,,,,,,,,,,,,,,,,,,,,,,,,,,,,,,,,,,,,,,,,,,,,
,,,,,,,,,6768815b73d3cbf6add75750,Spanish,13 or older,"no, only English or Spanish",no,2025-07-24_08h43.37.155,empathy_intonation_perc_control,2024.2.4,Win32,59.17159763,6768815b73d3cbf6add75750,68817205a84113384fffdfe3,688229c4704a76f51b67c797,,,,,,,,,,,,./stim/wavs/castilian_match_declarative-broad-focus_Manuela-vende-el-carro.wav,0,,,262.4181,264.8644,1,0,1.9245,,0,83,83,46,1,47,0,castilian,,,,,,,,,,,,,,,,,,,,,,,,,,,,,,,,,,,,,,,,,,,,,,,,,,,,,,,,
,,,,,,,,,6768815b73d3cbf6add75750,Spanish,13 or older,"no, only English or Spanish",no,2025-07-24_08h43.37.155,empathy_intonation_perc_control,2024.2.4,Win32,59.17159763,6768815b73d3cbf6add75750,68817205a84113384fffdfe3,688229c4704a76f51b67c797,,,,,,,,,,,,./stim/wavs/castilian_match_declarative-broad-focus_Maria-bebe-el-vino.wav,0,,,264.8662,267.3057,1,0,1.9187,,0,84,84,47,1,48,0,castilian,,,,,,,,,,,,,,,,,,,,,,,,,,,,,,,,,,,,,,,,,,,,,,,,,,,,,,,,
,,,,,,,,,6768815b73d3cbf6add75750,Spanish,13 or older,"no, only English or Spanish",no,2025-07-24_08h43.37.155,empathy_intonation_perc_control,2024.2.4,Win32,59.17159763,6768815b73d3cbf6add75750,68817205a84113384fffdfe3,688229c4704a76f51b67c797,,,,,,,,,,,,./stim/wavs/mexican_mismatch_interrogative-total-yn_La-maestra-vive-en-Paris.wav,1,,,267.3075,269.9847,0,0,2.15,,0,85,85,36,1,37,0,mexican,,,,,,,,,,,,,,,,,,,,,,,,,,,,,,,,,,,,,,,,,,,,,,,,,,,,,,,,
,,,,,,,,,6768815b73d3cbf6add75750,Spanish,13 or older,"no, only English or Spanish",no,2025-07-24_08h43.37.155,empathy_intonation_perc_control,2024.2.4,Win32,59.17159763,6768815b73d3cbf6add75750,68817205a84113384fffdfe3,688229c4704a76f51b67c797,,,,,,,,,,,,./stim/wavs/mexican_match_interrogative-total-yn_David-leia-el-libro.wav,1,,,269.9864,272.3028,0,0,1.7883,,0,86,86,14,1,15,0,mexican,,,,,,,,,,,,,,,,,,,,,,,,,,,,,,,,,,,,,,,,,,,,,,,,,,,,,,,,
,,,,,,,,,6768815b73d3cbf6add75750,Spanish,13 or older,"no, only English or Spanish",no,2025-07-24_08h43.37.155,empathy_intonation_perc_control,2024.2.4,Win32,59.17159763,6768815b73d3cbf6add75750,68817205a84113384fffdfe3,688229c4704a76f51b67c797,,,,,,,,,,,,./stim/wavs/castilian_mismatch_interrogative-total-yn_Mi-tia-odia-la-lluvia.wav,1,,,272.3047,274.9007,1,1,2.0695,,0,87,87,28,1,29,0,castilian,,,,,,,,,,,,,,,,,,,,,,,,,,,,,,,,,,,,,,,,,,,,,,,,,,,,,,,,
,,,,,,,"Great! Now we will move on. The next task consists of about 60 trials, in each of which you will see a string of letters. 
  
  Your task is to decide whether this is a real Spanish word or not.", (press the spacebar to continue),6768815b73d3cbf6add75750,Spanish,13 or older,"no, only English or Spanish",no,2025-07-24_08h43.37.155,empathy_intonation_perc_control,2024.2.4,Win32,59.17159763,6768815b73d3cbf6add75750,68817205a84113384fffdfe3,688229c4704a76f51b67c797,,,,,,,,,,,,,,,,,,,,,,,,,,,,,,274.9206,284.5125,0,0,0,0,1,,,,,,,,,,,,,,,,,,,,,,,,,,,,,,,,,,,,,,,,,,,,,,,,,
,,,,,,,"If you think it is an existing Spanish word, you type '1' (for 'REAL'), and if you think it is not an existing Spanish word, you type '0' (for 'FAKE').", (press the spacebar to continue),6768815b73d3cbf6add75750,Spanish,13 or older,"no, only English or Spanish",no,2025-07-24_08h43.37.155,empathy_intonation_perc_control,2024.2.4,Win32,59.17159763,6768815b73d3cbf6add75750,68817205a84113384fffdfe3,688229c4704a76f51b67c797,,,,,,,,,,,,,,,,,,,,,,,,,,,,,,284.5203,293.8749,0,1,1,1,1,,,,,,,,,,,,,,,,,,,,,,,,,,,,,,,,,,,,,,,,,,,,,,,,,
,,,,,,,"If you are sure that the word exists, even though you don’t know its exact meaning, you may still respond '1' (REAL). 
  
  But if you are not sure if it is an existing word, you should respond '0' (FAKE).
  
  Let's do a practice round...", (press the spacebar to continue),6768815b73d3cbf6add75750,Spanish,13 or older,"no, only English or Spanish",no,2025-07-24_08h43.37.155,empathy_intonation_perc_control,2024.2.4,Win32,59.17159763,6768815b73d3cbf6add75750,68817205a84113384fffdfe3,688229c4704a76f51b67c797,,,,,,,,,,,,,,,,,,,,,,,,,,,,,,293.8819,308.5199,0,2,2,2,1,,,,,,,,,,,,,,,,,,,,,,,,,,,,,,,,,,,,,,,,,,,,,,,,,
,,,,,,,,,6768815b73d3cbf6add75750,Spanish,13 or older,"no, only English or Spanish",no,2025-07-24_08h43.37.155,empathy_intonation_perc_control,2024.2.4,Win32,59.17159763,6768815b73d3cbf6add75750,68817205a84113384fffdfe3,688229c4704a76f51b67c797,,,,,,,,,,,,,0,,,,,,,,,,,,,,,,,,,,,,,,308.5358,311.2177,1,0,2.1437,,311.219,312.2151,0,0,0,0,1,0,depiste,REAL,FAKE,,,,,,,,,,,,,,,,,,,,,,,,,,,,,,,,
,,,,,,,,,6768815b73d3cbf6add75750,Spanish,13 or older,"no, only English or Spanish",no,2025-07-24_08h43.37.155,empathy_intonation_perc_control,2024.2.4,Win32,59.17159763,6768815b73d3cbf6add75750,68817205a84113384fffdfe3,688229c4704a76f51b67c797,,,,,,,,,,,,,1,,,,,,,,,,,,,,,,,,,,,,,,312.2209,315.4831,1,1,2.7315,,315.4864,316.4827,0,1,1,1,1,0,sí,REAL,FAKE,,,,,,,,,,,,,,,,,,,,,,,,,,,,,,,,
,,,,,,,,,6768815b73d3cbf6add75750,Spanish,13 or older,"no, only English or Spanish",no,2025-07-24_08h43.37.155,empathy_intonation_perc_control,2024.2.4,Win32,59.17159763,6768815b73d3cbf6add75750,68817205a84113384fffdfe3,688229c4704a76f51b67c797,,,,,,,,,,,,,0,,,,,,,,,,,,,,,,,,,,,,,,316.4867,319.7622,0,1,2.7464,,319.7623,320.7593,0,2,2,2,1,0,coné,REAL,FAKE,,,,,,,,,,,,,,,,,,,,,,,,,,,,,,,,
,,,,,,,,,6768815b73d3cbf6add75750,Spanish,13 or older,"no, only English or Spanish",no,2025-07-24_08h43.37.155,empathy_intonation_perc_control,2024.2.4,Win32,59.17159763,6768815b73d3cbf6add75750,68817205a84113384fffdfe3,688229c4704a76f51b67c797,,,,,,,,,,,,,0,,,,,,,,,,,,,,,,,,,,,,,,320.7628,322.7093,0,1,1.4151,,322.7097,323.7069,0,3,3,3,1,0,calpar,REAL,FAKE,,,,,,,,,,,,,,,,,,,,,,,,,,,,,,,,
,,,,,,,,,6768815b73d3cbf6add75750,Spanish,13 or older,"no, only English or Spanish",no,2025-07-24_08h43.37.155,empathy_intonation_perc_control,2024.2.4,Win32,59.17159763,6768815b73d3cbf6add75750,68817205a84113384fffdfe3,688229c4704a76f51b67c797,,,,,,,,,,,,,0,,,,,,,,,,,,,,,,,,,,,,,,323.7112,325.1921,1,0,0.9478,,325.1974,326.1861,0,4,4,4,1,0,joten,REAL,FAKE,,,,,,,,,,,,,,,,,,,,,,,,,,,,,,,,
,,,,,,,,,6768815b73d3cbf6add75750,Spanish,13 or older,"no, only English or Spanish",no,2025-07-24_08h43.37.155,empathy_intonation_perc_control,2024.2.4,Win32,59.17159763,6768815b73d3cbf6add75750,68817205a84113384fffdfe3,688229c4704a76f51b67c797,,,,,,,,,,,,,1,,,,,,,,,,,,,,,,,,,,,,,,326.1891,328.0374,1,1,1.3121,,328.0396,329.0432,0,5,5,5,1,0,sacapuntas,REAL,FAKE,,,,,,,,,,,,,,,,,,,,,,,,,,,,,,,,
,,,,,,,,,6768815b73d3cbf6add75750,Spanish,13 or older,"no, only English or Spanish",no,2025-07-24_08h43.37.155,empathy_intonation_perc_control,2024.2.4,Win32,59.17159763,6768815b73d3cbf6add75750,68817205a84113384fffdfe3,688229c4704a76f51b67c797,,,,,,,,,,,,,0,,,,,,,,,,,,,,,,,,,,,,,,329.0469,330.6134,0,1,1.027,,330.6136,331.5931,0,6,6,6,1,0,priba,REAL,FAKE,,,,,,,,,,,,,,,,,,,,,,,,,,,,,,,,
,,,,,,,,,6768815b73d3cbf6add75750,Spanish,13 or older,"no, only English or Spanish",no,2025-07-24_08h43.37.155,empathy_intonation_perc_control,2024.2.4,Win32,59.17159763,6768815b73d3cbf6add75750,68817205a84113384fffdfe3,688229c4704a76f51b67c797,,,,,,,,,,,,,0,,,,,,,,,,,,,,,,,,,,,,,,331.5975,333.1165,1,0,0.9964,,333.1186,334.1158,0,7,7,7,1,0,pelasula,REAL,FAKE,,,,,,,,,,,,,,,,,,,,,,,,,,,,,,,,
,,,,,,,,,6768815b73d3cbf6add75750,Spanish,13 or older,"no, only English or Spanish",no,2025-07-24_08h43.37.155,empathy_intonation_perc_control,2024.2.4,Win32,59.17159763,6768815b73d3cbf6add75750,68817205a84113384fffdfe3,688229c4704a76f51b67c797,,,,,,,,,,,,,1,,,,,,,,,,,,,,,,,,,,,,,,334.1187,335.7721,1,1,1.1281,,335.7752,336.7741,0,8,8,8,1,0,bien,REAL,FAKE,,,,,,,,,,,,,,,,,,,,,,,,,,,,,,,,
,,,,,,,,,6768815b73d3cbf6add75750,Spanish,13 or older,"no, only English or Spanish",no,2025-07-24_08h43.37.155,empathy_intonation_perc_control,2024.2.4,Win32,59.17159763,6768815b73d3cbf6add75750,68817205a84113384fffdfe3,688229c4704a76f51b67c797,,,,,,,,,,,,,1,,,,,,,,,,,,,,,,,,,,,,,,336.7773,338.126,1,1,0.8166,,338.1262,339.1217,0,9,9,9,1,0,casa,REAL,FAKE,,,,,,,,,,,,,,,,,,,,,,,,,,,,,,,,
,,,,,,,,,6768815b73d3cbf6add75750,Spanish,13 or older,"no, only English or Spanish",no,2025-07-24_08h43.37.155,empathy_intonation_perc_control,2024.2.4,Win32,59.17159763,6768815b73d3cbf6add75750,68817205a84113384fffdfe3,688229c4704a76f51b67c797,,,,,,,,,,,,,0,,,,,,,,,,,,,,,,,,,,,,,,339.1257,340.568,0,1,0.9196,,340.5683,341.5707,0,10,10,10,1,0,lejo,REAL,FAKE,,,,,,,,,,,,,,,,,,,,,,,,,,,,,,,,
,,,,,,,,,6768815b73d3cbf6add75750,Spanish,13 or older,"no, only English or Spanish",no,2025-07-24_08h43.37.155,empathy_intonation_perc_control,2024.2.4,Win32,59.17159763,6768815b73d3cbf6add75750,68817205a84113384fffdfe3,688229c4704a76f51b67c797,,,,,,,,,,,,,0,,,,,,,,,,,,,,,,,,,,,,,,341.5739,343.4159,0,1,1.3182,,343.416,344.4099,0,11,11,11,1,0,pretantas,REAL,FAKE,,,,,,,,,,,,,,,,,,,,,,,,,,,,,,,,
,,,,,,,,,6768815b73d3cbf6add75750,Spanish,13 or older,"no, only English or Spanish",no,2025-07-24_08h43.37.155,empathy_intonation_perc_control,2024.2.4,Win32,59.17159763,6768815b73d3cbf6add75750,68817205a84113384fffdfe3,688229c4704a76f51b67c797,,,,,,,,,,,,,,,,,,,,,,,,,,,,,,,,,,,,,,,,,,,,,,,,,,,,,,344.4107,366.4111,,,,,,,,,,,,,,,,,,,,,,,,,,,,,,
,,,,,,,,,6768815b73d3cbf6add75750,Spanish,13 or older,"no, only English or Spanish",no,2025-07-24_08h43.37.155,empathy_intonation_perc_control,2024.2.4,Win32,59.17159763,6768815b73d3cbf6add75750,68817205a84113384fffdfe3,688229c4704a76f51b67c797,,,,,,,,,,,,,1,,,,,,,,,,,,,,,,,,,,,,,,,,,,,,,,,,,,,25,bisagra,,,,,366.4517,367.9706,1,1,0.9801,,0,0,0,24,1,REAL,FAKE,,,,,,,,,,,,,,,,,
,,,,,,,,,6768815b73d3cbf6add75750,Spanish,13 or older,"no, only English or Spanish",no,2025-07-24_08h43.37.155,empathy_intonation_perc_control,2024.2.4,Win32,59.17159763,6768815b73d3cbf6add75750,68817205a84113384fffdfe3,688229c4704a76f51b67c797,,,,,,,,,,,,,1,,,,,,,,,,,,,,,,,,,,,,,,,,,,,,,,,,,,,44,cuchara,,,,,367.9741,369.0186,0,0,0.5163,,0,1,1,43,1,REAL,FAKE,,,,,,,,,,,,,,,,,
,,,,,,,,,6768815b73d3cbf6add75750,Spanish,13 or older,"no, only English or Spanish",no,2025-07-24_08h43.37.155,empathy_intonation_perc_control,2024.2.4,Win32,59.17159763,6768815b73d3cbf6add75750,68817205a84113384fffdfe3,688229c4704a76f51b67c797,,,,,,,,,,,,,1,,,,,,,,,,,,,,,,,,,,,,,,,,,,,,,,,,,,,24,látigo,,,,,369.0229,370.1086,1,1,0.559,,0,2,2,23,1,REAL,FAKE,,,,,,,,,,,,,,,,,
,,,,,,,,,6768815b73d3cbf6add75750,Spanish,13 or older,"no, only English or Spanish",no,2025-07-24_08h43.37.155,empathy_intonation_perc_control,2024.2.4,Win32,59.17159763,6768815b73d3cbf6add75750,68817205a84113384fffdfe3,688229c4704a76f51b67c797,,,,,,,,,,,,,1,,,,,,,,,,,,,,,,,,,,,,,,,,,,,,,,,,,,,51,candado,,,,,370.1123,371.2358,1,1,0.6013,,0,3,3,50,1,REAL,FAKE,,,,,,,,,,,,,,,,,
,,,,,,,,,6768815b73d3cbf6add75750,Spanish,13 or older,"no, only English or Spanish",no,2025-07-24_08h43.37.155,empathy_intonation_perc_control,2024.2.4,Win32,59.17159763,6768815b73d3cbf6add75750,68817205a84113384fffdfe3,688229c4704a76f51b67c797,,,,,,,,,,,,,1,,,,,,,,,,,,,,,,,,,,,,,,,,,,,,,,,,,,,69,engatusar,,,,,371.2387,372.3474,0,0,0.578,,0,4,4,68,1,REAL,FAKE,,,,,,,,,,,,,,,,,
,,,,,,,,,6768815b73d3cbf6add75750,Spanish,13 or older,"no, only English or Spanish",no,2025-07-24_08h43.37.155,empathy_intonation_perc_control,2024.2.4,Win32,59.17159763,6768815b73d3cbf6add75750,68817205a84113384fffdfe3,688229c4704a76f51b67c797,,,,,,,,,,,,,0,,,,,,,,,,,,,,,,,,,,,,,,,,,,,,,,,,,,,18,arsa,,,,,372.3509,373.4986,0,1,0.6146,,0,5,5,17,1,REAL,FAKE,,,,,,,,,,,,,,,,,
,,,,,,,,,6768815b73d3cbf6add75750,Spanish,13 or older,"no, only English or Spanish",no,2025-07-24_08h43.37.155,empathy_intonation_perc_control,2024.2.4,Win32,59.17159763,6768815b73d3cbf6add75750,68817205a84113384fffdfe3,688229c4704a76f51b67c797,,,,,,,,,,,,,1,,,,,,,,,,,,,,,,,,,,,,,,,,,,,,,,,,,,,68,alegre,,,,,373.5021,374.5974,1,1,0.5622,,0,6,6,67,1,REAL,FAKE,,,,,,,,,,,,,,,,,
,,,,,,,,,6768815b73d3cbf6add75750,Spanish,13 or older,"no, only English or Spanish",no,2025-07-24_08h43.37.155,empathy_intonation_perc_control,2024.2.4,Win32,59.17159763,6768815b73d3cbf6add75750,68817205a84113384fffdfe3,688229c4704a76f51b67c797,,,,,,,,,,,,,0,,,,,,,,,,,,,,,,,,,,,,,,,,,,,,,,,,,,,74,cintro,,,,,374.6008,375.818,1,0,0.6872,,0,7,7,73,1,REAL,FAKE,,,,,,,,,,,,,,,,,
,,,,,,,,,6768815b73d3cbf6add75750,Spanish,13 or older,"no, only English or Spanish",no,2025-07-24_08h43.37.155,empathy_intonation_perc_control,2024.2.4,Win32,59.17159763,6768815b73d3cbf6add75750,68817205a84113384fffdfe3,688229c4704a76f51b67c797,,,,,,,,,,,,,1,,,,,,,,,,,,,,,,,,,,,,,,,,,,,,,,,,,,,91,click the 1 key.,,,,,375.8217,377.9577,1,1,1.6081,,0,8,8,90,1,REAL,FAKE,,,,,,,,,,,,,,,,,
,,,,,,,,,6768815b73d3cbf6add75750,Spanish,13 or older,"no, only English or Spanish",no,2025-07-24_08h43.37.155,empathy_intonation_perc_control,2024.2.4,Win32,59.17159763,6768815b73d3cbf6add75750,68817205a84113384fffdfe3,688229c4704a76f51b67c797,,,,,,,,,,,,,0,,,,,,,,,,,,,,,,,,,,,,,,,,,,,,,,,,,,,82,empirador,,,,,377.9659,379.0253,0,1,0.5288,,0,9,9,81,1,REAL,FAKE,,,,,,,,,,,,,,,,,
,,,,,,,,,6768815b73d3cbf6add75750,Spanish,13 or older,"no, only English or Spanish",no,2025-07-24_08h43.37.155,empathy_intonation_perc_control,2024.2.4,Win32,59.17159763,6768815b73d3cbf6add75750,68817205a84113384fffdfe3,688229c4704a76f51b67c797,,,,,,,,,,,,,0,,,,,,,,,,,,,,,,,,,,,,,,,,,,,,,,,,,,,17,floroso,,,,,379.0293,380.1706,1,0,0.6179,,0,10,10,16,1,REAL,FAKE,,,,,,,,,,,,,,,,,
,,,,,,,,,6768815b73d3cbf6add75750,Spanish,13 or older,"no, only English or Spanish",no,2025-07-24_08h43.37.155,empathy_intonation_perc_control,2024.2.4,Win32,59.17159763,6768815b73d3cbf6add75750,68817205a84113384fffdfe3,688229c4704a76f51b67c797,,,,,,,,,,,,,0,,,,,,,,,,,,,,,,,,,,,,,,,,,,,,,,,,,,,58,plaudir,,,,,380.1763,381.1158,0,1,0.4049,,0,11,11,57,1,REAL,FAKE,,,,,,,,,,,,,,,,,
,,,,,,,,,6768815b73d3cbf6add75750,Spanish,13 or older,"no, only English or Spanish",no,2025-07-24_08h43.37.155,empathy_intonation_perc_control,2024.2.4,Win32,59.17159763,6768815b73d3cbf6add75750,68817205a84113384fffdfe3,688229c4704a76f51b67c797,,,,,,,,,,,,,1,,,,,,,,,,,,,,,,,,,,,,,,,,,,,,,,,,,,,3,pulmones,,,,,381.1183,382.1401,1,1,0.491,,0,12,12,2,1,REAL,FAKE,,,,,,,,,,,,,,,,,
,,,,,,,,,6768815b73d3cbf6add75750,Spanish,13 or older,"no, only English or Spanish",no,2025-07-24_08h43.37.155,empathy_intonation_perc_control,2024.2.4,Win32,59.17159763,6768815b73d3cbf6add75750,68817205a84113384fffdfe3,688229c4704a76f51b67c797,,,,,,,,,,,,,1,,,,,,,,,,,,,,,,,,,,,,,,,,,,,,,,,,,,,12,asesinato,,,,,382.1424,384.394,1,1,1.7299,,0,13,13,11,1,REAL,FAKE,,,,,,,,,,,,,,,,,
,,,,,,,,,6768815b73d3cbf6add75750,Spanish,13 or older,"no, only English or Spanish",no,2025-07-24_08h43.37.155,empathy_intonation_perc_control,2024.2.4,Win32,59.17159763,6768815b73d3cbf6add75750,68817205a84113384fffdfe3,688229c4704a76f51b67c797,,,,,,,,,,,,,1,,,,,,,,,,,,,,,,,,,,,,,,,,,,,,,,,,,,,88,acantilado,,,,,384.3968,385.346,0,0,0.4174,,0,14,14,87,1,REAL,FAKE,,,,,,,,,,,,,,,,,
,,,,,,,,,6768815b73d3cbf6add75750,Spanish,13 or older,"no, only English or Spanish",no,2025-07-24_08h43.37.155,empathy_intonation_perc_control,2024.2.4,Win32,59.17159763,6768815b73d3cbf6add75750,68817205a84113384fffdfe3,688229c4704a76f51b67c797,,,,,,,,,,,,,0,,,,,,,,,,,,,,,,,,,,,,,,,,,,,,,,,,,,,4,batillón,,,,,385.3504,386.4122,0,1,0.5339,,0,15,15,3,1,REAL,FAKE,,,,,,,,,,,,,,,,,
,,,,,,,,,6768815b73d3cbf6add75750,Spanish,13 or older,"no, only English or Spanish",no,2025-07-24_08h43.37.155,empathy_intonation_perc_control,2024.2.4,Win32,59.17159763,6768815b73d3cbf6add75750,68817205a84113384fffdfe3,688229c4704a76f51b67c797,,,,,,,,,,,,,1,,,,,,,,,,,,,,,,,,,,,,,,,,,,,,,,,,,,,37,granuja,,,,,386.4154,387.4403,1,1,0.4967,,0,16,16,36,1,REAL,FAKE,,,,,,,,,,,,,,,,,
,,,,,,,,,6768815b73d3cbf6add75750,Spanish,13 or older,"no, only English or Spanish",no,2025-07-24_08h43.37.155,empathy_intonation_perc_control,2024.2.4,Win32,59.17159763,6768815b73d3cbf6add75750,68817205a84113384fffdfe3,688229c4704a76f51b67c797,,,,,,,,,,,,,1,,,,,,,,,,,,,,,,,,,,,,,,,,,,,,,,,,,,,39,torpe,,,,,387.4438,388.3691,0,0,0.4067,,0,17,17,38,1,REAL,FAKE,,,,,,,,,,,,,,,,,
,,,,,,,,,6768815b73d3cbf6add75750,Spanish,13 or older,"no, only English or Spanish",no,2025-07-24_08h43.37.155,empathy_intonation_perc_control,2024.2.4,Win32,59.17159763,6768815b73d3cbf6add75750,68817205a84113384fffdfe3,688229c4704a76f51b67c797,,,,,,,,,,,,,1,,,,,,,,,,,,,,,,,,,,,,,,,,,,,,,,,,,,,90,clavel,,,,,388.373,389.3639,1,1,0.4698,,0,18,18,89,1,REAL,FAKE,,,,,,,,,,,,,,,,,
,,,,,,,,,6768815b73d3cbf6add75750,Spanish,13 or older,"no, only English or Spanish",no,2025-07-24_08h43.37.155,empathy_intonation_perc_control,2024.2.4,Win32,59.17159763,6768815b73d3cbf6add75750,68817205a84113384fffdfe3,688229c4704a76f51b67c797,,,,,,,,,,,,,1,,,,,,,,,,,,,,,,,,,,,,,,,,,,,,,,,,,,,52,camisa,,,,,389.3674,390.263,0,0,0.3624,,0,19,19,51,1,REAL,FAKE,,,,,,,,,,,,,,,,,
,,,,,,,,,6768815b73d3cbf6add75750,Spanish,13 or older,"no, only English or Spanish",no,2025-07-24_08h43.37.155,empathy_intonation_perc_control,2024.2.4,Win32,59.17159763,6768815b73d3cbf6add75750,68817205a84113384fffdfe3,688229c4704a76f51b67c797,,,,,,,,,,,,,1,,,,,,,,,,,,,,,,,,,,,,,,,,,,,,,,,,,,,77,tiburón,,,,,390.2661,391.1783,1,1,0.3802,,0,20,20,76,1,REAL,FAKE,,,,,,,,,,,,,,,,,
,,,,,,,,,6768815b73d3cbf6add75750,Spanish,13 or older,"no, only English or Spanish",no,2025-07-24_08h43.37.155,empathy_intonation_perc_control,2024.2.4,Win32,59.17159763,6768815b73d3cbf6add75750,68817205a84113384fffdfe3,688229c4704a76f51b67c797,,,,,,,,,,,,,1,,,,,,,,,,,,,,,,,,,,,,,,,,,,,,,,,,,,,62,flaco,,,,,391.1814,392.4815,0,0,0.7697,,0,21,21,61,1,REAL,FAKE,,,,,,,,,,,,,,,,,
,,,,,,,,,6768815b73d3cbf6add75750,Spanish,13 or older,"no, only English or Spanish",no,2025-07-24_08h43.37.155,empathy_intonation_perc_control,2024.2.4,Win32,59.17159763,6768815b73d3cbf6add75750,68817205a84113384fffdfe3,688229c4704a76f51b67c797,,,,,,,,,,,,,1,,,,,,,,,,,,,,,,,,,,,,,,,,,,,,,,,,,,,85,laúd,,,,,392.4846,393.6059,1,1,0.5958,,0,22,22,84,1,REAL,FAKE,,,,,,,,,,,,,,,,,
,,,,,,,,,6768815b73d3cbf6add75750,Spanish,13 or older,"no, only English or Spanish",no,2025-07-24_08h43.37.155,empathy_intonation_perc_control,2024.2.4,Win32,59.17159763,6768815b73d3cbf6add75750,68817205a84113384fffdfe3,688229c4704a76f51b67c797,,,,,,,,,,,,,0,,,,,,,,,,,,,,,,,,,,,,,,,,,,,,,,,,,,,30,alardio,,,,,393.6095,394.5919,1,0,0.4588,,0,23,23,29,1,REAL,FAKE,,,,,,,,,,,,,,,,,
,,,,,,,,,6768815b73d3cbf6add75750,Spanish,13 or older,"no, only English or Spanish",no,2025-07-24_08h43.37.155,empathy_intonation_perc_control,2024.2.4,Win32,59.17159763,6768815b73d3cbf6add75750,68817205a84113384fffdfe3,688229c4704a76f51b67c797,,,,,,,,,,,,,0,,,,,,,,,,,,,,,,,,,,,,,,,,,,,,,,,,,,,33,pauca,,,,,394.5949,395.6062,0,1,0.4807,,0,24,24,32,1,REAL,FAKE,,,,,,,,,,,,,,,,,
,,,,,,,,,6768815b73d3cbf6add75750,Spanish,13 or older,"no, only English or Spanish",no,2025-07-24_08h43.37.155,empathy_intonation_perc_control,2024.2.4,Win32,59.17159763,6768815b73d3cbf6add75750,68817205a84113384fffdfe3,688229c4704a76f51b67c797,,,,,,,,,,,,,1,,,,,,,,,,,,,,,,,,,,,,,,,,,,,,,,,,,,,67,cabello,,,,,395.6099,396.4886,1,1,0.3533,,0,25,25,66,1,REAL,FAKE,,,,,,,,,,,,,,,,,
,,,,,,,,,6768815b73d3cbf6add75750,Spanish,13 or older,"no, only English or Spanish",no,2025-07-24_08h43.37.155,empathy_intonation_perc_control,2024.2.4,Win32,59.17159763,6768815b73d3cbf6add75750,68817205a84113384fffdfe3,688229c4704a76f51b67c797,,,,,,,,,,,,,0,,,,,,,,,,,,,,,,,,,,,,,,,,,,,,,,,,,,,1,terzo,,,,,396.4917,397.4174,0,1,0.3976,,0,26,26,0,1,REAL,FAKE,,,,,,,,,,,,,,,,,
,,,,,,,,,6768815b73d3cbf6add75750,Spanish,13 or older,"no, only English or Spanish",no,2025-07-24_08h43.37.155,empathy_intonation_perc_control,2024.2.4,Win32,59.17159763,6768815b73d3cbf6add75750,68817205a84113384fffdfe3,688229c4704a76f51b67c797,,,,,,,,,,,,,0,,,,,,,,,,,,,,,,,,,,,,,,,,,,,,,,,,,,,79,tropaje,,,,,397.4214,398.639,0,1,0.6838,,0,27,27,78,1,REAL,FAKE,,,,,,,,,,,,,,,,,
,,,,,,,,,6768815b73d3cbf6add75750,Spanish,13 or older,"no, only English or Spanish",no,2025-07-24_08h43.37.155,empathy_intonation_perc_control,2024.2.4,Win32,59.17159763,6768815b73d3cbf6add75750,68817205a84113384fffdfe3,688229c4704a76f51b67c797,,,,,,,,,,,,,0,,,,,,,,,,,,,,,,,,,,,,,,,,,,,,,,,,,,,8,cadeña,,,,,398.6419,399.5392,0,1,0.3686,,0,28,28,7,1,REAL,FAKE,,,,,,,,,,,,,,,,,
,,,,,,,,,6768815b73d3cbf6add75750,Spanish,13 or older,"no, only English or Spanish",no,2025-07-24_08h43.37.155,empathy_intonation_perc_control,2024.2.4,Win32,59.17159763,6768815b73d3cbf6add75750,68817205a84113384fffdfe3,688229c4704a76f51b67c797,,,,,,,,,,,,,1,,,,,,,,,,,,,,,,,,,,,,,,,,,,,,,,,,,,,11,cenefa,,,,,399.5421,400.4486,0,0,0.3788,,0,29,29,10,1,REAL,FAKE,,,,,,,,,,,,,,,,,
,,,,,,,,,6768815b73d3cbf6add75750,Spanish,13 or older,"no, only English or Spanish",no,2025-07-24_08h43.37.155,empathy_intonation_perc_control,2024.2.4,Win32,59.17159763,6768815b73d3cbf6add75750,68817205a84113384fffdfe3,688229c4704a76f51b67c797,,,,,,,,,,,,,0,,,,,,,,,,,,,,,,,,,,,,,,,,,,,,,,,,,,,23,lampera,,,,,400.4515,401.4823,0,1,0.4978,,0,30,30,22,1,REAL,FAKE,,,,,,,,,,,,,,,,,
,,,,,,,,,6768815b73d3cbf6add75750,Spanish,13 or older,"no, only English or Spanish",no,2025-07-24_08h43.37.155,empathy_intonation_perc_control,2024.2.4,Win32,59.17159763,6768815b73d3cbf6add75750,68817205a84113384fffdfe3,688229c4704a76f51b67c797,,,,,,,,,,,,,1,,,,,,,,,,,,,,,,,,,,,,,,,,,,,,,,,,,,,43,canela,,,,,401.4851,402.3149,1,1,0.2954,,0,31,31,42,1,REAL,FAKE,,,,,,,,,,,,,,,,,
,,,,,,,,,6768815b73d3cbf6add75750,Spanish,13 or older,"no, only English or Spanish",no,2025-07-24_08h43.37.155,empathy_intonation_perc_control,2024.2.4,Win32,59.17159763,6768815b73d3cbf6add75750,68817205a84113384fffdfe3,688229c4704a76f51b67c797,,,,,,,,,,,,,1,,,,,,,,,,,,,,,,,,,,,,,,,,,,,,,,,,,,,34,aviso,,,,,402.3177,403.1935,1,1,0.344,,0,32,32,33,1,REAL,FAKE,,,,,,,,,,,,,,,,,
,,,,,,,,,6768815b73d3cbf6add75750,Spanish,13 or older,"no, only English or Spanish",no,2025-07-24_08h43.37.155,empathy_intonation_perc_control,2024.2.4,Win32,59.17159763,6768815b73d3cbf6add75750,68817205a84113384fffdfe3,688229c4704a76f51b67c797,,,,,,,,,,,,,0,,,,,,,,,,,,,,,,,,,,,,,,,,,,,,,,,,,,,29,decar,,,,,403.1994,404.1323,1,0,0.405,,0,33,33,28,1,REAL,FAKE,,,,,,,,,,,,,,,,,
,,,,,,,,,6768815b73d3cbf6add75750,Spanish,13 or older,"no, only English or Spanish",no,2025-07-24_08h43.37.155,empathy_intonation_perc_control,2024.2.4,Win32,59.17159763,6768815b73d3cbf6add75750,68817205a84113384fffdfe3,688229c4704a76f51b67c797,,,,,,,,,,,,,1,,,,,,,,,,,,,,,,,,,,,,,,,,,,,,,,,,,,,38,estornudar,,,,,404.1349,405.1617,0,0,0.4935,,0,34,34,37,1,REAL,FAKE,,,,,,,,,,,,,,,,,
,,,,,,,,,6768815b73d3cbf6add75750,Spanish,13 or older,"no, only English or Spanish",no,2025-07-24_08h43.37.155,empathy_intonation_perc_control,2024.2.4,Win32,59.17159763,6768815b73d3cbf6add75750,68817205a84113384fffdfe3,688229c4704a76f51b67c797,,,,,,,,,,,,,0,,,,,,,,,,,,,,,,,,,,,,,,,,,,,,,,,,,,,27,acutación,,,,,405.1643,406.1938,1,0,0.4968,,0,35,35,26,1,REAL,FAKE,,,,,,,,,,,,,,,,,
,,,,,,,,,6768815b73d3cbf6add75750,Spanish,13 or older,"no, only English or Spanish",no,2025-07-24_08h43.37.155,empathy_intonation_perc_control,2024.2.4,Win32,59.17159763,6768815b73d3cbf6add75750,68817205a84113384fffdfe3,688229c4704a76f51b67c797,,,,,,,,,,,,,1,,,,,,,,,,,,,,,,,,,,,,,,,,,,,,,,,,,,,57,tacaño,,,,,406.1968,407.1268,0,0,0.3959,,0,36,36,56,1,REAL,FAKE,,,,,,,,,,,,,,,,,
,,,,,,,,,6768815b73d3cbf6add75750,Spanish,13 or older,"no, only English or Spanish",no,2025-07-24_08h43.37.155,empathy_intonation_perc_control,2024.2.4,Win32,59.17159763,6768815b73d3cbf6add75750,68817205a84113384fffdfe3,688229c4704a76f51b67c797,,,,,,,,,,,,,1,,,,,,,,,,,,,,,,,,,,,,,,,,,,,,,,,,,,,6,tergiversar,,,,,407.1299,408.0249,1,1,0.3623,,0,37,37,5,1,REAL,FAKE,,,,,,,,,,,,,,,,,
,,,,,,,,,6768815b73d3cbf6add75750,Spanish,13 or older,"no, only English or Spanish",no,2025-07-24_08h43.37.155,empathy_intonation_perc_control,2024.2.4,Win32,59.17159763,6768815b73d3cbf6add75750,68817205a84113384fffdfe3,688229c4704a76f51b67c797,,,,,,,,,,,,,1,,,,,,,,,,,,,,,,,,,,,,,,,,,,,,,,,,,,,9,hacha,,,,,408.0281,408.9568,0,0,0.3936,,0,38,38,8,1,REAL,FAKE,,,,,,,,,,,,,,,,,
,,,,,,,,,6768815b73d3cbf6add75750,Spanish,13 or older,"no, only English or Spanish",no,2025-07-24_08h43.37.155,empathy_intonation_perc_control,2024.2.4,Win32,59.17159763,6768815b73d3cbf6add75750,68817205a84113384fffdfe3,688229c4704a76f51b67c797,,,,,,,,,,,,,1,,,,,,,,,,,,,,,,,,,,,,,,,,,,,,,,,,,,,48,ladrón,,,,,408.9606,410.0388,1,1,0.5413,,0,39,39,47,1,REAL,FAKE,,,,,,,,,,,,,,,,,
,,,,,,,,,6768815b73d3cbf6add75750,Spanish,13 or older,"no, only English or Spanish",no,2025-07-24_08h43.37.155,empathy_intonation_perc_control,2024.2.4,Win32,59.17159763,6768815b73d3cbf6add75750,68817205a84113384fffdfe3,688229c4704a76f51b67c797,,,,,,,,,,,,,1,,,,,,,,,,,,,,,,,,,,,,,,,,,,,,,,,,,,,41,rebuscar,,,,,410.0416,410.943,1,1,0.3676,,0,40,40,40,1,REAL,FAKE,,,,,,,,,,,,,,,,,
,,,,,,,,,6768815b73d3cbf6add75750,Spanish,13 or older,"no, only English or Spanish",no,2025-07-24_08h43.37.155,empathy_intonation_perc_control,2024.2.4,Win32,59.17159763,6768815b73d3cbf6add75750,68817205a84113384fffdfe3,688229c4704a76f51b67c797,,,,,,,,,,,,,0,,,,,,,,,,,,,,,,,,,,,,,,,,,,,,,,,,,,,19,brecedad,,,,,410.9459,411.9583,0,1,0.4913,,0,41,41,18,1,REAL,FAKE,,,,,,,,,,,,,,,,,
,,,,,,,,,6768815b73d3cbf6add75750,Spanish,13 or older,"no, only English or Spanish",no,2025-07-24_08h43.37.155,empathy_intonation_perc_control,2024.2.4,Win32,59.17159763,6768815b73d3cbf6add75750,68817205a84113384fffdfe3,688229c4704a76f51b67c797,,,,,,,,,,,,,1,,,,,,,,,,,,,,,,,,,,,,,,,,,,,,,,,,,,,15,regar,,,,,411.9616,412.9155,1,1,0.43,,0,42,42,14,1,REAL,FAKE,,,,,,,,,,,,,,,,,
,,,,,,,,,6768815b73d3cbf6add75750,Spanish,13 or older,"no, only English or Spanish",no,2025-07-24_08h43.37.155,empathy_intonation_perc_control,2024.2.4,Win32,59.17159763,6768815b73d3cbf6add75750,68817205a84113384fffdfe3,688229c4704a76f51b67c797,,,,,,,,,,,,,1,,,,,,,,,,,,,,,,,,,,,,,,,,,,,,,,,,,,,49,ganar,,,,,412.9197,413.8162,0,0,0.3676,,0,43,43,48,1,REAL,FAKE,,,,,,,,,,,,,,,,,
,,,,,,,,,6768815b73d3cbf6add75750,Spanish,13 or older,"no, only English or Spanish",no,2025-07-24_08h43.37.155,empathy_intonation_perc_control,2024.2.4,Win32,59.17159763,6768815b73d3cbf6add75750,68817205a84113384fffdfe3,688229c4704a76f51b67c797,,,,,,,,,,,,,1,,,,,,,,,,,,,,,,,,,,,,,,,,,,,,,,,,,,,78,frondoso,,,,,413.8197,414.715,0,0,0.3617,,0,44,44,77,1,REAL,FAKE,,,,,,,,,,,,,,,,,
,,,,,,,,,6768815b73d3cbf6add75750,Spanish,13 or older,"no, only English or Spanish",no,2025-07-24_08h43.37.155,empathy_intonation_perc_control,2024.2.4,Win32,59.17159763,6768815b73d3cbf6add75750,68817205a84113384fffdfe3,688229c4704a76f51b67c797,,,,,,,,,,,,,0,,,,,,,,,,,,,,,,,,,,,,,,,,,,,,,,,,,,,53,vegada,,,,,414.7182,415.5817,1,0,0.3298,,0,45,45,52,1,REAL,FAKE,,,,,,,,,,,,,,,,,
,,,,,,,,,6768815b73d3cbf6add75750,Spanish,13 or older,"no, only English or Spanish",no,2025-07-24_08h43.37.155,empathy_intonation_perc_control,2024.2.4,Win32,59.17159763,6768815b73d3cbf6add75750,68817205a84113384fffdfe3,688229c4704a76f51b67c797,,,,,,,,,,,,,1,,,,,,,,,,,,,,,,,,,,,,,,,,,,,,,,,,,,,55,nevar,,,,,415.5847,416.4824,1,1,0.3632,,0,46,46,54,1,REAL,FAKE,,,,,,,,,,,,,,,,,
,,,,,,,,,6768815b73d3cbf6add75750,Spanish,13 or older,"no, only English or Spanish",no,2025-07-24_08h43.37.155,empathy_intonation_perc_control,2024.2.4,Win32,59.17159763,6768815b73d3cbf6add75750,68817205a84113384fffdfe3,688229c4704a76f51b67c797,,,,,,,,,,,,,0,,,,,,,,,,,,,,,,,,,,,,,,,,,,,,,,,,,,,63,esposante,,,,,416.4845,417.3643,1,0,0.3431,,0,47,47,62,1,REAL,FAKE,,,,,,,,,,,,,,,,,
,,,,,,,,,6768815b73d3cbf6add75750,Spanish,13 or older,"no, only English or Spanish",no,2025-07-24_08h43.37.155,empathy_intonation_perc_control,2024.2.4,Win32,59.17159763,6768815b73d3cbf6add75750,68817205a84113384fffdfe3,688229c4704a76f51b67c797,,,,,,,,,,,,,0,,,,,,,,,,,,,,,,,,,,,,,,,,,,,,,,,,,,,32,fatacidad,,,,,417.3689,418.3215,0,1,0.4204,,0,48,48,31,1,REAL,FAKE,,,,,,,,,,,,,,,,,
,,,,,,,,,6768815b73d3cbf6add75750,Spanish,13 or older,"no, only English or Spanish",no,2025-07-24_08h43.37.155,empathy_intonation_perc_control,2024.2.4,Win32,59.17159763,6768815b73d3cbf6add75750,68817205a84113384fffdfe3,688229c4704a76f51b67c797,,,,,,,,,,,,,1,,,,,,,,,,,,,,,,,,,,,,,,,,,,,,,,,,,,,60,matar,,,,,418.3239,419.1734,1,1,0.3241,,0,49,49,59,1,REAL,FAKE,,,,,,,,,,,,,,,,,
,,,,,,,,,6768815b73d3cbf6add75750,Spanish,13 or older,"no, only English or Spanish",no,2025-07-24_08h43.37.155,empathy_intonation_perc_control,2024.2.4,Win32,59.17159763,6768815b73d3cbf6add75750,68817205a84113384fffdfe3,688229c4704a76f51b67c797,,,,,,,,,,,,,1,,,,,,,,,,,,,,,,,,,,,,,,,,,,,,,,,,,,,83,guante,,,,,419.1752,420.0881,0,0,0.3841,,0,50,50,82,1,REAL,FAKE,,,,,,,,,,,,,,,,,
,,,,,,,,,6768815b73d3cbf6add75750,Spanish,13 or older,"no, only English or Spanish",no,2025-07-24_08h43.37.155,empathy_intonation_perc_control,2024.2.4,Win32,59.17159763,6768815b73d3cbf6add75750,68817205a84113384fffdfe3,688229c4704a76f51b67c797,,,,,,,,,,,,,1,,,,,,,,,,,,,,,,,,,,,,,,,,,,,,,,,,,,,73,hervidor,,,,,420.0906,420.9876,1,1,0.3676,,0,51,51,72,1,REAL,FAKE,,,,,,,,,,,,,,,,,
,,,,,,,,,6768815b73d3cbf6add75750,Spanish,13 or older,"no, only English or Spanish",no,2025-07-24_08h43.37.155,empathy_intonation_perc_control,2024.2.4,Win32,59.17159763,6768815b73d3cbf6add75750,68817205a84113384fffdfe3,688229c4704a76f51b67c797,,,,,,,,,,,,,0,,,,,,,,,,,,,,,,,,,,,,,,,,,,,,,,,,,,,10,antar,,,,,420.991,422.0865,1,0,0.565,,0,52,52,9,1,REAL,FAKE,,,,,,,,,,,,,,,,,
,,,,,,,,,6768815b73d3cbf6add75750,Spanish,13 or older,"no, only English or Spanish",no,2025-07-24_08h43.37.155,empathy_intonation_perc_control,2024.2.4,Win32,59.17159763,6768815b73d3cbf6add75750,68817205a84113384fffdfe3,688229c4704a76f51b67c797,,,,,,,,,,,,,0,,,,,,,,,,,,,,,,,,,,,,,,,,,,,,,,,,,,,47,cartinar,,,,,422.0886,424.1746,0,1,1.568,,0,53,53,46,1,REAL,FAKE,,,,,,,,,,,,,,,,,
,,,,,,,,,6768815b73d3cbf6add75750,Spanish,13 or older,"no, only English or Spanish",no,2025-07-24_08h43.37.155,empathy_intonation_perc_control,2024.2.4,Win32,59.17159763,6768815b73d3cbf6add75750,68817205a84113384fffdfe3,688229c4704a76f51b67c797,,,,,,,,,,,,,1,,,,,,,,,,,,,,,,,,,,,,,,,,,,,,,,,,,,,86,barato,,,,,424.1779,425.7539,1,1,1.0457,,0,54,54,85,1,REAL,FAKE,,,,,,,,,,,,,,,,,
,,,,,,,,,6768815b73d3cbf6add75750,Spanish,13 or older,"no, only English or Spanish",no,2025-07-24_08h43.37.155,empathy_intonation_perc_control,2024.2.4,Win32,59.17159763,6768815b73d3cbf6add75750,68817205a84113384fffdfe3,688229c4704a76f51b67c797,,,,,,,,,,,,,0,,,,,,,,,,,,,,,,,,,,,,,,,,,,,,,,,,,,,72,pemición,,,,,425.7575,427.0862,0,1,0.7993,,0,55,55,71,1,REAL,FAKE,,,,,,,,,,,,,,,,,
,,,,,,,,,6768815b73d3cbf6add75750,Spanish,13 or older,"no, only English or Spanish",no,2025-07-24_08h43.37.155,empathy_intonation_perc_control,2024.2.4,Win32,59.17159763,6768815b73d3cbf6add75750,68817205a84113384fffdfe3,688229c4704a76f51b67c797,,,,,,,,,,,,,1,,,,,,,,,,,,,,,,,,,,,,,,,,,,,,,,,,,,,20,ávido,,,,,427.0895,428.0179,1,1,0.3968,,0,56,56,19,1,REAL,FAKE,,,,,,,,,,,,,,,,,
,,,,,,,,,6768815b73d3cbf6add75750,Spanish,13 or older,"no, only English or Spanish",no,2025-07-24_08h43.37.155,empathy_intonation_perc_control,2024.2.4,Win32,59.17159763,6768815b73d3cbf6add75750,68817205a84113384fffdfe3,688229c4704a76f51b67c797,,,,,,,,,,,,,1,,,,,,,,,,,,,,,,,,,,,,,,,,,,,,,,,,,,,2,pellizcar,,,,,428.0212,428.9805,0,0,0.4279,,0,57,57,1,1,REAL,FAKE,,,,,,,,,,,,,,,,,
,,,,,,,,,6768815b73d3cbf6add75750,Spanish,13 or older,"no, only English or Spanish",no,2025-07-24_08h43.37.155,empathy_intonation_perc_control,2024.2.4,Win32,59.17159763,6768815b73d3cbf6add75750,68817205a84113384fffdfe3,688229c4704a76f51b67c797,,,,,,,,,,,,,1,,,,,,,,,,,,,,,,,,,,,,,,,,,,,,,,,,,,,64,orgulloso,,,,,428.9852,429.8664,0,0,0.3585,,0,58,58,63,1,REAL,FAKE,,,,,,,,,,,,,,,,,
,,,,,,,,,6768815b73d3cbf6add75750,Spanish,13 or older,"no, only English or Spanish",no,2025-07-24_08h43.37.155,empathy_intonation_perc_control,2024.2.4,Win32,59.17159763,6768815b73d3cbf6add75750,68817205a84113384fffdfe3,688229c4704a76f51b67c797,,,,,,,,,,,,,1,,,,,,,,,,,,,,,,,,,,,,,,,,,,,,,,,,,,,56,musgo,,,,,429.8702,430.7777,0,0,0.3835,,0,59,59,55,1,REAL,FAKE,,,,,,,,,,,,,,,,,
,,,,,,,,,6768815b73d3cbf6add75750,Spanish,13 or older,"no, only English or Spanish",no,2025-07-24_08h43.37.155,empathy_intonation_perc_control,2024.2.4,Win32,59.17159763,6768815b73d3cbf6add75750,68817205a84113384fffdfe3,688229c4704a76f51b67c797,,,,,,,,,,,,,0,,,,,,,,,,,,,,,,,,,,,,,,,,,,,,,,,,,,,35,rompido,,,,,430.781,431.6182,1,0,0.3068,,0,60,60,34,1,REAL,FAKE,,,,,,,,,,,,,,,,,
,,,,,,,,,6768815b73d3cbf6add75750,Spanish,13 or older,"no, only English or Spanish",no,2025-07-24_08h43.37.155,empathy_intonation_perc_control,2024.2.4,Win32,59.17159763,6768815b73d3cbf6add75750,68817205a84113384fffdfe3,688229c4704a76f51b67c797,,,,,,,,,,,,,1,,,,,,,,,,,,,,,,,,,,,,,,,,,,,,,,,,,,,46,martillo,,,,,431.6211,432.4758,1,1,0.3347,,0,61,61,45,1,REAL,FAKE,,,,,,,,,,,,,,,,,
,,,,,,,,,6768815b73d3cbf6add75750,Spanish,13 or older,"no, only English or Spanish",no,2025-07-24_08h43.37.155,empathy_intonation_perc_control,2024.2.4,Win32,59.17159763,6768815b73d3cbf6add75750,68817205a84113384fffdfe3,688229c4704a76f51b67c797,,,,,,,,,,,,,1,,,,,,,,,,,,,,,,,,,,,,,,,,,,,,,,,,,,,80,hormiga,,,,,432.4796,433.2943,1,1,0.2824,,0,62,62,79,1,REAL,FAKE,,,,,,,,,,,,,,,,,
,,,,,,,,,6768815b73d3cbf6add75750,Spanish,13 or older,"no, only English or Spanish",no,2025-07-24_08h43.37.155,empathy_intonation_perc_control,2024.2.4,Win32,59.17159763,6768815b73d3cbf6add75750,68817205a84113384fffdfe3,688229c4704a76f51b67c797,,,,,,,,,,,,,0,,,,,,,,,,,,,,,,,,,,,,,,,,,,,,,,,,,,,42,cadallo,,,,,433.2975,434.3778,0,1,0.5498,,0,63,63,41,1,REAL,FAKE,,,,,,,,,,,,,,,,,
,,,,,,,,,6768815b73d3cbf6add75750,Spanish,13 or older,"no, only English or Spanish",no,2025-07-24_08h43.37.155,empathy_intonation_perc_control,2024.2.4,Win32,59.17159763,6768815b73d3cbf6add75750,68817205a84113384fffdfe3,688229c4704a76f51b67c797,,,,,,,,,,,,,0,,,,,,,,,,,,,,,,,,,,,,,,,,,,,,,,,,,,,84,escuto,,,,,434.3811,435.2933,1,0,0.38,,0,64,64,83,1,REAL,FAKE,,,,,,,,,,,,,,,,,
,,,,,,,,,6768815b73d3cbf6add75750,Spanish,13 or older,"no, only English or Spanish",no,2025-07-24_08h43.37.155,empathy_intonation_perc_control,2024.2.4,Win32,59.17159763,6768815b73d3cbf6add75750,68817205a84113384fffdfe3,688229c4704a76f51b67c797,,,,,,,,,,,,,1,,,,,,,,,,,,,,,,,,,,,,,,,,,,,,,,,,,,,28,merodear,,,,,435.2971,436.1756,1,1,0.3465,,0,65,65,27,1,REAL,FAKE,,,,,,,,,,,,,,,,,
,,,,,,,,,6768815b73d3cbf6add75750,Spanish,13 or older,"no, only English or Spanish",no,2025-07-24_08h43.37.155,empathy_intonation_perc_control,2024.2.4,Win32,59.17159763,6768815b73d3cbf6add75750,68817205a84113384fffdfe3,688229c4704a76f51b67c797,,,,,,,,,,,,,1,,,,,,,,,,,,,,,,,,,,,,,,,,,,,,,,,,,,,14,yunque,,,,,436.1786,436.9943,0,0,0.2837,,0,66,66,13,1,REAL,FAKE,,,,,,,,,,,,,,,,,
,,,,,,,,,6768815b73d3cbf6add75750,Spanish,13 or older,"no, only English or Spanish",no,2025-07-24_08h43.37.155,empathy_intonation_perc_control,2024.2.4,Win32,59.17159763,6768815b73d3cbf6add75750,68817205a84113384fffdfe3,688229c4704a76f51b67c797,,,,,,,,,,,,,1,,,,,,,,,,,,,,,,,,,,,,,,,,,,,,,,,,,,,89,prisa,,,,,436.9965,438.2288,0,0,0.7028,,0,67,67,88,1,REAL,FAKE,,,,,,,,,,,,,,,,,
,,,,,,,,,6768815b73d3cbf6add75750,Spanish,13 or older,"no, only English or Spanish",no,2025-07-24_08h43.37.155,empathy_intonation_perc_control,2024.2.4,Win32,59.17159763,6768815b73d3cbf6add75750,68817205a84113384fffdfe3,688229c4704a76f51b67c797,,,,,,,,,,,,,1,,,,,,,,,,,,,,,,,,,,,,,,,,,,,,,,,,,,,7,pésimo,,,,,438.2307,439.3213,1,1,0.5623,,0,68,68,6,1,REAL,FAKE,,,,,,,,,,,,,,,,,
,,,,,,,,,6768815b73d3cbf6add75750,Spanish,13 or older,"no, only English or Spanish",no,2025-07-24_08h43.37.155,empathy_intonation_perc_control,2024.2.4,Win32,59.17159763,6768815b73d3cbf6add75750,68817205a84113384fffdfe3,688229c4704a76f51b67c797,,,,,,,,,,,,,1,,,,,,,,,,,,,,,,,,,,,,,,,,,,,,,,,,,,,65,bizcocho,,,,,439.3242,442.2235,0,0,2.367,,0,69,69,64,1,REAL,FAKE,,,,,,,,,,,,,,,,,
,,,,,,,,,6768815b73d3cbf6add75750,Spanish,13 or older,"no, only English or Spanish",no,2025-07-24_08h43.37.155,empathy_intonation_perc_control,2024.2.4,Win32,59.17159763,6768815b73d3cbf6add75750,68817205a84113384fffdfe3,688229c4704a76f51b67c797,,,,,,,,,,,,,0,,,,,,,,,,,,,,,,,,,,,,,,,,,,,,,,,,,,,66,hacido,,,,,442.2256,444.5486,1,0,1.7994,,0,70,70,65,1,REAL,FAKE,,,,,,,,,,,,,,,,,
,,,,,,,,,6768815b73d3cbf6add75750,Spanish,13 or older,"no, only English or Spanish",no,2025-07-24_08h43.37.155,empathy_intonation_perc_control,2024.2.4,Win32,59.17159763,6768815b73d3cbf6add75750,68817205a84113384fffdfe3,688229c4704a76f51b67c797,,,,,,,,,,,,,1,,,,,,,,,,,,,,,,,,,,,,,,,,,,,,,,,,,,,61,seda,,,,,444.5517,445.449,0,0,0.3616,,0,71,71,60,1,REAL,FAKE,,,,,,,,,,,,,,,,,
,,,,,,,,,6768815b73d3cbf6add75750,Spanish,13 or older,"no, only English or Spanish",no,2025-07-24_08h43.37.155,empathy_intonation_perc_control,2024.2.4,Win32,59.17159763,6768815b73d3cbf6add75750,68817205a84113384fffdfe3,688229c4704a76f51b67c797,,,,,,,,,,,,,1,,,,,,,,,,,,,,,,,,,,,,,,,,,,,,,,,,,,,54,fomentar,,,,,445.4519,447.1519,0,0,1.17,,0,72,72,53,1,REAL,FAKE,,,,,,,,,,,,,,,,,
,,,,,,,,,6768815b73d3cbf6add75750,Spanish,13 or older,"no, only English or Spanish",no,2025-07-24_08h43.37.155,empathy_intonation_perc_control,2024.2.4,Win32,59.17159763,6768815b73d3cbf6add75750,68817205a84113384fffdfe3,688229c4704a76f51b67c797,,,,,,,,,,,,,1,,,,,,,,,,,,,,,,,,,,,,,,,,,,,,,,,,,,,40,alfombra,,,,,447.1545,448.112,0,0,0.4301,,0,73,73,39,1,REAL,FAKE,,,,,,,,,,,,,,,,,
,,,,,,,,,6768815b73d3cbf6add75750,Spanish,13 or older,"no, only English or Spanish",no,2025-07-24_08h43.37.155,empathy_intonation_perc_control,2024.2.4,Win32,59.17159763,6768815b73d3cbf6add75750,68817205a84113384fffdfe3,688229c4704a76f51b67c797,,,,,,,,,,,,,1,,,,,,,,,,,,,,,,,,,,,,,,,,,,,,,,,,,,,75,yacer,,,,,448.115,449.1438,0,0,0.4968,,0,74,74,74,1,REAL,FAKE,,,,,,,,,,,,,,,,,
,,,,,,,,,6768815b73d3cbf6add75750,Spanish,13 or older,"no, only English or Spanish",no,2025-07-24_08h43.37.155,empathy_intonation_perc_control,2024.2.4,Win32,59.17159763,6768815b73d3cbf6add75750,68817205a84113384fffdfe3,688229c4704a76f51b67c797,,,,,,,,,,,,,1,,,,,,,,,,,,,,,,,,,,,,,,,,,,,,,,,,,,,5,zapato,,,,,449.1466,449.893,1,1,0.2125,,0,75,75,4,1,REAL,FAKE,,,,,,,,,,,,,,,,,
,,,,,,,,,6768815b73d3cbf6add75750,Spanish,13 or older,"no, only English or Spanish",no,2025-07-24_08h43.37.155,empathy_intonation_perc_control,2024.2.4,Win32,59.17159763,6768815b73d3cbf6add75750,68817205a84113384fffdfe3,688229c4704a76f51b67c797,,,,,,,,,,,,,1,,,,,,,,,,,,,,,,,,,,,,,,,,,,,,,,,,,,,81,pozo,,,,,449.8958,450.8101,1,1,0.3818,,0,76,76,80,1,REAL,FAKE,,,,,,,,,,,,,,,,,
,,,,,,,,,6768815b73d3cbf6add75750,Spanish,13 or older,"no, only English or Spanish",no,2025-07-24_08h43.37.155,empathy_intonation_perc_control,2024.2.4,Win32,59.17159763,6768815b73d3cbf6add75750,68817205a84113384fffdfe3,688229c4704a76f51b67c797,,,,,,,,,,,,,1,,,,,,,,,,,,,,,,,,,,,,,,,,,,,,,,,,,,,36,loro,,,,,450.8134,451.69,0,0,0.3464,,0,77,77,35,1,REAL,FAKE,,,,,,,,,,,,,,,,,
,,,,,,,,,6768815b73d3cbf6add75750,Spanish,13 or older,"no, only English or Spanish",no,2025-07-24_08h43.37.155,empathy_intonation_perc_control,2024.2.4,Win32,59.17159763,6768815b73d3cbf6add75750,68817205a84113384fffdfe3,688229c4704a76f51b67c797,,,,,,,,,,,,,1,,,,,,,,,,,,,,,,,,,,,,,,,,,,,,,,,,,,,59,besar,,,,,451.6931,452.8743,1,1,0.6493,,0,78,78,58,1,REAL,FAKE,,,,,,,,,,,,,,,,,
,,,,,,,,,6768815b73d3cbf6add75750,Spanish,13 or older,"no, only English or Spanish",no,2025-07-24_08h43.37.155,empathy_intonation_perc_control,2024.2.4,Win32,59.17159763,6768815b73d3cbf6add75750,68817205a84113384fffdfe3,688229c4704a76f51b67c797,,,,,,,,,,,,,0,,,,,,,,,,,,,,,,,,,,,,,,,,,,,,,,,,,,,92,click the 0 key.,,,,,452.877,454.7873,0,1,1.3915,,0,79,79,91,1,REAL,FAKE,,,,,,,,,,,,,,,,,
,,,,,,,,,6768815b73d3cbf6add75750,Spanish,13 or older,"no, only English or Spanish",no,2025-07-24_08h43.37.155,empathy_intonation_perc_control,2024.2.4,Win32,59.17159763,6768815b73d3cbf6add75750,68817205a84113384fffdfe3,688229c4704a76f51b67c797,,,,,,,,,,,,,1,,,,,,,,,,,,,,,,,,,,,,,,,,,,,,,,,,,,,13,helar,,,,,454.7902,455.7033,1,1,0.3796,,0,80,80,12,1,REAL,FAKE,,,,,,,,,,,,,,,,,
,,,,,,,,,6768815b73d3cbf6add75750,Spanish,13 or older,"no, only English or Spanish",no,2025-07-24_08h43.37.155,empathy_intonation_perc_control,2024.2.4,Win32,59.17159763,6768815b73d3cbf6add75750,68817205a84113384fffdfe3,688229c4704a76f51b67c797,,,,,,,,,,,,,1,,,,,,,,,,,,,,,,,,,,,,,,,,,,,,,,,,,,,71,polvoriento,,,,,455.7066,456.2692,1,1,0.0304,,0,81,81,70,1,REAL,FAKE,,,,,,,,,,,,,,,,,
,,,,,,,,,6768815b73d3cbf6add75750,Spanish,13 or older,"no, only English or Spanish",no,2025-07-24_08h43.37.155,empathy_intonation_perc_control,2024.2.4,Win32,59.17159763,6768815b73d3cbf6add75750,68817205a84113384fffdfe3,688229c4704a76f51b67c797,,,,,,,,,,,,,1,,,,,,,,,,,,,,,,,,,,,,,,,,,,,,,,,,,,,45,jilguero,,,,,456.2723,457.1638,0,0,0.3716,,0,82,82,44,1,REAL,FAKE,,,,,,,,,,,,,,,,,
,,,,,,,,,6768815b73d3cbf6add75750,Spanish,13 or older,"no, only English or Spanish",no,2025-07-24_08h43.37.155,empathy_intonation_perc_control,2024.2.4,Win32,59.17159763,6768815b73d3cbf6add75750,68817205a84113384fffdfe3,688229c4704a76f51b67c797,,,,,,,,,,,,,1,,,,,,,,,,,,,,,,,,,,,,,,,,,,,,,,,,,,,31,pandilla,,,,,457.1677,458.0958,1,1,0.3838,,0,83,83,30,1,REAL,FAKE,,,,,,,,,,,,,,,,,
,,,,,,,,,6768815b73d3cbf6add75750,Spanish,13 or older,"no, only English or Spanish",no,2025-07-24_08h43.37.155,empathy_intonation_perc_control,2024.2.4,Win32,59.17159763,6768815b73d3cbf6add75750,68817205a84113384fffdfe3,688229c4704a76f51b67c797,,,,,,,,,,,,,0,,,,,,,,,,,,,,,,,,,,,,,,,,,,,,,,,,,,,16,abracer,,,,,458.0998,459.6116,1,0,0.984,,0,84,84,15,1,REAL,FAKE,,,,,,,,,,,,,,,,,
,,,,,,,,,6768815b73d3cbf6add75750,Spanish,13 or older,"no, only English or Spanish",no,2025-07-24_08h43.37.155,empathy_intonation_perc_control,2024.2.4,Win32,59.17159763,6768815b73d3cbf6add75750,68817205a84113384fffdfe3,688229c4704a76f51b67c797,,,,,,,,,,,,,0,,,,,,,,,,,,,,,,,,,,,,,,,,,,,,,,,,,,,21,capillo,,,,,459.6155,460.6604,0,1,0.5146,,0,85,85,20,1,REAL,FAKE,,,,,,,,,,,,,,,,,
,,,,,,,,,6768815b73d3cbf6add75750,Spanish,13 or older,"no, only English or Spanish",no,2025-07-24_08h43.37.155,empathy_intonation_perc_control,2024.2.4,Win32,59.17159763,6768815b73d3cbf6add75750,68817205a84113384fffdfe3,688229c4704a76f51b67c797,,,,,,,,,,,,,0,,,,,,,,,,,,,,,,,,,,,,,,,,,,,,,,,,,,,87,grodo,,,,,460.6647,461.625,1,0,0.4325,,0,86,86,86,1,REAL,FAKE,,,,,,,,,,,,,,,,,
,,,,,,,,,6768815b73d3cbf6add75750,Spanish,13 or older,"no, only English or Spanish",no,2025-07-24_08h43.37.155,empathy_intonation_perc_control,2024.2.4,Win32,59.17159763,6768815b73d3cbf6add75750,68817205a84113384fffdfe3,688229c4704a76f51b67c797,,,,,,,,,,,,,1,,,,,,,,,,,,,,,,,,,,,,,,,,,,,,,,,,,,,26,secuestro,,,,,461.6291,462.6718,1,1,0.5124,,0,87,87,25,1,REAL,FAKE,,,,,,,,,,,,,,,,,
,,,,,,,,,6768815b73d3cbf6add75750,Spanish,13 or older,"no, only English or Spanish",no,2025-07-24_08h43.37.155,empathy_intonation_perc_control,2024.2.4,Win32,59.17159763,6768815b73d3cbf6add75750,68817205a84113384fffdfe3,688229c4704a76f51b67c797,,,,,,,,,,,,,1,,,,,,,,,,,,,,,,,,,,,,,,,,,,,,,,,,,,,76,atar,,,,,462.6738,463.6443,0,0,0.4333,,0,88,88,75,1,REAL,FAKE,,,,,,,,,,,,,,,,,
,,,,,,,,,6768815b73d3cbf6add75750,Spanish,13 or older,"no, only English or Spanish",no,2025-07-24_08h43.37.155,empathy_intonation_perc_control,2024.2.4,Win32,59.17159763,6768815b73d3cbf6add75750,68817205a84113384fffdfe3,688229c4704a76f51b67c797,,,,,,,,,,,,,0,,,,,,,,,,,,,,,,,,,,,,,,,,,,,,,,,,,,,70,temblo,,,,,463.647,464.5824,0,1,0.4032,,0,89,89,69,1,REAL,FAKE,,,,,,,,,,,,,,,,,
,,,,,,,,,6768815b73d3cbf6add75750,Spanish,13 or older,"no, only English or Spanish",no,2025-07-24_08h43.37.155,empathy_intonation_perc_control,2024.2.4,Win32,59.17159763,6768815b73d3cbf6add75750,68817205a84113384fffdfe3,688229c4704a76f51b67c797,,,,,,,,,,,,,1,,,,,,,,,,,,,,,,,,,,,,,,,,,,,,,,,,,,,22,lacayo,,,,,464.5845,465.4084,1,1,0.2965,,0,90,90,21,1,REAL,FAKE,,,,,,,,,,,,,,,,,
,,,,,,,,,6768815b73d3cbf6add75750,Spanish,13 or older,"no, only English or Spanish",no,2025-07-24_08h43.37.155,empathy_intonation_perc_control,2024.2.4,Win32,59.17159763,6768815b73d3cbf6add75750,68817205a84113384fffdfe3,688229c4704a76f51b67c797,,,,,,,,,,,,,0,,,,,,,,,,,,,,,,,,,,,,,,,,,,,,,,,,,,,50,flamida,,,,,465.4112,466.2573,1,0,0.3133,,0,91,91,49,1,REAL,FAKE,,,,,,,,,,,,,,,,,
,,,,,,,,,6768815b73d3cbf6add75750,Spanish,13 or older,"no, only English or Spanish",no,2025-07-24_08h43.37.155,empathy_intonation_perc_control,2024.2.4,Win32,59.17159763,6768815b73d3cbf6add75750,68817205a84113384fffdfe3,688229c4704a76f51b67c797,,,,,,,,,,,,,,,,,,,,,,,,,,,,,,,,,,,,,,,,,,,,,,,,,,,,,,,,,,,,,,,,,,,,,466.2586,640.3889,,,,,,,,,,,,,,,
,,,,,,,,,6768815b73d3cbf6add75750,Spanish,13 or older,"no, only English or Spanish",no,2025-07-24_08h43.37.155,empathy_intonation_perc_control,2024.2.4,Win32,59.17159763,6768815b73d3cbf6add75750,68817205a84113384fffdfe3,688229c4704a76f51b67c797,,,,,,,,,,,,,,,,,,,,,,,,,,,1,,,,,,,,,,,,,,,,,,,,,,,,,,,,,,,,,,,,,,,,,,,,640.4301,645.6038,slightly agree,0,0,0,0,1,I can easily tell if someone else wants to enter a conversation.,1,0,1,0,,
,,,,,,,,,6768815b73d3cbf6add75750,Spanish,13 or older,"no, only English or Spanish",no,2025-07-24_08h43.37.155,empathy_intonation_perc_control,2024.2.4,Win32,59.17159763,6768815b73d3cbf6add75750,68817205a84113384fffdfe3,688229c4704a76f51b67c797,,,,,,,,,,,,,,,,,,,,,,,,,,,2,,,,,,,,,,,,,,,,,,,,,,,,,,,,,,,,,,,,,,,,,,,,645.6106,649.0144,strongly disagree,0,1,1,1,1,I prefer animals to humans.,0,1,0,0,,
,,,,,,,,,6768815b73d3cbf6add75750,Spanish,13 or older,"no, only English or Spanish",no,2025-07-24_08h43.37.155,empathy_intonation_perc_control,2024.2.4,Win32,59.17159763,6768815b73d3cbf6add75750,68817205a84113384fffdfe3,688229c4704a76f51b67c797,,,,,,,,,,,,,,,,,,,,,,,,,,,3,,,,,,,,,,,,,,,,,,,,,,,,,,,,,,,,,,,,,,,,,,,,649.022,657.4886,slightly disagree,0,2,2,2,1,I try to keep up with the current trends and fashions.,0,1,0,0,,
,,,,,,,,,6768815b73d3cbf6add75750,Spanish,13 or older,"no, only English or Spanish",no,2025-07-24_08h43.37.155,empathy_intonation_perc_control,2024.2.4,Win32,59.17159763,6768815b73d3cbf6add75750,68817205a84113384fffdfe3,688229c4704a76f51b67c797,,,,,,,,,,,,,,,,,,,,,,,,,,,4,,,,,,,,,,,,,,,,,,,,,,,,,,,,,,,,,,,,,,,,,,,,657.4957,664.3976,slightly disagree,0,3,3,3,1,"I find it difficult to explain to others things that I understand easily,   when they don't understand it first time.",1,0,0,1,,
,,,,,,,,,6768815b73d3cbf6add75750,Spanish,13 or older,"no, only English or Spanish",no,2025-07-24_08h43.37.155,empathy_intonation_perc_control,2024.2.4,Win32,59.17159763,6768815b73d3cbf6add75750,68817205a84113384fffdfe3,688229c4704a76f51b67c797,,,,,,,,,,,,,,,,,,,,,,,,,,,5,,,,,,,,,,,,,,,,,,,,,,,,,,,,,,,,,,,,,,,,,,,,664.4023,667.1252,slightly agree,0,4,4,4,1,I dream most nights.,0,1,0,0,,
,,,,,,,,,6768815b73d3cbf6add75750,Spanish,13 or older,"no, only English or Spanish",no,2025-07-24_08h43.37.155,empathy_intonation_perc_control,2024.2.4,Win32,59.17159763,6768815b73d3cbf6add75750,68817205a84113384fffdfe3,688229c4704a76f51b67c797,,,,,,,,,,,,,,,,,,,,,,,,,,,6,,,,,,,,,,,,,,,,,,,,,,,,,,,,,,,,,,,,,,,,,,,,667.1298,669.7375,strongly agree,0,5,5,5,1,I really enjoy caring for other people.,1,0,1,0,,
,,,,,,,,,6768815b73d3cbf6add75750,Spanish,13 or older,"no, only English or Spanish",no,2025-07-24_08h43.37.155,empathy_intonation_perc_control,2024.2.4,Win32,59.17159763,6768815b73d3cbf6add75750,68817205a84113384fffdfe3,688229c4704a76f51b67c797,,,,,,,,,,,,,,,,,,,,,,,,,,,7,,,,,,,,,,,,,,,,,,,,,,,,,,,,,,,,,,,,,,,,,,,,669.7442,673.3283,strongly agree,0,6,6,6,1,I try to solve my own problems rather than discussing them with others.,0,1,0,0,,
,,,,,,,,,6768815b73d3cbf6add75750,Spanish,13 or older,"no, only English or Spanish",no,2025-07-24_08h43.37.155,empathy_intonation_perc_control,2024.2.4,Win32,59.17159763,6768815b73d3cbf6add75750,68817205a84113384fffdfe3,688229c4704a76f51b67c797,,,,,,,,,,,,,,,,,,,,,,,,,,,8,,,,,,,,,,,,,,,,,,,,,,,,,,,,,,,,,,,,,,,,,,,,673.336,677.0846,slightly disagree,0,7,7,7,1,I find it hard to know what to do in a social situation.,1,0,0,1,,
,,,,,,,,,6768815b73d3cbf6add75750,Spanish,13 or older,"no, only English or Spanish",no,2025-07-24_08h43.37.155,empathy_intonation_perc_control,2024.2.4,Win32,59.17159763,6768815b73d3cbf6add75750,68817205a84113384fffdfe3,688229c4704a76f51b67c797,,,,,,,,,,,,,,,,,,,,,,,,,,,9,,,,,,,,,,,,,,,,,,,,,,,,,,,,,,,,,,,,,,,,,,,,677.0893,683.8618,slightly agree,0,8,8,8,1,I am at my best first thing in the morning.,0,1,0,0,,
,,,,,,,,,6768815b73d3cbf6add75750,Spanish,13 or older,"no, only English or Spanish",no,2025-07-24_08h43.37.155,empathy_intonation_perc_control,2024.2.4,Win32,59.17159763,6768815b73d3cbf6add75750,68817205a84113384fffdfe3,688229c4704a76f51b67c797,,,,,,,,,,,,,,,,,,,,,,,,,,,10,,,,,,,,,,,,,,,,,,,,,,,,,,,,,,,,,,,,,,,,,,,,683.8672,701.5418,slightly disagree,0,9,9,9,1,People often tell me that I went too far in driving my point home in a discussion.,1,0,0,1,,
,,,,,,,,,6768815b73d3cbf6add75750,Spanish,13 or older,"no, only English or Spanish",no,2025-07-24_08h43.37.155,empathy_intonation_perc_control,2024.2.4,Win32,59.17159763,6768815b73d3cbf6add75750,68817205a84113384fffdfe3,688229c4704a76f51b67c797,,,,,,,,,,,,,,,,,,,,,,,,,,,11,,,,,,,,,,,,,,,,,,,,,,,,,,,,,,,,,,,,,,,,,,,,701.5466,711.4084,slightly disagree,0,10,10,10,1,It doesn't bother me too much if I am late meeting a friend.,1,0,0,1,,
,,,,,,,,,6768815b73d3cbf6add75750,Spanish,13 or older,"no, only English or Spanish",no,2025-07-24_08h43.37.155,empathy_intonation_perc_control,2024.2.4,Win32,59.17159763,6768815b73d3cbf6add75750,68817205a84113384fffdfe3,688229c4704a76f51b67c797,,,,,,,,,,,,,,,,,,,,,,,,,,,12,,,,,,,,,,,,,,,,,,,,,,,,,,,,,,,,,,,,,,,,,,,,711.4146,717.1187,slightly disagree,0,11,11,11,1,"Friendships and relationships are just too difficult, so I tend not to 
  bother with them.",1,0,0,1,,
,,,,,,,,,6768815b73d3cbf6add75750,Spanish,13 or older,"no, only English or Spanish",no,2025-07-24_08h43.37.155,empathy_intonation_perc_control,2024.2.4,Win32,59.17159763,6768815b73d3cbf6add75750,68817205a84113384fffdfe3,688229c4704a76f51b67c797,,,,,,,,,,,,,,,,,,,,,,,,,,,13,,,,,,,,,,,,,,,,,,,,,,,,,,,,,,,,,,,,,,,,,,,,717.1225,722.7591,slightly agree,0,12,12,12,1,"I would never break a law, no matter how minor.",0,1,0,0,,
,,,,,,,,,6768815b73d3cbf6add75750,Spanish,13 or older,"no, only English or Spanish",no,2025-07-24_08h43.37.155,empathy_intonation_perc_control,2024.2.4,Win32,59.17159763,6768815b73d3cbf6add75750,68817205a84113384fffdfe3,688229c4704a76f51b67c797,,,,,,,,,,,,,,,,,,,,,,,,,,,14,,,,,,,,,,,,,,,,,,,,,,,,,,,,,,,,,,,,,,,,,,,,722.7631,727.9704,slightly disagree,0,13,13,13,1,I often find it difficult to judge if something is rude or polite.,1,0,0,1,,
,,,,,,,,,6768815b73d3cbf6add75750,Spanish,13 or older,"no, only English or Spanish",no,2025-07-24_08h43.37.155,empathy_intonation_perc_control,2024.2.4,Win32,59.17159763,6768815b73d3cbf6add75750,68817205a84113384fffdfe3,688229c4704a76f51b67c797,,,,,,,,,,,,,,,,,,,,,,,,,,,15,,,,,,,,,,,,,,,,,,,,,,,,,,,,,,,,,,,,,,,,,,,,727.9749,734.7104,slightly agree,0,14,14,14,1,"In a conversation, I tend to focus on my own thoughts rather than on what 
  my listener might be thinking.",1,0,0,1,,
,,,,,,,,,6768815b73d3cbf6add75750,Spanish,13 or older,"no, only English or Spanish",no,2025-07-24_08h43.37.155,empathy_intonation_perc_control,2024.2.4,Win32,59.17159763,6768815b73d3cbf6add75750,68817205a84113384fffdfe3,688229c4704a76f51b67c797,,,,,,,,,,,,,,,,,,,,,,,,,,,16,,,,,,,,,,,,,,,,,,,,,,,,,,,,,,,,,,,,,,,,,,,,734.7148,737.4453,slightly agree,0,15,15,15,1,I prefer practical jokes to verbal humor.,0,1,0,0,,
,,,,,,,,,6768815b73d3cbf6add75750,Spanish,13 or older,"no, only English or Spanish",no,2025-07-24_08h43.37.155,empathy_intonation_perc_control,2024.2.4,Win32,59.17159763,6768815b73d3cbf6add75750,68817205a84113384fffdfe3,688229c4704a76f51b67c797,,,,,,,,,,,,,,,,,,,,,,,,,,,17,,,,,,,,,,,,,,,,,,,,,,,,,,,,,,,,,,,,,,,,,,,,737.4506,744.2534,slightly disagree,0,16,16,16,1,I live life for today rather than the future.,0,1,0,0,,
,,,,,,,,,6768815b73d3cbf6add75750,Spanish,13 or older,"no, only English or Spanish",no,2025-07-24_08h43.37.155,empathy_intonation_perc_control,2024.2.4,Win32,59.17159763,6768815b73d3cbf6add75750,68817205a84113384fffdfe3,688229c4704a76f51b67c797,,,,,,,,,,,,,,,,,,,,,,,,,,,18,,,,,,,,,,,,,,,,,,,,,,,,,,,,,,,,,,,,,,,,,,,,744.2609,753.5657,slightly disagree,0,17,17,17,1,"When I was a child, I enjoyed cutting up worms to see what would happen.",1,0,0,1,,
,,,,,,,,,6768815b73d3cbf6add75750,Spanish,13 or older,"no, only English or Spanish",no,2025-07-24_08h43.37.155,empathy_intonation_perc_control,2024.2.4,Win32,59.17159763,6768815b73d3cbf6add75750,68817205a84113384fffdfe3,688229c4704a76f51b67c797,,,,,,,,,,,,,,,,,,,,,,,,,,,19,,,,,,,,,,,,,,,,,,,,,,,,,,,,,,,,,,,,,,,,,,,,753.5724,761.5268,strongly agree,0,18,18,18,1,I can pick up quickly if someone says one thing but means another.,1,0,1,0,,
,,,,,,,,,6768815b73d3cbf6add75750,Spanish,13 or older,"no, only English or Spanish",no,2025-07-24_08h43.37.155,empathy_intonation_perc_control,2024.2.4,Win32,59.17159763,6768815b73d3cbf6add75750,68817205a84113384fffdfe3,688229c4704a76f51b67c797,,,,,,,,,,,,,,,,,,,,,,,,,,,20,,,,,,,,,,,,,,,,,,,,,,,,,,,,,,,,,,,,,,,,,,,,761.5339,763.8658,strongly agree,0,19,19,19,1,I tend to have very strong opinions about morality.,0,1,0,0,,
,,,,,,,,,6768815b73d3cbf6add75750,Spanish,13 or older,"no, only English or Spanish",no,2025-07-24_08h43.37.155,empathy_intonation_perc_control,2024.2.4,Win32,59.17159763,6768815b73d3cbf6add75750,68817205a84113384fffdfe3,688229c4704a76f51b67c797,,,,,,,,,,,,,,,,,,,,,,,,,,,21,,,,,,,,,,,,,,,,,,,,,,,,,,,,,,,,,,,,,,,,,,,,763.871,769.9548,slightly disagree,0,20,20,20,1,It is hard for me to see why some things upset people so much.,1,0,0,1,,
,,,,,,,,,6768815b73d3cbf6add75750,Spanish,13 or older,"no, only English or Spanish",no,2025-07-24_08h43.37.155,empathy_intonation_perc_control,2024.2.4,Win32,59.17159763,6768815b73d3cbf6add75750,68817205a84113384fffdfe3,688229c4704a76f51b67c797,,,,,,,,,,,,,,,,,,,,,,,,,,,22,,,,,,,,,,,,,,,,,,,,,,,,,,,,,,,,,,,,,,,,,,,,769.9589,772.1785,slightly disagree,0,21,21,21,1,I find it easy to put myself in somebody else's shoes.,1,0,1,0,,
,,,,,,,,,6768815b73d3cbf6add75750,Spanish,13 or older,"no, only English or Spanish",no,2025-07-24_08h43.37.155,empathy_intonation_perc_control,2024.2.4,Win32,59.17159763,6768815b73d3cbf6add75750,68817205a84113384fffdfe3,688229c4704a76f51b67c797,,,,,,,,,,,,,,,,,,,,,,,,,,,23,,,,,,,,,,,,,,,,,,,,,,,,,,,,,,,,,,,,,,,,,,,,772.1857,778.7752,slightly agree,0,22,22,22,1,I think that good manners are the most important thing a parent can teach their child.,0,1,0,0,,
,,,,,,,,,6768815b73d3cbf6add75750,Spanish,13 or older,"no, only English or Spanish",no,2025-07-24_08h43.37.155,empathy_intonation_perc_control,2024.2.4,Win32,59.17159763,6768815b73d3cbf6add75750,68817205a84113384fffdfe3,688229c4704a76f51b67c797,,,,,,,,,,,,,,,,,,,,,,,,,,,24,,,,,,,,,,,,,,,,,,,,,,,,,,,,,,,,,,,,,,,,,,,,778.7807,783.6836,slightly disagree,0,23,23,23,1,I like to do things on the spur of the moment.,0,1,0,0,,
,,,,,,,,,6768815b73d3cbf6add75750,Spanish,13 or older,"no, only English or Spanish",no,2025-07-24_08h43.37.155,empathy_intonation_perc_control,2024.2.4,Win32,59.17159763,6768815b73d3cbf6add75750,68817205a84113384fffdfe3,688229c4704a76f51b67c797,,,,,,,,,,,,,,,,,,,,,,,,,,,25,,,,,,,,,,,,,,,,,,,,,,,,,,,,,,,,,,,,,,,,,,,,783.6904,786.3537,slightly disagree,0,24,24,24,1,I am good at predicting how someone will feel.,1,0,1,0,,
