instructions_2afc.started,instructions_2afc.stopped,instructions_2afc_loop.thisRepN,instructions_2afc_loop.thisTrialN,instructions_2afc_loop.thisN,instructions_2afc_loop.thisIndex,instructions_2afc_loop.ran,instructions_text,continue_text,participant_id,"What variety of Spanish are you most familiar with? (e.g., Peruvian, Spanish, Mexican)",At what age did you begin learning Spanish?,Are you proficient in any languages other than English/Spanish?,"Are you familiar with Caribbean (e.g., Caribbean, Puerto Rican) or Galician Spanish?",date,expName,psychopyVersion,OS,frameRate,id,study_id,session,practice_2afc.started,practice_2afc.stopped,key_resp_2afc_practice.keys,key_resp_2afc_practice.corr,key_resp_2afc_practice.rt,key_resp_2afc_practice.duration,trials_2afc_practice_loop.thisRepN,trials_2afc_practice_loop.thisTrialN,trials_2afc_practice_loop.thisN,trials_2afc_practice_loop.thisIndex,trials_2afc_practice_loop.ran,path,correct_response,check_2afc.started,check_2afc.stopped,trial_2afc.started,trial_2afc.stopped,key_resp_2afc_trial.keys,key_resp_2afc_trial.corr,key_resp_2afc_trial.rt,key_resp_2afc_trial.duration,trials_2afc_loop.thisRepN,trials_2afc_loop.thisTrialN,trials_2afc_loop.thisN,trials_2afc_loop.thisIndex,trials_2afc_loop.ran,item_num,target,variety,instructions_lextale.started,instructions_lextale.stopped,instructions_lextale_loop.thisRepN,instructions_lextale_loop.thisTrialN,instructions_lextale_loop.thisN,instructions_lextale_loop.thisIndex,instructions_lextale_loop.ran,practice_lextale.started,practice_lextale.stopped,key_resp_lextale_practice.keys,key_resp_lextale_practice.corr,key_resp_lextale_practice.rt,key_resp_lextale_practice.duration,practice_feedback_lextale.started,practice_feedback_lextale.stopped,trials_lextale_practice_loop.thisRepN,trials_lextale_practice_loop.thisTrialN,trials_lextale_practice_loop.thisN,trials_lextale_practice_loop.thisIndex,trials_lextale_practice_loop.ran,stim,word,prac_button_real,prac_button_false,check_lextale.started,check_lextale.stopped,trial_lextale.started,trial_lextale.stopped,key_resp_lextale_trial.keys,key_resp_lextale_trial.corr,key_resp_lextale_trial.rt,key_resp_lextale_trial.duration,trials_lextale_loop.thisRepN,trials_lextale_loop.thisTrialN,trials_lextale_loop.thisN,trials_lextale_loop.thisIndex,trials_lextale_loop.ran,button_real,button_false,instructions_eq.started,instructions_eq.stopped,trial_eq.started,trial_eq.stopped,slider_eq_trial.response,trials_eq_loop.thisRepN,trials_eq_loop.thisTrialN,trials_eq_loop.thisN,trials_eq_loop.thisIndex,trials_eq_loop.ran,item,is_test_item,is_distractor,is_agree_score,is_disagree_score,end_exp.started,end_exp.stopped
0.094,1.3164,0,0,0,0,1,"In the following task you are going to hear a series of utterances. 

  You will decide if the utterances sound like questions or not using your keyboard.", (press the spacebar to continue),677743bf62e157794cf97ff4,Spanish ,13 or older,"no, only English or Spanish",no,2025-07-24_09h25.09.736,empathy_intonation_perc_control,2024.2.4,Win32,61.72839506,677743bf62e157794cf97ff4,68817205a84113384fffdfe3,688233b3a649d32ed7d451a6,,,,,,,,,,,,,,,,,,,,,,,,,,,,,,,,,,,,,,,,,,,,,,,,,,,,,,,,,,,,,,,,,,,,,,,,,,,,,,,,,,,,,
1.3189,3.2617,0,1,1,1,1,"If you believe the utterance is a question, type '1' (for 'yes') and if you do not 
  believe it is a question type '0' (for 'no').

  Let's practice a bit...", (press the spacebar to continue),677743bf62e157794cf97ff4,Spanish ,13 or older,"no, only English or Spanish",no,2025-07-24_09h25.09.736,empathy_intonation_perc_control,2024.2.4,Win32,61.72839506,677743bf62e157794cf97ff4,68817205a84113384fffdfe3,688233b3a649d32ed7d451a6,,,,,,,,,,,,,,,,,,,,,,,,,,,,,,,,,,,,,,,,,,,,,,,,,,,,,,,,,,,,,,,,,,,,,,,,,,,,,,,,,,,,,
,,,,,,,,,677743bf62e157794cf97ff4,Spanish ,13 or older,"no, only English or Spanish",no,2025-07-24_09h25.09.736,empathy_intonation_perc_control,2024.2.4,Win32,61.72839506,677743bf62e157794cf97ff4,68817205a84113384fffdfe3,688233b3a649d32ed7d451a6,3.3106,5.8687,1,0,2.0268,,0,0,0,7,1,./stim/wavs/puertorican_statement_filler_La-nina-pinta-con-su-amiga.wav,0,,,,,,,,,,,,,,,,,,,,,,,,,,,,,,,,,,,,,,,,,,,,,,,,,,,,,,,,,,,,,,,,,,,,,,,,
,,,,,,,,,677743bf62e157794cf97ff4,Spanish ,13 or older,"no, only English or Spanish",no,2025-07-24_09h25.09.736,empathy_intonation_perc_control,2024.2.4,Win32,61.72839506,677743bf62e157794cf97ff4,68817205a84113384fffdfe3,688233b3a649d32ed7d451a6,5.8719,8.0278,0,0,1.6307,,0,1,1,2,1,./stim/wavs/chilean_question_filler_Mi-padre-cantaba-bien.wav,1,,,,,,,,,,,,,,,,,,,,,,,,,,,,,,,,,,,,,,,,,,,,,,,,,,,,,,,,,,,,,,,,,,,,,,,,
,,,,,,,,,677743bf62e157794cf97ff4,Spanish ,13 or older,"no, only English or Spanish",no,2025-07-24_09h25.09.736,empathy_intonation_perc_control,2024.2.4,Win32,61.72839506,677743bf62e157794cf97ff4,68817205a84113384fffdfe3,688233b3a649d32ed7d451a6,8.0311,10.3965,1,1,1.8373,,0,2,2,0,1,./stim/wavs/castilian_question_filler_Mi-esposo-conoce-al-chico.wav,1,,,,,,,,,,,,,,,,,,,,,,,,,,,,,,,,,,,,,,,,,,,,,,,,,,,,,,,,,,,,,,,,,,,,,,,,
,,,,,,,,,677743bf62e157794cf97ff4,Spanish ,13 or older,"no, only English or Spanish",no,2025-07-24_09h25.09.736,empathy_intonation_perc_control,2024.2.4,Win32,61.72839506,677743bf62e157794cf97ff4,68817205a84113384fffdfe3,688233b3a649d32ed7d451a6,10.3992,12.7874,0,1,1.8702,,0,3,3,5,1,./stim/wavs/andalusian_statement_filler_Alberto-nunca-se-afeita.wav,0,,,,,,,,,,,,,,,,,,,,,,,,,,,,,,,,,,,,,,,,,,,,,,,,,,,,,,,,,,,,,,,,,,,,,,,,
,,,,,,,,,677743bf62e157794cf97ff4,Spanish ,13 or older,"no, only English or Spanish",no,2025-07-24_09h25.09.736,empathy_intonation_perc_control,2024.2.4,Win32,61.72839506,677743bf62e157794cf97ff4,68817205a84113384fffdfe3,688233b3a649d32ed7d451a6,12.7892,15.2899,1,1,1.9675,,0,4,4,3,1,./stim/wavs/mexican_question_filler_Felipe-no-tiene-contrasena.wav,1,,,,,,,,,,,,,,,,,,,,,,,,,,,,,,,,,,,,,,,,,,,,,,,,,,,,,,,,,,,,,,,,,,,,,,,,
,,,,,,,,,677743bf62e157794cf97ff4,Spanish ,13 or older,"no, only English or Spanish",no,2025-07-24_09h25.09.736,empathy_intonation_perc_control,2024.2.4,Win32,61.72839506,677743bf62e157794cf97ff4,68817205a84113384fffdfe3,688233b3a649d32ed7d451a6,15.2923,17.7098,1,0,1.8982,,0,5,5,4,1,./stim/wavs/cuban_statement_filler_Cocinabas-por-la-noche.wav,0,,,,,,,,,,,,,,,,,,,,,,,,,,,,,,,,,,,,,,,,,,,,,,,,,,,,,,,,,,,,,,,,,,,,,,,,
,,,,,,,,,677743bf62e157794cf97ff4,Spanish ,13 or older,"no, only English or Spanish",no,2025-07-24_09h25.09.736,empathy_intonation_perc_control,2024.2.4,Win32,61.72839506,677743bf62e157794cf97ff4,68817205a84113384fffdfe3,688233b3a649d32ed7d451a6,17.7113,20.6172,0,1,2.3818,,0,6,6,6,1,./stim/wavs/peruvian_statement_filler_El-nino-habla-con-su-madre.wav,0,,,,,,,,,,,,,,,,,,,,,,,,,,,,,,,,,,,,,,,,,,,,,,,,,,,,,,,,,,,,,,,,,,,,,,,,
,,,,,,,,,677743bf62e157794cf97ff4,Spanish ,13 or older,"no, only English or Spanish",no,2025-07-24_09h25.09.736,empathy_intonation_perc_control,2024.2.4,Win32,61.72839506,677743bf62e157794cf97ff4,68817205a84113384fffdfe3,688233b3a649d32ed7d451a6,20.6192,22.7548,1,1,1.62,,0,7,7,1,1,./stim/wavs/argentine_question_filler_Mi-vecino-habla-mucho.wav,1,,,,,,,,,,,,,,,,,,,,,,,,,,,,,,,,,,,,,,,,,,,,,,,,,,,,,,,,,,,,,,,,,,,,,,,,
,,,,,,,,,677743bf62e157794cf97ff4,Spanish ,13 or older,"no, only English or Spanish",no,2025-07-24_09h25.09.736,empathy_intonation_perc_control,2024.2.4,Win32,61.72839506,677743bf62e157794cf97ff4,68817205a84113384fffdfe3,688233b3a649d32ed7d451a6,,,,,,,,,,,,,,22.7554,27.642,,,,,,,,,,,,,,,,,,,,,,,,,,,,,,,,,,,,,,,,,,,,,,,,,,,,,,,,,,,,,,,,,,,,,,
,,,,,,,,,677743bf62e157794cf97ff4,Spanish ,13 or older,"no, only English or Spanish",no,2025-07-24_09h25.09.736,empathy_intonation_perc_control,2024.2.4,Win32,61.72839506,677743bf62e157794cf97ff4,68817205a84113384fffdfe3,688233b3a649d32ed7d451a6,,,,,,,,,,,,./stim/wavs/puertorican_mismatch_declarative-broad-focus_El-bebe-comia-muy-bien.wav,0,,,27.6853,29.9259,1,0,1.7026,,0,0,0,83,1,84,0,puertorican,,,,,,,,,,,,,,,,,,,,,,,,,,,,,,,,,,,,,,,,,,,,,,,,,,,,,,,,
,,,,,,,,,677743bf62e157794cf97ff4,Spanish ,13 or older,"no, only English or Spanish",no,2025-07-24_09h25.09.736,empathy_intonation_perc_control,2024.2.4,Win32,61.72839506,677743bf62e157794cf97ff4,68817205a84113384fffdfe3,688233b3a649d32ed7d451a6,,,,,,,,,,,,./stim/wavs/cuban_mismatch_declarative-broad-focus_La-nina-lava-el-plato.wav,0,,,29.9283,32.2381,0,1,1.785,,0,1,1,75,1,76,0,cuban,,,,,,,,,,,,,,,,,,,,,,,,,,,,,,,,,,,,,,,,,,,,,,,,,,,,,,,,
,,,,,,,,,677743bf62e157794cf97ff4,Spanish ,13 or older,"no, only English or Spanish",no,2025-07-24_09h25.09.736,empathy_intonation_perc_control,2024.2.4,Win32,61.72839506,677743bf62e157794cf97ff4,68817205a84113384fffdfe3,688233b3a649d32ed7d451a6,,,,,,,,,,,,./stim/wavs/puertorican_mismatch_interrogative-total-yn_El-nino-oye-el-rio.wav,1,,,32.2402,34.387,1,1,1.6158,,0,2,2,40,1,41,1,puertorican,,,,,,,,,,,,,,,,,,,,,,,,,,,,,,,,,,,,,,,,,,,,,,,,,,,,,,,,
,,,,,,,,,677743bf62e157794cf97ff4,Spanish ,13 or older,"no, only English or Spanish",no,2025-07-24_09h25.09.736,empathy_intonation_perc_control,2024.2.4,Win32,61.72839506,677743bf62e157794cf97ff4,68817205a84113384fffdfe3,688233b3a649d32ed7d451a6,,,,,,,,,,,,./stim/wavs/castilian_mismatch_interrogative-total-yn_La-nina-lava-el-plato.wav,1,,,34.3888,36.7854,0,0,1.8664,,0,3,3,25,1,26,0,castilian,,,,,,,,,,,,,,,,,,,,,,,,,,,,,,,,,,,,,,,,,,,,,,,,,,,,,,,,
,,,,,,,,,677743bf62e157794cf97ff4,Spanish ,13 or older,"no, only English or Spanish",no,2025-07-24_09h25.09.736,empathy_intonation_perc_control,2024.2.4,Win32,61.72839506,677743bf62e157794cf97ff4,68817205a84113384fffdfe3,688233b3a649d32ed7d451a6,,,,,,,,,,,,./stim/wavs/castilian_match_interrogative-total-yn_David-leia-el-libro.wav,1,,,36.7869,39.1177,1,1,1.8036,,0,4,4,0,1,1,0,castilian,,,,,,,,,,,,,,,,,,,,,,,,,,,,,,,,,,,,,,,,,,,,,,,,,,,,,,,,
,,,,,,,,,677743bf62e157794cf97ff4,Spanish ,13 or older,"no, only English or Spanish",no,2025-07-24_09h25.09.736,empathy_intonation_perc_control,2024.2.4,Win32,61.72839506,677743bf62e157794cf97ff4,68817205a84113384fffdfe3,688233b3a649d32ed7d451a6,,,,,,,,,,,,./stim/wavs/cuban_mismatch_interrogative-total-yn_Mi-madre-come-la-fruta.wav,1,,,39.1188,41.4135,0,0,1.7709,,0,5,5,31,1,32,1,cuban,,,,,,,,,,,,,,,,,,,,,,,,,,,,,,,,,,,,,,,,,,,,,,,,,,,,,,,,
,,,,,,,,,677743bf62e157794cf97ff4,Spanish ,13 or older,"no, only English or Spanish",no,2025-07-24_09h25.09.736,empathy_intonation_perc_control,2024.2.4,Win32,61.72839506,677743bf62e157794cf97ff4,68817205a84113384fffdfe3,688233b3a649d32ed7d451a6,,,,,,,,,,,,./stim/wavs/castilian_match_declarative-broad-focus_Marta-abre-el-regalo.wav,0,,,41.4154,43.7935,1,0,1.849,,0,6,6,49,1,50,0,castilian,,,,,,,,,,,,,,,,,,,,,,,,,,,,,,,,,,,,,,,,,,,,,,,,,,,,,,,,
,,,,,,,,,677743bf62e157794cf97ff4,Spanish ,13 or older,"no, only English or Spanish",no,2025-07-24_09h25.09.736,empathy_intonation_perc_control,2024.2.4,Win32,61.72839506,677743bf62e157794cf97ff4,68817205a84113384fffdfe3,688233b3a649d32ed7d451a6,,,,,,,,,,,,./stim/wavs/mexican_match_interrogative-total-yn_Daniel-iba-a-Bolivia.wav,1,,,43.7948,46.0741,0,0,1.7525,,0,7,7,13,1,14,0,mexican,,,,,,,,,,,,,,,,,,,,,,,,,,,,,,,,,,,,,,,,,,,,,,,,,,,,,,,,
,,,,,,,,,677743bf62e157794cf97ff4,Spanish ,13 or older,"no, only English or Spanish",no,2025-07-24_09h25.09.736,empathy_intonation_perc_control,2024.2.4,Win32,61.72839506,677743bf62e157794cf97ff4,68817205a84113384fffdfe3,688233b3a649d32ed7d451a6,,,,,,,,,,,,./stim/wavs/puertorican_match_declarative-broad-focus_Ana-lleva-el-abrigo.wav,0,,,46.0754,48.1719,1,0,1.5707,,0,8,8,62,1,63,0,puertorican,,,,,,,,,,,,,,,,,,,,,,,,,,,,,,,,,,,,,,,,,,,,,,,,,,,,,,,,
,,,,,,,,,677743bf62e157794cf97ff4,Spanish ,13 or older,"no, only English or Spanish",no,2025-07-24_09h25.09.736,empathy_intonation_perc_control,2024.2.4,Win32,61.72839506,677743bf62e157794cf97ff4,68817205a84113384fffdfe3,688233b3a649d32ed7d451a6,,,,,,,,,,,,./stim/wavs/castilian_match_interrogative-total-yn_Emilio-ama-la-marcha.wav,1,,,48.1731,50.224,0,0,1.525,,0,9,9,1,1,2,0,castilian,,,,,,,,,,,,,,,,,,,,,,,,,,,,,,,,,,,,,,,,,,,,,,,,,,,,,,,,
,,,,,,,,,677743bf62e157794cf97ff4,Spanish ,13 or older,"no, only English or Spanish",no,2025-07-24_09h25.09.736,empathy_intonation_perc_control,2024.2.4,Win32,61.72839506,677743bf62e157794cf97ff4,68817205a84113384fffdfe3,688233b3a649d32ed7d451a6,,,,,,,,,,,,./stim/wavs/castilian_mismatch_declarative-broad-focus_La-maestra-vive-en-Paris.wav,0,,,50.2253,52.1814,0,1,1.433,,0,10,10,69,1,70,0,castilian,,,,,,,,,,,,,,,,,,,,,,,,,,,,,,,,,,,,,,,,,,,,,,,,,,,,,,,,
,,,,,,,,,677743bf62e157794cf97ff4,Spanish ,13 or older,"no, only English or Spanish",no,2025-07-24_09h25.09.736,empathy_intonation_perc_control,2024.2.4,Win32,61.72839506,677743bf62e157794cf97ff4,68817205a84113384fffdfe3,688233b3a649d32ed7d451a6,,,,,,,,,,,,./stim/wavs/castilian_match_interrogative-total-yn_Manuela-vende-el-carro.wav,1,,,52.1841,54.0294,1,1,1.3152,,0,11,11,2,1,3,0,castilian,,,,,,,,,,,,,,,,,,,,,,,,,,,,,,,,,,,,,,,,,,,,,,,,,,,,,,,,
,,,,,,,,,677743bf62e157794cf97ff4,Spanish ,13 or older,"no, only English or Spanish",no,2025-07-24_09h25.09.736,empathy_intonation_perc_control,2024.2.4,Win32,61.72839506,677743bf62e157794cf97ff4,68817205a84113384fffdfe3,688233b3a649d32ed7d451a6,,,,,,,,,,,,./stim/wavs/castilian_mismatch_declarative-broad-focus_El-nino-oye-el-rio.wav,0,,,54.0314,56.0601,1,0,1.4999,,0,12,12,68,1,69,0,castilian,,,,,,,,,,,,,,,,,,,,,,,,,,,,,,,,,,,,,,,,,,,,,,,,,,,,,,,,
,,,,,,,,,677743bf62e157794cf97ff4,Spanish ,13 or older,"no, only English or Spanish",no,2025-07-24_09h25.09.736,empathy_intonation_perc_control,2024.2.4,Win32,61.72839506,677743bf62e157794cf97ff4,68817205a84113384fffdfe3,688233b3a649d32ed7d451a6,,,,,,,,,,,,./stim/wavs/puertorican_mismatch_declarative-broad-focus_La-maestra-vive-en-Paris.wav,0,,,56.0621,58.0444,0,1,1.4532,,0,13,13,86,1,87,0,puertorican,,,,,,,,,,,,,,,,,,,,,,,,,,,,,,,,,,,,,,,,,,,,,,,,,,,,,,,,
,,,,,,,,,677743bf62e157794cf97ff4,Spanish ,13 or older,"no, only English or Spanish",no,2025-07-24_09h25.09.736,empathy_intonation_perc_control,2024.2.4,Win32,61.72839506,677743bf62e157794cf97ff4,68817205a84113384fffdfe3,688233b3a649d32ed7d451a6,,,,,,,,,,,,./stim/wavs/mexican_mismatch_interrogative-total-yn_El-nino-oye-el-rio.wav,1,,,58.0458,59.9742,1,1,1.4003,,0,14,14,35,1,36,0,mexican,,,,,,,,,,,,,,,,,,,,,,,,,,,,,,,,,,,,,,,,,,,,,,,,,,,,,,,,
,,,,,,,,,677743bf62e157794cf97ff4,Spanish ,13 or older,"no, only English or Spanish",no,2025-07-24_09h25.09.736,empathy_intonation_perc_control,2024.2.4,Win32,61.72839506,677743bf62e157794cf97ff4,68817205a84113384fffdfe3,688233b3a649d32ed7d451a6,,,,,,,,,,,,./stim/wavs/castilian_match_declarative-broad-focus_Manuela-vende-el-carro.wav,0,,,59.976,62.6787,1,0,2.1772,,0,15,15,46,1,47,0,castilian,,,,,,,,,,,,,,,,,,,,,,,,,,,,,,,,,,,,,,,,,,,,,,,,,,,,,,,,
,,,,,,,,,677743bf62e157794cf97ff4,Spanish ,13 or older,"no, only English or Spanish",no,2025-07-24_09h25.09.736,empathy_intonation_perc_control,2024.2.4,Win32,61.72839506,677743bf62e157794cf97ff4,68817205a84113384fffdfe3,688233b3a649d32ed7d451a6,,,,,,,,,,,,./stim/wavs/cuban_match_interrogative-total-yn_Ana-lleva-el-abrigo.wav,1,,,62.6802,64.7368,0,0,1.5356,,0,16,16,6,1,7,1,cuban,,,,,,,,,,,,,,,,,,,,,,,,,,,,,,,,,,,,,,,,,,,,,,,,,,,,,,,,
,,,,,,,,,677743bf62e157794cf97ff4,Spanish ,13 or older,"no, only English or Spanish",no,2025-07-24_09h25.09.736,empathy_intonation_perc_control,2024.2.4,Win32,61.72839506,677743bf62e157794cf97ff4,68817205a84113384fffdfe3,688233b3a649d32ed7d451a6,,,,,,,,,,,,./stim/wavs/castilian_mismatch_interrogative-total-yn_Mi-novio-viene-del-lago.wav,1,,,64.7379,67.0333,1,1,1.771,,0,17,17,27,1,28,0,castilian,,,,,,,,,,,,,,,,,,,,,,,,,,,,,,,,,,,,,,,,,,,,,,,,,,,,,,,,
,,,,,,,,,677743bf62e157794cf97ff4,Spanish ,13 or older,"no, only English or Spanish",no,2025-07-24_09h25.09.736,empathy_intonation_perc_control,2024.2.4,Win32,61.72839506,677743bf62e157794cf97ff4,68817205a84113384fffdfe3,688233b3a649d32ed7d451a6,,,,,,,,,,,,./stim/wavs/cuban_match_declarative-broad-focus_Marta-abre-el-regalo.wav,0,,,67.0353,69.1454,1,0,1.5824,,0,18,18,55,1,56,0,cuban,,,,,,,,,,,,,,,,,,,,,,,,,,,,,,,,,,,,,,,,,,,,,,,,,,,,,,,,
,,,,,,,,,677743bf62e157794cf97ff4,Spanish ,13 or older,"no, only English or Spanish",no,2025-07-24_09h25.09.736,empathy_intonation_perc_control,2024.2.4,Win32,61.72839506,677743bf62e157794cf97ff4,68817205a84113384fffdfe3,688233b3a649d32ed7d451a6,,,,,,,,,,,,./stim/wavs/cuban_mismatch_interrogative-total-yn_Mi-tia-odia-la-lluvia.wav,1,,,69.1478,71.2108,0,0,1.521,,0,19,19,33,1,34,1,cuban,,,,,,,,,,,,,,,,,,,,,,,,,,,,,,,,,,,,,,,,,,,,,,,,,,,,,,,,
,,,,,,,,,677743bf62e157794cf97ff4,Spanish ,13 or older,"no, only English or Spanish",no,2025-07-24_09h25.09.736,empathy_intonation_perc_control,2024.2.4,Win32,61.72839506,677743bf62e157794cf97ff4,68817205a84113384fffdfe3,688233b3a649d32ed7d451a6,,,,,,,,,,,,./stim/wavs/mexican_mismatch_declarative-broad-focus_El-hombre-mira-la-luna.wav,0,,,71.2133,73.4065,1,0,1.6689,,0,20,20,79,1,80,0,mexican,,,,,,,,,,,,,,,,,,,,,,,,,,,,,,,,,,,,,,,,,,,,,,,,,,,,,,,,
,,,,,,,,,677743bf62e157794cf97ff4,Spanish ,13 or older,"no, only English or Spanish",no,2025-07-24_09h25.09.736,empathy_intonation_perc_control,2024.2.4,Win32,61.72839506,677743bf62e157794cf97ff4,68817205a84113384fffdfe3,688233b3a649d32ed7d451a6,,,,,,,,,,,,./stim/wavs/puertorican_match_declarative-broad-focus_David-leia-el-libro.wav,0,,,73.4081,75.6733,1,0,1.7348,,0,21,21,64,1,65,0,puertorican,,,,,,,,,,,,,,,,,,,,,,,,,,,,,,,,,,,,,,,,,,,,,,,,,,,,,,,,
,,,,,,,,,677743bf62e157794cf97ff4,Spanish ,13 or older,"no, only English or Spanish",no,2025-07-24_09h25.09.736,empathy_intonation_perc_control,2024.2.4,Win32,61.72839506,677743bf62e157794cf97ff4,68817205a84113384fffdfe3,688233b3a649d32ed7d451a6,,,,,,,,,,,,./stim/wavs/castilian_match_interrogative-total-yn_Mariano-habla-del-tiempo.wav,1,,,75.6749,77.8519,1,1,1.651,,0,22,22,4,1,5,0,castilian,,,,,,,,,,,,,,,,,,,,,,,,,,,,,,,,,,,,,,,,,,,,,,,,,,,,,,,,
,,,,,,,,,677743bf62e157794cf97ff4,Spanish ,13 or older,"no, only English or Spanish",no,2025-07-24_09h25.09.736,empathy_intonation_perc_control,2024.2.4,Win32,61.72839506,677743bf62e157794cf97ff4,68817205a84113384fffdfe3,688233b3a649d32ed7d451a6,,,,,,,,,,,,./stim/wavs/mexican_match_declarative-broad-focus_Ana-lleva-el-abrigo.wav,0,,,77.8545,79.949,0,1,1.5651,,0,23,23,56,1,57,0,mexican,,,,,,,,,,,,,,,,,,,,,,,,,,,,,,,,,,,,,,,,,,,,,,,,,,,,,,,,
,,,,,,,,,677743bf62e157794cf97ff4,Spanish ,13 or older,"no, only English or Spanish",no,2025-07-24_09h25.09.736,empathy_intonation_perc_control,2024.2.4,Win32,61.72839506,677743bf62e157794cf97ff4,68817205a84113384fffdfe3,688233b3a649d32ed7d451a6,,,,,,,,,,,,./stim/wavs/mexican_match_declarative-broad-focus_David-leia-el-libro.wav,0,,,79.9511,82.0324,1,0,1.5493,,0,24,24,58,1,59,0,mexican,,,,,,,,,,,,,,,,,,,,,,,,,,,,,,,,,,,,,,,,,,,,,,,,,,,,,,,,
,,,,,,,,,677743bf62e157794cf97ff4,Spanish ,13 or older,"no, only English or Spanish",no,2025-07-24_09h25.09.736,empathy_intonation_perc_control,2024.2.4,Win32,61.72839506,677743bf62e157794cf97ff4,68817205a84113384fffdfe3,688233b3a649d32ed7d451a6,,,,,,,,,,,,./stim/wavs/mexican_mismatch_interrogative-total-yn_Mi-tia-odia-la-lluvia.wav,1,,,82.0342,84.1605,1,1,1.5973,,0,25,25,38,1,39,0,mexican,,,,,,,,,,,,,,,,,,,,,,,,,,,,,,,,,,,,,,,,,,,,,,,,,,,,,,,,
,,,,,,,,,677743bf62e157794cf97ff4,Spanish ,13 or older,"no, only English or Spanish",no,2025-07-24_09h25.09.736,empathy_intonation_perc_control,2024.2.4,Win32,61.72839506,677743bf62e157794cf97ff4,68817205a84113384fffdfe3,688233b3a649d32ed7d451a6,,,,,,,,,,,,./stim/wavs/mexican_match_interrogative-total-yn_Marta-abre-el-regalo.wav,1,,,84.1623,86.1934,0,0,1.503,,0,26,26,17,1,18,0,mexican,,,,,,,,,,,,,,,,,,,,,,,,,,,,,,,,,,,,,,,,,,,,,,,,,,,,,,,,
,,,,,,,,,677743bf62e157794cf97ff4,Spanish ,13 or older,"no, only English or Spanish",no,2025-07-24_09h25.09.736,empathy_intonation_perc_control,2024.2.4,Win32,61.72839506,677743bf62e157794cf97ff4,68817205a84113384fffdfe3,688233b3a649d32ed7d451a6,,,,,,,,,,,,./stim/wavs/castilian_match_declarative-broad-focus_Mariano-habla-del-tiempo.wav,0,,,86.1957,88.3148,1,0,1.5945,,0,27,27,48,1,49,0,castilian,,,,,,,,,,,,,,,,,,,,,,,,,,,,,,,,,,,,,,,,,,,,,,,,,,,,,,,,
,,,,,,,,,677743bf62e157794cf97ff4,Spanish ,13 or older,"no, only English or Spanish",no,2025-07-24_09h25.09.736,empathy_intonation_perc_control,2024.2.4,Win32,61.72839506,677743bf62e157794cf97ff4,68817205a84113384fffdfe3,688233b3a649d32ed7d451a6,,,,,,,,,,,,./stim/wavs/puertorican_match_interrogative-total-yn_Daniel-iba-a-Bolivia.wav,1,,,88.316,90.5693,1,1,1.7337,,0,28,28,19,1,20,1,puertorican,,,,,,,,,,,,,,,,,,,,,,,,,,,,,,,,,,,,,,,,,,,,,,,,,,,,,,,,
,,,,,,,,,677743bf62e157794cf97ff4,Spanish ,13 or older,"no, only English or Spanish",no,2025-07-24_09h25.09.736,empathy_intonation_perc_control,2024.2.4,Win32,61.72839506,677743bf62e157794cf97ff4,68817205a84113384fffdfe3,688233b3a649d32ed7d451a6,,,,,,,,,,,,./stim/wavs/castilian_mismatch_interrogative-total-yn_Mi-tia-odia-la-lluvia.wav,1,,,90.5711,93.0016,1,1,1.901,,0,29,29,28,1,29,0,castilian,,,,,,,,,,,,,,,,,,,,,,,,,,,,,,,,,,,,,,,,,,,,,,,,,,,,,,,,
,,,,,,,,,677743bf62e157794cf97ff4,Spanish ,13 or older,"no, only English or Spanish",no,2025-07-24_09h25.09.736,empathy_intonation_perc_control,2024.2.4,Win32,61.72839506,677743bf62e157794cf97ff4,68817205a84113384fffdfe3,688233b3a649d32ed7d451a6,,,,,,,,,,,,./stim/wavs/mexican_match_interrogative-total-yn_Emilio-ama-la-marcha.wav,1,,,93.0039,95.2367,0,0,1.707,,0,30,30,15,1,16,0,mexican,,,,,,,,,,,,,,,,,,,,,,,,,,,,,,,,,,,,,,,,,,,,,,,,,,,,,,,,
,,,,,,,,,677743bf62e157794cf97ff4,Spanish ,13 or older,"no, only English or Spanish",no,2025-07-24_09h25.09.736,empathy_intonation_perc_control,2024.2.4,Win32,61.72839506,677743bf62e157794cf97ff4,68817205a84113384fffdfe3,688233b3a649d32ed7d451a6,,,,,,,,,,,,./stim/wavs/castilian_mismatch_declarative-broad-focus_La-nina-lava-el-plato.wav,0,,,95.238,97.4287,1,0,1.6678,,0,31,31,70,1,71,0,castilian,,,,,,,,,,,,,,,,,,,,,,,,,,,,,,,,,,,,,,,,,,,,,,,,,,,,,,,,
,,,,,,,,,677743bf62e157794cf97ff4,Spanish ,13 or older,"no, only English or Spanish",no,2025-07-24_09h25.09.736,empathy_intonation_perc_control,2024.2.4,Win32,61.72839506,677743bf62e157794cf97ff4,68817205a84113384fffdfe3,688233b3a649d32ed7d451a6,,,,,,,,,,,,./stim/wavs/puertorican_mismatch_interrogative-total-yn_La-maestra-vive-en-Paris.wav,1,,,97.4313,99.9754,1,1,2.0149,,0,32,32,41,1,42,1,puertorican,,,,,,,,,,,,,,,,,,,,,,,,,,,,,,,,,,,,,,,,,,,,,,,,,,,,,,,,
,,,,,,,,,677743bf62e157794cf97ff4,Spanish ,13 or older,"no, only English or Spanish",no,2025-07-24_09h25.09.736,empathy_intonation_perc_control,2024.2.4,Win32,61.72839506,677743bf62e157794cf97ff4,68817205a84113384fffdfe3,688233b3a649d32ed7d451a6,,,,,,,,,,,,./stim/wavs/puertorican_match_declarative-broad-focus_Manuela-vende-el-carro.wav,0,,,99.9769,102.0405,1,0,1.5281,,0,33,33,66,1,67,0,puertorican,,,,,,,,,,,,,,,,,,,,,,,,,,,,,,,,,,,,,,,,,,,,,,,,,,,,,,,,
,,,,,,,,,677743bf62e157794cf97ff4,Spanish ,13 or older,"no, only English or Spanish",no,2025-07-24_09h25.09.736,empathy_intonation_perc_control,2024.2.4,Win32,61.72839506,677743bf62e157794cf97ff4,68817205a84113384fffdfe3,688233b3a649d32ed7d451a6,,,,,,,,,,,,./stim/wavs/mexican_mismatch_interrogative-total-yn_La-maestra-vive-en-Paris.wav,1,,,102.0433,104.048,0,0,1.4768,,0,34,34,36,1,37,0,mexican,,,,,,,,,,,,,,,,,,,,,,,,,,,,,,,,,,,,,,,,,,,,,,,,,,,,,,,,
,,,,,,,,,677743bf62e157794cf97ff4,Spanish ,13 or older,"no, only English or Spanish",no,2025-07-24_09h25.09.736,empathy_intonation_perc_control,2024.2.4,Win32,61.72839506,677743bf62e157794cf97ff4,68817205a84113384fffdfe3,688233b3a649d32ed7d451a6,,,,,,,,,,,,./stim/wavs/cuban_mismatch_interrogative-total-yn_El-hombre-mira-la-luna.wav,1,,,104.0517,105.8551,1,1,1.2777,,0,35,35,29,1,30,1,cuban,,,,,,,,,,,,,,,,,,,,,,,,,,,,,,,,,,,,,,,,,,,,,,,,,,,,,,,,
,,,,,,,,,677743bf62e157794cf97ff4,Spanish ,13 or older,"no, only English or Spanish",no,2025-07-24_09h25.09.736,empathy_intonation_perc_control,2024.2.4,Win32,61.72839506,677743bf62e157794cf97ff4,68817205a84113384fffdfe3,688233b3a649d32ed7d451a6,,,,,,,,,,,,./stim/wavs/cuban_match_declarative-broad-focus_Ana-lleva-el-abrigo.wav,0,,,105.8565,107.4671,1,0,1.0775,,0,36,36,50,1,51,0,cuban,,,,,,,,,,,,,,,,,,,,,,,,,,,,,,,,,,,,,,,,,,,,,,,,,,,,,,,,
,,,,,,,,,677743bf62e157794cf97ff4,Spanish ,13 or older,"no, only English or Spanish",no,2025-07-24_09h25.09.736,empathy_intonation_perc_control,2024.2.4,Win32,61.72839506,677743bf62e157794cf97ff4,68817205a84113384fffdfe3,688233b3a649d32ed7d451a6,,,,,,,,,,,,./stim/wavs/puertorican_match_interrogative-total-yn_David-leia-el-libro.wav,1,,,107.469,109.1997,0,0,1.2032,,0,37,37,20,1,21,1,puertorican,,,,,,,,,,,,,,,,,,,,,,,,,,,,,,,,,,,,,,,,,,,,,,,,,,,,,,,,
,,,,,,,,,677743bf62e157794cf97ff4,Spanish ,13 or older,"no, only English or Spanish",no,2025-07-24_09h25.09.736,empathy_intonation_perc_control,2024.2.4,Win32,61.72839506,677743bf62e157794cf97ff4,68817205a84113384fffdfe3,688233b3a649d32ed7d451a6,,,,,,,,,,,,./stim/wavs/mexican_mismatch_declarative-broad-focus_Mi-novio-viene-del-lago.wav,0,,,109.2015,111.2815,1,0,1.5532,,0,38,38,81,1,82,0,mexican,,,,,,,,,,,,,,,,,,,,,,,,,,,,,,,,,,,,,,,,,,,,,,,,,,,,,,,,
,,,,,,,,,677743bf62e157794cf97ff4,Spanish ,13 or older,"no, only English or Spanish",no,2025-07-24_09h25.09.736,empathy_intonation_perc_control,2024.2.4,Win32,61.72839506,677743bf62e157794cf97ff4,68817205a84113384fffdfe3,688233b3a649d32ed7d451a6,,,,,,,,,,,,./stim/wavs/mexican_match_interrogative-total-yn_David-leia-el-libro.wav,1,,,111.2832,113.3589,1,1,1.5489,,0,39,39,14,1,15,0,mexican,,,,,,,,,,,,,,,,,,,,,,,,,,,,,,,,,,,,,,,,,,,,,,,,,,,,,,,,
,,,,,,,,,677743bf62e157794cf97ff4,Spanish ,13 or older,"no, only English or Spanish",no,2025-07-24_09h25.09.736,empathy_intonation_perc_control,2024.2.4,Win32,61.72839506,677743bf62e157794cf97ff4,68817205a84113384fffdfe3,688233b3a649d32ed7d451a6,,,,,,,,,,,,./stim/wavs/cuban_match_declarative-broad-focus_Daniel-iba-a-Bolivia.wav,0,,,113.3609,115.2742,0,1,1.3822,,0,40,40,51,1,52,0,cuban,,,,,,,,,,,,,,,,,,,,,,,,,,,,,,,,,,,,,,,,,,,,,,,,,,,,,,,,
,,,,,,,,,677743bf62e157794cf97ff4,Spanish ,13 or older,"no, only English or Spanish",no,2025-07-24_09h25.09.736,empathy_intonation_perc_control,2024.2.4,Win32,61.72839506,677743bf62e157794cf97ff4,68817205a84113384fffdfe3,688233b3a649d32ed7d451a6,,,,,,,,,,,,./stim/wavs/puertorican_mismatch_interrogative-total-yn_Mi-madre-come-la-fruta.wav,1,,,115.276,117.2862,1,1,1.4824,,0,41,41,43,1,44,1,puertorican,,,,,,,,,,,,,,,,,,,,,,,,,,,,,,,,,,,,,,,,,,,,,,,,,,,,,,,,
,,,,,,,,,677743bf62e157794cf97ff4,Spanish ,13 or older,"no, only English or Spanish",no,2025-07-24_09h25.09.736,empathy_intonation_perc_control,2024.2.4,Win32,61.72839506,677743bf62e157794cf97ff4,68817205a84113384fffdfe3,688233b3a649d32ed7d451a6,,,,,,,,,,,,./stim/wavs/castilian_match_interrogative-total-yn_Maria-bebe-el-vino.wav,1,,,117.2882,118.1361,1,1,0.3152,,0,42,42,3,1,4,0,castilian,,,,,,,,,,,,,,,,,,,,,,,,,,,,,,,,,,,,,,,,,,,,,,,,,,,,,,,,
,,,,,,,,,677743bf62e157794cf97ff4,Spanish ,13 or older,"no, only English or Spanish",no,2025-07-24_09h25.09.736,empathy_intonation_perc_control,2024.2.4,Win32,61.72839506,677743bf62e157794cf97ff4,68817205a84113384fffdfe3,688233b3a649d32ed7d451a6,,,,,,,,,,,,./stim/wavs/puertorican_mismatch_declarative-broad-focus_El-hombre-mira-la-luna.wav,0,,,118.1387,120.3863,0,1,1.7192,,0,43,43,84,1,85,0,puertorican,,,,,,,,,,,,,,,,,,,,,,,,,,,,,,,,,,,,,,,,,,,,,,,,,,,,,,,,
,,,,,,,,,677743bf62e157794cf97ff4,Spanish ,13 or older,"no, only English or Spanish",no,2025-07-24_09h25.09.736,empathy_intonation_perc_control,2024.2.4,Win32,61.72839506,677743bf62e157794cf97ff4,68817205a84113384fffdfe3,688233b3a649d32ed7d451a6,,,,,,,,,,,,./stim/wavs/cuban_match_interrogative-total-yn_Marta-abre-el-regalo.wav,1,,,120.3883,122.6827,1,1,1.7773,,0,44,44,11,1,12,1,cuban,,,,,,,,,,,,,,,,,,,,,,,,,,,,,,,,,,,,,,,,,,,,,,,,,,,,,,,,
,,,,,,,,,677743bf62e157794cf97ff4,Spanish ,13 or older,"no, only English or Spanish",no,2025-07-24_09h25.09.736,empathy_intonation_perc_control,2024.2.4,Win32,61.72839506,677743bf62e157794cf97ff4,68817205a84113384fffdfe3,688233b3a649d32ed7d451a6,,,,,,,,,,,,./stim/wavs/mexican_match_declarative-broad-focus_Marta-abre-el-regalo.wav,0,,,122.6856,124.7166,0,1,1.5042,,0,45,45,61,1,62,0,mexican,,,,,,,,,,,,,,,,,,,,,,,,,,,,,,,,,,,,,,,,,,,,,,,,,,,,,,,,
,,,,,,,,,677743bf62e157794cf97ff4,Spanish ,13 or older,"no, only English or Spanish",no,2025-07-24_09h25.09.736,empathy_intonation_perc_control,2024.2.4,Win32,61.72839506,677743bf62e157794cf97ff4,68817205a84113384fffdfe3,688233b3a649d32ed7d451a6,,,,,,,,,,,,./stim/wavs/cuban_match_interrogative-total-yn_Daniel-iba-a-Bolivia.wav,1,,,124.7186,126.814,0,0,1.57,,0,46,46,7,1,8,1,cuban,,,,,,,,,,,,,,,,,,,,,,,,,,,,,,,,,,,,,,,,,,,,,,,,,,,,,,,,
,,,,,,,,,677743bf62e157794cf97ff4,Spanish ,13 or older,"no, only English or Spanish",no,2025-07-24_09h25.09.736,empathy_intonation_perc_control,2024.2.4,Win32,61.72839506,677743bf62e157794cf97ff4,68817205a84113384fffdfe3,688233b3a649d32ed7d451a6,,,,,,,,,,,,./stim/wavs/cuban_mismatch_declarative-broad-focus_Mi-novio-viene-del-lago.wav,0,,,126.8152,129.1951,1,0,1.8531,,0,47,47,76,1,77,0,cuban,,,,,,,,,,,,,,,,,,,,,,,,,,,,,,,,,,,,,,,,,,,,,,,,,,,,,,,,
,,,,,,,,,677743bf62e157794cf97ff4,Spanish ,13 or older,"no, only English or Spanish",no,2025-07-24_09h25.09.736,empathy_intonation_perc_control,2024.2.4,Win32,61.72839506,677743bf62e157794cf97ff4,68817205a84113384fffdfe3,688233b3a649d32ed7d451a6,,,,,,,,,,,,./stim/wavs/mexican_mismatch_declarative-broad-focus_La-maestra-vive-en-Paris.wav,0,,,129.1963,131.4237,1,0,1.7024,,0,48,48,80,1,81,0,mexican,,,,,,,,,,,,,,,,,,,,,,,,,,,,,,,,,,,,,,,,,,,,,,,,,,,,,,,,
,,,,,,,,,677743bf62e157794cf97ff4,Spanish ,13 or older,"no, only English or Spanish",no,2025-07-24_09h25.09.736,empathy_intonation_perc_control,2024.2.4,Win32,61.72839506,677743bf62e157794cf97ff4,68817205a84113384fffdfe3,688233b3a649d32ed7d451a6,,,,,,,,,,,,./stim/wavs/cuban_mismatch_declarative-broad-focus_El-bebe-comia-muy-bien.wav,0,,,131.4253,133.5391,1,0,1.5868,,0,49,49,73,1,74,0,cuban,,,,,,,,,,,,,,,,,,,,,,,,,,,,,,,,,,,,,,,,,,,,,,,,,,,,,,,,
,,,,,,,,,677743bf62e157794cf97ff4,Spanish ,13 or older,"no, only English or Spanish",no,2025-07-24_09h25.09.736,empathy_intonation_perc_control,2024.2.4,Win32,61.72839506,677743bf62e157794cf97ff4,68817205a84113384fffdfe3,688233b3a649d32ed7d451a6,,,,,,,,,,,,./stim/wavs/castilian_match_declarative-broad-focus_David-leia-el-libro.wav,0,,,133.5407,135.5216,0,1,1.4519,,0,50,50,44,1,45,0,castilian,,,,,,,,,,,,,,,,,,,,,,,,,,,,,,,,,,,,,,,,,,,,,,,,,,,,,,,,
,,,,,,,,,677743bf62e157794cf97ff4,Spanish ,13 or older,"no, only English or Spanish",no,2025-07-24_09h25.09.736,empathy_intonation_perc_control,2024.2.4,Win32,61.72839506,677743bf62e157794cf97ff4,68817205a84113384fffdfe3,688233b3a649d32ed7d451a6,,,,,,,,,,,,./stim/wavs/puertorican_mismatch_declarative-broad-focus_La-nina-lava-el-plato.wav,0,,,135.5228,137.6371,1,0,1.5897,,0,51,51,87,1,88,0,puertorican,,,,,,,,,,,,,,,,,,,,,,,,,,,,,,,,,,,,,,,,,,,,,,,,,,,,,,,,
,,,,,,,,,677743bf62e157794cf97ff4,Spanish ,13 or older,"no, only English or Spanish",no,2025-07-24_09h25.09.736,empathy_intonation_perc_control,2024.2.4,Win32,61.72839506,677743bf62e157794cf97ff4,68817205a84113384fffdfe3,688233b3a649d32ed7d451a6,,,,,,,,,,,,./stim/wavs/castilian_mismatch_declarative-broad-focus_Mi-tia-odia-la-lluvia.wav,0,,,137.6382,139.8164,1,0,1.655,,0,52,52,72,1,73,0,castilian,,,,,,,,,,,,,,,,,,,,,,,,,,,,,,,,,,,,,,,,,,,,,,,,,,,,,,,,
,,,,,,,,,677743bf62e157794cf97ff4,Spanish ,13 or older,"no, only English or Spanish",no,2025-07-24_09h25.09.736,empathy_intonation_perc_control,2024.2.4,Win32,61.72839506,677743bf62e157794cf97ff4,68817205a84113384fffdfe3,688233b3a649d32ed7d451a6,,,,,,,,,,,,./stim/wavs/castilian_mismatch_interrogative-total-yn_La-maestra-vive-en-Paris.wav,1,,,139.8175,142.0806,0,0,1.7369,,0,53,53,24,1,25,0,castilian,,,,,,,,,,,,,,,,,,,,,,,,,,,,,,,,,,,,,,,,,,,,,,,,,,,,,,,,
,,,,,,,,,677743bf62e157794cf97ff4,Spanish ,13 or older,"no, only English or Spanish",no,2025-07-24_09h25.09.736,empathy_intonation_perc_control,2024.2.4,Win32,61.72839506,677743bf62e157794cf97ff4,68817205a84113384fffdfe3,688233b3a649d32ed7d451a6,,,,,,,,,,,,./stim/wavs/cuban_match_declarative-broad-focus_Maria-bebe-el-vino.wav,0,,,142.0817,144.2047,1,0,1.5977,,0,54,54,53,1,54,0,cuban,,,,,,,,,,,,,,,,,,,,,,,,,,,,,,,,,,,,,,,,,,,,,,,,,,,,,,,,
,,,,,,,,,677743bf62e157794cf97ff4,Spanish ,13 or older,"no, only English or Spanish",no,2025-07-24_09h25.09.736,empathy_intonation_perc_control,2024.2.4,Win32,61.72839506,677743bf62e157794cf97ff4,68817205a84113384fffdfe3,688233b3a649d32ed7d451a6,,,,,,,,,,,,./stim/wavs/puertorican_mismatch_interrogative-total-yn_La-nina-lava-el-plato.wav,1,,,144.2074,146.3093,0,0,1.5806,,0,55,55,42,1,43,1,puertorican,,,,,,,,,,,,,,,,,,,,,,,,,,,,,,,,,,,,,,,,,,,,,,,,,,,,,,,,
,,,,,,,,,677743bf62e157794cf97ff4,Spanish ,13 or older,"no, only English or Spanish",no,2025-07-24_09h25.09.736,empathy_intonation_perc_control,2024.2.4,Win32,61.72839506,677743bf62e157794cf97ff4,68817205a84113384fffdfe3,688233b3a649d32ed7d451a6,,,,,,,,,,,,./stim/wavs/mexican_match_declarative-broad-focus_Emilio-ama-la-marcha.wav,0,,,146.311,148.6852,0,1,1.8499,,0,56,56,59,1,60,0,mexican,,,,,,,,,,,,,,,,,,,,,,,,,,,,,,,,,,,,,,,,,,,,,,,,,,,,,,,,
,,,,,,,,,677743bf62e157794cf97ff4,Spanish ,13 or older,"no, only English or Spanish",no,2025-07-24_09h25.09.736,empathy_intonation_perc_control,2024.2.4,Win32,61.72839506,677743bf62e157794cf97ff4,68817205a84113384fffdfe3,688233b3a649d32ed7d451a6,,,,,,,,,,,,./stim/wavs/puertorican_match_declarative-broad-focus_Maria-bebe-el-vino.wav,0,,,148.6877,150.6991,1,0,1.4804,,0,57,57,67,1,68,0,puertorican,,,,,,,,,,,,,,,,,,,,,,,,,,,,,,,,,,,,,,,,,,,,,,,,,,,,,,,,
,,,,,,,,,677743bf62e157794cf97ff4,Spanish ,13 or older,"no, only English or Spanish",no,2025-07-24_09h25.09.736,empathy_intonation_perc_control,2024.2.4,Win32,61.72839506,677743bf62e157794cf97ff4,68817205a84113384fffdfe3,688233b3a649d32ed7d451a6,,,,,,,,,,,,./stim/wavs/cuban_match_declarative-broad-focus_Mariano-habla-del-tiempo.wav,0,,,150.7021,153.0296,0,1,1.7937,,0,58,58,54,1,55,0,cuban,,,,,,,,,,,,,,,,,,,,,,,,,,,,,,,,,,,,,,,,,,,,,,,,,,,,,,,,
,,,,,,,,,677743bf62e157794cf97ff4,Spanish ,13 or older,"no, only English or Spanish",no,2025-07-24_09h25.09.736,empathy_intonation_perc_control,2024.2.4,Win32,61.72839506,677743bf62e157794cf97ff4,68817205a84113384fffdfe3,688233b3a649d32ed7d451a6,,,,,,,,,,,,./stim/wavs/mexican_match_interrogative-total-yn_Mariano-habla-del-tiempo.wav,1,,,153.0314,155.2808,1,1,1.7235,,0,59,59,16,1,17,0,mexican,,,,,,,,,,,,,,,,,,,,,,,,,,,,,,,,,,,,,,,,,,,,,,,,,,,,,,,,
,,,,,,,,,677743bf62e157794cf97ff4,Spanish ,13 or older,"no, only English or Spanish",no,2025-07-24_09h25.09.736,empathy_intonation_perc_control,2024.2.4,Win32,61.72839506,677743bf62e157794cf97ff4,68817205a84113384fffdfe3,688233b3a649d32ed7d451a6,,,,,,,,,,,,./stim/wavs/cuban_match_interrogative-total-yn_Manuela-vende-el-carro.wav,1,,,155.2824,157.4097,0,0,1.5902,,0,60,60,8,1,9,1,cuban,,,,,,,,,,,,,,,,,,,,,,,,,,,,,,,,,,,,,,,,,,,,,,,,,,,,,,,,
,,,,,,,,,677743bf62e157794cf97ff4,Spanish ,13 or older,"no, only English or Spanish",no,2025-07-24_09h25.09.736,empathy_intonation_perc_control,2024.2.4,Win32,61.72839506,677743bf62e157794cf97ff4,68817205a84113384fffdfe3,688233b3a649d32ed7d451a6,,,,,,,,,,,,./stim/wavs/cuban_mismatch_declarative-broad-focus_El-hombre-mira-la-luna.wav,0,,,157.4114,159.5954,1,0,1.6565,,0,61,61,74,1,75,0,cuban,,,,,,,,,,,,,,,,,,,,,,,,,,,,,,,,,,,,,,,,,,,,,,,,,,,,,,,,
,,,,,,,,,677743bf62e157794cf97ff4,Spanish ,13 or older,"no, only English or Spanish",no,2025-07-24_09h25.09.736,empathy_intonation_perc_control,2024.2.4,Win32,61.72839506,677743bf62e157794cf97ff4,68817205a84113384fffdfe3,688233b3a649d32ed7d451a6,,,,,,,,,,,,./stim/wavs/mexican_mismatch_interrogative-total-yn_Mi-novio-viene-del-lago.wav,1,,,159.5972,161.9576,1,1,1.8207,,0,62,62,37,1,38,0,mexican,,,,,,,,,,,,,,,,,,,,,,,,,,,,,,,,,,,,,,,,,,,,,,,,,,,,,,,,
,,,,,,,,,677743bf62e157794cf97ff4,Spanish ,13 or older,"no, only English or Spanish",no,2025-07-24_09h25.09.736,empathy_intonation_perc_control,2024.2.4,Win32,61.72839506,677743bf62e157794cf97ff4,68817205a84113384fffdfe3,688233b3a649d32ed7d451a6,,,,,,,,,,,,./stim/wavs/cuban_match_interrogative-total-yn_Mariano-habla-del-tiempo.wav,1,,,161.9599,164.2116,0,0,1.729,,0,63,63,10,1,11,1,cuban,,,,,,,,,,,,,,,,,,,,,,,,,,,,,,,,,,,,,,,,,,,,,,,,,,,,,,,,
,,,,,,,,,677743bf62e157794cf97ff4,Spanish ,13 or older,"no, only English or Spanish",no,2025-07-24_09h25.09.736,empathy_intonation_perc_control,2024.2.4,Win32,61.72839506,677743bf62e157794cf97ff4,68817205a84113384fffdfe3,688233b3a649d32ed7d451a6,,,,,,,,,,,,./stim/wavs/puertorican_match_declarative-broad-focus_Emilio-ama-la-marcha.wav,0,,,164.2132,166.4108,1,0,1.6601,,0,64,64,65,1,66,0,puertorican,,,,,,,,,,,,,,,,,,,,,,,,,,,,,,,,,,,,,,,,,,,,,,,,,,,,,,,,
,,,,,,,,,677743bf62e157794cf97ff4,Spanish ,13 or older,"no, only English or Spanish",no,2025-07-24_09h25.09.736,empathy_intonation_perc_control,2024.2.4,Win32,61.72839506,677743bf62e157794cf97ff4,68817205a84113384fffdfe3,688233b3a649d32ed7d451a6,,,,,,,,,,,,./stim/wavs/mexican_match_declarative-broad-focus_Daniel-iba-a-Bolivia.wav,0,,,166.4145,168.5913,1,0,1.6452,,0,65,65,57,1,58,0,mexican,,,,,,,,,,,,,,,,,,,,,,,,,,,,,,,,,,,,,,,,,,,,,,,,,,,,,,,,
,,,,,,,,,677743bf62e157794cf97ff4,Spanish ,13 or older,"no, only English or Spanish",no,2025-07-24_09h25.09.736,empathy_intonation_perc_control,2024.2.4,Win32,61.72839506,677743bf62e157794cf97ff4,68817205a84113384fffdfe3,688233b3a649d32ed7d451a6,,,,,,,,,,,,./stim/wavs/puertorican_match_interrogative-total-yn_Maria-bebe-el-vino.wav,1,,,168.5954,170.8511,0,0,1.7081,,0,66,66,23,1,24,1,puertorican,,,,,,,,,,,,,,,,,,,,,,,,,,,,,,,,,,,,,,,,,,,,,,,,,,,,,,,,
,,,,,,,,,677743bf62e157794cf97ff4,Spanish ,13 or older,"no, only English or Spanish",no,2025-07-24_09h25.09.736,empathy_intonation_perc_control,2024.2.4,Win32,61.72839506,677743bf62e157794cf97ff4,68817205a84113384fffdfe3,688233b3a649d32ed7d451a6,,,,,,,,,,,,./stim/wavs/cuban_match_declarative-broad-focus_Manuela-vende-el-carro.wav,0,,,170.853,173.0563,1,0,1.6822,,0,67,67,52,1,53,0,cuban,,,,,,,,,,,,,,,,,,,,,,,,,,,,,,,,,,,,,,,,,,,,,,,,,,,,,,,,
,,,,,,,,,677743bf62e157794cf97ff4,Spanish ,13 or older,"no, only English or Spanish",no,2025-07-24_09h25.09.736,empathy_intonation_perc_control,2024.2.4,Win32,61.72839506,677743bf62e157794cf97ff4,68817205a84113384fffdfe3,688233b3a649d32ed7d451a6,,,,,,,,,,,,./stim/wavs/puertorican_match_interrogative-total-yn_Emilio-ama-la-marcha.wav,1,,,173.0585,175.1882,1,1,1.5981,,0,68,68,21,1,22,1,puertorican,,,,,,,,,,,,,,,,,,,,,,,,,,,,,,,,,,,,,,,,,,,,,,,,,,,,,,,,
,,,,,,,,,677743bf62e157794cf97ff4,Spanish ,13 or older,"no, only English or Spanish",no,2025-07-24_09h25.09.736,empathy_intonation_perc_control,2024.2.4,Win32,61.72839506,677743bf62e157794cf97ff4,68817205a84113384fffdfe3,688233b3a649d32ed7d451a6,,,,,,,,,,,,./stim/wavs/puertorican_match_declarative-broad-focus_Daniel-iba-a-Bolivia.wav,0,,,175.191,177.3578,1,0,1.6343,,0,69,69,63,1,64,0,puertorican,,,,,,,,,,,,,,,,,,,,,,,,,,,,,,,,,,,,,,,,,,,,,,,,,,,,,,,,
,,,,,,,,,677743bf62e157794cf97ff4,Spanish ,13 or older,"no, only English or Spanish",no,2025-07-24_09h25.09.736,empathy_intonation_perc_control,2024.2.4,Win32,61.72839506,677743bf62e157794cf97ff4,68817205a84113384fffdfe3,688233b3a649d32ed7d451a6,,,,,,,,,,,,./stim/wavs/castilian_match_declarative-broad-focus_Maria-bebe-el-vino.wav,0,,,177.3594,179.3987,1,0,1.5137,,0,70,70,47,1,48,0,castilian,,,,,,,,,,,,,,,,,,,,,,,,,,,,,,,,,,,,,,,,,,,,,,,,,,,,,,,,
,,,,,,,,,677743bf62e157794cf97ff4,Spanish ,13 or older,"no, only English or Spanish",no,2025-07-24_09h25.09.736,empathy_intonation_perc_control,2024.2.4,Win32,61.72839506,677743bf62e157794cf97ff4,68817205a84113384fffdfe3,688233b3a649d32ed7d451a6,,,,,,,,,,,,./stim/wavs/castilian_mismatch_declarative-broad-focus_Mi-novio-viene-del-lago.wav,0,,,179.4001,181.6137,1,0,1.6781,,0,71,71,71,1,72,0,castilian,,,,,,,,,,,,,,,,,,,,,,,,,,,,,,,,,,,,,,,,,,,,,,,,,,,,,,,,
,,,,,,,,,677743bf62e157794cf97ff4,Spanish ,13 or older,"no, only English or Spanish",no,2025-07-24_09h25.09.736,empathy_intonation_perc_control,2024.2.4,Win32,61.72839506,677743bf62e157794cf97ff4,68817205a84113384fffdfe3,688233b3a649d32ed7d451a6,,,,,,,,,,,,./stim/wavs/castilian_match_declarative-broad-focus_Emilio-ama-la-marcha.wav,0,,,181.6155,183.5364,0,1,1.3802,,0,72,72,45,1,46,0,castilian,,,,,,,,,,,,,,,,,,,,,,,,,,,,,,,,,,,,,,,,,,,,,,,,,,,,,,,,
,,,,,,,,,677743bf62e157794cf97ff4,Spanish ,13 or older,"no, only English or Spanish",no,2025-07-24_09h25.09.736,empathy_intonation_perc_control,2024.2.4,Win32,61.72839506,677743bf62e157794cf97ff4,68817205a84113384fffdfe3,688233b3a649d32ed7d451a6,,,,,,,,,,,,./stim/wavs/mexican_match_declarative-broad-focus_Mariano-habla-del-tiempo.wav,0,,,183.538,185.7746,0,1,1.7118,,0,73,73,60,1,61,0,mexican,,,,,,,,,,,,,,,,,,,,,,,,,,,,,,,,,,,,,,,,,,,,,,,,,,,,,,,,
,,,,,,,,,677743bf62e157794cf97ff4,Spanish ,13 or older,"no, only English or Spanish",no,2025-07-24_09h25.09.736,empathy_intonation_perc_control,2024.2.4,Win32,61.72839506,677743bf62e157794cf97ff4,68817205a84113384fffdfe3,688233b3a649d32ed7d451a6,,,,,,,,,,,,./stim/wavs/cuban_mismatch_interrogative-total-yn_Mi-novio-viene-del-lago.wav,1,,,185.7764,188.0091,1,1,1.6946,,0,74,74,32,1,33,1,cuban,,,,,,,,,,,,,,,,,,,,,,,,,,,,,,,,,,,,,,,,,,,,,,,,,,,,,,,,
,,,,,,,,,677743bf62e157794cf97ff4,Spanish ,13 or older,"no, only English or Spanish",no,2025-07-24_09h25.09.736,empathy_intonation_perc_control,2024.2.4,Win32,61.72839506,677743bf62e157794cf97ff4,68817205a84113384fffdfe3,688233b3a649d32ed7d451a6,,,,,,,,,,,,./stim/wavs/puertorican_mismatch_interrogative-total-yn_El-hombre-mira-la-luna.wav,1,,,188.0106,190.0201,0,0,1.4778,,0,75,75,39,1,40,1,puertorican,,,,,,,,,,,,,,,,,,,,,,,,,,,,,,,,,,,,,,,,,,,,,,,,,,,,,,,,
,,,,,,,,,677743bf62e157794cf97ff4,Spanish ,13 or older,"no, only English or Spanish",no,2025-07-24_09h25.09.736,empathy_intonation_perc_control,2024.2.4,Win32,61.72839506,677743bf62e157794cf97ff4,68817205a84113384fffdfe3,688233b3a649d32ed7d451a6,,,,,,,,,,,,./stim/wavs/cuban_mismatch_declarative-broad-focus_Mi-tia-odia-la-lluvia.wav,0,,,190.0223,192.3994,1,0,1.8283,,0,76,76,77,1,78,0,cuban,,,,,,,,,,,,,,,,,,,,,,,,,,,,,,,,,,,,,,,,,,,,,,,,,,,,,,,,
,,,,,,,,,677743bf62e157794cf97ff4,Spanish ,13 or older,"no, only English or Spanish",no,2025-07-24_09h25.09.736,empathy_intonation_perc_control,2024.2.4,Win32,61.72839506,677743bf62e157794cf97ff4,68817205a84113384fffdfe3,688233b3a649d32ed7d451a6,,,,,,,,,,,,./stim/wavs/mexican_mismatch_interrogative-total-yn_El-hombre-mira-la-luna.wav,1,,,192.4013,194.5313,0,0,1.6074,,0,77,77,34,1,35,0,mexican,,,,,,,,,,,,,,,,,,,,,,,,,,,,,,,,,,,,,,,,,,,,,,,,,,,,,,,,
,,,,,,,,,677743bf62e157794cf97ff4,Spanish ,13 or older,"no, only English or Spanish",no,2025-07-24_09h25.09.736,empathy_intonation_perc_control,2024.2.4,Win32,61.72839506,677743bf62e157794cf97ff4,68817205a84113384fffdfe3,688233b3a649d32ed7d451a6,,,,,,,,,,,,./stim/wavs/cuban_match_interrogative-total-yn_Maria-bebe-el-vino.wav,1,,,194.5337,196.73,1,1,1.6561,,0,78,78,9,1,10,1,cuban,,,,,,,,,,,,,,,,,,,,,,,,,,,,,,,,,,,,,,,,,,,,,,,,,,,,,,,,
,,,,,,,,,677743bf62e157794cf97ff4,Spanish ,13 or older,"no, only English or Spanish",no,2025-07-24_09h25.09.736,empathy_intonation_perc_control,2024.2.4,Win32,61.72839506,677743bf62e157794cf97ff4,68817205a84113384fffdfe3,688233b3a649d32ed7d451a6,,,,,,,,,,,,./stim/wavs/mexican_match_interrogative-total-yn_Ana-lleva-el-abrigo.wav,1,,,196.7317,198.7325,1,1,1.4761,,0,79,79,12,1,13,0,mexican,,,,,,,,,,,,,,,,,,,,,,,,,,,,,,,,,,,,,,,,,,,,,,,,,,,,,,,,
,,,,,,,,,677743bf62e157794cf97ff4,Spanish ,13 or older,"no, only English or Spanish",no,2025-07-24_09h25.09.736,empathy_intonation_perc_control,2024.2.4,Win32,61.72839506,677743bf62e157794cf97ff4,68817205a84113384fffdfe3,688233b3a649d32ed7d451a6,,,,,,,,,,,,./stim/wavs/cuban_mismatch_interrogative-total-yn_El-nino-oye-el-rio.wav,1,,,198.7347,200.6626,0,0,1.39,,0,80,80,30,1,31,1,cuban,,,,,,,,,,,,,,,,,,,,,,,,,,,,,,,,,,,,,,,,,,,,,,,,,,,,,,,,
,,,,,,,,,677743bf62e157794cf97ff4,Spanish ,13 or older,"no, only English or Spanish",no,2025-07-24_09h25.09.736,empathy_intonation_perc_control,2024.2.4,Win32,61.72839506,677743bf62e157794cf97ff4,68817205a84113384fffdfe3,688233b3a649d32ed7d451a6,,,,,,,,,,,,./stim/wavs/mexican_mismatch_declarative-broad-focus_El-bebe-comia-muy-bien.wav,0,,,200.6651,202.8593,1,0,1.6662,,0,81,81,78,1,79,0,mexican,,,,,,,,,,,,,,,,,,,,,,,,,,,,,,,,,,,,,,,,,,,,,,,,,,,,,,,,
,,,,,,,,,677743bf62e157794cf97ff4,Spanish ,13 or older,"no, only English or Spanish",no,2025-07-24_09h25.09.736,empathy_intonation_perc_control,2024.2.4,Win32,61.72839506,677743bf62e157794cf97ff4,68817205a84113384fffdfe3,688233b3a649d32ed7d451a6,,,,,,,,,,,,./stim/wavs/puertorican_match_interrogative-total-yn_Manuela-vende-el-carro.wav,1,,,202.8607,204.9409,0,0,1.5462,,0,82,82,22,1,23,1,puertorican,,,,,,,,,,,,,,,,,,,,,,,,,,,,,,,,,,,,,,,,,,,,,,,,,,,,,,,,
,,,,,,,,,677743bf62e157794cf97ff4,Spanish ,13 or older,"no, only English or Spanish",no,2025-07-24_09h25.09.736,empathy_intonation_perc_control,2024.2.4,Win32,61.72839506,677743bf62e157794cf97ff4,68817205a84113384fffdfe3,688233b3a649d32ed7d451a6,,,,,,,,,,,,./stim/wavs/puertorican_mismatch_declarative-broad-focus_El-nino-oye-el-rio.wav,0,,,204.9429,207.0003,0,1,1.5127,,0,83,83,85,1,86,0,puertorican,,,,,,,,,,,,,,,,,,,,,,,,,,,,,,,,,,,,,,,,,,,,,,,,,,,,,,,,
,,,,,,,,,677743bf62e157794cf97ff4,Spanish ,13 or older,"no, only English or Spanish",no,2025-07-24_09h25.09.736,empathy_intonation_perc_control,2024.2.4,Win32,61.72839506,677743bf62e157794cf97ff4,68817205a84113384fffdfe3,688233b3a649d32ed7d451a6,,,,,,,,,,,,./stim/wavs/castilian_match_interrogative-total-yn_Marta-abre-el-regalo.wav,1,,,207.0019,209.1536,0,0,1.6127,,0,84,84,5,1,6,0,castilian,,,,,,,,,,,,,,,,,,,,,,,,,,,,,,,,,,,,,,,,,,,,,,,,,,,,,,,,
,,,,,,,,,677743bf62e157794cf97ff4,Spanish ,13 or older,"no, only English or Spanish",no,2025-07-24_09h25.09.736,empathy_intonation_perc_control,2024.2.4,Win32,61.72839506,677743bf62e157794cf97ff4,68817205a84113384fffdfe3,688233b3a649d32ed7d451a6,,,,,,,,,,,,./stim/wavs/puertorican_match_interrogative-total-yn_Ana-lleva-el-abrigo.wav,1,,,209.1561,211.0488,1,1,1.352,,0,85,85,18,1,19,1,puertorican,,,,,,,,,,,,,,,,,,,,,,,,,,,,,,,,,,,,,,,,,,,,,,,,,,,,,,,,
,,,,,,,,,677743bf62e157794cf97ff4,Spanish ,13 or older,"no, only English or Spanish",no,2025-07-24_09h25.09.736,empathy_intonation_perc_control,2024.2.4,Win32,61.72839506,677743bf62e157794cf97ff4,68817205a84113384fffdfe3,688233b3a649d32ed7d451a6,,,,,,,,,,,,./stim/wavs/mexican_mismatch_declarative-broad-focus_Mi-tia-odia-la-lluvia.wav,0,,,211.0505,213.0267,0,1,1.432,,0,86,86,82,1,83,0,mexican,,,,,,,,,,,,,,,,,,,,,,,,,,,,,,,,,,,,,,,,,,,,,,,,,,,,,,,,
,,,,,,,,,677743bf62e157794cf97ff4,Spanish ,13 or older,"no, only English or Spanish",no,2025-07-24_09h25.09.736,empathy_intonation_perc_control,2024.2.4,Win32,61.72839506,677743bf62e157794cf97ff4,68817205a84113384fffdfe3,688233b3a649d32ed7d451a6,,,,,,,,,,,,./stim/wavs/castilian_mismatch_interrogative-total-yn_Mi-madre-come-la-fruta.wav,1,,,213.0286,214.9257,1,1,1.3674,,0,87,87,26,1,27,0,castilian,,,,,,,,,,,,,,,,,,,,,,,,,,,,,,,,,,,,,,,,,,,,,,,,,,,,,,,,
,,,,,,,"Great! Now we will move on. The next task consists of about 60 trials, in each of which you will see a string of letters. 
  
  Your task is to decide whether this is a real Spanish word or not.", (press the spacebar to continue),677743bf62e157794cf97ff4,Spanish ,13 or older,"no, only English or Spanish",no,2025-07-24_09h25.09.736,empathy_intonation_perc_control,2024.2.4,Win32,61.72839506,677743bf62e157794cf97ff4,68817205a84113384fffdfe3,688233b3a649d32ed7d451a6,,,,,,,,,,,,,,,,,,,,,,,,,,,,,,214.9463,422.0368,0,0,0,0,1,,,,,,,,,,,,,,,,,,,,,,,,,,,,,,,,,,,,,,,,,,,,,,,,,
,,,,,,,"If you think it is an existing Spanish word, you type '1' (for 'REAL'), and if you think it is not an existing Spanish word, you type '0' (for 'FAKE').", (press the spacebar to continue),677743bf62e157794cf97ff4,Spanish ,13 or older,"no, only English or Spanish",no,2025-07-24_09h25.09.736,empathy_intonation_perc_control,2024.2.4,Win32,61.72839506,677743bf62e157794cf97ff4,68817205a84113384fffdfe3,688233b3a649d32ed7d451a6,,,,,,,,,,,,,,,,,,,,,,,,,,,,,,422.0445,426.1617,0,1,1,1,1,,,,,,,,,,,,,,,,,,,,,,,,,,,,,,,,,,,,,,,,,,,,,,,,,
,,,,,,,"If you are sure that the word exists, even though you don’t know its exact meaning, you may still respond '1' (REAL). 
  
  But if you are not sure if it is an existing word, you should respond '0' (FAKE).
  
  Let's do a practice round...", (press the spacebar to continue),677743bf62e157794cf97ff4,Spanish ,13 or older,"no, only English or Spanish",no,2025-07-24_09h25.09.736,empathy_intonation_perc_control,2024.2.4,Win32,61.72839506,677743bf62e157794cf97ff4,68817205a84113384fffdfe3,688233b3a649d32ed7d451a6,,,,,,,,,,,,,,,,,,,,,,,,,,,,,,426.1689,443.3293,0,2,2,2,1,,,,,,,,,,,,,,,,,,,,,,,,,,,,,,,,,,,,,,,,,,,,,,,,,
,,,,,,,,,677743bf62e157794cf97ff4,Spanish ,13 or older,"no, only English or Spanish",no,2025-07-24_09h25.09.736,empathy_intonation_perc_control,2024.2.4,Win32,61.72839506,677743bf62e157794cf97ff4,68817205a84113384fffdfe3,688233b3a649d32ed7d451a6,,,,,,,,,,,,,0,,,,,,,,,,,,,,,,,,,,,,,,443.3484,445.0556,1,0,1.172,,445.0564,446.0564,0,0,0,0,1,0,depiste,REAL,FAKE,,,,,,,,,,,,,,,,,,,,,,,,,,,,,,,,
,,,,,,,,,677743bf62e157794cf97ff4,Spanish ,13 or older,"no, only English or Spanish",no,2025-07-24_09h25.09.736,empathy_intonation_perc_control,2024.2.4,Win32,61.72839506,677743bf62e157794cf97ff4,68817205a84113384fffdfe3,688233b3a649d32ed7d451a6,,,,,,,,,,,,,1,,,,,,,,,,,,,,,,,,,,,,,,446.0621,447.289,1,1,0.6984,,447.2929,448.3007,0,1,1,1,1,0,sí,REAL,FAKE,,,,,,,,,,,,,,,,,,,,,,,,,,,,,,,,
,,,,,,,,,677743bf62e157794cf97ff4,Spanish ,13 or older,"no, only English or Spanish",no,2025-07-24_09h25.09.736,empathy_intonation_perc_control,2024.2.4,Win32,61.72839506,677743bf62e157794cf97ff4,68817205a84113384fffdfe3,688233b3a649d32ed7d451a6,,,,,,,,,,,,,0,,,,,,,,,,,,,,,,,,,,,,,,448.3057,449.8033,1,0,0.9559,,449.805,450.7833,0,2,2,2,1,0,coné,REAL,FAKE,,,,,,,,,,,,,,,,,,,,,,,,,,,,,,,,
,,,,,,,,,677743bf62e157794cf97ff4,Spanish ,13 or older,"no, only English or Spanish",no,2025-07-24_09h25.09.736,empathy_intonation_perc_control,2024.2.4,Win32,61.72839506,677743bf62e157794cf97ff4,68817205a84113384fffdfe3,688233b3a649d32ed7d451a6,,,,,,,,,,,,,0,,,,,,,,,,,,,,,,,,,,,,,,450.7876,452.0975,0,1,0.7743,,452.0989,453.081,0,3,3,3,1,0,calpar,REAL,FAKE,,,,,,,,,,,,,,,,,,,,,,,,,,,,,,,,
,,,,,,,,,677743bf62e157794cf97ff4,Spanish ,13 or older,"no, only English or Spanish",no,2025-07-24_09h25.09.736,empathy_intonation_perc_control,2024.2.4,Win32,61.72839506,677743bf62e157794cf97ff4,68817205a84113384fffdfe3,688233b3a649d32ed7d451a6,,,,,,,,,,,,,0,,,,,,,,,,,,,,,,,,,,,,,,453.0851,454.4114,1,0,0.7792,,454.4144,455.4099,0,4,4,4,1,0,joten,REAL,FAKE,,,,,,,,,,,,,,,,,,,,,,,,,,,,,,,,
,,,,,,,,,677743bf62e157794cf97ff4,Spanish ,13 or older,"no, only English or Spanish",no,2025-07-24_09h25.09.736,empathy_intonation_perc_control,2024.2.4,Win32,61.72839506,677743bf62e157794cf97ff4,68817205a84113384fffdfe3,688233b3a649d32ed7d451a6,,,,,,,,,,,,,1,,,,,,,,,,,,,,,,,,,,,,,,455.4135,456.8267,0,0,0.8782,,456.827,457.8094,0,5,5,5,1,0,sacapuntas,REAL,FAKE,,,,,,,,,,,,,,,,,,,,,,,,,,,,,,,,
,,,,,,,,,677743bf62e157794cf97ff4,Spanish ,13 or older,"no, only English or Spanish",no,2025-07-24_09h25.09.736,empathy_intonation_perc_control,2024.2.4,Win32,61.72839506,677743bf62e157794cf97ff4,68817205a84113384fffdfe3,688233b3a649d32ed7d451a6,,,,,,,,,,,,,0,,,,,,,,,,,,,,,,,,,,,,,,457.8139,459.3244,0,1,0.9641,,459.3272,460.321,0,6,6,6,1,0,priba,REAL,FAKE,,,,,,,,,,,,,,,,,,,,,,,,,,,,,,,,
,,,,,,,,,677743bf62e157794cf97ff4,Spanish ,13 or older,"no, only English or Spanish",no,2025-07-24_09h25.09.736,empathy_intonation_perc_control,2024.2.4,Win32,61.72839506,677743bf62e157794cf97ff4,68817205a84113384fffdfe3,688233b3a649d32ed7d451a6,,,,,,,,,,,,,0,,,,,,,,,,,,,,,,,,,,,,,,460.3247,461.5916,1,0,0.7305,,461.5936,462.587,0,7,7,7,1,0,pelasula,REAL,FAKE,,,,,,,,,,,,,,,,,,,,,,,,,,,,,,,,
,,,,,,,,,677743bf62e157794cf97ff4,Spanish ,13 or older,"no, only English or Spanish",no,2025-07-24_09h25.09.736,empathy_intonation_perc_control,2024.2.4,Win32,61.72839506,677743bf62e157794cf97ff4,68817205a84113384fffdfe3,688233b3a649d32ed7d451a6,,,,,,,,,,,,,1,,,,,,,,,,,,,,,,,,,,,,,,462.5903,463.8852,1,1,0.741,,463.8876,464.8963,0,8,8,8,1,0,bien,REAL,FAKE,,,,,,,,,,,,,,,,,,,,,,,,,,,,,,,,
,,,,,,,,,677743bf62e157794cf97ff4,Spanish ,13 or older,"no, only English or Spanish",no,2025-07-24_09h25.09.736,empathy_intonation_perc_control,2024.2.4,Win32,61.72839506,677743bf62e157794cf97ff4,68817205a84113384fffdfe3,688233b3a649d32ed7d451a6,,,,,,,,,,,,,1,,,,,,,,,,,,,,,,,,,,,,,,464.9011,466.1645,1,1,0.7153,,466.1646,467.1649,0,9,9,9,1,0,casa,REAL,FAKE,,,,,,,,,,,,,,,,,,,,,,,,,,,,,,,,
,,,,,,,,,677743bf62e157794cf97ff4,Spanish ,13 or older,"no, only English or Spanish",no,2025-07-24_09h25.09.736,empathy_intonation_perc_control,2024.2.4,Win32,61.72839506,677743bf62e157794cf97ff4,68817205a84113384fffdfe3,688233b3a649d32ed7d451a6,,,,,,,,,,,,,0,,,,,,,,,,,,,,,,,,,,,,,,467.1679,468.7318,0,1,1.0218,,468.7319,469.7328,0,10,10,10,1,0,lejo,REAL,FAKE,,,,,,,,,,,,,,,,,,,,,,,,,,,,,,,,
,,,,,,,,,677743bf62e157794cf97ff4,Spanish ,13 or older,"no, only English or Spanish",no,2025-07-24_09h25.09.736,empathy_intonation_perc_control,2024.2.4,Win32,61.72839506,677743bf62e157794cf97ff4,68817205a84113384fffdfe3,688233b3a649d32ed7d451a6,,,,,,,,,,,,,0,,,,,,,,,,,,,,,,,,,,,,,,469.7364,471.0649,0,1,0.7981,,471.065,472.0715,0,11,11,11,1,0,pretantas,REAL,FAKE,,,,,,,,,,,,,,,,,,,,,,,,,,,,,,,,
,,,,,,,,,677743bf62e157794cf97ff4,Spanish ,13 or older,"no, only English or Spanish",no,2025-07-24_09h25.09.736,empathy_intonation_perc_control,2024.2.4,Win32,61.72839506,677743bf62e157794cf97ff4,68817205a84113384fffdfe3,688233b3a649d32ed7d451a6,,,,,,,,,,,,,,,,,,,,,,,,,,,,,,,,,,,,,,,,,,,,,,,,,,,,,,472.0741,480.0988,,,,,,,,,,,,,,,,,,,,,,,,,,,,,,
,,,,,,,,,677743bf62e157794cf97ff4,Spanish ,13 or older,"no, only English or Spanish",no,2025-07-24_09h25.09.736,empathy_intonation_perc_control,2024.2.4,Win32,61.72839506,677743bf62e157794cf97ff4,68817205a84113384fffdfe3,688233b3a649d32ed7d451a6,,,,,,,,,,,,,0,,,,,,,,,,,,,,,,,,,,,,,,,,,,,,,,,,,,,79,tropaje,,,,,480.1368,481.996,1,0,1.3151,,0,0,0,78,1,REAL,FAKE,,,,,,,,,,,,,,,,,
,,,,,,,,,677743bf62e157794cf97ff4,Spanish ,13 or older,"no, only English or Spanish",no,2025-07-24_09h25.09.736,empathy_intonation_perc_control,2024.2.4,Win32,61.72839506,677743bf62e157794cf97ff4,68817205a84113384fffdfe3,688233b3a649d32ed7d451a6,,,,,,,,,,,,,1,,,,,,,,,,,,,,,,,,,,,,,,,,,,,,,,,,,,,61,seda,,,,,481.999,483.3236,0,0,0.7968,,0,1,1,60,1,REAL,FAKE,,,,,,,,,,,,,,,,,
,,,,,,,,,677743bf62e157794cf97ff4,Spanish ,13 or older,"no, only English or Spanish",no,2025-07-24_09h25.09.736,empathy_intonation_perc_control,2024.2.4,Win32,61.72839506,677743bf62e157794cf97ff4,68817205a84113384fffdfe3,688233b3a649d32ed7d451a6,,,,,,,,,,,,,1,,,,,,,,,,,,,,,,,,,,,,,,,,,,,,,,,,,,,25,bisagra,,,,,483.328,484.5923,1,1,0.7328,,0,2,2,24,1,REAL,FAKE,,,,,,,,,,,,,,,,,
,,,,,,,,,677743bf62e157794cf97ff4,Spanish ,13 or older,"no, only English or Spanish",no,2025-07-24_09h25.09.736,empathy_intonation_perc_control,2024.2.4,Win32,61.72839506,677743bf62e157794cf97ff4,68817205a84113384fffdfe3,688233b3a649d32ed7d451a6,,,,,,,,,,,,,1,,,,,,,,,,,,,,,,,,,,,,,,,,,,,,,,,,,,,5,zapato,,,,,484.5964,485.7957,1,1,0.6679,,0,3,3,4,1,REAL,FAKE,,,,,,,,,,,,,,,,,
,,,,,,,,,677743bf62e157794cf97ff4,Spanish ,13 or older,"no, only English or Spanish",no,2025-07-24_09h25.09.736,empathy_intonation_perc_control,2024.2.4,Win32,61.72839506,677743bf62e157794cf97ff4,68817205a84113384fffdfe3,688233b3a649d32ed7d451a6,,,,,,,,,,,,,1,,,,,,,,,,,,,,,,,,,,,,,,,,,,,,,,,,,,,56,musgo,,,,,485.8001,487.0104,0,0,0.6851,,0,4,4,55,1,REAL,FAKE,,,,,,,,,,,,,,,,,
,,,,,,,,,677743bf62e157794cf97ff4,Spanish ,13 or older,"no, only English or Spanish",no,2025-07-24_09h25.09.736,empathy_intonation_perc_control,2024.2.4,Win32,61.72839506,677743bf62e157794cf97ff4,68817205a84113384fffdfe3,688233b3a649d32ed7d451a6,,,,,,,,,,,,,0,,,,,,,,,,,,,,,,,,,,,,,,,,,,,,,,,,,,,16,abracer,,,,,487.0122,488.2579,0,1,0.7147,,0,5,5,15,1,REAL,FAKE,,,,,,,,,,,,,,,,,
,,,,,,,,,677743bf62e157794cf97ff4,Spanish ,13 or older,"no, only English or Spanish",no,2025-07-24_09h25.09.736,empathy_intonation_perc_control,2024.2.4,Win32,61.72839506,677743bf62e157794cf97ff4,68817205a84113384fffdfe3,688233b3a649d32ed7d451a6,,,,,,,,,,,,,1,,,,,,,,,,,,,,,,,,,,,,,,,,,,,,,,,,,,,89,prisa,,,,,488.261,489.537,1,1,0.7451,,0,6,6,88,1,REAL,FAKE,,,,,,,,,,,,,,,,,
,,,,,,,,,677743bf62e157794cf97ff4,Spanish ,13 or older,"no, only English or Spanish",no,2025-07-24_09h25.09.736,empathy_intonation_perc_control,2024.2.4,Win32,61.72839506,677743bf62e157794cf97ff4,68817205a84113384fffdfe3,688233b3a649d32ed7d451a6,,,,,,,,,,,,,1,,,,,,,,,,,,,,,,,,,,,,,,,,,,,,,,,,,,,28,merodear,,,,,489.5403,490.7352,0,0,0.6604,,0,7,7,27,1,REAL,FAKE,,,,,,,,,,,,,,,,,
,,,,,,,,,677743bf62e157794cf97ff4,Spanish ,13 or older,"no, only English or Spanish",no,2025-07-24_09h25.09.736,empathy_intonation_perc_control,2024.2.4,Win32,61.72839506,677743bf62e157794cf97ff4,68817205a84113384fffdfe3,688233b3a649d32ed7d451a6,,,,,,,,,,,,,1,,,,,,,,,,,,,,,,,,,,,,,,,,,,,,,,,,,,,55,nevar,,,,,490.7393,492.0163,1,1,0.7325,,0,8,8,54,1,REAL,FAKE,,,,,,,,,,,,,,,,,
,,,,,,,,,677743bf62e157794cf97ff4,Spanish ,13 or older,"no, only English or Spanish",no,2025-07-24_09h25.09.736,empathy_intonation_perc_control,2024.2.4,Win32,61.72839506,677743bf62e157794cf97ff4,68817205a84113384fffdfe3,688233b3a649d32ed7d451a6,,,,,,,,,,,,,1,,,,,,,,,,,,,,,,,,,,,,,,,,,,,,,,,,,,,34,aviso,,,,,492.0192,493.5167,1,1,0.9462,,0,9,9,33,1,REAL,FAKE,,,,,,,,,,,,,,,,,
,,,,,,,,,677743bf62e157794cf97ff4,Spanish ,13 or older,"no, only English or Spanish",no,2025-07-24_09h25.09.736,empathy_intonation_perc_control,2024.2.4,Win32,61.72839506,677743bf62e157794cf97ff4,68817205a84113384fffdfe3,688233b3a649d32ed7d451a6,,,,,,,,,,,,,0,,,,,,,,,,,,,,,,,,,,,,,,,,,,,,,,,,,,,32,fatacidad,,,,,493.5209,494.7718,0,1,0.7068,,0,10,10,31,1,REAL,FAKE,,,,,,,,,,,,,,,,,
,,,,,,,,,677743bf62e157794cf97ff4,Spanish ,13 or older,"no, only English or Spanish",no,2025-07-24_09h25.09.736,empathy_intonation_perc_control,2024.2.4,Win32,61.72839506,677743bf62e157794cf97ff4,68817205a84113384fffdfe3,688233b3a649d32ed7d451a6,,,,,,,,,,,,,0,,,,,,,,,,,,,,,,,,,,,,,,,,,,,,,,,,,,,17,floroso,,,,,494.7746,496.048,1,0,0.7432,,0,11,11,16,1,REAL,FAKE,,,,,,,,,,,,,,,,,
,,,,,,,,,677743bf62e157794cf97ff4,Spanish ,13 or older,"no, only English or Spanish",no,2025-07-24_09h25.09.736,empathy_intonation_perc_control,2024.2.4,Win32,61.72839506,677743bf62e157794cf97ff4,68817205a84113384fffdfe3,688233b3a649d32ed7d451a6,,,,,,,,,,,,,1,,,,,,,,,,,,,,,,,,,,,,,,,,,,,,,,,,,,,51,candado,,,,,496.0516,497.2131,1,1,0.6145,,0,12,12,50,1,REAL,FAKE,,,,,,,,,,,,,,,,,
,,,,,,,,,677743bf62e157794cf97ff4,Spanish ,13 or older,"no, only English or Spanish",no,2025-07-24_09h25.09.736,empathy_intonation_perc_control,2024.2.4,Win32,61.72839506,677743bf62e157794cf97ff4,68817205a84113384fffdfe3,688233b3a649d32ed7d451a6,,,,,,,,,,,,,0,,,,,,,,,,,,,,,,,,,,,,,,,,,,,,,,,,,,,21,capillo,,,,,497.2159,498.4146,1,0,0.6653,,0,13,13,20,1,REAL,FAKE,,,,,,,,,,,,,,,,,
,,,,,,,,,677743bf62e157794cf97ff4,Spanish ,13 or older,"no, only English or Spanish",no,2025-07-24_09h25.09.736,empathy_intonation_perc_control,2024.2.4,Win32,61.72839506,677743bf62e157794cf97ff4,68817205a84113384fffdfe3,688233b3a649d32ed7d451a6,,,,,,,,,,,,,1,,,,,,,,,,,,,,,,,,,,,,,,,,,,,,,,,,,,,62,flaco,,,,,498.4186,499.7293,1,1,0.7675,,0,14,14,61,1,REAL,FAKE,,,,,,,,,,,,,,,,,
,,,,,,,,,677743bf62e157794cf97ff4,Spanish ,13 or older,"no, only English or Spanish",no,2025-07-24_09h25.09.736,empathy_intonation_perc_control,2024.2.4,Win32,61.72839506,677743bf62e157794cf97ff4,68817205a84113384fffdfe3,688233b3a649d32ed7d451a6,,,,,,,,,,,,,1,,,,,,,,,,,,,,,,,,,,,,,,,,,,,,,,,,,,,15,regar,,,,,499.7329,500.8794,1,1,0.6066,,0,15,15,14,1,REAL,FAKE,,,,,,,,,,,,,,,,,
,,,,,,,,,677743bf62e157794cf97ff4,Spanish ,13 or older,"no, only English or Spanish",no,2025-07-24_09h25.09.736,empathy_intonation_perc_control,2024.2.4,Win32,61.72839506,677743bf62e157794cf97ff4,68817205a84113384fffdfe3,688233b3a649d32ed7d451a6,,,,,,,,,,,,,0,,,,,,,,,,,,,,,,,,,,,,,,,,,,,,,,,,,,,47,cartinar,,,,,500.8825,502.0918,0,1,0.6869,,0,16,16,46,1,REAL,FAKE,,,,,,,,,,,,,,,,,
,,,,,,,,,677743bf62e157794cf97ff4,Spanish ,13 or older,"no, only English or Spanish",no,2025-07-24_09h25.09.736,empathy_intonation_perc_control,2024.2.4,Win32,61.72839506,677743bf62e157794cf97ff4,68817205a84113384fffdfe3,688233b3a649d32ed7d451a6,,,,,,,,,,,,,1,,,,,,,,,,,,,,,,,,,,,,,,,,,,,,,,,,,,,37,granuja,,,,,502.0951,503.259,0,0,0.6296,,0,17,17,36,1,REAL,FAKE,,,,,,,,,,,,,,,,,
,,,,,,,,,677743bf62e157794cf97ff4,Spanish ,13 or older,"no, only English or Spanish",no,2025-07-24_09h25.09.736,empathy_intonation_perc_control,2024.2.4,Win32,61.72839506,677743bf62e157794cf97ff4,68817205a84113384fffdfe3,688233b3a649d32ed7d451a6,,,,,,,,,,,,,1,,,,,,,,,,,,,,,,,,,,,,,,,,,,,,,,,,,,,90,clavel,,,,,503.2624,504.3942,1,1,0.6071,,0,18,18,89,1,REAL,FAKE,,,,,,,,,,,,,,,,,
,,,,,,,,,677743bf62e157794cf97ff4,Spanish ,13 or older,"no, only English or Spanish",no,2025-07-24_09h25.09.736,empathy_intonation_perc_control,2024.2.4,Win32,61.72839506,677743bf62e157794cf97ff4,68817205a84113384fffdfe3,688233b3a649d32ed7d451a6,,,,,,,,,,,,,1,,,,,,,,,,,,,,,,,,,,,,,,,,,,,,,,,,,,,9,hacha,,,,,504.3976,505.5839,0,0,0.6554,,0,19,19,8,1,REAL,FAKE,,,,,,,,,,,,,,,,,
,,,,,,,,,677743bf62e157794cf97ff4,Spanish ,13 or older,"no, only English or Spanish",no,2025-07-24_09h25.09.736,empathy_intonation_perc_control,2024.2.4,Win32,61.72839506,677743bf62e157794cf97ff4,68817205a84113384fffdfe3,688233b3a649d32ed7d451a6,,,,,,,,,,,,,1,,,,,,,,,,,,,,,,,,,,,,,,,,,,,,,,,,,,,83,guante,,,,,505.5878,506.8852,0,0,0.7725,,0,20,20,82,1,REAL,FAKE,,,,,,,,,,,,,,,,,
,,,,,,,,,677743bf62e157794cf97ff4,Spanish ,13 or older,"no, only English or Spanish",no,2025-07-24_09h25.09.736,empathy_intonation_perc_control,2024.2.4,Win32,61.72839506,677743bf62e157794cf97ff4,68817205a84113384fffdfe3,688233b3a649d32ed7d451a6,,,,,,,,,,,,,1,,,,,,,,,,,,,,,,,,,,,,,,,,,,,,,,,,,,,59,besar,,,,,506.8884,508.0661,1,1,0.6536,,0,21,21,58,1,REAL,FAKE,,,,,,,,,,,,,,,,,
,,,,,,,,,677743bf62e157794cf97ff4,Spanish ,13 or older,"no, only English or Spanish",no,2025-07-24_09h25.09.736,empathy_intonation_perc_control,2024.2.4,Win32,61.72839506,677743bf62e157794cf97ff4,68817205a84113384fffdfe3,688233b3a649d32ed7d451a6,,,,,,,,,,,,,1,,,,,,,,,,,,,,,,,,,,,,,,,,,,,,,,,,,,,2,pellizcar,,,,,508.0701,509.3483,0,0,0.7446,,0,22,22,1,1,REAL,FAKE,,,,,,,,,,,,,,,,,
,,,,,,,,,677743bf62e157794cf97ff4,Spanish ,13 or older,"no, only English or Spanish",no,2025-07-24_09h25.09.736,empathy_intonation_perc_control,2024.2.4,Win32,61.72839506,677743bf62e157794cf97ff4,68817205a84113384fffdfe3,688233b3a649d32ed7d451a6,,,,,,,,,,,,,0,,,,,,,,,,,,,,,,,,,,,,,,,,,,,,,,,,,,,84,escuto,,,,,509.3509,510.6321,0,1,0.7488,,0,23,23,83,1,REAL,FAKE,,,,,,,,,,,,,,,,,
,,,,,,,,,677743bf62e157794cf97ff4,Spanish ,13 or older,"no, only English or Spanish",no,2025-07-24_09h25.09.736,empathy_intonation_perc_control,2024.2.4,Win32,61.72839506,677743bf62e157794cf97ff4,68817205a84113384fffdfe3,688233b3a649d32ed7d451a6,,,,,,,,,,,,,1,,,,,,,,,,,,,,,,,,,,,,,,,,,,,,,,,,,,,7,pésimo,,,,,510.6344,512.3673,0,0,1.19,,0,24,24,6,1,REAL,FAKE,,,,,,,,,,,,,,,,,
,,,,,,,,,677743bf62e157794cf97ff4,Spanish ,13 or older,"no, only English or Spanish",no,2025-07-24_09h25.09.736,empathy_intonation_perc_control,2024.2.4,Win32,61.72839506,677743bf62e157794cf97ff4,68817205a84113384fffdfe3,688233b3a649d32ed7d451a6,,,,,,,,,,,,,0,,,,,,,,,,,,,,,,,,,,,,,,,,,,,,,,,,,,,35,rompido,,,,,512.3694,513.4363,0,1,0.5338,,0,25,25,34,1,REAL,FAKE,,,,,,,,,,,,,,,,,
,,,,,,,,,677743bf62e157794cf97ff4,Spanish ,13 or older,"no, only English or Spanish",no,2025-07-24_09h25.09.736,empathy_intonation_perc_control,2024.2.4,Win32,61.72839506,677743bf62e157794cf97ff4,68817205a84113384fffdfe3,688233b3a649d32ed7d451a6,,,,,,,,,,,,,0,,,,,,,,,,,,,,,,,,,,,,,,,,,,,,,,,,,,,4,batillón,,,,,513.4402,514.6752,0,1,0.7072,,0,26,26,3,1,REAL,FAKE,,,,,,,,,,,,,,,,,
,,,,,,,,,677743bf62e157794cf97ff4,Spanish ,13 or older,"no, only English or Spanish",no,2025-07-24_09h25.09.736,empathy_intonation_perc_control,2024.2.4,Win32,61.72839506,677743bf62e157794cf97ff4,68817205a84113384fffdfe3,688233b3a649d32ed7d451a6,,,,,,,,,,,,,0,,,,,,,,,,,,,,,,,,,,,,,,,,,,,,,,,,,,,70,temblo,,,,,514.6783,515.7251,1,0,0.5036,,0,27,27,69,1,REAL,FAKE,,,,,,,,,,,,,,,,,
,,,,,,,,,677743bf62e157794cf97ff4,Spanish ,13 or older,"no, only English or Spanish",no,2025-07-24_09h25.09.736,empathy_intonation_perc_control,2024.2.4,Win32,61.72839506,677743bf62e157794cf97ff4,68817205a84113384fffdfe3,688233b3a649d32ed7d451a6,,,,,,,,,,,,,1,,,,,,,,,,,,,,,,,,,,,,,,,,,,,,,,,,,,,75,yacer,,,,,515.7297,516.9777,0,0,0.7048,,0,28,28,74,1,REAL,FAKE,,,,,,,,,,,,,,,,,
,,,,,,,,,677743bf62e157794cf97ff4,Spanish ,13 or older,"no, only English or Spanish",no,2025-07-24_09h25.09.736,empathy_intonation_perc_control,2024.2.4,Win32,61.72839506,677743bf62e157794cf97ff4,68817205a84113384fffdfe3,688233b3a649d32ed7d451a6,,,,,,,,,,,,,1,,,,,,,,,,,,,,,,,,,,,,,,,,,,,,,,,,,,,3,pulmones,,,,,516.981,518.256,1,1,0.7367,,0,29,29,2,1,REAL,FAKE,,,,,,,,,,,,,,,,,
,,,,,,,,,677743bf62e157794cf97ff4,Spanish ,13 or older,"no, only English or Spanish",no,2025-07-24_09h25.09.736,empathy_intonation_perc_control,2024.2.4,Win32,61.72839506,677743bf62e157794cf97ff4,68817205a84113384fffdfe3,688233b3a649d32ed7d451a6,,,,,,,,,,,,,0,,,,,,,,,,,,,,,,,,,,,,,,,,,,,,,,,,,,,66,hacido,,,,,518.2593,519.5365,0,1,0.7521,,0,30,30,65,1,REAL,FAKE,,,,,,,,,,,,,,,,,
,,,,,,,,,677743bf62e157794cf97ff4,Spanish ,13 or older,"no, only English or Spanish",no,2025-07-24_09h25.09.736,empathy_intonation_perc_control,2024.2.4,Win32,61.72839506,677743bf62e157794cf97ff4,68817205a84113384fffdfe3,688233b3a649d32ed7d451a6,,,,,,,,,,,,,0,,,,,,,,,,,,,,,,,,,,,,,,,,,,,,,,,,,,,29,decar,,,,,519.5394,520.737,1,0,0.6472,,0,31,31,28,1,REAL,FAKE,,,,,,,,,,,,,,,,,
,,,,,,,,,677743bf62e157794cf97ff4,Spanish ,13 or older,"no, only English or Spanish",no,2025-07-24_09h25.09.736,empathy_intonation_perc_control,2024.2.4,Win32,61.72839506,677743bf62e157794cf97ff4,68817205a84113384fffdfe3,688233b3a649d32ed7d451a6,,,,,,,,,,,,,1,,,,,,,,,,,,,,,,,,,,,,,,,,,,,,,,,,,,,20,ávido,,,,,520.7409,522.0041,0,0,0.7423,,0,32,32,19,1,REAL,FAKE,,,,,,,,,,,,,,,,,
,,,,,,,,,677743bf62e157794cf97ff4,Spanish ,13 or older,"no, only English or Spanish",no,2025-07-24_09h25.09.736,empathy_intonation_perc_control,2024.2.4,Win32,61.72839506,677743bf62e157794cf97ff4,68817205a84113384fffdfe3,688233b3a649d32ed7d451a6,,,,,,,,,,,,,1,,,,,,,,,,,,,,,,,,,,,,,,,,,,,,,,,,,,,43,canela,,,,,522.0064,523.2695,1,1,0.7196,,0,33,33,42,1,REAL,FAKE,,,,,,,,,,,,,,,,,
,,,,,,,,,677743bf62e157794cf97ff4,Spanish ,13 or older,"no, only English or Spanish",no,2025-07-24_09h25.09.736,empathy_intonation_perc_control,2024.2.4,Win32,61.72839506,677743bf62e157794cf97ff4,68817205a84113384fffdfe3,688233b3a649d32ed7d451a6,,,,,,,,,,,,,1,,,,,,,,,,,,,,,,,,,,,,,,,,,,,,,,,,,,,36,loro,,,,,523.2724,524.353,1,1,0.552,,0,34,34,35,1,REAL,FAKE,,,,,,,,,,,,,,,,,
,,,,,,,,,677743bf62e157794cf97ff4,Spanish ,13 or older,"no, only English or Spanish",no,2025-07-24_09h25.09.736,empathy_intonation_perc_control,2024.2.4,Win32,61.72839506,677743bf62e157794cf97ff4,68817205a84113384fffdfe3,688233b3a649d32ed7d451a6,,,,,,,,,,,,,1,,,,,,,,,,,,,,,,,,,,,,,,,,,,,,,,,,,,,68,alegre,,,,,524.3557,525.4985,0,0,0.6137,,0,35,35,67,1,REAL,FAKE,,,,,,,,,,,,,,,,,
,,,,,,,,,677743bf62e157794cf97ff4,Spanish ,13 or older,"no, only English or Spanish",no,2025-07-24_09h25.09.736,empathy_intonation_perc_control,2024.2.4,Win32,61.72839506,677743bf62e157794cf97ff4,68817205a84113384fffdfe3,688233b3a649d32ed7d451a6,,,,,,,,,,,,,0,,,,,,,,,,,,,,,,,,,,,,,,,,,,,,,,,,,,,92,click the 0 key.,,,,,525.5019,527.8427,0,1,1.8191,,0,36,36,91,1,REAL,FAKE,,,,,,,,,,,,,,,,,
,,,,,,,,,677743bf62e157794cf97ff4,Spanish ,13 or older,"no, only English or Spanish",no,2025-07-24_09h25.09.736,empathy_intonation_perc_control,2024.2.4,Win32,61.72839506,677743bf62e157794cf97ff4,68817205a84113384fffdfe3,688233b3a649d32ed7d451a6,,,,,,,,,,,,,1,,,,,,,,,,,,,,,,,,,,,,,,,,,,,,,,,,,,,69,engatusar,,,,,527.8462,528.931,1,1,0.5526,,0,37,37,68,1,REAL,FAKE,,,,,,,,,,,,,,,,,
,,,,,,,,,677743bf62e157794cf97ff4,Spanish ,13 or older,"no, only English or Spanish",no,2025-07-24_09h25.09.736,empathy_intonation_perc_control,2024.2.4,Win32,61.72839506,677743bf62e157794cf97ff4,68817205a84113384fffdfe3,688233b3a649d32ed7d451a6,,,,,,,,,,,,,0,,,,,,,,,,,,,,,,,,,,,,,,,,,,,,,,,,,,,53,vegada,,,,,528.934,529.9979,1,0,0.5251,,0,38,38,52,1,REAL,FAKE,,,,,,,,,,,,,,,,,
,,,,,,,,,677743bf62e157794cf97ff4,Spanish ,13 or older,"no, only English or Spanish",no,2025-07-24_09h25.09.736,empathy_intonation_perc_control,2024.2.4,Win32,61.72839506,677743bf62e157794cf97ff4,68817205a84113384fffdfe3,688233b3a649d32ed7d451a6,,,,,,,,,,,,,1,,,,,,,,,,,,,,,,,,,,,,,,,,,,,,,,,,,,,46,martillo,,,,,530.0008,531.1888,0,0,0.6596,,0,39,39,45,1,REAL,FAKE,,,,,,,,,,,,,,,,,
,,,,,,,,,677743bf62e157794cf97ff4,Spanish ,13 or older,"no, only English or Spanish",no,2025-07-24_09h25.09.736,empathy_intonation_perc_control,2024.2.4,Win32,61.72839506,677743bf62e157794cf97ff4,68817205a84113384fffdfe3,688233b3a649d32ed7d451a6,,,,,,,,,,,,,1,,,,,,,,,,,,,,,,,,,,,,,,,,,,,,,,,,,,,52,camisa,,,,,531.1919,532.2721,1,1,0.5458,,0,40,40,51,1,REAL,FAKE,,,,,,,,,,,,,,,,,
,,,,,,,,,677743bf62e157794cf97ff4,Spanish ,13 or older,"no, only English or Spanish",no,2025-07-24_09h25.09.736,empathy_intonation_perc_control,2024.2.4,Win32,61.72839506,677743bf62e157794cf97ff4,68817205a84113384fffdfe3,688233b3a649d32ed7d451a6,,,,,,,,,,,,,0,,,,,,,,,,,,,,,,,,,,,,,,,,,,,,,,,,,,,33,pauca,,,,,532.2765,533.3081,1,0,0.4975,,0,41,41,32,1,REAL,FAKE,,,,,,,,,,,,,,,,,
,,,,,,,,,677743bf62e157794cf97ff4,Spanish ,13 or older,"no, only English or Spanish",no,2025-07-24_09h25.09.736,empathy_intonation_perc_control,2024.2.4,Win32,61.72839506,677743bf62e157794cf97ff4,68817205a84113384fffdfe3,688233b3a649d32ed7d451a6,,,,,,,,,,,,,0,,,,,,,,,,,,,,,,,,,,,,,,,,,,,,,,,,,,,87,grodo,,,,,533.3107,534.3659,0,1,0.5232,,0,42,42,86,1,REAL,FAKE,,,,,,,,,,,,,,,,,
,,,,,,,,,677743bf62e157794cf97ff4,Spanish ,13 or older,"no, only English or Spanish",no,2025-07-24_09h25.09.736,empathy_intonation_perc_control,2024.2.4,Win32,61.72839506,677743bf62e157794cf97ff4,68817205a84113384fffdfe3,688233b3a649d32ed7d451a6,,,,,,,,,,,,,1,,,,,,,,,,,,,,,,,,,,,,,,,,,,,,,,,,,,,78,frondoso,,,,,534.3703,535.4027,1,1,0.4966,,0,43,43,77,1,REAL,FAKE,,,,,,,,,,,,,,,,,
,,,,,,,,,677743bf62e157794cf97ff4,Spanish ,13 or older,"no, only English or Spanish",no,2025-07-24_09h25.09.736,empathy_intonation_perc_control,2024.2.4,Win32,61.72839506,677743bf62e157794cf97ff4,68817205a84113384fffdfe3,688233b3a649d32ed7d451a6,,,,,,,,,,,,,1,,,,,,,,,,,,,,,,,,,,,,,,,,,,,,,,,,,,,57,tacaño,,,,,535.4083,536.5413,1,1,0.5932,,0,44,44,56,1,REAL,FAKE,,,,,,,,,,,,,,,,,
,,,,,,,,,677743bf62e157794cf97ff4,Spanish ,13 or older,"no, only English or Spanish",no,2025-07-24_09h25.09.736,empathy_intonation_perc_control,2024.2.4,Win32,61.72839506,677743bf62e157794cf97ff4,68817205a84113384fffdfe3,688233b3a649d32ed7d451a6,,,,,,,,,,,,,1,,,,,,,,,,,,,,,,,,,,,,,,,,,,,,,,,,,,,39,torpe,,,,,536.5451,537.5837,1,1,0.5165,,0,45,45,38,1,REAL,FAKE,,,,,,,,,,,,,,,,,
,,,,,,,,,677743bf62e157794cf97ff4,Spanish ,13 or older,"no, only English or Spanish",no,2025-07-24_09h25.09.736,empathy_intonation_perc_control,2024.2.4,Win32,61.72839506,677743bf62e157794cf97ff4,68817205a84113384fffdfe3,688233b3a649d32ed7d451a6,,,,,,,,,,,,,0,,,,,,,,,,,,,,,,,,,,,,,,,,,,,,,,,,,,,23,lampera,,,,,537.5891,538.8501,1,0,0.741,,0,46,46,22,1,REAL,FAKE,,,,,,,,,,,,,,,,,
,,,,,,,,,677743bf62e157794cf97ff4,Spanish ,13 or older,"no, only English or Spanish",no,2025-07-24_09h25.09.736,empathy_intonation_perc_control,2024.2.4,Win32,61.72839506,677743bf62e157794cf97ff4,68817205a84113384fffdfe3,688233b3a649d32ed7d451a6,,,,,,,,,,,,,1,,,,,,,,,,,,,,,,,,,,,,,,,,,,,,,,,,,,,86,barato,,,,,538.8538,539.9083,0,0,0.526,,0,47,47,85,1,REAL,FAKE,,,,,,,,,,,,,,,,,
,,,,,,,,,677743bf62e157794cf97ff4,Spanish ,13 or older,"no, only English or Spanish",no,2025-07-24_09h25.09.736,empathy_intonation_perc_control,2024.2.4,Win32,61.72839506,677743bf62e157794cf97ff4,68817205a84113384fffdfe3,688233b3a649d32ed7d451a6,,,,,,,,,,,,,0,,,,,,,,,,,,,,,,,,,,,,,,,,,,,,,,,,,,,58,plaudir,,,,,539.9123,540.9813,1,0,0.5467,,0,48,48,57,1,REAL,FAKE,,,,,,,,,,,,,,,,,
,,,,,,,,,677743bf62e157794cf97ff4,Spanish ,13 or older,"no, only English or Spanish",no,2025-07-24_09h25.09.736,empathy_intonation_perc_control,2024.2.4,Win32,61.72839506,677743bf62e157794cf97ff4,68817205a84113384fffdfe3,688233b3a649d32ed7d451a6,,,,,,,,,,,,,0,,,,,,,,,,,,,,,,,,,,,,,,,,,,,,,,,,,,,10,antar,,,,,540.9836,542.017,1,0,0.4924,,0,49,49,9,1,REAL,FAKE,,,,,,,,,,,,,,,,,
,,,,,,,,,677743bf62e157794cf97ff4,Spanish ,13 or older,"no, only English or Spanish",no,2025-07-24_09h25.09.736,empathy_intonation_perc_control,2024.2.4,Win32,61.72839506,677743bf62e157794cf97ff4,68817205a84113384fffdfe3,688233b3a649d32ed7d451a6,,,,,,,,,,,,,1,,,,,,,,,,,,,,,,,,,,,,,,,,,,,,,,,,,,,80,hormiga,,,,,542.0204,543.0783,1,1,0.5333,,0,50,50,79,1,REAL,FAKE,,,,,,,,,,,,,,,,,
,,,,,,,,,677743bf62e157794cf97ff4,Spanish ,13 or older,"no, only English or Spanish",no,2025-07-24_09h25.09.736,empathy_intonation_perc_control,2024.2.4,Win32,61.72839506,677743bf62e157794cf97ff4,68817205a84113384fffdfe3,688233b3a649d32ed7d451a6,,,,,,,,,,,,,0,,,,,,,,,,,,,,,,,,,,,,,,,,,,,,,,,,,,,18,arsa,,,,,543.0809,544.0754,1,0,0.4645,,0,51,51,17,1,REAL,FAKE,,,,,,,,,,,,,,,,,
,,,,,,,,,677743bf62e157794cf97ff4,Spanish ,13 or older,"no, only English or Spanish",no,2025-07-24_09h25.09.736,empathy_intonation_perc_control,2024.2.4,Win32,61.72839506,677743bf62e157794cf97ff4,68817205a84113384fffdfe3,688233b3a649d32ed7d451a6,,,,,,,,,,,,,0,,,,,,,,,,,,,,,,,,,,,,,,,,,,,,,,,,,,,82,empirador,,,,,544.0793,545.1765,0,1,0.5499,,0,52,52,81,1,REAL,FAKE,,,,,,,,,,,,,,,,,
,,,,,,,,,677743bf62e157794cf97ff4,Spanish ,13 or older,"no, only English or Spanish",no,2025-07-24_09h25.09.736,empathy_intonation_perc_control,2024.2.4,Win32,61.72839506,677743bf62e157794cf97ff4,68817205a84113384fffdfe3,688233b3a649d32ed7d451a6,,,,,,,,,,,,,1,,,,,,,,,,,,,,,,,,,,,,,,,,,,,,,,,,,,,14,yunque,,,,,545.1795,546.1714,1,1,0.4612,,0,53,53,13,1,REAL,FAKE,,,,,,,,,,,,,,,,,
,,,,,,,,,677743bf62e157794cf97ff4,Spanish ,13 or older,"no, only English or Spanish",no,2025-07-24_09h25.09.736,empathy_intonation_perc_control,2024.2.4,Win32,61.72839506,677743bf62e157794cf97ff4,68817205a84113384fffdfe3,688233b3a649d32ed7d451a6,,,,,,,,,,,,,1,,,,,,,,,,,,,,,,,,,,,,,,,,,,,,,,,,,,,48,ladrón,,,,,546.1744,547.3227,0,0,0.6265,,0,54,54,47,1,REAL,FAKE,,,,,,,,,,,,,,,,,
,,,,,,,,,677743bf62e157794cf97ff4,Spanish ,13 or older,"no, only English or Spanish",no,2025-07-24_09h25.09.736,empathy_intonation_perc_control,2024.2.4,Win32,61.72839506,677743bf62e157794cf97ff4,68817205a84113384fffdfe3,688233b3a649d32ed7d451a6,,,,,,,,,,,,,1,,,,,,,,,,,,,,,,,,,,,,,,,,,,,,,,,,,,,77,tiburón,,,,,547.3266,548.3697,1,1,0.5016,,0,55,55,76,1,REAL,FAKE,,,,,,,,,,,,,,,,,
,,,,,,,,,677743bf62e157794cf97ff4,Spanish ,13 or older,"no, only English or Spanish",no,2025-07-24_09h25.09.736,empathy_intonation_perc_control,2024.2.4,Win32,61.72839506,677743bf62e157794cf97ff4,68817205a84113384fffdfe3,688233b3a649d32ed7d451a6,,,,,,,,,,,,,0,,,,,,,,,,,,,,,,,,,,,,,,,,,,,,,,,,,,,8,cadeña,,,,,548.3735,549.9556,1,0,1.0463,,0,56,56,7,1,REAL,FAKE,,,,,,,,,,,,,,,,,
,,,,,,,,,677743bf62e157794cf97ff4,Spanish ,13 or older,"no, only English or Spanish",no,2025-07-24_09h25.09.736,empathy_intonation_perc_control,2024.2.4,Win32,61.72839506,677743bf62e157794cf97ff4,68817205a84113384fffdfe3,688233b3a649d32ed7d451a6,,,,,,,,,,,,,1,,,,,,,,,,,,,,,,,,,,,,,,,,,,,,,,,,,,,91,click the 1 key.,,,,,549.9588,551.6866,1,1,1.1953,,0,57,57,90,1,REAL,FAKE,,,,,,,,,,,,,,,,,
,,,,,,,,,677743bf62e157794cf97ff4,Spanish ,13 or older,"no, only English or Spanish",no,2025-07-24_09h25.09.736,empathy_intonation_perc_control,2024.2.4,Win32,61.72839506,677743bf62e157794cf97ff4,68817205a84113384fffdfe3,688233b3a649d32ed7d451a6,,,,,,,,,,,,,1,,,,,,,,,,,,,,,,,,,,,,,,,,,,,,,,,,,,,81,pozo,,,,,551.69,552.736,0,0,0.4974,,0,58,58,80,1,REAL,FAKE,,,,,,,,,,,,,,,,,
,,,,,,,,,677743bf62e157794cf97ff4,Spanish ,13 or older,"no, only English or Spanish",no,2025-07-24_09h25.09.736,empathy_intonation_perc_control,2024.2.4,Win32,61.72839506,677743bf62e157794cf97ff4,68817205a84113384fffdfe3,688233b3a649d32ed7d451a6,,,,,,,,,,,,,1,,,,,,,,,,,,,,,,,,,,,,,,,,,,,,,,,,,,,71,polvoriento,,,,,552.7394,553.7621,0,0,0.4891,,0,59,59,70,1,REAL,FAKE,,,,,,,,,,,,,,,,,
,,,,,,,,,677743bf62e157794cf97ff4,Spanish ,13 or older,"no, only English or Spanish",no,2025-07-24_09h25.09.736,empathy_intonation_perc_control,2024.2.4,Win32,61.72839506,677743bf62e157794cf97ff4,68817205a84113384fffdfe3,688233b3a649d32ed7d451a6,,,,,,,,,,,,,1,,,,,,,,,,,,,,,,,,,,,,,,,,,,,,,,,,,,,44,cuchara,,,,,553.7654,554.7463,1,1,0.4578,,0,60,60,43,1,REAL,FAKE,,,,,,,,,,,,,,,,,
,,,,,,,,,677743bf62e157794cf97ff4,Spanish ,13 or older,"no, only English or Spanish",no,2025-07-24_09h25.09.736,empathy_intonation_perc_control,2024.2.4,Win32,61.72839506,677743bf62e157794cf97ff4,68817205a84113384fffdfe3,688233b3a649d32ed7d451a6,,,,,,,,,,,,,1,,,,,,,,,,,,,,,,,,,,,,,,,,,,,,,,,,,,,6,tergiversar,,,,,554.7499,555.7497,0,0,0.4684,,0,61,61,5,1,REAL,FAKE,,,,,,,,,,,,,,,,,
,,,,,,,,,677743bf62e157794cf97ff4,Spanish ,13 or older,"no, only English or Spanish",no,2025-07-24_09h25.09.736,empathy_intonation_perc_control,2024.2.4,Win32,61.72839506,677743bf62e157794cf97ff4,68817205a84113384fffdfe3,688233b3a649d32ed7d451a6,,,,,,,,,,,,,1,,,,,,,,,,,,,,,,,,,,,,,,,,,,,,,,,,,,,11,cenefa,,,,,555.7526,556.7535,1,1,0.4668,,0,62,62,10,1,REAL,FAKE,,,,,,,,,,,,,,,,,
,,,,,,,,,677743bf62e157794cf97ff4,Spanish ,13 or older,"no, only English or Spanish",no,2025-07-24_09h25.09.736,empathy_intonation_perc_control,2024.2.4,Win32,61.72839506,677743bf62e157794cf97ff4,68817205a84113384fffdfe3,688233b3a649d32ed7d451a6,,,,,,,,,,,,,1,,,,,,,,,,,,,,,,,,,,,,,,,,,,,,,,,,,,,38,estornudar,,,,,556.7559,557.7966,1,1,0.519,,0,63,63,37,1,REAL,FAKE,,,,,,,,,,,,,,,,,
,,,,,,,,,677743bf62e157794cf97ff4,Spanish ,13 or older,"no, only English or Spanish",no,2025-07-24_09h25.09.736,empathy_intonation_perc_control,2024.2.4,Win32,61.72839506,677743bf62e157794cf97ff4,68817205a84113384fffdfe3,688233b3a649d32ed7d451a6,,,,,,,,,,,,,1,,,,,,,,,,,,,,,,,,,,,,,,,,,,,,,,,,,,,85,laúd,,,,,557.8017,558.9256,0,0,0.5957,,0,64,64,84,1,REAL,FAKE,,,,,,,,,,,,,,,,,
,,,,,,,,,677743bf62e157794cf97ff4,Spanish ,13 or older,"no, only English or Spanish",no,2025-07-24_09h25.09.736,empathy_intonation_perc_control,2024.2.4,Win32,61.72839506,677743bf62e157794cf97ff4,68817205a84113384fffdfe3,688233b3a649d32ed7d451a6,,,,,,,,,,,,,1,,,,,,,,,,,,,,,,,,,,,,,,,,,,,,,,,,,,,40,alfombra,,,,,558.9287,560.0236,1,1,0.5614,,0,65,65,39,1,REAL,FAKE,,,,,,,,,,,,,,,,,
,,,,,,,,,677743bf62e157794cf97ff4,Spanish ,13 or older,"no, only English or Spanish",no,2025-07-24_09h25.09.736,empathy_intonation_perc_control,2024.2.4,Win32,61.72839506,677743bf62e157794cf97ff4,68817205a84113384fffdfe3,688233b3a649d32ed7d451a6,,,,,,,,,,,,,0,,,,,,,,,,,,,,,,,,,,,,,,,,,,,,,,,,,,,1,terzo,,,,,560.0276,561.2219,1,0,0.6609,,0,66,66,0,1,REAL,FAKE,,,,,,,,,,,,,,,,,
,,,,,,,,,677743bf62e157794cf97ff4,Spanish ,13 or older,"no, only English or Spanish",no,2025-07-24_09h25.09.736,empathy_intonation_perc_control,2024.2.4,Win32,61.72839506,677743bf62e157794cf97ff4,68817205a84113384fffdfe3,688233b3a649d32ed7d451a6,,,,,,,,,,,,,1,,,,,,,,,,,,,,,,,,,,,,,,,,,,,,,,,,,,,76,atar,,,,,561.2254,562.4104,0,0,0.6503,,0,67,67,75,1,REAL,FAKE,,,,,,,,,,,,,,,,,
,,,,,,,,,677743bf62e157794cf97ff4,Spanish ,13 or older,"no, only English or Spanish",no,2025-07-24_09h25.09.736,empathy_intonation_perc_control,2024.2.4,Win32,61.72839506,677743bf62e157794cf97ff4,68817205a84113384fffdfe3,688233b3a649d32ed7d451a6,,,,,,,,,,,,,0,,,,,,,,,,,,,,,,,,,,,,,,,,,,,,,,,,,,,19,brecedad,,,,,562.4137,563.6114,1,0,0.6694,,0,68,68,18,1,REAL,FAKE,,,,,,,,,,,,,,,,,
,,,,,,,,,677743bf62e157794cf97ff4,Spanish ,13 or older,"no, only English or Spanish",no,2025-07-24_09h25.09.736,empathy_intonation_perc_control,2024.2.4,Win32,61.72839506,677743bf62e157794cf97ff4,68817205a84113384fffdfe3,688233b3a649d32ed7d451a6,,,,,,,,,,,,,1,,,,,,,,,,,,,,,,,,,,,,,,,,,,,,,,,,,,,49,ganar,,,,,563.6145,564.6968,0,0,0.5439,,0,69,69,48,1,REAL,FAKE,,,,,,,,,,,,,,,,,
,,,,,,,,,677743bf62e157794cf97ff4,Spanish ,13 or older,"no, only English or Spanish",no,2025-07-24_09h25.09.736,empathy_intonation_perc_control,2024.2.4,Win32,61.72839506,677743bf62e157794cf97ff4,68817205a84113384fffdfe3,688233b3a649d32ed7d451a6,,,,,,,,,,,,,1,,,,,,,,,,,,,,,,,,,,,,,,,,,,,,,,,,,,,64,orgulloso,,,,,564.7013,565.694,1,1,0.4606,,0,70,70,63,1,REAL,FAKE,,,,,,,,,,,,,,,,,
,,,,,,,,,677743bf62e157794cf97ff4,Spanish ,13 or older,"no, only English or Spanish",no,2025-07-24_09h25.09.736,empathy_intonation_perc_control,2024.2.4,Win32,61.72839506,677743bf62e157794cf97ff4,68817205a84113384fffdfe3,688233b3a649d32ed7d451a6,,,,,,,,,,,,,1,,,,,,,,,,,,,,,,,,,,,,,,,,,,,,,,,,,,,73,hervidor,,,,,565.6964,566.7543,0,0,0.5246,,0,71,71,72,1,REAL,FAKE,,,,,,,,,,,,,,,,,
,,,,,,,,,677743bf62e157794cf97ff4,Spanish ,13 or older,"no, only English or Spanish",no,2025-07-24_09h25.09.736,empathy_intonation_perc_control,2024.2.4,Win32,61.72839506,677743bf62e157794cf97ff4,68817205a84113384fffdfe3,688233b3a649d32ed7d451a6,,,,,,,,,,,,,0,,,,,,,,,,,,,,,,,,,,,,,,,,,,,,,,,,,,,30,alardio,,,,,566.7574,567.8555,1,0,0.5729,,0,72,72,29,1,REAL,FAKE,,,,,,,,,,,,,,,,,
,,,,,,,,,677743bf62e157794cf97ff4,Spanish ,13 or older,"no, only English or Spanish",no,2025-07-24_09h25.09.736,empathy_intonation_perc_control,2024.2.4,Win32,61.72839506,677743bf62e157794cf97ff4,68817205a84113384fffdfe3,688233b3a649d32ed7d451a6,,,,,,,,,,,,,1,,,,,,,,,,,,,,,,,,,,,,,,,,,,,,,,,,,,,12,asesinato,,,,,567.8581,568.8356,1,1,0.4528,,0,73,73,11,1,REAL,FAKE,,,,,,,,,,,,,,,,,
,,,,,,,,,677743bf62e157794cf97ff4,Spanish ,13 or older,"no, only English or Spanish",no,2025-07-24_09h25.09.736,empathy_intonation_perc_control,2024.2.4,Win32,61.72839506,677743bf62e157794cf97ff4,68817205a84113384fffdfe3,688233b3a649d32ed7d451a6,,,,,,,,,,,,,0,,,,,,,,,,,,,,,,,,,,,,,,,,,,,,,,,,,,,74,cintro,,,,,568.8387,569.8875,0,1,0.5121,,0,74,74,73,1,REAL,FAKE,,,,,,,,,,,,,,,,,
,,,,,,,,,677743bf62e157794cf97ff4,Spanish ,13 or older,"no, only English or Spanish",no,2025-07-24_09h25.09.736,empathy_intonation_perc_control,2024.2.4,Win32,61.72839506,677743bf62e157794cf97ff4,68817205a84113384fffdfe3,688233b3a649d32ed7d451a6,,,,,,,,,,,,,1,,,,,,,,,,,,,,,,,,,,,,,,,,,,,,,,,,,,,67,cabello,,,,,569.8908,570.9091,1,1,0.4913,,0,75,75,66,1,REAL,FAKE,,,,,,,,,,,,,,,,,
,,,,,,,,,677743bf62e157794cf97ff4,Spanish ,13 or older,"no, only English or Spanish",no,2025-07-24_09h25.09.736,empathy_intonation_perc_control,2024.2.4,Win32,61.72839506,677743bf62e157794cf97ff4,68817205a84113384fffdfe3,688233b3a649d32ed7d451a6,,,,,,,,,,,,,0,,,,,,,,,,,,,,,,,,,,,,,,,,,,,,,,,,,,,72,pemición,,,,,570.9119,571.9576,0,1,0.5097,,0,76,76,71,1,REAL,FAKE,,,,,,,,,,,,,,,,,
,,,,,,,,,677743bf62e157794cf97ff4,Spanish ,13 or older,"no, only English or Spanish",no,2025-07-24_09h25.09.736,empathy_intonation_perc_control,2024.2.4,Win32,61.72839506,677743bf62e157794cf97ff4,68817205a84113384fffdfe3,688233b3a649d32ed7d451a6,,,,,,,,,,,,,1,,,,,,,,,,,,,,,,,,,,,,,,,,,,,,,,,,,,,22,lacayo,,,,,571.9616,572.9265,1,1,0.4436,,0,77,77,21,1,REAL,FAKE,,,,,,,,,,,,,,,,,
,,,,,,,,,677743bf62e157794cf97ff4,Spanish ,13 or older,"no, only English or Spanish",no,2025-07-24_09h25.09.736,empathy_intonation_perc_control,2024.2.4,Win32,61.72839506,677743bf62e157794cf97ff4,68817205a84113384fffdfe3,688233b3a649d32ed7d451a6,,,,,,,,,,,,,1,,,,,,,,,,,,,,,,,,,,,,,,,,,,,,,,,,,,,60,matar,,,,,572.9301,573.9076,1,1,0.4582,,0,78,78,59,1,REAL,FAKE,,,,,,,,,,,,,,,,,
,,,,,,,,,677743bf62e157794cf97ff4,Spanish ,13 or older,"no, only English or Spanish",no,2025-07-24_09h25.09.736,empathy_intonation_perc_control,2024.2.4,Win32,61.72839506,677743bf62e157794cf97ff4,68817205a84113384fffdfe3,688233b3a649d32ed7d451a6,,,,,,,,,,,,,1,,,,,,,,,,,,,,,,,,,,,,,,,,,,,,,,,,,,,65,bizcocho,,,,,573.911,574.8609,0,0,0.4175,,0,79,79,64,1,REAL,FAKE,,,,,,,,,,,,,,,,,
,,,,,,,,,677743bf62e157794cf97ff4,Spanish ,13 or older,"no, only English or Spanish",no,2025-07-24_09h25.09.736,empathy_intonation_perc_control,2024.2.4,Win32,61.72839506,677743bf62e157794cf97ff4,68817205a84113384fffdfe3,688233b3a649d32ed7d451a6,,,,,,,,,,,,,0,,,,,,,,,,,,,,,,,,,,,,,,,,,,,,,,,,,,,42,cadallo,,,,,574.8638,575.8536,0,1,0.4579,,0,80,80,41,1,REAL,FAKE,,,,,,,,,,,,,,,,,
,,,,,,,,,677743bf62e157794cf97ff4,Spanish ,13 or older,"no, only English or Spanish",no,2025-07-24_09h25.09.736,empathy_intonation_perc_control,2024.2.4,Win32,61.72839506,677743bf62e157794cf97ff4,68817205a84113384fffdfe3,688233b3a649d32ed7d451a6,,,,,,,,,,,,,1,,,,,,,,,,,,,,,,,,,,,,,,,,,,,,,,,,,,,26,secuestro,,,,,575.8571,576.8964,1,1,0.507,,0,81,81,25,1,REAL,FAKE,,,,,,,,,,,,,,,,,
,,,,,,,,,677743bf62e157794cf97ff4,Spanish ,13 or older,"no, only English or Spanish",no,2025-07-24_09h25.09.736,empathy_intonation_perc_control,2024.2.4,Win32,61.72839506,677743bf62e157794cf97ff4,68817205a84113384fffdfe3,688233b3a649d32ed7d451a6,,,,,,,,,,,,,1,,,,,,,,,,,,,,,,,,,,,,,,,,,,,,,,,,,,,31,pandilla,,,,,576.8995,577.8699,0,0,0.4435,,0,82,82,30,1,REAL,FAKE,,,,,,,,,,,,,,,,,
,,,,,,,,,677743bf62e157794cf97ff4,Spanish ,13 or older,"no, only English or Spanish",no,2025-07-24_09h25.09.736,empathy_intonation_perc_control,2024.2.4,Win32,61.72839506,677743bf62e157794cf97ff4,68817205a84113384fffdfe3,688233b3a649d32ed7d451a6,,,,,,,,,,,,,1,,,,,,,,,,,,,,,,,,,,,,,,,,,,,,,,,,,,,45,jilguero,,,,,577.8735,578.838,1,1,0.4345,,0,83,83,44,1,REAL,FAKE,,,,,,,,,,,,,,,,,
,,,,,,,,,677743bf62e157794cf97ff4,Spanish ,13 or older,"no, only English or Spanish",no,2025-07-24_09h25.09.736,empathy_intonation_perc_control,2024.2.4,Win32,61.72839506,677743bf62e157794cf97ff4,68817205a84113384fffdfe3,688233b3a649d32ed7d451a6,,,,,,,,,,,,,1,,,,,,,,,,,,,,,,,,,,,,,,,,,,,,,,,,,,,24,látigo,,,,,578.8415,579.824,0,0,0.4385,,0,84,84,23,1,REAL,FAKE,,,,,,,,,,,,,,,,,
,,,,,,,,,677743bf62e157794cf97ff4,Spanish ,13 or older,"no, only English or Spanish",no,2025-07-24_09h25.09.736,empathy_intonation_perc_control,2024.2.4,Win32,61.72839506,677743bf62e157794cf97ff4,68817205a84113384fffdfe3,688233b3a649d32ed7d451a6,,,,,,,,,,,,,1,,,,,,,,,,,,,,,,,,,,,,,,,,,,,,,,,,,,,88,acantilado,,,,,579.8282,580.8949,1,1,0.5377,,0,85,85,87,1,REAL,FAKE,,,,,,,,,,,,,,,,,
,,,,,,,,,677743bf62e157794cf97ff4,Spanish ,13 or older,"no, only English or Spanish",no,2025-07-24_09h25.09.736,empathy_intonation_perc_control,2024.2.4,Win32,61.72839506,677743bf62e157794cf97ff4,68817205a84113384fffdfe3,688233b3a649d32ed7d451a6,,,,,,,,,,,,,1,,,,,,,,,,,,,,,,,,,,,,,,,,,,,,,,,,,,,41,rebuscar,,,,,580.8995,581.9625,0,0,0.5386,,0,86,86,40,1,REAL,FAKE,,,,,,,,,,,,,,,,,
,,,,,,,,,677743bf62e157794cf97ff4,Spanish ,13 or older,"no, only English or Spanish",no,2025-07-24_09h25.09.736,empathy_intonation_perc_control,2024.2.4,Win32,61.72839506,677743bf62e157794cf97ff4,68817205a84113384fffdfe3,688233b3a649d32ed7d451a6,,,,,,,,,,,,,1,,,,,,,,,,,,,,,,,,,,,,,,,,,,,,,,,,,,,13,helar,,,,,581.9663,583.0688,1,1,0.5675,,0,87,87,12,1,REAL,FAKE,,,,,,,,,,,,,,,,,
,,,,,,,,,677743bf62e157794cf97ff4,Spanish ,13 or older,"no, only English or Spanish",no,2025-07-24_09h25.09.736,empathy_intonation_perc_control,2024.2.4,Win32,61.72839506,677743bf62e157794cf97ff4,68817205a84113384fffdfe3,688233b3a649d32ed7d451a6,,,,,,,,,,,,,1,,,,,,,,,,,,,,,,,,,,,,,,,,,,,,,,,,,,,54,fomentar,,,,,583.0725,584.2351,0,0,0.6372,,0,88,88,53,1,REAL,FAKE,,,,,,,,,,,,,,,,,
,,,,,,,,,677743bf62e157794cf97ff4,Spanish ,13 or older,"no, only English or Spanish",no,2025-07-24_09h25.09.736,empathy_intonation_perc_control,2024.2.4,Win32,61.72839506,677743bf62e157794cf97ff4,68817205a84113384fffdfe3,688233b3a649d32ed7d451a6,,,,,,,,,,,,,0,,,,,,,,,,,,,,,,,,,,,,,,,,,,,,,,,,,,,50,flamida,,,,,584.2377,585.4384,1,0,0.6719,,0,89,89,49,1,REAL,FAKE,,,,,,,,,,,,,,,,,
,,,,,,,,,677743bf62e157794cf97ff4,Spanish ,13 or older,"no, only English or Spanish",no,2025-07-24_09h25.09.736,empathy_intonation_perc_control,2024.2.4,Win32,61.72839506,677743bf62e157794cf97ff4,68817205a84113384fffdfe3,688233b3a649d32ed7d451a6,,,,,,,,,,,,,0,,,,,,,,,,,,,,,,,,,,,,,,,,,,,,,,,,,,,63,esposante,,,,,585.4416,586.4266,1,0,0.4492,,0,90,90,62,1,REAL,FAKE,,,,,,,,,,,,,,,,,
,,,,,,,,,677743bf62e157794cf97ff4,Spanish ,13 or older,"no, only English or Spanish",no,2025-07-24_09h25.09.736,empathy_intonation_perc_control,2024.2.4,Win32,61.72839506,677743bf62e157794cf97ff4,68817205a84113384fffdfe3,688233b3a649d32ed7d451a6,,,,,,,,,,,,,0,,,,,,,,,,,,,,,,,,,,,,,,,,,,,,,,,,,,,27,acutación,,,,,586.4305,587.5097,0,1,0.559,,0,91,91,26,1,REAL,FAKE,,,,,,,,,,,,,,,,,
,,,,,,,,,677743bf62e157794cf97ff4,Spanish ,13 or older,"no, only English or Spanish",no,2025-07-24_09h25.09.736,empathy_intonation_perc_control,2024.2.4,Win32,61.72839506,677743bf62e157794cf97ff4,68817205a84113384fffdfe3,688233b3a649d32ed7d451a6,,,,,,,,,,,,,,,,,,,,,,,,,,,,,,,,,,,,,,,,,,,,,,,,,,,,,,,,,,,,,,,,,,,,,587.5113,590.4056,,,,,,,,,,,,,,,
,,,,,,,,,677743bf62e157794cf97ff4,Spanish ,13 or older,"no, only English or Spanish",no,2025-07-24_09h25.09.736,empathy_intonation_perc_control,2024.2.4,Win32,61.72839506,677743bf62e157794cf97ff4,68817205a84113384fffdfe3,688233b3a649d32ed7d451a6,,,,,,,,,,,,,,,,,,,,,,,,,,,1,,,,,,,,,,,,,,,,,,,,,,,,,,,,,,,,,,,,,,,,,,,,590.443,594.423,strongly agree,0,0,0,0,1,I can easily tell if someone else wants to enter a conversation.,1,0,1,0,,
,,,,,,,,,677743bf62e157794cf97ff4,Spanish ,13 or older,"no, only English or Spanish",no,2025-07-24_09h25.09.736,empathy_intonation_perc_control,2024.2.4,Win32,61.72839506,677743bf62e157794cf97ff4,68817205a84113384fffdfe3,688233b3a649d32ed7d451a6,,,,,,,,,,,,,,,,,,,,,,,,,,,2,,,,,,,,,,,,,,,,,,,,,,,,,,,,,,,,,,,,,,,,,,,,594.4279,597.8652,strongly disagree,0,1,1,1,1,I prefer animals to humans.,0,1,0,0,,
,,,,,,,,,677743bf62e157794cf97ff4,Spanish ,13 or older,"no, only English or Spanish",no,2025-07-24_09h25.09.736,empathy_intonation_perc_control,2024.2.4,Win32,61.72839506,677743bf62e157794cf97ff4,68817205a84113384fffdfe3,688233b3a649d32ed7d451a6,,,,,,,,,,,,,,,,,,,,,,,,,,,3,,,,,,,,,,,,,,,,,,,,,,,,,,,,,,,,,,,,,,,,,,,,597.8707,600.9989,strongly disagree,0,2,2,2,1,I try to keep up with the current trends and fashions.,0,1,0,0,,
,,,,,,,,,677743bf62e157794cf97ff4,Spanish ,13 or older,"no, only English or Spanish",no,2025-07-24_09h25.09.736,empathy_intonation_perc_control,2024.2.4,Win32,61.72839506,677743bf62e157794cf97ff4,68817205a84113384fffdfe3,688233b3a649d32ed7d451a6,,,,,,,,,,,,,,,,,,,,,,,,,,,4,,,,,,,,,,,,,,,,,,,,,,,,,,,,,,,,,,,,,,,,,,,,601.0082,605.1243,slightly disagree,0,3,3,3,1,"I find it difficult to explain to others things that I understand easily,   when they don't understand it first time.",1,0,0,1,,
,,,,,,,,,677743bf62e157794cf97ff4,Spanish ,13 or older,"no, only English or Spanish",no,2025-07-24_09h25.09.736,empathy_intonation_perc_control,2024.2.4,Win32,61.72839506,677743bf62e157794cf97ff4,68817205a84113384fffdfe3,688233b3a649d32ed7d451a6,,,,,,,,,,,,,,,,,,,,,,,,,,,5,,,,,,,,,,,,,,,,,,,,,,,,,,,,,,,,,,,,,,,,,,,,605.1292,607.3458,slightly agree,0,4,4,4,1,I dream most nights.,0,1,0,0,,
,,,,,,,,,677743bf62e157794cf97ff4,Spanish ,13 or older,"no, only English or Spanish",no,2025-07-24_09h25.09.736,empathy_intonation_perc_control,2024.2.4,Win32,61.72839506,677743bf62e157794cf97ff4,68817205a84113384fffdfe3,688233b3a649d32ed7d451a6,,,,,,,,,,,,,,,,,,,,,,,,,,,6,,,,,,,,,,,,,,,,,,,,,,,,,,,,,,,,,,,,,,,,,,,,607.3521,608.6906,slightly agree,0,5,5,5,1,I really enjoy caring for other people.,1,0,1,0,,
,,,,,,,,,677743bf62e157794cf97ff4,Spanish ,13 or older,"no, only English or Spanish",no,2025-07-24_09h25.09.736,empathy_intonation_perc_control,2024.2.4,Win32,61.72839506,677743bf62e157794cf97ff4,68817205a84113384fffdfe3,688233b3a649d32ed7d451a6,,,,,,,,,,,,,,,,,,,,,,,,,,,7,,,,,,,,,,,,,,,,,,,,,,,,,,,,,,,,,,,,,,,,,,,,608.6973,609.9246,slightly agree,0,6,6,6,1,I try to solve my own problems rather than discussing them with others.,0,1,0,0,,
,,,,,,,,,677743bf62e157794cf97ff4,Spanish ,13 or older,"no, only English or Spanish",no,2025-07-24_09h25.09.736,empathy_intonation_perc_control,2024.2.4,Win32,61.72839506,677743bf62e157794cf97ff4,68817205a84113384fffdfe3,688233b3a649d32ed7d451a6,,,,,,,,,,,,,,,,,,,,,,,,,,,8,,,,,,,,,,,,,,,,,,,,,,,,,,,,,,,,,,,,,,,,,,,,609.93,612.3028,slightly disagree,0,7,7,7,1,I find it hard to know what to do in a social situation.,1,0,0,1,,
,,,,,,,,,677743bf62e157794cf97ff4,Spanish ,13 or older,"no, only English or Spanish",no,2025-07-24_09h25.09.736,empathy_intonation_perc_control,2024.2.4,Win32,61.72839506,677743bf62e157794cf97ff4,68817205a84113384fffdfe3,688233b3a649d32ed7d451a6,,,,,,,,,,,,,,,,,,,,,,,,,,,9,,,,,,,,,,,,,,,,,,,,,,,,,,,,,,,,,,,,,,,,,,,,612.3086,614.6717,slightly agree,0,8,8,8,1,I am at my best first thing in the morning.,0,1,0,0,,
,,,,,,,,,677743bf62e157794cf97ff4,Spanish ,13 or older,"no, only English or Spanish",no,2025-07-24_09h25.09.736,empathy_intonation_perc_control,2024.2.4,Win32,61.72839506,677743bf62e157794cf97ff4,68817205a84113384fffdfe3,688233b3a649d32ed7d451a6,,,,,,,,,,,,,,,,,,,,,,,,,,,10,,,,,,,,,,,,,,,,,,,,,,,,,,,,,,,,,,,,,,,,,,,,614.6796,615.7266,slightly agree,0,9,9,9,1,People often tell me that I went too far in driving my point home in a discussion.,1,0,0,1,,
,,,,,,,,,677743bf62e157794cf97ff4,Spanish ,13 or older,"no, only English or Spanish",no,2025-07-24_09h25.09.736,empathy_intonation_perc_control,2024.2.4,Win32,61.72839506,677743bf62e157794cf97ff4,68817205a84113384fffdfe3,688233b3a649d32ed7d451a6,,,,,,,,,,,,,,,,,,,,,,,,,,,11,,,,,,,,,,,,,,,,,,,,,,,,,,,,,,,,,,,,,,,,,,,,615.7318,618.0798,slightly disagree,0,10,10,10,1,It doesn't bother me too much if I am late meeting a friend.,1,0,0,1,,
,,,,,,,,,677743bf62e157794cf97ff4,Spanish ,13 or older,"no, only English or Spanish",no,2025-07-24_09h25.09.736,empathy_intonation_perc_control,2024.2.4,Win32,61.72839506,677743bf62e157794cf97ff4,68817205a84113384fffdfe3,688233b3a649d32ed7d451a6,,,,,,,,,,,,,,,,,,,,,,,,,,,12,,,,,,,,,,,,,,,,,,,,,,,,,,,,,,,,,,,,,,,,,,,,618.0862,621.3913,strongly disagree,0,11,11,11,1,"Friendships and relationships are just too difficult, so I tend not to 
  bother with them.",1,0,0,1,,
,,,,,,,,,677743bf62e157794cf97ff4,Spanish ,13 or older,"no, only English or Spanish",no,2025-07-24_09h25.09.736,empathy_intonation_perc_control,2024.2.4,Win32,61.72839506,677743bf62e157794cf97ff4,68817205a84113384fffdfe3,688233b3a649d32ed7d451a6,,,,,,,,,,,,,,,,,,,,,,,,,,,13,,,,,,,,,,,,,,,,,,,,,,,,,,,,,,,,,,,,,,,,,,,,621.3956,623.1435,slightly disagree,0,12,12,12,1,"I would never break a law, no matter how minor.",0,1,0,0,,
,,,,,,,,,677743bf62e157794cf97ff4,Spanish ,13 or older,"no, only English or Spanish",no,2025-07-24_09h25.09.736,empathy_intonation_perc_control,2024.2.4,Win32,61.72839506,677743bf62e157794cf97ff4,68817205a84113384fffdfe3,688233b3a649d32ed7d451a6,,,,,,,,,,,,,,,,,,,,,,,,,,,14,,,,,,,,,,,,,,,,,,,,,,,,,,,,,,,,,,,,,,,,,,,,623.1485,625.9143,slightly agree,0,13,13,13,1,I often find it difficult to judge if something is rude or polite.,1,0,0,1,,
,,,,,,,,,677743bf62e157794cf97ff4,Spanish ,13 or older,"no, only English or Spanish",no,2025-07-24_09h25.09.736,empathy_intonation_perc_control,2024.2.4,Win32,61.72839506,677743bf62e157794cf97ff4,68817205a84113384fffdfe3,688233b3a649d32ed7d451a6,,,,,,,,,,,,,,,,,,,,,,,,,,,15,,,,,,,,,,,,,,,,,,,,,,,,,,,,,,,,,,,,,,,,,,,,625.9215,628.4174,slightly agree,0,14,14,14,1,"In a conversation, I tend to focus on my own thoughts rather than on what 
  my listener might be thinking.",1,0,0,1,,
,,,,,,,,,677743bf62e157794cf97ff4,Spanish ,13 or older,"no, only English or Spanish",no,2025-07-24_09h25.09.736,empathy_intonation_perc_control,2024.2.4,Win32,61.72839506,677743bf62e157794cf97ff4,68817205a84113384fffdfe3,688233b3a649d32ed7d451a6,,,,,,,,,,,,,,,,,,,,,,,,,,,16,,,,,,,,,,,,,,,,,,,,,,,,,,,,,,,,,,,,,,,,,,,,628.4221,630.0459,slightly agree,0,15,15,15,1,I prefer practical jokes to verbal humor.,0,1,0,0,,
,,,,,,,,,677743bf62e157794cf97ff4,Spanish ,13 or older,"no, only English or Spanish",no,2025-07-24_09h25.09.736,empathy_intonation_perc_control,2024.2.4,Win32,61.72839506,677743bf62e157794cf97ff4,68817205a84113384fffdfe3,688233b3a649d32ed7d451a6,,,,,,,,,,,,,,,,,,,,,,,,,,,17,,,,,,,,,,,,,,,,,,,,,,,,,,,,,,,,,,,,,,,,,,,,630.0514,631.8497,strongly agree,0,16,16,16,1,I live life for today rather than the future.,0,1,0,0,,
,,,,,,,,,677743bf62e157794cf97ff4,Spanish ,13 or older,"no, only English or Spanish",no,2025-07-24_09h25.09.736,empathy_intonation_perc_control,2024.2.4,Win32,61.72839506,677743bf62e157794cf97ff4,68817205a84113384fffdfe3,688233b3a649d32ed7d451a6,,,,,,,,,,,,,,,,,,,,,,,,,,,18,,,,,,,,,,,,,,,,,,,,,,,,,,,,,,,,,,,,,,,,,,,,631.8557,633.4936,slightly agree,0,17,17,17,1,"When I was a child, I enjoyed cutting up worms to see what would happen.",1,0,0,1,,
,,,,,,,,,677743bf62e157794cf97ff4,Spanish ,13 or older,"no, only English or Spanish",no,2025-07-24_09h25.09.736,empathy_intonation_perc_control,2024.2.4,Win32,61.72839506,677743bf62e157794cf97ff4,68817205a84113384fffdfe3,688233b3a649d32ed7d451a6,,,,,,,,,,,,,,,,,,,,,,,,,,,19,,,,,,,,,,,,,,,,,,,,,,,,,,,,,,,,,,,,,,,,,,,,633.4996,635.0144,slightly disagree,0,18,18,18,1,I can pick up quickly if someone says one thing but means another.,1,0,1,0,,
,,,,,,,,,677743bf62e157794cf97ff4,Spanish ,13 or older,"no, only English or Spanish",no,2025-07-24_09h25.09.736,empathy_intonation_perc_control,2024.2.4,Win32,61.72839506,677743bf62e157794cf97ff4,68817205a84113384fffdfe3,688233b3a649d32ed7d451a6,,,,,,,,,,,,,,,,,,,,,,,,,,,20,,,,,,,,,,,,,,,,,,,,,,,,,,,,,,,,,,,,,,,,,,,,635.0208,636.6277,slightly agree,0,19,19,19,1,I tend to have very strong opinions about morality.,0,1,0,0,,
,,,,,,,,,677743bf62e157794cf97ff4,Spanish ,13 or older,"no, only English or Spanish",no,2025-07-24_09h25.09.736,empathy_intonation_perc_control,2024.2.4,Win32,61.72839506,677743bf62e157794cf97ff4,68817205a84113384fffdfe3,688233b3a649d32ed7d451a6,,,,,,,,,,,,,,,,,,,,,,,,,,,21,,,,,,,,,,,,,,,,,,,,,,,,,,,,,,,,,,,,,,,,,,,,636.6335,638.1843,slightly agree,0,20,20,20,1,It is hard for me to see why some things upset people so much.,1,0,0,1,,
,,,,,,,,,677743bf62e157794cf97ff4,Spanish ,13 or older,"no, only English or Spanish",no,2025-07-24_09h25.09.736,empathy_intonation_perc_control,2024.2.4,Win32,61.72839506,677743bf62e157794cf97ff4,68817205a84113384fffdfe3,688233b3a649d32ed7d451a6,,,,,,,,,,,,,,,,,,,,,,,,,,,22,,,,,,,,,,,,,,,,,,,,,,,,,,,,,,,,,,,,,,,,,,,,638.1876,640.5482,strongly agree,0,21,21,21,1,I find it easy to put myself in somebody else's shoes.,1,0,1,0,,
,,,,,,,,,677743bf62e157794cf97ff4,Spanish ,13 or older,"no, only English or Spanish",no,2025-07-24_09h25.09.736,empathy_intonation_perc_control,2024.2.4,Win32,61.72839506,677743bf62e157794cf97ff4,68817205a84113384fffdfe3,688233b3a649d32ed7d451a6,,,,,,,,,,,,,,,,,,,,,,,,,,,23,,,,,,,,,,,,,,,,,,,,,,,,,,,,,,,,,,,,,,,,,,,,640.5537,644.5927,strongly agree,0,22,22,22,1,I think that good manners are the most important thing a parent can teach their child.,0,1,0,0,,
,,,,,,,,,677743bf62e157794cf97ff4,Spanish ,13 or older,"no, only English or Spanish",no,2025-07-24_09h25.09.736,empathy_intonation_perc_control,2024.2.4,Win32,61.72839506,677743bf62e157794cf97ff4,68817205a84113384fffdfe3,688233b3a649d32ed7d451a6,,,,,,,,,,,,,,,,,,,,,,,,,,,24,,,,,,,,,,,,,,,,,,,,,,,,,,,,,,,,,,,,,,,,,,,,644.5996,647.1479,slightly agree,0,23,23,23,1,I like to do things on the spur of the moment.,0,1,0,0,,
