instructions_2afc.started,instructions_2afc.stopped,instructions_2afc_loop.thisRepN,instructions_2afc_loop.thisTrialN,instructions_2afc_loop.thisN,instructions_2afc_loop.thisIndex,instructions_2afc_loop.ran,instructions_text,continue_text,participant_id,"What variety of Spanish are you most familiar with? (e.g., Peruvian, Spanish, Mexican)",At what age did you begin learning Spanish?,Are you proficient in any languages other than English/Spanish?,"Are you familiar with Caribbean (e.g., Caribbean, Puerto Rican) or Galician Spanish?",date,expName,psychopyVersion,OS,frameRate,id,study_id,session,practice_2afc.started,practice_2afc.stopped,key_resp_2afc_practice.keys,key_resp_2afc_practice.corr,key_resp_2afc_practice.rt,key_resp_2afc_practice.duration,trials_2afc_practice_loop.thisRepN,trials_2afc_practice_loop.thisTrialN,trials_2afc_practice_loop.thisN,trials_2afc_practice_loop.thisIndex,trials_2afc_practice_loop.ran,path,correct_response,check_2afc.started,check_2afc.stopped,trial_2afc.started,trial_2afc.stopped,key_resp_2afc_trial.keys,key_resp_2afc_trial.corr,key_resp_2afc_trial.rt,key_resp_2afc_trial.duration,trials_2afc_loop.thisRepN,trials_2afc_loop.thisTrialN,trials_2afc_loop.thisN,trials_2afc_loop.thisIndex,trials_2afc_loop.ran,item_num,target,variety,instructions_lextale.started,instructions_lextale.stopped,instructions_lextale_loop.thisRepN,instructions_lextale_loop.thisTrialN,instructions_lextale_loop.thisN,instructions_lextale_loop.thisIndex,instructions_lextale_loop.ran,practice_lextale.started,practice_lextale.stopped,key_resp_lextale_practice.keys,key_resp_lextale_practice.corr,key_resp_lextale_practice.rt,key_resp_lextale_practice.duration,practice_feedback_lextale.started,practice_feedback_lextale.stopped,trials_lextale_practice_loop.thisRepN,trials_lextale_practice_loop.thisTrialN,trials_lextale_practice_loop.thisN,trials_lextale_practice_loop.thisIndex,trials_lextale_practice_loop.ran,stim,word,prac_button_real,prac_button_false,check_lextale.started,check_lextale.stopped,trial_lextale.started,trial_lextale.stopped,key_resp_lextale_trial.keys,key_resp_lextale_trial.corr,key_resp_lextale_trial.rt,key_resp_lextale_trial.duration,trials_lextale_loop.thisRepN,trials_lextale_loop.thisTrialN,trials_lextale_loop.thisN,trials_lextale_loop.thisIndex,trials_lextale_loop.ran,button_real,button_false,instructions_eq.started,instructions_eq.stopped,trial_eq.started,trial_eq.stopped,slider_eq_trial.response,trials_eq_loop.thisRepN,trials_eq_loop.thisTrialN,trials_eq_loop.thisN,trials_eq_loop.thisIndex,trials_eq_loop.ran,item,is_test_item,is_distractor,is_agree_score,is_disagree_score,end_exp.started,end_exp.stopped
0.0532,7.7588,0,0,0,0,1,"In the following task you are going to hear a series of utterances. 

  You will decide if the utterances sound like questions or not using your keyboard.", (press the spacebar to continue),6782b2f4bd70e1c0a9a36590,Spanish,13 or older,"no, only English or Spanish",no,2025-07-24_08h43.09.265,empathy_intonation_perc_control,2024.2.4,Win32,60.24096386,6782b2f4bd70e1c0a9a36590,68817205a84113384fffdfe3,68822a148b9864681c8663b9,,,,,,,,,,,,,,,,,,,,,,,,,,,,,,,,,,,,,,,,,,,,,,,,,,,,,,,,,,,,,,,,,,,,,,,,,,,,,,,,,,,,,
7.7639,14.4331,0,1,1,1,1,"If you believe the utterance is a question, type '1' (for 'yes') and if you do not 
  believe it is a question type '0' (for 'no').

  Let's practice a bit...", (press the spacebar to continue),6782b2f4bd70e1c0a9a36590,Spanish,13 or older,"no, only English or Spanish",no,2025-07-24_08h43.09.265,empathy_intonation_perc_control,2024.2.4,Win32,60.24096386,6782b2f4bd70e1c0a9a36590,68817205a84113384fffdfe3,68822a148b9864681c8663b9,,,,,,,,,,,,,,,,,,,,,,,,,,,,,,,,,,,,,,,,,,,,,,,,,,,,,,,,,,,,,,,,,,,,,,,,,,,,,,,,,,,,,
,,,,,,,,,6782b2f4bd70e1c0a9a36590,Spanish,13 or older,"no, only English or Spanish",no,2025-07-24_08h43.09.265,empathy_intonation_perc_control,2024.2.4,Win32,60.24096386,6782b2f4bd70e1c0a9a36590,68817205a84113384fffdfe3,68822a148b9864681c8663b9,14.4583,20.0493,1,0,5.0741,0.0006,0,0,0,5,1,./stim/wavs/andalusian_statement_filler_Alberto-nunca-se-afeita.wav,0,,,,,,,,,,,,,,,,,,,,,,,,,,,,,,,,,,,,,,,,,,,,,,,,,,,,,,,,,,,,,,,,,,,,,,,,
,,,,,,,,,6782b2f4bd70e1c0a9a36590,Spanish,13 or older,"no, only English or Spanish",no,2025-07-24_08h43.09.265,empathy_intonation_perc_control,2024.2.4,Win32,60.24096386,6782b2f4bd70e1c0a9a36590,68817205a84113384fffdfe3,68822a148b9864681c8663b9,20.0515,22.7004,0,0,2.1263,,0,1,1,1,1,./stim/wavs/argentine_question_filler_Mi-vecino-habla-mucho.wav,1,,,,,,,,,,,,,,,,,,,,,,,,,,,,,,,,,,,,,,,,,,,,,,,,,,,,,,,,,,,,,,,,,,,,,,,,
,,,,,,,,,6782b2f4bd70e1c0a9a36590,Spanish,13 or older,"no, only English or Spanish",no,2025-07-24_08h43.09.265,empathy_intonation_perc_control,2024.2.4,Win32,60.24096386,6782b2f4bd70e1c0a9a36590,68817205a84113384fffdfe3,68822a148b9864681c8663b9,22.7013,25.9727,0,1,2.7506,,0,2,2,7,1,./stim/wavs/puertorican_statement_filler_La-nina-pinta-con-su-amiga.wav,0,,,,,,,,,,,,,,,,,,,,,,,,,,,,,,,,,,,,,,,,,,,,,,,,,,,,,,,,,,,,,,,,,,,,,,,,
,,,,,,,,,6782b2f4bd70e1c0a9a36590,Spanish,13 or older,"no, only English or Spanish",no,2025-07-24_08h43.09.265,empathy_intonation_perc_control,2024.2.4,Win32,60.24096386,6782b2f4bd70e1c0a9a36590,68817205a84113384fffdfe3,68822a148b9864681c8663b9,25.9736,29.0969,1,1,2.5928,,0,3,3,2,1,./stim/wavs/chilean_question_filler_Mi-padre-cantaba-bien.wav,1,,,,,,,,,,,,,,,,,,,,,,,,,,,,,,,,,,,,,,,,,,,,,,,,,,,,,,,,,,,,,,,,,,,,,,,,
,,,,,,,,,6782b2f4bd70e1c0a9a36590,Spanish,13 or older,"no, only English or Spanish",no,2025-07-24_08h43.09.265,empathy_intonation_perc_control,2024.2.4,Win32,60.24096386,6782b2f4bd70e1c0a9a36590,68817205a84113384fffdfe3,68822a148b9864681c8663b9,29.0977,31.7725,0,1,2.1506,,0,4,4,4,1,./stim/wavs/cuban_statement_filler_Cocinabas-por-la-noche.wav,0,,,,,,,,,,,,,,,,,,,,,,,,,,,,,,,,,,,,,,,,,,,,,,,,,,,,,,,,,,,,,,,,,,,,,,,,
,,,,,,,,,6782b2f4bd70e1c0a9a36590,Spanish,13 or older,"no, only English or Spanish",no,2025-07-24_08h43.09.265,empathy_intonation_perc_control,2024.2.4,Win32,60.24096386,6782b2f4bd70e1c0a9a36590,68817205a84113384fffdfe3,68822a148b9864681c8663b9,31.7732,34.6565,0,1,2.3536,,0,5,5,6,1,./stim/wavs/peruvian_statement_filler_El-nino-habla-con-su-madre.wav,0,,,,,,,,,,,,,,,,,,,,,,,,,,,,,,,,,,,,,,,,,,,,,,,,,,,,,,,,,,,,,,,,,,,,,,,,
,,,,,,,,,6782b2f4bd70e1c0a9a36590,Spanish,13 or older,"no, only English or Spanish",no,2025-07-24_08h43.09.265,empathy_intonation_perc_control,2024.2.4,Win32,60.24096386,6782b2f4bd70e1c0a9a36590,68817205a84113384fffdfe3,68822a148b9864681c8663b9,34.6571,37.6724,1,1,2.4857,,0,6,6,3,1,./stim/wavs/mexican_question_filler_Felipe-no-tiene-contrasena.wav,1,,,,,,,,,,,,,,,,,,,,,,,,,,,,,,,,,,,,,,,,,,,,,,,,,,,,,,,,,,,,,,,,,,,,,,,,
,,,,,,,,,6782b2f4bd70e1c0a9a36590,Spanish,13 or older,"no, only English or Spanish",no,2025-07-24_08h43.09.265,empathy_intonation_perc_control,2024.2.4,Win32,60.24096386,6782b2f4bd70e1c0a9a36590,68817205a84113384fffdfe3,68822a148b9864681c8663b9,37.6734,40.5237,1,1,2.3199,,0,7,7,0,1,./stim/wavs/castilian_question_filler_Mi-esposo-conoce-al-chico.wav,1,,,,,,,,,,,,,,,,,,,,,,,,,,,,,,,,,,,,,,,,,,,,,,,,,,,,,,,,,,,,,,,,,,,,,,,,
,,,,,,,,,6782b2f4bd70e1c0a9a36590,Spanish,13 or older,"no, only English or Spanish",no,2025-07-24_08h43.09.265,empathy_intonation_perc_control,2024.2.4,Win32,60.24096386,6782b2f4bd70e1c0a9a36590,68817205a84113384fffdfe3,68822a148b9864681c8663b9,,,,,,,,,,,,,,40.5245,43.1041,,,,,,,,,,,,,,,,,,,,,,,,,,,,,,,,,,,,,,,,,,,,,,,,,,,,,,,,,,,,,,,,,,,,,,
,,,,,,,,,6782b2f4bd70e1c0a9a36590,Spanish,13 or older,"no, only English or Spanish",no,2025-07-24_08h43.09.265,empathy_intonation_perc_control,2024.2.4,Win32,60.24096386,6782b2f4bd70e1c0a9a36590,68817205a84113384fffdfe3,68822a148b9864681c8663b9,,,,,,,,,,,,./stim/wavs/castilian_mismatch_interrogative-total-yn_Mi-novio-viene-del-lago.wav,1,,,43.1474,46.2703,1,1,2.6002,,0,0,0,27,1,28,0,castilian,,,,,,,,,,,,,,,,,,,,,,,,,,,,,,,,,,,,,,,,,,,,,,,,,,,,,,,,
,,,,,,,,,6782b2f4bd70e1c0a9a36590,Spanish,13 or older,"no, only English or Spanish",no,2025-07-24_08h43.09.265,empathy_intonation_perc_control,2024.2.4,Win32,60.24096386,6782b2f4bd70e1c0a9a36590,68817205a84113384fffdfe3,68822a148b9864681c8663b9,,,,,,,,,,,,./stim/wavs/castilian_mismatch_declarative-broad-focus_El-nino-oye-el-rio.wav,0,,,46.2714,48.6996,0,1,1.8976,,0,1,1,68,1,69,0,castilian,,,,,,,,,,,,,,,,,,,,,,,,,,,,,,,,,,,,,,,,,,,,,,,,,,,,,,,,
,,,,,,,,,6782b2f4bd70e1c0a9a36590,Spanish,13 or older,"no, only English or Spanish",no,2025-07-24_08h43.09.265,empathy_intonation_perc_control,2024.2.4,Win32,60.24096386,6782b2f4bd70e1c0a9a36590,68817205a84113384fffdfe3,68822a148b9864681c8663b9,,,,,,,,,,,,./stim/wavs/castilian_mismatch_interrogative-total-yn_La-nina-lava-el-plato.wav,1,,,48.7005,51.3163,1,1,2.1032,,0,2,2,25,1,26,0,castilian,,,,,,,,,,,,,,,,,,,,,,,,,,,,,,,,,,,,,,,,,,,,,,,,,,,,,,,,
,,,,,,,,,6782b2f4bd70e1c0a9a36590,Spanish,13 or older,"no, only English or Spanish",no,2025-07-24_08h43.09.265,empathy_intonation_perc_control,2024.2.4,Win32,60.24096386,6782b2f4bd70e1c0a9a36590,68817205a84113384fffdfe3,68822a148b9864681c8663b9,,,,,,,,,,,,./stim/wavs/mexican_mismatch_declarative-broad-focus_El-bebe-comia-muy-bien.wav,0,,,51.3171,53.5537,0,1,1.728,,0,3,3,78,1,79,0,mexican,,,,,,,,,,,,,,,,,,,,,,,,,,,,,,,,,,,,,,,,,,,,,,,,,,,,,,,,
,,,,,,,,,6782b2f4bd70e1c0a9a36590,Spanish,13 or older,"no, only English or Spanish",no,2025-07-24_08h43.09.265,empathy_intonation_perc_control,2024.2.4,Win32,60.24096386,6782b2f4bd70e1c0a9a36590,68817205a84113384fffdfe3,68822a148b9864681c8663b9,,,,,,,,,,,,./stim/wavs/mexican_match_interrogative-total-yn_Daniel-iba-a-Bolivia.wav,1,,,53.5545,56.3205,0,0,2.2506,,0,4,4,13,1,14,0,mexican,,,,,,,,,,,,,,,,,,,,,,,,,,,,,,,,,,,,,,,,,,,,,,,,,,,,,,,,
,,,,,,,,,6782b2f4bd70e1c0a9a36590,Spanish,13 or older,"no, only English or Spanish",no,2025-07-24_08h43.09.265,empathy_intonation_perc_control,2024.2.4,Win32,60.24096386,6782b2f4bd70e1c0a9a36590,68817205a84113384fffdfe3,68822a148b9864681c8663b9,,,,,,,,,,,,./stim/wavs/puertorican_match_declarative-broad-focus_Manuela-vende-el-carro.wav,0,,,56.3212,59.0851,0,1,2.2466,,0,5,5,66,1,67,0,puertorican,,,,,,,,,,,,,,,,,,,,,,,,,,,,,,,,,,,,,,,,,,,,,,,,,,,,,,,,
,,,,,,,,,6782b2f4bd70e1c0a9a36590,Spanish,13 or older,"no, only English or Spanish",no,2025-07-24_08h43.09.265,empathy_intonation_perc_control,2024.2.4,Win32,60.24096386,6782b2f4bd70e1c0a9a36590,68817205a84113384fffdfe3,68822a148b9864681c8663b9,,,,,,,,,,,,./stim/wavs/puertorican_match_interrogative-total-yn_Daniel-iba-a-Bolivia.wav,1,,,59.0859,61.5853,0,0,1.9821,,0,6,6,19,1,20,1,puertorican,,,,,,,,,,,,,,,,,,,,,,,,,,,,,,,,,,,,,,,,,,,,,,,,,,,,,,,,
,,,,,,,,,6782b2f4bd70e1c0a9a36590,Spanish,13 or older,"no, only English or Spanish",no,2025-07-24_08h43.09.265,empathy_intonation_perc_control,2024.2.4,Win32,60.24096386,6782b2f4bd70e1c0a9a36590,68817205a84113384fffdfe3,68822a148b9864681c8663b9,,,,,,,,,,,,./stim/wavs/puertorican_mismatch_declarative-broad-focus_El-bebe-comia-muy-bien.wav,0,,,61.586,63.9307,0,1,1.8311,,0,7,7,83,1,84,0,puertorican,,,,,,,,,,,,,,,,,,,,,,,,,,,,,,,,,,,,,,,,,,,,,,,,,,,,,,,,
,,,,,,,,,6782b2f4bd70e1c0a9a36590,Spanish,13 or older,"no, only English or Spanish",no,2025-07-24_08h43.09.265,empathy_intonation_perc_control,2024.2.4,Win32,60.24096386,6782b2f4bd70e1c0a9a36590,68817205a84113384fffdfe3,68822a148b9864681c8663b9,,,,,,,,,,,,./stim/wavs/cuban_mismatch_interrogative-total-yn_Mi-tia-odia-la-lluvia.wav,1,,,63.9314,66.2638,0,0,1.8041,,0,8,8,33,1,34,1,cuban,,,,,,,,,,,,,,,,,,,,,,,,,,,,,,,,,,,,,,,,,,,,,,,,,,,,,,,,
,,,,,,,,,6782b2f4bd70e1c0a9a36590,Spanish,13 or older,"no, only English or Spanish",no,2025-07-24_08h43.09.265,empathy_intonation_perc_control,2024.2.4,Win32,60.24096386,6782b2f4bd70e1c0a9a36590,68817205a84113384fffdfe3,68822a148b9864681c8663b9,,,,,,,,,,,,./stim/wavs/puertorican_match_declarative-broad-focus_Ana-lleva-el-abrigo.wav,0,,,66.2647,68.6806,0,1,1.8909,,0,9,9,62,1,63,0,puertorican,,,,,,,,,,,,,,,,,,,,,,,,,,,,,,,,,,,,,,,,,,,,,,,,,,,,,,,,
,,,,,,,,,6782b2f4bd70e1c0a9a36590,Spanish,13 or older,"no, only English or Spanish",no,2025-07-24_08h43.09.265,empathy_intonation_perc_control,2024.2.4,Win32,60.24096386,6782b2f4bd70e1c0a9a36590,68817205a84113384fffdfe3,68822a148b9864681c8663b9,,,,,,,,,,,,./stim/wavs/mexican_match_interrogative-total-yn_Ana-lleva-el-abrigo.wav,1,,,68.6814,71.1143,1,1,1.9012,,0,10,10,12,1,13,0,mexican,,,,,,,,,,,,,,,,,,,,,,,,,,,,,,,,,,,,,,,,,,,,,,,,,,,,,,,,
,,,,,,,,,6782b2f4bd70e1c0a9a36590,Spanish,13 or older,"no, only English or Spanish",no,2025-07-24_08h43.09.265,empathy_intonation_perc_control,2024.2.4,Win32,60.24096386,6782b2f4bd70e1c0a9a36590,68817205a84113384fffdfe3,68822a148b9864681c8663b9,,,,,,,,,,,,./stim/wavs/cuban_match_interrogative-total-yn_Maria-bebe-el-vino.wav,1,,,71.1151,73.7473,0,0,2.1037,,0,11,11,9,1,10,1,cuban,,,,,,,,,,,,,,,,,,,,,,,,,,,,,,,,,,,,,,,,,,,,,,,,,,,,,,,,
,,,,,,,,,6782b2f4bd70e1c0a9a36590,Spanish,13 or older,"no, only English or Spanish",no,2025-07-24_08h43.09.265,empathy_intonation_perc_control,2024.2.4,Win32,60.24096386,6782b2f4bd70e1c0a9a36590,68817205a84113384fffdfe3,68822a148b9864681c8663b9,,,,,,,,,,,,./stim/wavs/castilian_mismatch_interrogative-total-yn_Mi-tia-odia-la-lluvia.wav,1,,,73.7481,76.1305,1,1,1.8503,,0,12,12,28,1,29,0,castilian,,,,,,,,,,,,,,,,,,,,,,,,,,,,,,,,,,,,,,,,,,,,,,,,,,,,,,,,
,,,,,,,,,6782b2f4bd70e1c0a9a36590,Spanish,13 or older,"no, only English or Spanish",no,2025-07-24_08h43.09.265,empathy_intonation_perc_control,2024.2.4,Win32,60.24096386,6782b2f4bd70e1c0a9a36590,68817205a84113384fffdfe3,68822a148b9864681c8663b9,,,,,,,,,,,,./stim/wavs/mexican_mismatch_declarative-broad-focus_Mi-tia-odia-la-lluvia.wav,0,,,76.1314,78.4309,0,1,1.7769,,0,13,13,82,1,83,0,mexican,,,,,,,,,,,,,,,,,,,,,,,,,,,,,,,,,,,,,,,,,,,,,,,,,,,,,,,,
,,,,,,,,,6782b2f4bd70e1c0a9a36590,Spanish,13 or older,"no, only English or Spanish",no,2025-07-24_08h43.09.265,empathy_intonation_perc_control,2024.2.4,Win32,60.24096386,6782b2f4bd70e1c0a9a36590,68817205a84113384fffdfe3,68822a148b9864681c8663b9,,,,,,,,,,,,./stim/wavs/castilian_match_declarative-broad-focus_Manuela-vende-el-carro.wav,0,,,78.4319,81.0805,0,1,2.1212,,0,14,14,46,1,47,0,castilian,,,,,,,,,,,,,,,,,,,,,,,,,,,,,,,,,,,,,,,,,,,,,,,,,,,,,,,,
,,,,,,,,,6782b2f4bd70e1c0a9a36590,Spanish,13 or older,"no, only English or Spanish",no,2025-07-24_08h43.09.265,empathy_intonation_perc_control,2024.2.4,Win32,60.24096386,6782b2f4bd70e1c0a9a36590,68817205a84113384fffdfe3,68822a148b9864681c8663b9,,,,,,,,,,,,./stim/wavs/castilian_mismatch_declarative-broad-focus_Mi-tia-odia-la-lluvia.wav,0,,,81.0812,83.9474,0,1,2.343,,0,15,15,72,1,73,0,castilian,,,,,,,,,,,,,,,,,,,,,,,,,,,,,,,,,,,,,,,,,,,,,,,,,,,,,,,,
,,,,,,,,,6782b2f4bd70e1c0a9a36590,Spanish,13 or older,"no, only English or Spanish",no,2025-07-24_08h43.09.265,empathy_intonation_perc_control,2024.2.4,Win32,60.24096386,6782b2f4bd70e1c0a9a36590,68817205a84113384fffdfe3,68822a148b9864681c8663b9,,,,,,,,,,,,./stim/wavs/mexican_mismatch_interrogative-total-yn_La-maestra-vive-en-Paris.wav,1,,,83.9485,86.6307,1,1,2.1536,,0,16,16,36,1,37,0,mexican,,,,,,,,,,,,,,,,,,,,,,,,,,,,,,,,,,,,,,,,,,,,,,,,,,,,,,,,
,,,,,,,,,6782b2f4bd70e1c0a9a36590,Spanish,13 or older,"no, only English or Spanish",no,2025-07-24_08h43.09.265,empathy_intonation_perc_control,2024.2.4,Win32,60.24096386,6782b2f4bd70e1c0a9a36590,68817205a84113384fffdfe3,68822a148b9864681c8663b9,,,,,,,,,,,,./stim/wavs/mexican_mismatch_interrogative-total-yn_El-nino-oye-el-rio.wav,1,,,86.6315,88.9471,0,0,1.7848,,0,17,17,35,1,36,0,mexican,,,,,,,,,,,,,,,,,,,,,,,,,,,,,,,,,,,,,,,,,,,,,,,,,,,,,,,,
,,,,,,,,,6782b2f4bd70e1c0a9a36590,Spanish,13 or older,"no, only English or Spanish",no,2025-07-24_08h43.09.265,empathy_intonation_perc_control,2024.2.4,Win32,60.24096386,6782b2f4bd70e1c0a9a36590,68817205a84113384fffdfe3,68822a148b9864681c8663b9,,,,,,,,,,,,./stim/wavs/castilian_match_declarative-broad-focus_Maria-bebe-el-vino.wav,0,,,88.948,91.164,0,1,1.6836,,0,18,18,47,1,48,0,castilian,,,,,,,,,,,,,,,,,,,,,,,,,,,,,,,,,,,,,,,,,,,,,,,,,,,,,,,,
,,,,,,,,,6782b2f4bd70e1c0a9a36590,Spanish,13 or older,"no, only English or Spanish",no,2025-07-24_08h43.09.265,empathy_intonation_perc_control,2024.2.4,Win32,60.24096386,6782b2f4bd70e1c0a9a36590,68817205a84113384fffdfe3,68822a148b9864681c8663b9,,,,,,,,,,,,./stim/wavs/cuban_match_interrogative-total-yn_Ana-lleva-el-abrigo.wav,1,,,91.1648,93.0639,0,0,1.3741,,0,19,19,6,1,7,1,cuban,,,,,,,,,,,,,,,,,,,,,,,,,,,,,,,,,,,,,,,,,,,,,,,,,,,,,,,,
,,,,,,,,,6782b2f4bd70e1c0a9a36590,Spanish,13 or older,"no, only English or Spanish",no,2025-07-24_08h43.09.265,empathy_intonation_perc_control,2024.2.4,Win32,60.24096386,6782b2f4bd70e1c0a9a36590,68817205a84113384fffdfe3,68822a148b9864681c8663b9,,,,,,,,,,,,./stim/wavs/mexican_match_declarative-broad-focus_Marta-abre-el-regalo.wav,0,,,93.0647,95.0639,0,1,1.4672,,0,20,20,61,1,62,0,mexican,,,,,,,,,,,,,,,,,,,,,,,,,,,,,,,,,,,,,,,,,,,,,,,,,,,,,,,,
,,,,,,,,,6782b2f4bd70e1c0a9a36590,Spanish,13 or older,"no, only English or Spanish",no,2025-07-24_08h43.09.265,empathy_intonation_perc_control,2024.2.4,Win32,60.24096386,6782b2f4bd70e1c0a9a36590,68817205a84113384fffdfe3,68822a148b9864681c8663b9,,,,,,,,,,,,./stim/wavs/cuban_match_declarative-broad-focus_Daniel-iba-a-Bolivia.wav,0,,,95.0647,97.2806,0,1,1.6918,,0,21,21,51,1,52,0,cuban,,,,,,,,,,,,,,,,,,,,,,,,,,,,,,,,,,,,,,,,,,,,,,,,,,,,,,,,
,,,,,,,,,6782b2f4bd70e1c0a9a36590,Spanish,13 or older,"no, only English or Spanish",no,2025-07-24_08h43.09.265,empathy_intonation_perc_control,2024.2.4,Win32,60.24096386,6782b2f4bd70e1c0a9a36590,68817205a84113384fffdfe3,68822a148b9864681c8663b9,,,,,,,,,,,,./stim/wavs/cuban_match_interrogative-total-yn_Mariano-habla-del-tiempo.wav,1,,,97.2815,99.5141,0,0,1.702,,0,22,22,10,1,11,1,cuban,,,,,,,,,,,,,,,,,,,,,,,,,,,,,,,,,,,,,,,,,,,,,,,,,,,,,,,,
,,,,,,,,,6782b2f4bd70e1c0a9a36590,Spanish,13 or older,"no, only English or Spanish",no,2025-07-24_08h43.09.265,empathy_intonation_perc_control,2024.2.4,Win32,60.24096386,6782b2f4bd70e1c0a9a36590,68817205a84113384fffdfe3,68822a148b9864681c8663b9,,,,,,,,,,,,./stim/wavs/castilian_mismatch_declarative-broad-focus_La-maestra-vive-en-Paris.wav,0,,,99.5149,102.6372,0,1,2.5991,,0,23,23,69,1,70,0,castilian,,,,,,,,,,,,,,,,,,,,,,,,,,,,,,,,,,,,,,,,,,,,,,,,,,,,,,,,
,,,,,,,,,6782b2f4bd70e1c0a9a36590,Spanish,13 or older,"no, only English or Spanish",no,2025-07-24_08h43.09.265,empathy_intonation_perc_control,2024.2.4,Win32,60.24096386,6782b2f4bd70e1c0a9a36590,68817205a84113384fffdfe3,68822a148b9864681c8663b9,,,,,,,,,,,,./stim/wavs/cuban_match_interrogative-total-yn_Marta-abre-el-regalo.wav,1,,,102.6379,104.7333,0,0,1.5633,,0,24,24,11,1,12,1,cuban,,,,,,,,,,,,,,,,,,,,,,,,,,,,,,,,,,,,,,,,,,,,,,,,,,,,,,,,
,,,,,,,,,6782b2f4bd70e1c0a9a36590,Spanish,13 or older,"no, only English or Spanish",no,2025-07-24_08h43.09.265,empathy_intonation_perc_control,2024.2.4,Win32,60.24096386,6782b2f4bd70e1c0a9a36590,68817205a84113384fffdfe3,68822a148b9864681c8663b9,,,,,,,,,,,,./stim/wavs/castilian_match_declarative-broad-focus_Emilio-ama-la-marcha.wav,0,,,104.7345,107.183,0,1,1.9054,,0,25,25,45,1,46,0,castilian,,,,,,,,,,,,,,,,,,,,,,,,,,,,,,,,,,,,,,,,,,,,,,,,,,,,,,,,
,,,,,,,,,6782b2f4bd70e1c0a9a36590,Spanish,13 or older,"no, only English or Spanish",no,2025-07-24_08h43.09.265,empathy_intonation_perc_control,2024.2.4,Win32,60.24096386,6782b2f4bd70e1c0a9a36590,68817205a84113384fffdfe3,68822a148b9864681c8663b9,,,,,,,,,,,,./stim/wavs/puertorican_mismatch_interrogative-total-yn_El-hombre-mira-la-luna.wav,1,,,107.1839,109.4703,1,1,1.751,,0,26,26,39,1,40,1,puertorican,,,,,,,,,,,,,,,,,,,,,,,,,,,,,,,,,,,,,,,,,,,,,,,,,,,,,,,,
,,,,,,,,,6782b2f4bd70e1c0a9a36590,Spanish,13 or older,"no, only English or Spanish",no,2025-07-24_08h43.09.265,empathy_intonation_perc_control,2024.2.4,Win32,60.24096386,6782b2f4bd70e1c0a9a36590,68817205a84113384fffdfe3,68822a148b9864681c8663b9,,,,,,,,,,,,./stim/wavs/castilian_match_interrogative-total-yn_David-leia-el-libro.wav,1,,,109.4711,112.0701,1,1,2.0799,,0,27,27,0,1,1,0,castilian,,,,,,,,,,,,,,,,,,,,,,,,,,,,,,,,,,,,,,,,,,,,,,,,,,,,,,,,
,,,,,,,,,6782b2f4bd70e1c0a9a36590,Spanish,13 or older,"no, only English or Spanish",no,2025-07-24_08h43.09.265,empathy_intonation_perc_control,2024.2.4,Win32,60.24096386,6782b2f4bd70e1c0a9a36590,68817205a84113384fffdfe3,68822a148b9864681c8663b9,,,,,,,,,,,,./stim/wavs/cuban_match_declarative-broad-focus_Marta-abre-el-regalo.wav,0,,,112.0707,114.387,0,1,1.7962,,0,28,28,55,1,56,0,cuban,,,,,,,,,,,,,,,,,,,,,,,,,,,,,,,,,,,,,,,,,,,,,,,,,,,,,,,,
,,,,,,,,,6782b2f4bd70e1c0a9a36590,Spanish,13 or older,"no, only English or Spanish",no,2025-07-24_08h43.09.265,empathy_intonation_perc_control,2024.2.4,Win32,60.24096386,6782b2f4bd70e1c0a9a36590,68817205a84113384fffdfe3,68822a148b9864681c8663b9,,,,,,,,,,,,./stim/wavs/mexican_mismatch_declarative-broad-focus_La-maestra-vive-en-Paris.wav,0,,,114.3878,117.0307,0,1,2.1074,,0,29,29,80,1,81,0,mexican,,,,,,,,,,,,,,,,,,,,,,,,,,,,,,,,,,,,,,,,,,,,,,,,,,,,,,,,
,,,,,,,,,6782b2f4bd70e1c0a9a36590,Spanish,13 or older,"no, only English or Spanish",no,2025-07-24_08h43.09.265,empathy_intonation_perc_control,2024.2.4,Win32,60.24096386,6782b2f4bd70e1c0a9a36590,68817205a84113384fffdfe3,68822a148b9864681c8663b9,,,,,,,,,,,,./stim/wavs/puertorican_match_interrogative-total-yn_David-leia-el-libro.wav,1,,,117.0316,119.3645,0,0,1.8033,,0,30,30,20,1,21,1,puertorican,,,,,,,,,,,,,,,,,,,,,,,,,,,,,,,,,,,,,,,,,,,,,,,,,,,,,,,,
,,,,,,,,,6782b2f4bd70e1c0a9a36590,Spanish,13 or older,"no, only English or Spanish",no,2025-07-24_08h43.09.265,empathy_intonation_perc_control,2024.2.4,Win32,60.24096386,6782b2f4bd70e1c0a9a36590,68817205a84113384fffdfe3,68822a148b9864681c8663b9,,,,,,,,,,,,./stim/wavs/castilian_match_interrogative-total-yn_Manuela-vende-el-carro.wav,1,,,119.3652,121.9641,1,1,2.074,,0,31,31,2,1,3,0,castilian,,,,,,,,,,,,,,,,,,,,,,,,,,,,,,,,,,,,,,,,,,,,,,,,,,,,,,,,
,,,,,,,,,6782b2f4bd70e1c0a9a36590,Spanish,13 or older,"no, only English or Spanish",no,2025-07-24_08h43.09.265,empathy_intonation_perc_control,2024.2.4,Win32,60.24096386,6782b2f4bd70e1c0a9a36590,68817205a84113384fffdfe3,68822a148b9864681c8663b9,,,,,,,,,,,,./stim/wavs/puertorican_match_declarative-broad-focus_Maria-bebe-el-vino.wav,0,,,121.9648,124.1474,0,1,1.6515,,0,32,32,67,1,68,0,puertorican,,,,,,,,,,,,,,,,,,,,,,,,,,,,,,,,,,,,,,,,,,,,,,,,,,,,,,,,
,,,,,,,,,6782b2f4bd70e1c0a9a36590,Spanish,13 or older,"no, only English or Spanish",no,2025-07-24_08h43.09.265,empathy_intonation_perc_control,2024.2.4,Win32,60.24096386,6782b2f4bd70e1c0a9a36590,68817205a84113384fffdfe3,68822a148b9864681c8663b9,,,,,,,,,,,,./stim/wavs/castilian_mismatch_declarative-broad-focus_La-nina-lava-el-plato.wav,0,,,124.1483,126.9807,0,1,2.302,,0,33,33,70,1,71,0,castilian,,,,,,,,,,,,,,,,,,,,,,,,,,,,,,,,,,,,,,,,,,,,,,,,,,,,,,,,
,,,,,,,,,6782b2f4bd70e1c0a9a36590,Spanish,13 or older,"no, only English or Spanish",no,2025-07-24_08h43.09.265,empathy_intonation_perc_control,2024.2.4,Win32,60.24096386,6782b2f4bd70e1c0a9a36590,68817205a84113384fffdfe3,68822a148b9864681c8663b9,,,,,,,,,,,,./stim/wavs/cuban_match_declarative-broad-focus_Manuela-vende-el-carro.wav,0,,,126.9814,129.5811,0,1,2.0725,,0,34,34,52,1,53,0,cuban,,,,,,,,,,,,,,,,,,,,,,,,,,,,,,,,,,,,,,,,,,,,,,,,,,,,,,,,
,,,,,,,,,6782b2f4bd70e1c0a9a36590,Spanish,13 or older,"no, only English or Spanish",no,2025-07-24_08h43.09.265,empathy_intonation_perc_control,2024.2.4,Win32,60.24096386,6782b2f4bd70e1c0a9a36590,68817205a84113384fffdfe3,68822a148b9864681c8663b9,,,,,,,,,,,,./stim/wavs/castilian_match_declarative-broad-focus_Marta-abre-el-regalo.wav,0,,,129.5824,131.9972,0,1,1.9022,,0,35,35,49,1,50,0,castilian,,,,,,,,,,,,,,,,,,,,,,,,,,,,,,,,,,,,,,,,,,,,,,,,,,,,,,,,
,,,,,,,,,6782b2f4bd70e1c0a9a36590,Spanish,13 or older,"no, only English or Spanish",no,2025-07-24_08h43.09.265,empathy_intonation_perc_control,2024.2.4,Win32,60.24096386,6782b2f4bd70e1c0a9a36590,68817205a84113384fffdfe3,68822a148b9864681c8663b9,,,,,,,,,,,,./stim/wavs/cuban_mismatch_declarative-broad-focus_Mi-tia-odia-la-lluvia.wav,0,,,131.9981,134.4477,0,1,1.9184,,0,36,36,77,1,78,0,cuban,,,,,,,,,,,,,,,,,,,,,,,,,,,,,,,,,,,,,,,,,,,,,,,,,,,,,,,,
,,,,,,,,,6782b2f4bd70e1c0a9a36590,Spanish,13 or older,"no, only English or Spanish",no,2025-07-24_08h43.09.265,empathy_intonation_perc_control,2024.2.4,Win32,60.24096386,6782b2f4bd70e1c0a9a36590,68817205a84113384fffdfe3,68822a148b9864681c8663b9,,,,,,,,,,,,./stim/wavs/mexican_match_interrogative-total-yn_Mariano-habla-del-tiempo.wav,1,,,134.4491,137.0471,1,1,2.068,,0,37,37,16,1,17,0,mexican,,,,,,,,,,,,,,,,,,,,,,,,,,,,,,,,,,,,,,,,,,,,,,,,,,,,,,,,
,,,,,,,,,6782b2f4bd70e1c0a9a36590,Spanish,13 or older,"no, only English or Spanish",no,2025-07-24_08h43.09.265,empathy_intonation_perc_control,2024.2.4,Win32,60.24096386,6782b2f4bd70e1c0a9a36590,68817205a84113384fffdfe3,68822a148b9864681c8663b9,,,,,,,,,,,,./stim/wavs/puertorican_mismatch_declarative-broad-focus_El-nino-oye-el-rio.wav,0,,,137.0479,139.5644,0,1,1.9885,,0,38,38,85,1,86,0,puertorican,,,,,,,,,,,,,,,,,,,,,,,,,,,,,,,,,,,,,,,,,,,,,,,,,,,,,,,,
,,,,,,,,,6782b2f4bd70e1c0a9a36590,Spanish,13 or older,"no, only English or Spanish",no,2025-07-24_08h43.09.265,empathy_intonation_perc_control,2024.2.4,Win32,60.24096386,6782b2f4bd70e1c0a9a36590,68817205a84113384fffdfe3,68822a148b9864681c8663b9,,,,,,,,,,,,./stim/wavs/castilian_match_interrogative-total-yn_Marta-abre-el-regalo.wav,1,,,139.5652,142.164,1,1,2.0709,,0,39,39,5,1,6,0,castilian,,,,,,,,,,,,,,,,,,,,,,,,,,,,,,,,,,,,,,,,,,,,,,,,,,,,,,,,
,,,,,,,,,6782b2f4bd70e1c0a9a36590,Spanish,13 or older,"no, only English or Spanish",no,2025-07-24_08h43.09.265,empathy_intonation_perc_control,2024.2.4,Win32,60.24096386,6782b2f4bd70e1c0a9a36590,68817205a84113384fffdfe3,68822a148b9864681c8663b9,,,,,,,,,,,,./stim/wavs/cuban_mismatch_declarative-broad-focus_El-bebe-comia-muy-bien.wav,0,,,142.1648,144.4638,0,1,1.7735,,0,40,40,73,1,74,0,cuban,,,,,,,,,,,,,,,,,,,,,,,,,,,,,,,,,,,,,,,,,,,,,,,,,,,,,,,,
,,,,,,,,,6782b2f4bd70e1c0a9a36590,Spanish,13 or older,"no, only English or Spanish",no,2025-07-24_08h43.09.265,empathy_intonation_perc_control,2024.2.4,Win32,60.24096386,6782b2f4bd70e1c0a9a36590,68817205a84113384fffdfe3,68822a148b9864681c8663b9,,,,,,,,,,,,./stim/wavs/mexican_mismatch_interrogative-total-yn_Mi-novio-viene-del-lago.wav,1,,,144.4646,147.1478,1,1,2.1662,,0,41,41,37,1,38,0,mexican,,,,,,,,,,,,,,,,,,,,,,,,,,,,,,,,,,,,,,,,,,,,,,,,,,,,,,,,
,,,,,,,,,6782b2f4bd70e1c0a9a36590,Spanish,13 or older,"no, only English or Spanish",no,2025-07-24_08h43.09.265,empathy_intonation_perc_control,2024.2.4,Win32,60.24096386,6782b2f4bd70e1c0a9a36590,68817205a84113384fffdfe3,68822a148b9864681c8663b9,,,,,,,,,,,,./stim/wavs/castilian_match_declarative-broad-focus_Mariano-habla-del-tiempo.wav,0,,,147.1487,149.9973,0,1,2.3203,,0,42,42,48,1,49,0,castilian,,,,,,,,,,,,,,,,,,,,,,,,,,,,,,,,,,,,,,,,,,,,,,,,,,,,,,,,
,,,,,,,,,6782b2f4bd70e1c0a9a36590,Spanish,13 or older,"no, only English or Spanish",no,2025-07-24_08h43.09.265,empathy_intonation_perc_control,2024.2.4,Win32,60.24096386,6782b2f4bd70e1c0a9a36590,68817205a84113384fffdfe3,68822a148b9864681c8663b9,,,,,,,,,,,,./stim/wavs/castilian_mismatch_interrogative-total-yn_La-maestra-vive-en-Paris.wav,1,,,149.998,152.5473,1,1,2.0174,,0,43,43,24,1,25,0,castilian,,,,,,,,,,,,,,,,,,,,,,,,,,,,,,,,,,,,,,,,,,,,,,,,,,,,,,,,
,,,,,,,,,6782b2f4bd70e1c0a9a36590,Spanish,13 or older,"no, only English or Spanish",no,2025-07-24_08h43.09.265,empathy_intonation_perc_control,2024.2.4,Win32,60.24096386,6782b2f4bd70e1c0a9a36590,68817205a84113384fffdfe3,68822a148b9864681c8663b9,,,,,,,,,,,,./stim/wavs/cuban_mismatch_declarative-broad-focus_La-nina-lava-el-plato.wav,0,,,152.548,154.6138,0,1,1.5337,,0,44,44,75,1,76,0,cuban,,,,,,,,,,,,,,,,,,,,,,,,,,,,,,,,,,,,,,,,,,,,,,,,,,,,,,,,
,,,,,,,,,6782b2f4bd70e1c0a9a36590,Spanish,13 or older,"no, only English or Spanish",no,2025-07-24_08h43.09.265,empathy_intonation_perc_control,2024.2.4,Win32,60.24096386,6782b2f4bd70e1c0a9a36590,68817205a84113384fffdfe3,68822a148b9864681c8663b9,,,,,,,,,,,,./stim/wavs/mexican_mismatch_declarative-broad-focus_El-hombre-mira-la-luna.wav,0,,,154.6146,156.8307,0,1,1.6799,,0,45,45,79,1,80,0,mexican,,,,,,,,,,,,,,,,,,,,,,,,,,,,,,,,,,,,,,,,,,,,,,,,,,,,,,,,
,,,,,,,,,6782b2f4bd70e1c0a9a36590,Spanish,13 or older,"no, only English or Spanish",no,2025-07-24_08h43.09.265,empathy_intonation_perc_control,2024.2.4,Win32,60.24096386,6782b2f4bd70e1c0a9a36590,68817205a84113384fffdfe3,68822a148b9864681c8663b9,,,,,,,,,,,,./stim/wavs/puertorican_match_interrogative-total-yn_Ana-lleva-el-abrigo.wav,1,,,156.8318,158.9308,0,0,1.5738,,0,46,46,18,1,19,1,puertorican,,,,,,,,,,,,,,,,,,,,,,,,,,,,,,,,,,,,,,,,,,,,,,,,,,,,,,,,
,,,,,,,,,6782b2f4bd70e1c0a9a36590,Spanish,13 or older,"no, only English or Spanish",no,2025-07-24_08h43.09.265,empathy_intonation_perc_control,2024.2.4,Win32,60.24096386,6782b2f4bd70e1c0a9a36590,68817205a84113384fffdfe3,68822a148b9864681c8663b9,,,,,,,,,,,,./stim/wavs/puertorican_match_declarative-broad-focus_Daniel-iba-a-Bolivia.wav,0,,,158.9319,161.1311,0,1,1.6678,,0,47,47,63,1,64,0,puertorican,,,,,,,,,,,,,,,,,,,,,,,,,,,,,,,,,,,,,,,,,,,,,,,,,,,,,,,,
,,,,,,,,,6782b2f4bd70e1c0a9a36590,Spanish,13 or older,"no, only English or Spanish",no,2025-07-24_08h43.09.265,empathy_intonation_perc_control,2024.2.4,Win32,60.24096386,6782b2f4bd70e1c0a9a36590,68817205a84113384fffdfe3,68822a148b9864681c8663b9,,,,,,,,,,,,./stim/wavs/puertorican_mismatch_declarative-broad-focus_El-hombre-mira-la-luna.wav,0,,,161.1318,163.5477,0,1,1.8851,,0,48,48,84,1,85,0,puertorican,,,,,,,,,,,,,,,,,,,,,,,,,,,,,,,,,,,,,,,,,,,,,,,,,,,,,,,,
,,,,,,,,,6782b2f4bd70e1c0a9a36590,Spanish,13 or older,"no, only English or Spanish",no,2025-07-24_08h43.09.265,empathy_intonation_perc_control,2024.2.4,Win32,60.24096386,6782b2f4bd70e1c0a9a36590,68817205a84113384fffdfe3,68822a148b9864681c8663b9,,,,,,,,,,,,./stim/wavs/cuban_match_declarative-broad-focus_Mariano-habla-del-tiempo.wav,0,,,163.5484,165.9806,0,1,1.9006,,0,49,49,54,1,55,0,cuban,,,,,,,,,,,,,,,,,,,,,,,,,,,,,,,,,,,,,,,,,,,,,,,,,,,,,,,,
,,,,,,,,,6782b2f4bd70e1c0a9a36590,Spanish,13 or older,"no, only English or Spanish",no,2025-07-24_08h43.09.265,empathy_intonation_perc_control,2024.2.4,Win32,60.24096386,6782b2f4bd70e1c0a9a36590,68817205a84113384fffdfe3,68822a148b9864681c8663b9,,,,,,,,,,,,./stim/wavs/cuban_mismatch_interrogative-total-yn_El-nino-oye-el-rio.wav,1,,,165.9814,167.8975,0,0,1.3887,,0,50,50,30,1,31,1,cuban,,,,,,,,,,,,,,,,,,,,,,,,,,,,,,,,,,,,,,,,,,,,,,,,,,,,,,,,
,,,,,,,,,6782b2f4bd70e1c0a9a36590,Spanish,13 or older,"no, only English or Spanish",no,2025-07-24_08h43.09.265,empathy_intonation_perc_control,2024.2.4,Win32,60.24096386,6782b2f4bd70e1c0a9a36590,68817205a84113384fffdfe3,68822a148b9864681c8663b9,,,,,,,,,,,,./stim/wavs/puertorican_mismatch_interrogative-total-yn_La-maestra-vive-en-Paris.wav,1,,,167.8982,170.198,0,0,1.7726,,0,51,51,41,1,42,1,puertorican,,,,,,,,,,,,,,,,,,,,,,,,,,,,,,,,,,,,,,,,,,,,,,,,,,,,,,,,
,,,,,,,,,6782b2f4bd70e1c0a9a36590,Spanish,13 or older,"no, only English or Spanish",no,2025-07-24_08h43.09.265,empathy_intonation_perc_control,2024.2.4,Win32,60.24096386,6782b2f4bd70e1c0a9a36590,68817205a84113384fffdfe3,68822a148b9864681c8663b9,,,,,,,,,,,,./stim/wavs/mexican_match_declarative-broad-focus_Mariano-habla-del-tiempo.wav,0,,,170.1987,172.2807,0,1,1.553,,0,52,52,60,1,61,0,mexican,,,,,,,,,,,,,,,,,,,,,,,,,,,,,,,,,,,,,,,,,,,,,,,,,,,,,,,,
,,,,,,,,,6782b2f4bd70e1c0a9a36590,Spanish,13 or older,"no, only English or Spanish",no,2025-07-24_08h43.09.265,empathy_intonation_perc_control,2024.2.4,Win32,60.24096386,6782b2f4bd70e1c0a9a36590,68817205a84113384fffdfe3,68822a148b9864681c8663b9,,,,,,,,,,,,./stim/wavs/cuban_mismatch_interrogative-total-yn_El-hombre-mira-la-luna.wav,1,,,172.2814,174.1806,0,0,1.3716,,0,53,53,29,1,30,1,cuban,,,,,,,,,,,,,,,,,,,,,,,,,,,,,,,,,,,,,,,,,,,,,,,,,,,,,,,,
,,,,,,,,,6782b2f4bd70e1c0a9a36590,Spanish,13 or older,"no, only English or Spanish",no,2025-07-24_08h43.09.265,empathy_intonation_perc_control,2024.2.4,Win32,60.24096386,6782b2f4bd70e1c0a9a36590,68817205a84113384fffdfe3,68822a148b9864681c8663b9,,,,,,,,,,,,./stim/wavs/mexican_match_interrogative-total-yn_Marta-abre-el-regalo.wav,1,,,174.1814,176.7813,1,1,2.0742,,0,54,54,17,1,18,0,mexican,,,,,,,,,,,,,,,,,,,,,,,,,,,,,,,,,,,,,,,,,,,,,,,,,,,,,,,,
,,,,,,,,,6782b2f4bd70e1c0a9a36590,Spanish,13 or older,"no, only English or Spanish",no,2025-07-24_08h43.09.265,empathy_intonation_perc_control,2024.2.4,Win32,60.24096386,6782b2f4bd70e1c0a9a36590,68817205a84113384fffdfe3,68822a148b9864681c8663b9,,,,,,,,,,,,./stim/wavs/cuban_match_interrogative-total-yn_Daniel-iba-a-Bolivia.wav,1,,,176.7841,178.9141,0,0,1.606,,0,55,55,7,1,8,1,cuban,,,,,,,,,,,,,,,,,,,,,,,,,,,,,,,,,,,,,,,,,,,,,,,,,,,,,,,,
,,,,,,,,,6782b2f4bd70e1c0a9a36590,Spanish,13 or older,"no, only English or Spanish",no,2025-07-24_08h43.09.265,empathy_intonation_perc_control,2024.2.4,Win32,60.24096386,6782b2f4bd70e1c0a9a36590,68817205a84113384fffdfe3,68822a148b9864681c8663b9,,,,,,,,,,,,./stim/wavs/castilian_match_interrogative-total-yn_Maria-bebe-el-vino.wav,1,,,178.915,181.2141,1,1,1.7767,,0,56,56,3,1,4,0,castilian,,,,,,,,,,,,,,,,,,,,,,,,,,,,,,,,,,,,,,,,,,,,,,,,,,,,,,,,
,,,,,,,,,6782b2f4bd70e1c0a9a36590,Spanish,13 or older,"no, only English or Spanish",no,2025-07-24_08h43.09.265,empathy_intonation_perc_control,2024.2.4,Win32,60.24096386,6782b2f4bd70e1c0a9a36590,68817205a84113384fffdfe3,68822a148b9864681c8663b9,,,,,,,,,,,,./stim/wavs/cuban_mismatch_interrogative-total-yn_Mi-novio-viene-del-lago.wav,1,,,181.2149,183.4476,0,0,1.6997,,0,57,57,32,1,33,1,cuban,,,,,,,,,,,,,,,,,,,,,,,,,,,,,,,,,,,,,,,,,,,,,,,,,,,,,,,,
,,,,,,,,,6782b2f4bd70e1c0a9a36590,Spanish,13 or older,"no, only English or Spanish",no,2025-07-24_08h43.09.265,empathy_intonation_perc_control,2024.2.4,Win32,60.24096386,6782b2f4bd70e1c0a9a36590,68817205a84113384fffdfe3,68822a148b9864681c8663b9,,,,,,,,,,,,./stim/wavs/cuban_mismatch_interrogative-total-yn_Mi-madre-come-la-fruta.wav,1,,,183.4487,185.6473,0,0,1.6703,,0,58,58,31,1,32,1,cuban,,,,,,,,,,,,,,,,,,,,,,,,,,,,,,,,,,,,,,,,,,,,,,,,,,,,,,,,
,,,,,,,,,6782b2f4bd70e1c0a9a36590,Spanish,13 or older,"no, only English or Spanish",no,2025-07-24_08h43.09.265,empathy_intonation_perc_control,2024.2.4,Win32,60.24096386,6782b2f4bd70e1c0a9a36590,68817205a84113384fffdfe3,68822a148b9864681c8663b9,,,,,,,,,,,,./stim/wavs/cuban_mismatch_declarative-broad-focus_El-hombre-mira-la-luna.wav,0,,,185.6482,187.5309,0,1,1.3513,,0,59,59,74,1,75,0,cuban,,,,,,,,,,,,,,,,,,,,,,,,,,,,,,,,,,,,,,,,,,,,,,,,,,,,,,,,
,,,,,,,,,6782b2f4bd70e1c0a9a36590,Spanish,13 or older,"no, only English or Spanish",no,2025-07-24_08h43.09.265,empathy_intonation_perc_control,2024.2.4,Win32,60.24096386,6782b2f4bd70e1c0a9a36590,68817205a84113384fffdfe3,68822a148b9864681c8663b9,,,,,,,,,,,,./stim/wavs/cuban_match_declarative-broad-focus_Maria-bebe-el-vino.wav,0,,,187.5318,189.4808,0,1,1.419,,0,60,60,53,1,54,0,cuban,,,,,,,,,,,,,,,,,,,,,,,,,,,,,,,,,,,,,,,,,,,,,,,,,,,,,,,,
,,,,,,,,,6782b2f4bd70e1c0a9a36590,Spanish,13 or older,"no, only English or Spanish",no,2025-07-24_08h43.09.265,empathy_intonation_perc_control,2024.2.4,Win32,60.24096386,6782b2f4bd70e1c0a9a36590,68817205a84113384fffdfe3,68822a148b9864681c8663b9,,,,,,,,,,,,./stim/wavs/mexican_match_declarative-broad-focus_Daniel-iba-a-Bolivia.wav,0,,,189.4817,191.7976,0,1,1.7836,,0,61,61,57,1,58,0,mexican,,,,,,,,,,,,,,,,,,,,,,,,,,,,,,,,,,,,,,,,,,,,,,,,,,,,,,,,
,,,,,,,,,6782b2f4bd70e1c0a9a36590,Spanish,13 or older,"no, only English or Spanish",no,2025-07-24_08h43.09.265,empathy_intonation_perc_control,2024.2.4,Win32,60.24096386,6782b2f4bd70e1c0a9a36590,68817205a84113384fffdfe3,68822a148b9864681c8663b9,,,,,,,,,,,,./stim/wavs/mexican_match_declarative-broad-focus_Ana-lleva-el-abrigo.wav,0,,,191.7985,193.7474,0,1,1.4174,,0,62,62,56,1,57,0,mexican,,,,,,,,,,,,,,,,,,,,,,,,,,,,,,,,,,,,,,,,,,,,,,,,,,,,,,,,
,,,,,,,,,6782b2f4bd70e1c0a9a36590,Spanish,13 or older,"no, only English or Spanish",no,2025-07-24_08h43.09.265,empathy_intonation_perc_control,2024.2.4,Win32,60.24096386,6782b2f4bd70e1c0a9a36590,68817205a84113384fffdfe3,68822a148b9864681c8663b9,,,,,,,,,,,,./stim/wavs/mexican_mismatch_interrogative-total-yn_Mi-tia-odia-la-lluvia.wav,1,,,193.7483,196.1975,1,1,1.924,,0,63,63,38,1,39,0,mexican,,,,,,,,,,,,,,,,,,,,,,,,,,,,,,,,,,,,,,,,,,,,,,,,,,,,,,,,
,,,,,,,,,6782b2f4bd70e1c0a9a36590,Spanish,13 or older,"no, only English or Spanish",no,2025-07-24_08h43.09.265,empathy_intonation_perc_control,2024.2.4,Win32,60.24096386,6782b2f4bd70e1c0a9a36590,68817205a84113384fffdfe3,68822a148b9864681c8663b9,,,,,,,,,,,,./stim/wavs/puertorican_mismatch_declarative-broad-focus_La-maestra-vive-en-Paris.wav,0,,,196.1982,198.3639,0,1,1.638,,0,64,64,86,1,87,0,puertorican,,,,,,,,,,,,,,,,,,,,,,,,,,,,,,,,,,,,,,,,,,,,,,,,,,,,,,,,
,,,,,,,,,6782b2f4bd70e1c0a9a36590,Spanish,13 or older,"no, only English or Spanish",no,2025-07-24_08h43.09.265,empathy_intonation_perc_control,2024.2.4,Win32,60.24096386,6782b2f4bd70e1c0a9a36590,68817205a84113384fffdfe3,68822a148b9864681c8663b9,,,,,,,,,,,,./stim/wavs/puertorican_mismatch_interrogative-total-yn_La-nina-lava-el-plato.wav,1,,,198.3647,200.3807,0,0,1.484,,0,65,65,42,1,43,1,puertorican,,,,,,,,,,,,,,,,,,,,,,,,,,,,,,,,,,,,,,,,,,,,,,,,,,,,,,,,
,,,,,,,,,6782b2f4bd70e1c0a9a36590,Spanish,13 or older,"no, only English or Spanish",no,2025-07-24_08h43.09.265,empathy_intonation_perc_control,2024.2.4,Win32,60.24096386,6782b2f4bd70e1c0a9a36590,68817205a84113384fffdfe3,68822a148b9864681c8663b9,,,,,,,,,,,,./stim/wavs/puertorican_mismatch_interrogative-total-yn_Mi-madre-come-la-fruta.wav,1,,,200.3815,202.631,0,0,1.7065,,0,66,66,43,1,44,1,puertorican,,,,,,,,,,,,,,,,,,,,,,,,,,,,,,,,,,,,,,,,,,,,,,,,,,,,,,,,
,,,,,,,,,6782b2f4bd70e1c0a9a36590,Spanish,13 or older,"no, only English or Spanish",no,2025-07-24_08h43.09.265,empathy_intonation_perc_control,2024.2.4,Win32,60.24096386,6782b2f4bd70e1c0a9a36590,68817205a84113384fffdfe3,68822a148b9864681c8663b9,,,,,,,,,,,,./stim/wavs/mexican_match_interrogative-total-yn_David-leia-el-libro.wav,1,,,202.6334,204.8641,1,1,1.7065,,0,67,67,14,1,15,0,mexican,,,,,,,,,,,,,,,,,,,,,,,,,,,,,,,,,,,,,,,,,,,,,,,,,,,,,,,,
,,,,,,,,,6782b2f4bd70e1c0a9a36590,Spanish,13 or older,"no, only English or Spanish",no,2025-07-24_08h43.09.265,empathy_intonation_perc_control,2024.2.4,Win32,60.24096386,6782b2f4bd70e1c0a9a36590,68817205a84113384fffdfe3,68822a148b9864681c8663b9,,,,,,,,,,,,./stim/wavs/mexican_match_interrogative-total-yn_Emilio-ama-la-marcha.wav,1,,,204.8654,207.3312,1,1,1.9337,,0,68,68,15,1,16,0,mexican,,,,,,,,,,,,,,,,,,,,,,,,,,,,,,,,,,,,,,,,,,,,,,,,,,,,,,,,
,,,,,,,,,6782b2f4bd70e1c0a9a36590,Spanish,13 or older,"no, only English or Spanish",no,2025-07-24_08h43.09.265,empathy_intonation_perc_control,2024.2.4,Win32,60.24096386,6782b2f4bd70e1c0a9a36590,68817205a84113384fffdfe3,68822a148b9864681c8663b9,,,,,,,,,,,,./stim/wavs/puertorican_match_declarative-broad-focus_David-leia-el-libro.wav,0,,,207.3331,209.431,0,1,1.5667,,0,69,69,64,1,65,0,puertorican,,,,,,,,,,,,,,,,,,,,,,,,,,,,,,,,,,,,,,,,,,,,,,,,,,,,,,,,
,,,,,,,,,6782b2f4bd70e1c0a9a36590,Spanish,13 or older,"no, only English or Spanish",no,2025-07-24_08h43.09.265,empathy_intonation_perc_control,2024.2.4,Win32,60.24096386,6782b2f4bd70e1c0a9a36590,68817205a84113384fffdfe3,68822a148b9864681c8663b9,,,,,,,,,,,,./stim/wavs/castilian_mismatch_declarative-broad-focus_Mi-novio-viene-del-lago.wav,0,,,209.4331,212.281,0,1,2.3191,,0,70,70,71,1,72,0,castilian,,,,,,,,,,,,,,,,,,,,,,,,,,,,,,,,,,,,,,,,,,,,,,,,,,,,,,,,
,,,,,,,,,6782b2f4bd70e1c0a9a36590,Spanish,13 or older,"no, only English or Spanish",no,2025-07-24_08h43.09.265,empathy_intonation_perc_control,2024.2.4,Win32,60.24096386,6782b2f4bd70e1c0a9a36590,68817205a84113384fffdfe3,68822a148b9864681c8663b9,,,,,,,,,,,,./stim/wavs/mexican_mismatch_declarative-broad-focus_Mi-novio-viene-del-lago.wav,0,,,212.283,214.2477,0,1,1.4497,,0,71,71,81,1,82,0,mexican,,,,,,,,,,,,,,,,,,,,,,,,,,,,,,,,,,,,,,,,,,,,,,,,,,,,,,,,
,,,,,,,,,6782b2f4bd70e1c0a9a36590,Spanish,13 or older,"no, only English or Spanish",no,2025-07-24_08h43.09.265,empathy_intonation_perc_control,2024.2.4,Win32,60.24096386,6782b2f4bd70e1c0a9a36590,68817205a84113384fffdfe3,68822a148b9864681c8663b9,,,,,,,,,,,,./stim/wavs/mexican_match_declarative-broad-focus_Emilio-ama-la-marcha.wav,0,,,214.2504,216.4475,0,1,1.6762,,0,72,72,59,1,60,0,mexican,,,,,,,,,,,,,,,,,,,,,,,,,,,,,,,,,,,,,,,,,,,,,,,,,,,,,,,,
,,,,,,,,,6782b2f4bd70e1c0a9a36590,Spanish,13 or older,"no, only English or Spanish",no,2025-07-24_08h43.09.265,empathy_intonation_perc_control,2024.2.4,Win32,60.24096386,6782b2f4bd70e1c0a9a36590,68817205a84113384fffdfe3,68822a148b9864681c8663b9,,,,,,,,,,,,./stim/wavs/puertorican_mismatch_declarative-broad-focus_La-nina-lava-el-plato.wav,0,,,216.4492,218.5146,0,1,1.5361,,0,73,73,87,1,88,0,puertorican,,,,,,,,,,,,,,,,,,,,,,,,,,,,,,,,,,,,,,,,,,,,,,,,,,,,,,,,
,,,,,,,,,6782b2f4bd70e1c0a9a36590,Spanish,13 or older,"no, only English or Spanish",no,2025-07-24_08h43.09.265,empathy_intonation_perc_control,2024.2.4,Win32,60.24096386,6782b2f4bd70e1c0a9a36590,68817205a84113384fffdfe3,68822a148b9864681c8663b9,,,,,,,,,,,,./stim/wavs/castilian_mismatch_interrogative-total-yn_Mi-madre-come-la-fruta.wav,1,,,218.5172,220.6977,1,1,1.6524,,0,74,74,26,1,27,0,castilian,,,,,,,,,,,,,,,,,,,,,,,,,,,,,,,,,,,,,,,,,,,,,,,,,,,,,,,,
,,,,,,,,,6782b2f4bd70e1c0a9a36590,Spanish,13 or older,"no, only English or Spanish",no,2025-07-24_08h43.09.265,empathy_intonation_perc_control,2024.2.4,Win32,60.24096386,6782b2f4bd70e1c0a9a36590,68817205a84113384fffdfe3,68822a148b9864681c8663b9,,,,,,,,,,,,./stim/wavs/castilian_match_declarative-broad-focus_David-leia-el-libro.wav,0,,,220.7,222.981,0,1,1.7518,,0,75,75,44,1,45,0,castilian,,,,,,,,,,,,,,,,,,,,,,,,,,,,,,,,,,,,,,,,,,,,,,,,,,,,,,,,
,,,,,,,,,6782b2f4bd70e1c0a9a36590,Spanish,13 or older,"no, only English or Spanish",no,2025-07-24_08h43.09.265,empathy_intonation_perc_control,2024.2.4,Win32,60.24096386,6782b2f4bd70e1c0a9a36590,68817205a84113384fffdfe3,68822a148b9864681c8663b9,,,,,,,,,,,,./stim/wavs/mexican_mismatch_interrogative-total-yn_El-hombre-mira-la-luna.wav,1,,,222.9832,225.4343,1,1,1.9228,,0,76,76,34,1,35,0,mexican,,,,,,,,,,,,,,,,,,,,,,,,,,,,,,,,,,,,,,,,,,,,,,,,,,,,,,,,
,,,,,,,,,6782b2f4bd70e1c0a9a36590,Spanish,13 or older,"no, only English or Spanish",no,2025-07-24_08h43.09.265,empathy_intonation_perc_control,2024.2.4,Win32,60.24096386,6782b2f4bd70e1c0a9a36590,68817205a84113384fffdfe3,68822a148b9864681c8663b9,,,,,,,,,,,,./stim/wavs/cuban_match_declarative-broad-focus_Ana-lleva-el-abrigo.wav,0,,,225.4366,227.6001,0,1,1.6395,,0,77,77,50,1,51,0,cuban,,,,,,,,,,,,,,,,,,,,,,,,,,,,,,,,,,,,,,,,,,,,,,,,,,,,,,,,
,,,,,,,,,6782b2f4bd70e1c0a9a36590,Spanish,13 or older,"no, only English or Spanish",no,2025-07-24_08h43.09.265,empathy_intonation_perc_control,2024.2.4,Win32,60.24096386,6782b2f4bd70e1c0a9a36590,68817205a84113384fffdfe3,68822a148b9864681c8663b9,,,,,,,,,,,,./stim/wavs/puertorican_match_declarative-broad-focus_Emilio-ama-la-marcha.wav,0,,,227.6026,229.6166,0,1,1.4838,,0,78,78,65,1,66,0,puertorican,,,,,,,,,,,,,,,,,,,,,,,,,,,,,,,,,,,,,,,,,,,,,,,,,,,,,,,,
,,,,,,,,,6782b2f4bd70e1c0a9a36590,Spanish,13 or older,"no, only English or Spanish",no,2025-07-24_08h43.09.265,empathy_intonation_perc_control,2024.2.4,Win32,60.24096386,6782b2f4bd70e1c0a9a36590,68817205a84113384fffdfe3,68822a148b9864681c8663b9,,,,,,,,,,,,./stim/wavs/cuban_mismatch_declarative-broad-focus_Mi-novio-viene-del-lago.wav,0,,,229.6187,231.6707,0,1,1.5345,,0,79,79,76,1,77,0,cuban,,,,,,,,,,,,,,,,,,,,,,,,,,,,,,,,,,,,,,,,,,,,,,,,,,,,,,,,
,,,,,,,,,6782b2f4bd70e1c0a9a36590,Spanish,13 or older,"no, only English or Spanish",no,2025-07-24_08h43.09.265,empathy_intonation_perc_control,2024.2.4,Win32,60.24096386,6782b2f4bd70e1c0a9a36590,68817205a84113384fffdfe3,68822a148b9864681c8663b9,,,,,,,,,,,,./stim/wavs/puertorican_match_interrogative-total-yn_Emilio-ama-la-marcha.wav,1,,,231.6714,233.7044,0,0,1.5181,,0,80,80,21,1,22,1,puertorican,,,,,,,,,,,,,,,,,,,,,,,,,,,,,,,,,,,,,,,,,,,,,,,,,,,,,,,,
,,,,,,,,,6782b2f4bd70e1c0a9a36590,Spanish,13 or older,"no, only English or Spanish",no,2025-07-24_08h43.09.265,empathy_intonation_perc_control,2024.2.4,Win32,60.24096386,6782b2f4bd70e1c0a9a36590,68817205a84113384fffdfe3,68822a148b9864681c8663b9,,,,,,,,,,,,./stim/wavs/puertorican_match_interrogative-total-yn_Maria-bebe-el-vino.wav,1,,,233.7051,235.7374,0,0,1.501,,0,81,81,23,1,24,1,puertorican,,,,,,,,,,,,,,,,,,,,,,,,,,,,,,,,,,,,,,,,,,,,,,,,,,,,,,,,
,,,,,,,,,6782b2f4bd70e1c0a9a36590,Spanish,13 or older,"no, only English or Spanish",no,2025-07-24_08h43.09.265,empathy_intonation_perc_control,2024.2.4,Win32,60.24096386,6782b2f4bd70e1c0a9a36590,68817205a84113384fffdfe3,68822a148b9864681c8663b9,,,,,,,,,,,,./stim/wavs/puertorican_match_interrogative-total-yn_Manuela-vende-el-carro.wav,1,,,235.738,237.9371,0,0,1.6677,,0,82,82,22,1,23,1,puertorican,,,,,,,,,,,,,,,,,,,,,,,,,,,,,,,,,,,,,,,,,,,,,,,,,,,,,,,,
,,,,,,,,,6782b2f4bd70e1c0a9a36590,Spanish,13 or older,"no, only English or Spanish",no,2025-07-24_08h43.09.265,empathy_intonation_perc_control,2024.2.4,Win32,60.24096386,6782b2f4bd70e1c0a9a36590,68817205a84113384fffdfe3,68822a148b9864681c8663b9,,,,,,,,,,,,./stim/wavs/mexican_match_declarative-broad-focus_David-leia-el-libro.wav,0,,,237.9378,240.09,0,1,1.6324,,0,83,83,58,1,59,0,mexican,,,,,,,,,,,,,,,,,,,,,,,,,,,,,,,,,,,,,,,,,,,,,,,,,,,,,,,,
,,,,,,,,,6782b2f4bd70e1c0a9a36590,Spanish,13 or older,"no, only English or Spanish",no,2025-07-24_08h43.09.265,empathy_intonation_perc_control,2024.2.4,Win32,60.24096386,6782b2f4bd70e1c0a9a36590,68817205a84113384fffdfe3,68822a148b9864681c8663b9,,,,,,,,,,,,./stim/wavs/castilian_match_interrogative-total-yn_Emilio-ama-la-marcha.wav,1,,,240.0906,242.2373,1,1,1.6185,,0,84,84,1,1,2,0,castilian,,,,,,,,,,,,,,,,,,,,,,,,,,,,,,,,,,,,,,,,,,,,,,,,,,,,,,,,
,,,,,,,,,6782b2f4bd70e1c0a9a36590,Spanish,13 or older,"no, only English or Spanish",no,2025-07-24_08h43.09.265,empathy_intonation_perc_control,2024.2.4,Win32,60.24096386,6782b2f4bd70e1c0a9a36590,68817205a84113384fffdfe3,68822a148b9864681c8663b9,,,,,,,,,,,,./stim/wavs/cuban_match_interrogative-total-yn_Manuela-vende-el-carro.wav,1,,,242.2379,244.1477,0,0,1.3907,,0,85,85,8,1,9,1,cuban,,,,,,,,,,,,,,,,,,,,,,,,,,,,,,,,,,,,,,,,,,,,,,,,,,,,,,,,
,,,,,,,,,6782b2f4bd70e1c0a9a36590,Spanish,13 or older,"no, only English or Spanish",no,2025-07-24_08h43.09.265,empathy_intonation_perc_control,2024.2.4,Win32,60.24096386,6782b2f4bd70e1c0a9a36590,68817205a84113384fffdfe3,68822a148b9864681c8663b9,,,,,,,,,,,,./stim/wavs/castilian_match_interrogative-total-yn_Mariano-habla-del-tiempo.wav,1,,,244.1496,246.3312,1,1,1.6576,,0,86,86,4,1,5,0,castilian,,,,,,,,,,,,,,,,,,,,,,,,,,,,,,,,,,,,,,,,,,,,,,,,,,,,,,,,
,,,,,,,,,6782b2f4bd70e1c0a9a36590,Spanish,13 or older,"no, only English or Spanish",no,2025-07-24_08h43.09.265,empathy_intonation_perc_control,2024.2.4,Win32,60.24096386,6782b2f4bd70e1c0a9a36590,68817205a84113384fffdfe3,68822a148b9864681c8663b9,,,,,,,,,,,,./stim/wavs/puertorican_mismatch_interrogative-total-yn_El-nino-oye-el-rio.wav,1,,,246.3329,248.3978,0,0,1.5331,,0,87,87,40,1,41,1,puertorican,,,,,,,,,,,,,,,,,,,,,,,,,,,,,,,,,,,,,,,,,,,,,,,,,,,,,,,,
,,,,,,,"Great! Now we will move on. The next task consists of about 60 trials, in each of which you will see a string of letters. 
  
  Your task is to decide whether this is a real Spanish word or not.", (press the spacebar to continue),6782b2f4bd70e1c0a9a36590,Spanish,13 or older,"no, only English or Spanish",no,2025-07-24_08h43.09.265,empathy_intonation_perc_control,2024.2.4,Win32,60.24096386,6782b2f4bd70e1c0a9a36590,68817205a84113384fffdfe3,68822a148b9864681c8663b9,,,,,,,,,,,,,,,,,,,,,,,,,,,,,,248.4147,254.1648,0,0,0,0,1,,,,,,,,,,,,,,,,,,,,,,,,,,,,,,,,,,,,,,,,,,,,,,,,,
,,,,,,,"If you think it is an existing Spanish word, you type '1' (for 'REAL'), and if you think it is not an existing Spanish word, you type '0' (for 'FAKE').", (press the spacebar to continue),6782b2f4bd70e1c0a9a36590,Spanish,13 or older,"no, only English or Spanish",no,2025-07-24_08h43.09.265,empathy_intonation_perc_control,2024.2.4,Win32,60.24096386,6782b2f4bd70e1c0a9a36590,68817205a84113384fffdfe3,68822a148b9864681c8663b9,,,,,,,,,,,,,,,,,,,,,,,,,,,,,,254.1712,257.3146,0,1,1,1,1,,,,,,,,,,,,,,,,,,,,,,,,,,,,,,,,,,,,,,,,,,,,,,,,,
,,,,,,,"If you are sure that the word exists, even though you don’t know its exact meaning, you may still respond '1' (REAL). 
  
  But if you are not sure if it is an existing word, you should respond '0' (FAKE).
  
  Let's do a practice round...", (press the spacebar to continue),6782b2f4bd70e1c0a9a36590,Spanish,13 or older,"no, only English or Spanish",no,2025-07-24_08h43.09.265,empathy_intonation_perc_control,2024.2.4,Win32,60.24096386,6782b2f4bd70e1c0a9a36590,68817205a84113384fffdfe3,68822a148b9864681c8663b9,,,,,,,,,,,,,,,,,,,,,,,,,,,,,,257.3201,262.8808,0,2,2,2,1,,,,,,,,,,,,,,,,,,,,,,,,,,,,,,,,,,,,,,,,,,,,,,,,,
,,,,,,,,,6782b2f4bd70e1c0a9a36590,Spanish,13 or older,"no, only English or Spanish",no,2025-07-24_08h43.09.265,empathy_intonation_perc_control,2024.2.4,Win32,60.24096386,6782b2f4bd70e1c0a9a36590,68817205a84113384fffdfe3,68822a148b9864681c8663b9,,,,,,,,,,,,,0,,,,,,,,,,,,,,,,,,,,,,,,262.8977,266.4144,0,1,2.9789,,266.4154,267.4144,0,0,0,0,1,0,depiste,REAL,FAKE,,,,,,,,,,,,,,,,,,,,,,,,,,,,,,,,
,,,,,,,,,6782b2f4bd70e1c0a9a36590,Spanish,13 or older,"no, only English or Spanish",no,2025-07-24_08h43.09.265,empathy_intonation_perc_control,2024.2.4,Win32,60.24096386,6782b2f4bd70e1c0a9a36590,68817205a84113384fffdfe3,68822a148b9864681c8663b9,,,,,,,,,,,,,1,,,,,,,,,,,,,,,,,,,,,,,,267.4188,268.7476,1,1,0.8032,,268.7477,269.7474,0,1,1,1,1,0,sí,REAL,FAKE,,,,,,,,,,,,,,,,,,,,,,,,,,,,,,,,
,,,,,,,,,6782b2f4bd70e1c0a9a36590,Spanish,13 or older,"no, only English or Spanish",no,2025-07-24_08h43.09.265,empathy_intonation_perc_control,2024.2.4,Win32,60.24096386,6782b2f4bd70e1c0a9a36590,68817205a84113384fffdfe3,68822a148b9864681c8663b9,,,,,,,,,,,,,0,,,,,,,,,,,,,,,,,,,,,,,,269.7514,271.281,0,1,0.9994,,271.2811,272.2691,0,2,2,2,1,0,coné,REAL,FAKE,,,,,,,,,,,,,,,,,,,,,,,,,,,,,,,,
,,,,,,,,,6782b2f4bd70e1c0a9a36590,Spanish,13 or older,"no, only English or Spanish",no,2025-07-24_08h43.09.265,empathy_intonation_perc_control,2024.2.4,Win32,60.24096386,6782b2f4bd70e1c0a9a36590,68817205a84113384fffdfe3,68822a148b9864681c8663b9,,,,,,,,,,,,,0,,,,,,,,,,,,,,,,,,,,,,,,272.2705,274.0644,0,1,1.2635,,274.0645,275.0642,0,3,3,3,1,0,calpar,REAL,FAKE,,,,,,,,,,,,,,,,,,,,,,,,,,,,,,,,
,,,,,,,,,6782b2f4bd70e1c0a9a36590,Spanish,13 or older,"no, only English or Spanish",no,2025-07-24_08h43.09.265,empathy_intonation_perc_control,2024.2.4,Win32,60.24096386,6782b2f4bd70e1c0a9a36590,68817205a84113384fffdfe3,68822a148b9864681c8663b9,,,,,,,,,,,,,0,,,,,,,,,,,,,,,,,,,,,,,,275.0684,276.3144,0,1,0.7156,,276.3145,277.3144,0,4,4,4,1,0,joten,REAL,FAKE,,,,,,,,,,,,,,,,,,,,,,,,,,,,,,,,
,,,,,,,,,6782b2f4bd70e1c0a9a36590,Spanish,13 or older,"no, only English or Spanish",no,2025-07-24_08h43.09.265,empathy_intonation_perc_control,2024.2.4,Win32,60.24096386,6782b2f4bd70e1c0a9a36590,68817205a84113384fffdfe3,68822a148b9864681c8663b9,,,,,,,,,,,,,1,,,,,,,,,,,,,,,,,,,,,,,,277.3172,278.8309,0,0,0.9719,,278.8352,279.8309,0,5,5,5,1,0,sacapuntas,REAL,FAKE,,,,,,,,,,,,,,,,,,,,,,,,,,,,,,,,
,,,,,,,,,6782b2f4bd70e1c0a9a36590,Spanish,13 or older,"no, only English or Spanish",no,2025-07-24_08h43.09.265,empathy_intonation_perc_control,2024.2.4,Win32,60.24096386,6782b2f4bd70e1c0a9a36590,68817205a84113384fffdfe3,68822a148b9864681c8663b9,,,,,,,,,,,,,0,,,,,,,,,,,,,,,,,,,,,,,,279.8351,281.4308,1,0,1.0669,,281.4309,282.4361,0,6,6,6,1,0,priba,REAL,FAKE,,,,,,,,,,,,,,,,,,,,,,,,,,,,,,,,
,,,,,,,,,6782b2f4bd70e1c0a9a36590,Spanish,13 or older,"no, only English or Spanish",no,2025-07-24_08h43.09.265,empathy_intonation_perc_control,2024.2.4,Win32,60.24096386,6782b2f4bd70e1c0a9a36590,68817205a84113384fffdfe3,68822a148b9864681c8663b9,,,,,,,,,,,,,0,,,,,,,,,,,,,,,,,,,,,,,,282.4372,283.9477,0,1,0.986,,283.9485,284.9476,0,7,7,7,1,0,pelasula,REAL,FAKE,,,,,,,,,,,,,,,,,,,,,,,,,,,,,,,,
,,,,,,,,,6782b2f4bd70e1c0a9a36590,Spanish,13 or older,"no, only English or Spanish",no,2025-07-24_08h43.09.265,empathy_intonation_perc_control,2024.2.4,Win32,60.24096386,6782b2f4bd70e1c0a9a36590,68817205a84113384fffdfe3,68822a148b9864681c8663b9,,,,,,,,,,,,,1,,,,,,,,,,,,,,,,,,,,,,,,284.95,286.1307,1,1,0.6496,,286.1308,287.1307,0,8,8,8,1,0,bien,REAL,FAKE,,,,,,,,,,,,,,,,,,,,,,,,,,,,,,,,
,,,,,,,,,6782b2f4bd70e1c0a9a36590,Spanish,13 or older,"no, only English or Spanish",no,2025-07-24_08h43.09.265,empathy_intonation_perc_control,2024.2.4,Win32,60.24096386,6782b2f4bd70e1c0a9a36590,68817205a84113384fffdfe3,68822a148b9864681c8663b9,,,,,,,,,,,,,1,,,,,,,,,,,,,,,,,,,,,,,,287.1319,288.2476,1,1,0.5797,,288.2476,289.2474,0,9,9,9,1,0,casa,REAL,FAKE,,,,,,,,,,,,,,,,,,,,,,,,,,,,,,,,
,,,,,,,,,6782b2f4bd70e1c0a9a36590,Spanish,13 or older,"no, only English or Spanish",no,2025-07-24_08h43.09.265,empathy_intonation_perc_control,2024.2.4,Win32,60.24096386,6782b2f4bd70e1c0a9a36590,68817205a84113384fffdfe3,68822a148b9864681c8663b9,,,,,,,,,,,,,0,,,,,,,,,,,,,,,,,,,,,,,,289.2496,290.3977,0,1,0.6111,,290.3977,291.3978,0,10,10,10,1,0,lejo,REAL,FAKE,,,,,,,,,,,,,,,,,,,,,,,,,,,,,,,,
,,,,,,,,,6782b2f4bd70e1c0a9a36590,Spanish,13 or older,"no, only English or Spanish",no,2025-07-24_08h43.09.265,empathy_intonation_perc_control,2024.2.4,Win32,60.24096386,6782b2f4bd70e1c0a9a36590,68817205a84113384fffdfe3,68822a148b9864681c8663b9,,,,,,,,,,,,,0,,,,,,,,,,,,,,,,,,,,,,,,291.3991,292.9477,0,1,1.013,,292.9477,293.9476,0,11,11,11,1,0,pretantas,REAL,FAKE,,,,,,,,,,,,,,,,,,,,,,,,,,,,,,,,
,,,,,,,,,6782b2f4bd70e1c0a9a36590,Spanish,13 or older,"no, only English or Spanish",no,2025-07-24_08h43.09.265,empathy_intonation_perc_control,2024.2.4,Win32,60.24096386,6782b2f4bd70e1c0a9a36590,68817205a84113384fffdfe3,68822a148b9864681c8663b9,,,,,,,,,,,,,,,,,,,,,,,,,,,,,,,,,,,,,,,,,,,,,,,,,,,,,,293.948,294.9332,,,,,,,,,,,,,,,,,,,,,,,,,,,,,,
,,,,,,,,,6782b2f4bd70e1c0a9a36590,Spanish,13 or older,"no, only English or Spanish",no,2025-07-24_08h43.09.265,empathy_intonation_perc_control,2024.2.4,Win32,60.24096386,6782b2f4bd70e1c0a9a36590,68817205a84113384fffdfe3,68822a148b9864681c8663b9,,,,,,,,,,,,,0,,,,,,,,,,,,,,,,,,,,,,,,,,,,,,,,,,,,,92,click the 0 key.,,,,,294.9784,296.5015,0,1,1.0035,,0,0,0,91,1,REAL,FAKE,,,,,,,,,,,,,,,,,
,,,,,,,,,6782b2f4bd70e1c0a9a36590,Spanish,13 or older,"no, only English or Spanish",no,2025-07-24_08h43.09.265,empathy_intonation_perc_control,2024.2.4,Win32,60.24096386,6782b2f4bd70e1c0a9a36590,68817205a84113384fffdfe3,68822a148b9864681c8663b9,,,,,,,,,,,,,0,,,,,,,,,,,,,,,,,,,,,,,,,,,,,,,,,,,,,10,antar,,,,,296.5029,298.6168,1,0,1.5805,,0,1,1,9,1,REAL,FAKE,,,,,,,,,,,,,,,,,
,,,,,,,,,6782b2f4bd70e1c0a9a36590,Spanish,13 or older,"no, only English or Spanish",no,2025-07-24_08h43.09.265,empathy_intonation_perc_control,2024.2.4,Win32,60.24096386,6782b2f4bd70e1c0a9a36590,68817205a84113384fffdfe3,68822a148b9864681c8663b9,,,,,,,,,,,,,1,,,,,,,,,,,,,,,,,,,,,,,,,,,,,,,,,,,,,20,ávido,,,,,298.6192,300.684,1,1,1.5409,,0,2,2,19,1,REAL,FAKE,,,,,,,,,,,,,,,,,
,,,,,,,,,6782b2f4bd70e1c0a9a36590,Spanish,13 or older,"no, only English or Spanish",no,2025-07-24_08h43.09.265,empathy_intonation_perc_control,2024.2.4,Win32,60.24096386,6782b2f4bd70e1c0a9a36590,68817205a84113384fffdfe3,68822a148b9864681c8663b9,,,,,,,,,,,,,1,,,,,,,,,,,,,,,,,,,,,,,,,,,,,,,,,,,,,43,canela,,,,,300.6854,302.5162,1,1,1.3057,,0,3,3,42,1,REAL,FAKE,,,,,,,,,,,,,,,,,
,,,,,,,,,6782b2f4bd70e1c0a9a36590,Spanish,13 or older,"no, only English or Spanish",no,2025-07-24_08h43.09.265,empathy_intonation_perc_control,2024.2.4,Win32,60.24096386,6782b2f4bd70e1c0a9a36590,68817205a84113384fffdfe3,68822a148b9864681c8663b9,,,,,,,,,,,,,0,,,,,,,,,,,,,,,,,,,,,,,,,,,,,,,,,,,,,72,pemición,,,,,302.5183,304.3143,0,1,1.253,,0,4,4,71,1,REAL,FAKE,,,,,,,,,,,,,,,,,
,,,,,,,,,6782b2f4bd70e1c0a9a36590,Spanish,13 or older,"no, only English or Spanish",no,2025-07-24_08h43.09.265,empathy_intonation_perc_control,2024.2.4,Win32,60.24096386,6782b2f4bd70e1c0a9a36590,68817205a84113384fffdfe3,68822a148b9864681c8663b9,,,,,,,,,,,,,1,,,,,,,,,,,,,,,,,,,,,,,,,,,,,,,,,,,,,64,orgulloso,,,,,304.3183,306.5478,0,0,1.7017,,0,5,5,63,1,REAL,FAKE,,,,,,,,,,,,,,,,,
,,,,,,,,,6782b2f4bd70e1c0a9a36590,Spanish,13 or older,"no, only English or Spanish",no,2025-07-24_08h43.09.265,empathy_intonation_perc_control,2024.2.4,Win32,60.24096386,6782b2f4bd70e1c0a9a36590,68817205a84113384fffdfe3,68822a148b9864681c8663b9,,,,,,,,,,,,,1,,,,,,,,,,,,,,,,,,,,,,,,,,,,,,,,,,,,,5,zapato,,,,,306.5518,308.081,1,1,0.9975,,0,6,6,4,1,REAL,FAKE,,,,,,,,,,,,,,,,,
,,,,,,,,,6782b2f4bd70e1c0a9a36590,Spanish,13 or older,"no, only English or Spanish",no,2025-07-24_08h43.09.265,empathy_intonation_perc_control,2024.2.4,Win32,60.24096386,6782b2f4bd70e1c0a9a36590,68817205a84113384fffdfe3,68822a148b9864681c8663b9,,,,,,,,,,,,,1,,,,,,,,,,,,,,,,,,,,,,,,,,,,,,,,,,,,,48,ladrón,,,,,308.0831,309.7975,1,1,1.1813,,0,7,7,47,1,REAL,FAKE,,,,,,,,,,,,,,,,,
,,,,,,,,,6782b2f4bd70e1c0a9a36590,Spanish,13 or older,"no, only English or Spanish",no,2025-07-24_08h43.09.265,empathy_intonation_perc_control,2024.2.4,Win32,60.24096386,6782b2f4bd70e1c0a9a36590,68817205a84113384fffdfe3,68822a148b9864681c8663b9,,,,,,,,,,,,,1,,,,,,,,,,,,,,,,,,,,,,,,,,,,,,,,,,,,,15,regar,,,,,309.7997,312.1476,0,0,1.8188,,0,8,8,14,1,REAL,FAKE,,,,,,,,,,,,,,,,,
,,,,,,,,,6782b2f4bd70e1c0a9a36590,Spanish,13 or older,"no, only English or Spanish",no,2025-07-24_08h43.09.265,empathy_intonation_perc_control,2024.2.4,Win32,60.24096386,6782b2f4bd70e1c0a9a36590,68817205a84113384fffdfe3,68822a148b9864681c8663b9,,,,,,,,,,,,,0,,,,,,,,,,,,,,,,,,,,,,,,,,,,,,,,,,,,,82,empirador,,,,,312.1497,313.8644,1,0,1.1901,,0,9,9,81,1,REAL,FAKE,,,,,,,,,,,,,,,,,
,,,,,,,,,6782b2f4bd70e1c0a9a36590,Spanish,13 or older,"no, only English or Spanish",no,2025-07-24_08h43.09.265,empathy_intonation_perc_control,2024.2.4,Win32,60.24096386,6782b2f4bd70e1c0a9a36590,68817205a84113384fffdfe3,68822a148b9864681c8663b9,,,,,,,,,,,,,1,,,,,,,,,,,,,,,,,,,,,,,,,,,,,,,,,,,,,78,frondoso,,,,,313.8681,315.8474,0,0,1.4527,,0,10,10,77,1,REAL,FAKE,,,,,,,,,,,,,,,,,
,,,,,,,,,6782b2f4bd70e1c0a9a36590,Spanish,13 or older,"no, only English or Spanish",no,2025-07-24_08h43.09.265,empathy_intonation_perc_control,2024.2.4,Win32,60.24096386,6782b2f4bd70e1c0a9a36590,68817205a84113384fffdfe3,68822a148b9864681c8663b9,,,,,,,,,,,,,0,,,,,,,,,,,,,,,,,,,,,,,,,,,,,,,,,,,,,63,esposante,,,,,315.8497,317.431,1,0,1.0461,,0,11,11,62,1,REAL,FAKE,,,,,,,,,,,,,,,,,
,,,,,,,,,6782b2f4bd70e1c0a9a36590,Spanish,13 or older,"no, only English or Spanish",no,2025-07-24_08h43.09.265,empathy_intonation_perc_control,2024.2.4,Win32,60.24096386,6782b2f4bd70e1c0a9a36590,68817205a84113384fffdfe3,68822a148b9864681c8663b9,,,,,,,,,,,,,1,,,,,,,,,,,,,,,,,,,,,,,,,,,,,,,,,,,,,51,candado,,,,,317.4334,319.6975,0,0,1.7304,,0,12,12,50,1,REAL,FAKE,,,,,,,,,,,,,,,,,
,,,,,,,,,6782b2f4bd70e1c0a9a36590,Spanish,13 or older,"no, only English or Spanish",no,2025-07-24_08h43.09.265,empathy_intonation_perc_control,2024.2.4,Win32,60.24096386,6782b2f4bd70e1c0a9a36590,68817205a84113384fffdfe3,68822a148b9864681c8663b9,,,,,,,,,,,,,1,,,,,,,,,,,,,,,,,,,,,,,,,,,,,,,,,,,,,69,engatusar,,,,,319.6992,321.3641,0,0,1.1313,,0,13,13,68,1,REAL,FAKE,,,,,,,,,,,,,,,,,
,,,,,,,,,6782b2f4bd70e1c0a9a36590,Spanish,13 or older,"no, only English or Spanish",no,2025-07-24_08h43.09.265,empathy_intonation_perc_control,2024.2.4,Win32,60.24096386,6782b2f4bd70e1c0a9a36590,68817205a84113384fffdfe3,68822a148b9864681c8663b9,,,,,,,,,,,,,1,,,,,,,,,,,,,,,,,,,,,,,,,,,,,,,,,,,,,39,torpe,,,,,321.3659,322.8478,1,1,0.9513,,0,14,14,38,1,REAL,FAKE,,,,,,,,,,,,,,,,,
,,,,,,,,,6782b2f4bd70e1c0a9a36590,Spanish,13 or older,"no, only English or Spanish",no,2025-07-24_08h43.09.265,empathy_intonation_perc_control,2024.2.4,Win32,60.24096386,6782b2f4bd70e1c0a9a36590,68817205a84113384fffdfe3,68822a148b9864681c8663b9,,,,,,,,,,,,,1,,,,,,,,,,,,,,,,,,,,,,,,,,,,,,,,,,,,,34,aviso,,,,,322.8499,324.2143,1,1,0.8401,,0,15,15,33,1,REAL,FAKE,,,,,,,,,,,,,,,,,
,,,,,,,,,6782b2f4bd70e1c0a9a36590,Spanish,13 or older,"no, only English or Spanish",no,2025-07-24_08h43.09.265,empathy_intonation_perc_control,2024.2.4,Win32,60.24096386,6782b2f4bd70e1c0a9a36590,68817205a84113384fffdfe3,68822a148b9864681c8663b9,,,,,,,,,,,,,1,,,,,,,,,,,,,,,,,,,,,,,,,,,,,,,,,,,,,54,fomentar,,,,,324.2173,325.6645,1,1,0.915,,0,16,16,53,1,REAL,FAKE,,,,,,,,,,,,,,,,,
,,,,,,,,,6782b2f4bd70e1c0a9a36590,Spanish,13 or older,"no, only English or Spanish",no,2025-07-24_08h43.09.265,empathy_intonation_perc_control,2024.2.4,Win32,60.24096386,6782b2f4bd70e1c0a9a36590,68817205a84113384fffdfe3,68822a148b9864681c8663b9,,,,,,,,,,,,,0,,,,,,,,,,,,,,,,,,,,,,,,,,,,,,,,,,,,,33,pauca,,,,,325.6657,327.1974,0,1,0.9982,,0,17,17,32,1,REAL,FAKE,,,,,,,,,,,,,,,,,
,,,,,,,,,6782b2f4bd70e1c0a9a36590,Spanish,13 or older,"no, only English or Spanish",no,2025-07-24_08h43.09.265,empathy_intonation_perc_control,2024.2.4,Win32,60.24096386,6782b2f4bd70e1c0a9a36590,68817205a84113384fffdfe3,68822a148b9864681c8663b9,,,,,,,,,,,,,1,,,,,,,,,,,,,,,,,,,,,,,,,,,,,,,,,,,,,14,yunque,,,,,327.1992,328.5144,1,1,0.7808,,0,18,18,13,1,REAL,FAKE,,,,,,,,,,,,,,,,,
,,,,,,,,,6782b2f4bd70e1c0a9a36590,Spanish,13 or older,"no, only English or Spanish",no,2025-07-24_08h43.09.265,empathy_intonation_perc_control,2024.2.4,Win32,60.24096386,6782b2f4bd70e1c0a9a36590,68817205a84113384fffdfe3,68822a148b9864681c8663b9,,,,,,,,,,,,,1,,,,,,,,,,,,,,,,,,,,,,,,,,,,,,,,,,,,,28,merodear,,,,,328.5167,330.2641,0,0,1.2141,,0,19,19,27,1,REAL,FAKE,,,,,,,,,,,,,,,,,
,,,,,,,,,6782b2f4bd70e1c0a9a36590,Spanish,13 or older,"no, only English or Spanish",no,2025-07-24_08h43.09.265,empathy_intonation_perc_control,2024.2.4,Win32,60.24096386,6782b2f4bd70e1c0a9a36590,68817205a84113384fffdfe3,68822a148b9864681c8663b9,,,,,,,,,,,,,1,,,,,,,,,,,,,,,,,,,,,,,,,,,,,,,,,,,,,2,pellizcar,,,,,330.2653,331.8641,0,0,1.0675,,0,20,20,1,1,REAL,FAKE,,,,,,,,,,,,,,,,,
,,,,,,,,,6782b2f4bd70e1c0a9a36590,Spanish,13 or older,"no, only English or Spanish",no,2025-07-24_08h43.09.265,empathy_intonation_perc_control,2024.2.4,Win32,60.24096386,6782b2f4bd70e1c0a9a36590,68817205a84113384fffdfe3,68822a148b9864681c8663b9,,,,,,,,,,,,,0,,,,,,,,,,,,,,,,,,,,,,,,,,,,,,,,,,,,,8,cadeña,,,,,331.8674,333.2475,1,0,0.8531,,0,21,21,7,1,REAL,FAKE,,,,,,,,,,,,,,,,,
,,,,,,,,,6782b2f4bd70e1c0a9a36590,Spanish,13 or older,"no, only English or Spanish",no,2025-07-24_08h43.09.265,empathy_intonation_perc_control,2024.2.4,Win32,60.24096386,6782b2f4bd70e1c0a9a36590,68817205a84113384fffdfe3,68822a148b9864681c8663b9,,,,,,,,,,,,,0,,,,,,,,,,,,,,,,,,,,,,,,,,,,,,,,,,,,,29,decar,,,,,333.2488,334.7307,1,0,0.9524,,0,22,22,28,1,REAL,FAKE,,,,,,,,,,,,,,,,,
,,,,,,,,,6782b2f4bd70e1c0a9a36590,Spanish,13 or older,"no, only English or Spanish",no,2025-07-24_08h43.09.265,empathy_intonation_perc_control,2024.2.4,Win32,60.24096386,6782b2f4bd70e1c0a9a36590,68817205a84113384fffdfe3,68822a148b9864681c8663b9,,,,,,,,,,,,,0,,,,,,,,,,,,,,,,,,,,,,,,,,,,,,,,,,,,,17,floroso,,,,,334.7327,336.3146,1,0,1.0477,,0,23,23,16,1,REAL,FAKE,,,,,,,,,,,,,,,,,
,,,,,,,,,6782b2f4bd70e1c0a9a36590,Spanish,13 or older,"no, only English or Spanish",no,2025-07-24_08h43.09.265,empathy_intonation_perc_control,2024.2.4,Win32,60.24096386,6782b2f4bd70e1c0a9a36590,68817205a84113384fffdfe3,68822a148b9864681c8663b9,,,,,,,,,,,,,1,,,,,,,,,,,,,,,,,,,,,,,,,,,,,,,,,,,,,45,jilguero,,,,,336.3169,338.481,0,0,1.6309,,0,24,24,44,1,REAL,FAKE,,,,,,,,,,,,,,,,,
,,,,,,,,,6782b2f4bd70e1c0a9a36590,Spanish,13 or older,"no, only English or Spanish",no,2025-07-24_08h43.09.265,empathy_intonation_perc_control,2024.2.4,Win32,60.24096386,6782b2f4bd70e1c0a9a36590,68817205a84113384fffdfe3,68822a148b9864681c8663b9,,,,,,,,,,,,,0,,,,,,,,,,,,,,,,,,,,,,,,,,,,,,,,,,,,,42,cadallo,,,,,338.4838,340.4481,0,1,1.4383,,0,25,25,41,1,REAL,FAKE,,,,,,,,,,,,,,,,,
,,,,,,,,,6782b2f4bd70e1c0a9a36590,Spanish,13 or older,"no, only English or Spanish",no,2025-07-24_08h43.09.265,empathy_intonation_perc_control,2024.2.4,Win32,60.24096386,6782b2f4bd70e1c0a9a36590,68817205a84113384fffdfe3,68822a148b9864681c8663b9,,,,,,,,,,,,,1,,,,,,,,,,,,,,,,,,,,,,,,,,,,,,,,,,,,,83,guante,,,,,340.4516,342.2811,1,1,1.2997,,0,26,26,82,1,REAL,FAKE,,,,,,,,,,,,,,,,,
,,,,,,,,,6782b2f4bd70e1c0a9a36590,Spanish,13 or older,"no, only English or Spanish",no,2025-07-24_08h43.09.265,empathy_intonation_perc_control,2024.2.4,Win32,60.24096386,6782b2f4bd70e1c0a9a36590,68817205a84113384fffdfe3,68822a148b9864681c8663b9,,,,,,,,,,,,,0,,,,,,,,,,,,,,,,,,,,,,,,,,,,,,,,,,,,,79,tropaje,,,,,342.2835,343.7975,1,0,0.984,,0,27,27,78,1,REAL,FAKE,,,,,,,,,,,,,,,,,
,,,,,,,,,6782b2f4bd70e1c0a9a36590,Spanish,13 or older,"no, only English or Spanish",no,2025-07-24_08h43.09.265,empathy_intonation_perc_control,2024.2.4,Win32,60.24096386,6782b2f4bd70e1c0a9a36590,68817205a84113384fffdfe3,68822a148b9864681c8663b9,,,,,,,,,,,,,1,,,,,,,,,,,,,,,,,,,,,,,,,,,,,,,,,,,,,88,acantilado,,,,,343.7995,345.3981,1,1,1.0651,,0,28,28,87,1,REAL,FAKE,,,,,,,,,,,,,,,,,
,,,,,,,,,6782b2f4bd70e1c0a9a36590,Spanish,13 or older,"no, only English or Spanish",no,2025-07-24_08h43.09.265,empathy_intonation_perc_control,2024.2.4,Win32,60.24096386,6782b2f4bd70e1c0a9a36590,68817205a84113384fffdfe3,68822a148b9864681c8663b9,,,,,,,,,,,,,1,,,,,,,,,,,,,,,,,,,,,,,,,,,,,,,,,,,,,75,yacer,,,,,345.4018,347.2809,0,0,1.3485,,0,29,29,74,1,REAL,FAKE,,,,,,,,,,,,,,,,,
,,,,,,,,,6782b2f4bd70e1c0a9a36590,Spanish,13 or older,"no, only English or Spanish",no,2025-07-24_08h43.09.265,empathy_intonation_perc_control,2024.2.4,Win32,60.24096386,6782b2f4bd70e1c0a9a36590,68817205a84113384fffdfe3,68822a148b9864681c8663b9,,,,,,,,,,,,,0,,,,,,,,,,,,,,,,,,,,,,,,,,,,,,,,,,,,,18,arsa,,,,,347.2833,348.7644,0,1,0.9501,,0,30,30,17,1,REAL,FAKE,,,,,,,,,,,,,,,,,
,,,,,,,,,6782b2f4bd70e1c0a9a36590,Spanish,13 or older,"no, only English or Spanish",no,2025-07-24_08h43.09.265,empathy_intonation_perc_control,2024.2.4,Win32,60.24096386,6782b2f4bd70e1c0a9a36590,68817205a84113384fffdfe3,68822a148b9864681c8663b9,,,,,,,,,,,,,1,,,,,,,,,,,,,,,,,,,,,,,,,,,,,,,,,,,,,65,bizcocho,,,,,348.7664,350.4811,0,0,1.1823,,0,31,31,64,1,REAL,FAKE,,,,,,,,,,,,,,,,,
,,,,,,,,,6782b2f4bd70e1c0a9a36590,Spanish,13 or older,"no, only English or Spanish",no,2025-07-24_08h43.09.265,empathy_intonation_perc_control,2024.2.4,Win32,60.24096386,6782b2f4bd70e1c0a9a36590,68817205a84113384fffdfe3,68822a148b9864681c8663b9,,,,,,,,,,,,,1,,,,,,,,,,,,,,,,,,,,,,,,,,,,,,,,,,,,,22,lacayo,,,,,350.4835,351.9478,0,0,0.9309,,0,32,32,21,1,REAL,FAKE,,,,,,,,,,,,,,,,,
,,,,,,,,,6782b2f4bd70e1c0a9a36590,Spanish,13 or older,"no, only English or Spanish",no,2025-07-24_08h43.09.265,empathy_intonation_perc_control,2024.2.4,Win32,60.24096386,6782b2f4bd70e1c0a9a36590,68817205a84113384fffdfe3,68822a148b9864681c8663b9,,,,,,,,,,,,,1,,,,,,,,,,,,,,,,,,,,,,,,,,,,,,,,,,,,,57,tacaño,,,,,351.9498,353.3309,1,1,0.8514,,0,33,33,56,1,REAL,FAKE,,,,,,,,,,,,,,,,,
,,,,,,,,,6782b2f4bd70e1c0a9a36590,Spanish,13 or older,"no, only English or Spanish",no,2025-07-24_08h43.09.265,empathy_intonation_perc_control,2024.2.4,Win32,60.24096386,6782b2f4bd70e1c0a9a36590,68817205a84113384fffdfe3,68822a148b9864681c8663b9,,,,,,,,,,,,,1,,,,,,,,,,,,,,,,,,,,,,,,,,,,,,,,,,,,,36,loro,,,,,353.333,355.1808,0,0,1.3141,,0,34,34,35,1,REAL,FAKE,,,,,,,,,,,,,,,,,
,,,,,,,,,6782b2f4bd70e1c0a9a36590,Spanish,13 or older,"no, only English or Spanish",no,2025-07-24_08h43.09.265,empathy_intonation_perc_control,2024.2.4,Win32,60.24096386,6782b2f4bd70e1c0a9a36590,68817205a84113384fffdfe3,68822a148b9864681c8663b9,,,,,,,,,,,,,1,,,,,,,,,,,,,,,,,,,,,,,,,,,,,,,,,,,,,24,látigo,,,,,355.1821,356.7142,1,1,0.999,,0,35,35,23,1,REAL,FAKE,,,,,,,,,,,,,,,,,
,,,,,,,,,6782b2f4bd70e1c0a9a36590,Spanish,13 or older,"no, only English or Spanish",no,2025-07-24_08h43.09.265,empathy_intonation_perc_control,2024.2.4,Win32,60.24096386,6782b2f4bd70e1c0a9a36590,68817205a84113384fffdfe3,68822a148b9864681c8663b9,,,,,,,,,,,,,1,,,,,,,,,,,,,,,,,,,,,,,,,,,,,,,,,,,,,55,nevar,,,,,356.7154,358.6312,0,0,1.3857,,0,36,36,54,1,REAL,FAKE,,,,,,,,,,,,,,,,,
,,,,,,,,,6782b2f4bd70e1c0a9a36590,Spanish,13 or older,"no, only English or Spanish",no,2025-07-24_08h43.09.265,empathy_intonation_perc_control,2024.2.4,Win32,60.24096386,6782b2f4bd70e1c0a9a36590,68817205a84113384fffdfe3,68822a148b9864681c8663b9,,,,,,,,,,,,,1,,,,,,,,,,,,,,,,,,,,,,,,,,,,,,,,,,,,,46,martillo,,,,,358.6335,360.4642,1,1,1.2969,,0,37,37,45,1,REAL,FAKE,,,,,,,,,,,,,,,,,
,,,,,,,,,6782b2f4bd70e1c0a9a36590,Spanish,13 or older,"no, only English or Spanish",no,2025-07-24_08h43.09.265,empathy_intonation_perc_control,2024.2.4,Win32,60.24096386,6782b2f4bd70e1c0a9a36590,68817205a84113384fffdfe3,68822a148b9864681c8663b9,,,,,,,,,,,,,1,,,,,,,,,,,,,,,,,,,,,,,,,,,,,,,,,,,,,25,bisagra,,,,,360.4661,362.131,0,0,1.1302,,0,38,38,24,1,REAL,FAKE,,,,,,,,,,,,,,,,,
,,,,,,,,,6782b2f4bd70e1c0a9a36590,Spanish,13 or older,"no, only English or Spanish",no,2025-07-24_08h43.09.265,empathy_intonation_perc_control,2024.2.4,Win32,60.24096386,6782b2f4bd70e1c0a9a36590,68817205a84113384fffdfe3,68822a148b9864681c8663b9,,,,,,,,,,,,,1,,,,,,,,,,,,,,,,,,,,,,,,,,,,,,,,,,,,,81,pozo,,,,,362.1324,363.4336,0,0,0.7684,,0,39,39,80,1,REAL,FAKE,,,,,,,,,,,,,,,,,
,,,,,,,,,6782b2f4bd70e1c0a9a36590,Spanish,13 or older,"no, only English or Spanish",no,2025-07-24_08h43.09.265,empathy_intonation_perc_control,2024.2.4,Win32,60.24096386,6782b2f4bd70e1c0a9a36590,68817205a84113384fffdfe3,68822a148b9864681c8663b9,,,,,,,,,,,,,1,,,,,,,,,,,,,,,,,,,,,,,,,,,,,,,,,,,,,73,hervidor,,,,,363.4349,364.887,0,0,0.9339,,0,40,40,72,1,REAL,FAKE,,,,,,,,,,,,,,,,,
,,,,,,,,,6782b2f4bd70e1c0a9a36590,Spanish,13 or older,"no, only English or Spanish",no,2025-07-24_08h43.09.265,empathy_intonation_perc_control,2024.2.4,Win32,60.24096386,6782b2f4bd70e1c0a9a36590,68817205a84113384fffdfe3,68822a148b9864681c8663b9,,,,,,,,,,,,,0,,,,,,,,,,,,,,,,,,,,,,,,,,,,,,,,,,,,,4,batillón,,,,,364.8881,366.3368,1,0,0.9171,,0,41,41,3,1,REAL,FAKE,,,,,,,,,,,,,,,,,
,,,,,,,,,6782b2f4bd70e1c0a9a36590,Spanish,13 or older,"no, only English or Spanish",no,2025-07-24_08h43.09.265,empathy_intonation_perc_control,2024.2.4,Win32,60.24096386,6782b2f4bd70e1c0a9a36590,68817205a84113384fffdfe3,68822a148b9864681c8663b9,,,,,,,,,,,,,0,,,,,,,,,,,,,,,,,,,,,,,,,,,,,,,,,,,,,84,escuto,,,,,366.338,367.9212,1,0,1.0513,,0,42,42,83,1,REAL,FAKE,,,,,,,,,,,,,,,,,
,,,,,,,,,6782b2f4bd70e1c0a9a36590,Spanish,13 or older,"no, only English or Spanish",no,2025-07-24_08h43.09.265,empathy_intonation_perc_control,2024.2.4,Win32,60.24096386,6782b2f4bd70e1c0a9a36590,68817205a84113384fffdfe3,68822a148b9864681c8663b9,,,,,,,,,,,,,1,,,,,,,,,,,,,,,,,,,,,,,,,,,,,,,,,,,,,76,atar,,,,,367.9227,369.2869,1,1,0.8333,,0,43,43,75,1,REAL,FAKE,,,,,,,,,,,,,,,,,
,,,,,,,,,6782b2f4bd70e1c0a9a36590,Spanish,13 or older,"no, only English or Spanish",no,2025-07-24_08h43.09.265,empathy_intonation_perc_control,2024.2.4,Win32,60.24096386,6782b2f4bd70e1c0a9a36590,68817205a84113384fffdfe3,68822a148b9864681c8663b9,,,,,,,,,,,,,1,,,,,,,,,,,,,,,,,,,,,,,,,,,,,,,,,,,,,44,cuchara,,,,,369.2879,370.8208,1,1,1.0013,,0,44,44,43,1,REAL,FAKE,,,,,,,,,,,,,,,,,
,,,,,,,,,6782b2f4bd70e1c0a9a36590,Spanish,13 or older,"no, only English or Spanish",no,2025-07-24_08h43.09.265,empathy_intonation_perc_control,2024.2.4,Win32,60.24096386,6782b2f4bd70e1c0a9a36590,68817205a84113384fffdfe3,68822a148b9864681c8663b9,,,,,,,,,,,,,1,,,,,,,,,,,,,,,,,,,,,,,,,,,,,,,,,,,,,3,pulmones,,,,,370.822,372.3833,0,0,1.0216,,0,45,45,2,1,REAL,FAKE,,,,,,,,,,,,,,,,,
,,,,,,,,,6782b2f4bd70e1c0a9a36590,Spanish,13 or older,"no, only English or Spanish",no,2025-07-24_08h43.09.265,empathy_intonation_perc_control,2024.2.4,Win32,60.24096386,6782b2f4bd70e1c0a9a36590,68817205a84113384fffdfe3,68822a148b9864681c8663b9,,,,,,,,,,,,,1,,,,,,,,,,,,,,,,,,,,,,,,,,,,,,,,,,,,,67,cabello,,,,,372.3851,373.8825,1,1,0.9767,,0,46,46,66,1,REAL,FAKE,,,,,,,,,,,,,,,,,
,,,,,,,,,6782b2f4bd70e1c0a9a36590,Spanish,13 or older,"no, only English or Spanish",no,2025-07-24_08h43.09.265,empathy_intonation_perc_control,2024.2.4,Win32,60.24096386,6782b2f4bd70e1c0a9a36590,68817205a84113384fffdfe3,68822a148b9864681c8663b9,,,,,,,,,,,,,0,,,,,,,,,,,,,,,,,,,,,,,,,,,,,,,,,,,,,53,vegada,,,,,373.8849,375.2213,0,1,0.8185,,0,47,47,52,1,REAL,FAKE,,,,,,,,,,,,,,,,,
,,,,,,,,,6782b2f4bd70e1c0a9a36590,Spanish,13 or older,"no, only English or Spanish",no,2025-07-24_08h43.09.265,empathy_intonation_perc_control,2024.2.4,Win32,60.24096386,6782b2f4bd70e1c0a9a36590,68817205a84113384fffdfe3,68822a148b9864681c8663b9,,,,,,,,,,,,,1,,,,,,,,,,,,,,,,,,,,,,,,,,,,,,,,,,,,,62,flaco,,,,,375.2229,376.4499,0,0,0.6887,,0,48,48,61,1,REAL,FAKE,,,,,,,,,,,,,,,,,
,,,,,,,,,6782b2f4bd70e1c0a9a36590,Spanish,13 or older,"no, only English or Spanish",no,2025-07-24_08h43.09.265,empathy_intonation_perc_control,2024.2.4,Win32,60.24096386,6782b2f4bd70e1c0a9a36590,68817205a84113384fffdfe3,68822a148b9864681c8663b9,,,,,,,,,,,,,1,,,,,,,,,,,,,,,,,,,,,,,,,,,,,,,,,,,,,80,hormiga,,,,,376.4513,377.787,0,0,0.8174,,0,49,49,79,1,REAL,FAKE,,,,,,,,,,,,,,,,,
,,,,,,,,,6782b2f4bd70e1c0a9a36590,Spanish,13 or older,"no, only English or Spanish",no,2025-07-24_08h43.09.265,empathy_intonation_perc_control,2024.2.4,Win32,60.24096386,6782b2f4bd70e1c0a9a36590,68817205a84113384fffdfe3,68822a148b9864681c8663b9,,,,,,,,,,,,,1,,,,,,,,,,,,,,,,,,,,,,,,,,,,,,,,,,,,,37,granuja,,,,,377.7881,379.4374,1,1,1.1175,,0,50,50,36,1,REAL,FAKE,,,,,,,,,,,,,,,,,
,,,,,,,,,6782b2f4bd70e1c0a9a36590,Spanish,13 or older,"no, only English or Spanish",no,2025-07-24_08h43.09.265,empathy_intonation_perc_control,2024.2.4,Win32,60.24096386,6782b2f4bd70e1c0a9a36590,68817205a84113384fffdfe3,68822a148b9864681c8663b9,,,,,,,,,,,,,1,,,,,,,,,,,,,,,,,,,,,,,,,,,,,,,,,,,,,11,cenefa,,,,,379.4385,380.937,0,0,0.9675,,0,51,51,10,1,REAL,FAKE,,,,,,,,,,,,,,,,,
,,,,,,,,,6782b2f4bd70e1c0a9a36590,Spanish,13 or older,"no, only English or Spanish",no,2025-07-24_08h43.09.265,empathy_intonation_perc_control,2024.2.4,Win32,60.24096386,6782b2f4bd70e1c0a9a36590,68817205a84113384fffdfe3,68822a148b9864681c8663b9,,,,,,,,,,,,,1,,,,,,,,,,,,,,,,,,,,,,,,,,,,,,,,,,,,,91,click the 1 key.,,,,,380.9389,382.3211,1,1,0.8509,,0,52,52,90,1,REAL,FAKE,,,,,,,,,,,,,,,,,
,,,,,,,,,6782b2f4bd70e1c0a9a36590,Spanish,13 or older,"no, only English or Spanish",no,2025-07-24_08h43.09.265,empathy_intonation_perc_control,2024.2.4,Win32,60.24096386,6782b2f4bd70e1c0a9a36590,68817205a84113384fffdfe3,68822a148b9864681c8663b9,,,,,,,,,,,,,1,,,,,,,,,,,,,,,,,,,,,,,,,,,,,,,,,,,,,56,musgo,,,,,382.3224,383.5873,0,0,0.734,,0,53,53,55,1,REAL,FAKE,,,,,,,,,,,,,,,,,
,,,,,,,,,6782b2f4bd70e1c0a9a36590,Spanish,13 or older,"no, only English or Spanish",no,2025-07-24_08h43.09.265,empathy_intonation_perc_control,2024.2.4,Win32,60.24096386,6782b2f4bd70e1c0a9a36590,68817205a84113384fffdfe3,68822a148b9864681c8663b9,,,,,,,,,,,,,0,,,,,,,,,,,,,,,,,,,,,,,,,,,,,,,,,,,,,87,grodo,,,,,383.5885,385.0044,0,1,0.8846,,0,54,54,86,1,REAL,FAKE,,,,,,,,,,,,,,,,,
,,,,,,,,,6782b2f4bd70e1c0a9a36590,Spanish,13 or older,"no, only English or Spanish",no,2025-07-24_08h43.09.265,empathy_intonation_perc_control,2024.2.4,Win32,60.24096386,6782b2f4bd70e1c0a9a36590,68817205a84113384fffdfe3,68822a148b9864681c8663b9,,,,,,,,,,,,,1,,,,,,,,,,,,,,,,,,,,,,,,,,,,,,,,,,,,,12,asesinato,,,,,385.0054,386.5834,0,0,1.0437,,0,55,55,11,1,REAL,FAKE,,,,,,,,,,,,,,,,,
,,,,,,,,,6782b2f4bd70e1c0a9a36590,Spanish,13 or older,"no, only English or Spanish",no,2025-07-24_08h43.09.265,empathy_intonation_perc_control,2024.2.4,Win32,60.24096386,6782b2f4bd70e1c0a9a36590,68817205a84113384fffdfe3,68822a148b9864681c8663b9,,,,,,,,,,,,,0,,,,,,,,,,,,,,,,,,,,,,,,,,,,,,,,,,,,,19,brecedad,,,,,386.5845,388.3833,0,1,1.2728,,0,56,56,18,1,REAL,FAKE,,,,,,,,,,,,,,,,,
,,,,,,,,,6782b2f4bd70e1c0a9a36590,Spanish,13 or older,"no, only English or Spanish",no,2025-07-24_08h43.09.265,empathy_intonation_perc_control,2024.2.4,Win32,60.24096386,6782b2f4bd70e1c0a9a36590,68817205a84113384fffdfe3,68822a148b9864681c8663b9,,,,,,,,,,,,,0,,,,,,,,,,,,,,,,,,,,,,,,,,,,,,,,,,,,,66,hacido,,,,,388.3847,390.2046,1,0,1.3011,,0,57,57,65,1,REAL,FAKE,,,,,,,,,,,,,,,,,
,,,,,,,,,6782b2f4bd70e1c0a9a36590,Spanish,13 or older,"no, only English or Spanish",no,2025-07-24_08h43.09.265,empathy_intonation_perc_control,2024.2.4,Win32,60.24096386,6782b2f4bd70e1c0a9a36590,68817205a84113384fffdfe3,68822a148b9864681c8663b9,,,,,,,,,,,,,1,,,,,,,,,,,,,,,,,,,,,,,,,,,,,,,,,,,,,71,polvoriento,,,,,390.206,392.7655,0,0,2.0271,,0,58,58,70,1,REAL,FAKE,,,,,,,,,,,,,,,,,
,,,,,,,,,6782b2f4bd70e1c0a9a36590,Spanish,13 or older,"no, only English or Spanish",no,2025-07-24_08h43.09.265,empathy_intonation_perc_control,2024.2.4,Win32,60.24096386,6782b2f4bd70e1c0a9a36590,68817205a84113384fffdfe3,68822a148b9864681c8663b9,,,,,,,,,,,,,0,,,,,,,,,,,,,,,,,,,,,,,,,,,,,,,,,,,,,1,terzo,,,,,392.7675,394.1546,0,1,0.8512,,0,59,59,0,1,REAL,FAKE,,,,,,,,,,,,,,,,,
,,,,,,,,,6782b2f4bd70e1c0a9a36590,Spanish,13 or older,"no, only English or Spanish",no,2025-07-24_08h43.09.265,empathy_intonation_perc_control,2024.2.4,Win32,60.24096386,6782b2f4bd70e1c0a9a36590,68817205a84113384fffdfe3,68822a148b9864681c8663b9,,,,,,,,,,,,,1,,,,,,,,,,,,,,,,,,,,,,,,,,,,,,,,,,,,,7,pésimo,,,,,394.156,395.9165,1,1,1.224,,0,60,60,6,1,REAL,FAKE,,,,,,,,,,,,,,,,,
,,,,,,,,,6782b2f4bd70e1c0a9a36590,Spanish,13 or older,"no, only English or Spanish",no,2025-07-24_08h43.09.265,empathy_intonation_perc_control,2024.2.4,Win32,60.24096386,6782b2f4bd70e1c0a9a36590,68817205a84113384fffdfe3,68822a148b9864681c8663b9,,,,,,,,,,,,,0,,,,,,,,,,,,,,,,,,,,,,,,,,,,,,,,,,,,,30,alardio,,,,,395.9181,397.7037,0,1,1.2678,,0,61,61,29,1,REAL,FAKE,,,,,,,,,,,,,,,,,
,,,,,,,,,6782b2f4bd70e1c0a9a36590,Spanish,13 or older,"no, only English or Spanish",no,2025-07-24_08h43.09.265,empathy_intonation_perc_control,2024.2.4,Win32,60.24096386,6782b2f4bd70e1c0a9a36590,68817205a84113384fffdfe3,68822a148b9864681c8663b9,,,,,,,,,,,,,0,,,,,,,,,,,,,,,,,,,,,,,,,,,,,,,,,,,,,16,abracer,,,,,397.7048,399.1538,1,0,0.9338,,0,62,62,15,1,REAL,FAKE,,,,,,,,,,,,,,,,,
,,,,,,,,,6782b2f4bd70e1c0a9a36590,Spanish,13 or older,"no, only English or Spanish",no,2025-07-24_08h43.09.265,empathy_intonation_perc_control,2024.2.4,Win32,60.24096386,6782b2f4bd70e1c0a9a36590,68817205a84113384fffdfe3,68822a148b9864681c8663b9,,,,,,,,,,,,,0,,,,,,,,,,,,,,,,,,,,,,,,,,,,,,,,,,,,,74,cintro,,,,,399.1549,400.5041,1,0,0.8173,,0,63,63,73,1,REAL,FAKE,,,,,,,,,,,,,,,,,
,,,,,,,,,6782b2f4bd70e1c0a9a36590,Spanish,13 or older,"no, only English or Spanish",no,2025-07-24_08h43.09.265,empathy_intonation_perc_control,2024.2.4,Win32,60.24096386,6782b2f4bd70e1c0a9a36590,68817205a84113384fffdfe3,68822a148b9864681c8663b9,,,,,,,,,,,,,1,,,,,,,,,,,,,,,,,,,,,,,,,,,,,,,,,,,,,49,ganar,,,,,400.5052,401.8703,0,0,0.834,,0,64,64,48,1,REAL,FAKE,,,,,,,,,,,,,,,,,
,,,,,,,,,6782b2f4bd70e1c0a9a36590,Spanish,13 or older,"no, only English or Spanish",no,2025-07-24_08h43.09.265,empathy_intonation_perc_control,2024.2.4,Win32,60.24096386,6782b2f4bd70e1c0a9a36590,68817205a84113384fffdfe3,68822a148b9864681c8663b9,,,,,,,,,,,,,1,,,,,,,,,,,,,,,,,,,,,,,,,,,,,,,,,,,,,6,tergiversar,,,,,401.8714,403.3538,0,0,0.9511,,0,65,65,5,1,REAL,FAKE,,,,,,,,,,,,,,,,,
,,,,,,,,,6782b2f4bd70e1c0a9a36590,Spanish,13 or older,"no, only English or Spanish",no,2025-07-24_08h43.09.265,empathy_intonation_perc_control,2024.2.4,Win32,60.24096386,6782b2f4bd70e1c0a9a36590,68817205a84113384fffdfe3,68822a148b9864681c8663b9,,,,,,,,,,,,,1,,,,,,,,,,,,,,,,,,,,,,,,,,,,,,,,,,,,,60,matar,,,,,403.3548,404.9872,1,1,1.1011,,0,66,66,59,1,REAL,FAKE,,,,,,,,,,,,,,,,,
,,,,,,,,,6782b2f4bd70e1c0a9a36590,Spanish,13 or older,"no, only English or Spanish",no,2025-07-24_08h43.09.265,empathy_intonation_perc_control,2024.2.4,Win32,60.24096386,6782b2f4bd70e1c0a9a36590,68817205a84113384fffdfe3,68822a148b9864681c8663b9,,,,,,,,,,,,,0,,,,,,,,,,,,,,,,,,,,,,,,,,,,,,,,,,,,,35,rompido,,,,,404.9883,406.5705,1,0,1.0509,,0,67,67,34,1,REAL,FAKE,,,,,,,,,,,,,,,,,
,,,,,,,,,6782b2f4bd70e1c0a9a36590,Spanish,13 or older,"no, only English or Spanish",no,2025-07-24_08h43.09.265,empathy_intonation_perc_control,2024.2.4,Win32,60.24096386,6782b2f4bd70e1c0a9a36590,68817205a84113384fffdfe3,68822a148b9864681c8663b9,,,,,,,,,,,,,0,,,,,,,,,,,,,,,,,,,,,,,,,,,,,,,,,,,,,70,temblo,,,,,406.5717,408.2216,0,1,1.1184,,0,68,68,69,1,REAL,FAKE,,,,,,,,,,,,,,,,,
,,,,,,,,,6782b2f4bd70e1c0a9a36590,Spanish,13 or older,"no, only English or Spanish",no,2025-07-24_08h43.09.265,empathy_intonation_perc_control,2024.2.4,Win32,60.24096386,6782b2f4bd70e1c0a9a36590,68817205a84113384fffdfe3,68822a148b9864681c8663b9,,,,,,,,,,,,,0,,,,,,,,,,,,,,,,,,,,,,,,,,,,,,,,,,,,,23,lampera,,,,,408.223,409.5192,1,0,0.7657,,0,69,69,22,1,REAL,FAKE,,,,,,,,,,,,,,,,,
,,,,,,,,,6782b2f4bd70e1c0a9a36590,Spanish,13 or older,"no, only English or Spanish",no,2025-07-24_08h43.09.265,empathy_intonation_perc_control,2024.2.4,Win32,60.24096386,6782b2f4bd70e1c0a9a36590,68817205a84113384fffdfe3,68822a148b9864681c8663b9,,,,,,,,,,,,,1,,,,,,,,,,,,,,,,,,,,,,,,,,,,,,,,,,,,,40,alfombra,,,,,409.5204,411.1363,1,1,1.0828,,0,70,70,39,1,REAL,FAKE,,,,,,,,,,,,,,,,,
,,,,,,,,,6782b2f4bd70e1c0a9a36590,Spanish,13 or older,"no, only English or Spanish",no,2025-07-24_08h43.09.265,empathy_intonation_perc_control,2024.2.4,Win32,60.24096386,6782b2f4bd70e1c0a9a36590,68817205a84113384fffdfe3,68822a148b9864681c8663b9,,,,,,,,,,,,,1,,,,,,,,,,,,,,,,,,,,,,,,,,,,,,,,,,,,,9,hacha,,,,,411.1372,412.3662,1,1,0.6896,,0,71,71,8,1,REAL,FAKE,,,,,,,,,,,,,,,,,
,,,,,,,,,6782b2f4bd70e1c0a9a36590,Spanish,13 or older,"no, only English or Spanish",no,2025-07-24_08h43.09.265,empathy_intonation_perc_control,2024.2.4,Win32,60.24096386,6782b2f4bd70e1c0a9a36590,68817205a84113384fffdfe3,68822a148b9864681c8663b9,,,,,,,,,,,,,1,,,,,,,,,,,,,,,,,,,,,,,,,,,,,,,,,,,,,41,rebuscar,,,,,412.3676,413.9207,0,0,1.0343,,0,72,72,40,1,REAL,FAKE,,,,,,,,,,,,,,,,,
,,,,,,,,,6782b2f4bd70e1c0a9a36590,Spanish,13 or older,"no, only English or Spanish",no,2025-07-24_08h43.09.265,empathy_intonation_perc_control,2024.2.4,Win32,60.24096386,6782b2f4bd70e1c0a9a36590,68817205a84113384fffdfe3,68822a148b9864681c8663b9,,,,,,,,,,,,,0,,,,,,,,,,,,,,,,,,,,,,,,,,,,,,,,,,,,,21,capillo,,,,,413.922,415.221,1,0,0.7679,,0,73,73,20,1,REAL,FAKE,,,,,,,,,,,,,,,,,
,,,,,,,,,6782b2f4bd70e1c0a9a36590,Spanish,13 or older,"no, only English or Spanish",no,2025-07-24_08h43.09.265,empathy_intonation_perc_control,2024.2.4,Win32,60.24096386,6782b2f4bd70e1c0a9a36590,68817205a84113384fffdfe3,68822a148b9864681c8663b9,,,,,,,,,,,,,1,,,,,,,,,,,,,,,,,,,,,,,,,,,,,,,,,,,,,68,alegre,,,,,415.2221,416.3863,1,1,0.6329,,0,74,74,67,1,REAL,FAKE,,,,,,,,,,,,,,,,,
,,,,,,,,,6782b2f4bd70e1c0a9a36590,Spanish,13 or older,"no, only English or Spanish",no,2025-07-24_08h43.09.265,empathy_intonation_perc_control,2024.2.4,Win32,60.24096386,6782b2f4bd70e1c0a9a36590,68817205a84113384fffdfe3,68822a148b9864681c8663b9,,,,,,,,,,,,,0,,,,,,,,,,,,,,,,,,,,,,,,,,,,,,,,,,,,,58,plaudir,,,,,416.388,417.9313,0,1,1.0191,,0,75,75,57,1,REAL,FAKE,,,,,,,,,,,,,,,,,
,,,,,,,,,6782b2f4bd70e1c0a9a36590,Spanish,13 or older,"no, only English or Spanish",no,2025-07-24_08h43.09.265,empathy_intonation_perc_control,2024.2.4,Win32,60.24096386,6782b2f4bd70e1c0a9a36590,68817205a84113384fffdfe3,68822a148b9864681c8663b9,,,,,,,,,,,,,1,,,,,,,,,,,,,,,,,,,,,,,,,,,,,,,,,,,,,90,clavel,,,,,417.9342,419.3821,1,1,0.9245,,0,76,76,89,1,REAL,FAKE,,,,,,,,,,,,,,,,,
,,,,,,,,,6782b2f4bd70e1c0a9a36590,Spanish,13 or older,"no, only English or Spanish",no,2025-07-24_08h43.09.265,empathy_intonation_perc_control,2024.2.4,Win32,60.24096386,6782b2f4bd70e1c0a9a36590,68817205a84113384fffdfe3,68822a148b9864681c8663b9,,,,,,,,,,,,,1,,,,,,,,,,,,,,,,,,,,,,,,,,,,,,,,,,,,,52,camisa,,,,,419.3855,420.7645,1,1,0.8502,,0,77,77,51,1,REAL,FAKE,,,,,,,,,,,,,,,,,
,,,,,,,,,6782b2f4bd70e1c0a9a36590,Spanish,13 or older,"no, only English or Spanish",no,2025-07-24_08h43.09.265,empathy_intonation_perc_control,2024.2.4,Win32,60.24096386,6782b2f4bd70e1c0a9a36590,68817205a84113384fffdfe3,68822a148b9864681c8663b9,,,,,,,,,,,,,0,,,,,,,,,,,,,,,,,,,,,,,,,,,,,,,,,,,,,32,fatacidad,,,,,420.7665,422.2312,0,1,0.9352,,0,78,78,31,1,REAL,FAKE,,,,,,,,,,,,,,,,,
,,,,,,,,,6782b2f4bd70e1c0a9a36590,Spanish,13 or older,"no, only English or Spanish",no,2025-07-24_08h43.09.265,empathy_intonation_perc_control,2024.2.4,Win32,60.24096386,6782b2f4bd70e1c0a9a36590,68817205a84113384fffdfe3,68822a148b9864681c8663b9,,,,,,,,,,,,,1,,,,,,,,,,,,,,,,,,,,,,,,,,,,,,,,,,,,,61,seda,,,,,422.2336,423.5315,1,1,0.774,,0,79,79,60,1,REAL,FAKE,,,,,,,,,,,,,,,,,
,,,,,,,,,6782b2f4bd70e1c0a9a36590,Spanish,13 or older,"no, only English or Spanish",no,2025-07-24_08h43.09.265,empathy_intonation_perc_control,2024.2.4,Win32,60.24096386,6782b2f4bd70e1c0a9a36590,68817205a84113384fffdfe3,68822a148b9864681c8663b9,,,,,,,,,,,,,1,,,,,,,,,,,,,,,,,,,,,,,,,,,,,,,,,,,,,89,prisa,,,,,423.5338,424.9145,1,1,0.8528,,0,80,80,88,1,REAL,FAKE,,,,,,,,,,,,,,,,,
,,,,,,,,,6782b2f4bd70e1c0a9a36590,Spanish,13 or older,"no, only English or Spanish",no,2025-07-24_08h43.09.265,empathy_intonation_perc_control,2024.2.4,Win32,60.24096386,6782b2f4bd70e1c0a9a36590,68817205a84113384fffdfe3,68822a148b9864681c8663b9,,,,,,,,,,,,,1,,,,,,,,,,,,,,,,,,,,,,,,,,,,,,,,,,,,,86,barato,,,,,424.9161,426.598,0,0,1.1478,,0,81,81,85,1,REAL,FAKE,,,,,,,,,,,,,,,,,
,,,,,,,,,6782b2f4bd70e1c0a9a36590,Spanish,13 or older,"no, only English or Spanish",no,2025-07-24_08h43.09.265,empathy_intonation_perc_control,2024.2.4,Win32,60.24096386,6782b2f4bd70e1c0a9a36590,68817205a84113384fffdfe3,68822a148b9864681c8663b9,,,,,,,,,,,,,1,,,,,,,,,,,,,,,,,,,,,,,,,,,,,,,,,,,,,85,laúd,,,,,426.6007,428.0645,0,0,0.9344,,0,82,82,84,1,REAL,FAKE,,,,,,,,,,,,,,,,,
,,,,,,,,,6782b2f4bd70e1c0a9a36590,Spanish,13 or older,"no, only English or Spanish",no,2025-07-24_08h43.09.265,empathy_intonation_perc_control,2024.2.4,Win32,60.24096386,6782b2f4bd70e1c0a9a36590,68817205a84113384fffdfe3,68822a148b9864681c8663b9,,,,,,,,,,,,,0,,,,,,,,,,,,,,,,,,,,,,,,,,,,,,,,,,,,,50,flamida,,,,,428.066,429.4643,1,0,0.8652,,0,83,83,49,1,REAL,FAKE,,,,,,,,,,,,,,,,,
,,,,,,,,,6782b2f4bd70e1c0a9a36590,Spanish,13 or older,"no, only English or Spanish",no,2025-07-24_08h43.09.265,empathy_intonation_perc_control,2024.2.4,Win32,60.24096386,6782b2f4bd70e1c0a9a36590,68817205a84113384fffdfe3,68822a148b9864681c8663b9,,,,,,,,,,,,,1,,,,,,,,,,,,,,,,,,,,,,,,,,,,,,,,,,,,,59,besar,,,,,429.4655,430.7146,0,0,0.7132,,0,84,84,58,1,REAL,FAKE,,,,,,,,,,,,,,,,,
,,,,,,,,,6782b2f4bd70e1c0a9a36590,Spanish,13 or older,"no, only English or Spanish",no,2025-07-24_08h43.09.265,empathy_intonation_perc_control,2024.2.4,Win32,60.24096386,6782b2f4bd70e1c0a9a36590,68817205a84113384fffdfe3,68822a148b9864681c8663b9,,,,,,,,,,,,,1,,,,,,,,,,,,,,,,,,,,,,,,,,,,,,,,,,,,,77,tiburón,,,,,430.7165,432.1162,1,1,0.8637,,0,85,85,76,1,REAL,FAKE,,,,,,,,,,,,,,,,,
,,,,,,,,,6782b2f4bd70e1c0a9a36590,Spanish,13 or older,"no, only English or Spanish",no,2025-07-24_08h43.09.265,empathy_intonation_perc_control,2024.2.4,Win32,60.24096386,6782b2f4bd70e1c0a9a36590,68817205a84113384fffdfe3,68822a148b9864681c8663b9,,,,,,,,,,,,,0,,,,,,,,,,,,,,,,,,,,,,,,,,,,,,,,,,,,,27,acutación,,,,,432.1192,433.6477,0,1,1.0031,,0,86,86,26,1,REAL,FAKE,,,,,,,,,,,,,,,,,
,,,,,,,,,6782b2f4bd70e1c0a9a36590,Spanish,13 or older,"no, only English or Spanish",no,2025-07-24_08h43.09.265,empathy_intonation_perc_control,2024.2.4,Win32,60.24096386,6782b2f4bd70e1c0a9a36590,68817205a84113384fffdfe3,68822a148b9864681c8663b9,,,,,,,,,,,,,1,,,,,,,,,,,,,,,,,,,,,,,,,,,,,,,,,,,,,31,pandilla,,,,,433.6489,434.9813,0,0,0.7978,,0,87,87,30,1,REAL,FAKE,,,,,,,,,,,,,,,,,
,,,,,,,,,6782b2f4bd70e1c0a9a36590,Spanish,13 or older,"no, only English or Spanish",no,2025-07-24_08h43.09.265,empathy_intonation_perc_control,2024.2.4,Win32,60.24096386,6782b2f4bd70e1c0a9a36590,68817205a84113384fffdfe3,68822a148b9864681c8663b9,,,,,,,,,,,,,1,,,,,,,,,,,,,,,,,,,,,,,,,,,,,,,,,,,,,13,helar,,,,,434.9837,436.6647,0,0,1.1462,,0,88,88,12,1,REAL,FAKE,,,,,,,,,,,,,,,,,
,,,,,,,,,6782b2f4bd70e1c0a9a36590,Spanish,13 or older,"no, only English or Spanish",no,2025-07-24_08h43.09.265,empathy_intonation_perc_control,2024.2.4,Win32,60.24096386,6782b2f4bd70e1c0a9a36590,68817205a84113384fffdfe3,68822a148b9864681c8663b9,,,,,,,,,,,,,0,,,,,,,,,,,,,,,,,,,,,,,,,,,,,,,,,,,,,47,cartinar,,,,,436.6662,438.0646,0,1,0.8641,,0,89,89,46,1,REAL,FAKE,,,,,,,,,,,,,,,,,
,,,,,,,,,6782b2f4bd70e1c0a9a36590,Spanish,13 or older,"no, only English or Spanish",no,2025-07-24_08h43.09.265,empathy_intonation_perc_control,2024.2.4,Win32,60.24096386,6782b2f4bd70e1c0a9a36590,68817205a84113384fffdfe3,68822a148b9864681c8663b9,,,,,,,,,,,,,1,,,,,,,,,,,,,,,,,,,,,,,,,,,,,,,,,,,,,38,estornudar,,,,,438.0662,439.5482,0,0,0.9535,,0,90,90,37,1,REAL,FAKE,,,,,,,,,,,,,,,,,
,,,,,,,,,6782b2f4bd70e1c0a9a36590,Spanish,13 or older,"no, only English or Spanish",no,2025-07-24_08h43.09.265,empathy_intonation_perc_control,2024.2.4,Win32,60.24096386,6782b2f4bd70e1c0a9a36590,68817205a84113384fffdfe3,68822a148b9864681c8663b9,,,,,,,,,,,,,1,,,,,,,,,,,,,,,,,,,,,,,,,,,,,,,,,,,,,26,secuestro,,,,,439.5513,441.0982,1,1,1.0163,,0,91,91,25,1,REAL,FAKE,,,,,,,,,,,,,,,,,
,,,,,,,,,6782b2f4bd70e1c0a9a36590,Spanish,13 or older,"no, only English or Spanish",no,2025-07-24_08h43.09.265,empathy_intonation_perc_control,2024.2.4,Win32,60.24096386,6782b2f4bd70e1c0a9a36590,68817205a84113384fffdfe3,68822a148b9864681c8663b9,,,,,,,,,,,,,,,,,,,,,,,,,,,,,,,,,,,,,,,,,,,,,,,,,,,,,,,,,,,,,,,,,,,,,441.0987,449.3482,,,,,,,,,,,,,,,
,,,,,,,,,6782b2f4bd70e1c0a9a36590,Spanish,13 or older,"no, only English or Spanish",no,2025-07-24_08h43.09.265,empathy_intonation_perc_control,2024.2.4,Win32,60.24096386,6782b2f4bd70e1c0a9a36590,68817205a84113384fffdfe3,68822a148b9864681c8663b9,,,,,,,,,,,,,,,,,,,,,,,,,,,1,,,,,,,,,,,,,,,,,,,,,,,,,,,,,,,,,,,,,,,,,,,,449.383,454.0148,strongly agree,0,0,0,0,1,I can easily tell if someone else wants to enter a conversation.,1,0,1,0,,
,,,,,,,,,6782b2f4bd70e1c0a9a36590,Spanish,13 or older,"no, only English or Spanish",no,2025-07-24_08h43.09.265,empathy_intonation_perc_control,2024.2.4,Win32,60.24096386,6782b2f4bd70e1c0a9a36590,68817205a84113384fffdfe3,68822a148b9864681c8663b9,,,,,,,,,,,,,,,,,,,,,,,,,,,2,,,,,,,,,,,,,,,,,,,,,,,,,,,,,,,,,,,,,,,,,,,,454.0202,458.048,slightly disagree,0,1,1,1,1,I prefer animals to humans.,0,1,0,0,,
,,,,,,,,,6782b2f4bd70e1c0a9a36590,Spanish,13 or older,"no, only English or Spanish",no,2025-07-24_08h43.09.265,empathy_intonation_perc_control,2024.2.4,Win32,60.24096386,6782b2f4bd70e1c0a9a36590,68817205a84113384fffdfe3,68822a148b9864681c8663b9,,,,,,,,,,,,,,,,,,,,,,,,,,,3,,,,,,,,,,,,,,,,,,,,,,,,,,,,,,,,,,,,,,,,,,,,458.0541,461.2645,slightly disagree,0,2,2,2,1,I try to keep up with the current trends and fashions.,0,1,0,0,,
,,,,,,,,,6782b2f4bd70e1c0a9a36590,Spanish,13 or older,"no, only English or Spanish",no,2025-07-24_08h43.09.265,empathy_intonation_perc_control,2024.2.4,Win32,60.24096386,6782b2f4bd70e1c0a9a36590,68817205a84113384fffdfe3,68822a148b9864681c8663b9,,,,,,,,,,,,,,,,,,,,,,,,,,,4,,,,,,,,,,,,,,,,,,,,,,,,,,,,,,,,,,,,,,,,,,,,461.2697,469.2838,slightly agree,0,3,3,3,1,"I find it difficult to explain to others things that I understand easily,   when they don't understand it first time.",1,0,0,1,,
,,,,,,,,,6782b2f4bd70e1c0a9a36590,Spanish,13 or older,"no, only English or Spanish",no,2025-07-24_08h43.09.265,empathy_intonation_perc_control,2024.2.4,Win32,60.24096386,6782b2f4bd70e1c0a9a36590,68817205a84113384fffdfe3,68822a148b9864681c8663b9,,,,,,,,,,,,,,,,,,,,,,,,,,,5,,,,,,,,,,,,,,,,,,,,,,,,,,,,,,,,,,,,,,,,,,,,469.2854,471.2491,slightly disagree,0,4,4,4,1,I dream most nights.,0,1,0,0,,
,,,,,,,,,6782b2f4bd70e1c0a9a36590,Spanish,13 or older,"no, only English or Spanish",no,2025-07-24_08h43.09.265,empathy_intonation_perc_control,2024.2.4,Win32,60.24096386,6782b2f4bd70e1c0a9a36590,68817205a84113384fffdfe3,68822a148b9864681c8663b9,,,,,,,,,,,,,,,,,,,,,,,,,,,6,,,,,,,,,,,,,,,,,,,,,,,,,,,,,,,,,,,,,,,,,,,,471.2521,474.1741,strongly agree,0,5,5,5,1,I really enjoy caring for other people.,1,0,1,0,,
,,,,,,,,,6782b2f4bd70e1c0a9a36590,Spanish,13 or older,"no, only English or Spanish",no,2025-07-24_08h43.09.265,empathy_intonation_perc_control,2024.2.4,Win32,60.24096386,6782b2f4bd70e1c0a9a36590,68817205a84113384fffdfe3,68822a148b9864681c8663b9,,,,,,,,,,,,,,,,,,,,,,,,,,,7,,,,,,,,,,,,,,,,,,,,,,,,,,,,,,,,,,,,,,,,,,,,474.1767,476.8364,slightly agree,0,6,6,6,1,I try to solve my own problems rather than discussing them with others.,0,1,0,0,,
,,,,,,,,,6782b2f4bd70e1c0a9a36590,Spanish,13 or older,"no, only English or Spanish",no,2025-07-24_08h43.09.265,empathy_intonation_perc_control,2024.2.4,Win32,60.24096386,6782b2f4bd70e1c0a9a36590,68817205a84113384fffdfe3,68822a148b9864681c8663b9,,,,,,,,,,,,,,,,,,,,,,,,,,,8,,,,,,,,,,,,,,,,,,,,,,,,,,,,,,,,,,,,,,,,,,,,476.8384,480.4112,strongly disagree,0,7,7,7,1,I find it hard to know what to do in a social situation.,1,0,0,1,,
,,,,,,,,,6782b2f4bd70e1c0a9a36590,Spanish,13 or older,"no, only English or Spanish",no,2025-07-24_08h43.09.265,empathy_intonation_perc_control,2024.2.4,Win32,60.24096386,6782b2f4bd70e1c0a9a36590,68817205a84113384fffdfe3,68822a148b9864681c8663b9,,,,,,,,,,,,,,,,,,,,,,,,,,,9,,,,,,,,,,,,,,,,,,,,,,,,,,,,,,,,,,,,,,,,,,,,480.4128,483.7477,slightly disagree,0,8,8,8,1,I am at my best first thing in the morning.,0,1,0,0,,
,,,,,,,,,6782b2f4bd70e1c0a9a36590,Spanish,13 or older,"no, only English or Spanish",no,2025-07-24_08h43.09.265,empathy_intonation_perc_control,2024.2.4,Win32,60.24096386,6782b2f4bd70e1c0a9a36590,68817205a84113384fffdfe3,68822a148b9864681c8663b9,,,,,,,,,,,,,,,,,,,,,,,,,,,10,,,,,,,,,,,,,,,,,,,,,,,,,,,,,,,,,,,,,,,,,,,,483.7524,486.6569,strongly disagree,0,9,9,9,1,People often tell me that I went too far in driving my point home in a discussion.,1,0,0,1,,
,,,,,,,,,6782b2f4bd70e1c0a9a36590,Spanish,13 or older,"no, only English or Spanish",no,2025-07-24_08h43.09.265,empathy_intonation_perc_control,2024.2.4,Win32,60.24096386,6782b2f4bd70e1c0a9a36590,68817205a84113384fffdfe3,68822a148b9864681c8663b9,,,,,,,,,,,,,,,,,,,,,,,,,,,11,,,,,,,,,,,,,,,,,,,,,,,,,,,,,,,,,,,,,,,,,,,,486.6588,489.9142,strongly disagree,0,10,10,10,1,It doesn't bother me too much if I am late meeting a friend.,1,0,0,1,,
,,,,,,,,,6782b2f4bd70e1c0a9a36590,Spanish,13 or older,"no, only English or Spanish",no,2025-07-24_08h43.09.265,empathy_intonation_perc_control,2024.2.4,Win32,60.24096386,6782b2f4bd70e1c0a9a36590,68817205a84113384fffdfe3,68822a148b9864681c8663b9,,,,,,,,,,,,,,,,,,,,,,,,,,,12,,,,,,,,,,,,,,,,,,,,,,,,,,,,,,,,,,,,,,,,,,,,489.9194,492.9566,strongly disagree,0,11,11,11,1,"Friendships and relationships are just too difficult, so I tend not to 
  bother with them.",1,0,0,1,,
,,,,,,,,,6782b2f4bd70e1c0a9a36590,Spanish,13 or older,"no, only English or Spanish",no,2025-07-24_08h43.09.265,empathy_intonation_perc_control,2024.2.4,Win32,60.24096386,6782b2f4bd70e1c0a9a36590,68817205a84113384fffdfe3,68822a148b9864681c8663b9,,,,,,,,,,,,,,,,,,,,,,,,,,,13,,,,,,,,,,,,,,,,,,,,,,,,,,,,,,,,,,,,,,,,,,,,492.9582,499.3814,slightly agree,0,12,12,12,1,"I would never break a law, no matter how minor.",0,1,0,0,,
,,,,,,,,,6782b2f4bd70e1c0a9a36590,Spanish,13 or older,"no, only English or Spanish",no,2025-07-24_08h43.09.265,empathy_intonation_perc_control,2024.2.4,Win32,60.24096386,6782b2f4bd70e1c0a9a36590,68817205a84113384fffdfe3,68822a148b9864681c8663b9,,,,,,,,,,,,,,,,,,,,,,,,,,,14,,,,,,,,,,,,,,,,,,,,,,,,,,,,,,,,,,,,,,,,,,,,499.3863,503.3405,strongly disagree,0,13,13,13,1,I often find it difficult to judge if something is rude or polite.,1,0,0,1,,
,,,,,,,,,6782b2f4bd70e1c0a9a36590,Spanish,13 or older,"no, only English or Spanish",no,2025-07-24_08h43.09.265,empathy_intonation_perc_control,2024.2.4,Win32,60.24096386,6782b2f4bd70e1c0a9a36590,68817205a84113384fffdfe3,68822a148b9864681c8663b9,,,,,,,,,,,,,,,,,,,,,,,,,,,15,,,,,,,,,,,,,,,,,,,,,,,,,,,,,,,,,,,,,,,,,,,,503.3429,506.8366,strongly disagree,0,14,14,14,1,"In a conversation, I tend to focus on my own thoughts rather than on what 
  my listener might be thinking.",1,0,0,1,,
,,,,,,,,,6782b2f4bd70e1c0a9a36590,Spanish,13 or older,"no, only English or Spanish",no,2025-07-24_08h43.09.265,empathy_intonation_perc_control,2024.2.4,Win32,60.24096386,6782b2f4bd70e1c0a9a36590,68817205a84113384fffdfe3,68822a148b9864681c8663b9,,,,,,,,,,,,,,,,,,,,,,,,,,,16,,,,,,,,,,,,,,,,,,,,,,,,,,,,,,,,,,,,,,,,,,,,506.8382,511.1362,strongly disagree,0,15,15,15,1,I prefer practical jokes to verbal humor.,0,1,0,0,,
,,,,,,,,,6782b2f4bd70e1c0a9a36590,Spanish,13 or older,"no, only English or Spanish",no,2025-07-24_08h43.09.265,empathy_intonation_perc_control,2024.2.4,Win32,60.24096386,6782b2f4bd70e1c0a9a36590,68817205a84113384fffdfe3,68822a148b9864681c8663b9,,,,,,,,,,,,,,,,,,,,,,,,,,,17,,,,,,,,,,,,,,,,,,,,,,,,,,,,,,,,,,,,,,,,,,,,511.138,513.9151,strongly disagree,0,16,16,16,1,I live life for today rather than the future.,0,1,0,0,,
,,,,,,,,,6782b2f4bd70e1c0a9a36590,Spanish,13 or older,"no, only English or Spanish",no,2025-07-24_08h43.09.265,empathy_intonation_perc_control,2024.2.4,Win32,60.24096386,6782b2f4bd70e1c0a9a36590,68817205a84113384fffdfe3,68822a148b9864681c8663b9,,,,,,,,,,,,,,,,,,,,,,,,,,,18,,,,,,,,,,,,,,,,,,,,,,,,,,,,,,,,,,,,,,,,,,,,513.9201,516.5145,strongly disagree,0,17,17,17,1,"When I was a child, I enjoyed cutting up worms to see what would happen.",1,0,0,1,,
,,,,,,,,,6782b2f4bd70e1c0a9a36590,Spanish,13 or older,"no, only English or Spanish",no,2025-07-24_08h43.09.265,empathy_intonation_perc_control,2024.2.4,Win32,60.24096386,6782b2f4bd70e1c0a9a36590,68817205a84113384fffdfe3,68822a148b9864681c8663b9,,,,,,,,,,,,,,,,,,,,,,,,,,,19,,,,,,,,,,,,,,,,,,,,,,,,,,,,,,,,,,,,,,,,,,,,516.5188,520.7716,strongly agree,0,18,18,18,1,I can pick up quickly if someone says one thing but means another.,1,0,1,0,,
,,,,,,,,,6782b2f4bd70e1c0a9a36590,Spanish,13 or older,"no, only English or Spanish",no,2025-07-24_08h43.09.265,empathy_intonation_perc_control,2024.2.4,Win32,60.24096386,6782b2f4bd70e1c0a9a36590,68817205a84113384fffdfe3,68822a148b9864681c8663b9,,,,,,,,,,,,,,,,,,,,,,,,,,,20,,,,,,,,,,,,,,,,,,,,,,,,,,,,,,,,,,,,,,,,,,,,520.7733,523.8811,slightly agree,0,19,19,19,1,I tend to have very strong opinions about morality.,0,1,0,0,,
,,,,,,,,,6782b2f4bd70e1c0a9a36590,Spanish,13 or older,"no, only English or Spanish",no,2025-07-24_08h43.09.265,empathy_intonation_perc_control,2024.2.4,Win32,60.24096386,6782b2f4bd70e1c0a9a36590,68817205a84113384fffdfe3,68822a148b9864681c8663b9,,,,,,,,,,,,,,,,,,,,,,,,,,,21,,,,,,,,,,,,,,,,,,,,,,,,,,,,,,,,,,,,,,,,,,,,523.8855,526.6476,strongly disagree,0,20,20,20,1,It is hard for me to see why some things upset people so much.,1,0,0,1,,
,,,,,,,,,6782b2f4bd70e1c0a9a36590,Spanish,13 or older,"no, only English or Spanish",no,2025-07-24_08h43.09.265,empathy_intonation_perc_control,2024.2.4,Win32,60.24096386,6782b2f4bd70e1c0a9a36590,68817205a84113384fffdfe3,68822a148b9864681c8663b9,,,,,,,,,,,,,,,,,,,,,,,,,,,22,,,,,,,,,,,,,,,,,,,,,,,,,,,,,,,,,,,,,,,,,,,,526.6524,528.806,strongly agree,0,21,21,21,1,I find it easy to put myself in somebody else's shoes.,1,0,1,0,,
,,,,,,,,,6782b2f4bd70e1c0a9a36590,Spanish,13 or older,"no, only English or Spanish",no,2025-07-24_08h43.09.265,empathy_intonation_perc_control,2024.2.4,Win32,60.24096386,6782b2f4bd70e1c0a9a36590,68817205a84113384fffdfe3,68822a148b9864681c8663b9,,,,,,,,,,,,,,,,,,,,,,,,,,,23,,,,,,,,,,,,,,,,,,,,,,,,,,,,,,,,,,,,,,,,,,,,528.8079,532.8363,slightly disagree,0,22,22,22,1,I think that good manners are the most important thing a parent can teach their child.,0,1,0,0,,
,,,,,,,,,6782b2f4bd70e1c0a9a36590,Spanish,13 or older,"no, only English or Spanish",no,2025-07-24_08h43.09.265,empathy_intonation_perc_control,2024.2.4,Win32,60.24096386,6782b2f4bd70e1c0a9a36590,68817205a84113384fffdfe3,68822a148b9864681c8663b9,,,,,,,,,,,,,,,,,,,,,,,,,,,24,,,,,,,,,,,,,,,,,,,,,,,,,,,,,,,,,,,,,,,,,,,,532.8379,536.7643,strongly disagree,0,23,23,23,1,I like to do things on the spur of the moment.,0,1,0,0,,
,,,,,,,,,6782b2f4bd70e1c0a9a36590,Spanish,13 or older,"no, only English or Spanish",no,2025-07-24_08h43.09.265,empathy_intonation_perc_control,2024.2.4,Win32,60.24096386,6782b2f4bd70e1c0a9a36590,68817205a84113384fffdfe3,68822a148b9864681c8663b9,,,,,,,,,,,,,,,,,,,,,,,,,,,25,,,,,,,,,,,,,,,,,,,,,,,,,,,,,,,,,,,,,,,,,,,,536.7682,539.4234,strongly agree,0,24,24,24,1,I am good at predicting how someone will feel.,1,0,1,0,,
