instructions_2afc.started,instructions_2afc.stopped,instructions_2afc_loop.thisRepN,instructions_2afc_loop.thisTrialN,instructions_2afc_loop.thisN,instructions_2afc_loop.thisIndex,instructions_2afc_loop.ran,instructions_text,continue_text,participant_id,"What variety of Spanish are you most familiar with? (e.g., Peruvian, Spanish, Mexican)",At what age did you begin learning Spanish?,Are you proficient in any languages other than English/Spanish?,"Are you familiar with Caribbean (e.g., Caribbean, Puerto Rican) or Galician Spanish?",date,expName,psychopyVersion,OS,frameRate,id,study_id,session,practice_2afc.started,practice_2afc.stopped,key_resp_2afc_practice.keys,key_resp_2afc_practice.corr,key_resp_2afc_practice.rt,key_resp_2afc_practice.duration,trials_2afc_practice_loop.thisRepN,trials_2afc_practice_loop.thisTrialN,trials_2afc_practice_loop.thisN,trials_2afc_practice_loop.thisIndex,trials_2afc_practice_loop.ran,path,correct_response,check_2afc.started,check_2afc.stopped,trial_2afc.started,trial_2afc.stopped,key_resp_2afc_trial.keys,key_resp_2afc_trial.corr,key_resp_2afc_trial.rt,key_resp_2afc_trial.duration,trials_2afc_loop.thisRepN,trials_2afc_loop.thisTrialN,trials_2afc_loop.thisN,trials_2afc_loop.thisIndex,trials_2afc_loop.ran,item_num,target,variety,instructions_lextale.started,instructions_lextale.stopped,instructions_lextale_loop.thisRepN,instructions_lextale_loop.thisTrialN,instructions_lextale_loop.thisN,instructions_lextale_loop.thisIndex,instructions_lextale_loop.ran,practice_lextale.started,practice_lextale.stopped,key_resp_lextale_practice.keys,key_resp_lextale_practice.corr,key_resp_lextale_practice.rt,key_resp_lextale_practice.duration,practice_feedback_lextale.started,practice_feedback_lextale.stopped,trials_lextale_practice_loop.thisRepN,trials_lextale_practice_loop.thisTrialN,trials_lextale_practice_loop.thisN,trials_lextale_practice_loop.thisIndex,trials_lextale_practice_loop.ran,stim,word,prac_button_real,prac_button_false,check_lextale.started,check_lextale.stopped,trial_lextale.started,trial_lextale.stopped,key_resp_lextale_trial.keys,key_resp_lextale_trial.corr,key_resp_lextale_trial.rt,key_resp_lextale_trial.duration,trials_lextale_loop.thisRepN,trials_lextale_loop.thisTrialN,trials_lextale_loop.thisN,trials_lextale_loop.thisIndex,trials_lextale_loop.ran,button_real,button_false,instructions_eq.started,instructions_eq.stopped,trial_eq.started,trial_eq.stopped,slider_eq_trial.response,trials_eq_loop.thisRepN,trials_eq_loop.thisTrialN,trials_eq_loop.thisN,trials_eq_loop.thisIndex,trials_eq_loop.ran,item,is_test_item,is_distractor,is_agree_score,is_disagree_score,end_exp.started,end_exp.stopped
0.0311,7.0762,0,0,0,0,1,"In the following task you are going to hear a series of utterances. 

  You will decide if the utterances sound like questions or not using your keyboard.", (press the spacebar to continue),67841f3e989c0c31c093bc05,Spanish,13 or older,"no, only English or Spanish",no,2025-08-12_16h27.20.390,empathy_intonation_perc_control,2024.2.4,Win32,60.24096386,67841f3e989c0c31c093bc05,68817205a84113384fffdfe3,689ba379ea3e2bcf140fbe18,,,,,,,,,,,,,,,,,,,,,,,,,,,,,,,,,,,,,,,,,,,,,,,,,,,,,,,,,,,,,,,,,,,,,,,,,,,,,,,,,,,,,
7.0795,17.2121,0,1,1,1,1,"If you believe the utterance is a question, type '1' (for 'yes') and if you do not 
  believe it is a question type '0' (for 'no').

  Let's practice a bit...", (press the spacebar to continue),67841f3e989c0c31c093bc05,Spanish,13 or older,"no, only English or Spanish",no,2025-08-12_16h27.20.390,empathy_intonation_perc_control,2024.2.4,Win32,60.24096386,67841f3e989c0c31c093bc05,68817205a84113384fffdfe3,689ba379ea3e2bcf140fbe18,,,,,,,,,,,,,,,,,,,,,,,,,,,,,,,,,,,,,,,,,,,,,,,,,,,,,,,,,,,,,,,,,,,,,,,,,,,,,,,,,,,,,
,,,,,,,,,67841f3e989c0c31c093bc05,Spanish,13 or older,"no, only English or Spanish",no,2025-08-12_16h27.20.390,empathy_intonation_perc_control,2024.2.4,Win32,60.24096386,67841f3e989c0c31c093bc05,68817205a84113384fffdfe3,689ba379ea3e2bcf140fbe18,17.226,20.392,0,1,2.66,,0,0,0,6,1,./stim/wavs/peruvian_statement_filler_El-nino-habla-con-su-madre.wav,0,,,,,,,,,,,,,,,,,,,,,,,,,,,,,,,,,,,,,,,,,,,,,,,,,,,,,,,,,,,,,,,,,,,,,,,,
,,,,,,,,,67841f3e989c0c31c093bc05,Spanish,13 or older,"no, only English or Spanish",no,2025-08-12_16h27.20.390,empathy_intonation_perc_control,2024.2.4,Win32,60.24096386,67841f3e989c0c31c093bc05,68817205a84113384fffdfe3,689ba379ea3e2bcf140fbe18,20.3941,25.2921,0,0,4.3676,,0,1,1,2,1,./stim/wavs/chilean_question_filler_Mi-padre-cantaba-bien.wav,1,,,,,,,,,,,,,,,,,,,,,,,,,,,,,,,,,,,,,,,,,,,,,,,,,,,,,,,,,,,,,,,,,,,,,,,,
,,,,,,,,,67841f3e989c0c31c093bc05,Spanish,13 or older,"no, only English or Spanish",no,2025-08-12_16h27.20.390,empathy_intonation_perc_control,2024.2.4,Win32,60.24096386,67841f3e989c0c31c093bc05,68817205a84113384fffdfe3,689ba379ea3e2bcf140fbe18,25.2931,28.076,1,1,2.2506,,0,2,2,1,1,./stim/wavs/argentine_question_filler_Mi-vecino-habla-mucho.wav,1,,,,,,,,,,,,,,,,,,,,,,,,,,,,,,,,,,,,,,,,,,,,,,,,,,,,,,,,,,,,,,,,,,,,,,,,
,,,,,,,,,67841f3e989c0c31c093bc05,Spanish,13 or older,"no, only English or Spanish",no,2025-08-12_16h27.20.390,empathy_intonation_perc_control,2024.2.4,Win32,60.24096386,67841f3e989c0c31c093bc05,68817205a84113384fffdfe3,689ba379ea3e2bcf140fbe18,28.0769,30.6759,1,1,2.0696,,0,3,3,3,1,./stim/wavs/mexican_question_filler_Felipe-no-tiene-contrasena.wav,1,,,,,,,,,,,,,,,,,,,,,,,,,,,,,,,,,,,,,,,,,,,,,,,,,,,,,,,,,,,,,,,,,,,,,,,,
,,,,,,,,,67841f3e989c0c31c093bc05,Spanish,13 or older,"no, only English or Spanish",no,2025-08-12_16h27.20.390,empathy_intonation_perc_control,2024.2.4,Win32,60.24096386,67841f3e989c0c31c093bc05,68817205a84113384fffdfe3,689ba379ea3e2bcf140fbe18,30.6767,33.243,1,1,2.043,,0,4,4,0,1,./stim/wavs/castilian_question_filler_Mi-esposo-conoce-al-chico.wav,1,,,,,,,,,,,,,,,,,,,,,,,,,,,,,,,,,,,,,,,,,,,,,,,,,,,,,,,,,,,,,,,,,,,,,,,,
,,,,,,,,,67841f3e989c0c31c093bc05,Spanish,13 or older,"no, only English or Spanish",no,2025-08-12_16h27.20.390,empathy_intonation_perc_control,2024.2.4,Win32,60.24096386,67841f3e989c0c31c093bc05,68817205a84113384fffdfe3,689ba379ea3e2bcf140fbe18,33.2438,35.7098,0,1,1.9444,,0,5,5,4,1,./stim/wavs/cuban_statement_filler_Cocinabas-por-la-noche.wav,0,,,,,,,,,,,,,,,,,,,,,,,,,,,,,,,,,,,,,,,,,,,,,,,,,,,,,,,,,,,,,,,,,,,,,,,,
,,,,,,,,,67841f3e989c0c31c093bc05,Spanish,13 or older,"no, only English or Spanish",no,2025-08-12_16h27.20.390,empathy_intonation_perc_control,2024.2.4,Win32,60.24096386,67841f3e989c0c31c093bc05,68817205a84113384fffdfe3,689ba379ea3e2bcf140fbe18,35.7104,38.3934,0,1,2.1587,,0,6,6,5,1,./stim/wavs/andalusian_statement_filler_Alberto-nunca-se-afeita.wav,0,,,,,,,,,,,,,,,,,,,,,,,,,,,,,,,,,,,,,,,,,,,,,,,,,,,,,,,,,,,,,,,,,,,,,,,,
,,,,,,,,,67841f3e989c0c31c093bc05,Spanish,13 or older,"no, only English or Spanish",no,2025-08-12_16h27.20.390,empathy_intonation_perc_control,2024.2.4,Win32,60.24096386,67841f3e989c0c31c093bc05,68817205a84113384fffdfe3,689ba379ea3e2bcf140fbe18,38.394,40.8602,0,1,1.9376,,0,7,7,7,1,./stim/wavs/puertorican_statement_filler_La-nina-pinta-con-su-amiga.wav,0,,,,,,,,,,,,,,,,,,,,,,,,,,,,,,,,,,,,,,,,,,,,,,,,,,,,,,,,,,,,,,,,,,,,,,,,
,,,,,,,,,67841f3e989c0c31c093bc05,Spanish,13 or older,"no, only English or Spanish",no,2025-08-12_16h27.20.390,empathy_intonation_perc_control,2024.2.4,Win32,60.24096386,67841f3e989c0c31c093bc05,68817205a84113384fffdfe3,689ba379ea3e2bcf140fbe18,,,,,,,,,,,,,,40.8606,46.0277,,,,,,,,,,,,,,,,,,,,,,,,,,,,,,,,,,,,,,,,,,,,,,,,,,,,,,,,,,,,,,,,,,,,,,
,,,,,,,,,67841f3e989c0c31c093bc05,Spanish,13 or older,"no, only English or Spanish",no,2025-08-12_16h27.20.390,empathy_intonation_perc_control,2024.2.4,Win32,60.24096386,67841f3e989c0c31c093bc05,68817205a84113384fffdfe3,689ba379ea3e2bcf140fbe18,,,,,,,,,,,,./stim/wavs/mexican_mismatch_interrogative-total-yn_La-maestra-vive-en-Paris.wav,1,,,46.0405,48.3614,1,1,1.8108,,0,0,0,36,1,37,0,mexican,,,,,,,,,,,,,,,,,,,,,,,,,,,,,,,,,,,,,,,,,,,,,,,,,,,,,,,,
,,,,,,,,,67841f3e989c0c31c093bc05,Spanish,13 or older,"no, only English or Spanish",no,2025-08-12_16h27.20.390,empathy_intonation_perc_control,2024.2.4,Win32,60.24096386,67841f3e989c0c31c093bc05,68817205a84113384fffdfe3,689ba379ea3e2bcf140fbe18,,,,,,,,,,,,./stim/wavs/cuban_mismatch_interrogative-total-yn_El-hombre-mira-la-luna.wav,1,,,48.3623,50.228,0,0,1.3454,,0,1,1,29,1,30,1,cuban,,,,,,,,,,,,,,,,,,,,,,,,,,,,,,,,,,,,,,,,,,,,,,,,,,,,,,,,
,,,,,,,,,67841f3e989c0c31c093bc05,Spanish,13 or older,"no, only English or Spanish",no,2025-08-12_16h27.20.390,empathy_intonation_perc_control,2024.2.4,Win32,60.24096386,67841f3e989c0c31c093bc05,68817205a84113384fffdfe3,689ba379ea3e2bcf140fbe18,,,,,,,,,,,,./stim/wavs/mexican_match_interrogative-total-yn_Daniel-iba-a-Bolivia.wav,1,,,50.2288,52.3281,1,1,1.5745,,0,2,2,13,1,14,0,mexican,,,,,,,,,,,,,,,,,,,,,,,,,,,,,,,,,,,,,,,,,,,,,,,,,,,,,,,,
,,,,,,,,,67841f3e989c0c31c093bc05,Spanish,13 or older,"no, only English or Spanish",no,2025-08-12_16h27.20.390,empathy_intonation_perc_control,2024.2.4,Win32,60.24096386,67841f3e989c0c31c093bc05,68817205a84113384fffdfe3,689ba379ea3e2bcf140fbe18,,,,,,,,,,,,./stim/wavs/cuban_mismatch_interrogative-total-yn_El-nino-oye-el-rio.wav,1,,,52.3287,54.2783,0,0,1.4207,,0,3,3,30,1,31,1,cuban,,,,,,,,,,,,,,,,,,,,,,,,,,,,,,,,,,,,,,,,,,,,,,,,,,,,,,,,
,,,,,,,,,67841f3e989c0c31c093bc05,Spanish,13 or older,"no, only English or Spanish",no,2025-08-12_16h27.20.390,empathy_intonation_perc_control,2024.2.4,Win32,60.24096386,67841f3e989c0c31c093bc05,68817205a84113384fffdfe3,689ba379ea3e2bcf140fbe18,,,,,,,,,,,,./stim/wavs/cuban_match_declarative-broad-focus_Marta-abre-el-regalo.wav,0,,,54.2787,56.462,0,1,1.6567,,0,4,4,55,1,56,0,cuban,,,,,,,,,,,,,,,,,,,,,,,,,,,,,,,,,,,,,,,,,,,,,,,,,,,,,,,,
,,,,,,,,,67841f3e989c0c31c093bc05,Spanish,13 or older,"no, only English or Spanish",no,2025-08-12_16h27.20.390,empathy_intonation_perc_control,2024.2.4,Win32,60.24096386,67841f3e989c0c31c093bc05,68817205a84113384fffdfe3,689ba379ea3e2bcf140fbe18,,,,,,,,,,,,./stim/wavs/mexican_mismatch_declarative-broad-focus_Mi-novio-viene-del-lago.wav,0,,,56.4625,58.5289,0,1,1.5369,,0,5,5,81,1,82,0,mexican,,,,,,,,,,,,,,,,,,,,,,,,,,,,,,,,,,,,,,,,,,,,,,,,,,,,,,,,
,,,,,,,,,67841f3e989c0c31c093bc05,Spanish,13 or older,"no, only English or Spanish",no,2025-08-12_16h27.20.390,empathy_intonation_perc_control,2024.2.4,Win32,60.24096386,67841f3e989c0c31c093bc05,68817205a84113384fffdfe3,689ba379ea3e2bcf140fbe18,,,,,,,,,,,,./stim/wavs/cuban_mismatch_declarative-broad-focus_El-bebe-comia-muy-bien.wav,0,,,58.5296,60.5456,0,1,1.4902,,0,6,6,73,1,74,0,cuban,,,,,,,,,,,,,,,,,,,,,,,,,,,,,,,,,,,,,,,,,,,,,,,,,,,,,,,,
,,,,,,,,,67841f3e989c0c31c093bc05,Spanish,13 or older,"no, only English or Spanish",no,2025-08-12_16h27.20.390,empathy_intonation_perc_control,2024.2.4,Win32,60.24096386,67841f3e989c0c31c093bc05,68817205a84113384fffdfe3,689ba379ea3e2bcf140fbe18,,,,,,,,,,,,./stim/wavs/puertorican_match_declarative-broad-focus_Manuela-vende-el-carro.wav,0,,,60.5463,62.6627,0,1,1.5855,,0,7,7,66,1,67,0,puertorican,,,,,,,,,,,,,,,,,,,,,,,,,,,,,,,,,,,,,,,,,,,,,,,,,,,,,,,,
,,,,,,,,,67841f3e989c0c31c093bc05,Spanish,13 or older,"no, only English or Spanish",no,2025-08-12_16h27.20.390,empathy_intonation_perc_control,2024.2.4,Win32,60.24096386,67841f3e989c0c31c093bc05,68817205a84113384fffdfe3,689ba379ea3e2bcf140fbe18,,,,,,,,,,,,./stim/wavs/cuban_match_declarative-broad-focus_Maria-bebe-el-vino.wav,0,,,62.6633,64.6627,0,1,1.468,,0,8,8,53,1,54,0,cuban,,,,,,,,,,,,,,,,,,,,,,,,,,,,,,,,,,,,,,,,,,,,,,,,,,,,,,,,
,,,,,,,,,67841f3e989c0c31c093bc05,Spanish,13 or older,"no, only English or Spanish",no,2025-08-12_16h27.20.390,empathy_intonation_perc_control,2024.2.4,Win32,60.24096386,67841f3e989c0c31c093bc05,68817205a84113384fffdfe3,689ba379ea3e2bcf140fbe18,,,,,,,,,,,,./stim/wavs/puertorican_mismatch_interrogative-total-yn_La-nina-lava-el-plato.wav,1,,,64.6632,66.6629,0,0,1.473,,0,9,9,42,1,43,1,puertorican,,,,,,,,,,,,,,,,,,,,,,,,,,,,,,,,,,,,,,,,,,,,,,,,,,,,,,,,
,,,,,,,,,67841f3e989c0c31c093bc05,Spanish,13 or older,"no, only English or Spanish",no,2025-08-12_16h27.20.390,empathy_intonation_perc_control,2024.2.4,Win32,60.24096386,67841f3e989c0c31c093bc05,68817205a84113384fffdfe3,689ba379ea3e2bcf140fbe18,,,,,,,,,,,,./stim/wavs/cuban_mismatch_declarative-broad-focus_Mi-novio-viene-del-lago.wav,0,,,66.6635,68.8467,0,1,1.6577,,0,10,10,76,1,77,0,cuban,,,,,,,,,,,,,,,,,,,,,,,,,,,,,,,,,,,,,,,,,,,,,,,,,,,,,,,,
,,,,,,,,,67841f3e989c0c31c093bc05,Spanish,13 or older,"no, only English or Spanish",no,2025-08-12_16h27.20.390,empathy_intonation_perc_control,2024.2.4,Win32,60.24096386,67841f3e989c0c31c093bc05,68817205a84113384fffdfe3,689ba379ea3e2bcf140fbe18,,,,,,,,,,,,./stim/wavs/castilian_mismatch_interrogative-total-yn_La-maestra-vive-en-Paris.wav,1,,,68.8472,71.3468,1,1,1.97,,0,11,11,24,1,25,0,castilian,,,,,,,,,,,,,,,,,,,,,,,,,,,,,,,,,,,,,,,,,,,,,,,,,,,,,,,,
,,,,,,,,,67841f3e989c0c31c093bc05,Spanish,13 or older,"no, only English or Spanish",no,2025-08-12_16h27.20.390,empathy_intonation_perc_control,2024.2.4,Win32,60.24096386,67841f3e989c0c31c093bc05,68817205a84113384fffdfe3,689ba379ea3e2bcf140fbe18,,,,,,,,,,,,./stim/wavs/castilian_match_interrogative-total-yn_Emilio-ama-la-marcha.wav,1,,,71.3473,73.4969,1,1,1.6196,,0,12,12,1,1,2,0,castilian,,,,,,,,,,,,,,,,,,,,,,,,,,,,,,,,,,,,,,,,,,,,,,,,,,,,,,,,
,,,,,,,,,67841f3e989c0c31c093bc05,Spanish,13 or older,"no, only English or Spanish",no,2025-08-12_16h27.20.390,empathy_intonation_perc_control,2024.2.4,Win32,60.24096386,67841f3e989c0c31c093bc05,68817205a84113384fffdfe3,689ba379ea3e2bcf140fbe18,,,,,,,,,,,,./stim/wavs/mexican_match_declarative-broad-focus_Daniel-iba-a-Bolivia.wav,0,,,73.4975,75.5972,0,1,1.567,,0,13,13,57,1,58,0,mexican,,,,,,,,,,,,,,,,,,,,,,,,,,,,,,,,,,,,,,,,,,,,,,,,,,,,,,,,
,,,,,,,,,67841f3e989c0c31c093bc05,Spanish,13 or older,"no, only English or Spanish",no,2025-08-12_16h27.20.390,empathy_intonation_perc_control,2024.2.4,Win32,60.24096386,67841f3e989c0c31c093bc05,68817205a84113384fffdfe3,689ba379ea3e2bcf140fbe18,,,,,,,,,,,,./stim/wavs/castilian_match_interrogative-total-yn_Mariano-habla-del-tiempo.wav,1,,,75.5982,77.8473,1,1,1.7287,,0,14,14,4,1,5,0,castilian,,,,,,,,,,,,,,,,,,,,,,,,,,,,,,,,,,,,,,,,,,,,,,,,,,,,,,,,
,,,,,,,,,67841f3e989c0c31c093bc05,Spanish,13 or older,"no, only English or Spanish",no,2025-08-12_16h27.20.390,empathy_intonation_perc_control,2024.2.4,Win32,60.24096386,67841f3e989c0c31c093bc05,68817205a84113384fffdfe3,689ba379ea3e2bcf140fbe18,,,,,,,,,,,,./stim/wavs/puertorican_match_interrogative-total-yn_Daniel-iba-a-Bolivia.wav,1,,,77.8479,79.981,0,0,1.6048,,0,15,15,19,1,20,1,puertorican,,,,,,,,,,,,,,,,,,,,,,,,,,,,,,,,,,,,,,,,,,,,,,,,,,,,,,,,
,,,,,,,,,67841f3e989c0c31c093bc05,Spanish,13 or older,"no, only English or Spanish",no,2025-08-12_16h27.20.390,empathy_intonation_perc_control,2024.2.4,Win32,60.24096386,67841f3e989c0c31c093bc05,68817205a84113384fffdfe3,689ba379ea3e2bcf140fbe18,,,,,,,,,,,,./stim/wavs/castilian_match_declarative-broad-focus_Manuela-vende-el-carro.wav,0,,,79.9816,82.3654,0,1,1.8647,,0,16,16,46,1,47,0,castilian,,,,,,,,,,,,,,,,,,,,,,,,,,,,,,,,,,,,,,,,,,,,,,,,,,,,,,,,
,,,,,,,,,67841f3e989c0c31c093bc05,Spanish,13 or older,"no, only English or Spanish",no,2025-08-12_16h27.20.390,empathy_intonation_perc_control,2024.2.4,Win32,60.24096386,67841f3e989c0c31c093bc05,68817205a84113384fffdfe3,689ba379ea3e2bcf140fbe18,,,,,,,,,,,,./stim/wavs/mexican_match_interrogative-total-yn_Emilio-ama-la-marcha.wav,1,,,82.3664,84.5313,1,1,1.6452,,0,17,17,15,1,16,0,mexican,,,,,,,,,,,,,,,,,,,,,,,,,,,,,,,,,,,,,,,,,,,,,,,,,,,,,,,,
,,,,,,,,,67841f3e989c0c31c093bc05,Spanish,13 or older,"no, only English or Spanish",no,2025-08-12_16h27.20.390,empathy_intonation_perc_control,2024.2.4,Win32,60.24096386,67841f3e989c0c31c093bc05,68817205a84113384fffdfe3,689ba379ea3e2bcf140fbe18,,,,,,,,,,,,./stim/wavs/mexican_mismatch_interrogative-total-yn_Mi-novio-viene-del-lago.wav,1,,,84.5317,86.6149,1,1,1.5564,,0,18,18,37,1,38,0,mexican,,,,,,,,,,,,,,,,,,,,,,,,,,,,,,,,,,,,,,,,,,,,,,,,,,,,,,,,
,,,,,,,,,67841f3e989c0c31c093bc05,Spanish,13 or older,"no, only English or Spanish",no,2025-08-12_16h27.20.390,empathy_intonation_perc_control,2024.2.4,Win32,60.24096386,67841f3e989c0c31c093bc05,68817205a84113384fffdfe3,689ba379ea3e2bcf140fbe18,,,,,,,,,,,,./stim/wavs/cuban_match_interrogative-total-yn_Mariano-habla-del-tiempo.wav,1,,,86.6155,88.7665,0,0,1.6254,,0,19,19,10,1,11,1,cuban,,,,,,,,,,,,,,,,,,,,,,,,,,,,,,,,,,,,,,,,,,,,,,,,,,,,,,,,
,,,,,,,,,67841f3e989c0c31c093bc05,Spanish,13 or older,"no, only English or Spanish",no,2025-08-12_16h27.20.390,empathy_intonation_perc_control,2024.2.4,Win32,60.24096386,67841f3e989c0c31c093bc05,68817205a84113384fffdfe3,689ba379ea3e2bcf140fbe18,,,,,,,,,,,,./stim/wavs/puertorican_match_interrogative-total-yn_Manuela-vende-el-carro.wav,1,,,88.767,90.8155,0,0,1.5279,,0,20,20,22,1,23,1,puertorican,,,,,,,,,,,,,,,,,,,,,,,,,,,,,,,,,,,,,,,,,,,,,,,,,,,,,,,,
,,,,,,,,,67841f3e989c0c31c093bc05,Spanish,13 or older,"no, only English or Spanish",no,2025-08-12_16h27.20.390,empathy_intonation_perc_control,2024.2.4,Win32,60.24096386,67841f3e989c0c31c093bc05,68817205a84113384fffdfe3,689ba379ea3e2bcf140fbe18,,,,,,,,,,,,./stim/wavs/cuban_mismatch_interrogative-total-yn_Mi-novio-viene-del-lago.wav,1,,,90.8162,92.9989,0,0,1.6552,,0,21,21,32,1,33,1,cuban,,,,,,,,,,,,,,,,,,,,,,,,,,,,,,,,,,,,,,,,,,,,,,,,,,,,,,,,
,,,,,,,,,67841f3e989c0c31c093bc05,Spanish,13 or older,"no, only English or Spanish",no,2025-08-12_16h27.20.390,empathy_intonation_perc_control,2024.2.4,Win32,60.24096386,67841f3e989c0c31c093bc05,68817205a84113384fffdfe3,689ba379ea3e2bcf140fbe18,,,,,,,,,,,,./stim/wavs/puertorican_match_declarative-broad-focus_Ana-lleva-el-abrigo.wav,0,,,92.9994,94.8824,0,1,1.3549,,0,22,22,62,1,63,0,puertorican,,,,,,,,,,,,,,,,,,,,,,,,,,,,,,,,,,,,,,,,,,,,,,,,,,,,,,,,
,,,,,,,,,67841f3e989c0c31c093bc05,Spanish,13 or older,"no, only English or Spanish",no,2025-08-12_16h27.20.390,empathy_intonation_perc_control,2024.2.4,Win32,60.24096386,67841f3e989c0c31c093bc05,68817205a84113384fffdfe3,689ba379ea3e2bcf140fbe18,,,,,,,,,,,,./stim/wavs/mexican_mismatch_declarative-broad-focus_El-bebe-comia-muy-bien.wav,0,,,94.883,96.8993,0,1,1.4967,,0,23,23,78,1,79,0,mexican,,,,,,,,,,,,,,,,,,,,,,,,,,,,,,,,,,,,,,,,,,,,,,,,,,,,,,,,
,,,,,,,,,67841f3e989c0c31c093bc05,Spanish,13 or older,"no, only English or Spanish",no,2025-08-12_16h27.20.390,empathy_intonation_perc_control,2024.2.4,Win32,60.24096386,67841f3e989c0c31c093bc05,68817205a84113384fffdfe3,689ba379ea3e2bcf140fbe18,,,,,,,,,,,,./stim/wavs/puertorican_mismatch_interrogative-total-yn_Mi-madre-come-la-fruta.wav,1,,,96.8998,98.883,0,0,1.4581,,0,24,24,43,1,44,1,puertorican,,,,,,,,,,,,,,,,,,,,,,,,,,,,,,,,,,,,,,,,,,,,,,,,,,,,,,,,
,,,,,,,,,67841f3e989c0c31c093bc05,Spanish,13 or older,"no, only English or Spanish",no,2025-08-12_16h27.20.390,empathy_intonation_perc_control,2024.2.4,Win32,60.24096386,67841f3e989c0c31c093bc05,68817205a84113384fffdfe3,689ba379ea3e2bcf140fbe18,,,,,,,,,,,,./stim/wavs/castilian_mismatch_declarative-broad-focus_Mi-novio-viene-del-lago.wav,0,,,98.8834,101.1664,0,1,1.7509,,0,25,25,71,1,72,0,castilian,,,,,,,,,,,,,,,,,,,,,,,,,,,,,,,,,,,,,,,,,,,,,,,,,,,,,,,,
,,,,,,,,,67841f3e989c0c31c093bc05,Spanish,13 or older,"no, only English or Spanish",no,2025-08-12_16h27.20.390,empathy_intonation_perc_control,2024.2.4,Win32,60.24096386,67841f3e989c0c31c093bc05,68817205a84113384fffdfe3,689ba379ea3e2bcf140fbe18,,,,,,,,,,,,./stim/wavs/mexican_match_interrogative-total-yn_Ana-lleva-el-abrigo.wav,1,,,101.1669,103.1166,1,1,1.4174,,0,26,26,12,1,13,0,mexican,,,,,,,,,,,,,,,,,,,,,,,,,,,,,,,,,,,,,,,,,,,,,,,,,,,,,,,,
,,,,,,,,,67841f3e989c0c31c093bc05,Spanish,13 or older,"no, only English or Spanish",no,2025-08-12_16h27.20.390,empathy_intonation_perc_control,2024.2.4,Win32,60.24096386,67841f3e989c0c31c093bc05,68817205a84113384fffdfe3,689ba379ea3e2bcf140fbe18,,,,,,,,,,,,./stim/wavs/castilian_mismatch_interrogative-total-yn_Mi-madre-come-la-fruta.wav,1,,,103.1171,105.3502,1,1,1.7134,,0,27,27,26,1,27,0,castilian,,,,,,,,,,,,,,,,,,,,,,,,,,,,,,,,,,,,,,,,,,,,,,,,,,,,,,,,
,,,,,,,,,67841f3e989c0c31c093bc05,Spanish,13 or older,"no, only English or Spanish",no,2025-08-12_16h27.20.390,empathy_intonation_perc_control,2024.2.4,Win32,60.24096386,67841f3e989c0c31c093bc05,68817205a84113384fffdfe3,689ba379ea3e2bcf140fbe18,,,,,,,,,,,,./stim/wavs/puertorican_match_declarative-broad-focus_Emilio-ama-la-marcha.wav,0,,,105.3508,107.4838,0,1,1.6091,,0,28,28,65,1,66,0,puertorican,,,,,,,,,,,,,,,,,,,,,,,,,,,,,,,,,,,,,,,,,,,,,,,,,,,,,,,,
,,,,,,,,,67841f3e989c0c31c093bc05,Spanish,13 or older,"no, only English or Spanish",no,2025-08-12_16h27.20.390,empathy_intonation_perc_control,2024.2.4,Win32,60.24096386,67841f3e989c0c31c093bc05,68817205a84113384fffdfe3,689ba379ea3e2bcf140fbe18,,,,,,,,,,,,./stim/wavs/puertorican_match_interrogative-total-yn_Emilio-ama-la-marcha.wav,1,,,107.4846,109.4507,0,0,1.4367,,0,29,29,21,1,22,1,puertorican,,,,,,,,,,,,,,,,,,,,,,,,,,,,,,,,,,,,,,,,,,,,,,,,,,,,,,,,
,,,,,,,,,67841f3e989c0c31c093bc05,Spanish,13 or older,"no, only English or Spanish",no,2025-08-12_16h27.20.390,empathy_intonation_perc_control,2024.2.4,Win32,60.24096386,67841f3e989c0c31c093bc05,68817205a84113384fffdfe3,689ba379ea3e2bcf140fbe18,,,,,,,,,,,,./stim/wavs/cuban_match_declarative-broad-focus_Daniel-iba-a-Bolivia.wav,0,,,109.4513,111.6843,0,1,1.7048,,0,30,30,51,1,52,0,cuban,,,,,,,,,,,,,,,,,,,,,,,,,,,,,,,,,,,,,,,,,,,,,,,,,,,,,,,,
,,,,,,,,,67841f3e989c0c31c093bc05,Spanish,13 or older,"no, only English or Spanish",no,2025-08-12_16h27.20.390,empathy_intonation_perc_control,2024.2.4,Win32,60.24096386,67841f3e989c0c31c093bc05,68817205a84113384fffdfe3,689ba379ea3e2bcf140fbe18,,,,,,,,,,,,./stim/wavs/castilian_mismatch_declarative-broad-focus_El-nino-oye-el-rio.wav,0,,,111.6855,113.901,0,1,1.6921,,0,31,31,68,1,69,0,castilian,,,,,,,,,,,,,,,,,,,,,,,,,,,,,,,,,,,,,,,,,,,,,,,,,,,,,,,,
,,,,,,,,,67841f3e989c0c31c093bc05,Spanish,13 or older,"no, only English or Spanish",no,2025-08-12_16h27.20.390,empathy_intonation_perc_control,2024.2.4,Win32,60.24096386,67841f3e989c0c31c093bc05,68817205a84113384fffdfe3,689ba379ea3e2bcf140fbe18,,,,,,,,,,,,./stim/wavs/puertorican_mismatch_interrogative-total-yn_El-hombre-mira-la-luna.wav,1,,,113.9016,115.968,1,1,1.5469,,0,32,32,39,1,40,1,puertorican,,,,,,,,,,,,,,,,,,,,,,,,,,,,,,,,,,,,,,,,,,,,,,,,,,,,,,,,
,,,,,,,,,67841f3e989c0c31c093bc05,Spanish,13 or older,"no, only English or Spanish",no,2025-08-12_16h27.20.390,empathy_intonation_perc_control,2024.2.4,Win32,60.24096386,67841f3e989c0c31c093bc05,68817205a84113384fffdfe3,689ba379ea3e2bcf140fbe18,,,,,,,,,,,,./stim/wavs/puertorican_mismatch_declarative-broad-focus_La-nina-lava-el-plato.wav,0,,,115.9686,117.9681,0,1,1.4762,,0,33,33,87,1,88,0,puertorican,,,,,,,,,,,,,,,,,,,,,,,,,,,,,,,,,,,,,,,,,,,,,,,,,,,,,,,,
,,,,,,,,,67841f3e989c0c31c093bc05,Spanish,13 or older,"no, only English or Spanish",no,2025-08-12_16h27.20.390,empathy_intonation_perc_control,2024.2.4,Win32,60.24096386,67841f3e989c0c31c093bc05,68817205a84113384fffdfe3,689ba379ea3e2bcf140fbe18,,,,,,,,,,,,./stim/wavs/puertorican_mismatch_interrogative-total-yn_El-nino-oye-el-rio.wav,1,,,117.9686,120.1016,0,0,1.6046,,0,34,34,40,1,41,1,puertorican,,,,,,,,,,,,,,,,,,,,,,,,,,,,,,,,,,,,,,,,,,,,,,,,,,,,,,,,
,,,,,,,,,67841f3e989c0c31c093bc05,Spanish,13 or older,"no, only English or Spanish",no,2025-08-12_16h27.20.390,empathy_intonation_perc_control,2024.2.4,Win32,60.24096386,67841f3e989c0c31c093bc05,68817205a84113384fffdfe3,689ba379ea3e2bcf140fbe18,,,,,,,,,,,,./stim/wavs/puertorican_match_interrogative-total-yn_Ana-lleva-el-abrigo.wav,1,,,120.1022,121.8354,0,0,1.202,,0,35,35,18,1,19,1,puertorican,,,,,,,,,,,,,,,,,,,,,,,,,,,,,,,,,,,,,,,,,,,,,,,,,,,,,,,,
,,,,,,,,,67841f3e989c0c31c093bc05,Spanish,13 or older,"no, only English or Spanish",no,2025-08-12_16h27.20.390,empathy_intonation_perc_control,2024.2.4,Win32,60.24096386,67841f3e989c0c31c093bc05,68817205a84113384fffdfe3,689ba379ea3e2bcf140fbe18,,,,,,,,,,,,./stim/wavs/castilian_mismatch_declarative-broad-focus_Mi-tia-odia-la-lluvia.wav,0,,,121.8361,124.0022,0,1,1.6369,,0,36,36,72,1,73,0,castilian,,,,,,,,,,,,,,,,,,,,,,,,,,,,,,,,,,,,,,,,,,,,,,,,,,,,,,,,
,,,,,,,,,67841f3e989c0c31c093bc05,Spanish,13 or older,"no, only English or Spanish",no,2025-08-12_16h27.20.390,empathy_intonation_perc_control,2024.2.4,Win32,60.24096386,67841f3e989c0c31c093bc05,68817205a84113384fffdfe3,689ba379ea3e2bcf140fbe18,,,,,,,,,,,,./stim/wavs/puertorican_match_declarative-broad-focus_Maria-bebe-el-vino.wav,0,,,124.0027,125.9023,0,1,1.3705,,0,37,37,67,1,68,0,puertorican,,,,,,,,,,,,,,,,,,,,,,,,,,,,,,,,,,,,,,,,,,,,,,,,,,,,,,,,
,,,,,,,,,67841f3e989c0c31c093bc05,Spanish,13 or older,"no, only English or Spanish",no,2025-08-12_16h27.20.390,empathy_intonation_perc_control,2024.2.4,Win32,60.24096386,67841f3e989c0c31c093bc05,68817205a84113384fffdfe3,689ba379ea3e2bcf140fbe18,,,,,,,,,,,,./stim/wavs/mexican_match_interrogative-total-yn_David-leia-el-libro.wav,1,,,125.9027,127.8856,1,1,1.4605,,0,38,38,14,1,15,0,mexican,,,,,,,,,,,,,,,,,,,,,,,,,,,,,,,,,,,,,,,,,,,,,,,,,,,,,,,,
,,,,,,,,,67841f3e989c0c31c093bc05,Spanish,13 or older,"no, only English or Spanish",no,2025-08-12_16h27.20.390,empathy_intonation_perc_control,2024.2.4,Win32,60.24096386,67841f3e989c0c31c093bc05,68817205a84113384fffdfe3,689ba379ea3e2bcf140fbe18,,,,,,,,,,,,./stim/wavs/puertorican_mismatch_declarative-broad-focus_El-nino-oye-el-rio.wav,0,,,127.8863,129.7858,0,1,1.3778,,0,39,39,85,1,86,0,puertorican,,,,,,,,,,,,,,,,,,,,,,,,,,,,,,,,,,,,,,,,,,,,,,,,,,,,,,,,
,,,,,,,,,67841f3e989c0c31c093bc05,Spanish,13 or older,"no, only English or Spanish",no,2025-08-12_16h27.20.390,empathy_intonation_perc_control,2024.2.4,Win32,60.24096386,67841f3e989c0c31c093bc05,68817205a84113384fffdfe3,689ba379ea3e2bcf140fbe18,,,,,,,,,,,,./stim/wavs/mexican_mismatch_interrogative-total-yn_Mi-tia-odia-la-lluvia.wav,1,,,129.7864,131.7361,1,1,1.422,,0,40,40,38,1,39,0,mexican,,,,,,,,,,,,,,,,,,,,,,,,,,,,,,,,,,,,,,,,,,,,,,,,,,,,,,,,
,,,,,,,,,67841f3e989c0c31c093bc05,Spanish,13 or older,"no, only English or Spanish",no,2025-08-12_16h27.20.390,empathy_intonation_perc_control,2024.2.4,Win32,60.24096386,67841f3e989c0c31c093bc05,68817205a84113384fffdfe3,689ba379ea3e2bcf140fbe18,,,,,,,,,,,,./stim/wavs/puertorican_match_declarative-broad-focus_David-leia-el-libro.wav,0,,,131.7367,133.6032,0,1,1.3374,,0,41,41,64,1,65,0,puertorican,,,,,,,,,,,,,,,,,,,,,,,,,,,,,,,,,,,,,,,,,,,,,,,,,,,,,,,,
,,,,,,,,,67841f3e989c0c31c093bc05,Spanish,13 or older,"no, only English or Spanish",no,2025-08-12_16h27.20.390,empathy_intonation_perc_control,2024.2.4,Win32,60.24096386,67841f3e989c0c31c093bc05,68817205a84113384fffdfe3,689ba379ea3e2bcf140fbe18,,,,,,,,,,,,./stim/wavs/castilian_match_interrogative-total-yn_Marta-abre-el-regalo.wav,1,,,133.6037,135.7699,1,1,1.6357,,0,42,42,5,1,6,0,castilian,,,,,,,,,,,,,,,,,,,,,,,,,,,,,,,,,,,,,,,,,,,,,,,,,,,,,,,,
,,,,,,,,,67841f3e989c0c31c093bc05,Spanish,13 or older,"no, only English or Spanish",no,2025-08-12_16h27.20.390,empathy_intonation_perc_control,2024.2.4,Win32,60.24096386,67841f3e989c0c31c093bc05,68817205a84113384fffdfe3,689ba379ea3e2bcf140fbe18,,,,,,,,,,,,./stim/wavs/mexican_match_interrogative-total-yn_Mariano-habla-del-tiempo.wav,1,,,135.7705,138.02,1,1,1.7222,,0,43,43,16,1,17,0,mexican,,,,,,,,,,,,,,,,,,,,,,,,,,,,,,,,,,,,,,,,,,,,,,,,,,,,,,,,
,,,,,,,,,67841f3e989c0c31c093bc05,Spanish,13 or older,"no, only English or Spanish",no,2025-08-12_16h27.20.390,empathy_intonation_perc_control,2024.2.4,Win32,60.24096386,67841f3e989c0c31c093bc05,68817205a84113384fffdfe3,689ba379ea3e2bcf140fbe18,,,,,,,,,,,,./stim/wavs/castilian_mismatch_declarative-broad-focus_La-nina-lava-el-plato.wav,0,,,138.0205,140.2204,0,1,1.6698,,0,44,44,70,1,71,0,castilian,,,,,,,,,,,,,,,,,,,,,,,,,,,,,,,,,,,,,,,,,,,,,,,,,,,,,,,,
,,,,,,,,,67841f3e989c0c31c093bc05,Spanish,13 or older,"no, only English or Spanish",no,2025-08-12_16h27.20.390,empathy_intonation_perc_control,2024.2.4,Win32,60.24096386,67841f3e989c0c31c093bc05,68817205a84113384fffdfe3,689ba379ea3e2bcf140fbe18,,,,,,,,,,,,./stim/wavs/puertorican_mismatch_declarative-broad-focus_El-bebe-comia-muy-bien.wav,0,,,140.2209,142.2207,0,1,1.47,,0,45,45,83,1,84,0,puertorican,,,,,,,,,,,,,,,,,,,,,,,,,,,,,,,,,,,,,,,,,,,,,,,,,,,,,,,,
,,,,,,,,,67841f3e989c0c31c093bc05,Spanish,13 or older,"no, only English or Spanish",no,2025-08-12_16h27.20.390,empathy_intonation_perc_control,2024.2.4,Win32,60.24096386,67841f3e989c0c31c093bc05,68817205a84113384fffdfe3,689ba379ea3e2bcf140fbe18,,,,,,,,,,,,./stim/wavs/castilian_mismatch_interrogative-total-yn_La-nina-lava-el-plato.wav,1,,,142.2214,144.3706,1,1,1.6288,,0,46,46,25,1,26,0,castilian,,,,,,,,,,,,,,,,,,,,,,,,,,,,,,,,,,,,,,,,,,,,,,,,,,,,,,,,
,,,,,,,,,67841f3e989c0c31c093bc05,Spanish,13 or older,"no, only English or Spanish",no,2025-08-12_16h27.20.390,empathy_intonation_perc_control,2024.2.4,Win32,60.24096386,67841f3e989c0c31c093bc05,68817205a84113384fffdfe3,689ba379ea3e2bcf140fbe18,,,,,,,,,,,,./stim/wavs/puertorican_match_declarative-broad-focus_Daniel-iba-a-Bolivia.wav,0,,,144.3712,146.3544,0,1,1.4567,,0,47,47,63,1,64,0,puertorican,,,,,,,,,,,,,,,,,,,,,,,,,,,,,,,,,,,,,,,,,,,,,,,,,,,,,,,,
,,,,,,,,,67841f3e989c0c31c093bc05,Spanish,13 or older,"no, only English or Spanish",no,2025-08-12_16h27.20.390,empathy_intonation_perc_control,2024.2.4,Win32,60.24096386,67841f3e989c0c31c093bc05,68817205a84113384fffdfe3,689ba379ea3e2bcf140fbe18,,,,,,,,,,,,./stim/wavs/cuban_match_declarative-broad-focus_Ana-lleva-el-abrigo.wav,0,,,146.3553,148.6048,0,1,1.7192,,0,48,48,50,1,51,0,cuban,,,,,,,,,,,,,,,,,,,,,,,,,,,,,,,,,,,,,,,,,,,,,,,,,,,,,,,,
,,,,,,,,,67841f3e989c0c31c093bc05,Spanish,13 or older,"no, only English or Spanish",no,2025-08-12_16h27.20.390,empathy_intonation_perc_control,2024.2.4,Win32,60.24096386,67841f3e989c0c31c093bc05,68817205a84113384fffdfe3,689ba379ea3e2bcf140fbe18,,,,,,,,,,,,./stim/wavs/castilian_match_declarative-broad-focus_Emilio-ama-la-marcha.wav,0,,,148.6054,151.1049,0,1,1.9756,,0,49,49,45,1,46,0,castilian,,,,,,,,,,,,,,,,,,,,,,,,,,,,,,,,,,,,,,,,,,,,,,,,,,,,,,,,
,,,,,,,,,67841f3e989c0c31c093bc05,Spanish,13 or older,"no, only English or Spanish",no,2025-08-12_16h27.20.390,empathy_intonation_perc_control,2024.2.4,Win32,60.24096386,67841f3e989c0c31c093bc05,68817205a84113384fffdfe3,689ba379ea3e2bcf140fbe18,,,,,,,,,,,,./stim/wavs/cuban_match_declarative-broad-focus_Mariano-habla-del-tiempo.wav,0,,,151.1055,153.3552,0,1,1.7267,,0,50,50,54,1,55,0,cuban,,,,,,,,,,,,,,,,,,,,,,,,,,,,,,,,,,,,,,,,,,,,,,,,,,,,,,,,
,,,,,,,,,67841f3e989c0c31c093bc05,Spanish,13 or older,"no, only English or Spanish",no,2025-08-12_16h27.20.390,empathy_intonation_perc_control,2024.2.4,Win32,60.24096386,67841f3e989c0c31c093bc05,68817205a84113384fffdfe3,689ba379ea3e2bcf140fbe18,,,,,,,,,,,,./stim/wavs/mexican_mismatch_interrogative-total-yn_El-hombre-mira-la-luna.wav,1,,,153.3558,155.2719,1,1,1.3923,,0,51,51,34,1,35,0,mexican,,,,,,,,,,,,,,,,,,,,,,,,,,,,,,,,,,,,,,,,,,,,,,,,,,,,,,,,
,,,,,,,,,67841f3e989c0c31c093bc05,Spanish,13 or older,"no, only English or Spanish",no,2025-08-12_16h27.20.390,empathy_intonation_perc_control,2024.2.4,Win32,60.24096386,67841f3e989c0c31c093bc05,68817205a84113384fffdfe3,689ba379ea3e2bcf140fbe18,,,,,,,,,,,,./stim/wavs/castilian_match_declarative-broad-focus_David-leia-el-libro.wav,0,,,155.2725,157.5555,0,1,1.7578,,0,52,52,44,1,45,0,castilian,,,,,,,,,,,,,,,,,,,,,,,,,,,,,,,,,,,,,,,,,,,,,,,,,,,,,,,,
,,,,,,,,,67841f3e989c0c31c093bc05,Spanish,13 or older,"no, only English or Spanish",no,2025-08-12_16h27.20.390,empathy_intonation_perc_control,2024.2.4,Win32,60.24096386,67841f3e989c0c31c093bc05,68817205a84113384fffdfe3,689ba379ea3e2bcf140fbe18,,,,,,,,,,,,./stim/wavs/puertorican_mismatch_declarative-broad-focus_La-maestra-vive-en-Paris.wav,0,,,157.5561,159.7056,0,1,1.6204,,0,53,53,86,1,87,0,puertorican,,,,,,,,,,,,,,,,,,,,,,,,,,,,,,,,,,,,,,,,,,,,,,,,,,,,,,,,
,,,,,,,,,67841f3e989c0c31c093bc05,Spanish,13 or older,"no, only English or Spanish",no,2025-08-12_16h27.20.390,empathy_intonation_perc_control,2024.2.4,Win32,60.24096386,67841f3e989c0c31c093bc05,68817205a84113384fffdfe3,689ba379ea3e2bcf140fbe18,,,,,,,,,,,,./stim/wavs/mexican_match_declarative-broad-focus_Marta-abre-el-regalo.wav,0,,,159.7061,161.5558,0,1,1.34,,0,54,54,61,1,62,0,mexican,,,,,,,,,,,,,,,,,,,,,,,,,,,,,,,,,,,,,,,,,,,,,,,,,,,,,,,,
,,,,,,,,,67841f3e989c0c31c093bc05,Spanish,13 or older,"no, only English or Spanish",no,2025-08-12_16h27.20.390,empathy_intonation_perc_control,2024.2.4,Win32,60.24096386,67841f3e989c0c31c093bc05,68817205a84113384fffdfe3,689ba379ea3e2bcf140fbe18,,,,,,,,,,,,./stim/wavs/puertorican_match_interrogative-total-yn_David-leia-el-libro.wav,1,,,161.5565,163.656,0,0,1.5771,,0,55,55,20,1,21,1,puertorican,,,,,,,,,,,,,,,,,,,,,,,,,,,,,,,,,,,,,,,,,,,,,,,,,,,,,,,,
,,,,,,,,,67841f3e989c0c31c093bc05,Spanish,13 or older,"no, only English or Spanish",no,2025-08-12_16h27.20.390,empathy_intonation_perc_control,2024.2.4,Win32,60.24096386,67841f3e989c0c31c093bc05,68817205a84113384fffdfe3,689ba379ea3e2bcf140fbe18,,,,,,,,,,,,./stim/wavs/castilian_match_declarative-broad-focus_Mariano-habla-del-tiempo.wav,0,,,163.6566,165.6562,0,1,1.4763,,0,56,56,48,1,49,0,castilian,,,,,,,,,,,,,,,,,,,,,,,,,,,,,,,,,,,,,,,,,,,,,,,,,,,,,,,,
,,,,,,,,,67841f3e989c0c31c093bc05,Spanish,13 or older,"no, only English or Spanish",no,2025-08-12_16h27.20.390,empathy_intonation_perc_control,2024.2.4,Win32,60.24096386,67841f3e989c0c31c093bc05,68817205a84113384fffdfe3,689ba379ea3e2bcf140fbe18,,,,,,,,,,,,./stim/wavs/cuban_match_interrogative-total-yn_Ana-lleva-el-abrigo.wav,1,,,165.6568,167.5065,0,0,1.327,,0,57,57,6,1,7,1,cuban,,,,,,,,,,,,,,,,,,,,,,,,,,,,,,,,,,,,,,,,,,,,,,,,,,,,,,,,
,,,,,,,,,67841f3e989c0c31c093bc05,Spanish,13 or older,"no, only English or Spanish",no,2025-08-12_16h27.20.390,empathy_intonation_perc_control,2024.2.4,Win32,60.24096386,67841f3e989c0c31c093bc05,68817205a84113384fffdfe3,689ba379ea3e2bcf140fbe18,,,,,,,,,,,,./stim/wavs/cuban_mismatch_declarative-broad-focus_La-nina-lava-el-plato.wav,0,,,167.507,169.4901,0,1,1.4541,,0,58,58,75,1,76,0,cuban,,,,,,,,,,,,,,,,,,,,,,,,,,,,,,,,,,,,,,,,,,,,,,,,,,,,,,,,
,,,,,,,,,67841f3e989c0c31c093bc05,Spanish,13 or older,"no, only English or Spanish",no,2025-08-12_16h27.20.390,empathy_intonation_perc_control,2024.2.4,Win32,60.24096386,67841f3e989c0c31c093bc05,68817205a84113384fffdfe3,689ba379ea3e2bcf140fbe18,,,,,,,,,,,,./stim/wavs/mexican_match_declarative-broad-focus_Emilio-ama-la-marcha.wav,0,,,169.4908,171.6735,0,1,1.6606,,0,59,59,59,1,60,0,mexican,,,,,,,,,,,,,,,,,,,,,,,,,,,,,,,,,,,,,,,,,,,,,,,,,,,,,,,,
,,,,,,,,,67841f3e989c0c31c093bc05,Spanish,13 or older,"no, only English or Spanish",no,2025-08-12_16h27.20.390,empathy_intonation_perc_control,2024.2.4,Win32,60.24096386,67841f3e989c0c31c093bc05,68817205a84113384fffdfe3,689ba379ea3e2bcf140fbe18,,,,,,,,,,,,./stim/wavs/castilian_mismatch_interrogative-total-yn_Mi-novio-viene-del-lago.wav,1,,,171.674,173.8741,1,1,1.6693,,0,60,60,27,1,28,0,castilian,,,,,,,,,,,,,,,,,,,,,,,,,,,,,,,,,,,,,,,,,,,,,,,,,,,,,,,,
,,,,,,,,,67841f3e989c0c31c093bc05,Spanish,13 or older,"no, only English or Spanish",no,2025-08-12_16h27.20.390,empathy_intonation_perc_control,2024.2.4,Win32,60.24096386,67841f3e989c0c31c093bc05,68817205a84113384fffdfe3,689ba379ea3e2bcf140fbe18,,,,,,,,,,,,./stim/wavs/puertorican_match_interrogative-total-yn_Maria-bebe-el-vino.wav,1,,,173.8748,175.8242,0,0,1.4197,,0,61,61,23,1,24,1,puertorican,,,,,,,,,,,,,,,,,,,,,,,,,,,,,,,,,,,,,,,,,,,,,,,,,,,,,,,,
,,,,,,,,,67841f3e989c0c31c093bc05,Spanish,13 or older,"no, only English or Spanish",no,2025-08-12_16h27.20.390,empathy_intonation_perc_control,2024.2.4,Win32,60.24096386,67841f3e989c0c31c093bc05,68817205a84113384fffdfe3,689ba379ea3e2bcf140fbe18,,,,,,,,,,,,./stim/wavs/castilian_match_interrogative-total-yn_Manuela-vende-el-carro.wav,1,,,175.8259,178.0242,1,1,1.6707,,0,62,62,2,1,3,0,castilian,,,,,,,,,,,,,,,,,,,,,,,,,,,,,,,,,,,,,,,,,,,,,,,,,,,,,,,,
,,,,,,,,,67841f3e989c0c31c093bc05,Spanish,13 or older,"no, only English or Spanish",no,2025-08-12_16h27.20.390,empathy_intonation_perc_control,2024.2.4,Win32,60.24096386,67841f3e989c0c31c093bc05,68817205a84113384fffdfe3,689ba379ea3e2bcf140fbe18,,,,,,,,,,,,./stim/wavs/cuban_mismatch_declarative-broad-focus_El-hombre-mira-la-luna.wav,0,,,178.0249,180.0745,0,1,1.522,,0,63,63,74,1,75,0,cuban,,,,,,,,,,,,,,,,,,,,,,,,,,,,,,,,,,,,,,,,,,,,,,,,,,,,,,,,
,,,,,,,,,67841f3e989c0c31c093bc05,Spanish,13 or older,"no, only English or Spanish",no,2025-08-12_16h27.20.390,empathy_intonation_perc_control,2024.2.4,Win32,60.24096386,67841f3e989c0c31c093bc05,68817205a84113384fffdfe3,689ba379ea3e2bcf140fbe18,,,,,,,,,,,,./stim/wavs/mexican_mismatch_declarative-broad-focus_La-maestra-vive-en-Paris.wav,0,,,180.0752,182.2247,1,0,1.628,,0,64,64,80,1,81,0,mexican,,,,,,,,,,,,,,,,,,,,,,,,,,,,,,,,,,,,,,,,,,,,,,,,,,,,,,,,
,,,,,,,,,67841f3e989c0c31c093bc05,Spanish,13 or older,"no, only English or Spanish",no,2025-08-12_16h27.20.390,empathy_intonation_perc_control,2024.2.4,Win32,60.24096386,67841f3e989c0c31c093bc05,68817205a84113384fffdfe3,689ba379ea3e2bcf140fbe18,,,,,,,,,,,,./stim/wavs/castilian_match_declarative-broad-focus_Marta-abre-el-regalo.wav,0,,,182.2253,184.4582,0,1,1.7043,,0,65,65,49,1,50,0,castilian,,,,,,,,,,,,,,,,,,,,,,,,,,,,,,,,,,,,,,,,,,,,,,,,,,,,,,,,
,,,,,,,,,67841f3e989c0c31c093bc05,Spanish,13 or older,"no, only English or Spanish",no,2025-08-12_16h27.20.390,empathy_intonation_perc_control,2024.2.4,Win32,60.24096386,67841f3e989c0c31c093bc05,68817205a84113384fffdfe3,689ba379ea3e2bcf140fbe18,,,,,,,,,,,,./stim/wavs/cuban_mismatch_declarative-broad-focus_Mi-tia-odia-la-lluvia.wav,0,,,184.4588,186.6419,0,1,1.6512,,0,66,66,77,1,78,0,cuban,,,,,,,,,,,,,,,,,,,,,,,,,,,,,,,,,,,,,,,,,,,,,,,,,,,,,,,,
,,,,,,,,,67841f3e989c0c31c093bc05,Spanish,13 or older,"no, only English or Spanish",no,2025-08-12_16h27.20.390,empathy_intonation_perc_control,2024.2.4,Win32,60.24096386,67841f3e989c0c31c093bc05,68817205a84113384fffdfe3,689ba379ea3e2bcf140fbe18,,,,,,,,,,,,./stim/wavs/mexican_match_interrogative-total-yn_Marta-abre-el-regalo.wav,1,,,186.6424,188.5589,0,0,1.3892,,0,67,67,17,1,18,0,mexican,,,,,,,,,,,,,,,,,,,,,,,,,,,,,,,,,,,,,,,,,,,,,,,,,,,,,,,,
,,,,,,,,,67841f3e989c0c31c093bc05,Spanish,13 or older,"no, only English or Spanish",no,2025-08-12_16h27.20.390,empathy_intonation_perc_control,2024.2.4,Win32,60.24096386,67841f3e989c0c31c093bc05,68817205a84113384fffdfe3,689ba379ea3e2bcf140fbe18,,,,,,,,,,,,./stim/wavs/mexican_match_declarative-broad-focus_Ana-lleva-el-abrigo.wav,0,,,188.5595,190.5255,0,1,1.4357,,0,68,68,56,1,57,0,mexican,,,,,,,,,,,,,,,,,,,,,,,,,,,,,,,,,,,,,,,,,,,,,,,,,,,,,,,,
,,,,,,,,,67841f3e989c0c31c093bc05,Spanish,13 or older,"no, only English or Spanish",no,2025-08-12_16h27.20.390,empathy_intonation_perc_control,2024.2.4,Win32,60.24096386,67841f3e989c0c31c093bc05,68817205a84113384fffdfe3,689ba379ea3e2bcf140fbe18,,,,,,,,,,,,./stim/wavs/cuban_match_interrogative-total-yn_Daniel-iba-a-Bolivia.wav,1,,,190.5262,192.4591,0,0,1.4021,,0,69,69,7,1,8,1,cuban,,,,,,,,,,,,,,,,,,,,,,,,,,,,,,,,,,,,,,,,,,,,,,,,,,,,,,,,
,,,,,,,,,67841f3e989c0c31c093bc05,Spanish,13 or older,"no, only English or Spanish",no,2025-08-12_16h27.20.390,empathy_intonation_perc_control,2024.2.4,Win32,60.24096386,67841f3e989c0c31c093bc05,68817205a84113384fffdfe3,689ba379ea3e2bcf140fbe18,,,,,,,,,,,,./stim/wavs/castilian_match_interrogative-total-yn_Maria-bebe-el-vino.wav,1,,,192.4599,194.3263,1,1,1.3383,,0,70,70,3,1,4,0,castilian,,,,,,,,,,,,,,,,,,,,,,,,,,,,,,,,,,,,,,,,,,,,,,,,,,,,,,,,
,,,,,,,,,67841f3e989c0c31c093bc05,Spanish,13 or older,"no, only English or Spanish",no,2025-08-12_16h27.20.390,empathy_intonation_perc_control,2024.2.4,Win32,60.24096386,67841f3e989c0c31c093bc05,68817205a84113384fffdfe3,689ba379ea3e2bcf140fbe18,,,,,,,,,,,,./stim/wavs/cuban_match_interrogative-total-yn_Manuela-vende-el-carro.wav,1,,,194.3271,196.2928,0,0,1.4362,,0,71,71,8,1,9,1,cuban,,,,,,,,,,,,,,,,,,,,,,,,,,,,,,,,,,,,,,,,,,,,,,,,,,,,,,,,
,,,,,,,,,67841f3e989c0c31c093bc05,Spanish,13 or older,"no, only English or Spanish",no,2025-08-12_16h27.20.390,empathy_intonation_perc_control,2024.2.4,Win32,60.24096386,67841f3e989c0c31c093bc05,68817205a84113384fffdfe3,689ba379ea3e2bcf140fbe18,,,,,,,,,,,,./stim/wavs/castilian_match_declarative-broad-focus_Maria-bebe-el-vino.wav,0,,,196.2935,198.3262,1,0,1.5115,,0,72,72,47,1,48,0,castilian,,,,,,,,,,,,,,,,,,,,,,,,,,,,,,,,,,,,,,,,,,,,,,,,,,,,,,,,
,,,,,,,,,67841f3e989c0c31c093bc05,Spanish,13 or older,"no, only English or Spanish",no,2025-08-12_16h27.20.390,empathy_intonation_perc_control,2024.2.4,Win32,60.24096386,67841f3e989c0c31c093bc05,68817205a84113384fffdfe3,689ba379ea3e2bcf140fbe18,,,,,,,,,,,,./stim/wavs/mexican_mismatch_declarative-broad-focus_Mi-tia-odia-la-lluvia.wav,0,,,198.3267,200.3269,0,1,1.4793,,0,73,73,82,1,83,0,mexican,,,,,,,,,,,,,,,,,,,,,,,,,,,,,,,,,,,,,,,,,,,,,,,,,,,,,,,,
,,,,,,,,,67841f3e989c0c31c093bc05,Spanish,13 or older,"no, only English or Spanish",no,2025-08-12_16h27.20.390,empathy_intonation_perc_control,2024.2.4,Win32,60.24096386,67841f3e989c0c31c093bc05,68817205a84113384fffdfe3,689ba379ea3e2bcf140fbe18,,,,,,,,,,,,./stim/wavs/castilian_mismatch_interrogative-total-yn_Mi-tia-odia-la-lluvia.wav,1,,,200.3278,202.5434,1,1,1.694,,0,74,74,28,1,29,0,castilian,,,,,,,,,,,,,,,,,,,,,,,,,,,,,,,,,,,,,,,,,,,,,,,,,,,,,,,,
,,,,,,,,,67841f3e989c0c31c093bc05,Spanish,13 or older,"no, only English or Spanish",no,2025-08-12_16h27.20.390,empathy_intonation_perc_control,2024.2.4,Win32,60.24096386,67841f3e989c0c31c093bc05,68817205a84113384fffdfe3,689ba379ea3e2bcf140fbe18,,,,,,,,,,,,./stim/wavs/cuban_mismatch_interrogative-total-yn_Mi-madre-come-la-fruta.wav,1,,,202.5439,204.6102,0,0,1.545,,0,75,75,31,1,32,1,cuban,,,,,,,,,,,,,,,,,,,,,,,,,,,,,,,,,,,,,,,,,,,,,,,,,,,,,,,,
,,,,,,,,,67841f3e989c0c31c093bc05,Spanish,13 or older,"no, only English or Spanish",no,2025-08-12_16h27.20.390,empathy_intonation_perc_control,2024.2.4,Win32,60.24096386,67841f3e989c0c31c093bc05,68817205a84113384fffdfe3,689ba379ea3e2bcf140fbe18,,,,,,,,,,,,./stim/wavs/puertorican_mismatch_interrogative-total-yn_La-maestra-vive-en-Paris.wav,1,,,204.6106,206.8272,0,0,1.6857,,0,76,76,41,1,42,1,puertorican,,,,,,,,,,,,,,,,,,,,,,,,,,,,,,,,,,,,,,,,,,,,,,,,,,,,,,,,
,,,,,,,,,67841f3e989c0c31c093bc05,Spanish,13 or older,"no, only English or Spanish",no,2025-08-12_16h27.20.390,empathy_intonation_perc_control,2024.2.4,Win32,60.24096386,67841f3e989c0c31c093bc05,68817205a84113384fffdfe3,689ba379ea3e2bcf140fbe18,,,,,,,,,,,,./stim/wavs/cuban_match_interrogative-total-yn_Maria-bebe-el-vino.wav,1,,,206.8279,208.9109,0,0,1.5533,,0,77,77,9,1,10,1,cuban,,,,,,,,,,,,,,,,,,,,,,,,,,,,,,,,,,,,,,,,,,,,,,,,,,,,,,,,
,,,,,,,,,67841f3e989c0c31c093bc05,Spanish,13 or older,"no, only English or Spanish",no,2025-08-12_16h27.20.390,empathy_intonation_perc_control,2024.2.4,Win32,60.24096386,67841f3e989c0c31c093bc05,68817205a84113384fffdfe3,689ba379ea3e2bcf140fbe18,,,,,,,,,,,,./stim/wavs/mexican_match_declarative-broad-focus_Mariano-habla-del-tiempo.wav,0,,,208.9114,210.9445,0,1,1.5017,,0,78,78,60,1,61,0,mexican,,,,,,,,,,,,,,,,,,,,,,,,,,,,,,,,,,,,,,,,,,,,,,,,,,,,,,,,
,,,,,,,,,67841f3e989c0c31c093bc05,Spanish,13 or older,"no, only English or Spanish",no,2025-08-12_16h27.20.390,empathy_intonation_perc_control,2024.2.4,Win32,60.24096386,67841f3e989c0c31c093bc05,68817205a84113384fffdfe3,689ba379ea3e2bcf140fbe18,,,,,,,,,,,,./stim/wavs/cuban_mismatch_interrogative-total-yn_Mi-tia-odia-la-lluvia.wav,1,,,210.9452,212.8777,0,0,1.4017,,0,79,79,33,1,34,1,cuban,,,,,,,,,,,,,,,,,,,,,,,,,,,,,,,,,,,,,,,,,,,,,,,,,,,,,,,,
,,,,,,,,,67841f3e989c0c31c093bc05,Spanish,13 or older,"no, only English or Spanish",no,2025-08-12_16h27.20.390,empathy_intonation_perc_control,2024.2.4,Win32,60.24096386,67841f3e989c0c31c093bc05,68817205a84113384fffdfe3,689ba379ea3e2bcf140fbe18,,,,,,,,,,,,./stim/wavs/castilian_mismatch_declarative-broad-focus_La-maestra-vive-en-Paris.wav,0,,,212.8782,215.178,0,1,1.7835,,0,80,80,69,1,70,0,castilian,,,,,,,,,,,,,,,,,,,,,,,,,,,,,,,,,,,,,,,,,,,,,,,,,,,,,,,,
,,,,,,,,,67841f3e989c0c31c093bc05,Spanish,13 or older,"no, only English or Spanish",no,2025-08-12_16h27.20.390,empathy_intonation_perc_control,2024.2.4,Win32,60.24096386,67841f3e989c0c31c093bc05,68817205a84113384fffdfe3,689ba379ea3e2bcf140fbe18,,,,,,,,,,,,./stim/wavs/mexican_mismatch_interrogative-total-yn_El-nino-oye-el-rio.wav,1,,,215.1785,217.2617,1,1,1.5726,,0,81,81,35,1,36,0,mexican,,,,,,,,,,,,,,,,,,,,,,,,,,,,,,,,,,,,,,,,,,,,,,,,,,,,,,,,
,,,,,,,,,67841f3e989c0c31c093bc05,Spanish,13 or older,"no, only English or Spanish",no,2025-08-12_16h27.20.390,empathy_intonation_perc_control,2024.2.4,Win32,60.24096386,67841f3e989c0c31c093bc05,68817205a84113384fffdfe3,689ba379ea3e2bcf140fbe18,,,,,,,,,,,,./stim/wavs/mexican_match_declarative-broad-focus_David-leia-el-libro.wav,0,,,217.2624,219.3284,0,1,1.54,,0,82,82,58,1,59,0,mexican,,,,,,,,,,,,,,,,,,,,,,,,,,,,,,,,,,,,,,,,,,,,,,,,,,,,,,,,
,,,,,,,,,67841f3e989c0c31c093bc05,Spanish,13 or older,"no, only English or Spanish",no,2025-08-12_16h27.20.390,empathy_intonation_perc_control,2024.2.4,Win32,60.24096386,67841f3e989c0c31c093bc05,68817205a84113384fffdfe3,689ba379ea3e2bcf140fbe18,,,,,,,,,,,,./stim/wavs/cuban_match_declarative-broad-focus_Manuela-vende-el-carro.wav,0,,,219.3289,221.4121,0,1,1.5598,,0,83,83,52,1,53,0,cuban,,,,,,,,,,,,,,,,,,,,,,,,,,,,,,,,,,,,,,,,,,,,,,,,,,,,,,,,
,,,,,,,,,67841f3e989c0c31c093bc05,Spanish,13 or older,"no, only English or Spanish",no,2025-08-12_16h27.20.390,empathy_intonation_perc_control,2024.2.4,Win32,60.24096386,67841f3e989c0c31c093bc05,68817205a84113384fffdfe3,689ba379ea3e2bcf140fbe18,,,,,,,,,,,,./stim/wavs/cuban_match_interrogative-total-yn_Marta-abre-el-regalo.wav,1,,,221.4127,223.3621,0,0,1.4212,,0,84,84,11,1,12,1,cuban,,,,,,,,,,,,,,,,,,,,,,,,,,,,,,,,,,,,,,,,,,,,,,,,,,,,,,,,
,,,,,,,,,67841f3e989c0c31c093bc05,Spanish,13 or older,"no, only English or Spanish",no,2025-08-12_16h27.20.390,empathy_intonation_perc_control,2024.2.4,Win32,60.24096386,67841f3e989c0c31c093bc05,68817205a84113384fffdfe3,689ba379ea3e2bcf140fbe18,,,,,,,,,,,,./stim/wavs/mexican_mismatch_declarative-broad-focus_El-hombre-mira-la-luna.wav,0,,,223.3627,225.5124,0,1,1.6297,,0,85,85,79,1,80,0,mexican,,,,,,,,,,,,,,,,,,,,,,,,,,,,,,,,,,,,,,,,,,,,,,,,,,,,,,,,
,,,,,,,,,67841f3e989c0c31c093bc05,Spanish,13 or older,"no, only English or Spanish",no,2025-08-12_16h27.20.390,empathy_intonation_perc_control,2024.2.4,Win32,60.24096386,67841f3e989c0c31c093bc05,68817205a84113384fffdfe3,689ba379ea3e2bcf140fbe18,,,,,,,,,,,,./stim/wavs/puertorican_mismatch_declarative-broad-focus_El-hombre-mira-la-luna.wav,0,,,225.5128,227.5959,0,1,1.553,,0,86,86,84,1,85,0,puertorican,,,,,,,,,,,,,,,,,,,,,,,,,,,,,,,,,,,,,,,,,,,,,,,,,,,,,,,,
,,,,,,,,,67841f3e989c0c31c093bc05,Spanish,13 or older,"no, only English or Spanish",no,2025-08-12_16h27.20.390,empathy_intonation_perc_control,2024.2.4,Win32,60.24096386,67841f3e989c0c31c093bc05,68817205a84113384fffdfe3,689ba379ea3e2bcf140fbe18,,,,,,,,,,,,./stim/wavs/castilian_match_interrogative-total-yn_David-leia-el-libro.wav,1,,,227.5966,229.713,1,1,1.5984,,0,87,87,0,1,1,0,castilian,,,,,,,,,,,,,,,,,,,,,,,,,,,,,,,,,,,,,,,,,,,,,,,,,,,,,,,,
,,,,,,,"Great! Now we will move on. The next task consists of about 60 trials, in each of which you will see a string of letters. 
  
  Your task is to decide whether this is a real Spanish word or not.", (press the spacebar to continue),67841f3e989c0c31c093bc05,Spanish,13 or older,"no, only English or Spanish",no,2025-08-12_16h27.20.390,empathy_intonation_perc_control,2024.2.4,Win32,60.24096386,67841f3e989c0c31c093bc05,68817205a84113384fffdfe3,689ba379ea3e2bcf140fbe18,,,,,,,,,,,,,,,,,,,,,,,,,,,,,,229.7183,237.6974,0,0,0,0,1,,,,,,,,,,,,,,,,,,,,,,,,,,,,,,,,,,,,,,,,,,,,,,,,,
,,,,,,,"If you think it is an existing Spanish word, you type '1' (for 'REAL'), and if you think it is not an existing Spanish word, you type '0' (for 'FAKE').", (press the spacebar to continue),67841f3e989c0c31c093bc05,Spanish,13 or older,"no, only English or Spanish",no,2025-08-12_16h27.20.390,empathy_intonation_perc_control,2024.2.4,Win32,60.24096386,67841f3e989c0c31c093bc05,68817205a84113384fffdfe3,689ba379ea3e2bcf140fbe18,,,,,,,,,,,,,,,,,,,,,,,,,,,,,,237.7022,244.0476,0,1,1,1,1,,,,,,,,,,,,,,,,,,,,,,,,,,,,,,,,,,,,,,,,,,,,,,,,,
,,,,,,,"If you are sure that the word exists, even though you don’t know its exact meaning, you may still respond '1' (REAL). 
  
  But if you are not sure if it is an existing word, you should respond '0' (FAKE).
  
  Let's do a practice round...", (press the spacebar to continue),67841f3e989c0c31c093bc05,Spanish,13 or older,"no, only English or Spanish",no,2025-08-12_16h27.20.390,empathy_intonation_perc_control,2024.2.4,Win32,60.24096386,67841f3e989c0c31c093bc05,68817205a84113384fffdfe3,689ba379ea3e2bcf140fbe18,,,,,,,,,,,,,,,,,,,,,,,,,,,,,,244.0502,252.5486,0,2,2,2,1,,,,,,,,,,,,,,,,,,,,,,,,,,,,,,,,,,,,,,,,,,,,,,,,,
,,,,,,,,,67841f3e989c0c31c093bc05,Spanish,13 or older,"no, only English or Spanish",no,2025-08-12_16h27.20.390,empathy_intonation_perc_control,2024.2.4,Win32,60.24096386,67841f3e989c0c31c093bc05,68817205a84113384fffdfe3,689ba379ea3e2bcf140fbe18,,,,,,,,,,,,,0,,,,,,,,,,,,,,,,,,,,,,,,252.554,255.8826,0,1,2.8002,,255.883,256.8825,0,0,0,0,1,0,depiste,REAL,FAKE,,,,,,,,,,,,,,,,,,,,,,,,,,,,,,,,
,,,,,,,,,67841f3e989c0c31c093bc05,Spanish,13 or older,"no, only English or Spanish",no,2025-08-12_16h27.20.390,empathy_intonation_perc_control,2024.2.4,Win32,60.24096386,67841f3e989c0c31c093bc05,68817205a84113384fffdfe3,689ba379ea3e2bcf140fbe18,,,,,,,,,,,,,1,,,,,,,,,,,,,,,,,,,,,,,,256.8875,258.2492,1,1,0.8333,,258.2493,259.2491,0,1,1,1,1,0,sí,REAL,FAKE,,,,,,,,,,,,,,,,,,,,,,,,,,,,,,,,
,,,,,,,,,67841f3e989c0c31c093bc05,Spanish,13 or older,"no, only English or Spanish",no,2025-08-12_16h27.20.390,empathy_intonation_perc_control,2024.2.4,Win32,60.24096386,67841f3e989c0c31c093bc05,68817205a84113384fffdfe3,689ba379ea3e2bcf140fbe18,,,,,,,,,,,,,0,,,,,,,,,,,,,,,,,,,,,,,,259.2511,260.4828,0,1,0.7026,,260.4829,261.4826,0,2,2,2,1,0,coné,REAL,FAKE,,,,,,,,,,,,,,,,,,,,,,,,,,,,,,,,
,,,,,,,,,67841f3e989c0c31c093bc05,Spanish,13 or older,"no, only English or Spanish",no,2025-08-12_16h27.20.390,empathy_intonation_perc_control,2024.2.4,Win32,60.24096386,67841f3e989c0c31c093bc05,68817205a84113384fffdfe3,689ba379ea3e2bcf140fbe18,,,,,,,,,,,,,0,,,,,,,,,,,,,,,,,,,,,,,,261.4845,263.0997,1,0,1.0835,,263.1015,264.0999,0,3,3,3,1,0,calpar,REAL,FAKE,,,,,,,,,,,,,,,,,,,,,,,,,,,,,,,,
,,,,,,,,,67841f3e989c0c31c093bc05,Spanish,13 or older,"no, only English or Spanish",no,2025-08-12_16h27.20.390,empathy_intonation_perc_control,2024.2.4,Win32,60.24096386,67841f3e989c0c31c093bc05,68817205a84113384fffdfe3,689ba379ea3e2bcf140fbe18,,,,,,,,,,,,,0,,,,,,,,,,,,,,,,,,,,,,,,264.1016,265.5166,0,1,0.887,,265.5172,266.5175,0,4,4,4,1,0,joten,REAL,FAKE,,,,,,,,,,,,,,,,,,,,,,,,,,,,,,,,
,,,,,,,,,67841f3e989c0c31c093bc05,Spanish,13 or older,"no, only English or Spanish",no,2025-08-12_16h27.20.390,empathy_intonation_perc_control,2024.2.4,Win32,60.24096386,67841f3e989c0c31c093bc05,68817205a84113384fffdfe3,689ba379ea3e2bcf140fbe18,,,,,,,,,,,,,1,,,,,,,,,,,,,,,,,,,,,,,,266.5189,268.35,0,0,1.3069,,268.3507,269.3502,0,5,5,5,1,0,sacapuntas,REAL,FAKE,,,,,,,,,,,,,,,,,,,,,,,,,,,,,,,,
,,,,,,,,,67841f3e989c0c31c093bc05,Spanish,13 or older,"no, only English or Spanish",no,2025-08-12_16h27.20.390,empathy_intonation_perc_control,2024.2.4,Win32,60.24096386,67841f3e989c0c31c093bc05,68817205a84113384fffdfe3,689ba379ea3e2bcf140fbe18,,,,,,,,,,,,,0,,,,,,,,,,,,,,,,,,,,,,,,269.3538,270.8178,0,1,0.94,,270.8185,271.8172,0,6,6,6,1,0,priba,REAL,FAKE,,,,,,,,,,,,,,,,,,,,,,,,,,,,,,,,
,,,,,,,,,67841f3e989c0c31c093bc05,Spanish,13 or older,"no, only English or Spanish",no,2025-08-12_16h27.20.390,empathy_intonation_perc_control,2024.2.4,Win32,60.24096386,67841f3e989c0c31c093bc05,68817205a84113384fffdfe3,689ba379ea3e2bcf140fbe18,,,,,,,,,,,,,0,,,,,,,,,,,,,,,,,,,,,,,,271.8188,273.3505,0,1,1.0097,,273.3506,274.3509,0,7,7,7,1,0,pelasula,REAL,FAKE,,,,,,,,,,,,,,,,,,,,,,,,,,,,,,,,
,,,,,,,,,67841f3e989c0c31c093bc05,Spanish,13 or older,"no, only English or Spanish",no,2025-08-12_16h27.20.390,empathy_intonation_perc_control,2024.2.4,Win32,60.24096386,67841f3e989c0c31c093bc05,68817205a84113384fffdfe3,689ba379ea3e2bcf140fbe18,,,,,,,,,,,,,1,,,,,,,,,,,,,,,,,,,,,,,,274.3523,275.5181,1,1,0.6344,,275.5182,276.5176,0,8,8,8,1,0,bien,REAL,FAKE,,,,,,,,,,,,,,,,,,,,,,,,,,,,,,,,
,,,,,,,,,67841f3e989c0c31c093bc05,Spanish,13 or older,"no, only English or Spanish",no,2025-08-12_16h27.20.390,empathy_intonation_perc_control,2024.2.4,Win32,60.24096386,67841f3e989c0c31c093bc05,68817205a84113384fffdfe3,689ba379ea3e2bcf140fbe18,,,,,,,,,,,,,1,,,,,,,,,,,,,,,,,,,,,,,,276.5188,277.5678,1,1,0.5181,,277.5678,278.5676,0,9,9,9,1,0,casa,REAL,FAKE,,,,,,,,,,,,,,,,,,,,,,,,,,,,,,,,
,,,,,,,,,67841f3e989c0c31c093bc05,Spanish,13 or older,"no, only English or Spanish",no,2025-08-12_16h27.20.390,empathy_intonation_perc_control,2024.2.4,Win32,60.24096386,67841f3e989c0c31c093bc05,68817205a84113384fffdfe3,689ba379ea3e2bcf140fbe18,,,,,,,,,,,,,0,,,,,,,,,,,,,,,,,,,,,,,,278.5685,279.6845,0,1,0.5884,,279.6846,280.6847,0,10,10,10,1,0,lejo,REAL,FAKE,,,,,,,,,,,,,,,,,,,,,,,,,,,,,,,,
,,,,,,,,,67841f3e989c0c31c093bc05,Spanish,13 or older,"no, only English or Spanish",no,2025-08-12_16h27.20.390,empathy_intonation_perc_control,2024.2.4,Win32,60.24096386,67841f3e989c0c31c093bc05,68817205a84113384fffdfe3,689ba379ea3e2bcf140fbe18,,,,,,,,,,,,,0,,,,,,,,,,,,,,,,,,,,,,,,280.6861,282.4519,0,1,1.2333,,282.4521,283.4517,0,11,11,11,1,0,pretantas,REAL,FAKE,,,,,,,,,,,,,,,,,,,,,,,,,,,,,,,,
,,,,,,,,,67841f3e989c0c31c093bc05,Spanish,13 or older,"no, only English or Spanish",no,2025-08-12_16h27.20.390,empathy_intonation_perc_control,2024.2.4,Win32,60.24096386,67841f3e989c0c31c093bc05,68817205a84113384fffdfe3,689ba379ea3e2bcf140fbe18,,,,,,,,,,,,,,,,,,,,,,,,,,,,,,,,,,,,,,,,,,,,,,,,,,,,,,283.452,284.9695,,,,,,,,,,,,,,,,,,,,,,,,,,,,,,
,,,,,,,,,67841f3e989c0c31c093bc05,Spanish,13 or older,"no, only English or Spanish",no,2025-08-12_16h27.20.390,empathy_intonation_perc_control,2024.2.4,Win32,60.24096386,67841f3e989c0c31c093bc05,68817205a84113384fffdfe3,689ba379ea3e2bcf140fbe18,,,,,,,,,,,,,1,,,,,,,,,,,,,,,,,,,,,,,,,,,,,,,,,,,,,78,frondoso,,,,,284.9778,286.402,0,0,0.906,,0,0,0,77,1,REAL,FAKE,,,,,,,,,,,,,,,,,
,,,,,,,,,67841f3e989c0c31c093bc05,Spanish,13 or older,"no, only English or Spanish",no,2025-08-12_16h27.20.390,empathy_intonation_perc_control,2024.2.4,Win32,60.24096386,67841f3e989c0c31c093bc05,68817205a84113384fffdfe3,689ba379ea3e2bcf140fbe18,,,,,,,,,,,,,1,,,,,,,,,,,,,,,,,,,,,,,,,,,,,,,,,,,,,88,acantilado,,,,,286.4037,288.6358,0,0,1.6992,,0,1,1,87,1,REAL,FAKE,,,,,,,,,,,,,,,,,
,,,,,,,,,67841f3e989c0c31c093bc05,Spanish,13 or older,"no, only English or Spanish",no,2025-08-12_16h27.20.390,empathy_intonation_perc_control,2024.2.4,Win32,60.24096386,67841f3e989c0c31c093bc05,68817205a84113384fffdfe3,689ba379ea3e2bcf140fbe18,,,,,,,,,,,,,1,,,,,,,,,,,,,,,,,,,,,,,,,,,,,,,,,,,,,62,flaco,,,,,288.637,291.0025,1,1,1.8331,,0,2,2,61,1,REAL,FAKE,,,,,,,,,,,,,,,,,
,,,,,,,,,67841f3e989c0c31c093bc05,Spanish,13 or older,"no, only English or Spanish",no,2025-08-12_16h27.20.390,empathy_intonation_perc_control,2024.2.4,Win32,60.24096386,67841f3e989c0c31c093bc05,68817205a84113384fffdfe3,689ba379ea3e2bcf140fbe18,,,,,,,,,,,,,1,,,,,,,,,,,,,,,,,,,,,,,,,,,,,,,,,,,,,6,tergiversar,,,,,291.0053,292.7857,0,0,1.256,,0,3,3,5,1,REAL,FAKE,,,,,,,,,,,,,,,,,
,,,,,,,,,67841f3e989c0c31c093bc05,Spanish,13 or older,"no, only English or Spanish",no,2025-08-12_16h27.20.390,empathy_intonation_perc_control,2024.2.4,Win32,60.24096386,67841f3e989c0c31c093bc05,68817205a84113384fffdfe3,689ba379ea3e2bcf140fbe18,,,,,,,,,,,,,0,,,,,,,,,,,,,,,,,,,,,,,,,,,,,,,,,,,,,19,brecedad,,,,,292.7868,294.5196,0,1,1.2139,,0,4,4,18,1,REAL,FAKE,,,,,,,,,,,,,,,,,
,,,,,,,,,67841f3e989c0c31c093bc05,Spanish,13 or older,"no, only English or Spanish",no,2025-08-12_16h27.20.390,empathy_intonation_perc_control,2024.2.4,Win32,60.24096386,67841f3e989c0c31c093bc05,68817205a84113384fffdfe3,689ba379ea3e2bcf140fbe18,,,,,,,,,,,,,1,,,,,,,,,,,,,,,,,,,,,,,,,,,,,,,,,,,,,45,jilguero,,,,,294.5224,296.3195,0,0,1.2758,,0,5,5,44,1,REAL,FAKE,,,,,,,,,,,,,,,,,
,,,,,,,,,67841f3e989c0c31c093bc05,Spanish,13 or older,"no, only English or Spanish",no,2025-08-12_16h27.20.390,empathy_intonation_perc_control,2024.2.4,Win32,60.24096386,67841f3e989c0c31c093bc05,68817205a84113384fffdfe3,689ba379ea3e2bcf140fbe18,,,,,,,,,,,,,0,,,,,,,,,,,,,,,,,,,,,,,,,,,,,,,,,,,,,10,antar,,,,,296.3211,297.8532,1,0,1.0007,,0,6,6,9,1,REAL,FAKE,,,,,,,,,,,,,,,,,
,,,,,,,,,67841f3e989c0c31c093bc05,Spanish,13 or older,"no, only English or Spanish",no,2025-08-12_16h27.20.390,empathy_intonation_perc_control,2024.2.4,Win32,60.24096386,67841f3e989c0c31c093bc05,68817205a84113384fffdfe3,689ba379ea3e2bcf140fbe18,,,,,,,,,,,,,1,,,,,,,,,,,,,,,,,,,,,,,,,,,,,,,,,,,,,89,prisa,,,,,297.8543,299.1199,1,1,0.7335,,0,7,7,88,1,REAL,FAKE,,,,,,,,,,,,,,,,,
,,,,,,,,,67841f3e989c0c31c093bc05,Spanish,13 or older,"no, only English or Spanish",no,2025-08-12_16h27.20.390,empathy_intonation_perc_control,2024.2.4,Win32,60.24096386,67841f3e989c0c31c093bc05,68817205a84113384fffdfe3,689ba379ea3e2bcf140fbe18,,,,,,,,,,,,,1,,,,,,,,,,,,,,,,,,,,,,,,,,,,,,,,,,,,,12,asesinato,,,,,299.1215,301.0707,0,0,1.4285,,0,8,8,11,1,REAL,FAKE,,,,,,,,,,,,,,,,,
,,,,,,,,,67841f3e989c0c31c093bc05,Spanish,13 or older,"no, only English or Spanish",no,2025-08-12_16h27.20.390,empathy_intonation_perc_control,2024.2.4,Win32,60.24096386,67841f3e989c0c31c093bc05,68817205a84113384fffdfe3,689ba379ea3e2bcf140fbe18,,,,,,,,,,,,,0,,,,,,,,,,,,,,,,,,,,,,,,,,,,,,,,,,,,,30,alardio,,,,,301.0727,303.2704,1,0,1.6661,,0,9,9,29,1,REAL,FAKE,,,,,,,,,,,,,,,,,
,,,,,,,,,67841f3e989c0c31c093bc05,Spanish,13 or older,"no, only English or Spanish",no,2025-08-12_16h27.20.390,empathy_intonation_perc_control,2024.2.4,Win32,60.24096386,67841f3e989c0c31c093bc05,68817205a84113384fffdfe3,689ba379ea3e2bcf140fbe18,,,,,,,,,,,,,0,,,,,,,,,,,,,,,,,,,,,,,,,,,,,,,,,,,,,70,temblo,,,,,303.272,305.6206,0,1,1.8243,,0,10,10,69,1,REAL,FAKE,,,,,,,,,,,,,,,,,
,,,,,,,,,67841f3e989c0c31c093bc05,Spanish,13 or older,"no, only English or Spanish",no,2025-08-12_16h27.20.390,empathy_intonation_perc_control,2024.2.4,Win32,60.24096386,67841f3e989c0c31c093bc05,68817205a84113384fffdfe3,689ba379ea3e2bcf140fbe18,,,,,,,,,,,,,1,,,,,,,,,,,,,,,,,,,,,,,,,,,,,,,,,,,,,31,pandilla,,,,,305.6217,307.1372,0,0,0.993,,0,11,11,30,1,REAL,FAKE,,,,,,,,,,,,,,,,,
,,,,,,,,,67841f3e989c0c31c093bc05,Spanish,13 or older,"no, only English or Spanish",no,2025-08-12_16h27.20.390,empathy_intonation_perc_control,2024.2.4,Win32,60.24096386,67841f3e989c0c31c093bc05,68817205a84113384fffdfe3,689ba379ea3e2bcf140fbe18,,,,,,,,,,,,,1,,,,,,,,,,,,,,,,,,,,,,,,,,,,,,,,,,,,,48,ladrón,,,,,307.1389,309.4047,0,0,1.7348,,0,12,12,47,1,REAL,FAKE,,,,,,,,,,,,,,,,,
,,,,,,,,,67841f3e989c0c31c093bc05,Spanish,13 or older,"no, only English or Spanish",no,2025-08-12_16h27.20.390,empathy_intonation_perc_control,2024.2.4,Win32,60.24096386,67841f3e989c0c31c093bc05,68817205a84113384fffdfe3,689ba379ea3e2bcf140fbe18,,,,,,,,,,,,,0,,,,,,,,,,,,,,,,,,,,,,,,,,,,,,,,,,,,,63,esposante,,,,,309.4054,311.6213,0,1,1.6812,,0,13,13,62,1,REAL,FAKE,,,,,,,,,,,,,,,,,
,,,,,,,,,67841f3e989c0c31c093bc05,Spanish,13 or older,"no, only English or Spanish",no,2025-08-12_16h27.20.390,empathy_intonation_perc_control,2024.2.4,Win32,60.24096386,67841f3e989c0c31c093bc05,68817205a84113384fffdfe3,689ba379ea3e2bcf140fbe18,,,,,,,,,,,,,1,,,,,,,,,,,,,,,,,,,,,,,,,,,,,,,,,,,,,39,torpe,,,,,311.6225,313.3215,1,1,1.1719,,0,14,14,38,1,REAL,FAKE,,,,,,,,,,,,,,,,,
,,,,,,,,,67841f3e989c0c31c093bc05,Spanish,13 or older,"no, only English or Spanish",no,2025-08-12_16h27.20.390,empathy_intonation_perc_control,2024.2.4,Win32,60.24096386,67841f3e989c0c31c093bc05,68817205a84113384fffdfe3,689ba379ea3e2bcf140fbe18,,,,,,,,,,,,,1,,,,,,,,,,,,,,,,,,,,,,,,,,,,,,,,,,,,,75,yacer,,,,,313.324,314.9548,0,0,1.0987,,0,15,15,74,1,REAL,FAKE,,,,,,,,,,,,,,,,,
,,,,,,,,,67841f3e989c0c31c093bc05,Spanish,13 or older,"no, only English or Spanish",no,2025-08-12_16h27.20.390,empathy_intonation_perc_control,2024.2.4,Win32,60.24096386,67841f3e989c0c31c093bc05,68817205a84113384fffdfe3,689ba379ea3e2bcf140fbe18,,,,,,,,,,,,,0,,,,,,,,,,,,,,,,,,,,,,,,,,,,,,,,,,,,,84,escuto,,,,,314.956,316.6221,0,1,1.147,,0,16,16,83,1,REAL,FAKE,,,,,,,,,,,,,,,,,
,,,,,,,,,67841f3e989c0c31c093bc05,Spanish,13 or older,"no, only English or Spanish",no,2025-08-12_16h27.20.390,empathy_intonation_perc_control,2024.2.4,Win32,60.24096386,67841f3e989c0c31c093bc05,68817205a84113384fffdfe3,689ba379ea3e2bcf140fbe18,,,,,,,,,,,,,1,,,,,,,,,,,,,,,,,,,,,,,,,,,,,,,,,,,,,28,merodear,,,,,316.6234,318.2385,0,0,1.0912,,0,17,17,27,1,REAL,FAKE,,,,,,,,,,,,,,,,,
,,,,,,,,,67841f3e989c0c31c093bc05,Spanish,13 or older,"no, only English or Spanish",no,2025-08-12_16h27.20.390,empathy_intonation_perc_control,2024.2.4,Win32,60.24096386,67841f3e989c0c31c093bc05,68817205a84113384fffdfe3,689ba379ea3e2bcf140fbe18,,,,,,,,,,,,,0,,,,,,,,,,,,,,,,,,,,,,,,,,,,,,,,,,,,,66,hacido,,,,,318.2399,319.7053,1,0,0.9379,,0,18,18,65,1,REAL,FAKE,,,,,,,,,,,,,,,,,
,,,,,,,,,67841f3e989c0c31c093bc05,Spanish,13 or older,"no, only English or Spanish",no,2025-08-12_16h27.20.390,empathy_intonation_perc_control,2024.2.4,Win32,60.24096386,67841f3e989c0c31c093bc05,68817205a84113384fffdfe3,689ba379ea3e2bcf140fbe18,,,,,,,,,,,,,1,,,,,,,,,,,,,,,,,,,,,,,,,,,,,,,,,,,,,26,secuestro,,,,,319.7067,321.6056,0,0,1.3837,,0,19,19,25,1,REAL,FAKE,,,,,,,,,,,,,,,,,
,,,,,,,,,67841f3e989c0c31c093bc05,Spanish,13 or older,"no, only English or Spanish",no,2025-08-12_16h27.20.390,empathy_intonation_perc_control,2024.2.4,Win32,60.24096386,67841f3e989c0c31c093bc05,68817205a84113384fffdfe3,689ba379ea3e2bcf140fbe18,,,,,,,,,,,,,0,,,,,,,,,,,,,,,,,,,,,,,,,,,,,,,,,,,,,29,decar,,,,,321.6068,322.8889,1,0,0.7662,,0,20,20,28,1,REAL,FAKE,,,,,,,,,,,,,,,,,
,,,,,,,,,67841f3e989c0c31c093bc05,Spanish,13 or older,"no, only English or Spanish",no,2025-08-12_16h27.20.390,empathy_intonation_perc_control,2024.2.4,Win32,60.24096386,67841f3e989c0c31c093bc05,68817205a84113384fffdfe3,689ba379ea3e2bcf140fbe18,,,,,,,,,,,,,0,,,,,,,,,,,,,,,,,,,,,,,,,,,,,,,,,,,,,82,empirador,,,,,322.8901,325.1561,1,0,1.7329,,0,21,21,81,1,REAL,FAKE,,,,,,,,,,,,,,,,,
,,,,,,,,,67841f3e989c0c31c093bc05,Spanish,13 or older,"no, only English or Spanish",no,2025-08-12_16h27.20.390,empathy_intonation_perc_control,2024.2.4,Win32,60.24096386,67841f3e989c0c31c093bc05,68817205a84113384fffdfe3,689ba379ea3e2bcf140fbe18,,,,,,,,,,,,,1,,,,,,,,,,,,,,,,,,,,,,,,,,,,,,,,,,,,,51,candado,,,,,325.1573,327.1397,1,1,1.4538,,0,22,22,50,1,REAL,FAKE,,,,,,,,,,,,,,,,,
,,,,,,,,,67841f3e989c0c31c093bc05,Spanish,13 or older,"no, only English or Spanish",no,2025-08-12_16h27.20.390,empathy_intonation_perc_control,2024.2.4,Win32,60.24096386,67841f3e989c0c31c093bc05,68817205a84113384fffdfe3,689ba379ea3e2bcf140fbe18,,,,,,,,,,,,,0,,,,,,,,,,,,,,,,,,,,,,,,,,,,,,,,,,,,,27,acutación,,,,,327.1407,328.6564,0,1,0.9822,,0,23,23,26,1,REAL,FAKE,,,,,,,,,,,,,,,,,
,,,,,,,,,67841f3e989c0c31c093bc05,Spanish,13 or older,"no, only English or Spanish",no,2025-08-12_16h27.20.390,empathy_intonation_perc_control,2024.2.4,Win32,60.24096386,67841f3e989c0c31c093bc05,68817205a84113384fffdfe3,689ba379ea3e2bcf140fbe18,,,,,,,,,,,,,0,,,,,,,,,,,,,,,,,,,,,,,,,,,,,,,,,,,,,18,arsa,,,,,328.6576,330.1232,1,0,0.9347,,0,24,24,17,1,REAL,FAKE,,,,,,,,,,,,,,,,,
,,,,,,,,,67841f3e989c0c31c093bc05,Spanish,13 or older,"no, only English or Spanish",no,2025-08-12_16h27.20.390,empathy_intonation_perc_control,2024.2.4,Win32,60.24096386,67841f3e989c0c31c093bc05,68817205a84113384fffdfe3,689ba379ea3e2bcf140fbe18,,,,,,,,,,,,,1,,,,,,,,,,,,,,,,,,,,,,,,,,,,,,,,,,,,,54,fomentar,,,,,330.1243,331.7733,0,0,1.1198,,0,25,25,53,1,REAL,FAKE,,,,,,,,,,,,,,,,,
,,,,,,,,,67841f3e989c0c31c093bc05,Spanish,13 or older,"no, only English or Spanish",no,2025-08-12_16h27.20.390,empathy_intonation_perc_control,2024.2.4,Win32,60.24096386,67841f3e989c0c31c093bc05,68817205a84113384fffdfe3,689ba379ea3e2bcf140fbe18,,,,,,,,,,,,,1,,,,,,,,,,,,,,,,,,,,,,,,,,,,,,,,,,,,,68,alegre,,,,,331.775,334.74,0,0,2.4421,,0,26,26,67,1,REAL,FAKE,,,,,,,,,,,,,,,,,
,,,,,,,,,67841f3e989c0c31c093bc05,Spanish,13 or older,"no, only English or Spanish",no,2025-08-12_16h27.20.390,empathy_intonation_perc_control,2024.2.4,Win32,60.24096386,67841f3e989c0c31c093bc05,68817205a84113384fffdfe3,689ba379ea3e2bcf140fbe18,,,,,,,,,,,,,1,,,,,,,,,,,,,,,,,,,,,,,,,,,,,,,,,,,,,14,yunque,,,,,334.741,336.0236,0,0,0.7475,,0,27,27,13,1,REAL,FAKE,,,,,,,,,,,,,,,,,
,,,,,,,,,67841f3e989c0c31c093bc05,Spanish,13 or older,"no, only English or Spanish",no,2025-08-12_16h27.20.390,empathy_intonation_perc_control,2024.2.4,Win32,60.24096386,67841f3e989c0c31c093bc05,68817205a84113384fffdfe3,689ba379ea3e2bcf140fbe18,,,,,,,,,,,,,1,,,,,,,,,,,,,,,,,,,,,,,,,,,,,,,,,,,,,5,zapato,,,,,336.0261,337.3405,1,1,0.7839,,0,28,28,4,1,REAL,FAKE,,,,,,,,,,,,,,,,,
,,,,,,,,,67841f3e989c0c31c093bc05,Spanish,13 or older,"no, only English or Spanish",no,2025-08-12_16h27.20.390,empathy_intonation_perc_control,2024.2.4,Win32,60.24096386,67841f3e989c0c31c093bc05,68817205a84113384fffdfe3,689ba379ea3e2bcf140fbe18,,,,,,,,,,,,,0,,,,,,,,,,,,,,,,,,,,,,,,,,,,,,,,,,,,,32,fatacidad,,,,,337.3414,339.7406,1,0,1.8759,,0,29,29,31,1,REAL,FAKE,,,,,,,,,,,,,,,,,
,,,,,,,,,67841f3e989c0c31c093bc05,Spanish,13 or older,"no, only English or Spanish",no,2025-08-12_16h27.20.390,empathy_intonation_perc_control,2024.2.4,Win32,60.24096386,67841f3e989c0c31c093bc05,68817205a84113384fffdfe3,689ba379ea3e2bcf140fbe18,,,,,,,,,,,,,1,,,,,,,,,,,,,,,,,,,,,,,,,,,,,,,,,,,,,56,musgo,,,,,339.7414,340.9741,0,0,0.7229,,0,30,30,55,1,REAL,FAKE,,,,,,,,,,,,,,,,,
,,,,,,,,,67841f3e989c0c31c093bc05,Spanish,13 or older,"no, only English or Spanish",no,2025-08-12_16h27.20.390,empathy_intonation_perc_control,2024.2.4,Win32,60.24096386,67841f3e989c0c31c093bc05,68817205a84113384fffdfe3,689ba379ea3e2bcf140fbe18,,,,,,,,,,,,,1,,,,,,,,,,,,,,,,,,,,,,,,,,,,,,,,,,,,,59,besar,,,,,340.9751,342.591,0,0,1.0823,,0,31,31,58,1,REAL,FAKE,,,,,,,,,,,,,,,,,
,,,,,,,,,67841f3e989c0c31c093bc05,Spanish,13 or older,"no, only English or Spanish",no,2025-08-12_16h27.20.390,empathy_intonation_perc_control,2024.2.4,Win32,60.24096386,67841f3e989c0c31c093bc05,68817205a84113384fffdfe3,689ba379ea3e2bcf140fbe18,,,,,,,,,,,,,0,,,,,,,,,,,,,,,,,,,,,,,,,,,,,,,,,,,,,8,cadeña,,,,,342.593,344.2578,0,1,1.1341,,0,32,32,7,1,REAL,FAKE,,,,,,,,,,,,,,,,,
,,,,,,,,,67841f3e989c0c31c093bc05,Spanish,13 or older,"no, only English or Spanish",no,2025-08-12_16h27.20.390,empathy_intonation_perc_control,2024.2.4,Win32,60.24096386,67841f3e989c0c31c093bc05,68817205a84113384fffdfe3,689ba379ea3e2bcf140fbe18,,,,,,,,,,,,,1,,,,,,,,,,,,,,,,,,,,,,,,,,,,,,,,,,,,,38,estornudar,,,,,344.2588,345.858,0,0,1.066,,0,33,33,37,1,REAL,FAKE,,,,,,,,,,,,,,,,,
,,,,,,,,,67841f3e989c0c31c093bc05,Spanish,13 or older,"no, only English or Spanish",no,2025-08-12_16h27.20.390,empathy_intonation_perc_control,2024.2.4,Win32,60.24096386,67841f3e989c0c31c093bc05,68817205a84113384fffdfe3,689ba379ea3e2bcf140fbe18,,,,,,,,,,,,,1,,,,,,,,,,,,,,,,,,,,,,,,,,,,,,,,,,,,,85,laúd,,,,,345.8603,347.1252,0,0,0.7419,,0,34,34,84,1,REAL,FAKE,,,,,,,,,,,,,,,,,
,,,,,,,,,67841f3e989c0c31c093bc05,Spanish,13 or older,"no, only English or Spanish",no,2025-08-12_16h27.20.390,empathy_intonation_perc_control,2024.2.4,Win32,60.24096386,67841f3e989c0c31c093bc05,68817205a84113384fffdfe3,689ba379ea3e2bcf140fbe18,,,,,,,,,,,,,1,,,,,,,,,,,,,,,,,,,,,,,,,,,,,,,,,,,,,7,pésimo,,,,,347.1272,349.0589,0,0,1.401,,0,35,35,6,1,REAL,FAKE,,,,,,,,,,,,,,,,,
,,,,,,,,,67841f3e989c0c31c093bc05,Spanish,13 or older,"no, only English or Spanish",no,2025-08-12_16h27.20.390,empathy_intonation_perc_control,2024.2.4,Win32,60.24096386,67841f3e989c0c31c093bc05,68817205a84113384fffdfe3,689ba379ea3e2bcf140fbe18,,,,,,,,,,,,,1,,,,,,,,,,,,,,,,,,,,,,,,,,,,,,,,,,,,,80,hormiga,,,,,349.0603,350.2251,0,0,0.6334,,0,36,36,79,1,REAL,FAKE,,,,,,,,,,,,,,,,,
,,,,,,,,,67841f3e989c0c31c093bc05,Spanish,13 or older,"no, only English or Spanish",no,2025-08-12_16h27.20.390,empathy_intonation_perc_control,2024.2.4,Win32,60.24096386,67841f3e989c0c31c093bc05,68817205a84113384fffdfe3,689ba379ea3e2bcf140fbe18,,,,,,,,,,,,,1,,,,,,,,,,,,,,,,,,,,,,,,,,,,,,,,,,,,,77,tiburón,,,,,350.2262,351.4754,0,0,0.7187,,0,37,37,76,1,REAL,FAKE,,,,,,,,,,,,,,,,,
,,,,,,,,,67841f3e989c0c31c093bc05,Spanish,13 or older,"no, only English or Spanish",no,2025-08-12_16h27.20.390,empathy_intonation_perc_control,2024.2.4,Win32,60.24096386,67841f3e989c0c31c093bc05,68817205a84113384fffdfe3,689ba379ea3e2bcf140fbe18,,,,,,,,,,,,,0,,,,,,,,,,,,,,,,,,,,,,,,,,,,,,,,,,,,,17,floroso,,,,,351.4764,353.0921,0,1,1.0871,,0,38,38,16,1,REAL,FAKE,,,,,,,,,,,,,,,,,
,,,,,,,,,67841f3e989c0c31c093bc05,Spanish,13 or older,"no, only English or Spanish",no,2025-08-12_16h27.20.390,empathy_intonation_perc_control,2024.2.4,Win32,60.24096386,67841f3e989c0c31c093bc05,68817205a84113384fffdfe3,689ba379ea3e2bcf140fbe18,,,,,,,,,,,,,1,,,,,,,,,,,,,,,,,,,,,,,,,,,,,,,,,,,,,69,engatusar,,,,,353.0936,354.542,0,0,0.9254,,0,39,39,68,1,REAL,FAKE,,,,,,,,,,,,,,,,,
,,,,,,,,,67841f3e989c0c31c093bc05,Spanish,13 or older,"no, only English or Spanish",no,2025-08-12_16h27.20.390,empathy_intonation_perc_control,2024.2.4,Win32,60.24096386,67841f3e989c0c31c093bc05,68817205a84113384fffdfe3,689ba379ea3e2bcf140fbe18,,,,,,,,,,,,,1,,,,,,,,,,,,,,,,,,,,,,,,,,,,,,,,,,,,,9,hacha,,,,,354.5431,355.8755,0,0,0.8259,,0,40,40,8,1,REAL,FAKE,,,,,,,,,,,,,,,,,
,,,,,,,,,67841f3e989c0c31c093bc05,Spanish,13 or older,"no, only English or Spanish",no,2025-08-12_16h27.20.390,empathy_intonation_perc_control,2024.2.4,Win32,60.24096386,67841f3e989c0c31c093bc05,68817205a84113384fffdfe3,689ba379ea3e2bcf140fbe18,,,,,,,,,,,,,0,,,,,,,,,,,,,,,,,,,,,,,,,,,,,,,,,,,,,79,tropaje,,,,,355.8766,357.6596,0,1,1.2669,,0,41,41,78,1,REAL,FAKE,,,,,,,,,,,,,,,,,
,,,,,,,,,67841f3e989c0c31c093bc05,Spanish,13 or older,"no, only English or Spanish",no,2025-08-12_16h27.20.390,empathy_intonation_perc_control,2024.2.4,Win32,60.24096386,67841f3e989c0c31c093bc05,68817205a84113384fffdfe3,689ba379ea3e2bcf140fbe18,,,,,,,,,,,,,1,,,,,,,,,,,,,,,,,,,,,,,,,,,,,,,,,,,,,13,helar,,,,,357.6609,359.1096,0,0,0.9222,,0,42,42,12,1,REAL,FAKE,,,,,,,,,,,,,,,,,
,,,,,,,,,67841f3e989c0c31c093bc05,Spanish,13 or older,"no, only English or Spanish",no,2025-08-12_16h27.20.390,empathy_intonation_perc_control,2024.2.4,Win32,60.24096386,67841f3e989c0c31c093bc05,68817205a84113384fffdfe3,689ba379ea3e2bcf140fbe18,,,,,,,,,,,,,0,,,,,,,,,,,,,,,,,,,,,,,,,,,,,,,,,,,,,87,grodo,,,,,359.1107,360.4099,0,1,0.7756,,0,43,43,86,1,REAL,FAKE,,,,,,,,,,,,,,,,,
,,,,,,,,,67841f3e989c0c31c093bc05,Spanish,13 or older,"no, only English or Spanish",no,2025-08-12_16h27.20.390,empathy_intonation_perc_control,2024.2.4,Win32,60.24096386,67841f3e989c0c31c093bc05,68817205a84113384fffdfe3,689ba379ea3e2bcf140fbe18,,,,,,,,,,,,,1,,,,,,,,,,,,,,,,,,,,,,,,,,,,,,,,,,,,,40,alfombra,,,,,360.4114,361.6094,0,0,0.6638,,0,44,44,39,1,REAL,FAKE,,,,,,,,,,,,,,,,,
,,,,,,,,,67841f3e989c0c31c093bc05,Spanish,13 or older,"no, only English or Spanish",no,2025-08-12_16h27.20.390,empathy_intonation_perc_control,2024.2.4,Win32,60.24096386,67841f3e989c0c31c093bc05,68817205a84113384fffdfe3,689ba379ea3e2bcf140fbe18,,,,,,,,,,,,,0,,,,,,,,,,,,,,,,,,,,,,,,,,,,,,,,,,,,,35,rompido,,,,,361.6104,364.1102,0,1,1.9663,,0,45,45,34,1,REAL,FAKE,,,,,,,,,,,,,,,,,
,,,,,,,,,67841f3e989c0c31c093bc05,Spanish,13 or older,"no, only English or Spanish",no,2025-08-12_16h27.20.390,empathy_intonation_perc_control,2024.2.4,Win32,60.24096386,67841f3e989c0c31c093bc05,68817205a84113384fffdfe3,689ba379ea3e2bcf140fbe18,,,,,,,,,,,,,1,,,,,,,,,,,,,,,,,,,,,,,,,,,,,,,,,,,,,36,loro,,,,,364.1114,365.5266,1,1,0.8903,,0,46,46,35,1,REAL,FAKE,,,,,,,,,,,,,,,,,
,,,,,,,,,67841f3e989c0c31c093bc05,Spanish,13 or older,"no, only English or Spanish",no,2025-08-12_16h27.20.390,empathy_intonation_perc_control,2024.2.4,Win32,60.24096386,67841f3e989c0c31c093bc05,68817205a84113384fffdfe3,689ba379ea3e2bcf140fbe18,,,,,,,,,,,,,1,,,,,,,,,,,,,,,,,,,,,,,,,,,,,,,,,,,,,86,barato,,,,,365.5281,367.0269,0,0,0.975,,0,47,47,85,1,REAL,FAKE,,,,,,,,,,,,,,,,,
,,,,,,,,,67841f3e989c0c31c093bc05,Spanish,13 or older,"no, only English or Spanish",no,2025-08-12_16h27.20.390,empathy_intonation_perc_control,2024.2.4,Win32,60.24096386,67841f3e989c0c31c093bc05,68817205a84113384fffdfe3,689ba379ea3e2bcf140fbe18,,,,,,,,,,,,,0,,,,,,,,,,,,,,,,,,,,,,,,,,,,,,,,,,,,,4,batillón,,,,,367.0283,368.7102,0,1,1.1514,,0,48,48,3,1,REAL,FAKE,,,,,,,,,,,,,,,,,
,,,,,,,,,67841f3e989c0c31c093bc05,Spanish,13 or older,"no, only English or Spanish",no,2025-08-12_16h27.20.390,empathy_intonation_perc_control,2024.2.4,Win32,60.24096386,67841f3e989c0c31c093bc05,68817205a84113384fffdfe3,689ba379ea3e2bcf140fbe18,,,,,,,,,,,,,1,,,,,,,,,,,,,,,,,,,,,,,,,,,,,,,,,,,,,34,aviso,,,,,368.7113,369.9772,0,0,0.7331,,0,49,49,33,1,REAL,FAKE,,,,,,,,,,,,,,,,,
,,,,,,,,,67841f3e989c0c31c093bc05,Spanish,13 or older,"no, only English or Spanish",no,2025-08-12_16h27.20.390,empathy_intonation_perc_control,2024.2.4,Win32,60.24096386,67841f3e989c0c31c093bc05,68817205a84113384fffdfe3,689ba379ea3e2bcf140fbe18,,,,,,,,,,,,,1,,,,,,,,,,,,,,,,,,,,,,,,,,,,,,,,,,,,,76,atar,,,,,369.9788,371.5445,0,0,1.034,,0,50,50,75,1,REAL,FAKE,,,,,,,,,,,,,,,,,
,,,,,,,,,67841f3e989c0c31c093bc05,Spanish,13 or older,"no, only English or Spanish",no,2025-08-12_16h27.20.390,empathy_intonation_perc_control,2024.2.4,Win32,60.24096386,67841f3e989c0c31c093bc05,68817205a84113384fffdfe3,689ba379ea3e2bcf140fbe18,,,,,,,,,,,,,0,,,,,,,,,,,,,,,,,,,,,,,,,,,,,,,,,,,,,16,abracer,,,,,371.5453,372.9444,0,1,0.8724,,0,51,51,15,1,REAL,FAKE,,,,,,,,,,,,,,,,,
,,,,,,,,,67841f3e989c0c31c093bc05,Spanish,13 or older,"no, only English or Spanish",no,2025-08-12_16h27.20.390,empathy_intonation_perc_control,2024.2.4,Win32,60.24096386,67841f3e989c0c31c093bc05,68817205a84113384fffdfe3,689ba379ea3e2bcf140fbe18,,,,,,,,,,,,,0,,,,,,,,,,,,,,,,,,,,,,,,,,,,,,,,,,,,,72,pemición,,,,,372.9453,374.2943,0,1,0.8212,,0,52,52,71,1,REAL,FAKE,,,,,,,,,,,,,,,,,
,,,,,,,,,67841f3e989c0c31c093bc05,Spanish,13 or older,"no, only English or Spanish",no,2025-08-12_16h27.20.390,empathy_intonation_perc_control,2024.2.4,Win32,60.24096386,67841f3e989c0c31c093bc05,68817205a84113384fffdfe3,689ba379ea3e2bcf140fbe18,,,,,,,,,,,,,1,,,,,,,,,,,,,,,,,,,,,,,,,,,,,,,,,,,,,60,matar,,,,,374.2956,375.4111,0,0,0.5848,,0,53,53,59,1,REAL,FAKE,,,,,,,,,,,,,,,,,
,,,,,,,,,67841f3e989c0c31c093bc05,Spanish,13 or older,"no, only English or Spanish",no,2025-08-12_16h27.20.390,empathy_intonation_perc_control,2024.2.4,Win32,60.24096386,67841f3e989c0c31c093bc05,68817205a84113384fffdfe3,689ba379ea3e2bcf140fbe18,,,,,,,,,,,,,1,,,,,,,,,,,,,,,,,,,,,,,,,,,,,,,,,,,,,71,polvoriento,,,,,375.4119,376.645,0,0,0.7009,,0,54,54,70,1,REAL,FAKE,,,,,,,,,,,,,,,,,
,,,,,,,,,67841f3e989c0c31c093bc05,Spanish,13 or older,"no, only English or Spanish",no,2025-08-12_16h27.20.390,empathy_intonation_perc_control,2024.2.4,Win32,60.24096386,67841f3e989c0c31c093bc05,68817205a84113384fffdfe3,689ba379ea3e2bcf140fbe18,,,,,,,,,,,,,1,,,,,,,,,,,,,,,,,,,,,,,,,,,,,,,,,,,,,61,seda,,,,,376.646,378.0114,0,0,0.8341,,0,55,55,60,1,REAL,FAKE,,,,,,,,,,,,,,,,,
,,,,,,,,,67841f3e989c0c31c093bc05,Spanish,13 or older,"no, only English or Spanish",no,2025-08-12_16h27.20.390,empathy_intonation_perc_control,2024.2.4,Win32,60.24096386,67841f3e989c0c31c093bc05,68817205a84113384fffdfe3,689ba379ea3e2bcf140fbe18,,,,,,,,,,,,,1,,,,,,,,,,,,,,,,,,,,,,,,,,,,,,,,,,,,,91,click the 1 key.,,,,,378.0138,379.9948,1,1,1.4665,,0,56,56,90,1,REAL,FAKE,,,,,,,,,,,,,,,,,
,,,,,,,,,67841f3e989c0c31c093bc05,Spanish,13 or older,"no, only English or Spanish",no,2025-08-12_16h27.20.390,empathy_intonation_perc_control,2024.2.4,Win32,60.24096386,67841f3e989c0c31c093bc05,68817205a84113384fffdfe3,689ba379ea3e2bcf140fbe18,,,,,,,,,,,,,1,,,,,,,,,,,,,,,,,,,,,,,,,,,,,,,,,,,,,22,lacayo,,,,,379.996,381.7283,0,0,1.2001,,0,57,57,21,1,REAL,FAKE,,,,,,,,,,,,,,,,,
,,,,,,,,,67841f3e989c0c31c093bc05,Spanish,13 or older,"no, only English or Spanish",no,2025-08-12_16h27.20.390,empathy_intonation_perc_control,2024.2.4,Win32,60.24096386,67841f3e989c0c31c093bc05,68817205a84113384fffdfe3,689ba379ea3e2bcf140fbe18,,,,,,,,,,,,,0,,,,,,,,,,,,,,,,,,,,,,,,,,,,,,,,,,,,,23,lampera,,,,,381.7297,383.2119,0,1,0.9517,,0,58,58,22,1,REAL,FAKE,,,,,,,,,,,,,,,,,
,,,,,,,,,67841f3e989c0c31c093bc05,Spanish,13 or older,"no, only English or Spanish",no,2025-08-12_16h27.20.390,empathy_intonation_perc_control,2024.2.4,Win32,60.24096386,67841f3e989c0c31c093bc05,68817205a84113384fffdfe3,689ba379ea3e2bcf140fbe18,,,,,,,,,,,,,1,,,,,,,,,,,,,,,,,,,,,,,,,,,,,,,,,,,,,65,bizcocho,,,,,383.2135,384.4452,0,0,0.7073,,0,59,59,64,1,REAL,FAKE,,,,,,,,,,,,,,,,,
,,,,,,,,,67841f3e989c0c31c093bc05,Spanish,13 or older,"no, only English or Spanish",no,2025-08-12_16h27.20.390,empathy_intonation_perc_control,2024.2.4,Win32,60.24096386,67841f3e989c0c31c093bc05,68817205a84113384fffdfe3,689ba379ea3e2bcf140fbe18,,,,,,,,,,,,,1,,,,,,,,,,,,,,,,,,,,,,,,,,,,,,,,,,,,,25,bisagra,,,,,384.4459,385.7288,0,0,0.7578,,0,60,60,24,1,REAL,FAKE,,,,,,,,,,,,,,,,,
,,,,,,,,,67841f3e989c0c31c093bc05,Spanish,13 or older,"no, only English or Spanish",no,2025-08-12_16h27.20.390,empathy_intonation_perc_control,2024.2.4,Win32,60.24096386,67841f3e989c0c31c093bc05,68817205a84113384fffdfe3,689ba379ea3e2bcf140fbe18,,,,,,,,,,,,,1,,,,,,,,,,,,,,,,,,,,,,,,,,,,,,,,,,,,,11,cenefa,,,,,385.7301,386.8623,0,0,0.6037,,0,61,61,10,1,REAL,FAKE,,,,,,,,,,,,,,,,,
,,,,,,,,,67841f3e989c0c31c093bc05,Spanish,13 or older,"no, only English or Spanish",no,2025-08-12_16h27.20.390,empathy_intonation_perc_control,2024.2.4,Win32,60.24096386,67841f3e989c0c31c093bc05,68817205a84113384fffdfe3,689ba379ea3e2bcf140fbe18,,,,,,,,,,,,,1,,,,,,,,,,,,,,,,,,,,,,,,,,,,,,,,,,,,,46,martillo,,,,,386.8638,388.279,1,1,0.8855,,0,62,62,45,1,REAL,FAKE,,,,,,,,,,,,,,,,,
,,,,,,,,,67841f3e989c0c31c093bc05,Spanish,13 or older,"no, only English or Spanish",no,2025-08-12_16h27.20.390,empathy_intonation_perc_control,2024.2.4,Win32,60.24096386,67841f3e989c0c31c093bc05,68817205a84113384fffdfe3,689ba379ea3e2bcf140fbe18,,,,,,,,,,,,,0,,,,,,,,,,,,,,,,,,,,,,,,,,,,,,,,,,,,,21,capillo,,,,,388.2802,389.579,1,0,0.7731,,0,63,63,20,1,REAL,FAKE,,,,,,,,,,,,,,,,,
,,,,,,,,,67841f3e989c0c31c093bc05,Spanish,13 or older,"no, only English or Spanish",no,2025-08-12_16h27.20.390,empathy_intonation_perc_control,2024.2.4,Win32,60.24096386,67841f3e989c0c31c093bc05,68817205a84113384fffdfe3,689ba379ea3e2bcf140fbe18,,,,,,,,,,,,,0,,,,,,,,,,,,,,,,,,,,,,,,,,,,,,,,,,,,,50,flamida,,,,,389.5798,391.013,0,1,0.903,,0,64,64,49,1,REAL,FAKE,,,,,,,,,,,,,,,,,
,,,,,,,,,67841f3e989c0c31c093bc05,Spanish,13 or older,"no, only English or Spanish",no,2025-08-12_16h27.20.390,empathy_intonation_perc_control,2024.2.4,Win32,60.24096386,67841f3e989c0c31c093bc05,68817205a84113384fffdfe3,689ba379ea3e2bcf140fbe18,,,,,,,,,,,,,0,,,,,,,,,,,,,,,,,,,,,,,,,,,,,,,,,,,,,47,cartinar,,,,,391.0142,392.6294,0,1,1.0807,,0,65,65,46,1,REAL,FAKE,,,,,,,,,,,,,,,,,
,,,,,,,,,67841f3e989c0c31c093bc05,Spanish,13 or older,"no, only English or Spanish",no,2025-08-12_16h27.20.390,empathy_intonation_perc_control,2024.2.4,Win32,60.24096386,67841f3e989c0c31c093bc05,68817205a84113384fffdfe3,689ba379ea3e2bcf140fbe18,,,,,,,,,,,,,1,,,,,,,,,,,,,,,,,,,,,,,,,,,,,,,,,,,,,57,tacaño,,,,,392.6309,393.9467,0,0,0.7848,,0,66,66,56,1,REAL,FAKE,,,,,,,,,,,,,,,,,
,,,,,,,,,67841f3e989c0c31c093bc05,Spanish,13 or older,"no, only English or Spanish",no,2025-08-12_16h27.20.390,empathy_intonation_perc_control,2024.2.4,Win32,60.24096386,67841f3e989c0c31c093bc05,68817205a84113384fffdfe3,689ba379ea3e2bcf140fbe18,,,,,,,,,,,,,1,,,,,,,,,,,,,,,,,,,,,,,,,,,,,,,,,,,,,81,pozo,,,,,393.9482,395.1464,1,1,0.6688,,0,67,67,80,1,REAL,FAKE,,,,,,,,,,,,,,,,,
,,,,,,,,,67841f3e989c0c31c093bc05,Spanish,13 or older,"no, only English or Spanish",no,2025-08-12_16h27.20.390,empathy_intonation_perc_control,2024.2.4,Win32,60.24096386,67841f3e989c0c31c093bc05,68817205a84113384fffdfe3,689ba379ea3e2bcf140fbe18,,,,,,,,,,,,,1,,,,,,,,,,,,,,,,,,,,,,,,,,,,,,,,,,,,,15,regar,,,,,395.1475,396.2804,1,1,0.6052,,0,68,68,14,1,REAL,FAKE,,,,,,,,,,,,,,,,,
,,,,,,,,,67841f3e989c0c31c093bc05,Spanish,13 or older,"no, only English or Spanish",no,2025-08-12_16h27.20.390,empathy_intonation_perc_control,2024.2.4,Win32,60.24096386,67841f3e989c0c31c093bc05,68817205a84113384fffdfe3,689ba379ea3e2bcf140fbe18,,,,,,,,,,,,,1,,,,,,,,,,,,,,,,,,,,,,,,,,,,,,,,,,,,,20,ávido,,,,,396.2822,397.4965,0,0,0.6825,,0,69,69,19,1,REAL,FAKE,,,,,,,,,,,,,,,,,
,,,,,,,,,67841f3e989c0c31c093bc05,Spanish,13 or older,"no, only English or Spanish",no,2025-08-12_16h27.20.390,empathy_intonation_perc_control,2024.2.4,Win32,60.24096386,67841f3e989c0c31c093bc05,68817205a84113384fffdfe3,689ba379ea3e2bcf140fbe18,,,,,,,,,,,,,0,,,,,,,,,,,,,,,,,,,,,,,,,,,,,,,,,,,,,74,cintro,,,,,397.4975,398.7301,0,1,0.7034,,0,70,70,73,1,REAL,FAKE,,,,,,,,,,,,,,,,,
,,,,,,,,,67841f3e989c0c31c093bc05,Spanish,13 or older,"no, only English or Spanish",no,2025-08-12_16h27.20.390,empathy_intonation_perc_control,2024.2.4,Win32,60.24096386,67841f3e989c0c31c093bc05,68817205a84113384fffdfe3,689ba379ea3e2bcf140fbe18,,,,,,,,,,,,,1,,,,,,,,,,,,,,,,,,,,,,,,,,,,,,,,,,,,,49,ganar,,,,,398.7313,399.9635,1,1,0.7008,,0,71,71,48,1,REAL,FAKE,,,,,,,,,,,,,,,,,
,,,,,,,,,67841f3e989c0c31c093bc05,Spanish,13 or older,"no, only English or Spanish",no,2025-08-12_16h27.20.390,empathy_intonation_perc_control,2024.2.4,Win32,60.24096386,67841f3e989c0c31c093bc05,68817205a84113384fffdfe3,689ba379ea3e2bcf140fbe18,,,,,,,,,,,,,1,,,,,,,,,,,,,,,,,,,,,,,,,,,,,,,,,,,,,41,rebuscar,,,,,399.9652,401.7473,0,0,1.2521,,0,72,72,40,1,REAL,FAKE,,,,,,,,,,,,,,,,,
,,,,,,,,,67841f3e989c0c31c093bc05,Spanish,13 or older,"no, only English or Spanish",no,2025-08-12_16h27.20.390,empathy_intonation_perc_control,2024.2.4,Win32,60.24096386,67841f3e989c0c31c093bc05,68817205a84113384fffdfe3,689ba379ea3e2bcf140fbe18,,,,,,,,,,,,,1,,,,,,,,,,,,,,,,,,,,,,,,,,,,,,,,,,,,,64,orgulloso,,,,,401.7486,403.9307,1,1,1.6532,,0,73,73,63,1,REAL,FAKE,,,,,,,,,,,,,,,,,
,,,,,,,,,67841f3e989c0c31c093bc05,Spanish,13 or older,"no, only English or Spanish",no,2025-08-12_16h27.20.390,empathy_intonation_perc_control,2024.2.4,Win32,60.24096386,67841f3e989c0c31c093bc05,68817205a84113384fffdfe3,689ba379ea3e2bcf140fbe18,,,,,,,,,,,,,1,,,,,,,,,,,,,,,,,,,,,,,,,,,,,,,,,,,,,52,camisa,,,,,403.9319,405.1473,1,1,0.6838,,0,74,74,51,1,REAL,FAKE,,,,,,,,,,,,,,,,,
,,,,,,,,,67841f3e989c0c31c093bc05,Spanish,13 or older,"no, only English or Spanish",no,2025-08-12_16h27.20.390,empathy_intonation_perc_control,2024.2.4,Win32,60.24096386,67841f3e989c0c31c093bc05,68817205a84113384fffdfe3,689ba379ea3e2bcf140fbe18,,,,,,,,,,,,,1,,,,,,,,,,,,,,,,,,,,,,,,,,,,,,,,,,,,,44,cuchara,,,,,405.1486,406.3976,0,0,0.7178,,0,75,75,43,1,REAL,FAKE,,,,,,,,,,,,,,,,,
,,,,,,,,,67841f3e989c0c31c093bc05,Spanish,13 or older,"no, only English or Spanish",no,2025-08-12_16h27.20.390,empathy_intonation_perc_control,2024.2.4,Win32,60.24096386,67841f3e989c0c31c093bc05,68817205a84113384fffdfe3,689ba379ea3e2bcf140fbe18,,,,,,,,,,,,,1,,,,,,,,,,,,,,,,,,,,,,,,,,,,,,,,,,,,,55,nevar,,,,,406.3987,408.2479,1,1,1.3154,,0,76,76,54,1,REAL,FAKE,,,,,,,,,,,,,,,,,
,,,,,,,,,67841f3e989c0c31c093bc05,Spanish,13 or older,"no, only English or Spanish",no,2025-08-12_16h27.20.390,empathy_intonation_perc_control,2024.2.4,Win32,60.24096386,67841f3e989c0c31c093bc05,68817205a84113384fffdfe3,689ba379ea3e2bcf140fbe18,,,,,,,,,,,,,1,,,,,,,,,,,,,,,,,,,,,,,,,,,,,,,,,,,,,43,canela,,,,,408.249,409.9646,1,1,1.1857,,0,77,77,42,1,REAL,FAKE,,,,,,,,,,,,,,,,,
,,,,,,,,,67841f3e989c0c31c093bc05,Spanish,13 or older,"no, only English or Spanish",no,2025-08-12_16h27.20.390,empathy_intonation_perc_control,2024.2.4,Win32,60.24096386,67841f3e989c0c31c093bc05,68817205a84113384fffdfe3,689ba379ea3e2bcf140fbe18,,,,,,,,,,,,,0,,,,,,,,,,,,,,,,,,,,,,,,,,,,,,,,,,,,,42,cadallo,,,,,409.966,411.3313,1,0,0.8372,,0,78,78,41,1,REAL,FAKE,,,,,,,,,,,,,,,,,
,,,,,,,,,67841f3e989c0c31c093bc05,Spanish,13 or older,"no, only English or Spanish",no,2025-08-12_16h27.20.390,empathy_intonation_perc_control,2024.2.4,Win32,60.24096386,67841f3e989c0c31c093bc05,68817205a84113384fffdfe3,689ba379ea3e2bcf140fbe18,,,,,,,,,,,,,1,,,,,,,,,,,,,,,,,,,,,,,,,,,,,,,,,,,,,37,granuja,,,,,411.3323,412.8151,1,1,0.9493,,0,79,79,36,1,REAL,FAKE,,,,,,,,,,,,,,,,,
,,,,,,,,,67841f3e989c0c31c093bc05,Spanish,13 or older,"no, only English or Spanish",no,2025-08-12_16h27.20.390,empathy_intonation_perc_control,2024.2.4,Win32,60.24096386,67841f3e989c0c31c093bc05,68817205a84113384fffdfe3,689ba379ea3e2bcf140fbe18,,,,,,,,,,,,,0,,,,,,,,,,,,,,,,,,,,,,,,,,,,,,,,,,,,,33,pauca,,,,,412.8171,413.9983,0,1,0.6511,,0,80,80,32,1,REAL,FAKE,,,,,,,,,,,,,,,,,
,,,,,,,,,67841f3e989c0c31c093bc05,Spanish,13 or older,"no, only English or Spanish",no,2025-08-12_16h27.20.390,empathy_intonation_perc_control,2024.2.4,Win32,60.24096386,67841f3e989c0c31c093bc05,68817205a84113384fffdfe3,689ba379ea3e2bcf140fbe18,,,,,,,,,,,,,1,,,,,,,,,,,,,,,,,,,,,,,,,,,,,,,,,,,,,24,látigo,,,,,413.9993,415.3656,0,0,0.8327,,0,81,81,23,1,REAL,FAKE,,,,,,,,,,,,,,,,,
,,,,,,,,,67841f3e989c0c31c093bc05,Spanish,13 or older,"no, only English or Spanish",no,2025-08-12_16h27.20.390,empathy_intonation_perc_control,2024.2.4,Win32,60.24096386,67841f3e989c0c31c093bc05,68817205a84113384fffdfe3,689ba379ea3e2bcf140fbe18,,,,,,,,,,,,,1,,,,,,,,,,,,,,,,,,,,,,,,,,,,,,,,,,,,,73,hervidor,,,,,415.3665,416.5652,0,0,0.6665,,0,82,82,72,1,REAL,FAKE,,,,,,,,,,,,,,,,,
,,,,,,,,,67841f3e989c0c31c093bc05,Spanish,13 or older,"no, only English or Spanish",no,2025-08-12_16h27.20.390,empathy_intonation_perc_control,2024.2.4,Win32,60.24096386,67841f3e989c0c31c093bc05,68817205a84113384fffdfe3,689ba379ea3e2bcf140fbe18,,,,,,,,,,,,,1,,,,,,,,,,,,,,,,,,,,,,,,,,,,,,,,,,,,,90,clavel,,,,,416.5662,417.6819,0,0,0.5815,,0,83,83,89,1,REAL,FAKE,,,,,,,,,,,,,,,,,
,,,,,,,,,67841f3e989c0c31c093bc05,Spanish,13 or older,"no, only English or Spanish",no,2025-08-12_16h27.20.390,empathy_intonation_perc_control,2024.2.4,Win32,60.24096386,67841f3e989c0c31c093bc05,68817205a84113384fffdfe3,689ba379ea3e2bcf140fbe18,,,,,,,,,,,,,0,,,,,,,,,,,,,,,,,,,,,,,,,,,,,,,,,,,,,53,vegada,,,,,417.683,418.7328,0,1,0.5287,,0,84,84,52,1,REAL,FAKE,,,,,,,,,,,,,,,,,
,,,,,,,,,67841f3e989c0c31c093bc05,Spanish,13 or older,"no, only English or Spanish",no,2025-08-12_16h27.20.390,empathy_intonation_perc_control,2024.2.4,Win32,60.24096386,67841f3e989c0c31c093bc05,68817205a84113384fffdfe3,689ba379ea3e2bcf140fbe18,,,,,,,,,,,,,0,,,,,,,,,,,,,,,,,,,,,,,,,,,,,,,,,,,,,58,plaudir,,,,,418.7346,419.9322,0,1,0.6702,,0,85,85,57,1,REAL,FAKE,,,,,,,,,,,,,,,,,
,,,,,,,,,67841f3e989c0c31c093bc05,Spanish,13 or older,"no, only English or Spanish",no,2025-08-12_16h27.20.390,empathy_intonation_perc_control,2024.2.4,Win32,60.24096386,67841f3e989c0c31c093bc05,68817205a84113384fffdfe3,689ba379ea3e2bcf140fbe18,,,,,,,,,,,,,1,,,,,,,,,,,,,,,,,,,,,,,,,,,,,,,,,,,,,3,pulmones,,,,,419.9332,421.1324,0,0,0.6666,,0,86,86,2,1,REAL,FAKE,,,,,,,,,,,,,,,,,
,,,,,,,,,67841f3e989c0c31c093bc05,Spanish,13 or older,"no, only English or Spanish",no,2025-08-12_16h27.20.390,empathy_intonation_perc_control,2024.2.4,Win32,60.24096386,67841f3e989c0c31c093bc05,68817205a84113384fffdfe3,689ba379ea3e2bcf140fbe18,,,,,,,,,,,,,1,,,,,,,,,,,,,,,,,,,,,,,,,,,,,,,,,,,,,2,pellizcar,,,,,421.1335,422.2831,0,0,0.6328,,0,87,87,1,1,REAL,FAKE,,,,,,,,,,,,,,,,,
,,,,,,,,,67841f3e989c0c31c093bc05,Spanish,13 or older,"no, only English or Spanish",no,2025-08-12_16h27.20.390,empathy_intonation_perc_control,2024.2.4,Win32,60.24096386,67841f3e989c0c31c093bc05,68817205a84113384fffdfe3,689ba379ea3e2bcf140fbe18,,,,,,,,,,,,,0,,,,,,,,,,,,,,,,,,,,,,,,,,,,,,,,,,,,,1,terzo,,,,,422.2842,423.6493,0,1,0.8353,,0,88,88,0,1,REAL,FAKE,,,,,,,,,,,,,,,,,
,,,,,,,,,67841f3e989c0c31c093bc05,Spanish,13 or older,"no, only English or Spanish",no,2025-08-12_16h27.20.390,empathy_intonation_perc_control,2024.2.4,Win32,60.24096386,67841f3e989c0c31c093bc05,68817205a84113384fffdfe3,689ba379ea3e2bcf140fbe18,,,,,,,,,,,,,1,,,,,,,,,,,,,,,,,,,,,,,,,,,,,,,,,,,,,67,cabello,,,,,423.6505,424.8836,0,0,0.7112,,0,89,89,66,1,REAL,FAKE,,,,,,,,,,,,,,,,,
,,,,,,,,,67841f3e989c0c31c093bc05,Spanish,13 or older,"no, only English or Spanish",no,2025-08-12_16h27.20.390,empathy_intonation_perc_control,2024.2.4,Win32,60.24096386,67841f3e989c0c31c093bc05,68817205a84113384fffdfe3,689ba379ea3e2bcf140fbe18,,,,,,,,,,,,,1,,,,,,,,,,,,,,,,,,,,,,,,,,,,,,,,,,,,,83,guante,,,,,424.8856,428.5497,0,0,3.1406,,0,90,90,82,1,REAL,FAKE,,,,,,,,,,,,,,,,,
,,,,,,,,,67841f3e989c0c31c093bc05,Spanish,13 or older,"no, only English or Spanish",no,2025-08-12_16h27.20.390,empathy_intonation_perc_control,2024.2.4,Win32,60.24096386,67841f3e989c0c31c093bc05,68817205a84113384fffdfe3,689ba379ea3e2bcf140fbe18,,,,,,,,,,,,,0,,,,,,,,,,,,,,,,,,,,,,,,,,,,,,,,,,,,,92,click the 0 key.,,,,,428.5507,430.7669,0,1,1.6906,,0,91,91,91,1,REAL,FAKE,,,,,,,,,,,,,,,,,
,,,,,,,,,67841f3e989c0c31c093bc05,Spanish,13 or older,"no, only English or Spanish",no,2025-08-12_16h27.20.390,empathy_intonation_perc_control,2024.2.4,Win32,60.24096386,67841f3e989c0c31c093bc05,68817205a84113384fffdfe3,689ba379ea3e2bcf140fbe18,,,,,,,,,,,,,,,,,,,,,,,,,,,,,,,,,,,,,,,,,,,,,,,,,,,,,,,,,,,,,,,,,,,,,430.7675,437.5842,,,,,,,,,,,,,,,
,,,,,,,,,67841f3e989c0c31c093bc05,Spanish,13 or older,"no, only English or Spanish",no,2025-08-12_16h27.20.390,empathy_intonation_perc_control,2024.2.4,Win32,60.24096386,67841f3e989c0c31c093bc05,68817205a84113384fffdfe3,689ba379ea3e2bcf140fbe18,,,,,,,,,,,,,,,,,,,,,,,,,,,1,,,,,,,,,,,,,,,,,,,,,,,,,,,,,,,,,,,,,,,,,,,,437.5949,443.7562,strongly agree,0,0,0,0,1,I can easily tell if someone else wants to enter a conversation.,1,0,1,0,,
,,,,,,,,,67841f3e989c0c31c093bc05,Spanish,13 or older,"no, only English or Spanish",no,2025-08-12_16h27.20.390,empathy_intonation_perc_control,2024.2.4,Win32,60.24096386,67841f3e989c0c31c093bc05,68817205a84113384fffdfe3,689ba379ea3e2bcf140fbe18,,,,,,,,,,,,,,,,,,,,,,,,,,,2,,,,,,,,,,,,,,,,,,,,,,,,,,,,,,,,,,,,,,,,,,,,443.7595,446.7524,slightly agree,0,1,1,1,1,I prefer animals to humans.,0,1,0,0,,
,,,,,,,,,67841f3e989c0c31c093bc05,Spanish,13 or older,"no, only English or Spanish",no,2025-08-12_16h27.20.390,empathy_intonation_perc_control,2024.2.4,Win32,60.24096386,67841f3e989c0c31c093bc05,68817205a84113384fffdfe3,689ba379ea3e2bcf140fbe18,,,,,,,,,,,,,,,,,,,,,,,,,,,3,,,,,,,,,,,,,,,,,,,,,,,,,,,,,,,,,,,,,,,,,,,,446.7557,450.6021,slightly agree,0,2,2,2,1,I try to keep up with the current trends and fashions.,0,1,0,0,,
,,,,,,,,,67841f3e989c0c31c093bc05,Spanish,13 or older,"no, only English or Spanish",no,2025-08-12_16h27.20.390,empathy_intonation_perc_control,2024.2.4,Win32,60.24096386,67841f3e989c0c31c093bc05,68817205a84113384fffdfe3,689ba379ea3e2bcf140fbe18,,,,,,,,,,,,,,,,,,,,,,,,,,,4,,,,,,,,,,,,,,,,,,,,,,,,,,,,,,,,,,,,,,,,,,,,450.6053,457.8862,slightly agree,0,3,3,3,1,"I find it difficult to explain to others things that I understand easily,   when they don't understand it first time.",1,0,0,1,,
,,,,,,,,,67841f3e989c0c31c093bc05,Spanish,13 or older,"no, only English or Spanish",no,2025-08-12_16h27.20.390,empathy_intonation_perc_control,2024.2.4,Win32,60.24096386,67841f3e989c0c31c093bc05,68817205a84113384fffdfe3,689ba379ea3e2bcf140fbe18,,,,,,,,,,,,,,,,,,,,,,,,,,,5,,,,,,,,,,,,,,,,,,,,,,,,,,,,,,,,,,,,,,,,,,,,457.8888,460.1199,slightly disagree,0,4,4,4,1,I dream most nights.,0,1,0,0,,
,,,,,,,,,67841f3e989c0c31c093bc05,Spanish,13 or older,"no, only English or Spanish",no,2025-08-12_16h27.20.390,empathy_intonation_perc_control,2024.2.4,Win32,60.24096386,67841f3e989c0c31c093bc05,68817205a84113384fffdfe3,689ba379ea3e2bcf140fbe18,,,,,,,,,,,,,,,,,,,,,,,,,,,6,,,,,,,,,,,,,,,,,,,,,,,,,,,,,,,,,,,,,,,,,,,,460.1239,464.1867,slightly agree,0,5,5,5,1,I really enjoy caring for other people.,1,0,1,0,,
,,,,,,,,,67841f3e989c0c31c093bc05,Spanish,13 or older,"no, only English or Spanish",no,2025-08-12_16h27.20.390,empathy_intonation_perc_control,2024.2.4,Win32,60.24096386,67841f3e989c0c31c093bc05,68817205a84113384fffdfe3,689ba379ea3e2bcf140fbe18,,,,,,,,,,,,,,,,,,,,,,,,,,,7,,,,,,,,,,,,,,,,,,,,,,,,,,,,,,,,,,,,,,,,,,,,464.1898,467.5542,slightly agree,0,6,6,6,1,I try to solve my own problems rather than discussing them with others.,0,1,0,0,,
,,,,,,,,,67841f3e989c0c31c093bc05,Spanish,13 or older,"no, only English or Spanish",no,2025-08-12_16h27.20.390,empathy_intonation_perc_control,2024.2.4,Win32,60.24096386,67841f3e989c0c31c093bc05,68817205a84113384fffdfe3,689ba379ea3e2bcf140fbe18,,,,,,,,,,,,,,,,,,,,,,,,,,,8,,,,,,,,,,,,,,,,,,,,,,,,,,,,,,,,,,,,,,,,,,,,467.5569,474.6544,slightly agree,0,7,7,7,1,I find it hard to know what to do in a social situation.,1,0,0,1,,
,,,,,,,,,67841f3e989c0c31c093bc05,Spanish,13 or older,"no, only English or Spanish",no,2025-08-12_16h27.20.390,empathy_intonation_perc_control,2024.2.4,Win32,60.24096386,67841f3e989c0c31c093bc05,68817205a84113384fffdfe3,689ba379ea3e2bcf140fbe18,,,,,,,,,,,,,,,,,,,,,,,,,,,9,,,,,,,,,,,,,,,,,,,,,,,,,,,,,,,,,,,,,,,,,,,,474.657,479.0883,slightly disagree,0,8,8,8,1,I am at my best first thing in the morning.,0,1,0,0,,
,,,,,,,,,67841f3e989c0c31c093bc05,Spanish,13 or older,"no, only English or Spanish",no,2025-08-12_16h27.20.390,empathy_intonation_perc_control,2024.2.4,Win32,60.24096386,67841f3e989c0c31c093bc05,68817205a84113384fffdfe3,689ba379ea3e2bcf140fbe18,,,,,,,,,,,,,,,,,,,,,,,,,,,10,,,,,,,,,,,,,,,,,,,,,,,,,,,,,,,,,,,,,,,,,,,,479.0921,488.0724,slightly disagree,0,9,9,9,1,People often tell me that I went too far in driving my point home in a discussion.,1,0,0,1,,
,,,,,,,,,67841f3e989c0c31c093bc05,Spanish,13 or older,"no, only English or Spanish",no,2025-08-12_16h27.20.390,empathy_intonation_perc_control,2024.2.4,Win32,60.24096386,67841f3e989c0c31c093bc05,68817205a84113384fffdfe3,689ba379ea3e2bcf140fbe18,,,,,,,,,,,,,,,,,,,,,,,,,,,11,,,,,,,,,,,,,,,,,,,,,,,,,,,,,,,,,,,,,,,,,,,,488.075,493.0064,slightly disagree,0,10,10,10,1,It doesn't bother me too much if I am late meeting a friend.,1,0,0,1,,
,,,,,,,,,67841f3e989c0c31c093bc05,Spanish,13 or older,"no, only English or Spanish",no,2025-08-12_16h27.20.390,empathy_intonation_perc_control,2024.2.4,Win32,60.24096386,67841f3e989c0c31c093bc05,68817205a84113384fffdfe3,689ba379ea3e2bcf140fbe18,,,,,,,,,,,,,,,,,,,,,,,,,,,12,,,,,,,,,,,,,,,,,,,,,,,,,,,,,,,,,,,,,,,,,,,,493.0097,499.057,strongly disagree,0,11,11,11,1,"Friendships and relationships are just too difficult, so I tend not to 
  bother with them.",1,0,0,1,,
,,,,,,,,,67841f3e989c0c31c093bc05,Spanish,13 or older,"no, only English or Spanish",no,2025-08-12_16h27.20.390,empathy_intonation_perc_control,2024.2.4,Win32,60.24096386,67841f3e989c0c31c093bc05,68817205a84113384fffdfe3,689ba379ea3e2bcf140fbe18,,,,,,,,,,,,,,,,,,,,,,,,,,,13,,,,,,,,,,,,,,,,,,,,,,,,,,,,,,,,,,,,,,,,,,,,499.0599,502.2238,slightly disagree,0,12,12,12,1,"I would never break a law, no matter how minor.",0,1,0,0,,
,,,,,,,,,67841f3e989c0c31c093bc05,Spanish,13 or older,"no, only English or Spanish",no,2025-08-12_16h27.20.390,empathy_intonation_perc_control,2024.2.4,Win32,60.24096386,67841f3e989c0c31c093bc05,68817205a84113384fffdfe3,689ba379ea3e2bcf140fbe18,,,,,,,,,,,,,,,,,,,,,,,,,,,14,,,,,,,,,,,,,,,,,,,,,,,,,,,,,,,,,,,,,,,,,,,,502.2265,509.5412,slightly disagree,0,13,13,13,1,I often find it difficult to judge if something is rude or polite.,1,0,0,1,,
,,,,,,,,,67841f3e989c0c31c093bc05,Spanish,13 or older,"no, only English or Spanish",no,2025-08-12_16h27.20.390,empathy_intonation_perc_control,2024.2.4,Win32,60.24096386,67841f3e989c0c31c093bc05,68817205a84113384fffdfe3,689ba379ea3e2bcf140fbe18,,,,,,,,,,,,,,,,,,,,,,,,,,,15,,,,,,,,,,,,,,,,,,,,,,,,,,,,,,,,,,,,,,,,,,,,509.544,514.3919,slightly disagree,0,14,14,14,1,"In a conversation, I tend to focus on my own thoughts rather than on what 
  my listener might be thinking.",1,0,0,1,,
,,,,,,,,,67841f3e989c0c31c093bc05,Spanish,13 or older,"no, only English or Spanish",no,2025-08-12_16h27.20.390,empathy_intonation_perc_control,2024.2.4,Win32,60.24096386,67841f3e989c0c31c093bc05,68817205a84113384fffdfe3,689ba379ea3e2bcf140fbe18,,,,,,,,,,,,,,,,,,,,,,,,,,,16,,,,,,,,,,,,,,,,,,,,,,,,,,,,,,,,,,,,,,,,,,,,514.3942,520.6427,slightly disagree,0,15,15,15,1,I prefer practical jokes to verbal humor.,0,1,0,0,,
,,,,,,,,,67841f3e989c0c31c093bc05,Spanish,13 or older,"no, only English or Spanish",no,2025-08-12_16h27.20.390,empathy_intonation_perc_control,2024.2.4,Win32,60.24096386,67841f3e989c0c31c093bc05,68817205a84113384fffdfe3,689ba379ea3e2bcf140fbe18,,,,,,,,,,,,,,,,,,,,,,,,,,,17,,,,,,,,,,,,,,,,,,,,,,,,,,,,,,,,,,,,,,,,,,,,520.6455,524.7596,slightly agree,0,16,16,16,1,I live life for today rather than the future.,0,1,0,0,,
,,,,,,,,,67841f3e989c0c31c093bc05,Spanish,13 or older,"no, only English or Spanish",no,2025-08-12_16h27.20.390,empathy_intonation_perc_control,2024.2.4,Win32,60.24096386,67841f3e989c0c31c093bc05,68817205a84113384fffdfe3,689ba379ea3e2bcf140fbe18,,,,,,,,,,,,,,,,,,,,,,,,,,,18,,,,,,,,,,,,,,,,,,,,,,,,,,,,,,,,,,,,,,,,,,,,524.7626,528.8766,slightly disagree,0,17,17,17,1,"When I was a child, I enjoyed cutting up worms to see what would happen.",1,0,0,1,,
,,,,,,,,,67841f3e989c0c31c093bc05,Spanish,13 or older,"no, only English or Spanish",no,2025-08-12_16h27.20.390,empathy_intonation_perc_control,2024.2.4,Win32,60.24096386,67841f3e989c0c31c093bc05,68817205a84113384fffdfe3,689ba379ea3e2bcf140fbe18,,,,,,,,,,,,,,,,,,,,,,,,,,,19,,,,,,,,,,,,,,,,,,,,,,,,,,,,,,,,,,,,,,,,,,,,528.8794,534.3271,slightly agree,0,18,18,18,1,I can pick up quickly if someone says one thing but means another.,1,0,1,0,,
,,,,,,,,,67841f3e989c0c31c093bc05,Spanish,13 or older,"no, only English or Spanish",no,2025-08-12_16h27.20.390,empathy_intonation_perc_control,2024.2.4,Win32,60.24096386,67841f3e989c0c31c093bc05,68817205a84113384fffdfe3,689ba379ea3e2bcf140fbe18,,,,,,,,,,,,,,,,,,,,,,,,,,,20,,,,,,,,,,,,,,,,,,,,,,,,,,,,,,,,,,,,,,,,,,,,534.3296,537.3115,slightly agree,0,19,19,19,1,I tend to have very strong opinions about morality.,0,1,0,0,,
,,,,,,,,,67841f3e989c0c31c093bc05,Spanish,13 or older,"no, only English or Spanish",no,2025-08-12_16h27.20.390,empathy_intonation_perc_control,2024.2.4,Win32,60.24096386,67841f3e989c0c31c093bc05,68817205a84113384fffdfe3,689ba379ea3e2bcf140fbe18,,,,,,,,,,,,,,,,,,,,,,,,,,,21,,,,,,,,,,,,,,,,,,,,,,,,,,,,,,,,,,,,,,,,,,,,537.315,542.4112,slightly disagree,0,20,20,20,1,It is hard for me to see why some things upset people so much.,1,0,0,1,,
,,,,,,,,,67841f3e989c0c31c093bc05,Spanish,13 or older,"no, only English or Spanish",no,2025-08-12_16h27.20.390,empathy_intonation_perc_control,2024.2.4,Win32,60.24096386,67841f3e989c0c31c093bc05,68817205a84113384fffdfe3,689ba379ea3e2bcf140fbe18,,,,,,,,,,,,,,,,,,,,,,,,,,,22,,,,,,,,,,,,,,,,,,,,,,,,,,,,,,,,,,,,,,,,,,,,542.4142,544.8448,slightly agree,0,21,21,21,1,I find it easy to put myself in somebody else's shoes.,1,0,1,0,,
,,,,,,,,,67841f3e989c0c31c093bc05,Spanish,13 or older,"no, only English or Spanish",no,2025-08-12_16h27.20.390,empathy_intonation_perc_control,2024.2.4,Win32,60.24096386,67841f3e989c0c31c093bc05,68817205a84113384fffdfe3,689ba379ea3e2bcf140fbe18,,,,,,,,,,,,,,,,,,,,,,,,,,,23,,,,,,,,,,,,,,,,,,,,,,,,,,,,,,,,,,,,,,,,,,,,544.8476,550.0786,strongly agree,0,22,22,22,1,I think that good manners are the most important thing a parent can teach their child.,0,1,0,0,,
,,,,,,,,,67841f3e989c0c31c093bc05,Spanish,13 or older,"no, only English or Spanish",no,2025-08-12_16h27.20.390,empathy_intonation_perc_control,2024.2.4,Win32,60.24096386,67841f3e989c0c31c093bc05,68817205a84113384fffdfe3,689ba379ea3e2bcf140fbe18,,,,,,,,,,,,,,,,,,,,,,,,,,,24,,,,,,,,,,,,,,,,,,,,,,,,,,,,,,,,,,,,,,,,,,,,550.081,553.2291,slightly agree,0,23,23,23,1,I like to do things on the spur of the moment.,0,1,0,0,,
,,,,,,,,,67841f3e989c0c31c093bc05,Spanish,13 or older,"no, only English or Spanish",no,2025-08-12_16h27.20.390,empathy_intonation_perc_control,2024.2.4,Win32,60.24096386,67841f3e989c0c31c093bc05,68817205a84113384fffdfe3,689ba379ea3e2bcf140fbe18,,,,,,,,,,,,,,,,,,,,,,,,,,,25,,,,,,,,,,,,,,,,,,,,,,,,,,,,,,,,,,,,,,,,,,,,553.2318,555.2126,slightly agree,0,24,24,24,1,I am good at predicting how someone will feel.,1,0,1,0,,
