instructions_2afc.started,instructions_2afc.stopped,instructions_2afc_loop.thisRepN,instructions_2afc_loop.thisTrialN,instructions_2afc_loop.thisN,instructions_2afc_loop.thisIndex,instructions_2afc_loop.ran,instructions_text,continue_text,participant_id,"What variety of Spanish are you most familiar with? (e.g., Peruvian, Spanish, Mexican)",At what age did you begin learning Spanish?,Are you proficient in any languages other than English/Spanish?,"Are you familiar with Caribbean (e.g., Caribbean, Puerto Rican) or Galician Spanish?",date,expName,psychopyVersion,OS,frameRate,id,study_id,session,practice_2afc.started,practice_2afc.stopped,key_resp_2afc_practice.keys,key_resp_2afc_practice.corr,key_resp_2afc_practice.rt,key_resp_2afc_practice.duration,trials_2afc_practice_loop.thisRepN,trials_2afc_practice_loop.thisTrialN,trials_2afc_practice_loop.thisN,trials_2afc_practice_loop.thisIndex,trials_2afc_practice_loop.ran,path,correct_response,check_2afc.started,check_2afc.stopped,trial_2afc.started,trial_2afc.stopped,key_resp_2afc_trial.keys,key_resp_2afc_trial.corr,key_resp_2afc_trial.rt,key_resp_2afc_trial.duration,trials_2afc_loop.thisRepN,trials_2afc_loop.thisTrialN,trials_2afc_loop.thisN,trials_2afc_loop.thisIndex,trials_2afc_loop.ran,item_num,target,variety,instructions_lextale.started,instructions_lextale.stopped,instructions_lextale_loop.thisRepN,instructions_lextale_loop.thisTrialN,instructions_lextale_loop.thisN,instructions_lextale_loop.thisIndex,instructions_lextale_loop.ran,practice_lextale.started,practice_lextale.stopped,key_resp_lextale_practice.keys,key_resp_lextale_practice.corr,key_resp_lextale_practice.rt,key_resp_lextale_practice.duration,practice_feedback_lextale.started,practice_feedback_lextale.stopped,trials_lextale_practice_loop.thisRepN,trials_lextale_practice_loop.thisTrialN,trials_lextale_practice_loop.thisN,trials_lextale_practice_loop.thisIndex,trials_lextale_practice_loop.ran,stim,word,prac_button_real,prac_button_false,check_lextale.started,check_lextale.stopped,trial_lextale.started,trial_lextale.stopped,key_resp_lextale_trial.keys,key_resp_lextale_trial.corr,key_resp_lextale_trial.rt,key_resp_lextale_trial.duration,trials_lextale_loop.thisRepN,trials_lextale_loop.thisTrialN,trials_lextale_loop.thisN,trials_lextale_loop.thisIndex,trials_lextale_loop.ran,button_real,button_false,instructions_eq.started,instructions_eq.stopped,trial_eq.started,trial_eq.stopped,slider_eq_trial.response,trials_eq_loop.thisRepN,trials_eq_loop.thisTrialN,trials_eq_loop.thisN,trials_eq_loop.thisIndex,trials_eq_loop.ran,item,is_test_item,is_distractor,is_agree_score,is_disagree_score,end_exp.started,end_exp.stopped
0.0265,4.703,0,0,0,0,1,"In the following task you are going to hear a series of utterances. 

  You will decide if the utterances sound like questions or not using your keyboard.", (press the spacebar to continue),6785891aee9028790a1bd6fc,Spanish,younger than 13,click here to respond,no,2025-08-12_16h45.31.077,empathy_intonation_perc_control,2024.2.4,Win32,56.81818182,6785891aee9028790a1bd6fc,68817205a84113384fffdfe3,689ba7b6039a32ba4095b66e,,,,,,,,,,,,,,,,,,,,,,,,,,,,,,,,,,,,,,,,,,,,,,,,,,,,,,,,,,,,,,,,,,,,,,,,,,,,,,,,,,,,,
4.7053,13.9709,0,1,1,1,1,"If you believe the utterance is a question, type '1' (for 'yes') and if you do not 
  believe it is a question type '0' (for 'no').

  Let's practice a bit...", (press the spacebar to continue),6785891aee9028790a1bd6fc,Spanish,younger than 13,click here to respond,no,2025-08-12_16h45.31.077,empathy_intonation_perc_control,2024.2.4,Win32,56.81818182,6785891aee9028790a1bd6fc,68817205a84113384fffdfe3,689ba7b6039a32ba4095b66e,,,,,,,,,,,,,,,,,,,,,,,,,,,,,,,,,,,,,,,,,,,,,,,,,,,,,,,,,,,,,,,,,,,,,,,,,,,,,,,,,,,,,
,,,,,,,,,6785891aee9028790a1bd6fc,Spanish,younger than 13,click here to respond,no,2025-08-12_16h45.31.077,empathy_intonation_perc_control,2024.2.4,Win32,56.81818182,6785891aee9028790a1bd6fc,68817205a84113384fffdfe3,689ba7b6039a32ba4095b66e,13.9796,17.6037,0,1,3.112,,0,0,0,6,1,./stim/wavs/peruvian_statement_filler_El-nino-habla-con-su-madre.wav,0,,,,,,,,,,,,,,,,,,,,,,,,,,,,,,,,,,,,,,,,,,,,,,,,,,,,,,,,,,,,,,,,,,,,,,,,
,,,,,,,,,6785891aee9028790a1bd6fc,Spanish,younger than 13,click here to respond,no,2025-08-12_16h45.31.077,empathy_intonation_perc_control,2024.2.4,Win32,56.81818182,6785891aee9028790a1bd6fc,68817205a84113384fffdfe3,689ba7b6039a32ba4095b66e,17.6044,20.3315,1,1,2.2072,,0,1,1,3,1,./stim/wavs/mexican_question_filler_Felipe-no-tiene-contrasena.wav,1,,,,,,,,,,,,,,,,,,,,,,,,,,,,,,,,,,,,,,,,,,,,,,,,,,,,,,,,,,,,,,,,,,,,,,,,
,,,,,,,,,6785891aee9028790a1bd6fc,Spanish,younger than 13,click here to respond,no,2025-08-12_16h45.31.077,empathy_intonation_perc_control,2024.2.4,Win32,56.81818182,6785891aee9028790a1bd6fc,68817205a84113384fffdfe3,689ba7b6039a32ba4095b66e,20.3321,22.8798,0,1,2.0163,,0,2,2,7,1,./stim/wavs/puertorican_statement_filler_La-nina-pinta-con-su-amiga.wav,0,,,,,,,,,,,,,,,,,,,,,,,,,,,,,,,,,,,,,,,,,,,,,,,,,,,,,,,,,,,,,,,,,,,,,,,,
,,,,,,,,,6785891aee9028790a1bd6fc,Spanish,younger than 13,click here to respond,no,2025-08-12_16h45.31.077,empathy_intonation_perc_control,2024.2.4,Win32,56.81818182,6785891aee9028790a1bd6fc,68817205a84113384fffdfe3,689ba7b6039a32ba4095b66e,22.8804,25.5095,1,1,2.1051,,0,3,3,1,1,./stim/wavs/argentine_question_filler_Mi-vecino-habla-mucho.wav,1,,,,,,,,,,,,,,,,,,,,,,,,,,,,,,,,,,,,,,,,,,,,,,,,,,,,,,,,,,,,,,,,,,,,,,,,
,,,,,,,,,6785891aee9028790a1bd6fc,Spanish,younger than 13,click here to respond,no,2025-08-12_16h45.31.077,empathy_intonation_perc_control,2024.2.4,Win32,56.81818182,6785891aee9028790a1bd6fc,68817205a84113384fffdfe3,689ba7b6039a32ba4095b66e,25.5102,27.9416,0,0,1.9095,,0,4,4,2,1,./stim/wavs/chilean_question_filler_Mi-padre-cantaba-bien.wav,1,,,,,,,,,,,,,,,,,,,,,,,,,,,,,,,,,,,,,,,,,,,,,,,,,,,,,,,,,,,,,,,,,,,,,,,,
,,,,,,,,,6785891aee9028790a1bd6fc,Spanish,younger than 13,click here to respond,no,2025-08-12_16h45.31.077,empathy_intonation_perc_control,2024.2.4,Win32,56.81818182,6785891aee9028790a1bd6fc,68817205a84113384fffdfe3,689ba7b6039a32ba4095b66e,27.9424,31.3882,1,1,2.9164,,0,5,5,0,1,./stim/wavs/castilian_question_filler_Mi-esposo-conoce-al-chico.wav,1,,,,,,,,,,,,,,,,,,,,,,,,,,,,,,,,,,,,,,,,,,,,,,,,,,,,,,,,,,,,,,,,,,,,,,,,
,,,,,,,,,6785891aee9028790a1bd6fc,Spanish,younger than 13,click here to respond,no,2025-08-12_16h45.31.077,empathy_intonation_perc_control,2024.2.4,Win32,56.81818182,6785891aee9028790a1bd6fc,68817205a84113384fffdfe3,689ba7b6039a32ba4095b66e,31.3893,34.7376,0,1,2.8295,,0,6,6,4,1,./stim/wavs/cuban_statement_filler_Cocinabas-por-la-noche.wav,0,,,,,,,,,,,,,,,,,,,,,,,,,,,,,,,,,,,,,,,,,,,,,,,,,,,,,,,,,,,,,,,,,,,,,,,,
,,,,,,,,,6785891aee9028790a1bd6fc,Spanish,younger than 13,click here to respond,no,2025-08-12_16h45.31.077,empathy_intonation_perc_control,2024.2.4,Win32,56.81818182,6785891aee9028790a1bd6fc,68817205a84113384fffdfe3,689ba7b6039a32ba4095b66e,34.7381,37.5675,0,1,2.3116,,0,7,7,5,1,./stim/wavs/andalusian_statement_filler_Alberto-nunca-se-afeita.wav,0,,,,,,,,,,,,,,,,,,,,,,,,,,,,,,,,,,,,,,,,,,,,,,,,,,,,,,,,,,,,,,,,,,,,,,,,
,,,,,,,,,6785891aee9028790a1bd6fc,Spanish,younger than 13,click here to respond,no,2025-08-12_16h45.31.077,empathy_intonation_perc_control,2024.2.4,Win32,56.81818182,6785891aee9028790a1bd6fc,68817205a84113384fffdfe3,689ba7b6039a32ba4095b66e,,,,,,,,,,,,,,37.5679,40.5483,,,,,,,,,,,,,,,,,,,,,,,,,,,,,,,,,,,,,,,,,,,,,,,,,,,,,,,,,,,,,,,,,,,,,,
,,,,,,,,,6785891aee9028790a1bd6fc,Spanish,younger than 13,click here to respond,no,2025-08-12_16h45.31.077,empathy_intonation_perc_control,2024.2.4,Win32,56.81818182,6785891aee9028790a1bd6fc,68817205a84113384fffdfe3,689ba7b6039a32ba4095b66e,,,,,,,,,,,,./stim/wavs/cuban_mismatch_declarative-broad-focus_El-bebe-comia-muy-bien.wav,0,,,40.5573,43.3468,0,1,2.2662,,0,0,0,73,1,74,0,cuban,,,,,,,,,,,,,,,,,,,,,,,,,,,,,,,,,,,,,,,,,,,,,,,,,,,,,,,,
,,,,,,,,,6785891aee9028790a1bd6fc,Spanish,younger than 13,click here to respond,no,2025-08-12_16h45.31.077,empathy_intonation_perc_control,2024.2.4,Win32,56.81818182,6785891aee9028790a1bd6fc,68817205a84113384fffdfe3,689ba7b6039a32ba4095b66e,,,,,,,,,,,,./stim/wavs/castilian_mismatch_interrogative-total-yn_Mi-tia-odia-la-lluvia.wav,1,,,43.348,46.0553,1,1,2.1722,,0,1,1,28,1,29,0,castilian,,,,,,,,,,,,,,,,,,,,,,,,,,,,,,,,,,,,,,,,,,,,,,,,,,,,,,,,
,,,,,,,,,6785891aee9028790a1bd6fc,Spanish,younger than 13,click here to respond,no,2025-08-12_16h45.31.077,empathy_intonation_perc_control,2024.2.4,Win32,56.81818182,6785891aee9028790a1bd6fc,68817205a84113384fffdfe3,689ba7b6039a32ba4095b66e,,,,,,,,,,,,./stim/wavs/cuban_mismatch_interrogative-total-yn_Mi-novio-viene-del-lago.wav,1,,,46.0569,48.6401,0,0,2.0784,,0,2,2,32,1,33,1,cuban,,,,,,,,,,,,,,,,,,,,,,,,,,,,,,,,,,,,,,,,,,,,,,,,,,,,,,,,
,,,,,,,,,6785891aee9028790a1bd6fc,Spanish,younger than 13,click here to respond,no,2025-08-12_16h45.31.077,empathy_intonation_perc_control,2024.2.4,Win32,56.81818182,6785891aee9028790a1bd6fc,68817205a84113384fffdfe3,689ba7b6039a32ba4095b66e,,,,,,,,,,,,./stim/wavs/mexican_match_declarative-broad-focus_Marta-abre-el-regalo.wav,0,,,48.6409,51.0045,0,1,1.8458,,0,3,3,61,1,62,0,mexican,,,,,,,,,,,,,,,,,,,,,,,,,,,,,,,,,,,,,,,,,,,,,,,,,,,,,,,,
,,,,,,,,,6785891aee9028790a1bd6fc,Spanish,younger than 13,click here to respond,no,2025-08-12_16h45.31.077,empathy_intonation_perc_control,2024.2.4,Win32,56.81818182,6785891aee9028790a1bd6fc,68817205a84113384fffdfe3,689ba7b6039a32ba4095b66e,,,,,,,,,,,,./stim/wavs/cuban_match_declarative-broad-focus_Mariano-habla-del-tiempo.wav,0,,,51.0049,54.3186,0,1,2.7821,,0,4,4,54,1,55,0,cuban,,,,,,,,,,,,,,,,,,,,,,,,,,,,,,,,,,,,,,,,,,,,,,,,,,,,,,,,
,,,,,,,,,6785891aee9028790a1bd6fc,Spanish,younger than 13,click here to respond,no,2025-08-12_16h45.31.077,empathy_intonation_perc_control,2024.2.4,Win32,56.81818182,6785891aee9028790a1bd6fc,68817205a84113384fffdfe3,689ba7b6039a32ba4095b66e,,,,,,,,,,,,./stim/wavs/mexican_match_declarative-broad-focus_Emilio-ama-la-marcha.wav,0,,,54.3193,56.7823,0,1,1.9319,,0,5,5,59,1,60,0,mexican,,,,,,,,,,,,,,,,,,,,,,,,,,,,,,,,,,,,,,,,,,,,,,,,,,,,,,,,
,,,,,,,,,6785891aee9028790a1bd6fc,Spanish,younger than 13,click here to respond,no,2025-08-12_16h45.31.077,empathy_intonation_perc_control,2024.2.4,Win32,56.81818182,6785891aee9028790a1bd6fc,68817205a84113384fffdfe3,689ba7b6039a32ba4095b66e,,,,,,,,,,,,./stim/wavs/mexican_mismatch_declarative-broad-focus_El-hombre-mira-la-luna.wav,0,,,56.7829,59.2954,0,1,1.9807,,0,6,6,79,1,80,0,mexican,,,,,,,,,,,,,,,,,,,,,,,,,,,,,,,,,,,,,,,,,,,,,,,,,,,,,,,,
,,,,,,,,,6785891aee9028790a1bd6fc,Spanish,younger than 13,click here to respond,no,2025-08-12_16h45.31.077,empathy_intonation_perc_control,2024.2.4,Win32,56.81818182,6785891aee9028790a1bd6fc,68817205a84113384fffdfe3,689ba7b6039a32ba4095b66e,,,,,,,,,,,,./stim/wavs/puertorican_match_interrogative-total-yn_Emilio-ama-la-marcha.wav,1,,,59.2962,61.74,0,0,1.9086,,0,7,7,21,1,22,1,puertorican,,,,,,,,,,,,,,,,,,,,,,,,,,,,,,,,,,,,,,,,,,,,,,,,,,,,,,,,
,,,,,,,,,6785891aee9028790a1bd6fc,Spanish,younger than 13,click here to respond,no,2025-08-12_16h45.31.077,empathy_intonation_perc_control,2024.2.4,Win32,56.81818182,6785891aee9028790a1bd6fc,68817205a84113384fffdfe3,689ba7b6039a32ba4095b66e,,,,,,,,,,,,./stim/wavs/puertorican_mismatch_interrogative-total-yn_El-hombre-mira-la-luna.wav,1,,,61.7409,64.1375,1,1,1.8713,,0,8,8,39,1,40,1,puertorican,,,,,,,,,,,,,,,,,,,,,,,,,,,,,,,,,,,,,,,,,,,,,,,,,,,,,,,,
,,,,,,,,,6785891aee9028790a1bd6fc,Spanish,younger than 13,click here to respond,no,2025-08-12_16h45.31.077,empathy_intonation_perc_control,2024.2.4,Win32,56.81818182,6785891aee9028790a1bd6fc,68817205a84113384fffdfe3,689ba7b6039a32ba4095b66e,,,,,,,,,,,,./stim/wavs/castilian_mismatch_interrogative-total-yn_La-maestra-vive-en-Paris.wav,1,,,64.1385,67.1882,1,1,2.5265,,0,9,9,24,1,25,0,castilian,,,,,,,,,,,,,,,,,,,,,,,,,,,,,,,,,,,,,,,,,,,,,,,,,,,,,,,,
,,,,,,,,,6785891aee9028790a1bd6fc,Spanish,younger than 13,click here to respond,no,2025-08-12_16h45.31.077,empathy_intonation_perc_control,2024.2.4,Win32,56.81818182,6785891aee9028790a1bd6fc,68817205a84113384fffdfe3,689ba7b6039a32ba4095b66e,,,,,,,,,,,,./stim/wavs/cuban_mismatch_declarative-broad-focus_La-nina-lava-el-plato.wav,0,,,67.1889,69.9854,0,1,2.2647,,0,10,10,75,1,76,0,cuban,,,,,,,,,,,,,,,,,,,,,,,,,,,,,,,,,,,,,,,,,,,,,,,,,,,,,,,,
,,,,,,,,,6785891aee9028790a1bd6fc,Spanish,younger than 13,click here to respond,no,2025-08-12_16h45.31.077,empathy_intonation_perc_control,2024.2.4,Win32,56.81818182,6785891aee9028790a1bd6fc,68817205a84113384fffdfe3,689ba7b6039a32ba4095b66e,,,,,,,,,,,,./stim/wavs/mexican_mismatch_interrogative-total-yn_Mi-novio-viene-del-lago.wav,1,,,69.9865,73.2654,1,1,2.7475,,0,11,11,37,1,38,0,mexican,,,,,,,,,,,,,,,,,,,,,,,,,,,,,,,,,,,,,,,,,,,,,,,,,,,,,,,,
,,,,,,,,,6785891aee9028790a1bd6fc,Spanish,younger than 13,click here to respond,no,2025-08-12_16h45.31.077,empathy_intonation_perc_control,2024.2.4,Win32,56.81818182,6785891aee9028790a1bd6fc,68817205a84113384fffdfe3,689ba7b6039a32ba4095b66e,,,,,,,,,,,,./stim/wavs/mexican_match_interrogative-total-yn_David-leia-el-libro.wav,1,,,73.2667,76.1422,1,1,2.3372,,0,12,12,14,1,15,0,mexican,,,,,,,,,,,,,,,,,,,,,,,,,,,,,,,,,,,,,,,,,,,,,,,,,,,,,,,,
,,,,,,,,,6785891aee9028790a1bd6fc,Spanish,younger than 13,click here to respond,no,2025-08-12_16h45.31.077,empathy_intonation_perc_control,2024.2.4,Win32,56.81818182,6785891aee9028790a1bd6fc,68817205a84113384fffdfe3,689ba7b6039a32ba4095b66e,,,,,,,,,,,,./stim/wavs/puertorican_match_declarative-broad-focus_David-leia-el-libro.wav,0,,,76.1432,79.0437,0,1,2.3819,,0,13,13,64,1,65,0,puertorican,,,,,,,,,,,,,,,,,,,,,,,,,,,,,,,,,,,,,,,,,,,,,,,,,,,,,,,,
,,,,,,,,,6785891aee9028790a1bd6fc,Spanish,younger than 13,click here to respond,no,2025-08-12_16h45.31.077,empathy_intonation_perc_control,2024.2.4,Win32,56.81818182,6785891aee9028790a1bd6fc,68817205a84113384fffdfe3,689ba7b6039a32ba4095b66e,,,,,,,,,,,,./stim/wavs/castilian_match_declarative-broad-focus_Manuela-vende-el-carro.wav,0,,,79.0441,81.4915,0,1,1.9283,,0,14,14,46,1,47,0,castilian,,,,,,,,,,,,,,,,,,,,,,,,,,,,,,,,,,,,,,,,,,,,,,,,,,,,,,,,
,,,,,,,,,6785891aee9028790a1bd6fc,Spanish,younger than 13,click here to respond,no,2025-08-12_16h45.31.077,empathy_intonation_perc_control,2024.2.4,Win32,56.81818182,6785891aee9028790a1bd6fc,68817205a84113384fffdfe3,689ba7b6039a32ba4095b66e,,,,,,,,,,,,./stim/wavs/castilian_match_declarative-broad-focus_Mariano-habla-del-tiempo.wav,0,,,81.4925,84.1893,0,1,2.1737,,0,15,15,48,1,49,0,castilian,,,,,,,,,,,,,,,,,,,,,,,,,,,,,,,,,,,,,,,,,,,,,,,,,,,,,,,,
,,,,,,,,,6785891aee9028790a1bd6fc,Spanish,younger than 13,click here to respond,no,2025-08-12_16h45.31.077,empathy_intonation_perc_control,2024.2.4,Win32,56.81818182,6785891aee9028790a1bd6fc,68817205a84113384fffdfe3,689ba7b6039a32ba4095b66e,,,,,,,,,,,,./stim/wavs/castilian_match_interrogative-total-yn_Emilio-ama-la-marcha.wav,1,,,84.19,86.9189,1,1,2.1983,,0,16,16,1,1,2,0,castilian,,,,,,,,,,,,,,,,,,,,,,,,,,,,,,,,,,,,,,,,,,,,,,,,,,,,,,,,
,,,,,,,,,6785891aee9028790a1bd6fc,Spanish,younger than 13,click here to respond,no,2025-08-12_16h45.31.077,empathy_intonation_perc_control,2024.2.4,Win32,56.81818182,6785891aee9028790a1bd6fc,68817205a84113384fffdfe3,689ba7b6039a32ba4095b66e,,,,,,,,,,,,./stim/wavs/mexican_mismatch_declarative-broad-focus_El-bebe-comia-muy-bien.wav,0,,,86.9199,89.3128,0,1,1.8597,,0,17,17,78,1,79,0,mexican,,,,,,,,,,,,,,,,,,,,,,,,,,,,,,,,,,,,,,,,,,,,,,,,,,,,,,,,
,,,,,,,,,6785891aee9028790a1bd6fc,Spanish,younger than 13,click here to respond,no,2025-08-12_16h45.31.077,empathy_intonation_perc_control,2024.2.4,Win32,56.81818182,6785891aee9028790a1bd6fc,68817205a84113384fffdfe3,689ba7b6039a32ba4095b66e,,,,,,,,,,,,./stim/wavs/mexican_mismatch_interrogative-total-yn_La-maestra-vive-en-Paris.wav,1,,,89.3144,91.9484,1,1,2.1167,,0,18,18,36,1,37,0,mexican,,,,,,,,,,,,,,,,,,,,,,,,,,,,,,,,,,,,,,,,,,,,,,,,,,,,,,,,
,,,,,,,,,6785891aee9028790a1bd6fc,Spanish,younger than 13,click here to respond,no,2025-08-12_16h45.31.077,empathy_intonation_perc_control,2024.2.4,Win32,56.81818182,6785891aee9028790a1bd6fc,68817205a84113384fffdfe3,689ba7b6039a32ba4095b66e,,,,,,,,,,,,./stim/wavs/cuban_mismatch_interrogative-total-yn_Mi-tia-odia-la-lluvia.wav,1,,,91.9489,94.4456,0,0,1.9667,,0,19,19,33,1,34,1,cuban,,,,,,,,,,,,,,,,,,,,,,,,,,,,,,,,,,,,,,,,,,,,,,,,,,,,,,,,
,,,,,,,,,6785891aee9028790a1bd6fc,Spanish,younger than 13,click here to respond,no,2025-08-12_16h45.31.077,empathy_intonation_perc_control,2024.2.4,Win32,56.81818182,6785891aee9028790a1bd6fc,68817205a84113384fffdfe3,689ba7b6039a32ba4095b66e,,,,,,,,,,,,./stim/wavs/mexican_match_interrogative-total-yn_Mariano-habla-del-tiempo.wav,1,,,94.4463,97.0555,1,1,2.0689,,0,20,20,16,1,17,0,mexican,,,,,,,,,,,,,,,,,,,,,,,,,,,,,,,,,,,,,,,,,,,,,,,,,,,,,,,,
,,,,,,,,,6785891aee9028790a1bd6fc,Spanish,younger than 13,click here to respond,no,2025-08-12_16h45.31.077,empathy_intonation_perc_control,2024.2.4,Win32,56.81818182,6785891aee9028790a1bd6fc,68817205a84113384fffdfe3,689ba7b6039a32ba4095b66e,,,,,,,,,,,,./stim/wavs/puertorican_mismatch_interrogative-total-yn_Mi-madre-come-la-fruta.wav,1,,,97.057,99.5238,0,0,1.9323,,0,21,21,43,1,44,1,puertorican,,,,,,,,,,,,,,,,,,,,,,,,,,,,,,,,,,,,,,,,,,,,,,,,,,,,,,,,
,,,,,,,,,6785891aee9028790a1bd6fc,Spanish,younger than 13,click here to respond,no,2025-08-12_16h45.31.077,empathy_intonation_perc_control,2024.2.4,Win32,56.81818182,6785891aee9028790a1bd6fc,68817205a84113384fffdfe3,689ba7b6039a32ba4095b66e,,,,,,,,,,,,./stim/wavs/puertorican_mismatch_declarative-broad-focus_La-nina-lava-el-plato.wav,0,,,99.5244,101.638,0,1,1.5826,,0,22,22,87,1,88,0,puertorican,,,,,,,,,,,,,,,,,,,,,,,,,,,,,,,,,,,,,,,,,,,,,,,,,,,,,,,,
,,,,,,,,,6785891aee9028790a1bd6fc,Spanish,younger than 13,click here to respond,no,2025-08-12_16h45.31.077,empathy_intonation_perc_control,2024.2.4,Win32,56.81818182,6785891aee9028790a1bd6fc,68817205a84113384fffdfe3,689ba7b6039a32ba4095b66e,,,,,,,,,,,,./stim/wavs/puertorican_match_interrogative-total-yn_Daniel-iba-a-Bolivia.wav,1,,,101.6385,103.9522,0,0,1.7818,,0,23,23,19,1,20,1,puertorican,,,,,,,,,,,,,,,,,,,,,,,,,,,,,,,,,,,,,,,,,,,,,,,,,,,,,,,,
,,,,,,,,,6785891aee9028790a1bd6fc,Spanish,younger than 13,click here to respond,no,2025-08-12_16h45.31.077,empathy_intonation_perc_control,2024.2.4,Win32,56.81818182,6785891aee9028790a1bd6fc,68817205a84113384fffdfe3,689ba7b6039a32ba4095b66e,,,,,,,,,,,,./stim/wavs/puertorican_match_declarative-broad-focus_Manuela-vende-el-carro.wav,0,,,103.9527,106.3962,0,1,1.9085,,0,24,24,66,1,67,0,puertorican,,,,,,,,,,,,,,,,,,,,,,,,,,,,,,,,,,,,,,,,,,,,,,,,,,,,,,,,
,,,,,,,,,6785891aee9028790a1bd6fc,Spanish,younger than 13,click here to respond,no,2025-08-12_16h45.31.077,empathy_intonation_perc_control,2024.2.4,Win32,56.81818182,6785891aee9028790a1bd6fc,68817205a84113384fffdfe3,689ba7b6039a32ba4095b66e,,,,,,,,,,,,./stim/wavs/puertorican_mismatch_interrogative-total-yn_La-nina-lava-el-plato.wav,1,,,106.3975,108.4646,0,0,1.5624,,0,25,25,42,1,43,1,puertorican,,,,,,,,,,,,,,,,,,,,,,,,,,,,,,,,,,,,,,,,,,,,,,,,,,,,,,,,
,,,,,,,,,6785891aee9028790a1bd6fc,Spanish,younger than 13,click here to respond,no,2025-08-12_16h45.31.077,empathy_intonation_perc_control,2024.2.4,Win32,56.81818182,6785891aee9028790a1bd6fc,68817205a84113384fffdfe3,689ba7b6039a32ba4095b66e,,,,,,,,,,,,./stim/wavs/castilian_match_interrogative-total-yn_Manuela-vende-el-carro.wav,1,,,108.4652,111.1079,1,1,2.1047,,0,26,26,2,1,3,0,castilian,,,,,,,,,,,,,,,,,,,,,,,,,,,,,,,,,,,,,,,,,,,,,,,,,,,,,,,,
,,,,,,,,,6785891aee9028790a1bd6fc,Spanish,younger than 13,click here to respond,no,2025-08-12_16h45.31.077,empathy_intonation_perc_control,2024.2.4,Win32,56.81818182,6785891aee9028790a1bd6fc,68817205a84113384fffdfe3,689ba7b6039a32ba4095b66e,,,,,,,,,,,,./stim/wavs/castilian_match_interrogative-total-yn_Marta-abre-el-regalo.wav,1,,,111.1092,113.8256,0,0,2.1985,,0,27,27,5,1,6,0,castilian,,,,,,,,,,,,,,,,,,,,,,,,,,,,,,,,,,,,,,,,,,,,,,,,,,,,,,,,
,,,,,,,,,6785891aee9028790a1bd6fc,Spanish,younger than 13,click here to respond,no,2025-08-12_16h45.31.077,empathy_intonation_perc_control,2024.2.4,Win32,56.81818182,6785891aee9028790a1bd6fc,68817205a84113384fffdfe3,689ba7b6039a32ba4095b66e,,,,,,,,,,,,./stim/wavs/castilian_match_interrogative-total-yn_David-leia-el-libro.wav,1,,,113.8269,117.1395,1,1,2.7951,,0,28,28,0,1,1,0,castilian,,,,,,,,,,,,,,,,,,,,,,,,,,,,,,,,,,,,,,,,,,,,,,,,,,,,,,,,
,,,,,,,,,6785891aee9028790a1bd6fc,Spanish,younger than 13,click here to respond,no,2025-08-12_16h45.31.077,empathy_intonation_perc_control,2024.2.4,Win32,56.81818182,6785891aee9028790a1bd6fc,68817205a84113384fffdfe3,689ba7b6039a32ba4095b66e,,,,,,,,,,,,./stim/wavs/castilian_mismatch_interrogative-total-yn_Mi-novio-viene-del-lago.wav,1,,,117.14,120.2823,0,0,2.6031,,0,29,29,27,1,28,0,castilian,,,,,,,,,,,,,,,,,,,,,,,,,,,,,,,,,,,,,,,,,,,,,,,,,,,,,,,,
,,,,,,,,,6785891aee9028790a1bd6fc,Spanish,younger than 13,click here to respond,no,2025-08-12_16h45.31.077,empathy_intonation_perc_control,2024.2.4,Win32,56.81818182,6785891aee9028790a1bd6fc,68817205a84113384fffdfe3,689ba7b6039a32ba4095b66e,,,,,,,,,,,,./stim/wavs/cuban_match_declarative-broad-focus_Marta-abre-el-regalo.wav,0,,,120.2832,122.6836,0,1,1.8821,,0,30,30,55,1,56,0,cuban,,,,,,,,,,,,,,,,,,,,,,,,,,,,,,,,,,,,,,,,,,,,,,,,,,,,,,,,
,,,,,,,,,6785891aee9028790a1bd6fc,Spanish,younger than 13,click here to respond,no,2025-08-12_16h45.31.077,empathy_intonation_perc_control,2024.2.4,Win32,56.81818182,6785891aee9028790a1bd6fc,68817205a84113384fffdfe3,689ba7b6039a32ba4095b66e,,,,,,,,,,,,./stim/wavs/cuban_match_declarative-broad-focus_Manuela-vende-el-carro.wav,0,,,122.6845,125.0481,0,1,1.8322,,0,31,31,52,1,53,0,cuban,,,,,,,,,,,,,,,,,,,,,,,,,,,,,,,,,,,,,,,,,,,,,,,,,,,,,,,,
,,,,,,,,,6785891aee9028790a1bd6fc,Spanish,younger than 13,click here to respond,no,2025-08-12_16h45.31.077,empathy_intonation_perc_control,2024.2.4,Win32,56.81818182,6785891aee9028790a1bd6fc,68817205a84113384fffdfe3,689ba7b6039a32ba4095b66e,,,,,,,,,,,,./stim/wavs/mexican_match_interrogative-total-yn_Daniel-iba-a-Bolivia.wav,1,,,125.0488,127.4953,0,0,1.9151,,0,32,32,13,1,14,0,mexican,,,,,,,,,,,,,,,,,,,,,,,,,,,,,,,,,,,,,,,,,,,,,,,,,,,,,,,,
,,,,,,,,,6785891aee9028790a1bd6fc,Spanish,younger than 13,click here to respond,no,2025-08-12_16h45.31.077,empathy_intonation_perc_control,2024.2.4,Win32,56.81818182,6785891aee9028790a1bd6fc,68817205a84113384fffdfe3,689ba7b6039a32ba4095b66e,,,,,,,,,,,,./stim/wavs/castilian_match_interrogative-total-yn_Mariano-habla-del-tiempo.wav,1,,,127.4968,130.2594,0,0,2.2314,,0,33,33,4,1,5,0,castilian,,,,,,,,,,,,,,,,,,,,,,,,,,,,,,,,,,,,,,,,,,,,,,,,,,,,,,,,
,,,,,,,,,6785891aee9028790a1bd6fc,Spanish,younger than 13,click here to respond,no,2025-08-12_16h45.31.077,empathy_intonation_perc_control,2024.2.4,Win32,56.81818182,6785891aee9028790a1bd6fc,68817205a84113384fffdfe3,689ba7b6039a32ba4095b66e,,,,,,,,,,,,./stim/wavs/castilian_mismatch_interrogative-total-yn_Mi-madre-come-la-fruta.wav,1,,,130.2599,133.5228,1,1,2.7478,,0,34,34,26,1,27,0,castilian,,,,,,,,,,,,,,,,,,,,,,,,,,,,,,,,,,,,,,,,,,,,,,,,,,,,,,,,
,,,,,,,,,6785891aee9028790a1bd6fc,Spanish,younger than 13,click here to respond,no,2025-08-12_16h45.31.077,empathy_intonation_perc_control,2024.2.4,Win32,56.81818182,6785891aee9028790a1bd6fc,68817205a84113384fffdfe3,689ba7b6039a32ba4095b66e,,,,,,,,,,,,./stim/wavs/castilian_mismatch_declarative-broad-focus_La-maestra-vive-en-Paris.wav,0,,,133.524,136.4995,0,1,2.4429,,0,35,35,69,1,70,0,castilian,,,,,,,,,,,,,,,,,,,,,,,,,,,,,,,,,,,,,,,,,,,,,,,,,,,,,,,,
,,,,,,,,,6785891aee9028790a1bd6fc,Spanish,younger than 13,click here to respond,no,2025-08-12_16h45.31.077,empathy_intonation_perc_control,2024.2.4,Win32,56.81818182,6785891aee9028790a1bd6fc,68817205a84113384fffdfe3,689ba7b6039a32ba4095b66e,,,,,,,,,,,,./stim/wavs/cuban_match_declarative-broad-focus_Daniel-iba-a-Bolivia.wav,0,,,136.5005,139.2176,0,1,2.1983,,0,36,36,51,1,52,0,cuban,,,,,,,,,,,,,,,,,,,,,,,,,,,,,,,,,,,,,,,,,,,,,,,,,,,,,,,,
,,,,,,,,,6785891aee9028790a1bd6fc,Spanish,younger than 13,click here to respond,no,2025-08-12_16h45.31.077,empathy_intonation_perc_control,2024.2.4,Win32,56.81818182,6785891aee9028790a1bd6fc,68817205a84113384fffdfe3,689ba7b6039a32ba4095b66e,,,,,,,,,,,,./stim/wavs/mexican_match_declarative-broad-focus_Mariano-habla-del-tiempo.wav,0,,,139.2181,141.4638,0,1,1.7308,,0,37,37,60,1,61,0,mexican,,,,,,,,,,,,,,,,,,,,,,,,,,,,,,,,,,,,,,,,,,,,,,,,,,,,,,,,
,,,,,,,,,6785891aee9028790a1bd6fc,Spanish,younger than 13,click here to respond,no,2025-08-12_16h45.31.077,empathy_intonation_perc_control,2024.2.4,Win32,56.81818182,6785891aee9028790a1bd6fc,68817205a84113384fffdfe3,689ba7b6039a32ba4095b66e,,,,,,,,,,,,./stim/wavs/puertorican_match_interrogative-total-yn_Manuela-vende-el-carro.wav,1,,,141.4646,143.7127,0,0,1.7295,,0,38,38,22,1,23,1,puertorican,,,,,,,,,,,,,,,,,,,,,,,,,,,,,,,,,,,,,,,,,,,,,,,,,,,,,,,,
,,,,,,,,,6785891aee9028790a1bd6fc,Spanish,younger than 13,click here to respond,no,2025-08-12_16h45.31.077,empathy_intonation_perc_control,2024.2.4,Win32,56.81818182,6785891aee9028790a1bd6fc,68817205a84113384fffdfe3,689ba7b6039a32ba4095b66e,,,,,,,,,,,,./stim/wavs/cuban_mismatch_declarative-broad-focus_El-hombre-mira-la-luna.wav,0,,,143.7136,146.1109,0,1,1.8657,,0,39,39,74,1,75,0,cuban,,,,,,,,,,,,,,,,,,,,,,,,,,,,,,,,,,,,,,,,,,,,,,,,,,,,,,,,
,,,,,,,,,6785891aee9028790a1bd6fc,Spanish,younger than 13,click here to respond,no,2025-08-12_16h45.31.077,empathy_intonation_perc_control,2024.2.4,Win32,56.81818182,6785891aee9028790a1bd6fc,68817205a84113384fffdfe3,689ba7b6039a32ba4095b66e,,,,,,,,,,,,./stim/wavs/puertorican_mismatch_declarative-broad-focus_El-hombre-mira-la-luna.wav,0,,,146.1114,148.6414,0,1,1.9982,,0,40,40,84,1,85,0,puertorican,,,,,,,,,,,,,,,,,,,,,,,,,,,,,,,,,,,,,,,,,,,,,,,,,,,,,,,,
,,,,,,,,,6785891aee9028790a1bd6fc,Spanish,younger than 13,click here to respond,no,2025-08-12_16h45.31.077,empathy_intonation_perc_control,2024.2.4,Win32,56.81818182,6785891aee9028790a1bd6fc,68817205a84113384fffdfe3,689ba7b6039a32ba4095b66e,,,,,,,,,,,,./stim/wavs/cuban_match_interrogative-total-yn_Mariano-habla-del-tiempo.wav,1,,,148.6418,151.172,0,0,2.0113,,0,41,41,10,1,11,1,cuban,,,,,,,,,,,,,,,,,,,,,,,,,,,,,,,,,,,,,,,,,,,,,,,,,,,,,,,,
,,,,,,,,,6785891aee9028790a1bd6fc,Spanish,younger than 13,click here to respond,no,2025-08-12_16h45.31.077,empathy_intonation_perc_control,2024.2.4,Win32,56.81818182,6785891aee9028790a1bd6fc,68817205a84113384fffdfe3,689ba7b6039a32ba4095b66e,,,,,,,,,,,,./stim/wavs/mexican_match_interrogative-total-yn_Emilio-ama-la-marcha.wav,1,,,151.1724,154.4321,1,1,2.7257,,0,42,42,15,1,16,0,mexican,,,,,,,,,,,,,,,,,,,,,,,,,,,,,,,,,,,,,,,,,,,,,,,,,,,,,,,,
,,,,,,,,,6785891aee9028790a1bd6fc,Spanish,younger than 13,click here to respond,no,2025-08-12_16h45.31.077,empathy_intonation_perc_control,2024.2.4,Win32,56.81818182,6785891aee9028790a1bd6fc,68817205a84113384fffdfe3,689ba7b6039a32ba4095b66e,,,,,,,,,,,,./stim/wavs/mexican_mismatch_interrogative-total-yn_El-hombre-mira-la-luna.wav,1,,,154.4333,156.7003,0,0,1.7487,,0,43,43,34,1,35,0,mexican,,,,,,,,,,,,,,,,,,,,,,,,,,,,,,,,,,,,,,,,,,,,,,,,,,,,,,,,
,,,,,,,,,6785891aee9028790a1bd6fc,Spanish,younger than 13,click here to respond,no,2025-08-12_16h45.31.077,empathy_intonation_perc_control,2024.2.4,Win32,56.81818182,6785891aee9028790a1bd6fc,68817205a84113384fffdfe3,689ba7b6039a32ba4095b66e,,,,,,,,,,,,./stim/wavs/mexican_match_declarative-broad-focus_Daniel-iba-a-Bolivia.wav,0,,,156.7008,159.1143,0,1,1.8813,,0,44,44,57,1,58,0,mexican,,,,,,,,,,,,,,,,,,,,,,,,,,,,,,,,,,,,,,,,,,,,,,,,,,,,,,,,
,,,,,,,,,6785891aee9028790a1bd6fc,Spanish,younger than 13,click here to respond,no,2025-08-12_16h45.31.077,empathy_intonation_perc_control,2024.2.4,Win32,56.81818182,6785891aee9028790a1bd6fc,68817205a84113384fffdfe3,689ba7b6039a32ba4095b66e,,,,,,,,,,,,./stim/wavs/cuban_match_interrogative-total-yn_Maria-bebe-el-vino.wav,1,,,159.1148,161.7785,0,0,2.131,,0,45,45,9,1,10,1,cuban,,,,,,,,,,,,,,,,,,,,,,,,,,,,,,,,,,,,,,,,,,,,,,,,,,,,,,,,
,,,,,,,,,6785891aee9028790a1bd6fc,Spanish,younger than 13,click here to respond,no,2025-08-12_16h45.31.077,empathy_intonation_perc_control,2024.2.4,Win32,56.81818182,6785891aee9028790a1bd6fc,68817205a84113384fffdfe3,689ba7b6039a32ba4095b66e,,,,,,,,,,,,./stim/wavs/castilian_match_declarative-broad-focus_Marta-abre-el-regalo.wav,0,,,161.7791,164.1747,0,1,1.8639,,0,46,46,49,1,50,0,castilian,,,,,,,,,,,,,,,,,,,,,,,,,,,,,,,,,,,,,,,,,,,,,,,,,,,,,,,,
,,,,,,,,,6785891aee9028790a1bd6fc,Spanish,younger than 13,click here to respond,no,2025-08-12_16h45.31.077,empathy_intonation_perc_control,2024.2.4,Win32,56.81818182,6785891aee9028790a1bd6fc,68817205a84113384fffdfe3,689ba7b6039a32ba4095b66e,,,,,,,,,,,,./stim/wavs/cuban_mismatch_declarative-broad-focus_Mi-novio-viene-del-lago.wav,0,,,164.1754,166.4912,0,1,1.7826,,0,47,47,76,1,77,0,cuban,,,,,,,,,,,,,,,,,,,,,,,,,,,,,,,,,,,,,,,,,,,,,,,,,,,,,,,,
,,,,,,,,,6785891aee9028790a1bd6fc,Spanish,younger than 13,click here to respond,no,2025-08-12_16h45.31.077,empathy_intonation_perc_control,2024.2.4,Win32,56.81818182,6785891aee9028790a1bd6fc,68817205a84113384fffdfe3,689ba7b6039a32ba4095b66e,,,,,,,,,,,,./stim/wavs/castilian_match_declarative-broad-focus_David-leia-el-libro.wav,0,,,166.4919,168.9551,0,1,1.9322,,0,48,48,44,1,45,0,castilian,,,,,,,,,,,,,,,,,,,,,,,,,,,,,,,,,,,,,,,,,,,,,,,,,,,,,,,,
,,,,,,,,,6785891aee9028790a1bd6fc,Spanish,younger than 13,click here to respond,no,2025-08-12_16h45.31.077,empathy_intonation_perc_control,2024.2.4,Win32,56.81818182,6785891aee9028790a1bd6fc,68817205a84113384fffdfe3,689ba7b6039a32ba4095b66e,,,,,,,,,,,,./stim/wavs/puertorican_match_declarative-broad-focus_Emilio-ama-la-marcha.wav,0,,,168.9557,171.6689,0,1,2.1812,,0,49,49,65,1,66,0,puertorican,,,,,,,,,,,,,,,,,,,,,,,,,,,,,,,,,,,,,,,,,,,,,,,,,,,,,,,,
,,,,,,,,,6785891aee9028790a1bd6fc,Spanish,younger than 13,click here to respond,no,2025-08-12_16h45.31.077,empathy_intonation_perc_control,2024.2.4,Win32,56.81818182,6785891aee9028790a1bd6fc,68817205a84113384fffdfe3,689ba7b6039a32ba4095b66e,,,,,,,,,,,,./stim/wavs/puertorican_match_declarative-broad-focus_Ana-lleva-el-abrigo.wav,0,,,171.6694,173.9496,0,1,1.7486,,0,50,50,62,1,63,0,puertorican,,,,,,,,,,,,,,,,,,,,,,,,,,,,,,,,,,,,,,,,,,,,,,,,,,,,,,,,
,,,,,,,,,6785891aee9028790a1bd6fc,Spanish,younger than 13,click here to respond,no,2025-08-12_16h45.31.077,empathy_intonation_perc_control,2024.2.4,Win32,56.81818182,6785891aee9028790a1bd6fc,68817205a84113384fffdfe3,689ba7b6039a32ba4095b66e,,,,,,,,,,,,./stim/wavs/mexican_match_interrogative-total-yn_Marta-abre-el-regalo.wav,1,,,173.9503,176.6482,0,0,2.1658,,0,51,51,17,1,18,0,mexican,,,,,,,,,,,,,,,,,,,,,,,,,,,,,,,,,,,,,,,,,,,,,,,,,,,,,,,,
,,,,,,,,,6785891aee9028790a1bd6fc,Spanish,younger than 13,click here to respond,no,2025-08-12_16h45.31.077,empathy_intonation_perc_control,2024.2.4,Win32,56.81818182,6785891aee9028790a1bd6fc,68817205a84113384fffdfe3,689ba7b6039a32ba4095b66e,,,,,,,,,,,,./stim/wavs/mexican_mismatch_interrogative-total-yn_El-nino-oye-el-rio.wav,1,,,176.6489,179.4113,0,0,2.2319,,0,52,52,35,1,36,0,mexican,,,,,,,,,,,,,,,,,,,,,,,,,,,,,,,,,,,,,,,,,,,,,,,,,,,,,,,,
,,,,,,,,,6785891aee9028790a1bd6fc,Spanish,younger than 13,click here to respond,no,2025-08-12_16h45.31.077,empathy_intonation_perc_control,2024.2.4,Win32,56.81818182,6785891aee9028790a1bd6fc,68817205a84113384fffdfe3,689ba7b6039a32ba4095b66e,,,,,,,,,,,,./stim/wavs/castilian_mismatch_declarative-broad-focus_La-nina-lava-el-plato.wav,0,,,179.4118,181.8921,0,1,1.9494,,0,53,53,70,1,71,0,castilian,,,,,,,,,,,,,,,,,,,,,,,,,,,,,,,,,,,,,,,,,,,,,,,,,,,,,,,,
,,,,,,,,,6785891aee9028790a1bd6fc,Spanish,younger than 13,click here to respond,no,2025-08-12_16h45.31.077,empathy_intonation_perc_control,2024.2.4,Win32,56.81818182,6785891aee9028790a1bd6fc,68817205a84113384fffdfe3,689ba7b6039a32ba4095b66e,,,,,,,,,,,,./stim/wavs/cuban_match_declarative-broad-focus_Ana-lleva-el-abrigo.wav,0,,,181.8926,184.0528,0,1,1.6203,,0,54,54,50,1,51,0,cuban,,,,,,,,,,,,,,,,,,,,,,,,,,,,,,,,,,,,,,,,,,,,,,,,,,,,,,,,
,,,,,,,,,6785891aee9028790a1bd6fc,Spanish,younger than 13,click here to respond,no,2025-08-12_16h45.31.077,empathy_intonation_perc_control,2024.2.4,Win32,56.81818182,6785891aee9028790a1bd6fc,68817205a84113384fffdfe3,689ba7b6039a32ba4095b66e,,,,,,,,,,,,./stim/wavs/cuban_match_interrogative-total-yn_Daniel-iba-a-Bolivia.wav,1,,,184.054,186.488,0,0,1.9288,,0,55,55,7,1,8,1,cuban,,,,,,,,,,,,,,,,,,,,,,,,,,,,,,,,,,,,,,,,,,,,,,,,,,,,,,,,
,,,,,,,,,6785891aee9028790a1bd6fc,Spanish,younger than 13,click here to respond,no,2025-08-12_16h45.31.077,empathy_intonation_perc_control,2024.2.4,Win32,56.81818182,6785891aee9028790a1bd6fc,68817205a84113384fffdfe3,689ba7b6039a32ba4095b66e,,,,,,,,,,,,./stim/wavs/castilian_mismatch_declarative-broad-focus_El-nino-oye-el-rio.wav,0,,,186.4885,189.0513,0,1,2.045,,0,56,56,68,1,69,0,castilian,,,,,,,,,,,,,,,,,,,,,,,,,,,,,,,,,,,,,,,,,,,,,,,,,,,,,,,,
,,,,,,,,,6785891aee9028790a1bd6fc,Spanish,younger than 13,click here to respond,no,2025-08-12_16h45.31.077,empathy_intonation_perc_control,2024.2.4,Win32,56.81818182,6785891aee9028790a1bd6fc,68817205a84113384fffdfe3,689ba7b6039a32ba4095b66e,,,,,,,,,,,,./stim/wavs/mexican_match_interrogative-total-yn_Ana-lleva-el-abrigo.wav,1,,,189.0519,191.2824,0,0,1.7121,,0,57,57,12,1,13,0,mexican,,,,,,,,,,,,,,,,,,,,,,,,,,,,,,,,,,,,,,,,,,,,,,,,,,,,,,,,
,,,,,,,,,6785891aee9028790a1bd6fc,Spanish,younger than 13,click here to respond,no,2025-08-12_16h45.31.077,empathy_intonation_perc_control,2024.2.4,Win32,56.81818182,6785891aee9028790a1bd6fc,68817205a84113384fffdfe3,689ba7b6039a32ba4095b66e,,,,,,,,,,,,./stim/wavs/puertorican_mismatch_interrogative-total-yn_La-maestra-vive-en-Paris.wav,1,,,191.2832,194.1972,0,0,2.3818,,0,58,58,41,1,42,1,puertorican,,,,,,,,,,,,,,,,,,,,,,,,,,,,,,,,,,,,,,,,,,,,,,,,,,,,,,,,
,,,,,,,,,6785891aee9028790a1bd6fc,Spanish,younger than 13,click here to respond,no,2025-08-12_16h45.31.077,empathy_intonation_perc_control,2024.2.4,Win32,56.81818182,6785891aee9028790a1bd6fc,68817205a84113384fffdfe3,689ba7b6039a32ba4095b66e,,,,,,,,,,,,./stim/wavs/puertorican_mismatch_declarative-broad-focus_La-maestra-vive-en-Paris.wav,0,,,194.1977,196.578,0,1,1.8497,,0,59,59,86,1,87,0,puertorican,,,,,,,,,,,,,,,,,,,,,,,,,,,,,,,,,,,,,,,,,,,,,,,,,,,,,,,,
,,,,,,,,,6785891aee9028790a1bd6fc,Spanish,younger than 13,click here to respond,no,2025-08-12_16h45.31.077,empathy_intonation_perc_control,2024.2.4,Win32,56.81818182,6785891aee9028790a1bd6fc,68817205a84113384fffdfe3,689ba7b6039a32ba4095b66e,,,,,,,,,,,,./stim/wavs/cuban_mismatch_interrogative-total-yn_Mi-madre-come-la-fruta.wav,1,,,196.5788,199.1248,0,0,2.0151,,0,60,60,31,1,32,1,cuban,,,,,,,,,,,,,,,,,,,,,,,,,,,,,,,,,,,,,,,,,,,,,,,,,,,,,,,,
,,,,,,,,,6785891aee9028790a1bd6fc,Spanish,younger than 13,click here to respond,no,2025-08-12_16h45.31.077,empathy_intonation_perc_control,2024.2.4,Win32,56.81818182,6785891aee9028790a1bd6fc,68817205a84113384fffdfe3,689ba7b6039a32ba4095b66e,,,,,,,,,,,,./stim/wavs/cuban_match_interrogative-total-yn_Marta-abre-el-regalo.wav,1,,,199.1255,201.4727,0,0,1.8152,,0,61,61,11,1,12,1,cuban,,,,,,,,,,,,,,,,,,,,,,,,,,,,,,,,,,,,,,,,,,,,,,,,,,,,,,,,
,,,,,,,,,6785891aee9028790a1bd6fc,Spanish,younger than 13,click here to respond,no,2025-08-12_16h45.31.077,empathy_intonation_perc_control,2024.2.4,Win32,56.81818182,6785891aee9028790a1bd6fc,68817205a84113384fffdfe3,689ba7b6039a32ba4095b66e,,,,,,,,,,,,./stim/wavs/puertorican_mismatch_interrogative-total-yn_El-nino-oye-el-rio.wav,1,,,201.4731,203.7,0,0,1.7032,,0,62,62,40,1,41,1,puertorican,,,,,,,,,,,,,,,,,,,,,,,,,,,,,,,,,,,,,,,,,,,,,,,,,,,,,,,,
,,,,,,,,,6785891aee9028790a1bd6fc,Spanish,younger than 13,click here to respond,no,2025-08-12_16h45.31.077,empathy_intonation_perc_control,2024.2.4,Win32,56.81818182,6785891aee9028790a1bd6fc,68817205a84113384fffdfe3,689ba7b6039a32ba4095b66e,,,,,,,,,,,,./stim/wavs/castilian_match_declarative-broad-focus_Emilio-ama-la-marcha.wav,0,,,203.701,206.5176,0,1,2.2984,,0,63,63,45,1,46,0,castilian,,,,,,,,,,,,,,,,,,,,,,,,,,,,,,,,,,,,,,,,,,,,,,,,,,,,,,,,
,,,,,,,,,6785891aee9028790a1bd6fc,Spanish,younger than 13,click here to respond,no,2025-08-12_16h45.31.077,empathy_intonation_perc_control,2024.2.4,Win32,56.81818182,6785891aee9028790a1bd6fc,68817205a84113384fffdfe3,689ba7b6039a32ba4095b66e,,,,,,,,,,,,./stim/wavs/cuban_mismatch_interrogative-total-yn_El-nino-oye-el-rio.wav,1,,,206.5185,208.6825,0,0,1.6325,,0,64,64,30,1,31,1,cuban,,,,,,,,,,,,,,,,,,,,,,,,,,,,,,,,,,,,,,,,,,,,,,,,,,,,,,,,
,,,,,,,,,6785891aee9028790a1bd6fc,Spanish,younger than 13,click here to respond,no,2025-08-12_16h45.31.077,empathy_intonation_perc_control,2024.2.4,Win32,56.81818182,6785891aee9028790a1bd6fc,68817205a84113384fffdfe3,689ba7b6039a32ba4095b66e,,,,,,,,,,,,./stim/wavs/puertorican_match_interrogative-total-yn_Maria-bebe-el-vino.wav,1,,,208.6831,210.963,1,1,1.7484,,0,65,65,23,1,24,1,puertorican,,,,,,,,,,,,,,,,,,,,,,,,,,,,,,,,,,,,,,,,,,,,,,,,,,,,,,,,
,,,,,,,,,6785891aee9028790a1bd6fc,Spanish,younger than 13,click here to respond,no,2025-08-12_16h45.31.077,empathy_intonation_perc_control,2024.2.4,Win32,56.81818182,6785891aee9028790a1bd6fc,68817205a84113384fffdfe3,689ba7b6039a32ba4095b66e,,,,,,,,,,,,./stim/wavs/puertorican_match_interrogative-total-yn_David-leia-el-libro.wav,1,,,210.9641,213.4104,0,0,1.9278,,0,66,66,20,1,21,1,puertorican,,,,,,,,,,,,,,,,,,,,,,,,,,,,,,,,,,,,,,,,,,,,,,,,,,,,,,,,
,,,,,,,,,6785891aee9028790a1bd6fc,Spanish,younger than 13,click here to respond,no,2025-08-12_16h45.31.077,empathy_intonation_perc_control,2024.2.4,Win32,56.81818182,6785891aee9028790a1bd6fc,68817205a84113384fffdfe3,689ba7b6039a32ba4095b66e,,,,,,,,,,,,./stim/wavs/puertorican_match_declarative-broad-focus_Maria-bebe-el-vino.wav,0,,,213.4111,215.6264,0,1,1.6827,,0,67,67,67,1,68,0,puertorican,,,,,,,,,,,,,,,,,,,,,,,,,,,,,,,,,,,,,,,,,,,,,,,,,,,,,,,,
,,,,,,,,,6785891aee9028790a1bd6fc,Spanish,younger than 13,click here to respond,no,2025-08-12_16h45.31.077,empathy_intonation_perc_control,2024.2.4,Win32,56.81818182,6785891aee9028790a1bd6fc,68817205a84113384fffdfe3,689ba7b6039a32ba4095b66e,,,,,,,,,,,,./stim/wavs/mexican_mismatch_declarative-broad-focus_Mi-novio-viene-del-lago.wav,0,,,215.6269,218.0065,0,1,1.8624,,0,68,68,81,1,82,0,mexican,,,,,,,,,,,,,,,,,,,,,,,,,,,,,,,,,,,,,,,,,,,,,,,,,,,,,,,,
,,,,,,,,,6785891aee9028790a1bd6fc,Spanish,younger than 13,click here to respond,no,2025-08-12_16h45.31.077,empathy_intonation_perc_control,2024.2.4,Win32,56.81818182,6785891aee9028790a1bd6fc,68817205a84113384fffdfe3,689ba7b6039a32ba4095b66e,,,,,,,,,,,,./stim/wavs/puertorican_match_interrogative-total-yn_Ana-lleva-el-abrigo.wav,1,,,218.0073,220.304,1,1,1.7652,,0,69,69,18,1,19,1,puertorican,,,,,,,,,,,,,,,,,,,,,,,,,,,,,,,,,,,,,,,,,,,,,,,,,,,,,,,,
,,,,,,,,,6785891aee9028790a1bd6fc,Spanish,younger than 13,click here to respond,no,2025-08-12_16h45.31.077,empathy_intonation_perc_control,2024.2.4,Win32,56.81818182,6785891aee9028790a1bd6fc,68817205a84113384fffdfe3,689ba7b6039a32ba4095b66e,,,,,,,,,,,,./stim/wavs/puertorican_match_declarative-broad-focus_Daniel-iba-a-Bolivia.wav,0,,,220.3047,222.6017,0,1,1.7652,,0,70,70,63,1,64,0,puertorican,,,,,,,,,,,,,,,,,,,,,,,,,,,,,,,,,,,,,,,,,,,,,,,,,,,,,,,,
,,,,,,,,,6785891aee9028790a1bd6fc,Spanish,younger than 13,click here to respond,no,2025-08-12_16h45.31.077,empathy_intonation_perc_control,2024.2.4,Win32,56.81818182,6785891aee9028790a1bd6fc,68817205a84113384fffdfe3,689ba7b6039a32ba4095b66e,,,,,,,,,,,,./stim/wavs/cuban_mismatch_declarative-broad-focus_Mi-tia-odia-la-lluvia.wav,0,,,222.6024,225.3164,0,1,2.1804,,0,71,71,77,1,78,0,cuban,,,,,,,,,,,,,,,,,,,,,,,,,,,,,,,,,,,,,,,,,,,,,,,,,,,,,,,,
,,,,,,,,,6785891aee9028790a1bd6fc,Spanish,younger than 13,click here to respond,no,2025-08-12_16h45.31.077,empathy_intonation_perc_control,2024.2.4,Win32,56.81818182,6785891aee9028790a1bd6fc,68817205a84113384fffdfe3,689ba7b6039a32ba4095b66e,,,,,,,,,,,,./stim/wavs/puertorican_mismatch_declarative-broad-focus_El-nino-oye-el-rio.wav,0,,,225.3169,227.4467,0,1,1.5986,,0,72,72,85,1,86,0,puertorican,,,,,,,,,,,,,,,,,,,,,,,,,,,,,,,,,,,,,,,,,,,,,,,,,,,,,,,,
,,,,,,,,,6785891aee9028790a1bd6fc,Spanish,younger than 13,click here to respond,no,2025-08-12_16h45.31.077,empathy_intonation_perc_control,2024.2.4,Win32,56.81818182,6785891aee9028790a1bd6fc,68817205a84113384fffdfe3,689ba7b6039a32ba4095b66e,,,,,,,,,,,,./stim/wavs/castilian_mismatch_interrogative-total-yn_La-nina-lava-el-plato.wav,1,,,227.4475,230.4614,1,1,2.4814,,0,73,73,25,1,26,0,castilian,,,,,,,,,,,,,,,,,,,,,,,,,,,,,,,,,,,,,,,,,,,,,,,,,,,,,,,,
,,,,,,,,,6785891aee9028790a1bd6fc,Spanish,younger than 13,click here to respond,no,2025-08-12_16h45.31.077,empathy_intonation_perc_control,2024.2.4,Win32,56.81818182,6785891aee9028790a1bd6fc,68817205a84113384fffdfe3,689ba7b6039a32ba4095b66e,,,,,,,,,,,,./stim/wavs/castilian_mismatch_declarative-broad-focus_Mi-novio-viene-del-lago.wav,0,,,230.4618,233.7908,0,1,2.7974,,0,74,74,71,1,72,0,castilian,,,,,,,,,,,,,,,,,,,,,,,,,,,,,,,,,,,,,,,,,,,,,,,,,,,,,,,,
,,,,,,,,,6785891aee9028790a1bd6fc,Spanish,younger than 13,click here to respond,no,2025-08-12_16h45.31.077,empathy_intonation_perc_control,2024.2.4,Win32,56.81818182,6785891aee9028790a1bd6fc,68817205a84113384fffdfe3,689ba7b6039a32ba4095b66e,,,,,,,,,,,,./stim/wavs/mexican_mismatch_declarative-broad-focus_Mi-tia-odia-la-lluvia.wav,0,,,233.7912,236.0729,0,1,1.7489,,0,75,75,82,1,83,0,mexican,,,,,,,,,,,,,,,,,,,,,,,,,,,,,,,,,,,,,,,,,,,,,,,,,,,,,,,,
,,,,,,,,,6785891aee9028790a1bd6fc,Spanish,younger than 13,click here to respond,no,2025-08-12_16h45.31.077,empathy_intonation_perc_control,2024.2.4,Win32,56.81818182,6785891aee9028790a1bd6fc,68817205a84113384fffdfe3,689ba7b6039a32ba4095b66e,,,,,,,,,,,,./stim/wavs/mexican_match_declarative-broad-focus_Ana-lleva-el-abrigo.wav,0,,,236.0734,237.8704,0,1,1.2659,,0,76,76,56,1,57,0,mexican,,,,,,,,,,,,,,,,,,,,,,,,,,,,,,,,,,,,,,,,,,,,,,,,,,,,,,,,
,,,,,,,,,6785891aee9028790a1bd6fc,Spanish,younger than 13,click here to respond,no,2025-08-12_16h45.31.077,empathy_intonation_perc_control,2024.2.4,Win32,56.81818182,6785891aee9028790a1bd6fc,68817205a84113384fffdfe3,689ba7b6039a32ba4095b66e,,,,,,,,,,,,./stim/wavs/castilian_match_interrogative-total-yn_Maria-bebe-el-vino.wav,1,,,237.8708,239.9021,1,1,1.4993,,0,77,77,3,1,4,0,castilian,,,,,,,,,,,,,,,,,,,,,,,,,,,,,,,,,,,,,,,,,,,,,,,,,,,,,,,,
,,,,,,,,,6785891aee9028790a1bd6fc,Spanish,younger than 13,click here to respond,no,2025-08-12_16h45.31.077,empathy_intonation_perc_control,2024.2.4,Win32,56.81818182,6785891aee9028790a1bd6fc,68817205a84113384fffdfe3,689ba7b6039a32ba4095b66e,,,,,,,,,,,,./stim/wavs/castilian_mismatch_declarative-broad-focus_Mi-tia-odia-la-lluvia.wav,0,,,239.9026,242.4619,0,1,2.0196,,0,78,78,72,1,73,0,castilian,,,,,,,,,,,,,,,,,,,,,,,,,,,,,,,,,,,,,,,,,,,,,,,,,,,,,,,,
,,,,,,,,,6785891aee9028790a1bd6fc,Spanish,younger than 13,click here to respond,no,2025-08-12_16h45.31.077,empathy_intonation_perc_control,2024.2.4,Win32,56.81818182,6785891aee9028790a1bd6fc,68817205a84113384fffdfe3,689ba7b6039a32ba4095b66e,,,,,,,,,,,,./stim/wavs/puertorican_mismatch_declarative-broad-focus_El-bebe-comia-muy-bien.wav,0,,,242.4631,244.7928,0,1,1.8232,,0,79,79,83,1,84,0,puertorican,,,,,,,,,,,,,,,,,,,,,,,,,,,,,,,,,,,,,,,,,,,,,,,,,,,,,,,,
,,,,,,,,,6785891aee9028790a1bd6fc,Spanish,younger than 13,click here to respond,no,2025-08-12_16h45.31.077,empathy_intonation_perc_control,2024.2.4,Win32,56.81818182,6785891aee9028790a1bd6fc,68817205a84113384fffdfe3,689ba7b6039a32ba4095b66e,,,,,,,,,,,,./stim/wavs/mexican_match_declarative-broad-focus_David-leia-el-libro.wav,0,,,244.7937,247.1778,0,1,1.8655,,0,80,80,58,1,59,0,mexican,,,,,,,,,,,,,,,,,,,,,,,,,,,,,,,,,,,,,,,,,,,,,,,,,,,,,,,,
,,,,,,,,,6785891aee9028790a1bd6fc,Spanish,younger than 13,click here to respond,no,2025-08-12_16h45.31.077,empathy_intonation_perc_control,2024.2.4,Win32,56.81818182,6785891aee9028790a1bd6fc,68817205a84113384fffdfe3,689ba7b6039a32ba4095b66e,,,,,,,,,,,,./stim/wavs/cuban_match_declarative-broad-focus_Maria-bebe-el-vino.wav,0,,,247.1786,249.4253,0,1,1.7237,,0,81,81,53,1,54,0,cuban,,,,,,,,,,,,,,,,,,,,,,,,,,,,,,,,,,,,,,,,,,,,,,,,,,,,,,,,
,,,,,,,,,6785891aee9028790a1bd6fc,Spanish,younger than 13,click here to respond,no,2025-08-12_16h45.31.077,empathy_intonation_perc_control,2024.2.4,Win32,56.81818182,6785891aee9028790a1bd6fc,68817205a84113384fffdfe3,689ba7b6039a32ba4095b66e,,,,,,,,,,,,./stim/wavs/cuban_match_interrogative-total-yn_Manuela-vende-el-carro.wav,1,,,249.4262,251.64,0,0,1.6813,,0,82,82,8,1,9,1,cuban,,,,,,,,,,,,,,,,,,,,,,,,,,,,,,,,,,,,,,,,,,,,,,,,,,,,,,,,
,,,,,,,,,6785891aee9028790a1bd6fc,Spanish,younger than 13,click here to respond,no,2025-08-12_16h45.31.077,empathy_intonation_perc_control,2024.2.4,Win32,56.81818182,6785891aee9028790a1bd6fc,68817205a84113384fffdfe3,689ba7b6039a32ba4095b66e,,,,,,,,,,,,./stim/wavs/castilian_match_declarative-broad-focus_Maria-bebe-el-vino.wav,0,,,251.6404,254.2503,0,1,2.0701,,0,83,83,47,1,48,0,castilian,,,,,,,,,,,,,,,,,,,,,,,,,,,,,,,,,,,,,,,,,,,,,,,,,,,,,,,,
,,,,,,,,,6785891aee9028790a1bd6fc,Spanish,younger than 13,click here to respond,no,2025-08-12_16h45.31.077,empathy_intonation_perc_control,2024.2.4,Win32,56.81818182,6785891aee9028790a1bd6fc,68817205a84113384fffdfe3,689ba7b6039a32ba4095b66e,,,,,,,,,,,,./stim/wavs/cuban_mismatch_interrogative-total-yn_El-hombre-mira-la-luna.wav,1,,,254.2513,256.6852,0,0,1.9292,,0,84,84,29,1,30,1,cuban,,,,,,,,,,,,,,,,,,,,,,,,,,,,,,,,,,,,,,,,,,,,,,,,,,,,,,,,
,,,,,,,,,6785891aee9028790a1bd6fc,Spanish,younger than 13,click here to respond,no,2025-08-12_16h45.31.077,empathy_intonation_perc_control,2024.2.4,Win32,56.81818182,6785891aee9028790a1bd6fc,68817205a84113384fffdfe3,689ba7b6039a32ba4095b66e,,,,,,,,,,,,./stim/wavs/cuban_match_interrogative-total-yn_Ana-lleva-el-abrigo.wav,1,,,256.6859,258.9169,0,0,1.6999,,0,85,85,6,1,7,1,cuban,,,,,,,,,,,,,,,,,,,,,,,,,,,,,,,,,,,,,,,,,,,,,,,,,,,,,,,,
,,,,,,,,,6785891aee9028790a1bd6fc,Spanish,younger than 13,click here to respond,no,2025-08-12_16h45.31.077,empathy_intonation_perc_control,2024.2.4,Win32,56.81818182,6785891aee9028790a1bd6fc,68817205a84113384fffdfe3,689ba7b6039a32ba4095b66e,,,,,,,,,,,,./stim/wavs/mexican_mismatch_interrogative-total-yn_Mi-tia-odia-la-lluvia.wav,1,,,258.9173,261.8308,1,1,2.3835,,0,86,86,38,1,39,0,mexican,,,,,,,,,,,,,,,,,,,,,,,,,,,,,,,,,,,,,,,,,,,,,,,,,,,,,,,,
,,,,,,,,,6785891aee9028790a1bd6fc,Spanish,younger than 13,click here to respond,no,2025-08-12_16h45.31.077,empathy_intonation_perc_control,2024.2.4,Win32,56.81818182,6785891aee9028790a1bd6fc,68817205a84113384fffdfe3,689ba7b6039a32ba4095b66e,,,,,,,,,,,,./stim/wavs/mexican_mismatch_declarative-broad-focus_La-maestra-vive-en-Paris.wav,0,,,261.8315,264.1785,0,1,1.8295,,0,87,87,80,1,81,0,mexican,,,,,,,,,,,,,,,,,,,,,,,,,,,,,,,,,,,,,,,,,,,,,,,,,,,,,,,,
,,,,,,,"Great! Now we will move on. The next task consists of about 60 trials, in each of which you will see a string of letters. 
  
  Your task is to decide whether this is a real Spanish word or not.", (press the spacebar to continue),6785891aee9028790a1bd6fc,Spanish,younger than 13,click here to respond,no,2025-08-12_16h45.31.077,empathy_intonation_perc_control,2024.2.4,Win32,56.81818182,6785891aee9028790a1bd6fc,68817205a84113384fffdfe3,689ba7b6039a32ba4095b66e,,,,,,,,,,,,,,,,,,,,,,,,,,,,,,264.1828,270.5712,0,0,0,0,1,,,,,,,,,,,,,,,,,,,,,,,,,,,,,,,,,,,,,,,,,,,,,,,,,
,,,,,,,"If you think it is an existing Spanish word, you type '1' (for 'REAL'), and if you think it is not an existing Spanish word, you type '0' (for 'FAKE').", (press the spacebar to continue),6785891aee9028790a1bd6fc,Spanish,younger than 13,click here to respond,no,2025-08-12_16h45.31.077,empathy_intonation_perc_control,2024.2.4,Win32,56.81818182,6785891aee9028790a1bd6fc,68817205a84113384fffdfe3,689ba7b6039a32ba4095b66e,,,,,,,,,,,,,,,,,,,,,,,,,,,,,,270.5731,272.7363,0,1,1,1,1,,,,,,,,,,,,,,,,,,,,,,,,,,,,,,,,,,,,,,,,,,,,,,,,,
,,,,,,,"If you are sure that the word exists, even though you don’t know its exact meaning, you may still respond '1' (REAL). 
  
  But if you are not sure if it is an existing word, you should respond '0' (FAKE).
  
  Let's do a practice round...", (press the spacebar to continue),6785891aee9028790a1bd6fc,Spanish,younger than 13,click here to respond,no,2025-08-12_16h45.31.077,empathy_intonation_perc_control,2024.2.4,Win32,56.81818182,6785891aee9028790a1bd6fc,68817205a84113384fffdfe3,689ba7b6039a32ba4095b66e,,,,,,,,,,,,,,,,,,,,,,,,,,,,,,272.7381,280.0126,0,2,2,2,1,,,,,,,,,,,,,,,,,,,,,,,,,,,,,,,,,,,,,,,,,,,,,,,,,
,,,,,,,,,6785891aee9028790a1bd6fc,Spanish,younger than 13,click here to respond,no,2025-08-12_16h45.31.077,empathy_intonation_perc_control,2024.2.4,Win32,56.81818182,6785891aee9028790a1bd6fc,68817205a84113384fffdfe3,689ba7b6039a32ba4095b66e,,,,,,,,,,,,,0,,,,,,,,,,,,,,,,,,,,,,,,280.017,282.6098,1,0,2.0655,,282.6099,283.6052,0,0,0,0,1,0,depiste,REAL,FAKE,,,,,,,,,,,,,,,,,,,,,,,,,,,,,,,,
,,,,,,,,,6785891aee9028790a1bd6fc,Spanish,younger than 13,click here to respond,no,2025-08-12_16h45.31.077,empathy_intonation_perc_control,2024.2.4,Win32,56.81818182,6785891aee9028790a1bd6fc,68817205a84113384fffdfe3,689ba7b6039a32ba4095b66e,,,,,,,,,,,,,1,,,,,,,,,,,,,,,,,,,,,,,,283.6292,285.0373,1,1,0.9135,,285.0381,286.0398,0,1,1,1,1,0,sí,REAL,FAKE,,,,,,,,,,,,,,,,,,,,,,,,,,,,,,,,
,,,,,,,,,6785891aee9028790a1bd6fc,Spanish,younger than 13,click here to respond,no,2025-08-12_16h45.31.077,empathy_intonation_perc_control,2024.2.4,Win32,56.81818182,6785891aee9028790a1bd6fc,68817205a84113384fffdfe3,689ba7b6039a32ba4095b66e,,,,,,,,,,,,,0,,,,,,,,,,,,,,,,,,,,,,,,286.0414,287.8879,0,1,1.3159,,287.888,288.8863,0,2,2,2,1,0,coné,REAL,FAKE,,,,,,,,,,,,,,,,,,,,,,,,,,,,,,,,
,,,,,,,,,6785891aee9028790a1bd6fc,Spanish,younger than 13,click here to respond,no,2025-08-12_16h45.31.077,empathy_intonation_perc_control,2024.2.4,Win32,56.81818182,6785891aee9028790a1bd6fc,68817205a84113384fffdfe3,689ba7b6039a32ba4095b66e,,,,,,,,,,,,,0,,,,,,,,,,,,,,,,,,,,,,,,288.888,290.2848,1,0,0.866,,290.2861,291.2831,0,3,3,3,1,0,calpar,REAL,FAKE,,,,,,,,,,,,,,,,,,,,,,,,,,,,,,,,
,,,,,,,,,6785891aee9028790a1bd6fc,Spanish,younger than 13,click here to respond,no,2025-08-12_16h45.31.077,empathy_intonation_perc_control,2024.2.4,Win32,56.81818182,6785891aee9028790a1bd6fc,68817205a84113384fffdfe3,689ba7b6039a32ba4095b66e,,,,,,,,,,,,,0,,,,,,,,,,,,,,,,,,,,,,,,291.2847,292.633,0,1,0.8162,,292.6338,293.6311,0,4,4,4,1,0,joten,REAL,FAKE,,,,,,,,,,,,,,,,,,,,,,,,,,,,,,,,
,,,,,,,,,6785891aee9028790a1bd6fc,Spanish,younger than 13,click here to respond,no,2025-08-12_16h45.31.077,empathy_intonation_perc_control,2024.2.4,Win32,56.81818182,6785891aee9028790a1bd6fc,68817205a84113384fffdfe3,689ba7b6039a32ba4095b66e,,,,,,,,,,,,,1,,,,,,,,,,,,,,,,,,,,,,,,293.6334,294.8645,0,0,0.6999,,294.8655,295.8626,0,5,5,5,1,0,sacapuntas,REAL,FAKE,,,,,,,,,,,,,,,,,,,,,,,,,,,,,,,,
,,,,,,,,,6785891aee9028790a1bd6fc,Spanish,younger than 13,click here to respond,no,2025-08-12_16h45.31.077,empathy_intonation_perc_control,2024.2.4,Win32,56.81818182,6785891aee9028790a1bd6fc,68817205a84113384fffdfe3,689ba7b6039a32ba4095b66e,,,,,,,,,,,,,0,,,,,,,,,,,,,,,,,,,,,,,,295.8641,297.3781,0,1,0.9827,,297.379,298.3756,0,6,6,6,1,0,priba,REAL,FAKE,,,,,,,,,,,,,,,,,,,,,,,,,,,,,,,,
,,,,,,,,,6785891aee9028790a1bd6fc,Spanish,younger than 13,click here to respond,no,2025-08-12_16h45.31.077,empathy_intonation_perc_control,2024.2.4,Win32,56.81818182,6785891aee9028790a1bd6fc,68817205a84113384fffdfe3,689ba7b6039a32ba4095b66e,,,,,,,,,,,,,0,,,,,,,,,,,,,,,,,,,,,,,,298.3772,300.1426,0,1,1.2492,,300.1427,301.1404,0,7,7,7,1,0,pelasula,REAL,FAKE,,,,,,,,,,,,,,,,,,,,,,,,,,,,,,,,
,,,,,,,,,6785891aee9028790a1bd6fc,Spanish,younger than 13,click here to respond,no,2025-08-12_16h45.31.077,empathy_intonation_perc_control,2024.2.4,Win32,56.81818182,6785891aee9028790a1bd6fc,68817205a84113384fffdfe3,689ba7b6039a32ba4095b66e,,,,,,,,,,,,,1,,,,,,,,,,,,,,,,,,,,,,,,301.1419,302.4567,1,1,0.7831,,302.4568,303.4536,0,8,8,8,1,0,bien,REAL,FAKE,,,,,,,,,,,,,,,,,,,,,,,,,,,,,,,,
,,,,,,,,,6785891aee9028790a1bd6fc,Spanish,younger than 13,click here to respond,no,2025-08-12_16h45.31.077,empathy_intonation_perc_control,2024.2.4,Win32,56.81818182,6785891aee9028790a1bd6fc,68817205a84113384fffdfe3,689ba7b6039a32ba4095b66e,,,,,,,,,,,,,1,,,,,,,,,,,,,,,,,,,,,,,,303.4553,304.6215,1,1,0.6333,,304.6215,305.6214,0,9,9,9,1,0,casa,REAL,FAKE,,,,,,,,,,,,,,,,,,,,,,,,,,,,,,,,
,,,,,,,,,6785891aee9028790a1bd6fc,Spanish,younger than 13,click here to respond,no,2025-08-12_16h45.31.077,empathy_intonation_perc_control,2024.2.4,Win32,56.81818182,6785891aee9028790a1bd6fc,68817205a84113384fffdfe3,689ba7b6039a32ba4095b66e,,,,,,,,,,,,,0,,,,,,,,,,,,,,,,,,,,,,,,305.6233,306.8707,1,0,0.7179,,306.8716,307.867,0,10,10,10,1,0,lejo,REAL,FAKE,,,,,,,,,,,,,,,,,,,,,,,,,,,,,,,,
,,,,,,,,,6785891aee9028790a1bd6fc,Spanish,younger than 13,click here to respond,no,2025-08-12_16h45.31.077,empathy_intonation_perc_control,2024.2.4,Win32,56.81818182,6785891aee9028790a1bd6fc,68817205a84113384fffdfe3,689ba7b6039a32ba4095b66e,,,,,,,,,,,,,0,,,,,,,,,,,,,,,,,,,,,,,,307.8686,309.1464,0,1,0.7392,,309.1486,310.1482,0,11,11,11,1,0,pretantas,REAL,FAKE,,,,,,,,,,,,,,,,,,,,,,,,,,,,,,,,
,,,,,,,,,6785891aee9028790a1bd6fc,Spanish,younger than 13,click here to respond,no,2025-08-12_16h45.31.077,empathy_intonation_perc_control,2024.2.4,Win32,56.81818182,6785891aee9028790a1bd6fc,68817205a84113384fffdfe3,689ba7b6039a32ba4095b66e,,,,,,,,,,,,,,,,,,,,,,,,,,,,,,,,,,,,,,,,,,,,,,,,,,,,,,310.1485,311.465,,,,,,,,,,,,,,,,,,,,,,,,,,,,,,
,,,,,,,,,6785891aee9028790a1bd6fc,Spanish,younger than 13,click here to respond,no,2025-08-12_16h45.31.077,empathy_intonation_perc_control,2024.2.4,Win32,56.81818182,6785891aee9028790a1bd6fc,68817205a84113384fffdfe3,689ba7b6039a32ba4095b66e,,,,,,,,,,,,,0,,,,,,,,,,,,,,,,,,,,,,,,,,,,,,,,,,,,,82,empirador,,,,,311.4721,313.0799,1,0,1.0828,,0,0,0,81,1,REAL,FAKE,,,,,,,,,,,,,,,,,
,,,,,,,,,6785891aee9028790a1bd6fc,Spanish,younger than 13,click here to respond,no,2025-08-12_16h45.31.077,empathy_intonation_perc_control,2024.2.4,Win32,56.81818182,6785891aee9028790a1bd6fc,68817205a84113384fffdfe3,689ba7b6039a32ba4095b66e,,,,,,,,,,,,,0,,,,,,,,,,,,,,,,,,,,,,,,,,,,,,,,,,,,,70,temblo,,,,,313.0809,314.7615,0,1,1.1494,,0,1,1,69,1,REAL,FAKE,,,,,,,,,,,,,,,,,
,,,,,,,,,6785891aee9028790a1bd6fc,Spanish,younger than 13,click here to respond,no,2025-08-12_16h45.31.077,empathy_intonation_perc_control,2024.2.4,Win32,56.81818182,6785891aee9028790a1bd6fc,68817205a84113384fffdfe3,689ba7b6039a32ba4095b66e,,,,,,,,,,,,,0,,,,,,,,,,,,,,,,,,,,,,,,,,,,,,,,,,,,,63,esposante,,,,,314.7624,316.4779,1,0,1.1843,,0,2,2,62,1,REAL,FAKE,,,,,,,,,,,,,,,,,
,,,,,,,,,6785891aee9028790a1bd6fc,Spanish,younger than 13,click here to respond,no,2025-08-12_16h45.31.077,empathy_intonation_perc_control,2024.2.4,Win32,56.81818182,6785891aee9028790a1bd6fc,68817205a84113384fffdfe3,689ba7b6039a32ba4095b66e,,,,,,,,,,,,,1,,,,,,,,,,,,,,,,,,,,,,,,,,,,,,,,,,,,,57,tacaño,,,,,316.4792,317.8747,1,1,0.8664,,0,3,3,56,1,REAL,FAKE,,,,,,,,,,,,,,,,,
,,,,,,,,,6785891aee9028790a1bd6fc,Spanish,younger than 13,click here to respond,no,2025-08-12_16h45.31.077,empathy_intonation_perc_control,2024.2.4,Win32,56.81818182,6785891aee9028790a1bd6fc,68817205a84113384fffdfe3,689ba7b6039a32ba4095b66e,,,,,,,,,,,,,1,,,,,,,,,,,,,,,,,,,,,,,,,,,,,,,,,,,,,71,polvoriento,,,,,317.8761,319.1235,0,0,0.7164,,0,4,4,70,1,REAL,FAKE,,,,,,,,,,,,,,,,,
,,,,,,,,,6785891aee9028790a1bd6fc,Spanish,younger than 13,click here to respond,no,2025-08-12_16h45.31.077,empathy_intonation_perc_control,2024.2.4,Win32,56.81818182,6785891aee9028790a1bd6fc,68817205a84113384fffdfe3,689ba7b6039a32ba4095b66e,,,,,,,,,,,,,1,,,,,,,,,,,,,,,,,,,,,,,,,,,,,,,,,,,,,61,seda,,,,,319.1246,320.7052,0,0,1.0495,,0,5,5,60,1,REAL,FAKE,,,,,,,,,,,,,,,,,
,,,,,,,,,6785891aee9028790a1bd6fc,Spanish,younger than 13,click here to respond,no,2025-08-12_16h45.31.077,empathy_intonation_perc_control,2024.2.4,Win32,56.81818182,6785891aee9028790a1bd6fc,68817205a84113384fffdfe3,689ba7b6039a32ba4095b66e,,,,,,,,,,,,,1,,,,,,,,,,,,,,,,,,,,,,,,,,,,,,,,,,,,,68,alegre,,,,,320.7067,322.0711,0,0,0.8331,,0,6,6,67,1,REAL,FAKE,,,,,,,,,,,,,,,,,
,,,,,,,,,6785891aee9028790a1bd6fc,Spanish,younger than 13,click here to respond,no,2025-08-12_16h45.31.077,empathy_intonation_perc_control,2024.2.4,Win32,56.81818182,6785891aee9028790a1bd6fc,68817205a84113384fffdfe3,689ba7b6039a32ba4095b66e,,,,,,,,,,,,,1,,,,,,,,,,,,,,,,,,,,,,,,,,,,,,,,,,,,,54,fomentar,,,,,322.0722,323.1492,0,0,0.5405,,0,7,7,53,1,REAL,FAKE,,,,,,,,,,,,,,,,,
,,,,,,,,,6785891aee9028790a1bd6fc,Spanish,younger than 13,click here to respond,no,2025-08-12_16h45.31.077,empathy_intonation_perc_control,2024.2.4,Win32,56.81818182,6785891aee9028790a1bd6fc,68817205a84113384fffdfe3,689ba7b6039a32ba4095b66e,,,,,,,,,,,,,1,,,,,,,,,,,,,,,,,,,,,,,,,,,,,,,,,,,,,38,estornudar,,,,,323.1511,324.6516,0,0,0.9828,,0,8,8,37,1,REAL,FAKE,,,,,,,,,,,,,,,,,
,,,,,,,,,6785891aee9028790a1bd6fc,Spanish,younger than 13,click here to respond,no,2025-08-12_16h45.31.077,empathy_intonation_perc_control,2024.2.4,Win32,56.81818182,6785891aee9028790a1bd6fc,68817205a84113384fffdfe3,689ba7b6039a32ba4095b66e,,,,,,,,,,,,,0,,,,,,,,,,,,,,,,,,,,,,,,,,,,,,,,,,,,,17,floroso,,,,,324.6526,325.9345,0,1,0.75,,0,9,9,16,1,REAL,FAKE,,,,,,,,,,,,,,,,,
,,,,,,,,,6785891aee9028790a1bd6fc,Spanish,younger than 13,click here to respond,no,2025-08-12_16h45.31.077,empathy_intonation_perc_control,2024.2.4,Win32,56.81818182,6785891aee9028790a1bd6fc,68817205a84113384fffdfe3,689ba7b6039a32ba4095b66e,,,,,,,,,,,,,1,,,,,,,,,,,,,,,,,,,,,,,,,,,,,,,,,,,,,43,canela,,,,,325.9356,327.1344,0,0,0.6684,,0,10,10,42,1,REAL,FAKE,,,,,,,,,,,,,,,,,
,,,,,,,,,6785891aee9028790a1bd6fc,Spanish,younger than 13,click here to respond,no,2025-08-12_16h45.31.077,empathy_intonation_perc_control,2024.2.4,Win32,56.81818182,6785891aee9028790a1bd6fc,68817205a84113384fffdfe3,689ba7b6039a32ba4095b66e,,,,,,,,,,,,,1,,,,,,,,,,,,,,,,,,,,,,,,,,,,,,,,,,,,,39,torpe,,,,,327.1358,328.3643,0,0,0.7128,,0,11,11,38,1,REAL,FAKE,,,,,,,,,,,,,,,,,
,,,,,,,,,6785891aee9028790a1bd6fc,Spanish,younger than 13,click here to respond,no,2025-08-12_16h45.31.077,empathy_intonation_perc_control,2024.2.4,Win32,56.81818182,6785891aee9028790a1bd6fc,68817205a84113384fffdfe3,689ba7b6039a32ba4095b66e,,,,,,,,,,,,,0,,,,,,,,,,,,,,,,,,,,,,,,,,,,,,,,,,,,,16,abracer,,,,,328.3658,329.9928,0,1,1.0933,,0,12,12,15,1,REAL,FAKE,,,,,,,,,,,,,,,,,
,,,,,,,,,6785891aee9028790a1bd6fc,Spanish,younger than 13,click here to respond,no,2025-08-12_16h45.31.077,empathy_intonation_perc_control,2024.2.4,Win32,56.81818182,6785891aee9028790a1bd6fc,68817205a84113384fffdfe3,689ba7b6039a32ba4095b66e,,,,,,,,,,,,,1,,,,,,,,,,,,,,,,,,,,,,,,,,,,,,,,,,,,,40,alfombra,,,,,329.9938,331.0918,0,0,0.5646,,0,13,13,39,1,REAL,FAKE,,,,,,,,,,,,,,,,,
,,,,,,,,,6785891aee9028790a1bd6fc,Spanish,younger than 13,click here to respond,no,2025-08-12_16h45.31.077,empathy_intonation_perc_control,2024.2.4,Win32,56.81818182,6785891aee9028790a1bd6fc,68817205a84113384fffdfe3,689ba7b6039a32ba4095b66e,,,,,,,,,,,,,1,,,,,,,,,,,,,,,,,,,,,,,,,,,,,,,,,,,,,69,engatusar,,,,,331.0928,333.2563,1,1,1.6395,,0,14,14,68,1,REAL,FAKE,,,,,,,,,,,,,,,,,
,,,,,,,,,6785891aee9028790a1bd6fc,Spanish,younger than 13,click here to respond,no,2025-08-12_16h45.31.077,empathy_intonation_perc_control,2024.2.4,Win32,56.81818182,6785891aee9028790a1bd6fc,68817205a84113384fffdfe3,689ba7b6039a32ba4095b66e,,,,,,,,,,,,,1,,,,,,,,,,,,,,,,,,,,,,,,,,,,,,,,,,,,,80,hormiga,,,,,333.2574,334.4218,0,0,0.6382,,0,15,15,79,1,REAL,FAKE,,,,,,,,,,,,,,,,,
,,,,,,,,,6785891aee9028790a1bd6fc,Spanish,younger than 13,click here to respond,no,2025-08-12_16h45.31.077,empathy_intonation_perc_control,2024.2.4,Win32,56.81818182,6785891aee9028790a1bd6fc,68817205a84113384fffdfe3,689ba7b6039a32ba4095b66e,,,,,,,,,,,,,1,,,,,,,,,,,,,,,,,,,,,,,,,,,,,,,,,,,,,15,regar,,,,,334.4231,335.6206,0,0,0.6648,,0,16,16,14,1,REAL,FAKE,,,,,,,,,,,,,,,,,
,,,,,,,,,6785891aee9028790a1bd6fc,Spanish,younger than 13,click here to respond,no,2025-08-12_16h45.31.077,empathy_intonation_perc_control,2024.2.4,Win32,56.81818182,6785891aee9028790a1bd6fc,68817205a84113384fffdfe3,689ba7b6039a32ba4095b66e,,,,,,,,,,,,,1,,,,,,,,,,,,,,,,,,,,,,,,,,,,,,,,,,,,,2,pellizcar,,,,,335.6223,336.8197,0,0,0.6648,,0,17,17,1,1,REAL,FAKE,,,,,,,,,,,,,,,,,
,,,,,,,,,6785891aee9028790a1bd6fc,Spanish,younger than 13,click here to respond,no,2025-08-12_16h45.31.077,empathy_intonation_perc_control,2024.2.4,Win32,56.81818182,6785891aee9028790a1bd6fc,68817205a84113384fffdfe3,689ba7b6039a32ba4095b66e,,,,,,,,,,,,,1,,,,,,,,,,,,,,,,,,,,,,,,,,,,,,,,,,,,,5,zapato,,,,,336.8206,338.1358,1,1,0.7824,,0,18,18,4,1,REAL,FAKE,,,,,,,,,,,,,,,,,
,,,,,,,,,6785891aee9028790a1bd6fc,Spanish,younger than 13,click here to respond,no,2025-08-12_16h45.31.077,empathy_intonation_perc_control,2024.2.4,Win32,56.81818182,6785891aee9028790a1bd6fc,68817205a84113384fffdfe3,689ba7b6039a32ba4095b66e,,,,,,,,,,,,,1,,,,,,,,,,,,,,,,,,,,,,,,,,,,,,,,,,,,,3,pulmones,,,,,338.137,339.8832,0,0,1.2143,,0,19,19,2,1,REAL,FAKE,,,,,,,,,,,,,,,,,
,,,,,,,,,6785891aee9028790a1bd6fc,Spanish,younger than 13,click here to respond,no,2025-08-12_16h45.31.077,empathy_intonation_perc_control,2024.2.4,Win32,56.81818182,6785891aee9028790a1bd6fc,68817205a84113384fffdfe3,689ba7b6039a32ba4095b66e,,,,,,,,,,,,,0,,,,,,,,,,,,,,,,,,,,,,,,,,,,,,,,,,,,,19,brecedad,,,,,339.8846,341.0319,0,1,0.616,,0,20,20,18,1,REAL,FAKE,,,,,,,,,,,,,,,,,
,,,,,,,,,6785891aee9028790a1bd6fc,Spanish,younger than 13,click here to respond,no,2025-08-12_16h45.31.077,empathy_intonation_perc_control,2024.2.4,Win32,56.81818182,6785891aee9028790a1bd6fc,68817205a84113384fffdfe3,689ba7b6039a32ba4095b66e,,,,,,,,,,,,,0,,,,,,,,,,,,,,,,,,,,,,,,,,,,,,,,,,,,,84,escuto,,,,,341.0331,342.3307,1,0,0.7777,,0,21,21,83,1,REAL,FAKE,,,,,,,,,,,,,,,,,
,,,,,,,,,6785891aee9028790a1bd6fc,Spanish,younger than 13,click here to respond,no,2025-08-12_16h45.31.077,empathy_intonation_perc_control,2024.2.4,Win32,56.81818182,6785891aee9028790a1bd6fc,68817205a84113384fffdfe3,689ba7b6039a32ba4095b66e,,,,,,,,,,,,,1,,,,,,,,,,,,,,,,,,,,,,,,,,,,,,,,,,,,,22,lacayo,,,,,342.3325,343.5307,0,0,0.6641,,0,22,22,21,1,REAL,FAKE,,,,,,,,,,,,,,,,,
,,,,,,,,,6785891aee9028790a1bd6fc,Spanish,younger than 13,click here to respond,no,2025-08-12_16h45.31.077,empathy_intonation_perc_control,2024.2.4,Win32,56.81818182,6785891aee9028790a1bd6fc,68817205a84113384fffdfe3,689ba7b6039a32ba4095b66e,,,,,,,,,,,,,1,,,,,,,,,,,,,,,,,,,,,,,,,,,,,,,,,,,,,51,candado,,,,,343.532,345.1613,0,0,1.0995,,0,23,23,50,1,REAL,FAKE,,,,,,,,,,,,,,,,,
,,,,,,,,,6785891aee9028790a1bd6fc,Spanish,younger than 13,click here to respond,no,2025-08-12_16h45.31.077,empathy_intonation_perc_control,2024.2.4,Win32,56.81818182,6785891aee9028790a1bd6fc,68817205a84113384fffdfe3,689ba7b6039a32ba4095b66e,,,,,,,,,,,,,1,,,,,,,,,,,,,,,,,,,,,,,,,,,,,,,,,,,,,73,hervidor,,,,,345.1623,346.31,0,0,0.6248,,0,24,24,72,1,REAL,FAKE,,,,,,,,,,,,,,,,,
,,,,,,,,,6785891aee9028790a1bd6fc,Spanish,younger than 13,click here to respond,no,2025-08-12_16h45.31.077,empathy_intonation_perc_control,2024.2.4,Win32,56.81818182,6785891aee9028790a1bd6fc,68817205a84113384fffdfe3,689ba7b6039a32ba4095b66e,,,,,,,,,,,,,0,,,,,,,,,,,,,,,,,,,,,,,,,,,,,,,,,,,,,1,terzo,,,,,346.3111,347.509,0,1,0.6637,,0,25,25,0,1,REAL,FAKE,,,,,,,,,,,,,,,,,
,,,,,,,,,6785891aee9028790a1bd6fc,Spanish,younger than 13,click here to respond,no,2025-08-12_16h45.31.077,empathy_intonation_perc_control,2024.2.4,Win32,56.81818182,6785891aee9028790a1bd6fc,68817205a84113384fffdfe3,689ba7b6039a32ba4095b66e,,,,,,,,,,,,,1,,,,,,,,,,,,,,,,,,,,,,,,,,,,,,,,,,,,,14,yunque,,,,,347.5101,348.592,0,0,0.55,,0,26,26,13,1,REAL,FAKE,,,,,,,,,,,,,,,,,
,,,,,,,,,6785891aee9028790a1bd6fc,Spanish,younger than 13,click here to respond,no,2025-08-12_16h45.31.077,empathy_intonation_perc_control,2024.2.4,Win32,56.81818182,6785891aee9028790a1bd6fc,68817205a84113384fffdfe3,689ba7b6039a32ba4095b66e,,,,,,,,,,,,,1,,,,,,,,,,,,,,,,,,,,,,,,,,,,,,,,,,,,,76,atar,,,,,348.5933,349.6903,1,1,0.5756,,0,27,27,75,1,REAL,FAKE,,,,,,,,,,,,,,,,,
,,,,,,,,,6785891aee9028790a1bd6fc,Spanish,younger than 13,click here to respond,no,2025-08-12_16h45.31.077,empathy_intonation_perc_control,2024.2.4,Win32,56.81818182,6785891aee9028790a1bd6fc,68817205a84113384fffdfe3,689ba7b6039a32ba4095b66e,,,,,,,,,,,,,1,,,,,,,,,,,,,,,,,,,,,,,,,,,,,,,,,,,,,48,ladrón,,,,,349.6918,351.1553,1,1,0.9404,,0,28,28,47,1,REAL,FAKE,,,,,,,,,,,,,,,,,
,,,,,,,,,6785891aee9028790a1bd6fc,Spanish,younger than 13,click here to respond,no,2025-08-12_16h45.31.077,empathy_intonation_perc_control,2024.2.4,Win32,56.81818182,6785891aee9028790a1bd6fc,68817205a84113384fffdfe3,689ba7b6039a32ba4095b66e,,,,,,,,,,,,,0,,,,,,,,,,,,,,,,,,,,,,,,,,,,,,,,,,,,,74,cintro,,,,,351.1561,352.6375,1,0,0.9713,,0,29,29,73,1,REAL,FAKE,,,,,,,,,,,,,,,,,
,,,,,,,,,6785891aee9028790a1bd6fc,Spanish,younger than 13,click here to respond,no,2025-08-12_16h45.31.077,empathy_intonation_perc_control,2024.2.4,Win32,56.81818182,6785891aee9028790a1bd6fc,68817205a84113384fffdfe3,689ba7b6039a32ba4095b66e,,,,,,,,,,,,,1,,,,,,,,,,,,,,,,,,,,,,,,,,,,,,,,,,,,,34,aviso,,,,,352.6392,354.0057,0,0,0.8462,,0,30,30,33,1,REAL,FAKE,,,,,,,,,,,,,,,,,
,,,,,,,,,6785891aee9028790a1bd6fc,Spanish,younger than 13,click here to respond,no,2025-08-12_16h45.31.077,empathy_intonation_perc_control,2024.2.4,Win32,56.81818182,6785891aee9028790a1bd6fc,68817205a84113384fffdfe3,689ba7b6039a32ba4095b66e,,,,,,,,,,,,,1,,,,,,,,,,,,,,,,,,,,,,,,,,,,,,,,,,,,,77,tiburón,,,,,354.0068,355.1515,0,0,0.6122,,0,31,31,76,1,REAL,FAKE,,,,,,,,,,,,,,,,,
,,,,,,,,,6785891aee9028790a1bd6fc,Spanish,younger than 13,click here to respond,no,2025-08-12_16h45.31.077,empathy_intonation_perc_control,2024.2.4,Win32,56.81818182,6785891aee9028790a1bd6fc,68817205a84113384fffdfe3,689ba7b6039a32ba4095b66e,,,,,,,,,,,,,0,,,,,,,,,,,,,,,,,,,,,,,,,,,,,,,,,,,,,10,antar,,,,,355.1525,356.3688,1,0,0.6946,,0,32,32,9,1,REAL,FAKE,,,,,,,,,,,,,,,,,
,,,,,,,,,6785891aee9028790a1bd6fc,Spanish,younger than 13,click here to respond,no,2025-08-12_16h45.31.077,empathy_intonation_perc_control,2024.2.4,Win32,56.81818182,6785891aee9028790a1bd6fc,68817205a84113384fffdfe3,689ba7b6039a32ba4095b66e,,,,,,,,,,,,,1,,,,,,,,,,,,,,,,,,,,,,,,,,,,,,,,,,,,,25,bisagra,,,,,356.3696,357.5824,0,0,0.6818,,0,33,33,24,1,REAL,FAKE,,,,,,,,,,,,,,,,,
,,,,,,,,,6785891aee9028790a1bd6fc,Spanish,younger than 13,click here to respond,no,2025-08-12_16h45.31.077,empathy_intonation_perc_control,2024.2.4,Win32,56.81818182,6785891aee9028790a1bd6fc,68817205a84113384fffdfe3,689ba7b6039a32ba4095b66e,,,,,,,,,,,,,1,,,,,,,,,,,,,,,,,,,,,,,,,,,,,,,,,,,,,28,merodear,,,,,357.5833,358.6647,0,0,0.5595,,0,34,34,27,1,REAL,FAKE,,,,,,,,,,,,,,,,,
,,,,,,,,,6785891aee9028790a1bd6fc,Spanish,younger than 13,click here to respond,no,2025-08-12_16h45.31.077,empathy_intonation_perc_control,2024.2.4,Win32,56.81818182,6785891aee9028790a1bd6fc,68817205a84113384fffdfe3,689ba7b6039a32ba4095b66e,,,,,,,,,,,,,1,,,,,,,,,,,,,,,,,,,,,,,,,,,,,,,,,,,,,46,martillo,,,,,358.666,359.8136,0,0,0.6223,,0,35,35,45,1,REAL,FAKE,,,,,,,,,,,,,,,,,
,,,,,,,,,6785891aee9028790a1bd6fc,Spanish,younger than 13,click here to respond,no,2025-08-12_16h45.31.077,empathy_intonation_perc_control,2024.2.4,Win32,56.81818182,6785891aee9028790a1bd6fc,68817205a84113384fffdfe3,689ba7b6039a32ba4095b66e,,,,,,,,,,,,,0,,,,,,,,,,,,,,,,,,,,,,,,,,,,,,,,,,,,,8,cadeña,,,,,359.8146,361.3289,1,0,0.9869,,0,36,36,7,1,REAL,FAKE,,,,,,,,,,,,,,,,,
,,,,,,,,,6785891aee9028790a1bd6fc,Spanish,younger than 13,click here to respond,no,2025-08-12_16h45.31.077,empathy_intonation_perc_control,2024.2.4,Win32,56.81818182,6785891aee9028790a1bd6fc,68817205a84113384fffdfe3,689ba7b6039a32ba4095b66e,,,,,,,,,,,,,0,,,,,,,,,,,,,,,,,,,,,,,,,,,,,,,,,,,,,58,plaudir,,,,,361.3298,362.444,0,1,0.5866,,0,37,37,57,1,REAL,FAKE,,,,,,,,,,,,,,,,,
,,,,,,,,,6785891aee9028790a1bd6fc,Spanish,younger than 13,click here to respond,no,2025-08-12_16h45.31.077,empathy_intonation_perc_control,2024.2.4,Win32,56.81818182,6785891aee9028790a1bd6fc,68817205a84113384fffdfe3,689ba7b6039a32ba4095b66e,,,,,,,,,,,,,1,,,,,,,,,,,,,,,,,,,,,,,,,,,,,,,,,,,,,24,látigo,,,,,362.4458,363.976,0,0,0.9999,,0,38,38,23,1,REAL,FAKE,,,,,,,,,,,,,,,,,
,,,,,,,,,6785891aee9028790a1bd6fc,Spanish,younger than 13,click here to respond,no,2025-08-12_16h45.31.077,empathy_intonation_perc_control,2024.2.4,Win32,56.81818182,6785891aee9028790a1bd6fc,68817205a84113384fffdfe3,689ba7b6039a32ba4095b66e,,,,,,,,,,,,,1,,,,,,,,,,,,,,,,,,,,,,,,,,,,,,,,,,,,,90,clavel,,,,,363.9772,365.2417,0,0,0.7407,,0,39,39,89,1,REAL,FAKE,,,,,,,,,,,,,,,,,
,,,,,,,,,6785891aee9028790a1bd6fc,Spanish,younger than 13,click here to respond,no,2025-08-12_16h45.31.077,empathy_intonation_perc_control,2024.2.4,Win32,56.81818182,6785891aee9028790a1bd6fc,68817205a84113384fffdfe3,689ba7b6039a32ba4095b66e,,,,,,,,,,,,,1,,,,,,,,,,,,,,,,,,,,,,,,,,,,,,,,,,,,,81,pozo,,,,,365.2426,366.3414,0,0,0.5782,,0,40,40,80,1,REAL,FAKE,,,,,,,,,,,,,,,,,
,,,,,,,,,6785891aee9028790a1bd6fc,Spanish,younger than 13,click here to respond,no,2025-08-12_16h45.31.077,empathy_intonation_perc_control,2024.2.4,Win32,56.81818182,6785891aee9028790a1bd6fc,68817205a84113384fffdfe3,689ba7b6039a32ba4095b66e,,,,,,,,,,,,,1,,,,,,,,,,,,,,,,,,,,,,,,,,,,,,,,,,,,,49,ganar,,,,,366.3424,367.7392,0,0,0.8657,,0,41,41,48,1,REAL,FAKE,,,,,,,,,,,,,,,,,
,,,,,,,,,6785891aee9028790a1bd6fc,Spanish,younger than 13,click here to respond,no,2025-08-12_16h45.31.077,empathy_intonation_perc_control,2024.2.4,Win32,56.81818182,6785891aee9028790a1bd6fc,68817205a84113384fffdfe3,689ba7b6039a32ba4095b66e,,,,,,,,,,,,,0,,,,,,,,,,,,,,,,,,,,,,,,,,,,,,,,,,,,,79,tropaje,,,,,367.7402,369.3542,1,0,1.0862,,0,42,42,78,1,REAL,FAKE,,,,,,,,,,,,,,,,,
,,,,,,,,,6785891aee9028790a1bd6fc,Spanish,younger than 13,click here to respond,no,2025-08-12_16h45.31.077,empathy_intonation_perc_control,2024.2.4,Win32,56.81818182,6785891aee9028790a1bd6fc,68817205a84113384fffdfe3,689ba7b6039a32ba4095b66e,,,,,,,,,,,,,1,,,,,,,,,,,,,,,,,,,,,,,,,,,,,,,,,,,,,12,asesinato,,,,,369.3551,370.603,0,0,0.7135,,0,43,43,11,1,REAL,FAKE,,,,,,,,,,,,,,,,,
,,,,,,,,,6785891aee9028790a1bd6fc,Spanish,younger than 13,click here to respond,no,2025-08-12_16h45.31.077,empathy_intonation_perc_control,2024.2.4,Win32,56.81818182,6785891aee9028790a1bd6fc,68817205a84113384fffdfe3,689ba7b6039a32ba4095b66e,,,,,,,,,,,,,1,,,,,,,,,,,,,,,,,,,,,,,,,,,,,,,,,,,,,75,yacer,,,,,370.6039,371.6849,0,0,0.5511,,0,44,44,74,1,REAL,FAKE,,,,,,,,,,,,,,,,,
,,,,,,,,,6785891aee9028790a1bd6fc,Spanish,younger than 13,click here to respond,no,2025-08-12_16h45.31.077,empathy_intonation_perc_control,2024.2.4,Win32,56.81818182,6785891aee9028790a1bd6fc,68817205a84113384fffdfe3,689ba7b6039a32ba4095b66e,,,,,,,,,,,,,1,,,,,,,,,,,,,,,,,,,,,,,,,,,,,,,,,,,,,20,ávido,,,,,371.6861,373.0837,1,1,0.8644,,0,45,45,19,1,REAL,FAKE,,,,,,,,,,,,,,,,,
,,,,,,,,,6785891aee9028790a1bd6fc,Spanish,younger than 13,click here to respond,no,2025-08-12_16h45.31.077,empathy_intonation_perc_control,2024.2.4,Win32,56.81818182,6785891aee9028790a1bd6fc,68817205a84113384fffdfe3,689ba7b6039a32ba4095b66e,,,,,,,,,,,,,0,,,,,,,,,,,,,,,,,,,,,,,,,,,,,,,,,,,,,30,alardio,,,,,373.0848,375.3148,0,1,1.7043,,0,46,46,29,1,REAL,FAKE,,,,,,,,,,,,,,,,,
,,,,,,,,,6785891aee9028790a1bd6fc,Spanish,younger than 13,click here to respond,no,2025-08-12_16h45.31.077,empathy_intonation_perc_control,2024.2.4,Win32,56.81818182,6785891aee9028790a1bd6fc,68817205a84113384fffdfe3,689ba7b6039a32ba4095b66e,,,,,,,,,,,,,1,,,,,,,,,,,,,,,,,,,,,,,,,,,,,,,,,,,,,31,pandilla,,,,,375.3161,376.6144,0,0,0.7646,,0,47,47,30,1,REAL,FAKE,,,,,,,,,,,,,,,,,
,,,,,,,,,6785891aee9028790a1bd6fc,Spanish,younger than 13,click here to respond,no,2025-08-12_16h45.31.077,empathy_intonation_perc_control,2024.2.4,Win32,56.81818182,6785891aee9028790a1bd6fc,68817205a84113384fffdfe3,689ba7b6039a32ba4095b66e,,,,,,,,,,,,,0,,,,,,,,,,,,,,,,,,,,,,,,,,,,,,,,,,,,,42,cadallo,,,,,376.6155,378.1121,0,1,0.9677,,0,48,48,41,1,REAL,FAKE,,,,,,,,,,,,,,,,,
,,,,,,,,,6785891aee9028790a1bd6fc,Spanish,younger than 13,click here to respond,no,2025-08-12_16h45.31.077,empathy_intonation_perc_control,2024.2.4,Win32,56.81818182,6785891aee9028790a1bd6fc,68817205a84113384fffdfe3,689ba7b6039a32ba4095b66e,,,,,,,,,,,,,1,,,,,,,,,,,,,,,,,,,,,,,,,,,,,,,,,,,,,36,loro,,,,,378.113,379.3276,0,0,0.6904,,0,49,49,35,1,REAL,FAKE,,,,,,,,,,,,,,,,,
,,,,,,,,,6785891aee9028790a1bd6fc,Spanish,younger than 13,click here to respond,no,2025-08-12_16h45.31.077,empathy_intonation_perc_control,2024.2.4,Win32,56.81818182,6785891aee9028790a1bd6fc,68817205a84113384fffdfe3,689ba7b6039a32ba4095b66e,,,,,,,,,,,,,1,,,,,,,,,,,,,,,,,,,,,,,,,,,,,,,,,,,,,37,granuja,,,,,379.3285,380.427,0,0,0.5651,,0,50,50,36,1,REAL,FAKE,,,,,,,,,,,,,,,,,
,,,,,,,,,6785891aee9028790a1bd6fc,Spanish,younger than 13,click here to respond,no,2025-08-12_16h45.31.077,empathy_intonation_perc_control,2024.2.4,Win32,56.81818182,6785891aee9028790a1bd6fc,68817205a84113384fffdfe3,689ba7b6039a32ba4095b66e,,,,,,,,,,,,,0,,,,,,,,,,,,,,,,,,,,,,,,,,,,,,,,,,,,,47,cartinar,,,,,380.428,381.6754,1,0,0.7265,,0,51,51,46,1,REAL,FAKE,,,,,,,,,,,,,,,,,
,,,,,,,,,6785891aee9028790a1bd6fc,Spanish,younger than 13,click here to respond,no,2025-08-12_16h45.31.077,empathy_intonation_perc_control,2024.2.4,Win32,56.81818182,6785891aee9028790a1bd6fc,68817205a84113384fffdfe3,689ba7b6039a32ba4095b66e,,,,,,,,,,,,,1,,,,,,,,,,,,,,,,,,,,,,,,,,,,,,,,,,,,,62,flaco,,,,,381.6764,383.1415,0,0,0.9331,,0,52,52,61,1,REAL,FAKE,,,,,,,,,,,,,,,,,
,,,,,,,,,6785891aee9028790a1bd6fc,Spanish,younger than 13,click here to respond,no,2025-08-12_16h45.31.077,empathy_intonation_perc_control,2024.2.4,Win32,56.81818182,6785891aee9028790a1bd6fc,68817205a84113384fffdfe3,689ba7b6039a32ba4095b66e,,,,,,,,,,,,,1,,,,,,,,,,,,,,,,,,,,,,,,,,,,,,,,,,,,,41,rebuscar,,,,,383.1437,384.3562,0,0,0.6917,,0,53,53,40,1,REAL,FAKE,,,,,,,,,,,,,,,,,
,,,,,,,,,6785891aee9028790a1bd6fc,Spanish,younger than 13,click here to respond,no,2025-08-12_16h45.31.077,empathy_intonation_perc_control,2024.2.4,Win32,56.81818182,6785891aee9028790a1bd6fc,68817205a84113384fffdfe3,689ba7b6039a32ba4095b66e,,,,,,,,,,,,,0,,,,,,,,,,,,,,,,,,,,,,,,,,,,,,,,,,,,,21,capillo,,,,,384.3574,385.639,0,1,0.7474,,0,54,54,20,1,REAL,FAKE,,,,,,,,,,,,,,,,,
,,,,,,,,,6785891aee9028790a1bd6fc,Spanish,younger than 13,click here to respond,no,2025-08-12_16h45.31.077,empathy_intonation_perc_control,2024.2.4,Win32,56.81818182,6785891aee9028790a1bd6fc,68817205a84113384fffdfe3,689ba7b6039a32ba4095b66e,,,,,,,,,,,,,1,,,,,,,,,,,,,,,,,,,,,,,,,,,,,,,,,,,,,86,barato,,,,,385.6402,386.9868,0,0,0.8217,,0,55,55,85,1,REAL,FAKE,,,,,,,,,,,,,,,,,
,,,,,,,,,6785891aee9028790a1bd6fc,Spanish,younger than 13,click here to respond,no,2025-08-12_16h45.31.077,empathy_intonation_perc_control,2024.2.4,Win32,56.81818182,6785891aee9028790a1bd6fc,68817205a84113384fffdfe3,689ba7b6039a32ba4095b66e,,,,,,,,,,,,,1,,,,,,,,,,,,,,,,,,,,,,,,,,,,,,,,,,,,,83,guante,,,,,386.9878,388.1022,0,0,0.5886,,0,56,56,82,1,REAL,FAKE,,,,,,,,,,,,,,,,,
,,,,,,,,,6785891aee9028790a1bd6fc,Spanish,younger than 13,click here to respond,no,2025-08-12_16h45.31.077,empathy_intonation_perc_control,2024.2.4,Win32,56.81818182,6785891aee9028790a1bd6fc,68817205a84113384fffdfe3,689ba7b6039a32ba4095b66e,,,,,,,,,,,,,0,,,,,,,,,,,,,,,,,,,,,,,,,,,,,,,,,,,,,53,vegada,,,,,388.1037,389.2179,0,1,0.5863,,0,57,57,52,1,REAL,FAKE,,,,,,,,,,,,,,,,,
,,,,,,,,,6785891aee9028790a1bd6fc,Spanish,younger than 13,click here to respond,no,2025-08-12_16h45.31.077,empathy_intonation_perc_control,2024.2.4,Win32,56.81818182,6785891aee9028790a1bd6fc,68817205a84113384fffdfe3,689ba7b6039a32ba4095b66e,,,,,,,,,,,,,1,,,,,,,,,,,,,,,,,,,,,,,,,,,,,,,,,,,,,7,pésimo,,,,,389.2188,390.4336,0,0,0.6879,,0,58,58,6,1,REAL,FAKE,,,,,,,,,,,,,,,,,
,,,,,,,,,6785891aee9028790a1bd6fc,Spanish,younger than 13,click here to respond,no,2025-08-12_16h45.31.077,empathy_intonation_perc_control,2024.2.4,Win32,56.81818182,6785891aee9028790a1bd6fc,68817205a84113384fffdfe3,689ba7b6039a32ba4095b66e,,,,,,,,,,,,,1,,,,,,,,,,,,,,,,,,,,,,,,,,,,,,,,,,,,,91,click the 1 key.,,,,,390.4355,391.8153,1,1,0.8588,,0,59,59,90,1,REAL,FAKE,,,,,,,,,,,,,,,,,
,,,,,,,,,6785891aee9028790a1bd6fc,Spanish,younger than 13,click here to respond,no,2025-08-12_16h45.31.077,empathy_intonation_perc_control,2024.2.4,Win32,56.81818182,6785891aee9028790a1bd6fc,68817205a84113384fffdfe3,689ba7b6039a32ba4095b66e,,,,,,,,,,,,,0,,,,,,,,,,,,,,,,,,,,,,,,,,,,,,,,,,,,,4,batillón,,,,,391.8162,393.2326,0,1,0.8956,,0,60,60,3,1,REAL,FAKE,,,,,,,,,,,,,,,,,
,,,,,,,,,6785891aee9028790a1bd6fc,Spanish,younger than 13,click here to respond,no,2025-08-12_16h45.31.077,empathy_intonation_perc_control,2024.2.4,Win32,56.81818182,6785891aee9028790a1bd6fc,68817205a84113384fffdfe3,689ba7b6039a32ba4095b66e,,,,,,,,,,,,,1,,,,,,,,,,,,,,,,,,,,,,,,,,,,,,,,,,,,,64,orgulloso,,,,,393.2334,394.3794,0,0,0.6151,,0,61,61,63,1,REAL,FAKE,,,,,,,,,,,,,,,,,
,,,,,,,,,6785891aee9028790a1bd6fc,Spanish,younger than 13,click here to respond,no,2025-08-12_16h45.31.077,empathy_intonation_perc_control,2024.2.4,Win32,56.81818182,6785891aee9028790a1bd6fc,68817205a84113384fffdfe3,689ba7b6039a32ba4095b66e,,,,,,,,,,,,,1,,,,,,,,,,,,,,,,,,,,,,,,,,,,,,,,,,,,,89,prisa,,,,,394.3809,396.0975,0,0,1.1888,,0,62,62,88,1,REAL,FAKE,,,,,,,,,,,,,,,,,
,,,,,,,,,6785891aee9028790a1bd6fc,Spanish,younger than 13,click here to respond,no,2025-08-12_16h45.31.077,empathy_intonation_perc_control,2024.2.4,Win32,56.81818182,6785891aee9028790a1bd6fc,68817205a84113384fffdfe3,689ba7b6039a32ba4095b66e,,,,,,,,,,,,,0,,,,,,,,,,,,,,,,,,,,,,,,,,,,,,,,,,,,,27,acutación,,,,,396.0987,397.2267,0,1,0.6064,,0,63,63,26,1,REAL,FAKE,,,,,,,,,,,,,,,,,
,,,,,,,,,6785891aee9028790a1bd6fc,Spanish,younger than 13,click here to respond,no,2025-08-12_16h45.31.077,empathy_intonation_perc_control,2024.2.4,Win32,56.81818182,6785891aee9028790a1bd6fc,68817205a84113384fffdfe3,689ba7b6039a32ba4095b66e,,,,,,,,,,,,,1,,,,,,,,,,,,,,,,,,,,,,,,,,,,,,,,,,,,,6,tergiversar,,,,,397.2276,398.3771,0,0,0.6286,,0,64,64,5,1,REAL,FAKE,,,,,,,,,,,,,,,,,
,,,,,,,,,6785891aee9028790a1bd6fc,Spanish,younger than 13,click here to respond,no,2025-08-12_16h45.31.077,empathy_intonation_perc_control,2024.2.4,Win32,56.81818182,6785891aee9028790a1bd6fc,68817205a84113384fffdfe3,689ba7b6039a32ba4095b66e,,,,,,,,,,,,,0,,,,,,,,,,,,,,,,,,,,,,,,,,,,,,,,,,,,,92,click the 0 key.,,,,,398.378,400.1581,0,1,1.2607,,0,65,65,91,1,REAL,FAKE,,,,,,,,,,,,,,,,,
,,,,,,,,,6785891aee9028790a1bd6fc,Spanish,younger than 13,click here to respond,no,2025-08-12_16h45.31.077,empathy_intonation_perc_control,2024.2.4,Win32,56.81818182,6785891aee9028790a1bd6fc,68817205a84113384fffdfe3,689ba7b6039a32ba4095b66e,,,,,,,,,,,,,0,,,,,,,,,,,,,,,,,,,,,,,,,,,,,,,,,,,,,35,rompido,,,,,400.1593,401.4725,0,1,0.7922,,0,66,66,34,1,REAL,FAKE,,,,,,,,,,,,,,,,,
,,,,,,,,,6785891aee9028790a1bd6fc,Spanish,younger than 13,click here to respond,no,2025-08-12_16h45.31.077,empathy_intonation_perc_control,2024.2.4,Win32,56.81818182,6785891aee9028790a1bd6fc,68817205a84113384fffdfe3,689ba7b6039a32ba4095b66e,,,,,,,,,,,,,0,,,,,,,,,,,,,,,,,,,,,,,,,,,,,,,,,,,,,66,hacido,,,,,401.4738,402.8547,0,1,0.8488,,0,67,67,65,1,REAL,FAKE,,,,,,,,,,,,,,,,,
,,,,,,,,,6785891aee9028790a1bd6fc,Spanish,younger than 13,click here to respond,no,2025-08-12_16h45.31.077,empathy_intonation_perc_control,2024.2.4,Win32,56.81818182,6785891aee9028790a1bd6fc,68817205a84113384fffdfe3,689ba7b6039a32ba4095b66e,,,,,,,,,,,,,1,,,,,,,,,,,,,,,,,,,,,,,,,,,,,,,,,,,,,13,helar,,,,,402.856,404.0032,0,0,0.6208,,0,68,68,12,1,REAL,FAKE,,,,,,,,,,,,,,,,,
,,,,,,,,,6785891aee9028790a1bd6fc,Spanish,younger than 13,click here to respond,no,2025-08-12_16h45.31.077,empathy_intonation_perc_control,2024.2.4,Win32,56.81818182,6785891aee9028790a1bd6fc,68817205a84113384fffdfe3,689ba7b6039a32ba4095b66e,,,,,,,,,,,,,1,,,,,,,,,,,,,,,,,,,,,,,,,,,,,,,,,,,,,55,nevar,,,,,404.0042,405.4854,0,0,0.952,,0,69,69,54,1,REAL,FAKE,,,,,,,,,,,,,,,,,
,,,,,,,,,6785891aee9028790a1bd6fc,Spanish,younger than 13,click here to respond,no,2025-08-12_16h45.31.077,empathy_intonation_perc_control,2024.2.4,Win32,56.81818182,6785891aee9028790a1bd6fc,68817205a84113384fffdfe3,689ba7b6039a32ba4095b66e,,,,,,,,,,,,,1,,,,,,,,,,,,,,,,,,,,,,,,,,,,,,,,,,,,,52,camisa,,,,,405.4863,407.0009,1,1,0.9851,,0,70,70,51,1,REAL,FAKE,,,,,,,,,,,,,,,,,
,,,,,,,,,6785891aee9028790a1bd6fc,Spanish,younger than 13,click here to respond,no,2025-08-12_16h45.31.077,empathy_intonation_perc_control,2024.2.4,Win32,56.81818182,6785891aee9028790a1bd6fc,68817205a84113384fffdfe3,689ba7b6039a32ba4095b66e,,,,,,,,,,,,,0,,,,,,,,,,,,,,,,,,,,,,,,,,,,,,,,,,,,,18,arsa,,,,,407.0018,408.1532,1,0,0.6304,,0,71,71,17,1,REAL,FAKE,,,,,,,,,,,,,,,,,
,,,,,,,,,6785891aee9028790a1bd6fc,Spanish,younger than 13,click here to respond,no,2025-08-12_16h45.31.077,empathy_intonation_perc_control,2024.2.4,Win32,56.81818182,6785891aee9028790a1bd6fc,68817205a84113384fffdfe3,689ba7b6039a32ba4095b66e,,,,,,,,,,,,,1,,,,,,,,,,,,,,,,,,,,,,,,,,,,,,,,,,,,,78,frondoso,,,,,408.1545,409.2153,0,0,0.5343,,0,72,72,77,1,REAL,FAKE,,,,,,,,,,,,,,,,,
,,,,,,,,,6785891aee9028790a1bd6fc,Spanish,younger than 13,click here to respond,no,2025-08-12_16h45.31.077,empathy_intonation_perc_control,2024.2.4,Win32,56.81818182,6785891aee9028790a1bd6fc,68817205a84113384fffdfe3,689ba7b6039a32ba4095b66e,,,,,,,,,,,,,1,,,,,,,,,,,,,,,,,,,,,,,,,,,,,,,,,,,,,45,jilguero,,,,,409.2163,410.3639,0,0,0.6156,,0,73,73,44,1,REAL,FAKE,,,,,,,,,,,,,,,,,
,,,,,,,,,6785891aee9028790a1bd6fc,Spanish,younger than 13,click here to respond,no,2025-08-12_16h45.31.077,empathy_intonation_perc_control,2024.2.4,Win32,56.81818182,6785891aee9028790a1bd6fc,68817205a84113384fffdfe3,689ba7b6039a32ba4095b66e,,,,,,,,,,,,,0,,,,,,,,,,,,,,,,,,,,,,,,,,,,,,,,,,,,,23,lampera,,,,,410.3649,411.8958,0,1,1.0029,,0,74,74,22,1,REAL,FAKE,,,,,,,,,,,,,,,,,
,,,,,,,,,6785891aee9028790a1bd6fc,Spanish,younger than 13,click here to respond,no,2025-08-12_16h45.31.077,empathy_intonation_perc_control,2024.2.4,Win32,56.81818182,6785891aee9028790a1bd6fc,68817205a84113384fffdfe3,689ba7b6039a32ba4095b66e,,,,,,,,,,,,,1,,,,,,,,,,,,,,,,,,,,,,,,,,,,,,,,,,,,,85,laúd,,,,,411.8974,413.0442,0,0,0.6177,,0,75,75,84,1,REAL,FAKE,,,,,,,,,,,,,,,,,
,,,,,,,,,6785891aee9028790a1bd6fc,Spanish,younger than 13,click here to respond,no,2025-08-12_16h45.31.077,empathy_intonation_perc_control,2024.2.4,Win32,56.81818182,6785891aee9028790a1bd6fc,68817205a84113384fffdfe3,689ba7b6039a32ba4095b66e,,,,,,,,,,,,,1,,,,,,,,,,,,,,,,,,,,,,,,,,,,,,,,,,,,,59,besar,,,,,413.046,414.2767,0,0,0.7039,,0,76,76,58,1,REAL,FAKE,,,,,,,,,,,,,,,,,
,,,,,,,,,6785891aee9028790a1bd6fc,Spanish,younger than 13,click here to respond,no,2025-08-12_16h45.31.077,empathy_intonation_perc_control,2024.2.4,Win32,56.81818182,6785891aee9028790a1bd6fc,68817205a84113384fffdfe3,689ba7b6039a32ba4095b66e,,,,,,,,,,,,,1,,,,,,,,,,,,,,,,,,,,,,,,,,,,,,,,,,,,,60,matar,,,,,414.2777,415.642,0,0,0.8374,,0,77,77,59,1,REAL,FAKE,,,,,,,,,,,,,,,,,
,,,,,,,,,6785891aee9028790a1bd6fc,Spanish,younger than 13,click here to respond,no,2025-08-12_16h45.31.077,empathy_intonation_perc_control,2024.2.4,Win32,56.81818182,6785891aee9028790a1bd6fc,68817205a84113384fffdfe3,689ba7b6039a32ba4095b66e,,,,,,,,,,,,,1,,,,,,,,,,,,,,,,,,,,,,,,,,,,,,,,,,,,,65,bizcocho,,,,,415.643,416.6743,0,0,0.5046,,0,78,78,64,1,REAL,FAKE,,,,,,,,,,,,,,,,,
,,,,,,,,,6785891aee9028790a1bd6fc,Spanish,younger than 13,click here to respond,no,2025-08-12_16h45.31.077,empathy_intonation_perc_control,2024.2.4,Win32,56.81818182,6785891aee9028790a1bd6fc,68817205a84113384fffdfe3,689ba7b6039a32ba4095b66e,,,,,,,,,,,,,1,,,,,,,,,,,,,,,,,,,,,,,,,,,,,,,,,,,,,44,cuchara,,,,,416.6753,417.6076,0,0,0.4079,,0,79,79,43,1,REAL,FAKE,,,,,,,,,,,,,,,,,
,,,,,,,,,6785891aee9028790a1bd6fc,Spanish,younger than 13,click here to respond,no,2025-08-12_16h45.31.077,empathy_intonation_perc_control,2024.2.4,Win32,56.81818182,6785891aee9028790a1bd6fc,68817205a84113384fffdfe3,689ba7b6039a32ba4095b66e,,,,,,,,,,,,,1,,,,,,,,,,,,,,,,,,,,,,,,,,,,,,,,,,,,,67,cabello,,,,,417.6089,418.5556,0,0,0.4262,,0,80,80,66,1,REAL,FAKE,,,,,,,,,,,,,,,,,
,,,,,,,,,6785891aee9028790a1bd6fc,Spanish,younger than 13,click here to respond,no,2025-08-12_16h45.31.077,empathy_intonation_perc_control,2024.2.4,Win32,56.81818182,6785891aee9028790a1bd6fc,68817205a84113384fffdfe3,689ba7b6039a32ba4095b66e,,,,,,,,,,,,,0,,,,,,,,,,,,,,,,,,,,,,,,,,,,,,,,,,,,,32,fatacidad,,,,,418.5566,419.7712,0,1,0.6818,,0,81,81,31,1,REAL,FAKE,,,,,,,,,,,,,,,,,
,,,,,,,,,6785891aee9028790a1bd6fc,Spanish,younger than 13,click here to respond,no,2025-08-12_16h45.31.077,empathy_intonation_perc_control,2024.2.4,Win32,56.81818182,6785891aee9028790a1bd6fc,68817205a84113384fffdfe3,689ba7b6039a32ba4095b66e,,,,,,,,,,,,,1,,,,,,,,,,,,,,,,,,,,,,,,,,,,,,,,,,,,,26,secuestro,,,,,419.7724,420.9866,0,0,0.6833,,0,82,82,25,1,REAL,FAKE,,,,,,,,,,,,,,,,,
,,,,,,,,,6785891aee9028790a1bd6fc,Spanish,younger than 13,click here to respond,no,2025-08-12_16h45.31.077,empathy_intonation_perc_control,2024.2.4,Win32,56.81818182,6785891aee9028790a1bd6fc,68817205a84113384fffdfe3,689ba7b6039a32ba4095b66e,,,,,,,,,,,,,0,,,,,,,,,,,,,,,,,,,,,,,,,,,,,,,,,,,,,50,flamida,,,,,420.9875,422.7521,0,1,1.2316,,0,83,83,49,1,REAL,FAKE,,,,,,,,,,,,,,,,,
,,,,,,,,,6785891aee9028790a1bd6fc,Spanish,younger than 13,click here to respond,no,2025-08-12_16h45.31.077,empathy_intonation_perc_control,2024.2.4,Win32,56.81818182,6785891aee9028790a1bd6fc,68817205a84113384fffdfe3,689ba7b6039a32ba4095b66e,,,,,,,,,,,,,1,,,,,,,,,,,,,,,,,,,,,,,,,,,,,,,,,,,,,88,acantilado,,,,,422.7531,424.0838,0,0,0.8019,,0,84,84,87,1,REAL,FAKE,,,,,,,,,,,,,,,,,
,,,,,,,,,6785891aee9028790a1bd6fc,Spanish,younger than 13,click here to respond,no,2025-08-12_16h45.31.077,empathy_intonation_perc_control,2024.2.4,Win32,56.81818182,6785891aee9028790a1bd6fc,68817205a84113384fffdfe3,689ba7b6039a32ba4095b66e,,,,,,,,,,,,,1,,,,,,,,,,,,,,,,,,,,,,,,,,,,,,,,,,,,,9,hacha,,,,,424.085,425.2158,0,0,0.6037,,0,85,85,8,1,REAL,FAKE,,,,,,,,,,,,,,,,,
,,,,,,,,,6785891aee9028790a1bd6fc,Spanish,younger than 13,click here to respond,no,2025-08-12_16h45.31.077,empathy_intonation_perc_control,2024.2.4,Win32,56.81818182,6785891aee9028790a1bd6fc,68817205a84113384fffdfe3,689ba7b6039a32ba4095b66e,,,,,,,,,,,,,0,,,,,,,,,,,,,,,,,,,,,,,,,,,,,,,,,,,,,72,pemición,,,,,425.2166,426.3816,0,1,0.6345,,0,86,86,71,1,REAL,FAKE,,,,,,,,,,,,,,,,,
,,,,,,,,,6785891aee9028790a1bd6fc,Spanish,younger than 13,click here to respond,no,2025-08-12_16h45.31.077,empathy_intonation_perc_control,2024.2.4,Win32,56.81818182,6785891aee9028790a1bd6fc,68817205a84113384fffdfe3,689ba7b6039a32ba4095b66e,,,,,,,,,,,,,0,,,,,,,,,,,,,,,,,,,,,,,,,,,,,,,,,,,,,29,decar,,,,,426.3825,428.3127,1,0,1.4044,,0,87,87,28,1,REAL,FAKE,,,,,,,,,,,,,,,,,
,,,,,,,,,6785891aee9028790a1bd6fc,Spanish,younger than 13,click here to respond,no,2025-08-12_16h45.31.077,empathy_intonation_perc_control,2024.2.4,Win32,56.81818182,6785891aee9028790a1bd6fc,68817205a84113384fffdfe3,689ba7b6039a32ba4095b66e,,,,,,,,,,,,,0,,,,,,,,,,,,,,,,,,,,,,,,,,,,,,,,,,,,,87,grodo,,,,,428.3137,429.6447,0,1,0.7989,,0,88,88,86,1,REAL,FAKE,,,,,,,,,,,,,,,,,
,,,,,,,,,6785891aee9028790a1bd6fc,Spanish,younger than 13,click here to respond,no,2025-08-12_16h45.31.077,empathy_intonation_perc_control,2024.2.4,Win32,56.81818182,6785891aee9028790a1bd6fc,68817205a84113384fffdfe3,689ba7b6039a32ba4095b66e,,,,,,,,,,,,,1,,,,,,,,,,,,,,,,,,,,,,,,,,,,,,,,,,,,,56,musgo,,,,,429.6456,430.8602,0,0,0.6817,,0,89,89,55,1,REAL,FAKE,,,,,,,,,,,,,,,,,
,,,,,,,,,6785891aee9028790a1bd6fc,Spanish,younger than 13,click here to respond,no,2025-08-12_16h45.31.077,empathy_intonation_perc_control,2024.2.4,Win32,56.81818182,6785891aee9028790a1bd6fc,68817205a84113384fffdfe3,689ba7b6039a32ba4095b66e,,,,,,,,,,,,,1,,,,,,,,,,,,,,,,,,,,,,,,,,,,,,,,,,,,,11,cenefa,,,,,430.8611,432.159,0,0,0.7655,,0,90,90,10,1,REAL,FAKE,,,,,,,,,,,,,,,,,
,,,,,,,,,6785891aee9028790a1bd6fc,Spanish,younger than 13,click here to respond,no,2025-08-12_16h45.31.077,empathy_intonation_perc_control,2024.2.4,Win32,56.81818182,6785891aee9028790a1bd6fc,68817205a84113384fffdfe3,689ba7b6039a32ba4095b66e,,,,,,,,,,,,,0,,,,,,,,,,,,,,,,,,,,,,,,,,,,,,,,,,,,,33,pauca,,,,,432.1603,433.3411,0,1,0.6487,,0,91,91,32,1,REAL,FAKE,,,,,,,,,,,,,,,,,
,,,,,,,,,6785891aee9028790a1bd6fc,Spanish,younger than 13,click here to respond,no,2025-08-12_16h45.31.077,empathy_intonation_perc_control,2024.2.4,Win32,56.81818182,6785891aee9028790a1bd6fc,68817205a84113384fffdfe3,689ba7b6039a32ba4095b66e,,,,,,,,,,,,,,,,,,,,,,,,,,,,,,,,,,,,,,,,,,,,,,,,,,,,,,,,,,,,,,,,,,,,,433.3414,439.2191,,,,,,,,,,,,,,,
,,,,,,,,,6785891aee9028790a1bd6fc,Spanish,younger than 13,click here to respond,no,2025-08-12_16h45.31.077,empathy_intonation_perc_control,2024.2.4,Win32,56.81818182,6785891aee9028790a1bd6fc,68817205a84113384fffdfe3,689ba7b6039a32ba4095b66e,,,,,,,,,,,,,,,,,,,,,,,,,,,1,,,,,,,,,,,,,,,,,,,,,,,,,,,,,,,,,,,,,,,,,,,,439.2283,443.1657,slightly agree,0,0,0,0,1,I can easily tell if someone else wants to enter a conversation.,1,0,1,0,,
,,,,,,,,,6785891aee9028790a1bd6fc,Spanish,younger than 13,click here to respond,no,2025-08-12_16h45.31.077,empathy_intonation_perc_control,2024.2.4,Win32,56.81818182,6785891aee9028790a1bd6fc,68817205a84113384fffdfe3,689ba7b6039a32ba4095b66e,,,,,,,,,,,,,,,,,,,,,,,,,,,2,,,,,,,,,,,,,,,,,,,,,,,,,,,,,,,,,,,,,,,,,,,,443.1676,445.7632,strongly disagree,0,1,1,1,1,I prefer animals to humans.,0,1,0,0,,
,,,,,,,,,6785891aee9028790a1bd6fc,Spanish,younger than 13,click here to respond,no,2025-08-12_16h45.31.077,empathy_intonation_perc_control,2024.2.4,Win32,56.81818182,6785891aee9028790a1bd6fc,68817205a84113384fffdfe3,689ba7b6039a32ba4095b66e,,,,,,,,,,,,,,,,,,,,,,,,,,,3,,,,,,,,,,,,,,,,,,,,,,,,,,,,,,,,,,,,,,,,,,,,445.7649,448.0619,slightly agree,0,2,2,2,1,I try to keep up with the current trends and fashions.,0,1,0,0,,
,,,,,,,,,6785891aee9028790a1bd6fc,Spanish,younger than 13,click here to respond,no,2025-08-12_16h45.31.077,empathy_intonation_perc_control,2024.2.4,Win32,56.81818182,6785891aee9028790a1bd6fc,68817205a84113384fffdfe3,689ba7b6039a32ba4095b66e,,,,,,,,,,,,,,,,,,,,,,,,,,,4,,,,,,,,,,,,,,,,,,,,,,,,,,,,,,,,,,,,,,,,,,,,448.0644,454.3054,slightly agree,0,3,3,3,1,"I find it difficult to explain to others things that I understand easily,   when they don't understand it first time.",1,0,0,1,,
,,,,,,,,,6785891aee9028790a1bd6fc,Spanish,younger than 13,click here to respond,no,2025-08-12_16h45.31.077,empathy_intonation_perc_control,2024.2.4,Win32,56.81818182,6785891aee9028790a1bd6fc,68817205a84113384fffdfe3,689ba7b6039a32ba4095b66e,,,,,,,,,,,,,,,,,,,,,,,,,,,5,,,,,,,,,,,,,,,,,,,,,,,,,,,,,,,,,,,,,,,,,,,,454.3066,456.6027,slightly disagree,0,4,4,4,1,I dream most nights.,0,1,0,0,,
,,,,,,,,,6785891aee9028790a1bd6fc,Spanish,younger than 13,click here to respond,no,2025-08-12_16h45.31.077,empathy_intonation_perc_control,2024.2.4,Win32,56.81818182,6785891aee9028790a1bd6fc,68817205a84113384fffdfe3,689ba7b6039a32ba4095b66e,,,,,,,,,,,,,,,,,,,,,,,,,,,6,,,,,,,,,,,,,,,,,,,,,,,,,,,,,,,,,,,,,,,,,,,,456.6049,458.151,strongly agree,0,5,5,5,1,I really enjoy caring for other people.,1,0,1,0,,
,,,,,,,,,6785891aee9028790a1bd6fc,Spanish,younger than 13,click here to respond,no,2025-08-12_16h45.31.077,empathy_intonation_perc_control,2024.2.4,Win32,56.81818182,6785891aee9028790a1bd6fc,68817205a84113384fffdfe3,689ba7b6039a32ba4095b66e,,,,,,,,,,,,,,,,,,,,,,,,,,,7,,,,,,,,,,,,,,,,,,,,,,,,,,,,,,,,,,,,,,,,,,,,458.1531,460.4831,slightly agree,0,6,6,6,1,I try to solve my own problems rather than discussing them with others.,0,1,0,0,,
,,,,,,,,,6785891aee9028790a1bd6fc,Spanish,younger than 13,click here to respond,no,2025-08-12_16h45.31.077,empathy_intonation_perc_control,2024.2.4,Win32,56.81818182,6785891aee9028790a1bd6fc,68817205a84113384fffdfe3,689ba7b6039a32ba4095b66e,,,,,,,,,,,,,,,,,,,,,,,,,,,8,,,,,,,,,,,,,,,,,,,,,,,,,,,,,,,,,,,,,,,,,,,,460.4844,463.1991,slightly disagree,0,7,7,7,1,I find it hard to know what to do in a social situation.,1,0,0,1,,
,,,,,,,,,6785891aee9028790a1bd6fc,Spanish,younger than 13,click here to respond,no,2025-08-12_16h45.31.077,empathy_intonation_perc_control,2024.2.4,Win32,56.81818182,6785891aee9028790a1bd6fc,68817205a84113384fffdfe3,689ba7b6039a32ba4095b66e,,,,,,,,,,,,,,,,,,,,,,,,,,,9,,,,,,,,,,,,,,,,,,,,,,,,,,,,,,,,,,,,,,,,,,,,463.2005,465.4633,strongly agree,0,8,8,8,1,I am at my best first thing in the morning.,0,1,0,0,,
,,,,,,,,,6785891aee9028790a1bd6fc,Spanish,younger than 13,click here to respond,no,2025-08-12_16h45.31.077,empathy_intonation_perc_control,2024.2.4,Win32,56.81818182,6785891aee9028790a1bd6fc,68817205a84113384fffdfe3,689ba7b6039a32ba4095b66e,,,,,,,,,,,,,,,,,,,,,,,,,,,10,,,,,,,,,,,,,,,,,,,,,,,,,,,,,,,,,,,,,,,,,,,,465.4651,473.5695,strongly disagree,0,9,9,9,1,People often tell me that I went too far in driving my point home in a discussion.,1,0,0,1,,
,,,,,,,,,6785891aee9028790a1bd6fc,Spanish,younger than 13,click here to respond,no,2025-08-12_16h45.31.077,empathy_intonation_perc_control,2024.2.4,Win32,56.81818182,6785891aee9028790a1bd6fc,68817205a84113384fffdfe3,689ba7b6039a32ba4095b66e,,,,,,,,,,,,,,,,,,,,,,,,,,,11,,,,,,,,,,,,,,,,,,,,,,,,,,,,,,,,,,,,,,,,,,,,473.5713,477.9317,strongly disagree,0,10,10,10,1,It doesn't bother me too much if I am late meeting a friend.,1,0,0,1,,
,,,,,,,,,6785891aee9028790a1bd6fc,Spanish,younger than 13,click here to respond,no,2025-08-12_16h45.31.077,empathy_intonation_perc_control,2024.2.4,Win32,56.81818182,6785891aee9028790a1bd6fc,68817205a84113384fffdfe3,689ba7b6039a32ba4095b66e,,,,,,,,,,,,,,,,,,,,,,,,,,,12,,,,,,,,,,,,,,,,,,,,,,,,,,,,,,,,,,,,,,,,,,,,477.9338,480.1795,strongly disagree,0,11,11,11,1,"Friendships and relationships are just too difficult, so I tend not to 
  bother with them.",1,0,0,1,,
,,,,,,,,,6785891aee9028790a1bd6fc,Spanish,younger than 13,click here to respond,no,2025-08-12_16h45.31.077,empathy_intonation_perc_control,2024.2.4,Win32,56.81818182,6785891aee9028790a1bd6fc,68817205a84113384fffdfe3,689ba7b6039a32ba4095b66e,,,,,,,,,,,,,,,,,,,,,,,,,,,13,,,,,,,,,,,,,,,,,,,,,,,,,,,,,,,,,,,,,,,,,,,,480.1811,483.8604,slightly agree,0,12,12,12,1,"I would never break a law, no matter how minor.",0,1,0,0,,
,,,,,,,,,6785891aee9028790a1bd6fc,Spanish,younger than 13,click here to respond,no,2025-08-12_16h45.31.077,empathy_intonation_perc_control,2024.2.4,Win32,56.81818182,6785891aee9028790a1bd6fc,68817205a84113384fffdfe3,689ba7b6039a32ba4095b66e,,,,,,,,,,,,,,,,,,,,,,,,,,,14,,,,,,,,,,,,,,,,,,,,,,,,,,,,,,,,,,,,,,,,,,,,483.8617,487.2396,slightly disagree,0,13,13,13,1,I often find it difficult to judge if something is rude or polite.,1,0,0,1,,
,,,,,,,,,6785891aee9028790a1bd6fc,Spanish,younger than 13,click here to respond,no,2025-08-12_16h45.31.077,empathy_intonation_perc_control,2024.2.4,Win32,56.81818182,6785891aee9028790a1bd6fc,68817205a84113384fffdfe3,689ba7b6039a32ba4095b66e,,,,,,,,,,,,,,,,,,,,,,,,,,,15,,,,,,,,,,,,,,,,,,,,,,,,,,,,,,,,,,,,,,,,,,,,487.2413,491.0042,slightly disagree,0,14,14,14,1,"In a conversation, I tend to focus on my own thoughts rather than on what 
  my listener might be thinking.",1,0,0,1,,
,,,,,,,,,6785891aee9028790a1bd6fc,Spanish,younger than 13,click here to respond,no,2025-08-12_16h45.31.077,empathy_intonation_perc_control,2024.2.4,Win32,56.81818182,6785891aee9028790a1bd6fc,68817205a84113384fffdfe3,689ba7b6039a32ba4095b66e,,,,,,,,,,,,,,,,,,,,,,,,,,,16,,,,,,,,,,,,,,,,,,,,,,,,,,,,,,,,,,,,,,,,,,,,491.0063,495.1167,slightly disagree,0,15,15,15,1,I prefer practical jokes to verbal humor.,0,1,0,0,,
,,,,,,,,,6785891aee9028790a1bd6fc,Spanish,younger than 13,click here to respond,no,2025-08-12_16h45.31.077,empathy_intonation_perc_control,2024.2.4,Win32,56.81818182,6785891aee9028790a1bd6fc,68817205a84113384fffdfe3,689ba7b6039a32ba4095b66e,,,,,,,,,,,,,,,,,,,,,,,,,,,17,,,,,,,,,,,,,,,,,,,,,,,,,,,,,,,,,,,,,,,,,,,,495.1187,497.7804,slightly agree,0,16,16,16,1,I live life for today rather than the future.,0,1,0,0,,
,,,,,,,,,6785891aee9028790a1bd6fc,Spanish,younger than 13,click here to respond,no,2025-08-12_16h45.31.077,empathy_intonation_perc_control,2024.2.4,Win32,56.81818182,6785891aee9028790a1bd6fc,68817205a84113384fffdfe3,689ba7b6039a32ba4095b66e,,,,,,,,,,,,,,,,,,,,,,,,,,,18,,,,,,,,,,,,,,,,,,,,,,,,,,,,,,,,,,,,,,,,,,,,497.7827,500.2788,strongly disagree,0,17,17,17,1,"When I was a child, I enjoyed cutting up worms to see what would happen.",1,0,0,1,,
,,,,,,,,,6785891aee9028790a1bd6fc,Spanish,younger than 13,click here to respond,no,2025-08-12_16h45.31.077,empathy_intonation_perc_control,2024.2.4,Win32,56.81818182,6785891aee9028790a1bd6fc,68817205a84113384fffdfe3,689ba7b6039a32ba4095b66e,,,,,,,,,,,,,,,,,,,,,,,,,,,19,,,,,,,,,,,,,,,,,,,,,,,,,,,,,,,,,,,,,,,,,,,,500.2804,503.6423,slightly agree,0,18,18,18,1,I can pick up quickly if someone says one thing but means another.,1,0,1,0,,
,,,,,,,,,6785891aee9028790a1bd6fc,Spanish,younger than 13,click here to respond,no,2025-08-12_16h45.31.077,empathy_intonation_perc_control,2024.2.4,Win32,56.81818182,6785891aee9028790a1bd6fc,68817205a84113384fffdfe3,689ba7b6039a32ba4095b66e,,,,,,,,,,,,,,,,,,,,,,,,,,,20,,,,,,,,,,,,,,,,,,,,,,,,,,,,,,,,,,,,,,,,,,,,503.6437,508.2373,slightly disagree,0,19,19,19,1,I tend to have very strong opinions about morality.,0,1,0,0,,
,,,,,,,,,6785891aee9028790a1bd6fc,Spanish,younger than 13,click here to respond,no,2025-08-12_16h45.31.077,empathy_intonation_perc_control,2024.2.4,Win32,56.81818182,6785891aee9028790a1bd6fc,68817205a84113384fffdfe3,689ba7b6039a32ba4095b66e,,,,,,,,,,,,,,,,,,,,,,,,,,,21,,,,,,,,,,,,,,,,,,,,,,,,,,,,,,,,,,,,,,,,,,,,508.2391,510.783,slightly disagree,0,20,20,20,1,It is hard for me to see why some things upset people so much.,1,0,0,1,,
,,,,,,,,,6785891aee9028790a1bd6fc,Spanish,younger than 13,click here to respond,no,2025-08-12_16h45.31.077,empathy_intonation_perc_control,2024.2.4,Win32,56.81818182,6785891aee9028790a1bd6fc,68817205a84113384fffdfe3,689ba7b6039a32ba4095b66e,,,,,,,,,,,,,,,,,,,,,,,,,,,22,,,,,,,,,,,,,,,,,,,,,,,,,,,,,,,,,,,,,,,,,,,,510.7848,513.5139,slightly agree,0,21,21,21,1,I find it easy to put myself in somebody else's shoes.,1,0,1,0,,
,,,,,,,,,6785891aee9028790a1bd6fc,Spanish,younger than 13,click here to respond,no,2025-08-12_16h45.31.077,empathy_intonation_perc_control,2024.2.4,Win32,56.81818182,6785891aee9028790a1bd6fc,68817205a84113384fffdfe3,689ba7b6039a32ba4095b66e,,,,,,,,,,,,,,,,,,,,,,,,,,,23,,,,,,,,,,,,,,,,,,,,,,,,,,,,,,,,,,,,,,,,,,,,513.5154,516.6779,strongly agree,0,22,22,22,1,I think that good manners are the most important thing a parent can teach their child.,0,1,0,0,,
,,,,,,,,,6785891aee9028790a1bd6fc,Spanish,younger than 13,click here to respond,no,2025-08-12_16h45.31.077,empathy_intonation_perc_control,2024.2.4,Win32,56.81818182,6785891aee9028790a1bd6fc,68817205a84113384fffdfe3,689ba7b6039a32ba4095b66e,,,,,,,,,,,,,,,,,,,,,,,,,,,24,,,,,,,,,,,,,,,,,,,,,,,,,,,,,,,,,,,,,,,,,,,,516.6802,519.558,slightly disagree,0,23,23,23,1,I like to do things on the spur of the moment.,0,1,0,0,,
,,,,,,,,,6785891aee9028790a1bd6fc,Spanish,younger than 13,click here to respond,no,2025-08-12_16h45.31.077,empathy_intonation_perc_control,2024.2.4,Win32,56.81818182,6785891aee9028790a1bd6fc,68817205a84113384fffdfe3,689ba7b6039a32ba4095b66e,,,,,,,,,,,,,,,,,,,,,,,,,,,25,,,,,,,,,,,,,,,,,,,,,,,,,,,,,,,,,,,,,,,,,,,,519.5601,520.9399,slightly disagree,0,24,24,24,1,I am good at predicting how someone will feel.,1,0,1,0,,
,,,,,,,,,6785891aee9028790a1bd6fc,Spanish,younger than 13,click here to respond,no,2025-08-12_16h45.31.077,empathy_intonation_perc_control,2024.2.4,Win32,56.81818182,6785891aee9028790a1bd6fc,68817205a84113384fffdfe3,689ba7b6039a32ba4095b66e,,,,,,,,,,,,,,,,,,,,,,,,,,,26,,,,,,,,,,,,,,,,,,,,,,,,,,,,,,,,,,,,,,,,,,,,520.9426,524.6234,slightly agree,0,25,25,25,1,I am quick to spot when someone in a group is feeling awkward or uncomfortable.,1,0,1,0,,
,,,,,,,,,6785891aee9028790a1bd6fc,Spanish,younger than 13,click here to respond,no,2025-08-12_16h45.31.077,empathy_intonation_perc_control,2024.2.4,Win32,56.81818182,6785891aee9028790a1bd6fc,68817205a84113384fffdfe3,689ba7b6039a32ba4095b66e,,,,,,,,,,,,,,,,,,,,,,,,,,,27,,,,,,,,,,,,,,,,,,,,,,,,,,,,,,,,,,,,,,,,,,,,524.6252,528.2315,strongly disagree,0,26,26,26,1,"If I say something that someone else is offended by, I think that that's their problem, not mine.",1,0,0,1,,
