instructions_2afc.started,instructions_2afc.stopped,instructions_2afc_loop.thisRepN,instructions_2afc_loop.thisTrialN,instructions_2afc_loop.thisN,instructions_2afc_loop.thisIndex,instructions_2afc_loop.ran,instructions_text,continue_text,participant_id,"What variety of Spanish are you most familiar with? (e.g., Peruvian, Spanish, Mexican)",At what age did you begin learning Spanish?,Are you proficient in any languages other than English/Spanish?,"Are you familiar with Caribbean (e.g., Caribbean, Puerto Rican) or Galician Spanish?",date,expName,psychopyVersion,OS,frameRate,id,study_id,session,practice_2afc.started,practice_2afc.stopped,key_resp_2afc_practice.keys,key_resp_2afc_practice.corr,key_resp_2afc_practice.rt,key_resp_2afc_practice.duration,trials_2afc_practice_loop.thisRepN,trials_2afc_practice_loop.thisTrialN,trials_2afc_practice_loop.thisN,trials_2afc_practice_loop.thisIndex,trials_2afc_practice_loop.ran,path,correct_response,check_2afc.started,check_2afc.stopped,trial_2afc.started,trial_2afc.stopped,key_resp_2afc_trial.keys,key_resp_2afc_trial.corr,key_resp_2afc_trial.rt,key_resp_2afc_trial.duration,trials_2afc_loop.thisRepN,trials_2afc_loop.thisTrialN,trials_2afc_loop.thisN,trials_2afc_loop.thisIndex,trials_2afc_loop.ran,item_num,target,variety,instructions_lextale.started,instructions_lextale.stopped,instructions_lextale_loop.thisRepN,instructions_lextale_loop.thisTrialN,instructions_lextale_loop.thisN,instructions_lextale_loop.thisIndex,instructions_lextale_loop.ran,practice_lextale.started,practice_lextale.stopped,key_resp_lextale_practice.keys,key_resp_lextale_practice.corr,key_resp_lextale_practice.rt,key_resp_lextale_practice.duration,practice_feedback_lextale.started,practice_feedback_lextale.stopped,trials_lextale_practice_loop.thisRepN,trials_lextale_practice_loop.thisTrialN,trials_lextale_practice_loop.thisN,trials_lextale_practice_loop.thisIndex,trials_lextale_practice_loop.ran,stim,word,prac_button_real,prac_button_false,check_lextale.started,check_lextale.stopped,trial_lextale.started,trial_lextale.stopped,key_resp_lextale_trial.keys,key_resp_lextale_trial.corr,key_resp_lextale_trial.rt,key_resp_lextale_trial.duration,trials_lextale_loop.thisRepN,trials_lextale_loop.thisTrialN,trials_lextale_loop.thisN,trials_lextale_loop.thisIndex,trials_lextale_loop.ran,button_real,button_false,instructions_eq.started,instructions_eq.stopped,trial_eq.started,trial_eq.stopped,slider_eq_trial.response,trials_eq_loop.thisRepN,trials_eq_loop.thisTrialN,trials_eq_loop.thisN,trials_eq_loop.thisIndex,trials_eq_loop.ran,item,is_test_item,is_distractor,is_agree_score,is_disagree_score,end_exp.started,end_exp.stopped
0.0179,8.5368,0,0,0,0,1,"In the following task you are going to hear a series of utterances. 

  You will decide if the utterances sound like questions or not using your keyboard.", (press the spacebar to continue),678b1abe0f20e54366473439,Spanish,13 or older,"no, only English or Spanish",yes,2025-07-23_21h37.44.159,empathy_intonation_perc_control,2024.2.4,Win32,59.88023952,678b1abe0f20e54366473439,68817205a84113384fffdfe3,68818e2bc8294464aa87f213,,,,,,,,,,,,,,,,,,,,,,,,,,,,,,,,,,,,,,,,,,,,,,,,,,,,,,,,,,,,,,,,,,,,,,,,,,,,,,,,,,,,,
8.5386,15.0107,0,1,1,1,1,"If you believe the utterance is a question, type '1' (for 'yes') and if you do not 
  believe it is a question type '0' (for 'no').

  Let's practice a bit...", (press the spacebar to continue),678b1abe0f20e54366473439,Spanish,13 or older,"no, only English or Spanish",yes,2025-07-23_21h37.44.159,empathy_intonation_perc_control,2024.2.4,Win32,59.88023952,678b1abe0f20e54366473439,68817205a84113384fffdfe3,68818e2bc8294464aa87f213,,,,,,,,,,,,,,,,,,,,,,,,,,,,,,,,,,,,,,,,,,,,,,,,,,,,,,,,,,,,,,,,,,,,,,,,,,,,,,,,,,,,,
,,,,,,,,,678b1abe0f20e54366473439,Spanish,13 or older,"no, only English or Spanish",yes,2025-07-23_21h37.44.159,empathy_intonation_perc_control,2024.2.4,Win32,59.88023952,678b1abe0f20e54366473439,68817205a84113384fffdfe3,68818e2bc8294464aa87f213,15.0206,20.1202,0,1,4.5743,,0,0,0,5,1,./stim/wavs/andalusian_statement_filler_Alberto-nunca-se-afeita.wav,0,,,,,,,,,,,,,,,,,,,,,,,,,,,,,,,,,,,,,,,,,,,,,,,,,,,,,,,,,,,,,,,,,,,,,,,,
,,,,,,,,,678b1abe0f20e54366473439,Spanish,13 or older,"no, only English or Spanish",yes,2025-07-23_21h37.44.159,empathy_intonation_perc_control,2024.2.4,Win32,59.88023952,678b1abe0f20e54366473439,68817205a84113384fffdfe3,68818e2bc8294464aa87f213,20.1211,23.3004,1,1,2.6575,,0,1,1,3,1,./stim/wavs/mexican_question_filler_Felipe-no-tiene-contrasena.wav,1,,,,,,,,,,,,,,,,,,,,,,,,,,,,,,,,,,,,,,,,,,,,,,,,,,,,,,,,,,,,,,,,,,,,,,,,
,,,,,,,,,678b1abe0f20e54366473439,Spanish,13 or older,"no, only English or Spanish",yes,2025-07-23_21h37.44.159,empathy_intonation_perc_control,2024.2.4,Win32,59.88023952,678b1abe0f20e54366473439,68817205a84113384fffdfe3,68818e2bc8294464aa87f213,23.3008,25.5482,1,1,1.7016,,0,2,2,2,1,./stim/wavs/chilean_question_filler_Mi-padre-cantaba-bien.wav,1,,,,,,,,,,,,,,,,,,,,,,,,,,,,,,,,,,,,,,,,,,,,,,,,,,,,,,,,,,,,,,,,,,,,,,,,
,,,,,,,,,678b1abe0f20e54366473439,Spanish,13 or older,"no, only English or Spanish",yes,2025-07-23_21h37.44.159,empathy_intonation_perc_control,2024.2.4,Win32,59.88023952,678b1abe0f20e54366473439,68817205a84113384fffdfe3,68818e2bc8294464aa87f213,25.5488,27.8956,0,1,1.823,,0,3,3,7,1,./stim/wavs/puertorican_statement_filler_La-nina-pinta-con-su-amiga.wav,0,,,,,,,,,,,,,,,,,,,,,,,,,,,,,,,,,,,,,,,,,,,,,,,,,,,,,,,,,,,,,,,,,,,,,,,,
,,,,,,,,,678b1abe0f20e54366473439,Spanish,13 or older,"no, only English or Spanish",yes,2025-07-23_21h37.44.159,empathy_intonation_perc_control,2024.2.4,Win32,59.88023952,678b1abe0f20e54366473439,68817205a84113384fffdfe3,68818e2bc8294464aa87f213,27.8962,30.7431,1,1,2.319,,0,4,4,1,1,./stim/wavs/argentine_question_filler_Mi-vecino-habla-mucho.wav,1,,,,,,,,,,,,,,,,,,,,,,,,,,,,,,,,,,,,,,,,,,,,,,,,,,,,,,,,,,,,,,,,,,,,,,,,
,,,,,,,,,678b1abe0f20e54366473439,Spanish,13 or older,"no, only English or Spanish",yes,2025-07-23_21h37.44.159,empathy_intonation_perc_control,2024.2.4,Win32,59.88023952,678b1abe0f20e54366473439,68817205a84113384fffdfe3,68818e2bc8294464aa87f213,30.7435,33.4572,0,1,2.1816,,0,5,5,6,1,./stim/wavs/peruvian_statement_filler_El-nino-habla-con-su-madre.wav,0,,,,,,,,,,,,,,,,,,,,,,,,,,,,,,,,,,,,,,,,,,,,,,,,,,,,,,,,,,,,,,,,,,,,,,,,
,,,,,,,,,678b1abe0f20e54366473439,Spanish,13 or older,"no, only English or Spanish",yes,2025-07-23_21h37.44.159,empathy_intonation_perc_control,2024.2.4,Win32,59.88023952,678b1abe0f20e54366473439,68817205a84113384fffdfe3,68818e2bc8294464aa87f213,33.4577,36.0548,1,1,2.0648,,0,6,6,0,1,./stim/wavs/castilian_question_filler_Mi-esposo-conoce-al-chico.wav,1,,,,,,,,,,,,,,,,,,,,,,,,,,,,,,,,,,,,,,,,,,,,,,,,,,,,,,,,,,,,,,,,,,,,,,,,
,,,,,,,,,678b1abe0f20e54366473439,Spanish,13 or older,"no, only English or Spanish",yes,2025-07-23_21h37.44.159,empathy_intonation_perc_control,2024.2.4,Win32,59.88023952,678b1abe0f20e54366473439,68817205a84113384fffdfe3,68818e2bc8294464aa87f213,36.0552,38.619,0,1,2.0327,,0,7,7,4,1,./stim/wavs/cuban_statement_filler_Cocinabas-por-la-noche.wav,0,,,,,,,,,,,,,,,,,,,,,,,,,,,,,,,,,,,,,,,,,,,,,,,,,,,,,,,,,,,,,,,,,,,,,,,,
,,,,,,,,,678b1abe0f20e54366473439,Spanish,13 or older,"no, only English or Spanish",yes,2025-07-23_21h37.44.159,empathy_intonation_perc_control,2024.2.4,Win32,59.88023952,678b1abe0f20e54366473439,68817205a84113384fffdfe3,68818e2bc8294464aa87f213,,,,,,,,,,,,,,38.6197,43.5147,,,,,,,,,,,,,,,,,,,,,,,,,,,,,,,,,,,,,,,,,,,,,,,,,,,,,,,,,,,,,,,,,,,,,,
,,,,,,,,,678b1abe0f20e54366473439,Spanish,13 or older,"no, only English or Spanish",yes,2025-07-23_21h37.44.159,empathy_intonation_perc_control,2024.2.4,Win32,59.88023952,678b1abe0f20e54366473439,68817205a84113384fffdfe3,68818e2bc8294464aa87f213,,,,,,,,,,,,./stim/wavs/puertorican_match_declarative-broad-focus_David-leia-el-libro.wav,0,,,43.5289,45.8288,0,1,1.7849,,0,0,0,64,1,65,0,puertorican,,,,,,,,,,,,,,,,,,,,,,,,,,,,,,,,,,,,,,,,,,,,,,,,,,,,,,,,
,,,,,,,,,678b1abe0f20e54366473439,Spanish,13 or older,"no, only English or Spanish",yes,2025-07-23_21h37.44.159,empathy_intonation_perc_control,2024.2.4,Win32,59.88023952,678b1abe0f20e54366473439,68817205a84113384fffdfe3,68818e2bc8294464aa87f213,,,,,,,,,,,,./stim/wavs/cuban_match_declarative-broad-focus_Ana-lleva-el-abrigo.wav,0,,,45.8294,47.8433,0,1,1.4989,,0,1,1,50,1,51,0,cuban,,,,,,,,,,,,,,,,,,,,,,,,,,,,,,,,,,,,,,,,,,,,,,,,,,,,,,,,
,,,,,,,,,678b1abe0f20e54366473439,Spanish,13 or older,"no, only English or Spanish",yes,2025-07-23_21h37.44.159,empathy_intonation_perc_control,2024.2.4,Win32,59.88023952,678b1abe0f20e54366473439,68817205a84113384fffdfe3,68818e2bc8294464aa87f213,,,,,,,,,,,,./stim/wavs/castilian_mismatch_declarative-broad-focus_Mi-tia-odia-la-lluvia.wav,0,,,47.8438,50.1908,0,1,1.8181,,0,2,2,72,1,73,0,castilian,,,,,,,,,,,,,,,,,,,,,,,,,,,,,,,,,,,,,,,,,,,,,,,,,,,,,,,,
,,,,,,,,,678b1abe0f20e54366473439,Spanish,13 or older,"no, only English or Spanish",yes,2025-07-23_21h37.44.159,empathy_intonation_perc_control,2024.2.4,Win32,59.88023952,678b1abe0f20e54366473439,68817205a84113384fffdfe3,68818e2bc8294464aa87f213,,,,,,,,,,,,./stim/wavs/puertorican_mismatch_declarative-broad-focus_El-hombre-mira-la-luna.wav,0,,,50.1914,52.339,0,1,1.6215,,0,3,3,84,1,85,0,puertorican,,,,,,,,,,,,,,,,,,,,,,,,,,,,,,,,,,,,,,,,,,,,,,,,,,,,,,,,
,,,,,,,,,678b1abe0f20e54366473439,Spanish,13 or older,"no, only English or Spanish",yes,2025-07-23_21h37.44.159,empathy_intonation_perc_control,2024.2.4,Win32,59.88023952,678b1abe0f20e54366473439,68817205a84113384fffdfe3,68818e2bc8294464aa87f213,,,,,,,,,,,,./stim/wavs/cuban_match_declarative-broad-focus_Daniel-iba-a-Bolivia.wav,0,,,52.3396,54.6698,0,1,1.8065,,0,4,4,51,1,52,0,cuban,,,,,,,,,,,,,,,,,,,,,,,,,,,,,,,,,,,,,,,,,,,,,,,,,,,,,,,,
,,,,,,,,,678b1abe0f20e54366473439,Spanish,13 or older,"no, only English or Spanish",yes,2025-07-23_21h37.44.159,empathy_intonation_perc_control,2024.2.4,Win32,59.88023952,678b1abe0f20e54366473439,68817205a84113384fffdfe3,68818e2bc8294464aa87f213,,,,,,,,,,,,./stim/wavs/puertorican_mismatch_interrogative-total-yn_Mi-madre-come-la-fruta.wav,1,,,54.6703,56.9503,0,0,1.7663,,0,5,5,43,1,44,1,puertorican,,,,,,,,,,,,,,,,,,,,,,,,,,,,,,,,,,,,,,,,,,,,,,,,,,,,,,,,
,,,,,,,,,678b1abe0f20e54366473439,Spanish,13 or older,"no, only English or Spanish",yes,2025-07-23_21h37.44.159,empathy_intonation_perc_control,2024.2.4,Win32,59.88023952,678b1abe0f20e54366473439,68817205a84113384fffdfe3,68818e2bc8294464aa87f213,,,,,,,,,,,,./stim/wavs/cuban_match_interrogative-total-yn_Manuela-vende-el-carro.wav,1,,,56.951,59.5006,0,0,2.0305,,0,6,6,8,1,9,1,cuban,,,,,,,,,,,,,,,,,,,,,,,,,,,,,,,,,,,,,,,,,,,,,,,,,,,,,,,,
,,,,,,,,,678b1abe0f20e54366473439,Spanish,13 or older,"no, only English or Spanish",yes,2025-07-23_21h37.44.159,empathy_intonation_perc_control,2024.2.4,Win32,59.88023952,678b1abe0f20e54366473439,68817205a84113384fffdfe3,68818e2bc8294464aa87f213,,,,,,,,,,,,./stim/wavs/puertorican_match_declarative-broad-focus_Emilio-ama-la-marcha.wav,0,,,59.5009,62.248,0,1,2.2153,,0,7,7,65,1,66,0,puertorican,,,,,,,,,,,,,,,,,,,,,,,,,,,,,,,,,,,,,,,,,,,,,,,,,,,,,,,,
,,,,,,,,,678b1abe0f20e54366473439,Spanish,13 or older,"no, only English or Spanish",yes,2025-07-23_21h37.44.159,empathy_intonation_perc_control,2024.2.4,Win32,59.88023952,678b1abe0f20e54366473439,68817205a84113384fffdfe3,68818e2bc8294464aa87f213,,,,,,,,,,,,./stim/wavs/castilian_match_declarative-broad-focus_Manuela-vende-el-carro.wav,0,,,62.2483,64.8953,0,1,2.1144,,0,8,8,46,1,47,0,castilian,,,,,,,,,,,,,,,,,,,,,,,,,,,,,,,,,,,,,,,,,,,,,,,,,,,,,,,,
,,,,,,,,,678b1abe0f20e54366473439,Spanish,13 or older,"no, only English or Spanish",yes,2025-07-23_21h37.44.159,empathy_intonation_perc_control,2024.2.4,Win32,59.88023952,678b1abe0f20e54366473439,68817205a84113384fffdfe3,68818e2bc8294464aa87f213,,,,,,,,,,,,./stim/wavs/puertorican_match_declarative-broad-focus_Maria-bebe-el-vino.wav,0,,,64.8956,67.1097,0,1,1.6815,,0,9,9,67,1,68,0,puertorican,,,,,,,,,,,,,,,,,,,,,,,,,,,,,,,,,,,,,,,,,,,,,,,,,,,,,,,,
,,,,,,,,,678b1abe0f20e54366473439,Spanish,13 or older,"no, only English or Spanish",yes,2025-07-23_21h37.44.159,empathy_intonation_perc_control,2024.2.4,Win32,59.88023952,678b1abe0f20e54366473439,68817205a84113384fffdfe3,68818e2bc8294464aa87f213,,,,,,,,,,,,./stim/wavs/cuban_mismatch_declarative-broad-focus_La-nina-lava-el-plato.wav,0,,,67.11,69.2746,0,1,1.6328,,0,10,10,75,1,76,0,cuban,,,,,,,,,,,,,,,,,,,,,,,,,,,,,,,,,,,,,,,,,,,,,,,,,,,,,,,,
,,,,,,,,,678b1abe0f20e54366473439,Spanish,13 or older,"no, only English or Spanish",yes,2025-07-23_21h37.44.159,empathy_intonation_perc_control,2024.2.4,Win32,59.88023952,678b1abe0f20e54366473439,68817205a84113384fffdfe3,68818e2bc8294464aa87f213,,,,,,,,,,,,./stim/wavs/cuban_match_interrogative-total-yn_Daniel-iba-a-Bolivia.wav,1,,,69.2749,71.8388,0,0,2.0316,,0,11,11,7,1,8,1,cuban,,,,,,,,,,,,,,,,,,,,,,,,,,,,,,,,,,,,,,,,,,,,,,,,,,,,,,,,
,,,,,,,,,678b1abe0f20e54366473439,Spanish,13 or older,"no, only English or Spanish",yes,2025-07-23_21h37.44.159,empathy_intonation_perc_control,2024.2.4,Win32,59.88023952,678b1abe0f20e54366473439,68817205a84113384fffdfe3,68818e2bc8294464aa87f213,,,,,,,,,,,,./stim/wavs/mexican_mismatch_interrogative-total-yn_El-nino-oye-el-rio.wav,1,,,71.8392,75.2354,1,1,2.864,,0,12,12,35,1,36,0,mexican,,,,,,,,,,,,,,,,,,,,,,,,,,,,,,,,,,,,,,,,,,,,,,,,,,,,,,,,
,,,,,,,,,678b1abe0f20e54366473439,Spanish,13 or older,"no, only English or Spanish",yes,2025-07-23_21h37.44.159,empathy_intonation_perc_control,2024.2.4,Win32,59.88023952,678b1abe0f20e54366473439,68817205a84113384fffdfe3,68818e2bc8294464aa87f213,,,,,,,,,,,,./stim/wavs/mexican_mismatch_interrogative-total-yn_Mi-novio-viene-del-lago.wav,1,,,75.2356,77.8327,1,1,2.0649,,0,13,13,37,1,38,0,mexican,,,,,,,,,,,,,,,,,,,,,,,,,,,,,,,,,,,,,,,,,,,,,,,,,,,,,,,,
,,,,,,,,,678b1abe0f20e54366473439,Spanish,13 or older,"no, only English or Spanish",yes,2025-07-23_21h37.44.159,empathy_intonation_perc_control,2024.2.4,Win32,59.88023952,678b1abe0f20e54366473439,68817205a84113384fffdfe3,68818e2bc8294464aa87f213,,,,,,,,,,,,./stim/wavs/castilian_match_declarative-broad-focus_Maria-bebe-el-vino.wav,0,,,77.833,81.4958,0,1,3.1305,,0,14,14,47,1,48,0,castilian,,,,,,,,,,,,,,,,,,,,,,,,,,,,,,,,,,,,,,,,,,,,,,,,,,,,,,,,
,,,,,,,,,678b1abe0f20e54366473439,Spanish,13 or older,"no, only English or Spanish",yes,2025-07-23_21h37.44.159,empathy_intonation_perc_control,2024.2.4,Win32,59.88023952,678b1abe0f20e54366473439,68817205a84113384fffdfe3,68818e2bc8294464aa87f213,,,,,,,,,,,,./stim/wavs/mexican_match_interrogative-total-yn_Emilio-ama-la-marcha.wav,1,,,81.4962,84.0104,1,1,1.982,,0,15,15,15,1,16,0,mexican,,,,,,,,,,,,,,,,,,,,,,,,,,,,,,,,,,,,,,,,,,,,,,,,,,,,,,,,
,,,,,,,,,678b1abe0f20e54366473439,Spanish,13 or older,"no, only English or Spanish",yes,2025-07-23_21h37.44.159,empathy_intonation_perc_control,2024.2.4,Win32,59.88023952,678b1abe0f20e54366473439,68817205a84113384fffdfe3,68818e2bc8294464aa87f213,,,,,,,,,,,,./stim/wavs/castilian_mismatch_interrogative-total-yn_La-maestra-vive-en-Paris.wav,1,,,84.0107,86.9071,1,1,2.3643,,0,16,16,24,1,25,0,castilian,,,,,,,,,,,,,,,,,,,,,,,,,,,,,,,,,,,,,,,,,,,,,,,,,,,,,,,,
,,,,,,,,,678b1abe0f20e54366473439,Spanish,13 or older,"no, only English or Spanish",yes,2025-07-23_21h37.44.159,empathy_intonation_perc_control,2024.2.4,Win32,59.88023952,678b1abe0f20e54366473439,68817205a84113384fffdfe3,68818e2bc8294464aa87f213,,,,,,,,,,,,./stim/wavs/puertorican_match_interrogative-total-yn_Maria-bebe-el-vino.wav,1,,,86.9075,89.3549,1,1,1.915,,0,17,17,23,1,24,1,puertorican,,,,,,,,,,,,,,,,,,,,,,,,,,,,,,,,,,,,,,,,,,,,,,,,,,,,,,,,
,,,,,,,,,678b1abe0f20e54366473439,Spanish,13 or older,"no, only English or Spanish",yes,2025-07-23_21h37.44.159,empathy_intonation_perc_control,2024.2.4,Win32,59.88023952,678b1abe0f20e54366473439,68817205a84113384fffdfe3,68818e2bc8294464aa87f213,,,,,,,,,,,,./stim/wavs/cuban_mismatch_declarative-broad-focus_El-bebe-comia-muy-bien.wav,0,,,89.3552,91.9022,0,1,2.0148,,0,18,18,73,1,74,0,cuban,,,,,,,,,,,,,,,,,,,,,,,,,,,,,,,,,,,,,,,,,,,,,,,,,,,,,,,,
,,,,,,,,,678b1abe0f20e54366473439,Spanish,13 or older,"no, only English or Spanish",yes,2025-07-23_21h37.44.159,empathy_intonation_perc_control,2024.2.4,Win32,59.88023952,678b1abe0f20e54366473439,68817205a84113384fffdfe3,68818e2bc8294464aa87f213,,,,,,,,,,,,./stim/wavs/mexican_mismatch_declarative-broad-focus_El-hombre-mira-la-luna.wav,0,,,91.9026,94.1,0,1,1.6648,,0,19,19,79,1,80,0,mexican,,,,,,,,,,,,,,,,,,,,,,,,,,,,,,,,,,,,,,,,,,,,,,,,,,,,,,,,
,,,,,,,,,678b1abe0f20e54366473439,Spanish,13 or older,"no, only English or Spanish",yes,2025-07-23_21h37.44.159,empathy_intonation_perc_control,2024.2.4,Win32,59.88023952,678b1abe0f20e54366473439,68817205a84113384fffdfe3,68818e2bc8294464aa87f213,,,,,,,,,,,,./stim/wavs/cuban_match_declarative-broad-focus_Manuela-vende-el-carro.wav,0,,,94.1004,96.7312,0,1,2.0989,,0,20,20,52,1,53,0,cuban,,,,,,,,,,,,,,,,,,,,,,,,,,,,,,,,,,,,,,,,,,,,,,,,,,,,,,,,
,,,,,,,,,678b1abe0f20e54366473439,Spanish,13 or older,"no, only English or Spanish",yes,2025-07-23_21h37.44.159,empathy_intonation_perc_control,2024.2.4,Win32,59.88023952,678b1abe0f20e54366473439,68817205a84113384fffdfe3,68818e2bc8294464aa87f213,,,,,,,,,,,,./stim/wavs/castilian_mismatch_declarative-broad-focus_El-nino-oye-el-rio.wav,0,,,96.7316,99.8942,0,1,2.6308,,0,21,21,68,1,69,0,castilian,,,,,,,,,,,,,,,,,,,,,,,,,,,,,,,,,,,,,,,,,,,,,,,,,,,,,,,,
,,,,,,,,,678b1abe0f20e54366473439,Spanish,13 or older,"no, only English or Spanish",yes,2025-07-23_21h37.44.159,empathy_intonation_perc_control,2024.2.4,Win32,59.88023952,678b1abe0f20e54366473439,68817205a84113384fffdfe3,68818e2bc8294464aa87f213,,,,,,,,,,,,./stim/wavs/castilian_mismatch_interrogative-total-yn_Mi-madre-come-la-fruta.wav,1,,,99.8945,102.7583,1,1,2.3312,,0,22,22,26,1,27,0,castilian,,,,,,,,,,,,,,,,,,,,,,,,,,,,,,,,,,,,,,,,,,,,,,,,,,,,,,,,
,,,,,,,,,678b1abe0f20e54366473439,Spanish,13 or older,"no, only English or Spanish",yes,2025-07-23_21h37.44.159,empathy_intonation_perc_control,2024.2.4,Win32,59.88023952,678b1abe0f20e54366473439,68817205a84113384fffdfe3,68818e2bc8294464aa87f213,,,,,,,,,,,,./stim/wavs/mexican_match_interrogative-total-yn_Mariano-habla-del-tiempo.wav,1,,,102.7587,105.1226,1,1,1.8317,,0,23,23,16,1,17,0,mexican,,,,,,,,,,,,,,,,,,,,,,,,,,,,,,,,,,,,,,,,,,,,,,,,,,,,,,,,
,,,,,,,,,678b1abe0f20e54366473439,Spanish,13 or older,"no, only English or Spanish",yes,2025-07-23_21h37.44.159,empathy_intonation_perc_control,2024.2.4,Win32,59.88023952,678b1abe0f20e54366473439,68817205a84113384fffdfe3,68818e2bc8294464aa87f213,,,,,,,,,,,,./stim/wavs/mexican_match_interrogative-total-yn_Ana-lleva-el-abrigo.wav,1,,,105.1229,107.1707,1,1,1.5159,,0,24,24,12,1,13,0,mexican,,,,,,,,,,,,,,,,,,,,,,,,,,,,,,,,,,,,,,,,,,,,,,,,,,,,,,,,
,,,,,,,,,678b1abe0f20e54366473439,Spanish,13 or older,"no, only English or Spanish",yes,2025-07-23_21h37.44.159,empathy_intonation_perc_control,2024.2.4,Win32,59.88023952,678b1abe0f20e54366473439,68817205a84113384fffdfe3,68818e2bc8294464aa87f213,,,,,,,,,,,,./stim/wavs/castilian_match_declarative-broad-focus_Marta-abre-el-regalo.wav,0,,,107.1711,110.9505,0,1,3.2466,,0,25,25,49,1,50,0,castilian,,,,,,,,,,,,,,,,,,,,,,,,,,,,,,,,,,,,,,,,,,,,,,,,,,,,,,,,
,,,,,,,,,678b1abe0f20e54366473439,Spanish,13 or older,"no, only English or Spanish",yes,2025-07-23_21h37.44.159,empathy_intonation_perc_control,2024.2.4,Win32,59.88023952,678b1abe0f20e54366473439,68817205a84113384fffdfe3,68818e2bc8294464aa87f213,,,,,,,,,,,,./stim/wavs/mexican_match_declarative-broad-focus_Mariano-habla-del-tiempo.wav,0,,,110.9508,113.5984,0,1,2.1154,,0,26,26,60,1,61,0,mexican,,,,,,,,,,,,,,,,,,,,,,,,,,,,,,,,,,,,,,,,,,,,,,,,,,,,,,,,
,,,,,,,,,678b1abe0f20e54366473439,Spanish,13 or older,"no, only English or Spanish",yes,2025-07-23_21h37.44.159,empathy_intonation_perc_control,2024.2.4,Win32,59.88023952,678b1abe0f20e54366473439,68817205a84113384fffdfe3,68818e2bc8294464aa87f213,,,,,,,,,,,,./stim/wavs/mexican_match_declarative-broad-focus_Marta-abre-el-regalo.wav,0,,,113.5987,115.9462,0,1,1.815,,0,27,27,61,1,62,0,mexican,,,,,,,,,,,,,,,,,,,,,,,,,,,,,,,,,,,,,,,,,,,,,,,,,,,,,,,,
,,,,,,,,,678b1abe0f20e54366473439,Spanish,13 or older,"no, only English or Spanish",yes,2025-07-23_21h37.44.159,empathy_intonation_perc_control,2024.2.4,Win32,59.88023952,678b1abe0f20e54366473439,68817205a84113384fffdfe3,68818e2bc8294464aa87f213,,,,,,,,,,,,./stim/wavs/castilian_mismatch_interrogative-total-yn_La-nina-lava-el-plato.wav,1,,,115.9468,118.9429,1,1,2.4637,,0,28,28,25,1,26,0,castilian,,,,,,,,,,,,,,,,,,,,,,,,,,,,,,,,,,,,,,,,,,,,,,,,,,,,,,,,
,,,,,,,,,678b1abe0f20e54366473439,Spanish,13 or older,"no, only English or Spanish",yes,2025-07-23_21h37.44.159,empathy_intonation_perc_control,2024.2.4,Win32,59.88023952,678b1abe0f20e54366473439,68817205a84113384fffdfe3,68818e2bc8294464aa87f213,,,,,,,,,,,,./stim/wavs/puertorican_match_declarative-broad-focus_Daniel-iba-a-Bolivia.wav,0,,,118.9435,121.6067,0,1,2.131,,0,29,29,63,1,64,0,puertorican,,,,,,,,,,,,,,,,,,,,,,,,,,,,,,,,,,,,,,,,,,,,,,,,,,,,,,,,
,,,,,,,,,678b1abe0f20e54366473439,Spanish,13 or older,"no, only English or Spanish",yes,2025-07-23_21h37.44.159,empathy_intonation_perc_control,2024.2.4,Win32,59.88023952,678b1abe0f20e54366473439,68817205a84113384fffdfe3,68818e2bc8294464aa87f213,,,,,,,,,,,,./stim/wavs/mexican_match_interrogative-total-yn_Daniel-iba-a-Bolivia.wav,1,,,121.6072,123.8387,1,1,1.6987,,0,30,30,13,1,14,0,mexican,,,,,,,,,,,,,,,,,,,,,,,,,,,,,,,,,,,,,,,,,,,,,,,,,,,,,,,,
,,,,,,,,,678b1abe0f20e54366473439,Spanish,13 or older,"no, only English or Spanish",yes,2025-07-23_21h37.44.159,empathy_intonation_perc_control,2024.2.4,Win32,59.88023952,678b1abe0f20e54366473439,68817205a84113384fffdfe3,68818e2bc8294464aa87f213,,,,,,,,,,,,./stim/wavs/castilian_match_declarative-broad-focus_Emilio-ama-la-marcha.wav,0,,,123.8393,126.4022,0,1,2.0309,,0,31,31,45,1,46,0,castilian,,,,,,,,,,,,,,,,,,,,,,,,,,,,,,,,,,,,,,,,,,,,,,,,,,,,,,,,
,,,,,,,,,678b1abe0f20e54366473439,Spanish,13 or older,"no, only English or Spanish",yes,2025-07-23_21h37.44.159,empathy_intonation_perc_control,2024.2.4,Win32,59.88023952,678b1abe0f20e54366473439,68817205a84113384fffdfe3,68818e2bc8294464aa87f213,,,,,,,,,,,,./stim/wavs/cuban_mismatch_interrogative-total-yn_Mi-tia-odia-la-lluvia.wav,1,,,126.4026,128.916,0,0,1.9816,,0,32,32,33,1,34,1,cuban,,,,,,,,,,,,,,,,,,,,,,,,,,,,,,,,,,,,,,,,,,,,,,,,,,,,,,,,
,,,,,,,,,678b1abe0f20e54366473439,Spanish,13 or older,"no, only English or Spanish",yes,2025-07-23_21h37.44.159,empathy_intonation_perc_control,2024.2.4,Win32,59.88023952,678b1abe0f20e54366473439,68817205a84113384fffdfe3,68818e2bc8294464aa87f213,,,,,,,,,,,,./stim/wavs/castilian_match_interrogative-total-yn_Mariano-habla-del-tiempo.wav,1,,,128.9164,131.6136,1,1,2.1653,,0,33,33,4,1,5,0,castilian,,,,,,,,,,,,,,,,,,,,,,,,,,,,,,,,,,,,,,,,,,,,,,,,,,,,,,,,
,,,,,,,,,678b1abe0f20e54366473439,Spanish,13 or older,"no, only English or Spanish",yes,2025-07-23_21h37.44.159,empathy_intonation_perc_control,2024.2.4,Win32,59.88023952,678b1abe0f20e54366473439,68817205a84113384fffdfe3,68818e2bc8294464aa87f213,,,,,,,,,,,,./stim/wavs/cuban_match_interrogative-total-yn_Maria-bebe-el-vino.wav,1,,,131.6141,133.9612,0,0,1.8149,,0,34,34,9,1,10,1,cuban,,,,,,,,,,,,,,,,,,,,,,,,,,,,,,,,,,,,,,,,,,,,,,,,,,,,,,,,
,,,,,,,,,678b1abe0f20e54366473439,Spanish,13 or older,"no, only English or Spanish",yes,2025-07-23_21h37.44.159,empathy_intonation_perc_control,2024.2.4,Win32,59.88023952,678b1abe0f20e54366473439,68817205a84113384fffdfe3,68818e2bc8294464aa87f213,,,,,,,,,,,,./stim/wavs/puertorican_mismatch_declarative-broad-focus_El-bebe-comia-muy-bien.wav,0,,,133.9616,136.5253,0,1,2.0319,,0,35,35,83,1,84,0,puertorican,,,,,,,,,,,,,,,,,,,,,,,,,,,,,,,,,,,,,,,,,,,,,,,,,,,,,,,,
,,,,,,,,,678b1abe0f20e54366473439,Spanish,13 or older,"no, only English or Spanish",yes,2025-07-23_21h37.44.159,empathy_intonation_perc_control,2024.2.4,Win32,59.88023952,678b1abe0f20e54366473439,68817205a84113384fffdfe3,68818e2bc8294464aa87f213,,,,,,,,,,,,./stim/wavs/castilian_mismatch_interrogative-total-yn_Mi-tia-odia-la-lluvia.wav,1,,,136.5258,139.3225,1,1,2.2644,,0,36,36,28,1,29,0,castilian,,,,,,,,,,,,,,,,,,,,,,,,,,,,,,,,,,,,,,,,,,,,,,,,,,,,,,,,
,,,,,,,,,678b1abe0f20e54366473439,Spanish,13 or older,"no, only English or Spanish",yes,2025-07-23_21h37.44.159,empathy_intonation_perc_control,2024.2.4,Win32,59.88023952,678b1abe0f20e54366473439,68817205a84113384fffdfe3,68818e2bc8294464aa87f213,,,,,,,,,,,,./stim/wavs/mexican_mismatch_declarative-broad-focus_La-maestra-vive-en-Paris.wav,0,,,139.3228,141.82,0,1,1.9806,,0,37,37,80,1,81,0,mexican,,,,,,,,,,,,,,,,,,,,,,,,,,,,,,,,,,,,,,,,,,,,,,,,,,,,,,,,
,,,,,,,,,678b1abe0f20e54366473439,Spanish,13 or older,"no, only English or Spanish",yes,2025-07-23_21h37.44.159,empathy_intonation_perc_control,2024.2.4,Win32,59.88023952,678b1abe0f20e54366473439,68817205a84113384fffdfe3,68818e2bc8294464aa87f213,,,,,,,,,,,,./stim/wavs/mexican_mismatch_interrogative-total-yn_Mi-tia-odia-la-lluvia.wav,1,,,141.8203,144.3838,1,1,2.0315,,0,38,38,38,1,39,0,mexican,,,,,,,,,,,,,,,,,,,,,,,,,,,,,,,,,,,,,,,,,,,,,,,,,,,,,,,,
,,,,,,,,,678b1abe0f20e54366473439,Spanish,13 or older,"no, only English or Spanish",yes,2025-07-23_21h37.44.159,empathy_intonation_perc_control,2024.2.4,Win32,59.88023952,678b1abe0f20e54366473439,68817205a84113384fffdfe3,68818e2bc8294464aa87f213,,,,,,,,,,,,./stim/wavs/puertorican_mismatch_interrogative-total-yn_La-maestra-vive-en-Paris.wav,1,,,144.3841,146.6817,0,0,1.7813,,0,39,39,41,1,42,1,puertorican,,,,,,,,,,,,,,,,,,,,,,,,,,,,,,,,,,,,,,,,,,,,,,,,,,,,,,,,
,,,,,,,,,678b1abe0f20e54366473439,Spanish,13 or older,"no, only English or Spanish",yes,2025-07-23_21h37.44.159,empathy_intonation_perc_control,2024.2.4,Win32,59.88023952,678b1abe0f20e54366473439,68817205a84113384fffdfe3,68818e2bc8294464aa87f213,,,,,,,,,,,,./stim/wavs/puertorican_mismatch_declarative-broad-focus_El-nino-oye-el-rio.wav,0,,,146.682,149.0294,0,1,1.8149,,0,40,40,85,1,86,0,puertorican,,,,,,,,,,,,,,,,,,,,,,,,,,,,,,,,,,,,,,,,,,,,,,,,,,,,,,,,
,,,,,,,,,678b1abe0f20e54366473439,Spanish,13 or older,"no, only English or Spanish",yes,2025-07-23_21h37.44.159,empathy_intonation_perc_control,2024.2.4,Win32,59.88023952,678b1abe0f20e54366473439,68817205a84113384fffdfe3,68818e2bc8294464aa87f213,,,,,,,,,,,,./stim/wavs/puertorican_match_declarative-broad-focus_Ana-lleva-el-abrigo.wav,0,,,149.0296,151.0944,0,1,1.5325,,0,41,41,62,1,63,0,puertorican,,,,,,,,,,,,,,,,,,,,,,,,,,,,,,,,,,,,,,,,,,,,,,,,,,,,,,,,
,,,,,,,,,678b1abe0f20e54366473439,Spanish,13 or older,"no, only English or Spanish",yes,2025-07-23_21h37.44.159,empathy_intonation_perc_control,2024.2.4,Win32,59.88023952,678b1abe0f20e54366473439,68817205a84113384fffdfe3,68818e2bc8294464aa87f213,,,,,,,,,,,,./stim/wavs/castilian_mismatch_declarative-broad-focus_La-nina-lava-el-plato.wav,0,,,151.0948,153.7252,0,1,2.0985,,0,42,42,70,1,71,0,castilian,,,,,,,,,,,,,,,,,,,,,,,,,,,,,,,,,,,,,,,,,,,,,,,,,,,,,,,,
,,,,,,,,,678b1abe0f20e54366473439,Spanish,13 or older,"no, only English or Spanish",yes,2025-07-23_21h37.44.159,empathy_intonation_perc_control,2024.2.4,Win32,59.88023952,678b1abe0f20e54366473439,68817205a84113384fffdfe3,68818e2bc8294464aa87f213,,,,,,,,,,,,./stim/wavs/cuban_mismatch_interrogative-total-yn_Mi-madre-come-la-fruta.wav,1,,,153.7255,156.3727,0,0,2.1149,,0,43,43,31,1,32,1,cuban,,,,,,,,,,,,,,,,,,,,,,,,,,,,,,,,,,,,,,,,,,,,,,,,,,,,,,,,
,,,,,,,,,678b1abe0f20e54366473439,Spanish,13 or older,"no, only English or Spanish",yes,2025-07-23_21h37.44.159,empathy_intonation_perc_control,2024.2.4,Win32,59.88023952,678b1abe0f20e54366473439,68817205a84113384fffdfe3,68818e2bc8294464aa87f213,,,,,,,,,,,,./stim/wavs/cuban_match_interrogative-total-yn_Marta-abre-el-regalo.wav,1,,,156.373,158.8037,0,0,1.8988,,0,44,44,11,1,12,1,cuban,,,,,,,,,,,,,,,,,,,,,,,,,,,,,,,,,,,,,,,,,,,,,,,,,,,,,,,,
,,,,,,,,,678b1abe0f20e54366473439,Spanish,13 or older,"no, only English or Spanish",yes,2025-07-23_21h37.44.159,empathy_intonation_perc_control,2024.2.4,Win32,59.88023952,678b1abe0f20e54366473439,68817205a84113384fffdfe3,68818e2bc8294464aa87f213,,,,,,,,,,,,./stim/wavs/mexican_match_interrogative-total-yn_David-leia-el-libro.wav,1,,,158.8041,161.9337,1,1,2.597,,0,45,45,14,1,15,0,mexican,,,,,,,,,,,,,,,,,,,,,,,,,,,,,,,,,,,,,,,,,,,,,,,,,,,,,,,,
,,,,,,,,,678b1abe0f20e54366473439,Spanish,13 or older,"no, only English or Spanish",yes,2025-07-23_21h37.44.159,empathy_intonation_perc_control,2024.2.4,Win32,59.88023952,678b1abe0f20e54366473439,68817205a84113384fffdfe3,68818e2bc8294464aa87f213,,,,,,,,,,,,./stim/wavs/puertorican_match_interrogative-total-yn_Ana-lleva-el-abrigo.wav,1,,,161.934,166.6792,0,0,4.2129,,0,46,46,18,1,19,1,puertorican,,,,,,,,,,,,,,,,,,,,,,,,,,,,,,,,,,,,,,,,,,,,,,,,,,,,,,,,
,,,,,,,,,678b1abe0f20e54366473439,Spanish,13 or older,"no, only English or Spanish",yes,2025-07-23_21h37.44.159,empathy_intonation_perc_control,2024.2.4,Win32,59.88023952,678b1abe0f20e54366473439,68817205a84113384fffdfe3,68818e2bc8294464aa87f213,,,,,,,,,,,,./stim/wavs/cuban_mismatch_declarative-broad-focus_Mi-tia-odia-la-lluvia.wav,0,,,166.6797,169.56,0,1,2.3484,,0,47,47,77,1,78,0,cuban,,,,,,,,,,,,,,,,,,,,,,,,,,,,,,,,,,,,,,,,,,,,,,,,,,,,,,,,
,,,,,,,,,678b1abe0f20e54366473439,Spanish,13 or older,"no, only English or Spanish",yes,2025-07-23_21h37.44.159,empathy_intonation_perc_control,2024.2.4,Win32,59.88023952,678b1abe0f20e54366473439,68817205a84113384fffdfe3,68818e2bc8294464aa87f213,,,,,,,,,,,,./stim/wavs/castilian_match_interrogative-total-yn_Maria-bebe-el-vino.wav,1,,,169.5606,172.4239,1,1,2.331,,0,48,48,3,1,4,0,castilian,,,,,,,,,,,,,,,,,,,,,,,,,,,,,,,,,,,,,,,,,,,,,,,,,,,,,,,,
,,,,,,,,,678b1abe0f20e54366473439,Spanish,13 or older,"no, only English or Spanish",yes,2025-07-23_21h37.44.159,empathy_intonation_perc_control,2024.2.4,Win32,59.88023952,678b1abe0f20e54366473439,68817205a84113384fffdfe3,68818e2bc8294464aa87f213,,,,,,,,,,,,./stim/wavs/puertorican_match_interrogative-total-yn_Daniel-iba-a-Bolivia.wav,1,,,172.4243,175.0211,1,1,2.0642,,0,49,49,19,1,20,1,puertorican,,,,,,,,,,,,,,,,,,,,,,,,,,,,,,,,,,,,,,,,,,,,,,,,,,,,,,,,
,,,,,,,,,678b1abe0f20e54366473439,Spanish,13 or older,"no, only English or Spanish",yes,2025-07-23_21h37.44.159,empathy_intonation_perc_control,2024.2.4,Win32,59.88023952,678b1abe0f20e54366473439,68817205a84113384fffdfe3,68818e2bc8294464aa87f213,,,,,,,,,,,,./stim/wavs/puertorican_mismatch_interrogative-total-yn_El-nino-oye-el-rio.wav,1,,,175.0214,177.419,0,0,1.8648,,0,50,50,40,1,41,1,puertorican,,,,,,,,,,,,,,,,,,,,,,,,,,,,,,,,,,,,,,,,,,,,,,,,,,,,,,,,
,,,,,,,,,678b1abe0f20e54366473439,Spanish,13 or older,"no, only English or Spanish",yes,2025-07-23_21h37.44.159,empathy_intonation_perc_control,2024.2.4,Win32,59.88023952,678b1abe0f20e54366473439,68817205a84113384fffdfe3,68818e2bc8294464aa87f213,,,,,,,,,,,,./stim/wavs/puertorican_mismatch_declarative-broad-focus_La-maestra-vive-en-Paris.wav,0,,,177.4193,180.2162,0,1,2.2646,,0,51,51,86,1,87,0,puertorican,,,,,,,,,,,,,,,,,,,,,,,,,,,,,,,,,,,,,,,,,,,,,,,,,,,,,,,,
,,,,,,,,,678b1abe0f20e54366473439,Spanish,13 or older,"no, only English or Spanish",yes,2025-07-23_21h37.44.159,empathy_intonation_perc_control,2024.2.4,Win32,59.88023952,678b1abe0f20e54366473439,68817205a84113384fffdfe3,68818e2bc8294464aa87f213,,,,,,,,,,,,./stim/wavs/castilian_mismatch_interrogative-total-yn_Mi-novio-viene-del-lago.wav,1,,,180.2167,182.7476,1,1,1.9985,,0,52,52,27,1,28,0,castilian,,,,,,,,,,,,,,,,,,,,,,,,,,,,,,,,,,,,,,,,,,,,,,,,,,,,,,,,
,,,,,,,,,678b1abe0f20e54366473439,Spanish,13 or older,"no, only English or Spanish",yes,2025-07-23_21h37.44.159,empathy_intonation_perc_control,2024.2.4,Win32,59.88023952,678b1abe0f20e54366473439,68817205a84113384fffdfe3,68818e2bc8294464aa87f213,,,,,,,,,,,,./stim/wavs/cuban_mismatch_interrogative-total-yn_El-hombre-mira-la-luna.wav,1,,,182.7482,185.1118,0,0,1.8318,,0,53,53,29,1,30,1,cuban,,,,,,,,,,,,,,,,,,,,,,,,,,,,,,,,,,,,,,,,,,,,,,,,,,,,,,,,
,,,,,,,,,678b1abe0f20e54366473439,Spanish,13 or older,"no, only English or Spanish",yes,2025-07-23_21h37.44.159,empathy_intonation_perc_control,2024.2.4,Win32,59.88023952,678b1abe0f20e54366473439,68817205a84113384fffdfe3,68818e2bc8294464aa87f213,,,,,,,,,,,,./stim/wavs/cuban_match_declarative-broad-focus_Mariano-habla-del-tiempo.wav,0,,,185.112,188.8753,0,1,3.2311,,0,54,54,54,1,55,0,cuban,,,,,,,,,,,,,,,,,,,,,,,,,,,,,,,,,,,,,,,,,,,,,,,,,,,,,,,,
,,,,,,,,,678b1abe0f20e54366473439,Spanish,13 or older,"no, only English or Spanish",yes,2025-07-23_21h37.44.159,empathy_intonation_perc_control,2024.2.4,Win32,59.88023952,678b1abe0f20e54366473439,68817205a84113384fffdfe3,68818e2bc8294464aa87f213,,,,,,,,,,,,./stim/wavs/cuban_match_interrogative-total-yn_Mariano-habla-del-tiempo.wav,1,,,188.8758,191.0393,0,0,1.6316,,0,55,55,10,1,11,1,cuban,,,,,,,,,,,,,,,,,,,,,,,,,,,,,,,,,,,,,,,,,,,,,,,,,,,,,,,,
,,,,,,,,,678b1abe0f20e54366473439,Spanish,13 or older,"no, only English or Spanish",yes,2025-07-23_21h37.44.159,empathy_intonation_perc_control,2024.2.4,Win32,59.88023952,678b1abe0f20e54366473439,68817205a84113384fffdfe3,68818e2bc8294464aa87f213,,,,,,,,,,,,./stim/wavs/castilian_match_declarative-broad-focus_Mariano-habla-del-tiempo.wav,0,,,191.0398,193.7036,0,1,2.1316,,0,56,56,48,1,49,0,castilian,,,,,,,,,,,,,,,,,,,,,,,,,,,,,,,,,,,,,,,,,,,,,,,,,,,,,,,,
,,,,,,,,,678b1abe0f20e54366473439,Spanish,13 or older,"no, only English or Spanish",yes,2025-07-23_21h37.44.159,empathy_intonation_perc_control,2024.2.4,Win32,59.88023952,678b1abe0f20e54366473439,68817205a84113384fffdfe3,68818e2bc8294464aa87f213,,,,,,,,,,,,./stim/wavs/cuban_match_declarative-broad-focus_Marta-abre-el-regalo.wav,0,,,193.7042,196.0349,0,1,1.7985,,0,57,57,55,1,56,0,cuban,,,,,,,,,,,,,,,,,,,,,,,,,,,,,,,,,,,,,,,,,,,,,,,,,,,,,,,,
,,,,,,,,,678b1abe0f20e54366473439,Spanish,13 or older,"no, only English or Spanish",yes,2025-07-23_21h37.44.159,empathy_intonation_perc_control,2024.2.4,Win32,59.88023952,678b1abe0f20e54366473439,68817205a84113384fffdfe3,68818e2bc8294464aa87f213,,,,,,,,,,,,./stim/wavs/mexican_match_interrogative-total-yn_Marta-abre-el-regalo.wav,1,,,196.0356,198.2992,0,0,1.7323,,0,58,58,17,1,18,0,mexican,,,,,,,,,,,,,,,,,,,,,,,,,,,,,,,,,,,,,,,,,,,,,,,,,,,,,,,,
,,,,,,,,,678b1abe0f20e54366473439,Spanish,13 or older,"no, only English or Spanish",yes,2025-07-23_21h37.44.159,empathy_intonation_perc_control,2024.2.4,Win32,59.88023952,678b1abe0f20e54366473439,68817205a84113384fffdfe3,68818e2bc8294464aa87f213,,,,,,,,,,,,./stim/wavs/cuban_mismatch_interrogative-total-yn_Mi-novio-viene-del-lago.wav,1,,,198.2998,200.68,0,0,1.8482,,0,59,59,32,1,33,1,cuban,,,,,,,,,,,,,,,,,,,,,,,,,,,,,,,,,,,,,,,,,,,,,,,,,,,,,,,,
,,,,,,,,,678b1abe0f20e54366473439,Spanish,13 or older,"no, only English or Spanish",yes,2025-07-23_21h37.44.159,empathy_intonation_perc_control,2024.2.4,Win32,59.88023952,678b1abe0f20e54366473439,68817205a84113384fffdfe3,68818e2bc8294464aa87f213,,,,,,,,,,,,./stim/wavs/castilian_match_declarative-broad-focus_David-leia-el-libro.wav,0,,,200.6805,203.1612,0,1,1.9489,,0,60,60,44,1,45,0,castilian,,,,,,,,,,,,,,,,,,,,,,,,,,,,,,,,,,,,,,,,,,,,,,,,,,,,,,,,
,,,,,,,,,678b1abe0f20e54366473439,Spanish,13 or older,"no, only English or Spanish",yes,2025-07-23_21h37.44.159,empathy_intonation_perc_control,2024.2.4,Win32,59.88023952,678b1abe0f20e54366473439,68817205a84113384fffdfe3,68818e2bc8294464aa87f213,,,,,,,,,,,,./stim/wavs/castilian_mismatch_declarative-broad-focus_La-maestra-vive-en-Paris.wav,0,,,203.1618,205.8252,0,1,2.1326,,0,61,61,69,1,70,0,castilian,,,,,,,,,,,,,,,,,,,,,,,,,,,,,,,,,,,,,,,,,,,,,,,,,,,,,,,,
,,,,,,,,,678b1abe0f20e54366473439,Spanish,13 or older,"no, only English or Spanish",yes,2025-07-23_21h37.44.159,empathy_intonation_perc_control,2024.2.4,Win32,59.88023952,678b1abe0f20e54366473439,68817205a84113384fffdfe3,68818e2bc8294464aa87f213,,,,,,,,,,,,./stim/wavs/puertorican_match_declarative-broad-focus_Manuela-vende-el-carro.wav,0,,,205.8258,208.106,0,1,1.7486,,0,62,62,66,1,67,0,puertorican,,,,,,,,,,,,,,,,,,,,,,,,,,,,,,,,,,,,,,,,,,,,,,,,,,,,,,,,
,,,,,,,,,678b1abe0f20e54366473439,Spanish,13 or older,"no, only English or Spanish",yes,2025-07-23_21h37.44.159,empathy_intonation_perc_control,2024.2.4,Win32,59.88023952,678b1abe0f20e54366473439,68817205a84113384fffdfe3,68818e2bc8294464aa87f213,,,,,,,,,,,,./stim/wavs/puertorican_match_interrogative-total-yn_David-leia-el-libro.wav,1,,,208.1066,210.4538,0,0,1.8149,,0,63,63,20,1,21,1,puertorican,,,,,,,,,,,,,,,,,,,,,,,,,,,,,,,,,,,,,,,,,,,,,,,,,,,,,,,,
,,,,,,,,,678b1abe0f20e54366473439,Spanish,13 or older,"no, only English or Spanish",yes,2025-07-23_21h37.44.159,empathy_intonation_perc_control,2024.2.4,Win32,59.88023952,678b1abe0f20e54366473439,68817205a84113384fffdfe3,68818e2bc8294464aa87f213,,,,,,,,,,,,./stim/wavs/mexican_match_declarative-broad-focus_Ana-lleva-el-abrigo.wav,0,,,210.4543,212.4191,0,1,1.4325,,0,64,64,56,1,57,0,mexican,,,,,,,,,,,,,,,,,,,,,,,,,,,,,,,,,,,,,,,,,,,,,,,,,,,,,,,,
,,,,,,,,,678b1abe0f20e54366473439,Spanish,13 or older,"no, only English or Spanish",yes,2025-07-23_21h37.44.159,empathy_intonation_perc_control,2024.2.4,Win32,59.88023952,678b1abe0f20e54366473439,68817205a84113384fffdfe3,68818e2bc8294464aa87f213,,,,,,,,,,,,./stim/wavs/puertorican_match_interrogative-total-yn_Emilio-ama-la-marcha.wav,1,,,212.4198,214.7663,0,0,1.8151,,0,65,65,21,1,22,1,puertorican,,,,,,,,,,,,,,,,,,,,,,,,,,,,,,,,,,,,,,,,,,,,,,,,,,,,,,,,
,,,,,,,,,678b1abe0f20e54366473439,Spanish,13 or older,"no, only English or Spanish",yes,2025-07-23_21h37.44.159,empathy_intonation_perc_control,2024.2.4,Win32,59.88023952,678b1abe0f20e54366473439,68817205a84113384fffdfe3,68818e2bc8294464aa87f213,,,,,,,,,,,,./stim/wavs/mexican_mismatch_interrogative-total-yn_El-hombre-mira-la-luna.wav,1,,,214.7668,218.4454,1,1,3.1464,,0,66,66,34,1,35,0,mexican,,,,,,,,,,,,,,,,,,,,,,,,,,,,,,,,,,,,,,,,,,,,,,,,,,,,,,,,
,,,,,,,,,678b1abe0f20e54366473439,Spanish,13 or older,"no, only English or Spanish",yes,2025-07-23_21h37.44.159,empathy_intonation_perc_control,2024.2.4,Win32,59.88023952,678b1abe0f20e54366473439,68817205a84113384fffdfe3,68818e2bc8294464aa87f213,,,,,,,,,,,,./stim/wavs/mexican_mismatch_declarative-broad-focus_El-bebe-comia-muy-bien.wav,0,,,218.4458,220.8931,0,1,1.9151,,0,67,67,78,1,79,0,mexican,,,,,,,,,,,,,,,,,,,,,,,,,,,,,,,,,,,,,,,,,,,,,,,,,,,,,,,,
,,,,,,,,,678b1abe0f20e54366473439,Spanish,13 or older,"no, only English or Spanish",yes,2025-07-23_21h37.44.159,empathy_intonation_perc_control,2024.2.4,Win32,59.88023952,678b1abe0f20e54366473439,68817205a84113384fffdfe3,68818e2bc8294464aa87f213,,,,,,,,,,,,./stim/wavs/castilian_match_interrogative-total-yn_Manuela-vende-el-carro.wav,1,,,220.8934,224.2066,1,1,2.7812,,0,68,68,2,1,3,0,castilian,,,,,,,,,,,,,,,,,,,,,,,,,,,,,,,,,,,,,,,,,,,,,,,,,,,,,,,,
,,,,,,,,,678b1abe0f20e54366473439,Spanish,13 or older,"no, only English or Spanish",yes,2025-07-23_21h37.44.159,empathy_intonation_perc_control,2024.2.4,Win32,59.88023952,678b1abe0f20e54366473439,68817205a84113384fffdfe3,68818e2bc8294464aa87f213,,,,,,,,,,,,./stim/wavs/castilian_match_interrogative-total-yn_Emilio-ama-la-marcha.wav,1,,,224.2071,226.6034,1,1,1.8646,,0,69,69,1,1,2,0,castilian,,,,,,,,,,,,,,,,,,,,,,,,,,,,,,,,,,,,,,,,,,,,,,,,,,,,,,,,
,,,,,,,,,678b1abe0f20e54366473439,Spanish,13 or older,"no, only English or Spanish",yes,2025-07-23_21h37.44.159,empathy_intonation_perc_control,2024.2.4,Win32,59.88023952,678b1abe0f20e54366473439,68817205a84113384fffdfe3,68818e2bc8294464aa87f213,,,,,,,,,,,,./stim/wavs/puertorican_mismatch_declarative-broad-focus_La-nina-lava-el-plato.wav,0,,,226.6036,228.7517,0,1,1.6155,,0,70,70,87,1,88,0,puertorican,,,,,,,,,,,,,,,,,,,,,,,,,,,,,,,,,,,,,,,,,,,,,,,,,,,,,,,,
,,,,,,,,,678b1abe0f20e54366473439,Spanish,13 or older,"no, only English or Spanish",yes,2025-07-23_21h37.44.159,empathy_intonation_perc_control,2024.2.4,Win32,59.88023952,678b1abe0f20e54366473439,68817205a84113384fffdfe3,68818e2bc8294464aa87f213,,,,,,,,,,,,./stim/wavs/mexican_mismatch_declarative-broad-focus_Mi-tia-odia-la-lluvia.wav,0,,,228.752,230.9,0,1,1.6156,,0,71,71,82,1,83,0,mexican,,,,,,,,,,,,,,,,,,,,,,,,,,,,,,,,,,,,,,,,,,,,,,,,,,,,,,,,
,,,,,,,,,678b1abe0f20e54366473439,Spanish,13 or older,"no, only English or Spanish",yes,2025-07-23_21h37.44.159,empathy_intonation_perc_control,2024.2.4,Win32,59.88023952,678b1abe0f20e54366473439,68817205a84113384fffdfe3,68818e2bc8294464aa87f213,,,,,,,,,,,,./stim/wavs/mexican_mismatch_interrogative-total-yn_La-maestra-vive-en-Paris.wav,1,,,230.9002,233.7971,1,1,2.3644,,0,72,72,36,1,37,0,mexican,,,,,,,,,,,,,,,,,,,,,,,,,,,,,,,,,,,,,,,,,,,,,,,,,,,,,,,,
,,,,,,,,,678b1abe0f20e54366473439,Spanish,13 or older,"no, only English or Spanish",yes,2025-07-23_21h37.44.159,empathy_intonation_perc_control,2024.2.4,Win32,59.88023952,678b1abe0f20e54366473439,68817205a84113384fffdfe3,68818e2bc8294464aa87f213,,,,,,,,,,,,./stim/wavs/mexican_match_declarative-broad-focus_Daniel-iba-a-Bolivia.wav,0,,,233.7975,236.1954,0,1,1.8655,,0,73,73,57,1,58,0,mexican,,,,,,,,,,,,,,,,,,,,,,,,,,,,,,,,,,,,,,,,,,,,,,,,,,,,,,,,
,,,,,,,,,678b1abe0f20e54366473439,Spanish,13 or older,"no, only English or Spanish",yes,2025-07-23_21h37.44.159,empathy_intonation_perc_control,2024.2.4,Win32,59.88023952,678b1abe0f20e54366473439,68817205a84113384fffdfe3,68818e2bc8294464aa87f213,,,,,,,,,,,,./stim/wavs/mexican_mismatch_declarative-broad-focus_Mi-novio-viene-del-lago.wav,0,,,236.1961,238.5756,0,1,1.8478,,0,74,74,81,1,82,0,mexican,,,,,,,,,,,,,,,,,,,,,,,,,,,,,,,,,,,,,,,,,,,,,,,,,,,,,,,,
,,,,,,,,,678b1abe0f20e54366473439,Spanish,13 or older,"no, only English or Spanish",yes,2025-07-23_21h37.44.159,empathy_intonation_perc_control,2024.2.4,Win32,59.88023952,678b1abe0f20e54366473439,68817205a84113384fffdfe3,68818e2bc8294464aa87f213,,,,,,,,,,,,./stim/wavs/puertorican_match_interrogative-total-yn_Manuela-vende-el-carro.wav,1,,,238.576,240.7069,0,0,1.5983,,0,75,75,22,1,23,1,puertorican,,,,,,,,,,,,,,,,,,,,,,,,,,,,,,,,,,,,,,,,,,,,,,,,,,,,,,,,
,,,,,,,,,678b1abe0f20e54366473439,Spanish,13 or older,"no, only English or Spanish",yes,2025-07-23_21h37.44.159,empathy_intonation_perc_control,2024.2.4,Win32,59.88023952,678b1abe0f20e54366473439,68817205a84113384fffdfe3,68818e2bc8294464aa87f213,,,,,,,,,,,,./stim/wavs/castilian_match_interrogative-total-yn_Marta-abre-el-regalo.wav,1,,,240.7073,243.0053,1,1,1.7655,,0,76,76,5,1,6,0,castilian,,,,,,,,,,,,,,,,,,,,,,,,,,,,,,,,,,,,,,,,,,,,,,,,,,,,,,,,
,,,,,,,,,678b1abe0f20e54366473439,Spanish,13 or older,"no, only English or Spanish",yes,2025-07-23_21h37.44.159,empathy_intonation_perc_control,2024.2.4,Win32,59.88023952,678b1abe0f20e54366473439,68817205a84113384fffdfe3,68818e2bc8294464aa87f213,,,,,,,,,,,,./stim/wavs/cuban_match_declarative-broad-focus_Maria-bebe-el-vino.wav,0,,,243.0059,245.4021,0,1,1.8649,,0,77,77,53,1,54,0,cuban,,,,,,,,,,,,,,,,,,,,,,,,,,,,,,,,,,,,,,,,,,,,,,,,,,,,,,,,
,,,,,,,,,678b1abe0f20e54366473439,Spanish,13 or older,"no, only English or Spanish",yes,2025-07-23_21h37.44.159,empathy_intonation_perc_control,2024.2.4,Win32,59.88023952,678b1abe0f20e54366473439,68817205a84113384fffdfe3,68818e2bc8294464aa87f213,,,,,,,,,,,,./stim/wavs/mexican_match_declarative-broad-focus_David-leia-el-libro.wav,0,,,245.4026,247.9337,0,1,1.9982,,0,78,78,58,1,59,0,mexican,,,,,,,,,,,,,,,,,,,,,,,,,,,,,,,,,,,,,,,,,,,,,,,,,,,,,,,,
,,,,,,,,,678b1abe0f20e54366473439,Spanish,13 or older,"no, only English or Spanish",yes,2025-07-23_21h37.44.159,empathy_intonation_perc_control,2024.2.4,Win32,59.88023952,678b1abe0f20e54366473439,68817205a84113384fffdfe3,68818e2bc8294464aa87f213,,,,,,,,,,,,./stim/wavs/puertorican_mismatch_interrogative-total-yn_La-nina-lava-el-plato.wav,1,,,247.9342,250.4641,0,0,1.9979,,0,79,79,42,1,43,1,puertorican,,,,,,,,,,,,,,,,,,,,,,,,,,,,,,,,,,,,,,,,,,,,,,,,,,,,,,,,
,,,,,,,,,678b1abe0f20e54366473439,Spanish,13 or older,"no, only English or Spanish",yes,2025-07-23_21h37.44.159,empathy_intonation_perc_control,2024.2.4,Win32,59.88023952,678b1abe0f20e54366473439,68817205a84113384fffdfe3,68818e2bc8294464aa87f213,,,,,,,,,,,,./stim/wavs/cuban_mismatch_declarative-broad-focus_Mi-novio-viene-del-lago.wav,0,,,250.4644,252.8122,0,1,1.8151,,0,80,80,76,1,77,0,cuban,,,,,,,,,,,,,,,,,,,,,,,,,,,,,,,,,,,,,,,,,,,,,,,,,,,,,,,,
,,,,,,,,,678b1abe0f20e54366473439,Spanish,13 or older,"no, only English or Spanish",yes,2025-07-23_21h37.44.159,empathy_intonation_perc_control,2024.2.4,Win32,59.88023952,678b1abe0f20e54366473439,68817205a84113384fffdfe3,68818e2bc8294464aa87f213,,,,,,,,,,,,./stim/wavs/mexican_match_declarative-broad-focus_Emilio-ama-la-marcha.wav,0,,,252.8128,255.6098,0,1,2.2645,,0,81,81,59,1,60,0,mexican,,,,,,,,,,,,,,,,,,,,,,,,,,,,,,,,,,,,,,,,,,,,,,,,,,,,,,,,
,,,,,,,,,678b1abe0f20e54366473439,Spanish,13 or older,"no, only English or Spanish",yes,2025-07-23_21h37.44.159,empathy_intonation_perc_control,2024.2.4,Win32,59.88023952,678b1abe0f20e54366473439,68817205a84113384fffdfe3,68818e2bc8294464aa87f213,,,,,,,,,,,,./stim/wavs/castilian_mismatch_declarative-broad-focus_Mi-novio-viene-del-lago.wav,0,,,255.6103,258.2566,0,1,2.1143,,0,82,82,71,1,72,0,castilian,,,,,,,,,,,,,,,,,,,,,,,,,,,,,,,,,,,,,,,,,,,,,,,,,,,,,,,,
,,,,,,,,,678b1abe0f20e54366473439,Spanish,13 or older,"no, only English or Spanish",yes,2025-07-23_21h37.44.159,empathy_intonation_perc_control,2024.2.4,Win32,59.88023952,678b1abe0f20e54366473439,68817205a84113384fffdfe3,68818e2bc8294464aa87f213,,,,,,,,,,,,./stim/wavs/puertorican_mismatch_interrogative-total-yn_El-hombre-mira-la-luna.wav,1,,,258.257,260.7707,1,1,1.9816,,0,83,83,39,1,40,1,puertorican,,,,,,,,,,,,,,,,,,,,,,,,,,,,,,,,,,,,,,,,,,,,,,,,,,,,,,,,
,,,,,,,,,678b1abe0f20e54366473439,Spanish,13 or older,"no, only English or Spanish",yes,2025-07-23_21h37.44.159,empathy_intonation_perc_control,2024.2.4,Win32,59.88023952,678b1abe0f20e54366473439,68817205a84113384fffdfe3,68818e2bc8294464aa87f213,,,,,,,,,,,,./stim/wavs/cuban_match_interrogative-total-yn_Ana-lleva-el-abrigo.wav,1,,,260.771,263.1692,0,0,1.8648,,0,84,84,6,1,7,1,cuban,,,,,,,,,,,,,,,,,,,,,,,,,,,,,,,,,,,,,,,,,,,,,,,,,,,,,,,,
,,,,,,,,,678b1abe0f20e54366473439,Spanish,13 or older,"no, only English or Spanish",yes,2025-07-23_21h37.44.159,empathy_intonation_perc_control,2024.2.4,Win32,59.88023952,678b1abe0f20e54366473439,68817205a84113384fffdfe3,68818e2bc8294464aa87f213,,,,,,,,,,,,./stim/wavs/cuban_mismatch_interrogative-total-yn_El-nino-oye-el-rio.wav,1,,,263.1699,265.1168,0,0,1.4158,,0,85,85,30,1,31,1,cuban,,,,,,,,,,,,,,,,,,,,,,,,,,,,,,,,,,,,,,,,,,,,,,,,,,,,,,,,
,,,,,,,,,678b1abe0f20e54366473439,Spanish,13 or older,"no, only English or Spanish",yes,2025-07-23_21h37.44.159,empathy_intonation_perc_control,2024.2.4,Win32,59.88023952,678b1abe0f20e54366473439,68817205a84113384fffdfe3,68818e2bc8294464aa87f213,,,,,,,,,,,,./stim/wavs/cuban_mismatch_declarative-broad-focus_El-hombre-mira-la-luna.wav,0,,,265.1171,267.5142,0,1,1.8654,,0,86,86,74,1,75,0,cuban,,,,,,,,,,,,,,,,,,,,,,,,,,,,,,,,,,,,,,,,,,,,,,,,,,,,,,,,
,,,,,,,,,678b1abe0f20e54366473439,Spanish,13 or older,"no, only English or Spanish",yes,2025-07-23_21h37.44.159,empathy_intonation_perc_control,2024.2.4,Win32,59.88023952,678b1abe0f20e54366473439,68817205a84113384fffdfe3,68818e2bc8294464aa87f213,,,,,,,,,,,,./stim/wavs/castilian_match_interrogative-total-yn_David-leia-el-libro.wav,1,,,267.5145,270.0457,1,1,1.9982,,0,87,87,0,1,1,0,castilian,,,,,,,,,,,,,,,,,,,,,,,,,,,,,,,,,,,,,,,,,,,,,,,,,,,,,,,,
,,,,,,,"Great! Now we will move on. The next task consists of about 60 trials, in each of which you will see a string of letters. 
  
  Your task is to decide whether this is a real Spanish word or not.", (press the spacebar to continue),678b1abe0f20e54366473439,Spanish,13 or older,"no, only English or Spanish",yes,2025-07-23_21h37.44.159,empathy_intonation_perc_control,2024.2.4,Win32,59.88023952,678b1abe0f20e54366473439,68817205a84113384fffdfe3,68818e2bc8294464aa87f213,,,,,,,,,,,,,,,,,,,,,,,,,,,,,,270.0543,276.3372,0,0,0,0,1,,,,,,,,,,,,,,,,,,,,,,,,,,,,,,,,,,,,,,,,,,,,,,,,,
,,,,,,,"If you think it is an existing Spanish word, you type '1' (for 'REAL'), and if you think it is not an existing Spanish word, you type '0' (for 'FAKE').", (press the spacebar to continue),678b1abe0f20e54366473439,Spanish,13 or older,"no, only English or Spanish",yes,2025-07-23_21h37.44.159,empathy_intonation_perc_control,2024.2.4,Win32,59.88023952,678b1abe0f20e54366473439,68817205a84113384fffdfe3,68818e2bc8294464aa87f213,,,,,,,,,,,,,,,,,,,,,,,,,,,,,,276.3388,279.8662,0,1,1,1,1,,,,,,,,,,,,,,,,,,,,,,,,,,,,,,,,,,,,,,,,,,,,,,,,,
,,,,,,,"If you are sure that the word exists, even though you don’t know its exact meaning, you may still respond '1' (REAL). 
  
  But if you are not sure if it is an existing word, you should respond '0' (FAKE).
  
  Let's do a practice round...", (press the spacebar to continue),678b1abe0f20e54366473439,Spanish,13 or older,"no, only English or Spanish",yes,2025-07-23_21h37.44.159,empathy_intonation_perc_control,2024.2.4,Win32,59.88023952,678b1abe0f20e54366473439,68817205a84113384fffdfe3,68818e2bc8294464aa87f213,,,,,,,,,,,,,,,,,,,,,,,,,,,,,,279.8676,288.1263,0,2,2,2,1,,,,,,,,,,,,,,,,,,,,,,,,,,,,,,,,,,,,,,,,,,,,,,,,,
,,,,,,,,,678b1abe0f20e54366473439,Spanish,13 or older,"no, only English or Spanish",yes,2025-07-23_21h37.44.159,empathy_intonation_perc_control,2024.2.4,Win32,59.88023952,678b1abe0f20e54366473439,68817205a84113384fffdfe3,68818e2bc8294464aa87f213,,,,,,,,,,,,,0,,,,,,,,,,,,,,,,,,,,,,,,288.1299,292.4543,0,1,3.7851,,292.4546,293.4532,0,0,0,0,1,0,depiste,REAL,FAKE,,,,,,,,,,,,,,,,,,,,,,,,,,,,,,,,
,,,,,,,,,678b1abe0f20e54366473439,Spanish,13 or older,"no, only English or Spanish",yes,2025-07-23_21h37.44.159,empathy_intonation_perc_control,2024.2.4,Win32,59.88023952,678b1abe0f20e54366473439,68817205a84113384fffdfe3,68818e2bc8294464aa87f213,,,,,,,,,,,,,1,,,,,,,,,,,,,,,,,,,,,,,,293.4563,295.9672,1,1,1.9718,,295.9672,296.9663,0,1,1,1,1,0,sí,REAL,FAKE,,,,,,,,,,,,,,,,,,,,,,,,,,,,,,,,
,,,,,,,,,678b1abe0f20e54366473439,Spanish,13 or older,"no, only English or Spanish",yes,2025-07-23_21h37.44.159,empathy_intonation_perc_control,2024.2.4,Win32,59.88023952,678b1abe0f20e54366473439,68817205a84113384fffdfe3,68818e2bc8294464aa87f213,,,,,,,,,,,,,0,,,,,,,,,,,,,,,,,,,,,,,,296.9683,299.0643,0,1,1.5579,,299.0643,300.0633,0,2,2,2,1,0,coné,REAL,FAKE,,,,,,,,,,,,,,,,,,,,,,,,,,,,,,,,
,,,,,,,,,678b1abe0f20e54366473439,Spanish,13 or older,"no, only English or Spanish",yes,2025-07-23_21h37.44.159,empathy_intonation_perc_control,2024.2.4,Win32,59.88023952,678b1abe0f20e54366473439,68817205a84113384fffdfe3,68818e2bc8294464aa87f213,,,,,,,,,,,,,0,,,,,,,,,,,,,,,,,,,,,,,,300.0648,302.2779,1,0,1.675,,302.2797,303.2767,0,3,3,3,1,0,calpar,REAL,FAKE,,,,,,,,,,,,,,,,,,,,,,,,,,,,,,,,
,,,,,,,,,678b1abe0f20e54366473439,Spanish,13 or older,"no, only English or Spanish",yes,2025-07-23_21h37.44.159,empathy_intonation_perc_control,2024.2.4,Win32,59.88023952,678b1abe0f20e54366473439,68817205a84113384fffdfe3,68818e2bc8294464aa87f213,,,,,,,,,,,,,0,,,,,,,,,,,,,,,,,,,,,,,,303.2782,305.5411,0,1,1.7258,,305.5419,306.5403,0,4,4,4,1,0,joten,REAL,FAKE,,,,,,,,,,,,,,,,,,,,,,,,,,,,,,,,
,,,,,,,,,678b1abe0f20e54366473439,Spanish,13 or older,"no, only English or Spanish",yes,2025-07-23_21h37.44.159,empathy_intonation_perc_control,2024.2.4,Win32,59.88023952,678b1abe0f20e54366473439,68817205a84113384fffdfe3,68818e2bc8294464aa87f213,,,,,,,,,,,,,1,,,,,,,,,,,,,,,,,,,,,,,,306.541,308.9047,1,1,1.8232,,308.9049,309.9039,0,5,5,5,1,0,sacapuntas,REAL,FAKE,,,,,,,,,,,,,,,,,,,,,,,,,,,,,,,,
,,,,,,,,,678b1abe0f20e54366473439,Spanish,13 or older,"no, only English or Spanish",yes,2025-07-23_21h37.44.159,empathy_intonation_perc_control,2024.2.4,Win32,59.88023952,678b1abe0f20e54366473439,68817205a84113384fffdfe3,68818e2bc8294464aa87f213,,,,,,,,,,,,,0,,,,,,,,,,,,,,,,,,,,,,,,309.9049,311.652,1,0,1.2005,,311.6529,312.6513,0,6,6,6,1,0,priba,REAL,FAKE,,,,,,,,,,,,,,,,,,,,,,,,,,,,,,,,
,,,,,,,,,678b1abe0f20e54366473439,Spanish,13 or older,"no, only English or Spanish",yes,2025-07-23_21h37.44.159,empathy_intonation_perc_control,2024.2.4,Win32,59.88023952,678b1abe0f20e54366473439,68817205a84113384fffdfe3,68818e2bc8294464aa87f213,,,,,,,,,,,,,0,,,,,,,,,,,,,,,,,,,,,,,,312.6524,314.6489,1,0,1.4507,,314.649,315.6484,0,7,7,7,1,0,pelasula,REAL,FAKE,,,,,,,,,,,,,,,,,,,,,,,,,,,,,,,,
,,,,,,,,,678b1abe0f20e54366473439,Spanish,13 or older,"no, only English or Spanish",yes,2025-07-23_21h37.44.159,empathy_intonation_perc_control,2024.2.4,Win32,59.88023952,678b1abe0f20e54366473439,68817205a84113384fffdfe3,68818e2bc8294464aa87f213,,,,,,,,,,,,,1,,,,,,,,,,,,,,,,,,,,,,,,315.6494,317.3132,1,1,1.1237,,317.3139,318.3121,0,8,8,8,1,0,bien,REAL,FAKE,,,,,,,,,,,,,,,,,,,,,,,,,,,,,,,,
,,,,,,,,,678b1abe0f20e54366473439,Spanish,13 or older,"no, only English or Spanish",yes,2025-07-23_21h37.44.159,empathy_intonation_perc_control,2024.2.4,Win32,59.88023952,678b1abe0f20e54366473439,68817205a84113384fffdfe3,68818e2bc8294464aa87f213,,,,,,,,,,,,,1,,,,,,,,,,,,,,,,,,,,,,,,318.3128,319.8272,1,1,0.9709,,319.8273,320.8264,0,9,9,9,1,0,casa,REAL,FAKE,,,,,,,,,,,,,,,,,,,,,,,,,,,,,,,,
,,,,,,,,,678b1abe0f20e54366473439,Spanish,13 or older,"no, only English or Spanish",yes,2025-07-23_21h37.44.159,empathy_intonation_perc_control,2024.2.4,Win32,59.88023952,678b1abe0f20e54366473439,68817205a84113384fffdfe3,68818e2bc8294464aa87f213,,,,,,,,,,,,,0,,,,,,,,,,,,,,,,,,,,,,,,320.8272,322.525,1,0,1.1556,,322.526,323.5238,0,10,10,10,1,0,lejo,REAL,FAKE,,,,,,,,,,,,,,,,,,,,,,,,,,,,,,,,
,,,,,,,,,678b1abe0f20e54366473439,Spanish,13 or older,"no, only English or Spanish",yes,2025-07-23_21h37.44.159,empathy_intonation_perc_control,2024.2.4,Win32,59.88023952,678b1abe0f20e54366473439,68817205a84113384fffdfe3,68818e2bc8294464aa87f213,,,,,,,,,,,,,0,,,,,,,,,,,,,,,,,,,,,,,,323.5248,326.554,1,0,2.4932,,326.5541,327.5533,0,11,11,11,1,0,pretantas,REAL,FAKE,,,,,,,,,,,,,,,,,,,,,,,,,,,,,,,,
,,,,,,,,,678b1abe0f20e54366473439,Spanish,13 or older,"no, only English or Spanish",yes,2025-07-23_21h37.44.159,empathy_intonation_perc_control,2024.2.4,Win32,59.88023952,678b1abe0f20e54366473439,68817205a84113384fffdfe3,68818e2bc8294464aa87f213,,,,,,,,,,,,,,,,,,,,,,,,,,,,,,,,,,,,,,,,,,,,,,,,,,,,,,327.5534,329.6678,,,,,,,,,,,,,,,,,,,,,,,,,,,,,,
,,,,,,,,,678b1abe0f20e54366473439,Spanish,13 or older,"no, only English or Spanish",yes,2025-07-23_21h37.44.159,empathy_intonation_perc_control,2024.2.4,Win32,59.88023952,678b1abe0f20e54366473439,68817205a84113384fffdfe3,68818e2bc8294464aa87f213,,,,,,,,,,,,,1,,,,,,,,,,,,,,,,,,,,,,,,,,,,,,,,,,,,,31,pandilla,,,,,329.6767,331.5994,1,1,1.3839,,0,0,0,30,1,REAL,FAKE,,,,,,,,,,,,,,,,,
,,,,,,,,,678b1abe0f20e54366473439,Spanish,13 or older,"no, only English or Spanish",yes,2025-07-23_21h37.44.159,empathy_intonation_perc_control,2024.2.4,Win32,59.88023952,678b1abe0f20e54366473439,68817205a84113384fffdfe3,68818e2bc8294464aa87f213,,,,,,,,,,,,,1,,,,,,,,,,,,,,,,,,,,,,,,,,,,,,,,,,,,,83,guante,,,,,331.6014,333.6138,1,1,1.4785,,0,1,1,82,1,REAL,FAKE,,,,,,,,,,,,,,,,,
,,,,,,,,,678b1abe0f20e54366473439,Spanish,13 or older,"no, only English or Spanish",yes,2025-07-23_21h37.44.159,empathy_intonation_perc_control,2024.2.4,Win32,59.88023952,678b1abe0f20e54366473439,68817205a84113384fffdfe3,68818e2bc8294464aa87f213,,,,,,,,,,,,,0,,,,,,,,,,,,,,,,,,,,,,,,,,,,,,,,,,,,,10,antar,,,,,333.6149,335.0628,1,0,0.9012,,0,2,2,9,1,REAL,FAKE,,,,,,,,,,,,,,,,,
,,,,,,,,,678b1abe0f20e54366473439,Spanish,13 or older,"no, only English or Spanish",yes,2025-07-23_21h37.44.159,empathy_intonation_perc_control,2024.2.4,Win32,59.88023952,678b1abe0f20e54366473439,68817205a84113384fffdfe3,68818e2bc8294464aa87f213,,,,,,,,,,,,,0,,,,,,,,,,,,,,,,,,,,,,,,,,,,,,,,,,,,,30,alardio,,,,,335.0637,337.6933,1,0,2.0863,,0,3,3,29,1,REAL,FAKE,,,,,,,,,,,,,,,,,
,,,,,,,,,678b1abe0f20e54366473439,Spanish,13 or older,"no, only English or Spanish",yes,2025-07-23_21h37.44.159,empathy_intonation_perc_control,2024.2.4,Win32,59.88023952,678b1abe0f20e54366473439,68817205a84113384fffdfe3,68818e2bc8294464aa87f213,,,,,,,,,,,,,0,,,,,,,,,,,,,,,,,,,,,,,,,,,,,,,,,,,,,17,floroso,,,,,337.6948,339.741,1,0,1.5012,,0,4,4,16,1,REAL,FAKE,,,,,,,,,,,,,,,,,
,,,,,,,,,678b1abe0f20e54366473439,Spanish,13 or older,"no, only English or Spanish",yes,2025-07-23_21h37.44.159,empathy_intonation_perc_control,2024.2.4,Win32,59.88023952,678b1abe0f20e54366473439,68817205a84113384fffdfe3,68818e2bc8294464aa87f213,,,,,,,,,,,,,1,,,,,,,,,,,,,,,,,,,,,,,,,,,,,,,,,,,,,89,prisa,,,,,339.742,341.7225,1,1,1.4339,,0,5,5,88,1,REAL,FAKE,,,,,,,,,,,,,,,,,
,,,,,,,,,678b1abe0f20e54366473439,Spanish,13 or older,"no, only English or Spanish",yes,2025-07-23_21h37.44.159,empathy_intonation_perc_control,2024.2.4,Win32,59.88023952,678b1abe0f20e54366473439,68817205a84113384fffdfe3,68818e2bc8294464aa87f213,,,,,,,,,,,,,1,,,,,,,,,,,,,,,,,,,,,,,,,,,,,,,,,,,,,67,cabello,,,,,341.723,343.0045,1,1,0.7406,,0,6,6,66,1,REAL,FAKE,,,,,,,,,,,,,,,,,
,,,,,,,,,678b1abe0f20e54366473439,Spanish,13 or older,"no, only English or Spanish",yes,2025-07-23_21h37.44.159,empathy_intonation_perc_control,2024.2.4,Win32,59.88023952,678b1abe0f20e54366473439,68817205a84113384fffdfe3,68818e2bc8294464aa87f213,,,,,,,,,,,,,1,,,,,,,,,,,,,,,,,,,,,,,,,,,,,,,,,,,,,2,pellizcar,,,,,343.0052,345.2358,0,0,1.6888,,0,7,7,1,1,REAL,FAKE,,,,,,,,,,,,,,,,,
,,,,,,,,,678b1abe0f20e54366473439,Spanish,13 or older,"no, only English or Spanish",yes,2025-07-23_21h37.44.159,empathy_intonation_perc_control,2024.2.4,Win32,59.88023952,678b1abe0f20e54366473439,68817205a84113384fffdfe3,68818e2bc8294464aa87f213,,,,,,,,,,,,,1,,,,,,,,,,,,,,,,,,,,,,,,,,,,,,,,,,,,,52,camisa,,,,,345.2368,346.7677,1,1,0.9963,,0,8,8,51,1,REAL,FAKE,,,,,,,,,,,,,,,,,
,,,,,,,,,678b1abe0f20e54366473439,Spanish,13 or older,"no, only English or Spanish",yes,2025-07-23_21h37.44.159,empathy_intonation_perc_control,2024.2.4,Win32,59.88023952,678b1abe0f20e54366473439,68817205a84113384fffdfe3,68818e2bc8294464aa87f213,,,,,,,,,,,,,1,,,,,,,,,,,,,,,,,,,,,,,,,,,,,,,,,,,,,14,yunque,,,,,346.7693,348.5658,1,1,1.2547,,0,9,9,13,1,REAL,FAKE,,,,,,,,,,,,,,,,,
,,,,,,,,,678b1abe0f20e54366473439,Spanish,13 or older,"no, only English or Spanish",yes,2025-07-23_21h37.44.159,empathy_intonation_perc_control,2024.2.4,Win32,59.88023952,678b1abe0f20e54366473439,68817205a84113384fffdfe3,68818e2bc8294464aa87f213,,,,,,,,,,,,,1,,,,,,,,,,,,,,,,,,,,,,,,,,,,,,,,,,,,,71,polvoriento,,,,,348.5668,350.9303,0,0,1.8259,,0,10,10,70,1,REAL,FAKE,,,,,,,,,,,,,,,,,
,,,,,,,,,678b1abe0f20e54366473439,Spanish,13 or older,"no, only English or Spanish",yes,2025-07-23_21h37.44.159,empathy_intonation_perc_control,2024.2.4,Win32,59.88023952,678b1abe0f20e54366473439,68817205a84113384fffdfe3,68818e2bc8294464aa87f213,,,,,,,,,,,,,0,,,,,,,,,,,,,,,,,,,,,,,,,,,,,,,,,,,,,87,grodo,,,,,350.9314,353.1111,0,1,1.6433,,0,11,11,86,1,REAL,FAKE,,,,,,,,,,,,,,,,,
,,,,,,,,,678b1abe0f20e54366473439,Spanish,13 or older,"no, only English or Spanish",yes,2025-07-23_21h37.44.159,empathy_intonation_perc_control,2024.2.4,Win32,59.88023952,678b1abe0f20e54366473439,68817205a84113384fffdfe3,68818e2bc8294464aa87f213,,,,,,,,,,,,,1,,,,,,,,,,,,,,,,,,,,,,,,,,,,,,,,,,,,,41,rebuscar,,,,,353.1123,354.6932,1,1,1.0366,,0,12,12,40,1,REAL,FAKE,,,,,,,,,,,,,,,,,
,,,,,,,,,678b1abe0f20e54366473439,Spanish,13 or older,"no, only English or Spanish",yes,2025-07-23_21h37.44.159,empathy_intonation_perc_control,2024.2.4,Win32,59.88023952,678b1abe0f20e54366473439,68817205a84113384fffdfe3,68818e2bc8294464aa87f213,,,,,,,,,,,,,1,,,,,,,,,,,,,,,,,,,,,,,,,,,,,,,,,,,,,7,pésimo,,,,,354.6943,356.6914,0,0,1.4522,,0,13,13,6,1,REAL,FAKE,,,,,,,,,,,,,,,,,
,,,,,,,,,678b1abe0f20e54366473439,Spanish,13 or older,"no, only English or Spanish",yes,2025-07-23_21h37.44.159,empathy_intonation_perc_control,2024.2.4,Win32,59.88023952,678b1abe0f20e54366473439,68817205a84113384fffdfe3,68818e2bc8294464aa87f213,,,,,,,,,,,,,1,,,,,,,,,,,,,,,,,,,,,,,,,,,,,,,,,,,,,64,orgulloso,,,,,356.6924,359.4219,0,0,2.1835,,0,14,14,63,1,REAL,FAKE,,,,,,,,,,,,,,,,,
,,,,,,,,,678b1abe0f20e54366473439,Spanish,13 or older,"no, only English or Spanish",yes,2025-07-23_21h37.44.159,empathy_intonation_perc_control,2024.2.4,Win32,59.88023952,678b1abe0f20e54366473439,68817205a84113384fffdfe3,68818e2bc8294464aa87f213,,,,,,,,,,,,,1,,,,,,,,,,,,,,,,,,,,,,,,,,,,,,,,,,,,,40,alfombra,,,,,359.4231,361.1699,1,1,1.1997,,0,15,15,39,1,REAL,FAKE,,,,,,,,,,,,,,,,,
,,,,,,,,,678b1abe0f20e54366473439,Spanish,13 or older,"no, only English or Spanish",yes,2025-07-23_21h37.44.159,empathy_intonation_perc_control,2024.2.4,Win32,59.88023952,678b1abe0f20e54366473439,68817205a84113384fffdfe3,68818e2bc8294464aa87f213,,,,,,,,,,,,,0,,,,,,,,,,,,,,,,,,,,,,,,,,,,,,,,,,,,,32,fatacidad,,,,,361.1708,363.7343,0,1,2.022,,0,16,16,31,1,REAL,FAKE,,,,,,,,,,,,,,,,,
,,,,,,,,,678b1abe0f20e54366473439,Spanish,13 or older,"no, only English or Spanish",yes,2025-07-23_21h37.44.159,empathy_intonation_perc_control,2024.2.4,Win32,59.88023952,678b1abe0f20e54366473439,68817205a84113384fffdfe3,68818e2bc8294464aa87f213,,,,,,,,,,,,,1,,,,,,,,,,,,,,,,,,,,,,,,,,,,,,,,,,,,,48,ladrón,,,,,363.7359,365.8323,1,1,1.5541,,0,17,17,47,1,REAL,FAKE,,,,,,,,,,,,,,,,,
,,,,,,,,,678b1abe0f20e54366473439,Spanish,13 or older,"no, only English or Spanish",yes,2025-07-23_21h37.44.159,empathy_intonation_perc_control,2024.2.4,Win32,59.88023952,678b1abe0f20e54366473439,68817205a84113384fffdfe3,68818e2bc8294464aa87f213,,,,,,,,,,,,,0,,,,,,,,,,,,,,,,,,,,,,,,,,,,,,,,,,,,,21,capillo,,,,,365.8329,367.2477,1,0,0.8679,,0,18,18,20,1,REAL,FAKE,,,,,,,,,,,,,,,,,
,,,,,,,,,678b1abe0f20e54366473439,Spanish,13 or older,"no, only English or Spanish",yes,2025-07-23_21h37.44.159,empathy_intonation_perc_control,2024.2.4,Win32,59.88023952,678b1abe0f20e54366473439,68817205a84113384fffdfe3,68818e2bc8294464aa87f213,,,,,,,,,,,,,1,,,,,,,,,,,,,,,,,,,,,,,,,,,,,,,,,,,,,43,canela,,,,,367.2487,368.7792,1,1,0.9925,,0,19,19,42,1,REAL,FAKE,,,,,,,,,,,,,,,,,
,,,,,,,,,678b1abe0f20e54366473439,Spanish,13 or older,"no, only English or Spanish",yes,2025-07-23_21h37.44.159,empathy_intonation_perc_control,2024.2.4,Win32,59.88023952,678b1abe0f20e54366473439,68817205a84113384fffdfe3,68818e2bc8294464aa87f213,,,,,,,,,,,,,0,,,,,,,,,,,,,,,,,,,,,,,,,,,,,,,,,,,,,33,pauca,,,,,368.7799,370.2285,0,1,0.9125,,0,20,20,32,1,REAL,FAKE,,,,,,,,,,,,,,,,,
,,,,,,,,,678b1abe0f20e54366473439,Spanish,13 or older,"no, only English or Spanish",yes,2025-07-23_21h37.44.159,empathy_intonation_perc_control,2024.2.4,Win32,59.88023952,678b1abe0f20e54366473439,68817205a84113384fffdfe3,68818e2bc8294464aa87f213,,,,,,,,,,,,,1,,,,,,,,,,,,,,,,,,,,,,,,,,,,,,,,,,,,,36,loro,,,,,370.2292,371.8763,0,0,1.1108,,0,21,21,35,1,REAL,FAKE,,,,,,,,,,,,,,,,,
,,,,,,,,,678b1abe0f20e54366473439,Spanish,13 or older,"no, only English or Spanish",yes,2025-07-23_21h37.44.159,empathy_intonation_perc_control,2024.2.4,Win32,59.88023952,678b1abe0f20e54366473439,68817205a84113384fffdfe3,68818e2bc8294464aa87f213,,,,,,,,,,,,,1,,,,,,,,,,,,,,,,,,,,,,,,,,,,,,,,,,,,,12,asesinato,,,,,371.8774,374.9899,0,0,2.5777,,0,22,22,11,1,REAL,FAKE,,,,,,,,,,,,,,,,,
,,,,,,,,,678b1abe0f20e54366473439,Spanish,13 or older,"no, only English or Spanish",yes,2025-07-23_21h37.44.159,empathy_intonation_perc_control,2024.2.4,Win32,59.88023952,678b1abe0f20e54366473439,68817205a84113384fffdfe3,68818e2bc8294464aa87f213,,,,,,,,,,,,,1,,,,,,,,,,,,,,,,,,,,,,,,,,,,,,,,,,,,,55,nevar,,,,,374.9912,377.5034,1,1,1.9778,,0,23,23,54,1,REAL,FAKE,,,,,,,,,,,,,,,,,
,,,,,,,,,678b1abe0f20e54366473439,Spanish,13 or older,"no, only English or Spanish",yes,2025-07-23_21h37.44.159,empathy_intonation_perc_control,2024.2.4,Win32,59.88023952,678b1abe0f20e54366473439,68817205a84113384fffdfe3,68818e2bc8294464aa87f213,,,,,,,,,,,,,1,,,,,,,,,,,,,,,,,,,,,,,,,,,,,,,,,,,,,77,tiburón,,,,,377.5043,378.8862,1,1,0.8363,,0,24,24,76,1,REAL,FAKE,,,,,,,,,,,,,,,,,
,,,,,,,,,678b1abe0f20e54366473439,Spanish,13 or older,"no, only English or Spanish",yes,2025-07-23_21h37.44.159,empathy_intonation_perc_control,2024.2.4,Win32,59.88023952,678b1abe0f20e54366473439,68817205a84113384fffdfe3,68818e2bc8294464aa87f213,,,,,,,,,,,,,0,,,,,,,,,,,,,,,,,,,,,,,,,,,,,,,,,,,,,63,esposante,,,,,378.8873,380.8844,1,0,1.454,,0,25,25,62,1,REAL,FAKE,,,,,,,,,,,,,,,,,
,,,,,,,,,678b1abe0f20e54366473439,Spanish,13 or older,"no, only English or Spanish",yes,2025-07-23_21h37.44.159,empathy_intonation_perc_control,2024.2.4,Win32,59.88023952,678b1abe0f20e54366473439,68817205a84113384fffdfe3,68818e2bc8294464aa87f213,,,,,,,,,,,,,1,,,,,,,,,,,,,,,,,,,,,,,,,,,,,,,,,,,,,22,lacayo,,,,,380.8855,382.7822,0,0,1.3615,,0,26,26,21,1,REAL,FAKE,,,,,,,,,,,,,,,,,
,,,,,,,,,678b1abe0f20e54366473439,Spanish,13 or older,"no, only English or Spanish",yes,2025-07-23_21h37.44.159,empathy_intonation_perc_control,2024.2.4,Win32,59.88023952,678b1abe0f20e54366473439,68817205a84113384fffdfe3,68818e2bc8294464aa87f213,,,,,,,,,,,,,1,,,,,,,,,,,,,,,,,,,,,,,,,,,,,,,,,,,,,9,hacha,,,,,382.7835,384.147,1,1,0.8293,,0,27,27,8,1,REAL,FAKE,,,,,,,,,,,,,,,,,
,,,,,,,,,678b1abe0f20e54366473439,Spanish,13 or older,"no, only English or Spanish",yes,2025-07-23_21h37.44.159,empathy_intonation_perc_control,2024.2.4,Win32,59.88023952,678b1abe0f20e54366473439,68817205a84113384fffdfe3,68818e2bc8294464aa87f213,,,,,,,,,,,,,1,,,,,,,,,,,,,,,,,,,,,,,,,,,,,,,,,,,,,76,atar,,,,,384.1481,385.5966,1,1,0.9014,,0,28,28,75,1,REAL,FAKE,,,,,,,,,,,,,,,,,
,,,,,,,,,678b1abe0f20e54366473439,Spanish,13 or older,"no, only English or Spanish",yes,2025-07-23_21h37.44.159,empathy_intonation_perc_control,2024.2.4,Win32,59.88023952,678b1abe0f20e54366473439,68817205a84113384fffdfe3,68818e2bc8294464aa87f213,,,,,,,,,,,,,0,,,,,,,,,,,,,,,,,,,,,,,,,,,,,,,,,,,,,29,decar,,,,,385.5976,387.228,1,0,1.0894,,0,29,29,28,1,REAL,FAKE,,,,,,,,,,,,,,,,,
,,,,,,,,,678b1abe0f20e54366473439,Spanish,13 or older,"no, only English or Spanish",yes,2025-07-23_21h37.44.159,empathy_intonation_perc_control,2024.2.4,Win32,59.88023952,678b1abe0f20e54366473439,68817205a84113384fffdfe3,68818e2bc8294464aa87f213,,,,,,,,,,,,,0,,,,,,,,,,,,,,,,,,,,,,,,,,,,,,,,,,,,,53,vegada,,,,,387.2292,388.7269,1,0,0.9589,,0,30,30,52,1,REAL,FAKE,,,,,,,,,,,,,,,,,
,,,,,,,,,678b1abe0f20e54366473439,Spanish,13 or older,"no, only English or Spanish",yes,2025-07-23_21h37.44.159,empathy_intonation_perc_control,2024.2.4,Win32,59.88023952,678b1abe0f20e54366473439,68817205a84113384fffdfe3,68818e2bc8294464aa87f213,,,,,,,,,,,,,0,,,,,,,,,,,,,,,,,,,,,,,,,,,,,,,,,,,,,82,empirador,,,,,388.728,390.3582,1,0,1.0891,,0,31,31,81,1,REAL,FAKE,,,,,,,,,,,,,,,,,
,,,,,,,,,678b1abe0f20e54366473439,Spanish,13 or older,"no, only English or Spanish",yes,2025-07-23_21h37.44.159,empathy_intonation_perc_control,2024.2.4,Win32,59.88023952,678b1abe0f20e54366473439,68817205a84113384fffdfe3,68818e2bc8294464aa87f213,,,,,,,,,,,,,1,,,,,,,,,,,,,,,,,,,,,,,,,,,,,,,,,,,,,73,hervidor,,,,,390.3594,392.5723,1,1,1.6787,,0,32,32,72,1,REAL,FAKE,,,,,,,,,,,,,,,,,
,,,,,,,,,678b1abe0f20e54366473439,Spanish,13 or older,"no, only English or Spanish",yes,2025-07-23_21h37.44.159,empathy_intonation_perc_control,2024.2.4,Win32,59.88023952,678b1abe0f20e54366473439,68817205a84113384fffdfe3,68818e2bc8294464aa87f213,,,,,,,,,,,,,0,,,,,,,,,,,,,,,,,,,,,,,,,,,,,,,,,,,,,8,cadeña,,,,,392.5741,394.1713,1,0,1.0521,,0,33,33,7,1,REAL,FAKE,,,,,,,,,,,,,,,,,
,,,,,,,,,678b1abe0f20e54366473439,Spanish,13 or older,"no, only English or Spanish",yes,2025-07-23_21h37.44.159,empathy_intonation_perc_control,2024.2.4,Win32,59.88023952,678b1abe0f20e54366473439,68817205a84113384fffdfe3,68818e2bc8294464aa87f213,,,,,,,,,,,,,1,,,,,,,,,,,,,,,,,,,,,,,,,,,,,,,,,,,,,80,hormiga,,,,,394.1723,396.0031,0,0,1.288,,0,34,34,79,1,REAL,FAKE,,,,,,,,,,,,,,,,,
,,,,,,,,,678b1abe0f20e54366473439,Spanish,13 or older,"no, only English or Spanish",yes,2025-07-23_21h37.44.159,empathy_intonation_perc_control,2024.2.4,Win32,59.88023952,678b1abe0f20e54366473439,68817205a84113384fffdfe3,68818e2bc8294464aa87f213,,,,,,,,,,,,,0,,,,,,,,,,,,,,,,,,,,,,,,,,,,,,,,,,,,,66,hacido,,,,,396.0042,397.5845,1,0,1.0341,,0,35,35,65,1,REAL,FAKE,,,,,,,,,,,,,,,,,
,,,,,,,,,678b1abe0f20e54366473439,Spanish,13 or older,"no, only English or Spanish",yes,2025-07-23_21h37.44.159,empathy_intonation_perc_control,2024.2.4,Win32,59.88023952,678b1abe0f20e54366473439,68817205a84113384fffdfe3,68818e2bc8294464aa87f213,,,,,,,,,,,,,1,,,,,,,,,,,,,,,,,,,,,,,,,,,,,,,,,,,,,61,seda,,,,,397.5857,399.1001,0,0,0.9733,,0,36,36,60,1,REAL,FAKE,,,,,,,,,,,,,,,,,
,,,,,,,,,678b1abe0f20e54366473439,Spanish,13 or older,"no, only English or Spanish",yes,2025-07-23_21h37.44.159,empathy_intonation_perc_control,2024.2.4,Win32,59.88023952,678b1abe0f20e54366473439,68817205a84113384fffdfe3,68818e2bc8294464aa87f213,,,,,,,,,,,,,0,,,,,,,,,,,,,,,,,,,,,,,,,,,,,,,,,,,,,79,tropaje,,,,,399.1012,401.7802,1,0,2.1389,,0,37,37,78,1,REAL,FAKE,,,,,,,,,,,,,,,,,
,,,,,,,,,678b1abe0f20e54366473439,Spanish,13 or older,"no, only English or Spanish",yes,2025-07-23_21h37.44.159,empathy_intonation_perc_control,2024.2.4,Win32,59.88023952,678b1abe0f20e54366473439,68817205a84113384fffdfe3,68818e2bc8294464aa87f213,,,,,,,,,,,,,1,,,,,,,,,,,,,,,,,,,,,,,,,,,,,,,,,,,,,34,aviso,,,,,401.7813,403.2292,1,1,0.9134,,0,38,38,33,1,REAL,FAKE,,,,,,,,,,,,,,,,,
,,,,,,,,,678b1abe0f20e54366473439,Spanish,13 or older,"no, only English or Spanish",yes,2025-07-23_21h37.44.159,empathy_intonation_perc_control,2024.2.4,Win32,59.88023952,678b1abe0f20e54366473439,68817205a84113384fffdfe3,68818e2bc8294464aa87f213,,,,,,,,,,,,,0,,,,,,,,,,,,,,,,,,,,,,,,,,,,,,,,,,,,,23,lampera,,,,,403.2305,404.5277,1,0,0.7594,,0,39,39,22,1,REAL,FAKE,,,,,,,,,,,,,,,,,
,,,,,,,,,678b1abe0f20e54366473439,Spanish,13 or older,"no, only English or Spanish",yes,2025-07-23_21h37.44.159,empathy_intonation_perc_control,2024.2.4,Win32,59.88023952,678b1abe0f20e54366473439,68817205a84113384fffdfe3,68818e2bc8294464aa87f213,,,,,,,,,,,,,1,,,,,,,,,,,,,,,,,,,,,,,,,,,,,,,,,,,,,81,pozo,,,,,404.5287,406.5091,0,0,1.434,,0,40,40,80,1,REAL,FAKE,,,,,,,,,,,,,,,,,
,,,,,,,,,678b1abe0f20e54366473439,Spanish,13 or older,"no, only English or Spanish",yes,2025-07-23_21h37.44.159,empathy_intonation_perc_control,2024.2.4,Win32,59.88023952,678b1abe0f20e54366473439,68817205a84113384fffdfe3,68818e2bc8294464aa87f213,,,,,,,,,,,,,1,,,,,,,,,,,,,,,,,,,,,,,,,,,,,,,,,,,,,57,tacaño,,,,,406.5102,407.9578,0,0,0.9005,,0,41,41,56,1,REAL,FAKE,,,,,,,,,,,,,,,,,
,,,,,,,,,678b1abe0f20e54366473439,Spanish,13 or older,"no, only English or Spanish",yes,2025-07-23_21h37.44.159,empathy_intonation_perc_control,2024.2.4,Win32,59.88023952,678b1abe0f20e54366473439,68817205a84113384fffdfe3,68818e2bc8294464aa87f213,,,,,,,,,,,,,0,,,,,,,,,,,,,,,,,,,,,,,,,,,,,,,,,,,,,16,abracer,,,,,407.9588,409.523,1,0,1.0207,,0,42,42,15,1,REAL,FAKE,,,,,,,,,,,,,,,,,
,,,,,,,,,678b1abe0f20e54366473439,Spanish,13 or older,"no, only English or Spanish",yes,2025-07-23_21h37.44.159,empathy_intonation_perc_control,2024.2.4,Win32,59.88023952,678b1abe0f20e54366473439,68817205a84113384fffdfe3,68818e2bc8294464aa87f213,,,,,,,,,,,,,1,,,,,,,,,,,,,,,,,,,,,,,,,,,,,,,,,,,,,11,cenefa,,,,,409.5242,410.9218,0,0,0.8509,,0,43,43,10,1,REAL,FAKE,,,,,,,,,,,,,,,,,
,,,,,,,,,678b1abe0f20e54366473439,Spanish,13 or older,"no, only English or Spanish",yes,2025-07-23_21h37.44.159,empathy_intonation_perc_control,2024.2.4,Win32,59.88023952,678b1abe0f20e54366473439,68817205a84113384fffdfe3,68818e2bc8294464aa87f213,,,,,,,,,,,,,0,,,,,,,,,,,,,,,,,,,,,,,,,,,,,,,,,,,,,27,acutación,,,,,410.9229,413.0027,0,1,1.5436,,0,44,44,26,1,REAL,FAKE,,,,,,,,,,,,,,,,,
,,,,,,,,,678b1abe0f20e54366473439,Spanish,13 or older,"no, only English or Spanish",yes,2025-07-23_21h37.44.159,empathy_intonation_perc_control,2024.2.4,Win32,59.88023952,678b1abe0f20e54366473439,68817205a84113384fffdfe3,68818e2bc8294464aa87f213,,,,,,,,,,,,,1,,,,,,,,,,,,,,,,,,,,,,,,,,,,,,,,,,,,,51,candado,,,,,413.004,414.9179,1,1,1.3697,,0,45,45,50,1,REAL,FAKE,,,,,,,,,,,,,,,,,
,,,,,,,,,678b1abe0f20e54366473439,Spanish,13 or older,"no, only English or Spanish",yes,2025-07-23_21h37.44.159,empathy_intonation_perc_control,2024.2.4,Win32,59.88023952,678b1abe0f20e54366473439,68817205a84113384fffdfe3,68818e2bc8294464aa87f213,,,,,,,,,,,,,0,,,,,,,,,,,,,,,,,,,,,,,,,,,,,,,,,,,,,72,pemición,,,,,414.9192,416.1996,0,1,0.7364,,0,46,46,71,1,REAL,FAKE,,,,,,,,,,,,,,,,,
,,,,,,,,,678b1abe0f20e54366473439,Spanish,13 or older,"no, only English or Spanish",yes,2025-07-23_21h37.44.159,empathy_intonation_perc_control,2024.2.4,Win32,59.88023952,678b1abe0f20e54366473439,68817205a84113384fffdfe3,68818e2bc8294464aa87f213,,,,,,,,,,,,,1,,,,,,,,,,,,,,,,,,,,,,,,,,,,,,,,,,,,,91,click the 1 key.,,,,,416.2016,418.1311,1,1,1.3848,,0,47,47,90,1,REAL,FAKE,,,,,,,,,,,,,,,,,
,,,,,,,,,678b1abe0f20e54366473439,Spanish,13 or older,"no, only English or Spanish",yes,2025-07-23_21h37.44.159,empathy_intonation_perc_control,2024.2.4,Win32,59.88023952,678b1abe0f20e54366473439,68817205a84113384fffdfe3,68818e2bc8294464aa87f213,,,,,,,,,,,,,1,,,,,,,,,,,,,,,,,,,,,,,,,,,,,,,,,,,,,3,pulmones,,,,,418.1326,424.1087,1,1,5.4376,,0,48,48,2,1,REAL,FAKE,,,,,,,,,,,,,,,,,
,,,,,,,,,678b1abe0f20e54366473439,Spanish,13 or older,"no, only English or Spanish",yes,2025-07-23_21h37.44.159,empathy_intonation_perc_control,2024.2.4,Win32,59.88023952,678b1abe0f20e54366473439,68817205a84113384fffdfe3,68818e2bc8294464aa87f213,,,,,,,,,,,,,1,,,,,,,,,,,,,,,,,,,,,,,,,,,,,,,,,,,,,24,látigo,,,,,424.1109,425.6238,0,0,0.9749,,0,49,49,23,1,REAL,FAKE,,,,,,,,,,,,,,,,,
,,,,,,,,,678b1abe0f20e54366473439,Spanish,13 or older,"no, only English or Spanish",yes,2025-07-23_21h37.44.159,empathy_intonation_perc_control,2024.2.4,Win32,59.88023952,678b1abe0f20e54366473439,68817205a84113384fffdfe3,68818e2bc8294464aa87f213,,,,,,,,,,,,,0,,,,,,,,,,,,,,,,,,,,,,,,,,,,,,,,,,,,,70,temblo,,,,,425.6249,427.3222,0,1,1.1596,,0,50,50,69,1,REAL,FAKE,,,,,,,,,,,,,,,,,
,,,,,,,,,678b1abe0f20e54366473439,Spanish,13 or older,"no, only English or Spanish",yes,2025-07-23_21h37.44.159,empathy_intonation_perc_control,2024.2.4,Win32,59.88023952,678b1abe0f20e54366473439,68817205a84113384fffdfe3,68818e2bc8294464aa87f213,,,,,,,,,,,,,0,,,,,,,,,,,,,,,,,,,,,,,,,,,,,,,,,,,,,1,terzo,,,,,427.323,429.1036,1,0,1.2416,,0,51,51,0,1,REAL,FAKE,,,,,,,,,,,,,,,,,
,,,,,,,,,678b1abe0f20e54366473439,Spanish,13 or older,"no, only English or Spanish",yes,2025-07-23_21h37.44.159,empathy_intonation_perc_control,2024.2.4,Win32,59.88023952,678b1abe0f20e54366473439,68817205a84113384fffdfe3,68818e2bc8294464aa87f213,,,,,,,,,,,,,0,,,,,,,,,,,,,,,,,,,,,,,,,,,,,,,,,,,,,74,cintro,,,,,429.1049,430.9178,1,0,1.2786,,0,52,52,73,1,REAL,FAKE,,,,,,,,,,,,,,,,,
,,,,,,,,,678b1abe0f20e54366473439,Spanish,13 or older,"no, only English or Spanish",yes,2025-07-23_21h37.44.159,empathy_intonation_perc_control,2024.2.4,Win32,59.88023952,678b1abe0f20e54366473439,68817205a84113384fffdfe3,68818e2bc8294464aa87f213,,,,,,,,,,,,,1,,,,,,,,,,,,,,,,,,,,,,,,,,,,,,,,,,,,,25,bisagra,,,,,430.9188,432.2675,0,0,0.8035,,0,53,53,24,1,REAL,FAKE,,,,,,,,,,,,,,,,,
,,,,,,,,,678b1abe0f20e54366473439,Spanish,13 or older,"no, only English or Spanish",yes,2025-07-23_21h37.44.159,empathy_intonation_perc_control,2024.2.4,Win32,59.88023952,678b1abe0f20e54366473439,68817205a84113384fffdfe3,68818e2bc8294464aa87f213,,,,,,,,,,,,,1,,,,,,,,,,,,,,,,,,,,,,,,,,,,,,,,,,,,,90,clavel,,,,,432.2685,433.7159,0,0,0.9009,,0,54,54,89,1,REAL,FAKE,,,,,,,,,,,,,,,,,
,,,,,,,,,678b1abe0f20e54366473439,Spanish,13 or older,"no, only English or Spanish",yes,2025-07-23_21h37.44.159,empathy_intonation_perc_control,2024.2.4,Win32,59.88023952,678b1abe0f20e54366473439,68817205a84113384fffdfe3,68818e2bc8294464aa87f213,,,,,,,,,,,,,0,,,,,,,,,,,,,,,,,,,,,,,,,,,,,,,,,,,,,47,cartinar,,,,,433.7166,436.2634,0,1,2.0096,,0,55,55,46,1,REAL,FAKE,,,,,,,,,,,,,,,,,
,,,,,,,,,678b1abe0f20e54366473439,Spanish,13 or older,"no, only English or Spanish",yes,2025-07-23_21h37.44.159,empathy_intonation_perc_control,2024.2.4,Win32,59.88023952,678b1abe0f20e54366473439,68817205a84113384fffdfe3,68818e2bc8294464aa87f213,,,,,,,,,,,,,1,,,,,,,,,,,,,,,,,,,,,,,,,,,,,,,,,,,,,46,martillo,,,,,436.2644,437.8284,1,1,1.0171,,0,56,56,45,1,REAL,FAKE,,,,,,,,,,,,,,,,,
,,,,,,,,,678b1abe0f20e54366473439,Spanish,13 or older,"no, only English or Spanish",yes,2025-07-23_21h37.44.159,empathy_intonation_perc_control,2024.2.4,Win32,59.88023952,678b1abe0f20e54366473439,68817205a84113384fffdfe3,68818e2bc8294464aa87f213,,,,,,,,,,,,,0,,,,,,,,,,,,,,,,,,,,,,,,,,,,,,,,,,,,,50,flamida,,,,,437.829,440.0095,1,0,1.6361,,0,57,57,49,1,REAL,FAKE,,,,,,,,,,,,,,,,,
,,,,,,,,,678b1abe0f20e54366473439,Spanish,13 or older,"no, only English or Spanish",yes,2025-07-23_21h37.44.159,empathy_intonation_perc_control,2024.2.4,Win32,59.88023952,678b1abe0f20e54366473439,68817205a84113384fffdfe3,68818e2bc8294464aa87f213,,,,,,,,,,,,,0,,,,,,,,,,,,,,,,,,,,,,,,,,,,,,,,,,,,,4,batillón,,,,,440.0108,443.6229,1,0,3.0721,,0,58,58,3,1,REAL,FAKE,,,,,,,,,,,,,,,,,
,,,,,,,,,678b1abe0f20e54366473439,Spanish,13 or older,"no, only English or Spanish",yes,2025-07-23_21h37.44.159,empathy_intonation_perc_control,2024.2.4,Win32,59.88023952,678b1abe0f20e54366473439,68817205a84113384fffdfe3,68818e2bc8294464aa87f213,,,,,,,,,,,,,0,,,,,,,,,,,,,,,,,,,,,,,,,,,,,,,,,,,,,84,escuto,,,,,443.624,445.0383,1,0,0.8755,,0,59,59,83,1,REAL,FAKE,,,,,,,,,,,,,,,,,
,,,,,,,,,678b1abe0f20e54366473439,Spanish,13 or older,"no, only English or Spanish",yes,2025-07-23_21h37.44.159,empathy_intonation_perc_control,2024.2.4,Win32,59.88023952,678b1abe0f20e54366473439,68817205a84113384fffdfe3,68818e2bc8294464aa87f213,,,,,,,,,,,,,1,,,,,,,,,,,,,,,,,,,,,,,,,,,,,,,,,,,,,85,laúd,,,,,445.0398,446.4202,0,0,0.8349,,0,60,60,84,1,REAL,FAKE,,,,,,,,,,,,,,,,,
,,,,,,,,,678b1abe0f20e54366473439,Spanish,13 or older,"no, only English or Spanish",yes,2025-07-23_21h37.44.159,empathy_intonation_perc_control,2024.2.4,Win32,59.88023952,678b1abe0f20e54366473439,68817205a84113384fffdfe3,68818e2bc8294464aa87f213,,,,,,,,,,,,,1,,,,,,,,,,,,,,,,,,,,,,,,,,,,,,,,,,,,,88,acantilado,,,,,446.4213,448.7679,1,1,1.8019,,0,61,61,87,1,REAL,FAKE,,,,,,,,,,,,,,,,,
,,,,,,,,,678b1abe0f20e54366473439,Spanish,13 or older,"no, only English or Spanish",yes,2025-07-23_21h37.44.159,empathy_intonation_perc_control,2024.2.4,Win32,59.88023952,678b1abe0f20e54366473439,68817205a84113384fffdfe3,68818e2bc8294464aa87f213,,,,,,,,,,,,,0,,,,,,,,,,,,,,,,,,,,,,,,,,,,,,,,,,,,,19,brecedad,,,,,448.7691,450.8158,0,1,1.5002,,0,62,62,18,1,REAL,FAKE,,,,,,,,,,,,,,,,,
,,,,,,,,,678b1abe0f20e54366473439,Spanish,13 or older,"no, only English or Spanish",yes,2025-07-23_21h37.44.159,empathy_intonation_perc_control,2024.2.4,Win32,59.88023952,678b1abe0f20e54366473439,68817205a84113384fffdfe3,68818e2bc8294464aa87f213,,,,,,,,,,,,,0,,,,,,,,,,,,,,,,,,,,,,,,,,,,,,,,,,,,,42,cadallo,,,,,450.8168,453.0969,0,1,1.7352,,0,63,63,41,1,REAL,FAKE,,,,,,,,,,,,,,,,,
,,,,,,,,,678b1abe0f20e54366473439,Spanish,13 or older,"no, only English or Spanish",yes,2025-07-23_21h37.44.159,empathy_intonation_perc_control,2024.2.4,Win32,59.88023952,678b1abe0f20e54366473439,68817205a84113384fffdfe3,68818e2bc8294464aa87f213,,,,,,,,,,,,,1,,,,,,,,,,,,,,,,,,,,,,,,,,,,,,,,,,,,,62,flaco,,,,,453.0976,454.8119,0,0,1.1679,,0,64,64,61,1,REAL,FAKE,,,,,,,,,,,,,,,,,
,,,,,,,,,678b1abe0f20e54366473439,Spanish,13 or older,"no, only English or Spanish",yes,2025-07-23_21h37.44.159,empathy_intonation_perc_control,2024.2.4,Win32,59.88023952,678b1abe0f20e54366473439,68817205a84113384fffdfe3,68818e2bc8294464aa87f213,,,,,,,,,,,,,1,,,,,,,,,,,,,,,,,,,,,,,,,,,,,,,,,,,,,38,estornudar,,,,,454.8131,456.8096,0,0,1.4604,,0,65,65,37,1,REAL,FAKE,,,,,,,,,,,,,,,,,
,,,,,,,,,678b1abe0f20e54366473439,Spanish,13 or older,"no, only English or Spanish",yes,2025-07-23_21h37.44.159,empathy_intonation_perc_control,2024.2.4,Win32,59.88023952,678b1abe0f20e54366473439,68817205a84113384fffdfe3,68818e2bc8294464aa87f213,,,,,,,,,,,,,1,,,,,,,,,,,,,,,,,,,,,,,,,,,,,,,,,,,,,68,alegre,,,,,456.8107,458.6917,1,1,1.341,,0,66,66,67,1,REAL,FAKE,,,,,,,,,,,,,,,,,
,,,,,,,,,678b1abe0f20e54366473439,Spanish,13 or older,"no, only English or Spanish",yes,2025-07-23_21h37.44.159,empathy_intonation_perc_control,2024.2.4,Win32,59.88023952,678b1abe0f20e54366473439,68817205a84113384fffdfe3,68818e2bc8294464aa87f213,,,,,,,,,,,,,0,,,,,,,,,,,,,,,,,,,,,,,,,,,,,,,,,,,,,18,arsa,,,,,458.6929,460.0901,0,1,0.8543,,0,67,67,17,1,REAL,FAKE,,,,,,,,,,,,,,,,,
,,,,,,,,,678b1abe0f20e54366473439,Spanish,13 or older,"no, only English or Spanish",yes,2025-07-23_21h37.44.159,empathy_intonation_perc_control,2024.2.4,Win32,59.88023952,678b1abe0f20e54366473439,68817205a84113384fffdfe3,68818e2bc8294464aa87f213,,,,,,,,,,,,,1,,,,,,,,,,,,,,,,,,,,,,,,,,,,,,,,,,,,,28,merodear,,,,,460.0907,462.7375,0,0,2.1036,,0,68,68,27,1,REAL,FAKE,,,,,,,,,,,,,,,,,
,,,,,,,,,678b1abe0f20e54366473439,Spanish,13 or older,"no, only English or Spanish",yes,2025-07-23_21h37.44.159,empathy_intonation_perc_control,2024.2.4,Win32,59.88023952,678b1abe0f20e54366473439,68817205a84113384fffdfe3,68818e2bc8294464aa87f213,,,,,,,,,,,,,1,,,,,,,,,,,,,,,,,,,,,,,,,,,,,,,,,,,,,56,musgo,,,,,462.7385,464.3358,0,0,1.0549,,0,69,69,55,1,REAL,FAKE,,,,,,,,,,,,,,,,,
,,,,,,,,,678b1abe0f20e54366473439,Spanish,13 or older,"no, only English or Spanish",yes,2025-07-23_21h37.44.159,empathy_intonation_perc_control,2024.2.4,Win32,59.88023952,678b1abe0f20e54366473439,68817205a84113384fffdfe3,68818e2bc8294464aa87f213,,,,,,,,,,,,,1,,,,,,,,,,,,,,,,,,,,,,,,,,,,,,,,,,,,,26,secuestro,,,,,464.3365,466.2174,1,1,1.3342,,0,70,70,25,1,REAL,FAKE,,,,,,,,,,,,,,,,,
,,,,,,,,,678b1abe0f20e54366473439,Spanish,13 or older,"no, only English or Spanish",yes,2025-07-23_21h37.44.159,empathy_intonation_perc_control,2024.2.4,Win32,59.88023952,678b1abe0f20e54366473439,68817205a84113384fffdfe3,68818e2bc8294464aa87f213,,,,,,,,,,,,,1,,,,,,,,,,,,,,,,,,,,,,,,,,,,,,,,,,,,,49,ganar,,,,,466.2188,467.5994,1,1,0.8397,,0,71,71,48,1,REAL,FAKE,,,,,,,,,,,,,,,,,
,,,,,,,,,678b1abe0f20e54366473439,Spanish,13 or older,"no, only English or Spanish",yes,2025-07-23_21h37.44.159,empathy_intonation_perc_control,2024.2.4,Win32,59.88023952,678b1abe0f20e54366473439,68817205a84113384fffdfe3,68818e2bc8294464aa87f213,,,,,,,,,,,,,1,,,,,,,,,,,,,,,,,,,,,,,,,,,,,,,,,,,,,39,torpe,,,,,467.6,469.0642,0,0,0.9282,,0,72,72,38,1,REAL,FAKE,,,,,,,,,,,,,,,,,
,,,,,,,,,678b1abe0f20e54366473439,Spanish,13 or older,"no, only English or Spanish",yes,2025-07-23_21h37.44.159,empathy_intonation_perc_control,2024.2.4,Win32,59.88023952,678b1abe0f20e54366473439,68817205a84113384fffdfe3,68818e2bc8294464aa87f213,,,,,,,,,,,,,1,,,,,,,,,,,,,,,,,,,,,,,,,,,,,,,,,,,,,86,barato,,,,,469.0649,470.6126,1,1,1.0123,,0,73,73,85,1,REAL,FAKE,,,,,,,,,,,,,,,,,
,,,,,,,,,678b1abe0f20e54366473439,Spanish,13 or older,"no, only English or Spanish",yes,2025-07-23_21h37.44.159,empathy_intonation_perc_control,2024.2.4,Win32,59.88023952,678b1abe0f20e54366473439,68817205a84113384fffdfe3,68818e2bc8294464aa87f213,,,,,,,,,,,,,1,,,,,,,,,,,,,,,,,,,,,,,,,,,,,,,,,,,,,37,granuja,,,,,470.6138,473.5102,0,0,2.3513,,0,74,74,36,1,REAL,FAKE,,,,,,,,,,,,,,,,,
,,,,,,,,,678b1abe0f20e54366473439,Spanish,13 or older,"no, only English or Spanish",yes,2025-07-23_21h37.44.159,empathy_intonation_perc_control,2024.2.4,Win32,59.88023952,678b1abe0f20e54366473439,68817205a84113384fffdfe3,68818e2bc8294464aa87f213,,,,,,,,,,,,,1,,,,,,,,,,,,,,,,,,,,,,,,,,,,,,,,,,,,,20,ávido,,,,,473.5114,474.9086,1,1,0.8572,,0,75,75,19,1,REAL,FAKE,,,,,,,,,,,,,,,,,
,,,,,,,,,678b1abe0f20e54366473439,Spanish,13 or older,"no, only English or Spanish",yes,2025-07-23_21h37.44.159,empathy_intonation_perc_control,2024.2.4,Win32,59.88023952,678b1abe0f20e54366473439,68817205a84113384fffdfe3,68818e2bc8294464aa87f213,,,,,,,,,,,,,0,,,,,,,,,,,,,,,,,,,,,,,,,,,,,,,,,,,,,58,plaudir,,,,,474.9093,476.3901,1,0,0.9449,,0,76,76,57,1,REAL,FAKE,,,,,,,,,,,,,,,,,
,,,,,,,,,678b1abe0f20e54366473439,Spanish,13 or older,"no, only English or Spanish",yes,2025-07-23_21h37.44.159,empathy_intonation_perc_control,2024.2.4,Win32,59.88023952,678b1abe0f20e54366473439,68817205a84113384fffdfe3,68818e2bc8294464aa87f213,,,,,,,,,,,,,0,,,,,,,,,,,,,,,,,,,,,,,,,,,,,,,,,,,,,92,click the 0 key.,,,,,476.3911,478.1055,0,1,1.1734,,0,77,77,91,1,REAL,FAKE,,,,,,,,,,,,,,,,,
,,,,,,,,,678b1abe0f20e54366473439,Spanish,13 or older,"no, only English or Spanish",yes,2025-07-23_21h37.44.159,empathy_intonation_perc_control,2024.2.4,Win32,59.88023952,678b1abe0f20e54366473439,68817205a84113384fffdfe3,68818e2bc8294464aa87f213,,,,,,,,,,,,,1,,,,,,,,,,,,,,,,,,,,,,,,,,,,,,,,,,,,,44,cuchara,,,,,478.1061,480.9688,1,1,2.3268,,0,78,78,43,1,REAL,FAKE,,,,,,,,,,,,,,,,,
,,,,,,,,,678b1abe0f20e54366473439,Spanish,13 or older,"no, only English or Spanish",yes,2025-07-23_21h37.44.159,empathy_intonation_perc_control,2024.2.4,Win32,59.88023952,678b1abe0f20e54366473439,68817205a84113384fffdfe3,68818e2bc8294464aa87f213,,,,,,,,,,,,,1,,,,,,,,,,,,,,,,,,,,,,,,,,,,,,,,,,,,,5,zapato,,,,,480.9699,482.3181,1,1,0.8254,,0,79,79,4,1,REAL,FAKE,,,,,,,,,,,,,,,,,
,,,,,,,,,678b1abe0f20e54366473439,Spanish,13 or older,"no, only English or Spanish",yes,2025-07-23_21h37.44.159,empathy_intonation_perc_control,2024.2.4,Win32,59.88023952,678b1abe0f20e54366473439,68817205a84113384fffdfe3,68818e2bc8294464aa87f213,,,,,,,,,,,,,1,,,,,,,,,,,,,,,,,,,,,,,,,,,,,,,,,,,,,59,besar,,,,,482.3186,483.75,1,1,0.8871,,0,80,80,58,1,REAL,FAKE,,,,,,,,,,,,,,,,,
,,,,,,,,,678b1abe0f20e54366473439,Spanish,13 or older,"no, only English or Spanish",yes,2025-07-23_21h37.44.159,empathy_intonation_perc_control,2024.2.4,Win32,59.88023952,678b1abe0f20e54366473439,68817205a84113384fffdfe3,68818e2bc8294464aa87f213,,,,,,,,,,,,,1,,,,,,,,,,,,,,,,,,,,,,,,,,,,,,,,,,,,,60,matar,,,,,483.751,485.2817,1,1,0.9907,,0,81,81,59,1,REAL,FAKE,,,,,,,,,,,,,,,,,
,,,,,,,,,678b1abe0f20e54366473439,Spanish,13 or older,"no, only English or Spanish",yes,2025-07-23_21h37.44.159,empathy_intonation_perc_control,2024.2.4,Win32,59.88023952,678b1abe0f20e54366473439,68817205a84113384fffdfe3,68818e2bc8294464aa87f213,,,,,,,,,,,,,0,,,,,,,,,,,,,,,,,,,,,,,,,,,,,,,,,,,,,35,rompido,,,,,485.2825,487.0468,1,0,1.2252,,0,82,82,34,1,REAL,FAKE,,,,,,,,,,,,,,,,,
,,,,,,,,,678b1abe0f20e54366473439,Spanish,13 or older,"no, only English or Spanish",yes,2025-07-23_21h37.44.159,empathy_intonation_perc_control,2024.2.4,Win32,59.88023952,678b1abe0f20e54366473439,68817205a84113384fffdfe3,68818e2bc8294464aa87f213,,,,,,,,,,,,,1,,,,,,,,,,,,,,,,,,,,,,,,,,,,,,,,,,,,,69,engatusar,,,,,487.0473,488.7619,0,0,1.1674,,0,83,83,68,1,REAL,FAKE,,,,,,,,,,,,,,,,,
,,,,,,,,,678b1abe0f20e54366473439,Spanish,13 or older,"no, only English or Spanish",yes,2025-07-23_21h37.44.159,empathy_intonation_perc_control,2024.2.4,Win32,59.88023952,678b1abe0f20e54366473439,68817205a84113384fffdfe3,68818e2bc8294464aa87f213,,,,,,,,,,,,,1,,,,,,,,,,,,,,,,,,,,,,,,,,,,,,,,,,,,,54,fomentar,,,,,488.7625,490.6432,1,1,1.3355,,0,84,84,53,1,REAL,FAKE,,,,,,,,,,,,,,,,,
,,,,,,,,,678b1abe0f20e54366473439,Spanish,13 or older,"no, only English or Spanish",yes,2025-07-23_21h37.44.159,empathy_intonation_perc_control,2024.2.4,Win32,59.88023952,678b1abe0f20e54366473439,68817205a84113384fffdfe3,68818e2bc8294464aa87f213,,,,,,,,,,,,,1,,,,,,,,,,,,,,,,,,,,,,,,,,,,,,,,,,,,,65,bizcocho,,,,,490.644,492.7412,1,1,1.5635,,0,85,85,64,1,REAL,FAKE,,,,,,,,,,,,,,,,,
,,,,,,,,,678b1abe0f20e54366473439,Spanish,13 or older,"no, only English or Spanish",yes,2025-07-23_21h37.44.159,empathy_intonation_perc_control,2024.2.4,Win32,59.88023952,678b1abe0f20e54366473439,68817205a84113384fffdfe3,68818e2bc8294464aa87f213,,,,,,,,,,,,,1,,,,,,,,,,,,,,,,,,,,,,,,,,,,,,,,,,,,,75,yacer,,,,,492.7418,494.4398,0,0,1.1584,,0,86,86,74,1,REAL,FAKE,,,,,,,,,,,,,,,,,
,,,,,,,,,678b1abe0f20e54366473439,Spanish,13 or older,"no, only English or Spanish",yes,2025-07-23_21h37.44.159,empathy_intonation_perc_control,2024.2.4,Win32,59.88023952,678b1abe0f20e54366473439,68817205a84113384fffdfe3,68818e2bc8294464aa87f213,,,,,,,,,,,,,1,,,,,,,,,,,,,,,,,,,,,,,,,,,,,,,,,,,,,15,regar,,,,,494.4403,496.0715,0,0,1.0835,,0,87,87,14,1,REAL,FAKE,,,,,,,,,,,,,,,,,
,,,,,,,,,678b1abe0f20e54366473439,Spanish,13 or older,"no, only English or Spanish",yes,2025-07-23_21h37.44.159,empathy_intonation_perc_control,2024.2.4,Win32,59.88023952,678b1abe0f20e54366473439,68817205a84113384fffdfe3,68818e2bc8294464aa87f213,,,,,,,,,,,,,1,,,,,,,,,,,,,,,,,,,,,,,,,,,,,,,,,,,,,45,jilguero,,,,,496.0721,498.1027,0,0,1.4835,,0,88,88,44,1,REAL,FAKE,,,,,,,,,,,,,,,,,
,,,,,,,,,678b1abe0f20e54366473439,Spanish,13 or older,"no, only English or Spanish",yes,2025-07-23_21h37.44.159,empathy_intonation_perc_control,2024.2.4,Win32,59.88023952,678b1abe0f20e54366473439,68817205a84113384fffdfe3,68818e2bc8294464aa87f213,,,,,,,,,,,,,1,,,,,,,,,,,,,,,,,,,,,,,,,,,,,,,,,,,,,78,frondoso,,,,,498.1034,499.7678,0,0,1.1186,,0,89,89,77,1,REAL,FAKE,,,,,,,,,,,,,,,,,
,,,,,,,,,678b1abe0f20e54366473439,Spanish,13 or older,"no, only English or Spanish",yes,2025-07-23_21h37.44.159,empathy_intonation_perc_control,2024.2.4,Win32,59.88023952,678b1abe0f20e54366473439,68817205a84113384fffdfe3,68818e2bc8294464aa87f213,,,,,,,,,,,,,1,,,,,,,,,,,,,,,,,,,,,,,,,,,,,,,,,,,,,6,tergiversar,,,,,499.7683,501.3993,0,0,1.1,,0,90,90,5,1,REAL,FAKE,,,,,,,,,,,,,,,,,
,,,,,,,,,678b1abe0f20e54366473439,Spanish,13 or older,"no, only English or Spanish",yes,2025-07-23_21h37.44.159,empathy_intonation_perc_control,2024.2.4,Win32,59.88023952,678b1abe0f20e54366473439,68817205a84113384fffdfe3,68818e2bc8294464aa87f213,,,,,,,,,,,,,1,,,,,,,,,,,,,,,,,,,,,,,,,,,,,,,,,,,,,13,helar,,,,,501.3999,504.0969,1,1,2.1517,,0,91,91,12,1,REAL,FAKE,,,,,,,,,,,,,,,,,
,,,,,,,,,678b1abe0f20e54366473439,Spanish,13 or older,"no, only English or Spanish",yes,2025-07-23_21h37.44.159,empathy_intonation_perc_control,2024.2.4,Win32,59.88023952,678b1abe0f20e54366473439,68817205a84113384fffdfe3,68818e2bc8294464aa87f213,,,,,,,,,,,,,,,,,,,,,,,,,,,,,,,,,,,,,,,,,,,,,,,,,,,,,,,,,,,,,,,,,,,,,504.0971,523.645,,,,,,,,,,,,,,,
,,,,,,,,,678b1abe0f20e54366473439,Spanish,13 or older,"no, only English or Spanish",yes,2025-07-23_21h37.44.159,empathy_intonation_perc_control,2024.2.4,Win32,59.88023952,678b1abe0f20e54366473439,68817205a84113384fffdfe3,68818e2bc8294464aa87f213,,,,,,,,,,,,,,,,,,,,,,,,,,,1,,,,,,,,,,,,,,,,,,,,,,,,,,,,,,,,,,,,,,,,,,,,523.6602,529.2054,strongly agree,0,0,0,0,1,I can easily tell if someone else wants to enter a conversation.,1,0,1,0,,
,,,,,,,,,678b1abe0f20e54366473439,Spanish,13 or older,"no, only English or Spanish",yes,2025-07-23_21h37.44.159,empathy_intonation_perc_control,2024.2.4,Win32,59.88023952,678b1abe0f20e54366473439,68817205a84113384fffdfe3,68818e2bc8294464aa87f213,,,,,,,,,,,,,,,,,,,,,,,,,,,2,,,,,,,,,,,,,,,,,,,,,,,,,,,,,,,,,,,,,,,,,,,,529.2073,536.3317,slightly agree,0,1,1,1,1,I prefer animals to humans.,0,1,0,0,,
,,,,,,,,,678b1abe0f20e54366473439,Spanish,13 or older,"no, only English or Spanish",yes,2025-07-23_21h37.44.159,empathy_intonation_perc_control,2024.2.4,Win32,59.88023952,678b1abe0f20e54366473439,68817205a84113384fffdfe3,68818e2bc8294464aa87f213,,,,,,,,,,,,,,,,,,,,,,,,,,,3,,,,,,,,,,,,,,,,,,,,,,,,,,,,,,,,,,,,,,,,,,,,536.3327,539.6787,slightly disagree,0,2,2,2,1,I try to keep up with the current trends and fashions.,0,1,0,0,,
,,,,,,,,,678b1abe0f20e54366473439,Spanish,13 or older,"no, only English or Spanish",yes,2025-07-23_21h37.44.159,empathy_intonation_perc_control,2024.2.4,Win32,59.88023952,678b1abe0f20e54366473439,68817205a84113384fffdfe3,68818e2bc8294464aa87f213,,,,,,,,,,,,,,,,,,,,,,,,,,,4,,,,,,,,,,,,,,,,,,,,,,,,,,,,,,,,,,,,,,,,,,,,539.6807,546.3053,strongly disagree,0,3,3,3,1,"I find it difficult to explain to others things that I understand easily,   when they don't understand it first time.",1,0,0,1,,
,,,,,,,,,678b1abe0f20e54366473439,Spanish,13 or older,"no, only English or Spanish",yes,2025-07-23_21h37.44.159,empathy_intonation_perc_control,2024.2.4,Win32,59.88023952,678b1abe0f20e54366473439,68817205a84113384fffdfe3,68818e2bc8294464aa87f213,,,,,,,,,,,,,,,,,,,,,,,,,,,5,,,,,,,,,,,,,,,,,,,,,,,,,,,,,,,,,,,,,,,,,,,,546.3063,548.9195,strongly agree,0,4,4,4,1,I dream most nights.,0,1,0,0,,
,,,,,,,,,678b1abe0f20e54366473439,Spanish,13 or older,"no, only English or Spanish",yes,2025-07-23_21h37.44.159,empathy_intonation_perc_control,2024.2.4,Win32,59.88023952,678b1abe0f20e54366473439,68817205a84113384fffdfe3,68818e2bc8294464aa87f213,,,,,,,,,,,,,,,,,,,,,,,,,,,6,,,,,,,,,,,,,,,,,,,,,,,,,,,,,,,,,,,,,,,,,,,,548.9208,551.1506,slightly agree,0,5,5,5,1,I really enjoy caring for other people.,1,0,1,0,,
,,,,,,,,,678b1abe0f20e54366473439,Spanish,13 or older,"no, only English or Spanish",yes,2025-07-23_21h37.44.159,empathy_intonation_perc_control,2024.2.4,Win32,59.88023952,678b1abe0f20e54366473439,68817205a84113384fffdfe3,68818e2bc8294464aa87f213,,,,,,,,,,,,,,,,,,,,,,,,,,,7,,,,,,,,,,,,,,,,,,,,,,,,,,,,,,,,,,,,,,,,,,,,551.1523,554.4476,slightly agree,0,6,6,6,1,I try to solve my own problems rather than discussing them with others.,0,1,0,0,,
,,,,,,,,,678b1abe0f20e54366473439,Spanish,13 or older,"no, only English or Spanish",yes,2025-07-23_21h37.44.159,empathy_intonation_perc_control,2024.2.4,Win32,59.88023952,678b1abe0f20e54366473439,68817205a84113384fffdfe3,68818e2bc8294464aa87f213,,,,,,,,,,,,,,,,,,,,,,,,,,,8,,,,,,,,,,,,,,,,,,,,,,,,,,,,,,,,,,,,,,,,,,,,554.4488,557.2613,slightly disagree,0,7,7,7,1,I find it hard to know what to do in a social situation.,1,0,0,1,,
,,,,,,,,,678b1abe0f20e54366473439,Spanish,13 or older,"no, only English or Spanish",yes,2025-07-23_21h37.44.159,empathy_intonation_perc_control,2024.2.4,Win32,59.88023952,678b1abe0f20e54366473439,68817205a84113384fffdfe3,68818e2bc8294464aa87f213,,,,,,,,,,,,,,,,,,,,,,,,,,,9,,,,,,,,,,,,,,,,,,,,,,,,,,,,,,,,,,,,,,,,,,,,557.2624,559.2096,strongly disagree,0,8,8,8,1,I am at my best first thing in the morning.,0,1,0,0,,
,,,,,,,,,678b1abe0f20e54366473439,Spanish,13 or older,"no, only English or Spanish",yes,2025-07-23_21h37.44.159,empathy_intonation_perc_control,2024.2.4,Win32,59.88023952,678b1abe0f20e54366473439,68817205a84113384fffdfe3,68818e2bc8294464aa87f213,,,,,,,,,,,,,,,,,,,,,,,,,,,10,,,,,,,,,,,,,,,,,,,,,,,,,,,,,,,,,,,,,,,,,,,,559.2116,562.5063,strongly disagree,0,9,9,9,1,People often tell me that I went too far in driving my point home in a discussion.,1,0,0,1,,
,,,,,,,,,678b1abe0f20e54366473439,Spanish,13 or older,"no, only English or Spanish",yes,2025-07-23_21h37.44.159,empathy_intonation_perc_control,2024.2.4,Win32,59.88023952,678b1abe0f20e54366473439,68817205a84113384fffdfe3,68818e2bc8294464aa87f213,,,,,,,,,,,,,,,,,,,,,,,,,,,11,,,,,,,,,,,,,,,,,,,,,,,,,,,,,,,,,,,,,,,,,,,,562.5072,568.1176,strongly disagree,0,10,10,10,1,It doesn't bother me too much if I am late meeting a friend.,1,0,0,1,,
,,,,,,,,,678b1abe0f20e54366473439,Spanish,13 or older,"no, only English or Spanish",yes,2025-07-23_21h37.44.159,empathy_intonation_perc_control,2024.2.4,Win32,59.88023952,678b1abe0f20e54366473439,68817205a84113384fffdfe3,68818e2bc8294464aa87f213,,,,,,,,,,,,,,,,,,,,,,,,,,,12,,,,,,,,,,,,,,,,,,,,,,,,,,,,,,,,,,,,,,,,,,,,568.1191,570.8314,strongly disagree,0,11,11,11,1,"Friendships and relationships are just too difficult, so I tend not to 
  bother with them.",1,0,0,1,,
,,,,,,,,,678b1abe0f20e54366473439,Spanish,13 or older,"no, only English or Spanish",yes,2025-07-23_21h37.44.159,empathy_intonation_perc_control,2024.2.4,Win32,59.88023952,678b1abe0f20e54366473439,68817205a84113384fffdfe3,68818e2bc8294464aa87f213,,,,,,,,,,,,,,,,,,,,,,,,,,,13,,,,,,,,,,,,,,,,,,,,,,,,,,,,,,,,,,,,,,,,,,,,570.8325,573.7286,slightly disagree,0,12,12,12,1,"I would never break a law, no matter how minor.",0,1,0,0,,
,,,,,,,,,678b1abe0f20e54366473439,Spanish,13 or older,"no, only English or Spanish",yes,2025-07-23_21h37.44.159,empathy_intonation_perc_control,2024.2.4,Win32,59.88023952,678b1abe0f20e54366473439,68817205a84113384fffdfe3,68818e2bc8294464aa87f213,,,,,,,,,,,,,,,,,,,,,,,,,,,14,,,,,,,,,,,,,,,,,,,,,,,,,,,,,,,,,,,,,,,,,,,,573.7297,578.1078,strongly disagree,0,13,13,13,1,I often find it difficult to judge if something is rude or polite.,1,0,0,1,,
,,,,,,,,,678b1abe0f20e54366473439,Spanish,13 or older,"no, only English or Spanish",yes,2025-07-23_21h37.44.159,empathy_intonation_perc_control,2024.2.4,Win32,59.88023952,678b1abe0f20e54366473439,68817205a84113384fffdfe3,68818e2bc8294464aa87f213,,,,,,,,,,,,,,,,,,,,,,,,,,,15,,,,,,,,,,,,,,,,,,,,,,,,,,,,,,,,,,,,,,,,,,,,578.1092,586.6663,slightly disagree,0,14,14,14,1,"In a conversation, I tend to focus on my own thoughts rather than on what 
  my listener might be thinking.",1,0,0,1,,
,,,,,,,,,678b1abe0f20e54366473439,Spanish,13 or older,"no, only English or Spanish",yes,2025-07-23_21h37.44.159,empathy_intonation_perc_control,2024.2.4,Win32,59.88023952,678b1abe0f20e54366473439,68817205a84113384fffdfe3,68818e2bc8294464aa87f213,,,,,,,,,,,,,,,,,,,,,,,,,,,16,,,,,,,,,,,,,,,,,,,,,,,,,,,,,,,,,,,,,,,,,,,,586.6672,590.9453,strongly disagree,0,15,15,15,1,I prefer practical jokes to verbal humor.,0,1,0,0,,
,,,,,,,,,678b1abe0f20e54366473439,Spanish,13 or older,"no, only English or Spanish",yes,2025-07-23_21h37.44.159,empathy_intonation_perc_control,2024.2.4,Win32,59.88023952,678b1abe0f20e54366473439,68817205a84113384fffdfe3,68818e2bc8294464aa87f213,,,,,,,,,,,,,,,,,,,,,,,,,,,17,,,,,,,,,,,,,,,,,,,,,,,,,,,,,,,,,,,,,,,,,,,,590.9464,594.242,slightly agree,0,16,16,16,1,I live life for today rather than the future.,0,1,0,0,,
,,,,,,,,,678b1abe0f20e54366473439,Spanish,13 or older,"no, only English or Spanish",yes,2025-07-23_21h37.44.159,empathy_intonation_perc_control,2024.2.4,Win32,59.88023952,678b1abe0f20e54366473439,68817205a84113384fffdfe3,68818e2bc8294464aa87f213,,,,,,,,,,,,,,,,,,,,,,,,,,,18,,,,,,,,,,,,,,,,,,,,,,,,,,,,,,,,,,,,,,,,,,,,594.2435,597.5215,strongly disagree,0,17,17,17,1,"When I was a child, I enjoyed cutting up worms to see what would happen.",1,0,0,1,,
,,,,,,,,,678b1abe0f20e54366473439,Spanish,13 or older,"no, only English or Spanish",yes,2025-07-23_21h37.44.159,empathy_intonation_perc_control,2024.2.4,Win32,59.88023952,678b1abe0f20e54366473439,68817205a84113384fffdfe3,68818e2bc8294464aa87f213,,,,,,,,,,,,,,,,,,,,,,,,,,,19,,,,,,,,,,,,,,,,,,,,,,,,,,,,,,,,,,,,,,,,,,,,597.5224,601.8844,slightly agree,0,18,18,18,1,I can pick up quickly if someone says one thing but means another.,1,0,1,0,,
,,,,,,,,,678b1abe0f20e54366473439,Spanish,13 or older,"no, only English or Spanish",yes,2025-07-23_21h37.44.159,empathy_intonation_perc_control,2024.2.4,Win32,59.88023952,678b1abe0f20e54366473439,68817205a84113384fffdfe3,68818e2bc8294464aa87f213,,,,,,,,,,,,,,,,,,,,,,,,,,,20,,,,,,,,,,,,,,,,,,,,,,,,,,,,,,,,,,,,,,,,,,,,601.8853,605.3643,strongly agree,0,19,19,19,1,I tend to have very strong opinions about morality.,0,1,0,0,,
,,,,,,,,,678b1abe0f20e54366473439,Spanish,13 or older,"no, only English or Spanish",yes,2025-07-23_21h37.44.159,empathy_intonation_perc_control,2024.2.4,Win32,59.88023952,678b1abe0f20e54366473439,68817205a84113384fffdfe3,68818e2bc8294464aa87f213,,,,,,,,,,,,,,,,,,,,,,,,,,,21,,,,,,,,,,,,,,,,,,,,,,,,,,,,,,,,,,,,,,,,,,,,605.3655,609.893,slightly disagree,0,20,20,20,1,It is hard for me to see why some things upset people so much.,1,0,0,1,,
,,,,,,,,,678b1abe0f20e54366473439,Spanish,13 or older,"no, only English or Spanish",yes,2025-07-23_21h37.44.159,empathy_intonation_perc_control,2024.2.4,Win32,59.88023952,678b1abe0f20e54366473439,68817205a84113384fffdfe3,68818e2bc8294464aa87f213,,,,,,,,,,,,,,,,,,,,,,,,,,,22,,,,,,,,,,,,,,,,,,,,,,,,,,,,,,,,,,,,,,,,,,,,609.8937,613.0068,strongly agree,0,21,21,21,1,I find it easy to put myself in somebody else's shoes.,1,0,1,0,,
,,,,,,,,,678b1abe0f20e54366473439,Spanish,13 or older,"no, only English or Spanish",yes,2025-07-23_21h37.44.159,empathy_intonation_perc_control,2024.2.4,Win32,59.88023952,678b1abe0f20e54366473439,68817205a84113384fffdfe3,68818e2bc8294464aa87f213,,,,,,,,,,,,,,,,,,,,,,,,,,,23,,,,,,,,,,,,,,,,,,,,,,,,,,,,,,,,,,,,,,,,,,,,613.0077,617.8186,slightly disagree,0,22,22,22,1,I think that good manners are the most important thing a parent can teach their child.,0,1,0,0,,
,,,,,,,,,678b1abe0f20e54366473439,Spanish,13 or older,"no, only English or Spanish",yes,2025-07-23_21h37.44.159,empathy_intonation_perc_control,2024.2.4,Win32,59.88023952,678b1abe0f20e54366473439,68817205a84113384fffdfe3,68818e2bc8294464aa87f213,,,,,,,,,,,,,,,,,,,,,,,,,,,24,,,,,,,,,,,,,,,,,,,,,,,,,,,,,,,,,,,,,,,,,,,,617.8197,620.3665,slightly disagree,0,23,23,23,1,I like to do things on the spur of the moment.,0,1,0,0,,
