instructions_2afc.started,instructions_2afc.stopped,instructions_2afc_loop.thisRepN,instructions_2afc_loop.thisTrialN,instructions_2afc_loop.thisN,instructions_2afc_loop.thisIndex,instructions_2afc_loop.ran,instructions_text,continue_text,participant_id,"What variety of Spanish are you most familiar with? (e.g., Peruvian, Spanish, Mexican)",At what age did you begin learning Spanish?,Are you proficient in any languages other than English/Spanish?,"Are you familiar with Caribbean (e.g., Caribbean, Puerto Rican) or Galician Spanish?",date,expName,psychopyVersion,OS,frameRate,id,study_id,session,practice_2afc.started,practice_2afc.stopped,key_resp_2afc_practice.keys,key_resp_2afc_practice.corr,key_resp_2afc_practice.rt,key_resp_2afc_practice.duration,trials_2afc_practice_loop.thisRepN,trials_2afc_practice_loop.thisTrialN,trials_2afc_practice_loop.thisN,trials_2afc_practice_loop.thisIndex,trials_2afc_practice_loop.ran,path,correct_response,check_2afc.started,check_2afc.stopped,trial_2afc.started,trial_2afc.stopped,key_resp_2afc_trial.keys,key_resp_2afc_trial.corr,key_resp_2afc_trial.rt,key_resp_2afc_trial.duration,trials_2afc_loop.thisRepN,trials_2afc_loop.thisTrialN,trials_2afc_loop.thisN,trials_2afc_loop.thisIndex,trials_2afc_loop.ran,item_num,target,variety,instructions_lextale.started,instructions_lextale.stopped,instructions_lextale_loop.thisRepN,instructions_lextale_loop.thisTrialN,instructions_lextale_loop.thisN,instructions_lextale_loop.thisIndex,instructions_lextale_loop.ran,practice_lextale.started,practice_lextale.stopped,key_resp_lextale_practice.keys,key_resp_lextale_practice.corr,key_resp_lextale_practice.rt,key_resp_lextale_practice.duration,practice_feedback_lextale.started,practice_feedback_lextale.stopped,trials_lextale_practice_loop.thisRepN,trials_lextale_practice_loop.thisTrialN,trials_lextale_practice_loop.thisN,trials_lextale_practice_loop.thisIndex,trials_lextale_practice_loop.ran,stim,word,prac_button_real,prac_button_false,check_lextale.started,check_lextale.stopped,trial_lextale.started,trial_lextale.stopped,key_resp_lextale_trial.keys,key_resp_lextale_trial.corr,key_resp_lextale_trial.rt,key_resp_lextale_trial.duration,trials_lextale_loop.thisRepN,trials_lextale_loop.thisTrialN,trials_lextale_loop.thisN,trials_lextale_loop.thisIndex,trials_lextale_loop.ran,button_real,button_false,instructions_eq.started,instructions_eq.stopped,trial_eq.started,trial_eq.stopped,slider_eq_trial.response,trials_eq_loop.thisRepN,trials_eq_loop.thisTrialN,trials_eq_loop.thisN,trials_eq_loop.thisIndex,trials_eq_loop.ran,item,is_test_item,is_distractor,is_agree_score,is_disagree_score,end_exp.started,end_exp.stopped
0.046,6.8761,0,0,0,0,1,"In the following task you are going to hear a series of utterances. 

  You will decide if the utterances sound like questions or not using your keyboard.", (press the spacebar to continue),678e69996debb07354f037ed,Spanish,13 or older,"no, only English or Spanish",yes,2025-07-23_21h35.03.411,empathy_intonation_perc_control,2024.2.4,Win32,59.17159763,678e69996debb07354f037ed,68817205a84113384fffdfe3,68818d99fff696cda2c2aa9f,,,,,,,,,,,,,,,,,,,,,,,,,,,,,,,,,,,,,,,,,,,,,,,,,,,,,,,,,,,,,,,,,,,,,,,,,,,,,,,,,,,,,
6.885,11.2321,0,1,1,1,1,"If you believe the utterance is a question, type '1' (for 'yes') and if you do not 
  believe it is a question type '0' (for 'no').

  Let's practice a bit...", (press the spacebar to continue),678e69996debb07354f037ed,Spanish,13 or older,"no, only English or Spanish",yes,2025-07-23_21h35.03.411,empathy_intonation_perc_control,2024.2.4,Win32,59.17159763,678e69996debb07354f037ed,68817205a84113384fffdfe3,68818d99fff696cda2c2aa9f,,,,,,,,,,,,,,,,,,,,,,,,,,,,,,,,,,,,,,,,,,,,,,,,,,,,,,,,,,,,,,,,,,,,,,,,,,,,,,,,,,,,,
,,,,,,,,,678e69996debb07354f037ed,Spanish,13 or older,"no, only English or Spanish",yes,2025-07-23_21h35.03.411,empathy_intonation_perc_control,2024.2.4,Win32,59.17159763,678e69996debb07354f037ed,68817205a84113384fffdfe3,68818d99fff696cda2c2aa9f,11.257,18.5422,0,1,6.7714,,0,0,0,7,1,./stim/wavs/puertorican_statement_filler_La-nina-pinta-con-su-amiga.wav,0,,,,,,,,,,,,,,,,,,,,,,,,,,,,,,,,,,,,,,,,,,,,,,,,,,,,,,,,,,,,,,,,,,,,,,,,
,,,,,,,,,678e69996debb07354f037ed,Spanish,13 or older,"no, only English or Spanish",yes,2025-07-23_21h35.03.411,empathy_intonation_perc_control,2024.2.4,Win32,59.17159763,678e69996debb07354f037ed,68817205a84113384fffdfe3,68818d99fff696cda2c2aa9f,18.5441,21.8742,1,1,2.8036,,0,1,1,1,1,./stim/wavs/argentine_question_filler_Mi-vecino-habla-mucho.wav,1,,,,,,,,,,,,,,,,,,,,,,,,,,,,,,,,,,,,,,,,,,,,,,,,,,,,,,,,,,,,,,,,,,,,,,,,
,,,,,,,,,678e69996debb07354f037ed,Spanish,13 or older,"no, only English or Spanish",yes,2025-07-23_21h35.03.411,empathy_intonation_perc_control,2024.2.4,Win32,59.17159763,678e69996debb07354f037ed,68817205a84113384fffdfe3,68818d99fff696cda2c2aa9f,21.8754,24.4407,1,1,2.0368,,0,2,2,0,1,./stim/wavs/castilian_question_filler_Mi-esposo-conoce-al-chico.wav,1,,,,,,,,,,,,,,,,,,,,,,,,,,,,,,,,,,,,,,,,,,,,,,,,,,,,,,,,,,,,,,,,,,,,,,,,
,,,,,,,,,678e69996debb07354f037ed,Spanish,13 or older,"no, only English or Spanish",yes,2025-07-23_21h35.03.411,empathy_intonation_perc_control,2024.2.4,Win32,59.17159763,678e69996debb07354f037ed,68817205a84113384fffdfe3,68818d99fff696cda2c2aa9f,24.4414,26.8915,1,1,1.9168,,0,3,3,3,1,./stim/wavs/mexican_question_filler_Felipe-no-tiene-contrasena.wav,1,,,,,,,,,,,,,,,,,,,,,,,,,,,,,,,,,,,,,,,,,,,,,,,,,,,,,,,,,,,,,,,,,,,,,,,,
,,,,,,,,,678e69996debb07354f037ed,Spanish,13 or older,"no, only English or Spanish",yes,2025-07-23_21h35.03.411,empathy_intonation_perc_control,2024.2.4,Win32,59.17159763,678e69996debb07354f037ed,68817205a84113384fffdfe3,68818d99fff696cda2c2aa9f,26.8927,29.6575,0,0,2.2379,,0,4,4,2,1,./stim/wavs/chilean_question_filler_Mi-padre-cantaba-bien.wav,1,,,,,,,,,,,,,,,,,,,,,,,,,,,,,,,,,,,,,,,,,,,,,,,,,,,,,,,,,,,,,,,,,,,,,,,,
,,,,,,,,,678e69996debb07354f037ed,Spanish,13 or older,"no, only English or Spanish",yes,2025-07-23_21h35.03.411,empathy_intonation_perc_control,2024.2.4,Win32,59.17159763,678e69996debb07354f037ed,68817205a84113384fffdfe3,68818d99fff696cda2c2aa9f,29.6584,32.1412,0,1,1.954,,0,5,5,4,1,./stim/wavs/cuban_statement_filler_Cocinabas-por-la-noche.wav,0,,,,,,,,,,,,,,,,,,,,,,,,,,,,,,,,,,,,,,,,,,,,,,,,,,,,,,,,,,,,,,,,,,,,,,,,
,,,,,,,,,678e69996debb07354f037ed,Spanish,13 or older,"no, only English or Spanish",yes,2025-07-23_21h35.03.411,empathy_intonation_perc_control,2024.2.4,Win32,59.17159763,678e69996debb07354f037ed,68817205a84113384fffdfe3,68818d99fff696cda2c2aa9f,32.1427,34.908,0,1,2.2365,,0,6,6,6,1,./stim/wavs/peruvian_statement_filler_El-nino-habla-con-su-madre.wav,0,,,,,,,,,,,,,,,,,,,,,,,,,,,,,,,,,,,,,,,,,,,,,,,,,,,,,,,,,,,,,,,,,,,,,,,,
,,,,,,,,,678e69996debb07354f037ed,Spanish,13 or older,"no, only English or Spanish",yes,2025-07-23_21h35.03.411,empathy_intonation_perc_control,2024.2.4,Win32,59.17159763,678e69996debb07354f037ed,68817205a84113384fffdfe3,68818d99fff696cda2c2aa9f,34.9092,37.3249,0,1,1.8944,,0,7,7,5,1,./stim/wavs/andalusian_statement_filler_Alberto-nunca-se-afeita.wav,0,,,,,,,,,,,,,,,,,,,,,,,,,,,,,,,,,,,,,,,,,,,,,,,,,,,,,,,,,,,,,,,,,,,,,,,,
,,,,,,,,,678e69996debb07354f037ed,Spanish,13 or older,"no, only English or Spanish",yes,2025-07-23_21h35.03.411,empathy_intonation_perc_control,2024.2.4,Win32,59.17159763,678e69996debb07354f037ed,68817205a84113384fffdfe3,68818d99fff696cda2c2aa9f,,,,,,,,,,,,,,37.3257,40.5582,,,,,,,,,,,,,,,,,,,,,,,,,,,,,,,,,,,,,,,,,,,,,,,,,,,,,,,,,,,,,,,,,,,,,,
,,,,,,,,,678e69996debb07354f037ed,Spanish,13 or older,"no, only English or Spanish",yes,2025-07-23_21h35.03.411,empathy_intonation_perc_control,2024.2.4,Win32,59.17159763,678e69996debb07354f037ed,68817205a84113384fffdfe3,68818d99fff696cda2c2aa9f,,,,,,,,,,,,./stim/wavs/castilian_mismatch_interrogative-total-yn_Mi-madre-come-la-fruta.wav,1,,,40.5713,42.8754,1,1,1.7833,,0,0,0,26,1,27,0,castilian,,,,,,,,,,,,,,,,,,,,,,,,,,,,,,,,,,,,,,,,,,,,,,,,,,,,,,,,
,,,,,,,,,678e69996debb07354f037ed,Spanish,13 or older,"no, only English or Spanish",yes,2025-07-23_21h35.03.411,empathy_intonation_perc_control,2024.2.4,Win32,59.17159763,678e69996debb07354f037ed,68817205a84113384fffdfe3,68818d99fff696cda2c2aa9f,,,,,,,,,,,,./stim/wavs/mexican_mismatch_declarative-broad-focus_La-maestra-vive-en-Paris.wav,0,,,42.8763,45.2582,0,1,1.8533,,0,1,1,80,1,81,0,mexican,,,,,,,,,,,,,,,,,,,,,,,,,,,,,,,,,,,,,,,,,,,,,,,,,,,,,,,,
,,,,,,,,,678e69996debb07354f037ed,Spanish,13 or older,"no, only English or Spanish",yes,2025-07-23_21h35.03.411,empathy_intonation_perc_control,2024.2.4,Win32,59.17159763,678e69996debb07354f037ed,68817205a84113384fffdfe3,68818d99fff696cda2c2aa9f,,,,,,,,,,,,./stim/wavs/cuban_match_declarative-broad-focus_Mariano-habla-del-tiempo.wav,0,,,45.2588,47.7423,0,1,1.9612,,0,2,2,54,1,55,0,cuban,,,,,,,,,,,,,,,,,,,,,,,,,,,,,,,,,,,,,,,,,,,,,,,,,,,,,,,,
,,,,,,,,,678e69996debb07354f037ed,Spanish,13 or older,"no, only English or Spanish",yes,2025-07-23_21h35.03.411,empathy_intonation_perc_control,2024.2.4,Win32,59.17159763,678e69996debb07354f037ed,68817205a84113384fffdfe3,68818d99fff696cda2c2aa9f,,,,,,,,,,,,./stim/wavs/castilian_match_declarative-broad-focus_Maria-bebe-el-vino.wav,0,,,47.7433,49.975,0,1,1.7005,,0,3,3,47,1,48,0,castilian,,,,,,,,,,,,,,,,,,,,,,,,,,,,,,,,,,,,,,,,,,,,,,,,,,,,,,,,
,,,,,,,,,678e69996debb07354f037ed,Spanish,13 or older,"no, only English or Spanish",yes,2025-07-23_21h35.03.411,empathy_intonation_perc_control,2024.2.4,Win32,59.17159763,678e69996debb07354f037ed,68817205a84113384fffdfe3,68818d99fff696cda2c2aa9f,,,,,,,,,,,,./stim/wavs/cuban_match_declarative-broad-focus_Maria-bebe-el-vino.wav,0,,,49.9759,51.9753,0,1,1.4781,,0,4,4,53,1,54,0,cuban,,,,,,,,,,,,,,,,,,,,,,,,,,,,,,,,,,,,,,,,,,,,,,,,,,,,,,,,
,,,,,,,,,678e69996debb07354f037ed,Spanish,13 or older,"no, only English or Spanish",yes,2025-07-23_21h35.03.411,empathy_intonation_perc_control,2024.2.4,Win32,59.17159763,678e69996debb07354f037ed,68817205a84113384fffdfe3,68818d99fff696cda2c2aa9f,,,,,,,,,,,,./stim/wavs/cuban_match_declarative-broad-focus_Marta-abre-el-regalo.wav,0,,,51.9758,54.1424,0,1,1.632,,0,5,5,55,1,56,0,cuban,,,,,,,,,,,,,,,,,,,,,,,,,,,,,,,,,,,,,,,,,,,,,,,,,,,,,,,,
,,,,,,,,,678e69996debb07354f037ed,Spanish,13 or older,"no, only English or Spanish",yes,2025-07-23_21h35.03.411,empathy_intonation_perc_control,2024.2.4,Win32,59.17159763,678e69996debb07354f037ed,68817205a84113384fffdfe3,68818d99fff696cda2c2aa9f,,,,,,,,,,,,./stim/wavs/castilian_match_interrogative-total-yn_Emilio-ama-la-marcha.wav,1,,,54.1435,56.5587,1,1,1.8864,,0,6,6,1,1,2,0,castilian,,,,,,,,,,,,,,,,,,,,,,,,,,,,,,,,,,,,,,,,,,,,,,,,,,,,,,,,
,,,,,,,,,678e69996debb07354f037ed,Spanish,13 or older,"no, only English or Spanish",yes,2025-07-23_21h35.03.411,empathy_intonation_perc_control,2024.2.4,Win32,59.17159763,678e69996debb07354f037ed,68817205a84113384fffdfe3,68818d99fff696cda2c2aa9f,,,,,,,,,,,,./stim/wavs/mexican_mismatch_interrogative-total-yn_El-hombre-mira-la-luna.wav,1,,,56.5592,58.4588,1,1,1.3751,,0,7,7,34,1,35,0,mexican,,,,,,,,,,,,,,,,,,,,,,,,,,,,,,,,,,,,,,,,,,,,,,,,,,,,,,,,
,,,,,,,,,678e69996debb07354f037ed,Spanish,13 or older,"no, only English or Spanish",yes,2025-07-23_21h35.03.411,empathy_intonation_perc_control,2024.2.4,Win32,59.17159763,678e69996debb07354f037ed,68817205a84113384fffdfe3,68818d99fff696cda2c2aa9f,,,,,,,,,,,,./stim/wavs/mexican_match_interrogative-total-yn_Emilio-ama-la-marcha.wav,1,,,58.4592,60.4923,1,1,1.5062,,0,8,8,15,1,16,0,mexican,,,,,,,,,,,,,,,,,,,,,,,,,,,,,,,,,,,,,,,,,,,,,,,,,,,,,,,,
,,,,,,,,,678e69996debb07354f037ed,Spanish,13 or older,"no, only English or Spanish",yes,2025-07-23_21h35.03.411,empathy_intonation_perc_control,2024.2.4,Win32,59.17159763,678e69996debb07354f037ed,68817205a84113384fffdfe3,68818d99fff696cda2c2aa9f,,,,,,,,,,,,./stim/wavs/cuban_mismatch_interrogative-total-yn_El-hombre-mira-la-luna.wav,1,,,60.4929,62.6596,1,1,1.6401,,0,9,9,29,1,30,1,cuban,,,,,,,,,,,,,,,,,,,,,,,,,,,,,,,,,,,,,,,,,,,,,,,,,,,,,,,,
,,,,,,,,,678e69996debb07354f037ed,Spanish,13 or older,"no, only English or Spanish",yes,2025-07-23_21h35.03.411,empathy_intonation_perc_control,2024.2.4,Win32,59.17159763,678e69996debb07354f037ed,68817205a84113384fffdfe3,68818d99fff696cda2c2aa9f,,,,,,,,,,,,./stim/wavs/puertorican_mismatch_declarative-broad-focus_La-maestra-vive-en-Paris.wav,0,,,62.6609,65.5258,0,1,2.3341,,0,10,10,86,1,87,0,puertorican,,,,,,,,,,,,,,,,,,,,,,,,,,,,,,,,,,,,,,,,,,,,,,,,,,,,,,,,
,,,,,,,,,678e69996debb07354f037ed,Spanish,13 or older,"no, only English or Spanish",yes,2025-07-23_21h35.03.411,empathy_intonation_perc_control,2024.2.4,Win32,59.17159763,678e69996debb07354f037ed,68817205a84113384fffdfe3,68818d99fff696cda2c2aa9f,,,,,,,,,,,,./stim/wavs/mexican_match_declarative-broad-focus_David-leia-el-libro.wav,0,,,65.5264,67.6091,0,1,1.5501,,0,11,11,58,1,59,0,mexican,,,,,,,,,,,,,,,,,,,,,,,,,,,,,,,,,,,,,,,,,,,,,,,,,,,,,,,,
,,,,,,,,,678e69996debb07354f037ed,Spanish,13 or older,"no, only English or Spanish",yes,2025-07-23_21h35.03.411,empathy_intonation_perc_control,2024.2.4,Win32,59.17159763,678e69996debb07354f037ed,68817205a84113384fffdfe3,68818d99fff696cda2c2aa9f,,,,,,,,,,,,./stim/wavs/puertorican_match_declarative-broad-focus_Daniel-iba-a-Bolivia.wav,0,,,67.6097,69.9093,0,1,1.7669,,0,12,12,63,1,64,0,puertorican,,,,,,,,,,,,,,,,,,,,,,,,,,,,,,,,,,,,,,,,,,,,,,,,,,,,,,,,
,,,,,,,,,678e69996debb07354f037ed,Spanish,13 or older,"no, only English or Spanish",yes,2025-07-23_21h35.03.411,empathy_intonation_perc_control,2024.2.4,Win32,59.17159763,678e69996debb07354f037ed,68817205a84113384fffdfe3,68818d99fff696cda2c2aa9f,,,,,,,,,,,,./stim/wavs/mexican_match_interrogative-total-yn_Marta-abre-el-regalo.wav,1,,,69.9097,71.9094,1,1,1.4767,,0,13,13,17,1,18,0,mexican,,,,,,,,,,,,,,,,,,,,,,,,,,,,,,,,,,,,,,,,,,,,,,,,,,,,,,,,
,,,,,,,,,678e69996debb07354f037ed,Spanish,13 or older,"no, only English or Spanish",yes,2025-07-23_21h35.03.411,empathy_intonation_perc_control,2024.2.4,Win32,59.17159763,678e69996debb07354f037ed,68817205a84113384fffdfe3,68818d99fff696cda2c2aa9f,,,,,,,,,,,,./stim/wavs/castilian_match_interrogative-total-yn_Maria-bebe-el-vino.wav,1,,,71.9097,73.8595,1,1,1.4241,,0,14,14,3,1,4,0,castilian,,,,,,,,,,,,,,,,,,,,,,,,,,,,,,,,,,,,,,,,,,,,,,,,,,,,,,,,
,,,,,,,,,678e69996debb07354f037ed,Spanish,13 or older,"no, only English or Spanish",yes,2025-07-23_21h35.03.411,empathy_intonation_perc_control,2024.2.4,Win32,59.17159763,678e69996debb07354f037ed,68817205a84113384fffdfe3,68818d99fff696cda2c2aa9f,,,,,,,,,,,,./stim/wavs/puertorican_match_declarative-broad-focus_Ana-lleva-el-abrigo.wav,0,,,73.8602,76.0443,0,1,1.6594,,0,15,15,62,1,63,0,puertorican,,,,,,,,,,,,,,,,,,,,,,,,,,,,,,,,,,,,,,,,,,,,,,,,,,,,,,,,
,,,,,,,,,678e69996debb07354f037ed,Spanish,13 or older,"no, only English or Spanish",yes,2025-07-23_21h35.03.411,empathy_intonation_perc_control,2024.2.4,Win32,59.17159763,678e69996debb07354f037ed,68817205a84113384fffdfe3,68818d99fff696cda2c2aa9f,,,,,,,,,,,,./stim/wavs/cuban_mismatch_interrogative-total-yn_Mi-madre-come-la-fruta.wav,1,,,76.0453,78.2263,1,1,1.6505,,0,16,16,31,1,32,1,cuban,,,,,,,,,,,,,,,,,,,,,,,,,,,,,,,,,,,,,,,,,,,,,,,,,,,,,,,,
,,,,,,,,,678e69996debb07354f037ed,Spanish,13 or older,"no, only English or Spanish",yes,2025-07-23_21h35.03.411,empathy_intonation_perc_control,2024.2.4,Win32,59.17159763,678e69996debb07354f037ed,68817205a84113384fffdfe3,68818d99fff696cda2c2aa9f,,,,,,,,,,,,./stim/wavs/castilian_mismatch_interrogative-total-yn_Mi-novio-viene-del-lago.wav,1,,,78.2271,80.4601,1,1,1.7021,,0,17,17,27,1,28,0,castilian,,,,,,,,,,,,,,,,,,,,,,,,,,,,,,,,,,,,,,,,,,,,,,,,,,,,,,,,
,,,,,,,,,678e69996debb07354f037ed,Spanish,13 or older,"no, only English or Spanish",yes,2025-07-23_21h35.03.411,empathy_intonation_perc_control,2024.2.4,Win32,59.17159763,678e69996debb07354f037ed,68817205a84113384fffdfe3,68818d99fff696cda2c2aa9f,,,,,,,,,,,,./stim/wavs/puertorican_match_declarative-broad-focus_Emilio-ama-la-marcha.wav,0,,,80.4607,82.6103,0,1,1.6196,,0,18,18,65,1,66,0,puertorican,,,,,,,,,,,,,,,,,,,,,,,,,,,,,,,,,,,,,,,,,,,,,,,,,,,,,,,,
,,,,,,,,,678e69996debb07354f037ed,Spanish,13 or older,"no, only English or Spanish",yes,2025-07-23_21h35.03.411,empathy_intonation_perc_control,2024.2.4,Win32,59.17159763,678e69996debb07354f037ed,68817205a84113384fffdfe3,68818d99fff696cda2c2aa9f,,,,,,,,,,,,./stim/wavs/puertorican_match_declarative-broad-focus_Maria-bebe-el-vino.wav,0,,,82.6109,84.7269,1,0,1.5926,,0,19,19,67,1,68,0,puertorican,,,,,,,,,,,,,,,,,,,,,,,,,,,,,,,,,,,,,,,,,,,,,,,,,,,,,,,,
,,,,,,,,,678e69996debb07354f037ed,Spanish,13 or older,"no, only English or Spanish",yes,2025-07-23_21h35.03.411,empathy_intonation_perc_control,2024.2.4,Win32,59.17159763,678e69996debb07354f037ed,68817205a84113384fffdfe3,68818d99fff696cda2c2aa9f,,,,,,,,,,,,./stim/wavs/mexican_match_interrogative-total-yn_Ana-lleva-el-abrigo.wav,1,,,84.7278,86.7104,1,1,1.4517,,0,20,20,12,1,13,0,mexican,,,,,,,,,,,,,,,,,,,,,,,,,,,,,,,,,,,,,,,,,,,,,,,,,,,,,,,,
,,,,,,,,,678e69996debb07354f037ed,Spanish,13 or older,"no, only English or Spanish",yes,2025-07-23_21h35.03.411,empathy_intonation_perc_control,2024.2.4,Win32,59.17159763,678e69996debb07354f037ed,68817205a84113384fffdfe3,68818d99fff696cda2c2aa9f,,,,,,,,,,,,./stim/wavs/castilian_mismatch_declarative-broad-focus_La-nina-lava-el-plato.wav,0,,,86.7115,89.0768,0,1,1.8366,,0,21,21,70,1,71,0,castilian,,,,,,,,,,,,,,,,,,,,,,,,,,,,,,,,,,,,,,,,,,,,,,,,,,,,,,,,
,,,,,,,,,678e69996debb07354f037ed,Spanish,13 or older,"no, only English or Spanish",yes,2025-07-23_21h35.03.411,empathy_intonation_perc_control,2024.2.4,Win32,59.17159763,678e69996debb07354f037ed,68817205a84113384fffdfe3,68818d99fff696cda2c2aa9f,,,,,,,,,,,,./stim/wavs/castilian_match_declarative-broad-focus_Marta-abre-el-regalo.wav,0,,,89.0774,91.294,0,1,1.6833,,0,22,22,49,1,50,0,castilian,,,,,,,,,,,,,,,,,,,,,,,,,,,,,,,,,,,,,,,,,,,,,,,,,,,,,,,,
,,,,,,,,,678e69996debb07354f037ed,Spanish,13 or older,"no, only English or Spanish",yes,2025-07-23_21h35.03.411,empathy_intonation_perc_control,2024.2.4,Win32,59.17159763,678e69996debb07354f037ed,68817205a84113384fffdfe3,68818d99fff696cda2c2aa9f,,,,,,,,,,,,./stim/wavs/puertorican_mismatch_declarative-broad-focus_La-nina-lava-el-plato.wav,0,,,91.295,93.3943,0,1,1.5671,,0,23,23,87,1,88,0,puertorican,,,,,,,,,,,,,,,,,,,,,,,,,,,,,,,,,,,,,,,,,,,,,,,,,,,,,,,,
,,,,,,,,,678e69996debb07354f037ed,Spanish,13 or older,"no, only English or Spanish",yes,2025-07-23_21h35.03.411,empathy_intonation_perc_control,2024.2.4,Win32,59.17159763,678e69996debb07354f037ed,68817205a84113384fffdfe3,68818d99fff696cda2c2aa9f,,,,,,,,,,,,./stim/wavs/puertorican_mismatch_interrogative-total-yn_Mi-madre-come-la-fruta.wav,1,,,93.3954,95.3775,0,0,1.4494,,0,24,24,43,1,44,1,puertorican,,,,,,,,,,,,,,,,,,,,,,,,,,,,,,,,,,,,,,,,,,,,,,,,,,,,,,,,
,,,,,,,,,678e69996debb07354f037ed,Spanish,13 or older,"no, only English or Spanish",yes,2025-07-23_21h35.03.411,empathy_intonation_perc_control,2024.2.4,Win32,59.17159763,678e69996debb07354f037ed,68817205a84113384fffdfe3,68818d99fff696cda2c2aa9f,,,,,,,,,,,,./stim/wavs/cuban_match_interrogative-total-yn_Mariano-habla-del-tiempo.wav,1,,,95.3781,97.6439,1,1,1.7435,,0,25,25,10,1,11,1,cuban,,,,,,,,,,,,,,,,,,,,,,,,,,,,,,,,,,,,,,,,,,,,,,,,,,,,,,,,
,,,,,,,,,678e69996debb07354f037ed,Spanish,13 or older,"no, only English or Spanish",yes,2025-07-23_21h35.03.411,empathy_intonation_perc_control,2024.2.4,Win32,59.17159763,678e69996debb07354f037ed,68817205a84113384fffdfe3,68818d99fff696cda2c2aa9f,,,,,,,,,,,,./stim/wavs/castilian_mismatch_interrogative-total-yn_Mi-tia-odia-la-lluvia.wav,1,,,97.6448,99.744,1,1,1.5706,,0,26,26,28,1,29,0,castilian,,,,,,,,,,,,,,,,,,,,,,,,,,,,,,,,,,,,,,,,,,,,,,,,,,,,,,,,
,,,,,,,,,678e69996debb07354f037ed,Spanish,13 or older,"no, only English or Spanish",yes,2025-07-23_21h35.03.411,empathy_intonation_perc_control,2024.2.4,Win32,59.17159763,678e69996debb07354f037ed,68817205a84113384fffdfe3,68818d99fff696cda2c2aa9f,,,,,,,,,,,,./stim/wavs/mexican_match_declarative-broad-focus_Ana-lleva-el-abrigo.wav,0,,,99.7449,101.6773,0,1,1.4077,,0,27,27,56,1,57,0,mexican,,,,,,,,,,,,,,,,,,,,,,,,,,,,,,,,,,,,,,,,,,,,,,,,,,,,,,,,
,,,,,,,,,678e69996debb07354f037ed,Spanish,13 or older,"no, only English or Spanish",yes,2025-07-23_21h35.03.411,empathy_intonation_perc_control,2024.2.4,Win32,59.17159763,678e69996debb07354f037ed,68817205a84113384fffdfe3,68818d99fff696cda2c2aa9f,,,,,,,,,,,,./stim/wavs/puertorican_match_interrogative-total-yn_Manuela-vende-el-carro.wav,1,,,101.6777,103.6608,0,0,1.4558,,0,28,28,22,1,23,1,puertorican,,,,,,,,,,,,,,,,,,,,,,,,,,,,,,,,,,,,,,,,,,,,,,,,,,,,,,,,
,,,,,,,,,678e69996debb07354f037ed,Spanish,13 or older,"no, only English or Spanish",yes,2025-07-23_21h35.03.411,empathy_intonation_perc_control,2024.2.4,Win32,59.17159763,678e69996debb07354f037ed,68817205a84113384fffdfe3,68818d99fff696cda2c2aa9f,,,,,,,,,,,,./stim/wavs/cuban_mismatch_interrogative-total-yn_Mi-novio-viene-del-lago.wav,1,,,103.6613,105.8612,0,0,1.667,,0,29,29,32,1,33,1,cuban,,,,,,,,,,,,,,,,,,,,,,,,,,,,,,,,,,,,,,,,,,,,,,,,,,,,,,,,
,,,,,,,,,678e69996debb07354f037ed,Spanish,13 or older,"no, only English or Spanish",yes,2025-07-23_21h35.03.411,empathy_intonation_perc_control,2024.2.4,Win32,59.17159763,678e69996debb07354f037ed,68817205a84113384fffdfe3,68818d99fff696cda2c2aa9f,,,,,,,,,,,,./stim/wavs/cuban_mismatch_declarative-broad-focus_El-hombre-mira-la-luna.wav,0,,,105.8617,108.0777,0,1,1.684,,0,30,30,74,1,75,0,cuban,,,,,,,,,,,,,,,,,,,,,,,,,,,,,,,,,,,,,,,,,,,,,,,,,,,,,,,,
,,,,,,,,,678e69996debb07354f037ed,Spanish,13 or older,"no, only English or Spanish",yes,2025-07-23_21h35.03.411,empathy_intonation_perc_control,2024.2.4,Win32,59.17159763,678e69996debb07354f037ed,68817205a84113384fffdfe3,68818d99fff696cda2c2aa9f,,,,,,,,,,,,./stim/wavs/cuban_mismatch_declarative-broad-focus_Mi-novio-viene-del-lago.wav,0,,,108.0782,110.4112,0,1,1.8004,,0,31,31,76,1,77,0,cuban,,,,,,,,,,,,,,,,,,,,,,,,,,,,,,,,,,,,,,,,,,,,,,,,,,,,,,,,
,,,,,,,,,678e69996debb07354f037ed,Spanish,13 or older,"no, only English or Spanish",yes,2025-07-23_21h35.03.411,empathy_intonation_perc_control,2024.2.4,Win32,59.17159763,678e69996debb07354f037ed,68817205a84113384fffdfe3,68818d99fff696cda2c2aa9f,,,,,,,,,,,,./stim/wavs/mexican_mismatch_interrogative-total-yn_El-nino-oye-el-rio.wav,1,,,110.4119,112.4779,1,1,1.5332,,0,32,32,35,1,36,0,mexican,,,,,,,,,,,,,,,,,,,,,,,,,,,,,,,,,,,,,,,,,,,,,,,,,,,,,,,,
,,,,,,,,,678e69996debb07354f037ed,Spanish,13 or older,"no, only English or Spanish",yes,2025-07-23_21h35.03.411,empathy_intonation_perc_control,2024.2.4,Win32,59.17159763,678e69996debb07354f037ed,68817205a84113384fffdfe3,68818d99fff696cda2c2aa9f,,,,,,,,,,,,./stim/wavs/cuban_mismatch_declarative-broad-focus_La-nina-lava-el-plato.wav,0,,,112.4787,114.6114,0,1,1.5999,,0,33,33,75,1,76,0,cuban,,,,,,,,,,,,,,,,,,,,,,,,,,,,,,,,,,,,,,,,,,,,,,,,,,,,,,,,
,,,,,,,,,678e69996debb07354f037ed,Spanish,13 or older,"no, only English or Spanish",yes,2025-07-23_21h35.03.411,empathy_intonation_perc_control,2024.2.4,Win32,59.17159763,678e69996debb07354f037ed,68817205a84113384fffdfe3,68818d99fff696cda2c2aa9f,,,,,,,,,,,,./stim/wavs/cuban_match_interrogative-total-yn_Marta-abre-el-regalo.wav,1,,,114.6122,116.7788,1,1,1.635,,0,34,34,11,1,12,1,cuban,,,,,,,,,,,,,,,,,,,,,,,,,,,,,,,,,,,,,,,,,,,,,,,,,,,,,,,,
,,,,,,,,,678e69996debb07354f037ed,Spanish,13 or older,"no, only English or Spanish",yes,2025-07-23_21h35.03.411,empathy_intonation_perc_control,2024.2.4,Win32,59.17159763,678e69996debb07354f037ed,68817205a84113384fffdfe3,68818d99fff696cda2c2aa9f,,,,,,,,,,,,./stim/wavs/castilian_match_declarative-broad-focus_David-leia-el-libro.wav,0,,,116.7798,119.1953,0,1,1.887,,0,35,35,44,1,45,0,castilian,,,,,,,,,,,,,,,,,,,,,,,,,,,,,,,,,,,,,,,,,,,,,,,,,,,,,,,,
,,,,,,,,,678e69996debb07354f037ed,Spanish,13 or older,"no, only English or Spanish",yes,2025-07-23_21h35.03.411,empathy_intonation_perc_control,2024.2.4,Win32,59.17159763,678e69996debb07354f037ed,68817205a84113384fffdfe3,68818d99fff696cda2c2aa9f,,,,,,,,,,,,./stim/wavs/puertorican_mismatch_declarative-broad-focus_El-hombre-mira-la-luna.wav,0,,,119.196,121.4283,0,1,1.6989,,0,36,36,84,1,85,0,puertorican,,,,,,,,,,,,,,,,,,,,,,,,,,,,,,,,,,,,,,,,,,,,,,,,,,,,,,,,
,,,,,,,,,678e69996debb07354f037ed,Spanish,13 or older,"no, only English or Spanish",yes,2025-07-23_21h35.03.411,empathy_intonation_perc_control,2024.2.4,Win32,59.17159763,678e69996debb07354f037ed,68817205a84113384fffdfe3,68818d99fff696cda2c2aa9f,,,,,,,,,,,,./stim/wavs/mexican_mismatch_interrogative-total-yn_La-maestra-vive-en-Paris.wav,1,,,121.4288,123.6285,1,1,1.6836,,0,37,37,36,1,37,0,mexican,,,,,,,,,,,,,,,,,,,,,,,,,,,,,,,,,,,,,,,,,,,,,,,,,,,,,,,,
,,,,,,,,,678e69996debb07354f037ed,Spanish,13 or older,"no, only English or Spanish",yes,2025-07-23_21h35.03.411,empathy_intonation_perc_control,2024.2.4,Win32,59.17159763,678e69996debb07354f037ed,68817205a84113384fffdfe3,68818d99fff696cda2c2aa9f,,,,,,,,,,,,./stim/wavs/mexican_match_declarative-broad-focus_Emilio-ama-la-marcha.wav,0,,,123.6293,126.1787,0,1,2.018,,0,38,38,59,1,60,0,mexican,,,,,,,,,,,,,,,,,,,,,,,,,,,,,,,,,,,,,,,,,,,,,,,,,,,,,,,,
,,,,,,,,,678e69996debb07354f037ed,Spanish,13 or older,"no, only English or Spanish",yes,2025-07-23_21h35.03.411,empathy_intonation_perc_control,2024.2.4,Win32,59.17159763,678e69996debb07354f037ed,68817205a84113384fffdfe3,68818d99fff696cda2c2aa9f,,,,,,,,,,,,./stim/wavs/castilian_mismatch_declarative-broad-focus_Mi-tia-odia-la-lluvia.wav,0,,,126.1792,128.4118,1,0,1.7015,,0,39,39,72,1,73,0,castilian,,,,,,,,,,,,,,,,,,,,,,,,,,,,,,,,,,,,,,,,,,,,,,,,,,,,,,,,
,,,,,,,,,678e69996debb07354f037ed,Spanish,13 or older,"no, only English or Spanish",yes,2025-07-23_21h35.03.411,empathy_intonation_perc_control,2024.2.4,Win32,59.17159763,678e69996debb07354f037ed,68817205a84113384fffdfe3,68818d99fff696cda2c2aa9f,,,,,,,,,,,,./stim/wavs/cuban_match_interrogative-total-yn_Daniel-iba-a-Bolivia.wav,1,,,128.4125,130.9621,0,0,2.0194,,0,40,40,7,1,8,1,cuban,,,,,,,,,,,,,,,,,,,,,,,,,,,,,,,,,,,,,,,,,,,,,,,,,,,,,,,,
,,,,,,,,,678e69996debb07354f037ed,Spanish,13 or older,"no, only English or Spanish",yes,2025-07-23_21h35.03.411,empathy_intonation_perc_control,2024.2.4,Win32,59.17159763,678e69996debb07354f037ed,68817205a84113384fffdfe3,68818d99fff696cda2c2aa9f,,,,,,,,,,,,./stim/wavs/cuban_match_declarative-broad-focus_Daniel-iba-a-Bolivia.wav,0,,,130.9627,133.4288,0,1,1.9363,,0,41,41,51,1,52,0,cuban,,,,,,,,,,,,,,,,,,,,,,,,,,,,,,,,,,,,,,,,,,,,,,,,,,,,,,,,
,,,,,,,,,678e69996debb07354f037ed,Spanish,13 or older,"no, only English or Spanish",yes,2025-07-23_21h35.03.411,empathy_intonation_perc_control,2024.2.4,Win32,59.17159763,678e69996debb07354f037ed,68817205a84113384fffdfe3,68818d99fff696cda2c2aa9f,,,,,,,,,,,,./stim/wavs/mexican_match_declarative-broad-focus_Marta-abre-el-regalo.wav,0,,,133.4292,135.4458,0,1,1.4846,,0,42,42,61,1,62,0,mexican,,,,,,,,,,,,,,,,,,,,,,,,,,,,,,,,,,,,,,,,,,,,,,,,,,,,,,,,
,,,,,,,,,678e69996debb07354f037ed,Spanish,13 or older,"no, only English or Spanish",yes,2025-07-23_21h35.03.411,empathy_intonation_perc_control,2024.2.4,Win32,59.17159763,678e69996debb07354f037ed,68817205a84113384fffdfe3,68818d99fff696cda2c2aa9f,,,,,,,,,,,,./stim/wavs/puertorican_match_declarative-broad-focus_David-leia-el-libro.wav,0,,,135.4469,137.5456,0,1,1.5676,,0,43,43,64,1,65,0,puertorican,,,,,,,,,,,,,,,,,,,,,,,,,,,,,,,,,,,,,,,,,,,,,,,,,,,,,,,,
,,,,,,,,,678e69996debb07354f037ed,Spanish,13 or older,"no, only English or Spanish",yes,2025-07-23_21h35.03.411,empathy_intonation_perc_control,2024.2.4,Win32,59.17159763,678e69996debb07354f037ed,68817205a84113384fffdfe3,68818d99fff696cda2c2aa9f,,,,,,,,,,,,./stim/wavs/castilian_mismatch_declarative-broad-focus_El-nino-oye-el-rio.wav,0,,,137.5461,139.8457,0,1,1.7756,,0,44,44,68,1,69,0,castilian,,,,,,,,,,,,,,,,,,,,,,,,,,,,,,,,,,,,,,,,,,,,,,,,,,,,,,,,
,,,,,,,,,678e69996debb07354f037ed,Spanish,13 or older,"no, only English or Spanish",yes,2025-07-23_21h35.03.411,empathy_intonation_perc_control,2024.2.4,Win32,59.17159763,678e69996debb07354f037ed,68817205a84113384fffdfe3,68818d99fff696cda2c2aa9f,,,,,,,,,,,,./stim/wavs/castilian_match_declarative-broad-focus_Manuela-vende-el-carro.wav,0,,,139.8462,142.1457,0,1,1.7673,,0,45,45,46,1,47,0,castilian,,,,,,,,,,,,,,,,,,,,,,,,,,,,,,,,,,,,,,,,,,,,,,,,,,,,,,,,
,,,,,,,,,678e69996debb07354f037ed,Spanish,13 or older,"no, only English or Spanish",yes,2025-07-23_21h35.03.411,empathy_intonation_perc_control,2024.2.4,Win32,59.17159763,678e69996debb07354f037ed,68817205a84113384fffdfe3,68818d99fff696cda2c2aa9f,,,,,,,,,,,,./stim/wavs/cuban_match_interrogative-total-yn_Manuela-vende-el-carro.wav,1,,,142.1461,144.0961,0,0,1.4184,,0,46,46,8,1,9,1,cuban,,,,,,,,,,,,,,,,,,,,,,,,,,,,,,,,,,,,,,,,,,,,,,,,,,,,,,,,
,,,,,,,,,678e69996debb07354f037ed,Spanish,13 or older,"no, only English or Spanish",yes,2025-07-23_21h35.03.411,empathy_intonation_perc_control,2024.2.4,Win32,59.17159763,678e69996debb07354f037ed,68817205a84113384fffdfe3,68818d99fff696cda2c2aa9f,,,,,,,,,,,,./stim/wavs/puertorican_mismatch_interrogative-total-yn_El-nino-oye-el-rio.wav,1,,,144.0969,147.4296,0,0,2.8091,,0,47,47,40,1,41,1,puertorican,,,,,,,,,,,,,,,,,,,,,,,,,,,,,,,,,,,,,,,,,,,,,,,,,,,,,,,,
,,,,,,,,,678e69996debb07354f037ed,Spanish,13 or older,"no, only English or Spanish",yes,2025-07-23_21h35.03.411,empathy_intonation_perc_control,2024.2.4,Win32,59.17159763,678e69996debb07354f037ed,68817205a84113384fffdfe3,68818d99fff696cda2c2aa9f,,,,,,,,,,,,./stim/wavs/puertorican_mismatch_interrogative-total-yn_El-hombre-mira-la-luna.wav,1,,,147.4301,150.0962,1,1,2.1337,,0,48,48,39,1,40,1,puertorican,,,,,,,,,,,,,,,,,,,,,,,,,,,,,,,,,,,,,,,,,,,,,,,,,,,,,,,,
,,,,,,,,,678e69996debb07354f037ed,Spanish,13 or older,"no, only English or Spanish",yes,2025-07-23_21h35.03.411,empathy_intonation_perc_control,2024.2.4,Win32,59.17159763,678e69996debb07354f037ed,68817205a84113384fffdfe3,68818d99fff696cda2c2aa9f,,,,,,,,,,,,./stim/wavs/castilian_mismatch_interrogative-total-yn_La-maestra-vive-en-Paris.wav,1,,,150.0968,152.5966,1,1,1.9713,,0,49,49,24,1,25,0,castilian,,,,,,,,,,,,,,,,,,,,,,,,,,,,,,,,,,,,,,,,,,,,,,,,,,,,,,,,
,,,,,,,,,678e69996debb07354f037ed,Spanish,13 or older,"no, only English or Spanish",yes,2025-07-23_21h35.03.411,empathy_intonation_perc_control,2024.2.4,Win32,59.17159763,678e69996debb07354f037ed,68817205a84113384fffdfe3,68818d99fff696cda2c2aa9f,,,,,,,,,,,,./stim/wavs/puertorican_mismatch_declarative-broad-focus_El-bebe-comia-muy-bien.wav,0,,,152.5973,154.8633,0,1,1.7346,,0,50,50,83,1,84,0,puertorican,,,,,,,,,,,,,,,,,,,,,,,,,,,,,,,,,,,,,,,,,,,,,,,,,,,,,,,,
,,,,,,,,,678e69996debb07354f037ed,Spanish,13 or older,"no, only English or Spanish",yes,2025-07-23_21h35.03.411,empathy_intonation_perc_control,2024.2.4,Win32,59.17159763,678e69996debb07354f037ed,68817205a84113384fffdfe3,68818d99fff696cda2c2aa9f,,,,,,,,,,,,./stim/wavs/castilian_match_declarative-broad-focus_Mariano-habla-del-tiempo.wav,0,,,154.8642,157.58,0,1,2.1889,,0,51,51,48,1,49,0,castilian,,,,,,,,,,,,,,,,,,,,,,,,,,,,,,,,,,,,,,,,,,,,,,,,,,,,,,,,
,,,,,,,,,678e69996debb07354f037ed,Spanish,13 or older,"no, only English or Spanish",yes,2025-07-23_21h35.03.411,empathy_intonation_perc_control,2024.2.4,Win32,59.17159763,678e69996debb07354f037ed,68817205a84113384fffdfe3,68818d99fff696cda2c2aa9f,,,,,,,,,,,,./stim/wavs/puertorican_match_interrogative-total-yn_Emilio-ama-la-marcha.wav,1,,,157.5805,159.8633,1,1,1.7498,,0,52,52,21,1,22,1,puertorican,,,,,,,,,,,,,,,,,,,,,,,,,,,,,,,,,,,,,,,,,,,,,,,,,,,,,,,,
,,,,,,,,,678e69996debb07354f037ed,Spanish,13 or older,"no, only English or Spanish",yes,2025-07-23_21h35.03.411,empathy_intonation_perc_control,2024.2.4,Win32,59.17159763,678e69996debb07354f037ed,68817205a84113384fffdfe3,68818d99fff696cda2c2aa9f,,,,,,,,,,,,./stim/wavs/cuban_match_declarative-broad-focus_Ana-lleva-el-abrigo.wav,0,,,159.8639,161.8973,0,1,1.5047,,0,53,53,50,1,51,0,cuban,,,,,,,,,,,,,,,,,,,,,,,,,,,,,,,,,,,,,,,,,,,,,,,,,,,,,,,,
,,,,,,,,,678e69996debb07354f037ed,Spanish,13 or older,"no, only English or Spanish",yes,2025-07-23_21h35.03.411,empathy_intonation_perc_control,2024.2.4,Win32,59.17159763,678e69996debb07354f037ed,68817205a84113384fffdfe3,68818d99fff696cda2c2aa9f,,,,,,,,,,,,./stim/wavs/puertorican_match_interrogative-total-yn_Ana-lleva-el-abrigo.wav,1,,,161.8985,163.7472,1,1,1.3209,,0,54,54,18,1,19,1,puertorican,,,,,,,,,,,,,,,,,,,,,,,,,,,,,,,,,,,,,,,,,,,,,,,,,,,,,,,,
,,,,,,,,,678e69996debb07354f037ed,Spanish,13 or older,"no, only English or Spanish",yes,2025-07-23_21h35.03.411,empathy_intonation_perc_control,2024.2.4,Win32,59.17159763,678e69996debb07354f037ed,68817205a84113384fffdfe3,68818d99fff696cda2c2aa9f,,,,,,,,,,,,./stim/wavs/mexican_mismatch_interrogative-total-yn_Mi-tia-odia-la-lluvia.wav,1,,,163.7481,165.897,1,1,1.6198,,0,55,55,38,1,39,0,mexican,,,,,,,,,,,,,,,,,,,,,,,,,,,,,,,,,,,,,,,,,,,,,,,,,,,,,,,,
,,,,,,,,,678e69996debb07354f037ed,Spanish,13 or older,"no, only English or Spanish",yes,2025-07-23_21h35.03.411,empathy_intonation_perc_control,2024.2.4,Win32,59.17159763,678e69996debb07354f037ed,68817205a84113384fffdfe3,68818d99fff696cda2c2aa9f,,,,,,,,,,,,./stim/wavs/castilian_match_interrogative-total-yn_Marta-abre-el-regalo.wav,1,,,165.8976,168.097,1,1,1.6659,,0,56,56,5,1,6,0,castilian,,,,,,,,,,,,,,,,,,,,,,,,,,,,,,,,,,,,,,,,,,,,,,,,,,,,,,,,
,,,,,,,,,678e69996debb07354f037ed,Spanish,13 or older,"no, only English or Spanish",yes,2025-07-23_21h35.03.411,empathy_intonation_perc_control,2024.2.4,Win32,59.17159763,678e69996debb07354f037ed,68817205a84113384fffdfe3,68818d99fff696cda2c2aa9f,,,,,,,,,,,,./stim/wavs/mexican_mismatch_interrogative-total-yn_Mi-novio-viene-del-lago.wav,1,,,168.0974,170.1473,1,1,1.538,,0,57,57,37,1,38,0,mexican,,,,,,,,,,,,,,,,,,,,,,,,,,,,,,,,,,,,,,,,,,,,,,,,,,,,,,,,
,,,,,,,,,678e69996debb07354f037ed,Spanish,13 or older,"no, only English or Spanish",yes,2025-07-23_21h35.03.411,empathy_intonation_perc_control,2024.2.4,Win32,59.17159763,678e69996debb07354f037ed,68817205a84113384fffdfe3,68818d99fff696cda2c2aa9f,,,,,,,,,,,,./stim/wavs/puertorican_mismatch_interrogative-total-yn_La-maestra-vive-en-Paris.wav,1,,,170.1479,172.5976,1,1,1.9167,,0,58,58,41,1,42,1,puertorican,,,,,,,,,,,,,,,,,,,,,,,,,,,,,,,,,,,,,,,,,,,,,,,,,,,,,,,,
,,,,,,,,,678e69996debb07354f037ed,Spanish,13 or older,"no, only English or Spanish",yes,2025-07-23_21h35.03.411,empathy_intonation_perc_control,2024.2.4,Win32,59.17159763,678e69996debb07354f037ed,68817205a84113384fffdfe3,68818d99fff696cda2c2aa9f,,,,,,,,,,,,./stim/wavs/puertorican_match_interrogative-total-yn_Maria-bebe-el-vino.wav,1,,,172.5981,174.4989,1,1,1.3763,,0,59,59,23,1,24,1,puertorican,,,,,,,,,,,,,,,,,,,,,,,,,,,,,,,,,,,,,,,,,,,,,,,,,,,,,,,,
,,,,,,,,,678e69996debb07354f037ed,Spanish,13 or older,"no, only English or Spanish",yes,2025-07-23_21h35.03.411,empathy_intonation_perc_control,2024.2.4,Win32,59.17159763,678e69996debb07354f037ed,68817205a84113384fffdfe3,68818d99fff696cda2c2aa9f,,,,,,,,,,,,./stim/wavs/puertorican_match_interrogative-total-yn_Daniel-iba-a-Bolivia.wav,1,,,174.4997,176.6979,1,1,1.6678,,0,60,60,19,1,20,1,puertorican,,,,,,,,,,,,,,,,,,,,,,,,,,,,,,,,,,,,,,,,,,,,,,,,,,,,,,,,
,,,,,,,,,678e69996debb07354f037ed,Spanish,13 or older,"no, only English or Spanish",yes,2025-07-23_21h35.03.411,empathy_intonation_perc_control,2024.2.4,Win32,59.17159763,678e69996debb07354f037ed,68817205a84113384fffdfe3,68818d99fff696cda2c2aa9f,,,,,,,,,,,,./stim/wavs/mexican_match_interrogative-total-yn_Daniel-iba-a-Bolivia.wav,1,,,176.6989,178.981,1,1,1.7495,,0,61,61,13,1,14,0,mexican,,,,,,,,,,,,,,,,,,,,,,,,,,,,,,,,,,,,,,,,,,,,,,,,,,,,,,,,
,,,,,,,,,678e69996debb07354f037ed,Spanish,13 or older,"no, only English or Spanish",yes,2025-07-23_21h35.03.411,empathy_intonation_perc_control,2024.2.4,Win32,59.17159763,678e69996debb07354f037ed,68817205a84113384fffdfe3,68818d99fff696cda2c2aa9f,,,,,,,,,,,,./stim/wavs/castilian_match_declarative-broad-focus_Emilio-ama-la-marcha.wav,0,,,178.9816,181.3477,0,1,1.8334,,0,62,62,45,1,46,0,castilian,,,,,,,,,,,,,,,,,,,,,,,,,,,,,,,,,,,,,,,,,,,,,,,,,,,,,,,,
,,,,,,,,,678e69996debb07354f037ed,Spanish,13 or older,"no, only English or Spanish",yes,2025-07-23_21h35.03.411,empathy_intonation_perc_control,2024.2.4,Win32,59.17159763,678e69996debb07354f037ed,68817205a84113384fffdfe3,68818d99fff696cda2c2aa9f,,,,,,,,,,,,./stim/wavs/mexican_mismatch_declarative-broad-focus_Mi-tia-odia-la-lluvia.wav,0,,,181.3482,183.6981,0,1,1.8251,,0,63,63,82,1,83,0,mexican,,,,,,,,,,,,,,,,,,,,,,,,,,,,,,,,,,,,,,,,,,,,,,,,,,,,,,,,
,,,,,,,,,678e69996debb07354f037ed,Spanish,13 or older,"no, only English or Spanish",yes,2025-07-23_21h35.03.411,empathy_intonation_perc_control,2024.2.4,Win32,59.17159763,678e69996debb07354f037ed,68817205a84113384fffdfe3,68818d99fff696cda2c2aa9f,,,,,,,,,,,,./stim/wavs/mexican_match_interrogative-total-yn_David-leia-el-libro.wav,1,,,183.6991,185.9149,1,1,1.6884,,0,64,64,14,1,15,0,mexican,,,,,,,,,,,,,,,,,,,,,,,,,,,,,,,,,,,,,,,,,,,,,,,,,,,,,,,,
,,,,,,,,,678e69996debb07354f037ed,Spanish,13 or older,"no, only English or Spanish",yes,2025-07-23_21h35.03.411,empathy_intonation_perc_control,2024.2.4,Win32,59.17159763,678e69996debb07354f037ed,68817205a84113384fffdfe3,68818d99fff696cda2c2aa9f,,,,,,,,,,,,./stim/wavs/castilian_match_interrogative-total-yn_David-leia-el-libro.wav,1,,,185.9156,188.1648,1,1,1.7176,,0,65,65,0,1,1,0,castilian,,,,,,,,,,,,,,,,,,,,,,,,,,,,,,,,,,,,,,,,,,,,,,,,,,,,,,,,
,,,,,,,,,678e69996debb07354f037ed,Spanish,13 or older,"no, only English or Spanish",yes,2025-07-23_21h35.03.411,empathy_intonation_perc_control,2024.2.4,Win32,59.17159763,678e69996debb07354f037ed,68817205a84113384fffdfe3,68818d99fff696cda2c2aa9f,,,,,,,,,,,,./stim/wavs/castilian_mismatch_declarative-broad-focus_Mi-novio-viene-del-lago.wav,0,,,188.1654,190.598,0,1,1.9076,,0,66,66,71,1,72,0,castilian,,,,,,,,,,,,,,,,,,,,,,,,,,,,,,,,,,,,,,,,,,,,,,,,,,,,,,,,
,,,,,,,,,678e69996debb07354f037ed,Spanish,13 or older,"no, only English or Spanish",yes,2025-07-23_21h35.03.411,empathy_intonation_perc_control,2024.2.4,Win32,59.17159763,678e69996debb07354f037ed,68817205a84113384fffdfe3,68818d99fff696cda2c2aa9f,,,,,,,,,,,,./stim/wavs/mexican_match_interrogative-total-yn_Mariano-habla-del-tiempo.wav,1,,,190.5987,192.7319,1,1,1.6008,,0,67,67,16,1,17,0,mexican,,,,,,,,,,,,,,,,,,,,,,,,,,,,,,,,,,,,,,,,,,,,,,,,,,,,,,,,
,,,,,,,,,678e69996debb07354f037ed,Spanish,13 or older,"no, only English or Spanish",yes,2025-07-23_21h35.03.411,empathy_intonation_perc_control,2024.2.4,Win32,59.17159763,678e69996debb07354f037ed,68817205a84113384fffdfe3,68818d99fff696cda2c2aa9f,,,,,,,,,,,,./stim/wavs/puertorican_mismatch_declarative-broad-focus_El-nino-oye-el-rio.wav,0,,,192.733,194.7652,0,1,1.5021,,0,68,68,85,1,86,0,puertorican,,,,,,,,,,,,,,,,,,,,,,,,,,,,,,,,,,,,,,,,,,,,,,,,,,,,,,,,
,,,,,,,,,678e69996debb07354f037ed,Spanish,13 or older,"no, only English or Spanish",yes,2025-07-23_21h35.03.411,empathy_intonation_perc_control,2024.2.4,Win32,59.17159763,678e69996debb07354f037ed,68817205a84113384fffdfe3,68818d99fff696cda2c2aa9f,,,,,,,,,,,,./stim/wavs/cuban_mismatch_interrogative-total-yn_El-nino-oye-el-rio.wav,1,,,194.7662,196.8152,0,0,1.5175,,0,69,69,30,1,31,1,cuban,,,,,,,,,,,,,,,,,,,,,,,,,,,,,,,,,,,,,,,,,,,,,,,,,,,,,,,,
,,,,,,,,,678e69996debb07354f037ed,Spanish,13 or older,"no, only English or Spanish",yes,2025-07-23_21h35.03.411,empathy_intonation_perc_control,2024.2.4,Win32,59.17159763,678e69996debb07354f037ed,68817205a84113384fffdfe3,68818d99fff696cda2c2aa9f,,,,,,,,,,,,./stim/wavs/castilian_mismatch_declarative-broad-focus_La-maestra-vive-en-Paris.wav,0,,,196.8158,199.1985,0,1,1.8509,,0,70,70,69,1,70,0,castilian,,,,,,,,,,,,,,,,,,,,,,,,,,,,,,,,,,,,,,,,,,,,,,,,,,,,,,,,
,,,,,,,,,678e69996debb07354f037ed,Spanish,13 or older,"no, only English or Spanish",yes,2025-07-23_21h35.03.411,empathy_intonation_perc_control,2024.2.4,Win32,59.17159763,678e69996debb07354f037ed,68817205a84113384fffdfe3,68818d99fff696cda2c2aa9f,,,,,,,,,,,,./stim/wavs/castilian_mismatch_interrogative-total-yn_La-nina-lava-el-plato.wav,1,,,199.1992,201.4152,1,1,1.6843,,0,71,71,25,1,26,0,castilian,,,,,,,,,,,,,,,,,,,,,,,,,,,,,,,,,,,,,,,,,,,,,,,,,,,,,,,,
,,,,,,,,,678e69996debb07354f037ed,Spanish,13 or older,"no, only English or Spanish",yes,2025-07-23_21h35.03.411,empathy_intonation_perc_control,2024.2.4,Win32,59.17159763,678e69996debb07354f037ed,68817205a84113384fffdfe3,68818d99fff696cda2c2aa9f,,,,,,,,,,,,./stim/wavs/cuban_mismatch_declarative-broad-focus_Mi-tia-odia-la-lluvia.wav,0,,,201.4161,203.6655,0,1,1.7172,,0,72,72,77,1,78,0,cuban,,,,,,,,,,,,,,,,,,,,,,,,,,,,,,,,,,,,,,,,,,,,,,,,,,,,,,,,
,,,,,,,,,678e69996debb07354f037ed,Spanish,13 or older,"no, only English or Spanish",yes,2025-07-23_21h35.03.411,empathy_intonation_perc_control,2024.2.4,Win32,59.17159763,678e69996debb07354f037ed,68817205a84113384fffdfe3,68818d99fff696cda2c2aa9f,,,,,,,,,,,,./stim/wavs/mexican_mismatch_declarative-broad-focus_El-bebe-comia-muy-bien.wav,0,,,203.6665,205.8658,0,1,1.6685,,0,73,73,78,1,79,0,mexican,,,,,,,,,,,,,,,,,,,,,,,,,,,,,,,,,,,,,,,,,,,,,,,,,,,,,,,,
,,,,,,,,,678e69996debb07354f037ed,Spanish,13 or older,"no, only English or Spanish",yes,2025-07-23_21h35.03.411,empathy_intonation_perc_control,2024.2.4,Win32,59.17159763,678e69996debb07354f037ed,68817205a84113384fffdfe3,68818d99fff696cda2c2aa9f,,,,,,,,,,,,./stim/wavs/puertorican_mismatch_interrogative-total-yn_La-nina-lava-el-plato.wav,1,,,205.8667,207.8658,1,1,1.4686,,0,74,74,42,1,43,1,puertorican,,,,,,,,,,,,,,,,,,,,,,,,,,,,,,,,,,,,,,,,,,,,,,,,,,,,,,,,
,,,,,,,,,678e69996debb07354f037ed,Spanish,13 or older,"no, only English or Spanish",yes,2025-07-23_21h35.03.411,empathy_intonation_perc_control,2024.2.4,Win32,59.17159763,678e69996debb07354f037ed,68817205a84113384fffdfe3,68818d99fff696cda2c2aa9f,,,,,,,,,,,,./stim/wavs/mexican_match_declarative-broad-focus_Mariano-habla-del-tiempo.wav,0,,,207.867,209.8826,0,1,1.4903,,0,75,75,60,1,61,0,mexican,,,,,,,,,,,,,,,,,,,,,,,,,,,,,,,,,,,,,,,,,,,,,,,,,,,,,,,,
,,,,,,,,,678e69996debb07354f037ed,Spanish,13 or older,"no, only English or Spanish",yes,2025-07-23_21h35.03.411,empathy_intonation_perc_control,2024.2.4,Win32,59.17159763,678e69996debb07354f037ed,68817205a84113384fffdfe3,68818d99fff696cda2c2aa9f,,,,,,,,,,,,./stim/wavs/cuban_match_declarative-broad-focus_Manuela-vende-el-carro.wav,0,,,209.8834,212.2157,0,1,1.7994,,0,76,76,52,1,53,0,cuban,,,,,,,,,,,,,,,,,,,,,,,,,,,,,,,,,,,,,,,,,,,,,,,,,,,,,,,,
,,,,,,,,,678e69996debb07354f037ed,Spanish,13 or older,"no, only English or Spanish",yes,2025-07-23_21h35.03.411,empathy_intonation_perc_control,2024.2.4,Win32,59.17159763,678e69996debb07354f037ed,68817205a84113384fffdfe3,68818d99fff696cda2c2aa9f,,,,,,,,,,,,./stim/wavs/castilian_match_interrogative-total-yn_Manuela-vende-el-carro.wav,1,,,212.2162,214.466,1,1,1.7224,,0,77,77,2,1,3,0,castilian,,,,,,,,,,,,,,,,,,,,,,,,,,,,,,,,,,,,,,,,,,,,,,,,,,,,,,,,
,,,,,,,,,678e69996debb07354f037ed,Spanish,13 or older,"no, only English or Spanish",yes,2025-07-23_21h35.03.411,empathy_intonation_perc_control,2024.2.4,Win32,59.17159763,678e69996debb07354f037ed,68817205a84113384fffdfe3,68818d99fff696cda2c2aa9f,,,,,,,,,,,,./stim/wavs/cuban_mismatch_declarative-broad-focus_El-bebe-comia-muy-bien.wav,0,,,214.4668,216.5492,0,1,1.5603,,0,78,78,73,1,74,0,cuban,,,,,,,,,,,,,,,,,,,,,,,,,,,,,,,,,,,,,,,,,,,,,,,,,,,,,,,,
,,,,,,,,,678e69996debb07354f037ed,Spanish,13 or older,"no, only English or Spanish",yes,2025-07-23_21h35.03.411,empathy_intonation_perc_control,2024.2.4,Win32,59.17159763,678e69996debb07354f037ed,68817205a84113384fffdfe3,68818d99fff696cda2c2aa9f,,,,,,,,,,,,./stim/wavs/castilian_match_interrogative-total-yn_Mariano-habla-del-tiempo.wav,1,,,216.5497,218.9162,1,1,1.8371,,0,79,79,4,1,5,0,castilian,,,,,,,,,,,,,,,,,,,,,,,,,,,,,,,,,,,,,,,,,,,,,,,,,,,,,,,,
,,,,,,,,,678e69996debb07354f037ed,Spanish,13 or older,"no, only English or Spanish",yes,2025-07-23_21h35.03.411,empathy_intonation_perc_control,2024.2.4,Win32,59.17159763,678e69996debb07354f037ed,68817205a84113384fffdfe3,68818d99fff696cda2c2aa9f,,,,,,,,,,,,./stim/wavs/cuban_mismatch_interrogative-total-yn_Mi-tia-odia-la-lluvia.wav,1,,,218.917,221.6165,1,1,2.1706,,0,80,80,33,1,34,1,cuban,,,,,,,,,,,,,,,,,,,,,,,,,,,,,,,,,,,,,,,,,,,,,,,,,,,,,,,,
,,,,,,,,,678e69996debb07354f037ed,Spanish,13 or older,"no, only English or Spanish",yes,2025-07-23_21h35.03.411,empathy_intonation_perc_control,2024.2.4,Win32,59.17159763,678e69996debb07354f037ed,68817205a84113384fffdfe3,68818d99fff696cda2c2aa9f,,,,,,,,,,,,./stim/wavs/mexican_mismatch_declarative-broad-focus_El-hombre-mira-la-luna.wav,0,,,221.6176,223.8328,0,1,1.6862,,0,81,81,79,1,80,0,mexican,,,,,,,,,,,,,,,,,,,,,,,,,,,,,,,,,,,,,,,,,,,,,,,,,,,,,,,,
,,,,,,,,,678e69996debb07354f037ed,Spanish,13 or older,"no, only English or Spanish",yes,2025-07-23_21h35.03.411,empathy_intonation_perc_control,2024.2.4,Win32,59.17159763,678e69996debb07354f037ed,68817205a84113384fffdfe3,68818d99fff696cda2c2aa9f,,,,,,,,,,,,./stim/wavs/puertorican_match_declarative-broad-focus_Manuela-vende-el-carro.wav,0,,,223.8335,225.9996,0,1,1.6339,,0,82,82,66,1,67,0,puertorican,,,,,,,,,,,,,,,,,,,,,,,,,,,,,,,,,,,,,,,,,,,,,,,,,,,,,,,,
,,,,,,,,,678e69996debb07354f037ed,Spanish,13 or older,"no, only English or Spanish",yes,2025-07-23_21h35.03.411,empathy_intonation_perc_control,2024.2.4,Win32,59.17159763,678e69996debb07354f037ed,68817205a84113384fffdfe3,68818d99fff696cda2c2aa9f,,,,,,,,,,,,./stim/wavs/cuban_match_interrogative-total-yn_Maria-bebe-el-vino.wav,1,,,226.0001,228.4498,0,0,1.9189,,0,83,83,9,1,10,1,cuban,,,,,,,,,,,,,,,,,,,,,,,,,,,,,,,,,,,,,,,,,,,,,,,,,,,,,,,,
,,,,,,,,,678e69996debb07354f037ed,Spanish,13 or older,"no, only English or Spanish",yes,2025-07-23_21h35.03.411,empathy_intonation_perc_control,2024.2.4,Win32,59.17159763,678e69996debb07354f037ed,68817205a84113384fffdfe3,68818d99fff696cda2c2aa9f,,,,,,,,,,,,./stim/wavs/puertorican_match_interrogative-total-yn_David-leia-el-libro.wav,1,,,228.4505,230.4166,1,1,1.443,,0,84,84,20,1,21,1,puertorican,,,,,,,,,,,,,,,,,,,,,,,,,,,,,,,,,,,,,,,,,,,,,,,,,,,,,,,,
,,,,,,,,,678e69996debb07354f037ed,Spanish,13 or older,"no, only English or Spanish",yes,2025-07-23_21h35.03.411,empathy_intonation_perc_control,2024.2.4,Win32,59.17159763,678e69996debb07354f037ed,68817205a84113384fffdfe3,68818d99fff696cda2c2aa9f,,,,,,,,,,,,./stim/wavs/cuban_match_interrogative-total-yn_Ana-lleva-el-abrigo.wav,1,,,230.4173,232.2504,0,0,1.3021,,0,85,85,6,1,7,1,cuban,,,,,,,,,,,,,,,,,,,,,,,,,,,,,,,,,,,,,,,,,,,,,,,,,,,,,,,,
,,,,,,,,,678e69996debb07354f037ed,Spanish,13 or older,"no, only English or Spanish",yes,2025-07-23_21h35.03.411,empathy_intonation_perc_control,2024.2.4,Win32,59.17159763,678e69996debb07354f037ed,68817205a84113384fffdfe3,68818d99fff696cda2c2aa9f,,,,,,,,,,,,./stim/wavs/mexican_mismatch_declarative-broad-focus_Mi-novio-viene-del-lago.wav,0,,,232.2514,234.2666,0,1,1.4841,,0,86,86,81,1,82,0,mexican,,,,,,,,,,,,,,,,,,,,,,,,,,,,,,,,,,,,,,,,,,,,,,,,,,,,,,,,
,,,,,,,,,678e69996debb07354f037ed,Spanish,13 or older,"no, only English or Spanish",yes,2025-07-23_21h35.03.411,empathy_intonation_perc_control,2024.2.4,Win32,59.17159763,678e69996debb07354f037ed,68817205a84113384fffdfe3,68818d99fff696cda2c2aa9f,,,,,,,,,,,,./stim/wavs/mexican_match_declarative-broad-focus_Daniel-iba-a-Bolivia.wav,0,,,234.2673,236.2504,0,1,1.451,,0,87,87,57,1,58,0,mexican,,,,,,,,,,,,,,,,,,,,,,,,,,,,,,,,,,,,,,,,,,,,,,,,,,,,,,,,
,,,,,,,"Great! Now we will move on. The next task consists of about 60 trials, in each of which you will see a string of letters. 
  
  Your task is to decide whether this is a real Spanish word or not.", (press the spacebar to continue),678e69996debb07354f037ed,Spanish,13 or older,"no, only English or Spanish",yes,2025-07-23_21h35.03.411,empathy_intonation_perc_control,2024.2.4,Win32,59.17159763,678e69996debb07354f037ed,68817205a84113384fffdfe3,68818d99fff696cda2c2aa9f,,,,,,,,,,,,,,,,,,,,,,,,,,,,,,236.2578,242.5174,0,0,0,0,1,,,,,,,,,,,,,,,,,,,,,,,,,,,,,,,,,,,,,,,,,,,,,,,,,
,,,,,,,"If you think it is an existing Spanish word, you type '1' (for 'REAL'), and if you think it is not an existing Spanish word, you type '0' (for 'FAKE').", (press the spacebar to continue),678e69996debb07354f037ed,Spanish,13 or older,"no, only English or Spanish",yes,2025-07-23_21h35.03.411,empathy_intonation_perc_control,2024.2.4,Win32,59.17159763,678e69996debb07354f037ed,68817205a84113384fffdfe3,68818d99fff696cda2c2aa9f,,,,,,,,,,,,,,,,,,,,,,,,,,,,,,242.5199,244.8019,0,1,1,1,1,,,,,,,,,,,,,,,,,,,,,,,,,,,,,,,,,,,,,,,,,,,,,,,,,
,,,,,,,"If you are sure that the word exists, even though you don’t know its exact meaning, you may still respond '1' (REAL). 
  
  But if you are not sure if it is an existing word, you should respond '0' (FAKE).
  
  Let's do a practice round...", (press the spacebar to continue),678e69996debb07354f037ed,Spanish,13 or older,"no, only English or Spanish",yes,2025-07-23_21h35.03.411,empathy_intonation_perc_control,2024.2.4,Win32,59.17159763,678e69996debb07354f037ed,68817205a84113384fffdfe3,68818d99fff696cda2c2aa9f,,,,,,,,,,,,,,,,,,,,,,,,,,,,,,244.806,248.9529,0,2,2,2,1,,,,,,,,,,,,,,,,,,,,,,,,,,,,,,,,,,,,,,,,,,,,,,,,,
,,,,,,,,,678e69996debb07354f037ed,Spanish,13 or older,"no, only English or Spanish",yes,2025-07-23_21h35.03.411,empathy_intonation_perc_control,2024.2.4,Win32,59.17159763,678e69996debb07354f037ed,68817205a84113384fffdfe3,68818d99fff696cda2c2aa9f,,,,,,,,,,,,,0,,,,,,,,,,,,,,,,,,,,,,,,248.9614,252.8202,0,1,3.3279,,252.8208,253.8202,0,0,0,0,1,0,depiste,REAL,FAKE,,,,,,,,,,,,,,,,,,,,,,,,,,,,,,,,
,,,,,,,,,678e69996debb07354f037ed,Spanish,13 or older,"no, only English or Spanish",yes,2025-07-23_21h35.03.411,empathy_intonation_perc_control,2024.2.4,Win32,59.17159763,678e69996debb07354f037ed,68817205a84113384fffdfe3,68818d99fff696cda2c2aa9f,,,,,,,,,,,,,1,,,,,,,,,,,,,,,,,,,,,,,,253.8239,255.3028,1,1,0.9486,,255.3029,256.3029,0,1,1,1,1,0,sí,REAL,FAKE,,,,,,,,,,,,,,,,,,,,,,,,,,,,,,,,
,,,,,,,,,678e69996debb07354f037ed,Spanish,13 or older,"no, only English or Spanish",yes,2025-07-23_21h35.03.411,empathy_intonation_perc_control,2024.2.4,Win32,59.17159763,678e69996debb07354f037ed,68817205a84113384fffdfe3,68818d99fff696cda2c2aa9f,,,,,,,,,,,,,0,,,,,,,,,,,,,,,,,,,,,,,,256.3068,258.3866,0,1,1.5468,,258.3867,259.387,0,2,2,2,1,0,coné,REAL,FAKE,,,,,,,,,,,,,,,,,,,,,,,,,,,,,,,,
,,,,,,,,,678e69996debb07354f037ed,Spanish,13 or older,"no, only English or Spanish",yes,2025-07-23_21h35.03.411,empathy_intonation_perc_control,2024.2.4,Win32,59.17159763,678e69996debb07354f037ed,68817205a84113384fffdfe3,68818d99fff696cda2c2aa9f,,,,,,,,,,,,,0,,,,,,,,,,,,,,,,,,,,,,,,259.3893,261.286,0,1,1.3612,,261.2862,262.2859,0,3,3,3,1,0,calpar,REAL,FAKE,,,,,,,,,,,,,,,,,,,,,,,,,,,,,,,,
,,,,,,,,,678e69996debb07354f037ed,Spanish,13 or older,"no, only English or Spanish",yes,2025-07-23_21h35.03.411,empathy_intonation_perc_control,2024.2.4,Win32,59.17159763,678e69996debb07354f037ed,68817205a84113384fffdfe3,68818d99fff696cda2c2aa9f,,,,,,,,,,,,,0,,,,,,,,,,,,,,,,,,,,,,,,262.2892,264.1356,0,1,1.3168,,264.1358,265.1363,0,4,4,4,1,0,joten,REAL,FAKE,,,,,,,,,,,,,,,,,,,,,,,,,,,,,,,,
,,,,,,,,,678e69996debb07354f037ed,Spanish,13 or older,"no, only English or Spanish",yes,2025-07-23_21h35.03.411,empathy_intonation_perc_control,2024.2.4,Win32,59.17159763,678e69996debb07354f037ed,68817205a84113384fffdfe3,68818d99fff696cda2c2aa9f,,,,,,,,,,,,,1,,,,,,,,,,,,,,,,,,,,,,,,265.1382,266.8061,1,1,1.1386,,266.8063,267.803,0,5,5,5,1,0,sacapuntas,REAL,FAKE,,,,,,,,,,,,,,,,,,,,,,,,,,,,,,,,
,,,,,,,,,678e69996debb07354f037ed,Spanish,13 or older,"no, only English or Spanish",yes,2025-07-23_21h35.03.411,empathy_intonation_perc_control,2024.2.4,Win32,59.17159763,678e69996debb07354f037ed,68817205a84113384fffdfe3,68818d99fff696cda2c2aa9f,,,,,,,,,,,,,0,,,,,,,,,,,,,,,,,,,,,,,,267.8068,269.606,0,1,1.2732,,269.6063,270.6032,0,6,6,6,1,0,priba,REAL,FAKE,,,,,,,,,,,,,,,,,,,,,,,,,,,,,,,,
,,,,,,,,,678e69996debb07354f037ed,Spanish,13 or older,"no, only English or Spanish",yes,2025-07-23_21h35.03.411,empathy_intonation_perc_control,2024.2.4,Win32,59.17159763,678e69996debb07354f037ed,68817205a84113384fffdfe3,68818d99fff696cda2c2aa9f,,,,,,,,,,,,,0,,,,,,,,,,,,,,,,,,,,,,,,270.6051,272.6704,0,1,1.5293,,272.6708,273.6704,0,7,7,7,1,0,pelasula,REAL,FAKE,,,,,,,,,,,,,,,,,,,,,,,,,,,,,,,,
,,,,,,,,,678e69996debb07354f037ed,Spanish,13 or older,"no, only English or Spanish",yes,2025-07-23_21h35.03.411,empathy_intonation_perc_control,2024.2.4,Win32,59.17159763,678e69996debb07354f037ed,68817205a84113384fffdfe3,68818d99fff696cda2c2aa9f,,,,,,,,,,,,,1,,,,,,,,,,,,,,,,,,,,,,,,273.6732,274.8706,1,1,0.6643,,274.8706,275.87,0,8,8,8,1,0,bien,REAL,FAKE,,,,,,,,,,,,,,,,,,,,,,,,,,,,,,,,
,,,,,,,,,678e69996debb07354f037ed,Spanish,13 or older,"no, only English or Spanish",yes,2025-07-23_21h35.03.411,empathy_intonation_perc_control,2024.2.4,Win32,59.17159763,678e69996debb07354f037ed,68817205a84113384fffdfe3,68818d99fff696cda2c2aa9f,,,,,,,,,,,,,1,,,,,,,,,,,,,,,,,,,,,,,,275.8724,277.0867,1,1,0.6794,,277.0869,278.0862,0,9,9,9,1,0,casa,REAL,FAKE,,,,,,,,,,,,,,,,,,,,,,,,,,,,,,,,
,,,,,,,,,678e69996debb07354f037ed,Spanish,13 or older,"no, only English or Spanish",yes,2025-07-23_21h35.03.411,empathy_intonation_perc_control,2024.2.4,Win32,59.17159763,678e69996debb07354f037ed,68817205a84113384fffdfe3,68818d99fff696cda2c2aa9f,,,,,,,,,,,,,0,,,,,,,,,,,,,,,,,,,,,,,,278.0889,279.8863,0,1,1.2661,,279.8863,280.8868,0,10,10,10,1,0,lejo,REAL,FAKE,,,,,,,,,,,,,,,,,,,,,,,,,,,,,,,,
,,,,,,,,,678e69996debb07354f037ed,Spanish,13 or older,"no, only English or Spanish",yes,2025-07-23_21h35.03.411,empathy_intonation_perc_control,2024.2.4,Win32,59.17159763,678e69996debb07354f037ed,68817205a84113384fffdfe3,68818d99fff696cda2c2aa9f,,,,,,,,,,,,,0,,,,,,,,,,,,,,,,,,,,,,,,280.889,282.3533,0,1,0.9377,,282.3533,283.3536,0,11,11,11,1,0,pretantas,REAL,FAKE,,,,,,,,,,,,,,,,,,,,,,,,,,,,,,,,
,,,,,,,,,678e69996debb07354f037ed,Spanish,13 or older,"no, only English or Spanish",yes,2025-07-23_21h35.03.411,empathy_intonation_perc_control,2024.2.4,Win32,59.17159763,678e69996debb07354f037ed,68817205a84113384fffdfe3,68818d99fff696cda2c2aa9f,,,,,,,,,,,,,,,,,,,,,,,,,,,,,,,,,,,,,,,,,,,,,,,,,,,,,,283.3542,284.6201,,,,,,,,,,,,,,,,,,,,,,,,,,,,,,
,,,,,,,,,678e69996debb07354f037ed,Spanish,13 or older,"no, only English or Spanish",yes,2025-07-23_21h35.03.411,empathy_intonation_perc_control,2024.2.4,Win32,59.17159763,678e69996debb07354f037ed,68817205a84113384fffdfe3,68818d99fff696cda2c2aa9f,,,,,,,,,,,,,1,,,,,,,,,,,,,,,,,,,,,,,,,,,,,,,,,,,,,15,regar,,,,,284.6391,286.1875,0,0,1.0178,,0,0,0,14,1,REAL,FAKE,,,,,,,,,,,,,,,,,
,,,,,,,,,678e69996debb07354f037ed,Spanish,13 or older,"no, only English or Spanish",yes,2025-07-23_21h35.03.411,empathy_intonation_perc_control,2024.2.4,Win32,59.17159763,678e69996debb07354f037ed,68817205a84113384fffdfe3,68818d99fff696cda2c2aa9f,,,,,,,,,,,,,1,,,,,,,,,,,,,,,,,,,,,,,,,,,,,,,,,,,,,11,cenefa,,,,,286.191,288.0374,0,0,1.321,,0,1,1,10,1,REAL,FAKE,,,,,,,,,,,,,,,,,
,,,,,,,,,678e69996debb07354f037ed,Spanish,13 or older,"no, only English or Spanish",yes,2025-07-23_21h35.03.411,empathy_intonation_perc_control,2024.2.4,Win32,59.17159763,678e69996debb07354f037ed,68817205a84113384fffdfe3,68818d99fff696cda2c2aa9f,,,,,,,,,,,,,1,,,,,,,,,,,,,,,,,,,,,,,,,,,,,,,,,,,,,68,alegre,,,,,288.0401,289.5539,1,1,0.9894,,0,2,2,67,1,REAL,FAKE,,,,,,,,,,,,,,,,,
,,,,,,,,,678e69996debb07354f037ed,Spanish,13 or older,"no, only English or Spanish",yes,2025-07-23_21h35.03.411,empathy_intonation_perc_control,2024.2.4,Win32,59.17159763,678e69996debb07354f037ed,68817205a84113384fffdfe3,68818d99fff696cda2c2aa9f,,,,,,,,,,,,,0,,,,,,,,,,,,,,,,,,,,,,,,,,,,,,,,,,,,,1,terzo,,,,,289.5567,291.1045,0,1,1.0123,,0,3,3,0,1,REAL,FAKE,,,,,,,,,,,,,,,,,
,,,,,,,,,678e69996debb07354f037ed,Spanish,13 or older,"no, only English or Spanish",yes,2025-07-23_21h35.03.411,empathy_intonation_perc_control,2024.2.4,Win32,59.17159763,678e69996debb07354f037ed,68817205a84113384fffdfe3,68818d99fff696cda2c2aa9f,,,,,,,,,,,,,0,,,,,,,,,,,,,,,,,,,,,,,,,,,,,,,,,,,,,10,antar,,,,,291.1075,292.488,0,1,0.8553,,0,4,4,9,1,REAL,FAKE,,,,,,,,,,,,,,,,,
,,,,,,,,,678e69996debb07354f037ed,Spanish,13 or older,"no, only English or Spanish",yes,2025-07-23_21h35.03.411,empathy_intonation_perc_control,2024.2.4,Win32,59.17159763,678e69996debb07354f037ed,68817205a84113384fffdfe3,68818d99fff696cda2c2aa9f,,,,,,,,,,,,,1,,,,,,,,,,,,,,,,,,,,,,,,,,,,,,,,,,,,,48,ladrón,,,,,292.4915,295.0373,0,0,2.0129,,0,5,5,47,1,REAL,FAKE,,,,,,,,,,,,,,,,,
,,,,,,,,,678e69996debb07354f037ed,Spanish,13 or older,"no, only English or Spanish",yes,2025-07-23_21h35.03.411,empathy_intonation_perc_control,2024.2.4,Win32,59.17159763,678e69996debb07354f037ed,68817205a84113384fffdfe3,68818d99fff696cda2c2aa9f,,,,,,,,,,,,,1,,,,,,,,,,,,,,,,,,,,,,,,,,,,,,,,,,,,,88,acantilado,,,,,295.0398,296.5542,1,1,0.9795,,0,6,6,87,1,REAL,FAKE,,,,,,,,,,,,,,,,,
,,,,,,,,,678e69996debb07354f037ed,Spanish,13 or older,"no, only English or Spanish",yes,2025-07-23_21h35.03.411,empathy_intonation_perc_control,2024.2.4,Win32,59.17159763,678e69996debb07354f037ed,68817205a84113384fffdfe3,68818d99fff696cda2c2aa9f,,,,,,,,,,,,,1,,,,,,,,,,,,,,,,,,,,,,,,,,,,,,,,,,,,,62,flaco,,,,,296.5564,297.7877,1,1,0.6962,,0,7,7,61,1,REAL,FAKE,,,,,,,,,,,,,,,,,
,,,,,,,,,678e69996debb07354f037ed,Spanish,13 or older,"no, only English or Spanish",yes,2025-07-23_21h35.03.411,empathy_intonation_perc_control,2024.2.4,Win32,59.17159763,678e69996debb07354f037ed,68817205a84113384fffdfe3,68818d99fff696cda2c2aa9f,,,,,,,,,,,,,1,,,,,,,,,,,,,,,,,,,,,,,,,,,,,,,,,,,,,60,matar,,,,,297.7912,299.6051,0,0,1.2829,,0,8,8,59,1,REAL,FAKE,,,,,,,,,,,,,,,,,
,,,,,,,,,678e69996debb07354f037ed,Spanish,13 or older,"no, only English or Spanish",yes,2025-07-23_21h35.03.411,empathy_intonation_perc_control,2024.2.4,Win32,59.17159763,678e69996debb07354f037ed,68817205a84113384fffdfe3,68818d99fff696cda2c2aa9f,,,,,,,,,,,,,1,,,,,,,,,,,,,,,,,,,,,,,,,,,,,,,,,,,,,65,bizcocho,,,,,299.6078,301.6377,1,1,1.4956,,0,9,9,64,1,REAL,FAKE,,,,,,,,,,,,,,,,,
,,,,,,,,,678e69996debb07354f037ed,Spanish,13 or older,"no, only English or Spanish",yes,2025-07-23_21h35.03.411,empathy_intonation_perc_control,2024.2.4,Win32,59.17159763,678e69996debb07354f037ed,68817205a84113384fffdfe3,68818d99fff696cda2c2aa9f,,,,,,,,,,,,,1,,,,,,,,,,,,,,,,,,,,,,,,,,,,,,,,,,,,,31,pandilla,,,,,301.6398,302.8375,1,1,0.671,,0,10,10,30,1,REAL,FAKE,,,,,,,,,,,,,,,,,
,,,,,,,,,678e69996debb07354f037ed,Spanish,13 or older,"no, only English or Spanish",yes,2025-07-23_21h35.03.411,empathy_intonation_perc_control,2024.2.4,Win32,59.17159763,678e69996debb07354f037ed,68817205a84113384fffdfe3,68818d99fff696cda2c2aa9f,,,,,,,,,,,,,1,,,,,,,,,,,,,,,,,,,,,,,,,,,,,,,,,,,,,9,hacha,,,,,302.839,304.0038,1,1,0.6503,,0,11,11,8,1,REAL,FAKE,,,,,,,,,,,,,,,,,
,,,,,,,,,678e69996debb07354f037ed,Spanish,13 or older,"no, only English or Spanish",yes,2025-07-23_21h35.03.411,empathy_intonation_perc_control,2024.2.4,Win32,59.17159763,678e69996debb07354f037ed,68817205a84113384fffdfe3,68818d99fff696cda2c2aa9f,,,,,,,,,,,,,0,,,,,,,,,,,,,,,,,,,,,,,,,,,,,,,,,,,,,74,cintro,,,,,304.0061,305.7215,0,1,1.1964,,0,12,12,73,1,REAL,FAKE,,,,,,,,,,,,,,,,,
,,,,,,,,,678e69996debb07354f037ed,Spanish,13 or older,"no, only English or Spanish",yes,2025-07-23_21h35.03.411,empathy_intonation_perc_control,2024.2.4,Win32,59.17159763,678e69996debb07354f037ed,68817205a84113384fffdfe3,68818d99fff696cda2c2aa9f,,,,,,,,,,,,,1,,,,,,,,,,,,,,,,,,,,,,,,,,,,,,,,,,,,,76,atar,,,,,305.7234,306.9895,0,0,0.7318,,0,13,13,75,1,REAL,FAKE,,,,,,,,,,,,,,,,,
,,,,,,,,,678e69996debb07354f037ed,Spanish,13 or older,"no, only English or Spanish",yes,2025-07-23_21h35.03.411,empathy_intonation_perc_control,2024.2.4,Win32,59.17159763,678e69996debb07354f037ed,68817205a84113384fffdfe3,68818d99fff696cda2c2aa9f,,,,,,,,,,,,,1,,,,,,,,,,,,,,,,,,,,,,,,,,,,,,,,,,,,,49,ganar,,,,,306.9918,308.272,0,0,0.7484,,0,14,14,48,1,REAL,FAKE,,,,,,,,,,,,,,,,,
,,,,,,,,,678e69996debb07354f037ed,Spanish,13 or older,"no, only English or Spanish",yes,2025-07-23_21h35.03.411,empathy_intonation_perc_control,2024.2.4,Win32,59.17159763,678e69996debb07354f037ed,68817205a84113384fffdfe3,68818d99fff696cda2c2aa9f,,,,,,,,,,,,,1,,,,,,,,,,,,,,,,,,,,,,,,,,,,,,,,,,,,,80,hormiga,,,,,308.2735,309.9887,0,0,1.1812,,0,15,15,79,1,REAL,FAKE,,,,,,,,,,,,,,,,,
,,,,,,,,,678e69996debb07354f037ed,Spanish,13 or older,"no, only English or Spanish",yes,2025-07-23_21h35.03.411,empathy_intonation_perc_control,2024.2.4,Win32,59.17159763,678e69996debb07354f037ed,68817205a84113384fffdfe3,68818d99fff696cda2c2aa9f,,,,,,,,,,,,,1,,,,,,,,,,,,,,,,,,,,,,,,,,,,,,,,,,,,,89,prisa,,,,,309.9903,311.5879,0,0,1.066,,0,16,16,88,1,REAL,FAKE,,,,,,,,,,,,,,,,,
,,,,,,,,,678e69996debb07354f037ed,Spanish,13 or older,"no, only English or Spanish",yes,2025-07-23_21h35.03.411,empathy_intonation_perc_control,2024.2.4,Win32,59.17159763,678e69996debb07354f037ed,68817205a84113384fffdfe3,68818d99fff696cda2c2aa9f,,,,,,,,,,,,,1,,,,,,,,,,,,,,,,,,,,,,,,,,,,,,,,,,,,,64,orgulloso,,,,,311.5907,313.2396,0,0,1.1217,,0,17,17,63,1,REAL,FAKE,,,,,,,,,,,,,,,,,
,,,,,,,,,678e69996debb07354f037ed,Spanish,13 or older,"no, only English or Spanish",yes,2025-07-23_21h35.03.411,empathy_intonation_perc_control,2024.2.4,Win32,59.17159763,678e69996debb07354f037ed,68817205a84113384fffdfe3,68818d99fff696cda2c2aa9f,,,,,,,,,,,,,0,,,,,,,,,,,,,,,,,,,,,,,,,,,,,,,,,,,,,32,fatacidad,,,,,313.2419,315.3548,0,1,1.5795,,0,18,18,31,1,REAL,FAKE,,,,,,,,,,,,,,,,,
,,,,,,,,,678e69996debb07354f037ed,Spanish,13 or older,"no, only English or Spanish",yes,2025-07-23_21h35.03.411,empathy_intonation_perc_control,2024.2.4,Win32,59.17159763,678e69996debb07354f037ed,68817205a84113384fffdfe3,68818d99fff696cda2c2aa9f,,,,,,,,,,,,,0,,,,,,,,,,,,,,,,,,,,,,,,,,,,,,,,,,,,,33,pauca,,,,,315.3566,316.4543,1,0,0.5686,,0,19,19,32,1,REAL,FAKE,,,,,,,,,,,,,,,,,
,,,,,,,,,678e69996debb07354f037ed,Spanish,13 or older,"no, only English or Spanish",yes,2025-07-23_21h35.03.411,empathy_intonation_perc_control,2024.2.4,Win32,59.17159763,678e69996debb07354f037ed,68817205a84113384fffdfe3,68818d99fff696cda2c2aa9f,,,,,,,,,,,,,1,,,,,,,,,,,,,,,,,,,,,,,,,,,,,,,,,,,,,86,barato,,,,,316.4565,317.621,1,1,0.6466,,0,20,20,85,1,REAL,FAKE,,,,,,,,,,,,,,,,,
,,,,,,,,,678e69996debb07354f037ed,Spanish,13 or older,"no, only English or Spanish",yes,2025-07-23_21h35.03.411,empathy_intonation_perc_control,2024.2.4,Win32,59.17159763,678e69996debb07354f037ed,68817205a84113384fffdfe3,68818d99fff696cda2c2aa9f,,,,,,,,,,,,,0,,,,,,,,,,,,,,,,,,,,,,,,,,,,,,,,,,,,,4,batillón,,,,,317.6232,318.8565,1,0,0.7063,,0,21,21,3,1,REAL,FAKE,,,,,,,,,,,,,,,,,
,,,,,,,,,678e69996debb07354f037ed,Spanish,13 or older,"no, only English or Spanish",yes,2025-07-23_21h35.03.411,empathy_intonation_perc_control,2024.2.4,Win32,59.17159763,678e69996debb07354f037ed,68817205a84113384fffdfe3,68818d99fff696cda2c2aa9f,,,,,,,,,,,,,1,,,,,,,,,,,,,,,,,,,,,,,,,,,,,,,,,,,,,5,zapato,,,,,318.8579,320.0046,1,1,0.6196,,0,22,22,4,1,REAL,FAKE,,,,,,,,,,,,,,,,,
,,,,,,,,,678e69996debb07354f037ed,Spanish,13 or older,"no, only English or Spanish",yes,2025-07-23_21h35.03.411,empathy_intonation_perc_control,2024.2.4,Win32,59.17159763,678e69996debb07354f037ed,68817205a84113384fffdfe3,68818d99fff696cda2c2aa9f,,,,,,,,,,,,,1,,,,,,,,,,,,,,,,,,,,,,,,,,,,,,,,,,,,,59,besar,,,,,320.0067,321.1724,0,0,0.6331,,0,23,23,58,1,REAL,FAKE,,,,,,,,,,,,,,,,,
,,,,,,,,,678e69996debb07354f037ed,Spanish,13 or older,"no, only English or Spanish",yes,2025-07-23_21h35.03.411,empathy_intonation_perc_control,2024.2.4,Win32,59.17159763,678e69996debb07354f037ed,68817205a84113384fffdfe3,68818d99fff696cda2c2aa9f,,,,,,,,,,,,,0,,,,,,,,,,,,,,,,,,,,,,,,,,,,,,,,,,,,,18,arsa,,,,,321.1745,322.2884,0,1,0.5799,,0,24,24,17,1,REAL,FAKE,,,,,,,,,,,,,,,,,
,,,,,,,,,678e69996debb07354f037ed,Spanish,13 or older,"no, only English or Spanish",yes,2025-07-23_21h35.03.411,empathy_intonation_perc_control,2024.2.4,Win32,59.17159763,678e69996debb07354f037ed,68817205a84113384fffdfe3,68818d99fff696cda2c2aa9f,,,,,,,,,,,,,0,,,,,,,,,,,,,,,,,,,,,,,,,,,,,,,,,,,,,16,abracer,,,,,322.2909,323.3715,0,1,0.5467,,0,25,25,15,1,REAL,FAKE,,,,,,,,,,,,,,,,,
,,,,,,,,,678e69996debb07354f037ed,Spanish,13 or older,"no, only English or Spanish",yes,2025-07-23_21h35.03.411,empathy_intonation_perc_control,2024.2.4,Win32,59.17159763,678e69996debb07354f037ed,68817205a84113384fffdfe3,68818d99fff696cda2c2aa9f,,,,,,,,,,,,,0,,,,,,,,,,,,,,,,,,,,,,,,,,,,,,,,,,,,,27,acutación,,,,,323.3736,324.6053,1,0,0.7184,,0,26,26,26,1,REAL,FAKE,,,,,,,,,,,,,,,,,
,,,,,,,,,678e69996debb07354f037ed,Spanish,13 or older,"no, only English or Spanish",yes,2025-07-23_21h35.03.411,empathy_intonation_perc_control,2024.2.4,Win32,59.17159763,678e69996debb07354f037ed,68817205a84113384fffdfe3,68818d99fff696cda2c2aa9f,,,,,,,,,,,,,0,,,,,,,,,,,,,,,,,,,,,,,,,,,,,,,,,,,,,82,empirador,,,,,324.6076,325.888,0,1,0.7479,,0,27,27,81,1,REAL,FAKE,,,,,,,,,,,,,,,,,
,,,,,,,,,678e69996debb07354f037ed,Spanish,13 or older,"no, only English or Spanish",yes,2025-07-23_21h35.03.411,empathy_intonation_perc_control,2024.2.4,Win32,59.17159763,678e69996debb07354f037ed,68817205a84113384fffdfe3,68818d99fff696cda2c2aa9f,,,,,,,,,,,,,1,,,,,,,,,,,,,,,,,,,,,,,,,,,,,,,,,,,,,44,cuchara,,,,,325.8916,327.2555,1,1,0.8296,,0,28,28,43,1,REAL,FAKE,,,,,,,,,,,,,,,,,
,,,,,,,,,678e69996debb07354f037ed,Spanish,13 or older,"no, only English or Spanish",yes,2025-07-23_21h35.03.411,empathy_intonation_perc_control,2024.2.4,Win32,59.17159763,678e69996debb07354f037ed,68817205a84113384fffdfe3,68818d99fff696cda2c2aa9f,,,,,,,,,,,,,1,,,,,,,,,,,,,,,,,,,,,,,,,,,,,,,,,,,,,36,loro,,,,,327.2576,328.3885,1,1,0.5973,,0,29,29,35,1,REAL,FAKE,,,,,,,,,,,,,,,,,
,,,,,,,,,678e69996debb07354f037ed,Spanish,13 or older,"no, only English or Spanish",yes,2025-07-23_21h35.03.411,empathy_intonation_perc_control,2024.2.4,Win32,59.17159763,678e69996debb07354f037ed,68817205a84113384fffdfe3,68818d99fff696cda2c2aa9f,,,,,,,,,,,,,0,,,,,,,,,,,,,,,,,,,,,,,,,,,,,,,,,,,,,70,temblo,,,,,328.3904,329.522,0,1,0.5977,,0,30,30,69,1,REAL,FAKE,,,,,,,,,,,,,,,,,
,,,,,,,,,678e69996debb07354f037ed,Spanish,13 or older,"no, only English or Spanish",yes,2025-07-23_21h35.03.411,empathy_intonation_perc_control,2024.2.4,Win32,59.17159763,678e69996debb07354f037ed,68817205a84113384fffdfe3,68818d99fff696cda2c2aa9f,,,,,,,,,,,,,0,,,,,,,,,,,,,,,,,,,,,,,,,,,,,,,,,,,,,21,capillo,,,,,329.5239,330.9059,1,0,0.8637,,0,31,31,20,1,REAL,FAKE,,,,,,,,,,,,,,,,,
,,,,,,,,,678e69996debb07354f037ed,Spanish,13 or older,"no, only English or Spanish",yes,2025-07-23_21h35.03.411,empathy_intonation_perc_control,2024.2.4,Win32,59.17159763,678e69996debb07354f037ed,68817205a84113384fffdfe3,68818d99fff696cda2c2aa9f,,,,,,,,,,,,,1,,,,,,,,,,,,,,,,,,,,,,,,,,,,,,,,,,,,,75,yacer,,,,,330.9096,332.1056,0,0,0.6642,,0,32,32,74,1,REAL,FAKE,,,,,,,,,,,,,,,,,
,,,,,,,,,678e69996debb07354f037ed,Spanish,13 or older,"no, only English or Spanish",yes,2025-07-23_21h35.03.411,empathy_intonation_perc_control,2024.2.4,Win32,59.17159763,678e69996debb07354f037ed,68817205a84113384fffdfe3,68818d99fff696cda2c2aa9f,,,,,,,,,,,,,1,,,,,,,,,,,,,,,,,,,,,,,,,,,,,,,,,,,,,40,alfombra,,,,,332.1076,333.323,1,1,0.6846,,0,33,33,39,1,REAL,FAKE,,,,,,,,,,,,,,,,,
,,,,,,,,,678e69996debb07354f037ed,Spanish,13 or older,"no, only English or Spanish",yes,2025-07-23_21h35.03.411,empathy_intonation_perc_control,2024.2.4,Win32,59.17159763,678e69996debb07354f037ed,68817205a84113384fffdfe3,68818d99fff696cda2c2aa9f,,,,,,,,,,,,,0,,,,,,,,,,,,,,,,,,,,,,,,,,,,,,,,,,,,,63,esposante,,,,,333.3248,334.656,1,0,0.8009,,0,34,34,62,1,REAL,FAKE,,,,,,,,,,,,,,,,,
,,,,,,,,,678e69996debb07354f037ed,Spanish,13 or older,"no, only English or Spanish",yes,2025-07-23_21h35.03.411,empathy_intonation_perc_control,2024.2.4,Win32,59.17159763,678e69996debb07354f037ed,68817205a84113384fffdfe3,68818d99fff696cda2c2aa9f,,,,,,,,,,,,,1,,,,,,,,,,,,,,,,,,,,,,,,,,,,,,,,,,,,,46,martillo,,,,,334.659,335.7555,1,1,0.5663,,0,35,35,45,1,REAL,FAKE,,,,,,,,,,,,,,,,,
,,,,,,,,,678e69996debb07354f037ed,Spanish,13 or older,"no, only English or Spanish",yes,2025-07-23_21h35.03.411,empathy_intonation_perc_control,2024.2.4,Win32,59.17159763,678e69996debb07354f037ed,68817205a84113384fffdfe3,68818d99fff696cda2c2aa9f,,,,,,,,,,,,,1,,,,,,,,,,,,,,,,,,,,,,,,,,,,,,,,,,,,,43,canela,,,,,335.7572,336.8556,1,1,0.5649,,0,36,36,42,1,REAL,FAKE,,,,,,,,,,,,,,,,,
,,,,,,,,,678e69996debb07354f037ed,Spanish,13 or older,"no, only English or Spanish",yes,2025-07-23_21h35.03.411,empathy_intonation_perc_control,2024.2.4,Win32,59.17159763,678e69996debb07354f037ed,68817205a84113384fffdfe3,68818d99fff696cda2c2aa9f,,,,,,,,,,,,,1,,,,,,,,,,,,,,,,,,,,,,,,,,,,,,,,,,,,,41,rebuscar,,,,,336.8577,338.0068,0,0,0.6312,,0,37,37,40,1,REAL,FAKE,,,,,,,,,,,,,,,,,
,,,,,,,,,678e69996debb07354f037ed,Spanish,13 or older,"no, only English or Spanish",yes,2025-07-23_21h35.03.411,empathy_intonation_perc_control,2024.2.4,Win32,59.17159763,678e69996debb07354f037ed,68817205a84113384fffdfe3,68818d99fff696cda2c2aa9f,,,,,,,,,,,,,0,,,,,,,,,,,,,,,,,,,,,,,,,,,,,,,,,,,,,87,grodo,,,,,338.0104,339.1888,0,1,0.6461,,0,38,38,86,1,REAL,FAKE,,,,,,,,,,,,,,,,,
,,,,,,,,,678e69996debb07354f037ed,Spanish,13 or older,"no, only English or Spanish",yes,2025-07-23_21h35.03.411,empathy_intonation_perc_control,2024.2.4,Win32,59.17159763,678e69996debb07354f037ed,68817205a84113384fffdfe3,68818d99fff696cda2c2aa9f,,,,,,,,,,,,,1,,,,,,,,,,,,,,,,,,,,,,,,,,,,,,,,,,,,,7,pésimo,,,,,339.1908,340.2888,1,1,0.5645,,0,39,39,6,1,REAL,FAKE,,,,,,,,,,,,,,,,,
,,,,,,,,,678e69996debb07354f037ed,Spanish,13 or older,"no, only English or Spanish",yes,2025-07-23_21h35.03.411,empathy_intonation_perc_control,2024.2.4,Win32,59.17159763,678e69996debb07354f037ed,68817205a84113384fffdfe3,68818d99fff696cda2c2aa9f,,,,,,,,,,,,,1,,,,,,,,,,,,,,,,,,,,,,,,,,,,,,,,,,,,,61,seda,,,,,340.2911,341.6725,0,0,0.8476,,0,40,40,60,1,REAL,FAKE,,,,,,,,,,,,,,,,,
,,,,,,,,,678e69996debb07354f037ed,Spanish,13 or older,"no, only English or Spanish",yes,2025-07-23_21h35.03.411,empathy_intonation_perc_control,2024.2.4,Win32,59.17159763,678e69996debb07354f037ed,68817205a84113384fffdfe3,68818d99fff696cda2c2aa9f,,,,,,,,,,,,,0,,,,,,,,,,,,,,,,,,,,,,,,,,,,,,,,,,,,,50,flamida,,,,,341.6745,343.2229,0,1,1.0305,,0,41,41,49,1,REAL,FAKE,,,,,,,,,,,,,,,,,
,,,,,,,,,678e69996debb07354f037ed,Spanish,13 or older,"no, only English or Spanish",yes,2025-07-23_21h35.03.411,empathy_intonation_perc_control,2024.2.4,Win32,59.17159763,678e69996debb07354f037ed,68817205a84113384fffdfe3,68818d99fff696cda2c2aa9f,,,,,,,,,,,,,1,,,,,,,,,,,,,,,,,,,,,,,,,,,,,,,,,,,,,83,guante,,,,,343.2251,344.6405,0,0,0.8885,,0,42,42,82,1,REAL,FAKE,,,,,,,,,,,,,,,,,
,,,,,,,,,678e69996debb07354f037ed,Spanish,13 or older,"no, only English or Spanish",yes,2025-07-23_21h35.03.411,empathy_intonation_perc_control,2024.2.4,Win32,59.17159763,678e69996debb07354f037ed,68817205a84113384fffdfe3,68818d99fff696cda2c2aa9f,,,,,,,,,,,,,0,,,,,,,,,,,,,,,,,,,,,,,,,,,,,,,,,,,,,92,click the 0 key.,,,,,344.6434,347.3236,0,1,2.1467,,0,43,43,91,1,REAL,FAKE,,,,,,,,,,,,,,,,,
,,,,,,,,,678e69996debb07354f037ed,Spanish,13 or older,"no, only English or Spanish",yes,2025-07-23_21h35.03.411,empathy_intonation_perc_control,2024.2.4,Win32,59.17159763,678e69996debb07354f037ed,68817205a84113384fffdfe3,68818d99fff696cda2c2aa9f,,,,,,,,,,,,,1,,,,,,,,,,,,,,,,,,,,,,,,,,,,,,,,,,,,,3,pulmones,,,,,347.3254,352.6239,1,1,4.7622,,0,44,44,2,1,REAL,FAKE,,,,,,,,,,,,,,,,,
,,,,,,,,,678e69996debb07354f037ed,Spanish,13 or older,"no, only English or Spanish",yes,2025-07-23_21h35.03.411,empathy_intonation_perc_control,2024.2.4,Win32,59.17159763,678e69996debb07354f037ed,68817205a84113384fffdfe3,68818d99fff696cda2c2aa9f,,,,,,,,,,,,,1,,,,,,,,,,,,,,,,,,,,,,,,,,,,,,,,,,,,,85,laúd,,,,,352.6271,353.8893,0,0,0.7351,,0,45,45,84,1,REAL,FAKE,,,,,,,,,,,,,,,,,
,,,,,,,,,678e69996debb07354f037ed,Spanish,13 or older,"no, only English or Spanish",yes,2025-07-23_21h35.03.411,empathy_intonation_perc_control,2024.2.4,Win32,59.17159763,678e69996debb07354f037ed,68817205a84113384fffdfe3,68818d99fff696cda2c2aa9f,,,,,,,,,,,,,0,,,,,,,,,,,,,,,,,,,,,,,,,,,,,,,,,,,,,17,floroso,,,,,353.8918,355.7575,0,1,1.3315,,0,46,46,16,1,REAL,FAKE,,,,,,,,,,,,,,,,,
,,,,,,,,,678e69996debb07354f037ed,Spanish,13 or older,"no, only English or Spanish",yes,2025-07-23_21h35.03.411,empathy_intonation_perc_control,2024.2.4,Win32,59.17159763,678e69996debb07354f037ed,68817205a84113384fffdfe3,68818d99fff696cda2c2aa9f,,,,,,,,,,,,,1,,,,,,,,,,,,,,,,,,,,,,,,,,,,,,,,,,,,,57,tacaño,,,,,355.7613,357.4897,0,0,1.1971,,0,47,47,56,1,REAL,FAKE,,,,,,,,,,,,,,,,,
,,,,,,,,,678e69996debb07354f037ed,Spanish,13 or older,"no, only English or Spanish",yes,2025-07-23_21h35.03.411,empathy_intonation_perc_control,2024.2.4,Win32,59.17159763,678e69996debb07354f037ed,68817205a84113384fffdfe3,68818d99fff696cda2c2aa9f,,,,,,,,,,,,,1,,,,,,,,,,,,,,,,,,,,,,,,,,,,,,,,,,,,,56,musgo,,,,,357.4922,358.991,0,0,0.9643,,0,48,48,55,1,REAL,FAKE,,,,,,,,,,,,,,,,,
,,,,,,,,,678e69996debb07354f037ed,Spanish,13 or older,"no, only English or Spanish",yes,2025-07-23_21h35.03.411,empathy_intonation_perc_control,2024.2.4,Win32,59.17159763,678e69996debb07354f037ed,68817205a84113384fffdfe3,68818d99fff696cda2c2aa9f,,,,,,,,,,,,,0,,,,,,,,,,,,,,,,,,,,,,,,,,,,,,,,,,,,,53,vegada,,,,,358.9947,360.6921,0,1,1.1727,,0,49,49,52,1,REAL,FAKE,,,,,,,,,,,,,,,,,
,,,,,,,,,678e69996debb07354f037ed,Spanish,13 or older,"no, only English or Spanish",yes,2025-07-23_21h35.03.411,empathy_intonation_perc_control,2024.2.4,Win32,59.17159763,678e69996debb07354f037ed,68817205a84113384fffdfe3,68818d99fff696cda2c2aa9f,,,,,,,,,,,,,0,,,,,,,,,,,,,,,,,,,,,,,,,,,,,,,,,,,,,79,tropaje,,,,,360.6946,361.8932,1,0,0.6639,,0,50,50,78,1,REAL,FAKE,,,,,,,,,,,,,,,,,
,,,,,,,,,678e69996debb07354f037ed,Spanish,13 or older,"no, only English or Spanish",yes,2025-07-23_21h35.03.411,empathy_intonation_perc_control,2024.2.4,Win32,59.17159763,678e69996debb07354f037ed,68817205a84113384fffdfe3,68818d99fff696cda2c2aa9f,,,,,,,,,,,,,1,,,,,,,,,,,,,,,,,,,,,,,,,,,,,,,,,,,,,14,yunque,,,,,361.8953,363.241,1,1,0.814,,0,51,51,13,1,REAL,FAKE,,,,,,,,,,,,,,,,,
,,,,,,,,,678e69996debb07354f037ed,Spanish,13 or older,"no, only English or Spanish",yes,2025-07-23_21h35.03.411,empathy_intonation_perc_control,2024.2.4,Win32,59.17159763,678e69996debb07354f037ed,68817205a84113384fffdfe3,68818d99fff696cda2c2aa9f,,,,,,,,,,,,,1,,,,,,,,,,,,,,,,,,,,,,,,,,,,,,,,,,,,,37,granuja,,,,,363.2434,364.5751,1,1,0.8073,,0,52,52,36,1,REAL,FAKE,,,,,,,,,,,,,,,,,
,,,,,,,,,678e69996debb07354f037ed,Spanish,13 or older,"no, only English or Spanish",yes,2025-07-23_21h35.03.411,empathy_intonation_perc_control,2024.2.4,Win32,59.17159763,678e69996debb07354f037ed,68817205a84113384fffdfe3,68818d99fff696cda2c2aa9f,,,,,,,,,,,,,0,,,,,,,,,,,,,,,,,,,,,,,,,,,,,,,,,,,,,30,alardio,,,,,364.5768,365.6749,0,1,0.5628,,0,53,53,29,1,REAL,FAKE,,,,,,,,,,,,,,,,,
,,,,,,,,,678e69996debb07354f037ed,Spanish,13 or older,"no, only English or Spanish",yes,2025-07-23_21h35.03.411,empathy_intonation_perc_control,2024.2.4,Win32,59.17159763,678e69996debb07354f037ed,68817205a84113384fffdfe3,68818d99fff696cda2c2aa9f,,,,,,,,,,,,,1,,,,,,,,,,,,,,,,,,,,,,,,,,,,,,,,,,,,,90,clavel,,,,,365.6781,366.9403,0,0,0.7352,,0,54,54,89,1,REAL,FAKE,,,,,,,,,,,,,,,,,
,,,,,,,,,678e69996debb07354f037ed,Spanish,13 or older,"no, only English or Spanish",yes,2025-07-23_21h35.03.411,empathy_intonation_perc_control,2024.2.4,Win32,59.17159763,678e69996debb07354f037ed,68817205a84113384fffdfe3,68818d99fff696cda2c2aa9f,,,,,,,,,,,,,0,,,,,,,,,,,,,,,,,,,,,,,,,,,,,,,,,,,,,23,lampera,,,,,366.9427,368.0581,1,0,0.589,,0,55,55,22,1,REAL,FAKE,,,,,,,,,,,,,,,,,
,,,,,,,,,678e69996debb07354f037ed,Spanish,13 or older,"no, only English or Spanish",yes,2025-07-23_21h35.03.411,empathy_intonation_perc_control,2024.2.4,Win32,59.17159763,678e69996debb07354f037ed,68817205a84113384fffdfe3,68818d99fff696cda2c2aa9f,,,,,,,,,,,,,1,,,,,,,,,,,,,,,,,,,,,,,,,,,,,,,,,,,,,26,secuestro,,,,,368.0597,369.3568,1,1,0.7629,,0,56,56,25,1,REAL,FAKE,,,,,,,,,,,,,,,,,
,,,,,,,,,678e69996debb07354f037ed,Spanish,13 or older,"no, only English or Spanish",yes,2025-07-23_21h35.03.411,empathy_intonation_perc_control,2024.2.4,Win32,59.17159763,678e69996debb07354f037ed,68817205a84113384fffdfe3,68818d99fff696cda2c2aa9f,,,,,,,,,,,,,1,,,,,,,,,,,,,,,,,,,,,,,,,,,,,,,,,,,,,39,torpe,,,,,369.3594,370.6246,0,0,0.7478,,0,57,57,38,1,REAL,FAKE,,,,,,,,,,,,,,,,,
,,,,,,,,,678e69996debb07354f037ed,Spanish,13 or older,"no, only English or Spanish",yes,2025-07-23_21h35.03.411,empathy_intonation_perc_control,2024.2.4,Win32,59.17159763,678e69996debb07354f037ed,68817205a84113384fffdfe3,68818d99fff696cda2c2aa9f,,,,,,,,,,,,,1,,,,,,,,,,,,,,,,,,,,,,,,,,,,,,,,,,,,,71,polvoriento,,,,,370.6267,371.9417,0,0,0.7794,,0,58,58,70,1,REAL,FAKE,,,,,,,,,,,,,,,,,
,,,,,,,,,678e69996debb07354f037ed,Spanish,13 or older,"no, only English or Spanish",yes,2025-07-23_21h35.03.411,empathy_intonation_perc_control,2024.2.4,Win32,59.17159763,678e69996debb07354f037ed,68817205a84113384fffdfe3,68818d99fff696cda2c2aa9f,,,,,,,,,,,,,0,,,,,,,,,,,,,,,,,,,,,,,,,,,,,,,,,,,,,35,rompido,,,,,371.9435,373.2074,1,0,0.7316,,0,59,59,34,1,REAL,FAKE,,,,,,,,,,,,,,,,,
,,,,,,,,,678e69996debb07354f037ed,Spanish,13 or older,"no, only English or Spanish",yes,2025-07-23_21h35.03.411,empathy_intonation_perc_control,2024.2.4,Win32,59.17159763,678e69996debb07354f037ed,68817205a84113384fffdfe3,68818d99fff696cda2c2aa9f,,,,,,,,,,,,,1,,,,,,,,,,,,,,,,,,,,,,,,,,,,,,,,,,,,,34,aviso,,,,,373.2101,374.4903,0,0,0.7487,,0,60,60,33,1,REAL,FAKE,,,,,,,,,,,,,,,,,
,,,,,,,,,678e69996debb07354f037ed,Spanish,13 or older,"no, only English or Spanish",yes,2025-07-23_21h35.03.411,empathy_intonation_perc_control,2024.2.4,Win32,59.17159763,678e69996debb07354f037ed,68817205a84113384fffdfe3,68818d99fff696cda2c2aa9f,,,,,,,,,,,,,1,,,,,,,,,,,,,,,,,,,,,,,,,,,,,,,,,,,,,45,jilguero,,,,,374.4921,375.7077,0,0,0.6942,,0,61,61,44,1,REAL,FAKE,,,,,,,,,,,,,,,,,
,,,,,,,,,678e69996debb07354f037ed,Spanish,13 or older,"no, only English or Spanish",yes,2025-07-23_21h35.03.411,empathy_intonation_perc_control,2024.2.4,Win32,59.17159763,678e69996debb07354f037ed,68817205a84113384fffdfe3,68818d99fff696cda2c2aa9f,,,,,,,,,,,,,1,,,,,,,,,,,,,,,,,,,,,,,,,,,,,,,,,,,,,91,click the 1 key.,,,,,375.7113,377.425,1,1,1.1893,,0,62,62,90,1,REAL,FAKE,,,,,,,,,,,,,,,,,
,,,,,,,,,678e69996debb07354f037ed,Spanish,13 or older,"no, only English or Spanish",yes,2025-07-23_21h35.03.411,empathy_intonation_perc_control,2024.2.4,Win32,59.17159763,678e69996debb07354f037ed,68817205a84113384fffdfe3,68818d99fff696cda2c2aa9f,,,,,,,,,,,,,0,,,,,,,,,,,,,,,,,,,,,,,,,,,,,,,,,,,,,58,plaudir,,,,,377.4276,378.8914,0,1,0.9304,,0,63,63,57,1,REAL,FAKE,,,,,,,,,,,,,,,,,
,,,,,,,,,678e69996debb07354f037ed,Spanish,13 or older,"no, only English or Spanish",yes,2025-07-23_21h35.03.411,empathy_intonation_perc_control,2024.2.4,Win32,59.17159763,678e69996debb07354f037ed,68817205a84113384fffdfe3,68818d99fff696cda2c2aa9f,,,,,,,,,,,,,1,,,,,,,,,,,,,,,,,,,,,,,,,,,,,,,,,,,,,77,tiburón,,,,,378.8942,380.1089,0,0,0.6799,,0,64,64,76,1,REAL,FAKE,,,,,,,,,,,,,,,,,
,,,,,,,,,678e69996debb07354f037ed,Spanish,13 or older,"no, only English or Spanish",yes,2025-07-23_21h35.03.411,empathy_intonation_perc_control,2024.2.4,Win32,59.17159763,678e69996debb07354f037ed,68817205a84113384fffdfe3,68818d99fff696cda2c2aa9f,,,,,,,,,,,,,1,,,,,,,,,,,,,,,,,,,,,,,,,,,,,,,,,,,,,69,engatusar,,,,,380.1107,381.2744,0,0,0.6293,,0,65,65,68,1,REAL,FAKE,,,,,,,,,,,,,,,,,
,,,,,,,,,678e69996debb07354f037ed,Spanish,13 or older,"no, only English or Spanish",yes,2025-07-23_21h35.03.411,empathy_intonation_perc_control,2024.2.4,Win32,59.17159763,678e69996debb07354f037ed,68817205a84113384fffdfe3,68818d99fff696cda2c2aa9f,,,,,,,,,,,,,0,,,,,,,,,,,,,,,,,,,,,,,,,,,,,,,,,,,,,8,cadeña,,,,,381.2778,382.5069,1,0,0.6994,,0,66,66,7,1,REAL,FAKE,,,,,,,,,,,,,,,,,
,,,,,,,,,678e69996debb07354f037ed,Spanish,13 or older,"no, only English or Spanish",yes,2025-07-23_21h35.03.411,empathy_intonation_perc_control,2024.2.4,Win32,59.17159763,678e69996debb07354f037ed,68817205a84113384fffdfe3,68818d99fff696cda2c2aa9f,,,,,,,,,,,,,1,,,,,,,,,,,,,,,,,,,,,,,,,,,,,,,,,,,,,81,pozo,,,,,382.5085,383.7587,0,0,0.7327,,0,67,67,80,1,REAL,FAKE,,,,,,,,,,,,,,,,,
,,,,,,,,,678e69996debb07354f037ed,Spanish,13 or older,"no, only English or Spanish",yes,2025-07-23_21h35.03.411,empathy_intonation_perc_control,2024.2.4,Win32,59.17159763,678e69996debb07354f037ed,68817205a84113384fffdfe3,68818d99fff696cda2c2aa9f,,,,,,,,,,,,,1,,,,,,,,,,,,,,,,,,,,,,,,,,,,,,,,,,,,,20,ávido,,,,,383.7625,384.8741,1,1,0.5833,,0,68,68,19,1,REAL,FAKE,,,,,,,,,,,,,,,,,
,,,,,,,,,678e69996debb07354f037ed,Spanish,13 or older,"no, only English or Spanish",yes,2025-07-23_21h35.03.411,empathy_intonation_perc_control,2024.2.4,Win32,59.17159763,678e69996debb07354f037ed,68817205a84113384fffdfe3,68818d99fff696cda2c2aa9f,,,,,,,,,,,,,1,,,,,,,,,,,,,,,,,,,,,,,,,,,,,,,,,,,,,24,látigo,,,,,384.8757,386.0918,0,0,0.6874,,0,69,69,23,1,REAL,FAKE,,,,,,,,,,,,,,,,,
,,,,,,,,,678e69996debb07354f037ed,Spanish,13 or older,"no, only English or Spanish",yes,2025-07-23_21h35.03.411,empathy_intonation_perc_control,2024.2.4,Win32,59.17159763,678e69996debb07354f037ed,68817205a84113384fffdfe3,68818d99fff696cda2c2aa9f,,,,,,,,,,,,,1,,,,,,,,,,,,,,,,,,,,,,,,,,,,,,,,,,,,,25,bisagra,,,,,386.0936,387.2417,0,0,0.6138,,0,70,70,24,1,REAL,FAKE,,,,,,,,,,,,,,,,,
,,,,,,,,,678e69996debb07354f037ed,Spanish,13 or older,"no, only English or Spanish",yes,2025-07-23_21h35.03.411,empathy_intonation_perc_control,2024.2.4,Win32,59.17159763,678e69996debb07354f037ed,68817205a84113384fffdfe3,68818d99fff696cda2c2aa9f,,,,,,,,,,,,,1,,,,,,,,,,,,,,,,,,,,,,,,,,,,,,,,,,,,,52,camisa,,,,,387.2445,388.3085,1,1,0.5299,,0,71,71,51,1,REAL,FAKE,,,,,,,,,,,,,,,,,
,,,,,,,,,678e69996debb07354f037ed,Spanish,13 or older,"no, only English or Spanish",yes,2025-07-23_21h35.03.411,empathy_intonation_perc_control,2024.2.4,Win32,59.17159763,678e69996debb07354f037ed,68817205a84113384fffdfe3,68818d99fff696cda2c2aa9f,,,,,,,,,,,,,1,,,,,,,,,,,,,,,,,,,,,,,,,,,,,,,,,,,,,73,hervidor,,,,,388.3105,389.5267,0,0,0.6911,,0,72,72,72,1,REAL,FAKE,,,,,,,,,,,,,,,,,
,,,,,,,,,678e69996debb07354f037ed,Spanish,13 or older,"no, only English or Spanish",yes,2025-07-23_21h35.03.411,empathy_intonation_perc_control,2024.2.4,Win32,59.17159763,678e69996debb07354f037ed,68817205a84113384fffdfe3,68818d99fff696cda2c2aa9f,,,,,,,,,,,,,0,,,,,,,,,,,,,,,,,,,,,,,,,,,,,,,,,,,,,42,cadallo,,,,,389.5285,390.6759,1,0,0.6162,,0,73,73,41,1,REAL,FAKE,,,,,,,,,,,,,,,,,
,,,,,,,,,678e69996debb07354f037ed,Spanish,13 or older,"no, only English or Spanish",yes,2025-07-23_21h35.03.411,empathy_intonation_perc_control,2024.2.4,Win32,59.17159763,678e69996debb07354f037ed,68817205a84113384fffdfe3,68818d99fff696cda2c2aa9f,,,,,,,,,,,,,1,,,,,,,,,,,,,,,,,,,,,,,,,,,,,,,,,,,,,78,frondoso,,,,,390.6778,391.858,0,0,0.6548,,0,74,74,77,1,REAL,FAKE,,,,,,,,,,,,,,,,,
,,,,,,,,,678e69996debb07354f037ed,Spanish,13 or older,"no, only English or Spanish",yes,2025-07-23_21h35.03.411,empathy_intonation_perc_control,2024.2.4,Win32,59.17159763,678e69996debb07354f037ed,68817205a84113384fffdfe3,68818d99fff696cda2c2aa9f,,,,,,,,,,,,,1,,,,,,,,,,,,,,,,,,,,,,,,,,,,,,,,,,,,,13,helar,,,,,391.8602,392.9418,0,0,0.5636,,0,75,75,12,1,REAL,FAKE,,,,,,,,,,,,,,,,,
,,,,,,,,,678e69996debb07354f037ed,Spanish,13 or older,"no, only English or Spanish",yes,2025-07-23_21h35.03.411,empathy_intonation_perc_control,2024.2.4,Win32,59.17159763,678e69996debb07354f037ed,68817205a84113384fffdfe3,68818d99fff696cda2c2aa9f,,,,,,,,,,,,,1,,,,,,,,,,,,,,,,,,,,,,,,,,,,,,,,,,,,,38,estornudar,,,,,392.9438,394.0413,0,0,0.5855,,0,76,76,37,1,REAL,FAKE,,,,,,,,,,,,,,,,,
,,,,,,,,,678e69996debb07354f037ed,Spanish,13 or older,"no, only English or Spanish",yes,2025-07-23_21h35.03.411,empathy_intonation_perc_control,2024.2.4,Win32,59.17159763,678e69996debb07354f037ed,68817205a84113384fffdfe3,68818d99fff696cda2c2aa9f,,,,,,,,,,,,,1,,,,,,,,,,,,,,,,,,,,,,,,,,,,,,,,,,,,,6,tergiversar,,,,,394.0432,395.1248,0,0,0.5709,,0,77,77,5,1,REAL,FAKE,,,,,,,,,,,,,,,,,
,,,,,,,,,678e69996debb07354f037ed,Spanish,13 or older,"no, only English or Spanish",yes,2025-07-23_21h35.03.411,empathy_intonation_perc_control,2024.2.4,Win32,59.17159763,678e69996debb07354f037ed,68817205a84113384fffdfe3,68818d99fff696cda2c2aa9f,,,,,,,,,,,,,0,,,,,,,,,,,,,,,,,,,,,,,,,,,,,,,,,,,,,66,hacido,,,,,395.127,395.993,0,1,0.3472,,0,78,78,65,1,REAL,FAKE,,,,,,,,,,,,,,,,,
,,,,,,,,,678e69996debb07354f037ed,Spanish,13 or older,"no, only English or Spanish",yes,2025-07-23_21h35.03.411,empathy_intonation_perc_control,2024.2.4,Win32,59.17159763,678e69996debb07354f037ed,68817205a84113384fffdfe3,68818d99fff696cda2c2aa9f,,,,,,,,,,,,,0,,,,,,,,,,,,,,,,,,,,,,,,,,,,,,,,,,,,,84,escuto,,,,,395.9954,396.9429,0,1,0.414,,0,79,79,83,1,REAL,FAKE,,,,,,,,,,,,,,,,,
,,,,,,,,,678e69996debb07354f037ed,Spanish,13 or older,"no, only English or Spanish",yes,2025-07-23_21h35.03.411,empathy_intonation_perc_control,2024.2.4,Win32,59.17159763,678e69996debb07354f037ed,68817205a84113384fffdfe3,68818d99fff696cda2c2aa9f,,,,,,,,,,,,,1,,,,,,,,,,,,,,,,,,,,,,,,,,,,,,,,,,,,,55,nevar,,,,,396.9445,398.2919,0,0,0.8132,,0,80,80,54,1,REAL,FAKE,,,,,,,,,,,,,,,,,
,,,,,,,,,678e69996debb07354f037ed,Spanish,13 or older,"no, only English or Spanish",yes,2025-07-23_21h35.03.411,empathy_intonation_perc_control,2024.2.4,Win32,59.17159763,678e69996debb07354f037ed,68817205a84113384fffdfe3,68818d99fff696cda2c2aa9f,,,,,,,,,,,,,0,,,,,,,,,,,,,,,,,,,,,,,,,,,,,,,,,,,,,19,brecedad,,,,,398.2937,399.5918,0,1,0.7801,,0,81,81,18,1,REAL,FAKE,,,,,,,,,,,,,,,,,
,,,,,,,,,678e69996debb07354f037ed,Spanish,13 or older,"no, only English or Spanish",yes,2025-07-23_21h35.03.411,empathy_intonation_perc_control,2024.2.4,Win32,59.17159763,678e69996debb07354f037ed,68817205a84113384fffdfe3,68818d99fff696cda2c2aa9f,,,,,,,,,,,,,0,,,,,,,,,,,,,,,,,,,,,,,,,,,,,,,,,,,,,47,cartinar,,,,,399.5935,400.6086,0,1,0.4981,,0,82,82,46,1,REAL,FAKE,,,,,,,,,,,,,,,,,
,,,,,,,,,678e69996debb07354f037ed,Spanish,13 or older,"no, only English or Spanish",yes,2025-07-23_21h35.03.411,empathy_intonation_perc_control,2024.2.4,Win32,59.17159763,678e69996debb07354f037ed,68817205a84113384fffdfe3,68818d99fff696cda2c2aa9f,,,,,,,,,,,,,0,,,,,,,,,,,,,,,,,,,,,,,,,,,,,,,,,,,,,29,decar,,,,,400.6108,404.3593,0,1,3.2138,,0,83,83,28,1,REAL,FAKE,,,,,,,,,,,,,,,,,
,,,,,,,,,678e69996debb07354f037ed,Spanish,13 or older,"no, only English or Spanish",yes,2025-07-23_21h35.03.411,empathy_intonation_perc_control,2024.2.4,Win32,59.17159763,678e69996debb07354f037ed,68817205a84113384fffdfe3,68818d99fff696cda2c2aa9f,,,,,,,,,,,,,1,,,,,,,,,,,,,,,,,,,,,,,,,,,,,,,,,,,,,28,merodear,,,,,404.3614,405.7598,0,0,0.8627,,0,84,84,27,1,REAL,FAKE,,,,,,,,,,,,,,,,,
,,,,,,,,,678e69996debb07354f037ed,Spanish,13 or older,"no, only English or Spanish",yes,2025-07-23_21h35.03.411,empathy_intonation_perc_control,2024.2.4,Win32,59.17159763,678e69996debb07354f037ed,68817205a84113384fffdfe3,68818d99fff696cda2c2aa9f,,,,,,,,,,,,,1,,,,,,,,,,,,,,,,,,,,,,,,,,,,,,,,,,,,,12,asesinato,,,,,405.762,406.943,0,0,0.6476,,0,85,85,11,1,REAL,FAKE,,,,,,,,,,,,,,,,,
,,,,,,,,,678e69996debb07354f037ed,Spanish,13 or older,"no, only English or Spanish",yes,2025-07-23_21h35.03.411,empathy_intonation_perc_control,2024.2.4,Win32,59.17159763,678e69996debb07354f037ed,68817205a84113384fffdfe3,68818d99fff696cda2c2aa9f,,,,,,,,,,,,,1,,,,,,,,,,,,,,,,,,,,,,,,,,,,,,,,,,,,,2,pellizcar,,,,,406.9447,407.859,0,0,0.3808,,0,86,86,1,1,REAL,FAKE,,,,,,,,,,,,,,,,,
,,,,,,,,,678e69996debb07354f037ed,Spanish,13 or older,"no, only English or Spanish",yes,2025-07-23_21h35.03.411,empathy_intonation_perc_control,2024.2.4,Win32,59.17159763,678e69996debb07354f037ed,68817205a84113384fffdfe3,68818d99fff696cda2c2aa9f,,,,,,,,,,,,,1,,,,,,,,,,,,,,,,,,,,,,,,,,,,,,,,,,,,,51,candado,,,,,407.8614,408.842,1,1,0.4487,,0,87,87,50,1,REAL,FAKE,,,,,,,,,,,,,,,,,
,,,,,,,,,678e69996debb07354f037ed,Spanish,13 or older,"no, only English or Spanish",yes,2025-07-23_21h35.03.411,empathy_intonation_perc_control,2024.2.4,Win32,59.17159763,678e69996debb07354f037ed,68817205a84113384fffdfe3,68818d99fff696cda2c2aa9f,,,,,,,,,,,,,1,,,,,,,,,,,,,,,,,,,,,,,,,,,,,,,,,,,,,67,cabello,,,,,408.8441,410.1428,1,1,0.7641,,0,88,88,66,1,REAL,FAKE,,,,,,,,,,,,,,,,,
,,,,,,,,,678e69996debb07354f037ed,Spanish,13 or older,"no, only English or Spanish",yes,2025-07-23_21h35.03.411,empathy_intonation_perc_control,2024.2.4,Win32,59.17159763,678e69996debb07354f037ed,68817205a84113384fffdfe3,68818d99fff696cda2c2aa9f,,,,,,,,,,,,,1,,,,,,,,,,,,,,,,,,,,,,,,,,,,,,,,,,,,,22,lacayo,,,,,410.1453,411.2597,0,0,0.59,,0,89,89,21,1,REAL,FAKE,,,,,,,,,,,,,,,,,
,,,,,,,,,678e69996debb07354f037ed,Spanish,13 or older,"no, only English or Spanish",yes,2025-07-23_21h35.03.411,empathy_intonation_perc_control,2024.2.4,Win32,59.17159763,678e69996debb07354f037ed,68817205a84113384fffdfe3,68818d99fff696cda2c2aa9f,,,,,,,,,,,,,1,,,,,,,,,,,,,,,,,,,,,,,,,,,,,,,,,,,,,54,fomentar,,,,,411.2613,412.8759,0,0,1.0798,,0,90,90,53,1,REAL,FAKE,,,,,,,,,,,,,,,,,
,,,,,,,,,678e69996debb07354f037ed,Spanish,13 or older,"no, only English or Spanish",yes,2025-07-23_21h35.03.411,empathy_intonation_perc_control,2024.2.4,Win32,59.17159763,678e69996debb07354f037ed,68817205a84113384fffdfe3,68818d99fff696cda2c2aa9f,,,,,,,,,,,,,0,,,,,,,,,,,,,,,,,,,,,,,,,,,,,,,,,,,,,72,pemición,,,,,412.878,413.9762,0,1,0.5632,,0,91,91,71,1,REAL,FAKE,,,,,,,,,,,,,,,,,
,,,,,,,,,678e69996debb07354f037ed,Spanish,13 or older,"no, only English or Spanish",yes,2025-07-23_21h35.03.411,empathy_intonation_perc_control,2024.2.4,Win32,59.17159763,678e69996debb07354f037ed,68817205a84113384fffdfe3,68818d99fff696cda2c2aa9f,,,,,,,,,,,,,,,,,,,,,,,,,,,,,,,,,,,,,,,,,,,,,,,,,,,,,,,,,,,,,,,,,,,,,413.9771,426.5498,,,,,,,,,,,,,,,
,,,,,,,,,678e69996debb07354f037ed,Spanish,13 or older,"no, only English or Spanish",yes,2025-07-23_21h35.03.411,empathy_intonation_perc_control,2024.2.4,Win32,59.17159763,678e69996debb07354f037ed,68817205a84113384fffdfe3,68818d99fff696cda2c2aa9f,,,,,,,,,,,,,,,,,,,,,,,,,,,1,,,,,,,,,,,,,,,,,,,,,,,,,,,,,,,,,,,,,,,,,,,,426.5728,431.4025,slightly agree,0,0,0,0,1,I can easily tell if someone else wants to enter a conversation.,1,0,1,0,,
,,,,,,,,,678e69996debb07354f037ed,Spanish,13 or older,"no, only English or Spanish",yes,2025-07-23_21h35.03.411,empathy_intonation_perc_control,2024.2.4,Win32,59.17159763,678e69996debb07354f037ed,68817205a84113384fffdfe3,68818d99fff696cda2c2aa9f,,,,,,,,,,,,,,,,,,,,,,,,,,,2,,,,,,,,,,,,,,,,,,,,,,,,,,,,,,,,,,,,,,,,,,,,431.4062,433.8344,strongly agree,0,1,1,1,1,I prefer animals to humans.,0,1,0,0,,
,,,,,,,,,678e69996debb07354f037ed,Spanish,13 or older,"no, only English or Spanish",yes,2025-07-23_21h35.03.411,empathy_intonation_perc_control,2024.2.4,Win32,59.17159763,678e69996debb07354f037ed,68817205a84113384fffdfe3,68818d99fff696cda2c2aa9f,,,,,,,,,,,,,,,,,,,,,,,,,,,3,,,,,,,,,,,,,,,,,,,,,,,,,,,,,,,,,,,,,,,,,,,,433.8374,438.1784,slightly disagree,0,2,2,2,1,I try to keep up with the current trends and fashions.,0,1,0,0,,
,,,,,,,,,678e69996debb07354f037ed,Spanish,13 or older,"no, only English or Spanish",yes,2025-07-23_21h35.03.411,empathy_intonation_perc_control,2024.2.4,Win32,59.17159763,678e69996debb07354f037ed,68817205a84113384fffdfe3,68818d99fff696cda2c2aa9f,,,,,,,,,,,,,,,,,,,,,,,,,,,4,,,,,,,,,,,,,,,,,,,,,,,,,,,,,,,,,,,,,,,,,,,,438.1828,444.0609,slightly agree,0,3,3,3,1,"I find it difficult to explain to others things that I understand easily,   when they don't understand it first time.",1,0,0,1,,
,,,,,,,,,678e69996debb07354f037ed,Spanish,13 or older,"no, only English or Spanish",yes,2025-07-23_21h35.03.411,empathy_intonation_perc_control,2024.2.4,Win32,59.17159763,678e69996debb07354f037ed,68817205a84113384fffdfe3,68818d99fff696cda2c2aa9f,,,,,,,,,,,,,,,,,,,,,,,,,,,5,,,,,,,,,,,,,,,,,,,,,,,,,,,,,,,,,,,,,,,,,,,,444.0633,446.5116,strongly agree,0,4,4,4,1,I dream most nights.,0,1,0,0,,
,,,,,,,,,678e69996debb07354f037ed,Spanish,13 or older,"no, only English or Spanish",yes,2025-07-23_21h35.03.411,empathy_intonation_perc_control,2024.2.4,Win32,59.17159763,678e69996debb07354f037ed,68817205a84113384fffdfe3,68818d99fff696cda2c2aa9f,,,,,,,,,,,,,,,,,,,,,,,,,,,6,,,,,,,,,,,,,,,,,,,,,,,,,,,,,,,,,,,,,,,,,,,,446.5161,448.0007,strongly agree,0,5,5,5,1,I really enjoy caring for other people.,1,0,1,0,,
,,,,,,,,,678e69996debb07354f037ed,Spanish,13 or older,"no, only English or Spanish",yes,2025-07-23_21h35.03.411,empathy_intonation_perc_control,2024.2.4,Win32,59.17159763,678e69996debb07354f037ed,68817205a84113384fffdfe3,68818d99fff696cda2c2aa9f,,,,,,,,,,,,,,,,,,,,,,,,,,,7,,,,,,,,,,,,,,,,,,,,,,,,,,,,,,,,,,,,,,,,,,,,448.0035,449.6347,strongly agree,0,6,6,6,1,I try to solve my own problems rather than discussing them with others.,0,1,0,0,,
,,,,,,,,,678e69996debb07354f037ed,Spanish,13 or older,"no, only English or Spanish",yes,2025-07-23_21h35.03.411,empathy_intonation_perc_control,2024.2.4,Win32,59.17159763,678e69996debb07354f037ed,68817205a84113384fffdfe3,68818d99fff696cda2c2aa9f,,,,,,,,,,,,,,,,,,,,,,,,,,,8,,,,,,,,,,,,,,,,,,,,,,,,,,,,,,,,,,,,,,,,,,,,449.6368,451.1444,strongly agree,0,7,7,7,1,I find it hard to know what to do in a social situation.,1,0,0,1,,
,,,,,,,,,678e69996debb07354f037ed,Spanish,13 or older,"no, only English or Spanish",yes,2025-07-23_21h35.03.411,empathy_intonation_perc_control,2024.2.4,Win32,59.17159763,678e69996debb07354f037ed,68817205a84113384fffdfe3,68818d99fff696cda2c2aa9f,,,,,,,,,,,,,,,,,,,,,,,,,,,9,,,,,,,,,,,,,,,,,,,,,,,,,,,,,,,,,,,,,,,,,,,,451.1472,457.3132,slightly agree,0,8,8,8,1,I am at my best first thing in the morning.,0,1,0,0,,
,,,,,,,,,678e69996debb07354f037ed,Spanish,13 or older,"no, only English or Spanish",yes,2025-07-23_21h35.03.411,empathy_intonation_perc_control,2024.2.4,Win32,59.17159763,678e69996debb07354f037ed,68817205a84113384fffdfe3,68818d99fff696cda2c2aa9f,,,,,,,,,,,,,,,,,,,,,,,,,,,10,,,,,,,,,,,,,,,,,,,,,,,,,,,,,,,,,,,,,,,,,,,,457.3173,460.5185,slightly agree,0,9,9,9,1,People often tell me that I went too far in driving my point home in a discussion.,1,0,0,1,,
,,,,,,,,,678e69996debb07354f037ed,Spanish,13 or older,"no, only English or Spanish",yes,2025-07-23_21h35.03.411,empathy_intonation_perc_control,2024.2.4,Win32,59.17159763,678e69996debb07354f037ed,68817205a84113384fffdfe3,68818d99fff696cda2c2aa9f,,,,,,,,,,,,,,,,,,,,,,,,,,,11,,,,,,,,,,,,,,,,,,,,,,,,,,,,,,,,,,,,,,,,,,,,460.5208,466.4464,slightly disagree,0,10,10,10,1,It doesn't bother me too much if I am late meeting a friend.,1,0,0,1,,
,,,,,,,,,678e69996debb07354f037ed,Spanish,13 or older,"no, only English or Spanish",yes,2025-07-23_21h35.03.411,empathy_intonation_perc_control,2024.2.4,Win32,59.17159763,678e69996debb07354f037ed,68817205a84113384fffdfe3,68818d99fff696cda2c2aa9f,,,,,,,,,,,,,,,,,,,,,,,,,,,12,,,,,,,,,,,,,,,,,,,,,,,,,,,,,,,,,,,,,,,,,,,,466.4515,470.8947,slightly disagree,0,11,11,11,1,"Friendships and relationships are just too difficult, so I tend not to 
  bother with them.",1,0,0,1,,
,,,,,,,,,678e69996debb07354f037ed,Spanish,13 or older,"no, only English or Spanish",yes,2025-07-23_21h35.03.411,empathy_intonation_perc_control,2024.2.4,Win32,59.17159763,678e69996debb07354f037ed,68817205a84113384fffdfe3,68818d99fff696cda2c2aa9f,,,,,,,,,,,,,,,,,,,,,,,,,,,13,,,,,,,,,,,,,,,,,,,,,,,,,,,,,,,,,,,,,,,,,,,,470.8987,472.8042,slightly disagree,0,12,12,12,1,"I would never break a law, no matter how minor.",0,1,0,0,,
,,,,,,,,,678e69996debb07354f037ed,Spanish,13 or older,"no, only English or Spanish",yes,2025-07-23_21h35.03.411,empathy_intonation_perc_control,2024.2.4,Win32,59.17159763,678e69996debb07354f037ed,68817205a84113384fffdfe3,68818d99fff696cda2c2aa9f,,,,,,,,,,,,,,,,,,,,,,,,,,,14,,,,,,,,,,,,,,,,,,,,,,,,,,,,,,,,,,,,,,,,,,,,472.8069,473.9286,slightly agree,0,13,13,13,1,I often find it difficult to judge if something is rude or polite.,1,0,0,1,,
,,,,,,,,,678e69996debb07354f037ed,Spanish,13 or older,"no, only English or Spanish",yes,2025-07-23_21h35.03.411,empathy_intonation_perc_control,2024.2.4,Win32,59.17159763,678e69996debb07354f037ed,68817205a84113384fffdfe3,68818d99fff696cda2c2aa9f,,,,,,,,,,,,,,,,,,,,,,,,,,,15,,,,,,,,,,,,,,,,,,,,,,,,,,,,,,,,,,,,,,,,,,,,473.9339,489.1965,slightly agree,0,14,14,14,1,"In a conversation, I tend to focus on my own thoughts rather than on what 
  my listener might be thinking.",1,0,0,1,,
,,,,,,,,,678e69996debb07354f037ed,Spanish,13 or older,"no, only English or Spanish",yes,2025-07-23_21h35.03.411,empathy_intonation_perc_control,2024.2.4,Win32,59.17159763,678e69996debb07354f037ed,68817205a84113384fffdfe3,68818d99fff696cda2c2aa9f,,,,,,,,,,,,,,,,,,,,,,,,,,,16,,,,,,,,,,,,,,,,,,,,,,,,,,,,,,,,,,,,,,,,,,,,489.1999,493.214,slightly disagree,0,15,15,15,1,I prefer practical jokes to verbal humor.,0,1,0,0,,
,,,,,,,,,678e69996debb07354f037ed,Spanish,13 or older,"no, only English or Spanish",yes,2025-07-23_21h35.03.411,empathy_intonation_perc_control,2024.2.4,Win32,59.17159763,678e69996debb07354f037ed,68817205a84113384fffdfe3,68818d99fff696cda2c2aa9f,,,,,,,,,,,,,,,,,,,,,,,,,,,17,,,,,,,,,,,,,,,,,,,,,,,,,,,,,,,,,,,,,,,,,,,,493.2163,496.0966,strongly agree,0,16,16,16,1,I live life for today rather than the future.,0,1,0,0,,
,,,,,,,,,678e69996debb07354f037ed,Spanish,13 or older,"no, only English or Spanish",yes,2025-07-23_21h35.03.411,empathy_intonation_perc_control,2024.2.4,Win32,59.17159763,678e69996debb07354f037ed,68817205a84113384fffdfe3,68818d99fff696cda2c2aa9f,,,,,,,,,,,,,,,,,,,,,,,,,,,18,,,,,,,,,,,,,,,,,,,,,,,,,,,,,,,,,,,,,,,,,,,,496.1007,499.2198,strongly disagree,0,17,17,17,1,"When I was a child, I enjoyed cutting up worms to see what would happen.",1,0,0,1,,
,,,,,,,,,678e69996debb07354f037ed,Spanish,13 or older,"no, only English or Spanish",yes,2025-07-23_21h35.03.411,empathy_intonation_perc_control,2024.2.4,Win32,59.17159763,678e69996debb07354f037ed,68817205a84113384fffdfe3,68818d99fff696cda2c2aa9f,,,,,,,,,,,,,,,,,,,,,,,,,,,19,,,,,,,,,,,,,,,,,,,,,,,,,,,,,,,,,,,,,,,,,,,,499.2229,503.3463,strongly agree,0,18,18,18,1,I can pick up quickly if someone says one thing but means another.,1,0,1,0,,
,,,,,,,,,678e69996debb07354f037ed,Spanish,13 or older,"no, only English or Spanish",yes,2025-07-23_21h35.03.411,empathy_intonation_perc_control,2024.2.4,Win32,59.17159763,678e69996debb07354f037ed,68817205a84113384fffdfe3,68818d99fff696cda2c2aa9f,,,,,,,,,,,,,,,,,,,,,,,,,,,20,,,,,,,,,,,,,,,,,,,,,,,,,,,,,,,,,,,,,,,,,,,,503.3508,507.7045,slightly agree,0,19,19,19,1,I tend to have very strong opinions about morality.,0,1,0,0,,
,,,,,,,,,678e69996debb07354f037ed,Spanish,13 or older,"no, only English or Spanish",yes,2025-07-23_21h35.03.411,empathy_intonation_perc_control,2024.2.4,Win32,59.17159763,678e69996debb07354f037ed,68817205a84113384fffdfe3,68818d99fff696cda2c2aa9f,,,,,,,,,,,,,,,,,,,,,,,,,,,21,,,,,,,,,,,,,,,,,,,,,,,,,,,,,,,,,,,,,,,,,,,,507.7067,509.9148,slightly agree,0,20,20,20,1,It is hard for me to see why some things upset people so much.,1,0,0,1,,
,,,,,,,,,678e69996debb07354f037ed,Spanish,13 or older,"no, only English or Spanish",yes,2025-07-23_21h35.03.411,empathy_intonation_perc_control,2024.2.4,Win32,59.17159763,678e69996debb07354f037ed,68817205a84113384fffdfe3,68818d99fff696cda2c2aa9f,,,,,,,,,,,,,,,,,,,,,,,,,,,22,,,,,,,,,,,,,,,,,,,,,,,,,,,,,,,,,,,,,,,,,,,,509.919,512.7211,slightly agree,0,21,21,21,1,I find it easy to put myself in somebody else's shoes.,1,0,1,0,,
,,,,,,,,,678e69996debb07354f037ed,Spanish,13 or older,"no, only English or Spanish",yes,2025-07-23_21h35.03.411,empathy_intonation_perc_control,2024.2.4,Win32,59.17159763,678e69996debb07354f037ed,68817205a84113384fffdfe3,68818d99fff696cda2c2aa9f,,,,,,,,,,,,,,,,,,,,,,,,,,,23,,,,,,,,,,,,,,,,,,,,,,,,,,,,,,,,,,,,,,,,,,,,512.7238,517.5313,slightly disagree,0,22,22,22,1,I think that good manners are the most important thing a parent can teach their child.,0,1,0,0,,
,,,,,,,,,678e69996debb07354f037ed,Spanish,13 or older,"no, only English or Spanish",yes,2025-07-23_21h35.03.411,empathy_intonation_perc_control,2024.2.4,Win32,59.17159763,678e69996debb07354f037ed,68817205a84113384fffdfe3,68818d99fff696cda2c2aa9f,,,,,,,,,,,,,,,,,,,,,,,,,,,24,,,,,,,,,,,,,,,,,,,,,,,,,,,,,,,,,,,,,,,,,,,,517.5343,520.3875,slightly disagree,0,23,23,23,1,I like to do things on the spur of the moment.,0,1,0,0,,
