instructions_2afc.started,instructions_2afc.stopped,instructions_2afc_loop.thisRepN,instructions_2afc_loop.thisTrialN,instructions_2afc_loop.thisN,instructions_2afc_loop.thisIndex,instructions_2afc_loop.ran,instructions_text,continue_text,participant_id,"What variety of Spanish are you most familiar with? (e.g., Peruvian, Spanish, Mexican)",At what age did you begin learning Spanish?,Are you proficient in any languages other than English/Spanish?,"Are you familiar with Caribbean (e.g., Caribbean, Puerto Rican) or Galician Spanish?",date,expName,psychopyVersion,OS,frameRate,id,study_id,session,practice_2afc.started,practice_2afc.stopped,key_resp_2afc_practice.keys,key_resp_2afc_practice.corr,key_resp_2afc_practice.rt,key_resp_2afc_practice.duration,trials_2afc_practice_loop.thisRepN,trials_2afc_practice_loop.thisTrialN,trials_2afc_practice_loop.thisN,trials_2afc_practice_loop.thisIndex,trials_2afc_practice_loop.ran,path,correct_response,check_2afc.started,check_2afc.stopped,trial_2afc.started,trial_2afc.stopped,key_resp_2afc_trial.keys,key_resp_2afc_trial.corr,key_resp_2afc_trial.rt,key_resp_2afc_trial.duration,trials_2afc_loop.thisRepN,trials_2afc_loop.thisTrialN,trials_2afc_loop.thisN,trials_2afc_loop.thisIndex,trials_2afc_loop.ran,item_num,target,variety,instructions_lextale.started,instructions_lextale.stopped,instructions_lextale_loop.thisRepN,instructions_lextale_loop.thisTrialN,instructions_lextale_loop.thisN,instructions_lextale_loop.thisIndex,instructions_lextale_loop.ran,practice_lextale.started,practice_lextale.stopped,key_resp_lextale_practice.keys,key_resp_lextale_practice.corr,key_resp_lextale_practice.rt,key_resp_lextale_practice.duration,practice_feedback_lextale.started,practice_feedback_lextale.stopped,trials_lextale_practice_loop.thisRepN,trials_lextale_practice_loop.thisTrialN,trials_lextale_practice_loop.thisN,trials_lextale_practice_loop.thisIndex,trials_lextale_practice_loop.ran,stim,word,prac_button_real,prac_button_false,check_lextale.started,check_lextale.stopped,trial_lextale.started,trial_lextale.stopped,key_resp_lextale_trial.keys,key_resp_lextale_trial.corr,key_resp_lextale_trial.rt,key_resp_lextale_trial.duration,trials_lextale_loop.thisRepN,trials_lextale_loop.thisTrialN,trials_lextale_loop.thisN,trials_lextale_loop.thisIndex,trials_lextale_loop.ran,button_real,button_false,instructions_eq.started,instructions_eq.stopped,trial_eq.started,trial_eq.stopped,slider_eq_trial.response,trials_eq_loop.thisRepN,trials_eq_loop.thisTrialN,trials_eq_loop.thisN,trials_eq_loop.thisIndex,trials_eq_loop.ran,item,is_test_item,is_distractor,is_agree_score,is_disagree_score,end_exp.started,end_exp.stopped
0.0431,22.1119,0,0,0,0,1,"In the following task you are going to hear a series of utterances. 

  You will decide if the utterances sound like questions or not using your keyboard.", (press the spacebar to continue),67913c61b0348a0c3a92405d,spanish,13 or older,"no, only English or Spanish",no,2025-07-24_10h46.30.626,empathy_intonation_perc_control,2024.2.4,Win32,59.88023952,67913c61b0348a0c3a92405d,68817205a84113384fffdfe3,688246927f86b36d94dbae51,,,,,,,,,,,,,,,,,,,,,,,,,,,,,,,,,,,,,,,,,,,,,,,,,,,,,,,,,,,,,,,,,,,,,,,,,,,,,,,,,,,,,
22.113,29.8694,0,1,1,1,1,"If you believe the utterance is a question, type '1' (for 'yes') and if you do not 
  believe it is a question type '0' (for 'no').

  Let's practice a bit...", (press the spacebar to continue),67913c61b0348a0c3a92405d,spanish,13 or older,"no, only English or Spanish",no,2025-07-24_10h46.30.626,empathy_intonation_perc_control,2024.2.4,Win32,59.88023952,67913c61b0348a0c3a92405d,68817205a84113384fffdfe3,688246927f86b36d94dbae51,,,,,,,,,,,,,,,,,,,,,,,,,,,,,,,,,,,,,,,,,,,,,,,,,,,,,,,,,,,,,,,,,,,,,,,,,,,,,,,,,,,,,
,,,,,,,,,67913c61b0348a0c3a92405d,spanish,13 or older,"no, only English or Spanish",no,2025-07-24_10h46.30.626,empathy_intonation_perc_control,2024.2.4,Win32,59.88023952,67913c61b0348a0c3a92405d,68817205a84113384fffdfe3,688246927f86b36d94dbae51,29.8879,38.7152,0,1,8.301,,0,0,0,4,1,./stim/wavs/cuban_statement_filler_Cocinabas-por-la-noche.wav,0,,,,,,,,,,,,,,,,,,,,,,,,,,,,,,,,,,,,,,,,,,,,,,,,,,,,,,,,,,,,,,,,,,,,,,,,
,,,,,,,,,67913c61b0348a0c3a92405d,spanish,13 or older,"no, only English or Spanish",no,2025-07-24_10h46.30.626,empathy_intonation_perc_control,2024.2.4,Win32,59.88023952,67913c61b0348a0c3a92405d,68817205a84113384fffdfe3,688246927f86b36d94dbae51,38.7186,42.448,1,1,3.203400001,,0,1,1,3,1,./stim/wavs/mexican_question_filler_Felipe-no-tiene-contrasena.wav,1,,,,,,,,,,,,,,,,,,,,,,,,,,,,,,,,,,,,,,,,,,,,,,,,,,,,,,,,,,,,,,,,,,,,,,,,
,,,,,,,,,67913c61b0348a0c3a92405d,spanish,13 or older,"no, only English or Spanish",no,2025-07-24_10h46.30.626,empathy_intonation_perc_control,2024.2.4,Win32,59.88023952,67913c61b0348a0c3a92405d,68817205a84113384fffdfe3,688246927f86b36d94dbae51,42.4496,47.3168,0,0,4.3374,,0,2,2,1,1,./stim/wavs/argentine_question_filler_Mi-vecino-habla-mucho.wav,1,,,,,,,,,,,,,,,,,,,,,,,,,,,,,,,,,,,,,,,,,,,,,,,,,,,,,,,,,,,,,,,,,,,,,,,,
,,,,,,,,,67913c61b0348a0c3a92405d,spanish,13 or older,"no, only English or Spanish",no,2025-07-24_10h46.30.626,empathy_intonation_perc_control,2024.2.4,Win32,59.88023952,67913c61b0348a0c3a92405d,68817205a84113384fffdfe3,688246927f86b36d94dbae51,47.3181,51.0314,0,0,3.1857,,0,3,3,0,1,./stim/wavs/castilian_question_filler_Mi-esposo-conoce-al-chico.wav,1,,,,,,,,,,,,,,,,,,,,,,,,,,,,,,,,,,,,,,,,,,,,,,,,,,,,,,,,,,,,,,,,,,,,,,,,
,,,,,,,,,67913c61b0348a0c3a92405d,spanish,13 or older,"no, only English or Spanish",no,2025-07-24_10h46.30.626,empathy_intonation_perc_control,2024.2.4,Win32,59.88023952,67913c61b0348a0c3a92405d,68817205a84113384fffdfe3,688246927f86b36d94dbae51,51.0333,55.598,0,1,4.0362,,0,4,4,6,1,./stim/wavs/peruvian_statement_filler_El-nino-habla-con-su-madre.wav,0,,,,,,,,,,,,,,,,,,,,,,,,,,,,,,,,,,,,,,,,,,,,,,,,,,,,,,,,,,,,,,,,,,,,,,,,
,,,,,,,,,67913c61b0348a0c3a92405d,spanish,13 or older,"no, only English or Spanish",no,2025-07-24_10h46.30.626,empathy_intonation_perc_control,2024.2.4,Win32,59.88023952,67913c61b0348a0c3a92405d,68817205a84113384fffdfe3,688246927f86b36d94dbae51,55.6,60.3168,0,1,4.1995,,0,5,5,5,1,./stim/wavs/andalusian_statement_filler_Alberto-nunca-se-afeita.wav,0,,,,,,,,,,,,,,,,,,,,,,,,,,,,,,,,,,,,,,,,,,,,,,,,,,,,,,,,,,,,,,,,,,,,,,,,
,,,,,,,,,67913c61b0348a0c3a92405d,spanish,13 or older,"no, only English or Spanish",no,2025-07-24_10h46.30.626,empathy_intonation_perc_control,2024.2.4,Win32,59.88023952,67913c61b0348a0c3a92405d,68817205a84113384fffdfe3,688246927f86b36d94dbae51,60.3181,65.3169,0,0,4.467400001,,0,6,6,2,1,./stim/wavs/chilean_question_filler_Mi-padre-cantaba-bien.wav,1,,,,,,,,,,,,,,,,,,,,,,,,,,,,,,,,,,,,,,,,,,,,,,,,,,,,,,,,,,,,,,,,,,,,,,,,
,,,,,,,,,67913c61b0348a0c3a92405d,spanish,13 or older,"no, only English or Spanish",no,2025-07-24_10h46.30.626,empathy_intonation_perc_control,2024.2.4,Win32,59.88023952,67913c61b0348a0c3a92405d,68817205a84113384fffdfe3,688246927f86b36d94dbae51,65.3184,68.3169,0,1,2.4784,,0,7,7,7,1,./stim/wavs/puertorican_statement_filler_La-nina-pinta-con-su-amiga.wav,0,,,,,,,,,,,,,,,,,,,,,,,,,,,,,,,,,,,,,,,,,,,,,,,,,,,,,,,,,,,,,,,,,,,,,,,,
,,,,,,,,,67913c61b0348a0c3a92405d,spanish,13 or older,"no, only English or Spanish",no,2025-07-24_10h46.30.626,empathy_intonation_perc_control,2024.2.4,Win32,59.88023952,67913c61b0348a0c3a92405d,68817205a84113384fffdfe3,688246927f86b36d94dbae51,,,,,,,,,,,,,,68.3177,73.5317,,,,,,,,,,,,,,,,,,,,,,,,,,,,,,,,,,,,,,,,,,,,,,,,,,,,,,,,,,,,,,,,,,,,,,
,,,,,,,,,67913c61b0348a0c3a92405d,spanish,13 or older,"no, only English or Spanish",no,2025-07-24_10h46.30.626,empathy_intonation_perc_control,2024.2.4,Win32,59.88023952,67913c61b0348a0c3a92405d,68817205a84113384fffdfe3,688246927f86b36d94dbae51,,,,,,,,,,,,./stim/wavs/castilian_mismatch_declarative-broad-focus_La-maestra-vive-en-Paris.wav,0,,,73.5529,76.9698,0,1,2.898299999,,0,0,0,69,1,70,0,castilian,,,,,,,,,,,,,,,,,,,,,,,,,,,,,,,,,,,,,,,,,,,,,,,,,,,,,,,,
,,,,,,,,,67913c61b0348a0c3a92405d,spanish,13 or older,"no, only English or Spanish",no,2025-07-24_10h46.30.626,empathy_intonation_perc_control,2024.2.4,Win32,59.88023952,67913c61b0348a0c3a92405d,68817205a84113384fffdfe3,688246927f86b36d94dbae51,,,,,,,,,,,,./stim/wavs/puertorican_mismatch_interrogative-total-yn_El-nino-oye-el-rio.wav,1,,,76.9709,79.1315,0,0,1.6344,,0,1,1,40,1,41,1,puertorican,,,,,,,,,,,,,,,,,,,,,,,,,,,,,,,,,,,,,,,,,,,,,,,,,,,,,,,,
,,,,,,,,,67913c61b0348a0c3a92405d,spanish,13 or older,"no, only English or Spanish",no,2025-07-24_10h46.30.626,empathy_intonation_perc_control,2024.2.4,Win32,59.88023952,67913c61b0348a0c3a92405d,68817205a84113384fffdfe3,688246927f86b36d94dbae51,,,,,,,,,,,,./stim/wavs/puertorican_mismatch_declarative-broad-focus_El-nino-oye-el-rio.wav,0,,,79.133,81.798,0,1,2.1411,,0,2,2,85,1,86,0,puertorican,,,,,,,,,,,,,,,,,,,,,,,,,,,,,,,,,,,,,,,,,,,,,,,,,,,,,,,,
,,,,,,,,,67913c61b0348a0c3a92405d,spanish,13 or older,"no, only English or Spanish",no,2025-07-24_10h46.30.626,empathy_intonation_perc_control,2024.2.4,Win32,59.88023952,67913c61b0348a0c3a92405d,68817205a84113384fffdfe3,688246927f86b36d94dbae51,,,,,,,,,,,,./stim/wavs/cuban_mismatch_declarative-broad-focus_El-hombre-mira-la-luna.wav,0,,,81.7997,84.9647,0,1,2.6428,,0,3,3,74,1,75,0,cuban,,,,,,,,,,,,,,,,,,,,,,,,,,,,,,,,,,,,,,,,,,,,,,,,,,,,,,,,
,,,,,,,,,67913c61b0348a0c3a92405d,spanish,13 or older,"no, only English or Spanish",no,2025-07-24_10h46.30.626,empathy_intonation_perc_control,2024.2.4,Win32,59.88023952,67913c61b0348a0c3a92405d,68817205a84113384fffdfe3,688246927f86b36d94dbae51,,,,,,,,,,,,./stim/wavs/puertorican_match_interrogative-total-yn_Emilio-ama-la-marcha.wav,1,,,84.9672,88.2147,0,0,2.724900001,,0,4,4,21,1,22,1,puertorican,,,,,,,,,,,,,,,,,,,,,,,,,,,,,,,,,,,,,,,,,,,,,,,,,,,,,,,,
,,,,,,,,,67913c61b0348a0c3a92405d,spanish,13 or older,"no, only English or Spanish",no,2025-07-24_10h46.30.626,empathy_intonation_perc_control,2024.2.4,Win32,59.88023952,67913c61b0348a0c3a92405d,68817205a84113384fffdfe3,688246927f86b36d94dbae51,,,,,,,,,,,,./stim/wavs/mexican_match_declarative-broad-focus_Daniel-iba-a-Bolivia.wav,0,,,88.2173,90.6514,0,1,1.9132,,0,5,5,57,1,58,0,mexican,,,,,,,,,,,,,,,,,,,,,,,,,,,,,,,,,,,,,,,,,,,,,,,,,,,,,,,,
,,,,,,,,,67913c61b0348a0c3a92405d,spanish,13 or older,"no, only English or Spanish",no,2025-07-24_10h46.30.626,empathy_intonation_perc_control,2024.2.4,Win32,59.88023952,67913c61b0348a0c3a92405d,68817205a84113384fffdfe3,688246927f86b36d94dbae51,,,,,,,,,,,,./stim/wavs/castilian_match_interrogative-total-yn_Maria-bebe-el-vino.wav,1,,,90.6522,93.498,0,0,2.3247,,0,6,6,3,1,4,0,castilian,,,,,,,,,,,,,,,,,,,,,,,,,,,,,,,,,,,,,,,,,,,,,,,,,,,,,,,,
,,,,,,,,,67913c61b0348a0c3a92405d,spanish,13 or older,"no, only English or Spanish",no,2025-07-24_10h46.30.626,empathy_intonation_perc_control,2024.2.4,Win32,59.88023952,67913c61b0348a0c3a92405d,68817205a84113384fffdfe3,688246927f86b36d94dbae51,,,,,,,,,,,,./stim/wavs/puertorican_match_declarative-broad-focus_Maria-bebe-el-vino.wav,0,,,93.4996,95.8814,0,1,1.8532,,0,7,7,67,1,68,0,puertorican,,,,,,,,,,,,,,,,,,,,,,,,,,,,,,,,,,,,,,,,,,,,,,,,,,,,,,,,
,,,,,,,,,67913c61b0348a0c3a92405d,spanish,13 or older,"no, only English or Spanish",no,2025-07-24_10h46.30.626,empathy_intonation_perc_control,2024.2.4,Win32,59.88023952,67913c61b0348a0c3a92405d,68817205a84113384fffdfe3,688246927f86b36d94dbae51,,,,,,,,,,,,./stim/wavs/cuban_mismatch_interrogative-total-yn_El-nino-oye-el-rio.wav,1,,,95.8829,98.0646,0,0,1.6505,,0,8,8,30,1,31,1,cuban,,,,,,,,,,,,,,,,,,,,,,,,,,,,,,,,,,,,,,,,,,,,,,,,,,,,,,,,
,,,,,,,,,67913c61b0348a0c3a92405d,spanish,13 or older,"no, only English or Spanish",no,2025-07-24_10h46.30.626,empathy_intonation_perc_control,2024.2.4,Win32,59.88023952,67913c61b0348a0c3a92405d,68817205a84113384fffdfe3,688246927f86b36d94dbae51,,,,,,,,,,,,./stim/wavs/cuban_mismatch_declarative-broad-focus_Mi-novio-viene-del-lago.wav,0,,,98.0676,100.5481,0,1,1.9589,,0,9,9,76,1,77,0,cuban,,,,,,,,,,,,,,,,,,,,,,,,,,,,,,,,,,,,,,,,,,,,,,,,,,,,,,,,
,,,,,,,,,67913c61b0348a0c3a92405d,spanish,13 or older,"no, only English or Spanish",no,2025-07-24_10h46.30.626,empathy_intonation_perc_control,2024.2.4,Win32,59.88023952,67913c61b0348a0c3a92405d,68817205a84113384fffdfe3,688246927f86b36d94dbae51,,,,,,,,,,,,./stim/wavs/castilian_match_interrogative-total-yn_Manuela-vende-el-carro.wav,1,,,100.5496,104.598,0,0,3.519400001,,0,10,10,2,1,3,0,castilian,,,,,,,,,,,,,,,,,,,,,,,,,,,,,,,,,,,,,,,,,,,,,,,,,,,,,,,,
,,,,,,,,,67913c61b0348a0c3a92405d,spanish,13 or older,"no, only English or Spanish",no,2025-07-24_10h46.30.626,empathy_intonation_perc_control,2024.2.4,Win32,59.88023952,67913c61b0348a0c3a92405d,68817205a84113384fffdfe3,688246927f86b36d94dbae51,,,,,,,,,,,,./stim/wavs/puertorican_match_interrogative-total-yn_Ana-lleva-el-abrigo.wav,1,,,104.5996,107.6341,0,0,2.5257,,0,11,11,18,1,19,1,puertorican,,,,,,,,,,,,,,,,,,,,,,,,,,,,,,,,,,,,,,,,,,,,,,,,,,,,,,,,
,,,,,,,,,67913c61b0348a0c3a92405d,spanish,13 or older,"no, only English or Spanish",no,2025-07-24_10h46.30.626,empathy_intonation_perc_control,2024.2.4,Win32,59.88023952,67913c61b0348a0c3a92405d,68817205a84113384fffdfe3,688246927f86b36d94dbae51,,,,,,,,,,,,./stim/wavs/cuban_match_declarative-broad-focus_Maria-bebe-el-vino.wav,0,,,107.6352,110.1151,0,1,1.9605,,0,12,12,53,1,54,0,cuban,,,,,,,,,,,,,,,,,,,,,,,,,,,,,,,,,,,,,,,,,,,,,,,,,,,,,,,,
,,,,,,,,,67913c61b0348a0c3a92405d,spanish,13 or older,"no, only English or Spanish",no,2025-07-24_10h46.30.626,empathy_intonation_perc_control,2024.2.4,Win32,59.88023952,67913c61b0348a0c3a92405d,68817205a84113384fffdfe3,688246927f86b36d94dbae51,,,,,,,,,,,,./stim/wavs/puertorican_match_declarative-broad-focus_Manuela-vende-el-carro.wav,0,,,110.1173,112.4648,0,1,1.8175,,0,13,13,66,1,67,0,puertorican,,,,,,,,,,,,,,,,,,,,,,,,,,,,,,,,,,,,,,,,,,,,,,,,,,,,,,,,
,,,,,,,,,67913c61b0348a0c3a92405d,spanish,13 or older,"no, only English or Spanish",no,2025-07-24_10h46.30.626,empathy_intonation_perc_control,2024.2.4,Win32,59.88023952,67913c61b0348a0c3a92405d,68817205a84113384fffdfe3,688246927f86b36d94dbae51,,,,,,,,,,,,./stim/wavs/mexican_match_declarative-broad-focus_David-leia-el-libro.wav,0,,,112.4671,114.7813,0,1,1.791,,0,14,14,58,1,59,0,mexican,,,,,,,,,,,,,,,,,,,,,,,,,,,,,,,,,,,,,,,,,,,,,,,,,,,,,,,,
,,,,,,,,,67913c61b0348a0c3a92405d,spanish,13 or older,"no, only English or Spanish",no,2025-07-24_10h46.30.626,empathy_intonation_perc_control,2024.2.4,Win32,59.88023952,67913c61b0348a0c3a92405d,68817205a84113384fffdfe3,688246927f86b36d94dbae51,,,,,,,,,,,,./stim/wavs/puertorican_match_interrogative-total-yn_Manuela-vende-el-carro.wav,1,,,114.7829,117.2003,0,0,1.895,,0,15,15,22,1,23,1,puertorican,,,,,,,,,,,,,,,,,,,,,,,,,,,,,,,,,,,,,,,,,,,,,,,,,,,,,,,,
,,,,,,,,,67913c61b0348a0c3a92405d,spanish,13 or older,"no, only English or Spanish",no,2025-07-24_10h46.30.626,empathy_intonation_perc_control,2024.2.4,Win32,59.88023952,67913c61b0348a0c3a92405d,68817205a84113384fffdfe3,688246927f86b36d94dbae51,,,,,,,,,,,,./stim/wavs/mexican_mismatch_declarative-broad-focus_La-maestra-vive-en-Paris.wav,0,,,117.2015,119.5827,0,1,1.86,,0,16,16,80,1,81,0,mexican,,,,,,,,,,,,,,,,,,,,,,,,,,,,,,,,,,,,,,,,,,,,,,,,,,,,,,,,
,,,,,,,,,67913c61b0348a0c3a92405d,spanish,13 or older,"no, only English or Spanish",no,2025-07-24_10h46.30.626,empathy_intonation_perc_control,2024.2.4,Win32,59.88023952,67913c61b0348a0c3a92405d,68817205a84113384fffdfe3,688246927f86b36d94dbae51,,,,,,,,,,,,./stim/wavs/mexican_mismatch_declarative-broad-focus_El-bebe-comia-muy-bien.wav,0,,,119.5837,123.5002,0,1,3.3944,,0,17,17,78,1,79,0,mexican,,,,,,,,,,,,,,,,,,,,,,,,,,,,,,,,,,,,,,,,,,,,,,,,,,,,,,,,
,,,,,,,,,67913c61b0348a0c3a92405d,spanish,13 or older,"no, only English or Spanish",no,2025-07-24_10h46.30.626,empathy_intonation_perc_control,2024.2.4,Win32,59.88023952,67913c61b0348a0c3a92405d,68817205a84113384fffdfe3,688246927f86b36d94dbae51,,,,,,,,,,,,./stim/wavs/cuban_match_declarative-broad-focus_Manuela-vende-el-carro.wav,0,,,123.5014,126.2147,0,1,2.1833,,0,18,18,52,1,53,0,cuban,,,,,,,,,,,,,,,,,,,,,,,,,,,,,,,,,,,,,,,,,,,,,,,,,,,,,,,,
,,,,,,,,,67913c61b0348a0c3a92405d,spanish,13 or older,"no, only English or Spanish",no,2025-07-24_10h46.30.626,empathy_intonation_perc_control,2024.2.4,Win32,59.88023952,67913c61b0348a0c3a92405d,68817205a84113384fffdfe3,688246927f86b36d94dbae51,,,,,,,,,,,,./stim/wavs/cuban_match_declarative-broad-focus_Ana-lleva-el-abrigo.wav,0,,,126.2169,128.5512,0,1,1.81,,0,19,19,50,1,51,0,cuban,,,,,,,,,,,,,,,,,,,,,,,,,,,,,,,,,,,,,,,,,,,,,,,,,,,,,,,,
,,,,,,,,,67913c61b0348a0c3a92405d,spanish,13 or older,"no, only English or Spanish",no,2025-07-24_10h46.30.626,empathy_intonation_perc_control,2024.2.4,Win32,59.88023952,67913c61b0348a0c3a92405d,68817205a84113384fffdfe3,688246927f86b36d94dbae51,,,,,,,,,,,,./stim/wavs/cuban_match_declarative-broad-focus_Marta-abre-el-regalo.wav,0,,,128.5528,130.9146,0,1,1.8401,,0,20,20,55,1,56,0,cuban,,,,,,,,,,,,,,,,,,,,,,,,,,,,,,,,,,,,,,,,,,,,,,,,,,,,,,,,
,,,,,,,,,67913c61b0348a0c3a92405d,spanish,13 or older,"no, only English or Spanish",no,2025-07-24_10h46.30.626,empathy_intonation_perc_control,2024.2.4,Win32,59.88023952,67913c61b0348a0c3a92405d,68817205a84113384fffdfe3,688246927f86b36d94dbae51,,,,,,,,,,,,./stim/wavs/mexican_match_declarative-broad-focus_Marta-abre-el-regalo.wav,0,,,130.9169,133.1147,0,1,1.6735,,0,21,21,61,1,62,0,mexican,,,,,,,,,,,,,,,,,,,,,,,,,,,,,,,,,,,,,,,,,,,,,,,,,,,,,,,,
,,,,,,,,,67913c61b0348a0c3a92405d,spanish,13 or older,"no, only English or Spanish",no,2025-07-24_10h46.30.626,empathy_intonation_perc_control,2024.2.4,Win32,59.88023952,67913c61b0348a0c3a92405d,68817205a84113384fffdfe3,688246927f86b36d94dbae51,,,,,,,,,,,,./stim/wavs/puertorican_mismatch_declarative-broad-focus_La-nina-lava-el-plato.wav,0,,,133.1171,135.2649,0,1,1.625900001,,0,22,22,87,1,88,0,puertorican,,,,,,,,,,,,,,,,,,,,,,,,,,,,,,,,,,,,,,,,,,,,,,,,,,,,,,,,
,,,,,,,,,67913c61b0348a0c3a92405d,spanish,13 or older,"no, only English or Spanish",no,2025-07-24_10h46.30.626,empathy_intonation_perc_control,2024.2.4,Win32,59.88023952,67913c61b0348a0c3a92405d,68817205a84113384fffdfe3,688246927f86b36d94dbae51,,,,,,,,,,,,./stim/wavs/mexican_match_declarative-broad-focus_Emilio-ama-la-marcha.wav,0,,,135.2672,137.8313,0,1,2.034,,0,23,23,59,1,60,0,mexican,,,,,,,,,,,,,,,,,,,,,,,,,,,,,,,,,,,,,,,,,,,,,,,,,,,,,,,,
,,,,,,,,,67913c61b0348a0c3a92405d,spanish,13 or older,"no, only English or Spanish",no,2025-07-24_10h46.30.626,empathy_intonation_perc_control,2024.2.4,Win32,59.88023952,67913c61b0348a0c3a92405d,68817205a84113384fffdfe3,688246927f86b36d94dbae51,,,,,,,,,,,,./stim/wavs/puertorican_match_declarative-broad-focus_David-leia-el-libro.wav,0,,,137.8329,141.3671,0,1,3.0042,,0,24,24,64,1,65,0,puertorican,,,,,,,,,,,,,,,,,,,,,,,,,,,,,,,,,,,,,,,,,,,,,,,,,,,,,,,,
,,,,,,,,,67913c61b0348a0c3a92405d,spanish,13 or older,"no, only English or Spanish",no,2025-07-24_10h46.30.626,empathy_intonation_perc_control,2024.2.4,Win32,59.88023952,67913c61b0348a0c3a92405d,68817205a84113384fffdfe3,688246927f86b36d94dbae51,,,,,,,,,,,,./stim/wavs/castilian_mismatch_interrogative-total-yn_La-nina-lava-el-plato.wav,1,,,141.368,144.1527,0,0,2.251,,0,25,25,25,1,26,0,castilian,,,,,,,,,,,,,,,,,,,,,,,,,,,,,,,,,,,,,,,,,,,,,,,,,,,,,,,,
,,,,,,,,,67913c61b0348a0c3a92405d,spanish,13 or older,"no, only English or Spanish",no,2025-07-24_10h46.30.626,empathy_intonation_perc_control,2024.2.4,Win32,59.88023952,67913c61b0348a0c3a92405d,68817205a84113384fffdfe3,688246927f86b36d94dbae51,,,,,,,,,,,,./stim/wavs/castilian_match_interrogative-total-yn_Mariano-habla-del-tiempo.wav,1,,,144.1538,149.4173,1,1,4.7226,,0,26,26,4,1,5,0,castilian,,,,,,,,,,,,,,,,,,,,,,,,,,,,,,,,,,,,,,,,,,,,,,,,,,,,,,,,
,,,,,,,,,67913c61b0348a0c3a92405d,spanish,13 or older,"no, only English or Spanish",no,2025-07-24_10h46.30.626,empathy_intonation_perc_control,2024.2.4,Win32,59.88023952,67913c61b0348a0c3a92405d,68817205a84113384fffdfe3,688246927f86b36d94dbae51,,,,,,,,,,,,./stim/wavs/cuban_match_interrogative-total-yn_Manuela-vende-el-carro.wav,1,,,149.4179,151.9193,0,0,1.9672,,0,27,27,8,1,9,1,cuban,,,,,,,,,,,,,,,,,,,,,,,,,,,,,,,,,,,,,,,,,,,,,,,,,,,,,,,,
,,,,,,,,,67913c61b0348a0c3a92405d,spanish,13 or older,"no, only English or Spanish",no,2025-07-24_10h46.30.626,empathy_intonation_perc_control,2024.2.4,Win32,59.88023952,67913c61b0348a0c3a92405d,68817205a84113384fffdfe3,688246927f86b36d94dbae51,,,,,,,,,,,,./stim/wavs/mexican_mismatch_declarative-broad-focus_El-hombre-mira-la-luna.wav,0,,,151.92,154.2695,0,1,1.818,,0,28,28,79,1,80,0,mexican,,,,,,,,,,,,,,,,,,,,,,,,,,,,,,,,,,,,,,,,,,,,,,,,,,,,,,,,
,,,,,,,,,67913c61b0348a0c3a92405d,spanish,13 or older,"no, only English or Spanish",no,2025-07-24_10h46.30.626,empathy_intonation_perc_control,2024.2.4,Win32,59.88023952,67913c61b0348a0c3a92405d,68817205a84113384fffdfe3,688246927f86b36d94dbae51,,,,,,,,,,,,./stim/wavs/castilian_match_declarative-broad-focus_Mariano-habla-del-tiempo.wav,0,,,154.2702,159.6526,1,0,4.851400001,,0,29,29,48,1,49,0,castilian,,,,,,,,,,,,,,,,,,,,,,,,,,,,,,,,,,,,,,,,,,,,,,,,,,,,,,,,
,,,,,,,,,67913c61b0348a0c3a92405d,spanish,13 or older,"no, only English or Spanish",no,2025-07-24_10h46.30.626,empathy_intonation_perc_control,2024.2.4,Win32,59.88023952,67913c61b0348a0c3a92405d,68817205a84113384fffdfe3,688246927f86b36d94dbae51,,,,,,,,,,,,./stim/wavs/mexican_match_interrogative-total-yn_Emilio-ama-la-marcha.wav,1,,,159.6534,162.571,0,0,2.3862,,0,30,30,15,1,16,0,mexican,,,,,,,,,,,,,,,,,,,,,,,,,,,,,,,,,,,,,,,,,,,,,,,,,,,,,,,,
,,,,,,,,,67913c61b0348a0c3a92405d,spanish,13 or older,"no, only English or Spanish",no,2025-07-24_10h46.30.626,empathy_intonation_perc_control,2024.2.4,Win32,59.88023952,67913c61b0348a0c3a92405d,68817205a84113384fffdfe3,688246927f86b36d94dbae51,,,,,,,,,,,,./stim/wavs/mexican_mismatch_interrogative-total-yn_El-nino-oye-el-rio.wav,1,,,162.5717,164.5531,0,0,1.4504,,0,31,31,35,1,36,0,mexican,,,,,,,,,,,,,,,,,,,,,,,,,,,,,,,,,,,,,,,,,,,,,,,,,,,,,,,,
,,,,,,,,,67913c61b0348a0c3a92405d,spanish,13 or older,"no, only English or Spanish",no,2025-07-24_10h46.30.626,empathy_intonation_perc_control,2024.2.4,Win32,59.88023952,67913c61b0348a0c3a92405d,68817205a84113384fffdfe3,688246927f86b36d94dbae51,,,,,,,,,,,,./stim/wavs/puertorican_mismatch_interrogative-total-yn_El-hombre-mira-la-luna.wav,1,,,164.5545,166.8693,0,0,1.8,,0,32,32,39,1,40,1,puertorican,,,,,,,,,,,,,,,,,,,,,,,,,,,,,,,,,,,,,,,,,,,,,,,,,,,,,,,,
,,,,,,,,,67913c61b0348a0c3a92405d,spanish,13 or older,"no, only English or Spanish",no,2025-07-24_10h46.30.626,empathy_intonation_perc_control,2024.2.4,Win32,59.88023952,67913c61b0348a0c3a92405d,68817205a84113384fffdfe3,688246927f86b36d94dbae51,,,,,,,,,,,,./stim/wavs/cuban_match_interrogative-total-yn_Mariano-habla-del-tiempo.wav,1,,,166.8702,170.1382,1,1,2.7372,,0,33,33,10,1,11,1,cuban,,,,,,,,,,,,,,,,,,,,,,,,,,,,,,,,,,,,,,,,,,,,,,,,,,,,,,,,
,,,,,,,,,67913c61b0348a0c3a92405d,spanish,13 or older,"no, only English or Spanish",no,2025-07-24_10h46.30.626,empathy_intonation_perc_control,2024.2.4,Win32,59.88023952,67913c61b0348a0c3a92405d,68817205a84113384fffdfe3,688246927f86b36d94dbae51,,,,,,,,,,,,./stim/wavs/puertorican_match_declarative-broad-focus_Daniel-iba-a-Bolivia.wav,0,,,170.1391,172.5534,0,1,1.884400001,,0,34,34,63,1,64,0,puertorican,,,,,,,,,,,,,,,,,,,,,,,,,,,,,,,,,,,,,,,,,,,,,,,,,,,,,,,,
,,,,,,,,,67913c61b0348a0c3a92405d,spanish,13 or older,"no, only English or Spanish",no,2025-07-24_10h46.30.626,empathy_intonation_perc_control,2024.2.4,Win32,59.88023952,67913c61b0348a0c3a92405d,68817205a84113384fffdfe3,688246927f86b36d94dbae51,,,,,,,,,,,,./stim/wavs/castilian_match_interrogative-total-yn_Marta-abre-el-regalo.wav,1,,,172.5542,175.1698,0,0,2.0846,,0,35,35,5,1,6,0,castilian,,,,,,,,,,,,,,,,,,,,,,,,,,,,,,,,,,,,,,,,,,,,,,,,,,,,,,,,
,,,,,,,,,67913c61b0348a0c3a92405d,spanish,13 or older,"no, only English or Spanish",no,2025-07-24_10h46.30.626,empathy_intonation_perc_control,2024.2.4,Win32,59.88023952,67913c61b0348a0c3a92405d,68817205a84113384fffdfe3,688246927f86b36d94dbae51,,,,,,,,,,,,./stim/wavs/castilian_mismatch_declarative-broad-focus_Mi-tia-odia-la-lluvia.wav,0,,,175.1708,177.7192,0,1,2.017400001,,0,36,36,72,1,73,0,castilian,,,,,,,,,,,,,,,,,,,,,,,,,,,,,,,,,,,,,,,,,,,,,,,,,,,,,,,,
,,,,,,,,,67913c61b0348a0c3a92405d,spanish,13 or older,"no, only English or Spanish",no,2025-07-24_10h46.30.626,empathy_intonation_perc_control,2024.2.4,Win32,59.88023952,67913c61b0348a0c3a92405d,68817205a84113384fffdfe3,688246927f86b36d94dbae51,,,,,,,,,,,,./stim/wavs/mexican_match_interrogative-total-yn_Ana-lleva-el-abrigo.wav,1,,,177.7201,180.2025,0,0,1.9671,,0,37,37,12,1,13,0,mexican,,,,,,,,,,,,,,,,,,,,,,,,,,,,,,,,,,,,,,,,,,,,,,,,,,,,,,,,
,,,,,,,,,67913c61b0348a0c3a92405d,spanish,13 or older,"no, only English or Spanish",no,2025-07-24_10h46.30.626,empathy_intonation_perc_control,2024.2.4,Win32,59.88023952,67913c61b0348a0c3a92405d,68817205a84113384fffdfe3,688246927f86b36d94dbae51,,,,,,,,,,,,./stim/wavs/castilian_mismatch_declarative-broad-focus_La-nina-lava-el-plato.wav,0,,,180.2034,182.7033,0,1,1.9683,,0,38,38,70,1,71,0,castilian,,,,,,,,,,,,,,,,,,,,,,,,,,,,,,,,,,,,,,,,,,,,,,,,,,,,,,,,
,,,,,,,,,67913c61b0348a0c3a92405d,spanish,13 or older,"no, only English or Spanish",no,2025-07-24_10h46.30.626,empathy_intonation_perc_control,2024.2.4,Win32,59.88023952,67913c61b0348a0c3a92405d,68817205a84113384fffdfe3,688246927f86b36d94dbae51,,,,,,,,,,,,./stim/wavs/castilian_match_declarative-broad-focus_David-leia-el-libro.wav,0,,,182.704,185.4369,0,1,2.2015,,0,39,39,44,1,45,0,castilian,,,,,,,,,,,,,,,,,,,,,,,,,,,,,,,,,,,,,,,,,,,,,,,,,,,,,,,,
,,,,,,,,,67913c61b0348a0c3a92405d,spanish,13 or older,"no, only English or Spanish",no,2025-07-24_10h46.30.626,empathy_intonation_perc_control,2024.2.4,Win32,59.88023952,67913c61b0348a0c3a92405d,68817205a84113384fffdfe3,688246927f86b36d94dbae51,,,,,,,,,,,,./stim/wavs/mexican_match_interrogative-total-yn_Marta-abre-el-regalo.wav,1,,,185.4377,187.7019,0,0,1.733599999,,0,40,40,17,1,18,0,mexican,,,,,,,,,,,,,,,,,,,,,,,,,,,,,,,,,,,,,,,,,,,,,,,,,,,,,,,,
,,,,,,,,,67913c61b0348a0c3a92405d,spanish,13 or older,"no, only English or Spanish",no,2025-07-24_10h46.30.626,empathy_intonation_perc_control,2024.2.4,Win32,59.88023952,67913c61b0348a0c3a92405d,68817205a84113384fffdfe3,688246927f86b36d94dbae51,,,,,,,,,,,,./stim/wavs/castilian_mismatch_interrogative-total-yn_Mi-novio-viene-del-lago.wav,1,,,187.7026,190.303,0,0,2.0677,,0,41,41,27,1,28,0,castilian,,,,,,,,,,,,,,,,,,,,,,,,,,,,,,,,,,,,,,,,,,,,,,,,,,,,,,,,
,,,,,,,,,67913c61b0348a0c3a92405d,spanish,13 or older,"no, only English or Spanish",no,2025-07-24_10h46.30.626,empathy_intonation_perc_control,2024.2.4,Win32,59.88023952,67913c61b0348a0c3a92405d,68817205a84113384fffdfe3,688246927f86b36d94dbae51,,,,,,,,,,,,./stim/wavs/mexican_match_interrogative-total-yn_Daniel-iba-a-Bolivia.wav,1,,,190.3038,192.7185,0,0,1.8838,,0,42,42,13,1,14,0,mexican,,,,,,,,,,,,,,,,,,,,,,,,,,,,,,,,,,,,,,,,,,,,,,,,,,,,,,,,
,,,,,,,,,67913c61b0348a0c3a92405d,spanish,13 or older,"no, only English or Spanish",no,2025-07-24_10h46.30.626,empathy_intonation_perc_control,2024.2.4,Win32,59.88023952,67913c61b0348a0c3a92405d,68817205a84113384fffdfe3,688246927f86b36d94dbae51,,,,,,,,,,,,./stim/wavs/castilian_match_declarative-broad-focus_Marta-abre-el-regalo.wav,0,,,192.7196,195.6698,0,1,2.417900001,,0,43,43,49,1,50,0,castilian,,,,,,,,,,,,,,,,,,,,,,,,,,,,,,,,,,,,,,,,,,,,,,,,,,,,,,,,
,,,,,,,,,67913c61b0348a0c3a92405d,spanish,13 or older,"no, only English or Spanish",no,2025-07-24_10h46.30.626,empathy_intonation_perc_control,2024.2.4,Win32,59.88023952,67913c61b0348a0c3a92405d,68817205a84113384fffdfe3,688246927f86b36d94dbae51,,,,,,,,,,,,./stim/wavs/mexican_match_interrogative-total-yn_Mariano-habla-del-tiempo.wav,1,,,195.6706,198.0697,0,0,1.869099999,,0,44,44,16,1,17,0,mexican,,,,,,,,,,,,,,,,,,,,,,,,,,,,,,,,,,,,,,,,,,,,,,,,,,,,,,,,
,,,,,,,,,67913c61b0348a0c3a92405d,spanish,13 or older,"no, only English or Spanish",no,2025-07-24_10h46.30.626,empathy_intonation_perc_control,2024.2.4,Win32,59.88023952,67913c61b0348a0c3a92405d,68817205a84113384fffdfe3,688246927f86b36d94dbae51,,,,,,,,,,,,./stim/wavs/mexican_mismatch_interrogative-total-yn_La-maestra-vive-en-Paris.wav,1,,,198.0707,203.5529,0,0,4.950900001,,0,45,45,36,1,37,0,mexican,,,,,,,,,,,,,,,,,,,,,,,,,,,,,,,,,,,,,,,,,,,,,,,,,,,,,,,,
,,,,,,,,,67913c61b0348a0c3a92405d,spanish,13 or older,"no, only English or Spanish",no,2025-07-24_10h46.30.626,empathy_intonation_perc_control,2024.2.4,Win32,59.88023952,67913c61b0348a0c3a92405d,68817205a84113384fffdfe3,688246927f86b36d94dbae51,,,,,,,,,,,,./stim/wavs/castilian_mismatch_interrogative-total-yn_Mi-tia-odia-la-lluvia.wav,1,,,203.554,206.1525,0,0,2.08,,0,46,46,28,1,29,0,castilian,,,,,,,,,,,,,,,,,,,,,,,,,,,,,,,,,,,,,,,,,,,,,,,,,,,,,,,,
,,,,,,,,,67913c61b0348a0c3a92405d,spanish,13 or older,"no, only English or Spanish",no,2025-07-24_10h46.30.626,empathy_intonation_perc_control,2024.2.4,Win32,59.88023952,67913c61b0348a0c3a92405d,68817205a84113384fffdfe3,688246927f86b36d94dbae51,,,,,,,,,,,,./stim/wavs/mexican_mismatch_declarative-broad-focus_Mi-tia-odia-la-lluvia.wav,0,,,206.1536,209.1701,0,1,2.4972,,0,47,47,82,1,83,0,mexican,,,,,,,,,,,,,,,,,,,,,,,,,,,,,,,,,,,,,,,,,,,,,,,,,,,,,,,,
,,,,,,,,,67913c61b0348a0c3a92405d,spanish,13 or older,"no, only English or Spanish",no,2025-07-24_10h46.30.626,empathy_intonation_perc_control,2024.2.4,Win32,59.88023952,67913c61b0348a0c3a92405d,68817205a84113384fffdfe3,688246927f86b36d94dbae51,,,,,,,,,,,,./stim/wavs/cuban_match_interrogative-total-yn_Marta-abre-el-regalo.wav,1,,,209.171,211.7881,0,0,2.087200001,,0,48,48,11,1,12,1,cuban,,,,,,,,,,,,,,,,,,,,,,,,,,,,,,,,,,,,,,,,,,,,,,,,,,,,,,,,
,,,,,,,,,67913c61b0348a0c3a92405d,spanish,13 or older,"no, only English or Spanish",no,2025-07-24_10h46.30.626,empathy_intonation_perc_control,2024.2.4,Win32,59.88023952,67913c61b0348a0c3a92405d,68817205a84113384fffdfe3,688246927f86b36d94dbae51,,,,,,,,,,,,./stim/wavs/puertorican_match_interrogative-total-yn_Maria-bebe-el-vino.wav,1,,,211.7889,215.052,0,0,2.733099999,,0,49,49,23,1,24,1,puertorican,,,,,,,,,,,,,,,,,,,,,,,,,,,,,,,,,,,,,,,,,,,,,,,,,,,,,,,,
,,,,,,,,,67913c61b0348a0c3a92405d,spanish,13 or older,"no, only English or Spanish",no,2025-07-24_10h46.30.626,empathy_intonation_perc_control,2024.2.4,Win32,59.88023952,67913c61b0348a0c3a92405d,68817205a84113384fffdfe3,688246927f86b36d94dbae51,,,,,,,,,,,,./stim/wavs/castilian_mismatch_declarative-broad-focus_Mi-novio-viene-del-lago.wav,0,,,215.0527,217.8528,0,1,2.267900001,,0,50,50,71,1,72,0,castilian,,,,,,,,,,,,,,,,,,,,,,,,,,,,,,,,,,,,,,,,,,,,,,,,,,,,,,,,
,,,,,,,,,67913c61b0348a0c3a92405d,spanish,13 or older,"no, only English or Spanish",no,2025-07-24_10h46.30.626,empathy_intonation_perc_control,2024.2.4,Win32,59.88023952,67913c61b0348a0c3a92405d,68817205a84113384fffdfe3,688246927f86b36d94dbae51,,,,,,,,,,,,./stim/wavs/mexican_mismatch_interrogative-total-yn_Mi-novio-viene-del-lago.wav,1,,,217.8539,220.1984,0,0,1.8068,,0,51,51,37,1,38,0,mexican,,,,,,,,,,,,,,,,,,,,,,,,,,,,,,,,,,,,,,,,,,,,,,,,,,,,,,,,
,,,,,,,,,67913c61b0348a0c3a92405d,spanish,13 or older,"no, only English or Spanish",no,2025-07-24_10h46.30.626,empathy_intonation_perc_control,2024.2.4,Win32,59.88023952,67913c61b0348a0c3a92405d,68817205a84113384fffdfe3,688246927f86b36d94dbae51,,,,,,,,,,,,./stim/wavs/cuban_match_interrogative-total-yn_Maria-bebe-el-vino.wav,1,,,220.2003,222.3699,0,0,1.6518,,0,52,52,9,1,10,1,cuban,,,,,,,,,,,,,,,,,,,,,,,,,,,,,,,,,,,,,,,,,,,,,,,,,,,,,,,,
,,,,,,,,,67913c61b0348a0c3a92405d,spanish,13 or older,"no, only English or Spanish",no,2025-07-24_10h46.30.626,empathy_intonation_perc_control,2024.2.4,Win32,59.88023952,67913c61b0348a0c3a92405d,68817205a84113384fffdfe3,688246927f86b36d94dbae51,,,,,,,,,,,,./stim/wavs/castilian_mismatch_interrogative-total-yn_La-maestra-vive-en-Paris.wav,1,,,222.3707,226.6701,0,0,3.7682,,0,53,53,24,1,25,0,castilian,,,,,,,,,,,,,,,,,,,,,,,,,,,,,,,,,,,,,,,,,,,,,,,,,,,,,,,,
,,,,,,,,,67913c61b0348a0c3a92405d,spanish,13 or older,"no, only English or Spanish",no,2025-07-24_10h46.30.626,empathy_intonation_perc_control,2024.2.4,Win32,59.88023952,67913c61b0348a0c3a92405d,68817205a84113384fffdfe3,688246927f86b36d94dbae51,,,,,,,,,,,,./stim/wavs/puertorican_mismatch_interrogative-total-yn_La-maestra-vive-en-Paris.wav,1,,,226.6708,228.8696,0,0,1.6682,,0,54,54,41,1,42,1,puertorican,,,,,,,,,,,,,,,,,,,,,,,,,,,,,,,,,,,,,,,,,,,,,,,,,,,,,,,,
,,,,,,,,,67913c61b0348a0c3a92405d,spanish,13 or older,"no, only English or Spanish",no,2025-07-24_10h46.30.626,empathy_intonation_perc_control,2024.2.4,Win32,59.88023952,67913c61b0348a0c3a92405d,68817205a84113384fffdfe3,688246927f86b36d94dbae51,,,,,,,,,,,,./stim/wavs/castilian_match_interrogative-total-yn_Emilio-ama-la-marcha.wav,1,,,228.8711,231.237,0,0,1.8346,,0,55,55,1,1,2,0,castilian,,,,,,,,,,,,,,,,,,,,,,,,,,,,,,,,,,,,,,,,,,,,,,,,,,,,,,,,
,,,,,,,,,67913c61b0348a0c3a92405d,spanish,13 or older,"no, only English or Spanish",no,2025-07-24_10h46.30.626,empathy_intonation_perc_control,2024.2.4,Win32,59.88023952,67913c61b0348a0c3a92405d,68817205a84113384fffdfe3,688246927f86b36d94dbae51,,,,,,,,,,,,./stim/wavs/castilian_mismatch_declarative-broad-focus_El-nino-oye-el-rio.wav,0,,,231.2378,233.5694,0,1,1.8007,,0,56,56,68,1,69,0,castilian,,,,,,,,,,,,,,,,,,,,,,,,,,,,,,,,,,,,,,,,,,,,,,,,,,,,,,,,
,,,,,,,,,67913c61b0348a0c3a92405d,spanish,13 or older,"no, only English or Spanish",no,2025-07-24_10h46.30.626,empathy_intonation_perc_control,2024.2.4,Win32,59.88023952,67913c61b0348a0c3a92405d,68817205a84113384fffdfe3,688246927f86b36d94dbae51,,,,,,,,,,,,./stim/wavs/cuban_mismatch_declarative-broad-focus_Mi-tia-odia-la-lluvia.wav,0,,,233.57,235.9892,0,1,1.8874,,0,57,57,77,1,78,0,cuban,,,,,,,,,,,,,,,,,,,,,,,,,,,,,,,,,,,,,,,,,,,,,,,,,,,,,,,,
,,,,,,,,,67913c61b0348a0c3a92405d,spanish,13 or older,"no, only English or Spanish",no,2025-07-24_10h46.30.626,empathy_intonation_perc_control,2024.2.4,Win32,59.88023952,67913c61b0348a0c3a92405d,68817205a84113384fffdfe3,688246927f86b36d94dbae51,,,,,,,,,,,,./stim/wavs/castilian_match_declarative-broad-focus_Emilio-ama-la-marcha.wav,0,,,235.9899,238.3696,0,1,1.8511,,0,58,58,45,1,46,0,castilian,,,,,,,,,,,,,,,,,,,,,,,,,,,,,,,,,,,,,,,,,,,,,,,,,,,,,,,,
,,,,,,,,,67913c61b0348a0c3a92405d,spanish,13 or older,"no, only English or Spanish",no,2025-07-24_10h46.30.626,empathy_intonation_perc_control,2024.2.4,Win32,59.88023952,67913c61b0348a0c3a92405d,68817205a84113384fffdfe3,688246927f86b36d94dbae51,,,,,,,,,,,,./stim/wavs/mexican_match_declarative-broad-focus_Ana-lleva-el-abrigo.wav,0,,,238.3705,240.3194,0,1,1.4179,,0,59,59,56,1,57,0,mexican,,,,,,,,,,,,,,,,,,,,,,,,,,,,,,,,,,,,,,,,,,,,,,,,,,,,,,,,
,,,,,,,,,67913c61b0348a0c3a92405d,spanish,13 or older,"no, only English or Spanish",no,2025-07-24_10h46.30.626,empathy_intonation_perc_control,2024.2.4,Win32,59.88023952,67913c61b0348a0c3a92405d,68817205a84113384fffdfe3,688246927f86b36d94dbae51,,,,,,,,,,,,./stim/wavs/puertorican_match_declarative-broad-focus_Ana-lleva-el-abrigo.wav,0,,,240.3204,242.1529,0,1,1.3017,,0,60,60,62,1,63,0,puertorican,,,,,,,,,,,,,,,,,,,,,,,,,,,,,,,,,,,,,,,,,,,,,,,,,,,,,,,,
,,,,,,,,,67913c61b0348a0c3a92405d,spanish,13 or older,"no, only English or Spanish",no,2025-07-24_10h46.30.626,empathy_intonation_perc_control,2024.2.4,Win32,59.88023952,67913c61b0348a0c3a92405d,68817205a84113384fffdfe3,688246927f86b36d94dbae51,,,,,,,,,,,,./stim/wavs/puertorican_mismatch_interrogative-total-yn_La-nina-lava-el-plato.wav,1,,,242.1537,244.0695,0,0,1.384799999,,0,61,61,42,1,43,1,puertorican,,,,,,,,,,,,,,,,,,,,,,,,,,,,,,,,,,,,,,,,,,,,,,,,,,,,,,,,
,,,,,,,,,67913c61b0348a0c3a92405d,spanish,13 or older,"no, only English or Spanish",no,2025-07-24_10h46.30.626,empathy_intonation_perc_control,2024.2.4,Win32,59.88023952,67913c61b0348a0c3a92405d,68817205a84113384fffdfe3,688246927f86b36d94dbae51,,,,,,,,,,,,./stim/wavs/puertorican_match_declarative-broad-focus_Emilio-ama-la-marcha.wav,0,,,244.0702,246.2524,0,1,1.651,,0,62,62,65,1,66,0,puertorican,,,,,,,,,,,,,,,,,,,,,,,,,,,,,,,,,,,,,,,,,,,,,,,,,,,,,,,,
,,,,,,,,,67913c61b0348a0c3a92405d,spanish,13 or older,"no, only English or Spanish",no,2025-07-24_10h46.30.626,empathy_intonation_perc_control,2024.2.4,Win32,59.88023952,67913c61b0348a0c3a92405d,68817205a84113384fffdfe3,688246927f86b36d94dbae51,,,,,,,,,,,,./stim/wavs/cuban_mismatch_declarative-broad-focus_El-bebe-comia-muy-bien.wav,0,,,246.2534,248.287,0,1,1.5142,,0,63,63,73,1,74,0,cuban,,,,,,,,,,,,,,,,,,,,,,,,,,,,,,,,,,,,,,,,,,,,,,,,,,,,,,,,
,,,,,,,,,67913c61b0348a0c3a92405d,spanish,13 or older,"no, only English or Spanish",no,2025-07-24_10h46.30.626,empathy_intonation_perc_control,2024.2.4,Win32,59.88023952,67913c61b0348a0c3a92405d,68817205a84113384fffdfe3,688246927f86b36d94dbae51,,,,,,,,,,,,./stim/wavs/castilian_match_declarative-broad-focus_Maria-bebe-el-vino.wav,0,,,248.2877,250.5529,0,1,1.7341,,0,64,64,47,1,48,0,castilian,,,,,,,,,,,,,,,,,,,,,,,,,,,,,,,,,,,,,,,,,,,,,,,,,,,,,,,,
,,,,,,,,,67913c61b0348a0c3a92405d,spanish,13 or older,"no, only English or Spanish",no,2025-07-24_10h46.30.626,empathy_intonation_perc_control,2024.2.4,Win32,59.88023952,67913c61b0348a0c3a92405d,68817205a84113384fffdfe3,688246927f86b36d94dbae51,,,,,,,,,,,,./stim/wavs/castilian_match_declarative-broad-focus_Manuela-vende-el-carro.wav,0,,,250.5537,253.3027,0,1,2.217200001,,0,65,65,46,1,47,0,castilian,,,,,,,,,,,,,,,,,,,,,,,,,,,,,,,,,,,,,,,,,,,,,,,,,,,,,,,,
,,,,,,,,,67913c61b0348a0c3a92405d,spanish,13 or older,"no, only English or Spanish",no,2025-07-24_10h46.30.626,empathy_intonation_perc_control,2024.2.4,Win32,59.88023952,67913c61b0348a0c3a92405d,68817205a84113384fffdfe3,688246927f86b36d94dbae51,,,,,,,,,,,,./stim/wavs/mexican_mismatch_interrogative-total-yn_El-hombre-mira-la-luna.wav,1,,,253.3035,257.0355,1,1,3.2009,,0,66,66,34,1,35,0,mexican,,,,,,,,,,,,,,,,,,,,,,,,,,,,,,,,,,,,,,,,,,,,,,,,,,,,,,,,
,,,,,,,,,67913c61b0348a0c3a92405d,spanish,13 or older,"no, only English or Spanish",no,2025-07-24_10h46.30.626,empathy_intonation_perc_control,2024.2.4,Win32,59.88023952,67913c61b0348a0c3a92405d,68817205a84113384fffdfe3,688246927f86b36d94dbae51,,,,,,,,,,,,./stim/wavs/puertorican_mismatch_interrogative-total-yn_Mi-madre-come-la-fruta.wav,1,,,257.0369,259.2865,0,0,1.7169,,0,67,67,43,1,44,1,puertorican,,,,,,,,,,,,,,,,,,,,,,,,,,,,,,,,,,,,,,,,,,,,,,,,,,,,,,,,
,,,,,,,,,67913c61b0348a0c3a92405d,spanish,13 or older,"no, only English or Spanish",no,2025-07-24_10h46.30.626,empathy_intonation_perc_control,2024.2.4,Win32,59.88023952,67913c61b0348a0c3a92405d,68817205a84113384fffdfe3,688246927f86b36d94dbae51,,,,,,,,,,,,./stim/wavs/cuban_mismatch_interrogative-total-yn_Mi-novio-viene-del-lago.wav,1,,,259.2875,261.8366,0,0,2.0302,,0,68,68,32,1,33,1,cuban,,,,,,,,,,,,,,,,,,,,,,,,,,,,,,,,,,,,,,,,,,,,,,,,,,,,,,,,
,,,,,,,,,67913c61b0348a0c3a92405d,spanish,13 or older,"no, only English or Spanish",no,2025-07-24_10h46.30.626,empathy_intonation_perc_control,2024.2.4,Win32,59.88023952,67913c61b0348a0c3a92405d,68817205a84113384fffdfe3,688246927f86b36d94dbae51,,,,,,,,,,,,./stim/wavs/puertorican_mismatch_declarative-broad-focus_El-hombre-mira-la-luna.wav,0,,,261.8374,264.0197,0,1,1.6667,,0,69,69,84,1,85,0,puertorican,,,,,,,,,,,,,,,,,,,,,,,,,,,,,,,,,,,,,,,,,,,,,,,,,,,,,,,,
,,,,,,,,,67913c61b0348a0c3a92405d,spanish,13 or older,"no, only English or Spanish",no,2025-07-24_10h46.30.626,empathy_intonation_perc_control,2024.2.4,Win32,59.88023952,67913c61b0348a0c3a92405d,68817205a84113384fffdfe3,688246927f86b36d94dbae51,,,,,,,,,,,,./stim/wavs/mexican_match_declarative-broad-focus_Mariano-habla-del-tiempo.wav,0,,,264.0212,266.6526,1,0,2.114,,0,70,70,60,1,61,0,mexican,,,,,,,,,,,,,,,,,,,,,,,,,,,,,,,,,,,,,,,,,,,,,,,,,,,,,,,,
,,,,,,,,,67913c61b0348a0c3a92405d,spanish,13 or older,"no, only English or Spanish",no,2025-07-24_10h46.30.626,empathy_intonation_perc_control,2024.2.4,Win32,59.88023952,67913c61b0348a0c3a92405d,68817205a84113384fffdfe3,688246927f86b36d94dbae51,,,,,,,,,,,,./stim/wavs/puertorican_match_interrogative-total-yn_Daniel-iba-a-Bolivia.wav,1,,,266.6534,269.2858,0,0,2.1007,,0,71,71,19,1,20,1,puertorican,,,,,,,,,,,,,,,,,,,,,,,,,,,,,,,,,,,,,,,,,,,,,,,,,,,,,,,,
,,,,,,,,,67913c61b0348a0c3a92405d,spanish,13 or older,"no, only English or Spanish",no,2025-07-24_10h46.30.626,empathy_intonation_perc_control,2024.2.4,Win32,59.88023952,67913c61b0348a0c3a92405d,68817205a84113384fffdfe3,688246927f86b36d94dbae51,,,,,,,,,,,,./stim/wavs/puertorican_mismatch_declarative-broad-focus_El-bebe-comia-muy-bien.wav,0,,,269.2865,271.72,0,1,1.9015,,0,72,72,83,1,84,0,puertorican,,,,,,,,,,,,,,,,,,,,,,,,,,,,,,,,,,,,,,,,,,,,,,,,,,,,,,,,
,,,,,,,,,67913c61b0348a0c3a92405d,spanish,13 or older,"no, only English or Spanish",no,2025-07-24_10h46.30.626,empathy_intonation_perc_control,2024.2.4,Win32,59.88023952,67913c61b0348a0c3a92405d,68817205a84113384fffdfe3,688246927f86b36d94dbae51,,,,,,,,,,,,./stim/wavs/puertorican_mismatch_declarative-broad-focus_La-maestra-vive-en-Paris.wav,0,,,271.7207,274.5194,0,1,2.2794,,0,73,73,86,1,87,0,puertorican,,,,,,,,,,,,,,,,,,,,,,,,,,,,,,,,,,,,,,,,,,,,,,,,,,,,,,,,
,,,,,,,,,67913c61b0348a0c3a92405d,spanish,13 or older,"no, only English or Spanish",no,2025-07-24_10h46.30.626,empathy_intonation_perc_control,2024.2.4,Win32,59.88023952,67913c61b0348a0c3a92405d,68817205a84113384fffdfe3,688246927f86b36d94dbae51,,,,,,,,,,,,./stim/wavs/puertorican_match_interrogative-total-yn_David-leia-el-libro.wav,1,,,274.5205,276.8168,0,0,1.7628,,0,74,74,20,1,21,1,puertorican,,,,,,,,,,,,,,,,,,,,,,,,,,,,,,,,,,,,,,,,,,,,,,,,,,,,,,,,
,,,,,,,,,67913c61b0348a0c3a92405d,spanish,13 or older,"no, only English or Spanish",no,2025-07-24_10h46.30.626,empathy_intonation_perc_control,2024.2.4,Win32,59.88023952,67913c61b0348a0c3a92405d,68817205a84113384fffdfe3,688246927f86b36d94dbae51,,,,,,,,,,,,./stim/wavs/cuban_match_interrogative-total-yn_Daniel-iba-a-Bolivia.wav,1,,,276.8176,278.9816,0,0,1.622400001,,0,75,75,7,1,8,1,cuban,,,,,,,,,,,,,,,,,,,,,,,,,,,,,,,,,,,,,,,,,,,,,,,,,,,,,,,,
,,,,,,,,,67913c61b0348a0c3a92405d,spanish,13 or older,"no, only English or Spanish",no,2025-07-24_10h46.30.626,empathy_intonation_perc_control,2024.2.4,Win32,59.88023952,67913c61b0348a0c3a92405d,68817205a84113384fffdfe3,688246927f86b36d94dbae51,,,,,,,,,,,,./stim/wavs/castilian_mismatch_interrogative-total-yn_Mi-madre-come-la-fruta.wav,1,,,278.9835,282.2371,0,0,2.734200001,,0,76,76,26,1,27,0,castilian,,,,,,,,,,,,,,,,,,,,,,,,,,,,,,,,,,,,,,,,,,,,,,,,,,,,,,,,
,,,,,,,,,67913c61b0348a0c3a92405d,spanish,13 or older,"no, only English or Spanish",no,2025-07-24_10h46.30.626,empathy_intonation_perc_control,2024.2.4,Win32,59.88023952,67913c61b0348a0c3a92405d,68817205a84113384fffdfe3,688246927f86b36d94dbae51,,,,,,,,,,,,./stim/wavs/castilian_match_interrogative-total-yn_David-leia-el-libro.wav,1,,,282.238,284.5189,0,0,1.7505,,0,77,77,0,1,1,0,castilian,,,,,,,,,,,,,,,,,,,,,,,,,,,,,,,,,,,,,,,,,,,,,,,,,,,,,,,,
,,,,,,,,,67913c61b0348a0c3a92405d,spanish,13 or older,"no, only English or Spanish",no,2025-07-24_10h46.30.626,empathy_intonation_perc_control,2024.2.4,Win32,59.88023952,67913c61b0348a0c3a92405d,68817205a84113384fffdfe3,688246927f86b36d94dbae51,,,,,,,,,,,,./stim/wavs/cuban_match_declarative-broad-focus_Mariano-habla-del-tiempo.wav,0,,,284.5199,290.4358,1,0,5.384099999,,0,78,78,54,1,55,0,cuban,,,,,,,,,,,,,,,,,,,,,,,,,,,,,,,,,,,,,,,,,,,,,,,,,,,,,,,,
,,,,,,,,,67913c61b0348a0c3a92405d,spanish,13 or older,"no, only English or Spanish",no,2025-07-24_10h46.30.626,empathy_intonation_perc_control,2024.2.4,Win32,59.88023952,67913c61b0348a0c3a92405d,68817205a84113384fffdfe3,688246927f86b36d94dbae51,,,,,,,,,,,,./stim/wavs/mexican_match_interrogative-total-yn_David-leia-el-libro.wav,1,,,290.4368,292.5017,0,0,1.5328,,0,79,79,14,1,15,0,mexican,,,,,,,,,,,,,,,,,,,,,,,,,,,,,,,,,,,,,,,,,,,,,,,,,,,,,,,,
,,,,,,,,,67913c61b0348a0c3a92405d,spanish,13 or older,"no, only English or Spanish",no,2025-07-24_10h46.30.626,empathy_intonation_perc_control,2024.2.4,Win32,59.88023952,67913c61b0348a0c3a92405d,68817205a84113384fffdfe3,688246927f86b36d94dbae51,,,,,,,,,,,,./stim/wavs/cuban_mismatch_interrogative-total-yn_Mi-madre-come-la-fruta.wav,1,,,292.5026,294.8149,0,0,1.7864,,0,80,80,31,1,32,1,cuban,,,,,,,,,,,,,,,,,,,,,,,,,,,,,,,,,,,,,,,,,,,,,,,,,,,,,,,,
,,,,,,,,,67913c61b0348a0c3a92405d,spanish,13 or older,"no, only English or Spanish",no,2025-07-24_10h46.30.626,empathy_intonation_perc_control,2024.2.4,Win32,59.88023952,67913c61b0348a0c3a92405d,68817205a84113384fffdfe3,688246927f86b36d94dbae51,,,,,,,,,,,,./stim/wavs/cuban_mismatch_interrogative-total-yn_El-hombre-mira-la-luna.wav,1,,,294.8175,297.0365,0,0,1.7009,,0,81,81,29,1,30,1,cuban,,,,,,,,,,,,,,,,,,,,,,,,,,,,,,,,,,,,,,,,,,,,,,,,,,,,,,,,
,,,,,,,,,67913c61b0348a0c3a92405d,spanish,13 or older,"no, only English or Spanish",no,2025-07-24_10h46.30.626,empathy_intonation_perc_control,2024.2.4,Win32,59.88023952,67913c61b0348a0c3a92405d,68817205a84113384fffdfe3,688246927f86b36d94dbae51,,,,,,,,,,,,./stim/wavs/mexican_mismatch_interrogative-total-yn_Mi-tia-odia-la-lluvia.wav,1,,,297.0372,299.3022,0,0,1.733400001,,0,82,82,38,1,39,0,mexican,,,,,,,,,,,,,,,,,,,,,,,,,,,,,,,,,,,,,,,,,,,,,,,,,,,,,,,,
,,,,,,,,,67913c61b0348a0c3a92405d,spanish,13 or older,"no, only English or Spanish",no,2025-07-24_10h46.30.626,empathy_intonation_perc_control,2024.2.4,Win32,59.88023952,67913c61b0348a0c3a92405d,68817205a84113384fffdfe3,688246927f86b36d94dbae51,,,,,,,,,,,,./stim/wavs/cuban_mismatch_declarative-broad-focus_La-nina-lava-el-plato.wav,0,,,299.3029,301.6025,0,1,1.7795,,0,83,83,75,1,76,0,cuban,,,,,,,,,,,,,,,,,,,,,,,,,,,,,,,,,,,,,,,,,,,,,,,,,,,,,,,,
,,,,,,,,,67913c61b0348a0c3a92405d,spanish,13 or older,"no, only English or Spanish",no,2025-07-24_10h46.30.626,empathy_intonation_perc_control,2024.2.4,Win32,59.88023952,67913c61b0348a0c3a92405d,68817205a84113384fffdfe3,688246927f86b36d94dbae51,,,,,,,,,,,,./stim/wavs/cuban_match_interrogative-total-yn_Ana-lleva-el-abrigo.wav,1,,,301.6033,303.7379,0,0,1.603,,0,84,84,6,1,7,1,cuban,,,,,,,,,,,,,,,,,,,,,,,,,,,,,,,,,,,,,,,,,,,,,,,,,,,,,,,,
,,,,,,,,,67913c61b0348a0c3a92405d,spanish,13 or older,"no, only English or Spanish",no,2025-07-24_10h46.30.626,empathy_intonation_perc_control,2024.2.4,Win32,59.88023952,67913c61b0348a0c3a92405d,68817205a84113384fffdfe3,688246927f86b36d94dbae51,,,,,,,,,,,,./stim/wavs/cuban_mismatch_interrogative-total-yn_Mi-tia-odia-la-lluvia.wav,1,,,303.7386,305.8145,0,0,1.536,,0,85,85,33,1,34,1,cuban,,,,,,,,,,,,,,,,,,,,,,,,,,,,,,,,,,,,,,,,,,,,,,,,,,,,,,,,
,,,,,,,,,67913c61b0348a0c3a92405d,spanish,13 or older,"no, only English or Spanish",no,2025-07-24_10h46.30.626,empathy_intonation_perc_control,2024.2.4,Win32,59.88023952,67913c61b0348a0c3a92405d,68817205a84113384fffdfe3,688246927f86b36d94dbae51,,,,,,,,,,,,./stim/wavs/mexican_mismatch_declarative-broad-focus_Mi-novio-viene-del-lago.wav,0,,,305.8167,307.8979,0,1,1.5513,,0,86,86,81,1,82,0,mexican,,,,,,,,,,,,,,,,,,,,,,,,,,,,,,,,,,,,,,,,,,,,,,,,,,,,,,,,
,,,,,,,,,67913c61b0348a0c3a92405d,spanish,13 or older,"no, only English or Spanish",no,2025-07-24_10h46.30.626,empathy_intonation_perc_control,2024.2.4,Win32,59.88023952,67913c61b0348a0c3a92405d,68817205a84113384fffdfe3,688246927f86b36d94dbae51,,,,,,,,,,,,./stim/wavs/cuban_match_declarative-broad-focus_Daniel-iba-a-Bolivia.wav,0,,,307.8994,310.2313,0,1,1.809900001,,0,87,87,51,1,52,0,cuban,,,,,,,,,,,,,,,,,,,,,,,,,,,,,,,,,,,,,,,,,,,,,,,,,,,,,,,,
,,,,,,,"Great! Now we will move on. The next task consists of about 60 trials, in each of which you will see a string of letters. 
  
  Your task is to decide whether this is a real Spanish word or not.", (press the spacebar to continue),67913c61b0348a0c3a92405d,spanish,13 or older,"no, only English or Spanish",no,2025-07-24_10h46.30.626,empathy_intonation_perc_control,2024.2.4,Win32,59.88023952,67913c61b0348a0c3a92405d,68817205a84113384fffdfe3,688246927f86b36d94dbae51,,,,,,,,,,,,,,,,,,,,,,,,,,,,,,310.2423,571.1164,0,0,0,0,1,,,,,,,,,,,,,,,,,,,,,,,,,,,,,,,,,,,,,,,,,,,,,,,,,
,,,,,,,"If you think it is an existing Spanish word, you type '1' (for 'REAL'), and if you think it is not an existing Spanish word, you type '0' (for 'FAKE').", (press the spacebar to continue),67913c61b0348a0c3a92405d,spanish,13 or older,"no, only English or Spanish",no,2025-07-24_10h46.30.626,empathy_intonation_perc_control,2024.2.4,Win32,59.88023952,67913c61b0348a0c3a92405d,68817205a84113384fffdfe3,688246927f86b36d94dbae51,,,,,,,,,,,,,,,,,,,,,,,,,,,,,,571.1209,577.699,0,1,1,1,1,,,,,,,,,,,,,,,,,,,,,,,,,,,,,,,,,,,,,,,,,,,,,,,,,
,,,,,,,"If you are sure that the word exists, even though you don’t know its exact meaning, you may still respond '1' (REAL). 
  
  But if you are not sure if it is an existing word, you should respond '0' (FAKE).
  
  Let's do a practice round...", (press the spacebar to continue),67913c61b0348a0c3a92405d,spanish,13 or older,"no, only English or Spanish",no,2025-07-24_10h46.30.626,empathy_intonation_perc_control,2024.2.4,Win32,59.88023952,67913c61b0348a0c3a92405d,68817205a84113384fffdfe3,688246927f86b36d94dbae51,,,,,,,,,,,,,,,,,,,,,,,,,,,,,,577.7032,582.1156,0,2,2,2,1,,,,,,,,,,,,,,,,,,,,,,,,,,,,,,,,,,,,,,,,,,,,,,,,,
,,,,,,,,,67913c61b0348a0c3a92405d,spanish,13 or older,"no, only English or Spanish",no,2025-07-24_10h46.30.626,empathy_intonation_perc_control,2024.2.4,Win32,59.88023952,67913c61b0348a0c3a92405d,68817205a84113384fffdfe3,688246927f86b36d94dbae51,,,,,,,,,,,,,0,,,,,,,,,,,,,,,,,,,,,,,,582.1248,588.2188,0,1,5.5735,,588.2191,589.216,0,0,0,0,1,0,depiste,REAL,FAKE,,,,,,,,,,,,,,,,,,,,,,,,,,,,,,,,
,,,,,,,,,67913c61b0348a0c3a92405d,spanish,13 or older,"no, only English or Spanish",no,2025-07-24_10h46.30.626,empathy_intonation_perc_control,2024.2.4,Win32,59.88023952,67913c61b0348a0c3a92405d,68817205a84113384fffdfe3,688246927f86b36d94dbae51,,,,,,,,,,,,,1,,,,,,,,,,,,,,,,,,,,,,,,589.2184,591.3155,1,1,1.566900001,,591.3155,592.3155,0,1,1,1,1,0,sí,REAL,FAKE,,,,,,,,,,,,,,,,,,,,,,,,,,,,,,,,
,,,,,,,,,67913c61b0348a0c3a92405d,spanish,13 or older,"no, only English or Spanish",no,2025-07-24_10h46.30.626,empathy_intonation_perc_control,2024.2.4,Win32,59.88023952,67913c61b0348a0c3a92405d,68817205a84113384fffdfe3,688246927f86b36d94dbae51,,,,,,,,,,,,,0,,,,,,,,,,,,,,,,,,,,,,,,592.3181,595.1987,1,0,2.3502,,595.2009,596.1988,0,2,2,2,1,0,coné,REAL,FAKE,,,,,,,,,,,,,,,,,,,,,,,,,,,,,,,,
,,,,,,,,,67913c61b0348a0c3a92405d,spanish,13 or older,"no, only English or Spanish",no,2025-07-24_10h46.30.626,empathy_intonation_perc_control,2024.2.4,Win32,59.88023952,67913c61b0348a0c3a92405d,68817205a84113384fffdfe3,688246927f86b36d94dbae51,,,,,,,,,,,,,0,,,,,,,,,,,,,,,,,,,,,,,,596.2012,598.8654,1,0,2.137299999,,598.8656,599.8654,0,3,3,3,1,0,calpar,REAL,FAKE,,,,,,,,,,,,,,,,,,,,,,,,,,,,,,,,
,,,,,,,,,67913c61b0348a0c3a92405d,spanish,13 or older,"no, only English or Spanish",no,2025-07-24_10h46.30.626,empathy_intonation_perc_control,2024.2.4,Win32,59.88023952,67913c61b0348a0c3a92405d,68817205a84113384fffdfe3,688246927f86b36d94dbae51,,,,,,,,,,,,,0,,,,,,,,,,,,,,,,,,,,,,,,599.8676,601.3658,0,1,0.9613,,601.3674,602.3655,0,4,4,4,1,0,joten,REAL,FAKE,,,,,,,,,,,,,,,,,,,,,,,,,,,,,,,,
,,,,,,,,,67913c61b0348a0c3a92405d,spanish,13 or older,"no, only English or Spanish",no,2025-07-24_10h46.30.626,empathy_intonation_perc_control,2024.2.4,Win32,59.88023952,67913c61b0348a0c3a92405d,68817205a84113384fffdfe3,688246927f86b36d94dbae51,,,,,,,,,,,,,1,,,,,,,,,,,,,,,,,,,,,,,,602.3675,605.782,1,1,2.876,,605.7821,606.7821,0,5,5,5,1,0,sacapuntas,REAL,FAKE,,,,,,,,,,,,,,,,,,,,,,,,,,,,,,,,
,,,,,,,,,67913c61b0348a0c3a92405d,spanish,13 or older,"no, only English or Spanish",no,2025-07-24_10h46.30.626,empathy_intonation_perc_control,2024.2.4,Win32,59.88023952,67913c61b0348a0c3a92405d,68817205a84113384fffdfe3,688246927f86b36d94dbae51,,,,,,,,,,,,,0,,,,,,,,,,,,,,,,,,,,,,,,606.7846,609.3332,0,1,2.0205,,609.3334,610.332,0,6,6,6,1,0,priba,REAL,FAKE,,,,,,,,,,,,,,,,,,,,,,,,,,,,,,,,
,,,,,,,,,67913c61b0348a0c3a92405d,spanish,13 or older,"no, only English or Spanish",no,2025-07-24_10h46.30.626,empathy_intonation_perc_control,2024.2.4,Win32,59.88023952,67913c61b0348a0c3a92405d,68817205a84113384fffdfe3,688246927f86b36d94dbae51,,,,,,,,,,,,,0,,,,,,,,,,,,,,,,,,,,,,,,610.3338,612.7655,1,0,1.8956,,612.7672,613.7655,0,7,7,7,1,0,pelasula,REAL,FAKE,,,,,,,,,,,,,,,,,,,,,,,,,,,,,,,,
,,,,,,,,,67913c61b0348a0c3a92405d,spanish,13 or older,"no, only English or Spanish",no,2025-07-24_10h46.30.626,empathy_intonation_perc_control,2024.2.4,Win32,59.88023952,67913c61b0348a0c3a92405d,68817205a84113384fffdfe3,688246927f86b36d94dbae51,,,,,,,,,,,,,1,,,,,,,,,,,,,,,,,,,,,,,,613.7673,615.2684,1,1,0.9734,,615.2693,616.2655,0,8,8,8,1,0,bien,REAL,FAKE,,,,,,,,,,,,,,,,,,,,,,,,,,,,,,,,
,,,,,,,,,67913c61b0348a0c3a92405d,spanish,13 or older,"no, only English or Spanish",no,2025-07-24_10h46.30.626,empathy_intonation_perc_control,2024.2.4,Win32,59.88023952,67913c61b0348a0c3a92405d,68817205a84113384fffdfe3,688246927f86b36d94dbae51,,,,,,,,,,,,,1,,,,,,,,,,,,,,,,,,,,,,,,616.2675,617.6488,1,1,0.8498,,617.6489,618.6487,0,9,9,9,1,0,casa,REAL,FAKE,,,,,,,,,,,,,,,,,,,,,,,,,,,,,,,,
,,,,,,,,,67913c61b0348a0c3a92405d,spanish,13 or older,"no, only English or Spanish",no,2025-07-24_10h46.30.626,empathy_intonation_perc_control,2024.2.4,Win32,59.88023952,67913c61b0348a0c3a92405d,68817205a84113384fffdfe3,688246927f86b36d94dbae51,,,,,,,,,,,,,0,,,,,,,,,,,,,,,,,,,,,,,,618.6509,620.182,1,0,0.9936,,620.1837,621.1819,0,10,10,10,1,0,lejo,REAL,FAKE,,,,,,,,,,,,,,,,,,,,,,,,,,,,,,,,
,,,,,,,,,67913c61b0348a0c3a92405d,spanish,13 or older,"no, only English or Spanish",no,2025-07-24_10h46.30.626,empathy_intonation_perc_control,2024.2.4,Win32,59.88023952,67913c61b0348a0c3a92405d,68817205a84113384fffdfe3,688246927f86b36d94dbae51,,,,,,,,,,,,,0,,,,,,,,,,,,,,,,,,,,,,,,621.1837,624.5654,1,0,2.851799999,,624.5655,625.5654,0,11,11,11,1,0,pretantas,REAL,FAKE,,,,,,,,,,,,,,,,,,,,,,,,,,,,,,,,
,,,,,,,,,67913c61b0348a0c3a92405d,spanish,13 or older,"no, only English or Spanish",no,2025-07-24_10h46.30.626,empathy_intonation_perc_control,2024.2.4,Win32,59.88023952,67913c61b0348a0c3a92405d,68817205a84113384fffdfe3,688246927f86b36d94dbae51,,,,,,,,,,,,,,,,,,,,,,,,,,,,,,,,,,,,,,,,,,,,,,,,,,,,,,625.5658,626.5684,,,,,,,,,,,,,,,,,,,,,,,,,,,,,,
,,,,,,,,,67913c61b0348a0c3a92405d,spanish,13 or older,"no, only English or Spanish",no,2025-07-24_10h46.30.626,empathy_intonation_perc_control,2024.2.4,Win32,59.88023952,67913c61b0348a0c3a92405d,68817205a84113384fffdfe3,688246927f86b36d94dbae51,,,,,,,,,,,,,1,,,,,,,,,,,,,,,,,,,,,,,,,,,,,,,,,,,,,49,ganar,,,,,626.5854,628.7159,0,0,1.5915,,0,0,0,48,1,REAL,FAKE,,,,,,,,,,,,,,,,,
,,,,,,,,,67913c61b0348a0c3a92405d,spanish,13 or older,"no, only English or Spanish",no,2025-07-24_10h46.30.626,empathy_intonation_perc_control,2024.2.4,Win32,59.88023952,67913c61b0348a0c3a92405d,68817205a84113384fffdfe3,688246927f86b36d94dbae51,,,,,,,,,,,,,1,,,,,,,,,,,,,,,,,,,,,,,,,,,,,,,,,,,,,14,yunque,,,,,628.7186,630.3184,0,0,1.075,,0,1,1,13,1,REAL,FAKE,,,,,,,,,,,,,,,,,
,,,,,,,,,67913c61b0348a0c3a92405d,spanish,13 or older,"no, only English or Spanish",no,2025-07-24_10h46.30.626,empathy_intonation_perc_control,2024.2.4,Win32,59.88023952,67913c61b0348a0c3a92405d,68817205a84113384fffdfe3,688246927f86b36d94dbae51,,,,,,,,,,,,,0,,,,,,,,,,,,,,,,,,,,,,,,,,,,,,,,,,,,,47,cartinar,,,,,630.3199,633.3821,0,1,2.5369,,0,2,2,46,1,REAL,FAKE,,,,,,,,,,,,,,,,,
,,,,,,,,,67913c61b0348a0c3a92405d,spanish,13 or older,"no, only English or Spanish",no,2025-07-24_10h46.30.626,empathy_intonation_perc_control,2024.2.4,Win32,59.88023952,67913c61b0348a0c3a92405d,68817205a84113384fffdfe3,688246927f86b36d94dbae51,,,,,,,,,,,,,1,,,,,,,,,,,,,,,,,,,,,,,,,,,,,,,,,,,,,76,atar,,,,,633.3843,635.0655,0,0,1.1498,,0,3,3,75,1,REAL,FAKE,,,,,,,,,,,,,,,,,
,,,,,,,,,67913c61b0348a0c3a92405d,spanish,13 or older,"no, only English or Spanish",no,2025-07-24_10h46.30.626,empathy_intonation_perc_control,2024.2.4,Win32,59.88023952,67913c61b0348a0c3a92405d,68817205a84113384fffdfe3,688246927f86b36d94dbae51,,,,,,,,,,,,,0,,,,,,,,,,,,,,,,,,,,,,,,,,,,,,,,,,,,,53,vegada,,,,,635.0681,637.632,0,1,2.032,,0,4,4,52,1,REAL,FAKE,,,,,,,,,,,,,,,,,
,,,,,,,,,67913c61b0348a0c3a92405d,spanish,13 or older,"no, only English or Spanish",no,2025-07-24_10h46.30.626,empathy_intonation_perc_control,2024.2.4,Win32,59.88023952,67913c61b0348a0c3a92405d,68817205a84113384fffdfe3,688246927f86b36d94dbae51,,,,,,,,,,,,,0,,,,,,,,,,,,,,,,,,,,,,,,,,,,,,,,,,,,,92,click the 0 key.,,,,,637.6348,640.1155,0,1,1.948,,0,5,5,91,1,REAL,FAKE,,,,,,,,,,,,,,,,,
,,,,,,,,,67913c61b0348a0c3a92405d,spanish,13 or older,"no, only English or Spanish",no,2025-07-24_10h46.30.626,empathy_intonation_perc_control,2024.2.4,Win32,59.88023952,67913c61b0348a0c3a92405d,68817205a84113384fffdfe3,688246927f86b36d94dbae51,,,,,,,,,,,,,0,,,,,,,,,,,,,,,,,,,,,,,,,,,,,,,,,,,,,79,tropaje,,,,,640.1175,641.8657,0,1,1.2144,,0,6,6,78,1,REAL,FAKE,,,,,,,,,,,,,,,,,
,,,,,,,,,67913c61b0348a0c3a92405d,spanish,13 or older,"no, only English or Spanish",no,2025-07-24_10h46.30.626,empathy_intonation_perc_control,2024.2.4,Win32,59.88023952,67913c61b0348a0c3a92405d,68817205a84113384fffdfe3,688246927f86b36d94dbae51,,,,,,,,,,,,,1,,,,,,,,,,,,,,,,,,,,,,,,,,,,,,,,,,,,,28,merodear,,,,,641.868,644.0821,0,0,1.678400001,,0,7,7,27,1,REAL,FAKE,,,,,,,,,,,,,,,,,
,,,,,,,,,67913c61b0348a0c3a92405d,spanish,13 or older,"no, only English or Spanish",no,2025-07-24_10h46.30.626,empathy_intonation_perc_control,2024.2.4,Win32,59.88023952,67913c61b0348a0c3a92405d,68817205a84113384fffdfe3,688246927f86b36d94dbae51,,,,,,,,,,,,,0,,,,,,,,,,,,,,,,,,,,,,,,,,,,,,,,,,,,,82,empirador,,,,,644.0838,645.7821,1,0,1.160099999,,0,8,8,81,1,REAL,FAKE,,,,,,,,,,,,,,,,,
,,,,,,,,,67913c61b0348a0c3a92405d,spanish,13 or older,"no, only English or Spanish",no,2025-07-24_10h46.30.626,empathy_intonation_perc_control,2024.2.4,Win32,59.88023952,67913c61b0348a0c3a92405d,68817205a84113384fffdfe3,688246927f86b36d94dbae51,,,,,,,,,,,,,1,,,,,,,,,,,,,,,,,,,,,,,,,,,,,,,,,,,,,60,matar,,,,,645.7842,648.3323,0,0,2.0212,,0,9,9,59,1,REAL,FAKE,,,,,,,,,,,,,,,,,
,,,,,,,,,67913c61b0348a0c3a92405d,spanish,13 or older,"no, only English or Spanish",no,2025-07-24_10h46.30.626,empathy_intonation_perc_control,2024.2.4,Win32,59.88023952,67913c61b0348a0c3a92405d,68817205a84113384fffdfe3,688246927f86b36d94dbae51,,,,,,,,,,,,,0,,,,,,,,,,,,,,,,,,,,,,,,,,,,,,,,,,,,,70,temblo,,,,,648.3345,650.1007,0,1,1.2251,,0,10,10,69,1,REAL,FAKE,,,,,,,,,,,,,,,,,
,,,,,,,,,67913c61b0348a0c3a92405d,spanish,13 or older,"no, only English or Spanish",no,2025-07-24_10h46.30.626,empathy_intonation_perc_control,2024.2.4,Win32,59.88023952,67913c61b0348a0c3a92405d,68817205a84113384fffdfe3,688246927f86b36d94dbae51,,,,,,,,,,,,,1,,,,,,,,,,,,,,,,,,,,,,,,,,,,,,,,,,,,,56,musgo,,,,,650.1025,651.8654,0,0,1.2276,,0,11,11,55,1,REAL,FAKE,,,,,,,,,,,,,,,,,
,,,,,,,,,67913c61b0348a0c3a92405d,spanish,13 or older,"no, only English or Spanish",no,2025-07-24_10h46.30.626,empathy_intonation_perc_control,2024.2.4,Win32,59.88023952,67913c61b0348a0c3a92405d,68817205a84113384fffdfe3,688246927f86b36d94dbae51,,,,,,,,,,,,,0,,,,,,,,,,,,,,,,,,,,,,,,,,,,,,,,,,,,,66,hacido,,,,,651.8671,653.4155,1,0,1.009299999,,0,12,12,65,1,REAL,FAKE,,,,,,,,,,,,,,,,,
,,,,,,,,,67913c61b0348a0c3a92405d,spanish,13 or older,"no, only English or Spanish",no,2025-07-24_10h46.30.626,empathy_intonation_perc_control,2024.2.4,Win32,59.88023952,67913c61b0348a0c3a92405d,68817205a84113384fffdfe3,688246927f86b36d94dbae51,,,,,,,,,,,,,1,,,,,,,,,,,,,,,,,,,,,,,,,,,,,,,,,,,,,73,hervidor,,,,,653.4173,656.0852,0,0,2.1433,,0,13,13,72,1,REAL,FAKE,,,,,,,,,,,,,,,,,
,,,,,,,,,67913c61b0348a0c3a92405d,spanish,13 or older,"no, only English or Spanish",no,2025-07-24_10h46.30.626,empathy_intonation_perc_control,2024.2.4,Win32,59.88023952,67913c61b0348a0c3a92405d,68817205a84113384fffdfe3,688246927f86b36d94dbae51,,,,,,,,,,,,,1,,,,,,,,,,,,,,,,,,,,,,,,,,,,,,,,,,,,,40,alfombra,,,,,656.087,658.782,0,0,2.1593,,0,14,14,39,1,REAL,FAKE,,,,,,,,,,,,,,,,,
,,,,,,,,,67913c61b0348a0c3a92405d,spanish,13 or older,"no, only English or Spanish",no,2025-07-24_10h46.30.626,empathy_intonation_perc_control,2024.2.4,Win32,59.88023952,67913c61b0348a0c3a92405d,68817205a84113384fffdfe3,688246927f86b36d94dbae51,,,,,,,,,,,,,1,,,,,,,,,,,,,,,,,,,,,,,,,,,,,,,,,,,,,85,laúd,,,,,658.7844,660.132,0,0,0.816200001,,0,15,15,84,1,REAL,FAKE,,,,,,,,,,,,,,,,,
,,,,,,,,,67913c61b0348a0c3a92405d,spanish,13 or older,"no, only English or Spanish",no,2025-07-24_10h46.30.626,empathy_intonation_perc_control,2024.2.4,Win32,59.88023952,67913c61b0348a0c3a92405d,68817205a84113384fffdfe3,688246927f86b36d94dbae51,,,,,,,,,,,,,1,,,,,,,,,,,,,,,,,,,,,,,,,,,,,,,,,,,,,45,jilguero,,,,,660.1337,663.6002,0,0,2.9303,,0,16,16,44,1,REAL,FAKE,,,,,,,,,,,,,,,,,
,,,,,,,,,67913c61b0348a0c3a92405d,spanish,13 or older,"no, only English or Spanish",no,2025-07-24_10h46.30.626,empathy_intonation_perc_control,2024.2.4,Win32,59.88023952,67913c61b0348a0c3a92405d,68817205a84113384fffdfe3,688246927f86b36d94dbae51,,,,,,,,,,,,,0,,,,,,,,,,,,,,,,,,,,,,,,,,,,,,,,,,,,,10,antar,,,,,663.6057,665.3822,1,0,1.242799999,,0,17,17,9,1,REAL,FAKE,,,,,,,,,,,,,,,,,
,,,,,,,,,67913c61b0348a0c3a92405d,spanish,13 or older,"no, only English or Spanish",no,2025-07-24_10h46.30.626,empathy_intonation_perc_control,2024.2.4,Win32,59.88023952,67913c61b0348a0c3a92405d,68817205a84113384fffdfe3,688246927f86b36d94dbae51,,,,,,,,,,,,,1,,,,,,,,,,,,,,,,,,,,,,,,,,,,,,,,,,,,,52,camisa,,,,,665.3843,667.032,1,1,1.116900001,,0,18,18,51,1,REAL,FAKE,,,,,,,,,,,,,,,,,
,,,,,,,,,67913c61b0348a0c3a92405d,spanish,13 or older,"no, only English or Spanish",no,2025-07-24_10h46.30.626,empathy_intonation_perc_control,2024.2.4,Win32,59.88023952,67913c61b0348a0c3a92405d,68817205a84113384fffdfe3,688246927f86b36d94dbae51,,,,,,,,,,,,,1,,,,,,,,,,,,,,,,,,,,,,,,,,,,,,,,,,,,,83,guante,,,,,667.0343,668.7821,0,0,1.2095,,0,19,19,82,1,REAL,FAKE,,,,,,,,,,,,,,,,,
,,,,,,,,,67913c61b0348a0c3a92405d,spanish,13 or older,"no, only English or Spanish",no,2025-07-24_10h46.30.626,empathy_intonation_perc_control,2024.2.4,Win32,59.88023952,67913c61b0348a0c3a92405d,68817205a84113384fffdfe3,688246927f86b36d94dbae51,,,,,,,,,,,,,1,,,,,,,,,,,,,,,,,,,,,,,,,,,,,,,,,,,,,62,flaco,,,,,668.784,670.8324,0,0,1.521900001,,0,20,20,61,1,REAL,FAKE,,,,,,,,,,,,,,,,,
,,,,,,,,,67913c61b0348a0c3a92405d,spanish,13 or older,"no, only English or Spanish",no,2025-07-24_10h46.30.626,empathy_intonation_perc_control,2024.2.4,Win32,59.88023952,67913c61b0348a0c3a92405d,68817205a84113384fffdfe3,688246927f86b36d94dbae51,,,,,,,,,,,,,1,,,,,,,,,,,,,,,,,,,,,,,,,,,,,,,,,,,,,5,zapato,,,,,670.8349,672.2487,1,1,0.8817,,0,21,21,4,1,REAL,FAKE,,,,,,,,,,,,,,,,,
,,,,,,,,,67913c61b0348a0c3a92405d,spanish,13 or older,"no, only English or Spanish",no,2025-07-24_10h46.30.626,empathy_intonation_perc_control,2024.2.4,Win32,59.88023952,67913c61b0348a0c3a92405d,68817205a84113384fffdfe3,688246927f86b36d94dbae51,,,,,,,,,,,,,1,,,,,,,,,,,,,,,,,,,,,,,,,,,,,,,,,,,,,67,cabello,,,,,672.2508,673.5187,1,1,0.7425,,0,22,22,66,1,REAL,FAKE,,,,,,,,,,,,,,,,,
,,,,,,,,,67913c61b0348a0c3a92405d,spanish,13 or older,"no, only English or Spanish",no,2025-07-24_10h46.30.626,empathy_intonation_perc_control,2024.2.4,Win32,59.88023952,67913c61b0348a0c3a92405d,68817205a84113384fffdfe3,688246927f86b36d94dbae51,,,,,,,,,,,,,0,,,,,,,,,,,,,,,,,,,,,,,,,,,,,,,,,,,,,84,escuto,,,,,673.5201,674.882,0,1,0.828,,0,23,23,83,1,REAL,FAKE,,,,,,,,,,,,,,,,,
,,,,,,,,,67913c61b0348a0c3a92405d,spanish,13 or older,"no, only English or Spanish",no,2025-07-24_10h46.30.626,empathy_intonation_perc_control,2024.2.4,Win32,59.88023952,67913c61b0348a0c3a92405d,68817205a84113384fffdfe3,688246927f86b36d94dbae51,,,,,,,,,,,,,1,,,,,,,,,,,,,,,,,,,,,,,,,,,,,,,,,,,,,65,bizcocho,,,,,674.8838,676.6154,0,0,1.1971,,0,24,24,64,1,REAL,FAKE,,,,,,,,,,,,,,,,,
,,,,,,,,,67913c61b0348a0c3a92405d,spanish,13 or older,"no, only English or Spanish",no,2025-07-24_10h46.30.626,empathy_intonation_perc_control,2024.2.4,Win32,59.88023952,67913c61b0348a0c3a92405d,68817205a84113384fffdfe3,688246927f86b36d94dbae51,,,,,,,,,,,,,1,,,,,,,,,,,,,,,,,,,,,,,,,,,,,,,,,,,,,25,bisagra,,,,,676.6177,678.4488,1,1,1.2954,,0,25,25,24,1,REAL,FAKE,,,,,,,,,,,,,,,,,
,,,,,,,,,67913c61b0348a0c3a92405d,spanish,13 or older,"no, only English or Spanish",no,2025-07-24_10h46.30.626,empathy_intonation_perc_control,2024.2.4,Win32,59.88023952,67913c61b0348a0c3a92405d,68817205a84113384fffdfe3,688246927f86b36d94dbae51,,,,,,,,,,,,,0,,,,,,,,,,,,,,,,,,,,,,,,,,,,,,,,,,,,,50,flamida,,,,,678.4506,680.932,1,0,1.9424,,0,26,26,49,1,REAL,FAKE,,,,,,,,,,,,,,,,,
,,,,,,,,,67913c61b0348a0c3a92405d,spanish,13 or older,"no, only English or Spanish",no,2025-07-24_10h46.30.626,empathy_intonation_perc_control,2024.2.4,Win32,59.88023952,67913c61b0348a0c3a92405d,68817205a84113384fffdfe3,688246927f86b36d94dbae51,,,,,,,,,,,,,1,,,,,,,,,,,,,,,,,,,,,,,,,,,,,,,,,,,,,43,canela,,,,,680.9342,682.632,0,0,1.1603,,0,27,27,42,1,REAL,FAKE,,,,,,,,,,,,,,,,,
,,,,,,,,,67913c61b0348a0c3a92405d,spanish,13 or older,"no, only English or Spanish",no,2025-07-24_10h46.30.626,empathy_intonation_perc_control,2024.2.4,Win32,59.88023952,67913c61b0348a0c3a92405d,68817205a84113384fffdfe3,688246927f86b36d94dbae51,,,,,,,,,,,,,0,,,,,,,,,,,,,,,,,,,,,,,,,,,,,,,,,,,,,87,grodo,,,,,682.634,684.0819,0,1,0.9167,,0,28,28,86,1,REAL,FAKE,,,,,,,,,,,,,,,,,
,,,,,,,,,67913c61b0348a0c3a92405d,spanish,13 or older,"no, only English or Spanish",no,2025-07-24_10h46.30.626,empathy_intonation_perc_control,2024.2.4,Win32,59.88023952,67913c61b0348a0c3a92405d,68817205a84113384fffdfe3,688246927f86b36d94dbae51,,,,,,,,,,,,,1,,,,,,,,,,,,,,,,,,,,,,,,,,,,,,,,,,,,,41,rebuscar,,,,,684.0838,687.482,0,0,2.8577,,0,29,29,40,1,REAL,FAKE,,,,,,,,,,,,,,,,,
,,,,,,,,,67913c61b0348a0c3a92405d,spanish,13 or older,"no, only English or Spanish",no,2025-07-24_10h46.30.626,empathy_intonation_perc_control,2024.2.4,Win32,59.88023952,67913c61b0348a0c3a92405d,68817205a84113384fffdfe3,688246927f86b36d94dbae51,,,,,,,,,,,,,1,,,,,,,,,,,,,,,,,,,,,,,,,,,,,,,,,,,,,12,asesinato,,,,,687.4838,690.749,1,1,2.7335,,0,30,30,11,1,REAL,FAKE,,,,,,,,,,,,,,,,,
,,,,,,,,,67913c61b0348a0c3a92405d,spanish,13 or older,"no, only English or Spanish",no,2025-07-24_10h46.30.626,empathy_intonation_perc_control,2024.2.4,Win32,59.88023952,67913c61b0348a0c3a92405d,68817205a84113384fffdfe3,688246927f86b36d94dbae51,,,,,,,,,,,,,0,,,,,,,,,,,,,,,,,,,,,,,,,,,,,,,,,,,,,35,rompido,,,,,690.7509,692.182,1,0,0.9008,,0,31,31,34,1,REAL,FAKE,,,,,,,,,,,,,,,,,
,,,,,,,,,67913c61b0348a0c3a92405d,spanish,13 or older,"no, only English or Spanish",no,2025-07-24_10h46.30.626,empathy_intonation_perc_control,2024.2.4,Win32,59.88023952,67913c61b0348a0c3a92405d,68817205a84113384fffdfe3,688246927f86b36d94dbae51,,,,,,,,,,,,,1,,,,,,,,,,,,,,,,,,,,,,,,,,,,,,,,,,,,,90,clavel,,,,,692.1839,693.7514,0,0,1.0411,,0,32,32,89,1,REAL,FAKE,,,,,,,,,,,,,,,,,
,,,,,,,,,67913c61b0348a0c3a92405d,spanish,13 or older,"no, only English or Spanish",no,2025-07-24_10h46.30.626,empathy_intonation_perc_control,2024.2.4,Win32,59.88023952,67913c61b0348a0c3a92405d,68817205a84113384fffdfe3,688246927f86b36d94dbae51,,,,,,,,,,,,,1,,,,,,,,,,,,,,,,,,,,,,,,,,,,,,,,,,,,,68,alegre,,,,,693.7528,695.2487,1,1,0.9667,,0,33,33,67,1,REAL,FAKE,,,,,,,,,,,,,,,,,
,,,,,,,,,67913c61b0348a0c3a92405d,spanish,13 or older,"no, only English or Spanish",no,2025-07-24_10h46.30.626,empathy_intonation_perc_control,2024.2.4,Win32,59.88023952,67913c61b0348a0c3a92405d,68817205a84113384fffdfe3,688246927f86b36d94dbae51,,,,,,,,,,,,,1,,,,,,,,,,,,,,,,,,,,,,,,,,,,,,,,,,,,,3,pulmones,,,,,695.2508,697.2319,1,1,1.448700001,,0,34,34,2,1,REAL,FAKE,,,,,,,,,,,,,,,,,
,,,,,,,,,67913c61b0348a0c3a92405d,spanish,13 or older,"no, only English or Spanish",no,2025-07-24_10h46.30.626,empathy_intonation_perc_control,2024.2.4,Win32,59.88023952,67913c61b0348a0c3a92405d,68817205a84113384fffdfe3,688246927f86b36d94dbae51,,,,,,,,,,,,,0,,,,,,,,,,,,,,,,,,,,,,,,,,,,,,,,,,,,,8,cadeña,,,,,697.2343,700.1005,1,0,2.3323,,0,35,35,7,1,REAL,FAKE,,,,,,,,,,,,,,,,,
,,,,,,,,,67913c61b0348a0c3a92405d,spanish,13 or older,"no, only English or Spanish",no,2025-07-24_10h46.30.626,empathy_intonation_perc_control,2024.2.4,Win32,59.88023952,67913c61b0348a0c3a92405d,68817205a84113384fffdfe3,688246927f86b36d94dbae51,,,,,,,,,,,,,1,,,,,,,,,,,,,,,,,,,,,,,,,,,,,,,,,,,,,88,acantilado,,,,,700.1024,702.9512,1,1,2.3239,,0,36,36,87,1,REAL,FAKE,,,,,,,,,,,,,,,,,
,,,,,,,,,67913c61b0348a0c3a92405d,spanish,13 or older,"no, only English or Spanish",no,2025-07-24_10h46.30.626,empathy_intonation_perc_control,2024.2.4,Win32,59.88023952,67913c61b0348a0c3a92405d,68817205a84113384fffdfe3,688246927f86b36d94dbae51,,,,,,,,,,,,,1,,,,,,,,,,,,,,,,,,,,,,,,,,,,,,,,,,,,,91,click the 1 key.,,,,,702.9533,705.2171,1,1,1.7363,,0,37,37,90,1,REAL,FAKE,,,,,,,,,,,,,,,,,
,,,,,,,,,67913c61b0348a0c3a92405d,spanish,13 or older,"no, only English or Spanish",no,2025-07-24_10h46.30.626,empathy_intonation_perc_control,2024.2.4,Win32,59.88023952,67913c61b0348a0c3a92405d,68817205a84113384fffdfe3,688246927f86b36d94dbae51,,,,,,,,,,,,,1,,,,,,,,,,,,,,,,,,,,,,,,,,,,,,,,,,,,,51,candado,,,,,705.2188,707.4654,0,0,1.7134,,0,38,38,50,1,REAL,FAKE,,,,,,,,,,,,,,,,,
,,,,,,,,,67913c61b0348a0c3a92405d,spanish,13 or older,"no, only English or Spanish",no,2025-07-24_10h46.30.626,empathy_intonation_perc_control,2024.2.4,Win32,59.88023952,67913c61b0348a0c3a92405d,68817205a84113384fffdfe3,688246927f86b36d94dbae51,,,,,,,,,,,,,1,,,,,,,,,,,,,,,,,,,,,,,,,,,,,,,,,,,,,89,prisa,,,,,707.4673,710.3157,0,0,2.3197,,0,39,39,88,1,REAL,FAKE,,,,,,,,,,,,,,,,,
,,,,,,,,,67913c61b0348a0c3a92405d,spanish,13 or older,"no, only English or Spanish",no,2025-07-24_10h46.30.626,empathy_intonation_perc_control,2024.2.4,Win32,59.88023952,67913c61b0348a0c3a92405d,68817205a84113384fffdfe3,688246927f86b36d94dbae51,,,,,,,,,,,,,1,,,,,,,,,,,,,,,,,,,,,,,,,,,,,,,,,,,,,78,frondoso,,,,,710.3176,712.1182,0,0,1.2742,,0,40,40,77,1,REAL,FAKE,,,,,,,,,,,,,,,,,
,,,,,,,,,67913c61b0348a0c3a92405d,spanish,13 or older,"no, only English or Spanish",no,2025-07-24_10h46.30.626,empathy_intonation_perc_control,2024.2.4,Win32,59.88023952,67913c61b0348a0c3a92405d,68817205a84113384fffdfe3,688246927f86b36d94dbae51,,,,,,,,,,,,,1,,,,,,,,,,,,,,,,,,,,,,,,,,,,,,,,,,,,,75,yacer,,,,,712.1197,713.4155,0,0,0.7634,,0,41,41,74,1,REAL,FAKE,,,,,,,,,,,,,,,,,
,,,,,,,,,67913c61b0348a0c3a92405d,spanish,13 or older,"no, only English or Spanish",no,2025-07-24_10h46.30.626,empathy_intonation_perc_control,2024.2.4,Win32,59.88023952,67913c61b0348a0c3a92405d,68817205a84113384fffdfe3,688246927f86b36d94dbae51,,,,,,,,,,,,,0,,,,,,,,,,,,,,,,,,,,,,,,,,,,,,,,,,,,,74,cintro,,,,,713.4173,715.3486,1,0,1.3976,,0,42,42,73,1,REAL,FAKE,,,,,,,,,,,,,,,,,
,,,,,,,,,67913c61b0348a0c3a92405d,spanish,13 or older,"no, only English or Spanish",no,2025-07-24_10h46.30.626,empathy_intonation_perc_control,2024.2.4,Win32,59.88023952,67913c61b0348a0c3a92405d,68817205a84113384fffdfe3,688246927f86b36d94dbae51,,,,,,,,,,,,,0,,,,,,,,,,,,,,,,,,,,,,,,,,,,,,,,,,,,,1,terzo,,,,,715.3506,717.6656,1,0,1.7779,,0,43,43,0,1,REAL,FAKE,,,,,,,,,,,,,,,,,
,,,,,,,,,67913c61b0348a0c3a92405d,spanish,13 or older,"no, only English or Spanish",no,2025-07-24_10h46.30.626,empathy_intonation_perc_control,2024.2.4,Win32,59.88023952,67913c61b0348a0c3a92405d,68817205a84113384fffdfe3,688246927f86b36d94dbae51,,,,,,,,,,,,,1,,,,,,,,,,,,,,,,,,,,,,,,,,,,,,,,,,,,,77,tiburón,,,,,717.6683,719.1987,1,1,0.9954,,0,44,44,76,1,REAL,FAKE,,,,,,,,,,,,,,,,,
,,,,,,,,,67913c61b0348a0c3a92405d,spanish,13 or older,"no, only English or Spanish",no,2025-07-24_10h46.30.626,empathy_intonation_perc_control,2024.2.4,Win32,59.88023952,67913c61b0348a0c3a92405d,68817205a84113384fffdfe3,688246927f86b36d94dbae51,,,,,,,,,,,,,1,,,,,,,,,,,,,,,,,,,,,,,,,,,,,,,,,,,,,71,polvoriento,,,,,719.2006,720.9488,0,0,1.215700001,,0,45,45,70,1,REAL,FAKE,,,,,,,,,,,,,,,,,
,,,,,,,,,67913c61b0348a0c3a92405d,spanish,13 or older,"no, only English or Spanish",no,2025-07-24_10h46.30.626,empathy_intonation_perc_control,2024.2.4,Win32,59.88023952,67913c61b0348a0c3a92405d,68817205a84113384fffdfe3,688246927f86b36d94dbae51,,,,,,,,,,,,,1,,,,,,,,,,,,,,,,,,,,,,,,,,,,,,,,,,,,,9,hacha,,,,,720.9507,722.7653,1,1,1.279400001,,0,46,46,8,1,REAL,FAKE,,,,,,,,,,,,,,,,,
,,,,,,,,,67913c61b0348a0c3a92405d,spanish,13 or older,"no, only English or Spanish",no,2025-07-24_10h46.30.626,empathy_intonation_perc_control,2024.2.4,Win32,59.88023952,67913c61b0348a0c3a92405d,68817205a84113384fffdfe3,688246927f86b36d94dbae51,,,,,,,,,,,,,1,,,,,,,,,,,,,,,,,,,,,,,,,,,,,,,,,,,,,80,hormiga,,,,,722.7672,724.9987,0,0,1.6975,,0,47,47,79,1,REAL,FAKE,,,,,,,,,,,,,,,,,
,,,,,,,,,67913c61b0348a0c3a92405d,spanish,13 or older,"no, only English or Spanish",no,2025-07-24_10h46.30.626,empathy_intonation_perc_control,2024.2.4,Win32,59.88023952,67913c61b0348a0c3a92405d,68817205a84113384fffdfe3,688246927f86b36d94dbae51,,,,,,,,,,,,,1,,,,,,,,,,,,,,,,,,,,,,,,,,,,,,,,,,,,,64,orgulloso,,,,,725.0006,726.9319,0,0,1.3998,,0,48,48,63,1,REAL,FAKE,,,,,,,,,,,,,,,,,
,,,,,,,,,67913c61b0348a0c3a92405d,spanish,13 or older,"no, only English or Spanish",no,2025-07-24_10h46.30.626,empathy_intonation_perc_control,2024.2.4,Win32,59.88023952,67913c61b0348a0c3a92405d,68817205a84113384fffdfe3,688246927f86b36d94dbae51,,,,,,,,,,,,,0,,,,,,,,,,,,,,,,,,,,,,,,,,,,,,,,,,,,,30,alardio,,,,,726.9336,728.5486,0,1,1.0816,,0,49,49,29,1,REAL,FAKE,,,,,,,,,,,,,,,,,
,,,,,,,,,67913c61b0348a0c3a92405d,spanish,13 or older,"no, only English or Spanish",no,2025-07-24_10h46.30.626,empathy_intonation_perc_control,2024.2.4,Win32,59.88023952,67913c61b0348a0c3a92405d,68817205a84113384fffdfe3,688246927f86b36d94dbae51,,,,,,,,,,,,,1,,,,,,,,,,,,,,,,,,,,,,,,,,,,,,,,,,,,,34,aviso,,,,,728.5505,732.8847,0,0,3.8076,,0,50,50,33,1,REAL,FAKE,,,,,,,,,,,,,,,,,
,,,,,,,,,67913c61b0348a0c3a92405d,spanish,13 or older,"no, only English or Spanish",no,2025-07-24_10h46.30.626,empathy_intonation_perc_control,2024.2.4,Win32,59.88023952,67913c61b0348a0c3a92405d,68817205a84113384fffdfe3,688246927f86b36d94dbae51,,,,,,,,,,,,,1,,,,,,,,,,,,,,,,,,,,,,,,,,,,,,,,,,,,,44,cuchara,,,,,732.8863,735.2153,1,1,1.7993,,0,51,51,43,1,REAL,FAKE,,,,,,,,,,,,,,,,,
,,,,,,,,,67913c61b0348a0c3a92405d,spanish,13 or older,"no, only English or Spanish",no,2025-07-24_10h46.30.626,empathy_intonation_perc_control,2024.2.4,Win32,59.88023952,67913c61b0348a0c3a92405d,68817205a84113384fffdfe3,688246927f86b36d94dbae51,,,,,,,,,,,,,1,,,,,,,,,,,,,,,,,,,,,,,,,,,,,,,,,,,,,36,loro,,,,,735.2172,736.6321,0,0,0.8783,,0,52,52,35,1,REAL,FAKE,,,,,,,,,,,,,,,,,
,,,,,,,,,67913c61b0348a0c3a92405d,spanish,13 or older,"no, only English or Spanish",no,2025-07-24_10h46.30.626,empathy_intonation_perc_control,2024.2.4,Win32,59.88023952,67913c61b0348a0c3a92405d,68817205a84113384fffdfe3,688246927f86b36d94dbae51,,,,,,,,,,,,,1,,,,,,,,,,,,,,,,,,,,,,,,,,,,,,,,,,,,,13,helar,,,,,736.6342,738.5987,0,0,1.4316,,0,53,53,12,1,REAL,FAKE,,,,,,,,,,,,,,,,,
,,,,,,,,,67913c61b0348a0c3a92405d,spanish,13 or older,"no, only English or Spanish",no,2025-07-24_10h46.30.626,empathy_intonation_perc_control,2024.2.4,Win32,59.88023952,67913c61b0348a0c3a92405d,68817205a84113384fffdfe3,688246927f86b36d94dbae51,,,,,,,,,,,,,1,,,,,,,,,,,,,,,,,,,,,,,,,,,,,,,,,,,,,57,tacaño,,,,,738.6007,740.482,1,1,1.3645,,0,54,54,56,1,REAL,FAKE,,,,,,,,,,,,,,,,,
,,,,,,,,,67913c61b0348a0c3a92405d,spanish,13 or older,"no, only English or Spanish",no,2025-07-24_10h46.30.626,empathy_intonation_perc_control,2024.2.4,Win32,59.88023952,67913c61b0348a0c3a92405d,68817205a84113384fffdfe3,688246927f86b36d94dbae51,,,,,,,,,,,,,0,,,,,,,,,,,,,,,,,,,,,,,,,,,,,,,,,,,,,58,plaudir,,,,,740.4838,741.932,0,1,0.9177,,0,55,55,57,1,REAL,FAKE,,,,,,,,,,,,,,,,,
,,,,,,,,,67913c61b0348a0c3a92405d,spanish,13 or older,"no, only English or Spanish",no,2025-07-24_10h46.30.626,empathy_intonation_perc_control,2024.2.4,Win32,59.88023952,67913c61b0348a0c3a92405d,68817205a84113384fffdfe3,688246927f86b36d94dbae51,,,,,,,,,,,,,0,,,,,,,,,,,,,,,,,,,,,,,,,,,,,,,,,,,,,29,decar,,,,,741.9342,744.9986,1,0,2.5265,,0,56,56,28,1,REAL,FAKE,,,,,,,,,,,,,,,,,
,,,,,,,,,67913c61b0348a0c3a92405d,spanish,13 or older,"no, only English or Spanish",no,2025-07-24_10h46.30.626,empathy_intonation_perc_control,2024.2.4,Win32,59.88023952,67913c61b0348a0c3a92405d,68817205a84113384fffdfe3,688246927f86b36d94dbae51,,,,,,,,,,,,,0,,,,,,,,,,,,,,,,,,,,,,,,,,,,,,,,,,,,,19,brecedad,,,,,745.0011,747.4487,0,1,1.9113,,0,57,57,18,1,REAL,FAKE,,,,,,,,,,,,,,,,,
,,,,,,,,,67913c61b0348a0c3a92405d,spanish,13 or older,"no, only English or Spanish",no,2025-07-24_10h46.30.626,empathy_intonation_perc_control,2024.2.4,Win32,59.88023952,67913c61b0348a0c3a92405d,68817205a84113384fffdfe3,688246927f86b36d94dbae51,,,,,,,,,,,,,1,,,,,,,,,,,,,,,,,,,,,,,,,,,,,,,,,,,,,6,tergiversar,,,,,747.4511,749.7486,0,0,1.766200001,,0,58,58,5,1,REAL,FAKE,,,,,,,,,,,,,,,,,
,,,,,,,,,67913c61b0348a0c3a92405d,spanish,13 or older,"no, only English or Spanish",no,2025-07-24_10h46.30.626,empathy_intonation_perc_control,2024.2.4,Win32,59.88023952,67913c61b0348a0c3a92405d,68817205a84113384fffdfe3,688246927f86b36d94dbae51,,,,,,,,,,,,,0,,,,,,,,,,,,,,,,,,,,,,,,,,,,,,,,,,,,,72,pemición,,,,,749.7512,753.0321,1,0,2.744099999,,0,59,59,71,1,REAL,FAKE,,,,,,,,,,,,,,,,,
,,,,,,,,,67913c61b0348a0c3a92405d,spanish,13 or older,"no, only English or Spanish",no,2025-07-24_10h46.30.626,empathy_intonation_perc_control,2024.2.4,Win32,59.88023952,67913c61b0348a0c3a92405d,68817205a84113384fffdfe3,688246927f86b36d94dbae51,,,,,,,,,,,,,0,,,,,,,,,,,,,,,,,,,,,,,,,,,,,,,,,,,,,23,lampera,,,,,753.0341,755.2657,1,0,1.7018,,0,60,60,22,1,REAL,FAKE,,,,,,,,,,,,,,,,,
,,,,,,,,,67913c61b0348a0c3a92405d,spanish,13 or older,"no, only English or Spanish",no,2025-07-24_10h46.30.626,empathy_intonation_perc_control,2024.2.4,Win32,59.88023952,67913c61b0348a0c3a92405d,68817205a84113384fffdfe3,688246927f86b36d94dbae51,,,,,,,,,,,,,1,,,,,,,,,,,,,,,,,,,,,,,,,,,,,,,,,,,,,69,engatusar,,,,,755.2677,757.2819,0,0,1.4822,,0,61,61,68,1,REAL,FAKE,,,,,,,,,,,,,,,,,
,,,,,,,,,67913c61b0348a0c3a92405d,spanish,13 or older,"no, only English or Spanish",no,2025-07-24_10h46.30.626,empathy_intonation_perc_control,2024.2.4,Win32,59.88023952,67913c61b0348a0c3a92405d,68817205a84113384fffdfe3,688246927f86b36d94dbae51,,,,,,,,,,,,,1,,,,,,,,,,,,,,,,,,,,,,,,,,,,,,,,,,,,,24,látigo,,,,,757.2845,760.932,1,1,3.1099,,0,62,62,23,1,REAL,FAKE,,,,,,,,,,,,,,,,,
,,,,,,,,,67913c61b0348a0c3a92405d,spanish,13 or older,"no, only English or Spanish",no,2025-07-24_10h46.30.626,empathy_intonation_perc_control,2024.2.4,Win32,59.88023952,67913c61b0348a0c3a92405d,68817205a84113384fffdfe3,688246927f86b36d94dbae51,,,,,,,,,,,,,0,,,,,,,,,,,,,,,,,,,,,,,,,,,,,,,,,,,,,21,capillo,,,,,760.9342,762.9004,1,0,1.4366,,0,63,63,20,1,REAL,FAKE,,,,,,,,,,,,,,,,,
,,,,,,,,,67913c61b0348a0c3a92405d,spanish,13 or older,"no, only English or Spanish",no,2025-07-24_10h46.30.626,empathy_intonation_perc_control,2024.2.4,Win32,59.88023952,67913c61b0348a0c3a92405d,68817205a84113384fffdfe3,688246927f86b36d94dbae51,,,,,,,,,,,,,1,,,,,,,,,,,,,,,,,,,,,,,,,,,,,,,,,,,,,46,martillo,,,,,762.9021,765.9154,1,1,2.4781,,0,64,64,45,1,REAL,FAKE,,,,,,,,,,,,,,,,,
,,,,,,,,,67913c61b0348a0c3a92405d,spanish,13 or older,"no, only English or Spanish",no,2025-07-24_10h46.30.626,empathy_intonation_perc_control,2024.2.4,Win32,59.88023952,67913c61b0348a0c3a92405d,68817205a84113384fffdfe3,688246927f86b36d94dbae51,,,,,,,,,,,,,0,,,,,,,,,,,,,,,,,,,,,,,,,,,,,,,,,,,,,32,fatacidad,,,,,765.9174,767.6998,0,1,1.2537,,0,65,65,31,1,REAL,FAKE,,,,,,,,,,,,,,,,,
,,,,,,,,,67913c61b0348a0c3a92405d,spanish,13 or older,"no, only English or Spanish",no,2025-07-24_10h46.30.626,empathy_intonation_perc_control,2024.2.4,Win32,59.88023952,67913c61b0348a0c3a92405d,68817205a84113384fffdfe3,688246927f86b36d94dbae51,,,,,,,,,,,,,1,,,,,,,,,,,,,,,,,,,,,,,,,,,,,,,,,,,,,20,ávido,,,,,767.7015,769.9654,1,1,1.7338,,0,66,66,19,1,REAL,FAKE,,,,,,,,,,,,,,,,,
,,,,,,,,,67913c61b0348a0c3a92405d,spanish,13 or older,"no, only English or Spanish",no,2025-07-24_10h46.30.626,empathy_intonation_perc_control,2024.2.4,Win32,59.88023952,67913c61b0348a0c3a92405d,68817205a84113384fffdfe3,688246927f86b36d94dbae51,,,,,,,,,,,,,1,,,,,,,,,,,,,,,,,,,,,,,,,,,,,,,,,,,,,22,lacayo,,,,,769.9675,771.3838,0,0,0.8882,,0,67,67,21,1,REAL,FAKE,,,,,,,,,,,,,,,,,
,,,,,,,,,67913c61b0348a0c3a92405d,spanish,13 or older,"no, only English or Spanish",no,2025-07-24_10h46.30.626,empathy_intonation_perc_control,2024.2.4,Win32,59.88023952,67913c61b0348a0c3a92405d,68817205a84113384fffdfe3,688246927f86b36d94dbae51,,,,,,,,,,,,,0,,,,,,,,,,,,,,,,,,,,,,,,,,,,,,,,,,,,,33,pauca,,,,,771.3854,772.8155,0,1,0.903200001,,0,68,68,32,1,REAL,FAKE,,,,,,,,,,,,,,,,,
,,,,,,,,,67913c61b0348a0c3a92405d,spanish,13 or older,"no, only English or Spanish",no,2025-07-24_10h46.30.626,empathy_intonation_perc_control,2024.2.4,Win32,59.88023952,67913c61b0348a0c3a92405d,68817205a84113384fffdfe3,688246927f86b36d94dbae51,,,,,,,,,,,,,1,,,,,,,,,,,,,,,,,,,,,,,,,,,,,,,,,,,,,37,granuja,,,,,772.8174,774.5152,0,0,1.1636,,0,69,69,36,1,REAL,FAKE,,,,,,,,,,,,,,,,,
,,,,,,,,,67913c61b0348a0c3a92405d,spanish,13 or older,"no, only English or Spanish",no,2025-07-24_10h46.30.626,empathy_intonation_perc_control,2024.2.4,Win32,59.88023952,67913c61b0348a0c3a92405d,68817205a84113384fffdfe3,688246927f86b36d94dbae51,,,,,,,,,,,,,1,,,,,,,,,,,,,,,,,,,,,,,,,,,,,,,,,,,,,48,ladrón,,,,,774.5171,776.833,1,1,1.786700001,,0,70,70,47,1,REAL,FAKE,,,,,,,,,,,,,,,,,
,,,,,,,,,67913c61b0348a0c3a92405d,spanish,13 or older,"no, only English or Spanish",no,2025-07-24_10h46.30.626,empathy_intonation_perc_control,2024.2.4,Win32,59.88023952,67913c61b0348a0c3a92405d,68817205a84113384fffdfe3,688246927f86b36d94dbae51,,,,,,,,,,,,,1,,,,,,,,,,,,,,,,,,,,,,,,,,,,,,,,,,,,,38,estornudar,,,,,776.8348,778.9653,0,0,1.5912,,0,71,71,37,1,REAL,FAKE,,,,,,,,,,,,,,,,,
,,,,,,,,,67913c61b0348a0c3a92405d,spanish,13 or older,"no, only English or Spanish",no,2025-07-24_10h46.30.626,empathy_intonation_perc_control,2024.2.4,Win32,59.88023952,67913c61b0348a0c3a92405d,68817205a84113384fffdfe3,688246927f86b36d94dbae51,,,,,,,,,,,,,1,,,,,,,,,,,,,,,,,,,,,,,,,,,,,,,,,,,,,31,pandilla,,,,,778.9673,781.8838,0,0,2.3896,,0,72,72,30,1,REAL,FAKE,,,,,,,,,,,,,,,,,
,,,,,,,,,67913c61b0348a0c3a92405d,spanish,13 or older,"no, only English or Spanish",no,2025-07-24_10h46.30.626,empathy_intonation_perc_control,2024.2.4,Win32,59.88023952,67913c61b0348a0c3a92405d,68817205a84113384fffdfe3,688246927f86b36d94dbae51,,,,,,,,,,,,,1,,,,,,,,,,,,,,,,,,,,,,,,,,,,,,,,,,,,,39,torpe,,,,,781.8855,783.7487,0,0,1.3267,,0,73,73,38,1,REAL,FAKE,,,,,,,,,,,,,,,,,
,,,,,,,,,67913c61b0348a0c3a92405d,spanish,13 or older,"no, only English or Spanish",no,2025-07-24_10h46.30.626,empathy_intonation_perc_control,2024.2.4,Win32,59.88023952,67913c61b0348a0c3a92405d,68817205a84113384fffdfe3,688246927f86b36d94dbae51,,,,,,,,,,,,,1,,,,,,,,,,,,,,,,,,,,,,,,,,,,,,,,,,,,,86,barato,,,,,783.7506,784.9987,1,1,0.7122,,0,74,74,85,1,REAL,FAKE,,,,,,,,,,,,,,,,,
,,,,,,,,,67913c61b0348a0c3a92405d,spanish,13 or older,"no, only English or Spanish",no,2025-07-24_10h46.30.626,empathy_intonation_perc_control,2024.2.4,Win32,59.88023952,67913c61b0348a0c3a92405d,68817205a84113384fffdfe3,688246927f86b36d94dbae51,,,,,,,,,,,,,1,,,,,,,,,,,,,,,,,,,,,,,,,,,,,,,,,,,,,7,pésimo,,,,,785.0005,789.1059,1,1,3.5779,,0,75,75,6,1,REAL,FAKE,,,,,,,,,,,,,,,,,
,,,,,,,,,67913c61b0348a0c3a92405d,spanish,13 or older,"no, only English or Spanish",no,2025-07-24_10h46.30.626,empathy_intonation_perc_control,2024.2.4,Win32,59.88023952,67913c61b0348a0c3a92405d,68817205a84113384fffdfe3,688246927f86b36d94dbae51,,,,,,,,,,,,,1,,,,,,,,,,,,,,,,,,,,,,,,,,,,,,,,,,,,,54,fomentar,,,,,789.1078,791.8487,0,0,2.2121,,0,76,76,53,1,REAL,FAKE,,,,,,,,,,,,,,,,,
,,,,,,,,,67913c61b0348a0c3a92405d,spanish,13 or older,"no, only English or Spanish",no,2025-07-24_10h46.30.626,empathy_intonation_perc_control,2024.2.4,Win32,59.88023952,67913c61b0348a0c3a92405d,68817205a84113384fffdfe3,688246927f86b36d94dbae51,,,,,,,,,,,,,0,,,,,,,,,,,,,,,,,,,,,,,,,,,,,,,,,,,,,16,abracer,,,,,791.8507,793.1986,0,1,0.8104,,0,77,77,15,1,REAL,FAKE,,,,,,,,,,,,,,,,,
,,,,,,,,,67913c61b0348a0c3a92405d,spanish,13 or older,"no, only English or Spanish",no,2025-07-24_10h46.30.626,empathy_intonation_perc_control,2024.2.4,Win32,59.88023952,67913c61b0348a0c3a92405d,68817205a84113384fffdfe3,688246927f86b36d94dbae51,,,,,,,,,,,,,0,,,,,,,,,,,,,,,,,,,,,,,,,,,,,,,,,,,,,18,arsa,,,,,793.2006,794.582,0,1,0.8503,,0,78,78,17,1,REAL,FAKE,,,,,,,,,,,,,,,,,
,,,,,,,,,67913c61b0348a0c3a92405d,spanish,13 or older,"no, only English or Spanish",no,2025-07-24_10h46.30.626,empathy_intonation_perc_control,2024.2.4,Win32,59.88023952,67913c61b0348a0c3a92405d,68817205a84113384fffdfe3,688246927f86b36d94dbae51,,,,,,,,,,,,,1,,,,,,,,,,,,,,,,,,,,,,,,,,,,,,,,,,,,,11,cenefa,,,,,794.5841,795.9996,0,0,0.875099999,,0,79,79,10,1,REAL,FAKE,,,,,,,,,,,,,,,,,
,,,,,,,,,67913c61b0348a0c3a92405d,spanish,13 or older,"no, only English or Spanish",no,2025-07-24_10h46.30.626,empathy_intonation_perc_control,2024.2.4,Win32,59.88023952,67913c61b0348a0c3a92405d,68817205a84113384fffdfe3,688246927f86b36d94dbae51,,,,,,,,,,,,,1,,,,,,,,,,,,,,,,,,,,,,,,,,,,,,,,,,,,,15,regar,,,,,796.0015,798.5988,0,0,2.0595,,0,80,80,14,1,REAL,FAKE,,,,,,,,,,,,,,,,,
,,,,,,,,,67913c61b0348a0c3a92405d,spanish,13 or older,"no, only English or Spanish",no,2025-07-24_10h46.30.626,empathy_intonation_perc_control,2024.2.4,Win32,59.88023952,67913c61b0348a0c3a92405d,68817205a84113384fffdfe3,688246927f86b36d94dbae51,,,,,,,,,,,,,1,,,,,,,,,,,,,,,,,,,,,,,,,,,,,,,,,,,,,26,secuestro,,,,,798.6008,801.5485,1,1,2.4227,,0,81,81,25,1,REAL,FAKE,,,,,,,,,,,,,,,,,
,,,,,,,,,67913c61b0348a0c3a92405d,spanish,13 or older,"no, only English or Spanish",no,2025-07-24_10h46.30.626,empathy_intonation_perc_control,2024.2.4,Win32,59.88023952,67913c61b0348a0c3a92405d,68817205a84113384fffdfe3,688246927f86b36d94dbae51,,,,,,,,,,,,,1,,,,,,,,,,,,,,,,,,,,,,,,,,,,,,,,,,,,,55,nevar,,,,,801.5505,803.0685,1,1,0.9903,,0,82,82,54,1,REAL,FAKE,,,,,,,,,,,,,,,,,
,,,,,,,,,67913c61b0348a0c3a92405d,spanish,13 or older,"no, only English or Spanish",no,2025-07-24_10h46.30.626,empathy_intonation_perc_control,2024.2.4,Win32,59.88023952,67913c61b0348a0c3a92405d,68817205a84113384fffdfe3,688246927f86b36d94dbae51,,,,,,,,,,,,,1,,,,,,,,,,,,,,,,,,,,,,,,,,,,,,,,,,,,,61,seda,,,,,803.0699,806.5154,1,1,2.915900001,,0,83,83,60,1,REAL,FAKE,,,,,,,,,,,,,,,,,
,,,,,,,,,67913c61b0348a0c3a92405d,spanish,13 or older,"no, only English or Spanish",no,2025-07-24_10h46.30.626,empathy_intonation_perc_control,2024.2.4,Win32,59.88023952,67913c61b0348a0c3a92405d,68817205a84113384fffdfe3,688246927f86b36d94dbae51,,,,,,,,,,,,,0,,,,,,,,,,,,,,,,,,,,,,,,,,,,,,,,,,,,,63,esposante,,,,,806.5174,808.2654,0,1,1.2105,,0,84,84,62,1,REAL,FAKE,,,,,,,,,,,,,,,,,
,,,,,,,,,67913c61b0348a0c3a92405d,spanish,13 or older,"no, only English or Spanish",no,2025-07-24_10h46.30.626,empathy_intonation_perc_control,2024.2.4,Win32,59.88023952,67913c61b0348a0c3a92405d,68817205a84113384fffdfe3,688246927f86b36d94dbae51,,,,,,,,,,,,,1,,,,,,,,,,,,,,,,,,,,,,,,,,,,,,,,,,,,,81,pozo,,,,,808.2673,809.6819,0,0,0.8835,,0,85,85,80,1,REAL,FAKE,,,,,,,,,,,,,,,,,
,,,,,,,,,67913c61b0348a0c3a92405d,spanish,13 or older,"no, only English or Spanish",no,2025-07-24_10h46.30.626,empathy_intonation_perc_control,2024.2.4,Win32,59.88023952,67913c61b0348a0c3a92405d,68817205a84113384fffdfe3,688246927f86b36d94dbae51,,,,,,,,,,,,,0,,,,,,,,,,,,,,,,,,,,,,,,,,,,,,,,,,,,,27,acutación,,,,,809.6836,811.7987,0,1,1.5775,,0,86,86,26,1,REAL,FAKE,,,,,,,,,,,,,,,,,
,,,,,,,,,67913c61b0348a0c3a92405d,spanish,13 or older,"no, only English or Spanish",no,2025-07-24_10h46.30.626,empathy_intonation_perc_control,2024.2.4,Win32,59.88023952,67913c61b0348a0c3a92405d,68817205a84113384fffdfe3,688246927f86b36d94dbae51,,,,,,,,,,,,,1,,,,,,,,,,,,,,,,,,,,,,,,,,,,,,,,,,,,,2,pellizcar,,,,,811.8005,816.3334,0,0,4.0028,,0,87,87,1,1,REAL,FAKE,,,,,,,,,,,,,,,,,
,,,,,,,,,67913c61b0348a0c3a92405d,spanish,13 or older,"no, only English or Spanish",no,2025-07-24_10h46.30.626,empathy_intonation_perc_control,2024.2.4,Win32,59.88023952,67913c61b0348a0c3a92405d,68817205a84113384fffdfe3,688246927f86b36d94dbae51,,,,,,,,,,,,,0,,,,,,,,,,,,,,,,,,,,,,,,,,,,,,,,,,,,,42,cadallo,,,,,816.3351,821.9326,0,1,5.0698,,0,88,88,41,1,REAL,FAKE,,,,,,,,,,,,,,,,,
,,,,,,,,,67913c61b0348a0c3a92405d,spanish,13 or older,"no, only English or Spanish",no,2025-07-24_10h46.30.626,empathy_intonation_perc_control,2024.2.4,Win32,59.88023952,67913c61b0348a0c3a92405d,68817205a84113384fffdfe3,688246927f86b36d94dbae51,,,,,,,,,,,,,1,,,,,,,,,,,,,,,,,,,,,,,,,,,,,,,,,,,,,59,besar,,,,,821.9347,823.382,0,0,0.9189,,0,89,89,58,1,REAL,FAKE,,,,,,,,,,,,,,,,,
,,,,,,,,,67913c61b0348a0c3a92405d,spanish,13 or older,"no, only English or Spanish",no,2025-07-24_10h46.30.626,empathy_intonation_perc_control,2024.2.4,Win32,59.88023952,67913c61b0348a0c3a92405d,68817205a84113384fffdfe3,688246927f86b36d94dbae51,,,,,,,,,,,,,0,,,,,,,,,,,,,,,,,,,,,,,,,,,,,,,,,,,,,4,batillón,,,,,823.3839,826.732,1,0,2.8194,,0,90,90,3,1,REAL,FAKE,,,,,,,,,,,,,,,,,
,,,,,,,,,67913c61b0348a0c3a92405d,spanish,13 or older,"no, only English or Spanish",no,2025-07-24_10h46.30.626,empathy_intonation_perc_control,2024.2.4,Win32,59.88023952,67913c61b0348a0c3a92405d,68817205a84113384fffdfe3,688246927f86b36d94dbae51,,,,,,,,,,,,,0,,,,,,,,,,,,,,,,,,,,,,,,,,,,,,,,,,,,,17,floroso,,,,,826.7342,828.0653,0,1,0.7953,,0,91,91,16,1,REAL,FAKE,,,,,,,,,,,,,,,,,
,,,,,,,,,67913c61b0348a0c3a92405d,spanish,13 or older,"no, only English or Spanish",no,2025-07-24_10h46.30.626,empathy_intonation_perc_control,2024.2.4,Win32,59.88023952,67913c61b0348a0c3a92405d,68817205a84113384fffdfe3,688246927f86b36d94dbae51,,,,,,,,,,,,,,,,,,,,,,,,,,,,,,,,,,,,,,,,,,,,,,,,,,,,,,,,,,,,,,,,,,,,,828.0659,837.8326,,,,,,,,,,,,,,,
,,,,,,,,,67913c61b0348a0c3a92405d,spanish,13 or older,"no, only English or Spanish",no,2025-07-24_10h46.30.626,empathy_intonation_perc_control,2024.2.4,Win32,59.88023952,67913c61b0348a0c3a92405d,68817205a84113384fffdfe3,688246927f86b36d94dbae51,,,,,,,,,,,,,,,,,,,,,,,,,,,1,,,,,,,,,,,,,,,,,,,,,,,,,,,,,,,,,,,,,,,,,,,,837.8528,845.9341,slightly agree,0,0,0,0,1,I can easily tell if someone else wants to enter a conversation.,1,0,1,0,,
,,,,,,,,,67913c61b0348a0c3a92405d,spanish,13 or older,"no, only English or Spanish",no,2025-07-24_10h46.30.626,empathy_intonation_perc_control,2024.2.4,Win32,59.88023952,67913c61b0348a0c3a92405d,68817205a84113384fffdfe3,688246927f86b36d94dbae51,,,,,,,,,,,,,,,,,,,,,,,,,,,2,,,,,,,,,,,,,,,,,,,,,,,,,,,,,,,,,,,,,,,,,,,,845.9378,854.1656,slightly agree,0,1,1,1,1,I prefer animals to humans.,0,1,0,0,,
,,,,,,,,,67913c61b0348a0c3a92405d,spanish,13 or older,"no, only English or Spanish",no,2025-07-24_10h46.30.626,empathy_intonation_perc_control,2024.2.4,Win32,59.88023952,67913c61b0348a0c3a92405d,68817205a84113384fffdfe3,688246927f86b36d94dbae51,,,,,,,,,,,,,,,,,,,,,,,,,,,3,,,,,,,,,,,,,,,,,,,,,,,,,,,,,,,,,,,,,,,,,,,,854.1696,859.3321,strongly disagree,0,2,2,2,1,I try to keep up with the current trends and fashions.,0,1,0,0,,
,,,,,,,,,67913c61b0348a0c3a92405d,spanish,13 or older,"no, only English or Spanish",no,2025-07-24_10h46.30.626,empathy_intonation_perc_control,2024.2.4,Win32,59.88023952,67913c61b0348a0c3a92405d,68817205a84113384fffdfe3,688246927f86b36d94dbae51,,,,,,,,,,,,,,,,,,,,,,,,,,,4,,,,,,,,,,,,,,,,,,,,,,,,,,,,,,,,,,,,,,,,,,,,859.3368,868.2703,slightly agree,0,3,3,3,1,"I find it difficult to explain to others things that I understand easily,   when they don't understand it first time.",1,0,0,1,,
,,,,,,,,,67913c61b0348a0c3a92405d,spanish,13 or older,"no, only English or Spanish",no,2025-07-24_10h46.30.626,empathy_intonation_perc_control,2024.2.4,Win32,59.88023952,67913c61b0348a0c3a92405d,68817205a84113384fffdfe3,688246927f86b36d94dbae51,,,,,,,,,,,,,,,,,,,,,,,,,,,5,,,,,,,,,,,,,,,,,,,,,,,,,,,,,,,,,,,,,,,,,,,,868.2722,871.6036,strongly disagree,0,4,4,4,1,I dream most nights.,0,1,0,0,,
,,,,,,,,,67913c61b0348a0c3a92405d,spanish,13 or older,"no, only English or Spanish",no,2025-07-24_10h46.30.626,empathy_intonation_perc_control,2024.2.4,Win32,59.88023952,67913c61b0348a0c3a92405d,68817205a84113384fffdfe3,688246927f86b36d94dbae51,,,,,,,,,,,,,,,,,,,,,,,,,,,6,,,,,,,,,,,,,,,,,,,,,,,,,,,,,,,,,,,,,,,,,,,,871.6061,875.4493,slightly agree,0,5,5,5,1,I really enjoy caring for other people.,1,0,1,0,,
,,,,,,,,,67913c61b0348a0c3a92405d,spanish,13 or older,"no, only English or Spanish",no,2025-07-24_10h46.30.626,empathy_intonation_perc_control,2024.2.4,Win32,59.88023952,67913c61b0348a0c3a92405d,68817205a84113384fffdfe3,688246927f86b36d94dbae51,,,,,,,,,,,,,,,,,,,,,,,,,,,7,,,,,,,,,,,,,,,,,,,,,,,,,,,,,,,,,,,,,,,,,,,,875.4524,880.7984,slightly disagree,0,6,6,6,1,I try to solve my own problems rather than discussing them with others.,0,1,0,0,,
,,,,,,,,,67913c61b0348a0c3a92405d,spanish,13 or older,"no, only English or Spanish",no,2025-07-24_10h46.30.626,empathy_intonation_perc_control,2024.2.4,Win32,59.88023952,67913c61b0348a0c3a92405d,68817205a84113384fffdfe3,688246927f86b36d94dbae51,,,,,,,,,,,,,,,,,,,,,,,,,,,8,,,,,,,,,,,,,,,,,,,,,,,,,,,,,,,,,,,,,,,,,,,,880.8018,886.3322,slightly disagree,0,7,7,7,1,I find it hard to know what to do in a social situation.,1,0,0,1,,
,,,,,,,,,67913c61b0348a0c3a92405d,spanish,13 or older,"no, only English or Spanish",no,2025-07-24_10h46.30.626,empathy_intonation_perc_control,2024.2.4,Win32,59.88023952,67913c61b0348a0c3a92405d,68817205a84113384fffdfe3,688246927f86b36d94dbae51,,,,,,,,,,,,,,,,,,,,,,,,,,,9,,,,,,,,,,,,,,,,,,,,,,,,,,,,,,,,,,,,,,,,,,,,886.3358,890.6151,strongly agree,0,8,8,8,1,I am at my best first thing in the morning.,0,1,0,0,,
,,,,,,,,,67913c61b0348a0c3a92405d,spanish,13 or older,"no, only English or Spanish",no,2025-07-24_10h46.30.626,empathy_intonation_perc_control,2024.2.4,Win32,59.88023952,67913c61b0348a0c3a92405d,68817205a84113384fffdfe3,688246927f86b36d94dbae51,,,,,,,,,,,,,,,,,,,,,,,,,,,10,,,,,,,,,,,,,,,,,,,,,,,,,,,,,,,,,,,,,,,,,,,,890.6193,898.1816,slightly disagree,0,9,9,9,1,People often tell me that I went too far in driving my point home in a discussion.,1,0,0,1,,
,,,,,,,,,67913c61b0348a0c3a92405d,spanish,13 or older,"no, only English or Spanish",no,2025-07-24_10h46.30.626,empathy_intonation_perc_control,2024.2.4,Win32,59.88023952,67913c61b0348a0c3a92405d,68817205a84113384fffdfe3,688246927f86b36d94dbae51,,,,,,,,,,,,,,,,,,,,,,,,,,,11,,,,,,,,,,,,,,,,,,,,,,,,,,,,,,,,,,,,,,,,,,,,898.1854,904.6985,strongly disagree,0,10,10,10,1,It doesn't bother me too much if I am late meeting a friend.,1,0,0,1,,
,,,,,,,,,67913c61b0348a0c3a92405d,spanish,13 or older,"no, only English or Spanish",no,2025-07-24_10h46.30.626,empathy_intonation_perc_control,2024.2.4,Win32,59.88023952,67913c61b0348a0c3a92405d,68817205a84113384fffdfe3,688246927f86b36d94dbae51,,,,,,,,,,,,,,,,,,,,,,,,,,,12,,,,,,,,,,,,,,,,,,,,,,,,,,,,,,,,,,,,,,,,,,,,904.7031,908.7487,strongly disagree,0,11,11,11,1,"Friendships and relationships are just too difficult, so I tend not to 
  bother with them.",1,0,0,1,,
,,,,,,,,,67913c61b0348a0c3a92405d,spanish,13 or older,"no, only English or Spanish",no,2025-07-24_10h46.30.626,empathy_intonation_perc_control,2024.2.4,Win32,59.88023952,67913c61b0348a0c3a92405d,68817205a84113384fffdfe3,688246927f86b36d94dbae51,,,,,,,,,,,,,,,,,,,,,,,,,,,13,,,,,,,,,,,,,,,,,,,,,,,,,,,,,,,,,,,,,,,,,,,,908.752,916.3154,slightly disagree,0,12,12,12,1,"I would never break a law, no matter how minor.",0,1,0,0,,
,,,,,,,,,67913c61b0348a0c3a92405d,spanish,13 or older,"no, only English or Spanish",no,2025-07-24_10h46.30.626,empathy_intonation_perc_control,2024.2.4,Win32,59.88023952,67913c61b0348a0c3a92405d,68817205a84113384fffdfe3,688246927f86b36d94dbae51,,,,,,,,,,,,,,,,,,,,,,,,,,,14,,,,,,,,,,,,,,,,,,,,,,,,,,,,,,,,,,,,,,,,,,,,916.3192,923.1485,slightly disagree,0,13,13,13,1,I often find it difficult to judge if something is rude or polite.,1,0,0,1,,
,,,,,,,,,67913c61b0348a0c3a92405d,spanish,13 or older,"no, only English or Spanish",no,2025-07-24_10h46.30.626,empathy_intonation_perc_control,2024.2.4,Win32,59.88023952,67913c61b0348a0c3a92405d,68817205a84113384fffdfe3,688246927f86b36d94dbae51,,,,,,,,,,,,,,,,,,,,,,,,,,,15,,,,,,,,,,,,,,,,,,,,,,,,,,,,,,,,,,,,,,,,,,,,923.1527,929.9816,slightly agree,0,14,14,14,1,"In a conversation, I tend to focus on my own thoughts rather than on what 
  my listener might be thinking.",1,0,0,1,,
,,,,,,,,,67913c61b0348a0c3a92405d,spanish,13 or older,"no, only English or Spanish",no,2025-07-24_10h46.30.626,empathy_intonation_perc_control,2024.2.4,Win32,59.88023952,67913c61b0348a0c3a92405d,68817205a84113384fffdfe3,688246927f86b36d94dbae51,,,,,,,,,,,,,,,,,,,,,,,,,,,16,,,,,,,,,,,,,,,,,,,,,,,,,,,,,,,,,,,,,,,,,,,,929.9853,935.4815,slightly disagree,0,15,15,15,1,I prefer practical jokes to verbal humor.,0,1,0,0,,
,,,,,,,,,67913c61b0348a0c3a92405d,spanish,13 or older,"no, only English or Spanish",no,2025-07-24_10h46.30.626,empathy_intonation_perc_control,2024.2.4,Win32,59.88023952,67913c61b0348a0c3a92405d,68817205a84113384fffdfe3,688246927f86b36d94dbae51,,,,,,,,,,,,,,,,,,,,,,,,,,,17,,,,,,,,,,,,,,,,,,,,,,,,,,,,,,,,,,,,,,,,,,,,935.4853,939.7985,slightly agree,0,16,16,16,1,I live life for today rather than the future.,0,1,0,0,,
,,,,,,,,,67913c61b0348a0c3a92405d,spanish,13 or older,"no, only English or Spanish",no,2025-07-24_10h46.30.626,empathy_intonation_perc_control,2024.2.4,Win32,59.88023952,67913c61b0348a0c3a92405d,68817205a84113384fffdfe3,688246927f86b36d94dbae51,,,,,,,,,,,,,,,,,,,,,,,,,,,18,,,,,,,,,,,,,,,,,,,,,,,,,,,,,,,,,,,,,,,,,,,,939.8023,944.232,strongly disagree,0,17,17,17,1,"When I was a child, I enjoyed cutting up worms to see what would happen.",1,0,0,1,,
,,,,,,,,,67913c61b0348a0c3a92405d,spanish,13 or older,"no, only English or Spanish",no,2025-07-24_10h46.30.626,empathy_intonation_perc_control,2024.2.4,Win32,59.88023952,67913c61b0348a0c3a92405d,68817205a84113384fffdfe3,688246927f86b36d94dbae51,,,,,,,,,,,,,,,,,,,,,,,,,,,19,,,,,,,,,,,,,,,,,,,,,,,,,,,,,,,,,,,,,,,,,,,,944.2355,950.9152,slightly disagree,0,18,18,18,1,I can pick up quickly if someone says one thing but means another.,1,0,1,0,,
,,,,,,,,,67913c61b0348a0c3a92405d,spanish,13 or older,"no, only English or Spanish",no,2025-07-24_10h46.30.626,empathy_intonation_perc_control,2024.2.4,Win32,59.88023952,67913c61b0348a0c3a92405d,68817205a84113384fffdfe3,688246927f86b36d94dbae51,,,,,,,,,,,,,,,,,,,,,,,,,,,20,,,,,,,,,,,,,,,,,,,,,,,,,,,,,,,,,,,,,,,,,,,,950.9186,955.6318,strongly agree,0,19,19,19,1,I tend to have very strong opinions about morality.,0,1,0,0,,
,,,,,,,,,67913c61b0348a0c3a92405d,spanish,13 or older,"no, only English or Spanish",no,2025-07-24_10h46.30.626,empathy_intonation_perc_control,2024.2.4,Win32,59.88023952,67913c61b0348a0c3a92405d,68817205a84113384fffdfe3,688246927f86b36d94dbae51,,,,,,,,,,,,,,,,,,,,,,,,,,,21,,,,,,,,,,,,,,,,,,,,,,,,,,,,,,,,,,,,,,,,,,,,955.6354,962.2483,slightly agree,0,20,20,20,1,It is hard for me to see why some things upset people so much.,1,0,0,1,,
,,,,,,,,,67913c61b0348a0c3a92405d,spanish,13 or older,"no, only English or Spanish",no,2025-07-24_10h46.30.626,empathy_intonation_perc_control,2024.2.4,Win32,59.88023952,67913c61b0348a0c3a92405d,68817205a84113384fffdfe3,688246927f86b36d94dbae51,,,,,,,,,,,,,,,,,,,,,,,,,,,22,,,,,,,,,,,,,,,,,,,,,,,,,,,,,,,,,,,,,,,,,,,,962.2514,966.4486,slightly disagree,0,21,21,21,1,I find it easy to put myself in somebody else's shoes.,1,0,1,0,,
,,,,,,,,,67913c61b0348a0c3a92405d,spanish,13 or older,"no, only English or Spanish",no,2025-07-24_10h46.30.626,empathy_intonation_perc_control,2024.2.4,Win32,59.88023952,67913c61b0348a0c3a92405d,68817205a84113384fffdfe3,688246927f86b36d94dbae51,,,,,,,,,,,,,,,,,,,,,,,,,,,23,,,,,,,,,,,,,,,,,,,,,,,,,,,,,,,,,,,,,,,,,,,,966.4521,972.5986,slightly agree,0,22,22,22,1,I think that good manners are the most important thing a parent can teach their child.,0,1,0,0,,
,,,,,,,,,67913c61b0348a0c3a92405d,spanish,13 or older,"no, only English or Spanish",no,2025-07-24_10h46.30.626,empathy_intonation_perc_control,2024.2.4,Win32,59.88023952,67913c61b0348a0c3a92405d,68817205a84113384fffdfe3,688246927f86b36d94dbae51,,,,,,,,,,,,,,,,,,,,,,,,,,,24,,,,,,,,,,,,,,,,,,,,,,,,,,,,,,,,,,,,,,,,,,,,972.602,975.9316,slightly agree,0,23,23,23,1,I like to do things on the spur of the moment.,0,1,0,0,,
