instructions_2afc.started,instructions_2afc.stopped,instructions_2afc_loop.thisRepN,instructions_2afc_loop.thisTrialN,instructions_2afc_loop.thisN,instructions_2afc_loop.thisIndex,instructions_2afc_loop.ran,instructions_text,continue_text,participant_id,"What variety of Spanish are you most familiar with? (e.g., Peruvian, Spanish, Mexican)",At what age did you begin learning Spanish?,Are you proficient in any languages other than English/Spanish?,"Are you familiar with Caribbean (e.g., Caribbean, Puerto Rican) or Galician Spanish?",date,expName,psychopyVersion,OS,frameRate,id,study_id,session,practice_2afc.started,practice_2afc.stopped,key_resp_2afc_practice.keys,key_resp_2afc_practice.corr,key_resp_2afc_practice.rt,key_resp_2afc_practice.duration,trials_2afc_practice_loop.thisRepN,trials_2afc_practice_loop.thisTrialN,trials_2afc_practice_loop.thisN,trials_2afc_practice_loop.thisIndex,trials_2afc_practice_loop.ran,path,correct_response,check_2afc.started,check_2afc.stopped,trial_2afc.started,trial_2afc.stopped,key_resp_2afc_trial.keys,key_resp_2afc_trial.corr,key_resp_2afc_trial.rt,key_resp_2afc_trial.duration,trials_2afc_loop.thisRepN,trials_2afc_loop.thisTrialN,trials_2afc_loop.thisN,trials_2afc_loop.thisIndex,trials_2afc_loop.ran,item_num,target,variety,instructions_lextale.started,instructions_lextale.stopped,instructions_lextale_loop.thisRepN,instructions_lextale_loop.thisTrialN,instructions_lextale_loop.thisN,instructions_lextale_loop.thisIndex,instructions_lextale_loop.ran,practice_lextale.started,practice_lextale.stopped,key_resp_lextale_practice.keys,key_resp_lextale_practice.corr,key_resp_lextale_practice.rt,key_resp_lextale_practice.duration,practice_feedback_lextale.started,practice_feedback_lextale.stopped,trials_lextale_practice_loop.thisRepN,trials_lextale_practice_loop.thisTrialN,trials_lextale_practice_loop.thisN,trials_lextale_practice_loop.thisIndex,trials_lextale_practice_loop.ran,stim,word,prac_button_real,prac_button_false,check_lextale.started,check_lextale.stopped,trial_lextale.started,trial_lextale.stopped,key_resp_lextale_trial.keys,key_resp_lextale_trial.corr,key_resp_lextale_trial.rt,key_resp_lextale_trial.duration,trials_lextale_loop.thisRepN,trials_lextale_loop.thisTrialN,trials_lextale_loop.thisN,trials_lextale_loop.thisIndex,trials_lextale_loop.ran,button_real,button_false,instructions_eq.started,instructions_eq.stopped,trial_eq.started,trial_eq.stopped,slider_eq_trial.response,trials_eq_loop.thisRepN,trials_eq_loop.thisTrialN,trials_eq_loop.thisN,trials_eq_loop.thisIndex,trials_eq_loop.ran,item,is_test_item,is_distractor,is_agree_score,is_disagree_score,end_exp.started,end_exp.stopped
0.022,178.4834,0,0,0,0,1,"In the following task you are going to hear a series of utterances. 

  You will decide if the utterances sound like questions or not using your keyboard.", (press the spacebar to continue),6792eb57ba13059998fa6235,Mexican,13 or older,click here to respond,yes,2025-08-12_16h26.23.234,empathy_intonation_perc_control,2024.2.4,Win32,7.112375533,6792eb57ba13059998fa6235,68817205a84113384fffdfe3,689ba19bc56de28df8ab860f,,,,,,,,,,,,,,,,,,,,,,,,,,,,,,,,,,,,,,,,,,,,,,,,,,,,,,,,,,,,,,,,,,,,,,,,,,,,,,,,,,,,,
178.484,187.7062,0,1,1,1,1,"If you believe the utterance is a question, type '1' (for 'yes') and if you do not 
  believe it is a question type '0' (for 'no').

  Let's practice a bit...", (press the spacebar to continue),6792eb57ba13059998fa6235,Mexican,13 or older,click here to respond,yes,2025-08-12_16h26.23.234,empathy_intonation_perc_control,2024.2.4,Win32,7.112375533,6792eb57ba13059998fa6235,68817205a84113384fffdfe3,689ba19bc56de28df8ab860f,,,,,,,,,,,,,,,,,,,,,,,,,,,,,,,,,,,,,,,,,,,,,,,,,,,,,,,,,,,,,,,,,,,,,,,,,,,,,,,,,,,,,
,,,,,,,,,6792eb57ba13059998fa6235,Mexican,13 or older,click here to respond,yes,2025-08-12_16h26.23.234,empathy_intonation_perc_control,2024.2.4,Win32,7.112375533,6792eb57ba13059998fa6235,68817205a84113384fffdfe3,689ba19bc56de28df8ab860f,187.7218,217.8791,1,0,29.3665,,0,0,0,6,1,./stim/wavs/peruvian_statement_filler_El-nino-habla-con-su-madre.wav,0,,,,,,,,,,,,,,,,,,,,,,,,,,,,,,,,,,,,,,,,,,,,,,,,,,,,,,,,,,,,,,,,,,,,,,,,
,,,,,,,,,6792eb57ba13059998fa6235,Mexican,13 or older,click here to respond,yes,2025-08-12_16h26.23.234,empathy_intonation_perc_control,2024.2.4,Win32,7.112375533,6792eb57ba13059998fa6235,68817205a84113384fffdfe3,689ba19bc56de28df8ab860f,217.8799,218.8616,1,1,0.1744,,0,1,1,3,1,./stim/wavs/mexican_question_filler_Felipe-no-tiene-contrasena.wav,1,,,,,,,,,,,,,,,,,,,,,,,,,,,,,,,,,,,,,,,,,,,,,,,,,,,,,,,,,,,,,,,,,,,,,,,,
,,,,,,,,,6792eb57ba13059998fa6235,Mexican,13 or older,click here to respond,yes,2025-08-12_16h26.23.234,empathy_intonation_perc_control,2024.2.4,Win32,7.112375533,6792eb57ba13059998fa6235,68817205a84113384fffdfe3,689ba19bc56de28df8ab860f,218.8621,221.8339,1,1,2.1451,,0,2,2,1,1,./stim/wavs/argentine_question_filler_Mi-vecino-habla-mucho.wav,1,,,,,,,,,,,,,,,,,,,,,,,,,,,,,,,,,,,,,,,,,,,,,,,,,,,,,,,,,,,,,,,,,,,,,,,,
,,,,,,,,,6792eb57ba13059998fa6235,Mexican,13 or older,click here to respond,yes,2025-08-12_16h26.23.234,empathy_intonation_perc_control,2024.2.4,Win32,7.112375533,6792eb57ba13059998fa6235,68817205a84113384fffdfe3,689ba19bc56de28df8ab860f,221.8343,228.0346,0,1,5.5294,,0,3,3,4,1,./stim/wavs/cuban_statement_filler_Cocinabas-por-la-noche.wav,0,,,,,,,,,,,,,,,,,,,,,,,,,,,,,,,,,,,,,,,,,,,,,,,,,,,,,,,,,,,,,,,,,,,,,,,,
,,,,,,,,,6792eb57ba13059998fa6235,Mexican,13 or older,click here to respond,yes,2025-08-12_16h26.23.234,empathy_intonation_perc_control,2024.2.4,Win32,7.112375533,6792eb57ba13059998fa6235,68817205a84113384fffdfe3,689ba19bc56de28df8ab860f,228.0351,236.3809,1,0,7.6777,0.0002,0,4,4,7,1,./stim/wavs/puertorican_statement_filler_La-nina-pinta-con-su-amiga.wav,0,,,,,,,,,,,,,,,,,,,,,,,,,,,,,,,,,,,,,,,,,,,,,,,,,,,,,,,,,,,,,,,,,,,,,,,,
,,,,,,,,,6792eb57ba13059998fa6235,Mexican,13 or older,click here to respond,yes,2025-08-12_16h26.23.234,empathy_intonation_perc_control,2024.2.4,Win32,7.112375533,6792eb57ba13059998fa6235,68817205a84113384fffdfe3,689ba19bc56de28df8ab860f,236.3814,241.9584,1,1,4.7543,,0,5,5,2,1,./stim/wavs/chilean_question_filler_Mi-padre-cantaba-bien.wav,1,,,,,,,,,,,,,,,,,,,,,,,,,,,,,,,,,,,,,,,,,,,,,,,,,,,,,,,,,,,,,,,,,,,,,,,,
,,,,,,,,,6792eb57ba13059998fa6235,Mexican,13 or older,click here to respond,yes,2025-08-12_16h26.23.234,empathy_intonation_perc_control,2024.2.4,Win32,7.112375533,6792eb57ba13059998fa6235,68817205a84113384fffdfe3,689ba19bc56de28df8ab860f,241.959,247.4193,0,1,4.7825,0.0003,0,6,6,5,1,./stim/wavs/andalusian_statement_filler_Alberto-nunca-se-afeita.wav,0,,,,,,,,,,,,,,,,,,,,,,,,,,,,,,,,,,,,,,,,,,,,,,,,,,,,,,,,,,,,,,,,,,,,,,,,
,,,,,,,,,6792eb57ba13059998fa6235,Mexican,13 or older,click here to respond,yes,2025-08-12_16h26.23.234,empathy_intonation_perc_control,2024.2.4,Win32,7.112375533,6792eb57ba13059998fa6235,68817205a84113384fffdfe3,689ba19bc56de28df8ab860f,247.4196,249.3405,0,0,1.2272,0.0003,0,7,7,0,1,./stim/wavs/castilian_question_filler_Mi-esposo-conoce-al-chico.wav,1,,,,,,,,,,,,,,,,,,,,,,,,,,,,,,,,,,,,,,,,,,,,,,,,,,,,,,,,,,,,,,,,,,,,,,,,
,,,,,,,,,6792eb57ba13059998fa6235,Mexican,13 or older,click here to respond,yes,2025-08-12_16h26.23.234,empathy_intonation_perc_control,2024.2.4,Win32,7.112375533,6792eb57ba13059998fa6235,68817205a84113384fffdfe3,689ba19bc56de28df8ab860f,,,,,,,,,,,,,,249.3408,268.9344,,,,,,,,,,,,,,,,,,,,,,,,,,,,,,,,,,,,,,,,,,,,,,,,,,,,,,,,,,,,,,,,,,,,,,
,,,,,,,,,6792eb57ba13059998fa6235,Mexican,13 or older,click here to respond,yes,2025-08-12_16h26.23.234,empathy_intonation_perc_control,2024.2.4,Win32,7.112375533,6792eb57ba13059998fa6235,68817205a84113384fffdfe3,689ba19bc56de28df8ab860f,,,,,,,,,,,,./stim/wavs/castilian_match_declarative-broad-focus_Mariano-habla-del-tiempo.wav,0,,,268.9485,272.9223,1,0,3.1478,,0,0,0,48,1,49,0,castilian,,,,,,,,,,,,,,,,,,,,,,,,,,,,,,,,,,,,,,,,,,,,,,,,,,,,,,,,
,,,,,,,,,6792eb57ba13059998fa6235,Mexican,13 or older,click here to respond,yes,2025-08-12_16h26.23.234,empathy_intonation_perc_control,2024.2.4,Win32,7.112375533,6792eb57ba13059998fa6235,68817205a84113384fffdfe3,689ba19bc56de28df8ab860f,,,,,,,,,,,,./stim/wavs/cuban_mismatch_declarative-broad-focus_Mi-novio-viene-del-lago.wav,0,,,272.9229,275.3793,0,1,1.6204,,0,1,1,76,1,77,0,cuban,,,,,,,,,,,,,,,,,,,,,,,,,,,,,,,,,,,,,,,,,,,,,,,,,,,,,,,,
,,,,,,,,,6792eb57ba13059998fa6235,Mexican,13 or older,click here to respond,yes,2025-08-12_16h26.23.234,empathy_intonation_perc_control,2024.2.4,Win32,7.112375533,6792eb57ba13059998fa6235,68817205a84113384fffdfe3,689ba19bc56de28df8ab860f,,,,,,,,,,,,./stim/wavs/mexican_match_interrogative-total-yn_Daniel-iba-a-Bolivia.wav,1,,,275.3798,277.8371,1,1,1.6586,,0,2,2,13,1,14,0,mexican,,,,,,,,,,,,,,,,,,,,,,,,,,,,,,,,,,,,,,,,,,,,,,,,,,,,,,,,
,,,,,,,,,6792eb57ba13059998fa6235,Mexican,13 or older,click here to respond,yes,2025-08-12_16h26.23.234,empathy_intonation_perc_control,2024.2.4,Win32,7.112375533,6792eb57ba13059998fa6235,68817205a84113384fffdfe3,689ba19bc56de28df8ab860f,,,,,,,,,,,,./stim/wavs/cuban_match_interrogative-total-yn_Daniel-iba-a-Bolivia.wav,1,,,277.8376,280.2694,0,0,1.636,,0,3,3,7,1,8,1,cuban,,,,,,,,,,,,,,,,,,,,,,,,,,,,,,,,,,,,,,,,,,,,,,,,,,,,,,,,
,,,,,,,,,6792eb57ba13059998fa6235,Mexican,13 or older,click here to respond,yes,2025-08-12_16h26.23.234,empathy_intonation_perc_control,2024.2.4,Win32,7.112375533,6792eb57ba13059998fa6235,68817205a84113384fffdfe3,689ba19bc56de28df8ab860f,,,,,,,,,,,,./stim/wavs/castilian_match_declarative-broad-focus_Manuela-vende-el-carro.wav,0,,,280.2699,283.5734,0,1,2.4936,,0,4,4,46,1,47,0,castilian,,,,,,,,,,,,,,,,,,,,,,,,,,,,,,,,,,,,,,,,,,,,,,,,,,,,,,,,
,,,,,,,,,6792eb57ba13059998fa6235,Mexican,13 or older,click here to respond,yes,2025-08-12_16h26.23.234,empathy_intonation_perc_control,2024.2.4,Win32,7.112375533,6792eb57ba13059998fa6235,68817205a84113384fffdfe3,689ba19bc56de28df8ab860f,,,,,,,,,,,,./stim/wavs/puertorican_match_interrogative-total-yn_Manuela-vende-el-carro.wav,1,,,283.5738,285.863,1,1,1.6334,,0,5,5,22,1,23,1,puertorican,,,,,,,,,,,,,,,,,,,,,,,,,,,,,,,,,,,,,,,,,,,,,,,,,,,,,,,,
,,,,,,,,,6792eb57ba13059998fa6235,Mexican,13 or older,click here to respond,yes,2025-08-12_16h26.23.234,empathy_intonation_perc_control,2024.2.4,Win32,7.112375533,6792eb57ba13059998fa6235,68817205a84113384fffdfe3,689ba19bc56de28df8ab860f,,,,,,,,,,,,./stim/wavs/castilian_mismatch_interrogative-total-yn_La-maestra-vive-en-Paris.wav,1,,,285.8633,288.7759,1,1,2.1146,,0,6,6,24,1,25,0,castilian,,,,,,,,,,,,,,,,,,,,,,,,,,,,,,,,,,,,,,,,,,,,,,,,,,,,,,,,
,,,,,,,,,6792eb57ba13059998fa6235,Mexican,13 or older,click here to respond,yes,2025-08-12_16h26.23.234,empathy_intonation_perc_control,2024.2.4,Win32,7.112375533,6792eb57ba13059998fa6235,68817205a84113384fffdfe3,689ba19bc56de28df8ab860f,,,,,,,,,,,,./stim/wavs/castilian_match_declarative-broad-focus_David-leia-el-libro.wav,0,,,288.7763,291.4948,1,0,1.9289,,0,7,7,44,1,45,0,castilian,,,,,,,,,,,,,,,,,,,,,,,,,,,,,,,,,,,,,,,,,,,,,,,,,,,,,,,,
,,,,,,,,,6792eb57ba13059998fa6235,Mexican,13 or older,click here to respond,yes,2025-08-12_16h26.23.234,empathy_intonation_perc_control,2024.2.4,Win32,7.112375533,6792eb57ba13059998fa6235,68817205a84113384fffdfe3,689ba19bc56de28df8ab860f,,,,,,,,,,,,./stim/wavs/castilian_match_declarative-broad-focus_Maria-bebe-el-vino.wav,0,,,291.4951,294.0838,0,1,1.7896,,0,8,8,47,1,48,0,castilian,,,,,,,,,,,,,,,,,,,,,,,,,,,,,,,,,,,,,,,,,,,,,,,,,,,,,,,,
,,,,,,,,,6792eb57ba13059998fa6235,Mexican,13 or older,click here to respond,yes,2025-08-12_16h26.23.234,empathy_intonation_perc_control,2024.2.4,Win32,7.112375533,6792eb57ba13059998fa6235,68817205a84113384fffdfe3,689ba19bc56de28df8ab860f,,,,,,,,,,,,./stim/wavs/puertorican_mismatch_declarative-broad-focus_La-nina-lava-el-plato.wav,0,,,294.0843,296.3249,0,1,1.4468,,0,9,9,87,1,88,0,puertorican,,,,,,,,,,,,,,,,,,,,,,,,,,,,,,,,,,,,,,,,,,,,,,,,,,,,,,,,
,,,,,,,,,6792eb57ba13059998fa6235,Mexican,13 or older,click here to respond,yes,2025-08-12_16h26.23.234,empathy_intonation_perc_control,2024.2.4,Win32,7.112375533,6792eb57ba13059998fa6235,68817205a84113384fffdfe3,689ba19bc56de28df8ab860f,,,,,,,,,,,,./stim/wavs/mexican_match_declarative-broad-focus_Mariano-habla-del-tiempo.wav,0,,,296.3253,298.7533,0,1,1.6258,,0,10,10,60,1,61,0,mexican,,,,,,,,,,,,,,,,,,,,,,,,,,,,,,,,,,,,,,,,,,,,,,,,,,,,,,,,
,,,,,,,,,6792eb57ba13059998fa6235,Mexican,13 or older,click here to respond,yes,2025-08-12_16h26.23.234,empathy_intonation_perc_control,2024.2.4,Win32,7.112375533,6792eb57ba13059998fa6235,68817205a84113384fffdfe3,689ba19bc56de28df8ab860f,,,,,,,,,,,,./stim/wavs/castilian_mismatch_interrogative-total-yn_La-nina-lava-el-plato.wav,1,,,298.7537,301.3237,1,1,1.7754,,0,11,11,25,1,26,0,castilian,,,,,,,,,,,,,,,,,,,,,,,,,,,,,,,,,,,,,,,,,,,,,,,,,,,,,,,,
,,,,,,,,,6792eb57ba13059998fa6235,Mexican,13 or older,click here to respond,yes,2025-08-12_16h26.23.234,empathy_intonation_perc_control,2024.2.4,Win32,7.112375533,6792eb57ba13059998fa6235,68817205a84113384fffdfe3,689ba19bc56de28df8ab860f,,,,,,,,,,,,./stim/wavs/puertorican_mismatch_interrogative-total-yn_La-nina-lava-el-plato.wav,1,,,301.324,303.742,1,1,1.6112,,0,12,12,42,1,43,1,puertorican,,,,,,,,,,,,,,,,,,,,,,,,,,,,,,,,,,,,,,,,,,,,,,,,,,,,,,,,
,,,,,,,,,6792eb57ba13059998fa6235,Mexican,13 or older,click here to respond,yes,2025-08-12_16h26.23.234,empathy_intonation_perc_control,2024.2.4,Win32,7.112375533,6792eb57ba13059998fa6235,68817205a84113384fffdfe3,689ba19bc56de28df8ab860f,,,,,,,,,,,,./stim/wavs/castilian_mismatch_interrogative-total-yn_Mi-tia-odia-la-lluvia.wav,1,,,303.7423,306.9461,1,1,2.4149,,0,13,13,28,1,29,0,castilian,,,,,,,,,,,,,,,,,,,,,,,,,,,,,,,,,,,,,,,,,,,,,,,,,,,,,,,,
,,,,,,,,,6792eb57ba13059998fa6235,Mexican,13 or older,click here to respond,yes,2025-08-12_16h26.23.234,empathy_intonation_perc_control,2024.2.4,Win32,7.112375533,6792eb57ba13059998fa6235,68817205a84113384fffdfe3,689ba19bc56de28df8ab860f,,,,,,,,,,,,./stim/wavs/puertorican_mismatch_declarative-broad-focus_El-nino-oye-el-rio.wav,0,,,306.9464,309.2014,0,1,1.4504,,0,14,14,85,1,86,0,puertorican,,,,,,,,,,,,,,,,,,,,,,,,,,,,,,,,,,,,,,,,,,,,,,,,,,,,,,,,
,,,,,,,,,6792eb57ba13059998fa6235,Mexican,13 or older,click here to respond,yes,2025-08-12_16h26.23.234,empathy_intonation_perc_control,2024.2.4,Win32,7.112375533,6792eb57ba13059998fa6235,68817205a84113384fffdfe3,689ba19bc56de28df8ab860f,,,,,,,,,,,,./stim/wavs/cuban_match_declarative-broad-focus_Daniel-iba-a-Bolivia.wav,0,,,309.2018,311.793,0,1,1.785,0.0003,0,15,15,51,1,52,0,cuban,,,,,,,,,,,,,,,,,,,,,,,,,,,,,,,,,,,,,,,,,,,,,,,,,,,,,,,,
,,,,,,,,,6792eb57ba13059998fa6235,Mexican,13 or older,click here to respond,yes,2025-08-12_16h26.23.234,empathy_intonation_perc_control,2024.2.4,Win32,7.112375533,6792eb57ba13059998fa6235,68817205a84113384fffdfe3,689ba19bc56de28df8ab860f,,,,,,,,,,,,./stim/wavs/cuban_match_declarative-broad-focus_Manuela-vende-el-carro.wav,0,,,311.7935,314.3917,1,0,1.79,,0,16,16,52,1,53,0,cuban,,,,,,,,,,,,,,,,,,,,,,,,,,,,,,,,,,,,,,,,,,,,,,,,,,,,,,,,
,,,,,,,,,6792eb57ba13059998fa6235,Mexican,13 or older,click here to respond,yes,2025-08-12_16h26.23.234,empathy_intonation_perc_control,2024.2.4,Win32,7.112375533,6792eb57ba13059998fa6235,68817205a84113384fffdfe3,689ba19bc56de28df8ab860f,,,,,,,,,,,,./stim/wavs/puertorican_mismatch_declarative-broad-focus_La-maestra-vive-en-Paris.wav,0,,,314.3921,316.8646,0,1,1.8067,0.0003,0,17,17,86,1,87,0,puertorican,,,,,,,,,,,,,,,,,,,,,,,,,,,,,,,,,,,,,,,,,,,,,,,,,,,,,,,,
,,,,,,,,,6792eb57ba13059998fa6235,Mexican,13 or older,click here to respond,yes,2025-08-12_16h26.23.234,empathy_intonation_perc_control,2024.2.4,Win32,7.112375533,6792eb57ba13059998fa6235,68817205a84113384fffdfe3,689ba19bc56de28df8ab860f,,,,,,,,,,,,./stim/wavs/cuban_mismatch_interrogative-total-yn_El-hombre-mira-la-luna.wav,1,,,316.8651,319.4267,0,0,1.7677,0.0002,0,18,18,29,1,30,1,cuban,,,,,,,,,,,,,,,,,,,,,,,,,,,,,,,,,,,,,,,,,,,,,,,,,,,,,,,,
,,,,,,,,,6792eb57ba13059998fa6235,Mexican,13 or older,click here to respond,yes,2025-08-12_16h26.23.234,empathy_intonation_perc_control,2024.2.4,Win32,7.112375533,6792eb57ba13059998fa6235,68817205a84113384fffdfe3,689ba19bc56de28df8ab860f,,,,,,,,,,,,./stim/wavs/puertorican_match_declarative-broad-focus_Ana-lleva-el-abrigo.wav,0,,,319.4272,322.7901,0,1,2.5654,,0,19,19,62,1,63,0,puertorican,,,,,,,,,,,,,,,,,,,,,,,,,,,,,,,,,,,,,,,,,,,,,,,,,,,,,,,,
,,,,,,,,,6792eb57ba13059998fa6235,Mexican,13 or older,click here to respond,yes,2025-08-12_16h26.23.234,empathy_intonation_perc_control,2024.2.4,Win32,7.112375533,6792eb57ba13059998fa6235,68817205a84113384fffdfe3,689ba19bc56de28df8ab860f,,,,,,,,,,,,./stim/wavs/mexican_match_interrogative-total-yn_Ana-lleva-el-abrigo.wav,1,,,322.7904,325.1976,1,1,1.6162,,0,20,20,12,1,13,0,mexican,,,,,,,,,,,,,,,,,,,,,,,,,,,,,,,,,,,,,,,,,,,,,,,,,,,,,,,,
,,,,,,,,,6792eb57ba13059998fa6235,Mexican,13 or older,click here to respond,yes,2025-08-12_16h26.23.234,empathy_intonation_perc_control,2024.2.4,Win32,7.112375533,6792eb57ba13059998fa6235,68817205a84113384fffdfe3,689ba19bc56de28df8ab860f,,,,,,,,,,,,./stim/wavs/puertorican_match_declarative-broad-focus_David-leia-el-libro.wav,0,,,325.198,327.4302,0,1,1.4394,,0,21,21,64,1,65,0,puertorican,,,,,,,,,,,,,,,,,,,,,,,,,,,,,,,,,,,,,,,,,,,,,,,,,,,,,,,,
,,,,,,,,,6792eb57ba13059998fa6235,Mexican,13 or older,click here to respond,yes,2025-08-12_16h26.23.234,empathy_intonation_perc_control,2024.2.4,Win32,7.112375533,6792eb57ba13059998fa6235,68817205a84113384fffdfe3,689ba19bc56de28df8ab860f,,,,,,,,,,,,./stim/wavs/puertorican_match_interrogative-total-yn_Daniel-iba-a-Bolivia.wav,1,,,327.4306,329.8336,0,0,1.6061,,0,22,22,19,1,20,1,puertorican,,,,,,,,,,,,,,,,,,,,,,,,,,,,,,,,,,,,,,,,,,,,,,,,,,,,,,,,
,,,,,,,,,6792eb57ba13059998fa6235,Mexican,13 or older,click here to respond,yes,2025-08-12_16h26.23.234,empathy_intonation_perc_control,2024.2.4,Win32,7.112375533,6792eb57ba13059998fa6235,68817205a84113384fffdfe3,689ba19bc56de28df8ab860f,,,,,,,,,,,,./stim/wavs/puertorican_match_declarative-broad-focus_Maria-bebe-el-vino.wav,0,,,329.834,332.0802,0,1,1.4557,,0,23,23,67,1,68,0,puertorican,,,,,,,,,,,,,,,,,,,,,,,,,,,,,,,,,,,,,,,,,,,,,,,,,,,,,,,,
,,,,,,,,,6792eb57ba13059998fa6235,Mexican,13 or older,click here to respond,yes,2025-08-12_16h26.23.234,empathy_intonation_perc_control,2024.2.4,Win32,7.112375533,6792eb57ba13059998fa6235,68817205a84113384fffdfe3,689ba19bc56de28df8ab860f,,,,,,,,,,,,./stim/wavs/cuban_mismatch_interrogative-total-yn_Mi-novio-viene-del-lago.wav,1,,,332.0805,335.1221,0,0,2.2446,,0,24,24,32,1,33,1,cuban,,,,,,,,,,,,,,,,,,,,,,,,,,,,,,,,,,,,,,,,,,,,,,,,,,,,,,,,
,,,,,,,,,6792eb57ba13059998fa6235,Mexican,13 or older,click here to respond,yes,2025-08-12_16h26.23.234,empathy_intonation_perc_control,2024.2.4,Win32,7.112375533,6792eb57ba13059998fa6235,68817205a84113384fffdfe3,689ba19bc56de28df8ab860f,,,,,,,,,,,,./stim/wavs/puertorican_mismatch_interrogative-total-yn_El-nino-oye-el-rio.wav,1,,,335.1224,337.7019,1,1,1.7801,,0,25,25,40,1,41,1,puertorican,,,,,,,,,,,,,,,,,,,,,,,,,,,,,,,,,,,,,,,,,,,,,,,,,,,,,,,,
,,,,,,,,,6792eb57ba13059998fa6235,Mexican,13 or older,click here to respond,yes,2025-08-12_16h26.23.234,empathy_intonation_perc_control,2024.2.4,Win32,7.112375533,6792eb57ba13059998fa6235,68817205a84113384fffdfe3,689ba19bc56de28df8ab860f,,,,,,,,,,,,./stim/wavs/puertorican_mismatch_declarative-broad-focus_El-bebe-comia-muy-bien.wav,0,,,337.7022,340.4358,0,1,1.9432,0.0002,0,26,26,83,1,84,0,puertorican,,,,,,,,,,,,,,,,,,,,,,,,,,,,,,,,,,,,,,,,,,,,,,,,,,,,,,,,
,,,,,,,,,6792eb57ba13059998fa6235,Mexican,13 or older,click here to respond,yes,2025-08-12_16h26.23.234,empathy_intonation_perc_control,2024.2.4,Win32,7.112375533,6792eb57ba13059998fa6235,68817205a84113384fffdfe3,689ba19bc56de28df8ab860f,,,,,,,,,,,,./stim/wavs/cuban_match_interrogative-total-yn_Maria-bebe-el-vino.wav,1,,,340.4362,344.1558,0,0,2.9264,,0,27,27,9,1,10,1,cuban,,,,,,,,,,,,,,,,,,,,,,,,,,,,,,,,,,,,,,,,,,,,,,,,,,,,,,,,
,,,,,,,,,6792eb57ba13059998fa6235,Mexican,13 or older,click here to respond,yes,2025-08-12_16h26.23.234,empathy_intonation_perc_control,2024.2.4,Win32,7.112375533,6792eb57ba13059998fa6235,68817205a84113384fffdfe3,689ba19bc56de28df8ab860f,,,,,,,,,,,,./stim/wavs/cuban_mismatch_interrogative-total-yn_Mi-tia-odia-la-lluvia.wav,1,,,344.1562,346.7819,0,0,1.813,,0,28,28,33,1,34,1,cuban,,,,,,,,,,,,,,,,,,,,,,,,,,,,,,,,,,,,,,,,,,,,,,,,,,,,,,,,
,,,,,,,,,6792eb57ba13059998fa6235,Mexican,13 or older,click here to respond,yes,2025-08-12_16h26.23.234,empathy_intonation_perc_control,2024.2.4,Win32,7.112375533,6792eb57ba13059998fa6235,68817205a84113384fffdfe3,689ba19bc56de28df8ab860f,,,,,,,,,,,,./stim/wavs/puertorican_mismatch_interrogative-total-yn_Mi-madre-come-la-fruta.wav,1,,,346.7824,349.0602,1,1,1.4785,,0,29,29,43,1,44,1,puertorican,,,,,,,,,,,,,,,,,,,,,,,,,,,,,,,,,,,,,,,,,,,,,,,,,,,,,,,,
,,,,,,,,,6792eb57ba13059998fa6235,Mexican,13 or older,click here to respond,yes,2025-08-12_16h26.23.234,empathy_intonation_perc_control,2024.2.4,Win32,7.112375533,6792eb57ba13059998fa6235,68817205a84113384fffdfe3,689ba19bc56de28df8ab860f,,,,,,,,,,,,./stim/wavs/cuban_match_interrogative-total-yn_Manuela-vende-el-carro.wav,1,,,349.0605,351.3278,0,0,1.4539,0.0004,0,30,30,8,1,9,1,cuban,,,,,,,,,,,,,,,,,,,,,,,,,,,,,,,,,,,,,,,,,,,,,,,,,,,,,,,,
,,,,,,,,,6792eb57ba13059998fa6235,Mexican,13 or older,click here to respond,yes,2025-08-12_16h26.23.234,empathy_intonation_perc_control,2024.2.4,Win32,7.112375533,6792eb57ba13059998fa6235,68817205a84113384fffdfe3,689ba19bc56de28df8ab860f,,,,,,,,,,,,./stim/wavs/puertorican_mismatch_interrogative-total-yn_El-hombre-mira-la-luna.wav,1,,,351.3282,355.5071,1,1,3.3762,,0,31,31,39,1,40,1,puertorican,,,,,,,,,,,,,,,,,,,,,,,,,,,,,,,,,,,,,,,,,,,,,,,,,,,,,,,,
,,,,,,,,,6792eb57ba13059998fa6235,Mexican,13 or older,click here to respond,yes,2025-08-12_16h26.23.234,empathy_intonation_perc_control,2024.2.4,Win32,7.112375533,6792eb57ba13059998fa6235,68817205a84113384fffdfe3,689ba19bc56de28df8ab860f,,,,,,,,,,,,./stim/wavs/cuban_match_declarative-broad-focus_Maria-bebe-el-vino.wav,0,,,355.5074,357.7795,0,1,1.4723,,0,32,32,53,1,54,0,cuban,,,,,,,,,,,,,,,,,,,,,,,,,,,,,,,,,,,,,,,,,,,,,,,,,,,,,,,,
,,,,,,,,,6792eb57ba13059998fa6235,Mexican,13 or older,click here to respond,yes,2025-08-12_16h26.23.234,empathy_intonation_perc_control,2024.2.4,Win32,7.112375533,6792eb57ba13059998fa6235,68817205a84113384fffdfe3,689ba19bc56de28df8ab860f,,,,,,,,,,,,./stim/wavs/mexican_mismatch_interrogative-total-yn_El-nino-oye-el-rio.wav,1,,,357.7799,361.0085,0,0,2.4359,,0,33,33,35,1,36,0,mexican,,,,,,,,,,,,,,,,,,,,,,,,,,,,,,,,,,,,,,,,,,,,,,,,,,,,,,,,
,,,,,,,,,6792eb57ba13059998fa6235,Mexican,13 or older,click here to respond,yes,2025-08-12_16h26.23.234,empathy_intonation_perc_control,2024.2.4,Win32,7.112375533,6792eb57ba13059998fa6235,68817205a84113384fffdfe3,689ba19bc56de28df8ab860f,,,,,,,,,,,,./stim/wavs/puertorican_match_interrogative-total-yn_Emilio-ama-la-marcha.wav,1,,,361.0088,363.768,0,0,1.9516,,0,34,34,21,1,22,1,puertorican,,,,,,,,,,,,,,,,,,,,,,,,,,,,,,,,,,,,,,,,,,,,,,,,,,,,,,,,
,,,,,,,,,6792eb57ba13059998fa6235,Mexican,13 or older,click here to respond,yes,2025-08-12_16h26.23.234,empathy_intonation_perc_control,2024.2.4,Win32,7.112375533,6792eb57ba13059998fa6235,68817205a84113384fffdfe3,689ba19bc56de28df8ab860f,,,,,,,,,,,,./stim/wavs/mexican_match_declarative-broad-focus_Daniel-iba-a-Bolivia.wav,0,,,363.7684,366.7133,0,1,2.1489,,0,35,35,57,1,58,0,mexican,,,,,,,,,,,,,,,,,,,,,,,,,,,,,,,,,,,,,,,,,,,,,,,,,,,,,,,,
,,,,,,,,,6792eb57ba13059998fa6235,Mexican,13 or older,click here to respond,yes,2025-08-12_16h26.23.234,empathy_intonation_perc_control,2024.2.4,Win32,7.112375533,6792eb57ba13059998fa6235,68817205a84113384fffdfe3,689ba19bc56de28df8ab860f,,,,,,,,,,,,./stim/wavs/mexican_match_interrogative-total-yn_Emilio-ama-la-marcha.wav,1,,,366.7136,370.3783,1,1,2.9922,,0,36,36,15,1,16,0,mexican,,,,,,,,,,,,,,,,,,,,,,,,,,,,,,,,,,,,,,,,,,,,,,,,,,,,,,,,
,,,,,,,,,6792eb57ba13059998fa6235,Mexican,13 or older,click here to respond,yes,2025-08-12_16h26.23.234,empathy_intonation_perc_control,2024.2.4,Win32,7.112375533,6792eb57ba13059998fa6235,68817205a84113384fffdfe3,689ba19bc56de28df8ab860f,,,,,,,,,,,,./stim/wavs/cuban_mismatch_declarative-broad-focus_El-bebe-comia-muy-bien.wav,0,,,370.3787,373.5293,1,0,2.3472,,0,37,37,73,1,74,0,cuban,,,,,,,,,,,,,,,,,,,,,,,,,,,,,,,,,,,,,,,,,,,,,,,,,,,,,,,,
,,,,,,,,,6792eb57ba13059998fa6235,Mexican,13 or older,click here to respond,yes,2025-08-12_16h26.23.234,empathy_intonation_perc_control,2024.2.4,Win32,7.112375533,6792eb57ba13059998fa6235,68817205a84113384fffdfe3,689ba19bc56de28df8ab860f,,,,,,,,,,,,./stim/wavs/cuban_mismatch_declarative-broad-focus_La-nina-lava-el-plato.wav,0,,,373.5297,376.5153,0,1,2.1767,0.0003,0,38,38,75,1,76,0,cuban,,,,,,,,,,,,,,,,,,,,,,,,,,,,,,,,,,,,,,,,,,,,,,,,,,,,,,,,
,,,,,,,,,6792eb57ba13059998fa6235,Mexican,13 or older,click here to respond,yes,2025-08-12_16h26.23.234,empathy_intonation_perc_control,2024.2.4,Win32,7.112375533,6792eb57ba13059998fa6235,68817205a84113384fffdfe3,689ba19bc56de28df8ab860f,,,,,,,,,,,,./stim/wavs/mexican_match_interrogative-total-yn_Mariano-habla-del-tiempo.wav,1,,,376.5157,379.4696,1,1,2.2741,0.0003,0,39,39,16,1,17,0,mexican,,,,,,,,,,,,,,,,,,,,,,,,,,,,,,,,,,,,,,,,,,,,,,,,,,,,,,,,
,,,,,,,,,6792eb57ba13059998fa6235,Mexican,13 or older,click here to respond,yes,2025-08-12_16h26.23.234,empathy_intonation_perc_control,2024.2.4,Win32,7.112375533,6792eb57ba13059998fa6235,68817205a84113384fffdfe3,689ba19bc56de28df8ab860f,,,,,,,,,,,,./stim/wavs/puertorican_match_declarative-broad-focus_Emilio-ama-la-marcha.wav,0,,,379.4699,381.8762,0,1,1.6038,,0,40,40,65,1,66,0,puertorican,,,,,,,,,,,,,,,,,,,,,,,,,,,,,,,,,,,,,,,,,,,,,,,,,,,,,,,,
,,,,,,,,,6792eb57ba13059998fa6235,Mexican,13 or older,click here to respond,yes,2025-08-12_16h26.23.234,empathy_intonation_perc_control,2024.2.4,Win32,7.112375533,6792eb57ba13059998fa6235,68817205a84113384fffdfe3,689ba19bc56de28df8ab860f,,,,,,,,,,,,./stim/wavs/castilian_match_interrogative-total-yn_Emilio-ama-la-marcha.wav,1,,,381.8767,384.7555,1,1,2.0888,,0,41,41,1,1,2,0,castilian,,,,,,,,,,,,,,,,,,,,,,,,,,,,,,,,,,,,,,,,,,,,,,,,,,,,,,,,
,,,,,,,,,6792eb57ba13059998fa6235,Mexican,13 or older,click here to respond,yes,2025-08-12_16h26.23.234,empathy_intonation_perc_control,2024.2.4,Win32,7.112375533,6792eb57ba13059998fa6235,68817205a84113384fffdfe3,689ba19bc56de28df8ab860f,,,,,,,,,,,,./stim/wavs/cuban_match_interrogative-total-yn_Ana-lleva-el-abrigo.wav,1,,,384.7559,388.2995,0,0,2.7422,,0,42,42,6,1,7,1,cuban,,,,,,,,,,,,,,,,,,,,,,,,,,,,,,,,,,,,,,,,,,,,,,,,,,,,,,,,
,,,,,,,,,6792eb57ba13059998fa6235,Mexican,13 or older,click here to respond,yes,2025-08-12_16h26.23.234,empathy_intonation_perc_control,2024.2.4,Win32,7.112375533,6792eb57ba13059998fa6235,68817205a84113384fffdfe3,689ba19bc56de28df8ab860f,,,,,,,,,,,,./stim/wavs/puertorican_match_declarative-broad-focus_Manuela-vende-el-carro.wav,0,,,388.3,391.0403,0,1,1.9333,,0,43,43,66,1,67,0,puertorican,,,,,,,,,,,,,,,,,,,,,,,,,,,,,,,,,,,,,,,,,,,,,,,,,,,,,,,,
,,,,,,,,,6792eb57ba13059998fa6235,Mexican,13 or older,click here to respond,yes,2025-08-12_16h26.23.234,empathy_intonation_perc_control,2024.2.4,Win32,7.112375533,6792eb57ba13059998fa6235,68817205a84113384fffdfe3,689ba19bc56de28df8ab860f,,,,,,,,,,,,./stim/wavs/mexican_match_interrogative-total-yn_David-leia-el-libro.wav,1,,,391.0407,393.4852,1,1,1.6512,,0,44,44,14,1,15,0,mexican,,,,,,,,,,,,,,,,,,,,,,,,,,,,,,,,,,,,,,,,,,,,,,,,,,,,,,,,
,,,,,,,,,6792eb57ba13059998fa6235,Mexican,13 or older,click here to respond,yes,2025-08-12_16h26.23.234,empathy_intonation_perc_control,2024.2.4,Win32,7.112375533,6792eb57ba13059998fa6235,68817205a84113384fffdfe3,689ba19bc56de28df8ab860f,,,,,,,,,,,,./stim/wavs/cuban_mismatch_declarative-broad-focus_El-hombre-mira-la-luna.wav,0,,,393.4856,396.5531,0,1,2.2554,,0,45,45,74,1,75,0,cuban,,,,,,,,,,,,,,,,,,,,,,,,,,,,,,,,,,,,,,,,,,,,,,,,,,,,,,,,
,,,,,,,,,6792eb57ba13059998fa6235,Mexican,13 or older,click here to respond,yes,2025-08-12_16h26.23.234,empathy_intonation_perc_control,2024.2.4,Win32,7.112375533,6792eb57ba13059998fa6235,68817205a84113384fffdfe3,689ba19bc56de28df8ab860f,,,,,,,,,,,,./stim/wavs/mexican_mismatch_interrogative-total-yn_La-maestra-vive-en-Paris.wav,1,,,396.5534,399.4491,1,1,2.0938,,0,46,46,36,1,37,0,mexican,,,,,,,,,,,,,,,,,,,,,,,,,,,,,,,,,,,,,,,,,,,,,,,,,,,,,,,,
,,,,,,,,,6792eb57ba13059998fa6235,Mexican,13 or older,click here to respond,yes,2025-08-12_16h26.23.234,empathy_intonation_perc_control,2024.2.4,Win32,7.112375533,6792eb57ba13059998fa6235,68817205a84113384fffdfe3,689ba19bc56de28df8ab860f,,,,,,,,,,,,./stim/wavs/mexican_mismatch_declarative-broad-focus_La-maestra-vive-en-Paris.wav,0,,,399.4495,404.5728,0,1,4.328,,0,47,47,80,1,81,0,mexican,,,,,,,,,,,,,,,,,,,,,,,,,,,,,,,,,,,,,,,,,,,,,,,,,,,,,,,,
,,,,,,,,,6792eb57ba13059998fa6235,Mexican,13 or older,click here to respond,yes,2025-08-12_16h26.23.234,empathy_intonation_perc_control,2024.2.4,Win32,7.112375533,6792eb57ba13059998fa6235,68817205a84113384fffdfe3,689ba19bc56de28df8ab860f,,,,,,,,,,,,./stim/wavs/castilian_match_interrogative-total-yn_Mariano-habla-del-tiempo.wav,1,,,404.5732,407.6237,1,1,2.2447,,0,48,48,4,1,5,0,castilian,,,,,,,,,,,,,,,,,,,,,,,,,,,,,,,,,,,,,,,,,,,,,,,,,,,,,,,,
,,,,,,,,,6792eb57ba13059998fa6235,Mexican,13 or older,click here to respond,yes,2025-08-12_16h26.23.234,empathy_intonation_perc_control,2024.2.4,Win32,7.112375533,6792eb57ba13059998fa6235,68817205a84113384fffdfe3,689ba19bc56de28df8ab860f,,,,,,,,,,,,./stim/wavs/mexican_mismatch_declarative-broad-focus_Mi-tia-odia-la-lluvia.wav,0,,,407.6241,410.1816,0,1,1.7695,,0,49,49,82,1,83,0,mexican,,,,,,,,,,,,,,,,,,,,,,,,,,,,,,,,,,,,,,,,,,,,,,,,,,,,,,,,
,,,,,,,,,6792eb57ba13059998fa6235,Mexican,13 or older,click here to respond,yes,2025-08-12_16h26.23.234,empathy_intonation_perc_control,2024.2.4,Win32,7.112375533,6792eb57ba13059998fa6235,68817205a84113384fffdfe3,689ba19bc56de28df8ab860f,,,,,,,,,,,,./stim/wavs/mexican_match_interrogative-total-yn_Marta-abre-el-regalo.wav,1,,,410.182,413.3851,1,1,2.4105,,0,50,50,17,1,18,0,mexican,,,,,,,,,,,,,,,,,,,,,,,,,,,,,,,,,,,,,,,,,,,,,,,,,,,,,,,,
,,,,,,,,,6792eb57ba13059998fa6235,Mexican,13 or older,click here to respond,yes,2025-08-12_16h26.23.234,empathy_intonation_perc_control,2024.2.4,Win32,7.112375533,6792eb57ba13059998fa6235,68817205a84113384fffdfe3,689ba19bc56de28df8ab860f,,,,,,,,,,,,./stim/wavs/mexican_match_declarative-broad-focus_Ana-lleva-el-abrigo.wav,0,,,413.3855,416.2594,0,1,2.0768,,0,51,51,56,1,57,0,mexican,,,,,,,,,,,,,,,,,,,,,,,,,,,,,,,,,,,,,,,,,,,,,,,,,,,,,,,,
,,,,,,,,,6792eb57ba13059998fa6235,Mexican,13 or older,click here to respond,yes,2025-08-12_16h26.23.234,empathy_intonation_perc_control,2024.2.4,Win32,7.112375533,6792eb57ba13059998fa6235,68817205a84113384fffdfe3,689ba19bc56de28df8ab860f,,,,,,,,,,,,./stim/wavs/mexican_match_declarative-broad-focus_David-leia-el-libro.wav,0,,,416.2599,419.6377,0,1,2.5737,,0,52,52,58,1,59,0,mexican,,,,,,,,,,,,,,,,,,,,,,,,,,,,,,,,,,,,,,,,,,,,,,,,,,,,,,,,
,,,,,,,,,6792eb57ba13059998fa6235,Mexican,13 or older,click here to respond,yes,2025-08-12_16h26.23.234,empathy_intonation_perc_control,2024.2.4,Win32,7.112375533,6792eb57ba13059998fa6235,68817205a84113384fffdfe3,689ba19bc56de28df8ab860f,,,,,,,,,,,,./stim/wavs/puertorican_match_interrogative-total-yn_David-leia-el-libro.wav,1,,,419.6381,422.3556,0,0,1.9269,,0,53,53,20,1,21,1,puertorican,,,,,,,,,,,,,,,,,,,,,,,,,,,,,,,,,,,,,,,,,,,,,,,,,,,,,,,,
,,,,,,,,,6792eb57ba13059998fa6235,Mexican,13 or older,click here to respond,yes,2025-08-12_16h26.23.234,empathy_intonation_perc_control,2024.2.4,Win32,7.112375533,6792eb57ba13059998fa6235,68817205a84113384fffdfe3,689ba19bc56de28df8ab860f,,,,,,,,,,,,./stim/wavs/castilian_mismatch_declarative-broad-focus_La-nina-lava-el-plato.wav,0,,,422.356,425.4043,0,1,2.2609,0.0002,0,54,54,70,1,71,0,castilian,,,,,,,,,,,,,,,,,,,,,,,,,,,,,,,,,,,,,,,,,,,,,,,,,,,,,,,,
,,,,,,,,,6792eb57ba13059998fa6235,Mexican,13 or older,click here to respond,yes,2025-08-12_16h26.23.234,empathy_intonation_perc_control,2024.2.4,Win32,7.112375533,6792eb57ba13059998fa6235,68817205a84113384fffdfe3,689ba19bc56de28df8ab860f,,,,,,,,,,,,./stim/wavs/puertorican_mismatch_interrogative-total-yn_La-maestra-vive-en-Paris.wav,1,,,425.4048,432.6742,0,0,6.4744,,0,55,55,41,1,42,1,puertorican,,,,,,,,,,,,,,,,,,,,,,,,,,,,,,,,,,,,,,,,,,,,,,,,,,,,,,,,
,,,,,,,,,6792eb57ba13059998fa6235,Mexican,13 or older,click here to respond,yes,2025-08-12_16h26.23.234,empathy_intonation_perc_control,2024.2.4,Win32,7.112375533,6792eb57ba13059998fa6235,68817205a84113384fffdfe3,689ba19bc56de28df8ab860f,,,,,,,,,,,,./stim/wavs/castilian_match_interrogative-total-yn_Marta-abre-el-regalo.wav,1,,,432.6745,456.1726,0,0,22.7018,,0,56,56,5,1,6,0,castilian,,,,,,,,,,,,,,,,,,,,,,,,,,,,,,,,,,,,,,,,,,,,,,,,,,,,,,,,
,,,,,,,,,6792eb57ba13059998fa6235,Mexican,13 or older,click here to respond,yes,2025-08-12_16h26.23.234,empathy_intonation_perc_control,2024.2.4,Win32,7.112375533,6792eb57ba13059998fa6235,68817205a84113384fffdfe3,689ba19bc56de28df8ab860f,,,,,,,,,,,,./stim/wavs/cuban_match_interrogative-total-yn_Marta-abre-el-regalo.wav,1,,,456.1731,458.6633,0,0,1.6718,,0,57,57,11,1,12,1,cuban,,,,,,,,,,,,,,,,,,,,,,,,,,,,,,,,,,,,,,,,,,,,,,,,,,,,,,,,
,,,,,,,,,6792eb57ba13059998fa6235,Mexican,13 or older,click here to respond,yes,2025-08-12_16h26.23.234,empathy_intonation_perc_control,2024.2.4,Win32,7.112375533,6792eb57ba13059998fa6235,68817205a84113384fffdfe3,689ba19bc56de28df8ab860f,,,,,,,,,,,,./stim/wavs/puertorican_match_interrogative-total-yn_Ana-lleva-el-abrigo.wav,1,,,458.6637,460.9932,1,1,1.5118,,0,58,58,18,1,19,1,puertorican,,,,,,,,,,,,,,,,,,,,,,,,,,,,,,,,,,,,,,,,,,,,,,,,,,,,,,,,
,,,,,,,,,6792eb57ba13059998fa6235,Mexican,13 or older,click here to respond,yes,2025-08-12_16h26.23.234,empathy_intonation_perc_control,2024.2.4,Win32,7.112375533,6792eb57ba13059998fa6235,68817205a84113384fffdfe3,689ba19bc56de28df8ab860f,,,,,,,,,,,,./stim/wavs/castilian_mismatch_interrogative-total-yn_Mi-madre-come-la-fruta.wav,1,,,460.9936,464.0903,1,1,2.2736,,0,59,59,26,1,27,0,castilian,,,,,,,,,,,,,,,,,,,,,,,,,,,,,,,,,,,,,,,,,,,,,,,,,,,,,,,,
,,,,,,,,,6792eb57ba13059998fa6235,Mexican,13 or older,click here to respond,yes,2025-08-12_16h26.23.234,empathy_intonation_perc_control,2024.2.4,Win32,7.112375533,6792eb57ba13059998fa6235,68817205a84113384fffdfe3,689ba19bc56de28df8ab860f,,,,,,,,,,,,./stim/wavs/mexican_mismatch_declarative-broad-focus_El-hombre-mira-la-luna.wav,0,,,464.0908,466.8058,0,1,1.9238,,0,60,60,79,1,80,0,mexican,,,,,,,,,,,,,,,,,,,,,,,,,,,,,,,,,,,,,,,,,,,,,,,,,,,,,,,,
,,,,,,,,,6792eb57ba13059998fa6235,Mexican,13 or older,click here to respond,yes,2025-08-12_16h26.23.234,empathy_intonation_perc_control,2024.2.4,Win32,7.112375533,6792eb57ba13059998fa6235,68817205a84113384fffdfe3,689ba19bc56de28df8ab860f,,,,,,,,,,,,./stim/wavs/castilian_match_interrogative-total-yn_David-leia-el-libro.wav,1,,,466.8062,469.3502,1,1,1.7584,,0,61,61,0,1,1,0,castilian,,,,,,,,,,,,,,,,,,,,,,,,,,,,,,,,,,,,,,,,,,,,,,,,,,,,,,,,
,,,,,,,,,6792eb57ba13059998fa6235,Mexican,13 or older,click here to respond,yes,2025-08-12_16h26.23.234,empathy_intonation_perc_control,2024.2.4,Win32,7.112375533,6792eb57ba13059998fa6235,68817205a84113384fffdfe3,689ba19bc56de28df8ab860f,,,,,,,,,,,,./stim/wavs/mexican_match_declarative-broad-focus_Marta-abre-el-regalo.wav,0,,,469.3507,471.9,0,1,1.7539,,0,62,62,61,1,62,0,mexican,,,,,,,,,,,,,,,,,,,,,,,,,,,,,,,,,,,,,,,,,,,,,,,,,,,,,,,,
,,,,,,,,,6792eb57ba13059998fa6235,Mexican,13 or older,click here to respond,yes,2025-08-12_16h26.23.234,empathy_intonation_perc_control,2024.2.4,Win32,7.112375533,6792eb57ba13059998fa6235,68817205a84113384fffdfe3,689ba19bc56de28df8ab860f,,,,,,,,,,,,./stim/wavs/mexican_match_declarative-broad-focus_Emilio-ama-la-marcha.wav,0,,,471.9005,474.4832,0,1,1.7927,,0,63,63,59,1,60,0,mexican,,,,,,,,,,,,,,,,,,,,,,,,,,,,,,,,,,,,,,,,,,,,,,,,,,,,,,,,
,,,,,,,,,6792eb57ba13059998fa6235,Mexican,13 or older,click here to respond,yes,2025-08-12_16h26.23.234,empathy_intonation_perc_control,2024.2.4,Win32,7.112375533,6792eb57ba13059998fa6235,68817205a84113384fffdfe3,689ba19bc56de28df8ab860f,,,,,,,,,,,,./stim/wavs/castilian_mismatch_declarative-broad-focus_El-nino-oye-el-rio.wav,0,,,474.4836,476.9847,0,1,1.8281,,0,64,64,68,1,69,0,castilian,,,,,,,,,,,,,,,,,,,,,,,,,,,,,,,,,,,,,,,,,,,,,,,,,,,,,,,,
,,,,,,,,,6792eb57ba13059998fa6235,Mexican,13 or older,click here to respond,yes,2025-08-12_16h26.23.234,empathy_intonation_perc_control,2024.2.4,Win32,7.112375533,6792eb57ba13059998fa6235,68817205a84113384fffdfe3,689ba19bc56de28df8ab860f,,,,,,,,,,,,./stim/wavs/cuban_mismatch_declarative-broad-focus_Mi-tia-odia-la-lluvia.wav,0,,,476.9851,479.4819,0,1,1.6673,,0,65,65,77,1,78,0,cuban,,,,,,,,,,,,,,,,,,,,,,,,,,,,,,,,,,,,,,,,,,,,,,,,,,,,,,,,
,,,,,,,,,6792eb57ba13059998fa6235,Mexican,13 or older,click here to respond,yes,2025-08-12_16h26.23.234,empathy_intonation_perc_control,2024.2.4,Win32,7.112375533,6792eb57ba13059998fa6235,68817205a84113384fffdfe3,689ba19bc56de28df8ab860f,,,,,,,,,,,,./stim/wavs/puertorican_match_declarative-broad-focus_Daniel-iba-a-Bolivia.wav,0,,,479.4829,482.4804,0,1,2.1809,,0,66,66,63,1,64,0,puertorican,,,,,,,,,,,,,,,,,,,,,,,,,,,,,,,,,,,,,,,,,,,,,,,,,,,,,,,,
,,,,,,,,,6792eb57ba13059998fa6235,Mexican,13 or older,click here to respond,yes,2025-08-12_16h26.23.234,empathy_intonation_perc_control,2024.2.4,Win32,7.112375533,6792eb57ba13059998fa6235,68817205a84113384fffdfe3,689ba19bc56de28df8ab860f,,,,,,,,,,,,./stim/wavs/cuban_mismatch_interrogative-total-yn_Mi-madre-come-la-fruta.wav,1,,,482.4807,485.1861,0,0,2.0247,,0,67,67,31,1,32,1,cuban,,,,,,,,,,,,,,,,,,,,,,,,,,,,,,,,,,,,,,,,,,,,,,,,,,,,,,,,
,,,,,,,,,6792eb57ba13059998fa6235,Mexican,13 or older,click here to respond,yes,2025-08-12_16h26.23.234,empathy_intonation_perc_control,2024.2.4,Win32,7.112375533,6792eb57ba13059998fa6235,68817205a84113384fffdfe3,689ba19bc56de28df8ab860f,,,,,,,,,,,,./stim/wavs/cuban_match_declarative-broad-focus_Marta-abre-el-regalo.wav,0,,,485.1866,487.8295,0,1,1.8321,,0,68,68,55,1,56,0,cuban,,,,,,,,,,,,,,,,,,,,,,,,,,,,,,,,,,,,,,,,,,,,,,,,,,,,,,,,
,,,,,,,,,6792eb57ba13059998fa6235,Mexican,13 or older,click here to respond,yes,2025-08-12_16h26.23.234,empathy_intonation_perc_control,2024.2.4,Win32,7.112375533,6792eb57ba13059998fa6235,68817205a84113384fffdfe3,689ba19bc56de28df8ab860f,,,,,,,,,,,,./stim/wavs/castilian_mismatch_declarative-broad-focus_Mi-tia-odia-la-lluvia.wav,0,,,487.8299,490.4999,0,1,1.9952,,0,69,69,72,1,73,0,castilian,,,,,,,,,,,,,,,,,,,,,,,,,,,,,,,,,,,,,,,,,,,,,,,,,,,,,,,,
,,,,,,,,,6792eb57ba13059998fa6235,Mexican,13 or older,click here to respond,yes,2025-08-12_16h26.23.234,empathy_intonation_perc_control,2024.2.4,Win32,7.112375533,6792eb57ba13059998fa6235,68817205a84113384fffdfe3,689ba19bc56de28df8ab860f,,,,,,,,,,,,./stim/wavs/cuban_mismatch_interrogative-total-yn_El-nino-oye-el-rio.wav,1,,,490.5003,493.0081,0,0,1.6894,,0,70,70,30,1,31,1,cuban,,,,,,,,,,,,,,,,,,,,,,,,,,,,,,,,,,,,,,,,,,,,,,,,,,,,,,,,
,,,,,,,,,6792eb57ba13059998fa6235,Mexican,13 or older,click here to respond,yes,2025-08-12_16h26.23.234,empathy_intonation_perc_control,2024.2.4,Win32,7.112375533,6792eb57ba13059998fa6235,68817205a84113384fffdfe3,689ba19bc56de28df8ab860f,,,,,,,,,,,,./stim/wavs/castilian_mismatch_interrogative-total-yn_Mi-novio-viene-del-lago.wav,1,,,493.0086,496.0061,1,1,2.1861,,0,71,71,27,1,28,0,castilian,,,,,,,,,,,,,,,,,,,,,,,,,,,,,,,,,,,,,,,,,,,,,,,,,,,,,,,,
,,,,,,,,,6792eb57ba13059998fa6235,Mexican,13 or older,click here to respond,yes,2025-08-12_16h26.23.234,empathy_intonation_perc_control,2024.2.4,Win32,7.112375533,6792eb57ba13059998fa6235,68817205a84113384fffdfe3,689ba19bc56de28df8ab860f,,,,,,,,,,,,./stim/wavs/mexican_mismatch_interrogative-total-yn_El-hombre-mira-la-luna.wav,1,,,496.0065,498.2888,0,0,1.621,,0,72,72,34,1,35,0,mexican,,,,,,,,,,,,,,,,,,,,,,,,,,,,,,,,,,,,,,,,,,,,,,,,,,,,,,,,
,,,,,,,,,6792eb57ba13059998fa6235,Mexican,13 or older,click here to respond,yes,2025-08-12_16h26.23.234,empathy_intonation_perc_control,2024.2.4,Win32,7.112375533,6792eb57ba13059998fa6235,68817205a84113384fffdfe3,689ba19bc56de28df8ab860f,,,,,,,,,,,,./stim/wavs/cuban_match_interrogative-total-yn_Mariano-habla-del-tiempo.wav,1,,,498.2891,501.2584,1,1,2.1562,0.0002,0,73,73,10,1,11,1,cuban,,,,,,,,,,,,,,,,,,,,,,,,,,,,,,,,,,,,,,,,,,,,,,,,,,,,,,,,
,,,,,,,,,6792eb57ba13059998fa6235,Mexican,13 or older,click here to respond,yes,2025-08-12_16h26.23.234,empathy_intonation_perc_control,2024.2.4,Win32,7.112375533,6792eb57ba13059998fa6235,68817205a84113384fffdfe3,689ba19bc56de28df8ab860f,,,,,,,,,,,,./stim/wavs/mexican_mismatch_declarative-broad-focus_El-bebe-comia-muy-bien.wav,0,,,501.2588,503.8605,0,1,1.7894,,0,74,74,78,1,79,0,mexican,,,,,,,,,,,,,,,,,,,,,,,,,,,,,,,,,,,,,,,,,,,,,,,,,,,,,,,,
,,,,,,,,,6792eb57ba13059998fa6235,Mexican,13 or older,click here to respond,yes,2025-08-12_16h26.23.234,empathy_intonation_perc_control,2024.2.4,Win32,7.112375533,6792eb57ba13059998fa6235,68817205a84113384fffdfe3,689ba19bc56de28df8ab860f,,,,,,,,,,,,./stim/wavs/castilian_mismatch_declarative-broad-focus_Mi-novio-viene-del-lago.wav,0,,,503.8609,507.1051,0,1,2.4562,,0,75,75,71,1,72,0,castilian,,,,,,,,,,,,,,,,,,,,,,,,,,,,,,,,,,,,,,,,,,,,,,,,,,,,,,,,
,,,,,,,,,6792eb57ba13059998fa6235,Mexican,13 or older,click here to respond,yes,2025-08-12_16h26.23.234,empathy_intonation_perc_control,2024.2.4,Win32,7.112375533,6792eb57ba13059998fa6235,68817205a84113384fffdfe3,689ba19bc56de28df8ab860f,,,,,,,,,,,,./stim/wavs/castilian_match_declarative-broad-focus_Emilio-ama-la-marcha.wav,0,,,507.1055,510.0329,0,1,2.1187,,0,76,76,45,1,46,0,castilian,,,,,,,,,,,,,,,,,,,,,,,,,,,,,,,,,,,,,,,,,,,,,,,,,,,,,,,,
,,,,,,,,,6792eb57ba13059998fa6235,Mexican,13 or older,click here to respond,yes,2025-08-12_16h26.23.234,empathy_intonation_perc_control,2024.2.4,Win32,7.112375533,6792eb57ba13059998fa6235,68817205a84113384fffdfe3,689ba19bc56de28df8ab860f,,,,,,,,,,,,./stim/wavs/castilian_match_interrogative-total-yn_Manuela-vende-el-carro.wav,1,,,510.0333,512.7684,1,1,1.9381,,0,77,77,2,1,3,0,castilian,,,,,,,,,,,,,,,,,,,,,,,,,,,,,,,,,,,,,,,,,,,,,,,,,,,,,,,,
,,,,,,,,,6792eb57ba13059998fa6235,Mexican,13 or older,click here to respond,yes,2025-08-12_16h26.23.234,empathy_intonation_perc_control,2024.2.4,Win32,7.112375533,6792eb57ba13059998fa6235,68817205a84113384fffdfe3,689ba19bc56de28df8ab860f,,,,,,,,,,,,./stim/wavs/puertorican_match_interrogative-total-yn_Maria-bebe-el-vino.wav,1,,,512.7687,515.0524,0,0,1.4805,,0,78,78,23,1,24,1,puertorican,,,,,,,,,,,,,,,,,,,,,,,,,,,,,,,,,,,,,,,,,,,,,,,,,,,,,,,,
,,,,,,,,,6792eb57ba13059998fa6235,Mexican,13 or older,click here to respond,yes,2025-08-12_16h26.23.234,empathy_intonation_perc_control,2024.2.4,Win32,7.112375533,6792eb57ba13059998fa6235,68817205a84113384fffdfe3,689ba19bc56de28df8ab860f,,,,,,,,,,,,./stim/wavs/castilian_match_declarative-broad-focus_Marta-abre-el-regalo.wav,0,,,515.0528,518.641,0,1,2.7867,,0,79,79,49,1,50,0,castilian,,,,,,,,,,,,,,,,,,,,,,,,,,,,,,,,,,,,,,,,,,,,,,,,,,,,,,,,
,,,,,,,,,6792eb57ba13059998fa6235,Mexican,13 or older,click here to respond,yes,2025-08-12_16h26.23.234,empathy_intonation_perc_control,2024.2.4,Win32,7.112375533,6792eb57ba13059998fa6235,68817205a84113384fffdfe3,689ba19bc56de28df8ab860f,,,,,,,,,,,,./stim/wavs/mexican_mismatch_interrogative-total-yn_Mi-tia-odia-la-lluvia.wav,1,,,518.6413,521.5242,0,0,2.0793,,0,80,80,38,1,39,0,mexican,,,,,,,,,,,,,,,,,,,,,,,,,,,,,,,,,,,,,,,,,,,,,,,,,,,,,,,,
,,,,,,,,,6792eb57ba13059998fa6235,Mexican,13 or older,click here to respond,yes,2025-08-12_16h26.23.234,empathy_intonation_perc_control,2024.2.4,Win32,7.112375533,6792eb57ba13059998fa6235,68817205a84113384fffdfe3,689ba19bc56de28df8ab860f,,,,,,,,,,,,./stim/wavs/puertorican_mismatch_declarative-broad-focus_El-hombre-mira-la-luna.wav,0,,,521.5247,525.0508,0,1,2.8614,,0,81,81,84,1,85,0,puertorican,,,,,,,,,,,,,,,,,,,,,,,,,,,,,,,,,,,,,,,,,,,,,,,,,,,,,,,,
,,,,,,,,,6792eb57ba13059998fa6235,Mexican,13 or older,click here to respond,yes,2025-08-12_16h26.23.234,empathy_intonation_perc_control,2024.2.4,Win32,7.112375533,6792eb57ba13059998fa6235,68817205a84113384fffdfe3,689ba19bc56de28df8ab860f,,,,,,,,,,,,./stim/wavs/mexican_mismatch_declarative-broad-focus_Mi-novio-viene-del-lago.wav,0,,,525.0512,527.6682,0,1,1.797,,0,82,82,81,1,82,0,mexican,,,,,,,,,,,,,,,,,,,,,,,,,,,,,,,,,,,,,,,,,,,,,,,,,,,,,,,,
,,,,,,,,,6792eb57ba13059998fa6235,Mexican,13 or older,click here to respond,yes,2025-08-12_16h26.23.234,empathy_intonation_perc_control,2024.2.4,Win32,7.112375533,6792eb57ba13059998fa6235,68817205a84113384fffdfe3,689ba19bc56de28df8ab860f,,,,,,,,,,,,./stim/wavs/castilian_match_interrogative-total-yn_Maria-bebe-el-vino.wav,1,,,527.6686,530.287,1,1,1.8029,,0,83,83,3,1,4,0,castilian,,,,,,,,,,,,,,,,,,,,,,,,,,,,,,,,,,,,,,,,,,,,,,,,,,,,,,,,
,,,,,,,,,6792eb57ba13059998fa6235,Mexican,13 or older,click here to respond,yes,2025-08-12_16h26.23.234,empathy_intonation_perc_control,2024.2.4,Win32,7.112375533,6792eb57ba13059998fa6235,68817205a84113384fffdfe3,689ba19bc56de28df8ab860f,,,,,,,,,,,,./stim/wavs/cuban_match_declarative-broad-focus_Ana-lleva-el-abrigo.wav,0,,,530.2874,533.0806,0,1,1.9788,,0,84,84,50,1,51,0,cuban,,,,,,,,,,,,,,,,,,,,,,,,,,,,,,,,,,,,,,,,,,,,,,,,,,,,,,,,
,,,,,,,,,6792eb57ba13059998fa6235,Mexican,13 or older,click here to respond,yes,2025-08-12_16h26.23.234,empathy_intonation_perc_control,2024.2.4,Win32,7.112375533,6792eb57ba13059998fa6235,68817205a84113384fffdfe3,689ba19bc56de28df8ab860f,,,,,,,,,,,,./stim/wavs/castilian_mismatch_declarative-broad-focus_La-maestra-vive-en-Paris.wav,0,,,533.0811,536.1908,0,1,2.2989,,0,85,85,69,1,70,0,castilian,,,,,,,,,,,,,,,,,,,,,,,,,,,,,,,,,,,,,,,,,,,,,,,,,,,,,,,,
,,,,,,,,,6792eb57ba13059998fa6235,Mexican,13 or older,click here to respond,yes,2025-08-12_16h26.23.234,empathy_intonation_perc_control,2024.2.4,Win32,7.112375533,6792eb57ba13059998fa6235,68817205a84113384fffdfe3,689ba19bc56de28df8ab860f,,,,,,,,,,,,./stim/wavs/cuban_match_declarative-broad-focus_Mariano-habla-del-tiempo.wav,0,,,536.1911,540.7304,1,0,3.7166,,0,86,86,54,1,55,0,cuban,,,,,,,,,,,,,,,,,,,,,,,,,,,,,,,,,,,,,,,,,,,,,,,,,,,,,,,,
,,,,,,,,,6792eb57ba13059998fa6235,Mexican,13 or older,click here to respond,yes,2025-08-12_16h26.23.234,empathy_intonation_perc_control,2024.2.4,Win32,7.112375533,6792eb57ba13059998fa6235,68817205a84113384fffdfe3,689ba19bc56de28df8ab860f,,,,,,,,,,,,./stim/wavs/mexican_mismatch_interrogative-total-yn_Mi-novio-viene-del-lago.wav,1,,,540.7307,543.5107,0,0,1.9781,,0,87,87,37,1,38,0,mexican,,,,,,,,,,,,,,,,,,,,,,,,,,,,,,,,,,,,,,,,,,,,,,,,,,,,,,,,
,,,,,,,"Great! Now we will move on. The next task consists of about 60 trials, in each of which you will see a string of letters. 
  
  Your task is to decide whether this is a real Spanish word or not.", (press the spacebar to continue),6792eb57ba13059998fa6235,Mexican,13 or older,click here to respond,yes,2025-08-12_16h26.23.234,empathy_intonation_perc_control,2024.2.4,Win32,7.112375533,6792eb57ba13059998fa6235,68817205a84113384fffdfe3,689ba19bc56de28df8ab860f,,,,,,,,,,,,,,,,,,,,,,,,,,,,,,543.5171,627.3168,0,0,0,0,1,,,,,,,,,,,,,,,,,,,,,,,,,,,,,,,,,,,,,,,,,,,,,,,,,
,,,,,,,"If you think it is an existing Spanish word, you type '1' (for 'REAL'), and if you think it is not an existing Spanish word, you type '0' (for 'FAKE').", (press the spacebar to continue),6792eb57ba13059998fa6235,Mexican,13 or older,click here to respond,yes,2025-08-12_16h26.23.234,empathy_intonation_perc_control,2024.2.4,Win32,7.112375533,6792eb57ba13059998fa6235,68817205a84113384fffdfe3,689ba19bc56de28df8ab860f,,,,,,,,,,,,,,,,,,,,,,,,,,,,,,627.3173,631.6586,0,1,1,1,1,,,,,,,,,,,,,,,,,,,,,,,,,,,,,,,,,,,,,,,,,,,,,,,,,
,,,,,,,"If you are sure that the word exists, even though you don’t know its exact meaning, you may still respond '1' (REAL). 
  
  But if you are not sure if it is an existing word, you should respond '0' (FAKE).
  
  Let's do a practice round...", (press the spacebar to continue),6792eb57ba13059998fa6235,Mexican,13 or older,click here to respond,yes,2025-08-12_16h26.23.234,empathy_intonation_perc_control,2024.2.4,Win32,7.112375533,6792eb57ba13059998fa6235,68817205a84113384fffdfe3,689ba19bc56de28df8ab860f,,,,,,,,,,,,,,,,,,,,,,,,,,,,,,631.661,633.5594,0,2,2,2,1,,,,,,,,,,,,,,,,,,,,,,,,,,,,,,,,,,,,,,,,,,,,,,,,,
,,,,,,,,,6792eb57ba13059998fa6235,Mexican,13 or older,click here to respond,yes,2025-08-12_16h26.23.234,empathy_intonation_perc_control,2024.2.4,Win32,7.112375533,6792eb57ba13059998fa6235,68817205a84113384fffdfe3,689ba19bc56de28df8ab860f,,,,,,,,,,,,,0,,,,,,,,,,,,,,,,,,,,,,,,633.5657,650.6767,0,1,16.3144,,650.677,651.6524,0,0,0,0,1,0,depiste,REAL,FAKE,,,,,,,,,,,,,,,,,,,,,,,,,,,,,,,,
,,,,,,,,,6792eb57ba13059998fa6235,Mexican,13 or older,click here to respond,yes,2025-08-12_16h26.23.234,empathy_intonation_perc_control,2024.2.4,Win32,7.112375533,6792eb57ba13059998fa6235,68817205a84113384fffdfe3,689ba19bc56de28df8ab860f,,,,,,,,,,,,,1,,,,,,,,,,,,,,,,,,,,,,,,651.6539,654.4224,1,1,1.9652,0.0003,654.4225,655.3559,0,1,1,1,1,0,sí,REAL,FAKE,,,,,,,,,,,,,,,,,,,,,,,,,,,,,,,,
,,,,,,,,,6792eb57ba13059998fa6235,Mexican,13 or older,click here to respond,yes,2025-08-12_16h26.23.234,empathy_intonation_perc_control,2024.2.4,Win32,7.112375533,6792eb57ba13059998fa6235,68817205a84113384fffdfe3,689ba19bc56de28df8ab860f,,,,,,,,,,,,,0,,,,,,,,,,,,,,,,,,,,,,,,655.3571,663.2503,0,1,7.112,0.0002,663.2503,664.1808,0,2,2,2,1,0,coné,REAL,FAKE,,,,,,,,,,,,,,,,,,,,,,,,,,,,,,,,
,,,,,,,,,6792eb57ba13059998fa6235,Mexican,13 or older,click here to respond,yes,2025-08-12_16h26.23.234,empathy_intonation_perc_control,2024.2.4,Win32,7.112375533,6792eb57ba13059998fa6235,68817205a84113384fffdfe3,689ba19bc56de28df8ab860f,,,,,,,,,,,,,0,,,,,,,,,,,,,,,,,,,,,,,,664.1818,676.2694,0,1,11.3056,9.99999E-05,676.2694,677.2555,0,3,3,3,1,0,calpar,REAL,FAKE,,,,,,,,,,,,,,,,,,,,,,,,,,,,,,,,
,,,,,,,,,6792eb57ba13059998fa6235,Mexican,13 or older,click here to respond,yes,2025-08-12_16h26.23.234,empathy_intonation_perc_control,2024.2.4,Win32,7.112375533,6792eb57ba13059998fa6235,68817205a84113384fffdfe3,689ba19bc56de28df8ab860f,,,,,,,,,,,,,0,,,,,,,,,,,,,,,,,,,,,,,,677.257,686.2068,0,1,8.1242,0.0003,686.2068,687.1403,0,4,4,4,1,0,joten,REAL,FAKE,,,,,,,,,,,,,,,,,,,,,,,,,,,,,,,,
,,,,,,,,,6792eb57ba13059998fa6235,Mexican,13 or older,click here to respond,yes,2025-08-12_16h26.23.234,empathy_intonation_perc_control,2024.2.4,Win32,7.112375533,6792eb57ba13059998fa6235,68817205a84113384fffdfe3,689ba19bc56de28df8ab860f,,,,,,,,,,,,,1,,,,,,,,,,,,,,,,,,,,,,,,687.1412,698.981,1,1,11.0576,,698.9811,699.9088,0,5,5,5,1,0,sacapuntas,REAL,FAKE,,,,,,,,,,,,,,,,,,,,,,,,,,,,,,,,
,,,,,,,,,6792eb57ba13059998fa6235,Mexican,13 or older,click here to respond,yes,2025-08-12_16h26.23.234,empathy_intonation_perc_control,2024.2.4,Win32,7.112375533,6792eb57ba13059998fa6235,68817205a84113384fffdfe3,689ba19bc56de28df8ab860f,,,,,,,,,,,,,0,,,,,,,,,,,,,,,,,,,,,,,,699.9099,713.9216,0,1,13.2032,0.0003,713.9217,714.8486,0,6,6,6,1,0,priba,REAL,FAKE,,,,,,,,,,,,,,,,,,,,,,,,,,,,,,,,
,,,,,,,,,6792eb57ba13059998fa6235,Mexican,13 or older,click here to respond,yes,2025-08-12_16h26.23.234,empathy_intonation_perc_control,2024.2.4,Win32,7.112375533,6792eb57ba13059998fa6235,68817205a84113384fffdfe3,689ba19bc56de28df8ab860f,,,,,,,,,,,,,0,,,,,,,,,,,,,,,,,,,,,,,,714.8497,727.2951,0,1,11.6522,0.0003,727.2952,728.2347,0,7,7,7,1,0,pelasula,REAL,FAKE,,,,,,,,,,,,,,,,,,,,,,,,,,,,,,,,
,,,,,,,,,6792eb57ba13059998fa6235,Mexican,13 or older,click here to respond,yes,2025-08-12_16h26.23.234,empathy_intonation_perc_control,2024.2.4,Win32,7.112375533,6792eb57ba13059998fa6235,68817205a84113384fffdfe3,689ba19bc56de28df8ab860f,,,,,,,,,,,,,1,,,,,,,,,,,,,,,,,,,,,,,,728.2356,852.1971,1,1,123.0763,,852.1971,853.1275,0,8,8,8,1,0,bien,REAL,FAKE,,,,,,,,,,,,,,,,,,,,,,,,,,,,,,,,
,,,,,,,,,6792eb57ba13059998fa6235,Mexican,13 or older,click here to respond,yes,2025-08-12_16h26.23.234,empathy_intonation_perc_control,2024.2.4,Win32,7.112375533,6792eb57ba13059998fa6235,68817205a84113384fffdfe3,689ba19bc56de28df8ab860f,,,,,,,,,,,,,1,,,,,,,,,,,,,,,,,,,,,,,,853.1278,856.1855,1,1,2.2754,,856.1855,857.1375,0,9,9,9,1,0,casa,REAL,FAKE,,,,,,,,,,,,,,,,,,,,,,,,,,,,,,,,
,,,,,,,,,6792eb57ba13059998fa6235,Mexican,13 or older,click here to respond,yes,2025-08-12_16h26.23.234,empathy_intonation_perc_control,2024.2.4,Win32,7.112375533,6792eb57ba13059998fa6235,68817205a84113384fffdfe3,689ba19bc56de28df8ab860f,,,,,,,,,,,,,0,,,,,,,,,,,,,,,,,,,,,,,,857.1382,882.0907,0,1,24.1526,0.0002,882.0907,883.0108,0,10,10,10,1,0,lejo,REAL,FAKE,,,,,,,,,,,,,,,,,,,,,,,,,,,,,,,,
,,,,,,,,,6792eb57ba13059998fa6235,Mexican,13 or older,click here to respond,yes,2025-08-12_16h26.23.234,empathy_intonation_perc_control,2024.2.4,Win32,7.112375533,6792eb57ba13059998fa6235,68817205a84113384fffdfe3,689ba19bc56de28df8ab860f,,,,,,,,,,,,,0,,,,,,,,,,,,,,,,,,,,,,,,883.0116,885.0861,1,0,1.2966,,885.0871,886.0272,0,11,11,11,1,0,pretantas,REAL,FAKE,,,,,,,,,,,,,,,,,,,,,,,,,,,,,,,,
,,,,,,,,,6792eb57ba13059998fa6235,Mexican,13 or older,click here to respond,yes,2025-08-12_16h26.23.234,empathy_intonation_perc_control,2024.2.4,Win32,7.112375533,6792eb57ba13059998fa6235,68817205a84113384fffdfe3,689ba19bc56de28df8ab860f,,,,,,,,,,,,,,,,,,,,,,,,,,,,,,,,,,,,,,,,,,,,,,,,,,,,,,886.0281,1085.3103,,,,,,,,,,,,,,,,,,,,,,,,,,,,,,
,,,,,,,,,6792eb57ba13059998fa6235,Mexican,13 or older,click here to respond,yes,2025-08-12_16h26.23.234,empathy_intonation_perc_control,2024.2.4,Win32,7.112375533,6792eb57ba13059998fa6235,68817205a84113384fffdfe3,689ba19bc56de28df8ab860f,,,,,,,,,,,,,0,,,,,,,,,,,,,,,,,,,,,,,,,,,,,,,,,,,,,8,cadeña,,,,,1085.3234,1095.2046,1,0,9.1077,,0,0,0,7,1,REAL,FAKE,,,,,,,,,,,,,,,,,
,,,,,,,,,6792eb57ba13059998fa6235,Mexican,13 or older,click here to respond,yes,2025-08-12_16h26.23.234,empathy_intonation_perc_control,2024.2.4,Win32,7.112375533,6792eb57ba13059998fa6235,68817205a84113384fffdfe3,689ba19bc56de28df8ab860f,,,,,,,,,,,,,0,,,,,,,,,,,,,,,,,,,,,,,,,,,,,,,,,,,,,79,tropaje,,,,,1095.2054,1110.0406,1,0,14.0581,,0,1,1,78,1,REAL,FAKE,,,,,,,,,,,,,,,,,
,,,,,,,,,6792eb57ba13059998fa6235,Mexican,13 or older,click here to respond,yes,2025-08-12_16h26.23.234,empathy_intonation_perc_control,2024.2.4,Win32,7.112375533,6792eb57ba13059998fa6235,68817205a84113384fffdfe3,689ba19bc56de28df8ab860f,,,,,,,,,,,,,1,,,,,,,,,,,,,,,,,,,,,,,,,,,,,,,,,,,,,62,flaco,,,,,1110.0417,1111.8982,0,0,1.0922,,0,2,2,61,1,REAL,FAKE,,,,,,,,,,,,,,,,,
,,,,,,,,,6792eb57ba13059998fa6235,Mexican,13 or older,click here to respond,yes,2025-08-12_16h26.23.234,empathy_intonation_perc_control,2024.2.4,Win32,7.112375533,6792eb57ba13059998fa6235,68817205a84113384fffdfe3,689ba19bc56de28df8ab860f,,,,,,,,,,,,,0,,,,,,,,,,,,,,,,,,,,,,,,,,,,,,,,,,,,,84,escuto,,,,,1111.8989,1113.7698,1,0,1.1023,,0,3,3,83,1,REAL,FAKE,,,,,,,,,,,,,,,,,
,,,,,,,,,6792eb57ba13059998fa6235,Mexican,13 or older,click here to respond,yes,2025-08-12_16h26.23.234,empathy_intonation_perc_control,2024.2.4,Win32,7.112375533,6792eb57ba13059998fa6235,68817205a84113384fffdfe3,689ba19bc56de28df8ab860f,,,,,,,,,,,,,0,,,,,,,,,,,,,,,,,,,,,,,,,,,,,,,,,,,,,42,cadallo,,,,,1113.7704,1115.3173,1,0,0.7807,0.0002,0,4,4,41,1,REAL,FAKE,,,,,,,,,,,,,,,,,
,,,,,,,,,6792eb57ba13059998fa6235,Mexican,13 or older,click here to respond,yes,2025-08-12_16h26.23.234,empathy_intonation_perc_control,2024.2.4,Win32,7.112375533,6792eb57ba13059998fa6235,68817205a84113384fffdfe3,689ba19bc56de28df8ab860f,,,,,,,,,,,,,1,,,,,,,,,,,,,,,,,,,,,,,,,,,,,,,,,,,,,88,acantilado,,,,,1115.3182,1117.2264,1,1,1.1332,,0,5,5,87,1,REAL,FAKE,,,,,,,,,,,,,,,,,
,,,,,,,,,6792eb57ba13059998fa6235,Mexican,13 or older,click here to respond,yes,2025-08-12_16h26.23.234,empathy_intonation_perc_control,2024.2.4,Win32,7.112375533,6792eb57ba13059998fa6235,68817205a84113384fffdfe3,689ba19bc56de28df8ab860f,,,,,,,,,,,,,1,,,,,,,,,,,,,,,,,,,,,,,,,,,,,,,,,,,,,26,secuestro,,,,,1117.2271,1118.1493,0,0,0.1589,0.0002,0,6,6,25,1,REAL,FAKE,,,,,,,,,,,,,,,,,
,,,,,,,,,6792eb57ba13059998fa6235,Mexican,13 or older,click here to respond,yes,2025-08-12_16h26.23.234,empathy_intonation_perc_control,2024.2.4,Win32,7.112375533,6792eb57ba13059998fa6235,68817205a84113384fffdfe3,689ba19bc56de28df8ab860f,,,,,,,,,,,,,0,,,,,,,,,,,,,,,,,,,,,,,,,,,,,,,,,,,,,19,brecedad,,,,,1118.1499,1119.3957,1,0,0.4796,0.0002,0,7,7,18,1,REAL,FAKE,,,,,,,,,,,,,,,,,
,,,,,,,,,6792eb57ba13059998fa6235,Mexican,13 or older,click here to respond,yes,2025-08-12_16h26.23.234,empathy_intonation_perc_control,2024.2.4,Win32,7.112375533,6792eb57ba13059998fa6235,68817205a84113384fffdfe3,689ba19bc56de28df8ab860f,,,,,,,,,,,,,0,,,,,,,,,,,,,,,,,,,,,,,,,,,,,,,,,,,,,72,pemición,,,,,1119.3968,1120.6371,1,0,0.4784,0.0003,0,8,8,71,1,REAL,FAKE,,,,,,,,,,,,,,,,,
,,,,,,,,,6792eb57ba13059998fa6235,Mexican,13 or older,click here to respond,yes,2025-08-12_16h26.23.234,empathy_intonation_perc_control,2024.2.4,Win32,7.112375533,6792eb57ba13059998fa6235,68817205a84113384fffdfe3,689ba19bc56de28df8ab860f,,,,,,,,,,,,,1,,,,,,,,,,,,,,,,,,,,,,,,,,,,,,,,,,,,,89,prisa,,,,,1120.6378,1121.4026,0,0,0.0048,,0,9,9,88,1,REAL,FAKE,,,,,,,,,,,,,,,,,
,,,,,,,,,6792eb57ba13059998fa6235,Mexican,13 or older,click here to respond,yes,2025-08-12_16h26.23.234,empathy_intonation_perc_control,2024.2.4,Win32,7.112375533,6792eb57ba13059998fa6235,68817205a84113384fffdfe3,689ba19bc56de28df8ab860f,,,,,,,,,,,,,1,,,,,,,,,,,,,,,,,,,,,,,,,,,,,,,,,,,,,51,candado,,,,,1121.4032,1122.4964,1,1,0.3275,,0,10,10,50,1,REAL,FAKE,,,,,,,,,,,,,,,,,
,,,,,,,,,6792eb57ba13059998fa6235,Mexican,13 or older,click here to respond,yes,2025-08-12_16h26.23.234,empathy_intonation_perc_control,2024.2.4,Win32,7.112375533,6792eb57ba13059998fa6235,68817205a84113384fffdfe3,689ba19bc56de28df8ab860f,,,,,,,,,,,,,1,,,,,,,,,,,,,,,,,,,,,,,,,,,,,,,,,,,,,81,pozo,,,,,1122.4974,1123.8792,1,1,0.6281,,0,11,11,80,1,REAL,FAKE,,,,,,,,,,,,,,,,,
,,,,,,,,,6792eb57ba13059998fa6235,Mexican,13 or older,click here to respond,yes,2025-08-12_16h26.23.234,empathy_intonation_perc_control,2024.2.4,Win32,7.112375533,6792eb57ba13059998fa6235,68817205a84113384fffdfe3,689ba19bc56de28df8ab860f,,,,,,,,,,,,,1,,,,,,,,,,,,,,,,,,,,,,,,,,,,,,,,,,,,,83,guante,,,,,1123.8801,1124.9558,0,0,0.3199,,0,12,12,82,1,REAL,FAKE,,,,,,,,,,,,,,,,,
,,,,,,,,,6792eb57ba13059998fa6235,Mexican,13 or older,click here to respond,yes,2025-08-12_16h26.23.234,empathy_intonation_perc_control,2024.2.4,Win32,7.112375533,6792eb57ba13059998fa6235,68817205a84113384fffdfe3,689ba19bc56de28df8ab860f,,,,,,,,,,,,,1,,,,,,,,,,,,,,,,,,,,,,,,,,,,,,,,,,,,,59,besar,,,,,1124.9565,1126.3382,1,1,0.6249,0.0002,0,13,13,58,1,REAL,FAKE,,,,,,,,,,,,,,,,,
,,,,,,,,,6792eb57ba13059998fa6235,Mexican,13 or older,click here to respond,yes,2025-08-12_16h26.23.234,empathy_intonation_perc_control,2024.2.4,Win32,7.112375533,6792eb57ba13059998fa6235,68817205a84113384fffdfe3,689ba19bc56de28df8ab860f,,,,,,,,,,,,,0,,,,,,,,,,,,,,,,,,,,,,,,,,,,,,,,,,,,,82,empirador,,,,,1126.3388,1127.1124,1,0,0.0044,,0,14,14,81,1,REAL,FAKE,,,,,,,,,,,,,,,,,
,,,,,,,,,6792eb57ba13059998fa6235,Mexican,13 or older,click here to respond,yes,2025-08-12_16h26.23.234,empathy_intonation_perc_control,2024.2.4,Win32,7.112375533,6792eb57ba13059998fa6235,68817205a84113384fffdfe3,689ba19bc56de28df8ab860f,,,,,,,,,,,,,1,,,,,,,,,,,,,,,,,,,,,,,,,,,,,,,,,,,,,5,zapato,,,,,1127.1129,1128.0464,0,0,0.1624,,0,15,15,4,1,REAL,FAKE,,,,,,,,,,,,,,,,,
,,,,,,,,,6792eb57ba13059998fa6235,Mexican,13 or older,click here to respond,yes,2025-08-12_16h26.23.234,empathy_intonation_perc_control,2024.2.4,Win32,7.112375533,6792eb57ba13059998fa6235,68817205a84113384fffdfe3,689ba19bc56de28df8ab860f,,,,,,,,,,,,,1,,,,,,,,,,,,,,,,,,,,,,,,,,,,,,,,,,,,,24,látigo,,,,,1128.0475,1129.6052,1,1,0.7914,0.0004,0,16,16,23,1,REAL,FAKE,,,,,,,,,,,,,,,,,
,,,,,,,,,6792eb57ba13059998fa6235,Mexican,13 or older,click here to respond,yes,2025-08-12_16h26.23.234,empathy_intonation_perc_control,2024.2.4,Win32,7.112375533,6792eb57ba13059998fa6235,68817205a84113384fffdfe3,689ba19bc56de28df8ab860f,,,,,,,,,,,,,1,,,,,,,,,,,,,,,,,,,,,,,,,,,,,,,,,,,,,86,barato,,,,,1129.6058,1130.3761,1,1,0.0046,,0,17,17,85,1,REAL,FAKE,,,,,,,,,,,,,,,,,
,,,,,,,,,6792eb57ba13059998fa6235,Mexican,13 or older,click here to respond,yes,2025-08-12_16h26.23.234,empathy_intonation_perc_control,2024.2.4,Win32,7.112375533,6792eb57ba13059998fa6235,68817205a84113384fffdfe3,689ba19bc56de28df8ab860f,,,,,,,,,,,,,0,,,,,,,,,,,,,,,,,,,,,,,,,,,,,,,,,,,,,63,esposante,,,,,1130.3769,1132.5826,0,1,1.4333,,0,18,18,62,1,REAL,FAKE,,,,,,,,,,,,,,,,,
,,,,,,,,,6792eb57ba13059998fa6235,Mexican,13 or older,click here to respond,yes,2025-08-12_16h26.23.234,empathy_intonation_perc_control,2024.2.4,Win32,7.112375533,6792eb57ba13059998fa6235,68817205a84113384fffdfe3,689ba19bc56de28df8ab860f,,,,,,,,,,,,,1,,,,,,,,,,,,,,,,,,,,,,,,,,,,,,,,,,,,,64,orgulloso,,,,,1132.5832,1133.9745,0,0,0.6324,,0,19,19,63,1,REAL,FAKE,,,,,,,,,,,,,,,,,
,,,,,,,,,6792eb57ba13059998fa6235,Mexican,13 or older,click here to respond,yes,2025-08-12_16h26.23.234,empathy_intonation_perc_control,2024.2.4,Win32,7.112375533,6792eb57ba13059998fa6235,68817205a84113384fffdfe3,689ba19bc56de28df8ab860f,,,,,,,,,,,,,0,,,,,,,,,,,,,,,,,,,,,,,,,,,,,,,,,,,,,74,cintro,,,,,1133.9751,1135.5306,1,0,0.7898,,0,20,20,73,1,REAL,FAKE,,,,,,,,,,,,,,,,,
,,,,,,,,,6792eb57ba13059998fa6235,Mexican,13 or older,click here to respond,yes,2025-08-12_16h26.23.234,empathy_intonation_perc_control,2024.2.4,Win32,7.112375533,6792eb57ba13059998fa6235,68817205a84113384fffdfe3,689ba19bc56de28df8ab860f,,,,,,,,,,,,,1,,,,,,,,,,,,,,,,,,,,,,,,,,,,,,,,,,,,,91,click the 1 key.,,,,,1135.5321,1137.2567,1,1,0.965,,0,21,21,90,1,REAL,FAKE,,,,,,,,,,,,,,,,,
,,,,,,,,,6792eb57ba13059998fa6235,Mexican,13 or older,click here to respond,yes,2025-08-12_16h26.23.234,empathy_intonation_perc_control,2024.2.4,Win32,7.112375533,6792eb57ba13059998fa6235,68817205a84113384fffdfe3,689ba19bc56de28df8ab860f,,,,,,,,,,,,,0,,,,,,,,,,,,,,,,,,,,,,,,,,,,,,,,,,,,,33,pauca,,,,,1137.2572,1138.806,1,0,0.7853,,0,22,22,32,1,REAL,FAKE,,,,,,,,,,,,,,,,,
,,,,,,,,,6792eb57ba13059998fa6235,Mexican,13 or older,click here to respond,yes,2025-08-12_16h26.23.234,empathy_intonation_perc_control,2024.2.4,Win32,7.112375533,6792eb57ba13059998fa6235,68817205a84113384fffdfe3,689ba19bc56de28df8ab860f,,,,,,,,,,,,,1,,,,,,,,,,,,,,,,,,,,,,,,,,,,,,,,,,,,,76,atar,,,,,1138.8065,1140.1917,0,0,0.6254,,0,23,23,75,1,REAL,FAKE,,,,,,,,,,,,,,,,,
,,,,,,,,,6792eb57ba13059998fa6235,Mexican,13 or older,click here to respond,yes,2025-08-12_16h26.23.234,empathy_intonation_perc_control,2024.2.4,Win32,7.112375533,6792eb57ba13059998fa6235,68817205a84113384fffdfe3,689ba19bc56de28df8ab860f,,,,,,,,,,,,,1,,,,,,,,,,,,,,,,,,,,,,,,,,,,,,,,,,,,,54,fomentar,,,,,1140.1922,1141.5864,1,1,0.632,,0,24,24,53,1,REAL,FAKE,,,,,,,,,,,,,,,,,
,,,,,,,,,6792eb57ba13059998fa6235,Mexican,13 or older,click here to respond,yes,2025-08-12_16h26.23.234,empathy_intonation_perc_control,2024.2.4,Win32,7.112375533,6792eb57ba13059998fa6235,68817205a84113384fffdfe3,689ba19bc56de28df8ab860f,,,,,,,,,,,,,1,,,,,,,,,,,,,,,,,,,,,,,,,,,,,,,,,,,,,12,asesinato,,,,,1141.5871,1142.8316,1,1,0.4753,,0,25,25,11,1,REAL,FAKE,,,,,,,,,,,,,,,,,
,,,,,,,,,6792eb57ba13059998fa6235,Mexican,13 or older,click here to respond,yes,2025-08-12_16h26.23.234,empathy_intonation_perc_control,2024.2.4,Win32,7.112375533,6792eb57ba13059998fa6235,68817205a84113384fffdfe3,689ba19bc56de28df8ab860f,,,,,,,,,,,,,1,,,,,,,,,,,,,,,,,,,,,,,,,,,,,,,,,,,,,68,alegre,,,,,1142.8323,1144.6979,0,0,1.094,0.0003,0,26,26,67,1,REAL,FAKE,,,,,,,,,,,,,,,,,
,,,,,,,,,6792eb57ba13059998fa6235,Mexican,13 or older,click here to respond,yes,2025-08-12_16h26.23.234,empathy_intonation_perc_control,2024.2.4,Win32,7.112375533,6792eb57ba13059998fa6235,68817205a84113384fffdfe3,689ba19bc56de28df8ab860f,,,,,,,,,,,,,1,,,,,,,,,,,,,,,,,,,,,,,,,,,,,,,,,,,,,44,cuchara,,,,,1144.6986,1146.4276,1,1,0.9574,,0,27,27,43,1,REAL,FAKE,,,,,,,,,,,,,,,,,
,,,,,,,,,6792eb57ba13059998fa6235,Mexican,13 or older,click here to respond,yes,2025-08-12_16h26.23.234,empathy_intonation_perc_control,2024.2.4,Win32,7.112375533,6792eb57ba13059998fa6235,68817205a84113384fffdfe3,689ba19bc56de28df8ab860f,,,,,,,,,,,,,1,,,,,,,,,,,,,,,,,,,,,,,,,,,,,,,,,,,,,55,nevar,,,,,1146.4285,1148.0089,1,1,0.8144,,0,28,28,54,1,REAL,FAKE,,,,,,,,,,,,,,,,,
,,,,,,,,,6792eb57ba13059998fa6235,Mexican,13 or older,click here to respond,yes,2025-08-12_16h26.23.234,empathy_intonation_perc_control,2024.2.4,Win32,7.112375533,6792eb57ba13059998fa6235,68817205a84113384fffdfe3,689ba19bc56de28df8ab860f,,,,,,,,,,,,,1,,,,,,,,,,,,,,,,,,,,,,,,,,,,,,,,,,,,,15,regar,,,,,1148.0095,1149.5557,1,1,0.7812,,0,29,29,14,1,REAL,FAKE,,,,,,,,,,,,,,,,,
,,,,,,,,,6792eb57ba13059998fa6235,Mexican,13 or older,click here to respond,yes,2025-08-12_16h26.23.234,empathy_intonation_perc_control,2024.2.4,Win32,7.112375533,6792eb57ba13059998fa6235,68817205a84113384fffdfe3,689ba19bc56de28df8ab860f,,,,,,,,,,,,,1,,,,,,,,,,,,,,,,,,,,,,,,,,,,,,,,,,,,,43,canela,,,,,1149.5562,1151.8877,1,1,1.5722,,0,30,30,42,1,REAL,FAKE,,,,,,,,,,,,,,,,,
,,,,,,,,,6792eb57ba13059998fa6235,Mexican,13 or older,click here to respond,yes,2025-08-12_16h26.23.234,empathy_intonation_perc_control,2024.2.4,Win32,7.112375533,6792eb57ba13059998fa6235,68817205a84113384fffdfe3,689ba19bc56de28df8ab860f,,,,,,,,,,,,,1,,,,,,,,,,,,,,,,,,,,,,,,,,,,,,,,,,,,,6,tergiversar,,,,,1151.8884,1153.5182,0,0,0.7701,9.99999E-05,0,31,31,5,1,REAL,FAKE,,,,,,,,,,,,,,,,,
,,,,,,,,,6792eb57ba13059998fa6235,Mexican,13 or older,click here to respond,yes,2025-08-12_16h26.23.234,empathy_intonation_perc_control,2024.2.4,Win32,7.112375533,6792eb57ba13059998fa6235,68817205a84113384fffdfe3,689ba19bc56de28df8ab860f,,,,,,,,,,,,,1,,,,,,,,,,,,,,,,,,,,,,,,,,,,,,,,,,,,,52,camisa,,,,,1153.519,1154.9717,1,1,0.6452,0.0003,0,32,32,51,1,REAL,FAKE,,,,,,,,,,,,,,,,,
,,,,,,,,,6792eb57ba13059998fa6235,Mexican,13 or older,click here to respond,yes,2025-08-12_16h26.23.234,empathy_intonation_perc_control,2024.2.4,Win32,7.112375533,6792eb57ba13059998fa6235,68817205a84113384fffdfe3,689ba19bc56de28df8ab860f,,,,,,,,,,,,,0,,,,,,,,,,,,,,,,,,,,,,,,,,,,,,,,,,,,,4,batillón,,,,,1154.9724,1156.2161,1,0,0.4831,,0,33,33,3,1,REAL,FAKE,,,,,,,,,,,,,,,,,
,,,,,,,,,6792eb57ba13059998fa6235,Mexican,13 or older,click here to respond,yes,2025-08-12_16h26.23.234,empathy_intonation_perc_control,2024.2.4,Win32,7.112375533,6792eb57ba13059998fa6235,68817205a84113384fffdfe3,689ba19bc56de28df8ab860f,,,,,,,,,,,,,1,,,,,,,,,,,,,,,,,,,,,,,,,,,,,,,,,,,,,61,seda,,,,,1156.2169,1159.6836,1,1,2.67,,0,34,34,60,1,REAL,FAKE,,,,,,,,,,,,,,,,,
,,,,,,,,,6792eb57ba13059998fa6235,Mexican,13 or older,click here to respond,yes,2025-08-12_16h26.23.234,empathy_intonation_perc_control,2024.2.4,Win32,7.112375533,6792eb57ba13059998fa6235,68817205a84113384fffdfe3,689ba19bc56de28df8ab860f,,,,,,,,,,,,,0,,,,,,,,,,,,,,,,,,,,,,,,,,,,,,,,,,,,,10,antar,,,,,1159.6842,1161.253,0,1,0.8039,,0,35,35,9,1,REAL,FAKE,,,,,,,,,,,,,,,,,
,,,,,,,,,6792eb57ba13059998fa6235,Mexican,13 or older,click here to respond,yes,2025-08-12_16h26.23.234,empathy_intonation_perc_control,2024.2.4,Win32,7.112375533,6792eb57ba13059998fa6235,68817205a84113384fffdfe3,689ba19bc56de28df8ab860f,,,,,,,,,,,,,1,,,,,,,,,,,,,,,,,,,,,,,,,,,,,,,,,,,,,77,tiburón,,,,,1161.2537,1162.177,0,0,0.1656,0.0003,0,36,36,76,1,REAL,FAKE,,,,,,,,,,,,,,,,,
,,,,,,,,,6792eb57ba13059998fa6235,Mexican,13 or older,click here to respond,yes,2025-08-12_16h26.23.234,empathy_intonation_perc_control,2024.2.4,Win32,7.112375533,6792eb57ba13059998fa6235,68817205a84113384fffdfe3,689ba19bc56de28df8ab860f,,,,,,,,,,,,,1,,,,,,,,,,,,,,,,,,,,,,,,,,,,,,,,,,,,,14,yunque,,,,,1162.1778,1163.4285,0,0,0.4786,0.0003,0,37,37,13,1,REAL,FAKE,,,,,,,,,,,,,,,,,
,,,,,,,,,6792eb57ba13059998fa6235,Mexican,13 or older,click here to respond,yes,2025-08-12_16h26.23.234,empathy_intonation_perc_control,2024.2.4,Win32,7.112375533,6792eb57ba13059998fa6235,68817205a84113384fffdfe3,689ba19bc56de28df8ab860f,,,,,,,,,,,,,0,,,,,,,,,,,,,,,,,,,,,,,,,,,,,,,,,,,,,18,arsa,,,,,1163.4291,1164.5149,1,0,0.3172,,0,38,38,17,1,REAL,FAKE,,,,,,,,,,,,,,,,,
,,,,,,,,,6792eb57ba13059998fa6235,Mexican,13 or older,click here to respond,yes,2025-08-12_16h26.23.234,empathy_intonation_perc_control,2024.2.4,Win32,7.112375533,6792eb57ba13059998fa6235,68817205a84113384fffdfe3,689ba19bc56de28df8ab860f,,,,,,,,,,,,,1,,,,,,,,,,,,,,,,,,,,,,,,,,,,,,,,,,,,,57,tacaño,,,,,1164.5154,1165.5985,1,1,0.325,,0,39,39,56,1,REAL,FAKE,,,,,,,,,,,,,,,,,
,,,,,,,,,6792eb57ba13059998fa6235,Mexican,13 or older,click here to respond,yes,2025-08-12_16h26.23.234,empathy_intonation_perc_control,2024.2.4,Win32,7.112375533,6792eb57ba13059998fa6235,68817205a84113384fffdfe3,689ba19bc56de28df8ab860f,,,,,,,,,,,,,1,,,,,,,,,,,,,,,,,,,,,,,,,,,,,,,,,,,,,41,rebuscar,,,,,1165.5992,1166.5295,1,1,0.1597,,0,40,40,40,1,REAL,FAKE,,,,,,,,,,,,,,,,,
,,,,,,,,,6792eb57ba13059998fa6235,Mexican,13 or older,click here to respond,yes,2025-08-12_16h26.23.234,empathy_intonation_perc_control,2024.2.4,Win32,7.112375533,6792eb57ba13059998fa6235,68817205a84113384fffdfe3,689ba19bc56de28df8ab860f,,,,,,,,,,,,,1,,,,,,,,,,,,,,,,,,,,,,,,,,,,,,,,,,,,,73,hervidor,,,,,1166.5302,1167.7686,1,1,0.4712,,0,41,41,72,1,REAL,FAKE,,,,,,,,,,,,,,,,,
,,,,,,,,,6792eb57ba13059998fa6235,Mexican,13 or older,click here to respond,yes,2025-08-12_16h26.23.234,empathy_intonation_perc_control,2024.2.4,Win32,7.112375533,6792eb57ba13059998fa6235,68817205a84113384fffdfe3,689ba19bc56de28df8ab860f,,,,,,,,,,,,,0,,,,,,,,,,,,,,,,,,,,,,,,,,,,,,,,,,,,,66,hacido,,,,,1167.7693,1168.6999,0,1,0.1628,9.99999E-05,0,42,42,65,1,REAL,FAKE,,,,,,,,,,,,,,,,,
,,,,,,,,,6792eb57ba13059998fa6235,Mexican,13 or older,click here to respond,yes,2025-08-12_16h26.23.234,empathy_intonation_perc_control,2024.2.4,Win32,7.112375533,6792eb57ba13059998fa6235,68817205a84113384fffdfe3,689ba19bc56de28df8ab860f,,,,,,,,,,,,,1,,,,,,,,,,,,,,,,,,,,,,,,,,,,,,,,,,,,,49,ganar,,,,,1168.7005,1169.478,0,0,0.0144,,0,43,43,48,1,REAL,FAKE,,,,,,,,,,,,,,,,,
,,,,,,,,,6792eb57ba13059998fa6235,Mexican,13 or older,click here to respond,yes,2025-08-12_16h26.23.234,empathy_intonation_perc_control,2024.2.4,Win32,7.112375533,6792eb57ba13059998fa6235,68817205a84113384fffdfe3,689ba19bc56de28df8ab860f,,,,,,,,,,,,,1,,,,,,,,,,,,,,,,,,,,,,,,,,,,,,,,,,,,,11,cenefa,,,,,1169.4787,1170.5621,1,1,0.321,,0,44,44,10,1,REAL,FAKE,,,,,,,,,,,,,,,,,
,,,,,,,,,6792eb57ba13059998fa6235,Mexican,13 or older,click here to respond,yes,2025-08-12_16h26.23.234,empathy_intonation_perc_control,2024.2.4,Win32,7.112375533,6792eb57ba13059998fa6235,68817205a84113384fffdfe3,689ba19bc56de28df8ab860f,,,,,,,,,,,,,0,,,,,,,,,,,,,,,,,,,,,,,,,,,,,,,,,,,,,47,cartinar,,,,,1170.5627,1171.9536,1,0,0.6368,,0,45,45,46,1,REAL,FAKE,,,,,,,,,,,,,,,,,
,,,,,,,,,6792eb57ba13059998fa6235,Mexican,13 or older,click here to respond,yes,2025-08-12_16h26.23.234,empathy_intonation_perc_control,2024.2.4,Win32,7.112375533,6792eb57ba13059998fa6235,68817205a84113384fffdfe3,689ba19bc56de28df8ab860f,,,,,,,,,,,,,1,,,,,,,,,,,,,,,,,,,,,,,,,,,,,,,,,,,,,90,clavel,,,,,1171.9543,1173.1981,0,0,0.4697,0.0002,0,46,46,89,1,REAL,FAKE,,,,,,,,,,,,,,,,,
,,,,,,,,,6792eb57ba13059998fa6235,Mexican,13 or older,click here to respond,yes,2025-08-12_16h26.23.234,empathy_intonation_perc_control,2024.2.4,Win32,7.112375533,6792eb57ba13059998fa6235,68817205a84113384fffdfe3,689ba19bc56de28df8ab860f,,,,,,,,,,,,,1,,,,,,,,,,,,,,,,,,,,,,,,,,,,,,,,,,,,,56,musgo,,,,,1173.1986,1173.9702,0,0,0.0045,,0,47,47,55,1,REAL,FAKE,,,,,,,,,,,,,,,,,
,,,,,,,,,6792eb57ba13059998fa6235,Mexican,13 or older,click here to respond,yes,2025-08-12_16h26.23.234,empathy_intonation_perc_control,2024.2.4,Win32,7.112375533,6792eb57ba13059998fa6235,68817205a84113384fffdfe3,689ba19bc56de28df8ab860f,,,,,,,,,,,,,0,,,,,,,,,,,,,,,,,,,,,,,,,,,,,,,,,,,,,30,alardio,,,,,1173.9708,1175.0614,1,0,0.3213,,0,48,48,29,1,REAL,FAKE,,,,,,,,,,,,,,,,,
,,,,,,,,,6792eb57ba13059998fa6235,Mexican,13 or older,click here to respond,yes,2025-08-12_16h26.23.234,empathy_intonation_perc_control,2024.2.4,Win32,7.112375533,6792eb57ba13059998fa6235,68817205a84113384fffdfe3,689ba19bc56de28df8ab860f,,,,,,,,,,,,,1,,,,,,,,,,,,,,,,,,,,,,,,,,,,,,,,,,,,,78,frondoso,,,,,1175.0621,1176.1412,1,1,0.3191,,0,49,49,77,1,REAL,FAKE,,,,,,,,,,,,,,,,,
,,,,,,,,,6792eb57ba13059998fa6235,Mexican,13 or older,click here to respond,yes,2025-08-12_16h26.23.234,empathy_intonation_perc_control,2024.2.4,Win32,7.112375533,6792eb57ba13059998fa6235,68817205a84113384fffdfe3,689ba19bc56de28df8ab860f,,,,,,,,,,,,,0,,,,,,,,,,,,,,,,,,,,,,,,,,,,,,,,,,,,,70,temblo,,,,,1176.1419,1177.2408,0,1,0.3173,,0,50,50,69,1,REAL,FAKE,,,,,,,,,,,,,,,,,
,,,,,,,,,6792eb57ba13059998fa6235,Mexican,13 or older,click here to respond,yes,2025-08-12_16h26.23.234,empathy_intonation_perc_control,2024.2.4,Win32,7.112375533,6792eb57ba13059998fa6235,68817205a84113384fffdfe3,689ba19bc56de28df8ab860f,,,,,,,,,,,,,1,,,,,,,,,,,,,,,,,,,,,,,,,,,,,,,,,,,,,67,cabello,,,,,1177.2414,1178.3247,0,0,0.3144,,0,51,51,66,1,REAL,FAKE,,,,,,,,,,,,,,,,,
,,,,,,,,,6792eb57ba13059998fa6235,Mexican,13 or older,click here to respond,yes,2025-08-12_16h26.23.234,empathy_intonation_perc_control,2024.2.4,Win32,7.112375533,6792eb57ba13059998fa6235,68817205a84113384fffdfe3,689ba19bc56de28df8ab860f,,,,,,,,,,,,,0,,,,,,,,,,,,,,,,,,,,,,,,,,,,,,,,,,,,,1,terzo,,,,,1178.3254,1179.2528,1,0,0.1601,,0,52,52,0,1,REAL,FAKE,,,,,,,,,,,,,,,,,
,,,,,,,,,6792eb57ba13059998fa6235,Mexican,13 or older,click here to respond,yes,2025-08-12_16h26.23.234,empathy_intonation_perc_control,2024.2.4,Win32,7.112375533,6792eb57ba13059998fa6235,68817205a84113384fffdfe3,689ba19bc56de28df8ab860f,,,,,,,,,,,,,1,,,,,,,,,,,,,,,,,,,,,,,,,,,,,,,,,,,,,9,hacha,,,,,1179.2533,1180.0311,0,0,0.0045,,0,53,53,8,1,REAL,FAKE,,,,,,,,,,,,,,,,,
,,,,,,,,,6792eb57ba13059998fa6235,Mexican,13 or older,click here to respond,yes,2025-08-12_16h26.23.234,empathy_intonation_perc_control,2024.2.4,Win32,7.112375533,6792eb57ba13059998fa6235,68817205a84113384fffdfe3,689ba19bc56de28df8ab860f,,,,,,,,,,,,,0,,,,,,,,,,,,,,,,,,,,,,,,,,,,,,,,,,,,,29,decar,,,,,1180.0316,1181.4271,1,0,0.6328,,0,54,54,28,1,REAL,FAKE,,,,,,,,,,,,,,,,,
,,,,,,,,,6792eb57ba13059998fa6235,Mexican,13 or older,click here to respond,yes,2025-08-12_16h26.23.234,empathy_intonation_perc_control,2024.2.4,Win32,7.112375533,6792eb57ba13059998fa6235,68817205a84113384fffdfe3,689ba19bc56de28df8ab860f,,,,,,,,,,,,,1,,,,,,,,,,,,,,,,,,,,,,,,,,,,,,,,,,,,,69,engatusar,,,,,1181.4277,1182.5136,0,0,0.3184,,0,55,55,68,1,REAL,FAKE,,,,,,,,,,,,,,,,,
,,,,,,,,,6792eb57ba13059998fa6235,Mexican,13 or older,click here to respond,yes,2025-08-12_16h26.23.234,empathy_intonation_perc_control,2024.2.4,Win32,7.112375533,6792eb57ba13059998fa6235,68817205a84113384fffdfe3,689ba19bc56de28df8ab860f,,,,,,,,,,,,,1,,,,,,,,,,,,,,,,,,,,,,,,,,,,,,,,,,,,,71,polvoriento,,,,,1182.5141,1183.5993,0,0,0.3285,,0,56,56,70,1,REAL,FAKE,,,,,,,,,,,,,,,,,
,,,,,,,,,6792eb57ba13059998fa6235,Mexican,13 or older,click here to respond,yes,2025-08-12_16h26.23.234,empathy_intonation_perc_control,2024.2.4,Win32,7.112375533,6792eb57ba13059998fa6235,68817205a84113384fffdfe3,689ba19bc56de28df8ab860f,,,,,,,,,,,,,1,,,,,,,,,,,,,,,,,,,,,,,,,,,,,,,,,,,,,3,pulmones,,,,,1183.5998,1184.8527,1,1,0.4744,0.0003,0,57,57,2,1,REAL,FAKE,,,,,,,,,,,,,,,,,
,,,,,,,,,6792eb57ba13059998fa6235,Mexican,13 or older,click here to respond,yes,2025-08-12_16h26.23.234,empathy_intonation_perc_control,2024.2.4,Win32,7.112375533,6792eb57ba13059998fa6235,68817205a84113384fffdfe3,689ba19bc56de28df8ab860f,,,,,,,,,,,,,0,,,,,,,,,,,,,,,,,,,,,,,,,,,,,,,,,,,,,87,grodo,,,,,1184.8534,1185.9505,0,1,0.3175,,0,58,58,86,1,REAL,FAKE,,,,,,,,,,,,,,,,,
,,,,,,,,,6792eb57ba13059998fa6235,Mexican,13 or older,click here to respond,yes,2025-08-12_16h26.23.234,empathy_intonation_perc_control,2024.2.4,Win32,7.112375533,6792eb57ba13059998fa6235,68817205a84113384fffdfe3,689ba19bc56de28df8ab860f,,,,,,,,,,,,,1,,,,,,,,,,,,,,,,,,,,,,,,,,,,,,,,,,,,,46,martillo,,,,,1185.9513,1187.0426,0,0,0.3203,,0,59,59,45,1,REAL,FAKE,,,,,,,,,,,,,,,,,
,,,,,,,,,6792eb57ba13059998fa6235,Mexican,13 or older,click here to respond,yes,2025-08-12_16h26.23.234,empathy_intonation_perc_control,2024.2.4,Win32,7.112375533,6792eb57ba13059998fa6235,68817205a84113384fffdfe3,689ba19bc56de28df8ab860f,,,,,,,,,,,,,0,,,,,,,,,,,,,,,,,,,,,,,,,,,,,,,,,,,,,53,vegada,,,,,1187.0433,1188.1395,0,1,0.3299,,0,60,60,52,1,REAL,FAKE,,,,,,,,,,,,,,,,,
,,,,,,,,,6792eb57ba13059998fa6235,Mexican,13 or older,click here to respond,yes,2025-08-12_16h26.23.234,empathy_intonation_perc_control,2024.2.4,Win32,7.112375533,6792eb57ba13059998fa6235,68817205a84113384fffdfe3,689ba19bc56de28df8ab860f,,,,,,,,,,,,,0,,,,,,,,,,,,,,,,,,,,,,,,,,,,,,,,,,,,,50,flamida,,,,,1188.1403,1189.4331,0,1,0.4943,,0,61,61,49,1,REAL,FAKE,,,,,,,,,,,,,,,,,
,,,,,,,,,6792eb57ba13059998fa6235,Mexican,13 or older,click here to respond,yes,2025-08-12_16h26.23.234,empathy_intonation_perc_control,2024.2.4,Win32,7.112375533,6792eb57ba13059998fa6235,68817205a84113384fffdfe3,689ba19bc56de28df8ab860f,,,,,,,,,,,,,0,,,,,,,,,,,,,,,,,,,,,,,,,,,,,,,,,,,,,32,fatacidad,,,,,1189.4338,1191.0178,0,1,0.8099,,0,62,62,31,1,REAL,FAKE,,,,,,,,,,,,,,,,,
,,,,,,,,,6792eb57ba13059998fa6235,Mexican,13 or older,click here to respond,yes,2025-08-12_16h26.23.234,empathy_intonation_perc_control,2024.2.4,Win32,7.112375533,6792eb57ba13059998fa6235,68817205a84113384fffdfe3,689ba19bc56de28df8ab860f,,,,,,,,,,,,,1,,,,,,,,,,,,,,,,,,,,,,,,,,,,,,,,,,,,,7,pésimo,,,,,1191.0184,1192.7532,1,1,0.9451,,0,63,63,6,1,REAL,FAKE,,,,,,,,,,,,,,,,,
,,,,,,,,,6792eb57ba13059998fa6235,Mexican,13 or older,click here to respond,yes,2025-08-12_16h26.23.234,empathy_intonation_perc_control,2024.2.4,Win32,7.112375533,6792eb57ba13059998fa6235,68817205a84113384fffdfe3,689ba19bc56de28df8ab860f,,,,,,,,,,,,,1,,,,,,,,,,,,,,,,,,,,,,,,,,,,,,,,,,,,,40,alfombra,,,,,1192.7538,1194.1529,1,1,0.6365,,0,64,64,39,1,REAL,FAKE,,,,,,,,,,,,,,,,,
,,,,,,,,,6792eb57ba13059998fa6235,Mexican,13 or older,click here to respond,yes,2025-08-12_16h26.23.234,empathy_intonation_perc_control,2024.2.4,Win32,7.112375533,6792eb57ba13059998fa6235,68817205a84113384fffdfe3,689ba19bc56de28df8ab860f,,,,,,,,,,,,,1,,,,,,,,,,,,,,,,,,,,,,,,,,,,,,,,,,,,,85,laúd,,,,,1194.1538,1195.7084,1,1,0.7899,0.0002,0,65,65,84,1,REAL,FAKE,,,,,,,,,,,,,,,,,
,,,,,,,,,6792eb57ba13059998fa6235,Mexican,13 or older,click here to respond,yes,2025-08-12_16h26.23.234,empathy_intonation_perc_control,2024.2.4,Win32,7.112375533,6792eb57ba13059998fa6235,68817205a84113384fffdfe3,689ba19bc56de28df8ab860f,,,,,,,,,,,,,1,,,,,,,,,,,,,,,,,,,,,,,,,,,,,,,,,,,,,75,yacer,,,,,1195.7091,1198.8232,0,0,2.3503,,0,66,66,74,1,REAL,FAKE,,,,,,,,,,,,,,,,,
,,,,,,,,,6792eb57ba13059998fa6235,Mexican,13 or older,click here to respond,yes,2025-08-12_16h26.23.234,empathy_intonation_perc_control,2024.2.4,Win32,7.112375533,6792eb57ba13059998fa6235,68817205a84113384fffdfe3,689ba19bc56de28df8ab860f,,,,,,,,,,,,,0,,,,,,,,,,,,,,,,,,,,,,,,,,,,,,,,,,,,,27,acutación,,,,,1198.8238,1200.0715,0,1,0.4803,,0,67,67,26,1,REAL,FAKE,,,,,,,,,,,,,,,,,
,,,,,,,,,6792eb57ba13059998fa6235,Mexican,13 or older,click here to respond,yes,2025-08-12_16h26.23.234,empathy_intonation_perc_control,2024.2.4,Win32,7.112375533,6792eb57ba13059998fa6235,68817205a84113384fffdfe3,689ba19bc56de28df8ab860f,,,,,,,,,,,,,0,,,,,,,,,,,,,,,,,,,,,,,,,,,,,,,,,,,,,23,lampera,,,,,1200.072,1201.1634,1,0,0.3243,,0,68,68,22,1,REAL,FAKE,,,,,,,,,,,,,,,,,
,,,,,,,,,6792eb57ba13059998fa6235,Mexican,13 or older,click here to respond,yes,2025-08-12_16h26.23.234,empathy_intonation_perc_control,2024.2.4,Win32,7.112375533,6792eb57ba13059998fa6235,68817205a84113384fffdfe3,689ba19bc56de28df8ab860f,,,,,,,,,,,,,1,,,,,,,,,,,,,,,,,,,,,,,,,,,,,,,,,,,,,37,granuja,,,,,1201.1639,1202.2482,1,1,0.3141,,0,69,69,36,1,REAL,FAKE,,,,,,,,,,,,,,,,,
,,,,,,,,,6792eb57ba13059998fa6235,Mexican,13 or older,click here to respond,yes,2025-08-12_16h26.23.234,empathy_intonation_perc_control,2024.2.4,Win32,7.112375533,6792eb57ba13059998fa6235,68817205a84113384fffdfe3,689ba19bc56de28df8ab860f,,,,,,,,,,,,,1,,,,,,,,,,,,,,,,,,,,,,,,,,,,,,,,,,,,,28,merodear,,,,,1202.2487,1203.3436,0,0,0.3157,,0,70,70,27,1,REAL,FAKE,,,,,,,,,,,,,,,,,
,,,,,,,,,6792eb57ba13059998fa6235,Mexican,13 or older,click here to respond,yes,2025-08-12_16h26.23.234,empathy_intonation_perc_control,2024.2.4,Win32,7.112375533,6792eb57ba13059998fa6235,68817205a84113384fffdfe3,689ba19bc56de28df8ab860f,,,,,,,,,,,,,1,,,,,,,,,,,,,,,,,,,,,,,,,,,,,,,,,,,,,20,ávido,,,,,1203.3441,1205.2244,0,0,1.1117,0.0004,0,71,71,19,1,REAL,FAKE,,,,,,,,,,,,,,,,,
,,,,,,,,,6792eb57ba13059998fa6235,Mexican,13 or older,click here to respond,yes,2025-08-12_16h26.23.234,empathy_intonation_perc_control,2024.2.4,Win32,7.112375533,6792eb57ba13059998fa6235,68817205a84113384fffdfe3,689ba19bc56de28df8ab860f,,,,,,,,,,,,,1,,,,,,,,,,,,,,,,,,,,,,,,,,,,,,,,,,,,,80,hormiga,,,,,1205.2252,1206.7986,1,1,0.8013,,0,72,72,79,1,REAL,FAKE,,,,,,,,,,,,,,,,,
,,,,,,,,,6792eb57ba13059998fa6235,Mexican,13 or older,click here to respond,yes,2025-08-12_16h26.23.234,empathy_intonation_perc_control,2024.2.4,Win32,7.112375533,6792eb57ba13059998fa6235,68817205a84113384fffdfe3,689ba19bc56de28df8ab860f,,,,,,,,,,,,,1,,,,,,,,,,,,,,,,,,,,,,,,,,,,,,,,,,,,,45,jilguero,,,,,1206.7993,1208.3491,1,1,0.778,,0,73,73,44,1,REAL,FAKE,,,,,,,,,,,,,,,,,
,,,,,,,,,6792eb57ba13059998fa6235,Mexican,13 or older,click here to respond,yes,2025-08-12_16h26.23.234,empathy_intonation_perc_control,2024.2.4,Win32,7.112375533,6792eb57ba13059998fa6235,68817205a84113384fffdfe3,689ba19bc56de28df8ab860f,,,,,,,,,,,,,0,,,,,,,,,,,,,,,,,,,,,,,,,,,,,,,,,,,,,35,rompido,,,,,1208.3498,1209.5992,0,1,0.4818,0.0003,0,74,74,34,1,REAL,FAKE,,,,,,,,,,,,,,,,,
,,,,,,,,,6792eb57ba13059998fa6235,Mexican,13 or older,click here to respond,yes,2025-08-12_16h26.23.234,empathy_intonation_perc_control,2024.2.4,Win32,7.112375533,6792eb57ba13059998fa6235,68817205a84113384fffdfe3,689ba19bc56de28df8ab860f,,,,,,,,,,,,,0,,,,,,,,,,,,,,,,,,,,,,,,,,,,,,,,,,,,,58,plaudir,,,,,1209.5999,1210.3832,1,0,0.005,,0,75,75,57,1,REAL,FAKE,,,,,,,,,,,,,,,,,
,,,,,,,,,6792eb57ba13059998fa6235,Mexican,13 or older,click here to respond,yes,2025-08-12_16h26.23.234,empathy_intonation_perc_control,2024.2.4,Win32,7.112375533,6792eb57ba13059998fa6235,68817205a84113384fffdfe3,689ba19bc56de28df8ab860f,,,,,,,,,,,,,1,,,,,,,,,,,,,,,,,,,,,,,,,,,,,,,,,,,,,38,estornudar,,,,,1210.384,1211.3206,1,1,0.1774,,0,76,76,37,1,REAL,FAKE,,,,,,,,,,,,,,,,,
,,,,,,,,,6792eb57ba13059998fa6235,Mexican,13 or older,click here to respond,yes,2025-08-12_16h26.23.234,empathy_intonation_perc_control,2024.2.4,Win32,7.112375533,6792eb57ba13059998fa6235,68817205a84113384fffdfe3,689ba19bc56de28df8ab860f,,,,,,,,,,,,,0,,,,,,,,,,,,,,,,,,,,,,,,,,,,,,,,,,,,,92,click the 0 key.,,,,,1211.3214,1212.4111,0,1,0.3218,0.0002,0,77,77,91,1,REAL,FAKE,,,,,,,,,,,,,,,,,
,,,,,,,,,6792eb57ba13059998fa6235,Mexican,13 or older,click here to respond,yes,2025-08-12_16h26.23.234,empathy_intonation_perc_control,2024.2.4,Win32,7.112375533,6792eb57ba13059998fa6235,68817205a84113384fffdfe3,689ba19bc56de28df8ab860f,,,,,,,,,,,,,1,,,,,,,,,,,,,,,,,,,,,,,,,,,,,,,,,,,,,39,torpe,,,,,1212.4118,1214.3168,0,0,1.1368,,0,78,78,38,1,REAL,FAKE,,,,,,,,,,,,,,,,,
,,,,,,,,,6792eb57ba13059998fa6235,Mexican,13 or older,click here to respond,yes,2025-08-12_16h26.23.234,empathy_intonation_perc_control,2024.2.4,Win32,7.112375533,6792eb57ba13059998fa6235,68817205a84113384fffdfe3,689ba19bc56de28df8ab860f,,,,,,,,,,,,,1,,,,,,,,,,,,,,,,,,,,,,,,,,,,,,,,,,,,,34,aviso,,,,,1214.3175,1215.5769,1,1,0.4824,,0,79,79,33,1,REAL,FAKE,,,,,,,,,,,,,,,,,
,,,,,,,,,6792eb57ba13059998fa6235,Mexican,13 or older,click here to respond,yes,2025-08-12_16h26.23.234,empathy_intonation_perc_control,2024.2.4,Win32,7.112375533,6792eb57ba13059998fa6235,68817205a84113384fffdfe3,689ba19bc56de28df8ab860f,,,,,,,,,,,,,1,,,,,,,,,,,,,,,,,,,,,,,,,,,,,,,,,,,,,25,bisagra,,,,,1215.5777,1216.8316,1,1,0.4838,,0,80,80,24,1,REAL,FAKE,,,,,,,,,,,,,,,,,
,,,,,,,,,6792eb57ba13059998fa6235,Mexican,13 or older,click here to respond,yes,2025-08-12_16h26.23.234,empathy_intonation_perc_control,2024.2.4,Win32,7.112375533,6792eb57ba13059998fa6235,68817205a84113384fffdfe3,689ba19bc56de28df8ab860f,,,,,,,,,,,,,1,,,,,,,,,,,,,,,,,,,,,,,,,,,,,,,,,,,,,2,pellizcar,,,,,1216.8323,1218.2357,1,1,0.6302,,0,81,81,1,1,REAL,FAKE,,,,,,,,,,,,,,,,,
,,,,,,,,,6792eb57ba13059998fa6235,Mexican,13 or older,click here to respond,yes,2025-08-12_16h26.23.234,empathy_intonation_perc_control,2024.2.4,Win32,7.112375533,6792eb57ba13059998fa6235,68817205a84113384fffdfe3,689ba19bc56de28df8ab860f,,,,,,,,,,,,,1,,,,,,,,,,,,,,,,,,,,,,,,,,,,,,,,,,,,,31,pandilla,,,,,1218.2364,1220.1189,0,0,1.1162,,0,82,82,30,1,REAL,FAKE,,,,,,,,,,,,,,,,,
,,,,,,,,,6792eb57ba13059998fa6235,Mexican,13 or older,click here to respond,yes,2025-08-12_16h26.23.234,empathy_intonation_perc_control,2024.2.4,Win32,7.112375533,6792eb57ba13059998fa6235,68817205a84113384fffdfe3,689ba19bc56de28df8ab860f,,,,,,,,,,,,,0,,,,,,,,,,,,,,,,,,,,,,,,,,,,,,,,,,,,,21,capillo,,,,,1220.1197,1221.6648,0,1,0.7804,,0,83,83,20,1,REAL,FAKE,,,,,,,,,,,,,,,,,
,,,,,,,,,6792eb57ba13059998fa6235,Mexican,13 or older,click here to respond,yes,2025-08-12_16h26.23.234,empathy_intonation_perc_control,2024.2.4,Win32,7.112375533,6792eb57ba13059998fa6235,68817205a84113384fffdfe3,689ba19bc56de28df8ab860f,,,,,,,,,,,,,1,,,,,,,,,,,,,,,,,,,,,,,,,,,,,,,,,,,,,48,ladrón,,,,,1221.6654,1223.0656,1,1,0.6245,,0,84,84,47,1,REAL,FAKE,,,,,,,,,,,,,,,,,
,,,,,,,,,6792eb57ba13059998fa6235,Mexican,13 or older,click here to respond,yes,2025-08-12_16h26.23.234,empathy_intonation_perc_control,2024.2.4,Win32,7.112375533,6792eb57ba13059998fa6235,68817205a84113384fffdfe3,689ba19bc56de28df8ab860f,,,,,,,,,,,,,1,,,,,,,,,,,,,,,,,,,,,,,,,,,,,,,,,,,,,60,matar,,,,,1223.0661,1224.6055,0,0,0.777,,0,85,85,59,1,REAL,FAKE,,,,,,,,,,,,,,,,,
,,,,,,,,,6792eb57ba13059998fa6235,Mexican,13 or older,click here to respond,yes,2025-08-12_16h26.23.234,empathy_intonation_perc_control,2024.2.4,Win32,7.112375533,6792eb57ba13059998fa6235,68817205a84113384fffdfe3,689ba19bc56de28df8ab860f,,,,,,,,,,,,,1,,,,,,,,,,,,,,,,,,,,,,,,,,,,,,,,,,,,,22,lacayo,,,,,1224.6061,1225.8459,1,1,0.4694,,0,86,86,21,1,REAL,FAKE,,,,,,,,,,,,,,,,,
,,,,,,,,,6792eb57ba13059998fa6235,Mexican,13 or older,click here to respond,yes,2025-08-12_16h26.23.234,empathy_intonation_perc_control,2024.2.4,Win32,7.112375533,6792eb57ba13059998fa6235,68817205a84113384fffdfe3,689ba19bc56de28df8ab860f,,,,,,,,,,,,,0,,,,,,,,,,,,,,,,,,,,,,,,,,,,,,,,,,,,,17,floroso,,,,,1225.8464,1227.7266,0,1,1.112,,0,87,87,16,1,REAL,FAKE,,,,,,,,,,,,,,,,,
,,,,,,,,,6792eb57ba13059998fa6235,Mexican,13 or older,click here to respond,yes,2025-08-12_16h26.23.234,empathy_intonation_perc_control,2024.2.4,Win32,7.112375533,6792eb57ba13059998fa6235,68817205a84113384fffdfe3,689ba19bc56de28df8ab860f,,,,,,,,,,,,,1,,,,,,,,,,,,,,,,,,,,,,,,,,,,,,,,,,,,,36,loro,,,,,1227.7273,1229.125,1,1,0.6336,,0,88,88,35,1,REAL,FAKE,,,,,,,,,,,,,,,,,
,,,,,,,,,6792eb57ba13059998fa6235,Mexican,13 or older,click here to respond,yes,2025-08-12_16h26.23.234,empathy_intonation_perc_control,2024.2.4,Win32,7.112375533,6792eb57ba13059998fa6235,68817205a84113384fffdfe3,689ba19bc56de28df8ab860f,,,,,,,,,,,,,1,,,,,,,,,,,,,,,,,,,,,,,,,,,,,,,,,,,,,65,bizcocho,,,,,1229.1255,1231.0078,0,0,1.1164,,0,89,89,64,1,REAL,FAKE,,,,,,,,,,,,,,,,,
,,,,,,,,,6792eb57ba13059998fa6235,Mexican,13 or older,click here to respond,yes,2025-08-12_16h26.23.234,empathy_intonation_perc_control,2024.2.4,Win32,7.112375533,6792eb57ba13059998fa6235,68817205a84113384fffdfe3,689ba19bc56de28df8ab860f,,,,,,,,,,,,,0,,,,,,,,,,,,,,,,,,,,,,,,,,,,,,,,,,,,,16,abracer,,,,,1231.0082,1232.5639,1,0,0.7916,,0,90,90,15,1,REAL,FAKE,,,,,,,,,,,,,,,,,
,,,,,,,,,6792eb57ba13059998fa6235,Mexican,13 or older,click here to respond,yes,2025-08-12_16h26.23.234,empathy_intonation_perc_control,2024.2.4,Win32,7.112375533,6792eb57ba13059998fa6235,68817205a84113384fffdfe3,689ba19bc56de28df8ab860f,,,,,,,,,,,,,1,,,,,,,,,,,,,,,,,,,,,,,,,,,,,,,,,,,,,13,helar,,,,,1232.5644,1234.9058,1,1,1.5778,,0,91,91,12,1,REAL,FAKE,,,,,,,,,,,,,,,,,
,,,,,,,,,6792eb57ba13059998fa6235,Mexican,13 or older,click here to respond,yes,2025-08-12_16h26.23.234,empathy_intonation_perc_control,2024.2.4,Win32,7.112375533,6792eb57ba13059998fa6235,68817205a84113384fffdfe3,689ba19bc56de28df8ab860f,,,,,,,,,,,,,,,,,,,,,,,,,,,,,,,,,,,,,,,,,,,,,,,,,,,,,,,,,,,,,,,,,,,,,1234.9062,1244.8856,,,,,,,,,,,,,,,
,,,,,,,,,6792eb57ba13059998fa6235,Mexican,13 or older,click here to respond,yes,2025-08-12_16h26.23.234,empathy_intonation_perc_control,2024.2.4,Win32,7.112375533,6792eb57ba13059998fa6235,68817205a84113384fffdfe3,689ba19bc56de28df8ab860f,,,,,,,,,,,,,,,,,,,,,,,,,,,1,,,,,,,,,,,,,,,,,,,,,,,,,,,,,,,,,,,,,,,,,,,,1244.8945,1248.3776,strongly agree,0,0,0,0,1,I can easily tell if someone else wants to enter a conversation.,1,0,1,0,,
,,,,,,,,,6792eb57ba13059998fa6235,Mexican,13 or older,click here to respond,yes,2025-08-12_16h26.23.234,empathy_intonation_perc_control,2024.2.4,Win32,7.112375533,6792eb57ba13059998fa6235,68817205a84113384fffdfe3,689ba19bc56de28df8ab860f,,,,,,,,,,,,,,,,,,,,,,,,,,,2,,,,,,,,,,,,,,,,,,,,,,,,,,,,,,,,,,,,,,,,,,,,1248.379,1260.3678,slightly agree,0,1,1,1,1,I prefer animals to humans.,0,1,0,0,,
,,,,,,,,,6792eb57ba13059998fa6235,Mexican,13 or older,click here to respond,yes,2025-08-12_16h26.23.234,empathy_intonation_perc_control,2024.2.4,Win32,7.112375533,6792eb57ba13059998fa6235,68817205a84113384fffdfe3,689ba19bc56de28df8ab860f,,,,,,,,,,,,,,,,,,,,,,,,,,,3,,,,,,,,,,,,,,,,,,,,,,,,,,,,,,,,,,,,,,,,,,,,1260.3691,1263.4753,strongly agree,0,2,2,2,1,I try to keep up with the current trends and fashions.,0,1,0,0,,
,,,,,,,,,6792eb57ba13059998fa6235,Mexican,13 or older,click here to respond,yes,2025-08-12_16h26.23.234,empathy_intonation_perc_control,2024.2.4,Win32,7.112375533,6792eb57ba13059998fa6235,68817205a84113384fffdfe3,689ba19bc56de28df8ab860f,,,,,,,,,,,,,,,,,,,,,,,,,,,4,,,,,,,,,,,,,,,,,,,,,,,,,,,,,,,,,,,,,,,,,,,,1263.477,1275.6193,slightly disagree,0,3,3,3,1,"I find it difficult to explain to others things that I understand easily,   when they don't understand it first time.",1,0,0,1,,
,,,,,,,,,6792eb57ba13059998fa6235,Mexican,13 or older,click here to respond,yes,2025-08-12_16h26.23.234,empathy_intonation_perc_control,2024.2.4,Win32,7.112375533,6792eb57ba13059998fa6235,68817205a84113384fffdfe3,689ba19bc56de28df8ab860f,,,,,,,,,,,,,,,,,,,,,,,,,,,5,,,,,,,,,,,,,,,,,,,,,,,,,,,,,,,,,,,,,,,,,,,,1275.6201,1279.1224,strongly agree,0,4,4,4,1,I dream most nights.,0,1,0,0,,
,,,,,,,,,6792eb57ba13059998fa6235,Mexican,13 or older,click here to respond,yes,2025-08-12_16h26.23.234,empathy_intonation_perc_control,2024.2.4,Win32,7.112375533,6792eb57ba13059998fa6235,68817205a84113384fffdfe3,689ba19bc56de28df8ab860f,,,,,,,,,,,,,,,,,,,,,,,,,,,6,,,,,,,,,,,,,,,,,,,,,,,,,,,,,,,,,,,,,,,,,,,,1279.1235,1280.7313,strongly agree,0,5,5,5,1,I really enjoy caring for other people.,1,0,1,0,,
,,,,,,,,,6792eb57ba13059998fa6235,Mexican,13 or older,click here to respond,yes,2025-08-12_16h26.23.234,empathy_intonation_perc_control,2024.2.4,Win32,7.112375533,6792eb57ba13059998fa6235,68817205a84113384fffdfe3,689ba19bc56de28df8ab860f,,,,,,,,,,,,,,,,,,,,,,,,,,,7,,,,,,,,,,,,,,,,,,,,,,,,,,,,,,,,,,,,,,,,,,,,1280.7327,1283.8661,strongly agree,0,6,6,6,1,I try to solve my own problems rather than discussing them with others.,0,1,0,0,,
,,,,,,,,,6792eb57ba13059998fa6235,Mexican,13 or older,click here to respond,yes,2025-08-12_16h26.23.234,empathy_intonation_perc_control,2024.2.4,Win32,7.112375533,6792eb57ba13059998fa6235,68817205a84113384fffdfe3,689ba19bc56de28df8ab860f,,,,,,,,,,,,,,,,,,,,,,,,,,,8,,,,,,,,,,,,,,,,,,,,,,,,,,,,,,,,,,,,,,,,,,,,1283.867,1286.1646,slightly agree,0,7,7,7,1,I find it hard to know what to do in a social situation.,1,0,0,1,,
,,,,,,,,,6792eb57ba13059998fa6235,Mexican,13 or older,click here to respond,yes,2025-08-12_16h26.23.234,empathy_intonation_perc_control,2024.2.4,Win32,7.112375533,6792eb57ba13059998fa6235,68817205a84113384fffdfe3,689ba19bc56de28df8ab860f,,,,,,,,,,,,,,,,,,,,,,,,,,,9,,,,,,,,,,,,,,,,,,,,,,,,,,,,,,,,,,,,,,,,,,,,1286.1658,1294.1871,slightly agree,0,8,8,8,1,I am at my best first thing in the morning.,0,1,0,0,,
,,,,,,,,,6792eb57ba13059998fa6235,Mexican,13 or older,click here to respond,yes,2025-08-12_16h26.23.234,empathy_intonation_perc_control,2024.2.4,Win32,7.112375533,6792eb57ba13059998fa6235,68817205a84113384fffdfe3,689ba19bc56de28df8ab860f,,,,,,,,,,,,,,,,,,,,,,,,,,,10,,,,,,,,,,,,,,,,,,,,,,,,,,,,,,,,,,,,,,,,,,,,1294.1884,1296.9102,strongly agree,0,9,9,9,1,People often tell me that I went too far in driving my point home in a discussion.,1,0,0,1,,
,,,,,,,,,6792eb57ba13059998fa6235,Mexican,13 or older,click here to respond,yes,2025-08-12_16h26.23.234,empathy_intonation_perc_control,2024.2.4,Win32,7.112375533,6792eb57ba13059998fa6235,68817205a84113384fffdfe3,689ba19bc56de28df8ab860f,,,,,,,,,,,,,,,,,,,,,,,,,,,11,,,,,,,,,,,,,,,,,,,,,,,,,,,,,,,,,,,,,,,,,,,,1296.9114,1310.5941,slightly agree,0,10,10,10,1,It doesn't bother me too much if I am late meeting a friend.,1,0,0,1,,
,,,,,,,,,6792eb57ba13059998fa6235,Mexican,13 or older,click here to respond,yes,2025-08-12_16h26.23.234,empathy_intonation_perc_control,2024.2.4,Win32,7.112375533,6792eb57ba13059998fa6235,68817205a84113384fffdfe3,689ba19bc56de28df8ab860f,,,,,,,,,,,,,,,,,,,,,,,,,,,12,,,,,,,,,,,,,,,,,,,,,,,,,,,,,,,,,,,,,,,,,,,,1310.5955,1312.2876,slightly agree,0,11,11,11,1,"Friendships and relationships are just too difficult, so I tend not to 
  bother with them.",1,0,0,1,,
,,,,,,,,,6792eb57ba13059998fa6235,Mexican,13 or older,click here to respond,yes,2025-08-12_16h26.23.234,empathy_intonation_perc_control,2024.2.4,Win32,7.112375533,6792eb57ba13059998fa6235,68817205a84113384fffdfe3,689ba19bc56de28df8ab860f,,,,,,,,,,,,,,,,,,,,,,,,,,,13,,,,,,,,,,,,,,,,,,,,,,,,,,,,,,,,,,,,,,,,,,,,1312.2884,1316.3871,slightly disagree,0,12,12,12,1,"I would never break a law, no matter how minor.",0,1,0,0,,
,,,,,,,,,6792eb57ba13059998fa6235,Mexican,13 or older,click here to respond,yes,2025-08-12_16h26.23.234,empathy_intonation_perc_control,2024.2.4,Win32,7.112375533,6792eb57ba13059998fa6235,68817205a84113384fffdfe3,689ba19bc56de28df8ab860f,,,,,,,,,,,,,,,,,,,,,,,,,,,14,,,,,,,,,,,,,,,,,,,,,,,,,,,,,,,,,,,,,,,,,,,,1316.3881,1324.0017,strongly disagree,0,13,13,13,1,I often find it difficult to judge if something is rude or polite.,1,0,0,1,,
,,,,,,,,,6792eb57ba13059998fa6235,Mexican,13 or older,click here to respond,yes,2025-08-12_16h26.23.234,empathy_intonation_perc_control,2024.2.4,Win32,7.112375533,6792eb57ba13059998fa6235,68817205a84113384fffdfe3,689ba19bc56de28df8ab860f,,,,,,,,,,,,,,,,,,,,,,,,,,,15,,,,,,,,,,,,,,,,,,,,,,,,,,,,,,,,,,,,,,,,,,,,1324.0027,1331.2609,strongly agree,0,14,14,14,1,"In a conversation, I tend to focus on my own thoughts rather than on what 
  my listener might be thinking.",1,0,0,1,,
,,,,,,,,,6792eb57ba13059998fa6235,Mexican,13 or older,click here to respond,yes,2025-08-12_16h26.23.234,empathy_intonation_perc_control,2024.2.4,Win32,7.112375533,6792eb57ba13059998fa6235,68817205a84113384fffdfe3,689ba19bc56de28df8ab860f,,,,,,,,,,,,,,,,,,,,,,,,,,,16,,,,,,,,,,,,,,,,,,,,,,,,,,,,,,,,,,,,,,,,,,,,1331.2617,1355.4963,slightly agree,0,15,15,15,1,I prefer practical jokes to verbal humor.,0,1,0,0,,
,,,,,,,,,6792eb57ba13059998fa6235,Mexican,13 or older,click here to respond,yes,2025-08-12_16h26.23.234,empathy_intonation_perc_control,2024.2.4,Win32,7.112375533,6792eb57ba13059998fa6235,68817205a84113384fffdfe3,689ba19bc56de28df8ab860f,,,,,,,,,,,,,,,,,,,,,,,,,,,17,,,,,,,,,,,,,,,,,,,,,,,,,,,,,,,,,,,,,,,,,,,,1355.4972,1365.0389,slightly disagree,0,16,16,16,1,I live life for today rather than the future.,0,1,0,0,,
,,,,,,,,,6792eb57ba13059998fa6235,Mexican,13 or older,click here to respond,yes,2025-08-12_16h26.23.234,empathy_intonation_perc_control,2024.2.4,Win32,7.112375533,6792eb57ba13059998fa6235,68817205a84113384fffdfe3,689ba19bc56de28df8ab860f,,,,,,,,,,,,,,,,,,,,,,,,,,,18,,,,,,,,,,,,,,,,,,,,,,,,,,,,,,,,,,,,,,,,,,,,1365.0402,1369.9752,slightly agree,0,17,17,17,1,"When I was a child, I enjoyed cutting up worms to see what would happen.",1,0,0,1,,
,,,,,,,,,6792eb57ba13059998fa6235,Mexican,13 or older,click here to respond,yes,2025-08-12_16h26.23.234,empathy_intonation_perc_control,2024.2.4,Win32,7.112375533,6792eb57ba13059998fa6235,68817205a84113384fffdfe3,689ba19bc56de28df8ab860f,,,,,,,,,,,,,,,,,,,,,,,,,,,19,,,,,,,,,,,,,,,,,,,,,,,,,,,,,,,,,,,,,,,,,,,,1369.9761,1380.0112,strongly disagree,0,18,18,18,1,I can pick up quickly if someone says one thing but means another.,1,0,1,0,,
,,,,,,,,,6792eb57ba13059998fa6235,Mexican,13 or older,click here to respond,yes,2025-08-12_16h26.23.234,empathy_intonation_perc_control,2024.2.4,Win32,7.112375533,6792eb57ba13059998fa6235,68817205a84113384fffdfe3,689ba19bc56de28df8ab860f,,,,,,,,,,,,,,,,,,,,,,,,,,,20,,,,,,,,,,,,,,,,,,,,,,,,,,,,,,,,,,,,,,,,,,,,1380.012,1380.5159,strongly disagree,0,19,19,19,1,I tend to have very strong opinions about morality.,0,1,0,0,,
,,,,,,,,,6792eb57ba13059998fa6235,Mexican,13 or older,click here to respond,yes,2025-08-12_16h26.23.234,empathy_intonation_perc_control,2024.2.4,Win32,7.112375533,6792eb57ba13059998fa6235,68817205a84113384fffdfe3,689ba19bc56de28df8ab860f,,,,,,,,,,,,,,,,,,,,,,,,,,,21,,,,,,,,,,,,,,,,,,,,,,,,,,,,,,,,,,,,,,,,,,,,1380.517,1384.8251,slightly agree,0,20,20,20,1,It is hard for me to see why some things upset people so much.,1,0,0,1,,
,,,,,,,,,6792eb57ba13059998fa6235,Mexican,13 or older,click here to respond,yes,2025-08-12_16h26.23.234,empathy_intonation_perc_control,2024.2.4,Win32,7.112375533,6792eb57ba13059998fa6235,68817205a84113384fffdfe3,689ba19bc56de28df8ab860f,,,,,,,,,,,,,,,,,,,,,,,,,,,22,,,,,,,,,,,,,,,,,,,,,,,,,,,,,,,,,,,,,,,,,,,,1384.8262,1388.75,strongly agree,0,21,21,21,1,I find it easy to put myself in somebody else's shoes.,1,0,1,0,,
,,,,,,,,,6792eb57ba13059998fa6235,Mexican,13 or older,click here to respond,yes,2025-08-12_16h26.23.234,empathy_intonation_perc_control,2024.2.4,Win32,7.112375533,6792eb57ba13059998fa6235,68817205a84113384fffdfe3,689ba19bc56de28df8ab860f,,,,,,,,,,,,,,,,,,,,,,,,,,,23,,,,,,,,,,,,,,,,,,,,,,,,,,,,,,,,,,,,,,,,,,,,1388.7511,1390.5818,strongly agree,0,22,22,22,1,I think that good manners are the most important thing a parent can teach their child.,0,1,0,0,,
,,,,,,,,,6792eb57ba13059998fa6235,Mexican,13 or older,click here to respond,yes,2025-08-12_16h26.23.234,empathy_intonation_perc_control,2024.2.4,Win32,7.112375533,6792eb57ba13059998fa6235,68817205a84113384fffdfe3,689ba19bc56de28df8ab860f,,,,,,,,,,,,,,,,,,,,,,,,,,,24,,,,,,,,,,,,,,,,,,,,,,,,,,,,,,,,,,,,,,,,,,,,1390.5826,1392.5395,strongly agree,0,23,23,23,1,I like to do things on the spur of the moment.,0,1,0,0,,
,,,,,,,,,6792eb57ba13059998fa6235,Mexican,13 or older,click here to respond,yes,2025-08-12_16h26.23.234,empathy_intonation_perc_control,2024.2.4,Win32,7.112375533,6792eb57ba13059998fa6235,68817205a84113384fffdfe3,689ba19bc56de28df8ab860f,,,,,,,,,,,,,,,,,,,,,,,,,,,25,,,,,,,,,,,,,,,,,,,,,,,,,,,,,,,,,,,,,,,,,,,,1392.5403,1394.5522,slightly agree,0,24,24,24,1,I am good at predicting how someone will feel.,1,0,1,0,,
,,,,,,,,,6792eb57ba13059998fa6235,Mexican,13 or older,click here to respond,yes,2025-08-12_16h26.23.234,empathy_intonation_perc_control,2024.2.4,Win32,7.112375533,6792eb57ba13059998fa6235,68817205a84113384fffdfe3,689ba19bc56de28df8ab860f,,,,,,,,,,,,,,,,,,,,,,,,,,,26,,,,,,,,,,,,,,,,,,,,,,,,,,,,,,,,,,,,,,,,,,,,1394.5534,1402.1195,strongly agree,0,25,25,25,1,I am quick to spot when someone in a group is feeling awkward or uncomfortable.,1,0,1,0,,
,,,,,,,,,6792eb57ba13059998fa6235,Mexican,13 or older,click here to respond,yes,2025-08-12_16h26.23.234,empathy_intonation_perc_control,2024.2.4,Win32,7.112375533,6792eb57ba13059998fa6235,68817205a84113384fffdfe3,689ba19bc56de28df8ab860f,,,,,,,,,,,,,,,,,,,,,,,,,,,27,,,,,,,,,,,,,,,,,,,,,,,,,,,,,,,,,,,,,,,,,,,,1402.1205,1407.7989,strongly disagree,0,26,26,26,1,"If I say something that someone else is offended by, I think that that's their problem, not mine.",1,0,0,1,,
