instructions_2afc.started,instructions_2afc.stopped,instructions_2afc_loop.thisRepN,instructions_2afc_loop.thisTrialN,instructions_2afc_loop.thisN,instructions_2afc_loop.thisIndex,instructions_2afc_loop.ran,instructions_text,continue_text,participant_id,"What variety of Spanish are you most familiar with? (e.g., Peruvian, Spanish, Mexican)",At what age did you begin learning Spanish?,Are you proficient in any languages other than English/Spanish?,"Are you familiar with Caribbean (e.g., Caribbean, Puerto Rican) or Galician Spanish?",date,expName,psychopyVersion,OS,frameRate,id,study_id,session,practice_2afc.started,practice_2afc.stopped,key_resp_2afc_practice.keys,key_resp_2afc_practice.corr,key_resp_2afc_practice.rt,key_resp_2afc_practice.duration,trials_2afc_practice_loop.thisRepN,trials_2afc_practice_loop.thisTrialN,trials_2afc_practice_loop.thisN,trials_2afc_practice_loop.thisIndex,trials_2afc_practice_loop.ran,path,correct_response,check_2afc.started,check_2afc.stopped,trial_2afc.started,trial_2afc.stopped,key_resp_2afc_trial.keys,key_resp_2afc_trial.corr,key_resp_2afc_trial.rt,key_resp_2afc_trial.duration,trials_2afc_loop.thisRepN,trials_2afc_loop.thisTrialN,trials_2afc_loop.thisN,trials_2afc_loop.thisIndex,trials_2afc_loop.ran,item_num,target,variety,instructions_lextale.started,instructions_lextale.stopped,instructions_lextale_loop.thisRepN,instructions_lextale_loop.thisTrialN,instructions_lextale_loop.thisN,instructions_lextale_loop.thisIndex,instructions_lextale_loop.ran,practice_lextale.started,practice_lextale.stopped,key_resp_lextale_practice.keys,key_resp_lextale_practice.corr,key_resp_lextale_practice.rt,key_resp_lextale_practice.duration,practice_feedback_lextale.started,practice_feedback_lextale.stopped,trials_lextale_practice_loop.thisRepN,trials_lextale_practice_loop.thisTrialN,trials_lextale_practice_loop.thisN,trials_lextale_practice_loop.thisIndex,trials_lextale_practice_loop.ran,stim,word,prac_button_real,prac_button_false,check_lextale.started,check_lextale.stopped,trial_lextale.started,trial_lextale.stopped,key_resp_lextale_trial.keys,key_resp_lextale_trial.corr,key_resp_lextale_trial.rt,key_resp_lextale_trial.duration,trials_lextale_loop.thisRepN,trials_lextale_loop.thisTrialN,trials_lextale_loop.thisN,trials_lextale_loop.thisIndex,trials_lextale_loop.ran,button_real,button_false,instructions_eq.started,instructions_eq.stopped,trial_eq.started,trial_eq.stopped,slider_eq_trial.response,trials_eq_loop.thisRepN,trials_eq_loop.thisTrialN,trials_eq_loop.thisN,trials_eq_loop.thisIndex,trials_eq_loop.ran,item,is_test_item,is_distractor,is_agree_score,is_disagree_score,end_exp.started,end_exp.stopped
0.0351,5.924,0,0,0,0,1,"In the following task you are going to hear a series of utterances. 

  You will decide if the utterances sound like questions or not using your keyboard.", (press the spacebar to continue),67924313eb24f3a077d26376,none,13 or older,"no, only English or Spanish",no,2025-08-13_17h54.55.404,empathy_intonation_perc_control,2024.2.4,Linux x86_64,60.24096386,67924313eb24f3a077d26376,68817205a84113384fffdfe3,689d09845b179513d6515248,,,,,,,,,,,,,,,,,,,,,,,,,,,,,,,,,,,,,,,,,,,,,,,,,,,,,,,,,,,,,,,,,,,,,,,,,,,,,,,,,,,,,
5.9269,16.1306,0,1,1,1,1,"If you believe the utterance is a question, type '1' (for 'yes') and if you do not 
  believe it is a question type '0' (for 'no').

  Let's practice a bit...", (press the spacebar to continue),67924313eb24f3a077d26376,none,13 or older,"no, only English or Spanish",no,2025-08-13_17h54.55.404,empathy_intonation_perc_control,2024.2.4,Linux x86_64,60.24096386,67924313eb24f3a077d26376,68817205a84113384fffdfe3,689d09845b179513d6515248,,,,,,,,,,,,,,,,,,,,,,,,,,,,,,,,,,,,,,,,,,,,,,,,,,,,,,,,,,,,,,,,,,,,,,,,,,,,,,,,,,,,,
,,,,,,,,,67924313eb24f3a077d26376,none,13 or older,"no, only English or Spanish",no,2025-08-13_17h54.55.404,empathy_intonation_perc_control,2024.2.4,Linux x86_64,60.24096386,67924313eb24f3a077d26376,68817205a84113384fffdfe3,689d09845b179513d6515248,16.1478,19.262,1,1,2.5969,,0,0,0,2,1,./stim/wavs/chilean_question_filler_Mi-padre-cantaba-bien.wav,1,,,,,,,,,,,,,,,,,,,,,,,,,,,,,,,,,,,,,,,,,,,,,,,,,,,,,,,,,,,,,,,,,,,,,,,,
,,,,,,,,,67924313eb24f3a077d26376,none,13 or older,"no, only English or Spanish",no,2025-08-13_17h54.55.404,empathy_intonation_perc_control,2024.2.4,Linux x86_64,60.24096386,67924313eb24f3a077d26376,68817205a84113384fffdfe3,689d09845b179513d6515248,19.2632,21.843,0,1,2.0479,,0,1,1,7,1,./stim/wavs/puertorican_statement_filler_La-nina-pinta-con-su-amiga.wav,0,,,,,,,,,,,,,,,,,,,,,,,,,,,,,,,,,,,,,,,,,,,,,,,,,,,,,,,,,,,,,,,,,,,,,,,,
,,,,,,,,,67924313eb24f3a077d26376,none,13 or older,"no, only English or Spanish",no,2025-08-13_17h54.55.404,empathy_intonation_perc_control,2024.2.4,Linux x86_64,60.24096386,67924313eb24f3a077d26376,68817205a84113384fffdfe3,689d09845b179513d6515248,21.8438,24.24,1,1,1.8724,,0,2,2,3,1,./stim/wavs/mexican_question_filler_Felipe-no-tiene-contrasena.wav,1,,,,,,,,,,,,,,,,,,,,,,,,,,,,,,,,,,,,,,,,,,,,,,,,,,,,,,,,,,,,,,,,,,,,,,,,
,,,,,,,,,67924313eb24f3a077d26376,none,13 or older,"no, only English or Spanish",no,2025-08-13_17h54.55.404,empathy_intonation_perc_control,2024.2.4,Linux x86_64,60.24096386,67924313eb24f3a077d26376,68817205a84113384fffdfe3,689d09845b179513d6515248,24.2414,26.6381,0,1,1.8639,,0,3,3,4,1,./stim/wavs/cuban_statement_filler_Cocinabas-por-la-noche.wav,0,,,,,,,,,,,,,,,,,,,,,,,,,,,,,,,,,,,,,,,,,,,,,,,,,,,,,,,,,,,,,,,,,,,,,,,,
,,,,,,,,,67924313eb24f3a077d26376,none,13 or older,"no, only English or Spanish",no,2025-08-13_17h54.55.404,empathy_intonation_perc_control,2024.2.4,Linux x86_64,60.24096386,67924313eb24f3a077d26376,68817205a84113384fffdfe3,689d09845b179513d6515248,26.6391,28.9695,1,1,1.8003,,0,4,4,1,1,./stim/wavs/argentine_question_filler_Mi-vecino-habla-mucho.wav,1,,,,,,,,,,,,,,,,,,,,,,,,,,,,,,,,,,,,,,,,,,,,,,,,,,,,,,,,,,,,,,,,,,,,,,,,
,,,,,,,,,67924313eb24f3a077d26376,none,13 or older,"no, only English or Spanish",no,2025-08-13_17h54.55.404,empathy_intonation_perc_control,2024.2.4,Linux x86_64,60.24096386,67924313eb24f3a077d26376,68817205a84113384fffdfe3,689d09845b179513d6515248,28.9703,31.7005,1,1,2.2009,,0,5,5,0,1,./stim/wavs/castilian_question_filler_Mi-esposo-conoce-al-chico.wav,1,,,,,,,,,,,,,,,,,,,,,,,,,,,,,,,,,,,,,,,,,,,,,,,,,,,,,,,,,,,,,,,,,,,,,,,,
,,,,,,,,,67924313eb24f3a077d26376,none,13 or older,"no, only English or Spanish",no,2025-08-13_17h54.55.404,empathy_intonation_perc_control,2024.2.4,Linux x86_64,60.24096386,67924313eb24f3a077d26376,68817205a84113384fffdfe3,689d09845b179513d6515248,31.7013,34.2813,0,1,2.0525,,0,6,6,5,1,./stim/wavs/andalusian_statement_filler_Alberto-nunca-se-afeita.wav,0,,,,,,,,,,,,,,,,,,,,,,,,,,,,,,,,,,,,,,,,,,,,,,,,,,,,,,,,,,,,,,,,,,,,,,,,
,,,,,,,,,67924313eb24f3a077d26376,none,13 or older,"no, only English or Spanish",no,2025-08-13_17h54.55.404,empathy_intonation_perc_control,2024.2.4,Linux x86_64,60.24096386,67924313eb24f3a077d26376,68817205a84113384fffdfe3,689d09845b179513d6515248,34.2821,37.0458,0,1,2.236,,0,7,7,6,1,./stim/wavs/peruvian_statement_filler_El-nino-habla-con-su-madre.wav,0,,,,,,,,,,,,,,,,,,,,,,,,,,,,,,,,,,,,,,,,,,,,,,,,,,,,,,,,,,,,,,,,,,,,,,,,
,,,,,,,,,67924313eb24f3a077d26376,none,13 or older,"no, only English or Spanish",no,2025-08-13_17h54.55.404,empathy_intonation_perc_control,2024.2.4,Linux x86_64,60.24096386,67924313eb24f3a077d26376,68817205a84113384fffdfe3,689d09845b179513d6515248,,,,,,,,,,,,,,37.0463,40.9926,,,,,,,,,,,,,,,,,,,,,,,,,,,,,,,,,,,,,,,,,,,,,,,,,,,,,,,,,,,,,,,,,,,,,,
,,,,,,,,,67924313eb24f3a077d26376,none,13 or older,"no, only English or Spanish",no,2025-08-13_17h54.55.404,empathy_intonation_perc_control,2024.2.4,Linux x86_64,60.24096386,67924313eb24f3a077d26376,68817205a84113384fffdfe3,689d09845b179513d6515248,,,,,,,,,,,,./stim/wavs/puertorican_match_declarative-broad-focus_Manuela-vende-el-carro.wav,0,,,41.0096,43.3409,0,1,1.8,,0,0,0,66,1,67,0,puertorican,,,,,,,,,,,,,,,,,,,,,,,,,,,,,,,,,,,,,,,,,,,,,,,,,,,,,,,,
,,,,,,,,,67924313eb24f3a077d26376,none,13 or older,"no, only English or Spanish",no,2025-08-13_17h54.55.404,empathy_intonation_perc_control,2024.2.4,Linux x86_64,60.24096386,67924313eb24f3a077d26376,68817205a84113384fffdfe3,689d09845b179513d6515248,,,,,,,,,,,,./stim/wavs/mexican_match_declarative-broad-focus_Daniel-iba-a-Bolivia.wav,0,,,43.3418,45.7049,0,1,1.8334,,0,1,1,57,1,58,0,mexican,,,,,,,,,,,,,,,,,,,,,,,,,,,,,,,,,,,,,,,,,,,,,,,,,,,,,,,,
,,,,,,,,,67924313eb24f3a077d26376,none,13 or older,"no, only English or Spanish",no,2025-08-13_17h54.55.404,empathy_intonation_perc_control,2024.2.4,Linux x86_64,60.24096386,67924313eb24f3a077d26376,68817205a84113384fffdfe3,689d09845b179513d6515248,,,,,,,,,,,,./stim/wavs/mexican_match_interrogative-total-yn_Ana-lleva-el-abrigo.wav,1,,,45.7055,47.9031,1,1,1.6671,,0,2,2,12,1,13,0,mexican,,,,,,,,,,,,,,,,,,,,,,,,,,,,,,,,,,,,,,,,,,,,,,,,,,,,,,,,
,,,,,,,,,67924313eb24f3a077d26376,none,13 or older,"no, only English or Spanish",no,2025-08-13_17h54.55.404,empathy_intonation_perc_control,2024.2.4,Linux x86_64,60.24096386,67924313eb24f3a077d26376,68817205a84113384fffdfe3,689d09845b179513d6515248,,,,,,,,,,,,./stim/wavs/puertorican_match_interrogative-total-yn_Ana-lleva-el-abrigo.wav,1,,,47.9037,50.0012,0,0,1.5667,,0,3,3,18,1,19,1,puertorican,,,,,,,,,,,,,,,,,,,,,,,,,,,,,,,,,,,,,,,,,,,,,,,,,,,,,,,,
,,,,,,,,,67924313eb24f3a077d26376,none,13 or older,"no, only English or Spanish",no,2025-08-13_17h54.55.404,empathy_intonation_perc_control,2024.2.4,Linux x86_64,60.24096386,67924313eb24f3a077d26376,68817205a84113384fffdfe3,689d09845b179513d6515248,,,,,,,,,,,,./stim/wavs/cuban_mismatch_interrogative-total-yn_El-hombre-mira-la-luna.wav,1,,,50.0022,52.1661,0,0,1.6348,,0,4,4,29,1,30,1,cuban,,,,,,,,,,,,,,,,,,,,,,,,,,,,,,,,,,,,,,,,,,,,,,,,,,,,,,,,
,,,,,,,,,67924313eb24f3a077d26376,none,13 or older,"no, only English or Spanish",no,2025-08-13_17h54.55.404,empathy_intonation_perc_control,2024.2.4,Linux x86_64,60.24096386,67924313eb24f3a077d26376,68817205a84113384fffdfe3,689d09845b179513d6515248,,,,,,,,,,,,./stim/wavs/puertorican_match_interrogative-total-yn_Manuela-vende-el-carro.wav,1,,,52.1667,54.7637,0,0,2.0633,,0,5,5,22,1,23,1,puertorican,,,,,,,,,,,,,,,,,,,,,,,,,,,,,,,,,,,,,,,,,,,,,,,,,,,,,,,,
,,,,,,,,,67924313eb24f3a077d26376,none,13 or older,"no, only English or Spanish",no,2025-08-13_17h54.55.404,empathy_intonation_perc_control,2024.2.4,Linux x86_64,60.24096386,67924313eb24f3a077d26376,68817205a84113384fffdfe3,689d09845b179513d6515248,,,,,,,,,,,,./stim/wavs/mexican_mismatch_interrogative-total-yn_El-hombre-mira-la-luna.wav,1,,,54.7646,57.0116,0,0,1.7195,,0,6,6,34,1,35,0,mexican,,,,,,,,,,,,,,,,,,,,,,,,,,,,,,,,,,,,,,,,,,,,,,,,,,,,,,,,
,,,,,,,,,67924313eb24f3a077d26376,none,13 or older,"no, only English or Spanish",no,2025-08-13_17h54.55.404,empathy_intonation_perc_control,2024.2.4,Linux x86_64,60.24096386,67924313eb24f3a077d26376,68817205a84113384fffdfe3,689d09845b179513d6515248,,,,,,,,,,,,./stim/wavs/cuban_match_declarative-broad-focus_Ana-lleva-el-abrigo.wav,0,,,57.0126,60.0091,0,1,2.4645,,0,7,7,50,1,51,0,cuban,,,,,,,,,,,,,,,,,,,,,,,,,,,,,,,,,,,,,,,,,,,,,,,,,,,,,,,,
,,,,,,,,,67924313eb24f3a077d26376,none,13 or older,"no, only English or Spanish",no,2025-08-13_17h54.55.404,empathy_intonation_perc_control,2024.2.4,Linux x86_64,60.24096386,67924313eb24f3a077d26376,68817205a84113384fffdfe3,689d09845b179513d6515248,,,,,,,,,,,,./stim/wavs/castilian_match_interrogative-total-yn_David-leia-el-libro.wav,1,,,60.0097,62.5904,1,1,2.0486,,0,8,8,0,1,1,0,castilian,,,,,,,,,,,,,,,,,,,,,,,,,,,,,,,,,,,,,,,,,,,,,,,,,,,,,,,,
,,,,,,,,,67924313eb24f3a077d26376,none,13 or older,"no, only English or Spanish",no,2025-08-13_17h54.55.404,empathy_intonation_perc_control,2024.2.4,Linux x86_64,60.24096386,67924313eb24f3a077d26376,68817205a84113384fffdfe3,689d09845b179513d6515248,,,,,,,,,,,,./stim/wavs/castilian_mismatch_interrogative-total-yn_La-maestra-vive-en-Paris.wav,1,,,62.5918,65.1714,1,1,2.0484,,0,9,9,24,1,25,0,castilian,,,,,,,,,,,,,,,,,,,,,,,,,,,,,,,,,,,,,,,,,,,,,,,,,,,,,,,,
,,,,,,,,,67924313eb24f3a077d26376,none,13 or older,"no, only English or Spanish",no,2025-08-13_17h54.55.404,empathy_intonation_perc_control,2024.2.4,Linux x86_64,60.24096386,67924313eb24f3a077d26376,68817205a84113384fffdfe3,689d09845b179513d6515248,,,,,,,,,,,,./stim/wavs/cuban_mismatch_interrogative-total-yn_Mi-tia-odia-la-lluvia.wav,1,,,65.172,67.386,0,0,1.6814,,0,10,10,33,1,34,1,cuban,,,,,,,,,,,,,,,,,,,,,,,,,,,,,,,,,,,,,,,,,,,,,,,,,,,,,,,,
,,,,,,,,,67924313eb24f3a077d26376,none,13 or older,"no, only English or Spanish",no,2025-08-13_17h54.55.404,empathy_intonation_perc_control,2024.2.4,Linux x86_64,60.24096386,67924313eb24f3a077d26376,68817205a84113384fffdfe3,689d09845b179513d6515248,,,,,,,,,,,,./stim/wavs/cuban_match_interrogative-total-yn_Maria-bebe-el-vino.wav,1,,,67.3869,69.6839,0,0,1.7647,,0,11,11,9,1,10,1,cuban,,,,,,,,,,,,,,,,,,,,,,,,,,,,,,,,,,,,,,,,,,,,,,,,,,,,,,,,
,,,,,,,,,67924313eb24f3a077d26376,none,13 or older,"no, only English or Spanish",no,2025-08-13_17h54.55.404,empathy_intonation_perc_control,2024.2.4,Linux x86_64,60.24096386,67924313eb24f3a077d26376,68817205a84113384fffdfe3,689d09845b179513d6515248,,,,,,,,,,,,./stim/wavs/castilian_match_declarative-broad-focus_David-leia-el-libro.wav,0,,,69.6846,72.0985,0,1,1.8837,,0,12,12,44,1,45,0,castilian,,,,,,,,,,,,,,,,,,,,,,,,,,,,,,,,,,,,,,,,,,,,,,,,,,,,,,,,
,,,,,,,,,67924313eb24f3a077d26376,none,13 or older,"no, only English or Spanish",no,2025-08-13_17h54.55.404,empathy_intonation_perc_control,2024.2.4,Linux x86_64,60.24096386,67924313eb24f3a077d26376,68817205a84113384fffdfe3,689d09845b179513d6515248,,,,,,,,,,,,./stim/wavs/castilian_mismatch_interrogative-total-yn_Mi-tia-odia-la-lluvia.wav,1,,,72.0992,74.3633,1,1,1.7285,,0,13,13,28,1,29,0,castilian,,,,,,,,,,,,,,,,,,,,,,,,,,,,,,,,,,,,,,,,,,,,,,,,,,,,,,,,
,,,,,,,,,67924313eb24f3a077d26376,none,13 or older,"no, only English or Spanish",no,2025-08-13_17h54.55.404,empathy_intonation_perc_control,2024.2.4,Linux x86_64,60.24096386,67924313eb24f3a077d26376,68817205a84113384fffdfe3,689d09845b179513d6515248,,,,,,,,,,,,./stim/wavs/cuban_mismatch_interrogative-total-yn_El-nino-oye-el-rio.wav,1,,,74.3641,76.2948,0,0,1.4038,,0,14,14,30,1,31,1,cuban,,,,,,,,,,,,,,,,,,,,,,,,,,,,,,,,,,,,,,,,,,,,,,,,,,,,,,,,
,,,,,,,,,67924313eb24f3a077d26376,none,13 or older,"no, only English or Spanish",no,2025-08-13_17h54.55.404,empathy_intonation_perc_control,2024.2.4,Linux x86_64,60.24096386,67924313eb24f3a077d26376,68817205a84113384fffdfe3,689d09845b179513d6515248,,,,,,,,,,,,./stim/wavs/mexican_match_declarative-broad-focus_Mariano-habla-del-tiempo.wav,0,,,76.2959,78.443,0,1,1.6143,,0,15,15,60,1,61,0,mexican,,,,,,,,,,,,,,,,,,,,,,,,,,,,,,,,,,,,,,,,,,,,,,,,,,,,,,,,
,,,,,,,,,67924313eb24f3a077d26376,none,13 or older,"no, only English or Spanish",no,2025-08-13_17h54.55.404,empathy_intonation_perc_control,2024.2.4,Linux x86_64,60.24096386,67924313eb24f3a077d26376,68817205a84113384fffdfe3,689d09845b179513d6515248,,,,,,,,,,,,./stim/wavs/puertorican_match_declarative-broad-focus_Maria-bebe-el-vino.wav,0,,,78.4437,80.3746,1,0,1.3996,,0,16,16,67,1,68,0,puertorican,,,,,,,,,,,,,,,,,,,,,,,,,,,,,,,,,,,,,,,,,,,,,,,,,,,,,,,,
,,,,,,,,,67924313eb24f3a077d26376,none,13 or older,"no, only English or Spanish",no,2025-08-13_17h54.55.404,empathy_intonation_perc_control,2024.2.4,Linux x86_64,60.24096386,67924313eb24f3a077d26376,68817205a84113384fffdfe3,689d09845b179513d6515248,,,,,,,,,,,,./stim/wavs/mexican_match_interrogative-total-yn_David-leia-el-libro.wav,1,,,80.3752,82.4229,1,1,1.5184,,0,17,17,14,1,15,0,mexican,,,,,,,,,,,,,,,,,,,,,,,,,,,,,,,,,,,,,,,,,,,,,,,,,,,,,,,,
,,,,,,,,,67924313eb24f3a077d26376,none,13 or older,"no, only English or Spanish",no,2025-08-13_17h54.55.404,empathy_intonation_perc_control,2024.2.4,Linux x86_64,60.24096386,67924313eb24f3a077d26376,68817205a84113384fffdfe3,689d09845b179513d6515248,,,,,,,,,,,,./stim/wavs/cuban_match_interrogative-total-yn_Mariano-habla-del-tiempo.wav,1,,,82.4234,85.2207,1,1,2.269,,0,18,18,10,1,11,1,cuban,,,,,,,,,,,,,,,,,,,,,,,,,,,,,,,,,,,,,,,,,,,,,,,,,,,,,,,,
,,,,,,,,,67924313eb24f3a077d26376,none,13 or older,"no, only English or Spanish",no,2025-08-13_17h54.55.404,empathy_intonation_perc_control,2024.2.4,Linux x86_64,60.24096386,67924313eb24f3a077d26376,68817205a84113384fffdfe3,689d09845b179513d6515248,,,,,,,,,,,,./stim/wavs/puertorican_mismatch_declarative-broad-focus_El-nino-oye-el-rio.wav,0,,,85.2213,87.2521,0,1,1.4991,,0,19,19,85,1,86,0,puertorican,,,,,,,,,,,,,,,,,,,,,,,,,,,,,,,,,,,,,,,,,,,,,,,,,,,,,,,,
,,,,,,,,,67924313eb24f3a077d26376,none,13 or older,"no, only English or Spanish",no,2025-08-13_17h54.55.404,empathy_intonation_perc_control,2024.2.4,Linux x86_64,60.24096386,67924313eb24f3a077d26376,68817205a84113384fffdfe3,689d09845b179513d6515248,,,,,,,,,,,,./stim/wavs/puertorican_match_declarative-broad-focus_Emilio-ama-la-marcha.wav,0,,,87.2527,89.2504,0,1,1.4667,,0,20,20,65,1,66,0,puertorican,,,,,,,,,,,,,,,,,,,,,,,,,,,,,,,,,,,,,,,,,,,,,,,,,,,,,,,,
,,,,,,,,,67924313eb24f3a077d26376,none,13 or older,"no, only English or Spanish",no,2025-08-13_17h54.55.404,empathy_intonation_perc_control,2024.2.4,Linux x86_64,60.24096386,67924313eb24f3a077d26376,68817205a84113384fffdfe3,689d09845b179513d6515248,,,,,,,,,,,,./stim/wavs/puertorican_match_interrogative-total-yn_Maria-bebe-el-vino.wav,1,,,89.251,91.432,1,1,1.6502,,0,21,21,23,1,24,1,puertorican,,,,,,,,,,,,,,,,,,,,,,,,,,,,,,,,,,,,,,,,,,,,,,,,,,,,,,,,
,,,,,,,,,67924313eb24f3a077d26376,none,13 or older,"no, only English or Spanish",no,2025-08-13_17h54.55.404,empathy_intonation_perc_control,2024.2.4,Linux x86_64,60.24096386,67924313eb24f3a077d26376,68817205a84113384fffdfe3,689d09845b179513d6515248,,,,,,,,,,,,./stim/wavs/puertorican_mismatch_declarative-broad-focus_La-nina-lava-el-plato.wav,0,,,91.4325,93.963,0,1,1.9965,,0,22,22,87,1,88,0,puertorican,,,,,,,,,,,,,,,,,,,,,,,,,,,,,,,,,,,,,,,,,,,,,,,,,,,,,,,,
,,,,,,,,,67924313eb24f3a077d26376,none,13 or older,"no, only English or Spanish",no,2025-08-13_17h54.55.404,empathy_intonation_perc_control,2024.2.4,Linux x86_64,60.24096386,67924313eb24f3a077d26376,68817205a84113384fffdfe3,689d09845b179513d6515248,,,,,,,,,,,,./stim/wavs/castilian_match_declarative-broad-focus_Maria-bebe-el-vino.wav,0,,,93.9635,97.3776,0,1,2.8815,,0,23,23,47,1,48,0,castilian,,,,,,,,,,,,,,,,,,,,,,,,,,,,,,,,,,,,,,,,,,,,,,,,,,,,,,,,
,,,,,,,,,67924313eb24f3a077d26376,none,13 or older,"no, only English or Spanish",no,2025-08-13_17h54.55.404,empathy_intonation_perc_control,2024.2.4,Linux x86_64,60.24096386,67924313eb24f3a077d26376,68817205a84113384fffdfe3,689d09845b179513d6515248,,,,,,,,,,,,./stim/wavs/castilian_match_interrogative-total-yn_Marta-abre-el-regalo.wav,1,,,97.3789,99.592,1,1,1.6877,,0,24,24,5,1,6,0,castilian,,,,,,,,,,,,,,,,,,,,,,,,,,,,,,,,,,,,,,,,,,,,,,,,,,,,,,,,
,,,,,,,,,67924313eb24f3a077d26376,none,13 or older,"no, only English or Spanish",no,2025-08-13_17h54.55.404,empathy_intonation_perc_control,2024.2.4,Linux x86_64,60.24096386,67924313eb24f3a077d26376,68817205a84113384fffdfe3,689d09845b179513d6515248,,,,,,,,,,,,./stim/wavs/mexican_mismatch_interrogative-total-yn_Mi-tia-odia-la-lluvia.wav,1,,,99.5926,101.7393,1,1,1.6181,,0,25,25,38,1,39,0,mexican,,,,,,,,,,,,,,,,,,,,,,,,,,,,,,,,,,,,,,,,,,,,,,,,,,,,,,,,
,,,,,,,,,67924313eb24f3a077d26376,none,13 or older,"no, only English or Spanish",no,2025-08-13_17h54.55.404,empathy_intonation_perc_control,2024.2.4,Linux x86_64,60.24096386,67924313eb24f3a077d26376,68817205a84113384fffdfe3,689d09845b179513d6515248,,,,,,,,,,,,./stim/wavs/puertorican_match_declarative-broad-focus_Ana-lleva-el-abrigo.wav,0,,,101.7401,103.6879,0,1,1.4156,,0,26,26,62,1,63,0,puertorican,,,,,,,,,,,,,,,,,,,,,,,,,,,,,,,,,,,,,,,,,,,,,,,,,,,,,,,,
,,,,,,,,,67924313eb24f3a077d26376,none,13 or older,"no, only English or Spanish",no,2025-08-13_17h54.55.404,empathy_intonation_perc_control,2024.2.4,Linux x86_64,60.24096386,67924313eb24f3a077d26376,68817205a84113384fffdfe3,689d09845b179513d6515248,,,,,,,,,,,,./stim/wavs/cuban_mismatch_declarative-broad-focus_Mi-tia-odia-la-lluvia.wav,0,,,103.6885,105.9189,0,1,1.7018,,0,27,27,77,1,78,0,cuban,,,,,,,,,,,,,,,,,,,,,,,,,,,,,,,,,,,,,,,,,,,,,,,,,,,,,,,,
,,,,,,,,,67924313eb24f3a077d26376,none,13 or older,"no, only English or Spanish",no,2025-08-13_17h54.55.404,empathy_intonation_perc_control,2024.2.4,Linux x86_64,60.24096386,67924313eb24f3a077d26376,68817205a84113384fffdfe3,689d09845b179513d6515248,,,,,,,,,,,,./stim/wavs/castilian_match_declarative-broad-focus_Mariano-habla-del-tiempo.wav,0,,,105.9195,108.4836,0,1,2.0319,,0,28,28,48,1,49,0,castilian,,,,,,,,,,,,,,,,,,,,,,,,,,,,,,,,,,,,,,,,,,,,,,,,,,,,,,,,
,,,,,,,,,67924313eb24f3a077d26376,none,13 or older,"no, only English or Spanish",no,2025-08-13_17h54.55.404,empathy_intonation_perc_control,2024.2.4,Linux x86_64,60.24096386,67924313eb24f3a077d26376,68817205a84113384fffdfe3,689d09845b179513d6515248,,,,,,,,,,,,./stim/wavs/puertorican_mismatch_declarative-broad-focus_El-hombre-mira-la-luna.wav,0,,,108.4842,110.6649,0,1,1.6477,,0,29,29,84,1,85,0,puertorican,,,,,,,,,,,,,,,,,,,,,,,,,,,,,,,,,,,,,,,,,,,,,,,,,,,,,,,,
,,,,,,,,,67924313eb24f3a077d26376,none,13 or older,"no, only English or Spanish",no,2025-08-13_17h54.55.404,empathy_intonation_perc_control,2024.2.4,Linux x86_64,60.24096386,67924313eb24f3a077d26376,68817205a84113384fffdfe3,689d09845b179513d6515248,,,,,,,,,,,,./stim/wavs/cuban_match_interrogative-total-yn_Daniel-iba-a-Bolivia.wav,1,,,110.6655,113.0629,0,0,1.8677,,0,30,30,7,1,8,1,cuban,,,,,,,,,,,,,,,,,,,,,,,,,,,,,,,,,,,,,,,,,,,,,,,,,,,,,,,,
,,,,,,,,,67924313eb24f3a077d26376,none,13 or older,"no, only English or Spanish",no,2025-08-13_17h54.55.404,empathy_intonation_perc_control,2024.2.4,Linux x86_64,60.24096386,67924313eb24f3a077d26376,68817205a84113384fffdfe3,689d09845b179513d6515248,,,,,,,,,,,,./stim/wavs/cuban_match_declarative-broad-focus_Maria-bebe-el-vino.wav,0,,,113.064,115.1611,0,1,1.5671,,0,31,31,53,1,54,0,cuban,,,,,,,,,,,,,,,,,,,,,,,,,,,,,,,,,,,,,,,,,,,,,,,,,,,,,,,,
,,,,,,,,,67924313eb24f3a077d26376,none,13 or older,"no, only English or Spanish",no,2025-08-13_17h54.55.404,empathy_intonation_perc_control,2024.2.4,Linux x86_64,60.24096386,67924313eb24f3a077d26376,68817205a84113384fffdfe3,689d09845b179513d6515248,,,,,,,,,,,,./stim/wavs/castilian_mismatch_declarative-broad-focus_La-nina-lava-el-plato.wav,0,,,115.1616,117.5257,0,1,1.8312,,0,32,32,70,1,71,0,castilian,,,,,,,,,,,,,,,,,,,,,,,,,,,,,,,,,,,,,,,,,,,,,,,,,,,,,,,,
,,,,,,,,,67924313eb24f3a077d26376,none,13 or older,"no, only English or Spanish",no,2025-08-13_17h54.55.404,empathy_intonation_perc_control,2024.2.4,Linux x86_64,60.24096386,67924313eb24f3a077d26376,68817205a84113384fffdfe3,689d09845b179513d6515248,,,,,,,,,,,,./stim/wavs/castilian_mismatch_declarative-broad-focus_La-maestra-vive-en-Paris.wav,0,,,117.5263,119.8908,0,1,1.8316,,0,33,33,69,1,70,0,castilian,,,,,,,,,,,,,,,,,,,,,,,,,,,,,,,,,,,,,,,,,,,,,,,,,,,,,,,,
,,,,,,,,,67924313eb24f3a077d26376,none,13 or older,"no, only English or Spanish",no,2025-08-13_17h54.55.404,empathy_intonation_perc_control,2024.2.4,Linux x86_64,60.24096386,67924313eb24f3a077d26376,68817205a84113384fffdfe3,689d09845b179513d6515248,,,,,,,,,,,,./stim/wavs/castilian_match_interrogative-total-yn_Maria-bebe-el-vino.wav,1,,,119.8915,122.1718,1,1,1.7529,,0,34,34,3,1,4,0,castilian,,,,,,,,,,,,,,,,,,,,,,,,,,,,,,,,,,,,,,,,,,,,,,,,,,,,,,,,
,,,,,,,,,67924313eb24f3a077d26376,none,13 or older,"no, only English or Spanish",no,2025-08-13_17h54.55.404,empathy_intonation_perc_control,2024.2.4,Linux x86_64,60.24096386,67924313eb24f3a077d26376,68817205a84113384fffdfe3,689d09845b179513d6515248,,,,,,,,,,,,./stim/wavs/cuban_match_interrogative-total-yn_Ana-lleva-el-abrigo.wav,1,,,122.1725,124.3376,0,0,1.6396,,0,35,35,6,1,7,1,cuban,,,,,,,,,,,,,,,,,,,,,,,,,,,,,,,,,,,,,,,,,,,,,,,,,,,,,,,,
,,,,,,,,,67924313eb24f3a077d26376,none,13 or older,"no, only English or Spanish",no,2025-08-13_17h54.55.404,empathy_intonation_perc_control,2024.2.4,Linux x86_64,60.24096386,67924313eb24f3a077d26376,68817205a84113384fffdfe3,689d09845b179513d6515248,,,,,,,,,,,,./stim/wavs/puertorican_match_interrogative-total-yn_David-leia-el-libro.wav,1,,,124.3396,126.368,0,0,1.4994,,0,36,36,20,1,21,1,puertorican,,,,,,,,,,,,,,,,,,,,,,,,,,,,,,,,,,,,,,,,,,,,,,,,,,,,,,,,
,,,,,,,,,67924313eb24f3a077d26376,none,13 or older,"no, only English or Spanish",no,2025-08-13_17h54.55.404,empathy_intonation_perc_control,2024.2.4,Linux x86_64,60.24096386,67924313eb24f3a077d26376,68817205a84113384fffdfe3,689d09845b179513d6515248,,,,,,,,,,,,./stim/wavs/mexican_match_interrogative-total-yn_Marta-abre-el-regalo.wav,1,,,126.3686,128.584,1,1,1.6886,,0,37,37,17,1,18,0,mexican,,,,,,,,,,,,,,,,,,,,,,,,,,,,,,,,,,,,,,,,,,,,,,,,,,,,,,,,
,,,,,,,,,67924313eb24f3a077d26376,none,13 or older,"no, only English or Spanish",no,2025-08-13_17h54.55.404,empathy_intonation_perc_control,2024.2.4,Linux x86_64,60.24096386,67924313eb24f3a077d26376,68817205a84113384fffdfe3,689d09845b179513d6515248,,,,,,,,,,,,./stim/wavs/puertorican_mismatch_interrogative-total-yn_La-nina-lava-el-plato.wav,1,,,128.5846,130.6144,1,1,1.504,,0,38,38,42,1,43,1,puertorican,,,,,,,,,,,,,,,,,,,,,,,,,,,,,,,,,,,,,,,,,,,,,,,,,,,,,,,,
,,,,,,,,,67924313eb24f3a077d26376,none,13 or older,"no, only English or Spanish",no,2025-08-13_17h54.55.404,empathy_intonation_perc_control,2024.2.4,Linux x86_64,60.24096386,67924313eb24f3a077d26376,68817205a84113384fffdfe3,689d09845b179513d6515248,,,,,,,,,,,,./stim/wavs/cuban_match_declarative-broad-focus_Manuela-vende-el-carro.wav,0,,,130.615,132.9955,0,1,1.8518,,0,39,39,52,1,53,0,cuban,,,,,,,,,,,,,,,,,,,,,,,,,,,,,,,,,,,,,,,,,,,,,,,,,,,,,,,,
,,,,,,,,,67924313eb24f3a077d26376,none,13 or older,"no, only English or Spanish",no,2025-08-13_17h54.55.404,empathy_intonation_perc_control,2024.2.4,Linux x86_64,60.24096386,67924313eb24f3a077d26376,68817205a84113384fffdfe3,689d09845b179513d6515248,,,,,,,,,,,,./stim/wavs/castilian_mismatch_declarative-broad-focus_Mi-novio-viene-del-lago.wav,0,,,132.9962,135.7099,0,1,2.1826,,0,40,40,71,1,72,0,castilian,,,,,,,,,,,,,,,,,,,,,,,,,,,,,,,,,,,,,,,,,,,,,,,,,,,,,,,,
,,,,,,,,,67924313eb24f3a077d26376,none,13 or older,"no, only English or Spanish",no,2025-08-13_17h54.55.404,empathy_intonation_perc_control,2024.2.4,Linux x86_64,60.24096386,67924313eb24f3a077d26376,68817205a84113384fffdfe3,689d09845b179513d6515248,,,,,,,,,,,,./stim/wavs/mexican_mismatch_declarative-broad-focus_La-maestra-vive-en-Paris.wav,0,,,135.7107,138.0578,0,1,1.8133,,0,41,41,80,1,81,0,mexican,,,,,,,,,,,,,,,,,,,,,,,,,,,,,,,,,,,,,,,,,,,,,,,,,,,,,,,,
,,,,,,,,,67924313eb24f3a077d26376,none,13 or older,"no, only English or Spanish",no,2025-08-13_17h54.55.404,empathy_intonation_perc_control,2024.2.4,Linux x86_64,60.24096386,67924313eb24f3a077d26376,68817205a84113384fffdfe3,689d09845b179513d6515248,,,,,,,,,,,,./stim/wavs/castilian_match_declarative-broad-focus_Emilio-ama-la-marcha.wav,0,,,138.0585,140.4559,0,1,1.8662,,0,42,42,45,1,46,0,castilian,,,,,,,,,,,,,,,,,,,,,,,,,,,,,,,,,,,,,,,,,,,,,,,,,,,,,,,,
,,,,,,,,,67924313eb24f3a077d26376,none,13 or older,"no, only English or Spanish",no,2025-08-13_17h54.55.404,empathy_intonation_perc_control,2024.2.4,Linux x86_64,60.24096386,67924313eb24f3a077d26376,68817205a84113384fffdfe3,689d09845b179513d6515248,,,,,,,,,,,,./stim/wavs/mexican_match_interrogative-total-yn_Daniel-iba-a-Bolivia.wav,1,,,140.4579,142.5705,1,1,1.5823,,0,43,43,13,1,14,0,mexican,,,,,,,,,,,,,,,,,,,,,,,,,,,,,,,,,,,,,,,,,,,,,,,,,,,,,,,,
,,,,,,,,,67924313eb24f3a077d26376,none,13 or older,"no, only English or Spanish",no,2025-08-13_17h54.55.404,empathy_intonation_perc_control,2024.2.4,Linux x86_64,60.24096386,67924313eb24f3a077d26376,68817205a84113384fffdfe3,689d09845b179513d6515248,,,,,,,,,,,,./stim/wavs/cuban_mismatch_declarative-broad-focus_La-nina-lava-el-plato.wav,0,,,142.5711,144.652,0,1,1.5498,,0,44,44,75,1,76,0,cuban,,,,,,,,,,,,,,,,,,,,,,,,,,,,,,,,,,,,,,,,,,,,,,,,,,,,,,,,
,,,,,,,,,67924313eb24f3a077d26376,none,13 or older,"no, only English or Spanish",no,2025-08-13_17h54.55.404,empathy_intonation_perc_control,2024.2.4,Linux x86_64,60.24096386,67924313eb24f3a077d26376,68817205a84113384fffdfe3,689d09845b179513d6515248,,,,,,,,,,,,./stim/wavs/puertorican_match_interrogative-total-yn_Emilio-ama-la-marcha.wav,1,,,144.6527,146.9667,0,0,1.7768,,0,45,45,21,1,22,1,puertorican,,,,,,,,,,,,,,,,,,,,,,,,,,,,,,,,,,,,,,,,,,,,,,,,,,,,,,,,
,,,,,,,,,67924313eb24f3a077d26376,none,13 or older,"no, only English or Spanish",no,2025-08-13_17h54.55.404,empathy_intonation_perc_control,2024.2.4,Linux x86_64,60.24096386,67924313eb24f3a077d26376,68817205a84113384fffdfe3,689d09845b179513d6515248,,,,,,,,,,,,./stim/wavs/cuban_mismatch_declarative-broad-focus_El-hombre-mira-la-luna.wav,0,,,146.9674,148.9817,0,1,1.4822,,0,46,46,74,1,75,0,cuban,,,,,,,,,,,,,,,,,,,,,,,,,,,,,,,,,,,,,,,,,,,,,,,,,,,,,,,,
,,,,,,,,,67924313eb24f3a077d26376,none,13 or older,"no, only English or Spanish",no,2025-08-13_17h54.55.404,empathy_intonation_perc_control,2024.2.4,Linux x86_64,60.24096386,67924313eb24f3a077d26376,68817205a84113384fffdfe3,689d09845b179513d6515248,,,,,,,,,,,,./stim/wavs/castilian_mismatch_interrogative-total-yn_La-nina-lava-el-plato.wav,1,,,148.9832,151.163,1,1,1.6524,,0,47,47,25,1,26,0,castilian,,,,,,,,,,,,,,,,,,,,,,,,,,,,,,,,,,,,,,,,,,,,,,,,,,,,,,,,
,,,,,,,,,67924313eb24f3a077d26376,none,13 or older,"no, only English or Spanish",no,2025-08-13_17h54.55.404,empathy_intonation_perc_control,2024.2.4,Linux x86_64,60.24096386,67924313eb24f3a077d26376,68817205a84113384fffdfe3,689d09845b179513d6515248,,,,,,,,,,,,./stim/wavs/castilian_mismatch_declarative-broad-focus_Mi-tia-odia-la-lluvia.wav,0,,,151.164,153.5116,0,1,1.8173,,0,48,48,72,1,73,0,castilian,,,,,,,,,,,,,,,,,,,,,,,,,,,,,,,,,,,,,,,,,,,,,,,,,,,,,,,,
,,,,,,,,,67924313eb24f3a077d26376,none,13 or older,"no, only English or Spanish",no,2025-08-13_17h54.55.404,empathy_intonation_perc_control,2024.2.4,Linux x86_64,60.24096386,67924313eb24f3a077d26376,68817205a84113384fffdfe3,689d09845b179513d6515248,,,,,,,,,,,,./stim/wavs/cuban_mismatch_interrogative-total-yn_Mi-novio-viene-del-lago.wav,1,,,153.5122,155.6923,0,0,1.653,,0,49,49,32,1,33,1,cuban,,,,,,,,,,,,,,,,,,,,,,,,,,,,,,,,,,,,,,,,,,,,,,,,,,,,,,,,
,,,,,,,,,67924313eb24f3a077d26376,none,13 or older,"no, only English or Spanish",no,2025-08-13_17h54.55.404,empathy_intonation_perc_control,2024.2.4,Linux x86_64,60.24096386,67924313eb24f3a077d26376,68817205a84113384fffdfe3,689d09845b179513d6515248,,,,,,,,,,,,./stim/wavs/castilian_mismatch_declarative-broad-focus_El-nino-oye-el-rio.wav,0,,,155.693,157.9405,0,1,1.717,,0,50,50,68,1,69,0,castilian,,,,,,,,,,,,,,,,,,,,,,,,,,,,,,,,,,,,,,,,,,,,,,,,,,,,,,,,
,,,,,,,,,67924313eb24f3a077d26376,none,13 or older,"no, only English or Spanish",no,2025-08-13_17h54.55.404,empathy_intonation_perc_control,2024.2.4,Linux x86_64,60.24096386,67924313eb24f3a077d26376,68817205a84113384fffdfe3,689d09845b179513d6515248,,,,,,,,,,,,./stim/wavs/cuban_match_declarative-broad-focus_Mariano-habla-del-tiempo.wav,0,,,157.9412,160.1718,0,1,1.6978,,0,51,51,54,1,55,0,cuban,,,,,,,,,,,,,,,,,,,,,,,,,,,,,,,,,,,,,,,,,,,,,,,,,,,,,,,,
,,,,,,,,,67924313eb24f3a077d26376,none,13 or older,"no, only English or Spanish",no,2025-08-13_17h54.55.404,empathy_intonation_perc_control,2024.2.4,Linux x86_64,60.24096386,67924313eb24f3a077d26376,68817205a84113384fffdfe3,689d09845b179513d6515248,,,,,,,,,,,,./stim/wavs/cuban_match_declarative-broad-focus_Marta-abre-el-regalo.wav,0,,,160.1725,162.6864,0,1,1.9818,,0,52,52,55,1,56,0,cuban,,,,,,,,,,,,,,,,,,,,,,,,,,,,,,,,,,,,,,,,,,,,,,,,,,,,,,,,
,,,,,,,,,67924313eb24f3a077d26376,none,13 or older,"no, only English or Spanish",no,2025-08-13_17h54.55.404,empathy_intonation_perc_control,2024.2.4,Linux x86_64,60.24096386,67924313eb24f3a077d26376,68817205a84113384fffdfe3,689d09845b179513d6515248,,,,,,,,,,,,./stim/wavs/puertorican_match_interrogative-total-yn_Daniel-iba-a-Bolivia.wav,1,,,162.687,164.7843,0,0,1.5699,,0,53,53,19,1,20,1,puertorican,,,,,,,,,,,,,,,,,,,,,,,,,,,,,,,,,,,,,,,,,,,,,,,,,,,,,,,,
,,,,,,,,,67924313eb24f3a077d26376,none,13 or older,"no, only English or Spanish",no,2025-08-13_17h54.55.404,empathy_intonation_perc_control,2024.2.4,Linux x86_64,60.24096386,67924313eb24f3a077d26376,68817205a84113384fffdfe3,689d09845b179513d6515248,,,,,,,,,,,,./stim/wavs/mexican_mismatch_declarative-broad-focus_Mi-tia-odia-la-lluvia.wav,0,,,164.7849,166.9829,0,1,1.6717,,0,54,54,82,1,83,0,mexican,,,,,,,,,,,,,,,,,,,,,,,,,,,,,,,,,,,,,,,,,,,,,,,,,,,,,,,,
,,,,,,,,,67924313eb24f3a077d26376,none,13 or older,"no, only English or Spanish",no,2025-08-13_17h54.55.404,empathy_intonation_perc_control,2024.2.4,Linux x86_64,60.24096386,67924313eb24f3a077d26376,68817205a84113384fffdfe3,689d09845b179513d6515248,,,,,,,,,,,,./stim/wavs/mexican_mismatch_declarative-broad-focus_Mi-novio-viene-del-lago.wav,0,,,166.9839,169.0971,0,1,1.5834,,0,55,55,81,1,82,0,mexican,,,,,,,,,,,,,,,,,,,,,,,,,,,,,,,,,,,,,,,,,,,,,,,,,,,,,,,,
,,,,,,,,,67924313eb24f3a077d26376,none,13 or older,"no, only English or Spanish",no,2025-08-13_17h54.55.404,empathy_intonation_perc_control,2024.2.4,Linux x86_64,60.24096386,67924313eb24f3a077d26376,68817205a84113384fffdfe3,689d09845b179513d6515248,,,,,,,,,,,,./stim/wavs/mexican_match_declarative-broad-focus_Marta-abre-el-regalo.wav,0,,,169.0977,171.1969,0,1,1.5715,,0,56,56,61,1,62,0,mexican,,,,,,,,,,,,,,,,,,,,,,,,,,,,,,,,,,,,,,,,,,,,,,,,,,,,,,,,
,,,,,,,,,67924313eb24f3a077d26376,none,13 or older,"no, only English or Spanish",no,2025-08-13_17h54.55.404,empathy_intonation_perc_control,2024.2.4,Linux x86_64,60.24096386,67924313eb24f3a077d26376,68817205a84113384fffdfe3,689d09845b179513d6515248,,,,,,,,,,,,./stim/wavs/cuban_match_interrogative-total-yn_Manuela-vende-el-carro.wav,1,,,171.1977,173.3269,0,0,1.6047,,0,57,57,8,1,9,1,cuban,,,,,,,,,,,,,,,,,,,,,,,,,,,,,,,,,,,,,,,,,,,,,,,,,,,,,,,,
,,,,,,,,,67924313eb24f3a077d26376,none,13 or older,"no, only English or Spanish",no,2025-08-13_17h54.55.404,empathy_intonation_perc_control,2024.2.4,Linux x86_64,60.24096386,67924313eb24f3a077d26376,68817205a84113384fffdfe3,689d09845b179513d6515248,,,,,,,,,,,,./stim/wavs/mexican_match_declarative-broad-focus_David-leia-el-libro.wav,0,,,173.3275,175.3255,0,1,1.4654,,0,58,58,58,1,59,0,mexican,,,,,,,,,,,,,,,,,,,,,,,,,,,,,,,,,,,,,,,,,,,,,,,,,,,,,,,,
,,,,,,,,,67924313eb24f3a077d26376,none,13 or older,"no, only English or Spanish",no,2025-08-13_17h54.55.404,empathy_intonation_perc_control,2024.2.4,Linux x86_64,60.24096386,67924313eb24f3a077d26376,68817205a84113384fffdfe3,689d09845b179513d6515248,,,,,,,,,,,,./stim/wavs/mexican_match_interrogative-total-yn_Mariano-habla-del-tiempo.wav,1,,,175.3262,177.4905,1,1,1.6328,,0,59,59,16,1,17,0,mexican,,,,,,,,,,,,,,,,,,,,,,,,,,,,,,,,,,,,,,,,,,,,,,,,,,,,,,,,
,,,,,,,,,67924313eb24f3a077d26376,none,13 or older,"no, only English or Spanish",no,2025-08-13_17h54.55.404,empathy_intonation_perc_control,2024.2.4,Linux x86_64,60.24096386,67924313eb24f3a077d26376,68817205a84113384fffdfe3,689d09845b179513d6515248,,,,,,,,,,,,./stim/wavs/puertorican_mismatch_interrogative-total-yn_Mi-madre-come-la-fruta.wav,1,,,177.4911,179.6392,0,0,1.6223,,0,60,60,43,1,44,1,puertorican,,,,,,,,,,,,,,,,,,,,,,,,,,,,,,,,,,,,,,,,,,,,,,,,,,,,,,,,
,,,,,,,,,67924313eb24f3a077d26376,none,13 or older,"no, only English or Spanish",no,2025-08-13_17h54.55.404,empathy_intonation_perc_control,2024.2.4,Linux x86_64,60.24096386,67924313eb24f3a077d26376,68817205a84113384fffdfe3,689d09845b179513d6515248,,,,,,,,,,,,./stim/wavs/mexican_mismatch_declarative-broad-focus_El-bebe-comia-muy-bien.wav,0,,,179.6398,182.1364,1,0,1.9719,,0,61,61,78,1,79,0,mexican,,,,,,,,,,,,,,,,,,,,,,,,,,,,,,,,,,,,,,,,,,,,,,,,,,,,,,,,
,,,,,,,,,67924313eb24f3a077d26376,none,13 or older,"no, only English or Spanish",no,2025-08-13_17h54.55.404,empathy_intonation_perc_control,2024.2.4,Linux x86_64,60.24096386,67924313eb24f3a077d26376,68817205a84113384fffdfe3,689d09845b179513d6515248,,,,,,,,,,,,./stim/wavs/mexican_match_declarative-broad-focus_Ana-lleva-el-abrigo.wav,0,,,182.137,184.0677,0,1,1.3984,,0,62,62,56,1,57,0,mexican,,,,,,,,,,,,,,,,,,,,,,,,,,,,,,,,,,,,,,,,,,,,,,,,,,,,,,,,
,,,,,,,,,67924313eb24f3a077d26376,none,13 or older,"no, only English or Spanish",no,2025-08-13_17h54.55.404,empathy_intonation_perc_control,2024.2.4,Linux x86_64,60.24096386,67924313eb24f3a077d26376,68817205a84113384fffdfe3,689d09845b179513d6515248,,,,,,,,,,,,./stim/wavs/castilian_match_interrogative-total-yn_Mariano-habla-del-tiempo.wav,1,,,184.0683,186.5818,1,1,1.9851,,0,63,63,4,1,5,0,castilian,,,,,,,,,,,,,,,,,,,,,,,,,,,,,,,,,,,,,,,,,,,,,,,,,,,,,,,,
,,,,,,,,,67924313eb24f3a077d26376,none,13 or older,"no, only English or Spanish",no,2025-08-13_17h54.55.404,empathy_intonation_perc_control,2024.2.4,Linux x86_64,60.24096386,67924313eb24f3a077d26376,68817205a84113384fffdfe3,689d09845b179513d6515248,,,,,,,,,,,,./stim/wavs/puertorican_mismatch_interrogative-total-yn_La-maestra-vive-en-Paris.wav,1,,,186.5824,188.9966,0,0,1.8816,,0,64,64,41,1,42,1,puertorican,,,,,,,,,,,,,,,,,,,,,,,,,,,,,,,,,,,,,,,,,,,,,,,,,,,,,,,,
,,,,,,,,,67924313eb24f3a077d26376,none,13 or older,"no, only English or Spanish",no,2025-08-13_17h54.55.404,empathy_intonation_perc_control,2024.2.4,Linux x86_64,60.24096386,67924313eb24f3a077d26376,68817205a84113384fffdfe3,689d09845b179513d6515248,,,,,,,,,,,,./stim/wavs/mexican_match_interrogative-total-yn_Emilio-ama-la-marcha.wav,1,,,188.9973,191.078,1,1,1.5529,,0,65,65,15,1,16,0,mexican,,,,,,,,,,,,,,,,,,,,,,,,,,,,,,,,,,,,,,,,,,,,,,,,,,,,,,,,
,,,,,,,,,67924313eb24f3a077d26376,none,13 or older,"no, only English or Spanish",no,2025-08-13_17h54.55.404,empathy_intonation_perc_control,2024.2.4,Linux x86_64,60.24096386,67924313eb24f3a077d26376,68817205a84113384fffdfe3,689d09845b179513d6515248,,,,,,,,,,,,./stim/wavs/cuban_mismatch_interrogative-total-yn_Mi-madre-come-la-fruta.wav,1,,,191.0787,193.2761,0,0,1.6688,,0,66,66,31,1,32,1,cuban,,,,,,,,,,,,,,,,,,,,,,,,,,,,,,,,,,,,,,,,,,,,,,,,,,,,,,,,
,,,,,,,,,67924313eb24f3a077d26376,none,13 or older,"no, only English or Spanish",no,2025-08-13_17h54.55.404,empathy_intonation_perc_control,2024.2.4,Linux x86_64,60.24096386,67924313eb24f3a077d26376,68817205a84113384fffdfe3,689d09845b179513d6515248,,,,,,,,,,,,./stim/wavs/castilian_mismatch_interrogative-total-yn_Mi-madre-come-la-fruta.wav,1,,,193.2773,195.6077,1,1,1.7988,,0,67,67,26,1,27,0,castilian,,,,,,,,,,,,,,,,,,,,,,,,,,,,,,,,,,,,,,,,,,,,,,,,,,,,,,,,
,,,,,,,,,67924313eb24f3a077d26376,none,13 or older,"no, only English or Spanish",no,2025-08-13_17h54.55.404,empathy_intonation_perc_control,2024.2.4,Linux x86_64,60.24096386,67924313eb24f3a077d26376,68817205a84113384fffdfe3,689d09845b179513d6515248,,,,,,,,,,,,./stim/wavs/mexican_mismatch_interrogative-total-yn_Mi-novio-viene-del-lago.wav,1,,,195.6082,197.8221,1,1,1.68,,0,68,68,37,1,38,0,mexican,,,,,,,,,,,,,,,,,,,,,,,,,,,,,,,,,,,,,,,,,,,,,,,,,,,,,,,,
,,,,,,,,,67924313eb24f3a077d26376,none,13 or older,"no, only English or Spanish",no,2025-08-13_17h54.55.404,empathy_intonation_perc_control,2024.2.4,Linux x86_64,60.24096386,67924313eb24f3a077d26376,68817205a84113384fffdfe3,689d09845b179513d6515248,,,,,,,,,,,,./stim/wavs/puertorican_mismatch_declarative-broad-focus_La-maestra-vive-en-Paris.wav,0,,,197.8228,200.0371,0,1,1.6824,,0,69,69,86,1,87,0,puertorican,,,,,,,,,,,,,,,,,,,,,,,,,,,,,,,,,,,,,,,,,,,,,,,,,,,,,,,,
,,,,,,,,,67924313eb24f3a077d26376,none,13 or older,"no, only English or Spanish",no,2025-08-13_17h54.55.404,empathy_intonation_perc_control,2024.2.4,Linux x86_64,60.24096386,67924313eb24f3a077d26376,68817205a84113384fffdfe3,689d09845b179513d6515248,,,,,,,,,,,,./stim/wavs/puertorican_mismatch_declarative-broad-focus_El-bebe-comia-muy-bien.wav,0,,,200.0377,202.1186,0,1,1.5509,,0,70,70,83,1,84,0,puertorican,,,,,,,,,,,,,,,,,,,,,,,,,,,,,,,,,,,,,,,,,,,,,,,,,,,,,,,,
,,,,,,,,,67924313eb24f3a077d26376,none,13 or older,"no, only English or Spanish",no,2025-08-13_17h54.55.404,empathy_intonation_perc_control,2024.2.4,Linux x86_64,60.24096386,67924313eb24f3a077d26376,68817205a84113384fffdfe3,689d09845b179513d6515248,,,,,,,,,,,,./stim/wavs/castilian_match_interrogative-total-yn_Emilio-ama-la-marcha.wav,1,,,202.1193,204.2833,1,1,1.6331,,0,71,71,1,1,2,0,castilian,,,,,,,,,,,,,,,,,,,,,,,,,,,,,,,,,,,,,,,,,,,,,,,,,,,,,,,,
,,,,,,,,,67924313eb24f3a077d26376,none,13 or older,"no, only English or Spanish",no,2025-08-13_17h54.55.404,empathy_intonation_perc_control,2024.2.4,Linux x86_64,60.24096386,67924313eb24f3a077d26376,68817205a84113384fffdfe3,689d09845b179513d6515248,,,,,,,,,,,,./stim/wavs/cuban_match_interrogative-total-yn_Marta-abre-el-regalo.wav,1,,,204.2839,206.2815,0,0,1.4659,,0,72,72,11,1,12,1,cuban,,,,,,,,,,,,,,,,,,,,,,,,,,,,,,,,,,,,,,,,,,,,,,,,,,,,,,,,
,,,,,,,,,67924313eb24f3a077d26376,none,13 or older,"no, only English or Spanish",no,2025-08-13_17h54.55.404,empathy_intonation_perc_control,2024.2.4,Linux x86_64,60.24096386,67924313eb24f3a077d26376,68817205a84113384fffdfe3,689d09845b179513d6515248,,,,,,,,,,,,./stim/wavs/mexican_mismatch_interrogative-total-yn_La-maestra-vive-en-Paris.wav,1,,,206.2821,208.6803,1,1,1.8664,,0,73,73,36,1,37,0,mexican,,,,,,,,,,,,,,,,,,,,,,,,,,,,,,,,,,,,,,,,,,,,,,,,,,,,,,,,
,,,,,,,,,67924313eb24f3a077d26376,none,13 or older,"no, only English or Spanish",no,2025-08-13_17h54.55.404,empathy_intonation_perc_control,2024.2.4,Linux x86_64,60.24096386,67924313eb24f3a077d26376,68817205a84113384fffdfe3,689d09845b179513d6515248,,,,,,,,,,,,./stim/wavs/castilian_match_declarative-broad-focus_Manuela-vende-el-carro.wav,0,,,208.6818,211.0464,0,1,1.8402,,0,74,74,46,1,47,0,castilian,,,,,,,,,,,,,,,,,,,,,,,,,,,,,,,,,,,,,,,,,,,,,,,,,,,,,,,,
,,,,,,,,,67924313eb24f3a077d26376,none,13 or older,"no, only English or Spanish",no,2025-08-13_17h54.55.404,empathy_intonation_perc_control,2024.2.4,Linux x86_64,60.24096386,67924313eb24f3a077d26376,68817205a84113384fffdfe3,689d09845b179513d6515248,,,,,,,,,,,,./stim/wavs/cuban_mismatch_declarative-broad-focus_El-bebe-comia-muy-bien.wav,0,,,211.047,213.1756,0,1,1.6024,,0,75,75,73,1,74,0,cuban,,,,,,,,,,,,,,,,,,,,,,,,,,,,,,,,,,,,,,,,,,,,,,,,,,,,,,,,
,,,,,,,,,67924313eb24f3a077d26376,none,13 or older,"no, only English or Spanish",no,2025-08-13_17h54.55.404,empathy_intonation_perc_control,2024.2.4,Linux x86_64,60.24096386,67924313eb24f3a077d26376,68817205a84113384fffdfe3,689d09845b179513d6515248,,,,,,,,,,,,./stim/wavs/castilian_mismatch_interrogative-total-yn_Mi-novio-viene-del-lago.wav,1,,,213.1762,215.4949,1,1,1.7922,,0,76,76,27,1,28,0,castilian,,,,,,,,,,,,,,,,,,,,,,,,,,,,,,,,,,,,,,,,,,,,,,,,,,,,,,,,
,,,,,,,,,67924313eb24f3a077d26376,none,13 or older,"no, only English or Spanish",no,2025-08-13_17h54.55.404,empathy_intonation_perc_control,2024.2.4,Linux x86_64,60.24096386,67924313eb24f3a077d26376,68817205a84113384fffdfe3,689d09845b179513d6515248,,,,,,,,,,,,./stim/wavs/castilian_match_declarative-broad-focus_Marta-abre-el-regalo.wav,0,,,215.4962,217.855,0,1,1.8305,,0,77,77,49,1,50,0,castilian,,,,,,,,,,,,,,,,,,,,,,,,,,,,,,,,,,,,,,,,,,,,,,,,,,,,,,,,
,,,,,,,,,67924313eb24f3a077d26376,none,13 or older,"no, only English or Spanish",no,2025-08-13_17h54.55.404,empathy_intonation_perc_control,2024.2.4,Linux x86_64,60.24096386,67924313eb24f3a077d26376,68817205a84113384fffdfe3,689d09845b179513d6515248,,,,,,,,,,,,./stim/wavs/cuban_match_declarative-broad-focus_Daniel-iba-a-Bolivia.wav,0,,,217.856,220.1196,0,1,1.7356,,0,78,78,51,1,52,0,cuban,,,,,,,,,,,,,,,,,,,,,,,,,,,,,,,,,,,,,,,,,,,,,,,,,,,,,,,,
,,,,,,,,,67924313eb24f3a077d26376,none,13 or older,"no, only English or Spanish",no,2025-08-13_17h54.55.404,empathy_intonation_perc_control,2024.2.4,Linux x86_64,60.24096386,67924313eb24f3a077d26376,68817205a84113384fffdfe3,689d09845b179513d6515248,,,,,,,,,,,,./stim/wavs/mexican_mismatch_declarative-broad-focus_El-hombre-mira-la-luna.wav,0,,,220.1202,222.2684,0,1,1.6139,,0,79,79,79,1,80,0,mexican,,,,,,,,,,,,,,,,,,,,,,,,,,,,,,,,,,,,,,,,,,,,,,,,,,,,,,,,
,,,,,,,,,67924313eb24f3a077d26376,none,13 or older,"no, only English or Spanish",no,2025-08-13_17h54.55.404,empathy_intonation_perc_control,2024.2.4,Linux x86_64,60.24096386,67924313eb24f3a077d26376,68817205a84113384fffdfe3,689d09845b179513d6515248,,,,,,,,,,,,./stim/wavs/puertorican_match_declarative-broad-focus_David-leia-el-libro.wav,0,,,222.2693,224.2826,0,1,1.4855,,0,80,80,64,1,65,0,puertorican,,,,,,,,,,,,,,,,,,,,,,,,,,,,,,,,,,,,,,,,,,,,,,,,,,,,,,,,
,,,,,,,,,67924313eb24f3a077d26376,none,13 or older,"no, only English or Spanish",no,2025-08-13_17h54.55.404,empathy_intonation_perc_control,2024.2.4,Linux x86_64,60.24096386,67924313eb24f3a077d26376,68817205a84113384fffdfe3,689d09845b179513d6515248,,,,,,,,,,,,./stim/wavs/mexican_mismatch_interrogative-total-yn_El-nino-oye-el-rio.wav,1,,,224.2833,226.2976,1,1,1.4824,,0,81,81,35,1,36,0,mexican,,,,,,,,,,,,,,,,,,,,,,,,,,,,,,,,,,,,,,,,,,,,,,,,,,,,,,,,
,,,,,,,,,67924313eb24f3a077d26376,none,13 or older,"no, only English or Spanish",no,2025-08-13_17h54.55.404,empathy_intonation_perc_control,2024.2.4,Linux x86_64,60.24096386,67924313eb24f3a077d26376,68817205a84113384fffdfe3,689d09845b179513d6515248,,,,,,,,,,,,./stim/wavs/mexican_match_declarative-broad-focus_Emilio-ama-la-marcha.wav,0,,,226.2983,228.7633,0,1,1.9362,,0,82,82,59,1,60,0,mexican,,,,,,,,,,,,,,,,,,,,,,,,,,,,,,,,,,,,,,,,,,,,,,,,,,,,,,,,
,,,,,,,,,67924313eb24f3a077d26376,none,13 or older,"no, only English or Spanish",no,2025-08-13_17h54.55.404,empathy_intonation_perc_control,2024.2.4,Linux x86_64,60.24096386,67924313eb24f3a077d26376,68817205a84113384fffdfe3,689d09845b179513d6515248,,,,,,,,,,,,./stim/wavs/cuban_mismatch_declarative-broad-focus_Mi-novio-viene-del-lago.wav,0,,,228.7639,230.9103,0,1,1.617,,0,83,83,76,1,77,0,cuban,,,,,,,,,,,,,,,,,,,,,,,,,,,,,,,,,,,,,,,,,,,,,,,,,,,,,,,,
,,,,,,,,,67924313eb24f3a077d26376,none,13 or older,"no, only English or Spanish",no,2025-08-13_17h54.55.404,empathy_intonation_perc_control,2024.2.4,Linux x86_64,60.24096386,67924313eb24f3a077d26376,68817205a84113384fffdfe3,689d09845b179513d6515248,,,,,,,,,,,,./stim/wavs/puertorican_mismatch_interrogative-total-yn_El-nino-oye-el-rio.wav,1,,,230.9109,233.0253,0,0,1.5821,,0,84,84,40,1,41,1,puertorican,,,,,,,,,,,,,,,,,,,,,,,,,,,,,,,,,,,,,,,,,,,,,,,,,,,,,,,,
,,,,,,,,,67924313eb24f3a077d26376,none,13 or older,"no, only English or Spanish",no,2025-08-13_17h54.55.404,empathy_intonation_perc_control,2024.2.4,Linux x86_64,60.24096386,67924313eb24f3a077d26376,68817205a84113384fffdfe3,689d09845b179513d6515248,,,,,,,,,,,,./stim/wavs/puertorican_mismatch_interrogative-total-yn_El-hombre-mira-la-luna.wav,1,,,233.0264,235.341,0,0,1.7881,,0,85,85,39,1,40,1,puertorican,,,,,,,,,,,,,,,,,,,,,,,,,,,,,,,,,,,,,,,,,,,,,,,,,,,,,,,,
,,,,,,,,,67924313eb24f3a077d26376,none,13 or older,"no, only English or Spanish",no,2025-08-13_17h54.55.404,empathy_intonation_perc_control,2024.2.4,Linux x86_64,60.24096386,67924313eb24f3a077d26376,68817205a84113384fffdfe3,689d09845b179513d6515248,,,,,,,,,,,,./stim/wavs/castilian_match_interrogative-total-yn_Manuela-vende-el-carro.wav,1,,,235.3416,237.5547,1,1,1.6836,,0,86,86,2,1,3,0,castilian,,,,,,,,,,,,,,,,,,,,,,,,,,,,,,,,,,,,,,,,,,,,,,,,,,,,,,,,
,,,,,,,,,67924313eb24f3a077d26376,none,13 or older,"no, only English or Spanish",no,2025-08-13_17h54.55.404,empathy_intonation_perc_control,2024.2.4,Linux x86_64,60.24096386,67924313eb24f3a077d26376,68817205a84113384fffdfe3,689d09845b179513d6515248,,,,,,,,,,,,./stim/wavs/puertorican_match_declarative-broad-focus_Daniel-iba-a-Bolivia.wav,0,,,237.5552,239.6027,0,1,1.5148,,0,87,87,63,1,64,0,puertorican,,,,,,,,,,,,,,,,,,,,,,,,,,,,,,,,,,,,,,,,,,,,,,,,,,,,,,,,
,,,,,,,"Great! Now we will move on. The next task consists of about 60 trials, in each of which you will see a string of letters. 
  
  Your task is to decide whether this is a real Spanish word or not.", (press the spacebar to continue),67924313eb24f3a077d26376,none,13 or older,"no, only English or Spanish",no,2025-08-13_17h54.55.404,empathy_intonation_perc_control,2024.2.4,Linux x86_64,60.24096386,67924313eb24f3a077d26376,68817205a84113384fffdfe3,689d09845b179513d6515248,,,,,,,,,,,,,,,,,,,,,,,,,,,,,,239.6107,246.0669,0,0,0,0,1,,,,,,,,,,,,,,,,,,,,,,,,,,,,,,,,,,,,,,,,,,,,,,,,,
,,,,,,,"If you think it is an existing Spanish word, you type '1' (for 'REAL'), and if you think it is not an existing Spanish word, you type '0' (for 'FAKE').", (press the spacebar to continue),67924313eb24f3a077d26376,none,13 or older,"no, only English or Spanish",no,2025-08-13_17h54.55.404,empathy_intonation_perc_control,2024.2.4,Linux x86_64,60.24096386,67924313eb24f3a077d26376,68817205a84113384fffdfe3,689d09845b179513d6515248,,,,,,,,,,,,,,,,,,,,,,,,,,,,,,246.0695,250.5597,0,1,1,1,1,,,,,,,,,,,,,,,,,,,,,,,,,,,,,,,,,,,,,,,,,,,,,,,,,
,,,,,,,"If you are sure that the word exists, even though you don’t know its exact meaning, you may still respond '1' (REAL). 
  
  But if you are not sure if it is an existing word, you should respond '0' (FAKE).
  
  Let's do a practice round...", (press the spacebar to continue),67924313eb24f3a077d26376,none,13 or older,"no, only English or Spanish",no,2025-08-13_17h54.55.404,empathy_intonation_perc_control,2024.2.4,Linux x86_64,60.24096386,67924313eb24f3a077d26376,68817205a84113384fffdfe3,689d09845b179513d6515248,,,,,,,,,,,,,,,,,,,,,,,,,,,,,,250.5626,260.3012,0,2,2,2,1,,,,,,,,,,,,,,,,,,,,,,,,,,,,,,,,,,,,,,,,,,,,,,,,,
,,,,,,,,,67924313eb24f3a077d26376,none,13 or older,"no, only English or Spanish",no,2025-08-13_17h54.55.404,empathy_intonation_perc_control,2024.2.4,Linux x86_64,60.24096386,67924313eb24f3a077d26376,68817205a84113384fffdfe3,689d09845b179513d6515248,,,,,,,,,,,,,0,,,,,,,,,,,,,,,,,,,,,,,,260.3093,263.6653,0,1,2.8317,,263.6656,264.664,0,0,0,0,1,0,depiste,REAL,FAKE,,,,,,,,,,,,,,,,,,,,,,,,,,,,,,,,
,,,,,,,,,67924313eb24f3a077d26376,none,13 or older,"no, only English or Spanish",no,2025-08-13_17h54.55.404,empathy_intonation_perc_control,2024.2.4,Linux x86_64,60.24096386,67924313eb24f3a077d26376,68817205a84113384fffdfe3,689d09845b179513d6515248,,,,,,,,,,,,,1,,,,,,,,,,,,,,,,,,,,,,,,264.6656,266.3959,1,1,1.196,,266.396,267.395,0,1,1,1,1,0,sí,REAL,FAKE,,,,,,,,,,,,,,,,,,,,,,,,,,,,,,,,
,,,,,,,,,67924313eb24f3a077d26376,none,13 or older,"no, only English or Spanish",no,2025-08-13_17h54.55.404,empathy_intonation_perc_control,2024.2.4,Linux x86_64,60.24096386,67924313eb24f3a077d26376,68817205a84113384fffdfe3,689d09845b179513d6515248,,,,,,,,,,,,,0,,,,,,,,,,,,,,,,,,,,,,,,267.3963,269.6265,0,1,1.6941,,269.6265,270.6256,0,2,2,2,1,0,coné,REAL,FAKE,,,,,,,,,,,,,,,,,,,,,,,,,,,,,,,,
,,,,,,,,,67924313eb24f3a077d26376,none,13 or older,"no, only English or Spanish",no,2025-08-13_17h54.55.404,empathy_intonation_perc_control,2024.2.4,Linux x86_64,60.24096386,67924313eb24f3a077d26376,68817205a84113384fffdfe3,689d09845b179513d6515248,,,,,,,,,,,,,0,,,,,,,,,,,,,,,,,,,,,,,,270.6269,272.3915,0,1,1.2292,,272.3917,273.3901,0,3,3,3,1,0,calpar,REAL,FAKE,,,,,,,,,,,,,,,,,,,,,,,,,,,,,,,,
,,,,,,,,,67924313eb24f3a077d26376,none,13 or older,"no, only English or Spanish",no,2025-08-13_17h54.55.404,empathy_intonation_perc_control,2024.2.4,Linux x86_64,60.24096386,67924313eb24f3a077d26376,68817205a84113384fffdfe3,689d09845b179513d6515248,,,,,,,,,,,,,0,,,,,,,,,,,,,,,,,,,,,,,,273.3919,274.8723,0,1,0.9415,,274.8724,275.8715,0,4,4,4,1,0,joten,REAL,FAKE,,,,,,,,,,,,,,,,,,,,,,,,,,,,,,,,
,,,,,,,,,67924313eb24f3a077d26376,none,13 or older,"no, only English or Spanish",no,2025-08-13_17h54.55.404,empathy_intonation_perc_control,2024.2.4,Linux x86_64,60.24096386,67924313eb24f3a077d26376,68817205a84113384fffdfe3,689d09845b179513d6515248,,,,,,,,,,,,,1,,,,,,,,,,,,,,,,,,,,,,,,275.8744,278.3048,1,1,1.8985,,278.3055,279.3012,0,5,5,5,1,0,sacapuntas,REAL,FAKE,,,,,,,,,,,,,,,,,,,,,,,,,,,,,,,,
,,,,,,,,,67924313eb24f3a077d26376,none,13 or older,"no, only English or Spanish",no,2025-08-13_17h54.55.404,empathy_intonation_perc_control,2024.2.4,Linux x86_64,60.24096386,67924313eb24f3a077d26376,68817205a84113384fffdfe3,689d09845b179513d6515248,,,,,,,,,,,,,0,,,,,,,,,,,,,,,,,,,,,,,,279.3024,281.4339,1,0,1.5969,,281.4364,282.4325,0,6,6,6,1,0,priba,REAL,FAKE,,,,,,,,,,,,,,,,,,,,,,,,,,,,,,,,
,,,,,,,,,67924313eb24f3a077d26376,none,13 or older,"no, only English or Spanish",no,2025-08-13_17h54.55.404,empathy_intonation_perc_control,2024.2.4,Linux x86_64,60.24096386,67924313eb24f3a077d26376,68817205a84113384fffdfe3,689d09845b179513d6515248,,,,,,,,,,,,,0,,,,,,,,,,,,,,,,,,,,,,,,282.4351,284.4647,0,1,1.4924,,284.4664,285.4652,0,7,7,7,1,0,pelasula,REAL,FAKE,,,,,,,,,,,,,,,,,,,,,,,,,,,,,,,,
,,,,,,,,,67924313eb24f3a077d26376,none,13 or older,"no, only English or Spanish",no,2025-08-13_17h54.55.404,empathy_intonation_perc_control,2024.2.4,Linux x86_64,60.24096386,67924313eb24f3a077d26376,68817205a84113384fffdfe3,689d09845b179513d6515248,,,,,,,,,,,,,1,,,,,,,,,,,,,,,,,,,,,,,,285.4677,287.6121,0,0,1.6072,,287.6142,288.6099,0,8,8,8,1,0,bien,REAL,FAKE,,,,,,,,,,,,,,,,,,,,,,,,,,,,,,,,
,,,,,,,,,67924313eb24f3a077d26376,none,13 or older,"no, only English or Spanish",no,2025-08-13_17h54.55.404,empathy_intonation_perc_control,2024.2.4,Linux x86_64,60.24096386,67924313eb24f3a077d26376,68817205a84113384fffdfe3,689d09845b179513d6515248,,,,,,,,,,,,,1,,,,,,,,,,,,,,,,,,,,,,,,288.6111,290.0421,1,1,0.9023,,290.0436,291.0424,0,9,9,9,1,0,casa,REAL,FAKE,,,,,,,,,,,,,,,,,,,,,,,,,,,,,,,,
,,,,,,,,,67924313eb24f3a077d26376,none,13 or older,"no, only English or Spanish",no,2025-08-13_17h54.55.404,empathy_intonation_perc_control,2024.2.4,Linux x86_64,60.24096386,67924313eb24f3a077d26376,68817205a84113384fffdfe3,689d09845b179513d6515248,,,,,,,,,,,,,0,,,,,,,,,,,,,,,,,,,,,,,,291.0457,293.0565,1,0,1.4808,,293.0592,294.0548,0,10,10,10,1,0,lejo,REAL,FAKE,,,,,,,,,,,,,,,,,,,,,,,,,,,,,,,,
,,,,,,,,,67924313eb24f3a077d26376,none,13 or older,"no, only English or Spanish",no,2025-08-13_17h54.55.404,empathy_intonation_perc_control,2024.2.4,Linux x86_64,60.24096386,67924313eb24f3a077d26376,68817205a84113384fffdfe3,689d09845b179513d6515248,,,,,,,,,,,,,0,,,,,,,,,,,,,,,,,,,,,,,,294.0562,295.9557,1,0,1.3703,,295.9559,296.9538,0,11,11,11,1,0,pretantas,REAL,FAKE,,,,,,,,,,,,,,,,,,,,,,,,,,,,,,,,
,,,,,,,,,67924313eb24f3a077d26376,none,13 or older,"no, only English or Spanish",no,2025-08-13_17h54.55.404,empathy_intonation_perc_control,2024.2.4,Linux x86_64,60.24096386,67924313eb24f3a077d26376,68817205a84113384fffdfe3,689d09845b179513d6515248,,,,,,,,,,,,,,,,,,,,,,,,,,,,,,,,,,,,,,,,,,,,,,,,,,,,,,296.9547,298.1043,,,,,,,,,,,,,,,,,,,,,,,,,,,,,,
,,,,,,,,,67924313eb24f3a077d26376,none,13 or older,"no, only English or Spanish",no,2025-08-13_17h54.55.404,empathy_intonation_perc_control,2024.2.4,Linux x86_64,60.24096386,67924313eb24f3a077d26376,68817205a84113384fffdfe3,689d09845b179513d6515248,,,,,,,,,,,,,1,,,,,,,,,,,,,,,,,,,,,,,,,,,,,,,,,,,,,64,orgulloso,,,,,298.1507,300.1674,1,1,1.4935,,0,0,0,63,1,REAL,FAKE,,,,,,,,,,,,,,,,,
,,,,,,,,,67924313eb24f3a077d26376,none,13 or older,"no, only English or Spanish",no,2025-08-13_17h54.55.404,empathy_intonation_perc_control,2024.2.4,Linux x86_64,60.24096386,67924313eb24f3a077d26376,68817205a84113384fffdfe3,689d09845b179513d6515248,,,,,,,,,,,,,0,,,,,,,,,,,,,,,,,,,,,,,,,,,,,,,,,,,,,72,pemición,,,,,300.1699,303.038,1,0,2.3283,,0,1,1,71,1,REAL,FAKE,,,,,,,,,,,,,,,,,
,,,,,,,,,67924313eb24f3a077d26376,none,13 or older,"no, only English or Spanish",no,2025-08-13_17h54.55.404,empathy_intonation_perc_control,2024.2.4,Linux x86_64,60.24096386,67924313eb24f3a077d26376,68817205a84113384fffdfe3,689d09845b179513d6515248,,,,,,,,,,,,,1,,,,,,,,,,,,,,,,,,,,,,,,,,,,,,,,,,,,,69,engatusar,,,,,303.041,304.5985,0,0,1.0307,,0,2,2,68,1,REAL,FAKE,,,,,,,,,,,,,,,,,
,,,,,,,,,67924313eb24f3a077d26376,none,13 or older,"no, only English or Spanish",no,2025-08-13_17h54.55.404,empathy_intonation_perc_control,2024.2.4,Linux x86_64,60.24096386,67924313eb24f3a077d26376,68817205a84113384fffdfe3,689d09845b179513d6515248,,,,,,,,,,,,,0,,,,,,,,,,,,,,,,,,,,,,,,,,,,,,,,,,,,,87,grodo,,,,,304.6011,306.9297,1,0,1.8077,,0,3,3,86,1,REAL,FAKE,,,,,,,,,,,,,,,,,
,,,,,,,,,67924313eb24f3a077d26376,none,13 or older,"no, only English or Spanish",no,2025-08-13_17h54.55.404,empathy_intonation_perc_control,2024.2.4,Linux x86_64,60.24096386,67924313eb24f3a077d26376,68817205a84113384fffdfe3,689d09845b179513d6515248,,,,,,,,,,,,,1,,,,,,,,,,,,,,,,,,,,,,,,,,,,,,,,,,,,,91,click the 1 key.,,,,,306.9328,308.9592,1,1,1.4866,,0,4,4,90,1,REAL,FAKE,,,,,,,,,,,,,,,,,
,,,,,,,,,67924313eb24f3a077d26376,none,13 or older,"no, only English or Spanish",no,2025-08-13_17h54.55.404,empathy_intonation_perc_control,2024.2.4,Linux x86_64,60.24096386,67924313eb24f3a077d26376,68817205a84113384fffdfe3,689d09845b179513d6515248,,,,,,,,,,,,,0,,,,,,,,,,,,,,,,,,,,,,,,,,,,,,,,,,,,,17,floroso,,,,,308.9618,310.7431,0,1,1.2421,,0,5,5,16,1,REAL,FAKE,,,,,,,,,,,,,,,,,
,,,,,,,,,67924313eb24f3a077d26376,none,13 or older,"no, only English or Spanish",no,2025-08-13_17h54.55.404,empathy_intonation_perc_control,2024.2.4,Linux x86_64,60.24096386,67924313eb24f3a077d26376,68817205a84113384fffdfe3,689d09845b179513d6515248,,,,,,,,,,,,,1,,,,,,,,,,,,,,,,,,,,,,,,,,,,,,,,,,,,,2,pellizcar,,,,,310.7481,312.4065,0,0,1.1351,,0,6,6,1,1,REAL,FAKE,,,,,,,,,,,,,,,,,
,,,,,,,,,67924313eb24f3a077d26376,none,13 or older,"no, only English or Spanish",no,2025-08-13_17h54.55.404,empathy_intonation_perc_control,2024.2.4,Linux x86_64,60.24096386,67924313eb24f3a077d26376,68817205a84113384fffdfe3,689d09845b179513d6515248,,,,,,,,,,,,,0,,,,,,,,,,,,,,,,,,,,,,,,,,,,,,,,,,,,,82,empirador,,,,,312.409,314.0105,1,0,1.0662,,0,7,7,81,1,REAL,FAKE,,,,,,,,,,,,,,,,,
,,,,,,,,,67924313eb24f3a077d26376,none,13 or older,"no, only English or Spanish",no,2025-08-13_17h54.55.404,empathy_intonation_perc_control,2024.2.4,Linux x86_64,60.24096386,67924313eb24f3a077d26376,68817205a84113384fffdfe3,689d09845b179513d6515248,,,,,,,,,,,,,1,,,,,,,,,,,,,,,,,,,,,,,,,,,,,,,,,,,,,51,candado,,,,,314.0139,315.9194,1,1,1.3828,,0,8,8,50,1,REAL,FAKE,,,,,,,,,,,,,,,,,
,,,,,,,,,67924313eb24f3a077d26376,none,13 or older,"no, only English or Spanish",no,2025-08-13_17h54.55.404,empathy_intonation_perc_control,2024.2.4,Linux x86_64,60.24096386,67924313eb24f3a077d26376,68817205a84113384fffdfe3,689d09845b179513d6515248,,,,,,,,,,,,,1,,,,,,,,,,,,,,,,,,,,,,,,,,,,,,,,,,,,,76,atar,,,,,315.9205,317.6372,0,0,1.1813,,0,9,9,75,1,REAL,FAKE,,,,,,,,,,,,,,,,,
,,,,,,,,,67924313eb24f3a077d26376,none,13 or older,"no, only English or Spanish",no,2025-08-13_17h54.55.404,empathy_intonation_perc_control,2024.2.4,Linux x86_64,60.24096386,67924313eb24f3a077d26376,68817205a84113384fffdfe3,689d09845b179513d6515248,,,,,,,,,,,,,1,,,,,,,,,,,,,,,,,,,,,,,,,,,,,,,,,,,,,57,tacaño,,,,,317.6424,319.0873,1,1,0.9154,,0,10,10,56,1,REAL,FAKE,,,,,,,,,,,,,,,,,
,,,,,,,,,67924313eb24f3a077d26376,none,13 or older,"no, only English or Spanish",no,2025-08-13_17h54.55.404,empathy_intonation_perc_control,2024.2.4,Linux x86_64,60.24096386,67924313eb24f3a077d26376,68817205a84113384fffdfe3,689d09845b179513d6515248,,,,,,,,,,,,,1,,,,,,,,,,,,,,,,,,,,,,,,,,,,,,,,,,,,,89,prisa,,,,,319.0902,320.8658,0,0,1.243,,0,11,11,88,1,REAL,FAKE,,,,,,,,,,,,,,,,,
,,,,,,,,,67924313eb24f3a077d26376,none,13 or older,"no, only English or Spanish",no,2025-08-13_17h54.55.404,empathy_intonation_perc_control,2024.2.4,Linux x86_64,60.24096386,67924313eb24f3a077d26376,68817205a84113384fffdfe3,689d09845b179513d6515248,,,,,,,,,,,,,1,,,,,,,,,,,,,,,,,,,,,,,,,,,,,,,,,,,,,12,asesinato,,,,,320.8683,322.8302,1,1,1.4244,,0,12,12,11,1,REAL,FAKE,,,,,,,,,,,,,,,,,
,,,,,,,,,67924313eb24f3a077d26376,none,13 or older,"no, only English or Spanish",no,2025-08-13_17h54.55.404,empathy_intonation_perc_control,2024.2.4,Linux x86_64,60.24096386,67924313eb24f3a077d26376,68817205a84113384fffdfe3,689d09845b179513d6515248,,,,,,,,,,,,,1,,,,,,,,,,,,,,,,,,,,,,,,,,,,,,,,,,,,,52,camisa,,,,,322.8322,324.6138,0,0,1.2565,,0,13,13,51,1,REAL,FAKE,,,,,,,,,,,,,,,,,
,,,,,,,,,67924313eb24f3a077d26376,none,13 or older,"no, only English or Spanish",no,2025-08-13_17h54.55.404,empathy_intonation_perc_control,2024.2.4,Linux x86_64,60.24096386,67924313eb24f3a077d26376,68817205a84113384fffdfe3,689d09845b179513d6515248,,,,,,,,,,,,,0,,,,,,,,,,,,,,,,,,,,,,,,,,,,,,,,,,,,,79,tropaje,,,,,324.6164,326.4461,0,1,1.3003,,0,14,14,78,1,REAL,FAKE,,,,,,,,,,,,,,,,,
,,,,,,,,,67924313eb24f3a077d26376,none,13 or older,"no, only English or Spanish",no,2025-08-13_17h54.55.404,empathy_intonation_perc_control,2024.2.4,Linux x86_64,60.24096386,67924313eb24f3a077d26376,68817205a84113384fffdfe3,689d09845b179513d6515248,,,,,,,,,,,,,1,,,,,,,,,,,,,,,,,,,,,,,,,,,,,,,,,,,,,56,musgo,,,,,326.4486,328.2259,0,0,1.2435,,0,15,15,55,1,REAL,FAKE,,,,,,,,,,,,,,,,,
,,,,,,,,,67924313eb24f3a077d26376,none,13 or older,"no, only English or Spanish",no,2025-08-13_17h54.55.404,empathy_intonation_perc_control,2024.2.4,Linux x86_64,60.24096386,67924313eb24f3a077d26376,68817205a84113384fffdfe3,689d09845b179513d6515248,,,,,,,,,,,,,0,,,,,,,,,,,,,,,,,,,,,,,,,,,,,,,,,,,,,29,decar,,,,,328.2284,329.9077,0,1,1.1442,,0,16,16,28,1,REAL,FAKE,,,,,,,,,,,,,,,,,
,,,,,,,,,67924313eb24f3a077d26376,none,13 or older,"no, only English or Spanish",no,2025-08-13_17h54.55.404,empathy_intonation_perc_control,2024.2.4,Linux x86_64,60.24096386,67924313eb24f3a077d26376,68817205a84113384fffdfe3,689d09845b179513d6515248,,,,,,,,,,,,,1,,,,,,,,,,,,,,,,,,,,,,,,,,,,,,,,,,,,,75,yacer,,,,,329.9105,331.4075,0,0,0.9677,,0,17,17,74,1,REAL,FAKE,,,,,,,,,,,,,,,,,
,,,,,,,,,67924313eb24f3a077d26376,none,13 or older,"no, only English or Spanish",no,2025-08-13_17h54.55.404,empathy_intonation_perc_control,2024.2.4,Linux x86_64,60.24096386,67924313eb24f3a077d26376,68817205a84113384fffdfe3,689d09845b179513d6515248,,,,,,,,,,,,,0,,,,,,,,,,,,,,,,,,,,,,,,,,,,,,,,,,,,,30,alardio,,,,,331.4102,333.023,1,0,1.0797,,0,18,18,29,1,REAL,FAKE,,,,,,,,,,,,,,,,,
,,,,,,,,,67924313eb24f3a077d26376,none,13 or older,"no, only English or Spanish",no,2025-08-13_17h54.55.404,empathy_intonation_perc_control,2024.2.4,Linux x86_64,60.24096386,67924313eb24f3a077d26376,68817205a84113384fffdfe3,689d09845b179513d6515248,,,,,,,,,,,,,1,,,,,,,,,,,,,,,,,,,,,,,,,,,,,,,,,,,,,73,hervidor,,,,,333.0262,334.9372,0,0,1.3779,,0,19,19,72,1,REAL,FAKE,,,,,,,,,,,,,,,,,
,,,,,,,,,67924313eb24f3a077d26376,none,13 or older,"no, only English or Spanish",no,2025-08-13_17h54.55.404,empathy_intonation_perc_control,2024.2.4,Linux x86_64,60.24096386,67924313eb24f3a077d26376,68817205a84113384fffdfe3,689d09845b179513d6515248,,,,,,,,,,,,,1,,,,,,,,,,,,,,,,,,,,,,,,,,,,,,,,,,,,,7,pésimo,,,,,334.9397,336.9015,1,1,1.4314,,0,20,20,6,1,REAL,FAKE,,,,,,,,,,,,,,,,,
,,,,,,,,,67924313eb24f3a077d26376,none,13 or older,"no, only English or Spanish",no,2025-08-13_17h54.55.404,empathy_intonation_perc_control,2024.2.4,Linux x86_64,60.24096386,67924313eb24f3a077d26376,68817205a84113384fffdfe3,689d09845b179513d6515248,,,,,,,,,,,,,1,,,,,,,,,,,,,,,,,,,,,,,,,,,,,,,,,,,,,81,pozo,,,,,336.9046,338.2998,0,0,0.8614,,0,21,21,80,1,REAL,FAKE,,,,,,,,,,,,,,,,,
,,,,,,,,,67924313eb24f3a077d26376,none,13 or older,"no, only English or Spanish",no,2025-08-13_17h54.55.404,empathy_intonation_perc_control,2024.2.4,Linux x86_64,60.24096386,67924313eb24f3a077d26376,68817205a84113384fffdfe3,689d09845b179513d6515248,,,,,,,,,,,,,1,,,,,,,,,,,,,,,,,,,,,,,,,,,,,,,,,,,,,43,canela,,,,,338.3009,339.8657,0,0,1.026,,0,22,22,42,1,REAL,FAKE,,,,,,,,,,,,,,,,,
,,,,,,,,,67924313eb24f3a077d26376,none,13 or older,"no, only English or Spanish",no,2025-08-13_17h54.55.404,empathy_intonation_perc_control,2024.2.4,Linux x86_64,60.24096386,67924313eb24f3a077d26376,68817205a84113384fffdfe3,689d09845b179513d6515248,,,,,,,,,,,,,1,,,,,,,,,,,,,,,,,,,,,,,,,,,,,,,,,,,,,34,aviso,,,,,339.8716,341.7639,0,0,1.3589,,0,23,23,33,1,REAL,FAKE,,,,,,,,,,,,,,,,,
,,,,,,,,,67924313eb24f3a077d26376,none,13 or older,"no, only English or Spanish",no,2025-08-13_17h54.55.404,empathy_intonation_perc_control,2024.2.4,Linux x86_64,60.24096386,67924313eb24f3a077d26376,68817205a84113384fffdfe3,689d09845b179513d6515248,,,,,,,,,,,,,1,,,,,,,,,,,,,,,,,,,,,,,,,,,,,,,,,,,,,60,matar,,,,,341.7663,343.2625,0,0,0.9592,,0,24,24,59,1,REAL,FAKE,,,,,,,,,,,,,,,,,
,,,,,,,,,67924313eb24f3a077d26376,none,13 or older,"no, only English or Spanish",no,2025-08-13_17h54.55.404,empathy_intonation_perc_control,2024.2.4,Linux x86_64,60.24096386,67924313eb24f3a077d26376,68817205a84113384fffdfe3,689d09845b179513d6515248,,,,,,,,,,,,,1,,,,,,,,,,,,,,,,,,,,,,,,,,,,,,,,,,,,,61,seda,,,,,343.2647,344.7463,0,0,0.9519,,0,25,25,60,1,REAL,FAKE,,,,,,,,,,,,,,,,,
,,,,,,,,,67924313eb24f3a077d26376,none,13 or older,"no, only English or Spanish",no,2025-08-13_17h54.55.404,empathy_intonation_perc_control,2024.2.4,Linux x86_64,60.24096386,67924313eb24f3a077d26376,68817205a84113384fffdfe3,689d09845b179513d6515248,,,,,,,,,,,,,1,,,,,,,,,,,,,,,,,,,,,,,,,,,,,,,,,,,,,77,tiburón,,,,,344.749,346.4105,1,1,1.1252,,0,26,26,76,1,REAL,FAKE,,,,,,,,,,,,,,,,,
,,,,,,,,,67924313eb24f3a077d26376,none,13 or older,"no, only English or Spanish",no,2025-08-13_17h54.55.404,empathy_intonation_perc_control,2024.2.4,Linux x86_64,60.24096386,67924313eb24f3a077d26376,68817205a84113384fffdfe3,689d09845b179513d6515248,,,,,,,,,,,,,1,,,,,,,,,,,,,,,,,,,,,,,,,,,,,,,,,,,,,45,jilguero,,,,,346.4125,348.0416,0,0,1.0913,,0,27,27,44,1,REAL,FAKE,,,,,,,,,,,,,,,,,
,,,,,,,,,67924313eb24f3a077d26376,none,13 or older,"no, only English or Spanish",no,2025-08-13_17h54.55.404,empathy_intonation_perc_control,2024.2.4,Linux x86_64,60.24096386,67924313eb24f3a077d26376,68817205a84113384fffdfe3,689d09845b179513d6515248,,,,,,,,,,,,,1,,,,,,,,,,,,,,,,,,,,,,,,,,,,,,,,,,,,,31,pandilla,,,,,348.0443,349.524,1,1,0.9502,,0,28,28,30,1,REAL,FAKE,,,,,,,,,,,,,,,,,
,,,,,,,,,67924313eb24f3a077d26376,none,13 or older,"no, only English or Spanish",no,2025-08-13_17h54.55.404,empathy_intonation_perc_control,2024.2.4,Linux x86_64,60.24096386,67924313eb24f3a077d26376,68817205a84113384fffdfe3,689d09845b179513d6515248,,,,,,,,,,,,,1,,,,,,,,,,,,,,,,,,,,,,,,,,,,,,,,,,,,,86,barato,,,,,349.5271,351.9225,1,1,1.8591,,0,29,29,85,1,REAL,FAKE,,,,,,,,,,,,,,,,,
,,,,,,,,,67924313eb24f3a077d26376,none,13 or older,"no, only English or Spanish",no,2025-08-13_17h54.55.404,empathy_intonation_perc_control,2024.2.4,Linux x86_64,60.24096386,67924313eb24f3a077d26376,68817205a84113384fffdfe3,689d09845b179513d6515248,,,,,,,,,,,,,0,,,,,,,,,,,,,,,,,,,,,,,,,,,,,,,,,,,,,50,flamida,,,,,351.9254,353.4268,0,1,0.9659,,0,30,30,49,1,REAL,FAKE,,,,,,,,,,,,,,,,,
,,,,,,,,,67924313eb24f3a077d26376,none,13 or older,"no, only English or Spanish",no,2025-08-13_17h54.55.404,empathy_intonation_perc_control,2024.2.4,Linux x86_64,60.24096386,67924313eb24f3a077d26376,68817205a84113384fffdfe3,689d09845b179513d6515248,,,,,,,,,,,,,0,,,,,,,,,,,,,,,,,,,,,,,,,,,,,,,,,,,,,18,arsa,,,,,353.4294,354.9689,0,1,1.012,,0,31,31,17,1,REAL,FAKE,,,,,,,,,,,,,,,,,
,,,,,,,,,67924313eb24f3a077d26376,none,13 or older,"no, only English or Spanish",no,2025-08-13_17h54.55.404,empathy_intonation_perc_control,2024.2.4,Linux x86_64,60.24096386,67924313eb24f3a077d26376,68817205a84113384fffdfe3,689d09845b179513d6515248,,,,,,,,,,,,,0,,,,,,,,,,,,,,,,,,,,,,,,,,,,,,,,,,,,,23,lampera,,,,,354.9714,357.5834,1,0,2.0729,,0,32,32,22,1,REAL,FAKE,,,,,,,,,,,,,,,,,
,,,,,,,,,67924313eb24f3a077d26376,none,13 or older,"no, only English or Spanish",no,2025-08-13_17h54.55.404,empathy_intonation_perc_control,2024.2.4,Linux x86_64,60.24096386,67924313eb24f3a077d26376,68817205a84113384fffdfe3,689d09845b179513d6515248,,,,,,,,,,,,,0,,,,,,,,,,,,,,,,,,,,,,,,,,,,,,,,,,,,,42,cadallo,,,,,357.5865,359.3,0,1,1.1807,,0,33,33,41,1,REAL,FAKE,,,,,,,,,,,,,,,,,
,,,,,,,,,67924313eb24f3a077d26376,none,13 or older,"no, only English or Spanish",no,2025-08-13_17h54.55.404,empathy_intonation_perc_control,2024.2.4,Linux x86_64,60.24096386,67924313eb24f3a077d26376,68817205a84113384fffdfe3,689d09845b179513d6515248,,,,,,,,,,,,,1,,,,,,,,,,,,,,,,,,,,,,,,,,,,,,,,,,,,,54,fomentar,,,,,359.3011,361.0822,0,0,1.2451,,0,34,34,53,1,REAL,FAKE,,,,,,,,,,,,,,,,,
,,,,,,,,,67924313eb24f3a077d26376,none,13 or older,"no, only English or Spanish",no,2025-08-13_17h54.55.404,empathy_intonation_perc_control,2024.2.4,Linux x86_64,60.24096386,67924313eb24f3a077d26376,68817205a84113384fffdfe3,689d09845b179513d6515248,,,,,,,,,,,,,0,,,,,,,,,,,,,,,,,,,,,,,,,,,,,,,,,,,,,33,pauca,,,,,361.0848,363.5455,0,1,1.9233,,0,35,35,32,1,REAL,FAKE,,,,,,,,,,,,,,,,,
,,,,,,,,,67924313eb24f3a077d26376,none,13 or older,"no, only English or Spanish",no,2025-08-13_17h54.55.404,empathy_intonation_perc_control,2024.2.4,Linux x86_64,60.24096386,67924313eb24f3a077d26376,68817205a84113384fffdfe3,689d09845b179513d6515248,,,,,,,,,,,,,0,,,,,,,,,,,,,,,,,,,,,,,,,,,,,,,,,,,,,63,esposante,,,,,363.548,365.2833,1,0,1.2026,,0,36,36,62,1,REAL,FAKE,,,,,,,,,,,,,,,,,
,,,,,,,,,67924313eb24f3a077d26376,none,13 or older,"no, only English or Spanish",no,2025-08-13_17h54.55.404,empathy_intonation_perc_control,2024.2.4,Linux x86_64,60.24096386,67924313eb24f3a077d26376,68817205a84113384fffdfe3,689d09845b179513d6515248,,,,,,,,,,,,,1,,,,,,,,,,,,,,,,,,,,,,,,,,,,,,,,,,,,,44,cuchara,,,,,365.2867,367.8408,1,1,2.0219,,0,37,37,43,1,REAL,FAKE,,,,,,,,,,,,,,,,,
,,,,,,,,,67924313eb24f3a077d26376,none,13 or older,"no, only English or Spanish",no,2025-08-13_17h54.55.404,empathy_intonation_perc_control,2024.2.4,Linux x86_64,60.24096386,67924313eb24f3a077d26376,68817205a84113384fffdfe3,689d09845b179513d6515248,,,,,,,,,,,,,1,,,,,,,,,,,,,,,,,,,,,,,,,,,,,,,,,,,,,88,acantilado,,,,,367.8423,369.6897,1,1,1.3131,,0,38,38,87,1,REAL,FAKE,,,,,,,,,,,,,,,,,
,,,,,,,,,67924313eb24f3a077d26376,none,13 or older,"no, only English or Spanish",no,2025-08-13_17h54.55.404,empathy_intonation_perc_control,2024.2.4,Linux x86_64,60.24096386,67924313eb24f3a077d26376,68817205a84113384fffdfe3,689d09845b179513d6515248,,,,,,,,,,,,,1,,,,,,,,,,,,,,,,,,,,,,,,,,,,,,,,,,,,,55,nevar,,,,,369.6923,371.0214,0,0,0.7912,,0,39,39,54,1,REAL,FAKE,,,,,,,,,,,,,,,,,
,,,,,,,,,67924313eb24f3a077d26376,none,13 or older,"no, only English or Spanish",no,2025-08-13_17h54.55.404,empathy_intonation_perc_control,2024.2.4,Linux x86_64,60.24096386,67924313eb24f3a077d26376,68817205a84113384fffdfe3,689d09845b179513d6515248,,,,,,,,,,,,,0,,,,,,,,,,,,,,,,,,,,,,,,,,,,,,,,,,,,,58,plaudir,,,,,371.0227,372.5062,0,1,0.9484,,0,40,40,57,1,REAL,FAKE,,,,,,,,,,,,,,,,,
,,,,,,,,,67924313eb24f3a077d26376,none,13 or older,"no, only English or Spanish",no,2025-08-13_17h54.55.404,empathy_intonation_perc_control,2024.2.4,Linux x86_64,60.24096386,67924313eb24f3a077d26376,68817205a84113384fffdfe3,689d09845b179513d6515248,,,,,,,,,,,,,1,,,,,,,,,,,,,,,,,,,,,,,,,,,,,,,,,,,,,48,ladrón,,,,,372.5087,374.174,1,1,1.1353,,0,41,41,47,1,REAL,FAKE,,,,,,,,,,,,,,,,,
,,,,,,,,,67924313eb24f3a077d26376,none,13 or older,"no, only English or Spanish",no,2025-08-13_17h54.55.404,empathy_intonation_perc_control,2024.2.4,Linux x86_64,60.24096386,67924313eb24f3a077d26376,68817205a84113384fffdfe3,689d09845b179513d6515248,,,,,,,,,,,,,1,,,,,,,,,,,,,,,,,,,,,,,,,,,,,,,,,,,,,65,bizcocho,,,,,374.1767,375.737,0,0,1.0322,,0,42,42,64,1,REAL,FAKE,,,,,,,,,,,,,,,,,
,,,,,,,,,67924313eb24f3a077d26376,none,13 or older,"no, only English or Spanish",no,2025-08-13_17h54.55.404,empathy_intonation_perc_control,2024.2.4,Linux x86_64,60.24096386,67924313eb24f3a077d26376,68817205a84113384fffdfe3,689d09845b179513d6515248,,,,,,,,,,,,,1,,,,,,,,,,,,,,,,,,,,,,,,,,,,,,,,,,,,,90,clavel,,,,,375.7412,377.2512,0,0,0.9764,,0,43,43,89,1,REAL,FAKE,,,,,,,,,,,,,,,,,
,,,,,,,,,67924313eb24f3a077d26376,none,13 or older,"no, only English or Spanish",no,2025-08-13_17h54.55.404,empathy_intonation_perc_control,2024.2.4,Linux x86_64,60.24096386,67924313eb24f3a077d26376,68817205a84113384fffdfe3,689d09845b179513d6515248,,,,,,,,,,,,,1,,,,,,,,,,,,,,,,,,,,,,,,,,,,,,,,,,,,,6,tergiversar,,,,,377.2539,378.9016,0,0,1.1158,,0,44,44,5,1,REAL,FAKE,,,,,,,,,,,,,,,,,
,,,,,,,,,67924313eb24f3a077d26376,none,13 or older,"no, only English or Spanish",no,2025-08-13_17h54.55.404,empathy_intonation_perc_control,2024.2.4,Linux x86_64,60.24096386,67924313eb24f3a077d26376,68817205a84113384fffdfe3,689d09845b179513d6515248,,,,,,,,,,,,,0,,,,,,,,,,,,,,,,,,,,,,,,,,,,,,,,,,,,,8,cadeña,,,,,378.904,380.3965,1,0,0.9536,,0,45,45,7,1,REAL,FAKE,,,,,,,,,,,,,,,,,
,,,,,,,,,67924313eb24f3a077d26376,none,13 or older,"no, only English or Spanish",no,2025-08-13_17h54.55.404,empathy_intonation_perc_control,2024.2.4,Linux x86_64,60.24096386,67924313eb24f3a077d26376,68817205a84113384fffdfe3,689d09845b179513d6515248,,,,,,,,,,,,,1,,,,,,,,,,,,,,,,,,,,,,,,,,,,,,,,,,,,,26,secuestro,,,,,380.3978,382.295,1,1,1.3624,,0,46,46,25,1,REAL,FAKE,,,,,,,,,,,,,,,,,
,,,,,,,,,67924313eb24f3a077d26376,none,13 or older,"no, only English or Spanish",no,2025-08-13_17h54.55.404,empathy_intonation_perc_control,2024.2.4,Linux x86_64,60.24096386,67924313eb24f3a077d26376,68817205a84113384fffdfe3,689d09845b179513d6515248,,,,,,,,,,,,,1,,,,,,,,,,,,,,,,,,,,,,,,,,,,,,,,,,,,,20,ávido,,,,,382.2968,383.8953,1,1,1.0617,,0,47,47,19,1,REAL,FAKE,,,,,,,,,,,,,,,,,
,,,,,,,,,67924313eb24f3a077d26376,none,13 or older,"no, only English or Spanish",no,2025-08-13_17h54.55.404,empathy_intonation_perc_control,2024.2.4,Linux x86_64,60.24096386,67924313eb24f3a077d26376,68817205a84113384fffdfe3,689d09845b179513d6515248,,,,,,,,,,,,,0,,,,,,,,,,,,,,,,,,,,,,,,,,,,,,,,,,,,,84,escuto,,,,,383.8978,385.9923,1,0,1.5608,,0,48,48,83,1,REAL,FAKE,,,,,,,,,,,,,,,,,
,,,,,,,,,67924313eb24f3a077d26376,none,13 or older,"no, only English or Spanish",no,2025-08-13_17h54.55.404,empathy_intonation_perc_control,2024.2.4,Linux x86_64,60.24096386,67924313eb24f3a077d26376,68817205a84113384fffdfe3,689d09845b179513d6515248,,,,,,,,,,,,,1,,,,,,,,,,,,,,,,,,,,,,,,,,,,,,,,,,,,,83,guante,,,,,385.9968,387.4753,0,0,0.9451,,0,49,49,82,1,REAL,FAKE,,,,,,,,,,,,,,,,,
,,,,,,,,,67924313eb24f3a077d26376,none,13 or older,"no, only English or Spanish",no,2025-08-13_17h54.55.404,empathy_intonation_perc_control,2024.2.4,Linux x86_64,60.24096386,67924313eb24f3a077d26376,68817205a84113384fffdfe3,689d09845b179513d6515248,,,,,,,,,,,,,1,,,,,,,,,,,,,,,,,,,,,,,,,,,,,,,,,,,,,39,torpe,,,,,387.4816,389.0443,0,0,1.0355,,0,50,50,38,1,REAL,FAKE,,,,,,,,,,,,,,,,,
,,,,,,,,,67924313eb24f3a077d26376,none,13 or older,"no, only English or Spanish",no,2025-08-13_17h54.55.404,empathy_intonation_perc_control,2024.2.4,Linux x86_64,60.24096386,67924313eb24f3a077d26376,68817205a84113384fffdfe3,689d09845b179513d6515248,,,,,,,,,,,,,1,,,,,,,,,,,,,,,,,,,,,,,,,,,,,,,,,,,,,36,loro,,,,,389.0474,390.8387,0,0,1.2637,,0,51,51,35,1,REAL,FAKE,,,,,,,,,,,,,,,,,
,,,,,,,,,67924313eb24f3a077d26376,none,13 or older,"no, only English or Spanish",no,2025-08-13_17h54.55.404,empathy_intonation_perc_control,2024.2.4,Linux x86_64,60.24096386,67924313eb24f3a077d26376,68817205a84113384fffdfe3,689d09845b179513d6515248,,,,,,,,,,,,,0,,,,,,,,,,,,,,,,,,,,,,,,,,,,,,,,,,,,,66,hacido,,,,,390.844,392.4562,0,1,1.0834,,0,52,52,65,1,REAL,FAKE,,,,,,,,,,,,,,,,,
,,,,,,,,,67924313eb24f3a077d26376,none,13 or older,"no, only English or Spanish",no,2025-08-13_17h54.55.404,empathy_intonation_perc_control,2024.2.4,Linux x86_64,60.24096386,67924313eb24f3a077d26376,68817205a84113384fffdfe3,689d09845b179513d6515248,,,,,,,,,,,,,1,,,,,,,,,,,,,,,,,,,,,,,,,,,,,,,,,,,,,41,rebuscar,,,,,392.4591,393.9397,0,0,0.9514,,0,53,53,40,1,REAL,FAKE,,,,,,,,,,,,,,,,,
,,,,,,,,,67924313eb24f3a077d26376,none,13 or older,"no, only English or Spanish",no,2025-08-13_17h54.55.404,empathy_intonation_perc_control,2024.2.4,Linux x86_64,60.24096386,67924313eb24f3a077d26376,68817205a84113384fffdfe3,689d09845b179513d6515248,,,,,,,,,,,,,1,,,,,,,,,,,,,,,,,,,,,,,,,,,,,,,,,,,,,80,hormiga,,,,,393.9421,396.6508,1,1,2.1797,,0,54,54,79,1,REAL,FAKE,,,,,,,,,,,,,,,,,
,,,,,,,,,67924313eb24f3a077d26376,none,13 or older,"no, only English or Spanish",no,2025-08-13_17h54.55.404,empathy_intonation_perc_control,2024.2.4,Linux x86_64,60.24096386,67924313eb24f3a077d26376,68817205a84113384fffdfe3,689d09845b179513d6515248,,,,,,,,,,,,,0,,,,,,,,,,,,,,,,,,,,,,,,,,,,,,,,,,,,,74,cintro,,,,,396.6542,398.2648,1,0,1.068,,0,55,55,73,1,REAL,FAKE,,,,,,,,,,,,,,,,,
,,,,,,,,,67924313eb24f3a077d26376,none,13 or older,"no, only English or Spanish",no,2025-08-13_17h54.55.404,empathy_intonation_perc_control,2024.2.4,Linux x86_64,60.24096386,67924313eb24f3a077d26376,68817205a84113384fffdfe3,689d09845b179513d6515248,,,,,,,,,,,,,0,,,,,,,,,,,,,,,,,,,,,,,,,,,,,,,,,,,,,47,cartinar,,,,,398.2675,399.9175,0,1,1.1216,,0,56,56,46,1,REAL,FAKE,,,,,,,,,,,,,,,,,
,,,,,,,,,67924313eb24f3a077d26376,none,13 or older,"no, only English or Spanish",no,2025-08-13_17h54.55.404,empathy_intonation_perc_control,2024.2.4,Linux x86_64,60.24096386,67924313eb24f3a077d26376,68817205a84113384fffdfe3,689d09845b179513d6515248,,,,,,,,,,,,,1,,,,,,,,,,,,,,,,,,,,,,,,,,,,,,,,,,,,,49,ganar,,,,,399.9201,401.4476,0,0,0.992,,0,57,57,48,1,REAL,FAKE,,,,,,,,,,,,,,,,,
,,,,,,,,,67924313eb24f3a077d26376,none,13 or older,"no, only English or Spanish",no,2025-08-13_17h54.55.404,empathy_intonation_perc_control,2024.2.4,Linux x86_64,60.24096386,67924313eb24f3a077d26376,68817205a84113384fffdfe3,689d09845b179513d6515248,,,,,,,,,,,,,0,,,,,,,,,,,,,,,,,,,,,,,,,,,,,,,,,,,,,16,abracer,,,,,401.4515,403.0944,0,1,1.1096,,0,58,58,15,1,REAL,FAKE,,,,,,,,,,,,,,,,,
,,,,,,,,,67924313eb24f3a077d26376,none,13 or older,"no, only English or Spanish",no,2025-08-13_17h54.55.404,empathy_intonation_perc_control,2024.2.4,Linux x86_64,60.24096386,67924313eb24f3a077d26376,68817205a84113384fffdfe3,689d09845b179513d6515248,,,,,,,,,,,,,1,,,,,,,,,,,,,,,,,,,,,,,,,,,,,,,,,,,,,13,helar,,,,,403.1004,404.5923,0,0,0.9532,,0,59,59,12,1,REAL,FAKE,,,,,,,,,,,,,,,,,
,,,,,,,,,67924313eb24f3a077d26376,none,13 or older,"no, only English or Spanish",no,2025-08-13_17h54.55.404,empathy_intonation_perc_control,2024.2.4,Linux x86_64,60.24096386,67924313eb24f3a077d26376,68817205a84113384fffdfe3,689d09845b179513d6515248,,,,,,,,,,,,,1,,,,,,,,,,,,,,,,,,,,,,,,,,,,,,,,,,,,,40,alfombra,,,,,404.5935,406.5082,1,1,1.3774,,0,60,60,39,1,REAL,FAKE,,,,,,,,,,,,,,,,,
,,,,,,,,,67924313eb24f3a077d26376,none,13 or older,"no, only English or Spanish",no,2025-08-13_17h54.55.404,empathy_intonation_perc_control,2024.2.4,Linux x86_64,60.24096386,67924313eb24f3a077d26376,68817205a84113384fffdfe3,689d09845b179513d6515248,,,,,,,,,,,,,0,,,,,,,,,,,,,,,,,,,,,,,,,,,,,,,,,,,,,21,capillo,,,,,406.5097,408.5227,1,0,1.4757,,0,61,61,20,1,REAL,FAKE,,,,,,,,,,,,,,,,,
,,,,,,,,,67924313eb24f3a077d26376,none,13 or older,"no, only English or Spanish",no,2025-08-13_17h54.55.404,empathy_intonation_perc_control,2024.2.4,Linux x86_64,60.24096386,67924313eb24f3a077d26376,68817205a84113384fffdfe3,689d09845b179513d6515248,,,,,,,,,,,,,0,,,,,,,,,,,,,,,,,,,,,,,,,,,,,,,,,,,,,53,vegada,,,,,408.5252,410.0916,0,1,1.0232,,0,62,62,52,1,REAL,FAKE,,,,,,,,,,,,,,,,,
,,,,,,,,,67924313eb24f3a077d26376,none,13 or older,"no, only English or Spanish",no,2025-08-13_17h54.55.404,empathy_intonation_perc_control,2024.2.4,Linux x86_64,60.24096386,67924313eb24f3a077d26376,68817205a84113384fffdfe3,689d09845b179513d6515248,,,,,,,,,,,,,1,,,,,,,,,,,,,,,,,,,,,,,,,,,,,,,,,,,,,25,bisagra,,,,,410.0944,411.6738,0,0,1.0505,,0,63,63,24,1,REAL,FAKE,,,,,,,,,,,,,,,,,
,,,,,,,,,67924313eb24f3a077d26376,none,13 or older,"no, only English or Spanish",no,2025-08-13_17h54.55.404,empathy_intonation_perc_control,2024.2.4,Linux x86_64,60.24096386,67924313eb24f3a077d26376,68817205a84113384fffdfe3,689d09845b179513d6515248,,,,,,,,,,,,,0,,,,,,,,,,,,,,,,,,,,,,,,,,,,,,,,,,,,,70,temblo,,,,,411.6761,413.0689,0,1,0.8668,,0,64,64,69,1,REAL,FAKE,,,,,,,,,,,,,,,,,
,,,,,,,,,67924313eb24f3a077d26376,none,13 or older,"no, only English or Spanish",no,2025-08-13_17h54.55.404,empathy_intonation_perc_control,2024.2.4,Linux x86_64,60.24096386,67924313eb24f3a077d26376,68817205a84113384fffdfe3,689d09845b179513d6515248,,,,,,,,,,,,,1,,,,,,,,,,,,,,,,,,,,,,,,,,,,,,,,,,,,,5,zapato,,,,,413.0713,414.5535,0,0,0.9494,,0,65,65,4,1,REAL,FAKE,,,,,,,,,,,,,,,,,
,,,,,,,,,67924313eb24f3a077d26376,none,13 or older,"no, only English or Spanish",no,2025-08-13_17h54.55.404,empathy_intonation_perc_control,2024.2.4,Linux x86_64,60.24096386,67924313eb24f3a077d26376,68817205a84113384fffdfe3,689d09845b179513d6515248,,,,,,,,,,,,,0,,,,,,,,,,,,,,,,,,,,,,,,,,,,,,,,,,,,,92,click the 0 key.,,,,,414.5571,416.4852,0,1,1.3958,,0,66,66,91,1,REAL,FAKE,,,,,,,,,,,,,,,,,
,,,,,,,,,67924313eb24f3a077d26376,none,13 or older,"no, only English or Spanish",no,2025-08-13_17h54.55.404,empathy_intonation_perc_control,2024.2.4,Linux x86_64,60.24096386,67924313eb24f3a077d26376,68817205a84113384fffdfe3,689d09845b179513d6515248,,,,,,,,,,,,,1,,,,,,,,,,,,,,,,,,,,,,,,,,,,,,,,,,,,,46,martillo,,,,,416.4885,418.0815,0,0,1.0597,,0,67,67,45,1,REAL,FAKE,,,,,,,,,,,,,,,,,
,,,,,,,,,67924313eb24f3a077d26376,none,13 or older,"no, only English or Spanish",no,2025-08-13_17h54.55.404,empathy_intonation_perc_control,2024.2.4,Linux x86_64,60.24096386,67924313eb24f3a077d26376,68817205a84113384fffdfe3,689d09845b179513d6515248,,,,,,,,,,,,,1,,,,,,,,,,,,,,,,,,,,,,,,,,,,,,,,,,,,,67,cabello,,,,,418.0851,419.6797,1,1,1.0574,,0,68,68,66,1,REAL,FAKE,,,,,,,,,,,,,,,,,
,,,,,,,,,67924313eb24f3a077d26376,none,13 or older,"no, only English or Spanish",no,2025-08-13_17h54.55.404,empathy_intonation_perc_control,2024.2.4,Linux x86_64,60.24096386,67924313eb24f3a077d26376,68817205a84113384fffdfe3,689d09845b179513d6515248,,,,,,,,,,,,,1,,,,,,,,,,,,,,,,,,,,,,,,,,,,,,,,,,,,,14,yunque,,,,,419.6826,421.4945,1,1,1.2763,,0,69,69,13,1,REAL,FAKE,,,,,,,,,,,,,,,,,
,,,,,,,,,67924313eb24f3a077d26376,none,13 or older,"no, only English or Spanish",no,2025-08-13_17h54.55.404,empathy_intonation_perc_control,2024.2.4,Linux x86_64,60.24096386,67924313eb24f3a077d26376,68817205a84113384fffdfe3,689d09845b179513d6515248,,,,,,,,,,,,,0,,,,,,,,,,,,,,,,,,,,,,,,,,,,,,,,,,,,,35,rompido,,,,,421.4965,423.1937,1,0,1.1635,,0,70,70,34,1,REAL,FAKE,,,,,,,,,,,,,,,,,
,,,,,,,,,67924313eb24f3a077d26376,none,13 or older,"no, only English or Spanish",no,2025-08-13_17h54.55.404,empathy_intonation_perc_control,2024.2.4,Linux x86_64,60.24096386,67924313eb24f3a077d26376,68817205a84113384fffdfe3,689d09845b179513d6515248,,,,,,,,,,,,,0,,,,,,,,,,,,,,,,,,,,,,,,,,,,,,,,,,,,,32,fatacidad,,,,,423.1962,424.827,0,1,1.0955,,0,71,71,31,1,REAL,FAKE,,,,,,,,,,,,,,,,,
,,,,,,,,,67924313eb24f3a077d26376,none,13 or older,"no, only English or Spanish",no,2025-08-13_17h54.55.404,empathy_intonation_perc_control,2024.2.4,Linux x86_64,60.24096386,67924313eb24f3a077d26376,68817205a84113384fffdfe3,689d09845b179513d6515248,,,,,,,,,,,,,0,,,,,,,,,,,,,,,,,,,,,,,,,,,,,,,,,,,,,10,antar,,,,,424.8301,426.1901,0,1,0.8267,,0,72,72,9,1,REAL,FAKE,,,,,,,,,,,,,,,,,
,,,,,,,,,67924313eb24f3a077d26376,none,13 or older,"no, only English or Spanish",no,2025-08-13_17h54.55.404,empathy_intonation_perc_control,2024.2.4,Linux x86_64,60.24096386,67924313eb24f3a077d26376,68817205a84113384fffdfe3,689d09845b179513d6515248,,,,,,,,,,,,,1,,,,,,,,,,,,,,,,,,,,,,,,,,,,,,,,,,,,,15,regar,,,,,426.1933,427.5717,0,0,0.846,,0,73,73,14,1,REAL,FAKE,,,,,,,,,,,,,,,,,
,,,,,,,,,67924313eb24f3a077d26376,none,13 or older,"no, only English or Spanish",no,2025-08-13_17h54.55.404,empathy_intonation_perc_control,2024.2.4,Linux x86_64,60.24096386,67924313eb24f3a077d26376,68817205a84113384fffdfe3,689d09845b179513d6515248,,,,,,,,,,,,,1,,,,,,,,,,,,,,,,,,,,,,,,,,,,,,,,,,,,,68,alegre,,,,,427.5729,429.4721,0,0,1.3686,,0,74,74,67,1,REAL,FAKE,,,,,,,,,,,,,,,,,
,,,,,,,,,67924313eb24f3a077d26376,none,13 or older,"no, only English or Spanish",no,2025-08-13_17h54.55.404,empathy_intonation_perc_control,2024.2.4,Linux x86_64,60.24096386,67924313eb24f3a077d26376,68817205a84113384fffdfe3,689d09845b179513d6515248,,,,,,,,,,,,,1,,,,,,,,,,,,,,,,,,,,,,,,,,,,,,,,,,,,,22,lacayo,,,,,429.4745,430.9383,0,0,0.9296,,0,75,75,21,1,REAL,FAKE,,,,,,,,,,,,,,,,,
,,,,,,,,,67924313eb24f3a077d26376,none,13 or older,"no, only English or Spanish",no,2025-08-13_17h54.55.404,empathy_intonation_perc_control,2024.2.4,Linux x86_64,60.24096386,67924313eb24f3a077d26376,68817205a84113384fffdfe3,689d09845b179513d6515248,,,,,,,,,,,,,1,,,,,,,,,,,,,,,,,,,,,,,,,,,,,,,,,,,,,71,polvoriento,,,,,430.9418,433.3509,1,1,1.8773,,0,76,76,70,1,REAL,FAKE,,,,,,,,,,,,,,,,,
,,,,,,,,,67924313eb24f3a077d26376,none,13 or older,"no, only English or Spanish",no,2025-08-13_17h54.55.404,empathy_intonation_perc_control,2024.2.4,Linux x86_64,60.24096386,67924313eb24f3a077d26376,68817205a84113384fffdfe3,689d09845b179513d6515248,,,,,,,,,,,,,1,,,,,,,,,,,,,,,,,,,,,,,,,,,,,,,,,,,,,3,pulmones,,,,,433.3541,435.2332,0,0,1.3431,,0,77,77,2,1,REAL,FAKE,,,,,,,,,,,,,,,,,
,,,,,,,,,67924313eb24f3a077d26376,none,13 or older,"no, only English or Spanish",no,2025-08-13_17h54.55.404,empathy_intonation_perc_control,2024.2.4,Linux x86_64,60.24096386,67924313eb24f3a077d26376,68817205a84113384fffdfe3,689d09845b179513d6515248,,,,,,,,,,,,,1,,,,,,,,,,,,,,,,,,,,,,,,,,,,,,,,,,,,,37,granuja,,,,,435.2355,438.4456,0,0,2.6755,,0,78,78,36,1,REAL,FAKE,,,,,,,,,,,,,,,,,
,,,,,,,,,67924313eb24f3a077d26376,none,13 or older,"no, only English or Spanish",no,2025-08-13_17h54.55.404,empathy_intonation_perc_control,2024.2.4,Linux x86_64,60.24096386,67924313eb24f3a077d26376,68817205a84113384fffdfe3,689d09845b179513d6515248,,,,,,,,,,,,,1,,,,,,,,,,,,,,,,,,,,,,,,,,,,,,,,,,,,,78,frondoso,,,,,438.4468,439.9618,0,0,0.9715,,0,79,79,77,1,REAL,FAKE,,,,,,,,,,,,,,,,,
,,,,,,,,,67924313eb24f3a077d26376,none,13 or older,"no, only English or Spanish",no,2025-08-13_17h54.55.404,empathy_intonation_perc_control,2024.2.4,Linux x86_64,60.24096386,67924313eb24f3a077d26376,68817205a84113384fffdfe3,689d09845b179513d6515248,,,,,,,,,,,,,0,,,,,,,,,,,,,,,,,,,,,,,,,,,,,,,,,,,,,19,brecedad,,,,,439.964,441.4935,0,1,0.9915,,0,80,80,18,1,REAL,FAKE,,,,,,,,,,,,,,,,,
,,,,,,,,,67924313eb24f3a077d26376,none,13 or older,"no, only English or Spanish",no,2025-08-13_17h54.55.404,empathy_intonation_perc_control,2024.2.4,Linux x86_64,60.24096386,67924313eb24f3a077d26376,68817205a84113384fffdfe3,689d09845b179513d6515248,,,,,,,,,,,,,1,,,,,,,,,,,,,,,,,,,,,,,,,,,,,,,,,,,,,9,hacha,,,,,441.4955,443.1591,0,0,1.1251,,0,81,81,8,1,REAL,FAKE,,,,,,,,,,,,,,,,,
,,,,,,,,,67924313eb24f3a077d26376,none,13 or older,"no, only English or Spanish",no,2025-08-13_17h54.55.404,empathy_intonation_perc_control,2024.2.4,Linux x86_64,60.24096386,67924313eb24f3a077d26376,68817205a84113384fffdfe3,689d09845b179513d6515248,,,,,,,,,,,,,1,,,,,,,,,,,,,,,,,,,,,,,,,,,,,,,,,,,,,28,merodear,,,,,443.1626,445.7066,0,0,2.008,,0,82,82,27,1,REAL,FAKE,,,,,,,,,,,,,,,,,
,,,,,,,,,67924313eb24f3a077d26376,none,13 or older,"no, only English or Spanish",no,2025-08-13_17h54.55.404,empathy_intonation_perc_control,2024.2.4,Linux x86_64,60.24096386,67924313eb24f3a077d26376,68817205a84113384fffdfe3,689d09845b179513d6515248,,,,,,,,,,,,,1,,,,,,,,,,,,,,,,,,,,,,,,,,,,,,,,,,,,,62,flaco,,,,,445.709,447.1408,1,1,0.8921,,0,83,83,61,1,REAL,FAKE,,,,,,,,,,,,,,,,,
,,,,,,,,,67924313eb24f3a077d26376,none,13 or older,"no, only English or Spanish",no,2025-08-13_17h54.55.404,empathy_intonation_perc_control,2024.2.4,Linux x86_64,60.24096386,67924313eb24f3a077d26376,68817205a84113384fffdfe3,689d09845b179513d6515248,,,,,,,,,,,,,1,,,,,,,,,,,,,,,,,,,,,,,,,,,,,,,,,,,,,38,estornudar,,,,,447.1432,448.9039,0,0,1.2302,,0,84,84,37,1,REAL,FAKE,,,,,,,,,,,,,,,,,
,,,,,,,,,67924313eb24f3a077d26376,none,13 or older,"no, only English or Spanish",no,2025-08-13_17h54.55.404,empathy_intonation_perc_control,2024.2.4,Linux x86_64,60.24096386,67924313eb24f3a077d26376,68817205a84113384fffdfe3,689d09845b179513d6515248,,,,,,,,,,,,,1,,,,,,,,,,,,,,,,,,,,,,,,,,,,,,,,,,,,,24,látigo,,,,,448.9064,450.6369,0,0,1.2027,,0,85,85,23,1,REAL,FAKE,,,,,,,,,,,,,,,,,
,,,,,,,,,67924313eb24f3a077d26376,none,13 or older,"no, only English or Spanish",no,2025-08-13_17h54.55.404,empathy_intonation_perc_control,2024.2.4,Linux x86_64,60.24096386,67924313eb24f3a077d26376,68817205a84113384fffdfe3,689d09845b179513d6515248,,,,,,,,,,,,,1,,,,,,,,,,,,,,,,,,,,,,,,,,,,,,,,,,,,,11,cenefa,,,,,450.6396,451.984,0,0,0.8081,,0,86,86,10,1,REAL,FAKE,,,,,,,,,,,,,,,,,
,,,,,,,,,67924313eb24f3a077d26376,none,13 or older,"no, only English or Spanish",no,2025-08-13_17h54.55.404,empathy_intonation_perc_control,2024.2.4,Linux x86_64,60.24096386,67924313eb24f3a077d26376,68817205a84113384fffdfe3,689d09845b179513d6515248,,,,,,,,,,,,,0,,,,,,,,,,,,,,,,,,,,,,,,,,,,,,,,,,,,,4,batillón,,,,,451.9852,454.0994,1,0,1.5824,,0,87,87,3,1,REAL,FAKE,,,,,,,,,,,,,,,,,
,,,,,,,,,67924313eb24f3a077d26376,none,13 or older,"no, only English or Spanish",no,2025-08-13_17h54.55.404,empathy_intonation_perc_control,2024.2.4,Linux x86_64,60.24096386,67924313eb24f3a077d26376,68817205a84113384fffdfe3,689d09845b179513d6515248,,,,,,,,,,,,,1,,,,,,,,,,,,,,,,,,,,,,,,,,,,,,,,,,,,,85,laúd,,,,,454.1019,455.4486,0,0,0.8074,,0,88,88,84,1,REAL,FAKE,,,,,,,,,,,,,,,,,
,,,,,,,,,67924313eb24f3a077d26376,none,13 or older,"no, only English or Spanish",no,2025-08-13_17h54.55.404,empathy_intonation_perc_control,2024.2.4,Linux x86_64,60.24096386,67924313eb24f3a077d26376,68817205a84113384fffdfe3,689d09845b179513d6515248,,,,,,,,,,,,,1,,,,,,,,,,,,,,,,,,,,,,,,,,,,,,,,,,,,,59,besar,,,,,455.451,456.7641,0,0,0.7774,,0,89,89,58,1,REAL,FAKE,,,,,,,,,,,,,,,,,
,,,,,,,,,67924313eb24f3a077d26376,none,13 or older,"no, only English or Spanish",no,2025-08-13_17h54.55.404,empathy_intonation_perc_control,2024.2.4,Linux x86_64,60.24096386,67924313eb24f3a077d26376,68817205a84113384fffdfe3,689d09845b179513d6515248,,,,,,,,,,,,,0,,,,,,,,,,,,,,,,,,,,,,,,,,,,,,,,,,,,,1,terzo,,,,,456.7671,458.262,0,1,0.9635,,0,90,90,0,1,REAL,FAKE,,,,,,,,,,,,,,,,,
,,,,,,,,,67924313eb24f3a077d26376,none,13 or older,"no, only English or Spanish",no,2025-08-13_17h54.55.404,empathy_intonation_perc_control,2024.2.4,Linux x86_64,60.24096386,67924313eb24f3a077d26376,68817205a84113384fffdfe3,689d09845b179513d6515248,,,,,,,,,,,,,0,,,,,,,,,,,,,,,,,,,,,,,,,,,,,,,,,,,,,27,acutación,,,,,458.2636,460.9795,1,0,2.1812,,0,91,91,26,1,REAL,FAKE,,,,,,,,,,,,,,,,,
,,,,,,,,,67924313eb24f3a077d26376,none,13 or older,"no, only English or Spanish",no,2025-08-13_17h54.55.404,empathy_intonation_perc_control,2024.2.4,Linux x86_64,60.24096386,67924313eb24f3a077d26376,68817205a84113384fffdfe3,689d09845b179513d6515248,,,,,,,,,,,,,,,,,,,,,,,,,,,,,,,,,,,,,,,,,,,,,,,,,,,,,,,,,,,,,,,,,,,,,460.9841,469.5216,,,,,,,,,,,,,,,
,,,,,,,,,67924313eb24f3a077d26376,none,13 or older,"no, only English or Spanish",no,2025-08-13_17h54.55.404,empathy_intonation_perc_control,2024.2.4,Linux x86_64,60.24096386,67924313eb24f3a077d26376,68817205a84113384fffdfe3,689d09845b179513d6515248,,,,,,,,,,,,,,,,,,,,,,,,,,,1,,,,,,,,,,,,,,,,,,,,,,,,,,,,,,,,,,,,,,,,,,,,469.5733,476.882,slightly agree,0,0,0,0,1,I can easily tell if someone else wants to enter a conversation.,1,0,1,0,,
,,,,,,,,,67924313eb24f3a077d26376,none,13 or older,"no, only English or Spanish",no,2025-08-13_17h54.55.404,empathy_intonation_perc_control,2024.2.4,Linux x86_64,60.24096386,67924313eb24f3a077d26376,68817205a84113384fffdfe3,689d09845b179513d6515248,,,,,,,,,,,,,,,,,,,,,,,,,,,2,,,,,,,,,,,,,,,,,,,,,,,,,,,,,,,,,,,,,,,,,,,,476.8881,480.8838,slightly disagree,0,1,1,1,1,I prefer animals to humans.,0,1,0,0,,
,,,,,,,,,67924313eb24f3a077d26376,none,13 or older,"no, only English or Spanish",no,2025-08-13_17h54.55.404,empathy_intonation_perc_control,2024.2.4,Linux x86_64,60.24096386,67924313eb24f3a077d26376,68817205a84113384fffdfe3,689d09845b179513d6515248,,,,,,,,,,,,,,,,,,,,,,,,,,,3,,,,,,,,,,,,,,,,,,,,,,,,,,,,,,,,,,,,,,,,,,,,480.887,484.4731,slightly disagree,0,2,2,2,1,I try to keep up with the current trends and fashions.,0,1,0,0,,
,,,,,,,,,67924313eb24f3a077d26376,none,13 or older,"no, only English or Spanish",no,2025-08-13_17h54.55.404,empathy_intonation_perc_control,2024.2.4,Linux x86_64,60.24096386,67924313eb24f3a077d26376,68817205a84113384fffdfe3,689d09845b179513d6515248,,,,,,,,,,,,,,,,,,,,,,,,,,,4,,,,,,,,,,,,,,,,,,,,,,,,,,,,,,,,,,,,,,,,,,,,484.4799,488.7377,slightly disagree,0,3,3,3,1,"I find it difficult to explain to others things that I understand easily,   when they don't understand it first time.",1,0,0,1,,
,,,,,,,,,67924313eb24f3a077d26376,none,13 or older,"no, only English or Spanish",no,2025-08-13_17h54.55.404,empathy_intonation_perc_control,2024.2.4,Linux x86_64,60.24096386,67924313eb24f3a077d26376,68817205a84113384fffdfe3,689d09845b179513d6515248,,,,,,,,,,,,,,,,,,,,,,,,,,,5,,,,,,,,,,,,,,,,,,,,,,,,,,,,,,,,,,,,,,,,,,,,488.7413,490.7711,slightly disagree,0,4,4,4,1,I dream most nights.,0,1,0,0,,
,,,,,,,,,67924313eb24f3a077d26376,none,13 or older,"no, only English or Spanish",no,2025-08-13_17h54.55.404,empathy_intonation_perc_control,2024.2.4,Linux x86_64,60.24096386,67924313eb24f3a077d26376,68817205a84113384fffdfe3,689d09845b179513d6515248,,,,,,,,,,,,,,,,,,,,,,,,,,,6,,,,,,,,,,,,,,,,,,,,,,,,,,,,,,,,,,,,,,,,,,,,490.7779,493.6659,slightly agree,0,5,5,5,1,I really enjoy caring for other people.,1,0,1,0,,
,,,,,,,,,67924313eb24f3a077d26376,none,13 or older,"no, only English or Spanish",no,2025-08-13_17h54.55.404,empathy_intonation_perc_control,2024.2.4,Linux x86_64,60.24096386,67924313eb24f3a077d26376,68817205a84113384fffdfe3,689d09845b179513d6515248,,,,,,,,,,,,,,,,,,,,,,,,,,,7,,,,,,,,,,,,,,,,,,,,,,,,,,,,,,,,,,,,,,,,,,,,493.6738,496.696,strongly agree,0,6,6,6,1,I try to solve my own problems rather than discussing them with others.,0,1,0,0,,
,,,,,,,,,67924313eb24f3a077d26376,none,13 or older,"no, only English or Spanish",no,2025-08-13_17h54.55.404,empathy_intonation_perc_control,2024.2.4,Linux x86_64,60.24096386,67924313eb24f3a077d26376,68817205a84113384fffdfe3,689d09845b179513d6515248,,,,,,,,,,,,,,,,,,,,,,,,,,,8,,,,,,,,,,,,,,,,,,,,,,,,,,,,,,,,,,,,,,,,,,,,496.7014,500.1268,slightly disagree,0,7,7,7,1,I find it hard to know what to do in a social situation.,1,0,0,1,,
,,,,,,,,,67924313eb24f3a077d26376,none,13 or older,"no, only English or Spanish",no,2025-08-13_17h54.55.404,empathy_intonation_perc_control,2024.2.4,Linux x86_64,60.24096386,67924313eb24f3a077d26376,68817205a84113384fffdfe3,689d09845b179513d6515248,,,,,,,,,,,,,,,,,,,,,,,,,,,9,,,,,,,,,,,,,,,,,,,,,,,,,,,,,,,,,,,,,,,,,,,,500.1343,503.7758,strongly disagree,0,8,8,8,1,I am at my best first thing in the morning.,0,1,0,0,,
,,,,,,,,,67924313eb24f3a077d26376,none,13 or older,"no, only English or Spanish",no,2025-08-13_17h54.55.404,empathy_intonation_perc_control,2024.2.4,Linux x86_64,60.24096386,67924313eb24f3a077d26376,68817205a84113384fffdfe3,689d09845b179513d6515248,,,,,,,,,,,,,,,,,,,,,,,,,,,10,,,,,,,,,,,,,,,,,,,,,,,,,,,,,,,,,,,,,,,,,,,,503.7815,507.0077,strongly disagree,0,9,9,9,1,People often tell me that I went too far in driving my point home in a discussion.,1,0,0,1,,
,,,,,,,,,67924313eb24f3a077d26376,none,13 or older,"no, only English or Spanish",no,2025-08-13_17h54.55.404,empathy_intonation_perc_control,2024.2.4,Linux x86_64,60.24096386,67924313eb24f3a077d26376,68817205a84113384fffdfe3,689d09845b179513d6515248,,,,,,,,,,,,,,,,,,,,,,,,,,,11,,,,,,,,,,,,,,,,,,,,,,,,,,,,,,,,,,,,,,,,,,,,507.0132,509.7359,strongly disagree,0,10,10,10,1,It doesn't bother me too much if I am late meeting a friend.,1,0,0,1,,
,,,,,,,,,67924313eb24f3a077d26376,none,13 or older,"no, only English or Spanish",no,2025-08-13_17h54.55.404,empathy_intonation_perc_control,2024.2.4,Linux x86_64,60.24096386,67924313eb24f3a077d26376,68817205a84113384fffdfe3,689d09845b179513d6515248,,,,,,,,,,,,,,,,,,,,,,,,,,,12,,,,,,,,,,,,,,,,,,,,,,,,,,,,,,,,,,,,,,,,,,,,509.7393,515.2132,strongly disagree,0,11,11,11,1,"Friendships and relationships are just too difficult, so I tend not to 
  bother with them.",1,0,0,1,,
,,,,,,,,,67924313eb24f3a077d26376,none,13 or older,"no, only English or Spanish",no,2025-08-13_17h54.55.404,empathy_intonation_perc_control,2024.2.4,Linux x86_64,60.24096386,67924313eb24f3a077d26376,68817205a84113384fffdfe3,689d09845b179513d6515248,,,,,,,,,,,,,,,,,,,,,,,,,,,13,,,,,,,,,,,,,,,,,,,,,,,,,,,,,,,,,,,,,,,,,,,,515.2185,518.0437,strongly agree,0,12,12,12,1,"I would never break a law, no matter how minor.",0,1,0,0,,
,,,,,,,,,67924313eb24f3a077d26376,none,13 or older,"no, only English or Spanish",no,2025-08-13_17h54.55.404,empathy_intonation_perc_control,2024.2.4,Linux x86_64,60.24096386,67924313eb24f3a077d26376,68817205a84113384fffdfe3,689d09845b179513d6515248,,,,,,,,,,,,,,,,,,,,,,,,,,,14,,,,,,,,,,,,,,,,,,,,,,,,,,,,,,,,,,,,,,,,,,,,518.0483,521.6098,strongly disagree,0,13,13,13,1,I often find it difficult to judge if something is rude or polite.,1,0,0,1,,
,,,,,,,,,67924313eb24f3a077d26376,none,13 or older,"no, only English or Spanish",no,2025-08-13_17h54.55.404,empathy_intonation_perc_control,2024.2.4,Linux x86_64,60.24096386,67924313eb24f3a077d26376,68817205a84113384fffdfe3,689d09845b179513d6515248,,,,,,,,,,,,,,,,,,,,,,,,,,,15,,,,,,,,,,,,,,,,,,,,,,,,,,,,,,,,,,,,,,,,,,,,521.6172,526.2889,slightly disagree,0,14,14,14,1,"In a conversation, I tend to focus on my own thoughts rather than on what 
  my listener might be thinking.",1,0,0,1,,
,,,,,,,,,67924313eb24f3a077d26376,none,13 or older,"no, only English or Spanish",no,2025-08-13_17h54.55.404,empathy_intonation_perc_control,2024.2.4,Linux x86_64,60.24096386,67924313eb24f3a077d26376,68817205a84113384fffdfe3,689d09845b179513d6515248,,,,,,,,,,,,,,,,,,,,,,,,,,,16,,,,,,,,,,,,,,,,,,,,,,,,,,,,,,,,,,,,,,,,,,,,526.2927,530.3326,strongly disagree,0,15,15,15,1,I prefer practical jokes to verbal humor.,0,1,0,0,,
,,,,,,,,,67924313eb24f3a077d26376,none,13 or older,"no, only English or Spanish",no,2025-08-13_17h54.55.404,empathy_intonation_perc_control,2024.2.4,Linux x86_64,60.24096386,67924313eb24f3a077d26376,68817205a84113384fffdfe3,689d09845b179513d6515248,,,,,,,,,,,,,,,,,,,,,,,,,,,17,,,,,,,,,,,,,,,,,,,,,,,,,,,,,,,,,,,,,,,,,,,,530.3342,534.2684,slightly agree,0,16,16,16,1,I live life for today rather than the future.,0,1,0,0,,
,,,,,,,,,67924313eb24f3a077d26376,none,13 or older,"no, only English or Spanish",no,2025-08-13_17h54.55.404,empathy_intonation_perc_control,2024.2.4,Linux x86_64,60.24096386,67924313eb24f3a077d26376,68817205a84113384fffdfe3,689d09845b179513d6515248,,,,,,,,,,,,,,,,,,,,,,,,,,,18,,,,,,,,,,,,,,,,,,,,,,,,,,,,,,,,,,,,,,,,,,,,534.2732,537.5602,strongly disagree,0,17,17,17,1,"When I was a child, I enjoyed cutting up worms to see what would happen.",1,0,0,1,,
,,,,,,,,,67924313eb24f3a077d26376,none,13 or older,"no, only English or Spanish",no,2025-08-13_17h54.55.404,empathy_intonation_perc_control,2024.2.4,Linux x86_64,60.24096386,67924313eb24f3a077d26376,68817205a84113384fffdfe3,689d09845b179513d6515248,,,,,,,,,,,,,,,,,,,,,,,,,,,19,,,,,,,,,,,,,,,,,,,,,,,,,,,,,,,,,,,,,,,,,,,,537.5657,542.5411,slightly disagree,0,18,18,18,1,I can pick up quickly if someone says one thing but means another.,1,0,1,0,,
,,,,,,,,,67924313eb24f3a077d26376,none,13 or older,"no, only English or Spanish",no,2025-08-13_17h54.55.404,empathy_intonation_perc_control,2024.2.4,Linux x86_64,60.24096386,67924313eb24f3a077d26376,68817205a84113384fffdfe3,689d09845b179513d6515248,,,,,,,,,,,,,,,,,,,,,,,,,,,20,,,,,,,,,,,,,,,,,,,,,,,,,,,,,,,,,,,,,,,,,,,,542.5456,546.6875,strongly agree,0,19,19,19,1,I tend to have very strong opinions about morality.,0,1,0,0,,
,,,,,,,,,67924313eb24f3a077d26376,none,13 or older,"no, only English or Spanish",no,2025-08-13_17h54.55.404,empathy_intonation_perc_control,2024.2.4,Linux x86_64,60.24096386,67924313eb24f3a077d26376,68817205a84113384fffdfe3,689d09845b179513d6515248,,,,,,,,,,,,,,,,,,,,,,,,,,,21,,,,,,,,,,,,,,,,,,,,,,,,,,,,,,,,,,,,,,,,,,,,546.6918,550.382,strongly disagree,0,20,20,20,1,It is hard for me to see why some things upset people so much.,1,0,0,1,,
,,,,,,,,,67924313eb24f3a077d26376,none,13 or older,"no, only English or Spanish",no,2025-08-13_17h54.55.404,empathy_intonation_perc_control,2024.2.4,Linux x86_64,60.24096386,67924313eb24f3a077d26376,68817205a84113384fffdfe3,689d09845b179513d6515248,,,,,,,,,,,,,,,,,,,,,,,,,,,22,,,,,,,,,,,,,,,,,,,,,,,,,,,,,,,,,,,,,,,,,,,,550.3881,552.747,slightly agree,0,21,21,21,1,I find it easy to put myself in somebody else's shoes.,1,0,1,0,,
,,,,,,,,,67924313eb24f3a077d26376,none,13 or older,"no, only English or Spanish",no,2025-08-13_17h54.55.404,empathy_intonation_perc_control,2024.2.4,Linux x86_64,60.24096386,67924313eb24f3a077d26376,68817205a84113384fffdfe3,689d09845b179513d6515248,,,,,,,,,,,,,,,,,,,,,,,,,,,23,,,,,,,,,,,,,,,,,,,,,,,,,,,,,,,,,,,,,,,,,,,,552.7526,556.2793,strongly agree,0,22,22,22,1,I think that good manners are the most important thing a parent can teach their child.,0,1,0,0,,
