instructions_2afc.started,instructions_2afc.stopped,instructions_2afc_loop.thisRepN,instructions_2afc_loop.thisTrialN,instructions_2afc_loop.thisN,instructions_2afc_loop.thisIndex,instructions_2afc_loop.ran,instructions_text,continue_text,participant_id,"What variety of Spanish are you most familiar with? (e.g., Peruvian, Spanish, Mexican)",At what age did you begin learning Spanish?,Are you proficient in any languages other than English/Spanish?,"Are you familiar with Caribbean (e.g., Caribbean, Puerto Rican) or Galician Spanish?",date,expName,psychopyVersion,OS,frameRate,id,study_id,session,practice_2afc.started,practice_2afc.stopped,key_resp_2afc_practice.keys,key_resp_2afc_practice.corr,key_resp_2afc_practice.rt,key_resp_2afc_practice.duration,trials_2afc_practice_loop.thisRepN,trials_2afc_practice_loop.thisTrialN,trials_2afc_practice_loop.thisN,trials_2afc_practice_loop.thisIndex,trials_2afc_practice_loop.ran,path,correct_response,check_2afc.started,check_2afc.stopped,trial_2afc.started,trial_2afc.stopped,key_resp_2afc_trial.keys,key_resp_2afc_trial.corr,key_resp_2afc_trial.rt,key_resp_2afc_trial.duration,trials_2afc_loop.thisRepN,trials_2afc_loop.thisTrialN,trials_2afc_loop.thisN,trials_2afc_loop.thisIndex,trials_2afc_loop.ran,item_num,target,variety,instructions_lextale.started,instructions_lextale.stopped,instructions_lextale_loop.thisRepN,instructions_lextale_loop.thisTrialN,instructions_lextale_loop.thisN,instructions_lextale_loop.thisIndex,instructions_lextale_loop.ran,practice_lextale.started,practice_lextale.stopped,key_resp_lextale_practice.keys,key_resp_lextale_practice.corr,key_resp_lextale_practice.rt,key_resp_lextale_practice.duration,practice_feedback_lextale.started,practice_feedback_lextale.stopped,trials_lextale_practice_loop.thisRepN,trials_lextale_practice_loop.thisTrialN,trials_lextale_practice_loop.thisN,trials_lextale_practice_loop.thisIndex,trials_lextale_practice_loop.ran,stim,word,prac_button_real,prac_button_false,check_lextale.started,check_lextale.stopped,trial_lextale.started,trial_lextale.stopped,key_resp_lextale_trial.keys,key_resp_lextale_trial.corr,key_resp_lextale_trial.rt,key_resp_lextale_trial.duration,trials_lextale_loop.thisRepN,trials_lextale_loop.thisTrialN,trials_lextale_loop.thisN,trials_lextale_loop.thisIndex,trials_lextale_loop.ran,button_real,button_false,instructions_eq.started,instructions_eq.stopped,trial_eq.started,trial_eq.stopped,slider_eq_trial.response,trials_eq_loop.thisRepN,trials_eq_loop.thisTrialN,trials_eq_loop.thisN,trials_eq_loop.thisIndex,trials_eq_loop.ran,item,is_test_item,is_distractor,is_agree_score,is_disagree_score,end_exp.started,end_exp.stopped
0.0825,8.4418,0,0,0,0,1,"In the following task you are going to hear a series of utterances. 

  You will decide if the utterances sound like questions or not using your keyboard.", (press the spacebar to continue),67926cc8eeb2400a96639477,Spanish ,13 or older,"no, only English or Spanish",no,2025-07-24_09h40.03.635,empathy_intonation_perc_control,2024.2.4,Win32,74.62686567,67926cc8eeb2400a96639477,68817205a84113384fffdfe3,68823738541882702612e42a,,,,,,,,,,,,,,,,,,,,,,,,,,,,,,,,,,,,,,,,,,,,,,,,,,,,,,,,,,,,,,,,,,,,,,,,,,,,,,,,,,,,,
8.4439,10.4212,0,1,1,1,1,"If you believe the utterance is a question, type '1' (for 'yes') and if you do not 
  believe it is a question type '0' (for 'no').

  Let's practice a bit...", (press the spacebar to continue),67926cc8eeb2400a96639477,Spanish ,13 or older,"no, only English or Spanish",no,2025-07-24_09h40.03.635,empathy_intonation_perc_control,2024.2.4,Win32,74.62686567,67926cc8eeb2400a96639477,68817205a84113384fffdfe3,68823738541882702612e42a,,,,,,,,,,,,,,,,,,,,,,,,,,,,,,,,,,,,,,,,,,,,,,,,,,,,,,,,,,,,,,,,,,,,,,,,,,,,,,,,,,,,,
,,,,,,,,,67926cc8eeb2400a96639477,Spanish ,13 or older,"no, only English or Spanish",no,2025-07-24_09h40.03.635,empathy_intonation_perc_control,2024.2.4,Win32,74.62686567,67926cc8eeb2400a96639477,68817205a84113384fffdfe3,68823738541882702612e42a,10.4729,12.73,1,1,1.7283,,0,0,0,2,1,./stim/wavs/chilean_question_filler_Mi-padre-cantaba-bien.wav,1,,,,,,,,,,,,,,,,,,,,,,,,,,,,,,,,,,,,,,,,,,,,,,,,,,,,,,,,,,,,,,,,,,,,,,,,
,,,,,,,,,67926cc8eeb2400a96639477,Spanish ,13 or older,"no, only English or Spanish",no,2025-07-24_09h40.03.635,empathy_intonation_perc_control,2024.2.4,Win32,74.62686567,67926cc8eeb2400a96639477,68817205a84113384fffdfe3,68823738541882702612e42a,12.7342,15.2191,1,0,1.958,,0,1,1,6,1,./stim/wavs/peruvian_statement_filler_El-nino-habla-con-su-madre.wav,0,,,,,,,,,,,,,,,,,,,,,,,,,,,,,,,,,,,,,,,,,,,,,,,,,,,,,,,,,,,,,,,,,,,,,,,,
,,,,,,,,,67926cc8eeb2400a96639477,Spanish ,13 or older,"no, only English or Spanish",no,2025-07-24_09h40.03.635,empathy_intonation_perc_control,2024.2.4,Win32,74.62686567,67926cc8eeb2400a96639477,68817205a84113384fffdfe3,68823738541882702612e42a,15.2205,17.4976,0,1,1.7498,,0,2,2,5,1,./stim/wavs/andalusian_statement_filler_Alberto-nunca-se-afeita.wav,0,,,,,,,,,,,,,,,,,,,,,,,,,,,,,,,,,,,,,,,,,,,,,,,,,,,,,,,,,,,,,,,,,,,,,,,,
,,,,,,,,,67926cc8eeb2400a96639477,Spanish ,13 or older,"no, only English or Spanish",no,2025-07-24_09h40.03.635,empathy_intonation_perc_control,2024.2.4,Win32,74.62686567,67926cc8eeb2400a96639477,68817205a84113384fffdfe3,68823738541882702612e42a,17.4995,19.86,1,1,1.8334,,0,3,3,0,1,./stim/wavs/castilian_question_filler_Mi-esposo-conoce-al-chico.wav,1,,,,,,,,,,,,,,,,,,,,,,,,,,,,,,,,,,,,,,,,,,,,,,,,,,,,,,,,,,,,,,,,,,,,,,,,
,,,,,,,,,67926cc8eeb2400a96639477,Spanish ,13 or older,"no, only English or Spanish",no,2025-07-24_09h40.03.635,empathy_intonation_perc_control,2024.2.4,Win32,74.62686567,67926cc8eeb2400a96639477,68817205a84113384fffdfe3,68823738541882702612e42a,19.862,22.0735,1,1,1.6839,,0,4,4,3,1,./stim/wavs/mexican_question_filler_Felipe-no-tiene-contrasena.wav,1,,,,,,,,,,,,,,,,,,,,,,,,,,,,,,,,,,,,,,,,,,,,,,,,,,,,,,,,,,,,,,,,,,,,,,,,
,,,,,,,,,67926cc8eeb2400a96639477,Spanish ,13 or older,"no, only English or Spanish",no,2025-07-24_09h40.03.635,empathy_intonation_perc_control,2024.2.4,Win32,74.62686567,67926cc8eeb2400a96639477,68817205a84113384fffdfe3,68823738541882702612e42a,22.0775,24.2075,1,0,1.6056,,0,5,5,4,1,./stim/wavs/cuban_statement_filler_Cocinabas-por-la-noche.wav,0,,,,,,,,,,,,,,,,,,,,,,,,,,,,,,,,,,,,,,,,,,,,,,,,,,,,,,,,,,,,,,,,,,,,,,,,
,,,,,,,,,67926cc8eeb2400a96639477,Spanish ,13 or older,"no, only English or Spanish",no,2025-07-24_09h40.03.635,empathy_intonation_perc_control,2024.2.4,Win32,74.62686567,67926cc8eeb2400a96639477,68817205a84113384fffdfe3,68823738541882702612e42a,24.2092,26.052,0,0,1.3101,,0,6,6,1,1,./stim/wavs/argentine_question_filler_Mi-vecino-habla-mucho.wav,1,,,,,,,,,,,,,,,,,,,,,,,,,,,,,,,,,,,,,,,,,,,,,,,,,,,,,,,,,,,,,,,,,,,,,,,,
,,,,,,,,,67926cc8eeb2400a96639477,Spanish ,13 or older,"no, only English or Spanish",no,2025-07-24_09h40.03.635,empathy_intonation_perc_control,2024.2.4,Win32,74.62686567,67926cc8eeb2400a96639477,68817205a84113384fffdfe3,68823738541882702612e42a,26.0537,28.0818,1,0,1.4982,,0,7,7,7,1,./stim/wavs/puertorican_statement_filler_La-nina-pinta-con-su-amiga.wav,0,,,,,,,,,,,,,,,,,,,,,,,,,,,,,,,,,,,,,,,,,,,,,,,,,,,,,,,,,,,,,,,,,,,,,,,,
,,,,,,,,,67926cc8eeb2400a96639477,Spanish ,13 or older,"no, only English or Spanish",no,2025-07-24_09h40.03.635,empathy_intonation_perc_control,2024.2.4,Win32,74.62686567,67926cc8eeb2400a96639477,68817205a84113384fffdfe3,68823738541882702612e42a,,,,,,,,,,,,,,28.0834,30.5881,,,,,,,,,,,,,,,,,,,,,,,,,,,,,,,,,,,,,,,,,,,,,,,,,,,,,,,,,,,,,,,,,,,,,,
,,,,,,,,,67926cc8eeb2400a96639477,Spanish ,13 or older,"no, only English or Spanish",no,2025-07-24_09h40.03.635,empathy_intonation_perc_control,2024.2.4,Win32,74.62686567,67926cc8eeb2400a96639477,68817205a84113384fffdfe3,68823738541882702612e42a,,,,,,,,,,,,./stim/wavs/cuban_match_interrogative-total-yn_Daniel-iba-a-Bolivia.wav,1,,,30.6364,32.8631,1,1,1.7006,,0,0,0,7,1,8,1,cuban,,,,,,,,,,,,,,,,,,,,,,,,,,,,,,,,,,,,,,,,,,,,,,,,,,,,,,,,
,,,,,,,,,67926cc8eeb2400a96639477,Spanish ,13 or older,"no, only English or Spanish",no,2025-07-24_09h40.03.635,empathy_intonation_perc_control,2024.2.4,Win32,74.62686567,67926cc8eeb2400a96639477,68817205a84113384fffdfe3,68823738541882702612e42a,,,,,,,,,,,,./stim/wavs/castilian_mismatch_declarative-broad-focus_La-nina-lava-el-plato.wav,0,,,32.8673,34.8038,0,1,1.3949,,0,1,1,70,1,71,0,castilian,,,,,,,,,,,,,,,,,,,,,,,,,,,,,,,,,,,,,,,,,,,,,,,,,,,,,,,,
,,,,,,,,,67926cc8eeb2400a96639477,Spanish ,13 or older,"no, only English or Spanish",no,2025-07-24_09h40.03.635,empathy_intonation_perc_control,2024.2.4,Win32,74.62686567,67926cc8eeb2400a96639477,68817205a84113384fffdfe3,68823738541882702612e42a,,,,,,,,,,,,./stim/wavs/puertorican_match_declarative-broad-focus_Manuela-vende-el-carro.wav,0,,,34.8091,36.6931,0,1,1.3499,,0,2,2,66,1,67,0,puertorican,,,,,,,,,,,,,,,,,,,,,,,,,,,,,,,,,,,,,,,,,,,,,,,,,,,,,,,,
,,,,,,,,,67926cc8eeb2400a96639477,Spanish ,13 or older,"no, only English or Spanish",no,2025-07-24_09h40.03.635,empathy_intonation_perc_control,2024.2.4,Win32,74.62686567,67926cc8eeb2400a96639477,68817205a84113384fffdfe3,68823738541882702612e42a,,,,,,,,,,,,./stim/wavs/cuban_match_declarative-broad-focus_Mariano-habla-del-tiempo.wav,0,,,36.6946,38.6928,1,0,1.473,,0,3,3,54,1,55,0,cuban,,,,,,,,,,,,,,,,,,,,,,,,,,,,,,,,,,,,,,,,,,,,,,,,,,,,,,,,
,,,,,,,,,67926cc8eeb2400a96639477,Spanish ,13 or older,"no, only English or Spanish",no,2025-07-24_09h40.03.635,empathy_intonation_perc_control,2024.2.4,Win32,74.62686567,67926cc8eeb2400a96639477,68817205a84113384fffdfe3,68823738541882702612e42a,,,,,,,,,,,,./stim/wavs/castilian_mismatch_interrogative-total-yn_La-nina-lava-el-plato.wav,1,,,38.6939,40.6381,0,0,1.4197,,0,4,4,25,1,26,0,castilian,,,,,,,,,,,,,,,,,,,,,,,,,,,,,,,,,,,,,,,,,,,,,,,,,,,,,,,,
,,,,,,,,,67926cc8eeb2400a96639477,Spanish ,13 or older,"no, only English or Spanish",no,2025-07-24_09h40.03.635,empathy_intonation_perc_control,2024.2.4,Win32,74.62686567,67926cc8eeb2400a96639477,68817205a84113384fffdfe3,68823738541882702612e42a,,,,,,,,,,,,./stim/wavs/castilian_match_declarative-broad-focus_Marta-abre-el-regalo.wav,0,,,40.6394,42.8872,0,1,1.7184,,0,5,5,49,1,50,0,castilian,,,,,,,,,,,,,,,,,,,,,,,,,,,,,,,,,,,,,,,,,,,,,,,,,,,,,,,,
,,,,,,,,,67926cc8eeb2400a96639477,Spanish ,13 or older,"no, only English or Spanish",no,2025-07-24_09h40.03.635,empathy_intonation_perc_control,2024.2.4,Win32,74.62686567,67926cc8eeb2400a96639477,68817205a84113384fffdfe3,68823738541882702612e42a,,,,,,,,,,,,./stim/wavs/puertorican_mismatch_interrogative-total-yn_El-nino-oye-el-rio.wav,1,,,42.8885,45.0731,1,1,1.6641,,0,6,6,40,1,41,1,puertorican,,,,,,,,,,,,,,,,,,,,,,,,,,,,,,,,,,,,,,,,,,,,,,,,,,,,,,,,
,,,,,,,,,67926cc8eeb2400a96639477,Spanish ,13 or older,"no, only English or Spanish",no,2025-07-24_09h40.03.635,empathy_intonation_perc_control,2024.2.4,Win32,74.62686567,67926cc8eeb2400a96639477,68817205a84113384fffdfe3,68823738541882702612e42a,,,,,,,,,,,,./stim/wavs/mexican_mismatch_declarative-broad-focus_Mi-tia-odia-la-lluvia.wav,0,,,45.0746,47.4663,0,1,1.8635,,0,7,7,82,1,83,0,mexican,,,,,,,,,,,,,,,,,,,,,,,,,,,,,,,,,,,,,,,,,,,,,,,,,,,,,,,,
,,,,,,,,,67926cc8eeb2400a96639477,Spanish ,13 or older,"no, only English or Spanish",no,2025-07-24_09h40.03.635,empathy_intonation_perc_control,2024.2.4,Win32,74.62686567,67926cc8eeb2400a96639477,68817205a84113384fffdfe3,68823738541882702612e42a,,,,,,,,,,,,./stim/wavs/castilian_match_interrogative-total-yn_Maria-bebe-el-vino.wav,1,,,47.4684,49.778,1,1,1.785,,0,8,8,3,1,4,0,castilian,,,,,,,,,,,,,,,,,,,,,,,,,,,,,,,,,,,,,,,,,,,,,,,,,,,,,,,,
,,,,,,,,,67926cc8eeb2400a96639477,Spanish ,13 or older,"no, only English or Spanish",no,2025-07-24_09h40.03.635,empathy_intonation_perc_control,2024.2.4,Win32,74.62686567,67926cc8eeb2400a96639477,68817205a84113384fffdfe3,68823738541882702612e42a,,,,,,,,,,,,./stim/wavs/puertorican_match_interrogative-total-yn_Ana-lleva-el-abrigo.wav,1,,,49.7792,52.0772,1,1,1.7715,,0,9,9,18,1,19,1,puertorican,,,,,,,,,,,,,,,,,,,,,,,,,,,,,,,,,,,,,,,,,,,,,,,,,,,,,,,,
,,,,,,,,,67926cc8eeb2400a96639477,Spanish ,13 or older,"no, only English or Spanish",no,2025-07-24_09h40.03.635,empathy_intonation_perc_control,2024.2.4,Win32,74.62686567,67926cc8eeb2400a96639477,68817205a84113384fffdfe3,68823738541882702612e42a,,,,,,,,,,,,./stim/wavs/mexican_mismatch_declarative-broad-focus_El-bebe-comia-muy-bien.wav,0,,,52.0785,54.3871,1,0,1.7827,,0,10,10,78,1,79,0,mexican,,,,,,,,,,,,,,,,,,,,,,,,,,,,,,,,,,,,,,,,,,,,,,,,,,,,,,,,
,,,,,,,,,67926cc8eeb2400a96639477,Spanish ,13 or older,"no, only English or Spanish",no,2025-07-24_09h40.03.635,empathy_intonation_perc_control,2024.2.4,Win32,74.62686567,67926cc8eeb2400a96639477,68817205a84113384fffdfe3,68823738541882702612e42a,,,,,,,,,,,,./stim/wavs/castilian_mismatch_declarative-broad-focus_La-maestra-vive-en-Paris.wav,0,,,54.3892,56.5687,0,1,1.6516,,0,11,11,69,1,70,0,castilian,,,,,,,,,,,,,,,,,,,,,,,,,,,,,,,,,,,,,,,,,,,,,,,,,,,,,,,,
,,,,,,,,,67926cc8eeb2400a96639477,Spanish ,13 or older,"no, only English or Spanish",no,2025-07-24_09h40.03.635,empathy_intonation_perc_control,2024.2.4,Win32,74.62686567,67926cc8eeb2400a96639477,68817205a84113384fffdfe3,68823738541882702612e42a,,,,,,,,,,,,./stim/wavs/castilian_mismatch_declarative-broad-focus_Mi-tia-odia-la-lluvia.wav,0,,,56.5709,58.7529,0,1,1.6518,,0,12,12,72,1,73,0,castilian,,,,,,,,,,,,,,,,,,,,,,,,,,,,,,,,,,,,,,,,,,,,,,,,,,,,,,,,
,,,,,,,,,67926cc8eeb2400a96639477,Spanish ,13 or older,"no, only English or Spanish",no,2025-07-24_09h40.03.635,empathy_intonation_perc_control,2024.2.4,Win32,74.62686567,67926cc8eeb2400a96639477,68817205a84113384fffdfe3,68823738541882702612e42a,,,,,,,,,,,,./stim/wavs/cuban_mismatch_declarative-broad-focus_Mi-novio-viene-del-lago.wav,0,,,58.7543,62.8297,1,0,3.5507,,0,13,13,76,1,77,0,cuban,,,,,,,,,,,,,,,,,,,,,,,,,,,,,,,,,,,,,,,,,,,,,,,,,,,,,,,,
,,,,,,,,,67926cc8eeb2400a96639477,Spanish ,13 or older,"no, only English or Spanish",no,2025-07-24_09h40.03.635,empathy_intonation_perc_control,2024.2.4,Win32,74.62686567,67926cc8eeb2400a96639477,68817205a84113384fffdfe3,68823738541882702612e42a,,,,,,,,,,,,./stim/wavs/puertorican_match_interrogative-total-yn_Manuela-vende-el-carro.wav,1,,,62.8315,64.993,0,0,1.6285,,0,14,14,22,1,23,1,puertorican,,,,,,,,,,,,,,,,,,,,,,,,,,,,,,,,,,,,,,,,,,,,,,,,,,,,,,,,
,,,,,,,,,67926cc8eeb2400a96639477,Spanish ,13 or older,"no, only English or Spanish",no,2025-07-24_09h40.03.635,empathy_intonation_perc_control,2024.2.4,Win32,74.62686567,67926cc8eeb2400a96639477,68817205a84113384fffdfe3,68823738541882702612e42a,,,,,,,,,,,,./stim/wavs/puertorican_match_interrogative-total-yn_Daniel-iba-a-Bolivia.wav,1,,,64.9952,67.1243,1,1,1.6032,,0,15,15,19,1,20,1,puertorican,,,,,,,,,,,,,,,,,,,,,,,,,,,,,,,,,,,,,,,,,,,,,,,,,,,,,,,,
,,,,,,,,,67926cc8eeb2400a96639477,Spanish ,13 or older,"no, only English or Spanish",no,2025-07-24_09h40.03.635,empathy_intonation_perc_control,2024.2.4,Win32,74.62686567,67926cc8eeb2400a96639477,68817205a84113384fffdfe3,68823738541882702612e42a,,,,,,,,,,,,./stim/wavs/puertorican_mismatch_declarative-broad-focus_La-nina-lava-el-plato.wav,0,,,67.1263,69.2057,0,1,1.5506,,0,16,16,87,1,88,0,puertorican,,,,,,,,,,,,,,,,,,,,,,,,,,,,,,,,,,,,,,,,,,,,,,,,,,,,,,,,
,,,,,,,,,67926cc8eeb2400a96639477,Spanish ,13 or older,"no, only English or Spanish",no,2025-07-24_09h40.03.635,empathy_intonation_perc_control,2024.2.4,Win32,74.62686567,67926cc8eeb2400a96639477,68817205a84113384fffdfe3,68823738541882702612e42a,,,,,,,,,,,,./stim/wavs/puertorican_mismatch_interrogative-total-yn_Mi-madre-come-la-fruta.wav,1,,,69.2069,71.4517,0,0,1.7141,,0,17,17,43,1,44,1,puertorican,,,,,,,,,,,,,,,,,,,,,,,,,,,,,,,,,,,,,,,,,,,,,,,,,,,,,,,,
,,,,,,,,,67926cc8eeb2400a96639477,Spanish ,13 or older,"no, only English or Spanish",no,2025-07-24_09h40.03.635,empathy_intonation_perc_control,2024.2.4,Win32,74.62686567,67926cc8eeb2400a96639477,68817205a84113384fffdfe3,68823738541882702612e42a,,,,,,,,,,,,./stim/wavs/cuban_match_declarative-broad-focus_Maria-bebe-el-vino.wav,0,,,71.4537,73.6489,1,0,1.6683,,0,18,18,53,1,54,0,cuban,,,,,,,,,,,,,,,,,,,,,,,,,,,,,,,,,,,,,,,,,,,,,,,,,,,,,,,,
,,,,,,,,,67926cc8eeb2400a96639477,Spanish ,13 or older,"no, only English or Spanish",no,2025-07-24_09h40.03.635,empathy_intonation_perc_control,2024.2.4,Win32,74.62686567,67926cc8eeb2400a96639477,68817205a84113384fffdfe3,68823738541882702612e42a,,,,,,,,,,,,./stim/wavs/cuban_mismatch_declarative-broad-focus_La-nina-lava-el-plato.wav,0,,,73.6509,75.6793,0,1,1.5076,,0,19,19,75,1,76,0,cuban,,,,,,,,,,,,,,,,,,,,,,,,,,,,,,,,,,,,,,,,,,,,,,,,,,,,,,,,
,,,,,,,,,67926cc8eeb2400a96639477,Spanish ,13 or older,"no, only English or Spanish",no,2025-07-24_09h40.03.635,empathy_intonation_perc_control,2024.2.4,Win32,74.62686567,67926cc8eeb2400a96639477,68817205a84113384fffdfe3,68823738541882702612e42a,,,,,,,,,,,,./stim/wavs/cuban_mismatch_declarative-broad-focus_El-hombre-mira-la-luna.wav,0,,,75.6813,77.6454,0,1,1.4346,,0,20,20,74,1,75,0,cuban,,,,,,,,,,,,,,,,,,,,,,,,,,,,,,,,,,,,,,,,,,,,,,,,,,,,,,,,
,,,,,,,,,67926cc8eeb2400a96639477,Spanish ,13 or older,"no, only English or Spanish",no,2025-07-24_09h40.03.635,empathy_intonation_perc_control,2024.2.4,Win32,74.62686567,67926cc8eeb2400a96639477,68817205a84113384fffdfe3,68823738541882702612e42a,,,,,,,,,,,,./stim/wavs/castilian_match_interrogative-total-yn_Emilio-ama-la-marcha.wav,1,,,77.6473,79.6249,1,1,1.4513,,0,21,21,1,1,2,0,castilian,,,,,,,,,,,,,,,,,,,,,,,,,,,,,,,,,,,,,,,,,,,,,,,,,,,,,,,,
,,,,,,,,,67926cc8eeb2400a96639477,Spanish ,13 or older,"no, only English or Spanish",no,2025-07-24_09h40.03.635,empathy_intonation_perc_control,2024.2.4,Win32,74.62686567,67926cc8eeb2400a96639477,68817205a84113384fffdfe3,68823738541882702612e42a,,,,,,,,,,,,./stim/wavs/mexican_match_interrogative-total-yn_Emilio-ama-la-marcha.wav,1,,,79.6269,81.7255,0,0,1.5647,,0,22,22,15,1,16,0,mexican,,,,,,,,,,,,,,,,,,,,,,,,,,,,,,,,,,,,,,,,,,,,,,,,,,,,,,,,
,,,,,,,,,67926cc8eeb2400a96639477,Spanish ,13 or older,"no, only English or Spanish",no,2025-07-24_09h40.03.635,empathy_intonation_perc_control,2024.2.4,Win32,74.62686567,67926cc8eeb2400a96639477,68817205a84113384fffdfe3,68823738541882702612e42a,,,,,,,,,,,,./stim/wavs/cuban_match_interrogative-total-yn_Maria-bebe-el-vino.wav,1,,,81.7275,83.9372,1,1,1.6819,,0,23,23,9,1,10,1,cuban,,,,,,,,,,,,,,,,,,,,,,,,,,,,,,,,,,,,,,,,,,,,,,,,,,,,,,,,
,,,,,,,,,67926cc8eeb2400a96639477,Spanish ,13 or older,"no, only English or Spanish",no,2025-07-24_09h40.03.635,empathy_intonation_perc_control,2024.2.4,Win32,74.62686567,67926cc8eeb2400a96639477,68817205a84113384fffdfe3,68823738541882702612e42a,,,,,,,,,,,,./stim/wavs/cuban_mismatch_declarative-broad-focus_Mi-tia-odia-la-lluvia.wav,0,,,83.9393,86.287,1,0,1.8218,,0,24,24,77,1,78,0,cuban,,,,,,,,,,,,,,,,,,,,,,,,,,,,,,,,,,,,,,,,,,,,,,,,,,,,,,,,
,,,,,,,,,67926cc8eeb2400a96639477,Spanish ,13 or older,"no, only English or Spanish",no,2025-07-24_09h40.03.635,empathy_intonation_perc_control,2024.2.4,Win32,74.62686567,67926cc8eeb2400a96639477,68817205a84113384fffdfe3,68823738541882702612e42a,,,,,,,,,,,,./stim/wavs/cuban_match_interrogative-total-yn_Ana-lleva-el-abrigo.wav,1,,,86.2884,88.5828,1,1,1.7706,,0,25,25,6,1,7,1,cuban,,,,,,,,,,,,,,,,,,,,,,,,,,,,,,,,,,,,,,,,,,,,,,,,,,,,,,,,
,,,,,,,,,67926cc8eeb2400a96639477,Spanish ,13 or older,"no, only English or Spanish",no,2025-07-24_09h40.03.635,empathy_intonation_perc_control,2024.2.4,Win32,74.62686567,67926cc8eeb2400a96639477,68817205a84113384fffdfe3,68823738541882702612e42a,,,,,,,,,,,,./stim/wavs/mexican_match_declarative-broad-focus_Marta-abre-el-regalo.wav,0,,,88.5843,90.6799,0,1,1.5687,,0,26,26,61,1,62,0,mexican,,,,,,,,,,,,,,,,,,,,,,,,,,,,,,,,,,,,,,,,,,,,,,,,,,,,,,,,
,,,,,,,,,67926cc8eeb2400a96639477,Spanish ,13 or older,"no, only English or Spanish",no,2025-07-24_09h40.03.635,empathy_intonation_perc_control,2024.2.4,Win32,74.62686567,67926cc8eeb2400a96639477,68817205a84113384fffdfe3,68823738541882702612e42a,,,,,,,,,,,,./stim/wavs/mexican_match_declarative-broad-focus_Mariano-habla-del-tiempo.wav,0,,,90.6815,93.0581,0,1,1.8476,,0,27,27,60,1,61,0,mexican,,,,,,,,,,,,,,,,,,,,,,,,,,,,,,,,,,,,,,,,,,,,,,,,,,,,,,,,
,,,,,,,,,67926cc8eeb2400a96639477,Spanish ,13 or older,"no, only English or Spanish",no,2025-07-24_09h40.03.635,empathy_intonation_perc_control,2024.2.4,Win32,74.62686567,67926cc8eeb2400a96639477,68817205a84113384fffdfe3,68823738541882702612e42a,,,,,,,,,,,,./stim/wavs/mexican_match_interrogative-total-yn_Mariano-habla-del-tiempo.wav,1,,,93.06,95.341,1,1,1.7486,,0,28,28,16,1,17,0,mexican,,,,,,,,,,,,,,,,,,,,,,,,,,,,,,,,,,,,,,,,,,,,,,,,,,,,,,,,
,,,,,,,,,67926cc8eeb2400a96639477,Spanish ,13 or older,"no, only English or Spanish",no,2025-07-24_09h40.03.635,empathy_intonation_perc_control,2024.2.4,Win32,74.62686567,67926cc8eeb2400a96639477,68817205a84113384fffdfe3,68823738541882702612e42a,,,,,,,,,,,,./stim/wavs/castilian_match_interrogative-total-yn_David-leia-el-libro.wav,1,,,95.3432,97.7742,0,0,1.9135,,0,29,29,0,1,1,0,castilian,,,,,,,,,,,,,,,,,,,,,,,,,,,,,,,,,,,,,,,,,,,,,,,,,,,,,,,,
,,,,,,,,,67926cc8eeb2400a96639477,Spanish ,13 or older,"no, only English or Spanish",no,2025-07-24_09h40.03.635,empathy_intonation_perc_control,2024.2.4,Win32,74.62686567,67926cc8eeb2400a96639477,68817205a84113384fffdfe3,68823738541882702612e42a,,,,,,,,,,,,./stim/wavs/puertorican_mismatch_declarative-broad-focus_El-bebe-comia-muy-bien.wav,0,,,97.7767,100.0336,0,1,1.7302,,0,30,30,83,1,84,0,puertorican,,,,,,,,,,,,,,,,,,,,,,,,,,,,,,,,,,,,,,,,,,,,,,,,,,,,,,,,
,,,,,,,,,67926cc8eeb2400a96639477,Spanish ,13 or older,"no, only English or Spanish",no,2025-07-24_09h40.03.635,empathy_intonation_perc_control,2024.2.4,Win32,74.62686567,67926cc8eeb2400a96639477,68817205a84113384fffdfe3,68823738541882702612e42a,,,,,,,,,,,,./stim/wavs/mexican_match_interrogative-total-yn_Marta-abre-el-regalo.wav,1,,,100.0359,102.2036,1,1,1.6414,,0,31,31,17,1,18,0,mexican,,,,,,,,,,,,,,,,,,,,,,,,,,,,,,,,,,,,,,,,,,,,,,,,,,,,,,,,
,,,,,,,,,67926cc8eeb2400a96639477,Spanish ,13 or older,"no, only English or Spanish",no,2025-07-24_09h40.03.635,empathy_intonation_perc_control,2024.2.4,Win32,74.62686567,67926cc8eeb2400a96639477,68817205a84113384fffdfe3,68823738541882702612e42a,,,,,,,,,,,,./stim/wavs/cuban_match_interrogative-total-yn_Mariano-habla-del-tiempo.wav,1,,,102.2047,104.6486,0,0,1.9215,,0,32,32,10,1,11,1,cuban,,,,,,,,,,,,,,,,,,,,,,,,,,,,,,,,,,,,,,,,,,,,,,,,,,,,,,,,
,,,,,,,,,67926cc8eeb2400a96639477,Spanish ,13 or older,"no, only English or Spanish",no,2025-07-24_09h40.03.635,empathy_intonation_perc_control,2024.2.4,Win32,74.62686567,67926cc8eeb2400a96639477,68817205a84113384fffdfe3,68823738541882702612e42a,,,,,,,,,,,,./stim/wavs/mexican_match_interrogative-total-yn_Daniel-iba-a-Bolivia.wav,1,,,104.6497,106.996,1,1,1.8217,,0,33,33,13,1,14,0,mexican,,,,,,,,,,,,,,,,,,,,,,,,,,,,,,,,,,,,,,,,,,,,,,,,,,,,,,,,
,,,,,,,,,67926cc8eeb2400a96639477,Spanish ,13 or older,"no, only English or Spanish",no,2025-07-24_09h40.03.635,empathy_intonation_perc_control,2024.2.4,Win32,74.62686567,67926cc8eeb2400a96639477,68817205a84113384fffdfe3,68823738541882702612e42a,,,,,,,,,,,,./stim/wavs/puertorican_match_declarative-broad-focus_Emilio-ama-la-marcha.wav,0,,,106.9973,109.3078,0,1,1.7833,,0,34,34,65,1,66,0,puertorican,,,,,,,,,,,,,,,,,,,,,,,,,,,,,,,,,,,,,,,,,,,,,,,,,,,,,,,,
,,,,,,,,,67926cc8eeb2400a96639477,Spanish ,13 or older,"no, only English or Spanish",no,2025-07-24_09h40.03.635,empathy_intonation_perc_control,2024.2.4,Win32,74.62686567,67926cc8eeb2400a96639477,68817205a84113384fffdfe3,68823738541882702612e42a,,,,,,,,,,,,./stim/wavs/castilian_match_interrogative-total-yn_Manuela-vende-el-carro.wav,1,,,109.3099,111.8044,1,1,1.9683,,0,35,35,2,1,3,0,castilian,,,,,,,,,,,,,,,,,,,,,,,,,,,,,,,,,,,,,,,,,,,,,,,,,,,,,,,,
,,,,,,,,,67926cc8eeb2400a96639477,Spanish ,13 or older,"no, only English or Spanish",no,2025-07-24_09h40.03.635,empathy_intonation_perc_control,2024.2.4,Win32,74.62686567,67926cc8eeb2400a96639477,68817205a84113384fffdfe3,68823738541882702612e42a,,,,,,,,,,,,./stim/wavs/castilian_match_declarative-broad-focus_Emilio-ama-la-marcha.wav,0,,,111.8062,114.2841,1,0,1.951,,0,36,36,45,1,46,0,castilian,,,,,,,,,,,,,,,,,,,,,,,,,,,,,,,,,,,,,,,,,,,,,,,,,,,,,,,,
,,,,,,,,,67926cc8eeb2400a96639477,Spanish ,13 or older,"no, only English or Spanish",no,2025-07-24_09h40.03.635,empathy_intonation_perc_control,2024.2.4,Win32,74.62686567,67926cc8eeb2400a96639477,68817205a84113384fffdfe3,68823738541882702612e42a,,,,,,,,,,,,./stim/wavs/castilian_mismatch_interrogative-total-yn_La-maestra-vive-en-Paris.wav,1,,,114.2866,116.7322,1,1,1.9188,,0,37,37,24,1,25,0,castilian,,,,,,,,,,,,,,,,,,,,,,,,,,,,,,,,,,,,,,,,,,,,,,,,,,,,,,,,
,,,,,,,,,67926cc8eeb2400a96639477,Spanish ,13 or older,"no, only English or Spanish",no,2025-07-24_09h40.03.635,empathy_intonation_perc_control,2024.2.4,Win32,74.62686567,67926cc8eeb2400a96639477,68817205a84113384fffdfe3,68823738541882702612e42a,,,,,,,,,,,,./stim/wavs/cuban_match_interrogative-total-yn_Manuela-vende-el-carro.wav,1,,,116.7341,119.9712,0,0,2.7094,,0,38,38,8,1,9,1,cuban,,,,,,,,,,,,,,,,,,,,,,,,,,,,,,,,,,,,,,,,,,,,,,,,,,,,,,,,
,,,,,,,,,67926cc8eeb2400a96639477,Spanish ,13 or older,"no, only English or Spanish",no,2025-07-24_09h40.03.635,empathy_intonation_perc_control,2024.2.4,Win32,74.62686567,67926cc8eeb2400a96639477,68817205a84113384fffdfe3,68823738541882702612e42a,,,,,,,,,,,,./stim/wavs/castilian_match_declarative-broad-focus_Manuela-vende-el-carro.wav,0,,,119.973,122.3333,1,0,1.8284,,0,39,39,46,1,47,0,castilian,,,,,,,,,,,,,,,,,,,,,,,,,,,,,,,,,,,,,,,,,,,,,,,,,,,,,,,,
,,,,,,,,,67926cc8eeb2400a96639477,Spanish ,13 or older,"no, only English or Spanish",no,2025-07-24_09h40.03.635,empathy_intonation_perc_control,2024.2.4,Win32,74.62686567,67926cc8eeb2400a96639477,68817205a84113384fffdfe3,68823738541882702612e42a,,,,,,,,,,,,./stim/wavs/mexican_match_declarative-broad-focus_Ana-lleva-el-abrigo.wav,0,,,122.3345,124.4894,1,0,1.6365,,0,40,40,56,1,57,0,mexican,,,,,,,,,,,,,,,,,,,,,,,,,,,,,,,,,,,,,,,,,,,,,,,,,,,,,,,,
,,,,,,,,,67926cc8eeb2400a96639477,Spanish ,13 or older,"no, only English or Spanish",no,2025-07-24_09h40.03.635,empathy_intonation_perc_control,2024.2.4,Win32,74.62686567,67926cc8eeb2400a96639477,68817205a84113384fffdfe3,68823738541882702612e42a,,,,,,,,,,,,./stim/wavs/mexican_mismatch_interrogative-total-yn_Mi-tia-odia-la-lluvia.wav,1,,,124.4911,126.7214,1,1,1.7014,,0,41,41,38,1,39,0,mexican,,,,,,,,,,,,,,,,,,,,,,,,,,,,,,,,,,,,,,,,,,,,,,,,,,,,,,,,
,,,,,,,,,67926cc8eeb2400a96639477,Spanish ,13 or older,"no, only English or Spanish",no,2025-07-24_09h40.03.635,empathy_intonation_perc_control,2024.2.4,Win32,74.62686567,67926cc8eeb2400a96639477,68817205a84113384fffdfe3,68823738541882702612e42a,,,,,,,,,,,,./stim/wavs/castilian_match_declarative-broad-focus_David-leia-el-libro.wav,0,,,126.7229,129.2174,1,0,1.9631,,0,42,42,44,1,45,0,castilian,,,,,,,,,,,,,,,,,,,,,,,,,,,,,,,,,,,,,,,,,,,,,,,,,,,,,,,,
,,,,,,,,,67926cc8eeb2400a96639477,Spanish ,13 or older,"no, only English or Spanish",no,2025-07-24_09h40.03.635,empathy_intonation_perc_control,2024.2.4,Win32,74.62686567,67926cc8eeb2400a96639477,68817205a84113384fffdfe3,68823738541882702612e42a,,,,,,,,,,,,./stim/wavs/cuban_match_declarative-broad-focus_Manuela-vende-el-carro.wav,0,,,129.2192,131.6135,0,1,1.862,,0,43,43,52,1,53,0,cuban,,,,,,,,,,,,,,,,,,,,,,,,,,,,,,,,,,,,,,,,,,,,,,,,,,,,,,,,
,,,,,,,,,67926cc8eeb2400a96639477,Spanish ,13 or older,"no, only English or Spanish",no,2025-07-24_09h40.03.635,empathy_intonation_perc_control,2024.2.4,Win32,74.62686567,67926cc8eeb2400a96639477,68817205a84113384fffdfe3,68823738541882702612e42a,,,,,,,,,,,,./stim/wavs/mexican_mismatch_interrogative-total-yn_El-nino-oye-el-rio.wav,1,,,131.6162,133.8545,1,1,1.7115,,0,44,44,35,1,36,0,mexican,,,,,,,,,,,,,,,,,,,,,,,,,,,,,,,,,,,,,,,,,,,,,,,,,,,,,,,,
,,,,,,,,,67926cc8eeb2400a96639477,Spanish ,13 or older,"no, only English or Spanish",no,2025-07-24_09h40.03.635,empathy_intonation_perc_control,2024.2.4,Win32,74.62686567,67926cc8eeb2400a96639477,68817205a84113384fffdfe3,68823738541882702612e42a,,,,,,,,,,,,./stim/wavs/puertorican_match_declarative-broad-focus_David-leia-el-libro.wav,0,,,133.8567,136.1369,0,1,1.7617,,0,45,45,64,1,65,0,puertorican,,,,,,,,,,,,,,,,,,,,,,,,,,,,,,,,,,,,,,,,,,,,,,,,,,,,,,,,
,,,,,,,,,67926cc8eeb2400a96639477,Spanish ,13 or older,"no, only English or Spanish",no,2025-07-24_09h40.03.635,empathy_intonation_perc_control,2024.2.4,Win32,74.62686567,67926cc8eeb2400a96639477,68817205a84113384fffdfe3,68823738541882702612e42a,,,,,,,,,,,,./stim/wavs/cuban_mismatch_interrogative-total-yn_El-hombre-mira-la-luna.wav,1,,,136.14,138.3046,1,1,1.6292,,0,46,46,29,1,30,1,cuban,,,,,,,,,,,,,,,,,,,,,,,,,,,,,,,,,,,,,,,,,,,,,,,,,,,,,,,,
,,,,,,,,,67926cc8eeb2400a96639477,Spanish ,13 or older,"no, only English or Spanish",no,2025-07-24_09h40.03.635,empathy_intonation_perc_control,2024.2.4,Win32,74.62686567,67926cc8eeb2400a96639477,68817205a84113384fffdfe3,68823738541882702612e42a,,,,,,,,,,,,./stim/wavs/castilian_mismatch_interrogative-total-yn_Mi-madre-come-la-fruta.wav,1,,,138.3072,140.7209,1,1,1.8958,,0,47,47,26,1,27,0,castilian,,,,,,,,,,,,,,,,,,,,,,,,,,,,,,,,,,,,,,,,,,,,,,,,,,,,,,,,
,,,,,,,,,67926cc8eeb2400a96639477,Spanish ,13 or older,"no, only English or Spanish",no,2025-07-24_09h40.03.635,empathy_intonation_perc_control,2024.2.4,Win32,74.62686567,67926cc8eeb2400a96639477,68817205a84113384fffdfe3,68823738541882702612e42a,,,,,,,,,,,,./stim/wavs/cuban_match_declarative-broad-focus_Ana-lleva-el-abrigo.wav,0,,,140.7228,143.0354,0,1,1.7866,,0,48,48,50,1,51,0,cuban,,,,,,,,,,,,,,,,,,,,,,,,,,,,,,,,,,,,,,,,,,,,,,,,,,,,,,,,
,,,,,,,,,67926cc8eeb2400a96639477,Spanish ,13 or older,"no, only English or Spanish",no,2025-07-24_09h40.03.635,empathy_intonation_perc_control,2024.2.4,Win32,74.62686567,67926cc8eeb2400a96639477,68817205a84113384fffdfe3,68823738541882702612e42a,,,,,,,,,,,,./stim/wavs/castilian_mismatch_interrogative-total-yn_Mi-tia-odia-la-lluvia.wav,1,,,143.0369,145.5134,0,0,1.9494,,0,49,49,28,1,29,0,castilian,,,,,,,,,,,,,,,,,,,,,,,,,,,,,,,,,,,,,,,,,,,,,,,,,,,,,,,,
,,,,,,,,,67926cc8eeb2400a96639477,Spanish ,13 or older,"no, only English or Spanish",no,2025-07-24_09h40.03.635,empathy_intonation_perc_control,2024.2.4,Win32,74.62686567,67926cc8eeb2400a96639477,68817205a84113384fffdfe3,68823738541882702612e42a,,,,,,,,,,,,./stim/wavs/castilian_match_interrogative-total-yn_Marta-abre-el-regalo.wav,1,,,145.5165,147.9488,1,1,1.9057,,0,50,50,5,1,6,0,castilian,,,,,,,,,,,,,,,,,,,,,,,,,,,,,,,,,,,,,,,,,,,,,,,,,,,,,,,,
,,,,,,,,,67926cc8eeb2400a96639477,Spanish ,13 or older,"no, only English or Spanish",no,2025-07-24_09h40.03.635,empathy_intonation_perc_control,2024.2.4,Win32,74.62686567,67926cc8eeb2400a96639477,68817205a84113384fffdfe3,68823738541882702612e42a,,,,,,,,,,,,./stim/wavs/puertorican_match_interrogative-total-yn_Emilio-ama-la-marcha.wav,1,,,147.9502,150.2011,1,1,1.7217,,0,51,51,21,1,22,1,puertorican,,,,,,,,,,,,,,,,,,,,,,,,,,,,,,,,,,,,,,,,,,,,,,,,,,,,,,,,
,,,,,,,,,67926cc8eeb2400a96639477,Spanish ,13 or older,"no, only English or Spanish",no,2025-07-24_09h40.03.635,empathy_intonation_perc_control,2024.2.4,Win32,74.62686567,67926cc8eeb2400a96639477,68817205a84113384fffdfe3,68823738541882702612e42a,,,,,,,,,,,,./stim/wavs/cuban_mismatch_interrogative-total-yn_Mi-tia-odia-la-lluvia.wav,1,,,150.2035,152.5138,0,0,1.7749,,0,52,52,33,1,34,1,cuban,,,,,,,,,,,,,,,,,,,,,,,,,,,,,,,,,,,,,,,,,,,,,,,,,,,,,,,,
,,,,,,,,,67926cc8eeb2400a96639477,Spanish ,13 or older,"no, only English or Spanish",no,2025-07-24_09h40.03.635,empathy_intonation_perc_control,2024.2.4,Win32,74.62686567,67926cc8eeb2400a96639477,68817205a84113384fffdfe3,68823738541882702612e42a,,,,,,,,,,,,./stim/wavs/mexican_match_declarative-broad-focus_David-leia-el-libro.wav,0,,,152.5165,154.757,1,0,1.708,,0,53,53,58,1,59,0,mexican,,,,,,,,,,,,,,,,,,,,,,,,,,,,,,,,,,,,,,,,,,,,,,,,,,,,,,,,
,,,,,,,,,67926cc8eeb2400a96639477,Spanish ,13 or older,"no, only English or Spanish",no,2025-07-24_09h40.03.635,empathy_intonation_perc_control,2024.2.4,Win32,74.62686567,67926cc8eeb2400a96639477,68817205a84113384fffdfe3,68823738541882702612e42a,,,,,,,,,,,,./stim/wavs/mexican_match_interrogative-total-yn_David-leia-el-libro.wav,1,,,154.7582,157.0336,1,1,1.7494,,0,54,54,14,1,15,0,mexican,,,,,,,,,,,,,,,,,,,,,,,,,,,,,,,,,,,,,,,,,,,,,,,,,,,,,,,,
,,,,,,,,,67926cc8eeb2400a96639477,Spanish ,13 or older,"no, only English or Spanish",no,2025-07-24_09h40.03.635,empathy_intonation_perc_control,2024.2.4,Win32,74.62686567,67926cc8eeb2400a96639477,68817205a84113384fffdfe3,68823738541882702612e42a,,,,,,,,,,,,./stim/wavs/mexican_match_declarative-broad-focus_Emilio-ama-la-marcha.wav,0,,,157.0363,159.3818,0,1,1.8306,,0,55,55,59,1,60,0,mexican,,,,,,,,,,,,,,,,,,,,,,,,,,,,,,,,,,,,,,,,,,,,,,,,,,,,,,,,
,,,,,,,,,67926cc8eeb2400a96639477,Spanish ,13 or older,"no, only English or Spanish",no,2025-07-24_09h40.03.635,empathy_intonation_perc_control,2024.2.4,Win32,74.62686567,67926cc8eeb2400a96639477,68817205a84113384fffdfe3,68823738541882702612e42a,,,,,,,,,,,,./stim/wavs/castilian_match_interrogative-total-yn_Mariano-habla-del-tiempo.wav,1,,,159.3843,161.7504,1,1,1.8386,,0,56,56,4,1,5,0,castilian,,,,,,,,,,,,,,,,,,,,,,,,,,,,,,,,,,,,,,,,,,,,,,,,,,,,,,,,
,,,,,,,,,67926cc8eeb2400a96639477,Spanish ,13 or older,"no, only English or Spanish",no,2025-07-24_09h40.03.635,empathy_intonation_perc_control,2024.2.4,Win32,74.62686567,67926cc8eeb2400a96639477,68817205a84113384fffdfe3,68823738541882702612e42a,,,,,,,,,,,,./stim/wavs/castilian_mismatch_declarative-broad-focus_El-nino-oye-el-rio.wav,0,,,161.7516,164.2744,1,0,1.9973,,0,57,57,68,1,69,0,castilian,,,,,,,,,,,,,,,,,,,,,,,,,,,,,,,,,,,,,,,,,,,,,,,,,,,,,,,,
,,,,,,,,,67926cc8eeb2400a96639477,Spanish ,13 or older,"no, only English or Spanish",no,2025-07-24_09h40.03.635,empathy_intonation_perc_control,2024.2.4,Win32,74.62686567,67926cc8eeb2400a96639477,68817205a84113384fffdfe3,68823738541882702612e42a,,,,,,,,,,,,./stim/wavs/mexican_match_declarative-broad-focus_Daniel-iba-a-Bolivia.wav,0,,,164.2771,166.5932,0,1,1.7893,,0,58,58,57,1,58,0,mexican,,,,,,,,,,,,,,,,,,,,,,,,,,,,,,,,,,,,,,,,,,,,,,,,,,,,,,,,
,,,,,,,,,67926cc8eeb2400a96639477,Spanish ,13 or older,"no, only English or Spanish",no,2025-07-24_09h40.03.635,empathy_intonation_perc_control,2024.2.4,Win32,74.62686567,67926cc8eeb2400a96639477,68817205a84113384fffdfe3,68823738541882702612e42a,,,,,,,,,,,,./stim/wavs/mexican_mismatch_interrogative-total-yn_La-maestra-vive-en-Paris.wav,1,,,166.5944,169.002,1,1,1.8815,,0,59,59,36,1,37,0,mexican,,,,,,,,,,,,,,,,,,,,,,,,,,,,,,,,,,,,,,,,,,,,,,,,,,,,,,,,
,,,,,,,,,67926cc8eeb2400a96639477,Spanish ,13 or older,"no, only English or Spanish",no,2025-07-24_09h40.03.635,empathy_intonation_perc_control,2024.2.4,Win32,74.62686567,67926cc8eeb2400a96639477,68817205a84113384fffdfe3,68823738541882702612e42a,,,,,,,,,,,,./stim/wavs/castilian_mismatch_interrogative-total-yn_Mi-novio-viene-del-lago.wav,1,,,169.0037,171.5005,1,1,1.9768,,0,60,60,27,1,28,0,castilian,,,,,,,,,,,,,,,,,,,,,,,,,,,,,,,,,,,,,,,,,,,,,,,,,,,,,,,,
,,,,,,,,,67926cc8eeb2400a96639477,Spanish ,13 or older,"no, only English or Spanish",no,2025-07-24_09h40.03.635,empathy_intonation_perc_control,2024.2.4,Win32,74.62686567,67926cc8eeb2400a96639477,68817205a84113384fffdfe3,68823738541882702612e42a,,,,,,,,,,,,./stim/wavs/mexican_mismatch_interrogative-total-yn_Mi-novio-viene-del-lago.wav,1,,,171.502,173.8477,0,0,1.8153,,0,61,61,37,1,38,0,mexican,,,,,,,,,,,,,,,,,,,,,,,,,,,,,,,,,,,,,,,,,,,,,,,,,,,,,,,,
,,,,,,,,,67926cc8eeb2400a96639477,Spanish ,13 or older,"no, only English or Spanish",no,2025-07-24_09h40.03.635,empathy_intonation_perc_control,2024.2.4,Win32,74.62686567,67926cc8eeb2400a96639477,68817205a84113384fffdfe3,68823738541882702612e42a,,,,,,,,,,,,./stim/wavs/castilian_match_declarative-broad-focus_Mariano-habla-del-tiempo.wav,0,,,173.8506,176.2446,1,0,1.8649,,0,62,62,48,1,49,0,castilian,,,,,,,,,,,,,,,,,,,,,,,,,,,,,,,,,,,,,,,,,,,,,,,,,,,,,,,,
,,,,,,,,,67926cc8eeb2400a96639477,Spanish ,13 or older,"no, only English or Spanish",no,2025-07-24_09h40.03.635,empathy_intonation_perc_control,2024.2.4,Win32,74.62686567,67926cc8eeb2400a96639477,68817205a84113384fffdfe3,68823738541882702612e42a,,,,,,,,,,,,./stim/wavs/mexican_mismatch_interrogative-total-yn_El-hombre-mira-la-luna.wav,1,,,176.2466,178.5916,1,1,1.8158,,0,63,63,34,1,35,0,mexican,,,,,,,,,,,,,,,,,,,,,,,,,,,,,,,,,,,,,,,,,,,,,,,,,,,,,,,,
,,,,,,,,,67926cc8eeb2400a96639477,Spanish ,13 or older,"no, only English or Spanish",no,2025-07-24_09h40.03.635,empathy_intonation_perc_control,2024.2.4,Win32,74.62686567,67926cc8eeb2400a96639477,68817205a84113384fffdfe3,68823738541882702612e42a,,,,,,,,,,,,./stim/wavs/puertorican_match_declarative-broad-focus_Daniel-iba-a-Bolivia.wav,0,,,178.5934,181.3886,1,0,2.2637,,0,64,64,63,1,64,0,puertorican,,,,,,,,,,,,,,,,,,,,,,,,,,,,,,,,,,,,,,,,,,,,,,,,,,,,,,,,
,,,,,,,,,67926cc8eeb2400a96639477,Spanish ,13 or older,"no, only English or Spanish",no,2025-07-24_09h40.03.635,empathy_intonation_perc_control,2024.2.4,Win32,74.62686567,67926cc8eeb2400a96639477,68817205a84113384fffdfe3,68823738541882702612e42a,,,,,,,,,,,,./stim/wavs/puertorican_match_interrogative-total-yn_Maria-bebe-el-vino.wav,1,,,181.3901,183.669,1,1,1.7484,,0,65,65,23,1,24,1,puertorican,,,,,,,,,,,,,,,,,,,,,,,,,,,,,,,,,,,,,,,,,,,,,,,,,,,,,,,,
,,,,,,,,,67926cc8eeb2400a96639477,Spanish ,13 or older,"no, only English or Spanish",no,2025-07-24_09h40.03.635,empathy_intonation_perc_control,2024.2.4,Win32,74.62686567,67926cc8eeb2400a96639477,68817205a84113384fffdfe3,68823738541882702612e42a,,,,,,,,,,,,./stim/wavs/mexican_mismatch_declarative-broad-focus_La-maestra-vive-en-Paris.wav,0,,,183.6713,186.0031,0,1,1.8034,,0,66,66,80,1,81,0,mexican,,,,,,,,,,,,,,,,,,,,,,,,,,,,,,,,,,,,,,,,,,,,,,,,,,,,,,,,
,,,,,,,,,67926cc8eeb2400a96639477,Spanish ,13 or older,"no, only English or Spanish",no,2025-07-24_09h40.03.635,empathy_intonation_perc_control,2024.2.4,Win32,74.62686567,67926cc8eeb2400a96639477,68817205a84113384fffdfe3,68823738541882702612e42a,,,,,,,,,,,,./stim/wavs/puertorican_match_interrogative-total-yn_David-leia-el-libro.wav,1,,,186.0055,188.6654,1,1,2.1356,,0,67,67,20,1,21,1,puertorican,,,,,,,,,,,,,,,,,,,,,,,,,,,,,,,,,,,,,,,,,,,,,,,,,,,,,,,,
,,,,,,,,,67926cc8eeb2400a96639477,Spanish ,13 or older,"no, only English or Spanish",no,2025-07-24_09h40.03.635,empathy_intonation_perc_control,2024.2.4,Win32,74.62686567,67926cc8eeb2400a96639477,68817205a84113384fffdfe3,68823738541882702612e42a,,,,,,,,,,,,./stim/wavs/mexican_match_interrogative-total-yn_Ana-lleva-el-abrigo.wav,1,,,188.667,191.1471,1,1,1.9532,,0,68,68,12,1,13,0,mexican,,,,,,,,,,,,,,,,,,,,,,,,,,,,,,,,,,,,,,,,,,,,,,,,,,,,,,,,
,,,,,,,,,67926cc8eeb2400a96639477,Spanish ,13 or older,"no, only English or Spanish",no,2025-07-24_09h40.03.635,empathy_intonation_perc_control,2024.2.4,Win32,74.62686567,67926cc8eeb2400a96639477,68817205a84113384fffdfe3,68823738541882702612e42a,,,,,,,,,,,,./stim/wavs/cuban_match_declarative-broad-focus_Marta-abre-el-regalo.wav,0,,,191.1483,195.6253,0,1,3.9515,,0,69,69,55,1,56,0,cuban,,,,,,,,,,,,,,,,,,,,,,,,,,,,,,,,,,,,,,,,,,,,,,,,,,,,,,,,
,,,,,,,,,67926cc8eeb2400a96639477,Spanish ,13 or older,"no, only English or Spanish",no,2025-07-24_09h40.03.635,empathy_intonation_perc_control,2024.2.4,Win32,74.62686567,67926cc8eeb2400a96639477,68817205a84113384fffdfe3,68823738541882702612e42a,,,,,,,,,,,,./stim/wavs/cuban_match_interrogative-total-yn_Marta-abre-el-regalo.wav,1,,,195.6273,198.0024,0,0,1.8435,,0,70,70,11,1,12,1,cuban,,,,,,,,,,,,,,,,,,,,,,,,,,,,,,,,,,,,,,,,,,,,,,,,,,,,,,,,
,,,,,,,,,67926cc8eeb2400a96639477,Spanish ,13 or older,"no, only English or Spanish",no,2025-07-24_09h40.03.635,empathy_intonation_perc_control,2024.2.4,Win32,74.62686567,67926cc8eeb2400a96639477,68817205a84113384fffdfe3,68823738541882702612e42a,,,,,,,,,,,,./stim/wavs/castilian_mismatch_declarative-broad-focus_Mi-novio-viene-del-lago.wav,0,,,198.006,200.4364,1,0,1.9062,,0,71,71,71,1,72,0,castilian,,,,,,,,,,,,,,,,,,,,,,,,,,,,,,,,,,,,,,,,,,,,,,,,,,,,,,,,
,,,,,,,,,67926cc8eeb2400a96639477,Spanish ,13 or older,"no, only English or Spanish",no,2025-07-24_09h40.03.635,empathy_intonation_perc_control,2024.2.4,Win32,74.62686567,67926cc8eeb2400a96639477,68817205a84113384fffdfe3,68823738541882702612e42a,,,,,,,,,,,,./stim/wavs/cuban_mismatch_declarative-broad-focus_El-bebe-comia-muy-bien.wav,0,,,200.4377,202.7303,1,0,1.7649,,0,72,72,73,1,74,0,cuban,,,,,,,,,,,,,,,,,,,,,,,,,,,,,,,,,,,,,,,,,,,,,,,,,,,,,,,,
,,,,,,,,,67926cc8eeb2400a96639477,Spanish ,13 or older,"no, only English or Spanish",no,2025-07-24_09h40.03.635,empathy_intonation_perc_control,2024.2.4,Win32,74.62686567,67926cc8eeb2400a96639477,68817205a84113384fffdfe3,68823738541882702612e42a,,,,,,,,,,,,./stim/wavs/puertorican_mismatch_declarative-broad-focus_El-nino-oye-el-rio.wav,0,,,202.7318,205.2376,1,0,1.9869,,0,73,73,85,1,86,0,puertorican,,,,,,,,,,,,,,,,,,,,,,,,,,,,,,,,,,,,,,,,,,,,,,,,,,,,,,,,
,,,,,,,,,67926cc8eeb2400a96639477,Spanish ,13 or older,"no, only English or Spanish",no,2025-07-24_09h40.03.635,empathy_intonation_perc_control,2024.2.4,Win32,74.62686567,67926cc8eeb2400a96639477,68817205a84113384fffdfe3,68823738541882702612e42a,,,,,,,,,,,,./stim/wavs/puertorican_mismatch_interrogative-total-yn_El-hombre-mira-la-luna.wav,1,,,205.2391,207.5454,1,1,1.7875,,0,74,74,39,1,40,1,puertorican,,,,,,,,,,,,,,,,,,,,,,,,,,,,,,,,,,,,,,,,,,,,,,,,,,,,,,,,
,,,,,,,,,67926cc8eeb2400a96639477,Spanish ,13 or older,"no, only English or Spanish",no,2025-07-24_09h40.03.635,empathy_intonation_perc_control,2024.2.4,Win32,74.62686567,67926cc8eeb2400a96639477,68817205a84113384fffdfe3,68823738541882702612e42a,,,,,,,,,,,,./stim/wavs/puertorican_mismatch_declarative-broad-focus_El-hombre-mira-la-luna.wav,0,,,207.5466,209.8396,0,1,1.7669,,0,75,75,84,1,85,0,puertorican,,,,,,,,,,,,,,,,,,,,,,,,,,,,,,,,,,,,,,,,,,,,,,,,,,,,,,,,
,,,,,,,,,67926cc8eeb2400a96639477,Spanish ,13 or older,"no, only English or Spanish",no,2025-07-24_09h40.03.635,empathy_intonation_perc_control,2024.2.4,Win32,74.62686567,67926cc8eeb2400a96639477,68817205a84113384fffdfe3,68823738541882702612e42a,,,,,,,,,,,,./stim/wavs/cuban_match_declarative-broad-focus_Daniel-iba-a-Bolivia.wav,0,,,209.8414,212.4234,1,0,2.0517,,0,76,76,51,1,52,0,cuban,,,,,,,,,,,,,,,,,,,,,,,,,,,,,,,,,,,,,,,,,,,,,,,,,,,,,,,,
,,,,,,,,,67926cc8eeb2400a96639477,Spanish ,13 or older,"no, only English or Spanish",no,2025-07-24_09h40.03.635,empathy_intonation_perc_control,2024.2.4,Win32,74.62686567,67926cc8eeb2400a96639477,68817205a84113384fffdfe3,68823738541882702612e42a,,,,,,,,,,,,./stim/wavs/cuban_mismatch_interrogative-total-yn_El-nino-oye-el-rio.wav,1,,,212.4254,214.5674,1,1,1.6173,,0,77,77,30,1,31,1,cuban,,,,,,,,,,,,,,,,,,,,,,,,,,,,,,,,,,,,,,,,,,,,,,,,,,,,,,,,
,,,,,,,,,67926cc8eeb2400a96639477,Spanish ,13 or older,"no, only English or Spanish",no,2025-07-24_09h40.03.635,empathy_intonation_perc_control,2024.2.4,Win32,74.62686567,67926cc8eeb2400a96639477,68817205a84113384fffdfe3,68823738541882702612e42a,,,,,,,,,,,,./stim/wavs/puertorican_mismatch_interrogative-total-yn_La-maestra-vive-en-Paris.wav,1,,,214.5691,216.8358,1,1,1.7307,,0,78,78,41,1,42,1,puertorican,,,,,,,,,,,,,,,,,,,,,,,,,,,,,,,,,,,,,,,,,,,,,,,,,,,,,,,,
,,,,,,,,,67926cc8eeb2400a96639477,Spanish ,13 or older,"no, only English or Spanish",no,2025-07-24_09h40.03.635,empathy_intonation_perc_control,2024.2.4,Win32,74.62686567,67926cc8eeb2400a96639477,68817205a84113384fffdfe3,68823738541882702612e42a,,,,,,,,,,,,./stim/wavs/mexican_mismatch_declarative-broad-focus_Mi-novio-viene-del-lago.wav,0,,,216.837,219.0155,0,1,1.6552,,0,79,79,81,1,82,0,mexican,,,,,,,,,,,,,,,,,,,,,,,,,,,,,,,,,,,,,,,,,,,,,,,,,,,,,,,,
,,,,,,,,,67926cc8eeb2400a96639477,Spanish ,13 or older,"no, only English or Spanish",no,2025-07-24_09h40.03.635,empathy_intonation_perc_control,2024.2.4,Win32,74.62686567,67926cc8eeb2400a96639477,68817205a84113384fffdfe3,68823738541882702612e42a,,,,,,,,,,,,./stim/wavs/cuban_mismatch_interrogative-total-yn_Mi-madre-come-la-fruta.wav,1,,,219.0166,221.3596,1,1,1.8115,,0,80,80,31,1,32,1,cuban,,,,,,,,,,,,,,,,,,,,,,,,,,,,,,,,,,,,,,,,,,,,,,,,,,,,,,,,
,,,,,,,,,67926cc8eeb2400a96639477,Spanish ,13 or older,"no, only English or Spanish",no,2025-07-24_09h40.03.635,empathy_intonation_perc_control,2024.2.4,Win32,74.62686567,67926cc8eeb2400a96639477,68817205a84113384fffdfe3,68823738541882702612e42a,,,,,,,,,,,,./stim/wavs/castilian_match_declarative-broad-focus_Maria-bebe-el-vino.wav,0,,,221.3615,223.6588,0,1,1.7639,,0,81,81,47,1,48,0,castilian,,,,,,,,,,,,,,,,,,,,,,,,,,,,,,,,,,,,,,,,,,,,,,,,,,,,,,,,
,,,,,,,,,67926cc8eeb2400a96639477,Spanish ,13 or older,"no, only English or Spanish",no,2025-07-24_09h40.03.635,empathy_intonation_perc_control,2024.2.4,Win32,74.62686567,67926cc8eeb2400a96639477,68817205a84113384fffdfe3,68823738541882702612e42a,,,,,,,,,,,,./stim/wavs/mexican_mismatch_declarative-broad-focus_El-hombre-mira-la-luna.wav,0,,,223.6601,225.9213,1,0,1.7352,,0,82,82,79,1,80,0,mexican,,,,,,,,,,,,,,,,,,,,,,,,,,,,,,,,,,,,,,,,,,,,,,,,,,,,,,,,
,,,,,,,,,67926cc8eeb2400a96639477,Spanish ,13 or older,"no, only English or Spanish",no,2025-07-24_09h40.03.635,empathy_intonation_perc_control,2024.2.4,Win32,74.62686567,67926cc8eeb2400a96639477,68817205a84113384fffdfe3,68823738541882702612e42a,,,,,,,,,,,,./stim/wavs/puertorican_mismatch_interrogative-total-yn_La-nina-lava-el-plato.wav,1,,,225.923,228.3855,1,1,1.9306,,0,83,83,42,1,43,1,puertorican,,,,,,,,,,,,,,,,,,,,,,,,,,,,,,,,,,,,,,,,,,,,,,,,,,,,,,,,
,,,,,,,,,67926cc8eeb2400a96639477,Spanish ,13 or older,"no, only English or Spanish",no,2025-07-24_09h40.03.635,empathy_intonation_perc_control,2024.2.4,Win32,74.62686567,67926cc8eeb2400a96639477,68817205a84113384fffdfe3,68823738541882702612e42a,,,,,,,,,,,,./stim/wavs/puertorican_mismatch_declarative-broad-focus_La-maestra-vive-en-Paris.wav,0,,,228.3875,230.6983,0,1,1.7825,,0,84,84,86,1,87,0,puertorican,,,,,,,,,,,,,,,,,,,,,,,,,,,,,,,,,,,,,,,,,,,,,,,,,,,,,,,,
,,,,,,,,,67926cc8eeb2400a96639477,Spanish ,13 or older,"no, only English or Spanish",no,2025-07-24_09h40.03.635,empathy_intonation_perc_control,2024.2.4,Win32,74.62686567,67926cc8eeb2400a96639477,68817205a84113384fffdfe3,68823738541882702612e42a,,,,,,,,,,,,./stim/wavs/puertorican_match_declarative-broad-focus_Ana-lleva-el-abrigo.wav,0,,,230.6999,232.8827,0,1,1.6545,,0,85,85,62,1,63,0,puertorican,,,,,,,,,,,,,,,,,,,,,,,,,,,,,,,,,,,,,,,,,,,,,,,,,,,,,,,,
,,,,,,,,,67926cc8eeb2400a96639477,Spanish ,13 or older,"no, only English or Spanish",no,2025-07-24_09h40.03.635,empathy_intonation_perc_control,2024.2.4,Win32,74.62686567,67926cc8eeb2400a96639477,68817205a84113384fffdfe3,68823738541882702612e42a,,,,,,,,,,,,./stim/wavs/cuban_mismatch_interrogative-total-yn_Mi-novio-viene-del-lago.wav,1,,,232.884,235.2111,1,1,1.802,,0,86,86,32,1,33,1,cuban,,,,,,,,,,,,,,,,,,,,,,,,,,,,,,,,,,,,,,,,,,,,,,,,,,,,,,,,
,,,,,,,,,67926cc8eeb2400a96639477,Spanish ,13 or older,"no, only English or Spanish",no,2025-07-24_09h40.03.635,empathy_intonation_perc_control,2024.2.4,Win32,74.62686567,67926cc8eeb2400a96639477,68817205a84113384fffdfe3,68823738541882702612e42a,,,,,,,,,,,,./stim/wavs/puertorican_match_declarative-broad-focus_Maria-bebe-el-vino.wav,0,,,235.2134,237.4253,1,0,1.6847,,0,87,87,67,1,68,0,puertorican,,,,,,,,,,,,,,,,,,,,,,,,,,,,,,,,,,,,,,,,,,,,,,,,,,,,,,,,
,,,,,,,"Great! Now we will move on. The next task consists of about 60 trials, in each of which you will see a string of letters. 
  
  Your task is to decide whether this is a real Spanish word or not.", (press the spacebar to continue),67926cc8eeb2400a96639477,Spanish ,13 or older,"no, only English or Spanish",no,2025-07-24_09h40.03.635,empathy_intonation_perc_control,2024.2.4,Win32,74.62686567,67926cc8eeb2400a96639477,68817205a84113384fffdfe3,68823738541882702612e42a,,,,,,,,,,,,,,,,,,,,,,,,,,,,,,237.4461,716.3693,0,0,0,0,1,,,,,,,,,,,,,,,,,,,,,,,,,,,,,,,,,,,,,,,,,,,,,,,,,
,,,,,,,"If you think it is an existing Spanish word, you type '1' (for 'REAL'), and if you think it is not an existing Spanish word, you type '0' (for 'FAKE').", (press the spacebar to continue),67926cc8eeb2400a96639477,Spanish ,13 or older,"no, only English or Spanish",no,2025-07-24_09h40.03.635,empathy_intonation_perc_control,2024.2.4,Win32,74.62686567,67926cc8eeb2400a96639477,68817205a84113384fffdfe3,68823738541882702612e42a,,,,,,,,,,,,,,,,,,,,,,,,,,,,,,716.3768,720.2615,0,1,1,1,1,,,,,,,,,,,,,,,,,,,,,,,,,,,,,,,,,,,,,,,,,,,,,,,,,
,,,,,,,"If you are sure that the word exists, even though you don’t know its exact meaning, you may still respond '1' (REAL). 
  
  But if you are not sure if it is an existing word, you should respond '0' (FAKE).
  
  Let's do a practice round...", (press the spacebar to continue),67926cc8eeb2400a96639477,Spanish ,13 or older,"no, only English or Spanish",no,2025-07-24_09h40.03.635,empathy_intonation_perc_control,2024.2.4,Win32,74.62686567,67926cc8eeb2400a96639477,68817205a84113384fffdfe3,68823738541882702612e42a,,,,,,,,,,,,,,,,,,,,,,,,,,,,,,720.2688,721.5271,0,2,2,2,1,,,,,,,,,,,,,,,,,,,,,,,,,,,,,,,,,,,,,,,,,,,,,,,,,
,,,,,,,,,67926cc8eeb2400a96639477,Spanish ,13 or older,"no, only English or Spanish",no,2025-07-24_09h40.03.635,empathy_intonation_perc_control,2024.2.4,Win32,74.62686567,67926cc8eeb2400a96639477,68817205a84113384fffdfe3,68823738541882702612e42a,,,,,,,,,,,,,0,,,,,,,,,,,,,,,,,,,,,,,,721.561,723.4435,1,0,1.347,,723.4444,724.4417,0,0,0,0,1,0,depiste,REAL,FAKE,,,,,,,,,,,,,,,,,,,,,,,,,,,,,,,,
,,,,,,,,,67926cc8eeb2400a96639477,Spanish ,13 or older,"no, only English or Spanish",no,2025-07-24_09h40.03.635,empathy_intonation_perc_control,2024.2.4,Win32,74.62686567,67926cc8eeb2400a96639477,68817205a84113384fffdfe3,68823738541882702612e42a,,,,,,,,,,,,,1,,,,,,,,,,,,,,,,,,,,,,,,724.4468,725.6403,1,1,0.6653,,725.6438,726.6372,0,1,1,1,1,0,sí,REAL,FAKE,,,,,,,,,,,,,,,,,,,,,,,,,,,,,,,,
,,,,,,,,,67926cc8eeb2400a96639477,Spanish ,13 or older,"no, only English or Spanish",no,2025-07-24_09h40.03.635,empathy_intonation_perc_control,2024.2.4,Win32,74.62686567,67926cc8eeb2400a96639477,68817205a84113384fffdfe3,68823738541882702612e42a,,,,,,,,,,,,,0,,,,,,,,,,,,,,,,,,,,,,,,726.6408,727.9071,1,0,0.7337,,727.9087,728.9012,0,2,2,2,1,0,coné,REAL,FAKE,,,,,,,,,,,,,,,,,,,,,,,,,,,,,,,,
,,,,,,,,,67926cc8eeb2400a96639477,Spanish ,13 or older,"no, only English or Spanish",no,2025-07-24_09h40.03.635,empathy_intonation_perc_control,2024.2.4,Win32,74.62686567,67926cc8eeb2400a96639477,68817205a84113384fffdfe3,68823738541882702612e42a,,,,,,,,,,,,,0,,,,,,,,,,,,,,,,,,,,,,,,728.9046,730.3984,1,0,0.9381,,730.3988,731.3975,0,3,3,3,1,0,calpar,REAL,FAKE,,,,,,,,,,,,,,,,,,,,,,,,,,,,,,,,
,,,,,,,,,67926cc8eeb2400a96639477,Spanish ,13 or older,"no, only English or Spanish",no,2025-07-24_09h40.03.635,empathy_intonation_perc_control,2024.2.4,Win32,74.62686567,67926cc8eeb2400a96639477,68817205a84113384fffdfe3,68823738541882702612e42a,,,,,,,,,,,,,0,,,,,,,,,,,,,,,,,,,,,,,,731.4019,732.6479,0,1,0.7094,,732.65,733.6458,0,4,4,4,1,0,joten,REAL,FAKE,,,,,,,,,,,,,,,,,,,,,,,,,,,,,,,,
,,,,,,,,,67926cc8eeb2400a96639477,Spanish ,13 or older,"no, only English or Spanish",no,2025-07-24_09h40.03.635,empathy_intonation_perc_control,2024.2.4,Win32,74.62686567,67926cc8eeb2400a96639477,68817205a84113384fffdfe3,68823738541882702612e42a,,,,,,,,,,,,,1,,,,,,,,,,,,,,,,,,,,,,,,733.6491,734.926,0,0,0.7454,,734.9286,735.9207,0,5,5,5,1,0,sacapuntas,REAL,FAKE,,,,,,,,,,,,,,,,,,,,,,,,,,,,,,,,
,,,,,,,,,67926cc8eeb2400a96639477,Spanish ,13 or older,"no, only English or Spanish",no,2025-07-24_09h40.03.635,empathy_intonation_perc_control,2024.2.4,Win32,74.62686567,67926cc8eeb2400a96639477,68817205a84113384fffdfe3,68823738541882702612e42a,,,,,,,,,,,,,0,,,,,,,,,,,,,,,,,,,,,,,,735.9249,737.0438,1,0,0.5814,,737.0441,738.0402,0,6,6,6,1,0,priba,REAL,FAKE,,,,,,,,,,,,,,,,,,,,,,,,,,,,,,,,
,,,,,,,,,67926cc8eeb2400a96639477,Spanish ,13 or older,"no, only English or Spanish",no,2025-07-24_09h40.03.635,empathy_intonation_perc_control,2024.2.4,Win32,74.62686567,67926cc8eeb2400a96639477,68817205a84113384fffdfe3,68823738541882702612e42a,,,,,,,,,,,,,0,,,,,,,,,,,,,,,,,,,,,,,,738.0429,739.0733,0,1,0.4921,,739.0752,740.0749,0,7,7,7,1,0,pelasula,REAL,FAKE,,,,,,,,,,,,,,,,,,,,,,,,,,,,,,,,
,,,,,,,,,67926cc8eeb2400a96639477,Spanish ,13 or older,"no, only English or Spanish",no,2025-07-24_09h40.03.635,empathy_intonation_perc_control,2024.2.4,Win32,74.62686567,67926cc8eeb2400a96639477,68817205a84113384fffdfe3,68823738541882702612e42a,,,,,,,,,,,,,1,,,,,,,,,,,,,,,,,,,,,,,,740.0773,741.29,1,1,0.6841,,741.2901,742.2853,0,8,8,8,1,0,bien,REAL,FAKE,,,,,,,,,,,,,,,,,,,,,,,,,,,,,,,,
,,,,,,,,,67926cc8eeb2400a96639477,Spanish ,13 or older,"no, only English or Spanish",no,2025-07-24_09h40.03.635,empathy_intonation_perc_control,2024.2.4,Win32,74.62686567,67926cc8eeb2400a96639477,68817205a84113384fffdfe3,68823738541882702612e42a,,,,,,,,,,,,,1,,,,,,,,,,,,,,,,,,,,,,,,742.2881,743.387,1,1,0.5672,,743.3872,744.3857,0,9,9,9,1,0,casa,REAL,FAKE,,,,,,,,,,,,,,,,,,,,,,,,,,,,,,,,
,,,,,,,,,67926cc8eeb2400a96639477,Spanish ,13 or older,"no, only English or Spanish",no,2025-07-24_09h40.03.635,empathy_intonation_perc_control,2024.2.4,Win32,74.62686567,67926cc8eeb2400a96639477,68817205a84113384fffdfe3,68823738541882702612e42a,,,,,,,,,,,,,0,,,,,,,,,,,,,,,,,,,,,,,,744.3888,745.4834,0,1,0.5655,,745.4835,746.4808,0,10,10,10,1,0,lejo,REAL,FAKE,,,,,,,,,,,,,,,,,,,,,,,,,,,,,,,,
,,,,,,,,,67926cc8eeb2400a96639477,Spanish ,13 or older,"no, only English or Spanish",no,2025-07-24_09h40.03.635,empathy_intonation_perc_control,2024.2.4,Win32,74.62686567,67926cc8eeb2400a96639477,68817205a84113384fffdfe3,68823738541882702612e42a,,,,,,,,,,,,,0,,,,,,,,,,,,,,,,,,,,,,,,746.4839,747.6142,1,0,0.5921,,747.6165,748.611,0,11,11,11,1,0,pretantas,REAL,FAKE,,,,,,,,,,,,,,,,,,,,,,,,,,,,,,,,
,,,,,,,,,67926cc8eeb2400a96639477,Spanish ,13 or older,"no, only English or Spanish",no,2025-07-24_09h40.03.635,empathy_intonation_perc_control,2024.2.4,Win32,74.62686567,67926cc8eeb2400a96639477,68817205a84113384fffdfe3,68823738541882702612e42a,,,,,,,,,,,,,,,,,,,,,,,,,,,,,,,,,,,,,,,,,,,,,,,,,,,,,,748.6118,785.4362,,,,,,,,,,,,,,,,,,,,,,,,,,,,,,
,,,,,,,,,67926cc8eeb2400a96639477,Spanish ,13 or older,"no, only English or Spanish",no,2025-07-24_09h40.03.635,empathy_intonation_perc_control,2024.2.4,Win32,74.62686567,67926cc8eeb2400a96639477,68817205a84113384fffdfe3,68823738541882702612e42a,,,,,,,,,,,,,1,,,,,,,,,,,,,,,,,,,,,,,,,,,,,,,,,,,,,86,barato,,,,,785.4772,786.7126,1,1,0.7115,,0,0,0,85,1,REAL,FAKE,,,,,,,,,,,,,,,,,
,,,,,,,,,67926cc8eeb2400a96639477,Spanish ,13 or older,"no, only English or Spanish",no,2025-07-24_09h40.03.635,empathy_intonation_perc_control,2024.2.4,Win32,74.62686567,67926cc8eeb2400a96639477,68817205a84113384fffdfe3,68823738541882702612e42a,,,,,,,,,,,,,1,,,,,,,,,,,,,,,,,,,,,,,,,,,,,,,,,,,,,24,látigo,,,,,786.718,788.55,1,1,1.3007,,0,1,1,23,1,REAL,FAKE,,,,,,,,,,,,,,,,,
,,,,,,,,,67926cc8eeb2400a96639477,Spanish ,13 or older,"no, only English or Spanish",no,2025-07-24_09h40.03.635,empathy_intonation_perc_control,2024.2.4,Win32,74.62686567,67926cc8eeb2400a96639477,68817205a84113384fffdfe3,68823738541882702612e42a,,,,,,,,,,,,,1,,,,,,,,,,,,,,,,,,,,,,,,,,,,,,,,,,,,,15,regar,,,,,788.5524,789.6732,0,0,0.5819,,0,2,2,14,1,REAL,FAKE,,,,,,,,,,,,,,,,,
,,,,,,,,,67926cc8eeb2400a96639477,Spanish ,13 or older,"no, only English or Spanish",no,2025-07-24_09h40.03.635,empathy_intonation_perc_control,2024.2.4,Win32,74.62686567,67926cc8eeb2400a96639477,68817205a84113384fffdfe3,68823738541882702612e42a,,,,,,,,,,,,,0,,,,,,,,,,,,,,,,,,,,,,,,,,,,,,,,,,,,,66,hacido,,,,,789.6772,790.7606,0,1,0.5504,,0,3,3,65,1,REAL,FAKE,,,,,,,,,,,,,,,,,
,,,,,,,,,67926cc8eeb2400a96639477,Spanish ,13 or older,"no, only English or Spanish",no,2025-07-24_09h40.03.635,empathy_intonation_perc_control,2024.2.4,Win32,74.62686567,67926cc8eeb2400a96639477,68817205a84113384fffdfe3,68823738541882702612e42a,,,,,,,,,,,,,0,,,,,,,,,,,,,,,,,,,,,,,,,,,,,,,,,,,,,4,batillón,,,,,790.7655,791.79,1,0,0.4956,,0,4,4,3,1,REAL,FAKE,,,,,,,,,,,,,,,,,
,,,,,,,,,67926cc8eeb2400a96639477,Spanish ,13 or older,"no, only English or Spanish",no,2025-07-24_09h40.03.635,empathy_intonation_perc_control,2024.2.4,Win32,74.62686567,67926cc8eeb2400a96639477,68817205a84113384fffdfe3,68823738541882702612e42a,,,,,,,,,,,,,1,,,,,,,,,,,,,,,,,,,,,,,,,,,,,,,,,,,,,57,tacaño,,,,,791.7937,792.9424,1,1,0.6004,,0,5,5,56,1,REAL,FAKE,,,,,,,,,,,,,,,,,
,,,,,,,,,67926cc8eeb2400a96639477,Spanish ,13 or older,"no, only English or Spanish",no,2025-07-24_09h40.03.635,empathy_intonation_perc_control,2024.2.4,Win32,74.62686567,67926cc8eeb2400a96639477,68817205a84113384fffdfe3,68823738541882702612e42a,,,,,,,,,,,,,1,,,,,,,,,,,,,,,,,,,,,,,,,,,,,,,,,,,,,11,cenefa,,,,,792.9476,794.4737,0,0,0.9944,,0,6,6,10,1,REAL,FAKE,,,,,,,,,,,,,,,,,
,,,,,,,,,67926cc8eeb2400a96639477,Spanish ,13 or older,"no, only English or Spanish",no,2025-07-24_09h40.03.635,empathy_intonation_perc_control,2024.2.4,Win32,74.62686567,67926cc8eeb2400a96639477,68817205a84113384fffdfe3,68823738541882702612e42a,,,,,,,,,,,,,1,,,,,,,,,,,,,,,,,,,,,,,,,,,,,,,,,,,,,48,ladrón,,,,,794.4783,795.7069,1,1,0.6998,,0,7,7,47,1,REAL,FAKE,,,,,,,,,,,,,,,,,
,,,,,,,,,67926cc8eeb2400a96639477,Spanish ,13 or older,"no, only English or Spanish",no,2025-07-24_09h40.03.635,empathy_intonation_perc_control,2024.2.4,Win32,74.62686567,67926cc8eeb2400a96639477,68817205a84113384fffdfe3,68823738541882702612e42a,,,,,,,,,,,,,0,,,,,,,,,,,,,,,,,,,,,,,,,,,,,,,,,,,,,82,empirador,,,,,795.7105,796.889,0,1,0.6449,,0,8,8,81,1,REAL,FAKE,,,,,,,,,,,,,,,,,
,,,,,,,,,67926cc8eeb2400a96639477,Spanish ,13 or older,"no, only English or Spanish",no,2025-07-24_09h40.03.635,empathy_intonation_perc_control,2024.2.4,Win32,74.62686567,67926cc8eeb2400a96639477,68817205a84113384fffdfe3,68823738541882702612e42a,,,,,,,,,,,,,1,,,,,,,,,,,,,,,,,,,,,,,,,,,,,,,,,,,,,56,musgo,,,,,796.8919,798.0549,1,1,0.6295,,0,9,9,55,1,REAL,FAKE,,,,,,,,,,,,,,,,,
,,,,,,,,,67926cc8eeb2400a96639477,Spanish ,13 or older,"no, only English or Spanish",no,2025-07-24_09h40.03.635,empathy_intonation_perc_control,2024.2.4,Win32,74.62686567,67926cc8eeb2400a96639477,68817205a84113384fffdfe3,68823738541882702612e42a,,,,,,,,,,,,,1,,,,,,,,,,,,,,,,,,,,,,,,,,,,,,,,,,,,,22,lacayo,,,,,798.0595,799.2718,0,0,0.6834,,0,10,10,21,1,REAL,FAKE,,,,,,,,,,,,,,,,,
,,,,,,,,,67926cc8eeb2400a96639477,Spanish ,13 or older,"no, only English or Spanish",no,2025-07-24_09h40.03.635,empathy_intonation_perc_control,2024.2.4,Win32,74.62686567,67926cc8eeb2400a96639477,68817205a84113384fffdfe3,68823738541882702612e42a,,,,,,,,,,,,,1,,,,,,,,,,,,,,,,,,,,,,,,,,,,,,,,,,,,,60,matar,,,,,799.2742,800.514,1,1,0.7122,,0,11,11,59,1,REAL,FAKE,,,,,,,,,,,,,,,,,
,,,,,,,,,67926cc8eeb2400a96639477,Spanish ,13 or older,"no, only English or Spanish",no,2025-07-24_09h40.03.635,empathy_intonation_perc_control,2024.2.4,Win32,74.62686567,67926cc8eeb2400a96639477,68817205a84113384fffdfe3,68823738541882702612e42a,,,,,,,,,,,,,0,,,,,,,,,,,,,,,,,,,,,,,,,,,,,,,,,,,,,8,cadeña,,,,,800.518,801.7497,1,0,0.6998,,0,12,12,7,1,REAL,FAKE,,,,,,,,,,,,,,,,,
,,,,,,,,,67926cc8eeb2400a96639477,Spanish ,13 or older,"no, only English or Spanish",no,2025-07-24_09h40.03.635,empathy_intonation_perc_control,2024.2.4,Win32,74.62686567,67926cc8eeb2400a96639477,68817205a84113384fffdfe3,68823738541882702612e42a,,,,,,,,,,,,,1,,,,,,,,,,,,,,,,,,,,,,,,,,,,,,,,,,,,,52,camisa,,,,,801.7535,802.9799,0,0,0.6964,,0,13,13,51,1,REAL,FAKE,,,,,,,,,,,,,,,,,
,,,,,,,,,67926cc8eeb2400a96639477,Spanish ,13 or older,"no, only English or Spanish",no,2025-07-24_09h40.03.635,empathy_intonation_perc_control,2024.2.4,Win32,74.62686567,67926cc8eeb2400a96639477,68817205a84113384fffdfe3,68823738541882702612e42a,,,,,,,,,,,,,0,,,,,,,,,,,,,,,,,,,,,,,,,,,,,,,,,,,,,74,cintro,,,,,802.9835,804.5503,1,0,1.0341,,0,14,14,73,1,REAL,FAKE,,,,,,,,,,,,,,,,,
,,,,,,,,,67926cc8eeb2400a96639477,Spanish ,13 or older,"no, only English or Spanish",no,2025-07-24_09h40.03.635,empathy_intonation_perc_control,2024.2.4,Win32,74.62686567,67926cc8eeb2400a96639477,68817205a84113384fffdfe3,68823738541882702612e42a,,,,,,,,,,,,,1,,,,,,,,,,,,,,,,,,,,,,,,,,,,,,,,,,,,,75,yacer,,,,,804.5522,805.6315,1,1,0.5498,,0,15,15,74,1,REAL,FAKE,,,,,,,,,,,,,,,,,
,,,,,,,,,67926cc8eeb2400a96639477,Spanish ,13 or older,"no, only English or Spanish",no,2025-07-24_09h40.03.635,empathy_intonation_perc_control,2024.2.4,Win32,74.62686567,67926cc8eeb2400a96639477,68817205a84113384fffdfe3,68823738541882702612e42a,,,,,,,,,,,,,1,,,,,,,,,,,,,,,,,,,,,,,,,,,,,,,,,,,,,40,alfombra,,,,,805.6337,807.0158,0,0,0.853,,0,16,16,39,1,REAL,FAKE,,,,,,,,,,,,,,,,,
,,,,,,,,,67926cc8eeb2400a96639477,Spanish ,13 or older,"no, only English or Spanish",no,2025-07-24_09h40.03.635,empathy_intonation_perc_control,2024.2.4,Win32,74.62686567,67926cc8eeb2400a96639477,68817205a84113384fffdfe3,68823738541882702612e42a,,,,,,,,,,,,,1,,,,,,,,,,,,,,,,,,,,,,,,,,,,,,,,,,,,,61,seda,,,,,807.0176,808.3619,1,1,0.817,,0,17,17,60,1,REAL,FAKE,,,,,,,,,,,,,,,,,
,,,,,,,,,67926cc8eeb2400a96639477,Spanish ,13 or older,"no, only English or Spanish",no,2025-07-24_09h40.03.635,empathy_intonation_perc_control,2024.2.4,Win32,74.62686567,67926cc8eeb2400a96639477,68817205a84113384fffdfe3,68823738541882702612e42a,,,,,,,,,,,,,0,,,,,,,,,,,,,,,,,,,,,,,,,,,,,,,,,,,,,79,tropaje,,,,,808.3649,809.8765,0,1,0.9803,,0,18,18,78,1,REAL,FAKE,,,,,,,,,,,,,,,,,
,,,,,,,,,67926cc8eeb2400a96639477,Spanish ,13 or older,"no, only English or Spanish",no,2025-07-24_09h40.03.635,empathy_intonation_perc_control,2024.2.4,Win32,74.62686567,67926cc8eeb2400a96639477,68817205a84113384fffdfe3,68823738541882702612e42a,,,,,,,,,,,,,1,,,,,,,,,,,,,,,,,,,,,,,,,,,,,,,,,,,,,31,pandilla,,,,,809.8789,811.3399,1,1,0.9302,,0,19,19,30,1,REAL,FAKE,,,,,,,,,,,,,,,,,
,,,,,,,,,67926cc8eeb2400a96639477,Spanish ,13 or older,"no, only English or Spanish",no,2025-07-24_09h40.03.635,empathy_intonation_perc_control,2024.2.4,Win32,74.62686567,67926cc8eeb2400a96639477,68817205a84113384fffdfe3,68823738541882702612e42a,,,,,,,,,,,,,0,,,,,,,,,,,,,,,,,,,,,,,,,,,,,,,,,,,,,72,pemición,,,,,811.3435,812.7743,0,1,0.914,,0,20,20,71,1,REAL,FAKE,,,,,,,,,,,,,,,,,
,,,,,,,,,67926cc8eeb2400a96639477,Spanish ,13 or older,"no, only English or Spanish",no,2025-07-24_09h40.03.635,empathy_intonation_perc_control,2024.2.4,Win32,74.62686567,67926cc8eeb2400a96639477,68817205a84113384fffdfe3,68823738541882702612e42a,,,,,,,,,,,,,1,,,,,,,,,,,,,,,,,,,,,,,,,,,,,,,,,,,,,41,rebuscar,,,,,812.7765,814.7027,1,1,1.3955,,0,21,21,40,1,REAL,FAKE,,,,,,,,,,,,,,,,,
,,,,,,,,,67926cc8eeb2400a96639477,Spanish ,13 or older,"no, only English or Spanish",no,2025-07-24_09h40.03.635,empathy_intonation_perc_control,2024.2.4,Win32,74.62686567,67926cc8eeb2400a96639477,68817205a84113384fffdfe3,68823738541882702612e42a,,,,,,,,,,,,,1,,,,,,,,,,,,,,,,,,,,,,,,,,,,,,,,,,,,,71,polvoriento,,,,,814.7062,816.2511,0,0,1.0144,,0,22,22,70,1,REAL,FAKE,,,,,,,,,,,,,,,,,
,,,,,,,,,67926cc8eeb2400a96639477,Spanish ,13 or older,"no, only English or Spanish",no,2025-07-24_09h40.03.635,empathy_intonation_perc_control,2024.2.4,Win32,74.62686567,67926cc8eeb2400a96639477,68817205a84113384fffdfe3,68823738541882702612e42a,,,,,,,,,,,,,1,,,,,,,,,,,,,,,,,,,,,,,,,,,,,,,,,,,,,37,granuja,,,,,816.2536,817.8525,1,1,1.0683,,0,23,23,36,1,REAL,FAKE,,,,,,,,,,,,,,,,,
,,,,,,,,,67926cc8eeb2400a96639477,Spanish ,13 or older,"no, only English or Spanish",no,2025-07-24_09h40.03.635,empathy_intonation_perc_control,2024.2.4,Win32,74.62686567,67926cc8eeb2400a96639477,68817205a84113384fffdfe3,68823738541882702612e42a,,,,,,,,,,,,,0,,,,,,,,,,,,,,,,,,,,,,,,,,,,,,,,,,,,,27,acutación,,,,,817.8563,820.5604,0,1,2.1767,,0,24,24,26,1,REAL,FAKE,,,,,,,,,,,,,,,,,
,,,,,,,,,67926cc8eeb2400a96639477,Spanish ,13 or older,"no, only English or Spanish",no,2025-07-24_09h40.03.635,empathy_intonation_perc_control,2024.2.4,Win32,74.62686567,67926cc8eeb2400a96639477,68817205a84113384fffdfe3,68823738541882702612e42a,,,,,,,,,,,,,1,,,,,,,,,,,,,,,,,,,,,,,,,,,,,,,,,,,,,3,pulmones,,,,,820.5636,822.1143,1,1,1.0167,,0,25,25,2,1,REAL,FAKE,,,,,,,,,,,,,,,,,
,,,,,,,,,67926cc8eeb2400a96639477,Spanish ,13 or older,"no, only English or Spanish",no,2025-07-24_09h40.03.635,empathy_intonation_perc_control,2024.2.4,Win32,74.62686567,67926cc8eeb2400a96639477,68817205a84113384fffdfe3,68823738541882702612e42a,,,,,,,,,,,,,0,,,,,,,,,,,,,,,,,,,,,,,,,,,,,,,,,,,,,53,vegada,,,,,822.1178,824.4832,1,0,1.8422,,0,26,26,52,1,REAL,FAKE,,,,,,,,,,,,,,,,,
,,,,,,,,,67926cc8eeb2400a96639477,Spanish ,13 or older,"no, only English or Spanish",no,2025-07-24_09h40.03.635,empathy_intonation_perc_control,2024.2.4,Win32,74.62686567,67926cc8eeb2400a96639477,68817205a84113384fffdfe3,68823738541882702612e42a,,,,,,,,,,,,,1,,,,,,,,,,,,,,,,,,,,,,,,,,,,,,,,,,,,,20,ávido,,,,,824.4852,826.3039,0,0,1.2916,,0,27,27,19,1,REAL,FAKE,,,,,,,,,,,,,,,,,
,,,,,,,,,67926cc8eeb2400a96639477,Spanish ,13 or older,"no, only English or Spanish",no,2025-07-24_09h40.03.635,empathy_intonation_perc_control,2024.2.4,Win32,74.62686567,67926cc8eeb2400a96639477,68817205a84113384fffdfe3,68823738541882702612e42a,,,,,,,,,,,,,1,,,,,,,,,,,,,,,,,,,,,,,,,,,,,,,,,,,,,38,estornudar,,,,,826.3073,827.7878,1,1,0.9506,,0,28,28,37,1,REAL,FAKE,,,,,,,,,,,,,,,,,
,,,,,,,,,67926cc8eeb2400a96639477,Spanish ,13 or older,"no, only English or Spanish",no,2025-07-24_09h40.03.635,empathy_intonation_perc_control,2024.2.4,Win32,74.62686567,67926cc8eeb2400a96639477,68817205a84113384fffdfe3,68823738541882702612e42a,,,,,,,,,,,,,1,,,,,,,,,,,,,,,,,,,,,,,,,,,,,,,,,,,,,7,pésimo,,,,,827.7907,829.9043,0,0,1.581,,0,29,29,6,1,REAL,FAKE,,,,,,,,,,,,,,,,,
,,,,,,,,,67926cc8eeb2400a96639477,Spanish ,13 or older,"no, only English or Spanish",no,2025-07-24_09h40.03.635,empathy_intonation_perc_control,2024.2.4,Win32,74.62686567,67926cc8eeb2400a96639477,68817205a84113384fffdfe3,68823738541882702612e42a,,,,,,,,,,,,,1,,,,,,,,,,,,,,,,,,,,,,,,,,,,,,,,,,,,,65,bizcocho,,,,,829.9073,831.7516,1,1,1.3156,,0,30,30,64,1,REAL,FAKE,,,,,,,,,,,,,,,,,
,,,,,,,,,67926cc8eeb2400a96639477,Spanish ,13 or older,"no, only English or Spanish",no,2025-07-24_09h40.03.635,empathy_intonation_perc_control,2024.2.4,Win32,74.62686567,67926cc8eeb2400a96639477,68817205a84113384fffdfe3,68823738541882702612e42a,,,,,,,,,,,,,0,,,,,,,,,,,,,,,,,,,,,,,,,,,,,,,,,,,,,21,capillo,,,,,831.7538,833.5167,1,0,1.2275,,0,31,31,20,1,REAL,FAKE,,,,,,,,,,,,,,,,,
,,,,,,,,,67926cc8eeb2400a96639477,Spanish ,13 or older,"no, only English or Spanish",no,2025-07-24_09h40.03.635,empathy_intonation_perc_control,2024.2.4,Win32,74.62686567,67926cc8eeb2400a96639477,68817205a84113384fffdfe3,68823738541882702612e42a,,,,,,,,,,,,,0,,,,,,,,,,,,,,,,,,,,,,,,,,,,,,,,,,,,,23,lampera,,,,,833.5196,835.3982,0,1,1.3481,,0,32,32,22,1,REAL,FAKE,,,,,,,,,,,,,,,,,
,,,,,,,,,67926cc8eeb2400a96639477,Spanish ,13 or older,"no, only English or Spanish",no,2025-07-24_09h40.03.635,empathy_intonation_perc_control,2024.2.4,Win32,74.62686567,67926cc8eeb2400a96639477,68817205a84113384fffdfe3,68823738541882702612e42a,,,,,,,,,,,,,1,,,,,,,,,,,,,,,,,,,,,,,,,,,,,,,,,,,,,6,tergiversar,,,,,835.4003,837.2112,1,1,1.2802,,0,33,33,5,1,REAL,FAKE,,,,,,,,,,,,,,,,,
,,,,,,,,,67926cc8eeb2400a96639477,Spanish ,13 or older,"no, only English or Spanish",no,2025-07-24_09h40.03.635,empathy_intonation_perc_control,2024.2.4,Win32,74.62686567,67926cc8eeb2400a96639477,68817205a84113384fffdfe3,68823738541882702612e42a,,,,,,,,,,,,,0,,,,,,,,,,,,,,,,,,,,,,,,,,,,,,,,,,,,,70,temblo,,,,,837.2135,839.059,0,1,1.3137,,0,34,34,69,1,REAL,FAKE,,,,,,,,,,,,,,,,,
,,,,,,,,,67926cc8eeb2400a96639477,Spanish ,13 or older,"no, only English or Spanish",no,2025-07-24_09h40.03.635,empathy_intonation_perc_control,2024.2.4,Win32,74.62686567,67926cc8eeb2400a96639477,68817205a84113384fffdfe3,68823738541882702612e42a,,,,,,,,,,,,,0,,,,,,,,,,,,,,,,,,,,,,,,,,,,,,,,,,,,,32,fatacidad,,,,,839.0618,840.871,1,0,1.2787,,0,35,35,31,1,REAL,FAKE,,,,,,,,,,,,,,,,,
,,,,,,,,,67926cc8eeb2400a96639477,Spanish ,13 or older,"no, only English or Spanish",no,2025-07-24_09h40.03.635,empathy_intonation_perc_control,2024.2.4,Win32,74.62686567,67926cc8eeb2400a96639477,68817205a84113384fffdfe3,68823738541882702612e42a,,,,,,,,,,,,,1,,,,,,,,,,,,,,,,,,,,,,,,,,,,,,,,,,,,,64,orgulloso,,,,,840.8739,843.1998,1,1,1.7896,,0,36,36,63,1,REAL,FAKE,,,,,,,,,,,,,,,,,
,,,,,,,,,67926cc8eeb2400a96639477,Spanish ,13 or older,"no, only English or Spanish",no,2025-07-24_09h40.03.635,empathy_intonation_perc_control,2024.2.4,Win32,74.62686567,67926cc8eeb2400a96639477,68817205a84113384fffdfe3,68823738541882702612e42a,,,,,,,,,,,,,0,,,,,,,,,,,,,,,,,,,,,,,,,,,,,,,,,,,,,63,esposante,,,,,843.2032,844.9725,1,0,1.2382,,0,37,37,62,1,REAL,FAKE,,,,,,,,,,,,,,,,,
,,,,,,,,,67926cc8eeb2400a96639477,Spanish ,13 or older,"no, only English or Spanish",no,2025-07-24_09h40.03.635,empathy_intonation_perc_control,2024.2.4,Win32,74.62686567,67926cc8eeb2400a96639477,68817205a84113384fffdfe3,68823738541882702612e42a,,,,,,,,,,,,,0,,,,,,,,,,,,,,,,,,,,,,,,,,,,,,,,,,,,,58,plaudir,,,,,844.9748,846.3317,0,1,0.8077,,0,38,38,57,1,REAL,FAKE,,,,,,,,,,,,,,,,,
,,,,,,,,,67926cc8eeb2400a96639477,Spanish ,13 or older,"no, only English or Spanish",no,2025-07-24_09h40.03.635,empathy_intonation_perc_control,2024.2.4,Win32,74.62686567,67926cc8eeb2400a96639477,68817205a84113384fffdfe3,68823738541882702612e42a,,,,,,,,,,,,,0,,,,,,,,,,,,,,,,,,,,,,,,,,,,,,,,,,,,,33,pauca,,,,,846.3347,847.6464,1,0,0.7824,,0,39,39,32,1,REAL,FAKE,,,,,,,,,,,,,,,,,
,,,,,,,,,67926cc8eeb2400a96639477,Spanish ,13 or older,"no, only English or Spanish",no,2025-07-24_09h40.03.635,empathy_intonation_perc_control,2024.2.4,Win32,74.62686567,67926cc8eeb2400a96639477,68817205a84113384fffdfe3,68823738541882702612e42a,,,,,,,,,,,,,0,,,,,,,,,,,,,,,,,,,,,,,,,,,,,,,,,,,,,50,flamida,,,,,847.6505,849.4782,0,1,1.297,,0,40,40,49,1,REAL,FAKE,,,,,,,,,,,,,,,,,
,,,,,,,,,67926cc8eeb2400a96639477,Spanish ,13 or older,"no, only English or Spanish",no,2025-07-24_09h40.03.635,empathy_intonation_perc_control,2024.2.4,Win32,74.62686567,67926cc8eeb2400a96639477,68817205a84113384fffdfe3,68823738541882702612e42a,,,,,,,,,,,,,0,,,,,,,,,,,,,,,,,,,,,,,,,,,,,,,,,,,,,30,alardio,,,,,849.4815,851.3601,1,0,1.3402,,0,41,41,29,1,REAL,FAKE,,,,,,,,,,,,,,,,,
,,,,,,,,,67926cc8eeb2400a96639477,Spanish ,13 or older,"no, only English or Spanish",no,2025-07-24_09h40.03.635,empathy_intonation_perc_control,2024.2.4,Win32,74.62686567,67926cc8eeb2400a96639477,68817205a84113384fffdfe3,68823738541882702612e42a,,,,,,,,,,,,,1,,,,,,,,,,,,,,,,,,,,,,,,,,,,,,,,,,,,,62,flaco,,,,,851.363,853.4101,0,0,1.5186,,0,42,42,61,1,REAL,FAKE,,,,,,,,,,,,,,,,,
,,,,,,,,,67926cc8eeb2400a96639477,Spanish ,13 or older,"no, only English or Spanish",no,2025-07-24_09h40.03.635,empathy_intonation_perc_control,2024.2.4,Win32,74.62686567,67926cc8eeb2400a96639477,68817205a84113384fffdfe3,68823738541882702612e42a,,,,,,,,,,,,,1,,,,,,,,,,,,,,,,,,,,,,,,,,,,,,,,,,,,,68,alegre,,,,,853.4121,855.5702,0,0,1.6212,,0,43,43,67,1,REAL,FAKE,,,,,,,,,,,,,,,,,
,,,,,,,,,67926cc8eeb2400a96639477,Spanish ,13 or older,"no, only English or Spanish",no,2025-07-24_09h40.03.635,empathy_intonation_perc_control,2024.2.4,Win32,74.62686567,67926cc8eeb2400a96639477,68817205a84113384fffdfe3,68823738541882702612e42a,,,,,,,,,,,,,1,,,,,,,,,,,,,,,,,,,,,,,,,,,,,,,,,,,,,51,candado,,,,,855.5733,857.4004,1,1,1.2878,,0,44,44,50,1,REAL,FAKE,,,,,,,,,,,,,,,,,
,,,,,,,,,67926cc8eeb2400a96639477,Spanish ,13 or older,"no, only English or Spanish",no,2025-07-24_09h40.03.635,empathy_intonation_perc_control,2024.2.4,Win32,74.62686567,67926cc8eeb2400a96639477,68817205a84113384fffdfe3,68823738541882702612e42a,,,,,,,,,,,,,1,,,,,,,,,,,,,,,,,,,,,,,,,,,,,,,,,,,,,39,torpe,,,,,857.404,858.754,1,1,0.818,,0,45,45,38,1,REAL,FAKE,,,,,,,,,,,,,,,,,
,,,,,,,,,67926cc8eeb2400a96639477,Spanish ,13 or older,"no, only English or Spanish",no,2025-07-24_09h40.03.635,empathy_intonation_perc_control,2024.2.4,Win32,74.62686567,67926cc8eeb2400a96639477,68817205a84113384fffdfe3,68823738541882702612e42a,,,,,,,,,,,,,1,,,,,,,,,,,,,,,,,,,,,,,,,,,,,,,,,,,,,73,hervidor,,,,,858.7562,859.8989,0,0,0.6123,,0,46,46,72,1,REAL,FAKE,,,,,,,,,,,,,,,,,
,,,,,,,,,67926cc8eeb2400a96639477,Spanish ,13 or older,"no, only English or Spanish",no,2025-07-24_09h40.03.635,empathy_intonation_perc_control,2024.2.4,Win32,74.62686567,67926cc8eeb2400a96639477,68817205a84113384fffdfe3,68823738541882702612e42a,,,,,,,,,,,,,0,,,,,,,,,,,,,,,,,,,,,,,,,,,,,,,,,,,,,17,floroso,,,,,859.9028,861.1165,1,0,0.6826,,0,47,47,16,1,REAL,FAKE,,,,,,,,,,,,,,,,,
,,,,,,,,,67926cc8eeb2400a96639477,Spanish ,13 or older,"no, only English or Spanish",no,2025-07-24_09h40.03.635,empathy_intonation_perc_control,2024.2.4,Win32,74.62686567,67926cc8eeb2400a96639477,68817205a84113384fffdfe3,68823738541882702612e42a,,,,,,,,,,,,,1,,,,,,,,,,,,,,,,,,,,,,,,,,,,,,,,,,,,,85,laúd,,,,,861.1205,862.1182,1,1,0.4652,,0,48,48,84,1,REAL,FAKE,,,,,,,,,,,,,,,,,
,,,,,,,,,67926cc8eeb2400a96639477,Spanish ,13 or older,"no, only English or Spanish",no,2025-07-24_09h40.03.635,empathy_intonation_perc_control,2024.2.4,Win32,74.62686567,67926cc8eeb2400a96639477,68817205a84113384fffdfe3,68823738541882702612e42a,,,,,,,,,,,,,0,,,,,,,,,,,,,,,,,,,,,,,,,,,,,,,,,,,,,87,grodo,,,,,862.1202,863.1307,0,1,0.4778,,0,49,49,86,1,REAL,FAKE,,,,,,,,,,,,,,,,,
,,,,,,,,,67926cc8eeb2400a96639477,Spanish ,13 or older,"no, only English or Spanish",no,2025-07-24_09h40.03.635,empathy_intonation_perc_control,2024.2.4,Win32,74.62686567,67926cc8eeb2400a96639477,68817205a84113384fffdfe3,68823738541882702612e42a,,,,,,,,,,,,,1,,,,,,,,,,,,,,,,,,,,,,,,,,,,,,,,,,,,,2,pellizcar,,,,,863.1332,864.2124,1,1,0.5436,,0,50,50,1,1,REAL,FAKE,,,,,,,,,,,,,,,,,
,,,,,,,,,67926cc8eeb2400a96639477,Spanish ,13 or older,"no, only English or Spanish",no,2025-07-24_09h40.03.635,empathy_intonation_perc_control,2024.2.4,Win32,74.62686567,67926cc8eeb2400a96639477,68817205a84113384fffdfe3,68823738541882702612e42a,,,,,,,,,,,,,0,,,,,,,,,,,,,,,,,,,,,,,,,,,,,,,,,,,,,1,terzo,,,,,864.2154,865.1795,1,0,0.4333,,0,51,51,0,1,REAL,FAKE,,,,,,,,,,,,,,,,,
,,,,,,,,,67926cc8eeb2400a96639477,Spanish ,13 or older,"no, only English or Spanish",no,2025-07-24_09h40.03.635,empathy_intonation_perc_control,2024.2.4,Win32,74.62686567,67926cc8eeb2400a96639477,68817205a84113384fffdfe3,68823738541882702612e42a,,,,,,,,,,,,,1,,,,,,,,,,,,,,,,,,,,,,,,,,,,,,,,,,,,,54,fomentar,,,,,865.1828,866.9431,0,0,1.2286,,0,52,52,53,1,REAL,FAKE,,,,,,,,,,,,,,,,,
,,,,,,,,,67926cc8eeb2400a96639477,Spanish ,13 or older,"no, only English or Spanish",no,2025-07-24_09h40.03.635,empathy_intonation_perc_control,2024.2.4,Win32,74.62686567,67926cc8eeb2400a96639477,68817205a84113384fffdfe3,68823738541882702612e42a,,,,,,,,,,,,,1,,,,,,,,,,,,,,,,,,,,,,,,,,,,,,,,,,,,,28,merodear,,,,,866.9458,868.3431,1,1,0.8648,,0,53,53,27,1,REAL,FAKE,,,,,,,,,,,,,,,,,
,,,,,,,,,67926cc8eeb2400a96639477,Spanish ,13 or older,"no, only English or Spanish",no,2025-07-24_09h40.03.635,empathy_intonation_perc_control,2024.2.4,Win32,74.62686567,67926cc8eeb2400a96639477,68817205a84113384fffdfe3,68823738541882702612e42a,,,,,,,,,,,,,1,,,,,,,,,,,,,,,,,,,,,,,,,,,,,,,,,,,,,49,ganar,,,,,868.3455,869.6102,0,0,0.7248,,0,54,54,48,1,REAL,FAKE,,,,,,,,,,,,,,,,,
,,,,,,,,,67926cc8eeb2400a96639477,Spanish ,13 or older,"no, only English or Spanish",no,2025-07-24_09h40.03.635,empathy_intonation_perc_control,2024.2.4,Win32,74.62686567,67926cc8eeb2400a96639477,68817205a84113384fffdfe3,68823738541882702612e42a,,,,,,,,,,,,,1,,,,,,,,,,,,,,,,,,,,,,,,,,,,,,,,,,,,,43,canela,,,,,869.6123,871.0545,0,0,0.9156,,0,55,55,42,1,REAL,FAKE,,,,,,,,,,,,,,,,,
,,,,,,,,,67926cc8eeb2400a96639477,Spanish ,13 or older,"no, only English or Spanish",no,2025-07-24_09h40.03.635,empathy_intonation_perc_control,2024.2.4,Win32,74.62686567,67926cc8eeb2400a96639477,68817205a84113384fffdfe3,68823738541882702612e42a,,,,,,,,,,,,,1,,,,,,,,,,,,,,,,,,,,,,,,,,,,,,,,,,,,,88,acantilado,,,,,871.0575,872.589,1,1,0.9979,,0,56,56,87,1,REAL,FAKE,,,,,,,,,,,,,,,,,
,,,,,,,,,67926cc8eeb2400a96639477,Spanish ,13 or older,"no, only English or Spanish",no,2025-07-24_09h40.03.635,empathy_intonation_perc_control,2024.2.4,Win32,74.62686567,67926cc8eeb2400a96639477,68817205a84113384fffdfe3,68823738541882702612e42a,,,,,,,,,,,,,1,,,,,,,,,,,,,,,,,,,,,,,,,,,,,,,,,,,,,14,yunque,,,,,872.591,874.1038,1,1,0.981,,0,57,57,13,1,REAL,FAKE,,,,,,,,,,,,,,,,,
,,,,,,,,,67926cc8eeb2400a96639477,Spanish ,13 or older,"no, only English or Spanish",no,2025-07-24_09h40.03.635,empathy_intonation_perc_control,2024.2.4,Win32,74.62686567,67926cc8eeb2400a96639477,68817205a84113384fffdfe3,68823738541882702612e42a,,,,,,,,,,,,,1,,,,,,,,,,,,,,,,,,,,,,,,,,,,,,,,,,,,,90,clavel,,,,,874.1067,875.4501,0,0,0.8087,,0,58,58,89,1,REAL,FAKE,,,,,,,,,,,,,,,,,
,,,,,,,,,67926cc8eeb2400a96639477,Spanish ,13 or older,"no, only English or Spanish",no,2025-07-24_09h40.03.635,empathy_intonation_perc_control,2024.2.4,Win32,74.62686567,67926cc8eeb2400a96639477,68817205a84113384fffdfe3,68823738541882702612e42a,,,,,,,,,,,,,1,,,,,,,,,,,,,,,,,,,,,,,,,,,,,,,,,,,,,80,hormiga,,,,,875.4525,876.9334,1,1,0.9463,,0,59,59,79,1,REAL,FAKE,,,,,,,,,,,,,,,,,
,,,,,,,,,67926cc8eeb2400a96639477,Spanish ,13 or older,"no, only English or Spanish",no,2025-07-24_09h40.03.635,empathy_intonation_perc_control,2024.2.4,Win32,74.62686567,67926cc8eeb2400a96639477,68817205a84113384fffdfe3,68823738541882702612e42a,,,,,,,,,,,,,1,,,,,,,,,,,,,,,,,,,,,,,,,,,,,,,,,,,,,45,jilguero,,,,,876.9368,878.2274,0,0,0.7655,,0,60,60,44,1,REAL,FAKE,,,,,,,,,,,,,,,,,
,,,,,,,,,67926cc8eeb2400a96639477,Spanish ,13 or older,"no, only English or Spanish",no,2025-07-24_09h40.03.635,empathy_intonation_perc_control,2024.2.4,Win32,74.62686567,67926cc8eeb2400a96639477,68817205a84113384fffdfe3,68823738541882702612e42a,,,,,,,,,,,,,0,,,,,,,,,,,,,,,,,,,,,,,,,,,,,,,,,,,,,16,abracer,,,,,878.2315,879.6555,1,0,0.8956,,0,61,61,15,1,REAL,FAKE,,,,,,,,,,,,,,,,,
,,,,,,,,,67926cc8eeb2400a96639477,Spanish ,13 or older,"no, only English or Spanish",no,2025-07-24_09h40.03.635,empathy_intonation_perc_control,2024.2.4,Win32,74.62686567,67926cc8eeb2400a96639477,68817205a84113384fffdfe3,68823738541882702612e42a,,,,,,,,,,,,,0,,,,,,,,,,,,,,,,,,,,,,,,,,,,,,,,,,,,,84,escuto,,,,,879.6583,880.9775,1,0,0.7968,,0,62,62,83,1,REAL,FAKE,,,,,,,,,,,,,,,,,
,,,,,,,,,67926cc8eeb2400a96639477,Spanish ,13 or older,"no, only English or Spanish",no,2025-07-24_09h40.03.635,empathy_intonation_perc_control,2024.2.4,Win32,74.62686567,67926cc8eeb2400a96639477,68817205a84113384fffdfe3,68823738541882702612e42a,,,,,,,,,,,,,1,,,,,,,,,,,,,,,,,,,,,,,,,,,,,,,,,,,,,59,besar,,,,,880.9801,882.3256,0,0,0.8248,,0,63,63,58,1,REAL,FAKE,,,,,,,,,,,,,,,,,
,,,,,,,,,67926cc8eeb2400a96639477,Spanish ,13 or older,"no, only English or Spanish",no,2025-07-24_09h40.03.635,empathy_intonation_perc_control,2024.2.4,Win32,74.62686567,67926cc8eeb2400a96639477,68817205a84113384fffdfe3,68823738541882702612e42a,,,,,,,,,,,,,1,,,,,,,,,,,,,,,,,,,,,,,,,,,,,,,,,,,,,5,zapato,,,,,882.3281,883.6223,1,1,0.7558,,0,64,64,4,1,REAL,FAKE,,,,,,,,,,,,,,,,,
,,,,,,,,,67926cc8eeb2400a96639477,Spanish ,13 or older,"no, only English or Spanish",no,2025-07-24_09h40.03.635,empathy_intonation_perc_control,2024.2.4,Win32,74.62686567,67926cc8eeb2400a96639477,68817205a84113384fffdfe3,68823738541882702612e42a,,,,,,,,,,,,,1,,,,,,,,,,,,,,,,,,,,,,,,,,,,,,,,,,,,,13,helar,,,,,883.625,884.8925,0,0,0.7363,,0,65,65,12,1,REAL,FAKE,,,,,,,,,,,,,,,,,
,,,,,,,,,67926cc8eeb2400a96639477,Spanish ,13 or older,"no, only English or Spanish",no,2025-07-24_09h40.03.635,empathy_intonation_perc_control,2024.2.4,Win32,74.62686567,67926cc8eeb2400a96639477,68817205a84113384fffdfe3,68823738541882702612e42a,,,,,,,,,,,,,1,,,,,,,,,,,,,,,,,,,,,,,,,,,,,,,,,,,,,76,atar,,,,,884.895,886.1697,1,1,0.7493,,0,66,66,75,1,REAL,FAKE,,,,,,,,,,,,,,,,,
,,,,,,,,,67926cc8eeb2400a96639477,Spanish ,13 or older,"no, only English or Spanish",no,2025-07-24_09h40.03.635,empathy_intonation_perc_control,2024.2.4,Win32,74.62686567,67926cc8eeb2400a96639477,68817205a84113384fffdfe3,68823738541882702612e42a,,,,,,,,,,,,,1,,,,,,,,,,,,,,,,,,,,,,,,,,,,,,,,,,,,,25,bisagra,,,,,886.1725,887.4542,1,1,0.7518,,0,67,67,24,1,REAL,FAKE,,,,,,,,,,,,,,,,,
,,,,,,,,,67926cc8eeb2400a96639477,Spanish ,13 or older,"no, only English or Spanish",no,2025-07-24_09h40.03.635,empathy_intonation_perc_control,2024.2.4,Win32,74.62686567,67926cc8eeb2400a96639477,68817205a84113384fffdfe3,68823738541882702612e42a,,,,,,,,,,,,,1,,,,,,,,,,,,,,,,,,,,,,,,,,,,,,,,,,,,,77,tiburón,,,,,887.456,888.9491,0,0,0.9617,,0,68,68,76,1,REAL,FAKE,,,,,,,,,,,,,,,,,
,,,,,,,,,67926cc8eeb2400a96639477,Spanish ,13 or older,"no, only English or Spanish",no,2025-07-24_09h40.03.635,empathy_intonation_perc_control,2024.2.4,Win32,74.62686567,67926cc8eeb2400a96639477,68817205a84113384fffdfe3,68823738541882702612e42a,,,,,,,,,,,,,0,,,,,,,,,,,,,,,,,,,,,,,,,,,,,,,,,,,,,35,rompido,,,,,888.9522,890.3805,1,0,0.897,,0,69,69,34,1,REAL,FAKE,,,,,,,,,,,,,,,,,
,,,,,,,,,67926cc8eeb2400a96639477,Spanish ,13 or older,"no, only English or Spanish",no,2025-07-24_09h40.03.635,empathy_intonation_perc_control,2024.2.4,Win32,74.62686567,67926cc8eeb2400a96639477,68817205a84113384fffdfe3,68823738541882702612e42a,,,,,,,,,,,,,1,,,,,,,,,,,,,,,,,,,,,,,,,,,,,,,,,,,,,78,frondoso,,,,,890.3834,891.6668,1,1,0.7576,,0,70,70,77,1,REAL,FAKE,,,,,,,,,,,,,,,,,
,,,,,,,,,67926cc8eeb2400a96639477,Spanish ,13 or older,"no, only English or Spanish",no,2025-07-24_09h40.03.635,empathy_intonation_perc_control,2024.2.4,Win32,74.62686567,67926cc8eeb2400a96639477,68817205a84113384fffdfe3,68823738541882702612e42a,,,,,,,,,,,,,0,,,,,,,,,,,,,,,,,,,,,,,,,,,,,,,,,,,,,18,arsa,,,,,891.6702,894.9587,0,1,2.7487,,0,71,71,17,1,REAL,FAKE,,,,,,,,,,,,,,,,,
,,,,,,,,,67926cc8eeb2400a96639477,Spanish ,13 or older,"no, only English or Spanish",no,2025-07-24_09h40.03.635,empathy_intonation_perc_control,2024.2.4,Win32,74.62686567,67926cc8eeb2400a96639477,68817205a84113384fffdfe3,68823738541882702612e42a,,,,,,,,,,,,,1,,,,,,,,,,,,,,,,,,,,,,,,,,,,,,,,,,,,,12,asesinato,,,,,894.9616,897.3386,0,0,1.844,,0,72,72,11,1,REAL,FAKE,,,,,,,,,,,,,,,,,
,,,,,,,,,67926cc8eeb2400a96639477,Spanish ,13 or older,"no, only English or Spanish",no,2025-07-24_09h40.03.635,empathy_intonation_perc_control,2024.2.4,Win32,74.62686567,67926cc8eeb2400a96639477,68817205a84113384fffdfe3,68823738541882702612e42a,,,,,,,,,,,,,1,,,,,,,,,,,,,,,,,,,,,,,,,,,,,,,,,,,,,67,cabello,,,,,897.3414,898.5214,1,1,0.6481,,0,73,73,66,1,REAL,FAKE,,,,,,,,,,,,,,,,,
,,,,,,,,,67926cc8eeb2400a96639477,Spanish ,13 or older,"no, only English or Spanish",no,2025-07-24_09h40.03.635,empathy_intonation_perc_control,2024.2.4,Win32,74.62686567,67926cc8eeb2400a96639477,68817205a84113384fffdfe3,68823738541882702612e42a,,,,,,,,,,,,,1,,,,,,,,,,,,,,,,,,,,,,,,,,,,,,,,,,,,,83,guante,,,,,898.5243,899.7197,1,1,0.6631,,0,74,74,82,1,REAL,FAKE,,,,,,,,,,,,,,,,,
,,,,,,,,,67926cc8eeb2400a96639477,Spanish ,13 or older,"no, only English or Spanish",no,2025-07-24_09h40.03.635,empathy_intonation_perc_control,2024.2.4,Win32,74.62686567,67926cc8eeb2400a96639477,68817205a84113384fffdfe3,68823738541882702612e42a,,,,,,,,,,,,,1,,,,,,,,,,,,,,,,,,,,,,,,,,,,,,,,,,,,,55,nevar,,,,,899.7224,900.9012,0,0,0.6464,,0,75,75,54,1,REAL,FAKE,,,,,,,,,,,,,,,,,
,,,,,,,,,67926cc8eeb2400a96639477,Spanish ,13 or older,"no, only English or Spanish",no,2025-07-24_09h40.03.635,empathy_intonation_perc_control,2024.2.4,Win32,74.62686567,67926cc8eeb2400a96639477,68817205a84113384fffdfe3,68823738541882702612e42a,,,,,,,,,,,,,1,,,,,,,,,,,,,,,,,,,,,,,,,,,,,,,,,,,,,9,hacha,,,,,900.9042,902.4796,0,0,1.045,,0,76,76,8,1,REAL,FAKE,,,,,,,,,,,,,,,,,
,,,,,,,,,67926cc8eeb2400a96639477,Spanish ,13 or older,"no, only English or Spanish",no,2025-07-24_09h40.03.635,empathy_intonation_perc_control,2024.2.4,Win32,74.62686567,67926cc8eeb2400a96639477,68817205a84113384fffdfe3,68823738541882702612e42a,,,,,,,,,,,,,0,,,,,,,,,,,,,,,,,,,,,,,,,,,,,,,,,,,,,29,decar,,,,,902.4838,903.817,1,0,0.8128,,0,77,77,28,1,REAL,FAKE,,,,,,,,,,,,,,,,,
,,,,,,,,,67926cc8eeb2400a96639477,Spanish ,13 or older,"no, only English or Spanish",no,2025-07-24_09h40.03.635,empathy_intonation_perc_control,2024.2.4,Win32,74.62686567,67926cc8eeb2400a96639477,68817205a84113384fffdfe3,68823738541882702612e42a,,,,,,,,,,,,,1,,,,,,,,,,,,,,,,,,,,,,,,,,,,,,,,,,,,,69,engatusar,,,,,903.8193,905.0468,0,0,0.6962,,0,78,78,68,1,REAL,FAKE,,,,,,,,,,,,,,,,,
,,,,,,,,,67926cc8eeb2400a96639477,Spanish ,13 or older,"no, only English or Spanish",no,2025-07-24_09h40.03.635,empathy_intonation_perc_control,2024.2.4,Win32,74.62686567,67926cc8eeb2400a96639477,68817205a84113384fffdfe3,68823738541882702612e42a,,,,,,,,,,,,,0,,,,,,,,,,,,,,,,,,,,,,,,,,,,,,,,,,,,,92,click the 0 key.,,,,,905.0507,907.0169,0,1,1.4292,,0,79,79,91,1,REAL,FAKE,,,,,,,,,,,,,,,,,
,,,,,,,,,67926cc8eeb2400a96639477,Spanish ,13 or older,"no, only English or Spanish",no,2025-07-24_09h40.03.635,empathy_intonation_perc_control,2024.2.4,Win32,74.62686567,67926cc8eeb2400a96639477,68817205a84113384fffdfe3,68823738541882702612e42a,,,,,,,,,,,,,1,,,,,,,,,,,,,,,,,,,,,,,,,,,,,,,,,,,,,44,cuchara,,,,,907.0191,908.0947,1,1,0.5441,,0,80,80,43,1,REAL,FAKE,,,,,,,,,,,,,,,,,
,,,,,,,,,67926cc8eeb2400a96639477,Spanish ,13 or older,"no, only English or Spanish",no,2025-07-24_09h40.03.635,empathy_intonation_perc_control,2024.2.4,Win32,74.62686567,67926cc8eeb2400a96639477,68817205a84113384fffdfe3,68823738541882702612e42a,,,,,,,,,,,,,0,,,,,,,,,,,,,,,,,,,,,,,,,,,,,,,,,,,,,19,brecedad,,,,,908.097,909.196,0,1,0.567,,0,81,81,18,1,REAL,FAKE,,,,,,,,,,,,,,,,,
,,,,,,,,,67926cc8eeb2400a96639477,Spanish ,13 or older,"no, only English or Spanish",no,2025-07-24_09h40.03.635,empathy_intonation_perc_control,2024.2.4,Win32,74.62686567,67926cc8eeb2400a96639477,68817205a84113384fffdfe3,68823738541882702612e42a,,,,,,,,,,,,,1,,,,,,,,,,,,,,,,,,,,,,,,,,,,,,,,,,,,,26,secuestro,,,,,909.1982,910.1907,1,1,0.462,,0,82,82,25,1,REAL,FAKE,,,,,,,,,,,,,,,,,
,,,,,,,,,67926cc8eeb2400a96639477,Spanish ,13 or older,"no, only English or Spanish",no,2025-07-24_09h40.03.635,empathy_intonation_perc_control,2024.2.4,Win32,74.62686567,67926cc8eeb2400a96639477,68817205a84113384fffdfe3,68823738541882702612e42a,,,,,,,,,,,,,1,,,,,,,,,,,,,,,,,,,,,,,,,,,,,,,,,,,,,81,pozo,,,,,910.1935,911.2105,1,1,0.4808,,0,83,83,80,1,REAL,FAKE,,,,,,,,,,,,,,,,,
,,,,,,,,,67926cc8eeb2400a96639477,Spanish ,13 or older,"no, only English or Spanish",no,2025-07-24_09h40.03.635,empathy_intonation_perc_control,2024.2.4,Win32,74.62686567,67926cc8eeb2400a96639477,68817205a84113384fffdfe3,68823738541882702612e42a,,,,,,,,,,,,,0,,,,,,,,,,,,,,,,,,,,,,,,,,,,,,,,,,,,,47,cartinar,,,,,911.2127,912.1586,0,1,0.4176,,0,84,84,46,1,REAL,FAKE,,,,,,,,,,,,,,,,,
,,,,,,,,,67926cc8eeb2400a96639477,Spanish ,13 or older,"no, only English or Spanish",no,2025-07-24_09h40.03.635,empathy_intonation_perc_control,2024.2.4,Win32,74.62686567,67926cc8eeb2400a96639477,68817205a84113384fffdfe3,68823738541882702612e42a,,,,,,,,,,,,,1,,,,,,,,,,,,,,,,,,,,,,,,,,,,,,,,,,,,,46,martillo,,,,,912.1609,913.0739,0,0,0.3814,,0,85,85,45,1,REAL,FAKE,,,,,,,,,,,,,,,,,
,,,,,,,,,67926cc8eeb2400a96639477,Spanish ,13 or older,"no, only English or Spanish",no,2025-07-24_09h40.03.635,empathy_intonation_perc_control,2024.2.4,Win32,74.62686567,67926cc8eeb2400a96639477,68817205a84113384fffdfe3,68823738541882702612e42a,,,,,,,,,,,,,1,,,,,,,,,,,,,,,,,,,,,,,,,,,,,,,,,,,,,89,prisa,,,,,913.0774,913.9883,1,1,0.3829,,0,86,86,88,1,REAL,FAKE,,,,,,,,,,,,,,,,,
,,,,,,,,,67926cc8eeb2400a96639477,Spanish ,13 or older,"no, only English or Spanish",no,2025-07-24_09h40.03.635,empathy_intonation_perc_control,2024.2.4,Win32,74.62686567,67926cc8eeb2400a96639477,68817205a84113384fffdfe3,68823738541882702612e42a,,,,,,,,,,,,,0,,,,,,,,,,,,,,,,,,,,,,,,,,,,,,,,,,,,,42,cadallo,,,,,913.9908,915.0482,0,1,0.5292,,0,87,87,41,1,REAL,FAKE,,,,,,,,,,,,,,,,,
,,,,,,,,,67926cc8eeb2400a96639477,Spanish ,13 or older,"no, only English or Spanish",no,2025-07-24_09h40.03.635,empathy_intonation_perc_control,2024.2.4,Win32,74.62686567,67926cc8eeb2400a96639477,68817205a84113384fffdfe3,68823738541882702612e42a,,,,,,,,,,,,,0,,,,,,,,,,,,,,,,,,,,,,,,,,,,,,,,,,,,,10,antar,,,,,915.0531,916.3287,1,0,0.7575,,0,88,88,9,1,REAL,FAKE,,,,,,,,,,,,,,,,,
,,,,,,,,,67926cc8eeb2400a96639477,Spanish ,13 or older,"no, only English or Spanish",no,2025-07-24_09h40.03.635,empathy_intonation_perc_control,2024.2.4,Win32,74.62686567,67926cc8eeb2400a96639477,68817205a84113384fffdfe3,68823738541882702612e42a,,,,,,,,,,,,,1,,,,,,,,,,,,,,,,,,,,,,,,,,,,,,,,,,,,,36,loro,,,,,916.3326,917.6833,0,0,0.8217,,0,89,89,35,1,REAL,FAKE,,,,,,,,,,,,,,,,,
,,,,,,,,,67926cc8eeb2400a96639477,Spanish ,13 or older,"no, only English or Spanish",no,2025-07-24_09h40.03.635,empathy_intonation_perc_control,2024.2.4,Win32,74.62686567,67926cc8eeb2400a96639477,68817205a84113384fffdfe3,68823738541882702612e42a,,,,,,,,,,,,,1,,,,,,,,,,,,,,,,,,,,,,,,,,,,,,,,,,,,,34,aviso,,,,,917.6858,918.6801,0,0,0.4611,,0,90,90,33,1,REAL,FAKE,,,,,,,,,,,,,,,,,
,,,,,,,,,67926cc8eeb2400a96639477,Spanish ,13 or older,"no, only English or Spanish",no,2025-07-24_09h40.03.635,empathy_intonation_perc_control,2024.2.4,Win32,74.62686567,67926cc8eeb2400a96639477,68817205a84113384fffdfe3,68823738541882702612e42a,,,,,,,,,,,,,1,,,,,,,,,,,,,,,,,,,,,,,,,,,,,,,,,,,,,91,click the 1 key.,,,,,918.6838,920.1485,1,1,0.9336,,0,91,91,90,1,REAL,FAKE,,,,,,,,,,,,,,,,,
,,,,,,,,,67926cc8eeb2400a96639477,Spanish ,13 or older,"no, only English or Spanish",no,2025-07-24_09h40.03.635,empathy_intonation_perc_control,2024.2.4,Win32,74.62686567,67926cc8eeb2400a96639477,68817205a84113384fffdfe3,68823738541882702612e42a,,,,,,,,,,,,,,,,,,,,,,,,,,,,,,,,,,,,,,,,,,,,,,,,,,,,,,,,,,,,,,,,,,,,,920.1506,926.7536,,,,,,,,,,,,,,,
,,,,,,,,,67926cc8eeb2400a96639477,Spanish ,13 or older,"no, only English or Spanish",no,2025-07-24_09h40.03.635,empathy_intonation_perc_control,2024.2.4,Win32,74.62686567,67926cc8eeb2400a96639477,68817205a84113384fffdfe3,68823738541882702612e42a,,,,,,,,,,,,,,,,,,,,,,,,,,,1,,,,,,,,,,,,,,,,,,,,,,,,,,,,,,,,,,,,,,,,,,,,926.7927,929.83,strongly agree,0,0,0,0,1,I can easily tell if someone else wants to enter a conversation.,1,0,1,0,,
,,,,,,,,,67926cc8eeb2400a96639477,Spanish ,13 or older,"no, only English or Spanish",no,2025-07-24_09h40.03.635,empathy_intonation_perc_control,2024.2.4,Win32,74.62686567,67926cc8eeb2400a96639477,68817205a84113384fffdfe3,68823738541882702612e42a,,,,,,,,,,,,,,,,,,,,,,,,,,,2,,,,,,,,,,,,,,,,,,,,,,,,,,,,,,,,,,,,,,,,,,,,929.8365,932.4813,strongly disagree,0,1,1,1,1,I prefer animals to humans.,0,1,0,0,,
,,,,,,,,,67926cc8eeb2400a96639477,Spanish ,13 or older,"no, only English or Spanish",no,2025-07-24_09h40.03.635,empathy_intonation_perc_control,2024.2.4,Win32,74.62686567,67926cc8eeb2400a96639477,68817205a84113384fffdfe3,68823738541882702612e42a,,,,,,,,,,,,,,,,,,,,,,,,,,,3,,,,,,,,,,,,,,,,,,,,,,,,,,,,,,,,,,,,,,,,,,,,932.4863,936.9829,slightly disagree,0,2,2,2,1,I try to keep up with the current trends and fashions.,0,1,0,0,,
,,,,,,,,,67926cc8eeb2400a96639477,Spanish ,13 or older,"no, only English or Spanish",no,2025-07-24_09h40.03.635,empathy_intonation_perc_control,2024.2.4,Win32,74.62686567,67926cc8eeb2400a96639477,68817205a84113384fffdfe3,68823738541882702612e42a,,,,,,,,,,,,,,,,,,,,,,,,,,,4,,,,,,,,,,,,,,,,,,,,,,,,,,,,,,,,,,,,,,,,,,,,936.9883,939.6292,slightly disagree,0,3,3,3,1,"I find it difficult to explain to others things that I understand easily,   when they don't understand it first time.",1,0,0,1,,
,,,,,,,,,67926cc8eeb2400a96639477,Spanish ,13 or older,"no, only English or Spanish",no,2025-07-24_09h40.03.635,empathy_intonation_perc_control,2024.2.4,Win32,74.62686567,67926cc8eeb2400a96639477,68817205a84113384fffdfe3,68823738541882702612e42a,,,,,,,,,,,,,,,,,,,,,,,,,,,5,,,,,,,,,,,,,,,,,,,,,,,,,,,,,,,,,,,,,,,,,,,,939.6318,941.8235,slightly agree,0,4,4,4,1,I dream most nights.,0,1,0,0,,
,,,,,,,,,67926cc8eeb2400a96639477,Spanish ,13 or older,"no, only English or Spanish",no,2025-07-24_09h40.03.635,empathy_intonation_perc_control,2024.2.4,Win32,74.62686567,67926cc8eeb2400a96639477,68817205a84113384fffdfe3,68823738541882702612e42a,,,,,,,,,,,,,,,,,,,,,,,,,,,6,,,,,,,,,,,,,,,,,,,,,,,,,,,,,,,,,,,,,,,,,,,,941.8276,943.9085,slightly agree,0,5,5,5,1,I really enjoy caring for other people.,1,0,1,0,,
,,,,,,,,,67926cc8eeb2400a96639477,Spanish ,13 or older,"no, only English or Spanish",no,2025-07-24_09h40.03.635,empathy_intonation_perc_control,2024.2.4,Win32,74.62686567,67926cc8eeb2400a96639477,68817205a84113384fffdfe3,68823738541882702612e42a,,,,,,,,,,,,,,,,,,,,,,,,,,,7,,,,,,,,,,,,,,,,,,,,,,,,,,,,,,,,,,,,,,,,,,,,943.9142,946.2891,strongly agree,0,6,6,6,1,I try to solve my own problems rather than discussing them with others.,0,1,0,0,,
,,,,,,,,,67926cc8eeb2400a96639477,Spanish ,13 or older,"no, only English or Spanish",no,2025-07-24_09h40.03.635,empathy_intonation_perc_control,2024.2.4,Win32,74.62686567,67926cc8eeb2400a96639477,68817205a84113384fffdfe3,68823738541882702612e42a,,,,,,,,,,,,,,,,,,,,,,,,,,,8,,,,,,,,,,,,,,,,,,,,,,,,,,,,,,,,,,,,,,,,,,,,946.2944,947.3226,slightly agree,0,7,7,7,1,I find it hard to know what to do in a social situation.,1,0,0,1,,
,,,,,,,,,67926cc8eeb2400a96639477,Spanish ,13 or older,"no, only English or Spanish",no,2025-07-24_09h40.03.635,empathy_intonation_perc_control,2024.2.4,Win32,74.62686567,67926cc8eeb2400a96639477,68817205a84113384fffdfe3,68823738541882702612e42a,,,,,,,,,,,,,,,,,,,,,,,,,,,9,,,,,,,,,,,,,,,,,,,,,,,,,,,,,,,,,,,,,,,,,,,,947.3289,949.3175,slightly disagree,0,8,8,8,1,I am at my best first thing in the morning.,0,1,0,0,,
,,,,,,,,,67926cc8eeb2400a96639477,Spanish ,13 or older,"no, only English or Spanish",no,2025-07-24_09h40.03.635,empathy_intonation_perc_control,2024.2.4,Win32,74.62686567,67926cc8eeb2400a96639477,68817205a84113384fffdfe3,68823738541882702612e42a,,,,,,,,,,,,,,,,,,,,,,,,,,,10,,,,,,,,,,,,,,,,,,,,,,,,,,,,,,,,,,,,,,,,,,,,949.3226,951.5667,slightly agree,0,9,9,9,1,People often tell me that I went too far in driving my point home in a discussion.,1,0,0,1,,
,,,,,,,,,67926cc8eeb2400a96639477,Spanish ,13 or older,"no, only English or Spanish",no,2025-07-24_09h40.03.635,empathy_intonation_perc_control,2024.2.4,Win32,74.62686567,67926cc8eeb2400a96639477,68817205a84113384fffdfe3,68823738541882702612e42a,,,,,,,,,,,,,,,,,,,,,,,,,,,11,,,,,,,,,,,,,,,,,,,,,,,,,,,,,,,,,,,,,,,,,,,,951.5721,953.1967,strongly agree,0,10,10,10,1,It doesn't bother me too much if I am late meeting a friend.,1,0,0,1,,
,,,,,,,,,67926cc8eeb2400a96639477,Spanish ,13 or older,"no, only English or Spanish",no,2025-07-24_09h40.03.635,empathy_intonation_perc_control,2024.2.4,Win32,74.62686567,67926cc8eeb2400a96639477,68817205a84113384fffdfe3,68823738541882702612e42a,,,,,,,,,,,,,,,,,,,,,,,,,,,12,,,,,,,,,,,,,,,,,,,,,,,,,,,,,,,,,,,,,,,,,,,,953.2025,954.0356,slightly agree,0,11,11,11,1,"Friendships and relationships are just too difficult, so I tend not to 
  bother with them.",1,0,0,1,,
,,,,,,,,,67926cc8eeb2400a96639477,Spanish ,13 or older,"no, only English or Spanish",no,2025-07-24_09h40.03.635,empathy_intonation_perc_control,2024.2.4,Win32,74.62686567,67926cc8eeb2400a96639477,68817205a84113384fffdfe3,68823738541882702612e42a,,,,,,,,,,,,,,,,,,,,,,,,,,,13,,,,,,,,,,,,,,,,,,,,,,,,,,,,,,,,,,,,,,,,,,,,954.0408,955.0987,slightly disagree,0,12,12,12,1,"I would never break a law, no matter how minor.",0,1,0,0,,
,,,,,,,,,67926cc8eeb2400a96639477,Spanish ,13 or older,"no, only English or Spanish",no,2025-07-24_09h40.03.635,empathy_intonation_perc_control,2024.2.4,Win32,74.62686567,67926cc8eeb2400a96639477,68817205a84113384fffdfe3,68823738541882702612e42a,,,,,,,,,,,,,,,,,,,,,,,,,,,14,,,,,,,,,,,,,,,,,,,,,,,,,,,,,,,,,,,,,,,,,,,,955.1052,956.2957,slightly agree,0,13,13,13,1,I often find it difficult to judge if something is rude or polite.,1,0,0,1,,
,,,,,,,,,67926cc8eeb2400a96639477,Spanish ,13 or older,"no, only English or Spanish",no,2025-07-24_09h40.03.635,empathy_intonation_perc_control,2024.2.4,Win32,74.62686567,67926cc8eeb2400a96639477,68817205a84113384fffdfe3,68823738541882702612e42a,,,,,,,,,,,,,,,,,,,,,,,,,,,15,,,,,,,,,,,,,,,,,,,,,,,,,,,,,,,,,,,,,,,,,,,,956.3026,957.6953,strongly agree,0,14,14,14,1,"In a conversation, I tend to focus on my own thoughts rather than on what 
  my listener might be thinking.",1,0,0,1,,
,,,,,,,,,67926cc8eeb2400a96639477,Spanish ,13 or older,"no, only English or Spanish",no,2025-07-24_09h40.03.635,empathy_intonation_perc_control,2024.2.4,Win32,74.62686567,67926cc8eeb2400a96639477,68817205a84113384fffdfe3,68823738541882702612e42a,,,,,,,,,,,,,,,,,,,,,,,,,,,16,,,,,,,,,,,,,,,,,,,,,,,,,,,,,,,,,,,,,,,,,,,,957.7006,961.6293,slightly agree,0,15,15,15,1,I prefer practical jokes to verbal humor.,0,1,0,0,,
,,,,,,,,,67926cc8eeb2400a96639477,Spanish ,13 or older,"no, only English or Spanish",no,2025-07-24_09h40.03.635,empathy_intonation_perc_control,2024.2.4,Win32,74.62686567,67926cc8eeb2400a96639477,68817205a84113384fffdfe3,68823738541882702612e42a,,,,,,,,,,,,,,,,,,,,,,,,,,,17,,,,,,,,,,,,,,,,,,,,,,,,,,,,,,,,,,,,,,,,,,,,961.6341,962.888,strongly agree,0,16,16,16,1,I live life for today rather than the future.,0,1,0,0,,
,,,,,,,,,67926cc8eeb2400a96639477,Spanish ,13 or older,"no, only English or Spanish",no,2025-07-24_09h40.03.635,empathy_intonation_perc_control,2024.2.4,Win32,74.62686567,67926cc8eeb2400a96639477,68817205a84113384fffdfe3,68823738541882702612e42a,,,,,,,,,,,,,,,,,,,,,,,,,,,18,,,,,,,,,,,,,,,,,,,,,,,,,,,,,,,,,,,,,,,,,,,,962.8947,964.5521,slightly agree,0,17,17,17,1,"When I was a child, I enjoyed cutting up worms to see what would happen.",1,0,0,1,,
,,,,,,,,,67926cc8eeb2400a96639477,Spanish ,13 or older,"no, only English or Spanish",no,2025-07-24_09h40.03.635,empathy_intonation_perc_control,2024.2.4,Win32,74.62686567,67926cc8eeb2400a96639477,68817205a84113384fffdfe3,68823738541882702612e42a,,,,,,,,,,,,,,,,,,,,,,,,,,,19,,,,,,,,,,,,,,,,,,,,,,,,,,,,,,,,,,,,,,,,,,,,964.5589,965.8839,slightly disagree,0,18,18,18,1,I can pick up quickly if someone says one thing but means another.,1,0,1,0,,
,,,,,,,,,67926cc8eeb2400a96639477,Spanish ,13 or older,"no, only English or Spanish",no,2025-07-24_09h40.03.635,empathy_intonation_perc_control,2024.2.4,Win32,74.62686567,67926cc8eeb2400a96639477,68817205a84113384fffdfe3,68823738541882702612e42a,,,,,,,,,,,,,,,,,,,,,,,,,,,20,,,,,,,,,,,,,,,,,,,,,,,,,,,,,,,,,,,,,,,,,,,,965.8872,967.1033,slightly disagree,0,19,19,19,1,I tend to have very strong opinions about morality.,0,1,0,0,,
,,,,,,,,,67926cc8eeb2400a96639477,Spanish ,13 or older,"no, only English or Spanish",no,2025-07-24_09h40.03.635,empathy_intonation_perc_control,2024.2.4,Win32,74.62686567,67926cc8eeb2400a96639477,68817205a84113384fffdfe3,68823738541882702612e42a,,,,,,,,,,,,,,,,,,,,,,,,,,,21,,,,,,,,,,,,,,,,,,,,,,,,,,,,,,,,,,,,,,,,,,,,967.1103,968.3766,slightly agree,0,20,20,20,1,It is hard for me to see why some things upset people so much.,1,0,0,1,,
,,,,,,,,,67926cc8eeb2400a96639477,Spanish ,13 or older,"no, only English or Spanish",no,2025-07-24_09h40.03.635,empathy_intonation_perc_control,2024.2.4,Win32,74.62686567,67926cc8eeb2400a96639477,68817205a84113384fffdfe3,68823738541882702612e42a,,,,,,,,,,,,,,,,,,,,,,,,,,,22,,,,,,,,,,,,,,,,,,,,,,,,,,,,,,,,,,,,,,,,,,,,968.3821,971.5598,strongly disagree,0,21,21,21,1,I find it easy to put myself in somebody else's shoes.,1,0,1,0,,
,,,,,,,,,67926cc8eeb2400a96639477,Spanish ,13 or older,"no, only English or Spanish",no,2025-07-24_09h40.03.635,empathy_intonation_perc_control,2024.2.4,Win32,74.62686567,67926cc8eeb2400a96639477,68817205a84113384fffdfe3,68823738541882702612e42a,,,,,,,,,,,,,,,,,,,,,,,,,,,23,,,,,,,,,,,,,,,,,,,,,,,,,,,,,,,,,,,,,,,,,,,,971.5639,972.6751,slightly disagree,0,22,22,22,1,I think that good manners are the most important thing a parent can teach their child.,0,1,0,0,,
,,,,,,,,,67926cc8eeb2400a96639477,Spanish ,13 or older,"no, only English or Spanish",no,2025-07-24_09h40.03.635,empathy_intonation_perc_control,2024.2.4,Win32,74.62686567,67926cc8eeb2400a96639477,68817205a84113384fffdfe3,68823738541882702612e42a,,,,,,,,,,,,,,,,,,,,,,,,,,,24,,,,,,,,,,,,,,,,,,,,,,,,,,,,,,,,,,,,,,,,,,,,972.6788,973.7728,slightly agree,0,23,23,23,1,I like to do things on the spur of the moment.,0,1,0,0,,
