instructions_2afc.started,instructions_2afc.stopped,instructions_2afc_loop.thisRepN,instructions_2afc_loop.thisTrialN,instructions_2afc_loop.thisN,instructions_2afc_loop.thisIndex,instructions_2afc_loop.ran,instructions_text,continue_text,participant_id,"What variety of Spanish are you most familiar with? (e.g., Peruvian, Spanish, Mexican)",At what age did you begin learning Spanish?,Are you proficient in any languages other than English/Spanish?,"Are you familiar with Caribbean (e.g., Caribbean, Puerto Rican) or Galician Spanish?",date,expName,psychopyVersion,OS,frameRate,id,study_id,session,practice_2afc.started,practice_2afc.stopped,key_resp_2afc_practice.keys,key_resp_2afc_practice.corr,key_resp_2afc_practice.rt,key_resp_2afc_practice.duration,trials_2afc_practice_loop.thisRepN,trials_2afc_practice_loop.thisTrialN,trials_2afc_practice_loop.thisN,trials_2afc_practice_loop.thisIndex,trials_2afc_practice_loop.ran,path,correct_response,check_2afc.started,check_2afc.stopped,trial_2afc.started,trial_2afc.stopped,key_resp_2afc_trial.keys,key_resp_2afc_trial.corr,key_resp_2afc_trial.rt,key_resp_2afc_trial.duration,trials_2afc_loop.thisRepN,trials_2afc_loop.thisTrialN,trials_2afc_loop.thisN,trials_2afc_loop.thisIndex,trials_2afc_loop.ran,item_num,target,variety,instructions_lextale.started,instructions_lextale.stopped,instructions_lextale_loop.thisRepN,instructions_lextale_loop.thisTrialN,instructions_lextale_loop.thisN,instructions_lextale_loop.thisIndex,instructions_lextale_loop.ran,practice_lextale.started,practice_lextale.stopped,key_resp_lextale_practice.keys,key_resp_lextale_practice.corr,key_resp_lextale_practice.rt,key_resp_lextale_practice.duration,practice_feedback_lextale.started,practice_feedback_lextale.stopped,trials_lextale_practice_loop.thisRepN,trials_lextale_practice_loop.thisTrialN,trials_lextale_practice_loop.thisN,trials_lextale_practice_loop.thisIndex,trials_lextale_practice_loop.ran,stim,word,prac_button_real,prac_button_false,check_lextale.started,check_lextale.stopped,trial_lextale.started,trial_lextale.stopped,key_resp_lextale_trial.keys,key_resp_lextale_trial.corr,key_resp_lextale_trial.rt,key_resp_lextale_trial.duration,trials_lextale_loop.thisRepN,trials_lextale_loop.thisTrialN,trials_lextale_loop.thisN,trials_lextale_loop.thisIndex,trials_lextale_loop.ran,button_real,button_false,instructions_eq.started,instructions_eq.stopped,trial_eq.started,trial_eq.stopped,slider_eq_trial.response,trials_eq_loop.thisRepN,trials_eq_loop.thisTrialN,trials_eq_loop.thisN,trials_eq_loop.thisIndex,trials_eq_loop.ran,item,is_test_item,is_distractor,is_agree_score,is_disagree_score,end_exp.started,end_exp.stopped
0.0174,7.3648,0,0,0,0,1,"In the following task you are going to hear a series of utterances. 

  You will decide if the utterances sound like questions or not using your keyboard.", (press the spacebar to continue),67d09ba717ec412519ebf44b,Spanish,13 or older,"no, only English or Spanish",no,2025-07-24_08h09.00.465,empathy_intonation_perc_control,2024.2.4,Win32,59.88023952,67d09ba717ec412519ebf44b,68817205a84113384fffdfe3,688222212e409664af119d63,,,,,,,,,,,,,,,,,,,,,,,,,,,,,,,,,,,,,,,,,,,,,,,,,,,,,,,,,,,,,,,,,,,,,,,,,,,,,,,,,,,,,
7.3695,12.845,0,1,1,1,1,"If you believe the utterance is a question, type '1' (for 'yes') and if you do not 
  believe it is a question type '0' (for 'no').

  Let's practice a bit...", (press the spacebar to continue),67d09ba717ec412519ebf44b,Spanish,13 or older,"no, only English or Spanish",no,2025-07-24_08h09.00.465,empathy_intonation_perc_control,2024.2.4,Win32,59.88023952,67d09ba717ec412519ebf44b,68817205a84113384fffdfe3,688222212e409664af119d63,,,,,,,,,,,,,,,,,,,,,,,,,,,,,,,,,,,,,,,,,,,,,,,,,,,,,,,,,,,,,,,,,,,,,,,,,,,,,,,,,,,,,
,,,,,,,,,67d09ba717ec412519ebf44b,Spanish,13 or older,"no, only English or Spanish",no,2025-07-24_08h09.00.465,empathy_intonation_perc_control,2024.2.4,Win32,59.88023952,67d09ba717ec412519ebf44b,68817205a84113384fffdfe3,688222212e409664af119d63,12.8548,16.7113,0,1,3.335,,0,0,0,5,1,./stim/wavs/andalusian_statement_filler_Alberto-nunca-se-afeita.wav,0,,,,,,,,,,,,,,,,,,,,,,,,,,,,,,,,,,,,,,,,,,,,,,,,,,,,,,,,,,,,,,,,,,,,,,,,
,,,,,,,,,67d09ba717ec412519ebf44b,Spanish,13 or older,"no, only English or Spanish",no,2025-07-24_08h09.00.465,empathy_intonation_perc_control,2024.2.4,Win32,59.88023952,67d09ba717ec412519ebf44b,68817205a84113384fffdfe3,688222212e409664af119d63,16.713,19.1934,0,1,1.9517,,0,1,1,4,1,./stim/wavs/cuban_statement_filler_Cocinabas-por-la-noche.wav,0,,,,,,,,,,,,,,,,,,,,,,,,,,,,,,,,,,,,,,,,,,,,,,,,,,,,,,,,,,,,,,,,,,,,,,,,
,,,,,,,,,67d09ba717ec412519ebf44b,Spanish,13 or older,"no, only English or Spanish",no,2025-07-24_08h09.00.465,empathy_intonation_perc_control,2024.2.4,Win32,59.88023952,67d09ba717ec412519ebf44b,68817205a84113384fffdfe3,688222212e409664af119d63,19.1948,22.4592,0,1,2.7352,,0,2,2,7,1,./stim/wavs/puertorican_statement_filler_La-nina-pinta-con-su-amiga.wav,0,,,,,,,,,,,,,,,,,,,,,,,,,,,,,,,,,,,,,,,,,,,,,,,,,,,,,,,,,,,,,,,,,,,,,,,,
,,,,,,,,,67d09ba717ec412519ebf44b,Spanish,13 or older,"no, only English or Spanish",no,2025-07-24_08h09.00.465,empathy_intonation_perc_control,2024.2.4,Win32,59.88023952,67d09ba717ec412519ebf44b,68817205a84113384fffdfe3,688222212e409664af119d63,22.4604,25.0246,1,1,2.0402,,0,3,3,0,1,./stim/wavs/castilian_question_filler_Mi-esposo-conoce-al-chico.wav,1,,,,,,,,,,,,,,,,,,,,,,,,,,,,,,,,,,,,,,,,,,,,,,,,,,,,,,,,,,,,,,,,,,,,,,,,
,,,,,,,,,67d09ba717ec412519ebf44b,Spanish,13 or older,"no, only English or Spanish",no,2025-07-24_08h09.00.465,empathy_intonation_perc_control,2024.2.4,Win32,59.88023952,67d09ba717ec412519ebf44b,68817205a84113384fffdfe3,688222212e409664af119d63,25.0267,27.1409,1,1,1.5863,,0,4,4,2,1,./stim/wavs/chilean_question_filler_Mi-padre-cantaba-bien.wav,1,,,,,,,,,,,,,,,,,,,,,,,,,,,,,,,,,,,,,,,,,,,,,,,,,,,,,,,,,,,,,,,,,,,,,,,,
,,,,,,,,,67d09ba717ec412519ebf44b,Spanish,13 or older,"no, only English or Spanish",no,2025-07-24_08h09.00.465,empathy_intonation_perc_control,2024.2.4,Win32,59.88023952,67d09ba717ec412519ebf44b,68817205a84113384fffdfe3,688222212e409664af119d63,27.1424,29.2403,1,1,1.5753,,0,5,5,1,1,./stim/wavs/argentine_question_filler_Mi-vecino-habla-mucho.wav,1,,,,,,,,,,,,,,,,,,,,,,,,,,,,,,,,,,,,,,,,,,,,,,,,,,,,,,,,,,,,,,,,,,,,,,,,
,,,,,,,,,67d09ba717ec412519ebf44b,Spanish,13 or older,"no, only English or Spanish",no,2025-07-24_08h09.00.465,empathy_intonation_perc_control,2024.2.4,Win32,59.88023952,67d09ba717ec412519ebf44b,68817205a84113384fffdfe3,688222212e409664af119d63,29.2417,32.8894,0,1,3.1199,,0,6,6,6,1,./stim/wavs/peruvian_statement_filler_El-nino-habla-con-su-madre.wav,0,,,,,,,,,,,,,,,,,,,,,,,,,,,,,,,,,,,,,,,,,,,,,,,,,,,,,,,,,,,,,,,,,,,,,,,,
,,,,,,,,,67d09ba717ec412519ebf44b,Spanish,13 or older,"no, only English or Spanish",no,2025-07-24_08h09.00.465,empathy_intonation_perc_control,2024.2.4,Win32,59.88023952,67d09ba717ec412519ebf44b,68817205a84113384fffdfe3,688222212e409664af119d63,32.8906,35.3218,1,1,1.8988,,0,7,7,3,1,./stim/wavs/mexican_question_filler_Felipe-no-tiene-contrasena.wav,1,,,,,,,,,,,,,,,,,,,,,,,,,,,,,,,,,,,,,,,,,,,,,,,,,,,,,,,,,,,,,,,,,,,,,,,,
,,,,,,,,,67d09ba717ec412519ebf44b,Spanish,13 or older,"no, only English or Spanish",no,2025-07-24_08h09.00.465,empathy_intonation_perc_control,2024.2.4,Win32,59.88023952,67d09ba717ec412519ebf44b,68817205a84113384fffdfe3,688222212e409664af119d63,,,,,,,,,,,,,,35.3226,38.538,,,,,,,,,,,,,,,,,,,,,,,,,,,,,,,,,,,,,,,,,,,,,,,,,,,,,,,,,,,,,,,,,,,,,,
,,,,,,,,,67d09ba717ec412519ebf44b,Spanish,13 or older,"no, only English or Spanish",no,2025-07-24_08h09.00.465,empathy_intonation_perc_control,2024.2.4,Win32,59.88023952,67d09ba717ec412519ebf44b,68817205a84113384fffdfe3,688222212e409664af119d63,,,,,,,,,,,,./stim/wavs/cuban_match_declarative-broad-focus_Daniel-iba-a-Bolivia.wav,0,,,38.5477,40.838,0,1,1.7707,,0,0,0,51,1,52,0,cuban,,,,,,,,,,,,,,,,,,,,,,,,,,,,,,,,,,,,,,,,,,,,,,,,,,,,,,,,
,,,,,,,,,67d09ba717ec412519ebf44b,Spanish,13 or older,"no, only English or Spanish",no,2025-07-24_08h09.00.465,empathy_intonation_perc_control,2024.2.4,Win32,59.88023952,67d09ba717ec412519ebf44b,68817205a84113384fffdfe3,688222212e409664af119d63,,,,,,,,,,,,./stim/wavs/castilian_match_interrogative-total-yn_David-leia-el-libro.wav,1,,,40.8397,43.0871,1,1,1.7181,,0,1,1,0,1,1,0,castilian,,,,,,,,,,,,,,,,,,,,,,,,,,,,,,,,,,,,,,,,,,,,,,,,,,,,,,,,
,,,,,,,,,67d09ba717ec412519ebf44b,Spanish,13 or older,"no, only English or Spanish",no,2025-07-24_08h09.00.465,empathy_intonation_perc_control,2024.2.4,Win32,59.88023952,67d09ba717ec412519ebf44b,68817205a84113384fffdfe3,688222212e409664af119d63,,,,,,,,,,,,./stim/wavs/mexican_mismatch_interrogative-total-yn_Mi-novio-viene-del-lago.wav,1,,,43.0893,45.3856,1,1,1.7741,,0,2,2,37,1,38,0,mexican,,,,,,,,,,,,,,,,,,,,,,,,,,,,,,,,,,,,,,,,,,,,,,,,,,,,,,,,
,,,,,,,,,67d09ba717ec412519ebf44b,Spanish,13 or older,"no, only English or Spanish",no,2025-07-24_08h09.00.465,empathy_intonation_perc_control,2024.2.4,Win32,59.88023952,67d09ba717ec412519ebf44b,68817205a84113384fffdfe3,688222212e409664af119d63,,,,,,,,,,,,./stim/wavs/puertorican_match_declarative-broad-focus_Maria-bebe-el-vino.wav,0,,,45.3877,48.0849,0,1,2.1711,,0,3,3,67,1,68,0,puertorican,,,,,,,,,,,,,,,,,,,,,,,,,,,,,,,,,,,,,,,,,,,,,,,,,,,,,,,,
,,,,,,,,,67d09ba717ec412519ebf44b,Spanish,13 or older,"no, only English or Spanish",no,2025-07-24_08h09.00.465,empathy_intonation_perc_control,2024.2.4,Win32,59.88023952,67d09ba717ec412519ebf44b,68817205a84113384fffdfe3,688222212e409664af119d63,,,,,,,,,,,,./stim/wavs/castilian_match_interrogative-total-yn_Emilio-ama-la-marcha.wav,1,,,48.0862,50.301,1,1,1.6914,,0,4,4,1,1,2,0,castilian,,,,,,,,,,,,,,,,,,,,,,,,,,,,,,,,,,,,,,,,,,,,,,,,,,,,,,,,
,,,,,,,,,67d09ba717ec412519ebf44b,Spanish,13 or older,"no, only English or Spanish",no,2025-07-24_08h09.00.465,empathy_intonation_perc_control,2024.2.4,Win32,59.88023952,67d09ba717ec412519ebf44b,68817205a84113384fffdfe3,688222212e409664af119d63,,,,,,,,,,,,./stim/wavs/castilian_mismatch_declarative-broad-focus_Mi-tia-odia-la-lluvia.wav,0,,,50.3024,52.6339,0,1,1.8006,,0,5,5,72,1,73,0,castilian,,,,,,,,,,,,,,,,,,,,,,,,,,,,,,,,,,,,,,,,,,,,,,,,,,,,,,,,
,,,,,,,,,67d09ba717ec412519ebf44b,Spanish,13 or older,"no, only English or Spanish",no,2025-07-24_08h09.00.465,empathy_intonation_perc_control,2024.2.4,Win32,59.88023952,67d09ba717ec412519ebf44b,68817205a84113384fffdfe3,688222212e409664af119d63,,,,,,,,,,,,./stim/wavs/mexican_mismatch_interrogative-total-yn_La-maestra-vive-en-Paris.wav,1,,,52.6356,55.0501,1,1,1.8866,,0,6,6,36,1,37,0,mexican,,,,,,,,,,,,,,,,,,,,,,,,,,,,,,,,,,,,,,,,,,,,,,,,,,,,,,,,
,,,,,,,,,67d09ba717ec412519ebf44b,Spanish,13 or older,"no, only English or Spanish",no,2025-07-24_08h09.00.465,empathy_intonation_perc_control,2024.2.4,Win32,59.88023952,67d09ba717ec412519ebf44b,68817205a84113384fffdfe3,688222212e409664af119d63,,,,,,,,,,,,./stim/wavs/mexican_match_declarative-broad-focus_Ana-lleva-el-abrigo.wav,0,,,55.0513,57.0159,0,1,1.436,,0,7,7,56,1,57,0,mexican,,,,,,,,,,,,,,,,,,,,,,,,,,,,,,,,,,,,,,,,,,,,,,,,,,,,,,,,
,,,,,,,,,67d09ba717ec412519ebf44b,Spanish,13 or older,"no, only English or Spanish",no,2025-07-24_08h09.00.465,empathy_intonation_perc_control,2024.2.4,Win32,59.88023952,67d09ba717ec412519ebf44b,68817205a84113384fffdfe3,688222212e409664af119d63,,,,,,,,,,,,./stim/wavs/mexican_mismatch_interrogative-total-yn_El-nino-oye-el-rio.wav,1,,,57.0176,59.132,1,1,1.5834,,0,8,8,35,1,36,0,mexican,,,,,,,,,,,,,,,,,,,,,,,,,,,,,,,,,,,,,,,,,,,,,,,,,,,,,,,,
,,,,,,,,,67d09ba717ec412519ebf44b,Spanish,13 or older,"no, only English or Spanish",no,2025-07-24_08h09.00.465,empathy_intonation_perc_control,2024.2.4,Win32,59.88023952,67d09ba717ec412519ebf44b,68817205a84113384fffdfe3,688222212e409664af119d63,,,,,,,,,,,,./stim/wavs/mexican_match_declarative-broad-focus_Emilio-ama-la-marcha.wav,0,,,59.1331,61.365,0,1,1.7035,,0,9,9,59,1,60,0,mexican,,,,,,,,,,,,,,,,,,,,,,,,,,,,,,,,,,,,,,,,,,,,,,,,,,,,,,,,
,,,,,,,,,67d09ba717ec412519ebf44b,Spanish,13 or older,"no, only English or Spanish",no,2025-07-24_08h09.00.465,empathy_intonation_perc_control,2024.2.4,Win32,59.88023952,67d09ba717ec412519ebf44b,68817205a84113384fffdfe3,688222212e409664af119d63,,,,,,,,,,,,./stim/wavs/puertorican_mismatch_interrogative-total-yn_El-nino-oye-el-rio.wav,1,,,61.3665,63.7473,0,0,1.8602,,0,10,10,40,1,41,1,puertorican,,,,,,,,,,,,,,,,,,,,,,,,,,,,,,,,,,,,,,,,,,,,,,,,,,,,,,,,
,,,,,,,,,67d09ba717ec412519ebf44b,Spanish,13 or older,"no, only English or Spanish",no,2025-07-24_08h09.00.465,empathy_intonation_perc_control,2024.2.4,Win32,59.88023952,67d09ba717ec412519ebf44b,68817205a84113384fffdfe3,688222212e409664af119d63,,,,,,,,,,,,./stim/wavs/castilian_mismatch_declarative-broad-focus_La-maestra-vive-en-Paris.wav,0,,,63.7491,66.2306,0,1,1.9552,,0,11,11,69,1,70,0,castilian,,,,,,,,,,,,,,,,,,,,,,,,,,,,,,,,,,,,,,,,,,,,,,,,,,,,,,,,
,,,,,,,,,67d09ba717ec412519ebf44b,Spanish,13 or older,"no, only English or Spanish",no,2025-07-24_08h09.00.465,empathy_intonation_perc_control,2024.2.4,Win32,59.88023952,67d09ba717ec412519ebf44b,68817205a84113384fffdfe3,688222212e409664af119d63,,,,,,,,,,,,./stim/wavs/castilian_match_declarative-broad-focus_Emilio-ama-la-marcha.wav,0,,,66.2324,68.5628,0,1,1.8068,,0,12,12,45,1,46,0,castilian,,,,,,,,,,,,,,,,,,,,,,,,,,,,,,,,,,,,,,,,,,,,,,,,,,,,,,,,
,,,,,,,,,67d09ba717ec412519ebf44b,Spanish,13 or older,"no, only English or Spanish",no,2025-07-24_08h09.00.465,empathy_intonation_perc_control,2024.2.4,Win32,59.88023952,67d09ba717ec412519ebf44b,68817205a84113384fffdfe3,688222212e409664af119d63,,,,,,,,,,,,./stim/wavs/puertorican_match_interrogative-total-yn_Emilio-ama-la-marcha.wav,1,,,68.5642,71.5285,0,0,2.4355,,0,13,13,21,1,22,1,puertorican,,,,,,,,,,,,,,,,,,,,,,,,,,,,,,,,,,,,,,,,,,,,,,,,,,,,,,,,
,,,,,,,,,67d09ba717ec412519ebf44b,Spanish,13 or older,"no, only English or Spanish",no,2025-07-24_08h09.00.465,empathy_intonation_perc_control,2024.2.4,Win32,59.88023952,67d09ba717ec412519ebf44b,68817205a84113384fffdfe3,688222212e409664af119d63,,,,,,,,,,,,./stim/wavs/castilian_match_interrogative-total-yn_Mariano-habla-del-tiempo.wav,1,,,71.5299,73.9447,1,1,1.8848,,0,14,14,4,1,5,0,castilian,,,,,,,,,,,,,,,,,,,,,,,,,,,,,,,,,,,,,,,,,,,,,,,,,,,,,,,,
,,,,,,,,,67d09ba717ec412519ebf44b,Spanish,13 or older,"no, only English or Spanish",no,2025-07-24_08h09.00.465,empathy_intonation_perc_control,2024.2.4,Win32,59.88023952,67d09ba717ec412519ebf44b,68817205a84113384fffdfe3,688222212e409664af119d63,,,,,,,,,,,,./stim/wavs/mexican_mismatch_interrogative-total-yn_Mi-tia-odia-la-lluvia.wav,1,,,73.9459,76.0444,1,1,1.5694,,0,15,15,38,1,39,0,mexican,,,,,,,,,,,,,,,,,,,,,,,,,,,,,,,,,,,,,,,,,,,,,,,,,,,,,,,,
,,,,,,,,,67d09ba717ec412519ebf44b,Spanish,13 or older,"no, only English or Spanish",no,2025-07-24_08h09.00.465,empathy_intonation_perc_control,2024.2.4,Win32,59.88023952,67d09ba717ec412519ebf44b,68817205a84113384fffdfe3,688222212e409664af119d63,,,,,,,,,,,,./stim/wavs/mexican_match_declarative-broad-focus_Marta-abre-el-regalo.wav,0,,,76.0459,78.1935,0,1,1.6159,,0,16,16,61,1,62,0,mexican,,,,,,,,,,,,,,,,,,,,,,,,,,,,,,,,,,,,,,,,,,,,,,,,,,,,,,,,
,,,,,,,,,67d09ba717ec412519ebf44b,Spanish,13 or older,"no, only English or Spanish",no,2025-07-24_08h09.00.465,empathy_intonation_perc_control,2024.2.4,Win32,59.88023952,67d09ba717ec412519ebf44b,68817205a84113384fffdfe3,688222212e409664af119d63,,,,,,,,,,,,./stim/wavs/cuban_mismatch_interrogative-total-yn_Mi-tia-odia-la-lluvia.wav,1,,,78.1946,80.4935,0,0,1.7782,,0,17,17,33,1,34,1,cuban,,,,,,,,,,,,,,,,,,,,,,,,,,,,,,,,,,,,,,,,,,,,,,,,,,,,,,,,
,,,,,,,,,67d09ba717ec412519ebf44b,Spanish,13 or older,"no, only English or Spanish",no,2025-07-24_08h09.00.465,empathy_intonation_perc_control,2024.2.4,Win32,59.88023952,67d09ba717ec412519ebf44b,68817205a84113384fffdfe3,688222212e409664af119d63,,,,,,,,,,,,./stim/wavs/puertorican_match_declarative-broad-focus_Daniel-iba-a-Bolivia.wav,0,,,80.4945,82.8922,0,1,1.8659,,0,18,18,63,1,64,0,puertorican,,,,,,,,,,,,,,,,,,,,,,,,,,,,,,,,,,,,,,,,,,,,,,,,,,,,,,,,
,,,,,,,,,67d09ba717ec412519ebf44b,Spanish,13 or older,"no, only English or Spanish",no,2025-07-24_08h09.00.465,empathy_intonation_perc_control,2024.2.4,Win32,59.88023952,67d09ba717ec412519ebf44b,68817205a84113384fffdfe3,688222212e409664af119d63,,,,,,,,,,,,./stim/wavs/cuban_mismatch_interrogative-total-yn_Mi-novio-viene-del-lago.wav,1,,,82.8934,85.2583,0,0,1.8338,,0,19,19,32,1,33,1,cuban,,,,,,,,,,,,,,,,,,,,,,,,,,,,,,,,,,,,,,,,,,,,,,,,,,,,,,,,
,,,,,,,,,67d09ba717ec412519ebf44b,Spanish,13 or older,"no, only English or Spanish",no,2025-07-24_08h09.00.465,empathy_intonation_perc_control,2024.2.4,Win32,59.88023952,67d09ba717ec412519ebf44b,68817205a84113384fffdfe3,688222212e409664af119d63,,,,,,,,,,,,./stim/wavs/mexican_match_declarative-broad-focus_Mariano-habla-del-tiempo.wav,0,,,85.2596,87.4911,0,1,1.7021,,0,20,20,60,1,61,0,mexican,,,,,,,,,,,,,,,,,,,,,,,,,,,,,,,,,,,,,,,,,,,,,,,,,,,,,,,,
,,,,,,,,,67d09ba717ec412519ebf44b,Spanish,13 or older,"no, only English or Spanish",no,2025-07-24_08h09.00.465,empathy_intonation_perc_control,2024.2.4,Win32,59.88023952,67d09ba717ec412519ebf44b,68817205a84113384fffdfe3,688222212e409664af119d63,,,,,,,,,,,,./stim/wavs/castilian_mismatch_interrogative-total-yn_La-maestra-vive-en-Paris.wav,1,,,87.4925,89.9073,1,1,1.8916,,0,21,21,24,1,25,0,castilian,,,,,,,,,,,,,,,,,,,,,,,,,,,,,,,,,,,,,,,,,,,,,,,,,,,,,,,,
,,,,,,,,,67d09ba717ec412519ebf44b,Spanish,13 or older,"no, only English or Spanish",no,2025-07-24_08h09.00.465,empathy_intonation_perc_control,2024.2.4,Win32,59.88023952,67d09ba717ec412519ebf44b,68817205a84113384fffdfe3,688222212e409664af119d63,,,,,,,,,,,,./stim/wavs/castilian_match_declarative-broad-focus_David-leia-el-libro.wav,0,,,89.9089,92.2726,0,1,1.8335,,0,22,22,44,1,45,0,castilian,,,,,,,,,,,,,,,,,,,,,,,,,,,,,,,,,,,,,,,,,,,,,,,,,,,,,,,,
,,,,,,,,,67d09ba717ec412519ebf44b,Spanish,13 or older,"no, only English or Spanish",no,2025-07-24_08h09.00.465,empathy_intonation_perc_control,2024.2.4,Win32,59.88023952,67d09ba717ec412519ebf44b,68817205a84113384fffdfe3,688222212e409664af119d63,,,,,,,,,,,,./stim/wavs/puertorican_match_declarative-broad-focus_Emilio-ama-la-marcha.wav,0,,,92.2738,94.5218,0,1,1.7182,,0,23,23,65,1,66,0,puertorican,,,,,,,,,,,,,,,,,,,,,,,,,,,,,,,,,,,,,,,,,,,,,,,,,,,,,,,,
,,,,,,,,,67d09ba717ec412519ebf44b,Spanish,13 or older,"no, only English or Spanish",no,2025-07-24_08h09.00.465,empathy_intonation_perc_control,2024.2.4,Win32,59.88023952,67d09ba717ec412519ebf44b,68817205a84113384fffdfe3,688222212e409664af119d63,,,,,,,,,,,,./stim/wavs/castilian_mismatch_interrogative-total-yn_La-nina-lava-el-plato.wav,1,,,94.5227,96.7212,1,1,1.67,,0,24,24,25,1,26,0,castilian,,,,,,,,,,,,,,,,,,,,,,,,,,,,,,,,,,,,,,,,,,,,,,,,,,,,,,,,
,,,,,,,,,67d09ba717ec412519ebf44b,Spanish,13 or older,"no, only English or Spanish",no,2025-07-24_08h09.00.465,empathy_intonation_perc_control,2024.2.4,Win32,59.88023952,67d09ba717ec412519ebf44b,68817205a84113384fffdfe3,688222212e409664af119d63,,,,,,,,,,,,./stim/wavs/cuban_match_declarative-broad-focus_Ana-lleva-el-abrigo.wav,0,,,96.722,98.8706,0,1,1.6272,,0,25,25,50,1,51,0,cuban,,,,,,,,,,,,,,,,,,,,,,,,,,,,,,,,,,,,,,,,,,,,,,,,,,,,,,,,
,,,,,,,,,67d09ba717ec412519ebf44b,Spanish,13 or older,"no, only English or Spanish",no,2025-07-24_08h09.00.465,empathy_intonation_perc_control,2024.2.4,Win32,59.88023952,67d09ba717ec412519ebf44b,68817205a84113384fffdfe3,688222212e409664af119d63,,,,,,,,,,,,./stim/wavs/castilian_mismatch_declarative-broad-focus_El-nino-oye-el-rio.wav,0,,,98.8712,101.2534,0,1,1.8553,,0,26,26,68,1,69,0,castilian,,,,,,,,,,,,,,,,,,,,,,,,,,,,,,,,,,,,,,,,,,,,,,,,,,,,,,,,
,,,,,,,,,67d09ba717ec412519ebf44b,Spanish,13 or older,"no, only English or Spanish",no,2025-07-24_08h09.00.465,empathy_intonation_perc_control,2024.2.4,Win32,59.88023952,67d09ba717ec412519ebf44b,68817205a84113384fffdfe3,688222212e409664af119d63,,,,,,,,,,,,./stim/wavs/puertorican_mismatch_declarative-broad-focus_El-hombre-mira-la-luna.wav,0,,,101.2539,103.386,0,1,1.6101,,0,27,27,84,1,85,0,puertorican,,,,,,,,,,,,,,,,,,,,,,,,,,,,,,,,,,,,,,,,,,,,,,,,,,,,,,,,
,,,,,,,,,67d09ba717ec412519ebf44b,Spanish,13 or older,"no, only English or Spanish",no,2025-07-24_08h09.00.465,empathy_intonation_perc_control,2024.2.4,Win32,59.88023952,67d09ba717ec412519ebf44b,68817205a84113384fffdfe3,688222212e409664af119d63,,,,,,,,,,,,./stim/wavs/mexican_mismatch_declarative-broad-focus_Mi-novio-viene-del-lago.wav,0,,,103.3866,105.4687,0,1,1.5591,,0,28,28,81,1,82,0,mexican,,,,,,,,,,,,,,,,,,,,,,,,,,,,,,,,,,,,,,,,,,,,,,,,,,,,,,,,
,,,,,,,,,67d09ba717ec412519ebf44b,Spanish,13 or older,"no, only English or Spanish",no,2025-07-24_08h09.00.465,empathy_intonation_perc_control,2024.2.4,Win32,59.88023952,67d09ba717ec412519ebf44b,68817205a84113384fffdfe3,688222212e409664af119d63,,,,,,,,,,,,./stim/wavs/puertorican_match_interrogative-total-yn_Maria-bebe-el-vino.wav,1,,,105.4693,107.8514,0,0,1.8619,,0,29,29,23,1,24,1,puertorican,,,,,,,,,,,,,,,,,,,,,,,,,,,,,,,,,,,,,,,,,,,,,,,,,,,,,,,,
,,,,,,,,,67d09ba717ec412519ebf44b,Spanish,13 or older,"no, only English or Spanish",no,2025-07-24_08h09.00.465,empathy_intonation_perc_control,2024.2.4,Win32,59.88023952,67d09ba717ec412519ebf44b,68817205a84113384fffdfe3,688222212e409664af119d63,,,,,,,,,,,,./stim/wavs/puertorican_mismatch_interrogative-total-yn_Mi-madre-come-la-fruta.wav,1,,,107.8521,110.0844,0,0,1.6995,,0,30,30,43,1,44,1,puertorican,,,,,,,,,,,,,,,,,,,,,,,,,,,,,,,,,,,,,,,,,,,,,,,,,,,,,,,,
,,,,,,,,,67d09ba717ec412519ebf44b,Spanish,13 or older,"no, only English or Spanish",no,2025-07-24_08h09.00.465,empathy_intonation_perc_control,2024.2.4,Win32,59.88023952,67d09ba717ec412519ebf44b,68817205a84113384fffdfe3,688222212e409664af119d63,,,,,,,,,,,,./stim/wavs/mexican_match_interrogative-total-yn_Ana-lleva-el-abrigo.wav,1,,,110.0848,112.3168,1,1,1.7028,,0,31,31,12,1,13,0,mexican,,,,,,,,,,,,,,,,,,,,,,,,,,,,,,,,,,,,,,,,,,,,,,,,,,,,,,,,
,,,,,,,,,67d09ba717ec412519ebf44b,Spanish,13 or older,"no, only English or Spanish",no,2025-07-24_08h09.00.465,empathy_intonation_perc_control,2024.2.4,Win32,59.88023952,67d09ba717ec412519ebf44b,68817205a84113384fffdfe3,688222212e409664af119d63,,,,,,,,,,,,./stim/wavs/mexican_match_declarative-broad-focus_Daniel-iba-a-Bolivia.wav,0,,,112.3171,114.3162,0,1,1.4751,,0,32,32,57,1,58,0,mexican,,,,,,,,,,,,,,,,,,,,,,,,,,,,,,,,,,,,,,,,,,,,,,,,,,,,,,,,
,,,,,,,,,67d09ba717ec412519ebf44b,Spanish,13 or older,"no, only English or Spanish",no,2025-07-24_08h09.00.465,empathy_intonation_perc_control,2024.2.4,Win32,59.88023952,67d09ba717ec412519ebf44b,68817205a84113384fffdfe3,688222212e409664af119d63,,,,,,,,,,,,./stim/wavs/cuban_match_interrogative-total-yn_Manuela-vende-el-carro.wav,1,,,114.3165,116.6659,0,0,1.8206,,0,33,33,8,1,9,1,cuban,,,,,,,,,,,,,,,,,,,,,,,,,,,,,,,,,,,,,,,,,,,,,,,,,,,,,,,,
,,,,,,,,,67d09ba717ec412519ebf44b,Spanish,13 or older,"no, only English or Spanish",no,2025-07-24_08h09.00.465,empathy_intonation_perc_control,2024.2.4,Win32,59.88023952,67d09ba717ec412519ebf44b,68817205a84113384fffdfe3,688222212e409664af119d63,,,,,,,,,,,,./stim/wavs/castilian_match_declarative-broad-focus_Manuela-vende-el-carro.wav,0,,,116.6663,119.0316,0,1,1.8406,,0,34,34,46,1,47,0,castilian,,,,,,,,,,,,,,,,,,,,,,,,,,,,,,,,,,,,,,,,,,,,,,,,,,,,,,,,
,,,,,,,,,67d09ba717ec412519ebf44b,Spanish,13 or older,"no, only English or Spanish",no,2025-07-24_08h09.00.465,empathy_intonation_perc_control,2024.2.4,Win32,59.88023952,67d09ba717ec412519ebf44b,68817205a84113384fffdfe3,688222212e409664af119d63,,,,,,,,,,,,./stim/wavs/mexican_mismatch_declarative-broad-focus_Mi-tia-odia-la-lluvia.wav,0,,,119.0319,121.3477,0,1,1.7855,,0,35,35,82,1,83,0,mexican,,,,,,,,,,,,,,,,,,,,,,,,,,,,,,,,,,,,,,,,,,,,,,,,,,,,,,,,
,,,,,,,,,67d09ba717ec412519ebf44b,Spanish,13 or older,"no, only English or Spanish",no,2025-07-24_08h09.00.465,empathy_intonation_perc_control,2024.2.4,Win32,59.88023952,67d09ba717ec412519ebf44b,68817205a84113384fffdfe3,688222212e409664af119d63,,,,,,,,,,,,./stim/wavs/puertorican_match_interrogative-total-yn_Ana-lleva-el-abrigo.wav,1,,,121.3482,123.4805,0,0,1.6119,,0,36,36,18,1,19,1,puertorican,,,,,,,,,,,,,,,,,,,,,,,,,,,,,,,,,,,,,,,,,,,,,,,,,,,,,,,,
,,,,,,,,,67d09ba717ec412519ebf44b,Spanish,13 or older,"no, only English or Spanish",no,2025-07-24_08h09.00.465,empathy_intonation_perc_control,2024.2.4,Win32,59.88023952,67d09ba717ec412519ebf44b,68817205a84113384fffdfe3,688222212e409664af119d63,,,,,,,,,,,,./stim/wavs/castilian_mismatch_interrogative-total-yn_Mi-tia-odia-la-lluvia.wav,1,,,123.4811,125.6135,1,1,1.6122,,0,37,37,28,1,29,0,castilian,,,,,,,,,,,,,,,,,,,,,,,,,,,,,,,,,,,,,,,,,,,,,,,,,,,,,,,,
,,,,,,,,,67d09ba717ec412519ebf44b,Spanish,13 or older,"no, only English or Spanish",no,2025-07-24_08h09.00.465,empathy_intonation_perc_control,2024.2.4,Win32,59.88023952,67d09ba717ec412519ebf44b,68817205a84113384fffdfe3,688222212e409664af119d63,,,,,,,,,,,,./stim/wavs/puertorican_match_interrogative-total-yn_David-leia-el-libro.wav,1,,,125.6141,127.7126,0,0,1.5662,,0,38,38,20,1,21,1,puertorican,,,,,,,,,,,,,,,,,,,,,,,,,,,,,,,,,,,,,,,,,,,,,,,,,,,,,,,,
,,,,,,,,,67d09ba717ec412519ebf44b,Spanish,13 or older,"no, only English or Spanish",no,2025-07-24_08h09.00.465,empathy_intonation_perc_control,2024.2.4,Win32,59.88023952,67d09ba717ec412519ebf44b,68817205a84113384fffdfe3,688222212e409664af119d63,,,,,,,,,,,,./stim/wavs/cuban_match_interrogative-total-yn_Mariano-habla-del-tiempo.wav,1,,,127.7129,130.1285,0,0,1.8888,,0,39,39,10,1,11,1,cuban,,,,,,,,,,,,,,,,,,,,,,,,,,,,,,,,,,,,,,,,,,,,,,,,,,,,,,,,
,,,,,,,,,67d09ba717ec412519ebf44b,Spanish,13 or older,"no, only English or Spanish",no,2025-07-24_08h09.00.465,empathy_intonation_perc_control,2024.2.4,Win32,59.88023952,67d09ba717ec412519ebf44b,68817205a84113384fffdfe3,688222212e409664af119d63,,,,,,,,,,,,./stim/wavs/cuban_match_interrogative-total-yn_Daniel-iba-a-Bolivia.wav,1,,,130.1289,132.2449,0,0,1.5934,,0,40,40,7,1,8,1,cuban,,,,,,,,,,,,,,,,,,,,,,,,,,,,,,,,,,,,,,,,,,,,,,,,,,,,,,,,
,,,,,,,,,67d09ba717ec412519ebf44b,Spanish,13 or older,"no, only English or Spanish",no,2025-07-24_08h09.00.465,empathy_intonation_perc_control,2024.2.4,Win32,59.88023952,67d09ba717ec412519ebf44b,68817205a84113384fffdfe3,688222212e409664af119d63,,,,,,,,,,,,./stim/wavs/puertorican_mismatch_declarative-broad-focus_El-bebe-comia-muy-bien.wav,0,,,132.2452,134.4774,0,1,1.7063,,0,41,41,83,1,84,0,puertorican,,,,,,,,,,,,,,,,,,,,,,,,,,,,,,,,,,,,,,,,,,,,,,,,,,,,,,,,
,,,,,,,,,67d09ba717ec412519ebf44b,Spanish,13 or older,"no, only English or Spanish",no,2025-07-24_08h09.00.465,empathy_intonation_perc_control,2024.2.4,Win32,59.88023952,67d09ba717ec412519ebf44b,68817205a84113384fffdfe3,688222212e409664af119d63,,,,,,,,,,,,./stim/wavs/cuban_mismatch_declarative-broad-focus_El-bebe-comia-muy-bien.wav,0,,,134.4778,136.5267,0,1,1.5267,,0,42,42,73,1,74,0,cuban,,,,,,,,,,,,,,,,,,,,,,,,,,,,,,,,,,,,,,,,,,,,,,,,,,,,,,,,
,,,,,,,,,67d09ba717ec412519ebf44b,Spanish,13 or older,"no, only English or Spanish",no,2025-07-24_08h09.00.465,empathy_intonation_perc_control,2024.2.4,Win32,59.88023952,67d09ba717ec412519ebf44b,68817205a84113384fffdfe3,688222212e409664af119d63,,,,,,,,,,,,./stim/wavs/cuban_mismatch_interrogative-total-yn_El-nino-oye-el-rio.wav,1,,,136.5274,138.643,0,0,1.5876,,0,43,43,30,1,31,1,cuban,,,,,,,,,,,,,,,,,,,,,,,,,,,,,,,,,,,,,,,,,,,,,,,,,,,,,,,,
,,,,,,,,,67d09ba717ec412519ebf44b,Spanish,13 or older,"no, only English or Spanish",no,2025-07-24_08h09.00.465,empathy_intonation_perc_control,2024.2.4,Win32,59.88023952,67d09ba717ec412519ebf44b,68817205a84113384fffdfe3,688222212e409664af119d63,,,,,,,,,,,,./stim/wavs/puertorican_match_interrogative-total-yn_Daniel-iba-a-Bolivia.wav,1,,,138.6438,140.909,0,0,1.7392,,0,44,44,19,1,20,1,puertorican,,,,,,,,,,,,,,,,,,,,,,,,,,,,,,,,,,,,,,,,,,,,,,,,,,,,,,,,
,,,,,,,,,67d09ba717ec412519ebf44b,Spanish,13 or older,"no, only English or Spanish",no,2025-07-24_08h09.00.465,empathy_intonation_perc_control,2024.2.4,Win32,59.88023952,67d09ba717ec412519ebf44b,68817205a84113384fffdfe3,688222212e409664af119d63,,,,,,,,,,,,./stim/wavs/puertorican_mismatch_interrogative-total-yn_El-hombre-mira-la-luna.wav,1,,,140.9098,142.9918,1,1,1.5499,,0,45,45,39,1,40,1,puertorican,,,,,,,,,,,,,,,,,,,,,,,,,,,,,,,,,,,,,,,,,,,,,,,,,,,,,,,,
,,,,,,,,,67d09ba717ec412519ebf44b,Spanish,13 or older,"no, only English or Spanish",no,2025-07-24_08h09.00.465,empathy_intonation_perc_control,2024.2.4,Win32,59.88023952,67d09ba717ec412519ebf44b,68817205a84113384fffdfe3,688222212e409664af119d63,,,,,,,,,,,,./stim/wavs/cuban_match_declarative-broad-focus_Maria-bebe-el-vino.wav,0,,,142.9927,145.1081,0,1,1.5957,,0,46,46,53,1,54,0,cuban,,,,,,,,,,,,,,,,,,,,,,,,,,,,,,,,,,,,,,,,,,,,,,,,,,,,,,,,
,,,,,,,,,67d09ba717ec412519ebf44b,Spanish,13 or older,"no, only English or Spanish",no,2025-07-24_08h09.00.465,empathy_intonation_perc_control,2024.2.4,Win32,59.88023952,67d09ba717ec412519ebf44b,68817205a84113384fffdfe3,688222212e409664af119d63,,,,,,,,,,,,./stim/wavs/puertorican_match_declarative-broad-focus_David-leia-el-libro.wav,0,,,145.1089,147.3239,0,1,1.693,,0,47,47,64,1,65,0,puertorican,,,,,,,,,,,,,,,,,,,,,,,,,,,,,,,,,,,,,,,,,,,,,,,,,,,,,,,,
,,,,,,,,,67d09ba717ec412519ebf44b,Spanish,13 or older,"no, only English or Spanish",no,2025-07-24_08h09.00.465,empathy_intonation_perc_control,2024.2.4,Win32,59.88023952,67d09ba717ec412519ebf44b,68817205a84113384fffdfe3,688222212e409664af119d63,,,,,,,,,,,,./stim/wavs/mexican_match_interrogative-total-yn_Marta-abre-el-regalo.wav,1,,,147.3248,149.44,1,1,1.5875,,0,48,48,17,1,18,0,mexican,,,,,,,,,,,,,,,,,,,,,,,,,,,,,,,,,,,,,,,,,,,,,,,,,,,,,,,,
,,,,,,,,,67d09ba717ec412519ebf44b,Spanish,13 or older,"no, only English or Spanish",no,2025-07-24_08h09.00.465,empathy_intonation_perc_control,2024.2.4,Win32,59.88023952,67d09ba717ec412519ebf44b,68817205a84113384fffdfe3,688222212e409664af119d63,,,,,,,,,,,,./stim/wavs/cuban_match_declarative-broad-focus_Mariano-habla-del-tiempo.wav,0,,,149.4409,151.8727,0,1,1.9118,,0,49,49,54,1,55,0,cuban,,,,,,,,,,,,,,,,,,,,,,,,,,,,,,,,,,,,,,,,,,,,,,,,,,,,,,,,
,,,,,,,,,67d09ba717ec412519ebf44b,Spanish,13 or older,"no, only English or Spanish",no,2025-07-24_08h09.00.465,empathy_intonation_perc_control,2024.2.4,Win32,59.88023952,67d09ba717ec412519ebf44b,68817205a84113384fffdfe3,688222212e409664af119d63,,,,,,,,,,,,./stim/wavs/castilian_mismatch_interrogative-total-yn_Mi-novio-viene-del-lago.wav,1,,,151.8735,154.2887,1,1,1.8927,,0,50,50,27,1,28,0,castilian,,,,,,,,,,,,,,,,,,,,,,,,,,,,,,,,,,,,,,,,,,,,,,,,,,,,,,,,
,,,,,,,,,67d09ba717ec412519ebf44b,Spanish,13 or older,"no, only English or Spanish",no,2025-07-24_08h09.00.465,empathy_intonation_perc_control,2024.2.4,Win32,59.88023952,67d09ba717ec412519ebf44b,68817205a84113384fffdfe3,688222212e409664af119d63,,,,,,,,,,,,./stim/wavs/puertorican_match_interrogative-total-yn_Manuela-vende-el-carro.wav,1,,,154.2896,156.4548,0,0,1.633,,0,51,51,22,1,23,1,puertorican,,,,,,,,,,,,,,,,,,,,,,,,,,,,,,,,,,,,,,,,,,,,,,,,,,,,,,,,
,,,,,,,,,67d09ba717ec412519ebf44b,Spanish,13 or older,"no, only English or Spanish",no,2025-07-24_08h09.00.465,empathy_intonation_perc_control,2024.2.4,Win32,59.88023952,67d09ba717ec412519ebf44b,68817205a84113384fffdfe3,688222212e409664af119d63,,,,,,,,,,,,./stim/wavs/castilian_match_declarative-broad-focus_Maria-bebe-el-vino.wav,0,,,156.4554,158.9544,0,1,1.9715,,0,52,52,47,1,48,0,castilian,,,,,,,,,,,,,,,,,,,,,,,,,,,,,,,,,,,,,,,,,,,,,,,,,,,,,,,,
,,,,,,,,,67d09ba717ec412519ebf44b,Spanish,13 or older,"no, only English or Spanish",no,2025-07-24_08h09.00.465,empathy_intonation_perc_control,2024.2.4,Win32,59.88023952,67d09ba717ec412519ebf44b,68817205a84113384fffdfe3,688222212e409664af119d63,,,,,,,,,,,,./stim/wavs/castilian_match_interrogative-total-yn_Maria-bebe-el-vino.wav,1,,,158.9553,161.104,1,1,1.6269,,0,53,53,3,1,4,0,castilian,,,,,,,,,,,,,,,,,,,,,,,,,,,,,,,,,,,,,,,,,,,,,,,,,,,,,,,,
,,,,,,,,,67d09ba717ec412519ebf44b,Spanish,13 or older,"no, only English or Spanish",no,2025-07-24_08h09.00.465,empathy_intonation_perc_control,2024.2.4,Win32,59.88023952,67d09ba717ec412519ebf44b,68817205a84113384fffdfe3,688222212e409664af119d63,,,,,,,,,,,,./stim/wavs/cuban_mismatch_declarative-broad-focus_Mi-novio-viene-del-lago.wav,0,,,161.1047,163.4861,0,1,1.853,,0,54,54,76,1,77,0,cuban,,,,,,,,,,,,,,,,,,,,,,,,,,,,,,,,,,,,,,,,,,,,,,,,,,,,,,,,
,,,,,,,,,67d09ba717ec412519ebf44b,Spanish,13 or older,"no, only English or Spanish",no,2025-07-24_08h09.00.465,empathy_intonation_perc_control,2024.2.4,Win32,59.88023952,67d09ba717ec412519ebf44b,68817205a84113384fffdfe3,688222212e409664af119d63,,,,,,,,,,,,./stim/wavs/cuban_match_interrogative-total-yn_Maria-bebe-el-vino.wav,1,,,163.4869,166.0356,0,0,2.0227,,0,55,55,9,1,10,1,cuban,,,,,,,,,,,,,,,,,,,,,,,,,,,,,,,,,,,,,,,,,,,,,,,,,,,,,,,,
,,,,,,,,,67d09ba717ec412519ebf44b,Spanish,13 or older,"no, only English or Spanish",no,2025-07-24_08h09.00.465,empathy_intonation_perc_control,2024.2.4,Win32,59.88023952,67d09ba717ec412519ebf44b,68817205a84113384fffdfe3,688222212e409664af119d63,,,,,,,,,,,,./stim/wavs/castilian_mismatch_declarative-broad-focus_Mi-novio-viene-del-lago.wav,0,,,166.0362,168.5014,0,1,1.9359,,0,56,56,71,1,72,0,castilian,,,,,,,,,,,,,,,,,,,,,,,,,,,,,,,,,,,,,,,,,,,,,,,,,,,,,,,,
,,,,,,,,,67d09ba717ec412519ebf44b,Spanish,13 or older,"no, only English or Spanish",no,2025-07-24_08h09.00.465,empathy_intonation_perc_control,2024.2.4,Win32,59.88023952,67d09ba717ec412519ebf44b,68817205a84113384fffdfe3,688222212e409664af119d63,,,,,,,,,,,,./stim/wavs/castilian_match_interrogative-total-yn_Marta-abre-el-regalo.wav,1,,,168.5021,170.8676,1,1,1.8396,,0,57,57,5,1,6,0,castilian,,,,,,,,,,,,,,,,,,,,,,,,,,,,,,,,,,,,,,,,,,,,,,,,,,,,,,,,
,,,,,,,,,67d09ba717ec412519ebf44b,Spanish,13 or older,"no, only English or Spanish",no,2025-07-24_08h09.00.465,empathy_intonation_perc_control,2024.2.4,Win32,59.88023952,67d09ba717ec412519ebf44b,68817205a84113384fffdfe3,688222212e409664af119d63,,,,,,,,,,,,./stim/wavs/castilian_mismatch_interrogative-total-yn_Mi-madre-come-la-fruta.wav,1,,,170.8683,173.2335,1,1,1.8441,,0,58,58,26,1,27,0,castilian,,,,,,,,,,,,,,,,,,,,,,,,,,,,,,,,,,,,,,,,,,,,,,,,,,,,,,,,
,,,,,,,,,67d09ba717ec412519ebf44b,Spanish,13 or older,"no, only English or Spanish",no,2025-07-24_08h09.00.465,empathy_intonation_perc_control,2024.2.4,Win32,59.88023952,67d09ba717ec412519ebf44b,68817205a84113384fffdfe3,688222212e409664af119d63,,,,,,,,,,,,./stim/wavs/cuban_mismatch_interrogative-total-yn_Mi-madre-come-la-fruta.wav,1,,,173.2341,176.1659,0,0,2.4037,,0,59,59,31,1,32,1,cuban,,,,,,,,,,,,,,,,,,,,,,,,,,,,,,,,,,,,,,,,,,,,,,,,,,,,,,,,
,,,,,,,,,67d09ba717ec412519ebf44b,Spanish,13 or older,"no, only English or Spanish",no,2025-07-24_08h09.00.465,empathy_intonation_perc_control,2024.2.4,Win32,59.88023952,67d09ba717ec412519ebf44b,68817205a84113384fffdfe3,688222212e409664af119d63,,,,,,,,,,,,./stim/wavs/puertorican_mismatch_declarative-broad-focus_La-maestra-vive-en-Paris.wav,0,,,176.1663,178.6984,0,1,2.0072,,0,60,60,86,1,87,0,puertorican,,,,,,,,,,,,,,,,,,,,,,,,,,,,,,,,,,,,,,,,,,,,,,,,,,,,,,,,
,,,,,,,,,67d09ba717ec412519ebf44b,Spanish,13 or older,"no, only English or Spanish",no,2025-07-24_08h09.00.465,empathy_intonation_perc_control,2024.2.4,Win32,59.88023952,67d09ba717ec412519ebf44b,68817205a84113384fffdfe3,688222212e409664af119d63,,,,,,,,,,,,./stim/wavs/castilian_match_declarative-broad-focus_Mariano-habla-del-tiempo.wav,0,,,178.6987,181.1811,0,1,1.9487,,0,61,61,48,1,49,0,castilian,,,,,,,,,,,,,,,,,,,,,,,,,,,,,,,,,,,,,,,,,,,,,,,,,,,,,,,,
,,,,,,,,,67d09ba717ec412519ebf44b,Spanish,13 or older,"no, only English or Spanish",no,2025-07-24_08h09.00.465,empathy_intonation_perc_control,2024.2.4,Win32,59.88023952,67d09ba717ec412519ebf44b,68817205a84113384fffdfe3,688222212e409664af119d63,,,,,,,,,,,,./stim/wavs/cuban_match_declarative-broad-focus_Marta-abre-el-regalo.wav,0,,,181.1814,183.3973,0,1,1.6833,,0,62,62,55,1,56,0,cuban,,,,,,,,,,,,,,,,,,,,,,,,,,,,,,,,,,,,,,,,,,,,,,,,,,,,,,,,
,,,,,,,,,67d09ba717ec412519ebf44b,Spanish,13 or older,"no, only English or Spanish",no,2025-07-24_08h09.00.465,empathy_intonation_perc_control,2024.2.4,Win32,59.88023952,67d09ba717ec412519ebf44b,68817205a84113384fffdfe3,688222212e409664af119d63,,,,,,,,,,,,./stim/wavs/castilian_match_declarative-broad-focus_Marta-abre-el-regalo.wav,0,,,183.3977,185.7303,0,1,1.8106,,0,63,63,49,1,50,0,castilian,,,,,,,,,,,,,,,,,,,,,,,,,,,,,,,,,,,,,,,,,,,,,,,,,,,,,,,,
,,,,,,,,,67d09ba717ec412519ebf44b,Spanish,13 or older,"no, only English or Spanish",no,2025-07-24_08h09.00.465,empathy_intonation_perc_control,2024.2.4,Win32,59.88023952,67d09ba717ec412519ebf44b,68817205a84113384fffdfe3,688222212e409664af119d63,,,,,,,,,,,,./stim/wavs/cuban_match_declarative-broad-focus_Manuela-vende-el-carro.wav,0,,,185.7314,188.0629,0,1,1.7986,,0,64,64,52,1,53,0,cuban,,,,,,,,,,,,,,,,,,,,,,,,,,,,,,,,,,,,,,,,,,,,,,,,,,,,,,,,
,,,,,,,,,67d09ba717ec412519ebf44b,Spanish,13 or older,"no, only English or Spanish",no,2025-07-24_08h09.00.465,empathy_intonation_perc_control,2024.2.4,Win32,59.88023952,67d09ba717ec412519ebf44b,68817205a84113384fffdfe3,688222212e409664af119d63,,,,,,,,,,,,./stim/wavs/mexican_match_interrogative-total-yn_Emilio-ama-la-marcha.wav,1,,,188.0631,190.745,1,1,2.1619,,0,65,65,15,1,16,0,mexican,,,,,,,,,,,,,,,,,,,,,,,,,,,,,,,,,,,,,,,,,,,,,,,,,,,,,,,,
,,,,,,,,,67d09ba717ec412519ebf44b,Spanish,13 or older,"no, only English or Spanish",no,2025-07-24_08h09.00.465,empathy_intonation_perc_control,2024.2.4,Win32,59.88023952,67d09ba717ec412519ebf44b,68817205a84113384fffdfe3,688222212e409664af119d63,,,,,,,,,,,,./stim/wavs/mexican_mismatch_interrogative-total-yn_El-hombre-mira-la-luna.wav,1,,,190.7454,192.8449,1,1,1.5756,,0,66,66,34,1,35,0,mexican,,,,,,,,,,,,,,,,,,,,,,,,,,,,,,,,,,,,,,,,,,,,,,,,,,,,,,,,
,,,,,,,,,67d09ba717ec412519ebf44b,Spanish,13 or older,"no, only English or Spanish",no,2025-07-24_08h09.00.465,empathy_intonation_perc_control,2024.2.4,Win32,59.88023952,67d09ba717ec412519ebf44b,68817205a84113384fffdfe3,688222212e409664af119d63,,,,,,,,,,,,./stim/wavs/cuban_match_interrogative-total-yn_Marta-abre-el-regalo.wav,1,,,192.8454,195.2441,0,0,1.8779,,0,67,67,11,1,12,1,cuban,,,,,,,,,,,,,,,,,,,,,,,,,,,,,,,,,,,,,,,,,,,,,,,,,,,,,,,,
,,,,,,,,,67d09ba717ec412519ebf44b,Spanish,13 or older,"no, only English or Spanish",no,2025-07-24_08h09.00.465,empathy_intonation_perc_control,2024.2.4,Win32,59.88023952,67d09ba717ec412519ebf44b,68817205a84113384fffdfe3,688222212e409664af119d63,,,,,,,,,,,,./stim/wavs/mexican_mismatch_declarative-broad-focus_La-maestra-vive-en-Paris.wav,0,,,195.245,197.5601,0,1,1.7928,,0,68,68,80,1,81,0,mexican,,,,,,,,,,,,,,,,,,,,,,,,,,,,,,,,,,,,,,,,,,,,,,,,,,,,,,,,
,,,,,,,,,67d09ba717ec412519ebf44b,Spanish,13 or older,"no, only English or Spanish",no,2025-07-24_08h09.00.465,empathy_intonation_perc_control,2024.2.4,Win32,59.88023952,67d09ba717ec412519ebf44b,68817205a84113384fffdfe3,688222212e409664af119d63,,,,,,,,,,,,./stim/wavs/puertorican_mismatch_declarative-broad-focus_El-nino-oye-el-rio.wav,0,,,197.5608,199.5763,0,1,1.4933,,0,69,69,85,1,86,0,puertorican,,,,,,,,,,,,,,,,,,,,,,,,,,,,,,,,,,,,,,,,,,,,,,,,,,,,,,,,
,,,,,,,,,67d09ba717ec412519ebf44b,Spanish,13 or older,"no, only English or Spanish",no,2025-07-24_08h09.00.465,empathy_intonation_perc_control,2024.2.4,Win32,59.88023952,67d09ba717ec412519ebf44b,68817205a84113384fffdfe3,688222212e409664af119d63,,,,,,,,,,,,./stim/wavs/cuban_mismatch_declarative-broad-focus_Mi-tia-odia-la-lluvia.wav,0,,,199.577,201.9589,0,1,1.8619,,0,70,70,77,1,78,0,cuban,,,,,,,,,,,,,,,,,,,,,,,,,,,,,,,,,,,,,,,,,,,,,,,,,,,,,,,,
,,,,,,,,,67d09ba717ec412519ebf44b,Spanish,13 or older,"no, only English or Spanish",no,2025-07-24_08h09.00.465,empathy_intonation_perc_control,2024.2.4,Win32,59.88023952,67d09ba717ec412519ebf44b,68817205a84113384fffdfe3,688222212e409664af119d63,,,,,,,,,,,,./stim/wavs/cuban_mismatch_declarative-broad-focus_La-nina-lava-el-plato.wav,0,,,201.9595,204.0416,0,1,1.5583,,0,71,71,75,1,76,0,cuban,,,,,,,,,,,,,,,,,,,,,,,,,,,,,,,,,,,,,,,,,,,,,,,,,,,,,,,,
,,,,,,,,,67d09ba717ec412519ebf44b,Spanish,13 or older,"no, only English or Spanish",no,2025-07-24_08h09.00.465,empathy_intonation_perc_control,2024.2.4,Win32,59.88023952,67d09ba717ec412519ebf44b,68817205a84113384fffdfe3,688222212e409664af119d63,,,,,,,,,,,,./stim/wavs/castilian_mismatch_declarative-broad-focus_La-nina-lava-el-plato.wav,0,,,204.0422,206.391,0,1,1.8216,,0,72,72,70,1,71,0,castilian,,,,,,,,,,,,,,,,,,,,,,,,,,,,,,,,,,,,,,,,,,,,,,,,,,,,,,,,
,,,,,,,,,67d09ba717ec412519ebf44b,Spanish,13 or older,"no, only English or Spanish",no,2025-07-24_08h09.00.465,empathy_intonation_perc_control,2024.2.4,Win32,59.88023952,67d09ba717ec412519ebf44b,68817205a84113384fffdfe3,688222212e409664af119d63,,,,,,,,,,,,./stim/wavs/puertorican_mismatch_interrogative-total-yn_La-maestra-vive-en-Paris.wav,1,,,206.3915,209.0071,0,0,2.0832,,0,73,73,41,1,42,1,puertorican,,,,,,,,,,,,,,,,,,,,,,,,,,,,,,,,,,,,,,,,,,,,,,,,,,,,,,,,
,,,,,,,,,67d09ba717ec412519ebf44b,Spanish,13 or older,"no, only English or Spanish",no,2025-07-24_08h09.00.465,empathy_intonation_perc_control,2024.2.4,Win32,59.88023952,67d09ba717ec412519ebf44b,68817205a84113384fffdfe3,688222212e409664af119d63,,,,,,,,,,,,./stim/wavs/mexican_match_interrogative-total-yn_Daniel-iba-a-Bolivia.wav,1,,,209.0077,211.1896,1,1,1.6617,,0,74,74,13,1,14,0,mexican,,,,,,,,,,,,,,,,,,,,,,,,,,,,,,,,,,,,,,,,,,,,,,,,,,,,,,,,
,,,,,,,,,67d09ba717ec412519ebf44b,Spanish,13 or older,"no, only English or Spanish",no,2025-07-24_08h09.00.465,empathy_intonation_perc_control,2024.2.4,Win32,59.88023952,67d09ba717ec412519ebf44b,68817205a84113384fffdfe3,688222212e409664af119d63,,,,,,,,,,,,./stim/wavs/mexican_match_declarative-broad-focus_David-leia-el-libro.wav,0,,,211.1899,213.4222,0,1,1.7107,,0,75,75,58,1,59,0,mexican,,,,,,,,,,,,,,,,,,,,,,,,,,,,,,,,,,,,,,,,,,,,,,,,,,,,,,,,
,,,,,,,,,67d09ba717ec412519ebf44b,Spanish,13 or older,"no, only English or Spanish",no,2025-07-24_08h09.00.465,empathy_intonation_perc_control,2024.2.4,Win32,59.88023952,67d09ba717ec412519ebf44b,68817205a84113384fffdfe3,688222212e409664af119d63,,,,,,,,,,,,./stim/wavs/puertorican_mismatch_declarative-broad-focus_La-nina-lava-el-plato.wav,0,,,213.4225,215.4053,0,1,1.4552,,0,76,76,87,1,88,0,puertorican,,,,,,,,,,,,,,,,,,,,,,,,,,,,,,,,,,,,,,,,,,,,,,,,,,,,,,,,
,,,,,,,,,67d09ba717ec412519ebf44b,Spanish,13 or older,"no, only English or Spanish",no,2025-07-24_08h09.00.465,empathy_intonation_perc_control,2024.2.4,Win32,59.88023952,67d09ba717ec412519ebf44b,68817205a84113384fffdfe3,688222212e409664af119d63,,,,,,,,,,,,./stim/wavs/mexican_match_interrogative-total-yn_David-leia-el-libro.wav,1,,,215.4057,217.6384,1,1,1.7134,,0,77,77,14,1,15,0,mexican,,,,,,,,,,,,,,,,,,,,,,,,,,,,,,,,,,,,,,,,,,,,,,,,,,,,,,,,
,,,,,,,,,67d09ba717ec412519ebf44b,Spanish,13 or older,"no, only English or Spanish",no,2025-07-24_08h09.00.465,empathy_intonation_perc_control,2024.2.4,Win32,59.88023952,67d09ba717ec412519ebf44b,68817205a84113384fffdfe3,688222212e409664af119d63,,,,,,,,,,,,./stim/wavs/mexican_mismatch_declarative-broad-focus_El-bebe-comia-muy-bien.wav,0,,,217.639,221.0202,0,1,2.8476,,0,78,78,78,1,79,0,mexican,,,,,,,,,,,,,,,,,,,,,,,,,,,,,,,,,,,,,,,,,,,,,,,,,,,,,,,,
,,,,,,,,,67d09ba717ec412519ebf44b,Spanish,13 or older,"no, only English or Spanish",no,2025-07-24_08h09.00.465,empathy_intonation_perc_control,2024.2.4,Win32,59.88023952,67d09ba717ec412519ebf44b,68817205a84113384fffdfe3,688222212e409664af119d63,,,,,,,,,,,,./stim/wavs/cuban_match_interrogative-total-yn_Ana-lleva-el-abrigo.wav,1,,,221.0205,223.3365,0,0,1.7843,,0,79,79,6,1,7,1,cuban,,,,,,,,,,,,,,,,,,,,,,,,,,,,,,,,,,,,,,,,,,,,,,,,,,,,,,,,
,,,,,,,,,67d09ba717ec412519ebf44b,Spanish,13 or older,"no, only English or Spanish",no,2025-07-24_08h09.00.465,empathy_intonation_perc_control,2024.2.4,Win32,59.88023952,67d09ba717ec412519ebf44b,68817205a84113384fffdfe3,688222212e409664af119d63,,,,,,,,,,,,./stim/wavs/castilian_match_interrogative-total-yn_Manuela-vende-el-carro.wav,1,,,223.3367,225.9358,1,1,2.0687,,0,80,80,2,1,3,0,castilian,,,,,,,,,,,,,,,,,,,,,,,,,,,,,,,,,,,,,,,,,,,,,,,,,,,,,,,,
,,,,,,,,,67d09ba717ec412519ebf44b,Spanish,13 or older,"no, only English or Spanish",no,2025-07-24_08h09.00.465,empathy_intonation_perc_control,2024.2.4,Win32,59.88023952,67d09ba717ec412519ebf44b,68817205a84113384fffdfe3,688222212e409664af119d63,,,,,,,,,,,,./stim/wavs/puertorican_mismatch_interrogative-total-yn_La-nina-lava-el-plato.wav,1,,,225.9363,228.4183,0,0,1.9548,,0,81,81,42,1,43,1,puertorican,,,,,,,,,,,,,,,,,,,,,,,,,,,,,,,,,,,,,,,,,,,,,,,,,,,,,,,,
,,,,,,,,,67d09ba717ec412519ebf44b,Spanish,13 or older,"no, only English or Spanish",no,2025-07-24_08h09.00.465,empathy_intonation_perc_control,2024.2.4,Win32,59.88023952,67d09ba717ec412519ebf44b,68817205a84113384fffdfe3,688222212e409664af119d63,,,,,,,,,,,,./stim/wavs/mexican_mismatch_declarative-broad-focus_El-hombre-mira-la-luna.wav,0,,,228.4187,230.5675,0,1,1.6235,,0,82,82,79,1,80,0,mexican,,,,,,,,,,,,,,,,,,,,,,,,,,,,,,,,,,,,,,,,,,,,,,,,,,,,,,,,
,,,,,,,,,67d09ba717ec412519ebf44b,Spanish,13 or older,"no, only English or Spanish",no,2025-07-24_08h09.00.465,empathy_intonation_perc_control,2024.2.4,Win32,59.88023952,67d09ba717ec412519ebf44b,68817205a84113384fffdfe3,688222212e409664af119d63,,,,,,,,,,,,./stim/wavs/puertorican_match_declarative-broad-focus_Ana-lleva-el-abrigo.wav,0,,,230.5679,232.634,0,1,1.5399,,0,83,83,62,1,63,0,puertorican,,,,,,,,,,,,,,,,,,,,,,,,,,,,,,,,,,,,,,,,,,,,,,,,,,,,,,,,
,,,,,,,,,67d09ba717ec412519ebf44b,Spanish,13 or older,"no, only English or Spanish",no,2025-07-24_08h09.00.465,empathy_intonation_perc_control,2024.2.4,Win32,59.88023952,67d09ba717ec412519ebf44b,68817205a84113384fffdfe3,688222212e409664af119d63,,,,,,,,,,,,./stim/wavs/mexican_match_interrogative-total-yn_Mariano-habla-del-tiempo.wav,1,,,232.6346,234.8832,1,1,1.7182,,0,84,84,16,1,17,0,mexican,,,,,,,,,,,,,,,,,,,,,,,,,,,,,,,,,,,,,,,,,,,,,,,,,,,,,,,,
,,,,,,,,,67d09ba717ec412519ebf44b,Spanish,13 or older,"no, only English or Spanish",no,2025-07-24_08h09.00.465,empathy_intonation_perc_control,2024.2.4,Win32,59.88023952,67d09ba717ec412519ebf44b,68817205a84113384fffdfe3,688222212e409664af119d63,,,,,,,,,,,,./stim/wavs/cuban_mismatch_declarative-broad-focus_El-hombre-mira-la-luna.wav,0,,,234.8836,237.1159,0,1,1.7109,,0,85,85,74,1,75,0,cuban,,,,,,,,,,,,,,,,,,,,,,,,,,,,,,,,,,,,,,,,,,,,,,,,,,,,,,,,
,,,,,,,,,67d09ba717ec412519ebf44b,Spanish,13 or older,"no, only English or Spanish",no,2025-07-24_08h09.00.465,empathy_intonation_perc_control,2024.2.4,Win32,59.88023952,67d09ba717ec412519ebf44b,68817205a84113384fffdfe3,688222212e409664af119d63,,,,,,,,,,,,./stim/wavs/puertorican_match_declarative-broad-focus_Manuela-vende-el-carro.wav,0,,,237.1166,239.1986,0,1,1.5555,,0,86,86,66,1,67,0,puertorican,,,,,,,,,,,,,,,,,,,,,,,,,,,,,,,,,,,,,,,,,,,,,,,,,,,,,,,,
,,,,,,,,,67d09ba717ec412519ebf44b,Spanish,13 or older,"no, only English or Spanish",no,2025-07-24_08h09.00.465,empathy_intonation_perc_control,2024.2.4,Win32,59.88023952,67d09ba717ec412519ebf44b,68817205a84113384fffdfe3,688222212e409664af119d63,,,,,,,,,,,,./stim/wavs/cuban_mismatch_interrogative-total-yn_El-hombre-mira-la-luna.wav,1,,,239.1989,241.8979,0,0,2.1655,,0,87,87,29,1,30,1,cuban,,,,,,,,,,,,,,,,,,,,,,,,,,,,,,,,,,,,,,,,,,,,,,,,,,,,,,,,
,,,,,,,"Great! Now we will move on. The next task consists of about 60 trials, in each of which you will see a string of letters. 
  
  Your task is to decide whether this is a real Spanish word or not.", (press the spacebar to continue),67d09ba717ec412519ebf44b,Spanish,13 or older,"no, only English or Spanish",no,2025-07-24_08h09.00.465,empathy_intonation_perc_control,2024.2.4,Win32,59.88023952,67d09ba717ec412519ebf44b,68817205a84113384fffdfe3,688222212e409664af119d63,,,,,,,,,,,,,,,,,,,,,,,,,,,,,,241.9035,247.2475,0,0,0,0,1,,,,,,,,,,,,,,,,,,,,,,,,,,,,,,,,,,,,,,,,,,,,,,,,,
,,,,,,,"If you think it is an existing Spanish word, you type '1' (for 'REAL'), and if you think it is not an existing Spanish word, you type '0' (for 'FAKE').", (press the spacebar to continue),67d09ba717ec412519ebf44b,Spanish,13 or older,"no, only English or Spanish",no,2025-07-24_08h09.00.465,empathy_intonation_perc_control,2024.2.4,Win32,59.88023952,67d09ba717ec412519ebf44b,68817205a84113384fffdfe3,688222212e409664af119d63,,,,,,,,,,,,,,,,,,,,,,,,,,,,,,247.2518,254.3784,0,1,1,1,1,,,,,,,,,,,,,,,,,,,,,,,,,,,,,,,,,,,,,,,,,,,,,,,,,
,,,,,,,"If you are sure that the word exists, even though you don’t know its exact meaning, you may still respond '1' (REAL). 
  
  But if you are not sure if it is an existing word, you should respond '0' (FAKE).
  
  Let's do a practice round...", (press the spacebar to continue),67d09ba717ec412519ebf44b,Spanish,13 or older,"no, only English or Spanish",no,2025-07-24_08h09.00.465,empathy_intonation_perc_control,2024.2.4,Win32,59.88023952,67d09ba717ec412519ebf44b,68817205a84113384fffdfe3,688222212e409664af119d63,,,,,,,,,,,,,,,,,,,,,,,,,,,,,,254.3811,261.7596,0,2,2,2,1,,,,,,,,,,,,,,,,,,,,,,,,,,,,,,,,,,,,,,,,,,,,,,,,,
,,,,,,,,,67d09ba717ec412519ebf44b,Spanish,13 or older,"no, only English or Spanish",no,2025-07-24_08h09.00.465,empathy_intonation_perc_control,2024.2.4,Win32,59.88023952,67d09ba717ec412519ebf44b,68817205a84113384fffdfe3,688222212e409664af119d63,,,,,,,,,,,,,0,,,,,,,,,,,,,,,,,,,,,,,,261.765,264.0932,1,0,1.7896,,264.094,265.0927,0,0,0,0,1,0,depiste,REAL,FAKE,,,,,,,,,,,,,,,,,,,,,,,,,,,,,,,,
,,,,,,,,,67d09ba717ec412519ebf44b,Spanish,13 or older,"no, only English or Spanish",no,2025-07-24_08h09.00.465,empathy_intonation_perc_control,2024.2.4,Win32,59.88023952,67d09ba717ec412519ebf44b,68817205a84113384fffdfe3,688222212e409664af119d63,,,,,,,,,,,,,1,,,,,,,,,,,,,,,,,,,,,,,,265.0949,266.9915,1,1,1.3529,,266.9934,267.9913,0,1,1,1,1,0,sí,REAL,FAKE,,,,,,,,,,,,,,,,,,,,,,,,,,,,,,,,
,,,,,,,,,67d09ba717ec412519ebf44b,Spanish,13 or older,"no, only English or Spanish",no,2025-07-24_08h09.00.465,empathy_intonation_perc_control,2024.2.4,Win32,59.88023952,67d09ba717ec412519ebf44b,68817205a84113384fffdfe3,688222212e409664af119d63,,,,,,,,,,,,,0,,,,,,,,,,,,,,,,,,,,,,,,267.9934,269.824,0,1,1.2871,,269.8241,270.8234,0,2,2,2,1,0,coné,REAL,FAKE,,,,,,,,,,,,,,,,,,,,,,,,,,,,,,,,
,,,,,,,,,67d09ba717ec412519ebf44b,Spanish,13 or older,"no, only English or Spanish",no,2025-07-24_08h09.00.465,empathy_intonation_perc_control,2024.2.4,Win32,59.88023952,67d09ba717ec412519ebf44b,68817205a84113384fffdfe3,688222212e409664af119d63,,,,,,,,,,,,,0,,,,,,,,,,,,,,,,,,,,,,,,270.8256,272.3564,0,1,0.9947,,272.3566,273.3566,0,3,3,3,1,0,calpar,REAL,FAKE,,,,,,,,,,,,,,,,,,,,,,,,,,,,,,,,
,,,,,,,,,67d09ba717ec412519ebf44b,Spanish,13 or older,"no, only English or Spanish",no,2025-07-24_08h09.00.465,empathy_intonation_perc_control,2024.2.4,Win32,59.88023952,67d09ba717ec412519ebf44b,68817205a84113384fffdfe3,688222212e409664af119d63,,,,,,,,,,,,,0,,,,,,,,,,,,,,,,,,,,,,,,273.3595,274.5728,0,1,0.678,,274.573,275.5728,0,4,4,4,1,0,joten,REAL,FAKE,,,,,,,,,,,,,,,,,,,,,,,,,,,,,,,,
,,,,,,,,,67d09ba717ec412519ebf44b,Spanish,13 or older,"no, only English or Spanish",no,2025-07-24_08h09.00.465,empathy_intonation_perc_control,2024.2.4,Win32,59.88023952,67d09ba717ec412519ebf44b,68817205a84113384fffdfe3,688222212e409664af119d63,,,,,,,,,,,,,1,,,,,,,,,,,,,,,,,,,,,,,,275.5748,277.805,0,0,1.693,,277.807,278.8055,0,5,5,5,1,0,sacapuntas,REAL,FAKE,,,,,,,,,,,,,,,,,,,,,,,,,,,,,,,,
,,,,,,,,,67d09ba717ec412519ebf44b,Spanish,13 or older,"no, only English or Spanish",no,2025-07-24_08h09.00.465,empathy_intonation_perc_control,2024.2.4,Win32,59.88023952,67d09ba717ec412519ebf44b,68817205a84113384fffdfe3,688222212e409664af119d63,,,,,,,,,,,,,0,,,,,,,,,,,,,,,,,,,,,,,,278.8088,280.5045,0,1,1.1597,,280.5059,281.5048,0,6,6,6,1,0,priba,REAL,FAKE,,,,,,,,,,,,,,,,,,,,,,,,,,,,,,,,
,,,,,,,,,67d09ba717ec412519ebf44b,Spanish,13 or older,"no, only English or Spanish",no,2025-07-24_08h09.00.465,empathy_intonation_perc_control,2024.2.4,Win32,59.88023952,67d09ba717ec412519ebf44b,68817205a84113384fffdfe3,688222212e409664af119d63,,,,,,,,,,,,,0,,,,,,,,,,,,,,,,,,,,,,,,281.5067,283.1871,0,1,1.1428,,283.1874,284.1867,0,7,7,7,1,0,pelasula,REAL,FAKE,,,,,,,,,,,,,,,,,,,,,,,,,,,,,,,,
,,,,,,,,,67d09ba717ec412519ebf44b,Spanish,13 or older,"no, only English or Spanish",no,2025-07-24_08h09.00.465,empathy_intonation_perc_control,2024.2.4,Win32,59.88023952,67d09ba717ec412519ebf44b,68817205a84113384fffdfe3,688222212e409664af119d63,,,,,,,,,,,,,1,,,,,,,,,,,,,,,,,,,,,,,,284.1889,285.5202,1,1,0.7874,,285.5203,286.5199,0,8,8,8,1,0,bien,REAL,FAKE,,,,,,,,,,,,,,,,,,,,,,,,,,,,,,,,
,,,,,,,,,67d09ba717ec412519ebf44b,Spanish,13 or older,"no, only English or Spanish",no,2025-07-24_08h09.00.465,empathy_intonation_perc_control,2024.2.4,Win32,59.88023952,67d09ba717ec412519ebf44b,68817205a84113384fffdfe3,688222212e409664af119d63,,,,,,,,,,,,,1,,,,,,,,,,,,,,,,,,,,,,,,286.522,287.786,1,1,0.7202,,287.7862,288.786,0,9,9,9,1,0,casa,REAL,FAKE,,,,,,,,,,,,,,,,,,,,,,,,,,,,,,,,
,,,,,,,,,67d09ba717ec412519ebf44b,Spanish,13 or older,"no, only English or Spanish",no,2025-07-24_08h09.00.465,empathy_intonation_perc_control,2024.2.4,Win32,59.88023952,67d09ba717ec412519ebf44b,68817205a84113384fffdfe3,688222212e409664af119d63,,,,,,,,,,,,,0,,,,,,,,,,,,,,,,,,,,,,,,288.7884,290.1686,0,1,0.8409,,290.1688,291.1687,0,10,10,10,1,0,lejo,REAL,FAKE,,,,,,,,,,,,,,,,,,,,,,,,,,,,,,,,
,,,,,,,,,67d09ba717ec412519ebf44b,Spanish,13 or older,"no, only English or Spanish",no,2025-07-24_08h09.00.465,empathy_intonation_perc_control,2024.2.4,Win32,59.88023952,67d09ba717ec412519ebf44b,68817205a84113384fffdfe3,688222212e409664af119d63,,,,,,,,,,,,,0,,,,,,,,,,,,,,,,,,,,,,,,291.1709,293.1344,0,1,1.4168,,293.1345,294.1341,0,11,11,11,1,0,pretantas,REAL,FAKE,,,,,,,,,,,,,,,,,,,,,,,,,,,,,,,,
,,,,,,,,,67d09ba717ec412519ebf44b,Spanish,13 or older,"no, only English or Spanish",no,2025-07-24_08h09.00.465,empathy_intonation_perc_control,2024.2.4,Win32,59.88023952,67d09ba717ec412519ebf44b,68817205a84113384fffdfe3,688222212e409664af119d63,,,,,,,,,,,,,,,,,,,,,,,,,,,,,,,,,,,,,,,,,,,,,,,,,,,,,,294.1347,295.6178,,,,,,,,,,,,,,,,,,,,,,,,,,,,,,
,,,,,,,,,67d09ba717ec412519ebf44b,Spanish,13 or older,"no, only English or Spanish",no,2025-07-24_08h09.00.465,empathy_intonation_perc_control,2024.2.4,Win32,59.88023952,67d09ba717ec412519ebf44b,68817205a84113384fffdfe3,688222212e409664af119d63,,,,,,,,,,,,,0,,,,,,,,,,,,,,,,,,,,,,,,,,,,,,,,,,,,,74,cintro,,,,,295.6255,297.3019,1,0,1.1458,,0,0,0,73,1,REAL,FAKE,,,,,,,,,,,,,,,,,
,,,,,,,,,67d09ba717ec412519ebf44b,Spanish,13 or older,"no, only English or Spanish",no,2025-07-24_08h09.00.465,empathy_intonation_perc_control,2024.2.4,Win32,59.88023952,67d09ba717ec412519ebf44b,68817205a84113384fffdfe3,688222212e409664af119d63,,,,,,,,,,,,,0,,,,,,,,,,,,,,,,,,,,,,,,,,,,,,,,,,,,,8,cadeña,,,,,297.3054,299.2996,1,0,1.4519,,0,1,1,7,1,REAL,FAKE,,,,,,,,,,,,,,,,,
,,,,,,,,,67d09ba717ec412519ebf44b,Spanish,13 or older,"no, only English or Spanish",no,2025-07-24_08h09.00.465,empathy_intonation_perc_control,2024.2.4,Win32,59.88023952,67d09ba717ec412519ebf44b,68817205a84113384fffdfe3,688222212e409664af119d63,,,,,,,,,,,,,1,,,,,,,,,,,,,,,,,,,,,,,,,,,,,,,,,,,,,25,bisagra,,,,,299.3017,300.5491,0,0,0.7007,,0,2,2,24,1,REAL,FAKE,,,,,,,,,,,,,,,,,
,,,,,,,,,67d09ba717ec412519ebf44b,Spanish,13 or older,"no, only English or Spanish",no,2025-07-24_08h09.00.465,empathy_intonation_perc_control,2024.2.4,Win32,59.88023952,67d09ba717ec412519ebf44b,68817205a84113384fffdfe3,688222212e409664af119d63,,,,,,,,,,,,,1,,,,,,,,,,,,,,,,,,,,,,,,,,,,,,,,,,,,,61,seda,,,,,300.551,301.8658,0,0,0.7757,,0,3,3,60,1,REAL,FAKE,,,,,,,,,,,,,,,,,
,,,,,,,,,67d09ba717ec412519ebf44b,Spanish,13 or older,"no, only English or Spanish",no,2025-07-24_08h09.00.465,empathy_intonation_perc_control,2024.2.4,Win32,59.88023952,67d09ba717ec412519ebf44b,68817205a84113384fffdfe3,688222212e409664af119d63,,,,,,,,,,,,,1,,,,,,,,,,,,,,,,,,,,,,,,,,,,,,,,,,,,,13,helar,,,,,301.8674,303.1486,0,0,0.7376,,0,4,4,12,1,REAL,FAKE,,,,,,,,,,,,,,,,,
,,,,,,,,,67d09ba717ec412519ebf44b,Spanish,13 or older,"no, only English or Spanish",no,2025-07-24_08h09.00.465,empathy_intonation_perc_control,2024.2.4,Win32,59.88023952,67d09ba717ec412519ebf44b,68817205a84113384fffdfe3,688222212e409664af119d63,,,,,,,,,,,,,1,,,,,,,,,,,,,,,,,,,,,,,,,,,,,,,,,,,,,14,yunque,,,,,303.1507,304.3982,0,0,0.7017,,0,5,5,13,1,REAL,FAKE,,,,,,,,,,,,,,,,,
,,,,,,,,,67d09ba717ec412519ebf44b,Spanish,13 or older,"no, only English or Spanish",no,2025-07-24_08h09.00.465,empathy_intonation_perc_control,2024.2.4,Win32,59.88023952,67d09ba717ec412519ebf44b,68817205a84113384fffdfe3,688222212e409664af119d63,,,,,,,,,,,,,1,,,,,,,,,,,,,,,,,,,,,,,,,,,,,,,,,,,,,38,estornudar,,,,,304.4002,305.9806,0,0,1.0347,,0,6,6,37,1,REAL,FAKE,,,,,,,,,,,,,,,,,
,,,,,,,,,67d09ba717ec412519ebf44b,Spanish,13 or older,"no, only English or Spanish",no,2025-07-24_08h09.00.465,empathy_intonation_perc_control,2024.2.4,Win32,59.88023952,67d09ba717ec412519ebf44b,68817205a84113384fffdfe3,688222212e409664af119d63,,,,,,,,,,,,,1,,,,,,,,,,,,,,,,,,,,,,,,,,,,,,,,,,,,,20,ávido,,,,,305.9837,307.7135,1,1,1.1924,,0,7,7,19,1,REAL,FAKE,,,,,,,,,,,,,,,,,
,,,,,,,,,67d09ba717ec412519ebf44b,Spanish,13 or older,"no, only English or Spanish",no,2025-07-24_08h09.00.465,empathy_intonation_perc_control,2024.2.4,Win32,59.88023952,67d09ba717ec412519ebf44b,68817205a84113384fffdfe3,688222212e409664af119d63,,,,,,,,,,,,,1,,,,,,,,,,,,,,,,,,,,,,,,,,,,,,,,,,,,,51,candado,,,,,307.7158,309.8801,0,0,1.6219,,0,8,8,50,1,REAL,FAKE,,,,,,,,,,,,,,,,,
,,,,,,,,,67d09ba717ec412519ebf44b,Spanish,13 or older,"no, only English or Spanish",no,2025-07-24_08h09.00.465,empathy_intonation_perc_control,2024.2.4,Win32,59.88023952,67d09ba717ec412519ebf44b,68817205a84113384fffdfe3,688222212e409664af119d63,,,,,,,,,,,,,1,,,,,,,,,,,,,,,,,,,,,,,,,,,,,,,,,,,,,69,engatusar,,,,,309.882,311.9294,0,0,1.5022,,0,9,9,68,1,REAL,FAKE,,,,,,,,,,,,,,,,,
,,,,,,,,,67d09ba717ec412519ebf44b,Spanish,13 or older,"no, only English or Spanish",no,2025-07-24_08h09.00.465,empathy_intonation_perc_control,2024.2.4,Win32,59.88023952,67d09ba717ec412519ebf44b,68817205a84113384fffdfe3,688222212e409664af119d63,,,,,,,,,,,,,1,,,,,,,,,,,,,,,,,,,,,,,,,,,,,,,,,,,,,7,pésimo,,,,,311.9315,313.512,1,1,1.0378,,0,10,10,6,1,REAL,FAKE,,,,,,,,,,,,,,,,,
,,,,,,,,,67d09ba717ec412519ebf44b,Spanish,13 or older,"no, only English or Spanish",no,2025-07-24_08h09.00.465,empathy_intonation_perc_control,2024.2.4,Win32,59.88023952,67d09ba717ec412519ebf44b,68817205a84113384fffdfe3,688222212e409664af119d63,,,,,,,,,,,,,0,,,,,,,,,,,,,,,,,,,,,,,,,,,,,,,,,,,,,92,click the 0 key.,,,,,313.514,315.411,0,1,1.3693,,0,11,11,91,1,REAL,FAKE,,,,,,,,,,,,,,,,,
,,,,,,,,,67d09ba717ec412519ebf44b,Spanish,13 or older,"no, only English or Spanish",no,2025-07-24_08h09.00.465,empathy_intonation_perc_control,2024.2.4,Win32,59.88023952,67d09ba717ec412519ebf44b,68817205a84113384fffdfe3,688222212e409664af119d63,,,,,,,,,,,,,1,,,,,,,,,,,,,,,,,,,,,,,,,,,,,,,,,,,,,37,granuja,,,,,315.4135,317.6611,0,0,1.7026,,0,12,12,36,1,REAL,FAKE,,,,,,,,,,,,,,,,,
,,,,,,,,,67d09ba717ec412519ebf44b,Spanish,13 or older,"no, only English or Spanish",no,2025-07-24_08h09.00.465,empathy_intonation_perc_control,2024.2.4,Win32,59.88023952,67d09ba717ec412519ebf44b,68817205a84113384fffdfe3,688222212e409664af119d63,,,,,,,,,,,,,1,,,,,,,,,,,,,,,,,,,,,,,,,,,,,,,,,,,,,41,rebuscar,,,,,317.6629,319.1277,0,0,0.9179,,0,13,13,40,1,REAL,FAKE,,,,,,,,,,,,,,,,,
,,,,,,,,,67d09ba717ec412519ebf44b,Spanish,13 or older,"no, only English or Spanish",no,2025-07-24_08h09.00.465,empathy_intonation_perc_control,2024.2.4,Win32,59.88023952,67d09ba717ec412519ebf44b,68817205a84113384fffdfe3,688222212e409664af119d63,,,,,,,,,,,,,1,,,,,,,,,,,,,,,,,,,,,,,,,,,,,,,,,,,,,11,cenefa,,,,,319.1301,320.5935,0,0,0.9193,,0,14,14,10,1,REAL,FAKE,,,,,,,,,,,,,,,,,
,,,,,,,,,67d09ba717ec412519ebf44b,Spanish,13 or older,"no, only English or Spanish",no,2025-07-24_08h09.00.465,empathy_intonation_perc_control,2024.2.4,Win32,59.88023952,67d09ba717ec412519ebf44b,68817205a84113384fffdfe3,688222212e409664af119d63,,,,,,,,,,,,,0,,,,,,,,,,,,,,,,,,,,,,,,,,,,,,,,,,,,,17,floroso,,,,,320.5953,322.4099,1,0,1.272,,0,15,15,16,1,REAL,FAKE,,,,,,,,,,,,,,,,,
,,,,,,,,,67d09ba717ec412519ebf44b,Spanish,13 or older,"no, only English or Spanish",no,2025-07-24_08h09.00.465,empathy_intonation_perc_control,2024.2.4,Win32,59.88023952,67d09ba717ec412519ebf44b,68817205a84113384fffdfe3,688222212e409664af119d63,,,,,,,,,,,,,1,,,,,,,,,,,,,,,,,,,,,,,,,,,,,,,,,,,,,52,camisa,,,,,322.4116,323.9596,1,1,1.0054,,0,16,16,51,1,REAL,FAKE,,,,,,,,,,,,,,,,,
,,,,,,,,,67d09ba717ec412519ebf44b,Spanish,13 or older,"no, only English or Spanish",no,2025-07-24_08h09.00.465,empathy_intonation_perc_control,2024.2.4,Win32,59.88023952,67d09ba717ec412519ebf44b,68817205a84113384fffdfe3,688222212e409664af119d63,,,,,,,,,,,,,1,,,,,,,,,,,,,,,,,,,,,,,,,,,,,,,,,,,,,36,loro,,,,,323.9626,326.3262,1,1,1.8237,,0,17,17,35,1,REAL,FAKE,,,,,,,,,,,,,,,,,
,,,,,,,,,67d09ba717ec412519ebf44b,Spanish,13 or older,"no, only English or Spanish",no,2025-07-24_08h09.00.465,empathy_intonation_perc_control,2024.2.4,Win32,59.88023952,67d09ba717ec412519ebf44b,68817205a84113384fffdfe3,688222212e409664af119d63,,,,,,,,,,,,,0,,,,,,,,,,,,,,,,,,,,,,,,,,,,,,,,,,,,,82,empirador,,,,,326.3289,328.7246,0,1,1.8505,,0,18,18,81,1,REAL,FAKE,,,,,,,,,,,,,,,,,
,,,,,,,,,67d09ba717ec412519ebf44b,Spanish,13 or older,"no, only English or Spanish",no,2025-07-24_08h09.00.465,empathy_intonation_perc_control,2024.2.4,Win32,59.88023952,67d09ba717ec412519ebf44b,68817205a84113384fffdfe3,688222212e409664af119d63,,,,,,,,,,,,,1,,,,,,,,,,,,,,,,,,,,,,,,,,,,,,,,,,,,,55,nevar,,,,,328.7266,330.5741,0,0,1.3026,,0,19,19,54,1,REAL,FAKE,,,,,,,,,,,,,,,,,
,,,,,,,,,67d09ba717ec412519ebf44b,Spanish,13 or older,"no, only English or Spanish",no,2025-07-24_08h09.00.465,empathy_intonation_perc_control,2024.2.4,Win32,59.88023952,67d09ba717ec412519ebf44b,68817205a84113384fffdfe3,688222212e409664af119d63,,,,,,,,,,,,,1,,,,,,,,,,,,,,,,,,,,,,,,,,,,,,,,,,,,,15,regar,,,,,330.5763,331.9075,0,0,0.7909,,0,20,20,14,1,REAL,FAKE,,,,,,,,,,,,,,,,,
,,,,,,,,,67d09ba717ec412519ebf44b,Spanish,13 or older,"no, only English or Spanish",no,2025-07-24_08h09.00.465,empathy_intonation_perc_control,2024.2.4,Win32,59.88023952,67d09ba717ec412519ebf44b,68817205a84113384fffdfe3,688222212e409664af119d63,,,,,,,,,,,,,1,,,,,,,,,,,,,,,,,,,,,,,,,,,,,,,,,,,,,3,pulmones,,,,,331.9095,333.8067,0,0,1.3549,,0,21,21,2,1,REAL,FAKE,,,,,,,,,,,,,,,,,
,,,,,,,,,67d09ba717ec412519ebf44b,Spanish,13 or older,"no, only English or Spanish",no,2025-07-24_08h09.00.465,empathy_intonation_perc_control,2024.2.4,Win32,59.88023952,67d09ba717ec412519ebf44b,68817205a84113384fffdfe3,688222212e409664af119d63,,,,,,,,,,,,,1,,,,,,,,,,,,,,,,,,,,,,,,,,,,,,,,,,,,,2,pellizcar,,,,,333.8088,335.2896,0,0,0.9353,,0,22,22,1,1,REAL,FAKE,,,,,,,,,,,,,,,,,
,,,,,,,,,67d09ba717ec412519ebf44b,Spanish,13 or older,"no, only English or Spanish",no,2025-07-24_08h09.00.465,empathy_intonation_perc_control,2024.2.4,Win32,59.88023952,67d09ba717ec412519ebf44b,68817205a84113384fffdfe3,688222212e409664af119d63,,,,,,,,,,,,,0,,,,,,,,,,,,,,,,,,,,,,,,,,,,,,,,,,,,,87,grodo,,,,,335.2915,337.0886,1,0,1.2543,,0,23,23,86,1,REAL,FAKE,,,,,,,,,,,,,,,,,
,,,,,,,,,67d09ba717ec412519ebf44b,Spanish,13 or older,"no, only English or Spanish",no,2025-07-24_08h09.00.465,empathy_intonation_perc_control,2024.2.4,Win32,59.88023952,67d09ba717ec412519ebf44b,68817205a84113384fffdfe3,688222212e409664af119d63,,,,,,,,,,,,,1,,,,,,,,,,,,,,,,,,,,,,,,,,,,,,,,,,,,,68,alegre,,,,,337.0907,339.0052,1,1,1.3703,,0,24,24,67,1,REAL,FAKE,,,,,,,,,,,,,,,,,
,,,,,,,,,67d09ba717ec412519ebf44b,Spanish,13 or older,"no, only English or Spanish",no,2025-07-24_08h09.00.465,empathy_intonation_perc_control,2024.2.4,Win32,59.88023952,67d09ba717ec412519ebf44b,68817205a84113384fffdfe3,688222212e409664af119d63,,,,,,,,,,,,,0,,,,,,,,,,,,,,,,,,,,,,,,,,,,,,,,,,,,,4,batillón,,,,,339.0086,341.3378,0,1,1.7844,,0,25,25,3,1,REAL,FAKE,,,,,,,,,,,,,,,,,
,,,,,,,,,67d09ba717ec412519ebf44b,Spanish,13 or older,"no, only English or Spanish",no,2025-07-24_08h09.00.465,empathy_intonation_perc_control,2024.2.4,Win32,59.88023952,67d09ba717ec412519ebf44b,68817205a84113384fffdfe3,688222212e409664af119d63,,,,,,,,,,,,,1,,,,,,,,,,,,,,,,,,,,,,,,,,,,,,,,,,,,,78,frondoso,,,,,341.3397,342.571,0,0,0.6905,,0,26,26,77,1,REAL,FAKE,,,,,,,,,,,,,,,,,
,,,,,,,,,67d09ba717ec412519ebf44b,Spanish,13 or older,"no, only English or Spanish",no,2025-07-24_08h09.00.465,empathy_intonation_perc_control,2024.2.4,Win32,59.88023952,67d09ba717ec412519ebf44b,68817205a84113384fffdfe3,688222212e409664af119d63,,,,,,,,,,,,,1,,,,,,,,,,,,,,,,,,,,,,,,,,,,,,,,,,,,,60,matar,,,,,342.573,343.7037,0,0,0.5954,,0,27,27,59,1,REAL,FAKE,,,,,,,,,,,,,,,,,
,,,,,,,,,67d09ba717ec412519ebf44b,Spanish,13 or older,"no, only English or Spanish",no,2025-07-24_08h09.00.465,empathy_intonation_perc_control,2024.2.4,Win32,59.88023952,67d09ba717ec412519ebf44b,68817205a84113384fffdfe3,688222212e409664af119d63,,,,,,,,,,,,,1,,,,,,,,,,,,,,,,,,,,,,,,,,,,,,,,,,,,,49,ganar,,,,,343.7059,344.8204,0,0,0.5693,,0,28,28,48,1,REAL,FAKE,,,,,,,,,,,,,,,,,
,,,,,,,,,67d09ba717ec412519ebf44b,Spanish,13 or older,"no, only English or Spanish",no,2025-07-24_08h09.00.465,empathy_intonation_perc_control,2024.2.4,Win32,59.88023952,67d09ba717ec412519ebf44b,68817205a84113384fffdfe3,688222212e409664af119d63,,,,,,,,,,,,,0,,,,,,,,,,,,,,,,,,,,,,,,,,,,,,,,,,,,,84,escuto,,,,,344.8222,346.4867,1,0,1.1264,,0,29,29,83,1,REAL,FAKE,,,,,,,,,,,,,,,,,
,,,,,,,,,67d09ba717ec412519ebf44b,Spanish,13 or older,"no, only English or Spanish",no,2025-07-24_08h09.00.465,empathy_intonation_perc_control,2024.2.4,Win32,59.88023952,67d09ba717ec412519ebf44b,68817205a84113384fffdfe3,688222212e409664af119d63,,,,,,,,,,,,,0,,,,,,,,,,,,,,,,,,,,,,,,,,,,,,,,,,,,,10,antar,,,,,346.4886,347.6695,0,1,0.638,,0,30,30,9,1,REAL,FAKE,,,,,,,,,,,,,,,,,
,,,,,,,,,67d09ba717ec412519ebf44b,Spanish,13 or older,"no, only English or Spanish",no,2025-07-24_08h09.00.465,empathy_intonation_perc_control,2024.2.4,Win32,59.88023952,67d09ba717ec412519ebf44b,68817205a84113384fffdfe3,688222212e409664af119d63,,,,,,,,,,,,,0,,,,,,,,,,,,,,,,,,,,,,,,,,,,,,,,,,,,,1,terzo,,,,,347.6713,348.9858,0,1,0.7715,,0,31,31,0,1,REAL,FAKE,,,,,,,,,,,,,,,,,
,,,,,,,,,67d09ba717ec412519ebf44b,Spanish,13 or older,"no, only English or Spanish",no,2025-07-24_08h09.00.465,empathy_intonation_perc_control,2024.2.4,Win32,59.88023952,67d09ba717ec412519ebf44b,68817205a84113384fffdfe3,688222212e409664af119d63,,,,,,,,,,,,,1,,,,,,,,,,,,,,,,,,,,,,,,,,,,,,,,,,,,,67,cabello,,,,,348.9879,350.7348,1,1,1.2035,,0,32,32,66,1,REAL,FAKE,,,,,,,,,,,,,,,,,
,,,,,,,,,67d09ba717ec412519ebf44b,Spanish,13 or older,"no, only English or Spanish",no,2025-07-24_08h09.00.465,empathy_intonation_perc_control,2024.2.4,Win32,59.88023952,67d09ba717ec412519ebf44b,68817205a84113384fffdfe3,688222212e409664af119d63,,,,,,,,,,,,,0,,,,,,,,,,,,,,,,,,,,,,,,,,,,,,,,,,,,,21,capillo,,,,,350.7368,352.9673,1,0,1.6946,,0,33,33,20,1,REAL,FAKE,,,,,,,,,,,,,,,,,
,,,,,,,,,67d09ba717ec412519ebf44b,Spanish,13 or older,"no, only English or Spanish",no,2025-07-24_08h09.00.465,empathy_intonation_perc_control,2024.2.4,Win32,59.88023952,67d09ba717ec412519ebf44b,68817205a84113384fffdfe3,688222212e409664af119d63,,,,,,,,,,,,,0,,,,,,,,,,,,,,,,,,,,,,,,,,,,,,,,,,,,,19,brecedad,,,,,352.9698,354.3056,0,1,0.8001,,0,34,34,18,1,REAL,FAKE,,,,,,,,,,,,,,,,,
,,,,,,,,,67d09ba717ec412519ebf44b,Spanish,13 or older,"no, only English or Spanish",no,2025-07-24_08h09.00.465,empathy_intonation_perc_control,2024.2.4,Win32,59.88023952,67d09ba717ec412519ebf44b,68817205a84113384fffdfe3,688222212e409664af119d63,,,,,,,,,,,,,1,,,,,,,,,,,,,,,,,,,,,,,,,,,,,,,,,,,,,12,asesinato,,,,,354.3069,355.6507,0,0,0.8,,0,35,35,11,1,REAL,FAKE,,,,,,,,,,,,,,,,,
,,,,,,,,,67d09ba717ec412519ebf44b,Spanish,13 or older,"no, only English or Spanish",no,2025-07-24_08h09.00.465,empathy_intonation_perc_control,2024.2.4,Win32,59.88023952,67d09ba717ec412519ebf44b,68817205a84113384fffdfe3,688222212e409664af119d63,,,,,,,,,,,,,1,,,,,,,,,,,,,,,,,,,,,,,,,,,,,,,,,,,,,5,zapato,,,,,355.6524,357.6497,0,0,1.4516,,0,36,36,4,1,REAL,FAKE,,,,,,,,,,,,,,,,,
,,,,,,,,,67d09ba717ec412519ebf44b,Spanish,13 or older,"no, only English or Spanish",no,2025-07-24_08h09.00.465,empathy_intonation_perc_control,2024.2.4,Win32,59.88023952,67d09ba717ec412519ebf44b,68817205a84113384fffdfe3,688222212e409664af119d63,,,,,,,,,,,,,1,,,,,,,,,,,,,,,,,,,,,,,,,,,,,,,,,,,,,9,hacha,,,,,357.652,360.0326,0,0,1.8377,,0,37,37,8,1,REAL,FAKE,,,,,,,,,,,,,,,,,
,,,,,,,,,67d09ba717ec412519ebf44b,Spanish,13 or older,"no, only English or Spanish",no,2025-07-24_08h09.00.465,empathy_intonation_perc_control,2024.2.4,Win32,59.88023952,67d09ba717ec412519ebf44b,68817205a84113384fffdfe3,688222212e409664af119d63,,,,,,,,,,,,,0,,,,,,,,,,,,,,,,,,,,,,,,,,,,,,,,,,,,,27,acutación,,,,,360.0345,362.5318,0,1,1.9578,,0,38,38,26,1,REAL,FAKE,,,,,,,,,,,,,,,,,
,,,,,,,,,67d09ba717ec412519ebf44b,Spanish,13 or older,"no, only English or Spanish",no,2025-07-24_08h09.00.465,empathy_intonation_perc_control,2024.2.4,Win32,59.88023952,67d09ba717ec412519ebf44b,68817205a84113384fffdfe3,688222212e409664af119d63,,,,,,,,,,,,,1,,,,,,,,,,,,,,,,,,,,,,,,,,,,,,,,,,,,,45,jilguero,,,,,362.5338,363.7481,0,0,0.6714,,0,39,39,44,1,REAL,FAKE,,,,,,,,,,,,,,,,,
,,,,,,,,,67d09ba717ec412519ebf44b,Spanish,13 or older,"no, only English or Spanish",no,2025-07-24_08h09.00.465,empathy_intonation_perc_control,2024.2.4,Win32,59.88023952,67d09ba717ec412519ebf44b,68817205a84113384fffdfe3,688222212e409664af119d63,,,,,,,,,,,,,1,,,,,,,,,,,,,,,,,,,,,,,,,,,,,,,,,,,,,59,besar,,,,,363.7501,364.948,0,0,0.6591,,0,40,40,58,1,REAL,FAKE,,,,,,,,,,,,,,,,,
,,,,,,,,,67d09ba717ec412519ebf44b,Spanish,13 or older,"no, only English or Spanish",no,2025-07-24_08h09.00.465,empathy_intonation_perc_control,2024.2.4,Win32,59.88023952,67d09ba717ec412519ebf44b,68817205a84113384fffdfe3,688222212e409664af119d63,,,,,,,,,,,,,1,,,,,,,,,,,,,,,,,,,,,,,,,,,,,,,,,,,,,91,click the 1 key.,,,,,364.9506,366.3804,1,1,0.8951,,0,41,41,90,1,REAL,FAKE,,,,,,,,,,,,,,,,,
,,,,,,,,,67d09ba717ec412519ebf44b,Spanish,13 or older,"no, only English or Spanish",no,2025-07-24_08h09.00.465,empathy_intonation_perc_control,2024.2.4,Win32,59.88023952,67d09ba717ec412519ebf44b,68817205a84113384fffdfe3,688222212e409664af119d63,,,,,,,,,,,,,1,,,,,,,,,,,,,,,,,,,,,,,,,,,,,,,,,,,,,57,tacaño,,,,,366.3826,368.5641,1,1,1.6353,,0,42,42,56,1,REAL,FAKE,,,,,,,,,,,,,,,,,
,,,,,,,,,67d09ba717ec412519ebf44b,Spanish,13 or older,"no, only English or Spanish",no,2025-07-24_08h09.00.465,empathy_intonation_perc_control,2024.2.4,Win32,59.88023952,67d09ba717ec412519ebf44b,68817205a84113384fffdfe3,688222212e409664af119d63,,,,,,,,,,,,,1,,,,,,,,,,,,,,,,,,,,,,,,,,,,,,,,,,,,,6,tergiversar,,,,,368.5661,371.5299,0,0,2.4238,,0,43,43,5,1,REAL,FAKE,,,,,,,,,,,,,,,,,
,,,,,,,,,67d09ba717ec412519ebf44b,Spanish,13 or older,"no, only English or Spanish",no,2025-07-24_08h09.00.465,empathy_intonation_perc_control,2024.2.4,Win32,59.88023952,67d09ba717ec412519ebf44b,68817205a84113384fffdfe3,688222212e409664af119d63,,,,,,,,,,,,,1,,,,,,,,,,,,,,,,,,,,,,,,,,,,,,,,,,,,,28,merodear,,,,,371.5316,373.4462,0,0,1.3691,,0,44,44,27,1,REAL,FAKE,,,,,,,,,,,,,,,,,
,,,,,,,,,67d09ba717ec412519ebf44b,Spanish,13 or older,"no, only English or Spanish",no,2025-07-24_08h09.00.465,empathy_intonation_perc_control,2024.2.4,Win32,59.88023952,67d09ba717ec412519ebf44b,68817205a84113384fffdfe3,688222212e409664af119d63,,,,,,,,,,,,,1,,,,,,,,,,,,,,,,,,,,,,,,,,,,,,,,,,,,,81,pozo,,,,,373.4491,374.7788,0,0,0.7938,,0,45,45,80,1,REAL,FAKE,,,,,,,,,,,,,,,,,
,,,,,,,,,67d09ba717ec412519ebf44b,Spanish,13 or older,"no, only English or Spanish",no,2025-07-24_08h09.00.465,empathy_intonation_perc_control,2024.2.4,Win32,59.88023952,67d09ba717ec412519ebf44b,68817205a84113384fffdfe3,688222212e409664af119d63,,,,,,,,,,,,,1,,,,,,,,,,,,,,,,,,,,,,,,,,,,,,,,,,,,,34,aviso,,,,,374.7809,376.2451,1,1,0.9265,,0,46,46,33,1,REAL,FAKE,,,,,,,,,,,,,,,,,
,,,,,,,,,67d09ba717ec412519ebf44b,Spanish,13 or older,"no, only English or Spanish",no,2025-07-24_08h09.00.465,empathy_intonation_perc_control,2024.2.4,Win32,59.88023952,67d09ba717ec412519ebf44b,68817205a84113384fffdfe3,688222212e409664af119d63,,,,,,,,,,,,,1,,,,,,,,,,,,,,,,,,,,,,,,,,,,,,,,,,,,,39,torpe,,,,,376.247,377.4779,0,0,0.6864,,0,47,47,38,1,REAL,FAKE,,,,,,,,,,,,,,,,,
,,,,,,,,,67d09ba717ec412519ebf44b,Spanish,13 or older,"no, only English or Spanish",no,2025-07-24_08h09.00.465,empathy_intonation_perc_control,2024.2.4,Win32,59.88023952,67d09ba717ec412519ebf44b,68817205a84113384fffdfe3,688222212e409664af119d63,,,,,,,,,,,,,1,,,,,,,,,,,,,,,,,,,,,,,,,,,,,,,,,,,,,46,martillo,,,,,377.4798,379.0611,0,0,1.0433,,0,48,48,45,1,REAL,FAKE,,,,,,,,,,,,,,,,,
,,,,,,,,,67d09ba717ec412519ebf44b,Spanish,13 or older,"no, only English or Spanish",no,2025-07-24_08h09.00.465,empathy_intonation_perc_control,2024.2.4,Win32,59.88023952,67d09ba717ec412519ebf44b,68817205a84113384fffdfe3,688222212e409664af119d63,,,,,,,,,,,,,1,,,,,,,,,,,,,,,,,,,,,,,,,,,,,,,,,,,,,83,guante,,,,,379.0628,380.5608,0,0,0.9594,,0,49,49,82,1,REAL,FAKE,,,,,,,,,,,,,,,,,
,,,,,,,,,67d09ba717ec412519ebf44b,Spanish,13 or older,"no, only English or Spanish",no,2025-07-24_08h09.00.465,empathy_intonation_perc_control,2024.2.4,Win32,59.88023952,67d09ba717ec412519ebf44b,68817205a84113384fffdfe3,688222212e409664af119d63,,,,,,,,,,,,,1,,,,,,,,,,,,,,,,,,,,,,,,,,,,,,,,,,,,,40,alfombra,,,,,380.5631,381.9269,0,0,0.8241,,0,50,50,39,1,REAL,FAKE,,,,,,,,,,,,,,,,,
,,,,,,,,,67d09ba717ec412519ebf44b,Spanish,13 or older,"no, only English or Spanish",no,2025-07-24_08h09.00.465,empathy_intonation_perc_control,2024.2.4,Win32,59.88023952,67d09ba717ec412519ebf44b,68817205a84113384fffdfe3,688222212e409664af119d63,,,,,,,,,,,,,1,,,,,,,,,,,,,,,,,,,,,,,,,,,,,,,,,,,,,22,lacayo,,,,,381.9292,383.16,0,0,0.6856,,0,51,51,21,1,REAL,FAKE,,,,,,,,,,,,,,,,,
,,,,,,,,,67d09ba717ec412519ebf44b,Spanish,13 or older,"no, only English or Spanish",no,2025-07-24_08h09.00.465,empathy_intonation_perc_control,2024.2.4,Win32,59.88023952,67d09ba717ec412519ebf44b,68817205a84113384fffdfe3,688222212e409664af119d63,,,,,,,,,,,,,1,,,,,,,,,,,,,,,,,,,,,,,,,,,,,,,,,,,,,85,laúd,,,,,383.1622,384.5427,0,0,0.8388,,0,52,52,84,1,REAL,FAKE,,,,,,,,,,,,,,,,,
,,,,,,,,,67d09ba717ec412519ebf44b,Spanish,13 or older,"no, only English or Spanish",no,2025-07-24_08h09.00.465,empathy_intonation_perc_control,2024.2.4,Win32,59.88023952,67d09ba717ec412519ebf44b,68817205a84113384fffdfe3,688222212e409664af119d63,,,,,,,,,,,,,1,,,,,,,,,,,,,,,,,,,,,,,,,,,,,,,,,,,,,86,barato,,,,,384.5447,386.0425,0,0,0.9553,,0,53,53,85,1,REAL,FAKE,,,,,,,,,,,,,,,,,
,,,,,,,,,67d09ba717ec412519ebf44b,Spanish,13 or older,"no, only English or Spanish",no,2025-07-24_08h09.00.465,empathy_intonation_perc_control,2024.2.4,Win32,59.88023952,67d09ba717ec412519ebf44b,68817205a84113384fffdfe3,688222212e409664af119d63,,,,,,,,,,,,,0,,,,,,,,,,,,,,,,,,,,,,,,,,,,,,,,,,,,,70,temblo,,,,,386.0441,387.6085,0,1,1.0216,,0,54,54,69,1,REAL,FAKE,,,,,,,,,,,,,,,,,
,,,,,,,,,67d09ba717ec412519ebf44b,Spanish,13 or older,"no, only English or Spanish",no,2025-07-24_08h09.00.465,empathy_intonation_perc_control,2024.2.4,Win32,59.88023952,67d09ba717ec412519ebf44b,68817205a84113384fffdfe3,688222212e409664af119d63,,,,,,,,,,,,,0,,,,,,,,,,,,,,,,,,,,,,,,,,,,,,,,,,,,,79,tropaje,,,,,387.6103,389.2084,0,1,1.0603,,0,55,55,78,1,REAL,FAKE,,,,,,,,,,,,,,,,,
,,,,,,,,,67d09ba717ec412519ebf44b,Spanish,13 or older,"no, only English or Spanish",no,2025-07-24_08h09.00.465,empathy_intonation_perc_control,2024.2.4,Win32,59.88023952,67d09ba717ec412519ebf44b,68817205a84113384fffdfe3,688222212e409664af119d63,,,,,,,,,,,,,1,,,,,,,,,,,,,,,,,,,,,,,,,,,,,,,,,,,,,65,bizcocho,,,,,389.2107,390.541,0,0,0.7847,,0,56,56,64,1,REAL,FAKE,,,,,,,,,,,,,,,,,
,,,,,,,,,67d09ba717ec412519ebf44b,Spanish,13 or older,"no, only English or Spanish",no,2025-07-24_08h09.00.465,empathy_intonation_perc_control,2024.2.4,Win32,59.88023952,67d09ba717ec412519ebf44b,68817205a84113384fffdfe3,688222212e409664af119d63,,,,,,,,,,,,,1,,,,,,,,,,,,,,,,,,,,,,,,,,,,,,,,,,,,,43,canela,,,,,390.543,392.2572,1,1,1.1689,,0,57,57,42,1,REAL,FAKE,,,,,,,,,,,,,,,,,
,,,,,,,,,67d09ba717ec412519ebf44b,Spanish,13 or older,"no, only English or Spanish",no,2025-07-24_08h09.00.465,empathy_intonation_perc_control,2024.2.4,Win32,59.88023952,67d09ba717ec412519ebf44b,68817205a84113384fffdfe3,688222212e409664af119d63,,,,,,,,,,,,,1,,,,,,,,,,,,,,,,,,,,,,,,,,,,,,,,,,,,,80,hormiga,,,,,392.2592,393.6071,0,0,0.8028,,0,58,58,79,1,REAL,FAKE,,,,,,,,,,,,,,,,,
,,,,,,,,,67d09ba717ec412519ebf44b,Spanish,13 or older,"no, only English or Spanish",no,2025-07-24_08h09.00.465,empathy_intonation_perc_control,2024.2.4,Win32,59.88023952,67d09ba717ec412519ebf44b,68817205a84113384fffdfe3,688222212e409664af119d63,,,,,,,,,,,,,0,,,,,,,,,,,,,,,,,,,,,,,,,,,,,,,,,,,,,53,vegada,,,,,393.6099,395.7065,1,0,1.552,,0,59,59,52,1,REAL,FAKE,,,,,,,,,,,,,,,,,
,,,,,,,,,67d09ba717ec412519ebf44b,Spanish,13 or older,"no, only English or Spanish",no,2025-07-24_08h09.00.465,empathy_intonation_perc_control,2024.2.4,Win32,59.88023952,67d09ba717ec412519ebf44b,68817205a84113384fffdfe3,688222212e409664af119d63,,,,,,,,,,,,,1,,,,,,,,,,,,,,,,,,,,,,,,,,,,,,,,,,,,,31,pandilla,,,,,395.7089,397.0886,1,1,0.8444,,0,60,60,30,1,REAL,FAKE,,,,,,,,,,,,,,,,,
,,,,,,,,,67d09ba717ec412519ebf44b,Spanish,13 or older,"no, only English or Spanish",no,2025-07-24_08h09.00.465,empathy_intonation_perc_control,2024.2.4,Win32,59.88023952,67d09ba717ec412519ebf44b,68817205a84113384fffdfe3,688222212e409664af119d63,,,,,,,,,,,,,0,,,,,,,,,,,,,,,,,,,,,,,,,,,,,,,,,,,,,35,rompido,,,,,397.0907,398.9386,0,1,1.3055,,0,61,61,34,1,REAL,FAKE,,,,,,,,,,,,,,,,,
,,,,,,,,,67d09ba717ec412519ebf44b,Spanish,13 or older,"no, only English or Spanish",no,2025-07-24_08h09.00.465,empathy_intonation_perc_control,2024.2.4,Win32,59.88023952,67d09ba717ec412519ebf44b,68817205a84113384fffdfe3,688222212e409664af119d63,,,,,,,,,,,,,1,,,,,,,,,,,,,,,,,,,,,,,,,,,,,,,,,,,,,73,hervidor,,,,,398.9404,400.3884,0,0,0.9074,,0,62,62,72,1,REAL,FAKE,,,,,,,,,,,,,,,,,
,,,,,,,,,67d09ba717ec412519ebf44b,Spanish,13 or older,"no, only English or Spanish",no,2025-07-24_08h09.00.465,empathy_intonation_perc_control,2024.2.4,Win32,59.88023952,67d09ba717ec412519ebf44b,68817205a84113384fffdfe3,688222212e409664af119d63,,,,,,,,,,,,,1,,,,,,,,,,,,,,,,,,,,,,,,,,,,,,,,,,,,,75,yacer,,,,,400.3901,401.4715,0,0,0.5382,,0,63,63,74,1,REAL,FAKE,,,,,,,,,,,,,,,,,
,,,,,,,,,67d09ba717ec412519ebf44b,Spanish,13 or older,"no, only English or Spanish",no,2025-07-24_08h09.00.465,empathy_intonation_perc_control,2024.2.4,Win32,59.88023952,67d09ba717ec412519ebf44b,68817205a84113384fffdfe3,688222212e409664af119d63,,,,,,,,,,,,,0,,,,,,,,,,,,,,,,,,,,,,,,,,,,,,,,,,,,,72,pemición,,,,,401.4732,402.9045,0,1,0.8943,,0,64,64,71,1,REAL,FAKE,,,,,,,,,,,,,,,,,
,,,,,,,,,67d09ba717ec412519ebf44b,Spanish,13 or older,"no, only English or Spanish",no,2025-07-24_08h09.00.465,empathy_intonation_perc_control,2024.2.4,Win32,59.88023952,67d09ba717ec412519ebf44b,68817205a84113384fffdfe3,688222212e409664af119d63,,,,,,,,,,,,,1,,,,,,,,,,,,,,,,,,,,,,,,,,,,,,,,,,,,,62,flaco,,,,,402.9066,404.2713,0,0,0.8206,,0,65,65,61,1,REAL,FAKE,,,,,,,,,,,,,,,,,
,,,,,,,,,67d09ba717ec412519ebf44b,Spanish,13 or older,"no, only English or Spanish",no,2025-07-24_08h09.00.465,empathy_intonation_perc_control,2024.2.4,Win32,59.88023952,67d09ba717ec412519ebf44b,68817205a84113384fffdfe3,688222212e409664af119d63,,,,,,,,,,,,,0,,,,,,,,,,,,,,,,,,,,,,,,,,,,,,,,,,,,,16,abracer,,,,,404.2735,405.7699,0,1,0.9599,,0,66,66,15,1,REAL,FAKE,,,,,,,,,,,,,,,,,
,,,,,,,,,67d09ba717ec412519ebf44b,Spanish,13 or older,"no, only English or Spanish",no,2025-07-24_08h09.00.465,empathy_intonation_perc_control,2024.2.4,Win32,59.88023952,67d09ba717ec412519ebf44b,68817205a84113384fffdfe3,688222212e409664af119d63,,,,,,,,,,,,,0,,,,,,,,,,,,,,,,,,,,,,,,,,,,,,,,,,,,,30,alardio,,,,,405.7718,407.4699,1,0,1.1514,,0,67,67,29,1,REAL,FAKE,,,,,,,,,,,,,,,,,
,,,,,,,,,67d09ba717ec412519ebf44b,Spanish,13 or older,"no, only English or Spanish",no,2025-07-24_08h09.00.465,empathy_intonation_perc_control,2024.2.4,Win32,59.88023952,67d09ba717ec412519ebf44b,68817205a84113384fffdfe3,688222212e409664af119d63,,,,,,,,,,,,,0,,,,,,,,,,,,,,,,,,,,,,,,,,,,,,,,,,,,,63,esposante,,,,,407.4718,409.5856,0,1,1.5666,,0,68,68,62,1,REAL,FAKE,,,,,,,,,,,,,,,,,
,,,,,,,,,67d09ba717ec412519ebf44b,Spanish,13 or older,"no, only English or Spanish",no,2025-07-24_08h09.00.465,empathy_intonation_perc_control,2024.2.4,Win32,59.88023952,67d09ba717ec412519ebf44b,68817205a84113384fffdfe3,688222212e409664af119d63,,,,,,,,,,,,,1,,,,,,,,,,,,,,,,,,,,,,,,,,,,,,,,,,,,,71,polvoriento,,,,,409.5876,410.8019,0,0,0.6738,,0,69,69,70,1,REAL,FAKE,,,,,,,,,,,,,,,,,
,,,,,,,,,67d09ba717ec412519ebf44b,Spanish,13 or older,"no, only English or Spanish",no,2025-07-24_08h09.00.465,empathy_intonation_perc_control,2024.2.4,Win32,59.88023952,67d09ba717ec412519ebf44b,68817205a84113384fffdfe3,688222212e409664af119d63,,,,,,,,,,,,,1,,,,,,,,,,,,,,,,,,,,,,,,,,,,,,,,,,,,,24,látigo,,,,,410.804,412.5185,1,1,1.1685,,0,70,70,23,1,REAL,FAKE,,,,,,,,,,,,,,,,,
,,,,,,,,,67d09ba717ec412519ebf44b,Spanish,13 or older,"no, only English or Spanish",no,2025-07-24_08h09.00.465,empathy_intonation_perc_control,2024.2.4,Win32,59.88023952,67d09ba717ec412519ebf44b,68817205a84113384fffdfe3,688222212e409664af119d63,,,,,,,,,,,,,1,,,,,,,,,,,,,,,,,,,,,,,,,,,,,,,,,,,,,56,musgo,,,,,412.5205,413.685,0,0,0.6183,,0,71,71,55,1,REAL,FAKE,,,,,,,,,,,,,,,,,
,,,,,,,,,67d09ba717ec412519ebf44b,Spanish,13 or older,"no, only English or Spanish",no,2025-07-24_08h09.00.465,empathy_intonation_perc_control,2024.2.4,Win32,59.88023952,67d09ba717ec412519ebf44b,68817205a84113384fffdfe3,688222212e409664af119d63,,,,,,,,,,,,,1,,,,,,,,,,,,,,,,,,,,,,,,,,,,,,,,,,,,,77,tiburón,,,,,413.6869,415.1678,0,0,0.9395,,0,72,72,76,1,REAL,FAKE,,,,,,,,,,,,,,,,,
,,,,,,,,,67d09ba717ec412519ebf44b,Spanish,13 or older,"no, only English or Spanish",no,2025-07-24_08h09.00.465,empathy_intonation_perc_control,2024.2.4,Win32,59.88023952,67d09ba717ec412519ebf44b,68817205a84113384fffdfe3,688222212e409664af119d63,,,,,,,,,,,,,0,,,,,,,,,,,,,,,,,,,,,,,,,,,,,,,,,,,,,23,lampera,,,,,415.1702,416.667,1,0,0.9581,,0,73,73,22,1,REAL,FAKE,,,,,,,,,,,,,,,,,
,,,,,,,,,67d09ba717ec412519ebf44b,Spanish,13 or older,"no, only English or Spanish",no,2025-07-24_08h09.00.465,empathy_intonation_perc_control,2024.2.4,Win32,59.88023952,67d09ba717ec412519ebf44b,68817205a84113384fffdfe3,688222212e409664af119d63,,,,,,,,,,,,,1,,,,,,,,,,,,,,,,,,,,,,,,,,,,,,,,,,,,,44,cuchara,,,,,416.6687,418.3,0,0,1.0852,,0,74,74,43,1,REAL,FAKE,,,,,,,,,,,,,,,,,
,,,,,,,,,67d09ba717ec412519ebf44b,Spanish,13 or older,"no, only English or Spanish",no,2025-07-24_08h09.00.465,empathy_intonation_perc_control,2024.2.4,Win32,59.88023952,67d09ba717ec412519ebf44b,68817205a84113384fffdfe3,688222212e409664af119d63,,,,,,,,,,,,,0,,,,,,,,,,,,,,,,,,,,,,,,,,,,,,,,,,,,,47,cartinar,,,,,418.3018,420.0331,0,1,1.1866,,0,75,75,46,1,REAL,FAKE,,,,,,,,,,,,,,,,,
,,,,,,,,,67d09ba717ec412519ebf44b,Spanish,13 or older,"no, only English or Spanish",no,2025-07-24_08h09.00.465,empathy_intonation_perc_control,2024.2.4,Win32,59.88023952,67d09ba717ec412519ebf44b,68817205a84113384fffdfe3,688222212e409664af119d63,,,,,,,,,,,,,0,,,,,,,,,,,,,,,,,,,,,,,,,,,,,,,,,,,,,29,decar,,,,,420.0352,421.649,0,1,1.0736,,0,76,76,28,1,REAL,FAKE,,,,,,,,,,,,,,,,,
,,,,,,,,,67d09ba717ec412519ebf44b,Spanish,13 or older,"no, only English or Spanish",no,2025-07-24_08h09.00.465,empathy_intonation_perc_control,2024.2.4,Win32,59.88023952,67d09ba717ec412519ebf44b,68817205a84113384fffdfe3,688222212e409664af119d63,,,,,,,,,,,,,1,,,,,,,,,,,,,,,,,,,,,,,,,,,,,,,,,,,,,54,fomentar,,,,,421.6508,422.8987,0,0,0.7034,,0,77,77,53,1,REAL,FAKE,,,,,,,,,,,,,,,,,
,,,,,,,,,67d09ba717ec412519ebf44b,Spanish,13 or older,"no, only English or Spanish",no,2025-07-24_08h09.00.465,empathy_intonation_perc_control,2024.2.4,Win32,59.88023952,67d09ba717ec412519ebf44b,68817205a84113384fffdfe3,688222212e409664af119d63,,,,,,,,,,,,,0,,,,,,,,,,,,,,,,,,,,,,,,,,,,,,,,,,,,,32,fatacidad,,,,,422.9007,424.2319,0,1,0.7849,,0,78,78,31,1,REAL,FAKE,,,,,,,,,,,,,,,,,
,,,,,,,,,67d09ba717ec412519ebf44b,Spanish,13 or older,"no, only English or Spanish",no,2025-07-24_08h09.00.465,empathy_intonation_perc_control,2024.2.4,Win32,59.88023952,67d09ba717ec412519ebf44b,68817205a84113384fffdfe3,688222212e409664af119d63,,,,,,,,,,,,,1,,,,,,,,,,,,,,,,,,,,,,,,,,,,,,,,,,,,,64,orgulloso,,,,,424.2347,425.4816,0,0,0.7064,,0,79,79,63,1,REAL,FAKE,,,,,,,,,,,,,,,,,
,,,,,,,,,67d09ba717ec412519ebf44b,Spanish,13 or older,"no, only English or Spanish",no,2025-07-24_08h09.00.465,empathy_intonation_perc_control,2024.2.4,Win32,59.88023952,67d09ba717ec412519ebf44b,68817205a84113384fffdfe3,688222212e409664af119d63,,,,,,,,,,,,,1,,,,,,,,,,,,,,,,,,,,,,,,,,,,,,,,,,,,,48,ladrón,,,,,425.4833,427.0143,0,0,0.9921,,0,80,80,47,1,REAL,FAKE,,,,,,,,,,,,,,,,,
,,,,,,,,,67d09ba717ec412519ebf44b,Spanish,13 or older,"no, only English or Spanish",no,2025-07-24_08h09.00.465,empathy_intonation_perc_control,2024.2.4,Win32,59.88023952,67d09ba717ec412519ebf44b,68817205a84113384fffdfe3,688222212e409664af119d63,,,,,,,,,,,,,1,,,,,,,,,,,,,,,,,,,,,,,,,,,,,,,,,,,,,76,atar,,,,,427.0161,428.3969,1,1,0.8387,,0,81,81,75,1,REAL,FAKE,,,,,,,,,,,,,,,,,
,,,,,,,,,67d09ba717ec412519ebf44b,Spanish,13 or older,"no, only English or Spanish",no,2025-07-24_08h09.00.465,empathy_intonation_perc_control,2024.2.4,Win32,59.88023952,67d09ba717ec412519ebf44b,68817205a84113384fffdfe3,688222212e409664af119d63,,,,,,,,,,,,,0,,,,,,,,,,,,,,,,,,,,,,,,,,,,,,,,,,,,,18,arsa,,,,,428.399,430.1967,0,1,1.2576,,0,82,82,17,1,REAL,FAKE,,,,,,,,,,,,,,,,,
,,,,,,,,,67d09ba717ec412519ebf44b,Spanish,13 or older,"no, only English or Spanish",no,2025-07-24_08h09.00.465,empathy_intonation_perc_control,2024.2.4,Win32,59.88023952,67d09ba717ec412519ebf44b,68817205a84113384fffdfe3,688222212e409664af119d63,,,,,,,,,,,,,1,,,,,,,,,,,,,,,,,,,,,,,,,,,,,,,,,,,,,26,secuestro,,,,,430.1986,431.712,1,1,0.978,,0,83,83,25,1,REAL,FAKE,,,,,,,,,,,,,,,,,
,,,,,,,,,67d09ba717ec412519ebf44b,Spanish,13 or older,"no, only English or Spanish",no,2025-07-24_08h09.00.465,empathy_intonation_perc_control,2024.2.4,Win32,59.88023952,67d09ba717ec412519ebf44b,68817205a84113384fffdfe3,688222212e409664af119d63,,,,,,,,,,,,,0,,,,,,,,,,,,,,,,,,,,,,,,,,,,,,,,,,,,,66,hacido,,,,,431.7147,433.1287,1,0,0.8715,,0,84,84,65,1,REAL,FAKE,,,,,,,,,,,,,,,,,
,,,,,,,,,67d09ba717ec412519ebf44b,Spanish,13 or older,"no, only English or Spanish",no,2025-07-24_08h09.00.465,empathy_intonation_perc_control,2024.2.4,Win32,59.88023952,67d09ba717ec412519ebf44b,68817205a84113384fffdfe3,688222212e409664af119d63,,,,,,,,,,,,,0,,,,,,,,,,,,,,,,,,,,,,,,,,,,,,,,,,,,,33,pauca,,,,,433.1307,434.2952,0,1,0.6206,,0,85,85,32,1,REAL,FAKE,,,,,,,,,,,,,,,,,
,,,,,,,,,67d09ba717ec412519ebf44b,Spanish,13 or older,"no, only English or Spanish",no,2025-07-24_08h09.00.465,empathy_intonation_perc_control,2024.2.4,Win32,59.88023952,67d09ba717ec412519ebf44b,68817205a84113384fffdfe3,688222212e409664af119d63,,,,,,,,,,,,,1,,,,,,,,,,,,,,,,,,,,,,,,,,,,,,,,,,,,,88,acantilado,,,,,434.2977,436.0451,1,1,1.206,,0,86,86,87,1,REAL,FAKE,,,,,,,,,,,,,,,,,
,,,,,,,,,67d09ba717ec412519ebf44b,Spanish,13 or older,"no, only English or Spanish",no,2025-07-24_08h09.00.465,empathy_intonation_perc_control,2024.2.4,Win32,59.88023952,67d09ba717ec412519ebf44b,68817205a84113384fffdfe3,688222212e409664af119d63,,,,,,,,,,,,,0,,,,,,,,,,,,,,,,,,,,,,,,,,,,,,,,,,,,,58,plaudir,,,,,436.0472,437.3115,0,1,0.7261,,0,87,87,57,1,REAL,FAKE,,,,,,,,,,,,,,,,,
,,,,,,,,,67d09ba717ec412519ebf44b,Spanish,13 or older,"no, only English or Spanish",no,2025-07-24_08h09.00.465,empathy_intonation_perc_control,2024.2.4,Win32,59.88023952,67d09ba717ec412519ebf44b,68817205a84113384fffdfe3,688222212e409664af119d63,,,,,,,,,,,,,1,,,,,,,,,,,,,,,,,,,,,,,,,,,,,,,,,,,,,89,prisa,,,,,437.3138,438.7274,1,1,0.8771,,0,88,88,88,1,REAL,FAKE,,,,,,,,,,,,,,,,,
,,,,,,,,,67d09ba717ec412519ebf44b,Spanish,13 or older,"no, only English or Spanish",no,2025-07-24_08h09.00.465,empathy_intonation_perc_control,2024.2.4,Win32,59.88023952,67d09ba717ec412519ebf44b,68817205a84113384fffdfe3,688222212e409664af119d63,,,,,,,,,,,,,0,,,,,,,,,,,,,,,,,,,,,,,,,,,,,,,,,,,,,50,flamida,,,,,438.7296,439.8773,0,1,0.6073,,0,89,89,49,1,REAL,FAKE,,,,,,,,,,,,,,,,,
,,,,,,,,,67d09ba717ec412519ebf44b,Spanish,13 or older,"no, only English or Spanish",no,2025-07-24_08h09.00.465,empathy_intonation_perc_control,2024.2.4,Win32,59.88023952,67d09ba717ec412519ebf44b,68817205a84113384fffdfe3,688222212e409664af119d63,,,,,,,,,,,,,0,,,,,,,,,,,,,,,,,,,,,,,,,,,,,,,,,,,,,42,cadallo,,,,,439.8793,441.1768,1,0,0.7552,,0,90,90,41,1,REAL,FAKE,,,,,,,,,,,,,,,,,
,,,,,,,,,67d09ba717ec412519ebf44b,Spanish,13 or older,"no, only English or Spanish",no,2025-07-24_08h09.00.465,empathy_intonation_perc_control,2024.2.4,Win32,59.88023952,67d09ba717ec412519ebf44b,68817205a84113384fffdfe3,688222212e409664af119d63,,,,,,,,,,,,,1,,,,,,,,,,,,,,,,,,,,,,,,,,,,,,,,,,,,,90,clavel,,,,,441.1794,442.5097,0,0,0.7894,,0,91,91,89,1,REAL,FAKE,,,,,,,,,,,,,,,,,
,,,,,,,,,67d09ba717ec412519ebf44b,Spanish,13 or older,"no, only English or Spanish",no,2025-07-24_08h09.00.465,empathy_intonation_perc_control,2024.2.4,Win32,59.88023952,67d09ba717ec412519ebf44b,68817205a84113384fffdfe3,688222212e409664af119d63,,,,,,,,,,,,,,,,,,,,,,,,,,,,,,,,,,,,,,,,,,,,,,,,,,,,,,,,,,,,,,,,,,,,,442.5111,449.0092,,,,,,,,,,,,,,,
,,,,,,,,,67d09ba717ec412519ebf44b,Spanish,13 or older,"no, only English or Spanish",no,2025-07-24_08h09.00.465,empathy_intonation_perc_control,2024.2.4,Win32,59.88023952,67d09ba717ec412519ebf44b,68817205a84113384fffdfe3,688222212e409664af119d63,,,,,,,,,,,,,,,,,,,,,,,,,,,1,,,,,,,,,,,,,,,,,,,,,,,,,,,,,,,,,,,,,,,,,,,,449.0231,452.9243,slightly agree,0,0,0,0,1,I can easily tell if someone else wants to enter a conversation.,1,0,1,0,,
,,,,,,,,,67d09ba717ec412519ebf44b,Spanish,13 or older,"no, only English or Spanish",no,2025-07-24_08h09.00.465,empathy_intonation_perc_control,2024.2.4,Win32,59.88023952,67d09ba717ec412519ebf44b,68817205a84113384fffdfe3,688222212e409664af119d63,,,,,,,,,,,,,,,,,,,,,,,,,,,2,,,,,,,,,,,,,,,,,,,,,,,,,,,,,,,,,,,,,,,,,,,,452.9267,458.8422,slightly agree,0,1,1,1,1,I prefer animals to humans.,0,1,0,0,,
,,,,,,,,,67d09ba717ec412519ebf44b,Spanish,13 or older,"no, only English or Spanish",no,2025-07-24_08h09.00.465,empathy_intonation_perc_control,2024.2.4,Win32,59.88023952,67d09ba717ec412519ebf44b,68817205a84113384fffdfe3,688222212e409664af119d63,,,,,,,,,,,,,,,,,,,,,,,,,,,3,,,,,,,,,,,,,,,,,,,,,,,,,,,,,,,,,,,,,,,,,,,,458.8447,461.9383,slightly disagree,0,2,2,2,1,I try to keep up with the current trends and fashions.,0,1,0,0,,
,,,,,,,,,67d09ba717ec412519ebf44b,Spanish,13 or older,"no, only English or Spanish",no,2025-07-24_08h09.00.465,empathy_intonation_perc_control,2024.2.4,Win32,59.88023952,67d09ba717ec412519ebf44b,68817205a84113384fffdfe3,688222212e409664af119d63,,,,,,,,,,,,,,,,,,,,,,,,,,,4,,,,,,,,,,,,,,,,,,,,,,,,,,,,,,,,,,,,,,,,,,,,461.941,467.5695,slightly disagree,0,3,3,3,1,"I find it difficult to explain to others things that I understand easily,   when they don't understand it first time.",1,0,0,1,,
,,,,,,,,,67d09ba717ec412519ebf44b,Spanish,13 or older,"no, only English or Spanish",no,2025-07-24_08h09.00.465,empathy_intonation_perc_control,2024.2.4,Win32,59.88023952,67d09ba717ec412519ebf44b,68817205a84113384fffdfe3,688222212e409664af119d63,,,,,,,,,,,,,,,,,,,,,,,,,,,5,,,,,,,,,,,,,,,,,,,,,,,,,,,,,,,,,,,,,,,,,,,,467.5722,471.2689,strongly agree,0,4,4,4,1,I dream most nights.,0,1,0,0,,
,,,,,,,,,67d09ba717ec412519ebf44b,Spanish,13 or older,"no, only English or Spanish",no,2025-07-24_08h09.00.465,empathy_intonation_perc_control,2024.2.4,Win32,59.88023952,67d09ba717ec412519ebf44b,68817205a84113384fffdfe3,688222212e409664af119d63,,,,,,,,,,,,,,,,,,,,,,,,,,,6,,,,,,,,,,,,,,,,,,,,,,,,,,,,,,,,,,,,,,,,,,,,471.2712,474.3683,slightly disagree,0,5,5,5,1,I really enjoy caring for other people.,1,0,1,0,,
,,,,,,,,,67d09ba717ec412519ebf44b,Spanish,13 or older,"no, only English or Spanish",no,2025-07-24_08h09.00.465,empathy_intonation_perc_control,2024.2.4,Win32,59.88023952,67d09ba717ec412519ebf44b,68817205a84113384fffdfe3,688222212e409664af119d63,,,,,,,,,,,,,,,,,,,,,,,,,,,7,,,,,,,,,,,,,,,,,,,,,,,,,,,,,,,,,,,,,,,,,,,,474.3711,477.4003,strongly agree,0,6,6,6,1,I try to solve my own problems rather than discussing them with others.,0,1,0,0,,
,,,,,,,,,67d09ba717ec412519ebf44b,Spanish,13 or older,"no, only English or Spanish",no,2025-07-24_08h09.00.465,empathy_intonation_perc_control,2024.2.4,Win32,59.88023952,67d09ba717ec412519ebf44b,68817205a84113384fffdfe3,688222212e409664af119d63,,,,,,,,,,,,,,,,,,,,,,,,,,,8,,,,,,,,,,,,,,,,,,,,,,,,,,,,,,,,,,,,,,,,,,,,477.403,480.319,slightly disagree,0,7,7,7,1,I find it hard to know what to do in a social situation.,1,0,0,1,,
,,,,,,,,,67d09ba717ec412519ebf44b,Spanish,13 or older,"no, only English or Spanish",no,2025-07-24_08h09.00.465,empathy_intonation_perc_control,2024.2.4,Win32,59.88023952,67d09ba717ec412519ebf44b,68817205a84113384fffdfe3,688222212e409664af119d63,,,,,,,,,,,,,,,,,,,,,,,,,,,9,,,,,,,,,,,,,,,,,,,,,,,,,,,,,,,,,,,,,,,,,,,,480.3217,483.2155,slightly agree,0,8,8,8,1,I am at my best first thing in the morning.,0,1,0,0,,
,,,,,,,,,67d09ba717ec412519ebf44b,Spanish,13 or older,"no, only English or Spanish",no,2025-07-24_08h09.00.465,empathy_intonation_perc_control,2024.2.4,Win32,59.88023952,67d09ba717ec412519ebf44b,68817205a84113384fffdfe3,688222212e409664af119d63,,,,,,,,,,,,,,,,,,,,,,,,,,,10,,,,,,,,,,,,,,,,,,,,,,,,,,,,,,,,,,,,,,,,,,,,483.2194,487.8471,strongly disagree,0,9,9,9,1,People often tell me that I went too far in driving my point home in a discussion.,1,0,0,1,,
,,,,,,,,,67d09ba717ec412519ebf44b,Spanish,13 or older,"no, only English or Spanish",no,2025-07-24_08h09.00.465,empathy_intonation_perc_control,2024.2.4,Win32,59.88023952,67d09ba717ec412519ebf44b,68817205a84113384fffdfe3,688222212e409664af119d63,,,,,,,,,,,,,,,,,,,,,,,,,,,11,,,,,,,,,,,,,,,,,,,,,,,,,,,,,,,,,,,,,,,,,,,,487.85,492.2627,strongly disagree,0,10,10,10,1,It doesn't bother me too much if I am late meeting a friend.,1,0,0,1,,
,,,,,,,,,67d09ba717ec412519ebf44b,Spanish,13 or older,"no, only English or Spanish",no,2025-07-24_08h09.00.465,empathy_intonation_perc_control,2024.2.4,Win32,59.88023952,67d09ba717ec412519ebf44b,68817205a84113384fffdfe3,688222212e409664af119d63,,,,,,,,,,,,,,,,,,,,,,,,,,,12,,,,,,,,,,,,,,,,,,,,,,,,,,,,,,,,,,,,,,,,,,,,492.2666,496.2114,slightly disagree,0,11,11,11,1,"Friendships and relationships are just too difficult, so I tend not to 
  bother with them.",1,0,0,1,,
,,,,,,,,,67d09ba717ec412519ebf44b,Spanish,13 or older,"no, only English or Spanish",no,2025-07-24_08h09.00.465,empathy_intonation_perc_control,2024.2.4,Win32,59.88023952,67d09ba717ec412519ebf44b,68817205a84113384fffdfe3,688222212e409664af119d63,,,,,,,,,,,,,,,,,,,,,,,,,,,13,,,,,,,,,,,,,,,,,,,,,,,,,,,,,,,,,,,,,,,,,,,,496.213,499.1775,slightly disagree,0,12,12,12,1,"I would never break a law, no matter how minor.",0,1,0,0,,
,,,,,,,,,67d09ba717ec412519ebf44b,Spanish,13 or older,"no, only English or Spanish",no,2025-07-24_08h09.00.465,empathy_intonation_perc_control,2024.2.4,Win32,59.88023952,67d09ba717ec412519ebf44b,68817205a84113384fffdfe3,688222212e409664af119d63,,,,,,,,,,,,,,,,,,,,,,,,,,,14,,,,,,,,,,,,,,,,,,,,,,,,,,,,,,,,,,,,,,,,,,,,499.1809,503.8091,strongly disagree,0,13,13,13,1,I often find it difficult to judge if something is rude or polite.,1,0,0,1,,
,,,,,,,,,67d09ba717ec412519ebf44b,Spanish,13 or older,"no, only English or Spanish",no,2025-07-24_08h09.00.465,empathy_intonation_perc_control,2024.2.4,Win32,59.88023952,67d09ba717ec412519ebf44b,68817205a84113384fffdfe3,688222212e409664af119d63,,,,,,,,,,,,,,,,,,,,,,,,,,,15,,,,,,,,,,,,,,,,,,,,,,,,,,,,,,,,,,,,,,,,,,,,503.8107,508.6413,slightly disagree,0,14,14,14,1,"In a conversation, I tend to focus on my own thoughts rather than on what 
  my listener might be thinking.",1,0,0,1,,
,,,,,,,,,67d09ba717ec412519ebf44b,Spanish,13 or older,"no, only English or Spanish",no,2025-07-24_08h09.00.465,empathy_intonation_perc_control,2024.2.4,Win32,59.88023952,67d09ba717ec412519ebf44b,68817205a84113384fffdfe3,688222212e409664af119d63,,,,,,,,,,,,,,,,,,,,,,,,,,,16,,,,,,,,,,,,,,,,,,,,,,,,,,,,,,,,,,,,,,,,,,,,508.6427,513.4907,strongly disagree,0,15,15,15,1,I prefer practical jokes to verbal humor.,0,1,0,0,,
,,,,,,,,,67d09ba717ec412519ebf44b,Spanish,13 or older,"no, only English or Spanish",no,2025-07-24_08h09.00.465,empathy_intonation_perc_control,2024.2.4,Win32,59.88023952,67d09ba717ec412519ebf44b,68817205a84113384fffdfe3,688222212e409664af119d63,,,,,,,,,,,,,,,,,,,,,,,,,,,17,,,,,,,,,,,,,,,,,,,,,,,,,,,,,,,,,,,,,,,,,,,,513.4943,518.8386,slightly disagree,0,16,16,16,1,I live life for today rather than the future.,0,1,0,0,,
,,,,,,,,,67d09ba717ec412519ebf44b,Spanish,13 or older,"no, only English or Spanish",no,2025-07-24_08h09.00.465,empathy_intonation_perc_control,2024.2.4,Win32,59.88023952,67d09ba717ec412519ebf44b,68817205a84113384fffdfe3,688222212e409664af119d63,,,,,,,,,,,,,,,,,,,,,,,,,,,18,,,,,,,,,,,,,,,,,,,,,,,,,,,,,,,,,,,,,,,,,,,,518.8414,522.2208,strongly disagree,0,17,17,17,1,"When I was a child, I enjoyed cutting up worms to see what would happen.",1,0,0,1,,
,,,,,,,,,67d09ba717ec412519ebf44b,Spanish,13 or older,"no, only English or Spanish",no,2025-07-24_08h09.00.465,empathy_intonation_perc_control,2024.2.4,Win32,59.88023952,67d09ba717ec412519ebf44b,68817205a84113384fffdfe3,688222212e409664af119d63,,,,,,,,,,,,,,,,,,,,,,,,,,,19,,,,,,,,,,,,,,,,,,,,,,,,,,,,,,,,,,,,,,,,,,,,522.2223,526.3363,slightly agree,0,18,18,18,1,I can pick up quickly if someone says one thing but means another.,1,0,1,0,,
,,,,,,,,,67d09ba717ec412519ebf44b,Spanish,13 or older,"no, only English or Spanish",no,2025-07-24_08h09.00.465,empathy_intonation_perc_control,2024.2.4,Win32,59.88023952,67d09ba717ec412519ebf44b,68817205a84113384fffdfe3,688222212e409664af119d63,,,,,,,,,,,,,,,,,,,,,,,,,,,20,,,,,,,,,,,,,,,,,,,,,,,,,,,,,,,,,,,,,,,,,,,,526.3378,529.5519,slightly agree,0,19,19,19,1,I tend to have very strong opinions about morality.,0,1,0,0,,
,,,,,,,,,67d09ba717ec412519ebf44b,Spanish,13 or older,"no, only English or Spanish",no,2025-07-24_08h09.00.465,empathy_intonation_perc_control,2024.2.4,Win32,59.88023952,67d09ba717ec412519ebf44b,68817205a84113384fffdfe3,688222212e409664af119d63,,,,,,,,,,,,,,,,,,,,,,,,,,,21,,,,,,,,,,,,,,,,,,,,,,,,,,,,,,,,,,,,,,,,,,,,529.5548,532.9513,slightly agree,0,20,20,20,1,It is hard for me to see why some things upset people so much.,1,0,0,1,,
,,,,,,,,,67d09ba717ec412519ebf44b,Spanish,13 or older,"no, only English or Spanish",no,2025-07-24_08h09.00.465,empathy_intonation_perc_control,2024.2.4,Win32,59.88023952,67d09ba717ec412519ebf44b,68817205a84113384fffdfe3,688222212e409664af119d63,,,,,,,,,,,,,,,,,,,,,,,,,,,22,,,,,,,,,,,,,,,,,,,,,,,,,,,,,,,,,,,,,,,,,,,,532.9539,535.951,slightly disagree,0,21,21,21,1,I find it easy to put myself in somebody else's shoes.,1,0,1,0,,
,,,,,,,,,67d09ba717ec412519ebf44b,Spanish,13 or older,"no, only English or Spanish",no,2025-07-24_08h09.00.465,empathy_intonation_perc_control,2024.2.4,Win32,59.88023952,67d09ba717ec412519ebf44b,68817205a84113384fffdfe3,688222212e409664af119d63,,,,,,,,,,,,,,,,,,,,,,,,,,,23,,,,,,,,,,,,,,,,,,,,,,,,,,,,,,,,,,,,,,,,,,,,535.9557,542.7485,slightly agree,0,22,22,22,1,I think that good manners are the most important thing a parent can teach their child.,0,1,0,0,,
,,,,,,,,,67d09ba717ec412519ebf44b,Spanish,13 or older,"no, only English or Spanish",no,2025-07-24_08h09.00.465,empathy_intonation_perc_control,2024.2.4,Win32,59.88023952,67d09ba717ec412519ebf44b,68817205a84113384fffdfe3,688222212e409664af119d63,,,,,,,,,,,,,,,,,,,,,,,,,,,24,,,,,,,,,,,,,,,,,,,,,,,,,,,,,,,,,,,,,,,,,,,,542.7499,547.1972,slightly disagree,0,23,23,23,1,I like to do things on the spur of the moment.,0,1,0,0,,
,,,,,,,,,67d09ba717ec412519ebf44b,Spanish,13 or older,"no, only English or Spanish",no,2025-07-24_08h09.00.465,empathy_intonation_perc_control,2024.2.4,Win32,59.88023952,67d09ba717ec412519ebf44b,68817205a84113384fffdfe3,688222212e409664af119d63,,,,,,,,,,,,,,,,,,,,,,,,,,,25,,,,,,,,,,,,,,,,,,,,,,,,,,,,,,,,,,,,,,,,,,,,547.1987,551.2297,slightly agree,0,24,24,24,1,I am good at predicting how someone will feel.,1,0,1,0,,
