instructions_2afc.started,instructions_2afc.stopped,instructions_2afc_loop.thisRepN,instructions_2afc_loop.thisTrialN,instructions_2afc_loop.thisN,instructions_2afc_loop.thisIndex,instructions_2afc_loop.ran,instructions_text,continue_text,participant_id,"What variety of Spanish are you most familiar with? (e.g., Peruvian, Spanish, Mexican)",At what age did you begin learning Spanish?,Are you proficient in any languages other than English/Spanish?,"Are you familiar with Caribbean (e.g., Caribbean, Puerto Rican) or Galician Spanish?",date,expName,psychopyVersion,OS,frameRate,id,study_id,session,practice_2afc.started,practice_2afc.stopped,key_resp_2afc_practice.keys,key_resp_2afc_practice.corr,key_resp_2afc_practice.rt,key_resp_2afc_practice.duration,trials_2afc_practice_loop.thisRepN,trials_2afc_practice_loop.thisTrialN,trials_2afc_practice_loop.thisN,trials_2afc_practice_loop.thisIndex,trials_2afc_practice_loop.ran,path,correct_response,check_2afc.started,check_2afc.stopped,trial_2afc.started,trial_2afc.stopped,key_resp_2afc_trial.keys,key_resp_2afc_trial.corr,key_resp_2afc_trial.rt,key_resp_2afc_trial.duration,trials_2afc_loop.thisRepN,trials_2afc_loop.thisTrialN,trials_2afc_loop.thisN,trials_2afc_loop.thisIndex,trials_2afc_loop.ran,item_num,target,variety,instructions_lextale.started,instructions_lextale.stopped,instructions_lextale_loop.thisRepN,instructions_lextale_loop.thisTrialN,instructions_lextale_loop.thisN,instructions_lextale_loop.thisIndex,instructions_lextale_loop.ran,practice_lextale.started,practice_lextale.stopped,key_resp_lextale_practice.keys,key_resp_lextale_practice.corr,key_resp_lextale_practice.rt,key_resp_lextale_practice.duration,practice_feedback_lextale.started,practice_feedback_lextale.stopped,trials_lextale_practice_loop.thisRepN,trials_lextale_practice_loop.thisTrialN,trials_lextale_practice_loop.thisN,trials_lextale_practice_loop.thisIndex,trials_lextale_practice_loop.ran,stim,word,prac_button_real,prac_button_false,check_lextale.started,check_lextale.stopped,trial_lextale.started,trial_lextale.stopped,key_resp_lextale_trial.keys,key_resp_lextale_trial.corr,key_resp_lextale_trial.rt,key_resp_lextale_trial.duration,trials_lextale_loop.thisRepN,trials_lextale_loop.thisTrialN,trials_lextale_loop.thisN,trials_lextale_loop.thisIndex,trials_lextale_loop.ran,button_real,button_false,instructions_eq.started,instructions_eq.stopped,trial_eq.started,trial_eq.stopped,slider_eq_trial.response,trials_eq_loop.thisRepN,trials_eq_loop.thisTrialN,trials_eq_loop.thisN,trials_eq_loop.thisIndex,trials_eq_loop.ran,item,is_test_item,is_distractor,is_agree_score,is_disagree_score,end_exp.started,end_exp.stopped
0.025,11.1769,0,0,0,0,1,"In the following task you are going to hear a series of utterances. 

  You will decide if the utterances sound like questions or not using your keyboard.", (press the spacebar to continue),67e82ac6e6f39b2aa9b57f59,spanish,13 or older,"no, only English or Spanish",yes,2025-08-12_14h05.40.072,empathy_intonation_perc_control,2024.2.4,Win32,120.4819277,67e82ac6e6f39b2aa9b57f59,68817205a84113384fffdfe3,689b82198590ff4b4685f338,,,,,,,,,,,,,,,,,,,,,,,,,,,,,,,,,,,,,,,,,,,,,,,,,,,,,,,,,,,,,,,,,,,,,,,,,,,,,,,,,,,,,
11.1822,20.9253,0,1,1,1,1,"If you believe the utterance is a question, type '1' (for 'yes') and if you do not 
  believe it is a question type '0' (for 'no').

  Let's practice a bit...", (press the spacebar to continue),67e82ac6e6f39b2aa9b57f59,spanish,13 or older,"no, only English or Spanish",yes,2025-08-12_14h05.40.072,empathy_intonation_perc_control,2024.2.4,Win32,120.4819277,67e82ac6e6f39b2aa9b57f59,68817205a84113384fffdfe3,689b82198590ff4b4685f338,,,,,,,,,,,,,,,,,,,,,,,,,,,,,,,,,,,,,,,,,,,,,,,,,,,,,,,,,,,,,,,,,,,,,,,,,,,,,,,,,,,,,
,,,,,,,,,67e82ac6e6f39b2aa9b57f59,spanish,13 or older,"no, only English or Spanish",yes,2025-08-12_14h05.40.072,empathy_intonation_perc_control,2024.2.4,Win32,120.4819277,67e82ac6e6f39b2aa9b57f59,68817205a84113384fffdfe3,689b82198590ff4b4685f338,20.9379,27.7223,1,1,6.265,,0,0,0,0,1,./stim/wavs/castilian_question_filler_Mi-esposo-conoce-al-chico.wav,1,,,,,,,,,,,,,,,,,,,,,,,,,,,,,,,,,,,,,,,,,,,,,,,,,,,,,,,,,,,,,,,,,,,,,,,,
,,,,,,,,,67e82ac6e6f39b2aa9b57f59,spanish,13 or older,"no, only English or Spanish",yes,2025-08-12_14h05.40.072,empathy_intonation_perc_control,2024.2.4,Win32,120.4819277,67e82ac6e6f39b2aa9b57f59,68817205a84113384fffdfe3,689b82198590ff4b4685f338,27.7228,32.4906,0,1,4.2577,,0,1,1,5,1,./stim/wavs/andalusian_statement_filler_Alberto-nunca-se-afeita.wav,0,,,,,,,,,,,,,,,,,,,,,,,,,,,,,,,,,,,,,,,,,,,,,,,,,,,,,,,,,,,,,,,,,,,,,,,,
,,,,,,,,,67e82ac6e6f39b2aa9b57f59,spanish,13 or older,"no, only English or Spanish",yes,2025-08-12_14h05.40.072,empathy_intonation_perc_control,2024.2.4,Win32,120.4819277,67e82ac6e6f39b2aa9b57f59,68817205a84113384fffdfe3,689b82198590ff4b4685f338,32.4933,35.4296,0,1,2.4242,,0,2,2,6,1,./stim/wavs/peruvian_statement_filler_El-nino-habla-con-su-madre.wav,0,,,,,,,,,,,,,,,,,,,,,,,,,,,,,,,,,,,,,,,,,,,,,,,,,,,,,,,,,,,,,,,,,,,,,,,,
,,,,,,,,,67e82ac6e6f39b2aa9b57f59,spanish,13 or older,"no, only English or Spanish",yes,2025-08-12_14h05.40.072,empathy_intonation_perc_control,2024.2.4,Win32,120.4819277,67e82ac6e6f39b2aa9b57f59,68817205a84113384fffdfe3,689b82198590ff4b4685f338,35.43,37.9622,0,1,2.0207,,0,3,3,7,1,./stim/wavs/puertorican_statement_filler_La-nina-pinta-con-su-amiga.wav,0,,,,,,,,,,,,,,,,,,,,,,,,,,,,,,,,,,,,,,,,,,,,,,,,,,,,,,,,,,,,,,,,,,,,,,,,
,,,,,,,,,67e82ac6e6f39b2aa9b57f59,spanish,13 or older,"no, only English or Spanish",yes,2025-08-12_14h05.40.072,empathy_intonation_perc_control,2024.2.4,Win32,120.4819277,67e82ac6e6f39b2aa9b57f59,68817205a84113384fffdfe3,689b82198590ff4b4685f338,37.9625,40.2369,0,1,1.7579,,0,4,4,4,1,./stim/wavs/cuban_statement_filler_Cocinabas-por-la-noche.wav,0,,,,,,,,,,,,,,,,,,,,,,,,,,,,,,,,,,,,,,,,,,,,,,,,,,,,,,,,,,,,,,,,,,,,,,,,
,,,,,,,,,67e82ac6e6f39b2aa9b57f59,spanish,13 or older,"no, only English or Spanish",yes,2025-08-12_14h05.40.072,empathy_intonation_perc_control,2024.2.4,Win32,120.4819277,67e82ac6e6f39b2aa9b57f59,68817205a84113384fffdfe3,689b82198590ff4b4685f338,40.2373,43.7534,1,1,3.0053,,0,5,5,3,1,./stim/wavs/mexican_question_filler_Felipe-no-tiene-contrasena.wav,1,,,,,,,,,,,,,,,,,,,,,,,,,,,,,,,,,,,,,,,,,,,,,,,,,,,,,,,,,,,,,,,,,,,,,,,,
,,,,,,,,,67e82ac6e6f39b2aa9b57f59,spanish,13 or older,"no, only English or Spanish",yes,2025-08-12_14h05.40.072,empathy_intonation_perc_control,2024.2.4,Win32,120.4819277,67e82ac6e6f39b2aa9b57f59,68817205a84113384fffdfe3,689b82198590ff4b4685f338,43.7538,47.2196,1,1,2.9498,,0,6,6,1,1,./stim/wavs/argentine_question_filler_Mi-vecino-habla-mucho.wav,1,,,,,,,,,,,,,,,,,,,,,,,,,,,,,,,,,,,,,,,,,,,,,,,,,,,,,,,,,,,,,,,,,,,,,,,,
,,,,,,,,,67e82ac6e6f39b2aa9b57f59,spanish,13 or older,"no, only English or Spanish",yes,2025-08-12_14h05.40.072,empathy_intonation_perc_control,2024.2.4,Win32,120.4819277,67e82ac6e6f39b2aa9b57f59,68817205a84113384fffdfe3,689b82198590ff4b4685f338,47.2199,50.0357,1,1,2.2998,,0,7,7,2,1,./stim/wavs/chilean_question_filler_Mi-padre-cantaba-bien.wav,1,,,,,,,,,,,,,,,,,,,,,,,,,,,,,,,,,,,,,,,,,,,,,,,,,,,,,,,,,,,,,,,,,,,,,,,,
,,,,,,,,,67e82ac6e6f39b2aa9b57f59,spanish,13 or older,"no, only English or Spanish",yes,2025-08-12_14h05.40.072,empathy_intonation_perc_control,2024.2.4,Win32,120.4819277,67e82ac6e6f39b2aa9b57f59,68817205a84113384fffdfe3,689b82198590ff4b4685f338,,,,,,,,,,,,,,50.0358,55.407,,,,,,,,,,,,,,,,,,,,,,,,,,,,,,,,,,,,,,,,,,,,,,,,,,,,,,,,,,,,,,,,,,,,,,
,,,,,,,,,67e82ac6e6f39b2aa9b57f59,spanish,13 or older,"no, only English or Spanish",yes,2025-08-12_14h05.40.072,empathy_intonation_perc_control,2024.2.4,Win32,120.4819277,67e82ac6e6f39b2aa9b57f59,68817205a84113384fffdfe3,689b82198590ff4b4685f338,,,,,,,,,,,,./stim/wavs/cuban_mismatch_interrogative-total-yn_El-hombre-mira-la-luna.wav,1,,,55.4166,58.6328,1,1,2.7028,,0,0,0,29,1,30,1,cuban,,,,,,,,,,,,,,,,,,,,,,,,,,,,,,,,,,,,,,,,,,,,,,,,,,,,,,,,
,,,,,,,,,67e82ac6e6f39b2aa9b57f59,spanish,13 or older,"no, only English or Spanish",yes,2025-08-12_14h05.40.072,empathy_intonation_perc_control,2024.2.4,Win32,120.4819277,67e82ac6e6f39b2aa9b57f59,68817205a84113384fffdfe3,689b82198590ff4b4685f338,,,,,,,,,,,,./stim/wavs/mexican_match_declarative-broad-focus_David-leia-el-libro.wav,0,,,58.6334,60.5718,0,1,1.424,,0,1,1,58,1,59,0,mexican,,,,,,,,,,,,,,,,,,,,,,,,,,,,,,,,,,,,,,,,,,,,,,,,,,,,,,,,
,,,,,,,,,67e82ac6e6f39b2aa9b57f59,spanish,13 or older,"no, only English or Spanish",yes,2025-08-12_14h05.40.072,empathy_intonation_perc_control,2024.2.4,Win32,120.4819277,67e82ac6e6f39b2aa9b57f59,68817205a84113384fffdfe3,689b82198590ff4b4685f338,,,,,,,,,,,,./stim/wavs/mexican_mismatch_interrogative-total-yn_El-hombre-mira-la-luna.wav,1,,,60.5732,63.3164,1,1,2.2327,,0,2,2,34,1,35,0,mexican,,,,,,,,,,,,,,,,,,,,,,,,,,,,,,,,,,,,,,,,,,,,,,,,,,,,,,,,
,,,,,,,,,67e82ac6e6f39b2aa9b57f59,spanish,13 or older,"no, only English or Spanish",yes,2025-08-12_14h05.40.072,empathy_intonation_perc_control,2024.2.4,Win32,120.4819277,67e82ac6e6f39b2aa9b57f59,68817205a84113384fffdfe3,689b82198590ff4b4685f338,,,,,,,,,,,,./stim/wavs/cuban_mismatch_interrogative-total-yn_El-nino-oye-el-rio.wav,1,,,63.3167,66.2078,0,0,2.3788,,0,3,3,30,1,31,1,cuban,,,,,,,,,,,,,,,,,,,,,,,,,,,,,,,,,,,,,,,,,,,,,,,,,,,,,,,,
,,,,,,,,,67e82ac6e6f39b2aa9b57f59,spanish,13 or older,"no, only English or Spanish",yes,2025-08-12_14h05.40.072,empathy_intonation_perc_control,2024.2.4,Win32,120.4819277,67e82ac6e6f39b2aa9b57f59,68817205a84113384fffdfe3,689b82198590ff4b4685f338,,,,,,,,,,,,./stim/wavs/mexican_match_interrogative-total-yn_Emilio-ama-la-marcha.wav,1,,,66.2081,68.5763,1,1,1.8514,,0,4,4,15,1,16,0,mexican,,,,,,,,,,,,,,,,,,,,,,,,,,,,,,,,,,,,,,,,,,,,,,,,,,,,,,,,
,,,,,,,,,67e82ac6e6f39b2aa9b57f59,spanish,13 or older,"no, only English or Spanish",yes,2025-08-12_14h05.40.072,empathy_intonation_perc_control,2024.2.4,Win32,120.4819277,67e82ac6e6f39b2aa9b57f59,68817205a84113384fffdfe3,689b82198590ff4b4685f338,,,,,,,,,,,,./stim/wavs/cuban_match_declarative-broad-focus_Ana-lleva-el-abrigo.wav,0,,,68.5786,70.8485,0,1,1.756,,0,5,5,50,1,51,0,cuban,,,,,,,,,,,,,,,,,,,,,,,,,,,,,,,,,,,,,,,,,,,,,,,,,,,,,,,,
,,,,,,,,,67e82ac6e6f39b2aa9b57f59,spanish,13 or older,"no, only English or Spanish",yes,2025-08-12_14h05.40.072,empathy_intonation_perc_control,2024.2.4,Win32,120.4819277,67e82ac6e6f39b2aa9b57f59,68817205a84113384fffdfe3,689b82198590ff4b4685f338,,,,,,,,,,,,./stim/wavs/castilian_mismatch_declarative-broad-focus_El-nino-oye-el-rio.wav,0,,,70.849,74.5119,1,0,3.1488,,0,6,6,68,1,69,0,castilian,,,,,,,,,,,,,,,,,,,,,,,,,,,,,,,,,,,,,,,,,,,,,,,,,,,,,,,,
,,,,,,,,,67e82ac6e6f39b2aa9b57f59,spanish,13 or older,"no, only English or Spanish",yes,2025-08-12_14h05.40.072,empathy_intonation_perc_control,2024.2.4,Win32,120.4819277,67e82ac6e6f39b2aa9b57f59,68817205a84113384fffdfe3,689b82198590ff4b4685f338,,,,,,,,,,,,./stim/wavs/puertorican_match_interrogative-total-yn_Daniel-iba-a-Bolivia.wav,1,,,74.513,78.8911,0,0,3.8661,,0,7,7,19,1,20,1,puertorican,,,,,,,,,,,,,,,,,,,,,,,,,,,,,,,,,,,,,,,,,,,,,,,,,,,,,,,,
,,,,,,,,,67e82ac6e6f39b2aa9b57f59,spanish,13 or older,"no, only English or Spanish",yes,2025-08-12_14h05.40.072,empathy_intonation_perc_control,2024.2.4,Win32,120.4819277,67e82ac6e6f39b2aa9b57f59,68817205a84113384fffdfe3,689b82198590ff4b4685f338,,,,,,,,,,,,./stim/wavs/mexican_mismatch_interrogative-total-yn_Mi-tia-odia-la-lluvia.wav,1,,,78.8936,81.1977,1,1,1.7923,,0,8,8,38,1,39,0,mexican,,,,,,,,,,,,,,,,,,,,,,,,,,,,,,,,,,,,,,,,,,,,,,,,,,,,,,,,
,,,,,,,,,67e82ac6e6f39b2aa9b57f59,spanish,13 or older,"no, only English or Spanish",yes,2025-08-12_14h05.40.072,empathy_intonation_perc_control,2024.2.4,Win32,120.4819277,67e82ac6e6f39b2aa9b57f59,68817205a84113384fffdfe3,689b82198590ff4b4685f338,,,,,,,,,,,,./stim/wavs/cuban_match_declarative-broad-focus_Daniel-iba-a-Bolivia.wav,0,,,81.1981,83.8272,0,1,2.1131,,0,9,9,51,1,52,0,cuban,,,,,,,,,,,,,,,,,,,,,,,,,,,,,,,,,,,,,,,,,,,,,,,,,,,,,,,,
,,,,,,,,,67e82ac6e6f39b2aa9b57f59,spanish,13 or older,"no, only English or Spanish",yes,2025-08-12_14h05.40.072,empathy_intonation_perc_control,2024.2.4,Win32,120.4819277,67e82ac6e6f39b2aa9b57f59,68817205a84113384fffdfe3,689b82198590ff4b4685f338,,,,,,,,,,,,./stim/wavs/castilian_match_interrogative-total-yn_Marta-abre-el-regalo.wav,1,,,83.8284,86.1881,1,1,1.8489,,0,10,10,5,1,6,0,castilian,,,,,,,,,,,,,,,,,,,,,,,,,,,,,,,,,,,,,,,,,,,,,,,,,,,,,,,,
,,,,,,,,,67e82ac6e6f39b2aa9b57f59,spanish,13 or older,"no, only English or Spanish",yes,2025-08-12_14h05.40.072,empathy_intonation_perc_control,2024.2.4,Win32,120.4819277,67e82ac6e6f39b2aa9b57f59,68817205a84113384fffdfe3,689b82198590ff4b4685f338,,,,,,,,,,,,./stim/wavs/cuban_match_interrogative-total-yn_Mariano-habla-del-tiempo.wav,1,,,86.1884,88.8402,1,1,2.1401,,0,11,11,10,1,11,1,cuban,,,,,,,,,,,,,,,,,,,,,,,,,,,,,,,,,,,,,,,,,,,,,,,,,,,,,,,,
,,,,,,,,,67e82ac6e6f39b2aa9b57f59,spanish,13 or older,"no, only English or Spanish",yes,2025-08-12_14h05.40.072,empathy_intonation_perc_control,2024.2.4,Win32,120.4819277,67e82ac6e6f39b2aa9b57f59,68817205a84113384fffdfe3,689b82198590ff4b4685f338,,,,,,,,,,,,./stim/wavs/mexican_match_interrogative-total-yn_Marta-abre-el-regalo.wav,1,,,88.8426,91.473,1,1,2.1131,,0,12,12,17,1,18,0,mexican,,,,,,,,,,,,,,,,,,,,,,,,,,,,,,,,,,,,,,,,,,,,,,,,,,,,,,,,
,,,,,,,,,67e82ac6e6f39b2aa9b57f59,spanish,13 or older,"no, only English or Spanish",yes,2025-08-12_14h05.40.072,empathy_intonation_perc_control,2024.2.4,Win32,120.4819277,67e82ac6e6f39b2aa9b57f59,68817205a84113384fffdfe3,689b82198590ff4b4685f338,,,,,,,,,,,,./stim/wavs/puertorican_match_declarative-broad-focus_Maria-bebe-el-vino.wav,0,,,91.4749,94.1683,0,1,2.1806,,0,13,13,67,1,68,0,puertorican,,,,,,,,,,,,,,,,,,,,,,,,,,,,,,,,,,,,,,,,,,,,,,,,,,,,,,,,
,,,,,,,,,67e82ac6e6f39b2aa9b57f59,spanish,13 or older,"no, only English or Spanish",yes,2025-08-12_14h05.40.072,empathy_intonation_perc_control,2024.2.4,Win32,120.4819277,67e82ac6e6f39b2aa9b57f59,68817205a84113384fffdfe3,689b82198590ff4b4685f338,,,,,,,,,,,,./stim/wavs/mexican_match_interrogative-total-yn_Daniel-iba-a-Bolivia.wav,1,,,94.1686,97.0519,0,0,2.3754,,0,14,14,13,1,14,0,mexican,,,,,,,,,,,,,,,,,,,,,,,,,,,,,,,,,,,,,,,,,,,,,,,,,,,,,,,,
,,,,,,,,,67e82ac6e6f39b2aa9b57f59,spanish,13 or older,"no, only English or Spanish",yes,2025-08-12_14h05.40.072,empathy_intonation_perc_control,2024.2.4,Win32,120.4819277,67e82ac6e6f39b2aa9b57f59,68817205a84113384fffdfe3,689b82198590ff4b4685f338,,,,,,,,,,,,./stim/wavs/castilian_mismatch_declarative-broad-focus_La-nina-lava-el-plato.wav,0,,,97.0523,99.5882,0,1,2.0187,,0,15,15,70,1,71,0,castilian,,,,,,,,,,,,,,,,,,,,,,,,,,,,,,,,,,,,,,,,,,,,,,,,,,,,,,,,
,,,,,,,,,67e82ac6e6f39b2aa9b57f59,spanish,13 or older,"no, only English or Spanish",yes,2025-08-12_14h05.40.072,empathy_intonation_perc_control,2024.2.4,Win32,120.4819277,67e82ac6e6f39b2aa9b57f59,68817205a84113384fffdfe3,689b82198590ff4b4685f338,,,,,,,,,,,,./stim/wavs/castilian_match_interrogative-total-yn_Maria-bebe-el-vino.wav,1,,,99.5907,101.6234,1,1,1.524,,0,16,16,3,1,4,0,castilian,,,,,,,,,,,,,,,,,,,,,,,,,,,,,,,,,,,,,,,,,,,,,,,,,,,,,,,,
,,,,,,,,,67e82ac6e6f39b2aa9b57f59,spanish,13 or older,"no, only English or Spanish",yes,2025-08-12_14h05.40.072,empathy_intonation_perc_control,2024.2.4,Win32,120.4819277,67e82ac6e6f39b2aa9b57f59,68817205a84113384fffdfe3,689b82198590ff4b4685f338,,,,,,,,,,,,./stim/wavs/mexican_mismatch_declarative-broad-focus_Mi-tia-odia-la-lluvia.wav,0,,,101.6248,103.7135,0,1,1.5687,,0,17,17,82,1,83,0,mexican,,,,,,,,,,,,,,,,,,,,,,,,,,,,,,,,,,,,,,,,,,,,,,,,,,,,,,,,
,,,,,,,,,67e82ac6e6f39b2aa9b57f59,spanish,13 or older,"no, only English or Spanish",yes,2025-08-12_14h05.40.072,empathy_intonation_perc_control,2024.2.4,Win32,120.4819277,67e82ac6e6f39b2aa9b57f59,68817205a84113384fffdfe3,689b82198590ff4b4685f338,,,,,,,,,,,,./stim/wavs/cuban_mismatch_interrogative-total-yn_Mi-tia-odia-la-lluvia.wav,1,,,103.7152,105.9129,1,1,1.6768,,0,18,18,33,1,34,1,cuban,,,,,,,,,,,,,,,,,,,,,,,,,,,,,,,,,,,,,,,,,,,,,,,,,,,,,,,,
,,,,,,,,,67e82ac6e6f39b2aa9b57f59,spanish,13 or older,"no, only English or Spanish",yes,2025-08-12_14h05.40.072,empathy_intonation_perc_control,2024.2.4,Win32,120.4819277,67e82ac6e6f39b2aa9b57f59,68817205a84113384fffdfe3,689b82198590ff4b4685f338,,,,,,,,,,,,./stim/wavs/cuban_match_declarative-broad-focus_Marta-abre-el-regalo.wav,0,,,105.9147,108.2091,0,1,1.7746,,0,19,19,55,1,56,0,cuban,,,,,,,,,,,,,,,,,,,,,,,,,,,,,,,,,,,,,,,,,,,,,,,,,,,,,,,,
,,,,,,,,,67e82ac6e6f39b2aa9b57f59,spanish,13 or older,"no, only English or Spanish",yes,2025-08-12_14h05.40.072,empathy_intonation_perc_control,2024.2.4,Win32,120.4819277,67e82ac6e6f39b2aa9b57f59,68817205a84113384fffdfe3,689b82198590ff4b4685f338,,,,,,,,,,,,./stim/wavs/castilian_match_declarative-broad-focus_Emilio-ama-la-marcha.wav,0,,,108.2095,110.9132,0,1,2.1855,,0,20,20,45,1,46,0,castilian,,,,,,,,,,,,,,,,,,,,,,,,,,,,,,,,,,,,,,,,,,,,,,,,,,,,,,,,
,,,,,,,,,67e82ac6e6f39b2aa9b57f59,spanish,13 or older,"no, only English or Spanish",yes,2025-08-12_14h05.40.072,empathy_intonation_perc_control,2024.2.4,Win32,120.4819277,67e82ac6e6f39b2aa9b57f59,68817205a84113384fffdfe3,689b82198590ff4b4685f338,,,,,,,,,,,,./stim/wavs/castilian_mismatch_declarative-broad-focus_Mi-tia-odia-la-lluvia.wav,0,,,110.9153,113.2223,0,1,1.794,,0,21,21,72,1,73,0,castilian,,,,,,,,,,,,,,,,,,,,,,,,,,,,,,,,,,,,,,,,,,,,,,,,,,,,,,,,
,,,,,,,,,67e82ac6e6f39b2aa9b57f59,spanish,13 or older,"no, only English or Spanish",yes,2025-08-12_14h05.40.072,empathy_intonation_perc_control,2024.2.4,Win32,120.4819277,67e82ac6e6f39b2aa9b57f59,68817205a84113384fffdfe3,689b82198590ff4b4685f338,,,,,,,,,,,,./stim/wavs/mexican_match_declarative-broad-focus_Ana-lleva-el-abrigo.wav,0,,,113.2234,115.3117,0,1,1.5731,,0,22,22,56,1,57,0,mexican,,,,,,,,,,,,,,,,,,,,,,,,,,,,,,,,,,,,,,,,,,,,,,,,,,,,,,,,
,,,,,,,,,67e82ac6e6f39b2aa9b57f59,spanish,13 or older,"no, only English or Spanish",yes,2025-08-12_14h05.40.072,empathy_intonation_perc_control,2024.2.4,Win32,120.4819277,67e82ac6e6f39b2aa9b57f59,68817205a84113384fffdfe3,689b82198590ff4b4685f338,,,,,,,,,,,,./stim/wavs/castilian_mismatch_declarative-broad-focus_La-maestra-vive-en-Paris.wav,0,,,115.3134,118.9994,0,1,3.1737,,0,23,23,69,1,70,0,castilian,,,,,,,,,,,,,,,,,,,,,,,,,,,,,,,,,,,,,,,,,,,,,,,,,,,,,,,,
,,,,,,,,,67e82ac6e6f39b2aa9b57f59,spanish,13 or older,"no, only English or Spanish",yes,2025-08-12_14h05.40.072,empathy_intonation_perc_control,2024.2.4,Win32,120.4819277,67e82ac6e6f39b2aa9b57f59,68817205a84113384fffdfe3,689b82198590ff4b4685f338,,,,,,,,,,,,./stim/wavs/cuban_mismatch_declarative-broad-focus_El-bebe-comia-muy-bien.wav,0,,,118.9998,121.3145,1,0,1.7983,,0,24,24,73,1,74,0,cuban,,,,,,,,,,,,,,,,,,,,,,,,,,,,,,,,,,,,,,,,,,,,,,,,,,,,,,,,
,,,,,,,,,67e82ac6e6f39b2aa9b57f59,spanish,13 or older,"no, only English or Spanish",yes,2025-08-12_14h05.40.072,empathy_intonation_perc_control,2024.2.4,Win32,120.4819277,67e82ac6e6f39b2aa9b57f59,68817205a84113384fffdfe3,689b82198590ff4b4685f338,,,,,,,,,,,,./stim/wavs/mexican_match_interrogative-total-yn_Ana-lleva-el-abrigo.wav,1,,,121.3155,123.6374,1,1,1.8048,,0,25,25,12,1,13,0,mexican,,,,,,,,,,,,,,,,,,,,,,,,,,,,,,,,,,,,,,,,,,,,,,,,,,,,,,,,
,,,,,,,,,67e82ac6e6f39b2aa9b57f59,spanish,13 or older,"no, only English or Spanish",yes,2025-08-12_14h05.40.072,empathy_intonation_perc_control,2024.2.4,Win32,120.4819277,67e82ac6e6f39b2aa9b57f59,68817205a84113384fffdfe3,689b82198590ff4b4685f338,,,,,,,,,,,,./stim/wavs/cuban_match_interrogative-total-yn_Daniel-iba-a-Bolivia.wav,1,,,123.6393,125.8528,1,1,1.6972,,0,26,26,7,1,8,1,cuban,,,,,,,,,,,,,,,,,,,,,,,,,,,,,,,,,,,,,,,,,,,,,,,,,,,,,,,,
,,,,,,,,,67e82ac6e6f39b2aa9b57f59,spanish,13 or older,"no, only English or Spanish",yes,2025-08-12_14h05.40.072,empathy_intonation_perc_control,2024.2.4,Win32,120.4819277,67e82ac6e6f39b2aa9b57f59,68817205a84113384fffdfe3,689b82198590ff4b4685f338,,,,,,,,,,,,./stim/wavs/puertorican_mismatch_interrogative-total-yn_La-maestra-vive-en-Paris.wav,1,,,125.8543,128.2338,1,1,1.8717,,0,27,27,41,1,42,1,puertorican,,,,,,,,,,,,,,,,,,,,,,,,,,,,,,,,,,,,,,,,,,,,,,,,,,,,,,,,
,,,,,,,,,67e82ac6e6f39b2aa9b57f59,spanish,13 or older,"no, only English or Spanish",yes,2025-08-12_14h05.40.072,empathy_intonation_perc_control,2024.2.4,Win32,120.4819277,67e82ac6e6f39b2aa9b57f59,68817205a84113384fffdfe3,689b82198590ff4b4685f338,,,,,,,,,,,,./stim/wavs/puertorican_match_declarative-broad-focus_Daniel-iba-a-Bolivia.wav,0,,,128.236,130.9166,0,1,2.1672,,0,28,28,63,1,64,0,puertorican,,,,,,,,,,,,,,,,,,,,,,,,,,,,,,,,,,,,,,,,,,,,,,,,,,,,,,,,
,,,,,,,,,67e82ac6e6f39b2aa9b57f59,spanish,13 or older,"no, only English or Spanish",yes,2025-08-12_14h05.40.072,empathy_intonation_perc_control,2024.2.4,Win32,120.4819277,67e82ac6e6f39b2aa9b57f59,68817205a84113384fffdfe3,689b82198590ff4b4685f338,,,,,,,,,,,,./stim/wavs/puertorican_match_declarative-broad-focus_Manuela-vende-el-carro.wav,0,,,130.9187,133.3123,0,1,1.8799,,0,29,29,66,1,67,0,puertorican,,,,,,,,,,,,,,,,,,,,,,,,,,,,,,,,,,,,,,,,,,,,,,,,,,,,,,,,
,,,,,,,,,67e82ac6e6f39b2aa9b57f59,spanish,13 or older,"no, only English or Spanish",yes,2025-08-12_14h05.40.072,empathy_intonation_perc_control,2024.2.4,Win32,120.4819277,67e82ac6e6f39b2aa9b57f59,68817205a84113384fffdfe3,689b82198590ff4b4685f338,,,,,,,,,,,,./stim/wavs/cuban_match_declarative-broad-focus_Maria-bebe-el-vino.wav,0,,,133.3132,135.4968,0,1,1.6669,,0,30,30,53,1,54,0,cuban,,,,,,,,,,,,,,,,,,,,,,,,,,,,,,,,,,,,,,,,,,,,,,,,,,,,,,,,
,,,,,,,,,67e82ac6e6f39b2aa9b57f59,spanish,13 or older,"no, only English or Spanish",yes,2025-08-12_14h05.40.072,empathy_intonation_perc_control,2024.2.4,Win32,120.4819277,67e82ac6e6f39b2aa9b57f59,68817205a84113384fffdfe3,689b82198590ff4b4685f338,,,,,,,,,,,,./stim/wavs/puertorican_mismatch_interrogative-total-yn_El-nino-oye-el-rio.wav,1,,,135.4971,137.5575,1,1,1.5423,,0,31,31,40,1,41,1,puertorican,,,,,,,,,,,,,,,,,,,,,,,,,,,,,,,,,,,,,,,,,,,,,,,,,,,,,,,,
,,,,,,,,,67e82ac6e6f39b2aa9b57f59,spanish,13 or older,"no, only English or Spanish",yes,2025-08-12_14h05.40.072,empathy_intonation_perc_control,2024.2.4,Win32,120.4819277,67e82ac6e6f39b2aa9b57f59,68817205a84113384fffdfe3,689b82198590ff4b4685f338,,,,,,,,,,,,./stim/wavs/castilian_mismatch_declarative-broad-focus_Mi-novio-viene-del-lago.wav,0,,,137.5596,139.9429,0,1,1.8622,,0,32,32,71,1,72,0,castilian,,,,,,,,,,,,,,,,,,,,,,,,,,,,,,,,,,,,,,,,,,,,,,,,,,,,,,,,
,,,,,,,,,67e82ac6e6f39b2aa9b57f59,spanish,13 or older,"no, only English or Spanish",yes,2025-08-12_14h05.40.072,empathy_intonation_perc_control,2024.2.4,Win32,120.4819277,67e82ac6e6f39b2aa9b57f59,68817205a84113384fffdfe3,689b82198590ff4b4685f338,,,,,,,,,,,,./stim/wavs/castilian_mismatch_interrogative-total-yn_Mi-tia-odia-la-lluvia.wav,1,,,139.9433,142.1513,1,1,1.6992,,0,33,33,28,1,29,0,castilian,,,,,,,,,,,,,,,,,,,,,,,,,,,,,,,,,,,,,,,,,,,,,,,,,,,,,,,,
,,,,,,,,,67e82ac6e6f39b2aa9b57f59,spanish,13 or older,"no, only English or Spanish",yes,2025-08-12_14h05.40.072,empathy_intonation_perc_control,2024.2.4,Win32,120.4819277,67e82ac6e6f39b2aa9b57f59,68817205a84113384fffdfe3,689b82198590ff4b4685f338,,,,,,,,,,,,./stim/wavs/cuban_match_declarative-broad-focus_Mariano-habla-del-tiempo.wav,0,,,142.1517,144.7263,0,1,2.0631,,0,34,34,54,1,55,0,cuban,,,,,,,,,,,,,,,,,,,,,,,,,,,,,,,,,,,,,,,,,,,,,,,,,,,,,,,,
,,,,,,,,,67e82ac6e6f39b2aa9b57f59,spanish,13 or older,"no, only English or Spanish",yes,2025-08-12_14h05.40.072,empathy_intonation_perc_control,2024.2.4,Win32,120.4819277,67e82ac6e6f39b2aa9b57f59,68817205a84113384fffdfe3,689b82198590ff4b4685f338,,,,,,,,,,,,./stim/wavs/castilian_mismatch_interrogative-total-yn_La-nina-lava-el-plato.wav,1,,,144.7272,146.9161,1,1,1.6826,,0,35,35,25,1,26,0,castilian,,,,,,,,,,,,,,,,,,,,,,,,,,,,,,,,,,,,,,,,,,,,,,,,,,,,,,,,
,,,,,,,,,67e82ac6e6f39b2aa9b57f59,spanish,13 or older,"no, only English or Spanish",yes,2025-08-12_14h05.40.072,empathy_intonation_perc_control,2024.2.4,Win32,120.4819277,67e82ac6e6f39b2aa9b57f59,68817205a84113384fffdfe3,689b82198590ff4b4685f338,,,,,,,,,,,,./stim/wavs/castilian_match_declarative-broad-focus_Marta-abre-el-regalo.wav,0,,,146.9168,149.474,0,1,2.0362,,0,36,36,49,1,50,0,castilian,,,,,,,,,,,,,,,,,,,,,,,,,,,,,,,,,,,,,,,,,,,,,,,,,,,,,,,,
,,,,,,,,,67e82ac6e6f39b2aa9b57f59,spanish,13 or older,"no, only English or Spanish",yes,2025-08-12_14h05.40.072,empathy_intonation_perc_control,2024.2.4,Win32,120.4819277,67e82ac6e6f39b2aa9b57f59,68817205a84113384fffdfe3,689b82198590ff4b4685f338,,,,,,,,,,,,./stim/wavs/puertorican_match_interrogative-total-yn_Ana-lleva-el-abrigo.wav,1,,,149.4748,151.4276,1,1,1.4414,,0,37,37,18,1,19,1,puertorican,,,,,,,,,,,,,,,,,,,,,,,,,,,,,,,,,,,,,,,,,,,,,,,,,,,,,,,,
,,,,,,,,,67e82ac6e6f39b2aa9b57f59,spanish,13 or older,"no, only English or Spanish",yes,2025-08-12_14h05.40.072,empathy_intonation_perc_control,2024.2.4,Win32,120.4819277,67e82ac6e6f39b2aa9b57f59,68817205a84113384fffdfe3,689b82198590ff4b4685f338,,,,,,,,,,,,./stim/wavs/puertorican_mismatch_declarative-broad-focus_El-hombre-mira-la-luna.wav,0,,,151.4279,153.7218,0,1,1.7828,,0,38,38,84,1,85,0,puertorican,,,,,,,,,,,,,,,,,,,,,,,,,,,,,,,,,,,,,,,,,,,,,,,,,,,,,,,,
,,,,,,,,,67e82ac6e6f39b2aa9b57f59,spanish,13 or older,"no, only English or Spanish",yes,2025-08-12_14h05.40.072,empathy_intonation_perc_control,2024.2.4,Win32,120.4819277,67e82ac6e6f39b2aa9b57f59,68817205a84113384fffdfe3,689b82198590ff4b4685f338,,,,,,,,,,,,./stim/wavs/puertorican_mismatch_declarative-broad-focus_La-maestra-vive-en-Paris.wav,0,,,153.7238,155.9852,1,0,1.7493,,0,39,39,86,1,87,0,puertorican,,,,,,,,,,,,,,,,,,,,,,,,,,,,,,,,,,,,,,,,,,,,,,,,,,,,,,,,
,,,,,,,,,67e82ac6e6f39b2aa9b57f59,spanish,13 or older,"no, only English or Spanish",yes,2025-08-12_14h05.40.072,empathy_intonation_perc_control,2024.2.4,Win32,120.4819277,67e82ac6e6f39b2aa9b57f59,68817205a84113384fffdfe3,689b82198590ff4b4685f338,,,,,,,,,,,,./stim/wavs/castilian_match_declarative-broad-focus_Manuela-vende-el-carro.wav,0,,,155.9855,158.5435,0,1,2.0477,,0,40,40,46,1,47,0,castilian,,,,,,,,,,,,,,,,,,,,,,,,,,,,,,,,,,,,,,,,,,,,,,,,,,,,,,,,
,,,,,,,,,67e82ac6e6f39b2aa9b57f59,spanish,13 or older,"no, only English or Spanish",yes,2025-08-12_14h05.40.072,empathy_intonation_perc_control,2024.2.4,Win32,120.4819277,67e82ac6e6f39b2aa9b57f59,68817205a84113384fffdfe3,689b82198590ff4b4685f338,,,,,,,,,,,,./stim/wavs/castilian_match_interrogative-total-yn_David-leia-el-libro.wav,1,,,158.5438,160.7174,1,1,1.6656,,0,41,41,0,1,1,0,castilian,,,,,,,,,,,,,,,,,,,,,,,,,,,,,,,,,,,,,,,,,,,,,,,,,,,,,,,,
,,,,,,,,,67e82ac6e6f39b2aa9b57f59,spanish,13 or older,"no, only English or Spanish",yes,2025-08-12_14h05.40.072,empathy_intonation_perc_control,2024.2.4,Win32,120.4819277,67e82ac6e6f39b2aa9b57f59,68817205a84113384fffdfe3,689b82198590ff4b4685f338,,,,,,,,,,,,./stim/wavs/mexican_mismatch_declarative-broad-focus_La-maestra-vive-en-Paris.wav,0,,,160.7177,162.9566,1,0,1.7216,,0,42,42,80,1,81,0,mexican,,,,,,,,,,,,,,,,,,,,,,,,,,,,,,,,,,,,,,,,,,,,,,,,,,,,,,,,
,,,,,,,,,67e82ac6e6f39b2aa9b57f59,spanish,13 or older,"no, only English or Spanish",yes,2025-08-12_14h05.40.072,empathy_intonation_perc_control,2024.2.4,Win32,120.4819277,67e82ac6e6f39b2aa9b57f59,68817205a84113384fffdfe3,689b82198590ff4b4685f338,,,,,,,,,,,,./stim/wavs/puertorican_match_interrogative-total-yn_Emilio-ama-la-marcha.wav,1,,,162.958,165.1666,1,1,1.6996,,0,43,43,21,1,22,1,puertorican,,,,,,,,,,,,,,,,,,,,,,,,,,,,,,,,,,,,,,,,,,,,,,,,,,,,,,,,
,,,,,,,,,67e82ac6e6f39b2aa9b57f59,spanish,13 or older,"no, only English or Spanish",yes,2025-08-12_14h05.40.072,empathy_intonation_perc_control,2024.2.4,Win32,120.4819277,67e82ac6e6f39b2aa9b57f59,68817205a84113384fffdfe3,689b82198590ff4b4685f338,,,,,,,,,,,,./stim/wavs/mexican_mismatch_interrogative-total-yn_La-maestra-vive-en-Paris.wav,1,,,165.1669,167.4231,1,1,1.7469,,0,44,44,36,1,37,0,mexican,,,,,,,,,,,,,,,,,,,,,,,,,,,,,,,,,,,,,,,,,,,,,,,,,,,,,,,,
,,,,,,,,,67e82ac6e6f39b2aa9b57f59,spanish,13 or older,"no, only English or Spanish",yes,2025-08-12_14h05.40.072,empathy_intonation_perc_control,2024.2.4,Win32,120.4819277,67e82ac6e6f39b2aa9b57f59,68817205a84113384fffdfe3,689b82198590ff4b4685f338,,,,,,,,,,,,./stim/wavs/cuban_mismatch_interrogative-total-yn_Mi-novio-viene-del-lago.wav,1,,,167.4239,169.825,1,1,1.8908,,0,45,45,32,1,33,1,cuban,,,,,,,,,,,,,,,,,,,,,,,,,,,,,,,,,,,,,,,,,,,,,,,,,,,,,,,,
,,,,,,,,,67e82ac6e6f39b2aa9b57f59,spanish,13 or older,"no, only English or Spanish",yes,2025-08-12_14h05.40.072,empathy_intonation_perc_control,2024.2.4,Win32,120.4819277,67e82ac6e6f39b2aa9b57f59,68817205a84113384fffdfe3,689b82198590ff4b4685f338,,,,,,,,,,,,./stim/wavs/puertorican_match_declarative-broad-focus_David-leia-el-libro.wav,0,,,169.8253,171.7749,0,1,1.4417,,0,46,46,64,1,65,0,puertorican,,,,,,,,,,,,,,,,,,,,,,,,,,,,,,,,,,,,,,,,,,,,,,,,,,,,,,,,
,,,,,,,,,67e82ac6e6f39b2aa9b57f59,spanish,13 or older,"no, only English or Spanish",yes,2025-08-12_14h05.40.072,empathy_intonation_perc_control,2024.2.4,Win32,120.4819277,67e82ac6e6f39b2aa9b57f59,68817205a84113384fffdfe3,689b82198590ff4b4685f338,,,,,,,,,,,,./stim/wavs/puertorican_match_interrogative-total-yn_David-leia-el-libro.wav,1,,,171.7754,173.7848,1,1,1.4927,,0,47,47,20,1,21,1,puertorican,,,,,,,,,,,,,,,,,,,,,,,,,,,,,,,,,,,,,,,,,,,,,,,,,,,,,,,,
,,,,,,,,,67e82ac6e6f39b2aa9b57f59,spanish,13 or older,"no, only English or Spanish",yes,2025-08-12_14h05.40.072,empathy_intonation_perc_control,2024.2.4,Win32,120.4819277,67e82ac6e6f39b2aa9b57f59,68817205a84113384fffdfe3,689b82198590ff4b4685f338,,,,,,,,,,,,./stim/wavs/cuban_mismatch_declarative-broad-focus_El-hombre-mira-la-luna.wav,0,,,173.7873,175.7175,0,1,1.4221,,0,48,48,74,1,75,0,cuban,,,,,,,,,,,,,,,,,,,,,,,,,,,,,,,,,,,,,,,,,,,,,,,,,,,,,,,,
,,,,,,,,,67e82ac6e6f39b2aa9b57f59,spanish,13 or older,"no, only English or Spanish",yes,2025-08-12_14h05.40.072,empathy_intonation_perc_control,2024.2.4,Win32,120.4819277,67e82ac6e6f39b2aa9b57f59,68817205a84113384fffdfe3,689b82198590ff4b4685f338,,,,,,,,,,,,./stim/wavs/cuban_match_interrogative-total-yn_Maria-bebe-el-vino.wav,1,,,175.7196,180.5009,0,0,4.2713,,0,49,49,9,1,10,1,cuban,,,,,,,,,,,,,,,,,,,,,,,,,,,,,,,,,,,,,,,,,,,,,,,,,,,,,,,,
,,,,,,,,,67e82ac6e6f39b2aa9b57f59,spanish,13 or older,"no, only English or Spanish",yes,2025-08-12_14h05.40.072,empathy_intonation_perc_control,2024.2.4,Win32,120.4819277,67e82ac6e6f39b2aa9b57f59,68817205a84113384fffdfe3,689b82198590ff4b4685f338,,,,,,,,,,,,./stim/wavs/mexican_match_declarative-broad-focus_Marta-abre-el-regalo.wav,0,,,180.5029,182.6898,0,1,1.6744,,0,50,50,61,1,62,0,mexican,,,,,,,,,,,,,,,,,,,,,,,,,,,,,,,,,,,,,,,,,,,,,,,,,,,,,,,,
,,,,,,,,,67e82ac6e6f39b2aa9b57f59,spanish,13 or older,"no, only English or Spanish",yes,2025-08-12_14h05.40.072,empathy_intonation_perc_control,2024.2.4,Win32,120.4819277,67e82ac6e6f39b2aa9b57f59,68817205a84113384fffdfe3,689b82198590ff4b4685f338,,,,,,,,,,,,./stim/wavs/cuban_match_interrogative-total-yn_Ana-lleva-el-abrigo.wav,1,,,182.6901,184.781,1,1,1.5749,,0,51,51,6,1,7,1,cuban,,,,,,,,,,,,,,,,,,,,,,,,,,,,,,,,,,,,,,,,,,,,,,,,,,,,,,,,
,,,,,,,,,67e82ac6e6f39b2aa9b57f59,spanish,13 or older,"no, only English or Spanish",yes,2025-08-12_14h05.40.072,empathy_intonation_perc_control,2024.2.4,Win32,120.4819277,67e82ac6e6f39b2aa9b57f59,68817205a84113384fffdfe3,689b82198590ff4b4685f338,,,,,,,,,,,,./stim/wavs/mexican_match_interrogative-total-yn_Mariano-habla-del-tiempo.wav,1,,,184.7813,186.9884,0,0,1.6911,,0,52,52,16,1,17,0,mexican,,,,,,,,,,,,,,,,,,,,,,,,,,,,,,,,,,,,,,,,,,,,,,,,,,,,,,,,
,,,,,,,,,67e82ac6e6f39b2aa9b57f59,spanish,13 or older,"no, only English or Spanish",yes,2025-08-12_14h05.40.072,empathy_intonation_perc_control,2024.2.4,Win32,120.4819277,67e82ac6e6f39b2aa9b57f59,68817205a84113384fffdfe3,689b82198590ff4b4685f338,,,,,,,,,,,,./stim/wavs/mexican_match_declarative-broad-focus_Emilio-ama-la-marcha.wav,0,,,186.9886,189.4718,0,1,1.9665,,0,53,53,59,1,60,0,mexican,,,,,,,,,,,,,,,,,,,,,,,,,,,,,,,,,,,,,,,,,,,,,,,,,,,,,,,,
,,,,,,,,,67e82ac6e6f39b2aa9b57f59,spanish,13 or older,"no, only English or Spanish",yes,2025-08-12_14h05.40.072,empathy_intonation_perc_control,2024.2.4,Win32,120.4819277,67e82ac6e6f39b2aa9b57f59,68817205a84113384fffdfe3,689b82198590ff4b4685f338,,,,,,,,,,,,./stim/wavs/puertorican_mismatch_declarative-broad-focus_El-nino-oye-el-rio.wav,0,,,189.4722,191.8483,0,1,1.8665,,0,54,54,85,1,86,0,puertorican,,,,,,,,,,,,,,,,,,,,,,,,,,,,,,,,,,,,,,,,,,,,,,,,,,,,,,,,
,,,,,,,,,67e82ac6e6f39b2aa9b57f59,spanish,13 or older,"no, only English or Spanish",yes,2025-08-12_14h05.40.072,empathy_intonation_perc_control,2024.2.4,Win32,120.4819277,67e82ac6e6f39b2aa9b57f59,68817205a84113384fffdfe3,689b82198590ff4b4685f338,,,,,,,,,,,,./stim/wavs/cuban_mismatch_declarative-broad-focus_Mi-tia-odia-la-lluvia.wav,0,,,191.8487,194.1393,0,1,1.7752,,0,55,55,77,1,78,0,cuban,,,,,,,,,,,,,,,,,,,,,,,,,,,,,,,,,,,,,,,,,,,,,,,,,,,,,,,,
,,,,,,,,,67e82ac6e6f39b2aa9b57f59,spanish,13 or older,"no, only English or Spanish",yes,2025-08-12_14h05.40.072,empathy_intonation_perc_control,2024.2.4,Win32,120.4819277,67e82ac6e6f39b2aa9b57f59,68817205a84113384fffdfe3,689b82198590ff4b4685f338,,,,,,,,,,,,./stim/wavs/cuban_match_interrogative-total-yn_Marta-abre-el-regalo.wav,1,,,194.1398,196.6554,0,0,2.0001,,0,56,56,11,1,12,1,cuban,,,,,,,,,,,,,,,,,,,,,,,,,,,,,,,,,,,,,,,,,,,,,,,,,,,,,,,,
,,,,,,,,,67e82ac6e6f39b2aa9b57f59,spanish,13 or older,"no, only English or Spanish",yes,2025-08-12_14h05.40.072,empathy_intonation_perc_control,2024.2.4,Win32,120.4819277,67e82ac6e6f39b2aa9b57f59,68817205a84113384fffdfe3,689b82198590ff4b4685f338,,,,,,,,,,,,./stim/wavs/mexican_match_interrogative-total-yn_David-leia-el-libro.wav,1,,,196.6558,199.2384,1,1,2.0672,,0,57,57,14,1,15,0,mexican,,,,,,,,,,,,,,,,,,,,,,,,,,,,,,,,,,,,,,,,,,,,,,,,,,,,,,,,
,,,,,,,,,67e82ac6e6f39b2aa9b57f59,spanish,13 or older,"no, only English or Spanish",yes,2025-08-12_14h05.40.072,empathy_intonation_perc_control,2024.2.4,Win32,120.4819277,67e82ac6e6f39b2aa9b57f59,68817205a84113384fffdfe3,689b82198590ff4b4685f338,,,,,,,,,,,,./stim/wavs/mexican_match_declarative-broad-focus_Daniel-iba-a-Bolivia.wav,0,,,199.2388,201.1952,0,1,1.4441,,0,58,58,57,1,58,0,mexican,,,,,,,,,,,,,,,,,,,,,,,,,,,,,,,,,,,,,,,,,,,,,,,,,,,,,,,,
,,,,,,,,,67e82ac6e6f39b2aa9b57f59,spanish,13 or older,"no, only English or Spanish",yes,2025-08-12_14h05.40.072,empathy_intonation_perc_control,2024.2.4,Win32,120.4819277,67e82ac6e6f39b2aa9b57f59,68817205a84113384fffdfe3,689b82198590ff4b4685f338,,,,,,,,,,,,./stim/wavs/castilian_match_declarative-broad-focus_Mariano-habla-del-tiempo.wav,0,,,201.1956,203.6911,0,1,1.9858,,0,59,59,48,1,49,0,castilian,,,,,,,,,,,,,,,,,,,,,,,,,,,,,,,,,,,,,,,,,,,,,,,,,,,,,,,,
,,,,,,,,,67e82ac6e6f39b2aa9b57f59,spanish,13 or older,"no, only English or Spanish",yes,2025-08-12_14h05.40.072,empathy_intonation_perc_control,2024.2.4,Win32,120.4819277,67e82ac6e6f39b2aa9b57f59,68817205a84113384fffdfe3,689b82198590ff4b4685f338,,,,,,,,,,,,./stim/wavs/castilian_match_declarative-broad-focus_David-leia-el-libro.wav,0,,,203.6922,205.9797,0,1,1.7746,,0,60,60,44,1,45,0,castilian,,,,,,,,,,,,,,,,,,,,,,,,,,,,,,,,,,,,,,,,,,,,,,,,,,,,,,,,
,,,,,,,,,67e82ac6e6f39b2aa9b57f59,spanish,13 or older,"no, only English or Spanish",yes,2025-08-12_14h05.40.072,empathy_intonation_perc_control,2024.2.4,Win32,120.4819277,67e82ac6e6f39b2aa9b57f59,68817205a84113384fffdfe3,689b82198590ff4b4685f338,,,,,,,,,,,,./stim/wavs/cuban_mismatch_interrogative-total-yn_Mi-madre-come-la-fruta.wav,1,,,205.982,209.3791,1,1,2.8833,,0,61,61,31,1,32,1,cuban,,,,,,,,,,,,,,,,,,,,,,,,,,,,,,,,,,,,,,,,,,,,,,,,,,,,,,,,
,,,,,,,,,67e82ac6e6f39b2aa9b57f59,spanish,13 or older,"no, only English or Spanish",yes,2025-08-12_14h05.40.072,empathy_intonation_perc_control,2024.2.4,Win32,120.4819277,67e82ac6e6f39b2aa9b57f59,68817205a84113384fffdfe3,689b82198590ff4b4685f338,,,,,,,,,,,,./stim/wavs/puertorican_mismatch_declarative-broad-focus_La-nina-lava-el-plato.wav,0,,,209.3816,211.5431,0,1,1.6502,,0,62,62,87,1,88,0,puertorican,,,,,,,,,,,,,,,,,,,,,,,,,,,,,,,,,,,,,,,,,,,,,,,,,,,,,,,,
,,,,,,,,,67e82ac6e6f39b2aa9b57f59,spanish,13 or older,"no, only English or Spanish",yes,2025-08-12_14h05.40.072,empathy_intonation_perc_control,2024.2.4,Win32,120.4819277,67e82ac6e6f39b2aa9b57f59,68817205a84113384fffdfe3,689b82198590ff4b4685f338,,,,,,,,,,,,./stim/wavs/cuban_mismatch_declarative-broad-focus_La-nina-lava-el-plato.wav,0,,,211.5434,213.6368,0,1,1.5761,,0,63,63,75,1,76,0,cuban,,,,,,,,,,,,,,,,,,,,,,,,,,,,,,,,,,,,,,,,,,,,,,,,,,,,,,,,
,,,,,,,,,67e82ac6e6f39b2aa9b57f59,spanish,13 or older,"no, only English or Spanish",yes,2025-08-12_14h05.40.072,empathy_intonation_perc_control,2024.2.4,Win32,120.4819277,67e82ac6e6f39b2aa9b57f59,68817205a84113384fffdfe3,689b82198590ff4b4685f338,,,,,,,,,,,,./stim/wavs/puertorican_mismatch_declarative-broad-focus_El-bebe-comia-muy-bien.wav,0,,,213.6392,216.6428,0,1,2.4964,,0,64,64,83,1,84,0,puertorican,,,,,,,,,,,,,,,,,,,,,,,,,,,,,,,,,,,,,,,,,,,,,,,,,,,,,,,,
,,,,,,,,,67e82ac6e6f39b2aa9b57f59,spanish,13 or older,"no, only English or Spanish",yes,2025-08-12_14h05.40.072,empathy_intonation_perc_control,2024.2.4,Win32,120.4819277,67e82ac6e6f39b2aa9b57f59,68817205a84113384fffdfe3,689b82198590ff4b4685f338,,,,,,,,,,,,./stim/wavs/castilian_match_declarative-broad-focus_Maria-bebe-el-vino.wav,0,,,216.6432,218.985,0,1,1.8325,,0,65,65,47,1,48,0,castilian,,,,,,,,,,,,,,,,,,,,,,,,,,,,,,,,,,,,,,,,,,,,,,,,,,,,,,,,
,,,,,,,,,67e82ac6e6f39b2aa9b57f59,spanish,13 or older,"no, only English or Spanish",yes,2025-08-12_14h05.40.072,empathy_intonation_perc_control,2024.2.4,Win32,120.4819277,67e82ac6e6f39b2aa9b57f59,68817205a84113384fffdfe3,689b82198590ff4b4685f338,,,,,,,,,,,,./stim/wavs/cuban_mismatch_declarative-broad-focus_Mi-novio-viene-del-lago.wav,0,,,218.9863,222.4778,0,1,2.9821,,0,66,66,76,1,77,0,cuban,,,,,,,,,,,,,,,,,,,,,,,,,,,,,,,,,,,,,,,,,,,,,,,,,,,,,,,,
,,,,,,,,,67e82ac6e6f39b2aa9b57f59,spanish,13 or older,"no, only English or Spanish",yes,2025-08-12_14h05.40.072,empathy_intonation_perc_control,2024.2.4,Win32,120.4819277,67e82ac6e6f39b2aa9b57f59,68817205a84113384fffdfe3,689b82198590ff4b4685f338,,,,,,,,,,,,./stim/wavs/castilian_mismatch_interrogative-total-yn_Mi-novio-viene-del-lago.wav,1,,,222.4799,224.8514,1,1,1.8587,,0,67,67,27,1,28,0,castilian,,,,,,,,,,,,,,,,,,,,,,,,,,,,,,,,,,,,,,,,,,,,,,,,,,,,,,,,
,,,,,,,,,67e82ac6e6f39b2aa9b57f59,spanish,13 or older,"no, only English or Spanish",yes,2025-08-12_14h05.40.072,empathy_intonation_perc_control,2024.2.4,Win32,120.4819277,67e82ac6e6f39b2aa9b57f59,68817205a84113384fffdfe3,689b82198590ff4b4685f338,,,,,,,,,,,,./stim/wavs/cuban_match_declarative-broad-focus_Manuela-vende-el-carro.wav,0,,,224.8539,227.1445,0,1,1.7833,,0,68,68,52,1,53,0,cuban,,,,,,,,,,,,,,,,,,,,,,,,,,,,,,,,,,,,,,,,,,,,,,,,,,,,,,,,
,,,,,,,,,67e82ac6e6f39b2aa9b57f59,spanish,13 or older,"no, only English or Spanish",yes,2025-08-12_14h05.40.072,empathy_intonation_perc_control,2024.2.4,Win32,120.4819277,67e82ac6e6f39b2aa9b57f59,68817205a84113384fffdfe3,689b82198590ff4b4685f338,,,,,,,,,,,,./stim/wavs/puertorican_match_interrogative-total-yn_Maria-bebe-el-vino.wav,1,,,227.1465,229.0512,1,1,1.3843,,0,69,69,23,1,24,1,puertorican,,,,,,,,,,,,,,,,,,,,,,,,,,,,,,,,,,,,,,,,,,,,,,,,,,,,,,,,
,,,,,,,,,67e82ac6e6f39b2aa9b57f59,spanish,13 or older,"no, only English or Spanish",yes,2025-08-12_14h05.40.072,empathy_intonation_perc_control,2024.2.4,Win32,120.4819277,67e82ac6e6f39b2aa9b57f59,68817205a84113384fffdfe3,689b82198590ff4b4685f338,,,,,,,,,,,,./stim/wavs/castilian_match_interrogative-total-yn_Emilio-ama-la-marcha.wav,1,,,229.0533,231.407,1,1,1.8415,,0,70,70,1,1,2,0,castilian,,,,,,,,,,,,,,,,,,,,,,,,,,,,,,,,,,,,,,,,,,,,,,,,,,,,,,,,
,,,,,,,,,67e82ac6e6f39b2aa9b57f59,spanish,13 or older,"no, only English or Spanish",yes,2025-08-12_14h05.40.072,empathy_intonation_perc_control,2024.2.4,Win32,120.4819277,67e82ac6e6f39b2aa9b57f59,68817205a84113384fffdfe3,689b82198590ff4b4685f338,,,,,,,,,,,,./stim/wavs/mexican_mismatch_interrogative-total-yn_El-nino-oye-el-rio.wav,1,,,231.4073,233.3818,0,0,1.4586,,0,71,71,35,1,36,0,mexican,,,,,,,,,,,,,,,,,,,,,,,,,,,,,,,,,,,,,,,,,,,,,,,,,,,,,,,,
,,,,,,,,,67e82ac6e6f39b2aa9b57f59,spanish,13 or older,"no, only English or Spanish",yes,2025-08-12_14h05.40.072,empathy_intonation_perc_control,2024.2.4,Win32,120.4819277,67e82ac6e6f39b2aa9b57f59,68817205a84113384fffdfe3,689b82198590ff4b4685f338,,,,,,,,,,,,./stim/wavs/castilian_mismatch_interrogative-total-yn_Mi-madre-come-la-fruta.wav,1,,,233.3821,235.9604,1,1,2.0613,,0,72,72,26,1,27,0,castilian,,,,,,,,,,,,,,,,,,,,,,,,,,,,,,,,,,,,,,,,,,,,,,,,,,,,,,,,
,,,,,,,,,67e82ac6e6f39b2aa9b57f59,spanish,13 or older,"no, only English or Spanish",yes,2025-08-12_14h05.40.072,empathy_intonation_perc_control,2024.2.4,Win32,120.4819277,67e82ac6e6f39b2aa9b57f59,68817205a84113384fffdfe3,689b82198590ff4b4685f338,,,,,,,,,,,,./stim/wavs/mexican_mismatch_interrogative-total-yn_Mi-novio-viene-del-lago.wav,1,,,235.9621,238.4472,1,1,1.9793,,0,73,73,37,1,38,0,mexican,,,,,,,,,,,,,,,,,,,,,,,,,,,,,,,,,,,,,,,,,,,,,,,,,,,,,,,,
,,,,,,,,,67e82ac6e6f39b2aa9b57f59,spanish,13 or older,"no, only English or Spanish",yes,2025-08-12_14h05.40.072,empathy_intonation_perc_control,2024.2.4,Win32,120.4819277,67e82ac6e6f39b2aa9b57f59,68817205a84113384fffdfe3,689b82198590ff4b4685f338,,,,,,,,,,,,./stim/wavs/mexican_match_declarative-broad-focus_Mariano-habla-del-tiempo.wav,0,,,238.4476,240.7215,0,1,1.7585,,0,74,74,60,1,61,0,mexican,,,,,,,,,,,,,,,,,,,,,,,,,,,,,,,,,,,,,,,,,,,,,,,,,,,,,,,,
,,,,,,,,,67e82ac6e6f39b2aa9b57f59,spanish,13 or older,"no, only English or Spanish",yes,2025-08-12_14h05.40.072,empathy_intonation_perc_control,2024.2.4,Win32,120.4819277,67e82ac6e6f39b2aa9b57f59,68817205a84113384fffdfe3,689b82198590ff4b4685f338,,,,,,,,,,,,./stim/wavs/puertorican_match_interrogative-total-yn_Manuela-vende-el-carro.wav,1,,,240.7219,242.8526,1,1,1.6179,,0,75,75,22,1,23,1,puertorican,,,,,,,,,,,,,,,,,,,,,,,,,,,,,,,,,,,,,,,,,,,,,,,,,,,,,,,,
,,,,,,,,,67e82ac6e6f39b2aa9b57f59,spanish,13 or older,"no, only English or Spanish",yes,2025-08-12_14h05.40.072,empathy_intonation_perc_control,2024.2.4,Win32,120.4819277,67e82ac6e6f39b2aa9b57f59,68817205a84113384fffdfe3,689b82198590ff4b4685f338,,,,,,,,,,,,./stim/wavs/mexican_mismatch_declarative-broad-focus_El-bebe-comia-muy-bien.wav,0,,,242.8541,244.9627,0,1,1.6034,,0,76,76,78,1,79,0,mexican,,,,,,,,,,,,,,,,,,,,,,,,,,,,,,,,,,,,,,,,,,,,,,,,,,,,,,,,
,,,,,,,,,67e82ac6e6f39b2aa9b57f59,spanish,13 or older,"no, only English or Spanish",yes,2025-08-12_14h05.40.072,empathy_intonation_perc_control,2024.2.4,Win32,120.4819277,67e82ac6e6f39b2aa9b57f59,68817205a84113384fffdfe3,689b82198590ff4b4685f338,,,,,,,,,,,,./stim/wavs/puertorican_mismatch_interrogative-total-yn_La-nina-lava-el-plato.wav,1,,,244.9631,247.0617,1,1,1.5827,,0,77,77,42,1,43,1,puertorican,,,,,,,,,,,,,,,,,,,,,,,,,,,,,,,,,,,,,,,,,,,,,,,,,,,,,,,,
,,,,,,,,,67e82ac6e6f39b2aa9b57f59,spanish,13 or older,"no, only English or Spanish",yes,2025-08-12_14h05.40.072,empathy_intonation_perc_control,2024.2.4,Win32,120.4819277,67e82ac6e6f39b2aa9b57f59,68817205a84113384fffdfe3,689b82198590ff4b4685f338,,,,,,,,,,,,./stim/wavs/castilian_match_interrogative-total-yn_Manuela-vende-el-carro.wav,1,,,247.0621,250.3771,1,1,2.7996,,0,78,78,2,1,3,0,castilian,,,,,,,,,,,,,,,,,,,,,,,,,,,,,,,,,,,,,,,,,,,,,,,,,,,,,,,,
,,,,,,,,,67e82ac6e6f39b2aa9b57f59,spanish,13 or older,"no, only English or Spanish",yes,2025-08-12_14h05.40.072,empathy_intonation_perc_control,2024.2.4,Win32,120.4819277,67e82ac6e6f39b2aa9b57f59,68817205a84113384fffdfe3,689b82198590ff4b4685f338,,,,,,,,,,,,./stim/wavs/cuban_match_interrogative-total-yn_Manuela-vende-el-carro.wav,1,,,250.3774,252.4572,1,1,1.5631,,0,79,79,8,1,9,1,cuban,,,,,,,,,,,,,,,,,,,,,,,,,,,,,,,,,,,,,,,,,,,,,,,,,,,,,,,,
,,,,,,,,,67e82ac6e6f39b2aa9b57f59,spanish,13 or older,"no, only English or Spanish",yes,2025-08-12_14h05.40.072,empathy_intonation_perc_control,2024.2.4,Win32,120.4819277,67e82ac6e6f39b2aa9b57f59,68817205a84113384fffdfe3,689b82198590ff4b4685f338,,,,,,,,,,,,./stim/wavs/puertorican_match_declarative-broad-focus_Ana-lleva-el-abrigo.wav,0,,,252.4587,254.4365,0,1,1.4594,,0,80,80,62,1,63,0,puertorican,,,,,,,,,,,,,,,,,,,,,,,,,,,,,,,,,,,,,,,,,,,,,,,,,,,,,,,,
,,,,,,,,,67e82ac6e6f39b2aa9b57f59,spanish,13 or older,"no, only English or Spanish",yes,2025-08-12_14h05.40.072,empathy_intonation_perc_control,2024.2.4,Win32,120.4819277,67e82ac6e6f39b2aa9b57f59,68817205a84113384fffdfe3,689b82198590ff4b4685f338,,,,,,,,,,,,./stim/wavs/castilian_mismatch_interrogative-total-yn_La-maestra-vive-en-Paris.wav,1,,,254.4369,256.9328,1,1,1.9847,,0,81,81,24,1,25,0,castilian,,,,,,,,,,,,,,,,,,,,,,,,,,,,,,,,,,,,,,,,,,,,,,,,,,,,,,,,
,,,,,,,,,67e82ac6e6f39b2aa9b57f59,spanish,13 or older,"no, only English or Spanish",yes,2025-08-12_14h05.40.072,empathy_intonation_perc_control,2024.2.4,Win32,120.4819277,67e82ac6e6f39b2aa9b57f59,68817205a84113384fffdfe3,689b82198590ff4b4685f338,,,,,,,,,,,,./stim/wavs/mexican_mismatch_declarative-broad-focus_Mi-novio-viene-del-lago.wav,0,,,256.9344,258.9079,0,1,1.4665,,0,82,82,81,1,82,0,mexican,,,,,,,,,,,,,,,,,,,,,,,,,,,,,,,,,,,,,,,,,,,,,,,,,,,,,,,,
,,,,,,,,,67e82ac6e6f39b2aa9b57f59,spanish,13 or older,"no, only English or Spanish",yes,2025-08-12_14h05.40.072,empathy_intonation_perc_control,2024.2.4,Win32,120.4819277,67e82ac6e6f39b2aa9b57f59,68817205a84113384fffdfe3,689b82198590ff4b4685f338,,,,,,,,,,,,./stim/wavs/castilian_match_interrogative-total-yn_Mariano-habla-del-tiempo.wav,1,,,258.9091,261.3371,1,1,1.9092,,0,83,83,4,1,5,0,castilian,,,,,,,,,,,,,,,,,,,,,,,,,,,,,,,,,,,,,,,,,,,,,,,,,,,,,,,,
,,,,,,,,,67e82ac6e6f39b2aa9b57f59,spanish,13 or older,"no, only English or Spanish",yes,2025-08-12_14h05.40.072,empathy_intonation_perc_control,2024.2.4,Win32,120.4819277,67e82ac6e6f39b2aa9b57f59,68817205a84113384fffdfe3,689b82198590ff4b4685f338,,,,,,,,,,,,./stim/wavs/puertorican_mismatch_interrogative-total-yn_Mi-madre-come-la-fruta.wav,1,,,261.3384,263.9845,0,0,2.1384,,0,84,84,43,1,44,1,puertorican,,,,,,,,,,,,,,,,,,,,,,,,,,,,,,,,,,,,,,,,,,,,,,,,,,,,,,,,
,,,,,,,,,67e82ac6e6f39b2aa9b57f59,spanish,13 or older,"no, only English or Spanish",yes,2025-08-12_14h05.40.072,empathy_intonation_perc_control,2024.2.4,Win32,120.4819277,67e82ac6e6f39b2aa9b57f59,68817205a84113384fffdfe3,689b82198590ff4b4685f338,,,,,,,,,,,,./stim/wavs/puertorican_mismatch_interrogative-total-yn_El-hombre-mira-la-luna.wav,1,,,263.985,265.9057,1,1,1.4108,,0,85,85,39,1,40,1,puertorican,,,,,,,,,,,,,,,,,,,,,,,,,,,,,,,,,,,,,,,,,,,,,,,,,,,,,,,,
,,,,,,,,,67e82ac6e6f39b2aa9b57f59,spanish,13 or older,"no, only English or Spanish",yes,2025-08-12_14h05.40.072,empathy_intonation_perc_control,2024.2.4,Win32,120.4819277,67e82ac6e6f39b2aa9b57f59,68817205a84113384fffdfe3,689b82198590ff4b4685f338,,,,,,,,,,,,./stim/wavs/puertorican_match_declarative-broad-focus_Emilio-ama-la-marcha.wav,0,,,265.9067,267.9507,0,1,1.533,,0,86,86,65,1,66,0,puertorican,,,,,,,,,,,,,,,,,,,,,,,,,,,,,,,,,,,,,,,,,,,,,,,,,,,,,,,,
,,,,,,,,,67e82ac6e6f39b2aa9b57f59,spanish,13 or older,"no, only English or Spanish",yes,2025-08-12_14h05.40.072,empathy_intonation_perc_control,2024.2.4,Win32,120.4819277,67e82ac6e6f39b2aa9b57f59,68817205a84113384fffdfe3,689b82198590ff4b4685f338,,,,,,,,,,,,./stim/wavs/mexican_mismatch_declarative-broad-focus_El-hombre-mira-la-luna.wav,0,,,267.9509,269.9353,0,1,1.4752,,0,87,87,79,1,80,0,mexican,,,,,,,,,,,,,,,,,,,,,,,,,,,,,,,,,,,,,,,,,,,,,,,,,,,,,,,,
,,,,,,,"Great! Now we will move on. The next task consists of about 60 trials, in each of which you will see a string of letters. 
  
  Your task is to decide whether this is a real Spanish word or not.", (press the spacebar to continue),67e82ac6e6f39b2aa9b57f59,spanish,13 or older,"no, only English or Spanish",yes,2025-08-12_14h05.40.072,empathy_intonation_perc_control,2024.2.4,Win32,120.4819277,67e82ac6e6f39b2aa9b57f59,68817205a84113384fffdfe3,689b82198590ff4b4685f338,,,,,,,,,,,,,,,,,,,,,,,,,,,,,,269.9423,283.4648,0,0,0,0,1,,,,,,,,,,,,,,,,,,,,,,,,,,,,,,,,,,,,,,,,,,,,,,,,,
,,,,,,,"If you think it is an existing Spanish word, you type '1' (for 'REAL'), and if you think it is not an existing Spanish word, you type '0' (for 'FAKE').", (press the spacebar to continue),67e82ac6e6f39b2aa9b57f59,spanish,13 or older,"no, only English or Spanish",yes,2025-08-12_14h05.40.072,empathy_intonation_perc_control,2024.2.4,Win32,120.4819277,67e82ac6e6f39b2aa9b57f59,68817205a84113384fffdfe3,689b82198590ff4b4685f338,,,,,,,,,,,,,,,,,,,,,,,,,,,,,,283.4689,293.821,0,1,1,1,1,,,,,,,,,,,,,,,,,,,,,,,,,,,,,,,,,,,,,,,,,,,,,,,,,
,,,,,,,"If you are sure that the word exists, even though you don’t know its exact meaning, you may still respond '1' (REAL). 
  
  But if you are not sure if it is an existing word, you should respond '0' (FAKE).
  
  Let's do a practice round...", (press the spacebar to continue),67e82ac6e6f39b2aa9b57f59,spanish,13 or older,"no, only English or Spanish",yes,2025-08-12_14h05.40.072,empathy_intonation_perc_control,2024.2.4,Win32,120.4819277,67e82ac6e6f39b2aa9b57f59,68817205a84113384fffdfe3,689b82198590ff4b4685f338,,,,,,,,,,,,,,,,,,,,,,,,,,,,,,293.8223,309.3141,0,2,2,2,1,,,,,,,,,,,,,,,,,,,,,,,,,,,,,,,,,,,,,,,,,,,,,,,,,
,,,,,,,,,67e82ac6e6f39b2aa9b57f59,spanish,13 or older,"no, only English or Spanish",yes,2025-08-12_14h05.40.072,empathy_intonation_perc_control,2024.2.4,Win32,120.4819277,67e82ac6e6f39b2aa9b57f59,68817205a84113384fffdfe3,689b82198590ff4b4685f338,,,,,,,,,,,,,0,,,,,,,,,,,,,,,,,,,,,,,,309.3197,312.0207,1,0,2.1865,,312.021,313.0174,0,0,0,0,1,0,depiste,REAL,FAKE,,,,,,,,,,,,,,,,,,,,,,,,,,,,,,,,
,,,,,,,,,67e82ac6e6f39b2aa9b57f59,spanish,13 or older,"no, only English or Spanish",yes,2025-08-12_14h05.40.072,empathy_intonation_perc_control,2024.2.4,Win32,120.4819277,67e82ac6e6f39b2aa9b57f59,68817205a84113384fffdfe3,689b82198590ff4b4685f338,,,,,,,,,,,,,1,,,,,,,,,,,,,,,,,,,,,,,,313.0263,315.278,1,1,1.7495,,315.2787,316.2758,0,1,1,1,1,0,sí,REAL,FAKE,,,,,,,,,,,,,,,,,,,,,,,,,,,,,,,,
,,,,,,,,,67e82ac6e6f39b2aa9b57f59,spanish,13 or older,"no, only English or Spanish",yes,2025-08-12_14h05.40.072,empathy_intonation_perc_control,2024.2.4,Win32,120.4819277,67e82ac6e6f39b2aa9b57f59,68817205a84113384fffdfe3,689b82198590ff4b4685f338,,,,,,,,,,,,,0,,,,,,,,,,,,,,,,,,,,,,,,316.2767,318.0444,0,1,1.2583,,318.0445,319.0448,0,2,2,2,1,0,coné,REAL,FAKE,,,,,,,,,,,,,,,,,,,,,,,,,,,,,,,,
,,,,,,,,,67e82ac6e6f39b2aa9b57f59,spanish,13 or older,"no, only English or Spanish",yes,2025-08-12_14h05.40.072,empathy_intonation_perc_control,2024.2.4,Win32,120.4819277,67e82ac6e6f39b2aa9b57f59,68817205a84113384fffdfe3,689b82198590ff4b4685f338,,,,,,,,,,,,,0,,,,,,,,,,,,,,,,,,,,,,,,319.0455,321.2606,0,1,1.6979,,321.2606,322.2608,0,3,3,3,1,0,calpar,REAL,FAKE,,,,,,,,,,,,,,,,,,,,,,,,,,,,,,,,
,,,,,,,,,67e82ac6e6f39b2aa9b57f59,spanish,13 or older,"no, only English or Spanish",yes,2025-08-12_14h05.40.072,empathy_intonation_perc_control,2024.2.4,Win32,120.4819277,67e82ac6e6f39b2aa9b57f59,68817205a84113384fffdfe3,689b82198590ff4b4685f338,,,,,,,,,,,,,0,,,,,,,,,,,,,,,,,,,,,,,,322.2622,324.2518,1,0,1.4732,,324.2523,325.2521,0,4,4,4,1,0,joten,REAL,FAKE,,,,,,,,,,,,,,,,,,,,,,,,,,,,,,,,
,,,,,,,,,67e82ac6e6f39b2aa9b57f59,spanish,13 or older,"no, only English or Spanish",yes,2025-08-12_14h05.40.072,empathy_intonation_perc_control,2024.2.4,Win32,120.4819277,67e82ac6e6f39b2aa9b57f59,68817205a84113384fffdfe3,689b82198590ff4b4685f338,,,,,,,,,,,,,1,,,,,,,,,,,,,,,,,,,,,,,,325.2529,326.993,0,0,1.2222,,326.993,327.9933,0,5,5,5,1,0,sacapuntas,REAL,FAKE,,,,,,,,,,,,,,,,,,,,,,,,,,,,,,,,
,,,,,,,,,67e82ac6e6f39b2aa9b57f59,spanish,13 or older,"no, only English or Spanish",yes,2025-08-12_14h05.40.072,empathy_intonation_perc_control,2024.2.4,Win32,120.4819277,67e82ac6e6f39b2aa9b57f59,68817205a84113384fffdfe3,689b82198590ff4b4685f338,,,,,,,,,,,,,0,,,,,,,,,,,,,,,,,,,,,,,,327.9946,330.9257,0,1,2.415,,330.9261,331.926,0,6,6,6,1,0,priba,REAL,FAKE,,,,,,,,,,,,,,,,,,,,,,,,,,,,,,,,
,,,,,,,,,67e82ac6e6f39b2aa9b57f59,spanish,13 or older,"no, only English or Spanish",yes,2025-08-12_14h05.40.072,empathy_intonation_perc_control,2024.2.4,Win32,120.4819277,67e82ac6e6f39b2aa9b57f59,68817205a84113384fffdfe3,689b82198590ff4b4685f338,,,,,,,,,,,,,0,,,,,,,,,,,,,,,,,,,,,,,,331.9268,334.7584,1,0,2.3151,,334.759,335.7586,0,7,7,7,1,0,pelasula,REAL,FAKE,,,,,,,,,,,,,,,,,,,,,,,,,,,,,,,,
,,,,,,,,,67e82ac6e6f39b2aa9b57f59,spanish,13 or older,"no, only English or Spanish",yes,2025-08-12_14h05.40.072,empathy_intonation_perc_control,2024.2.4,Win32,120.4819277,67e82ac6e6f39b2aa9b57f59,68817205a84113384fffdfe3,689b82198590ff4b4685f338,,,,,,,,,,,,,1,,,,,,,,,,,,,,,,,,,,,,,,335.7593,337.6412,1,1,1.3649,,337.6417,338.6413,0,8,8,8,1,0,bien,REAL,FAKE,,,,,,,,,,,,,,,,,,,,,,,,,,,,,,,,
,,,,,,,,,67e82ac6e6f39b2aa9b57f59,spanish,13 or older,"no, only English or Spanish",yes,2025-08-12_14h05.40.072,empathy_intonation_perc_control,2024.2.4,Win32,120.4819277,67e82ac6e6f39b2aa9b57f59,68817205a84113384fffdfe3,689b82198590ff4b4685f338,,,,,,,,,,,,,1,,,,,,,,,,,,,,,,,,,,,,,,338.6426,340.981,1,1,1.8222,,340.981,341.9825,0,9,9,9,1,0,casa,REAL,FAKE,,,,,,,,,,,,,,,,,,,,,,,,,,,,,,,,
,,,,,,,,,67e82ac6e6f39b2aa9b57f59,spanish,13 or older,"no, only English or Spanish",yes,2025-08-12_14h05.40.072,empathy_intonation_perc_control,2024.2.4,Win32,120.4819277,67e82ac6e6f39b2aa9b57f59,68817205a84113384fffdfe3,689b82198590ff4b4685f338,,,,,,,,,,,,,0,,,,,,,,,,,,,,,,,,,,,,,,341.9859,343.4888,1,0,0.9824,,343.4892,344.483,0,10,10,10,1,0,lejo,REAL,FAKE,,,,,,,,,,,,,,,,,,,,,,,,,,,,,,,,
,,,,,,,,,67e82ac6e6f39b2aa9b57f59,spanish,13 or older,"no, only English or Spanish",yes,2025-08-12_14h05.40.072,empathy_intonation_perc_control,2024.2.4,Win32,120.4819277,67e82ac6e6f39b2aa9b57f59,68817205a84113384fffdfe3,689b82198590ff4b4685f338,,,,,,,,,,,,,0,,,,,,,,,,,,,,,,,,,,,,,,344.4861,346.4648,1,0,1.4684,,346.465,347.4591,0,11,11,11,1,0,pretantas,REAL,FAKE,,,,,,,,,,,,,,,,,,,,,,,,,,,,,,,,
,,,,,,,,,67e82ac6e6f39b2aa9b57f59,spanish,13 or older,"no, only English or Spanish",yes,2025-08-12_14h05.40.072,empathy_intonation_perc_control,2024.2.4,Win32,120.4819277,67e82ac6e6f39b2aa9b57f59,68817205a84113384fffdfe3,689b82198590ff4b4685f338,,,,,,,,,,,,,,,,,,,,,,,,,,,,,,,,,,,,,,,,,,,,,,,,,,,,,,347.46,349.2842,,,,,,,,,,,,,,,,,,,,,,,,,,,,,,
,,,,,,,,,67e82ac6e6f39b2aa9b57f59,spanish,13 or older,"no, only English or Spanish",yes,2025-08-12_14h05.40.072,empathy_intonation_perc_control,2024.2.4,Win32,120.4819277,67e82ac6e6f39b2aa9b57f59,68817205a84113384fffdfe3,689b82198590ff4b4685f338,,,,,,,,,,,,,1,,,,,,,,,,,,,,,,,,,,,,,,,,,,,,,,,,,,,51,candado,,,,,349.2926,351.515,1,1,1.6999,,0,0,0,50,1,REAL,FAKE,,,,,,,,,,,,,,,,,
,,,,,,,,,67e82ac6e6f39b2aa9b57f59,spanish,13 or older,"no, only English or Spanish",yes,2025-08-12_14h05.40.072,empathy_intonation_perc_control,2024.2.4,Win32,120.4819277,67e82ac6e6f39b2aa9b57f59,68817205a84113384fffdfe3,689b82198590ff4b4685f338,,,,,,,,,,,,,0,,,,,,,,,,,,,,,,,,,,,,,,,,,,,,,,,,,,,53,vegada,,,,,351.5178,352.7377,1,0,0.6981,,0,1,1,52,1,REAL,FAKE,,,,,,,,,,,,,,,,,
,,,,,,,,,67e82ac6e6f39b2aa9b57f59,spanish,13 or older,"no, only English or Spanish",yes,2025-08-12_14h05.40.072,empathy_intonation_perc_control,2024.2.4,Win32,120.4819277,67e82ac6e6f39b2aa9b57f59,68817205a84113384fffdfe3,689b82198590ff4b4685f338,,,,,,,,,,,,,1,,,,,,,,,,,,,,,,,,,,,,,,,,,,,,,,,,,,,59,besar,,,,,352.7384,354.2875,0,0,1.0336,,0,2,2,58,1,REAL,FAKE,,,,,,,,,,,,,,,,,
,,,,,,,,,67e82ac6e6f39b2aa9b57f59,spanish,13 or older,"no, only English or Spanish",yes,2025-08-12_14h05.40.072,empathy_intonation_perc_control,2024.2.4,Win32,120.4819277,67e82ac6e6f39b2aa9b57f59,68817205a84113384fffdfe3,689b82198590ff4b4685f338,,,,,,,,,,,,,0,,,,,,,,,,,,,,,,,,,,,,,,,,,,,,,,,,,,,47,cartinar,,,,,354.288,355.6927,0,1,0.8891,,0,3,3,46,1,REAL,FAKE,,,,,,,,,,,,,,,,,
,,,,,,,,,67e82ac6e6f39b2aa9b57f59,spanish,13 or older,"no, only English or Spanish",yes,2025-08-12_14h05.40.072,empathy_intonation_perc_control,2024.2.4,Win32,120.4819277,67e82ac6e6f39b2aa9b57f59,68817205a84113384fffdfe3,689b82198590ff4b4685f338,,,,,,,,,,,,,0,,,,,,,,,,,,,,,,,,,,,,,,,,,,,,,,,,,,,10,antar,,,,,355.6932,356.8281,0,1,0.6165,,0,4,4,9,1,REAL,FAKE,,,,,,,,,,,,,,,,,
,,,,,,,,,67e82ac6e6f39b2aa9b57f59,spanish,13 or older,"no, only English or Spanish",yes,2025-08-12_14h05.40.072,empathy_intonation_perc_control,2024.2.4,Win32,120.4819277,67e82ac6e6f39b2aa9b57f59,68817205a84113384fffdfe3,689b82198590ff4b4685f338,,,,,,,,,,,,,0,,,,,,,,,,,,,,,,,,,,,,,,,,,,,,,,,,,,,79,tropaje,,,,,356.8286,358.1781,1,0,0.8335,,0,5,5,78,1,REAL,FAKE,,,,,,,,,,,,,,,,,
,,,,,,,,,67e82ac6e6f39b2aa9b57f59,spanish,13 or older,"no, only English or Spanish",yes,2025-08-12_14h05.40.072,empathy_intonation_perc_control,2024.2.4,Win32,120.4819277,67e82ac6e6f39b2aa9b57f59,68817205a84113384fffdfe3,689b82198590ff4b4685f338,,,,,,,,,,,,,1,,,,,,,,,,,,,,,,,,,,,,,,,,,,,,,,,,,,,83,guante,,,,,358.1786,359.4864,1,1,0.7919,,0,6,6,82,1,REAL,FAKE,,,,,,,,,,,,,,,,,
,,,,,,,,,67e82ac6e6f39b2aa9b57f59,spanish,13 or older,"no, only English or Spanish",yes,2025-08-12_14h05.40.072,empathy_intonation_perc_control,2024.2.4,Win32,120.4819277,67e82ac6e6f39b2aa9b57f59,68817205a84113384fffdfe3,689b82198590ff4b4685f338,,,,,,,,,,,,,1,,,,,,,,,,,,,,,,,,,,,,,,,,,,,,,,,,,,,55,nevar,,,,,359.487,361.7165,1,1,1.7114,,0,7,7,54,1,REAL,FAKE,,,,,,,,,,,,,,,,,
,,,,,,,,,67e82ac6e6f39b2aa9b57f59,spanish,13 or older,"no, only English or Spanish",yes,2025-08-12_14h05.40.072,empathy_intonation_perc_control,2024.2.4,Win32,120.4819277,67e82ac6e6f39b2aa9b57f59,68817205a84113384fffdfe3,689b82198590ff4b4685f338,,,,,,,,,,,,,1,,,,,,,,,,,,,,,,,,,,,,,,,,,,,,,,,,,,,68,alegre,,,,,361.7185,362.9828,1,1,0.7537,,0,8,8,67,1,REAL,FAKE,,,,,,,,,,,,,,,,,
,,,,,,,,,67e82ac6e6f39b2aa9b57f59,spanish,13 or older,"no, only English or Spanish",yes,2025-08-12_14h05.40.072,empathy_intonation_perc_control,2024.2.4,Win32,120.4819277,67e82ac6e6f39b2aa9b57f59,68817205a84113384fffdfe3,689b82198590ff4b4685f338,,,,,,,,,,,,,1,,,,,,,,,,,,,,,,,,,,,,,,,,,,,,,,,,,,,78,frondoso,,,,,362.9852,364.3354,0,0,0.8334,,0,9,9,77,1,REAL,FAKE,,,,,,,,,,,,,,,,,
,,,,,,,,,67e82ac6e6f39b2aa9b57f59,spanish,13 or older,"no, only English or Spanish",yes,2025-08-12_14h05.40.072,empathy_intonation_perc_control,2024.2.4,Win32,120.4819277,67e82ac6e6f39b2aa9b57f59,68817205a84113384fffdfe3,689b82198590ff4b4685f338,,,,,,,,,,,,,1,,,,,,,,,,,,,,,,,,,,,,,,,,,,,,,,,,,,,52,camisa,,,,,364.3361,366.1102,1,1,1.2589,,0,10,10,51,1,REAL,FAKE,,,,,,,,,,,,,,,,,
,,,,,,,,,67e82ac6e6f39b2aa9b57f59,spanish,13 or older,"no, only English or Spanish",yes,2025-08-12_14h05.40.072,empathy_intonation_perc_control,2024.2.4,Win32,120.4819277,67e82ac6e6f39b2aa9b57f59,68817205a84113384fffdfe3,689b82198590ff4b4685f338,,,,,,,,,,,,,1,,,,,,,,,,,,,,,,,,,,,,,,,,,,,,,,,,,,,28,merodear,,,,,366.1109,367.9844,0,0,1.3567,,0,11,11,27,1,REAL,FAKE,,,,,,,,,,,,,,,,,
,,,,,,,,,67e82ac6e6f39b2aa9b57f59,spanish,13 or older,"no, only English or Spanish",yes,2025-08-12_14h05.40.072,empathy_intonation_perc_control,2024.2.4,Win32,120.4819277,67e82ac6e6f39b2aa9b57f59,68817205a84113384fffdfe3,689b82198590ff4b4685f338,,,,,,,,,,,,,1,,,,,,,,,,,,,,,,,,,,,,,,,,,,,,,,,,,,,41,rebuscar,,,,,367.9849,369.2684,0,0,0.7749,,0,12,12,40,1,REAL,FAKE,,,,,,,,,,,,,,,,,
,,,,,,,,,67e82ac6e6f39b2aa9b57f59,spanish,13 or older,"no, only English or Spanish",yes,2025-08-12_14h05.40.072,empathy_intonation_perc_control,2024.2.4,Win32,120.4819277,67e82ac6e6f39b2aa9b57f59,68817205a84113384fffdfe3,689b82198590ff4b4685f338,,,,,,,,,,,,,1,,,,,,,,,,,,,,,,,,,,,,,,,,,,,,,,,,,,,25,bisagra,,,,,369.2688,370.4265,0,0,0.6409,,0,13,13,24,1,REAL,FAKE,,,,,,,,,,,,,,,,,
,,,,,,,,,67e82ac6e6f39b2aa9b57f59,spanish,13 or older,"no, only English or Spanish",yes,2025-08-12_14h05.40.072,empathy_intonation_perc_control,2024.2.4,Win32,120.4819277,67e82ac6e6f39b2aa9b57f59,68817205a84113384fffdfe3,689b82198590ff4b4685f338,,,,,,,,,,,,,1,,,,,,,,,,,,,,,,,,,,,,,,,,,,,,,,,,,,,75,yacer,,,,,370.4271,371.5776,1,1,0.6251,,0,14,14,74,1,REAL,FAKE,,,,,,,,,,,,,,,,,
,,,,,,,,,67e82ac6e6f39b2aa9b57f59,spanish,13 or older,"no, only English or Spanish",yes,2025-08-12_14h05.40.072,empathy_intonation_perc_control,2024.2.4,Win32,120.4819277,67e82ac6e6f39b2aa9b57f59,68817205a84113384fffdfe3,689b82198590ff4b4685f338,,,,,,,,,,,,,0,,,,,,,,,,,,,,,,,,,,,,,,,,,,,,,,,,,,,8,cadeña,,,,,371.5812,373.6762,0,1,1.5757,,0,15,15,7,1,REAL,FAKE,,,,,,,,,,,,,,,,,
,,,,,,,,,67e82ac6e6f39b2aa9b57f59,spanish,13 or older,"no, only English or Spanish",yes,2025-08-12_14h05.40.072,empathy_intonation_perc_control,2024.2.4,Win32,120.4819277,67e82ac6e6f39b2aa9b57f59,68817205a84113384fffdfe3,689b82198590ff4b4685f338,,,,,,,,,,,,,1,,,,,,,,,,,,,,,,,,,,,,,,,,,,,,,,,,,,,20,ávido,,,,,373.677,375.409,1,1,1.2171,,0,16,16,19,1,REAL,FAKE,,,,,,,,,,,,,,,,,
,,,,,,,,,67e82ac6e6f39b2aa9b57f59,spanish,13 or older,"no, only English or Spanish",yes,2025-08-12_14h05.40.072,empathy_intonation_perc_control,2024.2.4,Win32,120.4819277,67e82ac6e6f39b2aa9b57f59,68817205a84113384fffdfe3,689b82198590ff4b4685f338,,,,,,,,,,,,,1,,,,,,,,,,,,,,,,,,,,,,,,,,,,,,,,,,,,,26,secuestro,,,,,375.4096,376.5874,1,1,0.661,,0,17,17,25,1,REAL,FAKE,,,,,,,,,,,,,,,,,
,,,,,,,,,67e82ac6e6f39b2aa9b57f59,spanish,13 or older,"no, only English or Spanish",yes,2025-08-12_14h05.40.072,empathy_intonation_perc_control,2024.2.4,Win32,120.4819277,67e82ac6e6f39b2aa9b57f59,68817205a84113384fffdfe3,689b82198590ff4b4685f338,,,,,,,,,,,,,1,,,,,,,,,,,,,,,,,,,,,,,,,,,,,,,,,,,,,91,click the 1 key.,,,,,376.5897,379.5411,1,1,2.433,,0,18,18,90,1,REAL,FAKE,,,,,,,,,,,,,,,,,
,,,,,,,,,67e82ac6e6f39b2aa9b57f59,spanish,13 or older,"no, only English or Spanish",yes,2025-08-12_14h05.40.072,empathy_intonation_perc_control,2024.2.4,Win32,120.4819277,67e82ac6e6f39b2aa9b57f59,68817205a84113384fffdfe3,689b82198590ff4b4685f338,,,,,,,,,,,,,1,,,,,,,,,,,,,,,,,,,,,,,,,,,,,,,,,,,,,13,helar,,,,,379.5416,380.7576,1,1,0.6987,,0,19,19,12,1,REAL,FAKE,,,,,,,,,,,,,,,,,
,,,,,,,,,67e82ac6e6f39b2aa9b57f59,spanish,13 or older,"no, only English or Spanish",yes,2025-08-12_14h05.40.072,empathy_intonation_perc_control,2024.2.4,Win32,120.4819277,67e82ac6e6f39b2aa9b57f59,68817205a84113384fffdfe3,689b82198590ff4b4685f338,,,,,,,,,,,,,1,,,,,,,,,,,,,,,,,,,,,,,,,,,,,,,,,,,,,54,fomentar,,,,,380.7581,381.9828,1,1,0.7082,,0,20,20,53,1,REAL,FAKE,,,,,,,,,,,,,,,,,
,,,,,,,,,67e82ac6e6f39b2aa9b57f59,spanish,13 or older,"no, only English or Spanish",yes,2025-08-12_14h05.40.072,empathy_intonation_perc_control,2024.2.4,Win32,120.4819277,67e82ac6e6f39b2aa9b57f59,68817205a84113384fffdfe3,689b82198590ff4b4685f338,,,,,,,,,,,,,0,,,,,,,,,,,,,,,,,,,,,,,,,,,,,,,,,,,,,16,abracer,,,,,381.9833,383.0409,0,1,0.5419,,0,21,21,15,1,REAL,FAKE,,,,,,,,,,,,,,,,,
,,,,,,,,,67e82ac6e6f39b2aa9b57f59,spanish,13 or older,"no, only English or Spanish",yes,2025-08-12_14h05.40.072,empathy_intonation_perc_control,2024.2.4,Win32,120.4819277,67e82ac6e6f39b2aa9b57f59,68817205a84113384fffdfe3,689b82198590ff4b4685f338,,,,,,,,,,,,,0,,,,,,,,,,,,,,,,,,,,,,,,,,,,,,,,,,,,,82,empirador,,,,,383.0414,384.5709,1,0,1.0124,,0,22,22,81,1,REAL,FAKE,,,,,,,,,,,,,,,,,
,,,,,,,,,67e82ac6e6f39b2aa9b57f59,spanish,13 or older,"no, only English or Spanish",yes,2025-08-12_14h05.40.072,empathy_intonation_perc_control,2024.2.4,Win32,120.4819277,67e82ac6e6f39b2aa9b57f59,68817205a84113384fffdfe3,689b82198590ff4b4685f338,,,,,,,,,,,,,1,,,,,,,,,,,,,,,,,,,,,,,,,,,,,,,,,,,,,61,seda,,,,,384.5729,385.8589,1,1,0.7751,,0,23,23,60,1,REAL,FAKE,,,,,,,,,,,,,,,,,
,,,,,,,,,67e82ac6e6f39b2aa9b57f59,spanish,13 or older,"no, only English or Spanish",yes,2025-08-12_14h05.40.072,empathy_intonation_perc_control,2024.2.4,Win32,120.4819277,67e82ac6e6f39b2aa9b57f59,68817205a84113384fffdfe3,689b82198590ff4b4685f338,,,,,,,,,,,,,1,,,,,,,,,,,,,,,,,,,,,,,,,,,,,,,,,,,,,56,musgo,,,,,385.8623,386.9317,1,1,0.5503,,0,24,24,55,1,REAL,FAKE,,,,,,,,,,,,,,,,,
,,,,,,,,,67e82ac6e6f39b2aa9b57f59,spanish,13 or older,"no, only English or Spanish",yes,2025-08-12_14h05.40.072,empathy_intonation_perc_control,2024.2.4,Win32,120.4819277,67e82ac6e6f39b2aa9b57f59,68817205a84113384fffdfe3,689b82198590ff4b4685f338,,,,,,,,,,,,,1,,,,,,,,,,,,,,,,,,,,,,,,,,,,,,,,,,,,,62,flaco,,,,,386.9322,388.0236,1,1,0.5755,,0,25,25,61,1,REAL,FAKE,,,,,,,,,,,,,,,,,
,,,,,,,,,67e82ac6e6f39b2aa9b57f59,spanish,13 or older,"no, only English or Spanish",yes,2025-08-12_14h05.40.072,empathy_intonation_perc_control,2024.2.4,Win32,120.4819277,67e82ac6e6f39b2aa9b57f59,68817205a84113384fffdfe3,689b82198590ff4b4685f338,,,,,,,,,,,,,0,,,,,,,,,,,,,,,,,,,,,,,,,,,,,,,,,,,,,63,esposante,,,,,388.0241,389.3561,1,0,0.8178,,0,26,26,62,1,REAL,FAKE,,,,,,,,,,,,,,,,,
,,,,,,,,,67e82ac6e6f39b2aa9b57f59,spanish,13 or older,"no, only English or Spanish",yes,2025-08-12_14h05.40.072,empathy_intonation_perc_control,2024.2.4,Win32,120.4819277,67e82ac6e6f39b2aa9b57f59,68817205a84113384fffdfe3,689b82198590ff4b4685f338,,,,,,,,,,,,,1,,,,,,,,,,,,,,,,,,,,,,,,,,,,,,,,,,,,,60,matar,,,,,389.3566,390.7302,0,0,0.8591,,0,27,27,59,1,REAL,FAKE,,,,,,,,,,,,,,,,,
,,,,,,,,,67e82ac6e6f39b2aa9b57f59,spanish,13 or older,"no, only English or Spanish",yes,2025-08-12_14h05.40.072,empathy_intonation_perc_control,2024.2.4,Win32,120.4819277,67e82ac6e6f39b2aa9b57f59,68817205a84113384fffdfe3,689b82198590ff4b4685f338,,,,,,,,,,,,,0,,,,,,,,,,,,,,,,,,,,,,,,,,,,,,,,,,,,,35,rompido,,,,,390.7308,392.2996,0,1,1.0511,,0,28,28,34,1,REAL,FAKE,,,,,,,,,,,,,,,,,
,,,,,,,,,67e82ac6e6f39b2aa9b57f59,spanish,13 or older,"no, only English or Spanish",yes,2025-08-12_14h05.40.072,empathy_intonation_perc_control,2024.2.4,Win32,120.4819277,67e82ac6e6f39b2aa9b57f59,68817205a84113384fffdfe3,689b82198590ff4b4685f338,,,,,,,,,,,,,1,,,,,,,,,,,,,,,,,,,,,,,,,,,,,,,,,,,,,77,tiburón,,,,,392.3033,393.8553,1,1,1.0339,,0,29,29,76,1,REAL,FAKE,,,,,,,,,,,,,,,,,
,,,,,,,,,67e82ac6e6f39b2aa9b57f59,spanish,13 or older,"no, only English or Spanish",yes,2025-08-12_14h05.40.072,empathy_intonation_perc_control,2024.2.4,Win32,120.4819277,67e82ac6e6f39b2aa9b57f59,68817205a84113384fffdfe3,689b82198590ff4b4685f338,,,,,,,,,,,,,1,,,,,,,,,,,,,,,,,,,,,,,,,,,,,,,,,,,,,65,bizcocho,,,,,393.856,396.1137,0,0,1.7415,,0,30,30,64,1,REAL,FAKE,,,,,,,,,,,,,,,,,
,,,,,,,,,67e82ac6e6f39b2aa9b57f59,spanish,13 or older,"no, only English or Spanish",yes,2025-08-12_14h05.40.072,empathy_intonation_perc_control,2024.2.4,Win32,120.4819277,67e82ac6e6f39b2aa9b57f59,68817205a84113384fffdfe3,689b82198590ff4b4685f338,,,,,,,,,,,,,0,,,,,,,,,,,,,,,,,,,,,,,,,,,,,,,,,,,,,50,flamida,,,,,396.1143,397.6699,0,1,1.0386,,0,31,31,49,1,REAL,FAKE,,,,,,,,,,,,,,,,,
,,,,,,,,,67e82ac6e6f39b2aa9b57f59,spanish,13 or older,"no, only English or Spanish",yes,2025-08-12_14h05.40.072,empathy_intonation_perc_control,2024.2.4,Win32,120.4819277,67e82ac6e6f39b2aa9b57f59,68817205a84113384fffdfe3,689b82198590ff4b4685f338,,,,,,,,,,,,,1,,,,,,,,,,,,,,,,,,,,,,,,,,,,,,,,,,,,,38,estornudar,,,,,397.6717,399.647,0,0,1.4665,,0,32,32,37,1,REAL,FAKE,,,,,,,,,,,,,,,,,
,,,,,,,,,67e82ac6e6f39b2aa9b57f59,spanish,13 or older,"no, only English or Spanish",yes,2025-08-12_14h05.40.072,empathy_intonation_perc_control,2024.2.4,Win32,120.4819277,67e82ac6e6f39b2aa9b57f59,68817205a84113384fffdfe3,689b82198590ff4b4685f338,,,,,,,,,,,,,1,,,,,,,,,,,,,,,,,,,,,,,,,,,,,,,,,,,,,57,tacaño,,,,,399.6477,400.9878,1,1,0.8248,,0,33,33,56,1,REAL,FAKE,,,,,,,,,,,,,,,,,
,,,,,,,,,67e82ac6e6f39b2aa9b57f59,spanish,13 or older,"no, only English or Spanish",yes,2025-08-12_14h05.40.072,empathy_intonation_perc_control,2024.2.4,Win32,120.4819277,67e82ac6e6f39b2aa9b57f59,68817205a84113384fffdfe3,689b82198590ff4b4685f338,,,,,,,,,,,,,0,,,,,,,,,,,,,,,,,,,,,,,,,,,,,,,,,,,,,70,temblo,,,,,400.9884,402.5015,0,1,0.9966,,0,34,34,69,1,REAL,FAKE,,,,,,,,,,,,,,,,,
,,,,,,,,,67e82ac6e6f39b2aa9b57f59,spanish,13 or older,"no, only English or Spanish",yes,2025-08-12_14h05.40.072,empathy_intonation_perc_control,2024.2.4,Win32,120.4819277,67e82ac6e6f39b2aa9b57f59,68817205a84113384fffdfe3,689b82198590ff4b4685f338,,,,,,,,,,,,,1,,,,,,,,,,,,,,,,,,,,,,,,,,,,,,,,,,,,,3,pulmones,,,,,402.5037,403.6682,1,1,0.6554,,0,35,35,2,1,REAL,FAKE,,,,,,,,,,,,,,,,,
,,,,,,,,,67e82ac6e6f39b2aa9b57f59,spanish,13 or older,"no, only English or Spanish",yes,2025-08-12_14h05.40.072,empathy_intonation_perc_control,2024.2.4,Win32,120.4819277,67e82ac6e6f39b2aa9b57f59,68817205a84113384fffdfe3,689b82198590ff4b4685f338,,,,,,,,,,,,,0,,,,,,,,,,,,,,,,,,,,,,,,,,,,,,,,,,,,,33,pauca,,,,,403.6687,404.8373,0,1,0.6503,,0,36,36,32,1,REAL,FAKE,,,,,,,,,,,,,,,,,
,,,,,,,,,67e82ac6e6f39b2aa9b57f59,spanish,13 or older,"no, only English or Spanish",yes,2025-08-12_14h05.40.072,empathy_intonation_perc_control,2024.2.4,Win32,120.4819277,67e82ac6e6f39b2aa9b57f59,68817205a84113384fffdfe3,689b82198590ff4b4685f338,,,,,,,,,,,,,1,,,,,,,,,,,,,,,,,,,,,,,,,,,,,,,,,,,,,76,atar,,,,,404.8378,405.8952,1,1,0.5416,,0,37,37,75,1,REAL,FAKE,,,,,,,,,,,,,,,,,
,,,,,,,,,67e82ac6e6f39b2aa9b57f59,spanish,13 or older,"no, only English or Spanish",yes,2025-08-12_14h05.40.072,empathy_intonation_perc_control,2024.2.4,Win32,120.4819277,67e82ac6e6f39b2aa9b57f59,68817205a84113384fffdfe3,689b82198590ff4b4685f338,,,,,,,,,,,,,0,,,,,,,,,,,,,,,,,,,,,,,,,,,,,,,,,,,,,18,arsa,,,,,405.8957,406.5073,0,1,0.0955,,0,38,38,17,1,REAL,FAKE,,,,,,,,,,,,,,,,,
,,,,,,,,,67e82ac6e6f39b2aa9b57f59,spanish,13 or older,"no, only English or Spanish",yes,2025-08-12_14h05.40.072,empathy_intonation_perc_control,2024.2.4,Win32,120.4819277,67e82ac6e6f39b2aa9b57f59,68817205a84113384fffdfe3,689b82198590ff4b4685f338,,,,,,,,,,,,,1,,,,,,,,,,,,,,,,,,,,,,,,,,,,,,,,,,,,,34,aviso,,,,,406.5102,407.2951,0,0,0.2661,,0,39,39,33,1,REAL,FAKE,,,,,,,,,,,,,,,,,
,,,,,,,,,67e82ac6e6f39b2aa9b57f59,spanish,13 or older,"no, only English or Spanish",yes,2025-08-12_14h05.40.072,empathy_intonation_perc_control,2024.2.4,Win32,120.4819277,67e82ac6e6f39b2aa9b57f59,68817205a84113384fffdfe3,689b82198590ff4b4685f338,,,,,,,,,,,,,1,,,,,,,,,,,,,,,,,,,,,,,,,,,,,,,,,,,,,85,laúd,,,,,407.2958,408.4366,1,1,0.6242,,0,40,40,84,1,REAL,FAKE,,,,,,,,,,,,,,,,,
,,,,,,,,,67e82ac6e6f39b2aa9b57f59,spanish,13 or older,"no, only English or Spanish",yes,2025-08-12_14h05.40.072,empathy_intonation_perc_control,2024.2.4,Win32,120.4819277,67e82ac6e6f39b2aa9b57f59,68817205a84113384fffdfe3,689b82198590ff4b4685f338,,,,,,,,,,,,,1,,,,,,,,,,,,,,,,,,,,,,,,,,,,,,,,,,,,,45,jilguero,,,,,408.4372,408.9699,1,1,0.0167,,0,41,41,44,1,REAL,FAKE,,,,,,,,,,,,,,,,,
,,,,,,,,,67e82ac6e6f39b2aa9b57f59,spanish,13 or older,"no, only English or Spanish",yes,2025-08-12_14h05.40.072,empathy_intonation_perc_control,2024.2.4,Win32,120.4819277,67e82ac6e6f39b2aa9b57f59,68817205a84113384fffdfe3,689b82198590ff4b4685f338,,,,,,,,,,,,,1,,,,,,,,,,,,,,,,,,,,,,,,,,,,,,,,,,,,,14,yunque,,,,,408.9704,409.9572,1,1,0.4702,,0,42,42,13,1,REAL,FAKE,,,,,,,,,,,,,,,,,
,,,,,,,,,67e82ac6e6f39b2aa9b57f59,spanish,13 or older,"no, only English or Spanish",yes,2025-08-12_14h05.40.072,empathy_intonation_perc_control,2024.2.4,Win32,120.4819277,67e82ac6e6f39b2aa9b57f59,68817205a84113384fffdfe3,689b82198590ff4b4685f338,,,,,,,,,,,,,1,,,,,,,,,,,,,,,,,,,,,,,,,,,,,,,,,,,,,81,pozo,,,,,409.9595,410.8863,1,1,0.4164,,0,43,43,80,1,REAL,FAKE,,,,,,,,,,,,,,,,,
,,,,,,,,,67e82ac6e6f39b2aa9b57f59,spanish,13 or older,"no, only English or Spanish",yes,2025-08-12_14h05.40.072,empathy_intonation_perc_control,2024.2.4,Win32,120.4819277,67e82ac6e6f39b2aa9b57f59,68817205a84113384fffdfe3,689b82198590ff4b4685f338,,,,,,,,,,,,,1,,,,,,,,,,,,,,,,,,,,,,,,,,,,,,,,,,,,,71,polvoriento,,,,,410.8869,411.6752,1,1,0.2713,,0,44,44,70,1,REAL,FAKE,,,,,,,,,,,,,,,,,
,,,,,,,,,67e82ac6e6f39b2aa9b57f59,spanish,13 or older,"no, only English or Spanish",yes,2025-08-12_14h05.40.072,empathy_intonation_perc_control,2024.2.4,Win32,120.4819277,67e82ac6e6f39b2aa9b57f59,68817205a84113384fffdfe3,689b82198590ff4b4685f338,,,,,,,,,,,,,1,,,,,,,,,,,,,,,,,,,,,,,,,,,,,,,,,,,,,31,pandilla,,,,,411.6773,412.373,1,1,0.186,,0,45,45,30,1,REAL,FAKE,,,,,,,,,,,,,,,,,
,,,,,,,,,67e82ac6e6f39b2aa9b57f59,spanish,13 or older,"no, only English or Spanish",yes,2025-08-12_14h05.40.072,empathy_intonation_perc_control,2024.2.4,Win32,120.4819277,67e82ac6e6f39b2aa9b57f59,68817205a84113384fffdfe3,689b82198590ff4b4685f338,,,,,,,,,,,,,0,,,,,,,,,,,,,,,,,,,,,,,,,,,,,,,,,,,,,42,cadallo,,,,,412.3756,413.0694,1,0,0.1832,,0,46,46,41,1,REAL,FAKE,,,,,,,,,,,,,,,,,
,,,,,,,,,67e82ac6e6f39b2aa9b57f59,spanish,13 or older,"no, only English or Spanish",yes,2025-08-12_14h05.40.072,empathy_intonation_perc_control,2024.2.4,Win32,120.4819277,67e82ac6e6f39b2aa9b57f59,68817205a84113384fffdfe3,689b82198590ff4b4685f338,,,,,,,,,,,,,0,,,,,,,,,,,,,,,,,,,,,,,,,,,,,,,,,,,,,58,plaudir,,,,,413.07,413.6061,1,0,0.019,,0,47,47,57,1,REAL,FAKE,,,,,,,,,,,,,,,,,
,,,,,,,,,67e82ac6e6f39b2aa9b57f59,spanish,13 or older,"no, only English or Spanish",yes,2025-08-12_14h05.40.072,empathy_intonation_perc_control,2024.2.4,Win32,120.4819277,67e82ac6e6f39b2aa9b57f59,68817205a84113384fffdfe3,689b82198590ff4b4685f338,,,,,,,,,,,,,1,,,,,,,,,,,,,,,,,,,,,,,,,,,,,,,,,,,,,11,cenefa,,,,,413.6083,415.0454,1,1,0.9256,,0,48,48,10,1,REAL,FAKE,,,,,,,,,,,,,,,,,
,,,,,,,,,67e82ac6e6f39b2aa9b57f59,spanish,13 or older,"no, only English or Spanish",yes,2025-08-12_14h05.40.072,empathy_intonation_perc_control,2024.2.4,Win32,120.4819277,67e82ac6e6f39b2aa9b57f59,68817205a84113384fffdfe3,689b82198590ff4b4685f338,,,,,,,,,,,,,1,,,,,,,,,,,,,,,,,,,,,,,,,,,,,,,,,,,,,49,ganar,,,,,415.0478,416.4207,1,1,0.8561,,0,49,49,48,1,REAL,FAKE,,,,,,,,,,,,,,,,,
,,,,,,,,,67e82ac6e6f39b2aa9b57f59,spanish,13 or older,"no, only English or Spanish",yes,2025-08-12_14h05.40.072,empathy_intonation_perc_control,2024.2.4,Win32,120.4819277,67e82ac6e6f39b2aa9b57f59,68817205a84113384fffdfe3,689b82198590ff4b4685f338,,,,,,,,,,,,,1,,,,,,,,,,,,,,,,,,,,,,,,,,,,,,,,,,,,,15,regar,,,,,416.424,416.9548,0,0,0.0184,,0,50,50,14,1,REAL,FAKE,,,,,,,,,,,,,,,,,
,,,,,,,,,67e82ac6e6f39b2aa9b57f59,spanish,13 or older,"no, only English or Spanish",yes,2025-08-12_14h05.40.072,empathy_intonation_perc_control,2024.2.4,Win32,120.4819277,67e82ac6e6f39b2aa9b57f59,68817205a84113384fffdfe3,689b82198590ff4b4685f338,,,,,,,,,,,,,0,,,,,,,,,,,,,,,,,,,,,,,,,,,,,,,,,,,,,74,cintro,,,,,416.9569,418.1859,1,0,0.717,,0,51,51,73,1,REAL,FAKE,,,,,,,,,,,,,,,,,
,,,,,,,,,67e82ac6e6f39b2aa9b57f59,spanish,13 or older,"no, only English or Spanish",yes,2025-08-12_14h05.40.072,empathy_intonation_perc_control,2024.2.4,Win32,120.4819277,67e82ac6e6f39b2aa9b57f59,68817205a84113384fffdfe3,689b82198590ff4b4685f338,,,,,,,,,,,,,1,,,,,,,,,,,,,,,,,,,,,,,,,,,,,,,,,,,,,86,barato,,,,,418.1866,418.7148,0,0,0.012,,0,52,52,85,1,REAL,FAKE,,,,,,,,,,,,,,,,,
,,,,,,,,,67e82ac6e6f39b2aa9b57f59,spanish,13 or older,"no, only English or Spanish",yes,2025-08-12_14h05.40.072,empathy_intonation_perc_control,2024.2.4,Win32,120.4819277,67e82ac6e6f39b2aa9b57f59,68817205a84113384fffdfe3,689b82198590ff4b4685f338,,,,,,,,,,,,,1,,,,,,,,,,,,,,,,,,,,,,,,,,,,,,,,,,,,,37,granuja,,,,,418.7168,419.6148,1,1,0.379,,0,53,53,36,1,REAL,FAKE,,,,,,,,,,,,,,,,,
,,,,,,,,,67e82ac6e6f39b2aa9b57f59,spanish,13 or older,"no, only English or Spanish",yes,2025-08-12_14h05.40.072,empathy_intonation_perc_control,2024.2.4,Win32,120.4819277,67e82ac6e6f39b2aa9b57f59,68817205a84113384fffdfe3,689b82198590ff4b4685f338,,,,,,,,,,,,,0,,,,,,,,,,,,,,,,,,,,,,,,,,,,,,,,,,,,,29,decar,,,,,419.6168,420.5349,1,0,0.4003,,0,54,54,28,1,REAL,FAKE,,,,,,,,,,,,,,,,,
,,,,,,,,,67e82ac6e6f39b2aa9b57f59,spanish,13 or older,"no, only English or Spanish",yes,2025-08-12_14h05.40.072,empathy_intonation_perc_control,2024.2.4,Win32,120.4819277,67e82ac6e6f39b2aa9b57f59,68817205a84113384fffdfe3,689b82198590ff4b4685f338,,,,,,,,,,,,,0,,,,,,,,,,,,,,,,,,,,,,,,,,,,,,,,,,,,,87,grodo,,,,,420.5355,421.3808,1,0,0.3283,,0,55,55,86,1,REAL,FAKE,,,,,,,,,,,,,,,,,
,,,,,,,,,67e82ac6e6f39b2aa9b57f59,spanish,13 or older,"no, only English or Spanish",yes,2025-08-12_14h05.40.072,empathy_intonation_perc_control,2024.2.4,Win32,120.4819277,67e82ac6e6f39b2aa9b57f59,68817205a84113384fffdfe3,689b82198590ff4b4685f338,,,,,,,,,,,,,0,,,,,,,,,,,,,,,,,,,,,,,,,,,,,,,,,,,,,1,terzo,,,,,421.3824,422.318,1,0,0.4245,,0,56,56,0,1,REAL,FAKE,,,,,,,,,,,,,,,,,
,,,,,,,,,67e82ac6e6f39b2aa9b57f59,spanish,13 or older,"no, only English or Spanish",yes,2025-08-12_14h05.40.072,empathy_intonation_perc_control,2024.2.4,Win32,120.4819277,67e82ac6e6f39b2aa9b57f59,68817205a84113384fffdfe3,689b82198590ff4b4685f338,,,,,,,,,,,,,1,,,,,,,,,,,,,,,,,,,,,,,,,,,,,,,,,,,,,7,pésimo,,,,,422.3188,423.101,0,0,0.2673,,0,57,57,6,1,REAL,FAKE,,,,,,,,,,,,,,,,,
,,,,,,,,,67e82ac6e6f39b2aa9b57f59,spanish,13 or older,"no, only English or Spanish",yes,2025-08-12_14h05.40.072,empathy_intonation_perc_control,2024.2.4,Win32,120.4819277,67e82ac6e6f39b2aa9b57f59,68817205a84113384fffdfe3,689b82198590ff4b4685f338,,,,,,,,,,,,,1,,,,,,,,,,,,,,,,,,,,,,,,,,,,,,,,,,,,,90,clavel,,,,,423.1018,423.8191,1,1,0.2015,,0,58,58,89,1,REAL,FAKE,,,,,,,,,,,,,,,,,
,,,,,,,,,67e82ac6e6f39b2aa9b57f59,spanish,13 or older,"no, only English or Spanish",yes,2025-08-12_14h05.40.072,empathy_intonation_perc_control,2024.2.4,Win32,120.4819277,67e82ac6e6f39b2aa9b57f59,68817205a84113384fffdfe3,689b82198590ff4b4685f338,,,,,,,,,,,,,1,,,,,,,,,,,,,,,,,,,,,,,,,,,,,,,,,,,,,43,canela,,,,,423.8227,424.5689,1,1,0.2349,,0,59,59,42,1,REAL,FAKE,,,,,,,,,,,,,,,,,
,,,,,,,,,67e82ac6e6f39b2aa9b57f59,spanish,13 or older,"no, only English or Spanish",yes,2025-08-12_14h05.40.072,empathy_intonation_perc_control,2024.2.4,Win32,120.4819277,67e82ac6e6f39b2aa9b57f59,68817205a84113384fffdfe3,689b82198590ff4b4685f338,,,,,,,,,,,,,1,,,,,,,,,,,,,,,,,,,,,,,,,,,,,,,,,,,,,80,hormiga,,,,,424.5712,425.676,1,1,0.5924,,0,60,60,79,1,REAL,FAKE,,,,,,,,,,,,,,,,,
,,,,,,,,,67e82ac6e6f39b2aa9b57f59,spanish,13 or older,"no, only English or Spanish",yes,2025-08-12_14h05.40.072,empathy_intonation_perc_control,2024.2.4,Win32,120.4819277,67e82ac6e6f39b2aa9b57f59,68817205a84113384fffdfe3,689b82198590ff4b4685f338,,,,,,,,,,,,,1,,,,,,,,,,,,,,,,,,,,,,,,,,,,,,,,,,,,,5,zapato,,,,,425.6765,426.6758,1,1,0.4838,,0,61,61,4,1,REAL,FAKE,,,,,,,,,,,,,,,,,
,,,,,,,,,67e82ac6e6f39b2aa9b57f59,spanish,13 or older,"no, only English or Spanish",yes,2025-08-12_14h05.40.072,empathy_intonation_perc_control,2024.2.4,Win32,120.4819277,67e82ac6e6f39b2aa9b57f59,68817205a84113384fffdfe3,689b82198590ff4b4685f338,,,,,,,,,,,,,0,,,,,,,,,,,,,,,,,,,,,,,,,,,,,,,,,,,,,19,brecedad,,,,,426.6763,427.4918,0,1,0.2998,,0,62,62,18,1,REAL,FAKE,,,,,,,,,,,,,,,,,
,,,,,,,,,67e82ac6e6f39b2aa9b57f59,spanish,13 or older,"no, only English or Spanish",yes,2025-08-12_14h05.40.072,empathy_intonation_perc_control,2024.2.4,Win32,120.4819277,67e82ac6e6f39b2aa9b57f59,68817205a84113384fffdfe3,689b82198590ff4b4685f338,,,,,,,,,,,,,1,,,,,,,,,,,,,,,,,,,,,,,,,,,,,,,,,,,,,12,asesinato,,,,,427.4922,428.3754,1,1,0.3752,,0,63,63,11,1,REAL,FAKE,,,,,,,,,,,,,,,,,
,,,,,,,,,67e82ac6e6f39b2aa9b57f59,spanish,13 or older,"no, only English or Spanish",yes,2025-08-12_14h05.40.072,empathy_intonation_perc_control,2024.2.4,Win32,120.4819277,67e82ac6e6f39b2aa9b57f59,68817205a84113384fffdfe3,689b82198590ff4b4685f338,,,,,,,,,,,,,0,,,,,,,,,,,,,,,,,,,,,,,,,,,,,,,,,,,,,92,click the 0 key.,,,,,428.376,430.3915,0,1,1.4998,,0,64,64,91,1,REAL,FAKE,,,,,,,,,,,,,,,,,
,,,,,,,,,67e82ac6e6f39b2aa9b57f59,spanish,13 or older,"no, only English or Spanish",yes,2025-08-12_14h05.40.072,empathy_intonation_perc_control,2024.2.4,Win32,120.4819277,67e82ac6e6f39b2aa9b57f59,68817205a84113384fffdfe3,689b82198590ff4b4685f338,,,,,,,,,,,,,1,,,,,,,,,,,,,,,,,,,,,,,,,,,,,,,,,,,,,88,acantilado,,,,,430.3921,434.5988,0,0,3.6903,,0,65,65,87,1,REAL,FAKE,,,,,,,,,,,,,,,,,
,,,,,,,,,67e82ac6e6f39b2aa9b57f59,spanish,13 or older,"no, only English or Spanish",yes,2025-08-12_14h05.40.072,empathy_intonation_perc_control,2024.2.4,Win32,120.4819277,67e82ac6e6f39b2aa9b57f59,68817205a84113384fffdfe3,689b82198590ff4b4685f338,,,,,,,,,,,,,1,,,,,,,,,,,,,,,,,,,,,,,,,,,,,,,,,,,,,69,engatusar,,,,,434.5992,436.2634,1,1,1.1456,,0,66,66,68,1,REAL,FAKE,,,,,,,,,,,,,,,,,
,,,,,,,,,67e82ac6e6f39b2aa9b57f59,spanish,13 or older,"no, only English or Spanish",yes,2025-08-12_14h05.40.072,empathy_intonation_perc_control,2024.2.4,Win32,120.4819277,67e82ac6e6f39b2aa9b57f59,68817205a84113384fffdfe3,689b82198590ff4b4685f338,,,,,,,,,,,,,0,,,,,,,,,,,,,,,,,,,,,,,,,,,,,,,,,,,,,23,lampera,,,,,436.2653,438.2816,1,0,1.501,,0,67,67,22,1,REAL,FAKE,,,,,,,,,,,,,,,,,
,,,,,,,,,67e82ac6e6f39b2aa9b57f59,spanish,13 or older,"no, only English or Spanish",yes,2025-08-12_14h05.40.072,empathy_intonation_perc_control,2024.2.4,Win32,120.4819277,67e82ac6e6f39b2aa9b57f59,68817205a84113384fffdfe3,689b82198590ff4b4685f338,,,,,,,,,,,,,0,,,,,,,,,,,,,,,,,,,,,,,,,,,,,,,,,,,,,4,batillón,,,,,438.2824,439.6634,1,0,0.8666,,0,68,68,3,1,REAL,FAKE,,,,,,,,,,,,,,,,,
,,,,,,,,,67e82ac6e6f39b2aa9b57f59,spanish,13 or older,"no, only English or Spanish",yes,2025-08-12_14h05.40.072,empathy_intonation_perc_control,2024.2.4,Win32,120.4819277,67e82ac6e6f39b2aa9b57f59,68817205a84113384fffdfe3,689b82198590ff4b4685f338,,,,,,,,,,,,,1,,,,,,,,,,,,,,,,,,,,,,,,,,,,,,,,,,,,,48,ladrón,,,,,439.664,440.7475,1,1,0.5671,,0,69,69,47,1,REAL,FAKE,,,,,,,,,,,,,,,,,
,,,,,,,,,67e82ac6e6f39b2aa9b57f59,spanish,13 or older,"no, only English or Spanish",yes,2025-08-12_14h05.40.072,empathy_intonation_perc_control,2024.2.4,Win32,120.4819277,67e82ac6e6f39b2aa9b57f59,68817205a84113384fffdfe3,689b82198590ff4b4685f338,,,,,,,,,,,,,1,,,,,,,,,,,,,,,,,,,,,,,,,,,,,,,,,,,,,36,loro,,,,,440.7481,441.9808,0,0,0.7171,,0,70,70,35,1,REAL,FAKE,,,,,,,,,,,,,,,,,
,,,,,,,,,67e82ac6e6f39b2aa9b57f59,spanish,13 or older,"no, only English or Spanish",yes,2025-08-12_14h05.40.072,empathy_intonation_perc_control,2024.2.4,Win32,120.4819277,67e82ac6e6f39b2aa9b57f59,68817205a84113384fffdfe3,689b82198590ff4b4685f338,,,,,,,,,,,,,1,,,,,,,,,,,,,,,,,,,,,,,,,,,,,,,,,,,,,24,látigo,,,,,441.9813,443.1971,1,1,0.7008,,0,71,71,23,1,REAL,FAKE,,,,,,,,,,,,,,,,,
,,,,,,,,,67e82ac6e6f39b2aa9b57f59,spanish,13 or older,"no, only English or Spanish",yes,2025-08-12_14h05.40.072,empathy_intonation_perc_control,2024.2.4,Win32,120.4819277,67e82ac6e6f39b2aa9b57f59,68817205a84113384fffdfe3,689b82198590ff4b4685f338,,,,,,,,,,,,,0,,,,,,,,,,,,,,,,,,,,,,,,,,,,,,,,,,,,,30,alardio,,,,,443.1977,444.5076,0,1,0.7932,,0,72,72,29,1,REAL,FAKE,,,,,,,,,,,,,,,,,
,,,,,,,,,67e82ac6e6f39b2aa9b57f59,spanish,13 or older,"no, only English or Spanish",yes,2025-08-12_14h05.40.072,empathy_intonation_perc_control,2024.2.4,Win32,120.4819277,67e82ac6e6f39b2aa9b57f59,68817205a84113384fffdfe3,689b82198590ff4b4685f338,,,,,,,,,,,,,0,,,,,,,,,,,,,,,,,,,,,,,,,,,,,,,,,,,,,32,fatacidad,,,,,444.5106,445.583,0,1,0.5578,,0,73,73,31,1,REAL,FAKE,,,,,,,,,,,,,,,,,
,,,,,,,,,67e82ac6e6f39b2aa9b57f59,spanish,13 or older,"no, only English or Spanish",yes,2025-08-12_14h05.40.072,empathy_intonation_perc_control,2024.2.4,Win32,120.4819277,67e82ac6e6f39b2aa9b57f59,68817205a84113384fffdfe3,689b82198590ff4b4685f338,,,,,,,,,,,,,1,,,,,,,,,,,,,,,,,,,,,,,,,,,,,,,,,,,,,9,hacha,,,,,445.5838,446.6239,0,0,0.5239,,0,74,74,8,1,REAL,FAKE,,,,,,,,,,,,,,,,,
,,,,,,,,,67e82ac6e6f39b2aa9b57f59,spanish,13 or older,"no, only English or Spanish",yes,2025-08-12_14h05.40.072,empathy_intonation_perc_control,2024.2.4,Win32,120.4819277,67e82ac6e6f39b2aa9b57f59,68817205a84113384fffdfe3,689b82198590ff4b4685f338,,,,,,,,,,,,,1,,,,,,,,,,,,,,,,,,,,,,,,,,,,,,,,,,,,,22,lacayo,,,,,446.6246,447.5738,0,0,0.4403,,0,75,75,21,1,REAL,FAKE,,,,,,,,,,,,,,,,,
,,,,,,,,,67e82ac6e6f39b2aa9b57f59,spanish,13 or older,"no, only English or Spanish",yes,2025-08-12_14h05.40.072,empathy_intonation_perc_control,2024.2.4,Win32,120.4819277,67e82ac6e6f39b2aa9b57f59,68817205a84113384fffdfe3,689b82198590ff4b4685f338,,,,,,,,,,,,,1,,,,,,,,,,,,,,,,,,,,,,,,,,,,,,,,,,,,,64,orgulloso,,,,,447.5744,448.6486,0,0,0.5569,,0,76,76,63,1,REAL,FAKE,,,,,,,,,,,,,,,,,
,,,,,,,,,67e82ac6e6f39b2aa9b57f59,spanish,13 or older,"no, only English or Spanish",yes,2025-08-12_14h05.40.072,empathy_intonation_perc_control,2024.2.4,Win32,120.4819277,67e82ac6e6f39b2aa9b57f59,68817205a84113384fffdfe3,689b82198590ff4b4685f338,,,,,,,,,,,,,1,,,,,,,,,,,,,,,,,,,,,,,,,,,,,,,,,,,,,73,hervidor,,,,,448.6491,449.8405,0,0,0.6727,,0,77,77,72,1,REAL,FAKE,,,,,,,,,,,,,,,,,
,,,,,,,,,67e82ac6e6f39b2aa9b57f59,spanish,13 or older,"no, only English or Spanish",yes,2025-08-12_14h05.40.072,empathy_intonation_perc_control,2024.2.4,Win32,120.4819277,67e82ac6e6f39b2aa9b57f59,68817205a84113384fffdfe3,689b82198590ff4b4685f338,,,,,,,,,,,,,1,,,,,,,,,,,,,,,,,,,,,,,,,,,,,,,,,,,,,40,alfombra,,,,,449.8414,451.1315,1,1,0.7737,,0,78,78,39,1,REAL,FAKE,,,,,,,,,,,,,,,,,
,,,,,,,,,67e82ac6e6f39b2aa9b57f59,spanish,13 or older,"no, only English or Spanish",yes,2025-08-12_14h05.40.072,empathy_intonation_perc_control,2024.2.4,Win32,120.4819277,67e82ac6e6f39b2aa9b57f59,68817205a84113384fffdfe3,689b82198590ff4b4685f338,,,,,,,,,,,,,1,,,,,,,,,,,,,,,,,,,,,,,,,,,,,,,,,,,,,46,martillo,,,,,451.1322,452.3152,1,1,0.6648,,0,79,79,45,1,REAL,FAKE,,,,,,,,,,,,,,,,,
,,,,,,,,,67e82ac6e6f39b2aa9b57f59,spanish,13 or older,"no, only English or Spanish",yes,2025-08-12_14h05.40.072,empathy_intonation_perc_control,2024.2.4,Win32,120.4819277,67e82ac6e6f39b2aa9b57f59,68817205a84113384fffdfe3,689b82198590ff4b4685f338,,,,,,,,,,,,,0,,,,,,,,,,,,,,,,,,,,,,,,,,,,,,,,,,,,,27,acutación,,,,,452.316,454.2982,1,0,1.4649,,0,80,80,26,1,REAL,FAKE,,,,,,,,,,,,,,,,,
,,,,,,,,,67e82ac6e6f39b2aa9b57f59,spanish,13 or older,"no, only English or Spanish",yes,2025-08-12_14h05.40.072,empathy_intonation_perc_control,2024.2.4,Win32,120.4819277,67e82ac6e6f39b2aa9b57f59,68817205a84113384fffdfe3,689b82198590ff4b4685f338,,,,,,,,,,,,,0,,,,,,,,,,,,,,,,,,,,,,,,,,,,,,,,,,,,,21,capillo,,,,,454.2989,455.6813,1,0,0.8646,,0,81,81,20,1,REAL,FAKE,,,,,,,,,,,,,,,,,
,,,,,,,,,67e82ac6e6f39b2aa9b57f59,spanish,13 or older,"no, only English or Spanish",yes,2025-08-12_14h05.40.072,empathy_intonation_perc_control,2024.2.4,Win32,120.4819277,67e82ac6e6f39b2aa9b57f59,68817205a84113384fffdfe3,689b82198590ff4b4685f338,,,,,,,,,,,,,0,,,,,,,,,,,,,,,,,,,,,,,,,,,,,,,,,,,,,84,escuto,,,,,455.6821,457.014,1,0,0.8152,,0,82,82,83,1,REAL,FAKE,,,,,,,,,,,,,,,,,
,,,,,,,,,67e82ac6e6f39b2aa9b57f59,spanish,13 or older,"no, only English or Spanish",yes,2025-08-12_14h05.40.072,empathy_intonation_perc_control,2024.2.4,Win32,120.4819277,67e82ac6e6f39b2aa9b57f59,68817205a84113384fffdfe3,689b82198590ff4b4685f338,,,,,,,,,,,,,1,,,,,,,,,,,,,,,,,,,,,,,,,,,,,,,,,,,,,2,pellizcar,,,,,457.0146,458.5139,1,1,0.9822,,0,83,83,1,1,REAL,FAKE,,,,,,,,,,,,,,,,,
,,,,,,,,,67e82ac6e6f39b2aa9b57f59,spanish,13 or older,"no, only English or Spanish",yes,2025-08-12_14h05.40.072,empathy_intonation_perc_control,2024.2.4,Win32,120.4819277,67e82ac6e6f39b2aa9b57f59,68817205a84113384fffdfe3,689b82198590ff4b4685f338,,,,,,,,,,,,,1,,,,,,,,,,,,,,,,,,,,,,,,,,,,,,,,,,,,,89,prisa,,,,,458.5144,459.9303,0,0,0.8978,,0,84,84,88,1,REAL,FAKE,,,,,,,,,,,,,,,,,
,,,,,,,,,67e82ac6e6f39b2aa9b57f59,spanish,13 or older,"no, only English or Spanish",yes,2025-08-12_14h05.40.072,empathy_intonation_perc_control,2024.2.4,Win32,120.4819277,67e82ac6e6f39b2aa9b57f59,68817205a84113384fffdfe3,689b82198590ff4b4685f338,,,,,,,,,,,,,0,,,,,,,,,,,,,,,,,,,,,,,,,,,,,,,,,,,,,72,pemición,,,,,459.9316,461.0966,1,0,0.6483,,0,85,85,71,1,REAL,FAKE,,,,,,,,,,,,,,,,,
,,,,,,,,,67e82ac6e6f39b2aa9b57f59,spanish,13 or older,"no, only English or Spanish",yes,2025-08-12_14h05.40.072,empathy_intonation_perc_control,2024.2.4,Win32,120.4819277,67e82ac6e6f39b2aa9b57f59,68817205a84113384fffdfe3,689b82198590ff4b4685f338,,,,,,,,,,,,,1,,,,,,,,,,,,,,,,,,,,,,,,,,,,,,,,,,,,,67,cabello,,,,,461.0974,462.3048,1,1,0.69,,0,86,86,66,1,REAL,FAKE,,,,,,,,,,,,,,,,,
,,,,,,,,,67e82ac6e6f39b2aa9b57f59,spanish,13 or older,"no, only English or Spanish",yes,2025-08-12_14h05.40.072,empathy_intonation_perc_control,2024.2.4,Win32,120.4819277,67e82ac6e6f39b2aa9b57f59,68817205a84113384fffdfe3,689b82198590ff4b4685f338,,,,,,,,,,,,,1,,,,,,,,,,,,,,,,,,,,,,,,,,,,,,,,,,,,,44,cuchara,,,,,462.3055,463.6382,0,0,0.8235,,0,87,87,43,1,REAL,FAKE,,,,,,,,,,,,,,,,,
,,,,,,,,,67e82ac6e6f39b2aa9b57f59,spanish,13 or older,"no, only English or Spanish",yes,2025-08-12_14h05.40.072,empathy_intonation_perc_control,2024.2.4,Win32,120.4819277,67e82ac6e6f39b2aa9b57f59,68817205a84113384fffdfe3,689b82198590ff4b4685f338,,,,,,,,,,,,,1,,,,,,,,,,,,,,,,,,,,,,,,,,,,,,,,,,,,,39,torpe,,,,,463.639,465.538,0,0,1.3812,,0,88,88,38,1,REAL,FAKE,,,,,,,,,,,,,,,,,
,,,,,,,,,67e82ac6e6f39b2aa9b57f59,spanish,13 or older,"no, only English or Spanish",yes,2025-08-12_14h05.40.072,empathy_intonation_perc_control,2024.2.4,Win32,120.4819277,67e82ac6e6f39b2aa9b57f59,68817205a84113384fffdfe3,689b82198590ff4b4685f338,,,,,,,,,,,,,1,,,,,,,,,,,,,,,,,,,,,,,,,,,,,,,,,,,,,6,tergiversar,,,,,465.5388,467.6289,0,0,1.5735,,0,89,89,5,1,REAL,FAKE,,,,,,,,,,,,,,,,,
,,,,,,,,,67e82ac6e6f39b2aa9b57f59,spanish,13 or older,"no, only English or Spanish",yes,2025-08-12_14h05.40.072,empathy_intonation_perc_control,2024.2.4,Win32,120.4819277,67e82ac6e6f39b2aa9b57f59,68817205a84113384fffdfe3,689b82198590ff4b4685f338,,,,,,,,,,,,,0,,,,,,,,,,,,,,,,,,,,,,,,,,,,,,,,,,,,,17,floroso,,,,,467.6293,468.912,0,1,0.7648,,0,90,90,16,1,REAL,FAKE,,,,,,,,,,,,,,,,,
,,,,,,,,,67e82ac6e6f39b2aa9b57f59,spanish,13 or older,"no, only English or Spanish",yes,2025-08-12_14h05.40.072,empathy_intonation_perc_control,2024.2.4,Win32,120.4819277,67e82ac6e6f39b2aa9b57f59,68817205a84113384fffdfe3,689b82198590ff4b4685f338,,,,,,,,,,,,,0,,,,,,,,,,,,,,,,,,,,,,,,,,,,,,,,,,,,,66,hacido,,,,,468.9126,469.9705,1,0,0.5486,,0,91,91,65,1,REAL,FAKE,,,,,,,,,,,,,,,,,
,,,,,,,,,67e82ac6e6f39b2aa9b57f59,spanish,13 or older,"no, only English or Spanish",yes,2025-08-12_14h05.40.072,empathy_intonation_perc_control,2024.2.4,Win32,120.4819277,67e82ac6e6f39b2aa9b57f59,68817205a84113384fffdfe3,689b82198590ff4b4685f338,,,,,,,,,,,,,,,,,,,,,,,,,,,,,,,,,,,,,,,,,,,,,,,,,,,,,,,,,,,,,,,,,,,,,469.9709,484.3501,,,,,,,,,,,,,,,
,,,,,,,,,67e82ac6e6f39b2aa9b57f59,spanish,13 or older,"no, only English or Spanish",yes,2025-08-12_14h05.40.072,empathy_intonation_perc_control,2024.2.4,Win32,120.4819277,67e82ac6e6f39b2aa9b57f59,68817205a84113384fffdfe3,689b82198590ff4b4685f338,,,,,,,,,,,,,,,,,,,,,,,,,,,1,,,,,,,,,,,,,,,,,,,,,,,,,,,,,,,,,,,,,,,,,,,,484.3587,494.6998,strongly agree,0,0,0,0,1,I can easily tell if someone else wants to enter a conversation.,1,0,1,0,,
,,,,,,,,,67e82ac6e6f39b2aa9b57f59,spanish,13 or older,"no, only English or Spanish",yes,2025-08-12_14h05.40.072,empathy_intonation_perc_control,2024.2.4,Win32,120.4819277,67e82ac6e6f39b2aa9b57f59,68817205a84113384fffdfe3,689b82198590ff4b4685f338,,,,,,,,,,,,,,,,,,,,,,,,,,,2,,,,,,,,,,,,,,,,,,,,,,,,,,,,,,,,,,,,,,,,,,,,494.7034,498.5141,strongly disagree,0,1,1,1,1,I prefer animals to humans.,0,1,0,0,,
,,,,,,,,,67e82ac6e6f39b2aa9b57f59,spanish,13 or older,"no, only English or Spanish",yes,2025-08-12_14h05.40.072,empathy_intonation_perc_control,2024.2.4,Win32,120.4819277,67e82ac6e6f39b2aa9b57f59,68817205a84113384fffdfe3,689b82198590ff4b4685f338,,,,,,,,,,,,,,,,,,,,,,,,,,,3,,,,,,,,,,,,,,,,,,,,,,,,,,,,,,,,,,,,,,,,,,,,498.5152,504.2379,strongly agree,0,2,2,2,1,I try to keep up with the current trends and fashions.,0,1,0,0,,
,,,,,,,,,67e82ac6e6f39b2aa9b57f59,spanish,13 or older,"no, only English or Spanish",yes,2025-08-12_14h05.40.072,empathy_intonation_perc_control,2024.2.4,Win32,120.4819277,67e82ac6e6f39b2aa9b57f59,68817205a84113384fffdfe3,689b82198590ff4b4685f338,,,,,,,,,,,,,,,,,,,,,,,,,,,4,,,,,,,,,,,,,,,,,,,,,,,,,,,,,,,,,,,,,,,,,,,,504.2391,510.0212,slightly disagree,0,3,3,3,1,"I find it difficult to explain to others things that I understand easily,   when they don't understand it first time.",1,0,0,1,,
,,,,,,,,,67e82ac6e6f39b2aa9b57f59,spanish,13 or older,"no, only English or Spanish",yes,2025-08-12_14h05.40.072,empathy_intonation_perc_control,2024.2.4,Win32,120.4819277,67e82ac6e6f39b2aa9b57f59,68817205a84113384fffdfe3,689b82198590ff4b4685f338,,,,,,,,,,,,,,,,,,,,,,,,,,,5,,,,,,,,,,,,,,,,,,,,,,,,,,,,,,,,,,,,,,,,,,,,510.022,514.2832,strongly agree,0,4,4,4,1,I dream most nights.,0,1,0,0,,
,,,,,,,,,67e82ac6e6f39b2aa9b57f59,spanish,13 or older,"no, only English or Spanish",yes,2025-08-12_14h05.40.072,empathy_intonation_perc_control,2024.2.4,Win32,120.4819277,67e82ac6e6f39b2aa9b57f59,68817205a84113384fffdfe3,689b82198590ff4b4685f338,,,,,,,,,,,,,,,,,,,,,,,,,,,6,,,,,,,,,,,,,,,,,,,,,,,,,,,,,,,,,,,,,,,,,,,,514.2851,517.0699,strongly agree,0,5,5,5,1,I really enjoy caring for other people.,1,0,1,0,,
,,,,,,,,,67e82ac6e6f39b2aa9b57f59,spanish,13 or older,"no, only English or Spanish",yes,2025-08-12_14h05.40.072,empathy_intonation_perc_control,2024.2.4,Win32,120.4819277,67e82ac6e6f39b2aa9b57f59,68817205a84113384fffdfe3,689b82198590ff4b4685f338,,,,,,,,,,,,,,,,,,,,,,,,,,,7,,,,,,,,,,,,,,,,,,,,,,,,,,,,,,,,,,,,,,,,,,,,517.071,520.0609,strongly agree,0,6,6,6,1,I try to solve my own problems rather than discussing them with others.,0,1,0,0,,
,,,,,,,,,67e82ac6e6f39b2aa9b57f59,spanish,13 or older,"no, only English or Spanish",yes,2025-08-12_14h05.40.072,empathy_intonation_perc_control,2024.2.4,Win32,120.4819277,67e82ac6e6f39b2aa9b57f59,68817205a84113384fffdfe3,689b82198590ff4b4685f338,,,,,,,,,,,,,,,,,,,,,,,,,,,8,,,,,,,,,,,,,,,,,,,,,,,,,,,,,,,,,,,,,,,,,,,,520.0616,526.478,slightly disagree,0,7,7,7,1,I find it hard to know what to do in a social situation.,1,0,0,1,,
,,,,,,,,,67e82ac6e6f39b2aa9b57f59,spanish,13 or older,"no, only English or Spanish",yes,2025-08-12_14h05.40.072,empathy_intonation_perc_control,2024.2.4,Win32,120.4819277,67e82ac6e6f39b2aa9b57f59,68817205a84113384fffdfe3,689b82198590ff4b4685f338,,,,,,,,,,,,,,,,,,,,,,,,,,,9,,,,,,,,,,,,,,,,,,,,,,,,,,,,,,,,,,,,,,,,,,,,526.4797,540.4314,strongly agree,0,8,8,8,1,I am at my best first thing in the morning.,0,1,0,0,,
,,,,,,,,,67e82ac6e6f39b2aa9b57f59,spanish,13 or older,"no, only English or Spanish",yes,2025-08-12_14h05.40.072,empathy_intonation_perc_control,2024.2.4,Win32,120.4819277,67e82ac6e6f39b2aa9b57f59,68817205a84113384fffdfe3,689b82198590ff4b4685f338,,,,,,,,,,,,,,,,,,,,,,,,,,,10,,,,,,,,,,,,,,,,,,,,,,,,,,,,,,,,,,,,,,,,,,,,540.4327,549.2831,slightly disagree,0,9,9,9,1,People often tell me that I went too far in driving my point home in a discussion.,1,0,0,1,,
,,,,,,,,,67e82ac6e6f39b2aa9b57f59,spanish,13 or older,"no, only English or Spanish",yes,2025-08-12_14h05.40.072,empathy_intonation_perc_control,2024.2.4,Win32,120.4819277,67e82ac6e6f39b2aa9b57f59,68817205a84113384fffdfe3,689b82198590ff4b4685f338,,,,,,,,,,,,,,,,,,,,,,,,,,,11,,,,,,,,,,,,,,,,,,,,,,,,,,,,,,,,,,,,,,,,,,,,549.2855,555.8054,slightly disagree,0,10,10,10,1,It doesn't bother me too much if I am late meeting a friend.,1,0,0,1,,
,,,,,,,,,67e82ac6e6f39b2aa9b57f59,spanish,13 or older,"no, only English or Spanish",yes,2025-08-12_14h05.40.072,empathy_intonation_perc_control,2024.2.4,Win32,120.4819277,67e82ac6e6f39b2aa9b57f59,68817205a84113384fffdfe3,689b82198590ff4b4685f338,,,,,,,,,,,,,,,,,,,,,,,,,,,12,,,,,,,,,,,,,,,,,,,,,,,,,,,,,,,,,,,,,,,,,,,,555.8066,559.2977,slightly disagree,0,11,11,11,1,"Friendships and relationships are just too difficult, so I tend not to 
  bother with them.",1,0,0,1,,
,,,,,,,,,67e82ac6e6f39b2aa9b57f59,spanish,13 or older,"no, only English or Spanish",yes,2025-08-12_14h05.40.072,empathy_intonation_perc_control,2024.2.4,Win32,120.4819277,67e82ac6e6f39b2aa9b57f59,68817205a84113384fffdfe3,689b82198590ff4b4685f338,,,,,,,,,,,,,,,,,,,,,,,,,,,13,,,,,,,,,,,,,,,,,,,,,,,,,,,,,,,,,,,,,,,,,,,,559.3004,562.8183,slightly agree,0,12,12,12,1,"I would never break a law, no matter how minor.",0,1,0,0,,
,,,,,,,,,67e82ac6e6f39b2aa9b57f59,spanish,13 or older,"no, only English or Spanish",yes,2025-08-12_14h05.40.072,empathy_intonation_perc_control,2024.2.4,Win32,120.4819277,67e82ac6e6f39b2aa9b57f59,68817205a84113384fffdfe3,689b82198590ff4b4685f338,,,,,,,,,,,,,,,,,,,,,,,,,,,14,,,,,,,,,,,,,,,,,,,,,,,,,,,,,,,,,,,,,,,,,,,,562.8193,567.8131,slightly disagree,0,13,13,13,1,I often find it difficult to judge if something is rude or polite.,1,0,0,1,,
,,,,,,,,,67e82ac6e6f39b2aa9b57f59,spanish,13 or older,"no, only English or Spanish",yes,2025-08-12_14h05.40.072,empathy_intonation_perc_control,2024.2.4,Win32,120.4819277,67e82ac6e6f39b2aa9b57f59,68817205a84113384fffdfe3,689b82198590ff4b4685f338,,,,,,,,,,,,,,,,,,,,,,,,,,,15,,,,,,,,,,,,,,,,,,,,,,,,,,,,,,,,,,,,,,,,,,,,567.817,570.9531,slightly disagree,0,14,14,14,1,"In a conversation, I tend to focus on my own thoughts rather than on what 
  my listener might be thinking.",1,0,0,1,,
,,,,,,,,,67e82ac6e6f39b2aa9b57f59,spanish,13 or older,"no, only English or Spanish",yes,2025-08-12_14h05.40.072,empathy_intonation_perc_control,2024.2.4,Win32,120.4819277,67e82ac6e6f39b2aa9b57f59,68817205a84113384fffdfe3,689b82198590ff4b4685f338,,,,,,,,,,,,,,,,,,,,,,,,,,,16,,,,,,,,,,,,,,,,,,,,,,,,,,,,,,,,,,,,,,,,,,,,570.954,576.4268,slightly agree,0,15,15,15,1,I prefer practical jokes to verbal humor.,0,1,0,0,,
,,,,,,,,,67e82ac6e6f39b2aa9b57f59,spanish,13 or older,"no, only English or Spanish",yes,2025-08-12_14h05.40.072,empathy_intonation_perc_control,2024.2.4,Win32,120.4819277,67e82ac6e6f39b2aa9b57f59,68817205a84113384fffdfe3,689b82198590ff4b4685f338,,,,,,,,,,,,,,,,,,,,,,,,,,,17,,,,,,,,,,,,,,,,,,,,,,,,,,,,,,,,,,,,,,,,,,,,576.4277,582.5012,slightly disagree,0,16,16,16,1,I live life for today rather than the future.,0,1,0,0,,
,,,,,,,,,67e82ac6e6f39b2aa9b57f59,spanish,13 or older,"no, only English or Spanish",yes,2025-08-12_14h05.40.072,empathy_intonation_perc_control,2024.2.4,Win32,120.4819277,67e82ac6e6f39b2aa9b57f59,68817205a84113384fffdfe3,689b82198590ff4b4685f338,,,,,,,,,,,,,,,,,,,,,,,,,,,18,,,,,,,,,,,,,,,,,,,,,,,,,,,,,,,,,,,,,,,,,,,,582.503,593.2331,strongly agree,0,17,17,17,1,"When I was a child, I enjoyed cutting up worms to see what would happen.",1,0,0,1,,
,,,,,,,,,67e82ac6e6f39b2aa9b57f59,spanish,13 or older,"no, only English or Spanish",yes,2025-08-12_14h05.40.072,empathy_intonation_perc_control,2024.2.4,Win32,120.4819277,67e82ac6e6f39b2aa9b57f59,68817205a84113384fffdfe3,689b82198590ff4b4685f338,,,,,,,,,,,,,,,,,,,,,,,,,,,19,,,,,,,,,,,,,,,,,,,,,,,,,,,,,,,,,,,,,,,,,,,,593.235,597.9566,slightly agree,0,18,18,18,1,I can pick up quickly if someone says one thing but means another.,1,0,1,0,,
,,,,,,,,,67e82ac6e6f39b2aa9b57f59,spanish,13 or older,"no, only English or Spanish",yes,2025-08-12_14h05.40.072,empathy_intonation_perc_control,2024.2.4,Win32,120.4819277,67e82ac6e6f39b2aa9b57f59,68817205a84113384fffdfe3,689b82198590ff4b4685f338,,,,,,,,,,,,,,,,,,,,,,,,,,,20,,,,,,,,,,,,,,,,,,,,,,,,,,,,,,,,,,,,,,,,,,,,597.9575,600.5315,slightly agree,0,19,19,19,1,I tend to have very strong opinions about morality.,0,1,0,0,,
,,,,,,,,,67e82ac6e6f39b2aa9b57f59,spanish,13 or older,"no, only English or Spanish",yes,2025-08-12_14h05.40.072,empathy_intonation_perc_control,2024.2.4,Win32,120.4819277,67e82ac6e6f39b2aa9b57f59,68817205a84113384fffdfe3,689b82198590ff4b4685f338,,,,,,,,,,,,,,,,,,,,,,,,,,,21,,,,,,,,,,,,,,,,,,,,,,,,,,,,,,,,,,,,,,,,,,,,600.5326,607.8887,slightly disagree,0,20,20,20,1,It is hard for me to see why some things upset people so much.,1,0,0,1,,
,,,,,,,,,67e82ac6e6f39b2aa9b57f59,spanish,13 or older,"no, only English or Spanish",yes,2025-08-12_14h05.40.072,empathy_intonation_perc_control,2024.2.4,Win32,120.4819277,67e82ac6e6f39b2aa9b57f59,68817205a84113384fffdfe3,689b82198590ff4b4685f338,,,,,,,,,,,,,,,,,,,,,,,,,,,22,,,,,,,,,,,,,,,,,,,,,,,,,,,,,,,,,,,,,,,,,,,,607.8895,613.5619,slightly agree,0,21,21,21,1,I find it easy to put myself in somebody else's shoes.,1,0,1,0,,
,,,,,,,,,67e82ac6e6f39b2aa9b57f59,spanish,13 or older,"no, only English or Spanish",yes,2025-08-12_14h05.40.072,empathy_intonation_perc_control,2024.2.4,Win32,120.4819277,67e82ac6e6f39b2aa9b57f59,68817205a84113384fffdfe3,689b82198590ff4b4685f338,,,,,,,,,,,,,,,,,,,,,,,,,,,23,,,,,,,,,,,,,,,,,,,,,,,,,,,,,,,,,,,,,,,,,,,,613.5625,626.784,slightly agree,0,22,22,22,1,I think that good manners are the most important thing a parent can teach their child.,0,1,0,0,,
,,,,,,,,,67e82ac6e6f39b2aa9b57f59,spanish,13 or older,"no, only English or Spanish",yes,2025-08-12_14h05.40.072,empathy_intonation_perc_control,2024.2.4,Win32,120.4819277,67e82ac6e6f39b2aa9b57f59,68817205a84113384fffdfe3,689b82198590ff4b4685f338,,,,,,,,,,,,,,,,,,,,,,,,,,,24,,,,,,,,,,,,,,,,,,,,,,,,,,,,,,,,,,,,,,,,,,,,626.7854,630.2764,slightly agree,0,23,23,23,1,I like to do things on the spur of the moment.,0,1,0,0,,
