instructions_2afc.started,instructions_2afc.stopped,instructions_2afc_loop.thisRepN,instructions_2afc_loop.thisTrialN,instructions_2afc_loop.thisN,instructions_2afc_loop.thisIndex,instructions_2afc_loop.ran,instructions_text,continue_text,participant_id,"What variety of Spanish are you most familiar with? (e.g., Peruvian, Spanish, Mexican)",At what age did you begin learning Spanish?,Are you proficient in any languages other than English/Spanish?,"Are you familiar with Caribbean (e.g., Caribbean, Puerto Rican) or Galician Spanish?",date,expName,psychopyVersion,OS,frameRate,id,study_id,session,practice_2afc.started,practice_2afc.stopped,key_resp_2afc_practice.keys,key_resp_2afc_practice.corr,key_resp_2afc_practice.rt,key_resp_2afc_practice.duration,trials_2afc_practice_loop.thisRepN,trials_2afc_practice_loop.thisTrialN,trials_2afc_practice_loop.thisN,trials_2afc_practice_loop.thisIndex,trials_2afc_practice_loop.ran,path,correct_response,check_2afc.started,check_2afc.stopped,trial_2afc.started,trial_2afc.stopped,key_resp_2afc_trial.keys,key_resp_2afc_trial.corr,key_resp_2afc_trial.rt,key_resp_2afc_trial.duration,trials_2afc_loop.thisRepN,trials_2afc_loop.thisTrialN,trials_2afc_loop.thisN,trials_2afc_loop.thisIndex,trials_2afc_loop.ran,item_num,target,variety,instructions_lextale.started,instructions_lextale.stopped,instructions_lextale_loop.thisRepN,instructions_lextale_loop.thisTrialN,instructions_lextale_loop.thisN,instructions_lextale_loop.thisIndex,instructions_lextale_loop.ran,practice_lextale.started,practice_lextale.stopped,key_resp_lextale_practice.keys,key_resp_lextale_practice.corr,key_resp_lextale_practice.rt,key_resp_lextale_practice.duration,practice_feedback_lextale.started,practice_feedback_lextale.stopped,trials_lextale_practice_loop.thisRepN,trials_lextale_practice_loop.thisTrialN,trials_lextale_practice_loop.thisN,trials_lextale_practice_loop.thisIndex,trials_lextale_practice_loop.ran,stim,word,prac_button_real,prac_button_false,check_lextale.started,check_lextale.stopped,trial_lextale.started,trial_lextale.stopped,key_resp_lextale_trial.keys,key_resp_lextale_trial.corr,key_resp_lextale_trial.rt,key_resp_lextale_trial.duration,trials_lextale_loop.thisRepN,trials_lextale_loop.thisTrialN,trials_lextale_loop.thisN,trials_lextale_loop.thisIndex,trials_lextale_loop.ran,button_real,button_false,instructions_eq.started,instructions_eq.stopped,trial_eq.started,trial_eq.stopped,slider_eq_trial.response,trials_eq_loop.thisRepN,trials_eq_loop.thisTrialN,trials_eq_loop.thisN,trials_eq_loop.thisIndex,trials_eq_loop.ran,item,is_test_item,is_distractor,is_agree_score,is_disagree_score,end_exp.started,end_exp.stopped
0.0259,14.82,0,0,0,0,1,"In the following task you are going to hear a series of utterances. 

  You will decide if the utterances sound like questions or not using your keyboard.", (press the spacebar to continue),67f1a658a3c63b091b89f45d,Spanish,13 or older,"no, only English or Spanish",yes,2025-07-24_09h06.34.305,empathy_intonation_perc_control,2024.2.4,Win32,59.88023952,67f1a658a3c63b091b89f45d,68817205a84113384fffdfe3,68822f845e4686cb8b916271,,,,,,,,,,,,,,,,,,,,,,,,,,,,,,,,,,,,,,,,,,,,,,,,,,,,,,,,,,,,,,,,,,,,,,,,,,,,,,,,,,,,,
14.8207,23.4878,0,1,1,1,1,"If you believe the utterance is a question, type '1' (for 'yes') and if you do not 
  believe it is a question type '0' (for 'no').

  Let's practice a bit...", (press the spacebar to continue),67f1a658a3c63b091b89f45d,Spanish,13 or older,"no, only English or Spanish",yes,2025-07-24_09h06.34.305,empathy_intonation_perc_control,2024.2.4,Win32,59.88023952,67f1a658a3c63b091b89f45d,68817205a84113384fffdfe3,68822f845e4686cb8b916271,,,,,,,,,,,,,,,,,,,,,,,,,,,,,,,,,,,,,,,,,,,,,,,,,,,,,,,,,,,,,,,,,,,,,,,,,,,,,,,,,,,,,
,,,,,,,,,67f1a658a3c63b091b89f45d,Spanish,13 or older,"no, only English or Spanish",yes,2025-07-24_09h06.34.305,empathy_intonation_perc_control,2024.2.4,Win32,59.88023952,67f1a658a3c63b091b89f45d,68817205a84113384fffdfe3,68822f845e4686cb8b916271,23.4995,41.0736,0,1,17.0537,,0,0,0,7,1,./stim/wavs/puertorican_statement_filler_La-nina-pinta-con-su-amiga.wav,0,,,,,,,,,,,,,,,,,,,,,,,,,,,,,,,,,,,,,,,,,,,,,,,,,,,,,,,,,,,,,,,,,,,,,,,,
,,,,,,,,,67f1a658a3c63b091b89f45d,Spanish,13 or older,"no, only English or Spanish",yes,2025-07-24_09h06.34.305,empathy_intonation_perc_control,2024.2.4,Win32,59.88023952,67f1a658a3c63b091b89f45d,68817205a84113384fffdfe3,68822f845e4686cb8b916271,41.0751,46.8271,1,1,5.2335,,0,1,1,1,1,./stim/wavs/argentine_question_filler_Mi-vecino-habla-mucho.wav,1,,,,,,,,,,,,,,,,,,,,,,,,,,,,,,,,,,,,,,,,,,,,,,,,,,,,,,,,,,,,,,,,,,,,,,,,
,,,,,,,,,67f1a658a3c63b091b89f45d,Spanish,13 or older,"no, only English or Spanish",yes,2025-07-24_09h06.34.305,empathy_intonation_perc_control,2024.2.4,Win32,59.88023952,67f1a658a3c63b091b89f45d,68817205a84113384fffdfe3,68822f845e4686cb8b916271,46.8278,50.1406,0,1,2.7961,,0,2,2,6,1,./stim/wavs/peruvian_statement_filler_El-nino-habla-con-su-madre.wav,0,,,,,,,,,,,,,,,,,,,,,,,,,,,,,,,,,,,,,,,,,,,,,,,,,,,,,,,,,,,,,,,,,,,,,,,,
,,,,,,,,,67f1a658a3c63b091b89f45d,Spanish,13 or older,"no, only English or Spanish",yes,2025-07-24_09h06.34.305,empathy_intonation_perc_control,2024.2.4,Win32,59.88023952,67f1a658a3c63b091b89f45d,68817205a84113384fffdfe3,68822f845e4686cb8b916271,50.1416,54.975,0,0,4.3037,,0,3,3,2,1,./stim/wavs/chilean_question_filler_Mi-padre-cantaba-bien.wav,1,,,,,,,,,,,,,,,,,,,,,,,,,,,,,,,,,,,,,,,,,,,,,,,,,,,,,,,,,,,,,,,,,,,,,,,,
,,,,,,,,,67f1a658a3c63b091b89f45d,Spanish,13 or older,"no, only English or Spanish",yes,2025-07-24_09h06.34.305,empathy_intonation_perc_control,2024.2.4,Win32,59.88023952,67f1a658a3c63b091b89f45d,68817205a84113384fffdfe3,68822f845e4686cb8b916271,54.9759,57.9417,0,1,2.4447,,0,4,4,4,1,./stim/wavs/cuban_statement_filler_Cocinabas-por-la-noche.wav,0,,,,,,,,,,,,,,,,,,,,,,,,,,,,,,,,,,,,,,,,,,,,,,,,,,,,,,,,,,,,,,,,,,,,,,,,
,,,,,,,,,67f1a658a3c63b091b89f45d,Spanish,13 or older,"no, only English or Spanish",yes,2025-07-24_09h06.34.305,empathy_intonation_perc_control,2024.2.4,Win32,59.88023952,67f1a658a3c63b091b89f45d,68817205a84113384fffdfe3,68822f845e4686cb8b916271,57.9426,61.7623,1,1,3.3,,0,5,5,0,1,./stim/wavs/castilian_question_filler_Mi-esposo-conoce-al-chico.wav,1,,,,,,,,,,,,,,,,,,,,,,,,,,,,,,,,,,,,,,,,,,,,,,,,,,,,,,,,,,,,,,,,,,,,,,,,
,,,,,,,,,67f1a658a3c63b091b89f45d,Spanish,13 or older,"no, only English or Spanish",yes,2025-07-24_09h06.34.305,empathy_intonation_perc_control,2024.2.4,Win32,59.88023952,67f1a658a3c63b091b89f45d,68817205a84113384fffdfe3,68822f845e4686cb8b916271,61.763,65.4093,0,1,3.1283,,0,6,6,5,1,./stim/wavs/andalusian_statement_filler_Alberto-nunca-se-afeita.wav,0,,,,,,,,,,,,,,,,,,,,,,,,,,,,,,,,,,,,,,,,,,,,,,,,,,,,,,,,,,,,,,,,,,,,,,,,
,,,,,,,,,67f1a658a3c63b091b89f45d,Spanish,13 or older,"no, only English or Spanish",yes,2025-07-24_09h06.34.305,empathy_intonation_perc_control,2024.2.4,Win32,59.88023952,67f1a658a3c63b091b89f45d,68817205a84113384fffdfe3,68822f845e4686cb8b916271,65.4098,69.7937,1,1,3.8633,,0,7,7,3,1,./stim/wavs/mexican_question_filler_Felipe-no-tiene-contrasena.wav,1,,,,,,,,,,,,,,,,,,,,,,,,,,,,,,,,,,,,,,,,,,,,,,,,,,,,,,,,,,,,,,,,,,,,,,,,
,,,,,,,,,67f1a658a3c63b091b89f45d,Spanish,13 or older,"no, only English or Spanish",yes,2025-07-24_09h06.34.305,empathy_intonation_perc_control,2024.2.4,Win32,59.88023952,67f1a658a3c63b091b89f45d,68817205a84113384fffdfe3,68822f845e4686cb8b916271,,,,,,,,,,,,,,69.7947,76.1944,,,,,,,,,,,,,,,,,,,,,,,,,,,,,,,,,,,,,,,,,,,,,,,,,,,,,,,,,,,,,,,,,,,,,,
,,,,,,,,,67f1a658a3c63b091b89f45d,Spanish,13 or older,"no, only English or Spanish",yes,2025-07-24_09h06.34.305,empathy_intonation_perc_control,2024.2.4,Win32,59.88023952,67f1a658a3c63b091b89f45d,68817205a84113384fffdfe3,68822f845e4686cb8b916271,,,,,,,,,,,,./stim/wavs/castilian_match_interrogative-total-yn_David-leia-el-libro.wav,1,,,76.2048,79.4452,1,1,2.7171,,0,0,0,0,1,1,0,castilian,,,,,,,,,,,,,,,,,,,,,,,,,,,,,,,,,,,,,,,,,,,,,,,,,,,,,,,,
,,,,,,,,,67f1a658a3c63b091b89f45d,Spanish,13 or older,"no, only English or Spanish",yes,2025-07-24_09h06.34.305,empathy_intonation_perc_control,2024.2.4,Win32,59.88023952,67f1a658a3c63b091b89f45d,68817205a84113384fffdfe3,68822f845e4686cb8b916271,,,,,,,,,,,,./stim/wavs/cuban_mismatch_interrogative-total-yn_Mi-madre-come-la-fruta.wav,1,,,79.4467,82.3282,0,0,2.3371,,0,1,1,31,1,32,1,cuban,,,,,,,,,,,,,,,,,,,,,,,,,,,,,,,,,,,,,,,,,,,,,,,,,,,,,,,,
,,,,,,,,,67f1a658a3c63b091b89f45d,Spanish,13 or older,"no, only English or Spanish",yes,2025-07-24_09h06.34.305,empathy_intonation_perc_control,2024.2.4,Win32,59.88023952,67f1a658a3c63b091b89f45d,68817205a84113384fffdfe3,68822f845e4686cb8b916271,,,,,,,,,,,,./stim/wavs/castilian_match_declarative-broad-focus_Emilio-ama-la-marcha.wav,0,,,82.3291,84.862,0,1,2.0092,,0,2,2,45,1,46,0,castilian,,,,,,,,,,,,,,,,,,,,,,,,,,,,,,,,,,,,,,,,,,,,,,,,,,,,,,,,
,,,,,,,,,67f1a658a3c63b091b89f45d,Spanish,13 or older,"no, only English or Spanish",yes,2025-07-24_09h06.34.305,empathy_intonation_perc_control,2024.2.4,Win32,59.88023952,67f1a658a3c63b091b89f45d,68817205a84113384fffdfe3,68822f845e4686cb8b916271,,,,,,,,,,,,./stim/wavs/mexican_match_interrogative-total-yn_Emilio-ama-la-marcha.wav,1,,,84.8629,87.2456,1,1,1.855,,0,3,3,15,1,16,0,mexican,,,,,,,,,,,,,,,,,,,,,,,,,,,,,,,,,,,,,,,,,,,,,,,,,,,,,,,,
,,,,,,,,,67f1a658a3c63b091b89f45d,Spanish,13 or older,"no, only English or Spanish",yes,2025-07-24_09h06.34.305,empathy_intonation_perc_control,2024.2.4,Win32,59.88023952,67f1a658a3c63b091b89f45d,68817205a84113384fffdfe3,68822f845e4686cb8b916271,,,,,,,,,,,,./stim/wavs/mexican_match_declarative-broad-focus_Marta-abre-el-regalo.wav,0,,,87.2471,89.8792,0,1,2.1059,,0,4,4,61,1,62,0,mexican,,,,,,,,,,,,,,,,,,,,,,,,,,,,,,,,,,,,,,,,,,,,,,,,,,,,,,,,
,,,,,,,,,67f1a658a3c63b091b89f45d,Spanish,13 or older,"no, only English or Spanish",yes,2025-07-24_09h06.34.305,empathy_intonation_perc_control,2024.2.4,Win32,59.88023952,67f1a658a3c63b091b89f45d,68817205a84113384fffdfe3,68822f845e4686cb8b916271,,,,,,,,,,,,./stim/wavs/cuban_match_interrogative-total-yn_Marta-abre-el-regalo.wav,1,,,89.8802,92.9795,0,0,2.5694,,0,5,5,11,1,12,1,cuban,,,,,,,,,,,,,,,,,,,,,,,,,,,,,,,,,,,,,,,,,,,,,,,,,,,,,,,,
,,,,,,,,,67f1a658a3c63b091b89f45d,Spanish,13 or older,"no, only English or Spanish",yes,2025-07-24_09h06.34.305,empathy_intonation_perc_control,2024.2.4,Win32,59.88023952,67f1a658a3c63b091b89f45d,68817205a84113384fffdfe3,68822f845e4686cb8b916271,,,,,,,,,,,,./stim/wavs/mexican_match_declarative-broad-focus_Mariano-habla-del-tiempo.wav,0,,,92.9809,95.6298,0,1,2.102,,0,6,6,60,1,61,0,mexican,,,,,,,,,,,,,,,,,,,,,,,,,,,,,,,,,,,,,,,,,,,,,,,,,,,,,,,,
,,,,,,,,,67f1a658a3c63b091b89f45d,Spanish,13 or older,"no, only English or Spanish",yes,2025-07-24_09h06.34.305,empathy_intonation_perc_control,2024.2.4,Win32,59.88023952,67f1a658a3c63b091b89f45d,68817205a84113384fffdfe3,68822f845e4686cb8b916271,,,,,,,,,,,,./stim/wavs/castilian_match_declarative-broad-focus_David-leia-el-libro.wav,0,,,95.6305,98.997,0,1,2.8335,,0,7,7,44,1,45,0,castilian,,,,,,,,,,,,,,,,,,,,,,,,,,,,,,,,,,,,,,,,,,,,,,,,,,,,,,,,
,,,,,,,,,67f1a658a3c63b091b89f45d,Spanish,13 or older,"no, only English or Spanish",yes,2025-07-24_09h06.34.305,empathy_intonation_perc_control,2024.2.4,Win32,59.88023952,67f1a658a3c63b091b89f45d,68817205a84113384fffdfe3,68822f845e4686cb8b916271,,,,,,,,,,,,./stim/wavs/puertorican_match_declarative-broad-focus_Daniel-iba-a-Bolivia.wav,0,,,98.9978,102.2974,0,1,2.769,,0,8,8,63,1,64,0,puertorican,,,,,,,,,,,,,,,,,,,,,,,,,,,,,,,,,,,,,,,,,,,,,,,,,,,,,,,,
,,,,,,,,,67f1a658a3c63b091b89f45d,Spanish,13 or older,"no, only English or Spanish",yes,2025-07-24_09h06.34.305,empathy_intonation_perc_control,2024.2.4,Win32,59.88023952,67f1a658a3c63b091b89f45d,68817205a84113384fffdfe3,68822f845e4686cb8b916271,,,,,,,,,,,,./stim/wavs/puertorican_mismatch_interrogative-total-yn_El-hombre-mira-la-luna.wav,1,,,102.2983,104.8143,1,1,1.9909,,0,9,9,39,1,40,1,puertorican,,,,,,,,,,,,,,,,,,,,,,,,,,,,,,,,,,,,,,,,,,,,,,,,,,,,,,,,
,,,,,,,,,67f1a658a3c63b091b89f45d,Spanish,13 or older,"no, only English or Spanish",yes,2025-07-24_09h06.34.305,empathy_intonation_perc_control,2024.2.4,Win32,59.88023952,67f1a658a3c63b091b89f45d,68817205a84113384fffdfe3,68822f845e4686cb8b916271,,,,,,,,,,,,./stim/wavs/castilian_mismatch_interrogative-total-yn_Mi-tia-odia-la-lluvia.wav,1,,,104.8153,107.2648,1,1,1.926,,0,10,10,28,1,29,0,castilian,,,,,,,,,,,,,,,,,,,,,,,,,,,,,,,,,,,,,,,,,,,,,,,,,,,,,,,,
,,,,,,,,,67f1a658a3c63b091b89f45d,Spanish,13 or older,"no, only English or Spanish",yes,2025-07-24_09h06.34.305,empathy_intonation_perc_control,2024.2.4,Win32,59.88023952,67f1a658a3c63b091b89f45d,68817205a84113384fffdfe3,68822f845e4686cb8b916271,,,,,,,,,,,,./stim/wavs/cuban_mismatch_declarative-broad-focus_La-nina-lava-el-plato.wav,0,,,107.2656,109.5817,0,1,1.794,,0,11,11,75,1,76,0,cuban,,,,,,,,,,,,,,,,,,,,,,,,,,,,,,,,,,,,,,,,,,,,,,,,,,,,,,,,
,,,,,,,,,67f1a658a3c63b091b89f45d,Spanish,13 or older,"no, only English or Spanish",yes,2025-07-24_09h06.34.305,empathy_intonation_perc_control,2024.2.4,Win32,59.88023952,67f1a658a3c63b091b89f45d,68817205a84113384fffdfe3,68822f845e4686cb8b916271,,,,,,,,,,,,./stim/wavs/mexican_mismatch_declarative-broad-focus_Mi-novio-viene-del-lago.wav,0,,,109.5827,112.0151,0,1,1.9019,,0,12,12,81,1,82,0,mexican,,,,,,,,,,,,,,,,,,,,,,,,,,,,,,,,,,,,,,,,,,,,,,,,,,,,,,,,
,,,,,,,,,67f1a658a3c63b091b89f45d,Spanish,13 or older,"no, only English or Spanish",yes,2025-07-24_09h06.34.305,empathy_intonation_perc_control,2024.2.4,Win32,59.88023952,67f1a658a3c63b091b89f45d,68817205a84113384fffdfe3,68822f845e4686cb8b916271,,,,,,,,,,,,./stim/wavs/mexican_mismatch_declarative-broad-focus_Mi-tia-odia-la-lluvia.wav,0,,,112.016,114.6154,0,1,2.0794,,0,13,13,82,1,83,0,mexican,,,,,,,,,,,,,,,,,,,,,,,,,,,,,,,,,,,,,,,,,,,,,,,,,,,,,,,,
,,,,,,,,,67f1a658a3c63b091b89f45d,Spanish,13 or older,"no, only English or Spanish",yes,2025-07-24_09h06.34.305,empathy_intonation_perc_control,2024.2.4,Win32,59.88023952,67f1a658a3c63b091b89f45d,68817205a84113384fffdfe3,68822f845e4686cb8b916271,,,,,,,,,,,,./stim/wavs/puertorican_match_interrogative-total-yn_Manuela-vende-el-carro.wav,1,,,114.6171,117.0491,1,1,1.9065,,0,14,14,22,1,23,1,puertorican,,,,,,,,,,,,,,,,,,,,,,,,,,,,,,,,,,,,,,,,,,,,,,,,,,,,,,,,
,,,,,,,,,67f1a658a3c63b091b89f45d,Spanish,13 or older,"no, only English or Spanish",yes,2025-07-24_09h06.34.305,empathy_intonation_perc_control,2024.2.4,Win32,59.88023952,67f1a658a3c63b091b89f45d,68817205a84113384fffdfe3,68822f845e4686cb8b916271,,,,,,,,,,,,./stim/wavs/castilian_match_interrogative-total-yn_Maria-bebe-el-vino.wav,1,,,117.0497,119.3829,1,1,1.7944,,0,15,15,3,1,4,0,castilian,,,,,,,,,,,,,,,,,,,,,,,,,,,,,,,,,,,,,,,,,,,,,,,,,,,,,,,,
,,,,,,,,,67f1a658a3c63b091b89f45d,Spanish,13 or older,"no, only English or Spanish",yes,2025-07-24_09h06.34.305,empathy_intonation_perc_control,2024.2.4,Win32,59.88023952,67f1a658a3c63b091b89f45d,68817205a84113384fffdfe3,68822f845e4686cb8b916271,,,,,,,,,,,,./stim/wavs/cuban_match_interrogative-total-yn_Mariano-habla-del-tiempo.wav,1,,,119.3837,122.3332,0,0,2.4175,,0,16,16,10,1,11,1,cuban,,,,,,,,,,,,,,,,,,,,,,,,,,,,,,,,,,,,,,,,,,,,,,,,,,,,,,,,
,,,,,,,,,67f1a658a3c63b091b89f45d,Spanish,13 or older,"no, only English or Spanish",yes,2025-07-24_09h06.34.305,empathy_intonation_perc_control,2024.2.4,Win32,59.88023952,67f1a658a3c63b091b89f45d,68817205a84113384fffdfe3,68822f845e4686cb8b916271,,,,,,,,,,,,./stim/wavs/castilian_match_declarative-broad-focus_Mariano-habla-del-tiempo.wav,0,,,122.3342,125.0336,0,1,2.1773,,0,17,17,48,1,49,0,castilian,,,,,,,,,,,,,,,,,,,,,,,,,,,,,,,,,,,,,,,,,,,,,,,,,,,,,,,,
,,,,,,,,,67f1a658a3c63b091b89f45d,Spanish,13 or older,"no, only English or Spanish",yes,2025-07-24_09h06.34.305,empathy_intonation_perc_control,2024.2.4,Win32,59.88023952,67f1a658a3c63b091b89f45d,68817205a84113384fffdfe3,68822f845e4686cb8b916271,,,,,,,,,,,,./stim/wavs/mexican_match_declarative-broad-focus_Ana-lleva-el-abrigo.wav,0,,,125.0345,127.3838,0,1,1.8172,,0,18,18,56,1,57,0,mexican,,,,,,,,,,,,,,,,,,,,,,,,,,,,,,,,,,,,,,,,,,,,,,,,,,,,,,,,
,,,,,,,,,67f1a658a3c63b091b89f45d,Spanish,13 or older,"no, only English or Spanish",yes,2025-07-24_09h06.34.305,empathy_intonation_perc_control,2024.2.4,Win32,59.88023952,67f1a658a3c63b091b89f45d,68817205a84113384fffdfe3,68822f845e4686cb8b916271,,,,,,,,,,,,./stim/wavs/puertorican_mismatch_declarative-broad-focus_La-nina-lava-el-plato.wav,0,,,127.3845,130.0506,0,1,2.1342,,0,19,19,87,1,88,0,puertorican,,,,,,,,,,,,,,,,,,,,,,,,,,,,,,,,,,,,,,,,,,,,,,,,,,,,,,,,
,,,,,,,,,67f1a658a3c63b091b89f45d,Spanish,13 or older,"no, only English or Spanish",yes,2025-07-24_09h06.34.305,empathy_intonation_perc_control,2024.2.4,Win32,59.88023952,67f1a658a3c63b091b89f45d,68817205a84113384fffdfe3,68822f845e4686cb8b916271,,,,,,,,,,,,./stim/wavs/cuban_mismatch_interrogative-total-yn_El-nino-oye-el-rio.wav,1,,,130.0512,132.5012,0,0,1.9441,,0,20,20,30,1,31,1,cuban,,,,,,,,,,,,,,,,,,,,,,,,,,,,,,,,,,,,,,,,,,,,,,,,,,,,,,,,
,,,,,,,,,67f1a658a3c63b091b89f45d,Spanish,13 or older,"no, only English or Spanish",yes,2025-07-24_09h06.34.305,empathy_intonation_perc_control,2024.2.4,Win32,59.88023952,67f1a658a3c63b091b89f45d,68817205a84113384fffdfe3,68822f845e4686cb8b916271,,,,,,,,,,,,./stim/wavs/puertorican_match_declarative-broad-focus_David-leia-el-libro.wav,0,,,132.502,134.8517,0,1,1.8228,,0,21,21,64,1,65,0,puertorican,,,,,,,,,,,,,,,,,,,,,,,,,,,,,,,,,,,,,,,,,,,,,,,,,,,,,,,,
,,,,,,,,,67f1a658a3c63b091b89f45d,Spanish,13 or older,"no, only English or Spanish",yes,2025-07-24_09h06.34.305,empathy_intonation_perc_control,2024.2.4,Win32,59.88023952,67f1a658a3c63b091b89f45d,68817205a84113384fffdfe3,68822f845e4686cb8b916271,,,,,,,,,,,,./stim/wavs/puertorican_mismatch_declarative-broad-focus_El-hombre-mira-la-luna.wav,0,,,134.8524,137.3351,0,1,1.9619,,0,22,22,84,1,85,0,puertorican,,,,,,,,,,,,,,,,,,,,,,,,,,,,,,,,,,,,,,,,,,,,,,,,,,,,,,,,
,,,,,,,,,67f1a658a3c63b091b89f45d,Spanish,13 or older,"no, only English or Spanish",yes,2025-07-24_09h06.34.305,empathy_intonation_perc_control,2024.2.4,Win32,59.88023952,67f1a658a3c63b091b89f45d,68817205a84113384fffdfe3,68822f845e4686cb8b916271,,,,,,,,,,,,./stim/wavs/mexican_match_interrogative-total-yn_Mariano-habla-del-tiempo.wav,1,,,137.3357,139.9354,1,1,2.077,,0,23,23,16,1,17,0,mexican,,,,,,,,,,,,,,,,,,,,,,,,,,,,,,,,,,,,,,,,,,,,,,,,,,,,,,,,
,,,,,,,,,67f1a658a3c63b091b89f45d,Spanish,13 or older,"no, only English or Spanish",yes,2025-07-24_09h06.34.305,empathy_intonation_perc_control,2024.2.4,Win32,59.88023952,67f1a658a3c63b091b89f45d,68817205a84113384fffdfe3,68822f845e4686cb8b916271,,,,,,,,,,,,./stim/wavs/cuban_match_interrogative-total-yn_Ana-lleva-el-abrigo.wav,1,,,139.9363,142.2688,0,0,1.8115,,0,24,24,6,1,7,1,cuban,,,,,,,,,,,,,,,,,,,,,,,,,,,,,,,,,,,,,,,,,,,,,,,,,,,,,,,,
,,,,,,,,,67f1a658a3c63b091b89f45d,Spanish,13 or older,"no, only English or Spanish",yes,2025-07-24_09h06.34.305,empathy_intonation_perc_control,2024.2.4,Win32,59.88023952,67f1a658a3c63b091b89f45d,68817205a84113384fffdfe3,68822f845e4686cb8b916271,,,,,,,,,,,,./stim/wavs/mexican_match_interrogative-total-yn_Marta-abre-el-regalo.wav,1,,,142.2695,144.7692,1,1,1.9777,,0,25,25,17,1,18,0,mexican,,,,,,,,,,,,,,,,,,,,,,,,,,,,,,,,,,,,,,,,,,,,,,,,,,,,,,,,
,,,,,,,,,67f1a658a3c63b091b89f45d,Spanish,13 or older,"no, only English or Spanish",yes,2025-07-24_09h06.34.305,empathy_intonation_perc_control,2024.2.4,Win32,59.88023952,67f1a658a3c63b091b89f45d,68817205a84113384fffdfe3,68822f845e4686cb8b916271,,,,,,,,,,,,./stim/wavs/castilian_match_interrogative-total-yn_Mariano-habla-del-tiempo.wav,1,,,144.7698,147.5864,1,1,2.2923,,0,26,26,4,1,5,0,castilian,,,,,,,,,,,,,,,,,,,,,,,,,,,,,,,,,,,,,,,,,,,,,,,,,,,,,,,,
,,,,,,,,,67f1a658a3c63b091b89f45d,Spanish,13 or older,"no, only English or Spanish",yes,2025-07-24_09h06.34.305,empathy_intonation_perc_control,2024.2.4,Win32,59.88023952,67f1a658a3c63b091b89f45d,68817205a84113384fffdfe3,68822f845e4686cb8b916271,,,,,,,,,,,,./stim/wavs/castilian_mismatch_interrogative-total-yn_La-maestra-vive-en-Paris.wav,1,,,147.5872,150.3699,1,1,2.26,,0,27,27,24,1,25,0,castilian,,,,,,,,,,,,,,,,,,,,,,,,,,,,,,,,,,,,,,,,,,,,,,,,,,,,,,,,
,,,,,,,,,67f1a658a3c63b091b89f45d,Spanish,13 or older,"no, only English or Spanish",yes,2025-07-24_09h06.34.305,empathy_intonation_perc_control,2024.2.4,Win32,59.88023952,67f1a658a3c63b091b89f45d,68817205a84113384fffdfe3,68822f845e4686cb8b916271,,,,,,,,,,,,./stim/wavs/mexican_mismatch_interrogative-total-yn_La-maestra-vive-en-Paris.wav,1,,,150.3706,152.9871,1,1,2.0921,,0,28,28,36,1,37,0,mexican,,,,,,,,,,,,,,,,,,,,,,,,,,,,,,,,,,,,,,,,,,,,,,,,,,,,,,,,
,,,,,,,,,67f1a658a3c63b091b89f45d,Spanish,13 or older,"no, only English or Spanish",yes,2025-07-24_09h06.34.305,empathy_intonation_perc_control,2024.2.4,Win32,59.88023952,67f1a658a3c63b091b89f45d,68817205a84113384fffdfe3,68822f845e4686cb8b916271,,,,,,,,,,,,./stim/wavs/castilian_mismatch_interrogative-total-yn_La-nina-lava-el-plato.wav,1,,,152.9883,155.5874,1,1,2.0867,,0,29,29,25,1,26,0,castilian,,,,,,,,,,,,,,,,,,,,,,,,,,,,,,,,,,,,,,,,,,,,,,,,,,,,,,,,
,,,,,,,,,67f1a658a3c63b091b89f45d,Spanish,13 or older,"no, only English or Spanish",yes,2025-07-24_09h06.34.305,empathy_intonation_perc_control,2024.2.4,Win32,59.88023952,67f1a658a3c63b091b89f45d,68817205a84113384fffdfe3,68822f845e4686cb8b916271,,,,,,,,,,,,./stim/wavs/mexican_match_declarative-broad-focus_Emilio-ama-la-marcha.wav,0,,,155.5882,158.2711,0,1,2.1595,,0,30,30,59,1,60,0,mexican,,,,,,,,,,,,,,,,,,,,,,,,,,,,,,,,,,,,,,,,,,,,,,,,,,,,,,,,
,,,,,,,,,67f1a658a3c63b091b89f45d,Spanish,13 or older,"no, only English or Spanish",yes,2025-07-24_09h06.34.305,empathy_intonation_perc_control,2024.2.4,Win32,59.88023952,67f1a658a3c63b091b89f45d,68817205a84113384fffdfe3,68822f845e4686cb8b916271,,,,,,,,,,,,./stim/wavs/mexican_mismatch_declarative-broad-focus_La-maestra-vive-en-Paris.wav,0,,,158.2717,160.9051,0,1,2.1053,,0,31,31,80,1,81,0,mexican,,,,,,,,,,,,,,,,,,,,,,,,,,,,,,,,,,,,,,,,,,,,,,,,,,,,,,,,
,,,,,,,,,67f1a658a3c63b091b89f45d,Spanish,13 or older,"no, only English or Spanish",yes,2025-07-24_09h06.34.305,empathy_intonation_perc_control,2024.2.4,Win32,59.88023952,67f1a658a3c63b091b89f45d,68817205a84113384fffdfe3,68822f845e4686cb8b916271,,,,,,,,,,,,./stim/wavs/mexican_match_interrogative-total-yn_Daniel-iba-a-Bolivia.wav,1,,,160.9064,163.4052,1,1,1.9693,,0,32,32,13,1,14,0,mexican,,,,,,,,,,,,,,,,,,,,,,,,,,,,,,,,,,,,,,,,,,,,,,,,,,,,,,,,
,,,,,,,,,67f1a658a3c63b091b89f45d,Spanish,13 or older,"no, only English or Spanish",yes,2025-07-24_09h06.34.305,empathy_intonation_perc_control,2024.2.4,Win32,59.88023952,67f1a658a3c63b091b89f45d,68817205a84113384fffdfe3,68822f845e4686cb8b916271,,,,,,,,,,,,./stim/wavs/puertorican_match_interrogative-total-yn_David-leia-el-libro.wav,1,,,163.4065,165.7888,0,0,1.8508,,0,33,33,20,1,21,1,puertorican,,,,,,,,,,,,,,,,,,,,,,,,,,,,,,,,,,,,,,,,,,,,,,,,,,,,,,,,
,,,,,,,,,67f1a658a3c63b091b89f45d,Spanish,13 or older,"no, only English or Spanish",yes,2025-07-24_09h06.34.305,empathy_intonation_perc_control,2024.2.4,Win32,59.88023952,67f1a658a3c63b091b89f45d,68817205a84113384fffdfe3,68822f845e4686cb8b916271,,,,,,,,,,,,./stim/wavs/cuban_match_declarative-broad-focus_Daniel-iba-a-Bolivia.wav,0,,,165.7895,168.5555,0,1,2.2438,,0,34,34,51,1,52,0,cuban,,,,,,,,,,,,,,,,,,,,,,,,,,,,,,,,,,,,,,,,,,,,,,,,,,,,,,,,
,,,,,,,,,67f1a658a3c63b091b89f45d,Spanish,13 or older,"no, only English or Spanish",yes,2025-07-24_09h06.34.305,empathy_intonation_perc_control,2024.2.4,Win32,59.88023952,67f1a658a3c63b091b89f45d,68817205a84113384fffdfe3,68822f845e4686cb8b916271,,,,,,,,,,,,./stim/wavs/castilian_mismatch_declarative-broad-focus_El-nino-oye-el-rio.wav,0,,,168.556,171.6731,0,1,2.5817,,0,35,35,68,1,69,0,castilian,,,,,,,,,,,,,,,,,,,,,,,,,,,,,,,,,,,,,,,,,,,,,,,,,,,,,,,,
,,,,,,,,,67f1a658a3c63b091b89f45d,Spanish,13 or older,"no, only English or Spanish",yes,2025-07-24_09h06.34.305,empathy_intonation_perc_control,2024.2.4,Win32,59.88023952,67f1a658a3c63b091b89f45d,68817205a84113384fffdfe3,68822f845e4686cb8b916271,,,,,,,,,,,,./stim/wavs/castilian_match_declarative-broad-focus_Manuela-vende-el-carro.wav,0,,,171.6739,174.6233,0,1,2.4183,,0,36,36,46,1,47,0,castilian,,,,,,,,,,,,,,,,,,,,,,,,,,,,,,,,,,,,,,,,,,,,,,,,,,,,,,,,
,,,,,,,,,67f1a658a3c63b091b89f45d,Spanish,13 or older,"no, only English or Spanish",yes,2025-07-24_09h06.34.305,empathy_intonation_perc_control,2024.2.4,Win32,59.88023952,67f1a658a3c63b091b89f45d,68817205a84113384fffdfe3,68822f845e4686cb8b916271,,,,,,,,,,,,./stim/wavs/castilian_match_declarative-broad-focus_Maria-bebe-el-vino.wav,0,,,174.6239,177.2096,0,1,2.0655,,0,37,37,47,1,48,0,castilian,,,,,,,,,,,,,,,,,,,,,,,,,,,,,,,,,,,,,,,,,,,,,,,,,,,,,,,,
,,,,,,,,,67f1a658a3c63b091b89f45d,Spanish,13 or older,"no, only English or Spanish",yes,2025-07-24_09h06.34.305,empathy_intonation_perc_control,2024.2.4,Win32,59.88023952,67f1a658a3c63b091b89f45d,68817205a84113384fffdfe3,68822f845e4686cb8b916271,,,,,,,,,,,,./stim/wavs/mexican_mismatch_interrogative-total-yn_El-nino-oye-el-rio.wav,1,,,177.2102,179.4905,1,1,1.7586,,0,38,38,35,1,36,0,mexican,,,,,,,,,,,,,,,,,,,,,,,,,,,,,,,,,,,,,,,,,,,,,,,,,,,,,,,,
,,,,,,,,,67f1a658a3c63b091b89f45d,Spanish,13 or older,"no, only English or Spanish",yes,2025-07-24_09h06.34.305,empathy_intonation_perc_control,2024.2.4,Win32,59.88023952,67f1a658a3c63b091b89f45d,68817205a84113384fffdfe3,68822f845e4686cb8b916271,,,,,,,,,,,,./stim/wavs/cuban_mismatch_interrogative-total-yn_El-hombre-mira-la-luna.wav,1,,,179.4914,181.9241,1,1,1.9041,,0,39,39,29,1,30,1,cuban,,,,,,,,,,,,,,,,,,,,,,,,,,,,,,,,,,,,,,,,,,,,,,,,,,,,,,,,
,,,,,,,,,67f1a658a3c63b091b89f45d,Spanish,13 or older,"no, only English or Spanish",yes,2025-07-24_09h06.34.305,empathy_intonation_perc_control,2024.2.4,Win32,59.88023952,67f1a658a3c63b091b89f45d,68817205a84113384fffdfe3,68822f845e4686cb8b916271,,,,,,,,,,,,./stim/wavs/mexican_mismatch_declarative-broad-focus_El-hombre-mira-la-luna.wav,0,,,181.9255,184.174,0,1,1.729,,0,40,40,79,1,80,0,mexican,,,,,,,,,,,,,,,,,,,,,,,,,,,,,,,,,,,,,,,,,,,,,,,,,,,,,,,,
,,,,,,,,,67f1a658a3c63b091b89f45d,Spanish,13 or older,"no, only English or Spanish",yes,2025-07-24_09h06.34.305,empathy_intonation_perc_control,2024.2.4,Win32,59.88023952,67f1a658a3c63b091b89f45d,68817205a84113384fffdfe3,68822f845e4686cb8b916271,,,,,,,,,,,,./stim/wavs/cuban_match_declarative-broad-focus_Manuela-vende-el-carro.wav,0,,,184.1748,186.6914,0,1,1.9842,,0,41,41,52,1,53,0,cuban,,,,,,,,,,,,,,,,,,,,,,,,,,,,,,,,,,,,,,,,,,,,,,,,,,,,,,,,
,,,,,,,,,67f1a658a3c63b091b89f45d,Spanish,13 or older,"no, only English or Spanish",yes,2025-07-24_09h06.34.305,empathy_intonation_perc_control,2024.2.4,Win32,59.88023952,67f1a658a3c63b091b89f45d,68817205a84113384fffdfe3,68822f845e4686cb8b916271,,,,,,,,,,,,./stim/wavs/puertorican_match_interrogative-total-yn_Maria-bebe-el-vino.wav,1,,,186.6927,189.3251,1,1,2.1059,,0,42,42,23,1,24,1,puertorican,,,,,,,,,,,,,,,,,,,,,,,,,,,,,,,,,,,,,,,,,,,,,,,,,,,,,,,,
,,,,,,,,,67f1a658a3c63b091b89f45d,Spanish,13 or older,"no, only English or Spanish",yes,2025-07-24_09h06.34.305,empathy_intonation_perc_control,2024.2.4,Win32,59.88023952,67f1a658a3c63b091b89f45d,68817205a84113384fffdfe3,68822f845e4686cb8b916271,,,,,,,,,,,,./stim/wavs/castilian_mismatch_declarative-broad-focus_Mi-tia-odia-la-lluvia.wav,0,,,189.3267,193.3757,0,1,3.5233,,0,43,43,72,1,73,0,castilian,,,,,,,,,,,,,,,,,,,,,,,,,,,,,,,,,,,,,,,,,,,,,,,,,,,,,,,,
,,,,,,,,,67f1a658a3c63b091b89f45d,Spanish,13 or older,"no, only English or Spanish",yes,2025-07-24_09h06.34.305,empathy_intonation_perc_control,2024.2.4,Win32,59.88023952,67f1a658a3c63b091b89f45d,68817205a84113384fffdfe3,68822f845e4686cb8b916271,,,,,,,,,,,,./stim/wavs/castilian_mismatch_interrogative-total-yn_Mi-novio-viene-del-lago.wav,1,,,193.3769,195.9423,1,1,2.0445,,0,44,44,27,1,28,0,castilian,,,,,,,,,,,,,,,,,,,,,,,,,,,,,,,,,,,,,,,,,,,,,,,,,,,,,,,,
,,,,,,,,,67f1a658a3c63b091b89f45d,Spanish,13 or older,"no, only English or Spanish",yes,2025-07-24_09h06.34.305,empathy_intonation_perc_control,2024.2.4,Win32,59.88023952,67f1a658a3c63b091b89f45d,68817205a84113384fffdfe3,68822f845e4686cb8b916271,,,,,,,,,,,,./stim/wavs/mexican_mismatch_interrogative-total-yn_Mi-novio-viene-del-lago.wav,1,,,195.943,198.3431,1,1,1.8753,,0,45,45,37,1,38,0,mexican,,,,,,,,,,,,,,,,,,,,,,,,,,,,,,,,,,,,,,,,,,,,,,,,,,,,,,,,
,,,,,,,,,67f1a658a3c63b091b89f45d,Spanish,13 or older,"no, only English or Spanish",yes,2025-07-24_09h06.34.305,empathy_intonation_perc_control,2024.2.4,Win32,59.88023952,67f1a658a3c63b091b89f45d,68817205a84113384fffdfe3,68822f845e4686cb8b916271,,,,,,,,,,,,./stim/wavs/cuban_match_declarative-broad-focus_Ana-lleva-el-abrigo.wav,0,,,198.3443,200.8125,0,1,1.9488,,0,46,46,50,1,51,0,cuban,,,,,,,,,,,,,,,,,,,,,,,,,,,,,,,,,,,,,,,,,,,,,,,,,,,,,,,,
,,,,,,,,,67f1a658a3c63b091b89f45d,Spanish,13 or older,"no, only English or Spanish",yes,2025-07-24_09h06.34.305,empathy_intonation_perc_control,2024.2.4,Win32,59.88023952,67f1a658a3c63b091b89f45d,68817205a84113384fffdfe3,68822f845e4686cb8b916271,,,,,,,,,,,,./stim/wavs/mexican_match_interrogative-total-yn_Ana-lleva-el-abrigo.wav,1,,,200.8131,203.4102,1,1,2.0735,,0,47,47,12,1,13,0,mexican,,,,,,,,,,,,,,,,,,,,,,,,,,,,,,,,,,,,,,,,,,,,,,,,,,,,,,,,
,,,,,,,,,67f1a658a3c63b091b89f45d,Spanish,13 or older,"no, only English or Spanish",yes,2025-07-24_09h06.34.305,empathy_intonation_perc_control,2024.2.4,Win32,59.88023952,67f1a658a3c63b091b89f45d,68817205a84113384fffdfe3,68822f845e4686cb8b916271,,,,,,,,,,,,./stim/wavs/cuban_mismatch_declarative-broad-focus_El-bebe-comia-muy-bien.wav,0,,,203.4113,207.7607,1,0,3.8303,,0,48,48,73,1,74,0,cuban,,,,,,,,,,,,,,,,,,,,,,,,,,,,,,,,,,,,,,,,,,,,,,,,,,,,,,,,
,,,,,,,,,67f1a658a3c63b091b89f45d,Spanish,13 or older,"no, only English or Spanish",yes,2025-07-24_09h06.34.305,empathy_intonation_perc_control,2024.2.4,Win32,59.88023952,67f1a658a3c63b091b89f45d,68817205a84113384fffdfe3,68822f845e4686cb8b916271,,,,,,,,,,,,./stim/wavs/puertorican_match_declarative-broad-focus_Maria-bebe-el-vino.wav,0,,,207.7613,210.3776,1,0,2.0861,,0,49,49,67,1,68,0,puertorican,,,,,,,,,,,,,,,,,,,,,,,,,,,,,,,,,,,,,,,,,,,,,,,,,,,,,,,,
,,,,,,,,,67f1a658a3c63b091b89f45d,Spanish,13 or older,"no, only English or Spanish",yes,2025-07-24_09h06.34.305,empathy_intonation_perc_control,2024.2.4,Win32,59.88023952,67f1a658a3c63b091b89f45d,68817205a84113384fffdfe3,68822f845e4686cb8b916271,,,,,,,,,,,,./stim/wavs/cuban_match_declarative-broad-focus_Mariano-habla-del-tiempo.wav,0,,,210.3781,213.1778,0,1,2.2796,,0,50,50,54,1,55,0,cuban,,,,,,,,,,,,,,,,,,,,,,,,,,,,,,,,,,,,,,,,,,,,,,,,,,,,,,,,
,,,,,,,,,67f1a658a3c63b091b89f45d,Spanish,13 or older,"no, only English or Spanish",yes,2025-07-24_09h06.34.305,empathy_intonation_perc_control,2024.2.4,Win32,59.88023952,67f1a658a3c63b091b89f45d,68817205a84113384fffdfe3,68822f845e4686cb8b916271,,,,,,,,,,,,./stim/wavs/mexican_match_interrogative-total-yn_David-leia-el-libro.wav,1,,,213.1784,215.7949,0,0,2.0837,,0,51,51,14,1,15,0,mexican,,,,,,,,,,,,,,,,,,,,,,,,,,,,,,,,,,,,,,,,,,,,,,,,,,,,,,,,
,,,,,,,,,67f1a658a3c63b091b89f45d,Spanish,13 or older,"no, only English or Spanish",yes,2025-07-24_09h06.34.305,empathy_intonation_perc_control,2024.2.4,Win32,59.88023952,67f1a658a3c63b091b89f45d,68817205a84113384fffdfe3,68822f845e4686cb8b916271,,,,,,,,,,,,./stim/wavs/mexican_mismatch_interrogative-total-yn_Mi-tia-odia-la-lluvia.wav,1,,,215.7956,218.1785,1,1,1.8507,,0,52,52,38,1,39,0,mexican,,,,,,,,,,,,,,,,,,,,,,,,,,,,,,,,,,,,,,,,,,,,,,,,,,,,,,,,
,,,,,,,,,67f1a658a3c63b091b89f45d,Spanish,13 or older,"no, only English or Spanish",yes,2025-07-24_09h06.34.305,empathy_intonation_perc_control,2024.2.4,Win32,59.88023952,67f1a658a3c63b091b89f45d,68817205a84113384fffdfe3,68822f845e4686cb8b916271,,,,,,,,,,,,./stim/wavs/castilian_match_interrogative-total-yn_Marta-abre-el-regalo.wav,1,,,218.179,220.6657,1,1,1.951,,0,53,53,5,1,6,0,castilian,,,,,,,,,,,,,,,,,,,,,,,,,,,,,,,,,,,,,,,,,,,,,,,,,,,,,,,,
,,,,,,,,,67f1a658a3c63b091b89f45d,Spanish,13 or older,"no, only English or Spanish",yes,2025-07-24_09h06.34.305,empathy_intonation_perc_control,2024.2.4,Win32,59.88023952,67f1a658a3c63b091b89f45d,68817205a84113384fffdfe3,68822f845e4686cb8b916271,,,,,,,,,,,,./stim/wavs/mexican_mismatch_interrogative-total-yn_El-hombre-mira-la-luna.wav,1,,,220.6668,222.979,1,1,1.7848,,0,54,54,34,1,35,0,mexican,,,,,,,,,,,,,,,,,,,,,,,,,,,,,,,,,,,,,,,,,,,,,,,,,,,,,,,,
,,,,,,,,,67f1a658a3c63b091b89f45d,Spanish,13 or older,"no, only English or Spanish",yes,2025-07-24_09h06.34.305,empathy_intonation_perc_control,2024.2.4,Win32,59.88023952,67f1a658a3c63b091b89f45d,68817205a84113384fffdfe3,68822f845e4686cb8b916271,,,,,,,,,,,,./stim/wavs/cuban_match_declarative-broad-focus_Maria-bebe-el-vino.wav,0,,,222.9796,225.2462,0,1,1.7435,,0,55,55,53,1,54,0,cuban,,,,,,,,,,,,,,,,,,,,,,,,,,,,,,,,,,,,,,,,,,,,,,,,,,,,,,,,
,,,,,,,,,67f1a658a3c63b091b89f45d,Spanish,13 or older,"no, only English or Spanish",yes,2025-07-24_09h06.34.305,empathy_intonation_perc_control,2024.2.4,Win32,59.88023952,67f1a658a3c63b091b89f45d,68817205a84113384fffdfe3,68822f845e4686cb8b916271,,,,,,,,,,,,./stim/wavs/cuban_mismatch_declarative-broad-focus_Mi-novio-viene-del-lago.wav,0,,,225.2469,228.0299,0,1,2.254,,0,56,56,76,1,77,0,cuban,,,,,,,,,,,,,,,,,,,,,,,,,,,,,,,,,,,,,,,,,,,,,,,,,,,,,,,,
,,,,,,,,,67f1a658a3c63b091b89f45d,Spanish,13 or older,"no, only English or Spanish",yes,2025-07-24_09h06.34.305,empathy_intonation_perc_control,2024.2.4,Win32,59.88023952,67f1a658a3c63b091b89f45d,68817205a84113384fffdfe3,68822f845e4686cb8b916271,,,,,,,,,,,,./stim/wavs/puertorican_mismatch_declarative-broad-focus_La-maestra-vive-en-Paris.wav,0,,,228.0307,230.6506,0,1,2.1001,,0,57,57,86,1,87,0,puertorican,,,,,,,,,,,,,,,,,,,,,,,,,,,,,,,,,,,,,,,,,,,,,,,,,,,,,,,,
,,,,,,,,,67f1a658a3c63b091b89f45d,Spanish,13 or older,"no, only English or Spanish",yes,2025-07-24_09h06.34.305,empathy_intonation_perc_control,2024.2.4,Win32,59.88023952,67f1a658a3c63b091b89f45d,68817205a84113384fffdfe3,68822f845e4686cb8b916271,,,,,,,,,,,,./stim/wavs/puertorican_match_interrogative-total-yn_Daniel-iba-a-Bolivia.wav,1,,,230.6511,233.1807,1,1,2.0061,,0,58,58,19,1,20,1,puertorican,,,,,,,,,,,,,,,,,,,,,,,,,,,,,,,,,,,,,,,,,,,,,,,,,,,,,,,,
,,,,,,,,,67f1a658a3c63b091b89f45d,Spanish,13 or older,"no, only English or Spanish",yes,2025-07-24_09h06.34.305,empathy_intonation_perc_control,2024.2.4,Win32,59.88023952,67f1a658a3c63b091b89f45d,68817205a84113384fffdfe3,68822f845e4686cb8b916271,,,,,,,,,,,,./stim/wavs/mexican_mismatch_declarative-broad-focus_El-bebe-comia-muy-bien.wav,0,,,233.1814,235.8977,0,1,2.1839,,0,59,59,78,1,79,0,mexican,,,,,,,,,,,,,,,,,,,,,,,,,,,,,,,,,,,,,,,,,,,,,,,,,,,,,,,,
,,,,,,,,,67f1a658a3c63b091b89f45d,Spanish,13 or older,"no, only English or Spanish",yes,2025-07-24_09h06.34.305,empathy_intonation_perc_control,2024.2.4,Win32,59.88023952,67f1a658a3c63b091b89f45d,68817205a84113384fffdfe3,68822f845e4686cb8b916271,,,,,,,,,,,,./stim/wavs/puertorican_mismatch_declarative-broad-focus_El-nino-oye-el-rio.wav,0,,,235.8989,238.2979,0,1,1.8697,,0,60,60,85,1,86,0,puertorican,,,,,,,,,,,,,,,,,,,,,,,,,,,,,,,,,,,,,,,,,,,,,,,,,,,,,,,,
,,,,,,,,,67f1a658a3c63b091b89f45d,Spanish,13 or older,"no, only English or Spanish",yes,2025-07-24_09h06.34.305,empathy_intonation_perc_control,2024.2.4,Win32,59.88023952,67f1a658a3c63b091b89f45d,68817205a84113384fffdfe3,68822f845e4686cb8b916271,,,,,,,,,,,,./stim/wavs/puertorican_match_interrogative-total-yn_Emilio-ama-la-marcha.wav,1,,,238.2986,240.998,1,1,2.1612,,0,61,61,21,1,22,1,puertorican,,,,,,,,,,,,,,,,,,,,,,,,,,,,,,,,,,,,,,,,,,,,,,,,,,,,,,,,
,,,,,,,,,67f1a658a3c63b091b89f45d,Spanish,13 or older,"no, only English or Spanish",yes,2025-07-24_09h06.34.305,empathy_intonation_perc_control,2024.2.4,Win32,59.88023952,67f1a658a3c63b091b89f45d,68817205a84113384fffdfe3,68822f845e4686cb8b916271,,,,,,,,,,,,./stim/wavs/castilian_match_interrogative-total-yn_Manuela-vende-el-carro.wav,1,,,240.9986,243.4986,1,1,1.9818,,0,62,62,2,1,3,0,castilian,,,,,,,,,,,,,,,,,,,,,,,,,,,,,,,,,,,,,,,,,,,,,,,,,,,,,,,,
,,,,,,,,,67f1a658a3c63b091b89f45d,Spanish,13 or older,"no, only English or Spanish",yes,2025-07-24_09h06.34.305,empathy_intonation_perc_control,2024.2.4,Win32,59.88023952,67f1a658a3c63b091b89f45d,68817205a84113384fffdfe3,68822f845e4686cb8b916271,,,,,,,,,,,,./stim/wavs/puertorican_match_declarative-broad-focus_Ana-lleva-el-abrigo.wav,0,,,243.4992,245.5487,0,1,1.528,,0,63,63,62,1,63,0,puertorican,,,,,,,,,,,,,,,,,,,,,,,,,,,,,,,,,,,,,,,,,,,,,,,,,,,,,,,,
,,,,,,,,,67f1a658a3c63b091b89f45d,Spanish,13 or older,"no, only English or Spanish",yes,2025-07-24_09h06.34.305,empathy_intonation_perc_control,2024.2.4,Win32,59.88023952,67f1a658a3c63b091b89f45d,68817205a84113384fffdfe3,68822f845e4686cb8b916271,,,,,,,,,,,,./stim/wavs/cuban_mismatch_declarative-broad-focus_Mi-tia-odia-la-lluvia.wav,0,,,245.5492,248.8657,0,1,2.7897,,0,64,64,77,1,78,0,cuban,,,,,,,,,,,,,,,,,,,,,,,,,,,,,,,,,,,,,,,,,,,,,,,,,,,,,,,,
,,,,,,,,,67f1a658a3c63b091b89f45d,Spanish,13 or older,"no, only English or Spanish",yes,2025-07-24_09h06.34.305,empathy_intonation_perc_control,2024.2.4,Win32,59.88023952,67f1a658a3c63b091b89f45d,68817205a84113384fffdfe3,68822f845e4686cb8b916271,,,,,,,,,,,,./stim/wavs/puertorican_match_interrogative-total-yn_Ana-lleva-el-abrigo.wav,1,,,248.8669,250.9827,1,1,1.585,,0,65,65,18,1,19,1,puertorican,,,,,,,,,,,,,,,,,,,,,,,,,,,,,,,,,,,,,,,,,,,,,,,,,,,,,,,,
,,,,,,,,,67f1a658a3c63b091b89f45d,Spanish,13 or older,"no, only English or Spanish",yes,2025-07-24_09h06.34.305,empathy_intonation_perc_control,2024.2.4,Win32,59.88023952,67f1a658a3c63b091b89f45d,68817205a84113384fffdfe3,68822f845e4686cb8b916271,,,,,,,,,,,,./stim/wavs/cuban_match_interrogative-total-yn_Daniel-iba-a-Bolivia.wav,1,,,250.9836,254.7497,0,0,3.2441,,0,66,66,7,1,8,1,cuban,,,,,,,,,,,,,,,,,,,,,,,,,,,,,,,,,,,,,,,,,,,,,,,,,,,,,,,,
,,,,,,,,,67f1a658a3c63b091b89f45d,Spanish,13 or older,"no, only English or Spanish",yes,2025-07-24_09h06.34.305,empathy_intonation_perc_control,2024.2.4,Win32,59.88023952,67f1a658a3c63b091b89f45d,68817205a84113384fffdfe3,68822f845e4686cb8b916271,,,,,,,,,,,,./stim/wavs/cuban_match_interrogative-total-yn_Manuela-vende-el-carro.wav,1,,,254.7504,256.9002,0,0,1.6234,,0,67,67,8,1,9,1,cuban,,,,,,,,,,,,,,,,,,,,,,,,,,,,,,,,,,,,,,,,,,,,,,,,,,,,,,,,
,,,,,,,,,67f1a658a3c63b091b89f45d,Spanish,13 or older,"no, only English or Spanish",yes,2025-07-24_09h06.34.305,empathy_intonation_perc_control,2024.2.4,Win32,59.88023952,67f1a658a3c63b091b89f45d,68817205a84113384fffdfe3,68822f845e4686cb8b916271,,,,,,,,,,,,./stim/wavs/puertorican_match_declarative-broad-focus_Manuela-vende-el-carro.wav,0,,,256.9011,260.3008,0,1,2.8675,,0,68,68,66,1,67,0,puertorican,,,,,,,,,,,,,,,,,,,,,,,,,,,,,,,,,,,,,,,,,,,,,,,,,,,,,,,,
,,,,,,,,,67f1a658a3c63b091b89f45d,Spanish,13 or older,"no, only English or Spanish",yes,2025-07-24_09h06.34.305,empathy_intonation_perc_control,2024.2.4,Win32,59.88023952,67f1a658a3c63b091b89f45d,68817205a84113384fffdfe3,68822f845e4686cb8b916271,,,,,,,,,,,,./stim/wavs/puertorican_mismatch_interrogative-total-yn_Mi-madre-come-la-fruta.wav,1,,,260.3016,262.9512,0,0,2.1253,,0,69,69,43,1,44,1,puertorican,,,,,,,,,,,,,,,,,,,,,,,,,,,,,,,,,,,,,,,,,,,,,,,,,,,,,,,,
,,,,,,,,,67f1a658a3c63b091b89f45d,Spanish,13 or older,"no, only English or Spanish",yes,2025-07-24_09h06.34.305,empathy_intonation_perc_control,2024.2.4,Win32,59.88023952,67f1a658a3c63b091b89f45d,68817205a84113384fffdfe3,68822f845e4686cb8b916271,,,,,,,,,,,,./stim/wavs/castilian_mismatch_declarative-broad-focus_Mi-novio-viene-del-lago.wav,0,,,262.9518,265.6177,0,1,2.1182,,0,70,70,71,1,72,0,castilian,,,,,,,,,,,,,,,,,,,,,,,,,,,,,,,,,,,,,,,,,,,,,,,,,,,,,,,,
,,,,,,,,,67f1a658a3c63b091b89f45d,Spanish,13 or older,"no, only English or Spanish",yes,2025-07-24_09h06.34.305,empathy_intonation_perc_control,2024.2.4,Win32,59.88023952,67f1a658a3c63b091b89f45d,68817205a84113384fffdfe3,68822f845e4686cb8b916271,,,,,,,,,,,,./stim/wavs/castilian_mismatch_declarative-broad-focus_La-maestra-vive-en-Paris.wav,0,,,265.6183,268.718,0,1,2.578,,0,71,71,69,1,70,0,castilian,,,,,,,,,,,,,,,,,,,,,,,,,,,,,,,,,,,,,,,,,,,,,,,,,,,,,,,,
,,,,,,,,,67f1a658a3c63b091b89f45d,Spanish,13 or older,"no, only English or Spanish",yes,2025-07-24_09h06.34.305,empathy_intonation_perc_control,2024.2.4,Win32,59.88023952,67f1a658a3c63b091b89f45d,68817205a84113384fffdfe3,68822f845e4686cb8b916271,,,,,,,,,,,,./stim/wavs/castilian_match_interrogative-total-yn_Emilio-ama-la-marcha.wav,1,,,268.7186,271.2024,1,1,1.9512,,0,72,72,1,1,2,0,castilian,,,,,,,,,,,,,,,,,,,,,,,,,,,,,,,,,,,,,,,,,,,,,,,,,,,,,,,,
,,,,,,,,,67f1a658a3c63b091b89f45d,Spanish,13 or older,"no, only English or Spanish",yes,2025-07-24_09h06.34.305,empathy_intonation_perc_control,2024.2.4,Win32,59.88023952,67f1a658a3c63b091b89f45d,68817205a84113384fffdfe3,68822f845e4686cb8b916271,,,,,,,,,,,,./stim/wavs/cuban_mismatch_interrogative-total-yn_Mi-novio-viene-del-lago.wav,1,,,271.2031,273.8548,1,1,2.1331,,0,73,73,32,1,33,1,cuban,,,,,,,,,,,,,,,,,,,,,,,,,,,,,,,,,,,,,,,,,,,,,,,,,,,,,,,,
,,,,,,,,,67f1a658a3c63b091b89f45d,Spanish,13 or older,"no, only English or Spanish",yes,2025-07-24_09h06.34.305,empathy_intonation_perc_control,2024.2.4,Win32,59.88023952,67f1a658a3c63b091b89f45d,68817205a84113384fffdfe3,68822f845e4686cb8b916271,,,,,,,,,,,,./stim/wavs/puertorican_match_declarative-broad-focus_Emilio-ama-la-marcha.wav,0,,,273.8555,276.1893,0,1,1.817,,0,74,74,65,1,66,0,puertorican,,,,,,,,,,,,,,,,,,,,,,,,,,,,,,,,,,,,,,,,,,,,,,,,,,,,,,,,
,,,,,,,,,67f1a658a3c63b091b89f45d,Spanish,13 or older,"no, only English or Spanish",yes,2025-07-24_09h06.34.305,empathy_intonation_perc_control,2024.2.4,Win32,59.88023952,67f1a658a3c63b091b89f45d,68817205a84113384fffdfe3,68822f845e4686cb8b916271,,,,,,,,,,,,./stim/wavs/castilian_match_declarative-broad-focus_Marta-abre-el-regalo.wav,0,,,276.1898,278.7696,0,1,2.0503,,0,75,75,49,1,50,0,castilian,,,,,,,,,,,,,,,,,,,,,,,,,,,,,,,,,,,,,,,,,,,,,,,,,,,,,,,,
,,,,,,,,,67f1a658a3c63b091b89f45d,Spanish,13 or older,"no, only English or Spanish",yes,2025-07-24_09h06.34.305,empathy_intonation_perc_control,2024.2.4,Win32,59.88023952,67f1a658a3c63b091b89f45d,68817205a84113384fffdfe3,68822f845e4686cb8b916271,,,,,,,,,,,,./stim/wavs/cuban_match_interrogative-total-yn_Maria-bebe-el-vino.wav,1,,,278.7705,281.1199,0,0,1.8301,,0,76,76,9,1,10,1,cuban,,,,,,,,,,,,,,,,,,,,,,,,,,,,,,,,,,,,,,,,,,,,,,,,,,,,,,,,
,,,,,,,,,67f1a658a3c63b091b89f45d,Spanish,13 or older,"no, only English or Spanish",yes,2025-07-24_09h06.34.305,empathy_intonation_perc_control,2024.2.4,Win32,59.88023952,67f1a658a3c63b091b89f45d,68817205a84113384fffdfe3,68822f845e4686cb8b916271,,,,,,,,,,,,./stim/wavs/puertorican_mismatch_interrogative-total-yn_La-nina-lava-el-plato.wav,1,,,281.1205,283.6538,1,1,2.0088,,0,77,77,42,1,43,1,puertorican,,,,,,,,,,,,,,,,,,,,,,,,,,,,,,,,,,,,,,,,,,,,,,,,,,,,,,,,
,,,,,,,,,67f1a658a3c63b091b89f45d,Spanish,13 or older,"no, only English or Spanish",yes,2025-07-24_09h06.34.305,empathy_intonation_perc_control,2024.2.4,Win32,59.88023952,67f1a658a3c63b091b89f45d,68817205a84113384fffdfe3,68822f845e4686cb8b916271,,,,,,,,,,,,./stim/wavs/cuban_mismatch_declarative-broad-focus_El-hombre-mira-la-luna.wav,0,,,283.655,286.0206,0,1,1.8354,,0,78,78,74,1,75,0,cuban,,,,,,,,,,,,,,,,,,,,,,,,,,,,,,,,,,,,,,,,,,,,,,,,,,,,,,,,
,,,,,,,,,67f1a658a3c63b091b89f45d,Spanish,13 or older,"no, only English or Spanish",yes,2025-07-24_09h06.34.305,empathy_intonation_perc_control,2024.2.4,Win32,59.88023952,67f1a658a3c63b091b89f45d,68817205a84113384fffdfe3,68822f845e4686cb8b916271,,,,,,,,,,,,./stim/wavs/cuban_match_declarative-broad-focus_Marta-abre-el-regalo.wav,0,,,286.0215,288.5208,0,1,1.9712,,0,79,79,55,1,56,0,cuban,,,,,,,,,,,,,,,,,,,,,,,,,,,,,,,,,,,,,,,,,,,,,,,,,,,,,,,,
,,,,,,,,,67f1a658a3c63b091b89f45d,Spanish,13 or older,"no, only English or Spanish",yes,2025-07-24_09h06.34.305,empathy_intonation_perc_control,2024.2.4,Win32,59.88023952,67f1a658a3c63b091b89f45d,68817205a84113384fffdfe3,68822f845e4686cb8b916271,,,,,,,,,,,,./stim/wavs/puertorican_mismatch_interrogative-total-yn_La-maestra-vive-en-Paris.wav,1,,,288.5214,291.0876,0,0,2.0449,,0,80,80,41,1,42,1,puertorican,,,,,,,,,,,,,,,,,,,,,,,,,,,,,,,,,,,,,,,,,,,,,,,,,,,,,,,,
,,,,,,,,,67f1a658a3c63b091b89f45d,Spanish,13 or older,"no, only English or Spanish",yes,2025-07-24_09h06.34.305,empathy_intonation_perc_control,2024.2.4,Win32,59.88023952,67f1a658a3c63b091b89f45d,68817205a84113384fffdfe3,68822f845e4686cb8b916271,,,,,,,,,,,,./stim/wavs/mexican_match_declarative-broad-focus_David-leia-el-libro.wav,0,,,291.0881,293.5212,0,1,1.9101,,0,81,81,58,1,59,0,mexican,,,,,,,,,,,,,,,,,,,,,,,,,,,,,,,,,,,,,,,,,,,,,,,,,,,,,,,,
,,,,,,,,,67f1a658a3c63b091b89f45d,Spanish,13 or older,"no, only English or Spanish",yes,2025-07-24_09h06.34.305,empathy_intonation_perc_control,2024.2.4,Win32,59.88023952,67f1a658a3c63b091b89f45d,68817205a84113384fffdfe3,68822f845e4686cb8b916271,,,,,,,,,,,,./stim/wavs/puertorican_mismatch_interrogative-total-yn_El-nino-oye-el-rio.wav,1,,,293.5218,296.3552,1,1,2.3014,,0,82,82,40,1,41,1,puertorican,,,,,,,,,,,,,,,,,,,,,,,,,,,,,,,,,,,,,,,,,,,,,,,,,,,,,,,,
,,,,,,,,,67f1a658a3c63b091b89f45d,Spanish,13 or older,"no, only English or Spanish",yes,2025-07-24_09h06.34.305,empathy_intonation_perc_control,2024.2.4,Win32,59.88023952,67f1a658a3c63b091b89f45d,68817205a84113384fffdfe3,68822f845e4686cb8b916271,,,,,,,,,,,,./stim/wavs/cuban_mismatch_interrogative-total-yn_Mi-tia-odia-la-lluvia.wav,1,,,296.3566,299.2583,0,0,2.3828,,0,83,83,33,1,34,1,cuban,,,,,,,,,,,,,,,,,,,,,,,,,,,,,,,,,,,,,,,,,,,,,,,,,,,,,,,,
,,,,,,,,,67f1a658a3c63b091b89f45d,Spanish,13 or older,"no, only English or Spanish",yes,2025-07-24_09h06.34.305,empathy_intonation_perc_control,2024.2.4,Win32,59.88023952,67f1a658a3c63b091b89f45d,68817205a84113384fffdfe3,68822f845e4686cb8b916271,,,,,,,,,,,,./stim/wavs/castilian_mismatch_declarative-broad-focus_La-nina-lava-el-plato.wav,0,,,299.2589,302.2556,0,1,2.4669,,0,84,84,70,1,71,0,castilian,,,,,,,,,,,,,,,,,,,,,,,,,,,,,,,,,,,,,,,,,,,,,,,,,,,,,,,,
,,,,,,,,,67f1a658a3c63b091b89f45d,Spanish,13 or older,"no, only English or Spanish",yes,2025-07-24_09h06.34.305,empathy_intonation_perc_control,2024.2.4,Win32,59.88023952,67f1a658a3c63b091b89f45d,68817205a84113384fffdfe3,68822f845e4686cb8b916271,,,,,,,,,,,,./stim/wavs/mexican_match_declarative-broad-focus_Daniel-iba-a-Bolivia.wav,0,,,302.2568,305.1563,0,1,2.3637,,0,85,85,57,1,58,0,mexican,,,,,,,,,,,,,,,,,,,,,,,,,,,,,,,,,,,,,,,,,,,,,,,,,,,,,,,,
,,,,,,,,,67f1a658a3c63b091b89f45d,Spanish,13 or older,"no, only English or Spanish",yes,2025-07-24_09h06.34.305,empathy_intonation_perc_control,2024.2.4,Win32,59.88023952,67f1a658a3c63b091b89f45d,68817205a84113384fffdfe3,68822f845e4686cb8b916271,,,,,,,,,,,,./stim/wavs/puertorican_mismatch_declarative-broad-focus_El-bebe-comia-muy-bien.wav,0,,,305.1572,309.1402,0,1,3.4592,,0,86,86,83,1,84,0,puertorican,,,,,,,,,,,,,,,,,,,,,,,,,,,,,,,,,,,,,,,,,,,,,,,,,,,,,,,,
,,,,,,,,,67f1a658a3c63b091b89f45d,Spanish,13 or older,"no, only English or Spanish",yes,2025-07-24_09h06.34.305,empathy_intonation_perc_control,2024.2.4,Win32,59.88023952,67f1a658a3c63b091b89f45d,68817205a84113384fffdfe3,68822f845e4686cb8b916271,,,,,,,,,,,,./stim/wavs/castilian_mismatch_interrogative-total-yn_Mi-madre-come-la-fruta.wav,1,,,309.1415,311.6402,1,1,1.9667,,0,87,87,26,1,27,0,castilian,,,,,,,,,,,,,,,,,,,,,,,,,,,,,,,,,,,,,,,,,,,,,,,,,,,,,,,,
,,,,,,,"Great! Now we will move on. The next task consists of about 60 trials, in each of which you will see a string of letters. 
  
  Your task is to decide whether this is a real Spanish word or not.", (press the spacebar to continue),67f1a658a3c63b091b89f45d,Spanish,13 or older,"no, only English or Spanish",yes,2025-07-24_09h06.34.305,empathy_intonation_perc_control,2024.2.4,Win32,59.88023952,67f1a658a3c63b091b89f45d,68817205a84113384fffdfe3,68822f845e4686cb8b916271,,,,,,,,,,,,,,,,,,,,,,,,,,,,,,311.6466,322.4088,0,0,0,0,1,,,,,,,,,,,,,,,,,,,,,,,,,,,,,,,,,,,,,,,,,,,,,,,,,
,,,,,,,"If you think it is an existing Spanish word, you type '1' (for 'REAL'), and if you think it is not an existing Spanish word, you type '0' (for 'FAKE').", (press the spacebar to continue),67f1a658a3c63b091b89f45d,Spanish,13 or older,"no, only English or Spanish",yes,2025-07-24_09h06.34.305,empathy_intonation_perc_control,2024.2.4,Win32,59.88023952,67f1a658a3c63b091b89f45d,68817205a84113384fffdfe3,68822f845e4686cb8b916271,,,,,,,,,,,,,,,,,,,,,,,,,,,,,,322.4116,330.9265,0,1,1,1,1,,,,,,,,,,,,,,,,,,,,,,,,,,,,,,,,,,,,,,,,,,,,,,,,,
,,,,,,,"If you are sure that the word exists, even though you don’t know its exact meaning, you may still respond '1' (REAL). 
  
  But if you are not sure if it is an existing word, you should respond '0' (FAKE).
  
  Let's do a practice round...", (press the spacebar to continue),67f1a658a3c63b091b89f45d,Spanish,13 or older,"no, only English or Spanish",yes,2025-07-24_09h06.34.305,empathy_intonation_perc_control,2024.2.4,Win32,59.88023952,67f1a658a3c63b091b89f45d,68817205a84113384fffdfe3,68822f845e4686cb8b916271,,,,,,,,,,,,,,,,,,,,,,,,,,,,,,330.9292,338.7972,0,2,2,2,1,,,,,,,,,,,,,,,,,,,,,,,,,,,,,,,,,,,,,,,,,,,,,,,,,
,,,,,,,,,67f1a658a3c63b091b89f45d,Spanish,13 or older,"no, only English or Spanish",yes,2025-07-24_09h06.34.305,empathy_intonation_perc_control,2024.2.4,Win32,59.88023952,67f1a658a3c63b091b89f45d,68817205a84113384fffdfe3,68822f845e4686cb8b916271,,,,,,,,,,,,,0,,,,,,,,,,,,,,,,,,,,,,,,338.8022,341.6442,1,0,2.3113,,341.6446,342.6444,0,0,0,0,1,0,depiste,REAL,FAKE,,,,,,,,,,,,,,,,,,,,,,,,,,,,,,,,
,,,,,,,,,67f1a658a3c63b091b89f45d,Spanish,13 or older,"no, only English or Spanish",yes,2025-07-24_09h06.34.305,empathy_intonation_perc_control,2024.2.4,Win32,59.88023952,67f1a658a3c63b091b89f45d,68817205a84113384fffdfe3,68822f845e4686cb8b916271,,,,,,,,,,,,,1,,,,,,,,,,,,,,,,,,,,,,,,342.6465,345.1946,1,1,2.0085,,345.1962,346.1949,0,1,1,1,1,0,sí,REAL,FAKE,,,,,,,,,,,,,,,,,,,,,,,,,,,,,,,,
,,,,,,,,,67f1a658a3c63b091b89f45d,Spanish,13 or older,"no, only English or Spanish",yes,2025-07-24_09h06.34.305,empathy_intonation_perc_control,2024.2.4,Win32,59.88023952,67f1a658a3c63b091b89f45d,68817205a84113384fffdfe3,68822f845e4686cb8b916271,,,,,,,,,,,,,0,,,,,,,,,,,,,,,,,,,,,,,,346.1967,349.3453,0,1,2.608,,349.3454,350.3454,0,2,2,2,1,0,coné,REAL,FAKE,,,,,,,,,,,,,,,,,,,,,,,,,,,,,,,,
,,,,,,,,,67f1a658a3c63b091b89f45d,Spanish,13 or older,"no, only English or Spanish",yes,2025-07-24_09h06.34.305,empathy_intonation_perc_control,2024.2.4,Win32,59.88023952,67f1a658a3c63b091b89f45d,68817205a84113384fffdfe3,68822f845e4686cb8b916271,,,,,,,,,,,,,0,,,,,,,,,,,,,,,,,,,,,,,,350.3468,353.329,1,0,2.4414,,353.3305,354.3293,0,3,3,3,1,0,calpar,REAL,FAKE,,,,,,,,,,,,,,,,,,,,,,,,,,,,,,,,
,,,,,,,,,67f1a658a3c63b091b89f45d,Spanish,13 or older,"no, only English or Spanish",yes,2025-07-24_09h06.34.305,empathy_intonation_perc_control,2024.2.4,Win32,59.88023952,67f1a658a3c63b091b89f45d,68817205a84113384fffdfe3,68822f845e4686cb8b916271,,,,,,,,,,,,,0,,,,,,,,,,,,,,,,,,,,,,,,354.3314,356.9794,0,1,2.1136,,356.9802,357.9798,0,4,4,4,1,0,joten,REAL,FAKE,,,,,,,,,,,,,,,,,,,,,,,,,,,,,,,,
,,,,,,,,,67f1a658a3c63b091b89f45d,Spanish,13 or older,"no, only English or Spanish",yes,2025-07-24_09h06.34.305,empathy_intonation_perc_control,2024.2.4,Win32,59.88023952,67f1a658a3c63b091b89f45d,68817205a84113384fffdfe3,68822f845e4686cb8b916271,,,,,,,,,,,,,1,,,,,,,,,,,,,,,,,,,,,,,,357.9816,361.4299,1,1,2.9116,,361.4299,362.4327,0,5,5,5,1,0,sacapuntas,REAL,FAKE,,,,,,,,,,,,,,,,,,,,,,,,,,,,,,,,
,,,,,,,,,67f1a658a3c63b091b89f45d,Spanish,13 or older,"no, only English or Spanish",yes,2025-07-24_09h06.34.305,empathy_intonation_perc_control,2024.2.4,Win32,59.88023952,67f1a658a3c63b091b89f45d,68817205a84113384fffdfe3,68822f845e4686cb8b916271,,,,,,,,,,,,,0,,,,,,,,,,,,,,,,,,,,,,,,362.4341,364.4636,1,0,1.4845,,364.4651,365.4638,0,6,6,6,1,0,priba,REAL,FAKE,,,,,,,,,,,,,,,,,,,,,,,,,,,,,,,,
,,,,,,,,,67f1a658a3c63b091b89f45d,Spanish,13 or older,"no, only English or Spanish",yes,2025-07-24_09h06.34.305,empathy_intonation_perc_control,2024.2.4,Win32,59.88023952,67f1a658a3c63b091b89f45d,68817205a84113384fffdfe3,68822f845e4686cb8b916271,,,,,,,,,,,,,0,,,,,,,,,,,,,,,,,,,,,,,,365.4654,370.9642,1,0,4.9627,,370.9644,371.9649,0,7,7,7,1,0,pelasula,REAL,FAKE,,,,,,,,,,,,,,,,,,,,,,,,,,,,,,,,
,,,,,,,,,67f1a658a3c63b091b89f45d,Spanish,13 or older,"no, only English or Spanish",yes,2025-07-24_09h06.34.305,empathy_intonation_perc_control,2024.2.4,Win32,59.88023952,67f1a658a3c63b091b89f45d,68817205a84113384fffdfe3,68822f845e4686cb8b916271,,,,,,,,,,,,,1,,,,,,,,,,,,,,,,,,,,,,,,371.9662,374.2481,1,1,1.7361,,374.2492,375.2486,0,8,8,8,1,0,bien,REAL,FAKE,,,,,,,,,,,,,,,,,,,,,,,,,,,,,,,,
,,,,,,,,,67f1a658a3c63b091b89f45d,Spanish,13 or older,"no, only English or Spanish",yes,2025-07-24_09h06.34.305,empathy_intonation_perc_control,2024.2.4,Win32,59.88023952,67f1a658a3c63b091b89f45d,68817205a84113384fffdfe3,68822f845e4686cb8b916271,,,,,,,,,,,,,1,,,,,,,,,,,,,,,,,,,,,,,,375.2498,377.2317,1,1,1.4456,,377.2317,378.2322,0,9,9,9,1,0,casa,REAL,FAKE,,,,,,,,,,,,,,,,,,,,,,,,,,,,,,,,
,,,,,,,,,67f1a658a3c63b091b89f45d,Spanish,13 or older,"no, only English or Spanish",yes,2025-07-24_09h06.34.305,empathy_intonation_perc_control,2024.2.4,Win32,59.88023952,67f1a658a3c63b091b89f45d,68817205a84113384fffdfe3,68822f845e4686cb8b916271,,,,,,,,,,,,,0,,,,,,,,,,,,,,,,,,,,,,,,378.2336,380.3323,0,1,1.5568,,380.3324,381.3324,0,10,10,10,1,0,lejo,REAL,FAKE,,,,,,,,,,,,,,,,,,,,,,,,,,,,,,,,
,,,,,,,,,67f1a658a3c63b091b89f45d,Spanish,13 or older,"no, only English or Spanish",yes,2025-07-24_09h06.34.305,empathy_intonation_perc_control,2024.2.4,Win32,59.88023952,67f1a658a3c63b091b89f45d,68817205a84113384fffdfe3,68822f845e4686cb8b916271,,,,,,,,,,,,,0,,,,,,,,,,,,,,,,,,,,,,,,381.3342,383.6495,1,0,1.7712,,383.6507,384.6495,0,11,11,11,1,0,pretantas,REAL,FAKE,,,,,,,,,,,,,,,,,,,,,,,,,,,,,,,,
,,,,,,,,,67f1a658a3c63b091b89f45d,Spanish,13 or older,"no, only English or Spanish",yes,2025-07-24_09h06.34.305,empathy_intonation_perc_control,2024.2.4,Win32,59.88023952,67f1a658a3c63b091b89f45d,68817205a84113384fffdfe3,68822f845e4686cb8b916271,,,,,,,,,,,,,,,,,,,,,,,,,,,,,,,,,,,,,,,,,,,,,,,,,,,,,,384.65,386.634,,,,,,,,,,,,,,,,,,,,,,,,,,,,,,
,,,,,,,,,67f1a658a3c63b091b89f45d,Spanish,13 or older,"no, only English or Spanish",yes,2025-07-24_09h06.34.305,empathy_intonation_perc_control,2024.2.4,Win32,59.88023952,67f1a658a3c63b091b89f45d,68817205a84113384fffdfe3,68822f845e4686cb8b916271,,,,,,,,,,,,,1,,,,,,,,,,,,,,,,,,,,,,,,,,,,,,,,,,,,,26,secuestro,,,,,386.6428,390.6676,1,1,3.4881,,0,0,0,25,1,REAL,FAKE,,,,,,,,,,,,,,,,,
,,,,,,,,,67f1a658a3c63b091b89f45d,Spanish,13 or older,"no, only English or Spanish",yes,2025-07-24_09h06.34.305,empathy_intonation_perc_control,2024.2.4,Win32,59.88023952,67f1a658a3c63b091b89f45d,68817205a84113384fffdfe3,68822f845e4686cb8b916271,,,,,,,,,,,,,1,,,,,,,,,,,,,,,,,,,,,,,,,,,,,,,,,,,,,13,helar,,,,,390.6692,392.9007,1,1,1.6848,,0,1,1,12,1,REAL,FAKE,,,,,,,,,,,,,,,,,
,,,,,,,,,67f1a658a3c63b091b89f45d,Spanish,13 or older,"no, only English or Spanish",yes,2025-07-24_09h06.34.305,empathy_intonation_perc_control,2024.2.4,Win32,59.88023952,67f1a658a3c63b091b89f45d,68817205a84113384fffdfe3,68822f845e4686cb8b916271,,,,,,,,,,,,,1,,,,,,,,,,,,,,,,,,,,,,,,,,,,,,,,,,,,,5,zapato,,,,,392.9027,395.401,1,1,1.9525,,0,2,2,4,1,REAL,FAKE,,,,,,,,,,,,,,,,,
,,,,,,,,,67f1a658a3c63b091b89f45d,Spanish,13 or older,"no, only English or Spanish",yes,2025-07-24_09h06.34.305,empathy_intonation_perc_control,2024.2.4,Win32,59.88023952,67f1a658a3c63b091b89f45d,68817205a84113384fffdfe3,68822f845e4686cb8b916271,,,,,,,,,,,,,1,,,,,,,,,,,,,,,,,,,,,,,,,,,,,,,,,,,,,25,bisagra,,,,,395.4035,396.9344,0,0,0.992,,0,3,3,24,1,REAL,FAKE,,,,,,,,,,,,,,,,,
,,,,,,,,,67f1a658a3c63b091b89f45d,Spanish,13 or older,"no, only English or Spanish",yes,2025-07-24_09h06.34.305,empathy_intonation_perc_control,2024.2.4,Win32,59.88023952,67f1a658a3c63b091b89f45d,68817205a84113384fffdfe3,68822f845e4686cb8b916271,,,,,,,,,,,,,1,,,,,,,,,,,,,,,,,,,,,,,,,,,,,,,,,,,,,90,clavel,,,,,396.9361,399.335,0,0,1.8538,,0,4,4,89,1,REAL,FAKE,,,,,,,,,,,,,,,,,
,,,,,,,,,67f1a658a3c63b091b89f45d,Spanish,13 or older,"no, only English or Spanish",yes,2025-07-24_09h06.34.305,empathy_intonation_perc_control,2024.2.4,Win32,59.88023952,67f1a658a3c63b091b89f45d,68817205a84113384fffdfe3,68822f845e4686cb8b916271,,,,,,,,,,,,,1,,,,,,,,,,,,,,,,,,,,,,,,,,,,,,,,,,,,,49,ganar,,,,,399.3363,401.1683,0,0,1.2929,,0,5,5,48,1,REAL,FAKE,,,,,,,,,,,,,,,,,
,,,,,,,,,67f1a658a3c63b091b89f45d,Spanish,13 or older,"no, only English or Spanish",yes,2025-07-24_09h06.34.305,empathy_intonation_perc_control,2024.2.4,Win32,59.88023952,67f1a658a3c63b091b89f45d,68817205a84113384fffdfe3,68822f845e4686cb8b916271,,,,,,,,,,,,,1,,,,,,,,,,,,,,,,,,,,,,,,,,,,,,,,,,,,,64,orgulloso,,,,,401.1695,403.6687,1,1,1.9527,,0,6,6,63,1,REAL,FAKE,,,,,,,,,,,,,,,,,
,,,,,,,,,67f1a658a3c63b091b89f45d,Spanish,13 or older,"no, only English or Spanish",yes,2025-07-24_09h06.34.305,empathy_intonation_perc_control,2024.2.4,Win32,59.88023952,67f1a658a3c63b091b89f45d,68817205a84113384fffdfe3,68822f845e4686cb8b916271,,,,,,,,,,,,,0,,,,,,,,,,,,,,,,,,,,,,,,,,,,,,,,,,,,,16,abracer,,,,,403.6705,406.6689,0,1,2.4512,,0,7,7,15,1,REAL,FAKE,,,,,,,,,,,,,,,,,
,,,,,,,,,67f1a658a3c63b091b89f45d,Spanish,13 or older,"no, only English or Spanish",yes,2025-07-24_09h06.34.305,empathy_intonation_perc_control,2024.2.4,Win32,59.88023952,67f1a658a3c63b091b89f45d,68817205a84113384fffdfe3,68822f845e4686cb8b916271,,,,,,,,,,,,,1,,,,,,,,,,,,,,,,,,,,,,,,,,,,,,,,,,,,,11,cenefa,,,,,406.6703,409.0857,1,1,1.8774,,0,8,8,10,1,REAL,FAKE,,,,,,,,,,,,,,,,,
,,,,,,,,,67f1a658a3c63b091b89f45d,Spanish,13 or older,"no, only English or Spanish",yes,2025-07-24_09h06.34.305,empathy_intonation_perc_control,2024.2.4,Win32,59.88023952,67f1a658a3c63b091b89f45d,68817205a84113384fffdfe3,68822f845e4686cb8b916271,,,,,,,,,,,,,1,,,,,,,,,,,,,,,,,,,,,,,,,,,,,,,,,,,,,65,bizcocho,,,,,409.0869,411.3363,0,0,1.7138,,0,9,9,64,1,REAL,FAKE,,,,,,,,,,,,,,,,,
,,,,,,,,,67f1a658a3c63b091b89f45d,Spanish,13 or older,"no, only English or Spanish",yes,2025-07-24_09h06.34.305,empathy_intonation_perc_control,2024.2.4,Win32,59.88023952,67f1a658a3c63b091b89f45d,68817205a84113384fffdfe3,68822f845e4686cb8b916271,,,,,,,,,,,,,0,,,,,,,,,,,,,,,,,,,,,,,,,,,,,,,,,,,,,72,pemición,,,,,411.338,413.42,1,0,1.5352,,0,10,10,71,1,REAL,FAKE,,,,,,,,,,,,,,,,,
,,,,,,,,,67f1a658a3c63b091b89f45d,Spanish,13 or older,"no, only English or Spanish",yes,2025-07-24_09h06.34.305,empathy_intonation_perc_control,2024.2.4,Win32,59.88023952,67f1a658a3c63b091b89f45d,68817205a84113384fffdfe3,68822f845e4686cb8b916271,,,,,,,,,,,,,0,,,,,,,,,,,,,,,,,,,,,,,,,,,,,,,,,,,,,82,empirador,,,,,413.4217,414.9868,1,0,1.0252,,0,11,11,81,1,REAL,FAKE,,,,,,,,,,,,,,,,,
,,,,,,,,,67f1a658a3c63b091b89f45d,Spanish,13 or older,"no, only English or Spanish",yes,2025-07-24_09h06.34.305,empathy_intonation_perc_control,2024.2.4,Win32,59.88023952,67f1a658a3c63b091b89f45d,68817205a84113384fffdfe3,68822f845e4686cb8b916271,,,,,,,,,,,,,1,,,,,,,,,,,,,,,,,,,,,,,,,,,,,,,,,,,,,14,yunque,,,,,414.9887,416.7037,0,0,1.1711,,0,12,12,13,1,REAL,FAKE,,,,,,,,,,,,,,,,,
,,,,,,,,,67f1a658a3c63b091b89f45d,Spanish,13 or older,"no, only English or Spanish",yes,2025-07-24_09h06.34.305,empathy_intonation_perc_control,2024.2.4,Win32,59.88023952,67f1a658a3c63b091b89f45d,68817205a84113384fffdfe3,68822f845e4686cb8b916271,,,,,,,,,,,,,1,,,,,,,,,,,,,,,,,,,,,,,,,,,,,,,,,,,,,59,besar,,,,,416.7052,418.3205,1,1,1.0684,,0,13,13,58,1,REAL,FAKE,,,,,,,,,,,,,,,,,
,,,,,,,,,67f1a658a3c63b091b89f45d,Spanish,13 or older,"no, only English or Spanish",yes,2025-07-24_09h06.34.305,empathy_intonation_perc_control,2024.2.4,Win32,59.88023952,67f1a658a3c63b091b89f45d,68817205a84113384fffdfe3,68822f845e4686cb8b916271,,,,,,,,,,,,,0,,,,,,,,,,,,,,,,,,,,,,,,,,,,,,,,,,,,,66,hacido,,,,,418.322,421.0544,1,0,2.1976,,0,14,14,65,1,REAL,FAKE,,,,,,,,,,,,,,,,,
,,,,,,,,,67f1a658a3c63b091b89f45d,Spanish,13 or older,"no, only English or Spanish",yes,2025-07-24_09h06.34.305,empathy_intonation_perc_control,2024.2.4,Win32,59.88023952,67f1a658a3c63b091b89f45d,68817205a84113384fffdfe3,68822f845e4686cb8b916271,,,,,,,,,,,,,0,,,,,,,,,,,,,,,,,,,,,,,,,,,,,,,,,,,,,92,click the 0 key.,,,,,421.0562,425.0379,0,1,3.4386,,0,15,15,91,1,REAL,FAKE,,,,,,,,,,,,,,,,,
,,,,,,,,,67f1a658a3c63b091b89f45d,Spanish,13 or older,"no, only English or Spanish",yes,2025-07-24_09h06.34.305,empathy_intonation_perc_control,2024.2.4,Win32,59.88023952,67f1a658a3c63b091b89f45d,68817205a84113384fffdfe3,68822f845e4686cb8b916271,,,,,,,,,,,,,0,,,,,,,,,,,,,,,,,,,,,,,,,,,,,,,,,,,,,42,cadallo,,,,,425.0394,427.5414,1,0,1.9672,,0,16,16,41,1,REAL,FAKE,,,,,,,,,,,,,,,,,
,,,,,,,,,67f1a658a3c63b091b89f45d,Spanish,13 or older,"no, only English or Spanish",yes,2025-07-24_09h06.34.305,empathy_intonation_perc_control,2024.2.4,Win32,59.88023952,67f1a658a3c63b091b89f45d,68817205a84113384fffdfe3,68822f845e4686cb8b916271,,,,,,,,,,,,,1,,,,,,,,,,,,,,,,,,,,,,,,,,,,,,,,,,,,,68,alegre,,,,,427.5424,430.0387,1,1,1.9516,,0,17,17,67,1,REAL,FAKE,,,,,,,,,,,,,,,,,
,,,,,,,,,67f1a658a3c63b091b89f45d,Spanish,13 or older,"no, only English or Spanish",yes,2025-07-24_09h06.34.305,empathy_intonation_perc_control,2024.2.4,Win32,59.88023952,67f1a658a3c63b091b89f45d,68817205a84113384fffdfe3,68822f845e4686cb8b916271,,,,,,,,,,,,,0,,,,,,,,,,,,,,,,,,,,,,,,,,,,,,,,,,,,,32,fatacidad,,,,,430.0403,434.1226,1,0,3.5599,,0,18,18,31,1,REAL,FAKE,,,,,,,,,,,,,,,,,
,,,,,,,,,67f1a658a3c63b091b89f45d,Spanish,13 or older,"no, only English or Spanish",yes,2025-07-24_09h06.34.305,empathy_intonation_perc_control,2024.2.4,Win32,59.88023952,67f1a658a3c63b091b89f45d,68817205a84113384fffdfe3,68822f845e4686cb8b916271,,,,,,,,,,,,,1,,,,,,,,,,,,,,,,,,,,,,,,,,,,,,,,,,,,,41,rebuscar,,,,,434.1238,436.2897,1,1,1.6476,,0,19,19,40,1,REAL,FAKE,,,,,,,,,,,,,,,,,
,,,,,,,,,67f1a658a3c63b091b89f45d,Spanish,13 or older,"no, only English or Spanish",yes,2025-07-24_09h06.34.305,empathy_intonation_perc_control,2024.2.4,Win32,59.88023952,67f1a658a3c63b091b89f45d,68817205a84113384fffdfe3,68822f845e4686cb8b916271,,,,,,,,,,,,,0,,,,,,,,,,,,,,,,,,,,,,,,,,,,,,,,,,,,,4,batillón,,,,,436.2907,437.7095,1,0,0.8839,,0,20,20,3,1,REAL,FAKE,,,,,,,,,,,,,,,,,
,,,,,,,,,67f1a658a3c63b091b89f45d,Spanish,13 or older,"no, only English or Spanish",yes,2025-07-24_09h06.34.305,empathy_intonation_perc_control,2024.2.4,Win32,59.88023952,67f1a658a3c63b091b89f45d,68817205a84113384fffdfe3,68822f845e4686cb8b916271,,,,,,,,,,,,,0,,,,,,,,,,,,,,,,,,,,,,,,,,,,,,,,,,,,,53,vegada,,,,,437.7105,440.0232,1,0,1.7749,,0,21,21,52,1,REAL,FAKE,,,,,,,,,,,,,,,,,
,,,,,,,,,67f1a658a3c63b091b89f45d,Spanish,13 or older,"no, only English or Spanish",yes,2025-07-24_09h06.34.305,empathy_intonation_perc_control,2024.2.4,Win32,59.88023952,67f1a658a3c63b091b89f45d,68817205a84113384fffdfe3,68822f845e4686cb8b916271,,,,,,,,,,,,,1,,,,,,,,,,,,,,,,,,,,,,,,,,,,,,,,,,,,,36,loro,,,,,440.0247,441.8568,0,0,1.2955,,0,22,22,35,1,REAL,FAKE,,,,,,,,,,,,,,,,,
,,,,,,,,,67f1a658a3c63b091b89f45d,Spanish,13 or older,"no, only English or Spanish",yes,2025-07-24_09h06.34.305,empathy_intonation_perc_control,2024.2.4,Win32,59.88023952,67f1a658a3c63b091b89f45d,68817205a84113384fffdfe3,68822f845e4686cb8b916271,,,,,,,,,,,,,0,,,,,,,,,,,,,,,,,,,,,,,,,,,,,,,,,,,,,19,brecedad,,,,,441.8579,443.8401,0,1,1.4446,,0,23,23,18,1,REAL,FAKE,,,,,,,,,,,,,,,,,
,,,,,,,,,67f1a658a3c63b091b89f45d,Spanish,13 or older,"no, only English or Spanish",yes,2025-07-24_09h06.34.305,empathy_intonation_perc_control,2024.2.4,Win32,59.88023952,67f1a658a3c63b091b89f45d,68817205a84113384fffdfe3,68822f845e4686cb8b916271,,,,,,,,,,,,,1,,,,,,,,,,,,,,,,,,,,,,,,,,,,,,,,,,,,,61,seda,,,,,443.8413,445.8072,0,0,1.4186,,0,24,24,60,1,REAL,FAKE,,,,,,,,,,,,,,,,,
,,,,,,,,,67f1a658a3c63b091b89f45d,Spanish,13 or older,"no, only English or Spanish",yes,2025-07-24_09h06.34.305,empathy_intonation_perc_control,2024.2.4,Win32,59.88023952,67f1a658a3c63b091b89f45d,68817205a84113384fffdfe3,68822f845e4686cb8b916271,,,,,,,,,,,,,1,,,,,,,,,,,,,,,,,,,,,,,,,,,,,,,,,,,,,83,guante,,,,,445.8085,448.5076,0,0,2.1547,,0,25,25,82,1,REAL,FAKE,,,,,,,,,,,,,,,,,
,,,,,,,,,67f1a658a3c63b091b89f45d,Spanish,13 or older,"no, only English or Spanish",yes,2025-07-24_09h06.34.305,empathy_intonation_perc_control,2024.2.4,Win32,59.88023952,67f1a658a3c63b091b89f45d,68817205a84113384fffdfe3,68822f845e4686cb8b916271,,,,,,,,,,,,,0,,,,,,,,,,,,,,,,,,,,,,,,,,,,,,,,,,,,,23,lampera,,,,,448.5087,449.6411,1,0,0.5921,,0,26,26,22,1,REAL,FAKE,,,,,,,,,,,,,,,,,
,,,,,,,,,67f1a658a3c63b091b89f45d,Spanish,13 or older,"no, only English or Spanish",yes,2025-07-24_09h06.34.305,empathy_intonation_perc_control,2024.2.4,Win32,59.88023952,67f1a658a3c63b091b89f45d,68817205a84113384fffdfe3,68822f845e4686cb8b916271,,,,,,,,,,,,,1,,,,,,,,,,,,,,,,,,,,,,,,,,,,,,,,,,,,,89,prisa,,,,,449.6424,452.025,1,1,1.8454,,0,27,27,88,1,REAL,FAKE,,,,,,,,,,,,,,,,,
,,,,,,,,,67f1a658a3c63b091b89f45d,Spanish,13 or older,"no, only English or Spanish",yes,2025-07-24_09h06.34.305,empathy_intonation_perc_control,2024.2.4,Win32,59.88023952,67f1a658a3c63b091b89f45d,68817205a84113384fffdfe3,68822f845e4686cb8b916271,,,,,,,,,,,,,1,,,,,,,,,,,,,,,,,,,,,,,,,,,,,,,,,,,,,37,granuja,,,,,452.0262,454.1084,1,1,1.5436,,0,28,28,36,1,REAL,FAKE,,,,,,,,,,,,,,,,,
,,,,,,,,,67f1a658a3c63b091b89f45d,Spanish,13 or older,"no, only English or Spanish",yes,2025-07-24_09h06.34.305,empathy_intonation_perc_control,2024.2.4,Win32,59.88023952,67f1a658a3c63b091b89f45d,68817205a84113384fffdfe3,68822f845e4686cb8b916271,,,,,,,,,,,,,1,,,,,,,,,,,,,,,,,,,,,,,,,,,,,,,,,,,,,2,pellizcar,,,,,454.11,455.8278,1,1,1.1834,,0,29,29,1,1,REAL,FAKE,,,,,,,,,,,,,,,,,
,,,,,,,,,67f1a658a3c63b091b89f45d,Spanish,13 or older,"no, only English or Spanish",yes,2025-07-24_09h06.34.305,empathy_intonation_perc_control,2024.2.4,Win32,59.88023952,67f1a658a3c63b091b89f45d,68817205a84113384fffdfe3,68822f845e4686cb8b916271,,,,,,,,,,,,,1,,,,,,,,,,,,,,,,,,,,,,,,,,,,,,,,,,,,,20,ávido,,,,,455.8292,457.1423,1,1,0.7764,,0,30,30,19,1,REAL,FAKE,,,,,,,,,,,,,,,,,
,,,,,,,,,67f1a658a3c63b091b89f45d,Spanish,13 or older,"no, only English or Spanish",yes,2025-07-24_09h06.34.305,empathy_intonation_perc_control,2024.2.4,Win32,59.88023952,67f1a658a3c63b091b89f45d,68817205a84113384fffdfe3,68822f845e4686cb8b916271,,,,,,,,,,,,,0,,,,,,,,,,,,,,,,,,,,,,,,,,,,,,,,,,,,,87,grodo,,,,,457.1434,458.4757,0,1,0.7847,,0,31,31,86,1,REAL,FAKE,,,,,,,,,,,,,,,,,
,,,,,,,,,67f1a658a3c63b091b89f45d,Spanish,13 or older,"no, only English or Spanish",yes,2025-07-24_09h06.34.305,empathy_intonation_perc_control,2024.2.4,Win32,59.88023952,67f1a658a3c63b091b89f45d,68817205a84113384fffdfe3,68822f845e4686cb8b916271,,,,,,,,,,,,,1,,,,,,,,,,,,,,,,,,,,,,,,,,,,,,,,,,,,,3,pulmones,,,,,458.4773,460.1256,1,1,1.1107,,0,32,32,2,1,REAL,FAKE,,,,,,,,,,,,,,,,,
,,,,,,,,,67f1a658a3c63b091b89f45d,Spanish,13 or older,"no, only English or Spanish",yes,2025-07-24_09h06.34.305,empathy_intonation_perc_control,2024.2.4,Win32,59.88023952,67f1a658a3c63b091b89f45d,68817205a84113384fffdfe3,68822f845e4686cb8b916271,,,,,,,,,,,,,1,,,,,,,,,,,,,,,,,,,,,,,,,,,,,,,,,,,,,48,ladrón,,,,,460.1268,461.7429,1,1,1.0741,,0,33,33,47,1,REAL,FAKE,,,,,,,,,,,,,,,,,
,,,,,,,,,67f1a658a3c63b091b89f45d,Spanish,13 or older,"no, only English or Spanish",yes,2025-07-24_09h06.34.305,empathy_intonation_perc_control,2024.2.4,Win32,59.88023952,67f1a658a3c63b091b89f45d,68817205a84113384fffdfe3,68822f845e4686cb8b916271,,,,,,,,,,,,,0,,,,,,,,,,,,,,,,,,,,,,,,,,,,,,,,,,,,,47,cartinar,,,,,461.7442,463.8957,0,1,1.6167,,0,34,34,46,1,REAL,FAKE,,,,,,,,,,,,,,,,,
,,,,,,,,,67f1a658a3c63b091b89f45d,Spanish,13 or older,"no, only English or Spanish",yes,2025-07-24_09h06.34.305,empathy_intonation_perc_control,2024.2.4,Win32,59.88023952,67f1a658a3c63b091b89f45d,68817205a84113384fffdfe3,68822f845e4686cb8b916271,,,,,,,,,,,,,1,,,,,,,,,,,,,,,,,,,,,,,,,,,,,,,,,,,,,55,nevar,,,,,463.8967,465.7264,0,0,1.2875,,0,35,35,54,1,REAL,FAKE,,,,,,,,,,,,,,,,,
,,,,,,,,,67f1a658a3c63b091b89f45d,Spanish,13 or older,"no, only English or Spanish",yes,2025-07-24_09h06.34.305,empathy_intonation_perc_control,2024.2.4,Win32,59.88023952,67f1a658a3c63b091b89f45d,68817205a84113384fffdfe3,68822f845e4686cb8b916271,,,,,,,,,,,,,1,,,,,,,,,,,,,,,,,,,,,,,,,,,,,,,,,,,,,43,canela,,,,,465.7284,467.143,1,1,0.8699,,0,36,36,42,1,REAL,FAKE,,,,,,,,,,,,,,,,,
,,,,,,,,,67f1a658a3c63b091b89f45d,Spanish,13 or older,"no, only English or Spanish",yes,2025-07-24_09h06.34.305,empathy_intonation_perc_control,2024.2.4,Win32,59.88023952,67f1a658a3c63b091b89f45d,68817205a84113384fffdfe3,68822f845e4686cb8b916271,,,,,,,,,,,,,0,,,,,,,,,,,,,,,,,,,,,,,,,,,,,,,,,,,,,17,floroso,,,,,467.1443,468.7933,1,0,1.1299,,0,37,37,16,1,REAL,FAKE,,,,,,,,,,,,,,,,,
,,,,,,,,,67f1a658a3c63b091b89f45d,Spanish,13 or older,"no, only English or Spanish",yes,2025-07-24_09h06.34.305,empathy_intonation_perc_control,2024.2.4,Win32,59.88023952,67f1a658a3c63b091b89f45d,68817205a84113384fffdfe3,68822f845e4686cb8b916271,,,,,,,,,,,,,1,,,,,,,,,,,,,,,,,,,,,,,,,,,,,,,,,,,,,6,tergiversar,,,,,468.7944,471.6267,0,0,2.2956,,0,38,38,5,1,REAL,FAKE,,,,,,,,,,,,,,,,,
,,,,,,,,,67f1a658a3c63b091b89f45d,Spanish,13 or older,"no, only English or Spanish",yes,2025-07-24_09h06.34.305,empathy_intonation_perc_control,2024.2.4,Win32,59.88023952,67f1a658a3c63b091b89f45d,68817205a84113384fffdfe3,68822f845e4686cb8b916271,,,,,,,,,,,,,1,,,,,,,,,,,,,,,,,,,,,,,,,,,,,,,,,,,,,24,látigo,,,,,471.628,472.9273,1,1,0.7642,,0,39,39,23,1,REAL,FAKE,,,,,,,,,,,,,,,,,
,,,,,,,,,67f1a658a3c63b091b89f45d,Spanish,13 or older,"no, only English or Spanish",yes,2025-07-24_09h06.34.305,empathy_intonation_perc_control,2024.2.4,Win32,59.88023952,67f1a658a3c63b091b89f45d,68817205a84113384fffdfe3,68822f845e4686cb8b916271,,,,,,,,,,,,,1,,,,,,,,,,,,,,,,,,,,,,,,,,,,,,,,,,,,,71,polvoriento,,,,,472.9284,476.1444,0,0,2.6681,,0,40,40,70,1,REAL,FAKE,,,,,,,,,,,,,,,,,
,,,,,,,,,67f1a658a3c63b091b89f45d,Spanish,13 or older,"no, only English or Spanish",yes,2025-07-24_09h06.34.305,empathy_intonation_perc_control,2024.2.4,Win32,59.88023952,67f1a658a3c63b091b89f45d,68817205a84113384fffdfe3,68822f845e4686cb8b916271,,,,,,,,,,,,,1,,,,,,,,,,,,,,,,,,,,,,,,,,,,,,,,,,,,,67,cabello,,,,,476.146,477.4449,1,1,0.7639,,0,41,41,66,1,REAL,FAKE,,,,,,,,,,,,,,,,,
,,,,,,,,,67f1a658a3c63b091b89f45d,Spanish,13 or older,"no, only English or Spanish",yes,2025-07-24_09h06.34.305,empathy_intonation_perc_control,2024.2.4,Win32,59.88023952,67f1a658a3c63b091b89f45d,68817205a84113384fffdfe3,68822f845e4686cb8b916271,,,,,,,,,,,,,1,,,,,,,,,,,,,,,,,,,,,,,,,,,,,,,,,,,,,28,merodear,,,,,477.4469,480.8808,0,0,2.9002,,0,42,42,27,1,REAL,FAKE,,,,,,,,,,,,,,,,,
,,,,,,,,,67f1a658a3c63b091b89f45d,Spanish,13 or older,"no, only English or Spanish",yes,2025-07-24_09h06.34.305,empathy_intonation_perc_control,2024.2.4,Win32,59.88023952,67f1a658a3c63b091b89f45d,68817205a84113384fffdfe3,68822f845e4686cb8b916271,,,,,,,,,,,,,1,,,,,,,,,,,,,,,,,,,,,,,,,,,,,,,,,,,,,52,camisa,,,,,480.8817,482.5457,1,1,1.1249,,0,43,43,51,1,REAL,FAKE,,,,,,,,,,,,,,,,,
,,,,,,,,,67f1a658a3c63b091b89f45d,Spanish,13 or older,"no, only English or Spanish",yes,2025-07-24_09h06.34.305,empathy_intonation_perc_control,2024.2.4,Win32,59.88023952,67f1a658a3c63b091b89f45d,68817205a84113384fffdfe3,68822f845e4686cb8b916271,,,,,,,,,,,,,0,,,,,,,,,,,,,,,,,,,,,,,,,,,,,,,,,,,,,50,flamida,,,,,482.5471,485.4955,1,0,2.4017,,0,44,44,49,1,REAL,FAKE,,,,,,,,,,,,,,,,,
,,,,,,,,,67f1a658a3c63b091b89f45d,Spanish,13 or older,"no, only English or Spanish",yes,2025-07-24_09h06.34.305,empathy_intonation_perc_control,2024.2.4,Win32,59.88023952,67f1a658a3c63b091b89f45d,68817205a84113384fffdfe3,68822f845e4686cb8b916271,,,,,,,,,,,,,1,,,,,,,,,,,,,,,,,,,,,,,,,,,,,,,,,,,,,31,pandilla,,,,,485.4971,487.2458,0,0,1.2013,,0,45,45,30,1,REAL,FAKE,,,,,,,,,,,,,,,,,
,,,,,,,,,67f1a658a3c63b091b89f45d,Spanish,13 or older,"no, only English or Spanish",yes,2025-07-24_09h06.34.305,empathy_intonation_perc_control,2024.2.4,Win32,59.88023952,67f1a658a3c63b091b89f45d,68817205a84113384fffdfe3,68822f845e4686cb8b916271,,,,,,,,,,,,,1,,,,,,,,,,,,,,,,,,,,,,,,,,,,,,,,,,,,,69,engatusar,,,,,487.2472,488.6958,1,1,0.9089,,0,46,46,68,1,REAL,FAKE,,,,,,,,,,,,,,,,,
,,,,,,,,,67f1a658a3c63b091b89f45d,Spanish,13 or older,"no, only English or Spanish",yes,2025-07-24_09h06.34.305,empathy_intonation_perc_control,2024.2.4,Win32,59.88023952,67f1a658a3c63b091b89f45d,68817205a84113384fffdfe3,68822f845e4686cb8b916271,,,,,,,,,,,,,0,,,,,,,,,,,,,,,,,,,,,,,,,,,,,,,,,,,,,18,arsa,,,,,488.6968,490.4795,0,1,1.2471,,0,47,47,17,1,REAL,FAKE,,,,,,,,,,,,,,,,,
,,,,,,,,,67f1a658a3c63b091b89f45d,Spanish,13 or older,"no, only English or Spanish",yes,2025-07-24_09h06.34.305,empathy_intonation_perc_control,2024.2.4,Win32,59.88023952,67f1a658a3c63b091b89f45d,68817205a84113384fffdfe3,68822f845e4686cb8b916271,,,,,,,,,,,,,1,,,,,,,,,,,,,,,,,,,,,,,,,,,,,,,,,,,,,22,lacayo,,,,,490.4806,491.9298,0,0,0.9245,,0,48,48,21,1,REAL,FAKE,,,,,,,,,,,,,,,,,
,,,,,,,,,67f1a658a3c63b091b89f45d,Spanish,13 or older,"no, only English or Spanish",yes,2025-07-24_09h06.34.305,empathy_intonation_perc_control,2024.2.4,Win32,59.88023952,67f1a658a3c63b091b89f45d,68817205a84113384fffdfe3,68822f845e4686cb8b916271,,,,,,,,,,,,,0,,,,,,,,,,,,,,,,,,,,,,,,,,,,,,,,,,,,,10,antar,,,,,491.9311,493.4669,0,1,1.0012,,0,49,49,9,1,REAL,FAKE,,,,,,,,,,,,,,,,,
,,,,,,,,,67f1a658a3c63b091b89f45d,Spanish,13 or older,"no, only English or Spanish",yes,2025-07-24_09h06.34.305,empathy_intonation_perc_control,2024.2.4,Win32,59.88023952,67f1a658a3c63b091b89f45d,68817205a84113384fffdfe3,68822f845e4686cb8b916271,,,,,,,,,,,,,0,,,,,,,,,,,,,,,,,,,,,,,,,,,,,,,,,,,,,58,plaudir,,,,,493.468,495.1167,1,0,1.1171,,0,50,50,57,1,REAL,FAKE,,,,,,,,,,,,,,,,,
,,,,,,,,,67f1a658a3c63b091b89f45d,Spanish,13 or older,"no, only English or Spanish",yes,2025-07-24_09h06.34.305,empathy_intonation_perc_control,2024.2.4,Win32,59.88023952,67f1a658a3c63b091b89f45d,68817205a84113384fffdfe3,68822f845e4686cb8b916271,,,,,,,,,,,,,0,,,,,,,,,,,,,,,,,,,,,,,,,,,,,,,,,,,,,8,cadeña,,,,,495.1183,496.6136,1,0,0.954,,0,51,51,7,1,REAL,FAKE,,,,,,,,,,,,,,,,,
,,,,,,,,,67f1a658a3c63b091b89f45d,Spanish,13 or older,"no, only English or Spanish",yes,2025-07-24_09h06.34.305,empathy_intonation_perc_control,2024.2.4,Win32,59.88023952,67f1a658a3c63b091b89f45d,68817205a84113384fffdfe3,68822f845e4686cb8b916271,,,,,,,,,,,,,1,,,,,,,,,,,,,,,,,,,,,,,,,,,,,,,,,,,,,51,candado,,,,,496.6149,498.2637,1,1,1.1069,,0,52,52,50,1,REAL,FAKE,,,,,,,,,,,,,,,,,
,,,,,,,,,67f1a658a3c63b091b89f45d,Spanish,13 or older,"no, only English or Spanish",yes,2025-07-24_09h06.34.305,empathy_intonation_perc_control,2024.2.4,Win32,59.88023952,67f1a658a3c63b091b89f45d,68817205a84113384fffdfe3,68822f845e4686cb8b916271,,,,,,,,,,,,,1,,,,,,,,,,,,,,,,,,,,,,,,,,,,,,,,,,,,,86,barato,,,,,498.265,499.5139,1,1,0.7056,,0,53,53,85,1,REAL,FAKE,,,,,,,,,,,,,,,,,
,,,,,,,,,67f1a658a3c63b091b89f45d,Spanish,13 or older,"no, only English or Spanish",yes,2025-07-24_09h06.34.305,empathy_intonation_perc_control,2024.2.4,Win32,59.88023952,67f1a658a3c63b091b89f45d,68817205a84113384fffdfe3,68822f845e4686cb8b916271,,,,,,,,,,,,,1,,,,,,,,,,,,,,,,,,,,,,,,,,,,,,,,,,,,,15,regar,,,,,499.5153,501.4474,1,1,1.3857,,0,54,54,14,1,REAL,FAKE,,,,,,,,,,,,,,,,,
,,,,,,,,,67f1a658a3c63b091b89f45d,Spanish,13 or older,"no, only English or Spanish",yes,2025-07-24_09h06.34.305,empathy_intonation_perc_control,2024.2.4,Win32,59.88023952,67f1a658a3c63b091b89f45d,68817205a84113384fffdfe3,68822f845e4686cb8b916271,,,,,,,,,,,,,1,,,,,,,,,,,,,,,,,,,,,,,,,,,,,,,,,,,,,40,alfombra,,,,,501.4488,503.2308,0,0,1.2459,,0,55,55,39,1,REAL,FAKE,,,,,,,,,,,,,,,,,
,,,,,,,,,67f1a658a3c63b091b89f45d,Spanish,13 or older,"no, only English or Spanish",yes,2025-07-24_09h06.34.305,empathy_intonation_perc_control,2024.2.4,Win32,59.88023952,67f1a658a3c63b091b89f45d,68817205a84113384fffdfe3,68822f845e4686cb8b916271,,,,,,,,,,,,,1,,,,,,,,,,,,,,,,,,,,,,,,,,,,,,,,,,,,,54,fomentar,,,,,503.232,505.048,1,1,1.2744,,0,56,56,53,1,REAL,FAKE,,,,,,,,,,,,,,,,,
,,,,,,,,,67f1a658a3c63b091b89f45d,Spanish,13 or older,"no, only English or Spanish",yes,2025-07-24_09h06.34.305,empathy_intonation_perc_control,2024.2.4,Win32,59.88023952,67f1a658a3c63b091b89f45d,68817205a84113384fffdfe3,68822f845e4686cb8b916271,,,,,,,,,,,,,0,,,,,,,,,,,,,,,,,,,,,,,,,,,,,,,,,,,,,21,capillo,,,,,505.0494,506.6984,1,0,1.1019,,0,57,57,20,1,REAL,FAKE,,,,,,,,,,,,,,,,,
,,,,,,,,,67f1a658a3c63b091b89f45d,Spanish,13 or older,"no, only English or Spanish",yes,2025-07-24_09h06.34.305,empathy_intonation_perc_control,2024.2.4,Win32,59.88023952,67f1a658a3c63b091b89f45d,68817205a84113384fffdfe3,68822f845e4686cb8b916271,,,,,,,,,,,,,1,,,,,,,,,,,,,,,,,,,,,,,,,,,,,,,,,,,,,44,cuchara,,,,,506.6999,509.2651,1,1,2.0223,,0,58,58,43,1,REAL,FAKE,,,,,,,,,,,,,,,,,
,,,,,,,,,67f1a658a3c63b091b89f45d,Spanish,13 or older,"no, only English or Spanish",yes,2025-07-24_09h06.34.305,empathy_intonation_perc_control,2024.2.4,Win32,59.88023952,67f1a658a3c63b091b89f45d,68817205a84113384fffdfe3,68822f845e4686cb8b916271,,,,,,,,,,,,,1,,,,,,,,,,,,,,,,,,,,,,,,,,,,,,,,,,,,,85,laúd,,,,,509.2675,510.4988,1,1,0.6904,,0,59,59,84,1,REAL,FAKE,,,,,,,,,,,,,,,,,
,,,,,,,,,67f1a658a3c63b091b89f45d,Spanish,13 or older,"no, only English or Spanish",yes,2025-07-24_09h06.34.305,empathy_intonation_perc_control,2024.2.4,Win32,59.88023952,67f1a658a3c63b091b89f45d,68817205a84113384fffdfe3,68822f845e4686cb8b916271,,,,,,,,,,,,,0,,,,,,,,,,,,,,,,,,,,,,,,,,,,,,,,,,,,,35,rompido,,,,,510.5001,513.2993,0,1,2.252,,0,60,60,34,1,REAL,FAKE,,,,,,,,,,,,,,,,,
,,,,,,,,,67f1a658a3c63b091b89f45d,Spanish,13 or older,"no, only English or Spanish",yes,2025-07-24_09h06.34.305,empathy_intonation_perc_control,2024.2.4,Win32,59.88023952,67f1a658a3c63b091b89f45d,68817205a84113384fffdfe3,68822f845e4686cb8b916271,,,,,,,,,,,,,1,,,,,,,,,,,,,,,,,,,,,,,,,,,,,,,,,,,,,46,martillo,,,,,513.3006,516.0991,0,0,2.2616,,0,61,61,45,1,REAL,FAKE,,,,,,,,,,,,,,,,,
,,,,,,,,,67f1a658a3c63b091b89f45d,Spanish,13 or older,"no, only English or Spanish",yes,2025-07-24_09h06.34.305,empathy_intonation_perc_control,2024.2.4,Win32,59.88023952,67f1a658a3c63b091b89f45d,68817205a84113384fffdfe3,68822f845e4686cb8b916271,,,,,,,,,,,,,1,,,,,,,,,,,,,,,,,,,,,,,,,,,,,,,,,,,,,45,jilguero,,,,,516.1004,518.5663,0,0,1.9185,,0,62,62,44,1,REAL,FAKE,,,,,,,,,,,,,,,,,
,,,,,,,,,67f1a658a3c63b091b89f45d,Spanish,13 or older,"no, only English or Spanish",yes,2025-07-24_09h06.34.305,empathy_intonation_perc_control,2024.2.4,Win32,59.88023952,67f1a658a3c63b091b89f45d,68817205a84113384fffdfe3,68822f845e4686cb8b916271,,,,,,,,,,,,,0,,,,,,,,,,,,,,,,,,,,,,,,,,,,,,,,,,,,,63,esposante,,,,,518.5679,519.7832,1,0,0.6721,,0,63,63,62,1,REAL,FAKE,,,,,,,,,,,,,,,,,
,,,,,,,,,67f1a658a3c63b091b89f45d,Spanish,13 or older,"no, only English or Spanish",yes,2025-07-24_09h06.34.305,empathy_intonation_perc_control,2024.2.4,Win32,59.88023952,67f1a658a3c63b091b89f45d,68817205a84113384fffdfe3,68822f845e4686cb8b916271,,,,,,,,,,,,,1,,,,,,,,,,,,,,,,,,,,,,,,,,,,,,,,,,,,,76,atar,,,,,519.7845,522.317,0,0,1.9886,,0,64,64,75,1,REAL,FAKE,,,,,,,,,,,,,,,,,
,,,,,,,,,67f1a658a3c63b091b89f45d,Spanish,13 or older,"no, only English or Spanish",yes,2025-07-24_09h06.34.305,empathy_intonation_perc_control,2024.2.4,Win32,59.88023952,67f1a658a3c63b091b89f45d,68817205a84113384fffdfe3,68822f845e4686cb8b916271,,,,,,,,,,,,,1,,,,,,,,,,,,,,,,,,,,,,,,,,,,,,,,,,,,,56,musgo,,,,,522.3183,526.4672,0,0,3.6039,,0,65,65,55,1,REAL,FAKE,,,,,,,,,,,,,,,,,
,,,,,,,,,67f1a658a3c63b091b89f45d,Spanish,13 or older,"no, only English or Spanish",yes,2025-07-24_09h06.34.305,empathy_intonation_perc_control,2024.2.4,Win32,59.88023952,67f1a658a3c63b091b89f45d,68817205a84113384fffdfe3,68822f845e4686cb8b916271,,,,,,,,,,,,,0,,,,,,,,,,,,,,,,,,,,,,,,,,,,,,,,,,,,,74,cintro,,,,,526.4686,527.7343,1,0,0.7396,,0,66,66,73,1,REAL,FAKE,,,,,,,,,,,,,,,,,
,,,,,,,,,67f1a658a3c63b091b89f45d,Spanish,13 or older,"no, only English or Spanish",yes,2025-07-24_09h06.34.305,empathy_intonation_perc_control,2024.2.4,Win32,59.88023952,67f1a658a3c63b091b89f45d,68817205a84113384fffdfe3,68822f845e4686cb8b916271,,,,,,,,,,,,,1,,,,,,,,,,,,,,,,,,,,,,,,,,,,,,,,,,,,,75,yacer,,,,,527.7357,529.2177,1,1,0.9404,,0,67,67,74,1,REAL,FAKE,,,,,,,,,,,,,,,,,
,,,,,,,,,67f1a658a3c63b091b89f45d,Spanish,13 or older,"no, only English or Spanish",yes,2025-07-24_09h06.34.305,empathy_intonation_perc_control,2024.2.4,Win32,59.88023952,67f1a658a3c63b091b89f45d,68817205a84113384fffdfe3,68822f845e4686cb8b916271,,,,,,,,,,,,,1,,,,,,,,,,,,,,,,,,,,,,,,,,,,,,,,,,,,,57,tacaño,,,,,529.2196,530.5712,1,1,0.8173,,0,68,68,56,1,REAL,FAKE,,,,,,,,,,,,,,,,,
,,,,,,,,,67f1a658a3c63b091b89f45d,Spanish,13 or older,"no, only English or Spanish",yes,2025-07-24_09h06.34.305,empathy_intonation_perc_control,2024.2.4,Win32,59.88023952,67f1a658a3c63b091b89f45d,68817205a84113384fffdfe3,68822f845e4686cb8b916271,,,,,,,,,,,,,0,,,,,,,,,,,,,,,,,,,,,,,,,,,,,,,,,,,,,70,temblo,,,,,530.5723,533.5015,1,0,2.3864,,0,69,69,69,1,REAL,FAKE,,,,,,,,,,,,,,,,,
,,,,,,,,,67f1a658a3c63b091b89f45d,Spanish,13 or older,"no, only English or Spanish",yes,2025-07-24_09h06.34.305,empathy_intonation_perc_control,2024.2.4,Win32,59.88023952,67f1a658a3c63b091b89f45d,68817205a84113384fffdfe3,68822f845e4686cb8b916271,,,,,,,,,,,,,0,,,,,,,,,,,,,,,,,,,,,,,,,,,,,,,,,,,,,30,alardio,,,,,533.5029,534.6351,1,0,0.5886,,0,70,70,29,1,REAL,FAKE,,,,,,,,,,,,,,,,,
,,,,,,,,,67f1a658a3c63b091b89f45d,Spanish,13 or older,"no, only English or Spanish",yes,2025-07-24_09h06.34.305,empathy_intonation_perc_control,2024.2.4,Win32,59.88023952,67f1a658a3c63b091b89f45d,68817205a84113384fffdfe3,68822f845e4686cb8b916271,,,,,,,,,,,,,0,,,,,,,,,,,,,,,,,,,,,,,,,,,,,,,,,,,,,84,escuto,,,,,534.6369,535.9016,1,0,0.7221,,0,71,71,83,1,REAL,FAKE,,,,,,,,,,,,,,,,,
,,,,,,,,,67f1a658a3c63b091b89f45d,Spanish,13 or older,"no, only English or Spanish",yes,2025-07-24_09h06.34.305,empathy_intonation_perc_control,2024.2.4,Win32,59.88023952,67f1a658a3c63b091b89f45d,68817205a84113384fffdfe3,68822f845e4686cb8b916271,,,,,,,,,,,,,1,,,,,,,,,,,,,,,,,,,,,,,,,,,,,,,,,,,,,7,pésimo,,,,,535.903,537.135,1,1,0.6957,,0,72,72,6,1,REAL,FAKE,,,,,,,,,,,,,,,,,
,,,,,,,,,67f1a658a3c63b091b89f45d,Spanish,13 or older,"no, only English or Spanish",yes,2025-07-24_09h06.34.305,empathy_intonation_perc_control,2024.2.4,Win32,59.88023952,67f1a658a3c63b091b89f45d,68817205a84113384fffdfe3,68822f845e4686cb8b916271,,,,,,,,,,,,,1,,,,,,,,,,,,,,,,,,,,,,,,,,,,,,,,,,,,,81,pozo,,,,,537.1362,538.4048,0,0,0.7331,,0,73,73,80,1,REAL,FAKE,,,,,,,,,,,,,,,,,
,,,,,,,,,67f1a658a3c63b091b89f45d,Spanish,13 or older,"no, only English or Spanish",yes,2025-07-24_09h06.34.305,empathy_intonation_perc_control,2024.2.4,Win32,59.88023952,67f1a658a3c63b091b89f45d,68817205a84113384fffdfe3,68822f845e4686cb8b916271,,,,,,,,,,,,,0,,,,,,,,,,,,,,,,,,,,,,,,,,,,,,,,,,,,,1,terzo,,,,,538.4058,540.0524,1,0,1.1086,,0,74,74,0,1,REAL,FAKE,,,,,,,,,,,,,,,,,
,,,,,,,,,67f1a658a3c63b091b89f45d,Spanish,13 or older,"no, only English or Spanish",yes,2025-07-24_09h06.34.305,empathy_intonation_perc_control,2024.2.4,Win32,59.88023952,67f1a658a3c63b091b89f45d,68817205a84113384fffdfe3,68822f845e4686cb8b916271,,,,,,,,,,,,,1,,,,,,,,,,,,,,,,,,,,,,,,,,,,,,,,,,,,,60,matar,,,,,540.0538,542.6554,1,1,2.0664,,0,75,75,59,1,REAL,FAKE,,,,,,,,,,,,,,,,,
,,,,,,,,,67f1a658a3c63b091b89f45d,Spanish,13 or older,"no, only English or Spanish",yes,2025-07-24_09h06.34.305,empathy_intonation_perc_control,2024.2.4,Win32,59.88023952,67f1a658a3c63b091b89f45d,68817205a84113384fffdfe3,68822f845e4686cb8b916271,,,,,,,,,,,,,0,,,,,,,,,,,,,,,,,,,,,,,,,,,,,,,,,,,,,33,pauca,,,,,542.6564,544.3528,0,1,1.1605,,0,76,76,32,1,REAL,FAKE,,,,,,,,,,,,,,,,,
,,,,,,,,,67f1a658a3c63b091b89f45d,Spanish,13 or older,"no, only English or Spanish",yes,2025-07-24_09h06.34.305,empathy_intonation_perc_control,2024.2.4,Win32,59.88023952,67f1a658a3c63b091b89f45d,68817205a84113384fffdfe3,68822f845e4686cb8b916271,,,,,,,,,,,,,1,,,,,,,,,,,,,,,,,,,,,,,,,,,,,,,,,,,,,12,asesinato,,,,,544.3539,545.6865,1,1,0.7892,,0,77,77,11,1,REAL,FAKE,,,,,,,,,,,,,,,,,
,,,,,,,,,67f1a658a3c63b091b89f45d,Spanish,13 or older,"no, only English or Spanish",yes,2025-07-24_09h06.34.305,empathy_intonation_perc_control,2024.2.4,Win32,59.88023952,67f1a658a3c63b091b89f45d,68817205a84113384fffdfe3,68822f845e4686cb8b916271,,,,,,,,,,,,,1,,,,,,,,,,,,,,,,,,,,,,,,,,,,,,,,,,,,,38,estornudar,,,,,545.6877,546.8862,1,1,0.6631,,0,78,78,37,1,REAL,FAKE,,,,,,,,,,,,,,,,,
,,,,,,,,,67f1a658a3c63b091b89f45d,Spanish,13 or older,"no, only English or Spanish",yes,2025-07-24_09h06.34.305,empathy_intonation_perc_control,2024.2.4,Win32,59.88023952,67f1a658a3c63b091b89f45d,68817205a84113384fffdfe3,68822f845e4686cb8b916271,,,,,,,,,,,,,1,,,,,,,,,,,,,,,,,,,,,,,,,,,,,,,,,,,,,91,click the 1 key.,,,,,546.8879,549.0536,1,1,1.6186,,0,79,79,90,1,REAL,FAKE,,,,,,,,,,,,,,,,,
,,,,,,,,,67f1a658a3c63b091b89f45d,Spanish,13 or older,"no, only English or Spanish",yes,2025-07-24_09h06.34.305,empathy_intonation_perc_control,2024.2.4,Win32,59.88023952,67f1a658a3c63b091b89f45d,68817205a84113384fffdfe3,68822f845e4686cb8b916271,,,,,,,,,,,,,0,,,,,,,,,,,,,,,,,,,,,,,,,,,,,,,,,,,,,79,tropaje,,,,,549.0551,553.4742,1,0,3.8846,,0,80,80,78,1,REAL,FAKE,,,,,,,,,,,,,,,,,
,,,,,,,,,67f1a658a3c63b091b89f45d,Spanish,13 or older,"no, only English or Spanish",yes,2025-07-24_09h06.34.305,empathy_intonation_perc_control,2024.2.4,Win32,59.88023952,67f1a658a3c63b091b89f45d,68817205a84113384fffdfe3,68822f845e4686cb8b916271,,,,,,,,,,,,,1,,,,,,,,,,,,,,,,,,,,,,,,,,,,,,,,,,,,,77,tiburón,,,,,553.4754,554.7372,1,1,0.7241,,0,81,81,76,1,REAL,FAKE,,,,,,,,,,,,,,,,,
,,,,,,,,,67f1a658a3c63b091b89f45d,Spanish,13 or older,"no, only English or Spanish",yes,2025-07-24_09h06.34.305,empathy_intonation_perc_control,2024.2.4,Win32,59.88023952,67f1a658a3c63b091b89f45d,68817205a84113384fffdfe3,68822f845e4686cb8b916271,,,,,,,,,,,,,1,,,,,,,,,,,,,,,,,,,,,,,,,,,,,,,,,,,,,9,hacha,,,,,554.7381,556.1048,1,1,0.8259,,0,82,82,8,1,REAL,FAKE,,,,,,,,,,,,,,,,,
,,,,,,,,,67f1a658a3c63b091b89f45d,Spanish,13 or older,"no, only English or Spanish",yes,2025-07-24_09h06.34.305,empathy_intonation_perc_control,2024.2.4,Win32,59.88023952,67f1a658a3c63b091b89f45d,68817205a84113384fffdfe3,68822f845e4686cb8b916271,,,,,,,,,,,,,1,,,,,,,,,,,,,,,,,,,,,,,,,,,,,,,,,,,,,34,aviso,,,,,556.1062,557.4745,1,1,0.8341,,0,83,83,33,1,REAL,FAKE,,,,,,,,,,,,,,,,,
,,,,,,,,,67f1a658a3c63b091b89f45d,Spanish,13 or older,"no, only English or Spanish",yes,2025-07-24_09h06.34.305,empathy_intonation_perc_control,2024.2.4,Win32,59.88023952,67f1a658a3c63b091b89f45d,68817205a84113384fffdfe3,68822f845e4686cb8b916271,,,,,,,,,,,,,0,,,,,,,,,,,,,,,,,,,,,,,,,,,,,,,,,,,,,29,decar,,,,,557.4756,559.0383,1,0,1.0208,,0,84,84,28,1,REAL,FAKE,,,,,,,,,,,,,,,,,
,,,,,,,,,67f1a658a3c63b091b89f45d,Spanish,13 or older,"no, only English or Spanish",yes,2025-07-24_09h06.34.305,empathy_intonation_perc_control,2024.2.4,Win32,59.88023952,67f1a658a3c63b091b89f45d,68817205a84113384fffdfe3,68822f845e4686cb8b916271,,,,,,,,,,,,,1,,,,,,,,,,,,,,,,,,,,,,,,,,,,,,,,,,,,,39,torpe,,,,,559.04,560.5551,0,0,0.9679,,0,85,85,38,1,REAL,FAKE,,,,,,,,,,,,,,,,,
,,,,,,,,,67f1a658a3c63b091b89f45d,Spanish,13 or older,"no, only English or Spanish",yes,2025-07-24_09h06.34.305,empathy_intonation_perc_control,2024.2.4,Win32,59.88023952,67f1a658a3c63b091b89f45d,68817205a84113384fffdfe3,68822f845e4686cb8b916271,,,,,,,,,,,,,1,,,,,,,,,,,,,,,,,,,,,,,,,,,,,,,,,,,,,62,flaco,,,,,560.5563,562.1885,1,1,1.0856,,0,86,86,61,1,REAL,FAKE,,,,,,,,,,,,,,,,,
,,,,,,,,,67f1a658a3c63b091b89f45d,Spanish,13 or older,"no, only English or Spanish",yes,2025-07-24_09h06.34.305,empathy_intonation_perc_control,2024.2.4,Win32,59.88023952,67f1a658a3c63b091b89f45d,68817205a84113384fffdfe3,68822f845e4686cb8b916271,,,,,,,,,,,,,1,,,,,,,,,,,,,,,,,,,,,,,,,,,,,,,,,,,,,80,hormiga,,,,,562.1903,564.2055,1,1,1.472,,0,87,87,79,1,REAL,FAKE,,,,,,,,,,,,,,,,,
,,,,,,,,,67f1a658a3c63b091b89f45d,Spanish,13 or older,"no, only English or Spanish",yes,2025-07-24_09h06.34.305,empathy_intonation_perc_control,2024.2.4,Win32,59.88023952,67f1a658a3c63b091b89f45d,68817205a84113384fffdfe3,68822f845e4686cb8b916271,,,,,,,,,,,,,0,,,,,,,,,,,,,,,,,,,,,,,,,,,,,,,,,,,,,27,acutación,,,,,564.2068,565.572,1,0,0.8296,,0,88,88,26,1,REAL,FAKE,,,,,,,,,,,,,,,,,
,,,,,,,,,67f1a658a3c63b091b89f45d,Spanish,13 or older,"no, only English or Spanish",yes,2025-07-24_09h06.34.305,empathy_intonation_perc_control,2024.2.4,Win32,59.88023952,67f1a658a3c63b091b89f45d,68817205a84113384fffdfe3,68822f845e4686cb8b916271,,,,,,,,,,,,,1,,,,,,,,,,,,,,,,,,,,,,,,,,,,,,,,,,,,,73,hervidor,,,,,565.5732,570.0397,1,1,3.9347,,0,89,89,72,1,REAL,FAKE,,,,,,,,,,,,,,,,,
,,,,,,,,,67f1a658a3c63b091b89f45d,Spanish,13 or older,"no, only English or Spanish",yes,2025-07-24_09h06.34.305,empathy_intonation_perc_control,2024.2.4,Win32,59.88023952,67f1a658a3c63b091b89f45d,68817205a84113384fffdfe3,68822f845e4686cb8b916271,,,,,,,,,,,,,1,,,,,,,,,,,,,,,,,,,,,,,,,,,,,,,,,,,,,88,acantilado,,,,,570.0415,571.2897,1,1,0.7074,,0,90,90,87,1,REAL,FAKE,,,,,,,,,,,,,,,,,
,,,,,,,,,67f1a658a3c63b091b89f45d,Spanish,13 or older,"no, only English or Spanish",yes,2025-07-24_09h06.34.305,empathy_intonation_perc_control,2024.2.4,Win32,59.88023952,67f1a658a3c63b091b89f45d,68817205a84113384fffdfe3,68822f845e4686cb8b916271,,,,,,,,,,,,,1,,,,,,,,,,,,,,,,,,,,,,,,,,,,,,,,,,,,,78,frondoso,,,,,571.2915,573.0234,0,0,1.1927,,0,91,91,77,1,REAL,FAKE,,,,,,,,,,,,,,,,,
,,,,,,,,,67f1a658a3c63b091b89f45d,Spanish,13 or older,"no, only English or Spanish",yes,2025-07-24_09h06.34.305,empathy_intonation_perc_control,2024.2.4,Win32,59.88023952,67f1a658a3c63b091b89f45d,68817205a84113384fffdfe3,68822f845e4686cb8b916271,,,,,,,,,,,,,,,,,,,,,,,,,,,,,,,,,,,,,,,,,,,,,,,,,,,,,,,,,,,,,,,,,,,,,573.0239,586.1755,,,,,,,,,,,,,,,
,,,,,,,,,67f1a658a3c63b091b89f45d,Spanish,13 or older,"no, only English or Spanish",yes,2025-07-24_09h06.34.305,empathy_intonation_perc_control,2024.2.4,Win32,59.88023952,67f1a658a3c63b091b89f45d,68817205a84113384fffdfe3,68822f845e4686cb8b916271,,,,,,,,,,,,,,,,,,,,,,,,,,,1,,,,,,,,,,,,,,,,,,,,,,,,,,,,,,,,,,,,,,,,,,,,586.1858,593.543,strongly agree,0,0,0,0,1,I can easily tell if someone else wants to enter a conversation.,1,0,1,0,,
,,,,,,,,,67f1a658a3c63b091b89f45d,Spanish,13 or older,"no, only English or Spanish",yes,2025-07-24_09h06.34.305,empathy_intonation_perc_control,2024.2.4,Win32,59.88023952,67f1a658a3c63b091b89f45d,68817205a84113384fffdfe3,68822f845e4686cb8b916271,,,,,,,,,,,,,,,,,,,,,,,,,,,2,,,,,,,,,,,,,,,,,,,,,,,,,,,,,,,,,,,,,,,,,,,,593.5457,602.3935,strongly disagree,0,1,1,1,1,I prefer animals to humans.,0,1,0,0,,
,,,,,,,,,67f1a658a3c63b091b89f45d,Spanish,13 or older,"no, only English or Spanish",yes,2025-07-24_09h06.34.305,empathy_intonation_perc_control,2024.2.4,Win32,59.88023952,67f1a658a3c63b091b89f45d,68817205a84113384fffdfe3,68822f845e4686cb8b916271,,,,,,,,,,,,,,,,,,,,,,,,,,,3,,,,,,,,,,,,,,,,,,,,,,,,,,,,,,,,,,,,,,,,,,,,602.3958,605.6939,strongly agree,0,2,2,2,1,I try to keep up with the current trends and fashions.,0,1,0,0,,
,,,,,,,,,67f1a658a3c63b091b89f45d,Spanish,13 or older,"no, only English or Spanish",yes,2025-07-24_09h06.34.305,empathy_intonation_perc_control,2024.2.4,Win32,59.88023952,67f1a658a3c63b091b89f45d,68817205a84113384fffdfe3,68822f845e4686cb8b916271,,,,,,,,,,,,,,,,,,,,,,,,,,,4,,,,,,,,,,,,,,,,,,,,,,,,,,,,,,,,,,,,,,,,,,,,605.6967,612.2448,strongly disagree,0,3,3,3,1,"I find it difficult to explain to others things that I understand easily,   when they don't understand it first time.",1,0,0,1,,
,,,,,,,,,67f1a658a3c63b091b89f45d,Spanish,13 or older,"no, only English or Spanish",yes,2025-07-24_09h06.34.305,empathy_intonation_perc_control,2024.2.4,Win32,59.88023952,67f1a658a3c63b091b89f45d,68817205a84113384fffdfe3,68822f845e4686cb8b916271,,,,,,,,,,,,,,,,,,,,,,,,,,,5,,,,,,,,,,,,,,,,,,,,,,,,,,,,,,,,,,,,,,,,,,,,612.2469,615.5952,slightly disagree,0,4,4,4,1,I dream most nights.,0,1,0,0,,
,,,,,,,,,67f1a658a3c63b091b89f45d,Spanish,13 or older,"no, only English or Spanish",yes,2025-07-24_09h06.34.305,empathy_intonation_perc_control,2024.2.4,Win32,59.88023952,67f1a658a3c63b091b89f45d,68817205a84113384fffdfe3,68822f845e4686cb8b916271,,,,,,,,,,,,,,,,,,,,,,,,,,,6,,,,,,,,,,,,,,,,,,,,,,,,,,,,,,,,,,,,,,,,,,,,615.5974,620.2624,strongly disagree,0,5,5,5,1,I really enjoy caring for other people.,1,0,1,0,,
,,,,,,,,,67f1a658a3c63b091b89f45d,Spanish,13 or older,"no, only English or Spanish",yes,2025-07-24_09h06.34.305,empathy_intonation_perc_control,2024.2.4,Win32,59.88023952,67f1a658a3c63b091b89f45d,68817205a84113384fffdfe3,68822f845e4686cb8b916271,,,,,,,,,,,,,,,,,,,,,,,,,,,7,,,,,,,,,,,,,,,,,,,,,,,,,,,,,,,,,,,,,,,,,,,,620.2651,624.1296,strongly agree,0,6,6,6,1,I try to solve my own problems rather than discussing them with others.,0,1,0,0,,
,,,,,,,,,67f1a658a3c63b091b89f45d,Spanish,13 or older,"no, only English or Spanish",yes,2025-07-24_09h06.34.305,empathy_intonation_perc_control,2024.2.4,Win32,59.88023952,67f1a658a3c63b091b89f45d,68817205a84113384fffdfe3,68822f845e4686cb8b916271,,,,,,,,,,,,,,,,,,,,,,,,,,,8,,,,,,,,,,,,,,,,,,,,,,,,,,,,,,,,,,,,,,,,,,,,624.132,628.2467,strongly disagree,0,7,7,7,1,I find it hard to know what to do in a social situation.,1,0,0,1,,
,,,,,,,,,67f1a658a3c63b091b89f45d,Spanish,13 or older,"no, only English or Spanish",yes,2025-07-24_09h06.34.305,empathy_intonation_perc_control,2024.2.4,Win32,59.88023952,67f1a658a3c63b091b89f45d,68817205a84113384fffdfe3,68822f845e4686cb8b916271,,,,,,,,,,,,,,,,,,,,,,,,,,,9,,,,,,,,,,,,,,,,,,,,,,,,,,,,,,,,,,,,,,,,,,,,628.249,637.8988,strongly agree,0,8,8,8,1,I am at my best first thing in the morning.,0,1,0,0,,
,,,,,,,,,67f1a658a3c63b091b89f45d,Spanish,13 or older,"no, only English or Spanish",yes,2025-07-24_09h06.34.305,empathy_intonation_perc_control,2024.2.4,Win32,59.88023952,67f1a658a3c63b091b89f45d,68817205a84113384fffdfe3,68822f845e4686cb8b916271,,,,,,,,,,,,,,,,,,,,,,,,,,,10,,,,,,,,,,,,,,,,,,,,,,,,,,,,,,,,,,,,,,,,,,,,637.9009,643.982,strongly disagree,0,9,9,9,1,People often tell me that I went too far in driving my point home in a discussion.,1,0,0,1,,
,,,,,,,,,67f1a658a3c63b091b89f45d,Spanish,13 or older,"no, only English or Spanish",yes,2025-07-24_09h06.34.305,empathy_intonation_perc_control,2024.2.4,Win32,59.88023952,67f1a658a3c63b091b89f45d,68817205a84113384fffdfe3,68822f845e4686cb8b916271,,,,,,,,,,,,,,,,,,,,,,,,,,,11,,,,,,,,,,,,,,,,,,,,,,,,,,,,,,,,,,,,,,,,,,,,643.9845,653.4498,slightly disagree,0,10,10,10,1,It doesn't bother me too much if I am late meeting a friend.,1,0,0,1,,
,,,,,,,,,67f1a658a3c63b091b89f45d,Spanish,13 or older,"no, only English or Spanish",yes,2025-07-24_09h06.34.305,empathy_intonation_perc_control,2024.2.4,Win32,59.88023952,67f1a658a3c63b091b89f45d,68817205a84113384fffdfe3,68822f845e4686cb8b916271,,,,,,,,,,,,,,,,,,,,,,,,,,,12,,,,,,,,,,,,,,,,,,,,,,,,,,,,,,,,,,,,,,,,,,,,653.4524,660.7675,slightly disagree,0,11,11,11,1,"Friendships and relationships are just too difficult, so I tend not to 
  bother with them.",1,0,0,1,,
,,,,,,,,,67f1a658a3c63b091b89f45d,Spanish,13 or older,"no, only English or Spanish",yes,2025-07-24_09h06.34.305,empathy_intonation_perc_control,2024.2.4,Win32,59.88023952,67f1a658a3c63b091b89f45d,68817205a84113384fffdfe3,68822f845e4686cb8b916271,,,,,,,,,,,,,,,,,,,,,,,,,,,13,,,,,,,,,,,,,,,,,,,,,,,,,,,,,,,,,,,,,,,,,,,,660.77,665.7513,slightly agree,0,12,12,12,1,"I would never break a law, no matter how minor.",0,1,0,0,,
,,,,,,,,,67f1a658a3c63b091b89f45d,Spanish,13 or older,"no, only English or Spanish",yes,2025-07-24_09h06.34.305,empathy_intonation_perc_control,2024.2.4,Win32,59.88023952,67f1a658a3c63b091b89f45d,68817205a84113384fffdfe3,68822f845e4686cb8b916271,,,,,,,,,,,,,,,,,,,,,,,,,,,14,,,,,,,,,,,,,,,,,,,,,,,,,,,,,,,,,,,,,,,,,,,,665.7531,670.1185,strongly disagree,0,13,13,13,1,I often find it difficult to judge if something is rude or polite.,1,0,0,1,,
,,,,,,,,,67f1a658a3c63b091b89f45d,Spanish,13 or older,"no, only English or Spanish",yes,2025-07-24_09h06.34.305,empathy_intonation_perc_control,2024.2.4,Win32,59.88023952,67f1a658a3c63b091b89f45d,68817205a84113384fffdfe3,68822f845e4686cb8b916271,,,,,,,,,,,,,,,,,,,,,,,,,,,15,,,,,,,,,,,,,,,,,,,,,,,,,,,,,,,,,,,,,,,,,,,,670.1207,675.7866,strongly disagree,0,14,14,14,1,"In a conversation, I tend to focus on my own thoughts rather than on what 
  my listener might be thinking.",1,0,0,1,,
,,,,,,,,,67f1a658a3c63b091b89f45d,Spanish,13 or older,"no, only English or Spanish",yes,2025-07-24_09h06.34.305,empathy_intonation_perc_control,2024.2.4,Win32,59.88023952,67f1a658a3c63b091b89f45d,68817205a84113384fffdfe3,68822f845e4686cb8b916271,,,,,,,,,,,,,,,,,,,,,,,,,,,16,,,,,,,,,,,,,,,,,,,,,,,,,,,,,,,,,,,,,,,,,,,,675.7881,680.4198,strongly disagree,0,15,15,15,1,I prefer practical jokes to verbal humor.,0,1,0,0,,
,,,,,,,,,67f1a658a3c63b091b89f45d,Spanish,13 or older,"no, only English or Spanish",yes,2025-07-24_09h06.34.305,empathy_intonation_perc_control,2024.2.4,Win32,59.88023952,67f1a658a3c63b091b89f45d,68817205a84113384fffdfe3,68822f845e4686cb8b916271,,,,,,,,,,,,,,,,,,,,,,,,,,,17,,,,,,,,,,,,,,,,,,,,,,,,,,,,,,,,,,,,,,,,,,,,680.4217,687.9044,slightly agree,0,16,16,16,1,I live life for today rather than the future.,0,1,0,0,,
,,,,,,,,,67f1a658a3c63b091b89f45d,Spanish,13 or older,"no, only English or Spanish",yes,2025-07-24_09h06.34.305,empathy_intonation_perc_control,2024.2.4,Win32,59.88023952,67f1a658a3c63b091b89f45d,68817205a84113384fffdfe3,68822f845e4686cb8b916271,,,,,,,,,,,,,,,,,,,,,,,,,,,18,,,,,,,,,,,,,,,,,,,,,,,,,,,,,,,,,,,,,,,,,,,,687.9079,691.8882,strongly disagree,0,17,17,17,1,"When I was a child, I enjoyed cutting up worms to see what would happen.",1,0,0,1,,
,,,,,,,,,67f1a658a3c63b091b89f45d,Spanish,13 or older,"no, only English or Spanish",yes,2025-07-24_09h06.34.305,empathy_intonation_perc_control,2024.2.4,Win32,59.88023952,67f1a658a3c63b091b89f45d,68817205a84113384fffdfe3,68822f845e4686cb8b916271,,,,,,,,,,,,,,,,,,,,,,,,,,,19,,,,,,,,,,,,,,,,,,,,,,,,,,,,,,,,,,,,,,,,,,,,691.8908,696.8554,strongly agree,0,18,18,18,1,I can pick up quickly if someone says one thing but means another.,1,0,1,0,,
,,,,,,,,,67f1a658a3c63b091b89f45d,Spanish,13 or older,"no, only English or Spanish",yes,2025-07-24_09h06.34.305,empathy_intonation_perc_control,2024.2.4,Win32,59.88023952,67f1a658a3c63b091b89f45d,68817205a84113384fffdfe3,68822f845e4686cb8b916271,,,,,,,,,,,,,,,,,,,,,,,,,,,20,,,,,,,,,,,,,,,,,,,,,,,,,,,,,,,,,,,,,,,,,,,,696.8577,701.9726,strongly agree,0,19,19,19,1,I tend to have very strong opinions about morality.,0,1,0,0,,
,,,,,,,,,67f1a658a3c63b091b89f45d,Spanish,13 or older,"no, only English or Spanish",yes,2025-07-24_09h06.34.305,empathy_intonation_perc_control,2024.2.4,Win32,59.88023952,67f1a658a3c63b091b89f45d,68817205a84113384fffdfe3,68822f845e4686cb8b916271,,,,,,,,,,,,,,,,,,,,,,,,,,,21,,,,,,,,,,,,,,,,,,,,,,,,,,,,,,,,,,,,,,,,,,,,701.9749,707.5898,slightly agree,0,20,20,20,1,It is hard for me to see why some things upset people so much.,1,0,0,1,,
,,,,,,,,,67f1a658a3c63b091b89f45d,Spanish,13 or older,"no, only English or Spanish",yes,2025-07-24_09h06.34.305,empathy_intonation_perc_control,2024.2.4,Win32,59.88023952,67f1a658a3c63b091b89f45d,68817205a84113384fffdfe3,68822f845e4686cb8b916271,,,,,,,,,,,,,,,,,,,,,,,,,,,22,,,,,,,,,,,,,,,,,,,,,,,,,,,,,,,,,,,,,,,,,,,,707.5917,710.2237,slightly agree,0,21,21,21,1,I find it easy to put myself in somebody else's shoes.,1,0,1,0,,
,,,,,,,,,67f1a658a3c63b091b89f45d,Spanish,13 or older,"no, only English or Spanish",yes,2025-07-24_09h06.34.305,empathy_intonation_perc_control,2024.2.4,Win32,59.88023952,67f1a658a3c63b091b89f45d,68817205a84113384fffdfe3,68822f845e4686cb8b916271,,,,,,,,,,,,,,,,,,,,,,,,,,,23,,,,,,,,,,,,,,,,,,,,,,,,,,,,,,,,,,,,,,,,,,,,710.2261,714.9077,slightly agree,0,22,22,22,1,I think that good manners are the most important thing a parent can teach their child.,0,1,0,0,,
,,,,,,,,,67f1a658a3c63b091b89f45d,Spanish,13 or older,"no, only English or Spanish",yes,2025-07-24_09h06.34.305,empathy_intonation_perc_control,2024.2.4,Win32,59.88023952,67f1a658a3c63b091b89f45d,68817205a84113384fffdfe3,68822f845e4686cb8b916271,,,,,,,,,,,,,,,,,,,,,,,,,,,24,,,,,,,,,,,,,,,,,,,,,,,,,,,,,,,,,,,,,,,,,,,,714.9098,717.5411,slightly agree,0,23,23,23,1,I like to do things on the spur of the moment.,0,1,0,0,,
