instructions_2afc.started,instructions_2afc.stopped,instructions_2afc_loop.thisRepN,instructions_2afc_loop.thisTrialN,instructions_2afc_loop.thisN,instructions_2afc_loop.thisIndex,instructions_2afc_loop.ran,instructions_text,continue_text,participant_id,"What variety of Spanish are you most familiar with? (e.g., Peruvian, Spanish, Mexican)",At what age did you begin learning Spanish?,Are you proficient in any languages other than English/Spanish?,"Are you familiar with Caribbean (e.g., Caribbean, Puerto Rican) or Galician Spanish?",date,expName,psychopyVersion,OS,frameRate,id,study_id,session,practice_2afc.started,practice_2afc.stopped,key_resp_2afc_practice.keys,key_resp_2afc_practice.corr,key_resp_2afc_practice.rt,key_resp_2afc_practice.duration,trials_2afc_practice_loop.thisRepN,trials_2afc_practice_loop.thisTrialN,trials_2afc_practice_loop.thisN,trials_2afc_practice_loop.thisIndex,trials_2afc_practice_loop.ran,path,correct_response,check_2afc.started,check_2afc.stopped,trial_2afc.started,trial_2afc.stopped,key_resp_2afc_trial.keys,key_resp_2afc_trial.corr,key_resp_2afc_trial.rt,key_resp_2afc_trial.duration,trials_2afc_loop.thisRepN,trials_2afc_loop.thisTrialN,trials_2afc_loop.thisN,trials_2afc_loop.thisIndex,trials_2afc_loop.ran,item_num,target,variety,instructions_lextale.started,instructions_lextale.stopped,instructions_lextale_loop.thisRepN,instructions_lextale_loop.thisTrialN,instructions_lextale_loop.thisN,instructions_lextale_loop.thisIndex,instructions_lextale_loop.ran,practice_lextale.started,practice_lextale.stopped,key_resp_lextale_practice.keys,key_resp_lextale_practice.corr,key_resp_lextale_practice.rt,key_resp_lextale_practice.duration,practice_feedback_lextale.started,practice_feedback_lextale.stopped,trials_lextale_practice_loop.thisRepN,trials_lextale_practice_loop.thisTrialN,trials_lextale_practice_loop.thisN,trials_lextale_practice_loop.thisIndex,trials_lextale_practice_loop.ran,stim,word,prac_button_real,prac_button_false,check_lextale.started,check_lextale.stopped,trial_lextale.started,trial_lextale.stopped,key_resp_lextale_trial.keys,key_resp_lextale_trial.corr,key_resp_lextale_trial.rt,key_resp_lextale_trial.duration,trials_lextale_loop.thisRepN,trials_lextale_loop.thisTrialN,trials_lextale_loop.thisN,trials_lextale_loop.thisIndex,trials_lextale_loop.ran,button_real,button_false,instructions_eq.started,instructions_eq.stopped,trial_eq.started,trial_eq.stopped,slider_eq_trial.response,trials_eq_loop.thisRepN,trials_eq_loop.thisTrialN,trials_eq_loop.thisN,trials_eq_loop.thisIndex,trials_eq_loop.ran,item,is_test_item,is_distractor,is_agree_score,is_disagree_score,end_exp.started,end_exp.stopped
0.0622,5.1745,0,0,0,0,1,"In the following task you are going to hear a series of utterances. 

  You will decide if the utterances sound like questions or not using your keyboard.", (press the spacebar to continue),69134a97886665640fa49f30,Mexican,13 or older,"no, only English or Spanish",no,2026-01-21_16h09.07.923,empathy_intonation_perc_control,2024.2.4,MacIntel,57.47126437,69134a97886665640fa49f30,69712dc693a3960bdb483245,69714046a759f96a350729d3,,,,,,,,,,,,,,,,,,,,,,,,,,,,,,,,,,,,,,,,,,,,,,,,,,,,,,,,,,,,,,,,,,,,,,,,,,,,,,,,,,,,,
5.1756,15.3481,0,1,1,1,1,"If you believe the utterance is a question, type '1' (for 'yes') and if you do not 
  believe it is a question type '0' (for 'no').

  Let's practice a bit...", (press the spacebar to continue),69134a97886665640fa49f30,Mexican,13 or older,"no, only English or Spanish",no,2026-01-21_16h09.07.923,empathy_intonation_perc_control,2024.2.4,MacIntel,57.47126437,69134a97886665640fa49f30,69712dc693a3960bdb483245,69714046a759f96a350729d3,,,,,,,,,,,,,,,,,,,,,,,,,,,,,,,,,,,,,,,,,,,,,,,,,,,,,,,,,,,,,,,,,,,,,,,,,,,,,,,,,,,,,
,,,,,,,,,69134a97886665640fa49f30,Mexican,13 or older,"no, only English or Spanish",no,2026-01-21_16h09.07.923,empathy_intonation_perc_control,2024.2.4,MacIntel,57.47126437,69134a97886665640fa49f30,69712dc693a3960bdb483245,69714046a759f96a350729d3,15.3579,18.7586,0,1,2.884,,0,0,0,4,1,./stim/wavs/cuban_statement_filler_Cocinabas-por-la-noche.wav,0,,,,,,,,,,,,,,,,,,,,,,,,,,,,,,,,,,,,,,,,,,,,,,,,,,,,,,,,,,,,,,,,,,,,,,,,
,,,,,,,,,69134a97886665640fa49f30,Mexican,13 or older,"no, only English or Spanish",no,2026-01-21_16h09.07.923,empathy_intonation_perc_control,2024.2.4,MacIntel,57.47126437,69134a97886665640fa49f30,69712dc693a3960bdb483245,69714046a759f96a350729d3,18.7593,22.874,0,1,3.5871,,0,1,1,5,1,./stim/wavs/andalusian_statement_filler_Alberto-nunca-se-afeita.wav,0,,,,,,,,,,,,,,,,,,,,,,,,,,,,,,,,,,,,,,,,,,,,,,,,,,,,,,,,,,,,,,,,,,,,,,,,
,,,,,,,,,69134a97886665640fa49f30,Mexican,13 or older,"no, only English or Spanish",no,2026-01-21_16h09.07.923,empathy_intonation_perc_control,2024.2.4,MacIntel,57.47126437,69134a97886665640fa49f30,69712dc693a3960bdb483245,69714046a759f96a350729d3,22.8746,29.3748,0,1,5.9898,,0,2,2,6,1,./stim/wavs/peruvian_statement_filler_El-nino-habla-con-su-madre.wav,0,,,,,,,,,,,,,,,,,,,,,,,,,,,,,,,,,,,,,,,,,,,,,,,,,,,,,,,,,,,,,,,,,,,,,,,,
,,,,,,,,,69134a97886665640fa49f30,Mexican,13 or older,"no, only English or Spanish",no,2026-01-21_16h09.07.923,empathy_intonation_perc_control,2024.2.4,MacIntel,57.47126437,69134a97886665640fa49f30,69712dc693a3960bdb483245,69714046a759f96a350729d3,29.3753,32.6416,0,1,2.7364,,0,3,3,7,1,./stim/wavs/puertorican_statement_filler_La-nina-pinta-con-su-amiga.wav,0,,,,,,,,,,,,,,,,,,,,,,,,,,,,,,,,,,,,,,,,,,,,,,,,,,,,,,,,,,,,,,,,,,,,,,,,
,,,,,,,,,69134a97886665640fa49f30,Mexican,13 or older,"no, only English or Spanish",no,2026-01-21_16h09.07.923,empathy_intonation_perc_control,2024.2.4,MacIntel,57.47126437,69134a97886665640fa49f30,69712dc693a3960bdb483245,69714046a759f96a350729d3,32.6423,35.3074,1,1,2.1403,,0,4,4,1,1,./stim/wavs/argentine_question_filler_Mi-vecino-habla-mucho.wav,1,,,,,,,,,,,,,,,,,,,,,,,,,,,,,,,,,,,,,,,,,,,,,,,,,,,,,,,,,,,,,,,,,,,,,,,,
,,,,,,,,,69134a97886665640fa49f30,Mexican,13 or older,"no, only English or Spanish",no,2026-01-21_16h09.07.923,empathy_intonation_perc_control,2024.2.4,MacIntel,57.47126437,69134a97886665640fa49f30,69712dc693a3960bdb483245,69714046a759f96a350729d3,35.3078,37.8135,1,1,1.9895,,0,5,5,0,1,./stim/wavs/castilian_question_filler_Mi-esposo-conoce-al-chico.wav,1,,,,,,,,,,,,,,,,,,,,,,,,,,,,,,,,,,,,,,,,,,,,,,,,,,,,,,,,,,,,,,,,,,,,,,,,
,,,,,,,,,69134a97886665640fa49f30,Mexican,13 or older,"no, only English or Spanish",no,2026-01-21_16h09.07.923,empathy_intonation_perc_control,2024.2.4,MacIntel,57.47126437,69134a97886665640fa49f30,69712dc693a3960bdb483245,69714046a759f96a350729d3,37.8139,40.1863,1,1,1.8539,,0,6,6,3,1,./stim/wavs/mexican_question_filler_Felipe-no-tiene-contrasena.wav,1,,,,,,,,,,,,,,,,,,,,,,,,,,,,,,,,,,,,,,,,,,,,,,,,,,,,,,,,,,,,,,,,,,,,,,,,
,,,,,,,,,69134a97886665640fa49f30,Mexican,13 or older,"no, only English or Spanish",no,2026-01-21_16h09.07.923,empathy_intonation_perc_control,2024.2.4,MacIntel,57.47126437,69134a97886665640fa49f30,69712dc693a3960bdb483245,69714046a759f96a350729d3,40.1866,43.649,0,0,2.9491,,0,7,7,2,1,./stim/wavs/chilean_question_filler_Mi-padre-cantaba-bien.wav,1,,,,,,,,,,,,,,,,,,,,,,,,,,,,,,,,,,,,,,,,,,,,,,,,,,,,,,,,,,,,,,,,,,,,,,,,
,,,,,,,,,69134a97886665640fa49f30,Mexican,13 or older,"no, only English or Spanish",no,2026-01-21_16h09.07.923,empathy_intonation_perc_control,2024.2.4,MacIntel,57.47126437,69134a97886665640fa49f30,69712dc693a3960bdb483245,69714046a759f96a350729d3,,,,,,,,,,,,,,43.6493,48.9237,,,,,,,,,,,,,,,,,,,,,,,,,,,,,,,,,,,,,,,,,,,,,,,,,,,,,,,,,,,,,,,,,,,,,,
,,,,,,,,,69134a97886665640fa49f30,Mexican,13 or older,"no, only English or Spanish",no,2026-01-21_16h09.07.923,empathy_intonation_perc_control,2024.2.4,MacIntel,57.47126437,69134a97886665640fa49f30,69712dc693a3960bdb483245,69714046a759f96a350729d3,,,,,,,,,,,,./stim/wavs/mexican_match_interrogative-total-yn_Emilio-ama-la-marcha.wav,1,,,48.9412,51.2842,1,1,1.8188,,0,0,0,15,1,16,0,mexican,,,,,,,,,,,,,,,,,,,,,,,,,,,,,,,,,,,,,,,,,,,,,,,,,,,,,,,,
,,,,,,,,,69134a97886665640fa49f30,Mexican,13 or older,"no, only English or Spanish",no,2026-01-21_16h09.07.923,empathy_intonation_perc_control,2024.2.4,MacIntel,57.47126437,69134a97886665640fa49f30,69712dc693a3960bdb483245,69714046a759f96a350729d3,,,,,,,,,,,,./stim/wavs/puertorican_match_declarative-broad-focus_Manuela-vende-el-carro.wav,0,,,51.2859,53.4407,0,1,1.6238,,0,1,1,66,1,67,0,puertorican,,,,,,,,,,,,,,,,,,,,,,,,,,,,,,,,,,,,,,,,,,,,,,,,,,,,,,,,
,,,,,,,,,69134a97886665640fa49f30,Mexican,13 or older,"no, only English or Spanish",no,2026-01-21_16h09.07.923,empathy_intonation_perc_control,2024.2.4,MacIntel,57.47126437,69134a97886665640fa49f30,69712dc693a3960bdb483245,69714046a759f96a350729d3,,,,,,,,,,,,./stim/wavs/castilian_mismatch_declarative-broad-focus_La-maestra-vive-en-Paris.wav,0,,,53.441,56.1265,0,1,2.166,,0,2,2,69,1,70,0,castilian,,,,,,,,,,,,,,,,,,,,,,,,,,,,,,,,,,,,,,,,,,,,,,,,,,,,,,,,
,,,,,,,,,69134a97886665640fa49f30,Mexican,13 or older,"no, only English or Spanish",no,2026-01-21_16h09.07.923,empathy_intonation_perc_control,2024.2.4,MacIntel,57.47126437,69134a97886665640fa49f30,69712dc693a3960bdb483245,69714046a759f96a350729d3,,,,,,,,,,,,./stim/wavs/puertorican_match_interrogative-total-yn_David-leia-el-libro.wav,1,,,56.127,58.8024,0,0,2.1524,,0,3,3,20,1,21,1,puertorican,,,,,,,,,,,,,,,,,,,,,,,,,,,,,,,,,,,,,,,,,,,,,,,,,,,,,,,,
,,,,,,,,,69134a97886665640fa49f30,Mexican,13 or older,"no, only English or Spanish",no,2026-01-21_16h09.07.923,empathy_intonation_perc_control,2024.2.4,MacIntel,57.47126437,69134a97886665640fa49f30,69712dc693a3960bdb483245,69714046a759f96a350729d3,,,,,,,,,,,,./stim/wavs/cuban_mismatch_declarative-broad-focus_Mi-tia-odia-la-lluvia.wav,0,,,58.8028,61.102,0,1,1.7832,,0,4,4,77,1,78,0,cuban,,,,,,,,,,,,,,,,,,,,,,,,,,,,,,,,,,,,,,,,,,,,,,,,,,,,,,,,
,,,,,,,,,69134a97886665640fa49f30,Mexican,13 or older,"no, only English or Spanish",no,2026-01-21_16h09.07.923,empathy_intonation_perc_control,2024.2.4,MacIntel,57.47126437,69134a97886665640fa49f30,69712dc693a3960bdb483245,69714046a759f96a350729d3,,,,,,,,,,,,./stim/wavs/cuban_mismatch_declarative-broad-focus_La-nina-lava-el-plato.wav,0,,,61.1024,63.0904,0,1,1.4699,,0,5,5,75,1,76,0,cuban,,,,,,,,,,,,,,,,,,,,,,,,,,,,,,,,,,,,,,,,,,,,,,,,,,,,,,,,
,,,,,,,,,69134a97886665640fa49f30,Mexican,13 or older,"no, only English or Spanish",no,2026-01-21_16h09.07.923,empathy_intonation_perc_control,2024.2.4,MacIntel,57.47126437,69134a97886665640fa49f30,69712dc693a3960bdb483245,69714046a759f96a350729d3,,,,,,,,,,,,./stim/wavs/mexican_mismatch_interrogative-total-yn_El-nino-oye-el-rio.wav,1,,,63.0908,65.0418,1,1,1.4216,,0,6,6,35,1,36,0,mexican,,,,,,,,,,,,,,,,,,,,,,,,,,,,,,,,,,,,,,,,,,,,,,,,,,,,,,,,
,,,,,,,,,69134a97886665640fa49f30,Mexican,13 or older,"no, only English or Spanish",no,2026-01-21_16h09.07.923,empathy_intonation_perc_control,2024.2.4,MacIntel,57.47126437,69134a97886665640fa49f30,69712dc693a3960bdb483245,69714046a759f96a350729d3,,,,,,,,,,,,./stim/wavs/castilian_mismatch_declarative-broad-focus_La-nina-lava-el-plato.wav,0,,,65.0424,67.3916,0,1,1.8195,,0,7,7,70,1,71,0,castilian,,,,,,,,,,,,,,,,,,,,,,,,,,,,,,,,,,,,,,,,,,,,,,,,,,,,,,,,
,,,,,,,,,69134a97886665640fa49f30,Mexican,13 or older,"no, only English or Spanish",no,2026-01-21_16h09.07.923,empathy_intonation_perc_control,2024.2.4,MacIntel,57.47126437,69134a97886665640fa49f30,69712dc693a3960bdb483245,69714046a759f96a350729d3,,,,,,,,,,,,./stim/wavs/mexican_mismatch_interrogative-total-yn_La-maestra-vive-en-Paris.wav,1,,,67.3919,69.8572,1,1,1.9346,,0,8,8,36,1,37,0,mexican,,,,,,,,,,,,,,,,,,,,,,,,,,,,,,,,,,,,,,,,,,,,,,,,,,,,,,,,
,,,,,,,,,69134a97886665640fa49f30,Mexican,13 or older,"no, only English or Spanish",no,2026-01-21_16h09.07.923,empathy_intonation_perc_control,2024.2.4,MacIntel,57.47126437,69134a97886665640fa49f30,69712dc693a3960bdb483245,69714046a759f96a350729d3,,,,,,,,,,,,./stim/wavs/mexican_match_interrogative-total-yn_David-leia-el-libro.wav,1,,,69.8577,72.1411,1,1,1.7681,,0,9,9,14,1,15,0,mexican,,,,,,,,,,,,,,,,,,,,,,,,,,,,,,,,,,,,,,,,,,,,,,,,,,,,,,,,
,,,,,,,,,69134a97886665640fa49f30,Mexican,13 or older,"no, only English or Spanish",no,2026-01-21_16h09.07.923,empathy_intonation_perc_control,2024.2.4,MacIntel,57.47126437,69134a97886665640fa49f30,69712dc693a3960bdb483245,69714046a759f96a350729d3,,,,,,,,,,,,./stim/wavs/castilian_match_declarative-broad-focus_Emilio-ama-la-marcha.wav,0,,,72.1418,74.4066,0,1,1.7384,,0,10,10,45,1,46,0,castilian,,,,,,,,,,,,,,,,,,,,,,,,,,,,,,,,,,,,,,,,,,,,,,,,,,,,,,,,
,,,,,,,,,69134a97886665640fa49f30,Mexican,13 or older,"no, only English or Spanish",no,2026-01-21_16h09.07.923,empathy_intonation_perc_control,2024.2.4,MacIntel,57.47126437,69134a97886665640fa49f30,69712dc693a3960bdb483245,69714046a759f96a350729d3,,,,,,,,,,,,./stim/wavs/castilian_mismatch_interrogative-total-yn_Mi-tia-odia-la-lluvia.wav,1,,,74.407,76.4952,1,1,1.58,,0,11,11,28,1,29,0,castilian,,,,,,,,,,,,,,,,,,,,,,,,,,,,,,,,,,,,,,,,,,,,,,,,,,,,,,,,
,,,,,,,,,69134a97886665640fa49f30,Mexican,13 or older,"no, only English or Spanish",no,2026-01-21_16h09.07.923,empathy_intonation_perc_control,2024.2.4,MacIntel,57.47126437,69134a97886665640fa49f30,69712dc693a3960bdb483245,69714046a759f96a350729d3,,,,,,,,,,,,./stim/wavs/puertorican_match_declarative-broad-focus_Daniel-iba-a-Bolivia.wav,0,,,76.4956,78.6076,0,1,1.5908,,0,12,12,63,1,64,0,puertorican,,,,,,,,,,,,,,,,,,,,,,,,,,,,,,,,,,,,,,,,,,,,,,,,,,,,,,,,
,,,,,,,,,69134a97886665640fa49f30,Mexican,13 or older,"no, only English or Spanish",no,2026-01-21_16h09.07.923,empathy_intonation_perc_control,2024.2.4,MacIntel,57.47126437,69134a97886665640fa49f30,69712dc693a3960bdb483245,69714046a759f96a350729d3,,,,,,,,,,,,./stim/wavs/puertorican_match_interrogative-total-yn_Daniel-iba-a-Bolivia.wav,1,,,78.6078,81.6401,0,0,2.5055,,0,13,13,19,1,20,1,puertorican,,,,,,,,,,,,,,,,,,,,,,,,,,,,,,,,,,,,,,,,,,,,,,,,,,,,,,,,
,,,,,,,,,69134a97886665640fa49f30,Mexican,13 or older,"no, only English or Spanish",no,2026-01-21_16h09.07.923,empathy_intonation_perc_control,2024.2.4,MacIntel,57.47126437,69134a97886665640fa49f30,69712dc693a3960bdb483245,69714046a759f96a350729d3,,,,,,,,,,,,./stim/wavs/puertorican_match_interrogative-total-yn_Manuela-vende-el-carro.wav,1,,,81.6404,84.378,0,0,2.2303,,0,14,14,22,1,23,1,puertorican,,,,,,,,,,,,,,,,,,,,,,,,,,,,,,,,,,,,,,,,,,,,,,,,,,,,,,,,
,,,,,,,,,69134a97886665640fa49f30,Mexican,13 or older,"no, only English or Spanish",no,2026-01-21_16h09.07.923,empathy_intonation_perc_control,2024.2.4,MacIntel,57.47126437,69134a97886665640fa49f30,69712dc693a3960bdb483245,69714046a759f96a350729d3,,,,,,,,,,,,./stim/wavs/cuban_match_declarative-broad-focus_Marta-abre-el-regalo.wav,0,,,84.3783,86.7413,0,1,1.8419,,0,15,15,55,1,56,0,cuban,,,,,,,,,,,,,,,,,,,,,,,,,,,,,,,,,,,,,,,,,,,,,,,,,,,,,,,,
,,,,,,,,,69134a97886665640fa49f30,Mexican,13 or older,"no, only English or Spanish",no,2026-01-21_16h09.07.923,empathy_intonation_perc_control,2024.2.4,MacIntel,57.47126437,69134a97886665640fa49f30,69712dc693a3960bdb483245,69714046a759f96a350729d3,,,,,,,,,,,,./stim/wavs/puertorican_mismatch_declarative-broad-focus_El-bebe-comia-muy-bien.wav,0,,,86.742,88.8753,0,1,1.6086,,0,16,16,83,1,84,0,puertorican,,,,,,,,,,,,,,,,,,,,,,,,,,,,,,,,,,,,,,,,,,,,,,,,,,,,,,,,
,,,,,,,,,69134a97886665640fa49f30,Mexican,13 or older,"no, only English or Spanish",no,2026-01-21_16h09.07.923,empathy_intonation_perc_control,2024.2.4,MacIntel,57.47126437,69134a97886665640fa49f30,69712dc693a3960bdb483245,69714046a759f96a350729d3,,,,,,,,,,,,./stim/wavs/castilian_match_declarative-broad-focus_Marta-abre-el-regalo.wav,0,,,88.8755,91.3732,0,1,1.9529,,0,17,17,49,1,50,0,castilian,,,,,,,,,,,,,,,,,,,,,,,,,,,,,,,,,,,,,,,,,,,,,,,,,,,,,,,,
,,,,,,,,,69134a97886665640fa49f30,Mexican,13 or older,"no, only English or Spanish",no,2026-01-21_16h09.07.923,empathy_intonation_perc_control,2024.2.4,MacIntel,57.47126437,69134a97886665640fa49f30,69712dc693a3960bdb483245,69714046a759f96a350729d3,,,,,,,,,,,,./stim/wavs/puertorican_mismatch_interrogative-total-yn_El-hombre-mira-la-luna.wav,1,,,91.3735,93.4739,1,1,1.5829,,0,18,18,39,1,40,1,puertorican,,,,,,,,,,,,,,,,,,,,,,,,,,,,,,,,,,,,,,,,,,,,,,,,,,,,,,,,
,,,,,,,,,69134a97886665640fa49f30,Mexican,13 or older,"no, only English or Spanish",no,2026-01-21_16h09.07.923,empathy_intonation_perc_control,2024.2.4,MacIntel,57.47126437,69134a97886665640fa49f30,69712dc693a3960bdb483245,69714046a759f96a350729d3,,,,,,,,,,,,./stim/wavs/castilian_mismatch_interrogative-total-yn_La-nina-lava-el-plato.wav,1,,,93.4744,95.6741,1,1,1.675,,0,19,19,25,1,26,0,castilian,,,,,,,,,,,,,,,,,,,,,,,,,,,,,,,,,,,,,,,,,,,,,,,,,,,,,,,,
,,,,,,,,,69134a97886665640fa49f30,Mexican,13 or older,"no, only English or Spanish",no,2026-01-21_16h09.07.923,empathy_intonation_perc_control,2024.2.4,MacIntel,57.47126437,69134a97886665640fa49f30,69712dc693a3960bdb483245,69714046a759f96a350729d3,,,,,,,,,,,,./stim/wavs/mexican_match_declarative-broad-focus_Marta-abre-el-regalo.wav,0,,,95.6744,98.0402,0,1,1.8393,,0,20,20,61,1,62,0,mexican,,,,,,,,,,,,,,,,,,,,,,,,,,,,,,,,,,,,,,,,,,,,,,,,,,,,,,,,
,,,,,,,,,69134a97886665640fa49f30,Mexican,13 or older,"no, only English or Spanish",no,2026-01-21_16h09.07.923,empathy_intonation_perc_control,2024.2.4,MacIntel,57.47126437,69134a97886665640fa49f30,69712dc693a3960bdb483245,69714046a759f96a350729d3,,,,,,,,,,,,./stim/wavs/mexican_match_interrogative-total-yn_Marta-abre-el-regalo.wav,1,,,98.0405,100.1994,0,0,1.6491,,0,21,21,17,1,18,0,mexican,,,,,,,,,,,,,,,,,,,,,,,,,,,,,,,,,,,,,,,,,,,,,,,,,,,,,,,,
,,,,,,,,,69134a97886665640fa49f30,Mexican,13 or older,"no, only English or Spanish",no,2026-01-21_16h09.07.923,empathy_intonation_perc_control,2024.2.4,MacIntel,57.47126437,69134a97886665640fa49f30,69712dc693a3960bdb483245,69714046a759f96a350729d3,,,,,,,,,,,,./stim/wavs/cuban_mismatch_declarative-broad-focus_Mi-novio-viene-del-lago.wav,0,,,100.1999,102.6561,0,1,1.935,,0,22,22,76,1,77,0,cuban,,,,,,,,,,,,,,,,,,,,,,,,,,,,,,,,,,,,,,,,,,,,,,,,,,,,,,,,
,,,,,,,,,69134a97886665640fa49f30,Mexican,13 or older,"no, only English or Spanish",no,2026-01-21_16h09.07.923,empathy_intonation_perc_control,2024.2.4,MacIntel,57.47126437,69134a97886665640fa49f30,69712dc693a3960bdb483245,69714046a759f96a350729d3,,,,,,,,,,,,./stim/wavs/castilian_match_interrogative-total-yn_Maria-bebe-el-vino.wav,1,,,102.6565,104.6736,1,1,1.4927,,0,23,23,3,1,4,0,castilian,,,,,,,,,,,,,,,,,,,,,,,,,,,,,,,,,,,,,,,,,,,,,,,,,,,,,,,,
,,,,,,,,,69134a97886665640fa49f30,Mexican,13 or older,"no, only English or Spanish",no,2026-01-21_16h09.07.923,empathy_intonation_perc_control,2024.2.4,MacIntel,57.47126437,69134a97886665640fa49f30,69712dc693a3960bdb483245,69714046a759f96a350729d3,,,,,,,,,,,,./stim/wavs/castilian_match_declarative-broad-focus_Maria-bebe-el-vino.wav,0,,,104.6741,107.2069,0,1,2.0088,,0,24,24,47,1,48,0,castilian,,,,,,,,,,,,,,,,,,,,,,,,,,,,,,,,,,,,,,,,,,,,,,,,,,,,,,,,
,,,,,,,,,69134a97886665640fa49f30,Mexican,13 or older,"no, only English or Spanish",no,2026-01-21_16h09.07.923,empathy_intonation_perc_control,2024.2.4,MacIntel,57.47126437,69134a97886665640fa49f30,69712dc693a3960bdb483245,69714046a759f96a350729d3,,,,,,,,,,,,./stim/wavs/castilian_match_declarative-broad-focus_Mariano-habla-del-tiempo.wav,0,,,107.2073,109.6393,0,1,1.903,,0,25,25,48,1,49,0,castilian,,,,,,,,,,,,,,,,,,,,,,,,,,,,,,,,,,,,,,,,,,,,,,,,,,,,,,,,
,,,,,,,,,69134a97886665640fa49f30,Mexican,13 or older,"no, only English or Spanish",no,2026-01-21_16h09.07.923,empathy_intonation_perc_control,2024.2.4,MacIntel,57.47126437,69134a97886665640fa49f30,69712dc693a3960bdb483245,69714046a759f96a350729d3,,,,,,,,,,,,./stim/wavs/mexican_mismatch_declarative-broad-focus_La-maestra-vive-en-Paris.wav,0,,,109.6397,111.8573,0,1,1.7046,,0,26,26,80,1,81,0,mexican,,,,,,,,,,,,,,,,,,,,,,,,,,,,,,,,,,,,,,,,,,,,,,,,,,,,,,,,
,,,,,,,,,69134a97886665640fa49f30,Mexican,13 or older,"no, only English or Spanish",no,2026-01-21_16h09.07.923,empathy_intonation_perc_control,2024.2.4,MacIntel,57.47126437,69134a97886665640fa49f30,69712dc693a3960bdb483245,69714046a759f96a350729d3,,,,,,,,,,,,./stim/wavs/mexican_match_declarative-broad-focus_Mariano-habla-del-tiempo.wav,0,,,111.8576,114.0243,0,1,1.6421,,0,27,27,60,1,61,0,mexican,,,,,,,,,,,,,,,,,,,,,,,,,,,,,,,,,,,,,,,,,,,,,,,,,,,,,,,,
,,,,,,,,,69134a97886665640fa49f30,Mexican,13 or older,"no, only English or Spanish",no,2026-01-21_16h09.07.923,empathy_intonation_perc_control,2024.2.4,MacIntel,57.47126437,69134a97886665640fa49f30,69712dc693a3960bdb483245,69714046a759f96a350729d3,,,,,,,,,,,,./stim/wavs/cuban_mismatch_declarative-broad-focus_El-hombre-mira-la-luna.wav,0,,,114.0247,116.1564,0,1,1.5907,,0,28,28,74,1,75,0,cuban,,,,,,,,,,,,,,,,,,,,,,,,,,,,,,,,,,,,,,,,,,,,,,,,,,,,,,,,
,,,,,,,,,69134a97886665640fa49f30,Mexican,13 or older,"no, only English or Spanish",no,2026-01-21_16h09.07.923,empathy_intonation_perc_control,2024.2.4,MacIntel,57.47126437,69134a97886665640fa49f30,69712dc693a3960bdb483245,69714046a759f96a350729d3,,,,,,,,,,,,./stim/wavs/mexican_mismatch_declarative-broad-focus_El-bebe-comia-muy-bien.wav,0,,,116.1571,119.5128,0,1,2.8328,,0,29,29,78,1,79,0,mexican,,,,,,,,,,,,,,,,,,,,,,,,,,,,,,,,,,,,,,,,,,,,,,,,,,,,,,,,
,,,,,,,,,69134a97886665640fa49f30,Mexican,13 or older,"no, only English or Spanish",no,2026-01-21_16h09.07.923,empathy_intonation_perc_control,2024.2.4,MacIntel,57.47126437,69134a97886665640fa49f30,69712dc693a3960bdb483245,69714046a759f96a350729d3,,,,,,,,,,,,./stim/wavs/mexican_mismatch_declarative-broad-focus_Mi-novio-viene-del-lago.wav,0,,,119.5132,121.7062,0,1,1.6744,,0,30,30,81,1,82,0,mexican,,,,,,,,,,,,,,,,,,,,,,,,,,,,,,,,,,,,,,,,,,,,,,,,,,,,,,,,
,,,,,,,,,69134a97886665640fa49f30,Mexican,13 or older,"no, only English or Spanish",no,2026-01-21_16h09.07.923,empathy_intonation_perc_control,2024.2.4,MacIntel,57.47126437,69134a97886665640fa49f30,69712dc693a3960bdb483245,69714046a759f96a350729d3,,,,,,,,,,,,./stim/wavs/puertorican_mismatch_declarative-broad-focus_El-hombre-mira-la-luna.wav,0,,,121.7066,123.7566,0,1,1.5359,,0,31,31,84,1,85,0,puertorican,,,,,,,,,,,,,,,,,,,,,,,,,,,,,,,,,,,,,,,,,,,,,,,,,,,,,,,,
,,,,,,,,,69134a97886665640fa49f30,Mexican,13 or older,"no, only English or Spanish",no,2026-01-21_16h09.07.923,empathy_intonation_perc_control,2024.2.4,MacIntel,57.47126437,69134a97886665640fa49f30,69712dc693a3960bdb483245,69714046a759f96a350729d3,,,,,,,,,,,,./stim/wavs/puertorican_mismatch_declarative-broad-focus_La-maestra-vive-en-Paris.wav,0,,,123.7571,125.9068,0,1,1.6235,,0,32,32,86,1,87,0,puertorican,,,,,,,,,,,,,,,,,,,,,,,,,,,,,,,,,,,,,,,,,,,,,,,,,,,,,,,,
,,,,,,,,,69134a97886665640fa49f30,Mexican,13 or older,"no, only English or Spanish",no,2026-01-21_16h09.07.923,empathy_intonation_perc_control,2024.2.4,MacIntel,57.47126437,69134a97886665640fa49f30,69712dc693a3960bdb483245,69714046a759f96a350729d3,,,,,,,,,,,,./stim/wavs/mexican_match_interrogative-total-yn_Ana-lleva-el-abrigo.wav,1,,,125.9071,128.0561,1,1,1.6011,,0,33,33,12,1,13,0,mexican,,,,,,,,,,,,,,,,,,,,,,,,,,,,,,,,,,,,,,,,,,,,,,,,,,,,,,,,
,,,,,,,,,69134a97886665640fa49f30,Mexican,13 or older,"no, only English or Spanish",no,2026-01-21_16h09.07.923,empathy_intonation_perc_control,2024.2.4,MacIntel,57.47126437,69134a97886665640fa49f30,69712dc693a3960bdb483245,69714046a759f96a350729d3,,,,,,,,,,,,./stim/wavs/cuban_mismatch_interrogative-total-yn_El-nino-oye-el-rio.wav,1,,,128.0565,130.5162,0,0,1.9364,,0,34,34,30,1,31,1,cuban,,,,,,,,,,,,,,,,,,,,,,,,,,,,,,,,,,,,,,,,,,,,,,,,,,,,,,,,
,,,,,,,,,69134a97886665640fa49f30,Mexican,13 or older,"no, only English or Spanish",no,2026-01-21_16h09.07.923,empathy_intonation_perc_control,2024.2.4,MacIntel,57.47126437,69134a97886665640fa49f30,69712dc693a3960bdb483245,69714046a759f96a350729d3,,,,,,,,,,,,./stim/wavs/cuban_mismatch_declarative-broad-focus_El-bebe-comia-muy-bien.wav,0,,,130.5166,132.9401,0,1,1.9065,,0,35,35,73,1,74,0,cuban,,,,,,,,,,,,,,,,,,,,,,,,,,,,,,,,,,,,,,,,,,,,,,,,,,,,,,,,
,,,,,,,,,69134a97886665640fa49f30,Mexican,13 or older,"no, only English or Spanish",no,2026-01-21_16h09.07.923,empathy_intonation_perc_control,2024.2.4,MacIntel,57.47126437,69134a97886665640fa49f30,69712dc693a3960bdb483245,69714046a759f96a350729d3,,,,,,,,,,,,./stim/wavs/cuban_match_declarative-broad-focus_Mariano-habla-del-tiempo.wav,0,,,132.9404,135.9234,0,1,2.4566,,0,36,36,54,1,55,0,cuban,,,,,,,,,,,,,,,,,,,,,,,,,,,,,,,,,,,,,,,,,,,,,,,,,,,,,,,,
,,,,,,,,,69134a97886665640fa49f30,Mexican,13 or older,"no, only English or Spanish",no,2026-01-21_16h09.07.923,empathy_intonation_perc_control,2024.2.4,MacIntel,57.47126437,69134a97886665640fa49f30,69712dc693a3960bdb483245,69714046a759f96a350729d3,,,,,,,,,,,,./stim/wavs/mexican_match_declarative-broad-focus_David-leia-el-libro.wav,0,,,135.9238,138.7223,0,1,2.2724,,0,37,37,58,1,59,0,mexican,,,,,,,,,,,,,,,,,,,,,,,,,,,,,,,,,,,,,,,,,,,,,,,,,,,,,,,,
,,,,,,,,,69134a97886665640fa49f30,Mexican,13 or older,"no, only English or Spanish",no,2026-01-21_16h09.07.923,empathy_intonation_perc_control,2024.2.4,MacIntel,57.47126437,69134a97886665640fa49f30,69712dc693a3960bdb483245,69714046a759f96a350729d3,,,,,,,,,,,,./stim/wavs/castilian_match_declarative-broad-focus_David-leia-el-libro.wav,0,,,138.7227,140.9974,0,1,1.7643,,0,38,38,44,1,45,0,castilian,,,,,,,,,,,,,,,,,,,,,,,,,,,,,,,,,,,,,,,,,,,,,,,,,,,,,,,,
,,,,,,,,,69134a97886665640fa49f30,Mexican,13 or older,"no, only English or Spanish",no,2026-01-21_16h09.07.923,empathy_intonation_perc_control,2024.2.4,MacIntel,57.47126437,69134a97886665640fa49f30,69712dc693a3960bdb483245,69714046a759f96a350729d3,,,,,,,,,,,,./stim/wavs/cuban_match_interrogative-total-yn_Marta-abre-el-regalo.wav,1,,,140.9977,143.0564,0,0,1.5369,,0,39,39,11,1,12,1,cuban,,,,,,,,,,,,,,,,,,,,,,,,,,,,,,,,,,,,,,,,,,,,,,,,,,,,,,,,
,,,,,,,,,69134a97886665640fa49f30,Mexican,13 or older,"no, only English or Spanish",no,2026-01-21_16h09.07.923,empathy_intonation_perc_control,2024.2.4,MacIntel,57.47126437,69134a97886665640fa49f30,69712dc693a3960bdb483245,69714046a759f96a350729d3,,,,,,,,,,,,./stim/wavs/puertorican_mismatch_interrogative-total-yn_La-nina-lava-el-plato.wav,1,,,143.0567,145.5902,0,0,2.0092,,0,40,40,42,1,43,1,puertorican,,,,,,,,,,,,,,,,,,,,,,,,,,,,,,,,,,,,,,,,,,,,,,,,,,,,,,,,
,,,,,,,,,69134a97886665640fa49f30,Mexican,13 or older,"no, only English or Spanish",no,2026-01-21_16h09.07.923,empathy_intonation_perc_control,2024.2.4,MacIntel,57.47126437,69134a97886665640fa49f30,69712dc693a3960bdb483245,69714046a759f96a350729d3,,,,,,,,,,,,./stim/wavs/puertorican_mismatch_declarative-broad-focus_El-nino-oye-el-rio.wav,0,,,145.5906,148.0872,0,1,1.9703,,0,41,41,85,1,86,0,puertorican,,,,,,,,,,,,,,,,,,,,,,,,,,,,,,,,,,,,,,,,,,,,,,,,,,,,,,,,
,,,,,,,,,69134a97886665640fa49f30,Mexican,13 or older,"no, only English or Spanish",no,2026-01-21_16h09.07.923,empathy_intonation_perc_control,2024.2.4,MacIntel,57.47126437,69134a97886665640fa49f30,69712dc693a3960bdb483245,69714046a759f96a350729d3,,,,,,,,,,,,./stim/wavs/puertorican_match_interrogative-total-yn_Emilio-ama-la-marcha.wav,1,,,148.0876,151.815,0,0,3.2185,,0,42,42,21,1,22,1,puertorican,,,,,,,,,,,,,,,,,,,,,,,,,,,,,,,,,,,,,,,,,,,,,,,,,,,,,,,,
,,,,,,,,,69134a97886665640fa49f30,Mexican,13 or older,"no, only English or Spanish",no,2026-01-21_16h09.07.923,empathy_intonation_perc_control,2024.2.4,MacIntel,57.47126437,69134a97886665640fa49f30,69712dc693a3960bdb483245,69714046a759f96a350729d3,,,,,,,,,,,,./stim/wavs/cuban_mismatch_interrogative-total-yn_Mi-novio-viene-del-lago.wav,1,,,151.8153,154.0558,0,0,1.7211,,0,43,43,32,1,33,1,cuban,,,,,,,,,,,,,,,,,,,,,,,,,,,,,,,,,,,,,,,,,,,,,,,,,,,,,,,,
,,,,,,,,,69134a97886665640fa49f30,Mexican,13 or older,"no, only English or Spanish",no,2026-01-21_16h09.07.923,empathy_intonation_perc_control,2024.2.4,MacIntel,57.47126437,69134a97886665640fa49f30,69712dc693a3960bdb483245,69714046a759f96a350729d3,,,,,,,,,,,,./stim/wavs/puertorican_match_declarative-broad-focus_David-leia-el-libro.wav,0,,,154.0561,156.533,0,1,1.9682,,0,44,44,64,1,65,0,puertorican,,,,,,,,,,,,,,,,,,,,,,,,,,,,,,,,,,,,,,,,,,,,,,,,,,,,,,,,
,,,,,,,,,69134a97886665640fa49f30,Mexican,13 or older,"no, only English or Spanish",no,2026-01-21_16h09.07.923,empathy_intonation_perc_control,2024.2.4,MacIntel,57.47126437,69134a97886665640fa49f30,69712dc693a3960bdb483245,69714046a759f96a350729d3,,,,,,,,,,,,./stim/wavs/cuban_match_interrogative-total-yn_Mariano-habla-del-tiempo.wav,1,,,156.5338,160.4557,0,0,3.4024,,0,45,45,10,1,11,1,cuban,,,,,,,,,,,,,,,,,,,,,,,,,,,,,,,,,,,,,,,,,,,,,,,,,,,,,,,,
,,,,,,,,,69134a97886665640fa49f30,Mexican,13 or older,"no, only English or Spanish",no,2026-01-21_16h09.07.923,empathy_intonation_perc_control,2024.2.4,MacIntel,57.47126437,69134a97886665640fa49f30,69712dc693a3960bdb483245,69714046a759f96a350729d3,,,,,,,,,,,,./stim/wavs/castilian_match_interrogative-total-yn_Emilio-ama-la-marcha.wav,1,,,160.4562,162.8734,1,1,1.8762,,0,46,46,1,1,2,0,castilian,,,,,,,,,,,,,,,,,,,,,,,,,,,,,,,,,,,,,,,,,,,,,,,,,,,,,,,,
,,,,,,,,,69134a97886665640fa49f30,Mexican,13 or older,"no, only English or Spanish",no,2026-01-21_16h09.07.923,empathy_intonation_perc_control,2024.2.4,MacIntel,57.47126437,69134a97886665640fa49f30,69712dc693a3960bdb483245,69714046a759f96a350729d3,,,,,,,,,,,,./stim/wavs/mexican_mismatch_declarative-broad-focus_Mi-tia-odia-la-lluvia.wav,0,,,162.8744,165.7557,0,1,2.3507,,0,47,47,82,1,83,0,mexican,,,,,,,,,,,,,,,,,,,,,,,,,,,,,,,,,,,,,,,,,,,,,,,,,,,,,,,,
,,,,,,,,,69134a97886665640fa49f30,Mexican,13 or older,"no, only English or Spanish",no,2026-01-21_16h09.07.923,empathy_intonation_perc_control,2024.2.4,MacIntel,57.47126437,69134a97886665640fa49f30,69712dc693a3960bdb483245,69714046a759f96a350729d3,,,,,,,,,,,,./stim/wavs/puertorican_match_declarative-broad-focus_Maria-bebe-el-vino.wav,0,,,165.7561,167.7895,0,1,1.5043,,0,48,48,67,1,68,0,puertorican,,,,,,,,,,,,,,,,,,,,,,,,,,,,,,,,,,,,,,,,,,,,,,,,,,,,,,,,
,,,,,,,,,69134a97886665640fa49f30,Mexican,13 or older,"no, only English or Spanish",no,2026-01-21_16h09.07.923,empathy_intonation_perc_control,2024.2.4,MacIntel,57.47126437,69134a97886665640fa49f30,69712dc693a3960bdb483245,69714046a759f96a350729d3,,,,,,,,,,,,./stim/wavs/mexican_match_interrogative-total-yn_Mariano-habla-del-tiempo.wav,1,,,167.7898,170.1741,1,1,1.8612,,0,49,49,16,1,17,0,mexican,,,,,,,,,,,,,,,,,,,,,,,,,,,,,,,,,,,,,,,,,,,,,,,,,,,,,,,,
,,,,,,,,,69134a97886665640fa49f30,Mexican,13 or older,"no, only English or Spanish",no,2026-01-21_16h09.07.923,empathy_intonation_perc_control,2024.2.4,MacIntel,57.47126437,69134a97886665640fa49f30,69712dc693a3960bdb483245,69714046a759f96a350729d3,,,,,,,,,,,,./stim/wavs/puertorican_match_interrogative-total-yn_Maria-bebe-el-vino.wav,1,,,170.1744,173.4062,1,1,2.7033,,0,50,50,23,1,24,1,puertorican,,,,,,,,,,,,,,,,,,,,,,,,,,,,,,,,,,,,,,,,,,,,,,,,,,,,,,,,
,,,,,,,,,69134a97886665640fa49f30,Mexican,13 or older,"no, only English or Spanish",no,2026-01-21_16h09.07.923,empathy_intonation_perc_control,2024.2.4,MacIntel,57.47126437,69134a97886665640fa49f30,69712dc693a3960bdb483245,69714046a759f96a350729d3,,,,,,,,,,,,./stim/wavs/puertorican_mismatch_interrogative-total-yn_El-nino-oye-el-rio.wav,1,,,173.4068,178.3061,1,1,4.3699,,0,51,51,40,1,41,1,puertorican,,,,,,,,,,,,,,,,,,,,,,,,,,,,,,,,,,,,,,,,,,,,,,,,,,,,,,,,
,,,,,,,,,69134a97886665640fa49f30,Mexican,13 or older,"no, only English or Spanish",no,2026-01-21_16h09.07.923,empathy_intonation_perc_control,2024.2.4,MacIntel,57.47126437,69134a97886665640fa49f30,69712dc693a3960bdb483245,69714046a759f96a350729d3,,,,,,,,,,,,./stim/wavs/castilian_match_interrogative-total-yn_Marta-abre-el-regalo.wav,1,,,178.3065,180.6083,1,1,1.7781,,0,52,52,5,1,6,0,castilian,,,,,,,,,,,,,,,,,,,,,,,,,,,,,,,,,,,,,,,,,,,,,,,,,,,,,,,,
,,,,,,,,,69134a97886665640fa49f30,Mexican,13 or older,"no, only English or Spanish",no,2026-01-21_16h09.07.923,empathy_intonation_perc_control,2024.2.4,MacIntel,57.47126437,69134a97886665640fa49f30,69712dc693a3960bdb483245,69714046a759f96a350729d3,,,,,,,,,,,,./stim/wavs/castilian_mismatch_declarative-broad-focus_El-nino-oye-el-rio.wav,0,,,180.6086,183.2224,0,1,2.085,,0,53,53,68,1,69,0,castilian,,,,,,,,,,,,,,,,,,,,,,,,,,,,,,,,,,,,,,,,,,,,,,,,,,,,,,,,
,,,,,,,,,69134a97886665640fa49f30,Mexican,13 or older,"no, only English or Spanish",no,2026-01-21_16h09.07.923,empathy_intonation_perc_control,2024.2.4,MacIntel,57.47126437,69134a97886665640fa49f30,69712dc693a3960bdb483245,69714046a759f96a350729d3,,,,,,,,,,,,./stim/wavs/puertorican_mismatch_interrogative-total-yn_La-maestra-vive-en-Paris.wav,1,,,183.2227,186.0382,0,0,2.2934,,0,54,54,41,1,42,1,puertorican,,,,,,,,,,,,,,,,,,,,,,,,,,,,,,,,,,,,,,,,,,,,,,,,,,,,,,,,
,,,,,,,,,69134a97886665640fa49f30,Mexican,13 or older,"no, only English or Spanish",no,2026-01-21_16h09.07.923,empathy_intonation_perc_control,2024.2.4,MacIntel,57.47126437,69134a97886665640fa49f30,69712dc693a3960bdb483245,69714046a759f96a350729d3,,,,,,,,,,,,./stim/wavs/cuban_match_declarative-broad-focus_Daniel-iba-a-Bolivia.wav,0,,,186.0386,188.3726,0,1,1.8206,,0,55,55,51,1,52,0,cuban,,,,,,,,,,,,,,,,,,,,,,,,,,,,,,,,,,,,,,,,,,,,,,,,,,,,,,,,
,,,,,,,,,69134a97886665640fa49f30,Mexican,13 or older,"no, only English or Spanish",no,2026-01-21_16h09.07.923,empathy_intonation_perc_control,2024.2.4,MacIntel,57.47126437,69134a97886665640fa49f30,69712dc693a3960bdb483245,69714046a759f96a350729d3,,,,,,,,,,,,./stim/wavs/puertorican_mismatch_declarative-broad-focus_La-nina-lava-el-plato.wav,0,,,188.373,190.305,0,1,1.4029,,0,56,56,87,1,88,0,puertorican,,,,,,,,,,,,,,,,,,,,,,,,,,,,,,,,,,,,,,,,,,,,,,,,,,,,,,,,
,,,,,,,,,69134a97886665640fa49f30,Mexican,13 or older,"no, only English or Spanish",no,2026-01-21_16h09.07.923,empathy_intonation_perc_control,2024.2.4,MacIntel,57.47126437,69134a97886665640fa49f30,69712dc693a3960bdb483245,69714046a759f96a350729d3,,,,,,,,,,,,./stim/wavs/castilian_mismatch_interrogative-total-yn_La-maestra-vive-en-Paris.wav,1,,,190.3054,192.7392,1,1,1.9185,,0,57,57,24,1,25,0,castilian,,,,,,,,,,,,,,,,,,,,,,,,,,,,,,,,,,,,,,,,,,,,,,,,,,,,,,,,
,,,,,,,,,69134a97886665640fa49f30,Mexican,13 or older,"no, only English or Spanish",no,2026-01-21_16h09.07.923,empathy_intonation_perc_control,2024.2.4,MacIntel,57.47126437,69134a97886665640fa49f30,69712dc693a3960bdb483245,69714046a759f96a350729d3,,,,,,,,,,,,./stim/wavs/puertorican_match_declarative-broad-focus_Emilio-ama-la-marcha.wav,0,,,192.7396,195.5469,0,1,2.2817,,0,58,58,65,1,66,0,puertorican,,,,,,,,,,,,,,,,,,,,,,,,,,,,,,,,,,,,,,,,,,,,,,,,,,,,,,,,
,,,,,,,,,69134a97886665640fa49f30,Mexican,13 or older,"no, only English or Spanish",no,2026-01-21_16h09.07.923,empathy_intonation_perc_control,2024.2.4,MacIntel,57.47126437,69134a97886665640fa49f30,69712dc693a3960bdb483245,69714046a759f96a350729d3,,,,,,,,,,,,./stim/wavs/mexican_match_declarative-broad-focus_Ana-lleva-el-abrigo.wav,0,,,195.5472,198.1559,0,1,2.0739,,0,59,59,56,1,57,0,mexican,,,,,,,,,,,,,,,,,,,,,,,,,,,,,,,,,,,,,,,,,,,,,,,,,,,,,,,,
,,,,,,,,,69134a97886665640fa49f30,Mexican,13 or older,"no, only English or Spanish",no,2026-01-21_16h09.07.923,empathy_intonation_perc_control,2024.2.4,MacIntel,57.47126437,69134a97886665640fa49f30,69712dc693a3960bdb483245,69714046a759f96a350729d3,,,,,,,,,,,,./stim/wavs/cuban_mismatch_interrogative-total-yn_Mi-madre-come-la-fruta.wav,1,,,198.1565,200.529,0,0,1.847,,0,60,60,31,1,32,1,cuban,,,,,,,,,,,,,,,,,,,,,,,,,,,,,,,,,,,,,,,,,,,,,,,,,,,,,,,,
,,,,,,,,,69134a97886665640fa49f30,Mexican,13 or older,"no, only English or Spanish",no,2026-01-21_16h09.07.923,empathy_intonation_perc_control,2024.2.4,MacIntel,57.47126437,69134a97886665640fa49f30,69712dc693a3960bdb483245,69714046a759f96a350729d3,,,,,,,,,,,,./stim/wavs/cuban_match_interrogative-total-yn_Daniel-iba-a-Bolivia.wav,1,,,200.5294,202.6216,0,0,1.5668,,0,61,61,7,1,8,1,cuban,,,,,,,,,,,,,,,,,,,,,,,,,,,,,,,,,,,,,,,,,,,,,,,,,,,,,,,,
,,,,,,,,,69134a97886665640fa49f30,Mexican,13 or older,"no, only English or Spanish",no,2026-01-21_16h09.07.923,empathy_intonation_perc_control,2024.2.4,MacIntel,57.47126437,69134a97886665640fa49f30,69712dc693a3960bdb483245,69714046a759f96a350729d3,,,,,,,,,,,,./stim/wavs/puertorican_match_declarative-broad-focus_Ana-lleva-el-abrigo.wav,0,,,202.6222,204.739,0,1,1.5972,,0,62,62,62,1,63,0,puertorican,,,,,,,,,,,,,,,,,,,,,,,,,,,,,,,,,,,,,,,,,,,,,,,,,,,,,,,,
,,,,,,,,,69134a97886665640fa49f30,Mexican,13 or older,"no, only English or Spanish",no,2026-01-21_16h09.07.923,empathy_intonation_perc_control,2024.2.4,MacIntel,57.47126437,69134a97886665640fa49f30,69712dc693a3960bdb483245,69714046a759f96a350729d3,,,,,,,,,,,,./stim/wavs/cuban_match_interrogative-total-yn_Manuela-vende-el-carro.wav,1,,,204.7392,207.2886,0,0,2.0343,,0,63,63,8,1,9,1,cuban,,,,,,,,,,,,,,,,,,,,,,,,,,,,,,,,,,,,,,,,,,,,,,,,,,,,,,,,
,,,,,,,,,69134a97886665640fa49f30,Mexican,13 or older,"no, only English or Spanish",no,2026-01-21_16h09.07.923,empathy_intonation_perc_control,2024.2.4,MacIntel,57.47126437,69134a97886665640fa49f30,69712dc693a3960bdb483245,69714046a759f96a350729d3,,,,,,,,,,,,./stim/wavs/mexican_mismatch_interrogative-total-yn_El-hombre-mira-la-luna.wav,1,,,207.289,209.2892,1,1,1.4706,,0,64,64,34,1,35,0,mexican,,,,,,,,,,,,,,,,,,,,,,,,,,,,,,,,,,,,,,,,,,,,,,,,,,,,,,,,
,,,,,,,,,69134a97886665640fa49f30,Mexican,13 or older,"no, only English or Spanish",no,2026-01-21_16h09.07.923,empathy_intonation_perc_control,2024.2.4,MacIntel,57.47126437,69134a97886665640fa49f30,69712dc693a3960bdb483245,69714046a759f96a350729d3,,,,,,,,,,,,./stim/wavs/castilian_match_declarative-broad-focus_Manuela-vende-el-carro.wav,0,,,209.2896,211.5846,0,1,1.7671,,0,65,65,46,1,47,0,castilian,,,,,,,,,,,,,,,,,,,,,,,,,,,,,,,,,,,,,,,,,,,,,,,,,,,,,,,,
,,,,,,,,,69134a97886665640fa49f30,Mexican,13 or older,"no, only English or Spanish",no,2026-01-21_16h09.07.923,empathy_intonation_perc_control,2024.2.4,MacIntel,57.47126437,69134a97886665640fa49f30,69712dc693a3960bdb483245,69714046a759f96a350729d3,,,,,,,,,,,,./stim/wavs/cuban_match_declarative-broad-focus_Maria-bebe-el-vino.wav,0,,,211.5852,213.8049,0,1,1.709,,0,66,66,53,1,54,0,cuban,,,,,,,,,,,,,,,,,,,,,,,,,,,,,,,,,,,,,,,,,,,,,,,,,,,,,,,,
,,,,,,,,,69134a97886665640fa49f30,Mexican,13 or older,"no, only English or Spanish",no,2026-01-21_16h09.07.923,empathy_intonation_perc_control,2024.2.4,MacIntel,57.47126437,69134a97886665640fa49f30,69712dc693a3960bdb483245,69714046a759f96a350729d3,,,,,,,,,,,,./stim/wavs/castilian_mismatch_interrogative-total-yn_Mi-novio-viene-del-lago.wav,1,,,213.8053,216.1225,1,1,1.7841,,0,67,67,27,1,28,0,castilian,,,,,,,,,,,,,,,,,,,,,,,,,,,,,,,,,,,,,,,,,,,,,,,,,,,,,,,,
,,,,,,,,,69134a97886665640fa49f30,Mexican,13 or older,"no, only English or Spanish",no,2026-01-21_16h09.07.923,empathy_intonation_perc_control,2024.2.4,MacIntel,57.47126437,69134a97886665640fa49f30,69712dc693a3960bdb483245,69714046a759f96a350729d3,,,,,,,,,,,,./stim/wavs/cuban_mismatch_interrogative-total-yn_El-hombre-mira-la-luna.wav,1,,,216.123,220.8723,1,1,4.2201,,0,68,68,29,1,30,1,cuban,,,,,,,,,,,,,,,,,,,,,,,,,,,,,,,,,,,,,,,,,,,,,,,,,,,,,,,,
,,,,,,,,,69134a97886665640fa49f30,Mexican,13 or older,"no, only English or Spanish",no,2026-01-21_16h09.07.923,empathy_intonation_perc_control,2024.2.4,MacIntel,57.47126437,69134a97886665640fa49f30,69712dc693a3960bdb483245,69714046a759f96a350729d3,,,,,,,,,,,,./stim/wavs/cuban_match_interrogative-total-yn_Maria-bebe-el-vino.wav,1,,,220.8727,223.0897,0,0,1.6955,,0,69,69,9,1,10,1,cuban,,,,,,,,,,,,,,,,,,,,,,,,,,,,,,,,,,,,,,,,,,,,,,,,,,,,,,,,
,,,,,,,,,69134a97886665640fa49f30,Mexican,13 or older,"no, only English or Spanish",no,2026-01-21_16h09.07.923,empathy_intonation_perc_control,2024.2.4,MacIntel,57.47126437,69134a97886665640fa49f30,69712dc693a3960bdb483245,69714046a759f96a350729d3,,,,,,,,,,,,./stim/wavs/castilian_match_interrogative-total-yn_Mariano-habla-del-tiempo.wav,1,,,223.09,225.2436,1,1,1.6274,,0,70,70,4,1,5,0,castilian,,,,,,,,,,,,,,,,,,,,,,,,,,,,,,,,,,,,,,,,,,,,,,,,,,,,,,,,
,,,,,,,,,69134a97886665640fa49f30,Mexican,13 or older,"no, only English or Spanish",no,2026-01-21_16h09.07.923,empathy_intonation_perc_control,2024.2.4,MacIntel,57.47126437,69134a97886665640fa49f30,69712dc693a3960bdb483245,69714046a759f96a350729d3,,,,,,,,,,,,./stim/wavs/mexican_mismatch_declarative-broad-focus_El-hombre-mira-la-luna.wav,0,,,225.2439,227.255,0,1,1.4894,,0,71,71,79,1,80,0,mexican,,,,,,,,,,,,,,,,,,,,,,,,,,,,,,,,,,,,,,,,,,,,,,,,,,,,,,,,
,,,,,,,,,69134a97886665640fa49f30,Mexican,13 or older,"no, only English or Spanish",no,2026-01-21_16h09.07.923,empathy_intonation_perc_control,2024.2.4,MacIntel,57.47126437,69134a97886665640fa49f30,69712dc693a3960bdb483245,69714046a759f96a350729d3,,,,,,,,,,,,./stim/wavs/mexican_match_declarative-broad-focus_Daniel-iba-a-Bolivia.wav,0,,,227.2554,229.4221,0,1,1.6407,,0,72,72,57,1,58,0,mexican,,,,,,,,,,,,,,,,,,,,,,,,,,,,,,,,,,,,,,,,,,,,,,,,,,,,,,,,
,,,,,,,,,69134a97886665640fa49f30,Mexican,13 or older,"no, only English or Spanish",no,2026-01-21_16h09.07.923,empathy_intonation_perc_control,2024.2.4,MacIntel,57.47126437,69134a97886665640fa49f30,69712dc693a3960bdb483245,69714046a759f96a350729d3,,,,,,,,,,,,./stim/wavs/castilian_match_interrogative-total-yn_Manuela-vende-el-carro.wav,1,,,229.4226,232.1051,1,1,2.1554,,0,73,73,2,1,3,0,castilian,,,,,,,,,,,,,,,,,,,,,,,,,,,,,,,,,,,,,,,,,,,,,,,,,,,,,,,,
,,,,,,,,,69134a97886665640fa49f30,Mexican,13 or older,"no, only English or Spanish",no,2026-01-21_16h09.07.923,empathy_intonation_perc_control,2024.2.4,MacIntel,57.47126437,69134a97886665640fa49f30,69712dc693a3960bdb483245,69714046a759f96a350729d3,,,,,,,,,,,,./stim/wavs/mexican_mismatch_interrogative-total-yn_Mi-tia-odia-la-lluvia.wav,1,,,232.1056,234.3711,1,1,1.7359,,0,74,74,38,1,39,0,mexican,,,,,,,,,,,,,,,,,,,,,,,,,,,,,,,,,,,,,,,,,,,,,,,,,,,,,,,,
,,,,,,,,,69134a97886665640fa49f30,Mexican,13 or older,"no, only English or Spanish",no,2026-01-21_16h09.07.923,empathy_intonation_perc_control,2024.2.4,MacIntel,57.47126437,69134a97886665640fa49f30,69712dc693a3960bdb483245,69714046a759f96a350729d3,,,,,,,,,,,,./stim/wavs/castilian_match_interrogative-total-yn_David-leia-el-libro.wav,1,,,234.3716,236.5882,1,1,1.7009,,0,75,75,0,1,1,0,castilian,,,,,,,,,,,,,,,,,,,,,,,,,,,,,,,,,,,,,,,,,,,,,,,,,,,,,,,,
,,,,,,,,,69134a97886665640fa49f30,Mexican,13 or older,"no, only English or Spanish",no,2026-01-21_16h09.07.923,empathy_intonation_perc_control,2024.2.4,MacIntel,57.47126437,69134a97886665640fa49f30,69712dc693a3960bdb483245,69714046a759f96a350729d3,,,,,,,,,,,,./stim/wavs/puertorican_match_interrogative-total-yn_Ana-lleva-el-abrigo.wav,1,,,236.5887,238.8854,0,0,1.7733,,0,76,76,18,1,19,1,puertorican,,,,,,,,,,,,,,,,,,,,,,,,,,,,,,,,,,,,,,,,,,,,,,,,,,,,,,,,
,,,,,,,,,69134a97886665640fa49f30,Mexican,13 or older,"no, only English or Spanish",no,2026-01-21_16h09.07.923,empathy_intonation_perc_control,2024.2.4,MacIntel,57.47126437,69134a97886665640fa49f30,69712dc693a3960bdb483245,69714046a759f96a350729d3,,,,,,,,,,,,./stim/wavs/puertorican_mismatch_interrogative-total-yn_Mi-madre-come-la-fruta.wav,1,,,238.8858,241.5287,0,0,2.1222,,0,77,77,43,1,44,1,puertorican,,,,,,,,,,,,,,,,,,,,,,,,,,,,,,,,,,,,,,,,,,,,,,,,,,,,,,,,
,,,,,,,,,69134a97886665640fa49f30,Mexican,13 or older,"no, only English or Spanish",no,2026-01-21_16h09.07.923,empathy_intonation_perc_control,2024.2.4,MacIntel,57.47126437,69134a97886665640fa49f30,69712dc693a3960bdb483245,69714046a759f96a350729d3,,,,,,,,,,,,./stim/wavs/cuban_match_interrogative-total-yn_Ana-lleva-el-abrigo.wav,1,,,241.5292,243.6879,0,0,1.6383,,0,78,78,6,1,7,1,cuban,,,,,,,,,,,,,,,,,,,,,,,,,,,,,,,,,,,,,,,,,,,,,,,,,,,,,,,,
,,,,,,,,,69134a97886665640fa49f30,Mexican,13 or older,"no, only English or Spanish",no,2026-01-21_16h09.07.923,empathy_intonation_perc_control,2024.2.4,MacIntel,57.47126437,69134a97886665640fa49f30,69712dc693a3960bdb483245,69714046a759f96a350729d3,,,,,,,,,,,,./stim/wavs/castilian_mismatch_declarative-broad-focus_Mi-novio-viene-del-lago.wav,0,,,243.6883,247.5045,0,1,3.2865,,0,79,79,71,1,72,0,castilian,,,,,,,,,,,,,,,,,,,,,,,,,,,,,,,,,,,,,,,,,,,,,,,,,,,,,,,,
,,,,,,,,,69134a97886665640fa49f30,Mexican,13 or older,"no, only English or Spanish",no,2026-01-21_16h09.07.923,empathy_intonation_perc_control,2024.2.4,MacIntel,57.47126437,69134a97886665640fa49f30,69712dc693a3960bdb483245,69714046a759f96a350729d3,,,,,,,,,,,,./stim/wavs/mexican_match_interrogative-total-yn_Daniel-iba-a-Bolivia.wav,1,,,247.5055,250.4884,1,1,2.4588,,0,80,80,13,1,14,0,mexican,,,,,,,,,,,,,,,,,,,,,,,,,,,,,,,,,,,,,,,,,,,,,,,,,,,,,,,,
,,,,,,,,,69134a97886665640fa49f30,Mexican,13 or older,"no, only English or Spanish",no,2026-01-21_16h09.07.923,empathy_intonation_perc_control,2024.2.4,MacIntel,57.47126437,69134a97886665640fa49f30,69712dc693a3960bdb483245,69714046a759f96a350729d3,,,,,,,,,,,,./stim/wavs/castilian_mismatch_declarative-broad-focus_Mi-tia-odia-la-lluvia.wav,0,,,250.4889,253.3219,0,1,2.3064,,0,81,81,72,1,73,0,castilian,,,,,,,,,,,,,,,,,,,,,,,,,,,,,,,,,,,,,,,,,,,,,,,,,,,,,,,,
,,,,,,,,,69134a97886665640fa49f30,Mexican,13 or older,"no, only English or Spanish",no,2026-01-21_16h09.07.923,empathy_intonation_perc_control,2024.2.4,MacIntel,57.47126437,69134a97886665640fa49f30,69712dc693a3960bdb483245,69714046a759f96a350729d3,,,,,,,,,,,,./stim/wavs/cuban_match_declarative-broad-focus_Manuela-vende-el-carro.wav,0,,,253.3223,255.9622,0,1,2.1157,,0,82,82,52,1,53,0,cuban,,,,,,,,,,,,,,,,,,,,,,,,,,,,,,,,,,,,,,,,,,,,,,,,,,,,,,,,
,,,,,,,,,69134a97886665640fa49f30,Mexican,13 or older,"no, only English or Spanish",no,2026-01-21_16h09.07.923,empathy_intonation_perc_control,2024.2.4,MacIntel,57.47126437,69134a97886665640fa49f30,69712dc693a3960bdb483245,69714046a759f96a350729d3,,,,,,,,,,,,./stim/wavs/mexican_mismatch_interrogative-total-yn_Mi-novio-viene-del-lago.wav,1,,,255.9627,257.9388,1,1,1.4603,,0,83,83,37,1,38,0,mexican,,,,,,,,,,,,,,,,,,,,,,,,,,,,,,,,,,,,,,,,,,,,,,,,,,,,,,,,
,,,,,,,,,69134a97886665640fa49f30,Mexican,13 or older,"no, only English or Spanish",no,2026-01-21_16h09.07.923,empathy_intonation_perc_control,2024.2.4,MacIntel,57.47126437,69134a97886665640fa49f30,69712dc693a3960bdb483245,69714046a759f96a350729d3,,,,,,,,,,,,./stim/wavs/castilian_mismatch_interrogative-total-yn_Mi-madre-come-la-fruta.wav,1,,,257.9394,260.204,1,1,1.7371,,0,84,84,26,1,27,0,castilian,,,,,,,,,,,,,,,,,,,,,,,,,,,,,,,,,,,,,,,,,,,,,,,,,,,,,,,,
,,,,,,,,,69134a97886665640fa49f30,Mexican,13 or older,"no, only English or Spanish",no,2026-01-21_16h09.07.923,empathy_intonation_perc_control,2024.2.4,MacIntel,57.47126437,69134a97886665640fa49f30,69712dc693a3960bdb483245,69714046a759f96a350729d3,,,,,,,,,,,,./stim/wavs/cuban_match_declarative-broad-focus_Ana-lleva-el-abrigo.wav,0,,,260.2045,262.8713,0,1,2.1524,,0,85,85,50,1,51,0,cuban,,,,,,,,,,,,,,,,,,,,,,,,,,,,,,,,,,,,,,,,,,,,,,,,,,,,,,,,
,,,,,,,,,69134a97886665640fa49f30,Mexican,13 or older,"no, only English or Spanish",no,2026-01-21_16h09.07.923,empathy_intonation_perc_control,2024.2.4,MacIntel,57.47126437,69134a97886665640fa49f30,69712dc693a3960bdb483245,69714046a759f96a350729d3,,,,,,,,,,,,./stim/wavs/cuban_mismatch_interrogative-total-yn_Mi-tia-odia-la-lluvia.wav,1,,,262.8716,265.6552,0,0,2.2592,,0,86,86,33,1,34,1,cuban,,,,,,,,,,,,,,,,,,,,,,,,,,,,,,,,,,,,,,,,,,,,,,,,,,,,,,,,
,,,,,,,,,69134a97886665640fa49f30,Mexican,13 or older,"no, only English or Spanish",no,2026-01-21_16h09.07.923,empathy_intonation_perc_control,2024.2.4,MacIntel,57.47126437,69134a97886665640fa49f30,69712dc693a3960bdb483245,69714046a759f96a350729d3,,,,,,,,,,,,./stim/wavs/mexican_match_declarative-broad-focus_Emilio-ama-la-marcha.wav,0,,,265.6555,269.0541,0,1,2.8639,,0,87,87,59,1,60,0,mexican,,,,,,,,,,,,,,,,,,,,,,,,,,,,,,,,,,,,,,,,,,,,,,,,,,,,,,,,
,,,,,,,"Great! Now we will move on. The next task consists of about 60 trials, in each of which you will see a string of letters. 
  
  Your task is to decide whether this is a real Spanish word or not.", (press the spacebar to continue),69134a97886665640fa49f30,Mexican,13 or older,"no, only English or Spanish",no,2026-01-21_16h09.07.923,empathy_intonation_perc_control,2024.2.4,MacIntel,57.47126437,69134a97886665640fa49f30,69712dc693a3960bdb483245,69714046a759f96a350729d3,,,,,,,,,,,,,,,,,,,,,,,,,,,,,,269.0625,276.8717,0,0,0,0,1,,,,,,,,,,,,,,,,,,,,,,,,,,,,,,,,,,,,,,,,,,,,,,,,,
,,,,,,,"If you think it is an existing Spanish word, you type '1' (for 'REAL'), and if you think it is not an existing Spanish word, you type '0' (for 'FAKE').", (press the spacebar to continue),69134a97886665640fa49f30,Mexican,13 or older,"no, only English or Spanish",no,2026-01-21_16h09.07.923,empathy_intonation_perc_control,2024.2.4,MacIntel,57.47126437,69134a97886665640fa49f30,69712dc693a3960bdb483245,69714046a759f96a350729d3,,,,,,,,,,,,,,,,,,,,,,,,,,,,,,276.8732,279.8301,0,1,1,1,1,,,,,,,,,,,,,,,,,,,,,,,,,,,,,,,,,,,,,,,,,,,,,,,,,
,,,,,,,"If you are sure that the word exists, even though you don’t know its exact meaning, you may still respond '1' (REAL). 
  
  But if you are not sure if it is an existing word, you should respond '0' (FAKE).
  
  Let's do a practice round...", (press the spacebar to continue),69134a97886665640fa49f30,Mexican,13 or older,"no, only English or Spanish",no,2026-01-21_16h09.07.923,empathy_intonation_perc_control,2024.2.4,MacIntel,57.47126437,69134a97886665640fa49f30,69712dc693a3960bdb483245,69714046a759f96a350729d3,,,,,,,,,,,,,,,,,,,,,,,,,,,,,,279.8319,283.7775,0,2,2,2,1,,,,,,,,,,,,,,,,,,,,,,,,,,,,,,,,,,,,,,,,,,,,,,,,,
,,,,,,,,,69134a97886665640fa49f30,Mexican,13 or older,"no, only English or Spanish",no,2026-01-21_16h09.07.923,empathy_intonation_perc_control,2024.2.4,MacIntel,57.47126437,69134a97886665640fa49f30,69712dc693a3960bdb483245,69714046a759f96a350729d3,,,,,,,,,,,,,0,,,,,,,,,,,,,,,,,,,,,,,,283.7843,287.8894,0,1,3.5775,,287.8895,288.8885,0,0,0,0,1,0,depiste,REAL,FAKE,,,,,,,,,,,,,,,,,,,,,,,,,,,,,,,,
,,,,,,,,,69134a97886665640fa49f30,Mexican,13 or older,"no, only English or Spanish",no,2026-01-21_16h09.07.923,empathy_intonation_perc_control,2024.2.4,MacIntel,57.47126437,69134a97886665640fa49f30,69712dc693a3960bdb483245,69714046a759f96a350729d3,,,,,,,,,,,,,1,,,,,,,,,,,,,,,,,,,,,,,,288.8903,290.3622,1,1,0.9375,,290.3622,291.3549,0,1,1,1,1,0,sí,REAL,FAKE,,,,,,,,,,,,,,,,,,,,,,,,,,,,,,,,
,,,,,,,,,69134a97886665640fa49f30,Mexican,13 or older,"no, only English or Spanish",no,2026-01-21_16h09.07.923,empathy_intonation_perc_control,2024.2.4,MacIntel,57.47126437,69134a97886665640fa49f30,69712dc693a3960bdb483245,69714046a759f96a350729d3,,,,,,,,,,,,,0,,,,,,,,,,,,,,,,,,,,,,,,291.3561,293.3425,0,1,1.4453,,293.3425,294.3441,0,2,2,2,1,0,coné,REAL,FAKE,,,,,,,,,,,,,,,,,,,,,,,,,,,,,,,,
,,,,,,,,,69134a97886665640fa49f30,Mexican,13 or older,"no, only English or Spanish",no,2026-01-21_16h09.07.923,empathy_intonation_perc_control,2024.2.4,MacIntel,57.47126437,69134a97886665640fa49f30,69712dc693a3960bdb483245,69714046a759f96a350729d3,,,,,,,,,,,,,0,,,,,,,,,,,,,,,,,,,,,,,,294.3451,295.7109,1,0,0.8518,,295.7114,296.7045,0,3,3,3,1,0,calpar,REAL,FAKE,,,,,,,,,,,,,,,,,,,,,,,,,,,,,,,,
,,,,,,,,,69134a97886665640fa49f30,Mexican,13 or older,"no, only English or Spanish",no,2026-01-21_16h09.07.923,empathy_intonation_perc_control,2024.2.4,MacIntel,57.47126437,69134a97886665640fa49f30,69712dc693a3960bdb483245,69714046a759f96a350729d3,,,,,,,,,,,,,0,,,,,,,,,,,,,,,,,,,,,,,,296.7054,298.3368,0,1,1.0874,,298.3372,299.3373,0,4,4,4,1,0,joten,REAL,FAKE,,,,,,,,,,,,,,,,,,,,,,,,,,,,,,,,
,,,,,,,,,69134a97886665640fa49f30,Mexican,13 or older,"no, only English or Spanish",no,2026-01-21_16h09.07.923,empathy_intonation_perc_control,2024.2.4,MacIntel,57.47126437,69134a97886665640fa49f30,69712dc693a3960bdb483245,69714046a759f96a350729d3,,,,,,,,,,,,,1,,,,,,,,,,,,,,,,,,,,,,,,299.3383,300.7212,1,1,0.8535,,300.7213,301.7204,0,5,5,5,1,0,sacapuntas,REAL,FAKE,,,,,,,,,,,,,,,,,,,,,,,,,,,,,,,,
,,,,,,,,,69134a97886665640fa49f30,Mexican,13 or older,"no, only English or Spanish",no,2026-01-21_16h09.07.923,empathy_intonation_perc_control,2024.2.4,MacIntel,57.47126437,69134a97886665640fa49f30,69712dc693a3960bdb483245,69714046a759f96a350729d3,,,,,,,,,,,,,0,,,,,,,,,,,,,,,,,,,,,,,,301.7215,302.9703,1,0,0.7213,,302.9709,303.9616,0,6,6,6,1,0,priba,REAL,FAKE,,,,,,,,,,,,,,,,,,,,,,,,,,,,,,,,
,,,,,,,,,69134a97886665640fa49f30,Mexican,13 or older,"no, only English or Spanish",no,2026-01-21_16h09.07.923,empathy_intonation_perc_control,2024.2.4,MacIntel,57.47126437,69134a97886665640fa49f30,69712dc693a3960bdb483245,69714046a759f96a350729d3,,,,,,,,,,,,,0,,,,,,,,,,,,,,,,,,,,,,,,303.9627,305.6712,1,0,1.1726,,305.6713,306.6708,0,7,7,7,1,0,pelasula,REAL,FAKE,,,,,,,,,,,,,,,,,,,,,,,,,,,,,,,,
,,,,,,,,,69134a97886665640fa49f30,Mexican,13 or older,"no, only English or Spanish",no,2026-01-21_16h09.07.923,empathy_intonation_perc_control,2024.2.4,MacIntel,57.47126437,69134a97886665640fa49f30,69712dc693a3960bdb483245,69714046a759f96a350729d3,,,,,,,,,,,,,1,,,,,,,,,,,,,,,,,,,,,,,,306.6721,307.9713,1,1,0.7742,,307.9718,308.9708,0,8,8,8,1,0,bien,REAL,FAKE,,,,,,,,,,,,,,,,,,,,,,,,,,,,,,,,
,,,,,,,,,69134a97886665640fa49f30,Mexican,13 or older,"no, only English or Spanish",no,2026-01-21_16h09.07.923,empathy_intonation_perc_control,2024.2.4,MacIntel,57.47126437,69134a97886665640fa49f30,69712dc693a3960bdb483245,69714046a759f96a350729d3,,,,,,,,,,,,,1,,,,,,,,,,,,,,,,,,,,,,,,308.9719,310.1045,1,1,0.5891,,310.1045,311.1045,0,9,9,9,1,0,casa,REAL,FAKE,,,,,,,,,,,,,,,,,,,,,,,,,,,,,,,,
,,,,,,,,,69134a97886665640fa49f30,Mexican,13 or older,"no, only English or Spanish",no,2026-01-21_16h09.07.923,empathy_intonation_perc_control,2024.2.4,MacIntel,57.47126437,69134a97886665640fa49f30,69712dc693a3960bdb483245,69714046a759f96a350729d3,,,,,,,,,,,,,0,,,,,,,,,,,,,,,,,,,,,,,,311.1056,312.3711,1,0,0.7237,,312.3715,313.3711,0,10,10,10,1,0,lejo,REAL,FAKE,,,,,,,,,,,,,,,,,,,,,,,,,,,,,,,,
,,,,,,,,,69134a97886665640fa49f30,Mexican,13 or older,"no, only English or Spanish",no,2026-01-21_16h09.07.923,empathy_intonation_perc_control,2024.2.4,MacIntel,57.47126437,69134a97886665640fa49f30,69712dc693a3960bdb483245,69714046a759f96a350729d3,,,,,,,,,,,,,0,,,,,,,,,,,,,,,,,,,,,,,,313.3721,314.5534,1,0,0.6453,,314.5534,315.5537,0,11,11,11,1,0,pretantas,REAL,FAKE,,,,,,,,,,,,,,,,,,,,,,,,,,,,,,,,
,,,,,,,,,69134a97886665640fa49f30,Mexican,13 or older,"no, only English or Spanish",no,2026-01-21_16h09.07.923,empathy_intonation_perc_control,2024.2.4,MacIntel,57.47126437,69134a97886665640fa49f30,69712dc693a3960bdb483245,69714046a759f96a350729d3,,,,,,,,,,,,,,,,,,,,,,,,,,,,,,,,,,,,,,,,,,,,,,,,,,,,,,315.5539,316.3702,,,,,,,,,,,,,,,,,,,,,,,,,,,,,,
,,,,,,,,,69134a97886665640fa49f30,Mexican,13 or older,"no, only English or Spanish",no,2026-01-21_16h09.07.923,empathy_intonation_perc_control,2024.2.4,MacIntel,57.47126437,69134a97886665640fa49f30,69712dc693a3960bdb483245,69714046a759f96a350729d3,,,,,,,,,,,,,1,,,,,,,,,,,,,,,,,,,,,,,,,,,,,,,,,,,,,73,hervidor,,,,,316.3841,318.1383,0,0,1.2267,,0,0,0,72,1,REAL,FAKE,,,,,,,,,,,,,,,,,
,,,,,,,,,69134a97886665640fa49f30,Mexican,13 or older,"no, only English or Spanish",no,2026-01-21_16h09.07.923,empathy_intonation_perc_control,2024.2.4,MacIntel,57.47126437,69134a97886665640fa49f30,69712dc693a3960bdb483245,69714046a759f96a350729d3,,,,,,,,,,,,,1,,,,,,,,,,,,,,,,,,,,,,,,,,,,,,,,,,,,,24,látigo,,,,,318.1392,320.205,1,1,1.5272,,0,1,1,23,1,REAL,FAKE,,,,,,,,,,,,,,,,,
,,,,,,,,,69134a97886665640fa49f30,Mexican,13 or older,"no, only English or Spanish",no,2026-01-21_16h09.07.923,empathy_intonation_perc_control,2024.2.4,MacIntel,57.47126437,69134a97886665640fa49f30,69712dc693a3960bdb483245,69714046a759f96a350729d3,,,,,,,,,,,,,1,,,,,,,,,,,,,,,,,,,,,,,,,,,,,,,,,,,,,7,pésimo,,,,,320.2057,321.5034,1,1,0.7618,,0,2,2,6,1,REAL,FAKE,,,,,,,,,,,,,,,,,
,,,,,,,,,69134a97886665640fa49f30,Mexican,13 or older,"no, only English or Spanish",no,2026-01-21_16h09.07.923,empathy_intonation_perc_control,2024.2.4,MacIntel,57.47126437,69134a97886665640fa49f30,69712dc693a3960bdb483245,69714046a759f96a350729d3,,,,,,,,,,,,,0,,,,,,,,,,,,,,,,,,,,,,,,,,,,,,,,,,,,,35,rompido,,,,,321.504,323.4327,0,1,1.4097,,0,3,3,34,1,REAL,FAKE,,,,,,,,,,,,,,,,,
,,,,,,,,,69134a97886665640fa49f30,Mexican,13 or older,"no, only English or Spanish",no,2026-01-21_16h09.07.923,empathy_intonation_perc_control,2024.2.4,MacIntel,57.47126437,69134a97886665640fa49f30,69712dc693a3960bdb483245,69714046a759f96a350729d3,,,,,,,,,,,,,0,,,,,,,,,,,,,,,,,,,,,,,,,,,,,,,,,,,,,84,escuto,,,,,323.4335,324.894,1,0,0.936,,0,4,4,83,1,REAL,FAKE,,,,,,,,,,,,,,,,,
,,,,,,,,,69134a97886665640fa49f30,Mexican,13 or older,"no, only English or Spanish",no,2026-01-21_16h09.07.923,empathy_intonation_perc_control,2024.2.4,MacIntel,57.47126437,69134a97886665640fa49f30,69712dc693a3960bdb483245,69714046a759f96a350729d3,,,,,,,,,,,,,1,,,,,,,,,,,,,,,,,,,,,,,,,,,,,,,,,,,,,80,hormiga,,,,,324.8949,326.5247,0,0,1.112,,0,5,5,79,1,REAL,FAKE,,,,,,,,,,,,,,,,,
,,,,,,,,,69134a97886665640fa49f30,Mexican,13 or older,"no, only English or Spanish",no,2026-01-21_16h09.07.923,empathy_intonation_perc_control,2024.2.4,MacIntel,57.47126437,69134a97886665640fa49f30,69712dc693a3960bdb483245,69714046a759f96a350729d3,,,,,,,,,,,,,1,,,,,,,,,,,,,,,,,,,,,,,,,,,,,,,,,,,,,38,estornudar,,,,,326.5254,329.2227,0,0,2.1655,,0,6,6,37,1,REAL,FAKE,,,,,,,,,,,,,,,,,
,,,,,,,,,69134a97886665640fa49f30,Mexican,13 or older,"no, only English or Spanish",no,2026-01-21_16h09.07.923,empathy_intonation_perc_control,2024.2.4,MacIntel,57.47126437,69134a97886665640fa49f30,69712dc693a3960bdb483245,69714046a759f96a350729d3,,,,,,,,,,,,,1,,,,,,,,,,,,,,,,,,,,,,,,,,,,,,,,,,,,,51,candado,,,,,329.2234,331.9697,1,1,2.2098,,0,7,7,50,1,REAL,FAKE,,,,,,,,,,,,,,,,,
,,,,,,,,,69134a97886665640fa49f30,Mexican,13 or older,"no, only English or Spanish",no,2026-01-21_16h09.07.923,empathy_intonation_perc_control,2024.2.4,MacIntel,57.47126437,69134a97886665640fa49f30,69712dc693a3960bdb483245,69714046a759f96a350729d3,,,,,,,,,,,,,1,,,,,,,,,,,,,,,,,,,,,,,,,,,,,,,,,,,,,40,alfombra,,,,,331.9704,333.7209,0,0,1.2254,,0,8,8,39,1,REAL,FAKE,,,,,,,,,,,,,,,,,
,,,,,,,,,69134a97886665640fa49f30,Mexican,13 or older,"no, only English or Spanish",no,2026-01-21_16h09.07.923,empathy_intonation_perc_control,2024.2.4,MacIntel,57.47126437,69134a97886665640fa49f30,69712dc693a3960bdb483245,69714046a759f96a350729d3,,,,,,,,,,,,,0,,,,,,,,,,,,,,,,,,,,,,,,,,,,,,,,,,,,,32,fatacidad,,,,,333.7218,336.2206,0,1,1.9581,,0,9,9,31,1,REAL,FAKE,,,,,,,,,,,,,,,,,
,,,,,,,,,69134a97886665640fa49f30,Mexican,13 or older,"no, only English or Spanish",no,2026-01-21_16h09.07.923,empathy_intonation_perc_control,2024.2.4,MacIntel,57.47126437,69134a97886665640fa49f30,69712dc693a3960bdb483245,69714046a759f96a350729d3,,,,,,,,,,,,,1,,,,,,,,,,,,,,,,,,,,,,,,,,,,,,,,,,,,,64,orgulloso,,,,,336.2213,337.6553,0,0,0.9147,,0,10,10,63,1,REAL,FAKE,,,,,,,,,,,,,,,,,
,,,,,,,,,69134a97886665640fa49f30,Mexican,13 or older,"no, only English or Spanish",no,2026-01-21_16h09.07.923,empathy_intonation_perc_control,2024.2.4,MacIntel,57.47126437,69134a97886665640fa49f30,69712dc693a3960bdb483245,69714046a759f96a350729d3,,,,,,,,,,,,,1,,,,,,,,,,,,,,,,,,,,,,,,,,,,,,,,,,,,,43,canela,,,,,337.6559,339.5104,0,0,1.3194,,0,11,11,42,1,REAL,FAKE,,,,,,,,,,,,,,,,,
,,,,,,,,,69134a97886665640fa49f30,Mexican,13 or older,"no, only English or Spanish",no,2026-01-21_16h09.07.923,empathy_intonation_perc_control,2024.2.4,MacIntel,57.47126437,69134a97886665640fa49f30,69712dc693a3960bdb483245,69714046a759f96a350729d3,,,,,,,,,,,,,1,,,,,,,,,,,,,,,,,,,,,,,,,,,,,,,,,,,,,75,yacer,,,,,339.5112,341.2087,0,0,1.1654,,0,12,12,74,1,REAL,FAKE,,,,,,,,,,,,,,,,,
,,,,,,,,,69134a97886665640fa49f30,Mexican,13 or older,"no, only English or Spanish",no,2026-01-21_16h09.07.923,empathy_intonation_perc_control,2024.2.4,MacIntel,57.47126437,69134a97886665640fa49f30,69712dc693a3960bdb483245,69714046a759f96a350729d3,,,,,,,,,,,,,1,,,,,,,,,,,,,,,,,,,,,,,,,,,,,,,,,,,,,56,musgo,,,,,341.2094,342.7403,0,0,0.999,,0,13,13,55,1,REAL,FAKE,,,,,,,,,,,,,,,,,
,,,,,,,,,69134a97886665640fa49f30,Mexican,13 or older,"no, only English or Spanish",no,2026-01-21_16h09.07.923,empathy_intonation_perc_control,2024.2.4,MacIntel,57.47126437,69134a97886665640fa49f30,69712dc693a3960bdb483245,69714046a759f96a350729d3,,,,,,,,,,,,,1,,,,,,,,,,,,,,,,,,,,,,,,,,,,,,,,,,,,,90,clavel,,,,,342.7411,344.3539,1,1,1.0739,,0,14,14,89,1,REAL,FAKE,,,,,,,,,,,,,,,,,
,,,,,,,,,69134a97886665640fa49f30,Mexican,13 or older,"no, only English or Spanish",no,2026-01-21_16h09.07.923,empathy_intonation_perc_control,2024.2.4,MacIntel,57.47126437,69134a97886665640fa49f30,69712dc693a3960bdb483245,69714046a759f96a350729d3,,,,,,,,,,,,,1,,,,,,,,,,,,,,,,,,,,,,,,,,,,,,,,,,,,,65,bizcocho,,,,,344.3546,346.7896,0,0,1.8991,,0,15,15,64,1,REAL,FAKE,,,,,,,,,,,,,,,,,
,,,,,,,,,69134a97886665640fa49f30,Mexican,13 or older,"no, only English or Spanish",no,2026-01-21_16h09.07.923,empathy_intonation_perc_control,2024.2.4,MacIntel,57.47126437,69134a97886665640fa49f30,69712dc693a3960bdb483245,69714046a759f96a350729d3,,,,,,,,,,,,,1,,,,,,,,,,,,,,,,,,,,,,,,,,,,,,,,,,,,,41,rebuscar,,,,,346.7905,348.0867,1,1,0.7574,,0,16,16,40,1,REAL,FAKE,,,,,,,,,,,,,,,,,
,,,,,,,,,69134a97886665640fa49f30,Mexican,13 or older,"no, only English or Spanish",no,2026-01-21_16h09.07.923,empathy_intonation_perc_control,2024.2.4,MacIntel,57.47126437,69134a97886665640fa49f30,69712dc693a3960bdb483245,69714046a759f96a350729d3,,,,,,,,,,,,,1,,,,,,,,,,,,,,,,,,,,,,,,,,,,,,,,,,,,,91,click the 1 key.,,,,,348.0874,349.6373,1,1,1.0259,,0,17,17,90,1,REAL,FAKE,,,,,,,,,,,,,,,,,
,,,,,,,,,69134a97886665640fa49f30,Mexican,13 or older,"no, only English or Spanish",no,2026-01-21_16h09.07.923,empathy_intonation_perc_control,2024.2.4,MacIntel,57.47126437,69134a97886665640fa49f30,69712dc693a3960bdb483245,69714046a759f96a350729d3,,,,,,,,,,,,,1,,,,,,,,,,,,,,,,,,,,,,,,,,,,,,,,,,,,,44,cuchara,,,,,349.6381,352.1659,1,1,1.9915,,0,18,18,43,1,REAL,FAKE,,,,,,,,,,,,,,,,,
,,,,,,,,,69134a97886665640fa49f30,Mexican,13 or older,"no, only English or Spanish",no,2026-01-21_16h09.07.923,empathy_intonation_perc_control,2024.2.4,MacIntel,57.47126437,69134a97886665640fa49f30,69712dc693a3960bdb483245,69714046a759f96a350729d3,,,,,,,,,,,,,1,,,,,,,,,,,,,,,,,,,,,,,,,,,,,,,,,,,,,67,cabello,,,,,352.1667,353.6609,1,1,0.9701,,0,19,19,66,1,REAL,FAKE,,,,,,,,,,,,,,,,,
,,,,,,,,,69134a97886665640fa49f30,Mexican,13 or older,"no, only English or Spanish",no,2026-01-21_16h09.07.923,empathy_intonation_perc_control,2024.2.4,MacIntel,57.47126437,69134a97886665640fa49f30,69712dc693a3960bdb483245,69714046a759f96a350729d3,,,,,,,,,,,,,1,,,,,,,,,,,,,,,,,,,,,,,,,,,,,,,,,,,,,88,acantilado,,,,,353.6623,358.3026,1,1,4.1108,,0,20,20,87,1,REAL,FAKE,,,,,,,,,,,,,,,,,
,,,,,,,,,69134a97886665640fa49f30,Mexican,13 or older,"no, only English or Spanish",no,2026-01-21_16h09.07.923,empathy_intonation_perc_control,2024.2.4,MacIntel,57.47126437,69134a97886665640fa49f30,69712dc693a3960bdb483245,69714046a759f96a350729d3,,,,,,,,,,,,,1,,,,,,,,,,,,,,,,,,,,,,,,,,,,,,,,,,,,,83,guante,,,,,358.3033,361.436,0,0,2.5924,,0,21,21,82,1,REAL,FAKE,,,,,,,,,,,,,,,,,
,,,,,,,,,69134a97886665640fa49f30,Mexican,13 or older,"no, only English or Spanish",no,2026-01-21_16h09.07.923,empathy_intonation_perc_control,2024.2.4,MacIntel,57.47126437,69134a97886665640fa49f30,69712dc693a3960bdb483245,69714046a759f96a350729d3,,,,,,,,,,,,,1,,,,,,,,,,,,,,,,,,,,,,,,,,,,,,,,,,,,,62,flaco,,,,,361.4366,363.7203,1,1,1.7612,,0,22,22,61,1,REAL,FAKE,,,,,,,,,,,,,,,,,
,,,,,,,,,69134a97886665640fa49f30,Mexican,13 or older,"no, only English or Spanish",no,2026-01-21_16h09.07.923,empathy_intonation_perc_control,2024.2.4,MacIntel,57.47126437,69134a97886665640fa49f30,69712dc693a3960bdb483245,69714046a759f96a350729d3,,,,,,,,,,,,,1,,,,,,,,,,,,,,,,,,,,,,,,,,,,,,,,,,,,,46,martillo,,,,,363.7209,365.9536,1,1,1.7056,,0,23,23,45,1,REAL,FAKE,,,,,,,,,,,,,,,,,
,,,,,,,,,69134a97886665640fa49f30,Mexican,13 or older,"no, only English or Spanish",no,2026-01-21_16h09.07.923,empathy_intonation_perc_control,2024.2.4,MacIntel,57.47126437,69134a97886665640fa49f30,69712dc693a3960bdb483245,69714046a759f96a350729d3,,,,,,,,,,,,,0,,,,,,,,,,,,,,,,,,,,,,,,,,,,,,,,,,,,,87,grodo,,,,,365.9545,367.9868,0,1,1.4935,,0,24,24,86,1,REAL,FAKE,,,,,,,,,,,,,,,,,
,,,,,,,,,69134a97886665640fa49f30,Mexican,13 or older,"no, only English or Spanish",no,2026-01-21_16h09.07.923,empathy_intonation_perc_control,2024.2.4,MacIntel,57.47126437,69134a97886665640fa49f30,69712dc693a3960bdb483245,69714046a759f96a350729d3,,,,,,,,,,,,,1,,,,,,,,,,,,,,,,,,,,,,,,,,,,,,,,,,,,,37,granuja,,,,,367.9876,370.8536,1,1,2.3275,,0,25,25,36,1,REAL,FAKE,,,,,,,,,,,,,,,,,
,,,,,,,,,69134a97886665640fa49f30,Mexican,13 or older,"no, only English or Spanish",no,2026-01-21_16h09.07.923,empathy_intonation_perc_control,2024.2.4,MacIntel,57.47126437,69134a97886665640fa49f30,69712dc693a3960bdb483245,69714046a759f96a350729d3,,,,,,,,,,,,,1,,,,,,,,,,,,,,,,,,,,,,,,,,,,,,,,,,,,,52,camisa,,,,,370.8542,372.9052,0,0,1.5121,,0,26,26,51,1,REAL,FAKE,,,,,,,,,,,,,,,,,
,,,,,,,,,69134a97886665640fa49f30,Mexican,13 or older,"no, only English or Spanish",no,2026-01-21_16h09.07.923,empathy_intonation_perc_control,2024.2.4,MacIntel,57.47126437,69134a97886665640fa49f30,69712dc693a3960bdb483245,69714046a759f96a350729d3,,,,,,,,,,,,,1,,,,,,,,,,,,,,,,,,,,,,,,,,,,,,,,,,,,,31,pandilla,,,,,372.9059,374.9052,1,1,1.4627,,0,27,27,30,1,REAL,FAKE,,,,,,,,,,,,,,,,,
,,,,,,,,,69134a97886665640fa49f30,Mexican,13 or older,"no, only English or Spanish",no,2026-01-21_16h09.07.923,empathy_intonation_perc_control,2024.2.4,MacIntel,57.47126437,69134a97886665640fa49f30,69712dc693a3960bdb483245,69714046a759f96a350729d3,,,,,,,,,,,,,1,,,,,,,,,,,,,,,,,,,,,,,,,,,,,,,,,,,,,2,pellizcar,,,,,374.9059,378.0863,0,0,2.6451,,0,28,28,1,1,REAL,FAKE,,,,,,,,,,,,,,,,,
,,,,,,,,,69134a97886665640fa49f30,Mexican,13 or older,"no, only English or Spanish",no,2026-01-21_16h09.07.923,empathy_intonation_perc_control,2024.2.4,MacIntel,57.47126437,69134a97886665640fa49f30,69712dc693a3960bdb483245,69714046a759f96a350729d3,,,,,,,,,,,,,1,,,,,,,,,,,,,,,,,,,,,,,,,,,,,,,,,,,,,49,ganar,,,,,378.0869,380.6699,0,0,2.0628,,0,29,29,48,1,REAL,FAKE,,,,,,,,,,,,,,,,,
,,,,,,,,,69134a97886665640fa49f30,Mexican,13 or older,"no, only English or Spanish",no,2026-01-21_16h09.07.923,empathy_intonation_perc_control,2024.2.4,MacIntel,57.47126437,69134a97886665640fa49f30,69712dc693a3960bdb483245,69714046a759f96a350729d3,,,,,,,,,,,,,1,,,,,,,,,,,,,,,,,,,,,,,,,,,,,,,,,,,,,57,tacaño,,,,,380.6707,382.2524,0,0,1.0367,,0,30,30,56,1,REAL,FAKE,,,,,,,,,,,,,,,,,
,,,,,,,,,69134a97886665640fa49f30,Mexican,13 or older,"no, only English or Spanish",no,2026-01-21_16h09.07.923,empathy_intonation_perc_control,2024.2.4,MacIntel,57.47126437,69134a97886665640fa49f30,69712dc693a3960bdb483245,69714046a759f96a350729d3,,,,,,,,,,,,,1,,,,,,,,,,,,,,,,,,,,,,,,,,,,,,,,,,,,,36,loro,,,,,382.253,384.0467,0,0,1.272,,0,31,31,35,1,REAL,FAKE,,,,,,,,,,,,,,,,,
,,,,,,,,,69134a97886665640fa49f30,Mexican,13 or older,"no, only English or Spanish",no,2026-01-21_16h09.07.923,empathy_intonation_perc_control,2024.2.4,MacIntel,57.47126437,69134a97886665640fa49f30,69712dc693a3960bdb483245,69714046a759f96a350729d3,,,,,,,,,,,,,0,,,,,,,,,,,,,,,,,,,,,,,,,,,,,,,,,,,,,53,vegada,,,,,384.0476,385.3713,1,0,0.7981,,0,32,32,52,1,REAL,FAKE,,,,,,,,,,,,,,,,,
,,,,,,,,,69134a97886665640fa49f30,Mexican,13 or older,"no, only English or Spanish",no,2026-01-21_16h09.07.923,empathy_intonation_perc_control,2024.2.4,MacIntel,57.47126437,69134a97886665640fa49f30,69712dc693a3960bdb483245,69714046a759f96a350729d3,,,,,,,,,,,,,1,,,,,,,,,,,,,,,,,,,,,,,,,,,,,,,,,,,,,6,tergiversar,,,,,385.3719,388.1699,0,0,2.2637,,0,33,33,5,1,REAL,FAKE,,,,,,,,,,,,,,,,,
,,,,,,,,,69134a97886665640fa49f30,Mexican,13 or older,"no, only English or Spanish",no,2026-01-21_16h09.07.923,empathy_intonation_perc_control,2024.2.4,MacIntel,57.47126437,69134a97886665640fa49f30,69712dc693a3960bdb483245,69714046a759f96a350729d3,,,,,,,,,,,,,1,,,,,,,,,,,,,,,,,,,,,,,,,,,,,,,,,,,,,55,nevar,,,,,388.1706,391.3023,1,1,2.6038,,0,34,34,54,1,REAL,FAKE,,,,,,,,,,,,,,,,,
,,,,,,,,,69134a97886665640fa49f30,Mexican,13 or older,"no, only English or Spanish",no,2026-01-21_16h09.07.923,empathy_intonation_perc_control,2024.2.4,MacIntel,57.47126437,69134a97886665640fa49f30,69712dc693a3960bdb483245,69714046a759f96a350729d3,,,,,,,,,,,,,1,,,,,,,,,,,,,,,,,,,,,,,,,,,,,,,,,,,,,12,asesinato,,,,,391.3028,393.1023,0,0,1.2478,,0,35,35,11,1,REAL,FAKE,,,,,,,,,,,,,,,,,
,,,,,,,,,69134a97886665640fa49f30,Mexican,13 or older,"no, only English or Spanish",no,2026-01-21_16h09.07.923,empathy_intonation_perc_control,2024.2.4,MacIntel,57.47126437,69134a97886665640fa49f30,69712dc693a3960bdb483245,69714046a759f96a350729d3,,,,,,,,,,,,,0,,,,,,,,,,,,,,,,,,,,,,,,,,,,,,,,,,,,,30,alardio,,,,,393.1029,394.8532,0,1,1.2287,,0,36,36,29,1,REAL,FAKE,,,,,,,,,,,,,,,,,
,,,,,,,,,69134a97886665640fa49f30,Mexican,13 or older,"no, only English or Spanish",no,2026-01-21_16h09.07.923,empathy_intonation_perc_control,2024.2.4,MacIntel,57.47126437,69134a97886665640fa49f30,69712dc693a3960bdb483245,69714046a759f96a350729d3,,,,,,,,,,,,,0,,,,,,,,,,,,,,,,,,,,,,,,,,,,,,,,,,,,,74,cintro,,,,,394.8539,396.071,1,0,0.6988,,0,37,37,73,1,REAL,FAKE,,,,,,,,,,,,,,,,,
,,,,,,,,,69134a97886665640fa49f30,Mexican,13 or older,"no, only English or Spanish",no,2026-01-21_16h09.07.923,empathy_intonation_perc_control,2024.2.4,MacIntel,57.47126437,69134a97886665640fa49f30,69712dc693a3960bdb483245,69714046a759f96a350729d3,,,,,,,,,,,,,0,,,,,,,,,,,,,,,,,,,,,,,,,,,,,,,,,,,,,79,tropaje,,,,,396.0716,398.2027,1,0,1.589,,0,38,38,78,1,REAL,FAKE,,,,,,,,,,,,,,,,,
,,,,,,,,,69134a97886665640fa49f30,Mexican,13 or older,"no, only English or Spanish",no,2026-01-21_16h09.07.923,empathy_intonation_perc_control,2024.2.4,MacIntel,57.47126437,69134a97886665640fa49f30,69712dc693a3960bdb483245,69714046a759f96a350729d3,,,,,,,,,,,,,1,,,,,,,,,,,,,,,,,,,,,,,,,,,,,,,,,,,,,60,matar,,,,,398.2033,399.7454,1,1,1.0158,,0,39,39,59,1,REAL,FAKE,,,,,,,,,,,,,,,,,
,,,,,,,,,69134a97886665640fa49f30,Mexican,13 or older,"no, only English or Spanish",no,2026-01-21_16h09.07.923,empathy_intonation_perc_control,2024.2.4,MacIntel,57.47126437,69134a97886665640fa49f30,69712dc693a3960bdb483245,69714046a759f96a350729d3,,,,,,,,,,,,,1,,,,,,,,,,,,,,,,,,,,,,,,,,,,,,,,,,,,,81,pozo,,,,,399.747,401.3029,0,0,1.0216,,0,40,40,80,1,REAL,FAKE,,,,,,,,,,,,,,,,,
,,,,,,,,,69134a97886665640fa49f30,Mexican,13 or older,"no, only English or Spanish",no,2026-01-21_16h09.07.923,empathy_intonation_perc_control,2024.2.4,MacIntel,57.47126437,69134a97886665640fa49f30,69712dc693a3960bdb483245,69714046a759f96a350729d3,,,,,,,,,,,,,1,,,,,,,,,,,,,,,,,,,,,,,,,,,,,,,,,,,,,26,secuestro,,,,,401.3035,402.8385,1,1,0.999,,0,41,41,25,1,REAL,FAKE,,,,,,,,,,,,,,,,,
,,,,,,,,,69134a97886665640fa49f30,Mexican,13 or older,"no, only English or Spanish",no,2026-01-21_16h09.07.923,empathy_intonation_perc_control,2024.2.4,MacIntel,57.47126437,69134a97886665640fa49f30,69712dc693a3960bdb483245,69714046a759f96a350729d3,,,,,,,,,,,,,0,,,,,,,,,,,,,,,,,,,,,,,,,,,,,,,,,,,,,47,cartinar,,,,,402.8392,404.3864,1,0,1.0101,,0,42,42,46,1,REAL,FAKE,,,,,,,,,,,,,,,,,
,,,,,,,,,69134a97886665640fa49f30,Mexican,13 or older,"no, only English or Spanish",no,2026-01-21_16h09.07.923,empathy_intonation_perc_control,2024.2.4,MacIntel,57.47126437,69134a97886665640fa49f30,69712dc693a3960bdb483245,69714046a759f96a350729d3,,,,,,,,,,,,,1,,,,,,,,,,,,,,,,,,,,,,,,,,,,,,,,,,,,,89,prisa,,,,,404.387,406.5859,0,0,1.6577,,0,43,43,88,1,REAL,FAKE,,,,,,,,,,,,,,,,,
,,,,,,,,,69134a97886665640fa49f30,Mexican,13 or older,"no, only English or Spanish",no,2026-01-21_16h09.07.923,empathy_intonation_perc_control,2024.2.4,MacIntel,57.47126437,69134a97886665640fa49f30,69712dc693a3960bdb483245,69714046a759f96a350729d3,,,,,,,,,,,,,0,,,,,,,,,,,,,,,,,,,,,,,,,,,,,,,,,,,,,4,batillón,,,,,406.5867,408.419,1,0,1.3066,,0,44,44,3,1,REAL,FAKE,,,,,,,,,,,,,,,,,
,,,,,,,,,69134a97886665640fa49f30,Mexican,13 or older,"no, only English or Spanish",no,2026-01-21_16h09.07.923,empathy_intonation_perc_control,2024.2.4,MacIntel,57.47126437,69134a97886665640fa49f30,69712dc693a3960bdb483245,69714046a759f96a350729d3,,,,,,,,,,,,,1,,,,,,,,,,,,,,,,,,,,,,,,,,,,,,,,,,,,,11,cenefa,,,,,408.4196,410.4539,0,0,1.5123,,0,45,45,10,1,REAL,FAKE,,,,,,,,,,,,,,,,,
,,,,,,,,,69134a97886665640fa49f30,Mexican,13 or older,"no, only English or Spanish",no,2026-01-21_16h09.07.923,empathy_intonation_perc_control,2024.2.4,MacIntel,57.47126437,69134a97886665640fa49f30,69712dc693a3960bdb483245,69714046a759f96a350729d3,,,,,,,,,,,,,1,,,,,,,,,,,,,,,,,,,,,,,,,,,,,,,,,,,,,9,hacha,,,,,410.4547,412.0361,0,0,1.0452,,0,46,46,8,1,REAL,FAKE,,,,,,,,,,,,,,,,,
,,,,,,,,,69134a97886665640fa49f30,Mexican,13 or older,"no, only English or Spanish",no,2026-01-21_16h09.07.923,empathy_intonation_perc_control,2024.2.4,MacIntel,57.47126437,69134a97886665640fa49f30,69712dc693a3960bdb483245,69714046a759f96a350729d3,,,,,,,,,,,,,1,,,,,,,,,,,,,,,,,,,,,,,,,,,,,,,,,,,,,20,ávido,,,,,412.0369,413.4594,1,1,0.8996,,0,47,47,19,1,REAL,FAKE,,,,,,,,,,,,,,,,,
,,,,,,,,,69134a97886665640fa49f30,Mexican,13 or older,"no, only English or Spanish",no,2026-01-21_16h09.07.923,empathy_intonation_perc_control,2024.2.4,MacIntel,57.47126437,69134a97886665640fa49f30,69712dc693a3960bdb483245,69714046a759f96a350729d3,,,,,,,,,,,,,0,,,,,,,,,,,,,,,,,,,,,,,,,,,,,,,,,,,,,42,cadallo,,,,,413.4601,415.753,0,1,1.7734,,0,48,48,41,1,REAL,FAKE,,,,,,,,,,,,,,,,,
,,,,,,,,,69134a97886665640fa49f30,Mexican,13 or older,"no, only English or Spanish",no,2026-01-21_16h09.07.923,empathy_intonation_perc_control,2024.2.4,MacIntel,57.47126437,69134a97886665640fa49f30,69712dc693a3960bdb483245,69714046a759f96a350729d3,,,,,,,,,,,,,1,,,,,,,,,,,,,,,,,,,,,,,,,,,,,,,,,,,,,85,laúd,,,,,415.754,417.4189,0,0,1.1383,,0,49,49,84,1,REAL,FAKE,,,,,,,,,,,,,,,,,
,,,,,,,,,69134a97886665640fa49f30,Mexican,13 or older,"no, only English or Spanish",no,2026-01-21_16h09.07.923,empathy_intonation_perc_control,2024.2.4,MacIntel,57.47126437,69134a97886665640fa49f30,69712dc693a3960bdb483245,69714046a759f96a350729d3,,,,,,,,,,,,,0,,,,,,,,,,,,,,,,,,,,,,,,,,,,,,,,,,,,,21,capillo,,,,,417.4196,418.8026,0,1,0.856,,0,50,50,20,1,REAL,FAKE,,,,,,,,,,,,,,,,,
,,,,,,,,,69134a97886665640fa49f30,Mexican,13 or older,"no, only English or Spanish",no,2026-01-21_16h09.07.923,empathy_intonation_perc_control,2024.2.4,MacIntel,57.47126437,69134a97886665640fa49f30,69712dc693a3960bdb483245,69714046a759f96a350729d3,,,,,,,,,,,,,1,,,,,,,,,,,,,,,,,,,,,,,,,,,,,,,,,,,,,59,besar,,,,,418.8034,420.6354,1,1,1.3039,,0,51,51,58,1,REAL,FAKE,,,,,,,,,,,,,,,,,
,,,,,,,,,69134a97886665640fa49f30,Mexican,13 or older,"no, only English or Spanish",no,2026-01-21_16h09.07.923,empathy_intonation_perc_control,2024.2.4,MacIntel,57.47126437,69134a97886665640fa49f30,69712dc693a3960bdb483245,69714046a759f96a350729d3,,,,,,,,,,,,,1,,,,,,,,,,,,,,,,,,,,,,,,,,,,,,,,,,,,,48,ladrón,,,,,420.636,422.3195,0,0,1.1437,,0,52,52,47,1,REAL,FAKE,,,,,,,,,,,,,,,,,
,,,,,,,,,69134a97886665640fa49f30,Mexican,13 or older,"no, only English or Spanish",no,2026-01-21_16h09.07.923,empathy_intonation_perc_control,2024.2.4,MacIntel,57.47126437,69134a97886665640fa49f30,69712dc693a3960bdb483245,69714046a759f96a350729d3,,,,,,,,,,,,,1,,,,,,,,,,,,,,,,,,,,,,,,,,,,,,,,,,,,,22,lacayo,,,,,422.3204,423.603,1,1,0.742,,0,53,53,21,1,REAL,FAKE,,,,,,,,,,,,,,,,,
,,,,,,,,,69134a97886665640fa49f30,Mexican,13 or older,"no, only English or Spanish",no,2026-01-21_16h09.07.923,empathy_intonation_perc_control,2024.2.4,MacIntel,57.47126437,69134a97886665640fa49f30,69712dc693a3960bdb483245,69714046a759f96a350729d3,,,,,,,,,,,,,0,,,,,,,,,,,,,,,,,,,,,,,,,,,,,,,,,,,,,63,esposante,,,,,423.6038,425.2021,0,1,1.0715,,0,54,54,62,1,REAL,FAKE,,,,,,,,,,,,,,,,,
,,,,,,,,,69134a97886665640fa49f30,Mexican,13 or older,"no, only English or Spanish",no,2026-01-21_16h09.07.923,empathy_intonation_perc_control,2024.2.4,MacIntel,57.47126437,69134a97886665640fa49f30,69712dc693a3960bdb483245,69714046a759f96a350729d3,,,,,,,,,,,,,0,,,,,,,,,,,,,,,,,,,,,,,,,,,,,,,,,,,,,16,abracer,,,,,425.2026,426.8196,0,1,1.0898,,0,55,55,15,1,REAL,FAKE,,,,,,,,,,,,,,,,,
,,,,,,,,,69134a97886665640fa49f30,Mexican,13 or older,"no, only English or Spanish",no,2026-01-21_16h09.07.923,empathy_intonation_perc_control,2024.2.4,MacIntel,57.47126437,69134a97886665640fa49f30,69712dc693a3960bdb483245,69714046a759f96a350729d3,,,,,,,,,,,,,0,,,,,,,,,,,,,,,,,,,,,,,,,,,,,,,,,,,,,17,floroso,,,,,426.8204,428.0875,0,1,0.7287,,0,56,56,16,1,REAL,FAKE,,,,,,,,,,,,,,,,,
,,,,,,,,,69134a97886665640fa49f30,Mexican,13 or older,"no, only English or Spanish",no,2026-01-21_16h09.07.923,empathy_intonation_perc_control,2024.2.4,MacIntel,57.47126437,69134a97886665640fa49f30,69712dc693a3960bdb483245,69714046a759f96a350729d3,,,,,,,,,,,,,0,,,,,,,,,,,,,,,,,,,,,,,,,,,,,,,,,,,,,10,antar,,,,,428.0882,429.0404,0,1,0.4193,,0,57,57,9,1,REAL,FAKE,,,,,,,,,,,,,,,,,
,,,,,,,,,69134a97886665640fa49f30,Mexican,13 or older,"no, only English or Spanish",no,2026-01-21_16h09.07.923,empathy_intonation_perc_control,2024.2.4,MacIntel,57.47126437,69134a97886665640fa49f30,69712dc693a3960bdb483245,69714046a759f96a350729d3,,,,,,,,,,,,,0,,,,,,,,,,,,,,,,,,,,,,,,,,,,,,,,,,,,,66,hacido,,,,,429.0412,430.3523,1,0,0.7855,,0,58,58,65,1,REAL,FAKE,,,,,,,,,,,,,,,,,
,,,,,,,,,69134a97886665640fa49f30,Mexican,13 or older,"no, only English or Spanish",no,2026-01-21_16h09.07.923,empathy_intonation_perc_control,2024.2.4,MacIntel,57.47126437,69134a97886665640fa49f30,69712dc693a3960bdb483245,69714046a759f96a350729d3,,,,,,,,,,,,,0,,,,,,,,,,,,,,,,,,,,,,,,,,,,,,,,,,,,,19,brecedad,,,,,430.3532,433.2349,1,0,2.3423,,0,59,59,18,1,REAL,FAKE,,,,,,,,,,,,,,,,,
,,,,,,,,,69134a97886665640fa49f30,Mexican,13 or older,"no, only English or Spanish",no,2026-01-21_16h09.07.923,empathy_intonation_perc_control,2024.2.4,MacIntel,57.47126437,69134a97886665640fa49f30,69712dc693a3960bdb483245,69714046a759f96a350729d3,,,,,,,,,,,,,0,,,,,,,,,,,,,,,,,,,,,,,,,,,,,,,,,,,,,23,lampera,,,,,433.2356,434.8864,0,1,1.1404,,0,60,60,22,1,REAL,FAKE,,,,,,,,,,,,,,,,,
,,,,,,,,,69134a97886665640fa49f30,Mexican,13 or older,"no, only English or Spanish",no,2026-01-21_16h09.07.923,empathy_intonation_perc_control,2024.2.4,MacIntel,57.47126437,69134a97886665640fa49f30,69712dc693a3960bdb483245,69714046a759f96a350729d3,,,,,,,,,,,,,0,,,,,,,,,,,,,,,,,,,,,,,,,,,,,,,,,,,,,27,acutación,,,,,434.887,443.3045,0,1,7.8836,,0,61,61,26,1,REAL,FAKE,,,,,,,,,,,,,,,,,
,,,,,,,,,69134a97886665640fa49f30,Mexican,13 or older,"no, only English or Spanish",no,2026-01-21_16h09.07.923,empathy_intonation_perc_control,2024.2.4,MacIntel,57.47126437,69134a97886665640fa49f30,69712dc693a3960bdb483245,69714046a759f96a350729d3,,,,,,,,,,,,,1,,,,,,,,,,,,,,,,,,,,,,,,,,,,,,,,,,,,,25,bisagra,,,,,443.3051,444.6348,1,1,0.7941,,0,62,62,24,1,REAL,FAKE,,,,,,,,,,,,,,,,,
,,,,,,,,,69134a97886665640fa49f30,Mexican,13 or older,"no, only English or Spanish",no,2026-01-21_16h09.07.923,empathy_intonation_perc_control,2024.2.4,MacIntel,57.47126437,69134a97886665640fa49f30,69712dc693a3960bdb483245,69714046a759f96a350729d3,,,,,,,,,,,,,1,,,,,,,,,,,,,,,,,,,,,,,,,,,,,,,,,,,,,3,pulmones,,,,,444.6355,445.9696,0,0,0.8017,,0,63,63,2,1,REAL,FAKE,,,,,,,,,,,,,,,,,
,,,,,,,,,69134a97886665640fa49f30,Mexican,13 or older,"no, only English or Spanish",no,2026-01-21_16h09.07.923,empathy_intonation_perc_control,2024.2.4,MacIntel,57.47126437,69134a97886665640fa49f30,69712dc693a3960bdb483245,69714046a759f96a350729d3,,,,,,,,,,,,,1,,,,,,,,,,,,,,,,,,,,,,,,,,,,,,,,,,,,,45,jilguero,,,,,445.9708,447.5526,0,0,1.0395,,0,64,64,44,1,REAL,FAKE,,,,,,,,,,,,,,,,,
,,,,,,,,,69134a97886665640fa49f30,Mexican,13 or older,"no, only English or Spanish",no,2026-01-21_16h09.07.923,empathy_intonation_perc_control,2024.2.4,MacIntel,57.47126437,69134a97886665640fa49f30,69712dc693a3960bdb483245,69714046a759f96a350729d3,,,,,,,,,,,,,1,,,,,,,,,,,,,,,,,,,,,,,,,,,,,,,,,,,,,68,alegre,,,,,447.5537,448.9184,1,1,0.818,,0,65,65,67,1,REAL,FAKE,,,,,,,,,,,,,,,,,
,,,,,,,,,69134a97886665640fa49f30,Mexican,13 or older,"no, only English or Spanish",no,2026-01-21_16h09.07.923,empathy_intonation_perc_control,2024.2.4,MacIntel,57.47126437,69134a97886665640fa49f30,69712dc693a3960bdb483245,69714046a759f96a350729d3,,,,,,,,,,,,,0,,,,,,,,,,,,,,,,,,,,,,,,,,,,,,,,,,,,,50,flamida,,,,,448.919,450.4024,1,0,0.9544,,0,66,66,49,1,REAL,FAKE,,,,,,,,,,,,,,,,,
,,,,,,,,,69134a97886665640fa49f30,Mexican,13 or older,"no, only English or Spanish",no,2026-01-21_16h09.07.923,empathy_intonation_perc_control,2024.2.4,MacIntel,57.47126437,69134a97886665640fa49f30,69712dc693a3960bdb483245,69714046a759f96a350729d3,,,,,,,,,,,,,0,,,,,,,,,,,,,,,,,,,,,,,,,,,,,,,,,,,,,8,cadeña,,,,,450.403,452.0183,1,0,1.0758,,0,67,67,7,1,REAL,FAKE,,,,,,,,,,,,,,,,,
,,,,,,,,,69134a97886665640fa49f30,Mexican,13 or older,"no, only English or Spanish",no,2026-01-21_16h09.07.923,empathy_intonation_perc_control,2024.2.4,MacIntel,57.47126437,69134a97886665640fa49f30,69712dc693a3960bdb483245,69714046a759f96a350729d3,,,,,,,,,,,,,1,,,,,,,,,,,,,,,,,,,,,,,,,,,,,,,,,,,,,77,tiburón,,,,,452.0189,453.3685,0,0,0.8275,,0,68,68,76,1,REAL,FAKE,,,,,,,,,,,,,,,,,
,,,,,,,,,69134a97886665640fa49f30,Mexican,13 or older,"no, only English or Spanish",no,2026-01-21_16h09.07.923,empathy_intonation_perc_control,2024.2.4,MacIntel,57.47126437,69134a97886665640fa49f30,69712dc693a3960bdb483245,69714046a759f96a350729d3,,,,,,,,,,,,,0,,,,,,,,,,,,,,,,,,,,,,,,,,,,,,,,,,,,,33,pauca,,,,,453.3695,454.804,0,1,0.8976,,0,69,69,32,1,REAL,FAKE,,,,,,,,,,,,,,,,,
,,,,,,,,,69134a97886665640fa49f30,Mexican,13 or older,"no, only English or Spanish",no,2026-01-21_16h09.07.923,empathy_intonation_perc_control,2024.2.4,MacIntel,57.47126437,69134a97886665640fa49f30,69712dc693a3960bdb483245,69714046a759f96a350729d3,,,,,,,,,,,,,0,,,,,,,,,,,,,,,,,,,,,,,,,,,,,,,,,,,,,70,temblo,,,,,454.8044,456.7022,0,1,1.3549,,0,70,70,69,1,REAL,FAKE,,,,,,,,,,,,,,,,,
,,,,,,,,,69134a97886665640fa49f30,Mexican,13 or older,"no, only English or Spanish",no,2026-01-21_16h09.07.923,empathy_intonation_perc_control,2024.2.4,MacIntel,57.47126437,69134a97886665640fa49f30,69712dc693a3960bdb483245,69714046a759f96a350729d3,,,,,,,,,,,,,1,,,,,,,,,,,,,,,,,,,,,,,,,,,,,,,,,,,,,15,regar,,,,,456.7033,458.025,1,1,0.7688,,0,71,71,14,1,REAL,FAKE,,,,,,,,,,,,,,,,,
,,,,,,,,,69134a97886665640fa49f30,Mexican,13 or older,"no, only English or Spanish",no,2026-01-21_16h09.07.923,empathy_intonation_perc_control,2024.2.4,MacIntel,57.47126437,69134a97886665640fa49f30,69712dc693a3960bdb483245,69714046a759f96a350729d3,,,,,,,,,,,,,0,,,,,,,,,,,,,,,,,,,,,,,,,,,,,,,,,,,,,82,empirador,,,,,458.0256,459.4848,1,0,0.93,,0,72,72,81,1,REAL,FAKE,,,,,,,,,,,,,,,,,
,,,,,,,,,69134a97886665640fa49f30,Mexican,13 or older,"no, only English or Spanish",no,2026-01-21_16h09.07.923,empathy_intonation_perc_control,2024.2.4,MacIntel,57.47126437,69134a97886665640fa49f30,69712dc693a3960bdb483245,69714046a759f96a350729d3,,,,,,,,,,,,,1,,,,,,,,,,,,,,,,,,,,,,,,,,,,,,,,,,,,,34,aviso,,,,,459.4855,461.2023,1,1,1.1931,,0,73,73,33,1,REAL,FAKE,,,,,,,,,,,,,,,,,
,,,,,,,,,69134a97886665640fa49f30,Mexican,13 or older,"no, only English or Spanish",no,2026-01-21_16h09.07.923,empathy_intonation_perc_control,2024.2.4,MacIntel,57.47126437,69134a97886665640fa49f30,69712dc693a3960bdb483245,69714046a759f96a350729d3,,,,,,,,,,,,,0,,,,,,,,,,,,,,,,,,,,,,,,,,,,,,,,,,,,,1,terzo,,,,,461.2028,462.7613,1,0,1.0318,,0,74,74,0,1,REAL,FAKE,,,,,,,,,,,,,,,,,
,,,,,,,,,69134a97886665640fa49f30,Mexican,13 or older,"no, only English or Spanish",no,2026-01-21_16h09.07.923,empathy_intonation_perc_control,2024.2.4,MacIntel,57.47126437,69134a97886665640fa49f30,69712dc693a3960bdb483245,69714046a759f96a350729d3,,,,,,,,,,,,,1,,,,,,,,,,,,,,,,,,,,,,,,,,,,,,,,,,,,,76,atar,,,,,462.7618,464.0198,1,1,0.7304,,0,75,75,75,1,REAL,FAKE,,,,,,,,,,,,,,,,,
,,,,,,,,,69134a97886665640fa49f30,Mexican,13 or older,"no, only English or Spanish",no,2026-01-21_16h09.07.923,empathy_intonation_perc_control,2024.2.4,MacIntel,57.47126437,69134a97886665640fa49f30,69712dc693a3960bdb483245,69714046a759f96a350729d3,,,,,,,,,,,,,1,,,,,,,,,,,,,,,,,,,,,,,,,,,,,,,,,,,,,14,yunque,,,,,464.0204,465.2024,0,0,0.6347,,0,76,76,13,1,REAL,FAKE,,,,,,,,,,,,,,,,,
,,,,,,,,,69134a97886665640fa49f30,Mexican,13 or older,"no, only English or Spanish",no,2026-01-21_16h09.07.923,empathy_intonation_perc_control,2024.2.4,MacIntel,57.47126437,69134a97886665640fa49f30,69712dc693a3960bdb483245,69714046a759f96a350729d3,,,,,,,,,,,,,1,,,,,,,,,,,,,,,,,,,,,,,,,,,,,,,,,,,,,71,polvoriento,,,,,465.2038,466.5346,0,0,0.7946,,0,77,77,70,1,REAL,FAKE,,,,,,,,,,,,,,,,,
,,,,,,,,,69134a97886665640fa49f30,Mexican,13 or older,"no, only English or Spanish",no,2026-01-21_16h09.07.923,empathy_intonation_perc_control,2024.2.4,MacIntel,57.47126437,69134a97886665640fa49f30,69712dc693a3960bdb483245,69714046a759f96a350729d3,,,,,,,,,,,,,0,,,,,,,,,,,,,,,,,,,,,,,,,,,,,,,,,,,,,18,arsa,,,,,466.5352,467.702,0,1,0.6385,,0,78,78,17,1,REAL,FAKE,,,,,,,,,,,,,,,,,
,,,,,,,,,69134a97886665640fa49f30,Mexican,13 or older,"no, only English or Spanish",no,2026-01-21_16h09.07.923,empathy_intonation_perc_control,2024.2.4,MacIntel,57.47126437,69134a97886665640fa49f30,69712dc693a3960bdb483245,69714046a759f96a350729d3,,,,,,,,,,,,,1,,,,,,,,,,,,,,,,,,,,,,,,,,,,,,,,,,,,,54,fomentar,,,,,467.7027,469.1345,0,0,0.8872,,0,79,79,53,1,REAL,FAKE,,,,,,,,,,,,,,,,,
,,,,,,,,,69134a97886665640fa49f30,Mexican,13 or older,"no, only English or Spanish",no,2026-01-21_16h09.07.923,empathy_intonation_perc_control,2024.2.4,MacIntel,57.47126437,69134a97886665640fa49f30,69712dc693a3960bdb483245,69714046a759f96a350729d3,,,,,,,,,,,,,1,,,,,,,,,,,,,,,,,,,,,,,,,,,,,,,,,,,,,69,engatusar,,,,,469.1352,470.7023,0,0,1.0512,,0,80,80,68,1,REAL,FAKE,,,,,,,,,,,,,,,,,
,,,,,,,,,69134a97886665640fa49f30,Mexican,13 or older,"no, only English or Spanish",no,2026-01-21_16h09.07.923,empathy_intonation_perc_control,2024.2.4,MacIntel,57.47126437,69134a97886665640fa49f30,69712dc693a3960bdb483245,69714046a759f96a350729d3,,,,,,,,,,,,,0,,,,,,,,,,,,,,,,,,,,,,,,,,,,,,,,,,,,,58,plaudir,,,,,470.7031,472.0854,0,1,0.8402,,0,81,81,57,1,REAL,FAKE,,,,,,,,,,,,,,,,,
,,,,,,,,,69134a97886665640fa49f30,Mexican,13 or older,"no, only English or Spanish",no,2026-01-21_16h09.07.923,empathy_intonation_perc_control,2024.2.4,MacIntel,57.47126437,69134a97886665640fa49f30,69712dc693a3960bdb483245,69714046a759f96a350729d3,,,,,,,,,,,,,0,,,,,,,,,,,,,,,,,,,,,,,,,,,,,,,,,,,,,72,pemición,,,,,472.0858,473.4521,1,0,0.8379,,0,82,82,71,1,REAL,FAKE,,,,,,,,,,,,,,,,,
,,,,,,,,,69134a97886665640fa49f30,Mexican,13 or older,"no, only English or Spanish",no,2026-01-21_16h09.07.923,empathy_intonation_perc_control,2024.2.4,MacIntel,57.47126437,69134a97886665640fa49f30,69712dc693a3960bdb483245,69714046a759f96a350729d3,,,,,,,,,,,,,1,,,,,,,,,,,,,,,,,,,,,,,,,,,,,,,,,,,,,86,barato,,,,,473.4528,475.4448,1,1,1.4557,,0,83,83,85,1,REAL,FAKE,,,,,,,,,,,,,,,,,
,,,,,,,,,69134a97886665640fa49f30,Mexican,13 or older,"no, only English or Spanish",no,2026-01-21_16h09.07.923,empathy_intonation_perc_control,2024.2.4,MacIntel,57.47126437,69134a97886665640fa49f30,69712dc693a3960bdb483245,69714046a759f96a350729d3,,,,,,,,,,,,,0,,,,,,,,,,,,,,,,,,,,,,,,,,,,,,,,,,,,,29,decar,,,,,475.4461,476.6522,1,0,0.6728,,0,84,84,28,1,REAL,FAKE,,,,,,,,,,,,,,,,,
,,,,,,,,,69134a97886665640fa49f30,Mexican,13 or older,"no, only English or Spanish",no,2026-01-21_16h09.07.923,empathy_intonation_perc_control,2024.2.4,MacIntel,57.47126437,69134a97886665640fa49f30,69712dc693a3960bdb483245,69714046a759f96a350729d3,,,,,,,,,,,,,1,,,,,,,,,,,,,,,,,,,,,,,,,,,,,,,,,,,,,13,helar,,,,,476.6528,478.0188,0,0,0.839,,0,85,85,12,1,REAL,FAKE,,,,,,,,,,,,,,,,,
,,,,,,,,,69134a97886665640fa49f30,Mexican,13 or older,"no, only English or Spanish",no,2026-01-21_16h09.07.923,empathy_intonation_perc_control,2024.2.4,MacIntel,57.47126437,69134a97886665640fa49f30,69712dc693a3960bdb483245,69714046a759f96a350729d3,,,,,,,,,,,,,1,,,,,,,,,,,,,,,,,,,,,,,,,,,,,,,,,,,,,5,zapato,,,,,478.0194,479.535,1,1,0.9745,,0,86,86,4,1,REAL,FAKE,,,,,,,,,,,,,,,,,
,,,,,,,,,69134a97886665640fa49f30,Mexican,13 or older,"no, only English or Spanish",no,2026-01-21_16h09.07.923,empathy_intonation_perc_control,2024.2.4,MacIntel,57.47126437,69134a97886665640fa49f30,69712dc693a3960bdb483245,69714046a759f96a350729d3,,,,,,,,,,,,,1,,,,,,,,,,,,,,,,,,,,,,,,,,,,,,,,,,,,,39,torpe,,,,,479.5356,481.0864,1,1,1.0282,,0,87,87,38,1,REAL,FAKE,,,,,,,,,,,,,,,,,
,,,,,,,,,69134a97886665640fa49f30,Mexican,13 or older,"no, only English or Spanish",no,2026-01-21_16h09.07.923,empathy_intonation_perc_control,2024.2.4,MacIntel,57.47126437,69134a97886665640fa49f30,69712dc693a3960bdb483245,69714046a759f96a350729d3,,,,,,,,,,,,,0,,,,,,,,,,,,,,,,,,,,,,,,,,,,,,,,,,,,,92,click the 0 key.,,,,,481.0872,482.8353,0,1,1.2063,,0,88,88,91,1,REAL,FAKE,,,,,,,,,,,,,,,,,
,,,,,,,,,69134a97886665640fa49f30,Mexican,13 or older,"no, only English or Spanish",no,2026-01-21_16h09.07.923,empathy_intonation_perc_control,2024.2.4,MacIntel,57.47126437,69134a97886665640fa49f30,69712dc693a3960bdb483245,69714046a759f96a350729d3,,,,,,,,,,,,,1,,,,,,,,,,,,,,,,,,,,,,,,,,,,,,,,,,,,,78,frondoso,,,,,482.836,484.969,0,0,1.5876,,0,89,89,77,1,REAL,FAKE,,,,,,,,,,,,,,,,,
,,,,,,,,,69134a97886665640fa49f30,Mexican,13 or older,"no, only English or Spanish",no,2026-01-21_16h09.07.923,empathy_intonation_perc_control,2024.2.4,MacIntel,57.47126437,69134a97886665640fa49f30,69712dc693a3960bdb483245,69714046a759f96a350729d3,,,,,,,,,,,,,1,,,,,,,,,,,,,,,,,,,,,,,,,,,,,,,,,,,,,61,seda,,,,,484.9702,486.4676,0,0,0.9576,,0,90,90,60,1,REAL,FAKE,,,,,,,,,,,,,,,,,
,,,,,,,,,69134a97886665640fa49f30,Mexican,13 or older,"no, only English or Spanish",no,2026-01-21_16h09.07.923,empathy_intonation_perc_control,2024.2.4,MacIntel,57.47126437,69134a97886665640fa49f30,69712dc693a3960bdb483245,69714046a759f96a350729d3,,,,,,,,,,,,,1,,,,,,,,,,,,,,,,,,,,,,,,,,,,,,,,,,,,,28,merodear,,,,,486.4685,487.9518,0,0,0.9577,,0,91,91,27,1,REAL,FAKE,,,,,,,,,,,,,,,,,
,,,,,,,,,69134a97886665640fa49f30,Mexican,13 or older,"no, only English or Spanish",no,2026-01-21_16h09.07.923,empathy_intonation_perc_control,2024.2.4,MacIntel,57.47126437,69134a97886665640fa49f30,69712dc693a3960bdb483245,69714046a759f96a350729d3,,,,,,,,,,,,,,,,,,,,,,,,,,,,,,,,,,,,,,,,,,,,,,,,,,,,,,,,,,,,,,,,,,,,,487.9522,491.0187,,,,,,,,,,,,,,,
,,,,,,,,,69134a97886665640fa49f30,Mexican,13 or older,"no, only English or Spanish",no,2026-01-21_16h09.07.923,empathy_intonation_perc_control,2024.2.4,MacIntel,57.47126437,69134a97886665640fa49f30,69712dc693a3960bdb483245,69714046a759f96a350729d3,,,,,,,,,,,,,,,,,,,,,,,,,,,1,,,,,,,,,,,,,,,,,,,,,,,,,,,,,,,,,,,,,,,,,,,,491.0325,496.1189,slightly agree,0,0,0,0,1,I can easily tell if someone else wants to enter a conversation.,1,0,1,0,,
,,,,,,,,,69134a97886665640fa49f30,Mexican,13 or older,"no, only English or Spanish",no,2026-01-21_16h09.07.923,empathy_intonation_perc_control,2024.2.4,MacIntel,57.47126437,69134a97886665640fa49f30,69712dc693a3960bdb483245,69714046a759f96a350729d3,,,,,,,,,,,,,,,,,,,,,,,,,,,2,,,,,,,,,,,,,,,,,,,,,,,,,,,,,,,,,,,,,,,,,,,,496.1196,499.2008,slightly disagree,0,1,1,1,1,I prefer animals to humans.,0,1,0,0,,
,,,,,,,,,69134a97886665640fa49f30,Mexican,13 or older,"no, only English or Spanish",no,2026-01-21_16h09.07.923,empathy_intonation_perc_control,2024.2.4,MacIntel,57.47126437,69134a97886665640fa49f30,69712dc693a3960bdb483245,69714046a759f96a350729d3,,,,,,,,,,,,,,,,,,,,,,,,,,,3,,,,,,,,,,,,,,,,,,,,,,,,,,,,,,,,,,,,,,,,,,,,499.2016,501.3038,slightly agree,0,2,2,2,1,I try to keep up with the current trends and fashions.,0,1,0,0,,
,,,,,,,,,69134a97886665640fa49f30,Mexican,13 or older,"no, only English or Spanish",no,2026-01-21_16h09.07.923,empathy_intonation_perc_control,2024.2.4,MacIntel,57.47126437,69134a97886665640fa49f30,69712dc693a3960bdb483245,69714046a759f96a350729d3,,,,,,,,,,,,,,,,,,,,,,,,,,,4,,,,,,,,,,,,,,,,,,,,,,,,,,,,,,,,,,,,,,,,,,,,501.3045,507.3844,slightly disagree,0,3,3,3,1,"I find it difficult to explain to others things that I understand easily,   when they don't understand it first time.",1,0,0,1,,
,,,,,,,,,69134a97886665640fa49f30,Mexican,13 or older,"no, only English or Spanish",no,2026-01-21_16h09.07.923,empathy_intonation_perc_control,2024.2.4,MacIntel,57.47126437,69134a97886665640fa49f30,69712dc693a3960bdb483245,69714046a759f96a350729d3,,,,,,,,,,,,,,,,,,,,,,,,,,,5,,,,,,,,,,,,,,,,,,,,,,,,,,,,,,,,,,,,,,,,,,,,507.3852,509.1841,slightly agree,0,4,4,4,1,I dream most nights.,0,1,0,0,,
,,,,,,,,,69134a97886665640fa49f30,Mexican,13 or older,"no, only English or Spanish",no,2026-01-21_16h09.07.923,empathy_intonation_perc_control,2024.2.4,MacIntel,57.47126437,69134a97886665640fa49f30,69712dc693a3960bdb483245,69714046a759f96a350729d3,,,,,,,,,,,,,,,,,,,,,,,,,,,6,,,,,,,,,,,,,,,,,,,,,,,,,,,,,,,,,,,,,,,,,,,,509.1851,512.8339,strongly disagree,0,5,5,5,1,I really enjoy caring for other people.,1,0,1,0,,
,,,,,,,,,69134a97886665640fa49f30,Mexican,13 or older,"no, only English or Spanish",no,2026-01-21_16h09.07.923,empathy_intonation_perc_control,2024.2.4,MacIntel,57.47126437,69134a97886665640fa49f30,69712dc693a3960bdb483245,69714046a759f96a350729d3,,,,,,,,,,,,,,,,,,,,,,,,,,,7,,,,,,,,,,,,,,,,,,,,,,,,,,,,,,,,,,,,,,,,,,,,512.8351,516.2673,slightly agree,0,6,6,6,1,I try to solve my own problems rather than discussing them with others.,0,1,0,0,,
,,,,,,,,,69134a97886665640fa49f30,Mexican,13 or older,"no, only English or Spanish",no,2026-01-21_16h09.07.923,empathy_intonation_perc_control,2024.2.4,MacIntel,57.47126437,69134a97886665640fa49f30,69712dc693a3960bdb483245,69714046a759f96a350729d3,,,,,,,,,,,,,,,,,,,,,,,,,,,8,,,,,,,,,,,,,,,,,,,,,,,,,,,,,,,,,,,,,,,,,,,,516.268,518.2517,slightly agree,0,7,7,7,1,I find it hard to know what to do in a social situation.,1,0,0,1,,
,,,,,,,,,69134a97886665640fa49f30,Mexican,13 or older,"no, only English or Spanish",no,2026-01-21_16h09.07.923,empathy_intonation_perc_control,2024.2.4,MacIntel,57.47126437,69134a97886665640fa49f30,69712dc693a3960bdb483245,69714046a759f96a350729d3,,,,,,,,,,,,,,,,,,,,,,,,,,,9,,,,,,,,,,,,,,,,,,,,,,,,,,,,,,,,,,,,,,,,,,,,518.2527,522.2005,strongly disagree,0,8,8,8,1,I am at my best first thing in the morning.,0,1,0,0,,
,,,,,,,,,69134a97886665640fa49f30,Mexican,13 or older,"no, only English or Spanish",no,2026-01-21_16h09.07.923,empathy_intonation_perc_control,2024.2.4,MacIntel,57.47126437,69134a97886665640fa49f30,69712dc693a3960bdb483245,69714046a759f96a350729d3,,,,,,,,,,,,,,,,,,,,,,,,,,,10,,,,,,,,,,,,,,,,,,,,,,,,,,,,,,,,,,,,,,,,,,,,522.2016,525.5342,slightly disagree,0,9,9,9,1,People often tell me that I went too far in driving my point home in a discussion.,1,0,0,1,,
,,,,,,,,,69134a97886665640fa49f30,Mexican,13 or older,"no, only English or Spanish",no,2026-01-21_16h09.07.923,empathy_intonation_perc_control,2024.2.4,MacIntel,57.47126437,69134a97886665640fa49f30,69712dc693a3960bdb483245,69714046a759f96a350729d3,,,,,,,,,,,,,,,,,,,,,,,,,,,11,,,,,,,,,,,,,,,,,,,,,,,,,,,,,,,,,,,,,,,,,,,,525.535,529.6671,slightly disagree,0,10,10,10,1,It doesn't bother me too much if I am late meeting a friend.,1,0,0,1,,
,,,,,,,,,69134a97886665640fa49f30,Mexican,13 or older,"no, only English or Spanish",no,2026-01-21_16h09.07.923,empathy_intonation_perc_control,2024.2.4,MacIntel,57.47126437,69134a97886665640fa49f30,69712dc693a3960bdb483245,69714046a759f96a350729d3,,,,,,,,,,,,,,,,,,,,,,,,,,,12,,,,,,,,,,,,,,,,,,,,,,,,,,,,,,,,,,,,,,,,,,,,529.6681,533.3346,slightly disagree,0,11,11,11,1,"Friendships and relationships are just too difficult, so I tend not to 
  bother with them.",1,0,0,1,,
,,,,,,,,,69134a97886665640fa49f30,Mexican,13 or older,"no, only English or Spanish",no,2026-01-21_16h09.07.923,empathy_intonation_perc_control,2024.2.4,MacIntel,57.47126437,69134a97886665640fa49f30,69712dc693a3960bdb483245,69714046a759f96a350729d3,,,,,,,,,,,,,,,,,,,,,,,,,,,13,,,,,,,,,,,,,,,,,,,,,,,,,,,,,,,,,,,,,,,,,,,,533.3357,535.7338,slightly disagree,0,12,12,12,1,"I would never break a law, no matter how minor.",0,1,0,0,,
,,,,,,,,,69134a97886665640fa49f30,Mexican,13 or older,"no, only English or Spanish",no,2026-01-21_16h09.07.923,empathy_intonation_perc_control,2024.2.4,MacIntel,57.47126437,69134a97886665640fa49f30,69712dc693a3960bdb483245,69714046a759f96a350729d3,,,,,,,,,,,,,,,,,,,,,,,,,,,14,,,,,,,,,,,,,,,,,,,,,,,,,,,,,,,,,,,,,,,,,,,,535.7349,537.5669,slightly disagree,0,13,13,13,1,I often find it difficult to judge if something is rude or polite.,1,0,0,1,,
,,,,,,,,,69134a97886665640fa49f30,Mexican,13 or older,"no, only English or Spanish",no,2026-01-21_16h09.07.923,empathy_intonation_perc_control,2024.2.4,MacIntel,57.47126437,69134a97886665640fa49f30,69712dc693a3960bdb483245,69714046a759f96a350729d3,,,,,,,,,,,,,,,,,,,,,,,,,,,15,,,,,,,,,,,,,,,,,,,,,,,,,,,,,,,,,,,,,,,,,,,,537.5681,542.1339,slightly disagree,0,14,14,14,1,"In a conversation, I tend to focus on my own thoughts rather than on what 
  my listener might be thinking.",1,0,0,1,,
,,,,,,,,,69134a97886665640fa49f30,Mexican,13 or older,"no, only English or Spanish",no,2026-01-21_16h09.07.923,empathy_intonation_perc_control,2024.2.4,MacIntel,57.47126437,69134a97886665640fa49f30,69712dc693a3960bdb483245,69714046a759f96a350729d3,,,,,,,,,,,,,,,,,,,,,,,,,,,16,,,,,,,,,,,,,,,,,,,,,,,,,,,,,,,,,,,,,,,,,,,,542.1349,546.1336,slightly disagree,0,15,15,15,1,I prefer practical jokes to verbal humor.,0,1,0,0,,
,,,,,,,,,69134a97886665640fa49f30,Mexican,13 or older,"no, only English or Spanish",no,2026-01-21_16h09.07.923,empathy_intonation_perc_control,2024.2.4,MacIntel,57.47126437,69134a97886665640fa49f30,69712dc693a3960bdb483245,69714046a759f96a350729d3,,,,,,,,,,,,,,,,,,,,,,,,,,,17,,,,,,,,,,,,,,,,,,,,,,,,,,,,,,,,,,,,,,,,,,,,546.1345,548.217,slightly disagree,0,16,16,16,1,I live life for today rather than the future.,0,1,0,0,,
,,,,,,,,,69134a97886665640fa49f30,Mexican,13 or older,"no, only English or Spanish",no,2026-01-21_16h09.07.923,empathy_intonation_perc_control,2024.2.4,MacIntel,57.47126437,69134a97886665640fa49f30,69712dc693a3960bdb483245,69714046a759f96a350729d3,,,,,,,,,,,,,,,,,,,,,,,,,,,18,,,,,,,,,,,,,,,,,,,,,,,,,,,,,,,,,,,,,,,,,,,,548.218,551.0671,strongly disagree,0,17,17,17,1,"When I was a child, I enjoyed cutting up worms to see what would happen.",1,0,0,1,,
,,,,,,,,,69134a97886665640fa49f30,Mexican,13 or older,"no, only English or Spanish",no,2026-01-21_16h09.07.923,empathy_intonation_perc_control,2024.2.4,MacIntel,57.47126437,69134a97886665640fa49f30,69712dc693a3960bdb483245,69714046a759f96a350729d3,,,,,,,,,,,,,,,,,,,,,,,,,,,19,,,,,,,,,,,,,,,,,,,,,,,,,,,,,,,,,,,,,,,,,,,,551.0681,556.5003,slightly agree,0,18,18,18,1,I can pick up quickly if someone says one thing but means another.,1,0,1,0,,
,,,,,,,,,69134a97886665640fa49f30,Mexican,13 or older,"no, only English or Spanish",no,2026-01-21_16h09.07.923,empathy_intonation_perc_control,2024.2.4,MacIntel,57.47126437,69134a97886665640fa49f30,69712dc693a3960bdb483245,69714046a759f96a350729d3,,,,,,,,,,,,,,,,,,,,,,,,,,,20,,,,,,,,,,,,,,,,,,,,,,,,,,,,,,,,,,,,,,,,,,,,556.5012,560.4336,strongly agree,0,19,19,19,1,I tend to have very strong opinions about morality.,0,1,0,0,,
,,,,,,,,,69134a97886665640fa49f30,Mexican,13 or older,"no, only English or Spanish",no,2026-01-21_16h09.07.923,empathy_intonation_perc_control,2024.2.4,MacIntel,57.47126437,69134a97886665640fa49f30,69712dc693a3960bdb483245,69714046a759f96a350729d3,,,,,,,,,,,,,,,,,,,,,,,,,,,21,,,,,,,,,,,,,,,,,,,,,,,,,,,,,,,,,,,,,,,,,,,,560.4348,563.4333,strongly disagree,0,20,20,20,1,It is hard for me to see why some things upset people so much.,1,0,0,1,,
,,,,,,,,,69134a97886665640fa49f30,Mexican,13 or older,"no, only English or Spanish",no,2026-01-21_16h09.07.923,empathy_intonation_perc_control,2024.2.4,MacIntel,57.47126437,69134a97886665640fa49f30,69712dc693a3960bdb483245,69714046a759f96a350729d3,,,,,,,,,,,,,,,,,,,,,,,,,,,22,,,,,,,,,,,,,,,,,,,,,,,,,,,,,,,,,,,,,,,,,,,,563.4344,565.7177,strongly agree,0,21,21,21,1,I find it easy to put myself in somebody else's shoes.,1,0,1,0,,
,,,,,,,,,69134a97886665640fa49f30,Mexican,13 or older,"no, only English or Spanish",no,2026-01-21_16h09.07.923,empathy_intonation_perc_control,2024.2.4,MacIntel,57.47126437,69134a97886665640fa49f30,69712dc693a3960bdb483245,69714046a759f96a350729d3,,,,,,,,,,,,,,,,,,,,,,,,,,,23,,,,,,,,,,,,,,,,,,,,,,,,,,,,,,,,,,,,,,,,,,,,565.7186,571.4836,slightly agree,0,22,22,22,1,I think that good manners are the most important thing a parent can teach their child.,0,1,0,0,,
