instructions_2afc.started,instructions_2afc.stopped,instructions_2afc_loop.thisRepN,instructions_2afc_loop.thisTrialN,instructions_2afc_loop.thisN,instructions_2afc_loop.thisIndex,instructions_2afc_loop.ran,instructions_text,continue_text,participant_id,"What variety of Spanish are you most familiar with? (e.g., Peruvian, Spanish, Mexican)",At what age did you begin learning Spanish?,Are you proficient in any languages other than English/Spanish?,"Are you familiar with Caribbean (e.g., Caribbean, Puerto Rican) or Galician Spanish?",date,expName,psychopyVersion,OS,frameRate,id,study_id,session,practice_2afc.started,practice_2afc.stopped,key_resp_2afc_practice.keys,key_resp_2afc_practice.corr,key_resp_2afc_practice.rt,key_resp_2afc_practice.duration,trials_2afc_practice_loop.thisRepN,trials_2afc_practice_loop.thisTrialN,trials_2afc_practice_loop.thisN,trials_2afc_practice_loop.thisIndex,trials_2afc_practice_loop.ran,path,correct_response,check_2afc.started,check_2afc.stopped,trial_2afc.started,trial_2afc.stopped,key_resp_2afc_trial.keys,key_resp_2afc_trial.corr,key_resp_2afc_trial.rt,key_resp_2afc_trial.duration,trials_2afc_loop.thisRepN,trials_2afc_loop.thisTrialN,trials_2afc_loop.thisN,trials_2afc_loop.thisIndex,trials_2afc_loop.ran,item_num,target,variety,instructions_lextale.started,instructions_lextale.stopped,instructions_lextale_loop.thisRepN,instructions_lextale_loop.thisTrialN,instructions_lextale_loop.thisN,instructions_lextale_loop.thisIndex,instructions_lextale_loop.ran,practice_lextale.started,practice_lextale.stopped,key_resp_lextale_practice.keys,key_resp_lextale_practice.corr,key_resp_lextale_practice.rt,key_resp_lextale_practice.duration,practice_feedback_lextale.started,practice_feedback_lextale.stopped,trials_lextale_practice_loop.thisRepN,trials_lextale_practice_loop.thisTrialN,trials_lextale_practice_loop.thisN,trials_lextale_practice_loop.thisIndex,trials_lextale_practice_loop.ran,stim,word,prac_button_real,prac_button_false,check_lextale.started,check_lextale.stopped,trial_lextale.started,trial_lextale.stopped,key_resp_lextale_trial.keys,key_resp_lextale_trial.corr,key_resp_lextale_trial.rt,key_resp_lextale_trial.duration,trials_lextale_loop.thisRepN,trials_lextale_loop.thisTrialN,trials_lextale_loop.thisN,trials_lextale_loop.thisIndex,trials_lextale_loop.ran,button_real,button_false,instructions_eq.started,instructions_eq.stopped,trial_eq.started,trial_eq.stopped,slider_eq_trial.response,trials_eq_loop.thisRepN,trials_eq_loop.thisTrialN,trials_eq_loop.thisN,trials_eq_loop.thisIndex,trials_eq_loop.ran,item,is_test_item,is_distractor,is_agree_score,is_disagree_score,end_exp.started,end_exp.stopped
0.0234,43.0075,0,0,0,0,1,"In the following task you are going to hear a series of utterances. 

  You will decide if the utterances sound like questions or not using your keyboard.", (press the spacebar to continue),6941dd757105f5612e78f1d3,Spanish,13 or older,"no, only English or Spanish",yes,2026-01-21_19h16.57.611,empathy_intonation_perc_control,2024.2.4,Win32,59.88023952,6941dd757105f5612e78f1d3,69712dc693a3960bdb483245,69716bef077f777182cb572c,,,,,,,,,,,,,,,,,,,,,,,,,,,,,,,,,,,,,,,,,,,,,,,,,,,,,,,,,,,,,,,,,,,,,,,,,,,,,,,,,,,,,
43.0133,54.6403,0,1,1,1,1,"If you believe the utterance is a question, type '1' (for 'yes') and if you do not 
  believe it is a question type '0' (for 'no').

  Let's practice a bit...", (press the spacebar to continue),6941dd757105f5612e78f1d3,Spanish,13 or older,"no, only English or Spanish",yes,2026-01-21_19h16.57.611,empathy_intonation_perc_control,2024.2.4,Win32,59.88023952,6941dd757105f5612e78f1d3,69712dc693a3960bdb483245,69716bef077f777182cb572c,,,,,,,,,,,,,,,,,,,,,,,,,,,,,,,,,,,,,,,,,,,,,,,,,,,,,,,,,,,,,,,,,,,,,,,,,,,,,,,,,,,,,
,,,,,,,,,6941dd757105f5612e78f1d3,Spanish,13 or older,"no, only English or Spanish",yes,2026-01-21_19h16.57.611,empathy_intonation_perc_control,2024.2.4,Win32,59.88023952,6941dd757105f5612e78f1d3,69712dc693a3960bdb483245,69716bef077f777182cb572c,54.6639,62.4219,0,0,7.2461,,0,0,0,0,1,./stim/wavs/castilian_question_filler_Mi-esposo-conoce-al-chico.wav,1,,,,,,,,,,,,,,,,,,,,,,,,,,,,,,,,,,,,,,,,,,,,,,,,,,,,,,,,,,,,,,,,,,,,,,,,
,,,,,,,,,6941dd757105f5612e78f1d3,Spanish,13 or older,"no, only English or Spanish",yes,2026-01-21_19h16.57.611,empathy_intonation_perc_control,2024.2.4,Win32,59.88023952,6941dd757105f5612e78f1d3,69712dc693a3960bdb483245,69716bef077f777182cb572c,62.4234,69.7983,0,1,6.8479,,0,1,1,5,1,./stim/wavs/andalusian_statement_filler_Alberto-nunca-se-afeita.wav,0,,,,,,,,,,,,,,,,,,,,,,,,,,,,,,,,,,,,,,,,,,,,,,,,,,,,,,,,,,,,,,,,,,,,,,,,
,,,,,,,,,6941dd757105f5612e78f1d3,Spanish,13 or older,"no, only English or Spanish",yes,2026-01-21_19h16.57.611,empathy_intonation_perc_control,2024.2.4,Win32,59.88023952,6941dd757105f5612e78f1d3,69712dc693a3960bdb483245,69716bef077f777182cb572c,69.7996,73.2642,1,1,2.921,,0,2,2,2,1,./stim/wavs/chilean_question_filler_Mi-padre-cantaba-bien.wav,1,,,,,,,,,,,,,,,,,,,,,,,,,,,,,,,,,,,,,,,,,,,,,,,,,,,,,,,,,,,,,,,,,,,,,,,,
,,,,,,,,,6941dd757105f5612e78f1d3,Spanish,13 or older,"no, only English or Spanish",yes,2026-01-21_19h16.57.611,empathy_intonation_perc_control,2024.2.4,Win32,59.88023952,6941dd757105f5612e78f1d3,69712dc693a3960bdb483245,69716bef077f777182cb572c,73.2658,79.4302,0,1,5.6495,,0,3,3,6,1,./stim/wavs/peruvian_statement_filler_El-nino-habla-con-su-madre.wav,0,,,,,,,,,,,,,,,,,,,,,,,,,,,,,,,,,,,,,,,,,,,,,,,,,,,,,,,,,,,,,,,,,,,,,,,,
,,,,,,,,,6941dd757105f5612e78f1d3,Spanish,13 or older,"no, only English or Spanish",yes,2026-01-21_19h16.57.611,empathy_intonation_perc_control,2024.2.4,Win32,59.88023952,6941dd757105f5612e78f1d3,69712dc693a3960bdb483245,69716bef077f777182cb572c,79.4317,82.4289,1,1,2.485,,0,4,4,3,1,./stim/wavs/mexican_question_filler_Felipe-no-tiene-contrasena.wav,1,,,,,,,,,,,,,,,,,,,,,,,,,,,,,,,,,,,,,,,,,,,,,,,,,,,,,,,,,,,,,,,,,,,,,,,,
,,,,,,,,,6941dd757105f5612e78f1d3,Spanish,13 or older,"no, only English or Spanish",yes,2026-01-21_19h16.57.611,empathy_intonation_perc_control,2024.2.4,Win32,59.88023952,6941dd757105f5612e78f1d3,69712dc693a3960bdb483245,69716bef077f777182cb572c,82.4301,85.3174,0,1,2.3791,,0,5,5,7,1,./stim/wavs/puertorican_statement_filler_La-nina-pinta-con-su-amiga.wav,0,,,,,,,,,,,,,,,,,,,,,,,,,,,,,,,,,,,,,,,,,,,,,,,,,,,,,,,,,,,,,,,,,,,,,,,,
,,,,,,,,,6941dd757105f5612e78f1d3,Spanish,13 or older,"no, only English or Spanish",yes,2026-01-21_19h16.57.611,empathy_intonation_perc_control,2024.2.4,Win32,59.88023952,6941dd757105f5612e78f1d3,69712dc693a3960bdb483245,69716bef077f777182cb572c,85.3185,88.766,0,0,2.9154,,0,6,6,1,1,./stim/wavs/argentine_question_filler_Mi-vecino-habla-mucho.wav,1,,,,,,,,,,,,,,,,,,,,,,,,,,,,,,,,,,,,,,,,,,,,,,,,,,,,,,,,,,,,,,,,,,,,,,,,
,,,,,,,,,6941dd757105f5612e78f1d3,Spanish,13 or older,"no, only English or Spanish",yes,2026-01-21_19h16.57.611,empathy_intonation_perc_control,2024.2.4,Win32,59.88023952,6941dd757105f5612e78f1d3,69712dc693a3960bdb483245,69716bef077f777182cb572c,88.767,91.7321,0,1,2.4324,,0,7,7,4,1,./stim/wavs/cuban_statement_filler_Cocinabas-por-la-noche.wav,0,,,,,,,,,,,,,,,,,,,,,,,,,,,,,,,,,,,,,,,,,,,,,,,,,,,,,,,,,,,,,,,,,,,,,,,,
,,,,,,,,,6941dd757105f5612e78f1d3,Spanish,13 or older,"no, only English or Spanish",yes,2026-01-21_19h16.57.611,empathy_intonation_perc_control,2024.2.4,Win32,59.88023952,6941dd757105f5612e78f1d3,69712dc693a3960bdb483245,69716bef077f777182cb572c,,,,,,,,,,,,,,91.7328,99.7808,,,,,,,,,,,,,,,,,,,,,,,,,,,,,,,,,,,,,,,,,,,,,,,,,,,,,,,,,,,,,,,,,,,,,,
,,,,,,,,,6941dd757105f5612e78f1d3,Spanish,13 or older,"no, only English or Spanish",yes,2026-01-21_19h16.57.611,empathy_intonation_perc_control,2024.2.4,Win32,59.88023952,6941dd757105f5612e78f1d3,69712dc693a3960bdb483245,69716bef077f777182cb572c,,,,,,,,,,,,./stim/wavs/mexican_match_declarative-broad-focus_Ana-lleva-el-abrigo.wav,0,,,99.802,101.8241,0,1,1.5028,,0,0,0,56,1,57,0,mexican,,,,,,,,,,,,,,,,,,,,,,,,,,,,,,,,,,,,,,,,,,,,,,,,,,,,,,,,
,,,,,,,,,6941dd757105f5612e78f1d3,Spanish,13 or older,"no, only English or Spanish",yes,2026-01-21_19h16.57.611,empathy_intonation_perc_control,2024.2.4,Win32,59.88023952,6941dd757105f5612e78f1d3,69712dc693a3960bdb483245,69716bef077f777182cb572c,,,,,,,,,,,,./stim/wavs/mexican_match_declarative-broad-focus_Mariano-habla-del-tiempo.wav,0,,,101.8255,104.0405,0,1,1.6826,,0,1,1,60,1,61,0,mexican,,,,,,,,,,,,,,,,,,,,,,,,,,,,,,,,,,,,,,,,,,,,,,,,,,,,,,,,
,,,,,,,,,6941dd757105f5612e78f1d3,Spanish,13 or older,"no, only English or Spanish",yes,2026-01-21_19h16.57.611,empathy_intonation_perc_control,2024.2.4,Win32,59.88023952,6941dd757105f5612e78f1d3,69712dc693a3960bdb483245,69716bef077f777182cb572c,,,,,,,,,,,,./stim/wavs/puertorican_mismatch_interrogative-total-yn_El-nino-oye-el-rio.wav,1,,,104.0416,106.3562,0,0,1.7889,,0,2,2,40,1,41,1,puertorican,,,,,,,,,,,,,,,,,,,,,,,,,,,,,,,,,,,,,,,,,,,,,,,,,,,,,,,,
,,,,,,,,,6941dd757105f5612e78f1d3,Spanish,13 or older,"no, only English or Spanish",yes,2026-01-21_19h16.57.611,empathy_intonation_perc_control,2024.2.4,Win32,59.88023952,6941dd757105f5612e78f1d3,69712dc693a3960bdb483245,69716bef077f777182cb572c,,,,,,,,,,,,./stim/wavs/castilian_match_declarative-broad-focus_Manuela-vende-el-carro.wav,0,,,106.3572,108.8056,0,1,1.9176,,0,3,3,46,1,47,0,castilian,,,,,,,,,,,,,,,,,,,,,,,,,,,,,,,,,,,,,,,,,,,,,,,,,,,,,,,,
,,,,,,,,,6941dd757105f5612e78f1d3,Spanish,13 or older,"no, only English or Spanish",yes,2026-01-21_19h16.57.611,empathy_intonation_perc_control,2024.2.4,Win32,59.88023952,6941dd757105f5612e78f1d3,69712dc693a3960bdb483245,69716bef077f777182cb572c,,,,,,,,,,,,./stim/wavs/cuban_mismatch_declarative-broad-focus_El-bebe-comia-muy-bien.wav,0,,,108.8066,111.0053,0,1,1.6654,,0,4,4,73,1,74,0,cuban,,,,,,,,,,,,,,,,,,,,,,,,,,,,,,,,,,,,,,,,,,,,,,,,,,,,,,,,
,,,,,,,,,6941dd757105f5612e78f1d3,Spanish,13 or older,"no, only English or Spanish",yes,2026-01-21_19h16.57.611,empathy_intonation_perc_control,2024.2.4,Win32,59.88023952,6941dd757105f5612e78f1d3,69712dc693a3960bdb483245,69716bef077f777182cb572c,,,,,,,,,,,,./stim/wavs/cuban_match_interrogative-total-yn_Mariano-habla-del-tiempo.wav,1,,,111.0063,113.3881,0,0,1.8527,,0,5,5,10,1,11,1,cuban,,,,,,,,,,,,,,,,,,,,,,,,,,,,,,,,,,,,,,,,,,,,,,,,,,,,,,,,
,,,,,,,,,6941dd757105f5612e78f1d3,Spanish,13 or older,"no, only English or Spanish",yes,2026-01-21_19h16.57.611,empathy_intonation_perc_control,2024.2.4,Win32,59.88023952,6941dd757105f5612e78f1d3,69712dc693a3960bdb483245,69716bef077f777182cb572c,,,,,,,,,,,,./stim/wavs/puertorican_mismatch_declarative-broad-focus_La-nina-lava-el-plato.wav,0,,,113.3894,115.7879,0,1,1.868,,0,6,6,87,1,88,0,puertorican,,,,,,,,,,,,,,,,,,,,,,,,,,,,,,,,,,,,,,,,,,,,,,,,,,,,,,,,
,,,,,,,,,6941dd757105f5612e78f1d3,Spanish,13 or older,"no, only English or Spanish",yes,2026-01-21_19h16.57.611,empathy_intonation_perc_control,2024.2.4,Win32,59.88023952,6941dd757105f5612e78f1d3,69712dc693a3960bdb483245,69716bef077f777182cb572c,,,,,,,,,,,,./stim/wavs/castilian_mismatch_declarative-broad-focus_La-maestra-vive-en-Paris.wav,0,,,115.7888,118.5371,1,0,2.2198,,0,7,7,69,1,70,0,castilian,,,,,,,,,,,,,,,,,,,,,,,,,,,,,,,,,,,,,,,,,,,,,,,,,,,,,,,,
,,,,,,,,,6941dd757105f5612e78f1d3,Spanish,13 or older,"no, only English or Spanish",yes,2026-01-21_19h16.57.611,empathy_intonation_perc_control,2024.2.4,Win32,59.88023952,6941dd757105f5612e78f1d3,69712dc693a3960bdb483245,69716bef077f777182cb572c,,,,,,,,,,,,./stim/wavs/castilian_mismatch_interrogative-total-yn_La-maestra-vive-en-Paris.wav,1,,,118.5379,121.5533,0,0,2.4852,,0,8,8,24,1,25,0,castilian,,,,,,,,,,,,,,,,,,,,,,,,,,,,,,,,,,,,,,,,,,,,,,,,,,,,,,,,
,,,,,,,,,6941dd757105f5612e78f1d3,Spanish,13 or older,"no, only English or Spanish",yes,2026-01-21_19h16.57.611,empathy_intonation_perc_control,2024.2.4,Win32,59.88023952,6941dd757105f5612e78f1d3,69712dc693a3960bdb483245,69716bef077f777182cb572c,,,,,,,,,,,,./stim/wavs/puertorican_match_declarative-broad-focus_David-leia-el-libro.wav,0,,,121.5545,123.8194,0,1,1.7332,,0,9,9,64,1,65,0,puertorican,,,,,,,,,,,,,,,,,,,,,,,,,,,,,,,,,,,,,,,,,,,,,,,,,,,,,,,,
,,,,,,,,,6941dd757105f5612e78f1d3,Spanish,13 or older,"no, only English or Spanish",yes,2026-01-21_19h16.57.611,empathy_intonation_perc_control,2024.2.4,Win32,59.88023952,6941dd757105f5612e78f1d3,69712dc693a3960bdb483245,69716bef077f777182cb572c,,,,,,,,,,,,./stim/wavs/puertorican_match_declarative-broad-focus_Daniel-iba-a-Bolivia.wav,0,,,123.8202,125.9197,0,1,1.5699,,0,10,10,63,1,64,0,puertorican,,,,,,,,,,,,,,,,,,,,,,,,,,,,,,,,,,,,,,,,,,,,,,,,,,,,,,,,
,,,,,,,,,6941dd757105f5612e78f1d3,Spanish,13 or older,"no, only English or Spanish",yes,2026-01-21_19h16.57.611,empathy_intonation_perc_control,2024.2.4,Win32,59.88023952,6941dd757105f5612e78f1d3,69712dc693a3960bdb483245,69716bef077f777182cb572c,,,,,,,,,,,,./stim/wavs/castilian_match_interrogative-total-yn_Emilio-ama-la-marcha.wav,1,,,125.9207,128.2019,1,1,1.7495,,0,11,11,1,1,2,0,castilian,,,,,,,,,,,,,,,,,,,,,,,,,,,,,,,,,,,,,,,,,,,,,,,,,,,,,,,,
,,,,,,,,,6941dd757105f5612e78f1d3,Spanish,13 or older,"no, only English or Spanish",yes,2026-01-21_19h16.57.611,empathy_intonation_perc_control,2024.2.4,Win32,59.88023952,6941dd757105f5612e78f1d3,69712dc693a3960bdb483245,69716bef077f777182cb572c,,,,,,,,,,,,./stim/wavs/cuban_match_interrogative-total-yn_Manuela-vende-el-carro.wav,1,,,128.2029,130.3015,0,0,1.5655,,0,12,12,8,1,9,1,cuban,,,,,,,,,,,,,,,,,,,,,,,,,,,,,,,,,,,,,,,,,,,,,,,,,,,,,,,,
,,,,,,,,,6941dd757105f5612e78f1d3,Spanish,13 or older,"no, only English or Spanish",yes,2026-01-21_19h16.57.611,empathy_intonation_perc_control,2024.2.4,Win32,59.88023952,6941dd757105f5612e78f1d3,69712dc693a3960bdb483245,69716bef077f777182cb572c,,,,,,,,,,,,./stim/wavs/puertorican_mismatch_declarative-broad-focus_El-bebe-comia-muy-bien.wav,0,,,130.3025,132.3675,0,1,1.5426,,0,13,13,83,1,84,0,puertorican,,,,,,,,,,,,,,,,,,,,,,,,,,,,,,,,,,,,,,,,,,,,,,,,,,,,,,,,
,,,,,,,,,6941dd757105f5612e78f1d3,Spanish,13 or older,"no, only English or Spanish",yes,2026-01-21_19h16.57.611,empathy_intonation_perc_control,2024.2.4,Win32,59.88023952,6941dd757105f5612e78f1d3,69712dc693a3960bdb483245,69716bef077f777182cb572c,,,,,,,,,,,,./stim/wavs/puertorican_mismatch_interrogative-total-yn_Mi-madre-come-la-fruta.wav,1,,,132.3685,134.4836,0,0,1.5913,,0,14,14,43,1,44,1,puertorican,,,,,,,,,,,,,,,,,,,,,,,,,,,,,,,,,,,,,,,,,,,,,,,,,,,,,,,,
,,,,,,,,,6941dd757105f5612e78f1d3,Spanish,13 or older,"no, only English or Spanish",yes,2026-01-21_19h16.57.611,empathy_intonation_perc_control,2024.2.4,Win32,59.88023952,6941dd757105f5612e78f1d3,69712dc693a3960bdb483245,69716bef077f777182cb572c,,,,,,,,,,,,./stim/wavs/puertorican_mismatch_declarative-broad-focus_La-maestra-vive-en-Paris.wav,0,,,134.4846,136.6336,0,1,1.6279,,0,15,15,86,1,87,0,puertorican,,,,,,,,,,,,,,,,,,,,,,,,,,,,,,,,,,,,,,,,,,,,,,,,,,,,,,,,
,,,,,,,,,6941dd757105f5612e78f1d3,Spanish,13 or older,"no, only English or Spanish",yes,2026-01-21_19h16.57.611,empathy_intonation_perc_control,2024.2.4,Win32,59.88023952,6941dd757105f5612e78f1d3,69712dc693a3960bdb483245,69716bef077f777182cb572c,,,,,,,,,,,,./stim/wavs/cuban_mismatch_interrogative-total-yn_El-nino-oye-el-rio.wav,1,,,136.6348,138.5666,0,0,1.403,,0,16,16,30,1,31,1,cuban,,,,,,,,,,,,,,,,,,,,,,,,,,,,,,,,,,,,,,,,,,,,,,,,,,,,,,,,
,,,,,,,,,6941dd757105f5612e78f1d3,Spanish,13 or older,"no, only English or Spanish",yes,2026-01-21_19h16.57.611,empathy_intonation_perc_control,2024.2.4,Win32,59.88023952,6941dd757105f5612e78f1d3,69712dc693a3960bdb483245,69716bef077f777182cb572c,,,,,,,,,,,,./stim/wavs/mexican_mismatch_interrogative-total-yn_Mi-novio-viene-del-lago.wav,1,,,138.5676,140.6333,1,1,1.5341,,0,17,17,37,1,38,0,mexican,,,,,,,,,,,,,,,,,,,,,,,,,,,,,,,,,,,,,,,,,,,,,,,,,,,,,,,,
,,,,,,,,,6941dd757105f5612e78f1d3,Spanish,13 or older,"no, only English or Spanish",yes,2026-01-21_19h16.57.611,empathy_intonation_perc_control,2024.2.4,Win32,59.88023952,6941dd757105f5612e78f1d3,69712dc693a3960bdb483245,69716bef077f777182cb572c,,,,,,,,,,,,./stim/wavs/puertorican_mismatch_interrogative-total-yn_El-hombre-mira-la-luna.wav,1,,,140.6342,142.6526,1,1,1.4977,,0,18,18,39,1,40,1,puertorican,,,,,,,,,,,,,,,,,,,,,,,,,,,,,,,,,,,,,,,,,,,,,,,,,,,,,,,,
,,,,,,,,,6941dd757105f5612e78f1d3,Spanish,13 or older,"no, only English or Spanish",yes,2026-01-21_19h16.57.611,empathy_intonation_perc_control,2024.2.4,Win32,59.88023952,6941dd757105f5612e78f1d3,69712dc693a3960bdb483245,69716bef077f777182cb572c,,,,,,,,,,,,./stim/wavs/castilian_match_interrogative-total-yn_Mariano-habla-del-tiempo.wav,1,,,142.6531,145.0005,1,1,1.8323,,0,19,19,4,1,5,0,castilian,,,,,,,,,,,,,,,,,,,,,,,,,,,,,,,,,,,,,,,,,,,,,,,,,,,,,,,,
,,,,,,,,,6941dd757105f5612e78f1d3,Spanish,13 or older,"no, only English or Spanish",yes,2026-01-21_19h16.57.611,empathy_intonation_perc_control,2024.2.4,Win32,59.88023952,6941dd757105f5612e78f1d3,69712dc693a3960bdb483245,69716bef077f777182cb572c,,,,,,,,,,,,./stim/wavs/castilian_mismatch_interrogative-total-yn_Mi-tia-odia-la-lluvia.wav,1,,,145.0015,147.2326,1,1,1.7041,,0,20,20,28,1,29,0,castilian,,,,,,,,,,,,,,,,,,,,,,,,,,,,,,,,,,,,,,,,,,,,,,,,,,,,,,,,
,,,,,,,,,6941dd757105f5612e78f1d3,Spanish,13 or older,"no, only English or Spanish",yes,2026-01-21_19h16.57.611,empathy_intonation_perc_control,2024.2.4,Win32,59.88023952,6941dd757105f5612e78f1d3,69712dc693a3960bdb483245,69716bef077f777182cb572c,,,,,,,,,,,,./stim/wavs/puertorican_mismatch_interrogative-total-yn_La-nina-lava-el-plato.wav,1,,,147.2338,149.3156,0,0,1.558,,0,21,21,42,1,43,1,puertorican,,,,,,,,,,,,,,,,,,,,,,,,,,,,,,,,,,,,,,,,,,,,,,,,,,,,,,,,
,,,,,,,,,6941dd757105f5612e78f1d3,Spanish,13 or older,"no, only English or Spanish",yes,2026-01-21_19h16.57.611,empathy_intonation_perc_control,2024.2.4,Win32,59.88023952,6941dd757105f5612e78f1d3,69712dc693a3960bdb483245,69716bef077f777182cb572c,,,,,,,,,,,,./stim/wavs/cuban_mismatch_interrogative-total-yn_Mi-tia-odia-la-lluvia.wav,1,,,149.3169,151.2813,0,0,1.4403,,0,22,22,33,1,34,1,cuban,,,,,,,,,,,,,,,,,,,,,,,,,,,,,,,,,,,,,,,,,,,,,,,,,,,,,,,,
,,,,,,,,,6941dd757105f5612e78f1d3,Spanish,13 or older,"no, only English or Spanish",yes,2026-01-21_19h16.57.611,empathy_intonation_perc_control,2024.2.4,Win32,59.88023952,6941dd757105f5612e78f1d3,69712dc693a3960bdb483245,69716bef077f777182cb572c,,,,,,,,,,,,./stim/wavs/castilian_mismatch_declarative-broad-focus_Mi-tia-odia-la-lluvia.wav,0,,,151.2828,153.3649,0,1,1.5569,,0,23,23,72,1,73,0,castilian,,,,,,,,,,,,,,,,,,,,,,,,,,,,,,,,,,,,,,,,,,,,,,,,,,,,,,,,
,,,,,,,,,6941dd757105f5612e78f1d3,Spanish,13 or older,"no, only English or Spanish",yes,2026-01-21_19h16.57.611,empathy_intonation_perc_control,2024.2.4,Win32,59.88023952,6941dd757105f5612e78f1d3,69712dc693a3960bdb483245,69716bef077f777182cb572c,,,,,,,,,,,,./stim/wavs/mexican_mismatch_interrogative-total-yn_Mi-tia-odia-la-lluvia.wav,1,,,153.3656,155.3814,0,0,1.4848,,0,24,24,38,1,39,0,mexican,,,,,,,,,,,,,,,,,,,,,,,,,,,,,,,,,,,,,,,,,,,,,,,,,,,,,,,,
,,,,,,,,,6941dd757105f5612e78f1d3,Spanish,13 or older,"no, only English or Spanish",yes,2026-01-21_19h16.57.611,empathy_intonation_perc_control,2024.2.4,Win32,59.88023952,6941dd757105f5612e78f1d3,69712dc693a3960bdb483245,69716bef077f777182cb572c,,,,,,,,,,,,./stim/wavs/castilian_match_interrogative-total-yn_Maria-bebe-el-vino.wav,1,,,155.3825,157.4368,1,1,1.5452,,0,25,25,3,1,4,0,castilian,,,,,,,,,,,,,,,,,,,,,,,,,,,,,,,,,,,,,,,,,,,,,,,,,,,,,,,,
,,,,,,,,,6941dd757105f5612e78f1d3,Spanish,13 or older,"no, only English or Spanish",yes,2026-01-21_19h16.57.611,empathy_intonation_perc_control,2024.2.4,Win32,59.88023952,6941dd757105f5612e78f1d3,69712dc693a3960bdb483245,69716bef077f777182cb572c,,,,,,,,,,,,./stim/wavs/puertorican_mismatch_declarative-broad-focus_El-nino-oye-el-rio.wav,0,,,157.4377,159.4475,0,1,1.4844,,0,26,26,85,1,86,0,puertorican,,,,,,,,,,,,,,,,,,,,,,,,,,,,,,,,,,,,,,,,,,,,,,,,,,,,,,,,
,,,,,,,,,6941dd757105f5612e78f1d3,Spanish,13 or older,"no, only English or Spanish",yes,2026-01-21_19h16.57.611,empathy_intonation_perc_control,2024.2.4,Win32,59.88023952,6941dd757105f5612e78f1d3,69712dc693a3960bdb483245,69716bef077f777182cb572c,,,,,,,,,,,,./stim/wavs/puertorican_match_interrogative-total-yn_Maria-bebe-el-vino.wav,1,,,159.4485,161.3999,1,1,1.4415,,0,27,27,23,1,24,1,puertorican,,,,,,,,,,,,,,,,,,,,,,,,,,,,,,,,,,,,,,,,,,,,,,,,,,,,,,,,
,,,,,,,,,6941dd757105f5612e78f1d3,Spanish,13 or older,"no, only English or Spanish",yes,2026-01-21_19h16.57.611,empathy_intonation_perc_control,2024.2.4,Win32,59.88023952,6941dd757105f5612e78f1d3,69712dc693a3960bdb483245,69716bef077f777182cb572c,,,,,,,,,,,,./stim/wavs/mexican_mismatch_declarative-broad-focus_El-bebe-comia-muy-bien.wav,0,,,161.4008,163.6469,0,1,1.7176,,0,28,28,78,1,79,0,mexican,,,,,,,,,,,,,,,,,,,,,,,,,,,,,,,,,,,,,,,,,,,,,,,,,,,,,,,,
,,,,,,,,,6941dd757105f5612e78f1d3,Spanish,13 or older,"no, only English or Spanish",yes,2026-01-21_19h16.57.611,empathy_intonation_perc_control,2024.2.4,Win32,59.88023952,6941dd757105f5612e78f1d3,69712dc693a3960bdb483245,69716bef077f777182cb572c,,,,,,,,,,,,./stim/wavs/castilian_mismatch_interrogative-total-yn_Mi-madre-come-la-fruta.wav,1,,,163.6476,165.9295,1,1,1.7347,,0,29,29,26,1,27,0,castilian,,,,,,,,,,,,,,,,,,,,,,,,,,,,,,,,,,,,,,,,,,,,,,,,,,,,,,,,
,,,,,,,,,6941dd757105f5612e78f1d3,Spanish,13 or older,"no, only English or Spanish",yes,2026-01-21_19h16.57.611,empathy_intonation_perc_control,2024.2.4,Win32,59.88023952,6941dd757105f5612e78f1d3,69712dc693a3960bdb483245,69716bef077f777182cb572c,,,,,,,,,,,,./stim/wavs/cuban_mismatch_declarative-broad-focus_Mi-tia-odia-la-lluvia.wav,0,,,165.9306,168.0977,0,1,1.6577,,0,30,30,77,1,78,0,cuban,,,,,,,,,,,,,,,,,,,,,,,,,,,,,,,,,,,,,,,,,,,,,,,,,,,,,,,,
,,,,,,,,,6941dd757105f5612e78f1d3,Spanish,13 or older,"no, only English or Spanish",yes,2026-01-21_19h16.57.611,empathy_intonation_perc_control,2024.2.4,Win32,59.88023952,6941dd757105f5612e78f1d3,69712dc693a3960bdb483245,69716bef077f777182cb572c,,,,,,,,,,,,./stim/wavs/cuban_match_declarative-broad-focus_Marta-abre-el-regalo.wav,0,,,168.0985,170.228,0,1,1.6004,,0,31,31,55,1,56,0,cuban,,,,,,,,,,,,,,,,,,,,,,,,,,,,,,,,,,,,,,,,,,,,,,,,,,,,,,,,
,,,,,,,,,6941dd757105f5612e78f1d3,Spanish,13 or older,"no, only English or Spanish",yes,2026-01-21_19h16.57.611,empathy_intonation_perc_control,2024.2.4,Win32,59.88023952,6941dd757105f5612e78f1d3,69712dc693a3960bdb483245,69716bef077f777182cb572c,,,,,,,,,,,,./stim/wavs/cuban_match_declarative-broad-focus_Maria-bebe-el-vino.wav,0,,,170.2294,172.2002,0,1,1.4609,,0,32,32,53,1,54,0,cuban,,,,,,,,,,,,,,,,,,,,,,,,,,,,,,,,,,,,,,,,,,,,,,,,,,,,,,,,
,,,,,,,,,6941dd757105f5612e78f1d3,Spanish,13 or older,"no, only English or Spanish",yes,2026-01-21_19h16.57.611,empathy_intonation_perc_control,2024.2.4,Win32,59.88023952,6941dd757105f5612e78f1d3,69712dc693a3960bdb483245,69716bef077f777182cb572c,,,,,,,,,,,,./stim/wavs/castilian_match_declarative-broad-focus_David-leia-el-libro.wav,0,,,172.2014,174.3774,0,1,1.6527,,0,33,33,44,1,45,0,castilian,,,,,,,,,,,,,,,,,,,,,,,,,,,,,,,,,,,,,,,,,,,,,,,,,,,,,,,,
,,,,,,,,,6941dd757105f5612e78f1d3,Spanish,13 or older,"no, only English or Spanish",yes,2026-01-21_19h16.57.611,empathy_intonation_perc_control,2024.2.4,Win32,59.88023952,6941dd757105f5612e78f1d3,69712dc693a3960bdb483245,69716bef077f777182cb572c,,,,,,,,,,,,./stim/wavs/mexican_match_interrogative-total-yn_David-leia-el-libro.wav,1,,,174.3786,176.3994,1,1,1.5109,,0,34,34,14,1,15,0,mexican,,,,,,,,,,,,,,,,,,,,,,,,,,,,,,,,,,,,,,,,,,,,,,,,,,,,,,,,
,,,,,,,,,6941dd757105f5612e78f1d3,Spanish,13 or older,"no, only English or Spanish",yes,2026-01-21_19h16.57.611,empathy_intonation_perc_control,2024.2.4,Win32,59.88023952,6941dd757105f5612e78f1d3,69712dc693a3960bdb483245,69716bef077f777182cb572c,,,,,,,,,,,,./stim/wavs/mexican_mismatch_interrogative-total-yn_La-maestra-vive-en-Paris.wav,1,,,176.4003,178.5154,1,1,1.5984,,0,35,35,36,1,37,0,mexican,,,,,,,,,,,,,,,,,,,,,,,,,,,,,,,,,,,,,,,,,,,,,,,,,,,,,,,,
,,,,,,,,,6941dd757105f5612e78f1d3,Spanish,13 or older,"no, only English or Spanish",yes,2026-01-21_19h16.57.611,empathy_intonation_perc_control,2024.2.4,Win32,59.88023952,6941dd757105f5612e78f1d3,69712dc693a3960bdb483245,69716bef077f777182cb572c,,,,,,,,,,,,./stim/wavs/cuban_match_declarative-broad-focus_Daniel-iba-a-Bolivia.wav,0,,,178.5163,180.6768,0,1,1.6406,,0,36,36,51,1,52,0,cuban,,,,,,,,,,,,,,,,,,,,,,,,,,,,,,,,,,,,,,,,,,,,,,,,,,,,,,,,
,,,,,,,,,6941dd757105f5612e78f1d3,Spanish,13 or older,"no, only English or Spanish",yes,2026-01-21_19h16.57.611,empathy_intonation_perc_control,2024.2.4,Win32,59.88023952,6941dd757105f5612e78f1d3,69712dc693a3960bdb483245,69716bef077f777182cb572c,,,,,,,,,,,,./stim/wavs/mexican_mismatch_declarative-broad-focus_El-hombre-mira-la-luna.wav,0,,,180.6776,182.7481,0,1,1.5614,,0,37,37,79,1,80,0,mexican,,,,,,,,,,,,,,,,,,,,,,,,,,,,,,,,,,,,,,,,,,,,,,,,,,,,,,,,
,,,,,,,,,6941dd757105f5612e78f1d3,Spanish,13 or older,"no, only English or Spanish",yes,2026-01-21_19h16.57.611,empathy_intonation_perc_control,2024.2.4,Win32,59.88023952,6941dd757105f5612e78f1d3,69712dc693a3960bdb483245,69716bef077f777182cb572c,,,,,,,,,,,,./stim/wavs/mexican_match_interrogative-total-yn_Ana-lleva-el-abrigo.wav,1,,,182.749,184.6976,1,1,1.4162,,0,38,38,12,1,13,0,mexican,,,,,,,,,,,,,,,,,,,,,,,,,,,,,,,,,,,,,,,,,,,,,,,,,,,,,,,,
,,,,,,,,,6941dd757105f5612e78f1d3,Spanish,13 or older,"no, only English or Spanish",yes,2026-01-21_19h16.57.611,empathy_intonation_perc_control,2024.2.4,Win32,59.88023952,6941dd757105f5612e78f1d3,69712dc693a3960bdb483245,69716bef077f777182cb572c,,,,,,,,,,,,./stim/wavs/mexican_match_declarative-broad-focus_David-leia-el-libro.wav,0,,,184.6984,186.8643,0,1,1.6341,,0,39,39,58,1,59,0,mexican,,,,,,,,,,,,,,,,,,,,,,,,,,,,,,,,,,,,,,,,,,,,,,,,,,,,,,,,
,,,,,,,,,6941dd757105f5612e78f1d3,Spanish,13 or older,"no, only English or Spanish",yes,2026-01-21_19h16.57.611,empathy_intonation_perc_control,2024.2.4,Win32,59.88023952,6941dd757105f5612e78f1d3,69712dc693a3960bdb483245,69716bef077f777182cb572c,,,,,,,,,,,,./stim/wavs/castilian_mismatch_interrogative-total-yn_Mi-novio-viene-del-lago.wav,1,,,186.8655,189.1076,0,0,1.7177,,0,40,40,27,1,28,0,castilian,,,,,,,,,,,,,,,,,,,,,,,,,,,,,,,,,,,,,,,,,,,,,,,,,,,,,,,,
,,,,,,,,,6941dd757105f5612e78f1d3,Spanish,13 or older,"no, only English or Spanish",yes,2026-01-21_19h16.57.611,empathy_intonation_perc_control,2024.2.4,Win32,59.88023952,6941dd757105f5612e78f1d3,69712dc693a3960bdb483245,69716bef077f777182cb572c,,,,,,,,,,,,./stim/wavs/mexican_match_declarative-broad-focus_Marta-abre-el-regalo.wav,0,,,189.109,191.1598,0,1,1.5143,,0,41,41,61,1,62,0,mexican,,,,,,,,,,,,,,,,,,,,,,,,,,,,,,,,,,,,,,,,,,,,,,,,,,,,,,,,
,,,,,,,,,6941dd757105f5612e78f1d3,Spanish,13 or older,"no, only English or Spanish",yes,2026-01-21_19h16.57.611,empathy_intonation_perc_control,2024.2.4,Win32,59.88023952,6941dd757105f5612e78f1d3,69712dc693a3960bdb483245,69716bef077f777182cb572c,,,,,,,,,,,,./stim/wavs/castilian_match_declarative-broad-focus_Emilio-ama-la-marcha.wav,0,,,191.1609,193.4294,0,1,1.7342,,0,42,42,45,1,46,0,castilian,,,,,,,,,,,,,,,,,,,,,,,,,,,,,,,,,,,,,,,,,,,,,,,,,,,,,,,,
,,,,,,,,,6941dd757105f5612e78f1d3,Spanish,13 or older,"no, only English or Spanish",yes,2026-01-21_19h16.57.611,empathy_intonation_perc_control,2024.2.4,Win32,59.88023952,6941dd757105f5612e78f1d3,69712dc693a3960bdb483245,69716bef077f777182cb572c,,,,,,,,,,,,./stim/wavs/cuban_mismatch_interrogative-total-yn_El-hombre-mira-la-luna.wav,1,,,193.4303,195.2609,0,0,1.3106,,0,43,43,29,1,30,1,cuban,,,,,,,,,,,,,,,,,,,,,,,,,,,,,,,,,,,,,,,,,,,,,,,,,,,,,,,,
,,,,,,,,,6941dd757105f5612e78f1d3,Spanish,13 or older,"no, only English or Spanish",yes,2026-01-21_19h16.57.611,empathy_intonation_perc_control,2024.2.4,Win32,59.88023952,6941dd757105f5612e78f1d3,69712dc693a3960bdb483245,69716bef077f777182cb572c,,,,,,,,,,,,./stim/wavs/mexican_match_interrogative-total-yn_Daniel-iba-a-Bolivia.wav,1,,,195.2615,197.2956,1,1,1.5003,,0,44,44,13,1,14,0,mexican,,,,,,,,,,,,,,,,,,,,,,,,,,,,,,,,,,,,,,,,,,,,,,,,,,,,,,,,
,,,,,,,,,6941dd757105f5612e78f1d3,Spanish,13 or older,"no, only English or Spanish",yes,2026-01-21_19h16.57.611,empathy_intonation_perc_control,2024.2.4,Win32,59.88023952,6941dd757105f5612e78f1d3,69712dc693a3960bdb483245,69716bef077f777182cb572c,,,,,,,,,,,,./stim/wavs/castilian_match_declarative-broad-focus_Marta-abre-el-regalo.wav,0,,,197.2965,199.4604,0,1,1.6481,,0,45,45,49,1,50,0,castilian,,,,,,,,,,,,,,,,,,,,,,,,,,,,,,,,,,,,,,,,,,,,,,,,,,,,,,,,
,,,,,,,,,6941dd757105f5612e78f1d3,Spanish,13 or older,"no, only English or Spanish",yes,2026-01-21_19h16.57.611,empathy_intonation_perc_control,2024.2.4,Win32,59.88023952,6941dd757105f5612e78f1d3,69712dc693a3960bdb483245,69716bef077f777182cb572c,,,,,,,,,,,,./stim/wavs/cuban_match_interrogative-total-yn_Ana-lleva-el-abrigo.wav,1,,,199.4613,201.2893,0,0,1.3017,,0,46,46,6,1,7,1,cuban,,,,,,,,,,,,,,,,,,,,,,,,,,,,,,,,,,,,,,,,,,,,,,,,,,,,,,,,
,,,,,,,,,6941dd757105f5612e78f1d3,Spanish,13 or older,"no, only English or Spanish",yes,2026-01-21_19h16.57.611,empathy_intonation_perc_control,2024.2.4,Win32,59.88023952,6941dd757105f5612e78f1d3,69712dc693a3960bdb483245,69716bef077f777182cb572c,,,,,,,,,,,,./stim/wavs/puertorican_mismatch_declarative-broad-focus_El-hombre-mira-la-luna.wav,0,,,201.2903,203.2377,0,1,1.4023,,0,47,47,84,1,85,0,puertorican,,,,,,,,,,,,,,,,,,,,,,,,,,,,,,,,,,,,,,,,,,,,,,,,,,,,,,,,
,,,,,,,,,6941dd757105f5612e78f1d3,Spanish,13 or older,"no, only English or Spanish",yes,2026-01-21_19h16.57.611,empathy_intonation_perc_control,2024.2.4,Win32,59.88023952,6941dd757105f5612e78f1d3,69712dc693a3960bdb483245,69716bef077f777182cb572c,,,,,,,,,,,,./stim/wavs/cuban_mismatch_declarative-broad-focus_Mi-novio-viene-del-lago.wav,0,,,203.2393,205.3204,0,1,1.5533,,0,48,48,76,1,77,0,cuban,,,,,,,,,,,,,,,,,,,,,,,,,,,,,,,,,,,,,,,,,,,,,,,,,,,,,,,,
,,,,,,,,,6941dd757105f5612e78f1d3,Spanish,13 or older,"no, only English or Spanish",yes,2026-01-21_19h16.57.611,empathy_intonation_perc_control,2024.2.4,Win32,59.88023952,6941dd757105f5612e78f1d3,69712dc693a3960bdb483245,69716bef077f777182cb572c,,,,,,,,,,,,./stim/wavs/mexican_match_declarative-broad-focus_Emilio-ama-la-marcha.wav,0,,,205.3212,207.403,0,1,1.5584,,0,49,49,59,1,60,0,mexican,,,,,,,,,,,,,,,,,,,,,,,,,,,,,,,,,,,,,,,,,,,,,,,,,,,,,,,,
,,,,,,,,,6941dd757105f5612e78f1d3,Spanish,13 or older,"no, only English or Spanish",yes,2026-01-21_19h16.57.611,empathy_intonation_perc_control,2024.2.4,Win32,59.88023952,6941dd757105f5612e78f1d3,69712dc693a3960bdb483245,69716bef077f777182cb572c,,,,,,,,,,,,./stim/wavs/castilian_match_declarative-broad-focus_Maria-bebe-el-vino.wav,0,,,207.405,209.4356,0,1,1.5076,,0,50,50,47,1,48,0,castilian,,,,,,,,,,,,,,,,,,,,,,,,,,,,,,,,,,,,,,,,,,,,,,,,,,,,,,,,
,,,,,,,,,6941dd757105f5612e78f1d3,Spanish,13 or older,"no, only English or Spanish",yes,2026-01-21_19h16.57.611,empathy_intonation_perc_control,2024.2.4,Win32,59.88023952,6941dd757105f5612e78f1d3,69712dc693a3960bdb483245,69716bef077f777182cb572c,,,,,,,,,,,,./stim/wavs/cuban_match_interrogative-total-yn_Marta-abre-el-regalo.wav,1,,,209.4368,211.3689,0,0,1.3997,,0,51,51,11,1,12,1,cuban,,,,,,,,,,,,,,,,,,,,,,,,,,,,,,,,,,,,,,,,,,,,,,,,,,,,,,,,
,,,,,,,,,6941dd757105f5612e78f1d3,Spanish,13 or older,"no, only English or Spanish",yes,2026-01-21_19h16.57.611,empathy_intonation_perc_control,2024.2.4,Win32,59.88023952,6941dd757105f5612e78f1d3,69712dc693a3960bdb483245,69716bef077f777182cb572c,,,,,,,,,,,,./stim/wavs/cuban_match_interrogative-total-yn_Daniel-iba-a-Bolivia.wav,1,,,211.3699,213.3521,0,0,1.449,,0,52,52,7,1,8,1,cuban,,,,,,,,,,,,,,,,,,,,,,,,,,,,,,,,,,,,,,,,,,,,,,,,,,,,,,,,
,,,,,,,,,6941dd757105f5612e78f1d3,Spanish,13 or older,"no, only English or Spanish",yes,2026-01-21_19h16.57.611,empathy_intonation_perc_control,2024.2.4,Win32,59.88023952,6941dd757105f5612e78f1d3,69712dc693a3960bdb483245,69716bef077f777182cb572c,,,,,,,,,,,,./stim/wavs/castilian_match_interrogative-total-yn_Marta-abre-el-regalo.wav,1,,,213.3536,215.4682,1,1,1.5845,,0,53,53,5,1,6,0,castilian,,,,,,,,,,,,,,,,,,,,,,,,,,,,,,,,,,,,,,,,,,,,,,,,,,,,,,,,
,,,,,,,,,6941dd757105f5612e78f1d3,Spanish,13 or older,"no, only English or Spanish",yes,2026-01-21_19h16.57.611,empathy_intonation_perc_control,2024.2.4,Win32,59.88023952,6941dd757105f5612e78f1d3,69712dc693a3960bdb483245,69716bef077f777182cb572c,,,,,,,,,,,,./stim/wavs/mexican_mismatch_declarative-broad-focus_La-maestra-vive-en-Paris.wav,0,,,215.4702,217.5511,0,1,1.5503,,0,54,54,80,1,81,0,mexican,,,,,,,,,,,,,,,,,,,,,,,,,,,,,,,,,,,,,,,,,,,,,,,,,,,,,,,,
,,,,,,,,,6941dd757105f5612e78f1d3,Spanish,13 or older,"no, only English or Spanish",yes,2026-01-21_19h16.57.611,empathy_intonation_perc_control,2024.2.4,Win32,59.88023952,6941dd757105f5612e78f1d3,69712dc693a3960bdb483245,69716bef077f777182cb572c,,,,,,,,,,,,./stim/wavs/mexican_mismatch_declarative-broad-focus_Mi-novio-viene-del-lago.wav,0,,,217.5528,219.5508,0,1,1.4694,,0,55,55,81,1,82,0,mexican,,,,,,,,,,,,,,,,,,,,,,,,,,,,,,,,,,,,,,,,,,,,,,,,,,,,,,,,
,,,,,,,,,6941dd757105f5612e78f1d3,Spanish,13 or older,"no, only English or Spanish",yes,2026-01-21_19h16.57.611,empathy_intonation_perc_control,2024.2.4,Win32,59.88023952,6941dd757105f5612e78f1d3,69712dc693a3960bdb483245,69716bef077f777182cb572c,,,,,,,,,,,,./stim/wavs/cuban_match_declarative-broad-focus_Manuela-vende-el-carro.wav,0,,,219.5523,221.6335,0,1,1.5533,,0,56,56,52,1,53,0,cuban,,,,,,,,,,,,,,,,,,,,,,,,,,,,,,,,,,,,,,,,,,,,,,,,,,,,,,,,
,,,,,,,,,6941dd757105f5612e78f1d3,Spanish,13 or older,"no, only English or Spanish",yes,2026-01-21_19h16.57.611,empathy_intonation_perc_control,2024.2.4,Win32,59.88023952,6941dd757105f5612e78f1d3,69712dc693a3960bdb483245,69716bef077f777182cb572c,,,,,,,,,,,,./stim/wavs/mexican_mismatch_declarative-broad-focus_Mi-tia-odia-la-lluvia.wav,0,,,221.6344,223.5664,0,1,1.4008,,0,57,57,82,1,83,0,mexican,,,,,,,,,,,,,,,,,,,,,,,,,,,,,,,,,,,,,,,,,,,,,,,,,,,,,,,,
,,,,,,,,,6941dd757105f5612e78f1d3,Spanish,13 or older,"no, only English or Spanish",yes,2026-01-21_19h16.57.611,empathy_intonation_perc_control,2024.2.4,Win32,59.88023952,6941dd757105f5612e78f1d3,69712dc693a3960bdb483245,69716bef077f777182cb572c,,,,,,,,,,,,./stim/wavs/castilian_mismatch_declarative-broad-focus_El-nino-oye-el-rio.wav,0,,,223.5676,225.6492,0,1,1.5554,,0,58,58,68,1,69,0,castilian,,,,,,,,,,,,,,,,,,,,,,,,,,,,,,,,,,,,,,,,,,,,,,,,,,,,,,,,
,,,,,,,,,6941dd757105f5612e78f1d3,Spanish,13 or older,"no, only English or Spanish",yes,2026-01-21_19h16.57.611,empathy_intonation_perc_control,2024.2.4,Win32,59.88023952,6941dd757105f5612e78f1d3,69712dc693a3960bdb483245,69716bef077f777182cb572c,,,,,,,,,,,,./stim/wavs/mexican_mismatch_interrogative-total-yn_El-nino-oye-el-rio.wav,1,,,225.6501,227.4659,0,0,1.2874,,0,59,59,35,1,36,0,mexican,,,,,,,,,,,,,,,,,,,,,,,,,,,,,,,,,,,,,,,,,,,,,,,,,,,,,,,,
,,,,,,,,,6941dd757105f5612e78f1d3,Spanish,13 or older,"no, only English or Spanish",yes,2026-01-21_19h16.57.611,empathy_intonation_perc_control,2024.2.4,Win32,59.88023952,6941dd757105f5612e78f1d3,69712dc693a3960bdb483245,69716bef077f777182cb572c,,,,,,,,,,,,./stim/wavs/puertorican_match_declarative-broad-focus_Ana-lleva-el-abrigo.wav,0,,,227.4668,229.2985,0,1,1.2994,,0,60,60,62,1,63,0,puertorican,,,,,,,,,,,,,,,,,,,,,,,,,,,,,,,,,,,,,,,,,,,,,,,,,,,,,,,,
,,,,,,,,,6941dd757105f5612e78f1d3,Spanish,13 or older,"no, only English or Spanish",yes,2026-01-21_19h16.57.611,empathy_intonation_perc_control,2024.2.4,Win32,59.88023952,6941dd757105f5612e78f1d3,69712dc693a3960bdb483245,69716bef077f777182cb572c,,,,,,,,,,,,./stim/wavs/castilian_mismatch_interrogative-total-yn_La-nina-lava-el-plato.wav,1,,,229.299,231.3814,0,0,1.5546,,0,61,61,25,1,26,0,castilian,,,,,,,,,,,,,,,,,,,,,,,,,,,,,,,,,,,,,,,,,,,,,,,,,,,,,,,,
,,,,,,,,,6941dd757105f5612e78f1d3,Spanish,13 or older,"no, only English or Spanish",yes,2026-01-21_19h16.57.611,empathy_intonation_perc_control,2024.2.4,Win32,59.88023952,6941dd757105f5612e78f1d3,69712dc693a3960bdb483245,69716bef077f777182cb572c,,,,,,,,,,,,./stim/wavs/castilian_mismatch_declarative-broad-focus_La-nina-lava-el-plato.wav,0,,,231.3823,233.2974,1,0,1.3898,,0,62,62,70,1,71,0,castilian,,,,,,,,,,,,,,,,,,,,,,,,,,,,,,,,,,,,,,,,,,,,,,,,,,,,,,,,
,,,,,,,,,6941dd757105f5612e78f1d3,Spanish,13 or older,"no, only English or Spanish",yes,2026-01-21_19h16.57.611,empathy_intonation_perc_control,2024.2.4,Win32,59.88023952,6941dd757105f5612e78f1d3,69712dc693a3960bdb483245,69716bef077f777182cb572c,,,,,,,,,,,,./stim/wavs/castilian_match_interrogative-total-yn_David-leia-el-libro.wav,1,,,233.2981,235.3649,1,1,1.5421,,0,63,63,0,1,1,0,castilian,,,,,,,,,,,,,,,,,,,,,,,,,,,,,,,,,,,,,,,,,,,,,,,,,,,,,,,,
,,,,,,,,,6941dd757105f5612e78f1d3,Spanish,13 or older,"no, only English or Spanish",yes,2026-01-21_19h16.57.611,empathy_intonation_perc_control,2024.2.4,Win32,59.88023952,6941dd757105f5612e78f1d3,69712dc693a3960bdb483245,69716bef077f777182cb572c,,,,,,,,,,,,./stim/wavs/puertorican_match_interrogative-total-yn_Ana-lleva-el-abrigo.wav,1,,,235.3665,237.1471,1,1,1.2513,,0,64,64,18,1,19,1,puertorican,,,,,,,,,,,,,,,,,,,,,,,,,,,,,,,,,,,,,,,,,,,,,,,,,,,,,,,,
,,,,,,,,,6941dd757105f5612e78f1d3,Spanish,13 or older,"no, only English or Spanish",yes,2026-01-21_19h16.57.611,empathy_intonation_perc_control,2024.2.4,Win32,59.88023952,6941dd757105f5612e78f1d3,69712dc693a3960bdb483245,69716bef077f777182cb572c,,,,,,,,,,,,./stim/wavs/mexican_match_interrogative-total-yn_Marta-abre-el-regalo.wav,1,,,237.1479,239.0466,1,1,1.3671,,0,65,65,17,1,18,0,mexican,,,,,,,,,,,,,,,,,,,,,,,,,,,,,,,,,,,,,,,,,,,,,,,,,,,,,,,,
,,,,,,,,,6941dd757105f5612e78f1d3,Spanish,13 or older,"no, only English or Spanish",yes,2026-01-21_19h16.57.611,empathy_intonation_perc_control,2024.2.4,Win32,59.88023952,6941dd757105f5612e78f1d3,69712dc693a3960bdb483245,69716bef077f777182cb572c,,,,,,,,,,,,./stim/wavs/mexican_mismatch_interrogative-total-yn_El-hombre-mira-la-luna.wav,1,,,239.0477,240.9965,1,1,1.4183,,0,66,66,34,1,35,0,mexican,,,,,,,,,,,,,,,,,,,,,,,,,,,,,,,,,,,,,,,,,,,,,,,,,,,,,,,,
,,,,,,,,,6941dd757105f5612e78f1d3,Spanish,13 or older,"no, only English or Spanish",yes,2026-01-21_19h16.57.611,empathy_intonation_perc_control,2024.2.4,Win32,59.88023952,6941dd757105f5612e78f1d3,69712dc693a3960bdb483245,69716bef077f777182cb572c,,,,,,,,,,,,./stim/wavs/puertorican_match_declarative-broad-focus_Manuela-vende-el-carro.wav,0,,,240.9976,243.0292,0,1,1.5057,,0,67,67,66,1,67,0,puertorican,,,,,,,,,,,,,,,,,,,,,,,,,,,,,,,,,,,,,,,,,,,,,,,,,,,,,,,,
,,,,,,,,,6941dd757105f5612e78f1d3,Spanish,13 or older,"no, only English or Spanish",yes,2026-01-21_19h16.57.611,empathy_intonation_perc_control,2024.2.4,Win32,59.88023952,6941dd757105f5612e78f1d3,69712dc693a3960bdb483245,69716bef077f777182cb572c,,,,,,,,,,,,./stim/wavs/castilian_match_declarative-broad-focus_Mariano-habla-del-tiempo.wav,0,,,243.03,245.3954,0,1,1.8406,,0,68,68,48,1,49,0,castilian,,,,,,,,,,,,,,,,,,,,,,,,,,,,,,,,,,,,,,,,,,,,,,,,,,,,,,,,
,,,,,,,,,6941dd757105f5612e78f1d3,Spanish,13 or older,"no, only English or Spanish",yes,2026-01-21_19h16.57.611,empathy_intonation_perc_control,2024.2.4,Win32,59.88023952,6941dd757105f5612e78f1d3,69712dc693a3960bdb483245,69716bef077f777182cb572c,,,,,,,,,,,,./stim/wavs/castilian_mismatch_declarative-broad-focus_Mi-novio-viene-del-lago.wav,0,,,245.3963,247.6115,0,1,1.6906,,0,69,69,71,1,72,0,castilian,,,,,,,,,,,,,,,,,,,,,,,,,,,,,,,,,,,,,,,,,,,,,,,,,,,,,,,,
,,,,,,,,,6941dd757105f5612e78f1d3,Spanish,13 or older,"no, only English or Spanish",yes,2026-01-21_19h16.57.611,empathy_intonation_perc_control,2024.2.4,Win32,59.88023952,6941dd757105f5612e78f1d3,69712dc693a3960bdb483245,69716bef077f777182cb572c,,,,,,,,,,,,./stim/wavs/puertorican_mismatch_interrogative-total-yn_La-maestra-vive-en-Paris.wav,1,,,247.6125,249.8613,0,0,1.7181,,0,70,70,41,1,42,1,puertorican,,,,,,,,,,,,,,,,,,,,,,,,,,,,,,,,,,,,,,,,,,,,,,,,,,,,,,,,
,,,,,,,,,6941dd757105f5612e78f1d3,Spanish,13 or older,"no, only English or Spanish",yes,2026-01-21_19h16.57.611,empathy_intonation_perc_control,2024.2.4,Win32,59.88023952,6941dd757105f5612e78f1d3,69712dc693a3960bdb483245,69716bef077f777182cb572c,,,,,,,,,,,,./stim/wavs/cuban_match_interrogative-total-yn_Maria-bebe-el-vino.wav,1,,,249.8622,251.878,0,0,1.4921,,0,71,71,9,1,10,1,cuban,,,,,,,,,,,,,,,,,,,,,,,,,,,,,,,,,,,,,,,,,,,,,,,,,,,,,,,,
,,,,,,,,,6941dd757105f5612e78f1d3,Spanish,13 or older,"no, only English or Spanish",yes,2026-01-21_19h16.57.611,empathy_intonation_perc_control,2024.2.4,Win32,59.88023952,6941dd757105f5612e78f1d3,69712dc693a3960bdb483245,69716bef077f777182cb572c,,,,,,,,,,,,./stim/wavs/cuban_mismatch_declarative-broad-focus_La-nina-lava-el-plato.wav,0,,,251.8801,253.8938,0,1,1.491,,0,72,72,75,1,76,0,cuban,,,,,,,,,,,,,,,,,,,,,,,,,,,,,,,,,,,,,,,,,,,,,,,,,,,,,,,,
,,,,,,,,,6941dd757105f5612e78f1d3,Spanish,13 or older,"no, only English or Spanish",yes,2026-01-21_19h16.57.611,empathy_intonation_perc_control,2024.2.4,Win32,59.88023952,6941dd757105f5612e78f1d3,69712dc693a3960bdb483245,69716bef077f777182cb572c,,,,,,,,,,,,./stim/wavs/mexican_match_declarative-broad-focus_Daniel-iba-a-Bolivia.wav,0,,,253.8948,255.9271,0,1,1.5081,,0,73,73,57,1,58,0,mexican,,,,,,,,,,,,,,,,,,,,,,,,,,,,,,,,,,,,,,,,,,,,,,,,,,,,,,,,
,,,,,,,,,6941dd757105f5612e78f1d3,Spanish,13 or older,"no, only English or Spanish",yes,2026-01-21_19h16.57.611,empathy_intonation_perc_control,2024.2.4,Win32,59.88023952,6941dd757105f5612e78f1d3,69712dc693a3960bdb483245,69716bef077f777182cb572c,,,,,,,,,,,,./stim/wavs/cuban_match_declarative-broad-focus_Mariano-habla-del-tiempo.wav,0,,,255.9293,258.0596,0,1,1.6002,,0,74,74,54,1,55,0,cuban,,,,,,,,,,,,,,,,,,,,,,,,,,,,,,,,,,,,,,,,,,,,,,,,,,,,,,,,
,,,,,,,,,6941dd757105f5612e78f1d3,Spanish,13 or older,"no, only English or Spanish",yes,2026-01-21_19h16.57.611,empathy_intonation_perc_control,2024.2.4,Win32,59.88023952,6941dd757105f5612e78f1d3,69712dc693a3960bdb483245,69716bef077f777182cb572c,,,,,,,,,,,,./stim/wavs/puertorican_match_declarative-broad-focus_Maria-bebe-el-vino.wav,0,,,258.0607,259.9092,0,1,1.3189,,0,75,75,67,1,68,0,puertorican,,,,,,,,,,,,,,,,,,,,,,,,,,,,,,,,,,,,,,,,,,,,,,,,,,,,,,,,
,,,,,,,,,6941dd757105f5612e78f1d3,Spanish,13 or older,"no, only English or Spanish",yes,2026-01-21_19h16.57.611,empathy_intonation_perc_control,2024.2.4,Win32,59.88023952,6941dd757105f5612e78f1d3,69712dc693a3960bdb483245,69716bef077f777182cb572c,,,,,,,,,,,,./stim/wavs/mexican_match_interrogative-total-yn_Emilio-ama-la-marcha.wav,1,,,259.9101,261.9257,1,1,1.4842,,0,76,76,15,1,16,0,mexican,,,,,,,,,,,,,,,,,,,,,,,,,,,,,,,,,,,,,,,,,,,,,,,,,,,,,,,,
,,,,,,,,,6941dd757105f5612e78f1d3,Spanish,13 or older,"no, only English or Spanish",yes,2026-01-21_19h16.57.611,empathy_intonation_perc_control,2024.2.4,Win32,59.88023952,6941dd757105f5612e78f1d3,69712dc693a3960bdb483245,69716bef077f777182cb572c,,,,,,,,,,,,./stim/wavs/cuban_mismatch_interrogative-total-yn_Mi-madre-come-la-fruta.wav,1,,,261.9272,264.0087,0,0,1.5515,,0,77,77,31,1,32,1,cuban,,,,,,,,,,,,,,,,,,,,,,,,,,,,,,,,,,,,,,,,,,,,,,,,,,,,,,,,
,,,,,,,,,6941dd757105f5612e78f1d3,Spanish,13 or older,"no, only English or Spanish",yes,2026-01-21_19h16.57.611,empathy_intonation_perc_control,2024.2.4,Win32,59.88023952,6941dd757105f5612e78f1d3,69712dc693a3960bdb483245,69716bef077f777182cb572c,,,,,,,,,,,,./stim/wavs/puertorican_match_interrogative-total-yn_Manuela-vende-el-carro.wav,1,,,264.0107,265.9417,1,1,1.4015,,0,78,78,22,1,23,1,puertorican,,,,,,,,,,,,,,,,,,,,,,,,,,,,,,,,,,,,,,,,,,,,,,,,,,,,,,,,
,,,,,,,,,6941dd757105f5612e78f1d3,Spanish,13 or older,"no, only English or Spanish",yes,2026-01-21_19h16.57.611,empathy_intonation_perc_control,2024.2.4,Win32,59.88023952,6941dd757105f5612e78f1d3,69712dc693a3960bdb483245,69716bef077f777182cb572c,,,,,,,,,,,,./stim/wavs/cuban_match_declarative-broad-focus_Ana-lleva-el-abrigo.wav,0,,,265.9429,268.0411,0,1,1.5705,,0,79,79,50,1,51,0,cuban,,,,,,,,,,,,,,,,,,,,,,,,,,,,,,,,,,,,,,,,,,,,,,,,,,,,,,,,
,,,,,,,,,6941dd757105f5612e78f1d3,Spanish,13 or older,"no, only English or Spanish",yes,2026-01-21_19h16.57.611,empathy_intonation_perc_control,2024.2.4,Win32,59.88023952,6941dd757105f5612e78f1d3,69712dc693a3960bdb483245,69716bef077f777182cb572c,,,,,,,,,,,,./stim/wavs/puertorican_match_declarative-broad-focus_Emilio-ama-la-marcha.wav,0,,,268.0421,270.0577,0,1,1.4848,,0,80,80,65,1,66,0,puertorican,,,,,,,,,,,,,,,,,,,,,,,,,,,,,,,,,,,,,,,,,,,,,,,,,,,,,,,,
,,,,,,,,,6941dd757105f5612e78f1d3,Spanish,13 or older,"no, only English or Spanish",yes,2026-01-21_19h16.57.611,empathy_intonation_perc_control,2024.2.4,Win32,59.88023952,6941dd757105f5612e78f1d3,69712dc693a3960bdb483245,69716bef077f777182cb572c,,,,,,,,,,,,./stim/wavs/cuban_mismatch_interrogative-total-yn_Mi-novio-viene-del-lago.wav,1,,,270.0586,272.1237,0,0,1.5351,,0,81,81,32,1,33,1,cuban,,,,,,,,,,,,,,,,,,,,,,,,,,,,,,,,,,,,,,,,,,,,,,,,,,,,,,,,
,,,,,,,,,6941dd757105f5612e78f1d3,Spanish,13 or older,"no, only English or Spanish",yes,2026-01-21_19h16.57.611,empathy_intonation_perc_control,2024.2.4,Win32,59.88023952,6941dd757105f5612e78f1d3,69712dc693a3960bdb483245,69716bef077f777182cb572c,,,,,,,,,,,,./stim/wavs/cuban_mismatch_declarative-broad-focus_El-hombre-mira-la-luna.wav,0,,,272.1253,274.0234,0,1,1.3671,,0,82,82,74,1,75,0,cuban,,,,,,,,,,,,,,,,,,,,,,,,,,,,,,,,,,,,,,,,,,,,,,,,,,,,,,,,
,,,,,,,,,6941dd757105f5612e78f1d3,Spanish,13 or older,"no, only English or Spanish",yes,2026-01-21_19h16.57.611,empathy_intonation_perc_control,2024.2.4,Win32,59.88023952,6941dd757105f5612e78f1d3,69712dc693a3960bdb483245,69716bef077f777182cb572c,,,,,,,,,,,,./stim/wavs/mexican_match_interrogative-total-yn_Mariano-habla-del-tiempo.wav,1,,,274.0244,276.0896,1,1,1.533,,0,83,83,16,1,17,0,mexican,,,,,,,,,,,,,,,,,,,,,,,,,,,,,,,,,,,,,,,,,,,,,,,,,,,,,,,,
,,,,,,,,,6941dd757105f5612e78f1d3,Spanish,13 or older,"no, only English or Spanish",yes,2026-01-21_19h16.57.611,empathy_intonation_perc_control,2024.2.4,Win32,59.88023952,6941dd757105f5612e78f1d3,69712dc693a3960bdb483245,69716bef077f777182cb572c,,,,,,,,,,,,./stim/wavs/castilian_match_interrogative-total-yn_Manuela-vende-el-carro.wav,1,,,276.0905,278.2558,1,1,1.6337,,0,84,84,2,1,3,0,castilian,,,,,,,,,,,,,,,,,,,,,,,,,,,,,,,,,,,,,,,,,,,,,,,,,,,,,,,,
,,,,,,,,,6941dd757105f5612e78f1d3,Spanish,13 or older,"no, only English or Spanish",yes,2026-01-21_19h16.57.611,empathy_intonation_perc_control,2024.2.4,Win32,59.88023952,6941dd757105f5612e78f1d3,69712dc693a3960bdb483245,69716bef077f777182cb572c,,,,,,,,,,,,./stim/wavs/puertorican_match_interrogative-total-yn_Emilio-ama-la-marcha.wav,1,,,278.2569,280.1885,1,1,1.4057,,0,85,85,21,1,22,1,puertorican,,,,,,,,,,,,,,,,,,,,,,,,,,,,,,,,,,,,,,,,,,,,,,,,,,,,,,,,
,,,,,,,,,6941dd757105f5612e78f1d3,Spanish,13 or older,"no, only English or Spanish",yes,2026-01-21_19h16.57.611,empathy_intonation_perc_control,2024.2.4,Win32,59.88023952,6941dd757105f5612e78f1d3,69712dc693a3960bdb483245,69716bef077f777182cb572c,,,,,,,,,,,,./stim/wavs/puertorican_match_interrogative-total-yn_David-leia-el-libro.wav,1,,,280.1898,282.1215,0,0,1.4006,,0,86,86,20,1,21,1,puertorican,,,,,,,,,,,,,,,,,,,,,,,,,,,,,,,,,,,,,,,,,,,,,,,,,,,,,,,,
,,,,,,,,,6941dd757105f5612e78f1d3,Spanish,13 or older,"no, only English or Spanish",yes,2026-01-21_19h16.57.611,empathy_intonation_perc_control,2024.2.4,Win32,59.88023952,6941dd757105f5612e78f1d3,69712dc693a3960bdb483245,69716bef077f777182cb572c,,,,,,,,,,,,./stim/wavs/puertorican_match_interrogative-total-yn_Daniel-iba-a-Bolivia.wav,1,,,282.1223,284.088,0,0,1.4344,,0,87,87,19,1,20,1,puertorican,,,,,,,,,,,,,,,,,,,,,,,,,,,,,,,,,,,,,,,,,,,,,,,,,,,,,,,,
,,,,,,,"Great! Now we will move on. The next task consists of about 60 trials, in each of which you will see a string of letters. 
  
  Your task is to decide whether this is a real Spanish word or not.", (press the spacebar to continue),6941dd757105f5612e78f1d3,Spanish,13 or older,"no, only English or Spanish",yes,2026-01-21_19h16.57.611,empathy_intonation_perc_control,2024.2.4,Win32,59.88023952,6941dd757105f5612e78f1d3,69712dc693a3960bdb483245,69716bef077f777182cb572c,,,,,,,,,,,,,,,,,,,,,,,,,,,,,,284.1009,294.5695,0,0,0,0,1,,,,,,,,,,,,,,,,,,,,,,,,,,,,,,,,,,,,,,,,,,,,,,,,,
,,,,,,,"If you think it is an existing Spanish word, you type '1' (for 'REAL'), and if you think it is not an existing Spanish word, you type '0' (for 'FAKE').", (press the spacebar to continue),6941dd757105f5612e78f1d3,Spanish,13 or older,"no, only English or Spanish",yes,2026-01-21_19h16.57.611,empathy_intonation_perc_control,2024.2.4,Win32,59.88023952,6941dd757105f5612e78f1d3,69712dc693a3960bdb483245,69716bef077f777182cb572c,,,,,,,,,,,,,,,,,,,,,,,,,,,,,,294.5744,306.3672,0,1,1,1,1,,,,,,,,,,,,,,,,,,,,,,,,,,,,,,,,,,,,,,,,,,,,,,,,,
,,,,,,,"If you are sure that the word exists, even though you don’t know its exact meaning, you may still respond '1' (REAL). 
  
  But if you are not sure if it is an existing word, you should respond '0' (FAKE).
  
  Let's do a practice round...", (press the spacebar to continue),6941dd757105f5612e78f1d3,Spanish,13 or older,"no, only English or Spanish",yes,2026-01-21_19h16.57.611,empathy_intonation_perc_control,2024.2.4,Win32,59.88023952,6941dd757105f5612e78f1d3,69712dc693a3960bdb483245,69716bef077f777182cb572c,,,,,,,,,,,,,,,,,,,,,,,,,,,,,,306.3716,312.366,0,2,2,2,1,,,,,,,,,,,,,,,,,,,,,,,,,,,,,,,,,,,,,,,,,,,,,,,,,
,,,,,,,,,6941dd757105f5612e78f1d3,Spanish,13 or older,"no, only English or Spanish",yes,2026-01-21_19h16.57.611,empathy_intonation_perc_control,2024.2.4,Win32,59.88023952,6941dd757105f5612e78f1d3,69712dc693a3960bdb483245,69716bef077f777182cb572c,,,,,,,,,,,,,0,,,,,,,,,,,,,,,,,,,,,,,,312.3767,316.1323,0,1,3.2271,,316.1326,317.1317,0,0,0,0,1,0,depiste,REAL,FAKE,,,,,,,,,,,,,,,,,,,,,,,,,,,,,,,,
,,,,,,,,,6941dd757105f5612e78f1d3,Spanish,13 or older,"no, only English or Spanish",yes,2026-01-21_19h16.57.611,empathy_intonation_perc_control,2024.2.4,Win32,59.88023952,6941dd757105f5612e78f1d3,69712dc693a3960bdb483245,69716bef077f777182cb572c,,,,,,,,,,,,,1,,,,,,,,,,,,,,,,,,,,,,,,317.1394,318.6478,1,1,0.979,,318.6479,319.6477,0,1,1,1,1,0,sí,REAL,FAKE,,,,,,,,,,,,,,,,,,,,,,,,,,,,,,,,
,,,,,,,,,6941dd757105f5612e78f1d3,Spanish,13 or older,"no, only English or Spanish",yes,2026-01-21_19h16.57.611,empathy_intonation_perc_control,2024.2.4,Win32,59.88023952,6941dd757105f5612e78f1d3,69712dc693a3960bdb483245,69716bef077f777182cb572c,,,,,,,,,,,,,0,,,,,,,,,,,,,,,,,,,,,,,,319.6516,321.6139,0,1,1.4247,,321.614,322.6131,0,2,2,2,1,0,coné,REAL,FAKE,,,,,,,,,,,,,,,,,,,,,,,,,,,,,,,,
,,,,,,,,,6941dd757105f5612e78f1d3,Spanish,13 or older,"no, only English or Spanish",yes,2026-01-21_19h16.57.611,empathy_intonation_perc_control,2024.2.4,Win32,59.88023952,6941dd757105f5612e78f1d3,69712dc693a3960bdb483245,69716bef077f777182cb572c,,,,,,,,,,,,,0,,,,,,,,,,,,,,,,,,,,,,,,322.6158,324.8033,1,0,1.6729,,324.8052,325.8028,0,3,3,3,1,0,calpar,REAL,FAKE,,,,,,,,,,,,,,,,,,,,,,,,,,,,,,,,
,,,,,,,,,6941dd757105f5612e78f1d3,Spanish,13 or older,"no, only English or Spanish",yes,2026-01-21_19h16.57.611,empathy_intonation_perc_control,2024.2.4,Win32,59.88023952,6941dd757105f5612e78f1d3,69712dc693a3960bdb483245,69716bef077f777182cb572c,,,,,,,,,,,,,0,,,,,,,,,,,,,,,,,,,,,,,,325.8045,327.5188,0,1,1.1985,,327.5196,328.5193,0,4,4,4,1,0,joten,REAL,FAKE,,,,,,,,,,,,,,,,,,,,,,,,,,,,,,,,
,,,,,,,,,6941dd757105f5612e78f1d3,Spanish,13 or older,"no, only English or Spanish",yes,2026-01-21_19h16.57.611,empathy_intonation_perc_control,2024.2.4,Win32,59.88023952,6941dd757105f5612e78f1d3,69712dc693a3960bdb483245,69716bef077f777182cb572c,,,,,,,,,,,,,1,,,,,,,,,,,,,,,,,,,,,,,,328.5207,331.3854,0,0,2.3323,,331.3865,332.3844,0,5,5,5,1,0,sacapuntas,REAL,FAKE,,,,,,,,,,,,,,,,,,,,,,,,,,,,,,,,
,,,,,,,,,6941dd757105f5612e78f1d3,Spanish,13 or older,"no, only English or Spanish",yes,2026-01-21_19h16.57.611,empathy_intonation_perc_control,2024.2.4,Win32,59.88023952,6941dd757105f5612e78f1d3,69712dc693a3960bdb483245,69716bef077f777182cb572c,,,,,,,,,,,,,0,,,,,,,,,,,,,,,,,,,,,,,,332.3867,334.0517,1,0,1.1337,,334.0519,335.0516,0,6,6,6,1,0,priba,REAL,FAKE,,,,,,,,,,,,,,,,,,,,,,,,,,,,,,,,
,,,,,,,,,6941dd757105f5612e78f1d3,Spanish,13 or older,"no, only English or Spanish",yes,2026-01-21_19h16.57.611,empathy_intonation_perc_control,2024.2.4,Win32,59.88023952,6941dd757105f5612e78f1d3,69712dc693a3960bdb483245,69716bef077f777182cb572c,,,,,,,,,,,,,0,,,,,,,,,,,,,,,,,,,,,,,,335.0531,336.5344,0,1,0.9498,,336.5351,337.5333,0,7,7,7,1,0,pelasula,REAL,FAKE,,,,,,,,,,,,,,,,,,,,,,,,,,,,,,,,
,,,,,,,,,6941dd757105f5612e78f1d3,Spanish,13 or older,"no, only English or Spanish",yes,2026-01-21_19h16.57.611,empathy_intonation_perc_control,2024.2.4,Win32,59.88023952,6941dd757105f5612e78f1d3,69712dc693a3960bdb483245,69716bef077f777182cb572c,,,,,,,,,,,,,1,,,,,,,,,,,,,,,,,,,,,,,,337.5345,338.7169,1,1,0.6508,,338.717,339.7167,0,8,8,8,1,0,bien,REAL,FAKE,,,,,,,,,,,,,,,,,,,,,,,,,,,,,,,,
,,,,,,,,,6941dd757105f5612e78f1d3,Spanish,13 or older,"no, only English or Spanish",yes,2026-01-21_19h16.57.611,empathy_intonation_perc_control,2024.2.4,Win32,59.88023952,6941dd757105f5612e78f1d3,69712dc693a3960bdb483245,69716bef077f777182cb572c,,,,,,,,,,,,,1,,,,,,,,,,,,,,,,,,,,,,,,339.7183,340.8664,1,1,0.616,,340.8666,341.8653,0,9,9,9,1,0,casa,REAL,FAKE,,,,,,,,,,,,,,,,,,,,,,,,,,,,,,,,
,,,,,,,,,6941dd757105f5612e78f1d3,Spanish,13 or older,"no, only English or Spanish",yes,2026-01-21_19h16.57.611,empathy_intonation_perc_control,2024.2.4,Win32,59.88023952,6941dd757105f5612e78f1d3,69712dc693a3960bdb483245,69716bef077f777182cb572c,,,,,,,,,,,,,0,,,,,,,,,,,,,,,,,,,,,,,,341.8667,343.2001,1,0,0.8008,,343.2009,344.1987,0,10,10,10,1,0,lejo,REAL,FAKE,,,,,,,,,,,,,,,,,,,,,,,,,,,,,,,,
,,,,,,,,,6941dd757105f5612e78f1d3,Spanish,13 or older,"no, only English or Spanish",yes,2026-01-21_19h16.57.611,empathy_intonation_perc_control,2024.2.4,Win32,59.88023952,6941dd757105f5612e78f1d3,69712dc693a3960bdb483245,69716bef077f777182cb572c,,,,,,,,,,,,,0,,,,,,,,,,,,,,,,,,,,,,,,344.1998,345.4656,0,1,0.7329,,345.4664,346.4655,0,11,11,11,1,0,pretantas,REAL,FAKE,,,,,,,,,,,,,,,,,,,,,,,,,,,,,,,,
,,,,,,,,,6941dd757105f5612e78f1d3,Spanish,13 or older,"no, only English or Spanish",yes,2026-01-21_19h16.57.611,empathy_intonation_perc_control,2024.2.4,Win32,59.88023952,6941dd757105f5612e78f1d3,69712dc693a3960bdb483245,69716bef077f777182cb572c,,,,,,,,,,,,,,,,,,,,,,,,,,,,,,,,,,,,,,,,,,,,,,,,,,,,,,346.4661,348.411,,,,,,,,,,,,,,,,,,,,,,,,,,,,,,
,,,,,,,,,6941dd757105f5612e78f1d3,Spanish,13 or older,"no, only English or Spanish",yes,2026-01-21_19h16.57.611,empathy_intonation_perc_control,2024.2.4,Win32,59.88023952,6941dd757105f5612e78f1d3,69712dc693a3960bdb483245,69716bef077f777182cb572c,,,,,,,,,,,,,0,,,,,,,,,,,,,,,,,,,,,,,,,,,,,,,,,,,,,4,batillón,,,,,348.4291,350.0773,1,0,1.1283,,0,0,0,3,1,REAL,FAKE,,,,,,,,,,,,,,,,,
,,,,,,,,,6941dd757105f5612e78f1d3,Spanish,13 or older,"no, only English or Spanish",yes,2026-01-21_19h16.57.611,empathy_intonation_perc_control,2024.2.4,Win32,59.88023952,6941dd757105f5612e78f1d3,69712dc693a3960bdb483245,69716bef077f777182cb572c,,,,,,,,,,,,,1,,,,,,,,,,,,,,,,,,,,,,,,,,,,,,,,,,,,,40,alfombra,,,,,350.0799,351.915,0,0,1.3011,,0,1,1,39,1,REAL,FAKE,,,,,,,,,,,,,,,,,
,,,,,,,,,6941dd757105f5612e78f1d3,Spanish,13 or older,"no, only English or Spanish",yes,2026-01-21_19h16.57.611,empathy_intonation_perc_control,2024.2.4,Win32,59.88023952,6941dd757105f5612e78f1d3,69712dc693a3960bdb483245,69716bef077f777182cb572c,,,,,,,,,,,,,1,,,,,,,,,,,,,,,,,,,,,,,,,,,,,,,,,,,,,39,torpe,,,,,351.9164,354.0636,0,0,1.616,,0,2,2,38,1,REAL,FAKE,,,,,,,,,,,,,,,,,
,,,,,,,,,6941dd757105f5612e78f1d3,Spanish,13 or older,"no, only English or Spanish",yes,2026-01-21_19h16.57.611,empathy_intonation_perc_control,2024.2.4,Win32,59.88023952,6941dd757105f5612e78f1d3,69712dc693a3960bdb483245,69716bef077f777182cb572c,,,,,,,,,,,,,1,,,,,,,,,,,,,,,,,,,,,,,,,,,,,,,,,,,,,9,hacha,,,,,354.0654,356.0144,1,1,1.4175,,0,3,3,8,1,REAL,FAKE,,,,,,,,,,,,,,,,,
,,,,,,,,,6941dd757105f5612e78f1d3,Spanish,13 or older,"no, only English or Spanish",yes,2026-01-21_19h16.57.611,empathy_intonation_perc_control,2024.2.4,Win32,59.88023952,6941dd757105f5612e78f1d3,69712dc693a3960bdb483245,69716bef077f777182cb572c,,,,,,,,,,,,,1,,,,,,,,,,,,,,,,,,,,,,,,,,,,,,,,,,,,,68,alegre,,,,,356.0167,358.3792,1,1,1.8321,,0,4,4,67,1,REAL,FAKE,,,,,,,,,,,,,,,,,
,,,,,,,,,6941dd757105f5612e78f1d3,Spanish,13 or older,"no, only English or Spanish",yes,2026-01-21_19h16.57.611,empathy_intonation_perc_control,2024.2.4,Win32,59.88023952,6941dd757105f5612e78f1d3,69712dc693a3960bdb483245,69716bef077f777182cb572c,,,,,,,,,,,,,0,,,,,,,,,,,,,,,,,,,,,,,,,,,,,,,,,,,,,16,abracer,,,,,358.3809,360.0468,0,1,1.1336,,0,5,5,15,1,REAL,FAKE,,,,,,,,,,,,,,,,,
,,,,,,,,,6941dd757105f5612e78f1d3,Spanish,13 or older,"no, only English or Spanish",yes,2026-01-21_19h16.57.611,empathy_intonation_perc_control,2024.2.4,Win32,59.88023952,6941dd757105f5612e78f1d3,69712dc693a3960bdb483245,69716bef077f777182cb572c,,,,,,,,,,,,,1,,,,,,,,,,,,,,,,,,,,,,,,,,,,,,,,,,,,,52,camisa,,,,,360.0486,361.3299,1,1,0.7507,,0,6,6,51,1,REAL,FAKE,,,,,,,,,,,,,,,,,
,,,,,,,,,6941dd757105f5612e78f1d3,Spanish,13 or older,"no, only English or Spanish",yes,2026-01-21_19h16.57.611,empathy_intonation_perc_control,2024.2.4,Win32,59.88023952,6941dd757105f5612e78f1d3,69712dc693a3960bdb483245,69716bef077f777182cb572c,,,,,,,,,,,,,1,,,,,,,,,,,,,,,,,,,,,,,,,,,,,,,,,,,,,3,pulmones,,,,,361.3314,363.0628,0,0,1.2002,,0,7,7,2,1,REAL,FAKE,,,,,,,,,,,,,,,,,
,,,,,,,,,6941dd757105f5612e78f1d3,Spanish,13 or older,"no, only English or Spanish",yes,2026-01-21_19h16.57.611,empathy_intonation_perc_control,2024.2.4,Win32,59.88023952,6941dd757105f5612e78f1d3,69712dc693a3960bdb483245,69716bef077f777182cb572c,,,,,,,,,,,,,0,,,,,,,,,,,,,,,,,,,,,,,,,,,,,,,,,,,,,72,pemición,,,,,363.0646,365.4122,1,0,1.8175,,0,8,8,71,1,REAL,FAKE,,,,,,,,,,,,,,,,,
,,,,,,,,,6941dd757105f5612e78f1d3,Spanish,13 or older,"no, only English or Spanish",yes,2026-01-21_19h16.57.611,empathy_intonation_perc_control,2024.2.4,Win32,59.88023952,6941dd757105f5612e78f1d3,69712dc693a3960bdb483245,69716bef077f777182cb572c,,,,,,,,,,,,,0,,,,,,,,,,,,,,,,,,,,,,,,,,,,,,,,,,,,,21,capillo,,,,,365.4137,367.7113,1,0,1.7662,,0,9,9,20,1,REAL,FAKE,,,,,,,,,,,,,,,,,
,,,,,,,,,6941dd757105f5612e78f1d3,Spanish,13 or older,"no, only English or Spanish",yes,2026-01-21_19h16.57.611,empathy_intonation_perc_control,2024.2.4,Win32,59.88023952,6941dd757105f5612e78f1d3,69712dc693a3960bdb483245,69716bef077f777182cb572c,,,,,,,,,,,,,1,,,,,,,,,,,,,,,,,,,,,,,,,,,,,,,,,,,,,13,helar,,,,,367.7128,369.0225,0,0,0.7743,,0,10,10,12,1,REAL,FAKE,,,,,,,,,,,,,,,,,
,,,,,,,,,6941dd757105f5612e78f1d3,Spanish,13 or older,"no, only English or Spanish",yes,2026-01-21_19h16.57.611,empathy_intonation_perc_control,2024.2.4,Win32,59.88023952,6941dd757105f5612e78f1d3,69712dc693a3960bdb483245,69716bef077f777182cb572c,,,,,,,,,,,,,0,,,,,,,,,,,,,,,,,,,,,,,,,,,,,,,,,,,,,33,pauca,,,,,369.0243,370.3232,0,1,0.7577,,0,11,11,32,1,REAL,FAKE,,,,,,,,,,,,,,,,,
,,,,,,,,,6941dd757105f5612e78f1d3,Spanish,13 or older,"no, only English or Spanish",yes,2026-01-21_19h16.57.611,empathy_intonation_perc_control,2024.2.4,Win32,59.88023952,6941dd757105f5612e78f1d3,69712dc693a3960bdb483245,69716bef077f777182cb572c,,,,,,,,,,,,,1,,,,,,,,,,,,,,,,,,,,,,,,,,,,,,,,,,,,,60,matar,,,,,370.3246,371.9425,0,0,1.0988,,0,12,12,59,1,REAL,FAKE,,,,,,,,,,,,,,,,,
,,,,,,,,,6941dd757105f5612e78f1d3,Spanish,13 or older,"no, only English or Spanish",yes,2026-01-21_19h16.57.611,empathy_intonation_perc_control,2024.2.4,Win32,59.88023952,6941dd757105f5612e78f1d3,69712dc693a3960bdb483245,69716bef077f777182cb572c,,,,,,,,,,,,,0,,,,,,,,,,,,,,,,,,,,,,,,,,,,,,,,,,,,,18,arsa,,,,,371.944,373.455,0,1,0.9755,,0,13,13,17,1,REAL,FAKE,,,,,,,,,,,,,,,,,
,,,,,,,,,6941dd757105f5612e78f1d3,Spanish,13 or older,"no, only English or Spanish",yes,2026-01-21_19h16.57.611,empathy_intonation_perc_control,2024.2.4,Win32,59.88023952,6941dd757105f5612e78f1d3,69712dc693a3960bdb483245,69716bef077f777182cb572c,,,,,,,,,,,,,1,,,,,,,,,,,,,,,,,,,,,,,,,,,,,,,,,,,,,37,granuja,,,,,373.457,375.0552,1,1,1.0696,,0,14,14,36,1,REAL,FAKE,,,,,,,,,,,,,,,,,
,,,,,,,,,6941dd757105f5612e78f1d3,Spanish,13 or older,"no, only English or Spanish",yes,2026-01-21_19h16.57.611,empathy_intonation_perc_control,2024.2.4,Win32,59.88023952,6941dd757105f5612e78f1d3,69712dc693a3960bdb483245,69716bef077f777182cb572c,,,,,,,,,,,,,1,,,,,,,,,,,,,,,,,,,,,,,,,,,,,,,,,,,,,71,polvoriento,,,,,375.0576,378.1092,0,0,2.5159,,0,15,15,70,1,REAL,FAKE,,,,,,,,,,,,,,,,,
,,,,,,,,,6941dd757105f5612e78f1d3,Spanish,13 or older,"no, only English or Spanish",yes,2026-01-21_19h16.57.611,empathy_intonation_perc_control,2024.2.4,Win32,59.88023952,6941dd757105f5612e78f1d3,69712dc693a3960bdb483245,69716bef077f777182cb572c,,,,,,,,,,,,,1,,,,,,,,,,,,,,,,,,,,,,,,,,,,,,,,,,,,,51,candado,,,,,378.1108,379.9595,1,1,1.3171,,0,16,16,50,1,REAL,FAKE,,,,,,,,,,,,,,,,,
,,,,,,,,,6941dd757105f5612e78f1d3,Spanish,13 or older,"no, only English or Spanish",yes,2026-01-21_19h16.57.611,empathy_intonation_perc_control,2024.2.4,Win32,59.88023952,6941dd757105f5612e78f1d3,69712dc693a3960bdb483245,69716bef077f777182cb572c,,,,,,,,,,,,,0,,,,,,,,,,,,,,,,,,,,,,,,,,,,,,,,,,,,,53,vegada,,,,,379.9614,382.3404,0,1,1.8484,,0,17,17,52,1,REAL,FAKE,,,,,,,,,,,,,,,,,
,,,,,,,,,6941dd757105f5612e78f1d3,Spanish,13 or older,"no, only English or Spanish",yes,2026-01-21_19h16.57.611,empathy_intonation_perc_control,2024.2.4,Win32,59.88023952,6941dd757105f5612e78f1d3,69712dc693a3960bdb483245,69716bef077f777182cb572c,,,,,,,,,,,,,1,,,,,,,,,,,,,,,,,,,,,,,,,,,,,,,,,,,,,75,yacer,,,,,382.3414,384.1018,0,0,1.2324,,0,18,18,74,1,REAL,FAKE,,,,,,,,,,,,,,,,,
,,,,,,,,,6941dd757105f5612e78f1d3,Spanish,13 or older,"no, only English or Spanish",yes,2026-01-21_19h16.57.611,empathy_intonation_perc_control,2024.2.4,Win32,59.88023952,6941dd757105f5612e78f1d3,69712dc693a3960bdb483245,69716bef077f777182cb572c,,,,,,,,,,,,,1,,,,,,,,,,,,,,,,,,,,,,,,,,,,,,,,,,,,,86,barato,,,,,384.1051,385.4677,1,1,0.8286,,0,19,19,85,1,REAL,FAKE,,,,,,,,,,,,,,,,,
,,,,,,,,,6941dd757105f5612e78f1d3,Spanish,13 or older,"no, only English or Spanish",yes,2026-01-21_19h16.57.611,empathy_intonation_perc_control,2024.2.4,Win32,59.88023952,6941dd757105f5612e78f1d3,69712dc693a3960bdb483245,69716bef077f777182cb572c,,,,,,,,,,,,,0,,,,,,,,,,,,,,,,,,,,,,,,,,,,,,,,,,,,,32,fatacidad,,,,,385.4701,387.9174,1,0,1.9197,,0,20,20,31,1,REAL,FAKE,,,,,,,,,,,,,,,,,
,,,,,,,,,6941dd757105f5612e78f1d3,Spanish,13 or older,"no, only English or Spanish",yes,2026-01-21_19h16.57.611,empathy_intonation_perc_control,2024.2.4,Win32,59.88023952,6941dd757105f5612e78f1d3,69712dc693a3960bdb483245,69716bef077f777182cb572c,,,,,,,,,,,,,1,,,,,,,,,,,,,,,,,,,,,,,,,,,,,,,,,,,,,73,hervidor,,,,,387.9204,389.4174,0,0,0.9641,,0,21,21,72,1,REAL,FAKE,,,,,,,,,,,,,,,,,
,,,,,,,,,6941dd757105f5612e78f1d3,Spanish,13 or older,"no, only English or Spanish",yes,2026-01-21_19h16.57.611,empathy_intonation_perc_control,2024.2.4,Win32,59.88023952,6941dd757105f5612e78f1d3,69712dc693a3960bdb483245,69716bef077f777182cb572c,,,,,,,,,,,,,1,,,,,,,,,,,,,,,,,,,,,,,,,,,,,,,,,,,,,34,aviso,,,,,389.4202,390.9666,0,0,1.0191,,0,22,22,33,1,REAL,FAKE,,,,,,,,,,,,,,,,,
,,,,,,,,,6941dd757105f5612e78f1d3,Spanish,13 or older,"no, only English or Spanish",yes,2026-01-21_19h16.57.611,empathy_intonation_perc_control,2024.2.4,Win32,59.88023952,6941dd757105f5612e78f1d3,69712dc693a3960bdb483245,69716bef077f777182cb572c,,,,,,,,,,,,,1,,,,,,,,,,,,,,,,,,,,,,,,,,,,,,,,,,,,,90,clavel,,,,,390.969,392.7829,0,0,1.2845,,0,23,23,89,1,REAL,FAKE,,,,,,,,,,,,,,,,,
,,,,,,,,,6941dd757105f5612e78f1d3,Spanish,13 or older,"no, only English or Spanish",yes,2026-01-21_19h16.57.611,empathy_intonation_perc_control,2024.2.4,Win32,59.88023952,6941dd757105f5612e78f1d3,69712dc693a3960bdb483245,69716bef077f777182cb572c,,,,,,,,,,,,,0,,,,,,,,,,,,,,,,,,,,,,,,,,,,,,,,,,,,,27,acutación,,,,,392.7856,394.6494,1,0,1.3293,,0,24,24,26,1,REAL,FAKE,,,,,,,,,,,,,,,,,
,,,,,,,,,6941dd757105f5612e78f1d3,Spanish,13 or older,"no, only English or Spanish",yes,2026-01-21_19h16.57.611,empathy_intonation_perc_control,2024.2.4,Win32,59.88023952,6941dd757105f5612e78f1d3,69712dc693a3960bdb483245,69716bef077f777182cb572c,,,,,,,,,,,,,1,,,,,,,,,,,,,,,,,,,,,,,,,,,,,,,,,,,,,54,fomentar,,,,,394.6526,396.366,0,0,1.1797,,0,25,25,53,1,REAL,FAKE,,,,,,,,,,,,,,,,,
,,,,,,,,,6941dd757105f5612e78f1d3,Spanish,13 or older,"no, only English or Spanish",yes,2026-01-21_19h16.57.611,empathy_intonation_perc_control,2024.2.4,Win32,59.88023952,6941dd757105f5612e78f1d3,69712dc693a3960bdb483245,69716bef077f777182cb572c,,,,,,,,,,,,,1,,,,,,,,,,,,,,,,,,,,,,,,,,,,,,,,,,,,,83,guante,,,,,396.3689,397.832,1,1,0.9304,,0,26,26,82,1,REAL,FAKE,,,,,,,,,,,,,,,,,
,,,,,,,,,6941dd757105f5612e78f1d3,Spanish,13 or older,"no, only English or Spanish",yes,2026-01-21_19h16.57.611,empathy_intonation_perc_control,2024.2.4,Win32,59.88023952,6941dd757105f5612e78f1d3,69712dc693a3960bdb483245,69716bef077f777182cb572c,,,,,,,,,,,,,1,,,,,,,,,,,,,,,,,,,,,,,,,,,,,,,,,,,,,77,tiburón,,,,,397.8349,399.2984,1,1,0.9299,,0,27,27,76,1,REAL,FAKE,,,,,,,,,,,,,,,,,
,,,,,,,,,6941dd757105f5612e78f1d3,Spanish,13 or older,"no, only English or Spanish",yes,2026-01-21_19h16.57.611,empathy_intonation_perc_control,2024.2.4,Win32,59.88023952,6941dd757105f5612e78f1d3,69712dc693a3960bdb483245,69716bef077f777182cb572c,,,,,,,,,,,,,1,,,,,,,,,,,,,,,,,,,,,,,,,,,,,,,,,,,,,49,ganar,,,,,399.3013,400.7483,0,0,0.9146,,0,28,28,48,1,REAL,FAKE,,,,,,,,,,,,,,,,,
,,,,,,,,,6941dd757105f5612e78f1d3,Spanish,13 or older,"no, only English or Spanish",yes,2026-01-21_19h16.57.611,empathy_intonation_perc_control,2024.2.4,Win32,59.88023952,6941dd757105f5612e78f1d3,69712dc693a3960bdb483245,69716bef077f777182cb572c,,,,,,,,,,,,,0,,,,,,,,,,,,,,,,,,,,,,,,,,,,,,,,,,,,,50,flamida,,,,,400.7513,402.5146,0,1,1.2308,,0,29,29,49,1,REAL,FAKE,,,,,,,,,,,,,,,,,
,,,,,,,,,6941dd757105f5612e78f1d3,Spanish,13 or older,"no, only English or Spanish",yes,2026-01-21_19h16.57.611,empathy_intonation_perc_control,2024.2.4,Win32,59.88023952,6941dd757105f5612e78f1d3,69712dc693a3960bdb483245,69716bef077f777182cb572c,,,,,,,,,,,,,1,,,,,,,,,,,,,,,,,,,,,,,,,,,,,,,,,,,,,89,prisa,,,,,402.5176,404.3479,0,0,1.2954,,0,30,30,88,1,REAL,FAKE,,,,,,,,,,,,,,,,,
,,,,,,,,,6941dd757105f5612e78f1d3,Spanish,13 or older,"no, only English or Spanish",yes,2026-01-21_19h16.57.611,empathy_intonation_perc_control,2024.2.4,Win32,59.88023952,6941dd757105f5612e78f1d3,69712dc693a3960bdb483245,69716bef077f777182cb572c,,,,,,,,,,,,,1,,,,,,,,,,,,,,,,,,,,,,,,,,,,,,,,,,,,,43,canela,,,,,404.3508,405.7138,1,1,0.8379,,0,31,31,42,1,REAL,FAKE,,,,,,,,,,,,,,,,,
,,,,,,,,,6941dd757105f5612e78f1d3,Spanish,13 or older,"no, only English or Spanish",yes,2026-01-21_19h16.57.611,empathy_intonation_perc_control,2024.2.4,Win32,59.88023952,6941dd757105f5612e78f1d3,69712dc693a3960bdb483245,69716bef077f777182cb572c,,,,,,,,,,,,,1,,,,,,,,,,,,,,,,,,,,,,,,,,,,,,,,,,,,,36,loro,,,,,405.7169,407.4139,0,0,1.1636,,0,32,32,35,1,REAL,FAKE,,,,,,,,,,,,,,,,,
,,,,,,,,,6941dd757105f5612e78f1d3,Spanish,13 or older,"no, only English or Spanish",yes,2026-01-21_19h16.57.611,empathy_intonation_perc_control,2024.2.4,Win32,59.88023952,6941dd757105f5612e78f1d3,69712dc693a3960bdb483245,69716bef077f777182cb572c,,,,,,,,,,,,,0,,,,,,,,,,,,,,,,,,,,,,,,,,,,,,,,,,,,,1,terzo,,,,,407.4173,408.88,0,1,0.9305,,0,33,33,0,1,REAL,FAKE,,,,,,,,,,,,,,,,,
,,,,,,,,,6941dd757105f5612e78f1d3,Spanish,13 or older,"no, only English or Spanish",yes,2026-01-21_19h16.57.611,empathy_intonation_perc_control,2024.2.4,Win32,59.88023952,6941dd757105f5612e78f1d3,69712dc693a3960bdb483245,69716bef077f777182cb572c,,,,,,,,,,,,,0,,,,,,,,,,,,,,,,,,,,,,,,,,,,,,,,,,,,,8,cadeña,,,,,408.8833,410.3469,1,0,0.9377,,0,34,34,7,1,REAL,FAKE,,,,,,,,,,,,,,,,,
,,,,,,,,,6941dd757105f5612e78f1d3,Spanish,13 or older,"no, only English or Spanish",yes,2026-01-21_19h16.57.611,empathy_intonation_perc_control,2024.2.4,Win32,59.88023952,6941dd757105f5612e78f1d3,69712dc693a3960bdb483245,69716bef077f777182cb572c,,,,,,,,,,,,,0,,,,,,,,,,,,,,,,,,,,,,,,,,,,,,,,,,,,,35,rompido,,,,,410.3499,412.463,1,0,1.5894,,0,35,35,34,1,REAL,FAKE,,,,,,,,,,,,,,,,,
,,,,,,,,,6941dd757105f5612e78f1d3,Spanish,13 or older,"no, only English or Spanish",yes,2026-01-21_19h16.57.611,empathy_intonation_perc_control,2024.2.4,Win32,59.88023952,6941dd757105f5612e78f1d3,69712dc693a3960bdb483245,69716bef077f777182cb572c,,,,,,,,,,,,,0,,,,,,,,,,,,,,,,,,,,,,,,,,,,,,,,,,,,,47,cartinar,,,,,412.4662,414.4122,1,0,1.4145,,0,36,36,46,1,REAL,FAKE,,,,,,,,,,,,,,,,,
,,,,,,,,,6941dd757105f5612e78f1d3,Spanish,13 or older,"no, only English or Spanish",yes,2026-01-21_19h16.57.611,empathy_intonation_perc_control,2024.2.4,Win32,59.88023952,6941dd757105f5612e78f1d3,69712dc693a3960bdb483245,69716bef077f777182cb572c,,,,,,,,,,,,,1,,,,,,,,,,,,,,,,,,,,,,,,,,,,,,,,,,,,,7,pésimo,,,,,414.4152,416.6785,0,0,1.7323,,0,37,37,6,1,REAL,FAKE,,,,,,,,,,,,,,,,,
,,,,,,,,,6941dd757105f5612e78f1d3,Spanish,13 or older,"no, only English or Spanish",yes,2026-01-21_19h16.57.611,empathy_intonation_perc_control,2024.2.4,Win32,59.88023952,6941dd757105f5612e78f1d3,69712dc693a3960bdb483245,69716bef077f777182cb572c,,,,,,,,,,,,,1,,,,,,,,,,,,,,,,,,,,,,,,,,,,,,,,,,,,,55,nevar,,,,,416.6817,418.6781,0,0,1.4652,,0,38,38,54,1,REAL,FAKE,,,,,,,,,,,,,,,,,
,,,,,,,,,6941dd757105f5612e78f1d3,Spanish,13 or older,"no, only English or Spanish",yes,2026-01-21_19h16.57.611,empathy_intonation_perc_control,2024.2.4,Win32,59.88023952,6941dd757105f5612e78f1d3,69712dc693a3960bdb483245,69716bef077f777182cb572c,,,,,,,,,,,,,1,,,,,,,,,,,,,,,,,,,,,,,,,,,,,,,,,,,,,2,pellizcar,,,,,418.6811,420.2278,0,0,1.014,,0,39,39,1,1,REAL,FAKE,,,,,,,,,,,,,,,,,
,,,,,,,,,6941dd757105f5612e78f1d3,Spanish,13 or older,"no, only English or Spanish",yes,2026-01-21_19h16.57.611,empathy_intonation_perc_control,2024.2.4,Win32,59.88023952,6941dd757105f5612e78f1d3,69712dc693a3960bdb483245,69716bef077f777182cb572c,,,,,,,,,,,,,0,,,,,,,,,,,,,,,,,,,,,,,,,,,,,,,,,,,,,23,lampera,,,,,420.2306,422.7105,1,0,1.9543,,0,40,40,22,1,REAL,FAKE,,,,,,,,,,,,,,,,,
,,,,,,,,,6941dd757105f5612e78f1d3,Spanish,13 or older,"no, only English or Spanish",yes,2026-01-21_19h16.57.611,empathy_intonation_perc_control,2024.2.4,Win32,59.88023952,6941dd757105f5612e78f1d3,69712dc693a3960bdb483245,69716bef077f777182cb572c,,,,,,,,,,,,,0,,,,,,,,,,,,,,,,,,,,,,,,,,,,,,,,,,,,,10,antar,,,,,422.7135,424.5935,0,1,1.3484,,0,41,41,9,1,REAL,FAKE,,,,,,,,,,,,,,,,,
,,,,,,,,,6941dd757105f5612e78f1d3,Spanish,13 or older,"no, only English or Spanish",yes,2026-01-21_19h16.57.611,empathy_intonation_perc_control,2024.2.4,Win32,59.88023952,6941dd757105f5612e78f1d3,69712dc693a3960bdb483245,69716bef077f777182cb572c,,,,,,,,,,,,,1,,,,,,,,,,,,,,,,,,,,,,,,,,,,,,,,,,,,,81,pozo,,,,,424.5967,426.1101,0,0,0.9873,,0,42,42,80,1,REAL,FAKE,,,,,,,,,,,,,,,,,
,,,,,,,,,6941dd757105f5612e78f1d3,Spanish,13 or older,"no, only English or Spanish",yes,2026-01-21_19h16.57.611,empathy_intonation_perc_control,2024.2.4,Win32,59.88023952,6941dd757105f5612e78f1d3,69712dc693a3960bdb483245,69716bef077f777182cb572c,,,,,,,,,,,,,1,,,,,,,,,,,,,,,,,,,,,,,,,,,,,,,,,,,,,76,atar,,,,,426.1128,427.6767,0,0,1.03,,0,43,43,75,1,REAL,FAKE,,,,,,,,,,,,,,,,,
,,,,,,,,,6941dd757105f5612e78f1d3,Spanish,13 or older,"no, only English or Spanish",yes,2026-01-21_19h16.57.611,empathy_intonation_perc_control,2024.2.4,Win32,59.88023952,6941dd757105f5612e78f1d3,69712dc693a3960bdb483245,69716bef077f777182cb572c,,,,,,,,,,,,,1,,,,,,,,,,,,,,,,,,,,,,,,,,,,,,,,,,,,,5,zapato,,,,,427.6797,429.6092,1,1,1.3975,,0,44,44,4,1,REAL,FAKE,,,,,,,,,,,,,,,,,
,,,,,,,,,6941dd757105f5612e78f1d3,Spanish,13 or older,"no, only English or Spanish",yes,2026-01-21_19h16.57.611,empathy_intonation_perc_control,2024.2.4,Win32,59.88023952,6941dd757105f5612e78f1d3,69712dc693a3960bdb483245,69716bef077f777182cb572c,,,,,,,,,,,,,1,,,,,,,,,,,,,,,,,,,,,,,,,,,,,,,,,,,,,31,pandilla,,,,,429.6107,431.2254,1,1,1.0881,,0,45,45,30,1,REAL,FAKE,,,,,,,,,,,,,,,,,
,,,,,,,,,6941dd757105f5612e78f1d3,Spanish,13 or older,"no, only English or Spanish",yes,2026-01-21_19h16.57.611,empathy_intonation_perc_control,2024.2.4,Win32,59.88023952,6941dd757105f5612e78f1d3,69712dc693a3960bdb483245,69716bef077f777182cb572c,,,,,,,,,,,,,1,,,,,,,,,,,,,,,,,,,,,,,,,,,,,,,,,,,,,24,látigo,,,,,431.2287,432.9418,1,1,1.1848,,0,46,46,23,1,REAL,FAKE,,,,,,,,,,,,,,,,,
,,,,,,,,,6941dd757105f5612e78f1d3,Spanish,13 or older,"no, only English or Spanish",yes,2026-01-21_19h16.57.611,empathy_intonation_perc_control,2024.2.4,Win32,59.88023952,6941dd757105f5612e78f1d3,69712dc693a3960bdb483245,69716bef077f777182cb572c,,,,,,,,,,,,,0,,,,,,,,,,,,,,,,,,,,,,,,,,,,,,,,,,,,,17,floroso,,,,,432.9448,434.6248,0,1,1.1537,,0,47,47,16,1,REAL,FAKE,,,,,,,,,,,,,,,,,
,,,,,,,,,6941dd757105f5612e78f1d3,Spanish,13 or older,"no, only English or Spanish",yes,2026-01-21_19h16.57.611,empathy_intonation_perc_control,2024.2.4,Win32,59.88023952,6941dd757105f5612e78f1d3,69712dc693a3960bdb483245,69716bef077f777182cb572c,,,,,,,,,,,,,1,,,,,,,,,,,,,,,,,,,,,,,,,,,,,,,,,,,,,44,cuchara,,,,,434.628,436.8746,1,1,1.7134,,0,48,48,43,1,REAL,FAKE,,,,,,,,,,,,,,,,,
,,,,,,,,,6941dd757105f5612e78f1d3,Spanish,13 or older,"no, only English or Spanish",yes,2026-01-21_19h16.57.611,empathy_intonation_perc_control,2024.2.4,Win32,59.88023952,6941dd757105f5612e78f1d3,69712dc693a3960bdb483245,69716bef077f777182cb572c,,,,,,,,,,,,,0,,,,,,,,,,,,,,,,,,,,,,,,,,,,,,,,,,,,,92,click the 0 key.,,,,,436.8782,439.4738,0,1,2.067,,0,49,49,91,1,REAL,FAKE,,,,,,,,,,,,,,,,,
,,,,,,,,,6941dd757105f5612e78f1d3,Spanish,13 or older,"no, only English or Spanish",yes,2026-01-21_19h16.57.611,empathy_intonation_perc_control,2024.2.4,Win32,59.88023952,6941dd757105f5612e78f1d3,69712dc693a3960bdb483245,69716bef077f777182cb572c,,,,,,,,,,,,,0,,,,,,,,,,,,,,,,,,,,,,,,,,,,,,,,,,,,,29,decar,,,,,439.4774,441.3903,1,0,1.3825,,0,50,50,28,1,REAL,FAKE,,,,,,,,,,,,,,,,,
,,,,,,,,,6941dd757105f5612e78f1d3,Spanish,13 or older,"no, only English or Spanish",yes,2026-01-21_19h16.57.611,empathy_intonation_perc_control,2024.2.4,Win32,59.88023952,6941dd757105f5612e78f1d3,69712dc693a3960bdb483245,69716bef077f777182cb572c,,,,,,,,,,,,,0,,,,,,,,,,,,,,,,,,,,,,,,,,,,,,,,,,,,,74,cintro,,,,,441.3932,443.5727,1,0,1.6523,,0,51,51,73,1,REAL,FAKE,,,,,,,,,,,,,,,,,
,,,,,,,,,6941dd757105f5612e78f1d3,Spanish,13 or older,"no, only English or Spanish",yes,2026-01-21_19h16.57.611,empathy_intonation_perc_control,2024.2.4,Win32,59.88023952,6941dd757105f5612e78f1d3,69712dc693a3960bdb483245,69716bef077f777182cb572c,,,,,,,,,,,,,1,,,,,,,,,,,,,,,,,,,,,,,,,,,,,,,,,,,,,15,regar,,,,,443.5755,444.99,0,0,0.8806,,0,52,52,14,1,REAL,FAKE,,,,,,,,,,,,,,,,,
,,,,,,,,,6941dd757105f5612e78f1d3,Spanish,13 or older,"no, only English or Spanish",yes,2026-01-21_19h16.57.611,empathy_intonation_perc_control,2024.2.4,Win32,59.88023952,6941dd757105f5612e78f1d3,69712dc693a3960bdb483245,69716bef077f777182cb572c,,,,,,,,,,,,,1,,,,,,,,,,,,,,,,,,,,,,,,,,,,,,,,,,,,,56,musgo,,,,,444.9929,446.4281,0,0,0.8978,,0,53,53,55,1,REAL,FAKE,,,,,,,,,,,,,,,,,
,,,,,,,,,6941dd757105f5612e78f1d3,Spanish,13 or older,"no, only English or Spanish",yes,2026-01-21_19h16.57.611,empathy_intonation_perc_control,2024.2.4,Win32,59.88023952,6941dd757105f5612e78f1d3,69712dc693a3960bdb483245,69716bef077f777182cb572c,,,,,,,,,,,,,0,,,,,,,,,,,,,,,,,,,,,,,,,,,,,,,,,,,,,79,tropaje,,,,,446.4289,449.4352,1,0,2.451,,0,54,54,78,1,REAL,FAKE,,,,,,,,,,,,,,,,,
,,,,,,,,,6941dd757105f5612e78f1d3,Spanish,13 or older,"no, only English or Spanish",yes,2026-01-21_19h16.57.611,empathy_intonation_perc_control,2024.2.4,Win32,59.88023952,6941dd757105f5612e78f1d3,69712dc693a3960bdb483245,69716bef077f777182cb572c,,,,,,,,,,,,,1,,,,,,,,,,,,,,,,,,,,,,,,,,,,,,,,,,,,,62,flaco,,,,,449.438,450.8068,0,0,0.837,,0,55,55,61,1,REAL,FAKE,,,,,,,,,,,,,,,,,
,,,,,,,,,6941dd757105f5612e78f1d3,Spanish,13 or older,"no, only English or Spanish",yes,2026-01-21_19h16.57.611,empathy_intonation_perc_control,2024.2.4,Win32,59.88023952,6941dd757105f5612e78f1d3,69712dc693a3960bdb483245,69716bef077f777182cb572c,,,,,,,,,,,,,1,,,,,,,,,,,,,,,,,,,,,,,,,,,,,,,,,,,,,25,bisagra,,,,,450.8085,453.012,0,0,1.6665,,0,56,56,24,1,REAL,FAKE,,,,,,,,,,,,,,,,,
,,,,,,,,,6941dd757105f5612e78f1d3,Spanish,13 or older,"no, only English or Spanish",yes,2026-01-21_19h16.57.611,empathy_intonation_perc_control,2024.2.4,Win32,59.88023952,6941dd757105f5612e78f1d3,69712dc693a3960bdb483245,69716bef077f777182cb572c,,,,,,,,,,,,,1,,,,,,,,,,,,,,,,,,,,,,,,,,,,,,,,,,,,,38,estornudar,,,,,453.0135,454.8428,0,0,1.2991,,0,57,57,37,1,REAL,FAKE,,,,,,,,,,,,,,,,,
,,,,,,,,,6941dd757105f5612e78f1d3,Spanish,13 or older,"no, only English or Spanish",yes,2026-01-21_19h16.57.611,empathy_intonation_perc_control,2024.2.4,Win32,59.88023952,6941dd757105f5612e78f1d3,69712dc693a3960bdb483245,69716bef077f777182cb572c,,,,,,,,,,,,,1,,,,,,,,,,,,,,,,,,,,,,,,,,,,,,,,,,,,,85,laúd,,,,,454.8441,456.3935,1,1,1.0173,,0,58,58,84,1,REAL,FAKE,,,,,,,,,,,,,,,,,
,,,,,,,,,6941dd757105f5612e78f1d3,Spanish,13 or older,"no, only English or Spanish",yes,2026-01-21_19h16.57.611,empathy_intonation_perc_control,2024.2.4,Win32,59.88023952,6941dd757105f5612e78f1d3,69712dc693a3960bdb483245,69716bef077f777182cb572c,,,,,,,,,,,,,1,,,,,,,,,,,,,,,,,,,,,,,,,,,,,,,,,,,,,20,ávido,,,,,456.3953,458.1888,0,0,1.2534,,0,59,59,19,1,REAL,FAKE,,,,,,,,,,,,,,,,,
,,,,,,,,,6941dd757105f5612e78f1d3,Spanish,13 or older,"no, only English or Spanish",yes,2026-01-21_19h16.57.611,empathy_intonation_perc_control,2024.2.4,Win32,59.88023952,6941dd757105f5612e78f1d3,69712dc693a3960bdb483245,69716bef077f777182cb572c,,,,,,,,,,,,,1,,,,,,,,,,,,,,,,,,,,,,,,,,,,,,,,,,,,,28,merodear,,,,,458.1902,459.6748,0,0,0.9642,,0,60,60,27,1,REAL,FAKE,,,,,,,,,,,,,,,,,
,,,,,,,,,6941dd757105f5612e78f1d3,Spanish,13 or older,"no, only English or Spanish",yes,2026-01-21_19h16.57.611,empathy_intonation_perc_control,2024.2.4,Win32,59.88023952,6941dd757105f5612e78f1d3,69712dc693a3960bdb483245,69716bef077f777182cb572c,,,,,,,,,,,,,1,,,,,,,,,,,,,,,,,,,,,,,,,,,,,,,,,,,,,61,seda,,,,,459.6763,461.3769,0,0,1.1671,,0,61,61,60,1,REAL,FAKE,,,,,,,,,,,,,,,,,
,,,,,,,,,6941dd757105f5612e78f1d3,Spanish,13 or older,"no, only English or Spanish",yes,2026-01-21_19h16.57.611,empathy_intonation_perc_control,2024.2.4,Win32,59.88023952,6941dd757105f5612e78f1d3,69712dc693a3960bdb483245,69716bef077f777182cb572c,,,,,,,,,,,,,1,,,,,,,,,,,,,,,,,,,,,,,,,,,,,,,,,,,,,48,ladrón,,,,,461.3783,462.8211,1,1,0.9018,,0,62,62,47,1,REAL,FAKE,,,,,,,,,,,,,,,,,
,,,,,,,,,6941dd757105f5612e78f1d3,Spanish,13 or older,"no, only English or Spanish",yes,2026-01-21_19h16.57.611,empathy_intonation_perc_control,2024.2.4,Win32,59.88023952,6941dd757105f5612e78f1d3,69712dc693a3960bdb483245,69716bef077f777182cb572c,,,,,,,,,,,,,0,,,,,,,,,,,,,,,,,,,,,,,,,,,,,,,,,,,,,58,plaudir,,,,,462.8226,464.4091,0,1,1.0497,,0,63,63,57,1,REAL,FAKE,,,,,,,,,,,,,,,,,
,,,,,,,,,6941dd757105f5612e78f1d3,Spanish,13 or older,"no, only English or Spanish",yes,2026-01-21_19h16.57.611,empathy_intonation_perc_control,2024.2.4,Win32,59.88023952,6941dd757105f5612e78f1d3,69712dc693a3960bdb483245,69716bef077f777182cb572c,,,,,,,,,,,,,1,,,,,,,,,,,,,,,,,,,,,,,,,,,,,,,,,,,,,26,secuestro,,,,,464.4105,466.4586,0,0,1.5169,,0,64,64,25,1,REAL,FAKE,,,,,,,,,,,,,,,,,
,,,,,,,,,6941dd757105f5612e78f1d3,Spanish,13 or older,"no, only English or Spanish",yes,2026-01-21_19h16.57.611,empathy_intonation_perc_control,2024.2.4,Win32,59.88023952,6941dd757105f5612e78f1d3,69712dc693a3960bdb483245,69716bef077f777182cb572c,,,,,,,,,,,,,1,,,,,,,,,,,,,,,,,,,,,,,,,,,,,,,,,,,,,78,frondoso,,,,,466.4603,467.8916,0,0,0.8998,,0,65,65,77,1,REAL,FAKE,,,,,,,,,,,,,,,,,
,,,,,,,,,6941dd757105f5612e78f1d3,Spanish,13 or older,"no, only English or Spanish",yes,2026-01-21_19h16.57.611,empathy_intonation_perc_control,2024.2.4,Win32,59.88023952,6941dd757105f5612e78f1d3,69712dc693a3960bdb483245,69716bef077f777182cb572c,,,,,,,,,,,,,1,,,,,,,,,,,,,,,,,,,,,,,,,,,,,,,,,,,,,6,tergiversar,,,,,467.8931,469.2191,0,0,0.7914,,0,66,66,5,1,REAL,FAKE,,,,,,,,,,,,,,,,,
,,,,,,,,,6941dd757105f5612e78f1d3,Spanish,13 or older,"no, only English or Spanish",yes,2026-01-21_19h16.57.611,empathy_intonation_perc_control,2024.2.4,Win32,59.88023952,6941dd757105f5612e78f1d3,69712dc693a3960bdb483245,69716bef077f777182cb572c,,,,,,,,,,,,,0,,,,,,,,,,,,,,,,,,,,,,,,,,,,,,,,,,,,,84,escuto,,,,,469.2211,470.62,0,1,0.8511,,0,67,67,83,1,REAL,FAKE,,,,,,,,,,,,,,,,,
,,,,,,,,,6941dd757105f5612e78f1d3,Spanish,13 or older,"no, only English or Spanish",yes,2026-01-21_19h16.57.611,empathy_intonation_perc_control,2024.2.4,Win32,59.88023952,6941dd757105f5612e78f1d3,69712dc693a3960bdb483245,69716bef077f777182cb572c,,,,,,,,,,,,,0,,,,,,,,,,,,,,,,,,,,,,,,,,,,,,,,,,,,,87,grodo,,,,,470.6214,471.7904,0,1,0.633,,0,68,68,86,1,REAL,FAKE,,,,,,,,,,,,,,,,,
,,,,,,,,,6941dd757105f5612e78f1d3,Spanish,13 or older,"no, only English or Spanish",yes,2026-01-21_19h16.57.611,empathy_intonation_perc_control,2024.2.4,Win32,59.88023952,6941dd757105f5612e78f1d3,69712dc693a3960bdb483245,69716bef077f777182cb572c,,,,,,,,,,,,,1,,,,,,,,,,,,,,,,,,,,,,,,,,,,,,,,,,,,,88,acantilado,,,,,471.792,473.1407,0,0,0.8162,,0,69,69,87,1,REAL,FAKE,,,,,,,,,,,,,,,,,
,,,,,,,,,6941dd757105f5612e78f1d3,Spanish,13 or older,"no, only English or Spanish",yes,2026-01-21_19h16.57.611,empathy_intonation_perc_control,2024.2.4,Win32,59.88023952,6941dd757105f5612e78f1d3,69712dc693a3960bdb483245,69716bef077f777182cb572c,,,,,,,,,,,,,1,,,,,,,,,,,,,,,,,,,,,,,,,,,,,,,,,,,,,91,click the 1 key.,,,,,473.1427,474.5232,1,1,0.8495,,0,70,70,90,1,REAL,FAKE,,,,,,,,,,,,,,,,,
,,,,,,,,,6941dd757105f5612e78f1d3,Spanish,13 or older,"no, only English or Spanish",yes,2026-01-21_19h16.57.611,empathy_intonation_perc_control,2024.2.4,Win32,59.88023952,6941dd757105f5612e78f1d3,69712dc693a3960bdb483245,69716bef077f777182cb572c,,,,,,,,,,,,,0,,,,,,,,,,,,,,,,,,,,,,,,,,,,,,,,,,,,,82,empirador,,,,,474.5247,476.2402,1,0,1.1827,,0,71,71,81,1,REAL,FAKE,,,,,,,,,,,,,,,,,
,,,,,,,,,6941dd757105f5612e78f1d3,Spanish,13 or older,"no, only English or Spanish",yes,2026-01-21_19h16.57.611,empathy_intonation_perc_control,2024.2.4,Win32,59.88023952,6941dd757105f5612e78f1d3,69712dc693a3960bdb483245,69716bef077f777182cb572c,,,,,,,,,,,,,1,,,,,,,,,,,,,,,,,,,,,,,,,,,,,,,,,,,,,12,asesinato,,,,,476.2419,477.9013,0,0,1.1258,,0,72,72,11,1,REAL,FAKE,,,,,,,,,,,,,,,,,
,,,,,,,,,6941dd757105f5612e78f1d3,Spanish,13 or older,"no, only English or Spanish",yes,2026-01-21_19h16.57.611,empathy_intonation_perc_control,2024.2.4,Win32,59.88023952,6941dd757105f5612e78f1d3,69712dc693a3960bdb483245,69716bef077f777182cb572c,,,,,,,,,,,,,0,,,,,,,,,,,,,,,,,,,,,,,,,,,,,,,,,,,,,30,alardio,,,,,477.903,479.3389,0,1,0.9155,,0,73,73,29,1,REAL,FAKE,,,,,,,,,,,,,,,,,
,,,,,,,,,6941dd757105f5612e78f1d3,Spanish,13 or older,"no, only English or Spanish",yes,2026-01-21_19h16.57.611,empathy_intonation_perc_control,2024.2.4,Win32,59.88023952,6941dd757105f5612e78f1d3,69712dc693a3960bdb483245,69716bef077f777182cb572c,,,,,,,,,,,,,1,,,,,,,,,,,,,,,,,,,,,,,,,,,,,,,,,,,,,41,rebuscar,,,,,479.3406,481.0841,1,1,1.2015,,0,74,74,40,1,REAL,FAKE,,,,,,,,,,,,,,,,,
,,,,,,,,,6941dd757105f5612e78f1d3,Spanish,13 or older,"no, only English or Spanish",yes,2026-01-21_19h16.57.611,empathy_intonation_perc_control,2024.2.4,Win32,59.88023952,6941dd757105f5612e78f1d3,69712dc693a3960bdb483245,69716bef077f777182cb572c,,,,,,,,,,,,,1,,,,,,,,,,,,,,,,,,,,,,,,,,,,,,,,,,,,,59,besar,,,,,481.0858,482.2391,0,0,0.6163,,0,75,75,58,1,REAL,FAKE,,,,,,,,,,,,,,,,,
,,,,,,,,,6941dd757105f5612e78f1d3,Spanish,13 or older,"no, only English or Spanish",yes,2026-01-21_19h16.57.611,empathy_intonation_perc_control,2024.2.4,Win32,59.88023952,6941dd757105f5612e78f1d3,69712dc693a3960bdb483245,69716bef077f777182cb572c,,,,,,,,,,,,,1,,,,,,,,,,,,,,,,,,,,,,,,,,,,,,,,,,,,,11,cenefa,,,,,482.2406,483.5885,0,0,0.8163,,0,76,76,10,1,REAL,FAKE,,,,,,,,,,,,,,,,,
,,,,,,,,,6941dd757105f5612e78f1d3,Spanish,13 or older,"no, only English or Spanish",yes,2026-01-21_19h16.57.611,empathy_intonation_perc_control,2024.2.4,Win32,59.88023952,6941dd757105f5612e78f1d3,69712dc693a3960bdb483245,69716bef077f777182cb572c,,,,,,,,,,,,,1,,,,,,,,,,,,,,,,,,,,,,,,,,,,,,,,,,,,,65,bizcocho,,,,,483.59,485.1994,0,0,1.075,,0,77,77,64,1,REAL,FAKE,,,,,,,,,,,,,,,,,
,,,,,,,,,6941dd757105f5612e78f1d3,Spanish,13 or older,"no, only English or Spanish",yes,2026-01-21_19h16.57.611,empathy_intonation_perc_control,2024.2.4,Win32,59.88023952,6941dd757105f5612e78f1d3,69712dc693a3960bdb483245,69716bef077f777182cb572c,,,,,,,,,,,,,1,,,,,,,,,,,,,,,,,,,,,,,,,,,,,,,,,,,,,46,martillo,,,,,485.2013,486.7552,0,0,1.017,,0,78,78,45,1,REAL,FAKE,,,,,,,,,,,,,,,,,
,,,,,,,,,6941dd757105f5612e78f1d3,Spanish,13 or older,"no, only English or Spanish",yes,2026-01-21_19h16.57.611,empathy_intonation_perc_control,2024.2.4,Win32,59.88023952,6941dd757105f5612e78f1d3,69712dc693a3960bdb483245,69716bef077f777182cb572c,,,,,,,,,,,,,0,,,,,,,,,,,,,,,,,,,,,,,,,,,,,,,,,,,,,70,temblo,,,,,486.7566,488.5376,1,0,1.2497,,0,79,79,69,1,REAL,FAKE,,,,,,,,,,,,,,,,,
,,,,,,,,,6941dd757105f5612e78f1d3,Spanish,13 or older,"no, only English or Spanish",yes,2026-01-21_19h16.57.611,empathy_intonation_perc_control,2024.2.4,Win32,59.88023952,6941dd757105f5612e78f1d3,69712dc693a3960bdb483245,69716bef077f777182cb572c,,,,,,,,,,,,,1,,,,,,,,,,,,,,,,,,,,,,,,,,,,,,,,,,,,,57,tacaño,,,,,488.5391,489.786,1,1,0.7152,,0,80,80,56,1,REAL,FAKE,,,,,,,,,,,,,,,,,
,,,,,,,,,6941dd757105f5612e78f1d3,Spanish,13 or older,"no, only English or Spanish",yes,2026-01-21_19h16.57.611,empathy_intonation_perc_control,2024.2.4,Win32,59.88023952,6941dd757105f5612e78f1d3,69712dc693a3960bdb483245,69716bef077f777182cb572c,,,,,,,,,,,,,0,,,,,,,,,,,,,,,,,,,,,,,,,,,,,,,,,,,,,63,esposante,,,,,489.7871,491.2529,1,0,0.934,,0,81,81,62,1,REAL,FAKE,,,,,,,,,,,,,,,,,
,,,,,,,,,6941dd757105f5612e78f1d3,Spanish,13 or older,"no, only English or Spanish",yes,2026-01-21_19h16.57.611,empathy_intonation_perc_control,2024.2.4,Win32,59.88023952,6941dd757105f5612e78f1d3,69712dc693a3960bdb483245,69716bef077f777182cb572c,,,,,,,,,,,,,1,,,,,,,,,,,,,,,,,,,,,,,,,,,,,,,,,,,,,22,lacayo,,,,,491.2542,492.6153,0,0,0.8372,,0,82,82,21,1,REAL,FAKE,,,,,,,,,,,,,,,,,
,,,,,,,,,6941dd757105f5612e78f1d3,Spanish,13 or older,"no, only English or Spanish",yes,2026-01-21_19h16.57.611,empathy_intonation_perc_control,2024.2.4,Win32,59.88023952,6941dd757105f5612e78f1d3,69712dc693a3960bdb483245,69716bef077f777182cb572c,,,,,,,,,,,,,1,,,,,,,,,,,,,,,,,,,,,,,,,,,,,,,,,,,,,67,cabello,,,,,492.6169,493.8654,1,1,0.7012,,0,83,83,66,1,REAL,FAKE,,,,,,,,,,,,,,,,,
,,,,,,,,,6941dd757105f5612e78f1d3,Spanish,13 or older,"no, only English or Spanish",yes,2026-01-21_19h16.57.611,empathy_intonation_perc_control,2024.2.4,Win32,59.88023952,6941dd757105f5612e78f1d3,69712dc693a3960bdb483245,69716bef077f777182cb572c,,,,,,,,,,,,,1,,,,,,,,,,,,,,,,,,,,,,,,,,,,,,,,,,,,,64,orgulloso,,,,,493.8672,495.1691,0,0,0.7823,,0,84,84,63,1,REAL,FAKE,,,,,,,,,,,,,,,,,
,,,,,,,,,6941dd757105f5612e78f1d3,Spanish,13 or older,"no, only English or Spanish",yes,2026-01-21_19h16.57.611,empathy_intonation_perc_control,2024.2.4,Win32,59.88023952,6941dd757105f5612e78f1d3,69712dc693a3960bdb483245,69716bef077f777182cb572c,,,,,,,,,,,,,1,,,,,,,,,,,,,,,,,,,,,,,,,,,,,,,,,,,,,45,jilguero,,,,,495.1706,496.4147,0,0,0.7017,,0,85,85,44,1,REAL,FAKE,,,,,,,,,,,,,,,,,
,,,,,,,,,6941dd757105f5612e78f1d3,Spanish,13 or older,"no, only English or Spanish",yes,2026-01-21_19h16.57.611,empathy_intonation_perc_control,2024.2.4,Win32,59.88023952,6941dd757105f5612e78f1d3,69712dc693a3960bdb483245,69716bef077f777182cb572c,,,,,,,,,,,,,0,,,,,,,,,,,,,,,,,,,,,,,,,,,,,,,,,,,,,42,cadallo,,,,,496.4164,497.8359,0,1,0.8999,,0,86,86,41,1,REAL,FAKE,,,,,,,,,,,,,,,,,
,,,,,,,,,6941dd757105f5612e78f1d3,Spanish,13 or older,"no, only English or Spanish",yes,2026-01-21_19h16.57.611,empathy_intonation_perc_control,2024.2.4,Win32,59.88023952,6941dd757105f5612e78f1d3,69712dc693a3960bdb483245,69716bef077f777182cb572c,,,,,,,,,,,,,1,,,,,,,,,,,,,,,,,,,,,,,,,,,,,,,,,,,,,69,engatusar,,,,,497.8374,499.3335,1,1,0.964,,0,87,87,68,1,REAL,FAKE,,,,,,,,,,,,,,,,,
,,,,,,,,,6941dd757105f5612e78f1d3,Spanish,13 or older,"no, only English or Spanish",yes,2026-01-21_19h16.57.611,empathy_intonation_perc_control,2024.2.4,Win32,59.88023952,6941dd757105f5612e78f1d3,69712dc693a3960bdb483245,69716bef077f777182cb572c,,,,,,,,,,,,,0,,,,,,,,,,,,,,,,,,,,,,,,,,,,,,,,,,,,,66,hacido,,,,,499.335,501.4969,0,1,1.6186,,0,88,88,65,1,REAL,FAKE,,,,,,,,,,,,,,,,,
,,,,,,,,,6941dd757105f5612e78f1d3,Spanish,13 or older,"no, only English or Spanish",yes,2026-01-21_19h16.57.611,empathy_intonation_perc_control,2024.2.4,Win32,59.88023952,6941dd757105f5612e78f1d3,69712dc693a3960bdb483245,69716bef077f777182cb572c,,,,,,,,,,,,,1,,,,,,,,,,,,,,,,,,,,,,,,,,,,,,,,,,,,,80,hormiga,,,,,501.4987,502.7453,0,0,0.7203,,0,89,89,79,1,REAL,FAKE,,,,,,,,,,,,,,,,,
,,,,,,,,,6941dd757105f5612e78f1d3,Spanish,13 or older,"no, only English or Spanish",yes,2026-01-21_19h16.57.611,empathy_intonation_perc_control,2024.2.4,Win32,59.88023952,6941dd757105f5612e78f1d3,69712dc693a3960bdb483245,69716bef077f777182cb572c,,,,,,,,,,,,,0,,,,,,,,,,,,,,,,,,,,,,,,,,,,,,,,,,,,,19,brecedad,,,,,502.7471,503.9459,0,1,0.6735,,0,90,90,18,1,REAL,FAKE,,,,,,,,,,,,,,,,,
,,,,,,,,,6941dd757105f5612e78f1d3,Spanish,13 or older,"no, only English or Spanish",yes,2026-01-21_19h16.57.611,empathy_intonation_perc_control,2024.2.4,Win32,59.88023952,6941dd757105f5612e78f1d3,69712dc693a3960bdb483245,69716bef077f777182cb572c,,,,,,,,,,,,,1,,,,,,,,,,,,,,,,,,,,,,,,,,,,,,,,,,,,,14,yunque,,,,,503.948,505.046,0,0,0.5574,,0,91,91,13,1,REAL,FAKE,,,,,,,,,,,,,,,,,
,,,,,,,,,6941dd757105f5612e78f1d3,Spanish,13 or older,"no, only English or Spanish",yes,2026-01-21_19h16.57.611,empathy_intonation_perc_control,2024.2.4,Win32,59.88023952,6941dd757105f5612e78f1d3,69712dc693a3960bdb483245,69716bef077f777182cb572c,,,,,,,,,,,,,,,,,,,,,,,,,,,,,,,,,,,,,,,,,,,,,,,,,,,,,,,,,,,,,,,,,,,,,505.047,582.237,,,,,,,,,,,,,,,
,,,,,,,,,6941dd757105f5612e78f1d3,Spanish,13 or older,"no, only English or Spanish",yes,2026-01-21_19h16.57.611,empathy_intonation_perc_control,2024.2.4,Win32,59.88023952,6941dd757105f5612e78f1d3,69712dc693a3960bdb483245,69716bef077f777182cb572c,,,,,,,,,,,,,,,,,,,,,,,,,,,1,,,,,,,,,,,,,,,,,,,,,,,,,,,,,,,,,,,,,,,,,,,,582.2576,613.6238,slightly agree,0,0,0,0,1,I can easily tell if someone else wants to enter a conversation.,1,0,1,0,,
,,,,,,,,,6941dd757105f5612e78f1d3,Spanish,13 or older,"no, only English or Spanish",yes,2026-01-21_19h16.57.611,empathy_intonation_perc_control,2024.2.4,Win32,59.88023952,6941dd757105f5612e78f1d3,69712dc693a3960bdb483245,69716bef077f777182cb572c,,,,,,,,,,,,,,,,,,,,,,,,,,,2,,,,,,,,,,,,,,,,,,,,,,,,,,,,,,,,,,,,,,,,,,,,613.6289,619.1395,strongly disagree,0,1,1,1,1,I prefer animals to humans.,0,1,0,0,,
,,,,,,,,,6941dd757105f5612e78f1d3,Spanish,13 or older,"no, only English or Spanish",yes,2026-01-21_19h16.57.611,empathy_intonation_perc_control,2024.2.4,Win32,59.88023952,6941dd757105f5612e78f1d3,69712dc693a3960bdb483245,69716bef077f777182cb572c,,,,,,,,,,,,,,,,,,,,,,,,,,,3,,,,,,,,,,,,,,,,,,,,,,,,,,,,,,,,,,,,,,,,,,,,619.1437,625.5591,strongly agree,0,2,2,2,1,I try to keep up with the current trends and fashions.,0,1,0,0,,
,,,,,,,,,6941dd757105f5612e78f1d3,Spanish,13 or older,"no, only English or Spanish",yes,2026-01-21_19h16.57.611,empathy_intonation_perc_control,2024.2.4,Win32,59.88023952,6941dd757105f5612e78f1d3,69712dc693a3960bdb483245,69716bef077f777182cb572c,,,,,,,,,,,,,,,,,,,,,,,,,,,4,,,,,,,,,,,,,,,,,,,,,,,,,,,,,,,,,,,,,,,,,,,,625.5604,636.3869,strongly disagree,0,3,3,3,1,"I find it difficult to explain to others things that I understand easily,   when they don't understand it first time.",1,0,0,1,,
,,,,,,,,,6941dd757105f5612e78f1d3,Spanish,13 or older,"no, only English or Spanish",yes,2026-01-21_19h16.57.611,empathy_intonation_perc_control,2024.2.4,Win32,59.88023952,6941dd757105f5612e78f1d3,69712dc693a3960bdb483245,69716bef077f777182cb572c,,,,,,,,,,,,,,,,,,,,,,,,,,,5,,,,,,,,,,,,,,,,,,,,,,,,,,,,,,,,,,,,,,,,,,,,636.3897,642.408,slightly agree,0,4,4,4,1,I dream most nights.,0,1,0,0,,
,,,,,,,,,6941dd757105f5612e78f1d3,Spanish,13 or older,"no, only English or Spanish",yes,2026-01-21_19h16.57.611,empathy_intonation_perc_control,2024.2.4,Win32,59.88023952,6941dd757105f5612e78f1d3,69712dc693a3960bdb483245,69716bef077f777182cb572c,,,,,,,,,,,,,,,,,,,,,,,,,,,6,,,,,,,,,,,,,,,,,,,,,,,,,,,,,,,,,,,,,,,,,,,,642.4107,646.8174,strongly agree,0,5,5,5,1,I really enjoy caring for other people.,1,0,1,0,,
,,,,,,,,,6941dd757105f5612e78f1d3,Spanish,13 or older,"no, only English or Spanish",yes,2026-01-21_19h16.57.611,empathy_intonation_perc_control,2024.2.4,Win32,59.88023952,6941dd757105f5612e78f1d3,69712dc693a3960bdb483245,69716bef077f777182cb572c,,,,,,,,,,,,,,,,,,,,,,,,,,,7,,,,,,,,,,,,,,,,,,,,,,,,,,,,,,,,,,,,,,,,,,,,646.8219,650.5329,strongly agree,0,6,6,6,1,I try to solve my own problems rather than discussing them with others.,0,1,0,0,,
,,,,,,,,,6941dd757105f5612e78f1d3,Spanish,13 or older,"no, only English or Spanish",yes,2026-01-21_19h16.57.611,empathy_intonation_perc_control,2024.2.4,Win32,59.88023952,6941dd757105f5612e78f1d3,69712dc693a3960bdb483245,69716bef077f777182cb572c,,,,,,,,,,,,,,,,,,,,,,,,,,,8,,,,,,,,,,,,,,,,,,,,,,,,,,,,,,,,,,,,,,,,,,,,650.5366,654.1146,strongly agree,0,7,7,7,1,I find it hard to know what to do in a social situation.,1,0,0,1,,
,,,,,,,,,6941dd757105f5612e78f1d3,Spanish,13 or older,"no, only English or Spanish",yes,2026-01-21_19h16.57.611,empathy_intonation_perc_control,2024.2.4,Win32,59.88023952,6941dd757105f5612e78f1d3,69712dc693a3960bdb483245,69716bef077f777182cb572c,,,,,,,,,,,,,,,,,,,,,,,,,,,9,,,,,,,,,,,,,,,,,,,,,,,,,,,,,,,,,,,,,,,,,,,,654.1175,661.2306,strongly agree,0,8,8,8,1,I am at my best first thing in the morning.,0,1,0,0,,
,,,,,,,,,6941dd757105f5612e78f1d3,Spanish,13 or older,"no, only English or Spanish",yes,2026-01-21_19h16.57.611,empathy_intonation_perc_control,2024.2.4,Win32,59.88023952,6941dd757105f5612e78f1d3,69712dc693a3960bdb483245,69716bef077f777182cb572c,,,,,,,,,,,,,,,,,,,,,,,,,,,10,,,,,,,,,,,,,,,,,,,,,,,,,,,,,,,,,,,,,,,,,,,,661.2354,669.1647,strongly disagree,0,9,9,9,1,People often tell me that I went too far in driving my point home in a discussion.,1,0,0,1,,
,,,,,,,,,6941dd757105f5612e78f1d3,Spanish,13 or older,"no, only English or Spanish",yes,2026-01-21_19h16.57.611,empathy_intonation_perc_control,2024.2.4,Win32,59.88023952,6941dd757105f5612e78f1d3,69712dc693a3960bdb483245,69716bef077f777182cb572c,,,,,,,,,,,,,,,,,,,,,,,,,,,11,,,,,,,,,,,,,,,,,,,,,,,,,,,,,,,,,,,,,,,,,,,,669.1669,674.3783,strongly agree,0,10,10,10,1,It doesn't bother me too much if I am late meeting a friend.,1,0,0,1,,
,,,,,,,,,6941dd757105f5612e78f1d3,Spanish,13 or older,"no, only English or Spanish",yes,2026-01-21_19h16.57.611,empathy_intonation_perc_control,2024.2.4,Win32,59.88023952,6941dd757105f5612e78f1d3,69712dc693a3960bdb483245,69716bef077f777182cb572c,,,,,,,,,,,,,,,,,,,,,,,,,,,12,,,,,,,,,,,,,,,,,,,,,,,,,,,,,,,,,,,,,,,,,,,,674.3826,683.2927,slightly agree,0,11,11,11,1,"Friendships and relationships are just too difficult, so I tend not to 
  bother with them.",1,0,0,1,,
,,,,,,,,,6941dd757105f5612e78f1d3,Spanish,13 or older,"no, only English or Spanish",yes,2026-01-21_19h16.57.611,empathy_intonation_perc_control,2024.2.4,Win32,59.88023952,6941dd757105f5612e78f1d3,69712dc693a3960bdb483245,69716bef077f777182cb572c,,,,,,,,,,,,,,,,,,,,,,,,,,,13,,,,,,,,,,,,,,,,,,,,,,,,,,,,,,,,,,,,,,,,,,,,683.2971,687.9819,strongly agree,0,12,12,12,1,"I would never break a law, no matter how minor.",0,1,0,0,,
,,,,,,,,,6941dd757105f5612e78f1d3,Spanish,13 or older,"no, only English or Spanish",yes,2026-01-21_19h16.57.611,empathy_intonation_perc_control,2024.2.4,Win32,59.88023952,6941dd757105f5612e78f1d3,69712dc693a3960bdb483245,69716bef077f777182cb572c,,,,,,,,,,,,,,,,,,,,,,,,,,,14,,,,,,,,,,,,,,,,,,,,,,,,,,,,,,,,,,,,,,,,,,,,687.9837,700.3564,slightly agree,0,13,13,13,1,I often find it difficult to judge if something is rude or polite.,1,0,0,1,,
,,,,,,,,,6941dd757105f5612e78f1d3,Spanish,13 or older,"no, only English or Spanish",yes,2026-01-21_19h16.57.611,empathy_intonation_perc_control,2024.2.4,Win32,59.88023952,6941dd757105f5612e78f1d3,69712dc693a3960bdb483245,69716bef077f777182cb572c,,,,,,,,,,,,,,,,,,,,,,,,,,,15,,,,,,,,,,,,,,,,,,,,,,,,,,,,,,,,,,,,,,,,,,,,700.3602,714.1035,strongly agree,0,14,14,14,1,"In a conversation, I tend to focus on my own thoughts rather than on what 
  my listener might be thinking.",1,0,0,1,,
,,,,,,,,,6941dd757105f5612e78f1d3,Spanish,13 or older,"no, only English or Spanish",yes,2026-01-21_19h16.57.611,empathy_intonation_perc_control,2024.2.4,Win32,59.88023952,6941dd757105f5612e78f1d3,69712dc693a3960bdb483245,69716bef077f777182cb572c,,,,,,,,,,,,,,,,,,,,,,,,,,,16,,,,,,,,,,,,,,,,,,,,,,,,,,,,,,,,,,,,,,,,,,,,714.1074,720.2025,strongly disagree,0,15,15,15,1,I prefer practical jokes to verbal humor.,0,1,0,0,,
,,,,,,,,,6941dd757105f5612e78f1d3,Spanish,13 or older,"no, only English or Spanish",yes,2026-01-21_19h16.57.611,empathy_intonation_perc_control,2024.2.4,Win32,59.88023952,6941dd757105f5612e78f1d3,69712dc693a3960bdb483245,69716bef077f777182cb572c,,,,,,,,,,,,,,,,,,,,,,,,,,,17,,,,,,,,,,,,,,,,,,,,,,,,,,,,,,,,,,,,,,,,,,,,720.2069,726.1081,slightly agree,0,16,16,16,1,I live life for today rather than the future.,0,1,0,0,,
,,,,,,,,,6941dd757105f5612e78f1d3,Spanish,13 or older,"no, only English or Spanish",yes,2026-01-21_19h16.57.611,empathy_intonation_perc_control,2024.2.4,Win32,59.88023952,6941dd757105f5612e78f1d3,69712dc693a3960bdb483245,69716bef077f777182cb572c,,,,,,,,,,,,,,,,,,,,,,,,,,,18,,,,,,,,,,,,,,,,,,,,,,,,,,,,,,,,,,,,,,,,,,,,726.1106,731.0333,strongly agree,0,17,17,17,1,"When I was a child, I enjoyed cutting up worms to see what would happen.",1,0,0,1,,
,,,,,,,,,6941dd757105f5612e78f1d3,Spanish,13 or older,"no, only English or Spanish",yes,2026-01-21_19h16.57.611,empathy_intonation_perc_control,2024.2.4,Win32,59.88023952,6941dd757105f5612e78f1d3,69712dc693a3960bdb483245,69716bef077f777182cb572c,,,,,,,,,,,,,,,,,,,,,,,,,,,19,,,,,,,,,,,,,,,,,,,,,,,,,,,,,,,,,,,,,,,,,,,,731.038,738.132,strongly agree,0,18,18,18,1,I can pick up quickly if someone says one thing but means another.,1,0,1,0,,
,,,,,,,,,6941dd757105f5612e78f1d3,Spanish,13 or older,"no, only English or Spanish",yes,2026-01-21_19h16.57.611,empathy_intonation_perc_control,2024.2.4,Win32,59.88023952,6941dd757105f5612e78f1d3,69712dc693a3960bdb483245,69716bef077f777182cb572c,,,,,,,,,,,,,,,,,,,,,,,,,,,20,,,,,,,,,,,,,,,,,,,,,,,,,,,,,,,,,,,,,,,,,,,,738.1357,741.5822,strongly agree,0,19,19,19,1,I tend to have very strong opinions about morality.,0,1,0,0,,
,,,,,,,,,6941dd757105f5612e78f1d3,Spanish,13 or older,"no, only English or Spanish",yes,2026-01-21_19h16.57.611,empathy_intonation_perc_control,2024.2.4,Win32,59.88023952,6941dd757105f5612e78f1d3,69712dc693a3960bdb483245,69716bef077f777182cb572c,,,,,,,,,,,,,,,,,,,,,,,,,,,21,,,,,,,,,,,,,,,,,,,,,,,,,,,,,,,,,,,,,,,,,,,,741.5862,745.8209,strongly agree,0,20,20,20,1,It is hard for me to see why some things upset people so much.,1,0,0,1,,
,,,,,,,,,6941dd757105f5612e78f1d3,Spanish,13 or older,"no, only English or Spanish",yes,2026-01-21_19h16.57.611,empathy_intonation_perc_control,2024.2.4,Win32,59.88023952,6941dd757105f5612e78f1d3,69712dc693a3960bdb483245,69716bef077f777182cb572c,,,,,,,,,,,,,,,,,,,,,,,,,,,22,,,,,,,,,,,,,,,,,,,,,,,,,,,,,,,,,,,,,,,,,,,,745.8228,749.5142,strongly agree,0,21,21,21,1,I find it easy to put myself in somebody else's shoes.,1,0,1,0,,
,,,,,,,,,6941dd757105f5612e78f1d3,Spanish,13 or older,"no, only English or Spanish",yes,2026-01-21_19h16.57.611,empathy_intonation_perc_control,2024.2.4,Win32,59.88023952,6941dd757105f5612e78f1d3,69712dc693a3960bdb483245,69716bef077f777182cb572c,,,,,,,,,,,,,,,,,,,,,,,,,,,23,,,,,,,,,,,,,,,,,,,,,,,,,,,,,,,,,,,,,,,,,,,,749.517,754.6197,strongly agree,0,22,22,22,1,I think that good manners are the most important thing a parent can teach their child.,0,1,0,0,,
,,,,,,,,,6941dd757105f5612e78f1d3,Spanish,13 or older,"no, only English or Spanish",yes,2026-01-21_19h16.57.611,empathy_intonation_perc_control,2024.2.4,Win32,59.88023952,6941dd757105f5612e78f1d3,69712dc693a3960bdb483245,69716bef077f777182cb572c,,,,,,,,,,,,,,,,,,,,,,,,,,,24,,,,,,,,,,,,,,,,,,,,,,,,,,,,,,,,,,,,,,,,,,,,754.6215,759.1299,strongly disagree,0,23,23,23,1,I like to do things on the spur of the moment.,0,1,0,0,,
