instructions_2afc.started,instructions_2afc.stopped,instructions_2afc_loop.thisRepN,instructions_2afc_loop.thisTrialN,instructions_2afc_loop.thisN,instructions_2afc_loop.thisIndex,instructions_2afc_loop.ran,instructions_text,continue_text,participant_id,"What variety of Spanish are you most familiar with? (e.g., Peruvian, Spanish, Mexican)",At what age did you begin learning Spanish?,Are you proficient in any languages other than English/Spanish?,"Are you familiar with Caribbean (e.g., Caribbean, Puerto Rican) or Galician Spanish?",date,expName,psychopyVersion,OS,frameRate,id,study_id,session,practice_2afc.started,practice_2afc.stopped,key_resp_2afc_practice.keys,key_resp_2afc_practice.corr,key_resp_2afc_practice.rt,key_resp_2afc_practice.duration,trials_2afc_practice_loop.thisRepN,trials_2afc_practice_loop.thisTrialN,trials_2afc_practice_loop.thisN,trials_2afc_practice_loop.thisIndex,trials_2afc_practice_loop.ran,path,correct_response,check_2afc.started,check_2afc.stopped,trial_2afc.started,trial_2afc.stopped,key_resp_2afc_trial.keys,key_resp_2afc_trial.corr,key_resp_2afc_trial.rt,key_resp_2afc_trial.duration,trials_2afc_loop.thisRepN,trials_2afc_loop.thisTrialN,trials_2afc_loop.thisN,trials_2afc_loop.thisIndex,trials_2afc_loop.ran,item_num,target,variety,instructions_lextale.started,instructions_lextale.stopped,instructions_lextale_loop.thisRepN,instructions_lextale_loop.thisTrialN,instructions_lextale_loop.thisN,instructions_lextale_loop.thisIndex,instructions_lextale_loop.ran,practice_lextale.started,practice_lextale.stopped,key_resp_lextale_practice.keys,key_resp_lextale_practice.corr,key_resp_lextale_practice.rt,key_resp_lextale_practice.duration,practice_feedback_lextale.started,practice_feedback_lextale.stopped,trials_lextale_practice_loop.thisRepN,trials_lextale_practice_loop.thisTrialN,trials_lextale_practice_loop.thisN,trials_lextale_practice_loop.thisIndex,trials_lextale_practice_loop.ran,stim,word,prac_button_real,prac_button_false,check_lextale.started,check_lextale.stopped,trial_lextale.started,trial_lextale.stopped,key_resp_lextale_trial.keys,key_resp_lextale_trial.corr,key_resp_lextale_trial.rt,key_resp_lextale_trial.duration,trials_lextale_loop.thisRepN,trials_lextale_loop.thisTrialN,trials_lextale_loop.thisN,trials_lextale_loop.thisIndex,trials_lextale_loop.ran,button_real,button_false,instructions_eq.started,instructions_eq.stopped,trial_eq.started,trial_eq.stopped,slider_eq_trial.response,trials_eq_loop.thisRepN,trials_eq_loop.thisTrialN,trials_eq_loop.thisN,trials_eq_loop.thisIndex,trials_eq_loop.ran,item,is_test_item,is_distractor,is_agree_score,is_disagree_score,end_exp.started,end_exp.stopped
0.081,4.7142,0,0,0,0,1,"In the following task you are going to hear a series of utterances. 

  You will decide if the utterances sound like questions or not using your keyboard.", (press the spacebar to continue),69582dd7ba2234408d11808e,Spanish,13 or older,"no, only English or Spanish",no,2026-01-21_15h47.53.187,empathy_intonation_perc_control,2024.2.4,MacIntel,61.72839506,69582dd7ba2234408d11808e,69712dc693a3960bdb483245,69713b407a4ef58556fa6292,,,,,,,,,,,,,,,,,,,,,,,,,,,,,,,,,,,,,,,,,,,,,,,,,,,,,,,,,,,,,,,,,,,,,,,,,,,,,,,,,,,,,
4.7167,17.965,0,1,1,1,1,"If you believe the utterance is a question, type '1' (for 'yes') and if you do not 
  believe it is a question type '0' (for 'no').

  Let's practice a bit...", (press the spacebar to continue),69582dd7ba2234408d11808e,Spanish,13 or older,"no, only English or Spanish",no,2026-01-21_15h47.53.187,empathy_intonation_perc_control,2024.2.4,MacIntel,61.72839506,69582dd7ba2234408d11808e,69712dc693a3960bdb483245,69713b407a4ef58556fa6292,,,,,,,,,,,,,,,,,,,,,,,,,,,,,,,,,,,,,,,,,,,,,,,,,,,,,,,,,,,,,,,,,,,,,,,,,,,,,,,,,,,,,
,,,,,,,,,69582dd7ba2234408d11808e,Spanish,13 or older,"no, only English or Spanish",no,2026-01-21_15h47.53.187,empathy_intonation_perc_control,2024.2.4,MacIntel,61.72839506,69582dd7ba2234408d11808e,69712dc693a3960bdb483245,69713b407a4ef58556fa6292,17.9801,25.5188,1,1,7.018,,0,0,0,0,1,./stim/wavs/castilian_question_filler_Mi-esposo-conoce-al-chico.wav,1,,,,,,,,,,,,,,,,,,,,,,,,,,,,,,,,,,,,,,,,,,,,,,,,,,,,,,,,,,,,,,,,,,,,,,,,
,,,,,,,,,69582dd7ba2234408d11808e,Spanish,13 or older,"no, only English or Spanish",no,2026-01-21_15h47.53.187,empathy_intonation_perc_control,2024.2.4,MacIntel,61.72839506,69582dd7ba2234408d11808e,69712dc693a3960bdb483245,69713b407a4ef58556fa6292,25.5201,29.0456,0,1,3.0126,,0,1,1,6,1,./stim/wavs/peruvian_statement_filler_El-nino-habla-con-su-madre.wav,0,,,,,,,,,,,,,,,,,,,,,,,,,,,,,,,,,,,,,,,,,,,,,,,,,,,,,,,,,,,,,,,,,,,,,,,,
,,,,,,,,,69582dd7ba2234408d11808e,Spanish,13 or older,"no, only English or Spanish",no,2026-01-21_15h47.53.187,empathy_intonation_perc_control,2024.2.4,MacIntel,61.72839506,69582dd7ba2234408d11808e,69712dc693a3960bdb483245,69713b407a4ef58556fa6292,29.0462,42.2303,0,0,12.6674,,0,2,2,2,1,./stim/wavs/chilean_question_filler_Mi-padre-cantaba-bien.wav,1,,,,,,,,,,,,,,,,,,,,,,,,,,,,,,,,,,,,,,,,,,,,,,,,,,,,,,,,,,,,,,,,,,,,,,,,
,,,,,,,,,69582dd7ba2234408d11808e,Spanish,13 or older,"no, only English or Spanish",no,2026-01-21_15h47.53.187,empathy_intonation_perc_control,2024.2.4,MacIntel,61.72839506,69582dd7ba2234408d11808e,69712dc693a3960bdb483245,69713b407a4ef58556fa6292,42.2308,45.8733,1,1,3.124,,0,3,3,3,1,./stim/wavs/mexican_question_filler_Felipe-no-tiene-contrasena.wav,1,,,,,,,,,,,,,,,,,,,,,,,,,,,,,,,,,,,,,,,,,,,,,,,,,,,,,,,,,,,,,,,,,,,,,,,,
,,,,,,,,,69582dd7ba2234408d11808e,Spanish,13 or older,"no, only English or Spanish",no,2026-01-21_15h47.53.187,empathy_intonation_perc_control,2024.2.4,MacIntel,61.72839506,69582dd7ba2234408d11808e,69712dc693a3960bdb483245,69713b407a4ef58556fa6292,45.874,48.3802,1,1,1.993,,0,4,4,1,1,./stim/wavs/argentine_question_filler_Mi-vecino-habla-mucho.wav,1,,,,,,,,,,,,,,,,,,,,,,,,,,,,,,,,,,,,,,,,,,,,,,,,,,,,,,,,,,,,,,,,,,,,,,,,
,,,,,,,,,69582dd7ba2234408d11808e,Spanish,13 or older,"no, only English or Spanish",no,2026-01-21_15h47.53.187,empathy_intonation_perc_control,2024.2.4,MacIntel,61.72839506,69582dd7ba2234408d11808e,69712dc693a3960bdb483245,69713b407a4ef58556fa6292,48.3808,51.1535,0,1,2.2586,,0,5,5,5,1,./stim/wavs/andalusian_statement_filler_Alberto-nunca-se-afeita.wav,0,,,,,,,,,,,,,,,,,,,,,,,,,,,,,,,,,,,,,,,,,,,,,,,,,,,,,,,,,,,,,,,,,,,,,,,,
,,,,,,,,,69582dd7ba2234408d11808e,Spanish,13 or older,"no, only English or Spanish",no,2026-01-21_15h47.53.187,empathy_intonation_perc_control,2024.2.4,MacIntel,61.72839506,69582dd7ba2234408d11808e,69712dc693a3960bdb483245,69713b407a4ef58556fa6292,51.1541,65.5586,0,1,13.8935,,0,6,6,4,1,./stim/wavs/cuban_statement_filler_Cocinabas-por-la-noche.wav,0,,,,,,,,,,,,,,,,,,,,,,,,,,,,,,,,,,,,,,,,,,,,,,,,,,,,,,,,,,,,,,,,,,,,,,,,
,,,,,,,,,69582dd7ba2234408d11808e,Spanish,13 or older,"no, only English or Spanish",no,2026-01-21_15h47.53.187,empathy_intonation_perc_control,2024.2.4,MacIntel,61.72839506,69582dd7ba2234408d11808e,69712dc693a3960bdb483245,69713b407a4ef58556fa6292,65.5591,69.4032,0,1,3.3262,,0,7,7,7,1,./stim/wavs/puertorican_statement_filler_La-nina-pinta-con-su-amiga.wav,0,,,,,,,,,,,,,,,,,,,,,,,,,,,,,,,,,,,,,,,,,,,,,,,,,,,,,,,,,,,,,,,,,,,,,,,,
,,,,,,,,,69582dd7ba2234408d11808e,Spanish,13 or older,"no, only English or Spanish",no,2026-01-21_15h47.53.187,empathy_intonation_perc_control,2024.2.4,MacIntel,61.72839506,69582dd7ba2234408d11808e,69712dc693a3960bdb483245,69713b407a4ef58556fa6292,,,,,,,,,,,,,,69.4036,75.4199,,,,,,,,,,,,,,,,,,,,,,,,,,,,,,,,,,,,,,,,,,,,,,,,,,,,,,,,,,,,,,,,,,,,,,
,,,,,,,,,69582dd7ba2234408d11808e,Spanish,13 or older,"no, only English or Spanish",no,2026-01-21_15h47.53.187,empathy_intonation_perc_control,2024.2.4,MacIntel,61.72839506,69582dd7ba2234408d11808e,69712dc693a3960bdb483245,69713b407a4ef58556fa6292,,,,,,,,,,,,./stim/wavs/puertorican_match_interrogative-total-yn_Emilio-ama-la-marcha.wav,1,,,75.4328,78.1926,0,0,2.2478,,0,0,0,21,1,22,1,puertorican,,,,,,,,,,,,,,,,,,,,,,,,,,,,,,,,,,,,,,,,,,,,,,,,,,,,,,,,
,,,,,,,,,69582dd7ba2234408d11808e,Spanish,13 or older,"no, only English or Spanish",no,2026-01-21_15h47.53.187,empathy_intonation_perc_control,2024.2.4,MacIntel,61.72839506,69582dd7ba2234408d11808e,69712dc693a3960bdb483245,69713b407a4ef58556fa6292,,,,,,,,,,,,./stim/wavs/mexican_match_declarative-broad-focus_Mariano-habla-del-tiempo.wav,0,,,78.1936,81.1843,0,1,2.4765,,0,1,1,60,1,61,0,mexican,,,,,,,,,,,,,,,,,,,,,,,,,,,,,,,,,,,,,,,,,,,,,,,,,,,,,,,,
,,,,,,,,,69582dd7ba2234408d11808e,Spanish,13 or older,"no, only English or Spanish",no,2026-01-21_15h47.53.187,empathy_intonation_perc_control,2024.2.4,MacIntel,61.72839506,69582dd7ba2234408d11808e,69712dc693a3960bdb483245,69713b407a4ef58556fa6292,,,,,,,,,,,,./stim/wavs/castilian_match_declarative-broad-focus_David-leia-el-libro.wav,0,,,81.1848,84.6266,0,1,2.9259,,0,2,2,44,1,45,0,castilian,,,,,,,,,,,,,,,,,,,,,,,,,,,,,,,,,,,,,,,,,,,,,,,,,,,,,,,,
,,,,,,,,,69582dd7ba2234408d11808e,Spanish,13 or older,"no, only English or Spanish",no,2026-01-21_15h47.53.187,empathy_intonation_perc_control,2024.2.4,MacIntel,61.72839506,69582dd7ba2234408d11808e,69712dc693a3960bdb483245,69713b407a4ef58556fa6292,,,,,,,,,,,,./stim/wavs/cuban_match_interrogative-total-yn_Marta-abre-el-regalo.wav,1,,,84.6272,90.0078,1,1,4.8665,,0,3,3,11,1,12,1,cuban,,,,,,,,,,,,,,,,,,,,,,,,,,,,,,,,,,,,,,,,,,,,,,,,,,,,,,,,
,,,,,,,,,69582dd7ba2234408d11808e,Spanish,13 or older,"no, only English or Spanish",no,2026-01-21_15h47.53.187,empathy_intonation_perc_control,2024.2.4,MacIntel,61.72839506,69582dd7ba2234408d11808e,69712dc693a3960bdb483245,69713b407a4ef58556fa6292,,,,,,,,,,,,./stim/wavs/castilian_match_interrogative-total-yn_Mariano-habla-del-tiempo.wav,1,,,90.0083,92.6647,1,1,2.1478,,0,4,4,4,1,5,0,castilian,,,,,,,,,,,,,,,,,,,,,,,,,,,,,,,,,,,,,,,,,,,,,,,,,,,,,,,,
,,,,,,,,,69582dd7ba2234408d11808e,Spanish,13 or older,"no, only English or Spanish",no,2026-01-21_15h47.53.187,empathy_intonation_perc_control,2024.2.4,MacIntel,61.72839506,69582dd7ba2234408d11808e,69712dc693a3960bdb483245,69713b407a4ef58556fa6292,,,,,,,,,,,,./stim/wavs/castilian_mismatch_interrogative-total-yn_La-maestra-vive-en-Paris.wav,1,,,92.6655,95.6736,1,1,2.4963,,0,5,5,24,1,25,0,castilian,,,,,,,,,,,,,,,,,,,,,,,,,,,,,,,,,,,,,,,,,,,,,,,,,,,,,,,,
,,,,,,,,,69582dd7ba2234408d11808e,Spanish,13 or older,"no, only English or Spanish",no,2026-01-21_15h47.53.187,empathy_intonation_perc_control,2024.2.4,MacIntel,61.72839506,69582dd7ba2234408d11808e,69712dc693a3960bdb483245,69713b407a4ef58556fa6292,,,,,,,,,,,,./stim/wavs/cuban_mismatch_declarative-broad-focus_Mi-novio-viene-del-lago.wav,0,,,95.6741,98.798,0,1,2.6153,,0,6,6,76,1,77,0,cuban,,,,,,,,,,,,,,,,,,,,,,,,,,,,,,,,,,,,,,,,,,,,,,,,,,,,,,,,
,,,,,,,,,69582dd7ba2234408d11808e,Spanish,13 or older,"no, only English or Spanish",no,2026-01-21_15h47.53.187,empathy_intonation_perc_control,2024.2.4,MacIntel,61.72839506,69582dd7ba2234408d11808e,69712dc693a3960bdb483245,69713b407a4ef58556fa6292,,,,,,,,,,,,./stim/wavs/mexican_match_interrogative-total-yn_Mariano-habla-del-tiempo.wav,1,,,98.7984,101.1548,1,1,1.8434,,0,7,7,16,1,17,0,mexican,,,,,,,,,,,,,,,,,,,,,,,,,,,,,,,,,,,,,,,,,,,,,,,,,,,,,,,,
,,,,,,,,,69582dd7ba2234408d11808e,Spanish,13 or older,"no, only English or Spanish",no,2026-01-21_15h47.53.187,empathy_intonation_perc_control,2024.2.4,MacIntel,61.72839506,69582dd7ba2234408d11808e,69712dc693a3960bdb483245,69713b407a4ef58556fa6292,,,,,,,,,,,,./stim/wavs/cuban_mismatch_declarative-broad-focus_La-nina-lava-el-plato.wav,0,,,101.1553,103.7947,0,1,2.1272,,0,8,8,75,1,76,0,cuban,,,,,,,,,,,,,,,,,,,,,,,,,,,,,,,,,,,,,,,,,,,,,,,,,,,,,,,,
,,,,,,,,,69582dd7ba2234408d11808e,Spanish,13 or older,"no, only English or Spanish",no,2026-01-21_15h47.53.187,empathy_intonation_perc_control,2024.2.4,MacIntel,61.72839506,69582dd7ba2234408d11808e,69712dc693a3960bdb483245,69713b407a4ef58556fa6292,,,,,,,,,,,,./stim/wavs/castilian_mismatch_declarative-broad-focus_La-maestra-vive-en-Paris.wav,0,,,103.7952,106.7532,1,0,2.4397,,0,9,9,69,1,70,0,castilian,,,,,,,,,,,,,,,,,,,,,,,,,,,,,,,,,,,,,,,,,,,,,,,,,,,,,,,,
,,,,,,,,,69582dd7ba2234408d11808e,Spanish,13 or older,"no, only English or Spanish",no,2026-01-21_15h47.53.187,empathy_intonation_perc_control,2024.2.4,MacIntel,61.72839506,69582dd7ba2234408d11808e,69712dc693a3960bdb483245,69713b407a4ef58556fa6292,,,,,,,,,,,,./stim/wavs/cuban_mismatch_declarative-broad-focus_El-bebe-comia-muy-bien.wav,0,,,106.7538,111.2139,0,1,3.9532,,0,10,10,73,1,74,0,cuban,,,,,,,,,,,,,,,,,,,,,,,,,,,,,,,,,,,,,,,,,,,,,,,,,,,,,,,,
,,,,,,,,,69582dd7ba2234408d11808e,Spanish,13 or older,"no, only English or Spanish",no,2026-01-21_15h47.53.187,empathy_intonation_perc_control,2024.2.4,MacIntel,61.72839506,69582dd7ba2234408d11808e,69712dc693a3960bdb483245,69713b407a4ef58556fa6292,,,,,,,,,,,,./stim/wavs/cuban_match_declarative-broad-focus_Mariano-habla-del-tiempo.wav,0,,,111.2142,115.66,0,1,3.9329,,0,11,11,54,1,55,0,cuban,,,,,,,,,,,,,,,,,,,,,,,,,,,,,,,,,,,,,,,,,,,,,,,,,,,,,,,,
,,,,,,,,,69582dd7ba2234408d11808e,Spanish,13 or older,"no, only English or Spanish",no,2026-01-21_15h47.53.187,empathy_intonation_perc_control,2024.2.4,MacIntel,61.72839506,69582dd7ba2234408d11808e,69712dc693a3960bdb483245,69713b407a4ef58556fa6292,,,,,,,,,,,,./stim/wavs/cuban_match_declarative-broad-focus_Marta-abre-el-regalo.wav,0,,,115.6604,118.3842,0,1,2.2045,,0,12,12,55,1,56,0,cuban,,,,,,,,,,,,,,,,,,,,,,,,,,,,,,,,,,,,,,,,,,,,,,,,,,,,,,,,
,,,,,,,,,69582dd7ba2234408d11808e,Spanish,13 or older,"no, only English or Spanish",no,2026-01-21_15h47.53.187,empathy_intonation_perc_control,2024.2.4,MacIntel,61.72839506,69582dd7ba2234408d11808e,69712dc693a3960bdb483245,69713b407a4ef58556fa6292,,,,,,,,,,,,./stim/wavs/castilian_mismatch_declarative-broad-focus_Mi-novio-viene-del-lago.wav,0,,,118.3847,123.2126,0,1,4.3109,,0,13,13,71,1,72,0,castilian,,,,,,,,,,,,,,,,,,,,,,,,,,,,,,,,,,,,,,,,,,,,,,,,,,,,,,,,
,,,,,,,,,69582dd7ba2234408d11808e,Spanish,13 or older,"no, only English or Spanish",no,2026-01-21_15h47.53.187,empathy_intonation_perc_control,2024.2.4,MacIntel,61.72839506,69582dd7ba2234408d11808e,69712dc693a3960bdb483245,69713b407a4ef58556fa6292,,,,,,,,,,,,./stim/wavs/castilian_match_declarative-broad-focus_Mariano-habla-del-tiempo.wav,0,,,123.2131,129.7142,0,1,5.9868,,0,14,14,48,1,49,0,castilian,,,,,,,,,,,,,,,,,,,,,,,,,,,,,,,,,,,,,,,,,,,,,,,,,,,,,,,,
,,,,,,,,,69582dd7ba2234408d11808e,Spanish,13 or older,"no, only English or Spanish",no,2026-01-21_15h47.53.187,empathy_intonation_perc_control,2024.2.4,MacIntel,61.72839506,69582dd7ba2234408d11808e,69712dc693a3960bdb483245,69713b407a4ef58556fa6292,,,,,,,,,,,,./stim/wavs/castilian_match_interrogative-total-yn_Emilio-ama-la-marcha.wav,1,,,129.7149,132.4884,1,1,2.2562,,0,15,15,1,1,2,0,castilian,,,,,,,,,,,,,,,,,,,,,,,,,,,,,,,,,,,,,,,,,,,,,,,,,,,,,,,,
,,,,,,,,,69582dd7ba2234408d11808e,Spanish,13 or older,"no, only English or Spanish",no,2026-01-21_15h47.53.187,empathy_intonation_perc_control,2024.2.4,MacIntel,61.72839506,69582dd7ba2234408d11808e,69712dc693a3960bdb483245,69713b407a4ef58556fa6292,,,,,,,,,,,,./stim/wavs/mexican_mismatch_declarative-broad-focus_La-maestra-vive-en-Paris.wav,0,,,132.489,136.2319,0,1,3.2276,,0,16,16,80,1,81,0,mexican,,,,,,,,,,,,,,,,,,,,,,,,,,,,,,,,,,,,,,,,,,,,,,,,,,,,,,,,
,,,,,,,,,69582dd7ba2234408d11808e,Spanish,13 or older,"no, only English or Spanish",no,2026-01-21_15h47.53.187,empathy_intonation_perc_control,2024.2.4,MacIntel,61.72839506,69582dd7ba2234408d11808e,69712dc693a3960bdb483245,69713b407a4ef58556fa6292,,,,,,,,,,,,./stim/wavs/castilian_match_interrogative-total-yn_Maria-bebe-el-vino.wav,1,,,136.2327,138.9556,1,1,2.199,,0,17,17,3,1,4,0,castilian,,,,,,,,,,,,,,,,,,,,,,,,,,,,,,,,,,,,,,,,,,,,,,,,,,,,,,,,
,,,,,,,,,69582dd7ba2234408d11808e,Spanish,13 or older,"no, only English or Spanish",no,2026-01-21_15h47.53.187,empathy_intonation_perc_control,2024.2.4,MacIntel,61.72839506,69582dd7ba2234408d11808e,69712dc693a3960bdb483245,69713b407a4ef58556fa6292,,,,,,,,,,,,./stim/wavs/mexican_match_interrogative-total-yn_Emilio-ama-la-marcha.wav,1,,,138.9563,142.2644,1,1,2.7957,,0,18,18,15,1,16,0,mexican,,,,,,,,,,,,,,,,,,,,,,,,,,,,,,,,,,,,,,,,,,,,,,,,,,,,,,,,
,,,,,,,,,69582dd7ba2234408d11808e,Spanish,13 or older,"no, only English or Spanish",no,2026-01-21_15h47.53.187,empathy_intonation_perc_control,2024.2.4,MacIntel,61.72839506,69582dd7ba2234408d11808e,69712dc693a3960bdb483245,69713b407a4ef58556fa6292,,,,,,,,,,,,./stim/wavs/mexican_mismatch_interrogative-total-yn_El-hombre-mira-la-luna.wav,1,,,142.265,144.8548,1,1,2.0737,,0,19,19,34,1,35,0,mexican,,,,,,,,,,,,,,,,,,,,,,,,,,,,,,,,,,,,,,,,,,,,,,,,,,,,,,,,
,,,,,,,,,69582dd7ba2234408d11808e,Spanish,13 or older,"no, only English or Spanish",no,2026-01-21_15h47.53.187,empathy_intonation_perc_control,2024.2.4,MacIntel,61.72839506,69582dd7ba2234408d11808e,69712dc693a3960bdb483245,69713b407a4ef58556fa6292,,,,,,,,,,,,./stim/wavs/castilian_match_declarative-broad-focus_Marta-abre-el-regalo.wav,0,,,144.8553,148.9656,0,1,3.5935,,0,20,20,49,1,50,0,castilian,,,,,,,,,,,,,,,,,,,,,,,,,,,,,,,,,,,,,,,,,,,,,,,,,,,,,,,,
,,,,,,,,,69582dd7ba2234408d11808e,Spanish,13 or older,"no, only English or Spanish",no,2026-01-21_15h47.53.187,empathy_intonation_perc_control,2024.2.4,MacIntel,61.72839506,69582dd7ba2234408d11808e,69712dc693a3960bdb483245,69713b407a4ef58556fa6292,,,,,,,,,,,,./stim/wavs/mexican_match_declarative-broad-focus_Ana-lleva-el-abrigo.wav,0,,,148.9663,151.9736,0,1,2.4977,,0,21,21,56,1,57,0,mexican,,,,,,,,,,,,,,,,,,,,,,,,,,,,,,,,,,,,,,,,,,,,,,,,,,,,,,,,
,,,,,,,,,69582dd7ba2234408d11808e,Spanish,13 or older,"no, only English or Spanish",no,2026-01-21_15h47.53.187,empathy_intonation_perc_control,2024.2.4,MacIntel,61.72839506,69582dd7ba2234408d11808e,69712dc693a3960bdb483245,69713b407a4ef58556fa6292,,,,,,,,,,,,./stim/wavs/mexican_mismatch_declarative-broad-focus_El-hombre-mira-la-luna.wav,0,,,151.9742,156.1342,0,1,3.6454,,0,22,22,79,1,80,0,mexican,,,,,,,,,,,,,,,,,,,,,,,,,,,,,,,,,,,,,,,,,,,,,,,,,,,,,,,,
,,,,,,,,,69582dd7ba2234408d11808e,Spanish,13 or older,"no, only English or Spanish",no,2026-01-21_15h47.53.187,empathy_intonation_perc_control,2024.2.4,MacIntel,61.72839506,69582dd7ba2234408d11808e,69712dc693a3960bdb483245,69713b407a4ef58556fa6292,,,,,,,,,,,,./stim/wavs/puertorican_mismatch_interrogative-total-yn_El-hombre-mira-la-luna.wav,1,,,156.1347,161.6821,0,0,5.0331,,0,23,23,39,1,40,1,puertorican,,,,,,,,,,,,,,,,,,,,,,,,,,,,,,,,,,,,,,,,,,,,,,,,,,,,,,,,
,,,,,,,,,69582dd7ba2234408d11808e,Spanish,13 or older,"no, only English or Spanish",no,2026-01-21_15h47.53.187,empathy_intonation_perc_control,2024.2.4,MacIntel,61.72839506,69582dd7ba2234408d11808e,69712dc693a3960bdb483245,69713b407a4ef58556fa6292,,,,,,,,,,,,./stim/wavs/cuban_mismatch_interrogative-total-yn_El-nino-oye-el-rio.wav,1,,,161.6826,166.3294,0,0,4.1381,,0,24,24,30,1,31,1,cuban,,,,,,,,,,,,,,,,,,,,,,,,,,,,,,,,,,,,,,,,,,,,,,,,,,,,,,,,
,,,,,,,,,69582dd7ba2234408d11808e,Spanish,13 or older,"no, only English or Spanish",no,2026-01-21_15h47.53.187,empathy_intonation_perc_control,2024.2.4,MacIntel,61.72839506,69582dd7ba2234408d11808e,69712dc693a3960bdb483245,69713b407a4ef58556fa6292,,,,,,,,,,,,./stim/wavs/cuban_mismatch_interrogative-total-yn_El-hombre-mira-la-luna.wav,1,,,166.3298,171.4753,0,0,4.6384,,0,25,25,29,1,30,1,cuban,,,,,,,,,,,,,,,,,,,,,,,,,,,,,,,,,,,,,,,,,,,,,,,,,,,,,,,,
,,,,,,,,,69582dd7ba2234408d11808e,Spanish,13 or older,"no, only English or Spanish",no,2026-01-21_15h47.53.187,empathy_intonation_perc_control,2024.2.4,MacIntel,61.72839506,69582dd7ba2234408d11808e,69712dc693a3960bdb483245,69713b407a4ef58556fa6292,,,,,,,,,,,,./stim/wavs/mexican_match_declarative-broad-focus_David-leia-el-libro.wav,0,,,171.4758,175.1519,0,1,3.1628,,0,26,26,58,1,59,0,mexican,,,,,,,,,,,,,,,,,,,,,,,,,,,,,,,,,,,,,,,,,,,,,,,,,,,,,,,,
,,,,,,,,,69582dd7ba2234408d11808e,Spanish,13 or older,"no, only English or Spanish",no,2026-01-21_15h47.53.187,empathy_intonation_perc_control,2024.2.4,MacIntel,61.72839506,69582dd7ba2234408d11808e,69712dc693a3960bdb483245,69713b407a4ef58556fa6292,,,,,,,,,,,,./stim/wavs/castilian_mismatch_declarative-broad-focus_El-nino-oye-el-rio.wav,0,,,175.1524,177.9265,0,1,2.2603,,0,27,27,68,1,69,0,castilian,,,,,,,,,,,,,,,,,,,,,,,,,,,,,,,,,,,,,,,,,,,,,,,,,,,,,,,,
,,,,,,,,,69582dd7ba2234408d11808e,Spanish,13 or older,"no, only English or Spanish",no,2026-01-21_15h47.53.187,empathy_intonation_perc_control,2024.2.4,MacIntel,61.72839506,69582dd7ba2234408d11808e,69712dc693a3960bdb483245,69713b407a4ef58556fa6292,,,,,,,,,,,,./stim/wavs/cuban_match_declarative-broad-focus_Maria-bebe-el-vino.wav,0,,,177.927,181.636,0,1,3.2022,,0,28,28,53,1,54,0,cuban,,,,,,,,,,,,,,,,,,,,,,,,,,,,,,,,,,,,,,,,,,,,,,,,,,,,,,,,
,,,,,,,,,69582dd7ba2234408d11808e,Spanish,13 or older,"no, only English or Spanish",no,2026-01-21_15h47.53.187,empathy_intonation_perc_control,2024.2.4,MacIntel,61.72839506,69582dd7ba2234408d11808e,69712dc693a3960bdb483245,69713b407a4ef58556fa6292,,,,,,,,,,,,./stim/wavs/cuban_match_declarative-broad-focus_Daniel-iba-a-Bolivia.wav,0,,,181.6366,184.3438,0,1,2.1969,,0,29,29,51,1,52,0,cuban,,,,,,,,,,,,,,,,,,,,,,,,,,,,,,,,,,,,,,,,,,,,,,,,,,,,,,,,
,,,,,,,,,69582dd7ba2234408d11808e,Spanish,13 or older,"no, only English or Spanish",no,2026-01-21_15h47.53.187,empathy_intonation_perc_control,2024.2.4,MacIntel,61.72839506,69582dd7ba2234408d11808e,69712dc693a3960bdb483245,69713b407a4ef58556fa6292,,,,,,,,,,,,./stim/wavs/castilian_match_interrogative-total-yn_Manuela-vende-el-carro.wav,1,,,184.345,187.2007,1,1,2.332,,0,30,30,2,1,3,0,castilian,,,,,,,,,,,,,,,,,,,,,,,,,,,,,,,,,,,,,,,,,,,,,,,,,,,,,,,,
,,,,,,,,,69582dd7ba2234408d11808e,Spanish,13 or older,"no, only English or Spanish",no,2026-01-21_15h47.53.187,empathy_intonation_perc_control,2024.2.4,MacIntel,61.72839506,69582dd7ba2234408d11808e,69712dc693a3960bdb483245,69713b407a4ef58556fa6292,,,,,,,,,,,,./stim/wavs/mexican_match_declarative-broad-focus_Marta-abre-el-regalo.wav,0,,,187.2017,189.5408,0,1,1.8324,,0,31,31,61,1,62,0,mexican,,,,,,,,,,,,,,,,,,,,,,,,,,,,,,,,,,,,,,,,,,,,,,,,,,,,,,,,
,,,,,,,,,69582dd7ba2234408d11808e,Spanish,13 or older,"no, only English or Spanish",no,2026-01-21_15h47.53.187,empathy_intonation_perc_control,2024.2.4,MacIntel,61.72839506,69582dd7ba2234408d11808e,69712dc693a3960bdb483245,69713b407a4ef58556fa6292,,,,,,,,,,,,./stim/wavs/cuban_mismatch_declarative-broad-focus_El-hombre-mira-la-luna.wav,0,,,189.5414,193.417,0,1,3.3625,,0,32,32,74,1,75,0,cuban,,,,,,,,,,,,,,,,,,,,,,,,,,,,,,,,,,,,,,,,,,,,,,,,,,,,,,,,
,,,,,,,,,69582dd7ba2234408d11808e,Spanish,13 or older,"no, only English or Spanish",no,2026-01-21_15h47.53.187,empathy_intonation_perc_control,2024.2.4,MacIntel,61.72839506,69582dd7ba2234408d11808e,69712dc693a3960bdb483245,69713b407a4ef58556fa6292,,,,,,,,,,,,./stim/wavs/mexican_match_interrogative-total-yn_David-leia-el-libro.wav,1,,,193.4178,196.0245,1,1,2.0983,,0,33,33,14,1,15,0,mexican,,,,,,,,,,,,,,,,,,,,,,,,,,,,,,,,,,,,,,,,,,,,,,,,,,,,,,,,
,,,,,,,,,69582dd7ba2234408d11808e,Spanish,13 or older,"no, only English or Spanish",no,2026-01-21_15h47.53.187,empathy_intonation_perc_control,2024.2.4,MacIntel,61.72839506,69582dd7ba2234408d11808e,69712dc693a3960bdb483245,69713b407a4ef58556fa6292,,,,,,,,,,,,./stim/wavs/castilian_mismatch_declarative-broad-focus_Mi-tia-odia-la-lluvia.wav,0,,,196.025,198.464,0,1,1.922,,0,34,34,72,1,73,0,castilian,,,,,,,,,,,,,,,,,,,,,,,,,,,,,,,,,,,,,,,,,,,,,,,,,,,,,,,,
,,,,,,,,,69582dd7ba2234408d11808e,Spanish,13 or older,"no, only English or Spanish",no,2026-01-21_15h47.53.187,empathy_intonation_perc_control,2024.2.4,MacIntel,61.72839506,69582dd7ba2234408d11808e,69712dc693a3960bdb483245,69713b407a4ef58556fa6292,,,,,,,,,,,,./stim/wavs/puertorican_match_interrogative-total-yn_Daniel-iba-a-Bolivia.wav,1,,,198.4648,201.2722,0,0,2.2886,,0,35,35,19,1,20,1,puertorican,,,,,,,,,,,,,,,,,,,,,,,,,,,,,,,,,,,,,,,,,,,,,,,,,,,,,,,,
,,,,,,,,,69582dd7ba2234408d11808e,Spanish,13 or older,"no, only English or Spanish",no,2026-01-21_15h47.53.187,empathy_intonation_perc_control,2024.2.4,MacIntel,61.72839506,69582dd7ba2234408d11808e,69712dc693a3960bdb483245,69713b407a4ef58556fa6292,,,,,,,,,,,,./stim/wavs/mexican_mismatch_interrogative-total-yn_Mi-novio-viene-del-lago.wav,1,,,201.2728,203.6445,1,1,1.8583,,0,36,36,37,1,38,0,mexican,,,,,,,,,,,,,,,,,,,,,,,,,,,,,,,,,,,,,,,,,,,,,,,,,,,,,,,,
,,,,,,,,,69582dd7ba2234408d11808e,Spanish,13 or older,"no, only English or Spanish",no,2026-01-21_15h47.53.187,empathy_intonation_perc_control,2024.2.4,MacIntel,61.72839506,69582dd7ba2234408d11808e,69712dc693a3960bdb483245,69713b407a4ef58556fa6292,,,,,,,,,,,,./stim/wavs/mexican_match_interrogative-total-yn_Ana-lleva-el-abrigo.wav,1,,,203.6451,206.4525,1,1,2.2936,,0,37,37,12,1,13,0,mexican,,,,,,,,,,,,,,,,,,,,,,,,,,,,,,,,,,,,,,,,,,,,,,,,,,,,,,,,
,,,,,,,,,69582dd7ba2234408d11808e,Spanish,13 or older,"no, only English or Spanish",no,2026-01-21_15h47.53.187,empathy_intonation_perc_control,2024.2.4,MacIntel,61.72839506,69582dd7ba2234408d11808e,69712dc693a3960bdb483245,69713b407a4ef58556fa6292,,,,,,,,,,,,./stim/wavs/castilian_match_declarative-broad-focus_Emilio-ama-la-marcha.wav,0,,,206.453,210.8138,0,1,3.8467,,0,38,38,45,1,46,0,castilian,,,,,,,,,,,,,,,,,,,,,,,,,,,,,,,,,,,,,,,,,,,,,,,,,,,,,,,,
,,,,,,,,,69582dd7ba2234408d11808e,Spanish,13 or older,"no, only English or Spanish",no,2026-01-21_15h47.53.187,empathy_intonation_perc_control,2024.2.4,MacIntel,61.72839506,69582dd7ba2234408d11808e,69712dc693a3960bdb483245,69713b407a4ef58556fa6292,,,,,,,,,,,,./stim/wavs/mexican_match_interrogative-total-yn_Daniel-iba-a-Bolivia.wav,1,,,210.8144,213.2879,1,1,1.9664,,0,39,39,13,1,14,0,mexican,,,,,,,,,,,,,,,,,,,,,,,,,,,,,,,,,,,,,,,,,,,,,,,,,,,,,,,,
,,,,,,,,,69582dd7ba2234408d11808e,Spanish,13 or older,"no, only English or Spanish",no,2026-01-21_15h47.53.187,empathy_intonation_perc_control,2024.2.4,MacIntel,61.72839506,69582dd7ba2234408d11808e,69712dc693a3960bdb483245,69713b407a4ef58556fa6292,,,,,,,,,,,,./stim/wavs/mexican_match_interrogative-total-yn_Marta-abre-el-regalo.wav,1,,,213.2886,216.8295,0,0,3.0117,,0,40,40,17,1,18,0,mexican,,,,,,,,,,,,,,,,,,,,,,,,,,,,,,,,,,,,,,,,,,,,,,,,,,,,,,,,
,,,,,,,,,69582dd7ba2234408d11808e,Spanish,13 or older,"no, only English or Spanish",no,2026-01-21_15h47.53.187,empathy_intonation_perc_control,2024.2.4,MacIntel,61.72839506,69582dd7ba2234408d11808e,69712dc693a3960bdb483245,69713b407a4ef58556fa6292,,,,,,,,,,,,./stim/wavs/cuban_mismatch_interrogative-total-yn_Mi-madre-come-la-fruta.wav,1,,,216.8299,219.7707,0,0,2.4273,,0,41,41,31,1,32,1,cuban,,,,,,,,,,,,,,,,,,,,,,,,,,,,,,,,,,,,,,,,,,,,,,,,,,,,,,,,
,,,,,,,,,69582dd7ba2234408d11808e,Spanish,13 or older,"no, only English or Spanish",no,2026-01-21_15h47.53.187,empathy_intonation_perc_control,2024.2.4,MacIntel,61.72839506,69582dd7ba2234408d11808e,69712dc693a3960bdb483245,69713b407a4ef58556fa6292,,,,,,,,,,,,./stim/wavs/puertorican_mismatch_interrogative-total-yn_La-maestra-vive-en-Paris.wav,1,,,219.7714,222.5945,0,0,2.3146,,0,42,42,41,1,42,1,puertorican,,,,,,,,,,,,,,,,,,,,,,,,,,,,,,,,,,,,,,,,,,,,,,,,,,,,,,,,
,,,,,,,,,69582dd7ba2234408d11808e,Spanish,13 or older,"no, only English or Spanish",no,2026-01-21_15h47.53.187,empathy_intonation_perc_control,2024.2.4,MacIntel,61.72839506,69582dd7ba2234408d11808e,69712dc693a3960bdb483245,69713b407a4ef58556fa6292,,,,,,,,,,,,./stim/wavs/castilian_mismatch_interrogative-total-yn_Mi-tia-odia-la-lluvia.wav,1,,,222.595,225.737,1,1,2.6318,,0,43,43,28,1,29,0,castilian,,,,,,,,,,,,,,,,,,,,,,,,,,,,,,,,,,,,,,,,,,,,,,,,,,,,,,,,
,,,,,,,,,69582dd7ba2234408d11808e,Spanish,13 or older,"no, only English or Spanish",no,2026-01-21_15h47.53.187,empathy_intonation_perc_control,2024.2.4,MacIntel,61.72839506,69582dd7ba2234408d11808e,69712dc693a3960bdb483245,69713b407a4ef58556fa6292,,,,,,,,,,,,./stim/wavs/cuban_mismatch_declarative-broad-focus_Mi-tia-odia-la-lluvia.wav,0,,,225.7375,228.261,0,1,2.0054,,0,44,44,77,1,78,0,cuban,,,,,,,,,,,,,,,,,,,,,,,,,,,,,,,,,,,,,,,,,,,,,,,,,,,,,,,,
,,,,,,,,,69582dd7ba2234408d11808e,Spanish,13 or older,"no, only English or Spanish",no,2026-01-21_15h47.53.187,empathy_intonation_perc_control,2024.2.4,MacIntel,61.72839506,69582dd7ba2234408d11808e,69712dc693a3960bdb483245,69713b407a4ef58556fa6292,,,,,,,,,,,,./stim/wavs/cuban_match_interrogative-total-yn_Daniel-iba-a-Bolivia.wav,1,,,228.2614,230.5,0,0,1.7213,,0,45,45,7,1,8,1,cuban,,,,,,,,,,,,,,,,,,,,,,,,,,,,,,,,,,,,,,,,,,,,,,,,,,,,,,,,
,,,,,,,,,69582dd7ba2234408d11808e,Spanish,13 or older,"no, only English or Spanish",no,2026-01-21_15h47.53.187,empathy_intonation_perc_control,2024.2.4,MacIntel,61.72839506,69582dd7ba2234408d11808e,69712dc693a3960bdb483245,69713b407a4ef58556fa6292,,,,,,,,,,,,./stim/wavs/mexican_mismatch_interrogative-total-yn_Mi-tia-odia-la-lluvia.wav,1,,,230.5006,232.606,1,1,1.5908,,0,46,46,38,1,39,0,mexican,,,,,,,,,,,,,,,,,,,,,,,,,,,,,,,,,,,,,,,,,,,,,,,,,,,,,,,,
,,,,,,,,,69582dd7ba2234408d11808e,Spanish,13 or older,"no, only English or Spanish",no,2026-01-21_15h47.53.187,empathy_intonation_perc_control,2024.2.4,MacIntel,61.72839506,69582dd7ba2234408d11808e,69712dc693a3960bdb483245,69713b407a4ef58556fa6292,,,,,,,,,,,,./stim/wavs/puertorican_match_interrogative-total-yn_David-leia-el-libro.wav,1,,,232.6066,235.5635,0,0,2.4412,,0,47,47,20,1,21,1,puertorican,,,,,,,,,,,,,,,,,,,,,,,,,,,,,,,,,,,,,,,,,,,,,,,,,,,,,,,,
,,,,,,,,,69582dd7ba2234408d11808e,Spanish,13 or older,"no, only English or Spanish",no,2026-01-21_15h47.53.187,empathy_intonation_perc_control,2024.2.4,MacIntel,61.72839506,69582dd7ba2234408d11808e,69712dc693a3960bdb483245,69713b407a4ef58556fa6292,,,,,,,,,,,,./stim/wavs/mexican_mismatch_interrogative-total-yn_La-maestra-vive-en-Paris.wav,1,,,235.5641,237.9869,1,1,1.9039,,0,48,48,36,1,37,0,mexican,,,,,,,,,,,,,,,,,,,,,,,,,,,,,,,,,,,,,,,,,,,,,,,,,,,,,,,,
,,,,,,,,,69582dd7ba2234408d11808e,Spanish,13 or older,"no, only English or Spanish",no,2026-01-21_15h47.53.187,empathy_intonation_perc_control,2024.2.4,MacIntel,61.72839506,69582dd7ba2234408d11808e,69712dc693a3960bdb483245,69713b407a4ef58556fa6292,,,,,,,,,,,,./stim/wavs/castilian_mismatch_interrogative-total-yn_Mi-novio-viene-del-lago.wav,1,,,237.9874,240.7438,1,1,2.2401,,0,49,49,27,1,28,0,castilian,,,,,,,,,,,,,,,,,,,,,,,,,,,,,,,,,,,,,,,,,,,,,,,,,,,,,,,,
,,,,,,,,,69582dd7ba2234408d11808e,Spanish,13 or older,"no, only English or Spanish",no,2026-01-21_15h47.53.187,empathy_intonation_perc_control,2024.2.4,MacIntel,61.72839506,69582dd7ba2234408d11808e,69712dc693a3960bdb483245,69713b407a4ef58556fa6292,,,,,,,,,,,,./stim/wavs/puertorican_match_declarative-broad-focus_Emilio-ama-la-marcha.wav,0,,,240.7443,243.3167,0,1,2.0563,,0,50,50,65,1,66,0,puertorican,,,,,,,,,,,,,,,,,,,,,,,,,,,,,,,,,,,,,,,,,,,,,,,,,,,,,,,,
,,,,,,,,,69582dd7ba2234408d11808e,Spanish,13 or older,"no, only English or Spanish",no,2026-01-21_15h47.53.187,empathy_intonation_perc_control,2024.2.4,MacIntel,61.72839506,69582dd7ba2234408d11808e,69712dc693a3960bdb483245,69713b407a4ef58556fa6292,,,,,,,,,,,,./stim/wavs/puertorican_match_declarative-broad-focus_Ana-lleva-el-abrigo.wav,0,,,243.3174,245.874,0,1,2.0385,,0,51,51,62,1,63,0,puertorican,,,,,,,,,,,,,,,,,,,,,,,,,,,,,,,,,,,,,,,,,,,,,,,,,,,,,,,,
,,,,,,,,,69582dd7ba2234408d11808e,Spanish,13 or older,"no, only English or Spanish",no,2026-01-21_15h47.53.187,empathy_intonation_perc_control,2024.2.4,MacIntel,61.72839506,69582dd7ba2234408d11808e,69712dc693a3960bdb483245,69713b407a4ef58556fa6292,,,,,,,,,,,,./stim/wavs/puertorican_mismatch_declarative-broad-focus_La-maestra-vive-en-Paris.wav,0,,,245.8745,248.5146,0,1,2.1255,,0,52,52,86,1,87,0,puertorican,,,,,,,,,,,,,,,,,,,,,,,,,,,,,,,,,,,,,,,,,,,,,,,,,,,,,,,,
,,,,,,,,,69582dd7ba2234408d11808e,Spanish,13 or older,"no, only English or Spanish",no,2026-01-21_15h47.53.187,empathy_intonation_perc_control,2024.2.4,MacIntel,61.72839506,69582dd7ba2234408d11808e,69712dc693a3960bdb483245,69713b407a4ef58556fa6292,,,,,,,,,,,,./stim/wavs/cuban_match_declarative-broad-focus_Manuela-vende-el-carro.wav,0,,,248.515,250.9375,0,1,1.9074,,0,53,53,52,1,53,0,cuban,,,,,,,,,,,,,,,,,,,,,,,,,,,,,,,,,,,,,,,,,,,,,,,,,,,,,,,,
,,,,,,,,,69582dd7ba2234408d11808e,Spanish,13 or older,"no, only English or Spanish",no,2026-01-21_15h47.53.187,empathy_intonation_perc_control,2024.2.4,MacIntel,61.72839506,69582dd7ba2234408d11808e,69712dc693a3960bdb483245,69713b407a4ef58556fa6292,,,,,,,,,,,,./stim/wavs/castilian_match_interrogative-total-yn_David-leia-el-libro.wav,1,,,250.9379,253.0604,1,1,1.6149,,0,54,54,0,1,1,0,castilian,,,,,,,,,,,,,,,,,,,,,,,,,,,,,,,,,,,,,,,,,,,,,,,,,,,,,,,,
,,,,,,,,,69582dd7ba2234408d11808e,Spanish,13 or older,"no, only English or Spanish",no,2026-01-21_15h47.53.187,empathy_intonation_perc_control,2024.2.4,MacIntel,61.72839506,69582dd7ba2234408d11808e,69712dc693a3960bdb483245,69713b407a4ef58556fa6292,,,,,,,,,,,,./stim/wavs/mexican_mismatch_interrogative-total-yn_El-nino-oye-el-rio.wav,1,,,253.0608,255.049,1,1,1.4702,,0,55,55,35,1,36,0,mexican,,,,,,,,,,,,,,,,,,,,,,,,,,,,,,,,,,,,,,,,,,,,,,,,,,,,,,,,
,,,,,,,,,69582dd7ba2234408d11808e,Spanish,13 or older,"no, only English or Spanish",no,2026-01-21_15h47.53.187,empathy_intonation_perc_control,2024.2.4,MacIntel,61.72839506,69582dd7ba2234408d11808e,69712dc693a3960bdb483245,69713b407a4ef58556fa6292,,,,,,,,,,,,./stim/wavs/puertorican_match_declarative-broad-focus_David-leia-el-libro.wav,0,,,255.0496,257.0706,0,1,1.5126,,0,56,56,64,1,65,0,puertorican,,,,,,,,,,,,,,,,,,,,,,,,,,,,,,,,,,,,,,,,,,,,,,,,,,,,,,,,
,,,,,,,,,69582dd7ba2234408d11808e,Spanish,13 or older,"no, only English or Spanish",no,2026-01-21_15h47.53.187,empathy_intonation_perc_control,2024.2.4,MacIntel,61.72839506,69582dd7ba2234408d11808e,69712dc693a3960bdb483245,69713b407a4ef58556fa6292,,,,,,,,,,,,./stim/wavs/cuban_match_interrogative-total-yn_Maria-bebe-el-vino.wav,1,,,257.0711,259.7443,0,0,2.1612,,0,57,57,9,1,10,1,cuban,,,,,,,,,,,,,,,,,,,,,,,,,,,,,,,,,,,,,,,,,,,,,,,,,,,,,,,,
,,,,,,,,,69582dd7ba2234408d11808e,Spanish,13 or older,"no, only English or Spanish",no,2026-01-21_15h47.53.187,empathy_intonation_perc_control,2024.2.4,MacIntel,61.72839506,69582dd7ba2234408d11808e,69712dc693a3960bdb483245,69713b407a4ef58556fa6292,,,,,,,,,,,,./stim/wavs/puertorican_match_interrogative-total-yn_Maria-bebe-el-vino.wav,1,,,259.7447,261.8836,0,0,1.6221,,0,58,58,23,1,24,1,puertorican,,,,,,,,,,,,,,,,,,,,,,,,,,,,,,,,,,,,,,,,,,,,,,,,,,,,,,,,
,,,,,,,,,69582dd7ba2234408d11808e,Spanish,13 or older,"no, only English or Spanish",no,2026-01-21_15h47.53.187,empathy_intonation_perc_control,2024.2.4,MacIntel,61.72839506,69582dd7ba2234408d11808e,69712dc693a3960bdb483245,69713b407a4ef58556fa6292,,,,,,,,,,,,./stim/wavs/puertorican_mismatch_declarative-broad-focus_La-nina-lava-el-plato.wav,0,,,261.8841,263.872,0,1,1.48,,0,59,59,87,1,88,0,puertorican,,,,,,,,,,,,,,,,,,,,,,,,,,,,,,,,,,,,,,,,,,,,,,,,,,,,,,,,
,,,,,,,,,69582dd7ba2234408d11808e,Spanish,13 or older,"no, only English or Spanish",no,2026-01-21_15h47.53.187,empathy_intonation_perc_control,2024.2.4,MacIntel,61.72839506,69582dd7ba2234408d11808e,69712dc693a3960bdb483245,69713b407a4ef58556fa6292,,,,,,,,,,,,./stim/wavs/castilian_mismatch_interrogative-total-yn_La-nina-lava-el-plato.wav,1,,,263.873,265.9779,1,1,1.5917,,0,60,60,25,1,26,0,castilian,,,,,,,,,,,,,,,,,,,,,,,,,,,,,,,,,,,,,,,,,,,,,,,,,,,,,,,,
,,,,,,,,,69582dd7ba2234408d11808e,Spanish,13 or older,"no, only English or Spanish",no,2026-01-21_15h47.53.187,empathy_intonation_perc_control,2024.2.4,MacIntel,61.72839506,69582dd7ba2234408d11808e,69712dc693a3960bdb483245,69713b407a4ef58556fa6292,,,,,,,,,,,,./stim/wavs/mexican_match_declarative-broad-focus_Daniel-iba-a-Bolivia.wav,0,,,265.9784,268.3837,0,1,1.8906,,0,61,61,57,1,58,0,mexican,,,,,,,,,,,,,,,,,,,,,,,,,,,,,,,,,,,,,,,,,,,,,,,,,,,,,,,,
,,,,,,,,,69582dd7ba2234408d11808e,Spanish,13 or older,"no, only English or Spanish",no,2026-01-21_15h47.53.187,empathy_intonation_perc_control,2024.2.4,MacIntel,61.72839506,69582dd7ba2234408d11808e,69712dc693a3960bdb483245,69713b407a4ef58556fa6292,,,,,,,,,,,,./stim/wavs/puertorican_match_declarative-broad-focus_Daniel-iba-a-Bolivia.wav,0,,,268.3842,270.8238,0,1,1.9219,,0,62,62,63,1,64,0,puertorican,,,,,,,,,,,,,,,,,,,,,,,,,,,,,,,,,,,,,,,,,,,,,,,,,,,,,,,,
,,,,,,,,,69582dd7ba2234408d11808e,Spanish,13 or older,"no, only English or Spanish",no,2026-01-21_15h47.53.187,empathy_intonation_perc_control,2024.2.4,MacIntel,61.72839506,69582dd7ba2234408d11808e,69712dc693a3960bdb483245,69713b407a4ef58556fa6292,,,,,,,,,,,,./stim/wavs/cuban_match_interrogative-total-yn_Manuela-vende-el-carro.wav,1,,,270.8243,273.2978,0,0,1.9642,,0,63,63,8,1,9,1,cuban,,,,,,,,,,,,,,,,,,,,,,,,,,,,,,,,,,,,,,,,,,,,,,,,,,,,,,,,
,,,,,,,,,69582dd7ba2234408d11808e,Spanish,13 or older,"no, only English or Spanish",no,2026-01-21_15h47.53.187,empathy_intonation_perc_control,2024.2.4,MacIntel,61.72839506,69582dd7ba2234408d11808e,69712dc693a3960bdb483245,69713b407a4ef58556fa6292,,,,,,,,,,,,./stim/wavs/cuban_match_interrogative-total-yn_Mariano-habla-del-tiempo.wav,1,,,273.2984,275.7373,0,0,1.9324,,0,64,64,10,1,11,1,cuban,,,,,,,,,,,,,,,,,,,,,,,,,,,,,,,,,,,,,,,,,,,,,,,,,,,,,,,,
,,,,,,,,,69582dd7ba2234408d11808e,Spanish,13 or older,"no, only English or Spanish",no,2026-01-21_15h47.53.187,empathy_intonation_perc_control,2024.2.4,MacIntel,61.72839506,69582dd7ba2234408d11808e,69712dc693a3960bdb483245,69713b407a4ef58556fa6292,,,,,,,,,,,,./stim/wavs/cuban_mismatch_interrogative-total-yn_Mi-novio-viene-del-lago.wav,1,,,275.7377,278.4783,0,0,2.2247,,0,65,65,32,1,33,1,cuban,,,,,,,,,,,,,,,,,,,,,,,,,,,,,,,,,,,,,,,,,,,,,,,,,,,,,,,,
,,,,,,,,,69582dd7ba2234408d11808e,Spanish,13 or older,"no, only English or Spanish",no,2026-01-21_15h47.53.187,empathy_intonation_perc_control,2024.2.4,MacIntel,61.72839506,69582dd7ba2234408d11808e,69712dc693a3960bdb483245,69713b407a4ef58556fa6292,,,,,,,,,,,,./stim/wavs/puertorican_mismatch_declarative-broad-focus_El-nino-oye-el-rio.wav,0,,,278.4788,280.7674,0,1,1.7804,,0,66,66,85,1,86,0,puertorican,,,,,,,,,,,,,,,,,,,,,,,,,,,,,,,,,,,,,,,,,,,,,,,,,,,,,,,,
,,,,,,,,,69582dd7ba2234408d11808e,Spanish,13 or older,"no, only English or Spanish",no,2026-01-21_15h47.53.187,empathy_intonation_perc_control,2024.2.4,MacIntel,61.72839506,69582dd7ba2234408d11808e,69712dc693a3960bdb483245,69713b407a4ef58556fa6292,,,,,,,,,,,,./stim/wavs/puertorican_mismatch_declarative-broad-focus_El-bebe-comia-muy-bien.wav,0,,,280.7679,283.4416,0,1,2.1589,,0,67,67,83,1,84,0,puertorican,,,,,,,,,,,,,,,,,,,,,,,,,,,,,,,,,,,,,,,,,,,,,,,,,,,,,,,,
,,,,,,,,,69582dd7ba2234408d11808e,Spanish,13 or older,"no, only English or Spanish",no,2026-01-21_15h47.53.187,empathy_intonation_perc_control,2024.2.4,MacIntel,61.72839506,69582dd7ba2234408d11808e,69712dc693a3960bdb483245,69713b407a4ef58556fa6292,,,,,,,,,,,,./stim/wavs/castilian_match_declarative-broad-focus_Maria-bebe-el-vino.wav,0,,,283.4421,286.199,0,1,2.2431,,0,68,68,47,1,48,0,castilian,,,,,,,,,,,,,,,,,,,,,,,,,,,,,,,,,,,,,,,,,,,,,,,,,,,,,,,,
,,,,,,,,,69582dd7ba2234408d11808e,Spanish,13 or older,"no, only English or Spanish",no,2026-01-21_15h47.53.187,empathy_intonation_perc_control,2024.2.4,MacIntel,61.72839506,69582dd7ba2234408d11808e,69712dc693a3960bdb483245,69713b407a4ef58556fa6292,,,,,,,,,,,,./stim/wavs/mexican_mismatch_declarative-broad-focus_Mi-tia-odia-la-lluvia.wav,0,,,286.1996,288.3884,0,1,1.682,,0,69,69,82,1,83,0,mexican,,,,,,,,,,,,,,,,,,,,,,,,,,,,,,,,,,,,,,,,,,,,,,,,,,,,,,,,
,,,,,,,,,69582dd7ba2234408d11808e,Spanish,13 or older,"no, only English or Spanish",no,2026-01-21_15h47.53.187,empathy_intonation_perc_control,2024.2.4,MacIntel,61.72839506,69582dd7ba2234408d11808e,69712dc693a3960bdb483245,69713b407a4ef58556fa6292,,,,,,,,,,,,./stim/wavs/puertorican_mismatch_interrogative-total-yn_Mi-madre-come-la-fruta.wav,1,,,288.389,290.8604,0,0,1.9584,,0,70,70,43,1,44,1,puertorican,,,,,,,,,,,,,,,,,,,,,,,,,,,,,,,,,,,,,,,,,,,,,,,,,,,,,,,,
,,,,,,,,,69582dd7ba2234408d11808e,Spanish,13 or older,"no, only English or Spanish",no,2026-01-21_15h47.53.187,empathy_intonation_perc_control,2024.2.4,MacIntel,61.72839506,69582dd7ba2234408d11808e,69712dc693a3960bdb483245,69713b407a4ef58556fa6292,,,,,,,,,,,,./stim/wavs/castilian_mismatch_declarative-broad-focus_La-nina-lava-el-plato.wav,0,,,290.8609,293.8023,0,1,2.4322,,0,71,71,70,1,71,0,castilian,,,,,,,,,,,,,,,,,,,,,,,,,,,,,,,,,,,,,,,,,,,,,,,,,,,,,,,,
,,,,,,,,,69582dd7ba2234408d11808e,Spanish,13 or older,"no, only English or Spanish",no,2026-01-21_15h47.53.187,empathy_intonation_perc_control,2024.2.4,MacIntel,61.72839506,69582dd7ba2234408d11808e,69712dc693a3960bdb483245,69713b407a4ef58556fa6292,,,,,,,,,,,,./stim/wavs/puertorican_match_interrogative-total-yn_Ana-lleva-el-abrigo.wav,1,,,293.8031,295.9248,0,0,1.6078,,0,72,72,18,1,19,1,puertorican,,,,,,,,,,,,,,,,,,,,,,,,,,,,,,,,,,,,,,,,,,,,,,,,,,,,,,,,
,,,,,,,,,69582dd7ba2234408d11808e,Spanish,13 or older,"no, only English or Spanish",no,2026-01-21_15h47.53.187,empathy_intonation_perc_control,2024.2.4,MacIntel,61.72839506,69582dd7ba2234408d11808e,69712dc693a3960bdb483245,69713b407a4ef58556fa6292,,,,,,,,,,,,./stim/wavs/puertorican_mismatch_declarative-broad-focus_El-hombre-mira-la-luna.wav,0,,,295.9255,298.1634,0,1,1.721,,0,73,73,84,1,85,0,puertorican,,,,,,,,,,,,,,,,,,,,,,,,,,,,,,,,,,,,,,,,,,,,,,,,,,,,,,,,
,,,,,,,,,69582dd7ba2234408d11808e,Spanish,13 or older,"no, only English or Spanish",no,2026-01-21_15h47.53.187,empathy_intonation_perc_control,2024.2.4,MacIntel,61.72839506,69582dd7ba2234408d11808e,69712dc693a3960bdb483245,69713b407a4ef58556fa6292,,,,,,,,,,,,./stim/wavs/cuban_match_declarative-broad-focus_Ana-lleva-el-abrigo.wav,0,,,298.1639,300.4197,0,1,1.7402,,0,74,74,50,1,51,0,cuban,,,,,,,,,,,,,,,,,,,,,,,,,,,,,,,,,,,,,,,,,,,,,,,,,,,,,,,,
,,,,,,,,,69582dd7ba2234408d11808e,Spanish,13 or older,"no, only English or Spanish",no,2026-01-21_15h47.53.187,empathy_intonation_perc_control,2024.2.4,MacIntel,61.72839506,69582dd7ba2234408d11808e,69712dc693a3960bdb483245,69713b407a4ef58556fa6292,,,,,,,,,,,,./stim/wavs/puertorican_match_declarative-broad-focus_Maria-bebe-el-vino.wav,0,,,300.4202,302.6424,1,0,1.7048,,0,75,75,67,1,68,0,puertorican,,,,,,,,,,,,,,,,,,,,,,,,,,,,,,,,,,,,,,,,,,,,,,,,,,,,,,,,
,,,,,,,,,69582dd7ba2234408d11808e,Spanish,13 or older,"no, only English or Spanish",no,2026-01-21_15h47.53.187,empathy_intonation_perc_control,2024.2.4,MacIntel,61.72839506,69582dd7ba2234408d11808e,69712dc693a3960bdb483245,69713b407a4ef58556fa6292,,,,,,,,,,,,./stim/wavs/puertorican_match_interrogative-total-yn_Manuela-vende-el-carro.wav,1,,,302.643,304.7982,0,0,1.643,,0,76,76,22,1,23,1,puertorican,,,,,,,,,,,,,,,,,,,,,,,,,,,,,,,,,,,,,,,,,,,,,,,,,,,,,,,,
,,,,,,,,,69582dd7ba2234408d11808e,Spanish,13 or older,"no, only English or Spanish",no,2026-01-21_15h47.53.187,empathy_intonation_perc_control,2024.2.4,MacIntel,61.72839506,69582dd7ba2234408d11808e,69712dc693a3960bdb483245,69713b407a4ef58556fa6292,,,,,,,,,,,,./stim/wavs/puertorican_match_declarative-broad-focus_Manuela-vende-el-carro.wav,0,,,304.7988,307.272,0,1,1.9665,,0,77,77,66,1,67,0,puertorican,,,,,,,,,,,,,,,,,,,,,,,,,,,,,,,,,,,,,,,,,,,,,,,,,,,,,,,,
,,,,,,,,,69582dd7ba2234408d11808e,Spanish,13 or older,"no, only English or Spanish",no,2026-01-21_15h47.53.187,empathy_intonation_perc_control,2024.2.4,MacIntel,61.72839506,69582dd7ba2234408d11808e,69712dc693a3960bdb483245,69713b407a4ef58556fa6292,,,,,,,,,,,,./stim/wavs/cuban_mismatch_interrogative-total-yn_Mi-tia-odia-la-lluvia.wav,1,,,307.2725,309.745,0,0,1.9658,,0,78,78,33,1,34,1,cuban,,,,,,,,,,,,,,,,,,,,,,,,,,,,,,,,,,,,,,,,,,,,,,,,,,,,,,,,
,,,,,,,,,69582dd7ba2234408d11808e,Spanish,13 or older,"no, only English or Spanish",no,2026-01-21_15h47.53.187,empathy_intonation_perc_control,2024.2.4,MacIntel,61.72839506,69582dd7ba2234408d11808e,69712dc693a3960bdb483245,69713b407a4ef58556fa6292,,,,,,,,,,,,./stim/wavs/castilian_match_interrogative-total-yn_Marta-abre-el-regalo.wav,1,,,309.7459,311.851,1,1,1.5922,,0,79,79,5,1,6,0,castilian,,,,,,,,,,,,,,,,,,,,,,,,,,,,,,,,,,,,,,,,,,,,,,,,,,,,,,,,
,,,,,,,,,69582dd7ba2234408d11808e,Spanish,13 or older,"no, only English or Spanish",no,2026-01-21_15h47.53.187,empathy_intonation_perc_control,2024.2.4,MacIntel,61.72839506,69582dd7ba2234408d11808e,69712dc693a3960bdb483245,69713b407a4ef58556fa6292,,,,,,,,,,,,./stim/wavs/mexican_match_declarative-broad-focus_Emilio-ama-la-marcha.wav,0,,,311.8515,314.2732,0,1,1.9094,,0,80,80,59,1,60,0,mexican,,,,,,,,,,,,,,,,,,,,,,,,,,,,,,,,,,,,,,,,,,,,,,,,,,,,,,,,
,,,,,,,,,69582dd7ba2234408d11808e,Spanish,13 or older,"no, only English or Spanish",no,2026-01-21_15h47.53.187,empathy_intonation_perc_control,2024.2.4,MacIntel,61.72839506,69582dd7ba2234408d11808e,69712dc693a3960bdb483245,69713b407a4ef58556fa6292,,,,,,,,,,,,./stim/wavs/mexican_mismatch_declarative-broad-focus_Mi-novio-viene-del-lago.wav,0,,,314.2738,316.7461,0,1,1.9552,,0,81,81,81,1,82,0,mexican,,,,,,,,,,,,,,,,,,,,,,,,,,,,,,,,,,,,,,,,,,,,,,,,,,,,,,,,
,,,,,,,,,69582dd7ba2234408d11808e,Spanish,13 or older,"no, only English or Spanish",no,2026-01-21_15h47.53.187,empathy_intonation_perc_control,2024.2.4,MacIntel,61.72839506,69582dd7ba2234408d11808e,69712dc693a3960bdb483245,69713b407a4ef58556fa6292,,,,,,,,,,,,./stim/wavs/puertorican_mismatch_interrogative-total-yn_La-nina-lava-el-plato.wav,1,,,316.7466,319.12,0,0,1.8657,,0,82,82,42,1,43,1,puertorican,,,,,,,,,,,,,,,,,,,,,,,,,,,,,,,,,,,,,,,,,,,,,,,,,,,,,,,,
,,,,,,,,,69582dd7ba2234408d11808e,Spanish,13 or older,"no, only English or Spanish",no,2026-01-21_15h47.53.187,empathy_intonation_perc_control,2024.2.4,MacIntel,61.72839506,69582dd7ba2234408d11808e,69712dc693a3960bdb483245,69713b407a4ef58556fa6292,,,,,,,,,,,,./stim/wavs/castilian_match_declarative-broad-focus_Manuela-vende-el-carro.wav,0,,,319.1208,321.7434,0,1,2.1145,,0,83,83,46,1,47,0,castilian,,,,,,,,,,,,,,,,,,,,,,,,,,,,,,,,,,,,,,,,,,,,,,,,,,,,,,,,
,,,,,,,,,69582dd7ba2234408d11808e,Spanish,13 or older,"no, only English or Spanish",no,2026-01-21_15h47.53.187,empathy_intonation_perc_control,2024.2.4,MacIntel,61.72839506,69582dd7ba2234408d11808e,69712dc693a3960bdb483245,69713b407a4ef58556fa6292,,,,,,,,,,,,./stim/wavs/puertorican_mismatch_interrogative-total-yn_El-nino-oye-el-rio.wav,1,,,321.744,324.2168,0,0,1.9541,,0,84,84,40,1,41,1,puertorican,,,,,,,,,,,,,,,,,,,,,,,,,,,,,,,,,,,,,,,,,,,,,,,,,,,,,,,,
,,,,,,,,,69582dd7ba2234408d11808e,Spanish,13 or older,"no, only English or Spanish",no,2026-01-21_15h47.53.187,empathy_intonation_perc_control,2024.2.4,MacIntel,61.72839506,69582dd7ba2234408d11808e,69712dc693a3960bdb483245,69713b407a4ef58556fa6292,,,,,,,,,,,,./stim/wavs/castilian_mismatch_interrogative-total-yn_Mi-madre-come-la-fruta.wav,1,,,324.2174,326.5231,1,1,1.7897,,0,85,85,26,1,27,0,castilian,,,,,,,,,,,,,,,,,,,,,,,,,,,,,,,,,,,,,,,,,,,,,,,,,,,,,,,,
,,,,,,,,,69582dd7ba2234408d11808e,Spanish,13 or older,"no, only English or Spanish",no,2026-01-21_15h47.53.187,empathy_intonation_perc_control,2024.2.4,MacIntel,61.72839506,69582dd7ba2234408d11808e,69712dc693a3960bdb483245,69713b407a4ef58556fa6292,,,,,,,,,,,,./stim/wavs/cuban_match_interrogative-total-yn_Ana-lleva-el-abrigo.wav,1,,,326.5237,328.7956,0,0,1.7594,,0,86,86,6,1,7,1,cuban,,,,,,,,,,,,,,,,,,,,,,,,,,,,,,,,,,,,,,,,,,,,,,,,,,,,,,,,
,,,,,,,,,69582dd7ba2234408d11808e,Spanish,13 or older,"no, only English or Spanish",no,2026-01-21_15h47.53.187,empathy_intonation_perc_control,2024.2.4,MacIntel,61.72839506,69582dd7ba2234408d11808e,69712dc693a3960bdb483245,69713b407a4ef58556fa6292,,,,,,,,,,,,./stim/wavs/mexican_mismatch_declarative-broad-focus_El-bebe-comia-muy-bien.wav,0,,,328.7961,330.9847,0,1,1.6799,,0,87,87,78,1,79,0,mexican,,,,,,,,,,,,,,,,,,,,,,,,,,,,,,,,,,,,,,,,,,,,,,,,,,,,,,,,
,,,,,,,"Great! Now we will move on. The next task consists of about 60 trials, in each of which you will see a string of letters. 
  
  Your task is to decide whether this is a real Spanish word or not.", (press the spacebar to continue),69582dd7ba2234408d11808e,Spanish,13 or older,"no, only English or Spanish",no,2026-01-21_15h47.53.187,empathy_intonation_perc_control,2024.2.4,MacIntel,61.72839506,69582dd7ba2234408d11808e,69712dc693a3960bdb483245,69713b407a4ef58556fa6292,,,,,,,,,,,,,,,,,,,,,,,,,,,,,,330.9921,338.8564,0,0,0,0,1,,,,,,,,,,,,,,,,,,,,,,,,,,,,,,,,,,,,,,,,,,,,,,,,,
,,,,,,,"If you think it is an existing Spanish word, you type '1' (for 'REAL'), and if you think it is not an existing Spanish word, you type '0' (for 'FAKE').", (press the spacebar to continue),69582dd7ba2234408d11808e,Spanish,13 or older,"no, only English or Spanish",no,2026-01-21_15h47.53.187,empathy_intonation_perc_control,2024.2.4,MacIntel,61.72839506,69582dd7ba2234408d11808e,69712dc693a3960bdb483245,69713b407a4ef58556fa6292,,,,,,,,,,,,,,,,,,,,,,,,,,,,,,338.858,345.6903,0,1,1,1,1,,,,,,,,,,,,,,,,,,,,,,,,,,,,,,,,,,,,,,,,,,,,,,,,,
,,,,,,,"If you are sure that the word exists, even though you don’t know its exact meaning, you may still respond '1' (REAL). 
  
  But if you are not sure if it is an existing word, you should respond '0' (FAKE).
  
  Let's do a practice round...", (press the spacebar to continue),69582dd7ba2234408d11808e,Spanish,13 or older,"no, only English or Spanish",no,2026-01-21_15h47.53.187,empathy_intonation_perc_control,2024.2.4,MacIntel,61.72839506,69582dd7ba2234408d11808e,69712dc693a3960bdb483245,69713b407a4ef58556fa6292,,,,,,,,,,,,,,,,,,,,,,,,,,,,,,345.6921,351.2056,0,2,2,2,1,,,,,,,,,,,,,,,,,,,,,,,,,,,,,,,,,,,,,,,,,,,,,,,,,
,,,,,,,,,69582dd7ba2234408d11808e,Spanish,13 or older,"no, only English or Spanish",no,2026-01-21_15h47.53.187,empathy_intonation_perc_control,2024.2.4,MacIntel,61.72839506,69582dd7ba2234408d11808e,69712dc693a3960bdb483245,69713b407a4ef58556fa6292,,,,,,,,,,,,,0,,,,,,,,,,,,,,,,,,,,,,,,351.2116,360.4973,0,1,8.7551,,360.4975,361.4996,0,0,0,0,1,0,depiste,REAL,FAKE,,,,,,,,,,,,,,,,,,,,,,,,,,,,,,,,
,,,,,,,,,69582dd7ba2234408d11808e,Spanish,13 or older,"no, only English or Spanish",no,2026-01-21_15h47.53.187,empathy_intonation_perc_control,2024.2.4,MacIntel,61.72839506,69582dd7ba2234408d11808e,69712dc693a3960bdb483245,69713b407a4ef58556fa6292,,,,,,,,,,,,,1,,,,,,,,,,,,,,,,,,,,,,,,361.5013,363.2209,1,1,1.1995,,363.221,364.2234,0,1,1,1,1,0,sí,REAL,FAKE,,,,,,,,,,,,,,,,,,,,,,,,,,,,,,,,
,,,,,,,,,69582dd7ba2234408d11808e,Spanish,13 or older,"no, only English or Spanish",no,2026-01-21_15h47.53.187,empathy_intonation_perc_control,2024.2.4,MacIntel,61.72839506,69582dd7ba2234408d11808e,69712dc693a3960bdb483245,69713b407a4ef58556fa6292,,,,,,,,,,,,,0,,,,,,,,,,,,,,,,,,,,,,,,364.2246,368.7027,1,0,3.9606,,368.7033,369.7046,0,2,2,2,1,0,coné,REAL,FAKE,,,,,,,,,,,,,,,,,,,,,,,,,,,,,,,,
,,,,,,,,,69582dd7ba2234408d11808e,Spanish,13 or older,"no, only English or Spanish",no,2026-01-21_15h47.53.187,empathy_intonation_perc_control,2024.2.4,MacIntel,61.72839506,69582dd7ba2234408d11808e,69712dc693a3960bdb483245,69713b407a4ef58556fa6292,,,,,,,,,,,,,0,,,,,,,,,,,,,,,,,,,,,,,,369.7058,371.1588,1,0,0.9368,,371.1588,372.1614,0,3,3,3,1,0,calpar,REAL,FAKE,,,,,,,,,,,,,,,,,,,,,,,,,,,,,,,,
,,,,,,,,,69582dd7ba2234408d11808e,Spanish,13 or older,"no, only English or Spanish",no,2026-01-21_15h47.53.187,empathy_intonation_perc_control,2024.2.4,MacIntel,61.72839506,69582dd7ba2234408d11808e,69712dc693a3960bdb483245,69713b407a4ef58556fa6292,,,,,,,,,,,,,0,,,,,,,,,,,,,,,,,,,,,,,,372.1626,376.6237,1,0,3.944,,376.6238,377.6262,0,4,4,4,1,0,joten,REAL,FAKE,,,,,,,,,,,,,,,,,,,,,,,,,,,,,,,,
,,,,,,,,,69582dd7ba2234408d11808e,Spanish,13 or older,"no, only English or Spanish",no,2026-01-21_15h47.53.187,empathy_intonation_perc_control,2024.2.4,MacIntel,61.72839506,69582dd7ba2234408d11808e,69712dc693a3960bdb483245,69713b407a4ef58556fa6292,,,,,,,,,,,,,1,,,,,,,,,,,,,,,,,,,,,,,,377.6273,381.0188,0,0,2.8783,,381.0189,382.0214,0,5,5,5,1,0,sacapuntas,REAL,FAKE,,,,,,,,,,,,,,,,,,,,,,,,,,,,,,,,
,,,,,,,,,69582dd7ba2234408d11808e,Spanish,13 or older,"no, only English or Spanish",no,2026-01-21_15h47.53.187,empathy_intonation_perc_control,2024.2.4,MacIntel,61.72839506,69582dd7ba2234408d11808e,69712dc693a3960bdb483245,69713b407a4ef58556fa6292,,,,,,,,,,,,,0,,,,,,,,,,,,,,,,,,,,,,,,382.0224,383.9933,1,0,1.448,,383.9934,384.9959,0,6,6,6,1,0,priba,REAL,FAKE,,,,,,,,,,,,,,,,,,,,,,,,,,,,,,,,
,,,,,,,,,69582dd7ba2234408d11808e,Spanish,13 or older,"no, only English or Spanish",no,2026-01-21_15h47.53.187,empathy_intonation_perc_control,2024.2.4,MacIntel,61.72839506,69582dd7ba2234408d11808e,69712dc693a3960bdb483245,69713b407a4ef58556fa6292,,,,,,,,,,,,,0,,,,,,,,,,,,,,,,,,,,,,,,384.9969,388.2048,1,0,2.691,,388.2049,389.2065,0,7,7,7,1,0,pelasula,REAL,FAKE,,,,,,,,,,,,,,,,,,,,,,,,,,,,,,,,
,,,,,,,,,69582dd7ba2234408d11808e,Spanish,13 or older,"no, only English or Spanish",no,2026-01-21_15h47.53.187,empathy_intonation_perc_control,2024.2.4,MacIntel,61.72839506,69582dd7ba2234408d11808e,69712dc693a3960bdb483245,69713b407a4ef58556fa6292,,,,,,,,,,,,,1,,,,,,,,,,,,,,,,,,,,,,,,389.2076,390.4441,1,1,0.7171,,390.4447,391.4467,0,8,8,8,1,0,bien,REAL,FAKE,,,,,,,,,,,,,,,,,,,,,,,,,,,,,,,,
,,,,,,,,,69582dd7ba2234408d11808e,Spanish,13 or older,"no, only English or Spanish",no,2026-01-21_15h47.53.187,empathy_intonation_perc_control,2024.2.4,MacIntel,61.72839506,69582dd7ba2234408d11808e,69712dc693a3960bdb483245,69713b407a4ef58556fa6292,,,,,,,,,,,,,1,,,,,,,,,,,,,,,,,,,,,,,,391.4478,392.6664,1,1,0.6912,,392.6665,393.6694,0,9,9,9,1,0,casa,REAL,FAKE,,,,,,,,,,,,,,,,,,,,,,,,,,,,,,,,
,,,,,,,,,69582dd7ba2234408d11808e,Spanish,13 or older,"no, only English or Spanish",no,2026-01-21_15h47.53.187,empathy_intonation_perc_control,2024.2.4,MacIntel,61.72839506,69582dd7ba2234408d11808e,69712dc693a3960bdb483245,69713b407a4ef58556fa6292,,,,,,,,,,,,,0,,,,,,,,,,,,,,,,,,,,,,,,393.6705,395.4403,0,1,1.2358,,395.4403,396.4428,0,10,10,10,1,0,lejo,REAL,FAKE,,,,,,,,,,,,,,,,,,,,,,,,,,,,,,,,
,,,,,,,,,69582dd7ba2234408d11808e,Spanish,13 or older,"no, only English or Spanish",no,2026-01-21_15h47.53.187,empathy_intonation_perc_control,2024.2.4,MacIntel,61.72839506,69582dd7ba2234408d11808e,69712dc693a3960bdb483245,69713b407a4ef58556fa6292,,,,,,,,,,,,,0,,,,,,,,,,,,,,,,,,,,,,,,396.4439,398.783,0,1,1.8238,,398.783,399.7853,0,11,11,11,1,0,pretantas,REAL,FAKE,,,,,,,,,,,,,,,,,,,,,,,,,,,,,,,,
,,,,,,,,,69582dd7ba2234408d11808e,Spanish,13 or older,"no, only English or Spanish",no,2026-01-21_15h47.53.187,empathy_intonation_perc_control,2024.2.4,MacIntel,61.72839506,69582dd7ba2234408d11808e,69712dc693a3960bdb483245,69713b407a4ef58556fa6292,,,,,,,,,,,,,,,,,,,,,,,,,,,,,,,,,,,,,,,,,,,,,,,,,,,,,,399.7857,401.123,,,,,,,,,,,,,,,,,,,,,,,,,,,,,,
,,,,,,,,,69582dd7ba2234408d11808e,Spanish,13 or older,"no, only English or Spanish",no,2026-01-21_15h47.53.187,empathy_intonation_perc_control,2024.2.4,MacIntel,61.72839506,69582dd7ba2234408d11808e,69712dc693a3960bdb483245,69713b407a4ef58556fa6292,,,,,,,,,,,,,1,,,,,,,,,,,,,,,,,,,,,,,,,,,,,,,,,,,,,45,jilguero,,,,,401.1358,404.5821,0,0,2.9243,,0,0,0,44,1,REAL,FAKE,,,,,,,,,,,,,,,,,
,,,,,,,,,69582dd7ba2234408d11808e,Spanish,13 or older,"no, only English or Spanish",no,2026-01-21_15h47.53.187,empathy_intonation_perc_control,2024.2.4,MacIntel,61.72839506,69582dd7ba2234408d11808e,69712dc693a3960bdb483245,69713b407a4ef58556fa6292,,,,,,,,,,,,,0,,,,,,,,,,,,,,,,,,,,,,,,,,,,,,,,,,,,,1,terzo,,,,,404.5838,406.7867,0,1,1.6848,,0,1,1,0,1,REAL,FAKE,,,,,,,,,,,,,,,,,
,,,,,,,,,69582dd7ba2234408d11808e,Spanish,13 or older,"no, only English or Spanish",no,2026-01-21_15h47.53.187,empathy_intonation_perc_control,2024.2.4,MacIntel,61.72839506,69582dd7ba2234408d11808e,69712dc693a3960bdb483245,69713b407a4ef58556fa6292,,,,,,,,,,,,,1,,,,,,,,,,,,,,,,,,,,,,,,,,,,,,,,,,,,,88,acantilado,,,,,406.7873,410.4969,1,1,3.1865,,0,2,2,87,1,REAL,FAKE,,,,,,,,,,,,,,,,,
,,,,,,,,,69582dd7ba2234408d11808e,Spanish,13 or older,"no, only English or Spanish",no,2026-01-21_15h47.53.187,empathy_intonation_perc_control,2024.2.4,MacIntel,61.72839506,69582dd7ba2234408d11808e,69712dc693a3960bdb483245,69713b407a4ef58556fa6292,,,,,,,,,,,,,1,,,,,,,,,,,,,,,,,,,,,,,,,,,,,,,,,,,,,81,pozo,,,,,410.4978,412.1514,0,0,1.1316,,0,3,3,80,1,REAL,FAKE,,,,,,,,,,,,,,,,,
,,,,,,,,,69582dd7ba2234408d11808e,Spanish,13 or older,"no, only English or Spanish",no,2026-01-21_15h47.53.187,empathy_intonation_perc_control,2024.2.4,MacIntel,61.72839506,69582dd7ba2234408d11808e,69712dc693a3960bdb483245,69713b407a4ef58556fa6292,,,,,,,,,,,,,1,,,,,,,,,,,,,,,,,,,,,,,,,,,,,,,,,,,,,40,alfombra,,,,,412.1526,415.444,1,1,2.7813,,0,4,4,39,1,REAL,FAKE,,,,,,,,,,,,,,,,,
,,,,,,,,,69582dd7ba2234408d11808e,Spanish,13 or older,"no, only English or Spanish",no,2026-01-21_15h47.53.187,empathy_intonation_perc_control,2024.2.4,MacIntel,61.72839506,69582dd7ba2234408d11808e,69712dc693a3960bdb483245,69713b407a4ef58556fa6292,,,,,,,,,,,,,1,,,,,,,,,,,,,,,,,,,,,,,,,,,,,,,,,,,,,41,rebuscar,,,,,415.4453,418.5187,1,1,2.5613,,0,5,5,40,1,REAL,FAKE,,,,,,,,,,,,,,,,,
,,,,,,,,,69582dd7ba2234408d11808e,Spanish,13 or older,"no, only English or Spanish",no,2026-01-21_15h47.53.187,empathy_intonation_perc_control,2024.2.4,MacIntel,61.72839506,69582dd7ba2234408d11808e,69712dc693a3960bdb483245,69713b407a4ef58556fa6292,,,,,,,,,,,,,1,,,,,,,,,,,,,,,,,,,,,,,,,,,,,,,,,,,,,12,asesinato,,,,,418.5198,420.8242,0,0,1.7925,,0,6,6,11,1,REAL,FAKE,,,,,,,,,,,,,,,,,
,,,,,,,,,69582dd7ba2234408d11808e,Spanish,13 or older,"no, only English or Spanish",no,2026-01-21_15h47.53.187,empathy_intonation_perc_control,2024.2.4,MacIntel,61.72839506,69582dd7ba2234408d11808e,69712dc693a3960bdb483245,69713b407a4ef58556fa6292,,,,,,,,,,,,,1,,,,,,,,,,,,,,,,,,,,,,,,,,,,,,,,,,,,,78,frondoso,,,,,420.8256,422.9801,0,0,1.6353,,0,7,7,77,1,REAL,FAKE,,,,,,,,,,,,,,,,,
,,,,,,,,,69582dd7ba2234408d11808e,Spanish,13 or older,"no, only English or Spanish",no,2026-01-21_15h47.53.187,empathy_intonation_perc_control,2024.2.4,MacIntel,61.72839506,69582dd7ba2234408d11808e,69712dc693a3960bdb483245,69713b407a4ef58556fa6292,,,,,,,,,,,,,1,,,,,,,,,,,,,,,,,,,,,,,,,,,,,,,,,,,,,24,látigo,,,,,422.9812,426.039,0,0,2.5383,,0,8,8,23,1,REAL,FAKE,,,,,,,,,,,,,,,,,
,,,,,,,,,69582dd7ba2234408d11808e,Spanish,13 or older,"no, only English or Spanish",no,2026-01-21_15h47.53.187,empathy_intonation_perc_control,2024.2.4,MacIntel,61.72839506,69582dd7ba2234408d11808e,69712dc693a3960bdb483245,69713b407a4ef58556fa6292,,,,,,,,,,,,,1,,,,,,,,,,,,,,,,,,,,,,,,,,,,,,,,,,,,,76,atar,,,,,426.04,429.4479,1,1,2.8913,,0,9,9,75,1,REAL,FAKE,,,,,,,,,,,,,,,,,
,,,,,,,,,69582dd7ba2234408d11808e,Spanish,13 or older,"no, only English or Spanish",no,2026-01-21_15h47.53.187,empathy_intonation_perc_control,2024.2.4,MacIntel,61.72839506,69582dd7ba2234408d11808e,69712dc693a3960bdb483245,69713b407a4ef58556fa6292,,,,,,,,,,,,,0,,,,,,,,,,,,,,,,,,,,,,,,,,,,,,,,,,,,,4,batillón,,,,,429.4491,432.6738,0,1,2.7139,,0,10,10,3,1,REAL,FAKE,,,,,,,,,,,,,,,,,
,,,,,,,,,69582dd7ba2234408d11808e,Spanish,13 or older,"no, only English or Spanish",no,2026-01-21_15h47.53.187,empathy_intonation_perc_control,2024.2.4,MacIntel,61.72839506,69582dd7ba2234408d11808e,69712dc693a3960bdb483245,69713b407a4ef58556fa6292,,,,,,,,,,,,,1,,,,,,,,,,,,,,,,,,,,,,,,,,,,,,,,,,,,,43,canela,,,,,432.6748,434.6951,1,1,1.5039,,0,11,11,42,1,REAL,FAKE,,,,,,,,,,,,,,,,,
,,,,,,,,,69582dd7ba2234408d11808e,Spanish,13 or older,"no, only English or Spanish",no,2026-01-21_15h47.53.187,empathy_intonation_perc_control,2024.2.4,MacIntel,61.72839506,69582dd7ba2234408d11808e,69712dc693a3960bdb483245,69713b407a4ef58556fa6292,,,,,,,,,,,,,1,,,,,,,,,,,,,,,,,,,,,,,,,,,,,,,,,,,,,7,pésimo,,,,,434.6958,436.5999,0,0,1.3825,,0,12,12,6,1,REAL,FAKE,,,,,,,,,,,,,,,,,
,,,,,,,,,69582dd7ba2234408d11808e,Spanish,13 or older,"no, only English or Spanish",no,2026-01-21_15h47.53.187,empathy_intonation_perc_control,2024.2.4,MacIntel,61.72839506,69582dd7ba2234408d11808e,69712dc693a3960bdb483245,69713b407a4ef58556fa6292,,,,,,,,,,,,,0,,,,,,,,,,,,,,,,,,,,,,,,,,,,,,,,,,,,,35,rompido,,,,,436.6008,438.6562,1,0,1.5402,,0,13,13,34,1,REAL,FAKE,,,,,,,,,,,,,,,,,
,,,,,,,,,69582dd7ba2234408d11808e,Spanish,13 or older,"no, only English or Spanish",no,2026-01-21_15h47.53.187,empathy_intonation_perc_control,2024.2.4,MacIntel,61.72839506,69582dd7ba2234408d11808e,69712dc693a3960bdb483245,69713b407a4ef58556fa6292,,,,,,,,,,,,,1,,,,,,,,,,,,,,,,,,,,,,,,,,,,,,,,,,,,,89,prisa,,,,,438.6572,440.3098,0,0,1.1398,,0,14,14,88,1,REAL,FAKE,,,,,,,,,,,,,,,,,
,,,,,,,,,69582dd7ba2234408d11808e,Spanish,13 or older,"no, only English or Spanish",no,2026-01-21_15h47.53.187,empathy_intonation_perc_control,2024.2.4,MacIntel,61.72839506,69582dd7ba2234408d11808e,69712dc693a3960bdb483245,69713b407a4ef58556fa6292,,,,,,,,,,,,,0,,,,,,,,,,,,,,,,,,,,,,,,,,,,,,,,,,,,,23,lampera,,,,,440.3106,441.915,0,1,1.0862,,0,15,15,22,1,REAL,FAKE,,,,,,,,,,,,,,,,,
,,,,,,,,,69582dd7ba2234408d11808e,Spanish,13 or older,"no, only English or Spanish",no,2026-01-21_15h47.53.187,empathy_intonation_perc_control,2024.2.4,MacIntel,61.72839506,69582dd7ba2234408d11808e,69712dc693a3960bdb483245,69713b407a4ef58556fa6292,,,,,,,,,,,,,0,,,,,,,,,,,,,,,,,,,,,,,,,,,,,,,,,,,,,21,capillo,,,,,441.9159,443.6862,1,0,1.2545,,0,16,16,20,1,REAL,FAKE,,,,,,,,,,,,,,,,,
,,,,,,,,,69582dd7ba2234408d11808e,Spanish,13 or older,"no, only English or Spanish",no,2026-01-21_15h47.53.187,empathy_intonation_perc_control,2024.2.4,MacIntel,61.72839506,69582dd7ba2234408d11808e,69712dc693a3960bdb483245,69713b407a4ef58556fa6292,,,,,,,,,,,,,0,,,,,,,,,,,,,,,,,,,,,,,,,,,,,,,,,,,,,8,cadeña,,,,,443.6871,445.4737,1,0,1.2693,,0,17,17,7,1,REAL,FAKE,,,,,,,,,,,,,,,,,
,,,,,,,,,69582dd7ba2234408d11808e,Spanish,13 or older,"no, only English or Spanish",no,2026-01-21_15h47.53.187,empathy_intonation_perc_control,2024.2.4,MacIntel,61.72839506,69582dd7ba2234408d11808e,69712dc693a3960bdb483245,69713b407a4ef58556fa6292,,,,,,,,,,,,,0,,,,,,,,,,,,,,,,,,,,,,,,,,,,,,,,,,,,,10,antar,,,,,445.4744,447.0778,1,0,1.0831,,0,18,18,9,1,REAL,FAKE,,,,,,,,,,,,,,,,,
,,,,,,,,,69582dd7ba2234408d11808e,Spanish,13 or older,"no, only English or Spanish",no,2026-01-21_15h47.53.187,empathy_intonation_perc_control,2024.2.4,MacIntel,61.72839506,69582dd7ba2234408d11808e,69712dc693a3960bdb483245,69713b407a4ef58556fa6292,,,,,,,,,,,,,1,,,,,,,,,,,,,,,,,,,,,,,,,,,,,,,,,,,,,31,pandilla,,,,,447.0786,449.2676,0,0,1.6703,,0,19,19,30,1,REAL,FAKE,,,,,,,,,,,,,,,,,
,,,,,,,,,69582dd7ba2234408d11808e,Spanish,13 or older,"no, only English or Spanish",no,2026-01-21_15h47.53.187,empathy_intonation_perc_control,2024.2.4,MacIntel,61.72839506,69582dd7ba2234408d11808e,69712dc693a3960bdb483245,69713b407a4ef58556fa6292,,,,,,,,,,,,,1,,,,,,,,,,,,,,,,,,,,,,,,,,,,,,,,,,,,,85,laúd,,,,,449.2687,450.7212,0,0,0.9399,,0,20,20,84,1,REAL,FAKE,,,,,,,,,,,,,,,,,
,,,,,,,,,69582dd7ba2234408d11808e,Spanish,13 or older,"no, only English or Spanish",no,2026-01-21_15h47.53.187,empathy_intonation_perc_control,2024.2.4,MacIntel,61.72839506,69582dd7ba2234408d11808e,69712dc693a3960bdb483245,69713b407a4ef58556fa6292,,,,,,,,,,,,,1,,,,,,,,,,,,,,,,,,,,,,,,,,,,,,,,,,,,,38,estornudar,,,,,450.7221,453.8295,1,1,2.5963,,0,21,21,37,1,REAL,FAKE,,,,,,,,,,,,,,,,,
,,,,,,,,,69582dd7ba2234408d11808e,Spanish,13 or older,"no, only English or Spanish",no,2026-01-21_15h47.53.187,empathy_intonation_perc_control,2024.2.4,MacIntel,61.72839506,69582dd7ba2234408d11808e,69712dc693a3960bdb483245,69713b407a4ef58556fa6292,,,,,,,,,,,,,0,,,,,,,,,,,,,,,,,,,,,,,,,,,,,,,,,,,,,79,tropaje,,,,,453.8304,455.8856,0,1,1.5363,,0,22,22,78,1,REAL,FAKE,,,,,,,,,,,,,,,,,
,,,,,,,,,69582dd7ba2234408d11808e,Spanish,13 or older,"no, only English or Spanish",no,2026-01-21_15h47.53.187,empathy_intonation_perc_control,2024.2.4,MacIntel,61.72839506,69582dd7ba2234408d11808e,69712dc693a3960bdb483245,69713b407a4ef58556fa6292,,,,,,,,,,,,,0,,,,,,,,,,,,,,,,,,,,,,,,,,,,,,,,,,,,,33,pauca,,,,,455.8865,457.5398,0,1,1.1386,,0,23,23,32,1,REAL,FAKE,,,,,,,,,,,,,,,,,
,,,,,,,,,69582dd7ba2234408d11808e,Spanish,13 or older,"no, only English or Spanish",no,2026-01-21_15h47.53.187,empathy_intonation_perc_control,2024.2.4,MacIntel,61.72839506,69582dd7ba2234408d11808e,69712dc693a3960bdb483245,69713b407a4ef58556fa6292,,,,,,,,,,,,,1,,,,,,,,,,,,,,,,,,,,,,,,,,,,,,,,,,,,,83,guante,,,,,457.5407,459.6118,1,1,1.5614,,0,24,24,82,1,REAL,FAKE,,,,,,,,,,,,,,,,,
,,,,,,,,,69582dd7ba2234408d11808e,Spanish,13 or older,"no, only English or Spanish",no,2026-01-21_15h47.53.187,empathy_intonation_perc_control,2024.2.4,MacIntel,61.72839506,69582dd7ba2234408d11808e,69712dc693a3960bdb483245,69713b407a4ef58556fa6292,,,,,,,,,,,,,1,,,,,,,,,,,,,,,,,,,,,,,,,,,,,,,,,,,,,55,nevar,,,,,459.6132,461.2489,0,0,1.1182,,0,25,25,54,1,REAL,FAKE,,,,,,,,,,,,,,,,,
,,,,,,,,,69582dd7ba2234408d11808e,Spanish,13 or older,"no, only English or Spanish",no,2026-01-21_15h47.53.187,empathy_intonation_perc_control,2024.2.4,MacIntel,61.72839506,69582dd7ba2234408d11808e,69712dc693a3960bdb483245,69713b407a4ef58556fa6292,,,,,,,,,,,,,1,,,,,,,,,,,,,,,,,,,,,,,,,,,,,,,,,,,,,39,torpe,,,,,461.2498,462.8201,0,0,1.0597,,0,26,26,38,1,REAL,FAKE,,,,,,,,,,,,,,,,,
,,,,,,,,,69582dd7ba2234408d11808e,Spanish,13 or older,"no, only English or Spanish",no,2026-01-21_15h47.53.187,empathy_intonation_perc_control,2024.2.4,MacIntel,61.72839506,69582dd7ba2234408d11808e,69712dc693a3960bdb483245,69713b407a4ef58556fa6292,,,,,,,,,,,,,1,,,,,,,,,,,,,,,,,,,,,,,,,,,,,,,,,,,,,13,helar,,,,,462.8215,466.3965,1,1,3.0563,,0,27,27,12,1,REAL,FAKE,,,,,,,,,,,,,,,,,
,,,,,,,,,69582dd7ba2234408d11808e,Spanish,13 or older,"no, only English or Spanish",no,2026-01-21_15h47.53.187,empathy_intonation_perc_control,2024.2.4,MacIntel,61.72839506,69582dd7ba2234408d11808e,69712dc693a3960bdb483245,69713b407a4ef58556fa6292,,,,,,,,,,,,,1,,,,,,,,,,,,,,,,,,,,,,,,,,,,,,,,,,,,,51,candado,,,,,466.3974,468.2848,1,1,1.3697,,0,28,28,50,1,REAL,FAKE,,,,,,,,,,,,,,,,,
,,,,,,,,,69582dd7ba2234408d11808e,Spanish,13 or older,"no, only English or Spanish",no,2026-01-21_15h47.53.187,empathy_intonation_perc_control,2024.2.4,MacIntel,61.72839506,69582dd7ba2234408d11808e,69712dc693a3960bdb483245,69713b407a4ef58556fa6292,,,,,,,,,,,,,1,,,,,,,,,,,,,,,,,,,,,,,,,,,,,,,,,,,,,28,merodear,,,,,468.2857,471.6771,0,0,2.8732,,0,29,29,27,1,REAL,FAKE,,,,,,,,,,,,,,,,,
,,,,,,,,,69582dd7ba2234408d11808e,Spanish,13 or older,"no, only English or Spanish",no,2026-01-21_15h47.53.187,empathy_intonation_perc_control,2024.2.4,MacIntel,61.72839506,69582dd7ba2234408d11808e,69712dc693a3960bdb483245,69713b407a4ef58556fa6292,,,,,,,,,,,,,0,,,,,,,,,,,,,,,,,,,,,,,,,,,,,,,,,,,,,53,vegada,,,,,471.678,474.4344,0,1,2.2359,,0,30,30,52,1,REAL,FAKE,,,,,,,,,,,,,,,,,
,,,,,,,,,69582dd7ba2234408d11808e,Spanish,13 or older,"no, only English or Spanish",no,2026-01-21_15h47.53.187,empathy_intonation_perc_control,2024.2.4,MacIntel,61.72839506,69582dd7ba2234408d11808e,69712dc693a3960bdb483245,69713b407a4ef58556fa6292,,,,,,,,,,,,,1,,,,,,,,,,,,,,,,,,,,,,,,,,,,,,,,,,,,,49,ganar,,,,,474.4353,475.7717,1,1,0.8177,,0,31,31,48,1,REAL,FAKE,,,,,,,,,,,,,,,,,
,,,,,,,,,69582dd7ba2234408d11808e,Spanish,13 or older,"no, only English or Spanish",no,2026-01-21_15h47.53.187,empathy_intonation_perc_control,2024.2.4,MacIntel,61.72839506,69582dd7ba2234408d11808e,69712dc693a3960bdb483245,69713b407a4ef58556fa6292,,,,,,,,,,,,,1,,,,,,,,,,,,,,,,,,,,,,,,,,,,,,,,,,,,,6,tergiversar,,,,,475.7726,478.8632,0,0,2.5825,,0,32,32,5,1,REAL,FAKE,,,,,,,,,,,,,,,,,
,,,,,,,,,69582dd7ba2234408d11808e,Spanish,13 or older,"no, only English or Spanish",no,2026-01-21_15h47.53.187,empathy_intonation_perc_control,2024.2.4,MacIntel,61.72839506,69582dd7ba2234408d11808e,69712dc693a3960bdb483245,69713b407a4ef58556fa6292,,,,,,,,,,,,,1,,,,,,,,,,,,,,,,,,,,,,,,,,,,,,,,,,,,,37,granuja,,,,,478.8642,481.5869,0,0,2.204,,0,33,33,36,1,REAL,FAKE,,,,,,,,,,,,,,,,,
,,,,,,,,,69582dd7ba2234408d11808e,Spanish,13 or older,"no, only English or Spanish",no,2026-01-21_15h47.53.187,empathy_intonation_perc_control,2024.2.4,MacIntel,61.72839506,69582dd7ba2234408d11808e,69712dc693a3960bdb483245,69713b407a4ef58556fa6292,,,,,,,,,,,,,0,,,,,,,,,,,,,,,,,,,,,,,,,,,,,,,,,,,,,92,click the 0 key.,,,,,481.5881,483.6758,0,1,1.5751,,0,34,34,91,1,REAL,FAKE,,,,,,,,,,,,,,,,,
,,,,,,,,,69582dd7ba2234408d11808e,Spanish,13 or older,"no, only English or Spanish",no,2026-01-21_15h47.53.187,empathy_intonation_perc_control,2024.2.4,MacIntel,61.72839506,69582dd7ba2234408d11808e,69712dc693a3960bdb483245,69713b407a4ef58556fa6292,,,,,,,,,,,,,0,,,,,,,,,,,,,,,,,,,,,,,,,,,,,,,,,,,,,72,pemición,,,,,483.6767,487.1352,0,1,2.9367,,0,35,35,71,1,REAL,FAKE,,,,,,,,,,,,,,,,,
,,,,,,,,,69582dd7ba2234408d11808e,Spanish,13 or older,"no, only English or Spanish",no,2026-01-21_15h47.53.187,empathy_intonation_perc_control,2024.2.4,MacIntel,61.72839506,69582dd7ba2234408d11808e,69712dc693a3960bdb483245,69713b407a4ef58556fa6292,,,,,,,,,,,,,1,,,,,,,,,,,,,,,,,,,,,,,,,,,,,,,,,,,,,61,seda,,,,,487.1362,488.8559,0,0,1.2024,,0,36,36,60,1,REAL,FAKE,,,,,,,,,,,,,,,,,
,,,,,,,,,69582dd7ba2234408d11808e,Spanish,13 or older,"no, only English or Spanish",no,2026-01-21_15h47.53.187,empathy_intonation_perc_control,2024.2.4,MacIntel,61.72839506,69582dd7ba2234408d11808e,69712dc693a3960bdb483245,69713b407a4ef58556fa6292,,,,,,,,,,,,,0,,,,,,,,,,,,,,,,,,,,,,,,,,,,,,,,,,,,,27,acutación,,,,,488.8567,492.332,0,1,2.9536,,0,37,37,26,1,REAL,FAKE,,,,,,,,,,,,,,,,,
,,,,,,,,,69582dd7ba2234408d11808e,Spanish,13 or older,"no, only English or Spanish",no,2026-01-21_15h47.53.187,empathy_intonation_perc_control,2024.2.4,MacIntel,61.72839506,69582dd7ba2234408d11808e,69712dc693a3960bdb483245,69713b407a4ef58556fa6292,,,,,,,,,,,,,0,,,,,,,,,,,,,,,,,,,,,,,,,,,,,,,,,,,,,50,flamida,,,,,492.3331,494.2714,0,1,1.4188,,0,38,38,49,1,REAL,FAKE,,,,,,,,,,,,,,,,,
,,,,,,,,,69582dd7ba2234408d11808e,Spanish,13 or older,"no, only English or Spanish",no,2026-01-21_15h47.53.187,empathy_intonation_perc_control,2024.2.4,MacIntel,61.72839506,69582dd7ba2234408d11808e,69712dc693a3960bdb483245,69713b407a4ef58556fa6292,,,,,,,,,,,,,1,,,,,,,,,,,,,,,,,,,,,,,,,,,,,,,,,,,,,68,alegre,,,,,494.2722,495.6912,1,1,0.903,,0,39,39,67,1,REAL,FAKE,,,,,,,,,,,,,,,,,
,,,,,,,,,69582dd7ba2234408d11808e,Spanish,13 or older,"no, only English or Spanish",no,2026-01-21_15h47.53.187,empathy_intonation_perc_control,2024.2.4,MacIntel,61.72839506,69582dd7ba2234408d11808e,69712dc693a3960bdb483245,69713b407a4ef58556fa6292,,,,,,,,,,,,,0,,,,,,,,,,,,,,,,,,,,,,,,,,,,,,,,,,,,,74,cintro,,,,,495.6922,498.5655,0,1,2.3633,,0,40,40,73,1,REAL,FAKE,,,,,,,,,,,,,,,,,
,,,,,,,,,69582dd7ba2234408d11808e,Spanish,13 or older,"no, only English or Spanish",no,2026-01-21_15h47.53.187,empathy_intonation_perc_control,2024.2.4,MacIntel,61.72839506,69582dd7ba2234408d11808e,69712dc693a3960bdb483245,69713b407a4ef58556fa6292,,,,,,,,,,,,,1,,,,,,,,,,,,,,,,,,,,,,,,,,,,,,,,,,,,,90,clavel,,,,,498.5667,500.5707,0,0,1.4926,,0,41,41,89,1,REAL,FAKE,,,,,,,,,,,,,,,,,
,,,,,,,,,69582dd7ba2234408d11808e,Spanish,13 or older,"no, only English or Spanish",no,2026-01-21_15h47.53.187,empathy_intonation_perc_control,2024.2.4,MacIntel,61.72839506,69582dd7ba2234408d11808e,69712dc693a3960bdb483245,69713b407a4ef58556fa6292,,,,,,,,,,,,,0,,,,,,,,,,,,,,,,,,,,,,,,,,,,,,,,,,,,,66,hacido,,,,,500.5717,502.1752,1,0,1.0828,,0,42,42,65,1,REAL,FAKE,,,,,,,,,,,,,,,,,
,,,,,,,,,69582dd7ba2234408d11808e,Spanish,13 or older,"no, only English or Spanish",no,2026-01-21_15h47.53.187,empathy_intonation_perc_control,2024.2.4,MacIntel,61.72839506,69582dd7ba2234408d11808e,69712dc693a3960bdb483245,69713b407a4ef58556fa6292,,,,,,,,,,,,,1,,,,,,,,,,,,,,,,,,,,,,,,,,,,,,,,,,,,,5,zapato,,,,,502.176,503.5127,1,1,0.8198,,0,43,43,4,1,REAL,FAKE,,,,,,,,,,,,,,,,,
,,,,,,,,,69582dd7ba2234408d11808e,Spanish,13 or older,"no, only English or Spanish",no,2026-01-21_15h47.53.187,empathy_intonation_perc_control,2024.2.4,MacIntel,61.72839506,69582dd7ba2234408d11808e,69712dc693a3960bdb483245,69713b407a4ef58556fa6292,,,,,,,,,,,,,1,,,,,,,,,,,,,,,,,,,,,,,,,,,,,,,,,,,,,67,cabello,,,,,503.5135,504.8987,1,1,0.8681,,0,44,44,66,1,REAL,FAKE,,,,,,,,,,,,,,,,,
,,,,,,,,,69582dd7ba2234408d11808e,Spanish,13 or older,"no, only English or Spanish",no,2026-01-21_15h47.53.187,empathy_intonation_perc_control,2024.2.4,MacIntel,61.72839506,69582dd7ba2234408d11808e,69712dc693a3960bdb483245,69713b407a4ef58556fa6292,,,,,,,,,,,,,1,,,,,,,,,,,,,,,,,,,,,,,,,,,,,,,,,,,,,34,aviso,,,,,504.8995,507.4566,0,0,2.0388,,0,45,45,33,1,REAL,FAKE,,,,,,,,,,,,,,,,,
,,,,,,,,,69582dd7ba2234408d11808e,Spanish,13 or older,"no, only English or Spanish",no,2026-01-21_15h47.53.187,empathy_intonation_perc_control,2024.2.4,MacIntel,61.72839506,69582dd7ba2234408d11808e,69712dc693a3960bdb483245,69713b407a4ef58556fa6292,,,,,,,,,,,,,1,,,,,,,,,,,,,,,,,,,,,,,,,,,,,,,,,,,,,69,engatusar,,,,,507.4576,509.4284,0,0,1.4528,,0,46,46,68,1,REAL,FAKE,,,,,,,,,,,,,,,,,
,,,,,,,,,69582dd7ba2234408d11808e,Spanish,13 or older,"no, only English or Spanish",no,2026-01-21_15h47.53.187,empathy_intonation_perc_control,2024.2.4,MacIntel,61.72839506,69582dd7ba2234408d11808e,69712dc693a3960bdb483245,69713b407a4ef58556fa6292,,,,,,,,,,,,,0,,,,,,,,,,,,,,,,,,,,,,,,,,,,,,,,,,,,,42,cadallo,,,,,509.4293,511.0826,0,1,1.1315,,0,47,47,41,1,REAL,FAKE,,,,,,,,,,,,,,,,,
,,,,,,,,,69582dd7ba2234408d11808e,Spanish,13 or older,"no, only English or Spanish",no,2026-01-21_15h47.53.187,empathy_intonation_perc_control,2024.2.4,MacIntel,61.72839506,69582dd7ba2234408d11808e,69712dc693a3960bdb483245,69713b407a4ef58556fa6292,,,,,,,,,,,,,0,,,,,,,,,,,,,,,,,,,,,,,,,,,,,,,,,,,,,58,plaudir,,,,,511.0836,512.8033,0,1,1.2078,,0,48,48,57,1,REAL,FAKE,,,,,,,,,,,,,,,,,
,,,,,,,,,69582dd7ba2234408d11808e,Spanish,13 or older,"no, only English or Spanish",no,2026-01-21_15h47.53.187,empathy_intonation_perc_control,2024.2.4,MacIntel,61.72839506,69582dd7ba2234408d11808e,69712dc693a3960bdb483245,69713b407a4ef58556fa6292,,,,,,,,,,,,,0,,,,,,,,,,,,,,,,,,,,,,,,,,,,,,,,,,,,,30,alardio,,,,,512.8045,515.962,0,1,2.6426,,0,49,49,29,1,REAL,FAKE,,,,,,,,,,,,,,,,,
,,,,,,,,,69582dd7ba2234408d11808e,Spanish,13 or older,"no, only English or Spanish",no,2026-01-21_15h47.53.187,empathy_intonation_perc_control,2024.2.4,MacIntel,61.72839506,69582dd7ba2234408d11808e,69712dc693a3960bdb483245,69713b407a4ef58556fa6292,,,,,,,,,,,,,1,,,,,,,,,,,,,,,,,,,,,,,,,,,,,,,,,,,,,57,tacaño,,,,,515.9627,523.1485,1,1,6.6739,,0,50,50,56,1,REAL,FAKE,,,,,,,,,,,,,,,,,
,,,,,,,,,69582dd7ba2234408d11808e,Spanish,13 or older,"no, only English or Spanish",no,2026-01-21_15h47.53.187,empathy_intonation_perc_control,2024.2.4,MacIntel,61.72839506,69582dd7ba2234408d11808e,69712dc693a3960bdb483245,69713b407a4ef58556fa6292,,,,,,,,,,,,,0,,,,,,,,,,,,,,,,,,,,,,,,,,,,,,,,,,,,,18,arsa,,,,,523.1496,524.8355,0,1,1.1646,,0,51,51,17,1,REAL,FAKE,,,,,,,,,,,,,,,,,
,,,,,,,,,69582dd7ba2234408d11808e,Spanish,13 or older,"no, only English or Spanish",no,2026-01-21_15h47.53.187,empathy_intonation_perc_control,2024.2.4,MacIntel,61.72839506,69582dd7ba2234408d11808e,69712dc693a3960bdb483245,69713b407a4ef58556fa6292,,,,,,,,,,,,,0,,,,,,,,,,,,,,,,,,,,,,,,,,,,,,,,,,,,,29,decar,,,,,524.8364,526.6744,1,0,1.3218,,0,52,52,28,1,REAL,FAKE,,,,,,,,,,,,,,,,,
,,,,,,,,,69582dd7ba2234408d11808e,Spanish,13 or older,"no, only English or Spanish",no,2026-01-21_15h47.53.187,empathy_intonation_perc_control,2024.2.4,MacIntel,61.72839506,69582dd7ba2234408d11808e,69712dc693a3960bdb483245,69713b407a4ef58556fa6292,,,,,,,,,,,,,1,,,,,,,,,,,,,,,,,,,,,,,,,,,,,,,,,,,,,60,matar,,,,,526.6752,528.1608,1,1,0.9669,,0,53,53,59,1,REAL,FAKE,,,,,,,,,,,,,,,,,
,,,,,,,,,69582dd7ba2234408d11808e,Spanish,13 or older,"no, only English or Spanish",no,2026-01-21_15h47.53.187,empathy_intonation_perc_control,2024.2.4,MacIntel,61.72839506,69582dd7ba2234408d11808e,69712dc693a3960bdb483245,69713b407a4ef58556fa6292,,,,,,,,,,,,,1,,,,,,,,,,,,,,,,,,,,,,,,,,,,,,,,,,,,,26,secuestro,,,,,528.1617,530.1333,1,1,1.4595,,0,54,54,25,1,REAL,FAKE,,,,,,,,,,,,,,,,,
,,,,,,,,,69582dd7ba2234408d11808e,Spanish,13 or older,"no, only English or Spanish",no,2026-01-21_15h47.53.187,empathy_intonation_perc_control,2024.2.4,MacIntel,61.72839506,69582dd7ba2234408d11808e,69712dc693a3960bdb483245,69713b407a4ef58556fa6292,,,,,,,,,,,,,0,,,,,,,,,,,,,,,,,,,,,,,,,,,,,,,,,,,,,47,cartinar,,,,,530.1342,531.7047,0,1,1.0591,,0,55,55,46,1,REAL,FAKE,,,,,,,,,,,,,,,,,
,,,,,,,,,69582dd7ba2234408d11808e,Spanish,13 or older,"no, only English or Spanish",no,2026-01-21_15h47.53.187,empathy_intonation_perc_control,2024.2.4,MacIntel,61.72839506,69582dd7ba2234408d11808e,69712dc693a3960bdb483245,69713b407a4ef58556fa6292,,,,,,,,,,,,,1,,,,,,,,,,,,,,,,,,,,,,,,,,,,,,,,,,,,,20,ávido,,,,,531.706,533.4926,0,0,1.2722,,0,56,56,19,1,REAL,FAKE,,,,,,,,,,,,,,,,,
,,,,,,,,,69582dd7ba2234408d11808e,Spanish,13 or older,"no, only English or Spanish",no,2026-01-21_15h47.53.187,empathy_intonation_perc_control,2024.2.4,MacIntel,61.72839506,69582dd7ba2234408d11808e,69712dc693a3960bdb483245,69713b407a4ef58556fa6292,,,,,,,,,,,,,1,,,,,,,,,,,,,,,,,,,,,,,,,,,,,,,,,,,,,71,polvoriento,,,,,533.4935,535.0134,0,0,1.0019,,0,57,57,70,1,REAL,FAKE,,,,,,,,,,,,,,,,,
,,,,,,,,,69582dd7ba2234408d11808e,Spanish,13 or older,"no, only English or Spanish",no,2026-01-21_15h47.53.187,empathy_intonation_perc_control,2024.2.4,MacIntel,61.72839506,69582dd7ba2234408d11808e,69712dc693a3960bdb483245,69713b407a4ef58556fa6292,,,,,,,,,,,,,0,,,,,,,,,,,,,,,,,,,,,,,,,,,,,,,,,,,,,16,abracer,,,,,535.0146,538.7066,1,0,3.1778,,0,58,58,15,1,REAL,FAKE,,,,,,,,,,,,,,,,,
,,,,,,,,,69582dd7ba2234408d11808e,Spanish,13 or older,"no, only English or Spanish",no,2026-01-21_15h47.53.187,empathy_intonation_perc_control,2024.2.4,MacIntel,61.72839506,69582dd7ba2234408d11808e,69712dc693a3960bdb483245,69713b407a4ef58556fa6292,,,,,,,,,,,,,1,,,,,,,,,,,,,,,,,,,,,,,,,,,,,,,,,,,,,65,bizcocho,,,,,538.7077,540.2267,0,0,1.0011,,0,59,59,64,1,REAL,FAKE,,,,,,,,,,,,,,,,,
,,,,,,,,,69582dd7ba2234408d11808e,Spanish,13 or older,"no, only English or Spanish",no,2026-01-21_15h47.53.187,empathy_intonation_perc_control,2024.2.4,MacIntel,61.72839506,69582dd7ba2234408d11808e,69712dc693a3960bdb483245,69713b407a4ef58556fa6292,,,,,,,,,,,,,1,,,,,,,,,,,,,,,,,,,,,,,,,,,,,,,,,,,,,36,loro,,,,,540.2274,542.8344,1,1,2.0864,,0,60,60,35,1,REAL,FAKE,,,,,,,,,,,,,,,,,
,,,,,,,,,69582dd7ba2234408d11808e,Spanish,13 or older,"no, only English or Spanish",no,2026-01-21_15h47.53.187,empathy_intonation_perc_control,2024.2.4,MacIntel,61.72839506,69582dd7ba2234408d11808e,69712dc693a3960bdb483245,69713b407a4ef58556fa6292,,,,,,,,,,,,,1,,,,,,,,,,,,,,,,,,,,,,,,,,,,,,,,,,,,,22,lacayo,,,,,542.8354,544.2042,0,0,0.8566,,0,61,61,21,1,REAL,FAKE,,,,,,,,,,,,,,,,,
,,,,,,,,,69582dd7ba2234408d11808e,Spanish,13 or older,"no, only English or Spanish",no,2026-01-21_15h47.53.187,empathy_intonation_perc_control,2024.2.4,MacIntel,61.72839506,69582dd7ba2234408d11808e,69712dc693a3960bdb483245,69713b407a4ef58556fa6292,,,,,,,,,,,,,1,,,,,,,,,,,,,,,,,,,,,,,,,,,,,,,,,,,,,46,martillo,,,,,544.2053,545.8924,0,0,1.1688,,0,62,62,45,1,REAL,FAKE,,,,,,,,,,,,,,,,,
,,,,,,,,,69582dd7ba2234408d11808e,Spanish,13 or older,"no, only English or Spanish",no,2026-01-21_15h47.53.187,empathy_intonation_perc_control,2024.2.4,MacIntel,61.72839506,69582dd7ba2234408d11808e,69712dc693a3960bdb483245,69713b407a4ef58556fa6292,,,,,,,,,,,,,0,,,,,,,,,,,,,,,,,,,,,,,,,,,,,,,,,,,,,70,temblo,,,,,545.8934,547.6472,0,1,1.2358,,0,63,63,69,1,REAL,FAKE,,,,,,,,,,,,,,,,,
,,,,,,,,,69582dd7ba2234408d11808e,Spanish,13 or older,"no, only English or Spanish",no,2026-01-21_15h47.53.187,empathy_intonation_perc_control,2024.2.4,MacIntel,61.72839506,69582dd7ba2234408d11808e,69712dc693a3960bdb483245,69713b407a4ef58556fa6292,,,,,,,,,,,,,1,,,,,,,,,,,,,,,,,,,,,,,,,,,,,,,,,,,,,25,bisagra,,,,,547.6482,549.1171,0,0,0.9578,,0,64,64,24,1,REAL,FAKE,,,,,,,,,,,,,,,,,
,,,,,,,,,69582dd7ba2234408d11808e,Spanish,13 or older,"no, only English or Spanish",no,2026-01-21_15h47.53.187,empathy_intonation_perc_control,2024.2.4,MacIntel,61.72839506,69582dd7ba2234408d11808e,69712dc693a3960bdb483245,69713b407a4ef58556fa6292,,,,,,,,,,,,,1,,,,,,,,,,,,,,,,,,,,,,,,,,,,,,,,,,,,,14,yunque,,,,,549.1179,550.3873,0,0,0.75,,0,65,65,13,1,REAL,FAKE,,,,,,,,,,,,,,,,,
,,,,,,,,,69582dd7ba2234408d11808e,Spanish,13 or older,"no, only English or Spanish",no,2026-01-21_15h47.53.187,empathy_intonation_perc_control,2024.2.4,MacIntel,61.72839506,69582dd7ba2234408d11808e,69712dc693a3960bdb483245,69713b407a4ef58556fa6292,,,,,,,,,,,,,1,,,,,,,,,,,,,,,,,,,,,,,,,,,,,,,,,,,,,62,flaco,,,,,550.3881,558.1414,0,0,7.2342,,0,66,66,61,1,REAL,FAKE,,,,,,,,,,,,,,,,,
,,,,,,,,,69582dd7ba2234408d11808e,Spanish,13 or older,"no, only English or Spanish",no,2026-01-21_15h47.53.187,empathy_intonation_perc_control,2024.2.4,MacIntel,61.72839506,69582dd7ba2234408d11808e,69712dc693a3960bdb483245,69713b407a4ef58556fa6292,,,,,,,,,,,,,1,,,,,,,,,,,,,,,,,,,,,,,,,,,,,,,,,,,,,9,hacha,,,,,558.1422,568.0515,0,0,9.3866,,0,67,67,8,1,REAL,FAKE,,,,,,,,,,,,,,,,,
,,,,,,,,,69582dd7ba2234408d11808e,Spanish,13 or older,"no, only English or Spanish",no,2026-01-21_15h47.53.187,empathy_intonation_perc_control,2024.2.4,MacIntel,61.72839506,69582dd7ba2234408d11808e,69712dc693a3960bdb483245,69713b407a4ef58556fa6292,,,,,,,,,,,,,1,,,,,,,,,,,,,,,,,,,,,,,,,,,,,,,,,,,,,75,yacer,,,,,568.0524,573.2153,0,0,4.6502,,0,68,68,74,1,REAL,FAKE,,,,,,,,,,,,,,,,,
,,,,,,,,,69582dd7ba2234408d11808e,Spanish,13 or older,"no, only English or Spanish",no,2026-01-21_15h47.53.187,empathy_intonation_perc_control,2024.2.4,MacIntel,61.72839506,69582dd7ba2234408d11808e,69712dc693a3960bdb483245,69713b407a4ef58556fa6292,,,,,,,,,,,,,1,,,,,,,,,,,,,,,,,,,,,,,,,,,,,,,,,,,,,59,besar,,,,,573.2162,575.605,1,1,1.8763,,0,69,69,58,1,REAL,FAKE,,,,,,,,,,,,,,,,,
,,,,,,,,,69582dd7ba2234408d11808e,Spanish,13 or older,"no, only English or Spanish",no,2026-01-21_15h47.53.187,empathy_intonation_perc_control,2024.2.4,MacIntel,61.72839506,69582dd7ba2234408d11808e,69712dc693a3960bdb483245,69713b407a4ef58556fa6292,,,,,,,,,,,,,1,,,,,,,,,,,,,,,,,,,,,,,,,,,,,,,,,,,,,91,click the 1 key.,,,,,575.606,577.51,1,1,1.385,,0,70,70,90,1,REAL,FAKE,,,,,,,,,,,,,,,,,
,,,,,,,,,69582dd7ba2234408d11808e,Spanish,13 or older,"no, only English or Spanish",no,2026-01-21_15h47.53.187,empathy_intonation_perc_control,2024.2.4,MacIntel,61.72839506,69582dd7ba2234408d11808e,69712dc693a3960bdb483245,69713b407a4ef58556fa6292,,,,,,,,,,,,,0,,,,,,,,,,,,,,,,,,,,,,,,,,,,,,,,,,,,,87,grodo,,,,,577.5108,579.0641,0,1,1.0328,,0,71,71,86,1,REAL,FAKE,,,,,,,,,,,,,,,,,
,,,,,,,,,69582dd7ba2234408d11808e,Spanish,13 or older,"no, only English or Spanish",no,2026-01-21_15h47.53.187,empathy_intonation_perc_control,2024.2.4,MacIntel,61.72839506,69582dd7ba2234408d11808e,69712dc693a3960bdb483245,69713b407a4ef58556fa6292,,,,,,,,,,,,,1,,,,,,,,,,,,,,,,,,,,,,,,,,,,,,,,,,,,,3,pulmones,,,,,579.0651,580.6851,0,0,1.1081,,0,72,72,2,1,REAL,FAKE,,,,,,,,,,,,,,,,,
,,,,,,,,,69582dd7ba2234408d11808e,Spanish,13 or older,"no, only English or Spanish",no,2026-01-21_15h47.53.187,empathy_intonation_perc_control,2024.2.4,MacIntel,61.72839506,69582dd7ba2234408d11808e,69712dc693a3960bdb483245,69713b407a4ef58556fa6292,,,,,,,,,,,,,1,,,,,,,,,,,,,,,,,,,,,,,,,,,,,,,,,,,,,52,camisa,,,,,580.6859,582.6407,1,1,1.4375,,0,73,73,51,1,REAL,FAKE,,,,,,,,,,,,,,,,,
,,,,,,,,,69582dd7ba2234408d11808e,Spanish,13 or older,"no, only English or Spanish",no,2026-01-21_15h47.53.187,empathy_intonation_perc_control,2024.2.4,MacIntel,61.72839506,69582dd7ba2234408d11808e,69712dc693a3960bdb483245,69713b407a4ef58556fa6292,,,,,,,,,,,,,1,,,,,,,,,,,,,,,,,,,,,,,,,,,,,,,,,,,,,64,orgulloso,,,,,582.6417,584.6953,0,0,1.536,,0,74,74,63,1,REAL,FAKE,,,,,,,,,,,,,,,,,
,,,,,,,,,69582dd7ba2234408d11808e,Spanish,13 or older,"no, only English or Spanish",no,2026-01-21_15h47.53.187,empathy_intonation_perc_control,2024.2.4,MacIntel,61.72839506,69582dd7ba2234408d11808e,69712dc693a3960bdb483245,69713b407a4ef58556fa6292,,,,,,,,,,,,,0,,,,,,,,,,,,,,,,,,,,,,,,,,,,,,,,,,,,,82,empirador,,,,,584.6959,603.228,0,1,18.0099,,0,75,75,81,1,REAL,FAKE,,,,,,,,,,,,,,,,,
,,,,,,,,,69582dd7ba2234408d11808e,Spanish,13 or older,"no, only English or Spanish",no,2026-01-21_15h47.53.187,empathy_intonation_perc_control,2024.2.4,MacIntel,61.72839506,69582dd7ba2234408d11808e,69712dc693a3960bdb483245,69713b407a4ef58556fa6292,,,,,,,,,,,,,0,,,,,,,,,,,,,,,,,,,,,,,,,,,,,,,,,,,,,84,escuto,,,,,603.2292,605.0167,0,1,1.2736,,0,76,76,83,1,REAL,FAKE,,,,,,,,,,,,,,,,,
,,,,,,,,,69582dd7ba2234408d11808e,Spanish,13 or older,"no, only English or Spanish",no,2026-01-21_15h47.53.187,empathy_intonation_perc_control,2024.2.4,MacIntel,61.72839506,69582dd7ba2234408d11808e,69712dc693a3960bdb483245,69713b407a4ef58556fa6292,,,,,,,,,,,,,1,,,,,,,,,,,,,,,,,,,,,,,,,,,,,,,,,,,,,11,cenefa,,,,,605.0176,606.3706,0,0,0.8325,,0,77,77,10,1,REAL,FAKE,,,,,,,,,,,,,,,,,
,,,,,,,,,69582dd7ba2234408d11808e,Spanish,13 or older,"no, only English or Spanish",no,2026-01-21_15h47.53.187,empathy_intonation_perc_control,2024.2.4,MacIntel,61.72839506,69582dd7ba2234408d11808e,69712dc693a3960bdb483245,69713b407a4ef58556fa6292,,,,,,,,,,,,,1,,,,,,,,,,,,,,,,,,,,,,,,,,,,,,,,,,,,,44,cuchara,,,,,606.3715,612.0186,0,0,5.1296,,0,78,78,43,1,REAL,FAKE,,,,,,,,,,,,,,,,,
,,,,,,,,,69582dd7ba2234408d11808e,Spanish,13 or older,"no, only English or Spanish",no,2026-01-21_15h47.53.187,empathy_intonation_perc_control,2024.2.4,MacIntel,61.72839506,69582dd7ba2234408d11808e,69712dc693a3960bdb483245,69713b407a4ef58556fa6292,,,,,,,,,,,,,1,,,,,,,,,,,,,,,,,,,,,,,,,,,,,,,,,,,,,86,barato,,,,,612.0195,614.4588,0,0,1.9168,,0,79,79,85,1,REAL,FAKE,,,,,,,,,,,,,,,,,
,,,,,,,,,69582dd7ba2234408d11808e,Spanish,13 or older,"no, only English or Spanish",no,2026-01-21_15h47.53.187,empathy_intonation_perc_control,2024.2.4,MacIntel,61.72839506,69582dd7ba2234408d11808e,69712dc693a3960bdb483245,69713b407a4ef58556fa6292,,,,,,,,,,,,,1,,,,,,,,,,,,,,,,,,,,,,,,,,,,,,,,,,,,,56,musgo,,,,,614.4597,615.8452,0,0,0.8647,,0,80,80,55,1,REAL,FAKE,,,,,,,,,,,,,,,,,
,,,,,,,,,69582dd7ba2234408d11808e,Spanish,13 or older,"no, only English or Spanish",no,2026-01-21_15h47.53.187,empathy_intonation_perc_control,2024.2.4,MacIntel,61.72839506,69582dd7ba2234408d11808e,69712dc693a3960bdb483245,69713b407a4ef58556fa6292,,,,,,,,,,,,,1,,,,,,,,,,,,,,,,,,,,,,,,,,,,,,,,,,,,,2,pellizcar,,,,,615.8462,617.4337,0,0,1.0718,,0,81,81,1,1,REAL,FAKE,,,,,,,,,,,,,,,,,
,,,,,,,,,69582dd7ba2234408d11808e,Spanish,13 or older,"no, only English or Spanish",no,2026-01-21_15h47.53.187,empathy_intonation_perc_control,2024.2.4,MacIntel,61.72839506,69582dd7ba2234408d11808e,69712dc693a3960bdb483245,69713b407a4ef58556fa6292,,,,,,,,,,,,,1,,,,,,,,,,,,,,,,,,,,,,,,,,,,,,,,,,,,,54,fomentar,,,,,617.4346,619.4221,1,1,1.4663,,0,82,82,53,1,REAL,FAKE,,,,,,,,,,,,,,,,,
,,,,,,,,,69582dd7ba2234408d11808e,Spanish,13 or older,"no, only English or Spanish",no,2026-01-21_15h47.53.187,empathy_intonation_perc_control,2024.2.4,MacIntel,61.72839506,69582dd7ba2234408d11808e,69712dc693a3960bdb483245,69713b407a4ef58556fa6292,,,,,,,,,,,,,1,,,,,,,,,,,,,,,,,,,,,,,,,,,,,,,,,,,,,73,hervidor,,,,,619.4231,620.8257,0,0,0.8902,,0,83,83,72,1,REAL,FAKE,,,,,,,,,,,,,,,,,
,,,,,,,,,69582dd7ba2234408d11808e,Spanish,13 or older,"no, only English or Spanish",no,2026-01-21_15h47.53.187,empathy_intonation_perc_control,2024.2.4,MacIntel,61.72839506,69582dd7ba2234408d11808e,69712dc693a3960bdb483245,69713b407a4ef58556fa6292,,,,,,,,,,,,,1,,,,,,,,,,,,,,,,,,,,,,,,,,,,,,,,,,,,,77,tiburón,,,,,620.8266,621.9954,0,0,0.6569,,0,84,84,76,1,REAL,FAKE,,,,,,,,,,,,,,,,,
,,,,,,,,,69582dd7ba2234408d11808e,Spanish,13 or older,"no, only English or Spanish",no,2026-01-21_15h47.53.187,empathy_intonation_perc_control,2024.2.4,MacIntel,61.72839506,69582dd7ba2234408d11808e,69712dc693a3960bdb483245,69713b407a4ef58556fa6292,,,,,,,,,,,,,1,,,,,,,,,,,,,,,,,,,,,,,,,,,,,,,,,,,,,48,ladrón,,,,,621.9963,623.2481,0,0,0.7334,,0,85,85,47,1,REAL,FAKE,,,,,,,,,,,,,,,,,
,,,,,,,,,69582dd7ba2234408d11808e,Spanish,13 or older,"no, only English or Spanish",no,2026-01-21_15h47.53.187,empathy_intonation_perc_control,2024.2.4,MacIntel,61.72839506,69582dd7ba2234408d11808e,69712dc693a3960bdb483245,69713b407a4ef58556fa6292,,,,,,,,,,,,,0,,,,,,,,,,,,,,,,,,,,,,,,,,,,,,,,,,,,,19,brecedad,,,,,623.2489,624.5518,0,1,0.7835,,0,86,86,18,1,REAL,FAKE,,,,,,,,,,,,,,,,,
,,,,,,,,,69582dd7ba2234408d11808e,Spanish,13 or older,"no, only English or Spanish",no,2026-01-21_15h47.53.187,empathy_intonation_perc_control,2024.2.4,MacIntel,61.72839506,69582dd7ba2234408d11808e,69712dc693a3960bdb483245,69713b407a4ef58556fa6292,,,,,,,,,,,,,1,,,,,,,,,,,,,,,,,,,,,,,,,,,,,,,,,,,,,15,regar,,,,,624.5527,626.0396,1,1,0.9668,,0,87,87,14,1,REAL,FAKE,,,,,,,,,,,,,,,,,
,,,,,,,,,69582dd7ba2234408d11808e,Spanish,13 or older,"no, only English or Spanish",no,2026-01-21_15h47.53.187,empathy_intonation_perc_control,2024.2.4,MacIntel,61.72839506,69582dd7ba2234408d11808e,69712dc693a3960bdb483245,69713b407a4ef58556fa6292,,,,,,,,,,,,,0,,,,,,,,,,,,,,,,,,,,,,,,,,,,,,,,,,,,,17,floroso,,,,,626.0403,627.3927,0,1,0.8408,,0,88,88,16,1,REAL,FAKE,,,,,,,,,,,,,,,,,
,,,,,,,,,69582dd7ba2234408d11808e,Spanish,13 or older,"no, only English or Spanish",no,2026-01-21_15h47.53.187,empathy_intonation_perc_control,2024.2.4,MacIntel,61.72839506,69582dd7ba2234408d11808e,69712dc693a3960bdb483245,69713b407a4ef58556fa6292,,,,,,,,,,,,,1,,,,,,,,,,,,,,,,,,,,,,,,,,,,,,,,,,,,,80,hormiga,,,,,627.3939,629.349,0,0,1.4445,,0,89,89,79,1,REAL,FAKE,,,,,,,,,,,,,,,,,
,,,,,,,,,69582dd7ba2234408d11808e,Spanish,13 or older,"no, only English or Spanish",no,2026-01-21_15h47.53.187,empathy_intonation_perc_control,2024.2.4,MacIntel,61.72839506,69582dd7ba2234408d11808e,69712dc693a3960bdb483245,69713b407a4ef58556fa6292,,,,,,,,,,,,,0,,,,,,,,,,,,,,,,,,,,,,,,,,,,,,,,,,,,,32,fatacidad,,,,,629.3503,630.9688,0,1,1.1069,,0,90,90,31,1,REAL,FAKE,,,,,,,,,,,,,,,,,
,,,,,,,,,69582dd7ba2234408d11808e,Spanish,13 or older,"no, only English or Spanish",no,2026-01-21_15h47.53.187,empathy_intonation_perc_control,2024.2.4,MacIntel,61.72839506,69582dd7ba2234408d11808e,69712dc693a3960bdb483245,69713b407a4ef58556fa6292,,,,,,,,,,,,,0,,,,,,,,,,,,,,,,,,,,,,,,,,,,,,,,,,,,,63,esposante,,,,,630.97,633.76,0,1,2.2698,,0,91,91,62,1,REAL,FAKE,,,,,,,,,,,,,,,,,
,,,,,,,,,69582dd7ba2234408d11808e,Spanish,13 or older,"no, only English or Spanish",no,2026-01-21_15h47.53.187,empathy_intonation_perc_control,2024.2.4,MacIntel,61.72839506,69582dd7ba2234408d11808e,69712dc693a3960bdb483245,69713b407a4ef58556fa6292,,,,,,,,,,,,,,,,,,,,,,,,,,,,,,,,,,,,,,,,,,,,,,,,,,,,,,,,,,,,,,,,,,,,,633.7604,641.3806,,,,,,,,,,,,,,,
,,,,,,,,,69582dd7ba2234408d11808e,Spanish,13 or older,"no, only English or Spanish",no,2026-01-21_15h47.53.187,empathy_intonation_perc_control,2024.2.4,MacIntel,61.72839506,69582dd7ba2234408d11808e,69712dc693a3960bdb483245,69713b407a4ef58556fa6292,,,,,,,,,,,,,,,,,,,,,,,,,,,1,,,,,,,,,,,,,,,,,,,,,,,,,,,,,,,,,,,,,,,,,,,,641.3933,648.5332,slightly agree,0,0,0,0,1,I can easily tell if someone else wants to enter a conversation.,1,0,1,0,,
,,,,,,,,,69582dd7ba2234408d11808e,Spanish,13 or older,"no, only English or Spanish",no,2026-01-21_15h47.53.187,empathy_intonation_perc_control,2024.2.4,MacIntel,61.72839506,69582dd7ba2234408d11808e,69712dc693a3960bdb483245,69713b407a4ef58556fa6292,,,,,,,,,,,,,,,,,,,,,,,,,,,2,,,,,,,,,,,,,,,,,,,,,,,,,,,,,,,,,,,,,,,,,,,,648.5342,651.2565,slightly disagree,0,1,1,1,1,I prefer animals to humans.,0,1,0,0,,
,,,,,,,,,69582dd7ba2234408d11808e,Spanish,13 or older,"no, only English or Spanish",no,2026-01-21_15h47.53.187,empathy_intonation_perc_control,2024.2.4,MacIntel,61.72839506,69582dd7ba2234408d11808e,69712dc693a3960bdb483245,69713b407a4ef58556fa6292,,,,,,,,,,,,,,,,,,,,,,,,,,,3,,,,,,,,,,,,,,,,,,,,,,,,,,,,,,,,,,,,,,,,,,,,651.2582,656.3057,slightly agree,0,2,2,2,1,I try to keep up with the current trends and fashions.,0,1,0,0,,
,,,,,,,,,69582dd7ba2234408d11808e,Spanish,13 or older,"no, only English or Spanish",no,2026-01-21_15h47.53.187,empathy_intonation_perc_control,2024.2.4,MacIntel,61.72839506,69582dd7ba2234408d11808e,69712dc693a3960bdb483245,69713b407a4ef58556fa6292,,,,,,,,,,,,,,,,,,,,,,,,,,,4,,,,,,,,,,,,,,,,,,,,,,,,,,,,,,,,,,,,,,,,,,,,656.3078,671.5943,slightly agree,0,3,3,3,1,"I find it difficult to explain to others things that I understand easily,   when they don't understand it first time.",1,0,0,1,,
,,,,,,,,,69582dd7ba2234408d11808e,Spanish,13 or older,"no, only English or Spanish",no,2026-01-21_15h47.53.187,empathy_intonation_perc_control,2024.2.4,MacIntel,61.72839506,69582dd7ba2234408d11808e,69712dc693a3960bdb483245,69713b407a4ef58556fa6292,,,,,,,,,,,,,,,,,,,,,,,,,,,5,,,,,,,,,,,,,,,,,,,,,,,,,,,,,,,,,,,,,,,,,,,,671.5957,673.3156,slightly agree,0,4,4,4,1,I dream most nights.,0,1,0,0,,
,,,,,,,,,69582dd7ba2234408d11808e,Spanish,13 or older,"no, only English or Spanish",no,2026-01-21_15h47.53.187,empathy_intonation_perc_control,2024.2.4,MacIntel,61.72839506,69582dd7ba2234408d11808e,69712dc693a3960bdb483245,69713b407a4ef58556fa6292,,,,,,,,,,,,,,,,,,,,,,,,,,,6,,,,,,,,,,,,,,,,,,,,,,,,,,,,,,,,,,,,,,,,,,,,673.3172,675.0707,slightly agree,0,5,5,5,1,I really enjoy caring for other people.,1,0,1,0,,
,,,,,,,,,69582dd7ba2234408d11808e,Spanish,13 or older,"no, only English or Spanish",no,2026-01-21_15h47.53.187,empathy_intonation_perc_control,2024.2.4,MacIntel,61.72839506,69582dd7ba2234408d11808e,69712dc693a3960bdb483245,69713b407a4ef58556fa6292,,,,,,,,,,,,,,,,,,,,,,,,,,,7,,,,,,,,,,,,,,,,,,,,,,,,,,,,,,,,,,,,,,,,,,,,675.0729,678.1788,slightly agree,0,6,6,6,1,I try to solve my own problems rather than discussing them with others.,0,1,0,0,,
,,,,,,,,,69582dd7ba2234408d11808e,Spanish,13 or older,"no, only English or Spanish",no,2026-01-21_15h47.53.187,empathy_intonation_perc_control,2024.2.4,MacIntel,61.72839506,69582dd7ba2234408d11808e,69712dc693a3960bdb483245,69713b407a4ef58556fa6292,,,,,,,,,,,,,,,,,,,,,,,,,,,8,,,,,,,,,,,,,,,,,,,,,,,,,,,,,,,,,,,,,,,,,,,,678.1804,681.3207,slightly agree,0,7,7,7,1,I find it hard to know what to do in a social situation.,1,0,0,1,,
,,,,,,,,,69582dd7ba2234408d11808e,Spanish,13 or older,"no, only English or Spanish",no,2026-01-21_15h47.53.187,empathy_intonation_perc_control,2024.2.4,MacIntel,61.72839506,69582dd7ba2234408d11808e,69712dc693a3960bdb483245,69713b407a4ef58556fa6292,,,,,,,,,,,,,,,,,,,,,,,,,,,9,,,,,,,,,,,,,,,,,,,,,,,,,,,,,,,,,,,,,,,,,,,,681.3223,686.3343,slightly disagree,0,8,8,8,1,I am at my best first thing in the morning.,0,1,0,0,,
,,,,,,,,,69582dd7ba2234408d11808e,Spanish,13 or older,"no, only English or Spanish",no,2026-01-21_15h47.53.187,empathy_intonation_perc_control,2024.2.4,MacIntel,61.72839506,69582dd7ba2234408d11808e,69712dc693a3960bdb483245,69713b407a4ef58556fa6292,,,,,,,,,,,,,,,,,,,,,,,,,,,10,,,,,,,,,,,,,,,,,,,,,,,,,,,,,,,,,,,,,,,,,,,,686.3359,691.9491,slightly disagree,0,9,9,9,1,People often tell me that I went too far in driving my point home in a discussion.,1,0,0,1,,
,,,,,,,,,69582dd7ba2234408d11808e,Spanish,13 or older,"no, only English or Spanish",no,2026-01-21_15h47.53.187,empathy_intonation_perc_control,2024.2.4,MacIntel,61.72839506,69582dd7ba2234408d11808e,69712dc693a3960bdb483245,69713b407a4ef58556fa6292,,,,,,,,,,,,,,,,,,,,,,,,,,,11,,,,,,,,,,,,,,,,,,,,,,,,,,,,,,,,,,,,,,,,,,,,691.9506,695.4081,slightly agree,0,10,10,10,1,It doesn't bother me too much if I am late meeting a friend.,1,0,0,1,,
,,,,,,,,,69582dd7ba2234408d11808e,Spanish,13 or older,"no, only English or Spanish",no,2026-01-21_15h47.53.187,empathy_intonation_perc_control,2024.2.4,MacIntel,61.72839506,69582dd7ba2234408d11808e,69712dc693a3960bdb483245,69713b407a4ef58556fa6292,,,,,,,,,,,,,,,,,,,,,,,,,,,12,,,,,,,,,,,,,,,,,,,,,,,,,,,,,,,,,,,,,,,,,,,,695.4098,701.4569,strongly disagree,0,11,11,11,1,"Friendships and relationships are just too difficult, so I tend not to 
  bother with them.",1,0,0,1,,
,,,,,,,,,69582dd7ba2234408d11808e,Spanish,13 or older,"no, only English or Spanish",no,2026-01-21_15h47.53.187,empathy_intonation_perc_control,2024.2.4,MacIntel,61.72839506,69582dd7ba2234408d11808e,69712dc693a3960bdb483245,69713b407a4ef58556fa6292,,,,,,,,,,,,,,,,,,,,,,,,,,,13,,,,,,,,,,,,,,,,,,,,,,,,,,,,,,,,,,,,,,,,,,,,701.4585,704.5152,slightly disagree,0,12,12,12,1,"I would never break a law, no matter how minor.",0,1,0,0,,
,,,,,,,,,69582dd7ba2234408d11808e,Spanish,13 or older,"no, only English or Spanish",no,2026-01-21_15h47.53.187,empathy_intonation_perc_control,2024.2.4,MacIntel,61.72839506,69582dd7ba2234408d11808e,69712dc693a3960bdb483245,69713b407a4ef58556fa6292,,,,,,,,,,,,,,,,,,,,,,,,,,,14,,,,,,,,,,,,,,,,,,,,,,,,,,,,,,,,,,,,,,,,,,,,704.5172,711.1331,slightly agree,0,13,13,13,1,I often find it difficult to judge if something is rude or polite.,1,0,0,1,,
,,,,,,,,,69582dd7ba2234408d11808e,Spanish,13 or older,"no, only English or Spanish",no,2026-01-21_15h47.53.187,empathy_intonation_perc_control,2024.2.4,MacIntel,61.72839506,69582dd7ba2234408d11808e,69712dc693a3960bdb483245,69713b407a4ef58556fa6292,,,,,,,,,,,,,,,,,,,,,,,,,,,15,,,,,,,,,,,,,,,,,,,,,,,,,,,,,,,,,,,,,,,,,,,,711.1347,715.4955,slightly agree,0,14,14,14,1,"In a conversation, I tend to focus on my own thoughts rather than on what 
  my listener might be thinking.",1,0,0,1,,
,,,,,,,,,69582dd7ba2234408d11808e,Spanish,13 or older,"no, only English or Spanish",no,2026-01-21_15h47.53.187,empathy_intonation_perc_control,2024.2.4,MacIntel,61.72839506,69582dd7ba2234408d11808e,69712dc693a3960bdb483245,69713b407a4ef58556fa6292,,,,,,,,,,,,,,,,,,,,,,,,,,,16,,,,,,,,,,,,,,,,,,,,,,,,,,,,,,,,,,,,,,,,,,,,715.4967,719.7393,slightly disagree,0,15,15,15,1,I prefer practical jokes to verbal humor.,0,1,0,0,,
,,,,,,,,,69582dd7ba2234408d11808e,Spanish,13 or older,"no, only English or Spanish",no,2026-01-21_15h47.53.187,empathy_intonation_perc_control,2024.2.4,MacIntel,61.72839506,69582dd7ba2234408d11808e,69712dc693a3960bdb483245,69713b407a4ef58556fa6292,,,,,,,,,,,,,,,,,,,,,,,,,,,17,,,,,,,,,,,,,,,,,,,,,,,,,,,,,,,,,,,,,,,,,,,,719.7403,725.8226,slightly disagree,0,16,16,16,1,I live life for today rather than the future.,0,1,0,0,,
,,,,,,,,,69582dd7ba2234408d11808e,Spanish,13 or older,"no, only English or Spanish",no,2026-01-21_15h47.53.187,empathy_intonation_perc_control,2024.2.4,MacIntel,61.72839506,69582dd7ba2234408d11808e,69712dc693a3960bdb483245,69713b407a4ef58556fa6292,,,,,,,,,,,,,,,,,,,,,,,,,,,18,,,,,,,,,,,,,,,,,,,,,,,,,,,,,,,,,,,,,,,,,,,,725.8238,729.9334,strongly disagree,0,17,17,17,1,"When I was a child, I enjoyed cutting up worms to see what would happen.",1,0,0,1,,
,,,,,,,,,69582dd7ba2234408d11808e,Spanish,13 or older,"no, only English or Spanish",no,2026-01-21_15h47.53.187,empathy_intonation_perc_control,2024.2.4,MacIntel,61.72839506,69582dd7ba2234408d11808e,69712dc693a3960bdb483245,69713b407a4ef58556fa6292,,,,,,,,,,,,,,,,,,,,,,,,,,,19,,,,,,,,,,,,,,,,,,,,,,,,,,,,,,,,,,,,,,,,,,,,729.9349,734.3124,slightly agree,0,18,18,18,1,I can pick up quickly if someone says one thing but means another.,1,0,1,0,,
,,,,,,,,,69582dd7ba2234408d11808e,Spanish,13 or older,"no, only English or Spanish",no,2026-01-21_15h47.53.187,empathy_intonation_perc_control,2024.2.4,MacIntel,61.72839506,69582dd7ba2234408d11808e,69712dc693a3960bdb483245,69713b407a4ef58556fa6292,,,,,,,,,,,,,,,,,,,,,,,,,,,20,,,,,,,,,,,,,,,,,,,,,,,,,,,,,,,,,,,,,,,,,,,,734.3138,737.6871,strongly agree,0,19,19,19,1,I tend to have very strong opinions about morality.,0,1,0,0,,
,,,,,,,,,69582dd7ba2234408d11808e,Spanish,13 or older,"no, only English or Spanish",no,2026-01-21_15h47.53.187,empathy_intonation_perc_control,2024.2.4,MacIntel,61.72839506,69582dd7ba2234408d11808e,69712dc693a3960bdb483245,69713b407a4ef58556fa6292,,,,,,,,,,,,,,,,,,,,,,,,,,,21,,,,,,,,,,,,,,,,,,,,,,,,,,,,,,,,,,,,,,,,,,,,737.6886,741.9655,slightly disagree,0,20,20,20,1,It is hard for me to see why some things upset people so much.,1,0,0,1,,
,,,,,,,,,69582dd7ba2234408d11808e,Spanish,13 or older,"no, only English or Spanish",no,2026-01-21_15h47.53.187,empathy_intonation_perc_control,2024.2.4,MacIntel,61.72839506,69582dd7ba2234408d11808e,69712dc693a3960bdb483245,69713b407a4ef58556fa6292,,,,,,,,,,,,,,,,,,,,,,,,,,,22,,,,,,,,,,,,,,,,,,,,,,,,,,,,,,,,,,,,,,,,,,,,741.9669,745.5254,slightly agree,0,21,21,21,1,I find it easy to put myself in somebody else's shoes.,1,0,1,0,,
,,,,,,,,,69582dd7ba2234408d11808e,Spanish,13 or older,"no, only English or Spanish",no,2026-01-21_15h47.53.187,empathy_intonation_perc_control,2024.2.4,MacIntel,61.72839506,69582dd7ba2234408d11808e,69712dc693a3960bdb483245,69713b407a4ef58556fa6292,,,,,,,,,,,,,,,,,,,,,,,,,,,23,,,,,,,,,,,,,,,,,,,,,,,,,,,,,,,,,,,,,,,,,,,,745.527,749.136,strongly agree,0,22,22,22,1,I think that good manners are the most important thing a parent can teach their child.,0,1,0,0,,
