instructions_2afc.started,instructions_2afc.stopped,instructions_2afc_loop.thisRepN,instructions_2afc_loop.thisTrialN,instructions_2afc_loop.thisN,instructions_2afc_loop.thisIndex,instructions_2afc_loop.ran,instructions_text,continue_text,participant_id,"What variety of Spanish are you most familiar with? (e.g., Peruvian, Spanish, Mexican)",At what age did you begin learning Spanish?,Are you proficient in any languages other than English/Spanish?,"Are you familiar with Caribbean (e.g., Caribbean, Puerto Rican) or Galician Spanish?",date,expName,psychopyVersion,OS,frameRate,id,study_id,session,practice_2afc.started,practice_2afc.stopped,key_resp_2afc_practice.keys,key_resp_2afc_practice.corr,key_resp_2afc_practice.rt,key_resp_2afc_practice.duration,trials_2afc_practice_loop.thisRepN,trials_2afc_practice_loop.thisTrialN,trials_2afc_practice_loop.thisN,trials_2afc_practice_loop.thisIndex,trials_2afc_practice_loop.ran,path,correct_response,check_2afc.started,check_2afc.stopped,trial_2afc.started,trial_2afc.stopped,key_resp_2afc_trial.keys,key_resp_2afc_trial.corr,key_resp_2afc_trial.rt,key_resp_2afc_trial.duration,trials_2afc_loop.thisRepN,trials_2afc_loop.thisTrialN,trials_2afc_loop.thisN,trials_2afc_loop.thisIndex,trials_2afc_loop.ran,item_num,target,variety,instructions_lextale.started,instructions_lextale.stopped,instructions_lextale_loop.thisRepN,instructions_lextale_loop.thisTrialN,instructions_lextale_loop.thisN,instructions_lextale_loop.thisIndex,instructions_lextale_loop.ran,practice_lextale.started,practice_lextale.stopped,key_resp_lextale_practice.keys,key_resp_lextale_practice.corr,key_resp_lextale_practice.rt,key_resp_lextale_practice.duration,practice_feedback_lextale.started,practice_feedback_lextale.stopped,trials_lextale_practice_loop.thisRepN,trials_lextale_practice_loop.thisTrialN,trials_lextale_practice_loop.thisN,trials_lextale_practice_loop.thisIndex,trials_lextale_practice_loop.ran,stim,word,prac_button_real,prac_button_false,check_lextale.started,check_lextale.stopped,trial_lextale.started,trial_lextale.stopped,key_resp_lextale_trial.keys,key_resp_lextale_trial.corr,key_resp_lextale_trial.rt,key_resp_lextale_trial.duration,trials_lextale_loop.thisRepN,trials_lextale_loop.thisTrialN,trials_lextale_loop.thisN,trials_lextale_loop.thisIndex,trials_lextale_loop.ran,button_real,button_false,instructions_eq.started,instructions_eq.stopped,trial_eq.started,trial_eq.stopped,slider_eq_trial.response,trials_eq_loop.thisRepN,trials_eq_loop.thisTrialN,trials_eq_loop.thisN,trials_eq_loop.thisIndex,trials_eq_loop.ran,item,is_test_item,is_distractor,is_agree_score,is_disagree_score,end_exp.started,end_exp.stopped
0.0467,10.0284,0,0,0,0,1,"In the following task you are going to hear a series of utterances. 

  You will decide if the utterances sound like questions or not using your keyboard.", (press the spacebar to continue),695fc9e5ea354ea6bd7c7ba8,Spanish,13 or older,"no, only English or Spanish",click here to respond,2026-01-21_21h14.08.606,empathy_intonation_perc_control,2024.2.4,Linux x86_64,60.24096386,695fc9e5ea354ea6bd7c7ba8,69712dc693a3960bdb483245,697184ecb70e30e46047cf6b,,,,,,,,,,,,,,,,,,,,,,,,,,,,,,,,,,,,,,,,,,,,,,,,,,,,,,,,,,,,,,,,,,,,,,,,,,,,,,,,,,,,,
10.0341,29.7638,0,1,1,1,1,"If you believe the utterance is a question, type '1' (for 'yes') and if you do not 
  believe it is a question type '0' (for 'no').

  Let's practice a bit...", (press the spacebar to continue),695fc9e5ea354ea6bd7c7ba8,Spanish,13 or older,"no, only English or Spanish",click here to respond,2026-01-21_21h14.08.606,empathy_intonation_perc_control,2024.2.4,Linux x86_64,60.24096386,695fc9e5ea354ea6bd7c7ba8,69712dc693a3960bdb483245,697184ecb70e30e46047cf6b,,,,,,,,,,,,,,,,,,,,,,,,,,,,,,,,,,,,,,,,,,,,,,,,,,,,,,,,,,,,,,,,,,,,,,,,,,,,,,,,,,,,,
,,,,,,,,,695fc9e5ea354ea6bd7c7ba8,Spanish,13 or older,"no, only English or Spanish",click here to respond,2026-01-21_21h14.08.606,empathy_intonation_perc_control,2024.2.4,Linux x86_64,60.24096386,695fc9e5ea354ea6bd7c7ba8,69712dc693a3960bdb483245,697184ecb70e30e46047cf6b,29.7862,35.2477,0,1,4.9344,,0,0,0,4,1,./stim/wavs/cuban_statement_filler_Cocinabas-por-la-noche.wav,0,,,,,,,,,,,,,,,,,,,,,,,,,,,,,,,,,,,,,,,,,,,,,,,,,,,,,,,,,,,,,,,,,,,,,,,,
,,,,,,,,,695fc9e5ea354ea6bd7c7ba8,Spanish,13 or older,"no, only English or Spanish",click here to respond,2026-01-21_21h14.08.606,empathy_intonation_perc_control,2024.2.4,Linux x86_64,60.24096386,695fc9e5ea354ea6bd7c7ba8,69712dc693a3960bdb483245,697184ecb70e30e46047cf6b,35.2501,47.195,0,0,11.4165,,0,1,1,2,1,./stim/wavs/chilean_question_filler_Mi-padre-cantaba-bien.wav,1,,,,,,,,,,,,,,,,,,,,,,,,,,,,,,,,,,,,,,,,,,,,,,,,,,,,,,,,,,,,,,,,,,,,,,,,
,,,,,,,,,695fc9e5ea354ea6bd7c7ba8,Spanish,13 or older,"no, only English or Spanish",click here to respond,2026-01-21_21h14.08.606,empathy_intonation_perc_control,2024.2.4,Linux x86_64,60.24096386,695fc9e5ea354ea6bd7c7ba8,69712dc693a3960bdb483245,697184ecb70e30e46047cf6b,47.1964,62.2126,0,0,14.4775,,0,2,2,3,1,./stim/wavs/mexican_question_filler_Felipe-no-tiene-contrasena.wav,1,,,,,,,,,,,,,,,,,,,,,,,,,,,,,,,,,,,,,,,,,,,,,,,,,,,,,,,,,,,,,,,,,,,,,,,,
,,,,,,,,,695fc9e5ea354ea6bd7c7ba8,Spanish,13 or older,"no, only English or Spanish",click here to respond,2026-01-21_21h14.08.606,empathy_intonation_perc_control,2024.2.4,Linux x86_64,60.24096386,695fc9e5ea354ea6bd7c7ba8,69712dc693a3960bdb483245,697184ecb70e30e46047cf6b,62.2139,65.7633,1,1,3.0198,,0,3,3,1,1,./stim/wavs/argentine_question_filler_Mi-vecino-habla-mucho.wav,1,,,,,,,,,,,,,,,,,,,,,,,,,,,,,,,,,,,,,,,,,,,,,,,,,,,,,,,,,,,,,,,,,,,,,,,,
,,,,,,,,,695fc9e5ea354ea6bd7c7ba8,Spanish,13 or older,"no, only English or Spanish",click here to respond,2026-01-21_21h14.08.606,empathy_intonation_perc_control,2024.2.4,Linux x86_64,60.24096386,695fc9e5ea354ea6bd7c7ba8,69712dc693a3960bdb483245,697184ecb70e30e46047cf6b,65.7669,73.2636,0,1,6.9676,,0,4,4,5,1,./stim/wavs/andalusian_statement_filler_Alberto-nunca-se-afeita.wav,0,,,,,,,,,,,,,,,,,,,,,,,,,,,,,,,,,,,,,,,,,,,,,,,,,,,,,,,,,,,,,,,,,,,,,,,,
,,,,,,,,,695fc9e5ea354ea6bd7c7ba8,Spanish,13 or older,"no, only English or Spanish",click here to respond,2026-01-21_21h14.08.606,empathy_intonation_perc_control,2024.2.4,Linux x86_64,60.24096386,695fc9e5ea354ea6bd7c7ba8,69712dc693a3960bdb483245,697184ecb70e30e46047cf6b,73.2653,76.7648,0,1,2.9696,,0,5,5,7,1,./stim/wavs/puertorican_statement_filler_La-nina-pinta-con-su-amiga.wav,0,,,,,,,,,,,,,,,,,,,,,,,,,,,,,,,,,,,,,,,,,,,,,,,,,,,,,,,,,,,,,,,,,,,,,,,,
,,,,,,,,,695fc9e5ea354ea6bd7c7ba8,Spanish,13 or older,"no, only English or Spanish",click here to respond,2026-01-21_21h14.08.606,empathy_intonation_perc_control,2024.2.4,Linux x86_64,60.24096386,695fc9e5ea354ea6bd7c7ba8,69712dc693a3960bdb483245,697184ecb70e30e46047cf6b,76.767,80.2656,1,1,2.9713,,0,6,6,0,1,./stim/wavs/castilian_question_filler_Mi-esposo-conoce-al-chico.wav,1,,,,,,,,,,,,,,,,,,,,,,,,,,,,,,,,,,,,,,,,,,,,,,,,,,,,,,,,,,,,,,,,,,,,,,,,
,,,,,,,,,695fc9e5ea354ea6bd7c7ba8,Spanish,13 or older,"no, only English or Spanish",click here to respond,2026-01-21_21h14.08.606,empathy_intonation_perc_control,2024.2.4,Linux x86_64,60.24096386,695fc9e5ea354ea6bd7c7ba8,69712dc693a3960bdb483245,697184ecb70e30e46047cf6b,80.267,85.3888,0,1,4.5935,,0,7,7,6,1,./stim/wavs/peruvian_statement_filler_El-nino-habla-con-su-madre.wav,0,,,,,,,,,,,,,,,,,,,,,,,,,,,,,,,,,,,,,,,,,,,,,,,,,,,,,,,,,,,,,,,,,,,,,,,,
,,,,,,,,,695fc9e5ea354ea6bd7c7ba8,Spanish,13 or older,"no, only English or Spanish",click here to respond,2026-01-21_21h14.08.606,empathy_intonation_perc_control,2024.2.4,Linux x86_64,60.24096386,695fc9e5ea354ea6bd7c7ba8,69712dc693a3960bdb483245,697184ecb70e30e46047cf6b,,,,,,,,,,,,,,85.3897,92.4647,,,,,,,,,,,,,,,,,,,,,,,,,,,,,,,,,,,,,,,,,,,,,,,,,,,,,,,,,,,,,,,,,,,,,,
,,,,,,,,,695fc9e5ea354ea6bd7c7ba8,Spanish,13 or older,"no, only English or Spanish",click here to respond,2026-01-21_21h14.08.606,empathy_intonation_perc_control,2024.2.4,Linux x86_64,60.24096386,695fc9e5ea354ea6bd7c7ba8,69712dc693a3960bdb483245,697184ecb70e30e46047cf6b,,,,,,,,,,,,./stim/wavs/puertorican_match_interrogative-total-yn_Ana-lleva-el-abrigo.wav,1,,,92.4877,99.1004,1,1,6.0885,,0,0,0,18,1,19,1,puertorican,,,,,,,,,,,,,,,,,,,,,,,,,,,,,,,,,,,,,,,,,,,,,,,,,,,,,,,,
,,,,,,,,,695fc9e5ea354ea6bd7c7ba8,Spanish,13 or older,"no, only English or Spanish",click here to respond,2026-01-21_21h14.08.606,empathy_intonation_perc_control,2024.2.4,Linux x86_64,60.24096386,695fc9e5ea354ea6bd7c7ba8,69712dc693a3960bdb483245,697184ecb70e30e46047cf6b,,,,,,,,,,,,./stim/wavs/cuban_match_interrogative-total-yn_Daniel-iba-a-Bolivia.wav,1,,,99.1036,107.4818,0,0,7.8523,,0,1,1,7,1,8,1,cuban,,,,,,,,,,,,,,,,,,,,,,,,,,,,,,,,,,,,,,,,,,,,,,,,,,,,,,,,
,,,,,,,,,695fc9e5ea354ea6bd7c7ba8,Spanish,13 or older,"no, only English or Spanish",click here to respond,2026-01-21_21h14.08.606,empathy_intonation_perc_control,2024.2.4,Linux x86_64,60.24096386,695fc9e5ea354ea6bd7c7ba8,69712dc693a3960bdb483245,697184ecb70e30e46047cf6b,,,,,,,,,,,,./stim/wavs/puertorican_match_declarative-broad-focus_Ana-lleva-el-abrigo.wav,0,,,107.4831,110.6491,0,1,2.6386,,0,2,2,62,1,63,0,puertorican,,,,,,,,,,,,,,,,,,,,,,,,,,,,,,,,,,,,,,,,,,,,,,,,,,,,,,,,
,,,,,,,,,695fc9e5ea354ea6bd7c7ba8,Spanish,13 or older,"no, only English or Spanish",click here to respond,2026-01-21_21h14.08.606,empathy_intonation_perc_control,2024.2.4,Linux x86_64,60.24096386,695fc9e5ea354ea6bd7c7ba8,69712dc693a3960bdb483245,697184ecb70e30e46047cf6b,,,,,,,,,,,,./stim/wavs/mexican_match_interrogative-total-yn_Ana-lleva-el-abrigo.wav,1,,,110.6504,114.2175,1,1,3.0349,,0,3,3,12,1,13,0,mexican,,,,,,,,,,,,,,,,,,,,,,,,,,,,,,,,,,,,,,,,,,,,,,,,,,,,,,,,
,,,,,,,,,695fc9e5ea354ea6bd7c7ba8,Spanish,13 or older,"no, only English or Spanish",click here to respond,2026-01-21_21h14.08.606,empathy_intonation_perc_control,2024.2.4,Linux x86_64,60.24096386,695fc9e5ea354ea6bd7c7ba8,69712dc693a3960bdb483245,697184ecb70e30e46047cf6b,,,,,,,,,,,,./stim/wavs/cuban_match_interrogative-total-yn_Maria-bebe-el-vino.wav,1,,,114.2187,117.0349,0,0,2.2884,,0,4,4,9,1,10,1,cuban,,,,,,,,,,,,,,,,,,,,,,,,,,,,,,,,,,,,,,,,,,,,,,,,,,,,,,,,
,,,,,,,,,695fc9e5ea354ea6bd7c7ba8,Spanish,13 or older,"no, only English or Spanish",click here to respond,2026-01-21_21h14.08.606,empathy_intonation_perc_control,2024.2.4,Linux x86_64,60.24096386,695fc9e5ea354ea6bd7c7ba8,69712dc693a3960bdb483245,697184ecb70e30e46047cf6b,,,,,,,,,,,,./stim/wavs/cuban_mismatch_declarative-broad-focus_Mi-tia-odia-la-lluvia.wav,0,,,117.0363,119.6501,0,1,2.0912,,0,5,5,77,1,78,0,cuban,,,,,,,,,,,,,,,,,,,,,,,,,,,,,,,,,,,,,,,,,,,,,,,,,,,,,,,,
,,,,,,,,,695fc9e5ea354ea6bd7c7ba8,Spanish,13 or older,"no, only English or Spanish",click here to respond,2026-01-21_21h14.08.606,empathy_intonation_perc_control,2024.2.4,Linux x86_64,60.24096386,695fc9e5ea354ea6bd7c7ba8,69712dc693a3960bdb483245,697184ecb70e30e46047cf6b,,,,,,,,,,,,./stim/wavs/puertorican_mismatch_interrogative-total-yn_La-nina-lava-el-plato.wav,1,,,119.6554,122.1362,0,0,1.9555,,0,6,6,42,1,43,1,puertorican,,,,,,,,,,,,,,,,,,,,,,,,,,,,,,,,,,,,,,,,,,,,,,,,,,,,,,,,
,,,,,,,,,695fc9e5ea354ea6bd7c7ba8,Spanish,13 or older,"no, only English or Spanish",click here to respond,2026-01-21_21h14.08.606,empathy_intonation_perc_control,2024.2.4,Linux x86_64,60.24096386,695fc9e5ea354ea6bd7c7ba8,69712dc693a3960bdb483245,697184ecb70e30e46047cf6b,,,,,,,,,,,,./stim/wavs/cuban_mismatch_declarative-broad-focus_La-nina-lava-el-plato.wav,0,,,122.138,125.3347,0,1,2.6689,,0,7,7,75,1,76,0,cuban,,,,,,,,,,,,,,,,,,,,,,,,,,,,,,,,,,,,,,,,,,,,,,,,,,,,,,,,
,,,,,,,,,695fc9e5ea354ea6bd7c7ba8,Spanish,13 or older,"no, only English or Spanish",click here to respond,2026-01-21_21h14.08.606,empathy_intonation_perc_control,2024.2.4,Linux x86_64,60.24096386,695fc9e5ea354ea6bd7c7ba8,69712dc693a3960bdb483245,697184ecb70e30e46047cf6b,,,,,,,,,,,,./stim/wavs/puertorican_match_interrogative-total-yn_Daniel-iba-a-Bolivia.wav,1,,,125.3367,128.117,0,0,2.2518,,0,8,8,19,1,20,1,puertorican,,,,,,,,,,,,,,,,,,,,,,,,,,,,,,,,,,,,,,,,,,,,,,,,,,,,,,,,
,,,,,,,,,695fc9e5ea354ea6bd7c7ba8,Spanish,13 or older,"no, only English or Spanish",click here to respond,2026-01-21_21h14.08.606,empathy_intonation_perc_control,2024.2.4,Linux x86_64,60.24096386,695fc9e5ea354ea6bd7c7ba8,69712dc693a3960bdb483245,697184ecb70e30e46047cf6b,,,,,,,,,,,,./stim/wavs/cuban_match_interrogative-total-yn_Mariano-habla-del-tiempo.wav,1,,,128.118,131.4511,0,0,2.7954,,0,9,9,10,1,11,1,cuban,,,,,,,,,,,,,,,,,,,,,,,,,,,,,,,,,,,,,,,,,,,,,,,,,,,,,,,,
,,,,,,,,,695fc9e5ea354ea6bd7c7ba8,Spanish,13 or older,"no, only English or Spanish",click here to respond,2026-01-21_21h14.08.606,empathy_intonation_perc_control,2024.2.4,Linux x86_64,60.24096386,695fc9e5ea354ea6bd7c7ba8,69712dc693a3960bdb483245,697184ecb70e30e46047cf6b,,,,,,,,,,,,./stim/wavs/mexican_match_interrogative-total-yn_David-leia-el-libro.wav,1,,,131.4527,137.8839,1,1,5.897,,0,10,10,14,1,15,0,mexican,,,,,,,,,,,,,,,,,,,,,,,,,,,,,,,,,,,,,,,,,,,,,,,,,,,,,,,,
,,,,,,,,,695fc9e5ea354ea6bd7c7ba8,Spanish,13 or older,"no, only English or Spanish",click here to respond,2026-01-21_21h14.08.606,empathy_intonation_perc_control,2024.2.4,Linux x86_64,60.24096386,695fc9e5ea354ea6bd7c7ba8,69712dc693a3960bdb483245,697184ecb70e30e46047cf6b,,,,,,,,,,,,./stim/wavs/puertorican_match_declarative-broad-focus_Maria-bebe-el-vino.wav,0,,,137.8877,148.6185,1,0,10.2126,,0,11,11,67,1,68,0,puertorican,,,,,,,,,,,,,,,,,,,,,,,,,,,,,,,,,,,,,,,,,,,,,,,,,,,,,,,,
,,,,,,,,,695fc9e5ea354ea6bd7c7ba8,Spanish,13 or older,"no, only English or Spanish",click here to respond,2026-01-21_21h14.08.606,empathy_intonation_perc_control,2024.2.4,Linux x86_64,60.24096386,695fc9e5ea354ea6bd7c7ba8,69712dc693a3960bdb483245,697184ecb70e30e46047cf6b,,,,,,,,,,,,./stim/wavs/cuban_match_declarative-broad-focus_Maria-bebe-el-vino.wav,0,,,148.6196,153.7379,0,1,4.5905,,0,12,12,53,1,54,0,cuban,,,,,,,,,,,,,,,,,,,,,,,,,,,,,,,,,,,,,,,,,,,,,,,,,,,,,,,,
,,,,,,,,,695fc9e5ea354ea6bd7c7ba8,Spanish,13 or older,"no, only English or Spanish",click here to respond,2026-01-21_21h14.08.606,empathy_intonation_perc_control,2024.2.4,Linux x86_64,60.24096386,695fc9e5ea354ea6bd7c7ba8,69712dc693a3960bdb483245,697184ecb70e30e46047cf6b,,,,,,,,,,,,./stim/wavs/castilian_match_interrogative-total-yn_Mariano-habla-del-tiempo.wav,1,,,153.7402,157.2359,1,1,2.97,,0,13,13,4,1,5,0,castilian,,,,,,,,,,,,,,,,,,,,,,,,,,,,,,,,,,,,,,,,,,,,,,,,,,,,,,,,
,,,,,,,,,695fc9e5ea354ea6bd7c7ba8,Spanish,13 or older,"no, only English or Spanish",click here to respond,2026-01-21_21h14.08.606,empathy_intonation_perc_control,2024.2.4,Linux x86_64,60.24096386,695fc9e5ea354ea6bd7c7ba8,69712dc693a3960bdb483245,697184ecb70e30e46047cf6b,,,,,,,,,,,,./stim/wavs/mexican_mismatch_declarative-broad-focus_El-hombre-mira-la-luna.wav,0,,,157.2376,160.0183,0,1,2.2554,,0,14,14,79,1,80,0,mexican,,,,,,,,,,,,,,,,,,,,,,,,,,,,,,,,,,,,,,,,,,,,,,,,,,,,,,,,
,,,,,,,,,695fc9e5ea354ea6bd7c7ba8,Spanish,13 or older,"no, only English or Spanish",click here to respond,2026-01-21_21h14.08.606,empathy_intonation_perc_control,2024.2.4,Linux x86_64,60.24096386,695fc9e5ea354ea6bd7c7ba8,69712dc693a3960bdb483245,697184ecb70e30e46047cf6b,,,,,,,,,,,,./stim/wavs/mexican_mismatch_interrogative-total-yn_Mi-tia-odia-la-lluvia.wav,1,,,160.0207,162.3517,1,1,1.801,,0,15,15,38,1,39,0,mexican,,,,,,,,,,,,,,,,,,,,,,,,,,,,,,,,,,,,,,,,,,,,,,,,,,,,,,,,
,,,,,,,,,695fc9e5ea354ea6bd7c7ba8,Spanish,13 or older,"no, only English or Spanish",click here to respond,2026-01-21_21h14.08.606,empathy_intonation_perc_control,2024.2.4,Linux x86_64,60.24096386,695fc9e5ea354ea6bd7c7ba8,69712dc693a3960bdb483245,697184ecb70e30e46047cf6b,,,,,,,,,,,,./stim/wavs/puertorican_mismatch_interrogative-total-yn_El-hombre-mira-la-luna.wav,1,,,162.3532,164.9019,1,1,2.0171,,0,16,16,39,1,40,1,puertorican,,,,,,,,,,,,,,,,,,,,,,,,,,,,,,,,,,,,,,,,,,,,,,,,,,,,,,,,
,,,,,,,,,695fc9e5ea354ea6bd7c7ba8,Spanish,13 or older,"no, only English or Spanish",click here to respond,2026-01-21_21h14.08.606,empathy_intonation_perc_control,2024.2.4,Linux x86_64,60.24096386,695fc9e5ea354ea6bd7c7ba8,69712dc693a3960bdb483245,697184ecb70e30e46047cf6b,,,,,,,,,,,,./stim/wavs/castilian_match_interrogative-total-yn_Marta-abre-el-regalo.wav,1,,,164.9035,167.3185,1,1,1.8852,,0,17,17,5,1,6,0,castilian,,,,,,,,,,,,,,,,,,,,,,,,,,,,,,,,,,,,,,,,,,,,,,,,,,,,,,,,
,,,,,,,,,695fc9e5ea354ea6bd7c7ba8,Spanish,13 or older,"no, only English or Spanish",click here to respond,2026-01-21_21h14.08.606,empathy_intonation_perc_control,2024.2.4,Linux x86_64,60.24096386,695fc9e5ea354ea6bd7c7ba8,69712dc693a3960bdb483245,697184ecb70e30e46047cf6b,,,,,,,,,,,,./stim/wavs/mexican_mismatch_declarative-broad-focus_Mi-tia-odia-la-lluvia.wav,0,,,167.3195,169.6036,0,1,1.7568,,0,18,18,82,1,83,0,mexican,,,,,,,,,,,,,,,,,,,,,,,,,,,,,,,,,,,,,,,,,,,,,,,,,,,,,,,,
,,,,,,,,,695fc9e5ea354ea6bd7c7ba8,Spanish,13 or older,"no, only English or Spanish",click here to respond,2026-01-21_21h14.08.606,empathy_intonation_perc_control,2024.2.4,Linux x86_64,60.24096386,695fc9e5ea354ea6bd7c7ba8,69712dc693a3960bdb483245,697184ecb70e30e46047cf6b,,,,,,,,,,,,./stim/wavs/castilian_mismatch_interrogative-total-yn_Mi-tia-odia-la-lluvia.wav,1,,,169.6057,171.9532,1,1,1.8181,,0,19,19,28,1,29,0,castilian,,,,,,,,,,,,,,,,,,,,,,,,,,,,,,,,,,,,,,,,,,,,,,,,,,,,,,,,
,,,,,,,,,695fc9e5ea354ea6bd7c7ba8,Spanish,13 or older,"no, only English or Spanish",click here to respond,2026-01-21_21h14.08.606,empathy_intonation_perc_control,2024.2.4,Linux x86_64,60.24096386,695fc9e5ea354ea6bd7c7ba8,69712dc693a3960bdb483245,697184ecb70e30e46047cf6b,,,,,,,,,,,,./stim/wavs/cuban_match_interrogative-total-yn_Manuela-vende-el-carro.wav,1,,,171.9546,174.1189,0,0,1.6334,,0,20,20,8,1,9,1,cuban,,,,,,,,,,,,,,,,,,,,,,,,,,,,,,,,,,,,,,,,,,,,,,,,,,,,,,,,
,,,,,,,,,695fc9e5ea354ea6bd7c7ba8,Spanish,13 or older,"no, only English or Spanish",click here to respond,2026-01-21_21h14.08.606,empathy_intonation_perc_control,2024.2.4,Linux x86_64,60.24096386,695fc9e5ea354ea6bd7c7ba8,69712dc693a3960bdb483245,697184ecb70e30e46047cf6b,,,,,,,,,,,,./stim/wavs/mexican_mismatch_interrogative-total-yn_El-hombre-mira-la-luna.wav,1,,,174.12,176.1188,1,1,1.465,,0,21,21,34,1,35,0,mexican,,,,,,,,,,,,,,,,,,,,,,,,,,,,,,,,,,,,,,,,,,,,,,,,,,,,,,,,
,,,,,,,,,695fc9e5ea354ea6bd7c7ba8,Spanish,13 or older,"no, only English or Spanish",click here to respond,2026-01-21_21h14.08.606,empathy_intonation_perc_control,2024.2.4,Linux x86_64,60.24096386,695fc9e5ea354ea6bd7c7ba8,69712dc693a3960bdb483245,697184ecb70e30e46047cf6b,,,,,,,,,,,,./stim/wavs/puertorican_mismatch_declarative-broad-focus_El-hombre-mira-la-luna.wav,0,,,176.1193,178.3088,0,1,1.6613,,0,22,22,84,1,85,0,puertorican,,,,,,,,,,,,,,,,,,,,,,,,,,,,,,,,,,,,,,,,,,,,,,,,,,,,,,,,
,,,,,,,,,695fc9e5ea354ea6bd7c7ba8,Spanish,13 or older,"no, only English or Spanish",click here to respond,2026-01-21_21h14.08.606,empathy_intonation_perc_control,2024.2.4,Linux x86_64,60.24096386,695fc9e5ea354ea6bd7c7ba8,69712dc693a3960bdb483245,697184ecb70e30e46047cf6b,,,,,,,,,,,,./stim/wavs/cuban_match_declarative-broad-focus_Daniel-iba-a-Bolivia.wav,0,,,178.3099,180.6038,0,1,1.7655,,0,23,23,51,1,52,0,cuban,,,,,,,,,,,,,,,,,,,,,,,,,,,,,,,,,,,,,,,,,,,,,,,,,,,,,,,,
,,,,,,,,,695fc9e5ea354ea6bd7c7ba8,Spanish,13 or older,"no, only English or Spanish",click here to respond,2026-01-21_21h14.08.606,empathy_intonation_perc_control,2024.2.4,Linux x86_64,60.24096386,695fc9e5ea354ea6bd7c7ba8,69712dc693a3960bdb483245,697184ecb70e30e46047cf6b,,,,,,,,,,,,./stim/wavs/puertorican_match_interrogative-total-yn_Emilio-ama-la-marcha.wav,1,,,180.605,183.3196,0,0,2.178,,0,24,24,21,1,22,1,puertorican,,,,,,,,,,,,,,,,,,,,,,,,,,,,,,,,,,,,,,,,,,,,,,,,,,,,,,,,
,,,,,,,,,695fc9e5ea354ea6bd7c7ba8,Spanish,13 or older,"no, only English or Spanish",click here to respond,2026-01-21_21h14.08.606,empathy_intonation_perc_control,2024.2.4,Linux x86_64,60.24096386,695fc9e5ea354ea6bd7c7ba8,69712dc693a3960bdb483245,697184ecb70e30e46047cf6b,,,,,,,,,,,,./stim/wavs/puertorican_match_interrogative-total-yn_Maria-bebe-el-vino.wav,1,,,183.3208,185.4032,1,1,1.5516,,0,25,25,23,1,24,1,puertorican,,,,,,,,,,,,,,,,,,,,,,,,,,,,,,,,,,,,,,,,,,,,,,,,,,,,,,,,
,,,,,,,,,695fc9e5ea354ea6bd7c7ba8,Spanish,13 or older,"no, only English or Spanish",click here to respond,2026-01-21_21h14.08.606,empathy_intonation_perc_control,2024.2.4,Linux x86_64,60.24096386,695fc9e5ea354ea6bd7c7ba8,69712dc693a3960bdb483245,697184ecb70e30e46047cf6b,,,,,,,,,,,,./stim/wavs/castilian_mismatch_declarative-broad-focus_El-nino-oye-el-rio.wav,0,,,185.4048,188.2882,0,1,2.3539,,0,26,26,68,1,69,0,castilian,,,,,,,,,,,,,,,,,,,,,,,,,,,,,,,,,,,,,,,,,,,,,,,,,,,,,,,,
,,,,,,,,,695fc9e5ea354ea6bd7c7ba8,Spanish,13 or older,"no, only English or Spanish",click here to respond,2026-01-21_21h14.08.606,empathy_intonation_perc_control,2024.2.4,Linux x86_64,60.24096386,695fc9e5ea354ea6bd7c7ba8,69712dc693a3960bdb483245,697184ecb70e30e46047cf6b,,,,,,,,,,,,./stim/wavs/puertorican_mismatch_declarative-broad-focus_La-maestra-vive-en-Paris.wav,0,,,188.2914,190.5409,0,1,1.7264,,0,27,27,86,1,87,0,puertorican,,,,,,,,,,,,,,,,,,,,,,,,,,,,,,,,,,,,,,,,,,,,,,,,,,,,,,,,
,,,,,,,,,695fc9e5ea354ea6bd7c7ba8,Spanish,13 or older,"no, only English or Spanish",click here to respond,2026-01-21_21h14.08.606,empathy_intonation_perc_control,2024.2.4,Linux x86_64,60.24096386,695fc9e5ea354ea6bd7c7ba8,69712dc693a3960bdb483245,697184ecb70e30e46047cf6b,,,,,,,,,,,,./stim/wavs/puertorican_match_interrogative-total-yn_David-leia-el-libro.wav,1,,,190.5421,193.0534,1,1,1.987,,0,28,28,20,1,21,1,puertorican,,,,,,,,,,,,,,,,,,,,,,,,,,,,,,,,,,,,,,,,,,,,,,,,,,,,,,,,
,,,,,,,,,695fc9e5ea354ea6bd7c7ba8,Spanish,13 or older,"no, only English or Spanish",click here to respond,2026-01-21_21h14.08.606,empathy_intonation_perc_control,2024.2.4,Linux x86_64,60.24096386,695fc9e5ea354ea6bd7c7ba8,69712dc693a3960bdb483245,697184ecb70e30e46047cf6b,,,,,,,,,,,,./stim/wavs/castilian_match_declarative-broad-focus_Emilio-ama-la-marcha.wav,0,,,193.0556,195.4549,0,1,1.8688,,0,29,29,45,1,46,0,castilian,,,,,,,,,,,,,,,,,,,,,,,,,,,,,,,,,,,,,,,,,,,,,,,,,,,,,,,,
,,,,,,,,,695fc9e5ea354ea6bd7c7ba8,Spanish,13 or older,"no, only English or Spanish",click here to respond,2026-01-21_21h14.08.606,empathy_intonation_perc_control,2024.2.4,Linux x86_64,60.24096386,695fc9e5ea354ea6bd7c7ba8,69712dc693a3960bdb483245,697184ecb70e30e46047cf6b,,,,,,,,,,,,./stim/wavs/puertorican_mismatch_interrogative-total-yn_El-nino-oye-el-rio.wav,1,,,195.4561,198.2541,0,0,2.2706,,0,30,30,40,1,41,1,puertorican,,,,,,,,,,,,,,,,,,,,,,,,,,,,,,,,,,,,,,,,,,,,,,,,,,,,,,,,
,,,,,,,,,695fc9e5ea354ea6bd7c7ba8,Spanish,13 or older,"no, only English or Spanish",click here to respond,2026-01-21_21h14.08.606,empathy_intonation_perc_control,2024.2.4,Linux x86_64,60.24096386,695fc9e5ea354ea6bd7c7ba8,69712dc693a3960bdb483245,697184ecb70e30e46047cf6b,,,,,,,,,,,,./stim/wavs/cuban_mismatch_interrogative-total-yn_Mi-madre-come-la-fruta.wav,1,,,198.2554,200.8213,0,0,2.0382,,0,31,31,31,1,32,1,cuban,,,,,,,,,,,,,,,,,,,,,,,,,,,,,,,,,,,,,,,,,,,,,,,,,,,,,,,,
,,,,,,,,,695fc9e5ea354ea6bd7c7ba8,Spanish,13 or older,"no, only English or Spanish",click here to respond,2026-01-21_21h14.08.606,empathy_intonation_perc_control,2024.2.4,Linux x86_64,60.24096386,695fc9e5ea354ea6bd7c7ba8,69712dc693a3960bdb483245,697184ecb70e30e46047cf6b,,,,,,,,,,,,./stim/wavs/castilian_match_declarative-broad-focus_Maria-bebe-el-vino.wav,0,,,200.8238,203.5721,0,1,2.2184,,0,32,32,47,1,48,0,castilian,,,,,,,,,,,,,,,,,,,,,,,,,,,,,,,,,,,,,,,,,,,,,,,,,,,,,,,,
,,,,,,,,,695fc9e5ea354ea6bd7c7ba8,Spanish,13 or older,"no, only English or Spanish",click here to respond,2026-01-21_21h14.08.606,empathy_intonation_perc_control,2024.2.4,Linux x86_64,60.24096386,695fc9e5ea354ea6bd7c7ba8,69712dc693a3960bdb483245,697184ecb70e30e46047cf6b,,,,,,,,,,,,./stim/wavs/castilian_match_interrogative-total-yn_Manuela-vende-el-carro.wav,1,,,203.5735,205.9399,1,1,1.8391,,0,33,33,2,1,3,0,castilian,,,,,,,,,,,,,,,,,,,,,,,,,,,,,,,,,,,,,,,,,,,,,,,,,,,,,,,,
,,,,,,,,,695fc9e5ea354ea6bd7c7ba8,Spanish,13 or older,"no, only English or Spanish",click here to respond,2026-01-21_21h14.08.606,empathy_intonation_perc_control,2024.2.4,Linux x86_64,60.24096386,695fc9e5ea354ea6bd7c7ba8,69712dc693a3960bdb483245,697184ecb70e30e46047cf6b,,,,,,,,,,,,./stim/wavs/mexican_mismatch_interrogative-total-yn_La-maestra-vive-en-Paris.wav,1,,,205.9423,208.871,0,0,2.4043,,0,34,34,36,1,37,0,mexican,,,,,,,,,,,,,,,,,,,,,,,,,,,,,,,,,,,,,,,,,,,,,,,,,,,,,,,,
,,,,,,,,,695fc9e5ea354ea6bd7c7ba8,Spanish,13 or older,"no, only English or Spanish",click here to respond,2026-01-21_21h14.08.606,empathy_intonation_perc_control,2024.2.4,Linux x86_64,60.24096386,695fc9e5ea354ea6bd7c7ba8,69712dc693a3960bdb483245,697184ecb70e30e46047cf6b,,,,,,,,,,,,./stim/wavs/puertorican_match_interrogative-total-yn_Manuela-vende-el-carro.wav,1,,,208.8729,211.1212,0,0,1.7192,,0,35,35,22,1,23,1,puertorican,,,,,,,,,,,,,,,,,,,,,,,,,,,,,,,,,,,,,,,,,,,,,,,,,,,,,,,,
,,,,,,,,,695fc9e5ea354ea6bd7c7ba8,Spanish,13 or older,"no, only English or Spanish",click here to respond,2026-01-21_21h14.08.606,empathy_intonation_perc_control,2024.2.4,Linux x86_64,60.24096386,695fc9e5ea354ea6bd7c7ba8,69712dc693a3960bdb483245,697184ecb70e30e46047cf6b,,,,,,,,,,,,./stim/wavs/castilian_match_interrogative-total-yn_Maria-bebe-el-vino.wav,1,,,211.1225,213.2795,1,1,1.6288,,0,36,36,3,1,4,0,castilian,,,,,,,,,,,,,,,,,,,,,,,,,,,,,,,,,,,,,,,,,,,,,,,,,,,,,,,,
,,,,,,,,,695fc9e5ea354ea6bd7c7ba8,Spanish,13 or older,"no, only English or Spanish",click here to respond,2026-01-21_21h14.08.606,empathy_intonation_perc_control,2024.2.4,Linux x86_64,60.24096386,695fc9e5ea354ea6bd7c7ba8,69712dc693a3960bdb483245,697184ecb70e30e46047cf6b,,,,,,,,,,,,./stim/wavs/mexican_match_declarative-broad-focus_Marta-abre-el-regalo.wav,0,,,213.2812,215.3715,0,1,1.5698,,0,37,37,61,1,62,0,mexican,,,,,,,,,,,,,,,,,,,,,,,,,,,,,,,,,,,,,,,,,,,,,,,,,,,,,,,,
,,,,,,,,,695fc9e5ea354ea6bd7c7ba8,Spanish,13 or older,"no, only English or Spanish",click here to respond,2026-01-21_21h14.08.606,empathy_intonation_perc_control,2024.2.4,Linux x86_64,60.24096386,695fc9e5ea354ea6bd7c7ba8,69712dc693a3960bdb483245,697184ecb70e30e46047cf6b,,,,,,,,,,,,./stim/wavs/puertorican_mismatch_interrogative-total-yn_Mi-madre-come-la-fruta.wav,1,,,215.373,217.7062,0,0,1.798,,0,38,38,43,1,44,1,puertorican,,,,,,,,,,,,,,,,,,,,,,,,,,,,,,,,,,,,,,,,,,,,,,,,,,,,,,,,
,,,,,,,,,695fc9e5ea354ea6bd7c7ba8,Spanish,13 or older,"no, only English or Spanish",click here to respond,2026-01-21_21h14.08.606,empathy_intonation_perc_control,2024.2.4,Linux x86_64,60.24096386,695fc9e5ea354ea6bd7c7ba8,69712dc693a3960bdb483245,697184ecb70e30e46047cf6b,,,,,,,,,,,,./stim/wavs/mexican_mismatch_declarative-broad-focus_El-bebe-comia-muy-bien.wav,0,,,217.7077,220.0383,0,1,1.8008,,0,39,39,78,1,79,0,mexican,,,,,,,,,,,,,,,,,,,,,,,,,,,,,,,,,,,,,,,,,,,,,,,,,,,,,,,,
,,,,,,,,,695fc9e5ea354ea6bd7c7ba8,Spanish,13 or older,"no, only English or Spanish",click here to respond,2026-01-21_21h14.08.606,empathy_intonation_perc_control,2024.2.4,Linux x86_64,60.24096386,695fc9e5ea354ea6bd7c7ba8,69712dc693a3960bdb483245,697184ecb70e30e46047cf6b,,,,,,,,,,,,./stim/wavs/mexican_match_declarative-broad-focus_Ana-lleva-el-abrigo.wav,0,,,220.0399,222.1109,0,1,1.5428,,0,40,40,56,1,57,0,mexican,,,,,,,,,,,,,,,,,,,,,,,,,,,,,,,,,,,,,,,,,,,,,,,,,,,,,,,,
,,,,,,,,,695fc9e5ea354ea6bd7c7ba8,Spanish,13 or older,"no, only English or Spanish",click here to respond,2026-01-21_21h14.08.606,empathy_intonation_perc_control,2024.2.4,Linux x86_64,60.24096386,695fc9e5ea354ea6bd7c7ba8,69712dc693a3960bdb483245,697184ecb70e30e46047cf6b,,,,,,,,,,,,./stim/wavs/cuban_mismatch_declarative-broad-focus_El-hombre-mira-la-luna.wav,0,,,222.1126,224.0913,0,1,1.4543,,0,41,41,74,1,75,0,cuban,,,,,,,,,,,,,,,,,,,,,,,,,,,,,,,,,,,,,,,,,,,,,,,,,,,,,,,,
,,,,,,,,,695fc9e5ea354ea6bd7c7ba8,Spanish,13 or older,"no, only English or Spanish",click here to respond,2026-01-21_21h14.08.606,empathy_intonation_perc_control,2024.2.4,Linux x86_64,60.24096386,695fc9e5ea354ea6bd7c7ba8,69712dc693a3960bdb483245,697184ecb70e30e46047cf6b,,,,,,,,,,,,./stim/wavs/mexican_mismatch_interrogative-total-yn_Mi-novio-viene-del-lago.wav,1,,,224.0945,226.272,1,1,1.6495,,0,42,42,37,1,38,0,mexican,,,,,,,,,,,,,,,,,,,,,,,,,,,,,,,,,,,,,,,,,,,,,,,,,,,,,,,,
,,,,,,,,,695fc9e5ea354ea6bd7c7ba8,Spanish,13 or older,"no, only English or Spanish",click here to respond,2026-01-21_21h14.08.606,empathy_intonation_perc_control,2024.2.4,Linux x86_64,60.24096386,695fc9e5ea354ea6bd7c7ba8,69712dc693a3960bdb483245,697184ecb70e30e46047cf6b,,,,,,,,,,,,./stim/wavs/mexican_match_interrogative-total-yn_Emilio-ama-la-marcha.wav,1,,,226.2735,228.6556,1,1,1.8519,,0,43,43,15,1,16,0,mexican,,,,,,,,,,,,,,,,,,,,,,,,,,,,,,,,,,,,,,,,,,,,,,,,,,,,,,,,
,,,,,,,,,695fc9e5ea354ea6bd7c7ba8,Spanish,13 or older,"no, only English or Spanish",click here to respond,2026-01-21_21h14.08.606,empathy_intonation_perc_control,2024.2.4,Linux x86_64,60.24096386,695fc9e5ea354ea6bd7c7ba8,69712dc693a3960bdb483245,697184ecb70e30e46047cf6b,,,,,,,,,,,,./stim/wavs/puertorican_mismatch_declarative-broad-focus_El-bebe-comia-muy-bien.wav,0,,,228.6568,230.9551,0,1,1.7747,,0,44,44,83,1,84,0,puertorican,,,,,,,,,,,,,,,,,,,,,,,,,,,,,,,,,,,,,,,,,,,,,,,,,,,,,,,,
,,,,,,,,,695fc9e5ea354ea6bd7c7ba8,Spanish,13 or older,"no, only English or Spanish",click here to respond,2026-01-21_21h14.08.606,empathy_intonation_perc_control,2024.2.4,Linux x86_64,60.24096386,695fc9e5ea354ea6bd7c7ba8,69712dc693a3960bdb483245,697184ecb70e30e46047cf6b,,,,,,,,,,,,./stim/wavs/mexican_mismatch_declarative-broad-focus_Mi-novio-viene-del-lago.wav,0,,,230.956,233.1725,0,1,1.6825,,0,45,45,81,1,82,0,mexican,,,,,,,,,,,,,,,,,,,,,,,,,,,,,,,,,,,,,,,,,,,,,,,,,,,,,,,,
,,,,,,,,,695fc9e5ea354ea6bd7c7ba8,Spanish,13 or older,"no, only English or Spanish",click here to respond,2026-01-21_21h14.08.606,empathy_intonation_perc_control,2024.2.4,Linux x86_64,60.24096386,695fc9e5ea354ea6bd7c7ba8,69712dc693a3960bdb483245,697184ecb70e30e46047cf6b,,,,,,,,,,,,./stim/wavs/cuban_match_declarative-broad-focus_Ana-lleva-el-abrigo.wav,0,,,233.1738,235.4234,0,1,1.7193,,0,46,46,50,1,51,0,cuban,,,,,,,,,,,,,,,,,,,,,,,,,,,,,,,,,,,,,,,,,,,,,,,,,,,,,,,,
,,,,,,,,,695fc9e5ea354ea6bd7c7ba8,Spanish,13 or older,"no, only English or Spanish",click here to respond,2026-01-21_21h14.08.606,empathy_intonation_perc_control,2024.2.4,Linux x86_64,60.24096386,695fc9e5ea354ea6bd7c7ba8,69712dc693a3960bdb483245,697184ecb70e30e46047cf6b,,,,,,,,,,,,./stim/wavs/mexican_match_interrogative-total-yn_Daniel-iba-a-Bolivia.wav,1,,,235.4247,237.5563,1,1,1.6014,,0,47,47,13,1,14,0,mexican,,,,,,,,,,,,,,,,,,,,,,,,,,,,,,,,,,,,,,,,,,,,,,,,,,,,,,,,
,,,,,,,,,695fc9e5ea354ea6bd7c7ba8,Spanish,13 or older,"no, only English or Spanish",click here to respond,2026-01-21_21h14.08.606,empathy_intonation_perc_control,2024.2.4,Linux x86_64,60.24096386,695fc9e5ea354ea6bd7c7ba8,69712dc693a3960bdb483245,697184ecb70e30e46047cf6b,,,,,,,,,,,,./stim/wavs/castilian_mismatch_interrogative-total-yn_La-nina-lava-el-plato.wav,1,,,237.5578,239.7896,1,1,1.7043,,0,48,48,25,1,26,0,castilian,,,,,,,,,,,,,,,,,,,,,,,,,,,,,,,,,,,,,,,,,,,,,,,,,,,,,,,,
,,,,,,,,,695fc9e5ea354ea6bd7c7ba8,Spanish,13 or older,"no, only English or Spanish",click here to respond,2026-01-21_21h14.08.606,empathy_intonation_perc_control,2024.2.4,Linux x86_64,60.24096386,695fc9e5ea354ea6bd7c7ba8,69712dc693a3960bdb483245,697184ecb70e30e46047cf6b,,,,,,,,,,,,./stim/wavs/cuban_match_declarative-broad-focus_Mariano-habla-del-tiempo.wav,0,,,239.7914,242.0568,0,1,1.7363,,0,49,49,54,1,55,0,cuban,,,,,,,,,,,,,,,,,,,,,,,,,,,,,,,,,,,,,,,,,,,,,,,,,,,,,,,,
,,,,,,,,,695fc9e5ea354ea6bd7c7ba8,Spanish,13 or older,"no, only English or Spanish",click here to respond,2026-01-21_21h14.08.606,empathy_intonation_perc_control,2024.2.4,Linux x86_64,60.24096386,695fc9e5ea354ea6bd7c7ba8,69712dc693a3960bdb483245,697184ecb70e30e46047cf6b,,,,,,,,,,,,./stim/wavs/puertorican_mismatch_interrogative-total-yn_La-maestra-vive-en-Paris.wav,1,,,242.0579,244.624,0,0,2.0392,,0,50,50,41,1,42,1,puertorican,,,,,,,,,,,,,,,,,,,,,,,,,,,,,,,,,,,,,,,,,,,,,,,,,,,,,,,,
,,,,,,,,,695fc9e5ea354ea6bd7c7ba8,Spanish,13 or older,"no, only English or Spanish",click here to respond,2026-01-21_21h14.08.606,empathy_intonation_perc_control,2024.2.4,Linux x86_64,60.24096386,695fc9e5ea354ea6bd7c7ba8,69712dc693a3960bdb483245,697184ecb70e30e46047cf6b,,,,,,,,,,,,./stim/wavs/cuban_match_interrogative-total-yn_Ana-lleva-el-abrigo.wav,1,,,244.6255,246.6734,0,0,1.5198,,0,51,51,6,1,7,1,cuban,,,,,,,,,,,,,,,,,,,,,,,,,,,,,,,,,,,,,,,,,,,,,,,,,,,,,,,,
,,,,,,,,,695fc9e5ea354ea6bd7c7ba8,Spanish,13 or older,"no, only English or Spanish",click here to respond,2026-01-21_21h14.08.606,empathy_intonation_perc_control,2024.2.4,Linux x86_64,60.24096386,695fc9e5ea354ea6bd7c7ba8,69712dc693a3960bdb483245,697184ecb70e30e46047cf6b,,,,,,,,,,,,./stim/wavs/cuban_mismatch_interrogative-total-yn_Mi-novio-viene-del-lago.wav,1,,,246.6746,248.8566,0,0,1.6509,,0,52,52,32,1,33,1,cuban,,,,,,,,,,,,,,,,,,,,,,,,,,,,,,,,,,,,,,,,,,,,,,,,,,,,,,,,
,,,,,,,,,695fc9e5ea354ea6bd7c7ba8,Spanish,13 or older,"no, only English or Spanish",click here to respond,2026-01-21_21h14.08.606,empathy_intonation_perc_control,2024.2.4,Linux x86_64,60.24096386,695fc9e5ea354ea6bd7c7ba8,69712dc693a3960bdb483245,697184ecb70e30e46047cf6b,,,,,,,,,,,,./stim/wavs/cuban_mismatch_interrogative-total-yn_El-hombre-mira-la-luna.wav,1,,,248.8578,251.0733,0,0,1.6821,,0,53,53,29,1,30,1,cuban,,,,,,,,,,,,,,,,,,,,,,,,,,,,,,,,,,,,,,,,,,,,,,,,,,,,,,,,
,,,,,,,,,695fc9e5ea354ea6bd7c7ba8,Spanish,13 or older,"no, only English or Spanish",click here to respond,2026-01-21_21h14.08.606,empathy_intonation_perc_control,2024.2.4,Linux x86_64,60.24096386,695fc9e5ea354ea6bd7c7ba8,69712dc693a3960bdb483245,697184ecb70e30e46047cf6b,,,,,,,,,,,,./stim/wavs/puertorican_mismatch_declarative-broad-focus_El-nino-oye-el-rio.wav,0,,,251.0753,253.2739,0,1,1.662,,0,54,54,85,1,86,0,puertorican,,,,,,,,,,,,,,,,,,,,,,,,,,,,,,,,,,,,,,,,,,,,,,,,,,,,,,,,
,,,,,,,,,695fc9e5ea354ea6bd7c7ba8,Spanish,13 or older,"no, only English or Spanish",click here to respond,2026-01-21_21h14.08.606,empathy_intonation_perc_control,2024.2.4,Linux x86_64,60.24096386,695fc9e5ea354ea6bd7c7ba8,69712dc693a3960bdb483245,697184ecb70e30e46047cf6b,,,,,,,,,,,,./stim/wavs/castilian_mismatch_interrogative-total-yn_Mi-novio-viene-del-lago.wav,1,,,253.2752,255.6236,1,1,1.8161,,0,55,55,27,1,28,0,castilian,,,,,,,,,,,,,,,,,,,,,,,,,,,,,,,,,,,,,,,,,,,,,,,,,,,,,,,,
,,,,,,,,,695fc9e5ea354ea6bd7c7ba8,Spanish,13 or older,"no, only English or Spanish",click here to respond,2026-01-21_21h14.08.606,empathy_intonation_perc_control,2024.2.4,Linux x86_64,60.24096386,695fc9e5ea354ea6bd7c7ba8,69712dc693a3960bdb483245,697184ecb70e30e46047cf6b,,,,,,,,,,,,./stim/wavs/castilian_match_declarative-broad-focus_Manuela-vende-el-carro.wav,0,,,255.6255,258.2916,0,1,2.1402,,0,56,56,46,1,47,0,castilian,,,,,,,,,,,,,,,,,,,,,,,,,,,,,,,,,,,,,,,,,,,,,,,,,,,,,,,,
,,,,,,,,,695fc9e5ea354ea6bd7c7ba8,Spanish,13 or older,"no, only English or Spanish",click here to respond,2026-01-21_21h14.08.606,empathy_intonation_perc_control,2024.2.4,Linux x86_64,60.24096386,695fc9e5ea354ea6bd7c7ba8,69712dc693a3960bdb483245,697184ecb70e30e46047cf6b,,,,,,,,,,,,./stim/wavs/castilian_match_declarative-broad-focus_Mariano-habla-del-tiempo.wav,0,,,258.2936,260.8907,0,1,2.0677,,0,57,57,48,1,49,0,castilian,,,,,,,,,,,,,,,,,,,,,,,,,,,,,,,,,,,,,,,,,,,,,,,,,,,,,,,,
,,,,,,,,,695fc9e5ea354ea6bd7c7ba8,Spanish,13 or older,"no, only English or Spanish",click here to respond,2026-01-21_21h14.08.606,empathy_intonation_perc_control,2024.2.4,Linux x86_64,60.24096386,695fc9e5ea354ea6bd7c7ba8,69712dc693a3960bdb483245,697184ecb70e30e46047cf6b,,,,,,,,,,,,./stim/wavs/mexican_mismatch_interrogative-total-yn_El-nino-oye-el-rio.wav,1,,,260.8917,263.174,1,1,1.7472,,0,58,58,35,1,36,0,mexican,,,,,,,,,,,,,,,,,,,,,,,,,,,,,,,,,,,,,,,,,,,,,,,,,,,,,,,,
,,,,,,,,,695fc9e5ea354ea6bd7c7ba8,Spanish,13 or older,"no, only English or Spanish",click here to respond,2026-01-21_21h14.08.606,empathy_intonation_perc_control,2024.2.4,Linux x86_64,60.24096386,695fc9e5ea354ea6bd7c7ba8,69712dc693a3960bdb483245,697184ecb70e30e46047cf6b,,,,,,,,,,,,./stim/wavs/mexican_match_interrogative-total-yn_Marta-abre-el-regalo.wav,1,,,263.1756,265.4242,1,1,1.7197,,0,59,59,17,1,18,0,mexican,,,,,,,,,,,,,,,,,,,,,,,,,,,,,,,,,,,,,,,,,,,,,,,,,,,,,,,,
,,,,,,,,,695fc9e5ea354ea6bd7c7ba8,Spanish,13 or older,"no, only English or Spanish",click here to respond,2026-01-21_21h14.08.606,empathy_intonation_perc_control,2024.2.4,Linux x86_64,60.24096386,695fc9e5ea354ea6bd7c7ba8,69712dc693a3960bdb483245,697184ecb70e30e46047cf6b,,,,,,,,,,,,./stim/wavs/castilian_mismatch_declarative-broad-focus_La-maestra-vive-en-Paris.wav,0,,,265.4256,267.9073,0,1,1.9497,,0,60,60,69,1,70,0,castilian,,,,,,,,,,,,,,,,,,,,,,,,,,,,,,,,,,,,,,,,,,,,,,,,,,,,,,,,
,,,,,,,,,695fc9e5ea354ea6bd7c7ba8,Spanish,13 or older,"no, only English or Spanish",click here to respond,2026-01-21_21h14.08.606,empathy_intonation_perc_control,2024.2.4,Linux x86_64,60.24096386,695fc9e5ea354ea6bd7c7ba8,69712dc693a3960bdb483245,697184ecb70e30e46047cf6b,,,,,,,,,,,,./stim/wavs/puertorican_match_declarative-broad-focus_Daniel-iba-a-Bolivia.wav,0,,,267.9083,270.0755,0,1,1.638,,0,61,61,63,1,64,0,puertorican,,,,,,,,,,,,,,,,,,,,,,,,,,,,,,,,,,,,,,,,,,,,,,,,,,,,,,,,
,,,,,,,,,695fc9e5ea354ea6bd7c7ba8,Spanish,13 or older,"no, only English or Spanish",click here to respond,2026-01-21_21h14.08.606,empathy_intonation_perc_control,2024.2.4,Linux x86_64,60.24096386,695fc9e5ea354ea6bd7c7ba8,69712dc693a3960bdb483245,697184ecb70e30e46047cf6b,,,,,,,,,,,,./stim/wavs/castilian_match_declarative-broad-focus_Marta-abre-el-regalo.wav,0,,,270.0789,272.5596,0,1,1.9558,,0,62,62,49,1,50,0,castilian,,,,,,,,,,,,,,,,,,,,,,,,,,,,,,,,,,,,,,,,,,,,,,,,,,,,,,,,
,,,,,,,,,695fc9e5ea354ea6bd7c7ba8,Spanish,13 or older,"no, only English or Spanish",click here to respond,2026-01-21_21h14.08.606,empathy_intonation_perc_control,2024.2.4,Linux x86_64,60.24096386,695fc9e5ea354ea6bd7c7ba8,69712dc693a3960bdb483245,697184ecb70e30e46047cf6b,,,,,,,,,,,,./stim/wavs/cuban_match_declarative-broad-focus_Marta-abre-el-regalo.wav,0,,,272.5611,274.9907,0,1,1.8995,,0,63,63,55,1,56,0,cuban,,,,,,,,,,,,,,,,,,,,,,,,,,,,,,,,,,,,,,,,,,,,,,,,,,,,,,,,
,,,,,,,,,695fc9e5ea354ea6bd7c7ba8,Spanish,13 or older,"no, only English or Spanish",click here to respond,2026-01-21_21h14.08.606,empathy_intonation_perc_control,2024.2.4,Linux x86_64,60.24096386,695fc9e5ea354ea6bd7c7ba8,69712dc693a3960bdb483245,697184ecb70e30e46047cf6b,,,,,,,,,,,,./stim/wavs/castilian_match_interrogative-total-yn_David-leia-el-libro.wav,1,,,274.9913,277.2583,1,1,1.753,,0,64,64,0,1,1,0,castilian,,,,,,,,,,,,,,,,,,,,,,,,,,,,,,,,,,,,,,,,,,,,,,,,,,,,,,,,
,,,,,,,,,695fc9e5ea354ea6bd7c7ba8,Spanish,13 or older,"no, only English or Spanish",click here to respond,2026-01-21_21h14.08.606,empathy_intonation_perc_control,2024.2.4,Linux x86_64,60.24096386,695fc9e5ea354ea6bd7c7ba8,69712dc693a3960bdb483245,697184ecb70e30e46047cf6b,,,,,,,,,,,,./stim/wavs/cuban_match_declarative-broad-focus_Manuela-vende-el-carro.wav,0,,,277.2604,279.5748,0,1,1.7856,,0,65,65,52,1,53,0,cuban,,,,,,,,,,,,,,,,,,,,,,,,,,,,,,,,,,,,,,,,,,,,,,,,,,,,,,,,
,,,,,,,,,695fc9e5ea354ea6bd7c7ba8,Spanish,13 or older,"no, only English or Spanish",click here to respond,2026-01-21_21h14.08.606,empathy_intonation_perc_control,2024.2.4,Linux x86_64,60.24096386,695fc9e5ea354ea6bd7c7ba8,69712dc693a3960bdb483245,697184ecb70e30e46047cf6b,,,,,,,,,,,,./stim/wavs/mexican_mismatch_declarative-broad-focus_La-maestra-vive-en-Paris.wav,0,,,279.5762,281.8921,0,1,1.7861,,0,66,66,80,1,81,0,mexican,,,,,,,,,,,,,,,,,,,,,,,,,,,,,,,,,,,,,,,,,,,,,,,,,,,,,,,,
,,,,,,,,,695fc9e5ea354ea6bd7c7ba8,Spanish,13 or older,"no, only English or Spanish",click here to respond,2026-01-21_21h14.08.606,empathy_intonation_perc_control,2024.2.4,Linux x86_64,60.24096386,695fc9e5ea354ea6bd7c7ba8,69712dc693a3960bdb483245,697184ecb70e30e46047cf6b,,,,,,,,,,,,./stim/wavs/castilian_match_declarative-broad-focus_David-leia-el-libro.wav,0,,,281.8936,284.2416,1,0,1.8212,,0,67,67,44,1,45,0,castilian,,,,,,,,,,,,,,,,,,,,,,,,,,,,,,,,,,,,,,,,,,,,,,,,,,,,,,,,
,,,,,,,,,695fc9e5ea354ea6bd7c7ba8,Spanish,13 or older,"no, only English or Spanish",click here to respond,2026-01-21_21h14.08.606,empathy_intonation_perc_control,2024.2.4,Linux x86_64,60.24096386,695fc9e5ea354ea6bd7c7ba8,69712dc693a3960bdb483245,697184ecb70e30e46047cf6b,,,,,,,,,,,,./stim/wavs/puertorican_mismatch_declarative-broad-focus_La-nina-lava-el-plato.wav,0,,,284.2433,286.1759,0,1,1.4133,,0,68,68,87,1,88,0,puertorican,,,,,,,,,,,,,,,,,,,,,,,,,,,,,,,,,,,,,,,,,,,,,,,,,,,,,,,,
,,,,,,,,,695fc9e5ea354ea6bd7c7ba8,Spanish,13 or older,"no, only English or Spanish",click here to respond,2026-01-21_21h14.08.606,empathy_intonation_perc_control,2024.2.4,Linux x86_64,60.24096386,695fc9e5ea354ea6bd7c7ba8,69712dc693a3960bdb483245,697184ecb70e30e46047cf6b,,,,,,,,,,,,./stim/wavs/cuban_mismatch_declarative-broad-focus_Mi-novio-viene-del-lago.wav,0,,,286.1783,288.3753,0,1,1.6703,,0,69,69,76,1,77,0,cuban,,,,,,,,,,,,,,,,,,,,,,,,,,,,,,,,,,,,,,,,,,,,,,,,,,,,,,,,
,,,,,,,,,695fc9e5ea354ea6bd7c7ba8,Spanish,13 or older,"no, only English or Spanish",click here to respond,2026-01-21_21h14.08.606,empathy_intonation_perc_control,2024.2.4,Linux x86_64,60.24096386,695fc9e5ea354ea6bd7c7ba8,69712dc693a3960bdb483245,697184ecb70e30e46047cf6b,,,,,,,,,,,,./stim/wavs/castilian_mismatch_interrogative-total-yn_Mi-madre-come-la-fruta.wav,1,,,288.3766,290.7421,1,1,1.8344,,0,70,70,26,1,27,0,castilian,,,,,,,,,,,,,,,,,,,,,,,,,,,,,,,,,,,,,,,,,,,,,,,,,,,,,,,,
,,,,,,,,,695fc9e5ea354ea6bd7c7ba8,Spanish,13 or older,"no, only English or Spanish",click here to respond,2026-01-21_21h14.08.606,empathy_intonation_perc_control,2024.2.4,Linux x86_64,60.24096386,695fc9e5ea354ea6bd7c7ba8,69712dc693a3960bdb483245,697184ecb70e30e46047cf6b,,,,,,,,,,,,./stim/wavs/castilian_mismatch_declarative-broad-focus_La-nina-lava-el-plato.wav,0,,,290.7432,293.0765,0,1,1.805,,0,71,71,70,1,71,0,castilian,,,,,,,,,,,,,,,,,,,,,,,,,,,,,,,,,,,,,,,,,,,,,,,,,,,,,,,,
,,,,,,,,,695fc9e5ea354ea6bd7c7ba8,Spanish,13 or older,"no, only English or Spanish",click here to respond,2026-01-21_21h14.08.606,empathy_intonation_perc_control,2024.2.4,Linux x86_64,60.24096386,695fc9e5ea354ea6bd7c7ba8,69712dc693a3960bdb483245,697184ecb70e30e46047cf6b,,,,,,,,,,,,./stim/wavs/mexican_match_declarative-broad-focus_Mariano-habla-del-tiempo.wav,0,,,293.0782,295.1094,0,1,1.5018,,0,72,72,60,1,61,0,mexican,,,,,,,,,,,,,,,,,,,,,,,,,,,,,,,,,,,,,,,,,,,,,,,,,,,,,,,,
,,,,,,,,,695fc9e5ea354ea6bd7c7ba8,Spanish,13 or older,"no, only English or Spanish",click here to respond,2026-01-21_21h14.08.606,empathy_intonation_perc_control,2024.2.4,Linux x86_64,60.24096386,695fc9e5ea354ea6bd7c7ba8,69712dc693a3960bdb483245,697184ecb70e30e46047cf6b,,,,,,,,,,,,./stim/wavs/cuban_mismatch_interrogative-total-yn_Mi-tia-odia-la-lluvia.wav,1,,,295.1107,297.2286,0,0,1.5919,,0,73,73,33,1,34,1,cuban,,,,,,,,,,,,,,,,,,,,,,,,,,,,,,,,,,,,,,,,,,,,,,,,,,,,,,,,
,,,,,,,,,695fc9e5ea354ea6bd7c7ba8,Spanish,13 or older,"no, only English or Spanish",click here to respond,2026-01-21_21h14.08.606,empathy_intonation_perc_control,2024.2.4,Linux x86_64,60.24096386,695fc9e5ea354ea6bd7c7ba8,69712dc693a3960bdb483245,697184ecb70e30e46047cf6b,,,,,,,,,,,,./stim/wavs/cuban_match_interrogative-total-yn_Marta-abre-el-regalo.wav,1,,,297.2299,299.2933,0,0,1.5393,,0,74,74,11,1,12,1,cuban,,,,,,,,,,,,,,,,,,,,,,,,,,,,,,,,,,,,,,,,,,,,,,,,,,,,,,,,
,,,,,,,,,695fc9e5ea354ea6bd7c7ba8,Spanish,13 or older,"no, only English or Spanish",click here to respond,2026-01-21_21h14.08.606,empathy_intonation_perc_control,2024.2.4,Linux x86_64,60.24096386,695fc9e5ea354ea6bd7c7ba8,69712dc693a3960bdb483245,697184ecb70e30e46047cf6b,,,,,,,,,,,,./stim/wavs/castilian_mismatch_declarative-broad-focus_Mi-tia-odia-la-lluvia.wav,0,,,299.2957,301.6262,0,1,1.8002,,0,75,75,72,1,73,0,castilian,,,,,,,,,,,,,,,,,,,,,,,,,,,,,,,,,,,,,,,,,,,,,,,,,,,,,,,,
,,,,,,,,,695fc9e5ea354ea6bd7c7ba8,Spanish,13 or older,"no, only English or Spanish",click here to respond,2026-01-21_21h14.08.606,empathy_intonation_perc_control,2024.2.4,Linux x86_64,60.24096386,695fc9e5ea354ea6bd7c7ba8,69712dc693a3960bdb483245,697184ecb70e30e46047cf6b,,,,,,,,,,,,./stim/wavs/cuban_mismatch_interrogative-total-yn_El-nino-oye-el-rio.wav,1,,,301.6275,303.4607,0,0,1.3036,,0,76,76,30,1,31,1,cuban,,,,,,,,,,,,,,,,,,,,,,,,,,,,,,,,,,,,,,,,,,,,,,,,,,,,,,,,
,,,,,,,,,695fc9e5ea354ea6bd7c7ba8,Spanish,13 or older,"no, only English or Spanish",click here to respond,2026-01-21_21h14.08.606,empathy_intonation_perc_control,2024.2.4,Linux x86_64,60.24096386,695fc9e5ea354ea6bd7c7ba8,69712dc693a3960bdb483245,697184ecb70e30e46047cf6b,,,,,,,,,,,,./stim/wavs/cuban_mismatch_declarative-broad-focus_El-bebe-comia-muy-bien.wav,0,,,303.4622,305.5272,0,1,1.5389,,0,77,77,73,1,74,0,cuban,,,,,,,,,,,,,,,,,,,,,,,,,,,,,,,,,,,,,,,,,,,,,,,,,,,,,,,,
,,,,,,,,,695fc9e5ea354ea6bd7c7ba8,Spanish,13 or older,"no, only English or Spanish",click here to respond,2026-01-21_21h14.08.606,empathy_intonation_perc_control,2024.2.4,Linux x86_64,60.24096386,695fc9e5ea354ea6bd7c7ba8,69712dc693a3960bdb483245,697184ecb70e30e46047cf6b,,,,,,,,,,,,./stim/wavs/castilian_match_interrogative-total-yn_Emilio-ama-la-marcha.wav,1,,,305.5289,307.7118,1,1,1.6583,,0,78,78,1,1,2,0,castilian,,,,,,,,,,,,,,,,,,,,,,,,,,,,,,,,,,,,,,,,,,,,,,,,,,,,,,,,
,,,,,,,,,695fc9e5ea354ea6bd7c7ba8,Spanish,13 or older,"no, only English or Spanish",click here to respond,2026-01-21_21h14.08.606,empathy_intonation_perc_control,2024.2.4,Linux x86_64,60.24096386,695fc9e5ea354ea6bd7c7ba8,69712dc693a3960bdb483245,697184ecb70e30e46047cf6b,,,,,,,,,,,,./stim/wavs/puertorican_match_declarative-broad-focus_Manuela-vende-el-carro.wav,0,,,307.7161,310.0115,0,1,1.7718,,0,79,79,66,1,67,0,puertorican,,,,,,,,,,,,,,,,,,,,,,,,,,,,,,,,,,,,,,,,,,,,,,,,,,,,,,,,
,,,,,,,,,695fc9e5ea354ea6bd7c7ba8,Spanish,13 or older,"no, only English or Spanish",click here to respond,2026-01-21_21h14.08.606,empathy_intonation_perc_control,2024.2.4,Linux x86_64,60.24096386,695fc9e5ea354ea6bd7c7ba8,69712dc693a3960bdb483245,697184ecb70e30e46047cf6b,,,,,,,,,,,,./stim/wavs/castilian_mismatch_interrogative-total-yn_La-maestra-vive-en-Paris.wav,1,,,310.0131,312.6444,1,1,2.1041,,0,80,80,24,1,25,0,castilian,,,,,,,,,,,,,,,,,,,,,,,,,,,,,,,,,,,,,,,,,,,,,,,,,,,,,,,,
,,,,,,,,,695fc9e5ea354ea6bd7c7ba8,Spanish,13 or older,"no, only English or Spanish",click here to respond,2026-01-21_21h14.08.606,empathy_intonation_perc_control,2024.2.4,Linux x86_64,60.24096386,695fc9e5ea354ea6bd7c7ba8,69712dc693a3960bdb483245,697184ecb70e30e46047cf6b,,,,,,,,,,,,./stim/wavs/castilian_mismatch_declarative-broad-focus_Mi-novio-viene-del-lago.wav,0,,,312.6504,314.9439,0,1,1.7679,,0,81,81,71,1,72,0,castilian,,,,,,,,,,,,,,,,,,,,,,,,,,,,,,,,,,,,,,,,,,,,,,,,,,,,,,,,
,,,,,,,,,695fc9e5ea354ea6bd7c7ba8,Spanish,13 or older,"no, only English or Spanish",click here to respond,2026-01-21_21h14.08.606,empathy_intonation_perc_control,2024.2.4,Linux x86_64,60.24096386,695fc9e5ea354ea6bd7c7ba8,69712dc693a3960bdb483245,697184ecb70e30e46047cf6b,,,,,,,,,,,,./stim/wavs/mexican_match_declarative-broad-focus_Daniel-iba-a-Bolivia.wav,0,,,314.9453,317.2608,0,1,1.7866,,0,82,82,57,1,58,0,mexican,,,,,,,,,,,,,,,,,,,,,,,,,,,,,,,,,,,,,,,,,,,,,,,,,,,,,,,,
,,,,,,,,,695fc9e5ea354ea6bd7c7ba8,Spanish,13 or older,"no, only English or Spanish",click here to respond,2026-01-21_21h14.08.606,empathy_intonation_perc_control,2024.2.4,Linux x86_64,60.24096386,695fc9e5ea354ea6bd7c7ba8,69712dc693a3960bdb483245,697184ecb70e30e46047cf6b,,,,,,,,,,,,./stim/wavs/mexican_match_declarative-broad-focus_Emilio-ama-la-marcha.wav,0,,,317.2628,319.5309,0,1,1.739,,0,83,83,59,1,60,0,mexican,,,,,,,,,,,,,,,,,,,,,,,,,,,,,,,,,,,,,,,,,,,,,,,,,,,,,,,,
,,,,,,,,,695fc9e5ea354ea6bd7c7ba8,Spanish,13 or older,"no, only English or Spanish",click here to respond,2026-01-21_21h14.08.606,empathy_intonation_perc_control,2024.2.4,Linux x86_64,60.24096386,695fc9e5ea354ea6bd7c7ba8,69712dc693a3960bdb483245,697184ecb70e30e46047cf6b,,,,,,,,,,,,./stim/wavs/puertorican_match_declarative-broad-focus_David-leia-el-libro.wav,0,,,319.5326,321.5137,0,1,1.4548,,0,84,84,64,1,65,0,puertorican,,,,,,,,,,,,,,,,,,,,,,,,,,,,,,,,,,,,,,,,,,,,,,,,,,,,,,,,
,,,,,,,,,695fc9e5ea354ea6bd7c7ba8,Spanish,13 or older,"no, only English or Spanish",click here to respond,2026-01-21_21h14.08.606,empathy_intonation_perc_control,2024.2.4,Linux x86_64,60.24096386,695fc9e5ea354ea6bd7c7ba8,69712dc693a3960bdb483245,697184ecb70e30e46047cf6b,,,,,,,,,,,,./stim/wavs/puertorican_match_declarative-broad-focus_Emilio-ama-la-marcha.wav,0,,,321.5153,323.6451,0,1,1.601,,0,85,85,65,1,66,0,puertorican,,,,,,,,,,,,,,,,,,,,,,,,,,,,,,,,,,,,,,,,,,,,,,,,,,,,,,,,
,,,,,,,,,695fc9e5ea354ea6bd7c7ba8,Spanish,13 or older,"no, only English or Spanish",click here to respond,2026-01-21_21h14.08.606,empathy_intonation_perc_control,2024.2.4,Linux x86_64,60.24096386,695fc9e5ea354ea6bd7c7ba8,69712dc693a3960bdb483245,697184ecb70e30e46047cf6b,,,,,,,,,,,,./stim/wavs/mexican_match_interrogative-total-yn_Mariano-habla-del-tiempo.wav,1,,,323.6468,325.8475,1,1,1.6713,,0,86,86,16,1,17,0,mexican,,,,,,,,,,,,,,,,,,,,,,,,,,,,,,,,,,,,,,,,,,,,,,,,,,,,,,,,
,,,,,,,,,695fc9e5ea354ea6bd7c7ba8,Spanish,13 or older,"no, only English or Spanish",click here to respond,2026-01-21_21h14.08.606,empathy_intonation_perc_control,2024.2.4,Linux x86_64,60.24096386,695fc9e5ea354ea6bd7c7ba8,69712dc693a3960bdb483245,697184ecb70e30e46047cf6b,,,,,,,,,,,,./stim/wavs/mexican_match_declarative-broad-focus_David-leia-el-libro.wav,0,,,325.8491,328.1132,0,1,1.7391,,0,87,87,58,1,59,0,mexican,,,,,,,,,,,,,,,,,,,,,,,,,,,,,,,,,,,,,,,,,,,,,,,,,,,,,,,,
,,,,,,,"Great! Now we will move on. The next task consists of about 60 trials, in each of which you will see a string of letters. 
  
  Your task is to decide whether this is a real Spanish word or not.", (press the spacebar to continue),695fc9e5ea354ea6bd7c7ba8,Spanish,13 or older,"no, only English or Spanish",click here to respond,2026-01-21_21h14.08.606,empathy_intonation_perc_control,2024.2.4,Linux x86_64,60.24096386,695fc9e5ea354ea6bd7c7ba8,69712dc693a3960bdb483245,697184ecb70e30e46047cf6b,,,,,,,,,,,,,,,,,,,,,,,,,,,,,,328.1342,340.5292,0,0,0,0,1,,,,,,,,,,,,,,,,,,,,,,,,,,,,,,,,,,,,,,,,,,,,,,,,,
,,,,,,,"If you think it is an existing Spanish word, you type '1' (for 'REAL'), and if you think it is not an existing Spanish word, you type '0' (for 'FAKE').", (press the spacebar to continue),695fc9e5ea354ea6bd7c7ba8,Spanish,13 or older,"no, only English or Spanish",click here to respond,2026-01-21_21h14.08.606,empathy_intonation_perc_control,2024.2.4,Linux x86_64,60.24096386,695fc9e5ea354ea6bd7c7ba8,69712dc693a3960bdb483245,697184ecb70e30e46047cf6b,,,,,,,,,,,,,,,,,,,,,,,,,,,,,,340.5337,349.3958,0,1,1,1,1,,,,,,,,,,,,,,,,,,,,,,,,,,,,,,,,,,,,,,,,,,,,,,,,,
,,,,,,,"If you are sure that the word exists, even though you don’t know its exact meaning, you may still respond '1' (REAL). 
  
  But if you are not sure if it is an existing word, you should respond '0' (FAKE).
  
  Let's do a practice round...", (press the spacebar to continue),695fc9e5ea354ea6bd7c7ba8,Spanish,13 or older,"no, only English or Spanish",click here to respond,2026-01-21_21h14.08.606,empathy_intonation_perc_control,2024.2.4,Linux x86_64,60.24096386,695fc9e5ea354ea6bd7c7ba8,69712dc693a3960bdb483245,697184ecb70e30e46047cf6b,,,,,,,,,,,,,,,,,,,,,,,,,,,,,,349.3992,353.3461,0,2,2,2,1,,,,,,,,,,,,,,,,,,,,,,,,,,,,,,,,,,,,,,,,,,,,,,,,,
,,,,,,,,,695fc9e5ea354ea6bd7c7ba8,Spanish,13 or older,"no, only English or Spanish",click here to respond,2026-01-21_21h14.08.606,empathy_intonation_perc_control,2024.2.4,Linux x86_64,60.24096386,695fc9e5ea354ea6bd7c7ba8,69712dc693a3960bdb483245,697184ecb70e30e46047cf6b,,,,,,,,,,,,,0,,,,,,,,,,,,,,,,,,,,,,,,353.3684,358.9643,1,0,5.0611,,358.9652,359.9638,0,0,0,0,1,0,depiste,REAL,FAKE,,,,,,,,,,,,,,,,,,,,,,,,,,,,,,,,
,,,,,,,,,695fc9e5ea354ea6bd7c7ba8,Spanish,13 or older,"no, only English or Spanish",click here to respond,2026-01-21_21h14.08.606,empathy_intonation_perc_control,2024.2.4,Linux x86_64,60.24096386,695fc9e5ea354ea6bd7c7ba8,69712dc693a3960bdb483245,697184ecb70e30e46047cf6b,,,,,,,,,,,,,1,,,,,,,,,,,,,,,,,,,,,,,,359.9679,362.1133,1,1,1.6108,,362.1151,363.1135,0,1,1,1,1,0,sí,REAL,FAKE,,,,,,,,,,,,,,,,,,,,,,,,,,,,,,,,
,,,,,,,,,695fc9e5ea354ea6bd7c7ba8,Spanish,13 or older,"no, only English or Spanish",click here to respond,2026-01-21_21h14.08.606,empathy_intonation_perc_control,2024.2.4,Linux x86_64,60.24096386,695fc9e5ea354ea6bd7c7ba8,69712dc693a3960bdb483245,697184ecb70e30e46047cf6b,,,,,,,,,,,,,0,,,,,,,,,,,,,,,,,,,,,,,,363.1164,366.3134,1,0,2.6482,,366.3153,367.3135,0,2,2,2,1,0,coné,REAL,FAKE,,,,,,,,,,,,,,,,,,,,,,,,,,,,,,,,
,,,,,,,,,695fc9e5ea354ea6bd7c7ba8,Spanish,13 or older,"no, only English or Spanish",click here to respond,2026-01-21_21h14.08.606,empathy_intonation_perc_control,2024.2.4,Linux x86_64,60.24096386,695fc9e5ea354ea6bd7c7ba8,69712dc693a3960bdb483245,697184ecb70e30e46047cf6b,,,,,,,,,,,,,0,,,,,,,,,,,,,,,,,,,,,,,,367.316,370.6812,0,1,2.8243,,370.6827,371.6805,0,3,3,3,1,0,calpar,REAL,FAKE,,,,,,,,,,,,,,,,,,,,,,,,,,,,,,,,
,,,,,,,,,695fc9e5ea354ea6bd7c7ba8,Spanish,13 or older,"no, only English or Spanish",click here to respond,2026-01-21_21h14.08.606,empathy_intonation_perc_control,2024.2.4,Linux x86_64,60.24096386,695fc9e5ea354ea6bd7c7ba8,69712dc693a3960bdb483245,697184ecb70e30e46047cf6b,,,,,,,,,,,,,0,,,,,,,,,,,,,,,,,,,,,,,,371.6828,373.8638,1,0,1.645,,373.8657,374.8638,0,4,4,4,1,0,joten,REAL,FAKE,,,,,,,,,,,,,,,,,,,,,,,,,,,,,,,,
,,,,,,,,,695fc9e5ea354ea6bd7c7ba8,Spanish,13 or older,"no, only English or Spanish",click here to respond,2026-01-21_21h14.08.606,empathy_intonation_perc_control,2024.2.4,Linux x86_64,60.24096386,695fc9e5ea354ea6bd7c7ba8,69712dc693a3960bdb483245,697184ecb70e30e46047cf6b,,,,,,,,,,,,,1,,,,,,,,,,,,,,,,,,,,,,,,374.8665,377.264,1,1,1.8638,,377.2658,378.2643,0,5,5,5,1,0,sacapuntas,REAL,FAKE,,,,,,,,,,,,,,,,,,,,,,,,,,,,,,,,
,,,,,,,,,695fc9e5ea354ea6bd7c7ba8,Spanish,13 or older,"no, only English or Spanish",click here to respond,2026-01-21_21h14.08.606,empathy_intonation_perc_control,2024.2.4,Linux x86_64,60.24096386,695fc9e5ea354ea6bd7c7ba8,69712dc693a3960bdb483245,697184ecb70e30e46047cf6b,,,,,,,,,,,,,0,,,,,,,,,,,,,,,,,,,,,,,,378.2674,379.7996,1,0,0.9964,,379.8013,380.7979,0,6,6,6,1,0,priba,REAL,FAKE,,,,,,,,,,,,,,,,,,,,,,,,,,,,,,,,
,,,,,,,,,695fc9e5ea354ea6bd7c7ba8,Spanish,13 or older,"no, only English or Spanish",click here to respond,2026-01-21_21h14.08.606,empathy_intonation_perc_control,2024.2.4,Linux x86_64,60.24096386,695fc9e5ea354ea6bd7c7ba8,69712dc693a3960bdb483245,697184ecb70e30e46047cf6b,,,,,,,,,,,,,0,,,,,,,,,,,,,,,,,,,,,,,,380.8003,382.4983,1,0,1.154,,382.4985,383.4978,0,7,7,7,1,0,pelasula,REAL,FAKE,,,,,,,,,,,,,,,,,,,,,,,,,,,,,,,,
,,,,,,,,,695fc9e5ea354ea6bd7c7ba8,Spanish,13 or older,"no, only English or Spanish",click here to respond,2026-01-21_21h14.08.606,empathy_intonation_perc_control,2024.2.4,Linux x86_64,60.24096386,695fc9e5ea354ea6bd7c7ba8,69712dc693a3960bdb483245,697184ecb70e30e46047cf6b,,,,,,,,,,,,,1,,,,,,,,,,,,,,,,,,,,,,,,383.5019,385.0482,1,1,1.016,,385.0502,386.0475,0,8,8,8,1,0,bien,REAL,FAKE,,,,,,,,,,,,,,,,,,,,,,,,,,,,,,,,
,,,,,,,,,695fc9e5ea354ea6bd7c7ba8,Spanish,13 or older,"no, only English or Spanish",click here to respond,2026-01-21_21h14.08.606,empathy_intonation_perc_control,2024.2.4,Linux x86_64,60.24096386,695fc9e5ea354ea6bd7c7ba8,69712dc693a3960bdb483245,697184ecb70e30e46047cf6b,,,,,,,,,,,,,1,,,,,,,,,,,,,,,,,,,,,,,,386.0499,387.5315,1,1,0.9545,,387.5316,388.5317,0,9,9,9,1,0,casa,REAL,FAKE,,,,,,,,,,,,,,,,,,,,,,,,,,,,,,,,
,,,,,,,,,695fc9e5ea354ea6bd7c7ba8,Spanish,13 or older,"no, only English or Spanish",click here to respond,2026-01-21_21h14.08.606,empathy_intonation_perc_control,2024.2.4,Linux x86_64,60.24096386,695fc9e5ea354ea6bd7c7ba8,69712dc693a3960bdb483245,697184ecb70e30e46047cf6b,,,,,,,,,,,,,0,,,,,,,,,,,,,,,,,,,,,,,,388.5332,390.2148,1,0,1.1499,,390.2165,391.2146,0,10,10,10,1,0,lejo,REAL,FAKE,,,,,,,,,,,,,,,,,,,,,,,,,,,,,,,,
,,,,,,,,,695fc9e5ea354ea6bd7c7ba8,Spanish,13 or older,"no, only English or Spanish",click here to respond,2026-01-21_21h14.08.606,empathy_intonation_perc_control,2024.2.4,Linux x86_64,60.24096386,695fc9e5ea354ea6bd7c7ba8,69712dc693a3960bdb483245,697184ecb70e30e46047cf6b,,,,,,,,,,,,,0,,,,,,,,,,,,,,,,,,,,,,,,391.2187,392.7822,1,0,1.0268,,392.7823,393.7817,0,11,11,11,1,0,pretantas,REAL,FAKE,,,,,,,,,,,,,,,,,,,,,,,,,,,,,,,,
,,,,,,,,,695fc9e5ea354ea6bd7c7ba8,Spanish,13 or older,"no, only English or Spanish",click here to respond,2026-01-21_21h14.08.606,empathy_intonation_perc_control,2024.2.4,Linux x86_64,60.24096386,695fc9e5ea354ea6bd7c7ba8,69712dc693a3960bdb483245,697184ecb70e30e46047cf6b,,,,,,,,,,,,,,,,,,,,,,,,,,,,,,,,,,,,,,,,,,,,,,,,,,,,,,393.7826,395.182,,,,,,,,,,,,,,,,,,,,,,,,,,,,,,
,,,,,,,,,695fc9e5ea354ea6bd7c7ba8,Spanish,13 or older,"no, only English or Spanish",click here to respond,2026-01-21_21h14.08.606,empathy_intonation_perc_control,2024.2.4,Linux x86_64,60.24096386,695fc9e5ea354ea6bd7c7ba8,69712dc693a3960bdb483245,697184ecb70e30e46047cf6b,,,,,,,,,,,,,0,,,,,,,,,,,,,,,,,,,,,,,,,,,,,,,,,,,,,87,grodo,,,,,395.2089,396.8328,1,0,1.0941,,0,0,0,86,1,REAL,FAKE,,,,,,,,,,,,,,,,,
,,,,,,,,,695fc9e5ea354ea6bd7c7ba8,Spanish,13 or older,"no, only English or Spanish",click here to respond,2026-01-21_21h14.08.606,empathy_intonation_perc_control,2024.2.4,Linux x86_64,60.24096386,695fc9e5ea354ea6bd7c7ba8,69712dc693a3960bdb483245,697184ecb70e30e46047cf6b,,,,,,,,,,,,,1,,,,,,,,,,,,,,,,,,,,,,,,,,,,,,,,,,,,,20,ávido,,,,,396.8366,398.6652,1,1,1.2875,,0,1,1,19,1,REAL,FAKE,,,,,,,,,,,,,,,,,
,,,,,,,,,695fc9e5ea354ea6bd7c7ba8,Spanish,13 or older,"no, only English or Spanish",click here to respond,2026-01-21_21h14.08.606,empathy_intonation_perc_control,2024.2.4,Linux x86_64,60.24096386,695fc9e5ea354ea6bd7c7ba8,69712dc693a3960bdb483245,697184ecb70e30e46047cf6b,,,,,,,,,,,,,0,,,,,,,,,,,,,,,,,,,,,,,,,,,,,,,,,,,,,1,terzo,,,,,398.6677,400.9329,1,0,1.7268,,0,2,2,0,1,REAL,FAKE,,,,,,,,,,,,,,,,,
,,,,,,,,,695fc9e5ea354ea6bd7c7ba8,Spanish,13 or older,"no, only English or Spanish",click here to respond,2026-01-21_21h14.08.606,empathy_intonation_perc_control,2024.2.4,Linux x86_64,60.24096386,695fc9e5ea354ea6bd7c7ba8,69712dc693a3960bdb483245,697184ecb70e30e46047cf6b,,,,,,,,,,,,,0,,,,,,,,,,,,,,,,,,,,,,,,,,,,,,,,,,,,,84,escuto,,,,,400.9358,402.8203,1,0,1.3411,,0,3,3,83,1,REAL,FAKE,,,,,,,,,,,,,,,,,
,,,,,,,,,695fc9e5ea354ea6bd7c7ba8,Spanish,13 or older,"no, only English or Spanish",click here to respond,2026-01-21_21h14.08.606,empathy_intonation_perc_control,2024.2.4,Linux x86_64,60.24096386,695fc9e5ea354ea6bd7c7ba8,69712dc693a3960bdb483245,697184ecb70e30e46047cf6b,,,,,,,,,,,,,1,,,,,,,,,,,,,,,,,,,,,,,,,,,,,,,,,,,,,51,candado,,,,,402.8229,404.3826,1,1,1.0278,,0,4,4,50,1,REAL,FAKE,,,,,,,,,,,,,,,,,
,,,,,,,,,695fc9e5ea354ea6bd7c7ba8,Spanish,13 or older,"no, only English or Spanish",click here to respond,2026-01-21_21h14.08.606,empathy_intonation_perc_control,2024.2.4,Linux x86_64,60.24096386,695fc9e5ea354ea6bd7c7ba8,69712dc693a3960bdb483245,697184ecb70e30e46047cf6b,,,,,,,,,,,,,1,,,,,,,,,,,,,,,,,,,,,,,,,,,,,,,,,,,,,11,cenefa,,,,,404.3859,406.3673,0,0,1.4623,,0,5,5,10,1,REAL,FAKE,,,,,,,,,,,,,,,,,
,,,,,,,,,695fc9e5ea354ea6bd7c7ba8,Spanish,13 or older,"no, only English or Spanish",click here to respond,2026-01-21_21h14.08.606,empathy_intonation_perc_control,2024.2.4,Linux x86_64,60.24096386,695fc9e5ea354ea6bd7c7ba8,69712dc693a3960bdb483245,697184ecb70e30e46047cf6b,,,,,,,,,,,,,0,,,,,,,,,,,,,,,,,,,,,,,,,,,,,,,,,,,,,72,pemición,,,,,406.3709,408.3859,0,1,1.4767,,0,6,6,71,1,REAL,FAKE,,,,,,,,,,,,,,,,,
,,,,,,,,,695fc9e5ea354ea6bd7c7ba8,Spanish,13 or older,"no, only English or Spanish",click here to respond,2026-01-21_21h14.08.606,empathy_intonation_perc_control,2024.2.4,Linux x86_64,60.24096386,695fc9e5ea354ea6bd7c7ba8,69712dc693a3960bdb483245,697184ecb70e30e46047cf6b,,,,,,,,,,,,,1,,,,,,,,,,,,,,,,,,,,,,,,,,,,,,,,,,,,,52,camisa,,,,,408.3886,410.1498,1,1,1.2169,,0,7,7,51,1,REAL,FAKE,,,,,,,,,,,,,,,,,
,,,,,,,,,695fc9e5ea354ea6bd7c7ba8,Spanish,13 or older,"no, only English or Spanish",click here to respond,2026-01-21_21h14.08.606,empathy_intonation_perc_control,2024.2.4,Linux x86_64,60.24096386,695fc9e5ea354ea6bd7c7ba8,69712dc693a3960bdb483245,697184ecb70e30e46047cf6b,,,,,,,,,,,,,1,,,,,,,,,,,,,,,,,,,,,,,,,,,,,,,,,,,,,43,canela,,,,,410.1524,411.8689,1,1,1.185,,0,8,8,42,1,REAL,FAKE,,,,,,,,,,,,,,,,,
,,,,,,,,,695fc9e5ea354ea6bd7c7ba8,Spanish,13 or older,"no, only English or Spanish",click here to respond,2026-01-21_21h14.08.606,empathy_intonation_perc_control,2024.2.4,Linux x86_64,60.24096386,695fc9e5ea354ea6bd7c7ba8,69712dc693a3960bdb483245,697184ecb70e30e46047cf6b,,,,,,,,,,,,,0,,,,,,,,,,,,,,,,,,,,,,,,,,,,,,,,,,,,,53,vegada,,,,,411.8714,413.6664,1,0,1.2591,,0,9,9,52,1,REAL,FAKE,,,,,,,,,,,,,,,,,
,,,,,,,,,695fc9e5ea354ea6bd7c7ba8,Spanish,13 or older,"no, only English or Spanish",click here to respond,2026-01-21_21h14.08.606,empathy_intonation_perc_control,2024.2.4,Linux x86_64,60.24096386,695fc9e5ea354ea6bd7c7ba8,69712dc693a3960bdb483245,697184ecb70e30e46047cf6b,,,,,,,,,,,,,0,,,,,,,,,,,,,,,,,,,,,,,,,,,,,,,,,,,,,63,esposante,,,,,413.6686,415.8016,1,0,1.5997,,0,10,10,62,1,REAL,FAKE,,,,,,,,,,,,,,,,,
,,,,,,,,,695fc9e5ea354ea6bd7c7ba8,Spanish,13 or older,"no, only English or Spanish",click here to respond,2026-01-21_21h14.08.606,empathy_intonation_perc_control,2024.2.4,Linux x86_64,60.24096386,695fc9e5ea354ea6bd7c7ba8,69712dc693a3960bdb483245,697184ecb70e30e46047cf6b,,,,,,,,,,,,,0,,,,,,,,,,,,,,,,,,,,,,,,,,,,,,,,,,,,,10,antar,,,,,415.8041,417.3175,0,1,0.9776,,0,11,11,9,1,REAL,FAKE,,,,,,,,,,,,,,,,,
,,,,,,,,,695fc9e5ea354ea6bd7c7ba8,Spanish,13 or older,"no, only English or Spanish",click here to respond,2026-01-21_21h14.08.606,empathy_intonation_perc_control,2024.2.4,Linux x86_64,60.24096386,695fc9e5ea354ea6bd7c7ba8,69712dc693a3960bdb483245,697184ecb70e30e46047cf6b,,,,,,,,,,,,,0,,,,,,,,,,,,,,,,,,,,,,,,,,,,,,,,,,,,,17,floroso,,,,,417.3198,419.1669,1,0,1.3196,,0,12,12,16,1,REAL,FAKE,,,,,,,,,,,,,,,,,
,,,,,,,,,695fc9e5ea354ea6bd7c7ba8,Spanish,13 or older,"no, only English or Spanish",click here to respond,2026-01-21_21h14.08.606,empathy_intonation_perc_control,2024.2.4,Linux x86_64,60.24096386,695fc9e5ea354ea6bd7c7ba8,69712dc693a3960bdb483245,697184ecb70e30e46047cf6b,,,,,,,,,,,,,0,,,,,,,,,,,,,,,,,,,,,,,,,,,,,,,,,,,,,70,temblo,,,,,419.1696,420.8336,1,0,1.1299,,0,13,13,69,1,REAL,FAKE,,,,,,,,,,,,,,,,,
,,,,,,,,,695fc9e5ea354ea6bd7c7ba8,Spanish,13 or older,"no, only English or Spanish",click here to respond,2026-01-21_21h14.08.606,empathy_intonation_perc_control,2024.2.4,Linux x86_64,60.24096386,695fc9e5ea354ea6bd7c7ba8,69712dc693a3960bdb483245,697184ecb70e30e46047cf6b,,,,,,,,,,,,,1,,,,,,,,,,,,,,,,,,,,,,,,,,,,,,,,,,,,,28,merodear,,,,,420.8358,423.1339,0,0,1.7559,,0,14,14,27,1,REAL,FAKE,,,,,,,,,,,,,,,,,
,,,,,,,,,695fc9e5ea354ea6bd7c7ba8,Spanish,13 or older,"no, only English or Spanish",click here to respond,2026-01-21_21h14.08.606,empathy_intonation_perc_control,2024.2.4,Linux x86_64,60.24096386,695fc9e5ea354ea6bd7c7ba8,69712dc693a3960bdb483245,697184ecb70e30e46047cf6b,,,,,,,,,,,,,0,,,,,,,,,,,,,,,,,,,,,,,,,,,,,,,,,,,,,8,cadeña,,,,,423.1365,424.9839,1,0,1.3098,,0,15,15,7,1,REAL,FAKE,,,,,,,,,,,,,,,,,
,,,,,,,,,695fc9e5ea354ea6bd7c7ba8,Spanish,13 or older,"no, only English or Spanish",click here to respond,2026-01-21_21h14.08.606,empathy_intonation_perc_control,2024.2.4,Linux x86_64,60.24096386,695fc9e5ea354ea6bd7c7ba8,69712dc693a3960bdb483245,697184ecb70e30e46047cf6b,,,,,,,,,,,,,0,,,,,,,,,,,,,,,,,,,,,,,,,,,,,,,,,,,,,42,cadallo,,,,,424.9851,426.4674,1,0,0.9457,,0,16,16,41,1,REAL,FAKE,,,,,,,,,,,,,,,,,
,,,,,,,,,695fc9e5ea354ea6bd7c7ba8,Spanish,13 or older,"no, only English or Spanish",click here to respond,2026-01-21_21h14.08.606,empathy_intonation_perc_control,2024.2.4,Linux x86_64,60.24096386,695fc9e5ea354ea6bd7c7ba8,69712dc693a3960bdb483245,697184ecb70e30e46047cf6b,,,,,,,,,,,,,1,,,,,,,,,,,,,,,,,,,,,,,,,,,,,,,,,,,,,59,besar,,,,,426.4705,428.0173,0,0,1.0078,,0,17,17,58,1,REAL,FAKE,,,,,,,,,,,,,,,,,
,,,,,,,,,695fc9e5ea354ea6bd7c7ba8,Spanish,13 or older,"no, only English or Spanish",click here to respond,2026-01-21_21h14.08.606,empathy_intonation_perc_control,2024.2.4,Linux x86_64,60.24096386,695fc9e5ea354ea6bd7c7ba8,69712dc693a3960bdb483245,697184ecb70e30e46047cf6b,,,,,,,,,,,,,0,,,,,,,,,,,,,,,,,,,,,,,,,,,,,,,,,,,,,58,plaudir,,,,,428.0207,429.4174,0,1,0.863,,0,18,18,57,1,REAL,FAKE,,,,,,,,,,,,,,,,,
,,,,,,,,,695fc9e5ea354ea6bd7c7ba8,Spanish,13 or older,"no, only English or Spanish",click here to respond,2026-01-21_21h14.08.606,empathy_intonation_perc_control,2024.2.4,Linux x86_64,60.24096386,695fc9e5ea354ea6bd7c7ba8,69712dc693a3960bdb483245,697184ecb70e30e46047cf6b,,,,,,,,,,,,,1,,,,,,,,,,,,,,,,,,,,,,,,,,,,,,,,,,,,,56,musgo,,,,,429.4204,431.3712,0,0,1.4195,,0,19,19,55,1,REAL,FAKE,,,,,,,,,,,,,,,,,
,,,,,,,,,695fc9e5ea354ea6bd7c7ba8,Spanish,13 or older,"no, only English or Spanish",click here to respond,2026-01-21_21h14.08.606,empathy_intonation_perc_control,2024.2.4,Linux x86_64,60.24096386,695fc9e5ea354ea6bd7c7ba8,69712dc693a3960bdb483245,697184ecb70e30e46047cf6b,,,,,,,,,,,,,1,,,,,,,,,,,,,,,,,,,,,,,,,,,,,,,,,,,,,7,pésimo,,,,,431.3741,432.9175,1,1,1.0046,,0,20,20,6,1,REAL,FAKE,,,,,,,,,,,,,,,,,
,,,,,,,,,695fc9e5ea354ea6bd7c7ba8,Spanish,13 or older,"no, only English or Spanish",click here to respond,2026-01-21_21h14.08.606,empathy_intonation_perc_control,2024.2.4,Linux x86_64,60.24096386,695fc9e5ea354ea6bd7c7ba8,69712dc693a3960bdb483245,697184ecb70e30e46047cf6b,,,,,,,,,,,,,1,,,,,,,,,,,,,,,,,,,,,,,,,,,,,,,,,,,,,57,tacaño,,,,,432.9215,434.3676,1,1,0.916,,0,21,21,56,1,REAL,FAKE,,,,,,,,,,,,,,,,,
,,,,,,,,,695fc9e5ea354ea6bd7c7ba8,Spanish,13 or older,"no, only English or Spanish",click here to respond,2026-01-21_21h14.08.606,empathy_intonation_perc_control,2024.2.4,Linux x86_64,60.24096386,695fc9e5ea354ea6bd7c7ba8,69712dc693a3960bdb483245,697184ecb70e30e46047cf6b,,,,,,,,,,,,,0,,,,,,,,,,,,,,,,,,,,,,,,,,,,,,,,,,,,,27,acutación,,,,,434.37,435.8203,1,0,0.9162,,0,22,22,26,1,REAL,FAKE,,,,,,,,,,,,,,,,,
,,,,,,,,,695fc9e5ea354ea6bd7c7ba8,Spanish,13 or older,"no, only English or Spanish",click here to respond,2026-01-21_21h14.08.606,empathy_intonation_perc_control,2024.2.4,Linux x86_64,60.24096386,695fc9e5ea354ea6bd7c7ba8,69712dc693a3960bdb483245,697184ecb70e30e46047cf6b,,,,,,,,,,,,,1,,,,,,,,,,,,,,,,,,,,,,,,,,,,,,,,,,,,,41,rebuscar,,,,,435.8223,437.1344,0,0,0.7699,,0,23,23,40,1,REAL,FAKE,,,,,,,,,,,,,,,,,
,,,,,,,,,695fc9e5ea354ea6bd7c7ba8,Spanish,13 or older,"no, only English or Spanish",click here to respond,2026-01-21_21h14.08.606,empathy_intonation_perc_control,2024.2.4,Linux x86_64,60.24096386,695fc9e5ea354ea6bd7c7ba8,69712dc693a3960bdb483245,697184ecb70e30e46047cf6b,,,,,,,,,,,,,0,,,,,,,,,,,,,,,,,,,,,,,,,,,,,,,,,,,,,50,flamida,,,,,437.1371,438.4846,1,0,0.8089,,0,24,24,49,1,REAL,FAKE,,,,,,,,,,,,,,,,,
,,,,,,,,,695fc9e5ea354ea6bd7c7ba8,Spanish,13 or older,"no, only English or Spanish",click here to respond,2026-01-21_21h14.08.606,empathy_intonation_perc_control,2024.2.4,Linux x86_64,60.24096386,695fc9e5ea354ea6bd7c7ba8,69712dc693a3960bdb483245,697184ecb70e30e46047cf6b,,,,,,,,,,,,,1,,,,,,,,,,,,,,,,,,,,,,,,,,,,,,,,,,,,,55,nevar,,,,,438.4872,439.9339,1,1,0.9141,,0,25,25,54,1,REAL,FAKE,,,,,,,,,,,,,,,,,
,,,,,,,,,695fc9e5ea354ea6bd7c7ba8,Spanish,13 or older,"no, only English or Spanish",click here to respond,2026-01-21_21h14.08.606,empathy_intonation_perc_control,2024.2.4,Linux x86_64,60.24096386,695fc9e5ea354ea6bd7c7ba8,69712dc693a3960bdb483245,697184ecb70e30e46047cf6b,,,,,,,,,,,,,1,,,,,,,,,,,,,,,,,,,,,,,,,,,,,,,,,,,,,44,cuchara,,,,,439.9365,441.1853,1,1,0.7085,,0,26,26,43,1,REAL,FAKE,,,,,,,,,,,,,,,,,
,,,,,,,,,695fc9e5ea354ea6bd7c7ba8,Spanish,13 or older,"no, only English or Spanish",click here to respond,2026-01-21_21h14.08.606,empathy_intonation_perc_control,2024.2.4,Linux x86_64,60.24096386,695fc9e5ea354ea6bd7c7ba8,69712dc693a3960bdb483245,697184ecb70e30e46047cf6b,,,,,,,,,,,,,0,,,,,,,,,,,,,,,,,,,,,,,,,,,,,,,,,,,,,4,batillón,,,,,441.1883,442.6176,1,0,0.8955,,0,27,27,3,1,REAL,FAKE,,,,,,,,,,,,,,,,,
,,,,,,,,,695fc9e5ea354ea6bd7c7ba8,Spanish,13 or older,"no, only English or Spanish",click here to respond,2026-01-21_21h14.08.606,empathy_intonation_perc_control,2024.2.4,Linux x86_64,60.24096386,695fc9e5ea354ea6bd7c7ba8,69712dc693a3960bdb483245,697184ecb70e30e46047cf6b,,,,,,,,,,,,,1,,,,,,,,,,,,,,,,,,,,,,,,,,,,,,,,,,,,,67,cabello,,,,,442.6203,443.952,1,1,0.7982,,0,28,28,66,1,REAL,FAKE,,,,,,,,,,,,,,,,,
,,,,,,,,,695fc9e5ea354ea6bd7c7ba8,Spanish,13 or older,"no, only English or Spanish",click here to respond,2026-01-21_21h14.08.606,empathy_intonation_perc_control,2024.2.4,Linux x86_64,60.24096386,695fc9e5ea354ea6bd7c7ba8,69712dc693a3960bdb483245,697184ecb70e30e46047cf6b,,,,,,,,,,,,,1,,,,,,,,,,,,,,,,,,,,,,,,,,,,,,,,,,,,,38,estornudar,,,,,443.9547,445.7512,1,1,1.2578,,0,29,29,37,1,REAL,FAKE,,,,,,,,,,,,,,,,,
,,,,,,,,,695fc9e5ea354ea6bd7c7ba8,Spanish,13 or older,"no, only English or Spanish",click here to respond,2026-01-21_21h14.08.606,empathy_intonation_perc_control,2024.2.4,Linux x86_64,60.24096386,695fc9e5ea354ea6bd7c7ba8,69712dc693a3960bdb483245,697184ecb70e30e46047cf6b,,,,,,,,,,,,,1,,,,,,,,,,,,,,,,,,,,,,,,,,,,,,,,,,,,,36,loro,,,,,445.7542,447.2022,0,0,0.9167,,0,30,30,35,1,REAL,FAKE,,,,,,,,,,,,,,,,,
,,,,,,,,,695fc9e5ea354ea6bd7c7ba8,Spanish,13 or older,"no, only English or Spanish",click here to respond,2026-01-21_21h14.08.606,empathy_intonation_perc_control,2024.2.4,Linux x86_64,60.24096386,695fc9e5ea354ea6bd7c7ba8,69712dc693a3960bdb483245,697184ecb70e30e46047cf6b,,,,,,,,,,,,,0,,,,,,,,,,,,,,,,,,,,,,,,,,,,,,,,,,,,,29,decar,,,,,447.2046,448.5027,0,1,0.7618,,0,31,31,28,1,REAL,FAKE,,,,,,,,,,,,,,,,,
,,,,,,,,,695fc9e5ea354ea6bd7c7ba8,Spanish,13 or older,"no, only English or Spanish",click here to respond,2026-01-21_21h14.08.606,empathy_intonation_perc_control,2024.2.4,Linux x86_64,60.24096386,695fc9e5ea354ea6bd7c7ba8,69712dc693a3960bdb483245,697184ecb70e30e46047cf6b,,,,,,,,,,,,,1,,,,,,,,,,,,,,,,,,,,,,,,,,,,,,,,,,,,,9,hacha,,,,,448.5057,449.7682,1,1,0.7334,,0,32,32,8,1,REAL,FAKE,,,,,,,,,,,,,,,,,
,,,,,,,,,695fc9e5ea354ea6bd7c7ba8,Spanish,13 or older,"no, only English or Spanish",click here to respond,2026-01-21_21h14.08.606,empathy_intonation_perc_control,2024.2.4,Linux x86_64,60.24096386,695fc9e5ea354ea6bd7c7ba8,69712dc693a3960bdb483245,697184ecb70e30e46047cf6b,,,,,,,,,,,,,1,,,,,,,,,,,,,,,,,,,,,,,,,,,,,,,,,,,,,14,yunque,,,,,449.7705,451.2029,0,0,0.8949,,0,33,33,13,1,REAL,FAKE,,,,,,,,,,,,,,,,,
,,,,,,,,,695fc9e5ea354ea6bd7c7ba8,Spanish,13 or older,"no, only English or Spanish",click here to respond,2026-01-21_21h14.08.606,empathy_intonation_perc_control,2024.2.4,Linux x86_64,60.24096386,695fc9e5ea354ea6bd7c7ba8,69712dc693a3960bdb483245,697184ecb70e30e46047cf6b,,,,,,,,,,,,,1,,,,,,,,,,,,,,,,,,,,,,,,,,,,,,,,,,,,,49,ganar,,,,,451.206,452.5187,1,1,0.7908,,0,34,34,48,1,REAL,FAKE,,,,,,,,,,,,,,,,,
,,,,,,,,,695fc9e5ea354ea6bd7c7ba8,Spanish,13 or older,"no, only English or Spanish",click here to respond,2026-01-21_21h14.08.606,empathy_intonation_perc_control,2024.2.4,Linux x86_64,60.24096386,695fc9e5ea354ea6bd7c7ba8,69712dc693a3960bdb483245,697184ecb70e30e46047cf6b,,,,,,,,,,,,,1,,,,,,,,,,,,,,,,,,,,,,,,,,,,,,,,,,,,,34,aviso,,,,,452.5215,453.2683,0,0,0.2101,,0,35,35,33,1,REAL,FAKE,,,,,,,,,,,,,,,,,
,,,,,,,,,695fc9e5ea354ea6bd7c7ba8,Spanish,13 or older,"no, only English or Spanish",click here to respond,2026-01-21_21h14.08.606,empathy_intonation_perc_control,2024.2.4,Linux x86_64,60.24096386,695fc9e5ea354ea6bd7c7ba8,69712dc693a3960bdb483245,697184ecb70e30e46047cf6b,,,,,,,,,,,,,1,,,,,,,,,,,,,,,,,,,,,,,,,,,,,,,,,,,,,62,flaco,,,,,453.2707,454.6019,1,1,0.8123,,0,36,36,61,1,REAL,FAKE,,,,,,,,,,,,,,,,,
,,,,,,,,,695fc9e5ea354ea6bd7c7ba8,Spanish,13 or older,"no, only English or Spanish",click here to respond,2026-01-21_21h14.08.606,empathy_intonation_perc_control,2024.2.4,Linux x86_64,60.24096386,695fc9e5ea354ea6bd7c7ba8,69712dc693a3960bdb483245,697184ecb70e30e46047cf6b,,,,,,,,,,,,,0,,,,,,,,,,,,,,,,,,,,,,,,,,,,,,,,,,,,,79,tropaje,,,,,454.6045,456.0185,1,0,0.8748,,0,37,37,78,1,REAL,FAKE,,,,,,,,,,,,,,,,,
,,,,,,,,,695fc9e5ea354ea6bd7c7ba8,Spanish,13 or older,"no, only English or Spanish",click here to respond,2026-01-21_21h14.08.606,empathy_intonation_perc_control,2024.2.4,Linux x86_64,60.24096386,695fc9e5ea354ea6bd7c7ba8,69712dc693a3960bdb483245,697184ecb70e30e46047cf6b,,,,,,,,,,,,,1,,,,,,,,,,,,,,,,,,,,,,,,,,,,,,,,,,,,,61,seda,,,,,456.0207,457.5192,1,1,0.9645,,0,38,38,60,1,REAL,FAKE,,,,,,,,,,,,,,,,,
,,,,,,,,,695fc9e5ea354ea6bd7c7ba8,Spanish,13 or older,"no, only English or Spanish",click here to respond,2026-01-21_21h14.08.606,empathy_intonation_perc_control,2024.2.4,Linux x86_64,60.24096386,695fc9e5ea354ea6bd7c7ba8,69712dc693a3960bdb483245,697184ecb70e30e46047cf6b,,,,,,,,,,,,,0,,,,,,,,,,,,,,,,,,,,,,,,,,,,,,,,,,,,,23,lampera,,,,,457.5219,459.02,1,0,0.9671,,0,39,39,22,1,REAL,FAKE,,,,,,,,,,,,,,,,,
,,,,,,,,,695fc9e5ea354ea6bd7c7ba8,Spanish,13 or older,"no, only English or Spanish",click here to respond,2026-01-21_21h14.08.606,empathy_intonation_perc_control,2024.2.4,Linux x86_64,60.24096386,695fc9e5ea354ea6bd7c7ba8,69712dc693a3960bdb483245,697184ecb70e30e46047cf6b,,,,,,,,,,,,,1,,,,,,,,,,,,,,,,,,,,,,,,,,,,,,,,,,,,,80,hormiga,,,,,459.0228,461.0221,1,1,1.4589,,0,40,40,79,1,REAL,FAKE,,,,,,,,,,,,,,,,,
,,,,,,,,,695fc9e5ea354ea6bd7c7ba8,Spanish,13 or older,"no, only English or Spanish",click here to respond,2026-01-21_21h14.08.606,empathy_intonation_perc_control,2024.2.4,Linux x86_64,60.24096386,695fc9e5ea354ea6bd7c7ba8,69712dc693a3960bdb483245,697184ecb70e30e46047cf6b,,,,,,,,,,,,,0,,,,,,,,,,,,,,,,,,,,,,,,,,,,,,,,,,,,,16,abracer,,,,,461.0243,462.5539,0,1,0.997,,0,41,41,15,1,REAL,FAKE,,,,,,,,,,,,,,,,,
,,,,,,,,,695fc9e5ea354ea6bd7c7ba8,Spanish,13 or older,"no, only English or Spanish",click here to respond,2026-01-21_21h14.08.606,empathy_intonation_perc_control,2024.2.4,Linux x86_64,60.24096386,695fc9e5ea354ea6bd7c7ba8,69712dc693a3960bdb483245,697184ecb70e30e46047cf6b,,,,,,,,,,,,,1,,,,,,,,,,,,,,,,,,,,,,,,,,,,,,,,,,,,,12,asesinato,,,,,462.5565,464.3196,1,1,1.2307,,0,42,42,11,1,REAL,FAKE,,,,,,,,,,,,,,,,,
,,,,,,,,,695fc9e5ea354ea6bd7c7ba8,Spanish,13 or older,"no, only English or Spanish",click here to respond,2026-01-21_21h14.08.606,empathy_intonation_perc_control,2024.2.4,Linux x86_64,60.24096386,695fc9e5ea354ea6bd7c7ba8,69712dc693a3960bdb483245,697184ecb70e30e46047cf6b,,,,,,,,,,,,,1,,,,,,,,,,,,,,,,,,,,,,,,,,,,,,,,,,,,,68,alegre,,,,,464.3242,466.0045,0,0,1.1443,,0,43,43,67,1,REAL,FAKE,,,,,,,,,,,,,,,,,
,,,,,,,,,695fc9e5ea354ea6bd7c7ba8,Spanish,13 or older,"no, only English or Spanish",click here to respond,2026-01-21_21h14.08.606,empathy_intonation_perc_control,2024.2.4,Linux x86_64,60.24096386,695fc9e5ea354ea6bd7c7ba8,69712dc693a3960bdb483245,697184ecb70e30e46047cf6b,,,,,,,,,,,,,0,,,,,,,,,,,,,,,,,,,,,,,,,,,,,,,,,,,,,47,cartinar,,,,,466.0077,467.5545,0,1,1.0165,,0,44,44,46,1,REAL,FAKE,,,,,,,,,,,,,,,,,
,,,,,,,,,695fc9e5ea354ea6bd7c7ba8,Spanish,13 or older,"no, only English or Spanish",click here to respond,2026-01-21_21h14.08.606,empathy_intonation_perc_control,2024.2.4,Linux x86_64,60.24096386,695fc9e5ea354ea6bd7c7ba8,69712dc693a3960bdb483245,697184ecb70e30e46047cf6b,,,,,,,,,,,,,1,,,,,,,,,,,,,,,,,,,,,,,,,,,,,,,,,,,,,22,lacayo,,,,,467.5569,470.202,1,1,2.1081,,0,45,45,21,1,REAL,FAKE,,,,,,,,,,,,,,,,,
,,,,,,,,,695fc9e5ea354ea6bd7c7ba8,Spanish,13 or older,"no, only English or Spanish",click here to respond,2026-01-21_21h14.08.606,empathy_intonation_perc_control,2024.2.4,Linux x86_64,60.24096386,695fc9e5ea354ea6bd7c7ba8,69712dc693a3960bdb483245,697184ecb70e30e46047cf6b,,,,,,,,,,,,,1,,,,,,,,,,,,,,,,,,,,,,,,,,,,,,,,,,,,,76,atar,,,,,470.206,471.6866,0,0,0.9505,,0,46,46,75,1,REAL,FAKE,,,,,,,,,,,,,,,,,
,,,,,,,,,695fc9e5ea354ea6bd7c7ba8,Spanish,13 or older,"no, only English or Spanish",click here to respond,2026-01-21_21h14.08.606,empathy_intonation_perc_control,2024.2.4,Linux x86_64,60.24096386,695fc9e5ea354ea6bd7c7ba8,69712dc693a3960bdb483245,697184ecb70e30e46047cf6b,,,,,,,,,,,,,1,,,,,,,,,,,,,,,,,,,,,,,,,,,,,,,,,,,,,69,engatusar,,,,,471.689,473.1535,0,0,0.9304,,0,47,47,68,1,REAL,FAKE,,,,,,,,,,,,,,,,,
,,,,,,,,,695fc9e5ea354ea6bd7c7ba8,Spanish,13 or older,"no, only English or Spanish",click here to respond,2026-01-21_21h14.08.606,empathy_intonation_perc_control,2024.2.4,Linux x86_64,60.24096386,695fc9e5ea354ea6bd7c7ba8,69712dc693a3960bdb483245,697184ecb70e30e46047cf6b,,,,,,,,,,,,,1,,,,,,,,,,,,,,,,,,,,,,,,,,,,,,,,,,,,,31,pandilla,,,,,473.1557,474.4534,1,1,0.7572,,0,48,48,30,1,REAL,FAKE,,,,,,,,,,,,,,,,,
,,,,,,,,,695fc9e5ea354ea6bd7c7ba8,Spanish,13 or older,"no, only English or Spanish",click here to respond,2026-01-21_21h14.08.606,empathy_intonation_perc_control,2024.2.4,Linux x86_64,60.24096386,695fc9e5ea354ea6bd7c7ba8,69712dc693a3960bdb483245,697184ecb70e30e46047cf6b,,,,,,,,,,,,,1,,,,,,,,,,,,,,,,,,,,,,,,,,,,,,,,,,,,,48,ladrón,,,,,474.456,475.5355,1,1,0.5497,,0,49,49,47,1,REAL,FAKE,,,,,,,,,,,,,,,,,
,,,,,,,,,695fc9e5ea354ea6bd7c7ba8,Spanish,13 or older,"no, only English or Spanish",click here to respond,2026-01-21_21h14.08.606,empathy_intonation_perc_control,2024.2.4,Linux x86_64,60.24096386,695fc9e5ea354ea6bd7c7ba8,69712dc693a3960bdb483245,697184ecb70e30e46047cf6b,,,,,,,,,,,,,0,,,,,,,,,,,,,,,,,,,,,,,,,,,,,,,,,,,,,19,brecedad,,,,,475.5364,477.086,0,1,1.0309,,0,50,50,18,1,REAL,FAKE,,,,,,,,,,,,,,,,,
,,,,,,,,,695fc9e5ea354ea6bd7c7ba8,Spanish,13 or older,"no, only English or Spanish",click here to respond,2026-01-21_21h14.08.606,empathy_intonation_perc_control,2024.2.4,Linux x86_64,60.24096386,695fc9e5ea354ea6bd7c7ba8,69712dc693a3960bdb483245,697184ecb70e30e46047cf6b,,,,,,,,,,,,,0,,,,,,,,,,,,,,,,,,,,,,,,,,,,,,,,,,,,,33,pauca,,,,,477.0868,478.4035,1,0,0.785,,0,51,51,32,1,REAL,FAKE,,,,,,,,,,,,,,,,,
,,,,,,,,,695fc9e5ea354ea6bd7c7ba8,Spanish,13 or older,"no, only English or Spanish",click here to respond,2026-01-21_21h14.08.606,empathy_intonation_perc_control,2024.2.4,Linux x86_64,60.24096386,695fc9e5ea354ea6bd7c7ba8,69712dc693a3960bdb483245,697184ecb70e30e46047cf6b,,,,,,,,,,,,,1,,,,,,,,,,,,,,,,,,,,,,,,,,,,,,,,,,,,,85,laúd,,,,,478.4071,479.7542,0,0,0.8192,,0,52,52,84,1,REAL,FAKE,,,,,,,,,,,,,,,,,
,,,,,,,,,695fc9e5ea354ea6bd7c7ba8,Spanish,13 or older,"no, only English or Spanish",click here to respond,2026-01-21_21h14.08.606,empathy_intonation_perc_control,2024.2.4,Linux x86_64,60.24096386,695fc9e5ea354ea6bd7c7ba8,69712dc693a3960bdb483245,697184ecb70e30e46047cf6b,,,,,,,,,,,,,1,,,,,,,,,,,,,,,,,,,,,,,,,,,,,,,,,,,,,73,hervidor,,,,,479.7564,481.4208,1,1,1.1216,,0,53,53,72,1,REAL,FAKE,,,,,,,,,,,,,,,,,
,,,,,,,,,695fc9e5ea354ea6bd7c7ba8,Spanish,13 or older,"no, only English or Spanish",click here to respond,2026-01-21_21h14.08.606,empathy_intonation_perc_control,2024.2.4,Linux x86_64,60.24096386,695fc9e5ea354ea6bd7c7ba8,69712dc693a3960bdb483245,697184ecb70e30e46047cf6b,,,,,,,,,,,,,0,,,,,,,,,,,,,,,,,,,,,,,,,,,,,,,,,,,,,66,hacido,,,,,481.4236,484.4253,1,0,2.4706,,0,54,54,65,1,REAL,FAKE,,,,,,,,,,,,,,,,,
,,,,,,,,,695fc9e5ea354ea6bd7c7ba8,Spanish,13 or older,"no, only English or Spanish",click here to respond,2026-01-21_21h14.08.606,empathy_intonation_perc_control,2024.2.4,Linux x86_64,60.24096386,695fc9e5ea354ea6bd7c7ba8,69712dc693a3960bdb483245,697184ecb70e30e46047cf6b,,,,,,,,,,,,,1,,,,,,,,,,,,,,,,,,,,,,,,,,,,,,,,,,,,,90,clavel,,,,,484.4312,485.8206,0,0,0.8569,,0,55,55,89,1,REAL,FAKE,,,,,,,,,,,,,,,,,
,,,,,,,,,695fc9e5ea354ea6bd7c7ba8,Spanish,13 or older,"no, only English or Spanish",click here to respond,2026-01-21_21h14.08.606,empathy_intonation_perc_control,2024.2.4,Linux x86_64,60.24096386,695fc9e5ea354ea6bd7c7ba8,69712dc693a3960bdb483245,697184ecb70e30e46047cf6b,,,,,,,,,,,,,1,,,,,,,,,,,,,,,,,,,,,,,,,,,,,,,,,,,,,24,látigo,,,,,485.8228,487.8706,1,1,1.51,,0,56,56,23,1,REAL,FAKE,,,,,,,,,,,,,,,,,
,,,,,,,,,695fc9e5ea354ea6bd7c7ba8,Spanish,13 or older,"no, only English or Spanish",click here to respond,2026-01-21_21h14.08.606,empathy_intonation_perc_control,2024.2.4,Linux x86_64,60.24096386,695fc9e5ea354ea6bd7c7ba8,69712dc693a3960bdb483245,697184ecb70e30e46047cf6b,,,,,,,,,,,,,1,,,,,,,,,,,,,,,,,,,,,,,,,,,,,,,,,,,,,88,acantilado,,,,,487.8736,489.2723,1,1,0.861,,0,57,57,87,1,REAL,FAKE,,,,,,,,,,,,,,,,,
,,,,,,,,,695fc9e5ea354ea6bd7c7ba8,Spanish,13 or older,"no, only English or Spanish",click here to respond,2026-01-21_21h14.08.606,empathy_intonation_perc_control,2024.2.4,Linux x86_64,60.24096386,695fc9e5ea354ea6bd7c7ba8,69712dc693a3960bdb483245,697184ecb70e30e46047cf6b,,,,,,,,,,,,,1,,,,,,,,,,,,,,,,,,,,,,,,,,,,,,,,,,,,,81,pozo,,,,,489.2749,490.7908,1,1,0.9852,,0,58,58,80,1,REAL,FAKE,,,,,,,,,,,,,,,,,
,,,,,,,,,695fc9e5ea354ea6bd7c7ba8,Spanish,13 or older,"no, only English or Spanish",click here to respond,2026-01-21_21h14.08.606,empathy_intonation_perc_control,2024.2.4,Linux x86_64,60.24096386,695fc9e5ea354ea6bd7c7ba8,69712dc693a3960bdb483245,697184ecb70e30e46047cf6b,,,,,,,,,,,,,0,,,,,,,,,,,,,,,,,,,,,,,,,,,,,,,,,,,,,18,arsa,,,,,490.7953,492.1707,1,0,0.8496,,0,59,59,17,1,REAL,FAKE,,,,,,,,,,,,,,,,,
,,,,,,,,,695fc9e5ea354ea6bd7c7ba8,Spanish,13 or older,"no, only English or Spanish",click here to respond,2026-01-21_21h14.08.606,empathy_intonation_perc_control,2024.2.4,Linux x86_64,60.24096386,695fc9e5ea354ea6bd7c7ba8,69712dc693a3960bdb483245,697184ecb70e30e46047cf6b,,,,,,,,,,,,,1,,,,,,,,,,,,,,,,,,,,,,,,,,,,,,,,,,,,,54,fomentar,,,,,492.174,493.8039,1,1,1.0933,,0,60,60,53,1,REAL,FAKE,,,,,,,,,,,,,,,,,
,,,,,,,,,695fc9e5ea354ea6bd7c7ba8,Spanish,13 or older,"no, only English or Spanish",click here to respond,2026-01-21_21h14.08.606,empathy_intonation_perc_control,2024.2.4,Linux x86_64,60.24096386,695fc9e5ea354ea6bd7c7ba8,69712dc693a3960bdb483245,697184ecb70e30e46047cf6b,,,,,,,,,,,,,1,,,,,,,,,,,,,,,,,,,,,,,,,,,,,,,,,,,,,60,matar,,,,,493.8063,495.1209,1,1,0.7814,,0,61,61,59,1,REAL,FAKE,,,,,,,,,,,,,,,,,
,,,,,,,,,695fc9e5ea354ea6bd7c7ba8,Spanish,13 or older,"no, only English or Spanish",click here to respond,2026-01-21_21h14.08.606,empathy_intonation_perc_control,2024.2.4,Linux x86_64,60.24096386,695fc9e5ea354ea6bd7c7ba8,69712dc693a3960bdb483245,697184ecb70e30e46047cf6b,,,,,,,,,,,,,1,,,,,,,,,,,,,,,,,,,,,,,,,,,,,,,,,,,,,15,regar,,,,,495.1243,496.3912,1,1,0.7321,,0,62,62,14,1,REAL,FAKE,,,,,,,,,,,,,,,,,
,,,,,,,,,695fc9e5ea354ea6bd7c7ba8,Spanish,13 or older,"no, only English or Spanish",click here to respond,2026-01-21_21h14.08.606,empathy_intonation_perc_control,2024.2.4,Linux x86_64,60.24096386,695fc9e5ea354ea6bd7c7ba8,69712dc693a3960bdb483245,697184ecb70e30e46047cf6b,,,,,,,,,,,,,1,,,,,,,,,,,,,,,,,,,,,,,,,,,,,,,,,,,,,91,click the 1 key.,,,,,496.3943,498.6714,1,1,1.7506,,0,63,63,90,1,REAL,FAKE,,,,,,,,,,,,,,,,,
,,,,,,,,,695fc9e5ea354ea6bd7c7ba8,Spanish,13 or older,"no, only English or Spanish",click here to respond,2026-01-21_21h14.08.606,empathy_intonation_perc_control,2024.2.4,Linux x86_64,60.24096386,695fc9e5ea354ea6bd7c7ba8,69712dc693a3960bdb483245,697184ecb70e30e46047cf6b,,,,,,,,,,,,,1,,,,,,,,,,,,,,,,,,,,,,,,,,,,,,,,,,,,,13,helar,,,,,498.6739,500.7045,1,1,1.4929,,0,64,64,12,1,REAL,FAKE,,,,,,,,,,,,,,,,,
,,,,,,,,,695fc9e5ea354ea6bd7c7ba8,Spanish,13 or older,"no, only English or Spanish",click here to respond,2026-01-21_21h14.08.606,empathy_intonation_perc_control,2024.2.4,Linux x86_64,60.24096386,695fc9e5ea354ea6bd7c7ba8,69712dc693a3960bdb483245,697184ecb70e30e46047cf6b,,,,,,,,,,,,,1,,,,,,,,,,,,,,,,,,,,,,,,,,,,,,,,,,,,,40,alfombra,,,,,500.7071,502.8713,0,0,1.6248,,0,65,65,39,1,REAL,FAKE,,,,,,,,,,,,,,,,,
,,,,,,,,,695fc9e5ea354ea6bd7c7ba8,Spanish,13 or older,"no, only English or Spanish",click here to respond,2026-01-21_21h14.08.606,empathy_intonation_perc_control,2024.2.4,Linux x86_64,60.24096386,695fc9e5ea354ea6bd7c7ba8,69712dc693a3960bdb483245,697184ecb70e30e46047cf6b,,,,,,,,,,,,,1,,,,,,,,,,,,,,,,,,,,,,,,,,,,,,,,,,,,,6,tergiversar,,,,,502.8748,505.4218,0,0,2.0027,,0,66,66,5,1,REAL,FAKE,,,,,,,,,,,,,,,,,
,,,,,,,,,695fc9e5ea354ea6bd7c7ba8,Spanish,13 or older,"no, only English or Spanish",click here to respond,2026-01-21_21h14.08.606,empathy_intonation_perc_control,2024.2.4,Linux x86_64,60.24096386,695fc9e5ea354ea6bd7c7ba8,69712dc693a3960bdb483245,697184ecb70e30e46047cf6b,,,,,,,,,,,,,1,,,,,,,,,,,,,,,,,,,,,,,,,,,,,,,,,,,,,77,tiburón,,,,,505.4248,507.0881,1,1,1.1354,,0,67,67,76,1,REAL,FAKE,,,,,,,,,,,,,,,,,
,,,,,,,,,695fc9e5ea354ea6bd7c7ba8,Spanish,13 or older,"no, only English or Spanish",click here to respond,2026-01-21_21h14.08.606,empathy_intonation_perc_control,2024.2.4,Linux x86_64,60.24096386,695fc9e5ea354ea6bd7c7ba8,69712dc693a3960bdb483245,697184ecb70e30e46047cf6b,,,,,,,,,,,,,1,,,,,,,,,,,,,,,,,,,,,,,,,,,,,,,,,,,,,5,zapato,,,,,507.0907,508.5049,1,1,0.8747,,0,68,68,4,1,REAL,FAKE,,,,,,,,,,,,,,,,,
,,,,,,,,,695fc9e5ea354ea6bd7c7ba8,Spanish,13 or older,"no, only English or Spanish",click here to respond,2026-01-21_21h14.08.606,empathy_intonation_perc_control,2024.2.4,Linux x86_64,60.24096386,695fc9e5ea354ea6bd7c7ba8,69712dc693a3960bdb483245,697184ecb70e30e46047cf6b,,,,,,,,,,,,,1,,,,,,,,,,,,,,,,,,,,,,,,,,,,,,,,,,,,,39,torpe,,,,,508.5073,509.9217,1,1,0.868,,0,69,69,38,1,REAL,FAKE,,,,,,,,,,,,,,,,,
,,,,,,,,,695fc9e5ea354ea6bd7c7ba8,Spanish,13 or older,"no, only English or Spanish",click here to respond,2026-01-21_21h14.08.606,empathy_intonation_perc_control,2024.2.4,Linux x86_64,60.24096386,695fc9e5ea354ea6bd7c7ba8,69712dc693a3960bdb483245,697184ecb70e30e46047cf6b,,,,,,,,,,,,,1,,,,,,,,,,,,,,,,,,,,,,,,,,,,,,,,,,,,,89,prisa,,,,,509.9241,511.2714,1,1,0.7915,,0,70,70,88,1,REAL,FAKE,,,,,,,,,,,,,,,,,
,,,,,,,,,695fc9e5ea354ea6bd7c7ba8,Spanish,13 or older,"no, only English or Spanish",click here to respond,2026-01-21_21h14.08.606,empathy_intonation_perc_control,2024.2.4,Linux x86_64,60.24096386,695fc9e5ea354ea6bd7c7ba8,69712dc693a3960bdb483245,697184ecb70e30e46047cf6b,,,,,,,,,,,,,1,,,,,,,,,,,,,,,,,,,,,,,,,,,,,,,,,,,,,2,pellizcar,,,,,511.2732,512.9716,0,0,1.146,,0,71,71,1,1,REAL,FAKE,,,,,,,,,,,,,,,,,
,,,,,,,,,695fc9e5ea354ea6bd7c7ba8,Spanish,13 or older,"no, only English or Spanish",click here to respond,2026-01-21_21h14.08.606,empathy_intonation_perc_control,2024.2.4,Linux x86_64,60.24096386,695fc9e5ea354ea6bd7c7ba8,69712dc693a3960bdb483245,697184ecb70e30e46047cf6b,,,,,,,,,,,,,1,,,,,,,,,,,,,,,,,,,,,,,,,,,,,,,,,,,,,26,secuestro,,,,,512.9751,514.8726,1,1,1.3595,,0,72,72,25,1,REAL,FAKE,,,,,,,,,,,,,,,,,
,,,,,,,,,695fc9e5ea354ea6bd7c7ba8,Spanish,13 or older,"no, only English or Spanish",click here to respond,2026-01-21_21h14.08.606,empathy_intonation_perc_control,2024.2.4,Linux x86_64,60.24096386,695fc9e5ea354ea6bd7c7ba8,69712dc693a3960bdb483245,697184ecb70e30e46047cf6b,,,,,,,,,,,,,1,,,,,,,,,,,,,,,,,,,,,,,,,,,,,,,,,,,,,65,bizcocho,,,,,514.8749,516.472,1,1,1.0607,,0,73,73,64,1,REAL,FAKE,,,,,,,,,,,,,,,,,
,,,,,,,,,695fc9e5ea354ea6bd7c7ba8,Spanish,13 or older,"no, only English or Spanish",click here to respond,2026-01-21_21h14.08.606,empathy_intonation_perc_control,2024.2.4,Linux x86_64,60.24096386,695fc9e5ea354ea6bd7c7ba8,69712dc693a3960bdb483245,697184ecb70e30e46047cf6b,,,,,,,,,,,,,1,,,,,,,,,,,,,,,,,,,,,,,,,,,,,,,,,,,,,78,frondoso,,,,,516.4744,518.0221,1,1,1.0046,,0,74,74,77,1,REAL,FAKE,,,,,,,,,,,,,,,,,
,,,,,,,,,695fc9e5ea354ea6bd7c7ba8,Spanish,13 or older,"no, only English or Spanish",click here to respond,2026-01-21_21h14.08.606,empathy_intonation_perc_control,2024.2.4,Linux x86_64,60.24096386,695fc9e5ea354ea6bd7c7ba8,69712dc693a3960bdb483245,697184ecb70e30e46047cf6b,,,,,,,,,,,,,0,,,,,,,,,,,,,,,,,,,,,,,,,,,,,,,,,,,,,21,capillo,,,,,518.0244,519.2723,1,0,0.7093,,0,75,75,20,1,REAL,FAKE,,,,,,,,,,,,,,,,,
,,,,,,,,,695fc9e5ea354ea6bd7c7ba8,Spanish,13 or older,"no, only English or Spanish",click here to respond,2026-01-21_21h14.08.606,empathy_intonation_perc_control,2024.2.4,Linux x86_64,60.24096386,695fc9e5ea354ea6bd7c7ba8,69712dc693a3960bdb483245,697184ecb70e30e46047cf6b,,,,,,,,,,,,,1,,,,,,,,,,,,,,,,,,,,,,,,,,,,,,,,,,,,,46,martillo,,,,,519.2748,520.4055,1,1,0.5935,,0,76,76,45,1,REAL,FAKE,,,,,,,,,,,,,,,,,
,,,,,,,,,695fc9e5ea354ea6bd7c7ba8,Spanish,13 or older,"no, only English or Spanish",click here to respond,2026-01-21_21h14.08.606,empathy_intonation_perc_control,2024.2.4,Linux x86_64,60.24096386,695fc9e5ea354ea6bd7c7ba8,69712dc693a3960bdb483245,697184ecb70e30e46047cf6b,,,,,,,,,,,,,0,,,,,,,,,,,,,,,,,,,,,,,,,,,,,,,,,,,,,30,alardio,,,,,520.4077,521.5558,1,0,0.6124,,0,77,77,29,1,REAL,FAKE,,,,,,,,,,,,,,,,,
,,,,,,,,,695fc9e5ea354ea6bd7c7ba8,Spanish,13 or older,"no, only English or Spanish",click here to respond,2026-01-21_21h14.08.606,empathy_intonation_perc_control,2024.2.4,Linux x86_64,60.24096386,695fc9e5ea354ea6bd7c7ba8,69712dc693a3960bdb483245,697184ecb70e30e46047cf6b,,,,,,,,,,,,,1,,,,,,,,,,,,,,,,,,,,,,,,,,,,,,,,,,,,,75,yacer,,,,,521.5583,523.1888,1,1,1.0603,,0,78,78,74,1,REAL,FAKE,,,,,,,,,,,,,,,,,
,,,,,,,,,695fc9e5ea354ea6bd7c7ba8,Spanish,13 or older,"no, only English or Spanish",click here to respond,2026-01-21_21h14.08.606,empathy_intonation_perc_control,2024.2.4,Linux x86_64,60.24096386,695fc9e5ea354ea6bd7c7ba8,69712dc693a3960bdb483245,697184ecb70e30e46047cf6b,,,,,,,,,,,,,1,,,,,,,,,,,,,,,,,,,,,,,,,,,,,,,,,,,,,64,orgulloso,,,,,523.1912,524.439,0,0,0.7278,,0,79,79,63,1,REAL,FAKE,,,,,,,,,,,,,,,,,
,,,,,,,,,695fc9e5ea354ea6bd7c7ba8,Spanish,13 or older,"no, only English or Spanish",click here to respond,2026-01-21_21h14.08.606,empathy_intonation_perc_control,2024.2.4,Linux x86_64,60.24096386,695fc9e5ea354ea6bd7c7ba8,69712dc693a3960bdb483245,697184ecb70e30e46047cf6b,,,,,,,,,,,,,0,,,,,,,,,,,,,,,,,,,,,,,,,,,,,,,,,,,,,35,rompido,,,,,524.4413,525.8222,0,1,0.8436,,0,80,80,34,1,REAL,FAKE,,,,,,,,,,,,,,,,,
,,,,,,,,,695fc9e5ea354ea6bd7c7ba8,Spanish,13 or older,"no, only English or Spanish",click here to respond,2026-01-21_21h14.08.606,empathy_intonation_perc_control,2024.2.4,Linux x86_64,60.24096386,695fc9e5ea354ea6bd7c7ba8,69712dc693a3960bdb483245,697184ecb70e30e46047cf6b,,,,,,,,,,,,,1,,,,,,,,,,,,,,,,,,,,,,,,,,,,,,,,,,,,,45,jilguero,,,,,525.8245,527.3402,1,1,0.9832,,0,81,81,44,1,REAL,FAKE,,,,,,,,,,,,,,,,,
,,,,,,,,,695fc9e5ea354ea6bd7c7ba8,Spanish,13 or older,"no, only English or Spanish",click here to respond,2026-01-21_21h14.08.606,empathy_intonation_perc_control,2024.2.4,Linux x86_64,60.24096386,695fc9e5ea354ea6bd7c7ba8,69712dc693a3960bdb483245,697184ecb70e30e46047cf6b,,,,,,,,,,,,,0,,,,,,,,,,,,,,,,,,,,,,,,,,,,,,,,,,,,,82,empirador,,,,,527.3432,528.7894,1,0,0.9121,,0,82,82,81,1,REAL,FAKE,,,,,,,,,,,,,,,,,
,,,,,,,,,695fc9e5ea354ea6bd7c7ba8,Spanish,13 or older,"no, only English or Spanish",click here to respond,2026-01-21_21h14.08.606,empathy_intonation_perc_control,2024.2.4,Linux x86_64,60.24096386,695fc9e5ea354ea6bd7c7ba8,69712dc693a3960bdb483245,697184ecb70e30e46047cf6b,,,,,,,,,,,,,0,,,,,,,,,,,,,,,,,,,,,,,,,,,,,,,,,,,,,74,cintro,,,,,528.792,530.1227,1,0,0.813,,0,83,83,73,1,REAL,FAKE,,,,,,,,,,,,,,,,,
,,,,,,,,,695fc9e5ea354ea6bd7c7ba8,Spanish,13 or older,"no, only English or Spanish",click here to respond,2026-01-21_21h14.08.606,empathy_intonation_perc_control,2024.2.4,Linux x86_64,60.24096386,695fc9e5ea354ea6bd7c7ba8,69712dc693a3960bdb483245,697184ecb70e30e46047cf6b,,,,,,,,,,,,,1,,,,,,,,,,,,,,,,,,,,,,,,,,,,,,,,,,,,,37,granuja,,,,,530.1252,531.4245,1,1,0.7596,,0,84,84,36,1,REAL,FAKE,,,,,,,,,,,,,,,,,
,,,,,,,,,695fc9e5ea354ea6bd7c7ba8,Spanish,13 or older,"no, only English or Spanish",click here to respond,2026-01-21_21h14.08.606,empathy_intonation_perc_control,2024.2.4,Linux x86_64,60.24096386,695fc9e5ea354ea6bd7c7ba8,69712dc693a3960bdb483245,697184ecb70e30e46047cf6b,,,,,,,,,,,,,1,,,,,,,,,,,,,,,,,,,,,,,,,,,,,,,,,,,,,86,barato,,,,,531.427,532.7949,1,1,0.8327,,0,85,85,85,1,REAL,FAKE,,,,,,,,,,,,,,,,,
,,,,,,,,,695fc9e5ea354ea6bd7c7ba8,Spanish,13 or older,"no, only English or Spanish",click here to respond,2026-01-21_21h14.08.606,empathy_intonation_perc_control,2024.2.4,Linux x86_64,60.24096386,695fc9e5ea354ea6bd7c7ba8,69712dc693a3960bdb483245,697184ecb70e30e46047cf6b,,,,,,,,,,,,,1,,,,,,,,,,,,,,,,,,,,,,,,,,,,,,,,,,,,,83,guante,,,,,532.7974,534.4227,1,1,1.0969,,0,86,86,82,1,REAL,FAKE,,,,,,,,,,,,,,,,,
,,,,,,,,,695fc9e5ea354ea6bd7c7ba8,Spanish,13 or older,"no, only English or Spanish",click here to respond,2026-01-21_21h14.08.606,empathy_intonation_perc_control,2024.2.4,Linux x86_64,60.24096386,695fc9e5ea354ea6bd7c7ba8,69712dc693a3960bdb483245,697184ecb70e30e46047cf6b,,,,,,,,,,,,,1,,,,,,,,,,,,,,,,,,,,,,,,,,,,,,,,,,,,,71,polvoriento,,,,,534.4252,535.7736,0,0,0.8112,,0,87,87,70,1,REAL,FAKE,,,,,,,,,,,,,,,,,
,,,,,,,,,695fc9e5ea354ea6bd7c7ba8,Spanish,13 or older,"no, only English or Spanish",click here to respond,2026-01-21_21h14.08.606,empathy_intonation_perc_control,2024.2.4,Linux x86_64,60.24096386,695fc9e5ea354ea6bd7c7ba8,69712dc693a3960bdb483245,697184ecb70e30e46047cf6b,,,,,,,,,,,,,1,,,,,,,,,,,,,,,,,,,,,,,,,,,,,,,,,,,,,25,bisagra,,,,,535.7767,536.8899,1,1,0.5788,,0,88,88,24,1,REAL,FAKE,,,,,,,,,,,,,,,,,
,,,,,,,,,695fc9e5ea354ea6bd7c7ba8,Spanish,13 or older,"no, only English or Spanish",click here to respond,2026-01-21_21h14.08.606,empathy_intonation_perc_control,2024.2.4,Linux x86_64,60.24096386,695fc9e5ea354ea6bd7c7ba8,69712dc693a3960bdb483245,697184ecb70e30e46047cf6b,,,,,,,,,,,,,1,,,,,,,,,,,,,,,,,,,,,,,,,,,,,,,,,,,,,3,pulmones,,,,,536.892,538.1235,0,0,0.6919,,0,89,89,2,1,REAL,FAKE,,,,,,,,,,,,,,,,,
,,,,,,,,,695fc9e5ea354ea6bd7c7ba8,Spanish,13 or older,"no, only English or Spanish",click here to respond,2026-01-21_21h14.08.606,empathy_intonation_perc_control,2024.2.4,Linux x86_64,60.24096386,695fc9e5ea354ea6bd7c7ba8,69712dc693a3960bdb483245,697184ecb70e30e46047cf6b,,,,,,,,,,,,,0,,,,,,,,,,,,,,,,,,,,,,,,,,,,,,,,,,,,,32,fatacidad,,,,,538.1259,541.1564,1,0,2.4974,,0,90,90,31,1,REAL,FAKE,,,,,,,,,,,,,,,,,
,,,,,,,,,695fc9e5ea354ea6bd7c7ba8,Spanish,13 or older,"no, only English or Spanish",click here to respond,2026-01-21_21h14.08.606,empathy_intonation_perc_control,2024.2.4,Linux x86_64,60.24096386,695fc9e5ea354ea6bd7c7ba8,69712dc693a3960bdb483245,697184ecb70e30e46047cf6b,,,,,,,,,,,,,0,,,,,,,,,,,,,,,,,,,,,,,,,,,,,,,,,,,,,92,click the 0 key.,,,,,541.1589,543.2908,0,1,1.5869,,0,91,91,91,1,REAL,FAKE,,,,,,,,,,,,,,,,,
,,,,,,,,,695fc9e5ea354ea6bd7c7ba8,Spanish,13 or older,"no, only English or Spanish",click here to respond,2026-01-21_21h14.08.606,empathy_intonation_perc_control,2024.2.4,Linux x86_64,60.24096386,695fc9e5ea354ea6bd7c7ba8,69712dc693a3960bdb483245,697184ecb70e30e46047cf6b,,,,,,,,,,,,,,,,,,,,,,,,,,,,,,,,,,,,,,,,,,,,,,,,,,,,,,,,,,,,,,,,,,,,,543.2948,553.9745,,,,,,,,,,,,,,,
,,,,,,,,,695fc9e5ea354ea6bd7c7ba8,Spanish,13 or older,"no, only English or Spanish",click here to respond,2026-01-21_21h14.08.606,empathy_intonation_perc_control,2024.2.4,Linux x86_64,60.24096386,695fc9e5ea354ea6bd7c7ba8,69712dc693a3960bdb483245,697184ecb70e30e46047cf6b,,,,,,,,,,,,,,,,,,,,,,,,,,,1,,,,,,,,,,,,,,,,,,,,,,,,,,,,,,,,,,,,,,,,,,,,554.0265,564.593,slightly agree,0,0,0,0,1,I can easily tell if someone else wants to enter a conversation.,1,0,1,0,,
,,,,,,,,,695fc9e5ea354ea6bd7c7ba8,Spanish,13 or older,"no, only English or Spanish",click here to respond,2026-01-21_21h14.08.606,empathy_intonation_perc_control,2024.2.4,Linux x86_64,60.24096386,695fc9e5ea354ea6bd7c7ba8,69712dc693a3960bdb483245,697184ecb70e30e46047cf6b,,,,,,,,,,,,,,,,,,,,,,,,,,,2,,,,,,,,,,,,,,,,,,,,,,,,,,,,,,,,,,,,,,,,,,,,564.596,569.309,slightly agree,0,1,1,1,1,I prefer animals to humans.,0,1,0,0,,
,,,,,,,,,695fc9e5ea354ea6bd7c7ba8,Spanish,13 or older,"no, only English or Spanish",click here to respond,2026-01-21_21h14.08.606,empathy_intonation_perc_control,2024.2.4,Linux x86_64,60.24096386,695fc9e5ea354ea6bd7c7ba8,69712dc693a3960bdb483245,697184ecb70e30e46047cf6b,,,,,,,,,,,,,,,,,,,,,,,,,,,3,,,,,,,,,,,,,,,,,,,,,,,,,,,,,,,,,,,,,,,,,,,,569.3128,575.3936,slightly disagree,0,2,2,2,1,I try to keep up with the current trends and fashions.,0,1,0,0,,
,,,,,,,,,695fc9e5ea354ea6bd7c7ba8,Spanish,13 or older,"no, only English or Spanish",click here to respond,2026-01-21_21h14.08.606,empathy_intonation_perc_control,2024.2.4,Linux x86_64,60.24096386,695fc9e5ea354ea6bd7c7ba8,69712dc693a3960bdb483245,697184ecb70e30e46047cf6b,,,,,,,,,,,,,,,,,,,,,,,,,,,4,,,,,,,,,,,,,,,,,,,,,,,,,,,,,,,,,,,,,,,,,,,,575.3987,583.1624,slightly disagree,0,3,3,3,1,"I find it difficult to explain to others things that I understand easily,   when they don't understand it first time.",1,0,0,1,,
,,,,,,,,,695fc9e5ea354ea6bd7c7ba8,Spanish,13 or older,"no, only English or Spanish",click here to respond,2026-01-21_21h14.08.606,empathy_intonation_perc_control,2024.2.4,Linux x86_64,60.24096386,695fc9e5ea354ea6bd7c7ba8,69712dc693a3960bdb483245,697184ecb70e30e46047cf6b,,,,,,,,,,,,,,,,,,,,,,,,,,,5,,,,,,,,,,,,,,,,,,,,,,,,,,,,,,,,,,,,,,,,,,,,583.1665,586.9928,slightly agree,0,4,4,4,1,I dream most nights.,0,1,0,0,,
,,,,,,,,,695fc9e5ea354ea6bd7c7ba8,Spanish,13 or older,"no, only English or Spanish",click here to respond,2026-01-21_21h14.08.606,empathy_intonation_perc_control,2024.2.4,Linux x86_64,60.24096386,695fc9e5ea354ea6bd7c7ba8,69712dc693a3960bdb483245,697184ecb70e30e46047cf6b,,,,,,,,,,,,,,,,,,,,,,,,,,,6,,,,,,,,,,,,,,,,,,,,,,,,,,,,,,,,,,,,,,,,,,,,587,590.2592,slightly agree,0,5,5,5,1,I really enjoy caring for other people.,1,0,1,0,,
,,,,,,,,,695fc9e5ea354ea6bd7c7ba8,Spanish,13 or older,"no, only English or Spanish",click here to respond,2026-01-21_21h14.08.606,empathy_intonation_perc_control,2024.2.4,Linux x86_64,60.24096386,695fc9e5ea354ea6bd7c7ba8,69712dc693a3960bdb483245,697184ecb70e30e46047cf6b,,,,,,,,,,,,,,,,,,,,,,,,,,,7,,,,,,,,,,,,,,,,,,,,,,,,,,,,,,,,,,,,,,,,,,,,590.264,594.8608,slightly agree,0,6,6,6,1,I try to solve my own problems rather than discussing them with others.,0,1,0,0,,
,,,,,,,,,695fc9e5ea354ea6bd7c7ba8,Spanish,13 or older,"no, only English or Spanish",click here to respond,2026-01-21_21h14.08.606,empathy_intonation_perc_control,2024.2.4,Linux x86_64,60.24096386,695fc9e5ea354ea6bd7c7ba8,69712dc693a3960bdb483245,697184ecb70e30e46047cf6b,,,,,,,,,,,,,,,,,,,,,,,,,,,8,,,,,,,,,,,,,,,,,,,,,,,,,,,,,,,,,,,,,,,,,,,,594.8659,599.8941,strongly disagree,0,7,7,7,1,I find it hard to know what to do in a social situation.,1,0,0,1,,
,,,,,,,,,695fc9e5ea354ea6bd7c7ba8,Spanish,13 or older,"no, only English or Spanish",click here to respond,2026-01-21_21h14.08.606,empathy_intonation_perc_control,2024.2.4,Linux x86_64,60.24096386,695fc9e5ea354ea6bd7c7ba8,69712dc693a3960bdb483245,697184ecb70e30e46047cf6b,,,,,,,,,,,,,,,,,,,,,,,,,,,9,,,,,,,,,,,,,,,,,,,,,,,,,,,,,,,,,,,,,,,,,,,,599.899,607.364,slightly disagree,0,8,8,8,1,I am at my best first thing in the morning.,0,1,0,0,,
,,,,,,,,,695fc9e5ea354ea6bd7c7ba8,Spanish,13 or older,"no, only English or Spanish",click here to respond,2026-01-21_21h14.08.606,empathy_intonation_perc_control,2024.2.4,Linux x86_64,60.24096386,695fc9e5ea354ea6bd7c7ba8,69712dc693a3960bdb483245,697184ecb70e30e46047cf6b,,,,,,,,,,,,,,,,,,,,,,,,,,,10,,,,,,,,,,,,,,,,,,,,,,,,,,,,,,,,,,,,,,,,,,,,607.368,613.9785,slightly disagree,0,9,9,9,1,People often tell me that I went too far in driving my point home in a discussion.,1,0,0,1,,
,,,,,,,,,695fc9e5ea354ea6bd7c7ba8,Spanish,13 or older,"no, only English or Spanish",click here to respond,2026-01-21_21h14.08.606,empathy_intonation_perc_control,2024.2.4,Linux x86_64,60.24096386,695fc9e5ea354ea6bd7c7ba8,69712dc693a3960bdb483245,697184ecb70e30e46047cf6b,,,,,,,,,,,,,,,,,,,,,,,,,,,11,,,,,,,,,,,,,,,,,,,,,,,,,,,,,,,,,,,,,,,,,,,,613.9828,619.6615,slightly disagree,0,10,10,10,1,It doesn't bother me too much if I am late meeting a friend.,1,0,0,1,,
,,,,,,,,,695fc9e5ea354ea6bd7c7ba8,Spanish,13 or older,"no, only English or Spanish",click here to respond,2026-01-21_21h14.08.606,empathy_intonation_perc_control,2024.2.4,Linux x86_64,60.24096386,695fc9e5ea354ea6bd7c7ba8,69712dc693a3960bdb483245,697184ecb70e30e46047cf6b,,,,,,,,,,,,,,,,,,,,,,,,,,,12,,,,,,,,,,,,,,,,,,,,,,,,,,,,,,,,,,,,,,,,,,,,619.6652,623.9118,slightly disagree,0,11,11,11,1,"Friendships and relationships are just too difficult, so I tend not to 
  bother with them.",1,0,0,1,,
