instructions_2afc.started,instructions_2afc.stopped,instructions_2afc_loop.thisRepN,instructions_2afc_loop.thisTrialN,instructions_2afc_loop.thisN,instructions_2afc_loop.thisIndex,instructions_2afc_loop.ran,instructions_text,continue_text,participant_id,"What variety of Spanish are you most familiar with? (e.g., Peruvian, Spanish, Mexican)",At what age did you begin learning Spanish?,Are you proficient in any languages other than English/Spanish?,"Are you familiar with Caribbean (e.g., Caribbean, Puerto Rican) or Galician Spanish?",date,expName,psychopyVersion,OS,frameRate,id,study_id,session,practice_2afc.started,practice_2afc.stopped,key_resp_2afc_practice.keys,key_resp_2afc_practice.corr,key_resp_2afc_practice.rt,key_resp_2afc_practice.duration,trials_2afc_practice_loop.thisRepN,trials_2afc_practice_loop.thisTrialN,trials_2afc_practice_loop.thisN,trials_2afc_practice_loop.thisIndex,trials_2afc_practice_loop.ran,path,correct_response,check_2afc.started,check_2afc.stopped,trial_2afc.started,trial_2afc.stopped,key_resp_2afc_trial.keys,key_resp_2afc_trial.corr,key_resp_2afc_trial.rt,key_resp_2afc_trial.duration,trials_2afc_loop.thisRepN,trials_2afc_loop.thisTrialN,trials_2afc_loop.thisN,trials_2afc_loop.thisIndex,trials_2afc_loop.ran,item_num,target,variety,instructions_lextale.started,instructions_lextale.stopped,instructions_lextale_loop.thisRepN,instructions_lextale_loop.thisTrialN,instructions_lextale_loop.thisN,instructions_lextale_loop.thisIndex,instructions_lextale_loop.ran,practice_lextale.started,practice_lextale.stopped,key_resp_lextale_practice.keys,key_resp_lextale_practice.corr,key_resp_lextale_practice.rt,key_resp_lextale_practice.duration,practice_feedback_lextale.started,practice_feedback_lextale.stopped,trials_lextale_practice_loop.thisRepN,trials_lextale_practice_loop.thisTrialN,trials_lextale_practice_loop.thisN,trials_lextale_practice_loop.thisIndex,trials_lextale_practice_loop.ran,stim,word,prac_button_real,prac_button_false,check_lextale.started,check_lextale.stopped,trial_lextale.started,trial_lextale.stopped,key_resp_lextale_trial.keys,key_resp_lextale_trial.corr,key_resp_lextale_trial.rt,key_resp_lextale_trial.duration,trials_lextale_loop.thisRepN,trials_lextale_loop.thisTrialN,trials_lextale_loop.thisN,trials_lextale_loop.thisIndex,trials_lextale_loop.ran,button_real,button_false,instructions_eq.started,instructions_eq.stopped,trial_eq.started,trial_eq.stopped,slider_eq_trial.response,trials_eq_loop.thisRepN,trials_eq_loop.thisTrialN,trials_eq_loop.thisN,trials_eq_loop.thisIndex,trials_eq_loop.ran,item,is_test_item,is_distractor,is_agree_score,is_disagree_score,end_exp.started,end_exp.stopped
0.0126,8.4211,0,0,0,0,1,"In the following task you are going to hear a series of utterances. 

  You will decide if the utterances sound like questions or not using your keyboard.", (press the spacebar to continue),69602491103bb0e29cba7eea,spanish,13 or older,"no, only English or Spanish",no,2026-01-21_16h12.09.744,empathy_intonation_perc_control,2024.2.4,MacIntel,59.52380952,69602491103bb0e29cba7eea,69712dc693a3960bdb483245,69714107e6a68a3e93856800,,,,,,,,,,,,,,,,,,,,,,,,,,,,,,,,,,,,,,,,,,,,,,,,,,,,,,,,,,,,,,,,,,,,,,,,,,,,,,,,,,,,,
8.4221,15.9883,0,1,1,1,1,"If you believe the utterance is a question, type '1' (for 'yes') and if you do not 
  believe it is a question type '0' (for 'no').

  Let's practice a bit...", (press the spacebar to continue),69602491103bb0e29cba7eea,spanish,13 or older,"no, only English or Spanish",no,2026-01-21_16h12.09.744,empathy_intonation_perc_control,2024.2.4,MacIntel,59.52380952,69602491103bb0e29cba7eea,69712dc693a3960bdb483245,69714107e6a68a3e93856800,,,,,,,,,,,,,,,,,,,,,,,,,,,,,,,,,,,,,,,,,,,,,,,,,,,,,,,,,,,,,,,,,,,,,,,,,,,,,,,,,,,,,
,,,,,,,,,69602491103bb0e29cba7eea,spanish,13 or older,"no, only English or Spanish",no,2026-01-21_16h12.09.744,empathy_intonation_perc_control,2024.2.4,MacIntel,59.52380952,69602491103bb0e29cba7eea,69712dc693a3960bdb483245,69714107e6a68a3e93856800,15.9978,22.2043,1,0,5.6815,,0,0,0,6,1,./stim/wavs/peruvian_statement_filler_El-nino-habla-con-su-madre.wav,0,,,,,,,,,,,,,,,,,,,,,,,,,,,,,,,,,,,,,,,,,,,,,,,,,,,,,,,,,,,,,,,,,,,,,,,,
,,,,,,,,,69602491103bb0e29cba7eea,spanish,13 or older,"no, only English or Spanish",no,2026-01-21_16h12.09.744,empathy_intonation_perc_control,2024.2.4,MacIntel,59.52380952,69602491103bb0e29cba7eea,69712dc693a3960bdb483245,69714107e6a68a3e93856800,22.2053,25.2051,1,1,2.4698,,0,1,1,0,1,./stim/wavs/castilian_question_filler_Mi-esposo-conoce-al-chico.wav,1,,,,,,,,,,,,,,,,,,,,,,,,,,,,,,,,,,,,,,,,,,,,,,,,,,,,,,,,,,,,,,,,,,,,,,,,
,,,,,,,,,69602491103bb0e29cba7eea,spanish,13 or older,"no, only English or Spanish",no,2026-01-21_16h12.09.744,empathy_intonation_perc_control,2024.2.4,MacIntel,59.52380952,69602491103bb0e29cba7eea,69712dc693a3960bdb483245,69714107e6a68a3e93856800,25.2061,27.5043,1,1,1.7771,,0,2,2,3,1,./stim/wavs/mexican_question_filler_Felipe-no-tiene-contrasena.wav,1,,,,,,,,,,,,,,,,,,,,,,,,,,,,,,,,,,,,,,,,,,,,,,,,,,,,,,,,,,,,,,,,,,,,,,,,
,,,,,,,,,69602491103bb0e29cba7eea,spanish,13 or older,"no, only English or Spanish",no,2026-01-21_16h12.09.744,empathy_intonation_perc_control,2024.2.4,MacIntel,59.52380952,69602491103bb0e29cba7eea,69712dc693a3960bdb483245,69714107e6a68a3e93856800,27.5046,35.4884,0,1,7.4678,,0,3,3,4,1,./stim/wavs/cuban_statement_filler_Cocinabas-por-la-noche.wav,0,,,,,,,,,,,,,,,,,,,,,,,,,,,,,,,,,,,,,,,,,,,,,,,,,,,,,,,,,,,,,,,,,,,,,,,,
,,,,,,,,,69602491103bb0e29cba7eea,spanish,13 or older,"no, only English or Spanish",no,2026-01-21_16h12.09.744,empathy_intonation_perc_control,2024.2.4,MacIntel,59.52380952,69602491103bb0e29cba7eea,69712dc693a3960bdb483245,69714107e6a68a3e93856800,35.4891,38.7219,0,1,2.7001,,0,4,4,7,1,./stim/wavs/puertorican_statement_filler_La-nina-pinta-con-su-amiga.wav,0,,,,,,,,,,,,,,,,,,,,,,,,,,,,,,,,,,,,,,,,,,,,,,,,,,,,,,,,,,,,,,,,,,,,,,,,
,,,,,,,,,69602491103bb0e29cba7eea,spanish,13 or older,"no, only English or Spanish",no,2026-01-21_16h12.09.744,empathy_intonation_perc_control,2024.2.4,MacIntel,59.52380952,69602491103bb0e29cba7eea,69712dc693a3960bdb483245,69714107e6a68a3e93856800,38.7228,41.272,1,1,2.0303,,0,5,5,2,1,./stim/wavs/chilean_question_filler_Mi-padre-cantaba-bien.wav,1,,,,,,,,,,,,,,,,,,,,,,,,,,,,,,,,,,,,,,,,,,,,,,,,,,,,,,,,,,,,,,,,,,,,,,,,
,,,,,,,,,69602491103bb0e29cba7eea,spanish,13 or older,"no, only English or Spanish",no,2026-01-21_16h12.09.744,empathy_intonation_perc_control,2024.2.4,MacIntel,59.52380952,69602491103bb0e29cba7eea,69712dc693a3960bdb483245,69714107e6a68a3e93856800,41.2728,43.4883,0,1,1.684,,0,6,6,5,1,./stim/wavs/andalusian_statement_filler_Alberto-nunca-se-afeita.wav,0,,,,,,,,,,,,,,,,,,,,,,,,,,,,,,,,,,,,,,,,,,,,,,,,,,,,,,,,,,,,,,,,,,,,,,,,
,,,,,,,,,69602491103bb0e29cba7eea,spanish,13 or older,"no, only English or Spanish",no,2026-01-21_16h12.09.744,empathy_intonation_perc_control,2024.2.4,MacIntel,59.52380952,69602491103bb0e29cba7eea,69712dc693a3960bdb483245,69714107e6a68a3e93856800,43.4887,45.555,1,1,1.5366,,0,7,7,1,1,./stim/wavs/argentine_question_filler_Mi-vecino-habla-mucho.wav,1,,,,,,,,,,,,,,,,,,,,,,,,,,,,,,,,,,,,,,,,,,,,,,,,,,,,,,,,,,,,,,,,,,,,,,,,
,,,,,,,,,69602491103bb0e29cba7eea,spanish,13 or older,"no, only English or Spanish",no,2026-01-21_16h12.09.744,empathy_intonation_perc_control,2024.2.4,MacIntel,59.52380952,69602491103bb0e29cba7eea,69712dc693a3960bdb483245,69714107e6a68a3e93856800,,,,,,,,,,,,,,45.5553,47.5884,,,,,,,,,,,,,,,,,,,,,,,,,,,,,,,,,,,,,,,,,,,,,,,,,,,,,,,,,,,,,,,,,,,,,,
,,,,,,,,,69602491103bb0e29cba7eea,spanish,13 or older,"no, only English or Spanish",no,2026-01-21_16h12.09.744,empathy_intonation_perc_control,2024.2.4,MacIntel,59.52380952,69602491103bb0e29cba7eea,69712dc693a3960bdb483245,69714107e6a68a3e93856800,,,,,,,,,,,,./stim/wavs/mexican_match_declarative-broad-focus_David-leia-el-libro.wav,0,,,47.5949,49.6723,0,1,1.5543,,0,0,0,58,1,59,0,mexican,,,,,,,,,,,,,,,,,,,,,,,,,,,,,,,,,,,,,,,,,,,,,,,,,,,,,,,,
,,,,,,,,,69602491103bb0e29cba7eea,spanish,13 or older,"no, only English or Spanish",no,2026-01-21_16h12.09.744,empathy_intonation_perc_control,2024.2.4,MacIntel,59.52380952,69602491103bb0e29cba7eea,69712dc693a3960bdb483245,69714107e6a68a3e93856800,,,,,,,,,,,,./stim/wavs/castilian_match_interrogative-total-yn_Maria-bebe-el-vino.wav,1,,,49.6731,51.722,1,1,1.527,,0,1,1,3,1,4,0,castilian,,,,,,,,,,,,,,,,,,,,,,,,,,,,,,,,,,,,,,,,,,,,,,,,,,,,,,,,
,,,,,,,,,69602491103bb0e29cba7eea,spanish,13 or older,"no, only English or Spanish",no,2026-01-21_16h12.09.744,empathy_intonation_perc_control,2024.2.4,MacIntel,59.52380952,69602491103bb0e29cba7eea,69712dc693a3960bdb483245,69714107e6a68a3e93856800,,,,,,,,,,,,./stim/wavs/castilian_match_declarative-broad-focus_David-leia-el-libro.wav,0,,,51.7229,54.2055,0,1,1.955,,0,2,2,44,1,45,0,castilian,,,,,,,,,,,,,,,,,,,,,,,,,,,,,,,,,,,,,,,,,,,,,,,,,,,,,,,,
,,,,,,,,,69602491103bb0e29cba7eea,spanish,13 or older,"no, only English or Spanish",no,2026-01-21_16h12.09.744,empathy_intonation_perc_control,2024.2.4,MacIntel,59.52380952,69602491103bb0e29cba7eea,69712dc693a3960bdb483245,69714107e6a68a3e93856800,,,,,,,,,,,,./stim/wavs/cuban_match_declarative-broad-focus_Marta-abre-el-regalo.wav,0,,,54.2065,56.7722,0,1,2.0337,,0,3,3,55,1,56,0,cuban,,,,,,,,,,,,,,,,,,,,,,,,,,,,,,,,,,,,,,,,,,,,,,,,,,,,,,,,
,,,,,,,,,69602491103bb0e29cba7eea,spanish,13 or older,"no, only English or Spanish",no,2026-01-21_16h12.09.744,empathy_intonation_perc_control,2024.2.4,MacIntel,59.52380952,69602491103bb0e29cba7eea,69712dc693a3960bdb483245,69714107e6a68a3e93856800,,,,,,,,,,,,./stim/wavs/cuban_mismatch_interrogative-total-yn_El-nino-oye-el-rio.wav,1,,,56.7728,58.989,1,1,1.6832,,0,4,4,30,1,31,1,cuban,,,,,,,,,,,,,,,,,,,,,,,,,,,,,,,,,,,,,,,,,,,,,,,,,,,,,,,,
,,,,,,,,,69602491103bb0e29cba7eea,spanish,13 or older,"no, only English or Spanish",no,2026-01-21_16h12.09.744,empathy_intonation_perc_control,2024.2.4,MacIntel,59.52380952,69602491103bb0e29cba7eea,69712dc693a3960bdb483245,69714107e6a68a3e93856800,,,,,,,,,,,,./stim/wavs/mexican_match_declarative-broad-focus_Daniel-iba-a-Bolivia.wav,0,,,58.9898,61.2723,0,1,1.7528,,0,5,5,57,1,58,0,mexican,,,,,,,,,,,,,,,,,,,,,,,,,,,,,,,,,,,,,,,,,,,,,,,,,,,,,,,,
,,,,,,,,,69602491103bb0e29cba7eea,spanish,13 or older,"no, only English or Spanish",no,2026-01-21_16h12.09.744,empathy_intonation_perc_control,2024.2.4,MacIntel,59.52380952,69602491103bb0e29cba7eea,69712dc693a3960bdb483245,69714107e6a68a3e93856800,,,,,,,,,,,,./stim/wavs/castilian_mismatch_interrogative-total-yn_Mi-madre-come-la-fruta.wav,1,,,61.2731,63.5549,1,1,1.7511,,0,6,6,26,1,27,0,castilian,,,,,,,,,,,,,,,,,,,,,,,,,,,,,,,,,,,,,,,,,,,,,,,,,,,,,,,,
,,,,,,,,,69602491103bb0e29cba7eea,spanish,13 or older,"no, only English or Spanish",no,2026-01-21_16h12.09.744,empathy_intonation_perc_control,2024.2.4,MacIntel,59.52380952,69602491103bb0e29cba7eea,69712dc693a3960bdb483245,69714107e6a68a3e93856800,,,,,,,,,,,,./stim/wavs/cuban_match_interrogative-total-yn_Mariano-habla-del-tiempo.wav,1,,,63.5556,66.0554,0,0,1.9782,,0,7,7,10,1,11,1,cuban,,,,,,,,,,,,,,,,,,,,,,,,,,,,,,,,,,,,,,,,,,,,,,,,,,,,,,,,
,,,,,,,,,69602491103bb0e29cba7eea,spanish,13 or older,"no, only English or Spanish",no,2026-01-21_16h12.09.744,empathy_intonation_perc_control,2024.2.4,MacIntel,59.52380952,69602491103bb0e29cba7eea,69712dc693a3960bdb483245,69714107e6a68a3e93856800,,,,,,,,,,,,./stim/wavs/puertorican_mismatch_interrogative-total-yn_La-nina-lava-el-plato.wav,1,,,66.0557,68.2726,1,1,1.6855,,0,8,8,42,1,43,1,puertorican,,,,,,,,,,,,,,,,,,,,,,,,,,,,,,,,,,,,,,,,,,,,,,,,,,,,,,,,
,,,,,,,,,69602491103bb0e29cba7eea,spanish,13 or older,"no, only English or Spanish",no,2026-01-21_16h12.09.744,empathy_intonation_perc_control,2024.2.4,MacIntel,59.52380952,69602491103bb0e29cba7eea,69712dc693a3960bdb483245,69714107e6a68a3e93856800,,,,,,,,,,,,./stim/wavs/mexican_mismatch_interrogative-total-yn_El-hombre-mira-la-luna.wav,1,,,68.2734,70.3553,1,1,1.5615,,0,9,9,34,1,35,0,mexican,,,,,,,,,,,,,,,,,,,,,,,,,,,,,,,,,,,,,,,,,,,,,,,,,,,,,,,,
,,,,,,,,,69602491103bb0e29cba7eea,spanish,13 or older,"no, only English or Spanish",no,2026-01-21_16h12.09.744,empathy_intonation_perc_control,2024.2.4,MacIntel,59.52380952,69602491103bb0e29cba7eea,69712dc693a3960bdb483245,69714107e6a68a3e93856800,,,,,,,,,,,,./stim/wavs/puertorican_mismatch_declarative-broad-focus_La-nina-lava-el-plato.wav,0,,,70.3556,72.7213,0,1,1.8494,,0,10,10,87,1,88,0,puertorican,,,,,,,,,,,,,,,,,,,,,,,,,,,,,,,,,,,,,,,,,,,,,,,,,,,,,,,,
,,,,,,,,,69602491103bb0e29cba7eea,spanish,13 or older,"no, only English or Spanish",no,2026-01-21_16h12.09.744,empathy_intonation_perc_control,2024.2.4,MacIntel,59.52380952,69602491103bb0e29cba7eea,69712dc693a3960bdb483245,69714107e6a68a3e93856800,,,,,,,,,,,,./stim/wavs/castilian_match_interrogative-total-yn_Marta-abre-el-regalo.wav,1,,,72.7216,75.106,1,1,1.8667,,0,11,11,5,1,6,0,castilian,,,,,,,,,,,,,,,,,,,,,,,,,,,,,,,,,,,,,,,,,,,,,,,,,,,,,,,,
,,,,,,,,,69602491103bb0e29cba7eea,spanish,13 or older,"no, only English or Spanish",no,2026-01-21_16h12.09.744,empathy_intonation_perc_control,2024.2.4,MacIntel,59.52380952,69602491103bb0e29cba7eea,69712dc693a3960bdb483245,69714107e6a68a3e93856800,,,,,,,,,,,,./stim/wavs/mexican_match_declarative-broad-focus_Marta-abre-el-regalo.wav,0,,,75.1066,77.7227,0,1,2.0834,,0,12,12,61,1,62,0,mexican,,,,,,,,,,,,,,,,,,,,,,,,,,,,,,,,,,,,,,,,,,,,,,,,,,,,,,,,
,,,,,,,,,69602491103bb0e29cba7eea,spanish,13 or older,"no, only English or Spanish",no,2026-01-21_16h12.09.744,empathy_intonation_perc_control,2024.2.4,MacIntel,59.52380952,69602491103bb0e29cba7eea,69712dc693a3960bdb483245,69714107e6a68a3e93856800,,,,,,,,,,,,./stim/wavs/puertorican_mismatch_declarative-broad-focus_La-maestra-vive-en-Paris.wav,0,,,77.7233,80.0894,0,1,1.8336,,0,13,13,86,1,87,0,puertorican,,,,,,,,,,,,,,,,,,,,,,,,,,,,,,,,,,,,,,,,,,,,,,,,,,,,,,,,
,,,,,,,,,69602491103bb0e29cba7eea,spanish,13 or older,"no, only English or Spanish",no,2026-01-21_16h12.09.744,empathy_intonation_perc_control,2024.2.4,MacIntel,59.52380952,69602491103bb0e29cba7eea,69712dc693a3960bdb483245,69714107e6a68a3e93856800,,,,,,,,,,,,./stim/wavs/castilian_match_declarative-broad-focus_Mariano-habla-del-tiempo.wav,0,,,80.0901,82.7894,0,1,2.1718,,0,14,14,48,1,49,0,castilian,,,,,,,,,,,,,,,,,,,,,,,,,,,,,,,,,,,,,,,,,,,,,,,,,,,,,,,,
,,,,,,,,,69602491103bb0e29cba7eea,spanish,13 or older,"no, only English or Spanish",no,2026-01-21_16h12.09.744,empathy_intonation_perc_control,2024.2.4,MacIntel,59.52380952,69602491103bb0e29cba7eea,69712dc693a3960bdb483245,69714107e6a68a3e93856800,,,,,,,,,,,,./stim/wavs/mexican_mismatch_declarative-broad-focus_La-maestra-vive-en-Paris.wav,0,,,82.7901,85.2061,0,1,1.8837,,0,15,15,80,1,81,0,mexican,,,,,,,,,,,,,,,,,,,,,,,,,,,,,,,,,,,,,,,,,,,,,,,,,,,,,,,,
,,,,,,,,,69602491103bb0e29cba7eea,spanish,13 or older,"no, only English or Spanish",no,2026-01-21_16h12.09.744,empathy_intonation_perc_control,2024.2.4,MacIntel,59.52380952,69602491103bb0e29cba7eea,69712dc693a3960bdb483245,69714107e6a68a3e93856800,,,,,,,,,,,,./stim/wavs/cuban_match_declarative-broad-focus_Daniel-iba-a-Bolivia.wav,0,,,85.2068,88.3562,0,1,2.6169,,0,16,16,51,1,52,0,cuban,,,,,,,,,,,,,,,,,,,,,,,,,,,,,,,,,,,,,,,,,,,,,,,,,,,,,,,,
,,,,,,,,,69602491103bb0e29cba7eea,spanish,13 or older,"no, only English or Spanish",no,2026-01-21_16h12.09.744,empathy_intonation_perc_control,2024.2.4,MacIntel,59.52380952,69602491103bb0e29cba7eea,69712dc693a3960bdb483245,69714107e6a68a3e93856800,,,,,,,,,,,,./stim/wavs/puertorican_match_interrogative-total-yn_Daniel-iba-a-Bolivia.wav,1,,,88.3568,90.8398,0,0,1.9501,,0,17,17,19,1,20,1,puertorican,,,,,,,,,,,,,,,,,,,,,,,,,,,,,,,,,,,,,,,,,,,,,,,,,,,,,,,,
,,,,,,,,,69602491103bb0e29cba7eea,spanish,13 or older,"no, only English or Spanish",no,2026-01-21_16h12.09.744,empathy_intonation_perc_control,2024.2.4,MacIntel,59.52380952,69602491103bb0e29cba7eea,69712dc693a3960bdb483245,69714107e6a68a3e93856800,,,,,,,,,,,,./stim/wavs/castilian_match_interrogative-total-yn_David-leia-el-libro.wav,1,,,90.8406,93.2726,1,1,1.9087,,0,18,18,0,1,1,0,castilian,,,,,,,,,,,,,,,,,,,,,,,,,,,,,,,,,,,,,,,,,,,,,,,,,,,,,,,,
,,,,,,,,,69602491103bb0e29cba7eea,spanish,13 or older,"no, only English or Spanish",no,2026-01-21_16h12.09.744,empathy_intonation_perc_control,2024.2.4,MacIntel,59.52380952,69602491103bb0e29cba7eea,69712dc693a3960bdb483245,69714107e6a68a3e93856800,,,,,,,,,,,,./stim/wavs/puertorican_match_declarative-broad-focus_Ana-lleva-el-abrigo.wav,0,,,93.273,95.8226,0,1,2.0337,,0,19,19,62,1,63,0,puertorican,,,,,,,,,,,,,,,,,,,,,,,,,,,,,,,,,,,,,,,,,,,,,,,,,,,,,,,,
,,,,,,,,,69602491103bb0e29cba7eea,spanish,13 or older,"no, only English or Spanish",no,2026-01-21_16h12.09.744,empathy_intonation_perc_control,2024.2.4,MacIntel,59.52380952,69602491103bb0e29cba7eea,69712dc693a3960bdb483245,69714107e6a68a3e93856800,,,,,,,,,,,,./stim/wavs/mexican_mismatch_declarative-broad-focus_El-bebe-comia-muy-bien.wav,0,,,95.823,97.9897,0,1,1.6603,,0,20,20,78,1,79,0,mexican,,,,,,,,,,,,,,,,,,,,,,,,,,,,,,,,,,,,,,,,,,,,,,,,,,,,,,,,
,,,,,,,,,69602491103bb0e29cba7eea,spanish,13 or older,"no, only English or Spanish",no,2026-01-21_16h12.09.744,empathy_intonation_perc_control,2024.2.4,MacIntel,59.52380952,69602491103bb0e29cba7eea,69712dc693a3960bdb483245,69714107e6a68a3e93856800,,,,,,,,,,,,./stim/wavs/cuban_mismatch_declarative-broad-focus_La-nina-lava-el-plato.wav,0,,,97.9902,99.8903,0,1,1.379,,0,21,21,75,1,76,0,cuban,,,,,,,,,,,,,,,,,,,,,,,,,,,,,,,,,,,,,,,,,,,,,,,,,,,,,,,,
,,,,,,,,,69602491103bb0e29cba7eea,spanish,13 or older,"no, only English or Spanish",no,2026-01-21_16h12.09.744,empathy_intonation_perc_control,2024.2.4,MacIntel,59.52380952,69602491103bb0e29cba7eea,69712dc693a3960bdb483245,69714107e6a68a3e93856800,,,,,,,,,,,,./stim/wavs/cuban_match_interrogative-total-yn_Manuela-vende-el-carro.wav,1,,,99.891,102.3899,0,0,1.9673,,0,22,22,8,1,9,1,cuban,,,,,,,,,,,,,,,,,,,,,,,,,,,,,,,,,,,,,,,,,,,,,,,,,,,,,,,,
,,,,,,,,,69602491103bb0e29cba7eea,spanish,13 or older,"no, only English or Spanish",no,2026-01-21_16h12.09.744,empathy_intonation_perc_control,2024.2.4,MacIntel,59.52380952,69602491103bb0e29cba7eea,69712dc693a3960bdb483245,69714107e6a68a3e93856800,,,,,,,,,,,,./stim/wavs/puertorican_match_declarative-broad-focus_Daniel-iba-a-Bolivia.wav,0,,,102.3907,104.5226,0,1,1.6002,,0,23,23,63,1,64,0,puertorican,,,,,,,,,,,,,,,,,,,,,,,,,,,,,,,,,,,,,,,,,,,,,,,,,,,,,,,,
,,,,,,,,,69602491103bb0e29cba7eea,spanish,13 or older,"no, only English or Spanish",no,2026-01-21_16h12.09.744,empathy_intonation_perc_control,2024.2.4,MacIntel,59.52380952,69602491103bb0e29cba7eea,69712dc693a3960bdb483245,69714107e6a68a3e93856800,,,,,,,,,,,,./stim/wavs/mexican_match_interrogative-total-yn_Marta-abre-el-regalo.wav,1,,,104.5232,106.7565,1,1,1.7008,,0,24,24,17,1,18,0,mexican,,,,,,,,,,,,,,,,,,,,,,,,,,,,,,,,,,,,,,,,,,,,,,,,,,,,,,,,
,,,,,,,,,69602491103bb0e29cba7eea,spanish,13 or older,"no, only English or Spanish",no,2026-01-21_16h12.09.744,empathy_intonation_perc_control,2024.2.4,MacIntel,59.52380952,69602491103bb0e29cba7eea,69712dc693a3960bdb483245,69714107e6a68a3e93856800,,,,,,,,,,,,./stim/wavs/puertorican_mismatch_interrogative-total-yn_El-hombre-mira-la-luna.wav,1,,,106.7573,108.5899,1,1,1.3009,,0,25,25,39,1,40,1,puertorican,,,,,,,,,,,,,,,,,,,,,,,,,,,,,,,,,,,,,,,,,,,,,,,,,,,,,,,,
,,,,,,,,,69602491103bb0e29cba7eea,spanish,13 or older,"no, only English or Spanish",no,2026-01-21_16h12.09.744,empathy_intonation_perc_control,2024.2.4,MacIntel,59.52380952,69602491103bb0e29cba7eea,69712dc693a3960bdb483245,69714107e6a68a3e93856800,,,,,,,,,,,,./stim/wavs/castilian_mismatch_declarative-broad-focus_La-maestra-vive-en-Paris.wav,0,,,108.5904,110.9568,0,1,1.8338,,0,26,26,69,1,70,0,castilian,,,,,,,,,,,,,,,,,,,,,,,,,,,,,,,,,,,,,,,,,,,,,,,,,,,,,,,,
,,,,,,,,,69602491103bb0e29cba7eea,spanish,13 or older,"no, only English or Spanish",no,2026-01-21_16h12.09.744,empathy_intonation_perc_control,2024.2.4,MacIntel,59.52380952,69602491103bb0e29cba7eea,69712dc693a3960bdb483245,69714107e6a68a3e93856800,,,,,,,,,,,,./stim/wavs/puertorican_match_declarative-broad-focus_Manuela-vende-el-carro.wav,0,,,110.9575,112.9403,0,1,1.4499,,0,27,27,66,1,67,0,puertorican,,,,,,,,,,,,,,,,,,,,,,,,,,,,,,,,,,,,,,,,,,,,,,,,,,,,,,,,
,,,,,,,,,69602491103bb0e29cba7eea,spanish,13 or older,"no, only English or Spanish",no,2026-01-21_16h12.09.744,empathy_intonation_perc_control,2024.2.4,MacIntel,59.52380952,69602491103bb0e29cba7eea,69712dc693a3960bdb483245,69714107e6a68a3e93856800,,,,,,,,,,,,./stim/wavs/mexican_mismatch_interrogative-total-yn_El-nino-oye-el-rio.wav,1,,,112.9411,115.09,0,0,1.628,,0,28,28,35,1,36,0,mexican,,,,,,,,,,,,,,,,,,,,,,,,,,,,,,,,,,,,,,,,,,,,,,,,,,,,,,,,
,,,,,,,,,69602491103bb0e29cba7eea,spanish,13 or older,"no, only English or Spanish",no,2026-01-21_16h12.09.744,empathy_intonation_perc_control,2024.2.4,MacIntel,59.52380952,69602491103bb0e29cba7eea,69712dc693a3960bdb483245,69714107e6a68a3e93856800,,,,,,,,,,,,./stim/wavs/mexican_mismatch_interrogative-total-yn_La-maestra-vive-en-Paris.wav,1,,,115.0905,117.7735,1,1,2.1505,,0,29,29,36,1,37,0,mexican,,,,,,,,,,,,,,,,,,,,,,,,,,,,,,,,,,,,,,,,,,,,,,,,,,,,,,,,
,,,,,,,,,69602491103bb0e29cba7eea,spanish,13 or older,"no, only English or Spanish",no,2026-01-21_16h12.09.744,empathy_intonation_perc_control,2024.2.4,MacIntel,59.52380952,69602491103bb0e29cba7eea,69712dc693a3960bdb483245,69714107e6a68a3e93856800,,,,,,,,,,,,./stim/wavs/puertorican_mismatch_interrogative-total-yn_Mi-madre-come-la-fruta.wav,1,,,117.774,120.0903,0,0,1.7835,,0,30,30,43,1,44,1,puertorican,,,,,,,,,,,,,,,,,,,,,,,,,,,,,,,,,,,,,,,,,,,,,,,,,,,,,,,,
,,,,,,,,,69602491103bb0e29cba7eea,spanish,13 or older,"no, only English or Spanish",no,2026-01-21_16h12.09.744,empathy_intonation_perc_control,2024.2.4,MacIntel,59.52380952,69602491103bb0e29cba7eea,69712dc693a3960bdb483245,69714107e6a68a3e93856800,,,,,,,,,,,,./stim/wavs/cuban_match_interrogative-total-yn_Ana-lleva-el-abrigo.wav,1,,,120.091,122.4403,1,1,1.8175,,0,31,31,6,1,7,1,cuban,,,,,,,,,,,,,,,,,,,,,,,,,,,,,,,,,,,,,,,,,,,,,,,,,,,,,,,,
,,,,,,,,,69602491103bb0e29cba7eea,spanish,13 or older,"no, only English or Spanish",no,2026-01-21_16h12.09.744,empathy_intonation_perc_control,2024.2.4,MacIntel,59.52380952,69602491103bb0e29cba7eea,69712dc693a3960bdb483245,69714107e6a68a3e93856800,,,,,,,,,,,,./stim/wavs/castilian_mismatch_declarative-broad-focus_Mi-novio-viene-del-lago.wav,0,,,122.4411,125.0403,0,1,2.0668,,0,32,32,71,1,72,0,castilian,,,,,,,,,,,,,,,,,,,,,,,,,,,,,,,,,,,,,,,,,,,,,,,,,,,,,,,,
,,,,,,,,,69602491103bb0e29cba7eea,spanish,13 or older,"no, only English or Spanish",no,2026-01-21_16h12.09.744,empathy_intonation_perc_control,2024.2.4,MacIntel,59.52380952,69602491103bb0e29cba7eea,69712dc693a3960bdb483245,69714107e6a68a3e93856800,,,,,,,,,,,,./stim/wavs/mexican_mismatch_interrogative-total-yn_Mi-novio-viene-del-lago.wav,1,,,125.041,127.0063,0,0,1.4345,,0,33,33,37,1,38,0,mexican,,,,,,,,,,,,,,,,,,,,,,,,,,,,,,,,,,,,,,,,,,,,,,,,,,,,,,,,
,,,,,,,,,69602491103bb0e29cba7eea,spanish,13 or older,"no, only English or Spanish",no,2026-01-21_16h12.09.744,empathy_intonation_perc_control,2024.2.4,MacIntel,59.52380952,69602491103bb0e29cba7eea,69712dc693a3960bdb483245,69714107e6a68a3e93856800,,,,,,,,,,,,./stim/wavs/mexican_match_declarative-broad-focus_Mariano-habla-del-tiempo.wav,0,,,127.0071,129.19,0,1,1.665,,0,34,34,60,1,61,0,mexican,,,,,,,,,,,,,,,,,,,,,,,,,,,,,,,,,,,,,,,,,,,,,,,,,,,,,,,,
,,,,,,,,,69602491103bb0e29cba7eea,spanish,13 or older,"no, only English or Spanish",no,2026-01-21_16h12.09.744,empathy_intonation_perc_control,2024.2.4,MacIntel,59.52380952,69602491103bb0e29cba7eea,69712dc693a3960bdb483245,69714107e6a68a3e93856800,,,,,,,,,,,,./stim/wavs/cuban_match_interrogative-total-yn_Marta-abre-el-regalo.wav,1,,,129.1903,131.6073,0,0,1.8852,,0,35,35,11,1,12,1,cuban,,,,,,,,,,,,,,,,,,,,,,,,,,,,,,,,,,,,,,,,,,,,,,,,,,,,,,,,
,,,,,,,,,69602491103bb0e29cba7eea,spanish,13 or older,"no, only English or Spanish",no,2026-01-21_16h12.09.744,empathy_intonation_perc_control,2024.2.4,MacIntel,59.52380952,69602491103bb0e29cba7eea,69712dc693a3960bdb483245,69714107e6a68a3e93856800,,,,,,,,,,,,./stim/wavs/cuban_mismatch_declarative-broad-focus_Mi-tia-odia-la-lluvia.wav,0,,,131.6079,134.1241,0,1,1.9836,,0,36,36,77,1,78,0,cuban,,,,,,,,,,,,,,,,,,,,,,,,,,,,,,,,,,,,,,,,,,,,,,,,,,,,,,,,
,,,,,,,,,69602491103bb0e29cba7eea,spanish,13 or older,"no, only English or Spanish",no,2026-01-21_16h12.09.744,empathy_intonation_perc_control,2024.2.4,MacIntel,59.52380952,69602491103bb0e29cba7eea,69712dc693a3960bdb483245,69714107e6a68a3e93856800,,,,,,,,,,,,./stim/wavs/mexican_match_declarative-broad-focus_Ana-lleva-el-abrigo.wav,0,,,134.1249,136.324,0,1,1.6676,,0,37,37,56,1,57,0,mexican,,,,,,,,,,,,,,,,,,,,,,,,,,,,,,,,,,,,,,,,,,,,,,,,,,,,,,,,
,,,,,,,,,69602491103bb0e29cba7eea,spanish,13 or older,"no, only English or Spanish",no,2026-01-21_16h12.09.744,empathy_intonation_perc_control,2024.2.4,MacIntel,59.52380952,69602491103bb0e29cba7eea,69712dc693a3960bdb483245,69714107e6a68a3e93856800,,,,,,,,,,,,./stim/wavs/cuban_mismatch_interrogative-total-yn_Mi-madre-come-la-fruta.wav,1,,,136.3247,138.6408,1,1,1.7838,,0,38,38,31,1,32,1,cuban,,,,,,,,,,,,,,,,,,,,,,,,,,,,,,,,,,,,,,,,,,,,,,,,,,,,,,,,
,,,,,,,,,69602491103bb0e29cba7eea,spanish,13 or older,"no, only English or Spanish",no,2026-01-21_16h12.09.744,empathy_intonation_perc_control,2024.2.4,MacIntel,59.52380952,69602491103bb0e29cba7eea,69712dc693a3960bdb483245,69714107e6a68a3e93856800,,,,,,,,,,,,./stim/wavs/cuban_mismatch_declarative-broad-focus_El-hombre-mira-la-luna.wav,0,,,138.6415,140.6737,0,1,1.509,,0,39,39,74,1,75,0,cuban,,,,,,,,,,,,,,,,,,,,,,,,,,,,,,,,,,,,,,,,,,,,,,,,,,,,,,,,
,,,,,,,,,69602491103bb0e29cba7eea,spanish,13 or older,"no, only English or Spanish",no,2026-01-21_16h12.09.744,empathy_intonation_perc_control,2024.2.4,MacIntel,59.52380952,69602491103bb0e29cba7eea,69712dc693a3960bdb483245,69714107e6a68a3e93856800,,,,,,,,,,,,./stim/wavs/puertorican_mismatch_interrogative-total-yn_El-nino-oye-el-rio.wav,1,,,140.674,143.0073,1,1,1.8005,,0,40,40,40,1,41,1,puertorican,,,,,,,,,,,,,,,,,,,,,,,,,,,,,,,,,,,,,,,,,,,,,,,,,,,,,,,,
,,,,,,,,,69602491103bb0e29cba7eea,spanish,13 or older,"no, only English or Spanish",no,2026-01-21_16h12.09.744,empathy_intonation_perc_control,2024.2.4,MacIntel,59.52380952,69602491103bb0e29cba7eea,69712dc693a3960bdb483245,69714107e6a68a3e93856800,,,,,,,,,,,,./stim/wavs/mexican_mismatch_declarative-broad-focus_El-hombre-mira-la-luna.wav,0,,,143.0079,145.1909,0,1,1.6502,,0,41,41,79,1,80,0,mexican,,,,,,,,,,,,,,,,,,,,,,,,,,,,,,,,,,,,,,,,,,,,,,,,,,,,,,,,
,,,,,,,,,69602491103bb0e29cba7eea,spanish,13 or older,"no, only English or Spanish",no,2026-01-21_16h12.09.744,empathy_intonation_perc_control,2024.2.4,MacIntel,59.52380952,69602491103bb0e29cba7eea,69712dc693a3960bdb483245,69714107e6a68a3e93856800,,,,,,,,,,,,./stim/wavs/puertorican_match_declarative-broad-focus_Maria-bebe-el-vino.wav,0,,,145.1917,147.4075,0,1,1.6867,,0,42,42,67,1,68,0,puertorican,,,,,,,,,,,,,,,,,,,,,,,,,,,,,,,,,,,,,,,,,,,,,,,,,,,,,,,,
,,,,,,,,,69602491103bb0e29cba7eea,spanish,13 or older,"no, only English or Spanish",no,2026-01-21_16h12.09.744,empathy_intonation_perc_control,2024.2.4,MacIntel,59.52380952,69602491103bb0e29cba7eea,69712dc693a3960bdb483245,69714107e6a68a3e93856800,,,,,,,,,,,,./stim/wavs/cuban_match_declarative-broad-focus_Manuela-vende-el-carro.wav,0,,,147.4083,150.1907,0,1,2.2513,,0,43,43,52,1,53,0,cuban,,,,,,,,,,,,,,,,,,,,,,,,,,,,,,,,,,,,,,,,,,,,,,,,,,,,,,,,
,,,,,,,,,69602491103bb0e29cba7eea,spanish,13 or older,"no, only English or Spanish",no,2026-01-21_16h12.09.744,empathy_intonation_perc_control,2024.2.4,MacIntel,59.52380952,69602491103bb0e29cba7eea,69712dc693a3960bdb483245,69714107e6a68a3e93856800,,,,,,,,,,,,./stim/wavs/castilian_mismatch_declarative-broad-focus_La-nina-lava-el-plato.wav,0,,,150.1913,152.6243,0,1,1.8998,,0,44,44,70,1,71,0,castilian,,,,,,,,,,,,,,,,,,,,,,,,,,,,,,,,,,,,,,,,,,,,,,,,,,,,,,,,
,,,,,,,,,69602491103bb0e29cba7eea,spanish,13 or older,"no, only English or Spanish",no,2026-01-21_16h12.09.744,empathy_intonation_perc_control,2024.2.4,MacIntel,59.52380952,69602491103bb0e29cba7eea,69712dc693a3960bdb483245,69714107e6a68a3e93856800,,,,,,,,,,,,./stim/wavs/cuban_match_interrogative-total-yn_Daniel-iba-a-Bolivia.wav,1,,,152.625,155.2078,0,0,2.0508,,0,45,45,7,1,8,1,cuban,,,,,,,,,,,,,,,,,,,,,,,,,,,,,,,,,,,,,,,,,,,,,,,,,,,,,,,,
,,,,,,,,,69602491103bb0e29cba7eea,spanish,13 or older,"no, only English or Spanish",no,2026-01-21_16h12.09.744,empathy_intonation_perc_control,2024.2.4,MacIntel,59.52380952,69602491103bb0e29cba7eea,69712dc693a3960bdb483245,69714107e6a68a3e93856800,,,,,,,,,,,,./stim/wavs/cuban_match_declarative-broad-focus_Maria-bebe-el-vino.wav,0,,,155.2086,157.1745,0,1,1.4329,,0,46,46,53,1,54,0,cuban,,,,,,,,,,,,,,,,,,,,,,,,,,,,,,,,,,,,,,,,,,,,,,,,,,,,,,,,
,,,,,,,,,69602491103bb0e29cba7eea,spanish,13 or older,"no, only English or Spanish",no,2026-01-21_16h12.09.744,empathy_intonation_perc_control,2024.2.4,MacIntel,59.52380952,69602491103bb0e29cba7eea,69712dc693a3960bdb483245,69714107e6a68a3e93856800,,,,,,,,,,,,./stim/wavs/mexican_mismatch_declarative-broad-focus_Mi-novio-viene-del-lago.wav,0,,,157.1752,159.2079,0,1,1.5002,,0,47,47,81,1,82,0,mexican,,,,,,,,,,,,,,,,,,,,,,,,,,,,,,,,,,,,,,,,,,,,,,,,,,,,,,,,
,,,,,,,,,69602491103bb0e29cba7eea,spanish,13 or older,"no, only English or Spanish",no,2026-01-21_16h12.09.744,empathy_intonation_perc_control,2024.2.4,MacIntel,59.52380952,69602491103bb0e29cba7eea,69712dc693a3960bdb483245,69714107e6a68a3e93856800,,,,,,,,,,,,./stim/wavs/mexican_match_interrogative-total-yn_Daniel-iba-a-Bolivia.wav,1,,,159.2086,161.4081,1,1,1.6666,,0,48,48,13,1,14,0,mexican,,,,,,,,,,,,,,,,,,,,,,,,,,,,,,,,,,,,,,,,,,,,,,,,,,,,,,,,
,,,,,,,,,69602491103bb0e29cba7eea,spanish,13 or older,"no, only English or Spanish",no,2026-01-21_16h12.09.744,empathy_intonation_perc_control,2024.2.4,MacIntel,59.52380952,69602491103bb0e29cba7eea,69712dc693a3960bdb483245,69714107e6a68a3e93856800,,,,,,,,,,,,./stim/wavs/mexican_match_interrogative-total-yn_Emilio-ama-la-marcha.wav,1,,,161.4089,163.6746,1,1,1.7338,,0,49,49,15,1,16,0,mexican,,,,,,,,,,,,,,,,,,,,,,,,,,,,,,,,,,,,,,,,,,,,,,,,,,,,,,,,
,,,,,,,,,69602491103bb0e29cba7eea,spanish,13 or older,"no, only English or Spanish",no,2026-01-21_16h12.09.744,empathy_intonation_perc_control,2024.2.4,MacIntel,59.52380952,69602491103bb0e29cba7eea,69712dc693a3960bdb483245,69714107e6a68a3e93856800,,,,,,,,,,,,./stim/wavs/mexican_mismatch_interrogative-total-yn_Mi-tia-odia-la-lluvia.wav,1,,,163.6751,165.6746,1,1,1.4696,,0,50,50,38,1,39,0,mexican,,,,,,,,,,,,,,,,,,,,,,,,,,,,,,,,,,,,,,,,,,,,,,,,,,,,,,,,
,,,,,,,,,69602491103bb0e29cba7eea,spanish,13 or older,"no, only English or Spanish",no,2026-01-21_16h12.09.744,empathy_intonation_perc_control,2024.2.4,MacIntel,59.52380952,69602491103bb0e29cba7eea,69712dc693a3960bdb483245,69714107e6a68a3e93856800,,,,,,,,,,,,./stim/wavs/castilian_match_declarative-broad-focus_Emilio-ama-la-marcha.wav,0,,,165.6751,168.1582,0,1,1.9549,,0,51,51,45,1,46,0,castilian,,,,,,,,,,,,,,,,,,,,,,,,,,,,,,,,,,,,,,,,,,,,,,,,,,,,,,,,
,,,,,,,,,69602491103bb0e29cba7eea,spanish,13 or older,"no, only English or Spanish",no,2026-01-21_16h12.09.744,empathy_intonation_perc_control,2024.2.4,MacIntel,59.52380952,69602491103bb0e29cba7eea,69712dc693a3960bdb483245,69714107e6a68a3e93856800,,,,,,,,,,,,./stim/wavs/puertorican_match_interrogative-total-yn_David-leia-el-libro.wav,1,,,168.1589,170.6744,1,1,1.9838,,0,52,52,20,1,21,1,puertorican,,,,,,,,,,,,,,,,,,,,,,,,,,,,,,,,,,,,,,,,,,,,,,,,,,,,,,,,
,,,,,,,,,69602491103bb0e29cba7eea,spanish,13 or older,"no, only English or Spanish",no,2026-01-21_16h12.09.744,empathy_intonation_perc_control,2024.2.4,MacIntel,59.52380952,69602491103bb0e29cba7eea,69712dc693a3960bdb483245,69714107e6a68a3e93856800,,,,,,,,,,,,./stim/wavs/mexican_match_interrogative-total-yn_David-leia-el-libro.wav,1,,,170.6748,172.7748,1,1,1.5837,,0,53,53,14,1,15,0,mexican,,,,,,,,,,,,,,,,,,,,,,,,,,,,,,,,,,,,,,,,,,,,,,,,,,,,,,,,
,,,,,,,,,69602491103bb0e29cba7eea,spanish,13 or older,"no, only English or Spanish",no,2026-01-21_16h12.09.744,empathy_intonation_perc_control,2024.2.4,MacIntel,59.52380952,69602491103bb0e29cba7eea,69712dc693a3960bdb483245,69714107e6a68a3e93856800,,,,,,,,,,,,./stim/wavs/cuban_match_declarative-broad-focus_Ana-lleva-el-abrigo.wav,0,,,172.7755,175.5251,0,1,2.2172,,0,54,54,50,1,51,0,cuban,,,,,,,,,,,,,,,,,,,,,,,,,,,,,,,,,,,,,,,,,,,,,,,,,,,,,,,,
,,,,,,,,,69602491103bb0e29cba7eea,spanish,13 or older,"no, only English or Spanish",no,2026-01-21_16h12.09.744,empathy_intonation_perc_control,2024.2.4,MacIntel,59.52380952,69602491103bb0e29cba7eea,69712dc693a3960bdb483245,69714107e6a68a3e93856800,,,,,,,,,,,,./stim/wavs/castilian_mismatch_interrogative-total-yn_La-nina-lava-el-plato.wav,1,,,175.5258,178.0584,1,1,2.0006,,0,55,55,25,1,26,0,castilian,,,,,,,,,,,,,,,,,,,,,,,,,,,,,,,,,,,,,,,,,,,,,,,,,,,,,,,,
,,,,,,,,,69602491103bb0e29cba7eea,spanish,13 or older,"no, only English or Spanish",no,2026-01-21_16h12.09.744,empathy_intonation_perc_control,2024.2.4,MacIntel,59.52380952,69602491103bb0e29cba7eea,69712dc693a3960bdb483245,69714107e6a68a3e93856800,,,,,,,,,,,,./stim/wavs/castilian_match_interrogative-total-yn_Emilio-ama-la-marcha.wav,1,,,178.0591,180.5246,1,1,1.9427,,0,56,56,1,1,2,0,castilian,,,,,,,,,,,,,,,,,,,,,,,,,,,,,,,,,,,,,,,,,,,,,,,,,,,,,,,,
,,,,,,,,,69602491103bb0e29cba7eea,spanish,13 or older,"no, only English or Spanish",no,2026-01-21_16h12.09.744,empathy_intonation_perc_control,2024.2.4,MacIntel,59.52380952,69602491103bb0e29cba7eea,69712dc693a3960bdb483245,69714107e6a68a3e93856800,,,,,,,,,,,,./stim/wavs/puertorican_match_declarative-broad-focus_David-leia-el-libro.wav,0,,,180.5249,182.6917,0,1,1.6352,,0,57,57,64,1,65,0,puertorican,,,,,,,,,,,,,,,,,,,,,,,,,,,,,,,,,,,,,,,,,,,,,,,,,,,,,,,,
,,,,,,,,,69602491103bb0e29cba7eea,spanish,13 or older,"no, only English or Spanish",no,2026-01-21_16h12.09.744,empathy_intonation_perc_control,2024.2.4,MacIntel,59.52380952,69602491103bb0e29cba7eea,69712dc693a3960bdb483245,69714107e6a68a3e93856800,,,,,,,,,,,,./stim/wavs/castilian_match_declarative-broad-focus_Manuela-vende-el-carro.wav,0,,,182.6924,185.4916,0,1,2.2667,,0,58,58,46,1,47,0,castilian,,,,,,,,,,,,,,,,,,,,,,,,,,,,,,,,,,,,,,,,,,,,,,,,,,,,,,,,
,,,,,,,,,69602491103bb0e29cba7eea,spanish,13 or older,"no, only English or Spanish",no,2026-01-21_16h12.09.744,empathy_intonation_perc_control,2024.2.4,MacIntel,59.52380952,69602491103bb0e29cba7eea,69712dc693a3960bdb483245,69714107e6a68a3e93856800,,,,,,,,,,,,./stim/wavs/puertorican_mismatch_declarative-broad-focus_El-hombre-mira-la-luna.wav,0,,,185.4922,188.0418,0,1,2.0179,,0,59,59,84,1,85,0,puertorican,,,,,,,,,,,,,,,,,,,,,,,,,,,,,,,,,,,,,,,,,,,,,,,,,,,,,,,,
,,,,,,,,,69602491103bb0e29cba7eea,spanish,13 or older,"no, only English or Spanish",no,2026-01-21_16h12.09.744,empathy_intonation_perc_control,2024.2.4,MacIntel,59.52380952,69602491103bb0e29cba7eea,69712dc693a3960bdb483245,69714107e6a68a3e93856800,,,,,,,,,,,,./stim/wavs/cuban_mismatch_interrogative-total-yn_El-hombre-mira-la-luna.wav,1,,,188.0425,190.4088,1,1,1.8335,,0,60,60,29,1,30,1,cuban,,,,,,,,,,,,,,,,,,,,,,,,,,,,,,,,,,,,,,,,,,,,,,,,,,,,,,,,
,,,,,,,,,69602491103bb0e29cba7eea,spanish,13 or older,"no, only English or Spanish",no,2026-01-21_16h12.09.744,empathy_intonation_perc_control,2024.2.4,MacIntel,59.52380952,69602491103bb0e29cba7eea,69712dc693a3960bdb483245,69714107e6a68a3e93856800,,,,,,,,,,,,./stim/wavs/castilian_mismatch_interrogative-total-yn_Mi-tia-odia-la-lluvia.wav,1,,,190.4095,192.7586,1,1,1.8179,,0,61,61,28,1,29,0,castilian,,,,,,,,,,,,,,,,,,,,,,,,,,,,,,,,,,,,,,,,,,,,,,,,,,,,,,,,
,,,,,,,,,69602491103bb0e29cba7eea,spanish,13 or older,"no, only English or Spanish",no,2026-01-21_16h12.09.744,empathy_intonation_perc_control,2024.2.4,MacIntel,59.52380952,69602491103bb0e29cba7eea,69712dc693a3960bdb483245,69714107e6a68a3e93856800,,,,,,,,,,,,./stim/wavs/mexican_match_interrogative-total-yn_Ana-lleva-el-abrigo.wav,1,,,192.7591,195.2083,1,1,1.917,,0,62,62,12,1,13,0,mexican,,,,,,,,,,,,,,,,,,,,,,,,,,,,,,,,,,,,,,,,,,,,,,,,,,,,,,,,
,,,,,,,,,69602491103bb0e29cba7eea,spanish,13 or older,"no, only English or Spanish",no,2026-01-21_16h12.09.744,empathy_intonation_perc_control,2024.2.4,MacIntel,59.52380952,69602491103bb0e29cba7eea,69712dc693a3960bdb483245,69714107e6a68a3e93856800,,,,,,,,,,,,./stim/wavs/cuban_match_interrogative-total-yn_Maria-bebe-el-vino.wav,1,,,195.2089,197.7921,0,0,2.0659,,0,63,63,9,1,10,1,cuban,,,,,,,,,,,,,,,,,,,,,,,,,,,,,,,,,,,,,,,,,,,,,,,,,,,,,,,,
,,,,,,,,,69602491103bb0e29cba7eea,spanish,13 or older,"no, only English or Spanish",no,2026-01-21_16h12.09.744,empathy_intonation_perc_control,2024.2.4,MacIntel,59.52380952,69602491103bb0e29cba7eea,69712dc693a3960bdb483245,69714107e6a68a3e93856800,,,,,,,,,,,,./stim/wavs/mexican_mismatch_declarative-broad-focus_Mi-tia-odia-la-lluvia.wav,0,,,197.7929,200.3249,0,1,2.0024,,0,64,64,82,1,83,0,mexican,,,,,,,,,,,,,,,,,,,,,,,,,,,,,,,,,,,,,,,,,,,,,,,,,,,,,,,,
,,,,,,,,,69602491103bb0e29cba7eea,spanish,13 or older,"no, only English or Spanish",no,2026-01-21_16h12.09.744,empathy_intonation_perc_control,2024.2.4,MacIntel,59.52380952,69602491103bb0e29cba7eea,69712dc693a3960bdb483245,69714107e6a68a3e93856800,,,,,,,,,,,,./stim/wavs/cuban_mismatch_interrogative-total-yn_Mi-tia-odia-la-lluvia.wav,1,,,200.3256,201.2253,0,0,0.3681,,0,65,65,33,1,34,1,cuban,,,,,,,,,,,,,,,,,,,,,,,,,,,,,,,,,,,,,,,,,,,,,,,,,,,,,,,,
,,,,,,,,,69602491103bb0e29cba7eea,spanish,13 or older,"no, only English or Spanish",no,2026-01-21_16h12.09.744,empathy_intonation_perc_control,2024.2.4,MacIntel,59.52380952,69602491103bb0e29cba7eea,69712dc693a3960bdb483245,69714107e6a68a3e93856800,,,,,,,,,,,,./stim/wavs/cuban_mismatch_declarative-broad-focus_El-bebe-comia-muy-bien.wav,0,,,201.2259,203.4086,0,1,1.6542,,0,66,66,73,1,74,0,cuban,,,,,,,,,,,,,,,,,,,,,,,,,,,,,,,,,,,,,,,,,,,,,,,,,,,,,,,,
,,,,,,,,,69602491103bb0e29cba7eea,spanish,13 or older,"no, only English or Spanish",no,2026-01-21_16h12.09.744,empathy_intonation_perc_control,2024.2.4,MacIntel,59.52380952,69602491103bb0e29cba7eea,69712dc693a3960bdb483245,69714107e6a68a3e93856800,,,,,,,,,,,,./stim/wavs/mexican_match_interrogative-total-yn_Mariano-habla-del-tiempo.wav,1,,,203.4091,205.9087,1,1,1.9783,,0,67,67,16,1,17,0,mexican,,,,,,,,,,,,,,,,,,,,,,,,,,,,,,,,,,,,,,,,,,,,,,,,,,,,,,,,
,,,,,,,,,69602491103bb0e29cba7eea,spanish,13 or older,"no, only English or Spanish",no,2026-01-21_16h12.09.744,empathy_intonation_perc_control,2024.2.4,MacIntel,59.52380952,69602491103bb0e29cba7eea,69712dc693a3960bdb483245,69714107e6a68a3e93856800,,,,,,,,,,,,./stim/wavs/cuban_mismatch_interrogative-total-yn_Mi-novio-viene-del-lago.wav,1,,,205.9093,208.7257,0,0,2.2832,,0,68,68,32,1,33,1,cuban,,,,,,,,,,,,,,,,,,,,,,,,,,,,,,,,,,,,,,,,,,,,,,,,,,,,,,,,
,,,,,,,,,69602491103bb0e29cba7eea,spanish,13 or older,"no, only English or Spanish",no,2026-01-21_16h12.09.744,empathy_intonation_perc_control,2024.2.4,MacIntel,59.52380952,69602491103bb0e29cba7eea,69712dc693a3960bdb483245,69714107e6a68a3e93856800,,,,,,,,,,,,./stim/wavs/cuban_mismatch_declarative-broad-focus_Mi-novio-viene-del-lago.wav,0,,,208.7266,210.842,0,1,1.5945,,0,69,69,76,1,77,0,cuban,,,,,,,,,,,,,,,,,,,,,,,,,,,,,,,,,,,,,,,,,,,,,,,,,,,,,,,,
,,,,,,,,,69602491103bb0e29cba7eea,spanish,13 or older,"no, only English or Spanish",no,2026-01-21_16h12.09.744,empathy_intonation_perc_control,2024.2.4,MacIntel,59.52380952,69602491103bb0e29cba7eea,69712dc693a3960bdb483245,69714107e6a68a3e93856800,,,,,,,,,,,,./stim/wavs/castilian_mismatch_declarative-broad-focus_Mi-tia-odia-la-lluvia.wav,0,,,210.8427,213.0924,0,1,1.7189,,0,70,70,72,1,73,0,castilian,,,,,,,,,,,,,,,,,,,,,,,,,,,,,,,,,,,,,,,,,,,,,,,,,,,,,,,,
,,,,,,,,,69602491103bb0e29cba7eea,spanish,13 or older,"no, only English or Spanish",no,2026-01-21_16h12.09.744,empathy_intonation_perc_control,2024.2.4,MacIntel,59.52380952,69602491103bb0e29cba7eea,69712dc693a3960bdb483245,69714107e6a68a3e93856800,,,,,,,,,,,,./stim/wavs/puertorican_match_interrogative-total-yn_Manuela-vende-el-carro.wav,1,,,213.093,215.5758,1,1,1.9497,,0,71,71,22,1,23,1,puertorican,,,,,,,,,,,,,,,,,,,,,,,,,,,,,,,,,,,,,,,,,,,,,,,,,,,,,,,,
,,,,,,,,,69602491103bb0e29cba7eea,spanish,13 or older,"no, only English or Spanish",no,2026-01-21_16h12.09.744,empathy_intonation_perc_control,2024.2.4,MacIntel,59.52380952,69602491103bb0e29cba7eea,69712dc693a3960bdb483245,69714107e6a68a3e93856800,,,,,,,,,,,,./stim/wavs/castilian_mismatch_declarative-broad-focus_El-nino-oye-el-rio.wav,0,,,215.5764,218.209,0,1,2.0998,,0,72,72,68,1,69,0,castilian,,,,,,,,,,,,,,,,,,,,,,,,,,,,,,,,,,,,,,,,,,,,,,,,,,,,,,,,
,,,,,,,,,69602491103bb0e29cba7eea,spanish,13 or older,"no, only English or Spanish",no,2026-01-21_16h12.09.744,empathy_intonation_perc_control,2024.2.4,MacIntel,59.52380952,69602491103bb0e29cba7eea,69712dc693a3960bdb483245,69714107e6a68a3e93856800,,,,,,,,,,,,./stim/wavs/puertorican_match_declarative-broad-focus_Emilio-ama-la-marcha.wav,0,,,218.2096,220.542,0,1,1.8009,,0,73,73,65,1,66,0,puertorican,,,,,,,,,,,,,,,,,,,,,,,,,,,,,,,,,,,,,,,,,,,,,,,,,,,,,,,,
,,,,,,,,,69602491103bb0e29cba7eea,spanish,13 or older,"no, only English or Spanish",no,2026-01-21_16h12.09.744,empathy_intonation_perc_control,2024.2.4,MacIntel,59.52380952,69602491103bb0e29cba7eea,69712dc693a3960bdb483245,69714107e6a68a3e93856800,,,,,,,,,,,,./stim/wavs/castilian_mismatch_interrogative-total-yn_La-maestra-vive-en-Paris.wav,1,,,220.5423,223.3092,1,1,2.2548,,0,74,74,24,1,25,0,castilian,,,,,,,,,,,,,,,,,,,,,,,,,,,,,,,,,,,,,,,,,,,,,,,,,,,,,,,,
,,,,,,,,,69602491103bb0e29cba7eea,spanish,13 or older,"no, only English or Spanish",no,2026-01-21_16h12.09.744,empathy_intonation_perc_control,2024.2.4,MacIntel,59.52380952,69602491103bb0e29cba7eea,69712dc693a3960bdb483245,69714107e6a68a3e93856800,,,,,,,,,,,,./stim/wavs/puertorican_match_interrogative-total-yn_Emilio-ama-la-marcha.wav,1,,,223.3099,225.5426,1,1,1.7041,,0,75,75,21,1,22,1,puertorican,,,,,,,,,,,,,,,,,,,,,,,,,,,,,,,,,,,,,,,,,,,,,,,,,,,,,,,,
,,,,,,,,,69602491103bb0e29cba7eea,spanish,13 or older,"no, only English or Spanish",no,2026-01-21_16h12.09.744,empathy_intonation_perc_control,2024.2.4,MacIntel,59.52380952,69602491103bb0e29cba7eea,69712dc693a3960bdb483245,69714107e6a68a3e93856800,,,,,,,,,,,,./stim/wavs/puertorican_mismatch_declarative-broad-focus_El-nino-oye-el-rio.wav,0,,,225.5434,229.0428,0,1,2.9701,,0,76,76,85,1,86,0,puertorican,,,,,,,,,,,,,,,,,,,,,,,,,,,,,,,,,,,,,,,,,,,,,,,,,,,,,,,,
,,,,,,,,,69602491103bb0e29cba7eea,spanish,13 or older,"no, only English or Spanish",no,2026-01-21_16h12.09.744,empathy_intonation_perc_control,2024.2.4,MacIntel,59.52380952,69602491103bb0e29cba7eea,69712dc693a3960bdb483245,69714107e6a68a3e93856800,,,,,,,,,,,,./stim/wavs/castilian_mismatch_interrogative-total-yn_Mi-novio-viene-del-lago.wav,1,,,229.0435,231.5429,1,1,1.972,,0,77,77,27,1,28,0,castilian,,,,,,,,,,,,,,,,,,,,,,,,,,,,,,,,,,,,,,,,,,,,,,,,,,,,,,,,
,,,,,,,,,69602491103bb0e29cba7eea,spanish,13 or older,"no, only English or Spanish",no,2026-01-21_16h12.09.744,empathy_intonation_perc_control,2024.2.4,MacIntel,59.52380952,69602491103bb0e29cba7eea,69712dc693a3960bdb483245,69714107e6a68a3e93856800,,,,,,,,,,,,./stim/wavs/castilian_match_declarative-broad-focus_Marta-abre-el-regalo.wav,0,,,231.5437,234.5096,0,1,2.4343,,0,78,78,49,1,50,0,castilian,,,,,,,,,,,,,,,,,,,,,,,,,,,,,,,,,,,,,,,,,,,,,,,,,,,,,,,,
,,,,,,,,,69602491103bb0e29cba7eea,spanish,13 or older,"no, only English or Spanish",no,2026-01-21_16h12.09.744,empathy_intonation_perc_control,2024.2.4,MacIntel,59.52380952,69602491103bb0e29cba7eea,69712dc693a3960bdb483245,69714107e6a68a3e93856800,,,,,,,,,,,,./stim/wavs/puertorican_mismatch_declarative-broad-focus_El-bebe-comia-muy-bien.wav,0,,,234.5104,237.0096,0,1,1.9777,,0,79,79,83,1,84,0,puertorican,,,,,,,,,,,,,,,,,,,,,,,,,,,,,,,,,,,,,,,,,,,,,,,,,,,,,,,,
,,,,,,,,,69602491103bb0e29cba7eea,spanish,13 or older,"no, only English or Spanish",no,2026-01-21_16h12.09.744,empathy_intonation_perc_control,2024.2.4,MacIntel,59.52380952,69602491103bb0e29cba7eea,69712dc693a3960bdb483245,69714107e6a68a3e93856800,,,,,,,,,,,,./stim/wavs/castilian_match_interrogative-total-yn_Manuela-vende-el-carro.wav,1,,,237.01,239.576,1,1,2.033,,0,80,80,2,1,3,0,castilian,,,,,,,,,,,,,,,,,,,,,,,,,,,,,,,,,,,,,,,,,,,,,,,,,,,,,,,,
,,,,,,,,,69602491103bb0e29cba7eea,spanish,13 or older,"no, only English or Spanish",no,2026-01-21_16h12.09.744,empathy_intonation_perc_control,2024.2.4,MacIntel,59.52380952,69602491103bb0e29cba7eea,69712dc693a3960bdb483245,69714107e6a68a3e93856800,,,,,,,,,,,,./stim/wavs/castilian_match_interrogative-total-yn_Mariano-habla-del-tiempo.wav,1,,,239.5766,241.7931,1,1,1.684,,0,81,81,4,1,5,0,castilian,,,,,,,,,,,,,,,,,,,,,,,,,,,,,,,,,,,,,,,,,,,,,,,,,,,,,,,,
,,,,,,,,,69602491103bb0e29cba7eea,spanish,13 or older,"no, only English or Spanish",no,2026-01-21_16h12.09.744,empathy_intonation_perc_control,2024.2.4,MacIntel,59.52380952,69602491103bb0e29cba7eea,69712dc693a3960bdb483245,69714107e6a68a3e93856800,,,,,,,,,,,,./stim/wavs/puertorican_mismatch_interrogative-total-yn_La-maestra-vive-en-Paris.wav,1,,,241.7939,244.176,0,0,1.85,,0,82,82,41,1,42,1,puertorican,,,,,,,,,,,,,,,,,,,,,,,,,,,,,,,,,,,,,,,,,,,,,,,,,,,,,,,,
,,,,,,,,,69602491103bb0e29cba7eea,spanish,13 or older,"no, only English or Spanish",no,2026-01-21_16h12.09.744,empathy_intonation_perc_control,2024.2.4,MacIntel,59.52380952,69602491103bb0e29cba7eea,69712dc693a3960bdb483245,69714107e6a68a3e93856800,,,,,,,,,,,,./stim/wavs/cuban_match_declarative-broad-focus_Mariano-habla-del-tiempo.wav,0,,,244.1763,246.6766,0,1,1.9841,,0,83,83,54,1,55,0,cuban,,,,,,,,,,,,,,,,,,,,,,,,,,,,,,,,,,,,,,,,,,,,,,,,,,,,,,,,
,,,,,,,,,69602491103bb0e29cba7eea,spanish,13 or older,"no, only English or Spanish",no,2026-01-21_16h12.09.744,empathy_intonation_perc_control,2024.2.4,MacIntel,59.52380952,69602491103bb0e29cba7eea,69712dc693a3960bdb483245,69714107e6a68a3e93856800,,,,,,,,,,,,./stim/wavs/puertorican_match_interrogative-total-yn_Ana-lleva-el-abrigo.wav,1,,,246.6773,248.5599,0,0,1.3505,,0,84,84,18,1,19,1,puertorican,,,,,,,,,,,,,,,,,,,,,,,,,,,,,,,,,,,,,,,,,,,,,,,,,,,,,,,,
,,,,,,,,,69602491103bb0e29cba7eea,spanish,13 or older,"no, only English or Spanish",no,2026-01-21_16h12.09.744,empathy_intonation_perc_control,2024.2.4,MacIntel,59.52380952,69602491103bb0e29cba7eea,69712dc693a3960bdb483245,69714107e6a68a3e93856800,,,,,,,,,,,,./stim/wavs/mexican_match_declarative-broad-focus_Emilio-ama-la-marcha.wav,0,,,248.5605,250.7596,0,1,1.6671,,0,85,85,59,1,60,0,mexican,,,,,,,,,,,,,,,,,,,,,,,,,,,,,,,,,,,,,,,,,,,,,,,,,,,,,,,,
,,,,,,,,,69602491103bb0e29cba7eea,spanish,13 or older,"no, only English or Spanish",no,2026-01-21_16h12.09.744,empathy_intonation_perc_control,2024.2.4,MacIntel,59.52380952,69602491103bb0e29cba7eea,69712dc693a3960bdb483245,69714107e6a68a3e93856800,,,,,,,,,,,,./stim/wavs/puertorican_match_interrogative-total-yn_Maria-bebe-el-vino.wav,1,,,250.7604,252.7598,1,1,1.4697,,0,86,86,23,1,24,1,puertorican,,,,,,,,,,,,,,,,,,,,,,,,,,,,,,,,,,,,,,,,,,,,,,,,,,,,,,,,
,,,,,,,,,69602491103bb0e29cba7eea,spanish,13 or older,"no, only English or Spanish",no,2026-01-21_16h12.09.744,empathy_intonation_perc_control,2024.2.4,MacIntel,59.52380952,69602491103bb0e29cba7eea,69712dc693a3960bdb483245,69714107e6a68a3e93856800,,,,,,,,,,,,./stim/wavs/castilian_match_declarative-broad-focus_Maria-bebe-el-vino.wav,0,,,252.7606,255.6433,0,1,2.3547,,0,87,87,47,1,48,0,castilian,,,,,,,,,,,,,,,,,,,,,,,,,,,,,,,,,,,,,,,,,,,,,,,,,,,,,,,,
,,,,,,,"Great! Now we will move on. The next task consists of about 60 trials, in each of which you will see a string of letters. 
  
  Your task is to decide whether this is a real Spanish word or not.", (press the spacebar to continue),69602491103bb0e29cba7eea,spanish,13 or older,"no, only English or Spanish",no,2026-01-21_16h12.09.744,empathy_intonation_perc_control,2024.2.4,MacIntel,59.52380952,69602491103bb0e29cba7eea,69712dc693a3960bdb483245,69714107e6a68a3e93856800,,,,,,,,,,,,,,,,,,,,,,,,,,,,,,255.6494,262.2765,0,0,0,0,1,,,,,,,,,,,,,,,,,,,,,,,,,,,,,,,,,,,,,,,,,,,,,,,,,
,,,,,,,"If you think it is an existing Spanish word, you type '1' (for 'REAL'), and if you think it is not an existing Spanish word, you type '0' (for 'FAKE').", (press the spacebar to continue),69602491103bb0e29cba7eea,spanish,13 or older,"no, only English or Spanish",no,2026-01-21_16h12.09.744,empathy_intonation_perc_control,2024.2.4,MacIntel,59.52380952,69602491103bb0e29cba7eea,69712dc693a3960bdb483245,69714107e6a68a3e93856800,,,,,,,,,,,,,,,,,,,,,,,,,,,,,,262.2772,266.8938,0,1,1,1,1,,,,,,,,,,,,,,,,,,,,,,,,,,,,,,,,,,,,,,,,,,,,,,,,,
,,,,,,,"If you are sure that the word exists, even though you don’t know its exact meaning, you may still respond '1' (REAL). 
  
  But if you are not sure if it is an existing word, you should respond '0' (FAKE).
  
  Let's do a practice round...", (press the spacebar to continue),69602491103bb0e29cba7eea,spanish,13 or older,"no, only English or Spanish",no,2026-01-21_16h12.09.744,empathy_intonation_perc_control,2024.2.4,MacIntel,59.52380952,69602491103bb0e29cba7eea,69712dc693a3960bdb483245,69714107e6a68a3e93856800,,,,,,,,,,,,,,,,,,,,,,,,,,,,,,266.8959,274.9106,0,2,2,2,1,,,,,,,,,,,,,,,,,,,,,,,,,,,,,,,,,,,,,,,,,,,,,,,,,
,,,,,,,,,69602491103bb0e29cba7eea,spanish,13 or older,"no, only English or Spanish",no,2026-01-21_16h12.09.744,empathy_intonation_perc_control,2024.2.4,MacIntel,59.52380952,69602491103bb0e29cba7eea,69712dc693a3960bdb483245,69714107e6a68a3e93856800,,,,,,,,,,,,,0,,,,,,,,,,,,,,,,,,,,,,,,274.9166,278.9442,1,0,3.5001,,278.9445,279.9444,0,0,0,0,1,0,depiste,REAL,FAKE,,,,,,,,,,,,,,,,,,,,,,,,,,,,,,,,
,,,,,,,,,69602491103bb0e29cba7eea,spanish,13 or older,"no, only English or Spanish",no,2026-01-21_16h12.09.744,empathy_intonation_perc_control,2024.2.4,MacIntel,59.52380952,69602491103bb0e29cba7eea,69712dc693a3960bdb483245,69714107e6a68a3e93856800,,,,,,,,,,,,,1,,,,,,,,,,,,,,,,,,,,,,,,279.9464,281.3608,1,1,0.8783,,281.3617,282.3605,0,1,1,1,1,0,sí,REAL,FAKE,,,,,,,,,,,,,,,,,,,,,,,,,,,,,,,,
,,,,,,,,,69602491103bb0e29cba7eea,spanish,13 or older,"no, only English or Spanish",no,2026-01-21_16h12.09.744,empathy_intonation_perc_control,2024.2.4,MacIntel,59.52380952,69602491103bb0e29cba7eea,69712dc693a3960bdb483245,69714107e6a68a3e93856800,,,,,,,,,,,,,0,,,,,,,,,,,,,,,,,,,,,,,,282.362,283.644,1,0,0.7404,,283.6451,284.6441,0,2,2,2,1,0,coné,REAL,FAKE,,,,,,,,,,,,,,,,,,,,,,,,,,,,,,,,
,,,,,,,,,69602491103bb0e29cba7eea,spanish,13 or older,"no, only English or Spanish",no,2026-01-21_16h12.09.744,empathy_intonation_perc_control,2024.2.4,MacIntel,59.52380952,69602491103bb0e29cba7eea,69712dc693a3960bdb483245,69714107e6a68a3e93856800,,,,,,,,,,,,,0,,,,,,,,,,,,,,,,,,,,,,,,284.6455,286.894,1,0,1.7061,,286.894,287.894,0,3,3,3,1,0,calpar,REAL,FAKE,,,,,,,,,,,,,,,,,,,,,,,,,,,,,,,,
,,,,,,,,,69602491103bb0e29cba7eea,spanish,13 or older,"no, only English or Spanish",no,2026-01-21_16h12.09.744,empathy_intonation_perc_control,2024.2.4,MacIntel,59.52380952,69602491103bb0e29cba7eea,69712dc693a3960bdb483245,69714107e6a68a3e93856800,,,,,,,,,,,,,0,,,,,,,,,,,,,,,,,,,,,,,,287.8956,290.1772,0,1,1.7512,,290.1779,291.1776,0,4,4,4,1,0,joten,REAL,FAKE,,,,,,,,,,,,,,,,,,,,,,,,,,,,,,,,
,,,,,,,,,69602491103bb0e29cba7eea,spanish,13 or older,"no, only English or Spanish",no,2026-01-21_16h12.09.744,empathy_intonation_perc_control,2024.2.4,MacIntel,59.52380952,69602491103bb0e29cba7eea,69712dc693a3960bdb483245,69714107e6a68a3e93856800,,,,,,,,,,,,,1,,,,,,,,,,,,,,,,,,,,,,,,291.1788,292.5105,0,0,0.8016,,292.5111,293.5104,0,5,5,5,1,0,sacapuntas,REAL,FAKE,,,,,,,,,,,,,,,,,,,,,,,,,,,,,,,,
,,,,,,,,,69602491103bb0e29cba7eea,spanish,13 or older,"no, only English or Spanish",no,2026-01-21_16h12.09.744,empathy_intonation_perc_control,2024.2.4,MacIntel,59.52380952,69602491103bb0e29cba7eea,69712dc693a3960bdb483245,69714107e6a68a3e93856800,,,,,,,,,,,,,0,,,,,,,,,,,,,,,,,,,,,,,,293.5112,295.8108,1,0,1.7607,,295.811,296.811,0,6,6,6,1,0,priba,REAL,FAKE,,,,,,,,,,,,,,,,,,,,,,,,,,,,,,,,
,,,,,,,,,69602491103bb0e29cba7eea,spanish,13 or older,"no, only English or Spanish",no,2026-01-21_16h12.09.744,empathy_intonation_perc_control,2024.2.4,MacIntel,59.52380952,69602491103bb0e29cba7eea,69712dc693a3960bdb483245,69714107e6a68a3e93856800,,,,,,,,,,,,,0,,,,,,,,,,,,,,,,,,,,,,,,296.8122,298.5274,0,1,1.179,,298.5281,299.5278,0,7,7,7,1,0,pelasula,REAL,FAKE,,,,,,,,,,,,,,,,,,,,,,,,,,,,,,,,
,,,,,,,,,69602491103bb0e29cba7eea,spanish,13 or older,"no, only English or Spanish",no,2026-01-21_16h12.09.744,empathy_intonation_perc_control,2024.2.4,MacIntel,59.52380952,69602491103bb0e29cba7eea,69712dc693a3960bdb483245,69714107e6a68a3e93856800,,,,,,,,,,,,,1,,,,,,,,,,,,,,,,,,,,,,,,299.529,301.1944,1,1,1.131,,301.1944,302.1943,0,8,8,8,1,0,bien,REAL,FAKE,,,,,,,,,,,,,,,,,,,,,,,,,,,,,,,,
,,,,,,,,,69602491103bb0e29cba7eea,spanish,13 or older,"no, only English or Spanish",no,2026-01-21_16h12.09.744,empathy_intonation_perc_control,2024.2.4,MacIntel,59.52380952,69602491103bb0e29cba7eea,69712dc693a3960bdb483245,69714107e6a68a3e93856800,,,,,,,,,,,,,1,,,,,,,,,,,,,,,,,,,,,,,,302.1957,303.7939,1,1,1.0573,,303.794,304.7944,0,9,9,9,1,0,casa,REAL,FAKE,,,,,,,,,,,,,,,,,,,,,,,,,,,,,,,,
,,,,,,,,,69602491103bb0e29cba7eea,spanish,13 or older,"no, only English or Spanish",no,2026-01-21_16h12.09.744,empathy_intonation_perc_control,2024.2.4,MacIntel,59.52380952,69602491103bb0e29cba7eea,69712dc693a3960bdb483245,69714107e6a68a3e93856800,,,,,,,,,,,,,0,,,,,,,,,,,,,,,,,,,,,,,,304.7958,306.3279,0,1,0.9928,,306.328,307.3277,0,10,10,10,1,0,lejo,REAL,FAKE,,,,,,,,,,,,,,,,,,,,,,,,,,,,,,,,
,,,,,,,,,69602491103bb0e29cba7eea,spanish,13 or older,"no, only English or Spanish",no,2026-01-21_16h12.09.744,empathy_intonation_perc_control,2024.2.4,MacIntel,59.52380952,69602491103bb0e29cba7eea,69712dc693a3960bdb483245,69714107e6a68a3e93856800,,,,,,,,,,,,,0,,,,,,,,,,,,,,,,,,,,,,,,307.3293,309.0275,0,1,1.1553,,309.0275,310.0275,0,11,11,11,1,0,pretantas,REAL,FAKE,,,,,,,,,,,,,,,,,,,,,,,,,,,,,,,,
,,,,,,,,,69602491103bb0e29cba7eea,spanish,13 or older,"no, only English or Spanish",no,2026-01-21_16h12.09.744,empathy_intonation_perc_control,2024.2.4,MacIntel,59.52380952,69602491103bb0e29cba7eea,69712dc693a3960bdb483245,69714107e6a68a3e93856800,,,,,,,,,,,,,,,,,,,,,,,,,,,,,,,,,,,,,,,,,,,,,,,,,,,,,,310.0277,311.3451,,,,,,,,,,,,,,,,,,,,,,,,,,,,,,
,,,,,,,,,69602491103bb0e29cba7eea,spanish,13 or older,"no, only English or Spanish",no,2026-01-21_16h12.09.744,empathy_intonation_perc_control,2024.2.4,MacIntel,59.52380952,69602491103bb0e29cba7eea,69712dc693a3960bdb483245,69714107e6a68a3e93856800,,,,,,,,,,,,,1,,,,,,,,,,,,,,,,,,,,,,,,,,,,,,,,,,,,,56,musgo,,,,,311.3571,312.878,0,0,0.9984,,0,0,0,55,1,REAL,FAKE,,,,,,,,,,,,,,,,,
,,,,,,,,,69602491103bb0e29cba7eea,spanish,13 or older,"no, only English or Spanish",no,2026-01-21_16h12.09.744,empathy_intonation_perc_control,2024.2.4,MacIntel,59.52380952,69602491103bb0e29cba7eea,69712dc693a3960bdb483245,69714107e6a68a3e93856800,,,,,,,,,,,,,1,,,,,,,,,,,,,,,,,,,,,,,,,,,,,,,,,,,,,77,tiburón,,,,,312.879,314.078,0,0,0.6554,,0,1,1,76,1,REAL,FAKE,,,,,,,,,,,,,,,,,
,,,,,,,,,69602491103bb0e29cba7eea,spanish,13 or older,"no, only English or Spanish",no,2026-01-21_16h12.09.744,empathy_intonation_perc_control,2024.2.4,MacIntel,59.52380952,69602491103bb0e29cba7eea,69712dc693a3960bdb483245,69714107e6a68a3e93856800,,,,,,,,,,,,,1,,,,,,,,,,,,,,,,,,,,,,,,,,,,,,,,,,,,,73,hervidor,,,,,314.0793,315.1112,0,0,0.4933,,0,2,2,72,1,REAL,FAKE,,,,,,,,,,,,,,,,,
,,,,,,,,,69602491103bb0e29cba7eea,spanish,13 or older,"no, only English or Spanish",no,2026-01-21_16h12.09.744,empathy_intonation_perc_control,2024.2.4,MacIntel,59.52380952,69602491103bb0e29cba7eea,69712dc693a3960bdb483245,69714107e6a68a3e93856800,,,,,,,,,,,,,1,,,,,,,,,,,,,,,,,,,,,,,,,,,,,,,,,,,,,9,hacha,,,,,315.1125,316.9447,0,0,1.2982,,0,3,3,8,1,REAL,FAKE,,,,,,,,,,,,,,,,,
,,,,,,,,,69602491103bb0e29cba7eea,spanish,13 or older,"no, only English or Spanish",no,2026-01-21_16h12.09.744,empathy_intonation_perc_control,2024.2.4,MacIntel,59.52380952,69602491103bb0e29cba7eea,69712dc693a3960bdb483245,69714107e6a68a3e93856800,,,,,,,,,,,,,1,,,,,,,,,,,,,,,,,,,,,,,,,,,,,,,,,,,,,85,laúd,,,,,316.9463,318.0946,0,0,0.6103,,0,4,4,84,1,REAL,FAKE,,,,,,,,,,,,,,,,,
,,,,,,,,,69602491103bb0e29cba7eea,spanish,13 or older,"no, only English or Spanish",no,2026-01-21_16h12.09.744,empathy_intonation_perc_control,2024.2.4,MacIntel,59.52380952,69602491103bb0e29cba7eea,69712dc693a3960bdb483245,69714107e6a68a3e93856800,,,,,,,,,,,,,1,,,,,,,,,,,,,,,,,,,,,,,,,,,,,,,,,,,,,88,acantilado,,,,,318.0957,320.3114,0,0,1.6793,,0,5,5,87,1,REAL,FAKE,,,,,,,,,,,,,,,,,
,,,,,,,,,69602491103bb0e29cba7eea,spanish,13 or older,"no, only English or Spanish",no,2026-01-21_16h12.09.744,empathy_intonation_perc_control,2024.2.4,MacIntel,59.52380952,69602491103bb0e29cba7eea,69712dc693a3960bdb483245,69714107e6a68a3e93856800,,,,,,,,,,,,,1,,,,,,,,,,,,,,,,,,,,,,,,,,,,,,,,,,,,,34,aviso,,,,,320.3125,321.4447,0,0,0.5897,,0,6,6,33,1,REAL,FAKE,,,,,,,,,,,,,,,,,
,,,,,,,,,69602491103bb0e29cba7eea,spanish,13 or older,"no, only English or Spanish",no,2026-01-21_16h12.09.744,empathy_intonation_perc_control,2024.2.4,MacIntel,59.52380952,69602491103bb0e29cba7eea,69712dc693a3960bdb483245,69714107e6a68a3e93856800,,,,,,,,,,,,,1,,,,,,,,,,,,,,,,,,,,,,,,,,,,,,,,,,,,,78,frondoso,,,,,321.4458,322.5448,0,0,0.5624,,0,7,7,77,1,REAL,FAKE,,,,,,,,,,,,,,,,,
,,,,,,,,,69602491103bb0e29cba7eea,spanish,13 or older,"no, only English or Spanish",no,2026-01-21_16h12.09.744,empathy_intonation_perc_control,2024.2.4,MacIntel,59.52380952,69602491103bb0e29cba7eea,69712dc693a3960bdb483245,69714107e6a68a3e93856800,,,,,,,,,,,,,1,,,,,,,,,,,,,,,,,,,,,,,,,,,,,,,,,,,,,49,ganar,,,,,322.546,324.6116,0,0,1.5295,,0,8,8,48,1,REAL,FAKE,,,,,,,,,,,,,,,,,
,,,,,,,,,69602491103bb0e29cba7eea,spanish,13 or older,"no, only English or Spanish",no,2026-01-21_16h12.09.744,empathy_intonation_perc_control,2024.2.4,MacIntel,59.52380952,69602491103bb0e29cba7eea,69712dc693a3960bdb483245,69714107e6a68a3e93856800,,,,,,,,,,,,,0,,,,,,,,,,,,,,,,,,,,,,,,,,,,,,,,,,,,,18,arsa,,,,,324.6127,325.7448,0,1,0.5906,,0,9,9,17,1,REAL,FAKE,,,,,,,,,,,,,,,,,
,,,,,,,,,69602491103bb0e29cba7eea,spanish,13 or older,"no, only English or Spanish",no,2026-01-21_16h12.09.744,empathy_intonation_perc_control,2024.2.4,MacIntel,59.52380952,69602491103bb0e29cba7eea,69712dc693a3960bdb483245,69714107e6a68a3e93856800,,,,,,,,,,,,,0,,,,,,,,,,,,,,,,,,,,,,,,,,,,,,,,,,,,,53,vegada,,,,,325.746,326.8775,0,1,0.5952,,0,10,10,52,1,REAL,FAKE,,,,,,,,,,,,,,,,,
,,,,,,,,,69602491103bb0e29cba7eea,spanish,13 or older,"no, only English or Spanish",no,2026-01-21_16h12.09.744,empathy_intonation_perc_control,2024.2.4,MacIntel,59.52380952,69602491103bb0e29cba7eea,69712dc693a3960bdb483245,69714107e6a68a3e93856800,,,,,,,,,,,,,1,,,,,,,,,,,,,,,,,,,,,,,,,,,,,,,,,,,,,46,martillo,,,,,326.8787,328.0616,0,0,0.6632,,0,11,11,45,1,REAL,FAKE,,,,,,,,,,,,,,,,,
,,,,,,,,,69602491103bb0e29cba7eea,spanish,13 or older,"no, only English or Spanish",no,2026-01-21_16h12.09.744,empathy_intonation_perc_control,2024.2.4,MacIntel,59.52380952,69602491103bb0e29cba7eea,69712dc693a3960bdb483245,69714107e6a68a3e93856800,,,,,,,,,,,,,1,,,,,,,,,,,,,,,,,,,,,,,,,,,,,,,,,,,,,38,estornudar,,,,,328.0632,329.3116,0,0,0.7121,,0,12,12,37,1,REAL,FAKE,,,,,,,,,,,,,,,,,
,,,,,,,,,69602491103bb0e29cba7eea,spanish,13 or older,"no, only English or Spanish",no,2026-01-21_16h12.09.744,empathy_intonation_perc_control,2024.2.4,MacIntel,59.52380952,69602491103bb0e29cba7eea,69712dc693a3960bdb483245,69714107e6a68a3e93856800,,,,,,,,,,,,,1,,,,,,,,,,,,,,,,,,,,,,,,,,,,,,,,,,,,,37,granuja,,,,,329.3129,330.4616,0,0,0.6118,,0,13,13,36,1,REAL,FAKE,,,,,,,,,,,,,,,,,
,,,,,,,,,69602491103bb0e29cba7eea,spanish,13 or older,"no, only English or Spanish",no,2026-01-21_16h12.09.744,empathy_intonation_perc_control,2024.2.4,MacIntel,59.52380952,69602491103bb0e29cba7eea,69712dc693a3960bdb483245,69714107e6a68a3e93856800,,,,,,,,,,,,,1,,,,,,,,,,,,,,,,,,,,,,,,,,,,,,,,,,,,,52,camisa,,,,,330.4627,332.3783,1,1,1.3831,,0,14,14,51,1,REAL,FAKE,,,,,,,,,,,,,,,,,
,,,,,,,,,69602491103bb0e29cba7eea,spanish,13 or older,"no, only English or Spanish",no,2026-01-21_16h12.09.744,empathy_intonation_perc_control,2024.2.4,MacIntel,59.52380952,69602491103bb0e29cba7eea,69712dc693a3960bdb483245,69714107e6a68a3e93856800,,,,,,,,,,,,,1,,,,,,,,,,,,,,,,,,,,,,,,,,,,,,,,,,,,,5,zapato,,,,,332.3795,334.095,1,1,1.1694,,0,15,15,4,1,REAL,FAKE,,,,,,,,,,,,,,,,,
,,,,,,,,,69602491103bb0e29cba7eea,spanish,13 or older,"no, only English or Spanish",no,2026-01-21_16h12.09.744,empathy_intonation_perc_control,2024.2.4,MacIntel,59.52380952,69602491103bb0e29cba7eea,69712dc693a3960bdb483245,69714107e6a68a3e93856800,,,,,,,,,,,,,0,,,,,,,,,,,,,,,,,,,,,,,,,,,,,,,,,,,,,79,tropaje,,,,,334.0961,335.7449,1,0,1.1115,,0,16,16,78,1,REAL,FAKE,,,,,,,,,,,,,,,,,
,,,,,,,,,69602491103bb0e29cba7eea,spanish,13 or older,"no, only English or Spanish",no,2026-01-21_16h12.09.744,empathy_intonation_perc_control,2024.2.4,MacIntel,59.52380952,69602491103bb0e29cba7eea,69712dc693a3960bdb483245,69714107e6a68a3e93856800,,,,,,,,,,,,,1,,,,,,,,,,,,,,,,,,,,,,,,,,,,,,,,,,,,,2,pellizcar,,,,,335.746,337.8784,0,0,1.5898,,0,17,17,1,1,REAL,FAKE,,,,,,,,,,,,,,,,,
,,,,,,,,,69602491103bb0e29cba7eea,spanish,13 or older,"no, only English or Spanish",no,2026-01-21_16h12.09.744,empathy_intonation_perc_control,2024.2.4,MacIntel,59.52380952,69602491103bb0e29cba7eea,69712dc693a3960bdb483245,69714107e6a68a3e93856800,,,,,,,,,,,,,1,,,,,,,,,,,,,,,,,,,,,,,,,,,,,,,,,,,,,81,pozo,,,,,337.8798,339.1617,0,0,0.7414,,0,18,18,80,1,REAL,FAKE,,,,,,,,,,,,,,,,,
,,,,,,,,,69602491103bb0e29cba7eea,spanish,13 or older,"no, only English or Spanish",no,2026-01-21_16h12.09.744,empathy_intonation_perc_control,2024.2.4,MacIntel,59.52380952,69602491103bb0e29cba7eea,69712dc693a3960bdb483245,69714107e6a68a3e93856800,,,,,,,,,,,,,0,,,,,,,,,,,,,,,,,,,,,,,,,,,,,,,,,,,,,1,terzo,,,,,339.1629,340.3618,0,1,0.6648,,0,19,19,0,1,REAL,FAKE,,,,,,,,,,,,,,,,,
,,,,,,,,,69602491103bb0e29cba7eea,spanish,13 or older,"no, only English or Spanish",no,2026-01-21_16h12.09.744,empathy_intonation_perc_control,2024.2.4,MacIntel,59.52380952,69602491103bb0e29cba7eea,69712dc693a3960bdb483245,69714107e6a68a3e93856800,,,,,,,,,,,,,1,,,,,,,,,,,,,,,,,,,,,,,,,,,,,,,,,,,,,57,tacaño,,,,,340.3629,341.7786,0,0,0.8776,,0,20,20,56,1,REAL,FAKE,,,,,,,,,,,,,,,,,
,,,,,,,,,69602491103bb0e29cba7eea,spanish,13 or older,"no, only English or Spanish",no,2026-01-21_16h12.09.744,empathy_intonation_perc_control,2024.2.4,MacIntel,59.52380952,69602491103bb0e29cba7eea,69712dc693a3960bdb483245,69714107e6a68a3e93856800,,,,,,,,,,,,,0,,,,,,,,,,,,,,,,,,,,,,,,,,,,,,,,,,,,,30,alardio,,,,,341.7799,343.0616,0,1,0.755,,0,21,21,29,1,REAL,FAKE,,,,,,,,,,,,,,,,,
,,,,,,,,,69602491103bb0e29cba7eea,spanish,13 or older,"no, only English or Spanish",no,2026-01-21_16h12.09.744,empathy_intonation_perc_control,2024.2.4,MacIntel,59.52380952,69602491103bb0e29cba7eea,69712dc693a3960bdb483245,69714107e6a68a3e93856800,,,,,,,,,,,,,1,,,,,,,,,,,,,,,,,,,,,,,,,,,,,,,,,,,,,43,canela,,,,,343.0622,344.2285,0,0,0.6354,,0,22,22,42,1,REAL,FAKE,,,,,,,,,,,,,,,,,
,,,,,,,,,69602491103bb0e29cba7eea,spanish,13 or older,"no, only English or Spanish",no,2026-01-21_16h12.09.744,empathy_intonation_perc_control,2024.2.4,MacIntel,59.52380952,69602491103bb0e29cba7eea,69712dc693a3960bdb483245,69714107e6a68a3e93856800,,,,,,,,,,,,,1,,,,,,,,,,,,,,,,,,,,,,,,,,,,,,,,,,,,,45,jilguero,,,,,344.23,345.495,0,0,0.729,,0,23,23,44,1,REAL,FAKE,,,,,,,,,,,,,,,,,
,,,,,,,,,69602491103bb0e29cba7eea,spanish,13 or older,"no, only English or Spanish",no,2026-01-21_16h12.09.744,empathy_intonation_perc_control,2024.2.4,MacIntel,59.52380952,69602491103bb0e29cba7eea,69712dc693a3960bdb483245,69714107e6a68a3e93856800,,,,,,,,,,,,,0,,,,,,,,,,,,,,,,,,,,,,,,,,,,,,,,,,,,,74,cintro,,,,,345.496,346.7954,0,1,0.7625,,0,24,24,73,1,REAL,FAKE,,,,,,,,,,,,,,,,,
,,,,,,,,,69602491103bb0e29cba7eea,spanish,13 or older,"no, only English or Spanish",no,2026-01-21_16h12.09.744,empathy_intonation_perc_control,2024.2.4,MacIntel,59.52380952,69602491103bb0e29cba7eea,69712dc693a3960bdb483245,69714107e6a68a3e93856800,,,,,,,,,,,,,1,,,,,,,,,,,,,,,,,,,,,,,,,,,,,,,,,,,,,48,ladrón,,,,,346.7966,348.0453,0,0,0.7115,,0,25,25,47,1,REAL,FAKE,,,,,,,,,,,,,,,,,
,,,,,,,,,69602491103bb0e29cba7eea,spanish,13 or older,"no, only English or Spanish",no,2026-01-21_16h12.09.744,empathy_intonation_perc_control,2024.2.4,MacIntel,59.52380952,69602491103bb0e29cba7eea,69712dc693a3960bdb483245,69714107e6a68a3e93856800,,,,,,,,,,,,,1,,,,,,,,,,,,,,,,,,,,,,,,,,,,,,,,,,,,,14,yunque,,,,,348.0465,349.0955,0,0,0.5068,,0,26,26,13,1,REAL,FAKE,,,,,,,,,,,,,,,,,
,,,,,,,,,69602491103bb0e29cba7eea,spanish,13 or older,"no, only English or Spanish",no,2026-01-21_16h12.09.744,empathy_intonation_perc_control,2024.2.4,MacIntel,59.52380952,69602491103bb0e29cba7eea,69712dc693a3960bdb483245,69714107e6a68a3e93856800,,,,,,,,,,,,,1,,,,,,,,,,,,,,,,,,,,,,,,,,,,,,,,,,,,,28,merodear,,,,,349.0968,350.0453,0,0,0.412,,0,27,27,27,1,REAL,FAKE,,,,,,,,,,,,,,,,,
,,,,,,,,,69602491103bb0e29cba7eea,spanish,13 or older,"no, only English or Spanish",no,2026-01-21_16h12.09.744,empathy_intonation_perc_control,2024.2.4,MacIntel,59.52380952,69602491103bb0e29cba7eea,69712dc693a3960bdb483245,69714107e6a68a3e93856800,,,,,,,,,,,,,0,,,,,,,,,,,,,,,,,,,,,,,,,,,,,,,,,,,,,32,fatacidad,,,,,350.0468,350.962,0,1,0.3794,,0,28,28,31,1,REAL,FAKE,,,,,,,,,,,,,,,,,
,,,,,,,,,69602491103bb0e29cba7eea,spanish,13 or older,"no, only English or Spanish",no,2026-01-21_16h12.09.744,empathy_intonation_perc_control,2024.2.4,MacIntel,59.52380952,69602491103bb0e29cba7eea,69712dc693a3960bdb483245,69714107e6a68a3e93856800,,,,,,,,,,,,,1,,,,,,,,,,,,,,,,,,,,,,,,,,,,,,,,,,,,,69,engatusar,,,,,350.963,351.8284,0,0,0.3304,,0,29,29,68,1,REAL,FAKE,,,,,,,,,,,,,,,,,
,,,,,,,,,69602491103bb0e29cba7eea,spanish,13 or older,"no, only English or Spanish",no,2026-01-21_16h12.09.744,empathy_intonation_perc_control,2024.2.4,MacIntel,59.52380952,69602491103bb0e29cba7eea,69712dc693a3960bdb483245,69714107e6a68a3e93856800,,,,,,,,,,,,,0,,,,,,,,,,,,,,,,,,,,,,,,,,,,,,,,,,,,,63,esposante,,,,,351.8291,352.8454,0,1,0.4829,,0,30,30,62,1,REAL,FAKE,,,,,,,,,,,,,,,,,
,,,,,,,,,69602491103bb0e29cba7eea,spanish,13 or older,"no, only English or Spanish",no,2026-01-21_16h12.09.744,empathy_intonation_perc_control,2024.2.4,MacIntel,59.52380952,69602491103bb0e29cba7eea,69712dc693a3960bdb483245,69714107e6a68a3e93856800,,,,,,,,,,,,,0,,,,,,,,,,,,,,,,,,,,,,,,,,,,,,,,,,,,,21,capillo,,,,,352.8464,353.7287,0,1,0.3488,,0,31,31,20,1,REAL,FAKE,,,,,,,,,,,,,,,,,
,,,,,,,,,69602491103bb0e29cba7eea,spanish,13 or older,"no, only English or Spanish",no,2026-01-21_16h12.09.744,empathy_intonation_perc_control,2024.2.4,MacIntel,59.52380952,69602491103bb0e29cba7eea,69712dc693a3960bdb483245,69714107e6a68a3e93856800,,,,,,,,,,,,,0,,,,,,,,,,,,,,,,,,,,,,,,,,,,,,,,,,,,,50,flamida,,,,,353.7299,354.8955,0,1,0.6295,,0,32,32,49,1,REAL,FAKE,,,,,,,,,,,,,,,,,
,,,,,,,,,69602491103bb0e29cba7eea,spanish,13 or older,"no, only English or Spanish",no,2026-01-21_16h12.09.744,empathy_intonation_perc_control,2024.2.4,MacIntel,59.52380952,69602491103bb0e29cba7eea,69712dc693a3960bdb483245,69714107e6a68a3e93856800,,,,,,,,,,,,,0,,,,,,,,,,,,,,,,,,,,,,,,,,,,,,,,,,,,,4,batillón,,,,,354.8966,356.0121,0,1,0.5797,,0,33,33,3,1,REAL,FAKE,,,,,,,,,,,,,,,,,
,,,,,,,,,69602491103bb0e29cba7eea,spanish,13 or older,"no, only English or Spanish",no,2026-01-21_16h12.09.744,empathy_intonation_perc_control,2024.2.4,MacIntel,59.52380952,69602491103bb0e29cba7eea,69712dc693a3960bdb483245,69714107e6a68a3e93856800,,,,,,,,,,,,,1,,,,,,,,,,,,,,,,,,,,,,,,,,,,,,,,,,,,,90,clavel,,,,,356.013,357.1454,0,0,0.5973,,0,34,34,89,1,REAL,FAKE,,,,,,,,,,,,,,,,,
,,,,,,,,,69602491103bb0e29cba7eea,spanish,13 or older,"no, only English or Spanish",no,2026-01-21_16h12.09.744,empathy_intonation_perc_control,2024.2.4,MacIntel,59.52380952,69602491103bb0e29cba7eea,69712dc693a3960bdb483245,69714107e6a68a3e93856800,,,,,,,,,,,,,1,,,,,,,,,,,,,,,,,,,,,,,,,,,,,,,,,,,,,60,matar,,,,,357.1467,358.0286,0,0,0.3507,,0,35,35,59,1,REAL,FAKE,,,,,,,,,,,,,,,,,
,,,,,,,,,69602491103bb0e29cba7eea,spanish,13 or older,"no, only English or Spanish",no,2026-01-21_16h12.09.744,empathy_intonation_perc_control,2024.2.4,MacIntel,59.52380952,69602491103bb0e29cba7eea,69712dc693a3960bdb483245,69714107e6a68a3e93856800,,,,,,,,,,,,,0,,,,,,,,,,,,,,,,,,,,,,,,,,,,,,,,,,,,,72,pemición,,,,,358.0293,358.9956,0,1,0.4348,,0,36,36,71,1,REAL,FAKE,,,,,,,,,,,,,,,,,
,,,,,,,,,69602491103bb0e29cba7eea,spanish,13 or older,"no, only English or Spanish",no,2026-01-21_16h12.09.744,empathy_intonation_perc_control,2024.2.4,MacIntel,59.52380952,69602491103bb0e29cba7eea,69712dc693a3960bdb483245,69714107e6a68a3e93856800,,,,,,,,,,,,,0,,,,,,,,,,,,,,,,,,,,,,,,,,,,,,,,,,,,,87,grodo,,,,,358.9969,359.9455,0,1,0.4133,,0,37,37,86,1,REAL,FAKE,,,,,,,,,,,,,,,,,
,,,,,,,,,69602491103bb0e29cba7eea,spanish,13 or older,"no, only English or Spanish",no,2026-01-21_16h12.09.744,empathy_intonation_perc_control,2024.2.4,MacIntel,59.52380952,69602491103bb0e29cba7eea,69712dc693a3960bdb483245,69714107e6a68a3e93856800,,,,,,,,,,,,,1,,,,,,,,,,,,,,,,,,,,,,,,,,,,,,,,,,,,,39,torpe,,,,,359.9467,360.8955,0,0,0.4135,,0,38,38,38,1,REAL,FAKE,,,,,,,,,,,,,,,,,
,,,,,,,,,69602491103bb0e29cba7eea,spanish,13 or older,"no, only English or Spanish",no,2026-01-21_16h12.09.744,empathy_intonation_perc_control,2024.2.4,MacIntel,59.52380952,69602491103bb0e29cba7eea,69712dc693a3960bdb483245,69714107e6a68a3e93856800,,,,,,,,,,,,,0,,,,,,,,,,,,,,,,,,,,,,,,,,,,,,,,,,,,,58,plaudir,,,,,360.8967,361.8123,0,1,0.3911,,0,39,39,57,1,REAL,FAKE,,,,,,,,,,,,,,,,,
,,,,,,,,,69602491103bb0e29cba7eea,spanish,13 or older,"no, only English or Spanish",no,2026-01-21_16h12.09.744,empathy_intonation_perc_control,2024.2.4,MacIntel,59.52380952,69602491103bb0e29cba7eea,69712dc693a3960bdb483245,69714107e6a68a3e93856800,,,,,,,,,,,,,0,,,,,,,,,,,,,,,,,,,,,,,,,,,,,,,,,,,,,8,cadeña,,,,,361.8134,362.7955,0,1,0.4465,,0,40,40,7,1,REAL,FAKE,,,,,,,,,,,,,,,,,
,,,,,,,,,69602491103bb0e29cba7eea,spanish,13 or older,"no, only English or Spanish",no,2026-01-21_16h12.09.744,empathy_intonation_perc_control,2024.2.4,MacIntel,59.52380952,69602491103bb0e29cba7eea,69712dc693a3960bdb483245,69714107e6a68a3e93856800,,,,,,,,,,,,,1,,,,,,,,,,,,,,,,,,,,,,,,,,,,,,,,,,,,,6,tergiversar,,,,,362.7968,363.8624,0,0,0.5316,,0,41,41,5,1,REAL,FAKE,,,,,,,,,,,,,,,,,
,,,,,,,,,69602491103bb0e29cba7eea,spanish,13 or older,"no, only English or Spanish",no,2026-01-21_16h12.09.744,empathy_intonation_perc_control,2024.2.4,MacIntel,59.52380952,69602491103bb0e29cba7eea,69712dc693a3960bdb483245,69714107e6a68a3e93856800,,,,,,,,,,,,,1,,,,,,,,,,,,,,,,,,,,,,,,,,,,,,,,,,,,,36,loro,,,,,363.8637,365.2788,0,0,0.8787,,0,42,42,35,1,REAL,FAKE,,,,,,,,,,,,,,,,,
,,,,,,,,,69602491103bb0e29cba7eea,spanish,13 or older,"no, only English or Spanish",no,2026-01-21_16h12.09.744,empathy_intonation_perc_control,2024.2.4,MacIntel,59.52380952,69602491103bb0e29cba7eea,69712dc693a3960bdb483245,69714107e6a68a3e93856800,,,,,,,,,,,,,1,,,,,,,,,,,,,,,,,,,,,,,,,,,,,,,,,,,,,41,rebuscar,,,,,365.2794,366.2624,0,0,0.4449,,0,43,43,40,1,REAL,FAKE,,,,,,,,,,,,,,,,,
,,,,,,,,,69602491103bb0e29cba7eea,spanish,13 or older,"no, only English or Spanish",no,2026-01-21_16h12.09.744,empathy_intonation_perc_control,2024.2.4,MacIntel,59.52380952,69602491103bb0e29cba7eea,69712dc693a3960bdb483245,69714107e6a68a3e93856800,,,,,,,,,,,,,1,,,,,,,,,,,,,,,,,,,,,,,,,,,,,,,,,,,,,40,alfombra,,,,,366.2637,367.1956,0,0,0.396,,0,44,44,39,1,REAL,FAKE,,,,,,,,,,,,,,,,,
,,,,,,,,,69602491103bb0e29cba7eea,spanish,13 or older,"no, only English or Spanish",no,2026-01-21_16h12.09.744,empathy_intonation_perc_control,2024.2.4,MacIntel,59.52380952,69602491103bb0e29cba7eea,69712dc693a3960bdb483245,69714107e6a68a3e93856800,,,,,,,,,,,,,1,,,,,,,,,,,,,,,,,,,,,,,,,,,,,,,,,,,,,61,seda,,,,,367.1966,368.145,0,0,0.4128,,0,45,45,60,1,REAL,FAKE,,,,,,,,,,,,,,,,,
,,,,,,,,,69602491103bb0e29cba7eea,spanish,13 or older,"no, only English or Spanish",no,2026-01-21_16h12.09.744,empathy_intonation_perc_control,2024.2.4,MacIntel,59.52380952,69602491103bb0e29cba7eea,69712dc693a3960bdb483245,69714107e6a68a3e93856800,,,,,,,,,,,,,1,,,,,,,,,,,,,,,,,,,,,,,,,,,,,,,,,,,,,65,bizcocho,,,,,368.1462,369.0625,0,0,0.3955,,0,46,46,64,1,REAL,FAKE,,,,,,,,,,,,,,,,,
,,,,,,,,,69602491103bb0e29cba7eea,spanish,13 or older,"no, only English or Spanish",no,2026-01-21_16h12.09.744,empathy_intonation_perc_control,2024.2.4,MacIntel,59.52380952,69602491103bb0e29cba7eea,69712dc693a3960bdb483245,69714107e6a68a3e93856800,,,,,,,,,,,,,0,,,,,,,,,,,,,,,,,,,,,,,,,,,,,,,,,,,,,29,decar,,,,,369.0635,369.9624,0,1,0.3674,,0,47,47,28,1,REAL,FAKE,,,,,,,,,,,,,,,,,
,,,,,,,,,69602491103bb0e29cba7eea,spanish,13 or older,"no, only English or Spanish",no,2026-01-21_16h12.09.744,empathy_intonation_perc_control,2024.2.4,MacIntel,59.52380952,69602491103bb0e29cba7eea,69712dc693a3960bdb483245,69714107e6a68a3e93856800,,,,,,,,,,,,,1,,,,,,,,,,,,,,,,,,,,,,,,,,,,,,,,,,,,,26,secuestro,,,,,369.9634,371.0458,0,0,0.5579,,0,48,48,25,1,REAL,FAKE,,,,,,,,,,,,,,,,,
,,,,,,,,,69602491103bb0e29cba7eea,spanish,13 or older,"no, only English or Spanish",no,2026-01-21_16h12.09.744,empathy_intonation_perc_control,2024.2.4,MacIntel,59.52380952,69602491103bb0e29cba7eea,69712dc693a3960bdb483245,69714107e6a68a3e93856800,,,,,,,,,,,,,1,,,,,,,,,,,,,,,,,,,,,,,,,,,,,,,,,,,,,68,alegre,,,,,371.047,372.9126,1,1,1.3297,,0,49,49,67,1,REAL,FAKE,,,,,,,,,,,,,,,,,
,,,,,,,,,69602491103bb0e29cba7eea,spanish,13 or older,"no, only English or Spanish",no,2026-01-21_16h12.09.744,empathy_intonation_perc_control,2024.2.4,MacIntel,59.52380952,69602491103bb0e29cba7eea,69712dc693a3960bdb483245,69714107e6a68a3e93856800,,,,,,,,,,,,,0,,,,,,,,,,,,,,,,,,,,,,,,,,,,,,,,,,,,,16,abracer,,,,,372.9139,374.3292,0,1,0.8736,,0,50,50,15,1,REAL,FAKE,,,,,,,,,,,,,,,,,
,,,,,,,,,69602491103bb0e29cba7eea,spanish,13 or older,"no, only English or Spanish",no,2026-01-21_16h12.09.744,empathy_intonation_perc_control,2024.2.4,MacIntel,59.52380952,69602491103bb0e29cba7eea,69712dc693a3960bdb483245,69714107e6a68a3e93856800,,,,,,,,,,,,,0,,,,,,,,,,,,,,,,,,,,,,,,,,,,,,,,,,,,,33,pauca,,,,,374.3304,375.5622,0,1,0.6933,,0,51,51,32,1,REAL,FAKE,,,,,,,,,,,,,,,,,
,,,,,,,,,69602491103bb0e29cba7eea,spanish,13 or older,"no, only English or Spanish",no,2026-01-21_16h12.09.744,empathy_intonation_perc_control,2024.2.4,MacIntel,59.52380952,69602491103bb0e29cba7eea,69712dc693a3960bdb483245,69714107e6a68a3e93856800,,,,,,,,,,,,,1,,,,,,,,,,,,,,,,,,,,,,,,,,,,,,,,,,,,,89,prisa,,,,,375.5629,377.2294,1,1,1.1322,,0,52,52,88,1,REAL,FAKE,,,,,,,,,,,,,,,,,
,,,,,,,,,69602491103bb0e29cba7eea,spanish,13 or older,"no, only English or Spanish",no,2026-01-21_16h12.09.744,empathy_intonation_perc_control,2024.2.4,MacIntel,59.52380952,69602491103bb0e29cba7eea,69712dc693a3960bdb483245,69714107e6a68a3e93856800,,,,,,,,,,,,,0,,,,,,,,,,,,,,,,,,,,,,,,,,,,,,,,,,,,,84,escuto,,,,,377.2306,378.5793,0,1,0.8066,,0,53,53,83,1,REAL,FAKE,,,,,,,,,,,,,,,,,
,,,,,,,,,69602491103bb0e29cba7eea,spanish,13 or older,"no, only English or Spanish",no,2026-01-21_16h12.09.744,empathy_intonation_perc_control,2024.2.4,MacIntel,59.52380952,69602491103bb0e29cba7eea,69712dc693a3960bdb483245,69714107e6a68a3e93856800,,,,,,,,,,,,,1,,,,,,,,,,,,,,,,,,,,,,,,,,,,,,,,,,,,,83,guante,,,,,378.5802,379.6793,0,0,0.563,,0,54,54,82,1,REAL,FAKE,,,,,,,,,,,,,,,,,
,,,,,,,,,69602491103bb0e29cba7eea,spanish,13 or older,"no, only English or Spanish",no,2026-01-21_16h12.09.744,empathy_intonation_perc_control,2024.2.4,MacIntel,59.52380952,69602491103bb0e29cba7eea,69712dc693a3960bdb483245,69714107e6a68a3e93856800,,,,,,,,,,,,,1,,,,,,,,,,,,,,,,,,,,,,,,,,,,,,,,,,,,,51,candado,,,,,379.6808,380.7959,0,0,0.582,,0,55,55,50,1,REAL,FAKE,,,,,,,,,,,,,,,,,
,,,,,,,,,69602491103bb0e29cba7eea,spanish,13 or older,"no, only English or Spanish",no,2026-01-21_16h12.09.744,empathy_intonation_perc_control,2024.2.4,MacIntel,59.52380952,69602491103bb0e29cba7eea,69712dc693a3960bdb483245,69714107e6a68a3e93856800,,,,,,,,,,,,,1,,,,,,,,,,,,,,,,,,,,,,,,,,,,,,,,,,,,,54,fomentar,,,,,380.7968,381.796,0,0,0.4626,,0,56,56,53,1,REAL,FAKE,,,,,,,,,,,,,,,,,
,,,,,,,,,69602491103bb0e29cba7eea,spanish,13 or older,"no, only English or Spanish",no,2026-01-21_16h12.09.744,empathy_intonation_perc_control,2024.2.4,MacIntel,59.52380952,69602491103bb0e29cba7eea,69712dc693a3960bdb483245,69714107e6a68a3e93856800,,,,,,,,,,,,,1,,,,,,,,,,,,,,,,,,,,,,,,,,,,,,,,,,,,,75,yacer,,,,,381.7968,382.8459,0,0,0.5252,,0,57,57,74,1,REAL,FAKE,,,,,,,,,,,,,,,,,
,,,,,,,,,69602491103bb0e29cba7eea,spanish,13 or older,"no, only English or Spanish",no,2026-01-21_16h12.09.744,empathy_intonation_perc_control,2024.2.4,MacIntel,59.52380952,69602491103bb0e29cba7eea,69712dc693a3960bdb483245,69714107e6a68a3e93856800,,,,,,,,,,,,,0,,,,,,,,,,,,,,,,,,,,,,,,,,,,,,,,,,,,,82,empirador,,,,,382.8473,383.8125,0,1,0.4296,,0,58,58,81,1,REAL,FAKE,,,,,,,,,,,,,,,,,
,,,,,,,,,69602491103bb0e29cba7eea,spanish,13 or older,"no, only English or Spanish",no,2026-01-21_16h12.09.744,empathy_intonation_perc_control,2024.2.4,MacIntel,59.52380952,69602491103bb0e29cba7eea,69712dc693a3960bdb483245,69714107e6a68a3e93856800,,,,,,,,,,,,,1,,,,,,,,,,,,,,,,,,,,,,,,,,,,,,,,,,,,,71,polvoriento,,,,,383.8131,384.7461,0,0,0.425,,0,59,59,70,1,REAL,FAKE,,,,,,,,,,,,,,,,,
,,,,,,,,,69602491103bb0e29cba7eea,spanish,13 or older,"no, only English or Spanish",no,2026-01-21_16h12.09.744,empathy_intonation_perc_control,2024.2.4,MacIntel,59.52380952,69602491103bb0e29cba7eea,69712dc693a3960bdb483245,69714107e6a68a3e93856800,,,,,,,,,,,,,1,,,,,,,,,,,,,,,,,,,,,,,,,,,,,,,,,,,,,20,ávido,,,,,384.7476,385.6128,0,0,0.3279,,0,60,60,19,1,REAL,FAKE,,,,,,,,,,,,,,,,,
,,,,,,,,,69602491103bb0e29cba7eea,spanish,13 or older,"no, only English or Spanish",no,2026-01-21_16h12.09.744,empathy_intonation_perc_control,2024.2.4,MacIntel,59.52380952,69602491103bb0e29cba7eea,69712dc693a3960bdb483245,69714107e6a68a3e93856800,,,,,,,,,,,,,1,,,,,,,,,,,,,,,,,,,,,,,,,,,,,,,,,,,,,7,pésimo,,,,,385.6141,386.5458,0,0,0.3964,,0,61,61,6,1,REAL,FAKE,,,,,,,,,,,,,,,,,
,,,,,,,,,69602491103bb0e29cba7eea,spanish,13 or older,"no, only English or Spanish",no,2026-01-21_16h12.09.744,empathy_intonation_perc_control,2024.2.4,MacIntel,59.52380952,69602491103bb0e29cba7eea,69712dc693a3960bdb483245,69714107e6a68a3e93856800,,,,,,,,,,,,,0,,,,,,,,,,,,,,,,,,,,,,,,,,,,,,,,,,,,,42,cadallo,,,,,386.5469,387.5461,0,1,0.4641,,0,62,62,41,1,REAL,FAKE,,,,,,,,,,,,,,,,,
,,,,,,,,,69602491103bb0e29cba7eea,spanish,13 or older,"no, only English or Spanish",no,2026-01-21_16h12.09.744,empathy_intonation_perc_control,2024.2.4,MacIntel,59.52380952,69602491103bb0e29cba7eea,69712dc693a3960bdb483245,69714107e6a68a3e93856800,,,,,,,,,,,,,0,,,,,,,,,,,,,,,,,,,,,,,,,,,,,,,,,,,,,35,rompido,,,,,387.5473,388.4462,0,1,0.365,,0,63,63,34,1,REAL,FAKE,,,,,,,,,,,,,,,,,
,,,,,,,,,69602491103bb0e29cba7eea,spanish,13 or older,"no, only English or Spanish",no,2026-01-21_16h12.09.744,empathy_intonation_perc_control,2024.2.4,MacIntel,59.52380952,69602491103bb0e29cba7eea,69712dc693a3960bdb483245,69714107e6a68a3e93856800,,,,,,,,,,,,,1,,,,,,,,,,,,,,,,,,,,,,,,,,,,,,,,,,,,,76,atar,,,,,388.447,389.3462,0,0,0.3682,,0,64,64,75,1,REAL,FAKE,,,,,,,,,,,,,,,,,
,,,,,,,,,69602491103bb0e29cba7eea,spanish,13 or older,"no, only English or Spanish",no,2026-01-21_16h12.09.744,empathy_intonation_perc_control,2024.2.4,MacIntel,59.52380952,69602491103bb0e29cba7eea,69712dc693a3960bdb483245,69714107e6a68a3e93856800,,,,,,,,,,,,,0,,,,,,,,,,,,,,,,,,,,,,,,,,,,,,,,,,,,,66,hacido,,,,,389.3472,390.1796,0,1,0.2962,,0,65,65,65,1,REAL,FAKE,,,,,,,,,,,,,,,,,
,,,,,,,,,69602491103bb0e29cba7eea,spanish,13 or older,"no, only English or Spanish",no,2026-01-21_16h12.09.744,empathy_intonation_perc_control,2024.2.4,MacIntel,59.52380952,69602491103bb0e29cba7eea,69712dc693a3960bdb483245,69714107e6a68a3e93856800,,,,,,,,,,,,,1,,,,,,,,,,,,,,,,,,,,,,,,,,,,,,,,,,,,,13,helar,,,,,390.1808,391.2795,0,0,0.5633,,0,66,66,12,1,REAL,FAKE,,,,,,,,,,,,,,,,,
,,,,,,,,,69602491103bb0e29cba7eea,spanish,13 or older,"no, only English or Spanish",no,2026-01-21_16h12.09.744,empathy_intonation_perc_control,2024.2.4,MacIntel,59.52380952,69602491103bb0e29cba7eea,69712dc693a3960bdb483245,69714107e6a68a3e93856800,,,,,,,,,,,,,0,,,,,,,,,,,,,,,,,,,,,,,,,,,,,,,,,,,,,23,lampera,,,,,391.2806,392.2463,0,1,0.4251,,0,67,67,22,1,REAL,FAKE,,,,,,,,,,,,,,,,,
,,,,,,,,,69602491103bb0e29cba7eea,spanish,13 or older,"no, only English or Spanish",no,2026-01-21_16h12.09.744,empathy_intonation_perc_control,2024.2.4,MacIntel,59.52380952,69602491103bb0e29cba7eea,69712dc693a3960bdb483245,69714107e6a68a3e93856800,,,,,,,,,,,,,1,,,,,,,,,,,,,,,,,,,,,,,,,,,,,,,,,,,,,25,bisagra,,,,,392.2476,393.1629,0,0,0.3794,,0,68,68,24,1,REAL,FAKE,,,,,,,,,,,,,,,,,
,,,,,,,,,69602491103bb0e29cba7eea,spanish,13 or older,"no, only English or Spanish",no,2026-01-21_16h12.09.744,empathy_intonation_perc_control,2024.2.4,MacIntel,59.52380952,69602491103bb0e29cba7eea,69712dc693a3960bdb483245,69714107e6a68a3e93856800,,,,,,,,,,,,,0,,,,,,,,,,,,,,,,,,,,,,,,,,,,,,,,,,,,,17,floroso,,,,,393.164,394.0462,0,1,0.3459,,0,69,69,16,1,REAL,FAKE,,,,,,,,,,,,,,,,,
,,,,,,,,,69602491103bb0e29cba7eea,spanish,13 or older,"no, only English or Spanish",no,2026-01-21_16h12.09.744,empathy_intonation_perc_control,2024.2.4,MacIntel,59.52380952,69602491103bb0e29cba7eea,69712dc693a3960bdb483245,69714107e6a68a3e93856800,,,,,,,,,,,,,1,,,,,,,,,,,,,,,,,,,,,,,,,,,,,,,,,,,,,86,barato,,,,,394.0471,394.8453,0,0,0.2635,,0,70,70,85,1,REAL,FAKE,,,,,,,,,,,,,,,,,
,,,,,,,,,69602491103bb0e29cba7eea,spanish,13 or older,"no, only English or Spanish",no,2026-01-21_16h12.09.744,empathy_intonation_perc_control,2024.2.4,MacIntel,59.52380952,69602491103bb0e29cba7eea,69712dc693a3960bdb483245,69714107e6a68a3e93856800,,,,,,,,,,,,,1,,,,,,,,,,,,,,,,,,,,,,,,,,,,,,,,,,,,,15,regar,,,,,394.8465,395.7964,0,0,0.4128,,0,71,71,14,1,REAL,FAKE,,,,,,,,,,,,,,,,,
,,,,,,,,,69602491103bb0e29cba7eea,spanish,13 or older,"no, only English or Spanish",no,2026-01-21_16h12.09.744,empathy_intonation_perc_control,2024.2.4,MacIntel,59.52380952,69602491103bb0e29cba7eea,69712dc693a3960bdb483245,69714107e6a68a3e93856800,,,,,,,,,,,,,1,,,,,,,,,,,,,,,,,,,,,,,,,,,,,,,,,,,,,31,pandilla,,,,,395.7975,397.0464,0,0,0.7126,,0,72,72,30,1,REAL,FAKE,,,,,,,,,,,,,,,,,
,,,,,,,,,69602491103bb0e29cba7eea,spanish,13 or older,"no, only English or Spanish",no,2026-01-21_16h12.09.744,empathy_intonation_perc_control,2024.2.4,MacIntel,59.52380952,69602491103bb0e29cba7eea,69712dc693a3960bdb483245,69714107e6a68a3e93856800,,,,,,,,,,,,,1,,,,,,,,,,,,,,,,,,,,,,,,,,,,,,,,,,,,,3,pulmones,,,,,397.0475,398.0793,0,0,0.4951,,0,73,73,2,1,REAL,FAKE,,,,,,,,,,,,,,,,,
,,,,,,,,,69602491103bb0e29cba7eea,spanish,13 or older,"no, only English or Spanish",no,2026-01-21_16h12.09.744,empathy_intonation_perc_control,2024.2.4,MacIntel,59.52380952,69602491103bb0e29cba7eea,69712dc693a3960bdb483245,69714107e6a68a3e93856800,,,,,,,,,,,,,0,,,,,,,,,,,,,,,,,,,,,,,,,,,,,,,,,,,,,27,acutación,,,,,398.0804,399.0463,0,1,0.4393,,0,74,74,26,1,REAL,FAKE,,,,,,,,,,,,,,,,,
,,,,,,,,,69602491103bb0e29cba7eea,spanish,13 or older,"no, only English or Spanish",no,2026-01-21_16h12.09.744,empathy_intonation_perc_control,2024.2.4,MacIntel,59.52380952,69602491103bb0e29cba7eea,69712dc693a3960bdb483245,69714107e6a68a3e93856800,,,,,,,,,,,,,1,,,,,,,,,,,,,,,,,,,,,,,,,,,,,,,,,,,,,11,cenefa,,,,,399.0471,400.0952,0,0,0.5244,,0,75,75,10,1,REAL,FAKE,,,,,,,,,,,,,,,,,
,,,,,,,,,69602491103bb0e29cba7eea,spanish,13 or older,"no, only English or Spanish",no,2026-01-21_16h12.09.744,empathy_intonation_perc_control,2024.2.4,MacIntel,59.52380952,69602491103bb0e29cba7eea,69712dc693a3960bdb483245,69714107e6a68a3e93856800,,,,,,,,,,,,,0,,,,,,,,,,,,,,,,,,,,,,,,,,,,,,,,,,,,,92,click the 0 key.,,,,,400.0964,402.5632,0,1,1.9385,,0,76,76,91,1,REAL,FAKE,,,,,,,,,,,,,,,,,
,,,,,,,,,69602491103bb0e29cba7eea,spanish,13 or older,"no, only English or Spanish",no,2026-01-21_16h12.09.744,empathy_intonation_perc_control,2024.2.4,MacIntel,59.52380952,69602491103bb0e29cba7eea,69712dc693a3960bdb483245,69714107e6a68a3e93856800,,,,,,,,,,,,,1,,,,,,,,,,,,,,,,,,,,,,,,,,,,,,,,,,,,,67,cabello,,,,,402.5642,404.0465,0,0,0.9329,,0,77,77,66,1,REAL,FAKE,,,,,,,,,,,,,,,,,
,,,,,,,,,69602491103bb0e29cba7eea,spanish,13 or older,"no, only English or Spanish",no,2026-01-21_16h12.09.744,empathy_intonation_perc_control,2024.2.4,MacIntel,59.52380952,69602491103bb0e29cba7eea,69712dc693a3960bdb483245,69714107e6a68a3e93856800,,,,,,,,,,,,,1,,,,,,,,,,,,,,,,,,,,,,,,,,,,,,,,,,,,,59,besar,,,,,404.0476,405.0465,0,0,0.4554,,0,78,78,58,1,REAL,FAKE,,,,,,,,,,,,,,,,,
,,,,,,,,,69602491103bb0e29cba7eea,spanish,13 or older,"no, only English or Spanish",no,2026-01-21_16h12.09.744,empathy_intonation_perc_control,2024.2.4,MacIntel,59.52380952,69602491103bb0e29cba7eea,69712dc693a3960bdb483245,69714107e6a68a3e93856800,,,,,,,,,,,,,1,,,,,,,,,,,,,,,,,,,,,,,,,,,,,,,,,,,,,22,lacayo,,,,,405.0477,406.129,0,0,0.5473,,0,79,79,21,1,REAL,FAKE,,,,,,,,,,,,,,,,,
,,,,,,,,,69602491103bb0e29cba7eea,spanish,13 or older,"no, only English or Spanish",no,2026-01-21_16h12.09.744,empathy_intonation_perc_control,2024.2.4,MacIntel,59.52380952,69602491103bb0e29cba7eea,69712dc693a3960bdb483245,69714107e6a68a3e93856800,,,,,,,,,,,,,1,,,,,,,,,,,,,,,,,,,,,,,,,,,,,,,,,,,,,24,látigo,,,,,406.1303,407.3466,0,0,0.6861,,0,80,80,23,1,REAL,FAKE,,,,,,,,,,,,,,,,,
,,,,,,,,,69602491103bb0e29cba7eea,spanish,13 or older,"no, only English or Spanish",no,2026-01-21_16h12.09.744,empathy_intonation_perc_control,2024.2.4,MacIntel,59.52380952,69602491103bb0e29cba7eea,69712dc693a3960bdb483245,69714107e6a68a3e93856800,,,,,,,,,,,,,1,,,,,,,,,,,,,,,,,,,,,,,,,,,,,,,,,,,,,55,nevar,,,,,407.3477,408.3465,0,0,0.4556,,0,81,81,54,1,REAL,FAKE,,,,,,,,,,,,,,,,,
,,,,,,,,,69602491103bb0e29cba7eea,spanish,13 or older,"no, only English or Spanish",no,2026-01-21_16h12.09.744,empathy_intonation_perc_control,2024.2.4,MacIntel,59.52380952,69602491103bb0e29cba7eea,69712dc693a3960bdb483245,69714107e6a68a3e93856800,,,,,,,,,,,,,1,,,,,,,,,,,,,,,,,,,,,,,,,,,,,,,,,,,,,44,cuchara,,,,,408.3474,409.3623,0,0,0.4759,,0,82,82,43,1,REAL,FAKE,,,,,,,,,,,,,,,,,
,,,,,,,,,69602491103bb0e29cba7eea,spanish,13 or older,"no, only English or Spanish",no,2026-01-21_16h12.09.744,empathy_intonation_perc_control,2024.2.4,MacIntel,59.52380952,69602491103bb0e29cba7eea,69712dc693a3960bdb483245,69714107e6a68a3e93856800,,,,,,,,,,,,,1,,,,,,,,,,,,,,,,,,,,,,,,,,,,,,,,,,,,,91,click the 1 key.,,,,,409.3636,411.3134,1,1,1.4283,,0,83,83,90,1,REAL,FAKE,,,,,,,,,,,,,,,,,
,,,,,,,,,69602491103bb0e29cba7eea,spanish,13 or older,"no, only English or Spanish",no,2026-01-21_16h12.09.744,empathy_intonation_perc_control,2024.2.4,MacIntel,59.52380952,69602491103bb0e29cba7eea,69712dc693a3960bdb483245,69714107e6a68a3e93856800,,,,,,,,,,,,,0,,,,,,,,,,,,,,,,,,,,,,,,,,,,,,,,,,,,,70,temblo,,,,,411.3147,412.6965,0,1,0.8389,,0,84,84,69,1,REAL,FAKE,,,,,,,,,,,,,,,,,
,,,,,,,,,69602491103bb0e29cba7eea,spanish,13 or older,"no, only English or Spanish",no,2026-01-21_16h12.09.744,empathy_intonation_perc_control,2024.2.4,MacIntel,59.52380952,69602491103bb0e29cba7eea,69712dc693a3960bdb483245,69714107e6a68a3e93856800,,,,,,,,,,,,,0,,,,,,,,,,,,,,,,,,,,,,,,,,,,,,,,,,,,,47,cartinar,,,,,412.6972,413.7464,0,1,0.5194,,0,85,85,46,1,REAL,FAKE,,,,,,,,,,,,,,,,,
,,,,,,,,,69602491103bb0e29cba7eea,spanish,13 or older,"no, only English or Spanish",no,2026-01-21_16h12.09.744,empathy_intonation_perc_control,2024.2.4,MacIntel,59.52380952,69602491103bb0e29cba7eea,69712dc693a3960bdb483245,69714107e6a68a3e93856800,,,,,,,,,,,,,1,,,,,,,,,,,,,,,,,,,,,,,,,,,,,,,,,,,,,12,asesinato,,,,,413.7471,414.7457,0,0,0.4659,,0,86,86,11,1,REAL,FAKE,,,,,,,,,,,,,,,,,
,,,,,,,,,69602491103bb0e29cba7eea,spanish,13 or older,"no, only English or Spanish",no,2026-01-21_16h12.09.744,empathy_intonation_perc_control,2024.2.4,MacIntel,59.52380952,69602491103bb0e29cba7eea,69712dc693a3960bdb483245,69714107e6a68a3e93856800,,,,,,,,,,,,,1,,,,,,,,,,,,,,,,,,,,,,,,,,,,,,,,,,,,,64,orgulloso,,,,,414.7469,415.9137,0,0,0.6314,,0,87,87,63,1,REAL,FAKE,,,,,,,,,,,,,,,,,
,,,,,,,,,69602491103bb0e29cba7eea,spanish,13 or older,"no, only English or Spanish",no,2026-01-21_16h12.09.744,empathy_intonation_perc_control,2024.2.4,MacIntel,59.52380952,69602491103bb0e29cba7eea,69712dc693a3960bdb483245,69714107e6a68a3e93856800,,,,,,,,,,,,,1,,,,,,,,,,,,,,,,,,,,,,,,,,,,,,,,,,,,,80,hormiga,,,,,415.9149,417.1459,0,0,0.6942,,0,88,88,79,1,REAL,FAKE,,,,,,,,,,,,,,,,,
,,,,,,,,,69602491103bb0e29cba7eea,spanish,13 or older,"no, only English or Spanish",no,2026-01-21_16h12.09.744,empathy_intonation_perc_control,2024.2.4,MacIntel,59.52380952,69602491103bb0e29cba7eea,69712dc693a3960bdb483245,69714107e6a68a3e93856800,,,,,,,,,,,,,0,,,,,,,,,,,,,,,,,,,,,,,,,,,,,,,,,,,,,19,brecedad,,,,,417.1471,418.2125,0,1,0.5387,,0,89,89,18,1,REAL,FAKE,,,,,,,,,,,,,,,,,
,,,,,,,,,69602491103bb0e29cba7eea,spanish,13 or older,"no, only English or Spanish",no,2026-01-21_16h12.09.744,empathy_intonation_perc_control,2024.2.4,MacIntel,59.52380952,69602491103bb0e29cba7eea,69712dc693a3960bdb483245,69714107e6a68a3e93856800,,,,,,,,,,,,,0,,,,,,,,,,,,,,,,,,,,,,,,,,,,,,,,,,,,,10,antar,,,,,418.2137,419.1629,0,1,0.4298,,0,90,90,9,1,REAL,FAKE,,,,,,,,,,,,,,,,,
,,,,,,,,,69602491103bb0e29cba7eea,spanish,13 or older,"no, only English or Spanish",no,2026-01-21_16h12.09.744,empathy_intonation_perc_control,2024.2.4,MacIntel,59.52380952,69602491103bb0e29cba7eea,69712dc693a3960bdb483245,69714107e6a68a3e93856800,,,,,,,,,,,,,1,,,,,,,,,,,,,,,,,,,,,,,,,,,,,,,,,,,,,62,flaco,,,,,419.1643,420.1968,0,0,0.4976,,0,91,91,61,1,REAL,FAKE,,,,,,,,,,,,,,,,,
,,,,,,,,,69602491103bb0e29cba7eea,spanish,13 or older,"no, only English or Spanish",no,2026-01-21_16h12.09.744,empathy_intonation_perc_control,2024.2.4,MacIntel,59.52380952,69602491103bb0e29cba7eea,69712dc693a3960bdb483245,69714107e6a68a3e93856800,,,,,,,,,,,,,,,,,,,,,,,,,,,,,,,,,,,,,,,,,,,,,,,,,,,,,,,,,,,,,,,,,,,,,420.1973,425.9807,,,,,,,,,,,,,,,
,,,,,,,,,69602491103bb0e29cba7eea,spanish,13 or older,"no, only English or Spanish",no,2026-01-21_16h12.09.744,empathy_intonation_perc_control,2024.2.4,MacIntel,59.52380952,69602491103bb0e29cba7eea,69712dc693a3960bdb483245,69714107e6a68a3e93856800,,,,,,,,,,,,,,,,,,,,,,,,,,,1,,,,,,,,,,,,,,,,,,,,,,,,,,,,,,,,,,,,,,,,,,,,425.9923,432.0138,slightly agree,0,0,0,0,1,I can easily tell if someone else wants to enter a conversation.,1,0,1,0,,
,,,,,,,,,69602491103bb0e29cba7eea,spanish,13 or older,"no, only English or Spanish",no,2026-01-21_16h12.09.744,empathy_intonation_perc_control,2024.2.4,MacIntel,59.52380952,69602491103bb0e29cba7eea,69712dc693a3960bdb483245,69714107e6a68a3e93856800,,,,,,,,,,,,,,,,,,,,,,,,,,,2,,,,,,,,,,,,,,,,,,,,,,,,,,,,,,,,,,,,,,,,,,,,432.015,435.5973,strongly agree,0,1,1,1,1,I prefer animals to humans.,0,1,0,0,,
,,,,,,,,,69602491103bb0e29cba7eea,spanish,13 or older,"no, only English or Spanish",no,2026-01-21_16h12.09.744,empathy_intonation_perc_control,2024.2.4,MacIntel,59.52380952,69602491103bb0e29cba7eea,69712dc693a3960bdb483245,69714107e6a68a3e93856800,,,,,,,,,,,,,,,,,,,,,,,,,,,3,,,,,,,,,,,,,,,,,,,,,,,,,,,,,,,,,,,,,,,,,,,,435.5989,438.9473,slightly agree,0,2,2,2,1,I try to keep up with the current trends and fashions.,0,1,0,0,,
,,,,,,,,,69602491103bb0e29cba7eea,spanish,13 or older,"no, only English or Spanish",no,2026-01-21_16h12.09.744,empathy_intonation_perc_control,2024.2.4,MacIntel,59.52380952,69602491103bb0e29cba7eea,69712dc693a3960bdb483245,69714107e6a68a3e93856800,,,,,,,,,,,,,,,,,,,,,,,,,,,4,,,,,,,,,,,,,,,,,,,,,,,,,,,,,,,,,,,,,,,,,,,,438.9491,442.4306,slightly agree,0,3,3,3,1,"I find it difficult to explain to others things that I understand easily,   when they don't understand it first time.",1,0,0,1,,
,,,,,,,,,69602491103bb0e29cba7eea,spanish,13 or older,"no, only English or Spanish",no,2026-01-21_16h12.09.744,empathy_intonation_perc_control,2024.2.4,MacIntel,59.52380952,69602491103bb0e29cba7eea,69712dc693a3960bdb483245,69714107e6a68a3e93856800,,,,,,,,,,,,,,,,,,,,,,,,,,,5,,,,,,,,,,,,,,,,,,,,,,,,,,,,,,,,,,,,,,,,,,,,442.4316,444.5131,strongly disagree,0,4,4,4,1,I dream most nights.,0,1,0,0,,
,,,,,,,,,69602491103bb0e29cba7eea,spanish,13 or older,"no, only English or Spanish",no,2026-01-21_16h12.09.744,empathy_intonation_perc_control,2024.2.4,MacIntel,59.52380952,69602491103bb0e29cba7eea,69712dc693a3960bdb483245,69714107e6a68a3e93856800,,,,,,,,,,,,,,,,,,,,,,,,,,,6,,,,,,,,,,,,,,,,,,,,,,,,,,,,,,,,,,,,,,,,,,,,444.5143,446.6636,slightly agree,0,5,5,5,1,I really enjoy caring for other people.,1,0,1,0,,
,,,,,,,,,69602491103bb0e29cba7eea,spanish,13 or older,"no, only English or Spanish",no,2026-01-21_16h12.09.744,empathy_intonation_perc_control,2024.2.4,MacIntel,59.52380952,69602491103bb0e29cba7eea,69712dc693a3960bdb483245,69714107e6a68a3e93856800,,,,,,,,,,,,,,,,,,,,,,,,,,,7,,,,,,,,,,,,,,,,,,,,,,,,,,,,,,,,,,,,,,,,,,,,446.6646,450.6307,strongly agree,0,6,6,6,1,I try to solve my own problems rather than discussing them with others.,0,1,0,0,,
,,,,,,,,,69602491103bb0e29cba7eea,spanish,13 or older,"no, only English or Spanish",no,2026-01-21_16h12.09.744,empathy_intonation_perc_control,2024.2.4,MacIntel,59.52380952,69602491103bb0e29cba7eea,69712dc693a3960bdb483245,69714107e6a68a3e93856800,,,,,,,,,,,,,,,,,,,,,,,,,,,8,,,,,,,,,,,,,,,,,,,,,,,,,,,,,,,,,,,,,,,,,,,,450.632,454.2308,slightly agree,0,7,7,7,1,I find it hard to know what to do in a social situation.,1,0,0,1,,
,,,,,,,,,69602491103bb0e29cba7eea,spanish,13 or older,"no, only English or Spanish",no,2026-01-21_16h12.09.744,empathy_intonation_perc_control,2024.2.4,MacIntel,59.52380952,69602491103bb0e29cba7eea,69712dc693a3960bdb483245,69714107e6a68a3e93856800,,,,,,,,,,,,,,,,,,,,,,,,,,,9,,,,,,,,,,,,,,,,,,,,,,,,,,,,,,,,,,,,,,,,,,,,454.232,457.6965,strongly disagree,0,8,8,8,1,I am at my best first thing in the morning.,0,1,0,0,,
,,,,,,,,,69602491103bb0e29cba7eea,spanish,13 or older,"no, only English or Spanish",no,2026-01-21_16h12.09.744,empathy_intonation_perc_control,2024.2.4,MacIntel,59.52380952,69602491103bb0e29cba7eea,69712dc693a3960bdb483245,69714107e6a68a3e93856800,,,,,,,,,,,,,,,,,,,,,,,,,,,10,,,,,,,,,,,,,,,,,,,,,,,,,,,,,,,,,,,,,,,,,,,,457.698,463.1477,slightly agree,0,9,9,9,1,People often tell me that I went too far in driving my point home in a discussion.,1,0,0,1,,
,,,,,,,,,69602491103bb0e29cba7eea,spanish,13 or older,"no, only English or Spanish",no,2026-01-21_16h12.09.744,empathy_intonation_perc_control,2024.2.4,MacIntel,59.52380952,69602491103bb0e29cba7eea,69712dc693a3960bdb483245,69714107e6a68a3e93856800,,,,,,,,,,,,,,,,,,,,,,,,,,,11,,,,,,,,,,,,,,,,,,,,,,,,,,,,,,,,,,,,,,,,,,,,463.1492,466.9144,strongly disagree,0,10,10,10,1,It doesn't bother me too much if I am late meeting a friend.,1,0,0,1,,
,,,,,,,,,69602491103bb0e29cba7eea,spanish,13 or older,"no, only English or Spanish",no,2026-01-21_16h12.09.744,empathy_intonation_perc_control,2024.2.4,MacIntel,59.52380952,69602491103bb0e29cba7eea,69712dc693a3960bdb483245,69714107e6a68a3e93856800,,,,,,,,,,,,,,,,,,,,,,,,,,,12,,,,,,,,,,,,,,,,,,,,,,,,,,,,,,,,,,,,,,,,,,,,466.9157,472.2137,slightly agree,0,11,11,11,1,"Friendships and relationships are just too difficult, so I tend not to 
  bother with them.",1,0,0,1,,
,,,,,,,,,69602491103bb0e29cba7eea,spanish,13 or older,"no, only English or Spanish",no,2026-01-21_16h12.09.744,empathy_intonation_perc_control,2024.2.4,MacIntel,59.52380952,69602491103bb0e29cba7eea,69712dc693a3960bdb483245,69714107e6a68a3e93856800,,,,,,,,,,,,,,,,,,,,,,,,,,,13,,,,,,,,,,,,,,,,,,,,,,,,,,,,,,,,,,,,,,,,,,,,472.2152,475.4137,slightly disagree,0,12,12,12,1,"I would never break a law, no matter how minor.",0,1,0,0,,
,,,,,,,,,69602491103bb0e29cba7eea,spanish,13 or older,"no, only English or Spanish",no,2026-01-21_16h12.09.744,empathy_intonation_perc_control,2024.2.4,MacIntel,59.52380952,69602491103bb0e29cba7eea,69712dc693a3960bdb483245,69714107e6a68a3e93856800,,,,,,,,,,,,,,,,,,,,,,,,,,,14,,,,,,,,,,,,,,,,,,,,,,,,,,,,,,,,,,,,,,,,,,,,475.4147,480.1142,slightly disagree,0,13,13,13,1,I often find it difficult to judge if something is rude or polite.,1,0,0,1,,
,,,,,,,,,69602491103bb0e29cba7eea,spanish,13 or older,"no, only English or Spanish",no,2026-01-21_16h12.09.744,empathy_intonation_perc_control,2024.2.4,MacIntel,59.52380952,69602491103bb0e29cba7eea,69712dc693a3960bdb483245,69714107e6a68a3e93856800,,,,,,,,,,,,,,,,,,,,,,,,,,,15,,,,,,,,,,,,,,,,,,,,,,,,,,,,,,,,,,,,,,,,,,,,480.1153,484.3646,slightly disagree,0,14,14,14,1,"In a conversation, I tend to focus on my own thoughts rather than on what 
  my listener might be thinking.",1,0,0,1,,
,,,,,,,,,69602491103bb0e29cba7eea,spanish,13 or older,"no, only English or Spanish",no,2026-01-21_16h12.09.744,empathy_intonation_perc_control,2024.2.4,MacIntel,59.52380952,69602491103bb0e29cba7eea,69712dc693a3960bdb483245,69714107e6a68a3e93856800,,,,,,,,,,,,,,,,,,,,,,,,,,,16,,,,,,,,,,,,,,,,,,,,,,,,,,,,,,,,,,,,,,,,,,,,484.3655,488.5315,slightly disagree,0,15,15,15,1,I prefer practical jokes to verbal humor.,0,1,0,0,,
,,,,,,,,,69602491103bb0e29cba7eea,spanish,13 or older,"no, only English or Spanish",no,2026-01-21_16h12.09.744,empathy_intonation_perc_control,2024.2.4,MacIntel,59.52380952,69602491103bb0e29cba7eea,69712dc693a3960bdb483245,69714107e6a68a3e93856800,,,,,,,,,,,,,,,,,,,,,,,,,,,17,,,,,,,,,,,,,,,,,,,,,,,,,,,,,,,,,,,,,,,,,,,,488.5325,491.5152,slightly disagree,0,16,16,16,1,I live life for today rather than the future.,0,1,0,0,,
,,,,,,,,,69602491103bb0e29cba7eea,spanish,13 or older,"no, only English or Spanish",no,2026-01-21_16h12.09.744,empathy_intonation_perc_control,2024.2.4,MacIntel,59.52380952,69602491103bb0e29cba7eea,69712dc693a3960bdb483245,69714107e6a68a3e93856800,,,,,,,,,,,,,,,,,,,,,,,,,,,18,,,,,,,,,,,,,,,,,,,,,,,,,,,,,,,,,,,,,,,,,,,,491.5164,494.415,slightly disagree,0,17,17,17,1,"When I was a child, I enjoyed cutting up worms to see what would happen.",1,0,0,1,,
,,,,,,,,,69602491103bb0e29cba7eea,spanish,13 or older,"no, only English or Spanish",no,2026-01-21_16h12.09.744,empathy_intonation_perc_control,2024.2.4,MacIntel,59.52380952,69602491103bb0e29cba7eea,69712dc693a3960bdb483245,69714107e6a68a3e93856800,,,,,,,,,,,,,,,,,,,,,,,,,,,19,,,,,,,,,,,,,,,,,,,,,,,,,,,,,,,,,,,,,,,,,,,,494.4161,499.2646,slightly agree,0,18,18,18,1,I can pick up quickly if someone says one thing but means another.,1,0,1,0,,
,,,,,,,,,69602491103bb0e29cba7eea,spanish,13 or older,"no, only English or Spanish",no,2026-01-21_16h12.09.744,empathy_intonation_perc_control,2024.2.4,MacIntel,59.52380952,69602491103bb0e29cba7eea,69712dc693a3960bdb483245,69714107e6a68a3e93856800,,,,,,,,,,,,,,,,,,,,,,,,,,,20,,,,,,,,,,,,,,,,,,,,,,,,,,,,,,,,,,,,,,,,,,,,499.2657,500.7485,slightly agree,0,19,19,19,1,I tend to have very strong opinions about morality.,0,1,0,0,,
,,,,,,,,,69602491103bb0e29cba7eea,spanish,13 or older,"no, only English or Spanish",no,2026-01-21_16h12.09.744,empathy_intonation_perc_control,2024.2.4,MacIntel,59.52380952,69602491103bb0e29cba7eea,69712dc693a3960bdb483245,69714107e6a68a3e93856800,,,,,,,,,,,,,,,,,,,,,,,,,,,21,,,,,,,,,,,,,,,,,,,,,,,,,,,,,,,,,,,,,,,,,,,,500.7497,504.3986,slightly disagree,0,20,20,20,1,It is hard for me to see why some things upset people so much.,1,0,0,1,,
,,,,,,,,,69602491103bb0e29cba7eea,spanish,13 or older,"no, only English or Spanish",no,2026-01-21_16h12.09.744,empathy_intonation_perc_control,2024.2.4,MacIntel,59.52380952,69602491103bb0e29cba7eea,69712dc693a3960bdb483245,69714107e6a68a3e93856800,,,,,,,,,,,,,,,,,,,,,,,,,,,22,,,,,,,,,,,,,,,,,,,,,,,,,,,,,,,,,,,,,,,,,,,,504.3997,506.7819,slightly agree,0,21,21,21,1,I find it easy to put myself in somebody else's shoes.,1,0,1,0,,
,,,,,,,,,69602491103bb0e29cba7eea,spanish,13 or older,"no, only English or Spanish",no,2026-01-21_16h12.09.744,empathy_intonation_perc_control,2024.2.4,MacIntel,59.52380952,69602491103bb0e29cba7eea,69712dc693a3960bdb483245,69714107e6a68a3e93856800,,,,,,,,,,,,,,,,,,,,,,,,,,,23,,,,,,,,,,,,,,,,,,,,,,,,,,,,,,,,,,,,,,,,,,,,506.783,509.882,slightly disagree,0,22,22,22,1,I think that good manners are the most important thing a parent can teach their child.,0,1,0,0,,
