instructions_2afc.started,instructions_2afc.stopped,instructions_2afc_loop.thisRepN,instructions_2afc_loop.thisTrialN,instructions_2afc_loop.thisN,instructions_2afc_loop.thisIndex,instructions_2afc_loop.ran,instructions_text,continue_text,participant_id,"What variety of Spanish are you most familiar with? (e.g., Peruvian, Spanish, Mexican)",At what age did you begin learning Spanish?,Are you proficient in any languages other than English/Spanish?,"Are you familiar with Caribbean (e.g., Caribbean, Puerto Rican) or Galician Spanish?",date,expName,psychopyVersion,OS,frameRate,id,study_id,session,practice_2afc.started,practice_2afc.stopped,key_resp_2afc_practice.keys,key_resp_2afc_practice.corr,key_resp_2afc_practice.rt,key_resp_2afc_practice.duration,trials_2afc_practice_loop.thisRepN,trials_2afc_practice_loop.thisTrialN,trials_2afc_practice_loop.thisN,trials_2afc_practice_loop.thisIndex,trials_2afc_practice_loop.ran,path,correct_response,check_2afc.started,check_2afc.stopped,trial_2afc.started,trial_2afc.stopped,key_resp_2afc_trial.keys,key_resp_2afc_trial.corr,key_resp_2afc_trial.rt,key_resp_2afc_trial.duration,trials_2afc_loop.thisRepN,trials_2afc_loop.thisTrialN,trials_2afc_loop.thisN,trials_2afc_loop.thisIndex,trials_2afc_loop.ran,item_num,target,variety,instructions_lextale.started,instructions_lextale.stopped,instructions_lextale_loop.thisRepN,instructions_lextale_loop.thisTrialN,instructions_lextale_loop.thisN,instructions_lextale_loop.thisIndex,instructions_lextale_loop.ran,practice_lextale.started,practice_lextale.stopped,key_resp_lextale_practice.keys,key_resp_lextale_practice.corr,key_resp_lextale_practice.rt,key_resp_lextale_practice.duration,practice_feedback_lextale.started,practice_feedback_lextale.stopped,trials_lextale_practice_loop.thisRepN,trials_lextale_practice_loop.thisTrialN,trials_lextale_practice_loop.thisN,trials_lextale_practice_loop.thisIndex,trials_lextale_practice_loop.ran,stim,word,prac_button_real,prac_button_false,check_lextale.started,check_lextale.stopped,trial_lextale.started,trial_lextale.stopped,key_resp_lextale_trial.keys,key_resp_lextale_trial.corr,key_resp_lextale_trial.rt,key_resp_lextale_trial.duration,trials_lextale_loop.thisRepN,trials_lextale_loop.thisTrialN,trials_lextale_loop.thisN,trials_lextale_loop.thisIndex,trials_lextale_loop.ran,button_real,button_false,instructions_eq.started,instructions_eq.stopped,trial_eq.started,trial_eq.stopped,slider_eq_trial.response,trials_eq_loop.thisRepN,trials_eq_loop.thisTrialN,trials_eq_loop.thisN,trials_eq_loop.thisIndex,trials_eq_loop.ran,item,is_test_item,is_distractor,is_agree_score,is_disagree_score,end_exp.started,end_exp.stopped
0.012,10.77,0,0,0,0,1,"In the following task you are going to hear a series of utterances. 

  You will decide if the utterances sound like questions or not using your keyboard.", (press the spacebar to continue),6966565729d87a03bc0a7361,Spanish,younger than 13,"no, only English or Spanish",no,2026-01-21_21h16.42.796,empathy_intonation_perc_control,2024.2.4,MacIntel,58.68544601,6966565729d87a03bc0a7361,69712dc693a3960bdb483245,6971885c656c3d4201538111,,,,,,,,,,,,,,,,,,,,,,,,,,,,,,,,,,,,,,,,,,,,,,,,,,,,,,,,,,,,,,,,,,,,,,,,,,,,,,,,,,,,,
10.771,19.031,0,1,1,1,1,"If you believe the utterance is a question, type '1' (for 'yes') and if you do not 
  believe it is a question type '0' (for 'no').

  Let's practice a bit...", (press the spacebar to continue),6966565729d87a03bc0a7361,Spanish,younger than 13,"no, only English or Spanish",no,2026-01-21_21h16.42.796,empathy_intonation_perc_control,2024.2.4,MacIntel,58.68544601,6966565729d87a03bc0a7361,69712dc693a3960bdb483245,6971885c656c3d4201538111,,,,,,,,,,,,,,,,,,,,,,,,,,,,,,,,,,,,,,,,,,,,,,,,,,,,,,,,,,,,,,,,,,,,,,,,,,,,,,,,,,,,,
,,,,,,,,,6966565729d87a03bc0a7361,Spanish,younger than 13,"no, only English or Spanish",no,2026-01-21_21h16.42.796,empathy_intonation_perc_control,2024.2.4,MacIntel,58.68544601,6966565729d87a03bc0a7361,69712dc693a3960bdb483245,6971885c656c3d4201538111,19.041,24.267,0,1,4.708,,0,0,0,4,1,./stim/wavs/cuban_statement_filler_Cocinabas-por-la-noche.wav,0,,,,,,,,,,,,,,,,,,,,,,,,,,,,,,,,,,,,,,,,,,,,,,,,,,,,,,,,,,,,,,,,,,,,,,,,
,,,,,,,,,6966565729d87a03bc0a7361,Spanish,younger than 13,"no, only English or Spanish",no,2026-01-21_21h16.42.796,empathy_intonation_perc_control,2024.2.4,MacIntel,58.68544601,6966565729d87a03bc0a7361,69712dc693a3960bdb483245,6971885c656c3d4201538111,24.27,29.254,1,1,4.459,,0,1,1,0,1,./stim/wavs/castilian_question_filler_Mi-esposo-conoce-al-chico.wav,1,,,,,,,,,,,,,,,,,,,,,,,,,,,,,,,,,,,,,,,,,,,,,,,,,,,,,,,,,,,,,,,,,,,,,,,,
,,,,,,,,,6966565729d87a03bc0a7361,Spanish,younger than 13,"no, only English or Spanish",no,2026-01-21_21h16.42.796,empathy_intonation_perc_control,2024.2.4,MacIntel,58.68544601,6966565729d87a03bc0a7361,69712dc693a3960bdb483245,6971885c656c3d4201538111,29.257,35.704,1,1,5.918,,0,2,2,2,1,./stim/wavs/chilean_question_filler_Mi-padre-cantaba-bien.wav,1,,,,,,,,,,,,,,,,,,,,,,,,,,,,,,,,,,,,,,,,,,,,,,,,,,,,,,,,,,,,,,,,,,,,,,,,
,,,,,,,,,6966565729d87a03bc0a7361,Spanish,younger than 13,"no, only English or Spanish",no,2026-01-21_21h16.42.796,empathy_intonation_perc_control,2024.2.4,MacIntel,58.68544601,6966565729d87a03bc0a7361,69712dc693a3960bdb483245,6971885c656c3d4201538111,35.706,38.764,0,1,2.527,,0,3,3,5,1,./stim/wavs/andalusian_statement_filler_Alberto-nunca-se-afeita.wav,0,,,,,,,,,,,,,,,,,,,,,,,,,,,,,,,,,,,,,,,,,,,,,,,,,,,,,,,,,,,,,,,,,,,,,,,,
,,,,,,,,,6966565729d87a03bc0a7361,Spanish,younger than 13,"no, only English or Spanish",no,2026-01-21_21h16.42.796,empathy_intonation_perc_control,2024.2.4,MacIntel,58.68544601,6966565729d87a03bc0a7361,69712dc693a3960bdb483245,6971885c656c3d4201538111,38.765,41.141,0,1,1.848,,0,4,4,7,1,./stim/wavs/puertorican_statement_filler_La-nina-pinta-con-su-amiga.wav,0,,,,,,,,,,,,,,,,,,,,,,,,,,,,,,,,,,,,,,,,,,,,,,,,,,,,,,,,,,,,,,,,,,,,,,,,
,,,,,,,,,6966565729d87a03bc0a7361,Spanish,younger than 13,"no, only English or Spanish",no,2026-01-21_21h16.42.796,empathy_intonation_perc_control,2024.2.4,MacIntel,58.68544601,6966565729d87a03bc0a7361,69712dc693a3960bdb483245,6971885c656c3d4201538111,41.142,43.603,1,1,1.927,,0,5,5,3,1,./stim/wavs/mexican_question_filler_Felipe-no-tiene-contrasena.wav,1,,,,,,,,,,,,,,,,,,,,,,,,,,,,,,,,,,,,,,,,,,,,,,,,,,,,,,,,,,,,,,,,,,,,,,,,
,,,,,,,,,6966565729d87a03bc0a7361,Spanish,younger than 13,"no, only English or Spanish",no,2026-01-21_21h16.42.796,empathy_intonation_perc_control,2024.2.4,MacIntel,58.68544601,6966565729d87a03bc0a7361,69712dc693a3960bdb483245,6971885c656c3d4201538111,43.603,46.444,1,1,2.313,,0,6,6,1,1,./stim/wavs/argentine_question_filler_Mi-vecino-habla-mucho.wav,1,,,,,,,,,,,,,,,,,,,,,,,,,,,,,,,,,,,,,,,,,,,,,,,,,,,,,,,,,,,,,,,,,,,,,,,,
,,,,,,,,,6966565729d87a03bc0a7361,Spanish,younger than 13,"no, only English or Spanish",no,2026-01-21_21h16.42.796,empathy_intonation_perc_control,2024.2.4,MacIntel,58.68544601,6966565729d87a03bc0a7361,69712dc693a3960bdb483245,6971885c656c3d4201538111,46.445,49.337,0,1,2.364,,0,7,7,6,1,./stim/wavs/peruvian_statement_filler_El-nino-habla-con-su-madre.wav,0,,,,,,,,,,,,,,,,,,,,,,,,,,,,,,,,,,,,,,,,,,,,,,,,,,,,,,,,,,,,,,,,,,,,,,,,
,,,,,,,,,6966565729d87a03bc0a7361,Spanish,younger than 13,"no, only English or Spanish",no,2026-01-21_21h16.42.796,empathy_intonation_perc_control,2024.2.4,MacIntel,58.68544601,6966565729d87a03bc0a7361,69712dc693a3960bdb483245,6971885c656c3d4201538111,,,,,,,,,,,,,,49.337,54.608,,,,,,,,,,,,,,,,,,,,,,,,,,,,,,,,,,,,,,,,,,,,,,,,,,,,,,,,,,,,,,,,,,,,,,
,,,,,,,,,6966565729d87a03bc0a7361,Spanish,younger than 13,"no, only English or Spanish",no,2026-01-21_21h16.42.796,empathy_intonation_perc_control,2024.2.4,MacIntel,58.68544601,6966565729d87a03bc0a7361,69712dc693a3960bdb483245,6971885c656c3d4201538111,,,,,,,,,,,,./stim/wavs/castilian_mismatch_declarative-broad-focus_La-maestra-vive-en-Paris.wav,0,,,54.631,57.003,0,1,1.848,,0,0,0,69,1,70,0,castilian,,,,,,,,,,,,,,,,,,,,,,,,,,,,,,,,,,,,,,,,,,,,,,,,,,,,,,,,
,,,,,,,,,6966565729d87a03bc0a7361,Spanish,younger than 13,"no, only English or Spanish",no,2026-01-21_21h16.42.796,empathy_intonation_perc_control,2024.2.4,MacIntel,58.68544601,6966565729d87a03bc0a7361,69712dc693a3960bdb483245,6971885c656c3d4201538111,,,,,,,,,,,,./stim/wavs/cuban_match_declarative-broad-focus_Maria-bebe-el-vino.wav,0,,,57.005,59.263,0,1,1.731,,0,1,1,53,1,54,0,cuban,,,,,,,,,,,,,,,,,,,,,,,,,,,,,,,,,,,,,,,,,,,,,,,,,,,,,,,,
,,,,,,,,,6966565729d87a03bc0a7361,Spanish,younger than 13,"no, only English or Spanish",no,2026-01-21_21h16.42.796,empathy_intonation_perc_control,2024.2.4,MacIntel,58.68544601,6966565729d87a03bc0a7361,69712dc693a3960bdb483245,6971885c656c3d4201538111,,,,,,,,,,,,./stim/wavs/mexican_match_declarative-broad-focus_Ana-lleva-el-abrigo.wav,0,,,59.264,61.191,0,1,1.398,,0,2,2,56,1,57,0,mexican,,,,,,,,,,,,,,,,,,,,,,,,,,,,,,,,,,,,,,,,,,,,,,,,,,,,,,,,
,,,,,,,,,6966565729d87a03bc0a7361,Spanish,younger than 13,"no, only English or Spanish",no,2026-01-21_21h16.42.796,empathy_intonation_perc_control,2024.2.4,MacIntel,58.68544601,6966565729d87a03bc0a7361,69712dc693a3960bdb483245,6971885c656c3d4201538111,,,,,,,,,,,,./stim/wavs/mexican_match_interrogative-total-yn_Ana-lleva-el-abrigo.wav,1,,,61.192,63.435,1,1,1.713,,0,3,3,12,1,13,0,mexican,,,,,,,,,,,,,,,,,,,,,,,,,,,,,,,,,,,,,,,,,,,,,,,,,,,,,,,,
,,,,,,,,,6966565729d87a03bc0a7361,Spanish,younger than 13,"no, only English or Spanish",no,2026-01-21_21h16.42.796,empathy_intonation_perc_control,2024.2.4,MacIntel,58.68544601,6966565729d87a03bc0a7361,69712dc693a3960bdb483245,6971885c656c3d4201538111,,,,,,,,,,,,./stim/wavs/castilian_match_declarative-broad-focus_Emilio-ama-la-marcha.wav,0,,,63.437,65.697,0,1,1.729,,0,4,4,45,1,46,0,castilian,,,,,,,,,,,,,,,,,,,,,,,,,,,,,,,,,,,,,,,,,,,,,,,,,,,,,,,,
,,,,,,,,,6966565729d87a03bc0a7361,Spanish,younger than 13,"no, only English or Spanish",no,2026-01-21_21h16.42.796,empathy_intonation_perc_control,2024.2.4,MacIntel,58.68544601,6966565729d87a03bc0a7361,69712dc693a3960bdb483245,6971885c656c3d4201538111,,,,,,,,,,,,./stim/wavs/cuban_mismatch_declarative-broad-focus_El-hombre-mira-la-luna.wav,0,,,65.698,68.322,0,1,2.095,,0,5,5,74,1,75,0,cuban,,,,,,,,,,,,,,,,,,,,,,,,,,,,,,,,,,,,,,,,,,,,,,,,,,,,,,,,
,,,,,,,,,6966565729d87a03bc0a7361,Spanish,younger than 13,"no, only English or Spanish",no,2026-01-21_21h16.42.796,empathy_intonation_perc_control,2024.2.4,MacIntel,58.68544601,6966565729d87a03bc0a7361,69712dc693a3960bdb483245,6971885c656c3d4201538111,,,,,,,,,,,,./stim/wavs/castilian_mismatch_interrogative-total-yn_Mi-novio-viene-del-lago.wav,1,,,68.323,70.734,1,1,1.878,,0,6,6,27,1,28,0,castilian,,,,,,,,,,,,,,,,,,,,,,,,,,,,,,,,,,,,,,,,,,,,,,,,,,,,,,,,
,,,,,,,,,6966565729d87a03bc0a7361,Spanish,younger than 13,"no, only English or Spanish",no,2026-01-21_21h16.42.796,empathy_intonation_perc_control,2024.2.4,MacIntel,58.68544601,6966565729d87a03bc0a7361,69712dc693a3960bdb483245,6971885c656c3d4201538111,,,,,,,,,,,,./stim/wavs/castilian_mismatch_interrogative-total-yn_La-maestra-vive-en-Paris.wav,1,,,70.734,73.194,1,1,1.931,,0,7,7,24,1,25,0,castilian,,,,,,,,,,,,,,,,,,,,,,,,,,,,,,,,,,,,,,,,,,,,,,,,,,,,,,,,
,,,,,,,,,6966565729d87a03bc0a7361,Spanish,younger than 13,"no, only English or Spanish",no,2026-01-21_21h16.42.796,empathy_intonation_perc_control,2024.2.4,MacIntel,58.68544601,6966565729d87a03bc0a7361,69712dc693a3960bdb483245,6971885c656c3d4201538111,,,,,,,,,,,,./stim/wavs/mexican_mismatch_interrogative-total-yn_El-nino-oye-el-rio.wav,1,,,73.195,75.273,1,1,1.546,,0,8,8,35,1,36,0,mexican,,,,,,,,,,,,,,,,,,,,,,,,,,,,,,,,,,,,,,,,,,,,,,,,,,,,,,,,
,,,,,,,,,6966565729d87a03bc0a7361,Spanish,younger than 13,"no, only English or Spanish",no,2026-01-21_21h16.42.796,empathy_intonation_perc_control,2024.2.4,MacIntel,58.68544601,6966565729d87a03bc0a7361,69712dc693a3960bdb483245,6971885c656c3d4201538111,,,,,,,,,,,,./stim/wavs/cuban_match_interrogative-total-yn_Mariano-habla-del-tiempo.wav,1,,,75.274,78.898,0,0,3.097,,0,9,9,10,1,11,1,cuban,,,,,,,,,,,,,,,,,,,,,,,,,,,,,,,,,,,,,,,,,,,,,,,,,,,,,,,,
,,,,,,,,,6966565729d87a03bc0a7361,Spanish,younger than 13,"no, only English or Spanish",no,2026-01-21_21h16.42.796,empathy_intonation_perc_control,2024.2.4,MacIntel,58.68544601,6966565729d87a03bc0a7361,69712dc693a3960bdb483245,6971885c656c3d4201538111,,,,,,,,,,,,./stim/wavs/puertorican_match_interrogative-total-yn_David-leia-el-libro.wav,1,,,78.899,81.19,0,0,1.765,,0,10,10,20,1,21,1,puertorican,,,,,,,,,,,,,,,,,,,,,,,,,,,,,,,,,,,,,,,,,,,,,,,,,,,,,,,,
,,,,,,,,,6966565729d87a03bc0a7361,Spanish,younger than 13,"no, only English or Spanish",no,2026-01-21_21h16.42.796,empathy_intonation_perc_control,2024.2.4,MacIntel,58.68544601,6966565729d87a03bc0a7361,69712dc693a3960bdb483245,6971885c656c3d4201538111,,,,,,,,,,,,./stim/wavs/cuban_match_declarative-broad-focus_Ana-lleva-el-abrigo.wav,0,,,81.192,83.202,0,1,1.481,,0,11,11,50,1,51,0,cuban,,,,,,,,,,,,,,,,,,,,,,,,,,,,,,,,,,,,,,,,,,,,,,,,,,,,,,,,
,,,,,,,,,6966565729d87a03bc0a7361,Spanish,younger than 13,"no, only English or Spanish",no,2026-01-21_21h16.42.796,empathy_intonation_perc_control,2024.2.4,MacIntel,58.68544601,6966565729d87a03bc0a7361,69712dc693a3960bdb483245,6971885c656c3d4201538111,,,,,,,,,,,,./stim/wavs/cuban_mismatch_interrogative-total-yn_El-nino-oye-el-rio.wav,1,,,83.203,85.58,0,0,1.845,,0,12,12,30,1,31,1,cuban,,,,,,,,,,,,,,,,,,,,,,,,,,,,,,,,,,,,,,,,,,,,,,,,,,,,,,,,
,,,,,,,,,6966565729d87a03bc0a7361,Spanish,younger than 13,"no, only English or Spanish",no,2026-01-21_21h16.42.796,empathy_intonation_perc_control,2024.2.4,MacIntel,58.68544601,6966565729d87a03bc0a7361,69712dc693a3960bdb483245,6971885c656c3d4201538111,,,,,,,,,,,,./stim/wavs/castilian_mismatch_declarative-broad-focus_Mi-novio-viene-del-lago.wav,0,,,85.58,87.926,0,1,1.816,,0,13,13,71,1,72,0,castilian,,,,,,,,,,,,,,,,,,,,,,,,,,,,,,,,,,,,,,,,,,,,,,,,,,,,,,,,
,,,,,,,,,6966565729d87a03bc0a7361,Spanish,younger than 13,"no, only English or Spanish",no,2026-01-21_21h16.42.796,empathy_intonation_perc_control,2024.2.4,MacIntel,58.68544601,6966565729d87a03bc0a7361,69712dc693a3960bdb483245,6971885c656c3d4201538111,,,,,,,,,,,,./stim/wavs/castilian_match_declarative-broad-focus_Manuela-vende-el-carro.wav,0,,,87.929,90.251,0,1,1.794,,0,14,14,46,1,47,0,castilian,,,,,,,,,,,,,,,,,,,,,,,,,,,,,,,,,,,,,,,,,,,,,,,,,,,,,,,,
,,,,,,,,,6966565729d87a03bc0a7361,Spanish,younger than 13,"no, only English or Spanish",no,2026-01-21_21h16.42.796,empathy_intonation_perc_control,2024.2.4,MacIntel,58.68544601,6966565729d87a03bc0a7361,69712dc693a3960bdb483245,6971885c656c3d4201538111,,,,,,,,,,,,./stim/wavs/puertorican_match_interrogative-total-yn_Maria-bebe-el-vino.wav,1,,,90.252,92.38,1,1,1.613,,0,15,15,23,1,24,1,puertorican,,,,,,,,,,,,,,,,,,,,,,,,,,,,,,,,,,,,,,,,,,,,,,,,,,,,,,,,
,,,,,,,,,6966565729d87a03bc0a7361,Spanish,younger than 13,"no, only English or Spanish",no,2026-01-21_21h16.42.796,empathy_intonation_perc_control,2024.2.4,MacIntel,58.68544601,6966565729d87a03bc0a7361,69712dc693a3960bdb483245,6971885c656c3d4201538111,,,,,,,,,,,,./stim/wavs/castilian_match_interrogative-total-yn_Mariano-habla-del-tiempo.wav,1,,,92.381,94.988,1,1,2.079,,0,16,16,4,1,5,0,castilian,,,,,,,,,,,,,,,,,,,,,,,,,,,,,,,,,,,,,,,,,,,,,,,,,,,,,,,,
,,,,,,,,,6966565729d87a03bc0a7361,Spanish,younger than 13,"no, only English or Spanish",no,2026-01-21_21h16.42.796,empathy_intonation_perc_control,2024.2.4,MacIntel,58.68544601,6966565729d87a03bc0a7361,69712dc693a3960bdb483245,6971885c656c3d4201538111,,,,,,,,,,,,./stim/wavs/castilian_match_declarative-broad-focus_Maria-bebe-el-vino.wav,0,,,94.989,97.284,0,1,1.779,,0,17,17,47,1,48,0,castilian,,,,,,,,,,,,,,,,,,,,,,,,,,,,,,,,,,,,,,,,,,,,,,,,,,,,,,,,
,,,,,,,,,6966565729d87a03bc0a7361,Spanish,younger than 13,"no, only English or Spanish",no,2026-01-21_21h16.42.796,empathy_intonation_perc_control,2024.2.4,MacIntel,58.68544601,6966565729d87a03bc0a7361,69712dc693a3960bdb483245,6971885c656c3d4201538111,,,,,,,,,,,,./stim/wavs/puertorican_match_interrogative-total-yn_Manuela-vende-el-carro.wav,1,,,97.285,100.394,0,0,2.577,,0,18,18,22,1,23,1,puertorican,,,,,,,,,,,,,,,,,,,,,,,,,,,,,,,,,,,,,,,,,,,,,,,,,,,,,,,,
,,,,,,,,,6966565729d87a03bc0a7361,Spanish,younger than 13,"no, only English or Spanish",no,2026-01-21_21h16.42.796,empathy_intonation_perc_control,2024.2.4,MacIntel,58.68544601,6966565729d87a03bc0a7361,69712dc693a3960bdb483245,6971885c656c3d4201538111,,,,,,,,,,,,./stim/wavs/castilian_match_declarative-broad-focus_Mariano-habla-del-tiempo.wav,0,,,100.396,102.803,0,1,1.881,,0,19,19,48,1,49,0,castilian,,,,,,,,,,,,,,,,,,,,,,,,,,,,,,,,,,,,,,,,,,,,,,,,,,,,,,,,
,,,,,,,,,6966565729d87a03bc0a7361,Spanish,younger than 13,"no, only English or Spanish",no,2026-01-21_21h16.42.796,empathy_intonation_perc_control,2024.2.4,MacIntel,58.68544601,6966565729d87a03bc0a7361,69712dc693a3960bdb483245,6971885c656c3d4201538111,,,,,,,,,,,,./stim/wavs/puertorican_mismatch_interrogative-total-yn_El-hombre-mira-la-luna.wav,1,,,102.804,105.131,0,0,1.797,,0,20,20,39,1,40,1,puertorican,,,,,,,,,,,,,,,,,,,,,,,,,,,,,,,,,,,,,,,,,,,,,,,,,,,,,,,,
,,,,,,,,,6966565729d87a03bc0a7361,Spanish,younger than 13,"no, only English or Spanish",no,2026-01-21_21h16.42.796,empathy_intonation_perc_control,2024.2.4,MacIntel,58.68544601,6966565729d87a03bc0a7361,69712dc693a3960bdb483245,6971885c656c3d4201538111,,,,,,,,,,,,./stim/wavs/puertorican_match_declarative-broad-focus_Emilio-ama-la-marcha.wav,0,,,105.132,107.675,0,1,2.013,,0,21,21,65,1,66,0,puertorican,,,,,,,,,,,,,,,,,,,,,,,,,,,,,,,,,,,,,,,,,,,,,,,,,,,,,,,,
,,,,,,,,,6966565729d87a03bc0a7361,Spanish,younger than 13,"no, only English or Spanish",no,2026-01-21_21h16.42.796,empathy_intonation_perc_control,2024.2.4,MacIntel,58.68544601,6966565729d87a03bc0a7361,69712dc693a3960bdb483245,6971885c656c3d4201538111,,,,,,,,,,,,./stim/wavs/castilian_match_declarative-broad-focus_Marta-abre-el-regalo.wav,0,,,107.676,110.037,0,1,1.833,,0,22,22,49,1,50,0,castilian,,,,,,,,,,,,,,,,,,,,,,,,,,,,,,,,,,,,,,,,,,,,,,,,,,,,,,,,
,,,,,,,,,6966565729d87a03bc0a7361,Spanish,younger than 13,"no, only English or Spanish",no,2026-01-21_21h16.42.796,empathy_intonation_perc_control,2024.2.4,MacIntel,58.68544601,6966565729d87a03bc0a7361,69712dc693a3960bdb483245,6971885c656c3d4201538111,,,,,,,,,,,,./stim/wavs/castilian_match_interrogative-total-yn_David-leia-el-libro.wav,1,,,110.038,112.331,1,1,1.767,,0,23,23,0,1,1,0,castilian,,,,,,,,,,,,,,,,,,,,,,,,,,,,,,,,,,,,,,,,,,,,,,,,,,,,,,,,
,,,,,,,,,6966565729d87a03bc0a7361,Spanish,younger than 13,"no, only English or Spanish",no,2026-01-21_21h16.42.796,empathy_intonation_perc_control,2024.2.4,MacIntel,58.68544601,6966565729d87a03bc0a7361,69712dc693a3960bdb483245,6971885c656c3d4201538111,,,,,,,,,,,,./stim/wavs/mexican_match_declarative-broad-focus_David-leia-el-libro.wav,0,,,112.332,114.59,0,1,1.73,,0,24,24,58,1,59,0,mexican,,,,,,,,,,,,,,,,,,,,,,,,,,,,,,,,,,,,,,,,,,,,,,,,,,,,,,,,
,,,,,,,,,6966565729d87a03bc0a7361,Spanish,younger than 13,"no, only English or Spanish",no,2026-01-21_21h16.42.796,empathy_intonation_perc_control,2024.2.4,MacIntel,58.68544601,6966565729d87a03bc0a7361,69712dc693a3960bdb483245,6971885c656c3d4201538111,,,,,,,,,,,,./stim/wavs/cuban_mismatch_interrogative-total-yn_Mi-tia-odia-la-lluvia.wav,1,,,114.591,116.967,0,0,1.845,,0,25,25,33,1,34,1,cuban,,,,,,,,,,,,,,,,,,,,,,,,,,,,,,,,,,,,,,,,,,,,,,,,,,,,,,,,
,,,,,,,,,6966565729d87a03bc0a7361,Spanish,younger than 13,"no, only English or Spanish",no,2026-01-21_21h16.42.796,empathy_intonation_perc_control,2024.2.4,MacIntel,58.68544601,6966565729d87a03bc0a7361,69712dc693a3960bdb483245,6971885c656c3d4201538111,,,,,,,,,,,,./stim/wavs/puertorican_mismatch_declarative-broad-focus_La-maestra-vive-en-Paris.wav,0,,,116.969,119.296,0,1,1.796,,0,26,26,86,1,87,0,puertorican,,,,,,,,,,,,,,,,,,,,,,,,,,,,,,,,,,,,,,,,,,,,,,,,,,,,,,,,
,,,,,,,,,6966565729d87a03bc0a7361,Spanish,younger than 13,"no, only English or Spanish",no,2026-01-21_21h16.42.796,empathy_intonation_perc_control,2024.2.4,MacIntel,58.68544601,6966565729d87a03bc0a7361,69712dc693a3960bdb483245,6971885c656c3d4201538111,,,,,,,,,,,,./stim/wavs/castilian_match_declarative-broad-focus_David-leia-el-libro.wav,0,,,119.297,121.606,0,1,1.78,,0,27,27,44,1,45,0,castilian,,,,,,,,,,,,,,,,,,,,,,,,,,,,,,,,,,,,,,,,,,,,,,,,,,,,,,,,
,,,,,,,,,6966565729d87a03bc0a7361,Spanish,younger than 13,"no, only English or Spanish",no,2026-01-21_21h16.42.796,empathy_intonation_perc_control,2024.2.4,MacIntel,58.68544601,6966565729d87a03bc0a7361,69712dc693a3960bdb483245,6971885c656c3d4201538111,,,,,,,,,,,,./stim/wavs/mexican_match_interrogative-total-yn_David-leia-el-libro.wav,1,,,121.61,123.816,1,1,1.679,,0,28,28,14,1,15,0,mexican,,,,,,,,,,,,,,,,,,,,,,,,,,,,,,,,,,,,,,,,,,,,,,,,,,,,,,,,
,,,,,,,,,6966565729d87a03bc0a7361,Spanish,younger than 13,"no, only English or Spanish",no,2026-01-21_21h16.42.796,empathy_intonation_perc_control,2024.2.4,MacIntel,58.68544601,6966565729d87a03bc0a7361,69712dc693a3960bdb483245,6971885c656c3d4201538111,,,,,,,,,,,,./stim/wavs/castilian_mismatch_interrogative-total-yn_Mi-madre-come-la-fruta.wav,1,,,123.817,126.145,1,1,1.801,,0,29,29,26,1,27,0,castilian,,,,,,,,,,,,,,,,,,,,,,,,,,,,,,,,,,,,,,,,,,,,,,,,,,,,,,,,
,,,,,,,,,6966565729d87a03bc0a7361,Spanish,younger than 13,"no, only English or Spanish",no,2026-01-21_21h16.42.796,empathy_intonation_perc_control,2024.2.4,MacIntel,58.68544601,6966565729d87a03bc0a7361,69712dc693a3960bdb483245,6971885c656c3d4201538111,,,,,,,,,,,,./stim/wavs/castilian_match_interrogative-total-yn_Manuela-vende-el-carro.wav,1,,,126.146,128.439,1,1,1.762,,0,30,30,2,1,3,0,castilian,,,,,,,,,,,,,,,,,,,,,,,,,,,,,,,,,,,,,,,,,,,,,,,,,,,,,,,,
,,,,,,,,,6966565729d87a03bc0a7361,Spanish,younger than 13,"no, only English or Spanish",no,2026-01-21_21h16.42.796,empathy_intonation_perc_control,2024.2.4,MacIntel,58.68544601,6966565729d87a03bc0a7361,69712dc693a3960bdb483245,6971885c656c3d4201538111,,,,,,,,,,,,./stim/wavs/puertorican_match_interrogative-total-yn_Emilio-ama-la-marcha.wav,1,,,128.44,130.683,0,0,1.712,,0,31,31,21,1,22,1,puertorican,,,,,,,,,,,,,,,,,,,,,,,,,,,,,,,,,,,,,,,,,,,,,,,,,,,,,,,,
,,,,,,,,,6966565729d87a03bc0a7361,Spanish,younger than 13,"no, only English or Spanish",no,2026-01-21_21h16.42.796,empathy_intonation_perc_control,2024.2.4,MacIntel,58.68544601,6966565729d87a03bc0a7361,69712dc693a3960bdb483245,6971885c656c3d4201538111,,,,,,,,,,,,./stim/wavs/cuban_match_interrogative-total-yn_Ana-lleva-el-abrigo.wav,1,,,130.684,132.861,0,0,1.65,,0,32,32,6,1,7,1,cuban,,,,,,,,,,,,,,,,,,,,,,,,,,,,,,,,,,,,,,,,,,,,,,,,,,,,,,,,
,,,,,,,,,6966565729d87a03bc0a7361,Spanish,younger than 13,"no, only English or Spanish",no,2026-01-21_21h16.42.796,empathy_intonation_perc_control,2024.2.4,MacIntel,58.68544601,6966565729d87a03bc0a7361,69712dc693a3960bdb483245,6971885c656c3d4201538111,,,,,,,,,,,,./stim/wavs/mexican_match_interrogative-total-yn_Emilio-ama-la-marcha.wav,1,,,132.862,137.715,1,1,4.339,,0,33,33,15,1,16,0,mexican,,,,,,,,,,,,,,,,,,,,,,,,,,,,,,,,,,,,,,,,,,,,,,,,,,,,,,,,
,,,,,,,,,6966565729d87a03bc0a7361,Spanish,younger than 13,"no, only English or Spanish",no,2026-01-21_21h16.42.796,empathy_intonation_perc_control,2024.2.4,MacIntel,58.68544601,6966565729d87a03bc0a7361,69712dc693a3960bdb483245,6971885c656c3d4201538111,,,,,,,,,,,,./stim/wavs/puertorican_match_interrogative-total-yn_Ana-lleva-el-abrigo.wav,1,,,137.716,140.442,0,0,2.195,,0,34,34,18,1,19,1,puertorican,,,,,,,,,,,,,,,,,,,,,,,,,,,,,,,,,,,,,,,,,,,,,,,,,,,,,,,,
,,,,,,,,,6966565729d87a03bc0a7361,Spanish,younger than 13,"no, only English or Spanish",no,2026-01-21_21h16.42.796,empathy_intonation_perc_control,2024.2.4,MacIntel,58.68544601,6966565729d87a03bc0a7361,69712dc693a3960bdb483245,6971885c656c3d4201538111,,,,,,,,,,,,./stim/wavs/puertorican_match_declarative-broad-focus_Maria-bebe-el-vino.wav,0,,,140.443,142.952,0,1,1.98,,0,35,35,67,1,68,0,puertorican,,,,,,,,,,,,,,,,,,,,,,,,,,,,,,,,,,,,,,,,,,,,,,,,,,,,,,,,
,,,,,,,,,6966565729d87a03bc0a7361,Spanish,younger than 13,"no, only English or Spanish",no,2026-01-21_21h16.42.796,empathy_intonation_perc_control,2024.2.4,MacIntel,58.68544601,6966565729d87a03bc0a7361,69712dc693a3960bdb483245,6971885c656c3d4201538111,,,,,,,,,,,,./stim/wavs/puertorican_match_declarative-broad-focus_Manuela-vende-el-carro.wav,0,,,142.953,145.013,0,1,1.532,,0,36,36,66,1,67,0,puertorican,,,,,,,,,,,,,,,,,,,,,,,,,,,,,,,,,,,,,,,,,,,,,,,,,,,,,,,,
,,,,,,,,,6966565729d87a03bc0a7361,Spanish,younger than 13,"no, only English or Spanish",no,2026-01-21_21h16.42.796,empathy_intonation_perc_control,2024.2.4,MacIntel,58.68544601,6966565729d87a03bc0a7361,69712dc693a3960bdb483245,6971885c656c3d4201538111,,,,,,,,,,,,./stim/wavs/mexican_match_interrogative-total-yn_Marta-abre-el-regalo.wav,1,,,145.014,147.658,1,1,2.115,,0,37,37,17,1,18,0,mexican,,,,,,,,,,,,,,,,,,,,,,,,,,,,,,,,,,,,,,,,,,,,,,,,,,,,,,,,
,,,,,,,,,6966565729d87a03bc0a7361,Spanish,younger than 13,"no, only English or Spanish",no,2026-01-21_21h16.42.796,empathy_intonation_perc_control,2024.2.4,MacIntel,58.68544601,6966565729d87a03bc0a7361,69712dc693a3960bdb483245,6971885c656c3d4201538111,,,,,,,,,,,,./stim/wavs/mexican_mismatch_declarative-broad-focus_Mi-novio-viene-del-lago.wav,0,,,147.659,149.702,0,1,1.515,,0,38,38,81,1,82,0,mexican,,,,,,,,,,,,,,,,,,,,,,,,,,,,,,,,,,,,,,,,,,,,,,,,,,,,,,,,
,,,,,,,,,6966565729d87a03bc0a7361,Spanish,younger than 13,"no, only English or Spanish",no,2026-01-21_21h16.42.796,empathy_intonation_perc_control,2024.2.4,MacIntel,58.68544601,6966565729d87a03bc0a7361,69712dc693a3960bdb483245,6971885c656c3d4201538111,,,,,,,,,,,,./stim/wavs/puertorican_match_declarative-broad-focus_David-leia-el-libro.wav,0,,,149.703,151.713,0,1,1.48,,0,39,39,64,1,65,0,puertorican,,,,,,,,,,,,,,,,,,,,,,,,,,,,,,,,,,,,,,,,,,,,,,,,,,,,,,,,
,,,,,,,,,6966565729d87a03bc0a7361,Spanish,younger than 13,"no, only English or Spanish",no,2026-01-21_21h16.42.796,empathy_intonation_perc_control,2024.2.4,MacIntel,58.68544601,6966565729d87a03bc0a7361,69712dc693a3960bdb483245,6971885c656c3d4201538111,,,,,,,,,,,,./stim/wavs/cuban_match_interrogative-total-yn_Manuela-vende-el-carro.wav,1,,,151.714,153.891,0,0,1.646,,0,40,40,8,1,9,1,cuban,,,,,,,,,,,,,,,,,,,,,,,,,,,,,,,,,,,,,,,,,,,,,,,,,,,,,,,,
,,,,,,,,,6966565729d87a03bc0a7361,Spanish,younger than 13,"no, only English or Spanish",no,2026-01-21_21h16.42.796,empathy_intonation_perc_control,2024.2.4,MacIntel,58.68544601,6966565729d87a03bc0a7361,69712dc693a3960bdb483245,6971885c656c3d4201538111,,,,,,,,,,,,./stim/wavs/castilian_mismatch_declarative-broad-focus_La-nina-lava-el-plato.wav,0,,,153.891,156.137,0,1,1.714,,0,41,41,70,1,71,0,castilian,,,,,,,,,,,,,,,,,,,,,,,,,,,,,,,,,,,,,,,,,,,,,,,,,,,,,,,,
,,,,,,,,,6966565729d87a03bc0a7361,Spanish,younger than 13,"no, only English or Spanish",no,2026-01-21_21h16.42.796,empathy_intonation_perc_control,2024.2.4,MacIntel,58.68544601,6966565729d87a03bc0a7361,69712dc693a3960bdb483245,6971885c656c3d4201538111,,,,,,,,,,,,./stim/wavs/puertorican_mismatch_declarative-broad-focus_La-nina-lava-el-plato.wav,0,,,156.14,158.014,0,1,1.345,,0,42,42,87,1,88,0,puertorican,,,,,,,,,,,,,,,,,,,,,,,,,,,,,,,,,,,,,,,,,,,,,,,,,,,,,,,,
,,,,,,,,,6966565729d87a03bc0a7361,Spanish,younger than 13,"no, only English or Spanish",no,2026-01-21_21h16.42.796,empathy_intonation_perc_control,2024.2.4,MacIntel,58.68544601,6966565729d87a03bc0a7361,69712dc693a3960bdb483245,6971885c656c3d4201538111,,,,,,,,,,,,./stim/wavs/castilian_match_interrogative-total-yn_Maria-bebe-el-vino.wav,1,,,158.016,160.134,1,1,1.591,,0,43,43,3,1,4,0,castilian,,,,,,,,,,,,,,,,,,,,,,,,,,,,,,,,,,,,,,,,,,,,,,,,,,,,,,,,
,,,,,,,,,6966565729d87a03bc0a7361,Spanish,younger than 13,"no, only English or Spanish",no,2026-01-21_21h16.42.796,empathy_intonation_perc_control,2024.2.4,MacIntel,58.68544601,6966565729d87a03bc0a7361,69712dc693a3960bdb483245,6971885c656c3d4201538111,,,,,,,,,,,,./stim/wavs/puertorican_mismatch_interrogative-total-yn_La-nina-lava-el-plato.wav,1,,,160.136,163.616,0,0,2.96,,0,44,44,42,1,43,1,puertorican,,,,,,,,,,,,,,,,,,,,,,,,,,,,,,,,,,,,,,,,,,,,,,,,,,,,,,,,
,,,,,,,,,6966565729d87a03bc0a7361,Spanish,younger than 13,"no, only English or Spanish",no,2026-01-21_21h16.42.796,empathy_intonation_perc_control,2024.2.4,MacIntel,58.68544601,6966565729d87a03bc0a7361,69712dc693a3960bdb483245,6971885c656c3d4201538111,,,,,,,,,,,,./stim/wavs/cuban_mismatch_interrogative-total-yn_El-hombre-mira-la-luna.wav,1,,,163.617,165.711,1,1,1.564,,0,45,45,29,1,30,1,cuban,,,,,,,,,,,,,,,,,,,,,,,,,,,,,,,,,,,,,,,,,,,,,,,,,,,,,,,,
,,,,,,,,,6966565729d87a03bc0a7361,Spanish,younger than 13,"no, only English or Spanish",no,2026-01-21_21h16.42.796,empathy_intonation_perc_control,2024.2.4,MacIntel,58.68544601,6966565729d87a03bc0a7361,69712dc693a3960bdb483245,6971885c656c3d4201538111,,,,,,,,,,,,./stim/wavs/mexican_match_declarative-broad-focus_Mariano-habla-del-tiempo.wav,0,,,165.712,167.972,0,1,1.73,,0,46,46,60,1,61,0,mexican,,,,,,,,,,,,,,,,,,,,,,,,,,,,,,,,,,,,,,,,,,,,,,,,,,,,,,,,
,,,,,,,,,6966565729d87a03bc0a7361,Spanish,younger than 13,"no, only English or Spanish",no,2026-01-21_21h16.42.796,empathy_intonation_perc_control,2024.2.4,MacIntel,58.68544601,6966565729d87a03bc0a7361,69712dc693a3960bdb483245,6971885c656c3d4201538111,,,,,,,,,,,,./stim/wavs/mexican_mismatch_interrogative-total-yn_Mi-novio-viene-del-lago.wav,1,,,167.973,170.521,1,1,2.016,,0,47,47,37,1,38,0,mexican,,,,,,,,,,,,,,,,,,,,,,,,,,,,,,,,,,,,,,,,,,,,,,,,,,,,,,,,
,,,,,,,,,6966565729d87a03bc0a7361,Spanish,younger than 13,"no, only English or Spanish",no,2026-01-21_21h16.42.796,empathy_intonation_perc_control,2024.2.4,MacIntel,58.68544601,6966565729d87a03bc0a7361,69712dc693a3960bdb483245,6971885c656c3d4201538111,,,,,,,,,,,,./stim/wavs/mexican_mismatch_declarative-broad-focus_La-maestra-vive-en-Paris.wav,0,,,170.522,172.943,0,1,1.9,,0,48,48,80,1,81,0,mexican,,,,,,,,,,,,,,,,,,,,,,,,,,,,,,,,,,,,,,,,,,,,,,,,,,,,,,,,
,,,,,,,,,6966565729d87a03bc0a7361,Spanish,younger than 13,"no, only English or Spanish",no,2026-01-21_21h16.42.796,empathy_intonation_perc_control,2024.2.4,MacIntel,58.68544601,6966565729d87a03bc0a7361,69712dc693a3960bdb483245,6971885c656c3d4201538111,,,,,,,,,,,,./stim/wavs/puertorican_mismatch_interrogative-total-yn_El-nino-oye-el-rio.wav,1,,,172.945,178.065,0,0,4.589,,0,49,49,40,1,41,1,puertorican,,,,,,,,,,,,,,,,,,,,,,,,,,,,,,,,,,,,,,,,,,,,,,,,,,,,,,,,
,,,,,,,,,6966565729d87a03bc0a7361,Spanish,younger than 13,"no, only English or Spanish",no,2026-01-21_21h16.42.796,empathy_intonation_perc_control,2024.2.4,MacIntel,58.68544601,6966565729d87a03bc0a7361,69712dc693a3960bdb483245,6971885c656c3d4201538111,,,,,,,,,,,,./stim/wavs/cuban_mismatch_declarative-broad-focus_La-nina-lava-el-plato.wav,0,,,178.067,180.092,0,1,1.499,,0,50,50,75,1,76,0,cuban,,,,,,,,,,,,,,,,,,,,,,,,,,,,,,,,,,,,,,,,,,,,,,,,,,,,,,,,
,,,,,,,,,6966565729d87a03bc0a7361,Spanish,younger than 13,"no, only English or Spanish",no,2026-01-21_21h16.42.796,empathy_intonation_perc_control,2024.2.4,MacIntel,58.68544601,6966565729d87a03bc0a7361,69712dc693a3960bdb483245,6971885c656c3d4201538111,,,,,,,,,,,,./stim/wavs/castilian_mismatch_declarative-broad-focus_Mi-tia-odia-la-lluvia.wav,0,,,180.094,182.537,0,1,1.914,,0,51,51,72,1,73,0,castilian,,,,,,,,,,,,,,,,,,,,,,,,,,,,,,,,,,,,,,,,,,,,,,,,,,,,,,,,
,,,,,,,,,6966565729d87a03bc0a7361,Spanish,younger than 13,"no, only English or Spanish",no,2026-01-21_21h16.42.796,empathy_intonation_perc_control,2024.2.4,MacIntel,58.68544601,6966565729d87a03bc0a7361,69712dc693a3960bdb483245,6971885c656c3d4201538111,,,,,,,,,,,,./stim/wavs/mexican_mismatch_interrogative-total-yn_Mi-tia-odia-la-lluvia.wav,1,,,182.538,185.113,1,1,2.046,,0,52,52,38,1,39,0,mexican,,,,,,,,,,,,,,,,,,,,,,,,,,,,,,,,,,,,,,,,,,,,,,,,,,,,,,,,
,,,,,,,,,6966565729d87a03bc0a7361,Spanish,younger than 13,"no, only English or Spanish",no,2026-01-21_21h16.42.796,empathy_intonation_perc_control,2024.2.4,MacIntel,58.68544601,6966565729d87a03bc0a7361,69712dc693a3960bdb483245,6971885c656c3d4201538111,,,,,,,,,,,,./stim/wavs/puertorican_mismatch_declarative-broad-focus_El-bebe-comia-muy-bien.wav,0,,,185.113,187.125,0,1,1.497,,0,53,53,83,1,84,0,puertorican,,,,,,,,,,,,,,,,,,,,,,,,,,,,,,,,,,,,,,,,,,,,,,,,,,,,,,,,
,,,,,,,,,6966565729d87a03bc0a7361,Spanish,younger than 13,"no, only English or Spanish",no,2026-01-21_21h16.42.796,empathy_intonation_perc_control,2024.2.4,MacIntel,58.68544601,6966565729d87a03bc0a7361,69712dc693a3960bdb483245,6971885c656c3d4201538111,,,,,,,,,,,,./stim/wavs/puertorican_mismatch_interrogative-total-yn_Mi-madre-come-la-fruta.wav,1,,,187.128,189.418,0,0,1.762,,0,54,54,43,1,44,1,puertorican,,,,,,,,,,,,,,,,,,,,,,,,,,,,,,,,,,,,,,,,,,,,,,,,,,,,,,,,
,,,,,,,,,6966565729d87a03bc0a7361,Spanish,younger than 13,"no, only English or Spanish",no,2026-01-21_21h16.42.796,empathy_intonation_perc_control,2024.2.4,MacIntel,58.68544601,6966565729d87a03bc0a7361,69712dc693a3960bdb483245,6971885c656c3d4201538111,,,,,,,,,,,,./stim/wavs/cuban_match_declarative-broad-focus_Marta-abre-el-regalo.wav,0,,,189.419,191.814,0,1,1.864,,0,55,55,55,1,56,0,cuban,,,,,,,,,,,,,,,,,,,,,,,,,,,,,,,,,,,,,,,,,,,,,,,,,,,,,,,,
,,,,,,,,,6966565729d87a03bc0a7361,Spanish,younger than 13,"no, only English or Spanish",no,2026-01-21_21h16.42.796,empathy_intonation_perc_control,2024.2.4,MacIntel,58.68544601,6966565729d87a03bc0a7361,69712dc693a3960bdb483245,6971885c656c3d4201538111,,,,,,,,,,,,./stim/wavs/cuban_match_interrogative-total-yn_Marta-abre-el-regalo.wav,1,,,191.815,194.623,0,0,2.278,,0,56,56,11,1,12,1,cuban,,,,,,,,,,,,,,,,,,,,,,,,,,,,,,,,,,,,,,,,,,,,,,,,,,,,,,,,
,,,,,,,,,6966565729d87a03bc0a7361,Spanish,younger than 13,"no, only English or Spanish",no,2026-01-21_21h16.42.796,empathy_intonation_perc_control,2024.2.4,MacIntel,58.68544601,6966565729d87a03bc0a7361,69712dc693a3960bdb483245,6971885c656c3d4201538111,,,,,,,,,,,,./stim/wavs/castilian_match_interrogative-total-yn_Marta-abre-el-regalo.wav,1,,,194.624,196.851,1,1,1.697,,0,57,57,5,1,6,0,castilian,,,,,,,,,,,,,,,,,,,,,,,,,,,,,,,,,,,,,,,,,,,,,,,,,,,,,,,,
,,,,,,,,,6966565729d87a03bc0a7361,Spanish,younger than 13,"no, only English or Spanish",no,2026-01-21_21h16.42.796,empathy_intonation_perc_control,2024.2.4,MacIntel,58.68544601,6966565729d87a03bc0a7361,69712dc693a3960bdb483245,6971885c656c3d4201538111,,,,,,,,,,,,./stim/wavs/mexican_mismatch_interrogative-total-yn_La-maestra-vive-en-Paris.wav,1,,,196.852,199.128,1,1,1.747,,0,58,58,36,1,37,0,mexican,,,,,,,,,,,,,,,,,,,,,,,,,,,,,,,,,,,,,,,,,,,,,,,,,,,,,,,,
,,,,,,,,,6966565729d87a03bc0a7361,Spanish,younger than 13,"no, only English or Spanish",no,2026-01-21_21h16.42.796,empathy_intonation_perc_control,2024.2.4,MacIntel,58.68544601,6966565729d87a03bc0a7361,69712dc693a3960bdb483245,6971885c656c3d4201538111,,,,,,,,,,,,./stim/wavs/castilian_mismatch_interrogative-total-yn_Mi-tia-odia-la-lluvia.wav,1,,,199.129,201.378,1,1,1.716,,0,59,59,28,1,29,0,castilian,,,,,,,,,,,,,,,,,,,,,,,,,,,,,,,,,,,,,,,,,,,,,,,,,,,,,,,,
,,,,,,,,,6966565729d87a03bc0a7361,Spanish,younger than 13,"no, only English or Spanish",no,2026-01-21_21h16.42.796,empathy_intonation_perc_control,2024.2.4,MacIntel,58.68544601,6966565729d87a03bc0a7361,69712dc693a3960bdb483245,6971885c656c3d4201538111,,,,,,,,,,,,./stim/wavs/mexican_match_interrogative-total-yn_Mariano-habla-del-tiempo.wav,1,,,201.378,203.568,1,1,1.668,,0,60,60,16,1,17,0,mexican,,,,,,,,,,,,,,,,,,,,,,,,,,,,,,,,,,,,,,,,,,,,,,,,,,,,,,,,
,,,,,,,,,6966565729d87a03bc0a7361,Spanish,younger than 13,"no, only English or Spanish",no,2026-01-21_21h16.42.796,empathy_intonation_perc_control,2024.2.4,MacIntel,58.68544601,6966565729d87a03bc0a7361,69712dc693a3960bdb483245,6971885c656c3d4201538111,,,,,,,,,,,,./stim/wavs/cuban_mismatch_interrogative-total-yn_Mi-madre-come-la-fruta.wav,1,,,203.569,206.027,0,0,1.932,,0,61,61,31,1,32,1,cuban,,,,,,,,,,,,,,,,,,,,,,,,,,,,,,,,,,,,,,,,,,,,,,,,,,,,,,,,
,,,,,,,,,6966565729d87a03bc0a7361,Spanish,younger than 13,"no, only English or Spanish",no,2026-01-21_21h16.42.796,empathy_intonation_perc_control,2024.2.4,MacIntel,58.68544601,6966565729d87a03bc0a7361,69712dc693a3960bdb483245,6971885c656c3d4201538111,,,,,,,,,,,,./stim/wavs/puertorican_match_declarative-broad-focus_Daniel-iba-a-Bolivia.wav,0,,,206.028,208.089,0,1,1.531,,0,62,62,63,1,64,0,puertorican,,,,,,,,,,,,,,,,,,,,,,,,,,,,,,,,,,,,,,,,,,,,,,,,,,,,,,,,
,,,,,,,,,6966565729d87a03bc0a7361,Spanish,younger than 13,"no, only English or Spanish",no,2026-01-21_21h16.42.796,empathy_intonation_perc_control,2024.2.4,MacIntel,58.68544601,6966565729d87a03bc0a7361,69712dc693a3960bdb483245,6971885c656c3d4201538111,,,,,,,,,,,,./stim/wavs/cuban_mismatch_declarative-broad-focus_El-bebe-comia-muy-bien.wav,0,,,208.089,210.266,0,1,1.648,,0,63,63,73,1,74,0,cuban,,,,,,,,,,,,,,,,,,,,,,,,,,,,,,,,,,,,,,,,,,,,,,,,,,,,,,,,
,,,,,,,,,6966565729d87a03bc0a7361,Spanish,younger than 13,"no, only English or Spanish",no,2026-01-21_21h16.42.796,empathy_intonation_perc_control,2024.2.4,MacIntel,58.68544601,6966565729d87a03bc0a7361,69712dc693a3960bdb483245,6971885c656c3d4201538111,,,,,,,,,,,,./stim/wavs/cuban_mismatch_declarative-broad-focus_Mi-tia-odia-la-lluvia.wav,0,,,210.268,212.644,0,1,1.847,,0,64,64,77,1,78,0,cuban,,,,,,,,,,,,,,,,,,,,,,,,,,,,,,,,,,,,,,,,,,,,,,,,,,,,,,,,
,,,,,,,,,6966565729d87a03bc0a7361,Spanish,younger than 13,"no, only English or Spanish",no,2026-01-21_21h16.42.796,empathy_intonation_perc_control,2024.2.4,MacIntel,58.68544601,6966565729d87a03bc0a7361,69712dc693a3960bdb483245,6971885c656c3d4201538111,,,,,,,,,,,,./stim/wavs/mexican_mismatch_declarative-broad-focus_El-hombre-mira-la-luna.wav,0,,,212.644,214.738,0,1,1.563,,0,65,65,79,1,80,0,mexican,,,,,,,,,,,,,,,,,,,,,,,,,,,,,,,,,,,,,,,,,,,,,,,,,,,,,,,,
,,,,,,,,,6966565729d87a03bc0a7361,Spanish,younger than 13,"no, only English or Spanish",no,2026-01-21_21h16.42.796,empathy_intonation_perc_control,2024.2.4,MacIntel,58.68544601,6966565729d87a03bc0a7361,69712dc693a3960bdb483245,6971885c656c3d4201538111,,,,,,,,,,,,./stim/wavs/puertorican_mismatch_declarative-broad-focus_El-nino-oye-el-rio.wav,0,,,214.74,216.816,0,1,1.546,,0,66,66,85,1,86,0,puertorican,,,,,,,,,,,,,,,,,,,,,,,,,,,,,,,,,,,,,,,,,,,,,,,,,,,,,,,,
,,,,,,,,,6966565729d87a03bc0a7361,Spanish,younger than 13,"no, only English or Spanish",no,2026-01-21_21h16.42.796,empathy_intonation_perc_control,2024.2.4,MacIntel,58.68544601,6966565729d87a03bc0a7361,69712dc693a3960bdb483245,6971885c656c3d4201538111,,,,,,,,,,,,./stim/wavs/mexican_match_declarative-broad-focus_Marta-abre-el-regalo.wav,0,,,216.817,218.912,0,1,1.565,,0,67,67,61,1,62,0,mexican,,,,,,,,,,,,,,,,,,,,,,,,,,,,,,,,,,,,,,,,,,,,,,,,,,,,,,,,
,,,,,,,,,6966565729d87a03bc0a7361,Spanish,younger than 13,"no, only English or Spanish",no,2026-01-21_21h16.42.796,empathy_intonation_perc_control,2024.2.4,MacIntel,58.68544601,6966565729d87a03bc0a7361,69712dc693a3960bdb483245,6971885c656c3d4201538111,,,,,,,,,,,,./stim/wavs/mexican_match_interrogative-total-yn_Daniel-iba-a-Bolivia.wav,1,,,218.913,221.19,1,1,1.75,,0,68,68,13,1,14,0,mexican,,,,,,,,,,,,,,,,,,,,,,,,,,,,,,,,,,,,,,,,,,,,,,,,,,,,,,,,
,,,,,,,,,6966565729d87a03bc0a7361,Spanish,younger than 13,"no, only English or Spanish",no,2026-01-21_21h16.42.796,empathy_intonation_perc_control,2024.2.4,MacIntel,58.68544601,6966565729d87a03bc0a7361,69712dc693a3960bdb483245,6971885c656c3d4201538111,,,,,,,,,,,,./stim/wavs/castilian_mismatch_interrogative-total-yn_La-nina-lava-el-plato.wav,1,,,221.193,223.333,1,1,1.618,,0,69,69,25,1,26,0,castilian,,,,,,,,,,,,,,,,,,,,,,,,,,,,,,,,,,,,,,,,,,,,,,,,,,,,,,,,
,,,,,,,,,6966565729d87a03bc0a7361,Spanish,younger than 13,"no, only English or Spanish",no,2026-01-21_21h16.42.796,empathy_intonation_perc_control,2024.2.4,MacIntel,58.68544601,6966565729d87a03bc0a7361,69712dc693a3960bdb483245,6971885c656c3d4201538111,,,,,,,,,,,,./stim/wavs/puertorican_match_interrogative-total-yn_Daniel-iba-a-Bolivia.wav,1,,,223.334,225.545,0,0,1.681,,0,70,70,19,1,20,1,puertorican,,,,,,,,,,,,,,,,,,,,,,,,,,,,,,,,,,,,,,,,,,,,,,,,,,,,,,,,
,,,,,,,,,6966565729d87a03bc0a7361,Spanish,younger than 13,"no, only English or Spanish",no,2026-01-21_21h16.42.796,empathy_intonation_perc_control,2024.2.4,MacIntel,58.68544601,6966565729d87a03bc0a7361,69712dc693a3960bdb483245,6971885c656c3d4201538111,,,,,,,,,,,,./stim/wavs/cuban_match_interrogative-total-yn_Daniel-iba-a-Bolivia.wav,1,,,225.545,227.556,0,0,1.479,,0,71,71,7,1,8,1,cuban,,,,,,,,,,,,,,,,,,,,,,,,,,,,,,,,,,,,,,,,,,,,,,,,,,,,,,,,
,,,,,,,,,6966565729d87a03bc0a7361,Spanish,younger than 13,"no, only English or Spanish",no,2026-01-21_21h16.42.796,empathy_intonation_perc_control,2024.2.4,MacIntel,58.68544601,6966565729d87a03bc0a7361,69712dc693a3960bdb483245,6971885c656c3d4201538111,,,,,,,,,,,,./stim/wavs/puertorican_match_declarative-broad-focus_Ana-lleva-el-abrigo.wav,0,,,227.557,230.199,0,1,2.11,,0,72,72,62,1,63,0,puertorican,,,,,,,,,,,,,,,,,,,,,,,,,,,,,,,,,,,,,,,,,,,,,,,,,,,,,,,,
,,,,,,,,,6966565729d87a03bc0a7361,Spanish,younger than 13,"no, only English or Spanish",no,2026-01-21_21h16.42.796,empathy_intonation_perc_control,2024.2.4,MacIntel,58.68544601,6966565729d87a03bc0a7361,69712dc693a3960bdb483245,6971885c656c3d4201538111,,,,,,,,,,,,./stim/wavs/cuban_match_declarative-broad-focus_Daniel-iba-a-Bolivia.wav,0,,,230.201,232.543,0,1,1.811,,0,73,73,51,1,52,0,cuban,,,,,,,,,,,,,,,,,,,,,,,,,,,,,,,,,,,,,,,,,,,,,,,,,,,,,,,,
,,,,,,,,,6966565729d87a03bc0a7361,Spanish,younger than 13,"no, only English or Spanish",no,2026-01-21_21h16.42.796,empathy_intonation_perc_control,2024.2.4,MacIntel,58.68544601,6966565729d87a03bc0a7361,69712dc693a3960bdb483245,6971885c656c3d4201538111,,,,,,,,,,,,./stim/wavs/mexican_mismatch_interrogative-total-yn_El-hombre-mira-la-luna.wav,1,,,232.544,234.59,1,1,1.53,,0,74,74,34,1,35,0,mexican,,,,,,,,,,,,,,,,,,,,,,,,,,,,,,,,,,,,,,,,,,,,,,,,,,,,,,,,
,,,,,,,,,6966565729d87a03bc0a7361,Spanish,younger than 13,"no, only English or Spanish",no,2026-01-21_21h16.42.796,empathy_intonation_perc_control,2024.2.4,MacIntel,58.68544601,6966565729d87a03bc0a7361,69712dc693a3960bdb483245,6971885c656c3d4201538111,,,,,,,,,,,,./stim/wavs/mexican_match_declarative-broad-focus_Emilio-ama-la-marcha.wav,0,,,234.591,237,0,1,1.882,,0,75,75,59,1,60,0,mexican,,,,,,,,,,,,,,,,,,,,,,,,,,,,,,,,,,,,,,,,,,,,,,,,,,,,,,,,
,,,,,,,,,6966565729d87a03bc0a7361,Spanish,younger than 13,"no, only English or Spanish",no,2026-01-21_21h16.42.796,empathy_intonation_perc_control,2024.2.4,MacIntel,58.68544601,6966565729d87a03bc0a7361,69712dc693a3960bdb483245,6971885c656c3d4201538111,,,,,,,,,,,,./stim/wavs/cuban_match_interrogative-total-yn_Maria-bebe-el-vino.wav,1,,,237.002,239.412,0,0,1.883,,0,76,76,9,1,10,1,cuban,,,,,,,,,,,,,,,,,,,,,,,,,,,,,,,,,,,,,,,,,,,,,,,,,,,,,,,,
,,,,,,,,,6966565729d87a03bc0a7361,Spanish,younger than 13,"no, only English or Spanish",no,2026-01-21_21h16.42.796,empathy_intonation_perc_control,2024.2.4,MacIntel,58.68544601,6966565729d87a03bc0a7361,69712dc693a3960bdb483245,6971885c656c3d4201538111,,,,,,,,,,,,./stim/wavs/puertorican_mismatch_declarative-broad-focus_El-hombre-mira-la-luna.wav,0,,,239.413,241.472,0,1,1.529,,0,77,77,84,1,85,0,puertorican,,,,,,,,,,,,,,,,,,,,,,,,,,,,,,,,,,,,,,,,,,,,,,,,,,,,,,,,
,,,,,,,,,6966565729d87a03bc0a7361,Spanish,younger than 13,"no, only English or Spanish",no,2026-01-21_21h16.42.796,empathy_intonation_perc_control,2024.2.4,MacIntel,58.68544601,6966565729d87a03bc0a7361,69712dc693a3960bdb483245,6971885c656c3d4201538111,,,,,,,,,,,,./stim/wavs/puertorican_mismatch_interrogative-total-yn_La-maestra-vive-en-Paris.wav,1,,,241.473,243.898,0,0,1.896,,0,78,78,41,1,42,1,puertorican,,,,,,,,,,,,,,,,,,,,,,,,,,,,,,,,,,,,,,,,,,,,,,,,,,,,,,,,
,,,,,,,,,6966565729d87a03bc0a7361,Spanish,younger than 13,"no, only English or Spanish",no,2026-01-21_21h16.42.796,empathy_intonation_perc_control,2024.2.4,MacIntel,58.68544601,6966565729d87a03bc0a7361,69712dc693a3960bdb483245,6971885c656c3d4201538111,,,,,,,,,,,,./stim/wavs/cuban_match_declarative-broad-focus_Manuela-vende-el-carro.wav,0,,,243.899,246.11,0,1,1.68,,0,79,79,52,1,53,0,cuban,,,,,,,,,,,,,,,,,,,,,,,,,,,,,,,,,,,,,,,,,,,,,,,,,,,,,,,,
,,,,,,,,,6966565729d87a03bc0a7361,Spanish,younger than 13,"no, only English or Spanish",no,2026-01-21_21h16.42.796,empathy_intonation_perc_control,2024.2.4,MacIntel,58.68544601,6966565729d87a03bc0a7361,69712dc693a3960bdb483245,6971885c656c3d4201538111,,,,,,,,,,,,./stim/wavs/cuban_match_declarative-broad-focus_Mariano-habla-del-tiempo.wav,0,,,246.11,248.404,0,1,1.766,,0,80,80,54,1,55,0,cuban,,,,,,,,,,,,,,,,,,,,,,,,,,,,,,,,,,,,,,,,,,,,,,,,,,,,,,,,
,,,,,,,,,6966565729d87a03bc0a7361,Spanish,younger than 13,"no, only English or Spanish",no,2026-01-21_21h16.42.796,empathy_intonation_perc_control,2024.2.4,MacIntel,58.68544601,6966565729d87a03bc0a7361,69712dc693a3960bdb483245,6971885c656c3d4201538111,,,,,,,,,,,,./stim/wavs/castilian_match_interrogative-total-yn_Emilio-ama-la-marcha.wav,1,,,248.404,250.647,1,1,1.716,,0,81,81,1,1,2,0,castilian,,,,,,,,,,,,,,,,,,,,,,,,,,,,,,,,,,,,,,,,,,,,,,,,,,,,,,,,
,,,,,,,,,6966565729d87a03bc0a7361,Spanish,younger than 13,"no, only English or Spanish",no,2026-01-21_21h16.42.796,empathy_intonation_perc_control,2024.2.4,MacIntel,58.68544601,6966565729d87a03bc0a7361,69712dc693a3960bdb483245,6971885c656c3d4201538111,,,,,,,,,,,,./stim/wavs/cuban_mismatch_interrogative-total-yn_Mi-novio-viene-del-lago.wav,1,,,250.648,253.06,0,0,1.878,,0,82,82,32,1,33,1,cuban,,,,,,,,,,,,,,,,,,,,,,,,,,,,,,,,,,,,,,,,,,,,,,,,,,,,,,,,
,,,,,,,,,6966565729d87a03bc0a7361,Spanish,younger than 13,"no, only English or Spanish",no,2026-01-21_21h16.42.796,empathy_intonation_perc_control,2024.2.4,MacIntel,58.68544601,6966565729d87a03bc0a7361,69712dc693a3960bdb483245,6971885c656c3d4201538111,,,,,,,,,,,,./stim/wavs/mexican_mismatch_declarative-broad-focus_Mi-tia-odia-la-lluvia.wav,0,,,253.063,255.171,0,1,1.583,,0,83,83,82,1,83,0,mexican,,,,,,,,,,,,,,,,,,,,,,,,,,,,,,,,,,,,,,,,,,,,,,,,,,,,,,,,
,,,,,,,,,6966565729d87a03bc0a7361,Spanish,younger than 13,"no, only English or Spanish",no,2026-01-21_21h16.42.796,empathy_intonation_perc_control,2024.2.4,MacIntel,58.68544601,6966565729d87a03bc0a7361,69712dc693a3960bdb483245,6971885c656c3d4201538111,,,,,,,,,,,,./stim/wavs/cuban_mismatch_declarative-broad-focus_Mi-novio-viene-del-lago.wav,0,,,255.171,258.047,0,1,2.347,,0,84,84,76,1,77,0,cuban,,,,,,,,,,,,,,,,,,,,,,,,,,,,,,,,,,,,,,,,,,,,,,,,,,,,,,,,
,,,,,,,,,6966565729d87a03bc0a7361,Spanish,younger than 13,"no, only English or Spanish",no,2026-01-21_21h16.42.796,empathy_intonation_perc_control,2024.2.4,MacIntel,58.68544601,6966565729d87a03bc0a7361,69712dc693a3960bdb483245,6971885c656c3d4201538111,,,,,,,,,,,,./stim/wavs/mexican_match_declarative-broad-focus_Daniel-iba-a-Bolivia.wav,0,,,258.048,260.424,0,1,1.849,,0,85,85,57,1,58,0,mexican,,,,,,,,,,,,,,,,,,,,,,,,,,,,,,,,,,,,,,,,,,,,,,,,,,,,,,,,
,,,,,,,,,6966565729d87a03bc0a7361,Spanish,younger than 13,"no, only English or Spanish",no,2026-01-21_21h16.42.796,empathy_intonation_perc_control,2024.2.4,MacIntel,58.68544601,6966565729d87a03bc0a7361,69712dc693a3960bdb483245,6971885c656c3d4201538111,,,,,,,,,,,,./stim/wavs/castilian_mismatch_declarative-broad-focus_El-nino-oye-el-rio.wav,0,,,260.425,262.702,0,1,1.747,,0,86,86,68,1,69,0,castilian,,,,,,,,,,,,,,,,,,,,,,,,,,,,,,,,,,,,,,,,,,,,,,,,,,,,,,,,
,,,,,,,,,6966565729d87a03bc0a7361,Spanish,younger than 13,"no, only English or Spanish",no,2026-01-21_21h16.42.796,empathy_intonation_perc_control,2024.2.4,MacIntel,58.68544601,6966565729d87a03bc0a7361,69712dc693a3960bdb483245,6971885c656c3d4201538111,,,,,,,,,,,,./stim/wavs/mexican_mismatch_declarative-broad-focus_El-bebe-comia-muy-bien.wav,0,,,262.702,265.061,0,1,1.828,,0,87,87,78,1,79,0,mexican,,,,,,,,,,,,,,,,,,,,,,,,,,,,,,,,,,,,,,,,,,,,,,,,,,,,,,,,
,,,,,,,"Great! Now we will move on. The next task consists of about 60 trials, in each of which you will see a string of letters. 
  
  Your task is to decide whether this is a real Spanish word or not.", (press the spacebar to continue),6966565729d87a03bc0a7361,Spanish,younger than 13,"no, only English or Spanish",no,2026-01-21_21h16.42.796,empathy_intonation_perc_control,2024.2.4,MacIntel,58.68544601,6966565729d87a03bc0a7361,69712dc693a3960bdb483245,6971885c656c3d4201538111,,,,,,,,,,,,,,,,,,,,,,,,,,,,,,265.077,273.608,0,0,0,0,1,,,,,,,,,,,,,,,,,,,,,,,,,,,,,,,,,,,,,,,,,,,,,,,,,
,,,,,,,"If you think it is an existing Spanish word, you type '1' (for 'REAL'), and if you think it is not an existing Spanish word, you type '0' (for 'FAKE').", (press the spacebar to continue),6966565729d87a03bc0a7361,Spanish,younger than 13,"no, only English or Spanish",no,2026-01-21_21h16.42.796,empathy_intonation_perc_control,2024.2.4,MacIntel,58.68544601,6966565729d87a03bc0a7361,69712dc693a3960bdb483245,6971885c656c3d4201538111,,,,,,,,,,,,,,,,,,,,,,,,,,,,,,273.61,276.965,0,1,1,1,1,,,,,,,,,,,,,,,,,,,,,,,,,,,,,,,,,,,,,,,,,,,,,,,,,
,,,,,,,"If you are sure that the word exists, even though you don’t know its exact meaning, you may still respond '1' (REAL). 
  
  But if you are not sure if it is an existing word, you should respond '0' (FAKE).
  
  Let's do a practice round...", (press the spacebar to continue),6966565729d87a03bc0a7361,Spanish,younger than 13,"no, only English or Spanish",no,2026-01-21_21h16.42.796,empathy_intonation_perc_control,2024.2.4,MacIntel,58.68544601,6966565729d87a03bc0a7361,69712dc693a3960bdb483245,6971885c656c3d4201538111,,,,,,,,,,,,,,,,,,,,,,,,,,,,,,276.968,286.028,0,2,2,2,1,,,,,,,,,,,,,,,,,,,,,,,,,,,,,,,,,,,,,,,,,,,,,,,,,
,,,,,,,,,6966565729d87a03bc0a7361,Spanish,younger than 13,"no, only English or Spanish",no,2026-01-21_21h16.42.796,empathy_intonation_perc_control,2024.2.4,MacIntel,58.68544601,6966565729d87a03bc0a7361,69712dc693a3960bdb483245,6971885c656c3d4201538111,,,,,,,,,,,,,0,,,,,,,,,,,,,,,,,,,,,,,,286.046,290.283,1,0,3.698,,290.284,291.279,0,0,0,0,1,0,depiste,REAL,FAKE,,,,,,,,,,,,,,,,,,,,,,,,,,,,,,,,
,,,,,,,,,6966565729d87a03bc0a7361,Spanish,younger than 13,"no, only English or Spanish",no,2026-01-21_21h16.42.796,empathy_intonation_perc_control,2024.2.4,MacIntel,58.68544601,6966565729d87a03bc0a7361,69712dc693a3960bdb483245,6971885c656c3d4201538111,,,,,,,,,,,,,1,,,,,,,,,,,,,,,,,,,,,,,,291.282,292.71,1,1,0.892,,292.711,293.707,0,1,1,1,1,0,sí,REAL,FAKE,,,,,,,,,,,,,,,,,,,,,,,,,,,,,,,,
,,,,,,,,,6966565729d87a03bc0a7361,Spanish,younger than 13,"no, only English or Spanish",no,2026-01-21_21h16.42.796,empathy_intonation_perc_control,2024.2.4,MacIntel,58.68544601,6966565729d87a03bc0a7361,69712dc693a3960bdb483245,6971885c656c3d4201538111,,,,,,,,,,,,,0,,,,,,,,,,,,,,,,,,,,,,,,293.708,295.87,0,1,1.638,,295.87,296.866,0,2,2,2,1,0,coné,REAL,FAKE,,,,,,,,,,,,,,,,,,,,,,,,,,,,,,,,
,,,,,,,,,6966565729d87a03bc0a7361,Spanish,younger than 13,"no, only English or Spanish",no,2026-01-21_21h16.42.796,empathy_intonation_perc_control,2024.2.4,MacIntel,58.68544601,6966565729d87a03bc0a7361,69712dc693a3960bdb483245,6971885c656c3d4201538111,,,,,,,,,,,,,0,,,,,,,,,,,,,,,,,,,,,,,,296.868,298.628,0,1,1.22,,298.628,299.626,0,3,3,3,1,0,calpar,REAL,FAKE,,,,,,,,,,,,,,,,,,,,,,,,,,,,,,,,
,,,,,,,,,6966565729d87a03bc0a7361,Spanish,younger than 13,"no, only English or Spanish",no,2026-01-21_21h16.42.796,empathy_intonation_perc_control,2024.2.4,MacIntel,58.68544601,6966565729d87a03bc0a7361,69712dc693a3960bdb483245,6971885c656c3d4201538111,,,,,,,,,,,,,0,,,,,,,,,,,,,,,,,,,,,,,,299.627,301.488,1,0,1.326,,301.488,302.484,0,4,4,4,1,0,joten,REAL,FAKE,,,,,,,,,,,,,,,,,,,,,,,,,,,,,,,,
,,,,,,,,,6966565729d87a03bc0a7361,Spanish,younger than 13,"no, only English or Spanish",no,2026-01-21_21h16.42.796,empathy_intonation_perc_control,2024.2.4,MacIntel,58.68544601,6966565729d87a03bc0a7361,69712dc693a3960bdb483245,6971885c656c3d4201538111,,,,,,,,,,,,,1,,,,,,,,,,,,,,,,,,,,,,,,302.487,304.879,1,1,1.857,,304.879,305.876,0,5,5,5,1,0,sacapuntas,REAL,FAKE,,,,,,,,,,,,,,,,,,,,,,,,,,,,,,,,
,,,,,,,,,6966565729d87a03bc0a7361,Spanish,younger than 13,"no, only English or Spanish",no,2026-01-21_21h16.42.796,empathy_intonation_perc_control,2024.2.4,MacIntel,58.68544601,6966565729d87a03bc0a7361,69712dc693a3960bdb483245,6971885c656c3d4201538111,,,,,,,,,,,,,0,,,,,,,,,,,,,,,,,,,,,,,,305.877,308.072,0,1,1.659,,308.072,309.068,0,6,6,6,1,0,priba,REAL,FAKE,,,,,,,,,,,,,,,,,,,,,,,,,,,,,,,,
,,,,,,,,,6966565729d87a03bc0a7361,Spanish,younger than 13,"no, only English or Spanish",no,2026-01-21_21h16.42.796,empathy_intonation_perc_control,2024.2.4,MacIntel,58.68544601,6966565729d87a03bc0a7361,69712dc693a3960bdb483245,6971885c656c3d4201538111,,,,,,,,,,,,,0,,,,,,,,,,,,,,,,,,,,,,,,309.07,311.529,0,1,1.917,,311.529,312.526,0,7,7,7,1,0,pelasula,REAL,FAKE,,,,,,,,,,,,,,,,,,,,,,,,,,,,,,,,
,,,,,,,,,6966565729d87a03bc0a7361,Spanish,younger than 13,"no, only English or Spanish",no,2026-01-21_21h16.42.796,empathy_intonation_perc_control,2024.2.4,MacIntel,58.68544601,6966565729d87a03bc0a7361,69712dc693a3960bdb483245,6971885c656c3d4201538111,,,,,,,,,,,,,1,,,,,,,,,,,,,,,,,,,,,,,,312.527,314.14,1,1,1.065,,314.141,315.136,0,8,8,8,1,0,bien,REAL,FAKE,,,,,,,,,,,,,,,,,,,,,,,,,,,,,,,,
,,,,,,,,,6966565729d87a03bc0a7361,Spanish,younger than 13,"no, only English or Spanish",no,2026-01-21_21h16.42.796,empathy_intonation_perc_control,2024.2.4,MacIntel,58.68544601,6966565729d87a03bc0a7361,69712dc693a3960bdb483245,6971885c656c3d4201538111,,,,,,,,,,,,,1,,,,,,,,,,,,,,,,,,,,,,,,315.14,316.433,1,1,0.762,,316.433,317.43,0,9,9,9,1,0,casa,REAL,FAKE,,,,,,,,,,,,,,,,,,,,,,,,,,,,,,,,
,,,,,,,,,6966565729d87a03bc0a7361,Spanish,younger than 13,"no, only English or Spanish",no,2026-01-21_21h16.42.796,empathy_intonation_perc_control,2024.2.4,MacIntel,58.68544601,6966565729d87a03bc0a7361,69712dc693a3960bdb483245,6971885c656c3d4201538111,,,,,,,,,,,,,0,,,,,,,,,,,,,,,,,,,,,,,,317.432,320.061,0,1,2.092,,320.061,321.055,0,10,10,10,1,0,lejo,REAL,FAKE,,,,,,,,,,,,,,,,,,,,,,,,,,,,,,,,
,,,,,,,,,6966565729d87a03bc0a7361,Spanish,younger than 13,"no, only English or Spanish",no,2026-01-21_21h16.42.796,empathy_intonation_perc_control,2024.2.4,MacIntel,58.68544601,6966565729d87a03bc0a7361,69712dc693a3960bdb483245,6971885c656c3d4201538111,,,,,,,,,,,,,0,,,,,,,,,,,,,,,,,,,,,,,,321.058,323.266,0,1,1.676,,323.266,324.264,0,11,11,11,1,0,pretantas,REAL,FAKE,,,,,,,,,,,,,,,,,,,,,,,,,,,,,,,,
,,,,,,,,,6966565729d87a03bc0a7361,Spanish,younger than 13,"no, only English or Spanish",no,2026-01-21_21h16.42.796,empathy_intonation_perc_control,2024.2.4,MacIntel,58.68544601,6966565729d87a03bc0a7361,69712dc693a3960bdb483245,6971885c656c3d4201538111,,,,,,,,,,,,,,,,,,,,,,,,,,,,,,,,,,,,,,,,,,,,,,,,,,,,,,324.264,325.546,,,,,,,,,,,,,,,,,,,,,,,,,,,,,,
,,,,,,,,,6966565729d87a03bc0a7361,Spanish,younger than 13,"no, only English or Spanish",no,2026-01-21_21h16.42.796,empathy_intonation_perc_control,2024.2.4,MacIntel,58.68544601,6966565729d87a03bc0a7361,69712dc693a3960bdb483245,6971885c656c3d4201538111,,,,,,,,,,,,,0,,,,,,,,,,,,,,,,,,,,,,,,,,,,,,,,,,,,,92,click the 0 key.,,,,,325.568,327.091,0,1,0.986,,0,0,0,91,1,REAL,FAKE,,,,,,,,,,,,,,,,,
,,,,,,,,,6966565729d87a03bc0a7361,Spanish,younger than 13,"no, only English or Spanish",no,2026-01-21_21h16.42.796,empathy_intonation_perc_control,2024.2.4,MacIntel,58.68544601,6966565729d87a03bc0a7361,69712dc693a3960bdb483245,6971885c656c3d4201538111,,,,,,,,,,,,,1,,,,,,,,,,,,,,,,,,,,,,,,,,,,,,,,,,,,,3,pulmones,,,,,327.092,329.168,0,0,1.542,,0,1,1,2,1,REAL,FAKE,,,,,,,,,,,,,,,,,
,,,,,,,,,6966565729d87a03bc0a7361,Spanish,younger than 13,"no, only English or Spanish",no,2026-01-21_21h16.42.796,empathy_intonation_perc_control,2024.2.4,MacIntel,58.68544601,6966565729d87a03bc0a7361,69712dc693a3960bdb483245,6971885c656c3d4201538111,,,,,,,,,,,,,0,,,,,,,,,,,,,,,,,,,,,,,,,,,,,,,,,,,,,30,alardio,,,,,329.169,331.462,0,1,1.751,,0,2,2,29,1,REAL,FAKE,,,,,,,,,,,,,,,,,
,,,,,,,,,6966565729d87a03bc0a7361,Spanish,younger than 13,"no, only English or Spanish",no,2026-01-21_21h16.42.796,empathy_intonation_perc_control,2024.2.4,MacIntel,58.68544601,6966565729d87a03bc0a7361,69712dc693a3960bdb483245,6971885c656c3d4201538111,,,,,,,,,,,,,1,,,,,,,,,,,,,,,,,,,,,,,,,,,,,,,,,,,,,11,cenefa,,,,,331.463,333.057,0,0,1.06,,0,3,3,10,1,REAL,FAKE,,,,,,,,,,,,,,,,,
,,,,,,,,,6966565729d87a03bc0a7361,Spanish,younger than 13,"no, only English or Spanish",no,2026-01-21_21h16.42.796,empathy_intonation_perc_control,2024.2.4,MacIntel,58.68544601,6966565729d87a03bc0a7361,69712dc693a3960bdb483245,6971885c656c3d4201538111,,,,,,,,,,,,,1,,,,,,,,,,,,,,,,,,,,,,,,,,,,,,,,,,,,,77,tiburón,,,,,333.059,337.047,0,0,3.447,,0,4,4,76,1,REAL,FAKE,,,,,,,,,,,,,,,,,
,,,,,,,,,6966565729d87a03bc0a7361,Spanish,younger than 13,"no, only English or Spanish",no,2026-01-21_21h16.42.796,empathy_intonation_perc_control,2024.2.4,MacIntel,58.68544601,6966565729d87a03bc0a7361,69712dc693a3960bdb483245,6971885c656c3d4201538111,,,,,,,,,,,,,1,,,,,,,,,,,,,,,,,,,,,,,,,,,,,,,,,,,,,78,frondoso,,,,,337.049,338.36,0,0,0.776,,0,5,5,77,1,REAL,FAKE,,,,,,,,,,,,,,,,,
,,,,,,,,,6966565729d87a03bc0a7361,Spanish,younger than 13,"no, only English or Spanish",no,2026-01-21_21h16.42.796,empathy_intonation_perc_control,2024.2.4,MacIntel,58.68544601,6966565729d87a03bc0a7361,69712dc693a3960bdb483245,6971885c656c3d4201538111,,,,,,,,,,,,,1,,,,,,,,,,,,,,,,,,,,,,,,,,,,,,,,,,,,,71,polvoriento,,,,,338.361,340.04,0,0,1.135,,0,6,6,70,1,REAL,FAKE,,,,,,,,,,,,,,,,,
,,,,,,,,,6966565729d87a03bc0a7361,Spanish,younger than 13,"no, only English or Spanish",no,2026-01-21_21h16.42.796,empathy_intonation_perc_control,2024.2.4,MacIntel,58.68544601,6966565729d87a03bc0a7361,69712dc693a3960bdb483245,6971885c656c3d4201538111,,,,,,,,,,,,,0,,,,,,,,,,,,,,,,,,,,,,,,,,,,,,,,,,,,,74,cintro,,,,,340.041,342.367,1,0,1.79,,0,7,7,73,1,REAL,FAKE,,,,,,,,,,,,,,,,,
,,,,,,,,,6966565729d87a03bc0a7361,Spanish,younger than 13,"no, only English or Spanish",no,2026-01-21_21h16.42.796,empathy_intonation_perc_control,2024.2.4,MacIntel,58.68544601,6966565729d87a03bc0a7361,69712dc693a3960bdb483245,6971885c656c3d4201538111,,,,,,,,,,,,,1,,,,,,,,,,,,,,,,,,,,,,,,,,,,,,,,,,,,,76,atar,,,,,342.369,344.332,1,1,1.432,,0,8,8,75,1,REAL,FAKE,,,,,,,,,,,,,,,,,
,,,,,,,,,6966565729d87a03bc0a7361,Spanish,younger than 13,"no, only English or Spanish",no,2026-01-21_21h16.42.796,empathy_intonation_perc_control,2024.2.4,MacIntel,58.68544601,6966565729d87a03bc0a7361,69712dc693a3960bdb483245,6971885c656c3d4201538111,,,,,,,,,,,,,1,,,,,,,,,,,,,,,,,,,,,,,,,,,,,,,,,,,,,56,musgo,,,,,344.338,345.926,0,0,1.056,,0,9,9,55,1,REAL,FAKE,,,,,,,,,,,,,,,,,
,,,,,,,,,6966565729d87a03bc0a7361,Spanish,younger than 13,"no, only English or Spanish",no,2026-01-21_21h16.42.796,empathy_intonation_perc_control,2024.2.4,MacIntel,58.68544601,6966565729d87a03bc0a7361,69712dc693a3960bdb483245,6971885c656c3d4201538111,,,,,,,,,,,,,1,,,,,,,,,,,,,,,,,,,,,,,,,,,,,,,,,,,,,43,canela,,,,,345.928,348.103,1,1,1.642,,0,10,10,42,1,REAL,FAKE,,,,,,,,,,,,,,,,,
,,,,,,,,,6966565729d87a03bc0a7361,Spanish,younger than 13,"no, only English or Spanish",no,2026-01-21_21h16.42.796,empathy_intonation_perc_control,2024.2.4,MacIntel,58.68544601,6966565729d87a03bc0a7361,69712dc693a3960bdb483245,6971885c656c3d4201538111,,,,,,,,,,,,,0,,,,,,,,,,,,,,,,,,,,,,,,,,,,,,,,,,,,,72,pemición,,,,,348.104,349.898,0,1,1.261,,0,11,11,71,1,REAL,FAKE,,,,,,,,,,,,,,,,,
,,,,,,,,,6966565729d87a03bc0a7361,Spanish,younger than 13,"no, only English or Spanish",no,2026-01-21_21h16.42.796,empathy_intonation_perc_control,2024.2.4,MacIntel,58.68544601,6966565729d87a03bc0a7361,69712dc693a3960bdb483245,6971885c656c3d4201538111,,,,,,,,,,,,,1,,,,,,,,,,,,,,,,,,,,,,,,,,,,,,,,,,,,,25,bisagra,,,,,349.901,351.411,0,0,0.976,,0,12,12,24,1,REAL,FAKE,,,,,,,,,,,,,,,,,
,,,,,,,,,6966565729d87a03bc0a7361,Spanish,younger than 13,"no, only English or Spanish",no,2026-01-21_21h16.42.796,empathy_intonation_perc_control,2024.2.4,MacIntel,58.68544601,6966565729d87a03bc0a7361,69712dc693a3960bdb483245,6971885c656c3d4201538111,,,,,,,,,,,,,0,,,,,,,,,,,,,,,,,,,,,,,,,,,,,,,,,,,,,79,tropaje,,,,,351.412,353.057,0,1,1.112,,0,13,13,78,1,REAL,FAKE,,,,,,,,,,,,,,,,,
,,,,,,,,,6966565729d87a03bc0a7361,Spanish,younger than 13,"no, only English or Spanish",no,2026-01-21_21h16.42.796,empathy_intonation_perc_control,2024.2.4,MacIntel,58.68544601,6966565729d87a03bc0a7361,69712dc693a3960bdb483245,6971885c656c3d4201538111,,,,,,,,,,,,,0,,,,,,,,,,,,,,,,,,,,,,,,,,,,,,,,,,,,,70,temblo,,,,,353.06,354.786,0,1,1.193,,0,14,14,69,1,REAL,FAKE,,,,,,,,,,,,,,,,,
,,,,,,,,,6966565729d87a03bc0a7361,Spanish,younger than 13,"no, only English or Spanish",no,2026-01-21_21h16.42.796,empathy_intonation_perc_control,2024.2.4,MacIntel,58.68544601,6966565729d87a03bc0a7361,69712dc693a3960bdb483245,6971885c656c3d4201538111,,,,,,,,,,,,,0,,,,,,,,,,,,,,,,,,,,,,,,,,,,,,,,,,,,,47,cartinar,,,,,354.787,356.332,0,1,1.011,,0,15,15,46,1,REAL,FAKE,,,,,,,,,,,,,,,,,
,,,,,,,,,6966565729d87a03bc0a7361,Spanish,younger than 13,"no, only English or Spanish",no,2026-01-21_21h16.42.796,empathy_intonation_perc_control,2024.2.4,MacIntel,58.68544601,6966565729d87a03bc0a7361,69712dc693a3960bdb483245,6971885c656c3d4201538111,,,,,,,,,,,,,1,,,,,,,,,,,,,,,,,,,,,,,,,,,,,,,,,,,,,45,jilguero,,,,,356.333,358.011,0,0,1.142,,0,16,16,44,1,REAL,FAKE,,,,,,,,,,,,,,,,,
,,,,,,,,,6966565729d87a03bc0a7361,Spanish,younger than 13,"no, only English or Spanish",no,2026-01-21_21h16.42.796,empathy_intonation_perc_control,2024.2.4,MacIntel,58.68544601,6966565729d87a03bc0a7361,69712dc693a3960bdb483245,6971885c656c3d4201538111,,,,,,,,,,,,,1,,,,,,,,,,,,,,,,,,,,,,,,,,,,,,,,,,,,,80,hormiga,,,,,358.013,360.988,1,1,2.44,,0,17,17,79,1,REAL,FAKE,,,,,,,,,,,,,,,,,
,,,,,,,,,6966565729d87a03bc0a7361,Spanish,younger than 13,"no, only English or Spanish",no,2026-01-21_21h16.42.796,empathy_intonation_perc_control,2024.2.4,MacIntel,58.68544601,6966565729d87a03bc0a7361,69712dc693a3960bdb483245,6971885c656c3d4201538111,,,,,,,,,,,,,1,,,,,,,,,,,,,,,,,,,,,,,,,,,,,,,,,,,,,24,látigo,,,,,360.99,363.165,0,0,1.64,,0,18,18,23,1,REAL,FAKE,,,,,,,,,,,,,,,,,
,,,,,,,,,6966565729d87a03bc0a7361,Spanish,younger than 13,"no, only English or Spanish",no,2026-01-21_21h16.42.796,empathy_intonation_perc_control,2024.2.4,MacIntel,58.68544601,6966565729d87a03bc0a7361,69712dc693a3960bdb483245,6971885c656c3d4201538111,,,,,,,,,,,,,0,,,,,,,,,,,,,,,,,,,,,,,,,,,,,,,,,,,,,18,arsa,,,,,363.167,364.961,0,1,1.258,,0,19,19,17,1,REAL,FAKE,,,,,,,,,,,,,,,,,
,,,,,,,,,6966565729d87a03bc0a7361,Spanish,younger than 13,"no, only English or Spanish",no,2026-01-21_21h16.42.796,empathy_intonation_perc_control,2024.2.4,MacIntel,58.68544601,6966565729d87a03bc0a7361,69712dc693a3960bdb483245,6971885c656c3d4201538111,,,,,,,,,,,,,0,,,,,,,,,,,,,,,,,,,,,,,,,,,,,,,,,,,,,63,esposante,,,,,364.963,367.055,0,1,1.551,,0,20,20,62,1,REAL,FAKE,,,,,,,,,,,,,,,,,
,,,,,,,,,6966565729d87a03bc0a7361,Spanish,younger than 13,"no, only English or Spanish",no,2026-01-21_21h16.42.796,empathy_intonation_perc_control,2024.2.4,MacIntel,58.68544601,6966565729d87a03bc0a7361,69712dc693a3960bdb483245,6971885c656c3d4201538111,,,,,,,,,,,,,1,,,,,,,,,,,,,,,,,,,,,,,,,,,,,,,,,,,,,86,barato,,,,,367.057,368.934,1,1,1.342,,0,21,21,85,1,REAL,FAKE,,,,,,,,,,,,,,,,,
,,,,,,,,,6966565729d87a03bc0a7361,Spanish,younger than 13,"no, only English or Spanish",no,2026-01-21_21h16.42.796,empathy_intonation_perc_control,2024.2.4,MacIntel,58.68544601,6966565729d87a03bc0a7361,69712dc693a3960bdb483245,6971885c656c3d4201538111,,,,,,,,,,,,,1,,,,,,,,,,,,,,,,,,,,,,,,,,,,,,,,,,,,,37,granuja,,,,,368.936,371.245,1,1,1.776,,0,22,22,36,1,REAL,FAKE,,,,,,,,,,,,,,,,,
,,,,,,,,,6966565729d87a03bc0a7361,Spanish,younger than 13,"no, only English or Spanish",no,2026-01-21_21h16.42.796,empathy_intonation_perc_control,2024.2.4,MacIntel,58.68544601,6966565729d87a03bc0a7361,69712dc693a3960bdb483245,6971885c656c3d4201538111,,,,,,,,,,,,,1,,,,,,,,,,,,,,,,,,,,,,,,,,,,,,,,,,,,,62,flaco,,,,,371.246,372.727,1,1,0.944,,0,23,23,61,1,REAL,FAKE,,,,,,,,,,,,,,,,,
,,,,,,,,,6966565729d87a03bc0a7361,Spanish,younger than 13,"no, only English or Spanish",no,2026-01-21_21h16.42.796,empathy_intonation_perc_control,2024.2.4,MacIntel,58.68544601,6966565729d87a03bc0a7361,69712dc693a3960bdb483245,6971885c656c3d4201538111,,,,,,,,,,,,,0,,,,,,,,,,,,,,,,,,,,,,,,,,,,,,,,,,,,,21,capillo,,,,,372.728,374.786,0,1,1.525,,0,24,24,20,1,REAL,FAKE,,,,,,,,,,,,,,,,,
,,,,,,,,,6966565729d87a03bc0a7361,Spanish,younger than 13,"no, only English or Spanish",no,2026-01-21_21h16.42.796,empathy_intonation_perc_control,2024.2.4,MacIntel,58.68544601,6966565729d87a03bc0a7361,69712dc693a3960bdb483245,6971885c656c3d4201538111,,,,,,,,,,,,,0,,,,,,,,,,,,,,,,,,,,,,,,,,,,,,,,,,,,,16,abracer,,,,,374.787,376.336,0,1,1.003,,0,25,25,15,1,REAL,FAKE,,,,,,,,,,,,,,,,,
,,,,,,,,,6966565729d87a03bc0a7361,Spanish,younger than 13,"no, only English or Spanish",no,2026-01-21_21h16.42.796,empathy_intonation_perc_control,2024.2.4,MacIntel,58.68544601,6966565729d87a03bc0a7361,69712dc693a3960bdb483245,6971885c656c3d4201538111,,,,,,,,,,,,,0,,,,,,,,,,,,,,,,,,,,,,,,,,,,,,,,,,,,,53,vegada,,,,,376.338,379.442,1,0,2.571,,0,26,26,52,1,REAL,FAKE,,,,,,,,,,,,,,,,,
,,,,,,,,,6966565729d87a03bc0a7361,Spanish,younger than 13,"no, only English or Spanish",no,2026-01-21_21h16.42.796,empathy_intonation_perc_control,2024.2.4,MacIntel,58.68544601,6966565729d87a03bc0a7361,69712dc693a3960bdb483245,6971885c656c3d4201538111,,,,,,,,,,,,,1,,,,,,,,,,,,,,,,,,,,,,,,,,,,,,,,,,,,,34,aviso,,,,,379.448,382.965,1,1,2.987,,0,27,27,33,1,REAL,FAKE,,,,,,,,,,,,,,,,,
,,,,,,,,,6966565729d87a03bc0a7361,Spanish,younger than 13,"no, only English or Spanish",no,2026-01-21_21h16.42.796,empathy_intonation_perc_control,2024.2.4,MacIntel,58.68544601,6966565729d87a03bc0a7361,69712dc693a3960bdb483245,6971885c656c3d4201538111,,,,,,,,,,,,,1,,,,,,,,,,,,,,,,,,,,,,,,,,,,,,,,,,,,,36,loro,,,,,382.966,385.328,0,0,1.825,,0,28,28,35,1,REAL,FAKE,,,,,,,,,,,,,,,,,
,,,,,,,,,6966565729d87a03bc0a7361,Spanish,younger than 13,"no, only English or Spanish",no,2026-01-21_21h16.42.796,empathy_intonation_perc_control,2024.2.4,MacIntel,58.68544601,6966565729d87a03bc0a7361,69712dc693a3960bdb483245,6971885c656c3d4201538111,,,,,,,,,,,,,1,,,,,,,,,,,,,,,,,,,,,,,,,,,,,,,,,,,,,90,clavel,,,,,385.33,386.806,0,0,0.944,,0,29,29,89,1,REAL,FAKE,,,,,,,,,,,,,,,,,
,,,,,,,,,6966565729d87a03bc0a7361,Spanish,younger than 13,"no, only English or Spanish",no,2026-01-21_21h16.42.796,empathy_intonation_perc_control,2024.2.4,MacIntel,58.68544601,6966565729d87a03bc0a7361,69712dc693a3960bdb483245,6971885c656c3d4201538111,,,,,,,,,,,,,1,,,,,,,,,,,,,,,,,,,,,,,,,,,,,,,,,,,,,49,ganar,,,,,386.808,388.17,0,0,0.826,,0,30,30,48,1,REAL,FAKE,,,,,,,,,,,,,,,,,
,,,,,,,,,6966565729d87a03bc0a7361,Spanish,younger than 13,"no, only English or Spanish",no,2026-01-21_21h16.42.796,empathy_intonation_perc_control,2024.2.4,MacIntel,58.68544601,6966565729d87a03bc0a7361,69712dc693a3960bdb483245,6971885c656c3d4201538111,,,,,,,,,,,,,1,,,,,,,,,,,,,,,,,,,,,,,,,,,,,,,,,,,,,46,martillo,,,,,388.171,389.65,0,0,0.946,,0,31,31,45,1,REAL,FAKE,,,,,,,,,,,,,,,,,
,,,,,,,,,6966565729d87a03bc0a7361,Spanish,younger than 13,"no, only English or Spanish",no,2026-01-21_21h16.42.796,empathy_intonation_perc_control,2024.2.4,MacIntel,58.68544601,6966565729d87a03bc0a7361,69712dc693a3960bdb483245,6971885c656c3d4201538111,,,,,,,,,,,,,1,,,,,,,,,,,,,,,,,,,,,,,,,,,,,,,,,,,,,6,tergiversar,,,,,389.651,393.006,0,0,2.821,,0,32,32,5,1,REAL,FAKE,,,,,,,,,,,,,,,,,
,,,,,,,,,6966565729d87a03bc0a7361,Spanish,younger than 13,"no, only English or Spanish",no,2026-01-21_21h16.42.796,empathy_intonation_perc_control,2024.2.4,MacIntel,58.68544601,6966565729d87a03bc0a7361,69712dc693a3960bdb483245,6971885c656c3d4201538111,,,,,,,,,,,,,0,,,,,,,,,,,,,,,,,,,,,,,,,,,,,,,,,,,,,4,batillón,,,,,393.007,395.518,0,1,1.975,,0,33,33,3,1,REAL,FAKE,,,,,,,,,,,,,,,,,
,,,,,,,,,6966565729d87a03bc0a7361,Spanish,younger than 13,"no, only English or Spanish",no,2026-01-21_21h16.42.796,empathy_intonation_perc_control,2024.2.4,MacIntel,58.68544601,6966565729d87a03bc0a7361,69712dc693a3960bdb483245,6971885c656c3d4201538111,,,,,,,,,,,,,0,,,,,,,,,,,,,,,,,,,,,,,,,,,,,,,,,,,,,17,floroso,,,,,395.519,396.919,0,1,0.869,,0,34,34,16,1,REAL,FAKE,,,,,,,,,,,,,,,,,
,,,,,,,,,6966565729d87a03bc0a7361,Spanish,younger than 13,"no, only English or Spanish",no,2026-01-21_21h16.42.796,empathy_intonation_perc_control,2024.2.4,MacIntel,58.68544601,6966565729d87a03bc0a7361,69712dc693a3960bdb483245,6971885c656c3d4201538111,,,,,,,,,,,,,0,,,,,,,,,,,,,,,,,,,,,,,,,,,,,,,,,,,,,23,lampera,,,,,396.922,399.891,1,0,2.443,,0,35,35,22,1,REAL,FAKE,,,,,,,,,,,,,,,,,
,,,,,,,,,6966565729d87a03bc0a7361,Spanish,younger than 13,"no, only English or Spanish",no,2026-01-21_21h16.42.796,empathy_intonation_perc_control,2024.2.4,MacIntel,58.68544601,6966565729d87a03bc0a7361,69712dc693a3960bdb483245,6971885c656c3d4201538111,,,,,,,,,,,,,1,,,,,,,,,,,,,,,,,,,,,,,,,,,,,,,,,,,,,64,orgulloso,,,,,399.892,401.47,0,0,1.048,,0,36,36,63,1,REAL,FAKE,,,,,,,,,,,,,,,,,
,,,,,,,,,6966565729d87a03bc0a7361,Spanish,younger than 13,"no, only English or Spanish",no,2026-01-21_21h16.42.796,empathy_intonation_perc_control,2024.2.4,MacIntel,58.68544601,6966565729d87a03bc0a7361,69712dc693a3960bdb483245,6971885c656c3d4201538111,,,,,,,,,,,,,0,,,,,,,,,,,,,,,,,,,,,,,,,,,,,,,,,,,,,27,acutación,,,,,401.472,402.898,0,1,0.9,,0,37,37,26,1,REAL,FAKE,,,,,,,,,,,,,,,,,
,,,,,,,,,6966565729d87a03bc0a7361,Spanish,younger than 13,"no, only English or Spanish",no,2026-01-21_21h16.42.796,empathy_intonation_perc_control,2024.2.4,MacIntel,58.68544601,6966565729d87a03bc0a7361,69712dc693a3960bdb483245,6971885c656c3d4201538111,,,,,,,,,,,,,1,,,,,,,,,,,,,,,,,,,,,,,,,,,,,,,,,,,,,89,prisa,,,,,402.9,406.673,0,0,3.243,,0,38,38,88,1,REAL,FAKE,,,,,,,,,,,,,,,,,
,,,,,,,,,6966565729d87a03bc0a7361,Spanish,younger than 13,"no, only English or Spanish",no,2026-01-21_21h16.42.796,empathy_intonation_perc_control,2024.2.4,MacIntel,58.68544601,6966565729d87a03bc0a7361,69712dc693a3960bdb483245,6971885c656c3d4201538111,,,,,,,,,,,,,1,,,,,,,,,,,,,,,,,,,,,,,,,,,,,,,,,,,,,48,ladrón,,,,,406.674,411.295,0,0,4.075,,0,39,39,47,1,REAL,FAKE,,,,,,,,,,,,,,,,,
,,,,,,,,,6966565729d87a03bc0a7361,Spanish,younger than 13,"no, only English or Spanish",no,2026-01-21_21h16.42.796,empathy_intonation_perc_control,2024.2.4,MacIntel,58.68544601,6966565729d87a03bc0a7361,69712dc693a3960bdb483245,6971885c656c3d4201538111,,,,,,,,,,,,,1,,,,,,,,,,,,,,,,,,,,,,,,,,,,,,,,,,,,,88,acantilado,,,,,411.3,413.239,0,0,1.407,,0,40,40,87,1,REAL,FAKE,,,,,,,,,,,,,,,,,
,,,,,,,,,6966565729d87a03bc0a7361,Spanish,younger than 13,"no, only English or Spanish",no,2026-01-21_21h16.42.796,empathy_intonation_perc_control,2024.2.4,MacIntel,58.68544601,6966565729d87a03bc0a7361,69712dc693a3960bdb483245,6971885c656c3d4201538111,,,,,,,,,,,,,1,,,,,,,,,,,,,,,,,,,,,,,,,,,,,,,,,,,,,14,yunque,,,,,413.241,415.601,0,0,1.821,,0,41,41,13,1,REAL,FAKE,,,,,,,,,,,,,,,,,
,,,,,,,,,6966565729d87a03bc0a7361,Spanish,younger than 13,"no, only English or Spanish",no,2026-01-21_21h16.42.796,empathy_intonation_perc_control,2024.2.4,MacIntel,58.68544601,6966565729d87a03bc0a7361,69712dc693a3960bdb483245,6971885c656c3d4201538111,,,,,,,,,,,,,1,,,,,,,,,,,,,,,,,,,,,,,,,,,,,,,,,,,,,5,zapato,,,,,415.603,417.063,1,1,0.928,,0,42,42,4,1,REAL,FAKE,,,,,,,,,,,,,,,,,
,,,,,,,,,6966565729d87a03bc0a7361,Spanish,younger than 13,"no, only English or Spanish",no,2026-01-21_21h16.42.796,empathy_intonation_perc_control,2024.2.4,MacIntel,58.68544601,6966565729d87a03bc0a7361,69712dc693a3960bdb483245,6971885c656c3d4201538111,,,,,,,,,,,,,0,,,,,,,,,,,,,,,,,,,,,,,,,,,,,,,,,,,,,42,cadallo,,,,,417.065,418.577,0,1,0.979,,0,43,43,41,1,REAL,FAKE,,,,,,,,,,,,,,,,,
,,,,,,,,,6966565729d87a03bc0a7361,Spanish,younger than 13,"no, only English or Spanish",no,2026-01-21_21h16.42.796,empathy_intonation_perc_control,2024.2.4,MacIntel,58.68544601,6966565729d87a03bc0a7361,69712dc693a3960bdb483245,6971885c656c3d4201538111,,,,,,,,,,,,,0,,,,,,,,,,,,,,,,,,,,,,,,,,,,,,,,,,,,,87,grodo,,,,,418.579,420.455,0,1,1.343,,0,44,44,86,1,REAL,FAKE,,,,,,,,,,,,,,,,,
,,,,,,,,,6966565729d87a03bc0a7361,Spanish,younger than 13,"no, only English or Spanish",no,2026-01-21_21h16.42.796,empathy_intonation_perc_control,2024.2.4,MacIntel,58.68544601,6966565729d87a03bc0a7361,69712dc693a3960bdb483245,6971885c656c3d4201538111,,,,,,,,,,,,,1,,,,,,,,,,,,,,,,,,,,,,,,,,,,,,,,,,,,,52,camisa,,,,,420.456,422.467,1,1,1.479,,0,45,45,51,1,REAL,FAKE,,,,,,,,,,,,,,,,,
,,,,,,,,,6966565729d87a03bc0a7361,Spanish,younger than 13,"no, only English or Spanish",no,2026-01-21_21h16.42.796,empathy_intonation_perc_control,2024.2.4,MacIntel,58.68544601,6966565729d87a03bc0a7361,69712dc693a3960bdb483245,6971885c656c3d4201538111,,,,,,,,,,,,,1,,,,,,,,,,,,,,,,,,,,,,,,,,,,,,,,,,,,,20,ávido,,,,,422.468,424.095,0,0,1.084,,0,46,46,19,1,REAL,FAKE,,,,,,,,,,,,,,,,,
,,,,,,,,,6966565729d87a03bc0a7361,Spanish,younger than 13,"no, only English or Spanish",no,2026-01-21_21h16.42.796,empathy_intonation_perc_control,2024.2.4,MacIntel,58.68544601,6966565729d87a03bc0a7361,69712dc693a3960bdb483245,6971885c656c3d4201538111,,,,,,,,,,,,,1,,,,,,,,,,,,,,,,,,,,,,,,,,,,,,,,,,,,,60,matar,,,,,424.096,426.308,0,0,1.679,,0,47,47,59,1,REAL,FAKE,,,,,,,,,,,,,,,,,
,,,,,,,,,6966565729d87a03bc0a7361,Spanish,younger than 13,"no, only English or Spanish",no,2026-01-21_21h16.42.796,empathy_intonation_perc_control,2024.2.4,MacIntel,58.68544601,6966565729d87a03bc0a7361,69712dc693a3960bdb483245,6971885c656c3d4201538111,,,,,,,,,,,,,1,,,,,,,,,,,,,,,,,,,,,,,,,,,,,,,,,,,,,59,besar,,,,,426.31,429.022,0,0,2.167,,0,48,48,58,1,REAL,FAKE,,,,,,,,,,,,,,,,,
,,,,,,,,,6966565729d87a03bc0a7361,Spanish,younger than 13,"no, only English or Spanish",no,2026-01-21_21h16.42.796,empathy_intonation_perc_control,2024.2.4,MacIntel,58.68544601,6966565729d87a03bc0a7361,69712dc693a3960bdb483245,6971885c656c3d4201538111,,,,,,,,,,,,,1,,,,,,,,,,,,,,,,,,,,,,,,,,,,,,,,,,,,,91,click the 1 key.,,,,,429.023,430.695,1,1,1.136,,0,49,49,90,1,REAL,FAKE,,,,,,,,,,,,,,,,,
,,,,,,,,,6966565729d87a03bc0a7361,Spanish,younger than 13,"no, only English or Spanish",no,2026-01-21_21h16.42.796,empathy_intonation_perc_control,2024.2.4,MacIntel,58.68544601,6966565729d87a03bc0a7361,69712dc693a3960bdb483245,6971885c656c3d4201538111,,,,,,,,,,,,,1,,,,,,,,,,,,,,,,,,,,,,,,,,,,,,,,,,,,,13,helar,,,,,430.697,434.071,1,1,2.839,,0,50,50,12,1,REAL,FAKE,,,,,,,,,,,,,,,,,
,,,,,,,,,6966565729d87a03bc0a7361,Spanish,younger than 13,"no, only English or Spanish",no,2026-01-21_21h16.42.796,empathy_intonation_perc_control,2024.2.4,MacIntel,58.68544601,6966565729d87a03bc0a7361,69712dc693a3960bdb483245,6971885c656c3d4201538111,,,,,,,,,,,,,1,,,,,,,,,,,,,,,,,,,,,,,,,,,,,,,,,,,,,26,secuestro,,,,,434.072,436.713,1,1,2.106,,0,51,51,25,1,REAL,FAKE,,,,,,,,,,,,,,,,,
,,,,,,,,,6966565729d87a03bc0a7361,Spanish,younger than 13,"no, only English or Spanish",no,2026-01-21_21h16.42.796,empathy_intonation_perc_control,2024.2.4,MacIntel,58.68544601,6966565729d87a03bc0a7361,69712dc693a3960bdb483245,6971885c656c3d4201538111,,,,,,,,,,,,,0,,,,,,,,,,,,,,,,,,,,,,,,,,,,,,,,,,,,,19,brecedad,,,,,436.714,438.477,0,1,1.228,,0,52,52,18,1,REAL,FAKE,,,,,,,,,,,,,,,,,
,,,,,,,,,6966565729d87a03bc0a7361,Spanish,younger than 13,"no, only English or Spanish",no,2026-01-21_21h16.42.796,empathy_intonation_perc_control,2024.2.4,MacIntel,58.68544601,6966565729d87a03bc0a7361,69712dc693a3960bdb483245,6971885c656c3d4201538111,,,,,,,,,,,,,1,,,,,,,,,,,,,,,,,,,,,,,,,,,,,,,,,,,,,67,cabello,,,,,438.479,439.988,1,1,0.976,,0,53,53,66,1,REAL,FAKE,,,,,,,,,,,,,,,,,
,,,,,,,,,6966565729d87a03bc0a7361,Spanish,younger than 13,"no, only English or Spanish",no,2026-01-21_21h16.42.796,empathy_intonation_perc_control,2024.2.4,MacIntel,58.68544601,6966565729d87a03bc0a7361,69712dc693a3960bdb483245,6971885c656c3d4201538111,,,,,,,,,,,,,0,,,,,,,,,,,,,,,,,,,,,,,,,,,,,,,,,,,,,1,terzo,,,,,439.99,442.849,0,1,2.315,,0,54,54,0,1,REAL,FAKE,,,,,,,,,,,,,,,,,
,,,,,,,,,6966565729d87a03bc0a7361,Spanish,younger than 13,"no, only English or Spanish",no,2026-01-21_21h16.42.796,empathy_intonation_perc_control,2024.2.4,MacIntel,58.68544601,6966565729d87a03bc0a7361,69712dc693a3960bdb483245,6971885c656c3d4201538111,,,,,,,,,,,,,0,,,,,,,,,,,,,,,,,,,,,,,,,,,,,,,,,,,,,35,rompido,,,,,442.853,444.362,0,1,0.974,,0,55,55,34,1,REAL,FAKE,,,,,,,,,,,,,,,,,
,,,,,,,,,6966565729d87a03bc0a7361,Spanish,younger than 13,"no, only English or Spanish",no,2026-01-21_21h16.42.796,empathy_intonation_perc_control,2024.2.4,MacIntel,58.68544601,6966565729d87a03bc0a7361,69712dc693a3960bdb483245,6971885c656c3d4201538111,,,,,,,,,,,,,0,,,,,,,,,,,,,,,,,,,,,,,,,,,,,,,,,,,,,33,pauca,,,,,444.363,445.609,0,1,0.711,,0,56,56,32,1,REAL,FAKE,,,,,,,,,,,,,,,,,
,,,,,,,,,6966565729d87a03bc0a7361,Spanish,younger than 13,"no, only English or Spanish",no,2026-01-21_21h16.42.796,empathy_intonation_perc_control,2024.2.4,MacIntel,58.68544601,6966565729d87a03bc0a7361,69712dc693a3960bdb483245,6971885c656c3d4201538111,,,,,,,,,,,,,1,,,,,,,,,,,,,,,,,,,,,,,,,,,,,,,,,,,,,57,tacaño,,,,,445.61,446.971,0,0,0.826,,0,57,57,56,1,REAL,FAKE,,,,,,,,,,,,,,,,,
,,,,,,,,,6966565729d87a03bc0a7361,Spanish,younger than 13,"no, only English or Spanish",no,2026-01-21_21h16.42.796,empathy_intonation_perc_control,2024.2.4,MacIntel,58.68544601,6966565729d87a03bc0a7361,69712dc693a3960bdb483245,6971885c656c3d4201538111,,,,,,,,,,,,,0,,,,,,,,,,,,,,,,,,,,,,,,,,,,,,,,,,,,,50,flamida,,,,,446.973,452.242,0,1,4.736,,0,58,58,49,1,REAL,FAKE,,,,,,,,,,,,,,,,,
,,,,,,,,,6966565729d87a03bc0a7361,Spanish,younger than 13,"no, only English or Spanish",no,2026-01-21_21h16.42.796,empathy_intonation_perc_control,2024.2.4,MacIntel,58.68544601,6966565729d87a03bc0a7361,69712dc693a3960bdb483245,6971885c656c3d4201538111,,,,,,,,,,,,,1,,,,,,,,,,,,,,,,,,,,,,,,,,,,,,,,,,,,,28,merodear,,,,,452.243,453.72,0,0,0.945,,0,59,59,27,1,REAL,FAKE,,,,,,,,,,,,,,,,,
,,,,,,,,,6966565729d87a03bc0a7361,Spanish,younger than 13,"no, only English or Spanish",no,2026-01-21_21h16.42.796,empathy_intonation_perc_control,2024.2.4,MacIntel,58.68544601,6966565729d87a03bc0a7361,69712dc693a3960bdb483245,6971885c656c3d4201538111,,,,,,,,,,,,,1,,,,,,,,,,,,,,,,,,,,,,,,,,,,,,,,,,,,,54,fomentar,,,,,453.723,457.029,1,1,2.771,,0,60,60,53,1,REAL,FAKE,,,,,,,,,,,,,,,,,
,,,,,,,,,6966565729d87a03bc0a7361,Spanish,younger than 13,"no, only English or Spanish",no,2026-01-21_21h16.42.796,empathy_intonation_perc_control,2024.2.4,MacIntel,58.68544601,6966565729d87a03bc0a7361,69712dc693a3960bdb483245,6971885c656c3d4201538111,,,,,,,,,,,,,1,,,,,,,,,,,,,,,,,,,,,,,,,,,,,,,,,,,,,69,engatusar,,,,,457.03,458.359,0,0,0.791,,0,61,61,68,1,REAL,FAKE,,,,,,,,,,,,,,,,,
,,,,,,,,,6966565729d87a03bc0a7361,Spanish,younger than 13,"no, only English or Spanish",no,2026-01-21_21h16.42.796,empathy_intonation_perc_control,2024.2.4,MacIntel,58.68544601,6966565729d87a03bc0a7361,69712dc693a3960bdb483245,6971885c656c3d4201538111,,,,,,,,,,,,,1,,,,,,,,,,,,,,,,,,,,,,,,,,,,,,,,,,,,,15,regar,,,,,458.361,464.644,1,1,5.742,,0,62,62,14,1,REAL,FAKE,,,,,,,,,,,,,,,,,
,,,,,,,,,6966565729d87a03bc0a7361,Spanish,younger than 13,"no, only English or Spanish",no,2026-01-21_21h16.42.796,empathy_intonation_perc_control,2024.2.4,MacIntel,58.68544601,6966565729d87a03bc0a7361,69712dc693a3960bdb483245,6971885c656c3d4201538111,,,,,,,,,,,,,1,,,,,,,,,,,,,,,,,,,,,,,,,,,,,,,,,,,,,61,seda,,,,,464.645,466.322,0,0,1.142,,0,63,63,60,1,REAL,FAKE,,,,,,,,,,,,,,,,,
,,,,,,,,,6966565729d87a03bc0a7361,Spanish,younger than 13,"no, only English or Spanish",no,2026-01-21_21h16.42.796,empathy_intonation_perc_control,2024.2.4,MacIntel,58.68544601,6966565729d87a03bc0a7361,69712dc693a3960bdb483245,6971885c656c3d4201538111,,,,,,,,,,,,,1,,,,,,,,,,,,,,,,,,,,,,,,,,,,,,,,,,,,,44,cuchara,,,,,466.323,467.986,1,1,1.141,,0,64,64,43,1,REAL,FAKE,,,,,,,,,,,,,,,,,
,,,,,,,,,6966565729d87a03bc0a7361,Spanish,younger than 13,"no, only English or Spanish",no,2026-01-21_21h16.42.796,empathy_intonation_perc_control,2024.2.4,MacIntel,58.68544601,6966565729d87a03bc0a7361,69712dc693a3960bdb483245,6971885c656c3d4201538111,,,,,,,,,,,,,0,,,,,,,,,,,,,,,,,,,,,,,,,,,,,,,,,,,,,84,escuto,,,,,467.987,473.839,0,1,5.318,,0,65,65,83,1,REAL,FAKE,,,,,,,,,,,,,,,,,
,,,,,,,,,6966565729d87a03bc0a7361,Spanish,younger than 13,"no, only English or Spanish",no,2026-01-21_21h16.42.796,empathy_intonation_perc_control,2024.2.4,MacIntel,58.68544601,6966565729d87a03bc0a7361,69712dc693a3960bdb483245,6971885c656c3d4201538111,,,,,,,,,,,,,0,,,,,,,,,,,,,,,,,,,,,,,,,,,,,,,,,,,,,82,empirador,,,,,473.844,476.497,1,0,2.116,,0,66,66,81,1,REAL,FAKE,,,,,,,,,,,,,,,,,
,,,,,,,,,6966565729d87a03bc0a7361,Spanish,younger than 13,"no, only English or Spanish",no,2026-01-21_21h16.42.796,empathy_intonation_perc_control,2024.2.4,MacIntel,58.68544601,6966565729d87a03bc0a7361,69712dc693a3960bdb483245,6971885c656c3d4201538111,,,,,,,,,,,,,1,,,,,,,,,,,,,,,,,,,,,,,,,,,,,,,,,,,,,41,rebuscar,,,,,476.498,478.592,0,0,1.571,,0,67,67,40,1,REAL,FAKE,,,,,,,,,,,,,,,,,
,,,,,,,,,6966565729d87a03bc0a7361,Spanish,younger than 13,"no, only English or Spanish",no,2026-01-21_21h16.42.796,empathy_intonation_perc_control,2024.2.4,MacIntel,58.68544601,6966565729d87a03bc0a7361,69712dc693a3960bdb483245,6971885c656c3d4201538111,,,,,,,,,,,,,1,,,,,,,,,,,,,,,,,,,,,,,,,,,,,,,,,,,,,81,pozo,,,,,478.594,480.205,0,0,1.053,,0,68,68,80,1,REAL,FAKE,,,,,,,,,,,,,,,,,
,,,,,,,,,6966565729d87a03bc0a7361,Spanish,younger than 13,"no, only English or Spanish",no,2026-01-21_21h16.42.796,empathy_intonation_perc_control,2024.2.4,MacIntel,58.68544601,6966565729d87a03bc0a7361,69712dc693a3960bdb483245,6971885c656c3d4201538111,,,,,,,,,,,,,1,,,,,,,,,,,,,,,,,,,,,,,,,,,,,,,,,,,,,73,hervidor,,,,,480.206,488.101,0,0,7.357,,0,69,69,72,1,REAL,FAKE,,,,,,,,,,,,,,,,,
,,,,,,,,,6966565729d87a03bc0a7361,Spanish,younger than 13,"no, only English or Spanish",no,2026-01-21_21h16.42.796,empathy_intonation_perc_control,2024.2.4,MacIntel,58.68544601,6966565729d87a03bc0a7361,69712dc693a3960bdb483245,6971885c656c3d4201538111,,,,,,,,,,,,,0,,,,,,,,,,,,,,,,,,,,,,,,,,,,,,,,,,,,,8,cadeña,,,,,488.102,489.581,0,1,0.935,,0,70,70,7,1,REAL,FAKE,,,,,,,,,,,,,,,,,
,,,,,,,,,6966565729d87a03bc0a7361,Spanish,younger than 13,"no, only English or Spanish",no,2026-01-21_21h16.42.796,empathy_intonation_perc_control,2024.2.4,MacIntel,58.68544601,6966565729d87a03bc0a7361,69712dc693a3960bdb483245,6971885c656c3d4201538111,,,,,,,,,,,,,1,,,,,,,,,,,,,,,,,,,,,,,,,,,,,,,,,,,,,85,laúd,,,,,489.582,490.795,0,0,0.676,,0,71,71,84,1,REAL,FAKE,,,,,,,,,,,,,,,,,
,,,,,,,,,6966565729d87a03bc0a7361,Spanish,younger than 13,"no, only English or Spanish",no,2026-01-21_21h16.42.796,empathy_intonation_perc_control,2024.2.4,MacIntel,58.68544601,6966565729d87a03bc0a7361,69712dc693a3960bdb483245,6971885c656c3d4201538111,,,,,,,,,,,,,0,,,,,,,,,,,,,,,,,,,,,,,,,,,,,,,,,,,,,29,decar,,,,,490.796,492.091,0,1,0.76,,0,72,72,28,1,REAL,FAKE,,,,,,,,,,,,,,,,,
,,,,,,,,,6966565729d87a03bc0a7361,Spanish,younger than 13,"no, only English or Spanish",no,2026-01-21_21h16.42.796,empathy_intonation_perc_control,2024.2.4,MacIntel,58.68544601,6966565729d87a03bc0a7361,69712dc693a3960bdb483245,6971885c656c3d4201538111,,,,,,,,,,,,,1,,,,,,,,,,,,,,,,,,,,,,,,,,,,,,,,,,,,,38,estornudar,,,,,492.092,494.102,0,0,1.476,,0,73,73,37,1,REAL,FAKE,,,,,,,,,,,,,,,,,
,,,,,,,,,6966565729d87a03bc0a7361,Spanish,younger than 13,"no, only English or Spanish",no,2026-01-21_21h16.42.796,empathy_intonation_perc_control,2024.2.4,MacIntel,58.68544601,6966565729d87a03bc0a7361,69712dc693a3960bdb483245,6971885c656c3d4201538111,,,,,,,,,,,,,0,,,,,,,,,,,,,,,,,,,,,,,,,,,,,,,,,,,,,66,hacido,,,,,494.105,495.516,0,1,0.877,,0,74,74,65,1,REAL,FAKE,,,,,,,,,,,,,,,,,
,,,,,,,,,6966565729d87a03bc0a7361,Spanish,younger than 13,"no, only English or Spanish",no,2026-01-21_21h16.42.796,empathy_intonation_perc_control,2024.2.4,MacIntel,58.68544601,6966565729d87a03bc0a7361,69712dc693a3960bdb483245,6971885c656c3d4201538111,,,,,,,,,,,,,1,,,,,,,,,,,,,,,,,,,,,,,,,,,,,,,,,,,,,55,nevar,,,,,495.517,496.845,0,0,0.81,,0,75,75,54,1,REAL,FAKE,,,,,,,,,,,,,,,,,
,,,,,,,,,6966565729d87a03bc0a7361,Spanish,younger than 13,"no, only English or Spanish",no,2026-01-21_21h16.42.796,empathy_intonation_perc_control,2024.2.4,MacIntel,58.68544601,6966565729d87a03bc0a7361,69712dc693a3960bdb483245,6971885c656c3d4201538111,,,,,,,,,,,,,1,,,,,,,,,,,,,,,,,,,,,,,,,,,,,,,,,,,,,31,pandilla,,,,,496.848,498.193,0,0,0.809,,0,76,76,30,1,REAL,FAKE,,,,,,,,,,,,,,,,,
,,,,,,,,,6966565729d87a03bc0a7361,Spanish,younger than 13,"no, only English or Spanish",no,2026-01-21_21h16.42.796,empathy_intonation_perc_control,2024.2.4,MacIntel,58.68544601,6966565729d87a03bc0a7361,69712dc693a3960bdb483245,6971885c656c3d4201538111,,,,,,,,,,,,,1,,,,,,,,,,,,,,,,,,,,,,,,,,,,,,,,,,,,,9,hacha,,,,,498.194,502.399,1,1,3.669,,0,77,77,8,1,REAL,FAKE,,,,,,,,,,,,,,,,,
,,,,,,,,,6966565729d87a03bc0a7361,Spanish,younger than 13,"no, only English or Spanish",no,2026-01-21_21h16.42.796,empathy_intonation_perc_control,2024.2.4,MacIntel,58.68544601,6966565729d87a03bc0a7361,69712dc693a3960bdb483245,6971885c656c3d4201538111,,,,,,,,,,,,,0,,,,,,,,,,,,,,,,,,,,,,,,,,,,,,,,,,,,,32,fatacidad,,,,,502.4,503.728,0,1,0.794,,0,78,78,31,1,REAL,FAKE,,,,,,,,,,,,,,,,,
,,,,,,,,,6966565729d87a03bc0a7361,Spanish,younger than 13,"no, only English or Spanish",no,2026-01-21_21h16.42.796,empathy_intonation_perc_control,2024.2.4,MacIntel,58.68544601,6966565729d87a03bc0a7361,69712dc693a3960bdb483245,6971885c656c3d4201538111,,,,,,,,,,,,,1,,,,,,,,,,,,,,,,,,,,,,,,,,,,,,,,,,,,,40,alfombra,,,,,503.73,507.353,0,0,3.09,,0,79,79,39,1,REAL,FAKE,,,,,,,,,,,,,,,,,
,,,,,,,,,6966565729d87a03bc0a7361,Spanish,younger than 13,"no, only English or Spanish",no,2026-01-21_21h16.42.796,empathy_intonation_perc_control,2024.2.4,MacIntel,58.68544601,6966565729d87a03bc0a7361,69712dc693a3960bdb483245,6971885c656c3d4201538111,,,,,,,,,,,,,1,,,,,,,,,,,,,,,,,,,,,,,,,,,,,,,,,,,,,68,alegre,,,,,507.359,513.304,1,1,5.414,,0,80,80,67,1,REAL,FAKE,,,,,,,,,,,,,,,,,
,,,,,,,,,6966565729d87a03bc0a7361,Spanish,younger than 13,"no, only English or Spanish",no,2026-01-21_21h16.42.796,empathy_intonation_perc_control,2024.2.4,MacIntel,58.68544601,6966565729d87a03bc0a7361,69712dc693a3960bdb483245,6971885c656c3d4201538111,,,,,,,,,,,,,1,,,,,,,,,,,,,,,,,,,,,,,,,,,,,,,,,,,,,7,pésimo,,,,,513.307,515.732,0,0,1.885,,0,81,81,6,1,REAL,FAKE,,,,,,,,,,,,,,,,,
,,,,,,,,,6966565729d87a03bc0a7361,Spanish,younger than 13,"no, only English or Spanish",no,2026-01-21_21h16.42.796,empathy_intonation_perc_control,2024.2.4,MacIntel,58.68544601,6966565729d87a03bc0a7361,69712dc693a3960bdb483245,6971885c656c3d4201538111,,,,,,,,,,,,,0,,,,,,,,,,,,,,,,,,,,,,,,,,,,,,,,,,,,,58,plaudir,,,,,515.734,517.344,0,1,1.075,,0,82,82,57,1,REAL,FAKE,,,,,,,,,,,,,,,,,
,,,,,,,,,6966565729d87a03bc0a7361,Spanish,younger than 13,"no, only English or Spanish",no,2026-01-21_21h16.42.796,empathy_intonation_perc_control,2024.2.4,MacIntel,58.68544601,6966565729d87a03bc0a7361,69712dc693a3960bdb483245,6971885c656c3d4201538111,,,,,,,,,,,,,1,,,,,,,,,,,,,,,,,,,,,,,,,,,,,,,,,,,,,65,bizcocho,,,,,517.346,518.757,0,0,0.874,,0,83,83,64,1,REAL,FAKE,,,,,,,,,,,,,,,,,
,,,,,,,,,6966565729d87a03bc0a7361,Spanish,younger than 13,"no, only English or Spanish",no,2026-01-21_21h16.42.796,empathy_intonation_perc_control,2024.2.4,MacIntel,58.68544601,6966565729d87a03bc0a7361,69712dc693a3960bdb483245,6971885c656c3d4201538111,,,,,,,,,,,,,1,,,,,,,,,,,,,,,,,,,,,,,,,,,,,,,,,,,,,2,pellizcar,,,,,518.759,520.21,0,0,0.914,,0,84,84,1,1,REAL,FAKE,,,,,,,,,,,,,,,,,
,,,,,,,,,6966565729d87a03bc0a7361,Spanish,younger than 13,"no, only English or Spanish",no,2026-01-21_21h16.42.796,empathy_intonation_perc_control,2024.2.4,MacIntel,58.68544601,6966565729d87a03bc0a7361,69712dc693a3960bdb483245,6971885c656c3d4201538111,,,,,,,,,,,,,1,,,,,,,,,,,,,,,,,,,,,,,,,,,,,,,,,,,,,22,lacayo,,,,,520.212,522.035,0,0,1.293,,0,85,85,21,1,REAL,FAKE,,,,,,,,,,,,,,,,,
,,,,,,,,,6966565729d87a03bc0a7361,Spanish,younger than 13,"no, only English or Spanish",no,2026-01-21_21h16.42.796,empathy_intonation_perc_control,2024.2.4,MacIntel,58.68544601,6966565729d87a03bc0a7361,69712dc693a3960bdb483245,6971885c656c3d4201538111,,,,,,,,,,,,,1,,,,,,,,,,,,,,,,,,,,,,,,,,,,,,,,,,,,,51,candado,,,,,522.036,523.25,0,0,0.678,,0,86,86,50,1,REAL,FAKE,,,,,,,,,,,,,,,,,
,,,,,,,,,6966565729d87a03bc0a7361,Spanish,younger than 13,"no, only English or Spanish",no,2026-01-21_21h16.42.796,empathy_intonation_perc_control,2024.2.4,MacIntel,58.68544601,6966565729d87a03bc0a7361,69712dc693a3960bdb483245,6971885c656c3d4201538111,,,,,,,,,,,,,1,,,,,,,,,,,,,,,,,,,,,,,,,,,,,,,,,,,,,83,guante,,,,,523.25,524.527,0,0,0.746,,0,87,87,82,1,REAL,FAKE,,,,,,,,,,,,,,,,,
,,,,,,,,,6966565729d87a03bc0a7361,Spanish,younger than 13,"no, only English or Spanish",no,2026-01-21_21h16.42.796,empathy_intonation_perc_control,2024.2.4,MacIntel,58.68544601,6966565729d87a03bc0a7361,69712dc693a3960bdb483245,6971885c656c3d4201538111,,,,,,,,,,,,,0,,,,,,,,,,,,,,,,,,,,,,,,,,,,,,,,,,,,,10,antar,,,,,524.529,526.272,0,1,1.209,,0,88,88,9,1,REAL,FAKE,,,,,,,,,,,,,,,,,
,,,,,,,,,6966565729d87a03bc0a7361,Spanish,younger than 13,"no, only English or Spanish",no,2026-01-21_21h16.42.796,empathy_intonation_perc_control,2024.2.4,MacIntel,58.68544601,6966565729d87a03bc0a7361,69712dc693a3960bdb483245,6971885c656c3d4201538111,,,,,,,,,,,,,1,,,,,,,,,,,,,,,,,,,,,,,,,,,,,,,,,,,,,39,torpe,,,,,526.273,527.968,0,0,1.155,,0,89,89,38,1,REAL,FAKE,,,,,,,,,,,,,,,,,
,,,,,,,,,6966565729d87a03bc0a7361,Spanish,younger than 13,"no, only English or Spanish",no,2026-01-21_21h16.42.796,empathy_intonation_perc_control,2024.2.4,MacIntel,58.68544601,6966565729d87a03bc0a7361,69712dc693a3960bdb483245,6971885c656c3d4201538111,,,,,,,,,,,,,1,,,,,,,,,,,,,,,,,,,,,,,,,,,,,,,,,,,,,12,asesinato,,,,,527.969,531.944,0,0,3.439,,0,90,90,11,1,REAL,FAKE,,,,,,,,,,,,,,,,,
,,,,,,,,,6966565729d87a03bc0a7361,Spanish,younger than 13,"no, only English or Spanish",no,2026-01-21_21h16.42.796,empathy_intonation_perc_control,2024.2.4,MacIntel,58.68544601,6966565729d87a03bc0a7361,69712dc693a3960bdb483245,6971885c656c3d4201538111,,,,,,,,,,,,,1,,,,,,,,,,,,,,,,,,,,,,,,,,,,,,,,,,,,,75,yacer,,,,,531.945,535.265,1,1,2.79,,0,91,91,74,1,REAL,FAKE,,,,,,,,,,,,,,,,,
,,,,,,,,,6966565729d87a03bc0a7361,Spanish,younger than 13,"no, only English or Spanish",no,2026-01-21_21h16.42.796,empathy_intonation_perc_control,2024.2.4,MacIntel,58.68544601,6966565729d87a03bc0a7361,69712dc693a3960bdb483245,6971885c656c3d4201538111,,,,,,,,,,,,,,,,,,,,,,,,,,,,,,,,,,,,,,,,,,,,,,,,,,,,,,,,,,,,,,,,,,,,,535.266,544.828,,,,,,,,,,,,,,,
,,,,,,,,,6966565729d87a03bc0a7361,Spanish,younger than 13,"no, only English or Spanish",no,2026-01-21_21h16.42.796,empathy_intonation_perc_control,2024.2.4,MacIntel,58.68544601,6966565729d87a03bc0a7361,69712dc693a3960bdb483245,6971885c656c3d4201538111,,,,,,,,,,,,,,,,,,,,,,,,,,,1,,,,,,,,,,,,,,,,,,,,,,,,,,,,,,,,,,,,,,,,,,,,544.852,549.248,strongly agree,0,0,0,0,1,I can easily tell if someone else wants to enter a conversation.,1,0,1,0,,
,,,,,,,,,6966565729d87a03bc0a7361,Spanish,younger than 13,"no, only English or Spanish",no,2026-01-21_21h16.42.796,empathy_intonation_perc_control,2024.2.4,MacIntel,58.68544601,6966565729d87a03bc0a7361,69712dc693a3960bdb483245,6971885c656c3d4201538111,,,,,,,,,,,,,,,,,,,,,,,,,,,2,,,,,,,,,,,,,,,,,,,,,,,,,,,,,,,,,,,,,,,,,,,,549.25,552.805,slightly agree,0,1,1,1,1,I prefer animals to humans.,0,1,0,0,,
,,,,,,,,,6966565729d87a03bc0a7361,Spanish,younger than 13,"no, only English or Spanish",no,2026-01-21_21h16.42.796,empathy_intonation_perc_control,2024.2.4,MacIntel,58.68544601,6966565729d87a03bc0a7361,69712dc693a3960bdb483245,6971885c656c3d4201538111,,,,,,,,,,,,,,,,,,,,,,,,,,,3,,,,,,,,,,,,,,,,,,,,,,,,,,,,,,,,,,,,,,,,,,,,552.808,555.465,slightly disagree,0,2,2,2,1,I try to keep up with the current trends and fashions.,0,1,0,0,,
,,,,,,,,,6966565729d87a03bc0a7361,Spanish,younger than 13,"no, only English or Spanish",no,2026-01-21_21h16.42.796,empathy_intonation_perc_control,2024.2.4,MacIntel,58.68544601,6966565729d87a03bc0a7361,69712dc693a3960bdb483245,6971885c656c3d4201538111,,,,,,,,,,,,,,,,,,,,,,,,,,,4,,,,,,,,,,,,,,,,,,,,,,,,,,,,,,,,,,,,,,,,,,,,555.467,562.317,strongly agree,0,3,3,3,1,"I find it difficult to explain to others things that I understand easily,   when they don't understand it first time.",1,0,0,1,,
,,,,,,,,,6966565729d87a03bc0a7361,Spanish,younger than 13,"no, only English or Spanish",no,2026-01-21_21h16.42.796,empathy_intonation_perc_control,2024.2.4,MacIntel,58.68544601,6966565729d87a03bc0a7361,69712dc693a3960bdb483245,6971885c656c3d4201538111,,,,,,,,,,,,,,,,,,,,,,,,,,,5,,,,,,,,,,,,,,,,,,,,,,,,,,,,,,,,,,,,,,,,,,,,562.32,564.41,strongly agree,0,4,4,4,1,I dream most nights.,0,1,0,0,,
,,,,,,,,,6966565729d87a03bc0a7361,Spanish,younger than 13,"no, only English or Spanish",no,2026-01-21_21h16.42.796,empathy_intonation_perc_control,2024.2.4,MacIntel,58.68544601,6966565729d87a03bc0a7361,69712dc693a3960bdb483245,6971885c656c3d4201538111,,,,,,,,,,,,,,,,,,,,,,,,,,,6,,,,,,,,,,,,,,,,,,,,,,,,,,,,,,,,,,,,,,,,,,,,564.412,566.237,strongly agree,0,5,5,5,1,I really enjoy caring for other people.,1,0,1,0,,
,,,,,,,,,6966565729d87a03bc0a7361,Spanish,younger than 13,"no, only English or Spanish",no,2026-01-21_21h16.42.796,empathy_intonation_perc_control,2024.2.4,MacIntel,58.68544601,6966565729d87a03bc0a7361,69712dc693a3960bdb483245,6971885c656c3d4201538111,,,,,,,,,,,,,,,,,,,,,,,,,,,7,,,,,,,,,,,,,,,,,,,,,,,,,,,,,,,,,,,,,,,,,,,,566.24,568.451,strongly agree,0,6,6,6,1,I try to solve my own problems rather than discussing them with others.,0,1,0,0,,
,,,,,,,,,6966565729d87a03bc0a7361,Spanish,younger than 13,"no, only English or Spanish",no,2026-01-21_21h16.42.796,empathy_intonation_perc_control,2024.2.4,MacIntel,58.68544601,6966565729d87a03bc0a7361,69712dc693a3960bdb483245,6971885c656c3d4201538111,,,,,,,,,,,,,,,,,,,,,,,,,,,8,,,,,,,,,,,,,,,,,,,,,,,,,,,,,,,,,,,,,,,,,,,,568.453,572.473,slightly agree,0,7,7,7,1,I find it hard to know what to do in a social situation.,1,0,0,1,,
,,,,,,,,,6966565729d87a03bc0a7361,Spanish,younger than 13,"no, only English or Spanish",no,2026-01-21_21h16.42.796,empathy_intonation_perc_control,2024.2.4,MacIntel,58.68544601,6966565729d87a03bc0a7361,69712dc693a3960bdb483245,6971885c656c3d4201538111,,,,,,,,,,,,,,,,,,,,,,,,,,,9,,,,,,,,,,,,,,,,,,,,,,,,,,,,,,,,,,,,,,,,,,,,572.476,576.429,slightly disagree,0,8,8,8,1,I am at my best first thing in the morning.,0,1,0,0,,
,,,,,,,,,6966565729d87a03bc0a7361,Spanish,younger than 13,"no, only English or Spanish",no,2026-01-21_21h16.42.796,empathy_intonation_perc_control,2024.2.4,MacIntel,58.68544601,6966565729d87a03bc0a7361,69712dc693a3960bdb483245,6971885c656c3d4201538111,,,,,,,,,,,,,,,,,,,,,,,,,,,10,,,,,,,,,,,,,,,,,,,,,,,,,,,,,,,,,,,,,,,,,,,,576.432,598.375,slightly agree,0,9,9,9,1,People often tell me that I went too far in driving my point home in a discussion.,1,0,0,1,,
,,,,,,,,,6966565729d87a03bc0a7361,Spanish,younger than 13,"no, only English or Spanish",no,2026-01-21_21h16.42.796,empathy_intonation_perc_control,2024.2.4,MacIntel,58.68544601,6966565729d87a03bc0a7361,69712dc693a3960bdb483245,6971885c656c3d4201538111,,,,,,,,,,,,,,,,,,,,,,,,,,,11,,,,,,,,,,,,,,,,,,,,,,,,,,,,,,,,,,,,,,,,,,,,598.378,603.163,slightly disagree,0,10,10,10,1,It doesn't bother me too much if I am late meeting a friend.,1,0,0,1,,
,,,,,,,,,6966565729d87a03bc0a7361,Spanish,younger than 13,"no, only English or Spanish",no,2026-01-21_21h16.42.796,empathy_intonation_perc_control,2024.2.4,MacIntel,58.68544601,6966565729d87a03bc0a7361,69712dc693a3960bdb483245,6971885c656c3d4201538111,,,,,,,,,,,,,,,,,,,,,,,,,,,12,,,,,,,,,,,,,,,,,,,,,,,,,,,,,,,,,,,,,,,,,,,,603.167,610.942,strongly disagree,0,11,11,11,1,"Friendships and relationships are just too difficult, so I tend not to 
  bother with them.",1,0,0,1,,
,,,,,,,,,6966565729d87a03bc0a7361,Spanish,younger than 13,"no, only English or Spanish",no,2026-01-21_21h16.42.796,empathy_intonation_perc_control,2024.2.4,MacIntel,58.68544601,6966565729d87a03bc0a7361,69712dc693a3960bdb483245,6971885c656c3d4201538111,,,,,,,,,,,,,,,,,,,,,,,,,,,13,,,,,,,,,,,,,,,,,,,,,,,,,,,,,,,,,,,,,,,,,,,,610.945,640.087,slightly disagree,0,12,12,12,1,"I would never break a law, no matter how minor.",0,1,0,0,,
,,,,,,,,,6966565729d87a03bc0a7361,Spanish,younger than 13,"no, only English or Spanish",no,2026-01-21_21h16.42.796,empathy_intonation_perc_control,2024.2.4,MacIntel,58.68544601,6966565729d87a03bc0a7361,69712dc693a3960bdb483245,6971885c656c3d4201538111,,,,,,,,,,,,,,,,,,,,,,,,,,,14,,,,,,,,,,,,,,,,,,,,,,,,,,,,,,,,,,,,,,,,,,,,640.091,646.67,strongly disagree,0,13,13,13,1,I often find it difficult to judge if something is rude or polite.,1,0,0,1,,
,,,,,,,,,6966565729d87a03bc0a7361,Spanish,younger than 13,"no, only English or Spanish",no,2026-01-21_21h16.42.796,empathy_intonation_perc_control,2024.2.4,MacIntel,58.68544601,6966565729d87a03bc0a7361,69712dc693a3960bdb483245,6971885c656c3d4201538111,,,,,,,,,,,,,,,,,,,,,,,,,,,15,,,,,,,,,,,,,,,,,,,,,,,,,,,,,,,,,,,,,,,,,,,,646.672,651.524,strongly disagree,0,14,14,14,1,"In a conversation, I tend to focus on my own thoughts rather than on what 
  my listener might be thinking.",1,0,0,1,,
,,,,,,,,,6966565729d87a03bc0a7361,Spanish,younger than 13,"no, only English or Spanish",no,2026-01-21_21h16.42.796,empathy_intonation_perc_control,2024.2.4,MacIntel,58.68544601,6966565729d87a03bc0a7361,69712dc693a3960bdb483245,6971885c656c3d4201538111,,,,,,,,,,,,,,,,,,,,,,,,,,,16,,,,,,,,,,,,,,,,,,,,,,,,,,,,,,,,,,,,,,,,,,,,651.525,661.981,slightly disagree,0,15,15,15,1,I prefer practical jokes to verbal humor.,0,1,0,0,,
,,,,,,,,,6966565729d87a03bc0a7361,Spanish,younger than 13,"no, only English or Spanish",no,2026-01-21_21h16.42.796,empathy_intonation_perc_control,2024.2.4,MacIntel,58.68544601,6966565729d87a03bc0a7361,69712dc693a3960bdb483245,6971885c656c3d4201538111,,,,,,,,,,,,,,,,,,,,,,,,,,,17,,,,,,,,,,,,,,,,,,,,,,,,,,,,,,,,,,,,,,,,,,,,661.982,666.786,strongly disagree,0,16,16,16,1,I live life for today rather than the future.,0,1,0,0,,
,,,,,,,,,6966565729d87a03bc0a7361,Spanish,younger than 13,"no, only English or Spanish",no,2026-01-21_21h16.42.796,empathy_intonation_perc_control,2024.2.4,MacIntel,58.68544601,6966565729d87a03bc0a7361,69712dc693a3960bdb483245,6971885c656c3d4201538111,,,,,,,,,,,,,,,,,,,,,,,,,,,18,,,,,,,,,,,,,,,,,,,,,,,,,,,,,,,,,,,,,,,,,,,,666.791,667.5,strongly disagree,0,17,17,17,1,"When I was a child, I enjoyed cutting up worms to see what would happen.",1,0,0,1,,
,,,,,,,,,6966565729d87a03bc0a7361,Spanish,younger than 13,"no, only English or Spanish",no,2026-01-21_21h16.42.796,empathy_intonation_perc_control,2024.2.4,MacIntel,58.68544601,6966565729d87a03bc0a7361,69712dc693a3960bdb483245,6971885c656c3d4201538111,,,,,,,,,,,,,,,,,,,,,,,,,,,19,,,,,,,,,,,,,,,,,,,,,,,,,,,,,,,,,,,,,,,,,,,,667.502,676.678,strongly agree,0,18,18,18,1,I can pick up quickly if someone says one thing but means another.,1,0,1,0,,
,,,,,,,,,6966565729d87a03bc0a7361,Spanish,younger than 13,"no, only English or Spanish",no,2026-01-21_21h16.42.796,empathy_intonation_perc_control,2024.2.4,MacIntel,58.68544601,6966565729d87a03bc0a7361,69712dc693a3960bdb483245,6971885c656c3d4201538111,,,,,,,,,,,,,,,,,,,,,,,,,,,20,,,,,,,,,,,,,,,,,,,,,,,,,,,,,,,,,,,,,,,,,,,,676.68,680.018,strongly agree,0,19,19,19,1,I tend to have very strong opinions about morality.,0,1,0,0,,
,,,,,,,,,6966565729d87a03bc0a7361,Spanish,younger than 13,"no, only English or Spanish",no,2026-01-21_21h16.42.796,empathy_intonation_perc_control,2024.2.4,MacIntel,58.68544601,6966565729d87a03bc0a7361,69712dc693a3960bdb483245,6971885c656c3d4201538111,,,,,,,,,,,,,,,,,,,,,,,,,,,21,,,,,,,,,,,,,,,,,,,,,,,,,,,,,,,,,,,,,,,,,,,,680.022,690.941,strongly disagree,0,20,20,20,1,It is hard for me to see why some things upset people so much.,1,0,0,1,,
,,,,,,,,,6966565729d87a03bc0a7361,Spanish,younger than 13,"no, only English or Spanish",no,2026-01-21_21h16.42.796,empathy_intonation_perc_control,2024.2.4,MacIntel,58.68544601,6966565729d87a03bc0a7361,69712dc693a3960bdb483245,6971885c656c3d4201538111,,,,,,,,,,,,,,,,,,,,,,,,,,,22,,,,,,,,,,,,,,,,,,,,,,,,,,,,,,,,,,,,,,,,,,,,690.942,693.834,strongly agree,0,21,21,21,1,I find it easy to put myself in somebody else's shoes.,1,0,1,0,,
,,,,,,,,,6966565729d87a03bc0a7361,Spanish,younger than 13,"no, only English or Spanish",no,2026-01-21_21h16.42.796,empathy_intonation_perc_control,2024.2.4,MacIntel,58.68544601,6966565729d87a03bc0a7361,69712dc693a3960bdb483245,6971885c656c3d4201538111,,,,,,,,,,,,,,,,,,,,,,,,,,,23,,,,,,,,,,,,,,,,,,,,,,,,,,,,,,,,,,,,,,,,,,,,693.836,706.803,slightly agree,0,22,22,22,1,I think that good manners are the most important thing a parent can teach their child.,0,1,0,0,,
