instructions_2afc.started,instructions_2afc.stopped,instructions_2afc_loop.thisRepN,instructions_2afc_loop.thisTrialN,instructions_2afc_loop.thisN,instructions_2afc_loop.thisIndex,instructions_2afc_loop.ran,instructions_text,continue_text,participant_id,"What variety of Spanish are you most familiar with? (e.g., Peruvian, Spanish, Mexican)",At what age did you begin learning Spanish?,Are you proficient in any languages other than English/Spanish?,"Are you familiar with Caribbean (e.g., Caribbean, Puerto Rican) or Galician Spanish?",date,expName,psychopyVersion,OS,frameRate,id,study_id,session,practice_2afc.started,practice_2afc.stopped,key_resp_2afc_practice.keys,key_resp_2afc_practice.corr,key_resp_2afc_practice.rt,key_resp_2afc_practice.duration,trials_2afc_practice_loop.thisRepN,trials_2afc_practice_loop.thisTrialN,trials_2afc_practice_loop.thisN,trials_2afc_practice_loop.thisIndex,trials_2afc_practice_loop.ran,path,correct_response,check_2afc.started,check_2afc.stopped,trial_2afc.started,trial_2afc.stopped,key_resp_2afc_trial.keys,key_resp_2afc_trial.corr,key_resp_2afc_trial.rt,key_resp_2afc_trial.duration,trials_2afc_loop.thisRepN,trials_2afc_loop.thisTrialN,trials_2afc_loop.thisN,trials_2afc_loop.thisIndex,trials_2afc_loop.ran,item_num,target,variety,instructions_lextale.started,instructions_lextale.stopped,instructions_lextale_loop.thisRepN,instructions_lextale_loop.thisTrialN,instructions_lextale_loop.thisN,instructions_lextale_loop.thisIndex,instructions_lextale_loop.ran,practice_lextale.started,practice_lextale.stopped,key_resp_lextale_practice.keys,key_resp_lextale_practice.corr,key_resp_lextale_practice.rt,key_resp_lextale_practice.duration,practice_feedback_lextale.started,practice_feedback_lextale.stopped,trials_lextale_practice_loop.thisRepN,trials_lextale_practice_loop.thisTrialN,trials_lextale_practice_loop.thisN,trials_lextale_practice_loop.thisIndex,trials_lextale_practice_loop.ran,stim,word,prac_button_real,prac_button_false,check_lextale.started,check_lextale.stopped,trial_lextale.started,trial_lextale.stopped,key_resp_lextale_trial.keys,key_resp_lextale_trial.corr,key_resp_lextale_trial.rt,key_resp_lextale_trial.duration,trials_lextale_loop.thisRepN,trials_lextale_loop.thisTrialN,trials_lextale_loop.thisN,trials_lextale_loop.thisIndex,trials_lextale_loop.ran,button_real,button_false,instructions_eq.started,instructions_eq.stopped,trial_eq.started,trial_eq.stopped,slider_eq_trial.response,trials_eq_loop.thisRepN,trials_eq_loop.thisTrialN,trials_eq_loop.thisN,trials_eq_loop.thisIndex,trials_eq_loop.ran,item,is_test_item,is_distractor,is_agree_score,is_disagree_score,end_exp.started,end_exp.stopped
0.0088,3.1787,0,0,0,0,1,"In the following task you are going to hear a series of utterances. 

  You will decide if the utterances sound like questions or not using your keyboard.", (press the spacebar to continue),,"Mexican, Spanish, Dominican",13 or older,"no, only English or Spanish",no,2025-07-24_12h24.46.847,empathy_intonation_perc_control,2024.2.4,MacIntel,60.60606061,657f1d06a2dc99584052f77f,68817205a84113384fffdfe3,68825e25a1b6a24e75607626,,,,,,,,,,,,,,,,,,,,,,,,,,,,,,,,,,,,,,,,,,,,,,,,,,,,,,,,,,,,,,,,,,,,,,,,,,,,,,,,,,,,,
3.1814,8.2282,0,1,1,1,1,"If you believe the utterance is a question, type '1' (for 'yes') and if you do not 
  believe it is a question type '0' (for 'no').

  Let's practice a bit...", (press the spacebar to continue),,"Mexican, Spanish, Dominican",13 or older,"no, only English or Spanish",no,2025-07-24_12h24.46.847,empathy_intonation_perc_control,2024.2.4,MacIntel,60.60606061,657f1d06a2dc99584052f77f,68817205a84113384fffdfe3,68825e25a1b6a24e75607626,,,,,,,,,,,,,,,,,,,,,,,,,,,,,,,,,,,,,,,,,,,,,,,,,,,,,,,,,,,,,,,,,,,,,,,,,,,,,,,,,,,,,
,,,,,,,,,,"Mexican, Spanish, Dominican",13 or older,"no, only English or Spanish",no,2025-07-24_12h24.46.847,empathy_intonation_perc_control,2024.2.4,MacIntel,60.60606061,657f1d06a2dc99584052f77f,68817205a84113384fffdfe3,68825e25a1b6a24e75607626,8.2409,11.5285,0,1,2.7661,,0,0,0,7,1,./stim/wavs/puertorican_statement_filler_La-nina-pinta-con-su-amiga.wav,0,,,,,,,,,,,,,,,,,,,,,,,,,,,,,,,,,,,,,,,,,,,,,,,,,,,,,,,,,,,,,,,,,,,,,,,,
,,,,,,,,,,"Mexican, Spanish, Dominican",13 or older,"no, only English or Spanish",no,2025-07-24_12h24.46.847,empathy_intonation_perc_control,2024.2.4,MacIntel,60.60606061,657f1d06a2dc99584052f77f,68817205a84113384fffdfe3,68825e25a1b6a24e75607626,11.5297,13.994,1,1,1.9425,,0,1,1,2,1,./stim/wavs/chilean_question_filler_Mi-padre-cantaba-bien.wav,1,,,,,,,,,,,,,,,,,,,,,,,,,,,,,,,,,,,,,,,,,,,,,,,,,,,,,,,,,,,,,,,,,,,,,,,,
,,,,,,,,,,"Mexican, Spanish, Dominican",13 or older,"no, only English or Spanish",no,2025-07-24_12h24.46.847,empathy_intonation_perc_control,2024.2.4,MacIntel,60.60606061,657f1d06a2dc99584052f77f,68817205a84113384fffdfe3,68825e25a1b6a24e75607626,13.9949,16.7103,0,1,2.1864,,0,2,2,6,1,./stim/wavs/peruvian_statement_filler_El-nino-habla-con-su-madre.wav,0,,,,,,,,,,,,,,,,,,,,,,,,,,,,,,,,,,,,,,,,,,,,,,,,,,,,,,,,,,,,,,,,,,,,,,,,
,,,,,,,,,,"Mexican, Spanish, Dominican",13 or older,"no, only English or Spanish",no,2025-07-24_12h24.46.847,empathy_intonation_perc_control,2024.2.4,MacIntel,60.60606061,657f1d06a2dc99584052f77f,68817205a84113384fffdfe3,68825e25a1b6a24e75607626,16.7112,18.8611,1,1,1.6443,,0,3,3,1,1,./stim/wavs/argentine_question_filler_Mi-vecino-habla-mucho.wav,1,,,,,,,,,,,,,,,,,,,,,,,,,,,,,,,,,,,,,,,,,,,,,,,,,,,,,,,,,,,,,,,,,,,,,,,,
,,,,,,,,,,"Mexican, Spanish, Dominican",13 or older,"no, only English or Spanish",no,2025-07-24_12h24.46.847,empathy_intonation_perc_control,2024.2.4,MacIntel,60.60606061,657f1d06a2dc99584052f77f,68817205a84113384fffdfe3,68825e25a1b6a24e75607626,18.8618,21.077,0,1,1.6874,,0,4,4,4,1,./stim/wavs/cuban_statement_filler_Cocinabas-por-la-noche.wav,0,,,,,,,,,,,,,,,,,,,,,,,,,,,,,,,,,,,,,,,,,,,,,,,,,,,,,,,,,,,,,,,,,,,,,,,,
,,,,,,,,,,"Mexican, Spanish, Dominican",13 or older,"no, only English or Spanish",no,2025-07-24_12h24.46.847,empathy_intonation_perc_control,2024.2.4,MacIntel,60.60606061,657f1d06a2dc99584052f77f,68817205a84113384fffdfe3,68825e25a1b6a24e75607626,21.0783,24.2603,1,1,2.6501,,0,5,5,0,1,./stim/wavs/castilian_question_filler_Mi-esposo-conoce-al-chico.wav,1,,,,,,,,,,,,,,,,,,,,,,,,,,,,,,,,,,,,,,,,,,,,,,,,,,,,,,,,,,,,,,,,,,,,,,,,
,,,,,,,,,,"Mexican, Spanish, Dominican",13 or older,"no, only English or Spanish",no,2025-07-24_12h24.46.847,empathy_intonation_perc_control,2024.2.4,MacIntel,60.60606061,657f1d06a2dc99584052f77f,68817205a84113384fffdfe3,68825e25a1b6a24e75607626,24.2612,26.9947,0,1,2.1996,,0,6,6,5,1,./stim/wavs/andalusian_statement_filler_Alberto-nunca-se-afeita.wav,0,,,,,,,,,,,,,,,,,,,,,,,,,,,,,,,,,,,,,,,,,,,,,,,,,,,,,,,,,,,,,,,,,,,,,,,,
,,,,,,,,,,"Mexican, Spanish, Dominican",13 or older,"no, only English or Spanish",no,2025-07-24_12h24.46.847,empathy_intonation_perc_control,2024.2.4,MacIntel,60.60606061,657f1d06a2dc99584052f77f,68817205a84113384fffdfe3,68825e25a1b6a24e75607626,26.9957,29.1769,1,1,1.6499,,0,7,7,3,1,./stim/wavs/mexican_question_filler_Felipe-no-tiene-contrasena.wav,1,,,,,,,,,,,,,,,,,,,,,,,,,,,,,,,,,,,,,,,,,,,,,,,,,,,,,,,,,,,,,,,,,,,,,,,,
,,,,,,,,,,"Mexican, Spanish, Dominican",13 or older,"no, only English or Spanish",no,2025-07-24_12h24.46.847,empathy_intonation_perc_control,2024.2.4,MacIntel,60.60606061,657f1d06a2dc99584052f77f,68817205a84113384fffdfe3,68825e25a1b6a24e75607626,,,,,,,,,,,,,,29.1776,32.4269,,,,,,,,,,,,,,,,,,,,,,,,,,,,,,,,,,,,,,,,,,,,,,,,,,,,,,,,,,,,,,,,,,,,,,
,,,,,,,,,,"Mexican, Spanish, Dominican",13 or older,"no, only English or Spanish",no,2025-07-24_12h24.46.847,empathy_intonation_perc_control,2024.2.4,MacIntel,60.60606061,657f1d06a2dc99584052f77f,68817205a84113384fffdfe3,68825e25a1b6a24e75607626,,,,,,,,,,,,./stim/wavs/cuban_mismatch_interrogative-total-yn_Mi-tia-odia-la-lluvia.wav,1,,,32.4375,34.4606,0,0,1.5007,,0,0,0,33,1,34,1,cuban,,,,,,,,,,,,,,,,,,,,,,,,,,,,,,,,,,,,,,,,,,,,,,,,,,,,,,,,
,,,,,,,,,,"Mexican, Spanish, Dominican",13 or older,"no, only English or Spanish",no,2025-07-24_12h24.46.847,empathy_intonation_perc_control,2024.2.4,MacIntel,60.60606061,657f1d06a2dc99584052f77f,68817205a84113384fffdfe3,68825e25a1b6a24e75607626,,,,,,,,,,,,./stim/wavs/puertorican_mismatch_interrogative-total-yn_La-maestra-vive-en-Paris.wav,1,,,34.4617,36.8444,1,1,1.8493,,0,1,1,41,1,42,1,puertorican,,,,,,,,,,,,,,,,,,,,,,,,,,,,,,,,,,,,,,,,,,,,,,,,,,,,,,,,
,,,,,,,,,,"Mexican, Spanish, Dominican",13 or older,"no, only English or Spanish",no,2025-07-24_12h24.46.847,empathy_intonation_perc_control,2024.2.4,MacIntel,60.60606061,657f1d06a2dc99584052f77f,68817205a84113384fffdfe3,68825e25a1b6a24e75607626,,,,,,,,,,,,./stim/wavs/cuban_match_declarative-broad-focus_Ana-lleva-el-abrigo.wav,0,,,36.8452,39.5444,0,1,2.1675,,0,2,2,50,1,51,0,cuban,,,,,,,,,,,,,,,,,,,,,,,,,,,,,,,,,,,,,,,,,,,,,,,,,,,,,,,,
,,,,,,,,,,"Mexican, Spanish, Dominican",13 or older,"no, only English or Spanish",no,2025-07-24_12h24.46.847,empathy_intonation_perc_control,2024.2.4,MacIntel,60.60606061,657f1d06a2dc99584052f77f,68817205a84113384fffdfe3,68825e25a1b6a24e75607626,,,,,,,,,,,,./stim/wavs/cuban_match_interrogative-total-yn_Ana-lleva-el-abrigo.wav,1,,,39.5453,41.3108,1,1,1.2427,,0,3,3,6,1,7,1,cuban,,,,,,,,,,,,,,,,,,,,,,,,,,,,,,,,,,,,,,,,,,,,,,,,,,,,,,,,
,,,,,,,,,,"Mexican, Spanish, Dominican",13 or older,"no, only English or Spanish",no,2025-07-24_12h24.46.847,empathy_intonation_perc_control,2024.2.4,MacIntel,60.60606061,657f1d06a2dc99584052f77f,68817205a84113384fffdfe3,68825e25a1b6a24e75607626,,,,,,,,,,,,./stim/wavs/puertorican_mismatch_interrogative-total-yn_El-nino-oye-el-rio.wav,1,,,41.3116,43.3109,0,0,1.4685,,0,4,4,40,1,41,1,puertorican,,,,,,,,,,,,,,,,,,,,,,,,,,,,,,,,,,,,,,,,,,,,,,,,,,,,,,,,
,,,,,,,,,,"Mexican, Spanish, Dominican",13 or older,"no, only English or Spanish",no,2025-07-24_12h24.46.847,empathy_intonation_perc_control,2024.2.4,MacIntel,60.60606061,657f1d06a2dc99584052f77f,68817205a84113384fffdfe3,68825e25a1b6a24e75607626,,,,,,,,,,,,./stim/wavs/mexican_match_interrogative-total-yn_Daniel-iba-a-Bolivia.wav,1,,,43.3115,45.2944,1,1,1.4524,,0,5,5,13,1,14,0,mexican,,,,,,,,,,,,,,,,,,,,,,,,,,,,,,,,,,,,,,,,,,,,,,,,,,,,,,,,
,,,,,,,,,,"Mexican, Spanish, Dominican",13 or older,"no, only English or Spanish",no,2025-07-24_12h24.46.847,empathy_intonation_perc_control,2024.2.4,MacIntel,60.60606061,657f1d06a2dc99584052f77f,68817205a84113384fffdfe3,68825e25a1b6a24e75607626,,,,,,,,,,,,./stim/wavs/cuban_match_declarative-broad-focus_Marta-abre-el-regalo.wav,0,,,45.2953,47.9443,0,1,2.1179,,0,6,6,55,1,56,0,cuban,,,,,,,,,,,,,,,,,,,,,,,,,,,,,,,,,,,,,,,,,,,,,,,,,,,,,,,,
,,,,,,,,,,"Mexican, Spanish, Dominican",13 or older,"no, only English or Spanish",no,2025-07-24_12h24.46.847,empathy_intonation_perc_control,2024.2.4,MacIntel,60.60606061,657f1d06a2dc99584052f77f,68817205a84113384fffdfe3,68825e25a1b6a24e75607626,,,,,,,,,,,,./stim/wavs/castilian_mismatch_interrogative-total-yn_Mi-tia-odia-la-lluvia.wav,1,,,47.945,50.0942,1,1,1.6166,,0,7,7,28,1,29,0,castilian,,,,,,,,,,,,,,,,,,,,,,,,,,,,,,,,,,,,,,,,,,,,,,,,,,,,,,,,
,,,,,,,,,,"Mexican, Spanish, Dominican",13 or older,"no, only English or Spanish",no,2025-07-24_12h24.46.847,empathy_intonation_perc_control,2024.2.4,MacIntel,60.60606061,657f1d06a2dc99584052f77f,68817205a84113384fffdfe3,68825e25a1b6a24e75607626,,,,,,,,,,,,./stim/wavs/cuban_mismatch_interrogative-total-yn_Mi-novio-viene-del-lago.wav,1,,,50.0951,52.3776,0,0,1.7536,,0,8,8,32,1,33,1,cuban,,,,,,,,,,,,,,,,,,,,,,,,,,,,,,,,,,,,,,,,,,,,,,,,,,,,,,,,
,,,,,,,,,,"Mexican, Spanish, Dominican",13 or older,"no, only English or Spanish",no,2025-07-24_12h24.46.847,empathy_intonation_perc_control,2024.2.4,MacIntel,60.60606061,657f1d06a2dc99584052f77f,68817205a84113384fffdfe3,68825e25a1b6a24e75607626,,,,,,,,,,,,./stim/wavs/mexican_mismatch_interrogative-total-yn_Mi-tia-odia-la-lluvia.wav,1,,,52.3784,54.2942,1,1,1.3832,,0,9,9,38,1,39,0,mexican,,,,,,,,,,,,,,,,,,,,,,,,,,,,,,,,,,,,,,,,,,,,,,,,,,,,,,,,
,,,,,,,,,,"Mexican, Spanish, Dominican",13 or older,"no, only English or Spanish",no,2025-07-24_12h24.46.847,empathy_intonation_perc_control,2024.2.4,MacIntel,60.60606061,657f1d06a2dc99584052f77f,68817205a84113384fffdfe3,68825e25a1b6a24e75607626,,,,,,,,,,,,./stim/wavs/castilian_match_interrogative-total-yn_Maria-bebe-el-vino.wav,1,,,54.295,56.6766,0,0,1.8598,,0,10,10,3,1,4,0,castilian,,,,,,,,,,,,,,,,,,,,,,,,,,,,,,,,,,,,,,,,,,,,,,,,,,,,,,,,
,,,,,,,,,,"Mexican, Spanish, Dominican",13 or older,"no, only English or Spanish",no,2025-07-24_12h24.46.847,empathy_intonation_perc_control,2024.2.4,MacIntel,60.60606061,657f1d06a2dc99584052f77f,68817205a84113384fffdfe3,68825e25a1b6a24e75607626,,,,,,,,,,,,./stim/wavs/puertorican_match_interrogative-total-yn_David-leia-el-libro.wav,1,,,56.6775,58.8942,0,0,1.6835,,0,11,11,20,1,21,1,puertorican,,,,,,,,,,,,,,,,,,,,,,,,,,,,,,,,,,,,,,,,,,,,,,,,,,,,,,,,
,,,,,,,,,,"Mexican, Spanish, Dominican",13 or older,"no, only English or Spanish",no,2025-07-24_12h24.46.847,empathy_intonation_perc_control,2024.2.4,MacIntel,60.60606061,657f1d06a2dc99584052f77f,68817205a84113384fffdfe3,68825e25a1b6a24e75607626,,,,,,,,,,,,./stim/wavs/castilian_match_declarative-broad-focus_Mariano-habla-del-tiempo.wav,0,,,58.895,61.2774,0,1,1.851,,0,12,12,48,1,49,0,castilian,,,,,,,,,,,,,,,,,,,,,,,,,,,,,,,,,,,,,,,,,,,,,,,,,,,,,,,,
,,,,,,,,,,"Mexican, Spanish, Dominican",13 or older,"no, only English or Spanish",no,2025-07-24_12h24.46.847,empathy_intonation_perc_control,2024.2.4,MacIntel,60.60606061,657f1d06a2dc99584052f77f,68817205a84113384fffdfe3,68825e25a1b6a24e75607626,,,,,,,,,,,,./stim/wavs/mexican_mismatch_declarative-broad-focus_Mi-tia-odia-la-lluvia.wav,0,,,61.2783,63.9265,0,1,2.1172,,0,13,13,82,1,83,0,mexican,,,,,,,,,,,,,,,,,,,,,,,,,,,,,,,,,,,,,,,,,,,,,,,,,,,,,,,,
,,,,,,,,,,"Mexican, Spanish, Dominican",13 or older,"no, only English or Spanish",no,2025-07-24_12h24.46.847,empathy_intonation_perc_control,2024.2.4,MacIntel,60.60606061,657f1d06a2dc99584052f77f,68817205a84113384fffdfe3,68825e25a1b6a24e75607626,,,,,,,,,,,,./stim/wavs/cuban_mismatch_declarative-broad-focus_Mi-novio-viene-del-lago.wav,0,,,63.9274,66.7607,0,1,2.3013,,0,14,14,76,1,77,0,cuban,,,,,,,,,,,,,,,,,,,,,,,,,,,,,,,,,,,,,,,,,,,,,,,,,,,,,,,,
,,,,,,,,,,"Mexican, Spanish, Dominican",13 or older,"no, only English or Spanish",no,2025-07-24_12h24.46.847,empathy_intonation_perc_control,2024.2.4,MacIntel,60.60606061,657f1d06a2dc99584052f77f,68817205a84113384fffdfe3,68825e25a1b6a24e75607626,,,,,,,,,,,,./stim/wavs/cuban_match_interrogative-total-yn_Daniel-iba-a-Bolivia.wav,1,,,66.7615,68.7773,0,0,1.4951,,0,15,15,7,1,8,1,cuban,,,,,,,,,,,,,,,,,,,,,,,,,,,,,,,,,,,,,,,,,,,,,,,,,,,,,,,,
,,,,,,,,,,"Mexican, Spanish, Dominican",13 or older,"no, only English or Spanish",no,2025-07-24_12h24.46.847,empathy_intonation_perc_control,2024.2.4,MacIntel,60.60606061,657f1d06a2dc99584052f77f,68817205a84113384fffdfe3,68825e25a1b6a24e75607626,,,,,,,,,,,,./stim/wavs/cuban_mismatch_declarative-broad-focus_El-hombre-mira-la-luna.wav,0,,,68.7781,71.2102,0,1,1.8994,,0,16,16,74,1,75,0,cuban,,,,,,,,,,,,,,,,,,,,,,,,,,,,,,,,,,,,,,,,,,,,,,,,,,,,,,,,
,,,,,,,,,,"Mexican, Spanish, Dominican",13 or older,"no, only English or Spanish",no,2025-07-24_12h24.46.847,empathy_intonation_perc_control,2024.2.4,MacIntel,60.60606061,657f1d06a2dc99584052f77f,68817205a84113384fffdfe3,68825e25a1b6a24e75607626,,,,,,,,,,,,./stim/wavs/mexican_match_declarative-broad-focus_Marta-abre-el-regalo.wav,0,,,71.2111,73.3774,0,1,1.644,,0,17,17,61,1,62,0,mexican,,,,,,,,,,,,,,,,,,,,,,,,,,,,,,,,,,,,,,,,,,,,,,,,,,,,,,,,
,,,,,,,,,,"Mexican, Spanish, Dominican",13 or older,"no, only English or Spanish",no,2025-07-24_12h24.46.847,empathy_intonation_perc_control,2024.2.4,MacIntel,60.60606061,657f1d06a2dc99584052f77f,68817205a84113384fffdfe3,68825e25a1b6a24e75607626,,,,,,,,,,,,./stim/wavs/mexican_mismatch_interrogative-total-yn_La-maestra-vive-en-Paris.wav,1,,,73.378,75.5607,1,1,1.6533,,0,18,18,36,1,37,0,mexican,,,,,,,,,,,,,,,,,,,,,,,,,,,,,,,,,,,,,,,,,,,,,,,,,,,,,,,,
,,,,,,,,,,"Mexican, Spanish, Dominican",13 or older,"no, only English or Spanish",no,2025-07-24_12h24.46.847,empathy_intonation_perc_control,2024.2.4,MacIntel,60.60606061,657f1d06a2dc99584052f77f,68817205a84113384fffdfe3,68825e25a1b6a24e75607626,,,,,,,,,,,,./stim/wavs/cuban_mismatch_declarative-broad-focus_El-bebe-comia-muy-bien.wav,0,,,75.5615,77.8102,0,1,1.7158,,0,19,19,73,1,74,0,cuban,,,,,,,,,,,,,,,,,,,,,,,,,,,,,,,,,,,,,,,,,,,,,,,,,,,,,,,,
,,,,,,,,,,"Mexican, Spanish, Dominican",13 or older,"no, only English or Spanish",no,2025-07-24_12h24.46.847,empathy_intonation_perc_control,2024.2.4,MacIntel,60.60606061,657f1d06a2dc99584052f77f,68817205a84113384fffdfe3,68825e25a1b6a24e75607626,,,,,,,,,,,,./stim/wavs/mexican_mismatch_declarative-broad-focus_Mi-novio-viene-del-lago.wav,0,,,77.811,79.8773,0,1,1.5324,,0,20,20,81,1,82,0,mexican,,,,,,,,,,,,,,,,,,,,,,,,,,,,,,,,,,,,,,,,,,,,,,,,,,,,,,,,
,,,,,,,,,,"Mexican, Spanish, Dominican",13 or older,"no, only English or Spanish",no,2025-07-24_12h24.46.847,empathy_intonation_perc_control,2024.2.4,MacIntel,60.60606061,657f1d06a2dc99584052f77f,68817205a84113384fffdfe3,68825e25a1b6a24e75607626,,,,,,,,,,,,./stim/wavs/mexican_match_declarative-broad-focus_Ana-lleva-el-abrigo.wav,0,,,79.8781,82.5764,0,1,2.1681,,0,21,21,56,1,57,0,mexican,,,,,,,,,,,,,,,,,,,,,,,,,,,,,,,,,,,,,,,,,,,,,,,,,,,,,,,,
,,,,,,,,,,"Mexican, Spanish, Dominican",13 or older,"no, only English or Spanish",no,2025-07-24_12h24.46.847,empathy_intonation_perc_control,2024.2.4,MacIntel,60.60606061,657f1d06a2dc99584052f77f,68817205a84113384fffdfe3,68825e25a1b6a24e75607626,,,,,,,,,,,,./stim/wavs/puertorican_mismatch_declarative-broad-focus_La-maestra-vive-en-Paris.wav,0,,,82.5772,84.6271,0,1,1.5369,,0,22,22,86,1,87,0,puertorican,,,,,,,,,,,,,,,,,,,,,,,,,,,,,,,,,,,,,,,,,,,,,,,,,,,,,,,,
,,,,,,,,,,"Mexican, Spanish, Dominican",13 or older,"no, only English or Spanish",no,2025-07-24_12h24.46.847,empathy_intonation_perc_control,2024.2.4,MacIntel,60.60606061,657f1d06a2dc99584052f77f,68817205a84113384fffdfe3,68825e25a1b6a24e75607626,,,,,,,,,,,,./stim/wavs/puertorican_match_declarative-broad-focus_Daniel-iba-a-Bolivia.wav,0,,,84.628,87.8105,1,0,2.6509,,0,23,23,63,1,64,0,puertorican,,,,,,,,,,,,,,,,,,,,,,,,,,,,,,,,,,,,,,,,,,,,,,,,,,,,,,,,
,,,,,,,,,,"Mexican, Spanish, Dominican",13 or older,"no, only English or Spanish",no,2025-07-24_12h24.46.847,empathy_intonation_perc_control,2024.2.4,MacIntel,60.60606061,657f1d06a2dc99584052f77f,68817205a84113384fffdfe3,68825e25a1b6a24e75607626,,,,,,,,,,,,./stim/wavs/mexican_match_interrogative-total-yn_Emilio-ama-la-marcha.wav,1,,,87.8114,89.894,1,1,1.5514,,0,24,24,15,1,16,0,mexican,,,,,,,,,,,,,,,,,,,,,,,,,,,,,,,,,,,,,,,,,,,,,,,,,,,,,,,,
,,,,,,,,,,"Mexican, Spanish, Dominican",13 or older,"no, only English or Spanish",no,2025-07-24_12h24.46.847,empathy_intonation_perc_control,2024.2.4,MacIntel,60.60606061,657f1d06a2dc99584052f77f,68817205a84113384fffdfe3,68825e25a1b6a24e75607626,,,,,,,,,,,,./stim/wavs/puertorican_match_declarative-broad-focus_Emilio-ama-la-marcha.wav,0,,,89.895,91.994,1,0,1.5679,,0,25,25,65,1,66,0,puertorican,,,,,,,,,,,,,,,,,,,,,,,,,,,,,,,,,,,,,,,,,,,,,,,,,,,,,,,,
,,,,,,,,,,"Mexican, Spanish, Dominican",13 or older,"no, only English or Spanish",no,2025-07-24_12h24.46.847,empathy_intonation_perc_control,2024.2.4,MacIntel,60.60606061,657f1d06a2dc99584052f77f,68817205a84113384fffdfe3,68825e25a1b6a24e75607626,,,,,,,,,,,,./stim/wavs/cuban_mismatch_interrogative-total-yn_Mi-madre-come-la-fruta.wav,1,,,91.9948,94.9939,0,0,2.467,,0,26,26,31,1,32,1,cuban,,,,,,,,,,,,,,,,,,,,,,,,,,,,,,,,,,,,,,,,,,,,,,,,,,,,,,,,
,,,,,,,,,,"Mexican, Spanish, Dominican",13 or older,"no, only English or Spanish",no,2025-07-24_12h24.46.847,empathy_intonation_perc_control,2024.2.4,MacIntel,60.60606061,657f1d06a2dc99584052f77f,68817205a84113384fffdfe3,68825e25a1b6a24e75607626,,,,,,,,,,,,./stim/wavs/mexican_match_declarative-broad-focus_David-leia-el-libro.wav,0,,,94.9949,97.6939,0,1,2.1669,,0,27,27,58,1,59,0,mexican,,,,,,,,,,,,,,,,,,,,,,,,,,,,,,,,,,,,,,,,,,,,,,,,,,,,,,,,
,,,,,,,,,,"Mexican, Spanish, Dominican",13 or older,"no, only English or Spanish",no,2025-07-24_12h24.46.847,empathy_intonation_perc_control,2024.2.4,MacIntel,60.60606061,657f1d06a2dc99584052f77f,68817205a84113384fffdfe3,68825e25a1b6a24e75607626,,,,,,,,,,,,./stim/wavs/castilian_mismatch_declarative-broad-focus_La-nina-lava-el-plato.wav,0,,,97.6948,101.1104,0,1,2.8852,,0,28,28,70,1,71,0,castilian,,,,,,,,,,,,,,,,,,,,,,,,,,,,,,,,,,,,,,,,,,,,,,,,,,,,,,,,
,,,,,,,,,,"Mexican, Spanish, Dominican",13 or older,"no, only English or Spanish",no,2025-07-24_12h24.46.847,empathy_intonation_perc_control,2024.2.4,MacIntel,60.60606061,657f1d06a2dc99584052f77f,68817205a84113384fffdfe3,68825e25a1b6a24e75607626,,,,,,,,,,,,./stim/wavs/mexican_mismatch_interrogative-total-yn_El-hombre-mira-la-luna.wav,1,,,101.1112,103.2103,1,1,1.5743,,0,29,29,34,1,35,0,mexican,,,,,,,,,,,,,,,,,,,,,,,,,,,,,,,,,,,,,,,,,,,,,,,,,,,,,,,,
,,,,,,,,,,"Mexican, Spanish, Dominican",13 or older,"no, only English or Spanish",no,2025-07-24_12h24.46.847,empathy_intonation_perc_control,2024.2.4,MacIntel,60.60606061,657f1d06a2dc99584052f77f,68817205a84113384fffdfe3,68825e25a1b6a24e75607626,,,,,,,,,,,,./stim/wavs/castilian_mismatch_interrogative-total-yn_Mi-novio-viene-del-lago.wav,1,,,103.211,105.4269,1,1,1.6841,,0,30,30,27,1,28,0,castilian,,,,,,,,,,,,,,,,,,,,,,,,,,,,,,,,,,,,,,,,,,,,,,,,,,,,,,,,
,,,,,,,,,,"Mexican, Spanish, Dominican",13 or older,"no, only English or Spanish",no,2025-07-24_12h24.46.847,empathy_intonation_perc_control,2024.2.4,MacIntel,60.60606061,657f1d06a2dc99584052f77f,68817205a84113384fffdfe3,68825e25a1b6a24e75607626,,,,,,,,,,,,./stim/wavs/mexican_match_interrogative-total-yn_Ana-lleva-el-abrigo.wav,1,,,105.4276,107.4097,1,1,1.4579,,0,31,31,12,1,13,0,mexican,,,,,,,,,,,,,,,,,,,,,,,,,,,,,,,,,,,,,,,,,,,,,,,,,,,,,,,,
,,,,,,,,,,"Mexican, Spanish, Dominican",13 or older,"no, only English or Spanish",no,2025-07-24_12h24.46.847,empathy_intonation_perc_control,2024.2.4,MacIntel,60.60606061,657f1d06a2dc99584052f77f,68817205a84113384fffdfe3,68825e25a1b6a24e75607626,,,,,,,,,,,,./stim/wavs/cuban_mismatch_declarative-broad-focus_La-nina-lava-el-plato.wav,0,,,107.4105,109.4437,0,1,1.5099,,0,32,32,75,1,76,0,cuban,,,,,,,,,,,,,,,,,,,,,,,,,,,,,,,,,,,,,,,,,,,,,,,,,,,,,,,,
,,,,,,,,,,"Mexican, Spanish, Dominican",13 or older,"no, only English or Spanish",no,2025-07-24_12h24.46.847,empathy_intonation_perc_control,2024.2.4,MacIntel,60.60606061,657f1d06a2dc99584052f77f,68817205a84113384fffdfe3,68825e25a1b6a24e75607626,,,,,,,,,,,,./stim/wavs/puertorican_mismatch_interrogative-total-yn_El-hombre-mira-la-luna.wav,1,,,109.4444,111.3935,1,1,1.4266,,0,33,33,39,1,40,1,puertorican,,,,,,,,,,,,,,,,,,,,,,,,,,,,,,,,,,,,,,,,,,,,,,,,,,,,,,,,
,,,,,,,,,,"Mexican, Spanish, Dominican",13 or older,"no, only English or Spanish",no,2025-07-24_12h24.46.847,empathy_intonation_perc_control,2024.2.4,MacIntel,60.60606061,657f1d06a2dc99584052f77f,68817205a84113384fffdfe3,68825e25a1b6a24e75607626,,,,,,,,,,,,./stim/wavs/castilian_match_interrogative-total-yn_Manuela-vende-el-carro.wav,1,,,111.394,114.0604,1,1,2.1343,,0,34,34,2,1,3,0,castilian,,,,,,,,,,,,,,,,,,,,,,,,,,,,,,,,,,,,,,,,,,,,,,,,,,,,,,,,
,,,,,,,,,,"Mexican, Spanish, Dominican",13 or older,"no, only English or Spanish",no,2025-07-24_12h24.46.847,empathy_intonation_perc_control,2024.2.4,MacIntel,60.60606061,657f1d06a2dc99584052f77f,68817205a84113384fffdfe3,68825e25a1b6a24e75607626,,,,,,,,,,,,./stim/wavs/cuban_match_declarative-broad-focus_Maria-bebe-el-vino.wav,0,,,114.0614,116.1103,0,1,1.5171,,0,35,35,53,1,54,0,cuban,,,,,,,,,,,,,,,,,,,,,,,,,,,,,,,,,,,,,,,,,,,,,,,,,,,,,,,,
,,,,,,,,,,"Mexican, Spanish, Dominican",13 or older,"no, only English or Spanish",no,2025-07-24_12h24.46.847,empathy_intonation_perc_control,2024.2.4,MacIntel,60.60606061,657f1d06a2dc99584052f77f,68817205a84113384fffdfe3,68825e25a1b6a24e75607626,,,,,,,,,,,,./stim/wavs/puertorican_match_interrogative-total-yn_Manuela-vende-el-carro.wav,1,,,116.1111,117.9437,1,1,1.3003,,0,36,36,22,1,23,1,puertorican,,,,,,,,,,,,,,,,,,,,,,,,,,,,,,,,,,,,,,,,,,,,,,,,,,,,,,,,
,,,,,,,,,,"Mexican, Spanish, Dominican",13 or older,"no, only English or Spanish",no,2025-07-24_12h24.46.847,empathy_intonation_perc_control,2024.2.4,MacIntel,60.60606061,657f1d06a2dc99584052f77f,68817205a84113384fffdfe3,68825e25a1b6a24e75607626,,,,,,,,,,,,./stim/wavs/mexican_mismatch_declarative-broad-focus_El-bebe-comia-muy-bien.wav,0,,,117.9446,120.1262,0,1,1.6505,,0,37,37,78,1,79,0,mexican,,,,,,,,,,,,,,,,,,,,,,,,,,,,,,,,,,,,,,,,,,,,,,,,,,,,,,,,
,,,,,,,,,,"Mexican, Spanish, Dominican",13 or older,"no, only English or Spanish",no,2025-07-24_12h24.46.847,empathy_intonation_perc_control,2024.2.4,MacIntel,60.60606061,657f1d06a2dc99584052f77f,68817205a84113384fffdfe3,68825e25a1b6a24e75607626,,,,,,,,,,,,./stim/wavs/puertorican_match_declarative-broad-focus_David-leia-el-libro.wav,0,,,120.127,122.3603,0,1,1.7178,,0,38,38,64,1,65,0,puertorican,,,,,,,,,,,,,,,,,,,,,,,,,,,,,,,,,,,,,,,,,,,,,,,,,,,,,,,,
,,,,,,,,,,"Mexican, Spanish, Dominican",13 or older,"no, only English or Spanish",no,2025-07-24_12h24.46.847,empathy_intonation_perc_control,2024.2.4,MacIntel,60.60606061,657f1d06a2dc99584052f77f,68817205a84113384fffdfe3,68825e25a1b6a24e75607626,,,,,,,,,,,,./stim/wavs/puertorican_match_declarative-broad-focus_Maria-bebe-el-vino.wav,0,,,122.361,124.3933,0,1,1.4999,,0,39,39,67,1,68,0,puertorican,,,,,,,,,,,,,,,,,,,,,,,,,,,,,,,,,,,,,,,,,,,,,,,,,,,,,,,,
,,,,,,,,,,"Mexican, Spanish, Dominican",13 or older,"no, only English or Spanish",no,2025-07-24_12h24.46.847,empathy_intonation_perc_control,2024.2.4,MacIntel,60.60606061,657f1d06a2dc99584052f77f,68817205a84113384fffdfe3,68825e25a1b6a24e75607626,,,,,,,,,,,,./stim/wavs/castilian_match_declarative-broad-focus_Maria-bebe-el-vino.wav,0,,,124.3941,126.2104,1,0,1.2839,,0,40,40,47,1,48,0,castilian,,,,,,,,,,,,,,,,,,,,,,,,,,,,,,,,,,,,,,,,,,,,,,,,,,,,,,,,
,,,,,,,,,,"Mexican, Spanish, Dominican",13 or older,"no, only English or Spanish",no,2025-07-24_12h24.46.847,empathy_intonation_perc_control,2024.2.4,MacIntel,60.60606061,657f1d06a2dc99584052f77f,68817205a84113384fffdfe3,68825e25a1b6a24e75607626,,,,,,,,,,,,./stim/wavs/castilian_match_declarative-broad-focus_Marta-abre-el-regalo.wav,0,,,126.2115,128.326,0,1,1.5914,,0,41,41,49,1,50,0,castilian,,,,,,,,,,,,,,,,,,,,,,,,,,,,,,,,,,,,,,,,,,,,,,,,,,,,,,,,
,,,,,,,,,,"Mexican, Spanish, Dominican",13 or older,"no, only English or Spanish",no,2025-07-24_12h24.46.847,empathy_intonation_perc_control,2024.2.4,MacIntel,60.60606061,657f1d06a2dc99584052f77f,68817205a84113384fffdfe3,68825e25a1b6a24e75607626,,,,,,,,,,,,./stim/wavs/cuban_match_interrogative-total-yn_Manuela-vende-el-carro.wav,1,,,128.3267,130.1934,0,0,1.3597,,0,42,42,8,1,9,1,cuban,,,,,,,,,,,,,,,,,,,,,,,,,,,,,,,,,,,,,,,,,,,,,,,,,,,,,,,,
,,,,,,,,,,"Mexican, Spanish, Dominican",13 or older,"no, only English or Spanish",no,2025-07-24_12h24.46.847,empathy_intonation_perc_control,2024.2.4,MacIntel,60.60606061,657f1d06a2dc99584052f77f,68817205a84113384fffdfe3,68825e25a1b6a24e75607626,,,,,,,,,,,,./stim/wavs/cuban_match_interrogative-total-yn_Marta-abre-el-regalo.wav,1,,,130.1941,132.1269,0,0,1.4001,,0,43,43,11,1,12,1,cuban,,,,,,,,,,,,,,,,,,,,,,,,,,,,,,,,,,,,,,,,,,,,,,,,,,,,,,,,
,,,,,,,,,,"Mexican, Spanish, Dominican",13 or older,"no, only English or Spanish",no,2025-07-24_12h24.46.847,empathy_intonation_perc_control,2024.2.4,MacIntel,60.60606061,657f1d06a2dc99584052f77f,68817205a84113384fffdfe3,68825e25a1b6a24e75607626,,,,,,,,,,,,./stim/wavs/cuban_match_declarative-broad-focus_Mariano-habla-del-tiempo.wav,0,,,132.1277,134.4101,0,1,1.7515,,0,44,44,54,1,55,0,cuban,,,,,,,,,,,,,,,,,,,,,,,,,,,,,,,,,,,,,,,,,,,,,,,,,,,,,,,,
,,,,,,,,,,"Mexican, Spanish, Dominican",13 or older,"no, only English or Spanish",no,2025-07-24_12h24.46.847,empathy_intonation_perc_control,2024.2.4,MacIntel,60.60606061,657f1d06a2dc99584052f77f,68817205a84113384fffdfe3,68825e25a1b6a24e75607626,,,,,,,,,,,,./stim/wavs/mexican_mismatch_interrogative-total-yn_Mi-novio-viene-del-lago.wav,1,,,134.4109,136.3434,1,1,1.408,,0,45,45,37,1,38,0,mexican,,,,,,,,,,,,,,,,,,,,,,,,,,,,,,,,,,,,,,,,,,,,,,,,,,,,,,,,
,,,,,,,,,,"Mexican, Spanish, Dominican",13 or older,"no, only English or Spanish",no,2025-07-24_12h24.46.847,empathy_intonation_perc_control,2024.2.4,MacIntel,60.60606061,657f1d06a2dc99584052f77f,68817205a84113384fffdfe3,68825e25a1b6a24e75607626,,,,,,,,,,,,./stim/wavs/castilian_match_declarative-broad-focus_Emilio-ama-la-marcha.wav,0,,,136.344,138.46,0,1,1.5938,,0,46,46,45,1,46,0,castilian,,,,,,,,,,,,,,,,,,,,,,,,,,,,,,,,,,,,,,,,,,,,,,,,,,,,,,,,
,,,,,,,,,,"Mexican, Spanish, Dominican",13 or older,"no, only English or Spanish",no,2025-07-24_12h24.46.847,empathy_intonation_perc_control,2024.2.4,MacIntel,60.60606061,657f1d06a2dc99584052f77f,68817205a84113384fffdfe3,68825e25a1b6a24e75607626,,,,,,,,,,,,./stim/wavs/castilian_mismatch_declarative-broad-focus_Mi-tia-odia-la-lluvia.wav,0,,,138.4607,140.5927,0,1,1.601,,0,47,47,72,1,73,0,castilian,,,,,,,,,,,,,,,,,,,,,,,,,,,,,,,,,,,,,,,,,,,,,,,,,,,,,,,,
,,,,,,,,,,"Mexican, Spanish, Dominican",13 or older,"no, only English or Spanish",no,2025-07-24_12h24.46.847,empathy_intonation_perc_control,2024.2.4,MacIntel,60.60606061,657f1d06a2dc99584052f77f,68817205a84113384fffdfe3,68825e25a1b6a24e75607626,,,,,,,,,,,,./stim/wavs/mexican_match_declarative-broad-focus_Daniel-iba-a-Bolivia.wav,0,,,140.5937,142.5261,0,1,1.4003,,0,48,48,57,1,58,0,mexican,,,,,,,,,,,,,,,,,,,,,,,,,,,,,,,,,,,,,,,,,,,,,,,,,,,,,,,,
,,,,,,,,,,"Mexican, Spanish, Dominican",13 or older,"no, only English or Spanish",no,2025-07-24_12h24.46.847,empathy_intonation_perc_control,2024.2.4,MacIntel,60.60606061,657f1d06a2dc99584052f77f,68817205a84113384fffdfe3,68825e25a1b6a24e75607626,,,,,,,,,,,,./stim/wavs/castilian_match_declarative-broad-focus_David-leia-el-libro.wav,0,,,142.5269,144.7769,0,1,1.7181,,0,49,49,44,1,45,0,castilian,,,,,,,,,,,,,,,,,,,,,,,,,,,,,,,,,,,,,,,,,,,,,,,,,,,,,,,,
,,,,,,,,,,"Mexican, Spanish, Dominican",13 or older,"no, only English or Spanish",no,2025-07-24_12h24.46.847,empathy_intonation_perc_control,2024.2.4,MacIntel,60.60606061,657f1d06a2dc99584052f77f,68817205a84113384fffdfe3,68825e25a1b6a24e75607626,,,,,,,,,,,,./stim/wavs/mexican_match_interrogative-total-yn_Marta-abre-el-regalo.wav,1,,,144.7778,146.7267,0,0,1.4172,,0,50,50,17,1,18,0,mexican,,,,,,,,,,,,,,,,,,,,,,,,,,,,,,,,,,,,,,,,,,,,,,,,,,,,,,,,
,,,,,,,,,,"Mexican, Spanish, Dominican",13 or older,"no, only English or Spanish",no,2025-07-24_12h24.46.847,empathy_intonation_perc_control,2024.2.4,MacIntel,60.60606061,657f1d06a2dc99584052f77f,68817205a84113384fffdfe3,68825e25a1b6a24e75607626,,,,,,,,,,,,./stim/wavs/puertorican_mismatch_declarative-broad-focus_La-nina-lava-el-plato.wav,0,,,146.7274,148.6594,0,1,1.409,,0,51,51,87,1,88,0,puertorican,,,,,,,,,,,,,,,,,,,,,,,,,,,,,,,,,,,,,,,,,,,,,,,,,,,,,,,,
,,,,,,,,,,"Mexican, Spanish, Dominican",13 or older,"no, only English or Spanish",no,2025-07-24_12h24.46.847,empathy_intonation_perc_control,2024.2.4,MacIntel,60.60606061,657f1d06a2dc99584052f77f,68817205a84113384fffdfe3,68825e25a1b6a24e75607626,,,,,,,,,,,,./stim/wavs/cuban_match_declarative-broad-focus_Daniel-iba-a-Bolivia.wav,0,,,148.6601,150.4934,0,1,1.301,,0,52,52,51,1,52,0,cuban,,,,,,,,,,,,,,,,,,,,,,,,,,,,,,,,,,,,,,,,,,,,,,,,,,,,,,,,
,,,,,,,,,,"Mexican, Spanish, Dominican",13 or older,"no, only English or Spanish",no,2025-07-24_12h24.46.847,empathy_intonation_perc_control,2024.2.4,MacIntel,60.60606061,657f1d06a2dc99584052f77f,68817205a84113384fffdfe3,68825e25a1b6a24e75607626,,,,,,,,,,,,./stim/wavs/castilian_match_interrogative-total-yn_Mariano-habla-del-tiempo.wav,1,,,150.4942,152.6425,1,1,1.6174,,0,53,53,4,1,5,0,castilian,,,,,,,,,,,,,,,,,,,,,,,,,,,,,,,,,,,,,,,,,,,,,,,,,,,,,,,,
,,,,,,,,,,"Mexican, Spanish, Dominican",13 or older,"no, only English or Spanish",no,2025-07-24_12h24.46.847,empathy_intonation_perc_control,2024.2.4,MacIntel,60.60606061,657f1d06a2dc99584052f77f,68817205a84113384fffdfe3,68825e25a1b6a24e75607626,,,,,,,,,,,,./stim/wavs/puertorican_match_declarative-broad-focus_Ana-lleva-el-abrigo.wav,0,,,152.6433,154.71,0,1,1.5342,,0,54,54,62,1,63,0,puertorican,,,,,,,,,,,,,,,,,,,,,,,,,,,,,,,,,,,,,,,,,,,,,,,,,,,,,,,,
,,,,,,,,,,"Mexican, Spanish, Dominican",13 or older,"no, only English or Spanish",no,2025-07-24_12h24.46.847,empathy_intonation_perc_control,2024.2.4,MacIntel,60.60606061,657f1d06a2dc99584052f77f,68817205a84113384fffdfe3,68825e25a1b6a24e75607626,,,,,,,,,,,,./stim/wavs/puertorican_match_interrogative-total-yn_Maria-bebe-el-vino.wav,1,,,154.7108,157.2432,1,1,2.0035,,0,55,55,23,1,24,1,puertorican,,,,,,,,,,,,,,,,,,,,,,,,,,,,,,,,,,,,,,,,,,,,,,,,,,,,,,,,
,,,,,,,,,,"Mexican, Spanish, Dominican",13 or older,"no, only English or Spanish",no,2025-07-24_12h24.46.847,empathy_intonation_perc_control,2024.2.4,MacIntel,60.60606061,657f1d06a2dc99584052f77f,68817205a84113384fffdfe3,68825e25a1b6a24e75607626,,,,,,,,,,,,./stim/wavs/castilian_mismatch_declarative-broad-focus_El-nino-oye-el-rio.wav,0,,,157.244,159.3766,0,1,1.6003,,0,56,56,68,1,69,0,castilian,,,,,,,,,,,,,,,,,,,,,,,,,,,,,,,,,,,,,,,,,,,,,,,,,,,,,,,,
,,,,,,,,,,"Mexican, Spanish, Dominican",13 or older,"no, only English or Spanish",no,2025-07-24_12h24.46.847,empathy_intonation_perc_control,2024.2.4,MacIntel,60.60606061,657f1d06a2dc99584052f77f,68817205a84113384fffdfe3,68825e25a1b6a24e75607626,,,,,,,,,,,,./stim/wavs/castilian_mismatch_interrogative-total-yn_La-maestra-vive-en-Paris.wav,1,,,159.3774,162.4762,1,1,2.5706,,0,57,57,24,1,25,0,castilian,,,,,,,,,,,,,,,,,,,,,,,,,,,,,,,,,,,,,,,,,,,,,,,,,,,,,,,,
,,,,,,,,,,"Mexican, Spanish, Dominican",13 or older,"no, only English or Spanish",no,2025-07-24_12h24.46.847,empathy_intonation_perc_control,2024.2.4,MacIntel,60.60606061,657f1d06a2dc99584052f77f,68817205a84113384fffdfe3,68825e25a1b6a24e75607626,,,,,,,,,,,,./stim/wavs/mexican_match_declarative-broad-focus_Mariano-habla-del-tiempo.wav,0,,,162.477,164.9433,0,1,1.9339,,0,58,58,60,1,61,0,mexican,,,,,,,,,,,,,,,,,,,,,,,,,,,,,,,,,,,,,,,,,,,,,,,,,,,,,,,,
,,,,,,,,,,"Mexican, Spanish, Dominican",13 or older,"no, only English or Spanish",no,2025-07-24_12h24.46.847,empathy_intonation_perc_control,2024.2.4,MacIntel,60.60606061,657f1d06a2dc99584052f77f,68817205a84113384fffdfe3,68825e25a1b6a24e75607626,,,,,,,,,,,,./stim/wavs/castilian_mismatch_declarative-broad-focus_Mi-novio-viene-del-lago.wav,0,,,164.9441,167.1098,0,1,1.633,,0,59,59,71,1,72,0,castilian,,,,,,,,,,,,,,,,,,,,,,,,,,,,,,,,,,,,,,,,,,,,,,,,,,,,,,,,
,,,,,,,,,,"Mexican, Spanish, Dominican",13 or older,"no, only English or Spanish",no,2025-07-24_12h24.46.847,empathy_intonation_perc_control,2024.2.4,MacIntel,60.60606061,657f1d06a2dc99584052f77f,68817205a84113384fffdfe3,68825e25a1b6a24e75607626,,,,,,,,,,,,./stim/wavs/mexican_match_interrogative-total-yn_Mariano-habla-del-tiempo.wav,1,,,167.1106,169.3096,1,1,1.6732,,0,60,60,16,1,17,0,mexican,,,,,,,,,,,,,,,,,,,,,,,,,,,,,,,,,,,,,,,,,,,,,,,,,,,,,,,,
,,,,,,,,,,"Mexican, Spanish, Dominican",13 or older,"no, only English or Spanish",no,2025-07-24_12h24.46.847,empathy_intonation_perc_control,2024.2.4,MacIntel,60.60606061,657f1d06a2dc99584052f77f,68817205a84113384fffdfe3,68825e25a1b6a24e75607626,,,,,,,,,,,,./stim/wavs/castilian_mismatch_interrogative-total-yn_La-nina-lava-el-plato.wav,1,,,169.31,171.8096,1,1,1.9674,,0,61,61,25,1,26,0,castilian,,,,,,,,,,,,,,,,,,,,,,,,,,,,,,,,,,,,,,,,,,,,,,,,,,,,,,,,
,,,,,,,,,,"Mexican, Spanish, Dominican",13 or older,"no, only English or Spanish",no,2025-07-24_12h24.46.847,empathy_intonation_perc_control,2024.2.4,MacIntel,60.60606061,657f1d06a2dc99584052f77f,68817205a84113384fffdfe3,68825e25a1b6a24e75607626,,,,,,,,,,,,./stim/wavs/puertorican_mismatch_interrogative-total-yn_La-nina-lava-el-plato.wav,1,,,171.8104,174.1103,0,0,1.779,,0,62,62,42,1,43,1,puertorican,,,,,,,,,,,,,,,,,,,,,,,,,,,,,,,,,,,,,,,,,,,,,,,,,,,,,,,,
,,,,,,,,,,"Mexican, Spanish, Dominican",13 or older,"no, only English or Spanish",no,2025-07-24_12h24.46.847,empathy_intonation_perc_control,2024.2.4,MacIntel,60.60606061,657f1d06a2dc99584052f77f,68817205a84113384fffdfe3,68825e25a1b6a24e75607626,,,,,,,,,,,,./stim/wavs/cuban_mismatch_interrogative-total-yn_El-hombre-mira-la-luna.wav,1,,,174.1109,174.7094,0,0,0.0672,,0,63,63,29,1,30,1,cuban,,,,,,,,,,,,,,,,,,,,,,,,,,,,,,,,,,,,,,,,,,,,,,,,,,,,,,,,
,,,,,,,,,,"Mexican, Spanish, Dominican",13 or older,"no, only English or Spanish",no,2025-07-24_12h24.46.847,empathy_intonation_perc_control,2024.2.4,MacIntel,60.60606061,657f1d06a2dc99584052f77f,68817205a84113384fffdfe3,68825e25a1b6a24e75607626,,,,,,,,,,,,./stim/wavs/puertorican_match_declarative-broad-focus_Manuela-vende-el-carro.wav,0,,,174.7103,177.8764,1,0,2.6335,,0,64,64,66,1,67,0,puertorican,,,,,,,,,,,,,,,,,,,,,,,,,,,,,,,,,,,,,,,,,,,,,,,,,,,,,,,,
,,,,,,,,,,"Mexican, Spanish, Dominican",13 or older,"no, only English or Spanish",no,2025-07-24_12h24.46.847,empathy_intonation_perc_control,2024.2.4,MacIntel,60.60606061,657f1d06a2dc99584052f77f,68817205a84113384fffdfe3,68825e25a1b6a24e75607626,,,,,,,,,,,,./stim/wavs/puertorican_match_interrogative-total-yn_Ana-lleva-el-abrigo.wav,1,,,177.8773,179.6765,1,1,1.2669,,0,65,65,18,1,19,1,puertorican,,,,,,,,,,,,,,,,,,,,,,,,,,,,,,,,,,,,,,,,,,,,,,,,,,,,,,,,
,,,,,,,,,,"Mexican, Spanish, Dominican",13 or older,"no, only English or Spanish",no,2025-07-24_12h24.46.847,empathy_intonation_perc_control,2024.2.4,MacIntel,60.60606061,657f1d06a2dc99584052f77f,68817205a84113384fffdfe3,68825e25a1b6a24e75607626,,,,,,,,,,,,./stim/wavs/puertorican_mismatch_declarative-broad-focus_El-nino-oye-el-rio.wav,0,,,179.6772,182.193,1,0,1.994,,0,66,66,85,1,86,0,puertorican,,,,,,,,,,,,,,,,,,,,,,,,,,,,,,,,,,,,,,,,,,,,,,,,,,,,,,,,
,,,,,,,,,,"Mexican, Spanish, Dominican",13 or older,"no, only English or Spanish",no,2025-07-24_12h24.46.847,empathy_intonation_perc_control,2024.2.4,MacIntel,60.60606061,657f1d06a2dc99584052f77f,68817205a84113384fffdfe3,68825e25a1b6a24e75607626,,,,,,,,,,,,./stim/wavs/cuban_mismatch_interrogative-total-yn_El-nino-oye-el-rio.wav,1,,,182.194,184.2265,1,1,1.5037,,0,67,67,30,1,31,1,cuban,,,,,,,,,,,,,,,,,,,,,,,,,,,,,,,,,,,,,,,,,,,,,,,,,,,,,,,,
,,,,,,,,,,"Mexican, Spanish, Dominican",13 or older,"no, only English or Spanish",no,2025-07-24_12h24.46.847,empathy_intonation_perc_control,2024.2.4,MacIntel,60.60606061,657f1d06a2dc99584052f77f,68817205a84113384fffdfe3,68825e25a1b6a24e75607626,,,,,,,,,,,,./stim/wavs/mexican_mismatch_declarative-broad-focus_La-maestra-vive-en-Paris.wav,0,,,184.2274,186.5598,0,1,1.801,,0,68,68,80,1,81,0,mexican,,,,,,,,,,,,,,,,,,,,,,,,,,,,,,,,,,,,,,,,,,,,,,,,,,,,,,,,
,,,,,,,,,,"Mexican, Spanish, Dominican",13 or older,"no, only English or Spanish",no,2025-07-24_12h24.46.847,empathy_intonation_perc_control,2024.2.4,MacIntel,60.60606061,657f1d06a2dc99584052f77f,68817205a84113384fffdfe3,68825e25a1b6a24e75607626,,,,,,,,,,,,./stim/wavs/castilian_match_interrogative-total-yn_Marta-abre-el-regalo.wav,1,,,186.5605,189.0764,1,1,1.9836,,0,69,69,5,1,6,0,castilian,,,,,,,,,,,,,,,,,,,,,,,,,,,,,,,,,,,,,,,,,,,,,,,,,,,,,,,,
,,,,,,,,,,"Mexican, Spanish, Dominican",13 or older,"no, only English or Spanish",no,2025-07-24_12h24.46.847,empathy_intonation_perc_control,2024.2.4,MacIntel,60.60606061,657f1d06a2dc99584052f77f,68817205a84113384fffdfe3,68825e25a1b6a24e75607626,,,,,,,,,,,,./stim/wavs/puertorican_mismatch_interrogative-total-yn_Mi-madre-come-la-fruta.wav,1,,,189.0773,191.2264,0,0,1.6168,,0,70,70,43,1,44,1,puertorican,,,,,,,,,,,,,,,,,,,,,,,,,,,,,,,,,,,,,,,,,,,,,,,,,,,,,,,,
,,,,,,,,,,"Mexican, Spanish, Dominican",13 or older,"no, only English or Spanish",no,2025-07-24_12h24.46.847,empathy_intonation_perc_control,2024.2.4,MacIntel,60.60606061,657f1d06a2dc99584052f77f,68817205a84113384fffdfe3,68825e25a1b6a24e75607626,,,,,,,,,,,,./stim/wavs/castilian_match_declarative-broad-focus_Manuela-vende-el-carro.wav,0,,,191.2271,193.7597,0,1,2.0007,,0,71,71,46,1,47,0,castilian,,,,,,,,,,,,,,,,,,,,,,,,,,,,,,,,,,,,,,,,,,,,,,,,,,,,,,,,
,,,,,,,,,,"Mexican, Spanish, Dominican",13 or older,"no, only English or Spanish",no,2025-07-24_12h24.46.847,empathy_intonation_perc_control,2024.2.4,MacIntel,60.60606061,657f1d06a2dc99584052f77f,68817205a84113384fffdfe3,68825e25a1b6a24e75607626,,,,,,,,,,,,./stim/wavs/castilian_match_interrogative-total-yn_David-leia-el-libro.wav,1,,,193.7605,196.1427,1,1,1.8504,,0,72,72,0,1,1,0,castilian,,,,,,,,,,,,,,,,,,,,,,,,,,,,,,,,,,,,,,,,,,,,,,,,,,,,,,,,
,,,,,,,,,,"Mexican, Spanish, Dominican",13 or older,"no, only English or Spanish",no,2025-07-24_12h24.46.847,empathy_intonation_perc_control,2024.2.4,MacIntel,60.60606061,657f1d06a2dc99584052f77f,68817205a84113384fffdfe3,68825e25a1b6a24e75607626,,,,,,,,,,,,./stim/wavs/cuban_mismatch_declarative-broad-focus_Mi-tia-odia-la-lluvia.wav,0,,,196.1434,198.5428,0,1,1.8778,,0,73,73,77,1,78,0,cuban,,,,,,,,,,,,,,,,,,,,,,,,,,,,,,,,,,,,,,,,,,,,,,,,,,,,,,,,
,,,,,,,,,,"Mexican, Spanish, Dominican",13 or older,"no, only English or Spanish",no,2025-07-24_12h24.46.847,empathy_intonation_perc_control,2024.2.4,MacIntel,60.60606061,657f1d06a2dc99584052f77f,68817205a84113384fffdfe3,68825e25a1b6a24e75607626,,,,,,,,,,,,./stim/wavs/puertorican_mismatch_declarative-broad-focus_El-bebe-comia-muy-bien.wav,0,,,198.5435,200.8263,0,1,1.7597,,0,74,74,83,1,84,0,puertorican,,,,,,,,,,,,,,,,,,,,,,,,,,,,,,,,,,,,,,,,,,,,,,,,,,,,,,,,
,,,,,,,,,,"Mexican, Spanish, Dominican",13 or older,"no, only English or Spanish",no,2025-07-24_12h24.46.847,empathy_intonation_perc_control,2024.2.4,MacIntel,60.60606061,657f1d06a2dc99584052f77f,68817205a84113384fffdfe3,68825e25a1b6a24e75607626,,,,,,,,,,,,./stim/wavs/cuban_match_declarative-broad-focus_Manuela-vende-el-carro.wav,0,,,200.8271,202.7596,0,1,1.4101,,0,75,75,52,1,53,0,cuban,,,,,,,,,,,,,,,,,,,,,,,,,,,,,,,,,,,,,,,,,,,,,,,,,,,,,,,,
,,,,,,,,,,"Mexican, Spanish, Dominican",13 or older,"no, only English or Spanish",no,2025-07-24_12h24.46.847,empathy_intonation_perc_control,2024.2.4,MacIntel,60.60606061,657f1d06a2dc99584052f77f,68817205a84113384fffdfe3,68825e25a1b6a24e75607626,,,,,,,,,,,,./stim/wavs/cuban_match_interrogative-total-yn_Mariano-habla-del-tiempo.wav,1,,,202.7603,205.3752,0,0,2.083,,0,76,76,10,1,11,1,cuban,,,,,,,,,,,,,,,,,,,,,,,,,,,,,,,,,,,,,,,,,,,,,,,,,,,,,,,,
,,,,,,,,,,"Mexican, Spanish, Dominican",13 or older,"no, only English or Spanish",no,2025-07-24_12h24.46.847,empathy_intonation_perc_control,2024.2.4,MacIntel,60.60606061,657f1d06a2dc99584052f77f,68817205a84113384fffdfe3,68825e25a1b6a24e75607626,,,,,,,,,,,,./stim/wavs/castilian_mismatch_interrogative-total-yn_Mi-madre-come-la-fruta.wav,1,,,205.376,206.9428,1,1,1.0505,,0,77,77,26,1,27,0,castilian,,,,,,,,,,,,,,,,,,,,,,,,,,,,,,,,,,,,,,,,,,,,,,,,,,,,,,,,
,,,,,,,,,,"Mexican, Spanish, Dominican",13 or older,"no, only English or Spanish",no,2025-07-24_12h24.46.847,empathy_intonation_perc_control,2024.2.4,MacIntel,60.60606061,657f1d06a2dc99584052f77f,68817205a84113384fffdfe3,68825e25a1b6a24e75607626,,,,,,,,,,,,./stim/wavs/puertorican_match_interrogative-total-yn_Daniel-iba-a-Bolivia.wav,1,,,206.9437,209.2419,0,0,1.7659,,0,78,78,19,1,20,1,puertorican,,,,,,,,,,,,,,,,,,,,,,,,,,,,,,,,,,,,,,,,,,,,,,,,,,,,,,,,
,,,,,,,,,,"Mexican, Spanish, Dominican",13 or older,"no, only English or Spanish",no,2025-07-24_12h24.46.847,empathy_intonation_perc_control,2024.2.4,MacIntel,60.60606061,657f1d06a2dc99584052f77f,68817205a84113384fffdfe3,68825e25a1b6a24e75607626,,,,,,,,,,,,./stim/wavs/castilian_match_interrogative-total-yn_Emilio-ama-la-marcha.wav,1,,,209.2427,211.6092,1,1,1.8574,,0,79,79,1,1,2,0,castilian,,,,,,,,,,,,,,,,,,,,,,,,,,,,,,,,,,,,,,,,,,,,,,,,,,,,,,,,
,,,,,,,,,,"Mexican, Spanish, Dominican",13 or older,"no, only English or Spanish",no,2025-07-24_12h24.46.847,empathy_intonation_perc_control,2024.2.4,MacIntel,60.60606061,657f1d06a2dc99584052f77f,68817205a84113384fffdfe3,68825e25a1b6a24e75607626,,,,,,,,,,,,./stim/wavs/mexican_match_interrogative-total-yn_David-leia-el-libro.wav,1,,,211.6099,213.7928,0,0,1.6507,,0,80,80,14,1,15,0,mexican,,,,,,,,,,,,,,,,,,,,,,,,,,,,,,,,,,,,,,,,,,,,,,,,,,,,,,,,
,,,,,,,,,,"Mexican, Spanish, Dominican",13 or older,"no, only English or Spanish",no,2025-07-24_12h24.46.847,empathy_intonation_perc_control,2024.2.4,MacIntel,60.60606061,657f1d06a2dc99584052f77f,68817205a84113384fffdfe3,68825e25a1b6a24e75607626,,,,,,,,,,,,./stim/wavs/castilian_mismatch_declarative-broad-focus_La-maestra-vive-en-Paris.wav,0,,,213.7936,216.1761,0,1,1.8526,,0,81,81,69,1,70,0,castilian,,,,,,,,,,,,,,,,,,,,,,,,,,,,,,,,,,,,,,,,,,,,,,,,,,,,,,,,
,,,,,,,,,,"Mexican, Spanish, Dominican",13 or older,"no, only English or Spanish",no,2025-07-24_12h24.46.847,empathy_intonation_perc_control,2024.2.4,MacIntel,60.60606061,657f1d06a2dc99584052f77f,68817205a84113384fffdfe3,68825e25a1b6a24e75607626,,,,,,,,,,,,./stim/wavs/mexican_mismatch_interrogative-total-yn_El-nino-oye-el-rio.wav,1,,,216.1768,218.1761,1,1,1.4676,,0,82,82,35,1,36,0,mexican,,,,,,,,,,,,,,,,,,,,,,,,,,,,,,,,,,,,,,,,,,,,,,,,,,,,,,,,
,,,,,,,,,,"Mexican, Spanish, Dominican",13 or older,"no, only English or Spanish",no,2025-07-24_12h24.46.847,empathy_intonation_perc_control,2024.2.4,MacIntel,60.60606061,657f1d06a2dc99584052f77f,68817205a84113384fffdfe3,68825e25a1b6a24e75607626,,,,,,,,,,,,./stim/wavs/puertorican_mismatch_declarative-broad-focus_El-hombre-mira-la-luna.wav,0,,,218.1769,220.1427,0,1,1.4342,,0,83,83,84,1,85,0,puertorican,,,,,,,,,,,,,,,,,,,,,,,,,,,,,,,,,,,,,,,,,,,,,,,,,,,,,,,,
,,,,,,,,,,"Mexican, Spanish, Dominican",13 or older,"no, only English or Spanish",no,2025-07-24_12h24.46.847,empathy_intonation_perc_control,2024.2.4,MacIntel,60.60606061,657f1d06a2dc99584052f77f,68817205a84113384fffdfe3,68825e25a1b6a24e75607626,,,,,,,,,,,,./stim/wavs/puertorican_match_interrogative-total-yn_Emilio-ama-la-marcha.wav,1,,,220.1434,222.4427,0,0,1.7671,,0,84,84,21,1,22,1,puertorican,,,,,,,,,,,,,,,,,,,,,,,,,,,,,,,,,,,,,,,,,,,,,,,,,,,,,,,,
,,,,,,,,,,"Mexican, Spanish, Dominican",13 or older,"no, only English or Spanish",no,2025-07-24_12h24.46.847,empathy_intonation_perc_control,2024.2.4,MacIntel,60.60606061,657f1d06a2dc99584052f77f,68817205a84113384fffdfe3,68825e25a1b6a24e75607626,,,,,,,,,,,,./stim/wavs/cuban_match_interrogative-total-yn_Maria-bebe-el-vino.wav,1,,,222.4436,223.826,0,0,0.8503,,0,85,85,9,1,10,1,cuban,,,,,,,,,,,,,,,,,,,,,,,,,,,,,,,,,,,,,,,,,,,,,,,,,,,,,,,,
,,,,,,,,,,"Mexican, Spanish, Dominican",13 or older,"no, only English or Spanish",no,2025-07-24_12h24.46.847,empathy_intonation_perc_control,2024.2.4,MacIntel,60.60606061,657f1d06a2dc99584052f77f,68817205a84113384fffdfe3,68825e25a1b6a24e75607626,,,,,,,,,,,,./stim/wavs/mexican_mismatch_declarative-broad-focus_El-hombre-mira-la-luna.wav,0,,,223.8268,226.3585,0,1,1.9995,,0,86,86,79,1,80,0,mexican,,,,,,,,,,,,,,,,,,,,,,,,,,,,,,,,,,,,,,,,,,,,,,,,,,,,,,,,
,,,,,,,,,,"Mexican, Spanish, Dominican",13 or older,"no, only English or Spanish",no,2025-07-24_12h24.46.847,empathy_intonation_perc_control,2024.2.4,MacIntel,60.60606061,657f1d06a2dc99584052f77f,68817205a84113384fffdfe3,68825e25a1b6a24e75607626,,,,,,,,,,,,./stim/wavs/mexican_match_declarative-broad-focus_Emilio-ama-la-marcha.wav,0,,,226.3593,228.5917,0,1,1.719,,0,87,87,59,1,60,0,mexican,,,,,,,,,,,,,,,,,,,,,,,,,,,,,,,,,,,,,,,,,,,,,,,,,,,,,,,,
,,,,,,,"Great! Now we will move on. The next task consists of about 60 trials, in each of which you will see a string of letters. 
  
  Your task is to decide whether this is a real Spanish word or not.", (press the spacebar to continue),,"Mexican, Spanish, Dominican",13 or older,"no, only English or Spanish",no,2025-07-24_12h24.46.847,empathy_intonation_perc_control,2024.2.4,MacIntel,60.60606061,657f1d06a2dc99584052f77f,68817205a84113384fffdfe3,68825e25a1b6a24e75607626,,,,,,,,,,,,,,,,,,,,,,,,,,,,,,228.599,234.143,0,0,0,0,1,,,,,,,,,,,,,,,,,,,,,,,,,,,,,,,,,,,,,,,,,,,,,,,,,
,,,,,,,"If you think it is an existing Spanish word, you type '1' (for 'REAL'), and if you think it is not an existing Spanish word, you type '0' (for 'FAKE').", (press the spacebar to continue),,"Mexican, Spanish, Dominican",13 or older,"no, only English or Spanish",no,2025-07-24_12h24.46.847,empathy_intonation_perc_control,2024.2.4,MacIntel,60.60606061,657f1d06a2dc99584052f77f,68817205a84113384fffdfe3,68825e25a1b6a24e75607626,,,,,,,,,,,,,,,,,,,,,,,,,,,,,,234.1451,237.6256,0,1,1,1,1,,,,,,,,,,,,,,,,,,,,,,,,,,,,,,,,,,,,,,,,,,,,,,,,,
,,,,,,,"If you are sure that the word exists, even though you don’t know its exact meaning, you may still respond '1' (REAL). 
  
  But if you are not sure if it is an existing word, you should respond '0' (FAKE).
  
  Let's do a practice round...", (press the spacebar to continue),,"Mexican, Spanish, Dominican",13 or older,"no, only English or Spanish",no,2025-07-24_12h24.46.847,empathy_intonation_perc_control,2024.2.4,MacIntel,60.60606061,657f1d06a2dc99584052f77f,68817205a84113384fffdfe3,68825e25a1b6a24e75607626,,,,,,,,,,,,,,,,,,,,,,,,,,,,,,237.628,239.593,0,2,2,2,1,,,,,,,,,,,,,,,,,,,,,,,,,,,,,,,,,,,,,,,,,,,,,,,,,
,,,,,,,,,,"Mexican, Spanish, Dominican",13 or older,"no, only English or Spanish",no,2025-07-24_12h24.46.847,empathy_intonation_perc_control,2024.2.4,MacIntel,60.60606061,657f1d06a2dc99584052f77f,68817205a84113384fffdfe3,68825e25a1b6a24e75607626,,,,,,,,,,,,,0,,,,,,,,,,,,,,,,,,,,,,,,239.5986,241.393,1,0,1.2557,,241.3934,242.3921,0,0,0,0,1,0,depiste,REAL,FAKE,,,,,,,,,,,,,,,,,,,,,,,,,,,,,,,,
,,,,,,,,,,"Mexican, Spanish, Dominican",13 or older,"no, only English or Spanish",no,2025-07-24_12h24.46.847,empathy_intonation_perc_control,2024.2.4,MacIntel,60.60606061,657f1d06a2dc99584052f77f,68817205a84113384fffdfe3,68825e25a1b6a24e75607626,,,,,,,,,,,,,1,,,,,,,,,,,,,,,,,,,,,,,,242.3938,243.9589,1,1,1.022,,243.9599,244.9592,0,1,1,1,1,0,sí,REAL,FAKE,,,,,,,,,,,,,,,,,,,,,,,,,,,,,,,,
,,,,,,,,,,"Mexican, Spanish, Dominican",13 or older,"no, only English or Spanish",no,2025-07-24_12h24.46.847,empathy_intonation_perc_control,2024.2.4,MacIntel,60.60606061,657f1d06a2dc99584052f77f,68817205a84113384fffdfe3,68825e25a1b6a24e75607626,,,,,,,,,,,,,0,,,,,,,,,,,,,,,,,,,,,,,,244.9608,246.4083,0,1,0.9077,,246.4084,247.4089,0,2,2,2,1,0,coné,REAL,FAKE,,,,,,,,,,,,,,,,,,,,,,,,,,,,,,,,
,,,,,,,,,,"Mexican, Spanish, Dominican",13 or older,"no, only English or Spanish",no,2025-07-24_12h24.46.847,empathy_intonation_perc_control,2024.2.4,MacIntel,60.60606061,657f1d06a2dc99584052f77f,68817205a84113384fffdfe3,68825e25a1b6a24e75607626,,,,,,,,,,,,,0,,,,,,,,,,,,,,,,,,,,,,,,247.4104,248.8093,1,0,0.8581,,248.8103,249.8091,0,3,3,3,1,0,calpar,REAL,FAKE,,,,,,,,,,,,,,,,,,,,,,,,,,,,,,,,
,,,,,,,,,,"Mexican, Spanish, Dominican",13 or older,"no, only English or Spanish",no,2025-07-24_12h24.46.847,empathy_intonation_perc_control,2024.2.4,MacIntel,60.60606061,657f1d06a2dc99584052f77f,68817205a84113384fffdfe3,68825e25a1b6a24e75607626,,,,,,,,,,,,,0,,,,,,,,,,,,,,,,,,,,,,,,249.8103,251.0925,0,1,0.7441,,251.0935,252.0915,0,4,4,4,1,0,joten,REAL,FAKE,,,,,,,,,,,,,,,,,,,,,,,,,,,,,,,,
,,,,,,,,,,"Mexican, Spanish, Dominican",13 or older,"no, only English or Spanish",no,2025-07-24_12h24.46.847,empathy_intonation_perc_control,2024.2.4,MacIntel,60.60606061,657f1d06a2dc99584052f77f,68817205a84113384fffdfe3,68825e25a1b6a24e75607626,,,,,,,,,,,,,1,,,,,,,,,,,,,,,,,,,,,,,,252.093,254.1589,0,0,1.5235,,254.1599,255.1589,0,5,5,5,1,0,sacapuntas,REAL,FAKE,,,,,,,,,,,,,,,,,,,,,,,,,,,,,,,,
,,,,,,,,,,"Mexican, Spanish, Dominican",13 or older,"no, only English or Spanish",no,2025-07-24_12h24.46.847,empathy_intonation_perc_control,2024.2.4,MacIntel,60.60606061,657f1d06a2dc99584052f77f,68817205a84113384fffdfe3,68825e25a1b6a24e75607626,,,,,,,,,,,,,0,,,,,,,,,,,,,,,,,,,,,,,,255.16,256.4585,1,0,0.7578,,256.4587,257.4591,0,6,6,6,1,0,priba,REAL,FAKE,,,,,,,,,,,,,,,,,,,,,,,,,,,,,,,,
,,,,,,,,,,"Mexican, Spanish, Dominican",13 or older,"no, only English or Spanish",no,2025-07-24_12h24.46.847,empathy_intonation_perc_control,2024.2.4,MacIntel,60.60606061,657f1d06a2dc99584052f77f,68817205a84113384fffdfe3,68825e25a1b6a24e75607626,,,,,,,,,,,,,0,,,,,,,,,,,,,,,,,,,,,,,,257.4604,259.309,0,1,1.3154,,259.31,260.3086,0,7,7,7,1,0,pelasula,REAL,FAKE,,,,,,,,,,,,,,,,,,,,,,,,,,,,,,,,
,,,,,,,,,,"Mexican, Spanish, Dominican",13 or older,"no, only English or Spanish",no,2025-07-24_12h24.46.847,empathy_intonation_perc_control,2024.2.4,MacIntel,60.60606061,657f1d06a2dc99584052f77f,68817205a84113384fffdfe3,68825e25a1b6a24e75607626,,,,,,,,,,,,,1,,,,,,,,,,,,,,,,,,,,,,,,260.3099,261.6924,1,1,0.8411,,261.6925,262.6925,0,8,8,8,1,0,bien,REAL,FAKE,,,,,,,,,,,,,,,,,,,,,,,,,,,,,,,,
,,,,,,,,,,"Mexican, Spanish, Dominican",13 or older,"no, only English or Spanish",no,2025-07-24_12h24.46.847,empathy_intonation_perc_control,2024.2.4,MacIntel,60.60606061,657f1d06a2dc99584052f77f,68817205a84113384fffdfe3,68825e25a1b6a24e75607626,,,,,,,,,,,,,1,,,,,,,,,,,,,,,,,,,,,,,,262.6939,263.9257,1,1,0.6893,,263.9257,264.9247,0,9,9,9,1,0,casa,REAL,FAKE,,,,,,,,,,,,,,,,,,,,,,,,,,,,,,,,
,,,,,,,,,,"Mexican, Spanish, Dominican",13 or older,"no, only English or Spanish",no,2025-07-24_12h24.46.847,empathy_intonation_perc_control,2024.2.4,MacIntel,60.60606061,657f1d06a2dc99584052f77f,68817205a84113384fffdfe3,68825e25a1b6a24e75607626,,,,,,,,,,,,,0,,,,,,,,,,,,,,,,,,,,,,,,264.9261,266.509,0,1,1.0569,,266.5091,267.5082,0,10,10,10,1,0,lejo,REAL,FAKE,,,,,,,,,,,,,,,,,,,,,,,,,,,,,,,,
,,,,,,,,,,"Mexican, Spanish, Dominican",13 or older,"no, only English or Spanish",no,2025-07-24_12h24.46.847,empathy_intonation_perc_control,2024.2.4,MacIntel,60.60606061,657f1d06a2dc99584052f77f,68817205a84113384fffdfe3,68825e25a1b6a24e75607626,,,,,,,,,,,,,0,,,,,,,,,,,,,,,,,,,,,,,,267.5097,269.1091,0,1,1.0571,,269.1092,270.108,0,11,11,11,1,0,pretantas,REAL,FAKE,,,,,,,,,,,,,,,,,,,,,,,,,,,,,,,,
,,,,,,,,,,"Mexican, Spanish, Dominican",13 or older,"no, only English or Spanish",no,2025-07-24_12h24.46.847,empathy_intonation_perc_control,2024.2.4,MacIntel,60.60606061,657f1d06a2dc99584052f77f,68817205a84113384fffdfe3,68825e25a1b6a24e75607626,,,,,,,,,,,,,,,,,,,,,,,,,,,,,,,,,,,,,,,,,,,,,,,,,,,,,,270.1086,271.0097,,,,,,,,,,,,,,,,,,,,,,,,,,,,,,
,,,,,,,,,,"Mexican, Spanish, Dominican",13 or older,"no, only English or Spanish",no,2025-07-24_12h24.46.847,empathy_intonation_perc_control,2024.2.4,MacIntel,60.60606061,657f1d06a2dc99584052f77f,68817205a84113384fffdfe3,68825e25a1b6a24e75607626,,,,,,,,,,,,,1,,,,,,,,,,,,,,,,,,,,,,,,,,,,,,,,,,,,,78,frondoso,,,,,271.0189,272.4593,0,0,0.9141,,0,0,0,77,1,REAL,FAKE,,,,,,,,,,,,,,,,,
,,,,,,,,,,"Mexican, Spanish, Dominican",13 or older,"no, only English or Spanish",no,2025-07-24_12h24.46.847,empathy_intonation_perc_control,2024.2.4,MacIntel,60.60606061,657f1d06a2dc99584052f77f,68817205a84113384fffdfe3,68825e25a1b6a24e75607626,,,,,,,,,,,,,0,,,,,,,,,,,,,,,,,,,,,,,,,,,,,,,,,,,,,35,rompido,,,,,272.4609,274.2919,1,0,1.2871,,0,1,1,34,1,REAL,FAKE,,,,,,,,,,,,,,,,,
,,,,,,,,,,"Mexican, Spanish, Dominican",13 or older,"no, only English or Spanish",no,2025-07-24_12h24.46.847,empathy_intonation_perc_control,2024.2.4,MacIntel,60.60606061,657f1d06a2dc99584052f77f,68817205a84113384fffdfe3,68825e25a1b6a24e75607626,,,,,,,,,,,,,1,,,,,,,,,,,,,,,,,,,,,,,,,,,,,,,,,,,,,57,tacaño,,,,,274.2936,276.0414,0,0,1.2035,,0,2,2,56,1,REAL,FAKE,,,,,,,,,,,,,,,,,
,,,,,,,,,,"Mexican, Spanish, Dominican",13 or older,"no, only English or Spanish",no,2025-07-24_12h24.46.847,empathy_intonation_perc_control,2024.2.4,MacIntel,60.60606061,657f1d06a2dc99584052f77f,68817205a84113384fffdfe3,68825e25a1b6a24e75607626,,,,,,,,,,,,,1,,,,,,,,,,,,,,,,,,,,,,,,,,,,,,,,,,,,,67,cabello,,,,,276.0428,277.4256,0,0,0.8415,,0,3,3,66,1,REAL,FAKE,,,,,,,,,,,,,,,,,
,,,,,,,,,,"Mexican, Spanish, Dominican",13 or older,"no, only English or Spanish",no,2025-07-24_12h24.46.847,empathy_intonation_perc_control,2024.2.4,MacIntel,60.60606061,657f1d06a2dc99584052f77f,68817205a84113384fffdfe3,68825e25a1b6a24e75607626,,,,,,,,,,,,,0,,,,,,,,,,,,,,,,,,,,,,,,,,,,,,,,,,,,,23,lampera,,,,,277.427,279.0577,1,0,1.0974,,0,4,4,22,1,REAL,FAKE,,,,,,,,,,,,,,,,,
,,,,,,,,,,"Mexican, Spanish, Dominican",13 or older,"no, only English or Spanish",no,2025-07-24_12h24.46.847,empathy_intonation_perc_control,2024.2.4,MacIntel,60.60606061,657f1d06a2dc99584052f77f,68817205a84113384fffdfe3,68825e25a1b6a24e75607626,,,,,,,,,,,,,1,,,,,,,,,,,,,,,,,,,,,,,,,,,,,,,,,,,,,90,clavel,,,,,279.0588,280.4587,0,0,0.8565,,0,5,5,89,1,REAL,FAKE,,,,,,,,,,,,,,,,,
,,,,,,,,,,"Mexican, Spanish, Dominican",13 or older,"no, only English or Spanish",no,2025-07-24_12h24.46.847,empathy_intonation_perc_control,2024.2.4,MacIntel,60.60606061,657f1d06a2dc99584052f77f,68817205a84113384fffdfe3,68825e25a1b6a24e75607626,,,,,,,,,,,,,0,,,,,,,,,,,,,,,,,,,,,,,,,,,,,,,,,,,,,82,empirador,,,,,280.4599,281.9922,1,0,0.9896,,0,6,6,81,1,REAL,FAKE,,,,,,,,,,,,,,,,,
,,,,,,,,,,"Mexican, Spanish, Dominican",13 or older,"no, only English or Spanish",no,2025-07-24_12h24.46.847,empathy_intonation_perc_control,2024.2.4,MacIntel,60.60606061,657f1d06a2dc99584052f77f,68817205a84113384fffdfe3,68825e25a1b6a24e75607626,,,,,,,,,,,,,0,,,,,,,,,,,,,,,,,,,,,,,,,,,,,,,,,,,,,1,terzo,,,,,281.9936,283.5922,0,1,1.0565,,0,7,7,0,1,REAL,FAKE,,,,,,,,,,,,,,,,,
,,,,,,,,,,"Mexican, Spanish, Dominican",13 or older,"no, only English or Spanish",no,2025-07-24_12h24.46.847,empathy_intonation_perc_control,2024.2.4,MacIntel,60.60606061,657f1d06a2dc99584052f77f,68817205a84113384fffdfe3,68825e25a1b6a24e75607626,,,,,,,,,,,,,1,,,,,,,,,,,,,,,,,,,,,,,,,,,,,,,,,,,,,54,fomentar,,,,,283.5936,284.9918,0,0,0.8554,,0,8,8,53,1,REAL,FAKE,,,,,,,,,,,,,,,,,
,,,,,,,,,,"Mexican, Spanish, Dominican",13 or older,"no, only English or Spanish",no,2025-07-24_12h24.46.847,empathy_intonation_perc_control,2024.2.4,MacIntel,60.60606061,657f1d06a2dc99584052f77f,68817205a84113384fffdfe3,68825e25a1b6a24e75607626,,,,,,,,,,,,,1,,,,,,,,,,,,,,,,,,,,,,,,,,,,,,,,,,,,,22,lacayo,,,,,284.9934,288.4588,1,1,2.9235,,0,9,9,21,1,REAL,FAKE,,,,,,,,,,,,,,,,,
,,,,,,,,,,"Mexican, Spanish, Dominican",13 or older,"no, only English or Spanish",no,2025-07-24_12h24.46.847,empathy_intonation_perc_control,2024.2.4,MacIntel,60.60606061,657f1d06a2dc99584052f77f,68817205a84113384fffdfe3,68825e25a1b6a24e75607626,,,,,,,,,,,,,1,,,,,,,,,,,,,,,,,,,,,,,,,,,,,,,,,,,,,38,estornudar,,,,,288.4603,290.0077,0,0,1.0111,,0,10,10,37,1,REAL,FAKE,,,,,,,,,,,,,,,,,
,,,,,,,,,,"Mexican, Spanish, Dominican",13 or older,"no, only English or Spanish",no,2025-07-24_12h24.46.847,empathy_intonation_perc_control,2024.2.4,MacIntel,60.60606061,657f1d06a2dc99584052f77f,68817205a84113384fffdfe3,68825e25a1b6a24e75607626,,,,,,,,,,,,,1,,,,,,,,,,,,,,,,,,,,,,,,,,,,,,,,,,,,,5,zapato,,,,,290.0084,291.4087,0,0,0.8582,,0,11,11,4,1,REAL,FAKE,,,,,,,,,,,,,,,,,
,,,,,,,,,,"Mexican, Spanish, Dominican",13 or older,"no, only English or Spanish",no,2025-07-24_12h24.46.847,empathy_intonation_perc_control,2024.2.4,MacIntel,60.60606061,657f1d06a2dc99584052f77f,68817205a84113384fffdfe3,68825e25a1b6a24e75607626,,,,,,,,,,,,,0,,,,,,,,,,,,,,,,,,,,,,,,,,,,,,,,,,,,,19,brecedad,,,,,291.4102,294.9421,1,0,2.9928,,0,12,12,18,1,REAL,FAKE,,,,,,,,,,,,,,,,,
,,,,,,,,,,"Mexican, Spanish, Dominican",13 or older,"no, only English or Spanish",no,2025-07-24_12h24.46.847,empathy_intonation_perc_control,2024.2.4,MacIntel,60.60606061,657f1d06a2dc99584052f77f,68817205a84113384fffdfe3,68825e25a1b6a24e75607626,,,,,,,,,,,,,0,,,,,,,,,,,,,,,,,,,,,,,,,,,,,,,,,,,,,53,vegada,,,,,294.9437,296.6754,1,0,1.1868,,0,13,13,52,1,REAL,FAKE,,,,,,,,,,,,,,,,,
,,,,,,,,,,"Mexican, Spanish, Dominican",13 or older,"no, only English or Spanish",no,2025-07-24_12h24.46.847,empathy_intonation_perc_control,2024.2.4,MacIntel,60.60606061,657f1d06a2dc99584052f77f,68817205a84113384fffdfe3,68825e25a1b6a24e75607626,,,,,,,,,,,,,0,,,,,,,,,,,,,,,,,,,,,,,,,,,,,,,,,,,,,72,pemición,,,,,296.6768,298.1421,1,0,0.9234,,0,14,14,71,1,REAL,FAKE,,,,,,,,,,,,,,,,,
,,,,,,,,,,"Mexican, Spanish, Dominican",13 or older,"no, only English or Spanish",no,2025-07-24_12h24.46.847,empathy_intonation_perc_control,2024.2.4,MacIntel,60.60606061,657f1d06a2dc99584052f77f,68817205a84113384fffdfe3,68825e25a1b6a24e75607626,,,,,,,,,,,,,0,,,,,,,,,,,,,,,,,,,,,,,,,,,,,,,,,,,,,33,pauca,,,,,298.1434,299.6911,0,1,1.0053,,0,15,15,32,1,REAL,FAKE,,,,,,,,,,,,,,,,,
,,,,,,,,,,"Mexican, Spanish, Dominican",13 or older,"no, only English or Spanish",no,2025-07-24_12h24.46.847,empathy_intonation_perc_control,2024.2.4,MacIntel,60.60606061,657f1d06a2dc99584052f77f,68817205a84113384fffdfe3,68825e25a1b6a24e75607626,,,,,,,,,,,,,0,,,,,,,,,,,,,,,,,,,,,,,,,,,,,,,,,,,,,30,alardio,,,,,299.6924,301.3253,0,1,1.1059,,0,16,16,29,1,REAL,FAKE,,,,,,,,,,,,,,,,,
,,,,,,,,,,"Mexican, Spanish, Dominican",13 or older,"no, only English or Spanish",no,2025-07-24_12h24.46.847,empathy_intonation_perc_control,2024.2.4,MacIntel,60.60606061,657f1d06a2dc99584052f77f,68817205a84113384fffdfe3,68825e25a1b6a24e75607626,,,,,,,,,,,,,1,,,,,,,,,,,,,,,,,,,,,,,,,,,,,,,,,,,,,14,yunque,,,,,301.3268,302.8421,0,0,0.9751,,0,17,17,13,1,REAL,FAKE,,,,,,,,,,,,,,,,,
,,,,,,,,,,"Mexican, Spanish, Dominican",13 or older,"no, only English or Spanish",no,2025-07-24_12h24.46.847,empathy_intonation_perc_control,2024.2.4,MacIntel,60.60606061,657f1d06a2dc99584052f77f,68817205a84113384fffdfe3,68825e25a1b6a24e75607626,,,,,,,,,,,,,0,,,,,,,,,,,,,,,,,,,,,,,,,,,,,,,,,,,,,32,fatacidad,,,,,302.8435,304.6753,0,1,1.2891,,0,18,18,31,1,REAL,FAKE,,,,,,,,,,,,,,,,,
,,,,,,,,,,"Mexican, Spanish, Dominican",13 or older,"no, only English or Spanish",no,2025-07-24_12h24.46.847,empathy_intonation_perc_control,2024.2.4,MacIntel,60.60606061,657f1d06a2dc99584052f77f,68817205a84113384fffdfe3,68825e25a1b6a24e75607626,,,,,,,,,,,,,1,,,,,,,,,,,,,,,,,,,,,,,,,,,,,,,,,,,,,69,engatusar,,,,,304.6767,306.0577,1,1,0.848,,0,19,19,68,1,REAL,FAKE,,,,,,,,,,,,,,,,,
,,,,,,,,,,"Mexican, Spanish, Dominican",13 or older,"no, only English or Spanish",no,2025-07-24_12h24.46.847,empathy_intonation_perc_control,2024.2.4,MacIntel,60.60606061,657f1d06a2dc99584052f77f,68817205a84113384fffdfe3,68825e25a1b6a24e75607626,,,,,,,,,,,,,1,,,,,,,,,,,,,,,,,,,,,,,,,,,,,,,,,,,,,80,hormiga,,,,,306.0589,307.5751,0,0,1.0001,,0,20,20,79,1,REAL,FAKE,,,,,,,,,,,,,,,,,
,,,,,,,,,,"Mexican, Spanish, Dominican",13 or older,"no, only English or Spanish",no,2025-07-24_12h24.46.847,empathy_intonation_perc_control,2024.2.4,MacIntel,60.60606061,657f1d06a2dc99584052f77f,68817205a84113384fffdfe3,68825e25a1b6a24e75607626,,,,,,,,,,,,,0,,,,,,,,,,,,,,,,,,,,,,,,,,,,,,,,,,,,,84,escuto,,,,,307.5762,309.3418,1,0,1.2323,,0,21,21,83,1,REAL,FAKE,,,,,,,,,,,,,,,,,
,,,,,,,,,,"Mexican, Spanish, Dominican",13 or older,"no, only English or Spanish",no,2025-07-24_12h24.46.847,empathy_intonation_perc_control,2024.2.4,MacIntel,60.60606061,657f1d06a2dc99584052f77f,68817205a84113384fffdfe3,68825e25a1b6a24e75607626,,,,,,,,,,,,,1,,,,,,,,,,,,,,,,,,,,,,,,,,,,,,,,,,,,,56,musgo,,,,,309.3431,310.8247,0,0,0.9493,,0,22,22,55,1,REAL,FAKE,,,,,,,,,,,,,,,,,
,,,,,,,,,,"Mexican, Spanish, Dominican",13 or older,"no, only English or Spanish",no,2025-07-24_12h24.46.847,empathy_intonation_perc_control,2024.2.4,MacIntel,60.60606061,657f1d06a2dc99584052f77f,68817205a84113384fffdfe3,68825e25a1b6a24e75607626,,,,,,,,,,,,,1,,,,,,,,,,,,,,,,,,,,,,,,,,,,,,,,,,,,,26,secuestro,,,,,310.8259,312.3086,0,0,0.9405,,0,23,23,25,1,REAL,FAKE,,,,,,,,,,,,,,,,,
,,,,,,,,,,"Mexican, Spanish, Dominican",13 or older,"no, only English or Spanish",no,2025-07-24_12h24.46.847,empathy_intonation_perc_control,2024.2.4,MacIntel,60.60606061,657f1d06a2dc99584052f77f,68817205a84113384fffdfe3,68825e25a1b6a24e75607626,,,,,,,,,,,,,1,,,,,,,,,,,,,,,,,,,,,,,,,,,,,,,,,,,,,6,tergiversar,,,,,312.3101,313.7419,1,1,0.8894,,0,24,24,5,1,REAL,FAKE,,,,,,,,,,,,,,,,,
,,,,,,,,,,"Mexican, Spanish, Dominican",13 or older,"no, only English or Spanish",no,2025-07-24_12h24.46.847,empathy_intonation_perc_control,2024.2.4,MacIntel,60.60606061,657f1d06a2dc99584052f77f,68817205a84113384fffdfe3,68825e25a1b6a24e75607626,,,,,,,,,,,,,1,,,,,,,,,,,,,,,,,,,,,,,,,,,,,,,,,,,,,37,granuja,,,,,313.7434,315.0919,0,0,0.8061,,0,25,25,36,1,REAL,FAKE,,,,,,,,,,,,,,,,,
,,,,,,,,,,"Mexican, Spanish, Dominican",13 or older,"no, only English or Spanish",no,2025-07-24_12h24.46.847,empathy_intonation_perc_control,2024.2.4,MacIntel,60.60606061,657f1d06a2dc99584052f77f,68817205a84113384fffdfe3,68825e25a1b6a24e75607626,,,,,,,,,,,,,0,,,,,,,,,,,,,,,,,,,,,,,,,,,,,,,,,,,,,66,hacido,,,,,315.0933,316.9251,1,0,1.3002,,0,26,26,65,1,REAL,FAKE,,,,,,,,,,,,,,,,,
,,,,,,,,,,"Mexican, Spanish, Dominican",13 or older,"no, only English or Spanish",no,2025-07-24_12h24.46.847,empathy_intonation_perc_control,2024.2.4,MacIntel,60.60606061,657f1d06a2dc99584052f77f,68817205a84113384fffdfe3,68825e25a1b6a24e75607626,,,,,,,,,,,,,1,,,,,,,,,,,,,,,,,,,,,,,,,,,,,,,,,,,,,24,látigo,,,,,316.9264,318.2747,0,0,0.8063,,0,27,27,23,1,REAL,FAKE,,,,,,,,,,,,,,,,,
,,,,,,,,,,"Mexican, Spanish, Dominican",13 or older,"no, only English or Spanish",no,2025-07-24_12h24.46.847,empathy_intonation_perc_control,2024.2.4,MacIntel,60.60606061,657f1d06a2dc99584052f77f,68817205a84113384fffdfe3,68825e25a1b6a24e75607626,,,,,,,,,,,,,0,,,,,,,,,,,,,,,,,,,,,,,,,,,,,,,,,,,,,10,antar,,,,,318.276,320.7252,1,0,1.9072,,0,28,28,9,1,REAL,FAKE,,,,,,,,,,,,,,,,,
,,,,,,,,,,"Mexican, Spanish, Dominican",13 or older,"no, only English or Spanish",no,2025-07-24_12h24.46.847,empathy_intonation_perc_control,2024.2.4,MacIntel,60.60606061,657f1d06a2dc99584052f77f,68817205a84113384fffdfe3,68825e25a1b6a24e75607626,,,,,,,,,,,,,0,,,,,,,,,,,,,,,,,,,,,,,,,,,,,,,,,,,,,79,tropaje,,,,,320.7265,322.7585,1,0,1.4976,,0,29,29,78,1,REAL,FAKE,,,,,,,,,,,,,,,,,
,,,,,,,,,,"Mexican, Spanish, Dominican",13 or older,"no, only English or Spanish",no,2025-07-24_12h24.46.847,empathy_intonation_perc_control,2024.2.4,MacIntel,60.60606061,657f1d06a2dc99584052f77f,68817205a84113384fffdfe3,68825e25a1b6a24e75607626,,,,,,,,,,,,,1,,,,,,,,,,,,,,,,,,,,,,,,,,,,,,,,,,,,,76,atar,,,,,322.7596,324.0752,0,0,0.7829,,0,30,30,75,1,REAL,FAKE,,,,,,,,,,,,,,,,,
,,,,,,,,,,"Mexican, Spanish, Dominican",13 or older,"no, only English or Spanish",no,2025-07-24_12h24.46.847,empathy_intonation_perc_control,2024.2.4,MacIntel,60.60606061,657f1d06a2dc99584052f77f,68817205a84113384fffdfe3,68825e25a1b6a24e75607626,,,,,,,,,,,,,0,,,,,,,,,,,,,,,,,,,,,,,,,,,,,,,,,,,,,63,esposante,,,,,324.0765,325.4751,1,0,0.8567,,0,31,31,62,1,REAL,FAKE,,,,,,,,,,,,,,,,,
,,,,,,,,,,"Mexican, Spanish, Dominican",13 or older,"no, only English or Spanish",no,2025-07-24_12h24.46.847,empathy_intonation_perc_control,2024.2.4,MacIntel,60.60606061,657f1d06a2dc99584052f77f,68817205a84113384fffdfe3,68825e25a1b6a24e75607626,,,,,,,,,,,,,0,,,,,,,,,,,,,,,,,,,,,,,,,,,,,,,,,,,,,70,temblo,,,,,325.4765,327.1417,0,1,1.123,,0,32,32,69,1,REAL,FAKE,,,,,,,,,,,,,,,,,
,,,,,,,,,,"Mexican, Spanish, Dominican",13 or older,"no, only English or Spanish",no,2025-07-24_12h24.46.847,empathy_intonation_perc_control,2024.2.4,MacIntel,60.60606061,657f1d06a2dc99584052f77f,68817205a84113384fffdfe3,68825e25a1b6a24e75607626,,,,,,,,,,,,,1,,,,,,,,,,,,,,,,,,,,,,,,,,,,,,,,,,,,,55,nevar,,,,,327.1431,328.3751,0,0,0.6911,,0,33,33,54,1,REAL,FAKE,,,,,,,,,,,,,,,,,
,,,,,,,,,,"Mexican, Spanish, Dominican",13 or older,"no, only English or Spanish",no,2025-07-24_12h24.46.847,empathy_intonation_perc_control,2024.2.4,MacIntel,60.60606061,657f1d06a2dc99584052f77f,68817205a84113384fffdfe3,68825e25a1b6a24e75607626,,,,,,,,,,,,,1,,,,,,,,,,,,,,,,,,,,,,,,,,,,,,,,,,,,,12,asesinato,,,,,328.3765,329.9748,1,1,1.073,,0,34,34,11,1,REAL,FAKE,,,,,,,,,,,,,,,,,
,,,,,,,,,,"Mexican, Spanish, Dominican",13 or older,"no, only English or Spanish",no,2025-07-24_12h24.46.847,empathy_intonation_perc_control,2024.2.4,MacIntel,60.60606061,657f1d06a2dc99584052f77f,68817205a84113384fffdfe3,68825e25a1b6a24e75607626,,,,,,,,,,,,,1,,,,,,,,,,,,,,,,,,,,,,,,,,,,,,,,,,,,,89,prisa,,,,,329.976,332.0251,1,1,1.5111,,0,35,35,88,1,REAL,FAKE,,,,,,,,,,,,,,,,,
,,,,,,,,,,"Mexican, Spanish, Dominican",13 or older,"no, only English or Spanish",no,2025-07-24_12h24.46.847,empathy_intonation_perc_control,2024.2.4,MacIntel,60.60606061,657f1d06a2dc99584052f77f,68817205a84113384fffdfe3,68825e25a1b6a24e75607626,,,,,,,,,,,,,1,,,,,,,,,,,,,,,,,,,,,,,,,,,,,,,,,,,,,41,rebuscar,,,,,332.0264,333.6253,0,0,1.0667,,0,36,36,40,1,REAL,FAKE,,,,,,,,,,,,,,,,,
,,,,,,,,,,"Mexican, Spanish, Dominican",13 or older,"no, only English or Spanish",no,2025-07-24_12h24.46.847,empathy_intonation_perc_control,2024.2.4,MacIntel,60.60606061,657f1d06a2dc99584052f77f,68817205a84113384fffdfe3,68825e25a1b6a24e75607626,,,,,,,,,,,,,1,,,,,,,,,,,,,,,,,,,,,,,,,,,,,,,,,,,,,77,tiburón,,,,,333.6265,335.2583,1,1,1.0894,,0,37,37,76,1,REAL,FAKE,,,,,,,,,,,,,,,,,
,,,,,,,,,,"Mexican, Spanish, Dominican",13 or older,"no, only English or Spanish",no,2025-07-24_12h24.46.847,empathy_intonation_perc_control,2024.2.4,MacIntel,60.60606061,657f1d06a2dc99584052f77f,68817205a84113384fffdfe3,68825e25a1b6a24e75607626,,,,,,,,,,,,,1,,,,,,,,,,,,,,,,,,,,,,,,,,,,,,,,,,,,,43,canela,,,,,335.2598,336.8083,0,0,1.0047,,0,38,38,42,1,REAL,FAKE,,,,,,,,,,,,,,,,,
,,,,,,,,,,"Mexican, Spanish, Dominican",13 or older,"no, only English or Spanish",no,2025-07-24_12h24.46.847,empathy_intonation_perc_control,2024.2.4,MacIntel,60.60606061,657f1d06a2dc99584052f77f,68817205a84113384fffdfe3,68825e25a1b6a24e75607626,,,,,,,,,,,,,1,,,,,,,,,,,,,,,,,,,,,,,,,,,,,,,,,,,,,9,hacha,,,,,336.8098,338.2249,1,1,0.8737,,0,39,39,8,1,REAL,FAKE,,,,,,,,,,,,,,,,,
,,,,,,,,,,"Mexican, Spanish, Dominican",13 or older,"no, only English or Spanish",no,2025-07-24_12h24.46.847,empathy_intonation_perc_control,2024.2.4,MacIntel,60.60606061,657f1d06a2dc99584052f77f,68817205a84113384fffdfe3,68825e25a1b6a24e75607626,,,,,,,,,,,,,0,,,,,,,,,,,,,,,,,,,,,,,,,,,,,,,,,,,,,42,cadallo,,,,,338.2263,340.2746,1,0,1.507,,0,40,40,41,1,REAL,FAKE,,,,,,,,,,,,,,,,,
,,,,,,,,,,"Mexican, Spanish, Dominican",13 or older,"no, only English or Spanish",no,2025-07-24_12h24.46.847,empathy_intonation_perc_control,2024.2.4,MacIntel,60.60606061,657f1d06a2dc99584052f77f,68817205a84113384fffdfe3,68825e25a1b6a24e75607626,,,,,,,,,,,,,1,,,,,,,,,,,,,,,,,,,,,,,,,,,,,,,,,,,,,11,cenefa,,,,,340.2761,341.9583,0,0,1.1393,,0,41,41,10,1,REAL,FAKE,,,,,,,,,,,,,,,,,
,,,,,,,,,,"Mexican, Spanish, Dominican",13 or older,"no, only English or Spanish",no,2025-07-24_12h24.46.847,empathy_intonation_perc_control,2024.2.4,MacIntel,60.60606061,657f1d06a2dc99584052f77f,68817205a84113384fffdfe3,68825e25a1b6a24e75607626,,,,,,,,,,,,,0,,,,,,,,,,,,,,,,,,,,,,,,,,,,,,,,,,,,,74,cintro,,,,,341.9597,343.425,1,0,0.924,,0,42,42,73,1,REAL,FAKE,,,,,,,,,,,,,,,,,
,,,,,,,,,,"Mexican, Spanish, Dominican",13 or older,"no, only English or Spanish",no,2025-07-24_12h24.46.847,empathy_intonation_perc_control,2024.2.4,MacIntel,60.60606061,657f1d06a2dc99584052f77f,68817205a84113384fffdfe3,68825e25a1b6a24e75607626,,,,,,,,,,,,,1,,,,,,,,,,,,,,,,,,,,,,,,,,,,,,,,,,,,,71,polvoriento,,,,,343.4264,344.9084,0,0,0.9393,,0,43,43,70,1,REAL,FAKE,,,,,,,,,,,,,,,,,
,,,,,,,,,,"Mexican, Spanish, Dominican",13 or older,"no, only English or Spanish",no,2025-07-24_12h24.46.847,empathy_intonation_perc_control,2024.2.4,MacIntel,60.60606061,657f1d06a2dc99584052f77f,68817205a84113384fffdfe3,68825e25a1b6a24e75607626,,,,,,,,,,,,,1,,,,,,,,,,,,,,,,,,,,,,,,,,,,,,,,,,,,,28,merodear,,,,,344.9098,346.625,0,0,1.175,,0,44,44,27,1,REAL,FAKE,,,,,,,,,,,,,,,,,
,,,,,,,,,,"Mexican, Spanish, Dominican",13 or older,"no, only English or Spanish",no,2025-07-24_12h24.46.847,empathy_intonation_perc_control,2024.2.4,MacIntel,60.60606061,657f1d06a2dc99584052f77f,68817205a84113384fffdfe3,68825e25a1b6a24e75607626,,,,,,,,,,,,,1,,,,,,,,,,,,,,,,,,,,,,,,,,,,,,,,,,,,,83,guante,,,,,346.6263,347.9415,1,1,0.7732,,0,45,45,82,1,REAL,FAKE,,,,,,,,,,,,,,,,,
,,,,,,,,,,"Mexican, Spanish, Dominican",13 or older,"no, only English or Spanish",no,2025-07-24_12h24.46.847,empathy_intonation_perc_control,2024.2.4,MacIntel,60.60606061,657f1d06a2dc99584052f77f,68817205a84113384fffdfe3,68825e25a1b6a24e75607626,,,,,,,,,,,,,1,,,,,,,,,,,,,,,,,,,,,,,,,,,,,,,,,,,,,31,pandilla,,,,,347.943,349.7583,1,1,1.2737,,0,46,46,30,1,REAL,FAKE,,,,,,,,,,,,,,,,,
,,,,,,,,,,"Mexican, Spanish, Dominican",13 or older,"no, only English or Spanish",no,2025-07-24_12h24.46.847,empathy_intonation_perc_control,2024.2.4,MacIntel,60.60606061,657f1d06a2dc99584052f77f,68817205a84113384fffdfe3,68825e25a1b6a24e75607626,,,,,,,,,,,,,1,,,,,,,,,,,,,,,,,,,,,,,,,,,,,,,,,,,,,88,acantilado,,,,,349.7598,352.0415,1,1,1.7403,,0,47,47,87,1,REAL,FAKE,,,,,,,,,,,,,,,,,
,,,,,,,,,,"Mexican, Spanish, Dominican",13 or older,"no, only English or Spanish",no,2025-07-24_12h24.46.847,empathy_intonation_perc_control,2024.2.4,MacIntel,60.60606061,657f1d06a2dc99584052f77f,68817205a84113384fffdfe3,68825e25a1b6a24e75607626,,,,,,,,,,,,,1,,,,,,,,,,,,,,,,,,,,,,,,,,,,,,,,,,,,,45,jilguero,,,,,352.0429,353.3582,0,0,0.7723,,0,48,48,44,1,REAL,FAKE,,,,,,,,,,,,,,,,,
,,,,,,,,,,"Mexican, Spanish, Dominican",13 or older,"no, only English or Spanish",no,2025-07-24_12h24.46.847,empathy_intonation_perc_control,2024.2.4,MacIntel,60.60606061,657f1d06a2dc99584052f77f,68817205a84113384fffdfe3,68825e25a1b6a24e75607626,,,,,,,,,,,,,1,,,,,,,,,,,,,,,,,,,,,,,,,,,,,,,,,,,,,61,seda,,,,,353.3598,354.7082,0,0,0.8097,,0,49,49,60,1,REAL,FAKE,,,,,,,,,,,,,,,,,
,,,,,,,,,,"Mexican, Spanish, Dominican",13 or older,"no, only English or Spanish",no,2025-07-24_12h24.46.847,empathy_intonation_perc_control,2024.2.4,MacIntel,60.60606061,657f1d06a2dc99584052f77f,68817205a84113384fffdfe3,68825e25a1b6a24e75607626,,,,,,,,,,,,,1,,,,,,,,,,,,,,,,,,,,,,,,,,,,,,,,,,,,,25,bisagra,,,,,354.7096,356.075,0,0,0.8255,,0,50,50,24,1,REAL,FAKE,,,,,,,,,,,,,,,,,
,,,,,,,,,,"Mexican, Spanish, Dominican",13 or older,"no, only English or Spanish",no,2025-07-24_12h24.46.847,empathy_intonation_perc_control,2024.2.4,MacIntel,60.60606061,657f1d06a2dc99584052f77f,68817205a84113384fffdfe3,68825e25a1b6a24e75607626,,,,,,,,,,,,,0,,,,,,,,,,,,,,,,,,,,,,,,,,,,,,,,,,,,,21,capillo,,,,,356.0763,358.9915,0,1,2.3731,,0,51,51,20,1,REAL,FAKE,,,,,,,,,,,,,,,,,
,,,,,,,,,,"Mexican, Spanish, Dominican",13 or older,"no, only English or Spanish",no,2025-07-24_12h24.46.847,empathy_intonation_perc_control,2024.2.4,MacIntel,60.60606061,657f1d06a2dc99584052f77f,68817205a84113384fffdfe3,68825e25a1b6a24e75607626,,,,,,,,,,,,,0,,,,,,,,,,,,,,,,,,,,,,,,,,,,,,,,,,,,,17,floroso,,,,,358.9928,360.3752,1,0,0.8509,,0,52,52,16,1,REAL,FAKE,,,,,,,,,,,,,,,,,
,,,,,,,,,,"Mexican, Spanish, Dominican",13 or older,"no, only English or Spanish",no,2025-07-24_12h24.46.847,empathy_intonation_perc_control,2024.2.4,MacIntel,60.60606061,657f1d06a2dc99584052f77f,68817205a84113384fffdfe3,68825e25a1b6a24e75607626,,,,,,,,,,,,,1,,,,,,,,,,,,,,,,,,,,,,,,,,,,,,,,,,,,,20,ávido,,,,,360.3763,362.1412,1,1,1.2237,,0,53,53,19,1,REAL,FAKE,,,,,,,,,,,,,,,,,
,,,,,,,,,,"Mexican, Spanish, Dominican",13 or older,"no, only English or Spanish",no,2025-07-24_12h24.46.847,empathy_intonation_perc_control,2024.2.4,MacIntel,60.60606061,657f1d06a2dc99584052f77f,68817205a84113384fffdfe3,68825e25a1b6a24e75607626,,,,,,,,,,,,,1,,,,,,,,,,,,,,,,,,,,,,,,,,,,,,,,,,,,,40,alfombra,,,,,362.1424,363.7914,0,0,1.1224,,0,54,54,39,1,REAL,FAKE,,,,,,,,,,,,,,,,,
,,,,,,,,,,"Mexican, Spanish, Dominican",13 or older,"no, only English or Spanish",no,2025-07-24_12h24.46.847,empathy_intonation_perc_control,2024.2.4,MacIntel,60.60606061,657f1d06a2dc99584052f77f,68817205a84113384fffdfe3,68825e25a1b6a24e75607626,,,,,,,,,,,,,1,,,,,,,,,,,,,,,,,,,,,,,,,,,,,,,,,,,,,60,matar,,,,,363.7928,365.0248,0,0,0.7012,,0,55,55,59,1,REAL,FAKE,,,,,,,,,,,,,,,,,
,,,,,,,,,,"Mexican, Spanish, Dominican",13 or older,"no, only English or Spanish",no,2025-07-24_12h24.46.847,empathy_intonation_perc_control,2024.2.4,MacIntel,60.60606061,657f1d06a2dc99584052f77f,68817205a84113384fffdfe3,68825e25a1b6a24e75607626,,,,,,,,,,,,,0,,,,,,,,,,,,,,,,,,,,,,,,,,,,,,,,,,,,,29,decar,,,,,365.0259,366.2913,0,1,0.7333,,0,56,56,28,1,REAL,FAKE,,,,,,,,,,,,,,,,,
,,,,,,,,,,"Mexican, Spanish, Dominican",13 or older,"no, only English or Spanish",no,2025-07-24_12h24.46.847,empathy_intonation_perc_control,2024.2.4,MacIntel,60.60606061,657f1d06a2dc99584052f77f,68817205a84113384fffdfe3,68825e25a1b6a24e75607626,,,,,,,,,,,,,0,,,,,,,,,,,,,,,,,,,,,,,,,,,,,,,,,,,,,92,click the 0 key.,,,,,366.2926,369.3579,0,1,2.5294,,0,57,57,91,1,REAL,FAKE,,,,,,,,,,,,,,,,,
,,,,,,,,,,"Mexican, Spanish, Dominican",13 or older,"no, only English or Spanish",no,2025-07-24_12h24.46.847,empathy_intonation_perc_control,2024.2.4,MacIntel,60.60606061,657f1d06a2dc99584052f77f,68817205a84113384fffdfe3,68825e25a1b6a24e75607626,,,,,,,,,,,,,0,,,,,,,,,,,,,,,,,,,,,,,,,,,,,,,,,,,,,58,plaudir,,,,,369.359,377.5747,1,0,7.6736,,0,58,58,57,1,REAL,FAKE,,,,,,,,,,,,,,,,,
,,,,,,,,,,"Mexican, Spanish, Dominican",13 or older,"no, only English or Spanish",no,2025-07-24_12h24.46.847,empathy_intonation_perc_control,2024.2.4,MacIntel,60.60606061,657f1d06a2dc99584052f77f,68817205a84113384fffdfe3,68825e25a1b6a24e75607626,,,,,,,,,,,,,0,,,,,,,,,,,,,,,,,,,,,,,,,,,,,,,,,,,,,87,grodo,,,,,377.5761,378.8746,0,1,0.7533,,0,59,59,86,1,REAL,FAKE,,,,,,,,,,,,,,,,,
,,,,,,,,,,"Mexican, Spanish, Dominican",13 or older,"no, only English or Spanish",no,2025-07-24_12h24.46.847,empathy_intonation_perc_control,2024.2.4,MacIntel,60.60606061,657f1d06a2dc99584052f77f,68817205a84113384fffdfe3,68825e25a1b6a24e75607626,,,,,,,,,,,,,0,,,,,,,,,,,,,,,,,,,,,,,,,,,,,,,,,,,,,8,cadeña,,,,,378.876,382.8913,0,1,3.4701,,0,60,60,7,1,REAL,FAKE,,,,,,,,,,,,,,,,,
,,,,,,,,,,"Mexican, Spanish, Dominican",13 or older,"no, only English or Spanish",no,2025-07-24_12h24.46.847,empathy_intonation_perc_control,2024.2.4,MacIntel,60.60606061,657f1d06a2dc99584052f77f,68817205a84113384fffdfe3,68825e25a1b6a24e75607626,,,,,,,,,,,,,1,,,,,,,,,,,,,,,,,,,,,,,,,,,,,,,,,,,,,51,candado,,,,,382.8926,384.3745,1,1,0.9465,,0,61,61,50,1,REAL,FAKE,,,,,,,,,,,,,,,,,
,,,,,,,,,,"Mexican, Spanish, Dominican",13 or older,"no, only English or Spanish",no,2025-07-24_12h24.46.847,empathy_intonation_perc_control,2024.2.4,MacIntel,60.60606061,657f1d06a2dc99584052f77f,68817205a84113384fffdfe3,68825e25a1b6a24e75607626,,,,,,,,,,,,,1,,,,,,,,,,,,,,,,,,,,,,,,,,,,,,,,,,,,,34,aviso,,,,,384.3757,385.8246,0,0,0.9036,,0,62,62,33,1,REAL,FAKE,,,,,,,,,,,,,,,,,
,,,,,,,,,,"Mexican, Spanish, Dominican",13 or older,"no, only English or Spanish",no,2025-07-24_12h24.46.847,empathy_intonation_perc_control,2024.2.4,MacIntel,60.60606061,657f1d06a2dc99584052f77f,68817205a84113384fffdfe3,68825e25a1b6a24e75607626,,,,,,,,,,,,,1,,,,,,,,,,,,,,,,,,,,,,,,,,,,,,,,,,,,,64,orgulloso,,,,,385.826,387.2745,0,0,0.9111,,0,63,63,63,1,REAL,FAKE,,,,,,,,,,,,,,,,,
,,,,,,,,,,"Mexican, Spanish, Dominican",13 or older,"no, only English or Spanish",no,2025-07-24_12h24.46.847,empathy_intonation_perc_control,2024.2.4,MacIntel,60.60606061,657f1d06a2dc99584052f77f,68817205a84113384fffdfe3,68825e25a1b6a24e75607626,,,,,,,,,,,,,1,,,,,,,,,,,,,,,,,,,,,,,,,,,,,,,,,,,,,7,pésimo,,,,,387.276,388.8246,1,1,1.0077,,0,64,64,6,1,REAL,FAKE,,,,,,,,,,,,,,,,,
,,,,,,,,,,"Mexican, Spanish, Dominican",13 or older,"no, only English or Spanish",no,2025-07-24_12h24.46.847,empathy_intonation_perc_control,2024.2.4,MacIntel,60.60606061,657f1d06a2dc99584052f77f,68817205a84113384fffdfe3,68825e25a1b6a24e75607626,,,,,,,,,,,,,1,,,,,,,,,,,,,,,,,,,,,,,,,,,,,,,,,,,,,39,torpe,,,,,388.826,390.5911,0,0,1.2298,,0,65,65,38,1,REAL,FAKE,,,,,,,,,,,,,,,,,
,,,,,,,,,,"Mexican, Spanish, Dominican",13 or older,"no, only English or Spanish",no,2025-07-24_12h24.46.847,empathy_intonation_perc_control,2024.2.4,MacIntel,60.60606061,657f1d06a2dc99584052f77f,68817205a84113384fffdfe3,68825e25a1b6a24e75607626,,,,,,,,,,,,,1,,,,,,,,,,,,,,,,,,,,,,,,,,,,,,,,,,,,,49,ganar,,,,,390.5923,392.0913,0,0,0.9569,,0,66,66,48,1,REAL,FAKE,,,,,,,,,,,,,,,,,
,,,,,,,,,,"Mexican, Spanish, Dominican",13 or older,"no, only English or Spanish",no,2025-07-24_12h24.46.847,empathy_intonation_perc_control,2024.2.4,MacIntel,60.60606061,657f1d06a2dc99584052f77f,68817205a84113384fffdfe3,68825e25a1b6a24e75607626,,,,,,,,,,,,,1,,,,,,,,,,,,,,,,,,,,,,,,,,,,,,,,,,,,,81,pozo,,,,,392.0926,393.6577,1,1,1.0333,,0,67,67,80,1,REAL,FAKE,,,,,,,,,,,,,,,,,
,,,,,,,,,,"Mexican, Spanish, Dominican",13 or older,"no, only English or Spanish",no,2025-07-24_12h24.46.847,empathy_intonation_perc_control,2024.2.4,MacIntel,60.60606061,657f1d06a2dc99584052f77f,68817205a84113384fffdfe3,68825e25a1b6a24e75607626,,,,,,,,,,,,,1,,,,,,,,,,,,,,,,,,,,,,,,,,,,,,,,,,,,,36,loro,,,,,393.6589,394.9903,0,0,0.7909,,0,68,68,35,1,REAL,FAKE,,,,,,,,,,,,,,,,,
,,,,,,,,,,"Mexican, Spanish, Dominican",13 or older,"no, only English or Spanish",no,2025-07-24_12h24.46.847,empathy_intonation_perc_control,2024.2.4,MacIntel,60.60606061,657f1d06a2dc99584052f77f,68817205a84113384fffdfe3,68825e25a1b6a24e75607626,,,,,,,,,,,,,1,,,,,,,,,,,,,,,,,,,,,,,,,,,,,,,,,,,,,86,barato,,,,,394.9915,396.2912,0,0,0.7721,,0,69,69,85,1,REAL,FAKE,,,,,,,,,,,,,,,,,
,,,,,,,,,,"Mexican, Spanish, Dominican",13 or older,"no, only English or Spanish",no,2025-07-24_12h24.46.847,empathy_intonation_perc_control,2024.2.4,MacIntel,60.60606061,657f1d06a2dc99584052f77f,68817205a84113384fffdfe3,68825e25a1b6a24e75607626,,,,,,,,,,,,,0,,,,,,,,,,,,,,,,,,,,,,,,,,,,,,,,,,,,,27,acutación,,,,,396.2926,398.0245,0,1,1.1909,,0,70,70,26,1,REAL,FAKE,,,,,,,,,,,,,,,,,
,,,,,,,,,,"Mexican, Spanish, Dominican",13 or older,"no, only English or Spanish",no,2025-07-24_12h24.46.847,empathy_intonation_perc_control,2024.2.4,MacIntel,60.60606061,657f1d06a2dc99584052f77f,68817205a84113384fffdfe3,68825e25a1b6a24e75607626,,,,,,,,,,,,,1,,,,,,,,,,,,,,,,,,,,,,,,,,,,,,,,,,,,,91,click the 1 key.,,,,,398.026,399.5578,1,1,0.987,,0,71,71,90,1,REAL,FAKE,,,,,,,,,,,,,,,,,
,,,,,,,,,,"Mexican, Spanish, Dominican",13 or older,"no, only English or Spanish",no,2025-07-24_12h24.46.847,empathy_intonation_perc_control,2024.2.4,MacIntel,60.60606061,657f1d06a2dc99584052f77f,68817205a84113384fffdfe3,68825e25a1b6a24e75607626,,,,,,,,,,,,,0,,,,,,,,,,,,,,,,,,,,,,,,,,,,,,,,,,,,,50,flamida,,,,,399.5592,403.4244,0,1,3.326,,0,72,72,49,1,REAL,FAKE,,,,,,,,,,,,,,,,,
,,,,,,,,,,"Mexican, Spanish, Dominican",13 or older,"no, only English or Spanish",no,2025-07-24_12h24.46.847,empathy_intonation_perc_control,2024.2.4,MacIntel,60.60606061,657f1d06a2dc99584052f77f,68817205a84113384fffdfe3,68825e25a1b6a24e75607626,,,,,,,,,,,,,1,,,,,,,,,,,,,,,,,,,,,,,,,,,,,,,,,,,,,85,laúd,,,,,403.4258,404.7911,0,0,0.8223,,0,73,73,84,1,REAL,FAKE,,,,,,,,,,,,,,,,,
,,,,,,,,,,"Mexican, Spanish, Dominican",13 or older,"no, only English or Spanish",no,2025-07-24_12h24.46.847,empathy_intonation_perc_control,2024.2.4,MacIntel,60.60606061,657f1d06a2dc99584052f77f,68817205a84113384fffdfe3,68825e25a1b6a24e75607626,,,,,,,,,,,,,1,,,,,,,,,,,,,,,,,,,,,,,,,,,,,,,,,,,,,3,pulmones,,,,,404.7925,406.5236,1,1,1.1972,,0,74,74,2,1,REAL,FAKE,,,,,,,,,,,,,,,,,
,,,,,,,,,,"Mexican, Spanish, Dominican",13 or older,"no, only English or Spanish",no,2025-07-24_12h24.46.847,empathy_intonation_perc_control,2024.2.4,MacIntel,60.60606061,657f1d06a2dc99584052f77f,68817205a84113384fffdfe3,68825e25a1b6a24e75607626,,,,,,,,,,,,,1,,,,,,,,,,,,,,,,,,,,,,,,,,,,,,,,,,,,,59,besar,,,,,406.525,407.9908,0,0,0.9229,,0,75,75,58,1,REAL,FAKE,,,,,,,,,,,,,,,,,
,,,,,,,,,,"Mexican, Spanish, Dominican",13 or older,"no, only English or Spanish",no,2025-07-24_12h24.46.847,empathy_intonation_perc_control,2024.2.4,MacIntel,60.60606061,657f1d06a2dc99584052f77f,68817205a84113384fffdfe3,68825e25a1b6a24e75607626,,,,,,,,,,,,,1,,,,,,,,,,,,,,,,,,,,,,,,,,,,,,,,,,,,,2,pellizcar,,,,,407.9921,409.5578,0,0,1.028,,0,76,76,1,1,REAL,FAKE,,,,,,,,,,,,,,,,,
,,,,,,,,,,"Mexican, Spanish, Dominican",13 or older,"no, only English or Spanish",no,2025-07-24_12h24.46.847,empathy_intonation_perc_control,2024.2.4,MacIntel,60.60606061,657f1d06a2dc99584052f77f,68817205a84113384fffdfe3,68825e25a1b6a24e75607626,,,,,,,,,,,,,1,,,,,,,,,,,,,,,,,,,,,,,,,,,,,,,,,,,,,68,alegre,,,,,409.5589,412.3734,0,0,2.2727,,0,77,77,67,1,REAL,FAKE,,,,,,,,,,,,,,,,,
,,,,,,,,,,"Mexican, Spanish, Dominican",13 or older,"no, only English or Spanish",no,2025-07-24_12h24.46.847,empathy_intonation_perc_control,2024.2.4,MacIntel,60.60606061,657f1d06a2dc99584052f77f,68817205a84113384fffdfe3,68825e25a1b6a24e75607626,,,,,,,,,,,,,1,,,,,,,,,,,,,,,,,,,,,,,,,,,,,,,,,,,,,44,cuchara,,,,,412.3749,414.041,1,1,1.123,,0,78,78,43,1,REAL,FAKE,,,,,,,,,,,,,,,,,
,,,,,,,,,,"Mexican, Spanish, Dominican",13 or older,"no, only English or Spanish",no,2025-07-24_12h24.46.847,empathy_intonation_perc_control,2024.2.4,MacIntel,60.60606061,657f1d06a2dc99584052f77f,68817205a84113384fffdfe3,68825e25a1b6a24e75607626,,,,,,,,,,,,,0,,,,,,,,,,,,,,,,,,,,,,,,,,,,,,,,,,,,,16,abracer,,,,,414.0423,416.4733,1,0,1.8908,,0,79,79,15,1,REAL,FAKE,,,,,,,,,,,,,,,,,
,,,,,,,,,,"Mexican, Spanish, Dominican",13 or older,"no, only English or Spanish",no,2025-07-24_12h24.46.847,empathy_intonation_perc_control,2024.2.4,MacIntel,60.60606061,657f1d06a2dc99584052f77f,68817205a84113384fffdfe3,68825e25a1b6a24e75607626,,,,,,,,,,,,,1,,,,,,,,,,,,,,,,,,,,,,,,,,,,,,,,,,,,,62,flaco,,,,,416.4746,417.6573,0,0,0.6404,,0,80,80,61,1,REAL,FAKE,,,,,,,,,,,,,,,,,
,,,,,,,,,,"Mexican, Spanish, Dominican",13 or older,"no, only English or Spanish",no,2025-07-24_12h24.46.847,empathy_intonation_perc_control,2024.2.4,MacIntel,60.60606061,657f1d06a2dc99584052f77f,68817205a84113384fffdfe3,68825e25a1b6a24e75607626,,,,,,,,,,,,,1,,,,,,,,,,,,,,,,,,,,,,,,,,,,,,,,,,,,,48,ladrón,,,,,417.6588,419.3733,1,1,1.1784,,0,81,81,47,1,REAL,FAKE,,,,,,,,,,,,,,,,,
,,,,,,,,,,"Mexican, Spanish, Dominican",13 or older,"no, only English or Spanish",no,2025-07-24_12h24.46.847,empathy_intonation_perc_control,2024.2.4,MacIntel,60.60606061,657f1d06a2dc99584052f77f,68817205a84113384fffdfe3,68825e25a1b6a24e75607626,,,,,,,,,,,,,1,,,,,,,,,,,,,,,,,,,,,,,,,,,,,,,,,,,,,73,hervidor,,,,,419.3747,420.8576,1,1,0.9594,,0,82,82,72,1,REAL,FAKE,,,,,,,,,,,,,,,,,
,,,,,,,,,,"Mexican, Spanish, Dominican",13 or older,"no, only English or Spanish",no,2025-07-24_12h24.46.847,empathy_intonation_perc_control,2024.2.4,MacIntel,60.60606061,657f1d06a2dc99584052f77f,68817205a84113384fffdfe3,68825e25a1b6a24e75607626,,,,,,,,,,,,,1,,,,,,,,,,,,,,,,,,,,,,,,,,,,,,,,,,,,,65,bizcocho,,,,,420.859,424.3409,0,0,2.9394,,0,83,83,64,1,REAL,FAKE,,,,,,,,,,,,,,,,,
,,,,,,,,,,"Mexican, Spanish, Dominican",13 or older,"no, only English or Spanish",no,2025-07-24_12h24.46.847,empathy_intonation_perc_control,2024.2.4,MacIntel,60.60606061,657f1d06a2dc99584052f77f,68817205a84113384fffdfe3,68825e25a1b6a24e75607626,,,,,,,,,,,,,0,,,,,,,,,,,,,,,,,,,,,,,,,,,,,,,,,,,,,4,batillón,,,,,424.3423,425.6732,1,0,0.7982,,0,84,84,3,1,REAL,FAKE,,,,,,,,,,,,,,,,,
,,,,,,,,,,"Mexican, Spanish, Dominican",13 or older,"no, only English or Spanish",no,2025-07-24_12h24.46.847,empathy_intonation_perc_control,2024.2.4,MacIntel,60.60606061,657f1d06a2dc99584052f77f,68817205a84113384fffdfe3,68825e25a1b6a24e75607626,,,,,,,,,,,,,1,,,,,,,,,,,,,,,,,,,,,,,,,,,,,,,,,,,,,15,regar,,,,,425.6746,428.1575,0,0,1.941,,0,85,85,14,1,REAL,FAKE,,,,,,,,,,,,,,,,,
,,,,,,,,,,"Mexican, Spanish, Dominican",13 or older,"no, only English or Spanish",no,2025-07-24_12h24.46.847,empathy_intonation_perc_control,2024.2.4,MacIntel,60.60606061,657f1d06a2dc99584052f77f,68817205a84113384fffdfe3,68825e25a1b6a24e75607626,,,,,,,,,,,,,1,,,,,,,,,,,,,,,,,,,,,,,,,,,,,,,,,,,,,52,camisa,,,,,428.1591,429.6242,1,1,0.9225,,0,86,86,51,1,REAL,FAKE,,,,,,,,,,,,,,,,,
,,,,,,,,,,"Mexican, Spanish, Dominican",13 or older,"no, only English or Spanish",no,2025-07-24_12h24.46.847,empathy_intonation_perc_control,2024.2.4,MacIntel,60.60606061,657f1d06a2dc99584052f77f,68817205a84113384fffdfe3,68825e25a1b6a24e75607626,,,,,,,,,,,,,0,,,,,,,,,,,,,,,,,,,,,,,,,,,,,,,,,,,,,47,cartinar,,,,,429.6256,430.9236,0,1,0.7642,,0,87,87,46,1,REAL,FAKE,,,,,,,,,,,,,,,,,
,,,,,,,,,,"Mexican, Spanish, Dominican",13 or older,"no, only English or Spanish",no,2025-07-24_12h24.46.847,empathy_intonation_perc_control,2024.2.4,MacIntel,60.60606061,657f1d06a2dc99584052f77f,68817205a84113384fffdfe3,68825e25a1b6a24e75607626,,,,,,,,,,,,,1,,,,,,,,,,,,,,,,,,,,,,,,,,,,,,,,,,,,,75,yacer,,,,,430.9247,432.3075,0,0,0.8437,,0,88,88,74,1,REAL,FAKE,,,,,,,,,,,,,,,,,
,,,,,,,,,,"Mexican, Spanish, Dominican",13 or older,"no, only English or Spanish",no,2025-07-24_12h24.46.847,empathy_intonation_perc_control,2024.2.4,MacIntel,60.60606061,657f1d06a2dc99584052f77f,68817205a84113384fffdfe3,68825e25a1b6a24e75607626,,,,,,,,,,,,,1,,,,,,,,,,,,,,,,,,,,,,,,,,,,,,,,,,,,,13,helar,,,,,432.3089,433.7243,0,0,0.8725,,0,89,89,12,1,REAL,FAKE,,,,,,,,,,,,,,,,,
,,,,,,,,,,"Mexican, Spanish, Dominican",13 or older,"no, only English or Spanish",no,2025-07-24_12h24.46.847,empathy_intonation_perc_control,2024.2.4,MacIntel,60.60606061,657f1d06a2dc99584052f77f,68817205a84113384fffdfe3,68825e25a1b6a24e75607626,,,,,,,,,,,,,0,,,,,,,,,,,,,,,,,,,,,,,,,,,,,,,,,,,,,18,arsa,,,,,433.7256,435.2398,0,1,0.9828,,0,90,90,17,1,REAL,FAKE,,,,,,,,,,,,,,,,,
,,,,,,,,,,"Mexican, Spanish, Dominican",13 or older,"no, only English or Spanish",no,2025-07-24_12h24.46.847,empathy_intonation_perc_control,2024.2.4,MacIntel,60.60606061,657f1d06a2dc99584052f77f,68817205a84113384fffdfe3,68825e25a1b6a24e75607626,,,,,,,,,,,,,1,,,,,,,,,,,,,,,,,,,,,,,,,,,,,,,,,,,,,46,martillo,,,,,435.2409,436.6744,0,0,0.926,,0,91,91,45,1,REAL,FAKE,,,,,,,,,,,,,,,,,
,,,,,,,,,,"Mexican, Spanish, Dominican",13 or older,"no, only English or Spanish",no,2025-07-24_12h24.46.847,empathy_intonation_perc_control,2024.2.4,MacIntel,60.60606061,657f1d06a2dc99584052f77f,68817205a84113384fffdfe3,68825e25a1b6a24e75607626,,,,,,,,,,,,,,,,,,,,,,,,,,,,,,,,,,,,,,,,,,,,,,,,,,,,,,,,,,,,,,,,,,,,,436.6749,441.0914,,,,,,,,,,,,,,,
,,,,,,,,,,"Mexican, Spanish, Dominican",13 or older,"no, only English or Spanish",no,2025-07-24_12h24.46.847,empathy_intonation_perc_control,2024.2.4,MacIntel,60.60606061,657f1d06a2dc99584052f77f,68817205a84113384fffdfe3,68825e25a1b6a24e75607626,,,,,,,,,,,,,,,,,,,,,,,,,,,1,,,,,,,,,,,,,,,,,,,,,,,,,,,,,,,,,,,,,,,,,,,,441.1014,446.4907,strongly agree,0,0,0,0,1,I can easily tell if someone else wants to enter a conversation.,1,0,1,0,,
,,,,,,,,,,"Mexican, Spanish, Dominican",13 or older,"no, only English or Spanish",no,2025-07-24_12h24.46.847,empathy_intonation_perc_control,2024.2.4,MacIntel,60.60606061,657f1d06a2dc99584052f77f,68817205a84113384fffdfe3,68825e25a1b6a24e75607626,,,,,,,,,,,,,,,,,,,,,,,,,,,2,,,,,,,,,,,,,,,,,,,,,,,,,,,,,,,,,,,,,,,,,,,,446.4922,449.373,strongly agree,0,1,1,1,1,I prefer animals to humans.,0,1,0,0,,
,,,,,,,,,,"Mexican, Spanish, Dominican",13 or older,"no, only English or Spanish",no,2025-07-24_12h24.46.847,empathy_intonation_perc_control,2024.2.4,MacIntel,60.60606061,657f1d06a2dc99584052f77f,68817205a84113384fffdfe3,68825e25a1b6a24e75607626,,,,,,,,,,,,,,,,,,,,,,,,,,,3,,,,,,,,,,,,,,,,,,,,,,,,,,,,,,,,,,,,,,,,,,,,449.3746,452.8739,strongly disagree,0,2,2,2,1,I try to keep up with the current trends and fashions.,0,1,0,0,,
,,,,,,,,,,"Mexican, Spanish, Dominican",13 or older,"no, only English or Spanish",no,2025-07-24_12h24.46.847,empathy_intonation_perc_control,2024.2.4,MacIntel,60.60606061,657f1d06a2dc99584052f77f,68817205a84113384fffdfe3,68825e25a1b6a24e75607626,,,,,,,,,,,,,,,,,,,,,,,,,,,4,,,,,,,,,,,,,,,,,,,,,,,,,,,,,,,,,,,,,,,,,,,,452.8757,458.7576,strongly agree,0,3,3,3,1,"I find it difficult to explain to others things that I understand easily,   when they don't understand it first time.",1,0,0,1,,
,,,,,,,,,,"Mexican, Spanish, Dominican",13 or older,"no, only English or Spanish",no,2025-07-24_12h24.46.847,empathy_intonation_perc_control,2024.2.4,MacIntel,60.60606061,657f1d06a2dc99584052f77f,68817205a84113384fffdfe3,68825e25a1b6a24e75607626,,,,,,,,,,,,,,,,,,,,,,,,,,,5,,,,,,,,,,,,,,,,,,,,,,,,,,,,,,,,,,,,,,,,,,,,458.759,461.5737,slightly agree,0,4,4,4,1,I dream most nights.,0,1,0,0,,
,,,,,,,,,,"Mexican, Spanish, Dominican",13 or older,"no, only English or Spanish",no,2025-07-24_12h24.46.847,empathy_intonation_perc_control,2024.2.4,MacIntel,60.60606061,657f1d06a2dc99584052f77f,68817205a84113384fffdfe3,68825e25a1b6a24e75607626,,,,,,,,,,,,,,,,,,,,,,,,,,,6,,,,,,,,,,,,,,,,,,,,,,,,,,,,,,,,,,,,,,,,,,,,461.5753,465.0729,slightly agree,0,5,5,5,1,I really enjoy caring for other people.,1,0,1,0,,
,,,,,,,,,,"Mexican, Spanish, Dominican",13 or older,"no, only English or Spanish",no,2025-07-24_12h24.46.847,empathy_intonation_perc_control,2024.2.4,MacIntel,60.60606061,657f1d06a2dc99584052f77f,68817205a84113384fffdfe3,68825e25a1b6a24e75607626,,,,,,,,,,,,,,,,,,,,,,,,,,,7,,,,,,,,,,,,,,,,,,,,,,,,,,,,,,,,,,,,,,,,,,,,465.0744,470.8562,strongly agree,0,6,6,6,1,I try to solve my own problems rather than discussing them with others.,0,1,0,0,,
,,,,,,,,,,"Mexican, Spanish, Dominican",13 or older,"no, only English or Spanish",no,2025-07-24_12h24.46.847,empathy_intonation_perc_control,2024.2.4,MacIntel,60.60606061,657f1d06a2dc99584052f77f,68817205a84113384fffdfe3,68825e25a1b6a24e75607626,,,,,,,,,,,,,,,,,,,,,,,,,,,8,,,,,,,,,,,,,,,,,,,,,,,,,,,,,,,,,,,,,,,,,,,,470.8579,474.8237,slightly disagree,0,7,7,7,1,I find it hard to know what to do in a social situation.,1,0,0,1,,
,,,,,,,,,,"Mexican, Spanish, Dominican",13 or older,"no, only English or Spanish",no,2025-07-24_12h24.46.847,empathy_intonation_perc_control,2024.2.4,MacIntel,60.60606061,657f1d06a2dc99584052f77f,68817205a84113384fffdfe3,68825e25a1b6a24e75607626,,,,,,,,,,,,,,,,,,,,,,,,,,,9,,,,,,,,,,,,,,,,,,,,,,,,,,,,,,,,,,,,,,,,,,,,474.8252,477.1404,slightly disagree,0,8,8,8,1,I am at my best first thing in the morning.,0,1,0,0,,
,,,,,,,,,,"Mexican, Spanish, Dominican",13 or older,"no, only English or Spanish",no,2025-07-24_12h24.46.847,empathy_intonation_perc_control,2024.2.4,MacIntel,60.60606061,657f1d06a2dc99584052f77f,68817205a84113384fffdfe3,68825e25a1b6a24e75607626,,,,,,,,,,,,,,,,,,,,,,,,,,,10,,,,,,,,,,,,,,,,,,,,,,,,,,,,,,,,,,,,,,,,,,,,477.142,483.2404,strongly disagree,0,9,9,9,1,People often tell me that I went too far in driving my point home in a discussion.,1,0,0,1,,
,,,,,,,,,,"Mexican, Spanish, Dominican",13 or older,"no, only English or Spanish",no,2025-07-24_12h24.46.847,empathy_intonation_perc_control,2024.2.4,MacIntel,60.60606061,657f1d06a2dc99584052f77f,68817205a84113384fffdfe3,68825e25a1b6a24e75607626,,,,,,,,,,,,,,,,,,,,,,,,,,,11,,,,,,,,,,,,,,,,,,,,,,,,,,,,,,,,,,,,,,,,,,,,483.242,487.8404,strongly disagree,0,10,10,10,1,It doesn't bother me too much if I am late meeting a friend.,1,0,0,1,,
,,,,,,,,,,"Mexican, Spanish, Dominican",13 or older,"no, only English or Spanish",no,2025-07-24_12h24.46.847,empathy_intonation_perc_control,2024.2.4,MacIntel,60.60606061,657f1d06a2dc99584052f77f,68817205a84113384fffdfe3,68825e25a1b6a24e75607626,,,,,,,,,,,,,,,,,,,,,,,,,,,12,,,,,,,,,,,,,,,,,,,,,,,,,,,,,,,,,,,,,,,,,,,,487.8421,491.7734,strongly disagree,0,11,11,11,1,"Friendships and relationships are just too difficult, so I tend not to 
  bother with them.",1,0,0,1,,
,,,,,,,,,,"Mexican, Spanish, Dominican",13 or older,"no, only English or Spanish",no,2025-07-24_12h24.46.847,empathy_intonation_perc_control,2024.2.4,MacIntel,60.60606061,657f1d06a2dc99584052f77f,68817205a84113384fffdfe3,68825e25a1b6a24e75607626,,,,,,,,,,,,,,,,,,,,,,,,,,,13,,,,,,,,,,,,,,,,,,,,,,,,,,,,,,,,,,,,,,,,,,,,491.7749,495.0067,strongly agree,0,12,12,12,1,"I would never break a law, no matter how minor.",0,1,0,0,,
,,,,,,,,,,"Mexican, Spanish, Dominican",13 or older,"no, only English or Spanish",no,2025-07-24_12h24.46.847,empathy_intonation_perc_control,2024.2.4,MacIntel,60.60606061,657f1d06a2dc99584052f77f,68817205a84113384fffdfe3,68825e25a1b6a24e75607626,,,,,,,,,,,,,,,,,,,,,,,,,,,14,,,,,,,,,,,,,,,,,,,,,,,,,,,,,,,,,,,,,,,,,,,,495.0084,502.2235,strongly disagree,0,13,13,13,1,I often find it difficult to judge if something is rude or polite.,1,0,0,1,,
,,,,,,,,,,"Mexican, Spanish, Dominican",13 or older,"no, only English or Spanish",no,2025-07-24_12h24.46.847,empathy_intonation_perc_control,2024.2.4,MacIntel,60.60606061,657f1d06a2dc99584052f77f,68817205a84113384fffdfe3,68825e25a1b6a24e75607626,,,,,,,,,,,,,,,,,,,,,,,,,,,15,,,,,,,,,,,,,,,,,,,,,,,,,,,,,,,,,,,,,,,,,,,,502.2251,511.7059,strongly disagree,0,14,14,14,1,"In a conversation, I tend to focus on my own thoughts rather than on what 
  my listener might be thinking.",1,0,0,1,,
,,,,,,,,,,"Mexican, Spanish, Dominican",13 or older,"no, only English or Spanish",no,2025-07-24_12h24.46.847,empathy_intonation_perc_control,2024.2.4,MacIntel,60.60606061,657f1d06a2dc99584052f77f,68817205a84113384fffdfe3,68825e25a1b6a24e75607626,,,,,,,,,,,,,,,,,,,,,,,,,,,16,,,,,,,,,,,,,,,,,,,,,,,,,,,,,,,,,,,,,,,,,,,,511.7074,520.8391,slightly disagree,0,15,15,15,1,I prefer practical jokes to verbal humor.,0,1,0,0,,
,,,,,,,,,,"Mexican, Spanish, Dominican",13 or older,"no, only English or Spanish",no,2025-07-24_12h24.46.847,empathy_intonation_perc_control,2024.2.4,MacIntel,60.60606061,657f1d06a2dc99584052f77f,68817205a84113384fffdfe3,68825e25a1b6a24e75607626,,,,,,,,,,,,,,,,,,,,,,,,,,,17,,,,,,,,,,,,,,,,,,,,,,,,,,,,,,,,,,,,,,,,,,,,520.8407,525.0733,strongly disagree,0,16,16,16,1,I live life for today rather than the future.,0,1,0,0,,
,,,,,,,,,,"Mexican, Spanish, Dominican",13 or older,"no, only English or Spanish",no,2025-07-24_12h24.46.847,empathy_intonation_perc_control,2024.2.4,MacIntel,60.60606061,657f1d06a2dc99584052f77f,68817205a84113384fffdfe3,68825e25a1b6a24e75607626,,,,,,,,,,,,,,,,,,,,,,,,,,,18,,,,,,,,,,,,,,,,,,,,,,,,,,,,,,,,,,,,,,,,,,,,525.0749,528.7232,strongly disagree,0,17,17,17,1,"When I was a child, I enjoyed cutting up worms to see what would happen.",1,0,0,1,,
,,,,,,,,,,"Mexican, Spanish, Dominican",13 or older,"no, only English or Spanish",no,2025-07-24_12h24.46.847,empathy_intonation_perc_control,2024.2.4,MacIntel,60.60606061,657f1d06a2dc99584052f77f,68817205a84113384fffdfe3,68825e25a1b6a24e75607626,,,,,,,,,,,,,,,,,,,,,,,,,,,19,,,,,,,,,,,,,,,,,,,,,,,,,,,,,,,,,,,,,,,,,,,,528.7249,536.6732,strongly agree,0,18,18,18,1,I can pick up quickly if someone says one thing but means another.,1,0,1,0,,
,,,,,,,,,,"Mexican, Spanish, Dominican",13 or older,"no, only English or Spanish",no,2025-07-24_12h24.46.847,empathy_intonation_perc_control,2024.2.4,MacIntel,60.60606061,657f1d06a2dc99584052f77f,68817205a84113384fffdfe3,68825e25a1b6a24e75607626,,,,,,,,,,,,,,,,,,,,,,,,,,,20,,,,,,,,,,,,,,,,,,,,,,,,,,,,,,,,,,,,,,,,,,,,536.6748,540.9065,strongly agree,0,19,19,19,1,I tend to have very strong opinions about morality.,0,1,0,0,,
,,,,,,,,,,"Mexican, Spanish, Dominican",13 or older,"no, only English or Spanish",no,2025-07-24_12h24.46.847,empathy_intonation_perc_control,2024.2.4,MacIntel,60.60606061,657f1d06a2dc99584052f77f,68817205a84113384fffdfe3,68825e25a1b6a24e75607626,,,,,,,,,,,,,,,,,,,,,,,,,,,21,,,,,,,,,,,,,,,,,,,,,,,,,,,,,,,,,,,,,,,,,,,,540.908,545.7398,strongly disagree,0,20,20,20,1,It is hard for me to see why some things upset people so much.,1,0,0,1,,
,,,,,,,,,,"Mexican, Spanish, Dominican",13 or older,"no, only English or Spanish",no,2025-07-24_12h24.46.847,empathy_intonation_perc_control,2024.2.4,MacIntel,60.60606061,657f1d06a2dc99584052f77f,68817205a84113384fffdfe3,68825e25a1b6a24e75607626,,,,,,,,,,,,,,,,,,,,,,,,,,,22,,,,,,,,,,,,,,,,,,,,,,,,,,,,,,,,,,,,,,,,,,,,545.7413,549.1896,strongly agree,0,21,21,21,1,I find it easy to put myself in somebody else's shoes.,1,0,1,0,,
,,,,,,,,,,"Mexican, Spanish, Dominican",13 or older,"no, only English or Spanish",no,2025-07-24_12h24.46.847,empathy_intonation_perc_control,2024.2.4,MacIntel,60.60606061,657f1d06a2dc99584052f77f,68817205a84113384fffdfe3,68825e25a1b6a24e75607626,,,,,,,,,,,,,,,,,,,,,,,,,,,23,,,,,,,,,,,,,,,,,,,,,,,,,,,,,,,,,,,,,,,,,,,,549.1907,556.8228,strongly agree,0,22,22,22,1,I think that good manners are the most important thing a parent can teach their child.,0,1,0,0,,
,,,,,,,,,,"Mexican, Spanish, Dominican",13 or older,"no, only English or Spanish",no,2025-07-24_12h24.46.847,empathy_intonation_perc_control,2024.2.4,MacIntel,60.60606061,657f1d06a2dc99584052f77f,68817205a84113384fffdfe3,68825e25a1b6a24e75607626,,,,,,,,,,,,,,,,,,,,,,,,,,,24,,,,,,,,,,,,,,,,,,,,,,,,,,,,,,,,,,,,,,,,,,,,556.8243,560.089,strongly disagree,0,23,23,23,1,I like to do things on the spur of the moment.,0,1,0,0,,
