instructions_2afc.started,instructions_2afc.stopped,instructions_2afc_loop.thisRepN,instructions_2afc_loop.thisTrialN,instructions_2afc_loop.thisN,instructions_2afc_loop.thisIndex,instructions_2afc_loop.ran,instructions_text,continue_text,participant_id,"What variety of Spanish are you most familiar with? (e.g., Peruvian, Spanish, Mexican)",At what age did you begin learning Spanish?,Are you proficient in any languages other than English/Spanish?,"Are you familiar with Caribbean (e.g., Caribbean, Puerto Rican) or Galician Spanish?",date,expName,psychopyVersion,OS,frameRate,id,study_id,session,practice_2afc.started,practice_2afc.stopped,key_resp_2afc_practice.keys,key_resp_2afc_practice.corr,key_resp_2afc_practice.rt,key_resp_2afc_practice.duration,trials_2afc_practice_loop.thisRepN,trials_2afc_practice_loop.thisTrialN,trials_2afc_practice_loop.thisN,trials_2afc_practice_loop.thisIndex,trials_2afc_practice_loop.ran,path,correct_response,check_2afc.started,check_2afc.stopped,trial_2afc.started,trial_2afc.stopped,key_resp_2afc_trial.keys,key_resp_2afc_trial.corr,key_resp_2afc_trial.rt,key_resp_2afc_trial.duration,trials_2afc_loop.thisRepN,trials_2afc_loop.thisTrialN,trials_2afc_loop.thisN,trials_2afc_loop.thisIndex,trials_2afc_loop.ran,item_num,target,variety,instructions_lextale.started,instructions_lextale.stopped,instructions_lextale_loop.thisRepN,instructions_lextale_loop.thisTrialN,instructions_lextale_loop.thisN,instructions_lextale_loop.thisIndex,instructions_lextale_loop.ran,practice_lextale.started,practice_lextale.stopped,key_resp_lextale_practice.keys,key_resp_lextale_practice.corr,key_resp_lextale_practice.rt,key_resp_lextale_practice.duration,practice_feedback_lextale.started,practice_feedback_lextale.stopped,trials_lextale_practice_loop.thisRepN,trials_lextale_practice_loop.thisTrialN,trials_lextale_practice_loop.thisN,trials_lextale_practice_loop.thisIndex,trials_lextale_practice_loop.ran,stim,word,prac_button_real,prac_button_false,check_lextale.started,check_lextale.stopped,trial_lextale.started,trial_lextale.stopped,key_resp_lextale_trial.keys,key_resp_lextale_trial.corr,key_resp_lextale_trial.rt,key_resp_lextale_trial.duration,trials_lextale_loop.thisRepN,trials_lextale_loop.thisTrialN,trials_lextale_loop.thisN,trials_lextale_loop.thisIndex,trials_lextale_loop.ran,button_real,button_false,instructions_eq.started,instructions_eq.stopped,trial_eq.started,trial_eq.stopped,slider_eq_trial.response,trials_eq_loop.thisRepN,trials_eq_loop.thisTrialN,trials_eq_loop.thisN,trials_eq_loop.thisIndex,trials_eq_loop.ran,item,is_test_item,is_distractor,is_agree_score,is_disagree_score,end_exp.started,end_exp.stopped
0.0186,4.1923,0,0,0,0,1,"In the following task you are going to hear a series of utterances. 

  You will decide if the utterances sound like questions or not using your keyboard.", (press the spacebar to continue),,spanish,13 or older,"no, only English or Spanish",no,2025-07-24_10h30.43.068,empathy_intonation_perc_control,2024.2.4,Win32,59.88023952,66d06fd15b37d17345069c4c,68817205a84113384fffdfe3,6882437084ab3f46fe7db34c,,,,,,,,,,,,,,,,,,,,,,,,,,,,,,,,,,,,,,,,,,,,,,,,,,,,,,,,,,,,,,,,,,,,,,,,,,,,,,,,,,,,,
4.1928,12.0587,0,1,1,1,1,"If you believe the utterance is a question, type '1' (for 'yes') and if you do not 
  believe it is a question type '0' (for 'no').

  Let's practice a bit...", (press the spacebar to continue),,spanish,13 or older,"no, only English or Spanish",no,2025-07-24_10h30.43.068,empathy_intonation_perc_control,2024.2.4,Win32,59.88023952,66d06fd15b37d17345069c4c,68817205a84113384fffdfe3,6882437084ab3f46fe7db34c,,,,,,,,,,,,,,,,,,,,,,,,,,,,,,,,,,,,,,,,,,,,,,,,,,,,,,,,,,,,,,,,,,,,,,,,,,,,,,,,,,,,,
,,,,,,,,,,spanish,13 or older,"no, only English or Spanish",no,2025-07-24_10h30.43.068,empathy_intonation_perc_control,2024.2.4,Win32,59.88023952,66d06fd15b37d17345069c4c,68817205a84113384fffdfe3,6882437084ab3f46fe7db34c,12.0666,14.7583,1,1,2.157,,0,0,0,1,1,./stim/wavs/argentine_question_filler_Mi-vecino-habla-mucho.wav,1,,,,,,,,,,,,,,,,,,,,,,,,,,,,,,,,,,,,,,,,,,,,,,,,,,,,,,,,,,,,,,,,,,,,,,,,
,,,,,,,,,,spanish,13 or older,"no, only English or Spanish",no,2025-07-24_10h30.43.068,empathy_intonation_perc_control,2024.2.4,Win32,59.88023952,66d06fd15b37d17345069c4c,68817205a84113384fffdfe3,6882437084ab3f46fe7db34c,14.7589,17.2083,0,1,1.9206,,0,1,1,7,1,./stim/wavs/puertorican_statement_filler_La-nina-pinta-con-su-amiga.wav,0,,,,,,,,,,,,,,,,,,,,,,,,,,,,,,,,,,,,,,,,,,,,,,,,,,,,,,,,,,,,,,,,,,,,,,,,
,,,,,,,,,,spanish,13 or older,"no, only English or Spanish",no,2025-07-24_10h30.43.068,empathy_intonation_perc_control,2024.2.4,Win32,59.88023952,66d06fd15b37d17345069c4c,68817205a84113384fffdfe3,6882437084ab3f46fe7db34c,17.2096,19.7073,0,1,1.9733,,0,2,2,5,1,./stim/wavs/andalusian_statement_filler_Alberto-nunca-se-afeita.wav,0,,,,,,,,,,,,,,,,,,,,,,,,,,,,,,,,,,,,,,,,,,,,,,,,,,,,,,,,,,,,,,,,,,,,,,,,
,,,,,,,,,,spanish,13 or older,"no, only English or Spanish",no,2025-07-24_10h30.43.068,empathy_intonation_perc_control,2024.2.4,Win32,59.88023952,66d06fd15b37d17345069c4c,68817205a84113384fffdfe3,6882437084ab3f46fe7db34c,19.709,22.3905,0,0,2.1513,,0,3,3,3,1,./stim/wavs/mexican_question_filler_Felipe-no-tiene-contrasena.wav,1,,,,,,,,,,,,,,,,,,,,,,,,,,,,,,,,,,,,,,,,,,,,,,,,,,,,,,,,,,,,,,,,,,,,,,,,
,,,,,,,,,,spanish,13 or older,"no, only English or Spanish",no,2025-07-24_10h30.43.068,empathy_intonation_perc_control,2024.2.4,Win32,59.88023952,66d06fd15b37d17345069c4c,68817205a84113384fffdfe3,6882437084ab3f46fe7db34c,22.3918,26.2077,0,1,3.2849,,0,4,4,6,1,./stim/wavs/peruvian_statement_filler_El-nino-habla-con-su-madre.wav,0,,,,,,,,,,,,,,,,,,,,,,,,,,,,,,,,,,,,,,,,,,,,,,,,,,,,,,,,,,,,,,,,,,,,,,,,
,,,,,,,,,,spanish,13 or older,"no, only English or Spanish",no,2025-07-24_10h30.43.068,empathy_intonation_perc_control,2024.2.4,Win32,59.88023952,66d06fd15b37d17345069c4c,68817205a84113384fffdfe3,6882437084ab3f46fe7db34c,26.2091,29.3396,0,0,2.6099,,0,5,5,0,1,./stim/wavs/castilian_question_filler_Mi-esposo-conoce-al-chico.wav,1,,,,,,,,,,,,,,,,,,,,,,,,,,,,,,,,,,,,,,,,,,,,,,,,,,,,,,,,,,,,,,,,,,,,,,,,
,,,,,,,,,,spanish,13 or older,"no, only English or Spanish",no,2025-07-24_10h30.43.068,empathy_intonation_perc_control,2024.2.4,Win32,59.88023952,66d06fd15b37d17345069c4c,68817205a84113384fffdfe3,6882437084ab3f46fe7db34c,29.3411,31.9402,0,1,2.0734,,0,6,6,4,1,./stim/wavs/cuban_statement_filler_Cocinabas-por-la-noche.wav,0,,,,,,,,,,,,,,,,,,,,,,,,,,,,,,,,,,,,,,,,,,,,,,,,,,,,,,,,,,,,,,,,,,,,,,,,
,,,,,,,,,,spanish,13 or older,"no, only English or Spanish",no,2025-07-24_10h30.43.068,empathy_intonation_perc_control,2024.2.4,Win32,59.88023952,66d06fd15b37d17345069c4c,68817205a84113384fffdfe3,6882437084ab3f46fe7db34c,31.9418,36.2066,1,1,3.7331,,0,7,7,2,1,./stim/wavs/chilean_question_filler_Mi-padre-cantaba-bien.wav,1,,,,,,,,,,,,,,,,,,,,,,,,,,,,,,,,,,,,,,,,,,,,,,,,,,,,,,,,,,,,,,,,,,,,,,,,
,,,,,,,,,,spanish,13 or older,"no, only English or Spanish",no,2025-07-24_10h30.43.068,empathy_intonation_perc_control,2024.2.4,Win32,59.88023952,66d06fd15b37d17345069c4c,68817205a84113384fffdfe3,6882437084ab3f46fe7db34c,,,,,,,,,,,,,,36.2076,38.8916,,,,,,,,,,,,,,,,,,,,,,,,,,,,,,,,,,,,,,,,,,,,,,,,,,,,,,,,,,,,,,,,,,,,,,
,,,,,,,,,,spanish,13 or older,"no, only English or Spanish",no,2025-07-24_10h30.43.068,empathy_intonation_perc_control,2024.2.4,Win32,59.88023952,66d06fd15b37d17345069c4c,68817205a84113384fffdfe3,6882437084ab3f46fe7db34c,,,,,,,,,,,,./stim/wavs/mexican_match_interrogative-total-yn_Marta-abre-el-regalo.wav,1,,,38.8966,41.5942,1,1,2.1817,,0,0,0,17,1,18,0,mexican,,,,,,,,,,,,,,,,,,,,,,,,,,,,,,,,,,,,,,,,,,,,,,,,,,,,,,,,
,,,,,,,,,,spanish,13 or older,"no, only English or Spanish",no,2025-07-24_10h30.43.068,empathy_intonation_perc_control,2024.2.4,Win32,59.88023952,66d06fd15b37d17345069c4c,68817205a84113384fffdfe3,6882437084ab3f46fe7db34c,,,,,,,,,,,,./stim/wavs/mexican_match_interrogative-total-yn_Mariano-habla-del-tiempo.wav,1,,,41.5947,44.7558,1,1,2.6215,,0,1,1,16,1,17,0,mexican,,,,,,,,,,,,,,,,,,,,,,,,,,,,,,,,,,,,,,,,,,,,,,,,,,,,,,,,
,,,,,,,,,,spanish,13 or older,"no, only English or Spanish",no,2025-07-24_10h30.43.068,empathy_intonation_perc_control,2024.2.4,Win32,59.88023952,66d06fd15b37d17345069c4c,68817205a84113384fffdfe3,6882437084ab3f46fe7db34c,,,,,,,,,,,,./stim/wavs/puertorican_mismatch_interrogative-total-yn_La-maestra-vive-en-Paris.wav,1,,,44.7563,46.9726,0,0,1.6968,,0,2,2,41,1,42,1,puertorican,,,,,,,,,,,,,,,,,,,,,,,,,,,,,,,,,,,,,,,,,,,,,,,,,,,,,,,,
,,,,,,,,,,spanish,13 or older,"no, only English or Spanish",no,2025-07-24_10h30.43.068,empathy_intonation_perc_control,2024.2.4,Win32,59.88023952,66d06fd15b37d17345069c4c,68817205a84113384fffdfe3,6882437084ab3f46fe7db34c,,,,,,,,,,,,./stim/wavs/cuban_mismatch_declarative-broad-focus_El-hombre-mira-la-luna.wav,0,,,46.9729,49.2557,0,1,1.7526,,0,3,3,74,1,75,0,cuban,,,,,,,,,,,,,,,,,,,,,,,,,,,,,,,,,,,,,,,,,,,,,,,,,,,,,,,,
,,,,,,,,,,spanish,13 or older,"no, only English or Spanish",no,2025-07-24_10h30.43.068,empathy_intonation_perc_control,2024.2.4,Win32,59.88023952,66d06fd15b37d17345069c4c,68817205a84113384fffdfe3,6882437084ab3f46fe7db34c,,,,,,,,,,,,./stim/wavs/castilian_match_declarative-broad-focus_Emilio-ama-la-marcha.wav,0,,,49.2559,52.3223,0,1,2.5342,,0,4,4,45,1,46,0,castilian,,,,,,,,,,,,,,,,,,,,,,,,,,,,,,,,,,,,,,,,,,,,,,,,,,,,,,,,
,,,,,,,,,,spanish,13 or older,"no, only English or Spanish",no,2025-07-24_10h30.43.068,empathy_intonation_perc_control,2024.2.4,Win32,59.88023952,66d06fd15b37d17345069c4c,68817205a84113384fffdfe3,6882437084ab3f46fe7db34c,,,,,,,,,,,,./stim/wavs/castilian_mismatch_interrogative-total-yn_Mi-novio-viene-del-lago.wav,1,,,52.3228,54.8888,0,0,2.0448,,0,5,5,27,1,28,0,castilian,,,,,,,,,,,,,,,,,,,,,,,,,,,,,,,,,,,,,,,,,,,,,,,,,,,,,,,,
,,,,,,,,,,spanish,13 or older,"no, only English or Spanish",no,2025-07-24_10h30.43.068,empathy_intonation_perc_control,2024.2.4,Win32,59.88023952,66d06fd15b37d17345069c4c,68817205a84113384fffdfe3,6882437084ab3f46fe7db34c,,,,,,,,,,,,./stim/wavs/cuban_match_interrogative-total-yn_Manuela-vende-el-carro.wav,1,,,54.8891,57.3556,0,0,1.9511,,0,6,6,8,1,9,1,cuban,,,,,,,,,,,,,,,,,,,,,,,,,,,,,,,,,,,,,,,,,,,,,,,,,,,,,,,,
,,,,,,,,,,spanish,13 or older,"no, only English or Spanish",no,2025-07-24_10h30.43.068,empathy_intonation_perc_control,2024.2.4,Win32,59.88023952,66d06fd15b37d17345069c4c,68817205a84113384fffdfe3,6882437084ab3f46fe7db34c,,,,,,,,,,,,./stim/wavs/cuban_match_interrogative-total-yn_Ana-lleva-el-abrigo.wav,1,,,57.356,59.3053,0,0,1.4218,,0,7,7,6,1,7,1,cuban,,,,,,,,,,,,,,,,,,,,,,,,,,,,,,,,,,,,,,,,,,,,,,,,,,,,,,,,
,,,,,,,,,,spanish,13 or older,"no, only English or Spanish",no,2025-07-24_10h30.43.068,empathy_intonation_perc_control,2024.2.4,Win32,59.88023952,66d06fd15b37d17345069c4c,68817205a84113384fffdfe3,6882437084ab3f46fe7db34c,,,,,,,,,,,,./stim/wavs/puertorican_mismatch_interrogative-total-yn_El-nino-oye-el-rio.wav,1,,,59.3056,61.3721,0,0,1.5448,,0,8,8,40,1,41,1,puertorican,,,,,,,,,,,,,,,,,,,,,,,,,,,,,,,,,,,,,,,,,,,,,,,,,,,,,,,,
,,,,,,,,,,spanish,13 or older,"no, only English or Spanish",no,2025-07-24_10h30.43.068,empathy_intonation_perc_control,2024.2.4,Win32,59.88023952,66d06fd15b37d17345069c4c,68817205a84113384fffdfe3,6882437084ab3f46fe7db34c,,,,,,,,,,,,./stim/wavs/castilian_mismatch_interrogative-total-yn_La-nina-lava-el-plato.wav,1,,,61.3725,63.672,1,1,1.7672,,0,9,9,25,1,26,0,castilian,,,,,,,,,,,,,,,,,,,,,,,,,,,,,,,,,,,,,,,,,,,,,,,,,,,,,,,,
,,,,,,,,,,spanish,13 or older,"no, only English or Spanish",no,2025-07-24_10h30.43.068,empathy_intonation_perc_control,2024.2.4,Win32,59.88023952,66d06fd15b37d17345069c4c,68817205a84113384fffdfe3,6882437084ab3f46fe7db34c,,,,,,,,,,,,./stim/wavs/cuban_match_interrogative-total-yn_Marta-abre-el-regalo.wav,1,,,63.6725,65.6721,1,1,1.4713,,0,10,10,11,1,12,1,cuban,,,,,,,,,,,,,,,,,,,,,,,,,,,,,,,,,,,,,,,,,,,,,,,,,,,,,,,,
,,,,,,,,,,spanish,13 or older,"no, only English or Spanish",no,2025-07-24_10h30.43.068,empathy_intonation_perc_control,2024.2.4,Win32,59.88023952,66d06fd15b37d17345069c4c,68817205a84113384fffdfe3,6882437084ab3f46fe7db34c,,,,,,,,,,,,./stim/wavs/castilian_mismatch_interrogative-total-yn_La-maestra-vive-en-Paris.wav,1,,,65.6723,69.4552,1,1,3.2617,,0,11,11,24,1,25,0,castilian,,,,,,,,,,,,,,,,,,,,,,,,,,,,,,,,,,,,,,,,,,,,,,,,,,,,,,,,
,,,,,,,,,,spanish,13 or older,"no, only English or Spanish",no,2025-07-24_10h30.43.068,empathy_intonation_perc_control,2024.2.4,Win32,59.88023952,66d06fd15b37d17345069c4c,68817205a84113384fffdfe3,6882437084ab3f46fe7db34c,,,,,,,,,,,,./stim/wavs/cuban_mismatch_interrogative-total-yn_Mi-tia-odia-la-lluvia.wav,1,,,69.4554,71.4883,0,0,1.516,,0,12,12,33,1,34,1,cuban,,,,,,,,,,,,,,,,,,,,,,,,,,,,,,,,,,,,,,,,,,,,,,,,,,,,,,,,
,,,,,,,,,,spanish,13 or older,"no, only English or Spanish",no,2025-07-24_10h30.43.068,empathy_intonation_perc_control,2024.2.4,Win32,59.88023952,66d06fd15b37d17345069c4c,68817205a84113384fffdfe3,6882437084ab3f46fe7db34c,,,,,,,,,,,,./stim/wavs/castilian_match_declarative-broad-focus_Marta-abre-el-regalo.wav,0,,,71.4887,73.655,0,1,1.6342,,0,13,13,49,1,50,0,castilian,,,,,,,,,,,,,,,,,,,,,,,,,,,,,,,,,,,,,,,,,,,,,,,,,,,,,,,,
,,,,,,,,,,spanish,13 or older,"no, only English or Spanish",no,2025-07-24_10h30.43.068,empathy_intonation_perc_control,2024.2.4,Win32,59.88023952,66d06fd15b37d17345069c4c,68817205a84113384fffdfe3,6882437084ab3f46fe7db34c,,,,,,,,,,,,./stim/wavs/puertorican_match_interrogative-total-yn_Manuela-vende-el-carro.wav,1,,,73.6552,75.9715,0,0,1.7887,,0,14,14,22,1,23,1,puertorican,,,,,,,,,,,,,,,,,,,,,,,,,,,,,,,,,,,,,,,,,,,,,,,,,,,,,,,,
,,,,,,,,,,spanish,13 or older,"no, only English or Spanish",no,2025-07-24_10h30.43.068,empathy_intonation_perc_control,2024.2.4,Win32,59.88023952,66d06fd15b37d17345069c4c,68817205a84113384fffdfe3,6882437084ab3f46fe7db34c,,,,,,,,,,,,./stim/wavs/mexican_mismatch_declarative-broad-focus_Mi-tia-odia-la-lluvia.wav,0,,,75.9717,78.2384,0,1,1.7571,,0,15,15,82,1,83,0,mexican,,,,,,,,,,,,,,,,,,,,,,,,,,,,,,,,,,,,,,,,,,,,,,,,,,,,,,,,
,,,,,,,,,,spanish,13 or older,"no, only English or Spanish",no,2025-07-24_10h30.43.068,empathy_intonation_perc_control,2024.2.4,Win32,59.88023952,66d06fd15b37d17345069c4c,68817205a84113384fffdfe3,6882437084ab3f46fe7db34c,,,,,,,,,,,,./stim/wavs/cuban_mismatch_declarative-broad-focus_La-nina-lava-el-plato.wav,0,,,78.2396,80.505,0,1,1.7378,,0,16,16,75,1,76,0,cuban,,,,,,,,,,,,,,,,,,,,,,,,,,,,,,,,,,,,,,,,,,,,,,,,,,,,,,,,
,,,,,,,,,,spanish,13 or older,"no, only English or Spanish",no,2025-07-24_10h30.43.068,empathy_intonation_perc_control,2024.2.4,Win32,59.88023952,66d06fd15b37d17345069c4c,68817205a84113384fffdfe3,6882437084ab3f46fe7db34c,,,,,,,,,,,,./stim/wavs/mexican_mismatch_declarative-broad-focus_Mi-novio-viene-del-lago.wav,0,,,80.5065,82.3716,0,1,1.3342,,0,17,17,81,1,82,0,mexican,,,,,,,,,,,,,,,,,,,,,,,,,,,,,,,,,,,,,,,,,,,,,,,,,,,,,,,,
,,,,,,,,,,spanish,13 or older,"no, only English or Spanish",no,2025-07-24_10h30.43.068,empathy_intonation_perc_control,2024.2.4,Win32,59.88023952,66d06fd15b37d17345069c4c,68817205a84113384fffdfe3,6882437084ab3f46fe7db34c,,,,,,,,,,,,./stim/wavs/puertorican_mismatch_declarative-broad-focus_La-nina-lava-el-plato.wav,0,,,82.3732,84.3047,0,1,1.4076,,0,18,18,87,1,88,0,puertorican,,,,,,,,,,,,,,,,,,,,,,,,,,,,,,,,,,,,,,,,,,,,,,,,,,,,,,,,
,,,,,,,,,,spanish,13 or older,"no, only English or Spanish",no,2025-07-24_10h30.43.068,empathy_intonation_perc_control,2024.2.4,Win32,59.88023952,66d06fd15b37d17345069c4c,68817205a84113384fffdfe3,6882437084ab3f46fe7db34c,,,,,,,,,,,,./stim/wavs/cuban_mismatch_declarative-broad-focus_Mi-novio-viene-del-lago.wav,0,,,84.3066,86.3712,0,1,1.5351,,0,19,19,76,1,77,0,cuban,,,,,,,,,,,,,,,,,,,,,,,,,,,,,,,,,,,,,,,,,,,,,,,,,,,,,,,,
,,,,,,,,,,spanish,13 or older,"no, only English or Spanish",no,2025-07-24_10h30.43.068,empathy_intonation_perc_control,2024.2.4,Win32,59.88023952,66d06fd15b37d17345069c4c,68817205a84113384fffdfe3,6882437084ab3f46fe7db34c,,,,,,,,,,,,./stim/wavs/puertorican_match_interrogative-total-yn_Ana-lleva-el-abrigo.wav,1,,,86.3727,88.3053,0,0,1.4083,,0,20,20,18,1,19,1,puertorican,,,,,,,,,,,,,,,,,,,,,,,,,,,,,,,,,,,,,,,,,,,,,,,,,,,,,,,,
,,,,,,,,,,spanish,13 or older,"no, only English or Spanish",no,2025-07-24_10h30.43.068,empathy_intonation_perc_control,2024.2.4,Win32,59.88023952,66d06fd15b37d17345069c4c,68817205a84113384fffdfe3,6882437084ab3f46fe7db34c,,,,,,,,,,,,./stim/wavs/castilian_match_interrogative-total-yn_Manuela-vende-el-carro.wav,1,,,88.3067,90.3889,1,1,1.5492,,0,21,21,2,1,3,0,castilian,,,,,,,,,,,,,,,,,,,,,,,,,,,,,,,,,,,,,,,,,,,,,,,,,,,,,,,,
,,,,,,,,,,spanish,13 or older,"no, only English or Spanish",no,2025-07-24_10h30.43.068,empathy_intonation_perc_control,2024.2.4,Win32,59.88023952,66d06fd15b37d17345069c4c,68817205a84113384fffdfe3,6882437084ab3f46fe7db34c,,,,,,,,,,,,./stim/wavs/puertorican_mismatch_declarative-broad-focus_La-maestra-vive-en-Paris.wav,0,,,90.3902,92.7887,1,0,1.8662,,0,22,22,86,1,87,0,puertorican,,,,,,,,,,,,,,,,,,,,,,,,,,,,,,,,,,,,,,,,,,,,,,,,,,,,,,,,
,,,,,,,,,,spanish,13 or older,"no, only English or Spanish",no,2025-07-24_10h30.43.068,empathy_intonation_perc_control,2024.2.4,Win32,59.88023952,66d06fd15b37d17345069c4c,68817205a84113384fffdfe3,6882437084ab3f46fe7db34c,,,,,,,,,,,,./stim/wavs/cuban_match_interrogative-total-yn_Maria-bebe-el-vino.wav,1,,,92.7897,95.321,1,1,2.013,,0,23,23,9,1,10,1,cuban,,,,,,,,,,,,,,,,,,,,,,,,,,,,,,,,,,,,,,,,,,,,,,,,,,,,,,,,
,,,,,,,,,,spanish,13 or older,"no, only English or Spanish",no,2025-07-24_10h30.43.068,empathy_intonation_perc_control,2024.2.4,Win32,59.88023952,66d06fd15b37d17345069c4c,68817205a84113384fffdfe3,6882437084ab3f46fe7db34c,,,,,,,,,,,,./stim/wavs/mexican_match_interrogative-total-yn_Ana-lleva-el-abrigo.wav,1,,,95.3225,97.2719,0,0,1.4185,,0,24,24,12,1,13,0,mexican,,,,,,,,,,,,,,,,,,,,,,,,,,,,,,,,,,,,,,,,,,,,,,,,,,,,,,,,
,,,,,,,,,,spanish,13 or older,"no, only English or Spanish",no,2025-07-24_10h30.43.068,empathy_intonation_perc_control,2024.2.4,Win32,59.88023952,66d06fd15b37d17345069c4c,68817205a84113384fffdfe3,6882437084ab3f46fe7db34c,,,,,,,,,,,,./stim/wavs/cuban_match_declarative-broad-focus_Marta-abre-el-regalo.wav,0,,,97.2729,99.5712,0,1,1.7712,,0,25,25,55,1,56,0,cuban,,,,,,,,,,,,,,,,,,,,,,,,,,,,,,,,,,,,,,,,,,,,,,,,,,,,,,,,
,,,,,,,,,,spanish,13 or older,"no, only English or Spanish",no,2025-07-24_10h30.43.068,empathy_intonation_perc_control,2024.2.4,Win32,59.88023952,66d06fd15b37d17345069c4c,68817205a84113384fffdfe3,6882437084ab3f46fe7db34c,,,,,,,,,,,,./stim/wavs/cuban_match_interrogative-total-yn_Mariano-habla-del-tiempo.wav,1,,,99.5726,101.9712,0,0,1.8715,,0,26,26,10,1,11,1,cuban,,,,,,,,,,,,,,,,,,,,,,,,,,,,,,,,,,,,,,,,,,,,,,,,,,,,,,,,
,,,,,,,,,,spanish,13 or older,"no, only English or Spanish",no,2025-07-24_10h30.43.068,empathy_intonation_perc_control,2024.2.4,Win32,59.88023952,66d06fd15b37d17345069c4c,68817205a84113384fffdfe3,6882437084ab3f46fe7db34c,,,,,,,,,,,,./stim/wavs/mexican_match_interrogative-total-yn_Emilio-ama-la-marcha.wav,1,,,101.9728,104.3546,1,1,1.8552,,0,27,27,15,1,16,0,mexican,,,,,,,,,,,,,,,,,,,,,,,,,,,,,,,,,,,,,,,,,,,,,,,,,,,,,,,,
,,,,,,,,,,spanish,13 or older,"no, only English or Spanish",no,2025-07-24_10h30.43.068,empathy_intonation_perc_control,2024.2.4,Win32,59.88023952,66d06fd15b37d17345069c4c,68817205a84113384fffdfe3,6882437084ab3f46fe7db34c,,,,,,,,,,,,./stim/wavs/puertorican_mismatch_declarative-broad-focus_El-nino-oye-el-rio.wav,0,,,104.3563,106.3708,0,1,1.4866,,0,28,28,85,1,86,0,puertorican,,,,,,,,,,,,,,,,,,,,,,,,,,,,,,,,,,,,,,,,,,,,,,,,,,,,,,,,
,,,,,,,,,,spanish,13 or older,"no, only English or Spanish",no,2025-07-24_10h30.43.068,empathy_intonation_perc_control,2024.2.4,Win32,59.88023952,66d06fd15b37d17345069c4c,68817205a84113384fffdfe3,6882437084ab3f46fe7db34c,,,,,,,,,,,,./stim/wavs/castilian_match_declarative-broad-focus_Maria-bebe-el-vino.wav,0,,,106.3725,108.8044,0,1,1.901,,0,29,29,47,1,48,0,castilian,,,,,,,,,,,,,,,,,,,,,,,,,,,,,,,,,,,,,,,,,,,,,,,,,,,,,,,,
,,,,,,,,,,spanish,13 or older,"no, only English or Spanish",no,2025-07-24_10h30.43.068,empathy_intonation_perc_control,2024.2.4,Win32,59.88023952,66d06fd15b37d17345069c4c,68817205a84113384fffdfe3,6882437084ab3f46fe7db34c,,,,,,,,,,,,./stim/wavs/cuban_match_interrogative-total-yn_Daniel-iba-a-Bolivia.wav,1,,,108.8059,110.9875,1,1,1.6506,,0,30,30,7,1,8,1,cuban,,,,,,,,,,,,,,,,,,,,,,,,,,,,,,,,,,,,,,,,,,,,,,,,,,,,,,,,
,,,,,,,,,,spanish,13 or older,"no, only English or Spanish",no,2025-07-24_10h30.43.068,empathy_intonation_perc_control,2024.2.4,Win32,59.88023952,66d06fd15b37d17345069c4c,68817205a84113384fffdfe3,6882437084ab3f46fe7db34c,,,,,,,,,,,,./stim/wavs/mexican_match_declarative-broad-focus_Emilio-ama-la-marcha.wav,0,,,110.989,113.5709,0,1,2.0519,,0,31,31,59,1,60,0,mexican,,,,,,,,,,,,,,,,,,,,,,,,,,,,,,,,,,,,,,,,,,,,,,,,,,,,,,,,
,,,,,,,,,,spanish,13 or older,"no, only English or Spanish",no,2025-07-24_10h30.43.068,empathy_intonation_perc_control,2024.2.4,Win32,59.88023952,66d06fd15b37d17345069c4c,68817205a84113384fffdfe3,6882437084ab3f46fe7db34c,,,,,,,,,,,,./stim/wavs/mexican_mismatch_declarative-broad-focus_El-hombre-mira-la-luna.wav,0,,,113.5723,116.8374,0,1,2.7338,,0,32,32,79,1,80,0,mexican,,,,,,,,,,,,,,,,,,,,,,,,,,,,,,,,,,,,,,,,,,,,,,,,,,,,,,,,
,,,,,,,,,,spanish,13 or older,"no, only English or Spanish",no,2025-07-24_10h30.43.068,empathy_intonation_perc_control,2024.2.4,Win32,59.88023952,66d06fd15b37d17345069c4c,68817205a84113384fffdfe3,6882437084ab3f46fe7db34c,,,,,,,,,,,,./stim/wavs/castilian_mismatch_declarative-broad-focus_La-maestra-vive-en-Paris.wav,0,,,116.8388,119.6544,1,0,2.2863,,0,33,33,69,1,70,0,castilian,,,,,,,,,,,,,,,,,,,,,,,,,,,,,,,,,,,,,,,,,,,,,,,,,,,,,,,,
,,,,,,,,,,spanish,13 or older,"no, only English or Spanish",no,2025-07-24_10h30.43.068,empathy_intonation_perc_control,2024.2.4,Win32,59.88023952,66d06fd15b37d17345069c4c,68817205a84113384fffdfe3,6882437084ab3f46fe7db34c,,,,,,,,,,,,./stim/wavs/cuban_match_declarative-broad-focus_Maria-bebe-el-vino.wav,0,,,119.6557,121.8543,1,0,1.6668,,0,34,34,53,1,54,0,cuban,,,,,,,,,,,,,,,,,,,,,,,,,,,,,,,,,,,,,,,,,,,,,,,,,,,,,,,,
,,,,,,,,,,spanish,13 or older,"no, only English or Spanish",no,2025-07-24_10h30.43.068,empathy_intonation_perc_control,2024.2.4,Win32,59.88023952,66d06fd15b37d17345069c4c,68817205a84113384fffdfe3,6882437084ab3f46fe7db34c,,,,,,,,,,,,./stim/wavs/mexican_mismatch_declarative-broad-focus_La-maestra-vive-en-Paris.wav,0,,,121.8557,123.8047,1,0,1.3694,,0,35,35,80,1,81,0,mexican,,,,,,,,,,,,,,,,,,,,,,,,,,,,,,,,,,,,,,,,,,,,,,,,,,,,,,,,
,,,,,,,,,,spanish,13 or older,"no, only English or Spanish",no,2025-07-24_10h30.43.068,empathy_intonation_perc_control,2024.2.4,Win32,59.88023952,66d06fd15b37d17345069c4c,68817205a84113384fffdfe3,6882437084ab3f46fe7db34c,,,,,,,,,,,,./stim/wavs/cuban_match_declarative-broad-focus_Ana-lleva-el-abrigo.wav,0,,,123.8058,126.1203,0,1,1.7844,,0,36,36,50,1,51,0,cuban,,,,,,,,,,,,,,,,,,,,,,,,,,,,,,,,,,,,,,,,,,,,,,,,,,,,,,,,
,,,,,,,,,,spanish,13 or older,"no, only English or Spanish",no,2025-07-24_10h30.43.068,empathy_intonation_perc_control,2024.2.4,Win32,59.88023952,66d06fd15b37d17345069c4c,68817205a84113384fffdfe3,6882437084ab3f46fe7db34c,,,,,,,,,,,,./stim/wavs/cuban_mismatch_interrogative-total-yn_Mi-madre-come-la-fruta.wav,1,,,126.1217,129.2368,0,0,2.5933,,0,37,37,31,1,32,1,cuban,,,,,,,,,,,,,,,,,,,,,,,,,,,,,,,,,,,,,,,,,,,,,,,,,,,,,,,,
,,,,,,,,,,spanish,13 or older,"no, only English or Spanish",no,2025-07-24_10h30.43.068,empathy_intonation_perc_control,2024.2.4,Win32,59.88023952,66d06fd15b37d17345069c4c,68817205a84113384fffdfe3,6882437084ab3f46fe7db34c,,,,,,,,,,,,./stim/wavs/puertorican_match_interrogative-total-yn_David-leia-el-libro.wav,1,,,129.2385,131.1873,1,1,1.4167,,0,38,38,20,1,21,1,puertorican,,,,,,,,,,,,,,,,,,,,,,,,,,,,,,,,,,,,,,,,,,,,,,,,,,,,,,,,
,,,,,,,,,,spanish,13 or older,"no, only English or Spanish",no,2025-07-24_10h30.43.068,empathy_intonation_perc_control,2024.2.4,Win32,59.88023952,66d06fd15b37d17345069c4c,68817205a84113384fffdfe3,6882437084ab3f46fe7db34c,,,,,,,,,,,,./stim/wavs/mexican_match_declarative-broad-focus_Daniel-iba-a-Bolivia.wav,0,,,131.1885,133.2041,1,0,1.4859,,0,39,39,57,1,58,0,mexican,,,,,,,,,,,,,,,,,,,,,,,,,,,,,,,,,,,,,,,,,,,,,,,,,,,,,,,,
,,,,,,,,,,spanish,13 or older,"no, only English or Spanish",no,2025-07-24_10h30.43.068,empathy_intonation_perc_control,2024.2.4,Win32,59.88023952,66d06fd15b37d17345069c4c,68817205a84113384fffdfe3,6882437084ab3f46fe7db34c,,,,,,,,,,,,./stim/wavs/cuban_mismatch_interrogative-total-yn_Mi-novio-viene-del-lago.wav,1,,,133.2055,135.4039,0,0,1.6773,,0,40,40,32,1,33,1,cuban,,,,,,,,,,,,,,,,,,,,,,,,,,,,,,,,,,,,,,,,,,,,,,,,,,,,,,,,
,,,,,,,,,,spanish,13 or older,"no, only English or Spanish",no,2025-07-24_10h30.43.068,empathy_intonation_perc_control,2024.2.4,Win32,59.88023952,66d06fd15b37d17345069c4c,68817205a84113384fffdfe3,6882437084ab3f46fe7db34c,,,,,,,,,,,,./stim/wavs/castilian_match_declarative-broad-focus_David-leia-el-libro.wav,0,,,135.4051,138.9539,0,1,3.0223,,0,41,41,44,1,45,0,castilian,,,,,,,,,,,,,,,,,,,,,,,,,,,,,,,,,,,,,,,,,,,,,,,,,,,,,,,,
,,,,,,,,,,spanish,13 or older,"no, only English or Spanish",no,2025-07-24_10h30.43.068,empathy_intonation_perc_control,2024.2.4,Win32,59.88023952,66d06fd15b37d17345069c4c,68817205a84113384fffdfe3,6882437084ab3f46fe7db34c,,,,,,,,,,,,./stim/wavs/cuban_mismatch_declarative-broad-focus_Mi-tia-odia-la-lluvia.wav,0,,,138.9552,141.5869,0,1,2.1001,,0,42,42,77,1,78,0,cuban,,,,,,,,,,,,,,,,,,,,,,,,,,,,,,,,,,,,,,,,,,,,,,,,,,,,,,,,
,,,,,,,,,,spanish,13 or older,"no, only English or Spanish",no,2025-07-24_10h30.43.068,empathy_intonation_perc_control,2024.2.4,Win32,59.88023952,66d06fd15b37d17345069c4c,68817205a84113384fffdfe3,6882437084ab3f46fe7db34c,,,,,,,,,,,,./stim/wavs/cuban_match_declarative-broad-focus_Manuela-vende-el-carro.wav,0,,,141.5884,143.8534,0,1,1.7425,,0,43,43,52,1,53,0,cuban,,,,,,,,,,,,,,,,,,,,,,,,,,,,,,,,,,,,,,,,,,,,,,,,,,,,,,,,
,,,,,,,,,,spanish,13 or older,"no, only English or Spanish",no,2025-07-24_10h30.43.068,empathy_intonation_perc_control,2024.2.4,Win32,59.88023952,66d06fd15b37d17345069c4c,68817205a84113384fffdfe3,6882437084ab3f46fe7db34c,,,,,,,,,,,,./stim/wavs/castilian_mismatch_declarative-broad-focus_La-nina-lava-el-plato.wav,0,,,143.8546,146.0202,1,0,1.6343,,0,44,44,70,1,71,0,castilian,,,,,,,,,,,,,,,,,,,,,,,,,,,,,,,,,,,,,,,,,,,,,,,,,,,,,,,,
,,,,,,,,,,spanish,13 or older,"no, only English or Spanish",no,2025-07-24_10h30.43.068,empathy_intonation_perc_control,2024.2.4,Win32,59.88023952,66d06fd15b37d17345069c4c,68817205a84113384fffdfe3,6882437084ab3f46fe7db34c,,,,,,,,,,,,./stim/wavs/castilian_match_interrogative-total-yn_Maria-bebe-el-vino.wav,1,,,146.0214,148.0864,1,1,1.5381,,0,45,45,3,1,4,0,castilian,,,,,,,,,,,,,,,,,,,,,,,,,,,,,,,,,,,,,,,,,,,,,,,,,,,,,,,,
,,,,,,,,,,spanish,13 or older,"no, only English or Spanish",no,2025-07-24_10h30.43.068,empathy_intonation_perc_control,2024.2.4,Win32,59.88023952,66d06fd15b37d17345069c4c,68817205a84113384fffdfe3,6882437084ab3f46fe7db34c,,,,,,,,,,,,./stim/wavs/puertorican_match_interrogative-total-yn_Daniel-iba-a-Bolivia.wav,1,,,148.0881,150.6579,0,0,2.0494,,0,46,46,19,1,20,1,puertorican,,,,,,,,,,,,,,,,,,,,,,,,,,,,,,,,,,,,,,,,,,,,,,,,,,,,,,,,
,,,,,,,,,,spanish,13 or older,"no, only English or Spanish",no,2025-07-24_10h30.43.068,empathy_intonation_perc_control,2024.2.4,Win32,59.88023952,66d06fd15b37d17345069c4c,68817205a84113384fffdfe3,6882437084ab3f46fe7db34c,,,,,,,,,,,,./stim/wavs/mexican_match_interrogative-total-yn_David-leia-el-libro.wav,1,,,150.6581,154.4697,1,1,3.2794,,0,47,47,14,1,15,0,mexican,,,,,,,,,,,,,,,,,,,,,,,,,,,,,,,,,,,,,,,,,,,,,,,,,,,,,,,,
,,,,,,,,,,spanish,13 or older,"no, only English or Spanish",no,2025-07-24_10h30.43.068,empathy_intonation_perc_control,2024.2.4,Win32,59.88023952,66d06fd15b37d17345069c4c,68817205a84113384fffdfe3,6882437084ab3f46fe7db34c,,,,,,,,,,,,./stim/wavs/mexican_mismatch_interrogative-total-yn_Mi-tia-odia-la-lluvia.wav,1,,,154.4714,156.4362,1,1,1.4363,,0,48,48,38,1,39,0,mexican,,,,,,,,,,,,,,,,,,,,,,,,,,,,,,,,,,,,,,,,,,,,,,,,,,,,,,,,
,,,,,,,,,,spanish,13 or older,"no, only English or Spanish",no,2025-07-24_10h30.43.068,empathy_intonation_perc_control,2024.2.4,Win32,59.88023952,66d06fd15b37d17345069c4c,68817205a84113384fffdfe3,6882437084ab3f46fe7db34c,,,,,,,,,,,,./stim/wavs/cuban_mismatch_interrogative-total-yn_El-hombre-mira-la-luna.wav,1,,,156.4378,158.1688,1,1,1.2098,,0,49,49,29,1,30,1,cuban,,,,,,,,,,,,,,,,,,,,,,,,,,,,,,,,,,,,,,,,,,,,,,,,,,,,,,,,
,,,,,,,,,,spanish,13 or older,"no, only English or Spanish",no,2025-07-24_10h30.43.068,empathy_intonation_perc_control,2024.2.4,Win32,59.88023952,66d06fd15b37d17345069c4c,68817205a84113384fffdfe3,6882437084ab3f46fe7db34c,,,,,,,,,,,,./stim/wavs/castilian_mismatch_interrogative-total-yn_Mi-tia-odia-la-lluvia.wav,1,,,158.1702,160.1028,1,1,1.4013,,0,50,50,28,1,29,0,castilian,,,,,,,,,,,,,,,,,,,,,,,,,,,,,,,,,,,,,,,,,,,,,,,,,,,,,,,,
,,,,,,,,,,spanish,13 or older,"no, only English or Spanish",no,2025-07-24_10h30.43.068,empathy_intonation_perc_control,2024.2.4,Win32,59.88023952,66d06fd15b37d17345069c4c,68817205a84113384fffdfe3,6882437084ab3f46fe7db34c,,,,,,,,,,,,./stim/wavs/castilian_match_interrogative-total-yn_Emilio-ama-la-marcha.wav,1,,,160.1046,162.0369,1,1,1.4008,,0,51,51,1,1,2,0,castilian,,,,,,,,,,,,,,,,,,,,,,,,,,,,,,,,,,,,,,,,,,,,,,,,,,,,,,,,
,,,,,,,,,,spanish,13 or older,"no, only English or Spanish",no,2025-07-24_10h30.43.068,empathy_intonation_perc_control,2024.2.4,Win32,59.88023952,66d06fd15b37d17345069c4c,68817205a84113384fffdfe3,6882437084ab3f46fe7db34c,,,,,,,,,,,,./stim/wavs/mexican_mismatch_interrogative-total-yn_Mi-novio-viene-del-lago.wav,1,,,162.0382,164.1525,1,1,1.568,,0,52,52,37,1,38,0,mexican,,,,,,,,,,,,,,,,,,,,,,,,,,,,,,,,,,,,,,,,,,,,,,,,,,,,,,,,
,,,,,,,,,,spanish,13 or older,"no, only English or Spanish",no,2025-07-24_10h30.43.068,empathy_intonation_perc_control,2024.2.4,Win32,59.88023952,66d06fd15b37d17345069c4c,68817205a84113384fffdfe3,6882437084ab3f46fe7db34c,,,,,,,,,,,,./stim/wavs/puertorican_match_declarative-broad-focus_Manuela-vende-el-carro.wav,0,,,164.1541,166.6855,0,1,2.0111,,0,53,53,66,1,67,0,puertorican,,,,,,,,,,,,,,,,,,,,,,,,,,,,,,,,,,,,,,,,,,,,,,,,,,,,,,,,
,,,,,,,,,,spanish,13 or older,"no, only English or Spanish",no,2025-07-24_10h30.43.068,empathy_intonation_perc_control,2024.2.4,Win32,59.88023952,66d06fd15b37d17345069c4c,68817205a84113384fffdfe3,6882437084ab3f46fe7db34c,,,,,,,,,,,,./stim/wavs/mexican_mismatch_interrogative-total-yn_La-maestra-vive-en-Paris.wav,1,,,166.6859,169.202,1,1,1.9825,,0,54,54,36,1,37,0,mexican,,,,,,,,,,,,,,,,,,,,,,,,,,,,,,,,,,,,,,,,,,,,,,,,,,,,,,,,
,,,,,,,,,,spanish,13 or older,"no, only English or Spanish",no,2025-07-24_10h30.43.068,empathy_intonation_perc_control,2024.2.4,Win32,59.88023952,66d06fd15b37d17345069c4c,68817205a84113384fffdfe3,6882437084ab3f46fe7db34c,,,,,,,,,,,,./stim/wavs/castilian_match_declarative-broad-focus_Manuela-vende-el-carro.wav,0,,,169.2023,172.2519,0,1,2.5221,,0,55,55,46,1,47,0,castilian,,,,,,,,,,,,,,,,,,,,,,,,,,,,,,,,,,,,,,,,,,,,,,,,,,,,,,,,
,,,,,,,,,,spanish,13 or older,"no, only English or Spanish",no,2025-07-24_10h30.43.068,empathy_intonation_perc_control,2024.2.4,Win32,59.88023952,66d06fd15b37d17345069c4c,68817205a84113384fffdfe3,6882437084ab3f46fe7db34c,,,,,,,,,,,,./stim/wavs/castilian_mismatch_declarative-broad-focus_Mi-tia-odia-la-lluvia.wav,0,,,172.2522,174.8353,0,1,2.0598,,0,56,56,72,1,73,0,castilian,,,,,,,,,,,,,,,,,,,,,,,,,,,,,,,,,,,,,,,,,,,,,,,,,,,,,,,,
,,,,,,,,,,spanish,13 or older,"no, only English or Spanish",no,2025-07-24_10h30.43.068,empathy_intonation_perc_control,2024.2.4,Win32,59.88023952,66d06fd15b37d17345069c4c,68817205a84113384fffdfe3,6882437084ab3f46fe7db34c,,,,,,,,,,,,./stim/wavs/mexican_match_declarative-broad-focus_Marta-abre-el-regalo.wav,0,,,174.8358,176.9853,1,0,1.623,,0,57,57,61,1,62,0,mexican,,,,,,,,,,,,,,,,,,,,,,,,,,,,,,,,,,,,,,,,,,,,,,,,,,,,,,,,
,,,,,,,,,,spanish,13 or older,"no, only English or Spanish",no,2025-07-24_10h30.43.068,empathy_intonation_perc_control,2024.2.4,Win32,59.88023952,66d06fd15b37d17345069c4c,68817205a84113384fffdfe3,6882437084ab3f46fe7db34c,,,,,,,,,,,,./stim/wavs/castilian_mismatch_declarative-broad-focus_Mi-novio-viene-del-lago.wav,0,,,176.9856,179.035,0,1,1.526,,0,58,58,71,1,72,0,castilian,,,,,,,,,,,,,,,,,,,,,,,,,,,,,,,,,,,,,,,,,,,,,,,,,,,,,,,,
,,,,,,,,,,spanish,13 or older,"no, only English or Spanish",no,2025-07-24_10h30.43.068,empathy_intonation_perc_control,2024.2.4,Win32,59.88023952,66d06fd15b37d17345069c4c,68817205a84113384fffdfe3,6882437084ab3f46fe7db34c,,,,,,,,,,,,./stim/wavs/puertorican_mismatch_declarative-broad-focus_El-bebe-comia-muy-bien.wav,0,,,179.0352,180.9351,0,1,1.3698,,0,59,59,83,1,84,0,puertorican,,,,,,,,,,,,,,,,,,,,,,,,,,,,,,,,,,,,,,,,,,,,,,,,,,,,,,,,
,,,,,,,,,,spanish,13 or older,"no, only English or Spanish",no,2025-07-24_10h30.43.068,empathy_intonation_perc_control,2024.2.4,Win32,59.88023952,66d06fd15b37d17345069c4c,68817205a84113384fffdfe3,6882437084ab3f46fe7db34c,,,,,,,,,,,,./stim/wavs/mexican_mismatch_declarative-broad-focus_El-bebe-comia-muy-bien.wav,0,,,180.9355,182.9849,1,0,1.5273,,0,60,60,78,1,79,0,mexican,,,,,,,,,,,,,,,,,,,,,,,,,,,,,,,,,,,,,,,,,,,,,,,,,,,,,,,,
,,,,,,,,,,spanish,13 or older,"no, only English or Spanish",no,2025-07-24_10h30.43.068,empathy_intonation_perc_control,2024.2.4,Win32,59.88023952,66d06fd15b37d17345069c4c,68817205a84113384fffdfe3,6882437084ab3f46fe7db34c,,,,,,,,,,,,./stim/wavs/puertorican_match_declarative-broad-focus_David-leia-el-libro.wav,0,,,182.9853,184.7015,0,1,1.1856,,0,61,61,64,1,65,0,puertorican,,,,,,,,,,,,,,,,,,,,,,,,,,,,,,,,,,,,,,,,,,,,,,,,,,,,,,,,
,,,,,,,,,,spanish,13 or older,"no, only English or Spanish",no,2025-07-24_10h30.43.068,empathy_intonation_perc_control,2024.2.4,Win32,59.88023952,66d06fd15b37d17345069c4c,68817205a84113384fffdfe3,6882437084ab3f46fe7db34c,,,,,,,,,,,,./stim/wavs/mexican_match_declarative-broad-focus_Mariano-habla-del-tiempo.wav,0,,,184.7017,186.8515,0,1,1.6232,,0,62,62,60,1,61,0,mexican,,,,,,,,,,,,,,,,,,,,,,,,,,,,,,,,,,,,,,,,,,,,,,,,,,,,,,,,
,,,,,,,,,,spanish,13 or older,"no, only English or Spanish",no,2025-07-24_10h30.43.068,empathy_intonation_perc_control,2024.2.4,Win32,59.88023952,66d06fd15b37d17345069c4c,68817205a84113384fffdfe3,6882437084ab3f46fe7db34c,,,,,,,,,,,,./stim/wavs/puertorican_mismatch_interrogative-total-yn_La-nina-lava-el-plato.wav,1,,,186.8519,188.968,0,0,1.5936,,0,63,63,42,1,43,1,puertorican,,,,,,,,,,,,,,,,,,,,,,,,,,,,,,,,,,,,,,,,,,,,,,,,,,,,,,,,
,,,,,,,,,,spanish,13 or older,"no, only English or Spanish",no,2025-07-24_10h30.43.068,empathy_intonation_perc_control,2024.2.4,Win32,59.88023952,66d06fd15b37d17345069c4c,68817205a84113384fffdfe3,6882437084ab3f46fe7db34c,,,,,,,,,,,,./stim/wavs/mexican_mismatch_interrogative-total-yn_El-nino-oye-el-rio.wav,1,,,188.9683,190.9514,0,0,1.4536,,0,64,64,35,1,36,0,mexican,,,,,,,,,,,,,,,,,,,,,,,,,,,,,,,,,,,,,,,,,,,,,,,,,,,,,,,,
,,,,,,,,,,spanish,13 or older,"no, only English or Spanish",no,2025-07-24_10h30.43.068,empathy_intonation_perc_control,2024.2.4,Win32,59.88023952,66d06fd15b37d17345069c4c,68817205a84113384fffdfe3,6882437084ab3f46fe7db34c,,,,,,,,,,,,./stim/wavs/cuban_mismatch_interrogative-total-yn_El-nino-oye-el-rio.wav,1,,,190.9517,192.6013,1,1,1.1274,,0,65,65,30,1,31,1,cuban,,,,,,,,,,,,,,,,,,,,,,,,,,,,,,,,,,,,,,,,,,,,,,,,,,,,,,,,
,,,,,,,,,,spanish,13 or older,"no, only English or Spanish",no,2025-07-24_10h30.43.068,empathy_intonation_perc_control,2024.2.4,Win32,59.88023952,66d06fd15b37d17345069c4c,68817205a84113384fffdfe3,6882437084ab3f46fe7db34c,,,,,,,,,,,,./stim/wavs/puertorican_mismatch_interrogative-total-yn_El-hombre-mira-la-luna.wav,1,,,192.6016,195.2012,1,1,2.0773,,0,66,66,39,1,40,1,puertorican,,,,,,,,,,,,,,,,,,,,,,,,,,,,,,,,,,,,,,,,,,,,,,,,,,,,,,,,
,,,,,,,,,,spanish,13 or older,"no, only English or Spanish",no,2025-07-24_10h30.43.068,empathy_intonation_perc_control,2024.2.4,Win32,59.88023952,66d06fd15b37d17345069c4c,68817205a84113384fffdfe3,6882437084ab3f46fe7db34c,,,,,,,,,,,,./stim/wavs/puertorican_match_interrogative-total-yn_Maria-bebe-el-vino.wav,1,,,195.2015,196.9179,1,1,1.1845,,0,67,67,23,1,24,1,puertorican,,,,,,,,,,,,,,,,,,,,,,,,,,,,,,,,,,,,,,,,,,,,,,,,,,,,,,,,
,,,,,,,,,,spanish,13 or older,"no, only English or Spanish",no,2025-07-24_10h30.43.068,empathy_intonation_perc_control,2024.2.4,Win32,59.88023952,66d06fd15b37d17345069c4c,68817205a84113384fffdfe3,6882437084ab3f46fe7db34c,,,,,,,,,,,,./stim/wavs/puertorican_match_declarative-broad-focus_Emilio-ama-la-marcha.wav,0,,,196.9183,198.4511,0,1,1,,0,68,68,65,1,66,0,puertorican,,,,,,,,,,,,,,,,,,,,,,,,,,,,,,,,,,,,,,,,,,,,,,,,,,,,,,,,
,,,,,,,,,,spanish,13 or older,"no, only English or Spanish",no,2025-07-24_10h30.43.068,empathy_intonation_perc_control,2024.2.4,Win32,59.88023952,66d06fd15b37d17345069c4c,68817205a84113384fffdfe3,6882437084ab3f46fe7db34c,,,,,,,,,,,,./stim/wavs/cuban_mismatch_declarative-broad-focus_El-bebe-comia-muy-bien.wav,0,,,198.4514,200.4012,0,1,1.4241,,0,69,69,73,1,74,0,cuban,,,,,,,,,,,,,,,,,,,,,,,,,,,,,,,,,,,,,,,,,,,,,,,,,,,,,,,,
,,,,,,,,,,spanish,13 or older,"no, only English or Spanish",no,2025-07-24_10h30.43.068,empathy_intonation_perc_control,2024.2.4,Win32,59.88023952,66d06fd15b37d17345069c4c,68817205a84113384fffdfe3,6882437084ab3f46fe7db34c,,,,,,,,,,,,./stim/wavs/mexican_match_declarative-broad-focus_Ana-lleva-el-abrigo.wav,0,,,200.4016,202.3676,1,0,1.4392,,0,70,70,56,1,57,0,mexican,,,,,,,,,,,,,,,,,,,,,,,,,,,,,,,,,,,,,,,,,,,,,,,,,,,,,,,,
,,,,,,,,,,spanish,13 or older,"no, only English or Spanish",no,2025-07-24_10h30.43.068,empathy_intonation_perc_control,2024.2.4,Win32,59.88023952,66d06fd15b37d17345069c4c,68817205a84113384fffdfe3,6882437084ab3f46fe7db34c,,,,,,,,,,,,./stim/wavs/castilian_match_interrogative-total-yn_David-leia-el-libro.wav,1,,,202.368,204.7008,1,1,1.8086,,0,71,71,0,1,1,0,castilian,,,,,,,,,,,,,,,,,,,,,,,,,,,,,,,,,,,,,,,,,,,,,,,,,,,,,,,,
,,,,,,,,,,spanish,13 or older,"no, only English or Spanish",no,2025-07-24_10h30.43.068,empathy_intonation_perc_control,2024.2.4,Win32,59.88023952,66d06fd15b37d17345069c4c,68817205a84113384fffdfe3,6882437084ab3f46fe7db34c,,,,,,,,,,,,./stim/wavs/castilian_mismatch_declarative-broad-focus_El-nino-oye-el-rio.wav,0,,,204.7012,206.7845,1,0,1.5574,,0,72,72,68,1,69,0,castilian,,,,,,,,,,,,,,,,,,,,,,,,,,,,,,,,,,,,,,,,,,,,,,,,,,,,,,,,
,,,,,,,,,,spanish,13 or older,"no, only English or Spanish",no,2025-07-24_10h30.43.068,empathy_intonation_perc_control,2024.2.4,Win32,59.88023952,66d06fd15b37d17345069c4c,68817205a84113384fffdfe3,6882437084ab3f46fe7db34c,,,,,,,,,,,,./stim/wavs/puertorican_mismatch_interrogative-total-yn_Mi-madre-come-la-fruta.wav,1,,,206.7848,208.9009,0,0,1.5932,,0,73,73,43,1,44,1,puertorican,,,,,,,,,,,,,,,,,,,,,,,,,,,,,,,,,,,,,,,,,,,,,,,,,,,,,,,,
,,,,,,,,,,spanish,13 or older,"no, only English or Spanish",no,2025-07-24_10h30.43.068,empathy_intonation_perc_control,2024.2.4,Win32,59.88023952,66d06fd15b37d17345069c4c,68817205a84113384fffdfe3,6882437084ab3f46fe7db34c,,,,,,,,,,,,./stim/wavs/cuban_match_declarative-broad-focus_Daniel-iba-a-Bolivia.wav,0,,,208.9011,210.8009,0,1,1.379,,0,74,74,51,1,52,0,cuban,,,,,,,,,,,,,,,,,,,,,,,,,,,,,,,,,,,,,,,,,,,,,,,,,,,,,,,,
,,,,,,,,,,spanish,13 or older,"no, only English or Spanish",no,2025-07-24_10h30.43.068,empathy_intonation_perc_control,2024.2.4,Win32,59.88023952,66d06fd15b37d17345069c4c,68817205a84113384fffdfe3,6882437084ab3f46fe7db34c,,,,,,,,,,,,./stim/wavs/puertorican_mismatch_declarative-broad-focus_El-hombre-mira-la-luna.wav,0,,,210.8013,213.0839,1,0,1.7587,,0,75,75,84,1,85,0,puertorican,,,,,,,,,,,,,,,,,,,,,,,,,,,,,,,,,,,,,,,,,,,,,,,,,,,,,,,,
,,,,,,,,,,spanish,13 or older,"no, only English or Spanish",no,2025-07-24_10h30.43.068,empathy_intonation_perc_control,2024.2.4,Win32,59.88023952,66d06fd15b37d17345069c4c,68817205a84113384fffdfe3,6882437084ab3f46fe7db34c,,,,,,,,,,,,./stim/wavs/cuban_match_declarative-broad-focus_Mariano-habla-del-tiempo.wav,0,,,213.0843,215.3839,1,0,1.7713,,0,76,76,54,1,55,0,cuban,,,,,,,,,,,,,,,,,,,,,,,,,,,,,,,,,,,,,,,,,,,,,,,,,,,,,,,,
,,,,,,,,,,spanish,13 or older,"no, only English or Spanish",no,2025-07-24_10h30.43.068,empathy_intonation_perc_control,2024.2.4,Win32,59.88023952,66d06fd15b37d17345069c4c,68817205a84113384fffdfe3,6882437084ab3f46fe7db34c,,,,,,,,,,,,./stim/wavs/mexican_match_declarative-broad-focus_David-leia-el-libro.wav,0,,,215.3843,217.3341,0,1,1.4299,,0,77,77,58,1,59,0,mexican,,,,,,,,,,,,,,,,,,,,,,,,,,,,,,,,,,,,,,,,,,,,,,,,,,,,,,,,
,,,,,,,,,,spanish,13 or older,"no, only English or Spanish",no,2025-07-24_10h30.43.068,empathy_intonation_perc_control,2024.2.4,Win32,59.88023952,66d06fd15b37d17345069c4c,68817205a84113384fffdfe3,6882437084ab3f46fe7db34c,,,,,,,,,,,,./stim/wavs/castilian_match_interrogative-total-yn_Mariano-habla-del-tiempo.wav,1,,,217.3346,219.4005,0,0,1.5376,,0,78,78,4,1,5,0,castilian,,,,,,,,,,,,,,,,,,,,,,,,,,,,,,,,,,,,,,,,,,,,,,,,,,,,,,,,
,,,,,,,,,,spanish,13 or older,"no, only English or Spanish",no,2025-07-24_10h30.43.068,empathy_intonation_perc_control,2024.2.4,Win32,59.88023952,66d06fd15b37d17345069c4c,68817205a84113384fffdfe3,6882437084ab3f46fe7db34c,,,,,,,,,,,,./stim/wavs/mexican_match_interrogative-total-yn_Daniel-iba-a-Bolivia.wav,1,,,219.4007,221.6504,1,1,1.7237,,0,79,79,13,1,14,0,mexican,,,,,,,,,,,,,,,,,,,,,,,,,,,,,,,,,,,,,,,,,,,,,,,,,,,,,,,,
,,,,,,,,,,spanish,13 or older,"no, only English or Spanish",no,2025-07-24_10h30.43.068,empathy_intonation_perc_control,2024.2.4,Win32,59.88023952,66d06fd15b37d17345069c4c,68817205a84113384fffdfe3,6882437084ab3f46fe7db34c,,,,,,,,,,,,./stim/wavs/castilian_match_declarative-broad-focus_Mariano-habla-del-tiempo.wav,0,,,221.6507,223.9169,1,0,1.7365,,0,80,80,48,1,49,0,castilian,,,,,,,,,,,,,,,,,,,,,,,,,,,,,,,,,,,,,,,,,,,,,,,,,,,,,,,,
,,,,,,,,,,spanish,13 or older,"no, only English or Spanish",no,2025-07-24_10h30.43.068,empathy_intonation_perc_control,2024.2.4,Win32,59.88023952,66d06fd15b37d17345069c4c,68817205a84113384fffdfe3,6882437084ab3f46fe7db34c,,,,,,,,,,,,./stim/wavs/castilian_match_interrogative-total-yn_Marta-abre-el-regalo.wav,1,,,223.9173,226.3501,1,1,1.9037,,0,81,81,5,1,6,0,castilian,,,,,,,,,,,,,,,,,,,,,,,,,,,,,,,,,,,,,,,,,,,,,,,,,,,,,,,,
,,,,,,,,,,spanish,13 or older,"no, only English or Spanish",no,2025-07-24_10h30.43.068,empathy_intonation_perc_control,2024.2.4,Win32,59.88023952,66d06fd15b37d17345069c4c,68817205a84113384fffdfe3,6882437084ab3f46fe7db34c,,,,,,,,,,,,./stim/wavs/castilian_mismatch_interrogative-total-yn_Mi-madre-come-la-fruta.wav,1,,,226.3505,228.5501,0,0,1.6705,,0,82,82,26,1,27,0,castilian,,,,,,,,,,,,,,,,,,,,,,,,,,,,,,,,,,,,,,,,,,,,,,,,,,,,,,,,
,,,,,,,,,,spanish,13 or older,"no, only English or Spanish",no,2025-07-24_10h30.43.068,empathy_intonation_perc_control,2024.2.4,Win32,59.88023952,66d06fd15b37d17345069c4c,68817205a84113384fffdfe3,6882437084ab3f46fe7db34c,,,,,,,,,,,,./stim/wavs/puertorican_match_interrogative-total-yn_Emilio-ama-la-marcha.wav,1,,,228.5504,230.6834,0,0,1.6024,,0,83,83,21,1,22,1,puertorican,,,,,,,,,,,,,,,,,,,,,,,,,,,,,,,,,,,,,,,,,,,,,,,,,,,,,,,,
,,,,,,,,,,spanish,13 or older,"no, only English or Spanish",no,2025-07-24_10h30.43.068,empathy_intonation_perc_control,2024.2.4,Win32,59.88023952,66d06fd15b37d17345069c4c,68817205a84113384fffdfe3,6882437084ab3f46fe7db34c,,,,,,,,,,,,./stim/wavs/puertorican_match_declarative-broad-focus_Maria-bebe-el-vino.wav,0,,,230.6838,232.5,0,1,1.311,,0,84,84,67,1,68,0,puertorican,,,,,,,,,,,,,,,,,,,,,,,,,,,,,,,,,,,,,,,,,,,,,,,,,,,,,,,,
,,,,,,,,,,spanish,13 or older,"no, only English or Spanish",no,2025-07-24_10h30.43.068,empathy_intonation_perc_control,2024.2.4,Win32,59.88023952,66d06fd15b37d17345069c4c,68817205a84113384fffdfe3,6882437084ab3f46fe7db34c,,,,,,,,,,,,./stim/wavs/puertorican_match_declarative-broad-focus_Daniel-iba-a-Bolivia.wav,0,,,232.5003,234.1333,0,1,1.1004,,0,85,85,63,1,64,0,puertorican,,,,,,,,,,,,,,,,,,,,,,,,,,,,,,,,,,,,,,,,,,,,,,,,,,,,,,,,
,,,,,,,,,,spanish,13 or older,"no, only English or Spanish",no,2025-07-24_10h30.43.068,empathy_intonation_perc_control,2024.2.4,Win32,59.88023952,66d06fd15b37d17345069c4c,68817205a84113384fffdfe3,6882437084ab3f46fe7db34c,,,,,,,,,,,,./stim/wavs/puertorican_match_declarative-broad-focus_Ana-lleva-el-abrigo.wav,0,,,234.1337,235.8002,1,0,1.1356,,0,86,86,62,1,63,0,puertorican,,,,,,,,,,,,,,,,,,,,,,,,,,,,,,,,,,,,,,,,,,,,,,,,,,,,,,,,
,,,,,,,,,,spanish,13 or older,"no, only English or Spanish",no,2025-07-24_10h30.43.068,empathy_intonation_perc_control,2024.2.4,Win32,59.88023952,66d06fd15b37d17345069c4c,68817205a84113384fffdfe3,6882437084ab3f46fe7db34c,,,,,,,,,,,,./stim/wavs/mexican_mismatch_interrogative-total-yn_El-hombre-mira-la-luna.wav,1,,,235.8018,237.5666,1,1,1.2446,,0,87,87,34,1,35,0,mexican,,,,,,,,,,,,,,,,,,,,,,,,,,,,,,,,,,,,,,,,,,,,,,,,,,,,,,,,
,,,,,,,"Great! Now we will move on. The next task consists of about 60 trials, in each of which you will see a string of letters. 
  
  Your task is to decide whether this is a real Spanish word or not.", (press the spacebar to continue),,spanish,13 or older,"no, only English or Spanish",no,2025-07-24_10h30.43.068,empathy_intonation_perc_control,2024.2.4,Win32,59.88023952,66d06fd15b37d17345069c4c,68817205a84113384fffdfe3,6882437084ab3f46fe7db34c,,,,,,,,,,,,,,,,,,,,,,,,,,,,,,237.5714,241.6176,0,0,0,0,1,,,,,,,,,,,,,,,,,,,,,,,,,,,,,,,,,,,,,,,,,,,,,,,,,
,,,,,,,"If you think it is an existing Spanish word, you type '1' (for 'REAL'), and if you think it is not an existing Spanish word, you type '0' (for 'FAKE').", (press the spacebar to continue),,spanish,13 or older,"no, only English or Spanish",no,2025-07-24_10h30.43.068,empathy_intonation_perc_control,2024.2.4,Win32,59.88023952,66d06fd15b37d17345069c4c,68817205a84113384fffdfe3,6882437084ab3f46fe7db34c,,,,,,,,,,,,,,,,,,,,,,,,,,,,,,241.6194,243.8224,0,1,1,1,1,,,,,,,,,,,,,,,,,,,,,,,,,,,,,,,,,,,,,,,,,,,,,,,,,
,,,,,,,"If you are sure that the word exists, even though you don’t know its exact meaning, you may still respond '1' (REAL). 
  
  But if you are not sure if it is an existing word, you should respond '0' (FAKE).
  
  Let's do a practice round...", (press the spacebar to continue),,spanish,13 or older,"no, only English or Spanish",no,2025-07-24_10h30.43.068,empathy_intonation_perc_control,2024.2.4,Win32,59.88023952,66d06fd15b37d17345069c4c,68817205a84113384fffdfe3,6882437084ab3f46fe7db34c,,,,,,,,,,,,,,,,,,,,,,,,,,,,,,243.8234,244.9337,0,2,2,2,1,,,,,,,,,,,,,,,,,,,,,,,,,,,,,,,,,,,,,,,,,,,,,,,,,
,,,,,,,,,,spanish,13 or older,"no, only English or Spanish",no,2025-07-24_10h30.43.068,empathy_intonation_perc_control,2024.2.4,Win32,59.88023952,66d06fd15b37d17345069c4c,68817205a84113384fffdfe3,6882437084ab3f46fe7db34c,,,,,,,,,,,,,0,,,,,,,,,,,,,,,,,,,,,,,,244.9383,247.6175,1,0,2.1428,,247.6179,248.6174,0,0,0,0,1,0,depiste,REAL,FAKE,,,,,,,,,,,,,,,,,,,,,,,,,,,,,,,,
,,,,,,,,,,spanish,13 or older,"no, only English or Spanish",no,2025-07-24_10h30.43.068,empathy_intonation_perc_control,2024.2.4,Win32,59.88023952,66d06fd15b37d17345069c4c,68817205a84113384fffdfe3,6882437084ab3f46fe7db34c,,,,,,,,,,,,,1,,,,,,,,,,,,,,,,,,,,,,,,248.6208,249.9163,1,1,0.7553,,249.9185,250.9167,0,1,1,1,1,0,sí,REAL,FAKE,,,,,,,,,,,,,,,,,,,,,,,,,,,,,,,,
,,,,,,,,,,spanish,13 or older,"no, only English or Spanish",no,2025-07-24_10h30.43.068,empathy_intonation_perc_control,2024.2.4,Win32,59.88023952,66d06fd15b37d17345069c4c,68817205a84113384fffdfe3,6882437084ab3f46fe7db34c,,,,,,,,,,,,,0,,,,,,,,,,,,,,,,,,,,,,,,250.9186,253.3666,1,0,1.8999,,253.3682,254.3668,0,2,2,2,1,0,coné,REAL,FAKE,,,,,,,,,,,,,,,,,,,,,,,,,,,,,,,,
,,,,,,,,,,spanish,13 or older,"no, only English or Spanish",no,2025-07-24_10h30.43.068,empathy_intonation_perc_control,2024.2.4,Win32,59.88023952,66d06fd15b37d17345069c4c,68817205a84113384fffdfe3,6882437084ab3f46fe7db34c,,,,,,,,,,,,,0,,,,,,,,,,,,,,,,,,,,,,,,254.3683,256.6828,0,1,1.7781,,256.6846,257.6834,0,3,3,3,1,0,calpar,REAL,FAKE,,,,,,,,,,,,,,,,,,,,,,,,,,,,,,,,
,,,,,,,,,,spanish,13 or older,"no, only English or Spanish",no,2025-07-24_10h30.43.068,empathy_intonation_perc_control,2024.2.4,Win32,59.88023952,66d06fd15b37d17345069c4c,68817205a84113384fffdfe3,6882437084ab3f46fe7db34c,,,,,,,,,,,,,0,,,,,,,,,,,,,,,,,,,,,,,,257.6855,259.2185,0,1,0.997,,259.2187,260.2175,0,4,4,4,1,0,joten,REAL,FAKE,,,,,,,,,,,,,,,,,,,,,,,,,,,,,,,,
,,,,,,,,,,spanish,13 or older,"no, only English or Spanish",no,2025-07-24_10h30.43.068,empathy_intonation_perc_control,2024.2.4,Win32,59.88023952,66d06fd15b37d17345069c4c,68817205a84113384fffdfe3,6882437084ab3f46fe7db34c,,,,,,,,,,,,,1,,,,,,,,,,,,,,,,,,,,,,,,260.2187,262.0671,1,1,1.3184,,262.0674,263.071,0,5,5,5,1,0,sacapuntas,REAL,FAKE,,,,,,,,,,,,,,,,,,,,,,,,,,,,,,,,
,,,,,,,,,,spanish,13 or older,"no, only English or Spanish",no,2025-07-24_10h30.43.068,empathy_intonation_perc_control,2024.2.4,Win32,59.88023952,66d06fd15b37d17345069c4c,68817205a84113384fffdfe3,6882437084ab3f46fe7db34c,,,,,,,,,,,,,0,,,,,,,,,,,,,,,,,,,,,,,,263.072,264.4169,1,0,0.8018,,264.4183,265.4176,0,6,6,6,1,0,priba,REAL,FAKE,,,,,,,,,,,,,,,,,,,,,,,,,,,,,,,,
,,,,,,,,,,spanish,13 or older,"no, only English or Spanish",no,2025-07-24_10h30.43.068,empathy_intonation_perc_control,2024.2.4,Win32,59.88023952,66d06fd15b37d17345069c4c,68817205a84113384fffdfe3,6882437084ab3f46fe7db34c,,,,,,,,,,,,,0,,,,,,,,,,,,,,,,,,,,,,,,265.419,266.8551,0,1,0.917,,266.8558,267.8504,0,7,7,7,1,0,pelasula,REAL,FAKE,,,,,,,,,,,,,,,,,,,,,,,,,,,,,,,,
,,,,,,,,,,spanish,13 or older,"no, only English or Spanish",no,2025-07-24_10h30.43.068,empathy_intonation_perc_control,2024.2.4,Win32,59.88023952,66d06fd15b37d17345069c4c,68817205a84113384fffdfe3,6882437084ab3f46fe7db34c,,,,,,,,,,,,,1,,,,,,,,,,,,,,,,,,,,,,,,267.8519,269.0527,1,1,0.6814,,269.0528,270.0506,0,8,8,8,1,0,bien,REAL,FAKE,,,,,,,,,,,,,,,,,,,,,,,,,,,,,,,,
,,,,,,,,,,spanish,13 or older,"no, only English or Spanish",no,2025-07-24_10h30.43.068,empathy_intonation_perc_control,2024.2.4,Win32,59.88023952,66d06fd15b37d17345069c4c,68817205a84113384fffdfe3,6882437084ab3f46fe7db34c,,,,,,,,,,,,,1,,,,,,,,,,,,,,,,,,,,,,,,270.0519,271.3668,1,1,0.7675,,271.3671,272.37,0,9,9,9,1,0,casa,REAL,FAKE,,,,,,,,,,,,,,,,,,,,,,,,,,,,,,,,
,,,,,,,,,,spanish,13 or older,"no, only English or Spanish",no,2025-07-24_10h30.43.068,empathy_intonation_perc_control,2024.2.4,Win32,59.88023952,66d06fd15b37d17345069c4c,68817205a84113384fffdfe3,6882437084ab3f46fe7db34c,,,,,,,,,,,,,0,,,,,,,,,,,,,,,,,,,,,,,,272.3711,274.3717,0,1,1.4676,,274.3718,275.3665,0,10,10,10,1,0,lejo,REAL,FAKE,,,,,,,,,,,,,,,,,,,,,,,,,,,,,,,,
,,,,,,,,,,spanish,13 or older,"no, only English or Spanish",no,2025-07-24_10h30.43.068,empathy_intonation_perc_control,2024.2.4,Win32,59.88023952,66d06fd15b37d17345069c4c,68817205a84113384fffdfe3,6882437084ab3f46fe7db34c,,,,,,,,,,,,,0,,,,,,,,,,,,,,,,,,,,,,,,275.3683,276.8334,0,1,0.918,,276.8337,277.8339,0,11,11,11,1,0,pretantas,REAL,FAKE,,,,,,,,,,,,,,,,,,,,,,,,,,,,,,,,
,,,,,,,,,,spanish,13 or older,"no, only English or Spanish",no,2025-07-24_10h30.43.068,empathy_intonation_perc_control,2024.2.4,Win32,59.88023952,66d06fd15b37d17345069c4c,68817205a84113384fffdfe3,6882437084ab3f46fe7db34c,,,,,,,,,,,,,,,,,,,,,,,,,,,,,,,,,,,,,,,,,,,,,,,,,,,,,,277.8343,278.9179,,,,,,,,,,,,,,,,,,,,,,,,,,,,,,
,,,,,,,,,,spanish,13 or older,"no, only English or Spanish",no,2025-07-24_10h30.43.068,empathy_intonation_perc_control,2024.2.4,Win32,59.88023952,66d06fd15b37d17345069c4c,68817205a84113384fffdfe3,6882437084ab3f46fe7db34c,,,,,,,,,,,,,1,,,,,,,,,,,,,,,,,,,,,,,,,,,,,,,,,,,,,61,seda,,,,,278.9295,280.3675,0,0,0.9014,,0,0,0,60,1,REAL,FAKE,,,,,,,,,,,,,,,,,
,,,,,,,,,,spanish,13 or older,"no, only English or Spanish",no,2025-07-24_10h30.43.068,empathy_intonation_perc_control,2024.2.4,Win32,59.88023952,66d06fd15b37d17345069c4c,68817205a84113384fffdfe3,6882437084ab3f46fe7db34c,,,,,,,,,,,,,0,,,,,,,,,,,,,,,,,,,,,,,,,,,,,,,,,,,,,87,grodo,,,,,280.3689,282.016,1,0,1.1113,,0,1,1,86,1,REAL,FAKE,,,,,,,,,,,,,,,,,
,,,,,,,,,,spanish,13 or older,"no, only English or Spanish",no,2025-07-24_10h30.43.068,empathy_intonation_perc_control,2024.2.4,Win32,59.88023952,66d06fd15b37d17345069c4c,68817205a84113384fffdfe3,6882437084ab3f46fe7db34c,,,,,,,,,,,,,1,,,,,,,,,,,,,,,,,,,,,,,,,,,,,,,,,,,,,36,loro,,,,,282.0179,283.7995,0,0,1.2342,,0,2,2,35,1,REAL,FAKE,,,,,,,,,,,,,,,,,
,,,,,,,,,,spanish,13 or older,"no, only English or Spanish",no,2025-07-24_10h30.43.068,empathy_intonation_perc_control,2024.2.4,Win32,59.88023952,66d06fd15b37d17345069c4c,68817205a84113384fffdfe3,6882437084ab3f46fe7db34c,,,,,,,,,,,,,0,,,,,,,,,,,,,,,,,,,,,,,,,,,,,,,,,,,,,16,abracer,,,,,283.8008,285.1334,0,1,0.7951,,0,3,3,15,1,REAL,FAKE,,,,,,,,,,,,,,,,,
,,,,,,,,,,spanish,13 or older,"no, only English or Spanish",no,2025-07-24_10h30.43.068,empathy_intonation_perc_control,2024.2.4,Win32,59.88023952,66d06fd15b37d17345069c4c,68817205a84113384fffdfe3,6882437084ab3f46fe7db34c,,,,,,,,,,,,,1,,,,,,,,,,,,,,,,,,,,,,,,,,,,,,,,,,,,,86,barato,,,,,285.1343,286.6649,1,1,0.99,,0,4,4,85,1,REAL,FAKE,,,,,,,,,,,,,,,,,
,,,,,,,,,,spanish,13 or older,"no, only English or Spanish",no,2025-07-24_10h30.43.068,empathy_intonation_perc_control,2024.2.4,Win32,59.88023952,66d06fd15b37d17345069c4c,68817205a84113384fffdfe3,6882437084ab3f46fe7db34c,,,,,,,,,,,,,1,,,,,,,,,,,,,,,,,,,,,,,,,,,,,,,,,,,,,14,yunque,,,,,286.6676,288.3151,0,0,1.1081,,0,5,5,13,1,REAL,FAKE,,,,,,,,,,,,,,,,,
,,,,,,,,,,spanish,13 or older,"no, only English or Spanish",no,2025-07-24_10h30.43.068,empathy_intonation_perc_control,2024.2.4,Win32,59.88023952,66d06fd15b37d17345069c4c,68817205a84113384fffdfe3,6882437084ab3f46fe7db34c,,,,,,,,,,,,,1,,,,,,,,,,,,,,,,,,,,,,,,,,,,,,,,,,,,,48,ladrón,,,,,288.3178,289.7491,1,1,0.89,,0,6,6,47,1,REAL,FAKE,,,,,,,,,,,,,,,,,
,,,,,,,,,,spanish,13 or older,"no, only English or Spanish",no,2025-07-24_10h30.43.068,empathy_intonation_perc_control,2024.2.4,Win32,59.88023952,66d06fd15b37d17345069c4c,68817205a84113384fffdfe3,6882437084ab3f46fe7db34c,,,,,,,,,,,,,0,,,,,,,,,,,,,,,,,,,,,,,,,,,,,,,,,,,,,21,capillo,,,,,289.7508,291.3987,0,1,1.1008,,0,7,7,20,1,REAL,FAKE,,,,,,,,,,,,,,,,,
,,,,,,,,,,spanish,13 or older,"no, only English or Spanish",no,2025-07-24_10h30.43.068,empathy_intonation_perc_control,2024.2.4,Win32,59.88023952,66d06fd15b37d17345069c4c,68817205a84113384fffdfe3,6882437084ab3f46fe7db34c,,,,,,,,,,,,,0,,,,,,,,,,,,,,,,,,,,,,,,,,,,,,,,,,,,,35,rompido,,,,,291.4005,292.6154,0,1,0.6709,,0,8,8,34,1,REAL,FAKE,,,,,,,,,,,,,,,,,
,,,,,,,,,,spanish,13 or older,"no, only English or Spanish",no,2025-07-24_10h30.43.068,empathy_intonation_perc_control,2024.2.4,Win32,59.88023952,66d06fd15b37d17345069c4c,68817205a84113384fffdfe3,6882437084ab3f46fe7db34c,,,,,,,,,,,,,0,,,,,,,,,,,,,,,,,,,,,,,,,,,,,,,,,,,,,33,pauca,,,,,292.6174,293.9325,0,1,0.7675,,0,9,9,32,1,REAL,FAKE,,,,,,,,,,,,,,,,,
,,,,,,,,,,spanish,13 or older,"no, only English or Spanish",no,2025-07-24_10h30.43.068,empathy_intonation_perc_control,2024.2.4,Win32,59.88023952,66d06fd15b37d17345069c4c,68817205a84113384fffdfe3,6882437084ab3f46fe7db34c,,,,,,,,,,,,,1,,,,,,,,,,,,,,,,,,,,,,,,,,,,,,,,,,,,,77,tiburón,,,,,293.9338,295.7039,1,1,1.2339,,0,10,10,76,1,REAL,FAKE,,,,,,,,,,,,,,,,,
,,,,,,,,,,spanish,13 or older,"no, only English or Spanish",no,2025-07-24_10h30.43.068,empathy_intonation_perc_control,2024.2.4,Win32,59.88023952,66d06fd15b37d17345069c4c,68817205a84113384fffdfe3,6882437084ab3f46fe7db34c,,,,,,,,,,,,,0,,,,,,,,,,,,,,,,,,,,,,,,,,,,,,,,,,,,,32,fatacidad,,,,,295.7046,297.3148,1,0,1.0676,,0,11,11,31,1,REAL,FAKE,,,,,,,,,,,,,,,,,
,,,,,,,,,,spanish,13 or older,"no, only English or Spanish",no,2025-07-24_10h30.43.068,empathy_intonation_perc_control,2024.2.4,Win32,59.88023952,66d06fd15b37d17345069c4c,68817205a84113384fffdfe3,6882437084ab3f46fe7db34c,,,,,,,,,,,,,1,,,,,,,,,,,,,,,,,,,,,,,,,,,,,,,,,,,,,51,candado,,,,,297.3159,299.0981,0,0,1.2528,,0,12,12,50,1,REAL,FAKE,,,,,,,,,,,,,,,,,
,,,,,,,,,,spanish,13 or older,"no, only English or Spanish",no,2025-07-24_10h30.43.068,empathy_intonation_perc_control,2024.2.4,Win32,59.88023952,66d06fd15b37d17345069c4c,68817205a84113384fffdfe3,6882437084ab3f46fe7db34c,,,,,,,,,,,,,1,,,,,,,,,,,,,,,,,,,,,,,,,,,,,,,,,,,,,43,canela,,,,,299.0993,300.9651,1,1,1.3335,,0,13,13,42,1,REAL,FAKE,,,,,,,,,,,,,,,,,
,,,,,,,,,,spanish,13 or older,"no, only English or Spanish",no,2025-07-24_10h30.43.068,empathy_intonation_perc_control,2024.2.4,Win32,59.88023952,66d06fd15b37d17345069c4c,68817205a84113384fffdfe3,6882437084ab3f46fe7db34c,,,,,,,,,,,,,1,,,,,,,,,,,,,,,,,,,,,,,,,,,,,,,,,,,,,39,torpe,,,,,300.9676,302.448,0,0,0.9479,,0,14,14,38,1,REAL,FAKE,,,,,,,,,,,,,,,,,
,,,,,,,,,,spanish,13 or older,"no, only English or Spanish",no,2025-07-24_10h30.43.068,empathy_intonation_perc_control,2024.2.4,Win32,59.88023952,66d06fd15b37d17345069c4c,68817205a84113384fffdfe3,6882437084ab3f46fe7db34c,,,,,,,,,,,,,1,,,,,,,,,,,,,,,,,,,,,,,,,,,,,,,,,,,,,7,pésimo,,,,,302.4492,303.6146,1,1,0.6322,,0,15,15,6,1,REAL,FAKE,,,,,,,,,,,,,,,,,
,,,,,,,,,,spanish,13 or older,"no, only English or Spanish",no,2025-07-24_10h30.43.068,empathy_intonation_perc_control,2024.2.4,Win32,59.88023952,66d06fd15b37d17345069c4c,68817205a84113384fffdfe3,6882437084ab3f46fe7db34c,,,,,,,,,,,,,0,,,,,,,,,,,,,,,,,,,,,,,,,,,,,,,,,,,,,23,lampera,,,,,303.6151,304.9145,1,0,0.7668,,0,16,16,22,1,REAL,FAKE,,,,,,,,,,,,,,,,,
,,,,,,,,,,spanish,13 or older,"no, only English or Spanish",no,2025-07-24_10h30.43.068,empathy_intonation_perc_control,2024.2.4,Win32,59.88023952,66d06fd15b37d17345069c4c,68817205a84113384fffdfe3,6882437084ab3f46fe7db34c,,,,,,,,,,,,,0,,,,,,,,,,,,,,,,,,,,,,,,,,,,,,,,,,,,,42,cadallo,,,,,304.9159,306.0313,0,1,0.5909,,0,17,17,41,1,REAL,FAKE,,,,,,,,,,,,,,,,,
,,,,,,,,,,spanish,13 or older,"no, only English or Spanish",no,2025-07-24_10h30.43.068,empathy_intonation_perc_control,2024.2.4,Win32,59.88023952,66d06fd15b37d17345069c4c,68817205a84113384fffdfe3,6882437084ab3f46fe7db34c,,,,,,,,,,,,,1,,,,,,,,,,,,,,,,,,,,,,,,,,,,,,,,,,,,,67,cabello,,,,,306.0324,307.4811,1,1,0.9196,,0,18,18,66,1,REAL,FAKE,,,,,,,,,,,,,,,,,
,,,,,,,,,,spanish,13 or older,"no, only English or Spanish",no,2025-07-24_10h30.43.068,empathy_intonation_perc_control,2024.2.4,Win32,59.88023952,66d06fd15b37d17345069c4c,68817205a84113384fffdfe3,6882437084ab3f46fe7db34c,,,,,,,,,,,,,1,,,,,,,,,,,,,,,,,,,,,,,,,,,,,,,,,,,,,3,pulmones,,,,,307.4824,309.3311,0,0,1.316,,0,19,19,2,1,REAL,FAKE,,,,,,,,,,,,,,,,,
,,,,,,,,,,spanish,13 or older,"no, only English or Spanish",no,2025-07-24_10h30.43.068,empathy_intonation_perc_control,2024.2.4,Win32,59.88023952,66d06fd15b37d17345069c4c,68817205a84113384fffdfe3,6882437084ab3f46fe7db34c,,,,,,,,,,,,,1,,,,,,,,,,,,,,,,,,,,,,,,,,,,,,,,,,,,,71,polvoriento,,,,,309.3331,310.6145,0,0,0.7671,,0,20,20,70,1,REAL,FAKE,,,,,,,,,,,,,,,,,
,,,,,,,,,,spanish,13 or older,"no, only English or Spanish",no,2025-07-24_10h30.43.068,empathy_intonation_perc_control,2024.2.4,Win32,59.88023952,66d06fd15b37d17345069c4c,68817205a84113384fffdfe3,6882437084ab3f46fe7db34c,,,,,,,,,,,,,0,,,,,,,,,,,,,,,,,,,,,,,,,,,,,,,,,,,,,50,flamida,,,,,310.6155,312.081,0,1,0.9362,,0,21,21,49,1,REAL,FAKE,,,,,,,,,,,,,,,,,
,,,,,,,,,,spanish,13 or older,"no, only English or Spanish",no,2025-07-24_10h30.43.068,empathy_intonation_perc_control,2024.2.4,Win32,59.88023952,66d06fd15b37d17345069c4c,68817205a84113384fffdfe3,6882437084ab3f46fe7db34c,,,,,,,,,,,,,0,,,,,,,,,,,,,,,,,,,,,,,,,,,,,,,,,,,,,74,cintro,,,,,312.0816,313.2142,1,0,0.599,,0,22,22,73,1,REAL,FAKE,,,,,,,,,,,,,,,,,
,,,,,,,,,,spanish,13 or older,"no, only English or Spanish",no,2025-07-24_10h30.43.068,empathy_intonation_perc_control,2024.2.4,Win32,59.88023952,66d06fd15b37d17345069c4c,68817205a84113384fffdfe3,6882437084ab3f46fe7db34c,,,,,,,,,,,,,1,,,,,,,,,,,,,,,,,,,,,,,,,,,,,,,,,,,,,38,estornudar,,,,,313.2156,314.8475,0,0,1.1169,,0,23,23,37,1,REAL,FAKE,,,,,,,,,,,,,,,,,
,,,,,,,,,,spanish,13 or older,"no, only English or Spanish",no,2025-07-24_10h30.43.068,empathy_intonation_perc_control,2024.2.4,Win32,59.88023952,66d06fd15b37d17345069c4c,68817205a84113384fffdfe3,6882437084ab3f46fe7db34c,,,,,,,,,,,,,0,,,,,,,,,,,,,,,,,,,,,,,,,,,,,,,,,,,,,79,tropaje,,,,,314.8486,316.1807,1,0,0.8214,,0,24,24,78,1,REAL,FAKE,,,,,,,,,,,,,,,,,
,,,,,,,,,,spanish,13 or older,"no, only English or Spanish",no,2025-07-24_10h30.43.068,empathy_intonation_perc_control,2024.2.4,Win32,59.88023952,66d06fd15b37d17345069c4c,68817205a84113384fffdfe3,6882437084ab3f46fe7db34c,,,,,,,,,,,,,1,,,,,,,,,,,,,,,,,,,,,,,,,,,,,,,,,,,,,54,fomentar,,,,,316.1818,317.9809,1,1,1.2763,,0,25,25,53,1,REAL,FAKE,,,,,,,,,,,,,,,,,
,,,,,,,,,,spanish,13 or older,"no, only English or Spanish",no,2025-07-24_10h30.43.068,empathy_intonation_perc_control,2024.2.4,Win32,59.88023952,66d06fd15b37d17345069c4c,68817205a84113384fffdfe3,6882437084ab3f46fe7db34c,,,,,,,,,,,,,1,,,,,,,,,,,,,,,,,,,,,,,,,,,,,,,,,,,,,11,cenefa,,,,,317.9823,319.0807,0,0,0.5739,,0,26,26,10,1,REAL,FAKE,,,,,,,,,,,,,,,,,
,,,,,,,,,,spanish,13 or older,"no, only English or Spanish",no,2025-07-24_10h30.43.068,empathy_intonation_perc_control,2024.2.4,Win32,59.88023952,66d06fd15b37d17345069c4c,68817205a84113384fffdfe3,6882437084ab3f46fe7db34c,,,,,,,,,,,,,1,,,,,,,,,,,,,,,,,,,,,,,,,,,,,,,,,,,,,73,hervidor,,,,,319.082,320.2806,0,0,0.6819,,0,27,27,72,1,REAL,FAKE,,,,,,,,,,,,,,,,,
,,,,,,,,,,spanish,13 or older,"no, only English or Spanish",no,2025-07-24_10h30.43.068,empathy_intonation_perc_control,2024.2.4,Win32,59.88023952,66d06fd15b37d17345069c4c,68817205a84113384fffdfe3,6882437084ab3f46fe7db34c,,,,,,,,,,,,,1,,,,,,,,,,,,,,,,,,,,,,,,,,,,,,,,,,,,,26,secuestro,,,,,320.2818,321.714,1,1,0.9091,,0,28,28,25,1,REAL,FAKE,,,,,,,,,,,,,,,,,
,,,,,,,,,,spanish,13 or older,"no, only English or Spanish",no,2025-07-24_10h30.43.068,empathy_intonation_perc_control,2024.2.4,Win32,59.88023952,66d06fd15b37d17345069c4c,68817205a84113384fffdfe3,6882437084ab3f46fe7db34c,,,,,,,,,,,,,1,,,,,,,,,,,,,,,,,,,,,,,,,,,,,,,,,,,,,64,orgulloso,,,,,321.7149,323.0472,0,0,0.805,,0,29,29,63,1,REAL,FAKE,,,,,,,,,,,,,,,,,
,,,,,,,,,,spanish,13 or older,"no, only English or Spanish",no,2025-07-24_10h30.43.068,empathy_intonation_perc_control,2024.2.4,Win32,59.88023952,66d06fd15b37d17345069c4c,68817205a84113384fffdfe3,6882437084ab3f46fe7db34c,,,,,,,,,,,,,1,,,,,,,,,,,,,,,,,,,,,,,,,,,,,,,,,,,,,57,tacaño,,,,,323.0491,324.2639,1,1,0.683,,0,30,30,56,1,REAL,FAKE,,,,,,,,,,,,,,,,,
,,,,,,,,,,spanish,13 or older,"no, only English or Spanish",no,2025-07-24_10h30.43.068,empathy_intonation_perc_control,2024.2.4,Win32,59.88023952,66d06fd15b37d17345069c4c,68817205a84113384fffdfe3,6882437084ab3f46fe7db34c,,,,,,,,,,,,,1,,,,,,,,,,,,,,,,,,,,,,,,,,,,,,,,,,,,,68,alegre,,,,,324.2651,325.5805,1,1,0.7899,,0,31,31,67,1,REAL,FAKE,,,,,,,,,,,,,,,,,
,,,,,,,,,,spanish,13 or older,"no, only English or Spanish",no,2025-07-24_10h30.43.068,empathy_intonation_perc_control,2024.2.4,Win32,59.88023952,66d06fd15b37d17345069c4c,68817205a84113384fffdfe3,6882437084ab3f46fe7db34c,,,,,,,,,,,,,0,,,,,,,,,,,,,,,,,,,,,,,,,,,,,,,,,,,,,66,hacido,,,,,325.5818,327.0305,1,0,0.9232,,0,32,32,65,1,REAL,FAKE,,,,,,,,,,,,,,,,,
,,,,,,,,,,spanish,13 or older,"no, only English or Spanish",no,2025-07-24_10h30.43.068,empathy_intonation_perc_control,2024.2.4,Win32,59.88023952,66d06fd15b37d17345069c4c,68817205a84113384fffdfe3,6882437084ab3f46fe7db34c,,,,,,,,,,,,,0,,,,,,,,,,,,,,,,,,,,,,,,,,,,,,,,,,,,,82,empirador,,,,,327.0317,328.1636,0,1,0.6102,,0,33,33,81,1,REAL,FAKE,,,,,,,,,,,,,,,,,
,,,,,,,,,,spanish,13 or older,"no, only English or Spanish",no,2025-07-24_10h30.43.068,empathy_intonation_perc_control,2024.2.4,Win32,59.88023952,66d06fd15b37d17345069c4c,68817205a84113384fffdfe3,6882437084ab3f46fe7db34c,,,,,,,,,,,,,0,,,,,,,,,,,,,,,,,,,,,,,,,,,,,,,,,,,,,30,alardio,,,,,328.165,329.5471,0,1,0.8486,,0,34,34,29,1,REAL,FAKE,,,,,,,,,,,,,,,,,
,,,,,,,,,,spanish,13 or older,"no, only English or Spanish",no,2025-07-24_10h30.43.068,empathy_intonation_perc_control,2024.2.4,Win32,59.88023952,66d06fd15b37d17345069c4c,68817205a84113384fffdfe3,6882437084ab3f46fe7db34c,,,,,,,,,,,,,1,,,,,,,,,,,,,,,,,,,,,,,,,,,,,,,,,,,,,91,click the 1 key.,,,,,329.5495,331.6636,1,1,1.5814,,0,35,35,90,1,REAL,FAKE,,,,,,,,,,,,,,,,,
,,,,,,,,,,spanish,13 or older,"no, only English or Spanish",no,2025-07-24_10h30.43.068,empathy_intonation_perc_control,2024.2.4,Win32,59.88023952,66d06fd15b37d17345069c4c,68817205a84113384fffdfe3,6882437084ab3f46fe7db34c,,,,,,,,,,,,,1,,,,,,,,,,,,,,,,,,,,,,,,,,,,,,,,,,,,,81,pozo,,,,,331.6658,333.4136,0,0,1.2192,,0,36,36,80,1,REAL,FAKE,,,,,,,,,,,,,,,,,
,,,,,,,,,,spanish,13 or older,"no, only English or Spanish",no,2025-07-24_10h30.43.068,empathy_intonation_perc_control,2024.2.4,Win32,59.88023952,66d06fd15b37d17345069c4c,68817205a84113384fffdfe3,6882437084ab3f46fe7db34c,,,,,,,,,,,,,1,,,,,,,,,,,,,,,,,,,,,,,,,,,,,,,,,,,,,9,hacha,,,,,333.4151,335.1303,1,1,1.1831,,0,37,37,8,1,REAL,FAKE,,,,,,,,,,,,,,,,,
,,,,,,,,,,spanish,13 or older,"no, only English or Spanish",no,2025-07-24_10h30.43.068,empathy_intonation_perc_control,2024.2.4,Win32,59.88023952,66d06fd15b37d17345069c4c,68817205a84113384fffdfe3,6882437084ab3f46fe7db34c,,,,,,,,,,,,,1,,,,,,,,,,,,,,,,,,,,,,,,,,,,,,,,,,,,,80,hormiga,,,,,335.1316,336.3476,0,0,0.6845,,0,38,38,79,1,REAL,FAKE,,,,,,,,,,,,,,,,,
,,,,,,,,,,spanish,13 or older,"no, only English or Spanish",no,2025-07-24_10h30.43.068,empathy_intonation_perc_control,2024.2.4,Win32,59.88023952,66d06fd15b37d17345069c4c,68817205a84113384fffdfe3,6882437084ab3f46fe7db34c,,,,,,,,,,,,,0,,,,,,,,,,,,,,,,,,,,,,,,,,,,,,,,,,,,,4,batillón,,,,,336.3488,338.0301,0,1,1.1499,,0,39,39,3,1,REAL,FAKE,,,,,,,,,,,,,,,,,
,,,,,,,,,,spanish,13 or older,"no, only English or Spanish",no,2025-07-24_10h30.43.068,empathy_intonation_perc_control,2024.2.4,Win32,59.88023952,66d06fd15b37d17345069c4c,68817205a84113384fffdfe3,6882437084ab3f46fe7db34c,,,,,,,,,,,,,0,,,,,,,,,,,,,,,,,,,,,,,,,,,,,,,,,,,,,92,click the 0 key.,,,,,338.0315,339.3467,0,1,0.7905,,0,40,40,91,1,REAL,FAKE,,,,,,,,,,,,,,,,,
,,,,,,,,,,spanish,13 or older,"no, only English or Spanish",no,2025-07-24_10h30.43.068,empathy_intonation_perc_control,2024.2.4,Win32,59.88023952,66d06fd15b37d17345069c4c,68817205a84113384fffdfe3,6882437084ab3f46fe7db34c,,,,,,,,,,,,,1,,,,,,,,,,,,,,,,,,,,,,,,,,,,,,,,,,,,,62,flaco,,,,,339.348,340.6633,1,1,0.7924,,0,41,41,61,1,REAL,FAKE,,,,,,,,,,,,,,,,,
,,,,,,,,,,spanish,13 or older,"no, only English or Spanish",no,2025-07-24_10h30.43.068,empathy_intonation_perc_control,2024.2.4,Win32,59.88023952,66d06fd15b37d17345069c4c,68817205a84113384fffdfe3,6882437084ab3f46fe7db34c,,,,,,,,,,,,,1,,,,,,,,,,,,,,,,,,,,,,,,,,,,,,,,,,,,,34,aviso,,,,,340.6638,341.9185,1,1,0.7338,,0,42,42,33,1,REAL,FAKE,,,,,,,,,,,,,,,,,
,,,,,,,,,,spanish,13 or older,"no, only English or Spanish",no,2025-07-24_10h30.43.068,empathy_intonation_perc_control,2024.2.4,Win32,59.88023952,66d06fd15b37d17345069c4c,68817205a84113384fffdfe3,6882437084ab3f46fe7db34c,,,,,,,,,,,,,1,,,,,,,,,,,,,,,,,,,,,,,,,,,,,,,,,,,,,65,bizcocho,,,,,341.919,343.2847,0,0,0.8335,,0,43,43,64,1,REAL,FAKE,,,,,,,,,,,,,,,,,
,,,,,,,,,,spanish,13 or older,"no, only English or Spanish",no,2025-07-24_10h30.43.068,empathy_intonation_perc_control,2024.2.4,Win32,59.88023952,66d06fd15b37d17345069c4c,68817205a84113384fffdfe3,6882437084ab3f46fe7db34c,,,,,,,,,,,,,1,,,,,,,,,,,,,,,,,,,,,,,,,,,,,,,,,,,,,41,rebuscar,,,,,343.2853,344.5852,1,1,0.7667,,0,44,44,40,1,REAL,FAKE,,,,,,,,,,,,,,,,,
,,,,,,,,,,spanish,13 or older,"no, only English or Spanish",no,2025-07-24_10h30.43.068,empathy_intonation_perc_control,2024.2.4,Win32,59.88023952,66d06fd15b37d17345069c4c,68817205a84113384fffdfe3,6882437084ab3f46fe7db34c,,,,,,,,,,,,,1,,,,,,,,,,,,,,,,,,,,,,,,,,,,,,,,,,,,,90,clavel,,,,,344.5857,345.9512,0,0,0.8333,,0,45,45,89,1,REAL,FAKE,,,,,,,,,,,,,,,,,
,,,,,,,,,,spanish,13 or older,"no, only English or Spanish",no,2025-07-24_10h30.43.068,empathy_intonation_perc_control,2024.2.4,Win32,59.88023952,66d06fd15b37d17345069c4c,68817205a84113384fffdfe3,6882437084ab3f46fe7db34c,,,,,,,,,,,,,1,,,,,,,,,,,,,,,,,,,,,,,,,,,,,,,,,,,,,52,camisa,,,,,345.9516,348.718,1,1,2.2333,,0,46,46,51,1,REAL,FAKE,,,,,,,,,,,,,,,,,
,,,,,,,,,,spanish,13 or older,"no, only English or Spanish",no,2025-07-24_10h30.43.068,empathy_intonation_perc_control,2024.2.4,Win32,59.88023952,66d06fd15b37d17345069c4c,68817205a84113384fffdfe3,6882437084ab3f46fe7db34c,,,,,,,,,,,,,1,,,,,,,,,,,,,,,,,,,,,,,,,,,,,,,,,,,,,89,prisa,,,,,348.7185,350.1846,0,0,0.9339,,0,47,47,88,1,REAL,FAKE,,,,,,,,,,,,,,,,,
,,,,,,,,,,spanish,13 or older,"no, only English or Spanish",no,2025-07-24_10h30.43.068,empathy_intonation_perc_control,2024.2.4,Win32,59.88023952,66d06fd15b37d17345069c4c,68817205a84113384fffdfe3,6882437084ab3f46fe7db34c,,,,,,,,,,,,,1,,,,,,,,,,,,,,,,,,,,,,,,,,,,,,,,,,,,,40,alfombra,,,,,350.1851,351.5017,0,0,0.784,,0,48,48,39,1,REAL,FAKE,,,,,,,,,,,,,,,,,
,,,,,,,,,,spanish,13 or older,"no, only English or Spanish",no,2025-07-24_10h30.43.068,empathy_intonation_perc_control,2024.2.4,Win32,59.88023952,66d06fd15b37d17345069c4c,68817205a84113384fffdfe3,6882437084ab3f46fe7db34c,,,,,,,,,,,,,1,,,,,,,,,,,,,,,,,,,,,,,,,,,,,,,,,,,,,6,tergiversar,,,,,351.5023,352.9356,0,0,0.9004,,0,49,49,5,1,REAL,FAKE,,,,,,,,,,,,,,,,,
,,,,,,,,,,spanish,13 or older,"no, only English or Spanish",no,2025-07-24_10h30.43.068,empathy_intonation_perc_control,2024.2.4,Win32,59.88023952,66d06fd15b37d17345069c4c,68817205a84113384fffdfe3,6882437084ab3f46fe7db34c,,,,,,,,,,,,,0,,,,,,,,,,,,,,,,,,,,,,,,,,,,,,,,,,,,,72,pemición,,,,,352.9362,354.5686,0,1,1.117,,0,50,50,71,1,REAL,FAKE,,,,,,,,,,,,,,,,,
,,,,,,,,,,spanish,13 or older,"no, only English or Spanish",no,2025-07-24_10h30.43.068,empathy_intonation_perc_control,2024.2.4,Win32,59.88023952,66d06fd15b37d17345069c4c,68817205a84113384fffdfe3,6882437084ab3f46fe7db34c,,,,,,,,,,,,,1,,,,,,,,,,,,,,,,,,,,,,,,,,,,,,,,,,,,,13,helar,,,,,354.569,355.9691,0,0,0.8842,,0,51,51,12,1,REAL,FAKE,,,,,,,,,,,,,,,,,
,,,,,,,,,,spanish,13 or older,"no, only English or Spanish",no,2025-07-24_10h30.43.068,empathy_intonation_perc_control,2024.2.4,Win32,59.88023952,66d06fd15b37d17345069c4c,68817205a84113384fffdfe3,6882437084ab3f46fe7db34c,,,,,,,,,,,,,1,,,,,,,,,,,,,,,,,,,,,,,,,,,,,,,,,,,,,5,zapato,,,,,355.9696,357.6511,1,1,1.1501,,0,52,52,4,1,REAL,FAKE,,,,,,,,,,,,,,,,,
,,,,,,,,,,spanish,13 or older,"no, only English or Spanish",no,2025-07-24_10h30.43.068,empathy_intonation_perc_control,2024.2.4,Win32,59.88023952,66d06fd15b37d17345069c4c,68817205a84113384fffdfe3,6882437084ab3f46fe7db34c,,,,,,,,,,,,,1,,,,,,,,,,,,,,,,,,,,,,,,,,,,,,,,,,,,,85,laúd,,,,,357.6518,359.0356,0,0,0.8513,,0,53,53,84,1,REAL,FAKE,,,,,,,,,,,,,,,,,
,,,,,,,,,,spanish,13 or older,"no, only English or Spanish",no,2025-07-24_10h30.43.068,empathy_intonation_perc_control,2024.2.4,Win32,59.88023952,66d06fd15b37d17345069c4c,68817205a84113384fffdfe3,6882437084ab3f46fe7db34c,,,,,,,,,,,,,1,,,,,,,,,,,,,,,,,,,,,,,,,,,,,,,,,,,,,60,matar,,,,,359.0361,360.3511,0,0,0.7825,,0,54,54,59,1,REAL,FAKE,,,,,,,,,,,,,,,,,
,,,,,,,,,,spanish,13 or older,"no, only English or Spanish",no,2025-07-24_10h30.43.068,empathy_intonation_perc_control,2024.2.4,Win32,59.88023952,66d06fd15b37d17345069c4c,68817205a84113384fffdfe3,6882437084ab3f46fe7db34c,,,,,,,,,,,,,0,,,,,,,,,,,,,,,,,,,,,,,,,,,,,,,,,,,,,70,temblo,,,,,360.3515,361.7843,0,1,0.9003,,0,55,55,69,1,REAL,FAKE,,,,,,,,,,,,,,,,,
,,,,,,,,,,spanish,13 or older,"no, only English or Spanish",no,2025-07-24_10h30.43.068,empathy_intonation_perc_control,2024.2.4,Win32,59.88023952,66d06fd15b37d17345069c4c,68817205a84113384fffdfe3,6882437084ab3f46fe7db34c,,,,,,,,,,,,,1,,,,,,,,,,,,,,,,,,,,,,,,,,,,,,,,,,,,,55,nevar,,,,,361.7848,363.5506,0,0,1.2332,,0,56,56,54,1,REAL,FAKE,,,,,,,,,,,,,,,,,
,,,,,,,,,,spanish,13 or older,"no, only English or Spanish",no,2025-07-24_10h30.43.068,empathy_intonation_perc_control,2024.2.4,Win32,59.88023952,66d06fd15b37d17345069c4c,68817205a84113384fffdfe3,6882437084ab3f46fe7db34c,,,,,,,,,,,,,0,,,,,,,,,,,,,,,,,,,,,,,,,,,,,,,,,,,,,17,floroso,,,,,363.5513,364.9173,1,0,0.8336,,0,57,57,16,1,REAL,FAKE,,,,,,,,,,,,,,,,,
,,,,,,,,,,spanish,13 or older,"no, only English or Spanish",no,2025-07-24_10h30.43.068,empathy_intonation_perc_control,2024.2.4,Win32,59.88023952,66d06fd15b37d17345069c4c,68817205a84113384fffdfe3,6882437084ab3f46fe7db34c,,,,,,,,,,,,,1,,,,,,,,,,,,,,,,,,,,,,,,,,,,,,,,,,,,,46,martillo,,,,,364.9179,366.5008,1,1,1.0665,,0,58,58,45,1,REAL,FAKE,,,,,,,,,,,,,,,,,
,,,,,,,,,,spanish,13 or older,"no, only English or Spanish",no,2025-07-24_10h30.43.068,empathy_intonation_perc_control,2024.2.4,Win32,59.88023952,66d06fd15b37d17345069c4c,68817205a84113384fffdfe3,6882437084ab3f46fe7db34c,,,,,,,,,,,,,1,,,,,,,,,,,,,,,,,,,,,,,,,,,,,,,,,,,,,12,asesinato,,,,,366.5013,367.7845,0,0,0.7669,,0,59,59,11,1,REAL,FAKE,,,,,,,,,,,,,,,,,
,,,,,,,,,,spanish,13 or older,"no, only English or Spanish",no,2025-07-24_10h30.43.068,empathy_intonation_perc_control,2024.2.4,Win32,59.88023952,66d06fd15b37d17345069c4c,68817205a84113384fffdfe3,6882437084ab3f46fe7db34c,,,,,,,,,,,,,1,,,,,,,,,,,,,,,,,,,,,,,,,,,,,,,,,,,,,45,jilguero,,,,,367.7852,369.468,1,1,1.1509,,0,60,60,44,1,REAL,FAKE,,,,,,,,,,,,,,,,,
,,,,,,,,,,spanish,13 or older,"no, only English or Spanish",no,2025-07-24_10h30.43.068,empathy_intonation_perc_control,2024.2.4,Win32,59.88023952,66d06fd15b37d17345069c4c,68817205a84113384fffdfe3,6882437084ab3f46fe7db34c,,,,,,,,,,,,,1,,,,,,,,,,,,,,,,,,,,,,,,,,,,,,,,,,,,,76,atar,,,,,369.4684,370.7508,0,0,0.7503,,0,61,61,75,1,REAL,FAKE,,,,,,,,,,,,,,,,,
,,,,,,,,,,spanish,13 or older,"no, only English or Spanish",no,2025-07-24_10h30.43.068,empathy_intonation_perc_control,2024.2.4,Win32,59.88023952,66d06fd15b37d17345069c4c,68817205a84113384fffdfe3,6882437084ab3f46fe7db34c,,,,,,,,,,,,,0,,,,,,,,,,,,,,,,,,,,,,,,,,,,,,,,,,,,,19,brecedad,,,,,370.7513,372.2011,0,1,0.9174,,0,62,62,18,1,REAL,FAKE,,,,,,,,,,,,,,,,,
,,,,,,,,,,spanish,13 or older,"no, only English or Spanish",no,2025-07-24_10h30.43.068,empathy_intonation_perc_control,2024.2.4,Win32,59.88023952,66d06fd15b37d17345069c4c,68817205a84113384fffdfe3,6882437084ab3f46fe7db34c,,,,,,,,,,,,,0,,,,,,,,,,,,,,,,,,,,,,,,,,,,,,,,,,,,,1,terzo,,,,,372.2017,373.5841,1,0,0.8502,,0,63,63,0,1,REAL,FAKE,,,,,,,,,,,,,,,,,
,,,,,,,,,,spanish,13 or older,"no, only English or Spanish",no,2025-07-24_10h30.43.068,empathy_intonation_perc_control,2024.2.4,Win32,59.88023952,66d06fd15b37d17345069c4c,68817205a84113384fffdfe3,6882437084ab3f46fe7db34c,,,,,,,,,,,,,0,,,,,,,,,,,,,,,,,,,,,,,,,,,,,,,,,,,,,84,escuto,,,,,373.5845,374.8017,1,0,0.6844,,0,64,64,83,1,REAL,FAKE,,,,,,,,,,,,,,,,,
,,,,,,,,,,spanish,13 or older,"no, only English or Spanish",no,2025-07-24_10h30.43.068,empathy_intonation_perc_control,2024.2.4,Win32,59.88023952,66d06fd15b37d17345069c4c,68817205a84113384fffdfe3,6882437084ab3f46fe7db34c,,,,,,,,,,,,,0,,,,,,,,,,,,,,,,,,,,,,,,,,,,,,,,,,,,,29,decar,,,,,374.8022,376.4128,1,0,1.0779,,0,65,65,28,1,REAL,FAKE,,,,,,,,,,,,,,,,,
,,,,,,,,,,spanish,13 or older,"no, only English or Spanish",no,2025-07-24_10h30.43.068,empathy_intonation_perc_control,2024.2.4,Win32,59.88023952,66d06fd15b37d17345069c4c,68817205a84113384fffdfe3,6882437084ab3f46fe7db34c,,,,,,,,,,,,,1,,,,,,,,,,,,,,,,,,,,,,,,,,,,,,,,,,,,,69,engatusar,,,,,376.4143,377.4637,0,0,0.5057,,0,66,66,68,1,REAL,FAKE,,,,,,,,,,,,,,,,,
,,,,,,,,,,spanish,13 or older,"no, only English or Spanish",no,2025-07-24_10h30.43.068,empathy_intonation_perc_control,2024.2.4,Win32,59.88023952,66d06fd15b37d17345069c4c,68817205a84113384fffdfe3,6882437084ab3f46fe7db34c,,,,,,,,,,,,,1,,,,,,,,,,,,,,,,,,,,,,,,,,,,,,,,,,,,,37,granuja,,,,,377.465,378.964,1,1,0.9631,,0,67,67,36,1,REAL,FAKE,,,,,,,,,,,,,,,,,
,,,,,,,,,,spanish,13 or older,"no, only English or Spanish",no,2025-07-24_10h30.43.068,empathy_intonation_perc_control,2024.2.4,Win32,59.88023952,66d06fd15b37d17345069c4c,68817205a84113384fffdfe3,6882437084ab3f46fe7db34c,,,,,,,,,,,,,0,,,,,,,,,,,,,,,,,,,,,,,,,,,,,,,,,,,,,58,plaudir,,,,,378.9646,380.0341,0,1,0.5333,,0,68,68,57,1,REAL,FAKE,,,,,,,,,,,,,,,,,
,,,,,,,,,,spanish,13 or older,"no, only English or Spanish",no,2025-07-24_10h30.43.068,empathy_intonation_perc_control,2024.2.4,Win32,59.88023952,66d06fd15b37d17345069c4c,68817205a84113384fffdfe3,6882437084ab3f46fe7db34c,,,,,,,,,,,,,1,,,,,,,,,,,,,,,,,,,,,,,,,,,,,,,,,,,,,2,pellizcar,,,,,380.0347,381.4957,1,1,0.9255,,0,69,69,1,1,REAL,FAKE,,,,,,,,,,,,,,,,,
,,,,,,,,,,spanish,13 or older,"no, only English or Spanish",no,2025-07-24_10h30.43.068,empathy_intonation_perc_control,2024.2.4,Win32,59.88023952,66d06fd15b37d17345069c4c,68817205a84113384fffdfe3,6882437084ab3f46fe7db34c,,,,,,,,,,,,,1,,,,,,,,,,,,,,,,,,,,,,,,,,,,,,,,,,,,,22,lacayo,,,,,381.4978,383.0623,1,1,1.0225,,0,70,70,21,1,REAL,FAKE,,,,,,,,,,,,,,,,,
,,,,,,,,,,spanish,13 or older,"no, only English or Spanish",no,2025-07-24_10h30.43.068,empathy_intonation_perc_control,2024.2.4,Win32,59.88023952,66d06fd15b37d17345069c4c,68817205a84113384fffdfe3,6882437084ab3f46fe7db34c,,,,,,,,,,,,,0,,,,,,,,,,,,,,,,,,,,,,,,,,,,,,,,,,,,,10,antar,,,,,383.0645,384.2789,0,1,0.6703,,0,71,71,9,1,REAL,FAKE,,,,,,,,,,,,,,,,,
,,,,,,,,,,spanish,13 or older,"no, only English or Spanish",no,2025-07-24_10h30.43.068,empathy_intonation_perc_control,2024.2.4,Win32,59.88023952,66d06fd15b37d17345069c4c,68817205a84113384fffdfe3,6882437084ab3f46fe7db34c,,,,,,,,,,,,,1,,,,,,,,,,,,,,,,,,,,,,,,,,,,,,,,,,,,,28,merodear,,,,,384.2807,385.4954,0,0,0.6757,,0,72,72,27,1,REAL,FAKE,,,,,,,,,,,,,,,,,
,,,,,,,,,,spanish,13 or older,"no, only English or Spanish",no,2025-07-24_10h30.43.068,empathy_intonation_perc_control,2024.2.4,Win32,59.88023952,66d06fd15b37d17345069c4c,68817205a84113384fffdfe3,6882437084ab3f46fe7db34c,,,,,,,,,,,,,1,,,,,,,,,,,,,,,,,,,,,,,,,,,,,,,,,,,,,83,guante,,,,,385.4975,386.6996,1,1,0.6658,,0,73,73,82,1,REAL,FAKE,,,,,,,,,,,,,,,,,
,,,,,,,,,,spanish,13 or older,"no, only English or Spanish",no,2025-07-24_10h30.43.068,empathy_intonation_perc_control,2024.2.4,Win32,59.88023952,66d06fd15b37d17345069c4c,68817205a84113384fffdfe3,6882437084ab3f46fe7db34c,,,,,,,,,,,,,0,,,,,,,,,,,,,,,,,,,,,,,,,,,,,,,,,,,,,47,cartinar,,,,,386.7002,388.0791,1,0,0.8449,,0,74,74,46,1,REAL,FAKE,,,,,,,,,,,,,,,,,
,,,,,,,,,,spanish,13 or older,"no, only English or Spanish",no,2025-07-24_10h30.43.068,empathy_intonation_perc_control,2024.2.4,Win32,59.88023952,66d06fd15b37d17345069c4c,68817205a84113384fffdfe3,6882437084ab3f46fe7db34c,,,,,,,,,,,,,0,,,,,,,,,,,,,,,,,,,,,,,,,,,,,,,,,,,,,27,acutación,,,,,388.0806,389.6332,1,0,1.0169,,0,75,75,26,1,REAL,FAKE,,,,,,,,,,,,,,,,,
,,,,,,,,,,spanish,13 or older,"no, only English or Spanish",no,2025-07-24_10h30.43.068,empathy_intonation_perc_control,2024.2.4,Win32,59.88023952,66d06fd15b37d17345069c4c,68817205a84113384fffdfe3,6882437084ab3f46fe7db34c,,,,,,,,,,,,,1,,,,,,,,,,,,,,,,,,,,,,,,,,,,,,,,,,,,,15,regar,,,,,389.6338,391.1631,1,1,0.9839,,0,76,76,14,1,REAL,FAKE,,,,,,,,,,,,,,,,,
,,,,,,,,,,spanish,13 or older,"no, only English or Spanish",no,2025-07-24_10h30.43.068,empathy_intonation_perc_control,2024.2.4,Win32,59.88023952,66d06fd15b37d17345069c4c,68817205a84113384fffdfe3,6882437084ab3f46fe7db34c,,,,,,,,,,,,,0,,,,,,,,,,,,,,,,,,,,,,,,,,,,,,,,,,,,,18,arsa,,,,,391.1647,392.4126,0,1,0.7014,,0,77,77,17,1,REAL,FAKE,,,,,,,,,,,,,,,,,
,,,,,,,,,,spanish,13 or older,"no, only English or Spanish",no,2025-07-24_10h30.43.068,empathy_intonation_perc_control,2024.2.4,Win32,59.88023952,66d06fd15b37d17345069c4c,68817205a84113384fffdfe3,6882437084ab3f46fe7db34c,,,,,,,,,,,,,1,,,,,,,,,,,,,,,,,,,,,,,,,,,,,,,,,,,,,44,cuchara,,,,,392.4142,394.5283,1,1,1.577,,0,78,78,43,1,REAL,FAKE,,,,,,,,,,,,,,,,,
,,,,,,,,,,spanish,13 or older,"no, only English or Spanish",no,2025-07-24_10h30.43.068,empathy_intonation_perc_control,2024.2.4,Win32,59.88023952,66d06fd15b37d17345069c4c,68817205a84113384fffdfe3,6882437084ab3f46fe7db34c,,,,,,,,,,,,,1,,,,,,,,,,,,,,,,,,,,,,,,,,,,,,,,,,,,,20,ávido,,,,,394.5308,395.6783,1,1,0.6007,,0,79,79,19,1,REAL,FAKE,,,,,,,,,,,,,,,,,
,,,,,,,,,,spanish,13 or older,"no, only English or Spanish",no,2025-07-24_10h30.43.068,empathy_intonation_perc_control,2024.2.4,Win32,59.88023952,66d06fd15b37d17345069c4c,68817205a84113384fffdfe3,6882437084ab3f46fe7db34c,,,,,,,,,,,,,1,,,,,,,,,,,,,,,,,,,,,,,,,,,,,,,,,,,,,24,látigo,,,,,395.6805,396.7783,0,0,0.5584,,0,80,80,23,1,REAL,FAKE,,,,,,,,,,,,,,,,,
,,,,,,,,,,spanish,13 or older,"no, only English or Spanish",no,2025-07-24_10h30.43.068,empathy_intonation_perc_control,2024.2.4,Win32,59.88023952,66d06fd15b37d17345069c4c,68817205a84113384fffdfe3,6882437084ab3f46fe7db34c,,,,,,,,,,,,,1,,,,,,,,,,,,,,,,,,,,,,,,,,,,,,,,,,,,,59,besar,,,,,396.7801,397.9792,1,1,0.671,,0,81,81,58,1,REAL,FAKE,,,,,,,,,,,,,,,,,
,,,,,,,,,,spanish,13 or older,"no, only English or Spanish",no,2025-07-24_10h30.43.068,empathy_intonation_perc_control,2024.2.4,Win32,59.88023952,66d06fd15b37d17345069c4c,68817205a84113384fffdfe3,6882437084ab3f46fe7db34c,,,,,,,,,,,,,1,,,,,,,,,,,,,,,,,,,,,,,,,,,,,,,,,,,,,49,ganar,,,,,397.9806,399.5623,1,1,1.041,,0,82,82,48,1,REAL,FAKE,,,,,,,,,,,,,,,,,
,,,,,,,,,,spanish,13 or older,"no, only English or Spanish",no,2025-07-24_10h30.43.068,empathy_intonation_perc_control,2024.2.4,Win32,59.88023952,66d06fd15b37d17345069c4c,68817205a84113384fffdfe3,6882437084ab3f46fe7db34c,,,,,,,,,,,,,1,,,,,,,,,,,,,,,,,,,,,,,,,,,,,,,,,,,,,25,bisagra,,,,,399.564,401.6115,1,1,1.5101,,0,83,83,24,1,REAL,FAKE,,,,,,,,,,,,,,,,,
,,,,,,,,,,spanish,13 or older,"no, only English or Spanish",no,2025-07-24_10h30.43.068,empathy_intonation_perc_control,2024.2.4,Win32,59.88023952,66d06fd15b37d17345069c4c,68817205a84113384fffdfe3,6882437084ab3f46fe7db34c,,,,,,,,,,,,,1,,,,,,,,,,,,,,,,,,,,,,,,,,,,,,,,,,,,,88,acantilado,,,,,401.6137,403.0629,0,0,0.9201,,0,84,84,87,1,REAL,FAKE,,,,,,,,,,,,,,,,,
,,,,,,,,,,spanish,13 or older,"no, only English or Spanish",no,2025-07-24_10h30.43.068,empathy_intonation_perc_control,2024.2.4,Win32,59.88023952,66d06fd15b37d17345069c4c,68817205a84113384fffdfe3,6882437084ab3f46fe7db34c,,,,,,,,,,,,,1,,,,,,,,,,,,,,,,,,,,,,,,,,,,,,,,,,,,,56,musgo,,,,,403.0644,404.2952,0,0,0.6899,,0,85,85,55,1,REAL,FAKE,,,,,,,,,,,,,,,,,
,,,,,,,,,,spanish,13 or older,"no, only English or Spanish",no,2025-07-24_10h30.43.068,empathy_intonation_perc_control,2024.2.4,Win32,59.88023952,66d06fd15b37d17345069c4c,68817205a84113384fffdfe3,6882437084ab3f46fe7db34c,,,,,,,,,,,,,0,,,,,,,,,,,,,,,,,,,,,,,,,,,,,,,,,,,,,63,esposante,,,,,404.2973,405.7461,0,1,0.9017,,0,86,86,62,1,REAL,FAKE,,,,,,,,,,,,,,,,,
,,,,,,,,,,spanish,13 or older,"no, only English or Spanish",no,2025-07-24_10h30.43.068,empathy_intonation_perc_control,2024.2.4,Win32,59.88023952,66d06fd15b37d17345069c4c,68817205a84113384fffdfe3,6882437084ab3f46fe7db34c,,,,,,,,,,,,,1,,,,,,,,,,,,,,,,,,,,,,,,,,,,,,,,,,,,,31,pandilla,,,,,405.7472,406.9956,0,0,0.7068,,0,87,87,30,1,REAL,FAKE,,,,,,,,,,,,,,,,,
,,,,,,,,,,spanish,13 or older,"no, only English or Spanish",no,2025-07-24_10h30.43.068,empathy_intonation_perc_control,2024.2.4,Win32,59.88023952,66d06fd15b37d17345069c4c,68817205a84113384fffdfe3,6882437084ab3f46fe7db34c,,,,,,,,,,,,,1,,,,,,,,,,,,,,,,,,,,,,,,,,,,,,,,,,,,,75,yacer,,,,,406.9975,408.3623,0,0,0.8184,,0,88,88,74,1,REAL,FAKE,,,,,,,,,,,,,,,,,
,,,,,,,,,,spanish,13 or older,"no, only English or Spanish",no,2025-07-24_10h30.43.068,empathy_intonation_perc_control,2024.2.4,Win32,59.88023952,66d06fd15b37d17345069c4c,68817205a84113384fffdfe3,6882437084ab3f46fe7db34c,,,,,,,,,,,,,0,,,,,,,,,,,,,,,,,,,,,,,,,,,,,,,,,,,,,53,vegada,,,,,408.3638,410.2279,1,0,1.3268,,0,89,89,52,1,REAL,FAKE,,,,,,,,,,,,,,,,,
,,,,,,,,,,spanish,13 or older,"no, only English or Spanish",no,2025-07-24_10h30.43.068,empathy_intonation_perc_control,2024.2.4,Win32,59.88023952,66d06fd15b37d17345069c4c,68817205a84113384fffdfe3,6882437084ab3f46fe7db34c,,,,,,,,,,,,,0,,,,,,,,,,,,,,,,,,,,,,,,,,,,,,,,,,,,,8,cadeña,,,,,410.23,411.6498,1,0,0.8842,,0,90,90,7,1,REAL,FAKE,,,,,,,,,,,,,,,,,
,,,,,,,,,,spanish,13 or older,"no, only English or Spanish",no,2025-07-24_10h30.43.068,empathy_intonation_perc_control,2024.2.4,Win32,59.88023952,66d06fd15b37d17345069c4c,68817205a84113384fffdfe3,6882437084ab3f46fe7db34c,,,,,,,,,,,,,1,,,,,,,,,,,,,,,,,,,,,,,,,,,,,,,,,,,,,78,frondoso,,,,,411.6503,413.1497,0,0,0.9671,,0,91,91,77,1,REAL,FAKE,,,,,,,,,,,,,,,,,
,,,,,,,,,,spanish,13 or older,"no, only English or Spanish",no,2025-07-24_10h30.43.068,empathy_intonation_perc_control,2024.2.4,Win32,59.88023952,66d06fd15b37d17345069c4c,68817205a84113384fffdfe3,6882437084ab3f46fe7db34c,,,,,,,,,,,,,,,,,,,,,,,,,,,,,,,,,,,,,,,,,,,,,,,,,,,,,,,,,,,,,,,,,,,,,413.1499,417.13,,,,,,,,,,,,,,,
,,,,,,,,,,spanish,13 or older,"no, only English or Spanish",no,2025-07-24_10h30.43.068,empathy_intonation_perc_control,2024.2.4,Win32,59.88023952,66d06fd15b37d17345069c4c,68817205a84113384fffdfe3,6882437084ab3f46fe7db34c,,,,,,,,,,,,,,,,,,,,,,,,,,,1,,,,,,,,,,,,,,,,,,,,,,,,,,,,,,,,,,,,,,,,,,,,417.1382,423.2611,slightly disagree,0,0,0,0,1,I can easily tell if someone else wants to enter a conversation.,1,0,1,0,,
,,,,,,,,,,spanish,13 or older,"no, only English or Spanish",no,2025-07-24_10h30.43.068,empathy_intonation_perc_control,2024.2.4,Win32,59.88023952,66d06fd15b37d17345069c4c,68817205a84113384fffdfe3,6882437084ab3f46fe7db34c,,,,,,,,,,,,,,,,,,,,,,,,,,,2,,,,,,,,,,,,,,,,,,,,,,,,,,,,,,,,,,,,,,,,,,,,423.2641,426.1609,slightly agree,0,1,1,1,1,I prefer animals to humans.,0,1,0,0,,
,,,,,,,,,,spanish,13 or older,"no, only English or Spanish",no,2025-07-24_10h30.43.068,empathy_intonation_perc_control,2024.2.4,Win32,59.88023952,66d06fd15b37d17345069c4c,68817205a84113384fffdfe3,6882437084ab3f46fe7db34c,,,,,,,,,,,,,,,,,,,,,,,,,,,3,,,,,,,,,,,,,,,,,,,,,,,,,,,,,,,,,,,,,,,,,,,,426.1632,428.944,slightly disagree,0,2,2,2,1,I try to keep up with the current trends and fashions.,0,1,0,0,,
,,,,,,,,,,spanish,13 or older,"no, only English or Spanish",no,2025-07-24_10h30.43.068,empathy_intonation_perc_control,2024.2.4,Win32,59.88023952,66d06fd15b37d17345069c4c,68817205a84113384fffdfe3,6882437084ab3f46fe7db34c,,,,,,,,,,,,,,,,,,,,,,,,,,,4,,,,,,,,,,,,,,,,,,,,,,,,,,,,,,,,,,,,,,,,,,,,428.9471,432.994,slightly disagree,0,3,3,3,1,"I find it difficult to explain to others things that I understand easily,   when they don't understand it first time.",1,0,0,1,,
,,,,,,,,,,spanish,13 or older,"no, only English or Spanish",no,2025-07-24_10h30.43.068,empathy_intonation_perc_control,2024.2.4,Win32,59.88023952,66d06fd15b37d17345069c4c,68817205a84113384fffdfe3,6882437084ab3f46fe7db34c,,,,,,,,,,,,,,,,,,,,,,,,,,,5,,,,,,,,,,,,,,,,,,,,,,,,,,,,,,,,,,,,,,,,,,,,432.9948,434.7938,slightly disagree,0,4,4,4,1,I dream most nights.,0,1,0,0,,
,,,,,,,,,,spanish,13 or older,"no, only English or Spanish",no,2025-07-24_10h30.43.068,empathy_intonation_perc_control,2024.2.4,Win32,59.88023952,66d06fd15b37d17345069c4c,68817205a84113384fffdfe3,6882437084ab3f46fe7db34c,,,,,,,,,,,,,,,,,,,,,,,,,,,6,,,,,,,,,,,,,,,,,,,,,,,,,,,,,,,,,,,,,,,,,,,,434.7965,437.1604,slightly agree,0,5,5,5,1,I really enjoy caring for other people.,1,0,1,0,,
,,,,,,,,,,spanish,13 or older,"no, only English or Spanish",no,2025-07-24_10h30.43.068,empathy_intonation_perc_control,2024.2.4,Win32,59.88023952,66d06fd15b37d17345069c4c,68817205a84113384fffdfe3,6882437084ab3f46fe7db34c,,,,,,,,,,,,,,,,,,,,,,,,,,,7,,,,,,,,,,,,,,,,,,,,,,,,,,,,,,,,,,,,,,,,,,,,437.1632,439.8936,slightly disagree,0,6,6,6,1,I try to solve my own problems rather than discussing them with others.,0,1,0,0,,
,,,,,,,,,,spanish,13 or older,"no, only English or Spanish",no,2025-07-24_10h30.43.068,empathy_intonation_perc_control,2024.2.4,Win32,59.88023952,66d06fd15b37d17345069c4c,68817205a84113384fffdfe3,6882437084ab3f46fe7db34c,,,,,,,,,,,,,,,,,,,,,,,,,,,8,,,,,,,,,,,,,,,,,,,,,,,,,,,,,,,,,,,,,,,,,,,,439.8941,442.377,slightly agree,0,7,7,7,1,I find it hard to know what to do in a social situation.,1,0,0,1,,
,,,,,,,,,,spanish,13 or older,"no, only English or Spanish",no,2025-07-24_10h30.43.068,empathy_intonation_perc_control,2024.2.4,Win32,59.88023952,66d06fd15b37d17345069c4c,68817205a84113384fffdfe3,6882437084ab3f46fe7db34c,,,,,,,,,,,,,,,,,,,,,,,,,,,9,,,,,,,,,,,,,,,,,,,,,,,,,,,,,,,,,,,,,,,,,,,,442.3782,445.7101,strongly disagree,0,8,8,8,1,I am at my best first thing in the morning.,0,1,0,0,,
,,,,,,,,,,spanish,13 or older,"no, only English or Spanish",no,2025-07-24_10h30.43.068,empathy_intonation_perc_control,2024.2.4,Win32,59.88023952,66d06fd15b37d17345069c4c,68817205a84113384fffdfe3,6882437084ab3f46fe7db34c,,,,,,,,,,,,,,,,,,,,,,,,,,,10,,,,,,,,,,,,,,,,,,,,,,,,,,,,,,,,,,,,,,,,,,,,445.7122,449.3433,slightly disagree,0,9,9,9,1,People often tell me that I went too far in driving my point home in a discussion.,1,0,0,1,,
,,,,,,,,,,spanish,13 or older,"no, only English or Spanish",no,2025-07-24_10h30.43.068,empathy_intonation_perc_control,2024.2.4,Win32,59.88023952,66d06fd15b37d17345069c4c,68817205a84113384fffdfe3,6882437084ab3f46fe7db34c,,,,,,,,,,,,,,,,,,,,,,,,,,,11,,,,,,,,,,,,,,,,,,,,,,,,,,,,,,,,,,,,,,,,,,,,449.3441,452.8431,strongly agree,0,10,10,10,1,It doesn't bother me too much if I am late meeting a friend.,1,0,0,1,,
,,,,,,,,,,spanish,13 or older,"no, only English or Spanish",no,2025-07-24_10h30.43.068,empathy_intonation_perc_control,2024.2.4,Win32,59.88023952,66d06fd15b37d17345069c4c,68817205a84113384fffdfe3,6882437084ab3f46fe7db34c,,,,,,,,,,,,,,,,,,,,,,,,,,,12,,,,,,,,,,,,,,,,,,,,,,,,,,,,,,,,,,,,,,,,,,,,452.8456,455.8435,slightly agree,0,11,11,11,1,"Friendships and relationships are just too difficult, so I tend not to 
  bother with them.",1,0,0,1,,
,,,,,,,,,,spanish,13 or older,"no, only English or Spanish",no,2025-07-24_10h30.43.068,empathy_intonation_perc_control,2024.2.4,Win32,59.88023952,66d06fd15b37d17345069c4c,68817205a84113384fffdfe3,6882437084ab3f46fe7db34c,,,,,,,,,,,,,,,,,,,,,,,,,,,13,,,,,,,,,,,,,,,,,,,,,,,,,,,,,,,,,,,,,,,,,,,,455.8458,458.4764,slightly disagree,0,12,12,12,1,"I would never break a law, no matter how minor.",0,1,0,0,,
,,,,,,,,,,spanish,13 or older,"no, only English or Spanish",no,2025-07-24_10h30.43.068,empathy_intonation_perc_control,2024.2.4,Win32,59.88023952,66d06fd15b37d17345069c4c,68817205a84113384fffdfe3,6882437084ab3f46fe7db34c,,,,,,,,,,,,,,,,,,,,,,,,,,,14,,,,,,,,,,,,,,,,,,,,,,,,,,,,,,,,,,,,,,,,,,,,458.4783,462.3929,slightly disagree,0,13,13,13,1,I often find it difficult to judge if something is rude or polite.,1,0,0,1,,
,,,,,,,,,,spanish,13 or older,"no, only English or Spanish",no,2025-07-24_10h30.43.068,empathy_intonation_perc_control,2024.2.4,Win32,59.88023952,66d06fd15b37d17345069c4c,68817205a84113384fffdfe3,6882437084ab3f46fe7db34c,,,,,,,,,,,,,,,,,,,,,,,,,,,15,,,,,,,,,,,,,,,,,,,,,,,,,,,,,,,,,,,,,,,,,,,,462.3949,465.5261,slightly agree,0,14,14,14,1,"In a conversation, I tend to focus on my own thoughts rather than on what 
  my listener might be thinking.",1,0,0,1,,
,,,,,,,,,,spanish,13 or older,"no, only English or Spanish",no,2025-07-24_10h30.43.068,empathy_intonation_perc_control,2024.2.4,Win32,59.88023952,66d06fd15b37d17345069c4c,68817205a84113384fffdfe3,6882437084ab3f46fe7db34c,,,,,,,,,,,,,,,,,,,,,,,,,,,16,,,,,,,,,,,,,,,,,,,,,,,,,,,,,,,,,,,,,,,,,,,,465.5272,468.1427,slightly disagree,0,15,15,15,1,I prefer practical jokes to verbal humor.,0,1,0,0,,
,,,,,,,,,,spanish,13 or older,"no, only English or Spanish",no,2025-07-24_10h30.43.068,empathy_intonation_perc_control,2024.2.4,Win32,59.88023952,66d06fd15b37d17345069c4c,68817205a84113384fffdfe3,6882437084ab3f46fe7db34c,,,,,,,,,,,,,,,,,,,,,,,,,,,17,,,,,,,,,,,,,,,,,,,,,,,,,,,,,,,,,,,,,,,,,,,,468.1447,469.7927,slightly disagree,0,16,16,16,1,I live life for today rather than the future.,0,1,0,0,,
,,,,,,,,,,spanish,13 or older,"no, only English or Spanish",no,2025-07-24_10h30.43.068,empathy_intonation_perc_control,2024.2.4,Win32,59.88023952,66d06fd15b37d17345069c4c,68817205a84113384fffdfe3,6882437084ab3f46fe7db34c,,,,,,,,,,,,,,,,,,,,,,,,,,,18,,,,,,,,,,,,,,,,,,,,,,,,,,,,,,,,,,,,,,,,,,,,469.7952,471.9594,strongly disagree,0,17,17,17,1,"When I was a child, I enjoyed cutting up worms to see what would happen.",1,0,0,1,,
,,,,,,,,,,spanish,13 or older,"no, only English or Spanish",no,2025-07-24_10h30.43.068,empathy_intonation_perc_control,2024.2.4,Win32,59.88023952,66d06fd15b37d17345069c4c,68817205a84113384fffdfe3,6882437084ab3f46fe7db34c,,,,,,,,,,,,,,,,,,,,,,,,,,,19,,,,,,,,,,,,,,,,,,,,,,,,,,,,,,,,,,,,,,,,,,,,471.9616,473.9259,strongly disagree,0,18,18,18,1,I can pick up quickly if someone says one thing but means another.,1,0,1,0,,
,,,,,,,,,,spanish,13 or older,"no, only English or Spanish",no,2025-07-24_10h30.43.068,empathy_intonation_perc_control,2024.2.4,Win32,59.88023952,66d06fd15b37d17345069c4c,68817205a84113384fffdfe3,6882437084ab3f46fe7db34c,,,,,,,,,,,,,,,,,,,,,,,,,,,20,,,,,,,,,,,,,,,,,,,,,,,,,,,,,,,,,,,,,,,,,,,,473.927,476.3592,strongly agree,0,19,19,19,1,I tend to have very strong opinions about morality.,0,1,0,0,,
,,,,,,,,,,spanish,13 or older,"no, only English or Spanish",no,2025-07-24_10h30.43.068,empathy_intonation_perc_control,2024.2.4,Win32,59.88023952,66d06fd15b37d17345069c4c,68817205a84113384fffdfe3,6882437084ab3f46fe7db34c,,,,,,,,,,,,,,,,,,,,,,,,,,,21,,,,,,,,,,,,,,,,,,,,,,,,,,,,,,,,,,,,,,,,,,,,476.3618,479.1762,slightly disagree,0,20,20,20,1,It is hard for me to see why some things upset people so much.,1,0,0,1,,
,,,,,,,,,,spanish,13 or older,"no, only English or Spanish",no,2025-07-24_10h30.43.068,empathy_intonation_perc_control,2024.2.4,Win32,59.88023952,66d06fd15b37d17345069c4c,68817205a84113384fffdfe3,6882437084ab3f46fe7db34c,,,,,,,,,,,,,,,,,,,,,,,,,,,22,,,,,,,,,,,,,,,,,,,,,,,,,,,,,,,,,,,,,,,,,,,,479.1787,481.6596,slightly disagree,0,21,21,21,1,I find it easy to put myself in somebody else's shoes.,1,0,1,0,,
,,,,,,,,,,spanish,13 or older,"no, only English or Spanish",no,2025-07-24_10h30.43.068,empathy_intonation_perc_control,2024.2.4,Win32,59.88023952,66d06fd15b37d17345069c4c,68817205a84113384fffdfe3,6882437084ab3f46fe7db34c,,,,,,,,,,,,,,,,,,,,,,,,,,,23,,,,,,,,,,,,,,,,,,,,,,,,,,,,,,,,,,,,,,,,,,,,481.6611,484.1757,slightly disagree,0,22,22,22,1,I think that good manners are the most important thing a parent can teach their child.,0,1,0,0,,
,,,,,,,,,,spanish,13 or older,"no, only English or Spanish",no,2025-07-24_10h30.43.068,empathy_intonation_perc_control,2024.2.4,Win32,59.88023952,66d06fd15b37d17345069c4c,68817205a84113384fffdfe3,6882437084ab3f46fe7db34c,,,,,,,,,,,,,,,,,,,,,,,,,,,24,,,,,,,,,,,,,,,,,,,,,,,,,,,,,,,,,,,,,,,,,,,,484.1779,486.1425,slightly disagree,0,23,23,23,1,I like to do things on the spur of the moment.,0,1,0,0,,
,,,,,,,,,,spanish,13 or older,"no, only English or Spanish",no,2025-07-24_10h30.43.068,empathy_intonation_perc_control,2024.2.4,Win32,59.88023952,66d06fd15b37d17345069c4c,68817205a84113384fffdfe3,6882437084ab3f46fe7db34c,,,,,,,,,,,,,,,,,,,,,,,,,,,25,,,,,,,,,,,,,,,,,,,,,,,,,,,,,,,,,,,,,,,,,,,,486.1437,488.0257,slightly disagree,0,24,24,24,1,I am good at predicting how someone will feel.,1,0,1,0,,
,,,,,,,,,,spanish,13 or older,"no, only English or Spanish",no,2025-07-24_10h30.43.068,empathy_intonation_perc_control,2024.2.4,Win32,59.88023952,66d06fd15b37d17345069c4c,68817205a84113384fffdfe3,6882437084ab3f46fe7db34c,,,,,,,,,,,,,,,,,,,,,,,,,,,26,,,,,,,,,,,,,,,,,,,,,,,,,,,,,,,,,,,,,,,,,,,,488.0273,489.9255,slightly disagree,0,25,25,25,1,I am quick to spot when someone in a group is feeling awkward or uncomfortable.,1,0,1,0,,
,,,,,,,,,,spanish,13 or older,"no, only English or Spanish",no,2025-07-24_10h30.43.068,empathy_intonation_perc_control,2024.2.4,Win32,59.88023952,66d06fd15b37d17345069c4c,68817205a84113384fffdfe3,6882437084ab3f46fe7db34c,,,,,,,,,,,,,,,,,,,,,,,,,,,27,,,,,,,,,,,,,,,,,,,,,,,,,,,,,,,,,,,,,,,,,,,,489.9276,492.7588,slightly disagree,0,26,26,26,1,"If I say something that someone else is offended by, I think that that's their problem, not mine.",1,0,0,1,,
,,,,,,,,,,spanish,13 or older,"no, only English or Spanish",no,2025-07-24_10h30.43.068,empathy_intonation_perc_control,2024.2.4,Win32,59.88023952,66d06fd15b37d17345069c4c,68817205a84113384fffdfe3,6882437084ab3f46fe7db34c,,,,,,,,,,,,,,,,,,,,,,,,,,,28,,,,,,,,,,,,,,,,,,,,,,,,,,,,,,,,,,,,,,,,,,,,492.7606,495.4586,slightly disagree,0,27,27,27,1,"If anyone asked me if I liked their haircut, I would reply truthfully, even if I didn't like it.",1,0,0,1,,
,,,,,,,,,,spanish,13 or older,"no, only English or Spanish",no,2025-07-24_10h30.43.068,empathy_intonation_perc_control,2024.2.4,Win32,59.88023952,66d06fd15b37d17345069c4c,68817205a84113384fffdfe3,6882437084ab3f46fe7db34c,,,,,,,,,,,,,,,,,,,,,,,,,,,29,,,,,,,,,,,,,,,,,,,,,,,,,,,,,,,,,,,,,,,,,,,,495.4608,497.3086,slightly disagree,0,28,28,28,1,I can't always see why someone should have felt offended by a remark.,1,0,0,1,,
,,,,,,,,,,spanish,13 or older,"no, only English or Spanish",no,2025-07-24_10h30.43.068,empathy_intonation_perc_control,2024.2.4,Win32,59.88023952,66d06fd15b37d17345069c4c,68817205a84113384fffdfe3,6882437084ab3f46fe7db34c,,,,,,,,,,,,,,,,,,,,,,,,,,,30,,,,,,,,,,,,,,,,,,,,,,,,,,,,,,,,,,,,,,,,,,,,497.3113,499.1585,slightly disagree,0,29,29,29,1,People often tell me that I am very unpredictable.,0,1,0,0,,
,,,,,,,,,,spanish,13 or older,"no, only English or Spanish",no,2025-07-24_10h30.43.068,empathy_intonation_perc_control,2024.2.4,Win32,59.88023952,66d06fd15b37d17345069c4c,68817205a84113384fffdfe3,6882437084ab3f46fe7db34c,,,,,,,,,,,,,,,,,,,,,,,,,,,31,,,,,,,,,,,,,,,,,,,,,,,,,,,,,,,,,,,,,,,,,,,,499.1601,500.6586,slightly disagree,0,30,30,30,1,I enjoy being the center of attention at any social gathering.,0,1,0,0,,
,,,,,,,,,,spanish,13 or older,"no, only English or Spanish",no,2025-07-24_10h30.43.068,empathy_intonation_perc_control,2024.2.4,Win32,59.88023952,66d06fd15b37d17345069c4c,68817205a84113384fffdfe3,6882437084ab3f46fe7db34c,,,,,,,,,,,,,,,,,,,,,,,,,,,32,,,,,,,,,,,,,,,,,,,,,,,,,,,,,,,,,,,,,,,,,,,,500.6611,502.4418,slightly disagree,0,31,31,31,1,Seeing people cry doesn't really upset me.,1,0,0,1,,
,,,,,,,,,,spanish,13 or older,"no, only English or Spanish",no,2025-07-24_10h30.43.068,empathy_intonation_perc_control,2024.2.4,Win32,59.88023952,66d06fd15b37d17345069c4c,68817205a84113384fffdfe3,6882437084ab3f46fe7db34c,,,,,,,,,,,,,,,,,,,,,,,,,,,33,,,,,,,,,,,,,,,,,,,,,,,,,,,,,,,,,,,,,,,,,,,,502.4452,504.9083,slightly agree,0,32,32,32,1,I enjoy having discussions about politics.,0,1,0,0,,
,,,,,,,,,,spanish,13 or older,"no, only English or Spanish",no,2025-07-24_10h30.43.068,empathy_intonation_perc_control,2024.2.4,Win32,59.88023952,66d06fd15b37d17345069c4c,68817205a84113384fffdfe3,6882437084ab3f46fe7db34c,,,,,,,,,,,,,,,,,,,,,,,,,,,34,,,,,,,,,,,,,,,,,,,,,,,,,,,,,,,,,,,,,,,,,,,,504.9104,506.4918,slightly agree,0,33,33,33,1,"I am very blunt, which some people take to be rudeness, even though this is unintentional.",1,0,0,1,,
,,,,,,,,,,spanish,13 or older,"no, only English or Spanish",no,2025-07-24_10h30.43.068,empathy_intonation_perc_control,2024.2.4,Win32,59.88023952,66d06fd15b37d17345069c4c,68817205a84113384fffdfe3,6882437084ab3f46fe7db34c,,,,,,,,,,,,,,,,,,,,,,,,,,,35,,,,,,,,,,,,,,,,,,,,,,,,,,,,,,,,,,,,,,,,,,,,506.4934,509.0916,slightly disagree,0,34,34,34,1,I don't tend to find social situations confusing.,1,0,1,0,,
,,,,,,,,,,spanish,13 or older,"no, only English or Spanish",no,2025-07-24_10h30.43.068,empathy_intonation_perc_control,2024.2.4,Win32,59.88023952,66d06fd15b37d17345069c4c,68817205a84113384fffdfe3,6882437084ab3f46fe7db34c,,,,,,,,,,,,,,,,,,,,,,,,,,,36,,,,,,,,,,,,,,,,,,,,,,,,,,,,,,,,,,,,,,,,,,,,509.0935,510.575,slightly disagree,0,35,35,35,1,Other people tell me I am good at understanding how they are feeling and what they are thinking.,1,0,1,0,,
,,,,,,,,,,spanish,13 or older,"no, only English or Spanish",no,2025-07-24_10h30.43.068,empathy_intonation_perc_control,2024.2.4,Win32,59.88023952,66d06fd15b37d17345069c4c,68817205a84113384fffdfe3,6882437084ab3f46fe7db34c,,,,,,,,,,,,,,,,,,,,,,,,,,,37,,,,,,,,,,,,,,,,,,,,,,,,,,,,,,,,,,,,,,,,,,,,510.578,512.7915,slightly disagree,0,36,36,36,1,"When I talk to people, I tend to talk about their experiences rather than my own.",1,0,1,0,,
,,,,,,,,,,spanish,13 or older,"no, only English or Spanish",no,2025-07-24_10h30.43.068,empathy_intonation_perc_control,2024.2.4,Win32,59.88023952,66d06fd15b37d17345069c4c,68817205a84113384fffdfe3,6882437084ab3f46fe7db34c,,,,,,,,,,,,,,,,,,,,,,,,,,,38,,,,,,,,,,,,,,,,,,,,,,,,,,,,,,,,,,,,,,,,,,,,512.7925,515.1913,slightly agree,0,37,37,37,1,It upsets me to see an animal in pain.,1,0,1,0,,
