instructions_2afc.started,instructions_2afc.stopped,instructions_2afc_loop.thisRepN,instructions_2afc_loop.thisTrialN,instructions_2afc_loop.thisN,instructions_2afc_loop.thisIndex,instructions_2afc_loop.ran,instructions_text,continue_text,participant_id,"What variety of Spanish are you most familiar with? (e.g., Peruvian, Spanish, Mexican)",At what age did you begin learning Spanish?,Are you proficient in any languages other than English/Spanish?,"Are you familiar with Caribbean (e.g., Caribbean, Puerto Rican) or Galician Spanish?",date,expName,psychopyVersion,OS,frameRate,id,study_id,session,practice_2afc.started,practice_2afc.stopped,key_resp_2afc_practice.keys,key_resp_2afc_practice.corr,key_resp_2afc_practice.rt,key_resp_2afc_practice.duration,trials_2afc_practice_loop.thisRepN,trials_2afc_practice_loop.thisTrialN,trials_2afc_practice_loop.thisN,trials_2afc_practice_loop.thisIndex,trials_2afc_practice_loop.ran,path,correct_response,check_2afc.started,check_2afc.stopped,trial_2afc.started,trial_2afc.stopped,key_resp_2afc_trial.keys,key_resp_2afc_trial.corr,key_resp_2afc_trial.rt,key_resp_2afc_trial.duration,trials_2afc_loop.thisRepN,trials_2afc_loop.thisTrialN,trials_2afc_loop.thisN,trials_2afc_loop.thisIndex,trials_2afc_loop.ran,item_num,target,variety,instructions_lextale.started,instructions_lextale.stopped,instructions_lextale_loop.thisRepN,instructions_lextale_loop.thisTrialN,instructions_lextale_loop.thisN,instructions_lextale_loop.thisIndex,instructions_lextale_loop.ran,practice_lextale.started,practice_lextale.stopped,key_resp_lextale_practice.keys,key_resp_lextale_practice.corr,key_resp_lextale_practice.rt,key_resp_lextale_practice.duration,practice_feedback_lextale.started,practice_feedback_lextale.stopped,trials_lextale_practice_loop.thisRepN,trials_lextale_practice_loop.thisTrialN,trials_lextale_practice_loop.thisN,trials_lextale_practice_loop.thisIndex,trials_lextale_practice_loop.ran,stim,word,prac_button_real,prac_button_false,check_lextale.started,check_lextale.stopped,trial_lextale.started,trial_lextale.stopped,key_resp_lextale_trial.keys,key_resp_lextale_trial.corr,key_resp_lextale_trial.rt,key_resp_lextale_trial.duration,trials_lextale_loop.thisRepN,trials_lextale_loop.thisTrialN,trials_lextale_loop.thisN,trials_lextale_loop.thisIndex,trials_lextale_loop.ran,button_real,button_false,instructions_eq.started,instructions_eq.stopped,trial_eq.started,trial_eq.stopped,slider_eq_trial.response,trials_eq_loop.thisRepN,trials_eq_loop.thisTrialN,trials_eq_loop.thisN,trials_eq_loop.thisIndex,trials_eq_loop.ran,item,is_test_item,is_distractor,is_agree_score,is_disagree_score,end_exp.started,end_exp.stopped
0.0168,3.7248,0,0,0,0,1,"In the following task you are going to hear a series of utterances. 

  You will decide if the utterances sound like questions or not using your keyboard.", (press the spacebar to continue),,,click here to respond,click here to respond,click here to respond,2025-07-24_08h58.07.605,empathy_intonation_perc_control,2024.2.4,Win32,60.24096386,5e8bbb3680cbf20986c677e1,68817205a84113384fffdfe3,68822cc434949da7d3ed0421,,,,,,,,,,,,,,,,,,,,,,,,,,,,,,,,,,,,,,,,,,,,,,,,,,,,,,,,,,,,,,,,,,,,,,,,,,,,,,,,,,,,,
3.7293,55.1235,0,1,1,1,1,"If you believe the utterance is a question, type '1' (for 'yes') and if you do not 
  believe it is a question type '0' (for 'no').

  Let's practice a bit...", (press the spacebar to continue),,,click here to respond,click here to respond,click here to respond,2025-07-24_08h58.07.605,empathy_intonation_perc_control,2024.2.4,Win32,60.24096386,5e8bbb3680cbf20986c677e1,68817205a84113384fffdfe3,68822cc434949da7d3ed0421,,,,,,,,,,,,,,,,,,,,,,,,,,,,,,,,,,,,,,,,,,,,,,,,,,,,,,,,,,,,,,,,,,,,,,,,,,,,,,,,,,,,,
,,,,,,,,,,,click here to respond,click here to respond,click here to respond,2025-07-24_08h58.07.605,empathy_intonation_perc_control,2024.2.4,Win32,60.24096386,5e8bbb3680cbf20986c677e1,68817205a84113384fffdfe3,68822cc434949da7d3ed0421,55.1451,58.7896,1,1,3.1225,,0,0,0,3,1,./stim/wavs/mexican_question_filler_Felipe-no-tiene-contrasena.wav,1,,,,,,,,,,,,,,,,,,,,,,,,,,,,,,,,,,,,,,,,,,,,,,,,,,,,,,,,,,,,,,,,,,,,,,,,
,,,,,,,,,,,click here to respond,click here to respond,click here to respond,2025-07-24_08h58.07.605,empathy_intonation_perc_control,2024.2.4,Win32,60.24096386,5e8bbb3680cbf20986c677e1,68817205a84113384fffdfe3,68822cc434949da7d3ed0421,58.7904,60.8405,1,1,1.5254,,0,1,1,1,1,./stim/wavs/argentine_question_filler_Mi-vecino-habla-mucho.wav,1,,,,,,,,,,,,,,,,,,,,,,,,,,,,,,,,,,,,,,,,,,,,,,,,,,,,,,,,,,,,,,,,,,,,,,,,
,,,,,,,,,,,click here to respond,click here to respond,click here to respond,2025-07-24_08h58.07.605,empathy_intonation_perc_control,2024.2.4,Win32,60.24096386,5e8bbb3680cbf20986c677e1,68817205a84113384fffdfe3,68822cc434949da7d3ed0421,60.842,62.9061,0,1,1.5415,,0,2,2,4,1,./stim/wavs/cuban_statement_filler_Cocinabas-por-la-noche.wav,0,,,,,,,,,,,,,,,,,,,,,,,,,,,,,,,,,,,,,,,,,,,,,,,,,,,,,,,,,,,,,,,,,,,,,,,,
,,,,,,,,,,,click here to respond,click here to respond,click here to respond,2025-07-24_08h58.07.605,empathy_intonation_perc_control,2024.2.4,Win32,60.24096386,5e8bbb3680cbf20986c677e1,68817205a84113384fffdfe3,68822cc434949da7d3ed0421,62.9076,65.223,0,1,1.7871,,0,3,3,5,1,./stim/wavs/andalusian_statement_filler_Alberto-nunca-se-afeita.wav,0,,,,,,,,,,,,,,,,,,,,,,,,,,,,,,,,,,,,,,,,,,,,,,,,,,,,,,,,,,,,,,,,,,,,,,,,
,,,,,,,,,,,click here to respond,click here to respond,click here to respond,2025-07-24_08h58.07.605,empathy_intonation_perc_control,2024.2.4,Win32,60.24096386,5e8bbb3680cbf20986c677e1,68817205a84113384fffdfe3,68822cc434949da7d3ed0421,65.2244,68.2222,0,1,2.4746,,0,4,4,6,1,./stim/wavs/peruvian_statement_filler_El-nino-habla-con-su-madre.wav,0,,,,,,,,,,,,,,,,,,,,,,,,,,,,,,,,,,,,,,,,,,,,,,,,,,,,,,,,,,,,,,,,,,,,,,,,
,,,,,,,,,,,click here to respond,click here to respond,click here to respond,2025-07-24_08h58.07.605,empathy_intonation_perc_control,2024.2.4,Win32,60.24096386,5e8bbb3680cbf20986c677e1,68817205a84113384fffdfe3,68822cc434949da7d3ed0421,68.2231,70.8061,0,0,2.0708,,0,5,5,2,1,./stim/wavs/chilean_question_filler_Mi-padre-cantaba-bien.wav,1,,,,,,,,,,,,,,,,,,,,,,,,,,,,,,,,,,,,,,,,,,,,,,,,,,,,,,,,,,,,,,,,,,,,,,,,
,,,,,,,,,,,click here to respond,click here to respond,click here to respond,2025-07-24_08h58.07.605,empathy_intonation_perc_control,2024.2.4,Win32,60.24096386,5e8bbb3680cbf20986c677e1,68817205a84113384fffdfe3,68822cc434949da7d3ed0421,70.807,73.3061,1,1,1.9717,,0,6,6,0,1,./stim/wavs/castilian_question_filler_Mi-esposo-conoce-al-chico.wav,1,,,,,,,,,,,,,,,,,,,,,,,,,,,,,,,,,,,,,,,,,,,,,,,,,,,,,,,,,,,,,,,,,,,,,,,,
,,,,,,,,,,,click here to respond,click here to respond,click here to respond,2025-07-24_08h58.07.605,empathy_intonation_perc_control,2024.2.4,Win32,60.24096386,5e8bbb3680cbf20986c677e1,68817205a84113384fffdfe3,68822cc434949da7d3ed0421,73.3073,75.7894,0,1,1.9537,,0,7,7,7,1,./stim/wavs/puertorican_statement_filler_La-nina-pinta-con-su-amiga.wav,0,,,,,,,,,,,,,,,,,,,,,,,,,,,,,,,,,,,,,,,,,,,,,,,,,,,,,,,,,,,,,,,,,,,,,,,,
,,,,,,,,,,,click here to respond,click here to respond,click here to respond,2025-07-24_08h58.07.605,empathy_intonation_perc_control,2024.2.4,Win32,60.24096386,5e8bbb3680cbf20986c677e1,68817205a84113384fffdfe3,68822cc434949da7d3ed0421,,,,,,,,,,,,,,75.7899,78.8559,,,,,,,,,,,,,,,,,,,,,,,,,,,,,,,,,,,,,,,,,,,,,,,,,,,,,,,,,,,,,,,,,,,,,,
,,,,,,,,,,,click here to respond,click here to respond,click here to respond,2025-07-24_08h58.07.605,empathy_intonation_perc_control,2024.2.4,Win32,60.24096386,5e8bbb3680cbf20986c677e1,68817205a84113384fffdfe3,68822cc434949da7d3ed0421,,,,,,,,,,,,./stim/wavs/cuban_mismatch_declarative-broad-focus_La-nina-lava-el-plato.wav,0,,,78.8711,80.923,0,1,1.5298,,0,0,0,75,1,76,0,cuban,,,,,,,,,,,,,,,,,,,,,,,,,,,,,,,,,,,,,,,,,,,,,,,,,,,,,,,,
,,,,,,,,,,,click here to respond,click here to respond,click here to respond,2025-07-24_08h58.07.605,empathy_intonation_perc_control,2024.2.4,Win32,60.24096386,5e8bbb3680cbf20986c677e1,68817205a84113384fffdfe3,68822cc434949da7d3ed0421,,,,,,,,,,,,./stim/wavs/mexican_match_interrogative-total-yn_David-leia-el-libro.wav,1,,,80.9248,82.9334,1,1,1.4861,,0,1,1,14,1,15,0,mexican,,,,,,,,,,,,,,,,,,,,,,,,,,,,,,,,,,,,,,,,,,,,,,,,,,,,,,,,
,,,,,,,,,,,click here to respond,click here to respond,click here to respond,2025-07-24_08h58.07.605,empathy_intonation_perc_control,2024.2.4,Win32,60.24096386,5e8bbb3680cbf20986c677e1,68817205a84113384fffdfe3,68822cc434949da7d3ed0421,,,,,,,,,,,,./stim/wavs/castilian_mismatch_declarative-broad-focus_La-nina-lava-el-plato.wav,0,,,82.9343,85.3566,0,1,1.9002,,0,2,2,70,1,71,0,castilian,,,,,,,,,,,,,,,,,,,,,,,,,,,,,,,,,,,,,,,,,,,,,,,,,,,,,,,,
,,,,,,,,,,,click here to respond,click here to respond,click here to respond,2025-07-24_08h58.07.605,empathy_intonation_perc_control,2024.2.4,Win32,60.24096386,5e8bbb3680cbf20986c677e1,68817205a84113384fffdfe3,68822cc434949da7d3ed0421,,,,,,,,,,,,./stim/wavs/puertorican_mismatch_declarative-broad-focus_La-nina-lava-el-plato.wav,0,,,85.3581,87.2393,0,1,1.351,,0,3,3,87,1,88,0,puertorican,,,,,,,,,,,,,,,,,,,,,,,,,,,,,,,,,,,,,,,,,,,,,,,,,,,,,,,,
,,,,,,,,,,,click here to respond,click here to respond,click here to respond,2025-07-24_08h58.07.605,empathy_intonation_perc_control,2024.2.4,Win32,60.24096386,5e8bbb3680cbf20986c677e1,68817205a84113384fffdfe3,68822cc434949da7d3ed0421,,,,,,,,,,,,./stim/wavs/puertorican_match_interrogative-total-yn_David-leia-el-libro.wav,1,,,87.2407,89.1724,0,0,1.4054,,0,4,4,20,1,21,1,puertorican,,,,,,,,,,,,,,,,,,,,,,,,,,,,,,,,,,,,,,,,,,,,,,,,,,,,,,,,
,,,,,,,,,,,click here to respond,click here to respond,click here to respond,2025-07-24_08h58.07.605,empathy_intonation_perc_control,2024.2.4,Win32,60.24096386,5e8bbb3680cbf20986c677e1,68817205a84113384fffdfe3,68822cc434949da7d3ed0421,,,,,,,,,,,,./stim/wavs/mexican_match_interrogative-total-yn_Mariano-habla-del-tiempo.wav,1,,,89.1732,91.589,1,1,1.8916,,0,5,5,16,1,17,0,mexican,,,,,,,,,,,,,,,,,,,,,,,,,,,,,,,,,,,,,,,,,,,,,,,,,,,,,,,,
,,,,,,,,,,,click here to respond,click here to respond,click here to respond,2025-07-24_08h58.07.605,empathy_intonation_perc_control,2024.2.4,Win32,60.24096386,5e8bbb3680cbf20986c677e1,68817205a84113384fffdfe3,68822cc434949da7d3ed0421,,,,,,,,,,,,./stim/wavs/cuban_match_declarative-broad-focus_Daniel-iba-a-Bolivia.wav,0,,,91.5902,94.2057,0,1,2.0896,,0,6,6,51,1,52,0,cuban,,,,,,,,,,,,,,,,,,,,,,,,,,,,,,,,,,,,,,,,,,,,,,,,,,,,,,,,
,,,,,,,,,,,click here to respond,click here to respond,click here to respond,2025-07-24_08h58.07.605,empathy_intonation_perc_control,2024.2.4,Win32,60.24096386,5e8bbb3680cbf20986c677e1,68817205a84113384fffdfe3,68822cc434949da7d3ed0421,,,,,,,,,,,,./stim/wavs/castilian_match_declarative-broad-focus_Manuela-vende-el-carro.wav,0,,,94.2068,96.6388,0,1,1.9053,,0,7,7,46,1,47,0,castilian,,,,,,,,,,,,,,,,,,,,,,,,,,,,,,,,,,,,,,,,,,,,,,,,,,,,,,,,
,,,,,,,,,,,click here to respond,click here to respond,click here to respond,2025-07-24_08h58.07.605,empathy_intonation_perc_control,2024.2.4,Win32,60.24096386,5e8bbb3680cbf20986c677e1,68817205a84113384fffdfe3,68822cc434949da7d3ed0421,,,,,,,,,,,,./stim/wavs/castilian_match_interrogative-total-yn_Marta-abre-el-regalo.wav,1,,,96.6398,99.2061,1,1,2.0333,,0,8,8,5,1,6,0,castilian,,,,,,,,,,,,,,,,,,,,,,,,,,,,,,,,,,,,,,,,,,,,,,,,,,,,,,,,
,,,,,,,,,,,click here to respond,click here to respond,click here to respond,2025-07-24_08h58.07.605,empathy_intonation_perc_control,2024.2.4,Win32,60.24096386,5e8bbb3680cbf20986c677e1,68817205a84113384fffdfe3,68822cc434949da7d3ed0421,,,,,,,,,,,,./stim/wavs/cuban_mismatch_declarative-broad-focus_Mi-tia-odia-la-lluvia.wav,0,,,99.2072,101.756,0,1,2.0224,,0,9,9,77,1,78,0,cuban,,,,,,,,,,,,,,,,,,,,,,,,,,,,,,,,,,,,,,,,,,,,,,,,,,,,,,,,
,,,,,,,,,,,click here to respond,click here to respond,click here to respond,2025-07-24_08h58.07.605,empathy_intonation_perc_control,2024.2.4,Win32,60.24096386,5e8bbb3680cbf20986c677e1,68817205a84113384fffdfe3,68822cc434949da7d3ed0421,,,,,,,,,,,,./stim/wavs/castilian_mismatch_declarative-broad-focus_La-maestra-vive-en-Paris.wav,0,,,101.7569,104.3556,0,1,2.0696,,0,10,10,69,1,70,0,castilian,,,,,,,,,,,,,,,,,,,,,,,,,,,,,,,,,,,,,,,,,,,,,,,,,,,,,,,,
,,,,,,,,,,,click here to respond,click here to respond,click here to respond,2025-07-24_08h58.07.605,empathy_intonation_perc_control,2024.2.4,Win32,60.24096386,5e8bbb3680cbf20986c677e1,68817205a84113384fffdfe3,68822cc434949da7d3ed0421,,,,,,,,,,,,./stim/wavs/castilian_mismatch_interrogative-total-yn_La-nina-lava-el-plato.wav,1,,,104.3567,106.8724,1,1,1.9918,,0,11,11,25,1,26,0,castilian,,,,,,,,,,,,,,,,,,,,,,,,,,,,,,,,,,,,,,,,,,,,,,,,,,,,,,,,
,,,,,,,,,,,click here to respond,click here to respond,click here to respond,2025-07-24_08h58.07.605,empathy_intonation_perc_control,2024.2.4,Win32,60.24096386,5e8bbb3680cbf20986c677e1,68817205a84113384fffdfe3,68822cc434949da7d3ed0421,,,,,,,,,,,,./stim/wavs/cuban_match_interrogative-total-yn_Mariano-habla-del-tiempo.wav,1,,,106.8736,110.3885,0,0,2.9857,,0,12,12,10,1,11,1,cuban,,,,,,,,,,,,,,,,,,,,,,,,,,,,,,,,,,,,,,,,,,,,,,,,,,,,,,,,
,,,,,,,,,,,click here to respond,click here to respond,click here to respond,2025-07-24_08h58.07.605,empathy_intonation_perc_control,2024.2.4,Win32,60.24096386,5e8bbb3680cbf20986c677e1,68817205a84113384fffdfe3,68822cc434949da7d3ed0421,,,,,,,,,,,,./stim/wavs/mexican_mismatch_declarative-broad-focus_El-bebe-comia-muy-bien.wav,0,,,110.3892,114.5888,1,0,3.6697,,0,13,13,78,1,79,0,mexican,,,,,,,,,,,,,,,,,,,,,,,,,,,,,,,,,,,,,,,,,,,,,,,,,,,,,,,,
,,,,,,,,,,,click here to respond,click here to respond,click here to respond,2025-07-24_08h58.07.605,empathy_intonation_perc_control,2024.2.4,Win32,60.24096386,5e8bbb3680cbf20986c677e1,68817205a84113384fffdfe3,68822cc434949da7d3ed0421,,,,,,,,,,,,./stim/wavs/mexican_mismatch_declarative-broad-focus_La-maestra-vive-en-Paris.wav,0,,,114.5898,117.2389,0,1,2.1233,,0,14,14,80,1,81,0,mexican,,,,,,,,,,,,,,,,,,,,,,,,,,,,,,,,,,,,,,,,,,,,,,,,,,,,,,,,
,,,,,,,,,,,click here to respond,click here to respond,click here to respond,2025-07-24_08h58.07.605,empathy_intonation_perc_control,2024.2.4,Win32,60.24096386,5e8bbb3680cbf20986c677e1,68817205a84113384fffdfe3,68822cc434949da7d3ed0421,,,,,,,,,,,,./stim/wavs/mexican_mismatch_declarative-broad-focus_El-hombre-mira-la-luna.wav,0,,,117.2406,120.3718,0,1,2.6,,0,15,15,79,1,80,0,mexican,,,,,,,,,,,,,,,,,,,,,,,,,,,,,,,,,,,,,,,,,,,,,,,,,,,,,,,,
,,,,,,,,,,,click here to respond,click here to respond,click here to respond,2025-07-24_08h58.07.605,empathy_intonation_perc_control,2024.2.4,Win32,60.24096386,5e8bbb3680cbf20986c677e1,68817205a84113384fffdfe3,68822cc434949da7d3ed0421,,,,,,,,,,,,./stim/wavs/castilian_match_interrogative-total-yn_Maria-bebe-el-vino.wav,1,,,120.3731,122.7882,1,1,1.8862,,0,16,16,3,1,4,0,castilian,,,,,,,,,,,,,,,,,,,,,,,,,,,,,,,,,,,,,,,,,,,,,,,,,,,,,,,,
,,,,,,,,,,,click here to respond,click here to respond,click here to respond,2025-07-24_08h58.07.605,empathy_intonation_perc_control,2024.2.4,Win32,60.24096386,5e8bbb3680cbf20986c677e1,68817205a84113384fffdfe3,68822cc434949da7d3ed0421,,,,,,,,,,,,./stim/wavs/puertorican_mismatch_declarative-broad-focus_El-hombre-mira-la-luna.wav,0,,,122.7888,124.789,0,1,1.4668,,0,17,17,84,1,85,0,puertorican,,,,,,,,,,,,,,,,,,,,,,,,,,,,,,,,,,,,,,,,,,,,,,,,,,,,,,,,
,,,,,,,,,,,click here to respond,click here to respond,click here to respond,2025-07-24_08h58.07.605,empathy_intonation_perc_control,2024.2.4,Win32,60.24096386,5e8bbb3680cbf20986c677e1,68817205a84113384fffdfe3,68822cc434949da7d3ed0421,,,,,,,,,,,,./stim/wavs/cuban_mismatch_declarative-broad-focus_Mi-novio-viene-del-lago.wav,0,,,124.7898,127.3882,0,1,2.067,,0,18,18,76,1,77,0,cuban,,,,,,,,,,,,,,,,,,,,,,,,,,,,,,,,,,,,,,,,,,,,,,,,,,,,,,,,
,,,,,,,,,,,click here to respond,click here to respond,click here to respond,2025-07-24_08h58.07.605,empathy_intonation_perc_control,2024.2.4,Win32,60.24096386,5e8bbb3680cbf20986c677e1,68817205a84113384fffdfe3,68822cc434949da7d3ed0421,,,,,,,,,,,,./stim/wavs/mexican_mismatch_declarative-broad-focus_Mi-tia-odia-la-lluvia.wav,0,,,127.3892,129.2217,0,1,1.3058,,0,19,19,82,1,83,0,mexican,,,,,,,,,,,,,,,,,,,,,,,,,,,,,,,,,,,,,,,,,,,,,,,,,,,,,,,,
,,,,,,,,,,,click here to respond,click here to respond,click here to respond,2025-07-24_08h58.07.605,empathy_intonation_perc_control,2024.2.4,Win32,60.24096386,5e8bbb3680cbf20986c677e1,68817205a84113384fffdfe3,68822cc434949da7d3ed0421,,,,,,,,,,,,./stim/wavs/castilian_match_interrogative-total-yn_Emilio-ama-la-marcha.wav,1,,,129.223,131.322,1,1,1.5834,,0,20,20,1,1,2,0,castilian,,,,,,,,,,,,,,,,,,,,,,,,,,,,,,,,,,,,,,,,,,,,,,,,,,,,,,,,
,,,,,,,,,,,click here to respond,click here to respond,click here to respond,2025-07-24_08h58.07.605,empathy_intonation_perc_control,2024.2.4,Win32,60.24096386,5e8bbb3680cbf20986c677e1,68817205a84113384fffdfe3,68822cc434949da7d3ed0421,,,,,,,,,,,,./stim/wavs/cuban_match_declarative-broad-focus_Ana-lleva-el-abrigo.wav,0,,,131.3234,133.7221,0,1,1.8732,,0,21,21,50,1,51,0,cuban,,,,,,,,,,,,,,,,,,,,,,,,,,,,,,,,,,,,,,,,,,,,,,,,,,,,,,,,
,,,,,,,,,,,click here to respond,click here to respond,click here to respond,2025-07-24_08h58.07.605,empathy_intonation_perc_control,2024.2.4,Win32,60.24096386,5e8bbb3680cbf20986c677e1,68817205a84113384fffdfe3,68822cc434949da7d3ed0421,,,,,,,,,,,,./stim/wavs/castilian_match_interrogative-total-yn_Mariano-habla-del-tiempo.wav,1,,,133.7232,136.1228,1,1,1.8771,,0,22,22,4,1,5,0,castilian,,,,,,,,,,,,,,,,,,,,,,,,,,,,,,,,,,,,,,,,,,,,,,,,,,,,,,,,
,,,,,,,,,,,click here to respond,click here to respond,click here to respond,2025-07-24_08h58.07.605,empathy_intonation_perc_control,2024.2.4,Win32,60.24096386,5e8bbb3680cbf20986c677e1,68817205a84113384fffdfe3,68822cc434949da7d3ed0421,,,,,,,,,,,,./stim/wavs/puertorican_mismatch_interrogative-total-yn_Mi-madre-come-la-fruta.wav,1,,,136.1238,138.2719,0,0,1.6193,,0,23,23,43,1,44,1,puertorican,,,,,,,,,,,,,,,,,,,,,,,,,,,,,,,,,,,,,,,,,,,,,,,,,,,,,,,,
,,,,,,,,,,,click here to respond,click here to respond,click here to respond,2025-07-24_08h58.07.605,empathy_intonation_perc_control,2024.2.4,Win32,60.24096386,5e8bbb3680cbf20986c677e1,68817205a84113384fffdfe3,68822cc434949da7d3ed0421,,,,,,,,,,,,./stim/wavs/mexican_match_declarative-broad-focus_Emilio-ama-la-marcha.wav,0,,,138.2728,140.5885,0,1,1.785,,0,24,24,59,1,60,0,mexican,,,,,,,,,,,,,,,,,,,,,,,,,,,,,,,,,,,,,,,,,,,,,,,,,,,,,,,,
,,,,,,,,,,,click here to respond,click here to respond,click here to respond,2025-07-24_08h58.07.605,empathy_intonation_perc_control,2024.2.4,Win32,60.24096386,5e8bbb3680cbf20986c677e1,68817205a84113384fffdfe3,68822cc434949da7d3ed0421,,,,,,,,,,,,./stim/wavs/mexican_match_declarative-broad-focus_Daniel-iba-a-Bolivia.wav,0,,,140.5894,142.8049,0,1,1.6888,,0,25,25,57,1,58,0,mexican,,,,,,,,,,,,,,,,,,,,,,,,,,,,,,,,,,,,,,,,,,,,,,,,,,,,,,,,
,,,,,,,,,,,click here to respond,click here to respond,click here to respond,2025-07-24_08h58.07.605,empathy_intonation_perc_control,2024.2.4,Win32,60.24096386,5e8bbb3680cbf20986c677e1,68817205a84113384fffdfe3,68822cc434949da7d3ed0421,,,,,,,,,,,,./stim/wavs/puertorican_match_declarative-broad-focus_Daniel-iba-a-Bolivia.wav,0,,,142.8058,144.7551,0,1,1.424,,0,26,26,63,1,64,0,puertorican,,,,,,,,,,,,,,,,,,,,,,,,,,,,,,,,,,,,,,,,,,,,,,,,,,,,,,,,
,,,,,,,,,,,click here to respond,click here to respond,click here to respond,2025-07-24_08h58.07.605,empathy_intonation_perc_control,2024.2.4,Win32,60.24096386,5e8bbb3680cbf20986c677e1,68817205a84113384fffdfe3,68822cc434949da7d3ed0421,,,,,,,,,,,,./stim/wavs/cuban_match_interrogative-total-yn_Marta-abre-el-regalo.wav,1,,,144.7569,146.8049,0,0,1.5193,,0,27,27,11,1,12,1,cuban,,,,,,,,,,,,,,,,,,,,,,,,,,,,,,,,,,,,,,,,,,,,,,,,,,,,,,,,
,,,,,,,,,,,click here to respond,click here to respond,click here to respond,2025-07-24_08h58.07.605,empathy_intonation_perc_control,2024.2.4,Win32,60.24096386,5e8bbb3680cbf20986c677e1,68817205a84113384fffdfe3,68822cc434949da7d3ed0421,,,,,,,,,,,,./stim/wavs/puertorican_match_interrogative-total-yn_Emilio-ama-la-marcha.wav,1,,,146.8058,148.988,0,0,1.6526,,0,28,28,21,1,22,1,puertorican,,,,,,,,,,,,,,,,,,,,,,,,,,,,,,,,,,,,,,,,,,,,,,,,,,,,,,,,
,,,,,,,,,,,click here to respond,click here to respond,click here to respond,2025-07-24_08h58.07.605,empathy_intonation_perc_control,2024.2.4,Win32,60.24096386,5e8bbb3680cbf20986c677e1,68817205a84113384fffdfe3,68822cc434949da7d3ed0421,,,,,,,,,,,,./stim/wavs/cuban_mismatch_interrogative-total-yn_Mi-tia-odia-la-lluvia.wav,1,,,148.9887,151.1049,0,0,1.5909,,0,29,29,33,1,34,1,cuban,,,,,,,,,,,,,,,,,,,,,,,,,,,,,,,,,,,,,,,,,,,,,,,,,,,,,,,,
,,,,,,,,,,,click here to respond,click here to respond,click here to respond,2025-07-24_08h58.07.605,empathy_intonation_perc_control,2024.2.4,Win32,60.24096386,5e8bbb3680cbf20986c677e1,68817205a84113384fffdfe3,68822cc434949da7d3ed0421,,,,,,,,,,,,./stim/wavs/cuban_mismatch_interrogative-total-yn_Mi-novio-viene-del-lago.wav,1,,,151.1062,153.6884,0,0,2.0565,,0,30,30,32,1,33,1,cuban,,,,,,,,,,,,,,,,,,,,,,,,,,,,,,,,,,,,,,,,,,,,,,,,,,,,,,,,
,,,,,,,,,,,click here to respond,click here to respond,click here to respond,2025-07-24_08h58.07.605,empathy_intonation_perc_control,2024.2.4,Win32,60.24096386,5e8bbb3680cbf20986c677e1,68817205a84113384fffdfe3,68822cc434949da7d3ed0421,,,,,,,,,,,,./stim/wavs/castilian_match_declarative-broad-focus_Emilio-ama-la-marcha.wav,0,,,153.6893,156.5714,0,1,2.3552,,0,31,31,45,1,46,0,castilian,,,,,,,,,,,,,,,,,,,,,,,,,,,,,,,,,,,,,,,,,,,,,,,,,,,,,,,,
,,,,,,,,,,,click here to respond,click here to respond,click here to respond,2025-07-24_08h58.07.605,empathy_intonation_perc_control,2024.2.4,Win32,60.24096386,5e8bbb3680cbf20986c677e1,68817205a84113384fffdfe3,68822cc434949da7d3ed0421,,,,,,,,,,,,./stim/wavs/mexican_mismatch_interrogative-total-yn_La-maestra-vive-en-Paris.wav,1,,,156.5725,158.7213,1,1,1.6196,,0,32,32,36,1,37,0,mexican,,,,,,,,,,,,,,,,,,,,,,,,,,,,,,,,,,,,,,,,,,,,,,,,,,,,,,,,
,,,,,,,,,,,click here to respond,click here to respond,click here to respond,2025-07-24_08h58.07.605,empathy_intonation_perc_control,2024.2.4,Win32,60.24096386,5e8bbb3680cbf20986c677e1,68817205a84113384fffdfe3,68822cc434949da7d3ed0421,,,,,,,,,,,,./stim/wavs/mexican_match_declarative-broad-focus_Marta-abre-el-regalo.wav,0,,,158.7225,160.7211,0,1,1.4705,,0,33,33,61,1,62,0,mexican,,,,,,,,,,,,,,,,,,,,,,,,,,,,,,,,,,,,,,,,,,,,,,,,,,,,,,,,
,,,,,,,,,,,click here to respond,click here to respond,click here to respond,2025-07-24_08h58.07.605,empathy_intonation_perc_control,2024.2.4,Win32,60.24096386,5e8bbb3680cbf20986c677e1,68817205a84113384fffdfe3,68822cc434949da7d3ed0421,,,,,,,,,,,,./stim/wavs/mexican_match_interrogative-total-yn_Ana-lleva-el-abrigo.wav,1,,,160.7217,162.6048,0,0,1.3536,,0,34,34,12,1,13,0,mexican,,,,,,,,,,,,,,,,,,,,,,,,,,,,,,,,,,,,,,,,,,,,,,,,,,,,,,,,
,,,,,,,,,,,click here to respond,click here to respond,click here to respond,2025-07-24_08h58.07.605,empathy_intonation_perc_control,2024.2.4,Win32,60.24096386,5e8bbb3680cbf20986c677e1,68817205a84113384fffdfe3,68822cc434949da7d3ed0421,,,,,,,,,,,,./stim/wavs/cuban_match_declarative-broad-focus_Mariano-habla-del-tiempo.wav,0,,,162.6057,164.8711,0,1,1.7427,,0,35,35,54,1,55,0,cuban,,,,,,,,,,,,,,,,,,,,,,,,,,,,,,,,,,,,,,,,,,,,,,,,,,,,,,,,
,,,,,,,,,,,click here to respond,click here to respond,click here to respond,2025-07-24_08h58.07.605,empathy_intonation_perc_control,2024.2.4,Win32,60.24096386,5e8bbb3680cbf20986c677e1,68817205a84113384fffdfe3,68822cc434949da7d3ed0421,,,,,,,,,,,,./stim/wavs/castilian_mismatch_interrogative-total-yn_Mi-tia-odia-la-lluvia.wav,1,,,164.872,167.0548,1,1,1.6499,,0,36,36,28,1,29,0,castilian,,,,,,,,,,,,,,,,,,,,,,,,,,,,,,,,,,,,,,,,,,,,,,,,,,,,,,,,
,,,,,,,,,,,click here to respond,click here to respond,click here to respond,2025-07-24_08h58.07.605,empathy_intonation_perc_control,2024.2.4,Win32,60.24096386,5e8bbb3680cbf20986c677e1,68817205a84113384fffdfe3,68822cc434949da7d3ed0421,,,,,,,,,,,,./stim/wavs/puertorican_match_declarative-broad-focus_Maria-bebe-el-vino.wav,0,,,167.0557,168.9878,0,1,1.4096,,0,37,37,67,1,68,0,puertorican,,,,,,,,,,,,,,,,,,,,,,,,,,,,,,,,,,,,,,,,,,,,,,,,,,,,,,,,
,,,,,,,,,,,click here to respond,click here to respond,click here to respond,2025-07-24_08h58.07.605,empathy_intonation_perc_control,2024.2.4,Win32,60.24096386,5e8bbb3680cbf20986c677e1,68817205a84113384fffdfe3,68822cc434949da7d3ed0421,,,,,,,,,,,,./stim/wavs/castilian_mismatch_declarative-broad-focus_Mi-novio-viene-del-lago.wav,0,,,168.9888,171.2052,0,1,1.6938,,0,38,38,71,1,72,0,castilian,,,,,,,,,,,,,,,,,,,,,,,,,,,,,,,,,,,,,,,,,,,,,,,,,,,,,,,,
,,,,,,,,,,,click here to respond,click here to respond,click here to respond,2025-07-24_08h58.07.605,empathy_intonation_perc_control,2024.2.4,Win32,60.24096386,5e8bbb3680cbf20986c677e1,68817205a84113384fffdfe3,68822cc434949da7d3ed0421,,,,,,,,,,,,./stim/wavs/mexican_mismatch_interrogative-total-yn_El-nino-oye-el-rio.wav,1,,,171.2064,173.2216,1,1,1.4872,,0,39,39,35,1,36,0,mexican,,,,,,,,,,,,,,,,,,,,,,,,,,,,,,,,,,,,,,,,,,,,,,,,,,,,,,,,
,,,,,,,,,,,click here to respond,click here to respond,click here to respond,2025-07-24_08h58.07.605,empathy_intonation_perc_control,2024.2.4,Win32,60.24096386,5e8bbb3680cbf20986c677e1,68817205a84113384fffdfe3,68822cc434949da7d3ed0421,,,,,,,,,,,,./stim/wavs/castilian_mismatch_interrogative-total-yn_La-maestra-vive-en-Paris.wav,1,,,173.2228,175.8217,1,1,2.0673,,0,40,40,24,1,25,0,castilian,,,,,,,,,,,,,,,,,,,,,,,,,,,,,,,,,,,,,,,,,,,,,,,,,,,,,,,,
,,,,,,,,,,,click here to respond,click here to respond,click here to respond,2025-07-24_08h58.07.605,empathy_intonation_perc_control,2024.2.4,Win32,60.24096386,5e8bbb3680cbf20986c677e1,68817205a84113384fffdfe3,68822cc434949da7d3ed0421,,,,,,,,,,,,./stim/wavs/cuban_mismatch_declarative-broad-focus_El-bebe-comia-muy-bien.wav,0,,,175.8227,178.2212,0,1,1.8664,,0,41,41,73,1,74,0,cuban,,,,,,,,,,,,,,,,,,,,,,,,,,,,,,,,,,,,,,,,,,,,,,,,,,,,,,,,
,,,,,,,,,,,click here to respond,click here to respond,click here to respond,2025-07-24_08h58.07.605,empathy_intonation_perc_control,2024.2.4,Win32,60.24096386,5e8bbb3680cbf20986c677e1,68817205a84113384fffdfe3,68822cc434949da7d3ed0421,,,,,,,,,,,,./stim/wavs/puertorican_mismatch_declarative-broad-focus_El-bebe-comia-muy-bien.wav,0,,,178.2222,180.088,0,1,1.3355,,0,42,42,83,1,84,0,puertorican,,,,,,,,,,,,,,,,,,,,,,,,,,,,,,,,,,,,,,,,,,,,,,,,,,,,,,,,
,,,,,,,,,,,click here to respond,click here to respond,click here to respond,2025-07-24_08h58.07.605,empathy_intonation_perc_control,2024.2.4,Win32,60.24096386,5e8bbb3680cbf20986c677e1,68817205a84113384fffdfe3,68822cc434949da7d3ed0421,,,,,,,,,,,,./stim/wavs/mexican_match_interrogative-total-yn_Daniel-iba-a-Bolivia.wav,1,,,180.0889,182.4543,0,0,1.8378,,0,43,43,13,1,14,0,mexican,,,,,,,,,,,,,,,,,,,,,,,,,,,,,,,,,,,,,,,,,,,,,,,,,,,,,,,,
,,,,,,,,,,,click here to respond,click here to respond,click here to respond,2025-07-24_08h58.07.605,empathy_intonation_perc_control,2024.2.4,Win32,60.24096386,5e8bbb3680cbf20986c677e1,68817205a84113384fffdfe3,68822cc434949da7d3ed0421,,,,,,,,,,,,./stim/wavs/puertorican_match_interrogative-total-yn_Maria-bebe-el-vino.wav,1,,,182.4549,184.5547,1,1,1.5663,,0,44,44,23,1,24,1,puertorican,,,,,,,,,,,,,,,,,,,,,,,,,,,,,,,,,,,,,,,,,,,,,,,,,,,,,,,,
,,,,,,,,,,,click here to respond,click here to respond,click here to respond,2025-07-24_08h58.07.605,empathy_intonation_perc_control,2024.2.4,Win32,60.24096386,5e8bbb3680cbf20986c677e1,68817205a84113384fffdfe3,68822cc434949da7d3ed0421,,,,,,,,,,,,./stim/wavs/puertorican_match_declarative-broad-focus_Manuela-vende-el-carro.wav,0,,,184.5555,186.6877,0,1,1.6038,,0,45,45,66,1,67,0,puertorican,,,,,,,,,,,,,,,,,,,,,,,,,,,,,,,,,,,,,,,,,,,,,,,,,,,,,,,,
,,,,,,,,,,,click here to respond,click here to respond,click here to respond,2025-07-24_08h58.07.605,empathy_intonation_perc_control,2024.2.4,Win32,60.24096386,5e8bbb3680cbf20986c677e1,68817205a84113384fffdfe3,68822cc434949da7d3ed0421,,,,,,,,,,,,./stim/wavs/puertorican_mismatch_declarative-broad-focus_La-maestra-vive-en-Paris.wav,0,,,186.689,188.8204,0,1,1.6037,,0,46,46,86,1,87,0,puertorican,,,,,,,,,,,,,,,,,,,,,,,,,,,,,,,,,,,,,,,,,,,,,,,,,,,,,,,,
,,,,,,,,,,,click here to respond,click here to respond,click here to respond,2025-07-24_08h58.07.605,empathy_intonation_perc_control,2024.2.4,Win32,60.24096386,5e8bbb3680cbf20986c677e1,68817205a84113384fffdfe3,68822cc434949da7d3ed0421,,,,,,,,,,,,./stim/wavs/puertorican_mismatch_interrogative-total-yn_La-nina-lava-el-plato.wav,1,,,188.821,190.8209,0,0,1.4656,,0,47,47,42,1,43,1,puertorican,,,,,,,,,,,,,,,,,,,,,,,,,,,,,,,,,,,,,,,,,,,,,,,,,,,,,,,,
,,,,,,,,,,,click here to respond,click here to respond,click here to respond,2025-07-24_08h58.07.605,empathy_intonation_perc_control,2024.2.4,Win32,60.24096386,5e8bbb3680cbf20986c677e1,68817205a84113384fffdfe3,68822cc434949da7d3ed0421,,,,,,,,,,,,./stim/wavs/puertorican_match_interrogative-total-yn_Manuela-vende-el-carro.wav,1,,,190.822,192.9209,0,0,1.5706,,0,48,48,22,1,23,1,puertorican,,,,,,,,,,,,,,,,,,,,,,,,,,,,,,,,,,,,,,,,,,,,,,,,,,,,,,,,
,,,,,,,,,,,click here to respond,click here to respond,click here to respond,2025-07-24_08h58.07.605,empathy_intonation_perc_control,2024.2.4,Win32,60.24096386,5e8bbb3680cbf20986c677e1,68817205a84113384fffdfe3,68822cc434949da7d3ed0421,,,,,,,,,,,,./stim/wavs/mexican_match_interrogative-total-yn_Marta-abre-el-regalo.wav,1,,,192.9223,195.3047,1,1,1.8552,,0,49,49,17,1,18,0,mexican,,,,,,,,,,,,,,,,,,,,,,,,,,,,,,,,,,,,,,,,,,,,,,,,,,,,,,,,
,,,,,,,,,,,click here to respond,click here to respond,click here to respond,2025-07-24_08h58.07.605,empathy_intonation_perc_control,2024.2.4,Win32,60.24096386,5e8bbb3680cbf20986c677e1,68817205a84113384fffdfe3,68822cc434949da7d3ed0421,,,,,,,,,,,,./stim/wavs/castilian_match_declarative-broad-focus_Maria-bebe-el-vino.wav,0,,,195.3056,198.3038,0,1,2.475,,0,50,50,47,1,48,0,castilian,,,,,,,,,,,,,,,,,,,,,,,,,,,,,,,,,,,,,,,,,,,,,,,,,,,,,,,,
,,,,,,,,,,,click here to respond,click here to respond,click here to respond,2025-07-24_08h58.07.605,empathy_intonation_perc_control,2024.2.4,Win32,60.24096386,5e8bbb3680cbf20986c677e1,68817205a84113384fffdfe3,68822cc434949da7d3ed0421,,,,,,,,,,,,./stim/wavs/castilian_mismatch_interrogative-total-yn_Mi-madre-come-la-fruta.wav,1,,,198.3048,200.8222,1,1,1.9934,,0,51,51,26,1,27,0,castilian,,,,,,,,,,,,,,,,,,,,,,,,,,,,,,,,,,,,,,,,,,,,,,,,,,,,,,,,
,,,,,,,,,,,click here to respond,click here to respond,click here to respond,2025-07-24_08h58.07.605,empathy_intonation_perc_control,2024.2.4,Win32,60.24096386,5e8bbb3680cbf20986c677e1,68817205a84113384fffdfe3,68822cc434949da7d3ed0421,,,,,,,,,,,,./stim/wavs/castilian_match_declarative-broad-focus_Marta-abre-el-regalo.wav,0,,,200.8234,204.2203,0,1,2.8703,,0,52,52,49,1,50,0,castilian,,,,,,,,,,,,,,,,,,,,,,,,,,,,,,,,,,,,,,,,,,,,,,,,,,,,,,,,
,,,,,,,,,,,click here to respond,click here to respond,click here to respond,2025-07-24_08h58.07.605,empathy_intonation_perc_control,2024.2.4,Win32,60.24096386,5e8bbb3680cbf20986c677e1,68817205a84113384fffdfe3,68822cc434949da7d3ed0421,,,,,,,,,,,,./stim/wavs/puertorican_match_declarative-broad-focus_David-leia-el-libro.wav,0,,,204.2214,206.3541,0,1,1.6026,,0,53,53,64,1,65,0,puertorican,,,,,,,,,,,,,,,,,,,,,,,,,,,,,,,,,,,,,,,,,,,,,,,,,,,,,,,,
,,,,,,,,,,,click here to respond,click here to respond,click here to respond,2025-07-24_08h58.07.605,empathy_intonation_perc_control,2024.2.4,Win32,60.24096386,5e8bbb3680cbf20986c677e1,68817205a84113384fffdfe3,68822cc434949da7d3ed0421,,,,,,,,,,,,./stim/wavs/cuban_match_declarative-broad-focus_Manuela-vende-el-carro.wav,0,,,206.355,208.7209,0,1,1.8336,,0,54,54,52,1,53,0,cuban,,,,,,,,,,,,,,,,,,,,,,,,,,,,,,,,,,,,,,,,,,,,,,,,,,,,,,,,
,,,,,,,,,,,click here to respond,click here to respond,click here to respond,2025-07-24_08h58.07.605,empathy_intonation_perc_control,2024.2.4,Win32,60.24096386,5e8bbb3680cbf20986c677e1,68817205a84113384fffdfe3,68822cc434949da7d3ed0421,,,,,,,,,,,,./stim/wavs/puertorican_mismatch_interrogative-total-yn_El-hombre-mira-la-luna.wav,1,,,208.7226,211.1373,1,1,1.8871,,0,55,55,39,1,40,1,puertorican,,,,,,,,,,,,,,,,,,,,,,,,,,,,,,,,,,,,,,,,,,,,,,,,,,,,,,,,
,,,,,,,,,,,click here to respond,click here to respond,click here to respond,2025-07-24_08h58.07.605,empathy_intonation_perc_control,2024.2.4,Win32,60.24096386,5e8bbb3680cbf20986c677e1,68817205a84113384fffdfe3,68822cc434949da7d3ed0421,,,,,,,,,,,,./stim/wavs/cuban_match_interrogative-total-yn_Maria-bebe-el-vino.wav,1,,,211.139,213.2544,0,0,1.5867,,0,56,56,9,1,10,1,cuban,,,,,,,,,,,,,,,,,,,,,,,,,,,,,,,,,,,,,,,,,,,,,,,,,,,,,,,,
,,,,,,,,,,,click here to respond,click here to respond,click here to respond,2025-07-24_08h58.07.605,empathy_intonation_perc_control,2024.2.4,Win32,60.24096386,5e8bbb3680cbf20986c677e1,68817205a84113384fffdfe3,68822cc434949da7d3ed0421,,,,,,,,,,,,./stim/wavs/castilian_match_interrogative-total-yn_Manuela-vende-el-carro.wav,1,,,213.2555,215.5541,1,1,1.7651,,0,57,57,2,1,3,0,castilian,,,,,,,,,,,,,,,,,,,,,,,,,,,,,,,,,,,,,,,,,,,,,,,,,,,,,,,,
,,,,,,,,,,,click here to respond,click here to respond,click here to respond,2025-07-24_08h58.07.605,empathy_intonation_perc_control,2024.2.4,Win32,60.24096386,5e8bbb3680cbf20986c677e1,68817205a84113384fffdfe3,68822cc434949da7d3ed0421,,,,,,,,,,,,./stim/wavs/mexican_match_declarative-broad-focus_Ana-lleva-el-abrigo.wav,0,,,215.5551,217.8203,0,1,1.7402,,0,58,58,56,1,57,0,mexican,,,,,,,,,,,,,,,,,,,,,,,,,,,,,,,,,,,,,,,,,,,,,,,,,,,,,,,,
,,,,,,,,,,,click here to respond,click here to respond,click here to respond,2025-07-24_08h58.07.605,empathy_intonation_perc_control,2024.2.4,Win32,60.24096386,5e8bbb3680cbf20986c677e1,68817205a84113384fffdfe3,68822cc434949da7d3ed0421,,,,,,,,,,,,./stim/wavs/cuban_match_declarative-broad-focus_Maria-bebe-el-vino.wav,0,,,217.8213,219.6874,0,1,1.3364,,0,59,59,53,1,54,0,cuban,,,,,,,,,,,,,,,,,,,,,,,,,,,,,,,,,,,,,,,,,,,,,,,,,,,,,,,,
,,,,,,,,,,,click here to respond,click here to respond,click here to respond,2025-07-24_08h58.07.605,empathy_intonation_perc_control,2024.2.4,Win32,60.24096386,5e8bbb3680cbf20986c677e1,68817205a84113384fffdfe3,68822cc434949da7d3ed0421,,,,,,,,,,,,./stim/wavs/cuban_match_interrogative-total-yn_Manuela-vende-el-carro.wav,1,,,219.6884,221.5633,0,0,1.3513,,0,60,60,8,1,9,1,cuban,,,,,,,,,,,,,,,,,,,,,,,,,,,,,,,,,,,,,,,,,,,,,,,,,,,,,,,,
,,,,,,,,,,,click here to respond,click here to respond,click here to respond,2025-07-24_08h58.07.605,empathy_intonation_perc_control,2024.2.4,Win32,60.24096386,5e8bbb3680cbf20986c677e1,68817205a84113384fffdfe3,68822cc434949da7d3ed0421,,,,,,,,,,,,./stim/wavs/castilian_match_declarative-broad-focus_Mariano-habla-del-tiempo.wav,0,,,221.5641,223.926,0,1,1.8496,,0,61,61,48,1,49,0,castilian,,,,,,,,,,,,,,,,,,,,,,,,,,,,,,,,,,,,,,,,,,,,,,,,,,,,,,,,
,,,,,,,,,,,click here to respond,click here to respond,click here to respond,2025-07-24_08h58.07.605,empathy_intonation_perc_control,2024.2.4,Win32,60.24096386,5e8bbb3680cbf20986c677e1,68817205a84113384fffdfe3,68822cc434949da7d3ed0421,,,,,,,,,,,,./stim/wavs/mexican_mismatch_interrogative-total-yn_Mi-tia-odia-la-lluvia.wav,1,,,223.9268,226.0867,0,0,1.6391,,0,62,62,38,1,39,0,mexican,,,,,,,,,,,,,,,,,,,,,,,,,,,,,,,,,,,,,,,,,,,,,,,,,,,,,,,,
,,,,,,,,,,,click here to respond,click here to respond,click here to respond,2025-07-24_08h58.07.605,empathy_intonation_perc_control,2024.2.4,Win32,60.24096386,5e8bbb3680cbf20986c677e1,68817205a84113384fffdfe3,68822cc434949da7d3ed0421,,,,,,,,,,,,./stim/wavs/puertorican_mismatch_interrogative-total-yn_El-nino-oye-el-rio.wav,1,,,226.0873,228.4029,0,0,1.7868,,0,63,63,40,1,41,1,puertorican,,,,,,,,,,,,,,,,,,,,,,,,,,,,,,,,,,,,,,,,,,,,,,,,,,,,,,,,
,,,,,,,,,,,click here to respond,click here to respond,click here to respond,2025-07-24_08h58.07.605,empathy_intonation_perc_control,2024.2.4,Win32,60.24096386,5e8bbb3680cbf20986c677e1,68817205a84113384fffdfe3,68822cc434949da7d3ed0421,,,,,,,,,,,,./stim/wavs/castilian_mismatch_declarative-broad-focus_Mi-tia-odia-la-lluvia.wav,0,,,228.4035,230.8031,0,1,1.8641,,0,64,64,72,1,73,0,castilian,,,,,,,,,,,,,,,,,,,,,,,,,,,,,,,,,,,,,,,,,,,,,,,,,,,,,,,,
,,,,,,,,,,,click here to respond,click here to respond,click here to respond,2025-07-24_08h58.07.605,empathy_intonation_perc_control,2024.2.4,Win32,60.24096386,5e8bbb3680cbf20986c677e1,68817205a84113384fffdfe3,68822cc434949da7d3ed0421,,,,,,,,,,,,./stim/wavs/cuban_mismatch_declarative-broad-focus_El-hombre-mira-la-luna.wav,0,,,230.8038,232.6367,0,1,1.2991,,0,65,65,74,1,75,0,cuban,,,,,,,,,,,,,,,,,,,,,,,,,,,,,,,,,,,,,,,,,,,,,,,,,,,,,,,,
,,,,,,,,,,,click here to respond,click here to respond,click here to respond,2025-07-24_08h58.07.605,empathy_intonation_perc_control,2024.2.4,Win32,60.24096386,5e8bbb3680cbf20986c677e1,68817205a84113384fffdfe3,68822cc434949da7d3ed0421,,,,,,,,,,,,./stim/wavs/puertorican_match_declarative-broad-focus_Ana-lleva-el-abrigo.wav,0,,,232.6375,234.8199,0,1,1.6524,,0,66,66,62,1,63,0,puertorican,,,,,,,,,,,,,,,,,,,,,,,,,,,,,,,,,,,,,,,,,,,,,,,,,,,,,,,,
,,,,,,,,,,,click here to respond,click here to respond,click here to respond,2025-07-24_08h58.07.605,empathy_intonation_perc_control,2024.2.4,Win32,60.24096386,5e8bbb3680cbf20986c677e1,68817205a84113384fffdfe3,68822cc434949da7d3ed0421,,,,,,,,,,,,./stim/wavs/mexican_mismatch_declarative-broad-focus_Mi-novio-viene-del-lago.wav,0,,,234.8208,237.0867,0,1,1.7397,,0,67,67,81,1,82,0,mexican,,,,,,,,,,,,,,,,,,,,,,,,,,,,,,,,,,,,,,,,,,,,,,,,,,,,,,,,
,,,,,,,,,,,click here to respond,click here to respond,click here to respond,2025-07-24_08h58.07.605,empathy_intonation_perc_control,2024.2.4,Win32,60.24096386,5e8bbb3680cbf20986c677e1,68817205a84113384fffdfe3,68822cc434949da7d3ed0421,,,,,,,,,,,,./stim/wavs/cuban_mismatch_interrogative-total-yn_El-nino-oye-el-rio.wav,1,,,237.0879,239.0363,0,0,1.4375,,0,68,68,30,1,31,1,cuban,,,,,,,,,,,,,,,,,,,,,,,,,,,,,,,,,,,,,,,,,,,,,,,,,,,,,,,,
,,,,,,,,,,,click here to respond,click here to respond,click here to respond,2025-07-24_08h58.07.605,empathy_intonation_perc_control,2024.2.4,Win32,60.24096386,5e8bbb3680cbf20986c677e1,68817205a84113384fffdfe3,68822cc434949da7d3ed0421,,,,,,,,,,,,./stim/wavs/cuban_match_declarative-broad-focus_Marta-abre-el-regalo.wav,0,,,239.0369,241.0032,0,1,1.4467,,0,69,69,55,1,56,0,cuban,,,,,,,,,,,,,,,,,,,,,,,,,,,,,,,,,,,,,,,,,,,,,,,,,,,,,,,,
,,,,,,,,,,,click here to respond,click here to respond,click here to respond,2025-07-24_08h58.07.605,empathy_intonation_perc_control,2024.2.4,Win32,60.24096386,5e8bbb3680cbf20986c677e1,68817205a84113384fffdfe3,68822cc434949da7d3ed0421,,,,,,,,,,,,./stim/wavs/castilian_match_declarative-broad-focus_David-leia-el-libro.wav,0,,,241.0037,243.2867,0,1,1.7496,0.0087,0,70,70,44,1,45,0,castilian,,,,,,,,,,,,,,,,,,,,,,,,,,,,,,,,,,,,,,,,,,,,,,,,,,,,,,,,
,,,,,,,,,,,click here to respond,click here to respond,click here to respond,2025-07-24_08h58.07.605,empathy_intonation_perc_control,2024.2.4,Win32,60.24096386,5e8bbb3680cbf20986c677e1,68817205a84113384fffdfe3,68822cc434949da7d3ed0421,,,,,,,,,,,,./stim/wavs/puertorican_match_declarative-broad-focus_Emilio-ama-la-marcha.wav,0,,,243.2882,245.3699,0,1,1.5671,,0,71,71,65,1,66,0,puertorican,,,,,,,,,,,,,,,,,,,,,,,,,,,,,,,,,,,,,,,,,,,,,,,,,,,,,,,,
,,,,,,,,,,,click here to respond,click here to respond,click here to respond,2025-07-24_08h58.07.605,empathy_intonation_perc_control,2024.2.4,Win32,60.24096386,5e8bbb3680cbf20986c677e1,68817205a84113384fffdfe3,68822cc434949da7d3ed0421,,,,,,,,,,,,./stim/wavs/mexican_mismatch_interrogative-total-yn_Mi-novio-viene-del-lago.wav,1,,,245.371,247.5201,1,1,1.6265,,0,72,72,37,1,38,0,mexican,,,,,,,,,,,,,,,,,,,,,,,,,,,,,,,,,,,,,,,,,,,,,,,,,,,,,,,,
,,,,,,,,,,,click here to respond,click here to respond,click here to respond,2025-07-24_08h58.07.605,empathy_intonation_perc_control,2024.2.4,Win32,60.24096386,5e8bbb3680cbf20986c677e1,68817205a84113384fffdfe3,68822cc434949da7d3ed0421,,,,,,,,,,,,./stim/wavs/puertorican_mismatch_declarative-broad-focus_El-nino-oye-el-rio.wav,0,,,247.5209,249.52,0,1,1.4685,,0,73,73,85,1,86,0,puertorican,,,,,,,,,,,,,,,,,,,,,,,,,,,,,,,,,,,,,,,,,,,,,,,,,,,,,,,,
,,,,,,,,,,,click here to respond,click here to respond,click here to respond,2025-07-24_08h58.07.605,empathy_intonation_perc_control,2024.2.4,Win32,60.24096386,5e8bbb3680cbf20986c677e1,68817205a84113384fffdfe3,68822cc434949da7d3ed0421,,,,,,,,,,,,./stim/wavs/cuban_match_interrogative-total-yn_Daniel-iba-a-Bolivia.wav,1,,,249.5209,251.5204,0,0,1.4843,,0,74,74,7,1,8,1,cuban,,,,,,,,,,,,,,,,,,,,,,,,,,,,,,,,,,,,,,,,,,,,,,,,,,,,,,,,
,,,,,,,,,,,click here to respond,click here to respond,click here to respond,2025-07-24_08h58.07.605,empathy_intonation_perc_control,2024.2.4,Win32,60.24096386,5e8bbb3680cbf20986c677e1,68817205a84113384fffdfe3,68822cc434949da7d3ed0421,,,,,,,,,,,,./stim/wavs/mexican_match_declarative-broad-focus_Mariano-habla-del-tiempo.wav,0,,,251.5218,253.7713,0,1,1.7257,,0,75,75,60,1,61,0,mexican,,,,,,,,,,,,,,,,,,,,,,,,,,,,,,,,,,,,,,,,,,,,,,,,,,,,,,,,
,,,,,,,,,,,click here to respond,click here to respond,click here to respond,2025-07-24_08h58.07.605,empathy_intonation_perc_control,2024.2.4,Win32,60.24096386,5e8bbb3680cbf20986c677e1,68817205a84113384fffdfe3,68822cc434949da7d3ed0421,,,,,,,,,,,,./stim/wavs/cuban_match_interrogative-total-yn_Ana-lleva-el-abrigo.wav,1,,,253.7726,255.553,0,0,1.2556,,0,76,76,6,1,7,1,cuban,,,,,,,,,,,,,,,,,,,,,,,,,,,,,,,,,,,,,,,,,,,,,,,,,,,,,,,,
,,,,,,,,,,,click here to respond,click here to respond,click here to respond,2025-07-24_08h58.07.605,empathy_intonation_perc_control,2024.2.4,Win32,60.24096386,5e8bbb3680cbf20986c677e1,68817205a84113384fffdfe3,68822cc434949da7d3ed0421,,,,,,,,,,,,./stim/wavs/cuban_mismatch_interrogative-total-yn_El-hombre-mira-la-luna.wav,1,,,255.5538,257.3699,0,0,1.2841,,0,77,77,29,1,30,1,cuban,,,,,,,,,,,,,,,,,,,,,,,,,,,,,,,,,,,,,,,,,,,,,,,,,,,,,,,,
,,,,,,,,,,,click here to respond,click here to respond,click here to respond,2025-07-24_08h58.07.605,empathy_intonation_perc_control,2024.2.4,Win32,60.24096386,5e8bbb3680cbf20986c677e1,68817205a84113384fffdfe3,68822cc434949da7d3ed0421,,,,,,,,,,,,./stim/wavs/cuban_mismatch_interrogative-total-yn_Mi-madre-come-la-fruta.wav,1,,,257.371,259.6865,0,0,1.7837,,0,78,78,31,1,32,1,cuban,,,,,,,,,,,,,,,,,,,,,,,,,,,,,,,,,,,,,,,,,,,,,,,,,,,,,,,,
,,,,,,,,,,,click here to respond,click here to respond,click here to respond,2025-07-24_08h58.07.605,empathy_intonation_perc_control,2024.2.4,Win32,60.24096386,5e8bbb3680cbf20986c677e1,68817205a84113384fffdfe3,68822cc434949da7d3ed0421,,,,,,,,,,,,./stim/wavs/castilian_mismatch_interrogative-total-yn_Mi-novio-viene-del-lago.wav,1,,,259.6875,261.853,1,1,1.6364,,0,79,79,27,1,28,0,castilian,,,,,,,,,,,,,,,,,,,,,,,,,,,,,,,,,,,,,,,,,,,,,,,,,,,,,,,,
,,,,,,,,,,,click here to respond,click here to respond,click here to respond,2025-07-24_08h58.07.605,empathy_intonation_perc_control,2024.2.4,Win32,60.24096386,5e8bbb3680cbf20986c677e1,68817205a84113384fffdfe3,68822cc434949da7d3ed0421,,,,,,,,,,,,./stim/wavs/mexican_mismatch_interrogative-total-yn_El-hombre-mira-la-luna.wav,1,,,261.8541,263.7699,1,1,1.389,,0,80,80,34,1,35,0,mexican,,,,,,,,,,,,,,,,,,,,,,,,,,,,,,,,,,,,,,,,,,,,,,,,,,,,,,,,
,,,,,,,,,,,click here to respond,click here to respond,click here to respond,2025-07-24_08h58.07.605,empathy_intonation_perc_control,2024.2.4,Win32,60.24096386,5e8bbb3680cbf20986c677e1,68817205a84113384fffdfe3,68822cc434949da7d3ed0421,,,,,,,,,,,,./stim/wavs/mexican_match_interrogative-total-yn_Emilio-ama-la-marcha.wav,1,,,263.7708,265.8877,1,1,1.5834,,0,81,81,15,1,16,0,mexican,,,,,,,,,,,,,,,,,,,,,,,,,,,,,,,,,,,,,,,,,,,,,,,,,,,,,,,,
,,,,,,,,,,,click here to respond,click here to respond,click here to respond,2025-07-24_08h58.07.605,empathy_intonation_perc_control,2024.2.4,Win32,60.24096386,5e8bbb3680cbf20986c677e1,68817205a84113384fffdfe3,68822cc434949da7d3ed0421,,,,,,,,,,,,./stim/wavs/castilian_mismatch_declarative-broad-focus_El-nino-oye-el-rio.wav,0,,,265.8894,268.0529,0,1,1.6337,,0,82,82,68,1,69,0,castilian,,,,,,,,,,,,,,,,,,,,,,,,,,,,,,,,,,,,,,,,,,,,,,,,,,,,,,,,
,,,,,,,,,,,click here to respond,click here to respond,click here to respond,2025-07-24_08h58.07.605,empathy_intonation_perc_control,2024.2.4,Win32,60.24096386,5e8bbb3680cbf20986c677e1,68817205a84113384fffdfe3,68822cc434949da7d3ed0421,,,,,,,,,,,,./stim/wavs/puertorican_match_interrogative-total-yn_Daniel-iba-a-Bolivia.wav,1,,,268.0539,270.4025,0,0,1.8105,,0,83,83,19,1,20,1,puertorican,,,,,,,,,,,,,,,,,,,,,,,,,,,,,,,,,,,,,,,,,,,,,,,,,,,,,,,,
,,,,,,,,,,,click here to respond,click here to respond,click here to respond,2025-07-24_08h58.07.605,empathy_intonation_perc_control,2024.2.4,Win32,60.24096386,5e8bbb3680cbf20986c677e1,68817205a84113384fffdfe3,68822cc434949da7d3ed0421,,,,,,,,,,,,./stim/wavs/puertorican_match_interrogative-total-yn_Ana-lleva-el-abrigo.wav,1,,,270.4031,272.4864,0,0,1.5555,,0,84,84,18,1,19,1,puertorican,,,,,,,,,,,,,,,,,,,,,,,,,,,,,,,,,,,,,,,,,,,,,,,,,,,,,,,,
,,,,,,,,,,,click here to respond,click here to respond,click here to respond,2025-07-24_08h58.07.605,empathy_intonation_perc_control,2024.2.4,Win32,60.24096386,5e8bbb3680cbf20986c677e1,68817205a84113384fffdfe3,68822cc434949da7d3ed0421,,,,,,,,,,,,./stim/wavs/mexican_match_declarative-broad-focus_David-leia-el-libro.wav,0,,,272.4877,274.403,0,1,1.3846,,0,85,85,58,1,59,0,mexican,,,,,,,,,,,,,,,,,,,,,,,,,,,,,,,,,,,,,,,,,,,,,,,,,,,,,,,,
,,,,,,,,,,,click here to respond,click here to respond,click here to respond,2025-07-24_08h58.07.605,empathy_intonation_perc_control,2024.2.4,Win32,60.24096386,5e8bbb3680cbf20986c677e1,68817205a84113384fffdfe3,68822cc434949da7d3ed0421,,,,,,,,,,,,./stim/wavs/castilian_match_interrogative-total-yn_David-leia-el-libro.wav,1,,,274.4038,276.5198,1,1,1.589,,0,86,86,0,1,1,0,castilian,,,,,,,,,,,,,,,,,,,,,,,,,,,,,,,,,,,,,,,,,,,,,,,,,,,,,,,,
,,,,,,,,,,,click here to respond,click here to respond,click here to respond,2025-07-24_08h58.07.605,empathy_intonation_perc_control,2024.2.4,Win32,60.24096386,5e8bbb3680cbf20986c677e1,68817205a84113384fffdfe3,68822cc434949da7d3ed0421,,,,,,,,,,,,./stim/wavs/puertorican_mismatch_interrogative-total-yn_La-maestra-vive-en-Paris.wav,1,,,276.5209,279.253,0,0,2.2035,,0,87,87,41,1,42,1,puertorican,,,,,,,,,,,,,,,,,,,,,,,,,,,,,,,,,,,,,,,,,,,,,,,,,,,,,,,,
,,,,,,,"Great! Now we will move on. The next task consists of about 60 trials, in each of which you will see a string of letters. 
  
  Your task is to decide whether this is a real Spanish word or not.", (press the spacebar to continue),,,click here to respond,click here to respond,click here to respond,2025-07-24_08h58.07.605,empathy_intonation_perc_control,2024.2.4,Win32,60.24096386,5e8bbb3680cbf20986c677e1,68817205a84113384fffdfe3,68822cc434949da7d3ed0421,,,,,,,,,,,,,,,,,,,,,,,,,,,,,,279.2641,284.7361,0,0,0,0,1,,,,,,,,,,,,,,,,,,,,,,,,,,,,,,,,,,,,,,,,,,,,,,,,,
,,,,,,,"If you think it is an existing Spanish word, you type '1' (for 'REAL'), and if you think it is not an existing Spanish word, you type '0' (for 'FAKE').", (press the spacebar to continue),,,click here to respond,click here to respond,click here to respond,2025-07-24_08h58.07.605,empathy_intonation_perc_control,2024.2.4,Win32,60.24096386,5e8bbb3680cbf20986c677e1,68817205a84113384fffdfe3,68822cc434949da7d3ed0421,,,,,,,,,,,,,,,,,,,,,,,,,,,,,,284.7417,288.7365,0,1,1,1,1,,,,,,,,,,,,,,,,,,,,,,,,,,,,,,,,,,,,,,,,,,,,,,,,,
,,,,,,,"If you are sure that the word exists, even though you don’t know its exact meaning, you may still respond '1' (REAL). 
  
  But if you are not sure if it is an existing word, you should respond '0' (FAKE).
  
  Let's do a practice round...", (press the spacebar to continue),,,click here to respond,click here to respond,click here to respond,2025-07-24_08h58.07.605,empathy_intonation_perc_control,2024.2.4,Win32,60.24096386,5e8bbb3680cbf20986c677e1,68817205a84113384fffdfe3,68822cc434949da7d3ed0421,,,,,,,,,,,,,,,,,,,,,,,,,,,,,,288.7397,290.8526,0,2,2,2,1,,,,,,,,,,,,,,,,,,,,,,,,,,,,,,,,,,,,,,,,,,,,,,,,,
,,,,,,,,,,,click here to respond,click here to respond,click here to respond,2025-07-24_08h58.07.605,empathy_intonation_perc_control,2024.2.4,Win32,60.24096386,5e8bbb3680cbf20986c677e1,68817205a84113384fffdfe3,68822cc434949da7d3ed0421,,,,,,,,,,,,,0,,,,,,,,,,,,,,,,,,,,,,,,290.8633,292.9378,1,0,1.5452,,292.9385,293.9363,0,0,0,0,1,0,depiste,REAL,FAKE,,,,,,,,,,,,,,,,,,,,,,,,,,,,,,,,
,,,,,,,,,,,click here to respond,click here to respond,click here to respond,2025-07-24_08h58.07.605,empathy_intonation_perc_control,2024.2.4,Win32,60.24096386,5e8bbb3680cbf20986c677e1,68817205a84113384fffdfe3,68822cc434949da7d3ed0421,,,,,,,,,,,,,1,,,,,,,,,,,,,,,,,,,,,,,,293.9393,295.4694,1,1,0.9946,,295.4715,296.4692,0,1,1,1,1,0,sí,REAL,FAKE,,,,,,,,,,,,,,,,,,,,,,,,,,,,,,,,
,,,,,,,,,,,click here to respond,click here to respond,click here to respond,2025-07-24_08h58.07.605,empathy_intonation_perc_control,2024.2.4,Win32,60.24096386,5e8bbb3680cbf20986c677e1,68817205a84113384fffdfe3,68822cc434949da7d3ed0421,,,,,,,,,,,,,0,,,,,,,,,,,,,,,,,,,,,,,,296.4717,298.2194,0,1,1.2076,,298.2195,299.2193,0,2,2,2,1,0,coné,REAL,FAKE,,,,,,,,,,,,,,,,,,,,,,,,,,,,,,,,
,,,,,,,,,,,click here to respond,click here to respond,click here to respond,2025-07-24_08h58.07.605,empathy_intonation_perc_control,2024.2.4,Win32,60.24096386,5e8bbb3680cbf20986c677e1,68817205a84113384fffdfe3,68822cc434949da7d3ed0421,,,,,,,,,,,,,0,,,,,,,,,,,,,,,,,,,,,,,,299.2222,300.7023,1,0,0.9437,,300.7034,301.7027,0,3,3,3,1,0,calpar,REAL,FAKE,,,,,,,,,,,,,,,,,,,,,,,,,,,,,,,,
,,,,,,,,,,,click here to respond,click here to respond,click here to respond,2025-07-24_08h58.07.605,empathy_intonation_perc_control,2024.2.4,Win32,60.24096386,5e8bbb3680cbf20986c677e1,68817205a84113384fffdfe3,68822cc434949da7d3ed0421,,,,,,,,,,,,,0,,,,,,,,,,,,,,,,,,,,,,,,301.7052,303.0902,0,1,0.8485,,303.0919,304.0859,0,4,4,4,1,0,joten,REAL,FAKE,,,,,,,,,,,,,,,,,,,,,,,,,,,,,,,,
,,,,,,,,,,,click here to respond,click here to respond,click here to respond,2025-07-24_08h58.07.605,empathy_intonation_perc_control,2024.2.4,Win32,60.24096386,5e8bbb3680cbf20986c677e1,68817205a84113384fffdfe3,68822cc434949da7d3ed0421,,,,,,,,,,,,,1,,,,,,,,,,,,,,,,,,,,,,,,304.0877,305.6019,0,0,0.9713,,305.6029,306.6024,0,5,5,5,1,0,sacapuntas,REAL,FAKE,,,,,,,,,,,,,,,,,,,,,,,,,,,,,,,,
,,,,,,,,,,,click here to respond,click here to respond,click here to respond,2025-07-24_08h58.07.605,empathy_intonation_perc_control,2024.2.4,Win32,60.24096386,5e8bbb3680cbf20986c677e1,68817205a84113384fffdfe3,68822cc434949da7d3ed0421,,,,,,,,,,,,,0,,,,,,,,,,,,,,,,,,,,,,,,306.6046,308.0358,0,1,0.8884,,308.037,309.0359,0,6,6,6,1,0,priba,REAL,FAKE,,,,,,,,,,,,,,,,,,,,,,,,,,,,,,,,
,,,,,,,,,,,click here to respond,click here to respond,click here to respond,2025-07-24_08h58.07.605,empathy_intonation_perc_control,2024.2.4,Win32,60.24096386,5e8bbb3680cbf20986c677e1,68817205a84113384fffdfe3,68822cc434949da7d3ed0421,,,,,,,,,,,,,0,,,,,,,,,,,,,,,,,,,,,,,,309.0376,310.6429,0,1,1.0681,,310.6431,311.6355,0,7,7,7,1,0,pelasula,REAL,FAKE,,,,,,,,,,,,,,,,,,,,,,,,,,,,,,,,
,,,,,,,,,,,click here to respond,click here to respond,click here to respond,2025-07-24_08h58.07.605,empathy_intonation_perc_control,2024.2.4,Win32,60.24096386,5e8bbb3680cbf20986c677e1,68817205a84113384fffdfe3,68822cc434949da7d3ed0421,,,,,,,,,,,,,1,,,,,,,,,,,,,,,,,,,,,,,,311.6365,312.919,1,1,0.7385,,312.9191,313.9194,0,8,8,8,1,0,bien,REAL,FAKE,,,,,,,,,,,,,,,,,,,,,,,,,,,,,,,,
,,,,,,,,,,,click here to respond,click here to respond,click here to respond,2025-07-24_08h58.07.605,empathy_intonation_perc_control,2024.2.4,Win32,60.24096386,5e8bbb3680cbf20986c677e1,68817205a84113384fffdfe3,68822cc434949da7d3ed0421,,,,,,,,,,,,,1,,,,,,,,,,,,,,,,,,,,,,,,313.9208,315.0022,1,1,0.5424,,315.0023,316.0029,0,9,9,9,1,0,casa,REAL,FAKE,,,,,,,,,,,,,,,,,,,,,,,,,,,,,,,,
,,,,,,,,,,,click here to respond,click here to respond,click here to respond,2025-07-24_08h58.07.605,empathy_intonation_perc_control,2024.2.4,Win32,60.24096386,5e8bbb3680cbf20986c677e1,68817205a84113384fffdfe3,68822cc434949da7d3ed0421,,,,,,,,,,,,,0,,,,,,,,,,,,,,,,,,,,,,,,316.0047,317.3521,1,0,0.808,,317.3536,318.3516,0,10,10,10,1,0,lejo,REAL,FAKE,,,,,,,,,,,,,,,,,,,,,,,,,,,,,,,,
,,,,,,,,,,,click here to respond,click here to respond,click here to respond,2025-07-24_08h58.07.605,empathy_intonation_perc_control,2024.2.4,Win32,60.24096386,5e8bbb3680cbf20986c677e1,68817205a84113384fffdfe3,68822cc434949da7d3ed0421,,,,,,,,,,,,,0,,,,,,,,,,,,,,,,,,,,,,,,318.3521,319.7688,0,1,0.8884,,319.77,320.7688,0,11,11,11,1,0,pretantas,REAL,FAKE,,,,,,,,,,,,,,,,,,,,,,,,,,,,,,,,
,,,,,,,,,,,click here to respond,click here to respond,click here to respond,2025-07-24_08h58.07.605,empathy_intonation_perc_control,2024.2.4,Win32,60.24096386,5e8bbb3680cbf20986c677e1,68817205a84113384fffdfe3,68822cc434949da7d3ed0421,,,,,,,,,,,,,,,,,,,,,,,,,,,,,,,,,,,,,,,,,,,,,,,,,,,,,,320.7695,327.8524,,,,,,,,,,,,,,,,,,,,,,,,,,,,,,
,,,,,,,,,,,click here to respond,click here to respond,click here to respond,2025-07-24_08h58.07.605,empathy_intonation_perc_control,2024.2.4,Win32,60.24096386,5e8bbb3680cbf20986c677e1,68817205a84113384fffdfe3,68822cc434949da7d3ed0421,,,,,,,,,,,,,1,,,,,,,,,,,,,,,,,,,,,,,,,,,,,,,,,,,,,6,tergiversar,,,,,327.8683,329.5688,0,0,1.1753,,0,0,0,5,1,REAL,FAKE,,,,,,,,,,,,,,,,,
,,,,,,,,,,,click here to respond,click here to respond,click here to respond,2025-07-24_08h58.07.605,empathy_intonation_perc_control,2024.2.4,Win32,60.24096386,5e8bbb3680cbf20986c677e1,68817205a84113384fffdfe3,68822cc434949da7d3ed0421,,,,,,,,,,,,,0,,,,,,,,,,,,,,,,,,,,,,,,,,,,,,,,,,,,,21,capillo,,,,,329.5705,331.0183,0,1,0.9052,,0,1,1,20,1,REAL,FAKE,,,,,,,,,,,,,,,,,
,,,,,,,,,,,click here to respond,click here to respond,click here to respond,2025-07-24_08h58.07.605,empathy_intonation_perc_control,2024.2.4,Win32,60.24096386,5e8bbb3680cbf20986c677e1,68817205a84113384fffdfe3,68822cc434949da7d3ed0421,,,,,,,,,,,,,1,,,,,,,,,,,,,,,,,,,,,,,,,,,,,,,,,,,,,26,secuestro,,,,,331.0205,332.7851,0,0,1.221,,0,2,2,25,1,REAL,FAKE,,,,,,,,,,,,,,,,,
,,,,,,,,,,,click here to respond,click here to respond,click here to respond,2025-07-24_08h58.07.605,empathy_intonation_perc_control,2024.2.4,Win32,60.24096386,5e8bbb3680cbf20986c677e1,68817205a84113384fffdfe3,68822cc434949da7d3ed0421,,,,,,,,,,,,,1,,,,,,,,,,,,,,,,,,,,,,,,,,,,,,,,,,,,,77,tiburón,,,,,332.7868,334.2404,0,0,0.9171,,0,3,3,76,1,REAL,FAKE,,,,,,,,,,,,,,,,,
,,,,,,,,,,,click here to respond,click here to respond,click here to respond,2025-07-24_08h58.07.605,empathy_intonation_perc_control,2024.2.4,Win32,60.24096386,5e8bbb3680cbf20986c677e1,68817205a84113384fffdfe3,68822cc434949da7d3ed0421,,,,,,,,,,,,,1,,,,,,,,,,,,,,,,,,,,,,,,,,,,,,,,,,,,,38,estornudar,,,,,334.2417,335.6855,0,0,0.9025,,0,4,4,37,1,REAL,FAKE,,,,,,,,,,,,,,,,,
,,,,,,,,,,,click here to respond,click here to respond,click here to respond,2025-07-24_08h58.07.605,empathy_intonation_perc_control,2024.2.4,Win32,60.24096386,5e8bbb3680cbf20986c677e1,68817205a84113384fffdfe3,68822cc434949da7d3ed0421,,,,,,,,,,,,,1,,,,,,,,,,,,,,,,,,,,,,,,,,,,,,,,,,,,,57,tacaño,,,,,335.6884,337.0689,0,0,0.8389,,0,5,5,56,1,REAL,FAKE,,,,,,,,,,,,,,,,,
,,,,,,,,,,,click here to respond,click here to respond,click here to respond,2025-07-24_08h58.07.605,empathy_intonation_perc_control,2024.2.4,Win32,60.24096386,5e8bbb3680cbf20986c677e1,68817205a84113384fffdfe3,68822cc434949da7d3ed0421,,,,,,,,,,,,,0,,,,,,,,,,,,,,,,,,,,,,,,,,,,,,,,,,,,,87,grodo,,,,,337.0704,338.3348,0,1,0.7246,,0,6,6,86,1,REAL,FAKE,,,,,,,,,,,,,,,,,
,,,,,,,,,,,click here to respond,click here to respond,click here to respond,2025-07-24_08h58.07.605,empathy_intonation_perc_control,2024.2.4,Win32,60.24096386,5e8bbb3680cbf20986c677e1,68817205a84113384fffdfe3,68822cc434949da7d3ed0421,,,,,,,,,,,,,1,,,,,,,,,,,,,,,,,,,,,,,,,,,,,,,,,,,,,83,guante,,,,,338.3358,339.7016,1,1,0.8256,,0,7,7,82,1,REAL,FAKE,,,,,,,,,,,,,,,,,
,,,,,,,,,,,click here to respond,click here to respond,click here to respond,2025-07-24_08h58.07.605,empathy_intonation_perc_control,2024.2.4,Win32,60.24096386,5e8bbb3680cbf20986c677e1,68817205a84113384fffdfe3,68822cc434949da7d3ed0421,,,,,,,,,,,,,1,,,,,,,,,,,,,,,,,,,,,,,,,,,,,,,,,,,,,80,hormiga,,,,,339.7043,341.1016,0,0,0.8519,,0,8,8,79,1,REAL,FAKE,,,,,,,,,,,,,,,,,
,,,,,,,,,,,click here to respond,click here to respond,click here to respond,2025-07-24_08h58.07.605,empathy_intonation_perc_control,2024.2.4,Win32,60.24096386,5e8bbb3680cbf20986c677e1,68817205a84113384fffdfe3,68822cc434949da7d3ed0421,,,,,,,,,,,,,1,,,,,,,,,,,,,,,,,,,,,,,,,,,,,,,,,,,,,43,canela,,,,,341.1028,342.6022,0,0,0.9611,,0,9,9,42,1,REAL,FAKE,,,,,,,,,,,,,,,,,
,,,,,,,,,,,click here to respond,click here to respond,click here to respond,2025-07-24_08h58.07.605,empathy_intonation_perc_control,2024.2.4,Win32,60.24096386,5e8bbb3680cbf20986c677e1,68817205a84113384fffdfe3,68822cc434949da7d3ed0421,,,,,,,,,,,,,1,,,,,,,,,,,,,,,,,,,,,,,,,,,,,,,,,,,,,5,zapato,,,,,342.6049,343.802,1,1,0.6614,,0,10,10,4,1,REAL,FAKE,,,,,,,,,,,,,,,,,
,,,,,,,,,,,click here to respond,click here to respond,click here to respond,2025-07-24_08h58.07.605,empathy_intonation_perc_control,2024.2.4,Win32,60.24096386,5e8bbb3680cbf20986c677e1,68817205a84113384fffdfe3,68822cc434949da7d3ed0421,,,,,,,,,,,,,1,,,,,,,,,,,,,,,,,,,,,,,,,,,,,,,,,,,,,59,besar,,,,,343.8042,345.7415,0,0,1.4007,,0,11,11,58,1,REAL,FAKE,,,,,,,,,,,,,,,,,
,,,,,,,,,,,click here to respond,click here to respond,click here to respond,2025-07-24_08h58.07.605,empathy_intonation_perc_control,2024.2.4,Win32,60.24096386,5e8bbb3680cbf20986c677e1,68817205a84113384fffdfe3,68822cc434949da7d3ed0421,,,,,,,,,,,,,1,,,,,,,,,,,,,,,,,,,,,,,,,,,,,,,,,,,,,75,yacer,,,,,345.7441,347.2521,0,0,0.9726,,0,12,12,74,1,REAL,FAKE,,,,,,,,,,,,,,,,,
,,,,,,,,,,,click here to respond,click here to respond,click here to respond,2025-07-24_08h58.07.605,empathy_intonation_perc_control,2024.2.4,Win32,60.24096386,5e8bbb3680cbf20986c677e1,68817205a84113384fffdfe3,68822cc434949da7d3ed0421,,,,,,,,,,,,,1,,,,,,,,,,,,,,,,,,,,,,,,,,,,,,,,,,,,,39,torpe,,,,,347.2536,348.5518,0,0,0.7566,,0,13,13,38,1,REAL,FAKE,,,,,,,,,,,,,,,,,
,,,,,,,,,,,click here to respond,click here to respond,click here to respond,2025-07-24_08h58.07.605,empathy_intonation_perc_control,2024.2.4,Win32,60.24096386,5e8bbb3680cbf20986c677e1,68817205a84113384fffdfe3,68822cc434949da7d3ed0421,,,,,,,,,,,,,1,,,,,,,,,,,,,,,,,,,,,,,,,,,,,,,,,,,,,78,frondoso,,,,,348.5544,349.8019,0,0,0.7028,,0,14,14,77,1,REAL,FAKE,,,,,,,,,,,,,,,,,
,,,,,,,,,,,click here to respond,click here to respond,click here to respond,2025-07-24_08h58.07.605,empathy_intonation_perc_control,2024.2.4,Win32,60.24096386,5e8bbb3680cbf20986c677e1,68817205a84113384fffdfe3,68822cc434949da7d3ed0421,,,,,,,,,,,,,0,,,,,,,,,,,,,,,,,,,,,,,,,,,,,,,,,,,,,92,click the 0 key.,,,,,349.8051,352.1852,0,1,1.8445,,0,15,15,91,1,REAL,FAKE,,,,,,,,,,,,,,,,,
,,,,,,,,,,,click here to respond,click here to respond,click here to respond,2025-07-24_08h58.07.605,empathy_intonation_perc_control,2024.2.4,Win32,60.24096386,5e8bbb3680cbf20986c677e1,68817205a84113384fffdfe3,68822cc434949da7d3ed0421,,,,,,,,,,,,,1,,,,,,,,,,,,,,,,,,,,,,,,,,,,,,,,,,,,,24,látigo,,,,,352.1874,353.7184,0,0,0.9857,,0,16,16,23,1,REAL,FAKE,,,,,,,,,,,,,,,,,
,,,,,,,,,,,click here to respond,click here to respond,click here to respond,2025-07-24_08h58.07.605,empathy_intonation_perc_control,2024.2.4,Win32,60.24096386,5e8bbb3680cbf20986c677e1,68817205a84113384fffdfe3,68822cc434949da7d3ed0421,,,,,,,,,,,,,1,,,,,,,,,,,,,,,,,,,,,,,,,,,,,,,,,,,,,3,pulmones,,,,,353.7203,355.5181,1,1,1.2528,,0,17,17,2,1,REAL,FAKE,,,,,,,,,,,,,,,,,
,,,,,,,,,,,click here to respond,click here to respond,click here to respond,2025-07-24_08h58.07.605,empathy_intonation_perc_control,2024.2.4,Win32,60.24096386,5e8bbb3680cbf20986c677e1,68817205a84113384fffdfe3,68822cc434949da7d3ed0421,,,,,,,,,,,,,1,,,,,,,,,,,,,,,,,,,,,,,,,,,,,,,,,,,,,41,rebuscar,,,,,355.5187,357.5513,1,1,1.4904,,0,18,18,40,1,REAL,FAKE,,,,,,,,,,,,,,,,,
,,,,,,,,,,,click here to respond,click here to respond,click here to respond,2025-07-24_08h58.07.605,empathy_intonation_perc_control,2024.2.4,Win32,60.24096386,5e8bbb3680cbf20986c677e1,68817205a84113384fffdfe3,68822cc434949da7d3ed0421,,,,,,,,,,,,,1,,,,,,,,,,,,,,,,,,,,,,,,,,,,,,,,,,,,,49,ganar,,,,,357.5535,359.4017,1,1,1.3035,,0,19,19,48,1,REAL,FAKE,,,,,,,,,,,,,,,,,
,,,,,,,,,,,click here to respond,click here to respond,click here to respond,2025-07-24_08h58.07.605,empathy_intonation_perc_control,2024.2.4,Win32,60.24096386,5e8bbb3680cbf20986c677e1,68817205a84113384fffdfe3,68822cc434949da7d3ed0421,,,,,,,,,,,,,0,,,,,,,,,,,,,,,,,,,,,,,,,,,,,,,,,,,,,84,escuto,,,,,359.4035,361.3351,0,1,1.3909,,0,20,20,83,1,REAL,FAKE,,,,,,,,,,,,,,,,,
,,,,,,,,,,,click here to respond,click here to respond,click here to respond,2025-07-24_08h58.07.605,empathy_intonation_perc_control,2024.2.4,Win32,60.24096386,5e8bbb3680cbf20986c677e1,68817205a84113384fffdfe3,68822cc434949da7d3ed0421,,,,,,,,,,,,,1,,,,,,,,,,,,,,,,,,,,,,,,,,,,,,,,,,,,,51,candado,,,,,361.3369,363.4348,1,1,1.559,,0,21,21,50,1,REAL,FAKE,,,,,,,,,,,,,,,,,
,,,,,,,,,,,click here to respond,click here to respond,click here to respond,2025-07-24_08h58.07.605,empathy_intonation_perc_control,2024.2.4,Win32,60.24096386,5e8bbb3680cbf20986c677e1,68817205a84113384fffdfe3,68822cc434949da7d3ed0421,,,,,,,,,,,,,0,,,,,,,,,,,,,,,,,,,,,,,,,,,,,,,,,,,,,10,antar,,,,,363.4364,364.9183,0,1,0.9378,,0,22,22,9,1,REAL,FAKE,,,,,,,,,,,,,,,,,
,,,,,,,,,,,click here to respond,click here to respond,click here to respond,2025-07-24_08h58.07.605,empathy_intonation_perc_control,2024.2.4,Win32,60.24096386,5e8bbb3680cbf20986c677e1,68817205a84113384fffdfe3,68822cc434949da7d3ed0421,,,,,,,,,,,,,0,,,,,,,,,,,,,,,,,,,,,,,,,,,,,,,,,,,,,70,temblo,,,,,364.9198,366.4682,0,1,0.9979,,0,23,23,69,1,REAL,FAKE,,,,,,,,,,,,,,,,,
,,,,,,,,,,,click here to respond,click here to respond,click here to respond,2025-07-24_08h58.07.605,empathy_intonation_perc_control,2024.2.4,Win32,60.24096386,5e8bbb3680cbf20986c677e1,68817205a84113384fffdfe3,68822cc434949da7d3ed0421,,,,,,,,,,,,,1,,,,,,,,,,,,,,,,,,,,,,,,,,,,,,,,,,,,,12,asesinato,,,,,366.4699,368.5844,0,0,1.5747,,0,24,24,11,1,REAL,FAKE,,,,,,,,,,,,,,,,,
,,,,,,,,,,,click here to respond,click here to respond,click here to respond,2025-07-24_08h58.07.605,empathy_intonation_perc_control,2024.2.4,Win32,60.24096386,5e8bbb3680cbf20986c677e1,68817205a84113384fffdfe3,68822cc434949da7d3ed0421,,,,,,,,,,,,,1,,,,,,,,,,,,,,,,,,,,,,,,,,,,,,,,,,,,,69,engatusar,,,,,368.5857,370.3177,0,0,1.1935,,0,25,25,68,1,REAL,FAKE,,,,,,,,,,,,,,,,,
,,,,,,,,,,,click here to respond,click here to respond,click here to respond,2025-07-24_08h58.07.605,empathy_intonation_perc_control,2024.2.4,Win32,60.24096386,5e8bbb3680cbf20986c677e1,68817205a84113384fffdfe3,68822cc434949da7d3ed0421,,,,,,,,,,,,,1,,,,,,,,,,,,,,,,,,,,,,,,,,,,,,,,,,,,,46,martillo,,,,,370.3187,372.9853,0,0,2.1404,,0,26,26,45,1,REAL,FAKE,,,,,,,,,,,,,,,,,
,,,,,,,,,,,click here to respond,click here to respond,click here to respond,2025-07-24_08h58.07.605,empathy_intonation_perc_control,2024.2.4,Win32,60.24096386,5e8bbb3680cbf20986c677e1,68817205a84113384fffdfe3,68822cc434949da7d3ed0421,,,,,,,,,,,,,1,,,,,,,,,,,,,,,,,,,,,,,,,,,,,,,,,,,,,71,polvoriento,,,,,372.9869,374.4678,0,0,0.9377,,0,27,27,70,1,REAL,FAKE,,,,,,,,,,,,,,,,,
,,,,,,,,,,,click here to respond,click here to respond,click here to respond,2025-07-24_08h58.07.605,empathy_intonation_perc_control,2024.2.4,Win32,60.24096386,5e8bbb3680cbf20986c677e1,68817205a84113384fffdfe3,68822cc434949da7d3ed0421,,,,,,,,,,,,,1,,,,,,,,,,,,,,,,,,,,,,,,,,,,,,,,,,,,,67,cabello,,,,,374.4691,376.4679,1,1,1.4561,,0,28,28,66,1,REAL,FAKE,,,,,,,,,,,,,,,,,
,,,,,,,,,,,click here to respond,click here to respond,click here to respond,2025-07-24_08h58.07.605,empathy_intonation_perc_control,2024.2.4,Win32,60.24096386,5e8bbb3680cbf20986c677e1,68817205a84113384fffdfe3,68822cc434949da7d3ed0421,,,,,,,,,,,,,1,,,,,,,,,,,,,,,,,,,,,,,,,,,,,,,,,,,,,62,flaco,,,,,376.4696,378.1677,0,0,1.1506,,0,29,29,61,1,REAL,FAKE,,,,,,,,,,,,,,,,,
,,,,,,,,,,,click here to respond,click here to respond,click here to respond,2025-07-24_08h58.07.605,empathy_intonation_perc_control,2024.2.4,Win32,60.24096386,5e8bbb3680cbf20986c677e1,68817205a84113384fffdfe3,68822cc434949da7d3ed0421,,,,,,,,,,,,,1,,,,,,,,,,,,,,,,,,,,,,,,,,,,,,,,,,,,,15,regar,,,,,378.1701,379.6347,0,0,0.9234,,0,30,30,14,1,REAL,FAKE,,,,,,,,,,,,,,,,,
,,,,,,,,,,,click here to respond,click here to respond,click here to respond,2025-07-24_08h58.07.605,empathy_intonation_perc_control,2024.2.4,Win32,60.24096386,5e8bbb3680cbf20986c677e1,68817205a84113384fffdfe3,68822cc434949da7d3ed0421,,,,,,,,,,,,,0,,,,,,,,,,,,,,,,,,,,,,,,,,,,,,,,,,,,,1,terzo,,,,,379.6364,381.6741,0,1,1.5011,,0,31,31,0,1,REAL,FAKE,,,,,,,,,,,,,,,,,
,,,,,,,,,,,click here to respond,click here to respond,click here to respond,2025-07-24_08h58.07.605,empathy_intonation_perc_control,2024.2.4,Win32,60.24096386,5e8bbb3680cbf20986c677e1,68817205a84113384fffdfe3,68822cc434949da7d3ed0421,,,,,,,,,,,,,1,,,,,,,,,,,,,,,,,,,,,,,,,,,,,,,,,,,,,68,alegre,,,,,381.676,383.4844,1,1,1.2774,,0,32,32,67,1,REAL,FAKE,,,,,,,,,,,,,,,,,
,,,,,,,,,,,click here to respond,click here to respond,click here to respond,2025-07-24_08h58.07.605,empathy_intonation_perc_control,2024.2.4,Win32,60.24096386,5e8bbb3680cbf20986c677e1,68817205a84113384fffdfe3,68822cc434949da7d3ed0421,,,,,,,,,,,,,1,,,,,,,,,,,,,,,,,,,,,,,,,,,,,,,,,,,,,55,nevar,,,,,383.4857,384.6346,0,0,0.6058,,0,33,33,54,1,REAL,FAKE,,,,,,,,,,,,,,,,,
,,,,,,,,,,,click here to respond,click here to respond,click here to respond,2025-07-24_08h58.07.605,empathy_intonation_perc_control,2024.2.4,Win32,60.24096386,5e8bbb3680cbf20986c677e1,68817205a84113384fffdfe3,68822cc434949da7d3ed0421,,,,,,,,,,,,,1,,,,,,,,,,,,,,,,,,,,,,,,,,,,,,,,,,,,,9,hacha,,,,,384.6362,386.2843,1,1,1.1101,,0,34,34,8,1,REAL,FAKE,,,,,,,,,,,,,,,,,
,,,,,,,,,,,click here to respond,click here to respond,click here to respond,2025-07-24_08h58.07.605,empathy_intonation_perc_control,2024.2.4,Win32,60.24096386,5e8bbb3680cbf20986c677e1,68817205a84113384fffdfe3,68822cc434949da7d3ed0421,,,,,,,,,,,,,1,,,,,,,,,,,,,,,,,,,,,,,,,,,,,,,,,,,,,56,musgo,,,,,386.2865,387.7344,0,0,0.9097,,0,35,35,55,1,REAL,FAKE,,,,,,,,,,,,,,,,,
,,,,,,,,,,,click here to respond,click here to respond,click here to respond,2025-07-24_08h58.07.605,empathy_intonation_perc_control,2024.2.4,Win32,60.24096386,5e8bbb3680cbf20986c677e1,68817205a84113384fffdfe3,68822cc434949da7d3ed0421,,,,,,,,,,,,,0,,,,,,,,,,,,,,,,,,,,,,,,,,,,,,,,,,,,,19,brecedad,,,,,387.7367,389.2509,0,1,0.9685,,0,36,36,18,1,REAL,FAKE,,,,,,,,,,,,,,,,,
,,,,,,,,,,,click here to respond,click here to respond,click here to respond,2025-07-24_08h58.07.605,empathy_intonation_perc_control,2024.2.4,Win32,60.24096386,5e8bbb3680cbf20986c677e1,68817205a84113384fffdfe3,68822cc434949da7d3ed0421,,,,,,,,,,,,,0,,,,,,,,,,,,,,,,,,,,,,,,,,,,,,,,,,,,,4,batillón,,,,,389.2519,392.0178,0,1,2.2216,,0,37,37,3,1,REAL,FAKE,,,,,,,,,,,,,,,,,
,,,,,,,,,,,click here to respond,click here to respond,click here to respond,2025-07-24_08h58.07.605,empathy_intonation_perc_control,2024.2.4,Win32,60.24096386,5e8bbb3680cbf20986c677e1,68817205a84113384fffdfe3,68822cc434949da7d3ed0421,,,,,,,,,,,,,1,,,,,,,,,,,,,,,,,,,,,,,,,,,,,,,,,,,,,45,jilguero,,,,,392.0199,393.9842,0,0,1.4222,,0,38,38,44,1,REAL,FAKE,,,,,,,,,,,,,,,,,
,,,,,,,,,,,click here to respond,click here to respond,click here to respond,2025-07-24_08h58.07.605,empathy_intonation_perc_control,2024.2.4,Win32,60.24096386,5e8bbb3680cbf20986c677e1,68817205a84113384fffdfe3,68822cc434949da7d3ed0421,,,,,,,,,,,,,1,,,,,,,,,,,,,,,,,,,,,,,,,,,,,,,,,,,,,7,pésimo,,,,,393.9859,396.1012,0,0,1.5709,,0,39,39,6,1,REAL,FAKE,,,,,,,,,,,,,,,,,
,,,,,,,,,,,click here to respond,click here to respond,click here to respond,2025-07-24_08h58.07.605,empathy_intonation_perc_control,2024.2.4,Win32,60.24096386,5e8bbb3680cbf20986c677e1,68817205a84113384fffdfe3,68822cc434949da7d3ed0421,,,,,,,,,,,,,1,,,,,,,,,,,,,,,,,,,,,,,,,,,,,,,,,,,,,20,ávido,,,,,396.1031,397.4347,0,0,0.7865,,0,40,40,19,1,REAL,FAKE,,,,,,,,,,,,,,,,,
,,,,,,,,,,,click here to respond,click here to respond,click here to respond,2025-07-24_08h58.07.605,empathy_intonation_perc_control,2024.2.4,Win32,60.24096386,5e8bbb3680cbf20986c677e1,68817205a84113384fffdfe3,68822cc434949da7d3ed0421,,,,,,,,,,,,,1,,,,,,,,,,,,,,,,,,,,,,,,,,,,,,,,,,,,,37,granuja,,,,,397.4363,399.7399,0,0,1.7662,,0,41,41,36,1,REAL,FAKE,,,,,,,,,,,,,,,,,
,,,,,,,,,,,click here to respond,click here to respond,click here to respond,2025-07-24_08h58.07.605,empathy_intonation_perc_control,2024.2.4,Win32,60.24096386,5e8bbb3680cbf20986c677e1,68817205a84113384fffdfe3,68822cc434949da7d3ed0421,,,,,,,,,,,,,0,,,,,,,,,,,,,,,,,,,,,,,,,,,,,,,,,,,,,42,cadallo,,,,,399.7414,401.3008,0,1,1.0192,,0,42,42,41,1,REAL,FAKE,,,,,,,,,,,,,,,,,
,,,,,,,,,,,click here to respond,click here to respond,click here to respond,2025-07-24_08h58.07.605,empathy_intonation_perc_control,2024.2.4,Win32,60.24096386,5e8bbb3680cbf20986c677e1,68817205a84113384fffdfe3,68822cc434949da7d3ed0421,,,,,,,,,,,,,0,,,,,,,,,,,,,,,,,,,,,,,,,,,,,,,,,,,,,18,arsa,,,,,401.302,402.984,0,1,1.143,,0,43,43,17,1,REAL,FAKE,,,,,,,,,,,,,,,,,
,,,,,,,,,,,click here to respond,click here to respond,click here to respond,2025-07-24_08h58.07.605,empathy_intonation_perc_control,2024.2.4,Win32,60.24096386,5e8bbb3680cbf20986c677e1,68817205a84113384fffdfe3,68822cc434949da7d3ed0421,,,,,,,,,,,,,0,,,,,,,,,,,,,,,,,,,,,,,,,,,,,,,,,,,,,8,cadeña,,,,,402.9857,405.901,0,1,2.37,,0,44,44,7,1,REAL,FAKE,,,,,,,,,,,,,,,,,
,,,,,,,,,,,click here to respond,click here to respond,click here to respond,2025-07-24_08h58.07.605,empathy_intonation_perc_control,2024.2.4,Win32,60.24096386,5e8bbb3680cbf20986c677e1,68817205a84113384fffdfe3,68822cc434949da7d3ed0421,,,,,,,,,,,,,1,,,,,,,,,,,,,,,,,,,,,,,,,,,,,,,,,,,,,22,lacayo,,,,,405.903,407.2005,0,0,0.7527,,0,45,45,21,1,REAL,FAKE,,,,,,,,,,,,,,,,,
,,,,,,,,,,,click here to respond,click here to respond,click here to respond,2025-07-24_08h58.07.605,empathy_intonation_perc_control,2024.2.4,Win32,60.24096386,5e8bbb3680cbf20986c677e1,68817205a84113384fffdfe3,68822cc434949da7d3ed0421,,,,,,,,,,,,,1,,,,,,,,,,,,,,,,,,,,,,,,,,,,,,,,,,,,,31,pandilla,,,,,407.2016,408.734,0,0,0.9814,,0,46,46,30,1,REAL,FAKE,,,,,,,,,,,,,,,,,
,,,,,,,,,,,click here to respond,click here to respond,click here to respond,2025-07-24_08h58.07.605,empathy_intonation_perc_control,2024.2.4,Win32,60.24096386,5e8bbb3680cbf20986c677e1,68817205a84113384fffdfe3,68822cc434949da7d3ed0421,,,,,,,,,,,,,0,,,,,,,,,,,,,,,,,,,,,,,,,,,,,,,,,,,,,47,cartinar,,,,,408.7363,410.3008,0,1,1.0201,,0,47,47,46,1,REAL,FAKE,,,,,,,,,,,,,,,,,
,,,,,,,,,,,click here to respond,click here to respond,click here to respond,2025-07-24_08h58.07.605,empathy_intonation_perc_control,2024.2.4,Win32,60.24096386,5e8bbb3680cbf20986c677e1,68817205a84113384fffdfe3,68822cc434949da7d3ed0421,,,,,,,,,,,,,1,,,,,,,,,,,,,,,,,,,,,,,,,,,,,,,,,,,,,2,pellizcar,,,,,410.3036,411.7837,0,0,0.9367,,0,48,48,1,1,REAL,FAKE,,,,,,,,,,,,,,,,,
,,,,,,,,,,,click here to respond,click here to respond,click here to respond,2025-07-24_08h58.07.605,empathy_intonation_perc_control,2024.2.4,Win32,60.24096386,5e8bbb3680cbf20986c677e1,68817205a84113384fffdfe3,68822cc434949da7d3ed0421,,,,,,,,,,,,,1,,,,,,,,,,,,,,,,,,,,,,,,,,,,,,,,,,,,,52,camisa,,,,,411.7848,413.3506,1,1,1.0271,,0,49,49,51,1,REAL,FAKE,,,,,,,,,,,,,,,,,
,,,,,,,,,,,click here to respond,click here to respond,click here to respond,2025-07-24_08h58.07.605,empathy_intonation_perc_control,2024.2.4,Win32,60.24096386,5e8bbb3680cbf20986c677e1,68817205a84113384fffdfe3,68822cc434949da7d3ed0421,,,,,,,,,,,,,1,,,,,,,,,,,,,,,,,,,,,,,,,,,,,,,,,,,,,61,seda,,,,,413.352,414.7842,0,0,0.8867,,0,50,50,60,1,REAL,FAKE,,,,,,,,,,,,,,,,,
,,,,,,,,,,,click here to respond,click here to respond,click here to respond,2025-07-24_08h58.07.605,empathy_intonation_perc_control,2024.2.4,Win32,60.24096386,5e8bbb3680cbf20986c677e1,68817205a84113384fffdfe3,68822cc434949da7d3ed0421,,,,,,,,,,,,,0,,,,,,,,,,,,,,,,,,,,,,,,,,,,,,,,,,,,,33,pauca,,,,,414.7868,416.2676,0,1,0.941,,0,51,51,32,1,REAL,FAKE,,,,,,,,,,,,,,,,,
,,,,,,,,,,,click here to respond,click here to respond,click here to respond,2025-07-24_08h58.07.605,empathy_intonation_perc_control,2024.2.4,Win32,60.24096386,5e8bbb3680cbf20986c677e1,68817205a84113384fffdfe3,68822cc434949da7d3ed0421,,,,,,,,,,,,,0,,,,,,,,,,,,,,,,,,,,,,,,,,,,,,,,,,,,,82,empirador,,,,,416.2692,417.8012,0,1,0.9909,,0,52,52,81,1,REAL,FAKE,,,,,,,,,,,,,,,,,
,,,,,,,,,,,click here to respond,click here to respond,click here to respond,2025-07-24_08h58.07.605,empathy_intonation_perc_control,2024.2.4,Win32,60.24096386,5e8bbb3680cbf20986c677e1,68817205a84113384fffdfe3,68822cc434949da7d3ed0421,,,,,,,,,,,,,1,,,,,,,,,,,,,,,,,,,,,,,,,,,,,,,,,,,,,40,alfombra,,,,,417.8032,419.1343,0,0,0.7954,,0,53,53,39,1,REAL,FAKE,,,,,,,,,,,,,,,,,
,,,,,,,,,,,click here to respond,click here to respond,click here to respond,2025-07-24_08h58.07.605,empathy_intonation_perc_control,2024.2.4,Win32,60.24096386,5e8bbb3680cbf20986c677e1,68817205a84113384fffdfe3,68822cc434949da7d3ed0421,,,,,,,,,,,,,0,,,,,,,,,,,,,,,,,,,,,,,,,,,,,,,,,,,,,79,tropaje,,,,,419.1361,420.6674,0,1,0.987,,0,54,54,78,1,REAL,FAKE,,,,,,,,,,,,,,,,,
,,,,,,,,,,,click here to respond,click here to respond,click here to respond,2025-07-24_08h58.07.605,empathy_intonation_perc_control,2024.2.4,Win32,60.24096386,5e8bbb3680cbf20986c677e1,68817205a84113384fffdfe3,68822cc434949da7d3ed0421,,,,,,,,,,,,,1,,,,,,,,,,,,,,,,,,,,,,,,,,,,,,,,,,,,,48,ladrón,,,,,420.6692,421.9174,0,0,0.7045,,0,55,55,47,1,REAL,FAKE,,,,,,,,,,,,,,,,,
,,,,,,,,,,,click here to respond,click here to respond,click here to respond,2025-07-24_08h58.07.605,empathy_intonation_perc_control,2024.2.4,Win32,60.24096386,5e8bbb3680cbf20986c677e1,68817205a84113384fffdfe3,68822cc434949da7d3ed0421,,,,,,,,,,,,,1,,,,,,,,,,,,,,,,,,,,,,,,,,,,,,,,,,,,,64,orgulloso,,,,,421.92,423.2006,0,0,0.7391,,0,56,56,63,1,REAL,FAKE,,,,,,,,,,,,,,,,,
,,,,,,,,,,,click here to respond,click here to respond,click here to respond,2025-07-24_08h58.07.605,empathy_intonation_perc_control,2024.2.4,Win32,60.24096386,5e8bbb3680cbf20986c677e1,68817205a84113384fffdfe3,68822cc434949da7d3ed0421,,,,,,,,,,,,,1,,,,,,,,,,,,,,,,,,,,,,,,,,,,,,,,,,,,,86,barato,,,,,423.2025,424.5504,0,0,0.8085,,0,57,57,85,1,REAL,FAKE,,,,,,,,,,,,,,,,,
,,,,,,,,,,,click here to respond,click here to respond,click here to respond,2025-07-24_08h58.07.605,empathy_intonation_perc_control,2024.2.4,Win32,60.24096386,5e8bbb3680cbf20986c677e1,68817205a84113384fffdfe3,68822cc434949da7d3ed0421,,,,,,,,,,,,,1,,,,,,,,,,,,,,,,,,,,,,,,,,,,,,,,,,,,,11,cenefa,,,,,424.5516,425.8337,0,0,0.7321,,0,58,58,10,1,REAL,FAKE,,,,,,,,,,,,,,,,,
,,,,,,,,,,,click here to respond,click here to respond,click here to respond,2025-07-24_08h58.07.605,empathy_intonation_perc_control,2024.2.4,Win32,60.24096386,5e8bbb3680cbf20986c677e1,68817205a84113384fffdfe3,68822cc434949da7d3ed0421,,,,,,,,,,,,,0,,,,,,,,,,,,,,,,,,,,,,,,,,,,,,,,,,,,,58,plaudir,,,,,425.8362,427.1175,0,1,0.74,,0,59,59,57,1,REAL,FAKE,,,,,,,,,,,,,,,,,
,,,,,,,,,,,click here to respond,click here to respond,click here to respond,2025-07-24_08h58.07.605,empathy_intonation_perc_control,2024.2.4,Win32,60.24096386,5e8bbb3680cbf20986c677e1,68817205a84113384fffdfe3,68822cc434949da7d3ed0421,,,,,,,,,,,,,1,,,,,,,,,,,,,,,,,,,,,,,,,,,,,,,,,,,,,81,pozo,,,,,427.1191,428.2836,0,0,0.6251,,0,60,60,80,1,REAL,FAKE,,,,,,,,,,,,,,,,,
,,,,,,,,,,,click here to respond,click here to respond,click here to respond,2025-07-24_08h58.07.605,empathy_intonation_perc_control,2024.2.4,Win32,60.24096386,5e8bbb3680cbf20986c677e1,68817205a84113384fffdfe3,68822cc434949da7d3ed0421,,,,,,,,,,,,,1,,,,,,,,,,,,,,,,,,,,,,,,,,,,,,,,,,,,,65,bizcocho,,,,,428.2858,429.5001,0,0,0.6841,,0,61,61,64,1,REAL,FAKE,,,,,,,,,,,,,,,,,
,,,,,,,,,,,click here to respond,click here to respond,click here to respond,2025-07-24_08h58.07.605,empathy_intonation_perc_control,2024.2.4,Win32,60.24096386,5e8bbb3680cbf20986c677e1,68817205a84113384fffdfe3,68822cc434949da7d3ed0421,,,,,,,,,,,,,1,,,,,,,,,,,,,,,,,,,,,,,,,,,,,,,,,,,,,25,bisagra,,,,,429.5014,431.034,0,0,0.9821,,0,62,62,24,1,REAL,FAKE,,,,,,,,,,,,,,,,,
,,,,,,,,,,,click here to respond,click here to respond,click here to respond,2025-07-24_08h58.07.605,empathy_intonation_perc_control,2024.2.4,Win32,60.24096386,5e8bbb3680cbf20986c677e1,68817205a84113384fffdfe3,68822cc434949da7d3ed0421,,,,,,,,,,,,,0,,,,,,,,,,,,,,,,,,,,,,,,,,,,,,,,,,,,,66,hacido,,,,,431.0359,432.417,0,1,0.842,,0,63,63,65,1,REAL,FAKE,,,,,,,,,,,,,,,,,
,,,,,,,,,,,click here to respond,click here to respond,click here to respond,2025-07-24_08h58.07.605,empathy_intonation_perc_control,2024.2.4,Win32,60.24096386,5e8bbb3680cbf20986c677e1,68817205a84113384fffdfe3,68822cc434949da7d3ed0421,,,,,,,,,,,,,1,,,,,,,,,,,,,,,,,,,,,,,,,,,,,,,,,,,,,28,merodear,,,,,432.4186,433.8169,0,0,0.8537,,0,64,64,27,1,REAL,FAKE,,,,,,,,,,,,,,,,,
,,,,,,,,,,,click here to respond,click here to respond,click here to respond,2025-07-24_08h58.07.605,empathy_intonation_perc_control,2024.2.4,Win32,60.24096386,5e8bbb3680cbf20986c677e1,68817205a84113384fffdfe3,68822cc434949da7d3ed0421,,,,,,,,,,,,,0,,,,,,,,,,,,,,,,,,,,,,,,,,,,,,,,,,,,,74,cintro,,,,,433.8186,435.4833,0,1,1.1212,,0,65,65,73,1,REAL,FAKE,,,,,,,,,,,,,,,,,
,,,,,,,,,,,click here to respond,click here to respond,click here to respond,2025-07-24_08h58.07.605,empathy_intonation_perc_control,2024.2.4,Win32,60.24096386,5e8bbb3680cbf20986c677e1,68817205a84113384fffdfe3,68822cc434949da7d3ed0421,,,,,,,,,,,,,0,,,,,,,,,,,,,,,,,,,,,,,,,,,,,,,,,,,,,35,rompido,,,,,435.4843,436.8504,0,1,0.8334,,0,66,66,34,1,REAL,FAKE,,,,,,,,,,,,,,,,,
,,,,,,,,,,,click here to respond,click here to respond,click here to respond,2025-07-24_08h58.07.605,empathy_intonation_perc_control,2024.2.4,Win32,60.24096386,5e8bbb3680cbf20986c677e1,68817205a84113384fffdfe3,68822cc434949da7d3ed0421,,,,,,,,,,,,,1,,,,,,,,,,,,,,,,,,,,,,,,,,,,,,,,,,,,,60,matar,,,,,436.852,438.4398,0,0,1.0512,,0,67,67,59,1,REAL,FAKE,,,,,,,,,,,,,,,,,
,,,,,,,,,,,click here to respond,click here to respond,click here to respond,2025-07-24_08h58.07.605,empathy_intonation_perc_control,2024.2.4,Win32,60.24096386,5e8bbb3680cbf20986c677e1,68817205a84113384fffdfe3,68822cc434949da7d3ed0421,,,,,,,,,,,,,0,,,,,,,,,,,,,,,,,,,,,,,,,,,,,,,,,,,,,16,abracer,,,,,438.4422,440.4165,0,1,1.4419,,0,68,68,15,1,REAL,FAKE,,,,,,,,,,,,,,,,,
,,,,,,,,,,,click here to respond,click here to respond,click here to respond,2025-07-24_08h58.07.605,empathy_intonation_perc_control,2024.2.4,Win32,60.24096386,5e8bbb3680cbf20986c677e1,68817205a84113384fffdfe3,68822cc434949da7d3ed0421,,,,,,,,,,,,,0,,,,,,,,,,,,,,,,,,,,,,,,,,,,,,,,,,,,,23,lampera,,,,,440.4183,443.5835,0,1,2.6243,,0,69,69,22,1,REAL,FAKE,,,,,,,,,,,,,,,,,
,,,,,,,,,,,click here to respond,click here to respond,click here to respond,2025-07-24_08h58.07.605,empathy_intonation_perc_control,2024.2.4,Win32,60.24096386,5e8bbb3680cbf20986c677e1,68817205a84113384fffdfe3,68822cc434949da7d3ed0421,,,,,,,,,,,,,1,,,,,,,,,,,,,,,,,,,,,,,,,,,,,,,,,,,,,34,aviso,,,,,443.5854,444.8834,0,0,0.7592,,0,70,70,33,1,REAL,FAKE,,,,,,,,,,,,,,,,,
,,,,,,,,,,,click here to respond,click here to respond,click here to respond,2025-07-24_08h58.07.605,empathy_intonation_perc_control,2024.2.4,Win32,60.24096386,5e8bbb3680cbf20986c677e1,68817205a84113384fffdfe3,68822cc434949da7d3ed0421,,,,,,,,,,,,,1,,,,,,,,,,,,,,,,,,,,,,,,,,,,,,,,,,,,,73,hervidor,,,,,444.8843,446.3171,0,0,0.8854,,0,71,71,72,1,REAL,FAKE,,,,,,,,,,,,,,,,,
,,,,,,,,,,,click here to respond,click here to respond,click here to respond,2025-07-24_08h58.07.605,empathy_intonation_perc_control,2024.2.4,Win32,60.24096386,5e8bbb3680cbf20986c677e1,68817205a84113384fffdfe3,68822cc434949da7d3ed0421,,,,,,,,,,,,,1,,,,,,,,,,,,,,,,,,,,,,,,,,,,,,,,,,,,,76,atar,,,,,446.3184,447.5507,0,0,0.6821,,0,72,72,75,1,REAL,FAKE,,,,,,,,,,,,,,,,,
,,,,,,,,,,,click here to respond,click here to respond,click here to respond,2025-07-24_08h58.07.605,empathy_intonation_perc_control,2024.2.4,Win32,60.24096386,5e8bbb3680cbf20986c677e1,68817205a84113384fffdfe3,68822cc434949da7d3ed0421,,,,,,,,,,,,,0,,,,,,,,,,,,,,,,,,,,,,,,,,,,,,,,,,,,,17,floroso,,,,,447.5533,449.0502,0,1,0.9593,,0,73,73,16,1,REAL,FAKE,,,,,,,,,,,,,,,,,
,,,,,,,,,,,click here to respond,click here to respond,click here to respond,2025-07-24_08h58.07.605,empathy_intonation_perc_control,2024.2.4,Win32,60.24096386,5e8bbb3680cbf20986c677e1,68817205a84113384fffdfe3,68822cc434949da7d3ed0421,,,,,,,,,,,,,1,,,,,,,,,,,,,,,,,,,,,,,,,,,,,,,,,,,,,89,prisa,,,,,449.052,450.5834,0,0,0.9869,,0,74,74,88,1,REAL,FAKE,,,,,,,,,,,,,,,,,
,,,,,,,,,,,click here to respond,click here to respond,click here to respond,2025-07-24_08h58.07.605,empathy_intonation_perc_control,2024.2.4,Win32,60.24096386,5e8bbb3680cbf20986c677e1,68817205a84113384fffdfe3,68822cc434949da7d3ed0421,,,,,,,,,,,,,0,,,,,,,,,,,,,,,,,,,,,,,,,,,,,,,,,,,,,32,fatacidad,,,,,450.5845,452.7333,0,1,1.6006,,0,75,75,31,1,REAL,FAKE,,,,,,,,,,,,,,,,,
,,,,,,,,,,,click here to respond,click here to respond,click here to respond,2025-07-24_08h58.07.605,empathy_intonation_perc_control,2024.2.4,Win32,60.24096386,5e8bbb3680cbf20986c677e1,68817205a84113384fffdfe3,68822cc434949da7d3ed0421,,,,,,,,,,,,,0,,,,,,,,,,,,,,,,,,,,,,,,,,,,,,,,,,,,,53,vegada,,,,,452.7355,454.1332,0,1,0.8604,,0,76,76,52,1,REAL,FAKE,,,,,,,,,,,,,,,,,
,,,,,,,,,,,click here to respond,click here to respond,click here to respond,2025-07-24_08h58.07.605,empathy_intonation_perc_control,2024.2.4,Win32,60.24096386,5e8bbb3680cbf20986c677e1,68817205a84113384fffdfe3,68822cc434949da7d3ed0421,,,,,,,,,,,,,1,,,,,,,,,,,,,,,,,,,,,,,,,,,,,,,,,,,,,14,yunque,,,,,454.1354,455.6999,0,0,1.0257,,0,77,77,13,1,REAL,FAKE,,,,,,,,,,,,,,,,,
,,,,,,,,,,,click here to respond,click here to respond,click here to respond,2025-07-24_08h58.07.605,empathy_intonation_perc_control,2024.2.4,Win32,60.24096386,5e8bbb3680cbf20986c677e1,68817205a84113384fffdfe3,68822cc434949da7d3ed0421,,,,,,,,,,,,,1,,,,,,,,,,,,,,,,,,,,,,,,,,,,,,,,,,,,,88,acantilado,,,,,455.7012,459.3005,0,0,3.0543,,0,78,78,87,1,REAL,FAKE,,,,,,,,,,,,,,,,,
,,,,,,,,,,,click here to respond,click here to respond,click here to respond,2025-07-24_08h58.07.605,empathy_intonation_perc_control,2024.2.4,Win32,60.24096386,5e8bbb3680cbf20986c677e1,68817205a84113384fffdfe3,68822cc434949da7d3ed0421,,,,,,,,,,,,,0,,,,,,,,,,,,,,,,,,,,,,,,,,,,,,,,,,,,,72,pemición,,,,,459.3023,461.8334,0,1,1.9931,,0,79,79,71,1,REAL,FAKE,,,,,,,,,,,,,,,,,
,,,,,,,,,,,click here to respond,click here to respond,click here to respond,2025-07-24_08h58.07.605,empathy_intonation_perc_control,2024.2.4,Win32,60.24096386,5e8bbb3680cbf20986c677e1,68817205a84113384fffdfe3,68822cc434949da7d3ed0421,,,,,,,,,,,,,1,,,,,,,,,,,,,,,,,,,,,,,,,,,,,,,,,,,,,54,fomentar,,,,,461.8362,463.5506,0,0,1.1783,,0,80,80,53,1,REAL,FAKE,,,,,,,,,,,,,,,,,
,,,,,,,,,,,click here to respond,click here to respond,click here to respond,2025-07-24_08h58.07.605,empathy_intonation_perc_control,2024.2.4,Win32,60.24096386,5e8bbb3680cbf20986c677e1,68817205a84113384fffdfe3,68822cc434949da7d3ed0421,,,,,,,,,,,,,0,,,,,,,,,,,,,,,,,,,,,,,,,,,,,,,,,,,,,27,acutación,,,,,463.5528,465.6666,0,1,1.5727,,0,81,81,26,1,REAL,FAKE,,,,,,,,,,,,,,,,,
,,,,,,,,,,,click here to respond,click here to respond,click here to respond,2025-07-24_08h58.07.605,empathy_intonation_perc_control,2024.2.4,Win32,60.24096386,5e8bbb3680cbf20986c677e1,68817205a84113384fffdfe3,68822cc434949da7d3ed0421,,,,,,,,,,,,,1,,,,,,,,,,,,,,,,,,,,,,,,,,,,,,,,,,,,,85,laúd,,,,,465.6693,467.2669,0,0,1.0535,,0,82,82,84,1,REAL,FAKE,,,,,,,,,,,,,,,,,
,,,,,,,,,,,click here to respond,click here to respond,click here to respond,2025-07-24_08h58.07.605,empathy_intonation_perc_control,2024.2.4,Win32,60.24096386,5e8bbb3680cbf20986c677e1,68817205a84113384fffdfe3,68822cc434949da7d3ed0421,,,,,,,,,,,,,0,,,,,,,,,,,,,,,,,,,,,,,,,,,,,,,,,,,,,30,alardio,,,,,467.2683,468.6329,0,1,0.8267,,0,83,83,29,1,REAL,FAKE,,,,,,,,,,,,,,,,,
,,,,,,,,,,,click here to respond,click here to respond,click here to respond,2025-07-24_08h58.07.605,empathy_intonation_perc_control,2024.2.4,Win32,60.24096386,5e8bbb3680cbf20986c677e1,68817205a84113384fffdfe3,68822cc434949da7d3ed0421,,,,,,,,,,,,,0,,,,,,,,,,,,,,,,,,,,,,,,,,,,,,,,,,,,,50,flamida,,,,,468.6347,469.8668,0,1,0.6908,,0,84,84,49,1,REAL,FAKE,,,,,,,,,,,,,,,,,
,,,,,,,,,,,click here to respond,click here to respond,click here to respond,2025-07-24_08h58.07.605,empathy_intonation_perc_control,2024.2.4,Win32,60.24096386,5e8bbb3680cbf20986c677e1,68817205a84113384fffdfe3,68822cc434949da7d3ed0421,,,,,,,,,,,,,1,,,,,,,,,,,,,,,,,,,,,,,,,,,,,,,,,,,,,44,cuchara,,,,,469.8684,472.1831,0,0,1.7768,,0,85,85,43,1,REAL,FAKE,,,,,,,,,,,,,,,,,
,,,,,,,,,,,click here to respond,click here to respond,click here to respond,2025-07-24_08h58.07.605,empathy_intonation_perc_control,2024.2.4,Win32,60.24096386,5e8bbb3680cbf20986c677e1,68817205a84113384fffdfe3,68822cc434949da7d3ed0421,,,,,,,,,,,,,1,,,,,,,,,,,,,,,,,,,,,,,,,,,,,,,,,,,,,36,loro,,,,,472.185,473.6003,0,0,0.8651,,0,86,86,35,1,REAL,FAKE,,,,,,,,,,,,,,,,,
,,,,,,,,,,,click here to respond,click here to respond,click here to respond,2025-07-24_08h58.07.605,empathy_intonation_perc_control,2024.2.4,Win32,60.24096386,5e8bbb3680cbf20986c677e1,68817205a84113384fffdfe3,68822cc434949da7d3ed0421,,,,,,,,,,,,,1,,,,,,,,,,,,,,,,,,,,,,,,,,,,,,,,,,,,,91,click the 1 key.,,,,,473.6026,474.8164,1,1,0.6747,,0,87,87,90,1,REAL,FAKE,,,,,,,,,,,,,,,,,
,,,,,,,,,,,click here to respond,click here to respond,click here to respond,2025-07-24_08h58.07.605,empathy_intonation_perc_control,2024.2.4,Win32,60.24096386,5e8bbb3680cbf20986c677e1,68817205a84113384fffdfe3,68822cc434949da7d3ed0421,,,,,,,,,,,,,0,,,,,,,,,,,,,,,,,,,,,,,,,,,,,,,,,,,,,63,esposante,,,,,474.8189,476.6666,0,1,1.3046,,0,88,88,62,1,REAL,FAKE,,,,,,,,,,,,,,,,,
,,,,,,,,,,,click here to respond,click here to respond,click here to respond,2025-07-24_08h58.07.605,empathy_intonation_perc_control,2024.2.4,Win32,60.24096386,5e8bbb3680cbf20986c677e1,68817205a84113384fffdfe3,68822cc434949da7d3ed0421,,,,,,,,,,,,,1,,,,,,,,,,,,,,,,,,,,,,,,,,,,,,,,,,,,,90,clavel,,,,,476.6686,478.1494,0,0,0.9408,,0,89,89,89,1,REAL,FAKE,,,,,,,,,,,,,,,,,
,,,,,,,,,,,click here to respond,click here to respond,click here to respond,2025-07-24_08h58.07.605,empathy_intonation_perc_control,2024.2.4,Win32,60.24096386,5e8bbb3680cbf20986c677e1,68817205a84113384fffdfe3,68822cc434949da7d3ed0421,,,,,,,,,,,,,1,,,,,,,,,,,,,,,,,,,,,,,,,,,,,,,,,,,,,13,helar,,,,,478.1506,479.5331,0,0,0.8384,,0,90,90,12,1,REAL,FAKE,,,,,,,,,,,,,,,,,
,,,,,,,,,,,click here to respond,click here to respond,click here to respond,2025-07-24_08h58.07.605,empathy_intonation_perc_control,2024.2.4,Win32,60.24096386,5e8bbb3680cbf20986c677e1,68817205a84113384fffdfe3,68822cc434949da7d3ed0421,,,,,,,,,,,,,0,,,,,,,,,,,,,,,,,,,,,,,,,,,,,,,,,,,,,29,decar,,,,,479.5354,481.7828,0,1,1.7106,,0,91,91,28,1,REAL,FAKE,,,,,,,,,,,,,,,,,
,,,,,,,,,,,click here to respond,click here to respond,click here to respond,2025-07-24_08h58.07.605,empathy_intonation_perc_control,2024.2.4,Win32,60.24096386,5e8bbb3680cbf20986c677e1,68817205a84113384fffdfe3,68822cc434949da7d3ed0421,,,,,,,,,,,,,,,,,,,,,,,,,,,,,,,,,,,,,,,,,,,,,,,,,,,,,,,,,,,,,,,,,,,,,481.7835,486.4497,,,,,,,,,,,,,,,
,,,,,,,,,,,click here to respond,click here to respond,click here to respond,2025-07-24_08h58.07.605,empathy_intonation_perc_control,2024.2.4,Win32,60.24096386,5e8bbb3680cbf20986c677e1,68817205a84113384fffdfe3,68822cc434949da7d3ed0421,,,,,,,,,,,,,,,,,,,,,,,,,,,1,,,,,,,,,,,,,,,,,,,,,,,,,,,,,,,,,,,,,,,,,,,,486.4653,491.6755,slightly disagree,0,0,0,0,1,I can easily tell if someone else wants to enter a conversation.,1,0,1,0,,
,,,,,,,,,,,click here to respond,click here to respond,click here to respond,2025-07-24_08h58.07.605,empathy_intonation_perc_control,2024.2.4,Win32,60.24096386,5e8bbb3680cbf20986c677e1,68817205a84113384fffdfe3,68822cc434949da7d3ed0421,,,,,,,,,,,,,,,,,,,,,,,,,,,2,,,,,,,,,,,,,,,,,,,,,,,,,,,,,,,,,,,,,,,,,,,,491.6778,495.0829,strongly disagree,0,1,1,1,1,I prefer animals to humans.,0,1,0,0,,
,,,,,,,,,,,click here to respond,click here to respond,click here to respond,2025-07-24_08h58.07.605,empathy_intonation_perc_control,2024.2.4,Win32,60.24096386,5e8bbb3680cbf20986c677e1,68817205a84113384fffdfe3,68822cc434949da7d3ed0421,,,,,,,,,,,,,,,,,,,,,,,,,,,3,,,,,,,,,,,,,,,,,,,,,,,,,,,,,,,,,,,,,,,,,,,,495.0868,501.3178,strongly disagree,0,2,2,2,1,I try to keep up with the current trends and fashions.,0,1,0,0,,
,,,,,,,,,,,click here to respond,click here to respond,click here to respond,2025-07-24_08h58.07.605,empathy_intonation_perc_control,2024.2.4,Win32,60.24096386,5e8bbb3680cbf20986c677e1,68817205a84113384fffdfe3,68822cc434949da7d3ed0421,,,,,,,,,,,,,,,,,,,,,,,,,,,4,,,,,,,,,,,,,,,,,,,,,,,,,,,,,,,,,,,,,,,,,,,,501.3224,505.7217,slightly agree,0,3,3,3,1,"I find it difficult to explain to others things that I understand easily,   when they don't understand it first time.",1,0,0,1,,
,,,,,,,,,,,click here to respond,click here to respond,click here to respond,2025-07-24_08h58.07.605,empathy_intonation_perc_control,2024.2.4,Win32,60.24096386,5e8bbb3680cbf20986c677e1,68817205a84113384fffdfe3,68822cc434949da7d3ed0421,,,,,,,,,,,,,,,,,,,,,,,,,,,5,,,,,,,,,,,,,,,,,,,,,,,,,,,,,,,,,,,,,,,,,,,,505.7232,508.3989,slightly disagree,0,4,4,4,1,I dream most nights.,0,1,0,0,,
,,,,,,,,,,,click here to respond,click here to respond,click here to respond,2025-07-24_08h58.07.605,empathy_intonation_perc_control,2024.2.4,Win32,60.24096386,5e8bbb3680cbf20986c677e1,68817205a84113384fffdfe3,68822cc434949da7d3ed0421,,,,,,,,,,,,,,,,,,,,,,,,,,,6,,,,,,,,,,,,,,,,,,,,,,,,,,,,,,,,,,,,,,,,,,,,508.4017,532.7152,slightly disagree,0,5,5,5,1,I really enjoy caring for other people.,1,0,1,0,,
,,,,,,,,,,,click here to respond,click here to respond,click here to respond,2025-07-24_08h58.07.605,empathy_intonation_perc_control,2024.2.4,Win32,60.24096386,5e8bbb3680cbf20986c677e1,68817205a84113384fffdfe3,68822cc434949da7d3ed0421,,,,,,,,,,,,,,,,,,,,,,,,,,,7,,,,,,,,,,,,,,,,,,,,,,,,,,,,,,,,,,,,,,,,,,,,532.7178,536.5985,strongly agree,0,6,6,6,1,I try to solve my own problems rather than discussing them with others.,0,1,0,0,,
,,,,,,,,,,,click here to respond,click here to respond,click here to respond,2025-07-24_08h58.07.605,empathy_intonation_perc_control,2024.2.4,Win32,60.24096386,5e8bbb3680cbf20986c677e1,68817205a84113384fffdfe3,68822cc434949da7d3ed0421,,,,,,,,,,,,,,,,,,,,,,,,,,,8,,,,,,,,,,,,,,,,,,,,,,,,,,,,,,,,,,,,,,,,,,,,536.6004,539.7816,strongly agree,0,7,7,7,1,I find it hard to know what to do in a social situation.,1,0,0,1,,
,,,,,,,,,,,click here to respond,click here to respond,click here to respond,2025-07-24_08h58.07.605,empathy_intonation_perc_control,2024.2.4,Win32,60.24096386,5e8bbb3680cbf20986c677e1,68817205a84113384fffdfe3,68822cc434949da7d3ed0421,,,,,,,,,,,,,,,,,,,,,,,,,,,9,,,,,,,,,,,,,,,,,,,,,,,,,,,,,,,,,,,,,,,,,,,,539.7843,542.7381,slightly disagree,0,8,8,8,1,I am at my best first thing in the morning.,0,1,0,0,,
,,,,,,,,,,,click here to respond,click here to respond,click here to respond,2025-07-24_08h58.07.605,empathy_intonation_perc_control,2024.2.4,Win32,60.24096386,5e8bbb3680cbf20986c677e1,68817205a84113384fffdfe3,68822cc434949da7d3ed0421,,,,,,,,,,,,,,,,,,,,,,,,,,,10,,,,,,,,,,,,,,,,,,,,,,,,,,,,,,,,,,,,,,,,,,,,542.7411,548.5319,slightly disagree,0,9,9,9,1,People often tell me that I went too far in driving my point home in a discussion.,1,0,0,1,,
,,,,,,,,,,,click here to respond,click here to respond,click here to respond,2025-07-24_08h58.07.605,empathy_intonation_perc_control,2024.2.4,Win32,60.24096386,5e8bbb3680cbf20986c677e1,68817205a84113384fffdfe3,68822cc434949da7d3ed0421,,,,,,,,,,,,,,,,,,,,,,,,,,,11,,,,,,,,,,,,,,,,,,,,,,,,,,,,,,,,,,,,,,,,,,,,548.5341,551.7323,strongly disagree,0,10,10,10,1,It doesn't bother me too much if I am late meeting a friend.,1,0,0,1,,
,,,,,,,,,,,click here to respond,click here to respond,click here to respond,2025-07-24_08h58.07.605,empathy_intonation_perc_control,2024.2.4,Win32,60.24096386,5e8bbb3680cbf20986c677e1,68817205a84113384fffdfe3,68822cc434949da7d3ed0421,,,,,,,,,,,,,,,,,,,,,,,,,,,12,,,,,,,,,,,,,,,,,,,,,,,,,,,,,,,,,,,,,,,,,,,,551.7368,554.8323,strongly disagree,0,11,11,11,1,"Friendships and relationships are just too difficult, so I tend not to 
  bother with them.",1,0,0,1,,
,,,,,,,,,,,click here to respond,click here to respond,click here to respond,2025-07-24_08h58.07.605,empathy_intonation_perc_control,2024.2.4,Win32,60.24096386,5e8bbb3680cbf20986c677e1,68817205a84113384fffdfe3,68822cc434949da7d3ed0421,,,,,,,,,,,,,,,,,,,,,,,,,,,13,,,,,,,,,,,,,,,,,,,,,,,,,,,,,,,,,,,,,,,,,,,,554.8352,557.4432,slightly disagree,0,12,12,12,1,"I would never break a law, no matter how minor.",0,1,0,0,,
,,,,,,,,,,,click here to respond,click here to respond,click here to respond,2025-07-24_08h58.07.605,empathy_intonation_perc_control,2024.2.4,Win32,60.24096386,5e8bbb3680cbf20986c677e1,68817205a84113384fffdfe3,68822cc434949da7d3ed0421,,,,,,,,,,,,,,,,,,,,,,,,,,,14,,,,,,,,,,,,,,,,,,,,,,,,,,,,,,,,,,,,,,,,,,,,557.4455,562.2149,slightly disagree,0,13,13,13,1,I often find it difficult to judge if something is rude or polite.,1,0,0,1,,
,,,,,,,,,,,click here to respond,click here to respond,click here to respond,2025-07-24_08h58.07.605,empathy_intonation_perc_control,2024.2.4,Win32,60.24096386,5e8bbb3680cbf20986c677e1,68817205a84113384fffdfe3,68822cc434949da7d3ed0421,,,,,,,,,,,,,,,,,,,,,,,,,,,15,,,,,,,,,,,,,,,,,,,,,,,,,,,,,,,,,,,,,,,,,,,,562.2166,609.4975,slightly disagree,0,14,14,14,1,"In a conversation, I tend to focus on my own thoughts rather than on what 
  my listener might be thinking.",1,0,0,1,,
,,,,,,,,,,,click here to respond,click here to respond,click here to respond,2025-07-24_08h58.07.605,empathy_intonation_perc_control,2024.2.4,Win32,60.24096386,5e8bbb3680cbf20986c677e1,68817205a84113384fffdfe3,68822cc434949da7d3ed0421,,,,,,,,,,,,,,,,,,,,,,,,,,,16,,,,,,,,,,,,,,,,,,,,,,,,,,,,,,,,,,,,,,,,,,,,609.4998,614.4805,strongly disagree,0,15,15,15,1,I prefer practical jokes to verbal humor.,0,1,0,0,,
,,,,,,,,,,,click here to respond,click here to respond,click here to respond,2025-07-24_08h58.07.605,empathy_intonation_perc_control,2024.2.4,Win32,60.24096386,5e8bbb3680cbf20986c677e1,68817205a84113384fffdfe3,68822cc434949da7d3ed0421,,,,,,,,,,,,,,,,,,,,,,,,,,,17,,,,,,,,,,,,,,,,,,,,,,,,,,,,,,,,,,,,,,,,,,,,614.4825,617.964,slightly disagree,0,16,16,16,1,I live life for today rather than the future.,0,1,0,0,,
,,,,,,,,,,,click here to respond,click here to respond,click here to respond,2025-07-24_08h58.07.605,empathy_intonation_perc_control,2024.2.4,Win32,60.24096386,5e8bbb3680cbf20986c677e1,68817205a84113384fffdfe3,68822cc434949da7d3ed0421,,,,,,,,,,,,,,,,,,,,,,,,,,,18,,,,,,,,,,,,,,,,,,,,,,,,,,,,,,,,,,,,,,,,,,,,617.9691,620.5473,strongly disagree,0,17,17,17,1,"When I was a child, I enjoyed cutting up worms to see what would happen.",1,0,0,1,,
,,,,,,,,,,,click here to respond,click here to respond,click here to respond,2025-07-24_08h58.07.605,empathy_intonation_perc_control,2024.2.4,Win32,60.24096386,5e8bbb3680cbf20986c677e1,68817205a84113384fffdfe3,68822cc434949da7d3ed0421,,,,,,,,,,,,,,,,,,,,,,,,,,,19,,,,,,,,,,,,,,,,,,,,,,,,,,,,,,,,,,,,,,,,,,,,620.5503,623.434,slightly disagree,0,18,18,18,1,I can pick up quickly if someone says one thing but means another.,1,0,1,0,,
,,,,,,,,,,,click here to respond,click here to respond,click here to respond,2025-07-24_08h58.07.605,empathy_intonation_perc_control,2024.2.4,Win32,60.24096386,5e8bbb3680cbf20986c677e1,68817205a84113384fffdfe3,68822cc434949da7d3ed0421,,,,,,,,,,,,,,,,,,,,,,,,,,,20,,,,,,,,,,,,,,,,,,,,,,,,,,,,,,,,,,,,,,,,,,,,623.4366,627.6472,slightly agree,0,19,19,19,1,I tend to have very strong opinions about morality.,0,1,0,0,,
,,,,,,,,,,,click here to respond,click here to respond,click here to respond,2025-07-24_08h58.07.605,empathy_intonation_perc_control,2024.2.4,Win32,60.24096386,5e8bbb3680cbf20986c677e1,68817205a84113384fffdfe3,68822cc434949da7d3ed0421,,,,,,,,,,,,,,,,,,,,,,,,,,,21,,,,,,,,,,,,,,,,,,,,,,,,,,,,,,,,,,,,,,,,,,,,627.6495,632.5317,slightly agree,0,20,20,20,1,It is hard for me to see why some things upset people so much.,1,0,0,1,,
,,,,,,,,,,,click here to respond,click here to respond,click here to respond,2025-07-24_08h58.07.605,empathy_intonation_perc_control,2024.2.4,Win32,60.24096386,5e8bbb3680cbf20986c677e1,68817205a84113384fffdfe3,68822cc434949da7d3ed0421,,,,,,,,,,,,,,,,,,,,,,,,,,,22,,,,,,,,,,,,,,,,,,,,,,,,,,,,,,,,,,,,,,,,,,,,632.5342,641.9145,slightly disagree,0,21,21,21,1,I find it easy to put myself in somebody else's shoes.,1,0,1,0,,
,,,,,,,,,,,click here to respond,click here to respond,click here to respond,2025-07-24_08h58.07.605,empathy_intonation_perc_control,2024.2.4,Win32,60.24096386,5e8bbb3680cbf20986c677e1,68817205a84113384fffdfe3,68822cc434949da7d3ed0421,,,,,,,,,,,,,,,,,,,,,,,,,,,23,,,,,,,,,,,,,,,,,,,,,,,,,,,,,,,,,,,,,,,,,,,,641.917,646.1471,slightly disagree,0,22,22,22,1,I think that good manners are the most important thing a parent can teach their child.,0,1,0,0,,
,,,,,,,,,,,click here to respond,click here to respond,click here to respond,2025-07-24_08h58.07.605,empathy_intonation_perc_control,2024.2.4,Win32,60.24096386,5e8bbb3680cbf20986c677e1,68817205a84113384fffdfe3,68822cc434949da7d3ed0421,,,,,,,,,,,,,,,,,,,,,,,,,,,24,,,,,,,,,,,,,,,,,,,,,,,,,,,,,,,,,,,,,,,,,,,,646.1501,648.6981,slightly agree,0,23,23,23,1,I like to do things on the spur of the moment.,0,1,0,0,,
,,,,,,,,,,,click here to respond,click here to respond,click here to respond,2025-07-24_08h58.07.605,empathy_intonation_perc_control,2024.2.4,Win32,60.24096386,5e8bbb3680cbf20986c677e1,68817205a84113384fffdfe3,68822cc434949da7d3ed0421,,,,,,,,,,,,,,,,,,,,,,,,,,,25,,,,,,,,,,,,,,,,,,,,,,,,,,,,,,,,,,,,,,,,,,,,648.701,651.199,slightly disagree,0,24,24,24,1,I am good at predicting how someone will feel.,1,0,1,0,,
,,,,,,,,,,,click here to respond,click here to respond,click here to respond,2025-07-24_08h58.07.605,empathy_intonation_perc_control,2024.2.4,Win32,60.24096386,5e8bbb3680cbf20986c677e1,68817205a84113384fffdfe3,68822cc434949da7d3ed0421,,,,,,,,,,,,,,,,,,,,,,,,,,,26,,,,,,,,,,,,,,,,,,,,,,,,,,,,,,,,,,,,,,,,,,,,651.202,654.0891,slightly agree,0,25,25,25,1,I am quick to spot when someone in a group is feeling awkward or uncomfortable.,1,0,1,0,,
,,,,,,,,,,,click here to respond,click here to respond,click here to respond,2025-07-24_08h58.07.605,empathy_intonation_perc_control,2024.2.4,Win32,60.24096386,5e8bbb3680cbf20986c677e1,68817205a84113384fffdfe3,68822cc434949da7d3ed0421,,,,,,,,,,,,,,,,,,,,,,,,,,,27,,,,,,,,,,,,,,,,,,,,,,,,,,,,,,,,,,,,,,,,,,,,654.0921,659.7965,slightly agree,0,26,26,26,1,"If I say something that someone else is offended by, I think that that's their problem, not mine.",1,0,0,1,,
,,,,,,,,,,,click here to respond,click here to respond,click here to respond,2025-07-24_08h58.07.605,empathy_intonation_perc_control,2024.2.4,Win32,60.24096386,5e8bbb3680cbf20986c677e1,68817205a84113384fffdfe3,68822cc434949da7d3ed0421,,,,,,,,,,,,,,,,,,,,,,,,,,,28,,,,,,,,,,,,,,,,,,,,,,,,,,,,,,,,,,,,,,,,,,,,659.7988,677.8297,strongly disagree,0,27,27,27,1,"If anyone asked me if I liked their haircut, I would reply truthfully, even if I didn't like it.",1,0,0,1,,
,,,,,,,,,,,click here to respond,click here to respond,click here to respond,2025-07-24_08h58.07.605,empathy_intonation_perc_control,2024.2.4,Win32,60.24096386,5e8bbb3680cbf20986c677e1,68817205a84113384fffdfe3,68822cc434949da7d3ed0421,,,,,,,,,,,,,,,,,,,,,,,,,,,29,,,,,,,,,,,,,,,,,,,,,,,,,,,,,,,,,,,,,,,,,,,,677.8332,688.2801,slightly agree,0,28,28,28,1,I can't always see why someone should have felt offended by a remark.,1,0,0,1,,
,,,,,,,,,,,click here to respond,click here to respond,click here to respond,2025-07-24_08h58.07.605,empathy_intonation_perc_control,2024.2.4,Win32,60.24096386,5e8bbb3680cbf20986c677e1,68817205a84113384fffdfe3,68822cc434949da7d3ed0421,,,,,,,,,,,,,,,,,,,,,,,,,,,30,,,,,,,,,,,,,,,,,,,,,,,,,,,,,,,,,,,,,,,,,,,,688.2839,696.1632,slightly disagree,0,29,29,29,1,People often tell me that I am very unpredictable.,0,1,0,0,,
