instructions_exposure.started,instructions_exposure.stopped,instructions_exposure_loop.thisRepN,instructions_exposure_loop.thisTrialN,instructions_exposure_loop.thisN,instructions_exposure_loop.thisIndex,instructions_exposure_loop.ran,instructions_text,continue_text,participant_id,"What variety of Spanish are you most familiar with? (e.g., Peruvian, Spanish, Mexican)",At what age did you begin learning Spanish?,Are you proficient in any languages other than English/Spanish?,"Are you familiar with Caribbean (e.g., Caribbean, Puerto Rican) or Galician Spanish?",date,expName,psychopyVersion,OS,frameRate,id,study_id,session,trial_exposure.started,trial_exposure.stopped,key_resp_exposure.keys,key_resp_exposure.corr,key_resp_exposure.rt,key_resp_exposure.duration,key_resp.keys,exposure_loop.thisRepN,exposure_loop.thisTrialN,exposure_loop.thisN,exposure_loop.thisIndex,exposure_loop.ran,item_num,correct_response,question,path,duration,instructions_2afc.started,instructions_2afc.stopped,instructions_2afc_loop.thisRepN,instructions_2afc_loop.thisTrialN,instructions_2afc_loop.thisN,instructions_2afc_loop.thisIndex,instructions_2afc_loop.ran,practice_2afc.started,practice_2afc.stopped,key_resp_2afc_practice.keys,key_resp_2afc_practice.corr,key_resp_2afc_practice.rt,key_resp_2afc_practice.duration,trials_2afc_practice_loop.thisRepN,trials_2afc_practice_loop.thisTrialN,trials_2afc_practice_loop.thisN,trials_2afc_practice_loop.thisIndex,trials_2afc_practice_loop.ran,check_2afc.started,check_2afc.stopped,trial_2afc.started,trial_2afc.stopped,key_resp_2afc_trial.keys,key_resp_2afc_trial.corr,key_resp_2afc_trial.rt,key_resp_2afc_trial.duration,trials_2afc_loop.thisRepN,trials_2afc_loop.thisTrialN,trials_2afc_loop.thisN,trials_2afc_loop.thisIndex,trials_2afc_loop.ran,target,variety,instructions_lextale.started,instructions_lextale.stopped,instructions_lextale_loop.thisRepN,instructions_lextale_loop.thisTrialN,instructions_lextale_loop.thisN,instructions_lextale_loop.thisIndex,instructions_lextale_loop.ran,practice_lextale.started,practice_lextale.stopped,key_resp_lextale_practice.keys,key_resp_lextale_practice.corr,key_resp_lextale_practice.rt,key_resp_lextale_practice.duration,practice_feedback_lextale.started,practice_feedback_lextale.stopped,trials_lextale_practice_loop.thisRepN,trials_lextale_practice_loop.thisTrialN,trials_lextale_practice_loop.thisN,trials_lextale_practice_loop.thisIndex,trials_lextale_practice_loop.ran,stim,word,prac_button_real,prac_button_false,check_lextale.started,check_lextale.stopped,trial_lextale.started,trial_lextale.stopped,key_resp_lextale_trial.keys,key_resp_lextale_trial.corr,key_resp_lextale_trial.rt,key_resp_lextale_trial.duration,trials_lextale_loop.thisRepN,trials_lextale_loop.thisTrialN,trials_lextale_loop.thisN,trials_lextale_loop.thisIndex,trials_lextale_loop.ran,button_real,button_false,instructions_eq.started,instructions_eq.stopped,trial_eq.started,trial_eq.stopped,slider_eq_trial.response,trials_eq_loop.thisRepN,trials_eq_loop.thisTrialN,trials_eq_loop.thisN,trials_eq_loop.thisIndex,trials_eq_loop.ran,item,is_test_item,is_distractor,is_agree_score,is_disagree_score,end_exp.started,end_exp.stopped
0.008,2.686,0,0,0,0,1,"In the following task, you are going to hear a series of conversations.", (press the space bar to continue),55885869fdf99b4020ba0b64,Mexican,13 or older,"no, only English or Spanish",no,2025-07-23_08h17.19.817,empathy_intonation_perc,2024.2.4,Win32,120.1923077,55885869fdf99b4020ba0b64,687ed1b7e638a4cbf2f02089,6880d2adf6b204a7ade82806,,,,,,,,,,,,,,,,,,,,,,,,,,,,,,,,,,,,,,,,,,,,,,,,,,,,,,,,,,,,,,,,,,,,,,,,,,,,,,,,,,,,,,,,,,,,,,,,,,,,,,,,,,
2.687,4.516,0,1,1,1,1,It is okay if you don't not 100% understand them!, (press the space bar to continue),55885869fdf99b4020ba0b64,Mexican,13 or older,"no, only English or Spanish",no,2025-07-23_08h17.19.817,empathy_intonation_perc,2024.2.4,Win32,120.1923077,55885869fdf99b4020ba0b64,687ed1b7e638a4cbf2f02089,6880d2adf6b204a7ade82806,,,,,,,,,,,,,,,,,,,,,,,,,,,,,,,,,,,,,,,,,,,,,,,,,,,,,,,,,,,,,,,,,,,,,,,,,,,,,,,,,,,,,,,,,,,,,,,,,,,,,,,,,,
4.518,6.812,0,2,2,2,1,"After, you will read a sentence about the conversation and decide if it's true or false.", (press the space bar to continue),55885869fdf99b4020ba0b64,Mexican,13 or older,"no, only English or Spanish",no,2025-07-23_08h17.19.817,empathy_intonation_perc,2024.2.4,Win32,120.1923077,55885869fdf99b4020ba0b64,687ed1b7e638a4cbf2f02089,6880d2adf6b204a7ade82806,,,,,,,,,,,,,,,,,,,,,,,,,,,,,,,,,,,,,,,,,,,,,,,,,,,,,,,,,,,,,,,,,,,,,,,,,,,,,,,,,,,,,,,,,,,,,,,,,,,,,,,,,,
6.813,8.991,0,3,3,3,1,"If it's true, press '1' (True) and if it's false press '0' (False).", (press the space bar to continue),55885869fdf99b4020ba0b64,Mexican,13 or older,"no, only English or Spanish",no,2025-07-23_08h17.19.817,empathy_intonation_perc,2024.2.4,Win32,120.1923077,55885869fdf99b4020ba0b64,687ed1b7e638a4cbf2f02089,6880d2adf6b204a7ade82806,,,,,,,,,,,,,,,,,,,,,,,,,,,,,,,,,,,,,,,,,,,,,,,,,,,,,,,,,,,,,,,,,,,,,,,,,,,,,,,,,,,,,,,,,,,,,,,,,,,,,,,,,,
,,,,,,,,,55885869fdf99b4020ba0b64,Mexican,13 or older,"no, only English or Spanish",no,2025-07-23_08h17.19.817,empathy_intonation_perc,2024.2.4,Win32,120.1923077,55885869fdf99b4020ba0b64,687ed1b7e638a4cbf2f02089,6880d2adf6b204a7ade82806,8.996,60.268,1,1,4.198,,,0,0,0,0,1,1,1,The son asked the mom if Aunt Marina is okay.,./stim/exposure_wavs/ga_stimuli_convo.wav,47,,,,,,,,,,,,,,,,,,,,,,,,,,,,,,,,,,,,,,,,,,,,,,,,,,,,,,,,,,,,,,,,,,,,,,,,,,,,,,,,,,,,,,,,,
,,,,,,,,,55885869fdf99b4020ba0b64,Mexican,13 or older,"no, only English or Spanish",no,2025-07-23_08h17.19.817,empathy_intonation_perc,2024.2.4,Win32,120.1923077,55885869fdf99b4020ba0b64,687ed1b7e638a4cbf2f02089,6880d2adf6b204a7ade82806,60.269,99.348,0,1,3.047,0.001,,0,1,1,2,1,3,0,The mom already has rice.,./stim/exposure_wavs/pr_stimuli_convo.wav,36,,,,,,,,,,,,,,,,,,,,,,,,,,,,,,,,,,,,,,,,,,,,,,,,,,,,,,,,,,,,,,,,,,,,,,,,,,,,,,,,,,,,,,,,,
,,,,,,,,,55885869fdf99b4020ba0b64,Mexican,13 or older,"no, only English or Spanish",no,2025-07-23_08h17.19.817,empathy_intonation_perc,2024.2.4,Win32,120.1923077,55885869fdf99b4020ba0b64,687ed1b7e638a4cbf2f02089,6880d2adf6b204a7ade82806,99.351,164.4,0,0,5.007,,,0,2,2,1,1,2,1,The mom asked the daughter if she already went to the supermarket.,./stim/exposure_wavs/dr_stimuli_convo.wav,60,,,,,,,,,,,,,,,,,,,,,,,,,,,,,,,,,,,,,,,,,,,,,,,,,,,,,,,,,,,,,,,,,,,,,,,,,,,,,,,,,,,,,,,,,
,,,,,,,"In the following task you are going to hear a series of utterances. 

  You will decide if the utterances sound like questions or not using your keyboard.", (press the spacebar to continue),55885869fdf99b4020ba0b64,Mexican,13 or older,"no, only English or Spanish",no,2025-07-23_08h17.19.817,empathy_intonation_perc,2024.2.4,Win32,120.1923077,55885869fdf99b4020ba0b64,687ed1b7e638a4cbf2f02089,6880d2adf6b204a7ade82806,,,,,,,,,,,,,,,,,,164.408,167.652,0,0,0,0,1,,,,,,,,,,,,,,,,,,,,,,,,,,,,,,,,,,,,,,,,,,,,,,,,,,,,,,,,,,,,,,,,,,,,,,,,,,,,,,,,,,
,,,,,,,"If you believe the utterance is a question, type '1' (for 'yes') and if you do not 
  believe it is a question type '0' (for 'no').

  Let's practice a bit...", (press the spacebar to continue),55885869fdf99b4020ba0b64,Mexican,13 or older,"no, only English or Spanish",no,2025-07-23_08h17.19.817,empathy_intonation_perc,2024.2.4,Win32,120.1923077,55885869fdf99b4020ba0b64,687ed1b7e638a4cbf2f02089,6880d2adf6b204a7ade82806,,,,,,,,,,,,,,,,,,167.654,171.603,0,1,1,1,1,,,,,,,,,,,,,,,,,,,,,,,,,,,,,,,,,,,,,,,,,,,,,,,,,,,,,,,,,,,,,,,,,,,,,,,,,,,,,,,,,,
,,,,,,,,,55885869fdf99b4020ba0b64,Mexican,13 or older,"no, only English or Spanish",no,2025-07-23_08h17.19.817,empathy_intonation_perc,2024.2.4,Win32,120.1923077,55885869fdf99b4020ba0b64,687ed1b7e638a4cbf2f02089,6880d2adf6b204a7ade82806,,,,,,,,,,,,,,1,,./stim/wavs/argentine_question_filler_Mi-vecino-habla-mucho.wav,,,,,,,,,171.608,175.422,1,1,3.306,,0,0,0,1,1,,,,,,,,,,,,,,,,,,,,,,,,,,,,,,,,,,,,,,,,,,,,,,,,,,,,,,,,,,,,,,,,,,,,,,,
,,,,,,,,,55885869fdf99b4020ba0b64,Mexican,13 or older,"no, only English or Spanish",no,2025-07-23_08h17.19.817,empathy_intonation_perc,2024.2.4,Win32,120.1923077,55885869fdf99b4020ba0b64,687ed1b7e638a4cbf2f02089,6880d2adf6b204a7ade82806,,,,,,,,,,,,,,1,,./stim/wavs/mexican_question_filler_Felipe-no-tiene-contrasena.wav,,,,,,,,,175.422,178.466,0,0,2.534,,0,1,1,3,1,,,,,,,,,,,,,,,,,,,,,,,,,,,,,,,,,,,,,,,,,,,,,,,,,,,,,,,,,,,,,,,,,,,,,,,
,,,,,,,,,55885869fdf99b4020ba0b64,Mexican,13 or older,"no, only English or Spanish",no,2025-07-23_08h17.19.817,empathy_intonation_perc,2024.2.4,Win32,120.1923077,55885869fdf99b4020ba0b64,687ed1b7e638a4cbf2f02089,6880d2adf6b204a7ade82806,,,,,,,,,,,,,,0,,./stim/wavs/peruvian_statement_filler_El-nino-habla-con-su-madre.wav,,,,,,,,,178.466,181.627,0,1,2.651,,0,2,2,6,1,,,,,,,,,,,,,,,,,,,,,,,,,,,,,,,,,,,,,,,,,,,,,,,,,,,,,,,,,,,,,,,,,,,,,,,
,,,,,,,,,55885869fdf99b4020ba0b64,Mexican,13 or older,"no, only English or Spanish",no,2025-07-23_08h17.19.817,empathy_intonation_perc,2024.2.4,Win32,120.1923077,55885869fdf99b4020ba0b64,687ed1b7e638a4cbf2f02089,6880d2adf6b204a7ade82806,,,,,,,,,,,,,,0,,./stim/wavs/puertorican_statement_filler_La-nina-pinta-con-su-amiga.wav,,,,,,,,,181.627,184.564,0,1,2.424,,0,3,3,7,1,,,,,,,,,,,,,,,,,,,,,,,,,,,,,,,,,,,,,,,,,,,,,,,,,,,,,,,,,,,,,,,,,,,,,,,
,,,,,,,,,55885869fdf99b4020ba0b64,Mexican,13 or older,"no, only English or Spanish",no,2025-07-23_08h17.19.817,empathy_intonation_perc,2024.2.4,Win32,120.1923077,55885869fdf99b4020ba0b64,687ed1b7e638a4cbf2f02089,6880d2adf6b204a7ade82806,,,,,,,,,,,,,,1,,./stim/wavs/chilean_question_filler_Mi-padre-cantaba-bien.wav,,,,,,,,,184.564,186.876,1,1,1.797,,0,4,4,2,1,,,,,,,,,,,,,,,,,,,,,,,,,,,,,,,,,,,,,,,,,,,,,,,,,,,,,,,,,,,,,,,,,,,,,,,
,,,,,,,,,55885869fdf99b4020ba0b64,Mexican,13 or older,"no, only English or Spanish",no,2025-07-23_08h17.19.817,empathy_intonation_perc,2024.2.4,Win32,120.1923077,55885869fdf99b4020ba0b64,687ed1b7e638a4cbf2f02089,6880d2adf6b204a7ade82806,,,,,,,,,,,,,,0,,./stim/wavs/andalusian_statement_filler_Alberto-nunca-se-afeita.wav,,,,,,,,,186.876,189.796,0,1,2.405,,0,5,5,5,1,,,,,,,,,,,,,,,,,,,,,,,,,,,,,,,,,,,,,,,,,,,,,,,,,,,,,,,,,,,,,,,,,,,,,,,
,,,,,,,,,55885869fdf99b4020ba0b64,Mexican,13 or older,"no, only English or Spanish",no,2025-07-23_08h17.19.817,empathy_intonation_perc,2024.2.4,Win32,120.1923077,55885869fdf99b4020ba0b64,687ed1b7e638a4cbf2f02089,6880d2adf6b204a7ade82806,,,,,,,,,,,,,,1,,./stim/wavs/castilian_question_filler_Mi-esposo-conoce-al-chico.wav,,,,,,,,,189.798,192.633,1,1,2.322,,0,6,6,0,1,,,,,,,,,,,,,,,,,,,,,,,,,,,,,,,,,,,,,,,,,,,,,,,,,,,,,,,,,,,,,,,,,,,,,,,
,,,,,,,,,55885869fdf99b4020ba0b64,Mexican,13 or older,"no, only English or Spanish",no,2025-07-23_08h17.19.817,empathy_intonation_perc,2024.2.4,Win32,120.1923077,55885869fdf99b4020ba0b64,687ed1b7e638a4cbf2f02089,6880d2adf6b204a7ade82806,,,,,,,,,,,,,,0,,./stim/wavs/cuban_statement_filler_Cocinabas-por-la-noche.wav,,,,,,,,,192.634,195.228,0,1,2.084,,0,7,7,4,1,,,,,,,,,,,,,,,,,,,,,,,,,,,,,,,,,,,,,,,,,,,,,,,,,,,,,,,,,,,,,,,,,,,,,,,
,,,,,,,,,55885869fdf99b4020ba0b64,Mexican,13 or older,"no, only English or Spanish",no,2025-07-23_08h17.19.817,empathy_intonation_perc,2024.2.4,Win32,120.1923077,55885869fdf99b4020ba0b64,687ed1b7e638a4cbf2f02089,6880d2adf6b204a7ade82806,,,,,,,,,,,,,,,,,,,,,,,,,,,,,,,,,,,,195.228,197.94,,,,,,,,,,,,,,,,,,,,,,,,,,,,,,,,,,,,,,,,,,,,,,,,,,,,,,,,,,,,,,,,,,,,,
,,,,,,,,,55885869fdf99b4020ba0b64,Mexican,13 or older,"no, only English or Spanish",no,2025-07-23_08h17.19.817,empathy_intonation_perc,2024.2.4,Win32,120.1923077,55885869fdf99b4020ba0b64,687ed1b7e638a4cbf2f02089,6880d2adf6b204a7ade82806,,,,,,,,,,,,,8,1,,./stim/wavs/cuban_match_interrogative-total-yn_Daniel-iba-a-Bolivia.wav,,,,,,,,,,,,,,,,,,,,,,197.953,200.335,0,0,1.874,,0,0,0,7,1,1,cuban,,,,,,,,,,,,,,,,,,,,,,,,,,,,,,,,,,,,,,,,,,,,,,,,,,,,,,,,
,,,,,,,,,55885869fdf99b4020ba0b64,Mexican,13 or older,"no, only English or Spanish",no,2025-07-23_08h17.19.817,empathy_intonation_perc,2024.2.4,Win32,120.1923077,55885869fdf99b4020ba0b64,687ed1b7e638a4cbf2f02089,6880d2adf6b204a7ade82806,,,,,,,,,,,,,30,1,,./stim/wavs/cuban_mismatch_interrogative-total-yn_El-hombre-mira-la-luna.wav,,,,,,,,,,,,,,,,,,,,,,200.336,202.599,1,1,1.747,,0,1,1,29,1,1,cuban,,,,,,,,,,,,,,,,,,,,,,,,,,,,,,,,,,,,,,,,,,,,,,,,,,,,,,,,
,,,,,,,,,55885869fdf99b4020ba0b64,Mexican,13 or older,"no, only English or Spanish",no,2025-07-23_08h17.19.817,empathy_intonation_perc,2024.2.4,Win32,120.1923077,55885869fdf99b4020ba0b64,687ed1b7e638a4cbf2f02089,6880d2adf6b204a7ade82806,,,,,,,,,,,,,51,0,,./stim/wavs/cuban_match_declarative-broad-focus_Ana-lleva-el-abrigo.wav,,,,,,,,,,,,,,,,,,,,,,202.599,204.852,1,0,1.741,,0,2,2,50,1,0,cuban,,,,,,,,,,,,,,,,,,,,,,,,,,,,,,,,,,,,,,,,,,,,,,,,,,,,,,,,
,,,,,,,,,55885869fdf99b4020ba0b64,Mexican,13 or older,"no, only English or Spanish",no,2025-07-23_08h17.19.817,empathy_intonation_perc,2024.2.4,Win32,120.1923077,55885869fdf99b4020ba0b64,687ed1b7e638a4cbf2f02089,6880d2adf6b204a7ade82806,,,,,,,,,,,,,45,0,,./stim/wavs/castilian_match_declarative-broad-focus_David-leia-el-libro.wav,,,,,,,,,,,,,,,,,,,,,,204.854,207.339,0,1,1.974,,0,3,3,44,1,0,castilian,,,,,,,,,,,,,,,,,,,,,,,,,,,,,,,,,,,,,,,,,,,,,,,,,,,,,,,,
,,,,,,,,,55885869fdf99b4020ba0b64,Mexican,13 or older,"no, only English or Spanish",no,2025-07-23_08h17.19.817,empathy_intonation_perc,2024.2.4,Win32,120.1923077,55885869fdf99b4020ba0b64,687ed1b7e638a4cbf2f02089,6880d2adf6b204a7ade82806,,,,,,,,,,,,,29,1,,./stim/wavs/castilian_mismatch_interrogative-total-yn_Mi-tia-odia-la-lluvia.wav,,,,,,,,,,,,,,,,,,,,,,207.34,209.703,1,1,1.85,,0,4,4,28,1,0,castilian,,,,,,,,,,,,,,,,,,,,,,,,,,,,,,,,,,,,,,,,,,,,,,,,,,,,,,,,
,,,,,,,,,55885869fdf99b4020ba0b64,Mexican,13 or older,"no, only English or Spanish",no,2025-07-23_08h17.19.817,empathy_intonation_perc,2024.2.4,Win32,120.1923077,55885869fdf99b4020ba0b64,687ed1b7e638a4cbf2f02089,6880d2adf6b204a7ade82806,,,,,,,,,,,,,56,0,,./stim/wavs/cuban_match_declarative-broad-focus_Marta-abre-el-regalo.wav,,,,,,,,,,,,,,,,,,,,,,209.703,212.123,0,1,1.906,,0,5,5,55,1,0,cuban,,,,,,,,,,,,,,,,,,,,,,,,,,,,,,,,,,,,,,,,,,,,,,,,,,,,,,,,
,,,,,,,,,55885869fdf99b4020ba0b64,Mexican,13 or older,"no, only English or Spanish",no,2025-07-23_08h17.19.817,empathy_intonation_perc,2024.2.4,Win32,120.1923077,55885869fdf99b4020ba0b64,687ed1b7e638a4cbf2f02089,6880d2adf6b204a7ade82806,,,,,,,,,,,,,13,1,,./stim/wavs/mexican_match_interrogative-total-yn_Ana-lleva-el-abrigo.wav,,,,,,,,,,,,,,,,,,,,,,212.124,214.278,1,1,1.639,,0,6,6,12,1,0,mexican,,,,,,,,,,,,,,,,,,,,,,,,,,,,,,,,,,,,,,,,,,,,,,,,,,,,,,,,
,,,,,,,,,55885869fdf99b4020ba0b64,Mexican,13 or older,"no, only English or Spanish",no,2025-07-23_08h17.19.817,empathy_intonation_perc,2024.2.4,Win32,120.1923077,55885869fdf99b4020ba0b64,687ed1b7e638a4cbf2f02089,6880d2adf6b204a7ade82806,,,,,,,,,,,,,37,1,,./stim/wavs/mexican_mismatch_interrogative-total-yn_La-maestra-vive-en-Paris.wav,,,,,,,,,,,,,,,,,,,,,,214.278,216.64,1,1,1.851,,0,7,7,36,1,0,mexican,,,,,,,,,,,,,,,,,,,,,,,,,,,,,,,,,,,,,,,,,,,,,,,,,,,,,,,,
,,,,,,,,,55885869fdf99b4020ba0b64,Mexican,13 or older,"no, only English or Spanish",no,2025-07-23_08h17.19.817,empathy_intonation_perc,2024.2.4,Win32,120.1923077,55885869fdf99b4020ba0b64,687ed1b7e638a4cbf2f02089,6880d2adf6b204a7ade82806,,,,,,,,,,,,,14,1,,./stim/wavs/mexican_match_interrogative-total-yn_Daniel-iba-a-Bolivia.wav,,,,,,,,,,,,,,,,,,,,,,216.64,218.944,1,1,1.79,,0,8,8,13,1,0,mexican,,,,,,,,,,,,,,,,,,,,,,,,,,,,,,,,,,,,,,,,,,,,,,,,,,,,,,,,
,,,,,,,,,55885869fdf99b4020ba0b64,Mexican,13 or older,"no, only English or Spanish",no,2025-07-23_08h17.19.817,empathy_intonation_perc,2024.2.4,Win32,120.1923077,55885869fdf99b4020ba0b64,687ed1b7e638a4cbf2f02089,6880d2adf6b204a7ade82806,,,,,,,,,,,,,60,0,,./stim/wavs/mexican_match_declarative-broad-focus_Emilio-ama-la-marcha.wav,,,,,,,,,,,,,,,,,,,,,,218.944,221.407,0,1,1.951,,0,9,9,59,1,0,mexican,,,,,,,,,,,,,,,,,,,,,,,,,,,,,,,,,,,,,,,,,,,,,,,,,,,,,,,,
,,,,,,,,,55885869fdf99b4020ba0b64,Mexican,13 or older,"no, only English or Spanish",no,2025-07-23_08h17.19.817,empathy_intonation_perc,2024.2.4,Win32,120.1923077,55885869fdf99b4020ba0b64,687ed1b7e638a4cbf2f02089,6880d2adf6b204a7ade82806,,,,,,,,,,,,,67,0,,./stim/wavs/puertorican_match_declarative-broad-focus_Manuela-vende-el-carro.wav,,,,,,,,,,,,,,,,,,,,,,221.407,223.869,0,1,1.946,,0,10,10,66,1,0,puertorican,,,,,,,,,,,,,,,,,,,,,,,,,,,,,,,,,,,,,,,,,,,,,,,,,,,,,,,,
,,,,,,,,,55885869fdf99b4020ba0b64,Mexican,13 or older,"no, only English or Spanish",no,2025-07-23_08h17.19.817,empathy_intonation_perc,2024.2.4,Win32,120.1923077,55885869fdf99b4020ba0b64,687ed1b7e638a4cbf2f02089,6880d2adf6b204a7ade82806,,,,,,,,,,,,,25,1,,./stim/wavs/castilian_mismatch_interrogative-total-yn_La-maestra-vive-en-Paris.wav,,,,,,,,,,,,,,,,,,,,,,223.871,226.432,1,1,2.046,,0,11,11,24,1,0,castilian,,,,,,,,,,,,,,,,,,,,,,,,,,,,,,,,,,,,,,,,,,,,,,,,,,,,,,,,
,,,,,,,,,55885869fdf99b4020ba0b64,Mexican,13 or older,"no, only English or Spanish",no,2025-07-23_08h17.19.817,empathy_intonation_perc,2024.2.4,Win32,120.1923077,55885869fdf99b4020ba0b64,687ed1b7e638a4cbf2f02089,6880d2adf6b204a7ade82806,,,,,,,,,,,,,80,0,,./stim/wavs/mexican_mismatch_declarative-broad-focus_El-hombre-mira-la-luna.wav,,,,,,,,,,,,,,,,,,,,,,226.432,228.852,0,1,1.91,,0,12,12,79,1,0,mexican,,,,,,,,,,,,,,,,,,,,,,,,,,,,,,,,,,,,,,,,,,,,,,,,,,,,,,,,
,,,,,,,,,55885869fdf99b4020ba0b64,Mexican,13 or older,"no, only English or Spanish",no,2025-07-23_08h17.19.817,empathy_intonation_perc,2024.2.4,Win32,120.1923077,55885869fdf99b4020ba0b64,687ed1b7e638a4cbf2f02089,6880d2adf6b204a7ade82806,,,,,,,,,,,,,88,0,,./stim/wavs/puertorican_mismatch_declarative-broad-focus_La-nina-lava-el-plato.wav,,,,,,,,,,,,,,,,,,,,,,228.852,231.522,0,1,2.154,,0,13,13,87,1,0,puertorican,,,,,,,,,,,,,,,,,,,,,,,,,,,,,,,,,,,,,,,,,,,,,,,,,,,,,,,,
,,,,,,,,,55885869fdf99b4020ba0b64,Mexican,13 or older,"no, only English or Spanish",no,2025-07-23_08h17.19.817,empathy_intonation_perc,2024.2.4,Win32,120.1923077,55885869fdf99b4020ba0b64,687ed1b7e638a4cbf2f02089,6880d2adf6b204a7ade82806,,,,,,,,,,,,,28,1,,./stim/wavs/castilian_mismatch_interrogative-total-yn_Mi-novio-viene-del-lago.wav,,,,,,,,,,,,,,,,,,,,,,231.523,234.267,1,1,2.229,,0,14,14,27,1,0,castilian,,,,,,,,,,,,,,,,,,,,,,,,,,,,,,,,,,,,,,,,,,,,,,,,,,,,,,,,
,,,,,,,,,55885869fdf99b4020ba0b64,Mexican,13 or older,"no, only English or Spanish",no,2025-07-23_08h17.19.817,empathy_intonation_perc,2024.2.4,Win32,120.1923077,55885869fdf99b4020ba0b64,687ed1b7e638a4cbf2f02089,6880d2adf6b204a7ade82806,,,,,,,,,,,,,52,0,,./stim/wavs/cuban_match_declarative-broad-focus_Daniel-iba-a-Bolivia.wav,,,,,,,,,,,,,,,,,,,,,,234.268,236.829,1,0,2.051,,0,15,15,51,1,0,cuban,,,,,,,,,,,,,,,,,,,,,,,,,,,,,,,,,,,,,,,,,,,,,,,,,,,,,,,,
,,,,,,,,,55885869fdf99b4020ba0b64,Mexican,13 or older,"no, only English or Spanish",no,2025-07-23_08h17.19.817,empathy_intonation_perc,2024.2.4,Win32,120.1923077,55885869fdf99b4020ba0b64,687ed1b7e638a4cbf2f02089,6880d2adf6b204a7ade82806,,,,,,,,,,,,,35,1,,./stim/wavs/mexican_mismatch_interrogative-total-yn_El-hombre-mira-la-luna.wav,,,,,,,,,,,,,,,,,,,,,,236.83,239.076,1,1,1.731,,0,16,16,34,1,0,mexican,,,,,,,,,,,,,,,,,,,,,,,,,,,,,,,,,,,,,,,,,,,,,,,,,,,,,,,,
,,,,,,,,,55885869fdf99b4020ba0b64,Mexican,13 or older,"no, only English or Spanish",no,2025-07-23_08h17.19.817,empathy_intonation_perc,2024.2.4,Win32,120.1923077,55885869fdf99b4020ba0b64,687ed1b7e638a4cbf2f02089,6880d2adf6b204a7ade82806,,,,,,,,,,,,,46,0,,./stim/wavs/castilian_match_declarative-broad-focus_Emilio-ama-la-marcha.wav,,,,,,,,,,,,,,,,,,,,,,239.076,241.654,0,1,2.063,,0,17,17,45,1,0,castilian,,,,,,,,,,,,,,,,,,,,,,,,,,,,,,,,,,,,,,,,,,,,,,,,,,,,,,,,
,,,,,,,,,55885869fdf99b4020ba0b64,Mexican,13 or older,"no, only English or Spanish",no,2025-07-23_08h17.19.817,empathy_intonation_perc,2024.2.4,Win32,120.1923077,55885869fdf99b4020ba0b64,687ed1b7e638a4cbf2f02089,6880d2adf6b204a7ade82806,,,,,,,,,,,,,19,1,,./stim/wavs/puertorican_match_interrogative-total-yn_Ana-lleva-el-abrigo.wav,,,,,,,,,,,,,,,,,,,,,,241.655,243.767,1,1,1.598,,0,18,18,18,1,1,puertorican,,,,,,,,,,,,,,,,,,,,,,,,,,,,,,,,,,,,,,,,,,,,,,,,,,,,,,,,
,,,,,,,,,55885869fdf99b4020ba0b64,Mexican,13 or older,"no, only English or Spanish",no,2025-07-23_08h17.19.817,empathy_intonation_perc,2024.2.4,Win32,120.1923077,55885869fdf99b4020ba0b64,687ed1b7e638a4cbf2f02089,6880d2adf6b204a7ade82806,,,,,,,,,,,,,34,1,,./stim/wavs/cuban_mismatch_interrogative-total-yn_Mi-tia-odia-la-lluvia.wav,,,,,,,,,,,,,,,,,,,,,,243.768,246.046,0,0,1.763,,0,19,19,33,1,1,cuban,,,,,,,,,,,,,,,,,,,,,,,,,,,,,,,,,,,,,,,,,,,,,,,,,,,,,,,,
,,,,,,,,,55885869fdf99b4020ba0b64,Mexican,13 or older,"no, only English or Spanish",no,2025-07-23_08h17.19.817,empathy_intonation_perc,2024.2.4,Win32,120.1923077,55885869fdf99b4020ba0b64,687ed1b7e638a4cbf2f02089,6880d2adf6b204a7ade82806,,,,,,,,,,,,,73,0,,./stim/wavs/castilian_mismatch_declarative-broad-focus_Mi-tia-odia-la-lluvia.wav,,,,,,,,,,,,,,,,,,,,,,246.047,249.274,0,1,2.712,,0,20,20,72,1,0,castilian,,,,,,,,,,,,,,,,,,,,,,,,,,,,,,,,,,,,,,,,,,,,,,,,,,,,,,,,
,,,,,,,,,55885869fdf99b4020ba0b64,Mexican,13 or older,"no, only English or Spanish",no,2025-07-23_08h17.19.817,empathy_intonation_perc,2024.2.4,Win32,120.1923077,55885869fdf99b4020ba0b64,687ed1b7e638a4cbf2f02089,6880d2adf6b204a7ade82806,,,,,,,,,,,,,1,1,,./stim/wavs/castilian_match_interrogative-total-yn_David-leia-el-libro.wav,,,,,,,,,,,,,,,,,,,,,,249.274,252.028,1,1,2.242,,0,21,21,0,1,0,castilian,,,,,,,,,,,,,,,,,,,,,,,,,,,,,,,,,,,,,,,,,,,,,,,,,,,,,,,,
,,,,,,,,,55885869fdf99b4020ba0b64,Mexican,13 or older,"no, only English or Spanish",no,2025-07-23_08h17.19.817,empathy_intonation_perc,2024.2.4,Win32,120.1923077,55885869fdf99b4020ba0b64,687ed1b7e638a4cbf2f02089,6880d2adf6b204a7ade82806,,,,,,,,,,,,,63,0,,./stim/wavs/puertorican_match_declarative-broad-focus_Ana-lleva-el-abrigo.wav,,,,,,,,,,,,,,,,,,,,,,252.028,254.206,0,1,1.668,,0,22,22,62,1,0,puertorican,,,,,,,,,,,,,,,,,,,,,,,,,,,,,,,,,,,,,,,,,,,,,,,,,,,,,,,,
,,,,,,,,,55885869fdf99b4020ba0b64,Mexican,13 or older,"no, only English or Spanish",no,2025-07-23_08h17.19.817,empathy_intonation_perc,2024.2.4,Win32,120.1923077,55885869fdf99b4020ba0b64,687ed1b7e638a4cbf2f02089,6880d2adf6b204a7ade82806,,,,,,,,,,,,,11,1,,./stim/wavs/cuban_match_interrogative-total-yn_Mariano-habla-del-tiempo.wav,,,,,,,,,,,,,,,,,,,,,,254.207,257.102,0,0,2.385,,0,23,23,10,1,1,cuban,,,,,,,,,,,,,,,,,,,,,,,,,,,,,,,,,,,,,,,,,,,,,,,,,,,,,,,,
,,,,,,,,,55885869fdf99b4020ba0b64,Mexican,13 or older,"no, only English or Spanish",no,2025-07-23_08h17.19.817,empathy_intonation_perc,2024.2.4,Win32,120.1923077,55885869fdf99b4020ba0b64,687ed1b7e638a4cbf2f02089,6880d2adf6b204a7ade82806,,,,,,,,,,,,,33,1,,./stim/wavs/cuban_mismatch_interrogative-total-yn_Mi-novio-viene-del-lago.wav,,,,,,,,,,,,,,,,,,,,,,257.103,259.656,0,0,2.041,,0,24,24,32,1,1,cuban,,,,,,,,,,,,,,,,,,,,,,,,,,,,,,,,,,,,,,,,,,,,,,,,,,,,,,,,
,,,,,,,,,55885869fdf99b4020ba0b64,Mexican,13 or older,"no, only English or Spanish",no,2025-07-23_08h17.19.817,empathy_intonation_perc,2024.2.4,Win32,120.1923077,55885869fdf99b4020ba0b64,687ed1b7e638a4cbf2f02089,6880d2adf6b204a7ade82806,,,,,,,,,,,,,55,0,,./stim/wavs/cuban_match_declarative-broad-focus_Mariano-habla-del-tiempo.wav,,,,,,,,,,,,,,,,,,,,,,259.656,262.35,0,1,2.179,,0,25,25,54,1,0,cuban,,,,,,,,,,,,,,,,,,,,,,,,,,,,,,,,,,,,,,,,,,,,,,,,,,,,,,,,
,,,,,,,,,55885869fdf99b4020ba0b64,Mexican,13 or older,"no, only English or Spanish",no,2025-07-23_08h17.19.817,empathy_intonation_perc,2024.2.4,Win32,120.1923077,55885869fdf99b4020ba0b64,687ed1b7e638a4cbf2f02089,6880d2adf6b204a7ade82806,,,,,,,,,,,,,70,0,,./stim/wavs/castilian_mismatch_declarative-broad-focus_La-maestra-vive-en-Paris.wav,,,,,,,,,,,,,,,,,,,,,,262.352,265.088,1,0,2.224,,0,26,26,69,1,0,castilian,,,,,,,,,,,,,,,,,,,,,,,,,,,,,,,,,,,,,,,,,,,,,,,,,,,,,,,,
,,,,,,,,,55885869fdf99b4020ba0b64,Mexican,13 or older,"no, only English or Spanish",no,2025-07-23_08h17.19.817,empathy_intonation_perc,2024.2.4,Win32,120.1923077,55885869fdf99b4020ba0b64,687ed1b7e638a4cbf2f02089,6880d2adf6b204a7ade82806,,,,,,,,,,,,,4,1,,./stim/wavs/castilian_match_interrogative-total-yn_Maria-bebe-el-vino.wav,,,,,,,,,,,,,,,,,,,,,,265.088,267.242,1,1,1.64,,0,27,27,3,1,0,castilian,,,,,,,,,,,,,,,,,,,,,,,,,,,,,,,,,,,,,,,,,,,,,,,,,,,,,,,,
,,,,,,,,,55885869fdf99b4020ba0b64,Mexican,13 or older,"no, only English or Spanish",no,2025-07-23_08h17.19.817,empathy_intonation_perc,2024.2.4,Win32,120.1923077,55885869fdf99b4020ba0b64,687ed1b7e638a4cbf2f02089,6880d2adf6b204a7ade82806,,,,,,,,,,,,,17,1,,./stim/wavs/mexican_match_interrogative-total-yn_Mariano-habla-del-tiempo.wav,,,,,,,,,,,,,,,,,,,,,,267.242,270.286,1,1,2.53,,0,28,28,16,1,0,mexican,,,,,,,,,,,,,,,,,,,,,,,,,,,,,,,,,,,,,,,,,,,,,,,,,,,,,,,,
,,,,,,,,,55885869fdf99b4020ba0b64,Mexican,13 or older,"no, only English or Spanish",no,2025-07-23_08h17.19.817,empathy_intonation_perc,2024.2.4,Win32,120.1923077,55885869fdf99b4020ba0b64,687ed1b7e638a4cbf2f02089,6880d2adf6b204a7ade82806,,,,,,,,,,,,,78,0,,./stim/wavs/cuban_mismatch_declarative-broad-focus_Mi-tia-odia-la-lluvia.wav,,,,,,,,,,,,,,,,,,,,,,270.287,272.807,0,1,2.007,,0,29,29,77,1,0,cuban,,,,,,,,,,,,,,,,,,,,,,,,,,,,,,,,,,,,,,,,,,,,,,,,,,,,,,,,
,,,,,,,,,55885869fdf99b4020ba0b64,Mexican,13 or older,"no, only English or Spanish",no,2025-07-23_08h17.19.817,empathy_intonation_perc,2024.2.4,Win32,120.1923077,55885869fdf99b4020ba0b64,687ed1b7e638a4cbf2f02089,6880d2adf6b204a7ade82806,,,,,,,,,,,,,71,0,,./stim/wavs/castilian_mismatch_declarative-broad-focus_La-nina-lava-el-plato.wav,,,,,,,,,,,,,,,,,,,,,,272.808,275.735,0,1,2.417,,0,30,30,70,1,0,castilian,,,,,,,,,,,,,,,,,,,,,,,,,,,,,,,,,,,,,,,,,,,,,,,,,,,,,,,,
,,,,,,,,,55885869fdf99b4020ba0b64,Mexican,13 or older,"no, only English or Spanish",no,2025-07-23_08h17.19.817,empathy_intonation_perc,2024.2.4,Win32,120.1923077,55885869fdf99b4020ba0b64,687ed1b7e638a4cbf2f02089,6880d2adf6b204a7ade82806,,,,,,,,,,,,,79,0,,./stim/wavs/mexican_mismatch_declarative-broad-focus_El-bebe-comia-muy-bien.wav,,,,,,,,,,,,,,,,,,,,,,275.735,277.998,1,0,1.751,,0,31,31,78,1,0,mexican,,,,,,,,,,,,,,,,,,,,,,,,,,,,,,,,,,,,,,,,,,,,,,,,,,,,,,,,
,,,,,,,,,55885869fdf99b4020ba0b64,Mexican,13 or older,"no, only English or Spanish",no,2025-07-23_08h17.19.817,empathy_intonation_perc,2024.2.4,Win32,120.1923077,55885869fdf99b4020ba0b64,687ed1b7e638a4cbf2f02089,6880d2adf6b204a7ade82806,,,,,,,,,,,,,38,1,,./stim/wavs/mexican_mismatch_interrogative-total-yn_Mi-novio-viene-del-lago.wav,,,,,,,,,,,,,,,,,,,,,,277.999,280.468,1,1,1.955,,0,32,32,37,1,0,mexican,,,,,,,,,,,,,,,,,,,,,,,,,,,,,,,,,,,,,,,,,,,,,,,,,,,,,,,,
,,,,,,,,,55885869fdf99b4020ba0b64,Mexican,13 or older,"no, only English or Spanish",no,2025-07-23_08h17.19.817,empathy_intonation_perc,2024.2.4,Win32,120.1923077,55885869fdf99b4020ba0b64,687ed1b7e638a4cbf2f02089,6880d2adf6b204a7ade82806,,,,,,,,,,,,,42,1,,./stim/wavs/puertorican_mismatch_interrogative-total-yn_La-maestra-vive-en-Paris.wav,,,,,,,,,,,,,,,,,,,,,,280.468,283.513,0,0,2.529,,0,33,33,41,1,1,puertorican,,,,,,,,,,,,,,,,,,,,,,,,,,,,,,,,,,,,,,,,,,,,,,,,,,,,,,,,
,,,,,,,,,55885869fdf99b4020ba0b64,Mexican,13 or older,"no, only English or Spanish",no,2025-07-23_08h17.19.817,empathy_intonation_perc,2024.2.4,Win32,120.1923077,55885869fdf99b4020ba0b64,687ed1b7e638a4cbf2f02089,6880d2adf6b204a7ade82806,,,,,,,,,,,,,81,0,,./stim/wavs/mexican_mismatch_declarative-broad-focus_La-maestra-vive-en-Paris.wav,,,,,,,,,,,,,,,,,,,,,,283.514,285.817,0,1,1.794,,0,34,34,80,1,0,mexican,,,,,,,,,,,,,,,,,,,,,,,,,,,,,,,,,,,,,,,,,,,,,,,,,,,,,,,,
,,,,,,,,,55885869fdf99b4020ba0b64,Mexican,13 or older,"no, only English or Spanish",no,2025-07-23_08h17.19.817,empathy_intonation_perc,2024.2.4,Win32,120.1923077,55885869fdf99b4020ba0b64,687ed1b7e638a4cbf2f02089,6880d2adf6b204a7ade82806,,,,,,,,,,,,,9,1,,./stim/wavs/cuban_match_interrogative-total-yn_Manuela-vende-el-carro.wav,,,,,,,,,,,,,,,,,,,,,,285.818,288.736,0,0,2.408,,0,35,35,8,1,1,cuban,,,,,,,,,,,,,,,,,,,,,,,,,,,,,,,,,,,,,,,,,,,,,,,,,,,,,,,,
,,,,,,,,,55885869fdf99b4020ba0b64,Mexican,13 or older,"no, only English or Spanish",no,2025-07-23_08h17.19.817,empathy_intonation_perc,2024.2.4,Win32,120.1923077,55885869fdf99b4020ba0b64,687ed1b7e638a4cbf2f02089,6880d2adf6b204a7ade82806,,,,,,,,,,,,,39,1,,./stim/wavs/mexican_mismatch_interrogative-total-yn_Mi-tia-odia-la-lluvia.wav,,,,,,,,,,,,,,,,,,,,,,288.738,291.066,1,1,1.813,,0,36,36,38,1,0,mexican,,,,,,,,,,,,,,,,,,,,,,,,,,,,,,,,,,,,,,,,,,,,,,,,,,,,,,,,
,,,,,,,,,55885869fdf99b4020ba0b64,Mexican,13 or older,"no, only English or Spanish",no,2025-07-23_08h17.19.817,empathy_intonation_perc,2024.2.4,Win32,120.1923077,55885869fdf99b4020ba0b64,687ed1b7e638a4cbf2f02089,6880d2adf6b204a7ade82806,,,,,,,,,,,,,64,0,,./stim/wavs/puertorican_match_declarative-broad-focus_Daniel-iba-a-Bolivia.wav,,,,,,,,,,,,,,,,,,,,,,291.069,293.812,1,0,2.231,,0,37,37,63,1,0,puertorican,,,,,,,,,,,,,,,,,,,,,,,,,,,,,,,,,,,,,,,,,,,,,,,,,,,,,,,,
,,,,,,,,,55885869fdf99b4020ba0b64,Mexican,13 or older,"no, only English or Spanish",no,2025-07-23_08h17.19.817,empathy_intonation_perc,2024.2.4,Win32,120.1923077,55885869fdf99b4020ba0b64,687ed1b7e638a4cbf2f02089,6880d2adf6b204a7ade82806,,,,,,,,,,,,,62,0,,./stim/wavs/mexican_match_declarative-broad-focus_Marta-abre-el-regalo.wav,,,,,,,,,,,,,,,,,,,,,,293.812,296.141,0,1,1.813,,0,38,38,61,1,0,mexican,,,,,,,,,,,,,,,,,,,,,,,,,,,,,,,,,,,,,,,,,,,,,,,,,,,,,,,,
,,,,,,,,,55885869fdf99b4020ba0b64,Mexican,13 or older,"no, only English or Spanish",no,2025-07-23_08h17.19.817,empathy_intonation_perc,2024.2.4,Win32,120.1923077,55885869fdf99b4020ba0b64,687ed1b7e638a4cbf2f02089,6880d2adf6b204a7ade82806,,,,,,,,,,,,,40,1,,./stim/wavs/puertorican_mismatch_interrogative-total-yn_El-hombre-mira-la-luna.wav,,,,,,,,,,,,,,,,,,,,,,296.141,298.37,1,1,1.718,,0,39,39,39,1,1,puertorican,,,,,,,,,,,,,,,,,,,,,,,,,,,,,,,,,,,,,,,,,,,,,,,,,,,,,,,,
,,,,,,,,,55885869fdf99b4020ba0b64,Mexican,13 or older,"no, only English or Spanish",no,2025-07-23_08h17.19.817,empathy_intonation_perc,2024.2.4,Win32,120.1923077,55885869fdf99b4020ba0b64,687ed1b7e638a4cbf2f02089,6880d2adf6b204a7ade82806,,,,,,,,,,,,,18,1,,./stim/wavs/mexican_match_interrogative-total-yn_Marta-abre-el-regalo.wav,,,,,,,,,,,,,,,,,,,,,,298.371,300.533,1,1,1.648,,0,40,40,17,1,0,mexican,,,,,,,,,,,,,,,,,,,,,,,,,,,,,,,,,,,,,,,,,,,,,,,,,,,,,,,,
,,,,,,,,,55885869fdf99b4020ba0b64,Mexican,13 or older,"no, only English or Spanish",no,2025-07-23_08h17.19.817,empathy_intonation_perc,2024.2.4,Win32,120.1923077,55885869fdf99b4020ba0b64,687ed1b7e638a4cbf2f02089,6880d2adf6b204a7ade82806,,,,,,,,,,,,,69,0,,./stim/wavs/castilian_mismatch_declarative-broad-focus_El-nino-oye-el-rio.wav,,,,,,,,,,,,,,,,,,,,,,300.533,303.162,1,0,2.114,,0,41,41,68,1,0,castilian,,,,,,,,,,,,,,,,,,,,,,,,,,,,,,,,,,,,,,,,,,,,,,,,,,,,,,,,
,,,,,,,,,55885869fdf99b4020ba0b64,Mexican,13 or older,"no, only English or Spanish",no,2025-07-23_08h17.19.817,empathy_intonation_perc,2024.2.4,Win32,120.1923077,55885869fdf99b4020ba0b64,687ed1b7e638a4cbf2f02089,6880d2adf6b204a7ade82806,,,,,,,,,,,,,59,0,,./stim/wavs/mexican_match_declarative-broad-focus_David-leia-el-libro.wav,,,,,,,,,,,,,,,,,,,,,,303.162,305.465,0,1,1.788,,0,42,42,58,1,0,mexican,,,,,,,,,,,,,,,,,,,,,,,,,,,,,,,,,,,,,,,,,,,,,,,,,,,,,,,,
,,,,,,,,,55885869fdf99b4020ba0b64,Mexican,13 or older,"no, only English or Spanish",no,2025-07-23_08h17.19.817,empathy_intonation_perc,2024.2.4,Win32,120.1923077,55885869fdf99b4020ba0b64,687ed1b7e638a4cbf2f02089,6880d2adf6b204a7ade82806,,,,,,,,,,,,,86,0,,./stim/wavs/puertorican_mismatch_declarative-broad-focus_El-nino-oye-el-rio.wav,,,,,,,,,,,,,,,,,,,,,,305.466,307.828,0,1,1.847,,0,43,43,85,1,0,puertorican,,,,,,,,,,,,,,,,,,,,,,,,,,,,,,,,,,,,,,,,,,,,,,,,,,,,,,,,
,,,,,,,,,55885869fdf99b4020ba0b64,Mexican,13 or older,"no, only English or Spanish",no,2025-07-23_08h17.19.817,empathy_intonation_perc,2024.2.4,Win32,120.1923077,55885869fdf99b4020ba0b64,687ed1b7e638a4cbf2f02089,6880d2adf6b204a7ade82806,,,,,,,,,,,,,61,0,,./stim/wavs/mexican_match_declarative-broad-focus_Mariano-habla-del-tiempo.wav,,,,,,,,,,,,,,,,,,,,,,307.828,310.141,0,1,1.796,,0,44,44,60,1,0,mexican,,,,,,,,,,,,,,,,,,,,,,,,,,,,,,,,,,,,,,,,,,,,,,,,,,,,,,,,
,,,,,,,,,55885869fdf99b4020ba0b64,Mexican,13 or older,"no, only English or Spanish",no,2025-07-23_08h17.19.817,empathy_intonation_perc,2024.2.4,Win32,120.1923077,55885869fdf99b4020ba0b64,687ed1b7e638a4cbf2f02089,6880d2adf6b204a7ade82806,,,,,,,,,,,,,2,1,,./stim/wavs/castilian_match_interrogative-total-yn_Emilio-ama-la-marcha.wav,,,,,,,,,,,,,,,,,,,,,,310.141,312.504,1,1,1.847,,0,45,45,1,1,0,castilian,,,,,,,,,,,,,,,,,,,,,,,,,,,,,,,,,,,,,,,,,,,,,,,,,,,,,,,,
,,,,,,,,,55885869fdf99b4020ba0b64,Mexican,13 or older,"no, only English or Spanish",no,2025-07-23_08h17.19.817,empathy_intonation_perc,2024.2.4,Win32,120.1923077,55885869fdf99b4020ba0b64,687ed1b7e638a4cbf2f02089,6880d2adf6b204a7ade82806,,,,,,,,,,,,,41,1,,./stim/wavs/puertorican_mismatch_interrogative-total-yn_El-nino-oye-el-rio.wav,,,,,,,,,,,,,,,,,,,,,,312.504,314.708,1,1,1.691,,0,46,46,40,1,1,puertorican,,,,,,,,,,,,,,,,,,,,,,,,,,,,,,,,,,,,,,,,,,,,,,,,,,,,,,,,
,,,,,,,,,55885869fdf99b4020ba0b64,Mexican,13 or older,"no, only English or Spanish",no,2025-07-23_08h17.19.817,empathy_intonation_perc,2024.2.4,Win32,120.1923077,55885869fdf99b4020ba0b64,687ed1b7e638a4cbf2f02089,6880d2adf6b204a7ade82806,,,,,,,,,,,,,12,1,,./stim/wavs/cuban_match_interrogative-total-yn_Marta-abre-el-regalo.wav,,,,,,,,,,,,,,,,,,,,,,314.708,317.054,0,0,1.835,,0,47,47,11,1,1,cuban,,,,,,,,,,,,,,,,,,,,,,,,,,,,,,,,,,,,,,,,,,,,,,,,,,,,,,,,
,,,,,,,,,55885869fdf99b4020ba0b64,Mexican,13 or older,"no, only English or Spanish",no,2025-07-23_08h17.19.817,empathy_intonation_perc,2024.2.4,Win32,120.1923077,55885869fdf99b4020ba0b64,687ed1b7e638a4cbf2f02089,6880d2adf6b204a7ade82806,,,,,,,,,,,,,53,0,,./stim/wavs/cuban_match_declarative-broad-focus_Manuela-vende-el-carro.wav,,,,,,,,,,,,,,,,,,,,,,317.054,319.449,0,1,1.883,,0,48,48,52,1,0,cuban,,,,,,,,,,,,,,,,,,,,,,,,,,,,,,,,,,,,,,,,,,,,,,,,,,,,,,,,
,,,,,,,,,55885869fdf99b4020ba0b64,Mexican,13 or older,"no, only English or Spanish",no,2025-07-23_08h17.19.817,empathy_intonation_perc,2024.2.4,Win32,120.1923077,55885869fdf99b4020ba0b64,687ed1b7e638a4cbf2f02089,6880d2adf6b204a7ade82806,,,,,,,,,,,,,15,1,,./stim/wavs/mexican_match_interrogative-total-yn_David-leia-el-libro.wav,,,,,,,,,,,,,,,,,,,,,,319.45,321.662,1,1,1.701,,0,49,49,14,1,0,mexican,,,,,,,,,,,,,,,,,,,,,,,,,,,,,,,,,,,,,,,,,,,,,,,,,,,,,,,,
,,,,,,,,,55885869fdf99b4020ba0b64,Mexican,13 or older,"no, only English or Spanish",no,2025-07-23_08h17.19.817,empathy_intonation_perc,2024.2.4,Win32,120.1923077,55885869fdf99b4020ba0b64,687ed1b7e638a4cbf2f02089,6880d2adf6b204a7ade82806,,,,,,,,,,,,,47,0,,./stim/wavs/castilian_match_declarative-broad-focus_Manuela-vende-el-carro.wav,,,,,,,,,,,,,,,,,,,,,,321.664,324.415,0,1,2.239,,0,50,50,46,1,0,castilian,,,,,,,,,,,,,,,,,,,,,,,,,,,,,,,,,,,,,,,,,,,,,,,,,,,,,,,,
,,,,,,,,,55885869fdf99b4020ba0b64,Mexican,13 or older,"no, only English or Spanish",no,2025-07-23_08h17.19.817,empathy_intonation_perc,2024.2.4,Win32,120.1923077,55885869fdf99b4020ba0b64,687ed1b7e638a4cbf2f02089,6880d2adf6b204a7ade82806,,,,,,,,,,,,,21,1,,./stim/wavs/puertorican_match_interrogative-total-yn_David-leia-el-libro.wav,,,,,,,,,,,,,,,,,,,,,,324.417,326.82,1,1,1.89,,0,51,51,20,1,1,puertorican,,,,,,,,,,,,,,,,,,,,,,,,,,,,,,,,,,,,,,,,,,,,,,,,,,,,,,,,
,,,,,,,,,55885869fdf99b4020ba0b64,Mexican,13 or older,"no, only English or Spanish",no,2025-07-23_08h17.19.817,empathy_intonation_perc,2024.2.4,Win32,120.1923077,55885869fdf99b4020ba0b64,687ed1b7e638a4cbf2f02089,6880d2adf6b204a7ade82806,,,,,,,,,,,,,54,0,,./stim/wavs/cuban_match_declarative-broad-focus_Maria-bebe-el-vino.wav,,,,,,,,,,,,,,,,,,,,,,326.82,329.024,0,1,1.692,,0,52,52,53,1,0,cuban,,,,,,,,,,,,,,,,,,,,,,,,,,,,,,,,,,,,,,,,,,,,,,,,,,,,,,,,
,,,,,,,,,55885869fdf99b4020ba0b64,Mexican,13 or older,"no, only English or Spanish",no,2025-07-23_08h17.19.817,empathy_intonation_perc,2024.2.4,Win32,120.1923077,55885869fdf99b4020ba0b64,687ed1b7e638a4cbf2f02089,6880d2adf6b204a7ade82806,,,,,,,,,,,,,76,0,,./stim/wavs/cuban_mismatch_declarative-broad-focus_La-nina-lava-el-plato.wav,,,,,,,,,,,,,,,,,,,,,,329.024,331.328,0,1,1.79,,0,53,53,75,1,0,cuban,,,,,,,,,,,,,,,,,,,,,,,,,,,,,,,,,,,,,,,,,,,,,,,,,,,,,,,,
,,,,,,,,,55885869fdf99b4020ba0b64,Mexican,13 or older,"no, only English or Spanish",no,2025-07-23_08h17.19.817,empathy_intonation_perc,2024.2.4,Win32,120.1923077,55885869fdf99b4020ba0b64,687ed1b7e638a4cbf2f02089,6880d2adf6b204a7ade82806,,,,,,,,,,,,,48,0,,./stim/wavs/castilian_match_declarative-broad-focus_Maria-bebe-el-vino.wav,,,,,,,,,,,,,,,,,,,,,,331.329,333.708,1,0,1.865,,0,54,54,47,1,0,castilian,,,,,,,,,,,,,,,,,,,,,,,,,,,,,,,,,,,,,,,,,,,,,,,,,,,,,,,,
,,,,,,,,,55885869fdf99b4020ba0b64,Mexican,13 or older,"no, only English or Spanish",no,2025-07-23_08h17.19.817,empathy_intonation_perc,2024.2.4,Win32,120.1923077,55885869fdf99b4020ba0b64,687ed1b7e638a4cbf2f02089,6880d2adf6b204a7ade82806,,,,,,,,,,,,,44,1,,./stim/wavs/puertorican_mismatch_interrogative-total-yn_Mi-madre-come-la-fruta.wav,,,,,,,,,,,,,,,,,,,,,,333.708,336.311,0,0,2.092,,0,55,55,43,1,1,puertorican,,,,,,,,,,,,,,,,,,,,,,,,,,,,,,,,,,,,,,,,,,,,,,,,,,,,,,,,
,,,,,,,,,55885869fdf99b4020ba0b64,Mexican,13 or older,"no, only English or Spanish",no,2025-07-23_08h17.19.817,empathy_intonation_perc,2024.2.4,Win32,120.1923077,55885869fdf99b4020ba0b64,687ed1b7e638a4cbf2f02089,6880d2adf6b204a7ade82806,,,,,,,,,,,,,57,0,,./stim/wavs/mexican_match_declarative-broad-focus_Ana-lleva-el-abrigo.wav,,,,,,,,,,,,,,,,,,,,,,336.311,338.399,0,1,1.574,,0,56,56,56,1,0,mexican,,,,,,,,,,,,,,,,,,,,,,,,,,,,,,,,,,,,,,,,,,,,,,,,,,,,,,,,
,,,,,,,,,55885869fdf99b4020ba0b64,Mexican,13 or older,"no, only English or Spanish",no,2025-07-23_08h17.19.817,empathy_intonation_perc,2024.2.4,Win32,120.1923077,55885869fdf99b4020ba0b64,687ed1b7e638a4cbf2f02089,6880d2adf6b204a7ade82806,,,,,,,,,,,,,68,0,,./stim/wavs/puertorican_match_declarative-broad-focus_Maria-bebe-el-vino.wav,,,,,,,,,,,,,,,,,,,,,,338.399,340.828,1,0,1.915,,0,57,57,67,1,0,puertorican,,,,,,,,,,,,,,,,,,,,,,,,,,,,,,,,,,,,,,,,,,,,,,,,,,,,,,,,
,,,,,,,,,55885869fdf99b4020ba0b64,Mexican,13 or older,"no, only English or Spanish",no,2025-07-23_08h17.19.817,empathy_intonation_perc,2024.2.4,Win32,120.1923077,55885869fdf99b4020ba0b64,687ed1b7e638a4cbf2f02089,6880d2adf6b204a7ade82806,,,,,,,,,,,,,23,1,,./stim/wavs/puertorican_match_interrogative-total-yn_Manuela-vende-el-carro.wav,,,,,,,,,,,,,,,,,,,,,,340.829,342.982,1,1,1.642,,0,58,58,22,1,1,puertorican,,,,,,,,,,,,,,,,,,,,,,,,,,,,,,,,,,,,,,,,,,,,,,,,,,,,,,,,
,,,,,,,,,55885869fdf99b4020ba0b64,Mexican,13 or older,"no, only English or Spanish",no,2025-07-23_08h17.19.817,empathy_intonation_perc,2024.2.4,Win32,120.1923077,55885869fdf99b4020ba0b64,687ed1b7e638a4cbf2f02089,6880d2adf6b204a7ade82806,,,,,,,,,,,,,5,1,,./stim/wavs/castilian_match_interrogative-total-yn_Mariano-habla-del-tiempo.wav,,,,,,,,,,,,,,,,,,,,,,342.983,345.86,1,1,2.364,,0,59,59,4,1,0,castilian,,,,,,,,,,,,,,,,,,,,,,,,,,,,,,,,,,,,,,,,,,,,,,,,,,,,,,,,
,,,,,,,,,55885869fdf99b4020ba0b64,Mexican,13 or older,"no, only English or Spanish",no,2025-07-23_08h17.19.817,empathy_intonation_perc,2024.2.4,Win32,120.1923077,55885869fdf99b4020ba0b64,687ed1b7e638a4cbf2f02089,6880d2adf6b204a7ade82806,,,,,,,,,,,,,22,1,,./stim/wavs/puertorican_match_interrogative-total-yn_Emilio-ama-la-marcha.wav,,,,,,,,,,,,,,,,,,,,,,345.861,348.406,0,0,2.03,,0,60,60,21,1,1,puertorican,,,,,,,,,,,,,,,,,,,,,,,,,,,,,,,,,,,,,,,,,,,,,,,,,,,,,,,,
,,,,,,,,,55885869fdf99b4020ba0b64,Mexican,13 or older,"no, only English or Spanish",no,2025-07-23_08h17.19.817,empathy_intonation_perc,2024.2.4,Win32,120.1923077,55885869fdf99b4020ba0b64,687ed1b7e638a4cbf2f02089,6880d2adf6b204a7ade82806,,,,,,,,,,,,,72,0,,./stim/wavs/castilian_mismatch_declarative-broad-focus_Mi-novio-viene-del-lago.wav,,,,,,,,,,,,,,,,,,,,,,348.406,350.853,0,1,1.934,,0,61,61,71,1,0,castilian,,,,,,,,,,,,,,,,,,,,,,,,,,,,,,,,,,,,,,,,,,,,,,,,,,,,,,,,
,,,,,,,,,55885869fdf99b4020ba0b64,Mexican,13 or older,"no, only English or Spanish",no,2025-07-23_08h17.19.817,empathy_intonation_perc,2024.2.4,Win32,120.1923077,55885869fdf99b4020ba0b64,687ed1b7e638a4cbf2f02089,6880d2adf6b204a7ade82806,,,,,,,,,,,,,7,1,,./stim/wavs/cuban_match_interrogative-total-yn_Ana-lleva-el-abrigo.wav,,,,,,,,,,,,,,,,,,,,,,350.854,352.889,0,0,1.523,,0,62,62,6,1,1,cuban,,,,,,,,,,,,,,,,,,,,,,,,,,,,,,,,,,,,,,,,,,,,,,,,,,,,,,,,
,,,,,,,,,55885869fdf99b4020ba0b64,Mexican,13 or older,"no, only English or Spanish",no,2025-07-23_08h17.19.817,empathy_intonation_perc,2024.2.4,Win32,120.1923077,55885869fdf99b4020ba0b64,687ed1b7e638a4cbf2f02089,6880d2adf6b204a7ade82806,,,,,,,,,,,,,16,1,,./stim/wavs/mexican_match_interrogative-total-yn_Emilio-ama-la-marcha.wav,,,,,,,,,,,,,,,,,,,,,,352.89,355.169,0,0,1.763,,0,63,63,15,1,0,mexican,,,,,,,,,,,,,,,,,,,,,,,,,,,,,,,,,,,,,,,,,,,,,,,,,,,,,,,,
,,,,,,,,,55885869fdf99b4020ba0b64,Mexican,13 or older,"no, only English or Spanish",no,2025-07-23_08h17.19.817,empathy_intonation_perc,2024.2.4,Win32,120.1923077,55885869fdf99b4020ba0b64,687ed1b7e638a4cbf2f02089,6880d2adf6b204a7ade82806,,,,,,,,,,,,,26,1,,./stim/wavs/castilian_mismatch_interrogative-total-yn_La-nina-lava-el-plato.wav,,,,,,,,,,,,,,,,,,,,,,355.17,357.474,1,1,1.794,,0,64,64,25,1,0,castilian,,,,,,,,,,,,,,,,,,,,,,,,,,,,,,,,,,,,,,,,,,,,,,,,,,,,,,,,
,,,,,,,,,55885869fdf99b4020ba0b64,Mexican,13 or older,"no, only English or Spanish",no,2025-07-23_08h17.19.817,empathy_intonation_perc,2024.2.4,Win32,120.1923077,55885869fdf99b4020ba0b64,687ed1b7e638a4cbf2f02089,6880d2adf6b204a7ade82806,,,,,,,,,,,,,3,1,,./stim/wavs/castilian_match_interrogative-total-yn_Manuela-vende-el-carro.wav,,,,,,,,,,,,,,,,,,,,,,357.474,359.794,1,1,1.805,,0,65,65,2,1,0,castilian,,,,,,,,,,,,,,,,,,,,,,,,,,,,,,,,,,,,,,,,,,,,,,,,,,,,,,,,
,,,,,,,,,55885869fdf99b4020ba0b64,Mexican,13 or older,"no, only English or Spanish",no,2025-07-23_08h17.19.817,empathy_intonation_perc,2024.2.4,Win32,120.1923077,55885869fdf99b4020ba0b64,687ed1b7e638a4cbf2f02089,6880d2adf6b204a7ade82806,,,,,,,,,,,,,87,0,,./stim/wavs/puertorican_mismatch_declarative-broad-focus_La-maestra-vive-en-Paris.wav,,,,,,,,,,,,,,,,,,,,,,359.795,362.356,0,1,2.047,,0,66,66,86,1,0,puertorican,,,,,,,,,,,,,,,,,,,,,,,,,,,,,,,,,,,,,,,,,,,,,,,,,,,,,,,,
,,,,,,,,,55885869fdf99b4020ba0b64,Mexican,13 or older,"no, only English or Spanish",no,2025-07-23_08h17.19.817,empathy_intonation_perc,2024.2.4,Win32,120.1923077,55885869fdf99b4020ba0b64,687ed1b7e638a4cbf2f02089,6880d2adf6b204a7ade82806,,,,,,,,,,,,,49,0,,./stim/wavs/castilian_match_declarative-broad-focus_Mariano-habla-del-tiempo.wav,,,,,,,,,,,,,,,,,,,,,,362.357,365.035,1,0,2.164,,0,67,67,48,1,0,castilian,,,,,,,,,,,,,,,,,,,,,,,,,,,,,,,,,,,,,,,,,,,,,,,,,,,,,,,,
,,,,,,,,,55885869fdf99b4020ba0b64,Mexican,13 or older,"no, only English or Spanish",no,2025-07-23_08h17.19.817,empathy_intonation_perc,2024.2.4,Win32,120.1923077,55885869fdf99b4020ba0b64,687ed1b7e638a4cbf2f02089,6880d2adf6b204a7ade82806,,,,,,,,,,,,,84,0,,./stim/wavs/puertorican_mismatch_declarative-broad-focus_El-bebe-comia-muy-bien.wav,,,,,,,,,,,,,,,,,,,,,,365.035,367.489,0,1,1.942,,0,68,68,83,1,0,puertorican,,,,,,,,,,,,,,,,,,,,,,,,,,,,,,,,,,,,,,,,,,,,,,,,,,,,,,,,
,,,,,,,,,55885869fdf99b4020ba0b64,Mexican,13 or older,"no, only English or Spanish",no,2025-07-23_08h17.19.817,empathy_intonation_perc,2024.2.4,Win32,120.1923077,55885869fdf99b4020ba0b64,687ed1b7e638a4cbf2f02089,6880d2adf6b204a7ade82806,,,,,,,,,,,,,74,0,,./stim/wavs/cuban_mismatch_declarative-broad-focus_El-bebe-comia-muy-bien.wav,,,,,,,,,,,,,,,,,,,,,,367.49,369.585,0,1,1.581,,0,69,69,73,1,0,cuban,,,,,,,,,,,,,,,,,,,,,,,,,,,,,,,,,,,,,,,,,,,,,,,,,,,,,,,,
,,,,,,,,,55885869fdf99b4020ba0b64,Mexican,13 or older,"no, only English or Spanish",no,2025-07-23_08h17.19.817,empathy_intonation_perc,2024.2.4,Win32,120.1923077,55885869fdf99b4020ba0b64,687ed1b7e638a4cbf2f02089,6880d2adf6b204a7ade82806,,,,,,,,,,,,,85,0,,./stim/wavs/puertorican_mismatch_declarative-broad-focus_El-hombre-mira-la-luna.wav,,,,,,,,,,,,,,,,,,,,,,369.586,372.055,0,1,1.957,,0,70,70,84,1,0,puertorican,,,,,,,,,,,,,,,,,,,,,,,,,,,,,,,,,,,,,,,,,,,,,,,,,,,,,,,,
,,,,,,,,,55885869fdf99b4020ba0b64,Mexican,13 or older,"no, only English or Spanish",no,2025-07-23_08h17.19.817,empathy_intonation_perc,2024.2.4,Win32,120.1923077,55885869fdf99b4020ba0b64,687ed1b7e638a4cbf2f02089,6880d2adf6b204a7ade82806,,,,,,,,,,,,,10,1,,./stim/wavs/cuban_match_interrogative-total-yn_Maria-bebe-el-vino.wav,,,,,,,,,,,,,,,,,,,,,,372.056,374.535,1,1,1.963,,0,71,71,9,1,1,cuban,,,,,,,,,,,,,,,,,,,,,,,,,,,,,,,,,,,,,,,,,,,,,,,,,,,,,,,,
,,,,,,,,,55885869fdf99b4020ba0b64,Mexican,13 or older,"no, only English or Spanish",no,2025-07-23_08h17.19.817,empathy_intonation_perc,2024.2.4,Win32,120.1923077,55885869fdf99b4020ba0b64,687ed1b7e638a4cbf2f02089,6880d2adf6b204a7ade82806,,,,,,,,,,,,,20,1,,./stim/wavs/puertorican_match_interrogative-total-yn_Daniel-iba-a-Bolivia.wav,,,,,,,,,,,,,,,,,,,,,,374.536,377.055,0,0,2.008,,0,72,72,19,1,1,puertorican,,,,,,,,,,,,,,,,,,,,,,,,,,,,,,,,,,,,,,,,,,,,,,,,,,,,,,,,
,,,,,,,,,55885869fdf99b4020ba0b64,Mexican,13 or older,"no, only English or Spanish",no,2025-07-23_08h17.19.817,empathy_intonation_perc,2024.2.4,Win32,120.1923077,55885869fdf99b4020ba0b64,687ed1b7e638a4cbf2f02089,6880d2adf6b204a7ade82806,,,,,,,,,,,,,36,1,,./stim/wavs/mexican_mismatch_interrogative-total-yn_El-nino-oye-el-rio.wav,,,,,,,,,,,,,,,,,,,,,,377.055,379.55,1,1,1.98,,0,73,73,35,1,0,mexican,,,,,,,,,,,,,,,,,,,,,,,,,,,,,,,,,,,,,,,,,,,,,,,,,,,,,,,,
,,,,,,,,,55885869fdf99b4020ba0b64,Mexican,13 or older,"no, only English or Spanish",no,2025-07-23_08h17.19.817,empathy_intonation_perc,2024.2.4,Win32,120.1923077,55885869fdf99b4020ba0b64,687ed1b7e638a4cbf2f02089,6880d2adf6b204a7ade82806,,,,,,,,,,,,,77,0,,./stim/wavs/cuban_mismatch_declarative-broad-focus_Mi-novio-viene-del-lago.wav,,,,,,,,,,,,,,,,,,,,,,379.551,382.038,1,0,1.97,,0,74,74,76,1,0,cuban,,,,,,,,,,,,,,,,,,,,,,,,,,,,,,,,,,,,,,,,,,,,,,,,,,,,,,,,
,,,,,,,,,55885869fdf99b4020ba0b64,Mexican,13 or older,"no, only English or Spanish",no,2025-07-23_08h17.19.817,empathy_intonation_perc,2024.2.4,Win32,120.1923077,55885869fdf99b4020ba0b64,687ed1b7e638a4cbf2f02089,6880d2adf6b204a7ade82806,,,,,,,,,,,,,6,1,,./stim/wavs/castilian_match_interrogative-total-yn_Marta-abre-el-regalo.wav,,,,,,,,,,,,,,,,,,,,,,382.039,384.401,1,1,1.847,,0,75,75,5,1,0,castilian,,,,,,,,,,,,,,,,,,,,,,,,,,,,,,,,,,,,,,,,,,,,,,,,,,,,,,,,
,,,,,,,,,55885869fdf99b4020ba0b64,Mexican,13 or older,"no, only English or Spanish",no,2025-07-23_08h17.19.817,empathy_intonation_perc,2024.2.4,Win32,120.1923077,55885869fdf99b4020ba0b64,687ed1b7e638a4cbf2f02089,6880d2adf6b204a7ade82806,,,,,,,,,,,,,58,0,,./stim/wavs/mexican_match_declarative-broad-focus_Daniel-iba-a-Bolivia.wav,,,,,,,,,,,,,,,,,,,,,,384.403,386.73,1,0,1.816,,0,76,76,57,1,0,mexican,,,,,,,,,,,,,,,,,,,,,,,,,,,,,,,,,,,,,,,,,,,,,,,,,,,,,,,,
,,,,,,,,,55885869fdf99b4020ba0b64,Mexican,13 or older,"no, only English or Spanish",no,2025-07-23_08h17.19.817,empathy_intonation_perc,2024.2.4,Win32,120.1923077,55885869fdf99b4020ba0b64,687ed1b7e638a4cbf2f02089,6880d2adf6b204a7ade82806,,,,,,,,,,,,,24,1,,./stim/wavs/puertorican_match_interrogative-total-yn_Maria-bebe-el-vino.wav,,,,,,,,,,,,,,,,,,,,,,386.731,388.867,1,1,1.625,,0,77,77,23,1,1,puertorican,,,,,,,,,,,,,,,,,,,,,,,,,,,,,,,,,,,,,,,,,,,,,,,,,,,,,,,,
,,,,,,,,,55885869fdf99b4020ba0b64,Mexican,13 or older,"no, only English or Spanish",no,2025-07-23_08h17.19.817,empathy_intonation_perc,2024.2.4,Win32,120.1923077,55885869fdf99b4020ba0b64,687ed1b7e638a4cbf2f02089,6880d2adf6b204a7ade82806,,,,,,,,,,,,,65,0,,./stim/wavs/puertorican_match_declarative-broad-focus_David-leia-el-libro.wav,,,,,,,,,,,,,,,,,,,,,,388.868,391.039,1,0,1.661,,0,78,78,64,1,0,puertorican,,,,,,,,,,,,,,,,,,,,,,,,,,,,,,,,,,,,,,,,,,,,,,,,,,,,,,,,
,,,,,,,,,55885869fdf99b4020ba0b64,Mexican,13 or older,"no, only English or Spanish",no,2025-07-23_08h17.19.817,empathy_intonation_perc,2024.2.4,Win32,120.1923077,55885869fdf99b4020ba0b64,687ed1b7e638a4cbf2f02089,6880d2adf6b204a7ade82806,,,,,,,,,,,,,50,0,,./stim/wavs/castilian_match_declarative-broad-focus_Marta-abre-el-regalo.wav,,,,,,,,,,,,,,,,,,,,,,391.039,394.025,0,1,2.473,,0,79,79,49,1,0,castilian,,,,,,,,,,,,,,,,,,,,,,,,,,,,,,,,,,,,,,,,,,,,,,,,,,,,,,,,
,,,,,,,,,55885869fdf99b4020ba0b64,Mexican,13 or older,"no, only English or Spanish",no,2025-07-23_08h17.19.817,empathy_intonation_perc,2024.2.4,Win32,120.1923077,55885869fdf99b4020ba0b64,687ed1b7e638a4cbf2f02089,6880d2adf6b204a7ade82806,,,,,,,,,,,,,27,1,,./stim/wavs/castilian_mismatch_interrogative-total-yn_Mi-madre-come-la-fruta.wav,,,,,,,,,,,,,,,,,,,,,,394.026,396.487,1,1,1.947,,0,80,80,26,1,0,castilian,,,,,,,,,,,,,,,,,,,,,,,,,,,,,,,,,,,,,,,,,,,,,,,,,,,,,,,,
,,,,,,,,,55885869fdf99b4020ba0b64,Mexican,13 or older,"no, only English or Spanish",no,2025-07-23_08h17.19.817,empathy_intonation_perc,2024.2.4,Win32,120.1923077,55885869fdf99b4020ba0b64,687ed1b7e638a4cbf2f02089,6880d2adf6b204a7ade82806,,,,,,,,,,,,,82,0,,./stim/wavs/mexican_mismatch_declarative-broad-focus_Mi-novio-viene-del-lago.wav,,,,,,,,,,,,,,,,,,,,,,396.488,398.858,0,1,1.868,,0,81,81,81,1,0,mexican,,,,,,,,,,,,,,,,,,,,,,,,,,,,,,,,,,,,,,,,,,,,,,,,,,,,,,,,
,,,,,,,,,55885869fdf99b4020ba0b64,Mexican,13 or older,"no, only English or Spanish",no,2025-07-23_08h17.19.817,empathy_intonation_perc,2024.2.4,Win32,120.1923077,55885869fdf99b4020ba0b64,687ed1b7e638a4cbf2f02089,6880d2adf6b204a7ade82806,,,,,,,,,,,,,31,1,,./stim/wavs/cuban_mismatch_interrogative-total-yn_El-nino-oye-el-rio.wav,,,,,,,,,,,,,,,,,,,,,,398.859,401.238,0,0,1.866,,0,82,82,30,1,1,cuban,,,,,,,,,,,,,,,,,,,,,,,,,,,,,,,,,,,,,,,,,,,,,,,,,,,,,,,,
,,,,,,,,,55885869fdf99b4020ba0b64,Mexican,13 or older,"no, only English or Spanish",no,2025-07-23_08h17.19.817,empathy_intonation_perc,2024.2.4,Win32,120.1923077,55885869fdf99b4020ba0b64,687ed1b7e638a4cbf2f02089,6880d2adf6b204a7ade82806,,,,,,,,,,,,,75,0,,./stim/wavs/cuban_mismatch_declarative-broad-focus_El-hombre-mira-la-luna.wav,,,,,,,,,,,,,,,,,,,,,,401.239,403.592,0,1,1.838,,0,83,83,74,1,0,cuban,,,,,,,,,,,,,,,,,,,,,,,,,,,,,,,,,,,,,,,,,,,,,,,,,,,,,,,,
,,,,,,,,,55885869fdf99b4020ba0b64,Mexican,13 or older,"no, only English or Spanish",no,2025-07-23_08h17.19.817,empathy_intonation_perc,2024.2.4,Win32,120.1923077,55885869fdf99b4020ba0b64,687ed1b7e638a4cbf2f02089,6880d2adf6b204a7ade82806,,,,,,,,,,,,,43,1,,./stim/wavs/puertorican_mismatch_interrogative-total-yn_La-nina-lava-el-plato.wav,,,,,,,,,,,,,,,,,,,,,,403.593,405.754,0,0,1.649,,0,84,84,42,1,1,puertorican,,,,,,,,,,,,,,,,,,,,,,,,,,,,,,,,,,,,,,,,,,,,,,,,,,,,,,,,
,,,,,,,,,55885869fdf99b4020ba0b64,Mexican,13 or older,"no, only English or Spanish",no,2025-07-23_08h17.19.817,empathy_intonation_perc,2024.2.4,Win32,120.1923077,55885869fdf99b4020ba0b64,687ed1b7e638a4cbf2f02089,6880d2adf6b204a7ade82806,,,,,,,,,,,,,66,0,,./stim/wavs/puertorican_match_declarative-broad-focus_Emilio-ama-la-marcha.wav,,,,,,,,,,,,,,,,,,,,,,405.754,408.117,0,1,1.852,,0,85,85,65,1,0,puertorican,,,,,,,,,,,,,,,,,,,,,,,,,,,,,,,,,,,,,,,,,,,,,,,,,,,,,,,,
,,,,,,,,,55885869fdf99b4020ba0b64,Mexican,13 or older,"no, only English or Spanish",no,2025-07-23_08h17.19.817,empathy_intonation_perc,2024.2.4,Win32,120.1923077,55885869fdf99b4020ba0b64,687ed1b7e638a4cbf2f02089,6880d2adf6b204a7ade82806,,,,,,,,,,,,,32,1,,./stim/wavs/cuban_mismatch_interrogative-total-yn_Mi-madre-come-la-fruta.wav,,,,,,,,,,,,,,,,,,,,,,408.118,410.529,0,0,1.901,,0,86,86,31,1,1,cuban,,,,,,,,,,,,,,,,,,,,,,,,,,,,,,,,,,,,,,,,,,,,,,,,,,,,,,,,
,,,,,,,,,55885869fdf99b4020ba0b64,Mexican,13 or older,"no, only English or Spanish",no,2025-07-23_08h17.19.817,empathy_intonation_perc,2024.2.4,Win32,120.1923077,55885869fdf99b4020ba0b64,687ed1b7e638a4cbf2f02089,6880d2adf6b204a7ade82806,,,,,,,,,,,,,83,0,,./stim/wavs/mexican_mismatch_declarative-broad-focus_Mi-tia-odia-la-lluvia.wav,,,,,,,,,,,,,,,,,,,,,,410.53,412.717,0,1,1.676,,0,87,87,82,1,0,mexican,,,,,,,,,,,,,,,,,,,,,,,,,,,,,,,,,,,,,,,,,,,,,,,,,,,,,,,,
,,,,,,,"Great! Now we will move on. The next task consists of about 60 trials, in each of which you will see a string of letters. 
  
  Your task is to decide whether this is a real Spanish word or not.", (press the spacebar to continue),55885869fdf99b4020ba0b64,Mexican,13 or older,"no, only English or Spanish",no,2025-07-23_08h17.19.817,empathy_intonation_perc,2024.2.4,Win32,120.1923077,55885869fdf99b4020ba0b64,687ed1b7e638a4cbf2f02089,6880d2adf6b204a7ade82806,,,,,,,,,,,,,,,,,,,,,,,,,,,,,,,,,,,,,,,,,,,,,,,,,,,412.724,414.939,0,0,0,0,1,,,,,,,,,,,,,,,,,,,,,,,,,,,,,,,,,,,,,,,,,,,,,,,,,
,,,,,,,"If you think it is an existing Spanish word, you type '1' (for 'REAL'), and if you think it is not an existing Spanish word, you type '0' (for 'FAKE').", (press the spacebar to continue),55885869fdf99b4020ba0b64,Mexican,13 or older,"no, only English or Spanish",no,2025-07-23_08h17.19.817,empathy_intonation_perc,2024.2.4,Win32,120.1923077,55885869fdf99b4020ba0b64,687ed1b7e638a4cbf2f02089,6880d2adf6b204a7ade82806,,,,,,,,,,,,,,,,,,,,,,,,,,,,,,,,,,,,,,,,,,,,,,,,,,,414.941,418.199,0,1,1,1,1,,,,,,,,,,,,,,,,,,,,,,,,,,,,,,,,,,,,,,,,,,,,,,,,,
,,,,,,,"If you are sure that the word exists, even though you don’t know its exact meaning, you may still respond '1' (REAL). 
  
  But if you are not sure if it is an existing word, you should respond '0' (FAKE).
  
  Let's do a practice round...", (press the spacebar to continue),55885869fdf99b4020ba0b64,Mexican,13 or older,"no, only English or Spanish",no,2025-07-23_08h17.19.817,empathy_intonation_perc,2024.2.4,Win32,120.1923077,55885869fdf99b4020ba0b64,687ed1b7e638a4cbf2f02089,6880d2adf6b204a7ade82806,,,,,,,,,,,,,,,,,,,,,,,,,,,,,,,,,,,,,,,,,,,,,,,,,,,418.2,420.237,0,2,2,2,1,,,,,,,,,,,,,,,,,,,,,,,,,,,,,,,,,,,,,,,,,,,,,,,,,
,,,,,,,,,55885869fdf99b4020ba0b64,Mexican,13 or older,"no, only English or Spanish",no,2025-07-23_08h17.19.817,empathy_intonation_perc,2024.2.4,Win32,120.1923077,55885869fdf99b4020ba0b64,687ed1b7e638a4cbf2f02089,6880d2adf6b204a7ade82806,,,,,,,,,,,,,,0,,,,,,,,,,,,,,,,,,,,,,,,,,,,,,,,,,,,,,,,,,,,420.244,423.365,1,0,2.607,,423.365,424.364,0,0,0,0,1,0,depiste,REAL,FAKE,,,,,,,,,,,,,,,,,,,,,,,,,,,,,,,,
,,,,,,,,,55885869fdf99b4020ba0b64,Mexican,13 or older,"no, only English or Spanish",no,2025-07-23_08h17.19.817,empathy_intonation_perc,2024.2.4,Win32,120.1923077,55885869fdf99b4020ba0b64,687ed1b7e638a4cbf2f02089,6880d2adf6b204a7ade82806,,,,,,,,,,,,,,1,,,,,,,,,,,,,,,,,,,,,,,,,,,,,,,,,,,,,,,,,,,,424.365,425.777,1,1,0.898,,425.778,426.776,0,1,1,1,1,0,sí,REAL,FAKE,,,,,,,,,,,,,,,,,,,,,,,,,,,,,,,,
,,,,,,,,,55885869fdf99b4020ba0b64,Mexican,13 or older,"no, only English or Spanish",no,2025-07-23_08h17.19.817,empathy_intonation_perc,2024.2.4,Win32,120.1923077,55885869fdf99b4020ba0b64,687ed1b7e638a4cbf2f02089,6880d2adf6b204a7ade82806,,,,,,,,,,,,,,0,,,,,,,,,,,,,,,,,,,,,,,,,,,,,,,,,,,,,,,,,,,,426.776,428.206,0,1,0.888,,428.207,429.205,0,2,2,2,1,0,coné,REAL,FAKE,,,,,,,,,,,,,,,,,,,,,,,,,,,,,,,,
,,,,,,,,,55885869fdf99b4020ba0b64,Mexican,13 or older,"no, only English or Spanish",no,2025-07-23_08h17.19.817,empathy_intonation_perc,2024.2.4,Win32,120.1923077,55885869fdf99b4020ba0b64,687ed1b7e638a4cbf2f02089,6880d2adf6b204a7ade82806,,,,,,,,,,,,,,0,,,,,,,,,,,,,,,,,,,,,,,,,,,,,,,,,,,,,,,,,,,,429.205,431.159,1,0,1.437,,431.159,432.157,0,3,3,3,1,0,calpar,REAL,FAKE,,,,,,,,,,,,,,,,,,,,,,,,,,,,,,,,
,,,,,,,,,55885869fdf99b4020ba0b64,Mexican,13 or older,"no, only English or Spanish",no,2025-07-23_08h17.19.817,empathy_intonation_perc,2024.2.4,Win32,120.1923077,55885869fdf99b4020ba0b64,687ed1b7e638a4cbf2f02089,6880d2adf6b204a7ade82806,,,,,,,,,,,,,,0,,,,,,,,,,,,,,,,,,,,,,,,,,,,,,,,,,,,,,,,,,,,432.159,433.33,0,1,0.645,,433.331,434.329,0,4,4,4,1,0,joten,REAL,FAKE,,,,,,,,,,,,,,,,,,,,,,,,,,,,,,,,
,,,,,,,,,55885869fdf99b4020ba0b64,Mexican,13 or older,"no, only English or Spanish",no,2025-07-23_08h17.19.817,empathy_intonation_perc,2024.2.4,Win32,120.1923077,55885869fdf99b4020ba0b64,687ed1b7e638a4cbf2f02089,6880d2adf6b204a7ade82806,,,,,,,,,,,,,,1,,,,,,,,,,,,,,,,,,,,,,,,,,,,,,,,,,,,,,,,,,,,434.329,435.535,0,0,0.681,,435.535,436.533,0,5,5,5,1,0,sacapuntas,REAL,FAKE,,,,,,,,,,,,,,,,,,,,,,,,,,,,,,,,
,,,,,,,,,55885869fdf99b4020ba0b64,Mexican,13 or older,"no, only English or Spanish",no,2025-07-23_08h17.19.817,empathy_intonation_perc,2024.2.4,Win32,120.1923077,55885869fdf99b4020ba0b64,687ed1b7e638a4cbf2f02089,6880d2adf6b204a7ade82806,,,,,,,,,,,,,,0,,,,,,,,,,,,,,,,,,,,,,,,,,,,,,,,,,,,,,,,,,,,436.534,438.613,0,1,1.548,,438.613,439.611,0,6,6,6,1,0,priba,REAL,FAKE,,,,,,,,,,,,,,,,,,,,,,,,,,,,,,,,
,,,,,,,,,55885869fdf99b4020ba0b64,Mexican,13 or older,"no, only English or Spanish",no,2025-07-23_08h17.19.817,empathy_intonation_perc,2024.2.4,Win32,120.1923077,55885869fdf99b4020ba0b64,687ed1b7e638a4cbf2f02089,6880d2adf6b204a7ade82806,,,,,,,,,,,,,,0,,,,,,,,,,,,,,,,,,,,,,,,,,,,,,,,,,,,,,,,,,,,439.613,441.45,1,0,1.318,,441.45,442.447,0,7,7,7,1,0,pelasula,REAL,FAKE,,,,,,,,,,,,,,,,,,,,,,,,,,,,,,,,
,,,,,,,,,55885869fdf99b4020ba0b64,Mexican,13 or older,"no, only English or Spanish",no,2025-07-23_08h17.19.817,empathy_intonation_perc,2024.2.4,Win32,120.1923077,55885869fdf99b4020ba0b64,687ed1b7e638a4cbf2f02089,6880d2adf6b204a7ade82806,,,,,,,,,,,,,,1,,,,,,,,,,,,,,,,,,,,,,,,,,,,,,,,,,,,,,,,,,,,442.448,444.327,0,0,1.358,,444.327,445.325,0,8,8,8,1,0,bien,REAL,FAKE,,,,,,,,,,,,,,,,,,,,,,,,,,,,,,,,
,,,,,,,,,55885869fdf99b4020ba0b64,Mexican,13 or older,"no, only English or Spanish",no,2025-07-23_08h17.19.817,empathy_intonation_perc,2024.2.4,Win32,120.1923077,55885869fdf99b4020ba0b64,687ed1b7e638a4cbf2f02089,6880d2adf6b204a7ade82806,,,,,,,,,,,,,,1,,,,,,,,,,,,,,,,,,,,,,,,,,,,,,,,,,,,,,,,,,,,445.326,446.416,1,1,0.564,,446.416,447.414,0,9,9,9,1,0,casa,REAL,FAKE,,,,,,,,,,,,,,,,,,,,,,,,,,,,,,,,
,,,,,,,,,55885869fdf99b4020ba0b64,Mexican,13 or older,"no, only English or Spanish",no,2025-07-23_08h17.19.817,empathy_intonation_perc,2024.2.4,Win32,120.1923077,55885869fdf99b4020ba0b64,687ed1b7e638a4cbf2f02089,6880d2adf6b204a7ade82806,,,,,,,,,,,,,,0,,,,,,,,,,,,,,,,,,,,,,,,,,,,,,,,,,,,,,,,,,,,447.417,448.528,0,1,0.599,,448.528,449.527,0,10,10,10,1,0,lejo,REAL,FAKE,,,,,,,,,,,,,,,,,,,,,,,,,,,,,,,,
,,,,,,,,,55885869fdf99b4020ba0b64,Mexican,13 or older,"no, only English or Spanish",no,2025-07-23_08h17.19.817,empathy_intonation_perc,2024.2.4,Win32,120.1923077,55885869fdf99b4020ba0b64,687ed1b7e638a4cbf2f02089,6880d2adf6b204a7ade82806,,,,,,,,,,,,,,0,,,,,,,,,,,,,,,,,,,,,,,,,,,,,,,,,,,,,,,,,,,,449.528,451.324,1,0,1.282,,451.324,452.322,0,11,11,11,1,0,pretantas,REAL,FAKE,,,,,,,,,,,,,,,,,,,,,,,,,,,,,,,,
,,,,,,,,,55885869fdf99b4020ba0b64,Mexican,13 or older,"no, only English or Spanish",no,2025-07-23_08h17.19.817,empathy_intonation_perc,2024.2.4,Win32,120.1923077,55885869fdf99b4020ba0b64,687ed1b7e638a4cbf2f02089,6880d2adf6b204a7ade82806,,,,,,,,,,,,,,,,,,,,,,,,,,,,,,,,,,,,,,,,,,,,,,,,,,,,,,,,,,,,,,,,,,,,,,,,,,,452.322,481.27,,,,,,,,,,,,,,,,,,,,,,,,,,,,,,
,,,,,,,,,55885869fdf99b4020ba0b64,Mexican,13 or older,"no, only English or Spanish",no,2025-07-23_08h17.19.817,empathy_intonation_perc,2024.2.4,Win32,120.1923077,55885869fdf99b4020ba0b64,687ed1b7e638a4cbf2f02089,6880d2adf6b204a7ade82806,,,,,,,,,,,,,,1,,,,,,,,,,,,,,,,,,,,,,,,,,,,,,,,,,,,,,,,,,,,,,,,,,,,,,,,,45,jilguero,,,,,481.282,483.009,0,0,1.202,,0,0,0,44,1,REAL,FAKE,,,,,,,,,,,,,,,,,
,,,,,,,,,55885869fdf99b4020ba0b64,Mexican,13 or older,"no, only English or Spanish",no,2025-07-23_08h17.19.817,empathy_intonation_perc,2024.2.4,Win32,120.1923077,55885869fdf99b4020ba0b64,687ed1b7e638a4cbf2f02089,6880d2adf6b204a7ade82806,,,,,,,,,,,,,,1,,,,,,,,,,,,,,,,,,,,,,,,,,,,,,,,,,,,,,,,,,,,,,,,,,,,,,,,,34,aviso,,,,,483.01,484.431,1,1,0.899,,0,1,1,33,1,REAL,FAKE,,,,,,,,,,,,,,,,,
,,,,,,,,,55885869fdf99b4020ba0b64,Mexican,13 or older,"no, only English or Spanish",no,2025-07-23_08h17.19.817,empathy_intonation_perc,2024.2.4,Win32,120.1923077,55885869fdf99b4020ba0b64,687ed1b7e638a4cbf2f02089,6880d2adf6b204a7ade82806,,,,,,,,,,,,,,0,,,,,,,,,,,,,,,,,,,,,,,,,,,,,,,,,,,,,,,,,,,,,,,,,,,,,,,,,19,brecedad,,,,,484.432,485.879,0,1,0.922,,0,2,2,18,1,REAL,FAKE,,,,,,,,,,,,,,,,,
,,,,,,,,,55885869fdf99b4020ba0b64,Mexican,13 or older,"no, only English or Spanish",no,2025-07-23_08h17.19.817,empathy_intonation_perc,2024.2.4,Win32,120.1923077,55885869fdf99b4020ba0b64,687ed1b7e638a4cbf2f02089,6880d2adf6b204a7ade82806,,,,,,,,,,,,,,1,,,,,,,,,,,,,,,,,,,,,,,,,,,,,,,,,,,,,,,,,,,,,,,,,,,,,,,,,88,acantilado,,,,,485.88,487.21,0,0,0.8,,0,3,3,87,1,REAL,FAKE,,,,,,,,,,,,,,,,,
,,,,,,,,,55885869fdf99b4020ba0b64,Mexican,13 or older,"no, only English or Spanish",no,2025-07-23_08h17.19.817,empathy_intonation_perc,2024.2.4,Win32,120.1923077,55885869fdf99b4020ba0b64,687ed1b7e638a4cbf2f02089,6880d2adf6b204a7ade82806,,,,,,,,,,,,,,1,,,,,,,,,,,,,,,,,,,,,,,,,,,,,,,,,,,,,,,,,,,,,,,,,,,,,,,,,25,bisagra,,,,,487.21,488.466,0,0,0.734,,0,4,4,24,1,REAL,FAKE,,,,,,,,,,,,,,,,,
,,,,,,,,,55885869fdf99b4020ba0b64,Mexican,13 or older,"no, only English or Spanish",no,2025-07-23_08h17.19.817,empathy_intonation_perc,2024.2.4,Win32,120.1923077,55885869fdf99b4020ba0b64,687ed1b7e638a4cbf2f02089,6880d2adf6b204a7ade82806,,,,,,,,,,,,,,0,,,,,,,,,,,,,,,,,,,,,,,,,,,,,,,,,,,,,,,,,,,,,,,,,,,,,,,,,35,rompido,,,,,488.467,489.98,1,0,0.996,,0,5,5,34,1,REAL,FAKE,,,,,,,,,,,,,,,,,
,,,,,,,,,55885869fdf99b4020ba0b64,Mexican,13 or older,"no, only English or Spanish",no,2025-07-23_08h17.19.817,empathy_intonation_perc,2024.2.4,Win32,120.1923077,55885869fdf99b4020ba0b64,687ed1b7e638a4cbf2f02089,6880d2adf6b204a7ade82806,,,,,,,,,,,,,,1,,,,,,,,,,,,,,,,,,,,,,,,,,,,,,,,,,,,,,,,,,,,,,,,,,,,,,,,,78,frondoso,,,,,489.981,491.901,0,0,1.397,,0,6,6,77,1,REAL,FAKE,,,,,,,,,,,,,,,,,
,,,,,,,,,55885869fdf99b4020ba0b64,Mexican,13 or older,"no, only English or Spanish",no,2025-07-23_08h17.19.817,empathy_intonation_perc,2024.2.4,Win32,120.1923077,55885869fdf99b4020ba0b64,687ed1b7e638a4cbf2f02089,6880d2adf6b204a7ade82806,,,,,,,,,,,,,,1,,,,,,,,,,,,,,,,,,,,,,,,,,,,,,,,,,,,,,,,,,,,,,,,,,,,,,,,,89,prisa,,,,,491.902,493.249,0,0,0.822,,0,7,7,88,1,REAL,FAKE,,,,,,,,,,,,,,,,,
,,,,,,,,,55885869fdf99b4020ba0b64,Mexican,13 or older,"no, only English or Spanish",no,2025-07-23_08h17.19.817,empathy_intonation_perc,2024.2.4,Win32,120.1923077,55885869fdf99b4020ba0b64,687ed1b7e638a4cbf2f02089,6880d2adf6b204a7ade82806,,,,,,,,,,,,,,1,,,,,,,,,,,,,,,,,,,,,,,,,,,,,,,,,,,,,,,,,,,,,,,,,,,,,,,,,76,atar,,,,,493.25,494.671,0,0,0.896,,0,8,8,75,1,REAL,FAKE,,,,,,,,,,,,,,,,,
,,,,,,,,,55885869fdf99b4020ba0b64,Mexican,13 or older,"no, only English or Spanish",no,2025-07-23_08h17.19.817,empathy_intonation_perc,2024.2.4,Win32,120.1923077,55885869fdf99b4020ba0b64,687ed1b7e638a4cbf2f02089,6880d2adf6b204a7ade82806,,,,,,,,,,,,,,0,,,,,,,,,,,,,,,,,,,,,,,,,,,,,,,,,,,,,,,,,,,,,,,,,,,,,,,,,72,pemición,,,,,494.672,495.936,1,0,0.747,,0,9,9,71,1,REAL,FAKE,,,,,,,,,,,,,,,,,
,,,,,,,,,55885869fdf99b4020ba0b64,Mexican,13 or older,"no, only English or Spanish",no,2025-07-23_08h17.19.817,empathy_intonation_perc,2024.2.4,Win32,120.1923077,55885869fdf99b4020ba0b64,687ed1b7e638a4cbf2f02089,6880d2adf6b204a7ade82806,,,,,,,,,,,,,,1,,,,,,,,,,,,,,,,,,,,,,,,,,,,,,,,,,,,,,,,,,,,,,,,,,,,,,,,,7,pésimo,,,,,495.937,497.084,1,1,0.625,,0,10,10,6,1,REAL,FAKE,,,,,,,,,,,,,,,,,
,,,,,,,,,55885869fdf99b4020ba0b64,Mexican,13 or older,"no, only English or Spanish",no,2025-07-23_08h17.19.817,empathy_intonation_perc,2024.2.4,Win32,120.1923077,55885869fdf99b4020ba0b64,687ed1b7e638a4cbf2f02089,6880d2adf6b204a7ade82806,,,,,,,,,,,,,,1,,,,,,,,,,,,,,,,,,,,,,,,,,,,,,,,,,,,,,,,,,,,,,,,,,,,,,,,,80,hormiga,,,,,497.085,498.224,0,0,0.618,,0,11,11,79,1,REAL,FAKE,,,,,,,,,,,,,,,,,
,,,,,,,,,55885869fdf99b4020ba0b64,Mexican,13 or older,"no, only English or Spanish",no,2025-07-23_08h17.19.817,empathy_intonation_perc,2024.2.4,Win32,120.1923077,55885869fdf99b4020ba0b64,687ed1b7e638a4cbf2f02089,6880d2adf6b204a7ade82806,,,,,,,,,,,,,,0,,,,,,,,,,,,,,,,,,,,,,,,,,,,,,,,,,,,,,,,,,,,,,,,,,,,,,,,,58,plaudir,,,,,498.225,499.463,0,1,0.707,,0,12,12,57,1,REAL,FAKE,,,,,,,,,,,,,,,,,
,,,,,,,,,55885869fdf99b4020ba0b64,Mexican,13 or older,"no, only English or Spanish",no,2025-07-23_08h17.19.817,empathy_intonation_perc,2024.2.4,Win32,120.1923077,55885869fdf99b4020ba0b64,687ed1b7e638a4cbf2f02089,6880d2adf6b204a7ade82806,,,,,,,,,,,,,,1,,,,,,,,,,,,,,,,,,,,,,,,,,,,,,,,,,,,,,,,,,,,,,,,,,,,,,,,,90,clavel,,,,,499.464,500.777,1,1,0.797,,0,13,13,89,1,REAL,FAKE,,,,,,,,,,,,,,,,,
,,,,,,,,,55885869fdf99b4020ba0b64,Mexican,13 or older,"no, only English or Spanish",no,2025-07-23_08h17.19.817,empathy_intonation_perc,2024.2.4,Win32,120.1923077,55885869fdf99b4020ba0b64,687ed1b7e638a4cbf2f02089,6880d2adf6b204a7ade82806,,,,,,,,,,,,,,1,,,,,,,,,,,,,,,,,,,,,,,,,,,,,,,,,,,,,,,,,,,,,,,,,,,,,,,,,40,alfombra,,,,,500.778,502.117,0,0,0.814,,0,14,14,39,1,REAL,FAKE,,,,,,,,,,,,,,,,,
,,,,,,,,,55885869fdf99b4020ba0b64,Mexican,13 or older,"no, only English or Spanish",no,2025-07-23_08h17.19.817,empathy_intonation_perc,2024.2.4,Win32,120.1923077,55885869fdf99b4020ba0b64,687ed1b7e638a4cbf2f02089,6880d2adf6b204a7ade82806,,,,,,,,,,,,,,1,,,,,,,,,,,,,,,,,,,,,,,,,,,,,,,,,,,,,,,,,,,,,,,,,,,,,,,,,67,cabello,,,,,502.118,503.448,1,1,0.811,,0,15,15,66,1,REAL,FAKE,,,,,,,,,,,,,,,,,
,,,,,,,,,55885869fdf99b4020ba0b64,Mexican,13 or older,"no, only English or Spanish",no,2025-07-23_08h17.19.817,empathy_intonation_perc,2024.2.4,Win32,120.1923077,55885869fdf99b4020ba0b64,687ed1b7e638a4cbf2f02089,6880d2adf6b204a7ade82806,,,,,,,,,,,,,,0,,,,,,,,,,,,,,,,,,,,,,,,,,,,,,,,,,,,,,,,,,,,,,,,,,,,,,,,,82,empirador,,,,,503.448,504.771,0,1,0.796,,0,16,16,81,1,REAL,FAKE,,,,,,,,,,,,,,,,,
,,,,,,,,,55885869fdf99b4020ba0b64,Mexican,13 or older,"no, only English or Spanish",no,2025-07-23_08h17.19.817,empathy_intonation_perc,2024.2.4,Win32,120.1923077,55885869fdf99b4020ba0b64,687ed1b7e638a4cbf2f02089,6880d2adf6b204a7ade82806,,,,,,,,,,,,,,1,,,,,,,,,,,,,,,,,,,,,,,,,,,,,,,,,,,,,,,,,,,,,,,,,,,,,,,,,41,rebuscar,,,,,504.771,506.034,0,0,0.744,,0,17,17,40,1,REAL,FAKE,,,,,,,,,,,,,,,,,
,,,,,,,,,55885869fdf99b4020ba0b64,Mexican,13 or older,"no, only English or Spanish",no,2025-07-23_08h17.19.817,empathy_intonation_perc,2024.2.4,Win32,120.1923077,55885869fdf99b4020ba0b64,687ed1b7e638a4cbf2f02089,6880d2adf6b204a7ade82806,,,,,,,,,,,,,,0,,,,,,,,,,,,,,,,,,,,,,,,,,,,,,,,,,,,,,,,,,,,,,,,,,,,,,,,,29,decar,,,,,506.036,507.316,0,1,0.764,,0,18,18,28,1,REAL,FAKE,,,,,,,,,,,,,,,,,
,,,,,,,,,55885869fdf99b4020ba0b64,Mexican,13 or older,"no, only English or Spanish",no,2025-07-23_08h17.19.817,empathy_intonation_perc,2024.2.4,Win32,120.1923077,55885869fdf99b4020ba0b64,687ed1b7e638a4cbf2f02089,6880d2adf6b204a7ade82806,,,,,,,,,,,,,,1,,,,,,,,,,,,,,,,,,,,,,,,,,,,,,,,,,,,,,,,,,,,,,,,,,,,,,,,,13,helar,,,,,507.317,508.581,0,0,0.74,,0,19,19,12,1,REAL,FAKE,,,,,,,,,,,,,,,,,
,,,,,,,,,55885869fdf99b4020ba0b64,Mexican,13 or older,"no, only English or Spanish",no,2025-07-23_08h17.19.817,empathy_intonation_perc,2024.2.4,Win32,120.1923077,55885869fdf99b4020ba0b64,687ed1b7e638a4cbf2f02089,6880d2adf6b204a7ade82806,,,,,,,,,,,,,,0,,,,,,,,,,,,,,,,,,,,,,,,,,,,,,,,,,,,,,,,,,,,,,,,,,,,,,,,,63,esposante,,,,,508.581,509.754,1,0,0.642,,0,20,20,62,1,REAL,FAKE,,,,,,,,,,,,,,,,,
,,,,,,,,,55885869fdf99b4020ba0b64,Mexican,13 or older,"no, only English or Spanish",no,2025-07-23_08h17.19.817,empathy_intonation_perc,2024.2.4,Win32,120.1923077,55885869fdf99b4020ba0b64,687ed1b7e638a4cbf2f02089,6880d2adf6b204a7ade82806,,,,,,,,,,,,,,1,,,,,,,,,,,,,,,,,,,,,,,,,,,,,,,,,,,,,,,,,,,,,,,,,,,,,,,,,5,zapato,,,,,509.756,510.868,0,0,0.583,,0,21,21,4,1,REAL,FAKE,,,,,,,,,,,,,,,,,
,,,,,,,,,55885869fdf99b4020ba0b64,Mexican,13 or older,"no, only English or Spanish",no,2025-07-23_08h17.19.817,empathy_intonation_perc,2024.2.4,Win32,120.1923077,55885869fdf99b4020ba0b64,687ed1b7e638a4cbf2f02089,6880d2adf6b204a7ade82806,,,,,,,,,,,,,,0,,,,,,,,,,,,,,,,,,,,,,,,,,,,,,,,,,,,,,,,,,,,,,,,,,,,,,,,,74,cintro,,,,,510.868,512.257,1,0,0.869,,0,22,22,73,1,REAL,FAKE,,,,,,,,,,,,,,,,,
,,,,,,,,,55885869fdf99b4020ba0b64,Mexican,13 or older,"no, only English or Spanish",no,2025-07-23_08h17.19.817,empathy_intonation_perc,2024.2.4,Win32,120.1923077,55885869fdf99b4020ba0b64,687ed1b7e638a4cbf2f02089,6880d2adf6b204a7ade82806,,,,,,,,,,,,,,1,,,,,,,,,,,,,,,,,,,,,,,,,,,,,,,,,,,,,,,,,,,,,,,,,,,,,,,,,49,ganar,,,,,512.258,513.372,0,0,0.595,,0,23,23,48,1,REAL,FAKE,,,,,,,,,,,,,,,,,
,,,,,,,,,55885869fdf99b4020ba0b64,Mexican,13 or older,"no, only English or Spanish",no,2025-07-23_08h17.19.817,empathy_intonation_perc,2024.2.4,Win32,120.1923077,55885869fdf99b4020ba0b64,687ed1b7e638a4cbf2f02089,6880d2adf6b204a7ade82806,,,,,,,,,,,,,,0,,,,,,,,,,,,,,,,,,,,,,,,,,,,,,,,,,,,,,,,,,,,,,,,,,,,,,,,,27,acutación,,,,,513.373,514.553,1,0,0.656,,0,24,24,26,1,REAL,FAKE,,,,,,,,,,,,,,,,,
,,,,,,,,,55885869fdf99b4020ba0b64,Mexican,13 or older,"no, only English or Spanish",no,2025-07-23_08h17.19.817,empathy_intonation_perc,2024.2.4,Win32,120.1923077,55885869fdf99b4020ba0b64,687ed1b7e638a4cbf2f02089,6880d2adf6b204a7ade82806,,,,,,,,,,,,,,1,,,,,,,,,,,,,,,,,,,,,,,,,,,,,,,,,,,,,,,,,,,,,,,,,,,,,,,,,69,engatusar,,,,,514.554,516.342,1,1,1.262,,0,25,25,68,1,REAL,FAKE,,,,,,,,,,,,,,,,,
,,,,,,,,,55885869fdf99b4020ba0b64,Mexican,13 or older,"no, only English or Spanish",no,2025-07-23_08h17.19.817,empathy_intonation_perc,2024.2.4,Win32,120.1923077,55885869fdf99b4020ba0b64,687ed1b7e638a4cbf2f02089,6880d2adf6b204a7ade82806,,,,,,,,,,,,,,1,,,,,,,,,,,,,,,,,,,,,,,,,,,,,,,,,,,,,,,,,,,,,,,,,,,,,,,,,11,cenefa,,,,,516.343,517.656,0,0,0.794,,0,26,26,10,1,REAL,FAKE,,,,,,,,,,,,,,,,,
,,,,,,,,,55885869fdf99b4020ba0b64,Mexican,13 or older,"no, only English or Spanish",no,2025-07-23_08h17.19.817,empathy_intonation_perc,2024.2.4,Win32,120.1923077,55885869fdf99b4020ba0b64,687ed1b7e638a4cbf2f02089,6880d2adf6b204a7ade82806,,,,,,,,,,,,,,1,,,,,,,,,,,,,,,,,,,,,,,,,,,,,,,,,,,,,,,,,,,,,,,,,,,,,,,,,56,musgo,,,,,517.656,518.92,0,0,0.736,,0,27,27,55,1,REAL,FAKE,,,,,,,,,,,,,,,,,
,,,,,,,,,55885869fdf99b4020ba0b64,Mexican,13 or older,"no, only English or Spanish",no,2025-07-23_08h17.19.817,empathy_intonation_perc,2024.2.4,Win32,120.1923077,55885869fdf99b4020ba0b64,687ed1b7e638a4cbf2f02089,6880d2adf6b204a7ade82806,,,,,,,,,,,,,,0,,,,,,,,,,,,,,,,,,,,,,,,,,,,,,,,,,,,,,,,,,,,,,,,,,,,,,,,,1,terzo,,,,,518.921,520.476,1,0,1.025,,0,28,28,0,1,REAL,FAKE,,,,,,,,,,,,,,,,,
,,,,,,,,,55885869fdf99b4020ba0b64,Mexican,13 or older,"no, only English or Spanish",no,2025-07-23_08h17.19.817,empathy_intonation_perc,2024.2.4,Win32,120.1923077,55885869fdf99b4020ba0b64,687ed1b7e638a4cbf2f02089,6880d2adf6b204a7ade82806,,,,,,,,,,,,,,1,,,,,,,,,,,,,,,,,,,,,,,,,,,,,,,,,,,,,,,,,,,,,,,,,,,,,,,,,24,látigo,,,,,520.476,521.698,1,1,0.701,,0,29,29,23,1,REAL,FAKE,,,,,,,,,,,,,,,,,
,,,,,,,,,55885869fdf99b4020ba0b64,Mexican,13 or older,"no, only English or Spanish",no,2025-07-23_08h17.19.817,empathy_intonation_perc,2024.2.4,Win32,120.1923077,55885869fdf99b4020ba0b64,687ed1b7e638a4cbf2f02089,6880d2adf6b204a7ade82806,,,,,,,,,,,,,,1,,,,,,,,,,,,,,,,,,,,,,,,,,,,,,,,,,,,,,,,,,,,,,,,,,,,,,,,,77,tiburón,,,,,521.699,522.697,1,1,0.473,,0,30,30,76,1,REAL,FAKE,,,,,,,,,,,,,,,,,
,,,,,,,,,55885869fdf99b4020ba0b64,Mexican,13 or older,"no, only English or Spanish",no,2025-07-23_08h17.19.817,empathy_intonation_perc,2024.2.4,Win32,120.1923077,55885869fdf99b4020ba0b64,687ed1b7e638a4cbf2f02089,6880d2adf6b204a7ade82806,,,,,,,,,,,,,,1,,,,,,,,,,,,,,,,,,,,,,,,,,,,,,,,,,,,,,,,,,,,,,,,,,,,,,,,,43,canela,,,,,522.698,524.286,1,1,1.073,,0,31,31,42,1,REAL,FAKE,,,,,,,,,,,,,,,,,
,,,,,,,,,55885869fdf99b4020ba0b64,Mexican,13 or older,"no, only English or Spanish",no,2025-07-23_08h17.19.817,empathy_intonation_perc,2024.2.4,Win32,120.1923077,55885869fdf99b4020ba0b64,687ed1b7e638a4cbf2f02089,6880d2adf6b204a7ade82806,,,,,,,,,,,,,,1,,,,,,,,,,,,,,,,,,,,,,,,,,,,,,,,,,,,,,,,,,,,,,,,,,,,,,,,,68,alegre,,,,,524.286,525.509,0,0,0.699,,0,32,32,67,1,REAL,FAKE,,,,,,,,,,,,,,,,,
,,,,,,,,,55885869fdf99b4020ba0b64,Mexican,13 or older,"no, only English or Spanish",no,2025-07-23_08h17.19.817,empathy_intonation_perc,2024.2.4,Win32,120.1923077,55885869fdf99b4020ba0b64,687ed1b7e638a4cbf2f02089,6880d2adf6b204a7ade82806,,,,,,,,,,,,,,0,,,,,,,,,,,,,,,,,,,,,,,,,,,,,,,,,,,,,,,,,,,,,,,,,,,,,,,,,70,temblo,,,,,525.509,526.965,0,1,0.93,,0,33,33,69,1,REAL,FAKE,,,,,,,,,,,,,,,,,
,,,,,,,,,55885869fdf99b4020ba0b64,Mexican,13 or older,"no, only English or Spanish",no,2025-07-23_08h17.19.817,empathy_intonation_perc,2024.2.4,Win32,120.1923077,55885869fdf99b4020ba0b64,687ed1b7e638a4cbf2f02089,6880d2adf6b204a7ade82806,,,,,,,,,,,,,,0,,,,,,,,,,,,,,,,,,,,,,,,,,,,,,,,,,,,,,,,,,,,,,,,,,,,,,,,,53,vegada,,,,,526.966,528.096,0,1,0.603,,0,34,34,52,1,REAL,FAKE,,,,,,,,,,,,,,,,,
,,,,,,,,,55885869fdf99b4020ba0b64,Mexican,13 or older,"no, only English or Spanish",no,2025-07-23_08h17.19.817,empathy_intonation_perc,2024.2.4,Win32,120.1923077,55885869fdf99b4020ba0b64,687ed1b7e638a4cbf2f02089,6880d2adf6b204a7ade82806,,,,,,,,,,,,,,1,,,,,,,,,,,,,,,,,,,,,,,,,,,,,,,,,,,,,,,,,,,,,,,,,,,,,,,,,9,hacha,,,,,528.096,529.418,1,1,0.804,,0,35,35,8,1,REAL,FAKE,,,,,,,,,,,,,,,,,
,,,,,,,,,55885869fdf99b4020ba0b64,Mexican,13 or older,"no, only English or Spanish",no,2025-07-23_08h17.19.817,empathy_intonation_perc,2024.2.4,Win32,120.1923077,55885869fdf99b4020ba0b64,687ed1b7e638a4cbf2f02089,6880d2adf6b204a7ade82806,,,,,,,,,,,,,,1,,,,,,,,,,,,,,,,,,,,,,,,,,,,,,,,,,,,,,,,,,,,,,,,,,,,,,,,,38,estornudar,,,,,529.419,530.874,1,1,0.924,,0,36,36,37,1,REAL,FAKE,,,,,,,,,,,,,,,,,
,,,,,,,,,55885869fdf99b4020ba0b64,Mexican,13 or older,"no, only English or Spanish",no,2025-07-23_08h17.19.817,empathy_intonation_perc,2024.2.4,Win32,120.1923077,55885869fdf99b4020ba0b64,687ed1b7e638a4cbf2f02089,6880d2adf6b204a7ade82806,,,,,,,,,,,,,,1,,,,,,,,,,,,,,,,,,,,,,,,,,,,,,,,,,,,,,,,,,,,,,,,,,,,,,,,,64,orgulloso,,,,,530.875,532.379,0,0,0.935,,0,37,37,63,1,REAL,FAKE,,,,,,,,,,,,,,,,,
,,,,,,,,,55885869fdf99b4020ba0b64,Mexican,13 or older,"no, only English or Spanish",no,2025-07-23_08h17.19.817,empathy_intonation_perc,2024.2.4,Win32,120.1923077,55885869fdf99b4020ba0b64,687ed1b7e638a4cbf2f02089,6880d2adf6b204a7ade82806,,,,,,,,,,,,,,1,,,,,,,,,,,,,,,,,,,,,,,,,,,,,,,,,,,,,,,,,,,,,,,,,,,,,,,,,91,click the 1 key.,,,,,532.38,533.902,1,1,0.992,,0,38,38,90,1,REAL,FAKE,,,,,,,,,,,,,,,,,
,,,,,,,,,55885869fdf99b4020ba0b64,Mexican,13 or older,"no, only English or Spanish",no,2025-07-23_08h17.19.817,empathy_intonation_perc,2024.2.4,Win32,120.1923077,55885869fdf99b4020ba0b64,687ed1b7e638a4cbf2f02089,6880d2adf6b204a7ade82806,,,,,,,,,,,,,,1,,,,,,,,,,,,,,,,,,,,,,,,,,,,,,,,,,,,,,,,,,,,,,,,,,,,,,,,,15,regar,,,,,533.902,535.084,0,0,0.656,,0,39,39,14,1,REAL,FAKE,,,,,,,,,,,,,,,,,
,,,,,,,,,55885869fdf99b4020ba0b64,Mexican,13 or older,"no, only English or Spanish",no,2025-07-23_08h17.19.817,empathy_intonation_perc,2024.2.4,Win32,120.1923077,55885869fdf99b4020ba0b64,687ed1b7e638a4cbf2f02089,6880d2adf6b204a7ade82806,,,,,,,,,,,,,,1,,,,,,,,,,,,,,,,,,,,,,,,,,,,,,,,,,,,,,,,,,,,,,,,,,,,,,,,,60,matar,,,,,535.085,536.406,0,0,0.802,,0,40,40,59,1,REAL,FAKE,,,,,,,,,,,,,,,,,
,,,,,,,,,55885869fdf99b4020ba0b64,Mexican,13 or older,"no, only English or Spanish",no,2025-07-23_08h17.19.817,empathy_intonation_perc,2024.2.4,Win32,120.1923077,55885869fdf99b4020ba0b64,687ed1b7e638a4cbf2f02089,6880d2adf6b204a7ade82806,,,,,,,,,,,,,,1,,,,,,,,,,,,,,,,,,,,,,,,,,,,,,,,,,,,,,,,,,,,,,,,,,,,,,,,,73,hervidor,,,,,536.406,537.529,1,1,0.591,,0,41,41,72,1,REAL,FAKE,,,,,,,,,,,,,,,,,
,,,,,,,,,55885869fdf99b4020ba0b64,Mexican,13 or older,"no, only English or Spanish",no,2025-07-23_08h17.19.817,empathy_intonation_perc,2024.2.4,Win32,120.1923077,55885869fdf99b4020ba0b64,687ed1b7e638a4cbf2f02089,6880d2adf6b204a7ade82806,,,,,,,,,,,,,,1,,,,,,,,,,,,,,,,,,,,,,,,,,,,,,,,,,,,,,,,,,,,,,,,,,,,,,,,,36,loro,,,,,537.53,538.893,0,0,0.849,,0,42,42,35,1,REAL,FAKE,,,,,,,,,,,,,,,,,
,,,,,,,,,55885869fdf99b4020ba0b64,Mexican,13 or older,"no, only English or Spanish",no,2025-07-23_08h17.19.817,empathy_intonation_perc,2024.2.4,Win32,120.1923077,55885869fdf99b4020ba0b64,687ed1b7e638a4cbf2f02089,6880d2adf6b204a7ade82806,,,,,,,,,,,,,,0,,,,,,,,,,,,,,,,,,,,,,,,,,,,,,,,,,,,,,,,,,,,,,,,,,,,,,,,,32,fatacidad,,,,,538.894,541.247,0,1,1.834,,0,43,43,31,1,REAL,FAKE,,,,,,,,,,,,,,,,,
,,,,,,,,,55885869fdf99b4020ba0b64,Mexican,13 or older,"no, only English or Spanish",no,2025-07-23_08h17.19.817,empathy_intonation_perc,2024.2.4,Win32,120.1923077,55885869fdf99b4020ba0b64,687ed1b7e638a4cbf2f02089,6880d2adf6b204a7ade82806,,,,,,,,,,,,,,0,,,,,,,,,,,,,,,,,,,,,,,,,,,,,,,,,,,,,,,,,,,,,,,,,,,,,,,,,4,batillón,,,,,541.248,542.395,1,0,0.623,,0,44,44,3,1,REAL,FAKE,,,,,,,,,,,,,,,,,
,,,,,,,,,55885869fdf99b4020ba0b64,Mexican,13 or older,"no, only English or Spanish",no,2025-07-23_08h17.19.817,empathy_intonation_perc,2024.2.4,Win32,120.1923077,55885869fdf99b4020ba0b64,687ed1b7e638a4cbf2f02089,6880d2adf6b204a7ade82806,,,,,,,,,,,,,,1,,,,,,,,,,,,,,,,,,,,,,,,,,,,,,,,,,,,,,,,,,,,,,,,,,,,,,,,,37,granuja,,,,,542.395,543.626,0,0,0.715,,0,45,45,36,1,REAL,FAKE,,,,,,,,,,,,,,,,,
,,,,,,,,,55885869fdf99b4020ba0b64,Mexican,13 or older,"no, only English or Spanish",no,2025-07-23_08h17.19.817,empathy_intonation_perc,2024.2.4,Win32,120.1923077,55885869fdf99b4020ba0b64,687ed1b7e638a4cbf2f02089,6880d2adf6b204a7ade82806,,,,,,,,,,,,,,0,,,,,,,,,,,,,,,,,,,,,,,,,,,,,,,,,,,,,,,,,,,,,,,,,,,,,,,,,30,alardio,,,,,543.628,544.774,0,1,0.624,,0,46,46,29,1,REAL,FAKE,,,,,,,,,,,,,,,,,
,,,,,,,,,55885869fdf99b4020ba0b64,Mexican,13 or older,"no, only English or Spanish",no,2025-07-23_08h17.19.817,empathy_intonation_perc,2024.2.4,Win32,120.1923077,55885869fdf99b4020ba0b64,687ed1b7e638a4cbf2f02089,6880d2adf6b204a7ade82806,,,,,,,,,,,,,,1,,,,,,,,,,,,,,,,,,,,,,,,,,,,,,,,,,,,,,,,,,,,,,,,,,,,,,,,,83,guante,,,,,544.775,546.105,0,0,0.809,,0,47,47,82,1,REAL,FAKE,,,,,,,,,,,,,,,,,
,,,,,,,,,55885869fdf99b4020ba0b64,Mexican,13 or older,"no, only English or Spanish",no,2025-07-23_08h17.19.817,empathy_intonation_perc,2024.2.4,Win32,120.1923077,55885869fdf99b4020ba0b64,687ed1b7e638a4cbf2f02089,6880d2adf6b204a7ade82806,,,,,,,,,,,,,,0,,,,,,,,,,,,,,,,,,,,,,,,,,,,,,,,,,,,,,,,,,,,,,,,,,,,,,,,,21,capillo,,,,,546.106,547.279,1,0,0.66,,0,48,48,20,1,REAL,FAKE,,,,,,,,,,,,,,,,,
,,,,,,,,,55885869fdf99b4020ba0b64,Mexican,13 or older,"no, only English or Spanish",no,2025-07-23_08h17.19.817,empathy_intonation_perc,2024.2.4,Win32,120.1923077,55885869fdf99b4020ba0b64,687ed1b7e638a4cbf2f02089,6880d2adf6b204a7ade82806,,,,,,,,,,,,,,1,,,,,,,,,,,,,,,,,,,,,,,,,,,,,,,,,,,,,,,,,,,,,,,,,,,,,,,,,3,pulmones,,,,,547.28,548.426,0,0,0.626,,0,49,49,2,1,REAL,FAKE,,,,,,,,,,,,,,,,,
,,,,,,,,,55885869fdf99b4020ba0b64,Mexican,13 or older,"no, only English or Spanish",no,2025-07-23_08h17.19.817,empathy_intonation_perc,2024.2.4,Win32,120.1923077,55885869fdf99b4020ba0b64,687ed1b7e638a4cbf2f02089,6880d2adf6b204a7ade82806,,,,,,,,,,,,,,0,,,,,,,,,,,,,,,,,,,,,,,,,,,,,,,,,,,,,,,,,,,,,,,,,,,,,,,,,50,flamida,,,,,548.427,549.798,0,1,0.853,,0,50,50,49,1,REAL,FAKE,,,,,,,,,,,,,,,,,
,,,,,,,,,55885869fdf99b4020ba0b64,Mexican,13 or older,"no, only English or Spanish",no,2025-07-23_08h17.19.817,empathy_intonation_perc,2024.2.4,Win32,120.1923077,55885869fdf99b4020ba0b64,687ed1b7e638a4cbf2f02089,6880d2adf6b204a7ade82806,,,,,,,,,,,,,,1,,,,,,,,,,,,,,,,,,,,,,,,,,,,,,,,,,,,,,,,,,,,,,,,,,,,,,,,,44,cuchara,,,,,549.799,551.013,0,0,0.691,,0,51,51,43,1,REAL,FAKE,,,,,,,,,,,,,,,,,
,,,,,,,,,55885869fdf99b4020ba0b64,Mexican,13 or older,"no, only English or Spanish",no,2025-07-23_08h17.19.817,empathy_intonation_perc,2024.2.4,Win32,120.1923077,55885869fdf99b4020ba0b64,687ed1b7e638a4cbf2f02089,6880d2adf6b204a7ade82806,,,,,,,,,,,,,,0,,,,,,,,,,,,,,,,,,,,,,,,,,,,,,,,,,,,,,,,,,,,,,,,,,,,,,,,,92,click the 0 key.,,,,,551.014,552.635,0,1,1.093,,0,52,52,91,1,REAL,FAKE,,,,,,,,,,,,,,,,,
,,,,,,,,,55885869fdf99b4020ba0b64,Mexican,13 or older,"no, only English or Spanish",no,2025-07-23_08h17.19.817,empathy_intonation_perc,2024.2.4,Win32,120.1923077,55885869fdf99b4020ba0b64,687ed1b7e638a4cbf2f02089,6880d2adf6b204a7ade82806,,,,,,,,,,,,,,0,,,,,,,,,,,,,,,,,,,,,,,,,,,,,,,,,,,,,,,,,,,,,,,,,,,,,,,,,79,tropaje,,,,,552.636,553.758,0,1,0.598,,0,53,53,78,1,REAL,FAKE,,,,,,,,,,,,,,,,,
,,,,,,,,,55885869fdf99b4020ba0b64,Mexican,13 or older,"no, only English or Spanish",no,2025-07-23_08h17.19.817,empathy_intonation_perc,2024.2.4,Win32,120.1923077,55885869fdf99b4020ba0b64,687ed1b7e638a4cbf2f02089,6880d2adf6b204a7ade82806,,,,,,,,,,,,,,1,,,,,,,,,,,,,,,,,,,,,,,,,,,,,,,,,,,,,,,,,,,,,,,,,,,,,,,,,26,secuestro,,,,,553.759,554.865,0,0,0.592,,0,54,54,25,1,REAL,FAKE,,,,,,,,,,,,,,,,,
,,,,,,,,,55885869fdf99b4020ba0b64,Mexican,13 or older,"no, only English or Spanish",no,2025-07-23_08h17.19.817,empathy_intonation_perc,2024.2.4,Win32,120.1923077,55885869fdf99b4020ba0b64,687ed1b7e638a4cbf2f02089,6880d2adf6b204a7ade82806,,,,,,,,,,,,,,1,,,,,,,,,,,,,,,,,,,,,,,,,,,,,,,,,,,,,,,,,,,,,,,,,,,,,,,,,28,merodear,,,,,554.865,556.063,0,0,0.666,,0,55,55,27,1,REAL,FAKE,,,,,,,,,,,,,,,,,
,,,,,,,,,55885869fdf99b4020ba0b64,Mexican,13 or older,"no, only English or Spanish",no,2025-07-23_08h17.19.817,empathy_intonation_perc,2024.2.4,Win32,120.1923077,55885869fdf99b4020ba0b64,687ed1b7e638a4cbf2f02089,6880d2adf6b204a7ade82806,,,,,,,,,,,,,,1,,,,,,,,,,,,,,,,,,,,,,,,,,,,,,,,,,,,,,,,,,,,,,,,,,,,,,,,,39,torpe,,,,,556.063,557.177,1,1,0.586,,0,56,56,38,1,REAL,FAKE,,,,,,,,,,,,,,,,,
,,,,,,,,,55885869fdf99b4020ba0b64,Mexican,13 or older,"no, only English or Spanish",no,2025-07-23_08h17.19.817,empathy_intonation_perc,2024.2.4,Win32,120.1923077,55885869fdf99b4020ba0b64,687ed1b7e638a4cbf2f02089,6880d2adf6b204a7ade82806,,,,,,,,,,,,,,1,,,,,,,,,,,,,,,,,,,,,,,,,,,,,,,,,,,,,,,,,,,,,,,,,,,,,,,,,55,nevar,,,,,557.177,558.467,0,0,0.766,,0,57,57,54,1,REAL,FAKE,,,,,,,,,,,,,,,,,
,,,,,,,,,55885869fdf99b4020ba0b64,Mexican,13 or older,"no, only English or Spanish",no,2025-07-23_08h17.19.817,empathy_intonation_perc,2024.2.4,Win32,120.1923077,55885869fdf99b4020ba0b64,687ed1b7e638a4cbf2f02089,6880d2adf6b204a7ade82806,,,,,,,,,,,,,,0,,,,,,,,,,,,,,,,,,,,,,,,,,,,,,,,,,,,,,,,,,,,,,,,,,,,,,,,,84,escuto,,,,,558.467,559.682,1,0,0.694,,0,58,58,83,1,REAL,FAKE,,,,,,,,,,,,,,,,,
,,,,,,,,,55885869fdf99b4020ba0b64,Mexican,13 or older,"no, only English or Spanish",no,2025-07-23_08h17.19.817,empathy_intonation_perc,2024.2.4,Win32,120.1923077,55885869fdf99b4020ba0b64,687ed1b7e638a4cbf2f02089,6880d2adf6b204a7ade82806,,,,,,,,,,,,,,1,,,,,,,,,,,,,,,,,,,,,,,,,,,,,,,,,,,,,,,,,,,,,,,,,,,,,,,,,61,seda,,,,,559.683,560.928,0,0,0.72,,0,59,59,60,1,REAL,FAKE,,,,,,,,,,,,,,,,,
,,,,,,,,,55885869fdf99b4020ba0b64,Mexican,13 or older,"no, only English or Spanish",no,2025-07-23_08h17.19.817,empathy_intonation_perc,2024.2.4,Win32,120.1923077,55885869fdf99b4020ba0b64,687ed1b7e638a4cbf2f02089,6880d2adf6b204a7ade82806,,,,,,,,,,,,,,1,,,,,,,,,,,,,,,,,,,,,,,,,,,,,,,,,,,,,,,,,,,,,,,,,,,,,,,,,85,laúd,,,,,560.929,562.076,1,1,0.623,,0,60,60,84,1,REAL,FAKE,,,,,,,,,,,,,,,,,
,,,,,,,,,55885869fdf99b4020ba0b64,Mexican,13 or older,"no, only English or Spanish",no,2025-07-23_08h17.19.817,empathy_intonation_perc,2024.2.4,Win32,120.1923077,55885869fdf99b4020ba0b64,687ed1b7e638a4cbf2f02089,6880d2adf6b204a7ade82806,,,,,,,,,,,,,,0,,,,,,,,,,,,,,,,,,,,,,,,,,,,,,,,,,,,,,,,,,,,,,,,,,,,,,,,,42,cadallo,,,,,562.078,563.2,0,1,0.598,,0,61,61,41,1,REAL,FAKE,,,,,,,,,,,,,,,,,
,,,,,,,,,55885869fdf99b4020ba0b64,Mexican,13 or older,"no, only English or Spanish",no,2025-07-23_08h17.19.817,empathy_intonation_perc,2024.2.4,Win32,120.1923077,55885869fdf99b4020ba0b64,687ed1b7e638a4cbf2f02089,6880d2adf6b204a7ade82806,,,,,,,,,,,,,,1,,,,,,,,,,,,,,,,,,,,,,,,,,,,,,,,,,,,,,,,,,,,,,,,,,,,,,,,,57,tacaño,,,,,563.201,564.397,1,1,0.668,,0,62,62,56,1,REAL,FAKE,,,,,,,,,,,,,,,,,
,,,,,,,,,55885869fdf99b4020ba0b64,Mexican,13 or older,"no, only English or Spanish",no,2025-07-23_08h17.19.817,empathy_intonation_perc,2024.2.4,Win32,120.1923077,55885869fdf99b4020ba0b64,687ed1b7e638a4cbf2f02089,6880d2adf6b204a7ade82806,,,,,,,,,,,,,,1,,,,,,,,,,,,,,,,,,,,,,,,,,,,,,,,,,,,,,,,,,,,,,,,,,,,,,,,,59,besar,,,,,564.398,565.604,0,0,0.676,,0,63,63,58,1,REAL,FAKE,,,,,,,,,,,,,,,,,
,,,,,,,,,55885869fdf99b4020ba0b64,Mexican,13 or older,"no, only English or Spanish",no,2025-07-23_08h17.19.817,empathy_intonation_perc,2024.2.4,Win32,120.1923077,55885869fdf99b4020ba0b64,687ed1b7e638a4cbf2f02089,6880d2adf6b204a7ade82806,,,,,,,,,,,,,,1,,,,,,,,,,,,,,,,,,,,,,,,,,,,,,,,,,,,,,,,,,,,,,,,,,,,,,,,,6,tergiversar,,,,,565.605,566.826,0,0,0.692,,0,64,64,5,1,REAL,FAKE,,,,,,,,,,,,,,,,,
,,,,,,,,,55885869fdf99b4020ba0b64,Mexican,13 or older,"no, only English or Spanish",no,2025-07-23_08h17.19.817,empathy_intonation_perc,2024.2.4,Win32,120.1923077,55885869fdf99b4020ba0b64,687ed1b7e638a4cbf2f02089,6880d2adf6b204a7ade82806,,,,,,,,,,,,,,0,,,,,,,,,,,,,,,,,,,,,,,,,,,,,,,,,,,,,,,,,,,,,,,,,,,,,,,,,23,lampera,,,,,566.828,568.124,0,1,0.778,,0,65,65,22,1,REAL,FAKE,,,,,,,,,,,,,,,,,
,,,,,,,,,55885869fdf99b4020ba0b64,Mexican,13 or older,"no, only English or Spanish",no,2025-07-23_08h17.19.817,empathy_intonation_perc,2024.2.4,Win32,120.1923077,55885869fdf99b4020ba0b64,687ed1b7e638a4cbf2f02089,6880d2adf6b204a7ade82806,,,,,,,,,,,,,,1,,,,,,,,,,,,,,,,,,,,,,,,,,,,,,,,,,,,,,,,,,,,,,,,,,,,,,,,,62,flaco,,,,,568.125,569.456,0,0,0.811,,0,66,66,61,1,REAL,FAKE,,,,,,,,,,,,,,,,,
,,,,,,,,,55885869fdf99b4020ba0b64,Mexican,13 or older,"no, only English or Spanish",no,2025-07-23_08h17.19.817,empathy_intonation_perc,2024.2.4,Win32,120.1923077,55885869fdf99b4020ba0b64,687ed1b7e638a4cbf2f02089,6880d2adf6b204a7ade82806,,,,,,,,,,,,,,1,,,,,,,,,,,,,,,,,,,,,,,,,,,,,,,,,,,,,,,,,,,,,,,,,,,,,,,,,52,camisa,,,,,569.456,570.819,1,1,0.843,,0,67,67,51,1,REAL,FAKE,,,,,,,,,,,,,,,,,
,,,,,,,,,55885869fdf99b4020ba0b64,Mexican,13 or older,"no, only English or Spanish",no,2025-07-23_08h17.19.817,empathy_intonation_perc,2024.2.4,Win32,120.1923077,55885869fdf99b4020ba0b64,687ed1b7e638a4cbf2f02089,6880d2adf6b204a7ade82806,,,,,,,,,,,,,,1,,,,,,,,,,,,,,,,,,,,,,,,,,,,,,,,,,,,,,,,,,,,,,,,,,,,,,,,,46,martillo,,,,,570.821,572.109,0,0,0.774,,0,68,68,45,1,REAL,FAKE,,,,,,,,,,,,,,,,,
,,,,,,,,,55885869fdf99b4020ba0b64,Mexican,13 or older,"no, only English or Spanish",no,2025-07-23_08h17.19.817,empathy_intonation_perc,2024.2.4,Win32,120.1923077,55885869fdf99b4020ba0b64,687ed1b7e638a4cbf2f02089,6880d2adf6b204a7ade82806,,,,,,,,,,,,,,1,,,,,,,,,,,,,,,,,,,,,,,,,,,,,,,,,,,,,,,,,,,,,,,,,,,,,,,,,48,ladrón,,,,,572.11,573.232,1,1,0.593,,0,69,69,47,1,REAL,FAKE,,,,,,,,,,,,,,,,,
,,,,,,,,,55885869fdf99b4020ba0b64,Mexican,13 or older,"no, only English or Spanish",no,2025-07-23_08h17.19.817,empathy_intonation_perc,2024.2.4,Win32,120.1923077,55885869fdf99b4020ba0b64,687ed1b7e638a4cbf2f02089,6880d2adf6b204a7ade82806,,,,,,,,,,,,,,1,,,,,,,,,,,,,,,,,,,,,,,,,,,,,,,,,,,,,,,,,,,,,,,,,,,,,,,,,71,polvoriento,,,,,573.233,574.396,0,0,0.639,,0,70,70,70,1,REAL,FAKE,,,,,,,,,,,,,,,,,
,,,,,,,,,55885869fdf99b4020ba0b64,Mexican,13 or older,"no, only English or Spanish",no,2025-07-23_08h17.19.817,empathy_intonation_perc,2024.2.4,Win32,120.1923077,55885869fdf99b4020ba0b64,687ed1b7e638a4cbf2f02089,6880d2adf6b204a7ade82806,,,,,,,,,,,,,,0,,,,,,,,,,,,,,,,,,,,,,,,,,,,,,,,,,,,,,,,,,,,,,,,,,,,,,,,,47,cartinar,,,,,574.399,575.512,0,1,0.588,,0,71,71,46,1,REAL,FAKE,,,,,,,,,,,,,,,,,
,,,,,,,,,55885869fdf99b4020ba0b64,Mexican,13 or older,"no, only English or Spanish",no,2025-07-23_08h17.19.817,empathy_intonation_perc,2024.2.4,Win32,120.1923077,55885869fdf99b4020ba0b64,687ed1b7e638a4cbf2f02089,6880d2adf6b204a7ade82806,,,,,,,,,,,,,,1,,,,,,,,,,,,,,,,,,,,,,,,,,,,,,,,,,,,,,,,,,,,,,,,,,,,,,,,,2,pellizcar,,,,,575.512,576.834,1,1,0.798,,0,72,72,1,1,REAL,FAKE,,,,,,,,,,,,,,,,,
,,,,,,,,,55885869fdf99b4020ba0b64,Mexican,13 or older,"no, only English or Spanish",no,2025-07-23_08h17.19.817,empathy_intonation_perc,2024.2.4,Win32,120.1923077,55885869fdf99b4020ba0b64,687ed1b7e638a4cbf2f02089,6880d2adf6b204a7ade82806,,,,,,,,,,,,,,0,,,,,,,,,,,,,,,,,,,,,,,,,,,,,,,,,,,,,,,,,,,,,,,,,,,,,,,,,17,floroso,,,,,576.835,578.032,0,1,0.682,,0,73,73,16,1,REAL,FAKE,,,,,,,,,,,,,,,,,
,,,,,,,,,55885869fdf99b4020ba0b64,Mexican,13 or older,"no, only English or Spanish",no,2025-07-23_08h17.19.817,empathy_intonation_perc,2024.2.4,Win32,120.1923077,55885869fdf99b4020ba0b64,687ed1b7e638a4cbf2f02089,6880d2adf6b204a7ade82806,,,,,,,,,,,,,,0,,,,,,,,,,,,,,,,,,,,,,,,,,,,,,,,,,,,,,,,,,,,,,,,,,,,,,,,,66,hacido,,,,,578.033,579.163,0,1,0.613,,0,74,74,65,1,REAL,FAKE,,,,,,,,,,,,,,,,,
,,,,,,,,,55885869fdf99b4020ba0b64,Mexican,13 or older,"no, only English or Spanish",no,2025-07-23_08h17.19.817,empathy_intonation_perc,2024.2.4,Win32,120.1923077,55885869fdf99b4020ba0b64,687ed1b7e638a4cbf2f02089,6880d2adf6b204a7ade82806,,,,,,,,,,,,,,0,,,,,,,,,,,,,,,,,,,,,,,,,,,,,,,,,,,,,,,,,,,,,,,,,,,,,,,,,16,abracer,,,,,579.164,580.303,0,1,0.621,,0,75,75,15,1,REAL,FAKE,,,,,,,,,,,,,,,,,
,,,,,,,,,55885869fdf99b4020ba0b64,Mexican,13 or older,"no, only English or Spanish",no,2025-07-23_08h17.19.817,empathy_intonation_perc,2024.2.4,Win32,120.1923077,55885869fdf99b4020ba0b64,687ed1b7e638a4cbf2f02089,6880d2adf6b204a7ade82806,,,,,,,,,,,,,,1,,,,,,,,,,,,,,,,,,,,,,,,,,,,,,,,,,,,,,,,,,,,,,,,,,,,,,,,,81,pozo,,,,,580.303,581.568,0,0,0.735,,0,76,76,80,1,REAL,FAKE,,,,,,,,,,,,,,,,,
,,,,,,,,,55885869fdf99b4020ba0b64,Mexican,13 or older,"no, only English or Spanish",no,2025-07-23_08h17.19.817,empathy_intonation_perc,2024.2.4,Win32,120.1923077,55885869fdf99b4020ba0b64,687ed1b7e638a4cbf2f02089,6880d2adf6b204a7ade82806,,,,,,,,,,,,,,0,,,,,,,,,,,,,,,,,,,,,,,,,,,,,,,,,,,,,,,,,,,,,,,,,,,,,,,,,33,pauca,,,,,581.568,582.749,0,1,0.649,,0,77,77,32,1,REAL,FAKE,,,,,,,,,,,,,,,,,
,,,,,,,,,55885869fdf99b4020ba0b64,Mexican,13 or older,"no, only English or Spanish",no,2025-07-23_08h17.19.817,empathy_intonation_perc,2024.2.4,Win32,120.1923077,55885869fdf99b4020ba0b64,687ed1b7e638a4cbf2f02089,6880d2adf6b204a7ade82806,,,,,,,,,,,,,,0,,,,,,,,,,,,,,,,,,,,,,,,,,,,,,,,,,,,,,,,,,,,,,,,,,,,,,,,,10,antar,,,,,582.749,583.814,0,1,0.538,,0,78,78,9,1,REAL,FAKE,,,,,,,,,,,,,,,,,
,,,,,,,,,55885869fdf99b4020ba0b64,Mexican,13 or older,"no, only English or Spanish",no,2025-07-23_08h17.19.817,empathy_intonation_perc,2024.2.4,Win32,120.1923077,55885869fdf99b4020ba0b64,687ed1b7e638a4cbf2f02089,6880d2adf6b204a7ade82806,,,,,,,,,,,,,,0,,,,,,,,,,,,,,,,,,,,,,,,,,,,,,,,,,,,,,,,,,,,,,,,,,,,,,,,,8,cadeña,,,,,583.814,585.119,1,0,0.782,,0,79,79,7,1,REAL,FAKE,,,,,,,,,,,,,,,,,
,,,,,,,,,55885869fdf99b4020ba0b64,Mexican,13 or older,"no, only English or Spanish",no,2025-07-23_08h17.19.817,empathy_intonation_perc,2024.2.4,Win32,120.1923077,55885869fdf99b4020ba0b64,687ed1b7e638a4cbf2f02089,6880d2adf6b204a7ade82806,,,,,,,,,,,,,,1,,,,,,,,,,,,,,,,,,,,,,,,,,,,,,,,,,,,,,,,,,,,,,,,,,,,,,,,,86,barato,,,,,585.12,586.309,0,0,0.67,,0,80,80,85,1,REAL,FAKE,,,,,,,,,,,,,,,,,
,,,,,,,,,55885869fdf99b4020ba0b64,Mexican,13 or older,"no, only English or Spanish",no,2025-07-23_08h17.19.817,empathy_intonation_perc,2024.2.4,Win32,120.1923077,55885869fdf99b4020ba0b64,687ed1b7e638a4cbf2f02089,6880d2adf6b204a7ade82806,,,,,,,,,,,,,,0,,,,,,,,,,,,,,,,,,,,,,,,,,,,,,,,,,,,,,,,,,,,,,,,,,,,,,,,,18,arsa,,,,,586.31,587.54,0,1,0.711,,0,81,81,17,1,REAL,FAKE,,,,,,,,,,,,,,,,,
,,,,,,,,,55885869fdf99b4020ba0b64,Mexican,13 or older,"no, only English or Spanish",no,2025-07-23_08h17.19.817,empathy_intonation_perc,2024.2.4,Win32,120.1923077,55885869fdf99b4020ba0b64,687ed1b7e638a4cbf2f02089,6880d2adf6b204a7ade82806,,,,,,,,,,,,,,1,,,,,,,,,,,,,,,,,,,,,,,,,,,,,,,,,,,,,,,,,,,,,,,,,,,,,,,,,20,ávido,,,,,587.54,588.704,1,1,0.645,,0,82,82,19,1,REAL,FAKE,,,,,,,,,,,,,,,,,
,,,,,,,,,55885869fdf99b4020ba0b64,Mexican,13 or older,"no, only English or Spanish",no,2025-07-23_08h17.19.817,empathy_intonation_perc,2024.2.4,Win32,120.1923077,55885869fdf99b4020ba0b64,687ed1b7e638a4cbf2f02089,6880d2adf6b204a7ade82806,,,,,,,,,,,,,,0,,,,,,,,,,,,,,,,,,,,,,,,,,,,,,,,,,,,,,,,,,,,,,,,,,,,,,,,,87,grodo,,,,,588.705,589.903,0,1,0.67,,0,83,83,86,1,REAL,FAKE,,,,,,,,,,,,,,,,,
,,,,,,,,,55885869fdf99b4020ba0b64,Mexican,13 or older,"no, only English or Spanish",no,2025-07-23_08h17.19.817,empathy_intonation_perc,2024.2.4,Win32,120.1923077,55885869fdf99b4020ba0b64,687ed1b7e638a4cbf2f02089,6880d2adf6b204a7ade82806,,,,,,,,,,,,,,1,,,,,,,,,,,,,,,,,,,,,,,,,,,,,,,,,,,,,,,,,,,,,,,,,,,,,,,,,31,pandilla,,,,,589.903,591.525,0,0,1.101,,0,84,84,30,1,REAL,FAKE,,,,,,,,,,,,,,,,,
,,,,,,,,,55885869fdf99b4020ba0b64,Mexican,13 or older,"no, only English or Spanish",no,2025-07-23_08h17.19.817,empathy_intonation_perc,2024.2.4,Win32,120.1923077,55885869fdf99b4020ba0b64,687ed1b7e638a4cbf2f02089,6880d2adf6b204a7ade82806,,,,,,,,,,,,,,1,,,,,,,,,,,,,,,,,,,,,,,,,,,,,,,,,,,,,,,,,,,,,,,,,,,,,,,,,65,bizcocho,,,,,591.526,592.714,0,0,0.665,,0,85,85,64,1,REAL,FAKE,,,,,,,,,,,,,,,,,
,,,,,,,,,55885869fdf99b4020ba0b64,Mexican,13 or older,"no, only English or Spanish",no,2025-07-23_08h17.19.817,empathy_intonation_perc,2024.2.4,Win32,120.1923077,55885869fdf99b4020ba0b64,687ed1b7e638a4cbf2f02089,6880d2adf6b204a7ade82806,,,,,,,,,,,,,,1,,,,,,,,,,,,,,,,,,,,,,,,,,,,,,,,,,,,,,,,,,,,,,,,,,,,,,,,,54,fomentar,,,,,592.715,593.862,0,0,0.62,,0,86,86,53,1,REAL,FAKE,,,,,,,,,,,,,,,,,
,,,,,,,,,55885869fdf99b4020ba0b64,Mexican,13 or older,"no, only English or Spanish",no,2025-07-23_08h17.19.817,empathy_intonation_perc,2024.2.4,Win32,120.1923077,55885869fdf99b4020ba0b64,687ed1b7e638a4cbf2f02089,6880d2adf6b204a7ade82806,,,,,,,,,,,,,,1,,,,,,,,,,,,,,,,,,,,,,,,,,,,,,,,,,,,,,,,,,,,,,,,,,,,,,,,,75,yacer,,,,,593.863,595.085,0,0,0.704,,0,87,87,74,1,REAL,FAKE,,,,,,,,,,,,,,,,,
,,,,,,,,,55885869fdf99b4020ba0b64,Mexican,13 or older,"no, only English or Spanish",no,2025-07-23_08h17.19.817,empathy_intonation_perc,2024.2.4,Win32,120.1923077,55885869fdf99b4020ba0b64,687ed1b7e638a4cbf2f02089,6880d2adf6b204a7ade82806,,,,,,,,,,,,,,1,,,,,,,,,,,,,,,,,,,,,,,,,,,,,,,,,,,,,,,,,,,,,,,,,,,,,,,,,22,lacayo,,,,,595.086,596.258,0,0,0.653,,0,88,88,21,1,REAL,FAKE,,,,,,,,,,,,,,,,,
,,,,,,,,,55885869fdf99b4020ba0b64,Mexican,13 or older,"no, only English or Spanish",no,2025-07-23_08h17.19.817,empathy_intonation_perc,2024.2.4,Win32,120.1923077,55885869fdf99b4020ba0b64,687ed1b7e638a4cbf2f02089,6880d2adf6b204a7ade82806,,,,,,,,,,,,,,1,,,,,,,,,,,,,,,,,,,,,,,,,,,,,,,,,,,,,,,,,,,,,,,,,,,,,,,,,14,yunque,,,,,596.259,597.397,0,0,0.612,,0,89,89,13,1,REAL,FAKE,,,,,,,,,,,,,,,,,
,,,,,,,,,55885869fdf99b4020ba0b64,Mexican,13 or older,"no, only English or Spanish",no,2025-07-23_08h17.19.817,empathy_intonation_perc,2024.2.4,Win32,120.1923077,55885869fdf99b4020ba0b64,687ed1b7e638a4cbf2f02089,6880d2adf6b204a7ade82806,,,,,,,,,,,,,,1,,,,,,,,,,,,,,,,,,,,,,,,,,,,,,,,,,,,,,,,,,,,,,,,,,,,,,,,,12,asesinato,,,,,597.398,598.637,0,0,0.708,,0,90,90,11,1,REAL,FAKE,,,,,,,,,,,,,,,,,
,,,,,,,,,55885869fdf99b4020ba0b64,Mexican,13 or older,"no, only English or Spanish",no,2025-07-23_08h17.19.817,empathy_intonation_perc,2024.2.4,Win32,120.1923077,55885869fdf99b4020ba0b64,687ed1b7e638a4cbf2f02089,6880d2adf6b204a7ade82806,,,,,,,,,,,,,,1,,,,,,,,,,,,,,,,,,,,,,,,,,,,,,,,,,,,,,,,,,,,,,,,,,,,,,,,,51,candado,,,,,598.638,599.876,0,0,0.724,,0,91,91,50,1,REAL,FAKE,,,,,,,,,,,,,,,,,
,,,,,,,,,55885869fdf99b4020ba0b64,Mexican,13 or older,"no, only English or Spanish",no,2025-07-23_08h17.19.817,empathy_intonation_perc,2024.2.4,Win32,120.1923077,55885869fdf99b4020ba0b64,687ed1b7e638a4cbf2f02089,6880d2adf6b204a7ade82806,,,,,,,,,,,,,,,,,,,,,,,,,,,,,,,,,,,,,,,,,,,,,,,,,,,,,,,,,,,,,,,,,,,,,,,,,,,,,,,,,,,,,,,,,,599.876,620.699,,,,,,,,,,,,,,,
,,,,,,,,,55885869fdf99b4020ba0b64,Mexican,13 or older,"no, only English or Spanish",no,2025-07-23_08h17.19.817,empathy_intonation_perc,2024.2.4,Win32,120.1923077,55885869fdf99b4020ba0b64,687ed1b7e638a4cbf2f02089,6880d2adf6b204a7ade82806,,,,,,,,,,,,,1,,,,,,,,,,,,,,,,,,,,,,,,,,,,,,,,,,,,,,,,,,,,,,,,,,,,,,,,,,,,,,,,,,,,,,,,,,,,,,,620.71,623.984,slightly agree,0,0,0,0,1,I can easily tell if someone else wants to enter a conversation.,1,0,1,0,,
,,,,,,,,,55885869fdf99b4020ba0b64,Mexican,13 or older,"no, only English or Spanish",no,2025-07-23_08h17.19.817,empathy_intonation_perc,2024.2.4,Win32,120.1923077,55885869fdf99b4020ba0b64,687ed1b7e638a4cbf2f02089,6880d2adf6b204a7ade82806,,,,,,,,,,,,,2,,,,,,,,,,,,,,,,,,,,,,,,,,,,,,,,,,,,,,,,,,,,,,,,,,,,,,,,,,,,,,,,,,,,,,,,,,,,,,,623.985,625.914,strongly agree,0,1,1,1,1,I prefer animals to humans.,0,1,0,0,,
,,,,,,,,,55885869fdf99b4020ba0b64,Mexican,13 or older,"no, only English or Spanish",no,2025-07-23_08h17.19.817,empathy_intonation_perc,2024.2.4,Win32,120.1923077,55885869fdf99b4020ba0b64,687ed1b7e638a4cbf2f02089,6880d2adf6b204a7ade82806,,,,,,,,,,,,,3,,,,,,,,,,,,,,,,,,,,,,,,,,,,,,,,,,,,,,,,,,,,,,,,,,,,,,,,,,,,,,,,,,,,,,,,,,,,,,,625.914,628.767,slightly agree,0,2,2,2,1,I try to keep up with the current trends and fashions.,0,1,0,0,,
,,,,,,,,,55885869fdf99b4020ba0b64,Mexican,13 or older,"no, only English or Spanish",no,2025-07-23_08h17.19.817,empathy_intonation_perc,2024.2.4,Win32,120.1923077,55885869fdf99b4020ba0b64,687ed1b7e638a4cbf2f02089,6880d2adf6b204a7ade82806,,,,,,,,,,,,,4,,,,,,,,,,,,,,,,,,,,,,,,,,,,,,,,,,,,,,,,,,,,,,,,,,,,,,,,,,,,,,,,,,,,,,,,,,,,,,,628.768,649.449,strongly agree,0,3,3,3,1,"I find it difficult to explain to others things that I understand easily,   when they don't understand it first time.",1,0,0,1,,
,,,,,,,,,55885869fdf99b4020ba0b64,Mexican,13 or older,"no, only English or Spanish",no,2025-07-23_08h17.19.817,empathy_intonation_perc,2024.2.4,Win32,120.1923077,55885869fdf99b4020ba0b64,687ed1b7e638a4cbf2f02089,6880d2adf6b204a7ade82806,,,,,,,,,,,,,5,,,,,,,,,,,,,,,,,,,,,,,,,,,,,,,,,,,,,,,,,,,,,,,,,,,,,,,,,,,,,,,,,,,,,,,,,,,,,,,649.449,651.302,slightly agree,0,4,4,4,1,I dream most nights.,0,1,0,0,,
,,,,,,,,,55885869fdf99b4020ba0b64,Mexican,13 or older,"no, only English or Spanish",no,2025-07-23_08h17.19.817,empathy_intonation_perc,2024.2.4,Win32,120.1923077,55885869fdf99b4020ba0b64,687ed1b7e638a4cbf2f02089,6880d2adf6b204a7ade82806,,,,,,,,,,,,,6,,,,,,,,,,,,,,,,,,,,,,,,,,,,,,,,,,,,,,,,,,,,,,,,,,,,,,,,,,,,,,,,,,,,,,,,,,,,,,,651.303,652.425,slightly agree,0,5,5,5,1,I really enjoy caring for other people.,1,0,1,0,,
,,,,,,,,,55885869fdf99b4020ba0b64,Mexican,13 or older,"no, only English or Spanish",no,2025-07-23_08h17.19.817,empathy_intonation_perc,2024.2.4,Win32,120.1923077,55885869fdf99b4020ba0b64,687ed1b7e638a4cbf2f02089,6880d2adf6b204a7ade82806,,,,,,,,,,,,,7,,,,,,,,,,,,,,,,,,,,,,,,,,,,,,,,,,,,,,,,,,,,,,,,,,,,,,,,,,,,,,,,,,,,,,,,,,,,,,,652.426,654.08,slightly agree,0,6,6,6,1,I try to solve my own problems rather than discussing them with others.,0,1,0,0,,
,,,,,,,,,55885869fdf99b4020ba0b64,Mexican,13 or older,"no, only English or Spanish",no,2025-07-23_08h17.19.817,empathy_intonation_perc,2024.2.4,Win32,120.1923077,55885869fdf99b4020ba0b64,687ed1b7e638a4cbf2f02089,6880d2adf6b204a7ade82806,,,,,,,,,,,,,8,,,,,,,,,,,,,,,,,,,,,,,,,,,,,,,,,,,,,,,,,,,,,,,,,,,,,,,,,,,,,,,,,,,,,,,,,,,,,,,654.081,656.368,strongly agree,0,7,7,7,1,I find it hard to know what to do in a social situation.,1,0,0,1,,
,,,,,,,,,55885869fdf99b4020ba0b64,Mexican,13 or older,"no, only English or Spanish",no,2025-07-23_08h17.19.817,empathy_intonation_perc,2024.2.4,Win32,120.1923077,55885869fdf99b4020ba0b64,687ed1b7e638a4cbf2f02089,6880d2adf6b204a7ade82806,,,,,,,,,,,,,9,,,,,,,,,,,,,,,,,,,,,,,,,,,,,,,,,,,,,,,,,,,,,,,,,,,,,,,,,,,,,,,,,,,,,,,,,,,,,,,656.369,669.67,slightly agree,0,8,8,8,1,I am at my best first thing in the morning.,0,1,0,0,,
,,,,,,,,,55885869fdf99b4020ba0b64,Mexican,13 or older,"no, only English or Spanish",no,2025-07-23_08h17.19.817,empathy_intonation_perc,2024.2.4,Win32,120.1923077,55885869fdf99b4020ba0b64,687ed1b7e638a4cbf2f02089,6880d2adf6b204a7ade82806,,,,,,,,,,,,,10,,,,,,,,,,,,,,,,,,,,,,,,,,,,,,,,,,,,,,,,,,,,,,,,,,,,,,,,,,,,,,,,,,,,,,,,,,,,,,,669.671,676.224,strongly disagree,0,9,9,9,1,People often tell me that I went too far in driving my point home in a discussion.,1,0,0,1,,
,,,,,,,,,55885869fdf99b4020ba0b64,Mexican,13 or older,"no, only English or Spanish",no,2025-07-23_08h17.19.817,empathy_intonation_perc,2024.2.4,Win32,120.1923077,55885869fdf99b4020ba0b64,687ed1b7e638a4cbf2f02089,6880d2adf6b204a7ade82806,,,,,,,,,,,,,11,,,,,,,,,,,,,,,,,,,,,,,,,,,,,,,,,,,,,,,,,,,,,,,,,,,,,,,,,,,,,,,,,,,,,,,,,,,,,,,676.226,680.924,slightly disagree,0,10,10,10,1,It doesn't bother me too much if I am late meeting a friend.,1,0,0,1,,
