instructions_exposure.started,instructions_exposure.stopped,instructions_exposure_loop.thisRepN,instructions_exposure_loop.thisTrialN,instructions_exposure_loop.thisN,instructions_exposure_loop.thisIndex,instructions_exposure_loop.ran,instructions_text,continue_text,participant_id,"What variety of Spanish are you most familiar with? (e.g., Peruvian, Spanish, Mexican)",At what age did you begin learning Spanish?,Are you proficient in any languages other than English/Spanish?,"Are you familiar with Caribbean (e.g., Caribbean, Puerto Rican) or Galician Spanish?",date,expName,psychopyVersion,OS,frameRate,id,study_id,session,trial_exposure.started,trial_exposure.stopped,key_resp_exposure.keys,key_resp_exposure.corr,key_resp_exposure.rt,key_resp_exposure.duration,key_resp.keys,exposure_loop.thisRepN,exposure_loop.thisTrialN,exposure_loop.thisN,exposure_loop.thisIndex,exposure_loop.ran,item_num,correct_response,question,path,duration,instructions_2afc.started,instructions_2afc.stopped,instructions_2afc_loop.thisRepN,instructions_2afc_loop.thisTrialN,instructions_2afc_loop.thisN,instructions_2afc_loop.thisIndex,instructions_2afc_loop.ran,practice_2afc.started,practice_2afc.stopped,key_resp_2afc_practice.keys,key_resp_2afc_practice.corr,key_resp_2afc_practice.rt,key_resp_2afc_practice.duration,trials_2afc_practice_loop.thisRepN,trials_2afc_practice_loop.thisTrialN,trials_2afc_practice_loop.thisN,trials_2afc_practice_loop.thisIndex,trials_2afc_practice_loop.ran,check_2afc.started,check_2afc.stopped,trial_2afc.started,trial_2afc.stopped,key_resp_2afc_trial.keys,key_resp_2afc_trial.corr,key_resp_2afc_trial.rt,key_resp_2afc_trial.duration,trials_2afc_loop.thisRepN,trials_2afc_loop.thisTrialN,trials_2afc_loop.thisN,trials_2afc_loop.thisIndex,trials_2afc_loop.ran,target,variety,instructions_lextale.started,instructions_lextale.stopped,instructions_lextale_loop.thisRepN,instructions_lextale_loop.thisTrialN,instructions_lextale_loop.thisN,instructions_lextale_loop.thisIndex,instructions_lextale_loop.ran,practice_lextale.started,practice_lextale.stopped,key_resp_lextale_practice.keys,key_resp_lextale_practice.corr,key_resp_lextale_practice.rt,key_resp_lextale_practice.duration,practice_feedback_lextale.started,practice_feedback_lextale.stopped,trials_lextale_practice_loop.thisRepN,trials_lextale_practice_loop.thisTrialN,trials_lextale_practice_loop.thisN,trials_lextale_practice_loop.thisIndex,trials_lextale_practice_loop.ran,stim,word,prac_button_real,prac_button_false,check_lextale.started,check_lextale.stopped,trial_lextale.started,trial_lextale.stopped,key_resp_lextale_trial.keys,key_resp_lextale_trial.corr,key_resp_lextale_trial.rt,key_resp_lextale_trial.duration,trials_lextale_loop.thisRepN,trials_lextale_loop.thisTrialN,trials_lextale_loop.thisN,trials_lextale_loop.thisIndex,trials_lextale_loop.ran,button_real,button_false,instructions_eq.started,instructions_eq.stopped,trial_eq.started,trial_eq.stopped,slider_eq_trial.response,trials_eq_loop.thisRepN,trials_eq_loop.thisTrialN,trials_eq_loop.thisN,trials_eq_loop.thisIndex,trials_eq_loop.ran,item,is_test_item,is_distractor,is_agree_score,is_disagree_score,end_exp.started,end_exp.stopped
0.0132,6.7117,0,0,0,0,1,"In the following task, you are going to hear a series of conversations.", (press the space bar to continue),55b8d0bffdf99b0f2859fe73,Mexican,13 or older,"no, only English or Spanish",no,2025-07-23_06h49.06.406,empathy_intonation_perc,2024.2.4,Win32,60.24096386,55b8d0bffdf99b0f2859fe73,687ed1b7e638a4cbf2f02089,6880be00c9090cf1eea2a441,,,,,,,,,,,,,,,,,,,,,,,,,,,,,,,,,,,,,,,,,,,,,,,,,,,,,,,,,,,,,,,,,,,,,,,,,,,,,,,,,,,,,,,,,,,,,,,,,,,,,,,,,,
6.7125,8.6322,0,1,1,1,1,It is okay if you don't not 100% understand them!, (press the space bar to continue),55b8d0bffdf99b0f2859fe73,Mexican,13 or older,"no, only English or Spanish",no,2025-07-23_06h49.06.406,empathy_intonation_perc,2024.2.4,Win32,60.24096386,55b8d0bffdf99b0f2859fe73,687ed1b7e638a4cbf2f02089,6880be00c9090cf1eea2a441,,,,,,,,,,,,,,,,,,,,,,,,,,,,,,,,,,,,,,,,,,,,,,,,,,,,,,,,,,,,,,,,,,,,,,,,,,,,,,,,,,,,,,,,,,,,,,,,,,,,,,,,,,
8.6361,11.9053,0,2,2,2,1,"After, you will read a sentence about the conversation and decide if it's true or false.", (press the space bar to continue),55b8d0bffdf99b0f2859fe73,Mexican,13 or older,"no, only English or Spanish",no,2025-07-23_06h49.06.406,empathy_intonation_perc,2024.2.4,Win32,60.24096386,55b8d0bffdf99b0f2859fe73,687ed1b7e638a4cbf2f02089,6880be00c9090cf1eea2a441,,,,,,,,,,,,,,,,,,,,,,,,,,,,,,,,,,,,,,,,,,,,,,,,,,,,,,,,,,,,,,,,,,,,,,,,,,,,,,,,,,,,,,,,,,,,,,,,,,,,,,,,,,
11.9086,15.1951,0,3,3,3,1,"If it's true, press '1' (True) and if it's false press '0' (False).", (press the space bar to continue),55b8d0bffdf99b0f2859fe73,Mexican,13 or older,"no, only English or Spanish",no,2025-07-23_06h49.06.406,empathy_intonation_perc,2024.2.4,Win32,60.24096386,55b8d0bffdf99b0f2859fe73,687ed1b7e638a4cbf2f02089,6880be00c9090cf1eea2a441,,,,,,,,,,,,,,,,,,,,,,,,,,,,,,,,,,,,,,,,,,,,,,,,,,,,,,,,,,,,,,,,,,,,,,,,,,,,,,,,,,,,,,,,,,,,,,,,,,,,,,,,,,
,,,,,,,,,55b8d0bffdf99b0f2859fe73,Mexican,13 or older,"no, only English or Spanish",no,2025-07-23_06h49.06.406,empathy_intonation_perc,2024.2.4,Win32,60.24096386,55b8d0bffdf99b0f2859fe73,687ed1b7e638a4cbf2f02089,6880be00c9090cf1eea2a441,15.2049,69.87,0,0,7.6049,,,0,0,0,0,1,1,1,The son asked the mom if Aunt Marina is okay.,./stim/exposure_wavs/ga_stimuli_convo.wav,47,,,,,,,,,,,,,,,,,,,,,,,,,,,,,,,,,,,,,,,,,,,,,,,,,,,,,,,,,,,,,,,,,,,,,,,,,,,,,,,,,,,,,,,,,
,,,,,,,,,55b8d0bffdf99b0f2859fe73,Mexican,13 or older,"no, only English or Spanish",no,2025-07-23_06h49.06.406,empathy_intonation_perc,2024.2.4,Win32,60.24096386,55b8d0bffdf99b0f2859fe73,687ed1b7e638a4cbf2f02089,6880be00c9090cf1eea2a441,69.8734,134.5764,1,1,4.6764,,,0,1,1,1,1,2,1,The mom asked the daughter if she already went to the supermarket.,./stim/exposure_wavs/dr_stimuli_convo.wav,60,,,,,,,,,,,,,,,,,,,,,,,,,,,,,,,,,,,,,,,,,,,,,,,,,,,,,,,,,,,,,,,,,,,,,,,,,,,,,,,,,,,,,,,,,
,,,,,,,,,55b8d0bffdf99b0f2859fe73,Mexican,13 or older,"no, only English or Spanish",no,2025-07-23_06h49.06.406,empathy_intonation_perc,2024.2.4,Win32,60.24096386,55b8d0bffdf99b0f2859fe73,687ed1b7e638a4cbf2f02089,6880be00c9090cf1eea2a441,134.5775,175.636,1,0,5.0285,,,0,2,2,2,1,3,0,The mom already has rice.,./stim/exposure_wavs/pr_stimuli_convo.wav,36,,,,,,,,,,,,,,,,,,,,,,,,,,,,,,,,,,,,,,,,,,,,,,,,,,,,,,,,,,,,,,,,,,,,,,,,,,,,,,,,,,,,,,,,,
,,,,,,,"In the following task you are going to hear a series of utterances. 

  You will decide if the utterances sound like questions or not using your keyboard.", (press the spacebar to continue),55b8d0bffdf99b0f2859fe73,Mexican,13 or older,"no, only English or Spanish",no,2025-07-23_06h49.06.406,empathy_intonation_perc,2024.2.4,Win32,60.24096386,55b8d0bffdf99b0f2859fe73,687ed1b7e638a4cbf2f02089,6880be00c9090cf1eea2a441,,,,,,,,,,,,,,,,,,175.6394,181.2483,0,0,0,0,1,,,,,,,,,,,,,,,,,,,,,,,,,,,,,,,,,,,,,,,,,,,,,,,,,,,,,,,,,,,,,,,,,,,,,,,,,,,,,,,,,,
,,,,,,,"If you believe the utterance is a question, type '1' (for 'yes') and if you do not 
  believe it is a question type '0' (for 'no').

  Let's practice a bit...", (press the spacebar to continue),55b8d0bffdf99b0f2859fe73,Mexican,13 or older,"no, only English or Spanish",no,2025-07-23_06h49.06.406,empathy_intonation_perc,2024.2.4,Win32,60.24096386,55b8d0bffdf99b0f2859fe73,687ed1b7e638a4cbf2f02089,6880be00c9090cf1eea2a441,,,,,,,,,,,,,,,,,,181.2493,189.7357,0,1,1,1,1,,,,,,,,,,,,,,,,,,,,,,,,,,,,,,,,,,,,,,,,,,,,,,,,,,,,,,,,,,,,,,,,,,,,,,,,,,,,,,,,,,
,,,,,,,,,55b8d0bffdf99b0f2859fe73,Mexican,13 or older,"no, only English or Spanish",no,2025-07-23_06h49.06.406,empathy_intonation_perc,2024.2.4,Win32,60.24096386,55b8d0bffdf99b0f2859fe73,687ed1b7e638a4cbf2f02089,6880be00c9090cf1eea2a441,,,,,,,,,,,,,,0,,./stim/wavs/puertorican_statement_filler_La-nina-pinta-con-su-amiga.wav,,,,,,,,,189.7409,192.1234,0,1,1.8542,,0,0,0,7,1,,,,,,,,,,,,,,,,,,,,,,,,,,,,,,,,,,,,,,,,,,,,,,,,,,,,,,,,,,,,,,,,,,,,,,,
,,,,,,,,,55b8d0bffdf99b0f2859fe73,Mexican,13 or older,"no, only English or Spanish",no,2025-07-23_06h49.06.406,empathy_intonation_perc,2024.2.4,Win32,60.24096386,55b8d0bffdf99b0f2859fe73,687ed1b7e638a4cbf2f02089,6880be00c9090cf1eea2a441,,,,,,,,,,,,,,1,,./stim/wavs/chilean_question_filler_Mi-padre-cantaba-bien.wav,,,,,,,,,192.1238,194.094,1,1,1.4526,,0,1,1,2,1,,,,,,,,,,,,,,,,,,,,,,,,,,,,,,,,,,,,,,,,,,,,,,,,,,,,,,,,,,,,,,,,,,,,,,,
,,,,,,,,,55b8d0bffdf99b0f2859fe73,Mexican,13 or older,"no, only English or Spanish",no,2025-07-23_06h49.06.406,empathy_intonation_perc,2024.2.4,Win32,60.24096386,55b8d0bffdf99b0f2859fe73,687ed1b7e638a4cbf2f02089,6880be00c9090cf1eea2a441,,,,,,,,,,,,,,0,,./stim/wavs/cuban_statement_filler_Cocinabas-por-la-noche.wav,,,,,,,,,194.0943,196.2492,0,1,1.6365,,0,2,2,4,1,,,,,,,,,,,,,,,,,,,,,,,,,,,,,,,,,,,,,,,,,,,,,,,,,,,,,,,,,,,,,,,,,,,,,,,
,,,,,,,,,55b8d0bffdf99b0f2859fe73,Mexican,13 or older,"no, only English or Spanish",no,2025-07-23_06h49.06.406,empathy_intonation_perc,2024.2.4,Win32,60.24096386,55b8d0bffdf99b0f2859fe73,687ed1b7e638a4cbf2f02089,6880be00c9090cf1eea2a441,,,,,,,,,,,,,,1,,./stim/wavs/mexican_question_filler_Felipe-no-tiene-contrasena.wav,,,,,,,,,196.2497,198.5041,1,1,1.7368,,0,3,3,3,1,,,,,,,,,,,,,,,,,,,,,,,,,,,,,,,,,,,,,,,,,,,,,,,,,,,,,,,,,,,,,,,,,,,,,,,
,,,,,,,,,55b8d0bffdf99b0f2859fe73,Mexican,13 or older,"no, only English or Spanish",no,2025-07-23_06h49.06.406,empathy_intonation_perc,2024.2.4,Win32,60.24096386,55b8d0bffdf99b0f2859fe73,687ed1b7e638a4cbf2f02089,6880be00c9090cf1eea2a441,,,,,,,,,,,,,,1,,./stim/wavs/argentine_question_filler_Mi-vecino-habla-mucho.wav,,,,,,,,,198.5044,200.6265,1,1,1.6038,,0,4,4,1,1,,,,,,,,,,,,,,,,,,,,,,,,,,,,,,,,,,,,,,,,,,,,,,,,,,,,,,,,,,,,,,,,,,,,,,,
,,,,,,,,,55b8d0bffdf99b0f2859fe73,Mexican,13 or older,"no, only English or Spanish",no,2025-07-23_06h49.06.406,empathy_intonation_perc,2024.2.4,Win32,60.24096386,55b8d0bffdf99b0f2859fe73,687ed1b7e638a4cbf2f02089,6880be00c9090cf1eea2a441,,,,,,,,,,,,,,0,,./stim/wavs/andalusian_statement_filler_Alberto-nunca-se-afeita.wav,,,,,,,,,200.6268,202.8141,0,1,1.6703,,0,5,5,5,1,,,,,,,,,,,,,,,,,,,,,,,,,,,,,,,,,,,,,,,,,,,,,,,,,,,,,,,,,,,,,,,,,,,,,,,
,,,,,,,,,55b8d0bffdf99b0f2859fe73,Mexican,13 or older,"no, only English or Spanish",no,2025-07-23_06h49.06.406,empathy_intonation_perc,2024.2.4,Win32,60.24096386,55b8d0bffdf99b0f2859fe73,687ed1b7e638a4cbf2f02089,6880be00c9090cf1eea2a441,,,,,,,,,,,,,,1,,./stim/wavs/castilian_question_filler_Mi-esposo-conoce-al-chico.wav,,,,,,,,,202.8145,205.1865,1,1,1.8542,,0,6,6,0,1,,,,,,,,,,,,,,,,,,,,,,,,,,,,,,,,,,,,,,,,,,,,,,,,,,,,,,,,,,,,,,,,,,,,,,,
,,,,,,,,,55b8d0bffdf99b0f2859fe73,Mexican,13 or older,"no, only English or Spanish",no,2025-07-23_06h49.06.406,empathy_intonation_perc,2024.2.4,Win32,60.24096386,55b8d0bffdf99b0f2859fe73,687ed1b7e638a4cbf2f02089,6880be00c9090cf1eea2a441,,,,,,,,,,,,,,0,,./stim/wavs/peruvian_statement_filler_El-nino-habla-con-su-madre.wav,,,,,,,,,205.1869,207.9268,0,1,2.2229,,0,7,7,6,1,,,,,,,,,,,,,,,,,,,,,,,,,,,,,,,,,,,,,,,,,,,,,,,,,,,,,,,,,,,,,,,,,,,,,,,
,,,,,,,,,55b8d0bffdf99b0f2859fe73,Mexican,13 or older,"no, only English or Spanish",no,2025-07-23_06h49.06.406,empathy_intonation_perc,2024.2.4,Win32,60.24096386,55b8d0bffdf99b0f2859fe73,687ed1b7e638a4cbf2f02089,6880be00c9090cf1eea2a441,,,,,,,,,,,,,,,,,,,,,,,,,,,,,,,,,,,,207.927,210.7166,,,,,,,,,,,,,,,,,,,,,,,,,,,,,,,,,,,,,,,,,,,,,,,,,,,,,,,,,,,,,,,,,,,,,
,,,,,,,,,55b8d0bffdf99b0f2859fe73,Mexican,13 or older,"no, only English or Spanish",no,2025-07-23_06h49.06.406,empathy_intonation_perc,2024.2.4,Win32,60.24096386,55b8d0bffdf99b0f2859fe73,687ed1b7e638a4cbf2f02089,6880be00c9090cf1eea2a441,,,,,,,,,,,,,54,0,,./stim/wavs/cuban_match_declarative-broad-focus_Maria-bebe-el-vino.wav,,,,,,,,,,,,,,,,,,,,,,210.7222,212.8039,0,1,1.5535,,0,0,0,53,1,0,cuban,,,,,,,,,,,,,,,,,,,,,,,,,,,,,,,,,,,,,,,,,,,,,,,,,,,,,,,,
,,,,,,,,,55b8d0bffdf99b0f2859fe73,Mexican,13 or older,"no, only English or Spanish",no,2025-07-23_06h49.06.406,empathy_intonation_perc,2024.2.4,Win32,60.24096386,55b8d0bffdf99b0f2859fe73,687ed1b7e638a4cbf2f02089,6880be00c9090cf1eea2a441,,,,,,,,,,,,,79,0,,./stim/wavs/mexican_mismatch_declarative-broad-focus_El-bebe-comia-muy-bien.wav,,,,,,,,,,,,,,,,,,,,,,212.8043,214.8256,1,0,1.5033,,0,1,1,78,1,0,mexican,,,,,,,,,,,,,,,,,,,,,,,,,,,,,,,,,,,,,,,,,,,,,,,,,,,,,,,,
,,,,,,,,,55b8d0bffdf99b0f2859fe73,Mexican,13 or older,"no, only English or Spanish",no,2025-07-23_06h49.06.406,empathy_intonation_perc,2024.2.4,Win32,60.24096386,55b8d0bffdf99b0f2859fe73,687ed1b7e638a4cbf2f02089,6880be00c9090cf1eea2a441,,,,,,,,,,,,,69,0,,./stim/wavs/castilian_mismatch_declarative-broad-focus_El-nino-oye-el-rio.wav,,,,,,,,,,,,,,,,,,,,,,214.8259,217.147,0,1,1.7872,,0,2,2,68,1,0,castilian,,,,,,,,,,,,,,,,,,,,,,,,,,,,,,,,,,,,,,,,,,,,,,,,,,,,,,,,
,,,,,,,,,55b8d0bffdf99b0f2859fe73,Mexican,13 or older,"no, only English or Spanish",no,2025-07-23_06h49.06.406,empathy_intonation_perc,2024.2.4,Win32,60.24096386,55b8d0bffdf99b0f2859fe73,687ed1b7e638a4cbf2f02089,6880be00c9090cf1eea2a441,,,,,,,,,,,,,20,1,,./stim/wavs/puertorican_match_interrogative-total-yn_Daniel-iba-a-Bolivia.wav,,,,,,,,,,,,,,,,,,,,,,217.1473,219.3024,0,0,1.6374,,0,3,3,19,1,1,puertorican,,,,,,,,,,,,,,,,,,,,,,,,,,,,,,,,,,,,,,,,,,,,,,,,,,,,,,,,
,,,,,,,,,55b8d0bffdf99b0f2859fe73,Mexican,13 or older,"no, only English or Spanish",no,2025-07-23_06h49.06.406,empathy_intonation_perc,2024.2.4,Win32,60.24096386,55b8d0bffdf99b0f2859fe73,687ed1b7e638a4cbf2f02089,6880be00c9090cf1eea2a441,,,,,,,,,,,,,37,1,,./stim/wavs/mexican_mismatch_interrogative-total-yn_La-maestra-vive-en-Paris.wav,,,,,,,,,,,,,,,,,,,,,,219.3026,221.6072,1,1,1.7874,,0,4,4,36,1,0,mexican,,,,,,,,,,,,,,,,,,,,,,,,,,,,,,,,,,,,,,,,,,,,,,,,,,,,,,,,
,,,,,,,,,55b8d0bffdf99b0f2859fe73,Mexican,13 or older,"no, only English or Spanish",no,2025-07-23_06h49.06.406,empathy_intonation_perc,2024.2.4,Win32,60.24096386,55b8d0bffdf99b0f2859fe73,687ed1b7e638a4cbf2f02089,6880be00c9090cf1eea2a441,,,,,,,,,,,,,52,0,,./stim/wavs/cuban_match_declarative-broad-focus_Daniel-iba-a-Bolivia.wav,,,,,,,,,,,,,,,,,,,,,,221.6075,224.1471,1,0,2.0221,,0,5,5,51,1,0,cuban,,,,,,,,,,,,,,,,,,,,,,,,,,,,,,,,,,,,,,,,,,,,,,,,,,,,,,,,
,,,,,,,,,55b8d0bffdf99b0f2859fe73,Mexican,13 or older,"no, only English or Spanish",no,2025-07-23_06h49.06.406,empathy_intonation_perc,2024.2.4,Win32,60.24096386,55b8d0bffdf99b0f2859fe73,687ed1b7e638a4cbf2f02089,6880be00c9090cf1eea2a441,,,,,,,,,,,,,12,1,,./stim/wavs/cuban_match_interrogative-total-yn_Marta-abre-el-regalo.wav,,,,,,,,,,,,,,,,,,,,,,224.1475,226.3181,0,0,1.6375,,0,6,6,11,1,1,cuban,,,,,,,,,,,,,,,,,,,,,,,,,,,,,,,,,,,,,,,,,,,,,,,,,,,,,,,,
,,,,,,,,,55b8d0bffdf99b0f2859fe73,Mexican,13 or older,"no, only English or Spanish",no,2025-07-23_06h49.06.406,empathy_intonation_perc,2024.2.4,Win32,60.24096386,55b8d0bffdf99b0f2859fe73,687ed1b7e638a4cbf2f02089,6880be00c9090cf1eea2a441,,,,,,,,,,,,,14,1,,./stim/wavs/mexican_match_interrogative-total-yn_Daniel-iba-a-Bolivia.wav,,,,,,,,,,,,,,,,,,,,,,226.3183,228.523,1,1,1.687,,0,7,7,13,1,0,mexican,,,,,,,,,,,,,,,,,,,,,,,,,,,,,,,,,,,,,,,,,,,,,,,,,,,,,,,,
,,,,,,,,,55b8d0bffdf99b0f2859fe73,Mexican,13 or older,"no, only English or Spanish",no,2025-07-23_06h49.06.406,empathy_intonation_perc,2024.2.4,Win32,60.24096386,55b8d0bffdf99b0f2859fe73,687ed1b7e638a4cbf2f02089,6880be00c9090cf1eea2a441,,,,,,,,,,,,,48,0,,./stim/wavs/castilian_match_declarative-broad-focus_Maria-bebe-el-vino.wav,,,,,,,,,,,,,,,,,,,,,,228.5239,230.8284,0,1,1.7867,,0,8,8,47,1,0,castilian,,,,,,,,,,,,,,,,,,,,,,,,,,,,,,,,,,,,,,,,,,,,,,,,,,,,,,,,
,,,,,,,,,55b8d0bffdf99b0f2859fe73,Mexican,13 or older,"no, only English or Spanish",no,2025-07-23_06h49.06.406,empathy_intonation_perc,2024.2.4,Win32,60.24096386,55b8d0bffdf99b0f2859fe73,687ed1b7e638a4cbf2f02089,6880be00c9090cf1eea2a441,,,,,,,,,,,,,41,1,,./stim/wavs/puertorican_mismatch_interrogative-total-yn_El-nino-oye-el-rio.wav,,,,,,,,,,,,,,,,,,,,,,230.8286,233.3507,1,1,2.0052,,0,9,9,40,1,1,puertorican,,,,,,,,,,,,,,,,,,,,,,,,,,,,,,,,,,,,,,,,,,,,,,,,,,,,,,,,
,,,,,,,,,55b8d0bffdf99b0f2859fe73,Mexican,13 or older,"no, only English or Spanish",no,2025-07-23_06h49.06.406,empathy_intonation_perc,2024.2.4,Win32,60.24096386,55b8d0bffdf99b0f2859fe73,687ed1b7e638a4cbf2f02089,6880be00c9090cf1eea2a441,,,,,,,,,,,,,8,1,,./stim/wavs/cuban_match_interrogative-total-yn_Daniel-iba-a-Bolivia.wav,,,,,,,,,,,,,,,,,,,,,,233.3512,235.5059,1,1,1.6376,,0,10,10,7,1,1,cuban,,,,,,,,,,,,,,,,,,,,,,,,,,,,,,,,,,,,,,,,,,,,,,,,,,,,,,,,
,,,,,,,,,55b8d0bffdf99b0f2859fe73,Mexican,13 or older,"no, only English or Spanish",no,2025-07-23_06h49.06.406,empathy_intonation_perc,2024.2.4,Win32,60.24096386,55b8d0bffdf99b0f2859fe73,687ed1b7e638a4cbf2f02089,6880be00c9090cf1eea2a441,,,,,,,,,,,,,59,0,,./stim/wavs/mexican_match_declarative-broad-focus_David-leia-el-libro.wav,,,,,,,,,,,,,,,,,,,,,,235.5065,238.0126,1,0,1.972,,0,11,11,58,1,0,mexican,,,,,,,,,,,,,,,,,,,,,,,,,,,,,,,,,,,,,,,,,,,,,,,,,,,,,,,,
,,,,,,,,,55b8d0bffdf99b0f2859fe73,Mexican,13 or older,"no, only English or Spanish",no,2025-07-23_06h49.06.406,empathy_intonation_perc,2024.2.4,Win32,60.24096386,55b8d0bffdf99b0f2859fe73,687ed1b7e638a4cbf2f02089,6880be00c9090cf1eea2a441,,,,,,,,,,,,,85,0,,./stim/wavs/puertorican_mismatch_declarative-broad-focus_El-hombre-mira-la-luna.wav,,,,,,,,,,,,,,,,,,,,,,238.0129,240.2,0,1,1.67,,0,12,12,84,1,0,puertorican,,,,,,,,,,,,,,,,,,,,,,,,,,,,,,,,,,,,,,,,,,,,,,,,,,,,,,,,
,,,,,,,,,55b8d0bffdf99b0f2859fe73,Mexican,13 or older,"no, only English or Spanish",no,2025-07-23_06h49.06.406,empathy_intonation_perc,2024.2.4,Win32,60.24096386,55b8d0bffdf99b0f2859fe73,687ed1b7e638a4cbf2f02089,6880be00c9090cf1eea2a441,,,,,,,,,,,,,57,0,,./stim/wavs/mexican_match_declarative-broad-focus_Ana-lleva-el-abrigo.wav,,,,,,,,,,,,,,,,,,,,,,240.2002,242.1209,0,1,1.4037,,0,13,13,56,1,0,mexican,,,,,,,,,,,,,,,,,,,,,,,,,,,,,,,,,,,,,,,,,,,,,,,,,,,,,,,,
,,,,,,,,,55b8d0bffdf99b0f2859fe73,Mexican,13 or older,"no, only English or Spanish",no,2025-07-23_06h49.06.406,empathy_intonation_perc,2024.2.4,Win32,60.24096386,55b8d0bffdf99b0f2859fe73,687ed1b7e638a4cbf2f02089,6880be00c9090cf1eea2a441,,,,,,,,,,,,,83,0,,./stim/wavs/mexican_mismatch_declarative-broad-focus_Mi-tia-odia-la-lluvia.wav,,,,,,,,,,,,,,,,,,,,,,242.1212,244.1419,0,1,1.5039,,0,14,14,82,1,0,mexican,,,,,,,,,,,,,,,,,,,,,,,,,,,,,,,,,,,,,,,,,,,,,,,,,,,,,,,,
,,,,,,,,,55b8d0bffdf99b0f2859fe73,Mexican,13 or older,"no, only English or Spanish",no,2025-07-23_06h49.06.406,empathy_intonation_perc,2024.2.4,Win32,60.24096386,55b8d0bffdf99b0f2859fe73,687ed1b7e638a4cbf2f02089,6880be00c9090cf1eea2a441,,,,,,,,,,,,,15,1,,./stim/wavs/mexican_match_interrogative-total-yn_David-leia-el-libro.wav,,,,,,,,,,,,,,,,,,,,,,244.1423,246.1461,1,1,1.4858,,0,15,15,14,1,0,mexican,,,,,,,,,,,,,,,,,,,,,,,,,,,,,,,,,,,,,,,,,,,,,,,,,,,,,,,,
,,,,,,,,,55b8d0bffdf99b0f2859fe73,Mexican,13 or older,"no, only English or Spanish",no,2025-07-23_06h49.06.406,empathy_intonation_perc,2024.2.4,Win32,60.24096386,55b8d0bffdf99b0f2859fe73,687ed1b7e638a4cbf2f02089,6880be00c9090cf1eea2a441,,,,,,,,,,,,,77,0,,./stim/wavs/cuban_mismatch_declarative-broad-focus_Mi-novio-viene-del-lago.wav,,,,,,,,,,,,,,,,,,,,,,246.1464,248.3852,0,1,1.7213,,0,16,16,76,1,0,cuban,,,,,,,,,,,,,,,,,,,,,,,,,,,,,,,,,,,,,,,,,,,,,,,,,,,,,,,,
,,,,,,,,,55b8d0bffdf99b0f2859fe73,Mexican,13 or older,"no, only English or Spanish",no,2025-07-23_06h49.06.406,empathy_intonation_perc,2024.2.4,Win32,60.24096386,55b8d0bffdf99b0f2859fe73,687ed1b7e638a4cbf2f02089,6880be00c9090cf1eea2a441,,,,,,,,,,,,,27,1,,./stim/wavs/castilian_mismatch_interrogative-total-yn_Mi-madre-come-la-fruta.wav,,,,,,,,,,,,,,,,,,,,,,248.3855,250.6238,1,1,1.7211,,0,17,17,26,1,0,castilian,,,,,,,,,,,,,,,,,,,,,,,,,,,,,,,,,,,,,,,,,,,,,,,,,,,,,,,,
,,,,,,,,,55b8d0bffdf99b0f2859fe73,Mexican,13 or older,"no, only English or Spanish",no,2025-07-23_06h49.06.406,empathy_intonation_perc,2024.2.4,Win32,60.24096386,55b8d0bffdf99b0f2859fe73,687ed1b7e638a4cbf2f02089,6880be00c9090cf1eea2a441,,,,,,,,,,,,,55,0,,./stim/wavs/cuban_match_declarative-broad-focus_Mariano-habla-del-tiempo.wav,,,,,,,,,,,,,,,,,,,,,,250.6241,252.9126,0,1,1.7711,,0,18,18,54,1,0,cuban,,,,,,,,,,,,,,,,,,,,,,,,,,,,,,,,,,,,,,,,,,,,,,,,,,,,,,,,
,,,,,,,,,55b8d0bffdf99b0f2859fe73,Mexican,13 or older,"no, only English or Spanish",no,2025-07-23_06h49.06.406,empathy_intonation_perc,2024.2.4,Win32,60.24096386,55b8d0bffdf99b0f2859fe73,687ed1b7e638a4cbf2f02089,6880be00c9090cf1eea2a441,,,,,,,,,,,,,30,1,,./stim/wavs/cuban_mismatch_interrogative-total-yn_El-hombre-mira-la-luna.wav,,,,,,,,,,,,,,,,,,,,,,252.913,254.8503,1,1,1.4186,,0,19,19,29,1,1,cuban,,,,,,,,,,,,,,,,,,,,,,,,,,,,,,,,,,,,,,,,,,,,,,,,,,,,,,,,
,,,,,,,,,55b8d0bffdf99b0f2859fe73,Mexican,13 or older,"no, only English or Spanish",no,2025-07-23_06h49.06.406,empathy_intonation_perc,2024.2.4,Win32,60.24096386,55b8d0bffdf99b0f2859fe73,687ed1b7e638a4cbf2f02089,6880be00c9090cf1eea2a441,,,,,,,,,,,,,28,1,,./stim/wavs/castilian_mismatch_interrogative-total-yn_Mi-novio-viene-del-lago.wav,,,,,,,,,,,,,,,,,,,,,,254.8505,257.1384,1,1,1.7713,,0,20,20,27,1,0,castilian,,,,,,,,,,,,,,,,,,,,,,,,,,,,,,,,,,,,,,,,,,,,,,,,,,,,,,,,
,,,,,,,,,55b8d0bffdf99b0f2859fe73,Mexican,13 or older,"no, only English or Spanish",no,2025-07-23_06h49.06.406,empathy_intonation_perc,2024.2.4,Win32,60.24096386,55b8d0bffdf99b0f2859fe73,687ed1b7e638a4cbf2f02089,6880be00c9090cf1eea2a441,,,,,,,,,,,,,65,0,,./stim/wavs/puertorican_match_declarative-broad-focus_David-leia-el-libro.wav,,,,,,,,,,,,,,,,,,,,,,257.1387,259.1593,1,0,1.503,,0,21,21,64,1,0,puertorican,,,,,,,,,,,,,,,,,,,,,,,,,,,,,,,,,,,,,,,,,,,,,,,,,,,,,,,,
,,,,,,,,,55b8d0bffdf99b0f2859fe73,Mexican,13 or older,"no, only English or Spanish",no,2025-07-23_06h49.06.406,empathy_intonation_perc,2024.2.4,Win32,60.24096386,55b8d0bffdf99b0f2859fe73,687ed1b7e638a4cbf2f02089,6880be00c9090cf1eea2a441,,,,,,,,,,,,,32,1,,./stim/wavs/cuban_mismatch_interrogative-total-yn_Mi-madre-come-la-fruta.wav,,,,,,,,,,,,,,,,,,,,,,259.1597,261.4316,0,0,1.7546,,0,22,22,31,1,1,cuban,,,,,,,,,,,,,,,,,,,,,,,,,,,,,,,,,,,,,,,,,,,,,,,,,,,,,,,,
,,,,,,,,,55b8d0bffdf99b0f2859fe73,Mexican,13 or older,"no, only English or Spanish",no,2025-07-23_06h49.06.406,empathy_intonation_perc,2024.2.4,Win32,60.24096386,55b8d0bffdf99b0f2859fe73,687ed1b7e638a4cbf2f02089,6880be00c9090cf1eea2a441,,,,,,,,,,,,,40,1,,./stim/wavs/puertorican_mismatch_interrogative-total-yn_El-hombre-mira-la-luna.wav,,,,,,,,,,,,,,,,,,,,,,261.432,263.4858,1,1,1.5367,,0,23,23,39,1,1,puertorican,,,,,,,,,,,,,,,,,,,,,,,,,,,,,,,,,,,,,,,,,,,,,,,,,,,,,,,,
,,,,,,,,,55b8d0bffdf99b0f2859fe73,Mexican,13 or older,"no, only English or Spanish",no,2025-07-23_06h49.06.406,empathy_intonation_perc,2024.2.4,Win32,60.24096386,55b8d0bffdf99b0f2859fe73,687ed1b7e638a4cbf2f02089,6880be00c9090cf1eea2a441,,,,,,,,,,,,,39,1,,./stim/wavs/mexican_mismatch_interrogative-total-yn_Mi-tia-odia-la-lluvia.wav,,,,,,,,,,,,,,,,,,,,,,263.4862,265.5073,1,1,1.5039,,0,24,24,38,1,0,mexican,,,,,,,,,,,,,,,,,,,,,,,,,,,,,,,,,,,,,,,,,,,,,,,,,,,,,,,,
,,,,,,,,,55b8d0bffdf99b0f2859fe73,Mexican,13 or older,"no, only English or Spanish",no,2025-07-23_06h49.06.406,empathy_intonation_perc,2024.2.4,Win32,60.24096386,55b8d0bffdf99b0f2859fe73,687ed1b7e638a4cbf2f02089,6880be00c9090cf1eea2a441,,,,,,,,,,,,,34,1,,./stim/wavs/cuban_mismatch_interrogative-total-yn_Mi-tia-odia-la-lluvia.wav,,,,,,,,,,,,,,,,,,,,,,265.5075,267.6459,0,0,1.6207,,0,25,25,33,1,1,cuban,,,,,,,,,,,,,,,,,,,,,,,,,,,,,,,,,,,,,,,,,,,,,,,,,,,,,,,,
,,,,,,,,,55b8d0bffdf99b0f2859fe73,Mexican,13 or older,"no, only English or Spanish",no,2025-07-23_06h49.06.406,empathy_intonation_perc,2024.2.4,Win32,60.24096386,55b8d0bffdf99b0f2859fe73,687ed1b7e638a4cbf2f02089,6880be00c9090cf1eea2a441,,,,,,,,,,,,,61,0,,./stim/wavs/mexican_match_declarative-broad-focus_Mariano-habla-del-tiempo.wav,,,,,,,,,,,,,,,,,,,,,,267.6462,269.817,0,1,1.6533,,0,26,26,60,1,0,mexican,,,,,,,,,,,,,,,,,,,,,,,,,,,,,,,,,,,,,,,,,,,,,,,,,,,,,,,,
,,,,,,,,,55b8d0bffdf99b0f2859fe73,Mexican,13 or older,"no, only English or Spanish",no,2025-07-23_06h49.06.406,empathy_intonation_perc,2024.2.4,Win32,60.24096386,55b8d0bffdf99b0f2859fe73,687ed1b7e638a4cbf2f02089,6880be00c9090cf1eea2a441,,,,,,,,,,,,,49,0,,./stim/wavs/castilian_match_declarative-broad-focus_Mariano-habla-del-tiempo.wav,,,,,,,,,,,,,,,,,,,,,,269.8174,272.2229,0,1,1.8878,,0,27,27,48,1,0,castilian,,,,,,,,,,,,,,,,,,,,,,,,,,,,,,,,,,,,,,,,,,,,,,,,,,,,,,,,
,,,,,,,,,55b8d0bffdf99b0f2859fe73,Mexican,13 or older,"no, only English or Spanish",no,2025-07-23_06h49.06.406,empathy_intonation_perc,2024.2.4,Win32,60.24096386,55b8d0bffdf99b0f2859fe73,687ed1b7e638a4cbf2f02089,6880be00c9090cf1eea2a441,,,,,,,,,,,,,11,1,,./stim/wavs/cuban_match_interrogative-total-yn_Mariano-habla-del-tiempo.wav,,,,,,,,,,,,,,,,,,,,,,272.2231,275.2795,0,0,2.523,,0,28,28,10,1,1,cuban,,,,,,,,,,,,,,,,,,,,,,,,,,,,,,,,,,,,,,,,,,,,,,,,,,,,,,,,
,,,,,,,,,55b8d0bffdf99b0f2859fe73,Mexican,13 or older,"no, only English or Spanish",no,2025-07-23_06h49.06.406,empathy_intonation_perc,2024.2.4,Win32,60.24096386,55b8d0bffdf99b0f2859fe73,687ed1b7e638a4cbf2f02089,6880be00c9090cf1eea2a441,,,,,,,,,,,,,47,0,,./stim/wavs/castilian_match_declarative-broad-focus_Manuela-vende-el-carro.wav,,,,,,,,,,,,,,,,,,,,,,275.2799,277.7186,0,1,1.9205,,0,29,29,46,1,0,castilian,,,,,,,,,,,,,,,,,,,,,,,,,,,,,,,,,,,,,,,,,,,,,,,,,,,,,,,,
,,,,,,,,,55b8d0bffdf99b0f2859fe73,Mexican,13 or older,"no, only English or Spanish",no,2025-07-23_06h49.06.406,empathy_intonation_perc,2024.2.4,Win32,60.24096386,55b8d0bffdf99b0f2859fe73,687ed1b7e638a4cbf2f02089,6880be00c9090cf1eea2a441,,,,,,,,,,,,,76,0,,./stim/wavs/cuban_mismatch_declarative-broad-focus_La-nina-lava-el-plato.wav,,,,,,,,,,,,,,,,,,,,,,277.7189,279.8562,0,1,1.6203,,0,30,30,75,1,0,cuban,,,,,,,,,,,,,,,,,,,,,,,,,,,,,,,,,,,,,,,,,,,,,,,,,,,,,,,,
,,,,,,,,,55b8d0bffdf99b0f2859fe73,Mexican,13 or older,"no, only English or Spanish",no,2025-07-23_06h49.06.406,empathy_intonation_perc,2024.2.4,Win32,60.24096386,55b8d0bffdf99b0f2859fe73,687ed1b7e638a4cbf2f02089,6880be00c9090cf1eea2a441,,,,,,,,,,,,,88,0,,./stim/wavs/puertorican_mismatch_declarative-broad-focus_La-nina-lava-el-plato.wav,,,,,,,,,,,,,,,,,,,,,,279.8564,281.7444,0,1,1.37,,0,31,31,87,1,0,puertorican,,,,,,,,,,,,,,,,,,,,,,,,,,,,,,,,,,,,,,,,,,,,,,,,,,,,,,,,
,,,,,,,,,55b8d0bffdf99b0f2859fe73,Mexican,13 or older,"no, only English or Spanish",no,2025-07-23_06h49.06.406,empathy_intonation_perc,2024.2.4,Win32,60.24096386,55b8d0bffdf99b0f2859fe73,687ed1b7e638a4cbf2f02089,6880be00c9090cf1eea2a441,,,,,,,,,,,,,16,1,,./stim/wavs/mexican_match_interrogative-total-yn_Emilio-ama-la-marcha.wav,,,,,,,,,,,,,,,,,,,,,,281.7447,283.7656,1,1,1.5037,,0,32,32,15,1,0,mexican,,,,,,,,,,,,,,,,,,,,,,,,,,,,,,,,,,,,,,,,,,,,,,,,,,,,,,,,
,,,,,,,,,55b8d0bffdf99b0f2859fe73,Mexican,13 or older,"no, only English or Spanish",no,2025-07-23_06h49.06.406,empathy_intonation_perc,2024.2.4,Win32,60.24096386,55b8d0bffdf99b0f2859fe73,687ed1b7e638a4cbf2f02089,6880be00c9090cf1eea2a441,,,,,,,,,,,,,44,1,,./stim/wavs/puertorican_mismatch_interrogative-total-yn_Mi-madre-come-la-fruta.wav,,,,,,,,,,,,,,,,,,,,,,283.766,285.9209,0,0,1.6373,,0,33,33,43,1,1,puertorican,,,,,,,,,,,,,,,,,,,,,,,,,,,,,,,,,,,,,,,,,,,,,,,,,,,,,,,,
,,,,,,,,,55b8d0bffdf99b0f2859fe73,Mexican,13 or older,"no, only English or Spanish",no,2025-07-23_06h49.06.406,empathy_intonation_perc,2024.2.4,Win32,60.24096386,55b8d0bffdf99b0f2859fe73,687ed1b7e638a4cbf2f02089,6880be00c9090cf1eea2a441,,,,,,,,,,,,,82,0,,./stim/wavs/mexican_mismatch_declarative-broad-focus_Mi-novio-viene-del-lago.wav,,,,,,,,,,,,,,,,,,,,,,285.9212,288.0083,0,1,1.5701,,0,34,34,81,1,0,mexican,,,,,,,,,,,,,,,,,,,,,,,,,,,,,,,,,,,,,,,,,,,,,,,,,,,,,,,,
,,,,,,,,,55b8d0bffdf99b0f2859fe73,Mexican,13 or older,"no, only English or Spanish",no,2025-07-23_06h49.06.406,empathy_intonation_perc,2024.2.4,Win32,60.24096386,55b8d0bffdf99b0f2859fe73,687ed1b7e638a4cbf2f02089,6880be00c9090cf1eea2a441,,,,,,,,,,,,,73,0,,./stim/wavs/castilian_mismatch_declarative-broad-focus_Mi-tia-odia-la-lluvia.wav,,,,,,,,,,,,,,,,,,,,,,288.0086,290.1138,0,1,1.5876,,0,35,35,72,1,0,castilian,,,,,,,,,,,,,,,,,,,,,,,,,,,,,,,,,,,,,,,,,,,,,,,,,,,,,,,,
,,,,,,,,,55b8d0bffdf99b0f2859fe73,Mexican,13 or older,"no, only English or Spanish",no,2025-07-23_06h49.06.406,empathy_intonation_perc,2024.2.4,Win32,60.24096386,55b8d0bffdf99b0f2859fe73,687ed1b7e638a4cbf2f02089,6880be00c9090cf1eea2a441,,,,,,,,,,,,,70,0,,./stim/wavs/castilian_mismatch_declarative-broad-focus_La-maestra-vive-en-Paris.wav,,,,,,,,,,,,,,,,,,,,,,290.1142,292.4354,0,1,1.7866,,0,36,36,69,1,0,castilian,,,,,,,,,,,,,,,,,,,,,,,,,,,,,,,,,,,,,,,,,,,,,,,,,,,,,,,,
,,,,,,,,,55b8d0bffdf99b0f2859fe73,Mexican,13 or older,"no, only English or Spanish",no,2025-07-23_06h49.06.406,empathy_intonation_perc,2024.2.4,Win32,60.24096386,55b8d0bffdf99b0f2859fe73,687ed1b7e638a4cbf2f02089,6880be00c9090cf1eea2a441,,,,,,,,,,,,,1,1,,./stim/wavs/castilian_match_interrogative-total-yn_David-leia-el-libro.wav,,,,,,,,,,,,,,,,,,,,,,292.4357,294.6407,1,1,1.688,,0,37,37,0,1,0,castilian,,,,,,,,,,,,,,,,,,,,,,,,,,,,,,,,,,,,,,,,,,,,,,,,,,,,,,,,
,,,,,,,,,55b8d0bffdf99b0f2859fe73,Mexican,13 or older,"no, only English or Spanish",no,2025-07-23_06h49.06.406,empathy_intonation_perc,2024.2.4,Win32,60.24096386,55b8d0bffdf99b0f2859fe73,687ed1b7e638a4cbf2f02089,6880be00c9090cf1eea2a441,,,,,,,,,,,,,50,0,,./stim/wavs/castilian_match_declarative-broad-focus_Marta-abre-el-regalo.wav,,,,,,,,,,,,,,,,,,,,,,294.641,296.8782,0,1,1.7205,,0,38,38,49,1,0,castilian,,,,,,,,,,,,,,,,,,,,,,,,,,,,,,,,,,,,,,,,,,,,,,,,,,,,,,,,
,,,,,,,,,55b8d0bffdf99b0f2859fe73,Mexican,13 or older,"no, only English or Spanish",no,2025-07-23_06h49.06.406,empathy_intonation_perc,2024.2.4,Win32,60.24096386,55b8d0bffdf99b0f2859fe73,687ed1b7e638a4cbf2f02089,6880be00c9090cf1eea2a441,,,,,,,,,,,,,45,0,,./stim/wavs/castilian_match_declarative-broad-focus_David-leia-el-libro.wav,,,,,,,,,,,,,,,,,,,,,,296.8784,299.1014,0,1,1.7037,,0,39,39,44,1,0,castilian,,,,,,,,,,,,,,,,,,,,,,,,,,,,,,,,,,,,,,,,,,,,,,,,,,,,,,,,
,,,,,,,,,55b8d0bffdf99b0f2859fe73,Mexican,13 or older,"no, only English or Spanish",no,2025-07-23_06h49.06.406,empathy_intonation_perc,2024.2.4,Win32,60.24096386,55b8d0bffdf99b0f2859fe73,687ed1b7e638a4cbf2f02089,6880be00c9090cf1eea2a441,,,,,,,,,,,,,31,1,,./stim/wavs/cuban_mismatch_interrogative-total-yn_El-nino-oye-el-rio.wav,,,,,,,,,,,,,,,,,,,,,,299.1018,301.1554,1,1,1.5367,,0,40,40,30,1,1,cuban,,,,,,,,,,,,,,,,,,,,,,,,,,,,,,,,,,,,,,,,,,,,,,,,,,,,,,,,
,,,,,,,,,55b8d0bffdf99b0f2859fe73,Mexican,13 or older,"no, only English or Spanish",no,2025-07-23_06h49.06.406,empathy_intonation_perc,2024.2.4,Win32,60.24096386,55b8d0bffdf99b0f2859fe73,687ed1b7e638a4cbf2f02089,6880be00c9090cf1eea2a441,,,,,,,,,,,,,66,0,,./stim/wavs/puertorican_match_declarative-broad-focus_Emilio-ama-la-marcha.wav,,,,,,,,,,,,,,,,,,,,,,301.1558,303.1934,0,1,1.5205,,0,41,41,65,1,0,puertorican,,,,,,,,,,,,,,,,,,,,,,,,,,,,,,,,,,,,,,,,,,,,,,,,,,,,,,,,
,,,,,,,,,55b8d0bffdf99b0f2859fe73,Mexican,13 or older,"no, only English or Spanish",no,2025-07-23_06h49.06.406,empathy_intonation_perc,2024.2.4,Win32,60.24096386,55b8d0bffdf99b0f2859fe73,687ed1b7e638a4cbf2f02089,6880be00c9090cf1eea2a441,,,,,,,,,,,,,60,0,,./stim/wavs/mexican_match_declarative-broad-focus_Emilio-ama-la-marcha.wav,,,,,,,,,,,,,,,,,,,,,,303.1937,305.3485,0,1,1.6378,,0,42,42,59,1,0,mexican,,,,,,,,,,,,,,,,,,,,,,,,,,,,,,,,,,,,,,,,,,,,,,,,,,,,,,,,
,,,,,,,,,55b8d0bffdf99b0f2859fe73,Mexican,13 or older,"no, only English or Spanish",no,2025-07-23_06h49.06.406,empathy_intonation_perc,2024.2.4,Win32,60.24096386,55b8d0bffdf99b0f2859fe73,687ed1b7e638a4cbf2f02089,6880be00c9090cf1eea2a441,,,,,,,,,,,,,36,1,,./stim/wavs/mexican_mismatch_interrogative-total-yn_El-nino-oye-el-rio.wav,,,,,,,,,,,,,,,,,,,,,,305.3488,307.3367,1,1,1.4706,,0,43,43,35,1,0,mexican,,,,,,,,,,,,,,,,,,,,,,,,,,,,,,,,,,,,,,,,,,,,,,,,,,,,,,,,
,,,,,,,,,55b8d0bffdf99b0f2859fe73,Mexican,13 or older,"no, only English or Spanish",no,2025-07-23_06h49.06.406,empathy_intonation_perc,2024.2.4,Win32,60.24096386,55b8d0bffdf99b0f2859fe73,687ed1b7e638a4cbf2f02089,6880be00c9090cf1eea2a441,,,,,,,,,,,,,43,1,,./stim/wavs/puertorican_mismatch_interrogative-total-yn_La-nina-lava-el-plato.wav,,,,,,,,,,,,,,,,,,,,,,307.337,309.4078,0,0,1.5538,,0,44,44,42,1,1,puertorican,,,,,,,,,,,,,,,,,,,,,,,,,,,,,,,,,,,,,,,,,,,,,,,,,,,,,,,,
,,,,,,,,,55b8d0bffdf99b0f2859fe73,Mexican,13 or older,"no, only English or Spanish",no,2025-07-23_06h49.06.406,empathy_intonation_perc,2024.2.4,Win32,60.24096386,55b8d0bffdf99b0f2859fe73,687ed1b7e638a4cbf2f02089,6880be00c9090cf1eea2a441,,,,,,,,,,,,,53,0,,./stim/wavs/cuban_match_declarative-broad-focus_Manuela-vende-el-carro.wav,,,,,,,,,,,,,,,,,,,,,,309.408,311.5295,0,1,1.604,,0,45,45,52,1,0,cuban,,,,,,,,,,,,,,,,,,,,,,,,,,,,,,,,,,,,,,,,,,,,,,,,,,,,,,,,
,,,,,,,,,55b8d0bffdf99b0f2859fe73,Mexican,13 or older,"no, only English or Spanish",no,2025-07-23_06h49.06.406,empathy_intonation_perc,2024.2.4,Win32,60.24096386,55b8d0bffdf99b0f2859fe73,687ed1b7e638a4cbf2f02089,6880be00c9090cf1eea2a441,,,,,,,,,,,,,58,0,,./stim/wavs/mexican_match_declarative-broad-focus_Daniel-iba-a-Bolivia.wav,,,,,,,,,,,,,,,,,,,,,,311.5297,313.5005,0,1,1.437,,0,46,46,57,1,0,mexican,,,,,,,,,,,,,,,,,,,,,,,,,,,,,,,,,,,,,,,,,,,,,,,,,,,,,,,,
,,,,,,,,,55b8d0bffdf99b0f2859fe73,Mexican,13 or older,"no, only English or Spanish",no,2025-07-23_06h49.06.406,empathy_intonation_perc,2024.2.4,Win32,60.24096386,55b8d0bffdf99b0f2859fe73,687ed1b7e638a4cbf2f02089,6880be00c9090cf1eea2a441,,,,,,,,,,,,,17,1,,./stim/wavs/mexican_match_interrogative-total-yn_Mariano-habla-del-tiempo.wav,,,,,,,,,,,,,,,,,,,,,,313.5007,315.5548,1,1,1.5373,,0,47,47,16,1,0,mexican,,,,,,,,,,,,,,,,,,,,,,,,,,,,,,,,,,,,,,,,,,,,,,,,,,,,,,,,
,,,,,,,,,55b8d0bffdf99b0f2859fe73,Mexican,13 or older,"no, only English or Spanish",no,2025-07-23_06h49.06.406,empathy_intonation_perc,2024.2.4,Win32,60.24096386,55b8d0bffdf99b0f2859fe73,687ed1b7e638a4cbf2f02089,6880be00c9090cf1eea2a441,,,,,,,,,,,,,18,1,,./stim/wavs/mexican_match_interrogative-total-yn_Marta-abre-el-regalo.wav,,,,,,,,,,,,,,,,,,,,,,315.5551,317.4754,1,1,1.4028,,0,48,48,17,1,0,mexican,,,,,,,,,,,,,,,,,,,,,,,,,,,,,,,,,,,,,,,,,,,,,,,,,,,,,,,,
,,,,,,,,,55b8d0bffdf99b0f2859fe73,Mexican,13 or older,"no, only English or Spanish",no,2025-07-23_06h49.06.406,empathy_intonation_perc,2024.2.4,Win32,60.24096386,55b8d0bffdf99b0f2859fe73,687ed1b7e638a4cbf2f02089,6880be00c9090cf1eea2a441,,,,,,,,,,,,,51,0,,./stim/wavs/cuban_match_declarative-broad-focus_Ana-lleva-el-abrigo.wav,,,,,,,,,,,,,,,,,,,,,,317.4756,319.4801,0,1,1.487,,0,49,49,50,1,0,cuban,,,,,,,,,,,,,,,,,,,,,,,,,,,,,,,,,,,,,,,,,,,,,,,,,,,,,,,,
,,,,,,,,,55b8d0bffdf99b0f2859fe73,Mexican,13 or older,"no, only English or Spanish",no,2025-07-23_06h49.06.406,empathy_intonation_perc,2024.2.4,Win32,60.24096386,55b8d0bffdf99b0f2859fe73,687ed1b7e638a4cbf2f02089,6880be00c9090cf1eea2a441,,,,,,,,,,,,,71,0,,./stim/wavs/castilian_mismatch_declarative-broad-focus_La-nina-lava-el-plato.wav,,,,,,,,,,,,,,,,,,,,,,319.4804,321.7021,0,1,1.7041,,0,50,50,70,1,0,castilian,,,,,,,,,,,,,,,,,,,,,,,,,,,,,,,,,,,,,,,,,,,,,,,,,,,,,,,,
,,,,,,,,,55b8d0bffdf99b0f2859fe73,Mexican,13 or older,"no, only English or Spanish",no,2025-07-23_06h49.06.406,empathy_intonation_perc,2024.2.4,Win32,60.24096386,55b8d0bffdf99b0f2859fe73,687ed1b7e638a4cbf2f02089,6880be00c9090cf1eea2a441,,,,,,,,,,,,,80,0,,./stim/wavs/mexican_mismatch_declarative-broad-focus_El-hombre-mira-la-luna.wav,,,,,,,,,,,,,,,,,,,,,,321.7024,323.7566,0,1,1.5367,,0,51,51,79,1,0,mexican,,,,,,,,,,,,,,,,,,,,,,,,,,,,,,,,,,,,,,,,,,,,,,,,,,,,,,,,
,,,,,,,,,55b8d0bffdf99b0f2859fe73,Mexican,13 or older,"no, only English or Spanish",no,2025-07-23_06h49.06.406,empathy_intonation_perc,2024.2.4,Win32,60.24096386,55b8d0bffdf99b0f2859fe73,687ed1b7e638a4cbf2f02089,6880be00c9090cf1eea2a441,,,,,,,,,,,,,10,1,,./stim/wavs/cuban_match_interrogative-total-yn_Maria-bebe-el-vino.wav,,,,,,,,,,,,,,,,,,,,,,323.757,325.8955,0,0,1.6213,,0,52,52,9,1,1,cuban,,,,,,,,,,,,,,,,,,,,,,,,,,,,,,,,,,,,,,,,,,,,,,,,,,,,,,,,
,,,,,,,,,55b8d0bffdf99b0f2859fe73,Mexican,13 or older,"no, only English or Spanish",no,2025-07-23_06h49.06.406,empathy_intonation_perc,2024.2.4,Win32,60.24096386,55b8d0bffdf99b0f2859fe73,687ed1b7e638a4cbf2f02089,6880be00c9090cf1eea2a441,,,,,,,,,,,,,22,1,,./stim/wavs/puertorican_match_interrogative-total-yn_Emilio-ama-la-marcha.wav,,,,,,,,,,,,,,,,,,,,,,325.896,327.9504,0,0,1.5376,,0,53,53,21,1,1,puertorican,,,,,,,,,,,,,,,,,,,,,,,,,,,,,,,,,,,,,,,,,,,,,,,,,,,,,,,,
,,,,,,,,,55b8d0bffdf99b0f2859fe73,Mexican,13 or older,"no, only English or Spanish",no,2025-07-23_06h49.06.406,empathy_intonation_perc,2024.2.4,Win32,60.24096386,55b8d0bffdf99b0f2859fe73,687ed1b7e638a4cbf2f02089,6880be00c9090cf1eea2a441,,,,,,,,,,,,,84,0,,./stim/wavs/puertorican_mismatch_declarative-broad-focus_El-bebe-comia-muy-bien.wav,,,,,,,,,,,,,,,,,,,,,,327.9506,330.5727,0,1,2.1055,,0,54,54,83,1,0,puertorican,,,,,,,,,,,,,,,,,,,,,,,,,,,,,,,,,,,,,,,,,,,,,,,,,,,,,,,,
,,,,,,,,,55b8d0bffdf99b0f2859fe73,Mexican,13 or older,"no, only English or Spanish",no,2025-07-23_06h49.06.406,empathy_intonation_perc,2024.2.4,Win32,60.24096386,55b8d0bffdf99b0f2859fe73,687ed1b7e638a4cbf2f02089,6880be00c9090cf1eea2a441,,,,,,,,,,,,,68,0,,./stim/wavs/puertorican_match_declarative-broad-focus_Maria-bebe-el-vino.wav,,,,,,,,,,,,,,,,,,,,,,330.5731,332.9117,1,0,1.8051,,0,55,55,67,1,0,puertorican,,,,,,,,,,,,,,,,,,,,,,,,,,,,,,,,,,,,,,,,,,,,,,,,,,,,,,,,
,,,,,,,,,55b8d0bffdf99b0f2859fe73,Mexican,13 or older,"no, only English or Spanish",no,2025-07-23_06h49.06.406,empathy_intonation_perc,2024.2.4,Win32,60.24096386,55b8d0bffdf99b0f2859fe73,687ed1b7e638a4cbf2f02089,6880be00c9090cf1eea2a441,,,,,,,,,,,,,67,0,,./stim/wavs/puertorican_match_declarative-broad-focus_Manuela-vende-el-carro.wav,,,,,,,,,,,,,,,,,,,,,,332.9121,335.0153,0,1,1.5861,,0,56,56,66,1,0,puertorican,,,,,,,,,,,,,,,,,,,,,,,,,,,,,,,,,,,,,,,,,,,,,,,,,,,,,,,,
,,,,,,,,,55b8d0bffdf99b0f2859fe73,Mexican,13 or older,"no, only English or Spanish",no,2025-07-23_06h49.06.406,empathy_intonation_perc,2024.2.4,Win32,60.24096386,55b8d0bffdf99b0f2859fe73,687ed1b7e638a4cbf2f02089,6880be00c9090cf1eea2a441,,,,,,,,,,,,,64,0,,./stim/wavs/puertorican_match_declarative-broad-focus_Daniel-iba-a-Bolivia.wav,,,,,,,,,,,,,,,,,,,,,,335.0156,336.9206,0,1,1.3871,,0,57,57,63,1,0,puertorican,,,,,,,,,,,,,,,,,,,,,,,,,,,,,,,,,,,,,,,,,,,,,,,,,,,,,,,,
,,,,,,,,,55b8d0bffdf99b0f2859fe73,Mexican,13 or older,"no, only English or Spanish",no,2025-07-23_06h49.06.406,empathy_intonation_perc,2024.2.4,Win32,60.24096386,55b8d0bffdf99b0f2859fe73,687ed1b7e638a4cbf2f02089,6880be00c9090cf1eea2a441,,,,,,,,,,,,,75,0,,./stim/wavs/cuban_mismatch_declarative-broad-focus_El-hombre-mira-la-luna.wav,,,,,,,,,,,,,,,,,,,,,,336.9208,338.9084,0,1,1.4702,,0,58,58,74,1,0,cuban,,,,,,,,,,,,,,,,,,,,,,,,,,,,,,,,,,,,,,,,,,,,,,,,,,,,,,,,
,,,,,,,,,55b8d0bffdf99b0f2859fe73,Mexican,13 or older,"no, only English or Spanish",no,2025-07-23_06h49.06.406,empathy_intonation_perc,2024.2.4,Win32,60.24096386,55b8d0bffdf99b0f2859fe73,687ed1b7e638a4cbf2f02089,6880be00c9090cf1eea2a441,,,,,,,,,,,,,25,1,,./stim/wavs/castilian_mismatch_interrogative-total-yn_La-maestra-vive-en-Paris.wav,,,,,,,,,,,,,,,,,,,,,,338.9086,341.1636,1,1,1.738,,0,59,59,24,1,0,castilian,,,,,,,,,,,,,,,,,,,,,,,,,,,,,,,,,,,,,,,,,,,,,,,,,,,,,,,,
,,,,,,,,,55b8d0bffdf99b0f2859fe73,Mexican,13 or older,"no, only English or Spanish",no,2025-07-23_06h49.06.406,empathy_intonation_perc,2024.2.4,Win32,60.24096386,55b8d0bffdf99b0f2859fe73,687ed1b7e638a4cbf2f02089,6880be00c9090cf1eea2a441,,,,,,,,,,,,,29,1,,./stim/wavs/castilian_mismatch_interrogative-total-yn_Mi-tia-odia-la-lluvia.wav,,,,,,,,,,,,,,,,,,,,,,341.164,343.3517,1,1,1.6703,,0,60,60,28,1,0,castilian,,,,,,,,,,,,,,,,,,,,,,,,,,,,,,,,,,,,,,,,,,,,,,,,,,,,,,,,
,,,,,,,,,55b8d0bffdf99b0f2859fe73,Mexican,13 or older,"no, only English or Spanish",no,2025-07-23_06h49.06.406,empathy_intonation_perc,2024.2.4,Win32,60.24096386,55b8d0bffdf99b0f2859fe73,687ed1b7e638a4cbf2f02089,6880be00c9090cf1eea2a441,,,,,,,,,,,,,81,0,,./stim/wavs/mexican_mismatch_declarative-broad-focus_La-maestra-vive-en-Paris.wav,,,,,,,,,,,,,,,,,,,,,,343.352,345.6065,0,1,1.7377,,0,61,61,80,1,0,mexican,,,,,,,,,,,,,,,,,,,,,,,,,,,,,,,,,,,,,,,,,,,,,,,,,,,,,,,,
,,,,,,,,,55b8d0bffdf99b0f2859fe73,Mexican,13 or older,"no, only English or Spanish",no,2025-07-23_06h49.06.406,empathy_intonation_perc,2024.2.4,Win32,60.24096386,55b8d0bffdf99b0f2859fe73,687ed1b7e638a4cbf2f02089,6880be00c9090cf1eea2a441,,,,,,,,,,,,,63,0,,./stim/wavs/puertorican_match_declarative-broad-focus_Ana-lleva-el-abrigo.wav,,,,,,,,,,,,,,,,,,,,,,345.6069,347.5116,0,1,1.3872,,0,62,62,62,1,0,puertorican,,,,,,,,,,,,,,,,,,,,,,,,,,,,,,,,,,,,,,,,,,,,,,,,,,,,,,,,
,,,,,,,,,55b8d0bffdf99b0f2859fe73,Mexican,13 or older,"no, only English or Spanish",no,2025-07-23_06h49.06.406,empathy_intonation_perc,2024.2.4,Win32,60.24096386,55b8d0bffdf99b0f2859fe73,687ed1b7e638a4cbf2f02089,6880be00c9090cf1eea2a441,,,,,,,,,,,,,6,1,,./stim/wavs/castilian_match_interrogative-total-yn_Marta-abre-el-regalo.wav,,,,,,,,,,,,,,,,,,,,,,347.5119,349.7664,1,1,1.7211,,0,63,63,5,1,0,castilian,,,,,,,,,,,,,,,,,,,,,,,,,,,,,,,,,,,,,,,,,,,,,,,,,,,,,,,,
,,,,,,,,,55b8d0bffdf99b0f2859fe73,Mexican,13 or older,"no, only English or Spanish",no,2025-07-23_06h49.06.406,empathy_intonation_perc,2024.2.4,Win32,60.24096386,55b8d0bffdf99b0f2859fe73,687ed1b7e638a4cbf2f02089,6880be00c9090cf1eea2a441,,,,,,,,,,,,,19,1,,./stim/wavs/puertorican_match_interrogative-total-yn_Ana-lleva-el-abrigo.wav,,,,,,,,,,,,,,,,,,,,,,349.7669,351.6214,0,0,1.3375,,0,64,64,18,1,1,puertorican,,,,,,,,,,,,,,,,,,,,,,,,,,,,,,,,,,,,,,,,,,,,,,,,,,,,,,,,
,,,,,,,,,55b8d0bffdf99b0f2859fe73,Mexican,13 or older,"no, only English or Spanish",no,2025-07-23_06h49.06.406,empathy_intonation_perc,2024.2.4,Win32,60.24096386,55b8d0bffdf99b0f2859fe73,687ed1b7e638a4cbf2f02089,6880be00c9090cf1eea2a441,,,,,,,,,,,,,9,1,,./stim/wavs/cuban_match_interrogative-total-yn_Manuela-vende-el-carro.wav,,,,,,,,,,,,,,,,,,,,,,351.6217,353.7925,0,0,1.6374,,0,65,65,8,1,1,cuban,,,,,,,,,,,,,,,,,,,,,,,,,,,,,,,,,,,,,,,,,,,,,,,,,,,,,,,,
,,,,,,,,,55b8d0bffdf99b0f2859fe73,Mexican,13 or older,"no, only English or Spanish",no,2025-07-23_06h49.06.406,empathy_intonation_perc,2024.2.4,Win32,60.24096386,55b8d0bffdf99b0f2859fe73,687ed1b7e638a4cbf2f02089,6880be00c9090cf1eea2a441,,,,,,,,,,,,,62,0,,./stim/wavs/mexican_match_declarative-broad-focus_Marta-abre-el-regalo.wav,,,,,,,,,,,,,,,,,,,,,,353.7927,355.6795,0,1,1.3537,,0,66,66,61,1,0,mexican,,,,,,,,,,,,,,,,,,,,,,,,,,,,,,,,,,,,,,,,,,,,,,,,,,,,,,,,
,,,,,,,,,55b8d0bffdf99b0f2859fe73,Mexican,13 or older,"no, only English or Spanish",no,2025-07-23_06h49.06.406,empathy_intonation_perc,2024.2.4,Win32,60.24096386,55b8d0bffdf99b0f2859fe73,687ed1b7e638a4cbf2f02089,6880be00c9090cf1eea2a441,,,,,,,,,,,,,26,1,,./stim/wavs/castilian_mismatch_interrogative-total-yn_La-nina-lava-el-plato.wav,,,,,,,,,,,,,,,,,,,,,,355.6799,357.7521,1,1,1.5548,,0,67,67,25,1,0,castilian,,,,,,,,,,,,,,,,,,,,,,,,,,,,,,,,,,,,,,,,,,,,,,,,,,,,,,,,
,,,,,,,,,55b8d0bffdf99b0f2859fe73,Mexican,13 or older,"no, only English or Spanish",no,2025-07-23_06h49.06.406,empathy_intonation_perc,2024.2.4,Win32,60.24096386,55b8d0bffdf99b0f2859fe73,687ed1b7e638a4cbf2f02089,6880be00c9090cf1eea2a441,,,,,,,,,,,,,21,1,,./stim/wavs/puertorican_match_interrogative-total-yn_David-leia-el-libro.wav,,,,,,,,,,,,,,,,,,,,,,357.7525,359.6738,0,0,1.4039,,0,68,68,20,1,1,puertorican,,,,,,,,,,,,,,,,,,,,,,,,,,,,,,,,,,,,,,,,,,,,,,,,,,,,,,,,
,,,,,,,,,55b8d0bffdf99b0f2859fe73,Mexican,13 or older,"no, only English or Spanish",no,2025-07-23_06h49.06.406,empathy_intonation_perc,2024.2.4,Win32,60.24096386,55b8d0bffdf99b0f2859fe73,687ed1b7e638a4cbf2f02089,6880be00c9090cf1eea2a441,,,,,,,,,,,,,2,1,,./stim/wavs/castilian_match_interrogative-total-yn_Emilio-ama-la-marcha.wav,,,,,,,,,,,,,,,,,,,,,,359.6742,361.7772,1,1,1.5711,,0,69,69,1,1,0,castilian,,,,,,,,,,,,,,,,,,,,,,,,,,,,,,,,,,,,,,,,,,,,,,,,,,,,,,,,
,,,,,,,,,55b8d0bffdf99b0f2859fe73,Mexican,13 or older,"no, only English or Spanish",no,2025-07-23_06h49.06.406,empathy_intonation_perc,2024.2.4,Win32,60.24096386,55b8d0bffdf99b0f2859fe73,687ed1b7e638a4cbf2f02089,6880be00c9090cf1eea2a441,,,,,,,,,,,,,23,1,,./stim/wavs/puertorican_match_interrogative-total-yn_Manuela-vende-el-carro.wav,,,,,,,,,,,,,,,,,,,,,,361.7774,363.8655,0,0,1.5709,,0,70,70,22,1,1,puertorican,,,,,,,,,,,,,,,,,,,,,,,,,,,,,,,,,,,,,,,,,,,,,,,,,,,,,,,,
,,,,,,,,,55b8d0bffdf99b0f2859fe73,Mexican,13 or older,"no, only English or Spanish",no,2025-07-23_06h49.06.406,empathy_intonation_perc,2024.2.4,Win32,60.24096386,55b8d0bffdf99b0f2859fe73,687ed1b7e638a4cbf2f02089,6880be00c9090cf1eea2a441,,,,,,,,,,,,,3,1,,./stim/wavs/castilian_match_interrogative-total-yn_Manuela-vende-el-carro.wav,,,,,,,,,,,,,,,,,,,,,,363.8659,365.9527,1,1,1.5701,,0,71,71,2,1,0,castilian,,,,,,,,,,,,,,,,,,,,,,,,,,,,,,,,,,,,,,,,,,,,,,,,,,,,,,,,
,,,,,,,,,55b8d0bffdf99b0f2859fe73,Mexican,13 or older,"no, only English or Spanish",no,2025-07-23_06h49.06.406,empathy_intonation_perc,2024.2.4,Win32,60.24096386,55b8d0bffdf99b0f2859fe73,687ed1b7e638a4cbf2f02089,6880be00c9090cf1eea2a441,,,,,,,,,,,,,46,0,,./stim/wavs/castilian_match_declarative-broad-focus_Emilio-ama-la-marcha.wav,,,,,,,,,,,,,,,,,,,,,,365.9531,368.1422,0,1,1.6708,,0,72,72,45,1,0,castilian,,,,,,,,,,,,,,,,,,,,,,,,,,,,,,,,,,,,,,,,,,,,,,,,,,,,,,,,
,,,,,,,,,55b8d0bffdf99b0f2859fe73,Mexican,13 or older,"no, only English or Spanish",no,2025-07-23_06h49.06.406,empathy_intonation_perc,2024.2.4,Win32,60.24096386,55b8d0bffdf99b0f2859fe73,687ed1b7e638a4cbf2f02089,6880be00c9090cf1eea2a441,,,,,,,,,,,,,87,0,,./stim/wavs/puertorican_mismatch_declarative-broad-focus_La-maestra-vive-en-Paris.wav,,,,,,,,,,,,,,,,,,,,,,368.1427,370.2637,0,1,1.6041,,0,73,73,86,1,0,puertorican,,,,,,,,,,,,,,,,,,,,,,,,,,,,,,,,,,,,,,,,,,,,,,,,,,,,,,,,
,,,,,,,,,55b8d0bffdf99b0f2859fe73,Mexican,13 or older,"no, only English or Spanish",no,2025-07-23_06h49.06.406,empathy_intonation_perc,2024.2.4,Win32,60.24096386,55b8d0bffdf99b0f2859fe73,687ed1b7e638a4cbf2f02089,6880be00c9090cf1eea2a441,,,,,,,,,,,,,74,0,,./stim/wavs/cuban_mismatch_declarative-broad-focus_El-bebe-comia-muy-bien.wav,,,,,,,,,,,,,,,,,,,,,,370.2639,372.2841,0,1,1.5036,,0,74,74,73,1,0,cuban,,,,,,,,,,,,,,,,,,,,,,,,,,,,,,,,,,,,,,,,,,,,,,,,,,,,,,,,
,,,,,,,,,55b8d0bffdf99b0f2859fe73,Mexican,13 or older,"no, only English or Spanish",no,2025-07-23_06h49.06.406,empathy_intonation_perc,2024.2.4,Win32,60.24096386,55b8d0bffdf99b0f2859fe73,687ed1b7e638a4cbf2f02089,6880be00c9090cf1eea2a441,,,,,,,,,,,,,35,1,,./stim/wavs/mexican_mismatch_interrogative-total-yn_El-hombre-mira-la-luna.wav,,,,,,,,,,,,,,,,,,,,,,372.2843,374.1387,1,1,1.3372,,0,75,75,34,1,0,mexican,,,,,,,,,,,,,,,,,,,,,,,,,,,,,,,,,,,,,,,,,,,,,,,,,,,,,,,,
,,,,,,,,,55b8d0bffdf99b0f2859fe73,Mexican,13 or older,"no, only English or Spanish",no,2025-07-23_06h49.06.406,empathy_intonation_perc,2024.2.4,Win32,60.24096386,55b8d0bffdf99b0f2859fe73,687ed1b7e638a4cbf2f02089,6880be00c9090cf1eea2a441,,,,,,,,,,,,,5,1,,./stim/wavs/castilian_match_interrogative-total-yn_Mariano-habla-del-tiempo.wav,,,,,,,,,,,,,,,,,,,,,,374.139,376.4774,1,1,1.805,,0,76,76,4,1,0,castilian,,,,,,,,,,,,,,,,,,,,,,,,,,,,,,,,,,,,,,,,,,,,,,,,,,,,,,,,
,,,,,,,,,55b8d0bffdf99b0f2859fe73,Mexican,13 or older,"no, only English or Spanish",no,2025-07-23_06h49.06.406,empathy_intonation_perc,2024.2.4,Win32,60.24096386,55b8d0bffdf99b0f2859fe73,687ed1b7e638a4cbf2f02089,6880be00c9090cf1eea2a441,,,,,,,,,,,,,56,0,,./stim/wavs/cuban_match_declarative-broad-focus_Marta-abre-el-regalo.wav,,,,,,,,,,,,,,,,,,,,,,376.4777,378.516,0,1,1.5207,,0,77,77,55,1,0,cuban,,,,,,,,,,,,,,,,,,,,,,,,,,,,,,,,,,,,,,,,,,,,,,,,,,,,,,,,
,,,,,,,,,55b8d0bffdf99b0f2859fe73,Mexican,13 or older,"no, only English or Spanish",no,2025-07-23_06h49.06.406,empathy_intonation_perc,2024.2.4,Win32,60.24096386,55b8d0bffdf99b0f2859fe73,687ed1b7e638a4cbf2f02089,6880be00c9090cf1eea2a441,,,,,,,,,,,,,24,1,,./stim/wavs/puertorican_match_interrogative-total-yn_Maria-bebe-el-vino.wav,,,,,,,,,,,,,,,,,,,,,,378.5163,380.3861,1,1,1.3372,,0,78,78,23,1,1,puertorican,,,,,,,,,,,,,,,,,,,,,,,,,,,,,,,,,,,,,,,,,,,,,,,,,,,,,,,,
,,,,,,,,,55b8d0bffdf99b0f2859fe73,Mexican,13 or older,"no, only English or Spanish",no,2025-07-23_06h49.06.406,empathy_intonation_perc,2024.2.4,Win32,60.24096386,55b8d0bffdf99b0f2859fe73,687ed1b7e638a4cbf2f02089,6880be00c9090cf1eea2a441,,,,,,,,,,,,,72,0,,./stim/wavs/castilian_mismatch_declarative-broad-focus_Mi-novio-viene-del-lago.wav,,,,,,,,,,,,,,,,,,,,,,380.3864,382.6912,0,1,1.7874,,0,79,79,71,1,0,castilian,,,,,,,,,,,,,,,,,,,,,,,,,,,,,,,,,,,,,,,,,,,,,,,,,,,,,,,,
,,,,,,,,,55b8d0bffdf99b0f2859fe73,Mexican,13 or older,"no, only English or Spanish",no,2025-07-23_06h49.06.406,empathy_intonation_perc,2024.2.4,Win32,60.24096386,55b8d0bffdf99b0f2859fe73,687ed1b7e638a4cbf2f02089,6880be00c9090cf1eea2a441,,,,,,,,,,,,,13,1,,./stim/wavs/mexican_match_interrogative-total-yn_Ana-lleva-el-abrigo.wav,,,,,,,,,,,,,,,,,,,,,,382.6916,384.9295,1,1,1.7209,,0,80,80,12,1,0,mexican,,,,,,,,,,,,,,,,,,,,,,,,,,,,,,,,,,,,,,,,,,,,,,,,,,,,,,,,
,,,,,,,,,55b8d0bffdf99b0f2859fe73,Mexican,13 or older,"no, only English or Spanish",no,2025-07-23_06h49.06.406,empathy_intonation_perc,2024.2.4,Win32,60.24096386,55b8d0bffdf99b0f2859fe73,687ed1b7e638a4cbf2f02089,6880be00c9090cf1eea2a441,,,,,,,,,,,,,86,0,,./stim/wavs/puertorican_mismatch_declarative-broad-focus_El-nino-oye-el-rio.wav,,,,,,,,,,,,,,,,,,,,,,384.9298,387.1848,0,1,1.7374,,0,81,81,85,1,0,puertorican,,,,,,,,,,,,,,,,,,,,,,,,,,,,,,,,,,,,,,,,,,,,,,,,,,,,,,,,
,,,,,,,,,55b8d0bffdf99b0f2859fe73,Mexican,13 or older,"no, only English or Spanish",no,2025-07-23_06h49.06.406,empathy_intonation_perc,2024.2.4,Win32,60.24096386,55b8d0bffdf99b0f2859fe73,687ed1b7e638a4cbf2f02089,6880be00c9090cf1eea2a441,,,,,,,,,,,,,42,1,,./stim/wavs/puertorican_mismatch_interrogative-total-yn_La-maestra-vive-en-Paris.wav,,,,,,,,,,,,,,,,,,,,,,387.1851,389.6737,0,0,1.9716,,0,82,82,41,1,1,puertorican,,,,,,,,,,,,,,,,,,,,,,,,,,,,,,,,,,,,,,,,,,,,,,,,,,,,,,,,
,,,,,,,,,55b8d0bffdf99b0f2859fe73,Mexican,13 or older,"no, only English or Spanish",no,2025-07-23_06h49.06.406,empathy_intonation_perc,2024.2.4,Win32,60.24096386,55b8d0bffdf99b0f2859fe73,687ed1b7e638a4cbf2f02089,6880be00c9090cf1eea2a441,,,,,,,,,,,,,38,1,,./stim/wavs/mexican_mismatch_interrogative-total-yn_Mi-novio-viene-del-lago.wav,,,,,,,,,,,,,,,,,,,,,,389.6739,391.8955,1,1,1.7036,,0,83,83,37,1,0,mexican,,,,,,,,,,,,,,,,,,,,,,,,,,,,,,,,,,,,,,,,,,,,,,,,,,,,,,,,
,,,,,,,,,55b8d0bffdf99b0f2859fe73,Mexican,13 or older,"no, only English or Spanish",no,2025-07-23_06h49.06.406,empathy_intonation_perc,2024.2.4,Win32,60.24096386,55b8d0bffdf99b0f2859fe73,687ed1b7e638a4cbf2f02089,6880be00c9090cf1eea2a441,,,,,,,,,,,,,4,1,,./stim/wavs/castilian_match_interrogative-total-yn_Maria-bebe-el-vino.wav,,,,,,,,,,,,,,,,,,,,,,391.8958,394.1686,0,0,1.7551,,0,84,84,3,1,0,castilian,,,,,,,,,,,,,,,,,,,,,,,,,,,,,,,,,,,,,,,,,,,,,,,,,,,,,,,,
,,,,,,,,,55b8d0bffdf99b0f2859fe73,Mexican,13 or older,"no, only English or Spanish",no,2025-07-23_06h49.06.406,empathy_intonation_perc,2024.2.4,Win32,60.24096386,55b8d0bffdf99b0f2859fe73,687ed1b7e638a4cbf2f02089,6880be00c9090cf1eea2a441,,,,,,,,,,,,,7,1,,./stim/wavs/cuban_match_interrogative-total-yn_Ana-lleva-el-abrigo.wav,,,,,,,,,,,,,,,,,,,,,,394.169,396.0882,0,0,1.3861,,0,85,85,6,1,1,cuban,,,,,,,,,,,,,,,,,,,,,,,,,,,,,,,,,,,,,,,,,,,,,,,,,,,,,,,,
,,,,,,,,,55b8d0bffdf99b0f2859fe73,Mexican,13 or older,"no, only English or Spanish",no,2025-07-23_06h49.06.406,empathy_intonation_perc,2024.2.4,Win32,60.24096386,55b8d0bffdf99b0f2859fe73,687ed1b7e638a4cbf2f02089,6880be00c9090cf1eea2a441,,,,,,,,,,,,,33,1,,./stim/wavs/cuban_mismatch_interrogative-total-yn_Mi-novio-viene-del-lago.wav,,,,,,,,,,,,,,,,,,,,,,396.0885,398.1264,1,1,1.5199,,0,86,86,32,1,1,cuban,,,,,,,,,,,,,,,,,,,,,,,,,,,,,,,,,,,,,,,,,,,,,,,,,,,,,,,,
,,,,,,,,,55b8d0bffdf99b0f2859fe73,Mexican,13 or older,"no, only English or Spanish",no,2025-07-23_06h49.06.406,empathy_intonation_perc,2024.2.4,Win32,60.24096386,55b8d0bffdf99b0f2859fe73,687ed1b7e638a4cbf2f02089,6880be00c9090cf1eea2a441,,,,,,,,,,,,,78,0,,./stim/wavs/cuban_mismatch_declarative-broad-focus_Mi-tia-odia-la-lluvia.wav,,,,,,,,,,,,,,,,,,,,,,398.1267,400.2978,0,1,1.6533,,0,87,87,77,1,0,cuban,,,,,,,,,,,,,,,,,,,,,,,,,,,,,,,,,,,,,,,,,,,,,,,,,,,,,,,,
,,,,,,,"Great! Now we will move on. The next task consists of about 60 trials, in each of which you will see a string of letters. 
  
  Your task is to decide whether this is a real Spanish word or not.", (press the spacebar to continue),55b8d0bffdf99b0f2859fe73,Mexican,13 or older,"no, only English or Spanish",no,2025-07-23_06h49.06.406,empathy_intonation_perc,2024.2.4,Win32,60.24096386,55b8d0bffdf99b0f2859fe73,687ed1b7e638a4cbf2f02089,6880be00c9090cf1eea2a441,,,,,,,,,,,,,,,,,,,,,,,,,,,,,,,,,,,,,,,,,,,,,,,,,,,400.3012,504.9642,0,0,0,0,1,,,,,,,,,,,,,,,,,,,,,,,,,,,,,,,,,,,,,,,,,,,,,,,,,
,,,,,,,"If you think it is an existing Spanish word, you type '1' (for 'REAL'), and if you think it is not an existing Spanish word, you type '0' (for 'FAKE').", (press the spacebar to continue),55b8d0bffdf99b0f2859fe73,Mexican,13 or older,"no, only English or Spanish",no,2025-07-23_06h49.06.406,empathy_intonation_perc,2024.2.4,Win32,60.24096386,55b8d0bffdf99b0f2859fe73,687ed1b7e638a4cbf2f02089,6880be00c9090cf1eea2a441,,,,,,,,,,,,,,,,,,,,,,,,,,,,,,,,,,,,,,,,,,,,,,,,,,,504.9664,507.9694,0,1,1,1,1,,,,,,,,,,,,,,,,,,,,,,,,,,,,,,,,,,,,,,,,,,,,,,,,,
,,,,,,,"If you are sure that the word exists, even though you don’t know its exact meaning, you may still respond '1' (REAL). 
  
  But if you are not sure if it is an existing word, you should respond '0' (FAKE).
  
  Let's do a practice round...", (press the spacebar to continue),55b8d0bffdf99b0f2859fe73,Mexican,13 or older,"no, only English or Spanish",no,2025-07-23_06h49.06.406,empathy_intonation_perc,2024.2.4,Win32,60.24096386,55b8d0bffdf99b0f2859fe73,687ed1b7e638a4cbf2f02089,6880be00c9090cf1eea2a441,,,,,,,,,,,,,,,,,,,,,,,,,,,,,,,,,,,,,,,,,,,,,,,,,,,507.9729,515.4361,0,2,2,2,1,,,,,,,,,,,,,,,,,,,,,,,,,,,,,,,,,,,,,,,,,,,,,,,,,
,,,,,,,,,55b8d0bffdf99b0f2859fe73,Mexican,13 or older,"no, only English or Spanish",no,2025-07-23_06h49.06.406,empathy_intonation_perc,2024.2.4,Win32,60.24096386,55b8d0bffdf99b0f2859fe73,687ed1b7e638a4cbf2f02089,6880be00c9090cf1eea2a441,,,,,,,,,,,,,,0,,,,,,,,,,,,,,,,,,,,,,,,,,,,,,,,,,,,,,,,,,,,515.4444,518.3602,0,1,2.3732,,518.361,519.3629,0,0,0,0,1,0,depiste,REAL,FAKE,,,,,,,,,,,,,,,,,,,,,,,,,,,,,,,,
,,,,,,,,,55b8d0bffdf99b0f2859fe73,Mexican,13 or older,"no, only English or Spanish",no,2025-07-23_06h49.06.406,empathy_intonation_perc,2024.2.4,Win32,60.24096386,55b8d0bffdf99b0f2859fe73,687ed1b7e638a4cbf2f02089,6880be00c9090cf1eea2a441,,,,,,,,,,,,,,1,,,,,,,,,,,,,,,,,,,,,,,,,,,,,,,,,,,,,,,,,,,,519.3666,520.7149,1,1,0.8095,,520.7151,521.7177,0,1,1,1,1,0,sí,REAL,FAKE,,,,,,,,,,,,,,,,,,,,,,,,,,,,,,,,
,,,,,,,,,55b8d0bffdf99b0f2859fe73,Mexican,13 or older,"no, only English or Spanish",no,2025-07-23_06h49.06.406,empathy_intonation_perc,2024.2.4,Win32,60.24096386,55b8d0bffdf99b0f2859fe73,687ed1b7e638a4cbf2f02089,6880be00c9090cf1eea2a441,,,,,,,,,,,,,,0,,,,,,,,,,,,,,,,,,,,,,,,,,,,,,,,,,,,,,,,,,,,521.7204,523.0463,0,1,0.7869,,523.0463,524.0391,0,2,2,2,1,0,coné,REAL,FAKE,,,,,,,,,,,,,,,,,,,,,,,,,,,,,,,,
,,,,,,,,,55b8d0bffdf99b0f2859fe73,Mexican,13 or older,"no, only English or Spanish",no,2025-07-23_06h49.06.406,empathy_intonation_perc,2024.2.4,Win32,60.24096386,55b8d0bffdf99b0f2859fe73,687ed1b7e638a4cbf2f02089,6880be00c9090cf1eea2a441,,,,,,,,,,,,,,0,,,,,,,,,,,,,,,,,,,,,,,,,,,,,,,,,,,,,,,,,,,,524.0421,525.2583,1,0,0.6761,,525.2614,526.2615,0,3,3,3,1,0,calpar,REAL,FAKE,,,,,,,,,,,,,,,,,,,,,,,,,,,,,,,,
,,,,,,,,,55b8d0bffdf99b0f2859fe73,Mexican,13 or older,"no, only English or Spanish",no,2025-07-23_06h49.06.406,empathy_intonation_perc,2024.2.4,Win32,60.24096386,55b8d0bffdf99b0f2859fe73,687ed1b7e638a4cbf2f02089,6880be00c9090cf1eea2a441,,,,,,,,,,,,,,0,,,,,,,,,,,,,,,,,,,,,,,,,,,,,,,,,,,,,,,,,,,,526.2639,527.5635,0,1,0.7536,,527.5652,528.5659,0,4,4,4,1,0,joten,REAL,FAKE,,,,,,,,,,,,,,,,,,,,,,,,,,,,,,,,
,,,,,,,,,55b8d0bffdf99b0f2859fe73,Mexican,13 or older,"no, only English or Spanish",no,2025-07-23_06h49.06.406,empathy_intonation_perc,2024.2.4,Win32,60.24096386,55b8d0bffdf99b0f2859fe73,687ed1b7e638a4cbf2f02089,6880be00c9090cf1eea2a441,,,,,,,,,,,,,,1,,,,,,,,,,,,,,,,,,,,,,,,,,,,,,,,,,,,,,,,,,,,528.569,530.7374,1,1,1.6216,,530.7378,531.7397,0,5,5,5,1,0,sacapuntas,REAL,FAKE,,,,,,,,,,,,,,,,,,,,,,,,,,,,,,,,
,,,,,,,,,55b8d0bffdf99b0f2859fe73,Mexican,13 or older,"no, only English or Spanish",no,2025-07-23_06h49.06.406,empathy_intonation_perc,2024.2.4,Win32,60.24096386,55b8d0bffdf99b0f2859fe73,687ed1b7e638a4cbf2f02089,6880be00c9090cf1eea2a441,,,,,,,,,,,,,,0,,,,,,,,,,,,,,,,,,,,,,,,,,,,,,,,,,,,,,,,,,,,531.7424,533.1929,1,0,0.9188,,533.1957,534.1951,0,6,6,6,1,0,priba,REAL,FAKE,,,,,,,,,,,,,,,,,,,,,,,,,,,,,,,,
,,,,,,,,,55b8d0bffdf99b0f2859fe73,Mexican,13 or older,"no, only English or Spanish",no,2025-07-23_06h49.06.406,empathy_intonation_perc,2024.2.4,Win32,60.24096386,55b8d0bffdf99b0f2859fe73,687ed1b7e638a4cbf2f02089,6880be00c9090cf1eea2a441,,,,,,,,,,,,,,0,,,,,,,,,,,,,,,,,,,,,,,,,,,,,,,,,,,,,,,,,,,,534.1981,535.8822,1,0,1.1435,,535.8824,536.8846,0,7,7,7,1,0,pelasula,REAL,FAKE,,,,,,,,,,,,,,,,,,,,,,,,,,,,,,,,
,,,,,,,,,55b8d0bffdf99b0f2859fe73,Mexican,13 or older,"no, only English or Spanish",no,2025-07-23_06h49.06.406,empathy_intonation_perc,2024.2.4,Win32,60.24096386,55b8d0bffdf99b0f2859fe73,687ed1b7e638a4cbf2f02089,6880be00c9090cf1eea2a441,,,,,,,,,,,,,,1,,,,,,,,,,,,,,,,,,,,,,,,,,,,,,,,,,,,,,,,,,,,536.8877,537.9708,1,1,0.542,,537.9729,538.9734,0,8,8,8,1,0,bien,REAL,FAKE,,,,,,,,,,,,,,,,,,,,,,,,,,,,,,,,
,,,,,,,,,55b8d0bffdf99b0f2859fe73,Mexican,13 or older,"no, only English or Spanish",no,2025-07-23_06h49.06.406,empathy_intonation_perc,2024.2.4,Win32,60.24096386,55b8d0bffdf99b0f2859fe73,687ed1b7e638a4cbf2f02089,6880be00c9090cf1eea2a441,,,,,,,,,,,,,,1,,,,,,,,,,,,,,,,,,,,,,,,,,,,,,,,,,,,,,,,,,,,538.9759,540.1429,1,1,0.6183,,540.1431,541.1446,0,9,9,9,1,0,casa,REAL,FAKE,,,,,,,,,,,,,,,,,,,,,,,,,,,,,,,,
,,,,,,,,,55b8d0bffdf99b0f2859fe73,Mexican,13 or older,"no, only English or Spanish",no,2025-07-23_06h49.06.406,empathy_intonation_perc,2024.2.4,Win32,60.24096386,55b8d0bffdf99b0f2859fe73,687ed1b7e638a4cbf2f02089,6880be00c9090cf1eea2a441,,,,,,,,,,,,,,0,,,,,,,,,,,,,,,,,,,,,,,,,,,,,,,,,,,,,,,,,,,,541.1474,542.431,1,0,0.738,,542.4329,543.4329,0,10,10,10,1,0,lejo,REAL,FAKE,,,,,,,,,,,,,,,,,,,,,,,,,,,,,,,,
,,,,,,,,,55b8d0bffdf99b0f2859fe73,Mexican,13 or older,"no, only English or Spanish",no,2025-07-23_06h49.06.406,empathy_intonation_perc,2024.2.4,Win32,60.24096386,55b8d0bffdf99b0f2859fe73,687ed1b7e638a4cbf2f02089,6880be00c9090cf1eea2a441,,,,,,,,,,,,,,0,,,,,,,,,,,,,,,,,,,,,,,,,,,,,,,,,,,,,,,,,,,,543.4362,544.9699,1,0,0.9933,,544.9699,545.9723,0,11,11,11,1,0,pretantas,REAL,FAKE,,,,,,,,,,,,,,,,,,,,,,,,,,,,,,,,
,,,,,,,,,55b8d0bffdf99b0f2859fe73,Mexican,13 or older,"no, only English or Spanish",no,2025-07-23_06h49.06.406,empathy_intonation_perc,2024.2.4,Win32,60.24096386,55b8d0bffdf99b0f2859fe73,687ed1b7e638a4cbf2f02089,6880be00c9090cf1eea2a441,,,,,,,,,,,,,,,,,,,,,,,,,,,,,,,,,,,,,,,,,,,,,,,,,,,,,,,,,,,,,,,,,,,,,,,,,,,545.9729,548.2452,,,,,,,,,,,,,,,,,,,,,,,,,,,,,,
,,,,,,,,,55b8d0bffdf99b0f2859fe73,Mexican,13 or older,"no, only English or Spanish",no,2025-07-23_06h49.06.406,empathy_intonation_perc,2024.2.4,Win32,60.24096386,55b8d0bffdf99b0f2859fe73,687ed1b7e638a4cbf2f02089,6880be00c9090cf1eea2a441,,,,,,,,,,,,,,1,,,,,,,,,,,,,,,,,,,,,,,,,,,,,,,,,,,,,,,,,,,,,,,,,,,,,,,,,24,látigo,,,,,548.2509,549.8658,0,0,1.0708,,0,0,0,23,1,REAL,FAKE,,,,,,,,,,,,,,,,,
,,,,,,,,,55b8d0bffdf99b0f2859fe73,Mexican,13 or older,"no, only English or Spanish",no,2025-07-23_06h49.06.406,empathy_intonation_perc,2024.2.4,Win32,60.24096386,55b8d0bffdf99b0f2859fe73,687ed1b7e638a4cbf2f02089,6880be00c9090cf1eea2a441,,,,,,,,,,,,,,0,,,,,,,,,,,,,,,,,,,,,,,,,,,,,,,,,,,,,,,,,,,,,,,,,,,,,,,,,66,hacido,,,,,549.8678,551.1007,1,0,0.6855,,0,1,1,65,1,REAL,FAKE,,,,,,,,,,,,,,,,,
,,,,,,,,,55b8d0bffdf99b0f2859fe73,Mexican,13 or older,"no, only English or Spanish",no,2025-07-23_06h49.06.406,empathy_intonation_perc,2024.2.4,Win32,60.24096386,55b8d0bffdf99b0f2859fe73,687ed1b7e638a4cbf2f02089,6880be00c9090cf1eea2a441,,,,,,,,,,,,,,0,,,,,,,,,,,,,,,,,,,,,,,,,,,,,,,,,,,,,,,,,,,,,,,,,,,,,,,,,72,pemición,,,,,551.1047,552.5283,1,0,0.8852,,0,2,2,71,1,REAL,FAKE,,,,,,,,,,,,,,,,,
,,,,,,,,,55b8d0bffdf99b0f2859fe73,Mexican,13 or older,"no, only English or Spanish",no,2025-07-23_06h49.06.406,empathy_intonation_perc,2024.2.4,Win32,60.24096386,55b8d0bffdf99b0f2859fe73,687ed1b7e638a4cbf2f02089,6880be00c9090cf1eea2a441,,,,,,,,,,,,,,1,,,,,,,,,,,,,,,,,,,,,,,,,,,,,,,,,,,,,,,,,,,,,,,,,,,,,,,,,71,polvoriento,,,,,552.5293,553.8595,0,0,0.7953,,0,3,3,70,1,REAL,FAKE,,,,,,,,,,,,,,,,,
,,,,,,,,,55b8d0bffdf99b0f2859fe73,Mexican,13 or older,"no, only English or Spanish",no,2025-07-23_06h49.06.406,empathy_intonation_perc,2024.2.4,Win32,60.24096386,55b8d0bffdf99b0f2859fe73,687ed1b7e638a4cbf2f02089,6880be00c9090cf1eea2a441,,,,,,,,,,,,,,1,,,,,,,,,,,,,,,,,,,,,,,,,,,,,,,,,,,,,,,,,,,,,,,,,,,,,,,,,9,hacha,,,,,553.8604,555.0428,1,1,0.6431,,0,4,4,8,1,REAL,FAKE,,,,,,,,,,,,,,,,,
,,,,,,,,,55b8d0bffdf99b0f2859fe73,Mexican,13 or older,"no, only English or Spanish",no,2025-07-23_06h49.06.406,empathy_intonation_perc,2024.2.4,Win32,60.24096386,55b8d0bffdf99b0f2859fe73,687ed1b7e638a4cbf2f02089,6880be00c9090cf1eea2a441,,,,,,,,,,,,,,1,,,,,,,,,,,,,,,,,,,,,,,,,,,,,,,,,,,,,,,,,,,,,,,,,,,,,,,,,57,tacaño,,,,,555.0463,556.213,0,0,0.6193,,0,5,5,56,1,REAL,FAKE,,,,,,,,,,,,,,,,,
,,,,,,,,,55b8d0bffdf99b0f2859fe73,Mexican,13 or older,"no, only English or Spanish",no,2025-07-23_06h49.06.406,empathy_intonation_perc,2024.2.4,Win32,60.24096386,55b8d0bffdf99b0f2859fe73,687ed1b7e638a4cbf2f02089,6880be00c9090cf1eea2a441,,,,,,,,,,,,,,1,,,,,,,,,,,,,,,,,,,,,,,,,,,,,,,,,,,,,,,,,,,,,,,,,,,,,,,,,80,hormiga,,,,,556.2157,557.833,0,0,1.0696,,0,6,6,79,1,REAL,FAKE,,,,,,,,,,,,,,,,,
,,,,,,,,,55b8d0bffdf99b0f2859fe73,Mexican,13 or older,"no, only English or Spanish",no,2025-07-23_06h49.06.406,empathy_intonation_perc,2024.2.4,Win32,60.24096386,55b8d0bffdf99b0f2859fe73,687ed1b7e638a4cbf2f02089,6880be00c9090cf1eea2a441,,,,,,,,,,,,,,1,,,,,,,,,,,,,,,,,,,,,,,,,,,,,,,,,,,,,,,,,,,,,,,,,,,,,,,,,44,cuchara,,,,,557.8354,559.002,1,1,0.6367,,0,7,7,43,1,REAL,FAKE,,,,,,,,,,,,,,,,,
,,,,,,,,,55b8d0bffdf99b0f2859fe73,Mexican,13 or older,"no, only English or Spanish",no,2025-07-23_06h49.06.406,empathy_intonation_perc,2024.2.4,Win32,60.24096386,55b8d0bffdf99b0f2859fe73,687ed1b7e638a4cbf2f02089,6880be00c9090cf1eea2a441,,,,,,,,,,,,,,1,,,,,,,,,,,,,,,,,,,,,,,,,,,,,,,,,,,,,,,,,,,,,,,,,,,,,,,,,81,pozo,,,,,559.005,560.4385,1,1,0.9059,,0,8,8,80,1,REAL,FAKE,,,,,,,,,,,,,,,,,
,,,,,,,,,55b8d0bffdf99b0f2859fe73,Mexican,13 or older,"no, only English or Spanish",no,2025-07-23_06h49.06.406,empathy_intonation_perc,2024.2.4,Win32,60.24096386,55b8d0bffdf99b0f2859fe73,687ed1b7e638a4cbf2f02089,6880be00c9090cf1eea2a441,,,,,,,,,,,,,,1,,,,,,,,,,,,,,,,,,,,,,,,,,,,,,,,,,,,,,,,,,,,,,,,,,,,,,,,,86,barato,,,,,560.4416,561.6083,1,1,0.6387,,0,9,9,85,1,REAL,FAKE,,,,,,,,,,,,,,,,,
,,,,,,,,,55b8d0bffdf99b0f2859fe73,Mexican,13 or older,"no, only English or Spanish",no,2025-07-23_06h49.06.406,empathy_intonation_perc,2024.2.4,Win32,60.24096386,55b8d0bffdf99b0f2859fe73,687ed1b7e638a4cbf2f02089,6880be00c9090cf1eea2a441,,,,,,,,,,,,,,1,,,,,,,,,,,,,,,,,,,,,,,,,,,,,,,,,,,,,,,,,,,,,,,,,,,,,,,,,6,tergiversar,,,,,561.6111,562.694,0,0,0.5342,,0,10,10,5,1,REAL,FAKE,,,,,,,,,,,,,,,,,
,,,,,,,,,55b8d0bffdf99b0f2859fe73,Mexican,13 or older,"no, only English or Spanish",no,2025-07-23_06h49.06.406,empathy_intonation_perc,2024.2.4,Win32,60.24096386,55b8d0bffdf99b0f2859fe73,687ed1b7e638a4cbf2f02089,6880be00c9090cf1eea2a441,,,,,,,,,,,,,,1,,,,,,,,,,,,,,,,,,,,,,,,,,,,,,,,,,,,,,,,,,,,,,,,,,,,,,,,,88,acantilado,,,,,562.6967,564.3983,0,0,1.1567,,0,11,11,87,1,REAL,FAKE,,,,,,,,,,,,,,,,,
,,,,,,,,,55b8d0bffdf99b0f2859fe73,Mexican,13 or older,"no, only English or Spanish",no,2025-07-23_06h49.06.406,empathy_intonation_perc,2024.2.4,Win32,60.24096386,55b8d0bffdf99b0f2859fe73,687ed1b7e638a4cbf2f02089,6880be00c9090cf1eea2a441,,,,,,,,,,,,,,0,,,,,,,,,,,,,,,,,,,,,,,,,,,,,,,,,,,,,,,,,,,,,,,,,,,,,,,,,29,decar,,,,,564.4007,565.517,1,0,0.5685,,0,12,12,28,1,REAL,FAKE,,,,,,,,,,,,,,,,,
,,,,,,,,,55b8d0bffdf99b0f2859fe73,Mexican,13 or older,"no, only English or Spanish",no,2025-07-23_06h49.06.406,empathy_intonation_perc,2024.2.4,Win32,60.24096386,55b8d0bffdf99b0f2859fe73,687ed1b7e638a4cbf2f02089,6880be00c9090cf1eea2a441,,,,,,,,,,,,,,1,,,,,,,,,,,,,,,,,,,,,,,,,,,,,,,,,,,,,,,,,,,,,,,,,,,,,,,,,85,laúd,,,,,565.5201,566.6025,0,0,0.5374,,0,13,13,84,1,REAL,FAKE,,,,,,,,,,,,,,,,,
,,,,,,,,,55b8d0bffdf99b0f2859fe73,Mexican,13 or older,"no, only English or Spanish",no,2025-07-23_06h49.06.406,empathy_intonation_perc,2024.2.4,Win32,60.24096386,55b8d0bffdf99b0f2859fe73,687ed1b7e638a4cbf2f02089,6880be00c9090cf1eea2a441,,,,,,,,,,,,,,1,,,,,,,,,,,,,,,,,,,,,,,,,,,,,,,,,,,,,,,,,,,,,,,,,,,,,,,,,26,secuestro,,,,,566.6052,567.741,1,1,0.6017,,0,14,14,25,1,REAL,FAKE,,,,,,,,,,,,,,,,,
,,,,,,,,,55b8d0bffdf99b0f2859fe73,Mexican,13 or older,"no, only English or Spanish",no,2025-07-23_06h49.06.406,empathy_intonation_perc,2024.2.4,Win32,60.24096386,55b8d0bffdf99b0f2859fe73,687ed1b7e638a4cbf2f02089,6880be00c9090cf1eea2a441,,,,,,,,,,,,,,1,,,,,,,,,,,,,,,,,,,,,,,,,,,,,,,,,,,,,,,,,,,,,,,,,,,,,,,,,15,regar,,,,,567.7421,568.8576,1,1,0.5759,,0,15,15,14,1,REAL,FAKE,,,,,,,,,,,,,,,,,
,,,,,,,,,55b8d0bffdf99b0f2859fe73,Mexican,13 or older,"no, only English or Spanish",no,2025-07-23_06h49.06.406,empathy_intonation_perc,2024.2.4,Win32,60.24096386,55b8d0bffdf99b0f2859fe73,687ed1b7e638a4cbf2f02089,6880be00c9090cf1eea2a441,,,,,,,,,,,,,,0,,,,,,,,,,,,,,,,,,,,,,,,,,,,,,,,,,,,,,,,,,,,,,,,,,,,,,,,,87,grodo,,,,,568.8606,569.9775,0,1,0.5855,,0,16,16,86,1,REAL,FAKE,,,,,,,,,,,,,,,,,
,,,,,,,,,55b8d0bffdf99b0f2859fe73,Mexican,13 or older,"no, only English or Spanish",no,2025-07-23_06h49.06.406,empathy_intonation_perc,2024.2.4,Win32,60.24096386,55b8d0bffdf99b0f2859fe73,687ed1b7e638a4cbf2f02089,6880be00c9090cf1eea2a441,,,,,,,,,,,,,,1,,,,,,,,,,,,,,,,,,,,,,,,,,,,,,,,,,,,,,,,,,,,,,,,,,,,,,,,,51,candado,,,,,569.98,571.5638,0,0,1.0418,,0,17,17,50,1,REAL,FAKE,,,,,,,,,,,,,,,,,
,,,,,,,,,55b8d0bffdf99b0f2859fe73,Mexican,13 or older,"no, only English or Spanish",no,2025-07-23_06h49.06.406,empathy_intonation_perc,2024.2.4,Win32,60.24096386,55b8d0bffdf99b0f2859fe73,687ed1b7e638a4cbf2f02089,6880be00c9090cf1eea2a441,,,,,,,,,,,,,,1,,,,,,,,,,,,,,,,,,,,,,,,,,,,,,,,,,,,,,,,,,,,,,,,,,,,,,,,,62,flaco,,,,,571.5668,572.5829,1,1,0.4853,,0,18,18,61,1,REAL,FAKE,,,,,,,,,,,,,,,,,
,,,,,,,,,55b8d0bffdf99b0f2859fe73,Mexican,13 or older,"no, only English or Spanish",no,2025-07-23_06h49.06.406,empathy_intonation_perc,2024.2.4,Win32,60.24096386,55b8d0bffdf99b0f2859fe73,687ed1b7e638a4cbf2f02089,6880be00c9090cf1eea2a441,,,,,,,,,,,,,,0,,,,,,,,,,,,,,,,,,,,,,,,,,,,,,,,,,,,,,,,,,,,,,,,,,,,,,,,,8,cadeña,,,,,572.586,573.7694,1,0,0.6509,,0,19,19,7,1,REAL,FAKE,,,,,,,,,,,,,,,,,
,,,,,,,,,55b8d0bffdf99b0f2859fe73,Mexican,13 or older,"no, only English or Spanish",no,2025-07-23_06h49.06.406,empathy_intonation_perc,2024.2.4,Win32,60.24096386,55b8d0bffdf99b0f2859fe73,687ed1b7e638a4cbf2f02089,6880be00c9090cf1eea2a441,,,,,,,,,,,,,,1,,,,,,,,,,,,,,,,,,,,,,,,,,,,,,,,,,,,,,,,,,,,,,,,,,,,,,,,,41,rebuscar,,,,,573.7722,575.0557,1,1,0.7543,,0,20,20,40,1,REAL,FAKE,,,,,,,,,,,,,,,,,
,,,,,,,,,55b8d0bffdf99b0f2859fe73,Mexican,13 or older,"no, only English or Spanish",no,2025-07-23_06h49.06.406,empathy_intonation_perc,2024.2.4,Win32,60.24096386,55b8d0bffdf99b0f2859fe73,687ed1b7e638a4cbf2f02089,6880be00c9090cf1eea2a441,,,,,,,,,,,,,,1,,,,,,,,,,,,,,,,,,,,,,,,,,,,,,,,,,,,,,,,,,,,,,,,,,,,,,,,,60,matar,,,,,575.0582,576.1241,0,0,0.5226,,0,21,21,59,1,REAL,FAKE,,,,,,,,,,,,,,,,,
,,,,,,,,,55b8d0bffdf99b0f2859fe73,Mexican,13 or older,"no, only English or Spanish",no,2025-07-23_06h49.06.406,empathy_intonation_perc,2024.2.4,Win32,60.24096386,55b8d0bffdf99b0f2859fe73,687ed1b7e638a4cbf2f02089,6880be00c9090cf1eea2a441,,,,,,,,,,,,,,0,,,,,,,,,,,,,,,,,,,,,,,,,,,,,,,,,,,,,,,,,,,,,,,,,,,,,,,,,42,cadallo,,,,,576.127,577.4448,0,1,0.7854,,0,22,22,41,1,REAL,FAKE,,,,,,,,,,,,,,,,,
,,,,,,,,,55b8d0bffdf99b0f2859fe73,Mexican,13 or older,"no, only English or Spanish",no,2025-07-23_06h49.06.406,empathy_intonation_perc,2024.2.4,Win32,60.24096386,55b8d0bffdf99b0f2859fe73,687ed1b7e638a4cbf2f02089,6880be00c9090cf1eea2a441,,,,,,,,,,,,,,1,,,,,,,,,,,,,,,,,,,,,,,,,,,,,,,,,,,,,,,,,,,,,,,,,,,,,,,,,68,alegre,,,,,577.4472,578.5463,1,1,0.5586,,0,23,23,67,1,REAL,FAKE,,,,,,,,,,,,,,,,,
,,,,,,,,,55b8d0bffdf99b0f2859fe73,Mexican,13 or older,"no, only English or Spanish",no,2025-07-23_06h49.06.406,empathy_intonation_perc,2024.2.4,Win32,60.24096386,55b8d0bffdf99b0f2859fe73,687ed1b7e638a4cbf2f02089,6880be00c9090cf1eea2a441,,,,,,,,,,,,,,0,,,,,,,,,,,,,,,,,,,,,,,,,,,,,,,,,,,,,,,,,,,,,,,,,,,,,,,,,70,temblo,,,,,578.5492,579.599,0,1,0.5207,,0,24,24,69,1,REAL,FAKE,,,,,,,,,,,,,,,,,
,,,,,,,,,55b8d0bffdf99b0f2859fe73,Mexican,13 or older,"no, only English or Spanish",no,2025-07-23_06h49.06.406,empathy_intonation_perc,2024.2.4,Win32,60.24096386,55b8d0bffdf99b0f2859fe73,687ed1b7e638a4cbf2f02089,6880be00c9090cf1eea2a441,,,,,,,,,,,,,,1,,,,,,,,,,,,,,,,,,,,,,,,,,,,,,,,,,,,,,,,,,,,,,,,,,,,,,,,,11,cenefa,,,,,579.6024,580.7356,0,0,0.5852,,0,25,25,10,1,REAL,FAKE,,,,,,,,,,,,,,,,,
,,,,,,,,,55b8d0bffdf99b0f2859fe73,Mexican,13 or older,"no, only English or Spanish",no,2025-07-23_06h49.06.406,empathy_intonation_perc,2024.2.4,Win32,60.24096386,55b8d0bffdf99b0f2859fe73,687ed1b7e638a4cbf2f02089,6880be00c9090cf1eea2a441,,,,,,,,,,,,,,1,,,,,,,,,,,,,,,,,,,,,,,,,,,,,,,,,,,,,,,,,,,,,,,,,,,,,,,,,40,alfombra,,,,,580.7379,581.9876,0,0,0.7065,,0,26,26,39,1,REAL,FAKE,,,,,,,,,,,,,,,,,
,,,,,,,,,55b8d0bffdf99b0f2859fe73,Mexican,13 or older,"no, only English or Spanish",no,2025-07-23_06h49.06.406,empathy_intonation_perc,2024.2.4,Win32,60.24096386,55b8d0bffdf99b0f2859fe73,687ed1b7e638a4cbf2f02089,6880be00c9090cf1eea2a441,,,,,,,,,,,,,,1,,,,,,,,,,,,,,,,,,,,,,,,,,,,,,,,,,,,,,,,,,,,,,,,,,,,,,,,,2,pellizcar,,,,,581.9909,583.1753,0,0,0.6532,,0,27,27,1,1,REAL,FAKE,,,,,,,,,,,,,,,,,
,,,,,,,,,55b8d0bffdf99b0f2859fe73,Mexican,13 or older,"no, only English or Spanish",no,2025-07-23_06h49.06.406,empathy_intonation_perc,2024.2.4,Win32,60.24096386,55b8d0bffdf99b0f2859fe73,687ed1b7e638a4cbf2f02089,6880be00c9090cf1eea2a441,,,,,,,,,,,,,,0,,,,,,,,,,,,,,,,,,,,,,,,,,,,,,,,,,,,,,,,,,,,,,,,,,,,,,,,,32,fatacidad,,,,,583.1775,584.3268,1,0,0.6026,,0,28,28,31,1,REAL,FAKE,,,,,,,,,,,,,,,,,
,,,,,,,,,55b8d0bffdf99b0f2859fe73,Mexican,13 or older,"no, only English or Spanish",no,2025-07-23_06h49.06.406,empathy_intonation_perc,2024.2.4,Win32,60.24096386,55b8d0bffdf99b0f2859fe73,687ed1b7e638a4cbf2f02089,6880be00c9090cf1eea2a441,,,,,,,,,,,,,,0,,,,,,,,,,,,,,,,,,,,,,,,,,,,,,,,,,,,,,,,,,,,,,,,,,,,,,,,,63,esposante,,,,,584.3301,585.7976,1,0,0.9198,,0,29,29,62,1,REAL,FAKE,,,,,,,,,,,,,,,,,
,,,,,,,,,55b8d0bffdf99b0f2859fe73,Mexican,13 or older,"no, only English or Spanish",no,2025-07-23_06h49.06.406,empathy_intonation_perc,2024.2.4,Win32,60.24096386,55b8d0bffdf99b0f2859fe73,687ed1b7e638a4cbf2f02089,6880be00c9090cf1eea2a441,,,,,,,,,,,,,,0,,,,,,,,,,,,,,,,,,,,,,,,,,,,,,,,,,,,,,,,,,,,,,,,,,,,,,,,,50,flamida,,,,,585.7999,587.0159,0,1,0.669,,0,30,30,49,1,REAL,FAKE,,,,,,,,,,,,,,,,,
,,,,,,,,,55b8d0bffdf99b0f2859fe73,Mexican,13 or older,"no, only English or Spanish",no,2025-07-23_06h49.06.406,empathy_intonation_perc,2024.2.4,Win32,60.24096386,55b8d0bffdf99b0f2859fe73,687ed1b7e638a4cbf2f02089,6880be00c9090cf1eea2a441,,,,,,,,,,,,,,1,,,,,,,,,,,,,,,,,,,,,,,,,,,,,,,,,,,,,,,,,,,,,,,,,,,,,,,,,61,seda,,,,,587.0188,588.2363,1,1,0.6748,,0,31,31,60,1,REAL,FAKE,,,,,,,,,,,,,,,,,
,,,,,,,,,55b8d0bffdf99b0f2859fe73,Mexican,13 or older,"no, only English or Spanish",no,2025-07-23_06h49.06.406,empathy_intonation_perc,2024.2.4,Win32,60.24096386,55b8d0bffdf99b0f2859fe73,687ed1b7e638a4cbf2f02089,6880be00c9090cf1eea2a441,,,,,,,,,,,,,,1,,,,,,,,,,,,,,,,,,,,,,,,,,,,,,,,,,,,,,,,,,,,,,,,,,,,,,,,,3,pulmones,,,,,588.2386,589.8057,1,1,1.0204,,0,32,32,2,1,REAL,FAKE,,,,,,,,,,,,,,,,,
,,,,,,,,,55b8d0bffdf99b0f2859fe73,Mexican,13 or older,"no, only English or Spanish",no,2025-07-23_06h49.06.406,empathy_intonation_perc,2024.2.4,Win32,60.24096386,55b8d0bffdf99b0f2859fe73,687ed1b7e638a4cbf2f02089,6880be00c9090cf1eea2a441,,,,,,,,,,,,,,1,,,,,,,,,,,,,,,,,,,,,,,,,,,,,,,,,,,,,,,,,,,,,,,,,,,,,,,,,90,clavel,,,,,589.8084,590.858,0,0,0.5186,,0,33,33,89,1,REAL,FAKE,,,,,,,,,,,,,,,,,
,,,,,,,,,55b8d0bffdf99b0f2859fe73,Mexican,13 or older,"no, only English or Spanish",no,2025-07-23_06h49.06.406,empathy_intonation_perc,2024.2.4,Win32,60.24096386,55b8d0bffdf99b0f2859fe73,687ed1b7e638a4cbf2f02089,6880be00c9090cf1eea2a441,,,,,,,,,,,,,,1,,,,,,,,,,,,,,,,,,,,,,,,,,,,,,,,,,,,,,,,,,,,,,,,,,,,,,,,,52,camisa,,,,,590.8608,592.1315,1,1,0.7314,,0,34,34,51,1,REAL,FAKE,,,,,,,,,,,,,,,,,
,,,,,,,,,55b8d0bffdf99b0f2859fe73,Mexican,13 or older,"no, only English or Spanish",no,2025-07-23_06h49.06.406,empathy_intonation_perc,2024.2.4,Win32,60.24096386,55b8d0bffdf99b0f2859fe73,687ed1b7e638a4cbf2f02089,6880be00c9090cf1eea2a441,,,,,,,,,,,,,,1,,,,,,,,,,,,,,,,,,,,,,,,,,,,,,,,,,,,,,,,,,,,,,,,,,,,,,,,,22,lacayo,,,,,592.1323,593.2473,0,0,0.5693,,0,35,35,21,1,REAL,FAKE,,,,,,,,,,,,,,,,,
,,,,,,,,,55b8d0bffdf99b0f2859fe73,Mexican,13 or older,"no, only English or Spanish",no,2025-07-23_06h49.06.406,empathy_intonation_perc,2024.2.4,Win32,60.24096386,55b8d0bffdf99b0f2859fe73,687ed1b7e638a4cbf2f02089,6880be00c9090cf1eea2a441,,,,,,,,,,,,,,0,,,,,,,,,,,,,,,,,,,,,,,,,,,,,,,,,,,,,,,,,,,,,,,,,,,,,,,,,92,click the 0 key.,,,,,593.2499,594.8669,0,1,1.0703,,0,36,36,91,1,REAL,FAKE,,,,,,,,,,,,,,,,,
,,,,,,,,,55b8d0bffdf99b0f2859fe73,Mexican,13 or older,"no, only English or Spanish",no,2025-07-23_06h49.06.406,empathy_intonation_perc,2024.2.4,Win32,60.24096386,55b8d0bffdf99b0f2859fe73,687ed1b7e638a4cbf2f02089,6880be00c9090cf1eea2a441,,,,,,,,,,,,,,1,,,,,,,,,,,,,,,,,,,,,,,,,,,,,,,,,,,,,,,,,,,,,,,,,,,,,,,,,55,nevar,,,,,594.8699,596.2702,0,0,0.8699,,0,37,37,54,1,REAL,FAKE,,,,,,,,,,,,,,,,,
,,,,,,,,,55b8d0bffdf99b0f2859fe73,Mexican,13 or older,"no, only English or Spanish",no,2025-07-23_06h49.06.406,empathy_intonation_perc,2024.2.4,Win32,60.24096386,55b8d0bffdf99b0f2859fe73,687ed1b7e638a4cbf2f02089,6880be00c9090cf1eea2a441,,,,,,,,,,,,,,1,,,,,,,,,,,,,,,,,,,,,,,,,,,,,,,,,,,,,,,,,,,,,,,,,,,,,,,,,67,cabello,,,,,596.2733,597.4572,1,1,0.6356,,0,38,38,66,1,REAL,FAKE,,,,,,,,,,,,,,,,,
,,,,,,,,,55b8d0bffdf99b0f2859fe73,Mexican,13 or older,"no, only English or Spanish",no,2025-07-23_06h49.06.406,empathy_intonation_perc,2024.2.4,Win32,60.24096386,55b8d0bffdf99b0f2859fe73,687ed1b7e638a4cbf2f02089,6880be00c9090cf1eea2a441,,,,,,,,,,,,,,1,,,,,,,,,,,,,,,,,,,,,,,,,,,,,,,,,,,,,,,,,,,,,,,,,,,,,,,,,43,canela,,,,,597.4593,598.6596,0,0,0.658,,0,39,39,42,1,REAL,FAKE,,,,,,,,,,,,,,,,,
,,,,,,,,,55b8d0bffdf99b0f2859fe73,Mexican,13 or older,"no, only English or Spanish",no,2025-07-23_06h49.06.406,empathy_intonation_perc,2024.2.4,Win32,60.24096386,55b8d0bffdf99b0f2859fe73,687ed1b7e638a4cbf2f02089,6880be00c9090cf1eea2a441,,,,,,,,,,,,,,0,,,,,,,,,,,,,,,,,,,,,,,,,,,,,,,,,,,,,,,,,,,,,,,,,,,,,,,,,47,cartinar,,,,,598.6623,599.9289,1,0,0.719,,0,40,40,46,1,REAL,FAKE,,,,,,,,,,,,,,,,,
,,,,,,,,,55b8d0bffdf99b0f2859fe73,Mexican,13 or older,"no, only English or Spanish",no,2025-07-23_06h49.06.406,empathy_intonation_perc,2024.2.4,Win32,60.24096386,55b8d0bffdf99b0f2859fe73,687ed1b7e638a4cbf2f02089,6880be00c9090cf1eea2a441,,,,,,,,,,,,,,1,,,,,,,,,,,,,,,,,,,,,,,,,,,,,,,,,,,,,,,,,,,,,,,,,,,,,,,,,37,granuja,,,,,599.9315,601.3147,0,0,0.8596,,0,41,41,36,1,REAL,FAKE,,,,,,,,,,,,,,,,,
,,,,,,,,,55b8d0bffdf99b0f2859fe73,Mexican,13 or older,"no, only English or Spanish",no,2025-07-23_06h49.06.406,empathy_intonation_perc,2024.2.4,Win32,60.24096386,55b8d0bffdf99b0f2859fe73,687ed1b7e638a4cbf2f02089,6880be00c9090cf1eea2a441,,,,,,,,,,,,,,1,,,,,,,,,,,,,,,,,,,,,,,,,,,,,,,,,,,,,,,,,,,,,,,,,,,,,,,,,65,bizcocho,,,,,601.3178,602.5352,0,0,0.6863,,0,42,42,64,1,REAL,FAKE,,,,,,,,,,,,,,,,,
,,,,,,,,,55b8d0bffdf99b0f2859fe73,Mexican,13 or older,"no, only English or Spanish",no,2025-07-23_06h49.06.406,empathy_intonation_perc,2024.2.4,Win32,60.24096386,55b8d0bffdf99b0f2859fe73,687ed1b7e638a4cbf2f02089,6880be00c9090cf1eea2a441,,,,,,,,,,,,,,1,,,,,,,,,,,,,,,,,,,,,,,,,,,,,,,,,,,,,,,,,,,,,,,,,,,,,,,,,49,ganar,,,,,602.5378,603.6874,0,0,0.6042,,0,43,43,48,1,REAL,FAKE,,,,,,,,,,,,,,,,,
,,,,,,,,,55b8d0bffdf99b0f2859fe73,Mexican,13 or older,"no, only English or Spanish",no,2025-07-23_06h49.06.406,empathy_intonation_perc,2024.2.4,Win32,60.24096386,55b8d0bffdf99b0f2859fe73,687ed1b7e638a4cbf2f02089,6880be00c9090cf1eea2a441,,,,,,,,,,,,,,0,,,,,,,,,,,,,,,,,,,,,,,,,,,,,,,,,,,,,,,,,,,,,,,,,,,,,,,,,1,terzo,,,,,603.6903,604.8577,0,1,0.6184,,0,44,44,0,1,REAL,FAKE,,,,,,,,,,,,,,,,,
,,,,,,,,,55b8d0bffdf99b0f2859fe73,Mexican,13 or older,"no, only English or Spanish",no,2025-07-23_06h49.06.406,empathy_intonation_perc,2024.2.4,Win32,60.24096386,55b8d0bffdf99b0f2859fe73,687ed1b7e638a4cbf2f02089,6880be00c9090cf1eea2a441,,,,,,,,,,,,,,1,,,,,,,,,,,,,,,,,,,,,,,,,,,,,,,,,,,,,,,,,,,,,,,,,,,,,,,,,12,asesinato,,,,,604.8597,606.3598,1,1,0.9541,,0,45,45,11,1,REAL,FAKE,,,,,,,,,,,,,,,,,
,,,,,,,,,55b8d0bffdf99b0f2859fe73,Mexican,13 or older,"no, only English or Spanish",no,2025-07-23_06h49.06.406,empathy_intonation_perc,2024.2.4,Win32,60.24096386,55b8d0bffdf99b0f2859fe73,687ed1b7e638a4cbf2f02089,6880be00c9090cf1eea2a441,,,,,,,,,,,,,,1,,,,,,,,,,,,,,,,,,,,,,,,,,,,,,,,,,,,,,,,,,,,,,,,,,,,,,,,,56,musgo,,,,,606.3627,607.7298,0,0,0.8199,,0,46,46,55,1,REAL,FAKE,,,,,,,,,,,,,,,,,
,,,,,,,,,55b8d0bffdf99b0f2859fe73,Mexican,13 or older,"no, only English or Spanish",no,2025-07-23_06h49.06.406,empathy_intonation_perc,2024.2.4,Win32,60.24096386,55b8d0bffdf99b0f2859fe73,687ed1b7e638a4cbf2f02089,6880be00c9090cf1eea2a441,,,,,,,,,,,,,,0,,,,,,,,,,,,,,,,,,,,,,,,,,,,,,,,,,,,,,,,,,,,,,,,,,,,,,,,,17,floroso,,,,,607.7325,608.8654,1,0,0.6094,,0,47,47,16,1,REAL,FAKE,,,,,,,,,,,,,,,,,
,,,,,,,,,55b8d0bffdf99b0f2859fe73,Mexican,13 or older,"no, only English or Spanish",no,2025-07-23_06h49.06.406,empathy_intonation_perc,2024.2.4,Win32,60.24096386,55b8d0bffdf99b0f2859fe73,687ed1b7e638a4cbf2f02089,6880be00c9090cf1eea2a441,,,,,,,,,,,,,,1,,,,,,,,,,,,,,,,,,,,,,,,,,,,,,,,,,,,,,,,,,,,,,,,,,,,,,,,,38,estornudar,,,,,608.8682,610.5025,0,0,1.1032,,0,48,48,37,1,REAL,FAKE,,,,,,,,,,,,,,,,,
,,,,,,,,,55b8d0bffdf99b0f2859fe73,Mexican,13 or older,"no, only English or Spanish",no,2025-07-23_06h49.06.406,empathy_intonation_perc,2024.2.4,Win32,60.24096386,55b8d0bffdf99b0f2859fe73,687ed1b7e638a4cbf2f02089,6880be00c9090cf1eea2a441,,,,,,,,,,,,,,1,,,,,,,,,,,,,,,,,,,,,,,,,,,,,,,,,,,,,,,,,,,,,,,,,,,,,,,,,69,engatusar,,,,,610.5054,612.1739,0,0,1.1407,,0,49,49,68,1,REAL,FAKE,,,,,,,,,,,,,,,,,
,,,,,,,,,55b8d0bffdf99b0f2859fe73,Mexican,13 or older,"no, only English or Spanish",no,2025-07-23_06h49.06.406,empathy_intonation_perc,2024.2.4,Win32,60.24096386,55b8d0bffdf99b0f2859fe73,687ed1b7e638a4cbf2f02089,6880be00c9090cf1eea2a441,,,,,,,,,,,,,,1,,,,,,,,,,,,,,,,,,,,,,,,,,,,,,,,,,,,,,,,,,,,,,,,,,,,,,,,,89,prisa,,,,,612.1762,613.176,1,1,0.4514,,0,50,50,88,1,REAL,FAKE,,,,,,,,,,,,,,,,,
,,,,,,,,,55b8d0bffdf99b0f2859fe73,Mexican,13 or older,"no, only English or Spanish",no,2025-07-23_06h49.06.406,empathy_intonation_perc,2024.2.4,Win32,60.24096386,55b8d0bffdf99b0f2859fe73,687ed1b7e638a4cbf2f02089,6880be00c9090cf1eea2a441,,,,,,,,,,,,,,0,,,,,,,,,,,,,,,,,,,,,,,,,,,,,,,,,,,,,,,,,,,,,,,,,,,,,,,,,33,pauca,,,,,613.1787,614.3617,1,0,0.6352,,0,51,51,32,1,REAL,FAKE,,,,,,,,,,,,,,,,,
,,,,,,,,,55b8d0bffdf99b0f2859fe73,Mexican,13 or older,"no, only English or Spanish",no,2025-07-23_06h49.06.406,empathy_intonation_perc,2024.2.4,Win32,60.24096386,55b8d0bffdf99b0f2859fe73,687ed1b7e638a4cbf2f02089,6880be00c9090cf1eea2a441,,,,,,,,,,,,,,0,,,,,,,,,,,,,,,,,,,,,,,,,,,,,,,,,,,,,,,,,,,,,,,,,,,,,,,,,53,vegada,,,,,614.3647,615.4975,1,0,0.5851,,0,52,52,52,1,REAL,FAKE,,,,,,,,,,,,,,,,,
,,,,,,,,,55b8d0bffdf99b0f2859fe73,Mexican,13 or older,"no, only English or Spanish",no,2025-07-23_06h49.06.406,empathy_intonation_perc,2024.2.4,Win32,60.24096386,55b8d0bffdf99b0f2859fe73,687ed1b7e638a4cbf2f02089,6880be00c9090cf1eea2a441,,,,,,,,,,,,,,1,,,,,,,,,,,,,,,,,,,,,,,,,,,,,,,,,,,,,,,,,,,,,,,,,,,,,,,,,7,pésimo,,,,,615.5005,616.6509,1,1,0.6021,,0,53,53,6,1,REAL,FAKE,,,,,,,,,,,,,,,,,
,,,,,,,,,55b8d0bffdf99b0f2859fe73,Mexican,13 or older,"no, only English or Spanish",no,2025-07-23_06h49.06.406,empathy_intonation_perc,2024.2.4,Win32,60.24096386,55b8d0bffdf99b0f2859fe73,687ed1b7e638a4cbf2f02089,6880be00c9090cf1eea2a441,,,,,,,,,,,,,,1,,,,,,,,,,,,,,,,,,,,,,,,,,,,,,,,,,,,,,,,,,,,,,,,,,,,,,,,,14,yunque,,,,,616.6531,617.7357,0,0,0.5353,,0,54,54,13,1,REAL,FAKE,,,,,,,,,,,,,,,,,
,,,,,,,,,55b8d0bffdf99b0f2859fe73,Mexican,13 or older,"no, only English or Spanish",no,2025-07-23_06h49.06.406,empathy_intonation_perc,2024.2.4,Win32,60.24096386,55b8d0bffdf99b0f2859fe73,687ed1b7e638a4cbf2f02089,6880be00c9090cf1eea2a441,,,,,,,,,,,,,,0,,,,,,,,,,,,,,,,,,,,,,,,,,,,,,,,,,,,,,,,,,,,,,,,,,,,,,,,,4,batillón,,,,,617.7387,618.8887,1,0,0.617,,0,55,55,3,1,REAL,FAKE,,,,,,,,,,,,,,,,,
,,,,,,,,,55b8d0bffdf99b0f2859fe73,Mexican,13 or older,"no, only English or Spanish",no,2025-07-23_06h49.06.406,empathy_intonation_perc,2024.2.4,Win32,60.24096386,55b8d0bffdf99b0f2859fe73,687ed1b7e638a4cbf2f02089,6880be00c9090cf1eea2a441,,,,,,,,,,,,,,0,,,,,,,,,,,,,,,,,,,,,,,,,,,,,,,,,,,,,,,,,,,,,,,,,,,,,,,,,84,escuto,,,,,618.8915,620.3418,1,0,0.906,,0,56,56,83,1,REAL,FAKE,,,,,,,,,,,,,,,,,
,,,,,,,,,55b8d0bffdf99b0f2859fe73,Mexican,13 or older,"no, only English or Spanish",no,2025-07-23_06h49.06.406,empathy_intonation_perc,2024.2.4,Win32,60.24096386,55b8d0bffdf99b0f2859fe73,687ed1b7e638a4cbf2f02089,6880be00c9090cf1eea2a441,,,,,,,,,,,,,,1,,,,,,,,,,,,,,,,,,,,,,,,,,,,,,,,,,,,,,,,,,,,,,,,,,,,,,,,,59,besar,,,,,620.3449,621.4945,1,1,0.6217,,0,57,57,58,1,REAL,FAKE,,,,,,,,,,,,,,,,,
,,,,,,,,,55b8d0bffdf99b0f2859fe73,Mexican,13 or older,"no, only English or Spanish",no,2025-07-23_06h49.06.406,empathy_intonation_perc,2024.2.4,Win32,60.24096386,55b8d0bffdf99b0f2859fe73,687ed1b7e638a4cbf2f02089,6880be00c9090cf1eea2a441,,,,,,,,,,,,,,1,,,,,,,,,,,,,,,,,,,,,,,,,,,,,,,,,,,,,,,,,,,,,,,,,,,,,,,,,75,yacer,,,,,621.4973,622.6639,1,1,0.6369,,0,58,58,74,1,REAL,FAKE,,,,,,,,,,,,,,,,,
,,,,,,,,,55b8d0bffdf99b0f2859fe73,Mexican,13 or older,"no, only English or Spanish",no,2025-07-23_06h49.06.406,empathy_intonation_perc,2024.2.4,Win32,60.24096386,55b8d0bffdf99b0f2859fe73,687ed1b7e638a4cbf2f02089,6880be00c9090cf1eea2a441,,,,,,,,,,,,,,0,,,,,,,,,,,,,,,,,,,,,,,,,,,,,,,,,,,,,,,,,,,,,,,,,,,,,,,,,82,empirador,,,,,622.667,624.201,1,0,0.9868,,0,59,59,81,1,REAL,FAKE,,,,,,,,,,,,,,,,,
,,,,,,,,,55b8d0bffdf99b0f2859fe73,Mexican,13 or older,"no, only English or Spanish",no,2025-07-23_06h49.06.406,empathy_intonation_perc,2024.2.4,Win32,60.24096386,55b8d0bffdf99b0f2859fe73,687ed1b7e638a4cbf2f02089,6880be00c9090cf1eea2a441,,,,,,,,,,,,,,0,,,,,,,,,,,,,,,,,,,,,,,,,,,,,,,,,,,,,,,,,,,,,,,,,,,,,,,,,79,tropaje,,,,,624.2036,625.4874,1,0,0.7524,,0,60,60,78,1,REAL,FAKE,,,,,,,,,,,,,,,,,
,,,,,,,,,55b8d0bffdf99b0f2859fe73,Mexican,13 or older,"no, only English or Spanish",no,2025-07-23_06h49.06.406,empathy_intonation_perc,2024.2.4,Win32,60.24096386,55b8d0bffdf99b0f2859fe73,687ed1b7e638a4cbf2f02089,6880be00c9090cf1eea2a441,,,,,,,,,,,,,,1,,,,,,,,,,,,,,,,,,,,,,,,,,,,,,,,,,,,,,,,,,,,,,,,,,,,,,,,,45,jilguero,,,,,625.4899,626.5894,0,0,0.5525,,0,61,61,44,1,REAL,FAKE,,,,,,,,,,,,,,,,,
,,,,,,,,,55b8d0bffdf99b0f2859fe73,Mexican,13 or older,"no, only English or Spanish",no,2025-07-23_06h49.06.406,empathy_intonation_perc,2024.2.4,Win32,60.24096386,55b8d0bffdf99b0f2859fe73,687ed1b7e638a4cbf2f02089,6880be00c9090cf1eea2a441,,,,,,,,,,,,,,1,,,,,,,,,,,,,,,,,,,,,,,,,,,,,,,,,,,,,,,,,,,,,,,,,,,,,,,,,91,click the 1 key.,,,,,626.5925,627.8767,1,1,0.7518,,0,62,62,90,1,REAL,FAKE,,,,,,,,,,,,,,,,,
,,,,,,,,,55b8d0bffdf99b0f2859fe73,Mexican,13 or older,"no, only English or Spanish",no,2025-07-23_06h49.06.406,empathy_intonation_perc,2024.2.4,Win32,60.24096386,55b8d0bffdf99b0f2859fe73,687ed1b7e638a4cbf2f02089,6880be00c9090cf1eea2a441,,,,,,,,,,,,,,1,,,,,,,,,,,,,,,,,,,,,,,,,,,,,,,,,,,,,,,,,,,,,,,,,,,,,,,,,46,martillo,,,,,627.8789,629.1458,0,0,0.7272,,0,63,63,45,1,REAL,FAKE,,,,,,,,,,,,,,,,,
,,,,,,,,,55b8d0bffdf99b0f2859fe73,Mexican,13 or older,"no, only English or Spanish",no,2025-07-23_06h49.06.406,empathy_intonation_perc,2024.2.4,Win32,60.24096386,55b8d0bffdf99b0f2859fe73,687ed1b7e638a4cbf2f02089,6880be00c9090cf1eea2a441,,,,,,,,,,,,,,1,,,,,,,,,,,,,,,,,,,,,,,,,,,,,,,,,,,,,,,,,,,,,,,,,,,,,,,,,77,tiburón,,,,,629.1482,630.399,0,0,0.7028,,0,64,64,76,1,REAL,FAKE,,,,,,,,,,,,,,,,,
,,,,,,,,,55b8d0bffdf99b0f2859fe73,Mexican,13 or older,"no, only English or Spanish",no,2025-07-23_06h49.06.406,empathy_intonation_perc,2024.2.4,Win32,60.24096386,55b8d0bffdf99b0f2859fe73,687ed1b7e638a4cbf2f02089,6880be00c9090cf1eea2a441,,,,,,,,,,,,,,0,,,,,,,,,,,,,,,,,,,,,,,,,,,,,,,,,,,,,,,,,,,,,,,,,,,,,,,,,19,brecedad,,,,,630.4012,631.6511,0,1,0.702,,0,65,65,18,1,REAL,FAKE,,,,,,,,,,,,,,,,,
,,,,,,,,,55b8d0bffdf99b0f2859fe73,Mexican,13 or older,"no, only English or Spanish",no,2025-07-23_06h49.06.406,empathy_intonation_perc,2024.2.4,Win32,60.24096386,55b8d0bffdf99b0f2859fe73,687ed1b7e638a4cbf2f02089,6880be00c9090cf1eea2a441,,,,,,,,,,,,,,1,,,,,,,,,,,,,,,,,,,,,,,,,,,,,,,,,,,,,,,,,,,,,,,,,,,,,,,,,5,zapato,,,,,631.6543,632.7204,1,1,0.5197,,0,66,66,4,1,REAL,FAKE,,,,,,,,,,,,,,,,,
,,,,,,,,,55b8d0bffdf99b0f2859fe73,Mexican,13 or older,"no, only English or Spanish",no,2025-07-23_06h49.06.406,empathy_intonation_perc,2024.2.4,Win32,60.24096386,55b8d0bffdf99b0f2859fe73,687ed1b7e638a4cbf2f02089,6880be00c9090cf1eea2a441,,,,,,,,,,,,,,1,,,,,,,,,,,,,,,,,,,,,,,,,,,,,,,,,,,,,,,,,,,,,,,,,,,,,,,,,28,merodear,,,,,632.7229,634.5244,0,0,1.2534,,0,67,67,27,1,REAL,FAKE,,,,,,,,,,,,,,,,,
,,,,,,,,,55b8d0bffdf99b0f2859fe73,Mexican,13 or older,"no, only English or Spanish",no,2025-07-23_06h49.06.406,empathy_intonation_perc,2024.2.4,Win32,60.24096386,55b8d0bffdf99b0f2859fe73,687ed1b7e638a4cbf2f02089,6880be00c9090cf1eea2a441,,,,,,,,,,,,,,1,,,,,,,,,,,,,,,,,,,,,,,,,,,,,,,,,,,,,,,,,,,,,,,,,,,,,,,,,34,aviso,,,,,634.5273,635.7111,1,1,0.6359,,0,68,68,33,1,REAL,FAKE,,,,,,,,,,,,,,,,,
,,,,,,,,,55b8d0bffdf99b0f2859fe73,Mexican,13 or older,"no, only English or Spanish",no,2025-07-23_06h49.06.406,empathy_intonation_perc,2024.2.4,Win32,60.24096386,55b8d0bffdf99b0f2859fe73,687ed1b7e638a4cbf2f02089,6880be00c9090cf1eea2a441,,,,,,,,,,,,,,0,,,,,,,,,,,,,,,,,,,,,,,,,,,,,,,,,,,,,,,,,,,,,,,,,,,,,,,,,21,capillo,,,,,635.7132,636.7466,1,0,0.4857,,0,69,69,20,1,REAL,FAKE,,,,,,,,,,,,,,,,,
,,,,,,,,,55b8d0bffdf99b0f2859fe73,Mexican,13 or older,"no, only English or Spanish",no,2025-07-23_06h49.06.406,empathy_intonation_perc,2024.2.4,Win32,60.24096386,55b8d0bffdf99b0f2859fe73,687ed1b7e638a4cbf2f02089,6880be00c9090cf1eea2a441,,,,,,,,,,,,,,0,,,,,,,,,,,,,,,,,,,,,,,,,,,,,,,,,,,,,,,,,,,,,,,,,,,,,,,,,10,antar,,,,,636.7493,638.0655,1,0,0.7768,,0,70,70,9,1,REAL,FAKE,,,,,,,,,,,,,,,,,
,,,,,,,,,55b8d0bffdf99b0f2859fe73,Mexican,13 or older,"no, only English or Spanish",no,2025-07-23_06h49.06.406,empathy_intonation_perc,2024.2.4,Win32,60.24096386,55b8d0bffdf99b0f2859fe73,687ed1b7e638a4cbf2f02089,6880be00c9090cf1eea2a441,,,,,,,,,,,,,,0,,,,,,,,,,,,,,,,,,,,,,,,,,,,,,,,,,,,,,,,,,,,,,,,,,,,,,,,,58,plaudir,,,,,638.0682,639.2851,0,1,0.687,,0,71,71,57,1,REAL,FAKE,,,,,,,,,,,,,,,,,
,,,,,,,,,55b8d0bffdf99b0f2859fe73,Mexican,13 or older,"no, only English or Spanish",no,2025-07-23_06h49.06.406,empathy_intonation_perc,2024.2.4,Win32,60.24096386,55b8d0bffdf99b0f2859fe73,687ed1b7e638a4cbf2f02089,6880be00c9090cf1eea2a441,,,,,,,,,,,,,,1,,,,,,,,,,,,,,,,,,,,,,,,,,,,,,,,,,,,,,,,,,,,,,,,,,,,,,,,,48,ladrón,,,,,639.2881,640.5213,0,0,0.6858,,0,72,72,47,1,REAL,FAKE,,,,,,,,,,,,,,,,,
,,,,,,,,,55b8d0bffdf99b0f2859fe73,Mexican,13 or older,"no, only English or Spanish",no,2025-07-23_06h49.06.406,empathy_intonation_perc,2024.2.4,Win32,60.24096386,55b8d0bffdf99b0f2859fe73,687ed1b7e638a4cbf2f02089,6880be00c9090cf1eea2a441,,,,,,,,,,,,,,1,,,,,,,,,,,,,,,,,,,,,,,,,,,,,,,,,,,,,,,,,,,,,,,,,,,,,,,,,36,loro,,,,,640.5243,641.7744,0,0,0.723,,0,73,73,35,1,REAL,FAKE,,,,,,,,,,,,,,,,,
,,,,,,,,,55b8d0bffdf99b0f2859fe73,Mexican,13 or older,"no, only English or Spanish",no,2025-07-23_06h49.06.406,empathy_intonation_perc,2024.2.4,Win32,60.24096386,55b8d0bffdf99b0f2859fe73,687ed1b7e638a4cbf2f02089,6880be00c9090cf1eea2a441,,,,,,,,,,,,,,1,,,,,,,,,,,,,,,,,,,,,,,,,,,,,,,,,,,,,,,,,,,,,,,,,,,,,,,,,78,frondoso,,,,,641.7773,643.345,0,0,1.0181,,0,74,74,77,1,REAL,FAKE,,,,,,,,,,,,,,,,,
,,,,,,,,,55b8d0bffdf99b0f2859fe73,Mexican,13 or older,"no, only English or Spanish",no,2025-07-23_06h49.06.406,empathy_intonation_perc,2024.2.4,Win32,60.24096386,55b8d0bffdf99b0f2859fe73,687ed1b7e638a4cbf2f02089,6880be00c9090cf1eea2a441,,,,,,,,,,,,,,1,,,,,,,,,,,,,,,,,,,,,,,,,,,,,,,,,,,,,,,,,,,,,,,,,,,,,,,,,76,atar,,,,,643.3474,644.263,1,1,0.3687,,0,75,75,75,1,REAL,FAKE,,,,,,,,,,,,,,,,,
,,,,,,,,,55b8d0bffdf99b0f2859fe73,Mexican,13 or older,"no, only English or Spanish",no,2025-07-23_06h49.06.406,empathy_intonation_perc,2024.2.4,Win32,60.24096386,55b8d0bffdf99b0f2859fe73,687ed1b7e638a4cbf2f02089,6880be00c9090cf1eea2a441,,,,,,,,,,,,,,1,,,,,,,,,,,,,,,,,,,,,,,,,,,,,,,,,,,,,,,,,,,,,,,,,,,,,,,,,20,ávido,,,,,644.2663,645.6335,1,1,0.82,,0,76,76,19,1,REAL,FAKE,,,,,,,,,,,,,,,,,
,,,,,,,,,55b8d0bffdf99b0f2859fe73,Mexican,13 or older,"no, only English or Spanish",no,2025-07-23_06h49.06.406,empathy_intonation_perc,2024.2.4,Win32,60.24096386,55b8d0bffdf99b0f2859fe73,687ed1b7e638a4cbf2f02089,6880be00c9090cf1eea2a441,,,,,,,,,,,,,,0,,,,,,,,,,,,,,,,,,,,,,,,,,,,,,,,,,,,,,,,,,,,,,,,,,,,,,,,,18,arsa,,,,,645.6358,646.8187,0,1,0.6414,,0,77,77,17,1,REAL,FAKE,,,,,,,,,,,,,,,,,
,,,,,,,,,55b8d0bffdf99b0f2859fe73,Mexican,13 or older,"no, only English or Spanish",no,2025-07-23_06h49.06.406,empathy_intonation_perc,2024.2.4,Win32,60.24096386,55b8d0bffdf99b0f2859fe73,687ed1b7e638a4cbf2f02089,6880be00c9090cf1eea2a441,,,,,,,,,,,,,,1,,,,,,,,,,,,,,,,,,,,,,,,,,,,,,,,,,,,,,,,,,,,,,,,,,,,,,,,,73,hervidor,,,,,646.8219,648.1888,0,0,0.8198,,0,78,78,72,1,REAL,FAKE,,,,,,,,,,,,,,,,,
,,,,,,,,,55b8d0bffdf99b0f2859fe73,Mexican,13 or older,"no, only English or Spanish",no,2025-07-23_06h49.06.406,empathy_intonation_perc,2024.2.4,Win32,60.24096386,55b8d0bffdf99b0f2859fe73,687ed1b7e638a4cbf2f02089,6880be00c9090cf1eea2a441,,,,,,,,,,,,,,0,,,,,,,,,,,,,,,,,,,,,,,,,,,,,,,,,,,,,,,,,,,,,,,,,,,,,,,,,30,alardio,,,,,648.1915,649.1914,1,0,0.4712,,0,79,79,29,1,REAL,FAKE,,,,,,,,,,,,,,,,,
,,,,,,,,,55b8d0bffdf99b0f2859fe73,Mexican,13 or older,"no, only English or Spanish",no,2025-07-23_06h49.06.406,empathy_intonation_perc,2024.2.4,Win32,60.24096386,55b8d0bffdf99b0f2859fe73,687ed1b7e638a4cbf2f02089,6880be00c9090cf1eea2a441,,,,,,,,,,,,,,1,,,,,,,,,,,,,,,,,,,,,,,,,,,,,,,,,,,,,,,,,,,,,,,,,,,,,,,,,13,helar,,,,,649.1941,650.2937,1,1,0.5538,,0,80,80,12,1,REAL,FAKE,,,,,,,,,,,,,,,,,
,,,,,,,,,55b8d0bffdf99b0f2859fe73,Mexican,13 or older,"no, only English or Spanish",no,2025-07-23_06h49.06.406,empathy_intonation_perc,2024.2.4,Win32,60.24096386,55b8d0bffdf99b0f2859fe73,687ed1b7e638a4cbf2f02089,6880be00c9090cf1eea2a441,,,,,,,,,,,,,,1,,,,,,,,,,,,,,,,,,,,,,,,,,,,,,,,,,,,,,,,,,,,,,,,,,,,,,,,,31,pandilla,,,,,650.2966,651.9144,1,1,1.0748,,0,81,81,30,1,REAL,FAKE,,,,,,,,,,,,,,,,,
,,,,,,,,,55b8d0bffdf99b0f2859fe73,Mexican,13 or older,"no, only English or Spanish",no,2025-07-23_06h49.06.406,empathy_intonation_perc,2024.2.4,Win32,60.24096386,55b8d0bffdf99b0f2859fe73,687ed1b7e638a4cbf2f02089,6880be00c9090cf1eea2a441,,,,,,,,,,,,,,1,,,,,,,,,,,,,,,,,,,,,,,,,,,,,,,,,,,,,,,,,,,,,,,,,,,,,,,,,54,fomentar,,,,,651.917,653.3671,1,1,0.9027,,0,82,82,53,1,REAL,FAKE,,,,,,,,,,,,,,,,,
,,,,,,,,,55b8d0bffdf99b0f2859fe73,Mexican,13 or older,"no, only English or Spanish",no,2025-07-23_06h49.06.406,empathy_intonation_perc,2024.2.4,Win32,60.24096386,55b8d0bffdf99b0f2859fe73,687ed1b7e638a4cbf2f02089,6880be00c9090cf1eea2a441,,,,,,,,,,,,,,0,,,,,,,,,,,,,,,,,,,,,,,,,,,,,,,,,,,,,,,,,,,,,,,,,,,,,,,,,27,acutación,,,,,653.3701,654.5206,0,1,0.6028,,0,83,83,26,1,REAL,FAKE,,,,,,,,,,,,,,,,,
,,,,,,,,,55b8d0bffdf99b0f2859fe73,Mexican,13 or older,"no, only English or Spanish",no,2025-07-23_06h49.06.406,empathy_intonation_perc,2024.2.4,Win32,60.24096386,55b8d0bffdf99b0f2859fe73,687ed1b7e638a4cbf2f02089,6880be00c9090cf1eea2a441,,,,,,,,,,,,,,1,,,,,,,,,,,,,,,,,,,,,,,,,,,,,,,,,,,,,,,,,,,,,,,,,,,,,,,,,39,torpe,,,,,654.523,655.6897,0,0,0.6184,,0,84,84,38,1,REAL,FAKE,,,,,,,,,,,,,,,,,
,,,,,,,,,55b8d0bffdf99b0f2859fe73,Mexican,13 or older,"no, only English or Spanish",no,2025-07-23_06h49.06.406,empathy_intonation_perc,2024.2.4,Win32,60.24096386,55b8d0bffdf99b0f2859fe73,687ed1b7e638a4cbf2f02089,6880be00c9090cf1eea2a441,,,,,,,,,,,,,,0,,,,,,,,,,,,,,,,,,,,,,,,,,,,,,,,,,,,,,,,,,,,,,,,,,,,,,,,,16,abracer,,,,,655.6924,656.8833,0,1,0.6515,,0,85,85,15,1,REAL,FAKE,,,,,,,,,,,,,,,,,
,,,,,,,,,55b8d0bffdf99b0f2859fe73,Mexican,13 or older,"no, only English or Spanish",no,2025-07-23_06h49.06.406,empathy_intonation_perc,2024.2.4,Win32,60.24096386,55b8d0bffdf99b0f2859fe73,687ed1b7e638a4cbf2f02089,6880be00c9090cf1eea2a441,,,,,,,,,,,,,,0,,,,,,,,,,,,,,,,,,,,,,,,,,,,,,,,,,,,,,,,,,,,,,,,,,,,,,,,,23,lampera,,,,,656.8841,657.9775,1,0,0.5533,,0,86,86,22,1,REAL,FAKE,,,,,,,,,,,,,,,,,
,,,,,,,,,55b8d0bffdf99b0f2859fe73,Mexican,13 or older,"no, only English or Spanish",no,2025-07-23_06h49.06.406,empathy_intonation_perc,2024.2.4,Win32,60.24096386,55b8d0bffdf99b0f2859fe73,687ed1b7e638a4cbf2f02089,6880be00c9090cf1eea2a441,,,,,,,,,,,,,,1,,,,,,,,,,,,,,,,,,,,,,,,,,,,,,,,,,,,,,,,,,,,,,,,,,,,,,,,,83,guante,,,,,657.9811,659.1301,0,0,0.6087,,0,87,87,82,1,REAL,FAKE,,,,,,,,,,,,,,,,,
,,,,,,,,,55b8d0bffdf99b0f2859fe73,Mexican,13 or older,"no, only English or Spanish",no,2025-07-23_06h49.06.406,empathy_intonation_perc,2024.2.4,Win32,60.24096386,55b8d0bffdf99b0f2859fe73,687ed1b7e638a4cbf2f02089,6880be00c9090cf1eea2a441,,,,,,,,,,,,,,0,,,,,,,,,,,,,,,,,,,,,,,,,,,,,,,,,,,,,,,,,,,,,,,,,,,,,,,,,74,cintro,,,,,659.133,660.1832,1,0,0.5207,,0,88,88,73,1,REAL,FAKE,,,,,,,,,,,,,,,,,
,,,,,,,,,55b8d0bffdf99b0f2859fe73,Mexican,13 or older,"no, only English or Spanish",no,2025-07-23_06h49.06.406,empathy_intonation_perc,2024.2.4,Win32,60.24096386,55b8d0bffdf99b0f2859fe73,687ed1b7e638a4cbf2f02089,6880be00c9090cf1eea2a441,,,,,,,,,,,,,,1,,,,,,,,,,,,,,,,,,,,,,,,,,,,,,,,,,,,,,,,,,,,,,,,,,,,,,,,,25,bisagra,,,,,660.1858,661.9199,1,1,1.1878,,0,89,89,24,1,REAL,FAKE,,,,,,,,,,,,,,,,,
,,,,,,,,,55b8d0bffdf99b0f2859fe73,Mexican,13 or older,"no, only English or Spanish",no,2025-07-23_06h49.06.406,empathy_intonation_perc,2024.2.4,Win32,60.24096386,55b8d0bffdf99b0f2859fe73,687ed1b7e638a4cbf2f02089,6880be00c9090cf1eea2a441,,,,,,,,,,,,,,1,,,,,,,,,,,,,,,,,,,,,,,,,,,,,,,,,,,,,,,,,,,,,,,,,,,,,,,,,64,orgulloso,,,,,661.9229,663.1283,0,0,0.6659,,0,90,90,63,1,REAL,FAKE,,,,,,,,,,,,,,,,,
,,,,,,,,,55b8d0bffdf99b0f2859fe73,Mexican,13 or older,"no, only English or Spanish",no,2025-07-23_06h49.06.406,empathy_intonation_perc,2024.2.4,Win32,60.24096386,55b8d0bffdf99b0f2859fe73,687ed1b7e638a4cbf2f02089,6880be00c9090cf1eea2a441,,,,,,,,,,,,,,0,,,,,,,,,,,,,,,,,,,,,,,,,,,,,,,,,,,,,,,,,,,,,,,,,,,,,,,,,35,rompido,,,,,663.1288,664.3254,0,1,0.6552,,0,91,91,34,1,REAL,FAKE,,,,,,,,,,,,,,,,,
,,,,,,,,,55b8d0bffdf99b0f2859fe73,Mexican,13 or older,"no, only English or Spanish",no,2025-07-23_06h49.06.406,empathy_intonation_perc,2024.2.4,Win32,60.24096386,55b8d0bffdf99b0f2859fe73,687ed1b7e638a4cbf2f02089,6880be00c9090cf1eea2a441,,,,,,,,,,,,,,,,,,,,,,,,,,,,,,,,,,,,,,,,,,,,,,,,,,,,,,,,,,,,,,,,,,,,,,,,,,,,,,,,,,,,,,,,,,664.3273,672.3294,,,,,,,,,,,,,,,
,,,,,,,,,55b8d0bffdf99b0f2859fe73,Mexican,13 or older,"no, only English or Spanish",no,2025-07-23_06h49.06.406,empathy_intonation_perc,2024.2.4,Win32,60.24096386,55b8d0bffdf99b0f2859fe73,687ed1b7e638a4cbf2f02089,6880be00c9090cf1eea2a441,,,,,,,,,,,,,1,,,,,,,,,,,,,,,,,,,,,,,,,,,,,,,,,,,,,,,,,,,,,,,,,,,,,,,,,,,,,,,,,,,,,,,,,,,,,,,672.3353,675.853,strongly agree,0,0,0,0,1,I can easily tell if someone else wants to enter a conversation.,1,0,1,0,,
,,,,,,,,,55b8d0bffdf99b0f2859fe73,Mexican,13 or older,"no, only English or Spanish",no,2025-07-23_06h49.06.406,empathy_intonation_perc,2024.2.4,Win32,60.24096386,55b8d0bffdf99b0f2859fe73,687ed1b7e638a4cbf2f02089,6880be00c9090cf1eea2a441,,,,,,,,,,,,,2,,,,,,,,,,,,,,,,,,,,,,,,,,,,,,,,,,,,,,,,,,,,,,,,,,,,,,,,,,,,,,,,,,,,,,,,,,,,,,,675.8556,677.9406,strongly disagree,0,1,1,1,1,I prefer animals to humans.,0,1,0,0,,
,,,,,,,,,55b8d0bffdf99b0f2859fe73,Mexican,13 or older,"no, only English or Spanish",no,2025-07-23_06h49.06.406,empathy_intonation_perc,2024.2.4,Win32,60.24096386,55b8d0bffdf99b0f2859fe73,687ed1b7e638a4cbf2f02089,6880be00c9090cf1eea2a441,,,,,,,,,,,,,3,,,,,,,,,,,,,,,,,,,,,,,,,,,,,,,,,,,,,,,,,,,,,,,,,,,,,,,,,,,,,,,,,,,,,,,,,,,,,,,677.9438,680.3954,slightly agree,0,2,2,2,1,I try to keep up with the current trends and fashions.,0,1,0,0,,
,,,,,,,,,55b8d0bffdf99b0f2859fe73,Mexican,13 or older,"no, only English or Spanish",no,2025-07-23_06h49.06.406,empathy_intonation_perc,2024.2.4,Win32,60.24096386,55b8d0bffdf99b0f2859fe73,687ed1b7e638a4cbf2f02089,6880be00c9090cf1eea2a441,,,,,,,,,,,,,4,,,,,,,,,,,,,,,,,,,,,,,,,,,,,,,,,,,,,,,,,,,,,,,,,,,,,,,,,,,,,,,,,,,,,,,,,,,,,,,680.4002,683.7699,strongly disagree,0,3,3,3,1,"I find it difficult to explain to others things that I understand easily,   when they don't understand it first time.",1,0,0,1,,
,,,,,,,,,55b8d0bffdf99b0f2859fe73,Mexican,13 or older,"no, only English or Spanish",no,2025-07-23_06h49.06.406,empathy_intonation_perc,2024.2.4,Win32,60.24096386,55b8d0bffdf99b0f2859fe73,687ed1b7e638a4cbf2f02089,6880be00c9090cf1eea2a441,,,,,,,,,,,,,5,,,,,,,,,,,,,,,,,,,,,,,,,,,,,,,,,,,,,,,,,,,,,,,,,,,,,,,,,,,,,,,,,,,,,,,,,,,,,,,683.7731,685.8171,strongly disagree,0,4,4,4,1,I dream most nights.,0,1,0,0,,
,,,,,,,,,55b8d0bffdf99b0f2859fe73,Mexican,13 or older,"no, only English or Spanish",no,2025-07-23_06h49.06.406,empathy_intonation_perc,2024.2.4,Win32,60.24096386,55b8d0bffdf99b0f2859fe73,687ed1b7e638a4cbf2f02089,6880be00c9090cf1eea2a441,,,,,,,,,,,,,6,,,,,,,,,,,,,,,,,,,,,,,,,,,,,,,,,,,,,,,,,,,,,,,,,,,,,,,,,,,,,,,,,,,,,,,,,,,,,,,685.818,688.5482,strongly agree,0,5,5,5,1,I really enjoy caring for other people.,1,0,1,0,,
,,,,,,,,,55b8d0bffdf99b0f2859fe73,Mexican,13 or older,"no, only English or Spanish",no,2025-07-23_06h49.06.406,empathy_intonation_perc,2024.2.4,Win32,60.24096386,55b8d0bffdf99b0f2859fe73,687ed1b7e638a4cbf2f02089,6880be00c9090cf1eea2a441,,,,,,,,,,,,,7,,,,,,,,,,,,,,,,,,,,,,,,,,,,,,,,,,,,,,,,,,,,,,,,,,,,,,,,,,,,,,,,,,,,,,,,,,,,,,,688.5515,691.0703,strongly agree,0,6,6,6,1,I try to solve my own problems rather than discussing them with others.,0,1,0,0,,
,,,,,,,,,55b8d0bffdf99b0f2859fe73,Mexican,13 or older,"no, only English or Spanish",no,2025-07-23_06h49.06.406,empathy_intonation_perc,2024.2.4,Win32,60.24096386,55b8d0bffdf99b0f2859fe73,687ed1b7e638a4cbf2f02089,6880be00c9090cf1eea2a441,,,,,,,,,,,,,8,,,,,,,,,,,,,,,,,,,,,,,,,,,,,,,,,,,,,,,,,,,,,,,,,,,,,,,,,,,,,,,,,,,,,,,,,,,,,,,691.0736,693.3414,strongly disagree,0,7,7,7,1,I find it hard to know what to do in a social situation.,1,0,0,1,,
,,,,,,,,,55b8d0bffdf99b0f2859fe73,Mexican,13 or older,"no, only English or Spanish",no,2025-07-23_06h49.06.406,empathy_intonation_perc,2024.2.4,Win32,60.24096386,55b8d0bffdf99b0f2859fe73,687ed1b7e638a4cbf2f02089,6880be00c9090cf1eea2a441,,,,,,,,,,,,,9,,,,,,,,,,,,,,,,,,,,,,,,,,,,,,,,,,,,,,,,,,,,,,,,,,,,,,,,,,,,,,,,,,,,,,,,,,,,,,,693.345,697.2338,slightly agree,0,8,8,8,1,I am at my best first thing in the morning.,0,1,0,0,,
,,,,,,,,,55b8d0bffdf99b0f2859fe73,Mexican,13 or older,"no, only English or Spanish",no,2025-07-23_06h49.06.406,empathy_intonation_perc,2024.2.4,Win32,60.24096386,55b8d0bffdf99b0f2859fe73,687ed1b7e638a4cbf2f02089,6880be00c9090cf1eea2a441,,,,,,,,,,,,,10,,,,,,,,,,,,,,,,,,,,,,,,,,,,,,,,,,,,,,,,,,,,,,,,,,,,,,,,,,,,,,,,,,,,,,,,,,,,,,,697.2375,699.9904,strongly disagree,0,9,9,9,1,People often tell me that I went too far in driving my point home in a discussion.,1,0,0,1,,
