instructions_exposure.started,instructions_exposure.stopped,instructions_exposure_loop.thisRepN,instructions_exposure_loop.thisTrialN,instructions_exposure_loop.thisN,instructions_exposure_loop.thisIndex,instructions_exposure_loop.ran,instructions_text,continue_text,participant_id,"What variety of Spanish are you most familiar with? (e.g., Peruvian, Spanish, Mexican)",At what age did you begin learning Spanish?,Are you proficient in any languages other than English/Spanish?,"Are you familiar with Caribbean (e.g., Caribbean, Puerto Rican) or Galician Spanish?",date,expName,psychopyVersion,OS,frameRate,id,study_id,session,trial_exposure.started,trial_exposure.stopped,key_resp_exposure.keys,key_resp_exposure.corr,key_resp_exposure.rt,key_resp_exposure.duration,key_resp.keys,exposure_loop.thisRepN,exposure_loop.thisTrialN,exposure_loop.thisN,exposure_loop.thisIndex,exposure_loop.ran,item_num,correct_response,question,path,duration,instructions_2afc.started,instructions_2afc.stopped,instructions_2afc_loop.thisRepN,instructions_2afc_loop.thisTrialN,instructions_2afc_loop.thisN,instructions_2afc_loop.thisIndex,instructions_2afc_loop.ran,practice_2afc.started,practice_2afc.stopped,key_resp_2afc_practice.keys,key_resp_2afc_practice.corr,key_resp_2afc_practice.rt,key_resp_2afc_practice.duration,trials_2afc_practice_loop.thisRepN,trials_2afc_practice_loop.thisTrialN,trials_2afc_practice_loop.thisN,trials_2afc_practice_loop.thisIndex,trials_2afc_practice_loop.ran,check_2afc.started,check_2afc.stopped,trial_2afc.started,trial_2afc.stopped,key_resp_2afc_trial.keys,key_resp_2afc_trial.corr,key_resp_2afc_trial.rt,key_resp_2afc_trial.duration,trials_2afc_loop.thisRepN,trials_2afc_loop.thisTrialN,trials_2afc_loop.thisN,trials_2afc_loop.thisIndex,trials_2afc_loop.ran,target,variety,instructions_lextale.started,instructions_lextale.stopped,instructions_lextale_loop.thisRepN,instructions_lextale_loop.thisTrialN,instructions_lextale_loop.thisN,instructions_lextale_loop.thisIndex,instructions_lextale_loop.ran,practice_lextale.started,practice_lextale.stopped,key_resp_lextale_practice.keys,key_resp_lextale_practice.corr,key_resp_lextale_practice.rt,key_resp_lextale_practice.duration,practice_feedback_lextale.started,practice_feedback_lextale.stopped,trials_lextale_practice_loop.thisRepN,trials_lextale_practice_loop.thisTrialN,trials_lextale_practice_loop.thisN,trials_lextale_practice_loop.thisIndex,trials_lextale_practice_loop.ran,stim,word,prac_button_real,prac_button_false,check_lextale.started,check_lextale.stopped,trial_lextale.started,trial_lextale.stopped,key_resp_lextale_trial.keys,key_resp_lextale_trial.corr,key_resp_lextale_trial.rt,key_resp_lextale_trial.duration,trials_lextale_loop.thisRepN,trials_lextale_loop.thisTrialN,trials_lextale_loop.thisN,trials_lextale_loop.thisIndex,trials_lextale_loop.ran,button_real,button_false,instructions_eq.started,instructions_eq.stopped,trial_eq.started,trial_eq.stopped,slider_eq_trial.response,trials_eq_loop.thisRepN,trials_eq_loop.thisTrialN,trials_eq_loop.thisN,trials_eq_loop.thisIndex,trials_eq_loop.ran,item,is_test_item,is_distractor,is_agree_score,is_disagree_score,end_exp.started,end_exp.stopped
0.0497,1.9577,0,0,0,0,1,"In the following task, you are going to hear a series of conversations.", (press the space bar to continue),5611f6dd7ffc8a00058117e7,Mexican,younger than 13,"no, only English or Spanish",no,2025-08-13_14h48.41.626,empathy_intonation_perc,2024.2.4,Linux x86_64,59.88023952,5611f6dd7ffc8a00058117e7,687ed1b7e638a4cbf2f02089,689d0708ed6da857ff7b77d7,,,,,,,,,,,,,,,,,,,,,,,,,,,,,,,,,,,,,,,,,,,,,,,,,,,,,,,,,,,,,,,,,,,,,,,,,,,,,,,,,,,,,,,,,,,,,,,,,,,,,,,,,,
1.9602,6.14,0,1,1,1,1,It is okay if you don't not 100% understand them!, (press the space bar to continue),5611f6dd7ffc8a00058117e7,Mexican,younger than 13,"no, only English or Spanish",no,2025-08-13_14h48.41.626,empathy_intonation_perc,2024.2.4,Linux x86_64,59.88023952,5611f6dd7ffc8a00058117e7,687ed1b7e638a4cbf2f02089,689d0708ed6da857ff7b77d7,,,,,,,,,,,,,,,,,,,,,,,,,,,,,,,,,,,,,,,,,,,,,,,,,,,,,,,,,,,,,,,,,,,,,,,,,,,,,,,,,,,,,,,,,,,,,,,,,,,,,,,,,,
6.1436,9.79,0,2,2,2,1,"After, you will read a sentence about the conversation and decide if it's true or false.", (press the space bar to continue),5611f6dd7ffc8a00058117e7,Mexican,younger than 13,"no, only English or Spanish",no,2025-08-13_14h48.41.626,empathy_intonation_perc,2024.2.4,Linux x86_64,59.88023952,5611f6dd7ffc8a00058117e7,687ed1b7e638a4cbf2f02089,689d0708ed6da857ff7b77d7,,,,,,,,,,,,,,,,,,,,,,,,,,,,,,,,,,,,,,,,,,,,,,,,,,,,,,,,,,,,,,,,,,,,,,,,,,,,,,,,,,,,,,,,,,,,,,,,,,,,,,,,,,
9.793,43.9731,0,3,3,3,1,"If it's true, press '1' (True) and if it's false press '0' (False).", (press the space bar to continue),5611f6dd7ffc8a00058117e7,Mexican,younger than 13,"no, only English or Spanish",no,2025-08-13_14h48.41.626,empathy_intonation_perc,2024.2.4,Linux x86_64,59.88023952,5611f6dd7ffc8a00058117e7,687ed1b7e638a4cbf2f02089,689d0708ed6da857ff7b77d7,,,,,,,,,,,,,,,,,,,,,,,,,,,,,,,,,,,,,,,,,,,,,,,,,,,,,,,,,,,,,,,,,,,,,,,,,,,,,,,,,,,,,,,,,,,,,,,,,,,,,,,,,,
,,,,,,,,,5611f6dd7ffc8a00058117e7,Mexican,younger than 13,"no, only English or Spanish",no,2025-08-13_14h48.41.626,empathy_intonation_perc,2024.2.4,Linux x86_64,59.88023952,5611f6dd7ffc8a00058117e7,687ed1b7e638a4cbf2f02089,689d0708ed6da857ff7b77d7,43.9959,108.0741,1,1,4.0301,,,0,0,0,1,1,2,1,The mom asked the daughter if she already went to the supermarket.,./stim/exposure_wavs/dr_stimuli_convo.wav,60,,,,,,,,,,,,,,,,,,,,,,,,,,,,,,,,,,,,,,,,,,,,,,,,,,,,,,,,,,,,,,,,,,,,,,,,,,,,,,,,,,,,,,,,,
,,,,,,,,,5611f6dd7ffc8a00058117e7,Mexican,younger than 13,"no, only English or Spanish",no,2025-08-13_14h48.41.626,empathy_intonation_perc,2024.2.4,Linux x86_64,59.88023952,5611f6dd7ffc8a00058117e7,687ed1b7e638a4cbf2f02089,689d0708ed6da857ff7b77d7,108.0795,161.4066,1,1,6.2865,,,0,1,1,0,1,1,1,The son asked the mom if Aunt Marina is okay.,./stim/exposure_wavs/ga_stimuli_convo.wav,47,,,,,,,,,,,,,,,,,,,,,,,,,,,,,,,,,,,,,,,,,,,,,,,,,,,,,,,,,,,,,,,,,,,,,,,,,,,,,,,,,,,,,,,,,
,,,,,,,,,5611f6dd7ffc8a00058117e7,Mexican,younger than 13,"no, only English or Spanish",no,2025-08-13_14h48.41.626,empathy_intonation_perc,2024.2.4,Linux x86_64,59.88023952,5611f6dd7ffc8a00058117e7,687ed1b7e638a4cbf2f02089,689d0708ed6da857ff7b77d7,161.412,200.8064,1,0,3.3546,,,0,2,2,2,1,3,0,The mom already has rice.,./stim/exposure_wavs/pr_stimuli_convo.wav,36,,,,,,,,,,,,,,,,,,,,,,,,,,,,,,,,,,,,,,,,,,,,,,,,,,,,,,,,,,,,,,,,,,,,,,,,,,,,,,,,,,,,,,,,,
,,,,,,,"In the following task you are going to hear a series of utterances. 

  You will decide if the utterances sound like questions or not using your keyboard.", (press the spacebar to continue),5611f6dd7ffc8a00058117e7,Mexican,younger than 13,"no, only English or Spanish",no,2025-08-13_14h48.41.626,empathy_intonation_perc,2024.2.4,Linux x86_64,59.88023952,5611f6dd7ffc8a00058117e7,687ed1b7e638a4cbf2f02089,689d0708ed6da857ff7b77d7,,,,,,,,,,,,,,,,,,200.8171,204.4073,0,0,0,0,1,,,,,,,,,,,,,,,,,,,,,,,,,,,,,,,,,,,,,,,,,,,,,,,,,,,,,,,,,,,,,,,,,,,,,,,,,,,,,,,,,,
,,,,,,,"If you believe the utterance is a question, type '1' (for 'yes') and if you do not 
  believe it is a question type '0' (for 'no').

  Let's practice a bit...", (press the spacebar to continue),5611f6dd7ffc8a00058117e7,Mexican,younger than 13,"no, only English or Spanish",no,2025-08-13_14h48.41.626,empathy_intonation_perc,2024.2.4,Linux x86_64,59.88023952,5611f6dd7ffc8a00058117e7,687ed1b7e638a4cbf2f02089,689d0708ed6da857ff7b77d7,,,,,,,,,,,,,,,,,,204.4125,207.6904,0,1,1,1,1,,,,,,,,,,,,,,,,,,,,,,,,,,,,,,,,,,,,,,,,,,,,,,,,,,,,,,,,,,,,,,,,,,,,,,,,,,,,,,,,,,
,,,,,,,,,5611f6dd7ffc8a00058117e7,Mexican,younger than 13,"no, only English or Spanish",no,2025-08-13_14h48.41.626,empathy_intonation_perc,2024.2.4,Linux x86_64,59.88023952,5611f6dd7ffc8a00058117e7,687ed1b7e638a4cbf2f02089,689d0708ed6da857ff7b77d7,,,,,,,,,,,,,,1,,./stim/wavs/mexican_question_filler_Felipe-no-tiene-contrasena.wav,,,,,,,,,207.7099,210.9738,1,1,2.7359,,0,0,0,3,1,,,,,,,,,,,,,,,,,,,,,,,,,,,,,,,,,,,,,,,,,,,,,,,,,,,,,,,,,,,,,,,,,,,,,,,
,,,,,,,,,5611f6dd7ffc8a00058117e7,Mexican,younger than 13,"no, only English or Spanish",no,2025-08-13_14h48.41.626,empathy_intonation_perc,2024.2.4,Linux x86_64,59.88023952,5611f6dd7ffc8a00058117e7,687ed1b7e638a4cbf2f02089,689d0708ed6da857ff7b77d7,,,,,,,,,,,,,,1,,./stim/wavs/castilian_question_filler_Mi-esposo-conoce-al-chico.wav,,,,,,,,,210.9755,213.7907,1,1,2.2854,,0,1,1,0,1,,,,,,,,,,,,,,,,,,,,,,,,,,,,,,,,,,,,,,,,,,,,,,,,,,,,,,,,,,,,,,,,,,,,,,,
,,,,,,,,,5611f6dd7ffc8a00058117e7,Mexican,younger than 13,"no, only English or Spanish",no,2025-08-13_14h48.41.626,empathy_intonation_perc,2024.2.4,Linux x86_64,59.88023952,5611f6dd7ffc8a00058117e7,687ed1b7e638a4cbf2f02089,689d0708ed6da857ff7b77d7,,,,,,,,,,,,,,0,,./stim/wavs/andalusian_statement_filler_Alberto-nunca-se-afeita.wav,,,,,,,,,213.7919,219.0234,0,1,4.7088,,0,2,2,5,1,,,,,,,,,,,,,,,,,,,,,,,,,,,,,,,,,,,,,,,,,,,,,,,,,,,,,,,,,,,,,,,,,,,,,,,
,,,,,,,,,5611f6dd7ffc8a00058117e7,Mexican,younger than 13,"no, only English or Spanish",no,2025-08-13_14h48.41.626,empathy_intonation_perc,2024.2.4,Linux x86_64,59.88023952,5611f6dd7ffc8a00058117e7,687ed1b7e638a4cbf2f02089,689d0708ed6da857ff7b77d7,,,,,,,,,,,,,,0,,./stim/wavs/peruvian_statement_filler_El-nino-habla-con-su-madre.wav,,,,,,,,,219.0253,222.3568,1,0,2.8035,,0,3,3,6,1,,,,,,,,,,,,,,,,,,,,,,,,,,,,,,,,,,,,,,,,,,,,,,,,,,,,,,,,,,,,,,,,,,,,,,,
,,,,,,,,,5611f6dd7ffc8a00058117e7,Mexican,younger than 13,"no, only English or Spanish",no,2025-08-13_14h48.41.626,empathy_intonation_perc,2024.2.4,Linux x86_64,59.88023952,5611f6dd7ffc8a00058117e7,687ed1b7e638a4cbf2f02089,689d0708ed6da857ff7b77d7,,,,,,,,,,,,,,1,,./stim/wavs/chilean_question_filler_Mi-padre-cantaba-bien.wav,,,,,,,,,222.358,225.0899,0,0,2.2056,,0,4,4,2,1,,,,,,,,,,,,,,,,,,,,,,,,,,,,,,,,,,,,,,,,,,,,,,,,,,,,,,,,,,,,,,,,,,,,,,,
,,,,,,,,,5611f6dd7ffc8a00058117e7,Mexican,younger than 13,"no, only English or Spanish",no,2025-08-13_14h48.41.626,empathy_intonation_perc,2024.2.4,Linux x86_64,59.88023952,5611f6dd7ffc8a00058117e7,687ed1b7e638a4cbf2f02089,689d0708ed6da857ff7b77d7,,,,,,,,,,,,,,0,,./stim/wavs/puertorican_statement_filler_La-nina-pinta-con-su-amiga.wav,,,,,,,,,225.0916,227.7401,0,1,2.1168,,0,5,5,7,1,,,,,,,,,,,,,,,,,,,,,,,,,,,,,,,,,,,,,,,,,,,,,,,,,,,,,,,,,,,,,,,,,,,,,,,
,,,,,,,,,5611f6dd7ffc8a00058117e7,Mexican,younger than 13,"no, only English or Spanish",no,2025-08-13_14h48.41.626,empathy_intonation_perc,2024.2.4,Linux x86_64,59.88023952,5611f6dd7ffc8a00058117e7,687ed1b7e638a4cbf2f02089,689d0708ed6da857ff7b77d7,,,,,,,,,,,,,,0,,./stim/wavs/cuban_statement_filler_Cocinabas-por-la-noche.wav,,,,,,,,,227.7426,230.7403,0,1,2.4674,,0,6,6,4,1,,,,,,,,,,,,,,,,,,,,,,,,,,,,,,,,,,,,,,,,,,,,,,,,,,,,,,,,,,,,,,,,,,,,,,,
,,,,,,,,,5611f6dd7ffc8a00058117e7,Mexican,younger than 13,"no, only English or Spanish",no,2025-08-13_14h48.41.626,empathy_intonation_perc,2024.2.4,Linux x86_64,59.88023952,5611f6dd7ffc8a00058117e7,687ed1b7e638a4cbf2f02089,689d0708ed6da857ff7b77d7,,,,,,,,,,,,,,1,,./stim/wavs/argentine_question_filler_Mi-vecino-habla-mucho.wav,,,,,,,,,230.7415,233.1906,1,1,1.9271,,0,7,7,1,1,,,,,,,,,,,,,,,,,,,,,,,,,,,,,,,,,,,,,,,,,,,,,,,,,,,,,,,,,,,,,,,,,,,,,,,
,,,,,,,,,5611f6dd7ffc8a00058117e7,Mexican,younger than 13,"no, only English or Spanish",no,2025-08-13_14h48.41.626,empathy_intonation_perc,2024.2.4,Linux x86_64,59.88023952,5611f6dd7ffc8a00058117e7,687ed1b7e638a4cbf2f02089,689d0708ed6da857ff7b77d7,,,,,,,,,,,,,,,,,,,,,,,,,,,,,,,,,,,,233.1915,244.6737,,,,,,,,,,,,,,,,,,,,,,,,,,,,,,,,,,,,,,,,,,,,,,,,,,,,,,,,,,,,,,,,,,,,,
,,,,,,,,,5611f6dd7ffc8a00058117e7,Mexican,younger than 13,"no, only English or Spanish",no,2025-08-13_14h48.41.626,empathy_intonation_perc,2024.2.4,Linux x86_64,59.88023952,5611f6dd7ffc8a00058117e7,687ed1b7e638a4cbf2f02089,689d0708ed6da857ff7b77d7,,,,,,,,,,,,,60,0,,./stim/wavs/mexican_match_declarative-broad-focus_Emilio-ama-la-marcha.wav,,,,,,,,,,,,,,,,,,,,,,244.6921,247.8406,0,1,2.6161,,0,0,0,59,1,0,mexican,,,,,,,,,,,,,,,,,,,,,,,,,,,,,,,,,,,,,,,,,,,,,,,,,,,,,,,,
,,,,,,,,,5611f6dd7ffc8a00058117e7,Mexican,younger than 13,"no, only English or Spanish",no,2025-08-13_14h48.41.626,empathy_intonation_perc,2024.2.4,Linux x86_64,59.88023952,5611f6dd7ffc8a00058117e7,687ed1b7e638a4cbf2f02089,689d0708ed6da857ff7b77d7,,,,,,,,,,,,,36,1,,./stim/wavs/mexican_mismatch_interrogative-total-yn_El-nino-oye-el-rio.wav,,,,,,,,,,,,,,,,,,,,,,247.8426,250.3067,1,1,1.9344,,0,1,1,35,1,0,mexican,,,,,,,,,,,,,,,,,,,,,,,,,,,,,,,,,,,,,,,,,,,,,,,,,,,,,,,,
,,,,,,,,,5611f6dd7ffc8a00058117e7,Mexican,younger than 13,"no, only English or Spanish",no,2025-08-13_14h48.41.626,empathy_intonation_perc,2024.2.4,Linux x86_64,59.88023952,5611f6dd7ffc8a00058117e7,687ed1b7e638a4cbf2f02089,689d0708ed6da857ff7b77d7,,,,,,,,,,,,,37,1,,./stim/wavs/mexican_mismatch_interrogative-total-yn_La-maestra-vive-en-Paris.wav,,,,,,,,,,,,,,,,,,,,,,250.3083,252.9065,1,1,2.0679,,0,2,2,36,1,0,mexican,,,,,,,,,,,,,,,,,,,,,,,,,,,,,,,,,,,,,,,,,,,,,,,,,,,,,,,,
,,,,,,,,,5611f6dd7ffc8a00058117e7,Mexican,younger than 13,"no, only English or Spanish",no,2025-08-13_14h48.41.626,empathy_intonation_perc,2024.2.4,Linux x86_64,59.88023952,5611f6dd7ffc8a00058117e7,687ed1b7e638a4cbf2f02089,689d0708ed6da857ff7b77d7,,,,,,,,,,,,,11,1,,./stim/wavs/cuban_match_interrogative-total-yn_Mariano-habla-del-tiempo.wav,,,,,,,,,,,,,,,,,,,,,,252.9077,256.2401,0,0,2.8014,,0,3,3,10,1,1,cuban,,,,,,,,,,,,,,,,,,,,,,,,,,,,,,,,,,,,,,,,,,,,,,,,,,,,,,,,
,,,,,,,,,5611f6dd7ffc8a00058117e7,Mexican,younger than 13,"no, only English or Spanish",no,2025-08-13_14h48.41.626,empathy_intonation_perc,2024.2.4,Linux x86_64,59.88023952,5611f6dd7ffc8a00058117e7,687ed1b7e638a4cbf2f02089,689d0708ed6da857ff7b77d7,,,,,,,,,,,,,12,1,,./stim/wavs/cuban_match_interrogative-total-yn_Marta-abre-el-regalo.wav,,,,,,,,,,,,,,,,,,,,,,256.2412,258.9402,0,0,2.1674,,0,4,4,11,1,1,cuban,,,,,,,,,,,,,,,,,,,,,,,,,,,,,,,,,,,,,,,,,,,,,,,,,,,,,,,,
,,,,,,,,,5611f6dd7ffc8a00058117e7,Mexican,younger than 13,"no, only English or Spanish",no,2025-08-13_14h48.41.626,empathy_intonation_perc,2024.2.4,Linux x86_64,59.88023952,5611f6dd7ffc8a00058117e7,687ed1b7e638a4cbf2f02089,689d0708ed6da857ff7b77d7,,,,,,,,,,,,,69,0,,./stim/wavs/castilian_mismatch_declarative-broad-focus_El-nino-oye-el-rio.wav,,,,,,,,,,,,,,,,,,,,,,258.9414,261.5747,1,0,2.1109,,0,5,5,68,1,0,castilian,,,,,,,,,,,,,,,,,,,,,,,,,,,,,,,,,,,,,,,,,,,,,,,,,,,,,,,,
,,,,,,,,,5611f6dd7ffc8a00058117e7,Mexican,younger than 13,"no, only English or Spanish",no,2025-08-13_14h48.41.626,empathy_intonation_perc,2024.2.4,Linux x86_64,59.88023952,5611f6dd7ffc8a00058117e7,687ed1b7e638a4cbf2f02089,689d0708ed6da857ff7b77d7,,,,,,,,,,,,,53,0,,./stim/wavs/cuban_match_declarative-broad-focus_Manuela-vende-el-carro.wav,,,,,,,,,,,,,,,,,,,,,,261.5763,264.2401,0,1,2.1335,,0,6,6,52,1,0,cuban,,,,,,,,,,,,,,,,,,,,,,,,,,,,,,,,,,,,,,,,,,,,,,,,,,,,,,,,
,,,,,,,,,5611f6dd7ffc8a00058117e7,Mexican,younger than 13,"no, only English or Spanish",no,2025-08-13_14h48.41.626,empathy_intonation_perc,2024.2.4,Linux x86_64,59.88023952,5611f6dd7ffc8a00058117e7,687ed1b7e638a4cbf2f02089,689d0708ed6da857ff7b77d7,,,,,,,,,,,,,56,0,,./stim/wavs/cuban_match_declarative-broad-focus_Marta-abre-el-regalo.wav,,,,,,,,,,,,,,,,,,,,,,264.2417,266.8731,0,1,2.1079,,0,7,7,55,1,0,cuban,,,,,,,,,,,,,,,,,,,,,,,,,,,,,,,,,,,,,,,,,,,,,,,,,,,,,,,,
,,,,,,,,,5611f6dd7ffc8a00058117e7,Mexican,younger than 13,"no, only English or Spanish",no,2025-08-13_14h48.41.626,empathy_intonation_perc,2024.2.4,Linux x86_64,59.88023952,5611f6dd7ffc8a00058117e7,687ed1b7e638a4cbf2f02089,689d0708ed6da857ff7b77d7,,,,,,,,,,,,,8,1,,./stim/wavs/cuban_match_interrogative-total-yn_Daniel-iba-a-Bolivia.wav,,,,,,,,,,,,,,,,,,,,,,266.8742,269.5743,0,0,2.1769,,0,8,8,7,1,1,cuban,,,,,,,,,,,,,,,,,,,,,,,,,,,,,,,,,,,,,,,,,,,,,,,,,,,,,,,,
,,,,,,,,,5611f6dd7ffc8a00058117e7,Mexican,younger than 13,"no, only English or Spanish",no,2025-08-13_14h48.41.626,empathy_intonation_perc,2024.2.4,Linux x86_64,59.88023952,5611f6dd7ffc8a00058117e7,687ed1b7e638a4cbf2f02089,689d0708ed6da857ff7b77d7,,,,,,,,,,,,,26,1,,./stim/wavs/castilian_mismatch_interrogative-total-yn_La-nina-lava-el-plato.wav,,,,,,,,,,,,,,,,,,,,,,269.5758,272.29,1,1,2.1836,,0,9,9,25,1,0,castilian,,,,,,,,,,,,,,,,,,,,,,,,,,,,,,,,,,,,,,,,,,,,,,,,,,,,,,,,
,,,,,,,,,5611f6dd7ffc8a00058117e7,Mexican,younger than 13,"no, only English or Spanish",no,2025-08-13_14h48.41.626,empathy_intonation_perc,2024.2.4,Linux x86_64,59.88023952,5611f6dd7ffc8a00058117e7,687ed1b7e638a4cbf2f02089,689d0708ed6da857ff7b77d7,,,,,,,,,,,,,61,0,,./stim/wavs/mexican_match_declarative-broad-focus_Mariano-habla-del-tiempo.wav,,,,,,,,,,,,,,,,,,,,,,272.2916,275.1902,1,0,2.368,,0,10,10,60,1,0,mexican,,,,,,,,,,,,,,,,,,,,,,,,,,,,,,,,,,,,,,,,,,,,,,,,,,,,,,,,
,,,,,,,,,5611f6dd7ffc8a00058117e7,Mexican,younger than 13,"no, only English or Spanish",no,2025-08-13_14h48.41.626,empathy_intonation_perc,2024.2.4,Linux x86_64,59.88023952,5611f6dd7ffc8a00058117e7,687ed1b7e638a4cbf2f02089,689d0708ed6da857ff7b77d7,,,,,,,,,,,,,71,0,,./stim/wavs/castilian_mismatch_declarative-broad-focus_La-nina-lava-el-plato.wav,,,,,,,,,,,,,,,,,,,,,,275.1919,278.04,0,1,2.318,,0,11,11,70,1,0,castilian,,,,,,,,,,,,,,,,,,,,,,,,,,,,,,,,,,,,,,,,,,,,,,,,,,,,,,,,
,,,,,,,,,5611f6dd7ffc8a00058117e7,Mexican,younger than 13,"no, only English or Spanish",no,2025-08-13_14h48.41.626,empathy_intonation_perc,2024.2.4,Linux x86_64,59.88023952,5611f6dd7ffc8a00058117e7,687ed1b7e638a4cbf2f02089,689d0708ed6da857ff7b77d7,,,,,,,,,,,,,67,0,,./stim/wavs/puertorican_match_declarative-broad-focus_Manuela-vende-el-carro.wav,,,,,,,,,,,,,,,,,,,,,,278.0421,281.1399,0,1,2.5711,,0,12,12,66,1,0,puertorican,,,,,,,,,,,,,,,,,,,,,,,,,,,,,,,,,,,,,,,,,,,,,,,,,,,,,,,,
,,,,,,,,,5611f6dd7ffc8a00058117e7,Mexican,younger than 13,"no, only English or Spanish",no,2025-08-13_14h48.41.626,empathy_intonation_perc,2024.2.4,Linux x86_64,59.88023952,5611f6dd7ffc8a00058117e7,687ed1b7e638a4cbf2f02089,689d0708ed6da857ff7b77d7,,,,,,,,,,,,,70,0,,./stim/wavs/castilian_mismatch_declarative-broad-focus_La-maestra-vive-en-Paris.wav,,,,,,,,,,,,,,,,,,,,,,281.1414,284.3567,1,0,2.6835,,0,13,13,69,1,0,castilian,,,,,,,,,,,,,,,,,,,,,,,,,,,,,,,,,,,,,,,,,,,,,,,,,,,,,,,,
,,,,,,,,,5611f6dd7ffc8a00058117e7,Mexican,younger than 13,"no, only English or Spanish",no,2025-08-13_14h48.41.626,empathy_intonation_perc,2024.2.4,Linux x86_64,59.88023952,5611f6dd7ffc8a00058117e7,687ed1b7e638a4cbf2f02089,689d0708ed6da857ff7b77d7,,,,,,,,,,,,,13,1,,./stim/wavs/mexican_match_interrogative-total-yn_Ana-lleva-el-abrigo.wav,,,,,,,,,,,,,,,,,,,,,,284.3583,286.8232,1,1,1.9418,,0,14,14,12,1,0,mexican,,,,,,,,,,,,,,,,,,,,,,,,,,,,,,,,,,,,,,,,,,,,,,,,,,,,,,,,
,,,,,,,,,5611f6dd7ffc8a00058117e7,Mexican,younger than 13,"no, only English or Spanish",no,2025-08-13_14h48.41.626,empathy_intonation_perc,2024.2.4,Linux x86_64,59.88023952,5611f6dd7ffc8a00058117e7,687ed1b7e638a4cbf2f02089,689d0708ed6da857ff7b77d7,,,,,,,,,,,,,10,1,,./stim/wavs/cuban_match_interrogative-total-yn_Maria-bebe-el-vino.wav,,,,,,,,,,,,,,,,,,,,,,286.8244,290.0232,0,0,2.6764,,0,15,15,9,1,1,cuban,,,,,,,,,,,,,,,,,,,,,,,,,,,,,,,,,,,,,,,,,,,,,,,,,,,,,,,,
,,,,,,,,,5611f6dd7ffc8a00058117e7,Mexican,younger than 13,"no, only English or Spanish",no,2025-08-13_14h48.41.626,empathy_intonation_perc,2024.2.4,Linux x86_64,59.88023952,5611f6dd7ffc8a00058117e7,687ed1b7e638a4cbf2f02089,689d0708ed6da857ff7b77d7,,,,,,,,,,,,,66,0,,./stim/wavs/puertorican_match_declarative-broad-focus_Emilio-ama-la-marcha.wav,,,,,,,,,,,,,,,,,,,,,,290.0244,293.09,0,1,2.5393,,0,16,16,65,1,0,puertorican,,,,,,,,,,,,,,,,,,,,,,,,,,,,,,,,,,,,,,,,,,,,,,,,,,,,,,,,
,,,,,,,,,5611f6dd7ffc8a00058117e7,Mexican,younger than 13,"no, only English or Spanish",no,2025-08-13_14h48.41.626,empathy_intonation_perc,2024.2.4,Linux x86_64,59.88023952,5611f6dd7ffc8a00058117e7,687ed1b7e638a4cbf2f02089,689d0708ed6da857ff7b77d7,,,,,,,,,,,,,79,0,,./stim/wavs/mexican_mismatch_declarative-broad-focus_El-bebe-comia-muy-bien.wav,,,,,,,,,,,,,,,,,,,,,,293.0917,296.3734,1,0,2.7524,,0,17,17,78,1,0,mexican,,,,,,,,,,,,,,,,,,,,,,,,,,,,,,,,,,,,,,,,,,,,,,,,,,,,,,,,
,,,,,,,,,5611f6dd7ffc8a00058117e7,Mexican,younger than 13,"no, only English or Spanish",no,2025-08-13_14h48.41.626,empathy_intonation_perc,2024.2.4,Linux x86_64,59.88023952,5611f6dd7ffc8a00058117e7,687ed1b7e638a4cbf2f02089,689d0708ed6da857ff7b77d7,,,,,,,,,,,,,4,1,,./stim/wavs/castilian_match_interrogative-total-yn_Maria-bebe-el-vino.wav,,,,,,,,,,,,,,,,,,,,,,296.3749,299.1745,1,1,2.2774,,0,18,18,3,1,0,castilian,,,,,,,,,,,,,,,,,,,,,,,,,,,,,,,,,,,,,,,,,,,,,,,,,,,,,,,,
,,,,,,,,,5611f6dd7ffc8a00058117e7,Mexican,younger than 13,"no, only English or Spanish",no,2025-08-13_14h48.41.626,empathy_intonation_perc,2024.2.4,Linux x86_64,59.88023952,5611f6dd7ffc8a00058117e7,687ed1b7e638a4cbf2f02089,689d0708ed6da857ff7b77d7,,,,,,,,,,,,,44,1,,./stim/wavs/puertorican_mismatch_interrogative-total-yn_Mi-madre-come-la-fruta.wav,,,,,,,,,,,,,,,,,,,,,,299.1765,301.7901,0,0,2.0863,,0,19,19,43,1,1,puertorican,,,,,,,,,,,,,,,,,,,,,,,,,,,,,,,,,,,,,,,,,,,,,,,,,,,,,,,,
,,,,,,,,,5611f6dd7ffc8a00058117e7,Mexican,younger than 13,"no, only English or Spanish",no,2025-08-13_14h48.41.626,empathy_intonation_perc,2024.2.4,Linux x86_64,59.88023952,5611f6dd7ffc8a00058117e7,687ed1b7e638a4cbf2f02089,689d0708ed6da857ff7b77d7,,,,,,,,,,,,,3,1,,./stim/wavs/castilian_match_interrogative-total-yn_Manuela-vende-el-carro.wav,,,,,,,,,,,,,,,,,,,,,,301.7913,304.6233,1,1,2.3011,,0,20,20,2,1,0,castilian,,,,,,,,,,,,,,,,,,,,,,,,,,,,,,,,,,,,,,,,,,,,,,,,,,,,,,,,
,,,,,,,,,5611f6dd7ffc8a00058117e7,Mexican,younger than 13,"no, only English or Spanish",no,2025-08-13_14h48.41.626,empathy_intonation_perc,2024.2.4,Linux x86_64,59.88023952,5611f6dd7ffc8a00058117e7,687ed1b7e638a4cbf2f02089,689d0708ed6da857ff7b77d7,,,,,,,,,,,,,14,1,,./stim/wavs/mexican_match_interrogative-total-yn_Daniel-iba-a-Bolivia.wav,,,,,,,,,,,,,,,,,,,,,,304.6249,307.59,0,0,2.4343,,0,21,21,13,1,0,mexican,,,,,,,,,,,,,,,,,,,,,,,,,,,,,,,,,,,,,,,,,,,,,,,,,,,,,,,,
,,,,,,,,,5611f6dd7ffc8a00058117e7,Mexican,younger than 13,"no, only English or Spanish",no,2025-08-13_14h48.41.626,empathy_intonation_perc,2024.2.4,Linux x86_64,59.88023952,5611f6dd7ffc8a00058117e7,687ed1b7e638a4cbf2f02089,689d0708ed6da857ff7b77d7,,,,,,,,,,,,,16,1,,./stim/wavs/mexican_match_interrogative-total-yn_Emilio-ama-la-marcha.wav,,,,,,,,,,,,,,,,,,,,,,307.5916,310.6568,1,1,2.5408,,0,22,22,15,1,0,mexican,,,,,,,,,,,,,,,,,,,,,,,,,,,,,,,,,,,,,,,,,,,,,,,,,,,,,,,,
,,,,,,,,,5611f6dd7ffc8a00058117e7,Mexican,younger than 13,"no, only English or Spanish",no,2025-08-13_14h48.41.626,empathy_intonation_perc,2024.2.4,Linux x86_64,59.88023952,5611f6dd7ffc8a00058117e7,687ed1b7e638a4cbf2f02089,689d0708ed6da857ff7b77d7,,,,,,,,,,,,,88,0,,./stim/wavs/puertorican_mismatch_declarative-broad-focus_La-nina-lava-el-plato.wav,,,,,,,,,,,,,,,,,,,,,,310.6579,313.3399,0,1,2.15,,0,23,23,87,1,0,puertorican,,,,,,,,,,,,,,,,,,,,,,,,,,,,,,,,,,,,,,,,,,,,,,,,,,,,,,,,
,,,,,,,,,5611f6dd7ffc8a00058117e7,Mexican,younger than 13,"no, only English or Spanish",no,2025-08-13_14h48.41.626,empathy_intonation_perc,2024.2.4,Linux x86_64,59.88023952,5611f6dd7ffc8a00058117e7,687ed1b7e638a4cbf2f02089,689d0708ed6da857ff7b77d7,,,,,,,,,,,,,58,0,,./stim/wavs/mexican_match_declarative-broad-focus_Daniel-iba-a-Bolivia.wav,,,,,,,,,,,,,,,,,,,,,,313.341,315.9402,0,1,2.0676,,0,24,24,57,1,0,mexican,,,,,,,,,,,,,,,,,,,,,,,,,,,,,,,,,,,,,,,,,,,,,,,,,,,,,,,,
,,,,,,,,,5611f6dd7ffc8a00058117e7,Mexican,younger than 13,"no, only English or Spanish",no,2025-08-13_14h48.41.626,empathy_intonation_perc,2024.2.4,Linux x86_64,59.88023952,5611f6dd7ffc8a00058117e7,687ed1b7e638a4cbf2f02089,689d0708ed6da857ff7b77d7,,,,,,,,,,,,,80,0,,./stim/wavs/mexican_mismatch_declarative-broad-focus_El-hombre-mira-la-luna.wav,,,,,,,,,,,,,,,,,,,,,,315.9417,318.3567,0,1,1.8869,,0,25,25,79,1,0,mexican,,,,,,,,,,,,,,,,,,,,,,,,,,,,,,,,,,,,,,,,,,,,,,,,,,,,,,,,
,,,,,,,,,5611f6dd7ffc8a00058117e7,Mexican,younger than 13,"no, only English or Spanish",no,2025-08-13_14h48.41.626,empathy_intonation_perc,2024.2.4,Linux x86_64,59.88023952,5611f6dd7ffc8a00058117e7,687ed1b7e638a4cbf2f02089,689d0708ed6da857ff7b77d7,,,,,,,,,,,,,30,1,,./stim/wavs/cuban_mismatch_interrogative-total-yn_El-hombre-mira-la-luna.wav,,,,,,,,,,,,,,,,,,,,,,318.3583,320.6568,0,0,1.7668,,0,26,26,29,1,1,cuban,,,,,,,,,,,,,,,,,,,,,,,,,,,,,,,,,,,,,,,,,,,,,,,,,,,,,,,,
,,,,,,,,,5611f6dd7ffc8a00058117e7,Mexican,younger than 13,"no, only English or Spanish",no,2025-08-13_14h48.41.626,empathy_intonation_perc,2024.2.4,Linux x86_64,59.88023952,5611f6dd7ffc8a00058117e7,687ed1b7e638a4cbf2f02089,689d0708ed6da857ff7b77d7,,,,,,,,,,,,,76,0,,./stim/wavs/cuban_mismatch_declarative-broad-focus_La-nina-lava-el-plato.wav,,,,,,,,,,,,,,,,,,,,,,320.6579,323.4568,0,1,2.2679,,0,27,27,75,1,0,cuban,,,,,,,,,,,,,,,,,,,,,,,,,,,,,,,,,,,,,,,,,,,,,,,,,,,,,,,,
,,,,,,,,,5611f6dd7ffc8a00058117e7,Mexican,younger than 13,"no, only English or Spanish",no,2025-08-13_14h48.41.626,empathy_intonation_perc,2024.2.4,Linux x86_64,59.88023952,5611f6dd7ffc8a00058117e7,687ed1b7e638a4cbf2f02089,689d0708ed6da857ff7b77d7,,,,,,,,,,,,,47,0,,./stim/wavs/castilian_match_declarative-broad-focus_Manuela-vende-el-carro.wav,,,,,,,,,,,,,,,,,,,,,,323.4579,326.44,0,1,2.4585,,0,28,28,46,1,0,castilian,,,,,,,,,,,,,,,,,,,,,,,,,,,,,,,,,,,,,,,,,,,,,,,,,,,,,,,,
,,,,,,,,,5611f6dd7ffc8a00058117e7,Mexican,younger than 13,"no, only English or Spanish",no,2025-08-13_14h48.41.626,empathy_intonation_perc,2024.2.4,Linux x86_64,59.88023952,5611f6dd7ffc8a00058117e7,687ed1b7e638a4cbf2f02089,689d0708ed6da857ff7b77d7,,,,,,,,,,,,,43,1,,./stim/wavs/puertorican_mismatch_interrogative-total-yn_La-nina-lava-el-plato.wav,,,,,,,,,,,,,,,,,,,,,,326.4419,328.9066,0,0,1.9385,,0,29,29,42,1,1,puertorican,,,,,,,,,,,,,,,,,,,,,,,,,,,,,,,,,,,,,,,,,,,,,,,,,,,,,,,,
,,,,,,,,,5611f6dd7ffc8a00058117e7,Mexican,younger than 13,"no, only English or Spanish",no,2025-08-13_14h48.41.626,empathy_intonation_perc,2024.2.4,Linux x86_64,59.88023952,5611f6dd7ffc8a00058117e7,687ed1b7e638a4cbf2f02089,689d0708ed6da857ff7b77d7,,,,,,,,,,,,,51,0,,./stim/wavs/cuban_match_declarative-broad-focus_Ana-lleva-el-abrigo.wav,,,,,,,,,,,,,,,,,,,,,,328.9084,331.4402,0,1,2.008,,0,30,30,50,1,0,cuban,,,,,,,,,,,,,,,,,,,,,,,,,,,,,,,,,,,,,,,,,,,,,,,,,,,,,,,,
,,,,,,,,,5611f6dd7ffc8a00058117e7,Mexican,younger than 13,"no, only English or Spanish",no,2025-08-13_14h48.41.626,empathy_intonation_perc,2024.2.4,Linux x86_64,59.88023952,5611f6dd7ffc8a00058117e7,687ed1b7e638a4cbf2f02089,689d0708ed6da857ff7b77d7,,,,,,,,,,,,,74,0,,./stim/wavs/cuban_mismatch_declarative-broad-focus_El-bebe-comia-muy-bien.wav,,,,,,,,,,,,,,,,,,,,,,331.4417,334.0233,0,1,2.0511,,0,31,31,73,1,0,cuban,,,,,,,,,,,,,,,,,,,,,,,,,,,,,,,,,,,,,,,,,,,,,,,,,,,,,,,,
,,,,,,,,,5611f6dd7ffc8a00058117e7,Mexican,younger than 13,"no, only English or Spanish",no,2025-08-13_14h48.41.626,empathy_intonation_perc,2024.2.4,Linux x86_64,59.88023952,5611f6dd7ffc8a00058117e7,687ed1b7e638a4cbf2f02089,689d0708ed6da857ff7b77d7,,,,,,,,,,,,,72,0,,./stim/wavs/castilian_mismatch_declarative-broad-focus_Mi-novio-viene-del-lago.wav,,,,,,,,,,,,,,,,,,,,,,334.0244,336.74,0,1,2.1871,,0,32,32,71,1,0,castilian,,,,,,,,,,,,,,,,,,,,,,,,,,,,,,,,,,,,,,,,,,,,,,,,,,,,,,,,
,,,,,,,,,5611f6dd7ffc8a00058117e7,Mexican,younger than 13,"no, only English or Spanish",no,2025-08-13_14h48.41.626,empathy_intonation_perc,2024.2.4,Linux x86_64,59.88023952,5611f6dd7ffc8a00058117e7,687ed1b7e638a4cbf2f02089,689d0708ed6da857ff7b77d7,,,,,,,,,,,,,52,0,,./stim/wavs/cuban_match_declarative-broad-focus_Daniel-iba-a-Bolivia.wav,,,,,,,,,,,,,,,,,,,,,,336.7418,341.1067,0,1,3.8339,,0,33,33,51,1,0,cuban,,,,,,,,,,,,,,,,,,,,,,,,,,,,,,,,,,,,,,,,,,,,,,,,,,,,,,,,
,,,,,,,,,5611f6dd7ffc8a00058117e7,Mexican,younger than 13,"no, only English or Spanish",no,2025-08-13_14h48.41.626,empathy_intonation_perc,2024.2.4,Linux x86_64,59.88023952,5611f6dd7ffc8a00058117e7,687ed1b7e638a4cbf2f02089,689d0708ed6da857ff7b77d7,,,,,,,,,,,,,15,1,,./stim/wavs/mexican_match_interrogative-total-yn_David-leia-el-libro.wav,,,,,,,,,,,,,,,,,,,,,,341.1089,347.3233,0,0,5.6841,,0,34,34,14,1,0,mexican,,,,,,,,,,,,,,,,,,,,,,,,,,,,,,,,,,,,,,,,,,,,,,,,,,,,,,,,
,,,,,,,,,5611f6dd7ffc8a00058117e7,Mexican,younger than 13,"no, only English or Spanish",no,2025-08-13_14h48.41.626,empathy_intonation_perc,2024.2.4,Linux x86_64,59.88023952,5611f6dd7ffc8a00058117e7,687ed1b7e638a4cbf2f02089,689d0708ed6da857ff7b77d7,,,,,,,,,,,,,62,0,,./stim/wavs/mexican_match_declarative-broad-focus_Marta-abre-el-regalo.wav,,,,,,,,,,,,,,,,,,,,,,347.3248,350.4566,0,1,2.6073,,0,35,35,61,1,0,mexican,,,,,,,,,,,,,,,,,,,,,,,,,,,,,,,,,,,,,,,,,,,,,,,,,,,,,,,,
,,,,,,,,,5611f6dd7ffc8a00058117e7,Mexican,younger than 13,"no, only English or Spanish",no,2025-08-13_14h48.41.626,empathy_intonation_perc,2024.2.4,Linux x86_64,59.88023952,5611f6dd7ffc8a00058117e7,687ed1b7e638a4cbf2f02089,689d0708ed6da857ff7b77d7,,,,,,,,,,,,,28,1,,./stim/wavs/castilian_mismatch_interrogative-total-yn_Mi-novio-viene-del-lago.wav,,,,,,,,,,,,,,,,,,,,,,350.4584,353.1902,0,0,2.2019,,0,36,36,27,1,0,castilian,,,,,,,,,,,,,,,,,,,,,,,,,,,,,,,,,,,,,,,,,,,,,,,,,,,,,,,,
,,,,,,,,,5611f6dd7ffc8a00058117e7,Mexican,younger than 13,"no, only English or Spanish",no,2025-08-13_14h48.41.626,empathy_intonation_perc,2024.2.4,Linux x86_64,59.88023952,5611f6dd7ffc8a00058117e7,687ed1b7e638a4cbf2f02089,689d0708ed6da857ff7b77d7,,,,,,,,,,,,,64,0,,./stim/wavs/puertorican_match_declarative-broad-focus_Daniel-iba-a-Bolivia.wav,,,,,,,,,,,,,,,,,,,,,,353.1917,355.7733,0,1,2.0498,,0,37,37,63,1,0,puertorican,,,,,,,,,,,,,,,,,,,,,,,,,,,,,,,,,,,,,,,,,,,,,,,,,,,,,,,,
,,,,,,,,,5611f6dd7ffc8a00058117e7,Mexican,younger than 13,"no, only English or Spanish",no,2025-08-13_14h48.41.626,empathy_intonation_perc,2024.2.4,Linux x86_64,59.88023952,5611f6dd7ffc8a00058117e7,687ed1b7e638a4cbf2f02089,689d0708ed6da857ff7b77d7,,,,,,,,,,,,,57,0,,./stim/wavs/mexican_match_declarative-broad-focus_Ana-lleva-el-abrigo.wav,,,,,,,,,,,,,,,,,,,,,,355.7756,358.2071,0,1,1.9023,,0,38,38,56,1,0,mexican,,,,,,,,,,,,,,,,,,,,,,,,,,,,,,,,,,,,,,,,,,,,,,,,,,,,,,,,
,,,,,,,,,5611f6dd7ffc8a00058117e7,Mexican,younger than 13,"no, only English or Spanish",no,2025-08-13_14h48.41.626,empathy_intonation_perc,2024.2.4,Linux x86_64,59.88023952,5611f6dd7ffc8a00058117e7,687ed1b7e638a4cbf2f02089,689d0708ed6da857ff7b77d7,,,,,,,,,,,,,65,0,,./stim/wavs/puertorican_match_declarative-broad-focus_David-leia-el-libro.wav,,,,,,,,,,,,,,,,,,,,,,358.2087,360.6901,0,1,1.9506,,0,39,39,64,1,0,puertorican,,,,,,,,,,,,,,,,,,,,,,,,,,,,,,,,,,,,,,,,,,,,,,,,,,,,,,,,
,,,,,,,,,5611f6dd7ffc8a00058117e7,Mexican,younger than 13,"no, only English or Spanish",no,2025-08-13_14h48.41.626,empathy_intonation_perc,2024.2.4,Linux x86_64,59.88023952,5611f6dd7ffc8a00058117e7,687ed1b7e638a4cbf2f02089,689d0708ed6da857ff7b77d7,,,,,,,,,,,,,21,1,,./stim/wavs/puertorican_match_interrogative-total-yn_David-leia-el-libro.wav,,,,,,,,,,,,,,,,,,,,,,360.6918,363.2566,1,1,2.0344,,0,40,40,20,1,1,puertorican,,,,,,,,,,,,,,,,,,,,,,,,,,,,,,,,,,,,,,,,,,,,,,,,,,,,,,,,
,,,,,,,,,5611f6dd7ffc8a00058117e7,Mexican,younger than 13,"no, only English or Spanish",no,2025-08-13_14h48.41.626,empathy_intonation_perc,2024.2.4,Linux x86_64,59.88023952,5611f6dd7ffc8a00058117e7,687ed1b7e638a4cbf2f02089,689d0708ed6da857ff7b77d7,,,,,,,,,,,,,9,1,,./stim/wavs/cuban_match_interrogative-total-yn_Manuela-vende-el-carro.wav,,,,,,,,,,,,,,,,,,,,,,363.2577,365.4234,0,0,1.6338,,0,41,41,8,1,1,cuban,,,,,,,,,,,,,,,,,,,,,,,,,,,,,,,,,,,,,,,,,,,,,,,,,,,,,,,,
,,,,,,,,,5611f6dd7ffc8a00058117e7,Mexican,younger than 13,"no, only English or Spanish",no,2025-08-13_14h48.41.626,empathy_intonation_perc,2024.2.4,Linux x86_64,59.88023952,5611f6dd7ffc8a00058117e7,687ed1b7e638a4cbf2f02089,689d0708ed6da857ff7b77d7,,,,,,,,,,,,,2,1,,./stim/wavs/castilian_match_interrogative-total-yn_Emilio-ama-la-marcha.wav,,,,,,,,,,,,,,,,,,,,,,365.4249,368.1234,0,0,2.168,,0,42,42,1,1,0,castilian,,,,,,,,,,,,,,,,,,,,,,,,,,,,,,,,,,,,,,,,,,,,,,,,,,,,,,,,
,,,,,,,,,5611f6dd7ffc8a00058117e7,Mexican,younger than 13,"no, only English or Spanish",no,2025-08-13_14h48.41.626,empathy_intonation_perc,2024.2.4,Linux x86_64,59.88023952,5611f6dd7ffc8a00058117e7,687ed1b7e638a4cbf2f02089,689d0708ed6da857ff7b77d7,,,,,,,,,,,,,85,0,,./stim/wavs/puertorican_mismatch_declarative-broad-focus_El-hombre-mira-la-luna.wav,,,,,,,,,,,,,,,,,,,,,,368.1248,370.54,0,1,1.884,,0,43,43,84,1,0,puertorican,,,,,,,,,,,,,,,,,,,,,,,,,,,,,,,,,,,,,,,,,,,,,,,,,,,,,,,,
,,,,,,,,,5611f6dd7ffc8a00058117e7,Mexican,younger than 13,"no, only English or Spanish",no,2025-08-13_14h48.41.626,empathy_intonation_perc,2024.2.4,Linux x86_64,59.88023952,5611f6dd7ffc8a00058117e7,687ed1b7e638a4cbf2f02089,689d0708ed6da857ff7b77d7,,,,,,,,,,,,,6,1,,./stim/wavs/castilian_match_interrogative-total-yn_Marta-abre-el-regalo.wav,,,,,,,,,,,,,,,,,,,,,,370.5415,373.3232,1,1,2.2533,,0,44,44,5,1,0,castilian,,,,,,,,,,,,,,,,,,,,,,,,,,,,,,,,,,,,,,,,,,,,,,,,,,,,,,,,
,,,,,,,,,5611f6dd7ffc8a00058117e7,Mexican,younger than 13,"no, only English or Spanish",no,2025-08-13_14h48.41.626,empathy_intonation_perc,2024.2.4,Linux x86_64,59.88023952,5611f6dd7ffc8a00058117e7,687ed1b7e638a4cbf2f02089,689d0708ed6da857ff7b77d7,,,,,,,,,,,,,87,0,,./stim/wavs/puertorican_mismatch_declarative-broad-focus_La-maestra-vive-en-Paris.wav,,,,,,,,,,,,,,,,,,,,,,373.3247,376.3065,0,1,2.4548,,0,45,45,86,1,0,puertorican,,,,,,,,,,,,,,,,,,,,,,,,,,,,,,,,,,,,,,,,,,,,,,,,,,,,,,,,
,,,,,,,,,5611f6dd7ffc8a00058117e7,Mexican,younger than 13,"no, only English or Spanish",no,2025-08-13_14h48.41.626,empathy_intonation_perc,2024.2.4,Linux x86_64,59.88023952,5611f6dd7ffc8a00058117e7,687ed1b7e638a4cbf2f02089,689d0708ed6da857ff7b77d7,,,,,,,,,,,,,78,0,,./stim/wavs/cuban_mismatch_declarative-broad-focus_Mi-tia-odia-la-lluvia.wav,,,,,,,,,,,,,,,,,,,,,,376.3076,379.0068,0,1,2.1679,,0,46,46,77,1,0,cuban,,,,,,,,,,,,,,,,,,,,,,,,,,,,,,,,,,,,,,,,,,,,,,,,,,,,,,,,
,,,,,,,,,5611f6dd7ffc8a00058117e7,Mexican,younger than 13,"no, only English or Spanish",no,2025-08-13_14h48.41.626,empathy_intonation_perc,2024.2.4,Linux x86_64,59.88023952,5611f6dd7ffc8a00058117e7,687ed1b7e638a4cbf2f02089,689d0708ed6da857ff7b77d7,,,,,,,,,,,,,73,0,,./stim/wavs/castilian_mismatch_declarative-broad-focus_Mi-tia-odia-la-lluvia.wav,,,,,,,,,,,,,,,,,,,,,,379.0079,381.5232,0,1,1.9881,,0,47,47,72,1,0,castilian,,,,,,,,,,,,,,,,,,,,,,,,,,,,,,,,,,,,,,,,,,,,,,,,,,,,,,,,
,,,,,,,,,5611f6dd7ffc8a00058117e7,Mexican,younger than 13,"no, only English or Spanish",no,2025-08-13_14h48.41.626,empathy_intonation_perc,2024.2.4,Linux x86_64,59.88023952,5611f6dd7ffc8a00058117e7,687ed1b7e638a4cbf2f02089,689d0708ed6da857ff7b77d7,,,,,,,,,,,,,83,0,,./stim/wavs/mexican_mismatch_declarative-broad-focus_Mi-tia-odia-la-lluvia.wav,,,,,,,,,,,,,,,,,,,,,,381.5257,383.9733,0,1,1.919,,0,48,48,82,1,0,mexican,,,,,,,,,,,,,,,,,,,,,,,,,,,,,,,,,,,,,,,,,,,,,,,,,,,,,,,,
,,,,,,,,,5611f6dd7ffc8a00058117e7,Mexican,younger than 13,"no, only English or Spanish",no,2025-08-13_14h48.41.626,empathy_intonation_perc,2024.2.4,Linux x86_64,59.88023952,5611f6dd7ffc8a00058117e7,687ed1b7e638a4cbf2f02089,689d0708ed6da857ff7b77d7,,,,,,,,,,,,,7,1,,./stim/wavs/cuban_match_interrogative-total-yn_Ana-lleva-el-abrigo.wav,,,,,,,,,,,,,,,,,,,,,,383.9749,387.0072,1,1,2.5087,,0,49,49,6,1,1,cuban,,,,,,,,,,,,,,,,,,,,,,,,,,,,,,,,,,,,,,,,,,,,,,,,,,,,,,,,
,,,,,,,,,5611f6dd7ffc8a00058117e7,Mexican,younger than 13,"no, only English or Spanish",no,2025-08-13_14h48.41.626,empathy_intonation_perc,2024.2.4,Linux x86_64,59.88023952,5611f6dd7ffc8a00058117e7,687ed1b7e638a4cbf2f02089,689d0708ed6da857ff7b77d7,,,,,,,,,,,,,75,0,,./stim/wavs/cuban_mismatch_declarative-broad-focus_El-hombre-mira-la-luna.wav,,,,,,,,,,,,,,,,,,,,,,387.0085,389.2733,0,1,1.7339,,0,50,50,74,1,0,cuban,,,,,,,,,,,,,,,,,,,,,,,,,,,,,,,,,,,,,,,,,,,,,,,,,,,,,,,,
,,,,,,,,,5611f6dd7ffc8a00058117e7,Mexican,younger than 13,"no, only English or Spanish",no,2025-08-13_14h48.41.626,empathy_intonation_perc,2024.2.4,Linux x86_64,59.88023952,5611f6dd7ffc8a00058117e7,687ed1b7e638a4cbf2f02089,689d0708ed6da857ff7b77d7,,,,,,,,,,,,,24,1,,./stim/wavs/puertorican_match_interrogative-total-yn_Maria-bebe-el-vino.wav,,,,,,,,,,,,,,,,,,,,,,389.2748,391.8073,0,0,2.0018,,0,51,51,23,1,1,puertorican,,,,,,,,,,,,,,,,,,,,,,,,,,,,,,,,,,,,,,,,,,,,,,,,,,,,,,,,
,,,,,,,,,5611f6dd7ffc8a00058117e7,Mexican,younger than 13,"no, only English or Spanish",no,2025-08-13_14h48.41.626,empathy_intonation_perc,2024.2.4,Linux x86_64,59.88023952,5611f6dd7ffc8a00058117e7,687ed1b7e638a4cbf2f02089,689d0708ed6da857ff7b77d7,,,,,,,,,,,,,42,1,,./stim/wavs/puertorican_mismatch_interrogative-total-yn_La-maestra-vive-en-Paris.wav,,,,,,,,,,,,,,,,,,,,,,391.8092,394.2566,0,0,1.9178,,0,52,52,41,1,1,puertorican,,,,,,,,,,,,,,,,,,,,,,,,,,,,,,,,,,,,,,,,,,,,,,,,,,,,,,,,
,,,,,,,,,5611f6dd7ffc8a00058117e7,Mexican,younger than 13,"no, only English or Spanish",no,2025-08-13_14h48.41.626,empathy_intonation_perc,2024.2.4,Linux x86_64,59.88023952,5611f6dd7ffc8a00058117e7,687ed1b7e638a4cbf2f02089,689d0708ed6da857ff7b77d7,,,,,,,,,,,,,17,1,,./stim/wavs/mexican_match_interrogative-total-yn_Mariano-habla-del-tiempo.wav,,,,,,,,,,,,,,,,,,,,,,394.258,396.7399,0,0,1.9503,,0,53,53,16,1,0,mexican,,,,,,,,,,,,,,,,,,,,,,,,,,,,,,,,,,,,,,,,,,,,,,,,,,,,,,,,
,,,,,,,,,5611f6dd7ffc8a00058117e7,Mexican,younger than 13,"no, only English or Spanish",no,2025-08-13_14h48.41.626,empathy_intonation_perc,2024.2.4,Linux x86_64,59.88023952,5611f6dd7ffc8a00058117e7,687ed1b7e638a4cbf2f02089,689d0708ed6da857ff7b77d7,,,,,,,,,,,,,54,0,,./stim/wavs/cuban_match_declarative-broad-focus_Maria-bebe-el-vino.wav,,,,,,,,,,,,,,,,,,,,,,396.7414,399.5234,1,0,2.2536,,0,54,54,53,1,0,cuban,,,,,,,,,,,,,,,,,,,,,,,,,,,,,,,,,,,,,,,,,,,,,,,,,,,,,,,,
,,,,,,,,,5611f6dd7ffc8a00058117e7,Mexican,younger than 13,"no, only English or Spanish",no,2025-08-13_14h48.41.626,empathy_intonation_perc,2024.2.4,Linux x86_64,59.88023952,5611f6dd7ffc8a00058117e7,687ed1b7e638a4cbf2f02089,689d0708ed6da857ff7b77d7,,,,,,,,,,,,,27,1,,./stim/wavs/castilian_mismatch_interrogative-total-yn_Mi-madre-come-la-fruta.wav,,,,,,,,,,,,,,,,,,,,,,399.5249,402.8567,0,0,2.8011,,0,55,55,26,1,0,castilian,,,,,,,,,,,,,,,,,,,,,,,,,,,,,,,,,,,,,,,,,,,,,,,,,,,,,,,,
,,,,,,,,,5611f6dd7ffc8a00058117e7,Mexican,younger than 13,"no, only English or Spanish",no,2025-08-13_14h48.41.626,empathy_intonation_perc,2024.2.4,Linux x86_64,59.88023952,5611f6dd7ffc8a00058117e7,687ed1b7e638a4cbf2f02089,689d0708ed6da857ff7b77d7,,,,,,,,,,,,,22,1,,./stim/wavs/puertorican_match_interrogative-total-yn_Emilio-ama-la-marcha.wav,,,,,,,,,,,,,,,,,,,,,,402.8578,405.6737,0,0,2.2837,,0,56,56,21,1,1,puertorican,,,,,,,,,,,,,,,,,,,,,,,,,,,,,,,,,,,,,,,,,,,,,,,,,,,,,,,,
,,,,,,,,,5611f6dd7ffc8a00058117e7,Mexican,younger than 13,"no, only English or Spanish",no,2025-08-13_14h48.41.626,empathy_intonation_perc,2024.2.4,Linux x86_64,59.88023952,5611f6dd7ffc8a00058117e7,687ed1b7e638a4cbf2f02089,689d0708ed6da857ff7b77d7,,,,,,,,,,,,,46,0,,./stim/wavs/castilian_match_declarative-broad-focus_Emilio-ama-la-marcha.wav,,,,,,,,,,,,,,,,,,,,,,405.6752,408.4568,0,1,2.2577,,0,57,57,45,1,0,castilian,,,,,,,,,,,,,,,,,,,,,,,,,,,,,,,,,,,,,,,,,,,,,,,,,,,,,,,,
,,,,,,,,,5611f6dd7ffc8a00058117e7,Mexican,younger than 13,"no, only English or Spanish",no,2025-08-13_14h48.41.626,empathy_intonation_perc,2024.2.4,Linux x86_64,59.88023952,5611f6dd7ffc8a00058117e7,687ed1b7e638a4cbf2f02089,689d0708ed6da857ff7b77d7,,,,,,,,,,,,,86,0,,./stim/wavs/puertorican_mismatch_declarative-broad-focus_El-nino-oye-el-rio.wav,,,,,,,,,,,,,,,,,,,,,,408.458,410.857,0,1,1.8746,,0,58,58,85,1,0,puertorican,,,,,,,,,,,,,,,,,,,,,,,,,,,,,,,,,,,,,,,,,,,,,,,,,,,,,,,,
,,,,,,,,,5611f6dd7ffc8a00058117e7,Mexican,younger than 13,"no, only English or Spanish",no,2025-08-13_14h48.41.626,empathy_intonation_perc,2024.2.4,Linux x86_64,59.88023952,5611f6dd7ffc8a00058117e7,687ed1b7e638a4cbf2f02089,689d0708ed6da857ff7b77d7,,,,,,,,,,,,,45,0,,./stim/wavs/castilian_match_declarative-broad-focus_David-leia-el-libro.wav,,,,,,,,,,,,,,,,,,,,,,410.8581,413.7568,0,1,2.3711,,0,59,59,44,1,0,castilian,,,,,,,,,,,,,,,,,,,,,,,,,,,,,,,,,,,,,,,,,,,,,,,,,,,,,,,,
,,,,,,,,,5611f6dd7ffc8a00058117e7,Mexican,younger than 13,"no, only English or Spanish",no,2025-08-13_14h48.41.626,empathy_intonation_perc,2024.2.4,Linux x86_64,59.88023952,5611f6dd7ffc8a00058117e7,687ed1b7e638a4cbf2f02089,689d0708ed6da857ff7b77d7,,,,,,,,,,,,,48,0,,./stim/wavs/castilian_match_declarative-broad-focus_Maria-bebe-el-vino.wav,,,,,,,,,,,,,,,,,,,,,,413.7581,416.6067,0,1,2.3186,,0,60,60,47,1,0,castilian,,,,,,,,,,,,,,,,,,,,,,,,,,,,,,,,,,,,,,,,,,,,,,,,,,,,,,,,
,,,,,,,,,5611f6dd7ffc8a00058117e7,Mexican,younger than 13,"no, only English or Spanish",no,2025-08-13_14h48.41.626,empathy_intonation_perc,2024.2.4,Linux x86_64,59.88023952,5611f6dd7ffc8a00058117e7,687ed1b7e638a4cbf2f02089,689d0708ed6da857ff7b77d7,,,,,,,,,,,,,31,1,,./stim/wavs/cuban_mismatch_interrogative-total-yn_El-nino-oye-el-rio.wav,,,,,,,,,,,,,,,,,,,,,,416.6079,419.1568,0,0,2.0202,,0,61,61,30,1,1,cuban,,,,,,,,,,,,,,,,,,,,,,,,,,,,,,,,,,,,,,,,,,,,,,,,,,,,,,,,
,,,,,,,,,5611f6dd7ffc8a00058117e7,Mexican,younger than 13,"no, only English or Spanish",no,2025-08-13_14h48.41.626,empathy_intonation_perc,2024.2.4,Linux x86_64,59.88023952,5611f6dd7ffc8a00058117e7,687ed1b7e638a4cbf2f02089,689d0708ed6da857ff7b77d7,,,,,,,,,,,,,34,1,,./stim/wavs/cuban_mismatch_interrogative-total-yn_Mi-tia-odia-la-lluvia.wav,,,,,,,,,,,,,,,,,,,,,,419.1584,421.8902,0,0,2.2009,,0,62,62,33,1,1,cuban,,,,,,,,,,,,,,,,,,,,,,,,,,,,,,,,,,,,,,,,,,,,,,,,,,,,,,,,
,,,,,,,,,5611f6dd7ffc8a00058117e7,Mexican,younger than 13,"no, only English or Spanish",no,2025-08-13_14h48.41.626,empathy_intonation_perc,2024.2.4,Linux x86_64,59.88023952,5611f6dd7ffc8a00058117e7,687ed1b7e638a4cbf2f02089,689d0708ed6da857ff7b77d7,,,,,,,,,,,,,25,1,,./stim/wavs/castilian_mismatch_interrogative-total-yn_La-maestra-vive-en-Paris.wav,,,,,,,,,,,,,,,,,,,,,,421.8916,425.1567,1,1,2.7345,,0,63,63,24,1,0,castilian,,,,,,,,,,,,,,,,,,,,,,,,,,,,,,,,,,,,,,,,,,,,,,,,,,,,,,,,
,,,,,,,,,5611f6dd7ffc8a00058117e7,Mexican,younger than 13,"no, only English or Spanish",no,2025-08-13_14h48.41.626,empathy_intonation_perc,2024.2.4,Linux x86_64,59.88023952,5611f6dd7ffc8a00058117e7,687ed1b7e638a4cbf2f02089,689d0708ed6da857ff7b77d7,,,,,,,,,,,,,19,1,,./stim/wavs/puertorican_match_interrogative-total-yn_Ana-lleva-el-abrigo.wav,,,,,,,,,,,,,,,,,,,,,,425.1582,427.4402,1,1,1.7578,,0,64,64,18,1,1,puertorican,,,,,,,,,,,,,,,,,,,,,,,,,,,,,,,,,,,,,,,,,,,,,,,,,,,,,,,,
,,,,,,,,,5611f6dd7ffc8a00058117e7,Mexican,younger than 13,"no, only English or Spanish",no,2025-08-13_14h48.41.626,empathy_intonation_perc,2024.2.4,Linux x86_64,59.88023952,5611f6dd7ffc8a00058117e7,687ed1b7e638a4cbf2f02089,689d0708ed6da857ff7b77d7,,,,,,,,,,,,,63,0,,./stim/wavs/puertorican_match_declarative-broad-focus_Ana-lleva-el-abrigo.wav,,,,,,,,,,,,,,,,,,,,,,427.4418,430.0566,0,1,2.0834,,0,65,65,62,1,0,puertorican,,,,,,,,,,,,,,,,,,,,,,,,,,,,,,,,,,,,,,,,,,,,,,,,,,,,,,,,
,,,,,,,,,5611f6dd7ffc8a00058117e7,Mexican,younger than 13,"no, only English or Spanish",no,2025-08-13_14h48.41.626,empathy_intonation_perc,2024.2.4,Linux x86_64,59.88023952,5611f6dd7ffc8a00058117e7,687ed1b7e638a4cbf2f02089,689d0708ed6da857ff7b77d7,,,,,,,,,,,,,5,1,,./stim/wavs/castilian_match_interrogative-total-yn_Mariano-habla-del-tiempo.wav,,,,,,,,,,,,,,,,,,,,,,430.0582,432.9233,1,1,2.3377,,0,66,66,4,1,0,castilian,,,,,,,,,,,,,,,,,,,,,,,,,,,,,,,,,,,,,,,,,,,,,,,,,,,,,,,,
,,,,,,,,,5611f6dd7ffc8a00058117e7,Mexican,younger than 13,"no, only English or Spanish",no,2025-08-13_14h48.41.626,empathy_intonation_perc,2024.2.4,Linux x86_64,59.88023952,5611f6dd7ffc8a00058117e7,687ed1b7e638a4cbf2f02089,689d0708ed6da857ff7b77d7,,,,,,,,,,,,,55,0,,./stim/wavs/cuban_match_declarative-broad-focus_Mariano-habla-del-tiempo.wav,,,,,,,,,,,,,,,,,,,,,,432.9248,435.8402,0,1,2.385,,0,67,67,54,1,0,cuban,,,,,,,,,,,,,,,,,,,,,,,,,,,,,,,,,,,,,,,,,,,,,,,,,,,,,,,,
,,,,,,,,,5611f6dd7ffc8a00058117e7,Mexican,younger than 13,"no, only English or Spanish",no,2025-08-13_14h48.41.626,empathy_intonation_perc,2024.2.4,Linux x86_64,59.88023952,5611f6dd7ffc8a00058117e7,687ed1b7e638a4cbf2f02089,689d0708ed6da857ff7b77d7,,,,,,,,,,,,,35,1,,./stim/wavs/mexican_mismatch_interrogative-total-yn_El-hombre-mira-la-luna.wav,,,,,,,,,,,,,,,,,,,,,,435.8417,438.9567,1,1,2.5871,,0,68,68,34,1,0,mexican,,,,,,,,,,,,,,,,,,,,,,,,,,,,,,,,,,,,,,,,,,,,,,,,,,,,,,,,
,,,,,,,,,5611f6dd7ffc8a00058117e7,Mexican,younger than 13,"no, only English or Spanish",no,2025-08-13_14h48.41.626,empathy_intonation_perc,2024.2.4,Linux x86_64,59.88023952,5611f6dd7ffc8a00058117e7,687ed1b7e638a4cbf2f02089,689d0708ed6da857ff7b77d7,,,,,,,,,,,,,50,0,,./stim/wavs/castilian_match_declarative-broad-focus_Marta-abre-el-regalo.wav,,,,,,,,,,,,,,,,,,,,,,438.9581,442.0233,0,1,2.5418,,0,69,69,49,1,0,castilian,,,,,,,,,,,,,,,,,,,,,,,,,,,,,,,,,,,,,,,,,,,,,,,,,,,,,,,,
,,,,,,,,,5611f6dd7ffc8a00058117e7,Mexican,younger than 13,"no, only English or Spanish",no,2025-08-13_14h48.41.626,empathy_intonation_perc,2024.2.4,Linux x86_64,59.88023952,5611f6dd7ffc8a00058117e7,687ed1b7e638a4cbf2f02089,689d0708ed6da857ff7b77d7,,,,,,,,,,,,,84,0,,./stim/wavs/puertorican_mismatch_declarative-broad-focus_El-bebe-comia-muy-bien.wav,,,,,,,,,,,,,,,,,,,,,,442.0247,444.6066,0,1,2.0593,,0,70,70,83,1,0,puertorican,,,,,,,,,,,,,,,,,,,,,,,,,,,,,,,,,,,,,,,,,,,,,,,,,,,,,,,,
,,,,,,,,,5611f6dd7ffc8a00058117e7,Mexican,younger than 13,"no, only English or Spanish",no,2025-08-13_14h48.41.626,empathy_intonation_perc,2024.2.4,Linux x86_64,59.88023952,5611f6dd7ffc8a00058117e7,687ed1b7e638a4cbf2f02089,689d0708ed6da857ff7b77d7,,,,,,,,,,,,,68,0,,./stim/wavs/puertorican_match_declarative-broad-focus_Maria-bebe-el-vino.wav,,,,,,,,,,,,,,,,,,,,,,444.6078,448.1566,1,0,3.0209,,0,71,71,67,1,0,puertorican,,,,,,,,,,,,,,,,,,,,,,,,,,,,,,,,,,,,,,,,,,,,,,,,,,,,,,,,
,,,,,,,,,5611f6dd7ffc8a00058117e7,Mexican,younger than 13,"no, only English or Spanish",no,2025-08-13_14h48.41.626,empathy_intonation_perc,2024.2.4,Linux x86_64,59.88023952,5611f6dd7ffc8a00058117e7,687ed1b7e638a4cbf2f02089,689d0708ed6da857ff7b77d7,,,,,,,,,,,,,49,0,,./stim/wavs/castilian_match_declarative-broad-focus_Mariano-habla-del-tiempo.wav,,,,,,,,,,,,,,,,,,,,,,448.1578,451.1743,0,1,2.4941,,0,72,72,48,1,0,castilian,,,,,,,,,,,,,,,,,,,,,,,,,,,,,,,,,,,,,,,,,,,,,,,,,,,,,,,,
,,,,,,,,,5611f6dd7ffc8a00058117e7,Mexican,younger than 13,"no, only English or Spanish",no,2025-08-13_14h48.41.626,empathy_intonation_perc,2024.2.4,Linux x86_64,59.88023952,5611f6dd7ffc8a00058117e7,687ed1b7e638a4cbf2f02089,689d0708ed6da857ff7b77d7,,,,,,,,,,,,,33,1,,./stim/wavs/cuban_mismatch_interrogative-total-yn_Mi-novio-viene-del-lago.wav,,,,,,,,,,,,,,,,,,,,,,451.1758,453.9066,1,1,2.2057,,0,73,73,32,1,1,cuban,,,,,,,,,,,,,,,,,,,,,,,,,,,,,,,,,,,,,,,,,,,,,,,,,,,,,,,,
,,,,,,,,,5611f6dd7ffc8a00058117e7,Mexican,younger than 13,"no, only English or Spanish",no,2025-08-13_14h48.41.626,empathy_intonation_perc,2024.2.4,Linux x86_64,59.88023952,5611f6dd7ffc8a00058117e7,687ed1b7e638a4cbf2f02089,689d0708ed6da857ff7b77d7,,,,,,,,,,,,,1,1,,./stim/wavs/castilian_match_interrogative-total-yn_David-leia-el-libro.wav,,,,,,,,,,,,,,,,,,,,,,453.9077,456.7066,0,0,2.2715,,0,74,74,0,1,0,castilian,,,,,,,,,,,,,,,,,,,,,,,,,,,,,,,,,,,,,,,,,,,,,,,,,,,,,,,,
,,,,,,,,,5611f6dd7ffc8a00058117e7,Mexican,younger than 13,"no, only English or Spanish",no,2025-08-13_14h48.41.626,empathy_intonation_perc,2024.2.4,Linux x86_64,59.88023952,5611f6dd7ffc8a00058117e7,687ed1b7e638a4cbf2f02089,689d0708ed6da857ff7b77d7,,,,,,,,,,,,,18,1,,./stim/wavs/mexican_match_interrogative-total-yn_Marta-abre-el-regalo.wav,,,,,,,,,,,,,,,,,,,,,,456.7077,459.4237,0,0,2.1854,,0,75,75,17,1,0,mexican,,,,,,,,,,,,,,,,,,,,,,,,,,,,,,,,,,,,,,,,,,,,,,,,,,,,,,,,
,,,,,,,,,5611f6dd7ffc8a00058117e7,Mexican,younger than 13,"no, only English or Spanish",no,2025-08-13_14h48.41.626,empathy_intonation_perc,2024.2.4,Linux x86_64,59.88023952,5611f6dd7ffc8a00058117e7,687ed1b7e638a4cbf2f02089,689d0708ed6da857ff7b77d7,,,,,,,,,,,,,23,1,,./stim/wavs/puertorican_match_interrogative-total-yn_Manuela-vende-el-carro.wav,,,,,,,,,,,,,,,,,,,,,,459.4252,462.7404,0,0,2.7872,,0,76,76,22,1,1,puertorican,,,,,,,,,,,,,,,,,,,,,,,,,,,,,,,,,,,,,,,,,,,,,,,,,,,,,,,,
,,,,,,,,,5611f6dd7ffc8a00058117e7,Mexican,younger than 13,"no, only English or Spanish",no,2025-08-13_14h48.41.626,empathy_intonation_perc,2024.2.4,Linux x86_64,59.88023952,5611f6dd7ffc8a00058117e7,687ed1b7e638a4cbf2f02089,689d0708ed6da857ff7b77d7,,,,,,,,,,,,,20,1,,./stim/wavs/puertorican_match_interrogative-total-yn_Daniel-iba-a-Bolivia.wav,,,,,,,,,,,,,,,,,,,,,,462.7418,465.8067,0,0,2.5432,,0,77,77,19,1,1,puertorican,,,,,,,,,,,,,,,,,,,,,,,,,,,,,,,,,,,,,,,,,,,,,,,,,,,,,,,,
,,,,,,,,,5611f6dd7ffc8a00058117e7,Mexican,younger than 13,"no, only English or Spanish",no,2025-08-13_14h48.41.626,empathy_intonation_perc,2024.2.4,Linux x86_64,59.88023952,5611f6dd7ffc8a00058117e7,687ed1b7e638a4cbf2f02089,689d0708ed6da857ff7b77d7,,,,,,,,,,,,,32,1,,./stim/wavs/cuban_mismatch_interrogative-total-yn_Mi-madre-come-la-fruta.wav,,,,,,,,,,,,,,,,,,,,,,465.8082,468.7066,1,1,2.3668,,0,78,78,31,1,1,cuban,,,,,,,,,,,,,,,,,,,,,,,,,,,,,,,,,,,,,,,,,,,,,,,,,,,,,,,,
,,,,,,,,,5611f6dd7ffc8a00058117e7,Mexican,younger than 13,"no, only English or Spanish",no,2025-08-13_14h48.41.626,empathy_intonation_perc,2024.2.4,Linux x86_64,59.88023952,5611f6dd7ffc8a00058117e7,687ed1b7e638a4cbf2f02089,689d0708ed6da857ff7b77d7,,,,,,,,,,,,,39,1,,./stim/wavs/mexican_mismatch_interrogative-total-yn_Mi-tia-odia-la-lluvia.wav,,,,,,,,,,,,,,,,,,,,,,468.7078,471.2234,0,0,1.9846,,0,79,79,38,1,0,mexican,,,,,,,,,,,,,,,,,,,,,,,,,,,,,,,,,,,,,,,,,,,,,,,,,,,,,,,,
,,,,,,,,,5611f6dd7ffc8a00058117e7,Mexican,younger than 13,"no, only English or Spanish",no,2025-08-13_14h48.41.626,empathy_intonation_perc,2024.2.4,Linux x86_64,59.88023952,5611f6dd7ffc8a00058117e7,687ed1b7e638a4cbf2f02089,689d0708ed6da857ff7b77d7,,,,,,,,,,,,,38,1,,./stim/wavs/mexican_mismatch_interrogative-total-yn_Mi-novio-viene-del-lago.wav,,,,,,,,,,,,,,,,,,,,,,471.2248,473.9232,1,1,2.1719,,0,80,80,37,1,0,mexican,,,,,,,,,,,,,,,,,,,,,,,,,,,,,,,,,,,,,,,,,,,,,,,,,,,,,,,,
,,,,,,,,,5611f6dd7ffc8a00058117e7,Mexican,younger than 13,"no, only English or Spanish",no,2025-08-13_14h48.41.626,empathy_intonation_perc,2024.2.4,Linux x86_64,59.88023952,5611f6dd7ffc8a00058117e7,687ed1b7e638a4cbf2f02089,689d0708ed6da857ff7b77d7,,,,,,,,,,,,,29,1,,./stim/wavs/castilian_mismatch_interrogative-total-yn_Mi-tia-odia-la-lluvia.wav,,,,,,,,,,,,,,,,,,,,,,473.9247,476.8234,1,1,2.3676,,0,81,81,28,1,0,castilian,,,,,,,,,,,,,,,,,,,,,,,,,,,,,,,,,,,,,,,,,,,,,,,,,,,,,,,,
,,,,,,,,,5611f6dd7ffc8a00058117e7,Mexican,younger than 13,"no, only English or Spanish",no,2025-08-13_14h48.41.626,empathy_intonation_perc,2024.2.4,Linux x86_64,59.88023952,5611f6dd7ffc8a00058117e7,687ed1b7e638a4cbf2f02089,689d0708ed6da857ff7b77d7,,,,,,,,,,,,,82,0,,./stim/wavs/mexican_mismatch_declarative-broad-focus_Mi-novio-viene-del-lago.wav,,,,,,,,,,,,,,,,,,,,,,476.8249,479.6733,0,1,2.3236,,0,82,82,81,1,0,mexican,,,,,,,,,,,,,,,,,,,,,,,,,,,,,,,,,,,,,,,,,,,,,,,,,,,,,,,,
,,,,,,,,,5611f6dd7ffc8a00058117e7,Mexican,younger than 13,"no, only English or Spanish",no,2025-08-13_14h48.41.626,empathy_intonation_perc,2024.2.4,Linux x86_64,59.88023952,5611f6dd7ffc8a00058117e7,687ed1b7e638a4cbf2f02089,689d0708ed6da857ff7b77d7,,,,,,,,,,,,,77,0,,./stim/wavs/cuban_mismatch_declarative-broad-focus_Mi-novio-viene-del-lago.wav,,,,,,,,,,,,,,,,,,,,,,479.6743,483.3735,0,1,3.1688,,0,83,83,76,1,0,cuban,,,,,,,,,,,,,,,,,,,,,,,,,,,,,,,,,,,,,,,,,,,,,,,,,,,,,,,,
,,,,,,,,,5611f6dd7ffc8a00058117e7,Mexican,younger than 13,"no, only English or Spanish",no,2025-08-13_14h48.41.626,empathy_intonation_perc,2024.2.4,Linux x86_64,59.88023952,5611f6dd7ffc8a00058117e7,687ed1b7e638a4cbf2f02089,689d0708ed6da857ff7b77d7,,,,,,,,,,,,,59,0,,./stim/wavs/mexican_match_declarative-broad-focus_David-leia-el-libro.wav,,,,,,,,,,,,,,,,,,,,,,483.3747,486.0902,0,1,2.184,,0,84,84,58,1,0,mexican,,,,,,,,,,,,,,,,,,,,,,,,,,,,,,,,,,,,,,,,,,,,,,,,,,,,,,,,
,,,,,,,,,5611f6dd7ffc8a00058117e7,Mexican,younger than 13,"no, only English or Spanish",no,2025-08-13_14h48.41.626,empathy_intonation_perc,2024.2.4,Linux x86_64,59.88023952,5611f6dd7ffc8a00058117e7,687ed1b7e638a4cbf2f02089,689d0708ed6da857ff7b77d7,,,,,,,,,,,,,81,0,,./stim/wavs/mexican_mismatch_declarative-broad-focus_La-maestra-vive-en-Paris.wav,,,,,,,,,,,,,,,,,,,,,,486.0917,488.8903,0,1,2.2678,,0,85,85,80,1,0,mexican,,,,,,,,,,,,,,,,,,,,,,,,,,,,,,,,,,,,,,,,,,,,,,,,,,,,,,,,
,,,,,,,,,5611f6dd7ffc8a00058117e7,Mexican,younger than 13,"no, only English or Spanish",no,2025-08-13_14h48.41.626,empathy_intonation_perc,2024.2.4,Linux x86_64,59.88023952,5611f6dd7ffc8a00058117e7,687ed1b7e638a4cbf2f02089,689d0708ed6da857ff7b77d7,,,,,,,,,,,,,41,1,,./stim/wavs/puertorican_mismatch_interrogative-total-yn_El-nino-oye-el-rio.wav,,,,,,,,,,,,,,,,,,,,,,488.8917,491.5567,0,0,2.1355,,0,86,86,40,1,1,puertorican,,,,,,,,,,,,,,,,,,,,,,,,,,,,,,,,,,,,,,,,,,,,,,,,,,,,,,,,
,,,,,,,,,5611f6dd7ffc8a00058117e7,Mexican,younger than 13,"no, only English or Spanish",no,2025-08-13_14h48.41.626,empathy_intonation_perc,2024.2.4,Linux x86_64,59.88023952,5611f6dd7ffc8a00058117e7,687ed1b7e638a4cbf2f02089,689d0708ed6da857ff7b77d7,,,,,,,,,,,,,40,1,,./stim/wavs/puertorican_mismatch_interrogative-total-yn_El-hombre-mira-la-luna.wav,,,,,,,,,,,,,,,,,,,,,,491.5582,495.3568,1,1,3.2671,,0,87,87,39,1,1,puertorican,,,,,,,,,,,,,,,,,,,,,,,,,,,,,,,,,,,,,,,,,,,,,,,,,,,,,,,,
,,,,,,,"Great! Now we will move on. The next task consists of about 60 trials, in each of which you will see a string of letters. 
  
  Your task is to decide whether this is a real Spanish word or not.", (press the spacebar to continue),5611f6dd7ffc8a00058117e7,Mexican,younger than 13,"no, only English or Spanish",no,2025-08-13_14h48.41.626,empathy_intonation_perc,2024.2.4,Linux x86_64,59.88023952,5611f6dd7ffc8a00058117e7,687ed1b7e638a4cbf2f02089,689d0708ed6da857ff7b77d7,,,,,,,,,,,,,,,,,,,,,,,,,,,,,,,,,,,,,,,,,,,,,,,,,,,495.3728,499.5239,0,0,0,0,1,,,,,,,,,,,,,,,,,,,,,,,,,,,,,,,,,,,,,,,,,,,,,,,,,
,,,,,,,"If you think it is an existing Spanish word, you type '1' (for 'REAL'), and if you think it is not an existing Spanish word, you type '0' (for 'FAKE').", (press the spacebar to continue),5611f6dd7ffc8a00058117e7,Mexican,younger than 13,"no, only English or Spanish",no,2025-08-13_14h48.41.626,empathy_intonation_perc,2024.2.4,Linux x86_64,59.88023952,5611f6dd7ffc8a00058117e7,687ed1b7e638a4cbf2f02089,689d0708ed6da857ff7b77d7,,,,,,,,,,,,,,,,,,,,,,,,,,,,,,,,,,,,,,,,,,,,,,,,,,,499.5293,502.5567,0,1,1,1,1,,,,,,,,,,,,,,,,,,,,,,,,,,,,,,,,,,,,,,,,,,,,,,,,,
,,,,,,,"If you are sure that the word exists, even though you don’t know its exact meaning, you may still respond '1' (REAL). 
  
  But if you are not sure if it is an existing word, you should respond '0' (FAKE).
  
  Let's do a practice round...", (press the spacebar to continue),5611f6dd7ffc8a00058117e7,Mexican,younger than 13,"no, only English or Spanish",no,2025-08-13_14h48.41.626,empathy_intonation_perc,2024.2.4,Linux x86_64,59.88023952,5611f6dd7ffc8a00058117e7,687ed1b7e638a4cbf2f02089,689d0708ed6da857ff7b77d7,,,,,,,,,,,,,,,,,,,,,,,,,,,,,,,,,,,,,,,,,,,,,,,,,,,502.5627,504.2567,0,2,2,2,1,,,,,,,,,,,,,,,,,,,,,,,,,,,,,,,,,,,,,,,,,,,,,,,,,
,,,,,,,,,5611f6dd7ffc8a00058117e7,Mexican,younger than 13,"no, only English or Spanish",no,2025-08-13_14h48.41.626,empathy_intonation_perc,2024.2.4,Linux x86_64,59.88023952,5611f6dd7ffc8a00058117e7,687ed1b7e638a4cbf2f02089,689d0708ed6da857ff7b77d7,,,,,,,,,,,,,,0,,,,,,,,,,,,,,,,,,,,,,,,,,,,,,,,,,,,,,,,,,,,504.2723,505.8907,1,0,1.0964,,505.8912,506.8907,0,0,0,0,1,0,depiste,REAL,FAKE,,,,,,,,,,,,,,,,,,,,,,,,,,,,,,,,
,,,,,,,,,5611f6dd7ffc8a00058117e7,Mexican,younger than 13,"no, only English or Spanish",no,2025-08-13_14h48.41.626,empathy_intonation_perc,2024.2.4,Linux x86_64,59.88023952,5611f6dd7ffc8a00058117e7,687ed1b7e638a4cbf2f02089,689d0708ed6da857ff7b77d7,,,,,,,,,,,,,,1,,,,,,,,,,,,,,,,,,,,,,,,,,,,,,,,,,,,,,,,,,,,506.8942,508.1068,1,1,0.6843,,508.1092,509.1066,0,1,1,1,1,0,sí,REAL,FAKE,,,,,,,,,,,,,,,,,,,,,,,,,,,,,,,,
,,,,,,,,,5611f6dd7ffc8a00058117e7,Mexican,younger than 13,"no, only English or Spanish",no,2025-08-13_14h48.41.626,empathy_intonation_perc,2024.2.4,Linux x86_64,59.88023952,5611f6dd7ffc8a00058117e7,687ed1b7e638a4cbf2f02089,689d0708ed6da857ff7b77d7,,,,,,,,,,,,,,0,,,,,,,,,,,,,,,,,,,,,,,,,,,,,,,,,,,,,,,,,,,,509.1094,510.2902,1,0,0.6426,,510.2918,511.2903,0,2,2,2,1,0,coné,REAL,FAKE,,,,,,,,,,,,,,,,,,,,,,,,,,,,,,,,
,,,,,,,,,5611f6dd7ffc8a00058117e7,Mexican,younger than 13,"no, only English or Spanish",no,2025-08-13_14h48.41.626,empathy_intonation_perc,2024.2.4,Linux x86_64,59.88023952,5611f6dd7ffc8a00058117e7,687ed1b7e638a4cbf2f02089,689d0708ed6da857ff7b77d7,,,,,,,,,,,,,,0,,,,,,,,,,,,,,,,,,,,,,,,,,,,,,,,,,,,,,,,,,,,511.293,512.5908,1,0,0.7697,,512.591,513.5901,0,3,3,3,1,0,calpar,REAL,FAKE,,,,,,,,,,,,,,,,,,,,,,,,,,,,,,,,
,,,,,,,,,5611f6dd7ffc8a00058117e7,Mexican,younger than 13,"no, only English or Spanish",no,2025-08-13_14h48.41.626,empathy_intonation_perc,2024.2.4,Linux x86_64,59.88023952,5611f6dd7ffc8a00058117e7,687ed1b7e638a4cbf2f02089,689d0708ed6da857ff7b77d7,,,,,,,,,,,,,,0,,,,,,,,,,,,,,,,,,,,,,,,,,,,,,,,,,,,,,,,,,,,513.5928,514.6901,0,1,0.5656,,514.6915,515.6902,0,4,4,4,1,0,joten,REAL,FAKE,,,,,,,,,,,,,,,,,,,,,,,,,,,,,,,,
,,,,,,,,,5611f6dd7ffc8a00058117e7,Mexican,younger than 13,"no, only English or Spanish",no,2025-08-13_14h48.41.626,empathy_intonation_perc,2024.2.4,Linux x86_64,59.88023952,5611f6dd7ffc8a00058117e7,687ed1b7e638a4cbf2f02089,689d0708ed6da857ff7b77d7,,,,,,,,,,,,,,1,,,,,,,,,,,,,,,,,,,,,,,,,,,,,,,,,,,,,,,,,,,,515.6925,516.8902,0,0,0.6587,,516.8924,517.89,0,5,5,5,1,0,sacapuntas,REAL,FAKE,,,,,,,,,,,,,,,,,,,,,,,,,,,,,,,,
,,,,,,,,,5611f6dd7ffc8a00058117e7,Mexican,younger than 13,"no, only English or Spanish",no,2025-08-13_14h48.41.626,empathy_intonation_perc,2024.2.4,Linux x86_64,59.88023952,5611f6dd7ffc8a00058117e7,687ed1b7e638a4cbf2f02089,689d0708ed6da857ff7b77d7,,,,,,,,,,,,,,0,,,,,,,,,,,,,,,,,,,,,,,,,,,,,,,,,,,,,,,,,,,,517.8927,519.7236,0,1,1.2957,,519.7256,520.7235,0,6,6,6,1,0,priba,REAL,FAKE,,,,,,,,,,,,,,,,,,,,,,,,,,,,,,,,
,,,,,,,,,5611f6dd7ffc8a00058117e7,Mexican,younger than 13,"no, only English or Spanish",no,2025-08-13_14h48.41.626,empathy_intonation_perc,2024.2.4,Linux x86_64,59.88023952,5611f6dd7ffc8a00058117e7,687ed1b7e638a4cbf2f02089,689d0708ed6da857ff7b77d7,,,,,,,,,,,,,,0,,,,,,,,,,,,,,,,,,,,,,,,,,,,,,,,,,,,,,,,,,,,520.7264,522.3734,0,1,1.114,,522.3735,523.3737,0,7,7,7,1,0,pelasula,REAL,FAKE,,,,,,,,,,,,,,,,,,,,,,,,,,,,,,,,
,,,,,,,,,5611f6dd7ffc8a00058117e7,Mexican,younger than 13,"no, only English or Spanish",no,2025-08-13_14h48.41.626,empathy_intonation_perc,2024.2.4,Linux x86_64,59.88023952,5611f6dd7ffc8a00058117e7,687ed1b7e638a4cbf2f02089,689d0708ed6da857ff7b77d7,,,,,,,,,,,,,,1,,,,,,,,,,,,,,,,,,,,,,,,,,,,,,,,,,,,,,,,,,,,523.3762,524.5068,0,0,0.5973,,524.5087,525.5068,0,8,8,8,1,0,bien,REAL,FAKE,,,,,,,,,,,,,,,,,,,,,,,,,,,,,,,,
,,,,,,,,,5611f6dd7ffc8a00058117e7,Mexican,younger than 13,"no, only English or Spanish",no,2025-08-13_14h48.41.626,empathy_intonation_perc,2024.2.4,Linux x86_64,59.88023952,5611f6dd7ffc8a00058117e7,687ed1b7e638a4cbf2f02089,689d0708ed6da857ff7b77d7,,,,,,,,,,,,,,1,,,,,,,,,,,,,,,,,,,,,,,,,,,,,,,,,,,,,,,,,,,,525.5101,526.7734,1,1,0.7302,,526.7752,527.7734,0,9,9,9,1,0,casa,REAL,FAKE,,,,,,,,,,,,,,,,,,,,,,,,,,,,,,,,
,,,,,,,,,5611f6dd7ffc8a00058117e7,Mexican,younger than 13,"no, only English or Spanish",no,2025-08-13_14h48.41.626,empathy_intonation_perc,2024.2.4,Linux x86_64,59.88023952,5611f6dd7ffc8a00058117e7,687ed1b7e638a4cbf2f02089,689d0708ed6da857ff7b77d7,,,,,,,,,,,,,,0,,,,,,,,,,,,,,,,,,,,,,,,,,,,,,,,,,,,,,,,,,,,527.7757,528.9568,1,0,0.6436,,528.9583,529.9566,0,10,10,10,1,0,lejo,REAL,FAKE,,,,,,,,,,,,,,,,,,,,,,,,,,,,,,,,
,,,,,,,,,5611f6dd7ffc8a00058117e7,Mexican,younger than 13,"no, only English or Spanish",no,2025-08-13_14h48.41.626,empathy_intonation_perc,2024.2.4,Linux x86_64,59.88023952,5611f6dd7ffc8a00058117e7,687ed1b7e638a4cbf2f02089,689d0708ed6da857ff7b77d7,,,,,,,,,,,,,,0,,,,,,,,,,,,,,,,,,,,,,,,,,,,,,,,,,,,,,,,,,,,529.9593,531.4902,0,1,1,,531.4919,532.4901,0,11,11,11,1,0,pretantas,REAL,FAKE,,,,,,,,,,,,,,,,,,,,,,,,,,,,,,,,
,,,,,,,,,5611f6dd7ffc8a00058117e7,Mexican,younger than 13,"no, only English or Spanish",no,2025-08-13_14h48.41.626,empathy_intonation_perc,2024.2.4,Linux x86_64,59.88023952,5611f6dd7ffc8a00058117e7,687ed1b7e638a4cbf2f02089,689d0708ed6da857ff7b77d7,,,,,,,,,,,,,,,,,,,,,,,,,,,,,,,,,,,,,,,,,,,,,,,,,,,,,,,,,,,,,,,,,,,,,,,,,,,532.491,533.2072,,,,,,,,,,,,,,,,,,,,,,,,,,,,,,
,,,,,,,,,5611f6dd7ffc8a00058117e7,Mexican,younger than 13,"no, only English or Spanish",no,2025-08-13_14h48.41.626,empathy_intonation_perc,2024.2.4,Linux x86_64,59.88023952,5611f6dd7ffc8a00058117e7,687ed1b7e638a4cbf2f02089,689d0708ed6da857ff7b77d7,,,,,,,,,,,,,,0,,,,,,,,,,,,,,,,,,,,,,,,,,,,,,,,,,,,,,,,,,,,,,,,,,,,,,,,,29,decar,,,,,533.2245,534.4905,1,0,0.7354,,0,0,0,28,1,REAL,FAKE,,,,,,,,,,,,,,,,,
,,,,,,,,,5611f6dd7ffc8a00058117e7,Mexican,younger than 13,"no, only English or Spanish",no,2025-08-13_14h48.41.626,empathy_intonation_perc,2024.2.4,Linux x86_64,59.88023952,5611f6dd7ffc8a00058117e7,687ed1b7e638a4cbf2f02089,689d0708ed6da857ff7b77d7,,,,,,,,,,,,,,1,,,,,,,,,,,,,,,,,,,,,,,,,,,,,,,,,,,,,,,,,,,,,,,,,,,,,,,,,11,cenefa,,,,,534.4928,535.5566,1,1,0.5315,,0,1,1,10,1,REAL,FAKE,,,,,,,,,,,,,,,,,
,,,,,,,,,5611f6dd7ffc8a00058117e7,Mexican,younger than 13,"no, only English or Spanish",no,2025-08-13_14h48.41.626,empathy_intonation_perc,2024.2.4,Linux x86_64,59.88023952,5611f6dd7ffc8a00058117e7,687ed1b7e638a4cbf2f02089,689d0708ed6da857ff7b77d7,,,,,,,,,,,,,,1,,,,,,,,,,,,,,,,,,,,,,,,,,,,,,,,,,,,,,,,,,,,,,,,,,,,,,,,,78,frondoso,,,,,535.5588,536.8568,0,0,0.7623,,0,2,2,77,1,REAL,FAKE,,,,,,,,,,,,,,,,,
,,,,,,,,,5611f6dd7ffc8a00058117e7,Mexican,younger than 13,"no, only English or Spanish",no,2025-08-13_14h48.41.626,empathy_intonation_perc,2024.2.4,Linux x86_64,59.88023952,5611f6dd7ffc8a00058117e7,687ed1b7e638a4cbf2f02089,689d0708ed6da857ff7b77d7,,,,,,,,,,,,,,1,,,,,,,,,,,,,,,,,,,,,,,,,,,,,,,,,,,,,,,,,,,,,,,,,,,,,,,,,44,cuchara,,,,,536.8588,538.4403,0,0,1.054,,0,3,3,43,1,REAL,FAKE,,,,,,,,,,,,,,,,,
,,,,,,,,,5611f6dd7ffc8a00058117e7,Mexican,younger than 13,"no, only English or Spanish",no,2025-08-13_14h48.41.626,empathy_intonation_perc,2024.2.4,Linux x86_64,59.88023952,5611f6dd7ffc8a00058117e7,687ed1b7e638a4cbf2f02089,689d0708ed6da857ff7b77d7,,,,,,,,,,,,,,1,,,,,,,,,,,,,,,,,,,,,,,,,,,,,,,,,,,,,,,,,,,,,,,,,,,,,,,,,38,estornudar,,,,,538.4431,540.1069,1,1,1.1319,,0,4,4,37,1,REAL,FAKE,,,,,,,,,,,,,,,,,
,,,,,,,,,5611f6dd7ffc8a00058117e7,Mexican,younger than 13,"no, only English or Spanish",no,2025-08-13_14h48.41.626,empathy_intonation_perc,2024.2.4,Linux x86_64,59.88023952,5611f6dd7ffc8a00058117e7,687ed1b7e638a4cbf2f02089,689d0708ed6da857ff7b77d7,,,,,,,,,,,,,,1,,,,,,,,,,,,,,,,,,,,,,,,,,,,,,,,,,,,,,,,,,,,,,,,,,,,,,,,,24,látigo,,,,,540.1099,541.2237,1,1,0.579,,0,5,5,23,1,REAL,FAKE,,,,,,,,,,,,,,,,,
,,,,,,,,,5611f6dd7ffc8a00058117e7,Mexican,younger than 13,"no, only English or Spanish",no,2025-08-13_14h48.41.626,empathy_intonation_perc,2024.2.4,Linux x86_64,59.88023952,5611f6dd7ffc8a00058117e7,687ed1b7e638a4cbf2f02089,689d0708ed6da857ff7b77d7,,,,,,,,,,,,,,1,,,,,,,,,,,,,,,,,,,,,,,,,,,,,,,,,,,,,,,,,,,,,,,,,,,,,,,,,91,click the 1 key.,,,,,541.2262,542.7235,1,1,0.9626,,0,6,6,90,1,REAL,FAKE,,,,,,,,,,,,,,,,,
,,,,,,,,,5611f6dd7ffc8a00058117e7,Mexican,younger than 13,"no, only English or Spanish",no,2025-08-13_14h48.41.626,empathy_intonation_perc,2024.2.4,Linux x86_64,59.88023952,5611f6dd7ffc8a00058117e7,687ed1b7e638a4cbf2f02089,689d0708ed6da857ff7b77d7,,,,,,,,,,,,,,1,,,,,,,,,,,,,,,,,,,,,,,,,,,,,,,,,,,,,,,,,,,,,,,,,,,,,,,,,89,prisa,,,,,542.7255,544.2567,1,1,0.9953,,0,7,7,88,1,REAL,FAKE,,,,,,,,,,,,,,,,,
,,,,,,,,,5611f6dd7ffc8a00058117e7,Mexican,younger than 13,"no, only English or Spanish",no,2025-08-13_14h48.41.626,empathy_intonation_perc,2024.2.4,Linux x86_64,59.88023952,5611f6dd7ffc8a00058117e7,687ed1b7e638a4cbf2f02089,689d0708ed6da857ff7b77d7,,,,,,,,,,,,,,0,,,,,,,,,,,,,,,,,,,,,,,,,,,,,,,,,,,,,,,,,,,,,,,,,,,,,,,,,30,alardio,,,,,544.2589,545.3403,0,1,0.5504,,0,8,8,29,1,REAL,FAKE,,,,,,,,,,,,,,,,,
,,,,,,,,,5611f6dd7ffc8a00058117e7,Mexican,younger than 13,"no, only English or Spanish",no,2025-08-13_14h48.41.626,empathy_intonation_perc,2024.2.4,Linux x86_64,59.88023952,5611f6dd7ffc8a00058117e7,687ed1b7e638a4cbf2f02089,689d0708ed6da857ff7b77d7,,,,,,,,,,,,,,0,,,,,,,,,,,,,,,,,,,,,,,,,,,,,,,,,,,,,,,,,,,,,,,,,,,,,,,,,66,hacido,,,,,545.3431,546.4736,0,1,0.602,,0,9,9,65,1,REAL,FAKE,,,,,,,,,,,,,,,,,
,,,,,,,,,5611f6dd7ffc8a00058117e7,Mexican,younger than 13,"no, only English or Spanish",no,2025-08-13_14h48.41.626,empathy_intonation_perc,2024.2.4,Linux x86_64,59.88023952,5611f6dd7ffc8a00058117e7,687ed1b7e638a4cbf2f02089,689d0708ed6da857ff7b77d7,,,,,,,,,,,,,,0,,,,,,,,,,,,,,,,,,,,,,,,,,,,,,,,,,,,,,,,,,,,,,,,,,,,,,,,,16,abracer,,,,,546.4763,547.6069,0,1,0.5978,,0,10,10,15,1,REAL,FAKE,,,,,,,,,,,,,,,,,
,,,,,,,,,5611f6dd7ffc8a00058117e7,Mexican,younger than 13,"no, only English or Spanish",no,2025-08-13_14h48.41.626,empathy_intonation_perc,2024.2.4,Linux x86_64,59.88023952,5611f6dd7ffc8a00058117e7,687ed1b7e638a4cbf2f02089,689d0708ed6da857ff7b77d7,,,,,,,,,,,,,,0,,,,,,,,,,,,,,,,,,,,,,,,,,,,,,,,,,,,,,,,,,,,,,,,,,,,,,,,,27,acutación,,,,,547.6091,549.0569,0,1,0.9131,,0,11,11,26,1,REAL,FAKE,,,,,,,,,,,,,,,,,
,,,,,,,,,5611f6dd7ffc8a00058117e7,Mexican,younger than 13,"no, only English or Spanish",no,2025-08-13_14h48.41.626,empathy_intonation_perc,2024.2.4,Linux x86_64,59.88023952,5611f6dd7ffc8a00058117e7,687ed1b7e638a4cbf2f02089,689d0708ed6da857ff7b77d7,,,,,,,,,,,,,,1,,,,,,,,,,,,,,,,,,,,,,,,,,,,,,,,,,,,,,,,,,,,,,,,,,,,,,,,,69,engatusar,,,,,549.0595,550.2901,1,1,0.699,,0,12,12,68,1,REAL,FAKE,,,,,,,,,,,,,,,,,
,,,,,,,,,5611f6dd7ffc8a00058117e7,Mexican,younger than 13,"no, only English or Spanish",no,2025-08-13_14h48.41.626,empathy_intonation_perc,2024.2.4,Linux x86_64,59.88023952,5611f6dd7ffc8a00058117e7,687ed1b7e638a4cbf2f02089,689d0708ed6da857ff7b77d7,,,,,,,,,,,,,,0,,,,,,,,,,,,,,,,,,,,,,,,,,,,,,,,,,,,,,,,,,,,,,,,,,,,,,,,,19,brecedad,,,,,550.2924,551.7567,0,1,0.9303,,0,13,13,18,1,REAL,FAKE,,,,,,,,,,,,,,,,,
,,,,,,,,,5611f6dd7ffc8a00058117e7,Mexican,younger than 13,"no, only English or Spanish",no,2025-08-13_14h48.41.626,empathy_intonation_perc,2024.2.4,Linux x86_64,59.88023952,5611f6dd7ffc8a00058117e7,687ed1b7e638a4cbf2f02089,689d0708ed6da857ff7b77d7,,,,,,,,,,,,,,0,,,,,,,,,,,,,,,,,,,,,,,,,,,,,,,,,,,,,,,,,,,,,,,,,,,,,,,,,79,tropaje,,,,,551.7588,553.0235,1,0,0.73,,0,14,14,78,1,REAL,FAKE,,,,,,,,,,,,,,,,,
,,,,,,,,,5611f6dd7ffc8a00058117e7,Mexican,younger than 13,"no, only English or Spanish",no,2025-08-13_14h48.41.626,empathy_intonation_perc,2024.2.4,Linux x86_64,59.88023952,5611f6dd7ffc8a00058117e7,687ed1b7e638a4cbf2f02089,689d0708ed6da857ff7b77d7,,,,,,,,,,,,,,0,,,,,,,,,,,,,,,,,,,,,,,,,,,,,,,,,,,,,,,,,,,,,,,,,,,,,,,,,63,esposante,,,,,553.0263,554.34,1,0,0.7825,,0,15,15,62,1,REAL,FAKE,,,,,,,,,,,,,,,,,
,,,,,,,,,5611f6dd7ffc8a00058117e7,Mexican,younger than 13,"no, only English or Spanish",no,2025-08-13_14h48.41.626,empathy_intonation_perc,2024.2.4,Linux x86_64,59.88023952,5611f6dd7ffc8a00058117e7,687ed1b7e638a4cbf2f02089,689d0708ed6da857ff7b77d7,,,,,,,,,,,,,,1,,,,,,,,,,,,,,,,,,,,,,,,,,,,,,,,,,,,,,,,,,,,,,,,,,,,,,,,,62,flaco,,,,,554.3427,555.4735,1,1,0.5992,,0,16,16,61,1,REAL,FAKE,,,,,,,,,,,,,,,,,
,,,,,,,,,5611f6dd7ffc8a00058117e7,Mexican,younger than 13,"no, only English or Spanish",no,2025-08-13_14h48.41.626,empathy_intonation_perc,2024.2.4,Linux x86_64,59.88023952,5611f6dd7ffc8a00058117e7,687ed1b7e638a4cbf2f02089,689d0708ed6da857ff7b77d7,,,,,,,,,,,,,,1,,,,,,,,,,,,,,,,,,,,,,,,,,,,,,,,,,,,,,,,,,,,,,,,,,,,,,,,,40,alfombra,,,,,555.4761,556.6235,0,0,0.6144,,0,17,17,39,1,REAL,FAKE,,,,,,,,,,,,,,,,,
,,,,,,,,,5611f6dd7ffc8a00058117e7,Mexican,younger than 13,"no, only English or Spanish",no,2025-08-13_14h48.41.626,empathy_intonation_perc,2024.2.4,Linux x86_64,59.88023952,5611f6dd7ffc8a00058117e7,687ed1b7e638a4cbf2f02089,689d0708ed6da857ff7b77d7,,,,,,,,,,,,,,0,,,,,,,,,,,,,,,,,,,,,,,,,,,,,,,,,,,,,,,,,,,,,,,,,,,,,,,,,23,lampera,,,,,556.626,557.957,0,1,0.7989,,0,18,18,22,1,REAL,FAKE,,,,,,,,,,,,,,,,,
,,,,,,,,,5611f6dd7ffc8a00058117e7,Mexican,younger than 13,"no, only English or Spanish",no,2025-08-13_14h48.41.626,empathy_intonation_perc,2024.2.4,Linux x86_64,59.88023952,5611f6dd7ffc8a00058117e7,687ed1b7e638a4cbf2f02089,689d0708ed6da857ff7b77d7,,,,,,,,,,,,,,1,,,,,,,,,,,,,,,,,,,,,,,,,,,,,,,,,,,,,,,,,,,,,,,,,,,,,,,,,85,laúd,,,,,557.9599,559.2234,0,0,0.7302,,0,19,19,84,1,REAL,FAKE,,,,,,,,,,,,,,,,,
,,,,,,,,,5611f6dd7ffc8a00058117e7,Mexican,younger than 13,"no, only English or Spanish",no,2025-08-13_14h48.41.626,empathy_intonation_perc,2024.2.4,Linux x86_64,59.88023952,5611f6dd7ffc8a00058117e7,687ed1b7e638a4cbf2f02089,689d0708ed6da857ff7b77d7,,,,,,,,,,,,,,1,,,,,,,,,,,,,,,,,,,,,,,,,,,,,,,,,,,,,,,,,,,,,,,,,,,,,,,,,61,seda,,,,,559.2261,560.49,0,0,0.7359,,0,20,20,60,1,REAL,FAKE,,,,,,,,,,,,,,,,,
,,,,,,,,,5611f6dd7ffc8a00058117e7,Mexican,younger than 13,"no, only English or Spanish",no,2025-08-13_14h48.41.626,empathy_intonation_perc,2024.2.4,Linux x86_64,59.88023952,5611f6dd7ffc8a00058117e7,687ed1b7e638a4cbf2f02089,689d0708ed6da857ff7b77d7,,,,,,,,,,,,,,1,,,,,,,,,,,,,,,,,,,,,,,,,,,,,,,,,,,,,,,,,,,,,,,,,,,,,,,,,41,rebuscar,,,,,560.4928,561.8402,1,1,0.8089,,0,21,21,40,1,REAL,FAKE,,,,,,,,,,,,,,,,,
,,,,,,,,,5611f6dd7ffc8a00058117e7,Mexican,younger than 13,"no, only English or Spanish",no,2025-08-13_14h48.41.626,empathy_intonation_perc,2024.2.4,Linux x86_64,59.88023952,5611f6dd7ffc8a00058117e7,687ed1b7e638a4cbf2f02089,689d0708ed6da857ff7b77d7,,,,,,,,,,,,,,1,,,,,,,,,,,,,,,,,,,,,,,,,,,,,,,,,,,,,,,,,,,,,,,,,,,,,,,,,34,aviso,,,,,561.8425,563.2233,0,0,0.8459,,0,22,22,33,1,REAL,FAKE,,,,,,,,,,,,,,,,,
,,,,,,,,,5611f6dd7ffc8a00058117e7,Mexican,younger than 13,"no, only English or Spanish",no,2025-08-13_14h48.41.626,empathy_intonation_perc,2024.2.4,Linux x86_64,59.88023952,5611f6dd7ffc8a00058117e7,687ed1b7e638a4cbf2f02089,689d0708ed6da857ff7b77d7,,,,,,,,,,,,,,1,,,,,,,,,,,,,,,,,,,,,,,,,,,,,,,,,,,,,,,,,,,,,,,,,,,,,,,,,26,secuestro,,,,,563.2253,564.5402,1,1,0.7812,,0,23,23,25,1,REAL,FAKE,,,,,,,,,,,,,,,,,
,,,,,,,,,5611f6dd7ffc8a00058117e7,Mexican,younger than 13,"no, only English or Spanish",no,2025-08-13_14h48.41.626,empathy_intonation_perc,2024.2.4,Linux x86_64,59.88023952,5611f6dd7ffc8a00058117e7,687ed1b7e638a4cbf2f02089,689d0708ed6da857ff7b77d7,,,,,,,,,,,,,,1,,,,,,,,,,,,,,,,,,,,,,,,,,,,,,,,,,,,,,,,,,,,,,,,,,,,,,,,,90,clavel,,,,,564.5428,565.857,0,0,0.7831,,0,24,24,89,1,REAL,FAKE,,,,,,,,,,,,,,,,,
,,,,,,,,,5611f6dd7ffc8a00058117e7,Mexican,younger than 13,"no, only English or Spanish",no,2025-08-13_14h48.41.626,empathy_intonation_perc,2024.2.4,Linux x86_64,59.88023952,5611f6dd7ffc8a00058117e7,687ed1b7e638a4cbf2f02089,689d0708ed6da857ff7b77d7,,,,,,,,,,,,,,1,,,,,,,,,,,,,,,,,,,,,,,,,,,,,,,,,,,,,,,,,,,,,,,,,,,,,,,,,52,camisa,,,,,565.8599,567.1568,1,1,0.7657,,0,25,25,51,1,REAL,FAKE,,,,,,,,,,,,,,,,,
,,,,,,,,,5611f6dd7ffc8a00058117e7,Mexican,younger than 13,"no, only English or Spanish",no,2025-08-13_14h48.41.626,empathy_intonation_perc,2024.2.4,Linux x86_64,59.88023952,5611f6dd7ffc8a00058117e7,687ed1b7e638a4cbf2f02089,689d0708ed6da857ff7b77d7,,,,,,,,,,,,,,1,,,,,,,,,,,,,,,,,,,,,,,,,,,,,,,,,,,,,,,,,,,,,,,,,,,,,,,,,14,yunque,,,,,567.1593,569.1067,0,0,1.4129,,0,26,26,13,1,REAL,FAKE,,,,,,,,,,,,,,,,,
,,,,,,,,,5611f6dd7ffc8a00058117e7,Mexican,younger than 13,"no, only English or Spanish",no,2025-08-13_14h48.41.626,empathy_intonation_perc,2024.2.4,Linux x86_64,59.88023952,5611f6dd7ffc8a00058117e7,687ed1b7e638a4cbf2f02089,689d0708ed6da857ff7b77d7,,,,,,,,,,,,,,1,,,,,,,,,,,,,,,,,,,,,,,,,,,,,,,,,,,,,,,,,,,,,,,,,,,,,,,,,28,merodear,,,,,569.1087,570.6072,0,0,0.9691,,0,27,27,27,1,REAL,FAKE,,,,,,,,,,,,,,,,,
,,,,,,,,,5611f6dd7ffc8a00058117e7,Mexican,younger than 13,"no, only English or Spanish",no,2025-08-13_14h48.41.626,empathy_intonation_perc,2024.2.4,Linux x86_64,59.88023952,5611f6dd7ffc8a00058117e7,687ed1b7e638a4cbf2f02089,689d0708ed6da857ff7b77d7,,,,,,,,,,,,,,0,,,,,,,,,,,,,,,,,,,,,,,,,,,,,,,,,,,,,,,,,,,,,,,,,,,,,,,,,84,escuto,,,,,570.6092,571.6733,0,1,0.5314,,0,28,28,83,1,REAL,FAKE,,,,,,,,,,,,,,,,,
,,,,,,,,,5611f6dd7ffc8a00058117e7,Mexican,younger than 13,"no, only English or Spanish",no,2025-08-13_14h48.41.626,empathy_intonation_perc,2024.2.4,Linux x86_64,59.88023952,5611f6dd7ffc8a00058117e7,687ed1b7e638a4cbf2f02089,689d0708ed6da857ff7b77d7,,,,,,,,,,,,,,1,,,,,,,,,,,,,,,,,,,,,,,,,,,,,,,,,,,,,,,,,,,,,,,,,,,,,,,,,68,alegre,,,,,571.6754,572.7902,0,0,0.5808,,0,29,29,67,1,REAL,FAKE,,,,,,,,,,,,,,,,,
,,,,,,,,,5611f6dd7ffc8a00058117e7,Mexican,younger than 13,"no, only English or Spanish",no,2025-08-13_14h48.41.626,empathy_intonation_perc,2024.2.4,Linux x86_64,59.88023952,5611f6dd7ffc8a00058117e7,687ed1b7e638a4cbf2f02089,689d0708ed6da857ff7b77d7,,,,,,,,,,,,,,0,,,,,,,,,,,,,,,,,,,,,,,,,,,,,,,,,,,,,,,,,,,,,,,,,,,,,,,,,32,fatacidad,,,,,572.7928,574.1738,0,1,0.8558,,0,30,30,31,1,REAL,FAKE,,,,,,,,,,,,,,,,,
,,,,,,,,,5611f6dd7ffc8a00058117e7,Mexican,younger than 13,"no, only English or Spanish",no,2025-08-13_14h48.41.626,empathy_intonation_perc,2024.2.4,Linux x86_64,59.88023952,5611f6dd7ffc8a00058117e7,687ed1b7e638a4cbf2f02089,689d0708ed6da857ff7b77d7,,,,,,,,,,,,,,0,,,,,,,,,,,,,,,,,,,,,,,,,,,,,,,,,,,,,,,,,,,,,,,,,,,,,,,,,87,grodo,,,,,574.1758,576.0572,0,1,1.3452,,0,31,31,86,1,REAL,FAKE,,,,,,,,,,,,,,,,,
,,,,,,,,,5611f6dd7ffc8a00058117e7,Mexican,younger than 13,"no, only English or Spanish",no,2025-08-13_14h48.41.626,empathy_intonation_perc,2024.2.4,Linux x86_64,59.88023952,5611f6dd7ffc8a00058117e7,687ed1b7e638a4cbf2f02089,689d0708ed6da857ff7b77d7,,,,,,,,,,,,,,1,,,,,,,,,,,,,,,,,,,,,,,,,,,,,,,,,,,,,,,,,,,,,,,,,,,,,,,,,6,tergiversar,,,,,576.0602,577.39,0,0,0.7975,,0,32,32,5,1,REAL,FAKE,,,,,,,,,,,,,,,,,
,,,,,,,,,5611f6dd7ffc8a00058117e7,Mexican,younger than 13,"no, only English or Spanish",no,2025-08-13_14h48.41.626,empathy_intonation_perc,2024.2.4,Linux x86_64,59.88023952,5611f6dd7ffc8a00058117e7,687ed1b7e638a4cbf2f02089,689d0708ed6da857ff7b77d7,,,,,,,,,,,,,,1,,,,,,,,,,,,,,,,,,,,,,,,,,,,,,,,,,,,,,,,,,,,,,,,,,,,,,,,,77,tiburón,,,,,577.3922,578.99,0,0,1.0598,,0,33,33,76,1,REAL,FAKE,,,,,,,,,,,,,,,,,
,,,,,,,,,5611f6dd7ffc8a00058117e7,Mexican,younger than 13,"no, only English or Spanish",no,2025-08-13_14h48.41.626,empathy_intonation_perc,2024.2.4,Linux x86_64,59.88023952,5611f6dd7ffc8a00058117e7,687ed1b7e638a4cbf2f02089,689d0708ed6da857ff7b77d7,,,,,,,,,,,,,,1,,,,,,,,,,,,,,,,,,,,,,,,,,,,,,,,,,,,,,,,,,,,,,,,,,,,,,,,,88,acantilado,,,,,578.9921,581.0402,0,0,1.5133,,0,34,34,87,1,REAL,FAKE,,,,,,,,,,,,,,,,,
,,,,,,,,,5611f6dd7ffc8a00058117e7,Mexican,younger than 13,"no, only English or Spanish",no,2025-08-13_14h48.41.626,empathy_intonation_perc,2024.2.4,Linux x86_64,59.88023952,5611f6dd7ffc8a00058117e7,687ed1b7e638a4cbf2f02089,689d0708ed6da857ff7b77d7,,,,,,,,,,,,,,0,,,,,,,,,,,,,,,,,,,,,,,,,,,,,,,,,,,,,,,,,,,,,,,,,,,,,,,,,70,temblo,,,,,581.043,582.7402,1,0,1.1599,,0,35,35,69,1,REAL,FAKE,,,,,,,,,,,,,,,,,
,,,,,,,,,5611f6dd7ffc8a00058117e7,Mexican,younger than 13,"no, only English or Spanish",no,2025-08-13_14h48.41.626,empathy_intonation_perc,2024.2.4,Linux x86_64,59.88023952,5611f6dd7ffc8a00058117e7,687ed1b7e638a4cbf2f02089,689d0708ed6da857ff7b77d7,,,,,,,,,,,,,,1,,,,,,,,,,,,,,,,,,,,,,,,,,,,,,,,,,,,,,,,,,,,,,,,,,,,,,,,,55,nevar,,,,,582.7427,583.9567,0,0,0.6801,,0,36,36,54,1,REAL,FAKE,,,,,,,,,,,,,,,,,
,,,,,,,,,5611f6dd7ffc8a00058117e7,Mexican,younger than 13,"no, only English or Spanish",no,2025-08-13_14h48.41.626,empathy_intonation_perc,2024.2.4,Linux x86_64,59.88023952,5611f6dd7ffc8a00058117e7,687ed1b7e638a4cbf2f02089,689d0708ed6da857ff7b77d7,,,,,,,,,,,,,,0,,,,,,,,,,,,,,,,,,,,,,,,,,,,,,,,,,,,,,,,,,,,,,,,,,,,,,,,,17,floroso,,,,,583.9588,585.3069,0,1,0.8118,,0,37,37,16,1,REAL,FAKE,,,,,,,,,,,,,,,,,
,,,,,,,,,5611f6dd7ffc8a00058117e7,Mexican,younger than 13,"no, only English or Spanish",no,2025-08-13_14h48.41.626,empathy_intonation_perc,2024.2.4,Linux x86_64,59.88023952,5611f6dd7ffc8a00058117e7,687ed1b7e638a4cbf2f02089,689d0708ed6da857ff7b77d7,,,,,,,,,,,,,,0,,,,,,,,,,,,,,,,,,,,,,,,,,,,,,,,,,,,,,,,,,,,,,,,,,,,,,,,,42,cadallo,,,,,585.3099,587.0399,0,1,1.1939,,0,38,38,41,1,REAL,FAKE,,,,,,,,,,,,,,,,,
,,,,,,,,,5611f6dd7ffc8a00058117e7,Mexican,younger than 13,"no, only English or Spanish",no,2025-08-13_14h48.41.626,empathy_intonation_perc,2024.2.4,Linux x86_64,59.88023952,5611f6dd7ffc8a00058117e7,687ed1b7e638a4cbf2f02089,689d0708ed6da857ff7b77d7,,,,,,,,,,,,,,0,,,,,,,,,,,,,,,,,,,,,,,,,,,,,,,,,,,,,,,,,,,,,,,,,,,,,,,,,72,pemición,,,,,587.042,588.3569,0,1,0.78,,0,39,39,71,1,REAL,FAKE,,,,,,,,,,,,,,,,,
,,,,,,,,,5611f6dd7ffc8a00058117e7,Mexican,younger than 13,"no, only English or Spanish",no,2025-08-13_14h48.41.626,empathy_intonation_perc,2024.2.4,Linux x86_64,59.88023952,5611f6dd7ffc8a00058117e7,687ed1b7e638a4cbf2f02089,689d0708ed6da857ff7b77d7,,,,,,,,,,,,,,1,,,,,,,,,,,,,,,,,,,,,,,,,,,,,,,,,,,,,,,,,,,,,,,,,,,,,,,,,83,guante,,,,,588.359,590.5902,0,0,1.6938,,0,40,40,82,1,REAL,FAKE,,,,,,,,,,,,,,,,,
,,,,,,,,,5611f6dd7ffc8a00058117e7,Mexican,younger than 13,"no, only English or Spanish",no,2025-08-13_14h48.41.626,empathy_intonation_perc,2024.2.4,Linux x86_64,59.88023952,5611f6dd7ffc8a00058117e7,687ed1b7e638a4cbf2f02089,689d0708ed6da857ff7b77d7,,,,,,,,,,,,,,0,,,,,,,,,,,,,,,,,,,,,,,,,,,,,,,,,,,,,,,,,,,,,,,,,,,,,,,,,53,vegada,,,,,590.5928,614.8568,1,0,23.734,,0,41,41,52,1,REAL,FAKE,,,,,,,,,,,,,,,,,
,,,,,,,,,5611f6dd7ffc8a00058117e7,Mexican,younger than 13,"no, only English or Spanish",no,2025-08-13_14h48.41.626,empathy_intonation_perc,2024.2.4,Linux x86_64,59.88023952,5611f6dd7ffc8a00058117e7,687ed1b7e638a4cbf2f02089,689d0708ed6da857ff7b77d7,,,,,,,,,,,,,,1,,,,,,,,,,,,,,,,,,,,,,,,,,,,,,,,,,,,,,,,,,,,,,,,,,,,,,,,,75,yacer,,,,,614.8589,616.14,1,1,0.7422,,0,42,42,74,1,REAL,FAKE,,,,,,,,,,,,,,,,,
,,,,,,,,,5611f6dd7ffc8a00058117e7,Mexican,younger than 13,"no, only English or Spanish",no,2025-08-13_14h48.41.626,empathy_intonation_perc,2024.2.4,Linux x86_64,59.88023952,5611f6dd7ffc8a00058117e7,687ed1b7e638a4cbf2f02089,689d0708ed6da857ff7b77d7,,,,,,,,,,,,,,1,,,,,,,,,,,,,,,,,,,,,,,,,,,,,,,,,,,,,,,,,,,,,,,,,,,,,,,,,39,torpe,,,,,616.1421,617.9746,0,0,1.3072,,0,43,43,38,1,REAL,FAKE,,,,,,,,,,,,,,,,,
,,,,,,,,,5611f6dd7ffc8a00058117e7,Mexican,younger than 13,"no, only English or Spanish",no,2025-08-13_14h48.41.626,empathy_intonation_perc,2024.2.4,Linux x86_64,59.88023952,5611f6dd7ffc8a00058117e7,687ed1b7e638a4cbf2f02089,689d0708ed6da857ff7b77d7,,,,,,,,,,,,,,0,,,,,,,,,,,,,,,,,,,,,,,,,,,,,,,,,,,,,,,,,,,,,,,,,,,,,,,,,92,click the 0 key.,,,,,617.9777,619.307,0,1,0.7941,,0,44,44,91,1,REAL,FAKE,,,,,,,,,,,,,,,,,
,,,,,,,,,5611f6dd7ffc8a00058117e7,Mexican,younger than 13,"no, only English or Spanish",no,2025-08-13_14h48.41.626,empathy_intonation_perc,2024.2.4,Linux x86_64,59.88023952,5611f6dd7ffc8a00058117e7,687ed1b7e638a4cbf2f02089,689d0708ed6da857ff7b77d7,,,,,,,,,,,,,,0,,,,,,,,,,,,,,,,,,,,,,,,,,,,,,,,,,,,,,,,,,,,,,,,,,,,,,,,,33,pauca,,,,,619.3099,620.4568,0,1,0.6191,,0,45,45,32,1,REAL,FAKE,,,,,,,,,,,,,,,,,
,,,,,,,,,5611f6dd7ffc8a00058117e7,Mexican,younger than 13,"no, only English or Spanish",no,2025-08-13_14h48.41.626,empathy_intonation_perc,2024.2.4,Linux x86_64,59.88023952,5611f6dd7ffc8a00058117e7,687ed1b7e638a4cbf2f02089,689d0708ed6da857ff7b77d7,,,,,,,,,,,,,,1,,,,,,,,,,,,,,,,,,,,,,,,,,,,,,,,,,,,,,,,,,,,,,,,,,,,,,,,,31,pandilla,,,,,620.46,621.6737,0,0,0.6816,,0,46,46,30,1,REAL,FAKE,,,,,,,,,,,,,,,,,
,,,,,,,,,5611f6dd7ffc8a00058117e7,Mexican,younger than 13,"no, only English or Spanish",no,2025-08-13_14h48.41.626,empathy_intonation_perc,2024.2.4,Linux x86_64,59.88023952,5611f6dd7ffc8a00058117e7,687ed1b7e638a4cbf2f02089,689d0708ed6da857ff7b77d7,,,,,,,,,,,,,,0,,,,,,,,,,,,,,,,,,,,,,,,,,,,,,,,,,,,,,,,,,,,,,,,,,,,,,,,,82,empirador,,,,,621.6764,622.774,0,1,0.5733,,0,47,47,81,1,REAL,FAKE,,,,,,,,,,,,,,,,,
,,,,,,,,,5611f6dd7ffc8a00058117e7,Mexican,younger than 13,"no, only English or Spanish",no,2025-08-13_14h48.41.626,empathy_intonation_perc,2024.2.4,Linux x86_64,59.88023952,5611f6dd7ffc8a00058117e7,687ed1b7e638a4cbf2f02089,689d0708ed6da857ff7b77d7,,,,,,,,,,,,,,0,,,,,,,,,,,,,,,,,,,,,,,,,,,,,,,,,,,,,,,,,,,,,,,,,,,,,,,,,4,batillón,,,,,622.7762,623.8068,0,1,0.4975,,0,48,48,3,1,REAL,FAKE,,,,,,,,,,,,,,,,,
,,,,,,,,,5611f6dd7ffc8a00058117e7,Mexican,younger than 13,"no, only English or Spanish",no,2025-08-13_14h48.41.626,empathy_intonation_perc,2024.2.4,Linux x86_64,59.88023952,5611f6dd7ffc8a00058117e7,687ed1b7e638a4cbf2f02089,689d0708ed6da857ff7b77d7,,,,,,,,,,,,,,1,,,,,,,,,,,,,,,,,,,,,,,,,,,,,,,,,,,,,,,,,,,,,,,,,,,,,,,,,64,orgulloso,,,,,623.8088,624.8402,0,0,0.4972,,0,49,49,63,1,REAL,FAKE,,,,,,,,,,,,,,,,,
,,,,,,,,,5611f6dd7ffc8a00058117e7,Mexican,younger than 13,"no, only English or Spanish",no,2025-08-13_14h48.41.626,empathy_intonation_perc,2024.2.4,Linux x86_64,59.88023952,5611f6dd7ffc8a00058117e7,687ed1b7e638a4cbf2f02089,689d0708ed6da857ff7b77d7,,,,,,,,,,,,,,1,,,,,,,,,,,,,,,,,,,,,,,,,,,,,,,,,,,,,,,,,,,,,,,,,,,,,,,,,20,ávido,,,,,624.8423,625.8901,0,0,0.5189,,0,50,50,19,1,REAL,FAKE,,,,,,,,,,,,,,,,,
,,,,,,,,,5611f6dd7ffc8a00058117e7,Mexican,younger than 13,"no, only English or Spanish",no,2025-08-13_14h48.41.626,empathy_intonation_perc,2024.2.4,Linux x86_64,59.88023952,5611f6dd7ffc8a00058117e7,687ed1b7e638a4cbf2f02089,689d0708ed6da857ff7b77d7,,,,,,,,,,,,,,1,,,,,,,,,,,,,,,,,,,,,,,,,,,,,,,,,,,,,,,,,,,,,,,,,,,,,,,,,25,bisagra,,,,,625.8928,627.0402,0,0,0.6216,,0,51,51,24,1,REAL,FAKE,,,,,,,,,,,,,,,,,
,,,,,,,,,5611f6dd7ffc8a00058117e7,Mexican,younger than 13,"no, only English or Spanish",no,2025-08-13_14h48.41.626,empathy_intonation_perc,2024.2.4,Linux x86_64,59.88023952,5611f6dd7ffc8a00058117e7,687ed1b7e638a4cbf2f02089,689d0708ed6da857ff7b77d7,,,,,,,,,,,,,,1,,,,,,,,,,,,,,,,,,,,,,,,,,,,,,,,,,,,,,,,,,,,,,,,,,,,,,,,,2,pellizcar,,,,,627.0429,628.0734,0,0,0.4931,,0,52,52,1,1,REAL,FAKE,,,,,,,,,,,,,,,,,
,,,,,,,,,5611f6dd7ffc8a00058117e7,Mexican,younger than 13,"no, only English or Spanish",no,2025-08-13_14h48.41.626,empathy_intonation_perc,2024.2.4,Linux x86_64,59.88023952,5611f6dd7ffc8a00058117e7,687ed1b7e638a4cbf2f02089,689d0708ed6da857ff7b77d7,,,,,,,,,,,,,,1,,,,,,,,,,,,,,,,,,,,,,,,,,,,,,,,,,,,,,,,,,,,,,,,,,,,,,,,,36,loro,,,,,628.0764,628.9905,0,0,0.3902,,0,53,53,35,1,REAL,FAKE,,,,,,,,,,,,,,,,,
,,,,,,,,,5611f6dd7ffc8a00058117e7,Mexican,younger than 13,"no, only English or Spanish",no,2025-08-13_14h48.41.626,empathy_intonation_perc,2024.2.4,Linux x86_64,59.88023952,5611f6dd7ffc8a00058117e7,687ed1b7e638a4cbf2f02089,689d0708ed6da857ff7b77d7,,,,,,,,,,,,,,0,,,,,,,,,,,,,,,,,,,,,,,,,,,,,,,,,,,,,,,,,,,,,,,,,,,,,,,,,18,arsa,,,,,628.9932,629.8401,0,1,0.3217,,0,54,54,17,1,REAL,FAKE,,,,,,,,,,,,,,,,,
,,,,,,,,,5611f6dd7ffc8a00058117e7,Mexican,younger than 13,"no, only English or Spanish",no,2025-08-13_14h48.41.626,empathy_intonation_perc,2024.2.4,Linux x86_64,59.88023952,5611f6dd7ffc8a00058117e7,687ed1b7e638a4cbf2f02089,689d0708ed6da857ff7b77d7,,,,,,,,,,,,,,1,,,,,,,,,,,,,,,,,,,,,,,,,,,,,,,,,,,,,,,,,,,,,,,,,,,,,,,,,7,pésimo,,,,,629.8426,630.8401,0,0,0.4707,,0,55,55,6,1,REAL,FAKE,,,,,,,,,,,,,,,,,
,,,,,,,,,5611f6dd7ffc8a00058117e7,Mexican,younger than 13,"no, only English or Spanish",no,2025-08-13_14h48.41.626,empathy_intonation_perc,2024.2.4,Linux x86_64,59.88023952,5611f6dd7ffc8a00058117e7,687ed1b7e638a4cbf2f02089,689d0708ed6da857ff7b77d7,,,,,,,,,,,,,,0,,,,,,,,,,,,,,,,,,,,,,,,,,,,,,,,,,,,,,,,,,,,,,,,,,,,,,,,,50,flamida,,,,,630.8431,631.7577,0,1,0.3896,,0,56,56,49,1,REAL,FAKE,,,,,,,,,,,,,,,,,
,,,,,,,,,5611f6dd7ffc8a00058117e7,Mexican,younger than 13,"no, only English or Spanish",no,2025-08-13_14h48.41.626,empathy_intonation_perc,2024.2.4,Linux x86_64,59.88023952,5611f6dd7ffc8a00058117e7,687ed1b7e638a4cbf2f02089,689d0708ed6da857ff7b77d7,,,,,,,,,,,,,,1,,,,,,,,,,,,,,,,,,,,,,,,,,,,,,,,,,,,,,,,,,,,,,,,,,,,,,,,,57,tacaño,,,,,631.7605,632.7735,1,1,0.4804,,0,57,57,56,1,REAL,FAKE,,,,,,,,,,,,,,,,,
,,,,,,,,,5611f6dd7ffc8a00058117e7,Mexican,younger than 13,"no, only English or Spanish",no,2025-08-13_14h48.41.626,empathy_intonation_perc,2024.2.4,Linux x86_64,59.88023952,5611f6dd7ffc8a00058117e7,687ed1b7e638a4cbf2f02089,689d0708ed6da857ff7b77d7,,,,,,,,,,,,,,1,,,,,,,,,,,,,,,,,,,,,,,,,,,,,,,,,,,,,,,,,,,,,,,,,,,,,,,,,67,cabello,,,,,632.7754,633.8067,1,1,0.5051,,0,58,58,66,1,REAL,FAKE,,,,,,,,,,,,,,,,,
,,,,,,,,,5611f6dd7ffc8a00058117e7,Mexican,younger than 13,"no, only English or Spanish",no,2025-08-13_14h48.41.626,empathy_intonation_perc,2024.2.4,Linux x86_64,59.88023952,5611f6dd7ffc8a00058117e7,687ed1b7e638a4cbf2f02089,689d0708ed6da857ff7b77d7,,,,,,,,,,,,,,1,,,,,,,,,,,,,,,,,,,,,,,,,,,,,,,,,,,,,,,,,,,,,,,,,,,,,,,,,46,martillo,,,,,633.8087,634.7067,0,0,0.3683,,0,59,59,45,1,REAL,FAKE,,,,,,,,,,,,,,,,,
,,,,,,,,,5611f6dd7ffc8a00058117e7,Mexican,younger than 13,"no, only English or Spanish",no,2025-08-13_14h48.41.626,empathy_intonation_perc,2024.2.4,Linux x86_64,59.88023952,5611f6dd7ffc8a00058117e7,687ed1b7e638a4cbf2f02089,689d0708ed6da857ff7b77d7,,,,,,,,,,,,,,1,,,,,,,,,,,,,,,,,,,,,,,,,,,,,,,,,,,,,,,,,,,,,,,,,,,,,,,,,51,candado,,,,,634.7087,635.5744,0,0,0.3405,,0,60,60,50,1,REAL,FAKE,,,,,,,,,,,,,,,,,
,,,,,,,,,5611f6dd7ffc8a00058117e7,Mexican,younger than 13,"no, only English or Spanish",no,2025-08-13_14h48.41.626,empathy_intonation_perc,2024.2.4,Linux x86_64,59.88023952,5611f6dd7ffc8a00058117e7,687ed1b7e638a4cbf2f02089,689d0708ed6da857ff7b77d7,,,,,,,,,,,,,,1,,,,,,,,,,,,,,,,,,,,,,,,,,,,,,,,,,,,,,,,,,,,,,,,,,,,,,,,,65,bizcocho,,,,,635.577,636.4735,0,0,0.3644,,0,61,61,64,1,REAL,FAKE,,,,,,,,,,,,,,,,,
,,,,,,,,,5611f6dd7ffc8a00058117e7,Mexican,younger than 13,"no, only English or Spanish",no,2025-08-13_14h48.41.626,empathy_intonation_perc,2024.2.4,Linux x86_64,59.88023952,5611f6dd7ffc8a00058117e7,687ed1b7e638a4cbf2f02089,689d0708ed6da857ff7b77d7,,,,,,,,,,,,,,1,,,,,,,,,,,,,,,,,,,,,,,,,,,,,,,,,,,,,,,,,,,,,,,,,,,,,,,,,73,hervidor,,,,,636.4755,637.3899,0,0,0.3889,,0,62,62,72,1,REAL,FAKE,,,,,,,,,,,,,,,,,
,,,,,,,,,5611f6dd7ffc8a00058117e7,Mexican,younger than 13,"no, only English or Spanish",no,2025-08-13_14h48.41.626,empathy_intonation_perc,2024.2.4,Linux x86_64,59.88023952,5611f6dd7ffc8a00058117e7,687ed1b7e638a4cbf2f02089,689d0708ed6da857ff7b77d7,,,,,,,,,,,,,,1,,,,,,,,,,,,,,,,,,,,,,,,,,,,,,,,,,,,,,,,,,,,,,,,,,,,,,,,,3,pulmones,,,,,637.3919,638.3568,0,0,0.4332,,0,63,63,2,1,REAL,FAKE,,,,,,,,,,,,,,,,,
,,,,,,,,,5611f6dd7ffc8a00058117e7,Mexican,younger than 13,"no, only English or Spanish",no,2025-08-13_14h48.41.626,empathy_intonation_perc,2024.2.4,Linux x86_64,59.88023952,5611f6dd7ffc8a00058117e7,687ed1b7e638a4cbf2f02089,689d0708ed6da857ff7b77d7,,,,,,,,,,,,,,1,,,,,,,,,,,,,,,,,,,,,,,,,,,,,,,,,,,,,,,,,,,,,,,,,,,,,,,,,81,pozo,,,,,638.3594,639.3233,0,0,0.431,,0,64,64,80,1,REAL,FAKE,,,,,,,,,,,,,,,,,
,,,,,,,,,5611f6dd7ffc8a00058117e7,Mexican,younger than 13,"no, only English or Spanish",no,2025-08-13_14h48.41.626,empathy_intonation_perc,2024.2.4,Linux x86_64,59.88023952,5611f6dd7ffc8a00058117e7,687ed1b7e638a4cbf2f02089,689d0708ed6da857ff7b77d7,,,,,,,,,,,,,,1,,,,,,,,,,,,,,,,,,,,,,,,,,,,,,,,,,,,,,,,,,,,,,,,,,,,,,,,,59,besar,,,,,639.3253,640.2902,0,0,0.4311,,0,65,65,58,1,REAL,FAKE,,,,,,,,,,,,,,,,,
,,,,,,,,,5611f6dd7ffc8a00058117e7,Mexican,younger than 13,"no, only English or Spanish",no,2025-08-13_14h48.41.626,empathy_intonation_perc,2024.2.4,Linux x86_64,59.88023952,5611f6dd7ffc8a00058117e7,687ed1b7e638a4cbf2f02089,689d0708ed6da857ff7b77d7,,,,,,,,,,,,,,1,,,,,,,,,,,,,,,,,,,,,,,,,,,,,,,,,,,,,,,,,,,,,,,,,,,,,,,,,43,canela,,,,,640.2928,641.2567,0,0,0.4361,,0,66,66,42,1,REAL,FAKE,,,,,,,,,,,,,,,,,
,,,,,,,,,5611f6dd7ffc8a00058117e7,Mexican,younger than 13,"no, only English or Spanish",no,2025-08-13_14h48.41.626,empathy_intonation_perc,2024.2.4,Linux x86_64,59.88023952,5611f6dd7ffc8a00058117e7,687ed1b7e638a4cbf2f02089,689d0708ed6da857ff7b77d7,,,,,,,,,,,,,,1,,,,,,,,,,,,,,,,,,,,,,,,,,,,,,,,,,,,,,,,,,,,,,,,,,,,,,,,,48,ladrón,,,,,641.2587,642.1738,1,1,0.3813,,0,67,67,47,1,REAL,FAKE,,,,,,,,,,,,,,,,,
,,,,,,,,,5611f6dd7ffc8a00058117e7,Mexican,younger than 13,"no, only English or Spanish",no,2025-08-13_14h48.41.626,empathy_intonation_perc,2024.2.4,Linux x86_64,59.88023952,5611f6dd7ffc8a00058117e7,687ed1b7e638a4cbf2f02089,689d0708ed6da857ff7b77d7,,,,,,,,,,,,,,1,,,,,,,,,,,,,,,,,,,,,,,,,,,,,,,,,,,,,,,,,,,,,,,,,,,,,,,,,76,atar,,,,,642.1763,643.1068,1,1,0.3976,,0,68,68,75,1,REAL,FAKE,,,,,,,,,,,,,,,,,
,,,,,,,,,5611f6dd7ffc8a00058117e7,Mexican,younger than 13,"no, only English or Spanish",no,2025-08-13_14h48.41.626,empathy_intonation_perc,2024.2.4,Linux x86_64,59.88023952,5611f6dd7ffc8a00058117e7,687ed1b7e638a4cbf2f02089,689d0708ed6da857ff7b77d7,,,,,,,,,,,,,,0,,,,,,,,,,,,,,,,,,,,,,,,,,,,,,,,,,,,,,,,,,,,,,,,,,,,,,,,,10,antar,,,,,643.1088,643.9739,0,1,0.3397,,0,69,69,9,1,REAL,FAKE,,,,,,,,,,,,,,,,,
,,,,,,,,,5611f6dd7ffc8a00058117e7,Mexican,younger than 13,"no, only English or Spanish",no,2025-08-13_14h48.41.626,empathy_intonation_perc,2024.2.4,Linux x86_64,59.88023952,5611f6dd7ffc8a00058117e7,687ed1b7e638a4cbf2f02089,689d0708ed6da857ff7b77d7,,,,,,,,,,,,,,1,,,,,,,,,,,,,,,,,,,,,,,,,,,,,,,,,,,,,,,,,,,,,,,,,,,,,,,,,5,zapato,,,,,643.9758,644.8401,0,0,0.3386,,0,70,70,4,1,REAL,FAKE,,,,,,,,,,,,,,,,,
,,,,,,,,,5611f6dd7ffc8a00058117e7,Mexican,younger than 13,"no, only English or Spanish",no,2025-08-13_14h48.41.626,empathy_intonation_perc,2024.2.4,Linux x86_64,59.88023952,5611f6dd7ffc8a00058117e7,687ed1b7e638a4cbf2f02089,689d0708ed6da857ff7b77d7,,,,,,,,,,,,,,1,,,,,,,,,,,,,,,,,,,,,,,,,,,,,,,,,,,,,,,,,,,,,,,,,,,,,,,,,60,matar,,,,,644.8429,645.8067,0,0,0.4392,,0,71,71,59,1,REAL,FAKE,,,,,,,,,,,,,,,,,
,,,,,,,,,5611f6dd7ffc8a00058117e7,Mexican,younger than 13,"no, only English or Spanish",no,2025-08-13_14h48.41.626,empathy_intonation_perc,2024.2.4,Linux x86_64,59.88023952,5611f6dd7ffc8a00058117e7,687ed1b7e638a4cbf2f02089,689d0708ed6da857ff7b77d7,,,,,,,,,,,,,,0,,,,,,,,,,,,,,,,,,,,,,,,,,,,,,,,,,,,,,,,,,,,,,,,,,,,,,,,,1,terzo,,,,,645.8089,647.0234,0,1,0.6877,,0,72,72,0,1,REAL,FAKE,,,,,,,,,,,,,,,,,
,,,,,,,,,5611f6dd7ffc8a00058117e7,Mexican,younger than 13,"no, only English or Spanish",no,2025-08-13_14h48.41.626,empathy_intonation_perc,2024.2.4,Linux x86_64,59.88023952,5611f6dd7ffc8a00058117e7,687ed1b7e638a4cbf2f02089,689d0708ed6da857ff7b77d7,,,,,,,,,,,,,,1,,,,,,,,,,,,,,,,,,,,,,,,,,,,,,,,,,,,,,,,,,,,,,,,,,,,,,,,,49,ganar,,,,,647.0253,648.1234,0,0,0.5639,,0,73,73,48,1,REAL,FAKE,,,,,,,,,,,,,,,,,
,,,,,,,,,5611f6dd7ffc8a00058117e7,Mexican,younger than 13,"no, only English or Spanish",no,2025-08-13_14h48.41.626,empathy_intonation_perc,2024.2.4,Linux x86_64,59.88023952,5611f6dd7ffc8a00058117e7,687ed1b7e638a4cbf2f02089,689d0708ed6da857ff7b77d7,,,,,,,,,,,,,,1,,,,,,,,,,,,,,,,,,,,,,,,,,,,,,,,,,,,,,,,,,,,,,,,,,,,,,,,,71,polvoriento,,,,,648.1253,649.1904,0,0,0.5275,,0,74,74,70,1,REAL,FAKE,,,,,,,,,,,,,,,,,
,,,,,,,,,5611f6dd7ffc8a00058117e7,Mexican,younger than 13,"no, only English or Spanish",no,2025-08-13_14h48.41.626,empathy_intonation_perc,2024.2.4,Linux x86_64,59.88023952,5611f6dd7ffc8a00058117e7,687ed1b7e638a4cbf2f02089,689d0708ed6da857ff7b77d7,,,,,,,,,,,,,,1,,,,,,,,,,,,,,,,,,,,,,,,,,,,,,,,,,,,,,,,,,,,,,,,,,,,,,,,,13,helar,,,,,649.193,650.3069,1,1,0.5811,,0,75,75,12,1,REAL,FAKE,,,,,,,,,,,,,,,,,
,,,,,,,,,5611f6dd7ffc8a00058117e7,Mexican,younger than 13,"no, only English or Spanish",no,2025-08-13_14h48.41.626,empathy_intonation_perc,2024.2.4,Linux x86_64,59.88023952,5611f6dd7ffc8a00058117e7,687ed1b7e638a4cbf2f02089,689d0708ed6da857ff7b77d7,,,,,,,,,,,,,,1,,,,,,,,,,,,,,,,,,,,,,,,,,,,,,,,,,,,,,,,,,,,,,,,,,,,,,,,,56,musgo,,,,,650.3096,651.3235,1,1,0.4833,,0,76,76,55,1,REAL,FAKE,,,,,,,,,,,,,,,,,
,,,,,,,,,5611f6dd7ffc8a00058117e7,Mexican,younger than 13,"no, only English or Spanish",no,2025-08-13_14h48.41.626,empathy_intonation_perc,2024.2.4,Linux x86_64,59.88023952,5611f6dd7ffc8a00058117e7,687ed1b7e638a4cbf2f02089,689d0708ed6da857ff7b77d7,,,,,,,,,,,,,,1,,,,,,,,,,,,,,,,,,,,,,,,,,,,,,,,,,,,,,,,,,,,,,,,,,,,,,,,,22,lacayo,,,,,651.3262,652.19,0,0,0.3386,,0,77,77,21,1,REAL,FAKE,,,,,,,,,,,,,,,,,
,,,,,,,,,5611f6dd7ffc8a00058117e7,Mexican,younger than 13,"no, only English or Spanish",no,2025-08-13_14h48.41.626,empathy_intonation_perc,2024.2.4,Linux x86_64,59.88023952,5611f6dd7ffc8a00058117e7,687ed1b7e638a4cbf2f02089,689d0708ed6da857ff7b77d7,,,,,,,,,,,,,,1,,,,,,,,,,,,,,,,,,,,,,,,,,,,,,,,,,,,,,,,,,,,,,,,,,,,,,,,,37,granuja,,,,,652.192,653.1067,0,0,0.3847,,0,78,78,36,1,REAL,FAKE,,,,,,,,,,,,,,,,,
,,,,,,,,,5611f6dd7ffc8a00058117e7,Mexican,younger than 13,"no, only English or Spanish",no,2025-08-13_14h48.41.626,empathy_intonation_perc,2024.2.4,Linux x86_64,59.88023952,5611f6dd7ffc8a00058117e7,687ed1b7e638a4cbf2f02089,689d0708ed6da857ff7b77d7,,,,,,,,,,,,,,1,,,,,,,,,,,,,,,,,,,,,,,,,,,,,,,,,,,,,,,,,,,,,,,,,,,,,,,,,9,hacha,,,,,653.1086,653.9737,0,0,0.3318,,0,79,79,8,1,REAL,FAKE,,,,,,,,,,,,,,,,,
,,,,,,,,,5611f6dd7ffc8a00058117e7,Mexican,younger than 13,"no, only English or Spanish",no,2025-08-13_14h48.41.626,empathy_intonation_perc,2024.2.4,Linux x86_64,59.88023952,5611f6dd7ffc8a00058117e7,687ed1b7e638a4cbf2f02089,689d0708ed6da857ff7b77d7,,,,,,,,,,,,,,1,,,,,,,,,,,,,,,,,,,,,,,,,,,,,,,,,,,,,,,,,,,,,,,,,,,,,,,,,80,hormiga,,,,,653.9757,654.9743,0,0,0.4748,,0,80,80,79,1,REAL,FAKE,,,,,,,,,,,,,,,,,
,,,,,,,,,5611f6dd7ffc8a00058117e7,Mexican,younger than 13,"no, only English or Spanish",no,2025-08-13_14h48.41.626,empathy_intonation_perc,2024.2.4,Linux x86_64,59.88023952,5611f6dd7ffc8a00058117e7,687ed1b7e638a4cbf2f02089,689d0708ed6da857ff7b77d7,,,,,,,,,,,,,,1,,,,,,,,,,,,,,,,,,,,,,,,,,,,,,,,,,,,,,,,,,,,,,,,,,,,,,,,,54,fomentar,,,,,654.9772,655.9401,0,0,0.4331,,0,81,81,53,1,REAL,FAKE,,,,,,,,,,,,,,,,,
,,,,,,,,,5611f6dd7ffc8a00058117e7,Mexican,younger than 13,"no, only English or Spanish",no,2025-08-13_14h48.41.626,empathy_intonation_perc,2024.2.4,Linux x86_64,59.88023952,5611f6dd7ffc8a00058117e7,687ed1b7e638a4cbf2f02089,689d0708ed6da857ff7b77d7,,,,,,,,,,,,,,0,,,,,,,,,,,,,,,,,,,,,,,,,,,,,,,,,,,,,,,,,,,,,,,,,,,,,,,,,21,capillo,,,,,655.9426,656.8236,0,1,0.355,,0,82,82,20,1,REAL,FAKE,,,,,,,,,,,,,,,,,
,,,,,,,,,5611f6dd7ffc8a00058117e7,Mexican,younger than 13,"no, only English or Spanish",no,2025-08-13_14h48.41.626,empathy_intonation_perc,2024.2.4,Linux x86_64,59.88023952,5611f6dd7ffc8a00058117e7,687ed1b7e638a4cbf2f02089,689d0708ed6da857ff7b77d7,,,,,,,,,,,,,,0,,,,,,,,,,,,,,,,,,,,,,,,,,,,,,,,,,,,,,,,,,,,,,,,,,,,,,,,,74,cintro,,,,,656.8262,657.7569,0,1,0.399,,0,83,83,73,1,REAL,FAKE,,,,,,,,,,,,,,,,,
,,,,,,,,,5611f6dd7ffc8a00058117e7,Mexican,younger than 13,"no, only English or Spanish",no,2025-08-13_14h48.41.626,empathy_intonation_perc,2024.2.4,Linux x86_64,59.88023952,5611f6dd7ffc8a00058117e7,687ed1b7e638a4cbf2f02089,689d0708ed6da857ff7b77d7,,,,,,,,,,,,,,1,,,,,,,,,,,,,,,,,,,,,,,,,,,,,,,,,,,,,,,,,,,,,,,,,,,,,,,,,86,barato,,,,,657.7588,659.1235,1,1,0.8308,,0,84,84,85,1,REAL,FAKE,,,,,,,,,,,,,,,,,
,,,,,,,,,5611f6dd7ffc8a00058117e7,Mexican,younger than 13,"no, only English or Spanish",no,2025-08-13_14h48.41.626,empathy_intonation_perc,2024.2.4,Linux x86_64,59.88023952,5611f6dd7ffc8a00058117e7,687ed1b7e638a4cbf2f02089,689d0708ed6da857ff7b77d7,,,,,,,,,,,,,,0,,,,,,,,,,,,,,,,,,,,,,,,,,,,,,,,,,,,,,,,,,,,,,,,,,,,,,,,,35,rompido,,,,,659.126,660.2569,1,0,0.5976,,0,85,85,34,1,REAL,FAKE,,,,,,,,,,,,,,,,,
,,,,,,,,,5611f6dd7ffc8a00058117e7,Mexican,younger than 13,"no, only English or Spanish",no,2025-08-13_14h48.41.626,empathy_intonation_perc,2024.2.4,Linux x86_64,59.88023952,5611f6dd7ffc8a00058117e7,687ed1b7e638a4cbf2f02089,689d0708ed6da857ff7b77d7,,,,,,,,,,,,,,0,,,,,,,,,,,,,,,,,,,,,,,,,,,,,,,,,,,,,,,,,,,,,,,,,,,,,,,,,58,plaudir,,,,,660.2595,661.2235,0,1,0.4269,,0,86,86,57,1,REAL,FAKE,,,,,,,,,,,,,,,,,
,,,,,,,,,5611f6dd7ffc8a00058117e7,Mexican,younger than 13,"no, only English or Spanish",no,2025-08-13_14h48.41.626,empathy_intonation_perc,2024.2.4,Linux x86_64,59.88023952,5611f6dd7ffc8a00058117e7,687ed1b7e638a4cbf2f02089,689d0708ed6da857ff7b77d7,,,,,,,,,,,,,,1,,,,,,,,,,,,,,,,,,,,,,,,,,,,,,,,,,,,,,,,,,,,,,,,,,,,,,,,,15,regar,,,,,661.2254,662.0903,0,0,0.3354,,0,87,87,14,1,REAL,FAKE,,,,,,,,,,,,,,,,,
,,,,,,,,,5611f6dd7ffc8a00058117e7,Mexican,younger than 13,"no, only English or Spanish",no,2025-08-13_14h48.41.626,empathy_intonation_perc,2024.2.4,Linux x86_64,59.88023952,5611f6dd7ffc8a00058117e7,687ed1b7e638a4cbf2f02089,689d0708ed6da857ff7b77d7,,,,,,,,,,,,,,0,,,,,,,,,,,,,,,,,,,,,,,,,,,,,,,,,,,,,,,,,,,,,,,,,,,,,,,,,47,cartinar,,,,,662.0928,662.9235,0,1,0.3002,,0,88,88,46,1,REAL,FAKE,,,,,,,,,,,,,,,,,
,,,,,,,,,5611f6dd7ffc8a00058117e7,Mexican,younger than 13,"no, only English or Spanish",no,2025-08-13_14h48.41.626,empathy_intonation_perc,2024.2.4,Linux x86_64,59.88023952,5611f6dd7ffc8a00058117e7,687ed1b7e638a4cbf2f02089,689d0708ed6da857ff7b77d7,,,,,,,,,,,,,,1,,,,,,,,,,,,,,,,,,,,,,,,,,,,,,,,,,,,,,,,,,,,,,,,,,,,,,,,,12,asesinato,,,,,662.9262,663.8067,0,0,0.3558,,0,89,89,11,1,REAL,FAKE,,,,,,,,,,,,,,,,,
,,,,,,,,,5611f6dd7ffc8a00058117e7,Mexican,younger than 13,"no, only English or Spanish",no,2025-08-13_14h48.41.626,empathy_intonation_perc,2024.2.4,Linux x86_64,59.88023952,5611f6dd7ffc8a00058117e7,687ed1b7e638a4cbf2f02089,689d0708ed6da857ff7b77d7,,,,,,,,,,,,,,1,,,,,,,,,,,,,,,,,,,,,,,,,,,,,,,,,,,,,,,,,,,,,,,,,,,,,,,,,45,jilguero,,,,,663.8092,664.6401,0,0,0.3037,,0,90,90,44,1,REAL,FAKE,,,,,,,,,,,,,,,,,
,,,,,,,,,5611f6dd7ffc8a00058117e7,Mexican,younger than 13,"no, only English or Spanish",no,2025-08-13_14h48.41.626,empathy_intonation_perc,2024.2.4,Linux x86_64,59.88023952,5611f6dd7ffc8a00058117e7,687ed1b7e638a4cbf2f02089,689d0708ed6da857ff7b77d7,,,,,,,,,,,,,,0,,,,,,,,,,,,,,,,,,,,,,,,,,,,,,,,,,,,,,,,,,,,,,,,,,,,,,,,,8,cadeña,,,,,664.6427,665.4069,0,1,0.2396,,0,91,91,7,1,REAL,FAKE,,,,,,,,,,,,,,,,,
,,,,,,,,,5611f6dd7ffc8a00058117e7,Mexican,younger than 13,"no, only English or Spanish",no,2025-08-13_14h48.41.626,empathy_intonation_perc,2024.2.4,Linux x86_64,59.88023952,5611f6dd7ffc8a00058117e7,687ed1b7e638a4cbf2f02089,689d0708ed6da857ff7b77d7,,,,,,,,,,,,,,,,,,,,,,,,,,,,,,,,,,,,,,,,,,,,,,,,,,,,,,,,,,,,,,,,,,,,,,,,,,,,,,,,,,,,,,,,,,665.4079,669.8075,,,,,,,,,,,,,,,
,,,,,,,,,5611f6dd7ffc8a00058117e7,Mexican,younger than 13,"no, only English or Spanish",no,2025-08-13_14h48.41.626,empathy_intonation_perc,2024.2.4,Linux x86_64,59.88023952,5611f6dd7ffc8a00058117e7,687ed1b7e638a4cbf2f02089,689d0708ed6da857ff7b77d7,,,,,,,,,,,,,1,,,,,,,,,,,,,,,,,,,,,,,,,,,,,,,,,,,,,,,,,,,,,,,,,,,,,,,,,,,,,,,,,,,,,,,,,,,,,,,669.8281,673.6239,strongly agree,0,0,0,0,1,I can easily tell if someone else wants to enter a conversation.,1,0,1,0,,
,,,,,,,,,5611f6dd7ffc8a00058117e7,Mexican,younger than 13,"no, only English or Spanish",no,2025-08-13_14h48.41.626,empathy_intonation_perc,2024.2.4,Linux x86_64,59.88023952,5611f6dd7ffc8a00058117e7,687ed1b7e638a4cbf2f02089,689d0708ed6da857ff7b77d7,,,,,,,,,,,,,2,,,,,,,,,,,,,,,,,,,,,,,,,,,,,,,,,,,,,,,,,,,,,,,,,,,,,,,,,,,,,,,,,,,,,,,,,,,,,,,673.6279,678.2569,slightly agree,0,1,1,1,1,I prefer animals to humans.,0,1,0,0,,
,,,,,,,,,5611f6dd7ffc8a00058117e7,Mexican,younger than 13,"no, only English or Spanish",no,2025-08-13_14h48.41.626,empathy_intonation_perc,2024.2.4,Linux x86_64,59.88023952,5611f6dd7ffc8a00058117e7,687ed1b7e638a4cbf2f02089,689d0708ed6da857ff7b77d7,,,,,,,,,,,,,3,,,,,,,,,,,,,,,,,,,,,,,,,,,,,,,,,,,,,,,,,,,,,,,,,,,,,,,,,,,,,,,,,,,,,,,,,,,,,,,678.2609,680.8399,strongly disagree,0,2,2,2,1,I try to keep up with the current trends and fashions.,0,1,0,0,,
,,,,,,,,,5611f6dd7ffc8a00058117e7,Mexican,younger than 13,"no, only English or Spanish",no,2025-08-13_14h48.41.626,empathy_intonation_perc,2024.2.4,Linux x86_64,59.88023952,5611f6dd7ffc8a00058117e7,687ed1b7e638a4cbf2f02089,689d0708ed6da857ff7b77d7,,,,,,,,,,,,,4,,,,,,,,,,,,,,,,,,,,,,,,,,,,,,,,,,,,,,,,,,,,,,,,,,,,,,,,,,,,,,,,,,,,,,,,,,,,,,,680.8445,689.0069,slightly agree,0,3,3,3,1,"I find it difficult to explain to others things that I understand easily,   when they don't understand it first time.",1,0,0,1,,
