instructions_exposure.started,instructions_exposure.stopped,instructions_exposure_loop.thisRepN,instructions_exposure_loop.thisTrialN,instructions_exposure_loop.thisN,instructions_exposure_loop.thisIndex,instructions_exposure_loop.ran,instructions_text,continue_text,participant_id,"What variety of Spanish are you most familiar with? (e.g., Peruvian, Spanish, Mexican)",At what age did you begin learning Spanish?,Are you proficient in any languages other than English/Spanish?,"Are you familiar with Caribbean (e.g., Caribbean, Puerto Rican) or Galician Spanish?",date,expName,psychopyVersion,OS,frameRate,id,study_id,session,trial_exposure.started,trial_exposure.stopped,key_resp_exposure.keys,key_resp_exposure.corr,key_resp_exposure.rt,key_resp_exposure.duration,key_resp.keys,exposure_loop.thisRepN,exposure_loop.thisTrialN,exposure_loop.thisN,exposure_loop.thisIndex,exposure_loop.ran,item_num,correct_response,question,path,duration,instructions_2afc.started,instructions_2afc.stopped,instructions_2afc_loop.thisRepN,instructions_2afc_loop.thisTrialN,instructions_2afc_loop.thisN,instructions_2afc_loop.thisIndex,instructions_2afc_loop.ran,practice_2afc.started,practice_2afc.stopped,key_resp_2afc_practice.keys,key_resp_2afc_practice.corr,key_resp_2afc_practice.rt,key_resp_2afc_practice.duration,trials_2afc_practice_loop.thisRepN,trials_2afc_practice_loop.thisTrialN,trials_2afc_practice_loop.thisN,trials_2afc_practice_loop.thisIndex,trials_2afc_practice_loop.ran,check_2afc.started,check_2afc.stopped,trial_2afc.started,trial_2afc.stopped,key_resp_2afc_trial.keys,key_resp_2afc_trial.corr,key_resp_2afc_trial.rt,key_resp_2afc_trial.duration,trials_2afc_loop.thisRepN,trials_2afc_loop.thisTrialN,trials_2afc_loop.thisN,trials_2afc_loop.thisIndex,trials_2afc_loop.ran,target,variety,instructions_lextale.started,instructions_lextale.stopped,instructions_lextale_loop.thisRepN,instructions_lextale_loop.thisTrialN,instructions_lextale_loop.thisN,instructions_lextale_loop.thisIndex,instructions_lextale_loop.ran,practice_lextale.started,practice_lextale.stopped,key_resp_lextale_practice.keys,key_resp_lextale_practice.corr,key_resp_lextale_practice.rt,key_resp_lextale_practice.duration,practice_feedback_lextale.started,practice_feedback_lextale.stopped,trials_lextale_practice_loop.thisRepN,trials_lextale_practice_loop.thisTrialN,trials_lextale_practice_loop.thisN,trials_lextale_practice_loop.thisIndex,trials_lextale_practice_loop.ran,stim,word,prac_button_real,prac_button_false,check_lextale.started,check_lextale.stopped,trial_lextale.started,trial_lextale.stopped,key_resp_lextale_trial.keys,key_resp_lextale_trial.corr,key_resp_lextale_trial.rt,key_resp_lextale_trial.duration,trials_lextale_loop.thisRepN,trials_lextale_loop.thisTrialN,trials_lextale_loop.thisN,trials_lextale_loop.thisIndex,trials_lextale_loop.ran,button_real,button_false,instructions_eq.started,instructions_eq.stopped,trial_eq.started,trial_eq.stopped,slider_eq_trial.response,trials_eq_loop.thisRepN,trials_eq_loop.thisTrialN,trials_eq_loop.thisN,trials_eq_loop.thisIndex,trials_eq_loop.ran,item,is_test_item,is_distractor,is_agree_score,is_disagree_score,end_exp.started,end_exp.stopped
0.0145,2.0582,0,0,0,0,1,"In the following task, you are going to hear a series of conversations.", (press the space bar to continue),58016c9f551314000145af58,Spanish,13 or older,"no, only English or Spanish",yes,2025-07-22_22h48.56.537,empathy_intonation_perc,2024.2.4,Win32,59.88023952,58016c9f551314000145af58,687ed1b7e638a4cbf2f02089,68804d7299c1cabc0e7075c9,,,,,,,,,,,,,,,,,,,,,,,,,,,,,,,,,,,,,,,,,,,,,,,,,,,,,,,,,,,,,,,,,,,,,,,,,,,,,,,,,,,,,,,,,,,,,,,,,,,,,,,,,,
2.0595,3.8759,0,1,1,1,1,It is okay if you don't not 100% understand them!, (press the space bar to continue),58016c9f551314000145af58,Spanish,13 or older,"no, only English or Spanish",yes,2025-07-22_22h48.56.537,empathy_intonation_perc,2024.2.4,Win32,59.88023952,58016c9f551314000145af58,687ed1b7e638a4cbf2f02089,68804d7299c1cabc0e7075c9,,,,,,,,,,,,,,,,,,,,,,,,,,,,,,,,,,,,,,,,,,,,,,,,,,,,,,,,,,,,,,,,,,,,,,,,,,,,,,,,,,,,,,,,,,,,,,,,,,,,,,,,,,
3.8798,8.6133,0,2,2,2,1,"After, you will read a sentence about the conversation and decide if it's true or false.", (press the space bar to continue),58016c9f551314000145af58,Spanish,13 or older,"no, only English or Spanish",yes,2025-07-22_22h48.56.537,empathy_intonation_perc,2024.2.4,Win32,59.88023952,58016c9f551314000145af58,687ed1b7e638a4cbf2f02089,68804d7299c1cabc0e7075c9,,,,,,,,,,,,,,,,,,,,,,,,,,,,,,,,,,,,,,,,,,,,,,,,,,,,,,,,,,,,,,,,,,,,,,,,,,,,,,,,,,,,,,,,,,,,,,,,,,,,,,,,,,
8.6176,14.5683,0,3,3,3,1,"If it's true, press '1' (True) and if it's false press '0' (False).", (press the space bar to continue),58016c9f551314000145af58,Spanish,13 or older,"no, only English or Spanish",yes,2025-07-22_22h48.56.537,empathy_intonation_perc,2024.2.4,Win32,59.88023952,58016c9f551314000145af58,687ed1b7e638a4cbf2f02089,68804d7299c1cabc0e7075c9,,,,,,,,,,,,,,,,,,,,,,,,,,,,,,,,,,,,,,,,,,,,,,,,,,,,,,,,,,,,,,,,,,,,,,,,,,,,,,,,,,,,,,,,,,,,,,,,,,,,,,,,,,
,,,,,,,,,58016c9f551314000145af58,Spanish,13 or older,"no, only English or Spanish",yes,2025-07-22_22h48.56.537,empathy_intonation_perc,2024.2.4,Win32,59.88023952,58016c9f551314000145af58,687ed1b7e638a4cbf2f02089,68804d7299c1cabc0e7075c9,14.5754,84.7314,0,0,10.0827,,,0,0,0,1,1,2,1,The mom asked the daughter if she already went to the supermarket.,./stim/exposure_wavs/dr_stimuli_convo.wav,60,,,,,,,,,,,,,,,,,,,,,,,,,,,,,,,,,,,,,,,,,,,,,,,,,,,,,,,,,,,,,,,,,,,,,,,,,,,,,,,,,,,,,,,,,
,,,,,,,,,58016c9f551314000145af58,Spanish,13 or older,"no, only English or Spanish",yes,2025-07-22_22h48.56.537,empathy_intonation_perc,2024.2.4,Win32,59.88023952,58016c9f551314000145af58,687ed1b7e638a4cbf2f02089,68804d7299c1cabc0e7075c9,84.7349,127.1682,1,0,6.3925,,,0,1,1,2,1,3,0,The mom already has rice.,./stim/exposure_wavs/pr_stimuli_convo.wav,36,,,,,,,,,,,,,,,,,,,,,,,,,,,,,,,,,,,,,,,,,,,,,,,,,,,,,,,,,,,,,,,,,,,,,,,,,,,,,,,,,,,,,,,,,
,,,,,,,,,58016c9f551314000145af58,Spanish,13 or older,"no, only English or Spanish",yes,2025-07-22_22h48.56.537,empathy_intonation_perc,2024.2.4,Win32,59.88023952,58016c9f551314000145af58,687ed1b7e638a4cbf2f02089,68804d7299c1cabc0e7075c9,127.1718,179.7646,1,1,5.5578,,,0,2,2,0,1,1,1,The son asked the mom if Aunt Marina is okay.,./stim/exposure_wavs/ga_stimuli_convo.wav,47,,,,,,,,,,,,,,,,,,,,,,,,,,,,,,,,,,,,,,,,,,,,,,,,,,,,,,,,,,,,,,,,,,,,,,,,,,,,,,,,,,,,,,,,,
,,,,,,,"In the following task you are going to hear a series of utterances. 

  You will decide if the utterances sound like questions or not using your keyboard.", (press the spacebar to continue),58016c9f551314000145af58,Spanish,13 or older,"no, only English or Spanish",yes,2025-07-22_22h48.56.537,empathy_intonation_perc,2024.2.4,Win32,59.88023952,58016c9f551314000145af58,687ed1b7e638a4cbf2f02089,68804d7299c1cabc0e7075c9,,,,,,,,,,,,,,,,,,179.7761,187.0716,0,0,0,0,1,,,,,,,,,,,,,,,,,,,,,,,,,,,,,,,,,,,,,,,,,,,,,,,,,,,,,,,,,,,,,,,,,,,,,,,,,,,,,,,,,,
,,,,,,,"If you believe the utterance is a question, type '1' (for 'yes') and if you do not 
  believe it is a question type '0' (for 'no').

  Let's practice a bit...", (press the spacebar to continue),58016c9f551314000145af58,Spanish,13 or older,"no, only English or Spanish",yes,2025-07-22_22h48.56.537,empathy_intonation_perc,2024.2.4,Win32,59.88023952,58016c9f551314000145af58,687ed1b7e638a4cbf2f02089,68804d7299c1cabc0e7075c9,,,,,,,,,,,,,,,,,,187.0751,191.7753,0,1,1,1,1,,,,,,,,,,,,,,,,,,,,,,,,,,,,,,,,,,,,,,,,,,,,,,,,,,,,,,,,,,,,,,,,,,,,,,,,,,,,,,,,,,
,,,,,,,,,58016c9f551314000145af58,Spanish,13 or older,"no, only English or Spanish",yes,2025-07-22_22h48.56.537,empathy_intonation_perc,2024.2.4,Win32,59.88023952,58016c9f551314000145af58,687ed1b7e638a4cbf2f02089,68804d7299c1cabc0e7075c9,,,,,,,,,,,,,,1,,./stim/wavs/argentine_question_filler_Mi-vecino-habla-mucho.wav,,,,,,,,,191.7895,194.7781,1,1,2.4745,,0,0,0,1,1,,,,,,,,,,,,,,,,,,,,,,,,,,,,,,,,,,,,,,,,,,,,,,,,,,,,,,,,,,,,,,,,,,,,,,,
,,,,,,,,,58016c9f551314000145af58,Spanish,13 or older,"no, only English or Spanish",yes,2025-07-22_22h48.56.537,empathy_intonation_perc,2024.2.4,Win32,59.88023952,58016c9f551314000145af58,687ed1b7e638a4cbf2f02089,68804d7299c1cabc0e7075c9,,,,,,,,,,,,,,0,,./stim/wavs/peruvian_statement_filler_El-nino-habla-con-su-madre.wav,,,,,,,,,194.7793,198.0976,0,1,2.7864,,0,1,1,6,1,,,,,,,,,,,,,,,,,,,,,,,,,,,,,,,,,,,,,,,,,,,,,,,,,,,,,,,,,,,,,,,,,,,,,,,
,,,,,,,,,58016c9f551314000145af58,Spanish,13 or older,"no, only English or Spanish",yes,2025-07-22_22h48.56.537,empathy_intonation_perc,2024.2.4,Win32,59.88023952,58016c9f551314000145af58,687ed1b7e638a4cbf2f02089,68804d7299c1cabc0e7075c9,,,,,,,,,,,,,,0,,./stim/wavs/andalusian_statement_filler_Alberto-nunca-se-afeita.wav,,,,,,,,,198.0986,201.0665,0,1,2.4406,,0,2,2,5,1,,,,,,,,,,,,,,,,,,,,,,,,,,,,,,,,,,,,,,,,,,,,,,,,,,,,,,,,,,,,,,,,,,,,,,,
,,,,,,,,,58016c9f551314000145af58,Spanish,13 or older,"no, only English or Spanish",yes,2025-07-22_22h48.56.537,empathy_intonation_perc,2024.2.4,Win32,59.88023952,58016c9f551314000145af58,687ed1b7e638a4cbf2f02089,68804d7299c1cabc0e7075c9,,,,,,,,,,,,,,0,,./stim/wavs/cuban_statement_filler_Cocinabas-por-la-noche.wav,,,,,,,,,201.0679,204.553,0,1,2.9534,,0,3,3,4,1,,,,,,,,,,,,,,,,,,,,,,,,,,,,,,,,,,,,,,,,,,,,,,,,,,,,,,,,,,,,,,,,,,,,,,,
,,,,,,,,,58016c9f551314000145af58,Spanish,13 or older,"no, only English or Spanish",yes,2025-07-22_22h48.56.537,empathy_intonation_perc,2024.2.4,Win32,59.88023952,58016c9f551314000145af58,687ed1b7e638a4cbf2f02089,68804d7299c1cabc0e7075c9,,,,,,,,,,,,,,1,,./stim/wavs/castilian_question_filler_Mi-esposo-conoce-al-chico.wav,,,,,,,,,204.5539,207.1385,1,1,2.056,,0,4,4,0,1,,,,,,,,,,,,,,,,,,,,,,,,,,,,,,,,,,,,,,,,,,,,,,,,,,,,,,,,,,,,,,,,,,,,,,,
,,,,,,,,,58016c9f551314000145af58,Spanish,13 or older,"no, only English or Spanish",yes,2025-07-22_22h48.56.537,empathy_intonation_perc,2024.2.4,Win32,59.88023952,58016c9f551314000145af58,687ed1b7e638a4cbf2f02089,68804d7299c1cabc0e7075c9,,,,,,,,,,,,,,1,,./stim/wavs/chilean_question_filler_Mi-padre-cantaba-bien.wav,,,,,,,,,207.1389,210.008,1,1,2.3527,,0,5,5,2,1,,,,,,,,,,,,,,,,,,,,,,,,,,,,,,,,,,,,,,,,,,,,,,,,,,,,,,,,,,,,,,,,,,,,,,,
,,,,,,,,,58016c9f551314000145af58,Spanish,13 or older,"no, only English or Spanish",yes,2025-07-22_22h48.56.537,empathy_intonation_perc,2024.2.4,Win32,59.88023952,58016c9f551314000145af58,687ed1b7e638a4cbf2f02089,68804d7299c1cabc0e7075c9,,,,,,,,,,,,,,1,,./stim/wavs/mexican_question_filler_Felipe-no-tiene-contrasena.wav,,,,,,,,,210.0089,212.4931,1,1,1.9618,,0,6,6,3,1,,,,,,,,,,,,,,,,,,,,,,,,,,,,,,,,,,,,,,,,,,,,,,,,,,,,,,,,,,,,,,,,,,,,,,,
,,,,,,,,,58016c9f551314000145af58,Spanish,13 or older,"no, only English or Spanish",yes,2025-07-22_22h48.56.537,empathy_intonation_perc,2024.2.4,Win32,59.88023952,58016c9f551314000145af58,687ed1b7e638a4cbf2f02089,68804d7299c1cabc0e7075c9,,,,,,,,,,,,,,0,,./stim/wavs/puertorican_statement_filler_La-nina-pinta-con-su-amiga.wav,,,,,,,,,212.4941,215.3953,0,1,2.379,,0,7,7,7,1,,,,,,,,,,,,,,,,,,,,,,,,,,,,,,,,,,,,,,,,,,,,,,,,,,,,,,,,,,,,,,,,,,,,,,,
,,,,,,,,,58016c9f551314000145af58,Spanish,13 or older,"no, only English or Spanish",yes,2025-07-22_22h48.56.537,empathy_intonation_perc,2024.2.4,Win32,59.88023952,58016c9f551314000145af58,687ed1b7e638a4cbf2f02089,68804d7299c1cabc0e7075c9,,,,,,,,,,,,,,,,,,,,,,,,,,,,,,,,,,,,215.3956,217.965,,,,,,,,,,,,,,,,,,,,,,,,,,,,,,,,,,,,,,,,,,,,,,,,,,,,,,,,,,,,,,,,,,,,,
,,,,,,,,,58016c9f551314000145af58,Spanish,13 or older,"no, only English or Spanish",yes,2025-07-22_22h48.56.537,empathy_intonation_perc,2024.2.4,Win32,59.88023952,58016c9f551314000145af58,687ed1b7e638a4cbf2f02089,68804d7299c1cabc0e7075c9,,,,,,,,,,,,,45,0,,./stim/wavs/castilian_match_declarative-broad-focus_David-leia-el-libro.wav,,,,,,,,,,,,,,,,,,,,,,217.9855,220.4678,0,1,1.9524,,0,0,0,44,1,0,castilian,,,,,,,,,,,,,,,,,,,,,,,,,,,,,,,,,,,,,,,,,,,,,,,,,,,,,,,,
,,,,,,,,,58016c9f551314000145af58,Spanish,13 or older,"no, only English or Spanish",yes,2025-07-22_22h48.56.537,empathy_intonation_perc,2024.2.4,Win32,59.88023952,58016c9f551314000145af58,687ed1b7e638a4cbf2f02089,68804d7299c1cabc0e7075c9,,,,,,,,,,,,,16,1,,./stim/wavs/mexican_match_interrogative-total-yn_Emilio-ama-la-marcha.wav,,,,,,,,,,,,,,,,,,,,,,220.4689,222.7022,1,1,1.7107,,0,1,1,15,1,0,mexican,,,,,,,,,,,,,,,,,,,,,,,,,,,,,,,,,,,,,,,,,,,,,,,,,,,,,,,,
,,,,,,,,,58016c9f551314000145af58,Spanish,13 or older,"no, only English or Spanish",yes,2025-07-22_22h48.56.537,empathy_intonation_perc,2024.2.4,Win32,59.88023952,58016c9f551314000145af58,687ed1b7e638a4cbf2f02089,68804d7299c1cabc0e7075c9,,,,,,,,,,,,,48,0,,./stim/wavs/castilian_match_declarative-broad-focus_Maria-bebe-el-vino.wav,,,,,,,,,,,,,,,,,,,,,,222.7032,225.4719,0,1,2.237,,0,2,2,47,1,0,castilian,,,,,,,,,,,,,,,,,,,,,,,,,,,,,,,,,,,,,,,,,,,,,,,,,,,,,,,,
,,,,,,,,,58016c9f551314000145af58,Spanish,13 or older,"no, only English or Spanish",yes,2025-07-22_22h48.56.537,empathy_intonation_perc,2024.2.4,Win32,59.88023952,58016c9f551314000145af58,687ed1b7e638a4cbf2f02089,68804d7299c1cabc0e7075c9,,,,,,,,,,,,,54,0,,./stim/wavs/cuban_match_declarative-broad-focus_Maria-bebe-el-vino.wav,,,,,,,,,,,,,,,,,,,,,,225.4729,227.6404,0,1,1.6352,,0,3,3,53,1,0,cuban,,,,,,,,,,,,,,,,,,,,,,,,,,,,,,,,,,,,,,,,,,,,,,,,,,,,,,,,
,,,,,,,,,58016c9f551314000145af58,Spanish,13 or older,"no, only English or Spanish",yes,2025-07-22_22h48.56.537,empathy_intonation_perc,2024.2.4,Win32,59.88023952,58016c9f551314000145af58,687ed1b7e638a4cbf2f02089,68804d7299c1cabc0e7075c9,,,,,,,,,,,,,20,1,,./stim/wavs/puertorican_match_interrogative-total-yn_Daniel-iba-a-Bolivia.wav,,,,,,,,,,,,,,,,,,,,,,227.6412,231.7106,1,1,3.5379,,0,4,4,19,1,1,puertorican,,,,,,,,,,,,,,,,,,,,,,,,,,,,,,,,,,,,,,,,,,,,,,,,,,,,,,,,
,,,,,,,,,58016c9f551314000145af58,Spanish,13 or older,"no, only English or Spanish",yes,2025-07-22_22h48.56.537,empathy_intonation_perc,2024.2.4,Win32,59.88023952,58016c9f551314000145af58,687ed1b7e638a4cbf2f02089,68804d7299c1cabc0e7075c9,,,,,,,,,,,,,41,1,,./stim/wavs/puertorican_mismatch_interrogative-total-yn_El-nino-oye-el-rio.wav,,,,,,,,,,,,,,,,,,,,,,231.7118,234.1293,0,0,1.8854,,0,5,5,40,1,1,puertorican,,,,,,,,,,,,,,,,,,,,,,,,,,,,,,,,,,,,,,,,,,,,,,,,,,,,,,,,
,,,,,,,,,58016c9f551314000145af58,Spanish,13 or older,"no, only English or Spanish",yes,2025-07-22_22h48.56.537,empathy_intonation_perc,2024.2.4,Win32,59.88023952,58016c9f551314000145af58,687ed1b7e638a4cbf2f02089,68804d7299c1cabc0e7075c9,,,,,,,,,,,,,65,0,,./stim/wavs/puertorican_match_declarative-broad-focus_David-leia-el-libro.wav,,,,,,,,,,,,,,,,,,,,,,234.1305,236.4482,0,1,1.7865,,0,6,6,64,1,0,puertorican,,,,,,,,,,,,,,,,,,,,,,,,,,,,,,,,,,,,,,,,,,,,,,,,,,,,,,,,
,,,,,,,,,58016c9f551314000145af58,Spanish,13 or older,"no, only English or Spanish",yes,2025-07-22_22h48.56.537,empathy_intonation_perc,2024.2.4,Win32,59.88023952,58016c9f551314000145af58,687ed1b7e638a4cbf2f02089,68804d7299c1cabc0e7075c9,,,,,,,,,,,,,88,0,,./stim/wavs/puertorican_mismatch_declarative-broad-focus_La-nina-lava-el-plato.wav,,,,,,,,,,,,,,,,,,,,,,236.4489,238.7663,0,1,1.7934,,0,7,7,87,1,0,puertorican,,,,,,,,,,,,,,,,,,,,,,,,,,,,,,,,,,,,,,,,,,,,,,,,,,,,,,,,
,,,,,,,,,58016c9f551314000145af58,Spanish,13 or older,"no, only English or Spanish",yes,2025-07-22_22h48.56.537,empathy_intonation_perc,2024.2.4,Win32,59.88023952,58016c9f551314000145af58,687ed1b7e638a4cbf2f02089,68804d7299c1cabc0e7075c9,,,,,,,,,,,,,25,1,,./stim/wavs/castilian_mismatch_interrogative-total-yn_La-maestra-vive-en-Paris.wav,,,,,,,,,,,,,,,,,,,,,,238.7672,241.9695,1,1,2.6855,,0,8,8,24,1,0,castilian,,,,,,,,,,,,,,,,,,,,,,,,,,,,,,,,,,,,,,,,,,,,,,,,,,,,,,,,
,,,,,,,,,58016c9f551314000145af58,Spanish,13 or older,"no, only English or Spanish",yes,2025-07-22_22h48.56.537,empathy_intonation_perc,2024.2.4,Win32,59.88023952,58016c9f551314000145af58,687ed1b7e638a4cbf2f02089,68804d7299c1cabc0e7075c9,,,,,,,,,,,,,37,1,,./stim/wavs/mexican_mismatch_interrogative-total-yn_La-maestra-vive-en-Paris.wav,,,,,,,,,,,,,,,,,,,,,,241.9703,248.4917,1,1,5.9893,,0,9,9,36,1,0,mexican,,,,,,,,,,,,,,,,,,,,,,,,,,,,,,,,,,,,,,,,,,,,,,,,,,,,,,,,
,,,,,,,,,58016c9f551314000145af58,Spanish,13 or older,"no, only English or Spanish",yes,2025-07-22_22h48.56.537,empathy_intonation_perc,2024.2.4,Win32,59.88023952,58016c9f551314000145af58,687ed1b7e638a4cbf2f02089,68804d7299c1cabc0e7075c9,,,,,,,,,,,,,73,0,,./stim/wavs/castilian_mismatch_declarative-broad-focus_Mi-tia-odia-la-lluvia.wav,,,,,,,,,,,,,,,,,,,,,,248.4926,251.4446,0,1,2.4191,,0,10,10,72,1,0,castilian,,,,,,,,,,,,,,,,,,,,,,,,,,,,,,,,,,,,,,,,,,,,,,,,,,,,,,,,
,,,,,,,,,58016c9f551314000145af58,Spanish,13 or older,"no, only English or Spanish",yes,2025-07-22_22h48.56.537,empathy_intonation_perc,2024.2.4,Win32,59.88023952,58016c9f551314000145af58,687ed1b7e638a4cbf2f02089,68804d7299c1cabc0e7075c9,,,,,,,,,,,,,56,0,,./stim/wavs/cuban_match_declarative-broad-focus_Marta-abre-el-regalo.wav,,,,,,,,,,,,,,,,,,,,,,251.4454,253.8463,0,1,1.8773,,0,11,11,55,1,0,cuban,,,,,,,,,,,,,,,,,,,,,,,,,,,,,,,,,,,,,,,,,,,,,,,,,,,,,,,,
,,,,,,,,,58016c9f551314000145af58,Spanish,13 or older,"no, only English or Spanish",yes,2025-07-22_22h48.56.537,empathy_intonation_perc,2024.2.4,Win32,59.88023952,58016c9f551314000145af58,687ed1b7e638a4cbf2f02089,68804d7299c1cabc0e7075c9,,,,,,,,,,,,,36,1,,./stim/wavs/mexican_mismatch_interrogative-total-yn_El-nino-oye-el-rio.wav,,,,,,,,,,,,,,,,,,,,,,253.8472,257.4494,1,1,3.0949,,0,12,12,35,1,0,mexican,,,,,,,,,,,,,,,,,,,,,,,,,,,,,,,,,,,,,,,,,,,,,,,,,,,,,,,,
,,,,,,,,,58016c9f551314000145af58,Spanish,13 or older,"no, only English or Spanish",yes,2025-07-22_22h48.56.537,empathy_intonation_perc,2024.2.4,Win32,59.88023952,58016c9f551314000145af58,687ed1b7e638a4cbf2f02089,68804d7299c1cabc0e7075c9,,,,,,,,,,,,,52,0,,./stim/wavs/cuban_match_declarative-broad-focus_Daniel-iba-a-Bolivia.wav,,,,,,,,,,,,,,,,,,,,,,257.4501,260.2691,0,1,2.3067,,0,13,13,51,1,0,cuban,,,,,,,,,,,,,,,,,,,,,,,,,,,,,,,,,,,,,,,,,,,,,,,,,,,,,,,,
,,,,,,,,,58016c9f551314000145af58,Spanish,13 or older,"no, only English or Spanish",yes,2025-07-22_22h48.56.537,empathy_intonation_perc,2024.2.4,Win32,59.88023952,58016c9f551314000145af58,687ed1b7e638a4cbf2f02089,68804d7299c1cabc0e7075c9,,,,,,,,,,,,,33,1,,./stim/wavs/cuban_mismatch_interrogative-total-yn_Mi-novio-viene-del-lago.wav,,,,,,,,,,,,,,,,,,,,,,260.2704,263.2216,0,0,2.4213,,0,14,14,32,1,1,cuban,,,,,,,,,,,,,,,,,,,,,,,,,,,,,,,,,,,,,,,,,,,,,,,,,,,,,,,,
,,,,,,,,,58016c9f551314000145af58,Spanish,13 or older,"no, only English or Spanish",yes,2025-07-22_22h48.56.537,empathy_intonation_perc,2024.2.4,Win32,59.88023952,58016c9f551314000145af58,687ed1b7e638a4cbf2f02089,68804d7299c1cabc0e7075c9,,,,,,,,,,,,,34,1,,./stim/wavs/cuban_mismatch_interrogative-total-yn_Mi-tia-odia-la-lluvia.wav,,,,,,,,,,,,,,,,,,,,,,263.2232,265.4901,0,0,1.7396,,0,15,15,33,1,1,cuban,,,,,,,,,,,,,,,,,,,,,,,,,,,,,,,,,,,,,,,,,,,,,,,,,,,,,,,,
,,,,,,,,,58016c9f551314000145af58,Spanish,13 or older,"no, only English or Spanish",yes,2025-07-22_22h48.56.537,empathy_intonation_perc,2024.2.4,Win32,59.88023952,58016c9f551314000145af58,687ed1b7e638a4cbf2f02089,68804d7299c1cabc0e7075c9,,,,,,,,,,,,,82,0,,./stim/wavs/mexican_mismatch_declarative-broad-focus_Mi-novio-viene-del-lago.wav,,,,,,,,,,,,,,,,,,,,,,265.4908,268.0751,0,1,2.0622,,0,16,16,81,1,0,mexican,,,,,,,,,,,,,,,,,,,,,,,,,,,,,,,,,,,,,,,,,,,,,,,,,,,,,,,,
,,,,,,,,,58016c9f551314000145af58,Spanish,13 or older,"no, only English or Spanish",yes,2025-07-22_22h48.56.537,empathy_intonation_perc,2024.2.4,Win32,59.88023952,58016c9f551314000145af58,687ed1b7e638a4cbf2f02089,68804d7299c1cabc0e7075c9,,,,,,,,,,,,,86,0,,./stim/wavs/puertorican_mismatch_declarative-broad-focus_El-nino-oye-el-rio.wav,,,,,,,,,,,,,,,,,,,,,,268.0754,271.7952,0,1,3.2134,,0,17,17,85,1,0,puertorican,,,,,,,,,,,,,,,,,,,,,,,,,,,,,,,,,,,,,,,,,,,,,,,,,,,,,,,,
,,,,,,,,,58016c9f551314000145af58,Spanish,13 or older,"no, only English or Spanish",yes,2025-07-22_22h48.56.537,empathy_intonation_perc,2024.2.4,Win32,59.88023952,58016c9f551314000145af58,687ed1b7e638a4cbf2f02089,68804d7299c1cabc0e7075c9,,,,,,,,,,,,,35,1,,./stim/wavs/mexican_mismatch_interrogative-total-yn_El-hombre-mira-la-luna.wav,,,,,,,,,,,,,,,,,,,,,,271.7955,275.2823,1,1,2.9705,,0,18,18,34,1,0,mexican,,,,,,,,,,,,,,,,,,,,,,,,,,,,,,,,,,,,,,,,,,,,,,,,,,,,,,,,
,,,,,,,,,58016c9f551314000145af58,Spanish,13 or older,"no, only English or Spanish",yes,2025-07-22_22h48.56.537,empathy_intonation_perc,2024.2.4,Win32,59.88023952,58016c9f551314000145af58,687ed1b7e638a4cbf2f02089,68804d7299c1cabc0e7075c9,,,,,,,,,,,,,21,1,,./stim/wavs/puertorican_match_interrogative-total-yn_David-leia-el-libro.wav,,,,,,,,,,,,,,,,,,,,,,275.2831,279.1359,1,1,3.3217,,0,19,19,20,1,1,puertorican,,,,,,,,,,,,,,,,,,,,,,,,,,,,,,,,,,,,,,,,,,,,,,,,,,,,,,,,
,,,,,,,,,58016c9f551314000145af58,Spanish,13 or older,"no, only English or Spanish",yes,2025-07-22_22h48.56.537,empathy_intonation_perc,2024.2.4,Win32,59.88023952,58016c9f551314000145af58,687ed1b7e638a4cbf2f02089,68804d7299c1cabc0e7075c9,,,,,,,,,,,,,3,1,,./stim/wavs/castilian_match_interrogative-total-yn_Manuela-vende-el-carro.wav,,,,,,,,,,,,,,,,,,,,,,279.1369,282.8887,1,1,3.2275,,0,20,20,2,1,0,castilian,,,,,,,,,,,,,,,,,,,,,,,,,,,,,,,,,,,,,,,,,,,,,,,,,,,,,,,,
,,,,,,,,,58016c9f551314000145af58,Spanish,13 or older,"no, only English or Spanish",yes,2025-07-22_22h48.56.537,empathy_intonation_perc,2024.2.4,Win32,59.88023952,58016c9f551314000145af58,687ed1b7e638a4cbf2f02089,68804d7299c1cabc0e7075c9,,,,,,,,,,,,,79,0,,./stim/wavs/mexican_mismatch_declarative-broad-focus_El-bebe-comia-muy-bien.wav,,,,,,,,,,,,,,,,,,,,,,282.8895,285.3243,0,1,1.9213,,0,21,21,78,1,0,mexican,,,,,,,,,,,,,,,,,,,,,,,,,,,,,,,,,,,,,,,,,,,,,,,,,,,,,,,,
,,,,,,,,,58016c9f551314000145af58,Spanish,13 or older,"no, only English or Spanish",yes,2025-07-22_22h48.56.537,empathy_intonation_perc,2024.2.4,Win32,59.88023952,58016c9f551314000145af58,687ed1b7e638a4cbf2f02089,68804d7299c1cabc0e7075c9,,,,,,,,,,,,,77,0,,./stim/wavs/cuban_mismatch_declarative-broad-focus_Mi-novio-viene-del-lago.wav,,,,,,,,,,,,,,,,,,,,,,285.3251,287.6599,0,1,1.8049,,0,22,22,76,1,0,cuban,,,,,,,,,,,,,,,,,,,,,,,,,,,,,,,,,,,,,,,,,,,,,,,,,,,,,,,,
,,,,,,,,,58016c9f551314000145af58,Spanish,13 or older,"no, only English or Spanish",yes,2025-07-22_22h48.56.537,empathy_intonation_perc,2024.2.4,Win32,59.88023952,58016c9f551314000145af58,687ed1b7e638a4cbf2f02089,68804d7299c1cabc0e7075c9,,,,,,,,,,,,,5,1,,./stim/wavs/castilian_match_interrogative-total-yn_Mariano-habla-del-tiempo.wav,,,,,,,,,,,,,,,,,,,,,,287.6607,291.1293,1,1,2.9413,,0,23,23,4,1,0,castilian,,,,,,,,,,,,,,,,,,,,,,,,,,,,,,,,,,,,,,,,,,,,,,,,,,,,,,,,
,,,,,,,,,58016c9f551314000145af58,Spanish,13 or older,"no, only English or Spanish",yes,2025-07-22_22h48.56.537,empathy_intonation_perc,2024.2.4,Win32,59.88023952,58016c9f551314000145af58,687ed1b7e638a4cbf2f02089,68804d7299c1cabc0e7075c9,,,,,,,,,,,,,63,0,,./stim/wavs/puertorican_match_declarative-broad-focus_Ana-lleva-el-abrigo.wav,,,,,,,,,,,,,,,,,,,,,,291.1302,293.2816,0,1,1.6355,,0,24,24,62,1,0,puertorican,,,,,,,,,,,,,,,,,,,,,,,,,,,,,,,,,,,,,,,,,,,,,,,,,,,,,,,,
,,,,,,,,,58016c9f551314000145af58,Spanish,13 or older,"no, only English or Spanish",yes,2025-07-22_22h48.56.537,empathy_intonation_perc,2024.2.4,Win32,59.88023952,58016c9f551314000145af58,687ed1b7e638a4cbf2f02089,68804d7299c1cabc0e7075c9,,,,,,,,,,,,,53,0,,./stim/wavs/cuban_match_declarative-broad-focus_Manuela-vende-el-carro.wav,,,,,,,,,,,,,,,,,,,,,,293.2826,296.8344,0,1,3.0239,,0,25,25,52,1,0,cuban,,,,,,,,,,,,,,,,,,,,,,,,,,,,,,,,,,,,,,,,,,,,,,,,,,,,,,,,
,,,,,,,,,58016c9f551314000145af58,Spanish,13 or older,"no, only English or Spanish",yes,2025-07-22_22h48.56.537,empathy_intonation_perc,2024.2.4,Win32,59.88023952,58016c9f551314000145af58,687ed1b7e638a4cbf2f02089,68804d7299c1cabc0e7075c9,,,,,,,,,,,,,47,0,,./stim/wavs/castilian_match_declarative-broad-focus_Manuela-vende-el-carro.wav,,,,,,,,,,,,,,,,,,,,,,296.8352,299.4533,0,1,2.086,,0,26,26,46,1,0,castilian,,,,,,,,,,,,,,,,,,,,,,,,,,,,,,,,,,,,,,,,,,,,,,,,,,,,,,,,
,,,,,,,,,58016c9f551314000145af58,Spanish,13 or older,"no, only English or Spanish",yes,2025-07-22_22h48.56.537,empathy_intonation_perc,2024.2.4,Win32,59.88023952,58016c9f551314000145af58,687ed1b7e638a4cbf2f02089,68804d7299c1cabc0e7075c9,,,,,,,,,,,,,8,1,,./stim/wavs/cuban_match_interrogative-total-yn_Daniel-iba-a-Bolivia.wav,,,,,,,,,,,,,,,,,,,,,,299.4541,301.9056,0,0,1.9239,,0,27,27,7,1,1,cuban,,,,,,,,,,,,,,,,,,,,,,,,,,,,,,,,,,,,,,,,,,,,,,,,,,,,,,,,
,,,,,,,,,58016c9f551314000145af58,Spanish,13 or older,"no, only English or Spanish",yes,2025-07-22_22h48.56.537,empathy_intonation_perc,2024.2.4,Win32,59.88023952,58016c9f551314000145af58,687ed1b7e638a4cbf2f02089,68804d7299c1cabc0e7075c9,,,,,,,,,,,,,87,0,,./stim/wavs/puertorican_mismatch_declarative-broad-focus_La-maestra-vive-en-Paris.wav,,,,,,,,,,,,,,,,,,,,,,301.9065,306.3428,0,1,3.9051,,0,28,28,86,1,0,puertorican,,,,,,,,,,,,,,,,,,,,,,,,,,,,,,,,,,,,,,,,,,,,,,,,,,,,,,,,
,,,,,,,,,58016c9f551314000145af58,Spanish,13 or older,"no, only English or Spanish",yes,2025-07-22_22h48.56.537,empathy_intonation_perc,2024.2.4,Win32,59.88023952,58016c9f551314000145af58,687ed1b7e638a4cbf2f02089,68804d7299c1cabc0e7075c9,,,,,,,,,,,,,27,1,,./stim/wavs/castilian_mismatch_interrogative-total-yn_Mi-madre-come-la-fruta.wav,,,,,,,,,,,,,,,,,,,,,,306.3436,311.2809,1,1,4.4053,,0,29,29,26,1,0,castilian,,,,,,,,,,,,,,,,,,,,,,,,,,,,,,,,,,,,,,,,,,,,,,,,,,,,,,,,
,,,,,,,,,58016c9f551314000145af58,Spanish,13 or older,"no, only English or Spanish",yes,2025-07-22_22h48.56.537,empathy_intonation_perc,2024.2.4,Win32,59.88023952,58016c9f551314000145af58,687ed1b7e638a4cbf2f02089,68804d7299c1cabc0e7075c9,,,,,,,,,,,,,32,1,,./stim/wavs/cuban_mismatch_interrogative-total-yn_Mi-madre-come-la-fruta.wav,,,,,,,,,,,,,,,,,,,,,,311.2817,316.4688,0,0,4.6572,,0,30,30,31,1,1,cuban,,,,,,,,,,,,,,,,,,,,,,,,,,,,,,,,,,,,,,,,,,,,,,,,,,,,,,,,
,,,,,,,,,58016c9f551314000145af58,Spanish,13 or older,"no, only English or Spanish",yes,2025-07-22_22h48.56.537,empathy_intonation_perc,2024.2.4,Win32,59.88023952,58016c9f551314000145af58,687ed1b7e638a4cbf2f02089,68804d7299c1cabc0e7075c9,,,,,,,,,,,,,40,1,,./stim/wavs/puertorican_mismatch_interrogative-total-yn_El-hombre-mira-la-luna.wav,,,,,,,,,,,,,,,,,,,,,,316.47,319.388,1,1,2.3907,,0,31,31,39,1,1,puertorican,,,,,,,,,,,,,,,,,,,,,,,,,,,,,,,,,,,,,,,,,,,,,,,,,,,,,,,,
,,,,,,,,,58016c9f551314000145af58,Spanish,13 or older,"no, only English or Spanish",yes,2025-07-22_22h48.56.537,empathy_intonation_perc,2024.2.4,Win32,59.88023952,58016c9f551314000145af58,687ed1b7e638a4cbf2f02089,68804d7299c1cabc0e7075c9,,,,,,,,,,,,,74,0,,./stim/wavs/cuban_mismatch_declarative-broad-focus_El-bebe-comia-muy-bien.wav,,,,,,,,,,,,,,,,,,,,,,319.3891,322.8742,0,1,2.9539,,0,32,32,73,1,0,cuban,,,,,,,,,,,,,,,,,,,,,,,,,,,,,,,,,,,,,,,,,,,,,,,,,,,,,,,,
,,,,,,,,,58016c9f551314000145af58,Spanish,13 or older,"no, only English or Spanish",yes,2025-07-22_22h48.56.537,empathy_intonation_perc,2024.2.4,Win32,59.88023952,58016c9f551314000145af58,687ed1b7e638a4cbf2f02089,68804d7299c1cabc0e7075c9,,,,,,,,,,,,,59,0,,./stim/wavs/mexican_match_declarative-broad-focus_David-leia-el-libro.wav,,,,,,,,,,,,,,,,,,,,,,322.8753,326.0605,0,1,2.6639,,0,33,33,58,1,0,mexican,,,,,,,,,,,,,,,,,,,,,,,,,,,,,,,,,,,,,,,,,,,,,,,,,,,,,,,,
,,,,,,,,,58016c9f551314000145af58,Spanish,13 or older,"no, only English or Spanish",yes,2025-07-22_22h48.56.537,empathy_intonation_perc,2024.2.4,Win32,59.88023952,58016c9f551314000145af58,687ed1b7e638a4cbf2f02089,68804d7299c1cabc0e7075c9,,,,,,,,,,,,,50,0,,./stim/wavs/castilian_match_declarative-broad-focus_Marta-abre-el-regalo.wav,,,,,,,,,,,,,,,,,,,,,,326.0616,329.5134,0,1,2.9254,,0,34,34,49,1,0,castilian,,,,,,,,,,,,,,,,,,,,,,,,,,,,,,,,,,,,,,,,,,,,,,,,,,,,,,,,
,,,,,,,,,58016c9f551314000145af58,Spanish,13 or older,"no, only English or Spanish",yes,2025-07-22_22h48.56.537,empathy_intonation_perc,2024.2.4,Win32,59.88023952,58016c9f551314000145af58,687ed1b7e638a4cbf2f02089,68804d7299c1cabc0e7075c9,,,,,,,,,,,,,67,0,,./stim/wavs/puertorican_match_declarative-broad-focus_Manuela-vende-el-carro.wav,,,,,,,,,,,,,,,,,,,,,,329.5147,332.1324,0,1,2.0877,,0,35,35,66,1,0,puertorican,,,,,,,,,,,,,,,,,,,,,,,,,,,,,,,,,,,,,,,,,,,,,,,,,,,,,,,,
,,,,,,,,,58016c9f551314000145af58,Spanish,13 or older,"no, only English or Spanish",yes,2025-07-22_22h48.56.537,empathy_intonation_perc,2024.2.4,Win32,59.88023952,58016c9f551314000145af58,687ed1b7e638a4cbf2f02089,68804d7299c1cabc0e7075c9,,,,,,,,,,,,,42,1,,./stim/wavs/puertorican_mismatch_interrogative-total-yn_La-maestra-vive-en-Paris.wav,,,,,,,,,,,,,,,,,,,,,,332.1334,337.0534,1,1,4.3968,,0,36,36,41,1,1,puertorican,,,,,,,,,,,,,,,,,,,,,,,,,,,,,,,,,,,,,,,,,,,,,,,,,,,,,,,,
,,,,,,,,,58016c9f551314000145af58,Spanish,13 or older,"no, only English or Spanish",yes,2025-07-22_22h48.56.537,empathy_intonation_perc,2024.2.4,Win32,59.88023952,58016c9f551314000145af58,687ed1b7e638a4cbf2f02089,68804d7299c1cabc0e7075c9,,,,,,,,,,,,,19,1,,./stim/wavs/puertorican_match_interrogative-total-yn_Ana-lleva-el-abrigo.wav,,,,,,,,,,,,,,,,,,,,,,337.0545,339.2553,1,1,1.6676,,0,37,37,18,1,1,puertorican,,,,,,,,,,,,,,,,,,,,,,,,,,,,,,,,,,,,,,,,,,,,,,,,,,,,,,,,
,,,,,,,,,58016c9f551314000145af58,Spanish,13 or older,"no, only English or Spanish",yes,2025-07-22_22h48.56.537,empathy_intonation_perc,2024.2.4,Win32,59.88023952,58016c9f551314000145af58,687ed1b7e638a4cbf2f02089,68804d7299c1cabc0e7075c9,,,,,,,,,,,,,68,0,,./stim/wavs/puertorican_match_declarative-broad-focus_Maria-bebe-el-vino.wav,,,,,,,,,,,,,,,,,,,,,,339.2557,344.5936,1,0,4.8199,,0,38,38,67,1,0,puertorican,,,,,,,,,,,,,,,,,,,,,,,,,,,,,,,,,,,,,,,,,,,,,,,,,,,,,,,,
,,,,,,,,,58016c9f551314000145af58,Spanish,13 or older,"no, only English or Spanish",yes,2025-07-22_22h48.56.537,empathy_intonation_perc,2024.2.4,Win32,59.88023952,58016c9f551314000145af58,687ed1b7e638a4cbf2f02089,68804d7299c1cabc0e7075c9,,,,,,,,,,,,,78,0,,./stim/wavs/cuban_mismatch_declarative-broad-focus_Mi-tia-odia-la-lluvia.wav,,,,,,,,,,,,,,,,,,,,,,344.5946,347.1492,0,1,2.0341,,0,39,39,77,1,0,cuban,,,,,,,,,,,,,,,,,,,,,,,,,,,,,,,,,,,,,,,,,,,,,,,,,,,,,,,,
,,,,,,,,,58016c9f551314000145af58,Spanish,13 or older,"no, only English or Spanish",yes,2025-07-22_22h48.56.537,empathy_intonation_perc,2024.2.4,Win32,59.88023952,58016c9f551314000145af58,687ed1b7e638a4cbf2f02089,68804d7299c1cabc0e7075c9,,,,,,,,,,,,,11,1,,./stim/wavs/cuban_match_interrogative-total-yn_Mariano-habla-del-tiempo.wav,,,,,,,,,,,,,,,,,,,,,,347.15,350.7987,0,0,3.1292,,0,40,40,10,1,1,cuban,,,,,,,,,,,,,,,,,,,,,,,,,,,,,,,,,,,,,,,,,,,,,,,,,,,,,,,,
,,,,,,,,,58016c9f551314000145af58,Spanish,13 or older,"no, only English or Spanish",yes,2025-07-22_22h48.56.537,empathy_intonation_perc,2024.2.4,Win32,59.88023952,58016c9f551314000145af58,687ed1b7e638a4cbf2f02089,68804d7299c1cabc0e7075c9,,,,,,,,,,,,,58,0,,./stim/wavs/mexican_match_declarative-broad-focus_Daniel-iba-a-Bolivia.wav,,,,,,,,,,,,,,,,,,,,,,350.7995,354.1853,0,1,2.8664,,0,41,41,57,1,0,mexican,,,,,,,,,,,,,,,,,,,,,,,,,,,,,,,,,,,,,,,,,,,,,,,,,,,,,,,,
,,,,,,,,,58016c9f551314000145af58,Spanish,13 or older,"no, only English or Spanish",yes,2025-07-22_22h48.56.537,empathy_intonation_perc,2024.2.4,Win32,59.88023952,58016c9f551314000145af58,687ed1b7e638a4cbf2f02089,68804d7299c1cabc0e7075c9,,,,,,,,,,,,,29,1,,./stim/wavs/castilian_mismatch_interrogative-total-yn_Mi-tia-odia-la-lluvia.wav,,,,,,,,,,,,,,,,,,,,,,354.1861,359.3231,1,1,4.605,,0,42,42,28,1,0,castilian,,,,,,,,,,,,,,,,,,,,,,,,,,,,,,,,,,,,,,,,,,,,,,,,,,,,,,,,
,,,,,,,,,58016c9f551314000145af58,Spanish,13 or older,"no, only English or Spanish",yes,2025-07-22_22h48.56.537,empathy_intonation_perc,2024.2.4,Win32,59.88023952,58016c9f551314000145af58,687ed1b7e638a4cbf2f02089,68804d7299c1cabc0e7075c9,,,,,,,,,,,,,51,0,,./stim/wavs/cuban_match_declarative-broad-focus_Ana-lleva-el-abrigo.wav,,,,,,,,,,,,,,,,,,,,,,359.324,361.9256,0,1,2.0703,,0,43,43,50,1,0,cuban,,,,,,,,,,,,,,,,,,,,,,,,,,,,,,,,,,,,,,,,,,,,,,,,,,,,,,,,
,,,,,,,,,58016c9f551314000145af58,Spanish,13 or older,"no, only English or Spanish",yes,2025-07-22_22h48.56.537,empathy_intonation_perc,2024.2.4,Win32,59.88023952,58016c9f551314000145af58,687ed1b7e638a4cbf2f02089,68804d7299c1cabc0e7075c9,,,,,,,,,,,,,1,1,,./stim/wavs/castilian_match_interrogative-total-yn_David-leia-el-libro.wav,,,,,,,,,,,,,,,,,,,,,,361.9264,370.4501,1,1,7.9915,,0,44,44,0,1,0,castilian,,,,,,,,,,,,,,,,,,,,,,,,,,,,,,,,,,,,,,,,,,,,,,,,,,,,,,,,
,,,,,,,,,58016c9f551314000145af58,Spanish,13 or older,"no, only English or Spanish",yes,2025-07-22_22h48.56.537,empathy_intonation_perc,2024.2.4,Win32,59.88023952,58016c9f551314000145af58,687ed1b7e638a4cbf2f02089,68804d7299c1cabc0e7075c9,,,,,,,,,,,,,31,1,,./stim/wavs/cuban_mismatch_interrogative-total-yn_El-nino-oye-el-rio.wav,,,,,,,,,,,,,,,,,,,,,,370.4508,372.9184,0,0,1.9436,,0,45,45,30,1,1,cuban,,,,,,,,,,,,,,,,,,,,,,,,,,,,,,,,,,,,,,,,,,,,,,,,,,,,,,,,
,,,,,,,,,58016c9f551314000145af58,Spanish,13 or older,"no, only English or Spanish",yes,2025-07-22_22h48.56.537,empathy_intonation_perc,2024.2.4,Win32,59.88023952,58016c9f551314000145af58,687ed1b7e638a4cbf2f02089,68804d7299c1cabc0e7075c9,,,,,,,,,,,,,76,0,,./stim/wavs/cuban_mismatch_declarative-broad-focus_La-nina-lava-el-plato.wav,,,,,,,,,,,,,,,,,,,,,,372.9193,375.1202,0,1,1.6748,,0,46,46,75,1,0,cuban,,,,,,,,,,,,,,,,,,,,,,,,,,,,,,,,,,,,,,,,,,,,,,,,,,,,,,,,
,,,,,,,,,58016c9f551314000145af58,Spanish,13 or older,"no, only English or Spanish",yes,2025-07-22_22h48.56.537,empathy_intonation_perc,2024.2.4,Win32,59.88023952,58016c9f551314000145af58,687ed1b7e638a4cbf2f02089,68804d7299c1cabc0e7075c9,,,,,,,,,,,,,69,0,,./stim/wavs/castilian_mismatch_declarative-broad-focus_El-nino-oye-el-rio.wav,,,,,,,,,,,,,,,,,,,,,,375.1211,378.0729,0,1,2.4415,,0,47,47,68,1,0,castilian,,,,,,,,,,,,,,,,,,,,,,,,,,,,,,,,,,,,,,,,,,,,,,,,,,,,,,,,
,,,,,,,,,58016c9f551314000145af58,Spanish,13 or older,"no, only English or Spanish",yes,2025-07-22_22h48.56.537,empathy_intonation_perc,2024.2.4,Win32,59.88023952,58016c9f551314000145af58,687ed1b7e638a4cbf2f02089,68804d7299c1cabc0e7075c9,,,,,,,,,,,,,61,0,,./stim/wavs/mexican_match_declarative-broad-focus_Mariano-habla-del-tiempo.wav,,,,,,,,,,,,,,,,,,,,,,378.0738,380.8256,0,1,2.2193,,0,48,48,60,1,0,mexican,,,,,,,,,,,,,,,,,,,,,,,,,,,,,,,,,,,,,,,,,,,,,,,,,,,,,,,,
,,,,,,,,,58016c9f551314000145af58,Spanish,13 or older,"no, only English or Spanish",yes,2025-07-22_22h48.56.537,empathy_intonation_perc,2024.2.4,Win32,59.88023952,58016c9f551314000145af58,687ed1b7e638a4cbf2f02089,68804d7299c1cabc0e7075c9,,,,,,,,,,,,,13,1,,./stim/wavs/mexican_match_interrogative-total-yn_Ana-lleva-el-abrigo.wav,,,,,,,,,,,,,,,,,,,,,,380.8263,385.2793,0,0,3.9279,,0,49,49,12,1,0,mexican,,,,,,,,,,,,,,,,,,,,,,,,,,,,,,,,,,,,,,,,,,,,,,,,,,,,,,,,
,,,,,,,,,58016c9f551314000145af58,Spanish,13 or older,"no, only English or Spanish",yes,2025-07-22_22h48.56.537,empathy_intonation_perc,2024.2.4,Win32,59.88023952,58016c9f551314000145af58,687ed1b7e638a4cbf2f02089,68804d7299c1cabc0e7075c9,,,,,,,,,,,,,10,1,,./stim/wavs/cuban_match_interrogative-total-yn_Maria-bebe-el-vino.wav,,,,,,,,,,,,,,,,,,,,,,385.2807,388.7655,0,0,2.9619,,0,50,50,9,1,1,cuban,,,,,,,,,,,,,,,,,,,,,,,,,,,,,,,,,,,,,,,,,,,,,,,,,,,,,,,,
,,,,,,,,,58016c9f551314000145af58,Spanish,13 or older,"no, only English or Spanish",yes,2025-07-22_22h48.56.537,empathy_intonation_perc,2024.2.4,Win32,59.88023952,58016c9f551314000145af58,687ed1b7e638a4cbf2f02089,68804d7299c1cabc0e7075c9,,,,,,,,,,,,,55,0,,./stim/wavs/cuban_match_declarative-broad-focus_Mariano-habla-del-tiempo.wav,,,,,,,,,,,,,,,,,,,,,,388.7663,391.8018,0,1,2.5244,,0,51,51,54,1,0,cuban,,,,,,,,,,,,,,,,,,,,,,,,,,,,,,,,,,,,,,,,,,,,,,,,,,,,,,,,
,,,,,,,,,58016c9f551314000145af58,Spanish,13 or older,"no, only English or Spanish",yes,2025-07-22_22h48.56.537,empathy_intonation_perc,2024.2.4,Win32,59.88023952,58016c9f551314000145af58,687ed1b7e638a4cbf2f02089,68804d7299c1cabc0e7075c9,,,,,,,,,,,,,14,1,,./stim/wavs/mexican_match_interrogative-total-yn_Daniel-iba-a-Bolivia.wav,,,,,,,,,,,,,,,,,,,,,,391.8031,396.1056,1,1,3.7706,,0,52,52,13,1,0,mexican,,,,,,,,,,,,,,,,,,,,,,,,,,,,,,,,,,,,,,,,,,,,,,,,,,,,,,,,
,,,,,,,,,58016c9f551314000145af58,Spanish,13 or older,"no, only English or Spanish",yes,2025-07-22_22h48.56.537,empathy_intonation_perc,2024.2.4,Win32,59.88023952,58016c9f551314000145af58,687ed1b7e638a4cbf2f02089,68804d7299c1cabc0e7075c9,,,,,,,,,,,,,84,0,,./stim/wavs/puertorican_mismatch_declarative-broad-focus_El-bebe-comia-muy-bien.wav,,,,,,,,,,,,,,,,,,,,,,396.1066,398.2743,0,1,1.6359,,0,53,53,83,1,0,puertorican,,,,,,,,,,,,,,,,,,,,,,,,,,,,,,,,,,,,,,,,,,,,,,,,,,,,,,,,
,,,,,,,,,58016c9f551314000145af58,Spanish,13 or older,"no, only English or Spanish",yes,2025-07-22_22h48.56.537,empathy_intonation_perc,2024.2.4,Win32,59.88023952,58016c9f551314000145af58,687ed1b7e638a4cbf2f02089,68804d7299c1cabc0e7075c9,,,,,,,,,,,,,22,1,,./stim/wavs/puertorican_match_interrogative-total-yn_Emilio-ama-la-marcha.wav,,,,,,,,,,,,,,,,,,,,,,398.2752,400.9764,1,1,2.1752,,0,54,54,21,1,1,puertorican,,,,,,,,,,,,,,,,,,,,,,,,,,,,,,,,,,,,,,,,,,,,,,,,,,,,,,,,
,,,,,,,,,58016c9f551314000145af58,Spanish,13 or older,"no, only English or Spanish",yes,2025-07-22_22h48.56.537,empathy_intonation_perc,2024.2.4,Win32,59.88023952,58016c9f551314000145af58,687ed1b7e638a4cbf2f02089,68804d7299c1cabc0e7075c9,,,,,,,,,,,,,70,0,,./stim/wavs/castilian_mismatch_declarative-broad-focus_La-maestra-vive-en-Paris.wav,,,,,,,,,,,,,,,,,,,,,,400.9774,405.1468,0,1,3.658,,0,55,55,69,1,0,castilian,,,,,,,,,,,,,,,,,,,,,,,,,,,,,,,,,,,,,,,,,,,,,,,,,,,,,,,,
,,,,,,,,,58016c9f551314000145af58,Spanish,13 or older,"no, only English or Spanish",yes,2025-07-22_22h48.56.537,empathy_intonation_perc,2024.2.4,Win32,59.88023952,58016c9f551314000145af58,687ed1b7e638a4cbf2f02089,68804d7299c1cabc0e7075c9,,,,,,,,,,,,,66,0,,./stim/wavs/puertorican_match_declarative-broad-focus_Emilio-ama-la-marcha.wav,,,,,,,,,,,,,,,,,,,,,,405.1476,407.9163,0,1,2.2391,,0,56,56,65,1,0,puertorican,,,,,,,,,,,,,,,,,,,,,,,,,,,,,,,,,,,,,,,,,,,,,,,,,,,,,,,,
,,,,,,,,,58016c9f551314000145af58,Spanish,13 or older,"no, only English or Spanish",yes,2025-07-22_22h48.56.537,empathy_intonation_perc,2024.2.4,Win32,59.88023952,58016c9f551314000145af58,687ed1b7e638a4cbf2f02089,68804d7299c1cabc0e7075c9,,,,,,,,,,,,,17,1,,./stim/wavs/mexican_match_interrogative-total-yn_Mariano-habla-del-tiempo.wav,,,,,,,,,,,,,,,,,,,,,,407.917,412.487,1,1,4.037,,0,57,57,16,1,0,mexican,,,,,,,,,,,,,,,,,,,,,,,,,,,,,,,,,,,,,,,,,,,,,,,,,,,,,,,,
,,,,,,,,,58016c9f551314000145af58,Spanish,13 or older,"no, only English or Spanish",yes,2025-07-22_22h48.56.537,empathy_intonation_perc,2024.2.4,Win32,59.88023952,58016c9f551314000145af58,687ed1b7e638a4cbf2f02089,68804d7299c1cabc0e7075c9,,,,,,,,,,,,,6,1,,./stim/wavs/castilian_match_interrogative-total-yn_Marta-abre-el-regalo.wav,,,,,,,,,,,,,,,,,,,,,,412.488,416.7073,1,1,3.6872,,0,58,58,5,1,0,castilian,,,,,,,,,,,,,,,,,,,,,,,,,,,,,,,,,,,,,,,,,,,,,,,,,,,,,,,,
,,,,,,,,,58016c9f551314000145af58,Spanish,13 or older,"no, only English or Spanish",yes,2025-07-22_22h48.56.537,empathy_intonation_perc,2024.2.4,Win32,59.88023952,58016c9f551314000145af58,687ed1b7e638a4cbf2f02089,68804d7299c1cabc0e7075c9,,,,,,,,,,,,,2,1,,./stim/wavs/castilian_match_interrogative-total-yn_Emilio-ama-la-marcha.wav,,,,,,,,,,,,,,,,,,,,,,416.7081,420.9609,1,1,3.7262,,0,59,59,1,1,0,castilian,,,,,,,,,,,,,,,,,,,,,,,,,,,,,,,,,,,,,,,,,,,,,,,,,,,,,,,,
,,,,,,,,,58016c9f551314000145af58,Spanish,13 or older,"no, only English or Spanish",yes,2025-07-22_22h48.56.537,empathy_intonation_perc,2024.2.4,Win32,59.88023952,58016c9f551314000145af58,687ed1b7e638a4cbf2f02089,68804d7299c1cabc0e7075c9,,,,,,,,,,,,,62,0,,./stim/wavs/mexican_match_declarative-broad-focus_Marta-abre-el-regalo.wav,,,,,,,,,,,,,,,,,,,,,,420.9619,423.0297,0,1,1.5382,,0,60,60,61,1,0,mexican,,,,,,,,,,,,,,,,,,,,,,,,,,,,,,,,,,,,,,,,,,,,,,,,,,,,,,,,
,,,,,,,,,58016c9f551314000145af58,Spanish,13 or older,"no, only English or Spanish",yes,2025-07-22_22h48.56.537,empathy_intonation_perc,2024.2.4,Win32,59.88023952,58016c9f551314000145af58,687ed1b7e638a4cbf2f02089,68804d7299c1cabc0e7075c9,,,,,,,,,,,,,26,1,,./stim/wavs/castilian_mismatch_interrogative-total-yn_La-nina-lava-el-plato.wav,,,,,,,,,,,,,,,,,,,,,,423.0308,428.0008,1,1,4.4387,,0,61,61,25,1,0,castilian,,,,,,,,,,,,,,,,,,,,,,,,,,,,,,,,,,,,,,,,,,,,,,,,,,,,,,,,
,,,,,,,,,58016c9f551314000145af58,Spanish,13 or older,"no, only English or Spanish",yes,2025-07-22_22h48.56.537,empathy_intonation_perc,2024.2.4,Win32,59.88023952,58016c9f551314000145af58,687ed1b7e638a4cbf2f02089,68804d7299c1cabc0e7075c9,,,,,,,,,,,,,24,1,,./stim/wavs/puertorican_match_interrogative-total-yn_Maria-bebe-el-vino.wav,,,,,,,,,,,,,,,,,,,,,,428.0017,430.2191,1,1,1.6837,,0,62,62,23,1,1,puertorican,,,,,,,,,,,,,,,,,,,,,,,,,,,,,,,,,,,,,,,,,,,,,,,,,,,,,,,,
,,,,,,,,,58016c9f551314000145af58,Spanish,13 or older,"no, only English or Spanish",yes,2025-07-22_22h48.56.537,empathy_intonation_perc,2024.2.4,Win32,59.88023952,58016c9f551314000145af58,687ed1b7e638a4cbf2f02089,68804d7299c1cabc0e7075c9,,,,,,,,,,,,,7,1,,./stim/wavs/cuban_match_interrogative-total-yn_Ana-lleva-el-abrigo.wav,,,,,,,,,,,,,,,,,,,,,,430.2194,432.3542,0,0,1.6227,,0,63,63,6,1,1,cuban,,,,,,,,,,,,,,,,,,,,,,,,,,,,,,,,,,,,,,,,,,,,,,,,,,,,,,,,
,,,,,,,,,58016c9f551314000145af58,Spanish,13 or older,"no, only English or Spanish",yes,2025-07-22_22h48.56.537,empathy_intonation_perc,2024.2.4,Win32,59.88023952,58016c9f551314000145af58,687ed1b7e638a4cbf2f02089,68804d7299c1cabc0e7075c9,,,,,,,,,,,,,60,0,,./stim/wavs/mexican_match_declarative-broad-focus_Emilio-ama-la-marcha.wav,,,,,,,,,,,,,,,,,,,,,,432.3549,434.6566,0,1,1.7848,,0,64,64,59,1,0,mexican,,,,,,,,,,,,,,,,,,,,,,,,,,,,,,,,,,,,,,,,,,,,,,,,,,,,,,,,
,,,,,,,,,58016c9f551314000145af58,Spanish,13 or older,"no, only English or Spanish",yes,2025-07-22_22h48.56.537,empathy_intonation_perc,2024.2.4,Win32,59.88023952,58016c9f551314000145af58,687ed1b7e638a4cbf2f02089,68804d7299c1cabc0e7075c9,,,,,,,,,,,,,12,1,,./stim/wavs/cuban_match_interrogative-total-yn_Marta-abre-el-regalo.wav,,,,,,,,,,,,,,,,,,,,,,434.6575,436.7917,0,0,1.6018,,0,65,65,11,1,1,cuban,,,,,,,,,,,,,,,,,,,,,,,,,,,,,,,,,,,,,,,,,,,,,,,,,,,,,,,,
,,,,,,,,,58016c9f551314000145af58,Spanish,13 or older,"no, only English or Spanish",yes,2025-07-22_22h48.56.537,empathy_intonation_perc,2024.2.4,Win32,59.88023952,58016c9f551314000145af58,687ed1b7e638a4cbf2f02089,68804d7299c1cabc0e7075c9,,,,,,,,,,,,,85,0,,./stim/wavs/puertorican_mismatch_declarative-broad-focus_El-hombre-mira-la-luna.wav,,,,,,,,,,,,,,,,,,,,,,436.7926,438.9934,0,1,1.6686,,0,66,66,84,1,0,puertorican,,,,,,,,,,,,,,,,,,,,,,,,,,,,,,,,,,,,,,,,,,,,,,,,,,,,,,,,
,,,,,,,,,58016c9f551314000145af58,Spanish,13 or older,"no, only English or Spanish",yes,2025-07-22_22h48.56.537,empathy_intonation_perc,2024.2.4,Win32,59.88023952,58016c9f551314000145af58,687ed1b7e638a4cbf2f02089,68804d7299c1cabc0e7075c9,,,,,,,,,,,,,39,1,,./stim/wavs/mexican_mismatch_interrogative-total-yn_Mi-tia-odia-la-lluvia.wav,,,,,,,,,,,,,,,,,,,,,,438.9938,442.98,1,1,3.48,,0,67,67,38,1,0,mexican,,,,,,,,,,,,,,,,,,,,,,,,,,,,,,,,,,,,,,,,,,,,,,,,,,,,,,,,
,,,,,,,,,58016c9f551314000145af58,Spanish,13 or older,"no, only English or Spanish",yes,2025-07-22_22h48.56.537,empathy_intonation_perc,2024.2.4,Win32,59.88023952,58016c9f551314000145af58,687ed1b7e638a4cbf2f02089,68804d7299c1cabc0e7075c9,,,,,,,,,,,,,18,1,,./stim/wavs/mexican_match_interrogative-total-yn_Marta-abre-el-regalo.wav,,,,,,,,,,,,,,,,,,,,,,442.9804,446.0667,1,1,2.5677,,0,68,68,17,1,0,mexican,,,,,,,,,,,,,,,,,,,,,,,,,,,,,,,,,,,,,,,,,,,,,,,,,,,,,,,,
,,,,,,,,,58016c9f551314000145af58,Spanish,13 or older,"no, only English or Spanish",yes,2025-07-22_22h48.56.537,empathy_intonation_perc,2024.2.4,Win32,59.88023952,58016c9f551314000145af58,687ed1b7e638a4cbf2f02089,68804d7299c1cabc0e7075c9,,,,,,,,,,,,,81,0,,./stim/wavs/mexican_mismatch_declarative-broad-focus_La-maestra-vive-en-Paris.wav,,,,,,,,,,,,,,,,,,,,,,446.0677,448.3016,0,1,1.7121,,0,69,69,80,1,0,mexican,,,,,,,,,,,,,,,,,,,,,,,,,,,,,,,,,,,,,,,,,,,,,,,,,,,,,,,,
,,,,,,,,,58016c9f551314000145af58,Spanish,13 or older,"no, only English or Spanish",yes,2025-07-22_22h48.56.537,empathy_intonation_perc,2024.2.4,Win32,59.88023952,58016c9f551314000145af58,687ed1b7e638a4cbf2f02089,68804d7299c1cabc0e7075c9,,,,,,,,,,,,,46,0,,./stim/wavs/castilian_match_declarative-broad-focus_Emilio-ama-la-marcha.wav,,,,,,,,,,,,,,,,,,,,,,448.3029,450.4742,0,1,1.6507,,0,70,70,45,1,0,castilian,,,,,,,,,,,,,,,,,,,,,,,,,,,,,,,,,,,,,,,,,,,,,,,,,,,,,,,,
,,,,,,,,,58016c9f551314000145af58,Spanish,13 or older,"no, only English or Spanish",yes,2025-07-22_22h48.56.537,empathy_intonation_perc,2024.2.4,Win32,59.88023952,58016c9f551314000145af58,687ed1b7e638a4cbf2f02089,68804d7299c1cabc0e7075c9,,,,,,,,,,,,,80,0,,./stim/wavs/mexican_mismatch_declarative-broad-focus_El-hombre-mira-la-luna.wav,,,,,,,,,,,,,,,,,,,,,,450.4747,453.89,0,1,2.8911,,0,71,71,79,1,0,mexican,,,,,,,,,,,,,,,,,,,,,,,,,,,,,,,,,,,,,,,,,,,,,,,,,,,,,,,,
,,,,,,,,,58016c9f551314000145af58,Spanish,13 or older,"no, only English or Spanish",yes,2025-07-22_22h48.56.537,empathy_intonation_perc,2024.2.4,Win32,59.88023952,58016c9f551314000145af58,687ed1b7e638a4cbf2f02089,68804d7299c1cabc0e7075c9,,,,,,,,,,,,,64,0,,./stim/wavs/puertorican_match_declarative-broad-focus_Daniel-iba-a-Bolivia.wav,,,,,,,,,,,,,,,,,,,,,,453.8909,456.1919,0,1,1.775,,0,72,72,63,1,0,puertorican,,,,,,,,,,,,,,,,,,,,,,,,,,,,,,,,,,,,,,,,,,,,,,,,,,,,,,,,
,,,,,,,,,58016c9f551314000145af58,Spanish,13 or older,"no, only English or Spanish",yes,2025-07-22_22h48.56.537,empathy_intonation_perc,2024.2.4,Win32,59.88023952,58016c9f551314000145af58,687ed1b7e638a4cbf2f02089,68804d7299c1cabc0e7075c9,,,,,,,,,,,,,44,1,,./stim/wavs/puertorican_mismatch_interrogative-total-yn_Mi-madre-come-la-fruta.wav,,,,,,,,,,,,,,,,,,,,,,456.1926,458.461,0,0,1.737,,0,73,73,43,1,1,puertorican,,,,,,,,,,,,,,,,,,,,,,,,,,,,,,,,,,,,,,,,,,,,,,,,,,,,,,,,
,,,,,,,,,58016c9f551314000145af58,Spanish,13 or older,"no, only English or Spanish",yes,2025-07-22_22h48.56.537,empathy_intonation_perc,2024.2.4,Win32,59.88023952,58016c9f551314000145af58,687ed1b7e638a4cbf2f02089,68804d7299c1cabc0e7075c9,,,,,,,,,,,,,28,1,,./stim/wavs/castilian_mismatch_interrogative-total-yn_Mi-novio-viene-del-lago.wav,,,,,,,,,,,,,,,,,,,,,,458.462,463.8821,1,1,4.8933,,0,74,74,27,1,0,castilian,,,,,,,,,,,,,,,,,,,,,,,,,,,,,,,,,,,,,,,,,,,,,,,,,,,,,,,,
,,,,,,,,,58016c9f551314000145af58,Spanish,13 or older,"no, only English or Spanish",yes,2025-07-22_22h48.56.537,empathy_intonation_perc,2024.2.4,Win32,59.88023952,58016c9f551314000145af58,687ed1b7e638a4cbf2f02089,68804d7299c1cabc0e7075c9,,,,,,,,,,,,,30,1,,./stim/wavs/cuban_mismatch_interrogative-total-yn_El-hombre-mira-la-luna.wav,,,,,,,,,,,,,,,,,,,,,,463.883,468.5029,0,0,4.0873,,0,75,75,29,1,1,cuban,,,,,,,,,,,,,,,,,,,,,,,,,,,,,,,,,,,,,,,,,,,,,,,,,,,,,,,,
,,,,,,,,,58016c9f551314000145af58,Spanish,13 or older,"no, only English or Spanish",yes,2025-07-22_22h48.56.537,empathy_intonation_perc,2024.2.4,Win32,59.88023952,58016c9f551314000145af58,687ed1b7e638a4cbf2f02089,68804d7299c1cabc0e7075c9,,,,,,,,,,,,,57,0,,./stim/wavs/mexican_match_declarative-broad-focus_Ana-lleva-el-abrigo.wav,,,,,,,,,,,,,,,,,,,,,,468.5037,470.7047,0,1,1.6742,,0,76,76,56,1,0,mexican,,,,,,,,,,,,,,,,,,,,,,,,,,,,,,,,,,,,,,,,,,,,,,,,,,,,,,,,
,,,,,,,,,58016c9f551314000145af58,Spanish,13 or older,"no, only English or Spanish",yes,2025-07-22_22h48.56.537,empathy_intonation_perc,2024.2.4,Win32,59.88023952,58016c9f551314000145af58,687ed1b7e638a4cbf2f02089,68804d7299c1cabc0e7075c9,,,,,,,,,,,,,43,1,,./stim/wavs/puertorican_mismatch_interrogative-total-yn_La-nina-lava-el-plato.wav,,,,,,,,,,,,,,,,,,,,,,470.7055,473.2073,0,0,1.9853,,0,77,77,42,1,1,puertorican,,,,,,,,,,,,,,,,,,,,,,,,,,,,,,,,,,,,,,,,,,,,,,,,,,,,,,,,
,,,,,,,,,58016c9f551314000145af58,Spanish,13 or older,"no, only English or Spanish",yes,2025-07-22_22h48.56.537,empathy_intonation_perc,2024.2.4,Win32,59.88023952,58016c9f551314000145af58,687ed1b7e638a4cbf2f02089,68804d7299c1cabc0e7075c9,,,,,,,,,,,,,83,0,,./stim/wavs/mexican_mismatch_declarative-broad-focus_Mi-tia-odia-la-lluvia.wav,,,,,,,,,,,,,,,,,,,,,,473.208,475.5425,0,1,1.8024,,0,78,78,82,1,0,mexican,,,,,,,,,,,,,,,,,,,,,,,,,,,,,,,,,,,,,,,,,,,,,,,,,,,,,,,,
,,,,,,,,,58016c9f551314000145af58,Spanish,13 or older,"no, only English or Spanish",yes,2025-07-22_22h48.56.537,empathy_intonation_perc,2024.2.4,Win32,59.88023952,58016c9f551314000145af58,687ed1b7e638a4cbf2f02089,68804d7299c1cabc0e7075c9,,,,,,,,,,,,,49,0,,./stim/wavs/castilian_match_declarative-broad-focus_Mariano-habla-del-tiempo.wav,,,,,,,,,,,,,,,,,,,,,,475.5434,478.2285,0,1,2.1546,,0,79,79,48,1,0,castilian,,,,,,,,,,,,,,,,,,,,,,,,,,,,,,,,,,,,,,,,,,,,,,,,,,,,,,,,
,,,,,,,,,58016c9f551314000145af58,Spanish,13 or older,"no, only English or Spanish",yes,2025-07-22_22h48.56.537,empathy_intonation_perc,2024.2.4,Win32,59.88023952,58016c9f551314000145af58,687ed1b7e638a4cbf2f02089,68804d7299c1cabc0e7075c9,,,,,,,,,,,,,23,1,,./stim/wavs/puertorican_match_interrogative-total-yn_Manuela-vende-el-carro.wav,,,,,,,,,,,,,,,,,,,,,,478.2291,481.1645,0,0,2.4132,,0,80,80,22,1,1,puertorican,,,,,,,,,,,,,,,,,,,,,,,,,,,,,,,,,,,,,,,,,,,,,,,,,,,,,,,,
,,,,,,,,,58016c9f551314000145af58,Spanish,13 or older,"no, only English or Spanish",yes,2025-07-22_22h48.56.537,empathy_intonation_perc,2024.2.4,Win32,59.88023952,58016c9f551314000145af58,687ed1b7e638a4cbf2f02089,68804d7299c1cabc0e7075c9,,,,,,,,,,,,,72,0,,./stim/wavs/castilian_mismatch_declarative-broad-focus_Mi-novio-viene-del-lago.wav,,,,,,,,,,,,,,,,,,,,,,481.1652,483.4494,0,1,1.7561,,0,81,81,71,1,0,castilian,,,,,,,,,,,,,,,,,,,,,,,,,,,,,,,,,,,,,,,,,,,,,,,,,,,,,,,,
,,,,,,,,,58016c9f551314000145af58,Spanish,13 or older,"no, only English or Spanish",yes,2025-07-22_22h48.56.537,empathy_intonation_perc,2024.2.4,Win32,59.88023952,58016c9f551314000145af58,687ed1b7e638a4cbf2f02089,68804d7299c1cabc0e7075c9,,,,,,,,,,,,,38,1,,./stim/wavs/mexican_mismatch_interrogative-total-yn_Mi-novio-viene-del-lago.wav,,,,,,,,,,,,,,,,,,,,,,483.4498,486.9524,1,1,2.9855,,0,82,82,37,1,0,mexican,,,,,,,,,,,,,,,,,,,,,,,,,,,,,,,,,,,,,,,,,,,,,,,,,,,,,,,,
,,,,,,,,,58016c9f551314000145af58,Spanish,13 or older,"no, only English or Spanish",yes,2025-07-22_22h48.56.537,empathy_intonation_perc,2024.2.4,Win32,59.88023952,58016c9f551314000145af58,687ed1b7e638a4cbf2f02089,68804d7299c1cabc0e7075c9,,,,,,,,,,,,,9,1,,./stim/wavs/cuban_match_interrogative-total-yn_Manuela-vende-el-carro.wav,,,,,,,,,,,,,,,,,,,,,,486.9529,489.3883,0,0,1.9207,,0,83,83,8,1,1,cuban,,,,,,,,,,,,,,,,,,,,,,,,,,,,,,,,,,,,,,,,,,,,,,,,,,,,,,,,
,,,,,,,,,58016c9f551314000145af58,Spanish,13 or older,"no, only English or Spanish",yes,2025-07-22_22h48.56.537,empathy_intonation_perc,2024.2.4,Win32,59.88023952,58016c9f551314000145af58,687ed1b7e638a4cbf2f02089,68804d7299c1cabc0e7075c9,,,,,,,,,,,,,4,1,,./stim/wavs/castilian_match_interrogative-total-yn_Maria-bebe-el-vino.wav,,,,,,,,,,,,,,,,,,,,,,489.3887,491.79,1,1,1.877,,0,84,84,3,1,0,castilian,,,,,,,,,,,,,,,,,,,,,,,,,,,,,,,,,,,,,,,,,,,,,,,,,,,,,,,,
,,,,,,,,,58016c9f551314000145af58,Spanish,13 or older,"no, only English or Spanish",yes,2025-07-22_22h48.56.537,empathy_intonation_perc,2024.2.4,Win32,59.88023952,58016c9f551314000145af58,687ed1b7e638a4cbf2f02089,68804d7299c1cabc0e7075c9,,,,,,,,,,,,,75,0,,./stim/wavs/cuban_mismatch_declarative-broad-focus_El-hombre-mira-la-luna.wav,,,,,,,,,,,,,,,,,,,,,,491.7908,493.8251,0,1,1.5227,,0,85,85,74,1,0,cuban,,,,,,,,,,,,,,,,,,,,,,,,,,,,,,,,,,,,,,,,,,,,,,,,,,,,,,,,
,,,,,,,,,58016c9f551314000145af58,Spanish,13 or older,"no, only English or Spanish",yes,2025-07-22_22h48.56.537,empathy_intonation_perc,2024.2.4,Win32,59.88023952,58016c9f551314000145af58,687ed1b7e638a4cbf2f02089,68804d7299c1cabc0e7075c9,,,,,,,,,,,,,71,0,,./stim/wavs/castilian_mismatch_declarative-broad-focus_La-nina-lava-el-plato.wav,,,,,,,,,,,,,,,,,,,,,,493.8254,496.4112,0,1,2.0691,,0,86,86,70,1,0,castilian,,,,,,,,,,,,,,,,,,,,,,,,,,,,,,,,,,,,,,,,,,,,,,,,,,,,,,,,
,,,,,,,,,58016c9f551314000145af58,Spanish,13 or older,"no, only English or Spanish",yes,2025-07-22_22h48.56.537,empathy_intonation_perc,2024.2.4,Win32,59.88023952,58016c9f551314000145af58,687ed1b7e638a4cbf2f02089,68804d7299c1cabc0e7075c9,,,,,,,,,,,,,15,1,,./stim/wavs/mexican_match_interrogative-total-yn_David-leia-el-libro.wav,,,,,,,,,,,,,,,,,,,,,,496.4122,498.8967,1,1,1.9521,,0,87,87,14,1,0,mexican,,,,,,,,,,,,,,,,,,,,,,,,,,,,,,,,,,,,,,,,,,,,,,,,,,,,,,,,
,,,,,,,"Great! Now we will move on. The next task consists of about 60 trials, in each of which you will see a string of letters. 
  
  Your task is to decide whether this is a real Spanish word or not.", (press the spacebar to continue),58016c9f551314000145af58,Spanish,13 or older,"no, only English or Spanish",yes,2025-07-22_22h48.56.537,empathy_intonation_perc,2024.2.4,Win32,59.88023952,58016c9f551314000145af58,687ed1b7e638a4cbf2f02089,68804d7299c1cabc0e7075c9,,,,,,,,,,,,,,,,,,,,,,,,,,,,,,,,,,,,,,,,,,,,,,,,,,,498.9096,502.7673,0,0,0,0,1,,,,,,,,,,,,,,,,,,,,,,,,,,,,,,,,,,,,,,,,,,,,,,,,,
,,,,,,,"If you think it is an existing Spanish word, you type '1' (for 'REAL'), and if you think it is not an existing Spanish word, you type '0' (for 'FAKE').", (press the spacebar to continue),58016c9f551314000145af58,Spanish,13 or older,"no, only English or Spanish",yes,2025-07-22_22h48.56.537,empathy_intonation_perc,2024.2.4,Win32,59.88023952,58016c9f551314000145af58,687ed1b7e638a4cbf2f02089,68804d7299c1cabc0e7075c9,,,,,,,,,,,,,,,,,,,,,,,,,,,,,,,,,,,,,,,,,,,,,,,,,,,502.7718,528.3562,0,1,1,1,1,,,,,,,,,,,,,,,,,,,,,,,,,,,,,,,,,,,,,,,,,,,,,,,,,
,,,,,,,"If you are sure that the word exists, even though you don’t know its exact meaning, you may still respond '1' (REAL). 
  
  But if you are not sure if it is an existing word, you should respond '0' (FAKE).
  
  Let's do a practice round...", (press the spacebar to continue),58016c9f551314000145af58,Spanish,13 or older,"no, only English or Spanish",yes,2025-07-22_22h48.56.537,empathy_intonation_perc,2024.2.4,Win32,59.88023952,58016c9f551314000145af58,687ed1b7e638a4cbf2f02089,68804d7299c1cabc0e7075c9,,,,,,,,,,,,,,,,,,,,,,,,,,,,,,,,,,,,,,,,,,,,,,,,,,,528.3603,534.2779,0,2,2,2,1,,,,,,,,,,,,,,,,,,,,,,,,,,,,,,,,,,,,,,,,,,,,,,,,,
,,,,,,,,,58016c9f551314000145af58,Spanish,13 or older,"no, only English or Spanish",yes,2025-07-22_22h48.56.537,empathy_intonation_perc,2024.2.4,Win32,59.88023952,58016c9f551314000145af58,687ed1b7e638a4cbf2f02089,68804d7299c1cabc0e7075c9,,,,,,,,,,,,,,0,,,,,,,,,,,,,,,,,,,,,,,,,,,,,,,,,,,,,,,,,,,,534.284,537.6313,1,0,2.8245,,537.6317,538.6319,0,0,0,0,1,0,depiste,REAL,FAKE,,,,,,,,,,,,,,,,,,,,,,,,,,,,,,,,
,,,,,,,,,58016c9f551314000145af58,Spanish,13 or older,"no, only English or Spanish",yes,2025-07-22_22h48.56.537,empathy_intonation_perc,2024.2.4,Win32,59.88023952,58016c9f551314000145af58,687ed1b7e638a4cbf2f02089,68804d7299c1cabc0e7075c9,,,,,,,,,,,,,,1,,,,,,,,,,,,,,,,,,,,,,,,,,,,,,,,,,,,,,,,,,,,538.6341,540.0163,1,1,0.8478,,540.0173,541.0173,0,1,1,1,1,0,sí,REAL,FAKE,,,,,,,,,,,,,,,,,,,,,,,,,,,,,,,,
,,,,,,,,,58016c9f551314000145af58,Spanish,13 or older,"no, only English or Spanish",yes,2025-07-22_22h48.56.537,empathy_intonation_perc,2024.2.4,Win32,59.88023952,58016c9f551314000145af58,687ed1b7e638a4cbf2f02089,68804d7299c1cabc0e7075c9,,,,,,,,,,,,,,0,,,,,,,,,,,,,,,,,,,,,,,,,,,,,,,,,,,,,,,,,,,,541.0199,542.7688,0,1,1.2208,,542.7689,543.7696,0,2,2,2,1,0,coné,REAL,FAKE,,,,,,,,,,,,,,,,,,,,,,,,,,,,,,,,
,,,,,,,,,58016c9f551314000145af58,Spanish,13 or older,"no, only English or Spanish",yes,2025-07-22_22h48.56.537,empathy_intonation_perc,2024.2.4,Win32,59.88023952,58016c9f551314000145af58,687ed1b7e638a4cbf2f02089,68804d7299c1cabc0e7075c9,,,,,,,,,,,,,,0,,,,,,,,,,,,,,,,,,,,,,,,,,,,,,,,,,,,,,,,,,,,543.771,546.5718,0,1,2.2682,,546.5719,547.5729,0,3,3,3,1,0,calpar,REAL,FAKE,,,,,,,,,,,,,,,,,,,,,,,,,,,,,,,,
,,,,,,,,,58016c9f551314000145af58,Spanish,13 or older,"no, only English or Spanish",yes,2025-07-22_22h48.56.537,empathy_intonation_perc,2024.2.4,Win32,59.88023952,58016c9f551314000145af58,687ed1b7e638a4cbf2f02089,68804d7299c1cabc0e7075c9,,,,,,,,,,,,,,0,,,,,,,,,,,,,,,,,,,,,,,,,,,,,,,,,,,,,,,,,,,,547.5749,549.3578,1,0,1.2562,,549.3588,550.3589,0,4,4,4,1,0,joten,REAL,FAKE,,,,,,,,,,,,,,,,,,,,,,,,,,,,,,,,
,,,,,,,,,58016c9f551314000145af58,Spanish,13 or older,"no, only English or Spanish",yes,2025-07-22_22h48.56.537,empathy_intonation_perc,2024.2.4,Win32,59.88023952,58016c9f551314000145af58,687ed1b7e638a4cbf2f02089,68804d7299c1cabc0e7075c9,,,,,,,,,,,,,,1,,,,,,,,,,,,,,,,,,,,,,,,,,,,,,,,,,,,,,,,,,,,550.3602,552.661,0,0,1.7679,,552.661,553.6617,0,5,5,5,1,0,sacapuntas,REAL,FAKE,,,,,,,,,,,,,,,,,,,,,,,,,,,,,,,,
,,,,,,,,,58016c9f551314000145af58,Spanish,13 or older,"no, only English or Spanish",yes,2025-07-22_22h48.56.537,empathy_intonation_perc,2024.2.4,Win32,59.88023952,58016c9f551314000145af58,687ed1b7e638a4cbf2f02089,68804d7299c1cabc0e7075c9,,,,,,,,,,,,,,0,,,,,,,,,,,,,,,,,,,,,,,,,,,,,,,,,,,,,,,,,,,,553.6641,555.5302,0,1,1.3307,,555.5311,556.531,0,6,6,6,1,0,priba,REAL,FAKE,,,,,,,,,,,,,,,,,,,,,,,,,,,,,,,,
,,,,,,,,,58016c9f551314000145af58,Spanish,13 or older,"no, only English or Spanish",yes,2025-07-22_22h48.56.537,empathy_intonation_perc,2024.2.4,Win32,59.88023952,58016c9f551314000145af58,687ed1b7e638a4cbf2f02089,68804d7299c1cabc0e7075c9,,,,,,,,,,,,,,0,,,,,,,,,,,,,,,,,,,,,,,,,,,,,,,,,,,,,,,,,,,,556.5325,558.382,0,1,1.3239,,558.382,559.3833,0,7,7,7,1,0,pelasula,REAL,FAKE,,,,,,,,,,,,,,,,,,,,,,,,,,,,,,,,
,,,,,,,,,58016c9f551314000145af58,Spanish,13 or older,"no, only English or Spanish",yes,2025-07-22_22h48.56.537,empathy_intonation_perc,2024.2.4,Win32,59.88023952,58016c9f551314000145af58,687ed1b7e638a4cbf2f02089,68804d7299c1cabc0e7075c9,,,,,,,,,,,,,,1,,,,,,,,,,,,,,,,,,,,,,,,,,,,,,,,,,,,,,,,,,,,559.3846,560.701,1,1,0.8075,,560.7011,561.702,0,8,8,8,1,0,bien,REAL,FAKE,,,,,,,,,,,,,,,,,,,,,,,,,,,,,,,,
,,,,,,,,,58016c9f551314000145af58,Spanish,13 or older,"no, only English or Spanish",yes,2025-07-22_22h48.56.537,empathy_intonation_perc,2024.2.4,Win32,59.88023952,58016c9f551314000145af58,687ed1b7e638a4cbf2f02089,68804d7299c1cabc0e7075c9,,,,,,,,,,,,,,1,,,,,,,,,,,,,,,,,,,,,,,,,,,,,,,,,,,,,,,,,,,,561.7034,563.02,1,1,0.7814,,563.0201,564.0209,0,9,9,9,1,0,casa,REAL,FAKE,,,,,,,,,,,,,,,,,,,,,,,,,,,,,,,,
,,,,,,,,,58016c9f551314000145af58,Spanish,13 or older,"no, only English or Spanish",yes,2025-07-22_22h48.56.537,empathy_intonation_perc,2024.2.4,Win32,59.88023952,58016c9f551314000145af58,687ed1b7e638a4cbf2f02089,68804d7299c1cabc0e7075c9,,,,,,,,,,,,,,0,,,,,,,,,,,,,,,,,,,,,,,,,,,,,,,,,,,,,,,,,,,,564.0223,565.4888,1,0,0.9384,,565.4897,566.4892,0,10,10,10,1,0,lejo,REAL,FAKE,,,,,,,,,,,,,,,,,,,,,,,,,,,,,,,,
,,,,,,,,,58016c9f551314000145af58,Spanish,13 or older,"no, only English or Spanish",yes,2025-07-22_22h48.56.537,empathy_intonation_perc,2024.2.4,Win32,59.88023952,58016c9f551314000145af58,687ed1b7e638a4cbf2f02089,68804d7299c1cabc0e7075c9,,,,,,,,,,,,,,0,,,,,,,,,,,,,,,,,,,,,,,,,,,,,,,,,,,,,,,,,,,,566.4899,568.4079,0,1,1.4057,,568.4088,569.4086,0,11,11,11,1,0,pretantas,REAL,FAKE,,,,,,,,,,,,,,,,,,,,,,,,,,,,,,,,
,,,,,,,,,58016c9f551314000145af58,Spanish,13 or older,"no, only English or Spanish",yes,2025-07-22_22h48.56.537,empathy_intonation_perc,2024.2.4,Win32,59.88023952,58016c9f551314000145af58,687ed1b7e638a4cbf2f02089,68804d7299c1cabc0e7075c9,,,,,,,,,,,,,,,,,,,,,,,,,,,,,,,,,,,,,,,,,,,,,,,,,,,,,,,,,,,,,,,,,,,,,,,,,,,569.409,570.9774,,,,,,,,,,,,,,,,,,,,,,,,,,,,,,
,,,,,,,,,58016c9f551314000145af58,Spanish,13 or older,"no, only English or Spanish",yes,2025-07-22_22h48.56.537,empathy_intonation_perc,2024.2.4,Win32,59.88023952,58016c9f551314000145af58,687ed1b7e638a4cbf2f02089,68804d7299c1cabc0e7075c9,,,,,,,,,,,,,,1,,,,,,,,,,,,,,,,,,,,,,,,,,,,,,,,,,,,,,,,,,,,,,,,,,,,,,,,,44,cuchara,,,,,570.995,573.4463,1,1,1.9184,,0,0,0,43,1,REAL,FAKE,,,,,,,,,,,,,,,,,
,,,,,,,,,58016c9f551314000145af58,Spanish,13 or older,"no, only English or Spanish",yes,2025-07-22_22h48.56.537,empathy_intonation_perc,2024.2.4,Win32,59.88023952,58016c9f551314000145af58,687ed1b7e638a4cbf2f02089,68804d7299c1cabc0e7075c9,,,,,,,,,,,,,,0,,,,,,,,,,,,,,,,,,,,,,,,,,,,,,,,,,,,,,,,,,,,,,,,,,,,,,,,,8,cadeña,,,,,573.4487,575.0637,1,0,1.0884,,0,1,1,7,1,REAL,FAKE,,,,,,,,,,,,,,,,,
,,,,,,,,,58016c9f551314000145af58,Spanish,13 or older,"no, only English or Spanish",yes,2025-07-22_22h48.56.537,empathy_intonation_perc,2024.2.4,Win32,59.88023952,58016c9f551314000145af58,687ed1b7e638a4cbf2f02089,68804d7299c1cabc0e7075c9,,,,,,,,,,,,,,1,,,,,,,,,,,,,,,,,,,,,,,,,,,,,,,,,,,,,,,,,,,,,,,,,,,,,,,,,62,flaco,,,,,575.065,576.5487,0,0,0.9606,,0,2,2,61,1,REAL,FAKE,,,,,,,,,,,,,,,,,
,,,,,,,,,58016c9f551314000145af58,Spanish,13 or older,"no, only English or Spanish",yes,2025-07-22_22h48.56.537,empathy_intonation_perc,2024.2.4,Win32,59.88023952,58016c9f551314000145af58,687ed1b7e638a4cbf2f02089,68804d7299c1cabc0e7075c9,,,,,,,,,,,,,,0,,,,,,,,,,,,,,,,,,,,,,,,,,,,,,,,,,,,,,,,,,,,,,,,,,,,,,,,,92,click the 0 key.,,,,,576.5504,578.3336,0,1,1.2498,,0,3,3,91,1,REAL,FAKE,,,,,,,,,,,,,,,,,
,,,,,,,,,58016c9f551314000145af58,Spanish,13 or older,"no, only English or Spanish",yes,2025-07-22_22h48.56.537,empathy_intonation_perc,2024.2.4,Win32,59.88023952,58016c9f551314000145af58,687ed1b7e638a4cbf2f02089,68804d7299c1cabc0e7075c9,,,,,,,,,,,,,,1,,,,,,,,,,,,,,,,,,,,,,,,,,,,,,,,,,,,,,,,,,,,,,,,,,,,,,,,,56,musgo,,,,,578.3349,581.403,0,0,2.5381,,0,4,4,55,1,REAL,FAKE,,,,,,,,,,,,,,,,,
,,,,,,,,,58016c9f551314000145af58,Spanish,13 or older,"no, only English or Spanish",yes,2025-07-22_22h48.56.537,empathy_intonation_perc,2024.2.4,Win32,59.88023952,58016c9f551314000145af58,687ed1b7e638a4cbf2f02089,68804d7299c1cabc0e7075c9,,,,,,,,,,,,,,0,,,,,,,,,,,,,,,,,,,,,,,,,,,,,,,,,,,,,,,,,,,,,,,,,,,,,,,,,84,escuto,,,,,581.4045,583.805,1,0,1.8648,,0,5,5,83,1,REAL,FAKE,,,,,,,,,,,,,,,,,
,,,,,,,,,58016c9f551314000145af58,Spanish,13 or older,"no, only English or Spanish",yes,2025-07-22_22h48.56.537,empathy_intonation_perc,2024.2.4,Win32,59.88023952,58016c9f551314000145af58,687ed1b7e638a4cbf2f02089,68804d7299c1cabc0e7075c9,,,,,,,,,,,,,,0,,,,,,,,,,,,,,,,,,,,,,,,,,,,,,,,,,,,,,,,,,,,,,,,,,,,,,,,,87,grodo,,,,,583.8064,585.3563,0,1,1.025,,0,6,6,86,1,REAL,FAKE,,,,,,,,,,,,,,,,,
,,,,,,,,,58016c9f551314000145af58,Spanish,13 or older,"no, only English or Spanish",yes,2025-07-22_22h48.56.537,empathy_intonation_perc,2024.2.4,Win32,59.88023952,58016c9f551314000145af58,687ed1b7e638a4cbf2f02089,68804d7299c1cabc0e7075c9,,,,,,,,,,,,,,1,,,,,,,,,,,,,,,,,,,,,,,,,,,,,,,,,,,,,,,,,,,,,,,,,,,,,,,,,78,frondoso,,,,,585.3578,586.9913,0,0,1.0982,,0,7,7,77,1,REAL,FAKE,,,,,,,,,,,,,,,,,
,,,,,,,,,58016c9f551314000145af58,Spanish,13 or older,"no, only English or Spanish",yes,2025-07-22_22h48.56.537,empathy_intonation_perc,2024.2.4,Win32,59.88023952,58016c9f551314000145af58,687ed1b7e638a4cbf2f02089,68804d7299c1cabc0e7075c9,,,,,,,,,,,,,,1,,,,,,,,,,,,,,,,,,,,,,,,,,,,,,,,,,,,,,,,,,,,,,,,,,,,,,,,,91,click the 1 key.,,,,,586.9935,588.6424,1,1,1.1209,,0,8,8,90,1,REAL,FAKE,,,,,,,,,,,,,,,,,
,,,,,,,,,58016c9f551314000145af58,Spanish,13 or older,"no, only English or Spanish",yes,2025-07-22_22h48.56.537,empathy_intonation_perc,2024.2.4,Win32,59.88023952,58016c9f551314000145af58,687ed1b7e638a4cbf2f02089,68804d7299c1cabc0e7075c9,,,,,,,,,,,,,,1,,,,,,,,,,,,,,,,,,,,,,,,,,,,,,,,,,,,,,,,,,,,,,,,,,,,,,,,,48,ladrón,,,,,588.6448,591.2614,1,1,2.0913,,0,9,9,47,1,REAL,FAKE,,,,,,,,,,,,,,,,,
,,,,,,,,,58016c9f551314000145af58,Spanish,13 or older,"no, only English or Spanish",yes,2025-07-22_22h48.56.537,empathy_intonation_perc,2024.2.4,Win32,59.88023952,58016c9f551314000145af58,687ed1b7e638a4cbf2f02089,68804d7299c1cabc0e7075c9,,,,,,,,,,,,,,0,,,,,,,,,,,,,,,,,,,,,,,,,,,,,,,,,,,,,,,,,,,,,,,,,,,,,,,,,16,abracer,,,,,591.2629,592.7792,1,0,0.9807,,0,10,10,15,1,REAL,FAKE,,,,,,,,,,,,,,,,,
,,,,,,,,,58016c9f551314000145af58,Spanish,13 or older,"no, only English or Spanish",yes,2025-07-22_22h48.56.537,empathy_intonation_perc,2024.2.4,Win32,59.88023952,58016c9f551314000145af58,687ed1b7e638a4cbf2f02089,68804d7299c1cabc0e7075c9,,,,,,,,,,,,,,1,,,,,,,,,,,,,,,,,,,,,,,,,,,,,,,,,,,,,,,,,,,,,,,,,,,,,,,,,3,pulmones,,,,,592.7798,595.0815,0,0,1.782,,0,11,11,2,1,REAL,FAKE,,,,,,,,,,,,,,,,,
,,,,,,,,,58016c9f551314000145af58,Spanish,13 or older,"no, only English or Spanish",yes,2025-07-22_22h48.56.537,empathy_intonation_perc,2024.2.4,Win32,59.88023952,58016c9f551314000145af58,687ed1b7e638a4cbf2f02089,68804d7299c1cabc0e7075c9,,,,,,,,,,,,,,1,,,,,,,,,,,,,,,,,,,,,,,,,,,,,,,,,,,,,,,,,,,,,,,,,,,,,,,,,6,tergiversar,,,,,595.0837,596.8831,0,0,1.2654,,0,12,12,5,1,REAL,FAKE,,,,,,,,,,,,,,,,,
,,,,,,,,,58016c9f551314000145af58,Spanish,13 or older,"no, only English or Spanish",yes,2025-07-22_22h48.56.537,empathy_intonation_perc,2024.2.4,Win32,59.88023952,58016c9f551314000145af58,687ed1b7e638a4cbf2f02089,68804d7299c1cabc0e7075c9,,,,,,,,,,,,,,0,,,,,,,,,,,,,,,,,,,,,,,,,,,,,,,,,,,,,,,,,,,,,,,,,,,,,,,,,42,cadallo,,,,,596.8838,598.885,0,1,1.4841,,0,13,13,41,1,REAL,FAKE,,,,,,,,,,,,,,,,,
,,,,,,,,,58016c9f551314000145af58,Spanish,13 or older,"no, only English or Spanish",yes,2025-07-22_22h48.56.537,empathy_intonation_perc,2024.2.4,Win32,59.88023952,58016c9f551314000145af58,687ed1b7e638a4cbf2f02089,68804d7299c1cabc0e7075c9,,,,,,,,,,,,,,0,,,,,,,,,,,,,,,,,,,,,,,,,,,,,,,,,,,,,,,,,,,,,,,,,,,,,,,,,47,cartinar,,,,,598.8862,601.5037,1,0,2.0885,,0,14,14,46,1,REAL,FAKE,,,,,,,,,,,,,,,,,
,,,,,,,,,58016c9f551314000145af58,Spanish,13 or older,"no, only English or Spanish",yes,2025-07-22_22h48.56.537,empathy_intonation_perc,2024.2.4,Win32,59.88023952,58016c9f551314000145af58,687ed1b7e638a4cbf2f02089,68804d7299c1cabc0e7075c9,,,,,,,,,,,,,,1,,,,,,,,,,,,,,,,,,,,,,,,,,,,,,,,,,,,,,,,,,,,,,,,,,,,,,,,,67,cabello,,,,,601.5052,603.0217,1,1,0.99,,0,15,15,66,1,REAL,FAKE,,,,,,,,,,,,,,,,,
,,,,,,,,,58016c9f551314000145af58,Spanish,13 or older,"no, only English or Spanish",yes,2025-07-22_22h48.56.537,empathy_intonation_perc,2024.2.4,Win32,59.88023952,58016c9f551314000145af58,687ed1b7e638a4cbf2f02089,68804d7299c1cabc0e7075c9,,,,,,,,,,,,,,0,,,,,,,,,,,,,,,,,,,,,,,,,,,,,,,,,,,,,,,,,,,,,,,,,,,,,,,,,74,cintro,,,,,603.0231,604.5398,0,1,1.001,,0,16,16,73,1,REAL,FAKE,,,,,,,,,,,,,,,,,
,,,,,,,,,58016c9f551314000145af58,Spanish,13 or older,"no, only English or Spanish",yes,2025-07-22_22h48.56.537,empathy_intonation_perc,2024.2.4,Win32,59.88023952,58016c9f551314000145af58,687ed1b7e638a4cbf2f02089,68804d7299c1cabc0e7075c9,,,,,,,,,,,,,,1,,,,,,,,,,,,,,,,,,,,,,,,,,,,,,,,,,,,,,,,,,,,,,,,,,,,,,,,,34,aviso,,,,,604.5412,606.0081,1,1,0.931,,0,17,17,33,1,REAL,FAKE,,,,,,,,,,,,,,,,,
,,,,,,,,,58016c9f551314000145af58,Spanish,13 or older,"no, only English or Spanish",yes,2025-07-22_22h48.56.537,empathy_intonation_perc,2024.2.4,Win32,59.88023952,58016c9f551314000145af58,687ed1b7e638a4cbf2f02089,68804d7299c1cabc0e7075c9,,,,,,,,,,,,,,1,,,,,,,,,,,,,,,,,,,,,,,,,,,,,,,,,,,,,,,,,,,,,,,,,,,,,,,,,51,candado,,,,,606.0095,607.5925,0,0,1.0545,,0,18,18,50,1,REAL,FAKE,,,,,,,,,,,,,,,,,
,,,,,,,,,58016c9f551314000145af58,Spanish,13 or older,"no, only English or Spanish",yes,2025-07-22_22h48.56.537,empathy_intonation_perc,2024.2.4,Win32,59.88023952,58016c9f551314000145af58,687ed1b7e638a4cbf2f02089,68804d7299c1cabc0e7075c9,,,,,,,,,,,,,,1,,,,,,,,,,,,,,,,,,,,,,,,,,,,,,,,,,,,,,,,,,,,,,,,,,,,,,,,,25,bisagra,,,,,607.5938,609.0939,0,0,0.9818,,0,19,19,24,1,REAL,FAKE,,,,,,,,,,,,,,,,,
,,,,,,,,,58016c9f551314000145af58,Spanish,13 or older,"no, only English or Spanish",yes,2025-07-22_22h48.56.537,empathy_intonation_perc,2024.2.4,Win32,59.88023952,58016c9f551314000145af58,687ed1b7e638a4cbf2f02089,68804d7299c1cabc0e7075c9,,,,,,,,,,,,,,0,,,,,,,,,,,,,,,,,,,,,,,,,,,,,,,,,,,,,,,,,,,,,,,,,,,,,,,,,1,terzo,,,,,609.0962,610.8621,0,1,1.2403,,0,20,20,0,1,REAL,FAKE,,,,,,,,,,,,,,,,,
,,,,,,,,,58016c9f551314000145af58,Spanish,13 or older,"no, only English or Spanish",yes,2025-07-22_22h48.56.537,empathy_intonation_perc,2024.2.4,Win32,59.88023952,58016c9f551314000145af58,687ed1b7e638a4cbf2f02089,68804d7299c1cabc0e7075c9,,,,,,,,,,,,,,1,,,,,,,,,,,,,,,,,,,,,,,,,,,,,,,,,,,,,,,,,,,,,,,,,,,,,,,,,26,secuestro,,,,,610.8633,612.4131,1,1,1.0395,,0,21,21,25,1,REAL,FAKE,,,,,,,,,,,,,,,,,
,,,,,,,,,58016c9f551314000145af58,Spanish,13 or older,"no, only English or Spanish",yes,2025-07-22_22h48.56.537,empathy_intonation_perc,2024.2.4,Win32,59.88023952,58016c9f551314000145af58,687ed1b7e638a4cbf2f02089,68804d7299c1cabc0e7075c9,,,,,,,,,,,,,,1,,,,,,,,,,,,,,,,,,,,,,,,,,,,,,,,,,,,,,,,,,,,,,,,,,,,,,,,,68,alegre,,,,,612.4142,613.7982,1,1,0.8667,,0,22,22,67,1,REAL,FAKE,,,,,,,,,,,,,,,,,
,,,,,,,,,58016c9f551314000145af58,Spanish,13 or older,"no, only English or Spanish",yes,2025-07-22_22h48.56.537,empathy_intonation_perc,2024.2.4,Win32,59.88023952,58016c9f551314000145af58,687ed1b7e638a4cbf2f02089,68804d7299c1cabc0e7075c9,,,,,,,,,,,,,,1,,,,,,,,,,,,,,,,,,,,,,,,,,,,,,,,,,,,,,,,,,,,,,,,,,,,,,,,,75,yacer,,,,,613.7995,615.3161,0,0,0.9808,,0,23,23,74,1,REAL,FAKE,,,,,,,,,,,,,,,,,
,,,,,,,,,58016c9f551314000145af58,Spanish,13 or older,"no, only English or Spanish",yes,2025-07-22_22h48.56.537,empathy_intonation_perc,2024.2.4,Win32,59.88023952,58016c9f551314000145af58,687ed1b7e638a4cbf2f02089,68804d7299c1cabc0e7075c9,,,,,,,,,,,,,,1,,,,,,,,,,,,,,,,,,,,,,,,,,,,,,,,,,,,,,,,,,,,,,,,,,,,,,,,,61,seda,,,,,615.3175,616.6338,0,0,0.7858,,0,24,24,60,1,REAL,FAKE,,,,,,,,,,,,,,,,,
,,,,,,,,,58016c9f551314000145af58,Spanish,13 or older,"no, only English or Spanish",yes,2025-07-22_22h48.56.537,empathy_intonation_perc,2024.2.4,Win32,59.88023952,58016c9f551314000145af58,687ed1b7e638a4cbf2f02089,68804d7299c1cabc0e7075c9,,,,,,,,,,,,,,0,,,,,,,,,,,,,,,,,,,,,,,,,,,,,,,,,,,,,,,,,,,,,,,,,,,,,,,,,50,flamida,,,,,616.6352,618.0685,0,1,0.9108,,0,25,25,49,1,REAL,FAKE,,,,,,,,,,,,,,,,,
,,,,,,,,,58016c9f551314000145af58,Spanish,13 or older,"no, only English or Spanish",yes,2025-07-22_22h48.56.537,empathy_intonation_perc,2024.2.4,Win32,59.88023952,58016c9f551314000145af58,687ed1b7e638a4cbf2f02089,68804d7299c1cabc0e7075c9,,,,,,,,,,,,,,1,,,,,,,,,,,,,,,,,,,,,,,,,,,,,,,,,,,,,,,,,,,,,,,,,,,,,,,,,46,martillo,,,,,618.0699,619.9869,1,1,1.3856,,0,26,26,45,1,REAL,FAKE,,,,,,,,,,,,,,,,,
,,,,,,,,,58016c9f551314000145af58,Spanish,13 or older,"no, only English or Spanish",yes,2025-07-22_22h48.56.537,empathy_intonation_perc,2024.2.4,Win32,59.88023952,58016c9f551314000145af58,687ed1b7e638a4cbf2f02089,68804d7299c1cabc0e7075c9,,,,,,,,,,,,,,0,,,,,,,,,,,,,,,,,,,,,,,,,,,,,,,,,,,,,,,,,,,,,,,,,,,,,,,,,32,fatacidad,,,,,619.9883,622.9891,0,1,2.4905,,0,27,27,31,1,REAL,FAKE,,,,,,,,,,,,,,,,,
,,,,,,,,,58016c9f551314000145af58,Spanish,13 or older,"no, only English or Spanish",yes,2025-07-22_22h48.56.537,empathy_intonation_perc,2024.2.4,Win32,59.88023952,58016c9f551314000145af58,687ed1b7e638a4cbf2f02089,68804d7299c1cabc0e7075c9,,,,,,,,,,,,,,1,,,,,,,,,,,,,,,,,,,,,,,,,,,,,,,,,,,,,,,,,,,,,,,,,,,,,,,,,22,lacayo,,,,,622.9896,624.2907,0,0,0.7807,,0,28,28,21,1,REAL,FAKE,,,,,,,,,,,,,,,,,
,,,,,,,,,58016c9f551314000145af58,Spanish,13 or older,"no, only English or Spanish",yes,2025-07-22_22h48.56.537,empathy_intonation_perc,2024.2.4,Win32,59.88023952,58016c9f551314000145af58,687ed1b7e638a4cbf2f02089,68804d7299c1cabc0e7075c9,,,,,,,,,,,,,,0,,,,,,,,,,,,,,,,,,,,,,,,,,,,,,,,,,,,,,,,,,,,,,,,,,,,,,,,,18,arsa,,,,,624.2921,625.942,0,1,1.1253,,0,29,29,17,1,REAL,FAKE,,,,,,,,,,,,,,,,,
,,,,,,,,,58016c9f551314000145af58,Spanish,13 or older,"no, only English or Spanish",yes,2025-07-22_22h48.56.537,empathy_intonation_perc,2024.2.4,Win32,59.88023952,58016c9f551314000145af58,687ed1b7e638a4cbf2f02089,68804d7299c1cabc0e7075c9,,,,,,,,,,,,,,0,,,,,,,,,,,,,,,,,,,,,,,,,,,,,,,,,,,,,,,,,,,,,,,,,,,,,,,,,30,alardio,,,,,625.9436,627.427,0,1,0.9478,,0,30,30,29,1,REAL,FAKE,,,,,,,,,,,,,,,,,
,,,,,,,,,58016c9f551314000145af58,Spanish,13 or older,"no, only English or Spanish",yes,2025-07-22_22h48.56.537,empathy_intonation_perc,2024.2.4,Win32,59.88023952,58016c9f551314000145af58,687ed1b7e638a4cbf2f02089,68804d7299c1cabc0e7075c9,,,,,,,,,,,,,,1,,,,,,,,,,,,,,,,,,,,,,,,,,,,,,,,,,,,,,,,,,,,,,,,,,,,,,,,,9,hacha,,,,,627.4283,629.5621,0,0,1.5996,,0,31,31,8,1,REAL,FAKE,,,,,,,,,,,,,,,,,
,,,,,,,,,58016c9f551314000145af58,Spanish,13 or older,"no, only English or Spanish",yes,2025-07-22_22h48.56.537,empathy_intonation_perc,2024.2.4,Win32,59.88023952,58016c9f551314000145af58,687ed1b7e638a4cbf2f02089,68804d7299c1cabc0e7075c9,,,,,,,,,,,,,,0,,,,,,,,,,,,,,,,,,,,,,,,,,,,,,,,,,,,,,,,,,,,,,,,,,,,,,,,,63,esposante,,,,,629.5637,632.1978,1,0,2.0993,,0,32,32,62,1,REAL,FAKE,,,,,,,,,,,,,,,,,
,,,,,,,,,58016c9f551314000145af58,Spanish,13 or older,"no, only English or Spanish",yes,2025-07-22_22h48.56.537,empathy_intonation_perc,2024.2.4,Win32,59.88023952,58016c9f551314000145af58,687ed1b7e638a4cbf2f02089,68804d7299c1cabc0e7075c9,,,,,,,,,,,,,,0,,,,,,,,,,,,,,,,,,,,,,,,,,,,,,,,,,,,,,,,,,,,,,,,,,,,,,,,,29,decar,,,,,632.1991,634.8331,0,1,2.1045,,0,33,33,28,1,REAL,FAKE,,,,,,,,,,,,,,,,,
,,,,,,,,,58016c9f551314000145af58,Spanish,13 or older,"no, only English or Spanish",yes,2025-07-22_22h48.56.537,empathy_intonation_perc,2024.2.4,Win32,59.88023952,58016c9f551314000145af58,687ed1b7e638a4cbf2f02089,68804d7299c1cabc0e7075c9,,,,,,,,,,,,,,1,,,,,,,,,,,,,,,,,,,,,,,,,,,,,,,,,,,,,,,,,,,,,,,,,,,,,,,,,12,asesinato,,,,,634.8337,636.7685,0,0,1.4149,,0,34,34,11,1,REAL,FAKE,,,,,,,,,,,,,,,,,
,,,,,,,,,58016c9f551314000145af58,Spanish,13 or older,"no, only English or Spanish",yes,2025-07-22_22h48.56.537,empathy_intonation_perc,2024.2.4,Win32,59.88023952,58016c9f551314000145af58,687ed1b7e638a4cbf2f02089,68804d7299c1cabc0e7075c9,,,,,,,,,,,,,,1,,,,,,,,,,,,,,,,,,,,,,,,,,,,,,,,,,,,,,,,,,,,,,,,,,,,,,,,,64,orgulloso,,,,,636.7698,638.5028,1,1,1.205,,0,35,35,63,1,REAL,FAKE,,,,,,,,,,,,,,,,,
,,,,,,,,,58016c9f551314000145af58,Spanish,13 or older,"no, only English or Spanish",yes,2025-07-22_22h48.56.537,empathy_intonation_perc,2024.2.4,Win32,59.88023952,58016c9f551314000145af58,687ed1b7e638a4cbf2f02089,68804d7299c1cabc0e7075c9,,,,,,,,,,,,,,0,,,,,,,,,,,,,,,,,,,,,,,,,,,,,,,,,,,,,,,,,,,,,,,,,,,,,,,,,23,lampera,,,,,638.5034,640.8883,1,0,1.8714,,0,36,36,22,1,REAL,FAKE,,,,,,,,,,,,,,,,,
,,,,,,,,,58016c9f551314000145af58,Spanish,13 or older,"no, only English or Spanish",yes,2025-07-22_22h48.56.537,empathy_intonation_perc,2024.2.4,Win32,59.88023952,58016c9f551314000145af58,687ed1b7e638a4cbf2f02089,68804d7299c1cabc0e7075c9,,,,,,,,,,,,,,1,,,,,,,,,,,,,,,,,,,,,,,,,,,,,,,,,,,,,,,,,,,,,,,,,,,,,,,,,36,loro,,,,,640.8889,642.44,0,0,1.0378,,0,37,37,35,1,REAL,FAKE,,,,,,,,,,,,,,,,,
,,,,,,,,,58016c9f551314000145af58,Spanish,13 or older,"no, only English or Spanish",yes,2025-07-22_22h48.56.537,empathy_intonation_perc,2024.2.4,Win32,59.88023952,58016c9f551314000145af58,687ed1b7e638a4cbf2f02089,68804d7299c1cabc0e7075c9,,,,,,,,,,,,,,1,,,,,,,,,,,,,,,,,,,,,,,,,,,,,,,,,,,,,,,,,,,,,,,,,,,,,,,,,52,camisa,,,,,642.4417,643.8412,1,1,0.8652,,0,38,38,51,1,REAL,FAKE,,,,,,,,,,,,,,,,,
,,,,,,,,,58016c9f551314000145af58,Spanish,13 or older,"no, only English or Spanish",yes,2025-07-22_22h48.56.537,empathy_intonation_perc,2024.2.4,Win32,59.88023952,58016c9f551314000145af58,687ed1b7e638a4cbf2f02089,68804d7299c1cabc0e7075c9,,,,,,,,,,,,,,1,,,,,,,,,,,,,,,,,,,,,,,,,,,,,,,,,,,,,,,,,,,,,,,,,,,,,,,,,54,fomentar,,,,,643.8425,645.4763,0,0,1.1256,,0,39,39,53,1,REAL,FAKE,,,,,,,,,,,,,,,,,
,,,,,,,,,58016c9f551314000145af58,Spanish,13 or older,"no, only English or Spanish",yes,2025-07-22_22h48.56.537,empathy_intonation_perc,2024.2.4,Win32,59.88023952,58016c9f551314000145af58,687ed1b7e638a4cbf2f02089,68804d7299c1cabc0e7075c9,,,,,,,,,,,,,,0,,,,,,,,,,,,,,,,,,,,,,,,,,,,,,,,,,,,,,,,,,,,,,,,,,,,,,,,,82,empirador,,,,,645.4779,647.2107,1,0,1.1964,,0,40,40,81,1,REAL,FAKE,,,,,,,,,,,,,,,,,
,,,,,,,,,58016c9f551314000145af58,Spanish,13 or older,"no, only English or Spanish",yes,2025-07-22_22h48.56.537,empathy_intonation_perc,2024.2.4,Win32,59.88023952,58016c9f551314000145af58,687ed1b7e638a4cbf2f02089,68804d7299c1cabc0e7075c9,,,,,,,,,,,,,,1,,,,,,,,,,,,,,,,,,,,,,,,,,,,,,,,,,,,,,,,,,,,,,,,,,,,,,,,,28,merodear,,,,,647.2113,648.8793,0,0,1.1484,,0,41,41,27,1,REAL,FAKE,,,,,,,,,,,,,,,,,
,,,,,,,,,58016c9f551314000145af58,Spanish,13 or older,"no, only English or Spanish",yes,2025-07-22_22h48.56.537,empathy_intonation_perc,2024.2.4,Win32,59.88023952,58016c9f551314000145af58,687ed1b7e638a4cbf2f02089,68804d7299c1cabc0e7075c9,,,,,,,,,,,,,,1,,,,,,,,,,,,,,,,,,,,,,,,,,,,,,,,,,,,,,,,,,,,,,,,,,,,,,,,,77,tiburón,,,,,648.8813,650.2972,1,1,0.8811,,0,42,42,76,1,REAL,FAKE,,,,,,,,,,,,,,,,,
,,,,,,,,,58016c9f551314000145af58,Spanish,13 or older,"no, only English or Spanish",yes,2025-07-22_22h48.56.537,empathy_intonation_perc,2024.2.4,Win32,59.88023952,58016c9f551314000145af58,687ed1b7e638a4cbf2f02089,68804d7299c1cabc0e7075c9,,,,,,,,,,,,,,1,,,,,,,,,,,,,,,,,,,,,,,,,,,,,,,,,,,,,,,,,,,,,,,,,,,,,,,,,14,yunque,,,,,650.2985,651.7148,0,0,0.8819,,0,43,43,13,1,REAL,FAKE,,,,,,,,,,,,,,,,,
,,,,,,,,,58016c9f551314000145af58,Spanish,13 or older,"no, only English or Spanish",yes,2025-07-22_22h48.56.537,empathy_intonation_perc,2024.2.4,Win32,59.88023952,58016c9f551314000145af58,687ed1b7e638a4cbf2f02089,68804d7299c1cabc0e7075c9,,,,,,,,,,,,,,1,,,,,,,,,,,,,,,,,,,,,,,,,,,,,,,,,,,,,,,,,,,,,,,,,,,,,,,,,45,jilguero,,,,,651.7162,653.65,0,0,1.4195,,0,44,44,44,1,REAL,FAKE,,,,,,,,,,,,,,,,,
,,,,,,,,,58016c9f551314000145af58,Spanish,13 or older,"no, only English or Spanish",yes,2025-07-22_22h48.56.537,empathy_intonation_perc,2024.2.4,Win32,59.88023952,58016c9f551314000145af58,687ed1b7e638a4cbf2f02089,68804d7299c1cabc0e7075c9,,,,,,,,,,,,,,0,,,,,,,,,,,,,,,,,,,,,,,,,,,,,,,,,,,,,,,,,,,,,,,,,,,,,,,,,66,hacido,,,,,653.6512,655.7187,1,0,1.5346,,0,45,45,65,1,REAL,FAKE,,,,,,,,,,,,,,,,,
,,,,,,,,,58016c9f551314000145af58,Spanish,13 or older,"no, only English or Spanish",yes,2025-07-22_22h48.56.537,empathy_intonation_perc,2024.2.4,Win32,59.88023952,58016c9f551314000145af58,687ed1b7e638a4cbf2f02089,68804d7299c1cabc0e7075c9,,,,,,,,,,,,,,1,,,,,,,,,,,,,,,,,,,,,,,,,,,,,,,,,,,,,,,,,,,,,,,,,,,,,,,,,43,canela,,,,,655.7199,657.5034,0,0,1.2555,,0,46,46,42,1,REAL,FAKE,,,,,,,,,,,,,,,,,
,,,,,,,,,58016c9f551314000145af58,Spanish,13 or older,"no, only English or Spanish",yes,2025-07-22_22h48.56.537,empathy_intonation_perc,2024.2.4,Win32,59.88023952,58016c9f551314000145af58,687ed1b7e638a4cbf2f02089,68804d7299c1cabc0e7075c9,,,,,,,,,,,,,,0,,,,,,,,,,,,,,,,,,,,,,,,,,,,,,,,,,,,,,,,,,,,,,,,,,,,,,,,,27,acutación,,,,,657.5048,661.0063,0,1,2.9746,,0,47,47,26,1,REAL,FAKE,,,,,,,,,,,,,,,,,
,,,,,,,,,58016c9f551314000145af58,Spanish,13 or older,"no, only English or Spanish",yes,2025-07-22_22h48.56.537,empathy_intonation_perc,2024.2.4,Win32,59.88023952,58016c9f551314000145af58,687ed1b7e638a4cbf2f02089,68804d7299c1cabc0e7075c9,,,,,,,,,,,,,,1,,,,,,,,,,,,,,,,,,,,,,,,,,,,,,,,,,,,,,,,,,,,,,,,,,,,,,,,,65,bizcocho,,,,,661.0078,662.591,1,1,1.0715,,0,48,48,64,1,REAL,FAKE,,,,,,,,,,,,,,,,,
,,,,,,,,,58016c9f551314000145af58,Spanish,13 or older,"no, only English or Spanish",yes,2025-07-22_22h48.56.537,empathy_intonation_perc,2024.2.4,Win32,59.88023952,58016c9f551314000145af58,687ed1b7e638a4cbf2f02089,68804d7299c1cabc0e7075c9,,,,,,,,,,,,,,0,,,,,,,,,,,,,,,,,,,,,,,,,,,,,,,,,,,,,,,,,,,,,,,,,,,,,,,,,79,tropaje,,,,,662.5927,665.1268,0,1,2.0156,,0,49,49,78,1,REAL,FAKE,,,,,,,,,,,,,,,,,
,,,,,,,,,58016c9f551314000145af58,Spanish,13 or older,"no, only English or Spanish",yes,2025-07-22_22h48.56.537,empathy_intonation_perc,2024.2.4,Win32,59.88023952,58016c9f551314000145af58,687ed1b7e638a4cbf2f02089,68804d7299c1cabc0e7075c9,,,,,,,,,,,,,,1,,,,,,,,,,,,,,,,,,,,,,,,,,,,,,,,,,,,,,,,,,,,,,,,,,,,,,,,,57,tacaño,,,,,665.1282,666.5781,0,0,0.931,,0,50,50,56,1,REAL,FAKE,,,,,,,,,,,,,,,,,
,,,,,,,,,58016c9f551314000145af58,Spanish,13 or older,"no, only English or Spanish",yes,2025-07-22_22h48.56.537,empathy_intonation_perc,2024.2.4,Win32,59.88023952,58016c9f551314000145af58,687ed1b7e638a4cbf2f02089,68804d7299c1cabc0e7075c9,,,,,,,,,,,,,,1,,,,,,,,,,,,,,,,,,,,,,,,,,,,,,,,,,,,,,,,,,,,,,,,,,,,,,,,,38,estornudar,,,,,666.5797,668.53,0,0,1.4157,,0,51,51,37,1,REAL,FAKE,,,,,,,,,,,,,,,,,
,,,,,,,,,58016c9f551314000145af58,Spanish,13 or older,"no, only English or Spanish",yes,2025-07-22_22h48.56.537,empathy_intonation_perc,2024.2.4,Win32,59.88023952,58016c9f551314000145af58,687ed1b7e638a4cbf2f02089,68804d7299c1cabc0e7075c9,,,,,,,,,,,,,,1,,,,,,,,,,,,,,,,,,,,,,,,,,,,,,,,,,,,,,,,,,,,,,,,,,,,,,,,,85,laúd,,,,,668.5324,669.714,0,0,0.6523,,0,52,52,84,1,REAL,FAKE,,,,,,,,,,,,,,,,,
,,,,,,,,,58016c9f551314000145af58,Spanish,13 or older,"no, only English or Spanish",yes,2025-07-22_22h48.56.537,empathy_intonation_perc,2024.2.4,Win32,59.88023952,58016c9f551314000145af58,687ed1b7e638a4cbf2f02089,68804d7299c1cabc0e7075c9,,,,,,,,,,,,,,1,,,,,,,,,,,,,,,,,,,,,,,,,,,,,,,,,,,,,,,,,,,,,,,,,,,,,,,,,24,látigo,,,,,669.7168,671.4656,0,0,1.2218,,0,53,53,23,1,REAL,FAKE,,,,,,,,,,,,,,,,,
,,,,,,,,,58016c9f551314000145af58,Spanish,13 or older,"no, only English or Spanish",yes,2025-07-22_22h48.56.537,empathy_intonation_perc,2024.2.4,Win32,59.88023952,58016c9f551314000145af58,687ed1b7e638a4cbf2f02089,68804d7299c1cabc0e7075c9,,,,,,,,,,,,,,1,,,,,,,,,,,,,,,,,,,,,,,,,,,,,,,,,,,,,,,,,,,,,,,,,,,,,,,,,88,acantilado,,,,,671.4668,673.6679,0,0,1.6865,,0,54,54,87,1,REAL,FAKE,,,,,,,,,,,,,,,,,
,,,,,,,,,58016c9f551314000145af58,Spanish,13 or older,"no, only English or Spanish",yes,2025-07-22_22h48.56.537,empathy_intonation_perc,2024.2.4,Win32,59.88023952,58016c9f551314000145af58,687ed1b7e638a4cbf2f02089,68804d7299c1cabc0e7075c9,,,,,,,,,,,,,,1,,,,,,,,,,,,,,,,,,,,,,,,,,,,,,,,,,,,,,,,,,,,,,,,,,,,,,,,,80,hormiga,,,,,673.6692,675.1188,0,0,0.9234,,0,55,55,79,1,REAL,FAKE,,,,,,,,,,,,,,,,,
,,,,,,,,,58016c9f551314000145af58,Spanish,13 or older,"no, only English or Spanish",yes,2025-07-22_22h48.56.537,empathy_intonation_perc,2024.2.4,Win32,59.88023952,58016c9f551314000145af58,687ed1b7e638a4cbf2f02089,68804d7299c1cabc0e7075c9,,,,,,,,,,,,,,1,,,,,,,,,,,,,,,,,,,,,,,,,,,,,,,,,,,,,,,,,,,,,,,,,,,,,,,,,13,helar,,,,,675.1201,677.0376,0,0,1.401,,0,56,56,12,1,REAL,FAKE,,,,,,,,,,,,,,,,,
,,,,,,,,,58016c9f551314000145af58,Spanish,13 or older,"no, only English or Spanish",yes,2025-07-22_22h48.56.537,empathy_intonation_perc,2024.2.4,Win32,59.88023952,58016c9f551314000145af58,687ed1b7e638a4cbf2f02089,68804d7299c1cabc0e7075c9,,,,,,,,,,,,,,0,,,,,,,,,,,,,,,,,,,,,,,,,,,,,,,,,,,,,,,,,,,,,,,,,,,,,,,,,70,temblo,,,,,677.0389,679.4227,0,1,1.8564,,0,57,57,69,1,REAL,FAKE,,,,,,,,,,,,,,,,,
,,,,,,,,,58016c9f551314000145af58,Spanish,13 or older,"no, only English or Spanish",yes,2025-07-22_22h48.56.537,empathy_intonation_perc,2024.2.4,Win32,59.88023952,58016c9f551314000145af58,687ed1b7e638a4cbf2f02089,68804d7299c1cabc0e7075c9,,,,,,,,,,,,,,1,,,,,,,,,,,,,,,,,,,,,,,,,,,,,,,,,,,,,,,,,,,,,,,,,,,,,,,,,69,engatusar,,,,,679.424,681.6912,0,0,1.7519,,0,58,58,68,1,REAL,FAKE,,,,,,,,,,,,,,,,,
,,,,,,,,,58016c9f551314000145af58,Spanish,13 or older,"no, only English or Spanish",yes,2025-07-22_22h48.56.537,empathy_intonation_perc,2024.2.4,Win32,59.88023952,58016c9f551314000145af58,687ed1b7e638a4cbf2f02089,68804d7299c1cabc0e7075c9,,,,,,,,,,,,,,1,,,,,,,,,,,,,,,,,,,,,,,,,,,,,,,,,,,,,,,,,,,,,,,,,,,,,,,,,2,pellizcar,,,,,681.6927,684.0099,0,0,1.7874,,0,59,59,1,1,REAL,FAKE,,,,,,,,,,,,,,,,,
,,,,,,,,,58016c9f551314000145af58,Spanish,13 or older,"no, only English or Spanish",yes,2025-07-22_22h48.56.537,empathy_intonation_perc,2024.2.4,Win32,59.88023952,58016c9f551314000145af58,687ed1b7e638a4cbf2f02089,68804d7299c1cabc0e7075c9,,,,,,,,,,,,,,0,,,,,,,,,,,,,,,,,,,,,,,,,,,,,,,,,,,,,,,,,,,,,,,,,,,,,,,,,19,brecedad,,,,,684.0113,685.5614,0,1,1.036,,0,60,60,18,1,REAL,FAKE,,,,,,,,,,,,,,,,,
,,,,,,,,,58016c9f551314000145af58,Spanish,13 or older,"no, only English or Spanish",yes,2025-07-22_22h48.56.537,empathy_intonation_perc,2024.2.4,Win32,59.88023952,58016c9f551314000145af58,687ed1b7e638a4cbf2f02089,68804d7299c1cabc0e7075c9,,,,,,,,,,,,,,1,,,,,,,,,,,,,,,,,,,,,,,,,,,,,,,,,,,,,,,,,,,,,,,,,,,,,,,,,71,polvoriento,,,,,685.5627,687.4801,0,0,1.3819,,0,61,61,70,1,REAL,FAKE,,,,,,,,,,,,,,,,,
,,,,,,,,,58016c9f551314000145af58,Spanish,13 or older,"no, only English or Spanish",yes,2025-07-22_22h48.56.537,empathy_intonation_perc,2024.2.4,Win32,59.88023952,58016c9f551314000145af58,687ed1b7e638a4cbf2f02089,68804d7299c1cabc0e7075c9,,,,,,,,,,,,,,1,,,,,,,,,,,,,,,,,,,,,,,,,,,,,,,,,,,,,,,,,,,,,,,,,,,,,,,,,76,atar,,,,,687.4815,689.3646,1,1,1.3575,,0,62,62,75,1,REAL,FAKE,,,,,,,,,,,,,,,,,
,,,,,,,,,58016c9f551314000145af58,Spanish,13 or older,"no, only English or Spanish",yes,2025-07-22_22h48.56.537,empathy_intonation_perc,2024.2.4,Win32,59.88023952,58016c9f551314000145af58,687ed1b7e638a4cbf2f02089,68804d7299c1cabc0e7075c9,,,,,,,,,,,,,,1,,,,,,,,,,,,,,,,,,,,,,,,,,,,,,,,,,,,,,,,,,,,,,,,,,,,,,,,,39,torpe,,,,,689.3659,690.9331,0,0,1.0492,,0,63,63,38,1,REAL,FAKE,,,,,,,,,,,,,,,,,
,,,,,,,,,58016c9f551314000145af58,Spanish,13 or older,"no, only English or Spanish",yes,2025-07-22_22h48.56.537,empathy_intonation_perc,2024.2.4,Win32,59.88023952,58016c9f551314000145af58,687ed1b7e638a4cbf2f02089,68804d7299c1cabc0e7075c9,,,,,,,,,,,,,,1,,,,,,,,,,,,,,,,,,,,,,,,,,,,,,,,,,,,,,,,,,,,,,,,,,,,,,,,,73,hervidor,,,,,690.9344,692.4843,0,0,1.0138,,0,64,64,72,1,REAL,FAKE,,,,,,,,,,,,,,,,,
,,,,,,,,,58016c9f551314000145af58,Spanish,13 or older,"no, only English or Spanish",yes,2025-07-22_22h48.56.537,empathy_intonation_perc,2024.2.4,Win32,59.88023952,58016c9f551314000145af58,687ed1b7e638a4cbf2f02089,68804d7299c1cabc0e7075c9,,,,,,,,,,,,,,1,,,,,,,,,,,,,,,,,,,,,,,,,,,,,,,,,,,,,,,,,,,,,,,,,,,,,,,,,59,besar,,,,,692.4856,693.8854,1,1,0.8757,,0,65,65,58,1,REAL,FAKE,,,,,,,,,,,,,,,,,
,,,,,,,,,58016c9f551314000145af58,Spanish,13 or older,"no, only English or Spanish",yes,2025-07-22_22h48.56.537,empathy_intonation_perc,2024.2.4,Win32,59.88023952,58016c9f551314000145af58,687ed1b7e638a4cbf2f02089,68804d7299c1cabc0e7075c9,,,,,,,,,,,,,,1,,,,,,,,,,,,,,,,,,,,,,,,,,,,,,,,,,,,,,,,,,,,,,,,,,,,,,,,,89,prisa,,,,,693.8867,695.337,1,1,0.9316,,0,66,66,88,1,REAL,FAKE,,,,,,,,,,,,,,,,,
,,,,,,,,,58016c9f551314000145af58,Spanish,13 or older,"no, only English or Spanish",yes,2025-07-22_22h48.56.537,empathy_intonation_perc,2024.2.4,Win32,59.88023952,58016c9f551314000145af58,687ed1b7e638a4cbf2f02089,68804d7299c1cabc0e7075c9,,,,,,,,,,,,,,0,,,,,,,,,,,,,,,,,,,,,,,,,,,,,,,,,,,,,,,,,,,,,,,,,,,,,,,,,53,vegada,,,,,695.3382,697.5549,0,1,1.6923,,0,67,67,52,1,REAL,FAKE,,,,,,,,,,,,,,,,,
,,,,,,,,,58016c9f551314000145af58,Spanish,13 or older,"no, only English or Spanish",yes,2025-07-22_22h48.56.537,empathy_intonation_perc,2024.2.4,Win32,59.88023952,58016c9f551314000145af58,687ed1b7e638a4cbf2f02089,68804d7299c1cabc0e7075c9,,,,,,,,,,,,,,1,,,,,,,,,,,,,,,,,,,,,,,,,,,,,,,,,,,,,,,,,,,,,,,,,,,,,,,,,55,nevar,,,,,697.5554,699.1568,0,0,1.0909,,0,68,68,54,1,REAL,FAKE,,,,,,,,,,,,,,,,,
,,,,,,,,,58016c9f551314000145af58,Spanish,13 or older,"no, only English or Spanish",yes,2025-07-22_22h48.56.537,empathy_intonation_perc,2024.2.4,Win32,59.88023952,58016c9f551314000145af58,687ed1b7e638a4cbf2f02089,68804d7299c1cabc0e7075c9,,,,,,,,,,,,,,0,,,,,,,,,,,,,,,,,,,,,,,,,,,,,,,,,,,,,,,,,,,,,,,,,,,,,,,,,10,antar,,,,,699.1581,700.7247,0,1,1.0413,,0,69,69,9,1,REAL,FAKE,,,,,,,,,,,,,,,,,
,,,,,,,,,58016c9f551314000145af58,Spanish,13 or older,"no, only English or Spanish",yes,2025-07-22_22h48.56.537,empathy_intonation_perc,2024.2.4,Win32,59.88023952,58016c9f551314000145af58,687ed1b7e638a4cbf2f02089,68804d7299c1cabc0e7075c9,,,,,,,,,,,,,,1,,,,,,,,,,,,,,,,,,,,,,,,,,,,,,,,,,,,,,,,,,,,,,,,,,,,,,,,,7,pésimo,,,,,700.726,702.6602,1,1,1.3978,,0,70,70,6,1,REAL,FAKE,,,,,,,,,,,,,,,,,
,,,,,,,,,58016c9f551314000145af58,Spanish,13 or older,"no, only English or Spanish",yes,2025-07-22_22h48.56.537,empathy_intonation_perc,2024.2.4,Win32,59.88023952,58016c9f551314000145af58,687ed1b7e638a4cbf2f02089,68804d7299c1cabc0e7075c9,,,,,,,,,,,,,,1,,,,,,,,,,,,,,,,,,,,,,,,,,,,,,,,,,,,,,,,,,,,,,,,,,,,,,,,,86,barato,,,,,702.6614,704.5451,0,0,1.3512,,0,71,71,85,1,REAL,FAKE,,,,,,,,,,,,,,,,,
,,,,,,,,,58016c9f551314000145af58,Spanish,13 or older,"no, only English or Spanish",yes,2025-07-22_22h48.56.537,empathy_intonation_perc,2024.2.4,Win32,59.88023952,58016c9f551314000145af58,687ed1b7e638a4cbf2f02089,68804d7299c1cabc0e7075c9,,,,,,,,,,,,,,1,,,,,,,,,,,,,,,,,,,,,,,,,,,,,,,,,,,,,,,,,,,,,,,,,,,,,,,,,11,cenefa,,,,,704.5464,706.3633,0,0,1.2847,,0,72,72,10,1,REAL,FAKE,,,,,,,,,,,,,,,,,
,,,,,,,,,58016c9f551314000145af58,Spanish,13 or older,"no, only English or Spanish",yes,2025-07-22_22h48.56.537,empathy_intonation_perc,2024.2.4,Win32,59.88023952,58016c9f551314000145af58,687ed1b7e638a4cbf2f02089,68804d7299c1cabc0e7075c9,,,,,,,,,,,,,,0,,,,,,,,,,,,,,,,,,,,,,,,,,,,,,,,,,,,,,,,,,,,,,,,,,,,,,,,,33,pauca,,,,,706.3646,707.7143,0,1,0.8149,,0,73,73,32,1,REAL,FAKE,,,,,,,,,,,,,,,,,
,,,,,,,,,58016c9f551314000145af58,Spanish,13 or older,"no, only English or Spanish",yes,2025-07-22_22h48.56.537,empathy_intonation_perc,2024.2.4,Win32,59.88023952,58016c9f551314000145af58,687ed1b7e638a4cbf2f02089,68804d7299c1cabc0e7075c9,,,,,,,,,,,,,,0,,,,,,,,,,,,,,,,,,,,,,,,,,,,,,,,,,,,,,,,,,,,,,,,,,,,,,,,,58,plaudir,,,,,707.7156,709.316,0,1,1.0698,,0,74,74,57,1,REAL,FAKE,,,,,,,,,,,,,,,,,
,,,,,,,,,58016c9f551314000145af58,Spanish,13 or older,"no, only English or Spanish",yes,2025-07-22_22h48.56.537,empathy_intonation_perc,2024.2.4,Win32,59.88023952,58016c9f551314000145af58,687ed1b7e638a4cbf2f02089,68804d7299c1cabc0e7075c9,,,,,,,,,,,,,,0,,,,,,,,,,,,,,,,,,,,,,,,,,,,,,,,,,,,,,,,,,,,,,,,,,,,,,,,,21,capillo,,,,,709.3174,711.0176,0,1,1.1652,,0,75,75,20,1,REAL,FAKE,,,,,,,,,,,,,,,,,
,,,,,,,,,58016c9f551314000145af58,Spanish,13 or older,"no, only English or Spanish",yes,2025-07-22_22h48.56.537,empathy_intonation_perc,2024.2.4,Win32,59.88023952,58016c9f551314000145af58,687ed1b7e638a4cbf2f02089,68804d7299c1cabc0e7075c9,,,,,,,,,,,,,,1,,,,,,,,,,,,,,,,,,,,,,,,,,,,,,,,,,,,,,,,,,,,,,,,,,,,,,,,,40,alfombra,,,,,711.0189,713.4028,1,1,1.8484,,0,76,76,39,1,REAL,FAKE,,,,,,,,,,,,,,,,,
,,,,,,,,,58016c9f551314000145af58,Spanish,13 or older,"no, only English or Spanish",yes,2025-07-22_22h48.56.537,empathy_intonation_perc,2024.2.4,Win32,59.88023952,58016c9f551314000145af58,687ed1b7e638a4cbf2f02089,68804d7299c1cabc0e7075c9,,,,,,,,,,,,,,1,,,,,,,,,,,,,,,,,,,,,,,,,,,,,,,,,,,,,,,,,,,,,,,,,,,,,,,,,41,rebuscar,,,,,713.4041,715.0711,0,0,1.1323,,0,77,77,40,1,REAL,FAKE,,,,,,,,,,,,,,,,,
,,,,,,,,,58016c9f551314000145af58,Spanish,13 or older,"no, only English or Spanish",yes,2025-07-22_22h48.56.537,empathy_intonation_perc,2024.2.4,Win32,59.88023952,58016c9f551314000145af58,687ed1b7e638a4cbf2f02089,68804d7299c1cabc0e7075c9,,,,,,,,,,,,,,1,,,,,,,,,,,,,,,,,,,,,,,,,,,,,,,,,,,,,,,,,,,,,,,,,,,,,,,,,31,pandilla,,,,,715.0724,716.422,0,0,0.816,,0,78,78,30,1,REAL,FAKE,,,,,,,,,,,,,,,,,
,,,,,,,,,58016c9f551314000145af58,Spanish,13 or older,"no, only English or Spanish",yes,2025-07-22_22h48.56.537,empathy_intonation_perc,2024.2.4,Win32,59.88023952,58016c9f551314000145af58,687ed1b7e638a4cbf2f02089,68804d7299c1cabc0e7075c9,,,,,,,,,,,,,,1,,,,,,,,,,,,,,,,,,,,,,,,,,,,,,,,,,,,,,,,,,,,,,,,,,,,,,,,,20,ávido,,,,,716.4231,717.9567,0,0,1.0252,,0,79,79,19,1,REAL,FAKE,,,,,,,,,,,,,,,,,
,,,,,,,,,58016c9f551314000145af58,Spanish,13 or older,"no, only English or Spanish",yes,2025-07-22_22h48.56.537,empathy_intonation_perc,2024.2.4,Win32,59.88023952,58016c9f551314000145af58,687ed1b7e638a4cbf2f02089,68804d7299c1cabc0e7075c9,,,,,,,,,,,,,,1,,,,,,,,,,,,,,,,,,,,,,,,,,,,,,,,,,,,,,,,,,,,,,,,,,,,,,,,,37,granuja,,,,,717.9581,719.6751,0,0,1.1989,,0,80,80,36,1,REAL,FAKE,,,,,,,,,,,,,,,,,
,,,,,,,,,58016c9f551314000145af58,Spanish,13 or older,"no, only English or Spanish",yes,2025-07-22_22h48.56.537,empathy_intonation_perc,2024.2.4,Win32,59.88023952,58016c9f551314000145af58,687ed1b7e638a4cbf2f02089,68804d7299c1cabc0e7075c9,,,,,,,,,,,,,,1,,,,,,,,,,,,,,,,,,,,,,,,,,,,,,,,,,,,,,,,,,,,,,,,,,,,,,,,,15,regar,,,,,719.6764,721.0929,1,1,0.8833,,0,81,81,14,1,REAL,FAKE,,,,,,,,,,,,,,,,,
,,,,,,,,,58016c9f551314000145af58,Spanish,13 or older,"no, only English or Spanish",yes,2025-07-22_22h48.56.537,empathy_intonation_perc,2024.2.4,Win32,59.88023952,58016c9f551314000145af58,687ed1b7e638a4cbf2f02089,68804d7299c1cabc0e7075c9,,,,,,,,,,,,,,0,,,,,,,,,,,,,,,,,,,,,,,,,,,,,,,,,,,,,,,,,,,,,,,,,,,,,,,,,17,floroso,,,,,721.0943,722.311,0,1,0.6824,,0,82,82,16,1,REAL,FAKE,,,,,,,,,,,,,,,,,
,,,,,,,,,58016c9f551314000145af58,Spanish,13 or older,"no, only English or Spanish",yes,2025-07-22_22h48.56.537,empathy_intonation_perc,2024.2.4,Win32,59.88023952,58016c9f551314000145af58,687ed1b7e638a4cbf2f02089,68804d7299c1cabc0e7075c9,,,,,,,,,,,,,,0,,,,,,,,,,,,,,,,,,,,,,,,,,,,,,,,,,,,,,,,,,,,,,,,,,,,,,,,,4,batillón,,,,,722.3122,724.5962,1,0,1.7523,,0,83,83,3,1,REAL,FAKE,,,,,,,,,,,,,,,,,
,,,,,,,,,58016c9f551314000145af58,Spanish,13 or older,"no, only English or Spanish",yes,2025-07-22_22h48.56.537,empathy_intonation_perc,2024.2.4,Win32,59.88023952,58016c9f551314000145af58,687ed1b7e638a4cbf2f02089,68804d7299c1cabc0e7075c9,,,,,,,,,,,,,,1,,,,,,,,,,,,,,,,,,,,,,,,,,,,,,,,,,,,,,,,,,,,,,,,,,,,,,,,,90,clavel,,,,,724.5978,725.8135,0,0,0.6895,,0,84,84,89,1,REAL,FAKE,,,,,,,,,,,,,,,,,
,,,,,,,,,58016c9f551314000145af58,Spanish,13 or older,"no, only English or Spanish",yes,2025-07-22_22h48.56.537,empathy_intonation_perc,2024.2.4,Win32,59.88023952,58016c9f551314000145af58,687ed1b7e638a4cbf2f02089,68804d7299c1cabc0e7075c9,,,,,,,,,,,,,,1,,,,,,,,,,,,,,,,,,,,,,,,,,,,,,,,,,,,,,,,,,,,,,,,,,,,,,,,,49,ganar,,,,,725.8148,727.2483,1,1,0.9211,,0,85,85,48,1,REAL,FAKE,,,,,,,,,,,,,,,,,
,,,,,,,,,58016c9f551314000145af58,Spanish,13 or older,"no, only English or Spanish",yes,2025-07-22_22h48.56.537,empathy_intonation_perc,2024.2.4,Win32,59.88023952,58016c9f551314000145af58,687ed1b7e638a4cbf2f02089,68804d7299c1cabc0e7075c9,,,,,,,,,,,,,,0,,,,,,,,,,,,,,,,,,,,,,,,,,,,,,,,,,,,,,,,,,,,,,,,,,,,,,,,,35,rompido,,,,,727.2495,728.6165,0,1,0.8476,,0,86,86,34,1,REAL,FAKE,,,,,,,,,,,,,,,,,
,,,,,,,,,58016c9f551314000145af58,Spanish,13 or older,"no, only English or Spanish",yes,2025-07-22_22h48.56.537,empathy_intonation_perc,2024.2.4,Win32,59.88023952,58016c9f551314000145af58,687ed1b7e638a4cbf2f02089,68804d7299c1cabc0e7075c9,,,,,,,,,,,,,,1,,,,,,,,,,,,,,,,,,,,,,,,,,,,,,,,,,,,,,,,,,,,,,,,,,,,,,,,,81,pozo,,,,,728.6179,730.2009,0,0,1.0532,,0,87,87,80,1,REAL,FAKE,,,,,,,,,,,,,,,,,
,,,,,,,,,58016c9f551314000145af58,Spanish,13 or older,"no, only English or Spanish",yes,2025-07-22_22h48.56.537,empathy_intonation_perc,2024.2.4,Win32,59.88023952,58016c9f551314000145af58,687ed1b7e638a4cbf2f02089,68804d7299c1cabc0e7075c9,,,,,,,,,,,,,,1,,,,,,,,,,,,,,,,,,,,,,,,,,,,,,,,,,,,,,,,,,,,,,,,,,,,,,,,,5,zapato,,,,,730.2024,731.7185,1,1,0.9821,,0,88,88,4,1,REAL,FAKE,,,,,,,,,,,,,,,,,
,,,,,,,,,58016c9f551314000145af58,Spanish,13 or older,"no, only English or Spanish",yes,2025-07-22_22h48.56.537,empathy_intonation_perc,2024.2.4,Win32,59.88023952,58016c9f551314000145af58,687ed1b7e638a4cbf2f02089,68804d7299c1cabc0e7075c9,,,,,,,,,,,,,,0,,,,,,,,,,,,,,,,,,,,,,,,,,,,,,,,,,,,,,,,,,,,,,,,,,,,,,,,,72,pemición,,,,,731.7191,733.2536,0,1,1.0144,,0,89,89,71,1,REAL,FAKE,,,,,,,,,,,,,,,,,
,,,,,,,,,58016c9f551314000145af58,Spanish,13 or older,"no, only English or Spanish",yes,2025-07-22_22h48.56.537,empathy_intonation_perc,2024.2.4,Win32,59.88023952,58016c9f551314000145af58,687ed1b7e638a4cbf2f02089,68804d7299c1cabc0e7075c9,,,,,,,,,,,,,,1,,,,,,,,,,,,,,,,,,,,,,,,,,,,,,,,,,,,,,,,,,,,,,,,,,,,,,,,,83,guante,,,,,733.2541,734.6714,0,0,0.9059,,0,90,90,82,1,REAL,FAKE,,,,,,,,,,,,,,,,,
,,,,,,,,,58016c9f551314000145af58,Spanish,13 or older,"no, only English or Spanish",yes,2025-07-22_22h48.56.537,empathy_intonation_perc,2024.2.4,Win32,59.88023952,58016c9f551314000145af58,687ed1b7e638a4cbf2f02089,68804d7299c1cabc0e7075c9,,,,,,,,,,,,,,1,,,,,,,,,,,,,,,,,,,,,,,,,,,,,,,,,,,,,,,,,,,,,,,,,,,,,,,,,60,matar,,,,,734.6727,736.1563,0,0,0.9752,,0,91,91,59,1,REAL,FAKE,,,,,,,,,,,,,,,,,
,,,,,,,,,58016c9f551314000145af58,Spanish,13 or older,"no, only English or Spanish",yes,2025-07-22_22h48.56.537,empathy_intonation_perc,2024.2.4,Win32,59.88023952,58016c9f551314000145af58,687ed1b7e638a4cbf2f02089,68804d7299c1cabc0e7075c9,,,,,,,,,,,,,,,,,,,,,,,,,,,,,,,,,,,,,,,,,,,,,,,,,,,,,,,,,,,,,,,,,,,,,,,,,,,,,,,,,,,,,,,,,,736.157,749.8355,,,,,,,,,,,,,,,
,,,,,,,,,58016c9f551314000145af58,Spanish,13 or older,"no, only English or Spanish",yes,2025-07-22_22h48.56.537,empathy_intonation_perc,2024.2.4,Win32,59.88023952,58016c9f551314000145af58,687ed1b7e638a4cbf2f02089,68804d7299c1cabc0e7075c9,,,,,,,,,,,,,1,,,,,,,,,,,,,,,,,,,,,,,,,,,,,,,,,,,,,,,,,,,,,,,,,,,,,,,,,,,,,,,,,,,,,,,,,,,,,,,749.8593,755.1728,slightly disagree,0,0,0,0,1,I can easily tell if someone else wants to enter a conversation.,1,0,1,0,,
,,,,,,,,,58016c9f551314000145af58,Spanish,13 or older,"no, only English or Spanish",yes,2025-07-22_22h48.56.537,empathy_intonation_perc,2024.2.4,Win32,59.88023952,58016c9f551314000145af58,687ed1b7e638a4cbf2f02089,68804d7299c1cabc0e7075c9,,,,,,,,,,,,,2,,,,,,,,,,,,,,,,,,,,,,,,,,,,,,,,,,,,,,,,,,,,,,,,,,,,,,,,,,,,,,,,,,,,,,,,,,,,,,,755.1739,758.1421,strongly agree,0,1,1,1,1,I prefer animals to humans.,0,1,0,0,,
,,,,,,,,,58016c9f551314000145af58,Spanish,13 or older,"no, only English or Spanish",yes,2025-07-22_22h48.56.537,empathy_intonation_perc,2024.2.4,Win32,59.88023952,58016c9f551314000145af58,687ed1b7e638a4cbf2f02089,68804d7299c1cabc0e7075c9,,,,,,,,,,,,,3,,,,,,,,,,,,,,,,,,,,,,,,,,,,,,,,,,,,,,,,,,,,,,,,,,,,,,,,,,,,,,,,,,,,,,,,,,,,,,,758.1432,760.4609,slightly agree,0,2,2,2,1,I try to keep up with the current trends and fashions.,0,1,0,0,,
,,,,,,,,,58016c9f551314000145af58,Spanish,13 or older,"no, only English or Spanish",yes,2025-07-22_22h48.56.537,empathy_intonation_perc,2024.2.4,Win32,59.88023952,58016c9f551314000145af58,687ed1b7e638a4cbf2f02089,68804d7299c1cabc0e7075c9,,,,,,,,,,,,,4,,,,,,,,,,,,,,,,,,,,,,,,,,,,,,,,,,,,,,,,,,,,,,,,,,,,,,,,,,,,,,,,,,,,,,,,,,,,,,,760.4621,766.7329,slightly agree,0,3,3,3,1,"I find it difficult to explain to others things that I understand easily,   when they don't understand it first time.",1,0,0,1,,
,,,,,,,,,58016c9f551314000145af58,Spanish,13 or older,"no, only English or Spanish",yes,2025-07-22_22h48.56.537,empathy_intonation_perc,2024.2.4,Win32,59.88023952,58016c9f551314000145af58,687ed1b7e638a4cbf2f02089,68804d7299c1cabc0e7075c9,,,,,,,,,,,,,5,,,,,,,,,,,,,,,,,,,,,,,,,,,,,,,,,,,,,,,,,,,,,,,,,,,,,,,,,,,,,,,,,,,,,,,,,,,,,,,766.7336,769.2184,strongly agree,0,4,4,4,1,I dream most nights.,0,1,0,0,,
,,,,,,,,,58016c9f551314000145af58,Spanish,13 or older,"no, only English or Spanish",yes,2025-07-22_22h48.56.537,empathy_intonation_perc,2024.2.4,Win32,59.88023952,58016c9f551314000145af58,687ed1b7e638a4cbf2f02089,68804d7299c1cabc0e7075c9,,,,,,,,,,,,,6,,,,,,,,,,,,,,,,,,,,,,,,,,,,,,,,,,,,,,,,,,,,,,,,,,,,,,,,,,,,,,,,,,,,,,,,,,,,,,,769.2193,771.9209,slightly agree,0,5,5,5,1,I really enjoy caring for other people.,1,0,1,0,,
,,,,,,,,,58016c9f551314000145af58,Spanish,13 or older,"no, only English or Spanish",yes,2025-07-22_22h48.56.537,empathy_intonation_perc,2024.2.4,Win32,59.88023952,58016c9f551314000145af58,687ed1b7e638a4cbf2f02089,68804d7299c1cabc0e7075c9,,,,,,,,,,,,,7,,,,,,,,,,,,,,,,,,,,,,,,,,,,,,,,,,,,,,,,,,,,,,,,,,,,,,,,,,,,,,,,,,,,,,,,,,,,,,,771.9219,775.2573,slightly disagree,0,6,6,6,1,I try to solve my own problems rather than discussing them with others.,0,1,0,0,,
,,,,,,,,,58016c9f551314000145af58,Spanish,13 or older,"no, only English or Spanish",yes,2025-07-22_22h48.56.537,empathy_intonation_perc,2024.2.4,Win32,59.88023952,58016c9f551314000145af58,687ed1b7e638a4cbf2f02089,68804d7299c1cabc0e7075c9,,,,,,,,,,,,,8,,,,,,,,,,,,,,,,,,,,,,,,,,,,,,,,,,,,,,,,,,,,,,,,,,,,,,,,,,,,,,,,,,,,,,,,,,,,,,,775.2586,777.4923,strongly agree,0,7,7,7,1,I find it hard to know what to do in a social situation.,1,0,0,1,,
,,,,,,,,,58016c9f551314000145af58,Spanish,13 or older,"no, only English or Spanish",yes,2025-07-22_22h48.56.537,empathy_intonation_perc,2024.2.4,Win32,59.88023952,58016c9f551314000145af58,687ed1b7e638a4cbf2f02089,68804d7299c1cabc0e7075c9,,,,,,,,,,,,,9,,,,,,,,,,,,,,,,,,,,,,,,,,,,,,,,,,,,,,,,,,,,,,,,,,,,,,,,,,,,,,,,,,,,,,,,,,,,,,,777.4935,779.8277,slightly disagree,0,8,8,8,1,I am at my best first thing in the morning.,0,1,0,0,,
