instructions_exposure.started,instructions_exposure.stopped,instructions_exposure_loop.thisRepN,instructions_exposure_loop.thisTrialN,instructions_exposure_loop.thisN,instructions_exposure_loop.thisIndex,instructions_exposure_loop.ran,instructions_text,continue_text,participant_id,"What variety of Spanish are you most familiar with? (e.g., Peruvian, Spanish, Mexican)",At what age did you begin learning Spanish?,Are you proficient in any languages other than English/Spanish?,"Are you familiar with Caribbean (e.g., Caribbean, Puerto Rican) or Galician Spanish?",date,expName,psychopyVersion,OS,frameRate,id,study_id,session,trial_exposure.started,trial_exposure.stopped,key_resp_exposure.keys,key_resp_exposure.corr,key_resp_exposure.rt,key_resp_exposure.duration,key_resp.keys,exposure_loop.thisRepN,exposure_loop.thisTrialN,exposure_loop.thisN,exposure_loop.thisIndex,exposure_loop.ran,item_num,correct_response,question,path,duration,instructions_2afc.started,instructions_2afc.stopped,instructions_2afc_loop.thisRepN,instructions_2afc_loop.thisTrialN,instructions_2afc_loop.thisN,instructions_2afc_loop.thisIndex,instructions_2afc_loop.ran,practice_2afc.started,practice_2afc.stopped,key_resp_2afc_practice.keys,key_resp_2afc_practice.corr,key_resp_2afc_practice.rt,key_resp_2afc_practice.duration,trials_2afc_practice_loop.thisRepN,trials_2afc_practice_loop.thisTrialN,trials_2afc_practice_loop.thisN,trials_2afc_practice_loop.thisIndex,trials_2afc_practice_loop.ran,check_2afc.started,check_2afc.stopped,trial_2afc.started,trial_2afc.stopped,key_resp_2afc_trial.keys,key_resp_2afc_trial.corr,key_resp_2afc_trial.rt,key_resp_2afc_trial.duration,trials_2afc_loop.thisRepN,trials_2afc_loop.thisTrialN,trials_2afc_loop.thisN,trials_2afc_loop.thisIndex,trials_2afc_loop.ran,target,variety,instructions_lextale.started,instructions_lextale.stopped,instructions_lextale_loop.thisRepN,instructions_lextale_loop.thisTrialN,instructions_lextale_loop.thisN,instructions_lextale_loop.thisIndex,instructions_lextale_loop.ran,practice_lextale.started,practice_lextale.stopped,key_resp_lextale_practice.keys,key_resp_lextale_practice.corr,key_resp_lextale_practice.rt,key_resp_lextale_practice.duration,practice_feedback_lextale.started,practice_feedback_lextale.stopped,trials_lextale_practice_loop.thisRepN,trials_lextale_practice_loop.thisTrialN,trials_lextale_practice_loop.thisN,trials_lextale_practice_loop.thisIndex,trials_lextale_practice_loop.ran,stim,word,prac_button_real,prac_button_false,check_lextale.started,check_lextale.stopped,trial_lextale.started,trial_lextale.stopped,key_resp_lextale_trial.keys,key_resp_lextale_trial.corr,key_resp_lextale_trial.rt,key_resp_lextale_trial.duration,trials_lextale_loop.thisRepN,trials_lextale_loop.thisTrialN,trials_lextale_loop.thisN,trials_lextale_loop.thisIndex,trials_lextale_loop.ran,button_real,button_false,instructions_eq.started,instructions_eq.stopped,trial_eq.started,trial_eq.stopped,slider_eq_trial.response,trials_eq_loop.thisRepN,trials_eq_loop.thisTrialN,trials_eq_loop.thisN,trials_eq_loop.thisIndex,trials_eq_loop.ran,item,is_test_item,is_distractor,is_agree_score,is_disagree_score,end_exp.started,end_exp.stopped
0.028,5.1461,0,0,0,0,1,"In the following task, you are going to hear a series of conversations.", (press the space bar to continue),595d516e2da9c90001d7d200,mexican,13 or older,"no, only English or Spanish",no,2025-07-22_21h56.54.385,empathy_intonation_perc,2024.2.4,Win32,60.97560976,595d516e2da9c90001d7d200,687ed1b7e638a4cbf2f02089,68804125cac3f88b75a27ed8,,,,,,,,,,,,,,,,,,,,,,,,,,,,,,,,,,,,,,,,,,,,,,,,,,,,,,,,,,,,,,,,,,,,,,,,,,,,,,,,,,,,,,,,,,,,,,,,,,,,,,,,,,
5.1477,9.1638,0,1,1,1,1,It is okay if you don't not 100% understand them!, (press the space bar to continue),595d516e2da9c90001d7d200,mexican,13 or older,"no, only English or Spanish",no,2025-07-22_21h56.54.385,empathy_intonation_perc,2024.2.4,Win32,60.97560976,595d516e2da9c90001d7d200,687ed1b7e638a4cbf2f02089,68804125cac3f88b75a27ed8,,,,,,,,,,,,,,,,,,,,,,,,,,,,,,,,,,,,,,,,,,,,,,,,,,,,,,,,,,,,,,,,,,,,,,,,,,,,,,,,,,,,,,,,,,,,,,,,,,,,,,,,,,
9.1673,11.99,0,2,2,2,1,"After, you will read a sentence about the conversation and decide if it's true or false.", (press the space bar to continue),595d516e2da9c90001d7d200,mexican,13 or older,"no, only English or Spanish",no,2025-07-22_21h56.54.385,empathy_intonation_perc,2024.2.4,Win32,60.97560976,595d516e2da9c90001d7d200,687ed1b7e638a4cbf2f02089,68804125cac3f88b75a27ed8,,,,,,,,,,,,,,,,,,,,,,,,,,,,,,,,,,,,,,,,,,,,,,,,,,,,,,,,,,,,,,,,,,,,,,,,,,,,,,,,,,,,,,,,,,,,,,,,,,,,,,,,,,
11.9933,16.3999,0,3,3,3,1,"If it's true, press '1' (True) and if it's false press '0' (False).", (press the space bar to continue),595d516e2da9c90001d7d200,mexican,13 or older,"no, only English or Spanish",no,2025-07-22_21h56.54.385,empathy_intonation_perc,2024.2.4,Win32,60.97560976,595d516e2da9c90001d7d200,687ed1b7e638a4cbf2f02089,68804125cac3f88b75a27ed8,,,,,,,,,,,,,,,,,,,,,,,,,,,,,,,,,,,,,,,,,,,,,,,,,,,,,,,,,,,,,,,,,,,,,,,,,,,,,,,,,,,,,,,,,,,,,,,,,,,,,,,,,,
,,,,,,,,,595d516e2da9c90001d7d200,mexican,13 or older,"no, only English or Spanish",no,2025-07-22_21h56.54.385,empathy_intonation_perc,2024.2.4,Win32,60.97560976,595d516e2da9c90001d7d200,687ed1b7e638a4cbf2f02089,68804125cac3f88b75a27ed8,16.4194,79.8738,1,1,3.386,,,0,0,0,1,1,2,1,The mom asked the daughter if she already went to the supermarket.,./stim/exposure_wavs/dr_stimuli_convo.wav,60,,,,,,,,,,,,,,,,,,,,,,,,,,,,,,,,,,,,,,,,,,,,,,,,,,,,,,,,,,,,,,,,,,,,,,,,,,,,,,,,,,,,,,,,,
,,,,,,,,,595d516e2da9c90001d7d200,mexican,13 or older,"no, only English or Spanish",no,2025-07-22_21h56.54.385,empathy_intonation_perc,2024.2.4,Win32,60.97560976,595d516e2da9c90001d7d200,687ed1b7e638a4cbf2f02089,68804125cac3f88b75a27ed8,79.8774,129.6079,0,0,2.6864,,,0,1,1,0,1,1,1,The son asked the mom if Aunt Marina is okay.,./stim/exposure_wavs/ga_stimuli_convo.wav,47,,,,,,,,,,,,,,,,,,,,,,,,,,,,,,,,,,,,,,,,,,,,,,,,,,,,,,,,,,,,,,,,,,,,,,,,,,,,,,,,,,,,,,,,,
,,,,,,,,,595d516e2da9c90001d7d200,mexican,13 or older,"no, only English or Spanish",no,2025-07-22_21h56.54.385,empathy_intonation_perc,2024.2.4,Win32,60.97560976,595d516e2da9c90001d7d200,687ed1b7e638a4cbf2f02089,68804125cac3f88b75a27ed8,129.6116,168.1736,1,0,2.5268,,,0,2,2,2,1,3,0,The mom already has rice.,./stim/exposure_wavs/pr_stimuli_convo.wav,36,,,,,,,,,,,,,,,,,,,,,,,,,,,,,,,,,,,,,,,,,,,,,,,,,,,,,,,,,,,,,,,,,,,,,,,,,,,,,,,,,,,,,,,,,
,,,,,,,"In the following task you are going to hear a series of utterances. 

  You will decide if the utterances sound like questions or not using your keyboard.", (press the spacebar to continue),595d516e2da9c90001d7d200,mexican,13 or older,"no, only English or Spanish",no,2025-07-22_21h56.54.385,empathy_intonation_perc,2024.2.4,Win32,60.97560976,595d516e2da9c90001d7d200,687ed1b7e638a4cbf2f02089,68804125cac3f88b75a27ed8,,,,,,,,,,,,,,,,,,168.184,174.6922,0,0,0,0,1,,,,,,,,,,,,,,,,,,,,,,,,,,,,,,,,,,,,,,,,,,,,,,,,,,,,,,,,,,,,,,,,,,,,,,,,,,,,,,,,,,
,,,,,,,"If you believe the utterance is a question, type '1' (for 'yes') and if you do not 
  believe it is a question type '0' (for 'no').

  Let's practice a bit...", (press the spacebar to continue),595d516e2da9c90001d7d200,mexican,13 or older,"no, only English or Spanish",no,2025-07-22_21h56.54.385,empathy_intonation_perc,2024.2.4,Win32,60.97560976,595d516e2da9c90001d7d200,687ed1b7e638a4cbf2f02089,68804125cac3f88b75a27ed8,,,,,,,,,,,,,,,,,,174.6957,181.1196,0,1,1,1,1,,,,,,,,,,,,,,,,,,,,,,,,,,,,,,,,,,,,,,,,,,,,,,,,,,,,,,,,,,,,,,,,,,,,,,,,,,,,,,,,,,
,,,,,,,,,595d516e2da9c90001d7d200,mexican,13 or older,"no, only English or Spanish",no,2025-07-22_21h56.54.385,empathy_intonation_perc,2024.2.4,Win32,60.97560976,595d516e2da9c90001d7d200,687ed1b7e638a4cbf2f02089,68804125cac3f88b75a27ed8,,,,,,,,,,,,,,1,,./stim/wavs/mexican_question_filler_Felipe-no-tiene-contrasena.wav,,,,,,,,,181.1326,184.3285,1,1,2.6719,,0,0,0,3,1,,,,,,,,,,,,,,,,,,,,,,,,,,,,,,,,,,,,,,,,,,,,,,,,,,,,,,,,,,,,,,,,,,,,,,,
,,,,,,,,,595d516e2da9c90001d7d200,mexican,13 or older,"no, only English or Spanish",no,2025-07-22_21h56.54.385,empathy_intonation_perc,2024.2.4,Win32,60.97560976,595d516e2da9c90001d7d200,687ed1b7e638a4cbf2f02089,68804125cac3f88b75a27ed8,,,,,,,,,,,,,,0,,./stim/wavs/andalusian_statement_filler_Alberto-nunca-se-afeita.wav,,,,,,,,,184.3301,188.148,0,1,3.294,,0,1,1,5,1,,,,,,,,,,,,,,,,,,,,,,,,,,,,,,,,,,,,,,,,,,,,,,,,,,,,,,,,,,,,,,,,,,,,,,,
,,,,,,,,,595d516e2da9c90001d7d200,mexican,13 or older,"no, only English or Spanish",no,2025-07-22_21h56.54.385,empathy_intonation_perc,2024.2.4,Win32,60.97560976,595d516e2da9c90001d7d200,687ed1b7e638a4cbf2f02089,68804125cac3f88b75a27ed8,,,,,,,,,,,,,,1,,./stim/wavs/castilian_question_filler_Mi-esposo-conoce-al-chico.wav,,,,,,,,,188.1498,191.3644,1,1,2.688,,0,2,2,0,1,,,,,,,,,,,,,,,,,,,,,,,,,,,,,,,,,,,,,,,,,,,,,,,,,,,,,,,,,,,,,,,,,,,,,,,
,,,,,,,,,595d516e2da9c90001d7d200,mexican,13 or older,"no, only English or Spanish",no,2025-07-22_21h56.54.385,empathy_intonation_perc,2024.2.4,Win32,60.97560976,595d516e2da9c90001d7d200,687ed1b7e638a4cbf2f02089,68804125cac3f88b75a27ed8,,,,,,,,,,,,,,1,,./stim/wavs/chilean_question_filler_Mi-padre-cantaba-bien.wav,,,,,,,,,191.3659,194.9662,0,0,3.069,,0,3,3,2,1,,,,,,,,,,,,,,,,,,,,,,,,,,,,,,,,,,,,,,,,,,,,,,,,,,,,,,,,,,,,,,,,,,,,,,,
,,,,,,,,,595d516e2da9c90001d7d200,mexican,13 or older,"no, only English or Spanish",no,2025-07-22_21h56.54.385,empathy_intonation_perc,2024.2.4,Win32,60.97560976,595d516e2da9c90001d7d200,687ed1b7e638a4cbf2f02089,68804125cac3f88b75a27ed8,,,,,,,,,,,,,,0,,./stim/wavs/puertorican_statement_filler_La-nina-pinta-con-su-amiga.wav,,,,,,,,,194.9677,197.6004,0,1,2.1173,,0,4,4,7,1,,,,,,,,,,,,,,,,,,,,,,,,,,,,,,,,,,,,,,,,,,,,,,,,,,,,,,,,,,,,,,,,,,,,,,,
,,,,,,,,,595d516e2da9c90001d7d200,mexican,13 or older,"no, only English or Spanish",no,2025-07-22_21h56.54.385,empathy_intonation_perc,2024.2.4,Win32,60.97560976,595d516e2da9c90001d7d200,687ed1b7e638a4cbf2f02089,68804125cac3f88b75a27ed8,,,,,,,,,,,,,,1,,./stim/wavs/argentine_question_filler_Mi-vecino-habla-mucho.wav,,,,,,,,,197.6019,199.7344,1,1,1.605,,0,5,5,1,1,,,,,,,,,,,,,,,,,,,,,,,,,,,,,,,,,,,,,,,,,,,,,,,,,,,,,,,,,,,,,,,,,,,,,,,
,,,,,,,,,595d516e2da9c90001d7d200,mexican,13 or older,"no, only English or Spanish",no,2025-07-22_21h56.54.385,empathy_intonation_perc,2024.2.4,Win32,60.97560976,595d516e2da9c90001d7d200,687ed1b7e638a4cbf2f02089,68804125cac3f88b75a27ed8,,,,,,,,,,,,,,0,,./stim/wavs/cuban_statement_filler_Cocinabas-por-la-noche.wav,,,,,,,,,199.7359,202.2851,0,1,2.0178,,0,6,6,4,1,,,,,,,,,,,,,,,,,,,,,,,,,,,,,,,,,,,,,,,,,,,,,,,,,,,,,,,,,,,,,,,,,,,,,,,
,,,,,,,,,595d516e2da9c90001d7d200,mexican,13 or older,"no, only English or Spanish",no,2025-07-22_21h56.54.385,empathy_intonation_perc,2024.2.4,Win32,60.97560976,595d516e2da9c90001d7d200,687ed1b7e638a4cbf2f02089,68804125cac3f88b75a27ed8,,,,,,,,,,,,,,0,,./stim/wavs/peruvian_statement_filler_El-nino-habla-con-su-madre.wav,,,,,,,,,202.2862,205.1205,0,1,2.3102,,0,7,7,6,1,,,,,,,,,,,,,,,,,,,,,,,,,,,,,,,,,,,,,,,,,,,,,,,,,,,,,,,,,,,,,,,,,,,,,,,
,,,,,,,,,595d516e2da9c90001d7d200,mexican,13 or older,"no, only English or Spanish",no,2025-07-22_21h56.54.385,empathy_intonation_perc,2024.2.4,Win32,60.97560976,595d516e2da9c90001d7d200,687ed1b7e638a4cbf2f02089,68804125cac3f88b75a27ed8,,,,,,,,,,,,,,,,,,,,,,,,,,,,,,,,,,,,205.1215,209.8717,,,,,,,,,,,,,,,,,,,,,,,,,,,,,,,,,,,,,,,,,,,,,,,,,,,,,,,,,,,,,,,,,,,,,
,,,,,,,,,595d516e2da9c90001d7d200,mexican,13 or older,"no, only English or Spanish",no,2025-07-22_21h56.54.385,empathy_intonation_perc,2024.2.4,Win32,60.97560976,595d516e2da9c90001d7d200,687ed1b7e638a4cbf2f02089,68804125cac3f88b75a27ed8,,,,,,,,,,,,,61,0,,./stim/wavs/mexican_match_declarative-broad-focus_Mariano-habla-del-tiempo.wav,,,,,,,,,,,,,,,,,,,,,,209.8923,212.3224,0,1,1.9031,,0,0,0,60,1,0,mexican,,,,,,,,,,,,,,,,,,,,,,,,,,,,,,,,,,,,,,,,,,,,,,,,,,,,,,,,
,,,,,,,,,595d516e2da9c90001d7d200,mexican,13 or older,"no, only English or Spanish",no,2025-07-22_21h56.54.385,empathy_intonation_perc,2024.2.4,Win32,60.97560976,595d516e2da9c90001d7d200,687ed1b7e638a4cbf2f02089,68804125cac3f88b75a27ed8,,,,,,,,,,,,,9,1,,./stim/wavs/cuban_match_interrogative-total-yn_Manuela-vende-el-carro.wav,,,,,,,,,,,,,,,,,,,,,,212.3235,215.0064,0,0,2.158,,0,1,1,8,1,1,cuban,,,,,,,,,,,,,,,,,,,,,,,,,,,,,,,,,,,,,,,,,,,,,,,,,,,,,,,,
,,,,,,,,,595d516e2da9c90001d7d200,mexican,13 or older,"no, only English or Spanish",no,2025-07-22_21h56.54.385,empathy_intonation_perc,2024.2.4,Win32,60.97560976,595d516e2da9c90001d7d200,687ed1b7e638a4cbf2f02089,68804125cac3f88b75a27ed8,,,,,,,,,,,,,27,1,,./stim/wavs/castilian_mismatch_interrogative-total-yn_Mi-madre-come-la-fruta.wav,,,,,,,,,,,,,,,,,,,,,,215.0074,217.3994,1,1,1.8675,,0,2,2,26,1,0,castilian,,,,,,,,,,,,,,,,,,,,,,,,,,,,,,,,,,,,,,,,,,,,,,,,,,,,,,,,
,,,,,,,,,595d516e2da9c90001d7d200,mexican,13 or older,"no, only English or Spanish",no,2025-07-22_21h56.54.385,empathy_intonation_perc,2024.2.4,Win32,60.97560976,595d516e2da9c90001d7d200,687ed1b7e638a4cbf2f02089,68804125cac3f88b75a27ed8,,,,,,,,,,,,,45,0,,./stim/wavs/castilian_match_declarative-broad-focus_David-leia-el-libro.wav,,,,,,,,,,,,,,,,,,,,,,217.4004,220.2253,0,1,2.3082,,0,3,3,44,1,0,castilian,,,,,,,,,,,,,,,,,,,,,,,,,,,,,,,,,,,,,,,,,,,,,,,,,,,,,,,,
,,,,,,,,,595d516e2da9c90001d7d200,mexican,13 or older,"no, only English or Spanish",no,2025-07-22_21h56.54.385,empathy_intonation_perc,2024.2.4,Win32,60.97560976,595d516e2da9c90001d7d200,687ed1b7e638a4cbf2f02089,68804125cac3f88b75a27ed8,,,,,,,,,,,,,28,1,,./stim/wavs/castilian_mismatch_interrogative-total-yn_Mi-novio-viene-del-lago.wav,,,,,,,,,,,,,,,,,,,,,,220.2267,222.8596,1,1,2.0975,,0,4,4,27,1,0,castilian,,,,,,,,,,,,,,,,,,,,,,,,,,,,,,,,,,,,,,,,,,,,,,,,,,,,,,,,
,,,,,,,,,595d516e2da9c90001d7d200,mexican,13 or older,"no, only English or Spanish",no,2025-07-22_21h56.54.385,empathy_intonation_perc,2024.2.4,Win32,60.97560976,595d516e2da9c90001d7d200,687ed1b7e638a4cbf2f02089,68804125cac3f88b75a27ed8,,,,,,,,,,,,,49,0,,./stim/wavs/castilian_match_declarative-broad-focus_Mariano-habla-del-tiempo.wav,,,,,,,,,,,,,,,,,,,,,,222.8608,225.786,0,1,2.4004,,0,5,5,48,1,0,castilian,,,,,,,,,,,,,,,,,,,,,,,,,,,,,,,,,,,,,,,,,,,,,,,,,,,,,,,,
,,,,,,,,,595d516e2da9c90001d7d200,mexican,13 or older,"no, only English or Spanish",no,2025-07-22_21h56.54.385,empathy_intonation_perc,2024.2.4,Win32,60.97560976,595d516e2da9c90001d7d200,687ed1b7e638a4cbf2f02089,68804125cac3f88b75a27ed8,,,,,,,,,,,,,63,0,,./stim/wavs/puertorican_match_declarative-broad-focus_Ana-lleva-el-abrigo.wav,,,,,,,,,,,,,,,,,,,,,,225.7869,227.995,0,1,1.6849,,0,6,6,62,1,0,puertorican,,,,,,,,,,,,,,,,,,,,,,,,,,,,,,,,,,,,,,,,,,,,,,,,,,,,,,,,
,,,,,,,,,595d516e2da9c90001d7d200,mexican,13 or older,"no, only English or Spanish",no,2025-07-22_21h56.54.385,empathy_intonation_perc,2024.2.4,Win32,60.97560976,595d516e2da9c90001d7d200,687ed1b7e638a4cbf2f02089,68804125cac3f88b75a27ed8,,,,,,,,,,,,,12,1,,./stim/wavs/cuban_match_interrogative-total-yn_Marta-abre-el-regalo.wav,,,,,,,,,,,,,,,,,,,,,,227.9962,230.3793,0,0,1.8512,,0,7,7,11,1,1,cuban,,,,,,,,,,,,,,,,,,,,,,,,,,,,,,,,,,,,,,,,,,,,,,,,,,,,,,,,
,,,,,,,,,595d516e2da9c90001d7d200,mexican,13 or older,"no, only English or Spanish",no,2025-07-22_21h56.54.385,empathy_intonation_perc,2024.2.4,Win32,60.97560976,595d516e2da9c90001d7d200,687ed1b7e638a4cbf2f02089,68804125cac3f88b75a27ed8,,,,,,,,,,,,,53,0,,./stim/wavs/cuban_match_declarative-broad-focus_Manuela-vende-el-carro.wav,,,,,,,,,,,,,,,,,,,,,,230.3807,232.9797,0,1,2.0744,,0,8,8,52,1,0,cuban,,,,,,,,,,,,,,,,,,,,,,,,,,,,,,,,,,,,,,,,,,,,,,,,,,,,,,,,
,,,,,,,,,595d516e2da9c90001d7d200,mexican,13 or older,"no, only English or Spanish",no,2025-07-22_21h56.54.385,empathy_intonation_perc,2024.2.4,Win32,60.97560976,595d516e2da9c90001d7d200,687ed1b7e638a4cbf2f02089,68804125cac3f88b75a27ed8,,,,,,,,,,,,,71,0,,./stim/wavs/castilian_mismatch_declarative-broad-focus_La-nina-lava-el-plato.wav,,,,,,,,,,,,,,,,,,,,,,232.9808,235.5142,0,1,2.0055,,0,9,9,70,1,0,castilian,,,,,,,,,,,,,,,,,,,,,,,,,,,,,,,,,,,,,,,,,,,,,,,,,,,,,,,,
,,,,,,,,,595d516e2da9c90001d7d200,mexican,13 or older,"no, only English or Spanish",no,2025-07-22_21h56.54.385,empathy_intonation_perc,2024.2.4,Win32,60.97560976,595d516e2da9c90001d7d200,687ed1b7e638a4cbf2f02089,68804125cac3f88b75a27ed8,,,,,,,,,,,,,22,1,,./stim/wavs/puertorican_match_interrogative-total-yn_Emilio-ama-la-marcha.wav,,,,,,,,,,,,,,,,,,,,,,235.5155,238.3405,0,0,2.3015,,0,10,10,21,1,1,puertorican,,,,,,,,,,,,,,,,,,,,,,,,,,,,,,,,,,,,,,,,,,,,,,,,,,,,,,,,
,,,,,,,,,595d516e2da9c90001d7d200,mexican,13 or older,"no, only English or Spanish",no,2025-07-22_21h56.54.385,empathy_intonation_perc,2024.2.4,Win32,60.97560976,595d516e2da9c90001d7d200,687ed1b7e638a4cbf2f02089,68804125cac3f88b75a27ed8,,,,,,,,,,,,,38,1,,./stim/wavs/mexican_mismatch_interrogative-total-yn_Mi-novio-viene-del-lago.wav,,,,,,,,,,,,,,,,,,,,,,238.3414,240.6829,1,1,1.8019,,0,11,11,37,1,0,mexican,,,,,,,,,,,,,,,,,,,,,,,,,,,,,,,,,,,,,,,,,,,,,,,,,,,,,,,,
,,,,,,,,,595d516e2da9c90001d7d200,mexican,13 or older,"no, only English or Spanish",no,2025-07-22_21h56.54.385,empathy_intonation_perc,2024.2.4,Win32,60.97560976,595d516e2da9c90001d7d200,687ed1b7e638a4cbf2f02089,68804125cac3f88b75a27ed8,,,,,,,,,,,,,75,0,,./stim/wavs/cuban_mismatch_declarative-broad-focus_El-hombre-mira-la-luna.wav,,,,,,,,,,,,,,,,,,,,,,240.6845,242.8334,0,1,1.618,,0,12,12,74,1,0,cuban,,,,,,,,,,,,,,,,,,,,,,,,,,,,,,,,,,,,,,,,,,,,,,,,,,,,,,,,
,,,,,,,,,595d516e2da9c90001d7d200,mexican,13 or older,"no, only English or Spanish",no,2025-07-22_21h56.54.385,empathy_intonation_perc,2024.2.4,Win32,60.97560976,595d516e2da9c90001d7d200,687ed1b7e638a4cbf2f02089,68804125cac3f88b75a27ed8,,,,,,,,,,,,,31,1,,./stim/wavs/cuban_mismatch_interrogative-total-yn_El-nino-oye-el-rio.wav,,,,,,,,,,,,,,,,,,,,,,242.8345,244.9177,0,0,1.5626,,0,13,13,30,1,1,cuban,,,,,,,,,,,,,,,,,,,,,,,,,,,,,,,,,,,,,,,,,,,,,,,,,,,,,,,,
,,,,,,,,,595d516e2da9c90001d7d200,mexican,13 or older,"no, only English or Spanish",no,2025-07-22_21h56.54.385,empathy_intonation_perc,2024.2.4,Win32,60.97560976,595d516e2da9c90001d7d200,687ed1b7e638a4cbf2f02089,68804125cac3f88b75a27ed8,,,,,,,,,,,,,17,1,,./stim/wavs/mexican_match_interrogative-total-yn_Mariano-habla-del-tiempo.wav,,,,,,,,,,,,,,,,,,,,,,244.9192,247.0684,1,1,1.6177,,0,14,14,16,1,0,mexican,,,,,,,,,,,,,,,,,,,,,,,,,,,,,,,,,,,,,,,,,,,,,,,,,,,,,,,,
,,,,,,,,,595d516e2da9c90001d7d200,mexican,13 or older,"no, only English or Spanish",no,2025-07-22_21h56.54.385,empathy_intonation_perc,2024.2.4,Win32,60.97560976,595d516e2da9c90001d7d200,687ed1b7e638a4cbf2f02089,68804125cac3f88b75a27ed8,,,,,,,,,,,,,65,0,,./stim/wavs/puertorican_match_declarative-broad-focus_David-leia-el-libro.wav,,,,,,,,,,,,,,,,,,,,,,247.0698,249.2024,0,1,1.6038,,0,15,15,64,1,0,puertorican,,,,,,,,,,,,,,,,,,,,,,,,,,,,,,,,,,,,,,,,,,,,,,,,,,,,,,,,
,,,,,,,,,595d516e2da9c90001d7d200,mexican,13 or older,"no, only English or Spanish",no,2025-07-22_21h56.54.385,empathy_intonation_perc,2024.2.4,Win32,60.97560976,595d516e2da9c90001d7d200,687ed1b7e638a4cbf2f02089,68804125cac3f88b75a27ed8,,,,,,,,,,,,,36,1,,./stim/wavs/mexican_mismatch_interrogative-total-yn_El-nino-oye-el-rio.wav,,,,,,,,,,,,,,,,,,,,,,249.2036,251.2869,1,1,1.5531,,0,16,16,35,1,0,mexican,,,,,,,,,,,,,,,,,,,,,,,,,,,,,,,,,,,,,,,,,,,,,,,,,,,,,,,,
,,,,,,,,,595d516e2da9c90001d7d200,mexican,13 or older,"no, only English or Spanish",no,2025-07-22_21h56.54.385,empathy_intonation_perc,2024.2.4,Win32,60.97560976,595d516e2da9c90001d7d200,687ed1b7e638a4cbf2f02089,68804125cac3f88b75a27ed8,,,,,,,,,,,,,59,0,,./stim/wavs/mexican_match_declarative-broad-focus_David-leia-el-libro.wav,,,,,,,,,,,,,,,,,,,,,,251.2881,253.5386,0,1,1.7105,,0,17,17,58,1,0,mexican,,,,,,,,,,,,,,,,,,,,,,,,,,,,,,,,,,,,,,,,,,,,,,,,,,,,,,,,
,,,,,,,,,595d516e2da9c90001d7d200,mexican,13 or older,"no, only English or Spanish",no,2025-07-22_21h56.54.385,empathy_intonation_perc,2024.2.4,Win32,60.97560976,595d516e2da9c90001d7d200,687ed1b7e638a4cbf2f02089,68804125cac3f88b75a27ed8,,,,,,,,,,,,,82,0,,./stim/wavs/mexican_mismatch_declarative-broad-focus_Mi-novio-viene-del-lago.wav,,,,,,,,,,,,,,,,,,,,,,253.5396,256.2217,0,1,2.1541,,0,18,18,81,1,0,mexican,,,,,,,,,,,,,,,,,,,,,,,,,,,,,,,,,,,,,,,,,,,,,,,,,,,,,,,,
,,,,,,,,,595d516e2da9c90001d7d200,mexican,13 or older,"no, only English or Spanish",no,2025-07-22_21h56.54.385,empathy_intonation_perc,2024.2.4,Win32,60.97560976,595d516e2da9c90001d7d200,687ed1b7e638a4cbf2f02089,68804125cac3f88b75a27ed8,,,,,,,,,,,,,87,0,,./stim/wavs/puertorican_mismatch_declarative-broad-focus_La-maestra-vive-en-Paris.wav,,,,,,,,,,,,,,,,,,,,,,256.2229,258.4559,0,1,1.7089,,0,19,19,86,1,0,puertorican,,,,,,,,,,,,,,,,,,,,,,,,,,,,,,,,,,,,,,,,,,,,,,,,,,,,,,,,
,,,,,,,,,595d516e2da9c90001d7d200,mexican,13 or older,"no, only English or Spanish",no,2025-07-22_21h56.54.385,empathy_intonation_perc,2024.2.4,Win32,60.97560976,595d516e2da9c90001d7d200,687ed1b7e638a4cbf2f02089,68804125cac3f88b75a27ed8,,,,,,,,,,,,,2,1,,./stim/wavs/castilian_match_interrogative-total-yn_Emilio-ama-la-marcha.wav,,,,,,,,,,,,,,,,,,,,,,258.4571,260.707,1,1,1.7281,,0,20,20,1,1,0,castilian,,,,,,,,,,,,,,,,,,,,,,,,,,,,,,,,,,,,,,,,,,,,,,,,,,,,,,,,
,,,,,,,,,595d516e2da9c90001d7d200,mexican,13 or older,"no, only English or Spanish",no,2025-07-22_21h56.54.385,empathy_intonation_perc,2024.2.4,Win32,60.97560976,595d516e2da9c90001d7d200,687ed1b7e638a4cbf2f02089,68804125cac3f88b75a27ed8,,,,,,,,,,,,,20,1,,./stim/wavs/puertorican_match_interrogative-total-yn_Daniel-iba-a-Bolivia.wav,,,,,,,,,,,,,,,,,,,,,,260.708,262.9244,0,0,1.6862,,0,21,21,19,1,1,puertorican,,,,,,,,,,,,,,,,,,,,,,,,,,,,,,,,,,,,,,,,,,,,,,,,,,,,,,,,
,,,,,,,,,595d516e2da9c90001d7d200,mexican,13 or older,"no, only English or Spanish",no,2025-07-22_21h56.54.385,empathy_intonation_perc,2024.2.4,Win32,60.97560976,595d516e2da9c90001d7d200,687ed1b7e638a4cbf2f02089,68804125cac3f88b75a27ed8,,,,,,,,,,,,,25,1,,./stim/wavs/castilian_mismatch_interrogative-total-yn_La-maestra-vive-en-Paris.wav,,,,,,,,,,,,,,,,,,,,,,262.9257,265.434,1,1,1.978,,0,22,22,24,1,0,castilian,,,,,,,,,,,,,,,,,,,,,,,,,,,,,,,,,,,,,,,,,,,,,,,,,,,,,,,,
,,,,,,,,,595d516e2da9c90001d7d200,mexican,13 or older,"no, only English or Spanish",no,2025-07-22_21h56.54.385,empathy_intonation_perc,2024.2.4,Win32,60.97560976,595d516e2da9c90001d7d200,687ed1b7e638a4cbf2f02089,68804125cac3f88b75a27ed8,,,,,,,,,,,,,16,1,,./stim/wavs/mexican_match_interrogative-total-yn_Emilio-ama-la-marcha.wav,,,,,,,,,,,,,,,,,,,,,,265.4348,267.7015,0,0,1.7339,,0,23,23,15,1,0,mexican,,,,,,,,,,,,,,,,,,,,,,,,,,,,,,,,,,,,,,,,,,,,,,,,,,,,,,,,
,,,,,,,,,595d516e2da9c90001d7d200,mexican,13 or older,"no, only English or Spanish",no,2025-07-22_21h56.54.385,empathy_intonation_perc,2024.2.4,Win32,60.97560976,595d516e2da9c90001d7d200,687ed1b7e638a4cbf2f02089,68804125cac3f88b75a27ed8,,,,,,,,,,,,,37,1,,./stim/wavs/mexican_mismatch_interrogative-total-yn_La-maestra-vive-en-Paris.wav,,,,,,,,,,,,,,,,,,,,,,267.7026,269.9935,1,1,1.7694,,0,24,24,36,1,0,mexican,,,,,,,,,,,,,,,,,,,,,,,,,,,,,,,,,,,,,,,,,,,,,,,,,,,,,,,,
,,,,,,,,,595d516e2da9c90001d7d200,mexican,13 or older,"no, only English or Spanish",no,2025-07-22_21h56.54.385,empathy_intonation_perc,2024.2.4,Win32,60.97560976,595d516e2da9c90001d7d200,687ed1b7e638a4cbf2f02089,68804125cac3f88b75a27ed8,,,,,,,,,,,,,48,0,,./stim/wavs/castilian_match_declarative-broad-focus_Maria-bebe-el-vino.wav,,,,,,,,,,,,,,,,,,,,,,269.995,272.2792,0,1,1.7602,,0,25,25,47,1,0,castilian,,,,,,,,,,,,,,,,,,,,,,,,,,,,,,,,,,,,,,,,,,,,,,,,,,,,,,,,
,,,,,,,,,595d516e2da9c90001d7d200,mexican,13 or older,"no, only English or Spanish",no,2025-07-22_21h56.54.385,empathy_intonation_perc,2024.2.4,Win32,60.97560976,595d516e2da9c90001d7d200,687ed1b7e638a4cbf2f02089,68804125cac3f88b75a27ed8,,,,,,,,,,,,,43,1,,./stim/wavs/puertorican_mismatch_interrogative-total-yn_La-nina-lava-el-plato.wav,,,,,,,,,,,,,,,,,,,,,,272.2802,274.4619,0,0,1.6515,,0,26,26,42,1,1,puertorican,,,,,,,,,,,,,,,,,,,,,,,,,,,,,,,,,,,,,,,,,,,,,,,,,,,,,,,,
,,,,,,,,,595d516e2da9c90001d7d200,mexican,13 or older,"no, only English or Spanish",no,2025-07-22_21h56.54.385,empathy_intonation_perc,2024.2.4,Win32,60.97560976,595d516e2da9c90001d7d200,687ed1b7e638a4cbf2f02089,68804125cac3f88b75a27ed8,,,,,,,,,,,,,84,0,,./stim/wavs/puertorican_mismatch_declarative-broad-focus_El-bebe-comia-muy-bien.wav,,,,,,,,,,,,,,,,,,,,,,274.463,276.8794,0,1,1.8891,,0,27,27,83,1,0,puertorican,,,,,,,,,,,,,,,,,,,,,,,,,,,,,,,,,,,,,,,,,,,,,,,,,,,,,,,,
,,,,,,,,,595d516e2da9c90001d7d200,mexican,13 or older,"no, only English or Spanish",no,2025-07-22_21h56.54.385,empathy_intonation_perc,2024.2.4,Win32,60.97560976,595d516e2da9c90001d7d200,687ed1b7e638a4cbf2f02089,68804125cac3f88b75a27ed8,,,,,,,,,,,,,58,0,,./stim/wavs/mexican_match_declarative-broad-focus_Daniel-iba-a-Bolivia.wav,,,,,,,,,,,,,,,,,,,,,,276.8805,279.0636,0,1,1.6545,,0,28,28,57,1,0,mexican,,,,,,,,,,,,,,,,,,,,,,,,,,,,,,,,,,,,,,,,,,,,,,,,,,,,,,,,
,,,,,,,,,595d516e2da9c90001d7d200,mexican,13 or older,"no, only English or Spanish",no,2025-07-22_21h56.54.385,empathy_intonation_perc,2024.2.4,Win32,60.97560976,595d516e2da9c90001d7d200,687ed1b7e638a4cbf2f02089,68804125cac3f88b75a27ed8,,,,,,,,,,,,,57,0,,./stim/wavs/mexican_match_declarative-broad-focus_Ana-lleva-el-abrigo.wav,,,,,,,,,,,,,,,,,,,,,,279.0648,281.0644,0,1,1.4693,,0,29,29,56,1,0,mexican,,,,,,,,,,,,,,,,,,,,,,,,,,,,,,,,,,,,,,,,,,,,,,,,,,,,,,,,
,,,,,,,,,595d516e2da9c90001d7d200,mexican,13 or older,"no, only English or Spanish",no,2025-07-22_21h56.54.385,empathy_intonation_perc,2024.2.4,Win32,60.97560976,595d516e2da9c90001d7d200,687ed1b7e638a4cbf2f02089,68804125cac3f88b75a27ed8,,,,,,,,,,,,,60,0,,./stim/wavs/mexican_match_declarative-broad-focus_Emilio-ama-la-marcha.wav,,,,,,,,,,,,,,,,,,,,,,281.0654,283.3985,0,1,1.8063,,0,30,30,59,1,0,mexican,,,,,,,,,,,,,,,,,,,,,,,,,,,,,,,,,,,,,,,,,,,,,,,,,,,,,,,,
,,,,,,,,,595d516e2da9c90001d7d200,mexican,13 or older,"no, only English or Spanish",no,2025-07-22_21h56.54.385,empathy_intonation_perc,2024.2.4,Win32,60.97560976,595d516e2da9c90001d7d200,687ed1b7e638a4cbf2f02089,68804125cac3f88b75a27ed8,,,,,,,,,,,,,14,1,,./stim/wavs/mexican_match_interrogative-total-yn_Daniel-iba-a-Bolivia.wav,,,,,,,,,,,,,,,,,,,,,,283.3996,285.5993,1,1,1.6707,,0,31,31,13,1,0,mexican,,,,,,,,,,,,,,,,,,,,,,,,,,,,,,,,,,,,,,,,,,,,,,,,,,,,,,,,
,,,,,,,,,595d516e2da9c90001d7d200,mexican,13 or older,"no, only English or Spanish",no,2025-07-22_21h56.54.385,empathy_intonation_perc,2024.2.4,Win32,60.97560976,595d516e2da9c90001d7d200,687ed1b7e638a4cbf2f02089,68804125cac3f88b75a27ed8,,,,,,,,,,,,,23,1,,./stim/wavs/puertorican_match_interrogative-total-yn_Manuela-vende-el-carro.wav,,,,,,,,,,,,,,,,,,,,,,285.6007,287.7505,0,0,1.6182,,0,32,32,22,1,1,puertorican,,,,,,,,,,,,,,,,,,,,,,,,,,,,,,,,,,,,,,,,,,,,,,,,,,,,,,,,
,,,,,,,,,595d516e2da9c90001d7d200,mexican,13 or older,"no, only English or Spanish",no,2025-07-22_21h56.54.385,empathy_intonation_perc,2024.2.4,Win32,60.97560976,595d516e2da9c90001d7d200,687ed1b7e638a4cbf2f02089,68804125cac3f88b75a27ed8,,,,,,,,,,,,,81,0,,./stim/wavs/mexican_mismatch_declarative-broad-focus_La-maestra-vive-en-Paris.wav,,,,,,,,,,,,,,,,,,,,,,287.7519,290.1181,0,1,1.8346,,0,33,33,80,1,0,mexican,,,,,,,,,,,,,,,,,,,,,,,,,,,,,,,,,,,,,,,,,,,,,,,,,,,,,,,,
,,,,,,,,,595d516e2da9c90001d7d200,mexican,13 or older,"no, only English or Spanish",no,2025-07-22_21h56.54.385,empathy_intonation_perc,2024.2.4,Win32,60.97560976,595d516e2da9c90001d7d200,687ed1b7e638a4cbf2f02089,68804125cac3f88b75a27ed8,,,,,,,,,,,,,56,0,,./stim/wavs/cuban_match_declarative-broad-focus_Marta-abre-el-regalo.wav,,,,,,,,,,,,,,,,,,,,,,290.1194,292.6855,0,1,2.0205,,0,34,34,55,1,0,cuban,,,,,,,,,,,,,,,,,,,,,,,,,,,,,,,,,,,,,,,,,,,,,,,,,,,,,,,,
,,,,,,,,,595d516e2da9c90001d7d200,mexican,13 or older,"no, only English or Spanish",no,2025-07-22_21h56.54.385,empathy_intonation_perc,2024.2.4,Win32,60.97560976,595d516e2da9c90001d7d200,687ed1b7e638a4cbf2f02089,68804125cac3f88b75a27ed8,,,,,,,,,,,,,10,1,,./stim/wavs/cuban_match_interrogative-total-yn_Maria-bebe-el-vino.wav,,,,,,,,,,,,,,,,,,,,,,292.6865,294.9868,0,0,1.7679,,0,35,35,9,1,1,cuban,,,,,,,,,,,,,,,,,,,,,,,,,,,,,,,,,,,,,,,,,,,,,,,,,,,,,,,,
,,,,,,,,,595d516e2da9c90001d7d200,mexican,13 or older,"no, only English or Spanish",no,2025-07-22_21h56.54.385,empathy_intonation_perc,2024.2.4,Win32,60.97560976,595d516e2da9c90001d7d200,687ed1b7e638a4cbf2f02089,68804125cac3f88b75a27ed8,,,,,,,,,,,,,67,0,,./stim/wavs/puertorican_match_declarative-broad-focus_Manuela-vende-el-carro.wav,,,,,,,,,,,,,,,,,,,,,,294.9882,297.3537,0,1,1.8347,,0,36,36,66,1,0,puertorican,,,,,,,,,,,,,,,,,,,,,,,,,,,,,,,,,,,,,,,,,,,,,,,,,,,,,,,,
,,,,,,,,,595d516e2da9c90001d7d200,mexican,13 or older,"no, only English or Spanish",no,2025-07-22_21h56.54.385,empathy_intonation_perc,2024.2.4,Win32,60.97560976,595d516e2da9c90001d7d200,687ed1b7e638a4cbf2f02089,68804125cac3f88b75a27ed8,,,,,,,,,,,,,32,1,,./stim/wavs/cuban_mismatch_interrogative-total-yn_Mi-madre-come-la-fruta.wav,,,,,,,,,,,,,,,,,,,,,,297.3551,299.8223,0,0,1.9432,,0,37,37,31,1,1,cuban,,,,,,,,,,,,,,,,,,,,,,,,,,,,,,,,,,,,,,,,,,,,,,,,,,,,,,,,
,,,,,,,,,595d516e2da9c90001d7d200,mexican,13 or older,"no, only English or Spanish",no,2025-07-22_21h56.54.385,empathy_intonation_perc,2024.2.4,Win32,60.97560976,595d516e2da9c90001d7d200,687ed1b7e638a4cbf2f02089,68804125cac3f88b75a27ed8,,,,,,,,,,,,,26,1,,./stim/wavs/castilian_mismatch_interrogative-total-yn_La-nina-lava-el-plato.wav,,,,,,,,,,,,,,,,,,,,,,299.8238,302.0723,1,1,1.7226,,0,38,38,25,1,0,castilian,,,,,,,,,,,,,,,,,,,,,,,,,,,,,,,,,,,,,,,,,,,,,,,,,,,,,,,,
,,,,,,,,,595d516e2da9c90001d7d200,mexican,13 or older,"no, only English or Spanish",no,2025-07-22_21h56.54.385,empathy_intonation_perc,2024.2.4,Win32,60.97560976,595d516e2da9c90001d7d200,687ed1b7e638a4cbf2f02089,68804125cac3f88b75a27ed8,,,,,,,,,,,,,52,0,,./stim/wavs/cuban_match_declarative-broad-focus_Daniel-iba-a-Bolivia.wav,,,,,,,,,,,,,,,,,,,,,,302.0736,304.6735,0,1,2.0676,,0,39,39,51,1,0,cuban,,,,,,,,,,,,,,,,,,,,,,,,,,,,,,,,,,,,,,,,,,,,,,,,,,,,,,,,
,,,,,,,,,595d516e2da9c90001d7d200,mexican,13 or older,"no, only English or Spanish",no,2025-07-22_21h56.54.385,empathy_intonation_perc,2024.2.4,Win32,60.97560976,595d516e2da9c90001d7d200,687ed1b7e638a4cbf2f02089,68804125cac3f88b75a27ed8,,,,,,,,,,,,,76,0,,./stim/wavs/cuban_mismatch_declarative-broad-focus_La-nina-lava-el-plato.wav,,,,,,,,,,,,,,,,,,,,,,304.6745,306.9331,0,1,1.7348,,0,40,40,75,1,0,cuban,,,,,,,,,,,,,,,,,,,,,,,,,,,,,,,,,,,,,,,,,,,,,,,,,,,,,,,,
,,,,,,,,,595d516e2da9c90001d7d200,mexican,13 or older,"no, only English or Spanish",no,2025-07-22_21h56.54.385,empathy_intonation_perc,2024.2.4,Win32,60.97560976,595d516e2da9c90001d7d200,687ed1b7e638a4cbf2f02089,68804125cac3f88b75a27ed8,,,,,,,,,,,,,55,0,,./stim/wavs/cuban_match_declarative-broad-focus_Mariano-habla-del-tiempo.wav,,,,,,,,,,,,,,,,,,,,,,306.9343,309.3916,0,1,1.9179,,0,41,41,54,1,0,cuban,,,,,,,,,,,,,,,,,,,,,,,,,,,,,,,,,,,,,,,,,,,,,,,,,,,,,,,,
,,,,,,,,,595d516e2da9c90001d7d200,mexican,13 or older,"no, only English or Spanish",no,2025-07-22_21h56.54.385,empathy_intonation_perc,2024.2.4,Win32,60.97560976,595d516e2da9c90001d7d200,687ed1b7e638a4cbf2f02089,68804125cac3f88b75a27ed8,,,,,,,,,,,,,83,0,,./stim/wavs/mexican_mismatch_declarative-broad-focus_Mi-tia-odia-la-lluvia.wav,,,,,,,,,,,,,,,,,,,,,,309.3927,311.6593,0,1,1.7411,,0,42,42,82,1,0,mexican,,,,,,,,,,,,,,,,,,,,,,,,,,,,,,,,,,,,,,,,,,,,,,,,,,,,,,,,
,,,,,,,,,595d516e2da9c90001d7d200,mexican,13 or older,"no, only English or Spanish",no,2025-07-22_21h56.54.385,empathy_intonation_perc,2024.2.4,Win32,60.97560976,595d516e2da9c90001d7d200,687ed1b7e638a4cbf2f02089,68804125cac3f88b75a27ed8,,,,,,,,,,,,,78,0,,./stim/wavs/cuban_mismatch_declarative-broad-focus_Mi-tia-odia-la-lluvia.wav,,,,,,,,,,,,,,,,,,,,,,311.6608,313.9932,0,1,1.7963,,0,43,43,77,1,0,cuban,,,,,,,,,,,,,,,,,,,,,,,,,,,,,,,,,,,,,,,,,,,,,,,,,,,,,,,,
,,,,,,,,,595d516e2da9c90001d7d200,mexican,13 or older,"no, only English or Spanish",no,2025-07-22_21h56.54.385,empathy_intonation_perc,2024.2.4,Win32,60.97560976,595d516e2da9c90001d7d200,687ed1b7e638a4cbf2f02089,68804125cac3f88b75a27ed8,,,,,,,,,,,,,74,0,,./stim/wavs/cuban_mismatch_declarative-broad-focus_El-bebe-comia-muy-bien.wav,,,,,,,,,,,,,,,,,,,,,,313.9944,316.0775,0,1,1.5547,,0,44,44,73,1,0,cuban,,,,,,,,,,,,,,,,,,,,,,,,,,,,,,,,,,,,,,,,,,,,,,,,,,,,,,,,
,,,,,,,,,595d516e2da9c90001d7d200,mexican,13 or older,"no, only English or Spanish",no,2025-07-22_21h56.54.385,empathy_intonation_perc,2024.2.4,Win32,60.97560976,595d516e2da9c90001d7d200,687ed1b7e638a4cbf2f02089,68804125cac3f88b75a27ed8,,,,,,,,,,,,,66,0,,./stim/wavs/puertorican_match_declarative-broad-focus_Emilio-ama-la-marcha.wav,,,,,,,,,,,,,,,,,,,,,,316.0786,318.5288,0,1,1.9211,,0,45,45,65,1,0,puertorican,,,,,,,,,,,,,,,,,,,,,,,,,,,,,,,,,,,,,,,,,,,,,,,,,,,,,,,,
,,,,,,,,,595d516e2da9c90001d7d200,mexican,13 or older,"no, only English or Spanish",no,2025-07-22_21h56.54.385,empathy_intonation_perc,2024.2.4,Win32,60.97560976,595d516e2da9c90001d7d200,687ed1b7e638a4cbf2f02089,68804125cac3f88b75a27ed8,,,,,,,,,,,,,5,1,,./stim/wavs/castilian_match_interrogative-total-yn_Mariano-habla-del-tiempo.wav,,,,,,,,,,,,,,,,,,,,,,318.5302,320.8625,1,1,1.8044,,0,46,46,4,1,0,castilian,,,,,,,,,,,,,,,,,,,,,,,,,,,,,,,,,,,,,,,,,,,,,,,,,,,,,,,,
,,,,,,,,,595d516e2da9c90001d7d200,mexican,13 or older,"no, only English or Spanish",no,2025-07-22_21h56.54.385,empathy_intonation_perc,2024.2.4,Win32,60.97560976,595d516e2da9c90001d7d200,687ed1b7e638a4cbf2f02089,68804125cac3f88b75a27ed8,,,,,,,,,,,,,62,0,,./stim/wavs/mexican_match_declarative-broad-focus_Marta-abre-el-regalo.wav,,,,,,,,,,,,,,,,,,,,,,320.8637,323.0185,0,1,1.6305,,0,47,47,61,1,0,mexican,,,,,,,,,,,,,,,,,,,,,,,,,,,,,,,,,,,,,,,,,,,,,,,,,,,,,,,,
,,,,,,,,,595d516e2da9c90001d7d200,mexican,13 or older,"no, only English or Spanish",no,2025-07-22_21h56.54.385,empathy_intonation_perc,2024.2.4,Win32,60.97560976,595d516e2da9c90001d7d200,687ed1b7e638a4cbf2f02089,68804125cac3f88b75a27ed8,,,,,,,,,,,,,35,1,,./stim/wavs/mexican_mismatch_interrogative-total-yn_El-hombre-mira-la-luna.wav,,,,,,,,,,,,,,,,,,,,,,323.0198,325.381,1,1,1.8231,,0,48,48,34,1,0,mexican,,,,,,,,,,,,,,,,,,,,,,,,,,,,,,,,,,,,,,,,,,,,,,,,,,,,,,,,
,,,,,,,,,595d516e2da9c90001d7d200,mexican,13 or older,"no, only English or Spanish",no,2025-07-22_21h56.54.385,empathy_intonation_perc,2024.2.4,Win32,60.97560976,595d516e2da9c90001d7d200,687ed1b7e638a4cbf2f02089,68804125cac3f88b75a27ed8,,,,,,,,,,,,,40,1,,./stim/wavs/puertorican_mismatch_interrogative-total-yn_El-hombre-mira-la-luna.wav,,,,,,,,,,,,,,,,,,,,,,325.382,327.7987,1,1,1.8846,,0,49,49,39,1,1,puertorican,,,,,,,,,,,,,,,,,,,,,,,,,,,,,,,,,,,,,,,,,,,,,,,,,,,,,,,,
,,,,,,,,,595d516e2da9c90001d7d200,mexican,13 or older,"no, only English or Spanish",no,2025-07-22_21h56.54.385,empathy_intonation_perc,2024.2.4,Win32,60.97560976,595d516e2da9c90001d7d200,687ed1b7e638a4cbf2f02089,68804125cac3f88b75a27ed8,,,,,,,,,,,,,69,0,,./stim/wavs/castilian_mismatch_declarative-broad-focus_El-nino-oye-el-rio.wav,,,,,,,,,,,,,,,,,,,,,,327.7998,330.2406,0,1,1.9168,,0,50,50,68,1,0,castilian,,,,,,,,,,,,,,,,,,,,,,,,,,,,,,,,,,,,,,,,,,,,,,,,,,,,,,,,
,,,,,,,,,595d516e2da9c90001d7d200,mexican,13 or older,"no, only English or Spanish",no,2025-07-22_21h56.54.385,empathy_intonation_perc,2024.2.4,Win32,60.97560976,595d516e2da9c90001d7d200,687ed1b7e638a4cbf2f02089,68804125cac3f88b75a27ed8,,,,,,,,,,,,,85,0,,./stim/wavs/puertorican_mismatch_declarative-broad-focus_El-hombre-mira-la-luna.wav,,,,,,,,,,,,,,,,,,,,,,330.2416,332.7504,0,1,1.986,,0,51,51,84,1,0,puertorican,,,,,,,,,,,,,,,,,,,,,,,,,,,,,,,,,,,,,,,,,,,,,,,,,,,,,,,,
,,,,,,,,,595d516e2da9c90001d7d200,mexican,13 or older,"no, only English or Spanish",no,2025-07-22_21h56.54.385,empathy_intonation_perc,2024.2.4,Win32,60.97560976,595d516e2da9c90001d7d200,687ed1b7e638a4cbf2f02089,68804125cac3f88b75a27ed8,,,,,,,,,,,,,7,1,,./stim/wavs/cuban_match_interrogative-total-yn_Ana-lleva-el-abrigo.wav,,,,,,,,,,,,,,,,,,,,,,332.7515,335.3513,0,0,2.0736,,0,52,52,6,1,1,cuban,,,,,,,,,,,,,,,,,,,,,,,,,,,,,,,,,,,,,,,,,,,,,,,,,,,,,,,,
,,,,,,,,,595d516e2da9c90001d7d200,mexican,13 or older,"no, only English or Spanish",no,2025-07-22_21h56.54.385,empathy_intonation_perc,2024.2.4,Win32,60.97560976,595d516e2da9c90001d7d200,687ed1b7e638a4cbf2f02089,68804125cac3f88b75a27ed8,,,,,,,,,,,,,30,1,,./stim/wavs/cuban_mismatch_interrogative-total-yn_El-hombre-mira-la-luna.wav,,,,,,,,,,,,,,,,,,,,,,335.3524,337.1854,1,1,1.2976,,0,53,53,29,1,1,cuban,,,,,,,,,,,,,,,,,,,,,,,,,,,,,,,,,,,,,,,,,,,,,,,,,,,,,,,,
,,,,,,,,,595d516e2da9c90001d7d200,mexican,13 or older,"no, only English or Spanish",no,2025-07-22_21h56.54.385,empathy_intonation_perc,2024.2.4,Win32,60.97560976,595d516e2da9c90001d7d200,687ed1b7e638a4cbf2f02089,68804125cac3f88b75a27ed8,,,,,,,,,,,,,3,1,,./stim/wavs/castilian_match_interrogative-total-yn_Manuela-vende-el-carro.wav,,,,,,,,,,,,,,,,,,,,,,337.1864,340.0416,1,1,2.3312,,0,54,54,2,1,0,castilian,,,,,,,,,,,,,,,,,,,,,,,,,,,,,,,,,,,,,,,,,,,,,,,,,,,,,,,,
,,,,,,,,,595d516e2da9c90001d7d200,mexican,13 or older,"no, only English or Spanish",no,2025-07-22_21h56.54.385,empathy_intonation_perc,2024.2.4,Win32,60.97560976,595d516e2da9c90001d7d200,687ed1b7e638a4cbf2f02089,68804125cac3f88b75a27ed8,,,,,,,,,,,,,46,0,,./stim/wavs/castilian_match_declarative-broad-focus_Emilio-ama-la-marcha.wav,,,,,,,,,,,,,,,,,,,,,,340.0426,342.3294,1,0,1.7679,,0,55,55,45,1,0,castilian,,,,,,,,,,,,,,,,,,,,,,,,,,,,,,,,,,,,,,,,,,,,,,,,,,,,,,,,
,,,,,,,,,595d516e2da9c90001d7d200,mexican,13 or older,"no, only English or Spanish",no,2025-07-22_21h56.54.385,empathy_intonation_perc,2024.2.4,Win32,60.97560976,595d516e2da9c90001d7d200,687ed1b7e638a4cbf2f02089,68804125cac3f88b75a27ed8,,,,,,,,,,,,,79,0,,./stim/wavs/mexican_mismatch_declarative-broad-focus_El-bebe-comia-muy-bien.wav,,,,,,,,,,,,,,,,,,,,,,342.3302,345.3552,1,0,2.5017,,0,56,56,78,1,0,mexican,,,,,,,,,,,,,,,,,,,,,,,,,,,,,,,,,,,,,,,,,,,,,,,,,,,,,,,,
,,,,,,,,,595d516e2da9c90001d7d200,mexican,13 or older,"no, only English or Spanish",no,2025-07-22_21h56.54.385,empathy_intonation_perc,2024.2.4,Win32,60.97560976,595d516e2da9c90001d7d200,687ed1b7e638a4cbf2f02089,68804125cac3f88b75a27ed8,,,,,,,,,,,,,15,1,,./stim/wavs/mexican_match_interrogative-total-yn_David-leia-el-libro.wav,,,,,,,,,,,,,,,,,,,,,,345.3564,347.6982,1,1,1.8178,,0,57,57,14,1,0,mexican,,,,,,,,,,,,,,,,,,,,,,,,,,,,,,,,,,,,,,,,,,,,,,,,,,,,,,,,
,,,,,,,,,595d516e2da9c90001d7d200,mexican,13 or older,"no, only English or Spanish",no,2025-07-22_21h56.54.385,empathy_intonation_perc,2024.2.4,Win32,60.97560976,595d516e2da9c90001d7d200,687ed1b7e638a4cbf2f02089,68804125cac3f88b75a27ed8,,,,,,,,,,,,,42,1,,./stim/wavs/puertorican_mismatch_interrogative-total-yn_La-maestra-vive-en-Paris.wav,,,,,,,,,,,,,,,,,,,,,,347.6991,350.2569,0,0,2.0393,,0,58,58,41,1,1,puertorican,,,,,,,,,,,,,,,,,,,,,,,,,,,,,,,,,,,,,,,,,,,,,,,,,,,,,,,,
,,,,,,,,,595d516e2da9c90001d7d200,mexican,13 or older,"no, only English or Spanish",no,2025-07-22_21h56.54.385,empathy_intonation_perc,2024.2.4,Win32,60.97560976,595d516e2da9c90001d7d200,687ed1b7e638a4cbf2f02089,68804125cac3f88b75a27ed8,,,,,,,,,,,,,29,1,,./stim/wavs/castilian_mismatch_interrogative-total-yn_Mi-tia-odia-la-lluvia.wav,,,,,,,,,,,,,,,,,,,,,,350.258,352.9919,0,0,2.1882,,0,59,59,28,1,0,castilian,,,,,,,,,,,,,,,,,,,,,,,,,,,,,,,,,,,,,,,,,,,,,,,,,,,,,,,,
,,,,,,,,,595d516e2da9c90001d7d200,mexican,13 or older,"no, only English or Spanish",no,2025-07-22_21h56.54.385,empathy_intonation_perc,2024.2.4,Win32,60.97560976,595d516e2da9c90001d7d200,687ed1b7e638a4cbf2f02089,68804125cac3f88b75a27ed8,,,,,,,,,,,,,6,1,,./stim/wavs/castilian_match_interrogative-total-yn_Marta-abre-el-regalo.wav,,,,,,,,,,,,,,,,,,,,,,352.9934,355.243,1,1,1.7261,,0,60,60,5,1,0,castilian,,,,,,,,,,,,,,,,,,,,,,,,,,,,,,,,,,,,,,,,,,,,,,,,,,,,,,,,
,,,,,,,,,595d516e2da9c90001d7d200,mexican,13 or older,"no, only English or Spanish",no,2025-07-22_21h56.54.385,empathy_intonation_perc,2024.2.4,Win32,60.97560976,595d516e2da9c90001d7d200,687ed1b7e638a4cbf2f02089,68804125cac3f88b75a27ed8,,,,,,,,,,,,,80,0,,./stim/wavs/mexican_mismatch_declarative-broad-focus_El-hombre-mira-la-luna.wav,,,,,,,,,,,,,,,,,,,,,,355.2443,357.5146,0,1,1.7415,,0,61,61,79,1,0,mexican,,,,,,,,,,,,,,,,,,,,,,,,,,,,,,,,,,,,,,,,,,,,,,,,,,,,,,,,
,,,,,,,,,595d516e2da9c90001d7d200,mexican,13 or older,"no, only English or Spanish",no,2025-07-22_21h56.54.385,empathy_intonation_perc,2024.2.4,Win32,60.97560976,595d516e2da9c90001d7d200,687ed1b7e638a4cbf2f02089,68804125cac3f88b75a27ed8,,,,,,,,,,,,,19,1,,./stim/wavs/puertorican_match_interrogative-total-yn_Ana-lleva-el-abrigo.wav,,,,,,,,,,,,,,,,,,,,,,357.5159,359.8944,0,0,1.8523,,0,62,62,18,1,1,puertorican,,,,,,,,,,,,,,,,,,,,,,,,,,,,,,,,,,,,,,,,,,,,,,,,,,,,,,,,
,,,,,,,,,595d516e2da9c90001d7d200,mexican,13 or older,"no, only English or Spanish",no,2025-07-22_21h56.54.385,empathy_intonation_perc,2024.2.4,Win32,60.97560976,595d516e2da9c90001d7d200,687ed1b7e638a4cbf2f02089,68804125cac3f88b75a27ed8,,,,,,,,,,,,,64,0,,./stim/wavs/puertorican_match_declarative-broad-focus_Daniel-iba-a-Bolivia.wav,,,,,,,,,,,,,,,,,,,,,,359.8954,362.2624,0,1,1.8372,,0,63,63,63,1,0,puertorican,,,,,,,,,,,,,,,,,,,,,,,,,,,,,,,,,,,,,,,,,,,,,,,,,,,,,,,,
,,,,,,,,,595d516e2da9c90001d7d200,mexican,13 or older,"no, only English or Spanish",no,2025-07-22_21h56.54.385,empathy_intonation_perc,2024.2.4,Win32,60.97560976,595d516e2da9c90001d7d200,687ed1b7e638a4cbf2f02089,68804125cac3f88b75a27ed8,,,,,,,,,,,,,21,1,,./stim/wavs/puertorican_match_interrogative-total-yn_David-leia-el-libro.wav,,,,,,,,,,,,,,,,,,,,,,362.2638,364.4787,1,1,1.6858,,0,64,64,20,1,1,puertorican,,,,,,,,,,,,,,,,,,,,,,,,,,,,,,,,,,,,,,,,,,,,,,,,,,,,,,,,
,,,,,,,,,595d516e2da9c90001d7d200,mexican,13 or older,"no, only English or Spanish",no,2025-07-22_21h56.54.385,empathy_intonation_perc,2024.2.4,Win32,60.97560976,595d516e2da9c90001d7d200,687ed1b7e638a4cbf2f02089,68804125cac3f88b75a27ed8,,,,,,,,,,,,,11,1,,./stim/wavs/cuban_match_interrogative-total-yn_Mariano-habla-del-tiempo.wav,,,,,,,,,,,,,,,,,,,,,,364.4799,366.9968,0,0,1.9916,,0,65,65,10,1,1,cuban,,,,,,,,,,,,,,,,,,,,,,,,,,,,,,,,,,,,,,,,,,,,,,,,,,,,,,,,
,,,,,,,,,595d516e2da9c90001d7d200,mexican,13 or older,"no, only English or Spanish",no,2025-07-22_21h56.54.385,empathy_intonation_perc,2024.2.4,Win32,60.97560976,595d516e2da9c90001d7d200,687ed1b7e638a4cbf2f02089,68804125cac3f88b75a27ed8,,,,,,,,,,,,,8,1,,./stim/wavs/cuban_match_interrogative-total-yn_Daniel-iba-a-Bolivia.wav,,,,,,,,,,,,,,,,,,,,,,366.9982,369.3694,0,0,1.8474,,0,66,66,7,1,1,cuban,,,,,,,,,,,,,,,,,,,,,,,,,,,,,,,,,,,,,,,,,,,,,,,,,,,,,,,,
,,,,,,,,,595d516e2da9c90001d7d200,mexican,13 or older,"no, only English or Spanish",no,2025-07-22_21h56.54.385,empathy_intonation_perc,2024.2.4,Win32,60.97560976,595d516e2da9c90001d7d200,687ed1b7e638a4cbf2f02089,68804125cac3f88b75a27ed8,,,,,,,,,,,,,47,0,,./stim/wavs/castilian_match_declarative-broad-focus_Manuela-vende-el-carro.wav,,,,,,,,,,,,,,,,,,,,,,369.3705,371.9816,0,1,2.0867,,0,67,67,46,1,0,castilian,,,,,,,,,,,,,,,,,,,,,,,,,,,,,,,,,,,,,,,,,,,,,,,,,,,,,,,,
,,,,,,,,,595d516e2da9c90001d7d200,mexican,13 or older,"no, only English or Spanish",no,2025-07-22_21h56.54.385,empathy_intonation_perc,2024.2.4,Win32,60.97560976,595d516e2da9c90001d7d200,687ed1b7e638a4cbf2f02089,68804125cac3f88b75a27ed8,,,,,,,,,,,,,13,1,,./stim/wavs/mexican_match_interrogative-total-yn_Ana-lleva-el-abrigo.wav,,,,,,,,,,,,,,,,,,,,,,371.9828,374.2158,1,1,1.7032,,0,68,68,12,1,0,mexican,,,,,,,,,,,,,,,,,,,,,,,,,,,,,,,,,,,,,,,,,,,,,,,,,,,,,,,,
,,,,,,,,,595d516e2da9c90001d7d200,mexican,13 or older,"no, only English or Spanish",no,2025-07-22_21h56.54.385,empathy_intonation_perc,2024.2.4,Win32,60.97560976,595d516e2da9c90001d7d200,687ed1b7e638a4cbf2f02089,68804125cac3f88b75a27ed8,,,,,,,,,,,,,51,0,,./stim/wavs/cuban_match_declarative-broad-focus_Ana-lleva-el-abrigo.wav,,,,,,,,,,,,,,,,,,,,,,374.2171,376.4665,0,1,1.7316,,0,69,69,50,1,0,cuban,,,,,,,,,,,,,,,,,,,,,,,,,,,,,,,,,,,,,,,,,,,,,,,,,,,,,,,,
,,,,,,,,,595d516e2da9c90001d7d200,mexican,13 or older,"no, only English or Spanish",no,2025-07-22_21h56.54.385,empathy_intonation_perc,2024.2.4,Win32,60.97560976,595d516e2da9c90001d7d200,687ed1b7e638a4cbf2f02089,68804125cac3f88b75a27ed8,,,,,,,,,,,,,50,0,,./stim/wavs/castilian_match_declarative-broad-focus_Marta-abre-el-regalo.wav,,,,,,,,,,,,,,,,,,,,,,376.4676,379.601,0,1,2.6052,,0,70,70,49,1,0,castilian,,,,,,,,,,,,,,,,,,,,,,,,,,,,,,,,,,,,,,,,,,,,,,,,,,,,,,,,
,,,,,,,,,595d516e2da9c90001d7d200,mexican,13 or older,"no, only English or Spanish",no,2025-07-22_21h56.54.385,empathy_intonation_perc,2024.2.4,Win32,60.97560976,595d516e2da9c90001d7d200,687ed1b7e638a4cbf2f02089,68804125cac3f88b75a27ed8,,,,,,,,,,,,,41,1,,./stim/wavs/puertorican_mismatch_interrogative-total-yn_El-nino-oye-el-rio.wav,,,,,,,,,,,,,,,,,,,,,,379.6023,382.2607,1,1,2.1345,,0,71,71,40,1,1,puertorican,,,,,,,,,,,,,,,,,,,,,,,,,,,,,,,,,,,,,,,,,,,,,,,,,,,,,,,,
,,,,,,,,,595d516e2da9c90001d7d200,mexican,13 or older,"no, only English or Spanish",no,2025-07-22_21h56.54.385,empathy_intonation_perc,2024.2.4,Win32,60.97560976,595d516e2da9c90001d7d200,687ed1b7e638a4cbf2f02089,68804125cac3f88b75a27ed8,,,,,,,,,,,,,18,1,,./stim/wavs/mexican_match_interrogative-total-yn_Marta-abre-el-regalo.wav,,,,,,,,,,,,,,,,,,,,,,382.2619,384.7532,1,1,1.975,,0,72,72,17,1,0,mexican,,,,,,,,,,,,,,,,,,,,,,,,,,,,,,,,,,,,,,,,,,,,,,,,,,,,,,,,
,,,,,,,,,595d516e2da9c90001d7d200,mexican,13 or older,"no, only English or Spanish",no,2025-07-22_21h56.54.385,empathy_intonation_perc,2024.2.4,Win32,60.97560976,595d516e2da9c90001d7d200,687ed1b7e638a4cbf2f02089,68804125cac3f88b75a27ed8,,,,,,,,,,,,,44,1,,./stim/wavs/puertorican_mismatch_interrogative-total-yn_Mi-madre-come-la-fruta.wav,,,,,,,,,,,,,,,,,,,,,,384.754,386.9112,1,1,1.633,,0,73,73,43,1,1,puertorican,,,,,,,,,,,,,,,,,,,,,,,,,,,,,,,,,,,,,,,,,,,,,,,,,,,,,,,,
,,,,,,,,,595d516e2da9c90001d7d200,mexican,13 or older,"no, only English or Spanish",no,2025-07-22_21h56.54.385,empathy_intonation_perc,2024.2.4,Win32,60.97560976,595d516e2da9c90001d7d200,687ed1b7e638a4cbf2f02089,68804125cac3f88b75a27ed8,,,,,,,,,,,,,24,1,,./stim/wavs/puertorican_match_interrogative-total-yn_Maria-bebe-el-vino.wav,,,,,,,,,,,,,,,,,,,,,,386.9122,389.2384,1,1,1.8044,,0,74,74,23,1,1,puertorican,,,,,,,,,,,,,,,,,,,,,,,,,,,,,,,,,,,,,,,,,,,,,,,,,,,,,,,,
,,,,,,,,,595d516e2da9c90001d7d200,mexican,13 or older,"no, only English or Spanish",no,2025-07-22_21h56.54.385,empathy_intonation_perc,2024.2.4,Win32,60.97560976,595d516e2da9c90001d7d200,687ed1b7e638a4cbf2f02089,68804125cac3f88b75a27ed8,,,,,,,,,,,,,34,1,,./stim/wavs/cuban_mismatch_interrogative-total-yn_Mi-tia-odia-la-lluvia.wav,,,,,,,,,,,,,,,,,,,,,,389.2396,391.4391,0,0,1.6699,,0,75,75,33,1,1,cuban,,,,,,,,,,,,,,,,,,,,,,,,,,,,,,,,,,,,,,,,,,,,,,,,,,,,,,,,
,,,,,,,,,595d516e2da9c90001d7d200,mexican,13 or older,"no, only English or Spanish",no,2025-07-22_21h56.54.385,empathy_intonation_perc,2024.2.4,Win32,60.97560976,595d516e2da9c90001d7d200,687ed1b7e638a4cbf2f02089,68804125cac3f88b75a27ed8,,,,,,,,,,,,,77,0,,./stim/wavs/cuban_mismatch_declarative-broad-focus_Mi-novio-viene-del-lago.wav,,,,,,,,,,,,,,,,,,,,,,391.4401,393.7899,0,1,1.8178,,0,76,76,76,1,0,cuban,,,,,,,,,,,,,,,,,,,,,,,,,,,,,,,,,,,,,,,,,,,,,,,,,,,,,,,,
,,,,,,,,,595d516e2da9c90001d7d200,mexican,13 or older,"no, only English or Spanish",no,2025-07-22_21h56.54.385,empathy_intonation_perc,2024.2.4,Win32,60.97560976,595d516e2da9c90001d7d200,687ed1b7e638a4cbf2f02089,68804125cac3f88b75a27ed8,,,,,,,,,,,,,4,1,,./stim/wavs/castilian_match_interrogative-total-yn_Maria-bebe-el-vino.wav,,,,,,,,,,,,,,,,,,,,,,393.7909,396.124,1,1,1.8019,,0,77,77,3,1,0,castilian,,,,,,,,,,,,,,,,,,,,,,,,,,,,,,,,,,,,,,,,,,,,,,,,,,,,,,,,
,,,,,,,,,595d516e2da9c90001d7d200,mexican,13 or older,"no, only English or Spanish",no,2025-07-22_21h56.54.385,empathy_intonation_perc,2024.2.4,Win32,60.97560976,595d516e2da9c90001d7d200,687ed1b7e638a4cbf2f02089,68804125cac3f88b75a27ed8,,,,,,,,,,,,,39,1,,./stim/wavs/mexican_mismatch_interrogative-total-yn_Mi-tia-odia-la-lluvia.wav,,,,,,,,,,,,,,,,,,,,,,396.1251,398.258,1,1,1.6163,,0,78,78,38,1,0,mexican,,,,,,,,,,,,,,,,,,,,,,,,,,,,,,,,,,,,,,,,,,,,,,,,,,,,,,,,
,,,,,,,,,595d516e2da9c90001d7d200,mexican,13 or older,"no, only English or Spanish",no,2025-07-22_21h56.54.385,empathy_intonation_perc,2024.2.4,Win32,60.97560976,595d516e2da9c90001d7d200,687ed1b7e638a4cbf2f02089,68804125cac3f88b75a27ed8,,,,,,,,,,,,,73,0,,./stim/wavs/castilian_mismatch_declarative-broad-focus_Mi-tia-odia-la-lluvia.wav,,,,,,,,,,,,,,,,,,,,,,398.2593,400.3925,1,0,1.6148,,0,79,79,72,1,0,castilian,,,,,,,,,,,,,,,,,,,,,,,,,,,,,,,,,,,,,,,,,,,,,,,,,,,,,,,,
,,,,,,,,,595d516e2da9c90001d7d200,mexican,13 or older,"no, only English or Spanish",no,2025-07-22_21h56.54.385,empathy_intonation_perc,2024.2.4,Win32,60.97560976,595d516e2da9c90001d7d200,687ed1b7e638a4cbf2f02089,68804125cac3f88b75a27ed8,,,,,,,,,,,,,88,0,,./stim/wavs/puertorican_mismatch_declarative-broad-focus_La-nina-lava-el-plato.wav,,,,,,,,,,,,,,,,,,,,,,400.3936,402.7855,0,1,1.8678,,0,80,80,87,1,0,puertorican,,,,,,,,,,,,,,,,,,,,,,,,,,,,,,,,,,,,,,,,,,,,,,,,,,,,,,,,
,,,,,,,,,595d516e2da9c90001d7d200,mexican,13 or older,"no, only English or Spanish",no,2025-07-22_21h56.54.385,empathy_intonation_perc,2024.2.4,Win32,60.97560976,595d516e2da9c90001d7d200,687ed1b7e638a4cbf2f02089,68804125cac3f88b75a27ed8,,,,,,,,,,,,,86,0,,./stim/wavs/puertorican_mismatch_declarative-broad-focus_El-nino-oye-el-rio.wav,,,,,,,,,,,,,,,,,,,,,,402.7863,405.253,0,1,1.9512,,0,81,81,85,1,0,puertorican,,,,,,,,,,,,,,,,,,,,,,,,,,,,,,,,,,,,,,,,,,,,,,,,,,,,,,,,
,,,,,,,,,595d516e2da9c90001d7d200,mexican,13 or older,"no, only English or Spanish",no,2025-07-22_21h56.54.385,empathy_intonation_perc,2024.2.4,Win32,60.97560976,595d516e2da9c90001d7d200,687ed1b7e638a4cbf2f02089,68804125cac3f88b75a27ed8,,,,,,,,,,,,,54,0,,./stim/wavs/cuban_match_declarative-broad-focus_Maria-bebe-el-vino.wav,,,,,,,,,,,,,,,,,,,,,,405.2538,407.5283,0,1,1.7537,,0,82,82,53,1,0,cuban,,,,,,,,,,,,,,,,,,,,,,,,,,,,,,,,,,,,,,,,,,,,,,,,,,,,,,,,
,,,,,,,,,595d516e2da9c90001d7d200,mexican,13 or older,"no, only English or Spanish",no,2025-07-22_21h56.54.385,empathy_intonation_perc,2024.2.4,Win32,60.97560976,595d516e2da9c90001d7d200,687ed1b7e638a4cbf2f02089,68804125cac3f88b75a27ed8,,,,,,,,,,,,,68,0,,./stim/wavs/puertorican_match_declarative-broad-focus_Maria-bebe-el-vino.wav,,,,,,,,,,,,,,,,,,,,,,407.5294,410.0124,1,0,1.9556,,0,83,83,67,1,0,puertorican,,,,,,,,,,,,,,,,,,,,,,,,,,,,,,,,,,,,,,,,,,,,,,,,,,,,,,,,
,,,,,,,,,595d516e2da9c90001d7d200,mexican,13 or older,"no, only English or Spanish",no,2025-07-22_21h56.54.385,empathy_intonation_perc,2024.2.4,Win32,60.97560976,595d516e2da9c90001d7d200,687ed1b7e638a4cbf2f02089,68804125cac3f88b75a27ed8,,,,,,,,,,,,,1,1,,./stim/wavs/castilian_match_interrogative-total-yn_David-leia-el-libro.wav,,,,,,,,,,,,,,,,,,,,,,410.0136,412.28,1,1,1.7345,,0,84,84,0,1,0,castilian,,,,,,,,,,,,,,,,,,,,,,,,,,,,,,,,,,,,,,,,,,,,,,,,,,,,,,,,
,,,,,,,,,595d516e2da9c90001d7d200,mexican,13 or older,"no, only English or Spanish",no,2025-07-22_21h56.54.385,empathy_intonation_perc,2024.2.4,Win32,60.97560976,595d516e2da9c90001d7d200,687ed1b7e638a4cbf2f02089,68804125cac3f88b75a27ed8,,,,,,,,,,,,,70,0,,./stim/wavs/castilian_mismatch_declarative-broad-focus_La-maestra-vive-en-Paris.wav,,,,,,,,,,,,,,,,,,,,,,412.281,414.8336,0,1,2.025,,0,85,85,69,1,0,castilian,,,,,,,,,,,,,,,,,,,,,,,,,,,,,,,,,,,,,,,,,,,,,,,,,,,,,,,,
,,,,,,,,,595d516e2da9c90001d7d200,mexican,13 or older,"no, only English or Spanish",no,2025-07-22_21h56.54.385,empathy_intonation_perc,2024.2.4,Win32,60.97560976,595d516e2da9c90001d7d200,687ed1b7e638a4cbf2f02089,68804125cac3f88b75a27ed8,,,,,,,,,,,,,33,1,,./stim/wavs/cuban_mismatch_interrogative-total-yn_Mi-novio-viene-del-lago.wav,,,,,,,,,,,,,,,,,,,,,,414.8347,417.3989,0,0,2.0374,,0,86,86,32,1,1,cuban,,,,,,,,,,,,,,,,,,,,,,,,,,,,,,,,,,,,,,,,,,,,,,,,,,,,,,,,
,,,,,,,,,595d516e2da9c90001d7d200,mexican,13 or older,"no, only English or Spanish",no,2025-07-22_21h56.54.385,empathy_intonation_perc,2024.2.4,Win32,60.97560976,595d516e2da9c90001d7d200,687ed1b7e638a4cbf2f02089,68804125cac3f88b75a27ed8,,,,,,,,,,,,,72,0,,./stim/wavs/castilian_mismatch_declarative-broad-focus_Mi-novio-viene-del-lago.wav,,,,,,,,,,,,,,,,,,,,,,417.4,419.6662,0,1,1.7425,,0,87,87,71,1,0,castilian,,,,,,,,,,,,,,,,,,,,,,,,,,,,,,,,,,,,,,,,,,,,,,,,,,,,,,,,
,,,,,,,"Great! Now we will move on. The next task consists of about 60 trials, in each of which you will see a string of letters. 
  
  Your task is to decide whether this is a real Spanish word or not.", (press the spacebar to continue),595d516e2da9c90001d7d200,mexican,13 or older,"no, only English or Spanish",no,2025-07-22_21h56.54.385,empathy_intonation_perc,2024.2.4,Win32,60.97560976,595d516e2da9c90001d7d200,687ed1b7e638a4cbf2f02089,68804125cac3f88b75a27ed8,,,,,,,,,,,,,,,,,,,,,,,,,,,,,,,,,,,,,,,,,,,,,,,,,,,419.6772,425.6857,0,0,0,0,1,,,,,,,,,,,,,,,,,,,,,,,,,,,,,,,,,,,,,,,,,,,,,,,,,
,,,,,,,"If you think it is an existing Spanish word, you type '1' (for 'REAL'), and if you think it is not an existing Spanish word, you type '0' (for 'FAKE').", (press the spacebar to continue),595d516e2da9c90001d7d200,mexican,13 or older,"no, only English or Spanish",no,2025-07-22_21h56.54.385,empathy_intonation_perc,2024.2.4,Win32,60.97560976,595d516e2da9c90001d7d200,687ed1b7e638a4cbf2f02089,68804125cac3f88b75a27ed8,,,,,,,,,,,,,,,,,,,,,,,,,,,,,,,,,,,,,,,,,,,,,,,,,,,425.6898,433.8802,0,1,1,1,1,,,,,,,,,,,,,,,,,,,,,,,,,,,,,,,,,,,,,,,,,,,,,,,,,
,,,,,,,"If you are sure that the word exists, even though you don’t know its exact meaning, you may still respond '1' (REAL). 
  
  But if you are not sure if it is an existing word, you should respond '0' (FAKE).
  
  Let's do a practice round...", (press the spacebar to continue),595d516e2da9c90001d7d200,mexican,13 or older,"no, only English or Spanish",no,2025-07-22_21h56.54.385,empathy_intonation_perc,2024.2.4,Win32,60.97560976,595d516e2da9c90001d7d200,687ed1b7e638a4cbf2f02089,68804125cac3f88b75a27ed8,,,,,,,,,,,,,,,,,,,,,,,,,,,,,,,,,,,,,,,,,,,,,,,,,,,433.8834,440.4075,0,2,2,2,1,,,,,,,,,,,,,,,,,,,,,,,,,,,,,,,,,,,,,,,,,,,,,,,,,
,,,,,,,,,595d516e2da9c90001d7d200,mexican,13 or older,"no, only English or Spanish",no,2025-07-22_21h56.54.385,empathy_intonation_perc,2024.2.4,Win32,60.97560976,595d516e2da9c90001d7d200,687ed1b7e638a4cbf2f02089,68804125cac3f88b75a27ed8,,,,,,,,,,,,,,0,,,,,,,,,,,,,,,,,,,,,,,,,,,,,,,,,,,,,,,,,,,,440.417,442.1918,0,1,1.2344,,442.1923,443.1919,0,0,0,0,1,0,depiste,REAL,FAKE,,,,,,,,,,,,,,,,,,,,,,,,,,,,,,,,
,,,,,,,,,595d516e2da9c90001d7d200,mexican,13 or older,"no, only English or Spanish",no,2025-07-22_21h56.54.385,empathy_intonation_perc,2024.2.4,Win32,60.97560976,595d516e2da9c90001d7d200,687ed1b7e638a4cbf2f02089,68804125cac3f88b75a27ed8,,,,,,,,,,,,,,1,,,,,,,,,,,,,,,,,,,,,,,,,,,,,,,,,,,,,,,,,,,,443.2003,444.4254,1,1,0.6911,,444.4256,445.4168,0,1,1,1,1,0,sí,REAL,FAKE,,,,,,,,,,,,,,,,,,,,,,,,,,,,,,,,
,,,,,,,,,595d516e2da9c90001d7d200,mexican,13 or older,"no, only English or Spanish",no,2025-07-22_21h56.54.385,empathy_intonation_perc,2024.2.4,Win32,60.97560976,595d516e2da9c90001d7d200,687ed1b7e638a4cbf2f02089,68804125cac3f88b75a27ed8,,,,,,,,,,,,,,0,,,,,,,,,,,,,,,,,,,,,,,,,,,,,,,,,,,,,,,,,,,,445.4193,446.8431,1,0,0.8852,,446.8455,447.8437,0,2,2,2,1,0,coné,REAL,FAKE,,,,,,,,,,,,,,,,,,,,,,,,,,,,,,,,
,,,,,,,,,595d516e2da9c90001d7d200,mexican,13 or older,"no, only English or Spanish",no,2025-07-22_21h56.54.385,empathy_intonation_perc,2024.2.4,Win32,60.97560976,595d516e2da9c90001d7d200,687ed1b7e638a4cbf2f02089,68804125cac3f88b75a27ed8,,,,,,,,,,,,,,0,,,,,,,,,,,,,,,,,,,,,,,,,,,,,,,,,,,,,,,,,,,,447.8455,449.4606,1,0,1.0745,,449.4608,450.4611,0,3,3,3,1,0,calpar,REAL,FAKE,,,,,,,,,,,,,,,,,,,,,,,,,,,,,,,,
,,,,,,,,,595d516e2da9c90001d7d200,mexican,13 or older,"no, only English or Spanish",no,2025-07-22_21h56.54.385,empathy_intonation_perc,2024.2.4,Win32,60.97560976,595d516e2da9c90001d7d200,687ed1b7e638a4cbf2f02089,68804125cac3f88b75a27ed8,,,,,,,,,,,,,,0,,,,,,,,,,,,,,,,,,,,,,,,,,,,,,,,,,,,,,,,,,,,450.4634,451.6948,0,1,0.6858,,451.696,452.6952,0,4,4,4,1,0,joten,REAL,FAKE,,,,,,,,,,,,,,,,,,,,,,,,,,,,,,,,
,,,,,,,,,595d516e2da9c90001d7d200,mexican,13 or older,"no, only English or Spanish",no,2025-07-22_21h56.54.385,empathy_intonation_perc,2024.2.4,Win32,60.97560976,595d516e2da9c90001d7d200,687ed1b7e638a4cbf2f02089,68804125cac3f88b75a27ed8,,,,,,,,,,,,,,1,,,,,,,,,,,,,,,,,,,,,,,,,,,,,,,,,,,,,,,,,,,,452.697,453.7122,0,0,0.468,,453.7137,454.7127,0,5,5,5,1,0,sacapuntas,REAL,FAKE,,,,,,,,,,,,,,,,,,,,,,,,,,,,,,,,
,,,,,,,,,595d516e2da9c90001d7d200,mexican,13 or older,"no, only English or Spanish",no,2025-07-22_21h56.54.385,empathy_intonation_perc,2024.2.4,Win32,60.97560976,595d516e2da9c90001d7d200,687ed1b7e638a4cbf2f02089,68804125cac3f88b75a27ed8,,,,,,,,,,,,,,0,,,,,,,,,,,,,,,,,,,,,,,,,,,,,,,,,,,,,,,,,,,,454.7152,455.7628,0,1,0.5056,,455.764,456.7638,0,6,6,6,1,0,priba,REAL,FAKE,,,,,,,,,,,,,,,,,,,,,,,,,,,,,,,,
,,,,,,,,,595d516e2da9c90001d7d200,mexican,13 or older,"no, only English or Spanish",no,2025-07-22_21h56.54.385,empathy_intonation_perc,2024.2.4,Win32,60.97560976,595d516e2da9c90001d7d200,687ed1b7e638a4cbf2f02089,68804125cac3f88b75a27ed8,,,,,,,,,,,,,,0,,,,,,,,,,,,,,,,,,,,,,,,,,,,,,,,,,,,,,,,,,,,456.7656,457.8639,0,1,0.5523,,457.864,458.864,0,7,7,7,1,0,pelasula,REAL,FAKE,,,,,,,,,,,,,,,,,,,,,,,,,,,,,,,,
,,,,,,,,,595d516e2da9c90001d7d200,mexican,13 or older,"no, only English or Spanish",no,2025-07-22_21h56.54.385,empathy_intonation_perc,2024.2.4,Win32,60.97560976,595d516e2da9c90001d7d200,687ed1b7e638a4cbf2f02089,68804125cac3f88b75a27ed8,,,,,,,,,,,,,,1,,,,,,,,,,,,,,,,,,,,,,,,,,,,,,,,,,,,,,,,,,,,458.8662,460.0816,1,1,0.6689,,460.0816,461.0818,0,8,8,8,1,0,bien,REAL,FAKE,,,,,,,,,,,,,,,,,,,,,,,,,,,,,,,,
,,,,,,,,,595d516e2da9c90001d7d200,mexican,13 or older,"no, only English or Spanish",no,2025-07-22_21h56.54.385,empathy_intonation_perc,2024.2.4,Win32,60.97560976,595d516e2da9c90001d7d200,687ed1b7e638a4cbf2f02089,68804125cac3f88b75a27ed8,,,,,,,,,,,,,,1,,,,,,,,,,,,,,,,,,,,,,,,,,,,,,,,,,,,,,,,,,,,461.0838,462.349,1,1,0.718,,462.3491,463.3494,0,9,9,9,1,0,casa,REAL,FAKE,,,,,,,,,,,,,,,,,,,,,,,,,,,,,,,,
,,,,,,,,,595d516e2da9c90001d7d200,mexican,13 or older,"no, only English or Spanish",no,2025-07-22_21h56.54.385,empathy_intonation_perc,2024.2.4,Win32,60.97560976,595d516e2da9c90001d7d200,687ed1b7e638a4cbf2f02089,68804125cac3f88b75a27ed8,,,,,,,,,,,,,,0,,,,,,,,,,,,,,,,,,,,,,,,,,,,,,,,,,,,,,,,,,,,463.3513,464.933,1,0,1.0342,,464.9343,465.9334,0,10,10,10,1,0,lejo,REAL,FAKE,,,,,,,,,,,,,,,,,,,,,,,,,,,,,,,,
,,,,,,,,,595d516e2da9c90001d7d200,mexican,13 or older,"no, only English or Spanish",no,2025-07-22_21h56.54.385,empathy_intonation_perc,2024.2.4,Win32,60.97560976,595d516e2da9c90001d7d200,687ed1b7e638a4cbf2f02089,68804125cac3f88b75a27ed8,,,,,,,,,,,,,,0,,,,,,,,,,,,,,,,,,,,,,,,,,,,,,,,,,,,,,,,,,,,465.9354,467.5672,0,1,1.0912,,467.5685,468.5679,0,11,11,11,1,0,pretantas,REAL,FAKE,,,,,,,,,,,,,,,,,,,,,,,,,,,,,,,,
,,,,,,,,,595d516e2da9c90001d7d200,mexican,13 or older,"no, only English or Spanish",no,2025-07-22_21h56.54.385,empathy_intonation_perc,2024.2.4,Win32,60.97560976,595d516e2da9c90001d7d200,687ed1b7e638a4cbf2f02089,68804125cac3f88b75a27ed8,,,,,,,,,,,,,,,,,,,,,,,,,,,,,,,,,,,,,,,,,,,,,,,,,,,,,,,,,,,,,,,,,,,,,,,,,,,468.5684,470.6024,,,,,,,,,,,,,,,,,,,,,,,,,,,,,,
,,,,,,,,,595d516e2da9c90001d7d200,mexican,13 or older,"no, only English or Spanish",no,2025-07-22_21h56.54.385,empathy_intonation_perc,2024.2.4,Win32,60.97560976,595d516e2da9c90001d7d200,687ed1b7e638a4cbf2f02089,68804125cac3f88b75a27ed8,,,,,,,,,,,,,,0,,,,,,,,,,,,,,,,,,,,,,,,,,,,,,,,,,,,,,,,,,,,,,,,,,,,,,,,,10,antar,,,,,470.6186,472.0529,1,0,0.9011,,0,0,0,9,1,REAL,FAKE,,,,,,,,,,,,,,,,,
,,,,,,,,,595d516e2da9c90001d7d200,mexican,13 or older,"no, only English or Spanish",no,2025-07-22_21h56.54.385,empathy_intonation_perc,2024.2.4,Win32,60.97560976,595d516e2da9c90001d7d200,687ed1b7e638a4cbf2f02089,68804125cac3f88b75a27ed8,,,,,,,,,,,,,,1,,,,,,,,,,,,,,,,,,,,,,,,,,,,,,,,,,,,,,,,,,,,,,,,,,,,,,,,,90,clavel,,,,,472.0556,473.2193,0,0,0.6236,,0,1,1,89,1,REAL,FAKE,,,,,,,,,,,,,,,,,
,,,,,,,,,595d516e2da9c90001d7d200,mexican,13 or older,"no, only English or Spanish",no,2025-07-22_21h56.54.385,empathy_intonation_perc,2024.2.4,Win32,60.97560976,595d516e2da9c90001d7d200,687ed1b7e638a4cbf2f02089,68804125cac3f88b75a27ed8,,,,,,,,,,,,,,1,,,,,,,,,,,,,,,,,,,,,,,,,,,,,,,,,,,,,,,,,,,,,,,,,,,,,,,,,77,tiburón,,,,,473.222,474.52,0,0,0.7518,,0,2,2,76,1,REAL,FAKE,,,,,,,,,,,,,,,,,
,,,,,,,,,595d516e2da9c90001d7d200,mexican,13 or older,"no, only English or Spanish",no,2025-07-22_21h56.54.385,empathy_intonation_perc,2024.2.4,Win32,60.97560976,595d516e2da9c90001d7d200,687ed1b7e638a4cbf2f02089,68804125cac3f88b75a27ed8,,,,,,,,,,,,,,1,,,,,,,,,,,,,,,,,,,,,,,,,,,,,,,,,,,,,,,,,,,,,,,,,,,,,,,,,43,canela,,,,,474.5218,475.8208,1,1,0.751,,0,3,3,42,1,REAL,FAKE,,,,,,,,,,,,,,,,,
,,,,,,,,,595d516e2da9c90001d7d200,mexican,13 or older,"no, only English or Spanish",no,2025-07-22_21h56.54.385,empathy_intonation_perc,2024.2.4,Win32,60.97560976,595d516e2da9c90001d7d200,687ed1b7e638a4cbf2f02089,68804125cac3f88b75a27ed8,,,,,,,,,,,,,,0,,,,,,,,,,,,,,,,,,,,,,,,,,,,,,,,,,,,,,,,,,,,,,,,,,,,,,,,,53,vegada,,,,,475.8226,477.2208,0,1,0.8724,,0,4,4,52,1,REAL,FAKE,,,,,,,,,,,,,,,,,
,,,,,,,,,595d516e2da9c90001d7d200,mexican,13 or older,"no, only English or Spanish",no,2025-07-22_21h56.54.385,empathy_intonation_perc,2024.2.4,Win32,60.97560976,595d516e2da9c90001d7d200,687ed1b7e638a4cbf2f02089,68804125cac3f88b75a27ed8,,,,,,,,,,,,,,1,,,,,,,,,,,,,,,,,,,,,,,,,,,,,,,,,,,,,,,,,,,,,,,,,,,,,,,,,76,atar,,,,,477.2227,478.388,0,0,0.6209,,0,5,5,75,1,REAL,FAKE,,,,,,,,,,,,,,,,,
,,,,,,,,,595d516e2da9c90001d7d200,mexican,13 or older,"no, only English or Spanish",no,2025-07-22_21h56.54.385,empathy_intonation_perc,2024.2.4,Win32,60.97560976,595d516e2da9c90001d7d200,687ed1b7e638a4cbf2f02089,68804125cac3f88b75a27ed8,,,,,,,,,,,,,,0,,,,,,,,,,,,,,,,,,,,,,,,,,,,,,,,,,,,,,,,,,,,,,,,,,,,,,,,,17,floroso,,,,,478.39,479.8388,0,1,0.9009,,0,6,6,16,1,REAL,FAKE,,,,,,,,,,,,,,,,,
,,,,,,,,,595d516e2da9c90001d7d200,mexican,13 or older,"no, only English or Spanish",no,2025-07-22_21h56.54.385,empathy_intonation_perc,2024.2.4,Win32,60.97560976,595d516e2da9c90001d7d200,687ed1b7e638a4cbf2f02089,68804125cac3f88b75a27ed8,,,,,,,,,,,,,,1,,,,,,,,,,,,,,,,,,,,,,,,,,,,,,,,,,,,,,,,,,,,,,,,,,,,,,,,,83,guante,,,,,479.8406,481.0556,0,0,0.6702,,0,7,7,82,1,REAL,FAKE,,,,,,,,,,,,,,,,,
,,,,,,,,,595d516e2da9c90001d7d200,mexican,13 or older,"no, only English or Spanish",no,2025-07-22_21h56.54.385,empathy_intonation_perc,2024.2.4,Win32,60.97560976,595d516e2da9c90001d7d200,687ed1b7e638a4cbf2f02089,68804125cac3f88b75a27ed8,,,,,,,,,,,,,,0,,,,,,,,,,,,,,,,,,,,,,,,,,,,,,,,,,,,,,,,,,,,,,,,,,,,,,,,,23,lampera,,,,,481.0575,482.5065,1,0,0.9055,,0,8,8,22,1,REAL,FAKE,,,,,,,,,,,,,,,,,
,,,,,,,,,595d516e2da9c90001d7d200,mexican,13 or older,"no, only English or Spanish",no,2025-07-22_21h56.54.385,empathy_intonation_perc,2024.2.4,Win32,60.97560976,595d516e2da9c90001d7d200,687ed1b7e638a4cbf2f02089,68804125cac3f88b75a27ed8,,,,,,,,,,,,,,1,,,,,,,,,,,,,,,,,,,,,,,,,,,,,,,,,,,,,,,,,,,,,,,,,,,,,,,,,38,estornudar,,,,,482.5083,483.7739,0,0,0.7182,,0,9,9,37,1,REAL,FAKE,,,,,,,,,,,,,,,,,
,,,,,,,,,595d516e2da9c90001d7d200,mexican,13 or older,"no, only English or Spanish",no,2025-07-22_21h56.54.385,empathy_intonation_perc,2024.2.4,Win32,60.97560976,595d516e2da9c90001d7d200,687ed1b7e638a4cbf2f02089,68804125cac3f88b75a27ed8,,,,,,,,,,,,,,1,,,,,,,,,,,,,,,,,,,,,,,,,,,,,,,,,,,,,,,,,,,,,,,,,,,,,,,,,26,secuestro,,,,,483.7757,485.0404,0,0,0.7224,,0,10,10,25,1,REAL,FAKE,,,,,,,,,,,,,,,,,
,,,,,,,,,595d516e2da9c90001d7d200,mexican,13 or older,"no, only English or Spanish",no,2025-07-22_21h56.54.385,empathy_intonation_perc,2024.2.4,Win32,60.97560976,595d516e2da9c90001d7d200,687ed1b7e638a4cbf2f02089,68804125cac3f88b75a27ed8,,,,,,,,,,,,,,1,,,,,,,,,,,,,,,,,,,,,,,,,,,,,,,,,,,,,,,,,,,,,,,,,,,,,,,,,61,seda,,,,,485.0422,486.3412,0,0,0.7564,,0,11,11,60,1,REAL,FAKE,,,,,,,,,,,,,,,,,
,,,,,,,,,595d516e2da9c90001d7d200,mexican,13 or older,"no, only English or Spanish",no,2025-07-22_21h56.54.385,empathy_intonation_perc,2024.2.4,Win32,60.97560976,595d516e2da9c90001d7d200,687ed1b7e638a4cbf2f02089,68804125cac3f88b75a27ed8,,,,,,,,,,,,,,1,,,,,,,,,,,,,,,,,,,,,,,,,,,,,,,,,,,,,,,,,,,,,,,,,,,,,,,,,69,engatusar,,,,,486.3433,487.7082,0,0,0.8178,,0,12,12,68,1,REAL,FAKE,,,,,,,,,,,,,,,,,
,,,,,,,,,595d516e2da9c90001d7d200,mexican,13 or older,"no, only English or Spanish",no,2025-07-22_21h56.54.385,empathy_intonation_perc,2024.2.4,Win32,60.97560976,595d516e2da9c90001d7d200,687ed1b7e638a4cbf2f02089,68804125cac3f88b75a27ed8,,,,,,,,,,,,,,0,,,,,,,,,,,,,,,,,,,,,,,,,,,,,,,,,,,,,,,,,,,,,,,,,,,,,,,,,16,abracer,,,,,487.7103,489.0089,1,0,0.7551,,0,13,13,15,1,REAL,FAKE,,,,,,,,,,,,,,,,,
,,,,,,,,,595d516e2da9c90001d7d200,mexican,13 or older,"no, only English or Spanish",no,2025-07-22_21h56.54.385,empathy_intonation_perc,2024.2.4,Win32,60.97560976,595d516e2da9c90001d7d200,687ed1b7e638a4cbf2f02089,68804125cac3f88b75a27ed8,,,,,,,,,,,,,,0,,,,,,,,,,,,,,,,,,,,,,,,,,,,,,,,,,,,,,,,,,,,,,,,,,,,,,,,,27,acutación,,,,,489.0111,490.4592,0,1,0.9013,,0,14,14,26,1,REAL,FAKE,,,,,,,,,,,,,,,,,
,,,,,,,,,595d516e2da9c90001d7d200,mexican,13 or older,"no, only English or Spanish",no,2025-07-22_21h56.54.385,empathy_intonation_perc,2024.2.4,Win32,60.97560976,595d516e2da9c90001d7d200,687ed1b7e638a4cbf2f02089,68804125cac3f88b75a27ed8,,,,,,,,,,,,,,0,,,,,,,,,,,,,,,,,,,,,,,,,,,,,,,,,,,,,,,,,,,,,,,,,,,,,,,,,21,capillo,,,,,490.461,491.7433,0,1,0.7342,,0,15,15,20,1,REAL,FAKE,,,,,,,,,,,,,,,,,
,,,,,,,,,595d516e2da9c90001d7d200,mexican,13 or older,"no, only English or Spanish",no,2025-07-22_21h56.54.385,empathy_intonation_perc,2024.2.4,Win32,60.97560976,595d516e2da9c90001d7d200,687ed1b7e638a4cbf2f02089,68804125cac3f88b75a27ed8,,,,,,,,,,,,,,1,,,,,,,,,,,,,,,,,,,,,,,,,,,,,,,,,,,,,,,,,,,,,,,,,,,,,,,,,11,cenefa,,,,,491.7451,493.0434,0,0,0.7577,,0,16,16,10,1,REAL,FAKE,,,,,,,,,,,,,,,,,
,,,,,,,,,595d516e2da9c90001d7d200,mexican,13 or older,"no, only English or Spanish",no,2025-07-22_21h56.54.385,empathy_intonation_perc,2024.2.4,Win32,60.97560976,595d516e2da9c90001d7d200,687ed1b7e638a4cbf2f02089,68804125cac3f88b75a27ed8,,,,,,,,,,,,,,0,,,,,,,,,,,,,,,,,,,,,,,,,,,,,,,,,,,,,,,,,,,,,,,,,,,,,,,,,4,batillón,,,,,493.0455,494.3106,0,1,0.7178,,0,17,17,3,1,REAL,FAKE,,,,,,,,,,,,,,,,,
,,,,,,,,,595d516e2da9c90001d7d200,mexican,13 or older,"no, only English or Spanish",no,2025-07-22_21h56.54.385,empathy_intonation_perc,2024.2.4,Win32,60.97560976,595d516e2da9c90001d7d200,687ed1b7e638a4cbf2f02089,68804125cac3f88b75a27ed8,,,,,,,,,,,,,,1,,,,,,,,,,,,,,,,,,,,,,,,,,,,,,,,,,,,,,,,,,,,,,,,,,,,,,,,,78,frondoso,,,,,494.3124,495.6112,0,0,0.7345,,0,18,18,77,1,REAL,FAKE,,,,,,,,,,,,,,,,,
,,,,,,,,,595d516e2da9c90001d7d200,mexican,13 or older,"no, only English or Spanish",no,2025-07-22_21h56.54.385,empathy_intonation_perc,2024.2.4,Win32,60.97560976,595d516e2da9c90001d7d200,687ed1b7e638a4cbf2f02089,68804125cac3f88b75a27ed8,,,,,,,,,,,,,,1,,,,,,,,,,,,,,,,,,,,,,,,,,,,,,,,,,,,,,,,,,,,,,,,,,,,,,,,,80,hormiga,,,,,495.6132,497.0333,1,1,0.8806,,0,19,19,79,1,REAL,FAKE,,,,,,,,,,,,,,,,,
,,,,,,,,,595d516e2da9c90001d7d200,mexican,13 or older,"no, only English or Spanish",no,2025-07-22_21h56.54.385,empathy_intonation_perc,2024.2.4,Win32,60.97560976,595d516e2da9c90001d7d200,687ed1b7e638a4cbf2f02089,68804125cac3f88b75a27ed8,,,,,,,,,,,,,,1,,,,,,,,,,,,,,,,,,,,,,,,,,,,,,,,,,,,,,,,,,,,,,,,,,,,,,,,,91,click the 1 key.,,,,,497.0353,498.6955,1,1,1.1212,,0,20,20,90,1,REAL,FAKE,,,,,,,,,,,,,,,,,
,,,,,,,,,595d516e2da9c90001d7d200,mexican,13 or older,"no, only English or Spanish",no,2025-07-22_21h56.54.385,empathy_intonation_perc,2024.2.4,Win32,60.97560976,595d516e2da9c90001d7d200,687ed1b7e638a4cbf2f02089,68804125cac3f88b75a27ed8,,,,,,,,,,,,,,0,,,,,,,,,,,,,,,,,,,,,,,,,,,,,,,,,,,,,,,,,,,,,,,,,,,,,,,,,82,empirador,,,,,498.6973,500.3883,1,0,1.1508,,0,21,21,81,1,REAL,FAKE,,,,,,,,,,,,,,,,,
,,,,,,,,,595d516e2da9c90001d7d200,mexican,13 or older,"no, only English or Spanish",no,2025-07-22_21h56.54.385,empathy_intonation_perc,2024.2.4,Win32,60.97560976,595d516e2da9c90001d7d200,687ed1b7e638a4cbf2f02089,68804125cac3f88b75a27ed8,,,,,,,,,,,,,,0,,,,,,,,,,,,,,,,,,,,,,,,,,,,,,,,,,,,,,,,,,,,,,,,,,,,,,,,,42,cadallo,,,,,500.3897,501.9982,1,0,1.0771,,0,22,22,41,1,REAL,FAKE,,,,,,,,,,,,,,,,,
,,,,,,,,,595d516e2da9c90001d7d200,mexican,13 or older,"no, only English or Spanish",no,2025-07-22_21h56.54.385,empathy_intonation_perc,2024.2.4,Win32,60.97560976,595d516e2da9c90001d7d200,687ed1b7e638a4cbf2f02089,68804125cac3f88b75a27ed8,,,,,,,,,,,,,,1,,,,,,,,,,,,,,,,,,,,,,,,,,,,,,,,,,,,,,,,,,,,,,,,,,,,,,,,,9,hacha,,,,,502.0002,503.2139,1,1,0.6672,,0,23,23,8,1,REAL,FAKE,,,,,,,,,,,,,,,,,
,,,,,,,,,595d516e2da9c90001d7d200,mexican,13 or older,"no, only English or Spanish",no,2025-07-22_21h56.54.385,empathy_intonation_perc,2024.2.4,Win32,60.97560976,595d516e2da9c90001d7d200,687ed1b7e638a4cbf2f02089,68804125cac3f88b75a27ed8,,,,,,,,,,,,,,1,,,,,,,,,,,,,,,,,,,,,,,,,,,,,,,,,,,,,,,,,,,,,,,,,,,,,,,,,64,orgulloso,,,,,503.2158,504.5983,0,0,0.8345,,0,24,24,63,1,REAL,FAKE,,,,,,,,,,,,,,,,,
,,,,,,,,,595d516e2da9c90001d7d200,mexican,13 or older,"no, only English or Spanish",no,2025-07-22_21h56.54.385,empathy_intonation_perc,2024.2.4,Win32,60.97560976,595d516e2da9c90001d7d200,687ed1b7e638a4cbf2f02089,68804125cac3f88b75a27ed8,,,,,,,,,,,,,,1,,,,,,,,,,,,,,,,,,,,,,,,,,,,,,,,,,,,,,,,,,,,,,,,,,,,,,,,,25,bisagra,,,,,504.6002,505.7822,0,0,0.6349,,0,25,25,24,1,REAL,FAKE,,,,,,,,,,,,,,,,,
,,,,,,,,,595d516e2da9c90001d7d200,mexican,13 or older,"no, only English or Spanish",no,2025-07-22_21h56.54.385,empathy_intonation_perc,2024.2.4,Win32,60.97560976,595d516e2da9c90001d7d200,687ed1b7e638a4cbf2f02089,68804125cac3f88b75a27ed8,,,,,,,,,,,,,,1,,,,,,,,,,,,,,,,,,,,,,,,,,,,,,,,,,,,,,,,,,,,,,,,,,,,,,,,,81,pozo,,,,,505.7847,506.9986,0,0,0.668,,0,26,26,80,1,REAL,FAKE,,,,,,,,,,,,,,,,,
,,,,,,,,,595d516e2da9c90001d7d200,mexican,13 or older,"no, only English or Spanish",no,2025-07-22_21h56.54.385,empathy_intonation_perc,2024.2.4,Win32,60.97560976,595d516e2da9c90001d7d200,687ed1b7e638a4cbf2f02089,68804125cac3f88b75a27ed8,,,,,,,,,,,,,,1,,,,,,,,,,,,,,,,,,,,,,,,,,,,,,,,,,,,,,,,,,,,,,,,,,,,,,,,,28,merodear,,,,,507.0003,508.4492,0,0,0.9007,,0,27,27,27,1,REAL,FAKE,,,,,,,,,,,,,,,,,
,,,,,,,,,595d516e2da9c90001d7d200,mexican,13 or older,"no, only English or Spanish",no,2025-07-22_21h56.54.385,empathy_intonation_perc,2024.2.4,Win32,60.97560976,595d516e2da9c90001d7d200,687ed1b7e638a4cbf2f02089,68804125cac3f88b75a27ed8,,,,,,,,,,,,,,1,,,,,,,,,,,,,,,,,,,,,,,,,,,,,,,,,,,,,,,,,,,,,,,,,,,,,,,,,44,cuchara,,,,,508.4512,509.6511,0,0,0.66,,0,28,28,43,1,REAL,FAKE,,,,,,,,,,,,,,,,,
,,,,,,,,,595d516e2da9c90001d7d200,mexican,13 or older,"no, only English or Spanish",no,2025-07-22_21h56.54.385,empathy_intonation_perc,2024.2.4,Win32,60.97560976,595d516e2da9c90001d7d200,687ed1b7e638a4cbf2f02089,68804125cac3f88b75a27ed8,,,,,,,,,,,,,,1,,,,,,,,,,,,,,,,,,,,,,,,,,,,,,,,,,,,,,,,,,,,,,,,,,,,,,,,,20,ávido,,,,,509.6538,511.3502,1,1,1.1569,,0,29,29,19,1,REAL,FAKE,,,,,,,,,,,,,,,,,
,,,,,,,,,595d516e2da9c90001d7d200,mexican,13 or older,"no, only English or Spanish",no,2025-07-22_21h56.54.385,empathy_intonation_perc,2024.2.4,Win32,60.97560976,595d516e2da9c90001d7d200,687ed1b7e638a4cbf2f02089,68804125cac3f88b75a27ed8,,,,,,,,,,,,,,1,,,,,,,,,,,,,,,,,,,,,,,,,,,,,,,,,,,,,,,,,,,,,,,,,,,,,,,,,75,yacer,,,,,511.3522,512.7016,0,0,0.8094,,0,30,30,74,1,REAL,FAKE,,,,,,,,,,,,,,,,,
,,,,,,,,,595d516e2da9c90001d7d200,mexican,13 or older,"no, only English or Spanish",no,2025-07-22_21h56.54.385,empathy_intonation_perc,2024.2.4,Win32,60.97560976,595d516e2da9c90001d7d200,687ed1b7e638a4cbf2f02089,68804125cac3f88b75a27ed8,,,,,,,,,,,,,,1,,,,,,,,,,,,,,,,,,,,,,,,,,,,,,,,,,,,,,,,,,,,,,,,,,,,,,,,,65,bizcocho,,,,,512.7035,514.5186,1,1,1.268,,0,31,31,64,1,REAL,FAKE,,,,,,,,,,,,,,,,,
,,,,,,,,,595d516e2da9c90001d7d200,mexican,13 or older,"no, only English or Spanish",no,2025-07-22_21h56.54.385,empathy_intonation_perc,2024.2.4,Win32,60.97560976,595d516e2da9c90001d7d200,687ed1b7e638a4cbf2f02089,68804125cac3f88b75a27ed8,,,,,,,,,,,,,,1,,,,,,,,,,,,,,,,,,,,,,,,,,,,,,,,,,,,,,,,,,,,,,,,,,,,,,,,,22,lacayo,,,,,514.5205,515.8855,0,0,0.8246,,0,32,32,21,1,REAL,FAKE,,,,,,,,,,,,,,,,,
,,,,,,,,,595d516e2da9c90001d7d200,mexican,13 or older,"no, only English or Spanish",no,2025-07-22_21h56.54.385,empathy_intonation_perc,2024.2.4,Win32,60.97560976,595d516e2da9c90001d7d200,687ed1b7e638a4cbf2f02089,68804125cac3f88b75a27ed8,,,,,,,,,,,,,,1,,,,,,,,,,,,,,,,,,,,,,,,,,,,,,,,,,,,,,,,,,,,,,,,,,,,,,,,,52,camisa,,,,,515.8874,517.1524,1,1,0.7237,,0,33,33,51,1,REAL,FAKE,,,,,,,,,,,,,,,,,
,,,,,,,,,595d516e2da9c90001d7d200,mexican,13 or older,"no, only English or Spanish",no,2025-07-22_21h56.54.385,empathy_intonation_perc,2024.2.4,Win32,60.97560976,595d516e2da9c90001d7d200,687ed1b7e638a4cbf2f02089,68804125cac3f88b75a27ed8,,,,,,,,,,,,,,1,,,,,,,,,,,,,,,,,,,,,,,,,,,,,,,,,,,,,,,,,,,,,,,,,,,,,,,,,37,granuja,,,,,517.1545,518.5533,1,1,0.8508,,0,34,34,36,1,REAL,FAKE,,,,,,,,,,,,,,,,,
,,,,,,,,,595d516e2da9c90001d7d200,mexican,13 or older,"no, only English or Spanish",no,2025-07-22_21h56.54.385,empathy_intonation_perc,2024.2.4,Win32,60.97560976,595d516e2da9c90001d7d200,687ed1b7e638a4cbf2f02089,68804125cac3f88b75a27ed8,,,,,,,,,,,,,,1,,,,,,,,,,,,,,,,,,,,,,,,,,,,,,,,,,,,,,,,,,,,,,,,,,,,,,,,,34,aviso,,,,,518.5552,520.4289,0,0,1.3343,,0,35,35,33,1,REAL,FAKE,,,,,,,,,,,,,,,,,
,,,,,,,,,595d516e2da9c90001d7d200,mexican,13 or older,"no, only English or Spanish",no,2025-07-22_21h56.54.385,empathy_intonation_perc,2024.2.4,Win32,60.97560976,595d516e2da9c90001d7d200,687ed1b7e638a4cbf2f02089,68804125cac3f88b75a27ed8,,,,,,,,,,,,,,1,,,,,,,,,,,,,,,,,,,,,,,,,,,,,,,,,,,,,,,,,,,,,,,,,,,,,,,,,5,zapato,,,,,520.4304,521.5874,1,1,0.6178,,0,36,36,4,1,REAL,FAKE,,,,,,,,,,,,,,,,,
,,,,,,,,,595d516e2da9c90001d7d200,mexican,13 or older,"no, only English or Spanish",no,2025-07-22_21h56.54.385,empathy_intonation_perc,2024.2.4,Win32,60.97560976,595d516e2da9c90001d7d200,687ed1b7e638a4cbf2f02089,68804125cac3f88b75a27ed8,,,,,,,,,,,,,,1,,,,,,,,,,,,,,,,,,,,,,,,,,,,,,,,,,,,,,,,,,,,,,,,,,,,,,,,,46,martillo,,,,,521.5892,522.8881,0,0,0.7701,,0,37,37,45,1,REAL,FAKE,,,,,,,,,,,,,,,,,
,,,,,,,,,595d516e2da9c90001d7d200,mexican,13 or older,"no, only English or Spanish",no,2025-07-22_21h56.54.385,empathy_intonation_perc,2024.2.4,Win32,60.97560976,595d516e2da9c90001d7d200,687ed1b7e638a4cbf2f02089,68804125cac3f88b75a27ed8,,,,,,,,,,,,,,0,,,,,,,,,,,,,,,,,,,,,,,,,,,,,,,,,,,,,,,,,,,,,,,,,,,,,,,,,87,grodo,,,,,522.8901,524.205,0,1,0.773,,0,38,38,86,1,REAL,FAKE,,,,,,,,,,,,,,,,,
,,,,,,,,,595d516e2da9c90001d7d200,mexican,13 or older,"no, only English or Spanish",no,2025-07-22_21h56.54.385,empathy_intonation_perc,2024.2.4,Win32,60.97560976,595d516e2da9c90001d7d200,687ed1b7e638a4cbf2f02089,68804125cac3f88b75a27ed8,,,,,,,,,,,,,,1,,,,,,,,,,,,,,,,,,,,,,,,,,,,,,,,,,,,,,,,,,,,,,,,,,,,,,,,,62,flaco,,,,,524.207,525.8392,1,1,1.0846,,0,39,39,61,1,REAL,FAKE,,,,,,,,,,,,,,,,,
,,,,,,,,,595d516e2da9c90001d7d200,mexican,13 or older,"no, only English or Spanish",no,2025-07-22_21h56.54.385,empathy_intonation_perc,2024.2.4,Win32,60.97560976,595d516e2da9c90001d7d200,687ed1b7e638a4cbf2f02089,68804125cac3f88b75a27ed8,,,,,,,,,,,,,,0,,,,,,,,,,,,,,,,,,,,,,,,,,,,,,,,,,,,,,,,,,,,,,,,,,,,,,,,,58,plaudir,,,,,525.8412,527.2235,0,1,0.8354,,0,40,40,57,1,REAL,FAKE,,,,,,,,,,,,,,,,,
,,,,,,,,,595d516e2da9c90001d7d200,mexican,13 or older,"no, only English or Spanish",no,2025-07-22_21h56.54.385,empathy_intonation_perc,2024.2.4,Win32,60.97560976,595d516e2da9c90001d7d200,687ed1b7e638a4cbf2f02089,68804125cac3f88b75a27ed8,,,,,,,,,,,,,,0,,,,,,,,,,,,,,,,,,,,,,,,,,,,,,,,,,,,,,,,,,,,,,,,,,,,,,,,,72,pemición,,,,,527.2258,528.6738,0,1,0.9046,,0,41,41,71,1,REAL,FAKE,,,,,,,,,,,,,,,,,
,,,,,,,,,595d516e2da9c90001d7d200,mexican,13 or older,"no, only English or Spanish",no,2025-07-22_21h56.54.385,empathy_intonation_perc,2024.2.4,Win32,60.97560976,595d516e2da9c90001d7d200,687ed1b7e638a4cbf2f02089,68804125cac3f88b75a27ed8,,,,,,,,,,,,,,1,,,,,,,,,,,,,,,,,,,,,,,,,,,,,,,,,,,,,,,,,,,,,,,,,,,,,,,,,36,loro,,,,,528.6757,529.9571,0,0,0.7407,,0,42,42,35,1,REAL,FAKE,,,,,,,,,,,,,,,,,
,,,,,,,,,595d516e2da9c90001d7d200,mexican,13 or older,"no, only English or Spanish",no,2025-07-22_21h56.54.385,empathy_intonation_perc,2024.2.4,Win32,60.97560976,595d516e2da9c90001d7d200,687ed1b7e638a4cbf2f02089,68804125cac3f88b75a27ed8,,,,,,,,,,,,,,0,,,,,,,,,,,,,,,,,,,,,,,,,,,,,,,,,,,,,,,,,,,,,,,,,,,,,,,,,29,decar,,,,,529.959,531.4747,1,0,0.9684,,0,43,43,28,1,REAL,FAKE,,,,,,,,,,,,,,,,,
,,,,,,,,,595d516e2da9c90001d7d200,mexican,13 or older,"no, only English or Spanish",no,2025-07-22_21h56.54.385,empathy_intonation_perc,2024.2.4,Win32,60.97560976,595d516e2da9c90001d7d200,687ed1b7e638a4cbf2f02089,68804125cac3f88b75a27ed8,,,,,,,,,,,,,,1,,,,,,,,,,,,,,,,,,,,,,,,,,,,,,,,,,,,,,,,,,,,,,,,,,,,,,,,,12,asesinato,,,,,531.4767,533.0919,0,0,1.0704,,0,44,44,11,1,REAL,FAKE,,,,,,,,,,,,,,,,,
,,,,,,,,,595d516e2da9c90001d7d200,mexican,13 or older,"no, only English or Spanish",no,2025-07-22_21h56.54.385,empathy_intonation_perc,2024.2.4,Win32,60.97560976,595d516e2da9c90001d7d200,687ed1b7e638a4cbf2f02089,68804125cac3f88b75a27ed8,,,,,,,,,,,,,,1,,,,,,,,,,,,,,,,,,,,,,,,,,,,,,,,,,,,,,,,,,,,,,,,,,,,,,,,,7,pésimo,,,,,533.0937,534.9013,1,1,1.2678,,0,45,45,6,1,REAL,FAKE,,,,,,,,,,,,,,,,,
,,,,,,,,,595d516e2da9c90001d7d200,mexican,13 or older,"no, only English or Spanish",no,2025-07-22_21h56.54.385,empathy_intonation_perc,2024.2.4,Win32,60.97560976,595d516e2da9c90001d7d200,687ed1b7e638a4cbf2f02089,68804125cac3f88b75a27ed8,,,,,,,,,,,,,,1,,,,,,,,,,,,,,,,,,,,,,,,,,,,,,,,,,,,,,,,,,,,,,,,,,,,,,,,,54,fomentar,,,,,534.9026,536.493,1,1,1.0532,,0,46,46,53,1,REAL,FAKE,,,,,,,,,,,,,,,,,
,,,,,,,,,595d516e2da9c90001d7d200,mexican,13 or older,"no, only English or Spanish",no,2025-07-22_21h56.54.385,empathy_intonation_perc,2024.2.4,Win32,60.97560976,595d516e2da9c90001d7d200,687ed1b7e638a4cbf2f02089,68804125cac3f88b75a27ed8,,,,,,,,,,,,,,1,,,,,,,,,,,,,,,,,,,,,,,,,,,,,,,,,,,,,,,,,,,,,,,,,,,,,,,,,14,yunque,,,,,536.4949,537.9275,0,0,0.8928,,0,47,47,13,1,REAL,FAKE,,,,,,,,,,,,,,,,,
,,,,,,,,,595d516e2da9c90001d7d200,mexican,13 or older,"no, only English or Spanish",no,2025-07-22_21h56.54.385,empathy_intonation_perc,2024.2.4,Win32,60.97560976,595d516e2da9c90001d7d200,687ed1b7e638a4cbf2f02089,68804125cac3f88b75a27ed8,,,,,,,,,,,,,,1,,,,,,,,,,,,,,,,,,,,,,,,,,,,,,,,,,,,,,,,,,,,,,,,,,,,,,,,,73,hervidor,,,,,537.9293,539.5609,0,0,1.0844,,0,48,48,72,1,REAL,FAKE,,,,,,,,,,,,,,,,,
,,,,,,,,,595d516e2da9c90001d7d200,mexican,13 or older,"no, only English or Spanish",no,2025-07-22_21h56.54.385,empathy_intonation_perc,2024.2.4,Win32,60.97560976,595d516e2da9c90001d7d200,687ed1b7e638a4cbf2f02089,68804125cac3f88b75a27ed8,,,,,,,,,,,,,,1,,,,,,,,,,,,,,,,,,,,,,,,,,,,,,,,,,,,,,,,,,,,,,,,,,,,,,,,,48,ladrón,,,,,539.5626,541.1145,1,1,1.0025,,0,49,49,47,1,REAL,FAKE,,,,,,,,,,,,,,,,,
,,,,,,,,,595d516e2da9c90001d7d200,mexican,13 or older,"no, only English or Spanish",no,2025-07-22_21h56.54.385,empathy_intonation_perc,2024.2.4,Win32,60.97560976,595d516e2da9c90001d7d200,687ed1b7e638a4cbf2f02089,68804125cac3f88b75a27ed8,,,,,,,,,,,,,,1,,,,,,,,,,,,,,,,,,,,,,,,,,,,,,,,,,,,,,,,,,,,,,,,,,,,,,,,,89,prisa,,,,,541.1167,543.1955,1,1,1.5404,,0,50,50,88,1,REAL,FAKE,,,,,,,,,,,,,,,,,
,,,,,,,,,595d516e2da9c90001d7d200,mexican,13 or older,"no, only English or Spanish",no,2025-07-22_21h56.54.385,empathy_intonation_perc,2024.2.4,Win32,60.97560976,595d516e2da9c90001d7d200,687ed1b7e638a4cbf2f02089,68804125cac3f88b75a27ed8,,,,,,,,,,,,,,1,,,,,,,,,,,,,,,,,,,,,,,,,,,,,,,,,,,,,,,,,,,,,,,,,,,,,,,,,49,ganar,,,,,543.1975,544.5298,1,1,0.7851,,0,51,51,48,1,REAL,FAKE,,,,,,,,,,,,,,,,,
,,,,,,,,,595d516e2da9c90001d7d200,mexican,13 or older,"no, only English or Spanish",no,2025-07-22_21h56.54.385,empathy_intonation_perc,2024.2.4,Win32,60.97560976,595d516e2da9c90001d7d200,687ed1b7e638a4cbf2f02089,68804125cac3f88b75a27ed8,,,,,,,,,,,,,,0,,,,,,,,,,,,,,,,,,,,,,,,,,,,,,,,,,,,,,,,,,,,,,,,,,,,,,,,,50,flamida,,,,,544.5318,545.9469,0,1,0.8679,,0,52,52,49,1,REAL,FAKE,,,,,,,,,,,,,,,,,
,,,,,,,,,595d516e2da9c90001d7d200,mexican,13 or older,"no, only English or Spanish",no,2025-07-22_21h56.54.385,empathy_intonation_perc,2024.2.4,Win32,60.97560976,595d516e2da9c90001d7d200,687ed1b7e638a4cbf2f02089,68804125cac3f88b75a27ed8,,,,,,,,,,,,,,1,,,,,,,,,,,,,,,,,,,,,,,,,,,,,,,,,,,,,,,,,,,,,,,,,,,,,,,,,85,laúd,,,,,545.9495,547.3803,0,0,0.9068,,0,53,53,84,1,REAL,FAKE,,,,,,,,,,,,,,,,,
,,,,,,,,,595d516e2da9c90001d7d200,mexican,13 or older,"no, only English or Spanish",no,2025-07-22_21h56.54.385,empathy_intonation_perc,2024.2.4,Win32,60.97560976,595d516e2da9c90001d7d200,687ed1b7e638a4cbf2f02089,68804125cac3f88b75a27ed8,,,,,,,,,,,,,,1,,,,,,,,,,,,,,,,,,,,,,,,,,,,,,,,,,,,,,,,,,,,,,,,,,,,,,,,,51,candado,,,,,547.3822,548.598,1,1,0.6716,,0,54,54,50,1,REAL,FAKE,,,,,,,,,,,,,,,,,
,,,,,,,,,595d516e2da9c90001d7d200,mexican,13 or older,"no, only English or Spanish",no,2025-07-22_21h56.54.385,empathy_intonation_perc,2024.2.4,Win32,60.97560976,595d516e2da9c90001d7d200,687ed1b7e638a4cbf2f02089,68804125cac3f88b75a27ed8,,,,,,,,,,,,,,1,,,,,,,,,,,,,,,,,,,,,,,,,,,,,,,,,,,,,,,,,,,,,,,,,,,,,,,,,86,barato,,,,,548.5998,549.898,1,1,0.7574,,0,55,55,85,1,REAL,FAKE,,,,,,,,,,,,,,,,,
,,,,,,,,,595d516e2da9c90001d7d200,mexican,13 or older,"no, only English or Spanish",no,2025-07-22_21h56.54.385,empathy_intonation_perc,2024.2.4,Win32,60.97560976,595d516e2da9c90001d7d200,687ed1b7e638a4cbf2f02089,68804125cac3f88b75a27ed8,,,,,,,,,,,,,,0,,,,,,,,,,,,,,,,,,,,,,,,,,,,,,,,,,,,,,,,,,,,,,,,,,,,,,,,,79,tropaje,,,,,549.8999,551.2485,0,1,0.8032,,0,56,56,78,1,REAL,FAKE,,,,,,,,,,,,,,,,,
,,,,,,,,,595d516e2da9c90001d7d200,mexican,13 or older,"no, only English or Spanish",no,2025-07-22_21h56.54.385,empathy_intonation_perc,2024.2.4,Win32,60.97560976,595d516e2da9c90001d7d200,687ed1b7e638a4cbf2f02089,68804125cac3f88b75a27ed8,,,,,,,,,,,,,,1,,,,,,,,,,,,,,,,,,,,,,,,,,,,,,,,,,,,,,,,,,,,,,,,,,,,,,,,,31,pandilla,,,,,551.2504,552.4825,0,0,0.6841,,0,57,57,30,1,REAL,FAKE,,,,,,,,,,,,,,,,,
,,,,,,,,,595d516e2da9c90001d7d200,mexican,13 or older,"no, only English or Spanish",no,2025-07-22_21h56.54.385,empathy_intonation_perc,2024.2.4,Win32,60.97560976,595d516e2da9c90001d7d200,687ed1b7e638a4cbf2f02089,68804125cac3f88b75a27ed8,,,,,,,,,,,,,,1,,,,,,,,,,,,,,,,,,,,,,,,,,,,,,,,,,,,,,,,,,,,,,,,,,,,,,,,,57,tacaño,,,,,552.4849,553.7247,0,0,0.7008,,0,58,58,56,1,REAL,FAKE,,,,,,,,,,,,,,,,,
,,,,,,,,,595d516e2da9c90001d7d200,mexican,13 or older,"no, only English or Spanish",no,2025-07-22_21h56.54.385,empathy_intonation_perc,2024.2.4,Win32,60.97560976,595d516e2da9c90001d7d200,687ed1b7e638a4cbf2f02089,68804125cac3f88b75a27ed8,,,,,,,,,,,,,,0,,,,,,,,,,,,,,,,,,,,,,,,,,,,,,,,,,,,,,,,,,,,,,,,,,,,,,,,,74,cintro,,,,,553.7261,555.3503,0,1,1.0873,,0,59,59,73,1,REAL,FAKE,,,,,,,,,,,,,,,,,
,,,,,,,,,595d516e2da9c90001d7d200,mexican,13 or older,"no, only English or Spanish",no,2025-07-22_21h56.54.385,empathy_intonation_perc,2024.2.4,Win32,60.97560976,595d516e2da9c90001d7d200,687ed1b7e638a4cbf2f02089,68804125cac3f88b75a27ed8,,,,,,,,,,,,,,1,,,,,,,,,,,,,,,,,,,,,,,,,,,,,,,,,,,,,,,,,,,,,,,,,,,,,,,,,68,alegre,,,,,555.3522,556.7838,1,1,0.8914,,0,60,60,67,1,REAL,FAKE,,,,,,,,,,,,,,,,,
,,,,,,,,,595d516e2da9c90001d7d200,mexican,13 or older,"no, only English or Spanish",no,2025-07-22_21h56.54.385,empathy_intonation_perc,2024.2.4,Win32,60.97560976,595d516e2da9c90001d7d200,687ed1b7e638a4cbf2f02089,68804125cac3f88b75a27ed8,,,,,,,,,,,,,,1,,,,,,,,,,,,,,,,,,,,,,,,,,,,,,,,,,,,,,,,,,,,,,,,,,,,,,,,,3,pulmones,,,,,556.7858,558.3345,1,1,1.0066,,0,61,61,2,1,REAL,FAKE,,,,,,,,,,,,,,,,,
,,,,,,,,,595d516e2da9c90001d7d200,mexican,13 or older,"no, only English or Spanish",no,2025-07-22_21h56.54.385,empathy_intonation_perc,2024.2.4,Win32,60.97560976,595d516e2da9c90001d7d200,687ed1b7e638a4cbf2f02089,68804125cac3f88b75a27ed8,,,,,,,,,,,,,,1,,,,,,,,,,,,,,,,,,,,,,,,,,,,,,,,,,,,,,,,,,,,,,,,,,,,,,,,,13,helar,,,,,558.3363,559.6852,0,0,0.8014,,0,62,62,12,1,REAL,FAKE,,,,,,,,,,,,,,,,,
,,,,,,,,,595d516e2da9c90001d7d200,mexican,13 or older,"no, only English or Spanish",no,2025-07-22_21h56.54.385,empathy_intonation_perc,2024.2.4,Win32,60.97560976,595d516e2da9c90001d7d200,687ed1b7e638a4cbf2f02089,68804125cac3f88b75a27ed8,,,,,,,,,,,,,,1,,,,,,,,,,,,,,,,,,,,,,,,,,,,,,,,,,,,,,,,,,,,,,,,,,,,,,,,,59,besar,,,,,559.687,561.4191,1,1,1.1845,,0,63,63,58,1,REAL,FAKE,,,,,,,,,,,,,,,,,
,,,,,,,,,595d516e2da9c90001d7d200,mexican,13 or older,"no, only English or Spanish",no,2025-07-22_21h56.54.385,empathy_intonation_perc,2024.2.4,Win32,60.97560976,595d516e2da9c90001d7d200,687ed1b7e638a4cbf2f02089,68804125cac3f88b75a27ed8,,,,,,,,,,,,,,1,,,,,,,,,,,,,,,,,,,,,,,,,,,,,,,,,,,,,,,,,,,,,,,,,,,,,,,,,39,torpe,,,,,561.4209,562.8033,0,0,0.8348,,0,64,64,38,1,REAL,FAKE,,,,,,,,,,,,,,,,,
,,,,,,,,,595d516e2da9c90001d7d200,mexican,13 or older,"no, only English or Spanish",no,2025-07-22_21h56.54.385,empathy_intonation_perc,2024.2.4,Win32,60.97560976,595d516e2da9c90001d7d200,687ed1b7e638a4cbf2f02089,68804125cac3f88b75a27ed8,,,,,,,,,,,,,,0,,,,,,,,,,,,,,,,,,,,,,,,,,,,,,,,,,,,,,,,,,,,,,,,,,,,,,,,,8,cadeña,,,,,562.805,564.6205,1,0,1.2677,,0,65,65,7,1,REAL,FAKE,,,,,,,,,,,,,,,,,
,,,,,,,,,595d516e2da9c90001d7d200,mexican,13 or older,"no, only English or Spanish",no,2025-07-22_21h56.54.385,empathy_intonation_perc,2024.2.4,Win32,60.97560976,595d516e2da9c90001d7d200,687ed1b7e638a4cbf2f02089,68804125cac3f88b75a27ed8,,,,,,,,,,,,,,0,,,,,,,,,,,,,,,,,,,,,,,,,,,,,,,,,,,,,,,,,,,,,,,,,,,,,,,,,32,fatacidad,,,,,564.6226,565.904,0,1,0.7354,,0,66,66,31,1,REAL,FAKE,,,,,,,,,,,,,,,,,
,,,,,,,,,595d516e2da9c90001d7d200,mexican,13 or older,"no, only English or Spanish",no,2025-07-22_21h56.54.385,empathy_intonation_perc,2024.2.4,Win32,60.97560976,595d516e2da9c90001d7d200,687ed1b7e638a4cbf2f02089,68804125cac3f88b75a27ed8,,,,,,,,,,,,,,0,,,,,,,,,,,,,,,,,,,,,,,,,,,,,,,,,,,,,,,,,,,,,,,,,,,,,,,,,30,alardio,,,,,565.906,567.0712,0,1,0.6178,,0,67,67,29,1,REAL,FAKE,,,,,,,,,,,,,,,,,
,,,,,,,,,595d516e2da9c90001d7d200,mexican,13 or older,"no, only English or Spanish",no,2025-07-22_21h56.54.385,empathy_intonation_perc,2024.2.4,Win32,60.97560976,595d516e2da9c90001d7d200,687ed1b7e638a4cbf2f02089,68804125cac3f88b75a27ed8,,,,,,,,,,,,,,0,,,,,,,,,,,,,,,,,,,,,,,,,,,,,,,,,,,,,,,,,,,,,,,,,,,,,,,,,35,rompido,,,,,567.0732,568.6971,1,0,1.0843,,0,68,68,34,1,REAL,FAKE,,,,,,,,,,,,,,,,,
,,,,,,,,,595d516e2da9c90001d7d200,mexican,13 or older,"no, only English or Spanish",no,2025-07-22_21h56.54.385,empathy_intonation_perc,2024.2.4,Win32,60.97560976,595d516e2da9c90001d7d200,687ed1b7e638a4cbf2f02089,68804125cac3f88b75a27ed8,,,,,,,,,,,,,,0,,,,,,,,,,,,,,,,,,,,,,,,,,,,,,,,,,,,,,,,,,,,,,,,,,,,,,,,,70,temblo,,,,,568.6984,570.2222,0,1,0.9885,,0,69,69,69,1,REAL,FAKE,,,,,,,,,,,,,,,,,
,,,,,,,,,595d516e2da9c90001d7d200,mexican,13 or older,"no, only English or Spanish",no,2025-07-22_21h56.54.385,empathy_intonation_perc,2024.2.4,Win32,60.97560976,595d516e2da9c90001d7d200,687ed1b7e638a4cbf2f02089,68804125cac3f88b75a27ed8,,,,,,,,,,,,,,1,,,,,,,,,,,,,,,,,,,,,,,,,,,,,,,,,,,,,,,,,,,,,,,,,,,,,,,,,55,nevar,,,,,570.2239,571.473,0,0,0.7051,,0,70,70,54,1,REAL,FAKE,,,,,,,,,,,,,,,,,
,,,,,,,,,595d516e2da9c90001d7d200,mexican,13 or older,"no, only English or Spanish",no,2025-07-22_21h56.54.385,empathy_intonation_perc,2024.2.4,Win32,60.97560976,595d516e2da9c90001d7d200,687ed1b7e638a4cbf2f02089,68804125cac3f88b75a27ed8,,,,,,,,,,,,,,1,,,,,,,,,,,,,,,,,,,,,,,,,,,,,,,,,,,,,,,,,,,,,,,,,,,,,,,,,2,pellizcar,,,,,571.475,572.6985,0,0,0.6843,,0,71,71,1,1,REAL,FAKE,,,,,,,,,,,,,,,,,
,,,,,,,,,595d516e2da9c90001d7d200,mexican,13 or older,"no, only English or Spanish",no,2025-07-22_21h56.54.385,empathy_intonation_perc,2024.2.4,Win32,60.97560976,595d516e2da9c90001d7d200,687ed1b7e638a4cbf2f02089,68804125cac3f88b75a27ed8,,,,,,,,,,,,,,0,,,,,,,,,,,,,,,,,,,,,,,,,,,,,,,,,,,,,,,,,,,,,,,,,,,,,,,,,18,arsa,,,,,572.6999,573.9404,0,1,0.7014,,0,72,72,17,1,REAL,FAKE,,,,,,,,,,,,,,,,,
,,,,,,,,,595d516e2da9c90001d7d200,mexican,13 or older,"no, only English or Spanish",no,2025-07-22_21h56.54.385,empathy_intonation_perc,2024.2.4,Win32,60.97560976,595d516e2da9c90001d7d200,687ed1b7e638a4cbf2f02089,68804125cac3f88b75a27ed8,,,,,,,,,,,,,,1,,,,,,,,,,,,,,,,,,,,,,,,,,,,,,,,,,,,,,,,,,,,,,,,,,,,,,,,,40,alfombra,,,,,573.9423,575.2574,0,0,0.7752,,0,73,73,39,1,REAL,FAKE,,,,,,,,,,,,,,,,,
,,,,,,,,,595d516e2da9c90001d7d200,mexican,13 or older,"no, only English or Spanish",no,2025-07-22_21h56.54.385,empathy_intonation_perc,2024.2.4,Win32,60.97560976,595d516e2da9c90001d7d200,687ed1b7e638a4cbf2f02089,68804125cac3f88b75a27ed8,,,,,,,,,,,,,,1,,,,,,,,,,,,,,,,,,,,,,,,,,,,,,,,,,,,,,,,,,,,,,,,,,,,,,,,,24,látigo,,,,,575.2591,576.7079,0,0,0.9064,,0,74,74,23,1,REAL,FAKE,,,,,,,,,,,,,,,,,
,,,,,,,,,595d516e2da9c90001d7d200,mexican,13 or older,"no, only English or Spanish",no,2025-07-22_21h56.54.385,empathy_intonation_perc,2024.2.4,Win32,60.97560976,595d516e2da9c90001d7d200,687ed1b7e638a4cbf2f02089,68804125cac3f88b75a27ed8,,,,,,,,,,,,,,0,,,,,,,,,,,,,,,,,,,,,,,,,,,,,,,,,,,,,,,,,,,,,,,,,,,,,,,,,1,terzo,,,,,576.7097,577.9587,0,1,0.7047,,0,75,75,0,1,REAL,FAKE,,,,,,,,,,,,,,,,,
,,,,,,,,,595d516e2da9c90001d7d200,mexican,13 or older,"no, only English or Spanish",no,2025-07-22_21h56.54.385,empathy_intonation_perc,2024.2.4,Win32,60.97560976,595d516e2da9c90001d7d200,687ed1b7e638a4cbf2f02089,68804125cac3f88b75a27ed8,,,,,,,,,,,,,,0,,,,,,,,,,,,,,,,,,,,,,,,,,,,,,,,,,,,,,,,,,,,,,,,,,,,,,,,,19,brecedad,,,,,577.9606,579.201,0,1,0.7005,,0,76,76,18,1,REAL,FAKE,,,,,,,,,,,,,,,,,
,,,,,,,,,595d516e2da9c90001d7d200,mexican,13 or older,"no, only English or Spanish",no,2025-07-22_21h56.54.385,empathy_intonation_perc,2024.2.4,Win32,60.97560976,595d516e2da9c90001d7d200,687ed1b7e638a4cbf2f02089,68804125cac3f88b75a27ed8,,,,,,,,,,,,,,1,,,,,,,,,,,,,,,,,,,,,,,,,,,,,,,,,,,,,,,,,,,,,,,,,,,,,,,,,60,matar,,,,,579.2025,580.326,0,0,0.5846,,0,77,77,59,1,REAL,FAKE,,,,,,,,,,,,,,,,,
,,,,,,,,,595d516e2da9c90001d7d200,mexican,13 or older,"no, only English or Spanish",no,2025-07-22_21h56.54.385,empathy_intonation_perc,2024.2.4,Win32,60.97560976,595d516e2da9c90001d7d200,687ed1b7e638a4cbf2f02089,68804125cac3f88b75a27ed8,,,,,,,,,,,,,,1,,,,,,,,,,,,,,,,,,,,,,,,,,,,,,,,,,,,,,,,,,,,,,,,,,,,,,,,,6,tergiversar,,,,,580.3278,581.5432,0,0,0.6682,,0,78,78,5,1,REAL,FAKE,,,,,,,,,,,,,,,,,
,,,,,,,,,595d516e2da9c90001d7d200,mexican,13 or older,"no, only English or Spanish",no,2025-07-22_21h56.54.385,empathy_intonation_perc,2024.2.4,Win32,60.97560976,595d516e2da9c90001d7d200,687ed1b7e638a4cbf2f02089,68804125cac3f88b75a27ed8,,,,,,,,,,,,,,1,,,,,,,,,,,,,,,,,,,,,,,,,,,,,,,,,,,,,,,,,,,,,,,,,,,,,,,,,15,regar,,,,,581.5451,582.9269,0,0,0.8403,,0,79,79,14,1,REAL,FAKE,,,,,,,,,,,,,,,,,
,,,,,,,,,595d516e2da9c90001d7d200,mexican,13 or older,"no, only English or Spanish",no,2025-07-22_21h56.54.385,empathy_intonation_perc,2024.2.4,Win32,60.97560976,595d516e2da9c90001d7d200,687ed1b7e638a4cbf2f02089,68804125cac3f88b75a27ed8,,,,,,,,,,,,,,0,,,,,,,,,,,,,,,,,,,,,,,,,,,,,,,,,,,,,,,,,,,,,,,,,,,,,,,,,66,hacido,,,,,582.9287,584.3775,1,0,0.9016,,0,80,80,65,1,REAL,FAKE,,,,,,,,,,,,,,,,,
,,,,,,,,,595d516e2da9c90001d7d200,mexican,13 or older,"no, only English or Spanish",no,2025-07-22_21h56.54.385,empathy_intonation_perc,2024.2.4,Win32,60.97560976,595d516e2da9c90001d7d200,687ed1b7e638a4cbf2f02089,68804125cac3f88b75a27ed8,,,,,,,,,,,,,,0,,,,,,,,,,,,,,,,,,,,,,,,,,,,,,,,,,,,,,,,,,,,,,,,,,,,,,,,,47,cartinar,,,,,584.3796,585.7283,0,1,0.7841,,0,81,81,46,1,REAL,FAKE,,,,,,,,,,,,,,,,,
,,,,,,,,,595d516e2da9c90001d7d200,mexican,13 or older,"no, only English or Spanish",no,2025-07-22_21h56.54.385,empathy_intonation_perc,2024.2.4,Win32,60.97560976,595d516e2da9c90001d7d200,687ed1b7e638a4cbf2f02089,68804125cac3f88b75a27ed8,,,,,,,,,,,,,,1,,,,,,,,,,,,,,,,,,,,,,,,,,,,,,,,,,,,,,,,,,,,,,,,,,,,,,,,,71,polvoriento,,,,,585.7302,586.9537,0,0,0.6842,,0,82,82,70,1,REAL,FAKE,,,,,,,,,,,,,,,,,
,,,,,,,,,595d516e2da9c90001d7d200,mexican,13 or older,"no, only English or Spanish",no,2025-07-22_21h56.54.385,empathy_intonation_perc,2024.2.4,Win32,60.97560976,595d516e2da9c90001d7d200,687ed1b7e638a4cbf2f02089,68804125cac3f88b75a27ed8,,,,,,,,,,,,,,1,,,,,,,,,,,,,,,,,,,,,,,,,,,,,,,,,,,,,,,,,,,,,,,,,,,,,,,,,56,musgo,,,,,586.9552,588.2879,0,0,0.8009,,0,83,83,55,1,REAL,FAKE,,,,,,,,,,,,,,,,,
,,,,,,,,,595d516e2da9c90001d7d200,mexican,13 or older,"no, only English or Spanish",no,2025-07-22_21h56.54.385,empathy_intonation_perc,2024.2.4,Win32,60.97560976,595d516e2da9c90001d7d200,687ed1b7e638a4cbf2f02089,68804125cac3f88b75a27ed8,,,,,,,,,,,,,,1,,,,,,,,,,,,,,,,,,,,,,,,,,,,,,,,,,,,,,,,,,,,,,,,,,,,,,,,,67,cabello,,,,,588.2893,589.7795,1,1,0.9515,,0,84,84,66,1,REAL,FAKE,,,,,,,,,,,,,,,,,
,,,,,,,,,595d516e2da9c90001d7d200,mexican,13 or older,"no, only English or Spanish",no,2025-07-22_21h56.54.385,empathy_intonation_perc,2024.2.4,Win32,60.97560976,595d516e2da9c90001d7d200,687ed1b7e638a4cbf2f02089,68804125cac3f88b75a27ed8,,,,,,,,,,,,,,1,,,,,,,,,,,,,,,,,,,,,,,,,,,,,,,,,,,,,,,,,,,,,,,,,,,,,,,,,88,acantilado,,,,,589.7814,591.0135,0,0,0.7088,,0,85,85,87,1,REAL,FAKE,,,,,,,,,,,,,,,,,
,,,,,,,,,595d516e2da9c90001d7d200,mexican,13 or older,"no, only English or Spanish",no,2025-07-22_21h56.54.385,empathy_intonation_perc,2024.2.4,Win32,60.97560976,595d516e2da9c90001d7d200,687ed1b7e638a4cbf2f02089,68804125cac3f88b75a27ed8,,,,,,,,,,,,,,1,,,,,,,,,,,,,,,,,,,,,,,,,,,,,,,,,,,,,,,,,,,,,,,,,,,,,,,,,41,rebuscar,,,,,591.0152,592.4312,0,0,0.8754,,0,86,86,40,1,REAL,FAKE,,,,,,,,,,,,,,,,,
,,,,,,,,,595d516e2da9c90001d7d200,mexican,13 or older,"no, only English or Spanish",no,2025-07-22_21h56.54.385,empathy_intonation_perc,2024.2.4,Win32,60.97560976,595d516e2da9c90001d7d200,687ed1b7e638a4cbf2f02089,68804125cac3f88b75a27ed8,,,,,,,,,,,,,,0,,,,,,,,,,,,,,,,,,,,,,,,,,,,,,,,,,,,,,,,,,,,,,,,,,,,,,,,,92,click the 0 key.,,,,,592.4334,594.1978,0,1,1.2253,,0,87,87,91,1,REAL,FAKE,,,,,,,,,,,,,,,,,
,,,,,,,,,595d516e2da9c90001d7d200,mexican,13 or older,"no, only English or Spanish",no,2025-07-22_21h56.54.385,empathy_intonation_perc,2024.2.4,Win32,60.97560976,595d516e2da9c90001d7d200,687ed1b7e638a4cbf2f02089,68804125cac3f88b75a27ed8,,,,,,,,,,,,,,0,,,,,,,,,,,,,,,,,,,,,,,,,,,,,,,,,,,,,,,,,,,,,,,,,,,,,,,,,63,esposante,,,,,594.1997,596.0153,0,1,1.268,,0,88,88,62,1,REAL,FAKE,,,,,,,,,,,,,,,,,
,,,,,,,,,595d516e2da9c90001d7d200,mexican,13 or older,"no, only English or Spanish",no,2025-07-22_21h56.54.385,empathy_intonation_perc,2024.2.4,Win32,60.97560976,595d516e2da9c90001d7d200,687ed1b7e638a4cbf2f02089,68804125cac3f88b75a27ed8,,,,,,,,,,,,,,0,,,,,,,,,,,,,,,,,,,,,,,,,,,,,,,,,,,,,,,,,,,,,,,,,,,,,,,,,33,pauca,,,,,596.0171,597.2502,0,1,0.6933,,0,89,89,32,1,REAL,FAKE,,,,,,,,,,,,,,,,,
,,,,,,,,,595d516e2da9c90001d7d200,mexican,13 or older,"no, only English or Spanish",no,2025-07-22_21h56.54.385,empathy_intonation_perc,2024.2.4,Win32,60.97560976,595d516e2da9c90001d7d200,687ed1b7e638a4cbf2f02089,68804125cac3f88b75a27ed8,,,,,,,,,,,,,,0,,,,,,,,,,,,,,,,,,,,,,,,,,,,,,,,,,,,,,,,,,,,,,,,,,,,,,,,,84,escuto,,,,,597.252,598.9829,1,0,1.19,,0,90,90,83,1,REAL,FAKE,,,,,,,,,,,,,,,,,
,,,,,,,,,595d516e2da9c90001d7d200,mexican,13 or older,"no, only English or Spanish",no,2025-07-22_21h56.54.385,empathy_intonation_perc,2024.2.4,Win32,60.97560976,595d516e2da9c90001d7d200,687ed1b7e638a4cbf2f02089,68804125cac3f88b75a27ed8,,,,,,,,,,,,,,1,,,,,,,,,,,,,,,,,,,,,,,,,,,,,,,,,,,,,,,,,,,,,,,,,,,,,,,,,45,jilguero,,,,,598.9846,600.1501,0,0,0.6194,,0,91,91,44,1,REAL,FAKE,,,,,,,,,,,,,,,,,
,,,,,,,,,595d516e2da9c90001d7d200,mexican,13 or older,"no, only English or Spanish",no,2025-07-22_21h56.54.385,empathy_intonation_perc,2024.2.4,Win32,60.97560976,595d516e2da9c90001d7d200,687ed1b7e638a4cbf2f02089,68804125cac3f88b75a27ed8,,,,,,,,,,,,,,,,,,,,,,,,,,,,,,,,,,,,,,,,,,,,,,,,,,,,,,,,,,,,,,,,,,,,,,,,,,,,,,,,,,,,,,,,,,600.1509,609.6212,,,,,,,,,,,,,,,
,,,,,,,,,595d516e2da9c90001d7d200,mexican,13 or older,"no, only English or Spanish",no,2025-07-22_21h56.54.385,empathy_intonation_perc,2024.2.4,Win32,60.97560976,595d516e2da9c90001d7d200,687ed1b7e638a4cbf2f02089,68804125cac3f88b75a27ed8,,,,,,,,,,,,,1,,,,,,,,,,,,,,,,,,,,,,,,,,,,,,,,,,,,,,,,,,,,,,,,,,,,,,,,,,,,,,,,,,,,,,,,,,,,,,,609.6403,616.2238,slightly agree,0,0,0,0,1,I can easily tell if someone else wants to enter a conversation.,1,0,1,0,,
,,,,,,,,,595d516e2da9c90001d7d200,mexican,13 or older,"no, only English or Spanish",no,2025-07-22_21h56.54.385,empathy_intonation_perc,2024.2.4,Win32,60.97560976,595d516e2da9c90001d7d200,687ed1b7e638a4cbf2f02089,68804125cac3f88b75a27ed8,,,,,,,,,,,,,2,,,,,,,,,,,,,,,,,,,,,,,,,,,,,,,,,,,,,,,,,,,,,,,,,,,,,,,,,,,,,,,,,,,,,,,,,,,,,,,616.2277,620.6246,slightly disagree,0,1,1,1,1,I prefer animals to humans.,0,1,0,0,,
,,,,,,,,,595d516e2da9c90001d7d200,mexican,13 or older,"no, only English or Spanish",no,2025-07-22_21h56.54.385,empathy_intonation_perc,2024.2.4,Win32,60.97560976,595d516e2da9c90001d7d200,687ed1b7e638a4cbf2f02089,68804125cac3f88b75a27ed8,,,,,,,,,,,,,3,,,,,,,,,,,,,,,,,,,,,,,,,,,,,,,,,,,,,,,,,,,,,,,,,,,,,,,,,,,,,,,,,,,,,,,,,,,,,,,620.6282,624.3091,slightly disagree,0,2,2,2,1,I try to keep up with the current trends and fashions.,0,1,0,0,,
,,,,,,,,,595d516e2da9c90001d7d200,mexican,13 or older,"no, only English or Spanish",no,2025-07-22_21h56.54.385,empathy_intonation_perc,2024.2.4,Win32,60.97560976,595d516e2da9c90001d7d200,687ed1b7e638a4cbf2f02089,68804125cac3f88b75a27ed8,,,,,,,,,,,,,4,,,,,,,,,,,,,,,,,,,,,,,,,,,,,,,,,,,,,,,,,,,,,,,,,,,,,,,,,,,,,,,,,,,,,,,,,,,,,,,624.3137,631.9883,slightly disagree,0,3,3,3,1,"I find it difficult to explain to others things that I understand easily,   when they don't understand it first time.",1,0,0,1,,
,,,,,,,,,595d516e2da9c90001d7d200,mexican,13 or older,"no, only English or Spanish",no,2025-07-22_21h56.54.385,empathy_intonation_perc,2024.2.4,Win32,60.97560976,595d516e2da9c90001d7d200,687ed1b7e638a4cbf2f02089,68804125cac3f88b75a27ed8,,,,,,,,,,,,,5,,,,,,,,,,,,,,,,,,,,,,,,,,,,,,,,,,,,,,,,,,,,,,,,,,,,,,,,,,,,,,,,,,,,,,,,,,,,,,,631.9902,632.3962,slightly disagree,0,4,4,4,1,I dream most nights.,0,1,0,0,,
,,,,,,,,,595d516e2da9c90001d7d200,mexican,13 or older,"no, only English or Spanish",no,2025-07-22_21h56.54.385,empathy_intonation_perc,2024.2.4,Win32,60.97560976,595d516e2da9c90001d7d200,687ed1b7e638a4cbf2f02089,68804125cac3f88b75a27ed8,,,,,,,,,,,,,6,,,,,,,,,,,,,,,,,,,,,,,,,,,,,,,,,,,,,,,,,,,,,,,,,,,,,,,,,,,,,,,,,,,,,,,,,,,,,,,632.3993,637.0807,slightly agree,0,5,5,5,1,I really enjoy caring for other people.,1,0,1,0,,
,,,,,,,,,595d516e2da9c90001d7d200,mexican,13 or older,"no, only English or Spanish",no,2025-07-22_21h56.54.385,empathy_intonation_perc,2024.2.4,Win32,60.97560976,595d516e2da9c90001d7d200,687ed1b7e638a4cbf2f02089,68804125cac3f88b75a27ed8,,,,,,,,,,,,,7,,,,,,,,,,,,,,,,,,,,,,,,,,,,,,,,,,,,,,,,,,,,,,,,,,,,,,,,,,,,,,,,,,,,,,,,,,,,,,,637.084,643.0998,strongly agree,0,6,6,6,1,I try to solve my own problems rather than discussing them with others.,0,1,0,0,,
,,,,,,,,,595d516e2da9c90001d7d200,mexican,13 or older,"no, only English or Spanish",no,2025-07-22_21h56.54.385,empathy_intonation_perc,2024.2.4,Win32,60.97560976,595d516e2da9c90001d7d200,687ed1b7e638a4cbf2f02089,68804125cac3f88b75a27ed8,,,,,,,,,,,,,8,,,,,,,,,,,,,,,,,,,,,,,,,,,,,,,,,,,,,,,,,,,,,,,,,,,,,,,,,,,,,,,,,,,,,,,,,,,,,,,643.1026,646.5844,slightly agree,0,7,7,7,1,I find it hard to know what to do in a social situation.,1,0,0,1,,
,,,,,,,,,595d516e2da9c90001d7d200,mexican,13 or older,"no, only English or Spanish",no,2025-07-22_21h56.54.385,empathy_intonation_perc,2024.2.4,Win32,60.97560976,595d516e2da9c90001d7d200,687ed1b7e638a4cbf2f02089,68804125cac3f88b75a27ed8,,,,,,,,,,,,,9,,,,,,,,,,,,,,,,,,,,,,,,,,,,,,,,,,,,,,,,,,,,,,,,,,,,,,,,,,,,,,,,,,,,,,,,,,,,,,,646.5879,650.9857,slightly agree,0,8,8,8,1,I am at my best first thing in the morning.,0,1,0,0,,
,,,,,,,,,595d516e2da9c90001d7d200,mexican,13 or older,"no, only English or Spanish",no,2025-07-22_21h56.54.385,empathy_intonation_perc,2024.2.4,Win32,60.97560976,595d516e2da9c90001d7d200,687ed1b7e638a4cbf2f02089,68804125cac3f88b75a27ed8,,,,,,,,,,,,,10,,,,,,,,,,,,,,,,,,,,,,,,,,,,,,,,,,,,,,,,,,,,,,,,,,,,,,,,,,,,,,,,,,,,,,,,,,,,,,,650.9894,656.9814,strongly disagree,0,9,9,9,1,People often tell me that I went too far in driving my point home in a discussion.,1,0,0,1,,
