instructions_exposure.started,instructions_exposure.stopped,instructions_exposure_loop.thisRepN,instructions_exposure_loop.thisTrialN,instructions_exposure_loop.thisN,instructions_exposure_loop.thisIndex,instructions_exposure_loop.ran,instructions_text,continue_text,participant_id,"What variety of Spanish are you most familiar with? (e.g., Peruvian, Spanish, Mexican)",At what age did you begin learning Spanish?,Are you proficient in any languages other than English/Spanish?,"Are you familiar with Caribbean (e.g., Caribbean, Puerto Rican) or Galician Spanish?",date,expName,psychopyVersion,OS,frameRate,id,study_id,session,trial_exposure.started,trial_exposure.stopped,key_resp_exposure.keys,key_resp_exposure.corr,key_resp_exposure.rt,key_resp_exposure.duration,key_resp.keys,exposure_loop.thisRepN,exposure_loop.thisTrialN,exposure_loop.thisN,exposure_loop.thisIndex,exposure_loop.ran,item_num,correct_response,question,path,duration,instructions_2afc.started,instructions_2afc.stopped,instructions_2afc_loop.thisRepN,instructions_2afc_loop.thisTrialN,instructions_2afc_loop.thisN,instructions_2afc_loop.thisIndex,instructions_2afc_loop.ran,practice_2afc.started,practice_2afc.stopped,key_resp_2afc_practice.keys,key_resp_2afc_practice.corr,key_resp_2afc_practice.rt,key_resp_2afc_practice.duration,trials_2afc_practice_loop.thisRepN,trials_2afc_practice_loop.thisTrialN,trials_2afc_practice_loop.thisN,trials_2afc_practice_loop.thisIndex,trials_2afc_practice_loop.ran,check_2afc.started,check_2afc.stopped,trial_2afc.started,trial_2afc.stopped,key_resp_2afc_trial.keys,key_resp_2afc_trial.corr,key_resp_2afc_trial.rt,key_resp_2afc_trial.duration,trials_2afc_loop.thisRepN,trials_2afc_loop.thisTrialN,trials_2afc_loop.thisN,trials_2afc_loop.thisIndex,trials_2afc_loop.ran,target,variety,instructions_lextale.started,instructions_lextale.stopped,instructions_lextale_loop.thisRepN,instructions_lextale_loop.thisTrialN,instructions_lextale_loop.thisN,instructions_lextale_loop.thisIndex,instructions_lextale_loop.ran,practice_lextale.started,practice_lextale.stopped,key_resp_lextale_practice.keys,key_resp_lextale_practice.corr,key_resp_lextale_practice.rt,key_resp_lextale_practice.duration,practice_feedback_lextale.started,practice_feedback_lextale.stopped,trials_lextale_practice_loop.thisRepN,trials_lextale_practice_loop.thisTrialN,trials_lextale_practice_loop.thisN,trials_lextale_practice_loop.thisIndex,trials_lextale_practice_loop.ran,stim,word,prac_button_real,prac_button_false,check_lextale.started,check_lextale.stopped,trial_lextale.started,trial_lextale.stopped,key_resp_lextale_trial.keys,key_resp_lextale_trial.corr,key_resp_lextale_trial.rt,key_resp_lextale_trial.duration,trials_lextale_loop.thisRepN,trials_lextale_loop.thisTrialN,trials_lextale_loop.thisN,trials_lextale_loop.thisIndex,trials_lextale_loop.ran,button_real,button_false,instructions_eq.started,instructions_eq.stopped,trial_eq.started,trial_eq.stopped,slider_eq_trial.response,trials_eq_loop.thisRepN,trials_eq_loop.thisTrialN,trials_eq_loop.thisN,trials_eq_loop.thisIndex,trials_eq_loop.ran,item,is_test_item,is_distractor,is_agree_score,is_disagree_score,end_exp.started,end_exp.stopped
0.0149,15.0781,0,0,0,0,1,"In the following task, you are going to hear a series of conversations.", (press the space bar to continue),5aecad0e75deca000162634c,Spanish,13 or older,"no, only English or Spanish",no,2025-08-12_14h08.32.200,empathy_intonation_perc,2024.2.4,Win32,59.88023952,5aecad0e75deca000162634c,687ed1b7e638a4cbf2f02089,689b82e5f30608e57fdc9dea,,,,,,,,,,,,,,,,,,,,,,,,,,,,,,,,,,,,,,,,,,,,,,,,,,,,,,,,,,,,,,,,,,,,,,,,,,,,,,,,,,,,,,,,,,,,,,,,,,,,,,,,,,
15.0798,17.8236,0,1,1,1,1,It is okay if you don't not 100% understand them!, (press the space bar to continue),5aecad0e75deca000162634c,Spanish,13 or older,"no, only English or Spanish",no,2025-08-12_14h08.32.200,empathy_intonation_perc,2024.2.4,Win32,59.88023952,5aecad0e75deca000162634c,687ed1b7e638a4cbf2f02089,689b82e5f30608e57fdc9dea,,,,,,,,,,,,,,,,,,,,,,,,,,,,,,,,,,,,,,,,,,,,,,,,,,,,,,,,,,,,,,,,,,,,,,,,,,,,,,,,,,,,,,,,,,,,,,,,,,,,,,,,,,
17.8253,23.6349,0,2,2,2,1,"After, you will read a sentence about the conversation and decide if it's true or false.", (press the space bar to continue),5aecad0e75deca000162634c,Spanish,13 or older,"no, only English or Spanish",no,2025-08-12_14h08.32.200,empathy_intonation_perc,2024.2.4,Win32,59.88023952,5aecad0e75deca000162634c,687ed1b7e638a4cbf2f02089,689b82e5f30608e57fdc9dea,,,,,,,,,,,,,,,,,,,,,,,,,,,,,,,,,,,,,,,,,,,,,,,,,,,,,,,,,,,,,,,,,,,,,,,,,,,,,,,,,,,,,,,,,,,,,,,,,,,,,,,,,,
23.6398,31.0105,0,3,3,3,1,"If it's true, press '1' (True) and if it's false press '0' (False).", (press the space bar to continue),5aecad0e75deca000162634c,Spanish,13 or older,"no, only English or Spanish",no,2025-08-12_14h08.32.200,empathy_intonation_perc,2024.2.4,Win32,59.88023952,5aecad0e75deca000162634c,687ed1b7e638a4cbf2f02089,689b82e5f30608e57fdc9dea,,,,,,,,,,,,,,,,,,,,,,,,,,,,,,,,,,,,,,,,,,,,,,,,,,,,,,,,,,,,,,,,,,,,,,,,,,,,,,,,,,,,,,,,,,,,,,,,,,,,,,,,,,
,,,,,,,,,5aecad0e75deca000162634c,Spanish,13 or older,"no, only English or Spanish",no,2025-08-12_14h08.32.200,empathy_intonation_perc,2024.2.4,Win32,59.88023952,5aecad0e75deca000162634c,687ed1b7e638a4cbf2f02089,689b82e5f30608e57fdc9dea,31.0346,79.3783,0,1,12.2914,,,0,0,0,2,1,3,0,The mom already has rice.,./stim/exposure_wavs/pr_stimuli_convo.wav,36,,,,,,,,,,,,,,,,,,,,,,,,,,,,,,,,,,,,,,,,,,,,,,,,,,,,,,,,,,,,,,,,,,,,,,,,,,,,,,,,,,,,,,,,,
,,,,,,,,,5aecad0e75deca000162634c,Spanish,13 or older,"no, only English or Spanish",no,2025-08-12_14h08.32.200,empathy_intonation_perc,2024.2.4,Win32,59.88023952,5aecad0e75deca000162634c,687ed1b7e638a4cbf2f02089,689b82e5f30608e57fdc9dea,79.386,144.3929,1,1,4.9932,,,0,1,1,1,1,2,1,The mom asked the daughter if she already went to the supermarket.,./stim/exposure_wavs/dr_stimuli_convo.wav,60,,,,,,,,,,,,,,,,,,,,,,,,,,,,,,,,,,,,,,,,,,,,,,,,,,,,,,,,,,,,,,,,,,,,,,,,,,,,,,,,,,,,,,,,,
,,,,,,,,,5aecad0e75deca000162634c,Spanish,13 or older,"no, only English or Spanish",no,2025-08-12_14h08.32.200,empathy_intonation_perc,2024.2.4,Win32,59.88023952,5aecad0e75deca000162634c,687ed1b7e638a4cbf2f02089,689b82e5f30608e57fdc9dea,144.3976,198.5365,0,0,7.1151,,,0,2,2,0,1,1,1,The son asked the mom if Aunt Marina is okay.,./stim/exposure_wavs/ga_stimuli_convo.wav,47,,,,,,,,,,,,,,,,,,,,,,,,,,,,,,,,,,,,,,,,,,,,,,,,,,,,,,,,,,,,,,,,,,,,,,,,,,,,,,,,,,,,,,,,,
,,,,,,,"In the following task you are going to hear a series of utterances. 

  You will decide if the utterances sound like questions or not using your keyboard.", (press the spacebar to continue),5aecad0e75deca000162634c,Spanish,13 or older,"no, only English or Spanish",no,2025-08-12_14h08.32.200,empathy_intonation_perc,2024.2.4,Win32,59.88023952,5aecad0e75deca000162634c,687ed1b7e638a4cbf2f02089,689b82e5f30608e57fdc9dea,,,,,,,,,,,,,,,,,,198.5425,213.8053,0,0,0,0,1,,,,,,,,,,,,,,,,,,,,,,,,,,,,,,,,,,,,,,,,,,,,,,,,,,,,,,,,,,,,,,,,,,,,,,,,,,,,,,,,,,
,,,,,,,"If you believe the utterance is a question, type '1' (for 'yes') and if you do not 
  believe it is a question type '0' (for 'no').

  Let's practice a bit...", (press the spacebar to continue),5aecad0e75deca000162634c,Spanish,13 or older,"no, only English or Spanish",no,2025-08-12_14h08.32.200,empathy_intonation_perc,2024.2.4,Win32,59.88023952,5aecad0e75deca000162634c,687ed1b7e638a4cbf2f02089,689b82e5f30608e57fdc9dea,,,,,,,,,,,,,,,,,,213.8101,221.8307,0,1,1,1,1,,,,,,,,,,,,,,,,,,,,,,,,,,,,,,,,,,,,,,,,,,,,,,,,,,,,,,,,,,,,,,,,,,,,,,,,,,,,,,,,,,
,,,,,,,,,5aecad0e75deca000162634c,Spanish,13 or older,"no, only English or Spanish",no,2025-08-12_14h08.32.200,empathy_intonation_perc,2024.2.4,Win32,59.88023952,5aecad0e75deca000162634c,687ed1b7e638a4cbf2f02089,689b82e5f30608e57fdc9dea,,,,,,,,,,,,,,1,,./stim/wavs/mexican_question_filler_Felipe-no-tiene-contrasena.wav,,,,,,,,,221.844,226.1093,1,1,3.7486,,0,0,0,3,1,,,,,,,,,,,,,,,,,,,,,,,,,,,,,,,,,,,,,,,,,,,,,,,,,,,,,,,,,,,,,,,,,,,,,,,
,,,,,,,,,5aecad0e75deca000162634c,Spanish,13 or older,"no, only English or Spanish",no,2025-08-12_14h08.32.200,empathy_intonation_perc,2024.2.4,Win32,59.88023952,5aecad0e75deca000162634c,687ed1b7e638a4cbf2f02089,689b82e5f30608e57fdc9dea,,,,,,,,,,,,,,1,,./stim/wavs/chilean_question_filler_Mi-padre-cantaba-bien.wav,,,,,,,,,226.1116,228.6057,1,1,1.9659,,0,1,1,2,1,,,,,,,,,,,,,,,,,,,,,,,,,,,,,,,,,,,,,,,,,,,,,,,,,,,,,,,,,,,,,,,,,,,,,,,
,,,,,,,,,5aecad0e75deca000162634c,Spanish,13 or older,"no, only English or Spanish",no,2025-08-12_14h08.32.200,empathy_intonation_perc,2024.2.4,Win32,59.88023952,5aecad0e75deca000162634c,687ed1b7e638a4cbf2f02089,689b82e5f30608e57fdc9dea,,,,,,,,,,,,,,0,,./stim/wavs/cuban_statement_filler_Cocinabas-por-la-noche.wav,,,,,,,,,228.607,232.4852,0,1,3.3545,,0,2,2,4,1,,,,,,,,,,,,,,,,,,,,,,,,,,,,,,,,,,,,,,,,,,,,,,,,,,,,,,,,,,,,,,,,,,,,,,,
,,,,,,,,,5aecad0e75deca000162634c,Spanish,13 or older,"no, only English or Spanish",no,2025-08-12_14h08.32.200,empathy_intonation_perc,2024.2.4,Win32,59.88023952,5aecad0e75deca000162634c,687ed1b7e638a4cbf2f02089,689b82e5f30608e57fdc9dea,,,,,,,,,,,,,,1,,./stim/wavs/argentine_question_filler_Mi-vecino-habla-mucho.wav,,,,,,,,,232.4866,236.4476,1,1,3.4409,,0,3,3,1,1,,,,,,,,,,,,,,,,,,,,,,,,,,,,,,,,,,,,,,,,,,,,,,,,,,,,,,,,,,,,,,,,,,,,,,,
,,,,,,,,,5aecad0e75deca000162634c,Spanish,13 or older,"no, only English or Spanish",no,2025-08-12_14h08.32.200,empathy_intonation_perc,2024.2.4,Win32,59.88023952,5aecad0e75deca000162634c,687ed1b7e638a4cbf2f02089,689b82e5f30608e57fdc9dea,,,,,,,,,,,,,,0,,./stim/wavs/peruvian_statement_filler_El-nino-habla-con-su-madre.wav,,,,,,,,,236.4495,239.9274,0,1,2.9523,,0,4,4,6,1,,,,,,,,,,,,,,,,,,,,,,,,,,,,,,,,,,,,,,,,,,,,,,,,,,,,,,,,,,,,,,,,,,,,,,,
,,,,,,,,,5aecad0e75deca000162634c,Spanish,13 or older,"no, only English or Spanish",no,2025-08-12_14h08.32.200,empathy_intonation_perc,2024.2.4,Win32,59.88023952,5aecad0e75deca000162634c,687ed1b7e638a4cbf2f02089,689b82e5f30608e57fdc9dea,,,,,,,,,,,,,,0,,./stim/wavs/puertorican_statement_filler_La-nina-pinta-con-su-amiga.wav,,,,,,,,,239.929,242.6246,0,1,2.1654,,0,5,5,7,1,,,,,,,,,,,,,,,,,,,,,,,,,,,,,,,,,,,,,,,,,,,,,,,,,,,,,,,,,,,,,,,,,,,,,,,
,,,,,,,,,5aecad0e75deca000162634c,Spanish,13 or older,"no, only English or Spanish",no,2025-08-12_14h08.32.200,empathy_intonation_perc,2024.2.4,Win32,59.88023952,5aecad0e75deca000162634c,687ed1b7e638a4cbf2f02089,689b82e5f30608e57fdc9dea,,,,,,,,,,,,,,0,,./stim/wavs/andalusian_statement_filler_Alberto-nunca-se-afeita.wav,,,,,,,,,242.6264,246.2209,1,0,3.064,,0,6,6,5,1,,,,,,,,,,,,,,,,,,,,,,,,,,,,,,,,,,,,,,,,,,,,,,,,,,,,,,,,,,,,,,,,,,,,,,,
,,,,,,,,,5aecad0e75deca000162634c,Spanish,13 or older,"no, only English or Spanish",no,2025-08-12_14h08.32.200,empathy_intonation_perc,2024.2.4,Win32,59.88023952,5aecad0e75deca000162634c,687ed1b7e638a4cbf2f02089,689b82e5f30608e57fdc9dea,,,,,,,,,,,,,,1,,./stim/wavs/castilian_question_filler_Mi-esposo-conoce-al-chico.wav,,,,,,,,,246.2225,249.3843,0,0,2.6333,,0,7,7,0,1,,,,,,,,,,,,,,,,,,,,,,,,,,,,,,,,,,,,,,,,,,,,,,,,,,,,,,,,,,,,,,,,,,,,,,,
,,,,,,,,,5aecad0e75deca000162634c,Spanish,13 or older,"no, only English or Spanish",no,2025-08-12_14h08.32.200,empathy_intonation_perc,2024.2.4,Win32,59.88023952,5aecad0e75deca000162634c,687ed1b7e638a4cbf2f02089,689b82e5f30608e57fdc9dea,,,,,,,,,,,,,,,,,,,,,,,,,,,,,,,,,,,,249.3852,253.414,,,,,,,,,,,,,,,,,,,,,,,,,,,,,,,,,,,,,,,,,,,,,,,,,,,,,,,,,,,,,,,,,,,,,
,,,,,,,,,5aecad0e75deca000162634c,Spanish,13 or older,"no, only English or Spanish",no,2025-08-12_14h08.32.200,empathy_intonation_perc,2024.2.4,Win32,59.88023952,5aecad0e75deca000162634c,687ed1b7e638a4cbf2f02089,689b82e5f30608e57fdc9dea,,,,,,,,,,,,,14,1,,./stim/wavs/mexican_match_interrogative-total-yn_Daniel-iba-a-Bolivia.wav,,,,,,,,,,,,,,,,,,,,,,253.4328,255.9639,1,1,2.008,,0,0,0,13,1,0,mexican,,,,,,,,,,,,,,,,,,,,,,,,,,,,,,,,,,,,,,,,,,,,,,,,,,,,,,,,
,,,,,,,,,5aecad0e75deca000162634c,Spanish,13 or older,"no, only English or Spanish",no,2025-08-12_14h08.32.200,empathy_intonation_perc,2024.2.4,Win32,59.88023952,5aecad0e75deca000162634c,687ed1b7e638a4cbf2f02089,689b82e5f30608e57fdc9dea,,,,,,,,,,,,,24,1,,./stim/wavs/puertorican_match_interrogative-total-yn_Maria-bebe-el-vino.wav,,,,,,,,,,,,,,,,,,,,,,255.9654,258.2252,0,0,1.7317,,0,1,1,23,1,1,puertorican,,,,,,,,,,,,,,,,,,,,,,,,,,,,,,,,,,,,,,,,,,,,,,,,,,,,,,,,
,,,,,,,,,5aecad0e75deca000162634c,Spanish,13 or older,"no, only English or Spanish",no,2025-08-12_14h08.32.200,empathy_intonation_perc,2024.2.4,Win32,59.88023952,5aecad0e75deca000162634c,687ed1b7e638a4cbf2f02089,689b82e5f30608e57fdc9dea,,,,,,,,,,,,,17,1,,./stim/wavs/mexican_match_interrogative-total-yn_Mariano-habla-del-tiempo.wav,,,,,,,,,,,,,,,,,,,,,,258.2264,261.0556,1,1,2.3,,0,2,2,16,1,0,mexican,,,,,,,,,,,,,,,,,,,,,,,,,,,,,,,,,,,,,,,,,,,,,,,,,,,,,,,,
,,,,,,,,,5aecad0e75deca000162634c,Spanish,13 or older,"no, only English or Spanish",no,2025-08-12_14h08.32.200,empathy_intonation_perc,2024.2.4,Win32,59.88023952,5aecad0e75deca000162634c,687ed1b7e638a4cbf2f02089,689b82e5f30608e57fdc9dea,,,,,,,,,,,,,22,1,,./stim/wavs/puertorican_match_interrogative-total-yn_Emilio-ama-la-marcha.wav,,,,,,,,,,,,,,,,,,,,,,261.0571,263.2702,0,0,1.6884,,0,3,3,21,1,1,puertorican,,,,,,,,,,,,,,,,,,,,,,,,,,,,,,,,,,,,,,,,,,,,,,,,,,,,,,,,
,,,,,,,,,5aecad0e75deca000162634c,Spanish,13 or older,"no, only English or Spanish",no,2025-08-12_14h08.32.200,empathy_intonation_perc,2024.2.4,Win32,59.88023952,5aecad0e75deca000162634c,687ed1b7e638a4cbf2f02089,689b82e5f30608e57fdc9dea,,,,,,,,,,,,,66,0,,./stim/wavs/puertorican_match_declarative-broad-focus_Emilio-ama-la-marcha.wav,,,,,,,,,,,,,,,,,,,,,,263.2721,265.6009,0,1,1.8052,,0,4,4,65,1,0,puertorican,,,,,,,,,,,,,,,,,,,,,,,,,,,,,,,,,,,,,,,,,,,,,,,,,,,,,,,,
,,,,,,,,,5aecad0e75deca000162634c,Spanish,13 or older,"no, only English or Spanish",no,2025-08-12_14h08.32.200,empathy_intonation_perc,2024.2.4,Win32,59.88023952,5aecad0e75deca000162634c,687ed1b7e638a4cbf2f02089,689b82e5f30608e57fdc9dea,,,,,,,,,,,,,46,0,,./stim/wavs/castilian_match_declarative-broad-focus_Emilio-ama-la-marcha.wav,,,,,,,,,,,,,,,,,,,,,,265.6024,267.9153,0,1,1.7835,,0,5,5,45,1,0,castilian,,,,,,,,,,,,,,,,,,,,,,,,,,,,,,,,,,,,,,,,,,,,,,,,,,,,,,,,
,,,,,,,,,5aecad0e75deca000162634c,Spanish,13 or older,"no, only English or Spanish",no,2025-08-12_14h08.32.200,empathy_intonation_perc,2024.2.4,Win32,59.88023952,5aecad0e75deca000162634c,687ed1b7e638a4cbf2f02089,689b82e5f30608e57fdc9dea,,,,,,,,,,,,,72,0,,./stim/wavs/castilian_mismatch_declarative-broad-focus_Mi-novio-viene-del-lago.wav,,,,,,,,,,,,,,,,,,,,,,267.9169,270.1629,0,1,1.7158,,0,6,6,71,1,0,castilian,,,,,,,,,,,,,,,,,,,,,,,,,,,,,,,,,,,,,,,,,,,,,,,,,,,,,,,,
,,,,,,,,,5aecad0e75deca000162634c,Spanish,13 or older,"no, only English or Spanish",no,2025-08-12_14h08.32.200,empathy_intonation_perc,2024.2.4,Win32,59.88023952,5aecad0e75deca000162634c,687ed1b7e638a4cbf2f02089,689b82e5f30608e57fdc9dea,,,,,,,,,,,,,3,1,,./stim/wavs/castilian_match_interrogative-total-yn_Manuela-vende-el-carro.wav,,,,,,,,,,,,,,,,,,,,,,270.1643,272.377,0,0,1.6856,,0,7,7,2,1,0,castilian,,,,,,,,,,,,,,,,,,,,,,,,,,,,,,,,,,,,,,,,,,,,,,,,,,,,,,,,
,,,,,,,,,5aecad0e75deca000162634c,Spanish,13 or older,"no, only English or Spanish",no,2025-08-12_14h08.32.200,empathy_intonation_perc,2024.2.4,Win32,59.88023952,5aecad0e75deca000162634c,687ed1b7e638a4cbf2f02089,689b82e5f30608e57fdc9dea,,,,,,,,,,,,,84,0,,./stim/wavs/puertorican_mismatch_declarative-broad-focus_El-bebe-comia-muy-bien.wav,,,,,,,,,,,,,,,,,,,,,,272.3781,274.6245,1,0,1.72,,0,8,8,83,1,0,puertorican,,,,,,,,,,,,,,,,,,,,,,,,,,,,,,,,,,,,,,,,,,,,,,,,,,,,,,,,
,,,,,,,,,5aecad0e75deca000162634c,Spanish,13 or older,"no, only English or Spanish",no,2025-08-12_14h08.32.200,empathy_intonation_perc,2024.2.4,Win32,59.88023952,5aecad0e75deca000162634c,687ed1b7e638a4cbf2f02089,689b82e5f30608e57fdc9dea,,,,,,,,,,,,,37,1,,./stim/wavs/mexican_mismatch_interrogative-total-yn_La-maestra-vive-en-Paris.wav,,,,,,,,,,,,,,,,,,,,,,274.6253,277.4391,0,0,2.2845,,0,9,9,36,1,0,mexican,,,,,,,,,,,,,,,,,,,,,,,,,,,,,,,,,,,,,,,,,,,,,,,,,,,,,,,,
,,,,,,,,,5aecad0e75deca000162634c,Spanish,13 or older,"no, only English or Spanish",no,2025-08-12_14h08.32.200,empathy_intonation_perc,2024.2.4,Win32,59.88023952,5aecad0e75deca000162634c,687ed1b7e638a4cbf2f02089,689b82e5f30608e57fdc9dea,,,,,,,,,,,,,12,1,,./stim/wavs/cuban_match_interrogative-total-yn_Marta-abre-el-regalo.wav,,,,,,,,,,,,,,,,,,,,,,277.4411,280.386,0,0,2.4244,,0,10,10,11,1,1,cuban,,,,,,,,,,,,,,,,,,,,,,,,,,,,,,,,,,,,,,,,,,,,,,,,,,,,,,,,
,,,,,,,,,5aecad0e75deca000162634c,Spanish,13 or older,"no, only English or Spanish",no,2025-08-12_14h08.32.200,empathy_intonation_perc,2024.2.4,Win32,59.88023952,5aecad0e75deca000162634c,687ed1b7e638a4cbf2f02089,689b82e5f30608e57fdc9dea,,,,,,,,,,,,,51,0,,./stim/wavs/cuban_match_declarative-broad-focus_Ana-lleva-el-abrigo.wav,,,,,,,,,,,,,,,,,,,,,,280.3882,282.6191,0,1,1.7091,,0,11,11,50,1,0,cuban,,,,,,,,,,,,,,,,,,,,,,,,,,,,,,,,,,,,,,,,,,,,,,,,,,,,,,,,
,,,,,,,,,5aecad0e75deca000162634c,Spanish,13 or older,"no, only English or Spanish",no,2025-08-12_14h08.32.200,empathy_intonation_perc,2024.2.4,Win32,59.88023952,5aecad0e75deca000162634c,687ed1b7e638a4cbf2f02089,689b82e5f30608e57fdc9dea,,,,,,,,,,,,,18,1,,./stim/wavs/mexican_match_interrogative-total-yn_Marta-abre-el-regalo.wav,,,,,,,,,,,,,,,,,,,,,,282.6203,284.7487,1,1,1.6091,,0,12,12,17,1,0,mexican,,,,,,,,,,,,,,,,,,,,,,,,,,,,,,,,,,,,,,,,,,,,,,,,,,,,,,,,
,,,,,,,,,5aecad0e75deca000162634c,Spanish,13 or older,"no, only English or Spanish",no,2025-08-12_14h08.32.200,empathy_intonation_perc,2024.2.4,Win32,59.88023952,5aecad0e75deca000162634c,687ed1b7e638a4cbf2f02089,689b82e5f30608e57fdc9dea,,,,,,,,,,,,,54,0,,./stim/wavs/cuban_match_declarative-broad-focus_Maria-bebe-el-vino.wav,,,,,,,,,,,,,,,,,,,,,,284.7507,287.1618,0,1,1.8829,,0,13,13,53,1,0,cuban,,,,,,,,,,,,,,,,,,,,,,,,,,,,,,,,,,,,,,,,,,,,,,,,,,,,,,,,
,,,,,,,,,5aecad0e75deca000162634c,Spanish,13 or older,"no, only English or Spanish",no,2025-08-12_14h08.32.200,empathy_intonation_perc,2024.2.4,Win32,59.88023952,5aecad0e75deca000162634c,687ed1b7e638a4cbf2f02089,689b82e5f30608e57fdc9dea,,,,,,,,,,,,,2,1,,./stim/wavs/castilian_match_interrogative-total-yn_Emilio-ama-la-marcha.wav,,,,,,,,,,,,,,,,,,,,,,287.1632,291.0078,1,1,3.3167,,0,14,14,1,1,0,castilian,,,,,,,,,,,,,,,,,,,,,,,,,,,,,,,,,,,,,,,,,,,,,,,,,,,,,,,,
,,,,,,,,,5aecad0e75deca000162634c,Spanish,13 or older,"no, only English or Spanish",no,2025-08-12_14h08.32.200,empathy_intonation_perc,2024.2.4,Win32,59.88023952,5aecad0e75deca000162634c,687ed1b7e638a4cbf2f02089,689b82e5f30608e57fdc9dea,,,,,,,,,,,,,9,1,,./stim/wavs/cuban_match_interrogative-total-yn_Manuela-vende-el-carro.wav,,,,,,,,,,,,,,,,,,,,,,291.0101,294.7374,0,0,3.1979,,0,15,15,8,1,1,cuban,,,,,,,,,,,,,,,,,,,,,,,,,,,,,,,,,,,,,,,,,,,,,,,,,,,,,,,,
,,,,,,,,,5aecad0e75deca000162634c,Spanish,13 or older,"no, only English or Spanish",no,2025-08-12_14h08.32.200,empathy_intonation_perc,2024.2.4,Win32,59.88023952,5aecad0e75deca000162634c,687ed1b7e638a4cbf2f02089,689b82e5f30608e57fdc9dea,,,,,,,,,,,,,44,1,,./stim/wavs/puertorican_mismatch_interrogative-total-yn_Mi-madre-come-la-fruta.wav,,,,,,,,,,,,,,,,,,,,,,294.7394,296.8021,0,0,1.5309,,0,16,16,43,1,1,puertorican,,,,,,,,,,,,,,,,,,,,,,,,,,,,,,,,,,,,,,,,,,,,,,,,,,,,,,,,
,,,,,,,,,5aecad0e75deca000162634c,Spanish,13 or older,"no, only English or Spanish",no,2025-08-12_14h08.32.200,empathy_intonation_perc,2024.2.4,Win32,59.88023952,5aecad0e75deca000162634c,687ed1b7e638a4cbf2f02089,689b82e5f30608e57fdc9dea,,,,,,,,,,,,,25,1,,./stim/wavs/castilian_mismatch_interrogative-total-yn_La-maestra-vive-en-Paris.wav,,,,,,,,,,,,,,,,,,,,,,296.8034,299.3326,1,1,1.9956,,0,17,17,24,1,0,castilian,,,,,,,,,,,,,,,,,,,,,,,,,,,,,,,,,,,,,,,,,,,,,,,,,,,,,,,,
,,,,,,,,,5aecad0e75deca000162634c,Spanish,13 or older,"no, only English or Spanish",no,2025-08-12_14h08.32.200,empathy_intonation_perc,2024.2.4,Win32,59.88023952,5aecad0e75deca000162634c,687ed1b7e638a4cbf2f02089,689b82e5f30608e57fdc9dea,,,,,,,,,,,,,8,1,,./stim/wavs/cuban_match_interrogative-total-yn_Daniel-iba-a-Bolivia.wav,,,,,,,,,,,,,,,,,,,,,,299.3338,302.3128,0,0,2.4526,,0,18,18,7,1,1,cuban,,,,,,,,,,,,,,,,,,,,,,,,,,,,,,,,,,,,,,,,,,,,,,,,,,,,,,,,
,,,,,,,,,5aecad0e75deca000162634c,Spanish,13 or older,"no, only English or Spanish",no,2025-08-12_14h08.32.200,empathy_intonation_perc,2024.2.4,Win32,59.88023952,5aecad0e75deca000162634c,687ed1b7e638a4cbf2f02089,689b82e5f30608e57fdc9dea,,,,,,,,,,,,,71,0,,./stim/wavs/castilian_mismatch_declarative-broad-focus_La-nina-lava-el-plato.wav,,,,,,,,,,,,,,,,,,,,,,302.3142,304.3774,0,1,1.531,,0,19,19,70,1,0,castilian,,,,,,,,,,,,,,,,,,,,,,,,,,,,,,,,,,,,,,,,,,,,,,,,,,,,,,,,
,,,,,,,,,5aecad0e75deca000162634c,Spanish,13 or older,"no, only English or Spanish",no,2025-08-12_14h08.32.200,empathy_intonation_perc,2024.2.4,Win32,59.88023952,5aecad0e75deca000162634c,687ed1b7e638a4cbf2f02089,689b82e5f30608e57fdc9dea,,,,,,,,,,,,,68,0,,./stim/wavs/puertorican_match_declarative-broad-focus_Maria-bebe-el-vino.wav,,,,,,,,,,,,,,,,,,,,,,304.3793,306.6252,0,1,1.7231,,0,20,20,67,1,0,puertorican,,,,,,,,,,,,,,,,,,,,,,,,,,,,,,,,,,,,,,,,,,,,,,,,,,,,,,,,
,,,,,,,,,5aecad0e75deca000162634c,Spanish,13 or older,"no, only English or Spanish",no,2025-08-12_14h08.32.200,empathy_intonation_perc,2024.2.4,Win32,59.88023952,5aecad0e75deca000162634c,687ed1b7e638a4cbf2f02089,689b82e5f30608e57fdc9dea,,,,,,,,,,,,,48,0,,./stim/wavs/castilian_match_declarative-broad-focus_Maria-bebe-el-vino.wav,,,,,,,,,,,,,,,,,,,,,,306.6266,309.1894,0,1,2.0328,,0,21,21,47,1,0,castilian,,,,,,,,,,,,,,,,,,,,,,,,,,,,,,,,,,,,,,,,,,,,,,,,,,,,,,,,
,,,,,,,,,5aecad0e75deca000162634c,Spanish,13 or older,"no, only English or Spanish",no,2025-08-12_14h08.32.200,empathy_intonation_perc,2024.2.4,Win32,59.88023952,5aecad0e75deca000162634c,687ed1b7e638a4cbf2f02089,689b82e5f30608e57fdc9dea,,,,,,,,,,,,,11,1,,./stim/wavs/cuban_match_interrogative-total-yn_Mariano-habla-del-tiempo.wav,,,,,,,,,,,,,,,,,,,,,,309.1917,311.1705,1,1,1.4505,,0,22,22,10,1,1,cuban,,,,,,,,,,,,,,,,,,,,,,,,,,,,,,,,,,,,,,,,,,,,,,,,,,,,,,,,
,,,,,,,,,5aecad0e75deca000162634c,Spanish,13 or older,"no, only English or Spanish",no,2025-08-12_14h08.32.200,empathy_intonation_perc,2024.2.4,Win32,59.88023952,5aecad0e75deca000162634c,687ed1b7e638a4cbf2f02089,689b82e5f30608e57fdc9dea,,,,,,,,,,,,,73,0,,./stim/wavs/castilian_mismatch_declarative-broad-focus_Mi-tia-odia-la-lluvia.wav,,,,,,,,,,,,,,,,,,,,,,311.1722,313.8012,0,1,2.1056,,0,23,23,72,1,0,castilian,,,,,,,,,,,,,,,,,,,,,,,,,,,,,,,,,,,,,,,,,,,,,,,,,,,,,,,,
,,,,,,,,,5aecad0e75deca000162634c,Spanish,13 or older,"no, only English or Spanish",no,2025-08-12_14h08.32.200,empathy_intonation_perc,2024.2.4,Win32,59.88023952,5aecad0e75deca000162634c,687ed1b7e638a4cbf2f02089,689b82e5f30608e57fdc9dea,,,,,,,,,,,,,28,1,,./stim/wavs/castilian_mismatch_interrogative-total-yn_Mi-novio-viene-del-lago.wav,,,,,,,,,,,,,,,,,,,,,,313.8032,317.0143,0,0,2.6834,,0,24,24,27,1,0,castilian,,,,,,,,,,,,,,,,,,,,,,,,,,,,,,,,,,,,,,,,,,,,,,,,,,,,,,,,
,,,,,,,,,5aecad0e75deca000162634c,Spanish,13 or older,"no, only English or Spanish",no,2025-08-12_14h08.32.200,empathy_intonation_perc,2024.2.4,Win32,59.88023952,5aecad0e75deca000162634c,687ed1b7e638a4cbf2f02089,689b82e5f30608e57fdc9dea,,,,,,,,,,,,,49,0,,./stim/wavs/castilian_match_declarative-broad-focus_Mariano-habla-del-tiempo.wav,,,,,,,,,,,,,,,,,,,,,,317.0154,319.3283,1,0,1.7834,,0,25,25,48,1,0,castilian,,,,,,,,,,,,,,,,,,,,,,,,,,,,,,,,,,,,,,,,,,,,,,,,,,,,,,,,
,,,,,,,,,5aecad0e75deca000162634c,Spanish,13 or older,"no, only English or Spanish",no,2025-08-12_14h08.32.200,empathy_intonation_perc,2024.2.4,Win32,59.88023952,5aecad0e75deca000162634c,687ed1b7e638a4cbf2f02089,689b82e5f30608e57fdc9dea,,,,,,,,,,,,,26,1,,./stim/wavs/castilian_mismatch_interrogative-total-yn_La-nina-lava-el-plato.wav,,,,,,,,,,,,,,,,,,,,,,319.3294,322.8083,1,1,2.9491,,0,26,26,25,1,0,castilian,,,,,,,,,,,,,,,,,,,,,,,,,,,,,,,,,,,,,,,,,,,,,,,,,,,,,,,,
,,,,,,,,,5aecad0e75deca000162634c,Spanish,13 or older,"no, only English or Spanish",no,2025-08-12_14h08.32.200,empathy_intonation_perc,2024.2.4,Win32,59.88023952,5aecad0e75deca000162634c,687ed1b7e638a4cbf2f02089,689b82e5f30608e57fdc9dea,,,,,,,,,,,,,4,1,,./stim/wavs/castilian_match_interrogative-total-yn_Maria-bebe-el-vino.wav,,,,,,,,,,,,,,,,,,,,,,322.8108,326.4211,0,0,3.0863,,0,27,27,3,1,0,castilian,,,,,,,,,,,,,,,,,,,,,,,,,,,,,,,,,,,,,,,,,,,,,,,,,,,,,,,,
,,,,,,,,,5aecad0e75deca000162634c,Spanish,13 or older,"no, only English or Spanish",no,2025-08-12_14h08.32.200,empathy_intonation_perc,2024.2.4,Win32,59.88023952,5aecad0e75deca000162634c,687ed1b7e638a4cbf2f02089,689b82e5f30608e57fdc9dea,,,,,,,,,,,,,87,0,,./stim/wavs/puertorican_mismatch_declarative-broad-focus_La-maestra-vive-en-Paris.wav,,,,,,,,,,,,,,,,,,,,,,326.422,329.901,1,0,2.9494,,0,28,28,86,1,0,puertorican,,,,,,,,,,,,,,,,,,,,,,,,,,,,,,,,,,,,,,,,,,,,,,,,,,,,,,,,
,,,,,,,,,5aecad0e75deca000162634c,Spanish,13 or older,"no, only English or Spanish",no,2025-08-12_14h08.32.200,empathy_intonation_perc,2024.2.4,Win32,59.88023952,5aecad0e75deca000162634c,687ed1b7e638a4cbf2f02089,689b82e5f30608e57fdc9dea,,,,,,,,,,,,,10,1,,./stim/wavs/cuban_match_interrogative-total-yn_Maria-bebe-el-vino.wav,,,,,,,,,,,,,,,,,,,,,,329.9026,332.4315,0,0,2.0051,,0,29,29,9,1,1,cuban,,,,,,,,,,,,,,,,,,,,,,,,,,,,,,,,,,,,,,,,,,,,,,,,,,,,,,,,
,,,,,,,,,5aecad0e75deca000162634c,Spanish,13 or older,"no, only English or Spanish",no,2025-08-12_14h08.32.200,empathy_intonation_perc,2024.2.4,Win32,59.88023952,5aecad0e75deca000162634c,687ed1b7e638a4cbf2f02089,689b82e5f30608e57fdc9dea,,,,,,,,,,,,,38,1,,./stim/wavs/mexican_mismatch_interrogative-total-yn_Mi-novio-viene-del-lago.wav,,,,,,,,,,,,,,,,,,,,,,332.4329,336.4942,1,1,3.5357,,0,30,30,37,1,0,mexican,,,,,,,,,,,,,,,,,,,,,,,,,,,,,,,,,,,,,,,,,,,,,,,,,,,,,,,,
,,,,,,,,,5aecad0e75deca000162634c,Spanish,13 or older,"no, only English or Spanish",no,2025-08-12_14h08.32.200,empathy_intonation_perc,2024.2.4,Win32,59.88023952,5aecad0e75deca000162634c,687ed1b7e638a4cbf2f02089,689b82e5f30608e57fdc9dea,,,,,,,,,,,,,39,1,,./stim/wavs/mexican_mismatch_interrogative-total-yn_Mi-tia-odia-la-lluvia.wav,,,,,,,,,,,,,,,,,,,,,,336.4957,338.9915,1,1,1.9727,,0,31,31,38,1,0,mexican,,,,,,,,,,,,,,,,,,,,,,,,,,,,,,,,,,,,,,,,,,,,,,,,,,,,,,,,
,,,,,,,,,5aecad0e75deca000162634c,Spanish,13 or older,"no, only English or Spanish",no,2025-08-12_14h08.32.200,empathy_intonation_perc,2024.2.4,Win32,59.88023952,5aecad0e75deca000162634c,687ed1b7e638a4cbf2f02089,689b82e5f30608e57fdc9dea,,,,,,,,,,,,,21,1,,./stim/wavs/puertorican_match_interrogative-total-yn_David-leia-el-libro.wav,,,,,,,,,,,,,,,,,,,,,,338.9926,341.9388,1,1,2.4195,,0,32,32,20,1,1,puertorican,,,,,,,,,,,,,,,,,,,,,,,,,,,,,,,,,,,,,,,,,,,,,,,,,,,,,,,,
,,,,,,,,,5aecad0e75deca000162634c,Spanish,13 or older,"no, only English or Spanish",no,2025-08-12_14h08.32.200,empathy_intonation_perc,2024.2.4,Win32,59.88023952,5aecad0e75deca000162634c,687ed1b7e638a4cbf2f02089,689b82e5f30608e57fdc9dea,,,,,,,,,,,,,7,1,,./stim/wavs/cuban_match_interrogative-total-yn_Ana-lleva-el-abrigo.wav,,,,,,,,,,,,,,,,,,,,,,341.9409,345.2684,0,0,2.7975,,0,33,33,6,1,1,cuban,,,,,,,,,,,,,,,,,,,,,,,,,,,,,,,,,,,,,,,,,,,,,,,,,,,,,,,,
,,,,,,,,,5aecad0e75deca000162634c,Spanish,13 or older,"no, only English or Spanish",no,2025-08-12_14h08.32.200,empathy_intonation_perc,2024.2.4,Win32,59.88023952,5aecad0e75deca000162634c,687ed1b7e638a4cbf2f02089,689b82e5f30608e57fdc9dea,,,,,,,,,,,,,85,0,,./stim/wavs/puertorican_mismatch_declarative-broad-focus_El-hombre-mira-la-luna.wav,,,,,,,,,,,,,,,,,,,,,,345.2711,347.9656,0,1,2.1692,,0,34,34,84,1,0,puertorican,,,,,,,,,,,,,,,,,,,,,,,,,,,,,,,,,,,,,,,,,,,,,,,,,,,,,,,,
,,,,,,,,,5aecad0e75deca000162634c,Spanish,13 or older,"no, only English or Spanish",no,2025-08-12_14h08.32.200,empathy_intonation_perc,2024.2.4,Win32,59.88023952,5aecad0e75deca000162634c,687ed1b7e638a4cbf2f02089,689b82e5f30608e57fdc9dea,,,,,,,,,,,,,20,1,,./stim/wavs/puertorican_match_interrogative-total-yn_Daniel-iba-a-Bolivia.wav,,,,,,,,,,,,,,,,,,,,,,347.967,350.4631,1,1,1.9655,,0,35,35,19,1,1,puertorican,,,,,,,,,,,,,,,,,,,,,,,,,,,,,,,,,,,,,,,,,,,,,,,,,,,,,,,,
,,,,,,,,,5aecad0e75deca000162634c,Spanish,13 or older,"no, only English or Spanish",no,2025-08-12_14h08.32.200,empathy_intonation_perc,2024.2.4,Win32,59.88023952,5aecad0e75deca000162634c,687ed1b7e638a4cbf2f02089,689b82e5f30608e57fdc9dea,,,,,,,,,,,,,30,1,,./stim/wavs/cuban_mismatch_interrogative-total-yn_El-hombre-mira-la-luna.wav,,,,,,,,,,,,,,,,,,,,,,350.4643,354.4256,1,1,3.4307,,0,36,36,29,1,1,cuban,,,,,,,,,,,,,,,,,,,,,,,,,,,,,,,,,,,,,,,,,,,,,,,,,,,,,,,,
,,,,,,,,,5aecad0e75deca000162634c,Spanish,13 or older,"no, only English or Spanish",no,2025-08-12_14h08.32.200,empathy_intonation_perc,2024.2.4,Win32,59.88023952,5aecad0e75deca000162634c,687ed1b7e638a4cbf2f02089,689b82e5f30608e57fdc9dea,,,,,,,,,,,,,53,0,,./stim/wavs/cuban_match_declarative-broad-focus_Manuela-vende-el-carro.wav,,,,,,,,,,,,,,,,,,,,,,354.4268,356.8897,0,1,1.9329,,0,37,37,52,1,0,cuban,,,,,,,,,,,,,,,,,,,,,,,,,,,,,,,,,,,,,,,,,,,,,,,,,,,,,,,,
,,,,,,,,,5aecad0e75deca000162634c,Spanish,13 or older,"no, only English or Spanish",no,2025-08-12_14h08.32.200,empathy_intonation_perc,2024.2.4,Win32,59.88023952,5aecad0e75deca000162634c,687ed1b7e638a4cbf2f02089,689b82e5f30608e57fdc9dea,,,,,,,,,,,,,82,0,,./stim/wavs/mexican_mismatch_declarative-broad-focus_Mi-novio-viene-del-lago.wav,,,,,,,,,,,,,,,,,,,,,,356.8913,359.4204,0,1,2.0047,,0,38,38,81,1,0,mexican,,,,,,,,,,,,,,,,,,,,,,,,,,,,,,,,,,,,,,,,,,,,,,,,,,,,,,,,
,,,,,,,,,5aecad0e75deca000162634c,Spanish,13 or older,"no, only English or Spanish",no,2025-08-12_14h08.32.200,empathy_intonation_perc,2024.2.4,Win32,59.88023952,5aecad0e75deca000162634c,687ed1b7e638a4cbf2f02089,689b82e5f30608e57fdc9dea,,,,,,,,,,,,,13,1,,./stim/wavs/mexican_match_interrogative-total-yn_Ana-lleva-el-abrigo.wav,,,,,,,,,,,,,,,,,,,,,,359.4222,361.5183,1,1,1.566,,0,39,39,12,1,0,mexican,,,,,,,,,,,,,,,,,,,,,,,,,,,,,,,,,,,,,,,,,,,,,,,,,,,,,,,,
,,,,,,,,,5aecad0e75deca000162634c,Spanish,13 or older,"no, only English or Spanish",no,2025-08-12_14h08.32.200,empathy_intonation_perc,2024.2.4,Win32,59.88023952,5aecad0e75deca000162634c,687ed1b7e638a4cbf2f02089,689b82e5f30608e57fdc9dea,,,,,,,,,,,,,61,0,,./stim/wavs/mexican_match_declarative-broad-focus_Mariano-habla-del-tiempo.wav,,,,,,,,,,,,,,,,,,,,,,361.5208,364.2488,0,1,2.2012,,0,40,40,60,1,0,mexican,,,,,,,,,,,,,,,,,,,,,,,,,,,,,,,,,,,,,,,,,,,,,,,,,,,,,,,,
,,,,,,,,,5aecad0e75deca000162634c,Spanish,13 or older,"no, only English or Spanish",no,2025-08-12_14h08.32.200,empathy_intonation_perc,2024.2.4,Win32,59.88023952,5aecad0e75deca000162634c,687ed1b7e638a4cbf2f02089,689b82e5f30608e57fdc9dea,,,,,,,,,,,,,75,0,,./stim/wavs/cuban_mismatch_declarative-broad-focus_El-hombre-mira-la-luna.wav,,,,,,,,,,,,,,,,,,,,,,364.2513,366.1801,0,1,1.4004,,0,41,41,74,1,0,cuban,,,,,,,,,,,,,,,,,,,,,,,,,,,,,,,,,,,,,,,,,,,,,,,,,,,,,,,,
,,,,,,,,,5aecad0e75deca000162634c,Spanish,13 or older,"no, only English or Spanish",no,2025-08-12_14h08.32.200,empathy_intonation_perc,2024.2.4,Win32,59.88023952,5aecad0e75deca000162634c,687ed1b7e638a4cbf2f02089,689b82e5f30608e57fdc9dea,,,,,,,,,,,,,83,0,,./stim/wavs/mexican_mismatch_declarative-broad-focus_Mi-tia-odia-la-lluvia.wav,,,,,,,,,,,,,,,,,,,,,,366.1816,368.3279,0,1,1.6211,,0,42,42,82,1,0,mexican,,,,,,,,,,,,,,,,,,,,,,,,,,,,,,,,,,,,,,,,,,,,,,,,,,,,,,,,
,,,,,,,,,5aecad0e75deca000162634c,Spanish,13 or older,"no, only English or Spanish",no,2025-08-12_14h08.32.200,empathy_intonation_perc,2024.2.4,Win32,59.88023952,5aecad0e75deca000162634c,687ed1b7e638a4cbf2f02089,689b82e5f30608e57fdc9dea,,,,,,,,,,,,,42,1,,./stim/wavs/puertorican_mismatch_interrogative-total-yn_La-maestra-vive-en-Paris.wav,,,,,,,,,,,,,,,,,,,,,,368.3303,371.3931,1,1,2.5411,,0,43,43,41,1,1,puertorican,,,,,,,,,,,,,,,,,,,,,,,,,,,,,,,,,,,,,,,,,,,,,,,,,,,,,,,,
,,,,,,,,,5aecad0e75deca000162634c,Spanish,13 or older,"no, only English or Spanish",no,2025-08-12_14h08.32.200,empathy_intonation_perc,2024.2.4,Win32,59.88023952,5aecad0e75deca000162634c,687ed1b7e638a4cbf2f02089,689b82e5f30608e57fdc9dea,,,,,,,,,,,,,74,0,,./stim/wavs/cuban_mismatch_declarative-broad-focus_El-bebe-comia-muy-bien.wav,,,,,,,,,,,,,,,,,,,,,,371.3945,374.4216,0,1,2.5057,,0,44,44,73,1,0,cuban,,,,,,,,,,,,,,,,,,,,,,,,,,,,,,,,,,,,,,,,,,,,,,,,,,,,,,,,
,,,,,,,,,5aecad0e75deca000162634c,Spanish,13 or older,"no, only English or Spanish",no,2025-08-12_14h08.32.200,empathy_intonation_perc,2024.2.4,Win32,59.88023952,5aecad0e75deca000162634c,687ed1b7e638a4cbf2f02089,689b82e5f30608e57fdc9dea,,,,,,,,,,,,,63,0,,./stim/wavs/puertorican_match_declarative-broad-focus_Ana-lleva-el-abrigo.wav,,,,,,,,,,,,,,,,,,,,,,374.4229,376.47,0,1,1.5187,,0,45,45,62,1,0,puertorican,,,,,,,,,,,,,,,,,,,,,,,,,,,,,,,,,,,,,,,,,,,,,,,,,,,,,,,,
,,,,,,,,,5aecad0e75deca000162634c,Spanish,13 or older,"no, only English or Spanish",no,2025-08-12_14h08.32.200,empathy_intonation_perc,2024.2.4,Win32,59.88023952,5aecad0e75deca000162634c,687ed1b7e638a4cbf2f02089,689b82e5f30608e57fdc9dea,,,,,,,,,,,,,70,0,,./stim/wavs/castilian_mismatch_declarative-broad-focus_La-maestra-vive-en-Paris.wav,,,,,,,,,,,,,,,,,,,,,,376.4715,379.0835,0,1,2.0844,,0,46,46,69,1,0,castilian,,,,,,,,,,,,,,,,,,,,,,,,,,,,,,,,,,,,,,,,,,,,,,,,,,,,,,,,
,,,,,,,,,5aecad0e75deca000162634c,Spanish,13 or older,"no, only English or Spanish",no,2025-08-12_14h08.32.200,empathy_intonation_perc,2024.2.4,Win32,59.88023952,5aecad0e75deca000162634c,687ed1b7e638a4cbf2f02089,689b82e5f30608e57fdc9dea,,,,,,,,,,,,,29,1,,./stim/wavs/castilian_mismatch_interrogative-total-yn_Mi-tia-odia-la-lluvia.wav,,,,,,,,,,,,,,,,,,,,,,379.0848,382.0969,1,1,2.4861,,0,47,47,28,1,0,castilian,,,,,,,,,,,,,,,,,,,,,,,,,,,,,,,,,,,,,,,,,,,,,,,,,,,,,,,,
,,,,,,,,,5aecad0e75deca000162634c,Spanish,13 or older,"no, only English or Spanish",no,2025-08-12_14h08.32.200,empathy_intonation_perc,2024.2.4,Win32,59.88023952,5aecad0e75deca000162634c,687ed1b7e638a4cbf2f02089,689b82e5f30608e57fdc9dea,,,,,,,,,,,,,45,0,,./stim/wavs/castilian_match_declarative-broad-focus_David-leia-el-libro.wav,,,,,,,,,,,,,,,,,,,,,,382.0983,385.2438,1,0,2.6127,,0,48,48,44,1,0,castilian,,,,,,,,,,,,,,,,,,,,,,,,,,,,,,,,,,,,,,,,,,,,,,,,,,,,,,,,
,,,,,,,,,5aecad0e75deca000162634c,Spanish,13 or older,"no, only English or Spanish",no,2025-08-12_14h08.32.200,empathy_intonation_perc,2024.2.4,Win32,59.88023952,5aecad0e75deca000162634c,687ed1b7e638a4cbf2f02089,689b82e5f30608e57fdc9dea,,,,,,,,,,,,,86,0,,./stim/wavs/puertorican_mismatch_declarative-broad-focus_El-nino-oye-el-rio.wav,,,,,,,,,,,,,,,,,,,,,,385.2451,387.8413,0,1,2.0722,,0,49,49,85,1,0,puertorican,,,,,,,,,,,,,,,,,,,,,,,,,,,,,,,,,,,,,,,,,,,,,,,,,,,,,,,,
,,,,,,,,,5aecad0e75deca000162634c,Spanish,13 or older,"no, only English or Spanish",no,2025-08-12_14h08.32.200,empathy_intonation_perc,2024.2.4,Win32,59.88023952,5aecad0e75deca000162634c,687ed1b7e638a4cbf2f02089,689b82e5f30608e57fdc9dea,,,,,,,,,,,,,36,1,,./stim/wavs/mexican_mismatch_interrogative-total-yn_El-nino-oye-el-rio.wav,,,,,,,,,,,,,,,,,,,,,,387.8424,389.8056,0,0,1.4421,,0,50,50,35,1,0,mexican,,,,,,,,,,,,,,,,,,,,,,,,,,,,,,,,,,,,,,,,,,,,,,,,,,,,,,,,
,,,,,,,,,5aecad0e75deca000162634c,Spanish,13 or older,"no, only English or Spanish",no,2025-08-12_14h08.32.200,empathy_intonation_perc,2024.2.4,Win32,59.88023952,5aecad0e75deca000162634c,687ed1b7e638a4cbf2f02089,689b82e5f30608e57fdc9dea,,,,,,,,,,,,,23,1,,./stim/wavs/puertorican_match_interrogative-total-yn_Manuela-vende-el-carro.wav,,,,,,,,,,,,,,,,,,,,,,389.8069,392.0367,1,1,1.6986,,0,51,51,22,1,1,puertorican,,,,,,,,,,,,,,,,,,,,,,,,,,,,,,,,,,,,,,,,,,,,,,,,,,,,,,,,
,,,,,,,,,5aecad0e75deca000162634c,Spanish,13 or older,"no, only English or Spanish",no,2025-08-12_14h08.32.200,empathy_intonation_perc,2024.2.4,Win32,59.88023952,5aecad0e75deca000162634c,687ed1b7e638a4cbf2f02089,689b82e5f30608e57fdc9dea,,,,,,,,,,,,,77,0,,./stim/wavs/cuban_mismatch_declarative-broad-focus_Mi-novio-viene-del-lago.wav,,,,,,,,,,,,,,,,,,,,,,392.038,394.1844,0,1,1.6202,,0,52,52,76,1,0,cuban,,,,,,,,,,,,,,,,,,,,,,,,,,,,,,,,,,,,,,,,,,,,,,,,,,,,,,,,
,,,,,,,,,5aecad0e75deca000162634c,Spanish,13 or older,"no, only English or Spanish",no,2025-08-12_14h08.32.200,empathy_intonation_perc,2024.2.4,Win32,59.88023952,5aecad0e75deca000162634c,687ed1b7e638a4cbf2f02089,689b82e5f30608e57fdc9dea,,,,,,,,,,,,,32,1,,./stim/wavs/cuban_mismatch_interrogative-total-yn_Mi-madre-come-la-fruta.wav,,,,,,,,,,,,,,,,,,,,,,394.1865,396.4821,0,0,1.7708,,0,53,53,31,1,1,cuban,,,,,,,,,,,,,,,,,,,,,,,,,,,,,,,,,,,,,,,,,,,,,,,,,,,,,,,,
,,,,,,,,,5aecad0e75deca000162634c,Spanish,13 or older,"no, only English or Spanish",no,2025-08-12_14h08.32.200,empathy_intonation_perc,2024.2.4,Win32,59.88023952,5aecad0e75deca000162634c,687ed1b7e638a4cbf2f02089,689b82e5f30608e57fdc9dea,,,,,,,,,,,,,19,1,,./stim/wavs/puertorican_match_interrogative-total-yn_Ana-lleva-el-abrigo.wav,,,,,,,,,,,,,,,,,,,,,,396.4835,398.5632,1,1,1.5519,,0,54,54,18,1,1,puertorican,,,,,,,,,,,,,,,,,,,,,,,,,,,,,,,,,,,,,,,,,,,,,,,,,,,,,,,,
,,,,,,,,,5aecad0e75deca000162634c,Spanish,13 or older,"no, only English or Spanish",no,2025-08-12_14h08.32.200,empathy_intonation_perc,2024.2.4,Win32,59.88023952,5aecad0e75deca000162634c,687ed1b7e638a4cbf2f02089,689b82e5f30608e57fdc9dea,,,,,,,,,,,,,27,1,,./stim/wavs/castilian_mismatch_interrogative-total-yn_Mi-madre-come-la-fruta.wav,,,,,,,,,,,,,,,,,,,,,,398.5638,402.5593,0,0,3.4661,,0,55,55,26,1,0,castilian,,,,,,,,,,,,,,,,,,,,,,,,,,,,,,,,,,,,,,,,,,,,,,,,,,,,,,,,
,,,,,,,,,5aecad0e75deca000162634c,Spanish,13 or older,"no, only English or Spanish",no,2025-08-12_14h08.32.200,empathy_intonation_perc,2024.2.4,Win32,59.88023952,5aecad0e75deca000162634c,687ed1b7e638a4cbf2f02089,689b82e5f30608e57fdc9dea,,,,,,,,,,,,,52,0,,./stim/wavs/cuban_match_declarative-broad-focus_Daniel-iba-a-Bolivia.wav,,,,,,,,,,,,,,,,,,,,,,402.5612,405.0731,0,1,1.9879,,0,56,56,51,1,0,cuban,,,,,,,,,,,,,,,,,,,,,,,,,,,,,,,,,,,,,,,,,,,,,,,,,,,,,,,,
,,,,,,,,,5aecad0e75deca000162634c,Spanish,13 or older,"no, only English or Spanish",no,2025-08-12_14h08.32.200,empathy_intonation_perc,2024.2.4,Win32,59.88023952,5aecad0e75deca000162634c,687ed1b7e638a4cbf2f02089,689b82e5f30608e57fdc9dea,,,,,,,,,,,,,55,0,,./stim/wavs/cuban_match_declarative-broad-focus_Mariano-habla-del-tiempo.wav,,,,,,,,,,,,,,,,,,,,,,405.0746,407.5374,0,1,1.9314,,0,57,57,54,1,0,cuban,,,,,,,,,,,,,,,,,,,,,,,,,,,,,,,,,,,,,,,,,,,,,,,,,,,,,,,,
,,,,,,,,,5aecad0e75deca000162634c,Spanish,13 or older,"no, only English or Spanish",no,2025-08-12_14h08.32.200,empathy_intonation_perc,2024.2.4,Win32,59.88023952,5aecad0e75deca000162634c,687ed1b7e638a4cbf2f02089,689b82e5f30608e57fdc9dea,,,,,,,,,,,,,67,0,,./stim/wavs/puertorican_match_declarative-broad-focus_Manuela-vende-el-carro.wav,,,,,,,,,,,,,,,,,,,,,,407.5393,409.7851,0,1,1.7164,,0,58,58,66,1,0,puertorican,,,,,,,,,,,,,,,,,,,,,,,,,,,,,,,,,,,,,,,,,,,,,,,,,,,,,,,,
,,,,,,,,,5aecad0e75deca000162634c,Spanish,13 or older,"no, only English or Spanish",no,2025-08-12_14h08.32.200,empathy_intonation_perc,2024.2.4,Win32,59.88023952,5aecad0e75deca000162634c,687ed1b7e638a4cbf2f02089,689b82e5f30608e57fdc9dea,,,,,,,,,,,,,57,0,,./stim/wavs/mexican_match_declarative-broad-focus_Ana-lleva-el-abrigo.wav,,,,,,,,,,,,,,,,,,,,,,409.7863,412.0997,0,1,1.7865,,0,59,59,56,1,0,mexican,,,,,,,,,,,,,,,,,,,,,,,,,,,,,,,,,,,,,,,,,,,,,,,,,,,,,,,,
,,,,,,,,,5aecad0e75deca000162634c,Spanish,13 or older,"no, only English or Spanish",no,2025-08-12_14h08.32.200,empathy_intonation_perc,2024.2.4,Win32,59.88023952,5aecad0e75deca000162634c,687ed1b7e638a4cbf2f02089,689b82e5f30608e57fdc9dea,,,,,,,,,,,,,15,1,,./stim/wavs/mexican_match_interrogative-total-yn_David-leia-el-libro.wav,,,,,,,,,,,,,,,,,,,,,,412.1013,414.7465,1,1,2.1217,,0,60,60,14,1,0,mexican,,,,,,,,,,,,,,,,,,,,,,,,,,,,,,,,,,,,,,,,,,,,,,,,,,,,,,,,
,,,,,,,,,5aecad0e75deca000162634c,Spanish,13 or older,"no, only English or Spanish",no,2025-08-12_14h08.32.200,empathy_intonation_perc,2024.2.4,Win32,59.88023952,5aecad0e75deca000162634c,687ed1b7e638a4cbf2f02089,689b82e5f30608e57fdc9dea,,,,,,,,,,,,,33,1,,./stim/wavs/cuban_mismatch_interrogative-total-yn_Mi-novio-viene-del-lago.wav,,,,,,,,,,,,,,,,,,,,,,414.749,417.96,1,1,2.6826,,0,61,61,32,1,1,cuban,,,,,,,,,,,,,,,,,,,,,,,,,,,,,,,,,,,,,,,,,,,,,,,,,,,,,,,,
,,,,,,,,,5aecad0e75deca000162634c,Spanish,13 or older,"no, only English or Spanish",no,2025-08-12_14h08.32.200,empathy_intonation_perc,2024.2.4,Win32,59.88023952,5aecad0e75deca000162634c,687ed1b7e638a4cbf2f02089,689b82e5f30608e57fdc9dea,,,,,,,,,,,,,64,0,,./stim/wavs/puertorican_match_declarative-broad-focus_Daniel-iba-a-Bolivia.wav,,,,,,,,,,,,,,,,,,,,,,417.9615,420.6238,1,0,2.1319,,0,62,62,63,1,0,puertorican,,,,,,,,,,,,,,,,,,,,,,,,,,,,,,,,,,,,,,,,,,,,,,,,,,,,,,,,
,,,,,,,,,5aecad0e75deca000162634c,Spanish,13 or older,"no, only English or Spanish",no,2025-08-12_14h08.32.200,empathy_intonation_perc,2024.2.4,Win32,59.88023952,5aecad0e75deca000162634c,687ed1b7e638a4cbf2f02089,689b82e5f30608e57fdc9dea,,,,,,,,,,,,,43,1,,./stim/wavs/puertorican_mismatch_interrogative-total-yn_La-nina-lava-el-plato.wav,,,,,,,,,,,,,,,,,,,,,,420.6251,423.6546,0,0,2.5086,,0,63,63,42,1,1,puertorican,,,,,,,,,,,,,,,,,,,,,,,,,,,,,,,,,,,,,,,,,,,,,,,,,,,,,,,,
,,,,,,,,,5aecad0e75deca000162634c,Spanish,13 or older,"no, only English or Spanish",no,2025-08-12_14h08.32.200,empathy_intonation_perc,2024.2.4,Win32,59.88023952,5aecad0e75deca000162634c,687ed1b7e638a4cbf2f02089,689b82e5f30608e57fdc9dea,,,,,,,,,,,,,69,0,,./stim/wavs/castilian_mismatch_declarative-broad-focus_El-nino-oye-el-rio.wav,,,,,,,,,,,,,,,,,,,,,,423.6567,426.0511,0,1,1.8647,,0,64,64,68,1,0,castilian,,,,,,,,,,,,,,,,,,,,,,,,,,,,,,,,,,,,,,,,,,,,,,,,,,,,,,,,
,,,,,,,,,5aecad0e75deca000162634c,Spanish,13 or older,"no, only English or Spanish",no,2025-08-12_14h08.32.200,empathy_intonation_perc,2024.2.4,Win32,59.88023952,5aecad0e75deca000162634c,687ed1b7e638a4cbf2f02089,689b82e5f30608e57fdc9dea,,,,,,,,,,,,,35,1,,./stim/wavs/mexican_mismatch_interrogative-total-yn_El-hombre-mira-la-luna.wav,,,,,,,,,,,,,,,,,,,,,,426.0517,428.9648,1,1,2.3815,,0,65,65,34,1,0,mexican,,,,,,,,,,,,,,,,,,,,,,,,,,,,,,,,,,,,,,,,,,,,,,,,,,,,,,,,
,,,,,,,,,5aecad0e75deca000162634c,Spanish,13 or older,"no, only English or Spanish",no,2025-08-12_14h08.32.200,empathy_intonation_perc,2024.2.4,Win32,59.88023952,5aecad0e75deca000162634c,687ed1b7e638a4cbf2f02089,689b82e5f30608e57fdc9dea,,,,,,,,,,,,,58,0,,./stim/wavs/mexican_match_declarative-broad-focus_Daniel-iba-a-Bolivia.wav,,,,,,,,,,,,,,,,,,,,,,428.9654,431.596,1,0,2.1015,,0,66,66,57,1,0,mexican,,,,,,,,,,,,,,,,,,,,,,,,,,,,,,,,,,,,,,,,,,,,,,,,,,,,,,,,
,,,,,,,,,5aecad0e75deca000162634c,Spanish,13 or older,"no, only English or Spanish",no,2025-08-12_14h08.32.200,empathy_intonation_perc,2024.2.4,Win32,59.88023952,5aecad0e75deca000162634c,687ed1b7e638a4cbf2f02089,689b82e5f30608e57fdc9dea,,,,,,,,,,,,,31,1,,./stim/wavs/cuban_mismatch_interrogative-total-yn_El-nino-oye-el-rio.wav,,,,,,,,,,,,,,,,,,,,,,431.5973,433.96,1,1,1.8329,,0,67,67,30,1,1,cuban,,,,,,,,,,,,,,,,,,,,,,,,,,,,,,,,,,,,,,,,,,,,,,,,,,,,,,,,
,,,,,,,,,5aecad0e75deca000162634c,Spanish,13 or older,"no, only English or Spanish",no,2025-08-12_14h08.32.200,empathy_intonation_perc,2024.2.4,Win32,59.88023952,5aecad0e75deca000162634c,687ed1b7e638a4cbf2f02089,689b82e5f30608e57fdc9dea,,,,,,,,,,,,,80,0,,./stim/wavs/mexican_mismatch_declarative-broad-focus_El-hombre-mira-la-luna.wav,,,,,,,,,,,,,,,,,,,,,,433.9612,436.7239,0,1,2.2311,,0,68,68,79,1,0,mexican,,,,,,,,,,,,,,,,,,,,,,,,,,,,,,,,,,,,,,,,,,,,,,,,,,,,,,,,
,,,,,,,,,5aecad0e75deca000162634c,Spanish,13 or older,"no, only English or Spanish",no,2025-08-12_14h08.32.200,empathy_intonation_perc,2024.2.4,Win32,59.88023952,5aecad0e75deca000162634c,687ed1b7e638a4cbf2f02089,689b82e5f30608e57fdc9dea,,,,,,,,,,,,,65,0,,./stim/wavs/puertorican_match_declarative-broad-focus_David-leia-el-libro.wav,,,,,,,,,,,,,,,,,,,,,,436.7251,439.2878,0,1,2.0315,,0,69,69,64,1,0,puertorican,,,,,,,,,,,,,,,,,,,,,,,,,,,,,,,,,,,,,,,,,,,,,,,,,,,,,,,,
,,,,,,,,,5aecad0e75deca000162634c,Spanish,13 or older,"no, only English or Spanish",no,2025-08-12_14h08.32.200,empathy_intonation_perc,2024.2.4,Win32,59.88023952,5aecad0e75deca000162634c,687ed1b7e638a4cbf2f02089,689b82e5f30608e57fdc9dea,,,,,,,,,,,,,1,1,,./stim/wavs/castilian_match_interrogative-total-yn_David-leia-el-libro.wav,,,,,,,,,,,,,,,,,,,,,,439.2903,441.8352,1,1,2.0222,,0,70,70,0,1,0,castilian,,,,,,,,,,,,,,,,,,,,,,,,,,,,,,,,,,,,,,,,,,,,,,,,,,,,,,,,
,,,,,,,,,5aecad0e75deca000162634c,Spanish,13 or older,"no, only English or Spanish",no,2025-08-12_14h08.32.200,empathy_intonation_perc,2024.2.4,Win32,59.88023952,5aecad0e75deca000162634c,687ed1b7e638a4cbf2f02089,689b82e5f30608e57fdc9dea,,,,,,,,,,,,,81,0,,./stim/wavs/mexican_mismatch_declarative-broad-focus_La-maestra-vive-en-Paris.wav,,,,,,,,,,,,,,,,,,,,,,441.8372,444.6323,0,1,2.2668,,0,71,71,80,1,0,mexican,,,,,,,,,,,,,,,,,,,,,,,,,,,,,,,,,,,,,,,,,,,,,,,,,,,,,,,,
,,,,,,,,,5aecad0e75deca000162634c,Spanish,13 or older,"no, only English or Spanish",no,2025-08-12_14h08.32.200,empathy_intonation_perc,2024.2.4,Win32,59.88023952,5aecad0e75deca000162634c,687ed1b7e638a4cbf2f02089,689b82e5f30608e57fdc9dea,,,,,,,,,,,,,5,1,,./stim/wavs/castilian_match_interrogative-total-yn_Mariano-habla-del-tiempo.wav,,,,,,,,,,,,,,,,,,,,,,444.6337,447.5127,1,1,2.3482,,0,72,72,4,1,0,castilian,,,,,,,,,,,,,,,,,,,,,,,,,,,,,,,,,,,,,,,,,,,,,,,,,,,,,,,,
,,,,,,,,,5aecad0e75deca000162634c,Spanish,13 or older,"no, only English or Spanish",no,2025-08-12_14h08.32.200,empathy_intonation_perc,2024.2.4,Win32,59.88023952,5aecad0e75deca000162634c,687ed1b7e638a4cbf2f02089,689b82e5f30608e57fdc9dea,,,,,,,,,,,,,79,0,,./stim/wavs/mexican_mismatch_declarative-broad-focus_El-bebe-comia-muy-bien.wav,,,,,,,,,,,,,,,,,,,,,,447.5141,449.7436,1,0,1.6989,,0,73,73,78,1,0,mexican,,,,,,,,,,,,,,,,,,,,,,,,,,,,,,,,,,,,,,,,,,,,,,,,,,,,,,,,
,,,,,,,,,5aecad0e75deca000162634c,Spanish,13 or older,"no, only English or Spanish",no,2025-08-12_14h08.32.200,empathy_intonation_perc,2024.2.4,Win32,59.88023952,5aecad0e75deca000162634c,687ed1b7e638a4cbf2f02089,689b82e5f30608e57fdc9dea,,,,,,,,,,,,,40,1,,./stim/wavs/puertorican_mismatch_interrogative-total-yn_El-hombre-mira-la-luna.wav,,,,,,,,,,,,,,,,,,,,,,449.7449,452.9404,1,1,2.6697,,0,74,74,39,1,1,puertorican,,,,,,,,,,,,,,,,,,,,,,,,,,,,,,,,,,,,,,,,,,,,,,,,,,,,,,,,
,,,,,,,,,5aecad0e75deca000162634c,Spanish,13 or older,"no, only English or Spanish",no,2025-08-12_14h08.32.200,empathy_intonation_perc,2024.2.4,Win32,59.88023952,5aecad0e75deca000162634c,687ed1b7e638a4cbf2f02089,689b82e5f30608e57fdc9dea,,,,,,,,,,,,,59,0,,./stim/wavs/mexican_match_declarative-broad-focus_David-leia-el-libro.wav,,,,,,,,,,,,,,,,,,,,,,452.9416,455.6044,1,0,2.1379,,0,75,75,58,1,0,mexican,,,,,,,,,,,,,,,,,,,,,,,,,,,,,,,,,,,,,,,,,,,,,,,,,,,,,,,,
,,,,,,,,,5aecad0e75deca000162634c,Spanish,13 or older,"no, only English or Spanish",no,2025-08-12_14h08.32.200,empathy_intonation_perc,2024.2.4,Win32,59.88023952,5aecad0e75deca000162634c,687ed1b7e638a4cbf2f02089,689b82e5f30608e57fdc9dea,,,,,,,,,,,,,56,0,,./stim/wavs/cuban_match_declarative-broad-focus_Marta-abre-el-regalo.wav,,,,,,,,,,,,,,,,,,,,,,455.6055,457.8021,0,1,1.6652,,0,76,76,55,1,0,cuban,,,,,,,,,,,,,,,,,,,,,,,,,,,,,,,,,,,,,,,,,,,,,,,,,,,,,,,,
,,,,,,,,,5aecad0e75deca000162634c,Spanish,13 or older,"no, only English or Spanish",no,2025-08-12_14h08.32.200,empathy_intonation_perc,2024.2.4,Win32,59.88023952,5aecad0e75deca000162634c,687ed1b7e638a4cbf2f02089,689b82e5f30608e57fdc9dea,,,,,,,,,,,,,76,0,,./stim/wavs/cuban_mismatch_declarative-broad-focus_La-nina-lava-el-plato.wav,,,,,,,,,,,,,,,,,,,,,,457.8034,461.1991,0,1,2.8693,,0,77,77,75,1,0,cuban,,,,,,,,,,,,,,,,,,,,,,,,,,,,,,,,,,,,,,,,,,,,,,,,,,,,,,,,
,,,,,,,,,5aecad0e75deca000162634c,Spanish,13 or older,"no, only English or Spanish",no,2025-08-12_14h08.32.200,empathy_intonation_perc,2024.2.4,Win32,59.88023952,5aecad0e75deca000162634c,687ed1b7e638a4cbf2f02089,689b82e5f30608e57fdc9dea,,,,,,,,,,,,,41,1,,./stim/wavs/puertorican_mismatch_interrogative-total-yn_El-nino-oye-el-rio.wav,,,,,,,,,,,,,,,,,,,,,,461.2007,463.463,1,1,1.7382,,0,78,78,40,1,1,puertorican,,,,,,,,,,,,,,,,,,,,,,,,,,,,,,,,,,,,,,,,,,,,,,,,,,,,,,,,
,,,,,,,,,5aecad0e75deca000162634c,Spanish,13 or older,"no, only English or Spanish",no,2025-08-12_14h08.32.200,empathy_intonation_perc,2024.2.4,Win32,59.88023952,5aecad0e75deca000162634c,687ed1b7e638a4cbf2f02089,689b82e5f30608e57fdc9dea,,,,,,,,,,,,,88,0,,./stim/wavs/puertorican_mismatch_declarative-broad-focus_La-nina-lava-el-plato.wav,,,,,,,,,,,,,,,,,,,,,,463.4645,465.4607,1,0,1.4656,,0,79,79,87,1,0,puertorican,,,,,,,,,,,,,,,,,,,,,,,,,,,,,,,,,,,,,,,,,,,,,,,,,,,,,,,,
,,,,,,,,,5aecad0e75deca000162634c,Spanish,13 or older,"no, only English or Spanish",no,2025-08-12_14h08.32.200,empathy_intonation_perc,2024.2.4,Win32,59.88023952,5aecad0e75deca000162634c,687ed1b7e638a4cbf2f02089,689b82e5f30608e57fdc9dea,,,,,,,,,,,,,16,1,,./stim/wavs/mexican_match_interrogative-total-yn_Emilio-ama-la-marcha.wav,,,,,,,,,,,,,,,,,,,,,,465.4619,468.8239,1,1,2.8336,,0,80,80,15,1,0,mexican,,,,,,,,,,,,,,,,,,,,,,,,,,,,,,,,,,,,,,,,,,,,,,,,,,,,,,,,
,,,,,,,,,5aecad0e75deca000162634c,Spanish,13 or older,"no, only English or Spanish",no,2025-08-12_14h08.32.200,empathy_intonation_perc,2024.2.4,Win32,59.88023952,5aecad0e75deca000162634c,687ed1b7e638a4cbf2f02089,689b82e5f30608e57fdc9dea,,,,,,,,,,,,,34,1,,./stim/wavs/cuban_mismatch_interrogative-total-yn_Mi-tia-odia-la-lluvia.wav,,,,,,,,,,,,,,,,,,,,,,468.8253,472.3035,0,0,2.9449,,0,81,81,33,1,1,cuban,,,,,,,,,,,,,,,,,,,,,,,,,,,,,,,,,,,,,,,,,,,,,,,,,,,,,,,,
,,,,,,,,,5aecad0e75deca000162634c,Spanish,13 or older,"no, only English or Spanish",no,2025-08-12_14h08.32.200,empathy_intonation_perc,2024.2.4,Win32,59.88023952,5aecad0e75deca000162634c,687ed1b7e638a4cbf2f02089,689b82e5f30608e57fdc9dea,,,,,,,,,,,,,47,0,,./stim/wavs/castilian_match_declarative-broad-focus_Manuela-vende-el-carro.wav,,,,,,,,,,,,,,,,,,,,,,472.3043,475.2179,0,1,2.3898,,0,82,82,46,1,0,castilian,,,,,,,,,,,,,,,,,,,,,,,,,,,,,,,,,,,,,,,,,,,,,,,,,,,,,,,,
,,,,,,,,,5aecad0e75deca000162634c,Spanish,13 or older,"no, only English or Spanish",no,2025-08-12_14h08.32.200,empathy_intonation_perc,2024.2.4,Win32,59.88023952,5aecad0e75deca000162634c,687ed1b7e638a4cbf2f02089,689b82e5f30608e57fdc9dea,,,,,,,,,,,,,78,0,,./stim/wavs/cuban_mismatch_declarative-broad-focus_Mi-tia-odia-la-lluvia.wav,,,,,,,,,,,,,,,,,,,,,,475.2205,478.8637,0,1,3.1131,,0,83,83,77,1,0,cuban,,,,,,,,,,,,,,,,,,,,,,,,,,,,,,,,,,,,,,,,,,,,,,,,,,,,,,,,
,,,,,,,,,5aecad0e75deca000162634c,Spanish,13 or older,"no, only English or Spanish",no,2025-08-12_14h08.32.200,empathy_intonation_perc,2024.2.4,Win32,59.88023952,5aecad0e75deca000162634c,687ed1b7e638a4cbf2f02089,689b82e5f30608e57fdc9dea,,,,,,,,,,,,,50,0,,./stim/wavs/castilian_match_declarative-broad-focus_Marta-abre-el-regalo.wav,,,,,,,,,,,,,,,,,,,,,,478.8648,481.2444,0,1,1.8577,,0,84,84,49,1,0,castilian,,,,,,,,,,,,,,,,,,,,,,,,,,,,,,,,,,,,,,,,,,,,,,,,,,,,,,,,
,,,,,,,,,5aecad0e75deca000162634c,Spanish,13 or older,"no, only English or Spanish",no,2025-08-12_14h08.32.200,empathy_intonation_perc,2024.2.4,Win32,59.88023952,5aecad0e75deca000162634c,687ed1b7e638a4cbf2f02089,689b82e5f30608e57fdc9dea,,,,,,,,,,,,,6,1,,./stim/wavs/castilian_match_interrogative-total-yn_Marta-abre-el-regalo.wav,,,,,,,,,,,,,,,,,,,,,,481.2463,483.8746,1,1,2.0965,,0,85,85,5,1,0,castilian,,,,,,,,,,,,,,,,,,,,,,,,,,,,,,,,,,,,,,,,,,,,,,,,,,,,,,,,
,,,,,,,,,5aecad0e75deca000162634c,Spanish,13 or older,"no, only English or Spanish",no,2025-08-12_14h08.32.200,empathy_intonation_perc,2024.2.4,Win32,59.88023952,5aecad0e75deca000162634c,687ed1b7e638a4cbf2f02089,689b82e5f30608e57fdc9dea,,,,,,,,,,,,,60,0,,./stim/wavs/mexican_match_declarative-broad-focus_Emilio-ama-la-marcha.wav,,,,,,,,,,,,,,,,,,,,,,483.8752,487.2548,1,0,2.8508,,0,86,86,59,1,0,mexican,,,,,,,,,,,,,,,,,,,,,,,,,,,,,,,,,,,,,,,,,,,,,,,,,,,,,,,,
,,,,,,,,,5aecad0e75deca000162634c,Spanish,13 or older,"no, only English or Spanish",no,2025-08-12_14h08.32.200,empathy_intonation_perc,2024.2.4,Win32,59.88023952,5aecad0e75deca000162634c,687ed1b7e638a4cbf2f02089,689b82e5f30608e57fdc9dea,,,,,,,,,,,,,62,0,,./stim/wavs/mexican_match_declarative-broad-focus_Marta-abre-el-regalo.wav,,,,,,,,,,,,,,,,,,,,,,487.2565,489.3695,0,1,1.5865,,0,87,87,61,1,0,mexican,,,,,,,,,,,,,,,,,,,,,,,,,,,,,,,,,,,,,,,,,,,,,,,,,,,,,,,,
,,,,,,,"Great! Now we will move on. The next task consists of about 60 trials, in each of which you will see a string of letters. 
  
  Your task is to decide whether this is a real Spanish word or not.", (press the spacebar to continue),5aecad0e75deca000162634c,Spanish,13 or older,"no, only English or Spanish",no,2025-08-12_14h08.32.200,empathy_intonation_perc,2024.2.4,Win32,59.88023952,5aecad0e75deca000162634c,687ed1b7e638a4cbf2f02089,689b82e5f30608e57fdc9dea,,,,,,,,,,,,,,,,,,,,,,,,,,,,,,,,,,,,,,,,,,,,,,,,,,,489.3824,495.7634,0,0,0,0,1,,,,,,,,,,,,,,,,,,,,,,,,,,,,,,,,,,,,,,,,,,,,,,,,,
,,,,,,,"If you think it is an existing Spanish word, you type '1' (for 'REAL'), and if you think it is not an existing Spanish word, you type '0' (for 'FAKE').", (press the spacebar to continue),5aecad0e75deca000162634c,Spanish,13 or older,"no, only English or Spanish",no,2025-08-12_14h08.32.200,empathy_intonation_perc,2024.2.4,Win32,59.88023952,5aecad0e75deca000162634c,687ed1b7e638a4cbf2f02089,689b82e5f30608e57fdc9dea,,,,,,,,,,,,,,,,,,,,,,,,,,,,,,,,,,,,,,,,,,,,,,,,,,,495.7684,508.7,0,1,1,1,1,,,,,,,,,,,,,,,,,,,,,,,,,,,,,,,,,,,,,,,,,,,,,,,,,
,,,,,,,"If you are sure that the word exists, even though you don’t know its exact meaning, you may still respond '1' (REAL). 
  
  But if you are not sure if it is an existing word, you should respond '0' (FAKE).
  
  Let's do a practice round...", (press the spacebar to continue),5aecad0e75deca000162634c,Spanish,13 or older,"no, only English or Spanish",no,2025-08-12_14h08.32.200,empathy_intonation_perc,2024.2.4,Win32,59.88023952,5aecad0e75deca000162634c,687ed1b7e638a4cbf2f02089,689b82e5f30608e57fdc9dea,,,,,,,,,,,,,,,,,,,,,,,,,,,,,,,,,,,,,,,,,,,,,,,,,,,508.7048,511.2139,0,2,2,2,1,,,,,,,,,,,,,,,,,,,,,,,,,,,,,,,,,,,,,,,,,,,,,,,,,
,,,,,,,,,5aecad0e75deca000162634c,Spanish,13 or older,"no, only English or Spanish",no,2025-08-12_14h08.32.200,empathy_intonation_perc,2024.2.4,Win32,59.88023952,5aecad0e75deca000162634c,687ed1b7e638a4cbf2f02089,689b82e5f30608e57fdc9dea,,,,,,,,,,,,,,0,,,,,,,,,,,,,,,,,,,,,,,,,,,,,,,,,,,,,,,,,,,,511.2259,515.1768,0,1,3.4316,,515.1773,516.1754,0,0,0,0,1,0,depiste,REAL,FAKE,,,,,,,,,,,,,,,,,,,,,,,,,,,,,,,,
,,,,,,,,,5aecad0e75deca000162634c,Spanish,13 or older,"no, only English or Spanish",no,2025-08-12_14h08.32.200,empathy_intonation_perc,2024.2.4,Win32,59.88023952,5aecad0e75deca000162634c,687ed1b7e638a4cbf2f02089,689b82e5f30608e57fdc9dea,,,,,,,,,,,,,,1,,,,,,,,,,,,,,,,,,,,,,,,,,,,,,,,,,,,,,,,,,,,516.1796,518.4396,1,1,1.73,,518.4398,519.4383,0,1,1,1,1,0,sí,REAL,FAKE,,,,,,,,,,,,,,,,,,,,,,,,,,,,,,,,
,,,,,,,,,5aecad0e75deca000162634c,Spanish,13 or older,"no, only English or Spanish",no,2025-08-12_14h08.32.200,empathy_intonation_perc,2024.2.4,Win32,59.88023952,5aecad0e75deca000162634c,687ed1b7e638a4cbf2f02089,689b82e5f30608e57fdc9dea,,,,,,,,,,,,,,0,,,,,,,,,,,,,,,,,,,,,,,,,,,,,,,,,,,,,,,,,,,,519.4414,522.7183,0,1,2.746,,522.7185,523.7172,0,2,2,2,1,0,coné,REAL,FAKE,,,,,,,,,,,,,,,,,,,,,,,,,,,,,,,,
,,,,,,,,,5aecad0e75deca000162634c,Spanish,13 or older,"no, only English or Spanish",no,2025-08-12_14h08.32.200,empathy_intonation_perc,2024.2.4,Win32,59.88023952,5aecad0e75deca000162634c,687ed1b7e638a4cbf2f02089,689b82e5f30608e57fdc9dea,,,,,,,,,,,,,,0,,,,,,,,,,,,,,,,,,,,,,,,,,,,,,,,,,,,,,,,,,,,523.7194,525.7318,0,1,1.4831,,525.7319,526.7307,0,3,3,3,1,0,calpar,REAL,FAKE,,,,,,,,,,,,,,,,,,,,,,,,,,,,,,,,
,,,,,,,,,5aecad0e75deca000162634c,Spanish,13 or older,"no, only English or Spanish",no,2025-08-12_14h08.32.200,empathy_intonation_perc,2024.2.4,Win32,59.88023952,5aecad0e75deca000162634c,687ed1b7e638a4cbf2f02089,689b82e5f30608e57fdc9dea,,,,,,,,,,,,,,0,,,,,,,,,,,,,,,,,,,,,,,,,,,,,,,,,,,,,,,,,,,,526.7336,528.479,0,1,1.2182,,528.4791,529.4779,0,4,4,4,1,0,joten,REAL,FAKE,,,,,,,,,,,,,,,,,,,,,,,,,,,,,,,,
,,,,,,,,,5aecad0e75deca000162634c,Spanish,13 or older,"no, only English or Spanish",no,2025-08-12_14h08.32.200,empathy_intonation_perc,2024.2.4,Win32,59.88023952,5aecad0e75deca000162634c,687ed1b7e638a4cbf2f02089,689b82e5f30608e57fdc9dea,,,,,,,,,,,,,,1,,,,,,,,,,,,,,,,,,,,,,,,,,,,,,,,,,,,,,,,,,,,529.4805,531.8255,0,0,1.8149,,531.8284,532.8244,0,5,5,5,1,0,sacapuntas,REAL,FAKE,,,,,,,,,,,,,,,,,,,,,,,,,,,,,,,,
,,,,,,,,,5aecad0e75deca000162634c,Spanish,13 or older,"no, only English or Spanish",no,2025-08-12_14h08.32.200,empathy_intonation_perc,2024.2.4,Win32,59.88023952,5aecad0e75deca000162634c,687ed1b7e638a4cbf2f02089,689b82e5f30608e57fdc9dea,,,,,,,,,,,,,,0,,,,,,,,,,,,,,,,,,,,,,,,,,,,,,,,,,,,,,,,,,,,532.8274,534.8729,0,1,1.5205,,534.875,535.8715,0,6,6,6,1,0,priba,REAL,FAKE,,,,,,,,,,,,,,,,,,,,,,,,,,,,,,,,
,,,,,,,,,5aecad0e75deca000162634c,Spanish,13 or older,"no, only English or Spanish",no,2025-08-12_14h08.32.200,empathy_intonation_perc,2024.2.4,Win32,59.88023952,5aecad0e75deca000162634c,687ed1b7e638a4cbf2f02089,689b82e5f30608e57fdc9dea,,,,,,,,,,,,,,0,,,,,,,,,,,,,,,,,,,,,,,,,,,,,,,,,,,,,,,,,,,,535.8738,538.0191,1,0,1.6174,,538.0209,539.0182,0,7,7,7,1,0,pelasula,REAL,FAKE,,,,,,,,,,,,,,,,,,,,,,,,,,,,,,,,
,,,,,,,,,5aecad0e75deca000162634c,Spanish,13 or older,"no, only English or Spanish",no,2025-08-12_14h08.32.200,empathy_intonation_perc,2024.2.4,Win32,59.88023952,5aecad0e75deca000162634c,687ed1b7e638a4cbf2f02089,689b82e5f30608e57fdc9dea,,,,,,,,,,,,,,1,,,,,,,,,,,,,,,,,,,,,,,,,,,,,,,,,,,,,,,,,,,,539.0204,541.0493,1,1,1.5008,,541.051,542.0483,0,8,8,8,1,0,bien,REAL,FAKE,,,,,,,,,,,,,,,,,,,,,,,,,,,,,,,,
,,,,,,,,,5aecad0e75deca000162634c,Spanish,13 or older,"no, only English or Spanish",no,2025-08-12_14h08.32.200,empathy_intonation_perc,2024.2.4,Win32,59.88023952,5aecad0e75deca000162634c,687ed1b7e638a4cbf2f02089,689b82e5f30608e57fdc9dea,,,,,,,,,,,,,,1,,,,,,,,,,,,,,,,,,,,,,,,,,,,,,,,,,,,,,,,,,,,542.051,543.6467,1,1,1.0632,,543.6468,544.6452,0,9,9,9,1,0,casa,REAL,FAKE,,,,,,,,,,,,,,,,,,,,,,,,,,,,,,,,
,,,,,,,,,5aecad0e75deca000162634c,Spanish,13 or older,"no, only English or Spanish",no,2025-08-12_14h08.32.200,empathy_intonation_perc,2024.2.4,Win32,59.88023952,5aecad0e75deca000162634c,687ed1b7e638a4cbf2f02089,689b82e5f30608e57fdc9dea,,,,,,,,,,,,,,0,,,,,,,,,,,,,,,,,,,,,,,,,,,,,,,,,,,,,,,,,,,,544.6469,546.81,0,1,1.6347,,546.8101,547.8089,0,10,10,10,1,0,lejo,REAL,FAKE,,,,,,,,,,,,,,,,,,,,,,,,,,,,,,,,
,,,,,,,,,5aecad0e75deca000162634c,Spanish,13 or older,"no, only English or Spanish",no,2025-08-12_14h08.32.200,empathy_intonation_perc,2024.2.4,Win32,59.88023952,5aecad0e75deca000162634c,687ed1b7e638a4cbf2f02089,689b82e5f30608e57fdc9dea,,,,,,,,,,,,,,0,,,,,,,,,,,,,,,,,,,,,,,,,,,,,,,,,,,,,,,,,,,,547.8116,550.0568,1,0,1.709,,550.0587,551.0555,0,11,11,11,1,0,pretantas,REAL,FAKE,,,,,,,,,,,,,,,,,,,,,,,,,,,,,,,,
,,,,,,,,,5aecad0e75deca000162634c,Spanish,13 or older,"no, only English or Spanish",no,2025-08-12_14h08.32.200,empathy_intonation_perc,2024.2.4,Win32,59.88023952,5aecad0e75deca000162634c,687ed1b7e638a4cbf2f02089,689b82e5f30608e57fdc9dea,,,,,,,,,,,,,,,,,,,,,,,,,,,,,,,,,,,,,,,,,,,,,,,,,,,,,,,,,,,,,,,,,,,,,,,,,,,551.0563,553.0709,,,,,,,,,,,,,,,,,,,,,,,,,,,,,,
,,,,,,,,,5aecad0e75deca000162634c,Spanish,13 or older,"no, only English or Spanish",no,2025-08-12_14h08.32.200,empathy_intonation_perc,2024.2.4,Win32,59.88023952,5aecad0e75deca000162634c,687ed1b7e638a4cbf2f02089,689b82e5f30608e57fdc9dea,,,,,,,,,,,,,,0,,,,,,,,,,,,,,,,,,,,,,,,,,,,,,,,,,,,,,,,,,,,,,,,,,,,,,,,,84,escuto,,,,,553.0881,555.3351,0,1,1.7128,,0,0,0,83,1,REAL,FAKE,,,,,,,,,,,,,,,,,
,,,,,,,,,5aecad0e75deca000162634c,Spanish,13 or older,"no, only English or Spanish",no,2025-08-12_14h08.32.200,empathy_intonation_perc,2024.2.4,Win32,59.88023952,5aecad0e75deca000162634c,687ed1b7e638a4cbf2f02089,689b82e5f30608e57fdc9dea,,,,,,,,,,,,,,1,,,,,,,,,,,,,,,,,,,,,,,,,,,,,,,,,,,,,,,,,,,,,,,,,,,,,,,,,11,cenefa,,,,,555.3376,556.933,0,0,1.0636,,0,1,1,10,1,REAL,FAKE,,,,,,,,,,,,,,,,,
,,,,,,,,,5aecad0e75deca000162634c,Spanish,13 or older,"no, only English or Spanish",no,2025-08-12_14h08.32.200,empathy_intonation_perc,2024.2.4,Win32,59.88023952,5aecad0e75deca000162634c,687ed1b7e638a4cbf2f02089,689b82e5f30608e57fdc9dea,,,,,,,,,,,,,,1,,,,,,,,,,,,,,,,,,,,,,,,,,,,,,,,,,,,,,,,,,,,,,,,,,,,,,,,,45,jilguero,,,,,556.9353,558.7144,0,0,1.247,,0,2,2,44,1,REAL,FAKE,,,,,,,,,,,,,,,,,
,,,,,,,,,5aecad0e75deca000162634c,Spanish,13 or older,"no, only English or Spanish",no,2025-08-12_14h08.32.200,empathy_intonation_perc,2024.2.4,Win32,59.88023952,5aecad0e75deca000162634c,687ed1b7e638a4cbf2f02089,689b82e5f30608e57fdc9dea,,,,,,,,,,,,,,1,,,,,,,,,,,,,,,,,,,,,,,,,,,,,,,,,,,,,,,,,,,,,,,,,,,,,,,,,55,nevar,,,,,558.7172,561.0122,1,1,1.7625,,0,3,3,54,1,REAL,FAKE,,,,,,,,,,,,,,,,,
,,,,,,,,,5aecad0e75deca000162634c,Spanish,13 or older,"no, only English or Spanish",no,2025-08-12_14h08.32.200,empathy_intonation_perc,2024.2.4,Win32,59.88023952,5aecad0e75deca000162634c,687ed1b7e638a4cbf2f02089,689b82e5f30608e57fdc9dea,,,,,,,,,,,,,,1,,,,,,,,,,,,,,,,,,,,,,,,,,,,,,,,,,,,,,,,,,,,,,,,,,,,,,,,,78,frondoso,,,,,561.0142,562.6436,0,0,1.0949,,0,4,4,77,1,REAL,FAKE,,,,,,,,,,,,,,,,,
,,,,,,,,,5aecad0e75deca000162634c,Spanish,13 or older,"no, only English or Spanish",no,2025-08-12_14h08.32.200,empathy_intonation_perc,2024.2.4,Win32,59.88023952,5aecad0e75deca000162634c,687ed1b7e638a4cbf2f02089,689b82e5f30608e57fdc9dea,,,,,,,,,,,,,,1,,,,,,,,,,,,,,,,,,,,,,,,,,,,,,,,,,,,,,,,,,,,,,,,,,,,,,,,,89,prisa,,,,,562.6458,563.8591,1,1,0.6826,,0,5,5,88,1,REAL,FAKE,,,,,,,,,,,,,,,,,
,,,,,,,,,5aecad0e75deca000162634c,Spanish,13 or older,"no, only English or Spanish",no,2025-08-12_14h08.32.200,empathy_intonation_perc,2024.2.4,Win32,59.88023952,5aecad0e75deca000162634c,687ed1b7e638a4cbf2f02089,689b82e5f30608e57fdc9dea,,,,,,,,,,,,,,1,,,,,,,,,,,,,,,,,,,,,,,,,,,,,,,,,,,,,,,,,,,,,,,,,,,,,,,,,41,rebuscar,,,,,563.8614,565.6572,1,1,1.2611,,0,6,6,40,1,REAL,FAKE,,,,,,,,,,,,,,,,,
,,,,,,,,,5aecad0e75deca000162634c,Spanish,13 or older,"no, only English or Spanish",no,2025-08-12_14h08.32.200,empathy_intonation_perc,2024.2.4,Win32,59.88023952,5aecad0e75deca000162634c,687ed1b7e638a4cbf2f02089,689b82e5f30608e57fdc9dea,,,,,,,,,,,,,,0,,,,,,,,,,,,,,,,,,,,,,,,,,,,,,,,,,,,,,,,,,,,,,,,,,,,,,,,,21,capillo,,,,,565.6596,567.2388,0,1,1.0483,,0,7,7,20,1,REAL,FAKE,,,,,,,,,,,,,,,,,
,,,,,,,,,5aecad0e75deca000162634c,Spanish,13 or older,"no, only English or Spanish",no,2025-08-12_14h08.32.200,empathy_intonation_perc,2024.2.4,Win32,59.88023952,5aecad0e75deca000162634c,687ed1b7e638a4cbf2f02089,689b82e5f30608e57fdc9dea,,,,,,,,,,,,,,1,,,,,,,,,,,,,,,,,,,,,,,,,,,,,,,,,,,,,,,,,,,,,,,,,,,,,,,,,25,bisagra,,,,,567.2411,569.3201,0,0,1.5457,,0,8,8,24,1,REAL,FAKE,,,,,,,,,,,,,,,,,
,,,,,,,,,5aecad0e75deca000162634c,Spanish,13 or older,"no, only English or Spanish",no,2025-08-12_14h08.32.200,empathy_intonation_perc,2024.2.4,Win32,59.88023952,5aecad0e75deca000162634c,687ed1b7e638a4cbf2f02089,689b82e5f30608e57fdc9dea,,,,,,,,,,,,,,1,,,,,,,,,,,,,,,,,,,,,,,,,,,,,,,,,,,,,,,,,,,,,,,,,,,,,,,,,5,zapato,,,,,569.3231,570.4855,1,1,0.6297,,0,9,9,4,1,REAL,FAKE,,,,,,,,,,,,,,,,,
,,,,,,,,,5aecad0e75deca000162634c,Spanish,13 or older,"no, only English or Spanish",no,2025-08-12_14h08.32.200,empathy_intonation_perc,2024.2.4,Win32,59.88023952,5aecad0e75deca000162634c,687ed1b7e638a4cbf2f02089,689b82e5f30608e57fdc9dea,,,,,,,,,,,,,,0,,,,,,,,,,,,,,,,,,,,,,,,,,,,,,,,,,,,,,,,,,,,,,,,,,,,,,,,,35,rompido,,,,,570.4881,572.1348,0,1,1.1221,,0,10,10,34,1,REAL,FAKE,,,,,,,,,,,,,,,,,
,,,,,,,,,5aecad0e75deca000162634c,Spanish,13 or older,"no, only English or Spanish",no,2025-08-12_14h08.32.200,empathy_intonation_perc,2024.2.4,Win32,59.88023952,5aecad0e75deca000162634c,687ed1b7e638a4cbf2f02089,689b82e5f30608e57fdc9dea,,,,,,,,,,,,,,1,,,,,,,,,,,,,,,,,,,,,,,,,,,,,,,,,,,,,,,,,,,,,,,,,,,,,,,,,73,hervidor,,,,,572.1374,574.0817,1,1,1.4203,,0,11,11,72,1,REAL,FAKE,,,,,,,,,,,,,,,,,
,,,,,,,,,5aecad0e75deca000162634c,Spanish,13 or older,"no, only English or Spanish",no,2025-08-12_14h08.32.200,empathy_intonation_perc,2024.2.4,Win32,59.88023952,5aecad0e75deca000162634c,687ed1b7e638a4cbf2f02089,689b82e5f30608e57fdc9dea,,,,,,,,,,,,,,1,,,,,,,,,,,,,,,,,,,,,,,,,,,,,,,,,,,,,,,,,,,,,,,,,,,,,,,,,31,pandilla,,,,,574.0844,575.7134,1,1,1.096,,0,12,12,30,1,REAL,FAKE,,,,,,,,,,,,,,,,,
,,,,,,,,,5aecad0e75deca000162634c,Spanish,13 or older,"no, only English or Spanish",no,2025-08-12_14h08.32.200,empathy_intonation_perc,2024.2.4,Win32,59.88023952,5aecad0e75deca000162634c,687ed1b7e638a4cbf2f02089,689b82e5f30608e57fdc9dea,,,,,,,,,,,,,,1,,,,,,,,,,,,,,,,,,,,,,,,,,,,,,,,,,,,,,,,,,,,,,,,,,,,,,,,,43,canela,,,,,575.7158,577.2287,1,1,0.9839,,0,13,13,42,1,REAL,FAKE,,,,,,,,,,,,,,,,,
,,,,,,,,,5aecad0e75deca000162634c,Spanish,13 or older,"no, only English or Spanish",no,2025-08-12_14h08.32.200,empathy_intonation_perc,2024.2.4,Win32,59.88023952,5aecad0e75deca000162634c,687ed1b7e638a4cbf2f02089,689b82e5f30608e57fdc9dea,,,,,,,,,,,,,,0,,,,,,,,,,,,,,,,,,,,,,,,,,,,,,,,,,,,,,,,,,,,,,,,,,,,,,,,,8,cadeña,,,,,577.2316,579.0773,1,0,1.3208,,0,14,14,7,1,REAL,FAKE,,,,,,,,,,,,,,,,,
,,,,,,,,,5aecad0e75deca000162634c,Spanish,13 or older,"no, only English or Spanish",no,2025-08-12_14h08.32.200,empathy_intonation_perc,2024.2.4,Win32,59.88023952,5aecad0e75deca000162634c,687ed1b7e638a4cbf2f02089,689b82e5f30608e57fdc9dea,,,,,,,,,,,,,,0,,,,,,,,,,,,,,,,,,,,,,,,,,,,,,,,,,,,,,,,,,,,,,,,,,,,,,,,,50,flamida,,,,,579.0799,580.8581,0,1,1.2449,,0,15,15,49,1,REAL,FAKE,,,,,,,,,,,,,,,,,
,,,,,,,,,5aecad0e75deca000162634c,Spanish,13 or older,"no, only English or Spanish",no,2025-08-12_14h08.32.200,empathy_intonation_perc,2024.2.4,Win32,59.88023952,5aecad0e75deca000162634c,687ed1b7e638a4cbf2f02089,689b82e5f30608e57fdc9dea,,,,,,,,,,,,,,0,,,,,,,,,,,,,,,,,,,,,,,,,,,,,,,,,,,,,,,,,,,,,,,,,,,,,,,,,42,cadallo,,,,,580.8606,582.5231,1,0,1.1381,,0,16,16,41,1,REAL,FAKE,,,,,,,,,,,,,,,,,
,,,,,,,,,5aecad0e75deca000162634c,Spanish,13 or older,"no, only English or Spanish",no,2025-08-12_14h08.32.200,empathy_intonation_perc,2024.2.4,Win32,59.88023952,5aecad0e75deca000162634c,687ed1b7e638a4cbf2f02089,689b82e5f30608e57fdc9dea,,,,,,,,,,,,,,0,,,,,,,,,,,,,,,,,,,,,,,,,,,,,,,,,,,,,,,,,,,,,,,,,,,,,,,,,58,plaudir,,,,,582.5256,583.8884,0,1,0.8367,,0,17,17,57,1,REAL,FAKE,,,,,,,,,,,,,,,,,
,,,,,,,,,5aecad0e75deca000162634c,Spanish,13 or older,"no, only English or Spanish",no,2025-08-12_14h08.32.200,empathy_intonation_perc,2024.2.4,Win32,59.88023952,5aecad0e75deca000162634c,687ed1b7e638a4cbf2f02089,689b82e5f30608e57fdc9dea,,,,,,,,,,,,,,1,,,,,,,,,,,,,,,,,,,,,,,,,,,,,,,,,,,,,,,,,,,,,,,,,,,,,,,,,7,pésimo,,,,,583.8909,585.4866,1,1,1.0614,,0,18,18,6,1,REAL,FAKE,,,,,,,,,,,,,,,,,
,,,,,,,,,5aecad0e75deca000162634c,Spanish,13 or older,"no, only English or Spanish",no,2025-08-12_14h08.32.200,empathy_intonation_perc,2024.2.4,Win32,59.88023952,5aecad0e75deca000162634c,687ed1b7e638a4cbf2f02089,689b82e5f30608e57fdc9dea,,,,,,,,,,,,,,1,,,,,,,,,,,,,,,,,,,,,,,,,,,,,,,,,,,,,,,,,,,,,,,,,,,,,,,,,37,granuja,,,,,585.4892,586.7853,0,0,0.771,,0,19,19,36,1,REAL,FAKE,,,,,,,,,,,,,,,,,
,,,,,,,,,5aecad0e75deca000162634c,Spanish,13 or older,"no, only English or Spanish",no,2025-08-12_14h08.32.200,empathy_intonation_perc,2024.2.4,Win32,59.88023952,5aecad0e75deca000162634c,687ed1b7e638a4cbf2f02089,689b82e5f30608e57fdc9dea,,,,,,,,,,,,,,0,,,,,,,,,,,,,,,,,,,,,,,,,,,,,,,,,,,,,,,,,,,,,,,,,,,,,,,,,1,terzo,,,,,586.788,588.5837,0,1,1.2638,,0,20,20,0,1,REAL,FAKE,,,,,,,,,,,,,,,,,
,,,,,,,,,5aecad0e75deca000162634c,Spanish,13 or older,"no, only English or Spanish",no,2025-08-12_14h08.32.200,empathy_intonation_perc,2024.2.4,Win32,59.88023952,5aecad0e75deca000162634c,687ed1b7e638a4cbf2f02089,689b82e5f30608e57fdc9dea,,,,,,,,,,,,,,1,,,,,,,,,,,,,,,,,,,,,,,,,,,,,,,,,,,,,,,,,,,,,,,,,,,,,,,,,61,seda,,,,,588.586,590.3816,0,0,1.263,,0,21,21,60,1,REAL,FAKE,,,,,,,,,,,,,,,,,
,,,,,,,,,5aecad0e75deca000162634c,Spanish,13 or older,"no, only English or Spanish",no,2025-08-12_14h08.32.200,empathy_intonation_perc,2024.2.4,Win32,59.88023952,5aecad0e75deca000162634c,687ed1b7e638a4cbf2f02089,689b82e5f30608e57fdc9dea,,,,,,,,,,,,,,1,,,,,,,,,,,,,,,,,,,,,,,,,,,,,,,,,,,,,,,,,,,,,,,,,,,,,,,,,20,ávido,,,,,590.3847,591.7635,1,1,0.8464,,0,22,22,19,1,REAL,FAKE,,,,,,,,,,,,,,,,,
,,,,,,,,,5aecad0e75deca000162634c,Spanish,13 or older,"no, only English or Spanish",no,2025-08-12_14h08.32.200,empathy_intonation_perc,2024.2.4,Win32,59.88023952,5aecad0e75deca000162634c,687ed1b7e638a4cbf2f02089,689b82e5f30608e57fdc9dea,,,,,,,,,,,,,,1,,,,,,,,,,,,,,,,,,,,,,,,,,,,,,,,,,,,,,,,,,,,,,,,,,,,,,,,,51,candado,,,,,591.7659,594.211,1,1,1.9123,,0,23,23,50,1,REAL,FAKE,,,,,,,,,,,,,,,,,
,,,,,,,,,5aecad0e75deca000162634c,Spanish,13 or older,"no, only English or Spanish",no,2025-08-12_14h08.32.200,empathy_intonation_perc,2024.2.4,Win32,59.88023952,5aecad0e75deca000162634c,687ed1b7e638a4cbf2f02089,689b82e5f30608e57fdc9dea,,,,,,,,,,,,,,1,,,,,,,,,,,,,,,,,,,,,,,,,,,,,,,,,,,,,,,,,,,,,,,,,,,,,,,,,22,lacayo,,,,,594.2135,595.6596,0,0,0.9191,,0,24,24,21,1,REAL,FAKE,,,,,,,,,,,,,,,,,
,,,,,,,,,5aecad0e75deca000162634c,Spanish,13 or older,"no, only English or Spanish",no,2025-08-12_14h08.32.200,empathy_intonation_perc,2024.2.4,Win32,59.88023952,5aecad0e75deca000162634c,687ed1b7e638a4cbf2f02089,689b82e5f30608e57fdc9dea,,,,,,,,,,,,,,0,,,,,,,,,,,,,,,,,,,,,,,,,,,,,,,,,,,,,,,,,,,,,,,,,,,,,,,,,33,pauca,,,,,595.6624,596.9581,0,1,0.7638,,0,25,25,32,1,REAL,FAKE,,,,,,,,,,,,,,,,,
,,,,,,,,,5aecad0e75deca000162634c,Spanish,13 or older,"no, only English or Spanish",no,2025-08-12_14h08.32.200,empathy_intonation_perc,2024.2.4,Win32,59.88023952,5aecad0e75deca000162634c,687ed1b7e638a4cbf2f02089,689b82e5f30608e57fdc9dea,,,,,,,,,,,,,,1,,,,,,,,,,,,,,,,,,,,,,,,,,,,,,,,,,,,,,,,,,,,,,,,,,,,,,,,,56,musgo,,,,,596.9605,598.3067,0,0,0.815,,0,26,26,55,1,REAL,FAKE,,,,,,,,,,,,,,,,,
,,,,,,,,,5aecad0e75deca000162634c,Spanish,13 or older,"no, only English or Spanish",no,2025-08-12_14h08.32.200,empathy_intonation_perc,2024.2.4,Win32,59.88023952,5aecad0e75deca000162634c,687ed1b7e638a4cbf2f02089,689b82e5f30608e57fdc9dea,,,,,,,,,,,,,,1,,,,,,,,,,,,,,,,,,,,,,,,,,,,,,,,,,,,,,,,,,,,,,,,,,,,,,,,,68,alegre,,,,,598.3091,599.4388,1,1,0.597,,0,27,27,67,1,REAL,FAKE,,,,,,,,,,,,,,,,,
,,,,,,,,,5aecad0e75deca000162634c,Spanish,13 or older,"no, only English or Spanish",no,2025-08-12_14h08.32.200,empathy_intonation_perc,2024.2.4,Win32,59.88023952,5aecad0e75deca000162634c,687ed1b7e638a4cbf2f02089,689b82e5f30608e57fdc9dea,,,,,,,,,,,,,,0,,,,,,,,,,,,,,,,,,,,,,,,,,,,,,,,,,,,,,,,,,,,,,,,,,,,,,,,,72,pemición,,,,,599.4418,600.8707,0,1,0.9,,0,28,28,71,1,REAL,FAKE,,,,,,,,,,,,,,,,,
,,,,,,,,,5aecad0e75deca000162634c,Spanish,13 or older,"no, only English or Spanish",no,2025-08-12_14h08.32.200,empathy_intonation_perc,2024.2.4,Win32,59.88023952,5aecad0e75deca000162634c,687ed1b7e638a4cbf2f02089,689b82e5f30608e57fdc9dea,,,,,,,,,,,,,,1,,,,,,,,,,,,,,,,,,,,,,,,,,,,,,,,,,,,,,,,,,,,,,,,,,,,,,,,,46,martillo,,,,,600.8731,602.2026,1,1,0.8015,,0,29,29,45,1,REAL,FAKE,,,,,,,,,,,,,,,,,
,,,,,,,,,5aecad0e75deca000162634c,Spanish,13 or older,"no, only English or Spanish",no,2025-08-12_14h08.32.200,empathy_intonation_perc,2024.2.4,Win32,59.88023952,5aecad0e75deca000162634c,687ed1b7e638a4cbf2f02089,689b82e5f30608e57fdc9dea,,,,,,,,,,,,,,0,,,,,,,,,,,,,,,,,,,,,,,,,,,,,,,,,,,,,,,,,,,,,,,,,,,,,,,,,29,decar,,,,,602.2057,603.6192,1,0,0.8902,,0,30,30,28,1,REAL,FAKE,,,,,,,,,,,,,,,,,
,,,,,,,,,5aecad0e75deca000162634c,Spanish,13 or older,"no, only English or Spanish",no,2025-08-12_14h08.32.200,empathy_intonation_perc,2024.2.4,Win32,59.88023952,5aecad0e75deca000162634c,687ed1b7e638a4cbf2f02089,689b82e5f30608e57fdc9dea,,,,,,,,,,,,,,1,,,,,,,,,,,,,,,,,,,,,,,,,,,,,,,,,,,,,,,,,,,,,,,,,,,,,,,,,9,hacha,,,,,603.6216,605.3826,1,1,1.2286,,0,31,31,8,1,REAL,FAKE,,,,,,,,,,,,,,,,,
,,,,,,,,,5aecad0e75deca000162634c,Spanish,13 or older,"no, only English or Spanish",no,2025-08-12_14h08.32.200,empathy_intonation_perc,2024.2.4,Win32,59.88023952,5aecad0e75deca000162634c,687ed1b7e638a4cbf2f02089,689b82e5f30608e57fdc9dea,,,,,,,,,,,,,,0,,,,,,,,,,,,,,,,,,,,,,,,,,,,,,,,,,,,,,,,,,,,,,,,,,,,,,,,,4,batillón,,,,,605.3852,607.4978,1,0,1.5885,,0,32,32,3,1,REAL,FAKE,,,,,,,,,,,,,,,,,
,,,,,,,,,5aecad0e75deca000162634c,Spanish,13 or older,"no, only English or Spanish",no,2025-08-12_14h08.32.200,empathy_intonation_perc,2024.2.4,Win32,59.88023952,5aecad0e75deca000162634c,687ed1b7e638a4cbf2f02089,689b82e5f30608e57fdc9dea,,,,,,,,,,,,,,1,,,,,,,,,,,,,,,,,,,,,,,,,,,,,,,,,,,,,,,,,,,,,,,,,,,,,,,,,52,camisa,,,,,607.5009,608.8958,0,0,0.8651,,0,33,33,51,1,REAL,FAKE,,,,,,,,,,,,,,,,,
,,,,,,,,,5aecad0e75deca000162634c,Spanish,13 or older,"no, only English or Spanish",no,2025-08-12_14h08.32.200,empathy_intonation_perc,2024.2.4,Win32,59.88023952,5aecad0e75deca000162634c,687ed1b7e638a4cbf2f02089,689b82e5f30608e57fdc9dea,,,,,,,,,,,,,,0,,,,,,,,,,,,,,,,,,,,,,,,,,,,,,,,,,,,,,,,,,,,,,,,,,,,,,,,,16,abracer,,,,,608.8983,610.3275,1,0,0.8994,,0,34,34,15,1,REAL,FAKE,,,,,,,,,,,,,,,,,
,,,,,,,,,5aecad0e75deca000162634c,Spanish,13 or older,"no, only English or Spanish",no,2025-08-12_14h08.32.200,empathy_intonation_perc,2024.2.4,Win32,59.88023952,5aecad0e75deca000162634c,687ed1b7e638a4cbf2f02089,689b82e5f30608e57fdc9dea,,,,,,,,,,,,,,1,,,,,,,,,,,,,,,,,,,,,,,,,,,,,,,,,,,,,,,,,,,,,,,,,,,,,,,,,62,flaco,,,,,610.3299,611.7594,1,1,0.8973,,0,35,35,61,1,REAL,FAKE,,,,,,,,,,,,,,,,,
,,,,,,,,,5aecad0e75deca000162634c,Spanish,13 or older,"no, only English or Spanish",no,2025-08-12_14h08.32.200,empathy_intonation_perc,2024.2.4,Win32,59.88023952,5aecad0e75deca000162634c,687ed1b7e638a4cbf2f02089,689b82e5f30608e57fdc9dea,,,,,,,,,,,,,,0,,,,,,,,,,,,,,,,,,,,,,,,,,,,,,,,,,,,,,,,,,,,,,,,,,,,,,,,,87,grodo,,,,,611.7622,613.1749,0,1,0.8789,,0,36,36,86,1,REAL,FAKE,,,,,,,,,,,,,,,,,
,,,,,,,,,5aecad0e75deca000162634c,Spanish,13 or older,"no, only English or Spanish",no,2025-08-12_14h08.32.200,empathy_intonation_perc,2024.2.4,Win32,59.88023952,5aecad0e75deca000162634c,687ed1b7e638a4cbf2f02089,689b82e5f30608e57fdc9dea,,,,,,,,,,,,,,0,,,,,,,,,,,,,,,,,,,,,,,,,,,,,,,,,,,,,,,,,,,,,,,,,,,,,,,,,27,acutación,,,,,613.1777,615.3724,0,1,1.6675,,0,37,37,26,1,REAL,FAKE,,,,,,,,,,,,,,,,,
,,,,,,,,,5aecad0e75deca000162634c,Spanish,13 or older,"no, only English or Spanish",no,2025-08-12_14h08.32.200,empathy_intonation_perc,2024.2.4,Win32,59.88023952,5aecad0e75deca000162634c,687ed1b7e638a4cbf2f02089,689b82e5f30608e57fdc9dea,,,,,,,,,,,,,,0,,,,,,,,,,,,,,,,,,,,,,,,,,,,,,,,,,,,,,,,,,,,,,,,,,,,,,,,,32,fatacidad,,,,,615.3748,616.7376,0,1,0.8303,,0,38,38,31,1,REAL,FAKE,,,,,,,,,,,,,,,,,
,,,,,,,,,5aecad0e75deca000162634c,Spanish,13 or older,"no, only English or Spanish",no,2025-08-12_14h08.32.200,empathy_intonation_perc,2024.2.4,Win32,59.88023952,5aecad0e75deca000162634c,687ed1b7e638a4cbf2f02089,689b82e5f30608e57fdc9dea,,,,,,,,,,,,,,1,,,,,,,,,,,,,,,,,,,,,,,,,,,,,,,,,,,,,,,,,,,,,,,,,,,,,,,,,57,tacaño,,,,,616.7407,618.7189,0,0,1.4482,,0,39,39,56,1,REAL,FAKE,,,,,,,,,,,,,,,,,
,,,,,,,,,5aecad0e75deca000162634c,Spanish,13 or older,"no, only English or Spanish",no,2025-08-12_14h08.32.200,empathy_intonation_perc,2024.2.4,Win32,59.88023952,5aecad0e75deca000162634c,687ed1b7e638a4cbf2f02089,689b82e5f30608e57fdc9dea,,,,,,,,,,,,,,0,,,,,,,,,,,,,,,,,,,,,,,,,,,,,,,,,,,,,,,,,,,,,,,,,,,,,,,,,23,lampera,,,,,618.7214,619.9676,1,0,0.7133,,0,40,40,22,1,REAL,FAKE,,,,,,,,,,,,,,,,,
,,,,,,,,,5aecad0e75deca000162634c,Spanish,13 or older,"no, only English or Spanish",no,2025-08-12_14h08.32.200,empathy_intonation_perc,2024.2.4,Win32,59.88023952,5aecad0e75deca000162634c,687ed1b7e638a4cbf2f02089,689b82e5f30608e57fdc9dea,,,,,,,,,,,,,,1,,,,,,,,,,,,,,,,,,,,,,,,,,,,,,,,,,,,,,,,,,,,,,,,,,,,,,,,,2,pellizcar,,,,,619.9701,621.3159,1,1,0.8203,,0,41,41,1,1,REAL,FAKE,,,,,,,,,,,,,,,,,
,,,,,,,,,5aecad0e75deca000162634c,Spanish,13 or older,"no, only English or Spanish",no,2025-08-12_14h08.32.200,empathy_intonation_perc,2024.2.4,Win32,59.88023952,5aecad0e75deca000162634c,687ed1b7e638a4cbf2f02089,689b82e5f30608e57fdc9dea,,,,,,,,,,,,,,0,,,,,,,,,,,,,,,,,,,,,,,,,,,,,,,,,,,,,,,,,,,,,,,,,,,,,,,,,63,esposante,,,,,621.3173,623.4309,1,0,1.5799,,0,42,42,62,1,REAL,FAKE,,,,,,,,,,,,,,,,,
,,,,,,,,,5aecad0e75deca000162634c,Spanish,13 or older,"no, only English or Spanish",no,2025-08-12_14h08.32.200,empathy_intonation_perc,2024.2.4,Win32,59.88023952,5aecad0e75deca000162634c,687ed1b7e638a4cbf2f02089,689b82e5f30608e57fdc9dea,,,,,,,,,,,,,,0,,,,,,,,,,,,,,,,,,,,,,,,,,,,,,,,,,,,,,,,,,,,,,,,,,,,,,,,,17,floroso,,,,,623.4335,625.6284,0,1,1.6656,,0,43,43,16,1,REAL,FAKE,,,,,,,,,,,,,,,,,
,,,,,,,,,5aecad0e75deca000162634c,Spanish,13 or older,"no, only English or Spanish",no,2025-08-12_14h08.32.200,empathy_intonation_perc,2024.2.4,Win32,59.88023952,5aecad0e75deca000162634c,687ed1b7e638a4cbf2f02089,689b82e5f30608e57fdc9dea,,,,,,,,,,,,,,1,,,,,,,,,,,,,,,,,,,,,,,,,,,,,,,,,,,,,,,,,,,,,,,,,,,,,,,,,85,laúd,,,,,625.6313,626.9772,0,0,0.814,,0,44,44,84,1,REAL,FAKE,,,,,,,,,,,,,,,,,
,,,,,,,,,5aecad0e75deca000162634c,Spanish,13 or older,"no, only English or Spanish",no,2025-08-12_14h08.32.200,empathy_intonation_perc,2024.2.4,Win32,59.88023952,5aecad0e75deca000162634c,687ed1b7e638a4cbf2f02089,689b82e5f30608e57fdc9dea,,,,,,,,,,,,,,1,,,,,,,,,,,,,,,,,,,,,,,,,,,,,,,,,,,,,,,,,,,,,,,,,,,,,,,,,6,tergiversar,,,,,626.9797,628.2921,0,0,0.7826,,0,45,45,5,1,REAL,FAKE,,,,,,,,,,,,,,,,,
,,,,,,,,,5aecad0e75deca000162634c,Spanish,13 or older,"no, only English or Spanish",no,2025-08-12_14h08.32.200,empathy_intonation_perc,2024.2.4,Win32,59.88023952,5aecad0e75deca000162634c,687ed1b7e638a4cbf2f02089,689b82e5f30608e57fdc9dea,,,,,,,,,,,,,,1,,,,,,,,,,,,,,,,,,,,,,,,,,,,,,,,,,,,,,,,,,,,,,,,,,,,,,,,,75,yacer,,,,,628.2933,629.5413,0,0,0.7184,,0,46,46,74,1,REAL,FAKE,,,,,,,,,,,,,,,,,
,,,,,,,,,5aecad0e75deca000162634c,Spanish,13 or older,"no, only English or Spanish",no,2025-08-12_14h08.32.200,empathy_intonation_perc,2024.2.4,Win32,59.88023952,5aecad0e75deca000162634c,687ed1b7e638a4cbf2f02089,689b82e5f30608e57fdc9dea,,,,,,,,,,,,,,0,,,,,,,,,,,,,,,,,,,,,,,,,,,,,,,,,,,,,,,,,,,,,,,,,,,,,,,,,10,antar,,,,,629.5438,632.4381,0,1,2.3617,,0,47,47,9,1,REAL,FAKE,,,,,,,,,,,,,,,,,
,,,,,,,,,5aecad0e75deca000162634c,Spanish,13 or older,"no, only English or Spanish",no,2025-08-12_14h08.32.200,empathy_intonation_perc,2024.2.4,Win32,59.88023952,5aecad0e75deca000162634c,687ed1b7e638a4cbf2f02089,689b82e5f30608e57fdc9dea,,,,,,,,,,,,,,1,,,,,,,,,,,,,,,,,,,,,,,,,,,,,,,,,,,,,,,,,,,,,,,,,,,,,,,,,90,clavel,,,,,632.4405,633.9368,0,0,0.9684,,0,48,48,89,1,REAL,FAKE,,,,,,,,,,,,,,,,,
,,,,,,,,,5aecad0e75deca000162634c,Spanish,13 or older,"no, only English or Spanish",no,2025-08-12_14h08.32.200,empathy_intonation_perc,2024.2.4,Win32,59.88023952,5aecad0e75deca000162634c,687ed1b7e638a4cbf2f02089,689b82e5f30608e57fdc9dea,,,,,,,,,,,,,,0,,,,,,,,,,,,,,,,,,,,,,,,,,,,,,,,,,,,,,,,,,,,,,,,,,,,,,,,,18,arsa,,,,,633.9392,635.4684,0,1,0.9976,,0,49,49,17,1,REAL,FAKE,,,,,,,,,,,,,,,,,
,,,,,,,,,5aecad0e75deca000162634c,Spanish,13 or older,"no, only English or Spanish",no,2025-08-12_14h08.32.200,empathy_intonation_perc,2024.2.4,Win32,59.88023952,5aecad0e75deca000162634c,687ed1b7e638a4cbf2f02089,689b82e5f30608e57fdc9dea,,,,,,,,,,,,,,1,,,,,,,,,,,,,,,,,,,,,,,,,,,,,,,,,,,,,,,,,,,,,,,,,,,,,,,,,12,asesinato,,,,,635.4712,636.95,1,1,0.9462,,0,50,50,11,1,REAL,FAKE,,,,,,,,,,,,,,,,,
,,,,,,,,,5aecad0e75deca000162634c,Spanish,13 or older,"no, only English or Spanish",no,2025-08-12_14h08.32.200,empathy_intonation_perc,2024.2.4,Win32,59.88023952,5aecad0e75deca000162634c,687ed1b7e638a4cbf2f02089,689b82e5f30608e57fdc9dea,,,,,,,,,,,,,,1,,,,,,,,,,,,,,,,,,,,,,,,,,,,,,,,,,,,,,,,,,,,,,,,,,,,,,,,,28,merodear,,,,,636.9526,639.1478,0,0,1.6702,,0,51,51,27,1,REAL,FAKE,,,,,,,,,,,,,,,,,
,,,,,,,,,5aecad0e75deca000162634c,Spanish,13 or older,"no, only English or Spanish",no,2025-08-12_14h08.32.200,empathy_intonation_perc,2024.2.4,Win32,59.88023952,5aecad0e75deca000162634c,687ed1b7e638a4cbf2f02089,689b82e5f30608e57fdc9dea,,,,,,,,,,,,,,1,,,,,,,,,,,,,,,,,,,,,,,,,,,,,,,,,,,,,,,,,,,,,,,,,,,,,,,,,64,orgulloso,,,,,639.1511,640.4465,0,0,0.7687,,0,52,52,63,1,REAL,FAKE,,,,,,,,,,,,,,,,,
,,,,,,,,,5aecad0e75deca000162634c,Spanish,13 or older,"no, only English or Spanish",no,2025-08-12_14h08.32.200,empathy_intonation_perc,2024.2.4,Win32,59.88023952,5aecad0e75deca000162634c,687ed1b7e638a4cbf2f02089,689b82e5f30608e57fdc9dea,,,,,,,,,,,,,,1,,,,,,,,,,,,,,,,,,,,,,,,,,,,,,,,,,,,,,,,,,,,,,,,,,,,,,,,,91,click the 1 key.,,,,,640.4501,642.6775,1,1,1.6949,,0,53,53,90,1,REAL,FAKE,,,,,,,,,,,,,,,,,
,,,,,,,,,5aecad0e75deca000162634c,Spanish,13 or older,"no, only English or Spanish",no,2025-08-12_14h08.32.200,empathy_intonation_perc,2024.2.4,Win32,59.88023952,5aecad0e75deca000162634c,687ed1b7e638a4cbf2f02089,689b82e5f30608e57fdc9dea,,,,,,,,,,,,,,1,,,,,,,,,,,,,,,,,,,,,,,,,,,,,,,,,,,,,,,,,,,,,,,,,,,,,,,,,77,tiburón,,,,,642.6801,644.1927,0,0,0.9781,,0,54,54,76,1,REAL,FAKE,,,,,,,,,,,,,,,,,
,,,,,,,,,5aecad0e75deca000162634c,Spanish,13 or older,"no, only English or Spanish",no,2025-08-12_14h08.32.200,empathy_intonation_perc,2024.2.4,Win32,59.88023952,5aecad0e75deca000162634c,687ed1b7e638a4cbf2f02089,689b82e5f30608e57fdc9dea,,,,,,,,,,,,,,1,,,,,,,,,,,,,,,,,,,,,,,,,,,,,,,,,,,,,,,,,,,,,,,,,,,,,,,,,54,fomentar,,,,,644.1957,645.6245,0,0,0.9053,,0,55,55,53,1,REAL,FAKE,,,,,,,,,,,,,,,,,
,,,,,,,,,5aecad0e75deca000162634c,Spanish,13 or older,"no, only English or Spanish",no,2025-08-12_14h08.32.200,empathy_intonation_perc,2024.2.4,Win32,59.88023952,5aecad0e75deca000162634c,687ed1b7e638a4cbf2f02089,689b82e5f30608e57fdc9dea,,,,,,,,,,,,,,1,,,,,,,,,,,,,,,,,,,,,,,,,,,,,,,,,,,,,,,,,,,,,,,,,,,,,,,,,67,cabello,,,,,645.6272,646.7067,1,1,0.5475,,0,56,56,66,1,REAL,FAKE,,,,,,,,,,,,,,,,,
,,,,,,,,,5aecad0e75deca000162634c,Spanish,13 or older,"no, only English or Spanish",no,2025-08-12_14h08.32.200,empathy_intonation_perc,2024.2.4,Win32,59.88023952,5aecad0e75deca000162634c,687ed1b7e638a4cbf2f02089,689b82e5f30608e57fdc9dea,,,,,,,,,,,,,,0,,,,,,,,,,,,,,,,,,,,,,,,,,,,,,,,,,,,,,,,,,,,,,,,,,,,,,,,,79,tropaje,,,,,646.709,648.6881,0,1,1.4449,,0,57,57,78,1,REAL,FAKE,,,,,,,,,,,,,,,,,
,,,,,,,,,5aecad0e75deca000162634c,Spanish,13 or older,"no, only English or Spanish",no,2025-08-12_14h08.32.200,empathy_intonation_perc,2024.2.4,Win32,59.88023952,5aecad0e75deca000162634c,687ed1b7e638a4cbf2f02089,689b82e5f30608e57fdc9dea,,,,,,,,,,,,,,1,,,,,,,,,,,,,,,,,,,,,,,,,,,,,,,,,,,,,,,,,,,,,,,,,,,,,,,,,49,ganar,,,,,648.6905,649.8367,1,1,0.6191,,0,58,58,48,1,REAL,FAKE,,,,,,,,,,,,,,,,,
,,,,,,,,,5aecad0e75deca000162634c,Spanish,13 or older,"no, only English or Spanish",no,2025-08-12_14h08.32.200,empathy_intonation_perc,2024.2.4,Win32,59.88023952,5aecad0e75deca000162634c,687ed1b7e638a4cbf2f02089,689b82e5f30608e57fdc9dea,,,,,,,,,,,,,,1,,,,,,,,,,,,,,,,,,,,,,,,,,,,,,,,,,,,,,,,,,,,,,,,,,,,,,,,,44,cuchara,,,,,649.8394,651.0854,1,1,0.7126,,0,59,59,43,1,REAL,FAKE,,,,,,,,,,,,,,,,,
,,,,,,,,,5aecad0e75deca000162634c,Spanish,13 or older,"no, only English or Spanish",no,2025-08-12_14h08.32.200,empathy_intonation_perc,2024.2.4,Win32,59.88023952,5aecad0e75deca000162634c,687ed1b7e638a4cbf2f02089,689b82e5f30608e57fdc9dea,,,,,,,,,,,,,,1,,,,,,,,,,,,,,,,,,,,,,,,,,,,,,,,,,,,,,,,,,,,,,,,,,,,,,,,,39,torpe,,,,,651.088,652.6006,1,1,0.9807,,0,60,60,38,1,REAL,FAKE,,,,,,,,,,,,,,,,,
,,,,,,,,,5aecad0e75deca000162634c,Spanish,13 or older,"no, only English or Spanish",no,2025-08-12_14h08.32.200,empathy_intonation_perc,2024.2.4,Win32,59.88023952,5aecad0e75deca000162634c,687ed1b7e638a4cbf2f02089,689b82e5f30608e57fdc9dea,,,,,,,,,,,,,,0,,,,,,,,,,,,,,,,,,,,,,,,,,,,,,,,,,,,,,,,,,,,,,,,,,,,,,,,,70,temblo,,,,,652.6031,653.8825,0,1,0.7468,,0,61,61,69,1,REAL,FAKE,,,,,,,,,,,,,,,,,
,,,,,,,,,5aecad0e75deca000162634c,Spanish,13 or older,"no, only English or Spanish",no,2025-08-12_14h08.32.200,empathy_intonation_perc,2024.2.4,Win32,59.88023952,5aecad0e75deca000162634c,687ed1b7e638a4cbf2f02089,689b82e5f30608e57fdc9dea,,,,,,,,,,,,,,0,,,,,,,,,,,,,,,,,,,,,,,,,,,,,,,,,,,,,,,,,,,,,,,,,,,,,,,,,53,vegada,,,,,653.885,655.4309,1,0,1.0119,,0,62,62,52,1,REAL,FAKE,,,,,,,,,,,,,,,,,
,,,,,,,,,5aecad0e75deca000162634c,Spanish,13 or older,"no, only English or Spanish",no,2025-08-12_14h08.32.200,empathy_intonation_perc,2024.2.4,Win32,59.88023952,5aecad0e75deca000162634c,687ed1b7e638a4cbf2f02089,689b82e5f30608e57fdc9dea,,,,,,,,,,,,,,1,,,,,,,,,,,,,,,,,,,,,,,,,,,,,,,,,,,,,,,,,,,,,,,,,,,,,,,,,59,besar,,,,,655.4334,656.7796,1,1,0.8148,,0,63,63,58,1,REAL,FAKE,,,,,,,,,,,,,,,,,
,,,,,,,,,5aecad0e75deca000162634c,Spanish,13 or older,"no, only English or Spanish",no,2025-08-12_14h08.32.200,empathy_intonation_perc,2024.2.4,Win32,59.88023952,5aecad0e75deca000162634c,687ed1b7e638a4cbf2f02089,689b82e5f30608e57fdc9dea,,,,,,,,,,,,,,1,,,,,,,,,,,,,,,,,,,,,,,,,,,,,,,,,,,,,,,,,,,,,,,,,,,,,,,,,14,yunque,,,,,656.7819,658.0782,0,0,0.7657,,0,64,64,13,1,REAL,FAKE,,,,,,,,,,,,,,,,,
,,,,,,,,,5aecad0e75deca000162634c,Spanish,13 or older,"no, only English or Spanish",no,2025-08-12_14h08.32.200,empathy_intonation_perc,2024.2.4,Win32,59.88023952,5aecad0e75deca000162634c,687ed1b7e638a4cbf2f02089,689b82e5f30608e57fdc9dea,,,,,,,,,,,,,,1,,,,,,,,,,,,,,,,,,,,,,,,,,,,,,,,,,,,,,,,,,,,,,,,,,,,,,,,,69,engatusar,,,,,658.0812,659.51,0,0,0.8951,,0,65,65,68,1,REAL,FAKE,,,,,,,,,,,,,,,,,
,,,,,,,,,5aecad0e75deca000162634c,Spanish,13 or older,"no, only English or Spanish",no,2025-08-12_14h08.32.200,empathy_intonation_perc,2024.2.4,Win32,59.88023952,5aecad0e75deca000162634c,687ed1b7e638a4cbf2f02089,689b82e5f30608e57fdc9dea,,,,,,,,,,,,,,1,,,,,,,,,,,,,,,,,,,,,,,,,,,,,,,,,,,,,,,,,,,,,,,,,,,,,,,,,26,secuestro,,,,,659.5124,661.0925,1,1,1.0527,,0,66,66,25,1,REAL,FAKE,,,,,,,,,,,,,,,,,
,,,,,,,,,5aecad0e75deca000162634c,Spanish,13 or older,"no, only English or Spanish",no,2025-08-12_14h08.32.200,empathy_intonation_perc,2024.2.4,Win32,59.88023952,5aecad0e75deca000162634c,687ed1b7e638a4cbf2f02089,689b82e5f30608e57fdc9dea,,,,,,,,,,,,,,0,,,,,,,,,,,,,,,,,,,,,,,,,,,,,,,,,,,,,,,,,,,,,,,,,,,,,,,,,66,hacido,,,,,661.0955,662.9065,1,0,1.2795,,0,67,67,65,1,REAL,FAKE,,,,,,,,,,,,,,,,,
,,,,,,,,,5aecad0e75deca000162634c,Spanish,13 or older,"no, only English or Spanish",no,2025-08-12_14h08.32.200,empathy_intonation_perc,2024.2.4,Win32,59.88023952,5aecad0e75deca000162634c,687ed1b7e638a4cbf2f02089,689b82e5f30608e57fdc9dea,,,,,,,,,,,,,,1,,,,,,,,,,,,,,,,,,,,,,,,,,,,,,,,,,,,,,,,,,,,,,,,,,,,,,,,,38,estornudar,,,,,662.9092,664.5548,0,0,1.1206,,0,68,68,37,1,REAL,FAKE,,,,,,,,,,,,,,,,,
,,,,,,,,,5aecad0e75deca000162634c,Spanish,13 or older,"no, only English or Spanish",no,2025-08-12_14h08.32.200,empathy_intonation_perc,2024.2.4,Win32,59.88023952,5aecad0e75deca000162634c,687ed1b7e638a4cbf2f02089,689b82e5f30608e57fdc9dea,,,,,,,,,,,,,,1,,,,,,,,,,,,,,,,,,,,,,,,,,,,,,,,,,,,,,,,,,,,,,,,,,,,,,,,,71,polvoriento,,,,,664.5593,666.0866,0,0,1.0006,,0,69,69,70,1,REAL,FAKE,,,,,,,,,,,,,,,,,
,,,,,,,,,5aecad0e75deca000162634c,Spanish,13 or older,"no, only English or Spanish",no,2025-08-12_14h08.32.200,empathy_intonation_perc,2024.2.4,Win32,59.88023952,5aecad0e75deca000162634c,687ed1b7e638a4cbf2f02089,689b82e5f30608e57fdc9dea,,,,,,,,,,,,,,1,,,,,,,,,,,,,,,,,,,,,,,,,,,,,,,,,,,,,,,,,,,,,,,,,,,,,,,,,65,bizcocho,,,,,666.0892,667.5193,0,0,0.905,,0,70,70,64,1,REAL,FAKE,,,,,,,,,,,,,,,,,
,,,,,,,,,5aecad0e75deca000162634c,Spanish,13 or older,"no, only English or Spanish",no,2025-08-12_14h08.32.200,empathy_intonation_perc,2024.2.4,Win32,59.88023952,5aecad0e75deca000162634c,687ed1b7e638a4cbf2f02089,689b82e5f30608e57fdc9dea,,,,,,,,,,,,,,0,,,,,,,,,,,,,,,,,,,,,,,,,,,,,,,,,,,,,,,,,,,,,,,,,,,,,,,,,92,click the 0 key.,,,,,667.5222,669.5497,0,1,1.4954,,0,71,71,91,1,REAL,FAKE,,,,,,,,,,,,,,,,,
,,,,,,,,,5aecad0e75deca000162634c,Spanish,13 or older,"no, only English or Spanish",no,2025-08-12_14h08.32.200,empathy_intonation_perc,2024.2.4,Win32,59.88023952,5aecad0e75deca000162634c,687ed1b7e638a4cbf2f02089,689b82e5f30608e57fdc9dea,,,,,,,,,,,,,,1,,,,,,,,,,,,,,,,,,,,,,,,,,,,,,,,,,,,,,,,,,,,,,,,,,,,,,,,,40,alfombra,,,,,669.5521,671.2146,0,0,1.1371,,0,72,72,39,1,REAL,FAKE,,,,,,,,,,,,,,,,,
,,,,,,,,,5aecad0e75deca000162634c,Spanish,13 or older,"no, only English or Spanish",no,2025-08-12_14h08.32.200,empathy_intonation_perc,2024.2.4,Win32,59.88023952,5aecad0e75deca000162634c,687ed1b7e638a4cbf2f02089,689b82e5f30608e57fdc9dea,,,,,,,,,,,,,,1,,,,,,,,,,,,,,,,,,,,,,,,,,,,,,,,,,,,,,,,,,,,,,,,,,,,,,,,,15,regar,,,,,671.2175,672.3967,1,1,0.6557,,0,73,73,14,1,REAL,FAKE,,,,,,,,,,,,,,,,,
,,,,,,,,,5aecad0e75deca000162634c,Spanish,13 or older,"no, only English or Spanish",no,2025-08-12_14h08.32.200,empathy_intonation_perc,2024.2.4,Win32,59.88023952,5aecad0e75deca000162634c,687ed1b7e638a4cbf2f02089,689b82e5f30608e57fdc9dea,,,,,,,,,,,,,,1,,,,,,,,,,,,,,,,,,,,,,,,,,,,,,,,,,,,,,,,,,,,,,,,,,,,,,,,,48,ladrón,,,,,672.3995,674.1615,0,0,1.2367,,0,74,74,47,1,REAL,FAKE,,,,,,,,,,,,,,,,,
,,,,,,,,,5aecad0e75deca000162634c,Spanish,13 or older,"no, only English or Spanish",no,2025-08-12_14h08.32.200,empathy_intonation_perc,2024.2.4,Win32,59.88023952,5aecad0e75deca000162634c,687ed1b7e638a4cbf2f02089,689b82e5f30608e57fdc9dea,,,,,,,,,,,,,,0,,,,,,,,,,,,,,,,,,,,,,,,,,,,,,,,,,,,,,,,,,,,,,,,,,,,,,,,,19,brecedad,,,,,674.1645,675.8598,0,1,1.1601,,0,75,75,18,1,REAL,FAKE,,,,,,,,,,,,,,,,,
,,,,,,,,,5aecad0e75deca000162634c,Spanish,13 or older,"no, only English or Spanish",no,2025-08-12_14h08.32.200,empathy_intonation_perc,2024.2.4,Win32,59.88023952,5aecad0e75deca000162634c,687ed1b7e638a4cbf2f02089,689b82e5f30608e57fdc9dea,,,,,,,,,,,,,,1,,,,,,,,,,,,,,,,,,,,,,,,,,,,,,,,,,,,,,,,,,,,,,,,,,,,,,,,,24,látigo,,,,,675.8622,677.3916,1,1,1.0044,,0,76,76,23,1,REAL,FAKE,,,,,,,,,,,,,,,,,
,,,,,,,,,5aecad0e75deca000162634c,Spanish,13 or older,"no, only English or Spanish",no,2025-08-12_14h08.32.200,empathy_intonation_perc,2024.2.4,Win32,59.88023952,5aecad0e75deca000162634c,687ed1b7e638a4cbf2f02089,689b82e5f30608e57fdc9dea,,,,,,,,,,,,,,0,,,,,,,,,,,,,,,,,,,,,,,,,,,,,,,,,,,,,,,,,,,,,,,,,,,,,,,,,82,empirador,,,,,677.3946,679.0066,1,0,1.0836,,0,77,77,81,1,REAL,FAKE,,,,,,,,,,,,,,,,,
,,,,,,,,,5aecad0e75deca000162634c,Spanish,13 or older,"no, only English or Spanish",no,2025-08-12_14h08.32.200,empathy_intonation_perc,2024.2.4,Win32,59.88023952,5aecad0e75deca000162634c,687ed1b7e638a4cbf2f02089,689b82e5f30608e57fdc9dea,,,,,,,,,,,,,,1,,,,,,,,,,,,,,,,,,,,,,,,,,,,,,,,,,,,,,,,,,,,,,,,,,,,,,,,,88,acantilado,,,,,679.009,680.838,0,0,1.2955,,0,78,78,87,1,REAL,FAKE,,,,,,,,,,,,,,,,,
,,,,,,,,,5aecad0e75deca000162634c,Spanish,13 or older,"no, only English or Spanish",no,2025-08-12_14h08.32.200,empathy_intonation_perc,2024.2.4,Win32,59.88023952,5aecad0e75deca000162634c,687ed1b7e638a4cbf2f02089,689b82e5f30608e57fdc9dea,,,,,,,,,,,,,,1,,,,,,,,,,,,,,,,,,,,,,,,,,,,,,,,,,,,,,,,,,,,,,,,,,,,,,,,,80,hormiga,,,,,680.8405,682.303,0,0,0.9324,,0,79,79,79,1,REAL,FAKE,,,,,,,,,,,,,,,,,
,,,,,,,,,5aecad0e75deca000162634c,Spanish,13 or older,"no, only English or Spanish",no,2025-08-12_14h08.32.200,empathy_intonation_perc,2024.2.4,Win32,59.88023952,5aecad0e75deca000162634c,687ed1b7e638a4cbf2f02089,689b82e5f30608e57fdc9dea,,,,,,,,,,,,,,1,,,,,,,,,,,,,,,,,,,,,,,,,,,,,,,,,,,,,,,,,,,,,,,,,,,,,,,,,3,pulmones,,,,,682.3055,683.685,1,1,0.8507,,0,80,80,2,1,REAL,FAKE,,,,,,,,,,,,,,,,,
,,,,,,,,,5aecad0e75deca000162634c,Spanish,13 or older,"no, only English or Spanish",no,2025-08-12_14h08.32.200,empathy_intonation_perc,2024.2.4,Win32,59.88023952,5aecad0e75deca000162634c,687ed1b7e638a4cbf2f02089,689b82e5f30608e57fdc9dea,,,,,,,,,,,,,,0,,,,,,,,,,,,,,,,,,,,,,,,,,,,,,,,,,,,,,,,,,,,,,,,,,,,,,,,,74,cintro,,,,,683.6875,685.0503,1,0,0.8361,,0,81,81,73,1,REAL,FAKE,,,,,,,,,,,,,,,,,
,,,,,,,,,5aecad0e75deca000162634c,Spanish,13 or older,"no, only English or Spanish",no,2025-08-12_14h08.32.200,empathy_intonation_perc,2024.2.4,Win32,59.88023952,5aecad0e75deca000162634c,687ed1b7e638a4cbf2f02089,689b82e5f30608e57fdc9dea,,,,,,,,,,,,,,1,,,,,,,,,,,,,,,,,,,,,,,,,,,,,,,,,,,,,,,,,,,,,,,,,,,,,,,,,34,aviso,,,,,685.053,686.3822,1,1,0.7965,,0,82,82,33,1,REAL,FAKE,,,,,,,,,,,,,,,,,
,,,,,,,,,5aecad0e75deca000162634c,Spanish,13 or older,"no, only English or Spanish",no,2025-08-12_14h08.32.200,empathy_intonation_perc,2024.2.4,Win32,59.88023952,5aecad0e75deca000162634c,687ed1b7e638a4cbf2f02089,689b82e5f30608e57fdc9dea,,,,,,,,,,,,,,1,,,,,,,,,,,,,,,,,,,,,,,,,,,,,,,,,,,,,,,,,,,,,,,,,,,,,,,,,86,barato,,,,,686.3851,687.8639,0,0,0.9452,,0,83,83,85,1,REAL,FAKE,,,,,,,,,,,,,,,,,
,,,,,,,,,5aecad0e75deca000162634c,Spanish,13 or older,"no, only English or Spanish",no,2025-08-12_14h08.32.200,empathy_intonation_perc,2024.2.4,Win32,59.88023952,5aecad0e75deca000162634c,687ed1b7e638a4cbf2f02089,689b82e5f30608e57fdc9dea,,,,,,,,,,,,,,1,,,,,,,,,,,,,,,,,,,,,,,,,,,,,,,,,,,,,,,,,,,,,,,,,,,,,,,,,83,guante,,,,,687.8654,689.529,1,1,1.1301,,0,84,84,82,1,REAL,FAKE,,,,,,,,,,,,,,,,,
,,,,,,,,,5aecad0e75deca000162634c,Spanish,13 or older,"no, only English or Spanish",no,2025-08-12_14h08.32.200,empathy_intonation_perc,2024.2.4,Win32,59.88023952,5aecad0e75deca000162634c,687ed1b7e638a4cbf2f02089,689b82e5f30608e57fdc9dea,,,,,,,,,,,,,,0,,,,,,,,,,,,,,,,,,,,,,,,,,,,,,,,,,,,,,,,,,,,,,,,,,,,,,,,,47,cartinar,,,,,689.5314,691.6769,0,1,1.6116,,0,85,85,46,1,REAL,FAKE,,,,,,,,,,,,,,,,,
,,,,,,,,,5aecad0e75deca000162634c,Spanish,13 or older,"no, only English or Spanish",no,2025-08-12_14h08.32.200,empathy_intonation_perc,2024.2.4,Win32,59.88023952,5aecad0e75deca000162634c,687ed1b7e638a4cbf2f02089,689b82e5f30608e57fdc9dea,,,,,,,,,,,,,,1,,,,,,,,,,,,,,,,,,,,,,,,,,,,,,,,,,,,,,,,,,,,,,,,,,,,,,,,,13,helar,,,,,691.6793,692.9754,0,0,0.7686,,0,86,86,12,1,REAL,FAKE,,,,,,,,,,,,,,,,,
,,,,,,,,,5aecad0e75deca000162634c,Spanish,13 or older,"no, only English or Spanish",no,2025-08-12_14h08.32.200,empathy_intonation_perc,2024.2.4,Win32,59.88023952,5aecad0e75deca000162634c,687ed1b7e638a4cbf2f02089,689b82e5f30608e57fdc9dea,,,,,,,,,,,,,,1,,,,,,,,,,,,,,,,,,,,,,,,,,,,,,,,,,,,,,,,,,,,,,,,,,,,,,,,,60,matar,,,,,692.9782,695.3896,0,0,1.8788,,0,87,87,59,1,REAL,FAKE,,,,,,,,,,,,,,,,,
,,,,,,,,,5aecad0e75deca000162634c,Spanish,13 or older,"no, only English or Spanish",no,2025-08-12_14h08.32.200,empathy_intonation_perc,2024.2.4,Win32,59.88023952,5aecad0e75deca000162634c,687ed1b7e638a4cbf2f02089,689b82e5f30608e57fdc9dea,,,,,,,,,,,,,,0,,,,,,,,,,,,,,,,,,,,,,,,,,,,,,,,,,,,,,,,,,,,,,,,,,,,,,,,,30,alardio,,,,,695.392,697.3876,0,1,1.4629,,0,88,88,29,1,REAL,FAKE,,,,,,,,,,,,,,,,,
,,,,,,,,,5aecad0e75deca000162634c,Spanish,13 or older,"no, only English or Spanish",no,2025-08-12_14h08.32.200,empathy_intonation_perc,2024.2.4,Win32,59.88023952,5aecad0e75deca000162634c,687ed1b7e638a4cbf2f02089,689b82e5f30608e57fdc9dea,,,,,,,,,,,,,,1,,,,,,,,,,,,,,,,,,,,,,,,,,,,,,,,,,,,,,,,,,,,,,,,,,,,,,,,,76,atar,,,,,697.39,698.7695,1,1,0.8462,,0,89,89,75,1,REAL,FAKE,,,,,,,,,,,,,,,,,
,,,,,,,,,5aecad0e75deca000162634c,Spanish,13 or older,"no, only English or Spanish",no,2025-08-12_14h08.32.200,empathy_intonation_perc,2024.2.4,Win32,59.88023952,5aecad0e75deca000162634c,687ed1b7e638a4cbf2f02089,689b82e5f30608e57fdc9dea,,,,,,,,,,,,,,1,,,,,,,,,,,,,,,,,,,,,,,,,,,,,,,,,,,,,,,,,,,,,,,,,,,,,,,,,81,pozo,,,,,698.772,700.0181,0,0,0.7188,,0,90,90,80,1,REAL,FAKE,,,,,,,,,,,,,,,,,
,,,,,,,,,5aecad0e75deca000162634c,Spanish,13 or older,"no, only English or Spanish",no,2025-08-12_14h08.32.200,empathy_intonation_perc,2024.2.4,Win32,59.88023952,5aecad0e75deca000162634c,687ed1b7e638a4cbf2f02089,689b82e5f30608e57fdc9dea,,,,,,,,,,,,,,1,,,,,,,,,,,,,,,,,,,,,,,,,,,,,,,,,,,,,,,,,,,,,,,,,,,,,,,,,36,loro,,,,,700.0205,701.4168,0,0,0.8664,,0,91,91,35,1,REAL,FAKE,,,,,,,,,,,,,,,,,
,,,,,,,,,5aecad0e75deca000162634c,Spanish,13 or older,"no, only English or Spanish",no,2025-08-12_14h08.32.200,empathy_intonation_perc,2024.2.4,Win32,59.88023952,5aecad0e75deca000162634c,687ed1b7e638a4cbf2f02089,689b82e5f30608e57fdc9dea,,,,,,,,,,,,,,,,,,,,,,,,,,,,,,,,,,,,,,,,,,,,,,,,,,,,,,,,,,,,,,,,,,,,,,,,,,,,,,,,,,,,,,,,,,701.4178,708.9766,,,,,,,,,,,,,,,
,,,,,,,,,5aecad0e75deca000162634c,Spanish,13 or older,"no, only English or Spanish",no,2025-08-12_14h08.32.200,empathy_intonation_perc,2024.2.4,Win32,59.88023952,5aecad0e75deca000162634c,687ed1b7e638a4cbf2f02089,689b82e5f30608e57fdc9dea,,,,,,,,,,,,,1,,,,,,,,,,,,,,,,,,,,,,,,,,,,,,,,,,,,,,,,,,,,,,,,,,,,,,,,,,,,,,,,,,,,,,,,,,,,,,,708.9944,717.7668,slightly disagree,0,0,0,0,1,I can easily tell if someone else wants to enter a conversation.,1,0,1,0,,
,,,,,,,,,5aecad0e75deca000162634c,Spanish,13 or older,"no, only English or Spanish",no,2025-08-12_14h08.32.200,empathy_intonation_perc,2024.2.4,Win32,59.88023952,5aecad0e75deca000162634c,687ed1b7e638a4cbf2f02089,689b82e5f30608e57fdc9dea,,,,,,,,,,,,,2,,,,,,,,,,,,,,,,,,,,,,,,,,,,,,,,,,,,,,,,,,,,,,,,,,,,,,,,,,,,,,,,,,,,,,,,,,,,,,,717.7698,721.9457,slightly agree,0,1,1,1,1,I prefer animals to humans.,0,1,0,0,,
,,,,,,,,,5aecad0e75deca000162634c,Spanish,13 or older,"no, only English or Spanish",no,2025-08-12_14h08.32.200,empathy_intonation_perc,2024.2.4,Win32,59.88023952,5aecad0e75deca000162634c,687ed1b7e638a4cbf2f02089,689b82e5f30608e57fdc9dea,,,,,,,,,,,,,3,,,,,,,,,,,,,,,,,,,,,,,,,,,,,,,,,,,,,,,,,,,,,,,,,,,,,,,,,,,,,,,,,,,,,,,,,,,,,,,721.951,726.2079,strongly disagree,0,2,2,2,1,I try to keep up with the current trends and fashions.,0,1,0,0,,
,,,,,,,,,5aecad0e75deca000162634c,Spanish,13 or older,"no, only English or Spanish",no,2025-08-12_14h08.32.200,empathy_intonation_perc,2024.2.4,Win32,59.88023952,5aecad0e75deca000162634c,687ed1b7e638a4cbf2f02089,689b82e5f30608e57fdc9dea,,,,,,,,,,,,,4,,,,,,,,,,,,,,,,,,,,,,,,,,,,,,,,,,,,,,,,,,,,,,,,,,,,,,,,,,,,,,,,,,,,,,,,,,,,,,,726.2146,734.416,slightly disagree,0,3,3,3,1,"I find it difficult to explain to others things that I understand easily,   when they don't understand it first time.",1,0,0,1,,
,,,,,,,,,5aecad0e75deca000162634c,Spanish,13 or older,"no, only English or Spanish",no,2025-08-12_14h08.32.200,empathy_intonation_perc,2024.2.4,Win32,59.88023952,5aecad0e75deca000162634c,687ed1b7e638a4cbf2f02089,689b82e5f30608e57fdc9dea,,,,,,,,,,,,,5,,,,,,,,,,,,,,,,,,,,,,,,,,,,,,,,,,,,,,,,,,,,,,,,,,,,,,,,,,,,,,,,,,,,,,,,,,,,,,,734.4192,739.8104,strongly disagree,0,4,4,4,1,I dream most nights.,0,1,0,0,,
,,,,,,,,,5aecad0e75deca000162634c,Spanish,13 or older,"no, only English or Spanish",no,2025-08-12_14h08.32.200,empathy_intonation_perc,2024.2.4,Win32,59.88023952,5aecad0e75deca000162634c,687ed1b7e638a4cbf2f02089,689b82e5f30608e57fdc9dea,,,,,,,,,,,,,6,,,,,,,,,,,,,,,,,,,,,,,,,,,,,,,,,,,,,,,,,,,,,,,,,,,,,,,,,,,,,,,,,,,,,,,,,,,,,,,739.8144,743.2901,slightly agree,0,5,5,5,1,I really enjoy caring for other people.,1,0,1,0,,
,,,,,,,,,5aecad0e75deca000162634c,Spanish,13 or older,"no, only English or Spanish",no,2025-08-12_14h08.32.200,empathy_intonation_perc,2024.2.4,Win32,59.88023952,5aecad0e75deca000162634c,687ed1b7e638a4cbf2f02089,689b82e5f30608e57fdc9dea,,,,,,,,,,,,,7,,,,,,,,,,,,,,,,,,,,,,,,,,,,,,,,,,,,,,,,,,,,,,,,,,,,,,,,,,,,,,,,,,,,,,,,,,,,,,,743.2945,749.4837,strongly agree,0,6,6,6,1,I try to solve my own problems rather than discussing them with others.,0,1,0,0,,
,,,,,,,,,5aecad0e75deca000162634c,Spanish,13 or older,"no, only English or Spanish",no,2025-08-12_14h08.32.200,empathy_intonation_perc,2024.2.4,Win32,59.88023952,5aecad0e75deca000162634c,687ed1b7e638a4cbf2f02089,689b82e5f30608e57fdc9dea,,,,,,,,,,,,,8,,,,,,,,,,,,,,,,,,,,,,,,,,,,,,,,,,,,,,,,,,,,,,,,,,,,,,,,,,,,,,,,,,,,,,,,,,,,,,,749.4874,754.6284,slightly disagree,0,7,7,7,1,I find it hard to know what to do in a social situation.,1,0,0,1,,
,,,,,,,,,5aecad0e75deca000162634c,Spanish,13 or older,"no, only English or Spanish",no,2025-08-12_14h08.32.200,empathy_intonation_perc,2024.2.4,Win32,59.88023952,5aecad0e75deca000162634c,687ed1b7e638a4cbf2f02089,689b82e5f30608e57fdc9dea,,,,,,,,,,,,,9,,,,,,,,,,,,,,,,,,,,,,,,,,,,,,,,,,,,,,,,,,,,,,,,,,,,,,,,,,,,,,,,,,,,,,,,,,,,,,,754.6321,757.7943,slightly disagree,0,8,8,8,1,I am at my best first thing in the morning.,0,1,0,0,,
,,,,,,,,,5aecad0e75deca000162634c,Spanish,13 or older,"no, only English or Spanish",no,2025-08-12_14h08.32.200,empathy_intonation_perc,2024.2.4,Win32,59.88023952,5aecad0e75deca000162634c,687ed1b7e638a4cbf2f02089,689b82e5f30608e57fdc9dea,,,,,,,,,,,,,10,,,,,,,,,,,,,,,,,,,,,,,,,,,,,,,,,,,,,,,,,,,,,,,,,,,,,,,,,,,,,,,,,,,,,,,,,,,,,,,757.7979,763.4691,slightly agree,0,9,9,9,1,People often tell me that I went too far in driving my point home in a discussion.,1,0,0,1,,
