instructions_exposure.started,instructions_exposure.stopped,instructions_exposure_loop.thisRepN,instructions_exposure_loop.thisTrialN,instructions_exposure_loop.thisN,instructions_exposure_loop.thisIndex,instructions_exposure_loop.ran,instructions_text,continue_text,participant_id,"What variety of Spanish are you most familiar with? (e.g., Peruvian, Spanish, Mexican)",At what age did you begin learning Spanish?,Are you proficient in any languages other than English/Spanish?,"Are you familiar with Caribbean (e.g., Caribbean, Puerto Rican) or Galician Spanish?",date,expName,psychopyVersion,OS,frameRate,id,study_id,session,trial_exposure.started,trial_exposure.stopped,key_resp_exposure.keys,key_resp_exposure.corr,key_resp_exposure.rt,key_resp_exposure.duration,key_resp.keys,exposure_loop.thisRepN,exposure_loop.thisTrialN,exposure_loop.thisN,exposure_loop.thisIndex,exposure_loop.ran,item_num,correct_response,question,path,duration,instructions_2afc.started,instructions_2afc.stopped,instructions_2afc_loop.thisRepN,instructions_2afc_loop.thisTrialN,instructions_2afc_loop.thisN,instructions_2afc_loop.thisIndex,instructions_2afc_loop.ran,practice_2afc.started,practice_2afc.stopped,key_resp_2afc_practice.keys,key_resp_2afc_practice.corr,key_resp_2afc_practice.rt,key_resp_2afc_practice.duration,trials_2afc_practice_loop.thisRepN,trials_2afc_practice_loop.thisTrialN,trials_2afc_practice_loop.thisN,trials_2afc_practice_loop.thisIndex,trials_2afc_practice_loop.ran,check_2afc.started,check_2afc.stopped,trial_2afc.started,trial_2afc.stopped,key_resp_2afc_trial.keys,key_resp_2afc_trial.corr,key_resp_2afc_trial.rt,key_resp_2afc_trial.duration,trials_2afc_loop.thisRepN,trials_2afc_loop.thisTrialN,trials_2afc_loop.thisN,trials_2afc_loop.thisIndex,trials_2afc_loop.ran,target,variety,instructions_lextale.started,instructions_lextale.stopped,instructions_lextale_loop.thisRepN,instructions_lextale_loop.thisTrialN,instructions_lextale_loop.thisN,instructions_lextale_loop.thisIndex,instructions_lextale_loop.ran,practice_lextale.started,practice_lextale.stopped,key_resp_lextale_practice.keys,key_resp_lextale_practice.corr,key_resp_lextale_practice.rt,key_resp_lextale_practice.duration,practice_feedback_lextale.started,practice_feedback_lextale.stopped,trials_lextale_practice_loop.thisRepN,trials_lextale_practice_loop.thisTrialN,trials_lextale_practice_loop.thisN,trials_lextale_practice_loop.thisIndex,trials_lextale_practice_loop.ran,stim,word,prac_button_real,prac_button_false,check_lextale.started,check_lextale.stopped,trial_lextale.started,trial_lextale.stopped,key_resp_lextale_trial.keys,key_resp_lextale_trial.corr,key_resp_lextale_trial.rt,key_resp_lextale_trial.duration,trials_lextale_loop.thisRepN,trials_lextale_loop.thisTrialN,trials_lextale_loop.thisN,trials_lextale_loop.thisIndex,trials_lextale_loop.ran,button_real,button_false,instructions_eq.started,instructions_eq.stopped,trial_eq.started,trial_eq.stopped,slider_eq_trial.response,trials_eq_loop.thisRepN,trials_eq_loop.thisTrialN,trials_eq_loop.thisN,trials_eq_loop.thisIndex,trials_eq_loop.ran,item,is_test_item,is_distractor,is_agree_score,is_disagree_score,end_exp.started,end_exp.stopped
0.0166,2.3619,0,0,0,0,1,"In the following task, you are going to hear a series of conversations.", (press the space bar to continue),5b6482e9f5bc0a00019fd571,Mexican,13 or older,"no, only English or Spanish",no,2025-07-22_21h17.20.427,empathy_intonation_perc,2024.2.4,Win32,60.24096386,5b6482e9f5bc0a00019fd571,687ed1b7e638a4cbf2f02089,688037f98a55cec35c2b1c9a,,,,,,,,,,,,,,,,,,,,,,,,,,,,,,,,,,,,,,,,,,,,,,,,,,,,,,,,,,,,,,,,,,,,,,,,,,,,,,,,,,,,,,,,,,,,,,,,,,,,,,,,,,
2.3633,5.7411,0,1,1,1,1,It is okay if you don't not 100% understand them!, (press the space bar to continue),5b6482e9f5bc0a00019fd571,Mexican,13 or older,"no, only English or Spanish",no,2025-07-22_21h17.20.427,empathy_intonation_perc,2024.2.4,Win32,60.24096386,5b6482e9f5bc0a00019fd571,687ed1b7e638a4cbf2f02089,688037f98a55cec35c2b1c9a,,,,,,,,,,,,,,,,,,,,,,,,,,,,,,,,,,,,,,,,,,,,,,,,,,,,,,,,,,,,,,,,,,,,,,,,,,,,,,,,,,,,,,,,,,,,,,,,,,,,,,,,,,
5.745,8.2726,0,2,2,2,1,"After, you will read a sentence about the conversation and decide if it's true or false.", (press the space bar to continue),5b6482e9f5bc0a00019fd571,Mexican,13 or older,"no, only English or Spanish",no,2025-07-22_21h17.20.427,empathy_intonation_perc,2024.2.4,Win32,60.24096386,5b6482e9f5bc0a00019fd571,687ed1b7e638a4cbf2f02089,688037f98a55cec35c2b1c9a,,,,,,,,,,,,,,,,,,,,,,,,,,,,,,,,,,,,,,,,,,,,,,,,,,,,,,,,,,,,,,,,,,,,,,,,,,,,,,,,,,,,,,,,,,,,,,,,,,,,,,,,,,
8.2767,11.1028,0,3,3,3,1,"If it's true, press '1' (True) and if it's false press '0' (False).", (press the space bar to continue),5b6482e9f5bc0a00019fd571,Mexican,13 or older,"no, only English or Spanish",no,2025-07-22_21h17.20.427,empathy_intonation_perc,2024.2.4,Win32,60.24096386,5b6482e9f5bc0a00019fd571,687ed1b7e638a4cbf2f02089,688037f98a55cec35c2b1c9a,,,,,,,,,,,,,,,,,,,,,,,,,,,,,,,,,,,,,,,,,,,,,,,,,,,,,,,,,,,,,,,,,,,,,,,,,,,,,,,,,,,,,,,,,,,,,,,,,,,,,,,,,,
,,,,,,,,,5b6482e9f5bc0a00019fd571,Mexican,13 or older,"no, only English or Spanish",no,2025-07-22_21h17.20.427,empathy_intonation_perc,2024.2.4,Win32,60.24096386,5b6482e9f5bc0a00019fd571,687ed1b7e638a4cbf2f02089,688037f98a55cec35c2b1c9a,11.1121,54.7618,0,1,7.5841,,,0,0,0,2,1,3,0,The mom already has rice.,./stim/exposure_wavs/pr_stimuli_convo.wav,36,,,,,,,,,,,,,,,,,,,,,,,,,,,,,,,,,,,,,,,,,,,,,,,,,,,,,,,,,,,,,,,,,,,,,,,,,,,,,,,,,,,,,,,,,
,,,,,,,,,5b6482e9f5bc0a00019fd571,Mexican,13 or older,"no, only English or Spanish",no,2025-07-22_21h17.20.427,empathy_intonation_perc,2024.2.4,Win32,60.24096386,5b6482e9f5bc0a00019fd571,687ed1b7e638a4cbf2f02089,688037f98a55cec35c2b1c9a,54.7664,105.4312,1,1,3.6315,,,0,1,1,0,1,1,1,The son asked the mom if Aunt Marina is okay.,./stim/exposure_wavs/ga_stimuli_convo.wav,47,,,,,,,,,,,,,,,,,,,,,,,,,,,,,,,,,,,,,,,,,,,,,,,,,,,,,,,,,,,,,,,,,,,,,,,,,,,,,,,,,,,,,,,,,
,,,,,,,,,5b6482e9f5bc0a00019fd571,Mexican,13 or older,"no, only English or Spanish",no,2025-07-22_21h17.20.427,empathy_intonation_perc,2024.2.4,Win32,60.24096386,5b6482e9f5bc0a00019fd571,687ed1b7e638a4cbf2f02089,688037f98a55cec35c2b1c9a,105.436,172.0687,0,0,6.5978,,,0,2,2,1,1,2,1,The mom asked the daughter if she already went to the supermarket.,./stim/exposure_wavs/dr_stimuli_convo.wav,60,,,,,,,,,,,,,,,,,,,,,,,,,,,,,,,,,,,,,,,,,,,,,,,,,,,,,,,,,,,,,,,,,,,,,,,,,,,,,,,,,,,,,,,,,
,,,,,,,"In the following task you are going to hear a series of utterances. 

  You will decide if the utterances sound like questions or not using your keyboard.", (press the spacebar to continue),5b6482e9f5bc0a00019fd571,Mexican,13 or older,"no, only English or Spanish",no,2025-07-22_21h17.20.427,empathy_intonation_perc,2024.2.4,Win32,60.24096386,5b6482e9f5bc0a00019fd571,687ed1b7e638a4cbf2f02089,688037f98a55cec35c2b1c9a,,,,,,,,,,,,,,,,,,172.0757,179.1956,0,0,0,0,1,,,,,,,,,,,,,,,,,,,,,,,,,,,,,,,,,,,,,,,,,,,,,,,,,,,,,,,,,,,,,,,,,,,,,,,,,,,,,,,,,,
,,,,,,,"If you believe the utterance is a question, type '1' (for 'yes') and if you do not 
  believe it is a question type '0' (for 'no').

  Let's practice a bit...", (press the spacebar to continue),5b6482e9f5bc0a00019fd571,Mexican,13 or older,"no, only English or Spanish",no,2025-07-22_21h17.20.427,empathy_intonation_perc,2024.2.4,Win32,60.24096386,5b6482e9f5bc0a00019fd571,687ed1b7e638a4cbf2f02089,688037f98a55cec35c2b1c9a,,,,,,,,,,,,,,,,,,179.1994,181.9095,0,1,1,1,1,,,,,,,,,,,,,,,,,,,,,,,,,,,,,,,,,,,,,,,,,,,,,,,,,,,,,,,,,,,,,,,,,,,,,,,,,,,,,,,,,,
,,,,,,,,,5b6482e9f5bc0a00019fd571,Mexican,13 or older,"no, only English or Spanish",no,2025-07-22_21h17.20.427,empathy_intonation_perc,2024.2.4,Win32,60.24096386,5b6482e9f5bc0a00019fd571,687ed1b7e638a4cbf2f02089,688037f98a55cec35c2b1c9a,,,,,,,,,,,,,,0,,./stim/wavs/andalusian_statement_filler_Alberto-nunca-se-afeita.wav,,,,,,,,,181.9208,185.057,0,1,2.6155,,0,0,0,5,1,,,,,,,,,,,,,,,,,,,,,,,,,,,,,,,,,,,,,,,,,,,,,,,,,,,,,,,,,,,,,,,,,,,,,,,
,,,,,,,,,5b6482e9f5bc0a00019fd571,Mexican,13 or older,"no, only English or Spanish",no,2025-07-22_21h17.20.427,empathy_intonation_perc,2024.2.4,Win32,60.24096386,5b6482e9f5bc0a00019fd571,687ed1b7e638a4cbf2f02089,688037f98a55cec35c2b1c9a,,,,,,,,,,,,,,1,,./stim/wavs/castilian_question_filler_Mi-esposo-conoce-al-chico.wav,,,,,,,,,185.0595,188.0045,1,1,2.4166,,0,1,1,0,1,,,,,,,,,,,,,,,,,,,,,,,,,,,,,,,,,,,,,,,,,,,,,,,,,,,,,,,,,,,,,,,,,,,,,,,
,,,,,,,,,5b6482e9f5bc0a00019fd571,Mexican,13 or older,"no, only English or Spanish",no,2025-07-22_21h17.20.427,empathy_intonation_perc,2024.2.4,Win32,60.24096386,5b6482e9f5bc0a00019fd571,687ed1b7e638a4cbf2f02089,688037f98a55cec35c2b1c9a,,,,,,,,,,,,,,0,,./stim/wavs/cuban_statement_filler_Cocinabas-por-la-noche.wav,,,,,,,,,188.0075,190.7012,0,1,2.1648,,0,2,2,4,1,,,,,,,,,,,,,,,,,,,,,,,,,,,,,,,,,,,,,,,,,,,,,,,,,,,,,,,,,,,,,,,,,,,,,,,
,,,,,,,,,5b6482e9f5bc0a00019fd571,Mexican,13 or older,"no, only English or Spanish",no,2025-07-22_21h17.20.427,empathy_intonation_perc,2024.2.4,Win32,60.24096386,5b6482e9f5bc0a00019fd571,687ed1b7e638a4cbf2f02089,688037f98a55cec35c2b1c9a,,,,,,,,,,,,,,1,,./stim/wavs/argentine_question_filler_Mi-vecino-habla-mucho.wav,,,,,,,,,190.7023,192.8825,1,1,1.6478,,0,3,3,1,1,,,,,,,,,,,,,,,,,,,,,,,,,,,,,,,,,,,,,,,,,,,,,,,,,,,,,,,,,,,,,,,,,,,,,,,
,,,,,,,,,5b6482e9f5bc0a00019fd571,Mexican,13 or older,"no, only English or Spanish",no,2025-07-22_21h17.20.427,empathy_intonation_perc,2024.2.4,Win32,60.24096386,5b6482e9f5bc0a00019fd571,687ed1b7e638a4cbf2f02089,688037f98a55cec35c2b1c9a,,,,,,,,,,,,,,0,,./stim/wavs/puertorican_statement_filler_La-nina-pinta-con-su-amiga.wav,,,,,,,,,192.8838,195.3469,0,1,1.9353,,0,4,4,7,1,,,,,,,,,,,,,,,,,,,,,,,,,,,,,,,,,,,,,,,,,,,,,,,,,,,,,,,,,,,,,,,,,,,,,,,
,,,,,,,,,5b6482e9f5bc0a00019fd571,Mexican,13 or older,"no, only English or Spanish",no,2025-07-22_21h17.20.427,empathy_intonation_perc,2024.2.4,Win32,60.24096386,5b6482e9f5bc0a00019fd571,687ed1b7e638a4cbf2f02089,688037f98a55cec35c2b1c9a,,,,,,,,,,,,,,1,,./stim/wavs/chilean_question_filler_Mi-padre-cantaba-bien.wav,,,,,,,,,195.3483,200.5253,0,0,4.6458,,0,5,5,2,1,,,,,,,,,,,,,,,,,,,,,,,,,,,,,,,,,,,,,,,,,,,,,,,,,,,,,,,,,,,,,,,,,,,,,,,
,,,,,,,,,5b6482e9f5bc0a00019fd571,Mexican,13 or older,"no, only English or Spanish",no,2025-07-22_21h17.20.427,empathy_intonation_perc,2024.2.4,Win32,60.24096386,5b6482e9f5bc0a00019fd571,687ed1b7e638a4cbf2f02089,688037f98a55cec35c2b1c9a,,,,,,,,,,,,,,0,,./stim/wavs/peruvian_statement_filler_El-nino-habla-con-su-madre.wav,,,,,,,,,200.5264,203.4228,0,1,2.3667,,0,6,6,6,1,,,,,,,,,,,,,,,,,,,,,,,,,,,,,,,,,,,,,,,,,,,,,,,,,,,,,,,,,,,,,,,,,,,,,,,
,,,,,,,,,5b6482e9f5bc0a00019fd571,Mexican,13 or older,"no, only English or Spanish",no,2025-07-22_21h17.20.427,empathy_intonation_perc,2024.2.4,Win32,60.24096386,5b6482e9f5bc0a00019fd571,687ed1b7e638a4cbf2f02089,688037f98a55cec35c2b1c9a,,,,,,,,,,,,,,1,,./stim/wavs/mexican_question_filler_Felipe-no-tiene-contrasena.wav,,,,,,,,,203.4238,205.8042,1,1,1.8559,,0,7,7,3,1,,,,,,,,,,,,,,,,,,,,,,,,,,,,,,,,,,,,,,,,,,,,,,,,,,,,,,,,,,,,,,,,,,,,,,,
,,,,,,,,,5b6482e9f5bc0a00019fd571,Mexican,13 or older,"no, only English or Spanish",no,2025-07-22_21h17.20.427,empathy_intonation_perc,2024.2.4,Win32,60.24096386,5b6482e9f5bc0a00019fd571,687ed1b7e638a4cbf2f02089,688037f98a55cec35c2b1c9a,,,,,,,,,,,,,,,,,,,,,,,,,,,,,,,,,,,,205.8054,208.6348,,,,,,,,,,,,,,,,,,,,,,,,,,,,,,,,,,,,,,,,,,,,,,,,,,,,,,,,,,,,,,,,,,,,,
,,,,,,,,,5b6482e9f5bc0a00019fd571,Mexican,13 or older,"no, only English or Spanish",no,2025-07-22_21h17.20.427,empathy_intonation_perc,2024.2.4,Win32,60.24096386,5b6482e9f5bc0a00019fd571,687ed1b7e638a4cbf2f02089,688037f98a55cec35c2b1c9a,,,,,,,,,,,,,20,1,,./stim/wavs/puertorican_match_interrogative-total-yn_Daniel-iba-a-Bolivia.wav,,,,,,,,,,,,,,,,,,,,,,208.6503,211.4656,0,0,2.3065,,0,0,0,19,1,1,puertorican,,,,,,,,,,,,,,,,,,,,,,,,,,,,,,,,,,,,,,,,,,,,,,,,,,,,,,,,
,,,,,,,,,5b6482e9f5bc0a00019fd571,Mexican,13 or older,"no, only English or Spanish",no,2025-07-22_21h17.20.427,empathy_intonation_perc,2024.2.4,Win32,60.24096386,5b6482e9f5bc0a00019fd571,687ed1b7e638a4cbf2f02089,688037f98a55cec35c2b1c9a,,,,,,,,,,,,,84,0,,./stim/wavs/puertorican_mismatch_declarative-broad-focus_El-bebe-comia-muy-bien.wav,,,,,,,,,,,,,,,,,,,,,,211.4691,213.813,0,1,1.815,,0,1,1,83,1,0,puertorican,,,,,,,,,,,,,,,,,,,,,,,,,,,,,,,,,,,,,,,,,,,,,,,,,,,,,,,,
,,,,,,,,,5b6482e9f5bc0a00019fd571,Mexican,13 or older,"no, only English or Spanish",no,2025-07-22_21h17.20.427,empathy_intonation_perc,2024.2.4,Win32,60.24096386,5b6482e9f5bc0a00019fd571,687ed1b7e638a4cbf2f02089,688037f98a55cec35c2b1c9a,,,,,,,,,,,,,83,0,,./stim/wavs/mexican_mismatch_declarative-broad-focus_Mi-tia-odia-la-lluvia.wav,,,,,,,,,,,,,,,,,,,,,,213.8145,216.0275,0,1,1.6945,,0,2,2,82,1,0,mexican,,,,,,,,,,,,,,,,,,,,,,,,,,,,,,,,,,,,,,,,,,,,,,,,,,,,,,,,
,,,,,,,,,5b6482e9f5bc0a00019fd571,Mexican,13 or older,"no, only English or Spanish",no,2025-07-22_21h17.20.427,empathy_intonation_perc,2024.2.4,Win32,60.24096386,5b6482e9f5bc0a00019fd571,687ed1b7e638a4cbf2f02089,688037f98a55cec35c2b1c9a,,,,,,,,,,,,,53,0,,./stim/wavs/cuban_match_declarative-broad-focus_Manuela-vende-el-carro.wav,,,,,,,,,,,,,,,,,,,,,,216.0289,218.4594,0,1,1.8982,,0,3,3,52,1,0,cuban,,,,,,,,,,,,,,,,,,,,,,,,,,,,,,,,,,,,,,,,,,,,,,,,,,,,,,,,
,,,,,,,,,5b6482e9f5bc0a00019fd571,Mexican,13 or older,"no, only English or Spanish",no,2025-07-22_21h17.20.427,empathy_intonation_perc,2024.2.4,Win32,60.24096386,5b6482e9f5bc0a00019fd571,687ed1b7e638a4cbf2f02089,688037f98a55cec35c2b1c9a,,,,,,,,,,,,,69,0,,./stim/wavs/castilian_mismatch_declarative-broad-focus_El-nino-oye-el-rio.wav,,,,,,,,,,,,,,,,,,,,,,218.4619,220.8397,0,1,1.8512,,0,4,4,68,1,0,castilian,,,,,,,,,,,,,,,,,,,,,,,,,,,,,,,,,,,,,,,,,,,,,,,,,,,,,,,,
,,,,,,,,,5b6482e9f5bc0a00019fd571,Mexican,13 or older,"no, only English or Spanish",no,2025-07-22_21h17.20.427,empathy_intonation_perc,2024.2.4,Win32,60.24096386,5b6482e9f5bc0a00019fd571,687ed1b7e638a4cbf2f02089,688037f98a55cec35c2b1c9a,,,,,,,,,,,,,17,1,,./stim/wavs/mexican_match_interrogative-total-yn_Mariano-habla-del-tiempo.wav,,,,,,,,,,,,,,,,,,,,,,220.8409,223.1543,1,1,1.7836,,0,5,5,16,1,0,mexican,,,,,,,,,,,,,,,,,,,,,,,,,,,,,,,,,,,,,,,,,,,,,,,,,,,,,,,,
,,,,,,,,,5b6482e9f5bc0a00019fd571,Mexican,13 or older,"no, only English or Spanish",no,2025-07-22_21h17.20.427,empathy_intonation_perc,2024.2.4,Win32,60.24096386,5b6482e9f5bc0a00019fd571,687ed1b7e638a4cbf2f02089,688037f98a55cec35c2b1c9a,,,,,,,,,,,,,34,1,,./stim/wavs/cuban_mismatch_interrogative-total-yn_Mi-tia-odia-la-lluvia.wav,,,,,,,,,,,,,,,,,,,,,,223.1553,225.7019,0,0,2.0205,,0,6,6,33,1,1,cuban,,,,,,,,,,,,,,,,,,,,,,,,,,,,,,,,,,,,,,,,,,,,,,,,,,,,,,,,
,,,,,,,,,5b6482e9f5bc0a00019fd571,Mexican,13 or older,"no, only English or Spanish",no,2025-07-22_21h17.20.427,empathy_intonation_perc,2024.2.4,Win32,60.24096386,5b6482e9f5bc0a00019fd571,687ed1b7e638a4cbf2f02089,688037f98a55cec35c2b1c9a,,,,,,,,,,,,,19,1,,./stim/wavs/puertorican_match_interrogative-total-yn_Ana-lleva-el-abrigo.wav,,,,,,,,,,,,,,,,,,,,,,225.7029,227.6832,1,1,1.4489,,0,7,7,18,1,1,puertorican,,,,,,,,,,,,,,,,,,,,,,,,,,,,,,,,,,,,,,,,,,,,,,,,,,,,,,,,
,,,,,,,,,5b6482e9f5bc0a00019fd571,Mexican,13 or older,"no, only English or Spanish",no,2025-07-22_21h17.20.427,empathy_intonation_perc,2024.2.4,Win32,60.24096386,5b6482e9f5bc0a00019fd571,687ed1b7e638a4cbf2f02089,688037f98a55cec35c2b1c9a,,,,,,,,,,,,,14,1,,./stim/wavs/mexican_match_interrogative-total-yn_Daniel-iba-a-Bolivia.wav,,,,,,,,,,,,,,,,,,,,,,227.6839,229.9311,1,1,1.7196,,0,8,8,13,1,0,mexican,,,,,,,,,,,,,,,,,,,,,,,,,,,,,,,,,,,,,,,,,,,,,,,,,,,,,,,,
,,,,,,,,,5b6482e9f5bc0a00019fd571,Mexican,13 or older,"no, only English or Spanish",no,2025-07-22_21h17.20.427,empathy_intonation_perc,2024.2.4,Win32,60.24096386,5b6482e9f5bc0a00019fd571,687ed1b7e638a4cbf2f02089,688037f98a55cec35c2b1c9a,,,,,,,,,,,,,35,1,,./stim/wavs/mexican_mismatch_interrogative-total-yn_El-hombre-mira-la-luna.wav,,,,,,,,,,,,,,,,,,,,,,229.9323,232.0458,1,1,1.5861,,0,9,9,34,1,0,mexican,,,,,,,,,,,,,,,,,,,,,,,,,,,,,,,,,,,,,,,,,,,,,,,,,,,,,,,,
,,,,,,,,,5b6482e9f5bc0a00019fd571,Mexican,13 or older,"no, only English or Spanish",no,2025-07-22_21h17.20.427,empathy_intonation_perc,2024.2.4,Win32,60.24096386,5b6482e9f5bc0a00019fd571,687ed1b7e638a4cbf2f02089,688037f98a55cec35c2b1c9a,,,,,,,,,,,,,61,0,,./stim/wavs/mexican_match_declarative-broad-focus_Mariano-habla-del-tiempo.wav,,,,,,,,,,,,,,,,,,,,,,232.0467,234.2605,0,1,1.6822,,0,10,10,60,1,0,mexican,,,,,,,,,,,,,,,,,,,,,,,,,,,,,,,,,,,,,,,,,,,,,,,,,,,,,,,,
,,,,,,,,,5b6482e9f5bc0a00019fd571,Mexican,13 or older,"no, only English or Spanish",no,2025-07-22_21h17.20.427,empathy_intonation_perc,2024.2.4,Win32,60.24096386,5b6482e9f5bc0a00019fd571,687ed1b7e638a4cbf2f02089,688037f98a55cec35c2b1c9a,,,,,,,,,,,,,50,0,,./stim/wavs/castilian_match_declarative-broad-focus_Marta-abre-el-regalo.wav,,,,,,,,,,,,,,,,,,,,,,234.2614,236.6748,0,1,1.8807,,0,11,11,49,1,0,castilian,,,,,,,,,,,,,,,,,,,,,,,,,,,,,,,,,,,,,,,,,,,,,,,,,,,,,,,,
,,,,,,,,,5b6482e9f5bc0a00019fd571,Mexican,13 or older,"no, only English or Spanish",no,2025-07-22_21h17.20.427,empathy_intonation_perc,2024.2.4,Win32,60.24096386,5b6482e9f5bc0a00019fd571,687ed1b7e638a4cbf2f02089,688037f98a55cec35c2b1c9a,,,,,,,,,,,,,71,0,,./stim/wavs/castilian_mismatch_declarative-broad-focus_La-nina-lava-el-plato.wav,,,,,,,,,,,,,,,,,,,,,,236.6759,238.9228,0,1,1.7154,,0,12,12,70,1,0,castilian,,,,,,,,,,,,,,,,,,,,,,,,,,,,,,,,,,,,,,,,,,,,,,,,,,,,,,,,
,,,,,,,,,5b6482e9f5bc0a00019fd571,Mexican,13 or older,"no, only English or Spanish",no,2025-07-22_21h17.20.427,empathy_intonation_perc,2024.2.4,Win32,60.24096386,5b6482e9f5bc0a00019fd571,687ed1b7e638a4cbf2f02089,688037f98a55cec35c2b1c9a,,,,,,,,,,,,,79,0,,./stim/wavs/mexican_mismatch_declarative-broad-focus_El-bebe-comia-muy-bien.wav,,,,,,,,,,,,,,,,,,,,,,238.9238,241.2206,0,1,1.7703,,0,13,13,78,1,0,mexican,,,,,,,,,,,,,,,,,,,,,,,,,,,,,,,,,,,,,,,,,,,,,,,,,,,,,,,,
,,,,,,,,,5b6482e9f5bc0a00019fd571,Mexican,13 or older,"no, only English or Spanish",no,2025-07-22_21h17.20.427,empathy_intonation_perc,2024.2.4,Win32,60.24096386,5b6482e9f5bc0a00019fd571,687ed1b7e638a4cbf2f02089,688037f98a55cec35c2b1c9a,,,,,,,,,,,,,9,1,,./stim/wavs/cuban_match_interrogative-total-yn_Manuela-vende-el-carro.wav,,,,,,,,,,,,,,,,,,,,,,241.2216,243.4185,0,0,1.6654,,0,14,14,8,1,1,cuban,,,,,,,,,,,,,,,,,,,,,,,,,,,,,,,,,,,,,,,,,,,,,,,,,,,,,,,,
,,,,,,,,,5b6482e9f5bc0a00019fd571,Mexican,13 or older,"no, only English or Spanish",no,2025-07-22_21h17.20.427,empathy_intonation_perc,2024.2.4,Win32,60.24096386,5b6482e9f5bc0a00019fd571,687ed1b7e638a4cbf2f02089,688037f98a55cec35c2b1c9a,,,,,,,,,,,,,64,0,,./stim/wavs/puertorican_match_declarative-broad-focus_Daniel-iba-a-Bolivia.wav,,,,,,,,,,,,,,,,,,,,,,243.42,245.6498,0,1,1.6986,,0,15,15,63,1,0,puertorican,,,,,,,,,,,,,,,,,,,,,,,,,,,,,,,,,,,,,,,,,,,,,,,,,,,,,,,,
,,,,,,,,,5b6482e9f5bc0a00019fd571,Mexican,13 or older,"no, only English or Spanish",no,2025-07-22_21h17.20.427,empathy_intonation_perc,2024.2.4,Win32,60.24096386,5b6482e9f5bc0a00019fd571,687ed1b7e638a4cbf2f02089,688037f98a55cec35c2b1c9a,,,,,,,,,,,,,49,0,,./stim/wavs/castilian_match_declarative-broad-focus_Mariano-habla-del-tiempo.wav,,,,,,,,,,,,,,,,,,,,,,245.6508,248.0809,0,1,1.899,,0,16,16,48,1,0,castilian,,,,,,,,,,,,,,,,,,,,,,,,,,,,,,,,,,,,,,,,,,,,,,,,,,,,,,,,
,,,,,,,,,5b6482e9f5bc0a00019fd571,Mexican,13 or older,"no, only English or Spanish",no,2025-07-22_21h17.20.427,empathy_intonation_perc,2024.2.4,Win32,60.24096386,5b6482e9f5bc0a00019fd571,687ed1b7e638a4cbf2f02089,688037f98a55cec35c2b1c9a,,,,,,,,,,,,,30,1,,./stim/wavs/cuban_mismatch_interrogative-total-yn_El-hombre-mira-la-luna.wav,,,,,,,,,,,,,,,,,,,,,,248.0818,250.5285,0,0,1.9206,,0,17,17,29,1,1,cuban,,,,,,,,,,,,,,,,,,,,,,,,,,,,,,,,,,,,,,,,,,,,,,,,,,,,,,,,
,,,,,,,,,5b6482e9f5bc0a00019fd571,Mexican,13 or older,"no, only English or Spanish",no,2025-07-22_21h17.20.427,empathy_intonation_perc,2024.2.4,Win32,60.24096386,5b6482e9f5bc0a00019fd571,687ed1b7e638a4cbf2f02089,688037f98a55cec35c2b1c9a,,,,,,,,,,,,,23,1,,./stim/wavs/puertorican_match_interrogative-total-yn_Manuela-vende-el-carro.wav,,,,,,,,,,,,,,,,,,,,,,250.5295,252.8596,0,0,1.7984,,0,18,18,22,1,1,puertorican,,,,,,,,,,,,,,,,,,,,,,,,,,,,,,,,,,,,,,,,,,,,,,,,,,,,,,,,
,,,,,,,,,5b6482e9f5bc0a00019fd571,Mexican,13 or older,"no, only English or Spanish",no,2025-07-22_21h17.20.427,empathy_intonation_perc,2024.2.4,Win32,60.24096386,5b6482e9f5bc0a00019fd571,687ed1b7e638a4cbf2f02089,688037f98a55cec35c2b1c9a,,,,,,,,,,,,,44,1,,./stim/wavs/puertorican_mismatch_interrogative-total-yn_Mi-madre-come-la-fruta.wav,,,,,,,,,,,,,,,,,,,,,,252.8605,255.3574,0,0,1.9641,,0,19,19,43,1,1,puertorican,,,,,,,,,,,,,,,,,,,,,,,,,,,,,,,,,,,,,,,,,,,,,,,,,,,,,,,,
,,,,,,,,,5b6482e9f5bc0a00019fd571,Mexican,13 or older,"no, only English or Spanish",no,2025-07-22_21h17.20.427,empathy_intonation_perc,2024.2.4,Win32,60.24096386,5b6482e9f5bc0a00019fd571,687ed1b7e638a4cbf2f02089,688037f98a55cec35c2b1c9a,,,,,,,,,,,,,81,0,,./stim/wavs/mexican_mismatch_declarative-broad-focus_La-maestra-vive-en-Paris.wav,,,,,,,,,,,,,,,,,,,,,,255.3585,257.6884,0,1,1.8046,,0,20,20,80,1,0,mexican,,,,,,,,,,,,,,,,,,,,,,,,,,,,,,,,,,,,,,,,,,,,,,,,,,,,,,,,
,,,,,,,,,5b6482e9f5bc0a00019fd571,Mexican,13 or older,"no, only English or Spanish",no,2025-07-22_21h17.20.427,empathy_intonation_perc,2024.2.4,Win32,60.24096386,5b6482e9f5bc0a00019fd571,687ed1b7e638a4cbf2f02089,688037f98a55cec35c2b1c9a,,,,,,,,,,,,,62,0,,./stim/wavs/mexican_match_declarative-broad-focus_Marta-abre-el-regalo.wav,,,,,,,,,,,,,,,,,,,,,,257.6894,259.7199,0,1,1.5077,,0,21,21,61,1,0,mexican,,,,,,,,,,,,,,,,,,,,,,,,,,,,,,,,,,,,,,,,,,,,,,,,,,,,,,,,
,,,,,,,,,5b6482e9f5bc0a00019fd571,Mexican,13 or older,"no, only English or Spanish",no,2025-07-22_21h17.20.427,empathy_intonation_perc,2024.2.4,Win32,60.24096386,5b6482e9f5bc0a00019fd571,687ed1b7e638a4cbf2f02089,688037f98a55cec35c2b1c9a,,,,,,,,,,,,,57,0,,./stim/wavs/mexican_match_declarative-broad-focus_Ana-lleva-el-abrigo.wav,,,,,,,,,,,,,,,,,,,,,,259.7208,261.7516,0,1,1.5088,,0,22,22,56,1,0,mexican,,,,,,,,,,,,,,,,,,,,,,,,,,,,,,,,,,,,,,,,,,,,,,,,,,,,,,,,
,,,,,,,,,5b6482e9f5bc0a00019fd571,Mexican,13 or older,"no, only English or Spanish",no,2025-07-22_21h17.20.427,empathy_intonation_perc,2024.2.4,Win32,60.24096386,5b6482e9f5bc0a00019fd571,687ed1b7e638a4cbf2f02089,688037f98a55cec35c2b1c9a,,,,,,,,,,,,,32,1,,./stim/wavs/cuban_mismatch_interrogative-total-yn_Mi-madre-come-la-fruta.wav,,,,,,,,,,,,,,,,,,,,,,261.7539,265.4815,0,0,3.198,,0,23,23,31,1,1,cuban,,,,,,,,,,,,,,,,,,,,,,,,,,,,,,,,,,,,,,,,,,,,,,,,,,,,,,,,
,,,,,,,,,5b6482e9f5bc0a00019fd571,Mexican,13 or older,"no, only English or Spanish",no,2025-07-22_21h17.20.427,empathy_intonation_perc,2024.2.4,Win32,60.24096386,5b6482e9f5bc0a00019fd571,687ed1b7e638a4cbf2f02089,688037f98a55cec35c2b1c9a,,,,,,,,,,,,,33,1,,./stim/wavs/cuban_mismatch_interrogative-total-yn_Mi-novio-viene-del-lago.wav,,,,,,,,,,,,,,,,,,,,,,265.4843,267.7627,0,0,1.7545,,0,24,24,32,1,1,cuban,,,,,,,,,,,,,,,,,,,,,,,,,,,,,,,,,,,,,,,,,,,,,,,,,,,,,,,,
,,,,,,,,,5b6482e9f5bc0a00019fd571,Mexican,13 or older,"no, only English or Spanish",no,2025-07-22_21h17.20.427,empathy_intonation_perc,2024.2.4,Win32,60.24096386,5b6482e9f5bc0a00019fd571,687ed1b7e638a4cbf2f02089,688037f98a55cec35c2b1c9a,,,,,,,,,,,,,36,1,,./stim/wavs/mexican_mismatch_interrogative-total-yn_El-nino-oye-el-rio.wav,,,,,,,,,,,,,,,,,,,,,,267.7647,269.8105,1,1,1.5181,,0,25,25,35,1,0,mexican,,,,,,,,,,,,,,,,,,,,,,,,,,,,,,,,,,,,,,,,,,,,,,,,,,,,,,,,
,,,,,,,,,5b6482e9f5bc0a00019fd571,Mexican,13 or older,"no, only English or Spanish",no,2025-07-22_21h17.20.427,empathy_intonation_perc,2024.2.4,Win32,60.24096386,5b6482e9f5bc0a00019fd571,687ed1b7e638a4cbf2f02089,688037f98a55cec35c2b1c9a,,,,,,,,,,,,,43,1,,./stim/wavs/puertorican_mismatch_interrogative-total-yn_La-nina-lava-el-plato.wav,,,,,,,,,,,,,,,,,,,,,,269.8114,272.0921,0,0,1.7499,,0,26,26,42,1,1,puertorican,,,,,,,,,,,,,,,,,,,,,,,,,,,,,,,,,,,,,,,,,,,,,,,,,,,,,,,,
,,,,,,,,,5b6482e9f5bc0a00019fd571,Mexican,13 or older,"no, only English or Spanish",no,2025-07-22_21h17.20.427,empathy_intonation_perc,2024.2.4,Win32,60.24096386,5b6482e9f5bc0a00019fd571,687ed1b7e638a4cbf2f02089,688037f98a55cec35c2b1c9a,,,,,,,,,,,,,18,1,,./stim/wavs/mexican_match_interrogative-total-yn_Marta-abre-el-regalo.wav,,,,,,,,,,,,,,,,,,,,,,272.0938,274.1398,1,1,1.5183,,0,27,27,17,1,0,mexican,,,,,,,,,,,,,,,,,,,,,,,,,,,,,,,,,,,,,,,,,,,,,,,,,,,,,,,,
,,,,,,,,,5b6482e9f5bc0a00019fd571,Mexican,13 or older,"no, only English or Spanish",no,2025-07-22_21h17.20.427,empathy_intonation_perc,2024.2.4,Win32,60.24096386,5b6482e9f5bc0a00019fd571,687ed1b7e638a4cbf2f02089,688037f98a55cec35c2b1c9a,,,,,,,,,,,,,59,0,,./stim/wavs/mexican_match_declarative-broad-focus_David-leia-el-libro.wav,,,,,,,,,,,,,,,,,,,,,,274.1408,276.1877,0,1,1.524,,0,28,28,58,1,0,mexican,,,,,,,,,,,,,,,,,,,,,,,,,,,,,,,,,,,,,,,,,,,,,,,,,,,,,,,,
,,,,,,,,,5b6482e9f5bc0a00019fd571,Mexican,13 or older,"no, only English or Spanish",no,2025-07-22_21h17.20.427,empathy_intonation_perc,2024.2.4,Win32,60.24096386,5b6482e9f5bc0a00019fd571,687ed1b7e638a4cbf2f02089,688037f98a55cec35c2b1c9a,,,,,,,,,,,,,63,0,,./stim/wavs/puertorican_match_declarative-broad-focus_Ana-lleva-el-abrigo.wav,,,,,,,,,,,,,,,,,,,,,,276.1879,278.2691,0,1,1.5488,,0,29,29,62,1,0,puertorican,,,,,,,,,,,,,,,,,,,,,,,,,,,,,,,,,,,,,,,,,,,,,,,,,,,,,,,,
,,,,,,,,,5b6482e9f5bc0a00019fd571,Mexican,13 or older,"no, only English or Spanish",no,2025-07-22_21h17.20.427,empathy_intonation_perc,2024.2.4,Win32,60.24096386,5b6482e9f5bc0a00019fd571,687ed1b7e638a4cbf2f02089,688037f98a55cec35c2b1c9a,,,,,,,,,,,,,27,1,,./stim/wavs/castilian_mismatch_interrogative-total-yn_Mi-madre-come-la-fruta.wav,,,,,,,,,,,,,,,,,,,,,,278.2699,280.6337,1,1,1.8398,,0,30,30,26,1,0,castilian,,,,,,,,,,,,,,,,,,,,,,,,,,,,,,,,,,,,,,,,,,,,,,,,,,,,,,,,
,,,,,,,,,5b6482e9f5bc0a00019fd571,Mexican,13 or older,"no, only English or Spanish",no,2025-07-22_21h17.20.427,empathy_intonation_perc,2024.2.4,Win32,60.24096386,5b6482e9f5bc0a00019fd571,687ed1b7e638a4cbf2f02089,688037f98a55cec35c2b1c9a,,,,,,,,,,,,,31,1,,./stim/wavs/cuban_mismatch_interrogative-total-yn_El-nino-oye-el-rio.wav,,,,,,,,,,,,,,,,,,,,,,280.6347,282.9482,0,0,1.786,,0,31,31,30,1,1,cuban,,,,,,,,,,,,,,,,,,,,,,,,,,,,,,,,,,,,,,,,,,,,,,,,,,,,,,,,
,,,,,,,,,5b6482e9f5bc0a00019fd571,Mexican,13 or older,"no, only English or Spanish",no,2025-07-22_21h17.20.427,empathy_intonation_perc,2024.2.4,Win32,60.24096386,5b6482e9f5bc0a00019fd571,687ed1b7e638a4cbf2f02089,688037f98a55cec35c2b1c9a,,,,,,,,,,,,,26,1,,./stim/wavs/castilian_mismatch_interrogative-total-yn_La-nina-lava-el-plato.wav,,,,,,,,,,,,,,,,,,,,,,282.9494,285.1793,1,1,1.7006,,0,32,32,25,1,0,castilian,,,,,,,,,,,,,,,,,,,,,,,,,,,,,,,,,,,,,,,,,,,,,,,,,,,,,,,,
,,,,,,,,,5b6482e9f5bc0a00019fd571,Mexican,13 or older,"no, only English or Spanish",no,2025-07-22_21h17.20.427,empathy_intonation_perc,2024.2.4,Win32,60.24096386,5b6482e9f5bc0a00019fd571,687ed1b7e638a4cbf2f02089,688037f98a55cec35c2b1c9a,,,,,,,,,,,,,39,1,,./stim/wavs/mexican_mismatch_interrogative-total-yn_Mi-tia-odia-la-lluvia.wav,,,,,,,,,,,,,,,,,,,,,,285.1806,287.3441,1,1,1.6321,,0,33,33,38,1,0,mexican,,,,,,,,,,,,,,,,,,,,,,,,,,,,,,,,,,,,,,,,,,,,,,,,,,,,,,,,
,,,,,,,,,5b6482e9f5bc0a00019fd571,Mexican,13 or older,"no, only English or Spanish",no,2025-07-22_21h17.20.427,empathy_intonation_perc,2024.2.4,Win32,60.24096386,5b6482e9f5bc0a00019fd571,687ed1b7e638a4cbf2f02089,688037f98a55cec35c2b1c9a,,,,,,,,,,,,,28,1,,./stim/wavs/castilian_mismatch_interrogative-total-yn_Mi-novio-viene-del-lago.wav,,,,,,,,,,,,,,,,,,,,,,287.3452,289.7419,1,1,1.8697,,0,34,34,27,1,0,castilian,,,,,,,,,,,,,,,,,,,,,,,,,,,,,,,,,,,,,,,,,,,,,,,,,,,,,,,,
,,,,,,,,,5b6482e9f5bc0a00019fd571,Mexican,13 or older,"no, only English or Spanish",no,2025-07-22_21h17.20.427,empathy_intonation_perc,2024.2.4,Win32,60.24096386,5b6482e9f5bc0a00019fd571,687ed1b7e638a4cbf2f02089,688037f98a55cec35c2b1c9a,,,,,,,,,,,,,55,0,,./stim/wavs/cuban_match_declarative-broad-focus_Mariano-habla-del-tiempo.wav,,,,,,,,,,,,,,,,,,,,,,289.7428,292.073,0,1,1.8146,,0,35,35,54,1,0,cuban,,,,,,,,,,,,,,,,,,,,,,,,,,,,,,,,,,,,,,,,,,,,,,,,,,,,,,,,
,,,,,,,,,5b6482e9f5bc0a00019fd571,Mexican,13 or older,"no, only English or Spanish",no,2025-07-22_21h17.20.427,empathy_intonation_perc,2024.2.4,Win32,60.24096386,5b6482e9f5bc0a00019fd571,687ed1b7e638a4cbf2f02089,688037f98a55cec35c2b1c9a,,,,,,,,,,,,,3,1,,./stim/wavs/castilian_match_interrogative-total-yn_Manuela-vende-el-carro.wav,,,,,,,,,,,,,,,,,,,,,,292.074,294.4708,1,1,1.8677,,0,36,36,2,1,0,castilian,,,,,,,,,,,,,,,,,,,,,,,,,,,,,,,,,,,,,,,,,,,,,,,,,,,,,,,,
,,,,,,,,,5b6482e9f5bc0a00019fd571,Mexican,13 or older,"no, only English or Spanish",no,2025-07-22_21h17.20.427,empathy_intonation_perc,2024.2.4,Win32,60.24096386,5b6482e9f5bc0a00019fd571,687ed1b7e638a4cbf2f02089,688037f98a55cec35c2b1c9a,,,,,,,,,,,,,40,1,,./stim/wavs/puertorican_mismatch_interrogative-total-yn_El-hombre-mira-la-luna.wav,,,,,,,,,,,,,,,,,,,,,,294.4717,297.0017,0,0,1.999,,0,37,37,39,1,1,puertorican,,,,,,,,,,,,,,,,,,,,,,,,,,,,,,,,,,,,,,,,,,,,,,,,,,,,,,,,
,,,,,,,,,5b6482e9f5bc0a00019fd571,Mexican,13 or older,"no, only English or Spanish",no,2025-07-22_21h17.20.427,empathy_intonation_perc,2024.2.4,Win32,60.24096386,5b6482e9f5bc0a00019fd571,687ed1b7e638a4cbf2f02089,688037f98a55cec35c2b1c9a,,,,,,,,,,,,,52,0,,./stim/wavs/cuban_match_declarative-broad-focus_Daniel-iba-a-Bolivia.wav,,,,,,,,,,,,,,,,,,,,,,297.0029,299.283,0,1,1.7508,,0,38,38,51,1,0,cuban,,,,,,,,,,,,,,,,,,,,,,,,,,,,,,,,,,,,,,,,,,,,,,,,,,,,,,,,
,,,,,,,,,5b6482e9f5bc0a00019fd571,Mexican,13 or older,"no, only English or Spanish",no,2025-07-22_21h17.20.427,empathy_intonation_perc,2024.2.4,Win32,60.24096386,5b6482e9f5bc0a00019fd571,687ed1b7e638a4cbf2f02089,688037f98a55cec35c2b1c9a,,,,,,,,,,,,,2,1,,./stim/wavs/castilian_match_interrogative-total-yn_Emilio-ama-la-marcha.wav,,,,,,,,,,,,,,,,,,,,,,299.2842,301.7306,1,1,1.9151,,0,39,39,1,1,0,castilian,,,,,,,,,,,,,,,,,,,,,,,,,,,,,,,,,,,,,,,,,,,,,,,,,,,,,,,,
,,,,,,,,,5b6482e9f5bc0a00019fd571,Mexican,13 or older,"no, only English or Spanish",no,2025-07-22_21h17.20.427,empathy_intonation_perc,2024.2.4,Win32,60.24096386,5b6482e9f5bc0a00019fd571,687ed1b7e638a4cbf2f02089,688037f98a55cec35c2b1c9a,,,,,,,,,,,,,67,0,,./stim/wavs/puertorican_match_declarative-broad-focus_Manuela-vende-el-carro.wav,,,,,,,,,,,,,,,,,,,,,,301.7317,304.3281,0,1,2.0724,,0,40,40,66,1,0,puertorican,,,,,,,,,,,,,,,,,,,,,,,,,,,,,,,,,,,,,,,,,,,,,,,,,,,,,,,,
,,,,,,,,,5b6482e9f5bc0a00019fd571,Mexican,13 or older,"no, only English or Spanish",no,2025-07-22_21h17.20.427,empathy_intonation_perc,2024.2.4,Win32,60.24096386,5b6482e9f5bc0a00019fd571,687ed1b7e638a4cbf2f02089,688037f98a55cec35c2b1c9a,,,,,,,,,,,,,86,0,,./stim/wavs/puertorican_mismatch_declarative-broad-focus_El-nino-oye-el-rio.wav,,,,,,,,,,,,,,,,,,,,,,304.3291,306.3929,0,1,1.5321,,0,41,41,85,1,0,puertorican,,,,,,,,,,,,,,,,,,,,,,,,,,,,,,,,,,,,,,,,,,,,,,,,,,,,,,,,
,,,,,,,,,5b6482e9f5bc0a00019fd571,Mexican,13 or older,"no, only English or Spanish",no,2025-07-22_21h17.20.427,empathy_intonation_perc,2024.2.4,Win32,60.24096386,5b6482e9f5bc0a00019fd571,687ed1b7e638a4cbf2f02089,688037f98a55cec35c2b1c9a,,,,,,,,,,,,,42,1,,./stim/wavs/puertorican_mismatch_interrogative-total-yn_La-maestra-vive-en-Paris.wav,,,,,,,,,,,,,,,,,,,,,,306.3944,308.8406,0,0,1.9195,,0,42,42,41,1,1,puertorican,,,,,,,,,,,,,,,,,,,,,,,,,,,,,,,,,,,,,,,,,,,,,,,,,,,,,,,,
,,,,,,,,,5b6482e9f5bc0a00019fd571,Mexican,13 or older,"no, only English or Spanish",no,2025-07-22_21h17.20.427,empathy_intonation_perc,2024.2.4,Win32,60.24096386,5b6482e9f5bc0a00019fd571,687ed1b7e638a4cbf2f02089,688037f98a55cec35c2b1c9a,,,,,,,,,,,,,85,0,,./stim/wavs/puertorican_mismatch_declarative-broad-focus_El-hombre-mira-la-luna.wav,,,,,,,,,,,,,,,,,,,,,,308.8416,310.9053,0,1,1.5413,,0,43,43,84,1,0,puertorican,,,,,,,,,,,,,,,,,,,,,,,,,,,,,,,,,,,,,,,,,,,,,,,,,,,,,,,,
,,,,,,,,,5b6482e9f5bc0a00019fd571,Mexican,13 or older,"no, only English or Spanish",no,2025-07-22_21h17.20.427,empathy_intonation_perc,2024.2.4,Win32,60.24096386,5b6482e9f5bc0a00019fd571,687ed1b7e638a4cbf2f02089,688037f98a55cec35c2b1c9a,,,,,,,,,,,,,74,0,,./stim/wavs/cuban_mismatch_declarative-broad-focus_El-bebe-comia-muy-bien.wav,,,,,,,,,,,,,,,,,,,,,,310.9064,312.9039,0,1,1.4715,,0,44,44,73,1,0,cuban,,,,,,,,,,,,,,,,,,,,,,,,,,,,,,,,,,,,,,,,,,,,,,,,,,,,,,,,
,,,,,,,,,5b6482e9f5bc0a00019fd571,Mexican,13 or older,"no, only English or Spanish",no,2025-07-22_21h17.20.427,empathy_intonation_perc,2024.2.4,Win32,60.24096386,5b6482e9f5bc0a00019fd571,687ed1b7e638a4cbf2f02089,688037f98a55cec35c2b1c9a,,,,,,,,,,,,,22,1,,./stim/wavs/puertorican_match_interrogative-total-yn_Emilio-ama-la-marcha.wav,,,,,,,,,,,,,,,,,,,,,,312.9056,315.0515,0,0,1.618,,0,45,45,21,1,1,puertorican,,,,,,,,,,,,,,,,,,,,,,,,,,,,,,,,,,,,,,,,,,,,,,,,,,,,,,,,
,,,,,,,,,5b6482e9f5bc0a00019fd571,Mexican,13 or older,"no, only English or Spanish",no,2025-07-22_21h17.20.427,empathy_intonation_perc,2024.2.4,Win32,60.24096386,5b6482e9f5bc0a00019fd571,687ed1b7e638a4cbf2f02089,688037f98a55cec35c2b1c9a,,,,,,,,,,,,,8,1,,./stim/wavs/cuban_match_interrogative-total-yn_Daniel-iba-a-Bolivia.wav,,,,,,,,,,,,,,,,,,,,,,315.0525,317.2328,0,0,1.6533,,0,46,46,7,1,1,cuban,,,,,,,,,,,,,,,,,,,,,,,,,,,,,,,,,,,,,,,,,,,,,,,,,,,,,,,,
,,,,,,,,,5b6482e9f5bc0a00019fd571,Mexican,13 or older,"no, only English or Spanish",no,2025-07-22_21h17.20.427,empathy_intonation_perc,2024.2.4,Win32,60.24096386,5b6482e9f5bc0a00019fd571,687ed1b7e638a4cbf2f02089,688037f98a55cec35c2b1c9a,,,,,,,,,,,,,77,0,,./stim/wavs/cuban_mismatch_declarative-broad-focus_Mi-novio-viene-del-lago.wav,,,,,,,,,,,,,,,,,,,,,,317.2335,319.4307,0,1,1.6662,,0,47,47,76,1,0,cuban,,,,,,,,,,,,,,,,,,,,,,,,,,,,,,,,,,,,,,,,,,,,,,,,,,,,,,,,
,,,,,,,,,5b6482e9f5bc0a00019fd571,Mexican,13 or older,"no, only English or Spanish",no,2025-07-22_21h17.20.427,empathy_intonation_perc,2024.2.4,Win32,60.24096386,5b6482e9f5bc0a00019fd571,687ed1b7e638a4cbf2f02089,688037f98a55cec35c2b1c9a,,,,,,,,,,,,,41,1,,./stim/wavs/puertorican_mismatch_interrogative-total-yn_El-nino-oye-el-rio.wav,,,,,,,,,,,,,,,,,,,,,,319.431,321.529,0,0,1.5733,,0,48,48,40,1,1,puertorican,,,,,,,,,,,,,,,,,,,,,,,,,,,,,,,,,,,,,,,,,,,,,,,,,,,,,,,,
,,,,,,,,,5b6482e9f5bc0a00019fd571,Mexican,13 or older,"no, only English or Spanish",no,2025-07-22_21h17.20.427,empathy_intonation_perc,2024.2.4,Win32,60.24096386,5b6482e9f5bc0a00019fd571,687ed1b7e638a4cbf2f02089,688037f98a55cec35c2b1c9a,,,,,,,,,,,,,45,0,,./stim/wavs/castilian_match_declarative-broad-focus_David-leia-el-libro.wav,,,,,,,,,,,,,,,,,,,,,,321.5312,323.8266,0,1,1.7677,,0,49,49,44,1,0,castilian,,,,,,,,,,,,,,,,,,,,,,,,,,,,,,,,,,,,,,,,,,,,,,,,,,,,,,,,
,,,,,,,,,5b6482e9f5bc0a00019fd571,Mexican,13 or older,"no, only English or Spanish",no,2025-07-22_21h17.20.427,empathy_intonation_perc,2024.2.4,Win32,60.24096386,5b6482e9f5bc0a00019fd571,687ed1b7e638a4cbf2f02089,688037f98a55cec35c2b1c9a,,,,,,,,,,,,,37,1,,./stim/wavs/mexican_mismatch_interrogative-total-yn_La-maestra-vive-en-Paris.wav,,,,,,,,,,,,,,,,,,,,,,323.828,326.3076,1,1,1.949,,0,50,50,36,1,0,mexican,,,,,,,,,,,,,,,,,,,,,,,,,,,,,,,,,,,,,,,,,,,,,,,,,,,,,,,,
,,,,,,,,,5b6482e9f5bc0a00019fd571,Mexican,13 or older,"no, only English or Spanish",no,2025-07-22_21h17.20.427,empathy_intonation_perc,2024.2.4,Win32,60.24096386,5b6482e9f5bc0a00019fd571,687ed1b7e638a4cbf2f02089,688037f98a55cec35c2b1c9a,,,,,,,,,,,,,25,1,,./stim/wavs/castilian_mismatch_interrogative-total-yn_La-maestra-vive-en-Paris.wav,,,,,,,,,,,,,,,,,,,,,,326.3085,328.6555,1,1,1.8175,,0,51,51,24,1,0,castilian,,,,,,,,,,,,,,,,,,,,,,,,,,,,,,,,,,,,,,,,,,,,,,,,,,,,,,,,
,,,,,,,,,5b6482e9f5bc0a00019fd571,Mexican,13 or older,"no, only English or Spanish",no,2025-07-22_21h17.20.427,empathy_intonation_perc,2024.2.4,Win32,60.24096386,5b6482e9f5bc0a00019fd571,687ed1b7e638a4cbf2f02089,688037f98a55cec35c2b1c9a,,,,,,,,,,,,,13,1,,./stim/wavs/mexican_match_interrogative-total-yn_Ana-lleva-el-abrigo.wav,,,,,,,,,,,,,,,,,,,,,,328.6563,330.6535,1,1,1.4658,,0,52,52,12,1,0,mexican,,,,,,,,,,,,,,,,,,,,,,,,,,,,,,,,,,,,,,,,,,,,,,,,,,,,,,,,
,,,,,,,,,5b6482e9f5bc0a00019fd571,Mexican,13 or older,"no, only English or Spanish",no,2025-07-22_21h17.20.427,empathy_intonation_perc,2024.2.4,Win32,60.24096386,5b6482e9f5bc0a00019fd571,687ed1b7e638a4cbf2f02089,688037f98a55cec35c2b1c9a,,,,,,,,,,,,,1,1,,./stim/wavs/castilian_match_interrogative-total-yn_David-leia-el-libro.wav,,,,,,,,,,,,,,,,,,,,,,330.6542,332.9514,1,1,1.7853,,0,53,53,0,1,0,castilian,,,,,,,,,,,,,,,,,,,,,,,,,,,,,,,,,,,,,,,,,,,,,,,,,,,,,,,,
,,,,,,,,,5b6482e9f5bc0a00019fd571,Mexican,13 or older,"no, only English or Spanish",no,2025-07-22_21h17.20.427,empathy_intonation_perc,2024.2.4,Win32,60.24096386,5b6482e9f5bc0a00019fd571,687ed1b7e638a4cbf2f02089,688037f98a55cec35c2b1c9a,,,,,,,,,,,,,87,0,,./stim/wavs/puertorican_mismatch_declarative-broad-focus_La-maestra-vive-en-Paris.wav,,,,,,,,,,,,,,,,,,,,,,332.9526,335.3324,0,1,1.8493,,0,54,54,86,1,0,puertorican,,,,,,,,,,,,,,,,,,,,,,,,,,,,,,,,,,,,,,,,,,,,,,,,,,,,,,,,
,,,,,,,,,5b6482e9f5bc0a00019fd571,Mexican,13 or older,"no, only English or Spanish",no,2025-07-22_21h17.20.427,empathy_intonation_perc,2024.2.4,Win32,60.24096386,5b6482e9f5bc0a00019fd571,687ed1b7e638a4cbf2f02089,688037f98a55cec35c2b1c9a,,,,,,,,,,,,,82,0,,./stim/wavs/mexican_mismatch_declarative-broad-focus_Mi-novio-viene-del-lago.wav,,,,,,,,,,,,,,,,,,,,,,335.3336,337.3972,0,1,1.5419,,0,55,55,81,1,0,mexican,,,,,,,,,,,,,,,,,,,,,,,,,,,,,,,,,,,,,,,,,,,,,,,,,,,,,,,,
,,,,,,,,,5b6482e9f5bc0a00019fd571,Mexican,13 or older,"no, only English or Spanish",no,2025-07-22_21h17.20.427,empathy_intonation_perc,2024.2.4,Win32,60.24096386,5b6482e9f5bc0a00019fd571,687ed1b7e638a4cbf2f02089,688037f98a55cec35c2b1c9a,,,,,,,,,,,,,5,1,,./stim/wavs/castilian_match_interrogative-total-yn_Mariano-habla-del-tiempo.wav,,,,,,,,,,,,,,,,,,,,,,337.3983,339.7282,1,1,1.8024,,0,56,56,4,1,0,castilian,,,,,,,,,,,,,,,,,,,,,,,,,,,,,,,,,,,,,,,,,,,,,,,,,,,,,,,,
,,,,,,,,,5b6482e9f5bc0a00019fd571,Mexican,13 or older,"no, only English or Spanish",no,2025-07-22_21h17.20.427,empathy_intonation_perc,2024.2.4,Win32,60.24096386,5b6482e9f5bc0a00019fd571,687ed1b7e638a4cbf2f02089,688037f98a55cec35c2b1c9a,,,,,,,,,,,,,75,0,,./stim/wavs/cuban_mismatch_declarative-broad-focus_El-hombre-mira-la-luna.wav,,,,,,,,,,,,,,,,,,,,,,339.729,341.7102,0,1,1.4537,,0,57,57,74,1,0,cuban,,,,,,,,,,,,,,,,,,,,,,,,,,,,,,,,,,,,,,,,,,,,,,,,,,,,,,,,
,,,,,,,,,5b6482e9f5bc0a00019fd571,Mexican,13 or older,"no, only English or Spanish",no,2025-07-22_21h17.20.427,empathy_intonation_perc,2024.2.4,Win32,60.24096386,5b6482e9f5bc0a00019fd571,687ed1b7e638a4cbf2f02089,688037f98a55cec35c2b1c9a,,,,,,,,,,,,,78,0,,./stim/wavs/cuban_mismatch_declarative-broad-focus_Mi-tia-odia-la-lluvia.wav,,,,,,,,,,,,,,,,,,,,,,341.713,344.0581,0,1,1.8174,,0,58,58,77,1,0,cuban,,,,,,,,,,,,,,,,,,,,,,,,,,,,,,,,,,,,,,,,,,,,,,,,,,,,,,,,
,,,,,,,,,5b6482e9f5bc0a00019fd571,Mexican,13 or older,"no, only English or Spanish",no,2025-07-22_21h17.20.427,empathy_intonation_perc,2024.2.4,Win32,60.24096386,5b6482e9f5bc0a00019fd571,687ed1b7e638a4cbf2f02089,688037f98a55cec35c2b1c9a,,,,,,,,,,,,,47,0,,./stim/wavs/castilian_match_declarative-broad-focus_Manuela-vende-el-carro.wav,,,,,,,,,,,,,,,,,,,,,,344.06,346.4226,0,1,1.8336,,0,59,59,46,1,0,castilian,,,,,,,,,,,,,,,,,,,,,,,,,,,,,,,,,,,,,,,,,,,,,,,,,,,,,,,,
,,,,,,,,,5b6482e9f5bc0a00019fd571,Mexican,13 or older,"no, only English or Spanish",no,2025-07-22_21h17.20.427,empathy_intonation_perc,2024.2.4,Win32,60.24096386,5b6482e9f5bc0a00019fd571,687ed1b7e638a4cbf2f02089,688037f98a55cec35c2b1c9a,,,,,,,,,,,,,65,0,,./stim/wavs/puertorican_match_declarative-broad-focus_David-leia-el-libro.wav,,,,,,,,,,,,,,,,,,,,,,346.4249,348.5536,0,1,1.6082,,0,60,60,64,1,0,puertorican,,,,,,,,,,,,,,,,,,,,,,,,,,,,,,,,,,,,,,,,,,,,,,,,,,,,,,,,
,,,,,,,,,5b6482e9f5bc0a00019fd571,Mexican,13 or older,"no, only English or Spanish",no,2025-07-22_21h17.20.427,empathy_intonation_perc,2024.2.4,Win32,60.24096386,5b6482e9f5bc0a00019fd571,687ed1b7e638a4cbf2f02089,688037f98a55cec35c2b1c9a,,,,,,,,,,,,,11,1,,./stim/wavs/cuban_match_interrogative-total-yn_Mariano-habla-del-tiempo.wav,,,,,,,,,,,,,,,,,,,,,,348.5549,351.0178,0,0,1.9318,,0,61,61,10,1,1,cuban,,,,,,,,,,,,,,,,,,,,,,,,,,,,,,,,,,,,,,,,,,,,,,,,,,,,,,,,
,,,,,,,,,5b6482e9f5bc0a00019fd571,Mexican,13 or older,"no, only English or Spanish",no,2025-07-22_21h17.20.427,empathy_intonation_perc,2024.2.4,Win32,60.24096386,5b6482e9f5bc0a00019fd571,687ed1b7e638a4cbf2f02089,688037f98a55cec35c2b1c9a,,,,,,,,,,,,,7,1,,./stim/wavs/cuban_match_interrogative-total-yn_Ana-lleva-el-abrigo.wav,,,,,,,,,,,,,,,,,,,,,,351.0193,352.9659,0,0,1.4158,,0,62,62,6,1,1,cuban,,,,,,,,,,,,,,,,,,,,,,,,,,,,,,,,,,,,,,,,,,,,,,,,,,,,,,,,
,,,,,,,,,5b6482e9f5bc0a00019fd571,Mexican,13 or older,"no, only English or Spanish",no,2025-07-22_21h17.20.427,empathy_intonation_perc,2024.2.4,Win32,60.24096386,5b6482e9f5bc0a00019fd571,687ed1b7e638a4cbf2f02089,688037f98a55cec35c2b1c9a,,,,,,,,,,,,,4,1,,./stim/wavs/castilian_match_interrogative-total-yn_Maria-bebe-el-vino.wav,,,,,,,,,,,,,,,,,,,,,,352.9665,354.9808,1,1,1.4807,,0,63,63,3,1,0,castilian,,,,,,,,,,,,,,,,,,,,,,,,,,,,,,,,,,,,,,,,,,,,,,,,,,,,,,,,
,,,,,,,,,5b6482e9f5bc0a00019fd571,Mexican,13 or older,"no, only English or Spanish",no,2025-07-22_21h17.20.427,empathy_intonation_perc,2024.2.4,Win32,60.24096386,5b6482e9f5bc0a00019fd571,687ed1b7e638a4cbf2f02089,688037f98a55cec35c2b1c9a,,,,,,,,,,,,,48,0,,./stim/wavs/castilian_match_declarative-broad-focus_Maria-bebe-el-vino.wav,,,,,,,,,,,,,,,,,,,,,,354.982,357.3618,0,1,1.8498,,0,64,64,47,1,0,castilian,,,,,,,,,,,,,,,,,,,,,,,,,,,,,,,,,,,,,,,,,,,,,,,,,,,,,,,,
,,,,,,,,,5b6482e9f5bc0a00019fd571,Mexican,13 or older,"no, only English or Spanish",no,2025-07-22_21h17.20.427,empathy_intonation_perc,2024.2.4,Win32,60.24096386,5b6482e9f5bc0a00019fd571,687ed1b7e638a4cbf2f02089,688037f98a55cec35c2b1c9a,,,,,,,,,,,,,6,1,,./stim/wavs/castilian_match_interrogative-total-yn_Marta-abre-el-regalo.wav,,,,,,,,,,,,,,,,,,,,,,357.3626,359.7595,1,1,1.8712,,0,65,65,5,1,0,castilian,,,,,,,,,,,,,,,,,,,,,,,,,,,,,,,,,,,,,,,,,,,,,,,,,,,,,,,,
,,,,,,,,,5b6482e9f5bc0a00019fd571,Mexican,13 or older,"no, only English or Spanish",no,2025-07-22_21h17.20.427,empathy_intonation_perc,2024.2.4,Win32,60.24096386,5b6482e9f5bc0a00019fd571,687ed1b7e638a4cbf2f02089,688037f98a55cec35c2b1c9a,,,,,,,,,,,,,21,1,,./stim/wavs/puertorican_match_interrogative-total-yn_David-leia-el-libro.wav,,,,,,,,,,,,,,,,,,,,,,359.7602,361.9243,0,0,1.6368,,0,66,66,20,1,1,puertorican,,,,,,,,,,,,,,,,,,,,,,,,,,,,,,,,,,,,,,,,,,,,,,,,,,,,,,,,
,,,,,,,,,5b6482e9f5bc0a00019fd571,Mexican,13 or older,"no, only English or Spanish",no,2025-07-22_21h17.20.427,empathy_intonation_perc,2024.2.4,Win32,60.24096386,5b6482e9f5bc0a00019fd571,687ed1b7e638a4cbf2f02089,688037f98a55cec35c2b1c9a,,,,,,,,,,,,,58,0,,./stim/wavs/mexican_match_declarative-broad-focus_Daniel-iba-a-Bolivia.wav,,,,,,,,,,,,,,,,,,,,,,361.9246,364.1057,0,1,1.6592,,0,67,67,57,1,0,mexican,,,,,,,,,,,,,,,,,,,,,,,,,,,,,,,,,,,,,,,,,,,,,,,,,,,,,,,,
,,,,,,,,,5b6482e9f5bc0a00019fd571,Mexican,13 or older,"no, only English or Spanish",no,2025-07-22_21h17.20.427,empathy_intonation_perc,2024.2.4,Win32,60.24096386,5b6482e9f5bc0a00019fd571,687ed1b7e638a4cbf2f02089,688037f98a55cec35c2b1c9a,,,,,,,,,,,,,76,0,,./stim/wavs/cuban_mismatch_declarative-broad-focus_La-nina-lava-el-plato.wav,,,,,,,,,,,,,,,,,,,,,,364.1075,366.2035,0,1,1.5661,,0,68,68,75,1,0,cuban,,,,,,,,,,,,,,,,,,,,,,,,,,,,,,,,,,,,,,,,,,,,,,,,,,,,,,,,
,,,,,,,,,5b6482e9f5bc0a00019fd571,Mexican,13 or older,"no, only English or Spanish",no,2025-07-22_21h17.20.427,empathy_intonation_perc,2024.2.4,Win32,60.24096386,5b6482e9f5bc0a00019fd571,687ed1b7e638a4cbf2f02089,688037f98a55cec35c2b1c9a,,,,,,,,,,,,,51,0,,./stim/wavs/cuban_match_declarative-broad-focus_Ana-lleva-el-abrigo.wav,,,,,,,,,,,,,,,,,,,,,,366.2042,368.3188,0,1,1.5903,,0,69,69,50,1,0,cuban,,,,,,,,,,,,,,,,,,,,,,,,,,,,,,,,,,,,,,,,,,,,,,,,,,,,,,,,
,,,,,,,,,5b6482e9f5bc0a00019fd571,Mexican,13 or older,"no, only English or Spanish",no,2025-07-22_21h17.20.427,empathy_intonation_perc,2024.2.4,Win32,60.24096386,5b6482e9f5bc0a00019fd571,687ed1b7e638a4cbf2f02089,688037f98a55cec35c2b1c9a,,,,,,,,,,,,,60,0,,./stim/wavs/mexican_match_declarative-broad-focus_Emilio-ama-la-marcha.wav,,,,,,,,,,,,,,,,,,,,,,368.3212,370.5163,0,1,1.6708,,0,70,70,59,1,0,mexican,,,,,,,,,,,,,,,,,,,,,,,,,,,,,,,,,,,,,,,,,,,,,,,,,,,,,,,,
,,,,,,,,,5b6482e9f5bc0a00019fd571,Mexican,13 or older,"no, only English or Spanish",no,2025-07-22_21h17.20.427,empathy_intonation_perc,2024.2.4,Win32,60.24096386,5b6482e9f5bc0a00019fd571,687ed1b7e638a4cbf2f02089,688037f98a55cec35c2b1c9a,,,,,,,,,,,,,38,1,,./stim/wavs/mexican_mismatch_interrogative-total-yn_Mi-novio-viene-del-lago.wav,,,,,,,,,,,,,,,,,,,,,,370.5175,372.7142,1,1,1.6739,,0,71,71,37,1,0,mexican,,,,,,,,,,,,,,,,,,,,,,,,,,,,,,,,,,,,,,,,,,,,,,,,,,,,,,,,
,,,,,,,,,5b6482e9f5bc0a00019fd571,Mexican,13 or older,"no, only English or Spanish",no,2025-07-22_21h17.20.427,empathy_intonation_perc,2024.2.4,Win32,60.24096386,5b6482e9f5bc0a00019fd571,687ed1b7e638a4cbf2f02089,688037f98a55cec35c2b1c9a,,,,,,,,,,,,,29,1,,./stim/wavs/castilian_mismatch_interrogative-total-yn_Mi-tia-odia-la-lluvia.wav,,,,,,,,,,,,,,,,,,,,,,372.7155,374.8622,1,1,1.6151,,0,72,72,28,1,0,castilian,,,,,,,,,,,,,,,,,,,,,,,,,,,,,,,,,,,,,,,,,,,,,,,,,,,,,,,,
,,,,,,,,,5b6482e9f5bc0a00019fd571,Mexican,13 or older,"no, only English or Spanish",no,2025-07-22_21h17.20.427,empathy_intonation_perc,2024.2.4,Win32,60.24096386,5b6482e9f5bc0a00019fd571,687ed1b7e638a4cbf2f02089,688037f98a55cec35c2b1c9a,,,,,,,,,,,,,88,0,,./stim/wavs/puertorican_mismatch_declarative-broad-focus_La-nina-lava-el-plato.wav,,,,,,,,,,,,,,,,,,,,,,374.8631,376.944,0,1,1.557,,0,73,73,87,1,0,puertorican,,,,,,,,,,,,,,,,,,,,,,,,,,,,,,,,,,,,,,,,,,,,,,,,,,,,,,,,
,,,,,,,,,5b6482e9f5bc0a00019fd571,Mexican,13 or older,"no, only English or Spanish",no,2025-07-22_21h17.20.427,empathy_intonation_perc,2024.2.4,Win32,60.24096386,5b6482e9f5bc0a00019fd571,687ed1b7e638a4cbf2f02089,688037f98a55cec35c2b1c9a,,,,,,,,,,,,,10,1,,./stim/wavs/cuban_match_interrogative-total-yn_Maria-bebe-el-vino.wav,,,,,,,,,,,,,,,,,,,,,,376.9459,379.1415,0,0,1.6669,,0,74,74,9,1,1,cuban,,,,,,,,,,,,,,,,,,,,,,,,,,,,,,,,,,,,,,,,,,,,,,,,,,,,,,,,
,,,,,,,,,5b6482e9f5bc0a00019fd571,Mexican,13 or older,"no, only English or Spanish",no,2025-07-22_21h17.20.427,empathy_intonation_perc,2024.2.4,Win32,60.24096386,5b6482e9f5bc0a00019fd571,687ed1b7e638a4cbf2f02089,688037f98a55cec35c2b1c9a,,,,,,,,,,,,,16,1,,./stim/wavs/mexican_match_interrogative-total-yn_Emilio-ama-la-marcha.wav,,,,,,,,,,,,,,,,,,,,,,379.1425,381.1898,1,1,1.5184,,0,75,75,15,1,0,mexican,,,,,,,,,,,,,,,,,,,,,,,,,,,,,,,,,,,,,,,,,,,,,,,,,,,,,,,,
,,,,,,,,,5b6482e9f5bc0a00019fd571,Mexican,13 or older,"no, only English or Spanish",no,2025-07-22_21h17.20.427,empathy_intonation_perc,2024.2.4,Win32,60.24096386,5b6482e9f5bc0a00019fd571,687ed1b7e638a4cbf2f02089,688037f98a55cec35c2b1c9a,,,,,,,,,,,,,54,0,,./stim/wavs/cuban_match_declarative-broad-focus_Maria-bebe-el-vino.wav,,,,,,,,,,,,,,,,,,,,,,381.1915,383.3375,0,1,1.6179,,0,76,76,53,1,0,cuban,,,,,,,,,,,,,,,,,,,,,,,,,,,,,,,,,,,,,,,,,,,,,,,,,,,,,,,,
,,,,,,,,,5b6482e9f5bc0a00019fd571,Mexican,13 or older,"no, only English or Spanish",no,2025-07-22_21h17.20.427,empathy_intonation_perc,2024.2.4,Win32,60.24096386,5b6482e9f5bc0a00019fd571,687ed1b7e638a4cbf2f02089,688037f98a55cec35c2b1c9a,,,,,,,,,,,,,70,0,,./stim/wavs/castilian_mismatch_declarative-broad-focus_La-maestra-vive-en-Paris.wav,,,,,,,,,,,,,,,,,,,,,,383.3392,385.7021,0,1,1.8368,,0,77,77,69,1,0,castilian,,,,,,,,,,,,,,,,,,,,,,,,,,,,,,,,,,,,,,,,,,,,,,,,,,,,,,,,
,,,,,,,,,5b6482e9f5bc0a00019fd571,Mexican,13 or older,"no, only English or Spanish",no,2025-07-22_21h17.20.427,empathy_intonation_perc,2024.2.4,Win32,60.24096386,5b6482e9f5bc0a00019fd571,687ed1b7e638a4cbf2f02089,688037f98a55cec35c2b1c9a,,,,,,,,,,,,,12,1,,./stim/wavs/cuban_match_interrogative-total-yn_Marta-abre-el-regalo.wav,,,,,,,,,,,,,,,,,,,,,,385.7031,387.7667,0,0,1.5396,,0,78,78,11,1,1,cuban,,,,,,,,,,,,,,,,,,,,,,,,,,,,,,,,,,,,,,,,,,,,,,,,,,,,,,,,
,,,,,,,,,5b6482e9f5bc0a00019fd571,Mexican,13 or older,"no, only English or Spanish",no,2025-07-22_21h17.20.427,empathy_intonation_perc,2024.2.4,Win32,60.24096386,5b6482e9f5bc0a00019fd571,687ed1b7e638a4cbf2f02089,688037f98a55cec35c2b1c9a,,,,,,,,,,,,,72,0,,./stim/wavs/castilian_mismatch_declarative-broad-focus_Mi-novio-viene-del-lago.wav,,,,,,,,,,,,,,,,,,,,,,387.7679,390.0813,0,1,1.7821,,0,79,79,71,1,0,castilian,,,,,,,,,,,,,,,,,,,,,,,,,,,,,,,,,,,,,,,,,,,,,,,,,,,,,,,,
,,,,,,,,,5b6482e9f5bc0a00019fd571,Mexican,13 or older,"no, only English or Spanish",no,2025-07-22_21h17.20.427,empathy_intonation_perc,2024.2.4,Win32,60.24096386,5b6482e9f5bc0a00019fd571,687ed1b7e638a4cbf2f02089,688037f98a55cec35c2b1c9a,,,,,,,,,,,,,46,0,,./stim/wavs/castilian_match_declarative-broad-focus_Emilio-ama-la-marcha.wav,,,,,,,,,,,,,,,,,,,,,,390.0822,392.3291,0,1,1.7154,,0,80,80,45,1,0,castilian,,,,,,,,,,,,,,,,,,,,,,,,,,,,,,,,,,,,,,,,,,,,,,,,,,,,,,,,
,,,,,,,,,5b6482e9f5bc0a00019fd571,Mexican,13 or older,"no, only English or Spanish",no,2025-07-22_21h17.20.427,empathy_intonation_perc,2024.2.4,Win32,60.24096386,5b6482e9f5bc0a00019fd571,687ed1b7e638a4cbf2f02089,688037f98a55cec35c2b1c9a,,,,,,,,,,,,,56,0,,./stim/wavs/cuban_match_declarative-broad-focus_Marta-abre-el-regalo.wav,,,,,,,,,,,,,,,,,,,,,,392.3301,394.5271,0,1,1.6694,,0,81,81,55,1,0,cuban,,,,,,,,,,,,,,,,,,,,,,,,,,,,,,,,,,,,,,,,,,,,,,,,,,,,,,,,
,,,,,,,,,5b6482e9f5bc0a00019fd571,Mexican,13 or older,"no, only English or Spanish",no,2025-07-22_21h17.20.427,empathy_intonation_perc,2024.2.4,Win32,60.24096386,5b6482e9f5bc0a00019fd571,687ed1b7e638a4cbf2f02089,688037f98a55cec35c2b1c9a,,,,,,,,,,,,,15,1,,./stim/wavs/mexican_match_interrogative-total-yn_David-leia-el-libro.wav,,,,,,,,,,,,,,,,,,,,,,394.5283,396.5423,1,1,1.4836,,0,82,82,14,1,0,mexican,,,,,,,,,,,,,,,,,,,,,,,,,,,,,,,,,,,,,,,,,,,,,,,,,,,,,,,,
,,,,,,,,,5b6482e9f5bc0a00019fd571,Mexican,13 or older,"no, only English or Spanish",no,2025-07-22_21h17.20.427,empathy_intonation_perc,2024.2.4,Win32,60.24096386,5b6482e9f5bc0a00019fd571,687ed1b7e638a4cbf2f02089,688037f98a55cec35c2b1c9a,,,,,,,,,,,,,66,0,,./stim/wavs/puertorican_match_declarative-broad-focus_Emilio-ama-la-marcha.wav,,,,,,,,,,,,,,,,,,,,,,396.5443,398.5569,0,1,1.4914,,0,83,83,65,1,0,puertorican,,,,,,,,,,,,,,,,,,,,,,,,,,,,,,,,,,,,,,,,,,,,,,,,,,,,,,,,
,,,,,,,,,5b6482e9f5bc0a00019fd571,Mexican,13 or older,"no, only English or Spanish",no,2025-07-22_21h17.20.427,empathy_intonation_perc,2024.2.4,Win32,60.24096386,5b6482e9f5bc0a00019fd571,687ed1b7e638a4cbf2f02089,688037f98a55cec35c2b1c9a,,,,,,,,,,,,,68,0,,./stim/wavs/puertorican_match_declarative-broad-focus_Maria-bebe-el-vino.wav,,,,,,,,,,,,,,,,,,,,,,398.559,400.8379,1,0,1.7489,,0,84,84,67,1,0,puertorican,,,,,,,,,,,,,,,,,,,,,,,,,,,,,,,,,,,,,,,,,,,,,,,,,,,,,,,,
,,,,,,,,,5b6482e9f5bc0a00019fd571,Mexican,13 or older,"no, only English or Spanish",no,2025-07-22_21h17.20.427,empathy_intonation_perc,2024.2.4,Win32,60.24096386,5b6482e9f5bc0a00019fd571,687ed1b7e638a4cbf2f02089,688037f98a55cec35c2b1c9a,,,,,,,,,,,,,73,0,,./stim/wavs/castilian_mismatch_declarative-broad-focus_Mi-tia-odia-la-lluvia.wav,,,,,,,,,,,,,,,,,,,,,,400.8393,403.2023,0,1,1.8302,,0,85,85,72,1,0,castilian,,,,,,,,,,,,,,,,,,,,,,,,,,,,,,,,,,,,,,,,,,,,,,,,,,,,,,,,
,,,,,,,,,5b6482e9f5bc0a00019fd571,Mexican,13 or older,"no, only English or Spanish",no,2025-07-22_21h17.20.427,empathy_intonation_perc,2024.2.4,Win32,60.24096386,5b6482e9f5bc0a00019fd571,687ed1b7e638a4cbf2f02089,688037f98a55cec35c2b1c9a,,,,,,,,,,,,,80,0,,./stim/wavs/mexican_mismatch_declarative-broad-focus_El-hombre-mira-la-luna.wav,,,,,,,,,,,,,,,,,,,,,,403.2031,405.4335,0,1,1.7078,,0,86,86,79,1,0,mexican,,,,,,,,,,,,,,,,,,,,,,,,,,,,,,,,,,,,,,,,,,,,,,,,,,,,,,,,
,,,,,,,,,5b6482e9f5bc0a00019fd571,Mexican,13 or older,"no, only English or Spanish",no,2025-07-22_21h17.20.427,empathy_intonation_perc,2024.2.4,Win32,60.24096386,5b6482e9f5bc0a00019fd571,687ed1b7e638a4cbf2f02089,688037f98a55cec35c2b1c9a,,,,,,,,,,,,,24,1,,./stim/wavs/puertorican_match_interrogative-total-yn_Maria-bebe-el-vino.wav,,,,,,,,,,,,,,,,,,,,,,405.4345,407.415,1,1,1.4522,,0,87,87,23,1,1,puertorican,,,,,,,,,,,,,,,,,,,,,,,,,,,,,,,,,,,,,,,,,,,,,,,,,,,,,,,,
,,,,,,,"Great! Now we will move on. The next task consists of about 60 trials, in each of which you will see a string of letters. 
  
  Your task is to decide whether this is a real Spanish word or not.", (press the spacebar to continue),5b6482e9f5bc0a00019fd571,Mexican,13 or older,"no, only English or Spanish",no,2025-07-22_21h17.20.427,empathy_intonation_perc,2024.2.4,Win32,60.24096386,5b6482e9f5bc0a00019fd571,687ed1b7e638a4cbf2f02089,688037f98a55cec35c2b1c9a,,,,,,,,,,,,,,,,,,,,,,,,,,,,,,,,,,,,,,,,,,,,,,,,,,,407.4248,412.5936,0,0,0,0,1,,,,,,,,,,,,,,,,,,,,,,,,,,,,,,,,,,,,,,,,,,,,,,,,,
,,,,,,,"If you think it is an existing Spanish word, you type '1' (for 'REAL'), and if you think it is not an existing Spanish word, you type '0' (for 'FAKE').", (press the spacebar to continue),5b6482e9f5bc0a00019fd571,Mexican,13 or older,"no, only English or Spanish",no,2025-07-22_21h17.20.427,empathy_intonation_perc,2024.2.4,Win32,60.24096386,5b6482e9f5bc0a00019fd571,687ed1b7e638a4cbf2f02089,688037f98a55cec35c2b1c9a,,,,,,,,,,,,,,,,,,,,,,,,,,,,,,,,,,,,,,,,,,,,,,,,,,,412.5972,414.2927,0,1,1,1,1,,,,,,,,,,,,,,,,,,,,,,,,,,,,,,,,,,,,,,,,,,,,,,,,,
,,,,,,,"If you are sure that the word exists, even though you don’t know its exact meaning, you may still respond '1' (REAL). 
  
  But if you are not sure if it is an existing word, you should respond '0' (FAKE).
  
  Let's do a practice round...", (press the spacebar to continue),5b6482e9f5bc0a00019fd571,Mexican,13 or older,"no, only English or Spanish",no,2025-07-22_21h17.20.427,empathy_intonation_perc,2024.2.4,Win32,60.24096386,5b6482e9f5bc0a00019fd571,687ed1b7e638a4cbf2f02089,688037f98a55cec35c2b1c9a,,,,,,,,,,,,,,,,,,,,,,,,,,,,,,,,,,,,,,,,,,,,,,,,,,,414.2994,419.1874,0,2,2,2,1,,,,,,,,,,,,,,,,,,,,,,,,,,,,,,,,,,,,,,,,,,,,,,,,,
,,,,,,,,,5b6482e9f5bc0a00019fd571,Mexican,13 or older,"no, only English or Spanish",no,2025-07-22_21h17.20.427,empathy_intonation_perc,2024.2.4,Win32,60.24096386,5b6482e9f5bc0a00019fd571,687ed1b7e638a4cbf2f02089,688037f98a55cec35c2b1c9a,,,,,,,,,,,,,,0,,,,,,,,,,,,,,,,,,,,,,,,,,,,,,,,,,,,,,,,,,,,419.1963,421.1191,1,0,1.3822,,421.1198,422.1179,0,0,0,0,1,0,depiste,REAL,FAKE,,,,,,,,,,,,,,,,,,,,,,,,,,,,,,,,
,,,,,,,,,5b6482e9f5bc0a00019fd571,Mexican,13 or older,"no, only English or Spanish",no,2025-07-22_21h17.20.427,empathy_intonation_perc,2024.2.4,Win32,60.24096386,5b6482e9f5bc0a00019fd571,687ed1b7e638a4cbf2f02089,688037f98a55cec35c2b1c9a,,,,,,,,,,,,,,1,,,,,,,,,,,,,,,,,,,,,,,,,,,,,,,,,,,,,,,,,,,,422.121,424.5989,1,1,1.9321,,424.6002,425.5979,0,1,1,1,1,0,sí,REAL,FAKE,,,,,,,,,,,,,,,,,,,,,,,,,,,,,,,,
,,,,,,,,,5b6482e9f5bc0a00019fd571,Mexican,13 or older,"no, only English or Spanish",no,2025-07-22_21h17.20.427,empathy_intonation_perc,2024.2.4,Win32,60.24096386,5b6482e9f5bc0a00019fd571,687ed1b7e638a4cbf2f02089,688037f98a55cec35c2b1c9a,,,,,,,,,,,,,,0,,,,,,,,,,,,,,,,,,,,,,,,,,,,,,,,,,,,,,,,,,,,425.6013,427.4296,1,0,1.2828,,427.4308,428.429,0,2,2,2,1,0,coné,REAL,FAKE,,,,,,,,,,,,,,,,,,,,,,,,,,,,,,,,
,,,,,,,,,5b6482e9f5bc0a00019fd571,Mexican,13 or older,"no, only English or Spanish",no,2025-07-22_21h17.20.427,empathy_intonation_perc,2024.2.4,Win32,60.24096386,5b6482e9f5bc0a00019fd571,687ed1b7e638a4cbf2f02089,688037f98a55cec35c2b1c9a,,,,,,,,,,,,,,0,,,,,,,,,,,,,,,,,,,,,,,,,,,,,,,,,,,,,,,,,,,,428.4325,430.2275,0,1,1.2504,,430.2303,431.226,0,3,3,3,1,0,calpar,REAL,FAKE,,,,,,,,,,,,,,,,,,,,,,,,,,,,,,,,
,,,,,,,,,5b6482e9f5bc0a00019fd571,Mexican,13 or older,"no, only English or Spanish",no,2025-07-22_21h17.20.427,empathy_intonation_perc,2024.2.4,Win32,60.24096386,5b6482e9f5bc0a00019fd571,687ed1b7e638a4cbf2f02089,688037f98a55cec35c2b1c9a,,,,,,,,,,,,,,0,,,,,,,,,,,,,,,,,,,,,,,,,,,,,,,,,,,,,,,,,,,,431.2292,432.8077,0,1,1.0357,,432.8077,433.807,0,4,4,4,1,0,joten,REAL,FAKE,,,,,,,,,,,,,,,,,,,,,,,,,,,,,,,,
,,,,,,,,,5b6482e9f5bc0a00019fd571,Mexican,13 or older,"no, only English or Spanish",no,2025-07-22_21h17.20.427,empathy_intonation_perc,2024.2.4,Win32,60.24096386,5b6482e9f5bc0a00019fd571,687ed1b7e638a4cbf2f02089,688037f98a55cec35c2b1c9a,,,,,,,,,,,,,,1,,,,,,,,,,,,,,,,,,,,,,,,,,,,,,,,,,,,,,,,,,,,433.8095,435.3888,0,0,1.0346,,435.3902,436.3879,0,5,5,5,1,0,sacapuntas,REAL,FAKE,,,,,,,,,,,,,,,,,,,,,,,,,,,,,,,,
,,,,,,,,,5b6482e9f5bc0a00019fd571,Mexican,13 or older,"no, only English or Spanish",no,2025-07-22_21h17.20.427,empathy_intonation_perc,2024.2.4,Win32,60.24096386,5b6482e9f5bc0a00019fd571,687ed1b7e638a4cbf2f02089,688037f98a55cec35c2b1c9a,,,,,,,,,,,,,,0,,,,,,,,,,,,,,,,,,,,,,,,,,,,,,,,,,,,,,,,,,,,436.3918,438.4026,0,1,1.4652,,438.4037,439.4017,0,6,6,6,1,0,priba,REAL,FAKE,,,,,,,,,,,,,,,,,,,,,,,,,,,,,,,,
,,,,,,,,,5b6482e9f5bc0a00019fd571,Mexican,13 or older,"no, only English or Spanish",no,2025-07-22_21h17.20.427,empathy_intonation_perc,2024.2.4,Win32,60.24096386,5b6482e9f5bc0a00019fd571,687ed1b7e638a4cbf2f02089,688037f98a55cec35c2b1c9a,,,,,,,,,,,,,,0,,,,,,,,,,,,,,,,,,,,,,,,,,,,,,,,,,,,,,,,,,,,439.4057,441.1671,0,1,1.2182,,441.1673,442.1661,0,7,7,7,1,0,pelasula,REAL,FAKE,,,,,,,,,,,,,,,,,,,,,,,,,,,,,,,,
,,,,,,,,,5b6482e9f5bc0a00019fd571,Mexican,13 or older,"no, only English or Spanish",no,2025-07-22_21h17.20.427,empathy_intonation_perc,2024.2.4,Win32,60.24096386,5b6482e9f5bc0a00019fd571,687ed1b7e638a4cbf2f02089,688037f98a55cec35c2b1c9a,,,,,,,,,,,,,,1,,,,,,,,,,,,,,,,,,,,,,,,,,,,,,,,,,,,,,,,,,,,442.1691,443.748,1,1,1.0338,,443.7483,444.7473,0,8,8,8,1,0,bien,REAL,FAKE,,,,,,,,,,,,,,,,,,,,,,,,,,,,,,,,
,,,,,,,,,5b6482e9f5bc0a00019fd571,Mexican,13 or older,"no, only English or Spanish",no,2025-07-22_21h17.20.427,empathy_intonation_perc,2024.2.4,Win32,60.24096386,5b6482e9f5bc0a00019fd571,687ed1b7e638a4cbf2f02089,688037f98a55cec35c2b1c9a,,,,,,,,,,,,,,1,,,,,,,,,,,,,,,,,,,,,,,,,,,,,,,,,,,,,,,,,,,,444.7515,446.2294,1,1,0.9383,,446.2296,447.2283,0,9,9,9,1,0,casa,REAL,FAKE,,,,,,,,,,,,,,,,,,,,,,,,,,,,,,,,
,,,,,,,,,5b6482e9f5bc0a00019fd571,Mexican,13 or older,"no, only English or Spanish",no,2025-07-22_21h17.20.427,empathy_intonation_perc,2024.2.4,Win32,60.24096386,5b6482e9f5bc0a00019fd571,687ed1b7e638a4cbf2f02089,688037f98a55cec35c2b1c9a,,,,,,,,,,,,,,0,,,,,,,,,,,,,,,,,,,,,,,,,,,,,,,,,,,,,,,,,,,,447.2321,448.76,0,1,0.9837,,448.76,449.7592,0,10,10,10,1,0,lejo,REAL,FAKE,,,,,,,,,,,,,,,,,,,,,,,,,,,,,,,,
,,,,,,,,,5b6482e9f5bc0a00019fd571,Mexican,13 or older,"no, only English or Spanish",no,2025-07-22_21h17.20.427,empathy_intonation_perc,2024.2.4,Win32,60.24096386,5b6482e9f5bc0a00019fd571,687ed1b7e638a4cbf2f02089,688037f98a55cec35c2b1c9a,,,,,,,,,,,,,,0,,,,,,,,,,,,,,,,,,,,,,,,,,,,,,,,,,,,,,,,,,,,449.7624,451.3409,0,1,1.0345,,451.3409,452.3401,0,11,11,11,1,0,pretantas,REAL,FAKE,,,,,,,,,,,,,,,,,,,,,,,,,,,,,,,,
,,,,,,,,,5b6482e9f5bc0a00019fd571,Mexican,13 or older,"no, only English or Spanish",no,2025-07-22_21h17.20.427,empathy_intonation_perc,2024.2.4,Win32,60.24096386,5b6482e9f5bc0a00019fd571,687ed1b7e638a4cbf2f02089,688037f98a55cec35c2b1c9a,,,,,,,,,,,,,,,,,,,,,,,,,,,,,,,,,,,,,,,,,,,,,,,,,,,,,,,,,,,,,,,,,,,,,,,,,,,452.3411,453.3724,,,,,,,,,,,,,,,,,,,,,,,,,,,,,,
,,,,,,,,,5b6482e9f5bc0a00019fd571,Mexican,13 or older,"no, only English or Spanish",no,2025-07-22_21h17.20.427,empathy_intonation_perc,2024.2.4,Win32,60.24096386,5b6482e9f5bc0a00019fd571,687ed1b7e638a4cbf2f02089,688037f98a55cec35c2b1c9a,,,,,,,,,,,,,,1,,,,,,,,,,,,,,,,,,,,,,,,,,,,,,,,,,,,,,,,,,,,,,,,,,,,,,,,,57,tacaño,,,,,453.386,455.6381,0,0,1.7234,,0,0,0,56,1,REAL,FAKE,,,,,,,,,,,,,,,,,
,,,,,,,,,5b6482e9f5bc0a00019fd571,Mexican,13 or older,"no, only English or Spanish",no,2025-07-22_21h17.20.427,empathy_intonation_perc,2024.2.4,Win32,60.24096386,5b6482e9f5bc0a00019fd571,687ed1b7e638a4cbf2f02089,688037f98a55cec35c2b1c9a,,,,,,,,,,,,,,1,,,,,,,,,,,,,,,,,,,,,,,,,,,,,,,,,,,,,,,,,,,,,,,,,,,,,,,,,81,pozo,,,,,455.6422,457.1355,0,0,0.9508,,0,1,1,80,1,REAL,FAKE,,,,,,,,,,,,,,,,,
,,,,,,,,,5b6482e9f5bc0a00019fd571,Mexican,13 or older,"no, only English or Spanish",no,2025-07-22_21h17.20.427,empathy_intonation_perc,2024.2.4,Win32,60.24096386,5b6482e9f5bc0a00019fd571,687ed1b7e638a4cbf2f02089,688037f98a55cec35c2b1c9a,,,,,,,,,,,,,,0,,,,,,,,,,,,,,,,,,,,,,,,,,,,,,,,,,,,,,,,,,,,,,,,,,,,,,,,,84,escuto,,,,,457.1384,458.6843,1,0,1.0002,,0,2,2,83,1,REAL,FAKE,,,,,,,,,,,,,,,,,
,,,,,,,,,5b6482e9f5bc0a00019fd571,Mexican,13 or older,"no, only English or Spanish",no,2025-07-22_21h17.20.427,empathy_intonation_perc,2024.2.4,Win32,60.24096386,5b6482e9f5bc0a00019fd571,687ed1b7e638a4cbf2f02089,688037f98a55cec35c2b1c9a,,,,,,,,,,,,,,1,,,,,,,,,,,,,,,,,,,,,,,,,,,,,,,,,,,,,,,,,,,,,,,,,,,,,,,,,24,látigo,,,,,458.6883,460.4487,0,0,1.2166,,0,3,3,23,1,REAL,FAKE,,,,,,,,,,,,,,,,,
,,,,,,,,,5b6482e9f5bc0a00019fd571,Mexican,13 or older,"no, only English or Spanish",no,2025-07-22_21h17.20.427,empathy_intonation_perc,2024.2.4,Win32,60.24096386,5b6482e9f5bc0a00019fd571,687ed1b7e638a4cbf2f02089,688037f98a55cec35c2b1c9a,,,,,,,,,,,,,,1,,,,,,,,,,,,,,,,,,,,,,,,,,,,,,,,,,,,,,,,,,,,,,,,,,,,,,,,,34,aviso,,,,,460.4519,461.8977,1,1,0.9086,,0,4,4,33,1,REAL,FAKE,,,,,,,,,,,,,,,,,
,,,,,,,,,5b6482e9f5bc0a00019fd571,Mexican,13 or older,"no, only English or Spanish",no,2025-07-22_21h17.20.427,empathy_intonation_perc,2024.2.4,Win32,60.24096386,5b6482e9f5bc0a00019fd571,687ed1b7e638a4cbf2f02089,688037f98a55cec35c2b1c9a,,,,,,,,,,,,,,0,,,,,,,,,,,,,,,,,,,,,,,,,,,,,,,,,,,,,,,,,,,,,,,,,,,,,,,,,8,cadeña,,,,,461.9005,464.5288,0,1,2.0836,,0,5,5,7,1,REAL,FAKE,,,,,,,,,,,,,,,,,
,,,,,,,,,5b6482e9f5bc0a00019fd571,Mexican,13 or older,"no, only English or Spanish",no,2025-07-22_21h17.20.427,empathy_intonation_perc,2024.2.4,Win32,60.24096386,5b6482e9f5bc0a00019fd571,687ed1b7e638a4cbf2f02089,688037f98a55cec35c2b1c9a,,,,,,,,,,,,,,1,,,,,,,,,,,,,,,,,,,,,,,,,,,,,,,,,,,,,,,,,,,,,,,,,,,,,,,,,11,cenefa,,,,,464.5329,466.2941,0,0,1.2168,,0,6,6,10,1,REAL,FAKE,,,,,,,,,,,,,,,,,
,,,,,,,,,5b6482e9f5bc0a00019fd571,Mexican,13 or older,"no, only English or Spanish",no,2025-07-22_21h17.20.427,empathy_intonation_perc,2024.2.4,Win32,60.24096386,5b6482e9f5bc0a00019fd571,687ed1b7e638a4cbf2f02089,688037f98a55cec35c2b1c9a,,,,,,,,,,,,,,0,,,,,,,,,,,,,,,,,,,,,,,,,,,,,,,,,,,,,,,,,,,,,,,,,,,,,,,,,27,acutación,,,,,466.2982,468.8746,0,1,2.038,,0,7,7,26,1,REAL,FAKE,,,,,,,,,,,,,,,,,
,,,,,,,,,5b6482e9f5bc0a00019fd571,Mexican,13 or older,"no, only English or Spanish",no,2025-07-22_21h17.20.427,empathy_intonation_perc,2024.2.4,Win32,60.24096386,5b6482e9f5bc0a00019fd571,687ed1b7e638a4cbf2f02089,688037f98a55cec35c2b1c9a,,,,,,,,,,,,,,1,,,,,,,,,,,,,,,,,,,,,,,,,,,,,,,,,,,,,,,,,,,,,,,,,,,,,,,,,31,pandilla,,,,,468.8777,470.9226,1,1,1.4998,,0,8,8,30,1,REAL,FAKE,,,,,,,,,,,,,,,,,
,,,,,,,,,5b6482e9f5bc0a00019fd571,Mexican,13 or older,"no, only English or Spanish",no,2025-07-22_21h17.20.427,empathy_intonation_perc,2024.2.4,Win32,60.24096386,5b6482e9f5bc0a00019fd571,687ed1b7e638a4cbf2f02089,688037f98a55cec35c2b1c9a,,,,,,,,,,,,,,1,,,,,,,,,,,,,,,,,,,,,,,,,,,,,,,,,,,,,,,,,,,,,,,,,,,,,,,,,62,flaco,,,,,470.9258,472.4213,0,0,0.9558,,0,9,9,61,1,REAL,FAKE,,,,,,,,,,,,,,,,,
,,,,,,,,,5b6482e9f5bc0a00019fd571,Mexican,13 or older,"no, only English or Spanish",no,2025-07-22_21h17.20.427,empathy_intonation_perc,2024.2.4,Win32,60.24096386,5b6482e9f5bc0a00019fd571,687ed1b7e638a4cbf2f02089,688037f98a55cec35c2b1c9a,,,,,,,,,,,,,,0,,,,,,,,,,,,,,,,,,,,,,,,,,,,,,,,,,,,,,,,,,,,,,,,,,,,,,,,,30,alardio,,,,,472.4243,474.0026,0,1,1.0369,,0,10,10,29,1,REAL,FAKE,,,,,,,,,,,,,,,,,
,,,,,,,,,5b6482e9f5bc0a00019fd571,Mexican,13 or older,"no, only English or Spanish",no,2025-07-22_21h17.20.427,empathy_intonation_perc,2024.2.4,Win32,60.24096386,5b6482e9f5bc0a00019fd571,687ed1b7e638a4cbf2f02089,688037f98a55cec35c2b1c9a,,,,,,,,,,,,,,0,,,,,,,,,,,,,,,,,,,,,,,,,,,,,,,,,,,,,,,,,,,,,,,,,,,,,,,,,47,cartinar,,,,,474.0046,475.9175,0,1,1.3745,,0,11,11,46,1,REAL,FAKE,,,,,,,,,,,,,,,,,
,,,,,,,,,5b6482e9f5bc0a00019fd571,Mexican,13 or older,"no, only English or Spanish",no,2025-07-22_21h17.20.427,empathy_intonation_perc,2024.2.4,Win32,60.24096386,5b6482e9f5bc0a00019fd571,687ed1b7e638a4cbf2f02089,688037f98a55cec35c2b1c9a,,,,,,,,,,,,,,1,,,,,,,,,,,,,,,,,,,,,,,,,,,,,,,,,,,,,,,,,,,,,,,,,,,,,,,,,2,pellizcar,,,,,475.9201,477.5326,0,0,1.0665,,0,12,12,1,1,REAL,FAKE,,,,,,,,,,,,,,,,,
,,,,,,,,,5b6482e9f5bc0a00019fd571,Mexican,13 or older,"no, only English or Spanish",no,2025-07-22_21h17.20.427,empathy_intonation_perc,2024.2.4,Win32,60.24096386,5b6482e9f5bc0a00019fd571,687ed1b7e638a4cbf2f02089,688037f98a55cec35c2b1c9a,,,,,,,,,,,,,,0,,,,,,,,,,,,,,,,,,,,,,,,,,,,,,,,,,,,,,,,,,,,,,,,,,,,,,,,,35,rompido,,,,,477.5349,480.0807,1,0,1.9996,,0,13,13,34,1,REAL,FAKE,,,,,,,,,,,,,,,,,
,,,,,,,,,5b6482e9f5bc0a00019fd571,Mexican,13 or older,"no, only English or Spanish",no,2025-07-22_21h17.20.427,empathy_intonation_perc,2024.2.4,Win32,60.24096386,5b6482e9f5bc0a00019fd571,687ed1b7e638a4cbf2f02089,688037f98a55cec35c2b1c9a,,,,,,,,,,,,,,1,,,,,,,,,,,,,,,,,,,,,,,,,,,,,,,,,,,,,,,,,,,,,,,,,,,,,,,,,89,prisa,,,,,480.0837,481.7291,1,1,1.1017,,0,14,14,88,1,REAL,FAKE,,,,,,,,,,,,,,,,,
,,,,,,,,,5b6482e9f5bc0a00019fd571,Mexican,13 or older,"no, only English or Spanish",no,2025-07-22_21h17.20.427,empathy_intonation_perc,2024.2.4,Win32,60.24096386,5b6482e9f5bc0a00019fd571,687ed1b7e638a4cbf2f02089,688037f98a55cec35c2b1c9a,,,,,,,,,,,,,,1,,,,,,,,,,,,,,,,,,,,,,,,,,,,,,,,,,,,,,,,,,,,,,,,,,,,,,,,,73,hervidor,,,,,481.7321,483.1112,0,0,0.8415,,0,15,15,72,1,REAL,FAKE,,,,,,,,,,,,,,,,,
,,,,,,,,,5b6482e9f5bc0a00019fd571,Mexican,13 or older,"no, only English or Spanish",no,2025-07-22_21h17.20.427,empathy_intonation_perc,2024.2.4,Win32,60.24096386,5b6482e9f5bc0a00019fd571,687ed1b7e638a4cbf2f02089,688037f98a55cec35c2b1c9a,,,,,,,,,,,,,,0,,,,,,,,,,,,,,,,,,,,,,,,,,,,,,,,,,,,,,,,,,,,,,,,,,,,,,,,,23,lampera,,,,,483.1141,484.959,1,0,1.305,,0,16,16,22,1,REAL,FAKE,,,,,,,,,,,,,,,,,
,,,,,,,,,5b6482e9f5bc0a00019fd571,Mexican,13 or older,"no, only English or Spanish",no,2025-07-22_21h17.20.427,empathy_intonation_perc,2024.2.4,Win32,60.24096386,5b6482e9f5bc0a00019fd571,687ed1b7e638a4cbf2f02089,688037f98a55cec35c2b1c9a,,,,,,,,,,,,,,0,,,,,,,,,,,,,,,,,,,,,,,,,,,,,,,,,,,,,,,,,,,,,,,,,,,,,,,,,87,grodo,,,,,484.9614,486.4748,0,1,0.9683,,0,17,17,86,1,REAL,FAKE,,,,,,,,,,,,,,,,,
,,,,,,,,,5b6482e9f5bc0a00019fd571,Mexican,13 or older,"no, only English or Spanish",no,2025-07-22_21h17.20.427,empathy_intonation_perc,2024.2.4,Win32,60.24096386,5b6482e9f5bc0a00019fd571,687ed1b7e638a4cbf2f02089,688037f98a55cec35c2b1c9a,,,,,,,,,,,,,,1,,,,,,,,,,,,,,,,,,,,,,,,,,,,,,,,,,,,,,,,,,,,,,,,,,,,,,,,,77,tiburón,,,,,486.4781,488.3227,0,0,1.3078,,0,18,18,76,1,REAL,FAKE,,,,,,,,,,,,,,,,,
,,,,,,,,,5b6482e9f5bc0a00019fd571,Mexican,13 or older,"no, only English or Spanish",no,2025-07-22_21h17.20.427,empathy_intonation_perc,2024.2.4,Win32,60.24096386,5b6482e9f5bc0a00019fd571,687ed1b7e638a4cbf2f02089,688037f98a55cec35c2b1c9a,,,,,,,,,,,,,,0,,,,,,,,,,,,,,,,,,,,,,,,,,,,,,,,,,,,,,,,,,,,,,,,,,,,,,,,,10,antar,,,,,488.3258,489.8216,0,1,0.95,,0,19,19,9,1,REAL,FAKE,,,,,,,,,,,,,,,,,
,,,,,,,,,5b6482e9f5bc0a00019fd571,Mexican,13 or older,"no, only English or Spanish",no,2025-07-22_21h17.20.427,empathy_intonation_perc,2024.2.4,Win32,60.24096386,5b6482e9f5bc0a00019fd571,687ed1b7e638a4cbf2f02089,688037f98a55cec35c2b1c9a,,,,,,,,,,,,,,1,,,,,,,,,,,,,,,,,,,,,,,,,,,,,,,,,,,,,,,,,,,,,,,,,,,,,,,,,25,bisagra,,,,,489.8249,491.2367,0,0,0.8753,,0,20,20,24,1,REAL,FAKE,,,,,,,,,,,,,,,,,
,,,,,,,,,5b6482e9f5bc0a00019fd571,Mexican,13 or older,"no, only English or Spanish",no,2025-07-22_21h17.20.427,empathy_intonation_perc,2024.2.4,Win32,60.24096386,5b6482e9f5bc0a00019fd571,687ed1b7e638a4cbf2f02089,688037f98a55cec35c2b1c9a,,,,,,,,,,,,,,0,,,,,,,,,,,,,,,,,,,,,,,,,,,,,,,,,,,,,,,,,,,,,,,,,,,,,,,,,58,plaudir,,,,,491.24,492.9848,0,1,1.1977,,0,21,21,57,1,REAL,FAKE,,,,,,,,,,,,,,,,,
,,,,,,,,,5b6482e9f5bc0a00019fd571,Mexican,13 or older,"no, only English or Spanish",no,2025-07-22_21h17.20.427,empathy_intonation_perc,2024.2.4,Win32,60.24096386,5b6482e9f5bc0a00019fd571,687ed1b7e638a4cbf2f02089,688037f98a55cec35c2b1c9a,,,,,,,,,,,,,,1,,,,,,,,,,,,,,,,,,,,,,,,,,,,,,,,,,,,,,,,,,,,,,,,,,,,,,,,,46,martillo,,,,,492.9875,495.1832,0,0,1.6589,,0,22,22,45,1,REAL,FAKE,,,,,,,,,,,,,,,,,
,,,,,,,,,5b6482e9f5bc0a00019fd571,Mexican,13 or older,"no, only English or Spanish",no,2025-07-22_21h17.20.427,empathy_intonation_perc,2024.2.4,Win32,60.24096386,5b6482e9f5bc0a00019fd571,687ed1b7e638a4cbf2f02089,688037f98a55cec35c2b1c9a,,,,,,,,,,,,,,1,,,,,,,,,,,,,,,,,,,,,,,,,,,,,,,,,,,,,,,,,,,,,,,,,,,,,,,,,85,laúd,,,,,495.187,496.8151,0,0,1.0843,,0,23,23,84,1,REAL,FAKE,,,,,,,,,,,,,,,,,
,,,,,,,,,5b6482e9f5bc0a00019fd571,Mexican,13 or older,"no, only English or Spanish",no,2025-07-22_21h17.20.427,empathy_intonation_perc,2024.2.4,Win32,60.24096386,5b6482e9f5bc0a00019fd571,687ed1b7e638a4cbf2f02089,688037f98a55cec35c2b1c9a,,,,,,,,,,,,,,1,,,,,,,,,,,,,,,,,,,,,,,,,,,,,,,,,,,,,,,,,,,,,,,,,,,,,,,,,43,canela,,,,,496.8181,498.9298,0,0,1.5735,,0,24,24,42,1,REAL,FAKE,,,,,,,,,,,,,,,,,
,,,,,,,,,5b6482e9f5bc0a00019fd571,Mexican,13 or older,"no, only English or Spanish",no,2025-07-22_21h17.20.427,empathy_intonation_perc,2024.2.4,Win32,60.24096386,5b6482e9f5bc0a00019fd571,687ed1b7e638a4cbf2f02089,688037f98a55cec35c2b1c9a,,,,,,,,,,,,,,1,,,,,,,,,,,,,,,,,,,,,,,,,,,,,,,,,,,,,,,,,,,,,,,,,,,,,,,,,90,clavel,,,,,498.9331,500.778,0,0,1.3022,,0,25,25,89,1,REAL,FAKE,,,,,,,,,,,,,,,,,
,,,,,,,,,5b6482e9f5bc0a00019fd571,Mexican,13 or older,"no, only English or Spanish",no,2025-07-22_21h17.20.427,empathy_intonation_perc,2024.2.4,Win32,60.24096386,5b6482e9f5bc0a00019fd571,687ed1b7e638a4cbf2f02089,688037f98a55cec35c2b1c9a,,,,,,,,,,,,,,0,,,,,,,,,,,,,,,,,,,,,,,,,,,,,,,,,,,,,,,,,,,,,,,,,,,,,,,,,74,cintro,,,,,500.7812,502.3931,1,0,1.0703,,0,26,26,73,1,REAL,FAKE,,,,,,,,,,,,,,,,,
,,,,,,,,,5b6482e9f5bc0a00019fd571,Mexican,13 or older,"no, only English or Spanish",no,2025-07-22_21h17.20.427,empathy_intonation_perc,2024.2.4,Win32,60.24096386,5b6482e9f5bc0a00019fd571,687ed1b7e638a4cbf2f02089,688037f98a55cec35c2b1c9a,,,,,,,,,,,,,,1,,,,,,,,,,,,,,,,,,,,,,,,,,,,,,,,,,,,,,,,,,,,,,,,,,,,,,,,,55,nevar,,,,,502.3963,504.5575,1,1,1.6213,,0,27,27,54,1,REAL,FAKE,,,,,,,,,,,,,,,,,
,,,,,,,,,5b6482e9f5bc0a00019fd571,Mexican,13 or older,"no, only English or Spanish",no,2025-07-22_21h17.20.427,empathy_intonation_perc,2024.2.4,Win32,60.24096386,5b6482e9f5bc0a00019fd571,687ed1b7e638a4cbf2f02089,688037f98a55cec35c2b1c9a,,,,,,,,,,,,,,1,,,,,,,,,,,,,,,,,,,,,,,,,,,,,,,,,,,,,,,,,,,,,,,,,,,,,,,,,68,alegre,,,,,504.5604,506.5895,1,1,1.4881,,0,28,28,67,1,REAL,FAKE,,,,,,,,,,,,,,,,,
,,,,,,,,,5b6482e9f5bc0a00019fd571,Mexican,13 or older,"no, only English or Spanish",no,2025-07-22_21h17.20.427,empathy_intonation_perc,2024.2.4,Win32,60.24096386,5b6482e9f5bc0a00019fd571,687ed1b7e638a4cbf2f02089,688037f98a55cec35c2b1c9a,,,,,,,,,,,,,,1,,,,,,,,,,,,,,,,,,,,,,,,,,,,,,,,,,,,,,,,,,,,,,,,,,,,,,,,,20,ávido,,,,,506.5937,508.2042,1,1,1.076,,0,29,29,19,1,REAL,FAKE,,,,,,,,,,,,,,,,,
,,,,,,,,,5b6482e9f5bc0a00019fd571,Mexican,13 or older,"no, only English or Spanish",no,2025-07-22_21h17.20.427,empathy_intonation_perc,2024.2.4,Win32,60.24096386,5b6482e9f5bc0a00019fd571,687ed1b7e638a4cbf2f02089,688037f98a55cec35c2b1c9a,,,,,,,,,,,,,,1,,,,,,,,,,,,,,,,,,,,,,,,,,,,,,,,,,,,,,,,,,,,,,,,,,,,,,,,,61,seda,,,,,508.2072,509.6858,0,0,0.9324,,0,30,30,60,1,REAL,FAKE,,,,,,,,,,,,,,,,,
,,,,,,,,,5b6482e9f5bc0a00019fd571,Mexican,13 or older,"no, only English or Spanish",no,2025-07-22_21h17.20.427,empathy_intonation_perc,2024.2.4,Win32,60.24096386,5b6482e9f5bc0a00019fd571,687ed1b7e638a4cbf2f02089,688037f98a55cec35c2b1c9a,,,,,,,,,,,,,,0,,,,,,,,,,,,,,,,,,,,,,,,,,,,,,,,,,,,,,,,,,,,,,,,,,,,,,,,,29,decar,,,,,509.688,511.3347,1,0,1.1,,0,31,31,28,1,REAL,FAKE,,,,,,,,,,,,,,,,,
,,,,,,,,,5b6482e9f5bc0a00019fd571,Mexican,13 or older,"no, only English or Spanish",no,2025-07-22_21h17.20.427,empathy_intonation_perc,2024.2.4,Win32,60.24096386,5b6482e9f5bc0a00019fd571,687ed1b7e638a4cbf2f02089,688037f98a55cec35c2b1c9a,,,,,,,,,,,,,,0,,,,,,,,,,,,,,,,,,,,,,,,,,,,,,,,,,,,,,,,,,,,,,,,,,,,,,,,,17,floroso,,,,,511.3376,512.9166,0,1,1.0329,,0,32,32,16,1,REAL,FAKE,,,,,,,,,,,,,,,,,
,,,,,,,,,5b6482e9f5bc0a00019fd571,Mexican,13 or older,"no, only English or Spanish",no,2025-07-22_21h17.20.427,empathy_intonation_perc,2024.2.4,Win32,60.24096386,5b6482e9f5bc0a00019fd571,687ed1b7e638a4cbf2f02089,688037f98a55cec35c2b1c9a,,,,,,,,,,,,,,1,,,,,,,,,,,,,,,,,,,,,,,,,,,,,,,,,,,,,,,,,,,,,,,,,,,,,,,,,37,granuja,,,,,512.9196,516.4964,0,0,3.0399,,0,33,33,36,1,REAL,FAKE,,,,,,,,,,,,,,,,,
,,,,,,,,,5b6482e9f5bc0a00019fd571,Mexican,13 or older,"no, only English or Spanish",no,2025-07-22_21h17.20.427,empathy_intonation_perc,2024.2.4,Win32,60.24096386,5b6482e9f5bc0a00019fd571,687ed1b7e638a4cbf2f02089,688037f98a55cec35c2b1c9a,,,,,,,,,,,,,,0,,,,,,,,,,,,,,,,,,,,,,,,,,,,,,,,,,,,,,,,,,,,,,,,,,,,,,,,,32,fatacidad,,,,,516.4993,518.0281,0,1,0.9835,,0,34,34,31,1,REAL,FAKE,,,,,,,,,,,,,,,,,
,,,,,,,,,5b6482e9f5bc0a00019fd571,Mexican,13 or older,"no, only English or Spanish",no,2025-07-22_21h17.20.427,empathy_intonation_perc,2024.2.4,Win32,60.24096386,5b6482e9f5bc0a00019fd571,687ed1b7e638a4cbf2f02089,688037f98a55cec35c2b1c9a,,,,,,,,,,,,,,0,,,,,,,,,,,,,,,,,,,,,,,,,,,,,,,,,,,,,,,,,,,,,,,,,,,,,,,,,79,tropaje,,,,,518.0306,520.6758,0,1,2.0986,,0,35,35,78,1,REAL,FAKE,,,,,,,,,,,,,,,,,
,,,,,,,,,5b6482e9f5bc0a00019fd571,Mexican,13 or older,"no, only English or Spanish",no,2025-07-22_21h17.20.427,empathy_intonation_perc,2024.2.4,Win32,60.24096386,5b6482e9f5bc0a00019fd571,687ed1b7e638a4cbf2f02089,688037f98a55cec35c2b1c9a,,,,,,,,,,,,,,0,,,,,,,,,,,,,,,,,,,,,,,,,,,,,,,,,,,,,,,,,,,,,,,,,,,,,,,,,66,hacido,,,,,520.6786,522.1412,1,0,0.9175,,0,36,36,65,1,REAL,FAKE,,,,,,,,,,,,,,,,,
,,,,,,,,,5b6482e9f5bc0a00019fd571,Mexican,13 or older,"no, only English or Spanish",no,2025-07-22_21h17.20.427,empathy_intonation_perc,2024.2.4,Win32,60.24096386,5b6482e9f5bc0a00019fd571,687ed1b7e638a4cbf2f02089,688037f98a55cec35c2b1c9a,,,,,,,,,,,,,,0,,,,,,,,,,,,,,,,,,,,,,,,,,,,,,,,,,,,,,,,,,,,,,,,,,,,,,,,,53,vegada,,,,,522.1441,523.6567,0,1,0.9663,,0,37,37,52,1,REAL,FAKE,,,,,,,,,,,,,,,,,
,,,,,,,,,5b6482e9f5bc0a00019fd571,Mexican,13 or older,"no, only English or Spanish",no,2025-07-22_21h17.20.427,empathy_intonation_perc,2024.2.4,Win32,60.24096386,5b6482e9f5bc0a00019fd571,687ed1b7e638a4cbf2f02089,688037f98a55cec35c2b1c9a,,,,,,,,,,,,,,1,,,,,,,,,,,,,,,,,,,,,,,,,,,,,,,,,,,,,,,,,,,,,,,,,,,,,,,,,59,besar,,,,,523.6598,525.188,1,1,0.989,,0,38,38,58,1,REAL,FAKE,,,,,,,,,,,,,,,,,
,,,,,,,,,5b6482e9f5bc0a00019fd571,Mexican,13 or older,"no, only English or Spanish",no,2025-07-22_21h17.20.427,empathy_intonation_perc,2024.2.4,Win32,60.24096386,5b6482e9f5bc0a00019fd571,687ed1b7e638a4cbf2f02089,688037f98a55cec35c2b1c9a,,,,,,,,,,,,,,1,,,,,,,,,,,,,,,,,,,,,,,,,,,,,,,,,,,,,,,,,,,,,,,,,,,,,,,,,78,frondoso,,,,,525.1899,526.5705,0,0,0.8343,,0,39,39,77,1,REAL,FAKE,,,,,,,,,,,,,,,,,
,,,,,,,,,5b6482e9f5bc0a00019fd571,Mexican,13 or older,"no, only English or Spanish",no,2025-07-22_21h17.20.427,empathy_intonation_perc,2024.2.4,Win32,60.24096386,5b6482e9f5bc0a00019fd571,687ed1b7e638a4cbf2f02089,688037f98a55cec35c2b1c9a,,,,,,,,,,,,,,1,,,,,,,,,,,,,,,,,,,,,,,,,,,,,,,,,,,,,,,,,,,,,,,,,,,,,,,,,71,polvoriento,,,,,526.5735,528.0523,0,0,0.9362,,0,40,40,70,1,REAL,FAKE,,,,,,,,,,,,,,,,,
,,,,,,,,,5b6482e9f5bc0a00019fd571,Mexican,13 or older,"no, only English or Spanish",no,2025-07-22_21h17.20.427,empathy_intonation_perc,2024.2.4,Win32,60.24096386,5b6482e9f5bc0a00019fd571,687ed1b7e638a4cbf2f02089,688037f98a55cec35c2b1c9a,,,,,,,,,,,,,,1,,,,,,,,,,,,,,,,,,,,,,,,,,,,,,,,,,,,,,,,,,,,,,,,,,,,,,,,,28,merodear,,,,,528.0552,529.8178,0,0,1.22,,0,41,41,27,1,REAL,FAKE,,,,,,,,,,,,,,,,,
,,,,,,,,,5b6482e9f5bc0a00019fd571,Mexican,13 or older,"no, only English or Spanish",no,2025-07-22_21h17.20.427,empathy_intonation_perc,2024.2.4,Win32,60.24096386,5b6482e9f5bc0a00019fd571,687ed1b7e638a4cbf2f02089,688037f98a55cec35c2b1c9a,,,,,,,,,,,,,,1,,,,,,,,,,,,,,,,,,,,,,,,,,,,,,,,,,,,,,,,,,,,,,,,,,,,,,,,,5,zapato,,,,,529.8225,531.1828,1,1,0.8181,,0,42,42,4,1,REAL,FAKE,,,,,,,,,,,,,,,,,
,,,,,,,,,5b6482e9f5bc0a00019fd571,Mexican,13 or older,"no, only English or Spanish",no,2025-07-22_21h17.20.427,empathy_intonation_perc,2024.2.4,Win32,60.24096386,5b6482e9f5bc0a00019fd571,687ed1b7e638a4cbf2f02089,688037f98a55cec35c2b1c9a,,,,,,,,,,,,,,0,,,,,,,,,,,,,,,,,,,,,,,,,,,,,,,,,,,,,,,,,,,,,,,,,,,,,,,,,33,pauca,,,,,531.1858,532.6148,0,1,0.8846,,0,43,43,32,1,REAL,FAKE,,,,,,,,,,,,,,,,,
,,,,,,,,,5b6482e9f5bc0a00019fd571,Mexican,13 or older,"no, only English or Spanish",no,2025-07-22_21h17.20.427,empathy_intonation_perc,2024.2.4,Win32,60.24096386,5b6482e9f5bc0a00019fd571,687ed1b7e638a4cbf2f02089,688037f98a55cec35c2b1c9a,,,,,,,,,,,,,,1,,,,,,,,,,,,,,,,,,,,,,,,,,,,,,,,,,,,,,,,,,,,,,,,,,,,,,,,,41,rebuscar,,,,,532.6179,534.33,1,1,1.1668,,0,44,44,40,1,REAL,FAKE,,,,,,,,,,,,,,,,,
,,,,,,,,,5b6482e9f5bc0a00019fd571,Mexican,13 or older,"no, only English or Spanish",no,2025-07-22_21h17.20.427,empathy_intonation_perc,2024.2.4,Win32,60.24096386,5b6482e9f5bc0a00019fd571,687ed1b7e638a4cbf2f02089,688037f98a55cec35c2b1c9a,,,,,,,,,,,,,,1,,,,,,,,,,,,,,,,,,,,,,,,,,,,,,,,,,,,,,,,,,,,,,,,,,,,,,,,,76,atar,,,,,534.334,535.8949,0,0,1.0257,,0,45,45,75,1,REAL,FAKE,,,,,,,,,,,,,,,,,
,,,,,,,,,5b6482e9f5bc0a00019fd571,Mexican,13 or older,"no, only English or Spanish",no,2025-07-22_21h17.20.427,empathy_intonation_perc,2024.2.4,Win32,60.24096386,5b6482e9f5bc0a00019fd571,687ed1b7e638a4cbf2f02089,688037f98a55cec35c2b1c9a,,,,,,,,,,,,,,1,,,,,,,,,,,,,,,,,,,,,,,,,,,,,,,,,,,,,,,,,,,,,,,,,,,,,,,,,14,yunque,,,,,535.8981,537.2104,0,0,0.77,,0,46,46,13,1,REAL,FAKE,,,,,,,,,,,,,,,,,
,,,,,,,,,5b6482e9f5bc0a00019fd571,Mexican,13 or older,"no, only English or Spanish",no,2025-07-22_21h17.20.427,empathy_intonation_perc,2024.2.4,Win32,60.24096386,5b6482e9f5bc0a00019fd571,687ed1b7e638a4cbf2f02089,688037f98a55cec35c2b1c9a,,,,,,,,,,,,,,1,,,,,,,,,,,,,,,,,,,,,,,,,,,,,,,,,,,,,,,,,,,,,,,,,,,,,,,,,48,ladrón,,,,,537.2134,538.6761,0,0,0.9177,,0,47,47,47,1,REAL,FAKE,,,,,,,,,,,,,,,,,
,,,,,,,,,5b6482e9f5bc0a00019fd571,Mexican,13 or older,"no, only English or Spanish",no,2025-07-22_21h17.20.427,empathy_intonation_perc,2024.2.4,Win32,60.24096386,5b6482e9f5bc0a00019fd571,687ed1b7e638a4cbf2f02089,688037f98a55cec35c2b1c9a,,,,,,,,,,,,,,1,,,,,,,,,,,,,,,,,,,,,,,,,,,,,,,,,,,,,,,,,,,,,,,,,,,,,,,,,44,cuchara,,,,,538.6791,540.5406,1,1,1.3173,,0,48,48,43,1,REAL,FAKE,,,,,,,,,,,,,,,,,
,,,,,,,,,5b6482e9f5bc0a00019fd571,Mexican,13 or older,"no, only English or Spanish",no,2025-07-22_21h17.20.427,empathy_intonation_perc,2024.2.4,Win32,60.24096386,5b6482e9f5bc0a00019fd571,687ed1b7e638a4cbf2f02089,688037f98a55cec35c2b1c9a,,,,,,,,,,,,,,1,,,,,,,,,,,,,,,,,,,,,,,,,,,,,,,,,,,,,,,,,,,,,,,,,,,,,,,,,60,matar,,,,,540.5435,542.1393,1,1,1.0589,,0,49,49,59,1,REAL,FAKE,,,,,,,,,,,,,,,,,
,,,,,,,,,5b6482e9f5bc0a00019fd571,Mexican,13 or older,"no, only English or Spanish",no,2025-07-22_21h17.20.427,empathy_intonation_perc,2024.2.4,Win32,60.24096386,5b6482e9f5bc0a00019fd571,687ed1b7e638a4cbf2f02089,688037f98a55cec35c2b1c9a,,,,,,,,,,,,,,1,,,,,,,,,,,,,,,,,,,,,,,,,,,,,,,,,,,,,,,,,,,,,,,,,,,,,,,,,64,orgulloso,,,,,542.1424,543.5879,0,0,0.901,,0,50,50,63,1,REAL,FAKE,,,,,,,,,,,,,,,,,
,,,,,,,,,5b6482e9f5bc0a00019fd571,Mexican,13 or older,"no, only English or Spanish",no,2025-07-22_21h17.20.427,empathy_intonation_perc,2024.2.4,Win32,60.24096386,5b6482e9f5bc0a00019fd571,687ed1b7e638a4cbf2f02089,688037f98a55cec35c2b1c9a,,,,,,,,,,,,,,1,,,,,,,,,,,,,,,,,,,,,,,,,,,,,,,,,,,,,,,,,,,,,,,,,,,,,,,,,65,bizcocho,,,,,543.591,544.9533,0,0,0.822,,0,51,51,64,1,REAL,FAKE,,,,,,,,,,,,,,,,,
,,,,,,,,,5b6482e9f5bc0a00019fd571,Mexican,13 or older,"no, only English or Spanish",no,2025-07-22_21h17.20.427,empathy_intonation_perc,2024.2.4,Win32,60.24096386,5b6482e9f5bc0a00019fd571,687ed1b7e638a4cbf2f02089,688037f98a55cec35c2b1c9a,,,,,,,,,,,,,,0,,,,,,,,,,,,,,,,,,,,,,,,,,,,,,,,,,,,,,,,,,,,,,,,,,,,,,,,,1,terzo,,,,,544.9576,546.6017,0,1,1.1008,,0,52,52,0,1,REAL,FAKE,,,,,,,,,,,,,,,,,
,,,,,,,,,5b6482e9f5bc0a00019fd571,Mexican,13 or older,"no, only English or Spanish",no,2025-07-22_21h17.20.427,empathy_intonation_perc,2024.2.4,Win32,60.24096386,5b6482e9f5bc0a00019fd571,687ed1b7e638a4cbf2f02089,688037f98a55cec35c2b1c9a,,,,,,,,,,,,,,1,,,,,,,,,,,,,,,,,,,,,,,,,,,,,,,,,,,,,,,,,,,,,,,,,,,,,,,,,86,barato,,,,,546.6049,548.4165,0,0,1.2696,,0,53,53,85,1,REAL,FAKE,,,,,,,,,,,,,,,,,
,,,,,,,,,5b6482e9f5bc0a00019fd571,Mexican,13 or older,"no, only English or Spanish",no,2025-07-22_21h17.20.427,empathy_intonation_perc,2024.2.4,Win32,60.24096386,5b6482e9f5bc0a00019fd571,687ed1b7e638a4cbf2f02089,688037f98a55cec35c2b1c9a,,,,,,,,,,,,,,1,,,,,,,,,,,,,,,,,,,,,,,,,,,,,,,,,,,,,,,,,,,,,,,,,,,,,,,,,56,musgo,,,,,548.4197,549.749,0,0,0.7851,,0,54,54,55,1,REAL,FAKE,,,,,,,,,,,,,,,,,
,,,,,,,,,5b6482e9f5bc0a00019fd571,Mexican,13 or older,"no, only English or Spanish",no,2025-07-22_21h17.20.427,empathy_intonation_perc,2024.2.4,Win32,60.24096386,5b6482e9f5bc0a00019fd571,687ed1b7e638a4cbf2f02089,688037f98a55cec35c2b1c9a,,,,,,,,,,,,,,1,,,,,,,,,,,,,,,,,,,,,,,,,,,,,,,,,,,,,,,,,,,,,,,,,,,,,,,,,7,pésimo,,,,,549.7519,551.2473,0,0,0.958,,0,55,55,6,1,REAL,FAKE,,,,,,,,,,,,,,,,,
,,,,,,,,,5b6482e9f5bc0a00019fd571,Mexican,13 or older,"no, only English or Spanish",no,2025-07-22_21h17.20.427,empathy_intonation_perc,2024.2.4,Win32,60.24096386,5b6482e9f5bc0a00019fd571,687ed1b7e638a4cbf2f02089,688037f98a55cec35c2b1c9a,,,,,,,,,,,,,,1,,,,,,,,,,,,,,,,,,,,,,,,,,,,,,,,,,,,,,,,,,,,,,,,,,,,,,,,,12,asesinato,,,,,551.2503,553.5112,0,0,1.7242,,0,56,56,11,1,REAL,FAKE,,,,,,,,,,,,,,,,,
,,,,,,,,,5b6482e9f5bc0a00019fd571,Mexican,13 or older,"no, only English or Spanish",no,2025-07-22_21h17.20.427,empathy_intonation_perc,2024.2.4,Win32,60.24096386,5b6482e9f5bc0a00019fd571,687ed1b7e638a4cbf2f02089,688037f98a55cec35c2b1c9a,,,,,,,,,,,,,,1,,,,,,,,,,,,,,,,,,,,,,,,,,,,,,,,,,,,,,,,,,,,,,,,,,,,,,,,,15,regar,,,,,553.5124,554.8774,1,1,0.8167,,0,57,57,14,1,REAL,FAKE,,,,,,,,,,,,,,,,,
,,,,,,,,,5b6482e9f5bc0a00019fd571,Mexican,13 or older,"no, only English or Spanish",no,2025-07-22_21h17.20.427,empathy_intonation_perc,2024.2.4,Win32,60.24096386,5b6482e9f5bc0a00019fd571,687ed1b7e638a4cbf2f02089,688037f98a55cec35c2b1c9a,,,,,,,,,,,,,,1,,,,,,,,,,,,,,,,,,,,,,,,,,,,,,,,,,,,,,,,,,,,,,,,,,,,,,,,,75,yacer,,,,,554.8803,556.2759,0,0,0.8577,,0,58,58,74,1,REAL,FAKE,,,,,,,,,,,,,,,,,
,,,,,,,,,5b6482e9f5bc0a00019fd571,Mexican,13 or older,"no, only English or Spanish",no,2025-07-22_21h17.20.427,empathy_intonation_perc,2024.2.4,Win32,60.24096386,5b6482e9f5bc0a00019fd571,687ed1b7e638a4cbf2f02089,688037f98a55cec35c2b1c9a,,,,,,,,,,,,,,0,,,,,,,,,,,,,,,,,,,,,,,,,,,,,,,,,,,,,,,,,,,,,,,,,,,,,,,,,21,capillo,,,,,556.2791,557.7912,0,1,0.9664,,0,59,59,20,1,REAL,FAKE,,,,,,,,,,,,,,,,,
,,,,,,,,,5b6482e9f5bc0a00019fd571,Mexican,13 or older,"no, only English or Spanish",no,2025-07-22_21h17.20.427,empathy_intonation_perc,2024.2.4,Win32,60.24096386,5b6482e9f5bc0a00019fd571,687ed1b7e638a4cbf2f02089,688037f98a55cec35c2b1c9a,,,,,,,,,,,,,,1,,,,,,,,,,,,,,,,,,,,,,,,,,,,,,,,,,,,,,,,,,,,,,,,,,,,,,,,,39,torpe,,,,,557.7942,559.2732,0,0,0.9339,,0,60,60,38,1,REAL,FAKE,,,,,,,,,,,,,,,,,
,,,,,,,,,5b6482e9f5bc0a00019fd571,Mexican,13 or older,"no, only English or Spanish",no,2025-07-22_21h17.20.427,empathy_intonation_perc,2024.2.4,Win32,60.24096386,5b6482e9f5bc0a00019fd571,687ed1b7e638a4cbf2f02089,688037f98a55cec35c2b1c9a,,,,,,,,,,,,,,0,,,,,,,,,,,,,,,,,,,,,,,,,,,,,,,,,,,,,,,,,,,,,,,,,,,,,,,,,50,flamida,,,,,559.2763,560.8218,0,1,1.0007,,0,61,61,49,1,REAL,FAKE,,,,,,,,,,,,,,,,,
,,,,,,,,,5b6482e9f5bc0a00019fd571,Mexican,13 or older,"no, only English or Spanish",no,2025-07-22_21h17.20.427,empathy_intonation_perc,2024.2.4,Win32,60.24096386,5b6482e9f5bc0a00019fd571,687ed1b7e638a4cbf2f02089,688037f98a55cec35c2b1c9a,,,,,,,,,,,,,,1,,,,,,,,,,,,,,,,,,,,,,,,,,,,,,,,,,,,,,,,,,,,,,,,,,,,,,,,,13,helar,,,,,560.8248,562.3703,0,0,1.0021,,0,62,62,12,1,REAL,FAKE,,,,,,,,,,,,,,,,,
,,,,,,,,,5b6482e9f5bc0a00019fd571,Mexican,13 or older,"no, only English or Spanish",no,2025-07-22_21h17.20.427,empathy_intonation_perc,2024.2.4,Win32,60.24096386,5b6482e9f5bc0a00019fd571,687ed1b7e638a4cbf2f02089,688037f98a55cec35c2b1c9a,,,,,,,,,,,,,,0,,,,,,,,,,,,,,,,,,,,,,,,,,,,,,,,,,,,,,,,,,,,,,,,,,,,,,,,,92,click the 0 key.,,,,,562.3736,563.8856,0,1,0.9685,,0,63,63,91,1,REAL,FAKE,,,,,,,,,,,,,,,,,
,,,,,,,,,5b6482e9f5bc0a00019fd571,Mexican,13 or older,"no, only English or Spanish",no,2025-07-22_21h17.20.427,empathy_intonation_perc,2024.2.4,Win32,60.24096386,5b6482e9f5bc0a00019fd571,687ed1b7e638a4cbf2f02089,688037f98a55cec35c2b1c9a,,,,,,,,,,,,,,1,,,,,,,,,,,,,,,,,,,,,,,,,,,,,,,,,,,,,,,,,,,,,,,,,,,,,,,,,38,estornudar,,,,,563.8887,567.8652,0,0,3.4331,,0,64,64,37,1,REAL,FAKE,,,,,,,,,,,,,,,,,
,,,,,,,,,5b6482e9f5bc0a00019fd571,Mexican,13 or older,"no, only English or Spanish",no,2025-07-22_21h17.20.427,empathy_intonation_perc,2024.2.4,Win32,60.24096386,5b6482e9f5bc0a00019fd571,687ed1b7e638a4cbf2f02089,688037f98a55cec35c2b1c9a,,,,,,,,,,,,,,0,,,,,,,,,,,,,,,,,,,,,,,,,,,,,,,,,,,,,,,,,,,,,,,,,,,,,,,,,42,cadallo,,,,,567.8681,569.78,0,1,1.3725,,0,65,65,41,1,REAL,FAKE,,,,,,,,,,,,,,,,,
,,,,,,,,,5b6482e9f5bc0a00019fd571,Mexican,13 or older,"no, only English or Spanish",no,2025-07-22_21h17.20.427,empathy_intonation_perc,2024.2.4,Win32,60.24096386,5b6482e9f5bc0a00019fd571,687ed1b7e638a4cbf2f02089,688037f98a55cec35c2b1c9a,,,,,,,,,,,,,,0,,,,,,,,,,,,,,,,,,,,,,,,,,,,,,,,,,,,,,,,,,,,,,,,,,,,,,,,,70,temblo,,,,,569.783,571.5282,0,1,1.1991,,0,66,66,69,1,REAL,FAKE,,,,,,,,,,,,,,,,,
,,,,,,,,,5b6482e9f5bc0a00019fd571,Mexican,13 or older,"no, only English or Spanish",no,2025-07-22_21h17.20.427,empathy_intonation_perc,2024.2.4,Win32,60.24096386,5b6482e9f5bc0a00019fd571,687ed1b7e638a4cbf2f02089,688037f98a55cec35c2b1c9a,,,,,,,,,,,,,,1,,,,,,,,,,,,,,,,,,,,,,,,,,,,,,,,,,,,,,,,,,,,,,,,,,,,,,,,,52,camisa,,,,,571.5312,573.1601,1,1,1.0895,,0,67,67,51,1,REAL,FAKE,,,,,,,,,,,,,,,,,
,,,,,,,,,5b6482e9f5bc0a00019fd571,Mexican,13 or older,"no, only English or Spanish",no,2025-07-22_21h17.20.427,empathy_intonation_perc,2024.2.4,Win32,60.24096386,5b6482e9f5bc0a00019fd571,687ed1b7e638a4cbf2f02089,688037f98a55cec35c2b1c9a,,,,,,,,,,,,,,1,,,,,,,,,,,,,,,,,,,,,,,,,,,,,,,,,,,,,,,,,,,,,,,,,,,,,,,,,69,engatusar,,,,,573.1642,574.6917,0,0,0.9815,,0,68,68,68,1,REAL,FAKE,,,,,,,,,,,,,,,,,
,,,,,,,,,5b6482e9f5bc0a00019fd571,Mexican,13 or older,"no, only English or Spanish",no,2025-07-22_21h17.20.427,empathy_intonation_perc,2024.2.4,Win32,60.24096386,5b6482e9f5bc0a00019fd571,687ed1b7e638a4cbf2f02089,688037f98a55cec35c2b1c9a,,,,,,,,,,,,,,1,,,,,,,,,,,,,,,,,,,,,,,,,,,,,,,,,,,,,,,,,,,,,,,,,,,,,,,,,36,loro,,,,,574.694,576.0569,0,0,0.8239,,0,69,69,35,1,REAL,FAKE,,,,,,,,,,,,,,,,,
,,,,,,,,,5b6482e9f5bc0a00019fd571,Mexican,13 or older,"no, only English or Spanish",no,2025-07-22_21h17.20.427,empathy_intonation_perc,2024.2.4,Win32,60.24096386,5b6482e9f5bc0a00019fd571,687ed1b7e638a4cbf2f02089,688037f98a55cec35c2b1c9a,,,,,,,,,,,,,,1,,,,,,,,,,,,,,,,,,,,,,,,,,,,,,,,,,,,,,,,,,,,,,,,,,,,,,,,,51,candado,,,,,576.0581,577.7886,1,1,1.1939,,0,70,70,50,1,REAL,FAKE,,,,,,,,,,,,,,,,,
,,,,,,,,,5b6482e9f5bc0a00019fd571,Mexican,13 or older,"no, only English or Spanish",no,2025-07-22_21h17.20.427,empathy_intonation_perc,2024.2.4,Win32,60.24096386,5b6482e9f5bc0a00019fd571,687ed1b7e638a4cbf2f02089,688037f98a55cec35c2b1c9a,,,,,,,,,,,,,,1,,,,,,,,,,,,,,,,,,,,,,,,,,,,,,,,,,,,,,,,,,,,,,,,,,,,,,,,,83,guante,,,,,577.7907,579.5537,0,0,1.2198,,0,71,71,82,1,REAL,FAKE,,,,,,,,,,,,,,,,,
,,,,,,,,,5b6482e9f5bc0a00019fd571,Mexican,13 or older,"no, only English or Spanish",no,2025-07-22_21h17.20.427,empathy_intonation_perc,2024.2.4,Win32,60.24096386,5b6482e9f5bc0a00019fd571,687ed1b7e638a4cbf2f02089,688037f98a55cec35c2b1c9a,,,,,,,,,,,,,,0,,,,,,,,,,,,,,,,,,,,,,,,,,,,,,,,,,,,,,,,,,,,,,,,,,,,,,,,,16,abracer,,,,,579.5544,581.186,0,1,1.0924,,0,72,72,15,1,REAL,FAKE,,,,,,,,,,,,,,,,,
,,,,,,,,,5b6482e9f5bc0a00019fd571,Mexican,13 or older,"no, only English or Spanish",no,2025-07-22_21h17.20.427,empathy_intonation_perc,2024.2.4,Win32,60.24096386,5b6482e9f5bc0a00019fd571,687ed1b7e638a4cbf2f02089,688037f98a55cec35c2b1c9a,,,,,,,,,,,,,,1,,,,,,,,,,,,,,,,,,,,,,,,,,,,,,,,,,,,,,,,,,,,,,,,,,,,,,,,,91,click the 1 key.,,,,,581.1901,582.7515,1,1,1.025,,0,73,73,90,1,REAL,FAKE,,,,,,,,,,,,,,,,,
,,,,,,,,,5b6482e9f5bc0a00019fd571,Mexican,13 or older,"no, only English or Spanish",no,2025-07-22_21h17.20.427,empathy_intonation_perc,2024.2.4,Win32,60.24096386,5b6482e9f5bc0a00019fd571,687ed1b7e638a4cbf2f02089,688037f98a55cec35c2b1c9a,,,,,,,,,,,,,,1,,,,,,,,,,,,,,,,,,,,,,,,,,,,,,,,,,,,,,,,,,,,,,,,,,,,,,,,,6,tergiversar,,,,,582.7552,585.4154,0,0,2.1189,,0,74,74,5,1,REAL,FAKE,,,,,,,,,,,,,,,,,
,,,,,,,,,5b6482e9f5bc0a00019fd571,Mexican,13 or older,"no, only English or Spanish",no,2025-07-22_21h17.20.427,empathy_intonation_perc,2024.2.4,Win32,60.24096386,5b6482e9f5bc0a00019fd571,687ed1b7e638a4cbf2f02089,688037f98a55cec35c2b1c9a,,,,,,,,,,,,,,1,,,,,,,,,,,,,,,,,,,,,,,,,,,,,,,,,,,,,,,,,,,,,,,,,,,,,,,,,26,secuestro,,,,,585.4195,587.3467,0,0,1.3881,,0,75,75,25,1,REAL,FAKE,,,,,,,,,,,,,,,,,
,,,,,,,,,5b6482e9f5bc0a00019fd571,Mexican,13 or older,"no, only English or Spanish",no,2025-07-22_21h17.20.427,empathy_intonation_perc,2024.2.4,Win32,60.24096386,5b6482e9f5bc0a00019fd571,687ed1b7e638a4cbf2f02089,688037f98a55cec35c2b1c9a,,,,,,,,,,,,,,1,,,,,,,,,,,,,,,,,,,,,,,,,,,,,,,,,,,,,,,,,,,,,,,,,,,,,,,,,49,ganar,,,,,587.3497,589.0453,1,1,1.157,,0,76,76,48,1,REAL,FAKE,,,,,,,,,,,,,,,,,
,,,,,,,,,5b6482e9f5bc0a00019fd571,Mexican,13 or older,"no, only English or Spanish",no,2025-07-22_21h17.20.427,empathy_intonation_perc,2024.2.4,Win32,60.24096386,5b6482e9f5bc0a00019fd571,687ed1b7e638a4cbf2f02089,688037f98a55cec35c2b1c9a,,,,,,,,,,,,,,1,,,,,,,,,,,,,,,,,,,,,,,,,,,,,,,,,,,,,,,,,,,,,,,,,,,,,,,,,9,hacha,,,,,589.0482,590.494,0,0,0.9015,,0,77,77,8,1,REAL,FAKE,,,,,,,,,,,,,,,,,
,,,,,,,,,5b6482e9f5bc0a00019fd571,Mexican,13 or older,"no, only English or Spanish",no,2025-07-22_21h17.20.427,empathy_intonation_perc,2024.2.4,Win32,60.24096386,5b6482e9f5bc0a00019fd571,687ed1b7e638a4cbf2f02089,688037f98a55cec35c2b1c9a,,,,,,,,,,,,,,1,,,,,,,,,,,,,,,,,,,,,,,,,,,,,,,,,,,,,,,,,,,,,,,,,,,,,,,,,45,jilguero,,,,,590.497,591.826,0,0,0.7917,,0,78,78,44,1,REAL,FAKE,,,,,,,,,,,,,,,,,
,,,,,,,,,5b6482e9f5bc0a00019fd571,Mexican,13 or older,"no, only English or Spanish",no,2025-07-22_21h17.20.427,empathy_intonation_perc,2024.2.4,Win32,60.24096386,5b6482e9f5bc0a00019fd571,687ed1b7e638a4cbf2f02089,688037f98a55cec35c2b1c9a,,,,,,,,,,,,,,1,,,,,,,,,,,,,,,,,,,,,,,,,,,,,,,,,,,,,,,,,,,,,,,,,,,,,,,,,80,hormiga,,,,,591.83,593.8739,1,1,1.5074,,0,79,79,79,1,REAL,FAKE,,,,,,,,,,,,,,,,,
,,,,,,,,,5b6482e9f5bc0a00019fd571,Mexican,13 or older,"no, only English or Spanish",no,2025-07-22_21h17.20.427,empathy_intonation_perc,2024.2.4,Win32,60.24096386,5b6482e9f5bc0a00019fd571,687ed1b7e638a4cbf2f02089,688037f98a55cec35c2b1c9a,,,,,,,,,,,,,,1,,,,,,,,,,,,,,,,,,,,,,,,,,,,,,,,,,,,,,,,,,,,,,,,,,,,,,,,,88,acantilado,,,,,593.877,595.7058,0,0,1.2834,,0,80,80,87,1,REAL,FAKE,,,,,,,,,,,,,,,,,
,,,,,,,,,5b6482e9f5bc0a00019fd571,Mexican,13 or older,"no, only English or Spanish",no,2025-07-22_21h17.20.427,empathy_intonation_perc,2024.2.4,Win32,60.24096386,5b6482e9f5bc0a00019fd571,687ed1b7e638a4cbf2f02089,688037f98a55cec35c2b1c9a,,,,,,,,,,,,,,1,,,,,,,,,,,,,,,,,,,,,,,,,,,,,,,,,,,,,,,,,,,,,,,,,,,,,,,,,54,fomentar,,,,,595.7087,597.7873,0,0,1.5351,,0,81,81,53,1,REAL,FAKE,,,,,,,,,,,,,,,,,
,,,,,,,,,5b6482e9f5bc0a00019fd571,Mexican,13 or older,"no, only English or Spanish",no,2025-07-22_21h17.20.427,empathy_intonation_perc,2024.2.4,Win32,60.24096386,5b6482e9f5bc0a00019fd571,687ed1b7e638a4cbf2f02089,688037f98a55cec35c2b1c9a,,,,,,,,,,,,,,0,,,,,,,,,,,,,,,,,,,,,,,,,,,,,,,,,,,,,,,,,,,,,,,,,,,,,,,,,4,batillón,,,,,597.7905,599.6187,1,0,1.2845,,0,82,82,3,1,REAL,FAKE,,,,,,,,,,,,,,,,,
,,,,,,,,,5b6482e9f5bc0a00019fd571,Mexican,13 or older,"no, only English or Spanish",no,2025-07-22_21h17.20.427,empathy_intonation_perc,2024.2.4,Win32,60.24096386,5b6482e9f5bc0a00019fd571,687ed1b7e638a4cbf2f02089,688037f98a55cec35c2b1c9a,,,,,,,,,,,,,,0,,,,,,,,,,,,,,,,,,,,,,,,,,,,,,,,,,,,,,,,,,,,,,,,,,,,,,,,,82,empirador,,,,,599.6219,601.7997,1,0,1.6329,,0,83,83,81,1,REAL,FAKE,,,,,,,,,,,,,,,,,
,,,,,,,,,5b6482e9f5bc0a00019fd571,Mexican,13 or older,"no, only English or Spanish",no,2025-07-22_21h17.20.427,empathy_intonation_perc,2024.2.4,Win32,60.24096386,5b6482e9f5bc0a00019fd571,687ed1b7e638a4cbf2f02089,688037f98a55cec35c2b1c9a,,,,,,,,,,,,,,1,,,,,,,,,,,,,,,,,,,,,,,,,,,,,,,,,,,,,,,,,,,,,,,,,,,,,,,,,22,lacayo,,,,,601.8026,603.0322,0,0,0.6854,,0,84,84,21,1,REAL,FAKE,,,,,,,,,,,,,,,,,
,,,,,,,,,5b6482e9f5bc0a00019fd571,Mexican,13 or older,"no, only English or Spanish",no,2025-07-22_21h17.20.427,empathy_intonation_perc,2024.2.4,Win32,60.24096386,5b6482e9f5bc0a00019fd571,687ed1b7e638a4cbf2f02089,688037f98a55cec35c2b1c9a,,,,,,,,,,,,,,0,,,,,,,,,,,,,,,,,,,,,,,,,,,,,,,,,,,,,,,,,,,,,,,,,,,,,,,,,72,pemición,,,,,603.0351,604.381,0,1,0.8004,,0,85,85,71,1,REAL,FAKE,,,,,,,,,,,,,,,,,
,,,,,,,,,5b6482e9f5bc0a00019fd571,Mexican,13 or older,"no, only English or Spanish",no,2025-07-22_21h17.20.427,empathy_intonation_perc,2024.2.4,Win32,60.24096386,5b6482e9f5bc0a00019fd571,687ed1b7e638a4cbf2f02089,688037f98a55cec35c2b1c9a,,,,,,,,,,,,,,1,,,,,,,,,,,,,,,,,,,,,,,,,,,,,,,,,,,,,,,,,,,,,,,,,,,,,,,,,67,cabello,,,,,604.3841,605.8962,1,1,0.9661,,0,86,86,66,1,REAL,FAKE,,,,,,,,,,,,,,,,,
,,,,,,,,,5b6482e9f5bc0a00019fd571,Mexican,13 or older,"no, only English or Spanish",no,2025-07-22_21h17.20.427,empathy_intonation_perc,2024.2.4,Win32,60.24096386,5b6482e9f5bc0a00019fd571,687ed1b7e638a4cbf2f02089,688037f98a55cec35c2b1c9a,,,,,,,,,,,,,,0,,,,,,,,,,,,,,,,,,,,,,,,,,,,,,,,,,,,,,,,,,,,,,,,,,,,,,,,,19,brecedad,,,,,605.8993,607.1951,0,1,0.7554,,0,87,87,18,1,REAL,FAKE,,,,,,,,,,,,,,,,,
,,,,,,,,,5b6482e9f5bc0a00019fd571,Mexican,13 or older,"no, only English or Spanish",no,2025-07-22_21h17.20.427,empathy_intonation_perc,2024.2.4,Win32,60.24096386,5b6482e9f5bc0a00019fd571,687ed1b7e638a4cbf2f02089,688037f98a55cec35c2b1c9a,,,,,,,,,,,,,,0,,,,,,,,,,,,,,,,,,,,,,,,,,,,,,,,,,,,,,,,,,,,,,,,,,,,,,,,,63,esposante,,,,,607.1982,609.195,0,1,1.4613,,0,88,88,62,1,REAL,FAKE,,,,,,,,,,,,,,,,,
,,,,,,,,,5b6482e9f5bc0a00019fd571,Mexican,13 or older,"no, only English or Spanish",no,2025-07-22_21h17.20.427,empathy_intonation_perc,2024.2.4,Win32,60.24096386,5b6482e9f5bc0a00019fd571,687ed1b7e638a4cbf2f02089,688037f98a55cec35c2b1c9a,,,,,,,,,,,,,,1,,,,,,,,,,,,,,,,,,,,,,,,,,,,,,,,,,,,,,,,,,,,,,,,,,,,,,,,,3,pulmones,,,,,609.1976,610.6252,0,0,0.8834,,0,89,89,2,1,REAL,FAKE,,,,,,,,,,,,,,,,,
,,,,,,,,,5b6482e9f5bc0a00019fd571,Mexican,13 or older,"no, only English or Spanish",no,2025-07-22_21h17.20.427,empathy_intonation_perc,2024.2.4,Win32,60.24096386,5b6482e9f5bc0a00019fd571,687ed1b7e638a4cbf2f02089,688037f98a55cec35c2b1c9a,,,,,,,,,,,,,,0,,,,,,,,,,,,,,,,,,,,,,,,,,,,,,,,,,,,,,,,,,,,,,,,,,,,,,,,,18,arsa,,,,,610.6283,611.9242,0,1,0.7555,,0,90,90,17,1,REAL,FAKE,,,,,,,,,,,,,,,,,
,,,,,,,,,5b6482e9f5bc0a00019fd571,Mexican,13 or older,"no, only English or Spanish",no,2025-07-22_21h17.20.427,empathy_intonation_perc,2024.2.4,Win32,60.24096386,5b6482e9f5bc0a00019fd571,687ed1b7e638a4cbf2f02089,688037f98a55cec35c2b1c9a,,,,,,,,,,,,,,1,,,,,,,,,,,,,,,,,,,,,,,,,,,,,,,,,,,,,,,,,,,,,,,,,,,,,,,,,40,alfombra,,,,,611.928,613.3893,0,0,0.9175,,0,91,91,39,1,REAL,FAKE,,,,,,,,,,,,,,,,,
,,,,,,,,,5b6482e9f5bc0a00019fd571,Mexican,13 or older,"no, only English or Spanish",no,2025-07-22_21h17.20.427,empathy_intonation_perc,2024.2.4,Win32,60.24096386,5b6482e9f5bc0a00019fd571,687ed1b7e638a4cbf2f02089,688037f98a55cec35c2b1c9a,,,,,,,,,,,,,,,,,,,,,,,,,,,,,,,,,,,,,,,,,,,,,,,,,,,,,,,,,,,,,,,,,,,,,,,,,,,,,,,,,,,,,,,,,,613.3916,700.6084,,,,,,,,,,,,,,,
,,,,,,,,,5b6482e9f5bc0a00019fd571,Mexican,13 or older,"no, only English or Spanish",no,2025-07-22_21h17.20.427,empathy_intonation_perc,2024.2.4,Win32,60.24096386,5b6482e9f5bc0a00019fd571,687ed1b7e638a4cbf2f02089,688037f98a55cec35c2b1c9a,,,,,,,,,,,,,1,,,,,,,,,,,,,,,,,,,,,,,,,,,,,,,,,,,,,,,,,,,,,,,,,,,,,,,,,,,,,,,,,,,,,,,,,,,,,,,700.6321,707.4013,slightly agree,0,0,0,0,1,I can easily tell if someone else wants to enter a conversation.,1,0,1,0,,
,,,,,,,,,5b6482e9f5bc0a00019fd571,Mexican,13 or older,"no, only English or Spanish",no,2025-07-22_21h17.20.427,empathy_intonation_perc,2024.2.4,Win32,60.24096386,5b6482e9f5bc0a00019fd571,687ed1b7e638a4cbf2f02089,688037f98a55cec35c2b1c9a,,,,,,,,,,,,,2,,,,,,,,,,,,,,,,,,,,,,,,,,,,,,,,,,,,,,,,,,,,,,,,,,,,,,,,,,,,,,,,,,,,,,,,,,,,,,,707.4047,709.4821,strongly agree,0,1,1,1,1,I prefer animals to humans.,0,1,0,0,,
,,,,,,,,,5b6482e9f5bc0a00019fd571,Mexican,13 or older,"no, only English or Spanish",no,2025-07-22_21h17.20.427,empathy_intonation_perc,2024.2.4,Win32,60.24096386,5b6482e9f5bc0a00019fd571,687ed1b7e638a4cbf2f02089,688037f98a55cec35c2b1c9a,,,,,,,,,,,,,3,,,,,,,,,,,,,,,,,,,,,,,,,,,,,,,,,,,,,,,,,,,,,,,,,,,,,,,,,,,,,,,,,,,,,,,,,,,,,,,709.4844,712.5294,strongly disagree,0,2,2,2,1,I try to keep up with the current trends and fashions.,0,1,0,0,,
,,,,,,,,,5b6482e9f5bc0a00019fd571,Mexican,13 or older,"no, only English or Spanish",no,2025-07-22_21h17.20.427,empathy_intonation_perc,2024.2.4,Win32,60.24096386,5b6482e9f5bc0a00019fd571,687ed1b7e638a4cbf2f02089,688037f98a55cec35c2b1c9a,,,,,,,,,,,,,4,,,,,,,,,,,,,,,,,,,,,,,,,,,,,,,,,,,,,,,,,,,,,,,,,,,,,,,,,,,,,,,,,,,,,,,,,,,,,,,712.5332,718.2903,strongly agree,0,3,3,3,1,"I find it difficult to explain to others things that I understand easily,   when they don't understand it first time.",1,0,0,1,,
,,,,,,,,,5b6482e9f5bc0a00019fd571,Mexican,13 or older,"no, only English or Spanish",no,2025-07-22_21h17.20.427,empathy_intonation_perc,2024.2.4,Win32,60.24096386,5b6482e9f5bc0a00019fd571,687ed1b7e638a4cbf2f02089,688037f98a55cec35c2b1c9a,,,,,,,,,,,,,5,,,,,,,,,,,,,,,,,,,,,,,,,,,,,,,,,,,,,,,,,,,,,,,,,,,,,,,,,,,,,,,,,,,,,,,,,,,,,,,718.291,720.2555,strongly disagree,0,4,4,4,1,I dream most nights.,0,1,0,0,,
,,,,,,,,,5b6482e9f5bc0a00019fd571,Mexican,13 or older,"no, only English or Spanish",no,2025-07-22_21h17.20.427,empathy_intonation_perc,2024.2.4,Win32,60.24096386,5b6482e9f5bc0a00019fd571,687ed1b7e638a4cbf2f02089,688037f98a55cec35c2b1c9a,,,,,,,,,,,,,6,,,,,,,,,,,,,,,,,,,,,,,,,,,,,,,,,,,,,,,,,,,,,,,,,,,,,,,,,,,,,,,,,,,,,,,,,,,,,,,720.2569,723.6356,slightly agree,0,5,5,5,1,I really enjoy caring for other people.,1,0,1,0,,
,,,,,,,,,5b6482e9f5bc0a00019fd571,Mexican,13 or older,"no, only English or Spanish",no,2025-07-22_21h17.20.427,empathy_intonation_perc,2024.2.4,Win32,60.24096386,5b6482e9f5bc0a00019fd571,687ed1b7e638a4cbf2f02089,688037f98a55cec35c2b1c9a,,,,,,,,,,,,,7,,,,,,,,,,,,,,,,,,,,,,,,,,,,,,,,,,,,,,,,,,,,,,,,,,,,,,,,,,,,,,,,,,,,,,,,,,,,,,,723.6372,728.4482,slightly agree,0,6,6,6,1,I try to solve my own problems rather than discussing them with others.,0,1,0,0,,
,,,,,,,,,5b6482e9f5bc0a00019fd571,Mexican,13 or older,"no, only English or Spanish",no,2025-07-22_21h17.20.427,empathy_intonation_perc,2024.2.4,Win32,60.24096386,5b6482e9f5bc0a00019fd571,687ed1b7e638a4cbf2f02089,688037f98a55cec35c2b1c9a,,,,,,,,,,,,,8,,,,,,,,,,,,,,,,,,,,,,,,,,,,,,,,,,,,,,,,,,,,,,,,,,,,,,,,,,,,,,,,,,,,,,,,,,,,,,,728.4495,730.5627,slightly agree,0,7,7,7,1,I find it hard to know what to do in a social situation.,1,0,0,1,,
,,,,,,,,,5b6482e9f5bc0a00019fd571,Mexican,13 or older,"no, only English or Spanish",no,2025-07-22_21h17.20.427,empathy_intonation_perc,2024.2.4,Win32,60.24096386,5b6482e9f5bc0a00019fd571,687ed1b7e638a4cbf2f02089,688037f98a55cec35c2b1c9a,,,,,,,,,,,,,9,,,,,,,,,,,,,,,,,,,,,,,,,,,,,,,,,,,,,,,,,,,,,,,,,,,,,,,,,,,,,,,,,,,,,,,,,,,,,,,730.5642,734.9917,slightly disagree,0,8,8,8,1,I am at my best first thing in the morning.,0,1,0,0,,
,,,,,,,,,5b6482e9f5bc0a00019fd571,Mexican,13 or older,"no, only English or Spanish",no,2025-07-22_21h17.20.427,empathy_intonation_perc,2024.2.4,Win32,60.24096386,5b6482e9f5bc0a00019fd571,687ed1b7e638a4cbf2f02089,688037f98a55cec35c2b1c9a,,,,,,,,,,,,,10,,,,,,,,,,,,,,,,,,,,,,,,,,,,,,,,,,,,,,,,,,,,,,,,,,,,,,,,,,,,,,,,,,,,,,,,,,,,,,,734.9929,738.8546,strongly disagree,0,9,9,9,1,People often tell me that I went too far in driving my point home in a discussion.,1,0,0,1,,
