instructions_exposure.started,instructions_exposure.stopped,instructions_exposure_loop.thisRepN,instructions_exposure_loop.thisTrialN,instructions_exposure_loop.thisN,instructions_exposure_loop.thisIndex,instructions_exposure_loop.ran,instructions_text,continue_text,participant_id,"What variety of Spanish are you most familiar with? (e.g., Peruvian, Spanish, Mexican)",At what age did you begin learning Spanish?,Are you proficient in any languages other than English/Spanish?,"Are you familiar with Caribbean (e.g., Caribbean, Puerto Rican) or Galician Spanish?",date,expName,psychopyVersion,OS,frameRate,id,study_id,session,trial_exposure.started,trial_exposure.stopped,key_resp_exposure.keys,key_resp_exposure.corr,key_resp_exposure.rt,key_resp_exposure.duration,key_resp.keys,exposure_loop.thisRepN,exposure_loop.thisTrialN,exposure_loop.thisN,exposure_loop.thisIndex,exposure_loop.ran,item_num,correct_response,question,path,duration,instructions_2afc.started,instructions_2afc.stopped,instructions_2afc_loop.thisRepN,instructions_2afc_loop.thisTrialN,instructions_2afc_loop.thisN,instructions_2afc_loop.thisIndex,instructions_2afc_loop.ran,practice_2afc.started,practice_2afc.stopped,key_resp_2afc_practice.keys,key_resp_2afc_practice.corr,key_resp_2afc_practice.rt,key_resp_2afc_practice.duration,trials_2afc_practice_loop.thisRepN,trials_2afc_practice_loop.thisTrialN,trials_2afc_practice_loop.thisN,trials_2afc_practice_loop.thisIndex,trials_2afc_practice_loop.ran,check_2afc.started,check_2afc.stopped,trial_2afc.started,trial_2afc.stopped,key_resp_2afc_trial.keys,key_resp_2afc_trial.corr,key_resp_2afc_trial.rt,key_resp_2afc_trial.duration,trials_2afc_loop.thisRepN,trials_2afc_loop.thisTrialN,trials_2afc_loop.thisN,trials_2afc_loop.thisIndex,trials_2afc_loop.ran,target,variety,instructions_lextale.started,instructions_lextale.stopped,instructions_lextale_loop.thisRepN,instructions_lextale_loop.thisTrialN,instructions_lextale_loop.thisN,instructions_lextale_loop.thisIndex,instructions_lextale_loop.ran,practice_lextale.started,practice_lextale.stopped,key_resp_lextale_practice.keys,key_resp_lextale_practice.corr,key_resp_lextale_practice.rt,key_resp_lextale_practice.duration,practice_feedback_lextale.started,practice_feedback_lextale.stopped,trials_lextale_practice_loop.thisRepN,trials_lextale_practice_loop.thisTrialN,trials_lextale_practice_loop.thisN,trials_lextale_practice_loop.thisIndex,trials_lextale_practice_loop.ran,stim,word,prac_button_real,prac_button_false,check_lextale.started,check_lextale.stopped,trial_lextale.started,trial_lextale.stopped,key_resp_lextale_trial.keys,key_resp_lextale_trial.corr,key_resp_lextale_trial.rt,key_resp_lextale_trial.duration,trials_lextale_loop.thisRepN,trials_lextale_loop.thisTrialN,trials_lextale_loop.thisN,trials_lextale_loop.thisIndex,trials_lextale_loop.ran,button_real,button_false,instructions_eq.started,instructions_eq.stopped,trial_eq.started,trial_eq.stopped,slider_eq_trial.response,trials_eq_loop.thisRepN,trials_eq_loop.thisTrialN,trials_eq_loop.thisN,trials_eq_loop.thisIndex,trials_eq_loop.ran,item,is_test_item,is_distractor,is_agree_score,is_disagree_score,end_exp.started,end_exp.stopped
0.0234,10.9988,0,0,0,0,1,"In the following task, you are going to hear a series of conversations.", (press the space bar to continue),5bd77196beca730001ced094,Spanish,13 or older,"no, only English or Spanish",no,2025-07-22_22h19.37.198,empathy_intonation_perc,2024.2.4,Win32,40,5bd77196beca730001ced094,687ed1b7e638a4cbf2f02089,68804654ff543006e5ff9c6d,,,,,,,,,,,,,,,,,,,,,,,,,,,,,,,,,,,,,,,,,,,,,,,,,,,,,,,,,,,,,,,,,,,,,,,,,,,,,,,,,,,,,,,,,,,,,,,,,,,,,,,,,,
11.0009,18.1952,0,1,1,1,1,It is okay if you don't not 100% understand them!, (press the space bar to continue),5bd77196beca730001ced094,Spanish,13 or older,"no, only English or Spanish",no,2025-07-22_22h19.37.198,empathy_intonation_perc,2024.2.4,Win32,40,5bd77196beca730001ced094,687ed1b7e638a4cbf2f02089,68804654ff543006e5ff9c6d,,,,,,,,,,,,,,,,,,,,,,,,,,,,,,,,,,,,,,,,,,,,,,,,,,,,,,,,,,,,,,,,,,,,,,,,,,,,,,,,,,,,,,,,,,,,,,,,,,,,,,,,,,
18.1981,24.6184,0,2,2,2,1,"After, you will read a sentence about the conversation and decide if it's true or false.", (press the space bar to continue),5bd77196beca730001ced094,Spanish,13 or older,"no, only English or Spanish",no,2025-07-22_22h19.37.198,empathy_intonation_perc,2024.2.4,Win32,40,5bd77196beca730001ced094,687ed1b7e638a4cbf2f02089,68804654ff543006e5ff9c6d,,,,,,,,,,,,,,,,,,,,,,,,,,,,,,,,,,,,,,,,,,,,,,,,,,,,,,,,,,,,,,,,,,,,,,,,,,,,,,,,,,,,,,,,,,,,,,,,,,,,,,,,,,
24.6216,33.066,0,3,3,3,1,"If it's true, press '1' (True) and if it's false press '0' (False).", (press the space bar to continue),5bd77196beca730001ced094,Spanish,13 or older,"no, only English or Spanish",no,2025-07-22_22h19.37.198,empathy_intonation_perc,2024.2.4,Win32,40,5bd77196beca730001ced094,687ed1b7e638a4cbf2f02089,68804654ff543006e5ff9c6d,,,,,,,,,,,,,,,,,,,,,,,,,,,,,,,,,,,,,,,,,,,,,,,,,,,,,,,,,,,,,,,,,,,,,,,,,,,,,,,,,,,,,,,,,,,,,,,,,,,,,,,,,,
,,,,,,,,,5bd77196beca730001ced094,Spanish,13 or older,"no, only English or Spanish",no,2025-07-22_22h19.37.198,empathy_intonation_perc,2024.2.4,Win32,40,5bd77196beca730001ced094,687ed1b7e638a4cbf2f02089,68804654ff543006e5ff9c6d,33.0805,99.5239,1,1,6.2613,,,0,0,0,1,1,2,1,The mom asked the daughter if she already went to the supermarket.,./stim/exposure_wavs/dr_stimuli_convo.wav,60,,,,,,,,,,,,,,,,,,,,,,,,,,,,,,,,,,,,,,,,,,,,,,,,,,,,,,,,,,,,,,,,,,,,,,,,,,,,,,,,,,,,,,,,,
,,,,,,,,,5bd77196beca730001ced094,Spanish,13 or older,"no, only English or Spanish",no,2025-07-22_22h19.37.198,empathy_intonation_perc,2024.2.4,Win32,40,5bd77196beca730001ced094,687ed1b7e638a4cbf2f02089,68804654ff543006e5ff9c6d,99.5265,159.3327,0,0,12.7676,,,0,1,1,0,1,1,1,The son asked the mom if Aunt Marina is okay.,./stim/exposure_wavs/ga_stimuli_convo.wav,47,,,,,,,,,,,,,,,,,,,,,,,,,,,,,,,,,,,,,,,,,,,,,,,,,,,,,,,,,,,,,,,,,,,,,,,,,,,,,,,,,,,,,,,,,
,,,,,,,,,5bd77196beca730001ced094,Spanish,13 or older,"no, only English or Spanish",no,2025-07-22_22h19.37.198,empathy_intonation_perc,2024.2.4,Win32,40,5bd77196beca730001ced094,687ed1b7e638a4cbf2f02089,68804654ff543006e5ff9c6d,159.3377,208.0197,0,1,12.6342,,,0,2,2,2,1,3,0,The mom already has rice.,./stim/exposure_wavs/pr_stimuli_convo.wav,36,,,,,,,,,,,,,,,,,,,,,,,,,,,,,,,,,,,,,,,,,,,,,,,,,,,,,,,,,,,,,,,,,,,,,,,,,,,,,,,,,,,,,,,,,
,,,,,,,"In the following task you are going to hear a series of utterances. 

  You will decide if the utterances sound like questions or not using your keyboard.", (press the spacebar to continue),5bd77196beca730001ced094,Spanish,13 or older,"no, only English or Spanish",no,2025-07-22_22h19.37.198,empathy_intonation_perc,2024.2.4,Win32,40,5bd77196beca730001ced094,687ed1b7e638a4cbf2f02089,68804654ff543006e5ff9c6d,,,,,,,,,,,,,,,,,,208.0343,218.3931,0,0,0,0,1,,,,,,,,,,,,,,,,,,,,,,,,,,,,,,,,,,,,,,,,,,,,,,,,,,,,,,,,,,,,,,,,,,,,,,,,,,,,,,,,,,
,,,,,,,"If you believe the utterance is a question, type '1' (for 'yes') and if you do not 
  believe it is a question type '0' (for 'no').

  Let's practice a bit...", (press the spacebar to continue),5bd77196beca730001ced094,Spanish,13 or older,"no, only English or Spanish",no,2025-07-22_22h19.37.198,empathy_intonation_perc,2024.2.4,Win32,40,5bd77196beca730001ced094,687ed1b7e638a4cbf2f02089,68804654ff543006e5ff9c6d,,,,,,,,,,,,,,,,,,218.3979,234.5127,0,1,1,1,1,,,,,,,,,,,,,,,,,,,,,,,,,,,,,,,,,,,,,,,,,,,,,,,,,,,,,,,,,,,,,,,,,,,,,,,,,,,,,,,,,,
,,,,,,,,,5bd77196beca730001ced094,Spanish,13 or older,"no, only English or Spanish",no,2025-07-22_22h19.37.198,empathy_intonation_perc,2024.2.4,Win32,40,5bd77196beca730001ced094,687ed1b7e638a4cbf2f02089,68804654ff543006e5ff9c6d,,,,,,,,,,,,,,0,,./stim/wavs/peruvian_statement_filler_El-nino-habla-con-su-madre.wav,,,,,,,,,234.5295,244.4848,0,1,9.4226,,0,0,0,6,1,,,,,,,,,,,,,,,,,,,,,,,,,,,,,,,,,,,,,,,,,,,,,,,,,,,,,,,,,,,,,,,,,,,,,,,
,,,,,,,,,5bd77196beca730001ced094,Spanish,13 or older,"no, only English or Spanish",no,2025-07-22_22h19.37.198,empathy_intonation_perc,2024.2.4,Win32,40,5bd77196beca730001ced094,687ed1b7e638a4cbf2f02089,68804654ff543006e5ff9c6d,,,,,,,,,,,,,,1,,./stim/wavs/mexican_question_filler_Felipe-no-tiene-contrasena.wav,,,,,,,,,244.4859,249.3586,1,1,4.3241,,0,1,1,3,1,,,,,,,,,,,,,,,,,,,,,,,,,,,,,,,,,,,,,,,,,,,,,,,,,,,,,,,,,,,,,,,,,,,,,,,
,,,,,,,,,5bd77196beca730001ced094,Spanish,13 or older,"no, only English or Spanish",no,2025-07-22_22h19.37.198,empathy_intonation_perc,2024.2.4,Win32,40,5bd77196beca730001ced094,687ed1b7e638a4cbf2f02089,68804654ff543006e5ff9c6d,,,,,,,,,,,,,,0,,./stim/wavs/puertorican_statement_filler_La-nina-pinta-con-su-amiga.wav,,,,,,,,,249.3608,255.2815,1,0,5.3679,,0,2,2,7,1,,,,,,,,,,,,,,,,,,,,,,,,,,,,,,,,,,,,,,,,,,,,,,,,,,,,,,,,,,,,,,,,,,,,,,,
,,,,,,,,,5bd77196beca730001ced094,Spanish,13 or older,"no, only English or Spanish",no,2025-07-22_22h19.37.198,empathy_intonation_perc,2024.2.4,Win32,40,5bd77196beca730001ced094,687ed1b7e638a4cbf2f02089,68804654ff543006e5ff9c6d,,,,,,,,,,,,,,1,,./stim/wavs/argentine_question_filler_Mi-vecino-habla-mucho.wav,,,,,,,,,255.2826,259.5055,1,1,3.6734,,0,3,3,1,1,,,,,,,,,,,,,,,,,,,,,,,,,,,,,,,,,,,,,,,,,,,,,,,,,,,,,,,,,,,,,,,,,,,,,,,
,,,,,,,,,5bd77196beca730001ced094,Spanish,13 or older,"no, only English or Spanish",no,2025-07-22_22h19.37.198,empathy_intonation_perc,2024.2.4,Win32,40,5bd77196beca730001ced094,687ed1b7e638a4cbf2f02089,68804654ff543006e5ff9c6d,,,,,,,,,,,,,,1,,./stim/wavs/chilean_question_filler_Mi-padre-cantaba-bien.wav,,,,,,,,,259.5065,262.4296,0,0,2.3708,,0,4,4,2,1,,,,,,,,,,,,,,,,,,,,,,,,,,,,,,,,,,,,,,,,,,,,,,,,,,,,,,,,,,,,,,,,,,,,,,,
,,,,,,,,,5bd77196beca730001ced094,Spanish,13 or older,"no, only English or Spanish",no,2025-07-22_22h19.37.198,empathy_intonation_perc,2024.2.4,Win32,40,5bd77196beca730001ced094,687ed1b7e638a4cbf2f02089,68804654ff543006e5ff9c6d,,,,,,,,,,,,,,1,,./stim/wavs/castilian_question_filler_Mi-esposo-conoce-al-chico.wav,,,,,,,,,262.4305,266.4289,1,1,3.4614,,0,5,5,0,1,,,,,,,,,,,,,,,,,,,,,,,,,,,,,,,,,,,,,,,,,,,,,,,,,,,,,,,,,,,,,,,,,,,,,,,
,,,,,,,,,5bd77196beca730001ced094,Spanish,13 or older,"no, only English or Spanish",no,2025-07-22_22h19.37.198,empathy_intonation_perc,2024.2.4,Win32,40,5bd77196beca730001ced094,687ed1b7e638a4cbf2f02089,68804654ff543006e5ff9c6d,,,,,,,,,,,,,,0,,./stim/wavs/cuban_statement_filler_Cocinabas-por-la-noche.wav,,,,,,,,,266.431,270.0275,0,1,3.0504,,0,6,6,4,1,,,,,,,,,,,,,,,,,,,,,,,,,,,,,,,,,,,,,,,,,,,,,,,,,,,,,,,,,,,,,,,,,,,,,,,
,,,,,,,,,5bd77196beca730001ced094,Spanish,13 or older,"no, only English or Spanish",no,2025-07-22_22h19.37.198,empathy_intonation_perc,2024.2.4,Win32,40,5bd77196beca730001ced094,687ed1b7e638a4cbf2f02089,68804654ff543006e5ff9c6d,,,,,,,,,,,,,,0,,./stim/wavs/andalusian_statement_filler_Alberto-nunca-se-afeita.wav,,,,,,,,,270.0286,273.527,0,1,2.9558,,0,7,7,5,1,,,,,,,,,,,,,,,,,,,,,,,,,,,,,,,,,,,,,,,,,,,,,,,,,,,,,,,,,,,,,,,,,,,,,,,
,,,,,,,,,5bd77196beca730001ced094,Spanish,13 or older,"no, only English or Spanish",no,2025-07-22_22h19.37.198,empathy_intonation_perc,2024.2.4,Win32,40,5bd77196beca730001ced094,687ed1b7e638a4cbf2f02089,68804654ff543006e5ff9c6d,,,,,,,,,,,,,,,,,,,,,,,,,,,,,,,,,,,,273.5281,284.8744,,,,,,,,,,,,,,,,,,,,,,,,,,,,,,,,,,,,,,,,,,,,,,,,,,,,,,,,,,,,,,,,,,,,,
,,,,,,,,,5bd77196beca730001ced094,Spanish,13 or older,"no, only English or Spanish",no,2025-07-22_22h19.37.198,empathy_intonation_perc,2024.2.4,Win32,40,5bd77196beca730001ced094,687ed1b7e638a4cbf2f02089,68804654ff543006e5ff9c6d,,,,,,,,,,,,,68,0,,./stim/wavs/puertorican_match_declarative-broad-focus_Maria-bebe-el-vino.wav,,,,,,,,,,,,,,,,,,,,,,284.8909,288.6728,0,1,3.2474,,0,0,0,67,1,0,puertorican,,,,,,,,,,,,,,,,,,,,,,,,,,,,,,,,,,,,,,,,,,,,,,,,,,,,,,,,
,,,,,,,,,5bd77196beca730001ced094,Spanish,13 or older,"no, only English or Spanish",no,2025-07-22_22h19.37.198,empathy_intonation_perc,2024.2.4,Win32,40,5bd77196beca730001ced094,687ed1b7e638a4cbf2f02089,68804654ff543006e5ff9c6d,,,,,,,,,,,,,34,1,,./stim/wavs/cuban_mismatch_interrogative-total-yn_Mi-tia-odia-la-lluvia.wav,,,,,,,,,,,,,,,,,,,,,,288.6739,291.7472,0,0,2.5357,,0,1,1,33,1,1,cuban,,,,,,,,,,,,,,,,,,,,,,,,,,,,,,,,,,,,,,,,,,,,,,,,,,,,,,,,
,,,,,,,,,5bd77196beca730001ced094,Spanish,13 or older,"no, only English or Spanish",no,2025-07-22_22h19.37.198,empathy_intonation_perc,2024.2.4,Win32,40,5bd77196beca730001ced094,687ed1b7e638a4cbf2f02089,68804654ff543006e5ff9c6d,,,,,,,,,,,,,15,1,,./stim/wavs/mexican_match_interrogative-total-yn_David-leia-el-libro.wav,,,,,,,,,,,,,,,,,,,,,,291.749,294.2961,1,1,2.0145,,0,2,2,14,1,0,mexican,,,,,,,,,,,,,,,,,,,,,,,,,,,,,,,,,,,,,,,,,,,,,,,,,,,,,,,,
,,,,,,,,,5bd77196beca730001ced094,Spanish,13 or older,"no, only English or Spanish",no,2025-07-22_22h19.37.198,empathy_intonation_perc,2024.2.4,Win32,40,5bd77196beca730001ced094,687ed1b7e638a4cbf2f02089,68804654ff543006e5ff9c6d,,,,,,,,,,,,,64,0,,./stim/wavs/puertorican_match_declarative-broad-focus_Daniel-iba-a-Bolivia.wav,,,,,,,,,,,,,,,,,,,,,,294.2972,297.1953,0,1,2.3499,,0,3,3,63,1,0,puertorican,,,,,,,,,,,,,,,,,,,,,,,,,,,,,,,,,,,,,,,,,,,,,,,,,,,,,,,,
,,,,,,,,,5bd77196beca730001ced094,Spanish,13 or older,"no, only English or Spanish",no,2025-07-22_22h19.37.198,empathy_intonation_perc,2024.2.4,Win32,40,5bd77196beca730001ced094,687ed1b7e638a4cbf2f02089,68804654ff543006e5ff9c6d,,,,,,,,,,,,,66,0,,./stim/wavs/puertorican_match_declarative-broad-focus_Emilio-ama-la-marcha.wav,,,,,,,,,,,,,,,,,,,,,,297.1962,299.8946,0,1,2.1596,,0,4,4,65,1,0,puertorican,,,,,,,,,,,,,,,,,,,,,,,,,,,,,,,,,,,,,,,,,,,,,,,,,,,,,,,,
,,,,,,,,,5bd77196beca730001ced094,Spanish,13 or older,"no, only English or Spanish",no,2025-07-22_22h19.37.198,empathy_intonation_perc,2024.2.4,Win32,40,5bd77196beca730001ced094,687ed1b7e638a4cbf2f02089,68804654ff543006e5ff9c6d,,,,,,,,,,,,,2,1,,./stim/wavs/castilian_match_interrogative-total-yn_Emilio-ama-la-marcha.wav,,,,,,,,,,,,,,,,,,,,,,299.8955,302.1939,1,1,1.7545,,0,5,5,1,1,0,castilian,,,,,,,,,,,,,,,,,,,,,,,,,,,,,,,,,,,,,,,,,,,,,,,,,,,,,,,,
,,,,,,,,,5bd77196beca730001ced094,Spanish,13 or older,"no, only English or Spanish",no,2025-07-22_22h19.37.198,empathy_intonation_perc,2024.2.4,Win32,40,5bd77196beca730001ced094,687ed1b7e638a4cbf2f02089,68804654ff543006e5ff9c6d,,,,,,,,,,,,,18,1,,./stim/wavs/mexican_match_interrogative-total-yn_Marta-abre-el-regalo.wav,,,,,,,,,,,,,,,,,,,,,,302.1948,305.9437,1,1,3.2151,,0,6,6,17,1,0,mexican,,,,,,,,,,,,,,,,,,,,,,,,,,,,,,,,,,,,,,,,,,,,,,,,,,,,,,,,
,,,,,,,,,5bd77196beca730001ced094,Spanish,13 or older,"no, only English or Spanish",no,2025-07-22_22h19.37.198,empathy_intonation_perc,2024.2.4,Win32,40,5bd77196beca730001ced094,687ed1b7e638a4cbf2f02089,68804654ff543006e5ff9c6d,,,,,,,,,,,,,4,1,,./stim/wavs/castilian_match_interrogative-total-yn_Maria-bebe-el-vino.wav,,,,,,,,,,,,,,,,,,,,,,305.9456,310.2172,0,0,3.7291,,0,7,7,3,1,0,castilian,,,,,,,,,,,,,,,,,,,,,,,,,,,,,,,,,,,,,,,,,,,,,,,,,,,,,,,,
,,,,,,,,,5bd77196beca730001ced094,Spanish,13 or older,"no, only English or Spanish",no,2025-07-22_22h19.37.198,empathy_intonation_perc,2024.2.4,Win32,40,5bd77196beca730001ced094,687ed1b7e638a4cbf2f02089,68804654ff543006e5ff9c6d,,,,,,,,,,,,,31,1,,./stim/wavs/cuban_mismatch_interrogative-total-yn_El-nino-oye-el-rio.wav,,,,,,,,,,,,,,,,,,,,,,310.2192,312.6915,0,0,1.9347,,0,8,8,30,1,1,cuban,,,,,,,,,,,,,,,,,,,,,,,,,,,,,,,,,,,,,,,,,,,,,,,,,,,,,,,,
,,,,,,,,,5bd77196beca730001ced094,Spanish,13 or older,"no, only English or Spanish",no,2025-07-22_22h19.37.198,empathy_intonation_perc,2024.2.4,Win32,40,5bd77196beca730001ced094,687ed1b7e638a4cbf2f02089,68804654ff543006e5ff9c6d,,,,,,,,,,,,,7,1,,./stim/wavs/cuban_match_interrogative-total-yn_Ana-lleva-el-abrigo.wav,,,,,,,,,,,,,,,,,,,,,,312.6938,314.9656,0,0,1.733,,0,9,9,6,1,1,cuban,,,,,,,,,,,,,,,,,,,,,,,,,,,,,,,,,,,,,,,,,,,,,,,,,,,,,,,,
,,,,,,,,,5bd77196beca730001ced094,Spanish,13 or older,"no, only English or Spanish",no,2025-07-22_22h19.37.198,empathy_intonation_perc,2024.2.4,Win32,40,5bd77196beca730001ced094,687ed1b7e638a4cbf2f02089,68804654ff543006e5ff9c6d,,,,,,,,,,,,,55,0,,./stim/wavs/cuban_match_declarative-broad-focus_Mariano-habla-del-tiempo.wav,,,,,,,,,,,,,,,,,,,,,,314.9664,317.6147,1,0,2.1149,,0,10,10,54,1,0,cuban,,,,,,,,,,,,,,,,,,,,,,,,,,,,,,,,,,,,,,,,,,,,,,,,,,,,,,,,
,,,,,,,,,5bd77196beca730001ced094,Spanish,13 or older,"no, only English or Spanish",no,2025-07-22_22h19.37.198,empathy_intonation_perc,2024.2.4,Win32,40,5bd77196beca730001ced094,687ed1b7e638a4cbf2f02089,68804654ff543006e5ff9c6d,,,,,,,,,,,,,88,0,,./stim/wavs/puertorican_mismatch_declarative-broad-focus_La-nina-lava-el-plato.wav,,,,,,,,,,,,,,,,,,,,,,317.6155,320.7392,0,1,2.5767,,0,11,11,87,1,0,puertorican,,,,,,,,,,,,,,,,,,,,,,,,,,,,,,,,,,,,,,,,,,,,,,,,,,,,,,,,
,,,,,,,,,5bd77196beca730001ced094,Spanish,13 or older,"no, only English or Spanish",no,2025-07-22_22h19.37.198,empathy_intonation_perc,2024.2.4,Win32,40,5bd77196beca730001ced094,687ed1b7e638a4cbf2f02089,68804654ff543006e5ff9c6d,,,,,,,,,,,,,5,1,,./stim/wavs/castilian_match_interrogative-total-yn_Mariano-habla-del-tiempo.wav,,,,,,,,,,,,,,,,,,,,,,320.7401,323.5641,1,1,2.2797,,0,12,12,4,1,0,castilian,,,,,,,,,,,,,,,,,,,,,,,,,,,,,,,,,,,,,,,,,,,,,,,,,,,,,,,,
,,,,,,,,,5bd77196beca730001ced094,Spanish,13 or older,"no, only English or Spanish",no,2025-07-22_22h19.37.198,empathy_intonation_perc,2024.2.4,Win32,40,5bd77196beca730001ced094,687ed1b7e638a4cbf2f02089,68804654ff543006e5ff9c6d,,,,,,,,,,,,,10,1,,./stim/wavs/cuban_match_interrogative-total-yn_Maria-bebe-el-vino.wav,,,,,,,,,,,,,,,,,,,,,,323.5658,326.1637,0,0,2.0506,,0,13,13,9,1,1,cuban,,,,,,,,,,,,,,,,,,,,,,,,,,,,,,,,,,,,,,,,,,,,,,,,,,,,,,,,
,,,,,,,,,5bd77196beca730001ced094,Spanish,13 or older,"no, only English or Spanish",no,2025-07-22_22h19.37.198,empathy_intonation_perc,2024.2.4,Win32,40,5bd77196beca730001ced094,687ed1b7e638a4cbf2f02089,68804654ff543006e5ff9c6d,,,,,,,,,,,,,28,1,,./stim/wavs/castilian_mismatch_interrogative-total-yn_Mi-novio-viene-del-lago.wav,,,,,,,,,,,,,,,,,,,,,,326.1653,328.5873,1,1,1.8773,,0,14,14,27,1,0,castilian,,,,,,,,,,,,,,,,,,,,,,,,,,,,,,,,,,,,,,,,,,,,,,,,,,,,,,,,
,,,,,,,,,5bd77196beca730001ced094,Spanish,13 or older,"no, only English or Spanish",no,2025-07-22_22h19.37.198,empathy_intonation_perc,2024.2.4,Win32,40,5bd77196beca730001ced094,687ed1b7e638a4cbf2f02089,68804654ff543006e5ff9c6d,,,,,,,,,,,,,60,0,,./stim/wavs/mexican_match_declarative-broad-focus_Emilio-ama-la-marcha.wav,,,,,,,,,,,,,,,,,,,,,,328.5891,330.8364,1,0,1.7087,,0,15,15,59,1,0,mexican,,,,,,,,,,,,,,,,,,,,,,,,,,,,,,,,,,,,,,,,,,,,,,,,,,,,,,,,
,,,,,,,,,5bd77196beca730001ced094,Spanish,13 or older,"no, only English or Spanish",no,2025-07-22_22h19.37.198,empathy_intonation_perc,2024.2.4,Win32,40,5bd77196beca730001ced094,687ed1b7e638a4cbf2f02089,68804654ff543006e5ff9c6d,,,,,,,,,,,,,25,1,,./stim/wavs/castilian_mismatch_interrogative-total-yn_La-maestra-vive-en-Paris.wav,,,,,,,,,,,,,,,,,,,,,,330.8374,333.8111,1,1,2.4268,,0,16,16,24,1,0,castilian,,,,,,,,,,,,,,,,,,,,,,,,,,,,,,,,,,,,,,,,,,,,,,,,,,,,,,,,
,,,,,,,,,5bd77196beca730001ced094,Spanish,13 or older,"no, only English or Spanish",no,2025-07-22_22h19.37.198,empathy_intonation_perc,2024.2.4,Win32,40,5bd77196beca730001ced094,687ed1b7e638a4cbf2f02089,68804654ff543006e5ff9c6d,,,,,,,,,,,,,33,1,,./stim/wavs/cuban_mismatch_interrogative-total-yn_Mi-novio-viene-del-lago.wav,,,,,,,,,,,,,,,,,,,,,,333.8133,336.0104,0,0,1.6562,,0,17,17,32,1,1,cuban,,,,,,,,,,,,,,,,,,,,,,,,,,,,,,,,,,,,,,,,,,,,,,,,,,,,,,,,
,,,,,,,,,5bd77196beca730001ced094,Spanish,13 or older,"no, only English or Spanish",no,2025-07-22_22h19.37.198,empathy_intonation_perc,2024.2.4,Win32,40,5bd77196beca730001ced094,687ed1b7e638a4cbf2f02089,68804654ff543006e5ff9c6d,,,,,,,,,,,,,61,0,,./stim/wavs/mexican_match_declarative-broad-focus_Mariano-habla-del-tiempo.wav,,,,,,,,,,,,,,,,,,,,,,336.0122,338.8848,0,1,2.3389,,0,18,18,60,1,0,mexican,,,,,,,,,,,,,,,,,,,,,,,,,,,,,,,,,,,,,,,,,,,,,,,,,,,,,,,,
,,,,,,,,,5bd77196beca730001ced094,Spanish,13 or older,"no, only English or Spanish",no,2025-07-22_22h19.37.198,empathy_intonation_perc,2024.2.4,Win32,40,5bd77196beca730001ced094,687ed1b7e638a4cbf2f02089,68804654ff543006e5ff9c6d,,,,,,,,,,,,,37,1,,./stim/wavs/mexican_mismatch_interrogative-total-yn_La-maestra-vive-en-Paris.wav,,,,,,,,,,,,,,,,,,,,,,338.887,341.3089,1,1,1.8776,,0,19,19,36,1,0,mexican,,,,,,,,,,,,,,,,,,,,,,,,,,,,,,,,,,,,,,,,,,,,,,,,,,,,,,,,
,,,,,,,,,5bd77196beca730001ced094,Spanish,13 or older,"no, only English or Spanish",no,2025-07-22_22h19.37.198,empathy_intonation_perc,2024.2.4,Win32,40,5bd77196beca730001ced094,687ed1b7e638a4cbf2f02089,68804654ff543006e5ff9c6d,,,,,,,,,,,,,72,0,,./stim/wavs/castilian_mismatch_declarative-broad-focus_Mi-novio-viene-del-lago.wav,,,,,,,,,,,,,,,,,,,,,,341.3107,344.7081,0,1,2.8551,,0,20,20,71,1,0,castilian,,,,,,,,,,,,,,,,,,,,,,,,,,,,,,,,,,,,,,,,,,,,,,,,,,,,,,,,
,,,,,,,,,5bd77196beca730001ced094,Spanish,13 or older,"no, only English or Spanish",no,2025-07-22_22h19.37.198,empathy_intonation_perc,2024.2.4,Win32,40,5bd77196beca730001ced094,687ed1b7e638a4cbf2f02089,68804654ff543006e5ff9c6d,,,,,,,,,,,,,71,0,,./stim/wavs/castilian_mismatch_declarative-broad-focus_La-nina-lava-el-plato.wav,,,,,,,,,,,,,,,,,,,,,,344.7099,347.5319,1,0,2.2842,,0,21,21,70,1,0,castilian,,,,,,,,,,,,,,,,,,,,,,,,,,,,,,,,,,,,,,,,,,,,,,,,,,,,,,,,
,,,,,,,,,5bd77196beca730001ced094,Spanish,13 or older,"no, only English or Spanish",no,2025-07-22_22h19.37.198,empathy_intonation_perc,2024.2.4,Win32,40,5bd77196beca730001ced094,687ed1b7e638a4cbf2f02089,68804654ff543006e5ff9c6d,,,,,,,,,,,,,43,1,,./stim/wavs/puertorican_mismatch_interrogative-total-yn_La-nina-lava-el-plato.wav,,,,,,,,,,,,,,,,,,,,,,347.5331,349.4068,1,1,1.3386,,0,22,22,42,1,1,puertorican,,,,,,,,,,,,,,,,,,,,,,,,,,,,,,,,,,,,,,,,,,,,,,,,,,,,,,,,
,,,,,,,,,5bd77196beca730001ced094,Spanish,13 or older,"no, only English or Spanish",no,2025-07-22_22h19.37.198,empathy_intonation_perc,2024.2.4,Win32,40,5bd77196beca730001ced094,687ed1b7e638a4cbf2f02089,68804654ff543006e5ff9c6d,,,,,,,,,,,,,32,1,,./stim/wavs/cuban_mismatch_interrogative-total-yn_Mi-madre-come-la-fruta.wav,,,,,,,,,,,,,,,,,,,,,,349.4093,352.5557,0,0,2.5992,,0,23,23,31,1,1,cuban,,,,,,,,,,,,,,,,,,,,,,,,,,,,,,,,,,,,,,,,,,,,,,,,,,,,,,,,
,,,,,,,,,5bd77196beca730001ced094,Spanish,13 or older,"no, only English or Spanish",no,2025-07-22_22h19.37.198,empathy_intonation_perc,2024.2.4,Win32,40,5bd77196beca730001ced094,687ed1b7e638a4cbf2f02089,68804654ff543006e5ff9c6d,,,,,,,,,,,,,23,1,,./stim/wavs/puertorican_match_interrogative-total-yn_Manuela-vende-el-carro.wav,,,,,,,,,,,,,,,,,,,,,,352.5568,355.6052,0,0,2.5008,,0,24,24,22,1,1,puertorican,,,,,,,,,,,,,,,,,,,,,,,,,,,,,,,,,,,,,,,,,,,,,,,,,,,,,,,,
,,,,,,,,,5bd77196beca730001ced094,Spanish,13 or older,"no, only English or Spanish",no,2025-07-22_22h19.37.198,empathy_intonation_perc,2024.2.4,Win32,40,5bd77196beca730001ced094,687ed1b7e638a4cbf2f02089,68804654ff543006e5ff9c6d,,,,,,,,,,,,,29,1,,./stim/wavs/castilian_mismatch_interrogative-total-yn_Mi-tia-odia-la-lluvia.wav,,,,,,,,,,,,,,,,,,,,,,355.6069,357.8293,1,1,1.6736,,0,25,25,28,1,0,castilian,,,,,,,,,,,,,,,,,,,,,,,,,,,,,,,,,,,,,,,,,,,,,,,,,,,,,,,,
,,,,,,,,,5bd77196beca730001ced094,Spanish,13 or older,"no, only English or Spanish",no,2025-07-22_22h19.37.198,empathy_intonation_perc,2024.2.4,Win32,40,5bd77196beca730001ced094,687ed1b7e638a4cbf2f02089,68804654ff543006e5ff9c6d,,,,,,,,,,,,,41,1,,./stim/wavs/puertorican_mismatch_interrogative-total-yn_El-nino-oye-el-rio.wav,,,,,,,,,,,,,,,,,,,,,,357.8305,360.3789,0,0,2.0148,,0,26,26,40,1,1,puertorican,,,,,,,,,,,,,,,,,,,,,,,,,,,,,,,,,,,,,,,,,,,,,,,,,,,,,,,,
,,,,,,,,,5bd77196beca730001ced094,Spanish,13 or older,"no, only English or Spanish",no,2025-07-22_22h19.37.198,empathy_intonation_perc,2024.2.4,Win32,40,5bd77196beca730001ced094,687ed1b7e638a4cbf2f02089,68804654ff543006e5ff9c6d,,,,,,,,,,,,,36,1,,./stim/wavs/mexican_mismatch_interrogative-total-yn_El-nino-oye-el-rio.wav,,,,,,,,,,,,,,,,,,,,,,360.3812,362.278,1,1,1.3619,,0,27,27,35,1,0,mexican,,,,,,,,,,,,,,,,,,,,,,,,,,,,,,,,,,,,,,,,,,,,,,,,,,,,,,,,
,,,,,,,,,5bd77196beca730001ced094,Spanish,13 or older,"no, only English or Spanish",no,2025-07-22_22h19.37.198,empathy_intonation_perc,2024.2.4,Win32,40,5bd77196beca730001ced094,687ed1b7e638a4cbf2f02089,68804654ff543006e5ff9c6d,,,,,,,,,,,,,77,0,,./stim/wavs/cuban_mismatch_declarative-broad-focus_Mi-novio-viene-del-lago.wav,,,,,,,,,,,,,,,,,,,,,,362.2788,365.0286,0,1,2.2143,,0,28,28,76,1,0,cuban,,,,,,,,,,,,,,,,,,,,,,,,,,,,,,,,,,,,,,,,,,,,,,,,,,,,,,,,
,,,,,,,,,5bd77196beca730001ced094,Spanish,13 or older,"no, only English or Spanish",no,2025-07-22_22h19.37.198,empathy_intonation_perc,2024.2.4,Win32,40,5bd77196beca730001ced094,687ed1b7e638a4cbf2f02089,68804654ff543006e5ff9c6d,,,,,,,,,,,,,53,0,,./stim/wavs/cuban_match_declarative-broad-focus_Manuela-vende-el-carro.wav,,,,,,,,,,,,,,,,,,,,,,365.0295,368.6763,0,1,3.0985,,0,29,29,52,1,0,cuban,,,,,,,,,,,,,,,,,,,,,,,,,,,,,,,,,,,,,,,,,,,,,,,,,,,,,,,,
,,,,,,,,,5bd77196beca730001ced094,Spanish,13 or older,"no, only English or Spanish",no,2025-07-22_22h19.37.198,empathy_intonation_perc,2024.2.4,Win32,40,5bd77196beca730001ced094,687ed1b7e638a4cbf2f02089,68804654ff543006e5ff9c6d,,,,,,,,,,,,,49,0,,./stim/wavs/castilian_match_declarative-broad-focus_Mariano-habla-del-tiempo.wav,,,,,,,,,,,,,,,,,,,,,,368.6773,372.2756,0,1,3.0566,,0,30,30,48,1,0,castilian,,,,,,,,,,,,,,,,,,,,,,,,,,,,,,,,,,,,,,,,,,,,,,,,,,,,,,,,
,,,,,,,,,5bd77196beca730001ced094,Spanish,13 or older,"no, only English or Spanish",no,2025-07-22_22h19.37.198,empathy_intonation_perc,2024.2.4,Win32,40,5bd77196beca730001ced094,687ed1b7e638a4cbf2f02089,68804654ff543006e5ff9c6d,,,,,,,,,,,,,82,0,,./stim/wavs/mexican_mismatch_declarative-broad-focus_Mi-novio-viene-del-lago.wav,,,,,,,,,,,,,,,,,,,,,,372.277,376.0493,1,0,3.2352,,0,31,31,81,1,0,mexican,,,,,,,,,,,,,,,,,,,,,,,,,,,,,,,,,,,,,,,,,,,,,,,,,,,,,,,,
,,,,,,,,,5bd77196beca730001ced094,Spanish,13 or older,"no, only English or Spanish",no,2025-07-22_22h19.37.198,empathy_intonation_perc,2024.2.4,Win32,40,5bd77196beca730001ced094,687ed1b7e638a4cbf2f02089,68804654ff543006e5ff9c6d,,,,,,,,,,,,,87,0,,./stim/wavs/puertorican_mismatch_declarative-broad-focus_La-maestra-vive-en-Paris.wav,,,,,,,,,,,,,,,,,,,,,,376.0502,378.3988,0,1,1.8016,,0,32,32,86,1,0,puertorican,,,,,,,,,,,,,,,,,,,,,,,,,,,,,,,,,,,,,,,,,,,,,,,,,,,,,,,,
,,,,,,,,,5bd77196beca730001ced094,Spanish,13 or older,"no, only English or Spanish",no,2025-07-22_22h19.37.198,empathy_intonation_perc,2024.2.4,Win32,40,5bd77196beca730001ced094,687ed1b7e638a4cbf2f02089,68804654ff543006e5ff9c6d,,,,,,,,,,,,,27,1,,./stim/wavs/castilian_mismatch_interrogative-total-yn_Mi-madre-come-la-fruta.wav,,,,,,,,,,,,,,,,,,,,,,378.3999,381.6234,1,1,2.6856,,0,33,33,26,1,0,castilian,,,,,,,,,,,,,,,,,,,,,,,,,,,,,,,,,,,,,,,,,,,,,,,,,,,,,,,,
,,,,,,,,,5bd77196beca730001ced094,Spanish,13 or older,"no, only English or Spanish",no,2025-07-22_22h19.37.198,empathy_intonation_perc,2024.2.4,Win32,40,5bd77196beca730001ced094,687ed1b7e638a4cbf2f02089,68804654ff543006e5ff9c6d,,,,,,,,,,,,,22,1,,./stim/wavs/puertorican_match_interrogative-total-yn_Emilio-ama-la-marcha.wav,,,,,,,,,,,,,,,,,,,,,,381.6251,385.5727,1,1,3.4124,,0,34,34,21,1,1,puertorican,,,,,,,,,,,,,,,,,,,,,,,,,,,,,,,,,,,,,,,,,,,,,,,,,,,,,,,,
,,,,,,,,,5bd77196beca730001ced094,Spanish,13 or older,"no, only English or Spanish",no,2025-07-22_22h19.37.198,empathy_intonation_perc,2024.2.4,Win32,40,5bd77196beca730001ced094,687ed1b7e638a4cbf2f02089,68804654ff543006e5ff9c6d,,,,,,,,,,,,,44,1,,./stim/wavs/puertorican_mismatch_interrogative-total-yn_Mi-madre-come-la-fruta.wav,,,,,,,,,,,,,,,,,,,,,,385.5748,389.7211,0,0,3.6165,,0,35,35,43,1,1,puertorican,,,,,,,,,,,,,,,,,,,,,,,,,,,,,,,,,,,,,,,,,,,,,,,,,,,,,,,,
,,,,,,,,,5bd77196beca730001ced094,Spanish,13 or older,"no, only English or Spanish",no,2025-07-22_22h19.37.198,empathy_intonation_perc,2024.2.4,Win32,40,5bd77196beca730001ced094,687ed1b7e638a4cbf2f02089,68804654ff543006e5ff9c6d,,,,,,,,,,,,,78,0,,./stim/wavs/cuban_mismatch_declarative-broad-focus_Mi-tia-odia-la-lluvia.wav,,,,,,,,,,,,,,,,,,,,,,389.724,392.695,0,1,2.4393,,0,36,36,77,1,0,cuban,,,,,,,,,,,,,,,,,,,,,,,,,,,,,,,,,,,,,,,,,,,,,,,,,,,,,,,,
,,,,,,,,,5bd77196beca730001ced094,Spanish,13 or older,"no, only English or Spanish",no,2025-07-22_22h19.37.198,empathy_intonation_perc,2024.2.4,Win32,40,5bd77196beca730001ced094,687ed1b7e638a4cbf2f02089,68804654ff543006e5ff9c6d,,,,,,,,,,,,,8,1,,./stim/wavs/cuban_match_interrogative-total-yn_Daniel-iba-a-Bolivia.wav,,,,,,,,,,,,,,,,,,,,,,392.6962,395.3944,1,1,2.1493,,0,37,37,7,1,1,cuban,,,,,,,,,,,,,,,,,,,,,,,,,,,,,,,,,,,,,,,,,,,,,,,,,,,,,,,,
,,,,,,,,,5bd77196beca730001ced094,Spanish,13 or older,"no, only English or Spanish",no,2025-07-22_22h19.37.198,empathy_intonation_perc,2024.2.4,Win32,40,5bd77196beca730001ced094,687ed1b7e638a4cbf2f02089,68804654ff543006e5ff9c6d,,,,,,,,,,,,,80,0,,./stim/wavs/mexican_mismatch_declarative-broad-focus_El-hombre-mira-la-luna.wav,,,,,,,,,,,,,,,,,,,,,,395.3953,398.7936,0,1,2.8501,,0,38,38,79,1,0,mexican,,,,,,,,,,,,,,,,,,,,,,,,,,,,,,,,,,,,,,,,,,,,,,,,,,,,,,,,
,,,,,,,,,5bd77196beca730001ced094,Spanish,13 or older,"no, only English or Spanish",no,2025-07-22_22h19.37.198,empathy_intonation_perc,2024.2.4,Win32,40,5bd77196beca730001ced094,687ed1b7e638a4cbf2f02089,68804654ff543006e5ff9c6d,,,,,,,,,,,,,70,0,,./stim/wavs/castilian_mismatch_declarative-broad-focus_La-maestra-vive-en-Paris.wav,,,,,,,,,,,,,,,,,,,,,,398.7956,399.3935,0,1,0.0524,,0,39,39,69,1,0,castilian,,,,,,,,,,,,,,,,,,,,,,,,,,,,,,,,,,,,,,,,,,,,,,,,,,,,,,,,
,,,,,,,,,5bd77196beca730001ced094,Spanish,13 or older,"no, only English or Spanish",no,2025-07-22_22h19.37.198,empathy_intonation_perc,2024.2.4,Win32,40,5bd77196beca730001ced094,687ed1b7e638a4cbf2f02089,68804654ff543006e5ff9c6d,,,,,,,,,,,,,74,0,,./stim/wavs/cuban_mismatch_declarative-broad-focus_El-bebe-comia-muy-bien.wav,,,,,,,,,,,,,,,,,,,,,,399.3953,403.5673,0,1,3.639,,0,40,40,73,1,0,cuban,,,,,,,,,,,,,,,,,,,,,,,,,,,,,,,,,,,,,,,,,,,,,,,,,,,,,,,,
,,,,,,,,,5bd77196beca730001ced094,Spanish,13 or older,"no, only English or Spanish",no,2025-07-22_22h19.37.198,empathy_intonation_perc,2024.2.4,Win32,40,5bd77196beca730001ced094,687ed1b7e638a4cbf2f02089,68804654ff543006e5ff9c6d,,,,,,,,,,,,,20,1,,./stim/wavs/puertorican_match_interrogative-total-yn_Daniel-iba-a-Bolivia.wav,,,,,,,,,,,,,,,,,,,,,,403.5697,405.5668,1,1,1.4499,,0,41,41,19,1,1,puertorican,,,,,,,,,,,,,,,,,,,,,,,,,,,,,,,,,,,,,,,,,,,,,,,,,,,,,,,,
,,,,,,,,,5bd77196beca730001ced094,Spanish,13 or older,"no, only English or Spanish",no,2025-07-22_22h19.37.198,empathy_intonation_perc,2024.2.4,Win32,40,5bd77196beca730001ced094,687ed1b7e638a4cbf2f02089,68804654ff543006e5ff9c6d,,,,,,,,,,,,,59,0,,./stim/wavs/mexican_match_declarative-broad-focus_David-leia-el-libro.wav,,,,,,,,,,,,,,,,,,,,,,405.5684,407.8163,0,1,1.7045,,0,42,42,58,1,0,mexican,,,,,,,,,,,,,,,,,,,,,,,,,,,,,,,,,,,,,,,,,,,,,,,,,,,,,,,,
,,,,,,,,,5bd77196beca730001ced094,Spanish,13 or older,"no, only English or Spanish",no,2025-07-22_22h19.37.198,empathy_intonation_perc,2024.2.4,Win32,40,5bd77196beca730001ced094,687ed1b7e638a4cbf2f02089,68804654ff543006e5ff9c6d,,,,,,,,,,,,,73,0,,./stim/wavs/castilian_mismatch_declarative-broad-focus_Mi-tia-odia-la-lluvia.wav,,,,,,,,,,,,,,,,,,,,,,407.8179,410.6404,0,1,2.272,,0,43,43,72,1,0,castilian,,,,,,,,,,,,,,,,,,,,,,,,,,,,,,,,,,,,,,,,,,,,,,,,,,,,,,,,
,,,,,,,,,5bd77196beca730001ced094,Spanish,13 or older,"no, only English or Spanish",no,2025-07-22_22h19.37.198,empathy_intonation_perc,2024.2.4,Win32,40,5bd77196beca730001ced094,687ed1b7e638a4cbf2f02089,68804654ff543006e5ff9c6d,,,,,,,,,,,,,11,1,,./stim/wavs/cuban_match_interrogative-total-yn_Mariano-habla-del-tiempo.wav,,,,,,,,,,,,,,,,,,,,,,410.6423,412.8395,1,1,1.6639,,0,44,44,10,1,1,cuban,,,,,,,,,,,,,,,,,,,,,,,,,,,,,,,,,,,,,,,,,,,,,,,,,,,,,,,,
,,,,,,,,,5bd77196beca730001ced094,Spanish,13 or older,"no, only English or Spanish",no,2025-07-22_22h19.37.198,empathy_intonation_perc,2024.2.4,Win32,40,5bd77196beca730001ced094,687ed1b7e638a4cbf2f02089,68804654ff543006e5ff9c6d,,,,,,,,,,,,,58,0,,./stim/wavs/mexican_match_declarative-broad-focus_Daniel-iba-a-Bolivia.wav,,,,,,,,,,,,,,,,,,,,,,412.8403,415.3891,0,1,2.0009,,0,45,45,57,1,0,mexican,,,,,,,,,,,,,,,,,,,,,,,,,,,,,,,,,,,,,,,,,,,,,,,,,,,,,,,,
,,,,,,,,,5bd77196beca730001ced094,Spanish,13 or older,"no, only English or Spanish",no,2025-07-22_22h19.37.198,empathy_intonation_perc,2024.2.4,Win32,40,5bd77196beca730001ced094,687ed1b7e638a4cbf2f02089,68804654ff543006e5ff9c6d,,,,,,,,,,,,,30,1,,./stim/wavs/cuban_mismatch_interrogative-total-yn_El-hombre-mira-la-luna.wav,,,,,,,,,,,,,,,,,,,,,,415.391,418.0381,1,1,2.1015,,0,46,46,29,1,1,cuban,,,,,,,,,,,,,,,,,,,,,,,,,,,,,,,,,,,,,,,,,,,,,,,,,,,,,,,,
,,,,,,,,,5bd77196beca730001ced094,Spanish,13 or older,"no, only English or Spanish",no,2025-07-22_22h19.37.198,empathy_intonation_perc,2024.2.4,Win32,40,5bd77196beca730001ced094,687ed1b7e638a4cbf2f02089,68804654ff543006e5ff9c6d,,,,,,,,,,,,,81,0,,./stim/wavs/mexican_mismatch_declarative-broad-focus_La-maestra-vive-en-Paris.wav,,,,,,,,,,,,,,,,,,,,,,418.0389,421.1373,0,1,2.5564,,0,47,47,80,1,0,mexican,,,,,,,,,,,,,,,,,,,,,,,,,,,,,,,,,,,,,,,,,,,,,,,,,,,,,,,,
,,,,,,,,,5bd77196beca730001ced094,Spanish,13 or older,"no, only English or Spanish",no,2025-07-22_22h19.37.198,empathy_intonation_perc,2024.2.4,Win32,40,5bd77196beca730001ced094,687ed1b7e638a4cbf2f02089,68804654ff543006e5ff9c6d,,,,,,,,,,,,,76,0,,./stim/wavs/cuban_mismatch_declarative-broad-focus_La-nina-lava-el-plato.wav,,,,,,,,,,,,,,,,,,,,,,421.1382,424.7865,0,1,3.103,,0,48,48,75,1,0,cuban,,,,,,,,,,,,,,,,,,,,,,,,,,,,,,,,,,,,,,,,,,,,,,,,,,,,,,,,
,,,,,,,,,5bd77196beca730001ced094,Spanish,13 or older,"no, only English or Spanish",no,2025-07-22_22h19.37.198,empathy_intonation_perc,2024.2.4,Win32,40,5bd77196beca730001ced094,687ed1b7e638a4cbf2f02089,68804654ff543006e5ff9c6d,,,,,,,,,,,,,79,0,,./stim/wavs/mexican_mismatch_declarative-broad-focus_El-bebe-comia-muy-bien.wav,,,,,,,,,,,,,,,,,,,,,,424.7877,427.8361,0,1,2.5036,,0,49,49,78,1,0,mexican,,,,,,,,,,,,,,,,,,,,,,,,,,,,,,,,,,,,,,,,,,,,,,,,,,,,,,,,
,,,,,,,,,5bd77196beca730001ced094,Spanish,13 or older,"no, only English or Spanish",no,2025-07-22_22h19.37.198,empathy_intonation_perc,2024.2.4,Win32,40,5bd77196beca730001ced094,687ed1b7e638a4cbf2f02089,68804654ff543006e5ff9c6d,,,,,,,,,,,,,50,0,,./stim/wavs/castilian_match_declarative-broad-focus_Marta-abre-el-regalo.wav,,,,,,,,,,,,,,,,,,,,,,427.8379,430.0604,1,0,1.6793,,0,50,50,49,1,0,castilian,,,,,,,,,,,,,,,,,,,,,,,,,,,,,,,,,,,,,,,,,,,,,,,,,,,,,,,,
,,,,,,,,,5bd77196beca730001ced094,Spanish,13 or older,"no, only English or Spanish",no,2025-07-22_22h19.37.198,empathy_intonation_perc,2024.2.4,Win32,40,5bd77196beca730001ced094,687ed1b7e638a4cbf2f02089,68804654ff543006e5ff9c6d,,,,,,,,,,,,,1,1,,./stim/wavs/castilian_match_interrogative-total-yn_David-leia-el-libro.wav,,,,,,,,,,,,,,,,,,,,,,430.0627,432.412,1,1,1.8131,,0,51,51,0,1,0,castilian,,,,,,,,,,,,,,,,,,,,,,,,,,,,,,,,,,,,,,,,,,,,,,,,,,,,,,,,
,,,,,,,,,5bd77196beca730001ced094,Spanish,13 or older,"no, only English or Spanish",no,2025-07-22_22h19.37.198,empathy_intonation_perc,2024.2.4,Win32,40,5bd77196beca730001ced094,687ed1b7e638a4cbf2f02089,68804654ff543006e5ff9c6d,,,,,,,,,,,,,21,1,,./stim/wavs/puertorican_match_interrogative-total-yn_David-leia-el-libro.wav,,,,,,,,,,,,,,,,,,,,,,432.4142,434.7337,0,0,1.7796,,0,52,52,20,1,1,puertorican,,,,,,,,,,,,,,,,,,,,,,,,,,,,,,,,,,,,,,,,,,,,,,,,,,,,,,,,
,,,,,,,,,5bd77196beca730001ced094,Spanish,13 or older,"no, only English or Spanish",no,2025-07-22_22h19.37.198,empathy_intonation_perc,2024.2.4,Win32,40,5bd77196beca730001ced094,687ed1b7e638a4cbf2f02089,68804654ff543006e5ff9c6d,,,,,,,,,,,,,13,1,,./stim/wavs/mexican_match_interrogative-total-yn_Ana-lleva-el-abrigo.wav,,,,,,,,,,,,,,,,,,,,,,434.7347,437.1334,1,1,1.8587,,0,53,53,12,1,0,mexican,,,,,,,,,,,,,,,,,,,,,,,,,,,,,,,,,,,,,,,,,,,,,,,,,,,,,,,,
,,,,,,,,,5bd77196beca730001ced094,Spanish,13 or older,"no, only English or Spanish",no,2025-07-22_22h19.37.198,empathy_intonation_perc,2024.2.4,Win32,40,5bd77196beca730001ced094,687ed1b7e638a4cbf2f02089,68804654ff543006e5ff9c6d,,,,,,,,,,,,,48,0,,./stim/wavs/castilian_match_declarative-broad-focus_Maria-bebe-el-vino.wav,,,,,,,,,,,,,,,,,,,,,,437.1348,440.5826,0,1,2.9061,,0,54,54,47,1,0,castilian,,,,,,,,,,,,,,,,,,,,,,,,,,,,,,,,,,,,,,,,,,,,,,,,,,,,,,,,
,,,,,,,,,5bd77196beca730001ced094,Spanish,13 or older,"no, only English or Spanish",no,2025-07-22_22h19.37.198,empathy_intonation_perc,2024.2.4,Win32,40,5bd77196beca730001ced094,687ed1b7e638a4cbf2f02089,68804654ff543006e5ff9c6d,,,,,,,,,,,,,75,0,,./stim/wavs/cuban_mismatch_declarative-broad-focus_El-hombre-mira-la-luna.wav,,,,,,,,,,,,,,,,,,,,,,440.5844,444.7585,0,1,3.6239,,0,55,55,74,1,0,cuban,,,,,,,,,,,,,,,,,,,,,,,,,,,,,,,,,,,,,,,,,,,,,,,,,,,,,,,,
,,,,,,,,,5bd77196beca730001ced094,Spanish,13 or older,"no, only English or Spanish",no,2025-07-22_22h19.37.198,empathy_intonation_perc,2024.2.4,Win32,40,5bd77196beca730001ced094,687ed1b7e638a4cbf2f02089,68804654ff543006e5ff9c6d,,,,,,,,,,,,,12,1,,./stim/wavs/cuban_match_interrogative-total-yn_Marta-abre-el-regalo.wav,,,,,,,,,,,,,,,,,,,,,,444.7597,447.9807,1,1,2.6815,,0,56,56,11,1,1,cuban,,,,,,,,,,,,,,,,,,,,,,,,,,,,,,,,,,,,,,,,,,,,,,,,,,,,,,,,
,,,,,,,,,5bd77196beca730001ced094,Spanish,13 or older,"no, only English or Spanish",no,2025-07-22_22h19.37.198,empathy_intonation_perc,2024.2.4,Win32,40,5bd77196beca730001ced094,687ed1b7e638a4cbf2f02089,68804654ff543006e5ff9c6d,,,,,,,,,,,,,65,0,,./stim/wavs/puertorican_match_declarative-broad-focus_David-leia-el-libro.wav,,,,,,,,,,,,,,,,,,,,,,447.983,450.43,0,1,1.9119,,0,57,57,64,1,0,puertorican,,,,,,,,,,,,,,,,,,,,,,,,,,,,,,,,,,,,,,,,,,,,,,,,,,,,,,,,
,,,,,,,,,5bd77196beca730001ced094,Spanish,13 or older,"no, only English or Spanish",no,2025-07-22_22h19.37.198,empathy_intonation_perc,2024.2.4,Win32,40,5bd77196beca730001ced094,687ed1b7e638a4cbf2f02089,68804654ff543006e5ff9c6d,,,,,,,,,,,,,16,1,,./stim/wavs/mexican_match_interrogative-total-yn_Emilio-ama-la-marcha.wav,,,,,,,,,,,,,,,,,,,,,,450.4328,453.079,1,1,2.0992,,0,58,58,15,1,0,mexican,,,,,,,,,,,,,,,,,,,,,,,,,,,,,,,,,,,,,,,,,,,,,,,,,,,,,,,,
,,,,,,,,,5bd77196beca730001ced094,Spanish,13 or older,"no, only English or Spanish",no,2025-07-22_22h19.37.198,empathy_intonation_perc,2024.2.4,Win32,40,5bd77196beca730001ced094,687ed1b7e638a4cbf2f02089,68804654ff543006e5ff9c6d,,,,,,,,,,,,,67,0,,./stim/wavs/puertorican_match_declarative-broad-focus_Manuela-vende-el-carro.wav,,,,,,,,,,,,,,,,,,,,,,453.0801,457.3794,0,1,3.7644,,0,59,59,66,1,0,puertorican,,,,,,,,,,,,,,,,,,,,,,,,,,,,,,,,,,,,,,,,,,,,,,,,,,,,,,,,
,,,,,,,,,5bd77196beca730001ced094,Spanish,13 or older,"no, only English or Spanish",no,2025-07-22_22h19.37.198,empathy_intonation_perc,2024.2.4,Win32,40,5bd77196beca730001ced094,687ed1b7e638a4cbf2f02089,68804654ff543006e5ff9c6d,,,,,,,,,,,,,47,0,,./stim/wavs/castilian_match_declarative-broad-focus_Manuela-vende-el-carro.wav,,,,,,,,,,,,,,,,,,,,,,457.3813,461.2777,0,1,3.3664,,0,60,60,46,1,0,castilian,,,,,,,,,,,,,,,,,,,,,,,,,,,,,,,,,,,,,,,,,,,,,,,,,,,,,,,,
,,,,,,,,,5bd77196beca730001ced094,Spanish,13 or older,"no, only English or Spanish",no,2025-07-22_22h19.37.198,empathy_intonation_perc,2024.2.4,Win32,40,5bd77196beca730001ced094,687ed1b7e638a4cbf2f02089,68804654ff543006e5ff9c6d,,,,,,,,,,,,,38,1,,./stim/wavs/mexican_mismatch_interrogative-total-yn_Mi-novio-viene-del-lago.wav,,,,,,,,,,,,,,,,,,,,,,461.2797,463.5789,1,1,1.7692,,0,61,61,37,1,0,mexican,,,,,,,,,,,,,,,,,,,,,,,,,,,,,,,,,,,,,,,,,,,,,,,,,,,,,,,,
,,,,,,,,,5bd77196beca730001ced094,Spanish,13 or older,"no, only English or Spanish",no,2025-07-22_22h19.37.198,empathy_intonation_perc,2024.2.4,Win32,40,5bd77196beca730001ced094,687ed1b7e638a4cbf2f02089,68804654ff543006e5ff9c6d,,,,,,,,,,,,,51,0,,./stim/wavs/cuban_match_declarative-broad-focus_Ana-lleva-el-abrigo.wav,,,,,,,,,,,,,,,,,,,,,,463.5802,466.2258,0,1,2.1107,,0,62,62,50,1,0,cuban,,,,,,,,,,,,,,,,,,,,,,,,,,,,,,,,,,,,,,,,,,,,,,,,,,,,,,,,
,,,,,,,,,5bd77196beca730001ced094,Spanish,13 or older,"no, only English or Spanish",no,2025-07-22_22h19.37.198,empathy_intonation_perc,2024.2.4,Win32,40,5bd77196beca730001ced094,687ed1b7e638a4cbf2f02089,68804654ff543006e5ff9c6d,,,,,,,,,,,,,19,1,,./stim/wavs/puertorican_match_interrogative-total-yn_Ana-lleva-el-abrigo.wav,,,,,,,,,,,,,,,,,,,,,,466.2275,470.0492,0,0,3.2848,,0,63,63,18,1,1,puertorican,,,,,,,,,,,,,,,,,,,,,,,,,,,,,,,,,,,,,,,,,,,,,,,,,,,,,,,,
,,,,,,,,,5bd77196beca730001ced094,Spanish,13 or older,"no, only English or Spanish",no,2025-07-22_22h19.37.198,empathy_intonation_perc,2024.2.4,Win32,40,5bd77196beca730001ced094,687ed1b7e638a4cbf2f02089,68804654ff543006e5ff9c6d,,,,,,,,,,,,,24,1,,./stim/wavs/puertorican_match_interrogative-total-yn_Maria-bebe-el-vino.wav,,,,,,,,,,,,,,,,,,,,,,470.05,472.8736,1,1,2.2743,,0,64,64,23,1,1,puertorican,,,,,,,,,,,,,,,,,,,,,,,,,,,,,,,,,,,,,,,,,,,,,,,,,,,,,,,,
,,,,,,,,,5bd77196beca730001ced094,Spanish,13 or older,"no, only English or Spanish",no,2025-07-22_22h19.37.198,empathy_intonation_perc,2024.2.4,Win32,40,5bd77196beca730001ced094,687ed1b7e638a4cbf2f02089,68804654ff543006e5ff9c6d,,,,,,,,,,,,,3,1,,./stim/wavs/castilian_match_interrogative-total-yn_Manuela-vende-el-carro.wav,,,,,,,,,,,,,,,,,,,,,,472.8744,475.6483,1,1,2.2315,,0,65,65,2,1,0,castilian,,,,,,,,,,,,,,,,,,,,,,,,,,,,,,,,,,,,,,,,,,,,,,,,,,,,,,,,
,,,,,,,,,5bd77196beca730001ced094,Spanish,13 or older,"no, only English or Spanish",no,2025-07-22_22h19.37.198,empathy_intonation_perc,2024.2.4,Win32,40,5bd77196beca730001ced094,687ed1b7e638a4cbf2f02089,68804654ff543006e5ff9c6d,,,,,,,,,,,,,45,0,,./stim/wavs/castilian_match_declarative-broad-focus_David-leia-el-libro.wav,,,,,,,,,,,,,,,,,,,,,,475.6502,478.2471,0,1,2.0515,,0,66,66,44,1,0,castilian,,,,,,,,,,,,,,,,,,,,,,,,,,,,,,,,,,,,,,,,,,,,,,,,,,,,,,,,
,,,,,,,,,5bd77196beca730001ced094,Spanish,13 or older,"no, only English or Spanish",no,2025-07-22_22h19.37.198,empathy_intonation_perc,2024.2.4,Win32,40,5bd77196beca730001ced094,687ed1b7e638a4cbf2f02089,68804654ff543006e5ff9c6d,,,,,,,,,,,,,17,1,,./stim/wavs/mexican_match_interrogative-total-yn_Mariano-habla-del-tiempo.wav,,,,,,,,,,,,,,,,,,,,,,478.248,481.1468,1,1,2.3539,,0,67,67,16,1,0,mexican,,,,,,,,,,,,,,,,,,,,,,,,,,,,,,,,,,,,,,,,,,,,,,,,,,,,,,,,
,,,,,,,,,5bd77196beca730001ced094,Spanish,13 or older,"no, only English or Spanish",no,2025-07-22_22h19.37.198,empathy_intonation_perc,2024.2.4,Win32,40,5bd77196beca730001ced094,687ed1b7e638a4cbf2f02089,68804654ff543006e5ff9c6d,,,,,,,,,,,,,52,0,,./stim/wavs/cuban_match_declarative-broad-focus_Daniel-iba-a-Bolivia.wav,,,,,,,,,,,,,,,,,,,,,,481.1485,487.5702,1,0,5.8737,,0,68,68,51,1,0,cuban,,,,,,,,,,,,,,,,,,,,,,,,,,,,,,,,,,,,,,,,,,,,,,,,,,,,,,,,
,,,,,,,,,5bd77196beca730001ced094,Spanish,13 or older,"no, only English or Spanish",no,2025-07-22_22h19.37.198,empathy_intonation_perc,2024.2.4,Win32,40,5bd77196beca730001ced094,687ed1b7e638a4cbf2f02089,68804654ff543006e5ff9c6d,,,,,,,,,,,,,54,0,,./stim/wavs/cuban_match_declarative-broad-focus_Maria-bebe-el-vino.wav,,,,,,,,,,,,,,,,,,,,,,487.5723,491.2191,0,1,3.1125,,0,69,69,53,1,0,cuban,,,,,,,,,,,,,,,,,,,,,,,,,,,,,,,,,,,,,,,,,,,,,,,,,,,,,,,,
,,,,,,,,,5bd77196beca730001ced094,Spanish,13 or older,"no, only English or Spanish",no,2025-07-22_22h19.37.198,empathy_intonation_perc,2024.2.4,Win32,40,5bd77196beca730001ced094,687ed1b7e638a4cbf2f02089,68804654ff543006e5ff9c6d,,,,,,,,,,,,,57,0,,./stim/wavs/mexican_match_declarative-broad-focus_Ana-lleva-el-abrigo.wav,,,,,,,,,,,,,,,,,,,,,,491.2218,493.9684,0,1,2.2029,,0,70,70,56,1,0,mexican,,,,,,,,,,,,,,,,,,,,,,,,,,,,,,,,,,,,,,,,,,,,,,,,,,,,,,,,
,,,,,,,,,5bd77196beca730001ced094,Spanish,13 or older,"no, only English or Spanish",no,2025-07-22_22h19.37.198,empathy_intonation_perc,2024.2.4,Win32,40,5bd77196beca730001ced094,687ed1b7e638a4cbf2f02089,68804654ff543006e5ff9c6d,,,,,,,,,,,,,86,0,,./stim/wavs/puertorican_mismatch_declarative-broad-focus_El-nino-oye-el-rio.wav,,,,,,,,,,,,,,,,,,,,,,493.9704,496.7672,0,1,2.2604,,0,71,71,85,1,0,puertorican,,,,,,,,,,,,,,,,,,,,,,,,,,,,,,,,,,,,,,,,,,,,,,,,,,,,,,,,
,,,,,,,,,5bd77196beca730001ced094,Spanish,13 or older,"no, only English or Spanish",no,2025-07-22_22h19.37.198,empathy_intonation_perc,2024.2.4,Win32,40,5bd77196beca730001ced094,687ed1b7e638a4cbf2f02089,68804654ff543006e5ff9c6d,,,,,,,,,,,,,85,0,,./stim/wavs/puertorican_mismatch_declarative-broad-focus_El-hombre-mira-la-luna.wav,,,,,,,,,,,,,,,,,,,,,,496.7684,500.3414,0,1,3.0344,,0,72,72,84,1,0,puertorican,,,,,,,,,,,,,,,,,,,,,,,,,,,,,,,,,,,,,,,,,,,,,,,,,,,,,,,,
,,,,,,,,,5bd77196beca730001ced094,Spanish,13 or older,"no, only English or Spanish",no,2025-07-22_22h19.37.198,empathy_intonation_perc,2024.2.4,Win32,40,5bd77196beca730001ced094,687ed1b7e638a4cbf2f02089,68804654ff543006e5ff9c6d,,,,,,,,,,,,,56,0,,./stim/wavs/cuban_match_declarative-broad-focus_Marta-abre-el-regalo.wav,,,,,,,,,,,,,,,,,,,,,,500.3423,504.9401,1,0,4.0541,,0,73,73,55,1,0,cuban,,,,,,,,,,,,,,,,,,,,,,,,,,,,,,,,,,,,,,,,,,,,,,,,,,,,,,,,
,,,,,,,,,5bd77196beca730001ced094,Spanish,13 or older,"no, only English or Spanish",no,2025-07-22_22h19.37.198,empathy_intonation_perc,2024.2.4,Win32,40,5bd77196beca730001ced094,687ed1b7e638a4cbf2f02089,68804654ff543006e5ff9c6d,,,,,,,,,,,,,83,0,,./stim/wavs/mexican_mismatch_declarative-broad-focus_Mi-tia-odia-la-lluvia.wav,,,,,,,,,,,,,,,,,,,,,,504.9418,508.1645,0,1,2.6851,,0,74,74,82,1,0,mexican,,,,,,,,,,,,,,,,,,,,,,,,,,,,,,,,,,,,,,,,,,,,,,,,,,,,,,,,
,,,,,,,,,5bd77196beca730001ced094,Spanish,13 or older,"no, only English or Spanish",no,2025-07-22_22h19.37.198,empathy_intonation_perc,2024.2.4,Win32,40,5bd77196beca730001ced094,687ed1b7e638a4cbf2f02089,68804654ff543006e5ff9c6d,,,,,,,,,,,,,9,1,,./stim/wavs/cuban_match_interrogative-total-yn_Manuela-vende-el-carro.wav,,,,,,,,,,,,,,,,,,,,,,508.1668,514.6385,0,0,5.9341,,0,75,75,8,1,1,cuban,,,,,,,,,,,,,,,,,,,,,,,,,,,,,,,,,,,,,,,,,,,,,,,,,,,,,,,,
,,,,,,,,,5bd77196beca730001ced094,Spanish,13 or older,"no, only English or Spanish",no,2025-07-22_22h19.37.198,empathy_intonation_perc,2024.2.4,Win32,40,5bd77196beca730001ced094,687ed1b7e638a4cbf2f02089,68804654ff543006e5ff9c6d,,,,,,,,,,,,,14,1,,./stim/wavs/mexican_match_interrogative-total-yn_Daniel-iba-a-Bolivia.wav,,,,,,,,,,,,,,,,,,,,,,514.64,517.1367,1,1,1.9644,,0,76,76,13,1,0,mexican,,,,,,,,,,,,,,,,,,,,,,,,,,,,,,,,,,,,,,,,,,,,,,,,,,,,,,,,
,,,,,,,,,5bd77196beca730001ced094,Spanish,13 or older,"no, only English or Spanish",no,2025-07-22_22h19.37.198,empathy_intonation_perc,2024.2.4,Win32,40,5bd77196beca730001ced094,687ed1b7e638a4cbf2f02089,68804654ff543006e5ff9c6d,,,,,,,,,,,,,69,0,,./stim/wavs/castilian_mismatch_declarative-broad-focus_El-nino-oye-el-rio.wav,,,,,,,,,,,,,,,,,,,,,,517.1378,520.2138,1,0,2.5433,,0,77,77,68,1,0,castilian,,,,,,,,,,,,,,,,,,,,,,,,,,,,,,,,,,,,,,,,,,,,,,,,,,,,,,,,
,,,,,,,,,5bd77196beca730001ced094,Spanish,13 or older,"no, only English or Spanish",no,2025-07-22_22h19.37.198,empathy_intonation_perc,2024.2.4,Win32,40,5bd77196beca730001ced094,687ed1b7e638a4cbf2f02089,68804654ff543006e5ff9c6d,,,,,,,,,,,,,63,0,,./stim/wavs/puertorican_match_declarative-broad-focus_Ana-lleva-el-abrigo.wav,,,,,,,,,,,,,,,,,,,,,,520.2154,522.4358,0,1,1.6806,,0,78,78,62,1,0,puertorican,,,,,,,,,,,,,,,,,,,,,,,,,,,,,,,,,,,,,,,,,,,,,,,,,,,,,,,,
,,,,,,,,,5bd77196beca730001ced094,Spanish,13 or older,"no, only English or Spanish",no,2025-07-22_22h19.37.198,empathy_intonation_perc,2024.2.4,Win32,40,5bd77196beca730001ced094,687ed1b7e638a4cbf2f02089,68804654ff543006e5ff9c6d,,,,,,,,,,,,,84,0,,./stim/wavs/puertorican_mismatch_declarative-broad-focus_El-bebe-comia-muy-bien.wav,,,,,,,,,,,,,,,,,,,,,,522.4374,528.3843,0,1,5.3957,,0,79,79,83,1,0,puertorican,,,,,,,,,,,,,,,,,,,,,,,,,,,,,,,,,,,,,,,,,,,,,,,,,,,,,,,,
,,,,,,,,,5bd77196beca730001ced094,Spanish,13 or older,"no, only English or Spanish",no,2025-07-22_22h19.37.198,empathy_intonation_perc,2024.2.4,Win32,40,5bd77196beca730001ced094,687ed1b7e638a4cbf2f02089,68804654ff543006e5ff9c6d,,,,,,,,,,,,,42,1,,./stim/wavs/puertorican_mismatch_interrogative-total-yn_La-maestra-vive-en-Paris.wav,,,,,,,,,,,,,,,,,,,,,,528.3861,531.4081,1,1,2.4765,,0,80,80,41,1,1,puertorican,,,,,,,,,,,,,,,,,,,,,,,,,,,,,,,,,,,,,,,,,,,,,,,,,,,,,,,,
,,,,,,,,,5bd77196beca730001ced094,Spanish,13 or older,"no, only English or Spanish",no,2025-07-22_22h19.37.198,empathy_intonation_perc,2024.2.4,Win32,40,5bd77196beca730001ced094,687ed1b7e638a4cbf2f02089,68804654ff543006e5ff9c6d,,,,,,,,,,,,,35,1,,./stim/wavs/mexican_mismatch_interrogative-total-yn_El-hombre-mira-la-luna.wav,,,,,,,,,,,,,,,,,,,,,,531.4091,533.4584,1,1,1.5155,,0,81,81,34,1,0,mexican,,,,,,,,,,,,,,,,,,,,,,,,,,,,,,,,,,,,,,,,,,,,,,,,,,,,,,,,
,,,,,,,,,5bd77196beca730001ced094,Spanish,13 or older,"no, only English or Spanish",no,2025-07-22_22h19.37.198,empathy_intonation_perc,2024.2.4,Win32,40,5bd77196beca730001ced094,687ed1b7e638a4cbf2f02089,68804654ff543006e5ff9c6d,,,,,,,,,,,,,39,1,,./stim/wavs/mexican_mismatch_interrogative-total-yn_Mi-tia-odia-la-lluvia.wav,,,,,,,,,,,,,,,,,,,,,,533.4606,535.7573,1,1,1.7512,,0,82,82,38,1,0,mexican,,,,,,,,,,,,,,,,,,,,,,,,,,,,,,,,,,,,,,,,,,,,,,,,,,,,,,,,
,,,,,,,,,5bd77196beca730001ced094,Spanish,13 or older,"no, only English or Spanish",no,2025-07-22_22h19.37.198,empathy_intonation_perc,2024.2.4,Win32,40,5bd77196beca730001ced094,687ed1b7e638a4cbf2f02089,68804654ff543006e5ff9c6d,,,,,,,,,,,,,62,0,,./stim/wavs/mexican_match_declarative-broad-focus_Marta-abre-el-regalo.wav,,,,,,,,,,,,,,,,,,,,,,535.759,537.7064,0,1,1.4037,,0,83,83,61,1,0,mexican,,,,,,,,,,,,,,,,,,,,,,,,,,,,,,,,,,,,,,,,,,,,,,,,,,,,,,,,
,,,,,,,,,5bd77196beca730001ced094,Spanish,13 or older,"no, only English or Spanish",no,2025-07-22_22h19.37.198,empathy_intonation_perc,2024.2.4,Win32,40,5bd77196beca730001ced094,687ed1b7e638a4cbf2f02089,68804654ff543006e5ff9c6d,,,,,,,,,,,,,6,1,,./stim/wavs/castilian_match_interrogative-total-yn_Marta-abre-el-regalo.wav,,,,,,,,,,,,,,,,,,,,,,537.7073,540.2062,1,1,1.9538,,0,84,84,5,1,0,castilian,,,,,,,,,,,,,,,,,,,,,,,,,,,,,,,,,,,,,,,,,,,,,,,,,,,,,,,,
,,,,,,,,,5bd77196beca730001ced094,Spanish,13 or older,"no, only English or Spanish",no,2025-07-22_22h19.37.198,empathy_intonation_perc,2024.2.4,Win32,40,5bd77196beca730001ced094,687ed1b7e638a4cbf2f02089,68804654ff543006e5ff9c6d,,,,,,,,,,,,,46,0,,./stim/wavs/castilian_match_declarative-broad-focus_Emilio-ama-la-marcha.wav,,,,,,,,,,,,,,,,,,,,,,540.2078,543.4806,1,0,2.735,,0,85,85,45,1,0,castilian,,,,,,,,,,,,,,,,,,,,,,,,,,,,,,,,,,,,,,,,,,,,,,,,,,,,,,,,
,,,,,,,,,5bd77196beca730001ced094,Spanish,13 or older,"no, only English or Spanish",no,2025-07-22_22h19.37.198,empathy_intonation_perc,2024.2.4,Win32,40,5bd77196beca730001ced094,687ed1b7e638a4cbf2f02089,68804654ff543006e5ff9c6d,,,,,,,,,,,,,40,1,,./stim/wavs/puertorican_mismatch_interrogative-total-yn_El-hombre-mira-la-luna.wav,,,,,,,,,,,,,,,,,,,,,,543.4826,546.3792,0,0,2.356,,0,86,86,39,1,1,puertorican,,,,,,,,,,,,,,,,,,,,,,,,,,,,,,,,,,,,,,,,,,,,,,,,,,,,,,,,
,,,,,,,,,5bd77196beca730001ced094,Spanish,13 or older,"no, only English or Spanish",no,2025-07-22_22h19.37.198,empathy_intonation_perc,2024.2.4,Win32,40,5bd77196beca730001ced094,687ed1b7e638a4cbf2f02089,68804654ff543006e5ff9c6d,,,,,,,,,,,,,26,1,,./stim/wavs/castilian_mismatch_interrogative-total-yn_La-nina-lava-el-plato.wav,,,,,,,,,,,,,,,,,,,,,,546.3815,548.9038,1,1,1.9863,,0,87,87,25,1,0,castilian,,,,,,,,,,,,,,,,,,,,,,,,,,,,,,,,,,,,,,,,,,,,,,,,,,,,,,,,
,,,,,,,"Great! Now we will move on. The next task consists of about 60 trials, in each of which you will see a string of letters. 
  
  Your task is to decide whether this is a real Spanish word or not.", (press the spacebar to continue),5bd77196beca730001ced094,Spanish,13 or older,"no, only English or Spanish",no,2025-07-22_22h19.37.198,empathy_intonation_perc,2024.2.4,Win32,40,5bd77196beca730001ced094,687ed1b7e638a4cbf2f02089,68804654ff543006e5ff9c6d,,,,,,,,,,,,,,,,,,,,,,,,,,,,,,,,,,,,,,,,,,,,,,,,,,,548.9222,573.7729,0,0,0,0,1,,,,,,,,,,,,,,,,,,,,,,,,,,,,,,,,,,,,,,,,,,,,,,,,,
,,,,,,,"If you think it is an existing Spanish word, you type '1' (for 'REAL'), and if you think it is not an existing Spanish word, you type '0' (for 'FAKE').", (press the spacebar to continue),5bd77196beca730001ced094,Spanish,13 or older,"no, only English or Spanish",no,2025-07-22_22h19.37.198,empathy_intonation_perc,2024.2.4,Win32,40,5bd77196beca730001ced094,687ed1b7e638a4cbf2f02089,68804654ff543006e5ff9c6d,,,,,,,,,,,,,,,,,,,,,,,,,,,,,,,,,,,,,,,,,,,,,,,,,,,573.779,597.991,0,1,1,1,1,,,,,,,,,,,,,,,,,,,,,,,,,,,,,,,,,,,,,,,,,,,,,,,,,
,,,,,,,"If you are sure that the word exists, even though you don’t know its exact meaning, you may still respond '1' (REAL). 
  
  But if you are not sure if it is an existing word, you should respond '0' (FAKE).
  
  Let's do a practice round...", (press the spacebar to continue),5bd77196beca730001ced094,Spanish,13 or older,"no, only English or Spanish",no,2025-07-22_22h19.37.198,empathy_intonation_perc,2024.2.4,Win32,40,5bd77196beca730001ced094,687ed1b7e638a4cbf2f02089,68804654ff543006e5ff9c6d,,,,,,,,,,,,,,,,,,,,,,,,,,,,,,,,,,,,,,,,,,,,,,,,,,,597.997,611.8623,0,2,2,2,1,,,,,,,,,,,,,,,,,,,,,,,,,,,,,,,,,,,,,,,,,,,,,,,,,
,,,,,,,,,5bd77196beca730001ced094,Spanish,13 or older,"no, only English or Spanish",no,2025-07-22_22h19.37.198,empathy_intonation_perc,2024.2.4,Win32,40,5bd77196beca730001ced094,687ed1b7e638a4cbf2f02089,68804654ff543006e5ff9c6d,,,,,,,,,,,,,,0,,,,,,,,,,,,,,,,,,,,,,,,,,,,,,,,,,,,,,,,,,,,611.8761,620.6597,0,1,8.2442,,620.6602,621.6622,0,0,0,0,1,0,depiste,REAL,FAKE,,,,,,,,,,,,,,,,,,,,,,,,,,,,,,,,
,,,,,,,,,5bd77196beca730001ced094,Spanish,13 or older,"no, only English or Spanish",no,2025-07-22_22h19.37.198,empathy_intonation_perc,2024.2.4,Win32,40,5bd77196beca730001ced094,687ed1b7e638a4cbf2f02089,68804654ff543006e5ff9c6d,,,,,,,,,,,,,,1,,,,,,,,,,,,,,,,,,,,,,,,,,,,,,,,,,,,,,,,,,,,621.68,623.9084,1,1,1.6964,,623.9085,624.9081,0,1,1,1,1,0,sí,REAL,FAKE,,,,,,,,,,,,,,,,,,,,,,,,,,,,,,,,
,,,,,,,,,5bd77196beca730001ced094,Spanish,13 or older,"no, only English or Spanish",no,2025-07-22_22h19.37.198,empathy_intonation_perc,2024.2.4,Win32,40,5bd77196beca730001ced094,687ed1b7e638a4cbf2f02089,68804654ff543006e5ff9c6d,,,,,,,,,,,,,,0,,,,,,,,,,,,,,,,,,,,,,,,,,,,,,,,,,,,,,,,,,,,624.9099,630.5568,0,1,5.0943,,630.5569,631.5569,0,2,2,2,1,0,coné,REAL,FAKE,,,,,,,,,,,,,,,,,,,,,,,,,,,,,,,,
,,,,,,,,,5bd77196beca730001ced094,Spanish,13 or older,"no, only English or Spanish",no,2025-07-22_22h19.37.198,empathy_intonation_perc,2024.2.4,Win32,40,5bd77196beca730001ced094,687ed1b7e638a4cbf2f02089,68804654ff543006e5ff9c6d,,,,,,,,,,,,,,0,,,,,,,,,,,,,,,,,,,,,,,,,,,,,,,,,,,,,,,,,,,,631.5598,635.9307,0,1,3.8167,,635.9309,636.9305,0,3,3,3,1,0,calpar,REAL,FAKE,,,,,,,,,,,,,,,,,,,,,,,,,,,,,,,,
,,,,,,,,,5bd77196beca730001ced094,Spanish,13 or older,"no, only English or Spanish",no,2025-07-22_22h19.37.198,empathy_intonation_perc,2024.2.4,Win32,40,5bd77196beca730001ced094,687ed1b7e638a4cbf2f02089,68804654ff543006e5ff9c6d,,,,,,,,,,,,,,0,,,,,,,,,,,,,,,,,,,,,,,,,,,,,,,,,,,,,,,,,,,,636.9343,639.4049,1,0,1.9224,,639.4088,640.4046,0,4,4,4,1,0,joten,REAL,FAKE,,,,,,,,,,,,,,,,,,,,,,,,,,,,,,,,
,,,,,,,,,5bd77196beca730001ced094,Spanish,13 or older,"no, only English or Spanish",no,2025-07-22_22h19.37.198,empathy_intonation_perc,2024.2.4,Win32,40,5bd77196beca730001ced094,687ed1b7e638a4cbf2f02089,68804654ff543006e5ff9c6d,,,,,,,,,,,,,,1,,,,,,,,,,,,,,,,,,,,,,,,,,,,,,,,,,,,,,,,,,,,640.4076,643.2037,1,1,2.2474,,643.2058,644.2037,0,5,5,5,1,0,sacapuntas,REAL,FAKE,,,,,,,,,,,,,,,,,,,,,,,,,,,,,,,,
,,,,,,,,,5bd77196beca730001ced094,Spanish,13 or older,"no, only English or Spanish",no,2025-07-22_22h19.37.198,empathy_intonation_perc,2024.2.4,Win32,40,5bd77196beca730001ced094,687ed1b7e638a4cbf2f02089,68804654ff543006e5ff9c6d,,,,,,,,,,,,,,0,,,,,,,,,,,,,,,,,,,,,,,,,,,,,,,,,,,,,,,,,,,,644.2067,648.3269,0,1,3.5775,,648.327,649.3268,0,6,6,6,1,0,priba,REAL,FAKE,,,,,,,,,,,,,,,,,,,,,,,,,,,,,,,,
,,,,,,,,,5bd77196beca730001ced094,Spanish,13 or older,"no, only English or Spanish",no,2025-07-22_22h19.37.198,empathy_intonation_perc,2024.2.4,Win32,40,5bd77196beca730001ced094,687ed1b7e638a4cbf2f02089,68804654ff543006e5ff9c6d,,,,,,,,,,,,,,0,,,,,,,,,,,,,,,,,,,,,,,,,,,,,,,,,,,,,,,,,,,,649.3283,652.926,1,0,3.0341,,652.9271,653.9259,0,7,7,7,1,0,pelasula,REAL,FAKE,,,,,,,,,,,,,,,,,,,,,,,,,,,,,,,,
,,,,,,,,,5bd77196beca730001ced094,Spanish,13 or older,"no, only English or Spanish",no,2025-07-22_22h19.37.198,empathy_intonation_perc,2024.2.4,Win32,40,5bd77196beca730001ced094,687ed1b7e638a4cbf2f02089,68804654ff543006e5ff9c6d,,,,,,,,,,,,,,1,,,,,,,,,,,,,,,,,,,,,,,,,,,,,,,,,,,,,,,,,,,,653.9272,655.5502,1,1,1.0684,,655.5509,656.5497,0,8,8,8,1,0,bien,REAL,FAKE,,,,,,,,,,,,,,,,,,,,,,,,,,,,,,,,
,,,,,,,,,5bd77196beca730001ced094,Spanish,13 or older,"no, only English or Spanish",no,2025-07-22_22h19.37.198,empathy_intonation_perc,2024.2.4,Win32,40,5bd77196beca730001ced094,687ed1b7e638a4cbf2f02089,68804654ff543006e5ff9c6d,,,,,,,,,,,,,,1,,,,,,,,,,,,,,,,,,,,,,,,,,,,,,,,,,,,,,,,,,,,656.5511,658.1995,1,1,1.1028,,658.1996,659.1993,0,9,9,9,1,0,casa,REAL,FAKE,,,,,,,,,,,,,,,,,,,,,,,,,,,,,,,,
,,,,,,,,,5bd77196beca730001ced094,Spanish,13 or older,"no, only English or Spanish",no,2025-07-22_22h19.37.198,empathy_intonation_perc,2024.2.4,Win32,40,5bd77196beca730001ced094,687ed1b7e638a4cbf2f02089,68804654ff543006e5ff9c6d,,,,,,,,,,,,,,0,,,,,,,,,,,,,,,,,,,,,,,,,,,,,,,,,,,,,,,,,,,,659.2006,663.6981,1,0,3.9476,,663.699,664.6977,0,10,10,10,1,0,lejo,REAL,FAKE,,,,,,,,,,,,,,,,,,,,,,,,,,,,,,,,
,,,,,,,,,5bd77196beca730001ced094,Spanish,13 or older,"no, only English or Spanish",no,2025-07-22_22h19.37.198,empathy_intonation_perc,2024.2.4,Win32,40,5bd77196beca730001ced094,687ed1b7e638a4cbf2f02089,68804654ff543006e5ff9c6d,,,,,,,,,,,,,,0,,,,,,,,,,,,,,,,,,,,,,,,,,,,,,,,,,,,,,,,,,,,664.6989,667.7972,0,1,2.5422,,667.7982,668.7967,0,11,11,11,1,0,pretantas,REAL,FAKE,,,,,,,,,,,,,,,,,,,,,,,,,,,,,,,,
,,,,,,,,,5bd77196beca730001ced094,Spanish,13 or older,"no, only English or Spanish",no,2025-07-22_22h19.37.198,empathy_intonation_perc,2024.2.4,Win32,40,5bd77196beca730001ced094,687ed1b7e638a4cbf2f02089,68804654ff543006e5ff9c6d,,,,,,,,,,,,,,,,,,,,,,,,,,,,,,,,,,,,,,,,,,,,,,,,,,,,,,,,,,,,,,,,,,,,,,,,,,,668.7971,672.2471,,,,,,,,,,,,,,,,,,,,,,,,,,,,,,
,,,,,,,,,5bd77196beca730001ced094,Spanish,13 or older,"no, only English or Spanish",no,2025-07-22_22h19.37.198,empathy_intonation_perc,2024.2.4,Win32,40,5bd77196beca730001ced094,687ed1b7e638a4cbf2f02089,68804654ff543006e5ff9c6d,,,,,,,,,,,,,,0,,,,,,,,,,,,,,,,,,,,,,,,,,,,,,,,,,,,,,,,,,,,,,,,,,,,,,,,,29,decar,,,,,672.2664,675.9707,1,0,3.1624,,0,0,0,28,1,REAL,FAKE,,,,,,,,,,,,,,,,,
,,,,,,,,,5bd77196beca730001ced094,Spanish,13 or older,"no, only English or Spanish",no,2025-07-22_22h19.37.198,empathy_intonation_perc,2024.2.4,Win32,40,5bd77196beca730001ced094,687ed1b7e638a4cbf2f02089,68804654ff543006e5ff9c6d,,,,,,,,,,,,,,1,,,,,,,,,,,,,,,,,,,,,,,,,,,,,,,,,,,,,,,,,,,,,,,,,,,,,,,,,41,rebuscar,,,,,675.9727,677.8451,0,0,1.3175,,0,1,1,40,1,REAL,FAKE,,,,,,,,,,,,,,,,,
,,,,,,,,,5bd77196beca730001ced094,Spanish,13 or older,"no, only English or Spanish",no,2025-07-22_22h19.37.198,empathy_intonation_perc,2024.2.4,Win32,40,5bd77196beca730001ced094,687ed1b7e638a4cbf2f02089,68804654ff543006e5ff9c6d,,,,,,,,,,,,,,0,,,,,,,,,,,,,,,,,,,,,,,,,,,,,,,,,,,,,,,,,,,,,,,,,,,,,,,,,47,cartinar,,,,,677.8477,679.9696,0,1,1.5674,,0,2,2,46,1,REAL,FAKE,,,,,,,,,,,,,,,,,
,,,,,,,,,5bd77196beca730001ced094,Spanish,13 or older,"no, only English or Spanish",no,2025-07-22_22h19.37.198,empathy_intonation_perc,2024.2.4,Win32,40,5bd77196beca730001ced094,687ed1b7e638a4cbf2f02089,68804654ff543006e5ff9c6d,,,,,,,,,,,,,,0,,,,,,,,,,,,,,,,,,,,,,,,,,,,,,,,,,,,,,,,,,,,,,,,,,,,,,,,,1,terzo,,,,,679.973,681.5182,1,0,0.9984,,0,3,3,0,1,REAL,FAKE,,,,,,,,,,,,,,,,,
,,,,,,,,,5bd77196beca730001ced094,Spanish,13 or older,"no, only English or Spanish",no,2025-07-22_22h19.37.198,empathy_intonation_perc,2024.2.4,Win32,40,5bd77196beca730001ced094,687ed1b7e638a4cbf2f02089,68804654ff543006e5ff9c6d,,,,,,,,,,,,,,0,,,,,,,,,,,,,,,,,,,,,,,,,,,,,,,,,,,,,,,,,,,,,,,,,,,,,,,,,32,fatacidad,,,,,681.5196,684.6426,1,0,2.5704,,0,4,4,31,1,REAL,FAKE,,,,,,,,,,,,,,,,,
,,,,,,,,,5bd77196beca730001ced094,Spanish,13 or older,"no, only English or Spanish",no,2025-07-22_22h19.37.198,empathy_intonation_perc,2024.2.4,Win32,40,5bd77196beca730001ced094,687ed1b7e638a4cbf2f02089,68804654ff543006e5ff9c6d,,,,,,,,,,,,,,1,,,,,,,,,,,,,,,,,,,,,,,,,,,,,,,,,,,,,,,,,,,,,,,,,,,,,,,,,13,helar,,,,,684.6439,686.292,0,0,1.1044,,0,5,5,12,1,REAL,FAKE,,,,,,,,,,,,,,,,,
,,,,,,,,,5bd77196beca730001ced094,Spanish,13 or older,"no, only English or Spanish",no,2025-07-22_22h19.37.198,empathy_intonation_perc,2024.2.4,Win32,40,5bd77196beca730001ced094,687ed1b7e638a4cbf2f02089,68804654ff543006e5ff9c6d,,,,,,,,,,,,,,0,,,,,,,,,,,,,,,,,,,,,,,,,,,,,,,,,,,,,,,,,,,,,,,,,,,,,,,,,82,empirador,,,,,686.2933,688.1916,1,0,1.3433,,0,6,6,81,1,REAL,FAKE,,,,,,,,,,,,,,,,,
,,,,,,,,,5bd77196beca730001ced094,Spanish,13 or older,"no, only English or Spanish",no,2025-07-22_22h19.37.198,empathy_intonation_perc,2024.2.4,Win32,40,5bd77196beca730001ced094,687ed1b7e638a4cbf2f02089,68804654ff543006e5ff9c6d,,,,,,,,,,,,,,1,,,,,,,,,,,,,,,,,,,,,,,,,,,,,,,,,,,,,,,,,,,,,,,,,,,,,,,,,68,alegre,,,,,688.1927,689.9917,1,1,1.2464,,0,7,7,67,1,REAL,FAKE,,,,,,,,,,,,,,,,,
,,,,,,,,,5bd77196beca730001ced094,Spanish,13 or older,"no, only English or Spanish",no,2025-07-22_22h19.37.198,empathy_intonation_perc,2024.2.4,Win32,40,5bd77196beca730001ced094,687ed1b7e638a4cbf2f02089,68804654ff543006e5ff9c6d,,,,,,,,,,,,,,1,,,,,,,,,,,,,,,,,,,,,,,,,,,,,,,,,,,,,,,,,,,,,,,,,,,,,,,,,65,bizcocho,,,,,689.9941,692.3161,0,0,1.7646,,0,8,8,64,1,REAL,FAKE,,,,,,,,,,,,,,,,,
,,,,,,,,,5bd77196beca730001ced094,Spanish,13 or older,"no, only English or Spanish",no,2025-07-22_22h19.37.198,empathy_intonation_perc,2024.2.4,Win32,40,5bd77196beca730001ced094,687ed1b7e638a4cbf2f02089,68804654ff543006e5ff9c6d,,,,,,,,,,,,,,0,,,,,,,,,,,,,,,,,,,,,,,,,,,,,,,,,,,,,,,,,,,,,,,,,,,,,,,,,33,pauca,,,,,692.3187,694.165,0,1,1.2927,,0,9,9,32,1,REAL,FAKE,,,,,,,,,,,,,,,,,
,,,,,,,,,5bd77196beca730001ced094,Spanish,13 or older,"no, only English or Spanish",no,2025-07-22_22h19.37.198,empathy_intonation_perc,2024.2.4,Win32,40,5bd77196beca730001ced094,687ed1b7e638a4cbf2f02089,68804654ff543006e5ff9c6d,,,,,,,,,,,,,,1,,,,,,,,,,,,,,,,,,,,,,,,,,,,,,,,,,,,,,,,,,,,,,,,,,,,,,,,,7,pésimo,,,,,694.1665,695.7151,1,1,1.0176,,0,10,10,6,1,REAL,FAKE,,,,,,,,,,,,,,,,,
,,,,,,,,,5bd77196beca730001ced094,Spanish,13 or older,"no, only English or Spanish",no,2025-07-22_22h19.37.198,empathy_intonation_perc,2024.2.4,Win32,40,5bd77196beca730001ced094,687ed1b7e638a4cbf2f02089,68804654ff543006e5ff9c6d,,,,,,,,,,,,,,0,,,,,,,,,,,,,,,,,,,,,,,,,,,,,,,,,,,,,,,,,,,,,,,,,,,,,,,,,19,brecedad,,,,,695.7178,698.2158,0,1,1.9601,,0,11,11,18,1,REAL,FAKE,,,,,,,,,,,,,,,,,
,,,,,,,,,5bd77196beca730001ced094,Spanish,13 or older,"no, only English or Spanish",no,2025-07-22_22h19.37.198,empathy_intonation_perc,2024.2.4,Win32,40,5bd77196beca730001ced094,687ed1b7e638a4cbf2f02089,68804654ff543006e5ff9c6d,,,,,,,,,,,,,,1,,,,,,,,,,,,,,,,,,,,,,,,,,,,,,,,,,,,,,,,,,,,,,,,,,,,,,,,,59,besar,,,,,698.2185,700.7638,0,0,2.0024,,0,12,12,58,1,REAL,FAKE,,,,,,,,,,,,,,,,,
,,,,,,,,,5bd77196beca730001ced094,Spanish,13 or older,"no, only English or Spanish",no,2025-07-22_22h19.37.198,empathy_intonation_perc,2024.2.4,Win32,40,5bd77196beca730001ced094,687ed1b7e638a4cbf2f02089,68804654ff543006e5ff9c6d,,,,,,,,,,,,,,1,,,,,,,,,,,,,,,,,,,,,,,,,,,,,,,,,,,,,,,,,,,,,,,,,,,,,,,,,76,atar,,,,,700.7661,702.3883,1,1,1.0758,,0,13,13,75,1,REAL,FAKE,,,,,,,,,,,,,,,,,
,,,,,,,,,5bd77196beca730001ced094,Spanish,13 or older,"no, only English or Spanish",no,2025-07-22_22h19.37.198,empathy_intonation_perc,2024.2.4,Win32,40,5bd77196beca730001ced094,687ed1b7e638a4cbf2f02089,68804654ff543006e5ff9c6d,,,,,,,,,,,,,,0,,,,,,,,,,,,,,,,,,,,,,,,,,,,,,,,,,,,,,,,,,,,,,,,,,,,,,,,,72,pemición,,,,,702.3924,705.287,1,0,2.3498,,0,14,14,71,1,REAL,FAKE,,,,,,,,,,,,,,,,,
,,,,,,,,,5bd77196beca730001ced094,Spanish,13 or older,"no, only English or Spanish",no,2025-07-22_22h19.37.198,empathy_intonation_perc,2024.2.4,Win32,40,5bd77196beca730001ced094,687ed1b7e638a4cbf2f02089,68804654ff543006e5ff9c6d,,,,,,,,,,,,,,1,,,,,,,,,,,,,,,,,,,,,,,,,,,,,,,,,,,,,,,,,,,,,,,,,,,,,,,,,86,barato,,,,,705.2884,707.6362,1,1,1.8075,,0,15,15,85,1,REAL,FAKE,,,,,,,,,,,,,,,,,
,,,,,,,,,5bd77196beca730001ced094,Spanish,13 or older,"no, only English or Spanish",no,2025-07-22_22h19.37.198,empathy_intonation_perc,2024.2.4,Win32,40,5bd77196beca730001ced094,687ed1b7e638a4cbf2f02089,68804654ff543006e5ff9c6d,,,,,,,,,,,,,,0,,,,,,,,,,,,,,,,,,,,,,,,,,,,,,,,,,,,,,,,,,,,,,,,,,,,,,,,,8,cadeña,,,,,707.6377,709.3107,1,0,1.1238,,0,16,16,7,1,REAL,FAKE,,,,,,,,,,,,,,,,,
,,,,,,,,,5bd77196beca730001ced094,Spanish,13 or older,"no, only English or Spanish",no,2025-07-22_22h19.37.198,empathy_intonation_perc,2024.2.4,Win32,40,5bd77196beca730001ced094,687ed1b7e638a4cbf2f02089,68804654ff543006e5ff9c6d,,,,,,,,,,,,,,1,,,,,,,,,,,,,,,,,,,,,,,,,,,,,,,,,,,,,,,,,,,,,,,,,,,,,,,,,44,cuchara,,,,,709.3119,712.9606,1,1,3.0895,,0,17,17,43,1,REAL,FAKE,,,,,,,,,,,,,,,,,
,,,,,,,,,5bd77196beca730001ced094,Spanish,13 or older,"no, only English or Spanish",no,2025-07-22_22h19.37.198,empathy_intonation_perc,2024.2.4,Win32,40,5bd77196beca730001ced094,687ed1b7e638a4cbf2f02089,68804654ff543006e5ff9c6d,,,,,,,,,,,,,,1,,,,,,,,,,,,,,,,,,,,,,,,,,,,,,,,,,,,,,,,,,,,,,,,,,,,,,,,,43,canela,,,,,712.9634,714.6601,0,0,1.1433,,0,18,18,42,1,REAL,FAKE,,,,,,,,,,,,,,,,,
,,,,,,,,,5bd77196beca730001ced094,Spanish,13 or older,"no, only English or Spanish",no,2025-07-22_22h19.37.198,empathy_intonation_perc,2024.2.4,Win32,40,5bd77196beca730001ced094,687ed1b7e638a4cbf2f02089,68804654ff543006e5ff9c6d,,,,,,,,,,,,,,1,,,,,,,,,,,,,,,,,,,,,,,,,,,,,,,,,,,,,,,,,,,,,,,,,,,,,,,,,90,clavel,,,,,714.6636,716.6352,0,0,1.4196,,0,19,19,89,1,REAL,FAKE,,,,,,,,,,,,,,,,,
,,,,,,,,,5bd77196beca730001ced094,Spanish,13 or older,"no, only English or Spanish",no,2025-07-22_22h19.37.198,empathy_intonation_perc,2024.2.4,Win32,40,5bd77196beca730001ced094,687ed1b7e638a4cbf2f02089,68804654ff543006e5ff9c6d,,,,,,,,,,,,,,0,,,,,,,,,,,,,,,,,,,,,,,,,,,,,,,,,,,,,,,,,,,,,,,,,,,,,,,,,70,temblo,,,,,716.6383,718.9094,0,1,1.7349,,0,20,20,69,1,REAL,FAKE,,,,,,,,,,,,,,,,,
,,,,,,,,,5bd77196beca730001ced094,Spanish,13 or older,"no, only English or Spanish",no,2025-07-22_22h19.37.198,empathy_intonation_perc,2024.2.4,Win32,40,5bd77196beca730001ced094,687ed1b7e638a4cbf2f02089,68804654ff543006e5ff9c6d,,,,,,,,,,,,,,1,,,,,,,,,,,,,,,,,,,,,,,,,,,,,,,,,,,,,,,,,,,,,,,,,,,,,,,,,2,pellizcar,,,,,718.9107,721.2833,1,1,1.8303,,0,21,21,1,1,REAL,FAKE,,,,,,,,,,,,,,,,,
,,,,,,,,,5bd77196beca730001ced094,Spanish,13 or older,"no, only English or Spanish",no,2025-07-22_22h19.37.198,empathy_intonation_perc,2024.2.4,Win32,40,5bd77196beca730001ced094,687ed1b7e638a4cbf2f02089,68804654ff543006e5ff9c6d,,,,,,,,,,,,,,1,,,,,,,,,,,,,,,,,,,,,,,,,,,,,,,,,,,,,,,,,,,,,,,,,,,,,,,,,89,prisa,,,,,721.2855,722.9821,1,1,1.1574,,0,22,22,88,1,REAL,FAKE,,,,,,,,,,,,,,,,,
,,,,,,,,,5bd77196beca730001ced094,Spanish,13 or older,"no, only English or Spanish",no,2025-07-22_22h19.37.198,empathy_intonation_perc,2024.2.4,Win32,40,5bd77196beca730001ced094,687ed1b7e638a4cbf2f02089,68804654ff543006e5ff9c6d,,,,,,,,,,,,,,0,,,,,,,,,,,,,,,,,,,,,,,,,,,,,,,,,,,,,,,,,,,,,,,,,,,,,,,,,87,grodo,,,,,722.9833,724.4103,0,1,0.8846,,0,23,23,86,1,REAL,FAKE,,,,,,,,,,,,,,,,,
,,,,,,,,,5bd77196beca730001ced094,Spanish,13 or older,"no, only English or Spanish",no,2025-07-22_22h19.37.198,empathy_intonation_perc,2024.2.4,Win32,40,5bd77196beca730001ced094,687ed1b7e638a4cbf2f02089,68804654ff543006e5ff9c6d,,,,,,,,,,,,,,1,,,,,,,,,,,,,,,,,,,,,,,,,,,,,,,,,,,,,,,,,,,,,,,,,,,,,,,,,25,bisagra,,,,,724.4135,727.4062,0,0,2.4483,,0,24,24,24,1,REAL,FAKE,,,,,,,,,,,,,,,,,
,,,,,,,,,5bd77196beca730001ced094,Spanish,13 or older,"no, only English or Spanish",no,2025-07-22_22h19.37.198,empathy_intonation_perc,2024.2.4,Win32,40,5bd77196beca730001ced094,687ed1b7e638a4cbf2f02089,68804654ff543006e5ff9c6d,,,,,,,,,,,,,,0,,,,,,,,,,,,,,,,,,,,,,,,,,,,,,,,,,,,,,,,,,,,,,,,,,,,,,,,,63,esposante,,,,,727.4074,733.9051,1,0,5.9475,,0,25,25,62,1,REAL,FAKE,,,,,,,,,,,,,,,,,
,,,,,,,,,5bd77196beca730001ced094,Spanish,13 or older,"no, only English or Spanish",no,2025-07-22_22h19.37.198,empathy_intonation_perc,2024.2.4,Win32,40,5bd77196beca730001ced094,687ed1b7e638a4cbf2f02089,68804654ff543006e5ff9c6d,,,,,,,,,,,,,,0,,,,,,,,,,,,,,,,,,,,,,,,,,,,,,,,,,,,,,,,,,,,,,,,,,,,,,,,,66,hacido,,,,,733.9068,735.9537,0,1,1.4993,,0,26,26,65,1,REAL,FAKE,,,,,,,,,,,,,,,,,
,,,,,,,,,5bd77196beca730001ced094,Spanish,13 or older,"no, only English or Spanish",no,2025-07-22_22h19.37.198,empathy_intonation_perc,2024.2.4,Win32,40,5bd77196beca730001ced094,687ed1b7e638a4cbf2f02089,68804654ff543006e5ff9c6d,,,,,,,,,,,,,,0,,,,,,,,,,,,,,,,,,,,,,,,,,,,,,,,,,,,,,,,,,,,,,,,,,,,,,,,,42,cadallo,,,,,735.955,740.2027,1,0,3.6962,,0,27,27,41,1,REAL,FAKE,,,,,,,,,,,,,,,,,
,,,,,,,,,5bd77196beca730001ced094,Spanish,13 or older,"no, only English or Spanish",no,2025-07-22_22h19.37.198,empathy_intonation_perc,2024.2.4,Win32,40,5bd77196beca730001ced094,687ed1b7e638a4cbf2f02089,68804654ff543006e5ff9c6d,,,,,,,,,,,,,,1,,,,,,,,,,,,,,,,,,,,,,,,,,,,,,,,,,,,,,,,,,,,,,,,,,,,,,,,,40,alfombra,,,,,740.2039,741.8274,0,0,1.0724,,0,28,28,39,1,REAL,FAKE,,,,,,,,,,,,,,,,,
,,,,,,,,,5bd77196beca730001ced094,Spanish,13 or older,"no, only English or Spanish",no,2025-07-22_22h19.37.198,empathy_intonation_perc,2024.2.4,Win32,40,5bd77196beca730001ced094,687ed1b7e638a4cbf2f02089,68804654ff543006e5ff9c6d,,,,,,,,,,,,,,1,,,,,,,,,,,,,,,,,,,,,,,,,,,,,,,,,,,,,,,,,,,,,,,,,,,,,,,,,67,cabello,,,,,741.8289,743.6767,1,1,1.2892,,0,29,29,66,1,REAL,FAKE,,,,,,,,,,,,,,,,,
,,,,,,,,,5bd77196beca730001ced094,Spanish,13 or older,"no, only English or Spanish",no,2025-07-22_22h19.37.198,empathy_intonation_perc,2024.2.4,Win32,40,5bd77196beca730001ced094,687ed1b7e638a4cbf2f02089,68804654ff543006e5ff9c6d,,,,,,,,,,,,,,1,,,,,,,,,,,,,,,,,,,,,,,,,,,,,,,,,,,,,,,,,,,,,,,,,,,,,,,,,38,estornudar,,,,,743.678,748.4261,0,0,4.2012,,0,30,30,37,1,REAL,FAKE,,,,,,,,,,,,,,,,,
,,,,,,,,,5bd77196beca730001ced094,Spanish,13 or older,"no, only English or Spanish",no,2025-07-22_22h19.37.198,empathy_intonation_perc,2024.2.4,Win32,40,5bd77196beca730001ced094,687ed1b7e638a4cbf2f02089,68804654ff543006e5ff9c6d,,,,,,,,,,,,,,1,,,,,,,,,,,,,,,,,,,,,,,,,,,,,,,,,,,,,,,,,,,,,,,,,,,,,,,,,71,polvoriento,,,,,748.4284,750.3,0,0,1.3161,,0,31,31,70,1,REAL,FAKE,,,,,,,,,,,,,,,,,
,,,,,,,,,5bd77196beca730001ced094,Spanish,13 or older,"no, only English or Spanish",no,2025-07-22_22h19.37.198,empathy_intonation_perc,2024.2.4,Win32,40,5bd77196beca730001ced094,687ed1b7e638a4cbf2f02089,68804654ff543006e5ff9c6d,,,,,,,,,,,,,,0,,,,,,,,,,,,,,,,,,,,,,,,,,,,,,,,,,,,,,,,,,,,,,,,,,,,,,,,,30,alardio,,,,,750.3012,754.4488,1,0,3.6013,,0,32,32,29,1,REAL,FAKE,,,,,,,,,,,,,,,,,
,,,,,,,,,5bd77196beca730001ced094,Spanish,13 or older,"no, only English or Spanish",no,2025-07-22_22h19.37.198,empathy_intonation_perc,2024.2.4,Win32,40,5bd77196beca730001ced094,687ed1b7e638a4cbf2f02089,68804654ff543006e5ff9c6d,,,,,,,,,,,,,,1,,,,,,,,,,,,,,,,,,,,,,,,,,,,,,,,,,,,,,,,,,,,,,,,,,,,,,,,,69,engatusar,,,,,754.4499,756.9483,0,0,1.9473,,0,33,33,68,1,REAL,FAKE,,,,,,,,,,,,,,,,,
,,,,,,,,,5bd77196beca730001ced094,Spanish,13 or older,"no, only English or Spanish",no,2025-07-22_22h19.37.198,empathy_intonation_perc,2024.2.4,Win32,40,5bd77196beca730001ced094,687ed1b7e638a4cbf2f02089,68804654ff543006e5ff9c6d,,,,,,,,,,,,,,0,,,,,,,,,,,,,,,,,,,,,,,,,,,,,,,,,,,,,,,,,,,,,,,,,,,,,,,,,4,batillón,,,,,756.9495,759.2977,1,0,1.79,,0,34,34,3,1,REAL,FAKE,,,,,,,,,,,,,,,,,
,,,,,,,,,5bd77196beca730001ced094,Spanish,13 or older,"no, only English or Spanish",no,2025-07-22_22h19.37.198,empathy_intonation_perc,2024.2.4,Win32,40,5bd77196beca730001ced094,687ed1b7e638a4cbf2f02089,68804654ff543006e5ff9c6d,,,,,,,,,,,,,,1,,,,,,,,,,,,,,,,,,,,,,,,,,,,,,,,,,,,,,,,,,,,,,,,,,,,,,,,,57,tacaño,,,,,759.2992,767.1721,1,1,7.3301,,0,35,35,56,1,REAL,FAKE,,,,,,,,,,,,,,,,,
,,,,,,,,,5bd77196beca730001ced094,Spanish,13 or older,"no, only English or Spanish",no,2025-07-22_22h19.37.198,empathy_intonation_perc,2024.2.4,Win32,40,5bd77196beca730001ced094,687ed1b7e638a4cbf2f02089,68804654ff543006e5ff9c6d,,,,,,,,,,,,,,1,,,,,,,,,,,,,,,,,,,,,,,,,,,,,,,,,,,,,,,,,,,,,,,,,,,,,,,,,24,látigo,,,,,767.1759,771.6453,1,1,3.9212,,0,36,36,23,1,REAL,FAKE,,,,,,,,,,,,,,,,,
,,,,,,,,,5bd77196beca730001ced094,Spanish,13 or older,"no, only English or Spanish",no,2025-07-22_22h19.37.198,empathy_intonation_perc,2024.2.4,Win32,40,5bd77196beca730001ced094,687ed1b7e638a4cbf2f02089,68804654ff543006e5ff9c6d,,,,,,,,,,,,,,1,,,,,,,,,,,,,,,,,,,,,,,,,,,,,,,,,,,,,,,,,,,,,,,,,,,,,,,,,5,zapato,,,,,771.6469,774.3942,1,1,2.1918,,0,37,37,4,1,REAL,FAKE,,,,,,,,,,,,,,,,,
,,,,,,,,,5bd77196beca730001ced094,Spanish,13 or older,"no, only English or Spanish",no,2025-07-22_22h19.37.198,empathy_intonation_perc,2024.2.4,Win32,40,5bd77196beca730001ced094,687ed1b7e638a4cbf2f02089,68804654ff543006e5ff9c6d,,,,,,,,,,,,,,1,,,,,,,,,,,,,,,,,,,,,,,,,,,,,,,,,,,,,,,,,,,,,,,,,,,,,,,,,75,yacer,,,,,774.3967,775.6431,0,0,0.6951,,0,38,38,74,1,REAL,FAKE,,,,,,,,,,,,,,,,,
,,,,,,,,,5bd77196beca730001ced094,Spanish,13 or older,"no, only English or Spanish",no,2025-07-22_22h19.37.198,empathy_intonation_perc,2024.2.4,Win32,40,5bd77196beca730001ced094,687ed1b7e638a4cbf2f02089,68804654ff543006e5ff9c6d,,,,,,,,,,,,,,1,,,,,,,,,,,,,,,,,,,,,,,,,,,,,,,,,,,,,,,,,,,,,,,,,,,,,,,,,14,yunque,,,,,775.6443,777.4928,0,0,1.2917,,0,39,39,13,1,REAL,FAKE,,,,,,,,,,,,,,,,,
,,,,,,,,,5bd77196beca730001ced094,Spanish,13 or older,"no, only English or Spanish",no,2025-07-22_22h19.37.198,empathy_intonation_perc,2024.2.4,Win32,40,5bd77196beca730001ced094,687ed1b7e638a4cbf2f02089,68804654ff543006e5ff9c6d,,,,,,,,,,,,,,0,,,,,,,,,,,,,,,,,,,,,,,,,,,,,,,,,,,,,,,,,,,,,,,,,,,,,,,,,53,vegada,,,,,777.4938,780.4676,0,1,2.4183,,0,40,40,52,1,REAL,FAKE,,,,,,,,,,,,,,,,,
,,,,,,,,,5bd77196beca730001ced094,Spanish,13 or older,"no, only English or Spanish",no,2025-07-22_22h19.37.198,empathy_intonation_perc,2024.2.4,Win32,40,5bd77196beca730001ced094,687ed1b7e638a4cbf2f02089,68804654ff543006e5ff9c6d,,,,,,,,,,,,,,1,,,,,,,,,,,,,,,,,,,,,,,,,,,,,,,,,,,,,,,,,,,,,,,,,,,,,,,,,83,guante,,,,,780.4707,781.8416,1,1,0.8284,,0,41,41,82,1,REAL,FAKE,,,,,,,,,,,,,,,,,
,,,,,,,,,5bd77196beca730001ced094,Spanish,13 or older,"no, only English or Spanish",no,2025-07-22_22h19.37.198,empathy_intonation_perc,2024.2.4,Win32,40,5bd77196beca730001ced094,687ed1b7e638a4cbf2f02089,68804654ff543006e5ff9c6d,,,,,,,,,,,,,,1,,,,,,,,,,,,,,,,,,,,,,,,,,,,,,,,,,,,,,,,,,,,,,,,,,,,,,,,,11,cenefa,,,,,781.8426,783.4179,0,0,1.0256,,0,42,42,10,1,REAL,FAKE,,,,,,,,,,,,,,,,,
,,,,,,,,,5bd77196beca730001ced094,Spanish,13 or older,"no, only English or Spanish",no,2025-07-22_22h19.37.198,empathy_intonation_perc,2024.2.4,Win32,40,5bd77196beca730001ced094,687ed1b7e638a4cbf2f02089,68804654ff543006e5ff9c6d,,,,,,,,,,,,,,1,,,,,,,,,,,,,,,,,,,,,,,,,,,,,,,,,,,,,,,,,,,,,,,,,,,,,,,,,39,torpe,,,,,783.4198,785.0915,1,1,1.1215,,0,43,43,38,1,REAL,FAKE,,,,,,,,,,,,,,,,,
,,,,,,,,,5bd77196beca730001ced094,Spanish,13 or older,"no, only English or Spanish",no,2025-07-22_22h19.37.198,empathy_intonation_perc,2024.2.4,Win32,40,5bd77196beca730001ced094,687ed1b7e638a4cbf2f02089,68804654ff543006e5ff9c6d,,,,,,,,,,,,,,1,,,,,,,,,,,,,,,,,,,,,,,,,,,,,,,,,,,,,,,,,,,,,,,,,,,,,,,,,9,hacha,,,,,785.0939,788.5906,1,1,2.9531,,0,44,44,8,1,REAL,FAKE,,,,,,,,,,,,,,,,,
,,,,,,,,,5bd77196beca730001ced094,Spanish,13 or older,"no, only English or Spanish",no,2025-07-22_22h19.37.198,empathy_intonation_perc,2024.2.4,Win32,40,5bd77196beca730001ced094,687ed1b7e638a4cbf2f02089,68804654ff543006e5ff9c6d,,,,,,,,,,,,,,1,,,,,,,,,,,,,,,,,,,,,,,,,,,,,,,,,,,,,,,,,,,,,,,,,,,,,,,,,61,seda,,,,,788.5931,790.1142,0,0,0.9755,,0,45,45,60,1,REAL,FAKE,,,,,,,,,,,,,,,,,
,,,,,,,,,5bd77196beca730001ced094,Spanish,13 or older,"no, only English or Spanish",no,2025-07-22_22h19.37.198,empathy_intonation_perc,2024.2.4,Win32,40,5bd77196beca730001ced094,687ed1b7e638a4cbf2f02089,68804654ff543006e5ff9c6d,,,,,,,,,,,,,,1,,,,,,,,,,,,,,,,,,,,,,,,,,,,,,,,,,,,,,,,,,,,,,,,,,,,,,,,,81,pozo,,,,,790.1156,791.4396,0,0,0.7914,,0,46,46,80,1,REAL,FAKE,,,,,,,,,,,,,,,,,
,,,,,,,,,5bd77196beca730001ced094,Spanish,13 or older,"no, only English or Spanish",no,2025-07-22_22h19.37.198,empathy_intonation_perc,2024.2.4,Win32,40,5bd77196beca730001ced094,687ed1b7e638a4cbf2f02089,68804654ff543006e5ff9c6d,,,,,,,,,,,,,,1,,,,,,,,,,,,,,,,,,,,,,,,,,,,,,,,,,,,,,,,,,,,,,,,,,,,,,,,,36,loro,,,,,791.4421,796.6379,0,0,4.639,,0,47,47,35,1,REAL,FAKE,,,,,,,,,,,,,,,,,
,,,,,,,,,5bd77196beca730001ced094,Spanish,13 or older,"no, only English or Spanish",no,2025-07-22_22h19.37.198,empathy_intonation_perc,2024.2.4,Win32,40,5bd77196beca730001ced094,687ed1b7e638a4cbf2f02089,68804654ff543006e5ff9c6d,,,,,,,,,,,,,,1,,,,,,,,,,,,,,,,,,,,,,,,,,,,,,,,,,,,,,,,,,,,,,,,,,,,,,,,,22,lacayo,,,,,796.6397,798.1627,0,0,0.9689,,0,48,48,21,1,REAL,FAKE,,,,,,,,,,,,,,,,,
,,,,,,,,,5bd77196beca730001ced094,Spanish,13 or older,"no, only English or Spanish",no,2025-07-22_22h19.37.198,empathy_intonation_perc,2024.2.4,Win32,40,5bd77196beca730001ced094,687ed1b7e638a4cbf2f02089,68804654ff543006e5ff9c6d,,,,,,,,,,,,,,0,,,,,,,,,,,,,,,,,,,,,,,,,,,,,,,,,,,,,,,,,,,,,,,,,,,,,,,,,58,plaudir,,,,,798.1648,800.1617,1,0,1.4482,,0,49,49,57,1,REAL,FAKE,,,,,,,,,,,,,,,,,
,,,,,,,,,5bd77196beca730001ced094,Spanish,13 or older,"no, only English or Spanish",no,2025-07-22_22h19.37.198,empathy_intonation_perc,2024.2.4,Win32,40,5bd77196beca730001ced094,687ed1b7e638a4cbf2f02089,68804654ff543006e5ff9c6d,,,,,,,,,,,,,,0,,,,,,,,,,,,,,,,,,,,,,,,,,,,,,,,,,,,,,,,,,,,,,,,,,,,,,,,,79,tropaje,,,,,800.1632,803.8108,0,1,3.0975,,0,50,50,78,1,REAL,FAKE,,,,,,,,,,,,,,,,,
,,,,,,,,,5bd77196beca730001ced094,Spanish,13 or older,"no, only English or Spanish",no,2025-07-22_22h19.37.198,empathy_intonation_perc,2024.2.4,Win32,40,5bd77196beca730001ced094,687ed1b7e638a4cbf2f02089,68804654ff543006e5ff9c6d,,,,,,,,,,,,,,1,,,,,,,,,,,,,,,,,,,,,,,,,,,,,,,,,,,,,,,,,,,,,,,,,,,,,,,,,51,candado,,,,,803.8124,806.2887,1,1,1.9398,,0,51,51,50,1,REAL,FAKE,,,,,,,,,,,,,,,,,
,,,,,,,,,5bd77196beca730001ced094,Spanish,13 or older,"no, only English or Spanish",no,2025-07-22_22h19.37.198,empathy_intonation_perc,2024.2.4,Win32,40,5bd77196beca730001ced094,687ed1b7e638a4cbf2f02089,68804654ff543006e5ff9c6d,,,,,,,,,,,,,,1,,,,,,,,,,,,,,,,,,,,,,,,,,,,,,,,,,,,,,,,,,,,,,,,,,,,,,,,,26,secuestro,,,,,806.2916,819.0568,1,1,12.2121,,0,52,52,25,1,REAL,FAKE,,,,,,,,,,,,,,,,,
,,,,,,,,,5bd77196beca730001ced094,Spanish,13 or older,"no, only English or Spanish",no,2025-07-22_22h19.37.198,empathy_intonation_perc,2024.2.4,Win32,40,5bd77196beca730001ced094,687ed1b7e638a4cbf2f02089,68804654ff543006e5ff9c6d,,,,,,,,,,,,,,1,,,,,,,,,,,,,,,,,,,,,,,,,,,,,,,,,,,,,,,,,,,,,,,,,,,,,,,,,15,regar,,,,,819.0585,820.382,0,0,0.7693,,0,53,53,14,1,REAL,FAKE,,,,,,,,,,,,,,,,,
,,,,,,,,,5bd77196beca730001ced094,Spanish,13 or older,"no, only English or Spanish",no,2025-07-22_22h19.37.198,empathy_intonation_perc,2024.2.4,Win32,40,5bd77196beca730001ced094,687ed1b7e638a4cbf2f02089,68804654ff543006e5ff9c6d,,,,,,,,,,,,,,1,,,,,,,,,,,,,,,,,,,,,,,,,,,,,,,,,,,,,,,,,,,,,,,,,,,,,,,,,80,hormiga,,,,,820.3845,823.3561,0,0,2.4224,,0,54,54,79,1,REAL,FAKE,,,,,,,,,,,,,,,,,
,,,,,,,,,5bd77196beca730001ced094,Spanish,13 or older,"no, only English or Spanish",no,2025-07-22_22h19.37.198,empathy_intonation_perc,2024.2.4,Win32,40,5bd77196beca730001ced094,687ed1b7e638a4cbf2f02089,68804654ff543006e5ff9c6d,,,,,,,,,,,,,,0,,,,,,,,,,,,,,,,,,,,,,,,,,,,,,,,,,,,,,,,,,,,,,,,,,,,,,,,,18,arsa,,,,,823.3586,826.0804,1,0,2.1685,,0,55,55,17,1,REAL,FAKE,,,,,,,,,,,,,,,,,
,,,,,,,,,5bd77196beca730001ced094,Spanish,13 or older,"no, only English or Spanish",no,2025-07-22_22h19.37.198,empathy_intonation_perc,2024.2.4,Win32,40,5bd77196beca730001ced094,687ed1b7e638a4cbf2f02089,68804654ff543006e5ff9c6d,,,,,,,,,,,,,,1,,,,,,,,,,,,,,,,,,,,,,,,,,,,,,,,,,,,,,,,,,,,,,,,,,,,,,,,,54,fomentar,,,,,826.0831,828.8298,0,0,2.1926,,0,56,56,53,1,REAL,FAKE,,,,,,,,,,,,,,,,,
,,,,,,,,,5bd77196beca730001ced094,Spanish,13 or older,"no, only English or Spanish",no,2025-07-22_22h19.37.198,empathy_intonation_perc,2024.2.4,Win32,40,5bd77196beca730001ced094,687ed1b7e638a4cbf2f02089,68804654ff543006e5ff9c6d,,,,,,,,,,,,,,1,,,,,,,,,,,,,,,,,,,,,,,,,,,,,,,,,,,,,,,,,,,,,,,,,,,,,,,,,55,nevar,,,,,828.8325,831.6541,1,1,2.272,,0,57,57,54,1,REAL,FAKE,,,,,,,,,,,,,,,,,
,,,,,,,,,5bd77196beca730001ced094,Spanish,13 or older,"no, only English or Spanish",no,2025-07-22_22h19.37.198,empathy_intonation_perc,2024.2.4,Win32,40,5bd77196beca730001ced094,687ed1b7e638a4cbf2f02089,68804654ff543006e5ff9c6d,,,,,,,,,,,,,,1,,,,,,,,,,,,,,,,,,,,,,,,,,,,,,,,,,,,,,,,,,,,,,,,,,,,,,,,,34,aviso,,,,,831.6553,835.7022,1,1,3.5106,,0,58,58,33,1,REAL,FAKE,,,,,,,,,,,,,,,,,
,,,,,,,,,5bd77196beca730001ced094,Spanish,13 or older,"no, only English or Spanish",no,2025-07-22_22h19.37.198,empathy_intonation_perc,2024.2.4,Win32,40,5bd77196beca730001ced094,687ed1b7e638a4cbf2f02089,68804654ff543006e5ff9c6d,,,,,,,,,,,,,,0,,,,,,,,,,,,,,,,,,,,,,,,,,,,,,,,,,,,,,,,,,,,,,,,,,,,,,,,,92,click the 0 key.,,,,,835.7036,840.9273,0,1,4.6851,,0,59,59,91,1,REAL,FAKE,,,,,,,,,,,,,,,,,
,,,,,,,,,5bd77196beca730001ced094,Spanish,13 or older,"no, only English or Spanish",no,2025-07-22_22h19.37.198,empathy_intonation_perc,2024.2.4,Win32,40,5bd77196beca730001ced094,687ed1b7e638a4cbf2f02089,68804654ff543006e5ff9c6d,,,,,,,,,,,,,,1,,,,,,,,,,,,,,,,,,,,,,,,,,,,,,,,,,,,,,,,,,,,,,,,,,,,,,,,,28,merodear,,,,,840.9295,843.1504,0,0,1.6803,,0,60,60,27,1,REAL,FAKE,,,,,,,,,,,,,,,,,
,,,,,,,,,5bd77196beca730001ced094,Spanish,13 or older,"no, only English or Spanish",no,2025-07-22_22h19.37.198,empathy_intonation_perc,2024.2.4,Win32,40,5bd77196beca730001ced094,687ed1b7e638a4cbf2f02089,68804654ff543006e5ff9c6d,,,,,,,,,,,,,,1,,,,,,,,,,,,,,,,,,,,,,,,,,,,,,,,,,,,,,,,,,,,,,,,,,,,,,,,,88,acantilado,,,,,843.1525,845.0747,1,1,1.3738,,0,61,61,87,1,REAL,FAKE,,,,,,,,,,,,,,,,,
,,,,,,,,,5bd77196beca730001ced094,Spanish,13 or older,"no, only English or Spanish",no,2025-07-22_22h19.37.198,empathy_intonation_perc,2024.2.4,Win32,40,5bd77196beca730001ced094,687ed1b7e638a4cbf2f02089,68804654ff543006e5ff9c6d,,,,,,,,,,,,,,1,,,,,,,,,,,,,,,,,,,,,,,,,,,,,,,,,,,,,,,,,,,,,,,,,,,,,,,,,73,hervidor,,,,,845.076,848.424,1,1,2.7922,,0,62,62,72,1,REAL,FAKE,,,,,,,,,,,,,,,,,
,,,,,,,,,5bd77196beca730001ced094,Spanish,13 or older,"no, only English or Spanish",no,2025-07-22_22h19.37.198,empathy_intonation_perc,2024.2.4,Win32,40,5bd77196beca730001ced094,687ed1b7e638a4cbf2f02089,68804654ff543006e5ff9c6d,,,,,,,,,,,,,,0,,,,,,,,,,,,,,,,,,,,,,,,,,,,,,,,,,,,,,,,,,,,,,,,,,,,,,,,,84,escuto,,,,,848.4252,850.1497,1,0,1.1876,,0,63,63,83,1,REAL,FAKE,,,,,,,,,,,,,,,,,
,,,,,,,,,5bd77196beca730001ced094,Spanish,13 or older,"no, only English or Spanish",no,2025-07-22_22h19.37.198,empathy_intonation_perc,2024.2.4,Win32,40,5bd77196beca730001ced094,687ed1b7e638a4cbf2f02089,68804654ff543006e5ff9c6d,,,,,,,,,,,,,,0,,,,,,,,,,,,,,,,,,,,,,,,,,,,,,,,,,,,,,,,,,,,,,,,,,,,,,,,,17,floroso,,,,,850.1509,851.8483,0,1,1.1521,,0,64,64,16,1,REAL,FAKE,,,,,,,,,,,,,,,,,
,,,,,,,,,5bd77196beca730001ced094,Spanish,13 or older,"no, only English or Spanish",no,2025-07-22_22h19.37.198,empathy_intonation_perc,2024.2.4,Win32,40,5bd77196beca730001ced094,687ed1b7e638a4cbf2f02089,68804654ff543006e5ff9c6d,,,,,,,,,,,,,,1,,,,,,,,,,,,,,,,,,,,,,,,,,,,,,,,,,,,,,,,,,,,,,,,,,,,,,,,,64,orgulloso,,,,,851.8494,854.0224,0,0,1.6233,,0,65,65,63,1,REAL,FAKE,,,,,,,,,,,,,,,,,
,,,,,,,,,5bd77196beca730001ced094,Spanish,13 or older,"no, only English or Spanish",no,2025-07-22_22h19.37.198,empathy_intonation_perc,2024.2.4,Win32,40,5bd77196beca730001ced094,687ed1b7e638a4cbf2f02089,68804654ff543006e5ff9c6d,,,,,,,,,,,,,,1,,,,,,,,,,,,,,,,,,,,,,,,,,,,,,,,,,,,,,,,,,,,,,,,,,,,,,,,,3,pulmones,,,,,854.0236,856.2717,1,1,1.7062,,0,66,66,2,1,REAL,FAKE,,,,,,,,,,,,,,,,,
,,,,,,,,,5bd77196beca730001ced094,Spanish,13 or older,"no, only English or Spanish",no,2025-07-22_22h19.37.198,empathy_intonation_perc,2024.2.4,Win32,40,5bd77196beca730001ced094,687ed1b7e638a4cbf2f02089,68804654ff543006e5ff9c6d,,,,,,,,,,,,,,1,,,,,,,,,,,,,,,,,,,,,,,,,,,,,,,,,,,,,,,,,,,,,,,,,,,,,,,,,20,ávido,,,,,856.2728,857.6471,1,1,0.8265,,0,67,67,19,1,REAL,FAKE,,,,,,,,,,,,,,,,,
,,,,,,,,,5bd77196beca730001ced094,Spanish,13 or older,"no, only English or Spanish",no,2025-07-22_22h19.37.198,empathy_intonation_perc,2024.2.4,Win32,40,5bd77196beca730001ced094,687ed1b7e638a4cbf2f02089,68804654ff543006e5ff9c6d,,,,,,,,,,,,,,1,,,,,,,,,,,,,,,,,,,,,,,,,,,,,,,,,,,,,,,,,,,,,,,,,,,,,,,,,6,tergiversar,,,,,857.6495,861.4704,0,0,3.2662,,0,68,68,5,1,REAL,FAKE,,,,,,,,,,,,,,,,,
,,,,,,,,,5bd77196beca730001ced094,Spanish,13 or older,"no, only English or Spanish",no,2025-07-22_22h19.37.198,empathy_intonation_perc,2024.2.4,Win32,40,5bd77196beca730001ced094,687ed1b7e638a4cbf2f02089,68804654ff543006e5ff9c6d,,,,,,,,,,,,,,1,,,,,,,,,,,,,,,,,,,,,,,,,,,,,,,,,,,,,,,,,,,,,,,,,,,,,,,,,91,click the 1 key.,,,,,861.472,864.8445,1,1,2.8112,,0,69,69,90,1,REAL,FAKE,,,,,,,,,,,,,,,,,
,,,,,,,,,5bd77196beca730001ced094,Spanish,13 or older,"no, only English or Spanish",no,2025-07-22_22h19.37.198,empathy_intonation_perc,2024.2.4,Win32,40,5bd77196beca730001ced094,687ed1b7e638a4cbf2f02089,68804654ff543006e5ff9c6d,,,,,,,,,,,,,,0,,,,,,,,,,,,,,,,,,,,,,,,,,,,,,,,,,,,,,,,,,,,,,,,,,,,,,,,,27,acutación,,,,,864.8459,868.9935,1,0,3.5976,,0,70,70,26,1,REAL,FAKE,,,,,,,,,,,,,,,,,
,,,,,,,,,5bd77196beca730001ced094,Spanish,13 or older,"no, only English or Spanish",no,2025-07-22_22h19.37.198,empathy_intonation_perc,2024.2.4,Win32,40,5bd77196beca730001ced094,687ed1b7e638a4cbf2f02089,68804654ff543006e5ff9c6d,,,,,,,,,,,,,,0,,,,,,,,,,,,,,,,,,,,,,,,,,,,,,,,,,,,,,,,,,,,,,,,,,,,,,,,,23,lampera,,,,,868.9946,870.7186,0,1,1.1923,,0,71,71,22,1,REAL,FAKE,,,,,,,,,,,,,,,,,
,,,,,,,,,5bd77196beca730001ced094,Spanish,13 or older,"no, only English or Spanish",no,2025-07-22_22h19.37.198,empathy_intonation_perc,2024.2.4,Win32,40,5bd77196beca730001ced094,687ed1b7e638a4cbf2f02089,68804654ff543006e5ff9c6d,,,,,,,,,,,,,,1,,,,,,,,,,,,,,,,,,,,,,,,,,,,,,,,,,,,,,,,,,,,,,,,,,,,,,,,,49,ganar,,,,,870.7212,872.4682,0,0,1.1947,,0,72,72,48,1,REAL,FAKE,,,,,,,,,,,,,,,,,
,,,,,,,,,5bd77196beca730001ced094,Spanish,13 or older,"no, only English or Spanish",no,2025-07-22_22h19.37.198,empathy_intonation_perc,2024.2.4,Win32,40,5bd77196beca730001ced094,687ed1b7e638a4cbf2f02089,68804654ff543006e5ff9c6d,,,,,,,,,,,,,,0,,,,,,,,,,,,,,,,,,,,,,,,,,,,,,,,,,,,,,,,,,,,,,,,,,,,,,,,,21,capillo,,,,,872.4711,876.6675,1,0,3.6458,,0,73,73,20,1,REAL,FAKE,,,,,,,,,,,,,,,,,
,,,,,,,,,5bd77196beca730001ced094,Spanish,13 or older,"no, only English or Spanish",no,2025-07-22_22h19.37.198,empathy_intonation_perc,2024.2.4,Win32,40,5bd77196beca730001ced094,687ed1b7e638a4cbf2f02089,68804654ff543006e5ff9c6d,,,,,,,,,,,,,,1,,,,,,,,,,,,,,,,,,,,,,,,,,,,,,,,,,,,,,,,,,,,,,,,,,,,,,,,,60,matar,,,,,876.6687,878.4669,0,0,1.2573,,0,74,74,59,1,REAL,FAKE,,,,,,,,,,,,,,,,,
,,,,,,,,,5bd77196beca730001ced094,Spanish,13 or older,"no, only English or Spanish",no,2025-07-22_22h19.37.198,empathy_intonation_perc,2024.2.4,Win32,40,5bd77196beca730001ced094,687ed1b7e638a4cbf2f02089,68804654ff543006e5ff9c6d,,,,,,,,,,,,,,1,,,,,,,,,,,,,,,,,,,,,,,,,,,,,,,,,,,,,,,,,,,,,,,,,,,,,,,,,46,martillo,,,,,878.4699,881.0908,0,0,2.0693,,0,75,75,45,1,REAL,FAKE,,,,,,,,,,,,,,,,,
,,,,,,,,,5bd77196beca730001ced094,Spanish,13 or older,"no, only English or Spanish",no,2025-07-22_22h19.37.198,empathy_intonation_perc,2024.2.4,Win32,40,5bd77196beca730001ced094,687ed1b7e638a4cbf2f02089,68804654ff543006e5ff9c6d,,,,,,,,,,,,,,1,,,,,,,,,,,,,,,,,,,,,,,,,,,,,,,,,,,,,,,,,,,,,,,,,,,,,,,,,48,ladrón,,,,,881.0938,882.4164,1,1,0.7735,,0,76,76,47,1,REAL,FAKE,,,,,,,,,,,,,,,,,
,,,,,,,,,5bd77196beca730001ced094,Spanish,13 or older,"no, only English or Spanish",no,2025-07-22_22h19.37.198,empathy_intonation_perc,2024.2.4,Win32,40,5bd77196beca730001ced094,687ed1b7e638a4cbf2f02089,68804654ff543006e5ff9c6d,,,,,,,,,,,,,,1,,,,,,,,,,,,,,,,,,,,,,,,,,,,,,,,,,,,,,,,,,,,,,,,,,,,,,,,,52,camisa,,,,,882.4187,884.3401,1,1,1.3681,,0,77,77,51,1,REAL,FAKE,,,,,,,,,,,,,,,,,
,,,,,,,,,5bd77196beca730001ced094,Spanish,13 or older,"no, only English or Spanish",no,2025-07-22_22h19.37.198,empathy_intonation_perc,2024.2.4,Win32,40,5bd77196beca730001ced094,687ed1b7e638a4cbf2f02089,68804654ff543006e5ff9c6d,,,,,,,,,,,,,,0,,,,,,,,,,,,,,,,,,,,,,,,,,,,,,,,,,,,,,,,,,,,,,,,,,,,,,,,,35,rompido,,,,,884.343,887.615,0,1,2.7269,,0,78,78,34,1,REAL,FAKE,,,,,,,,,,,,,,,,,
,,,,,,,,,5bd77196beca730001ced094,Spanish,13 or older,"no, only English or Spanish",no,2025-07-22_22h19.37.198,empathy_intonation_perc,2024.2.4,Win32,40,5bd77196beca730001ced094,687ed1b7e638a4cbf2f02089,68804654ff543006e5ff9c6d,,,,,,,,,,,,,,1,,,,,,,,,,,,,,,,,,,,,,,,,,,,,,,,,,,,,,,,,,,,,,,,,,,,,,,,,45,jilguero,,,,,887.6175,889.5382,1,1,1.3664,,0,79,79,44,1,REAL,FAKE,,,,,,,,,,,,,,,,,
,,,,,,,,,5bd77196beca730001ced094,Spanish,13 or older,"no, only English or Spanish",no,2025-07-22_22h19.37.198,empathy_intonation_perc,2024.2.4,Win32,40,5bd77196beca730001ced094,687ed1b7e638a4cbf2f02089,68804654ff543006e5ff9c6d,,,,,,,,,,,,,,1,,,,,,,,,,,,,,,,,,,,,,,,,,,,,,,,,,,,,,,,,,,,,,,,,,,,,,,,,12,asesinato,,,,,889.5397,893.1121,1,1,3.02,,0,80,80,11,1,REAL,FAKE,,,,,,,,,,,,,,,,,
,,,,,,,,,5bd77196beca730001ced094,Spanish,13 or older,"no, only English or Spanish",no,2025-07-22_22h19.37.198,empathy_intonation_perc,2024.2.4,Win32,40,5bd77196beca730001ced094,687ed1b7e638a4cbf2f02089,68804654ff543006e5ff9c6d,,,,,,,,,,,,,,1,,,,,,,,,,,,,,,,,,,,,,,,,,,,,,,,,,,,,,,,,,,,,,,,,,,,,,,,,56,musgo,,,,,893.1135,894.5622,0,0,0.8998,,0,81,81,55,1,REAL,FAKE,,,,,,,,,,,,,,,,,
,,,,,,,,,5bd77196beca730001ced094,Spanish,13 or older,"no, only English or Spanish",no,2025-07-22_22h19.37.198,empathy_intonation_perc,2024.2.4,Win32,40,5bd77196beca730001ced094,687ed1b7e638a4cbf2f02089,68804654ff543006e5ff9c6d,,,,,,,,,,,,,,1,,,,,,,,,,,,,,,,,,,,,,,,,,,,,,,,,,,,,,,,,,,,,,,,,,,,,,,,,85,laúd,,,,,894.5657,899.3864,0,0,4.2796,,0,82,82,84,1,REAL,FAKE,,,,,,,,,,,,,,,,,
,,,,,,,,,5bd77196beca730001ced094,Spanish,13 or older,"no, only English or Spanish",no,2025-07-22_22h19.37.198,empathy_intonation_perc,2024.2.4,Win32,40,5bd77196beca730001ced094,687ed1b7e638a4cbf2f02089,68804654ff543006e5ff9c6d,,,,,,,,,,,,,,1,,,,,,,,,,,,,,,,,,,,,,,,,,,,,,,,,,,,,,,,,,,,,,,,,,,,,,,,,62,flaco,,,,,899.3875,901.1605,0,0,1.218,,0,83,83,61,1,REAL,FAKE,,,,,,,,,,,,,,,,,
,,,,,,,,,5bd77196beca730001ced094,Spanish,13 or older,"no, only English or Spanish",no,2025-07-22_22h19.37.198,empathy_intonation_perc,2024.2.4,Win32,40,5bd77196beca730001ced094,687ed1b7e638a4cbf2f02089,68804654ff543006e5ff9c6d,,,,,,,,,,,,,,0,,,,,,,,,,,,,,,,,,,,,,,,,,,,,,,,,,,,,,,,,,,,,,,,,,,,,,,,,74,cintro,,,,,901.1636,902.6844,1,0,0.9736,,0,84,84,73,1,REAL,FAKE,,,,,,,,,,,,,,,,,
,,,,,,,,,5bd77196beca730001ced094,Spanish,13 or older,"no, only English or Spanish",no,2025-07-22_22h19.37.198,empathy_intonation_perc,2024.2.4,Win32,40,5bd77196beca730001ced094,687ed1b7e638a4cbf2f02089,68804654ff543006e5ff9c6d,,,,,,,,,,,,,,0,,,,,,,,,,,,,,,,,,,,,,,,,,,,,,,,,,,,,,,,,,,,,,,,,,,,,,,,,10,antar,,,,,902.686,905.0339,0,1,1.8,,0,85,85,9,1,REAL,FAKE,,,,,,,,,,,,,,,,,
,,,,,,,,,5bd77196beca730001ced094,Spanish,13 or older,"no, only English or Spanish",no,2025-07-22_22h19.37.198,empathy_intonation_perc,2024.2.4,Win32,40,5bd77196beca730001ced094,687ed1b7e638a4cbf2f02089,68804654ff543006e5ff9c6d,,,,,,,,,,,,,,1,,,,,,,,,,,,,,,,,,,,,,,,,,,,,,,,,,,,,,,,,,,,,,,,,,,,,,,,,78,frondoso,,,,,905.035,912.3076,0,0,6.7219,,0,86,86,77,1,REAL,FAKE,,,,,,,,,,,,,,,,,
,,,,,,,,,5bd77196beca730001ced094,Spanish,13 or older,"no, only English or Spanish",no,2025-07-22_22h19.37.198,empathy_intonation_perc,2024.2.4,Win32,40,5bd77196beca730001ced094,687ed1b7e638a4cbf2f02089,68804654ff543006e5ff9c6d,,,,,,,,,,,,,,1,,,,,,,,,,,,,,,,,,,,,,,,,,,,,,,,,,,,,,,,,,,,,,,,,,,,,,,,,77,tiburón,,,,,912.31,913.982,1,1,1.1168,,0,87,87,76,1,REAL,FAKE,,,,,,,,,,,,,,,,,
,,,,,,,,,5bd77196beca730001ced094,Spanish,13 or older,"no, only English or Spanish",no,2025-07-22_22h19.37.198,empathy_intonation_perc,2024.2.4,Win32,40,5bd77196beca730001ced094,687ed1b7e638a4cbf2f02089,68804654ff543006e5ff9c6d,,,,,,,,,,,,,,1,,,,,,,,,,,,,,,,,,,,,,,,,,,,,,,,,,,,,,,,,,,,,,,,,,,,,,,,,37,granuja,,,,,913.9844,916.3317,1,1,1.7943,,0,88,88,36,1,REAL,FAKE,,,,,,,,,,,,,,,,,
,,,,,,,,,5bd77196beca730001ced094,Spanish,13 or older,"no, only English or Spanish",no,2025-07-22_22h19.37.198,empathy_intonation_perc,2024.2.4,Win32,40,5bd77196beca730001ced094,687ed1b7e638a4cbf2f02089,68804654ff543006e5ff9c6d,,,,,,,,,,,,,,0,,,,,,,,,,,,,,,,,,,,,,,,,,,,,,,,,,,,,,,,,,,,,,,,,,,,,,,,,50,flamida,,,,,916.334,917.9564,0,1,1.0866,,0,89,89,49,1,REAL,FAKE,,,,,,,,,,,,,,,,,
,,,,,,,,,5bd77196beca730001ced094,Spanish,13 or older,"no, only English or Spanish",no,2025-07-22_22h19.37.198,empathy_intonation_perc,2024.2.4,Win32,40,5bd77196beca730001ced094,687ed1b7e638a4cbf2f02089,68804654ff543006e5ff9c6d,,,,,,,,,,,,,,1,,,,,,,,,,,,,,,,,,,,,,,,,,,,,,,,,,,,,,,,,,,,,,,,,,,,,,,,,31,pandilla,,,,,917.9591,919.6814,1,1,1.179,,0,90,90,30,1,REAL,FAKE,,,,,,,,,,,,,,,,,
,,,,,,,,,5bd77196beca730001ced094,Spanish,13 or older,"no, only English or Spanish",no,2025-07-22_22h19.37.198,empathy_intonation_perc,2024.2.4,Win32,40,5bd77196beca730001ced094,687ed1b7e638a4cbf2f02089,68804654ff543006e5ff9c6d,,,,,,,,,,,,,,0,,,,,,,,,,,,,,,,,,,,,,,,,,,,,,,,,,,,,,,,,,,,,,,,,,,,,,,,,16,abracer,,,,,919.6825,921.2054,0,1,0.9742,,0,91,91,15,1,REAL,FAKE,,,,,,,,,,,,,,,,,
,,,,,,,,,5bd77196beca730001ced094,Spanish,13 or older,"no, only English or Spanish",no,2025-07-22_22h19.37.198,empathy_intonation_perc,2024.2.4,Win32,40,5bd77196beca730001ced094,687ed1b7e638a4cbf2f02089,68804654ff543006e5ff9c6d,,,,,,,,,,,,,,,,,,,,,,,,,,,,,,,,,,,,,,,,,,,,,,,,,,,,,,,,,,,,,,,,,,,,,,,,,,,,,,,,,,,,,,,,,,921.2065,940.3,,,,,,,,,,,,,,,
,,,,,,,,,5bd77196beca730001ced094,Spanish,13 or older,"no, only English or Spanish",no,2025-07-22_22h19.37.198,empathy_intonation_perc,2024.2.4,Win32,40,5bd77196beca730001ced094,687ed1b7e638a4cbf2f02089,68804654ff543006e5ff9c6d,,,,,,,,,,,,,1,,,,,,,,,,,,,,,,,,,,,,,,,,,,,,,,,,,,,,,,,,,,,,,,,,,,,,,,,,,,,,,,,,,,,,,,,,,,,,,940.3296,950.4217,strongly agree,0,0,0,0,1,I can easily tell if someone else wants to enter a conversation.,1,0,1,0,,
,,,,,,,,,5bd77196beca730001ced094,Spanish,13 or older,"no, only English or Spanish",no,2025-07-22_22h19.37.198,empathy_intonation_perc,2024.2.4,Win32,40,5bd77196beca730001ced094,687ed1b7e638a4cbf2f02089,68804654ff543006e5ff9c6d,,,,,,,,,,,,,2,,,,,,,,,,,,,,,,,,,,,,,,,,,,,,,,,,,,,,,,,,,,,,,,,,,,,,,,,,,,,,,,,,,,,,,,,,,,,,,950.4248,954.7457,strongly agree,0,1,1,1,1,I prefer animals to humans.,0,1,0,0,,
,,,,,,,,,5bd77196beca730001ced094,Spanish,13 or older,"no, only English or Spanish",no,2025-07-22_22h19.37.198,empathy_intonation_perc,2024.2.4,Win32,40,5bd77196beca730001ced094,687ed1b7e638a4cbf2f02089,68804654ff543006e5ff9c6d,,,,,,,,,,,,,3,,,,,,,,,,,,,,,,,,,,,,,,,,,,,,,,,,,,,,,,,,,,,,,,,,,,,,,,,,,,,,,,,,,,,,,,,,,,,,,954.7483,960.9688,strongly disagree,0,2,2,2,1,I try to keep up with the current trends and fashions.,0,1,0,0,,
,,,,,,,,,5bd77196beca730001ced094,Spanish,13 or older,"no, only English or Spanish",no,2025-07-22_22h19.37.198,empathy_intonation_perc,2024.2.4,Win32,40,5bd77196beca730001ced094,687ed1b7e638a4cbf2f02089,68804654ff543006e5ff9c6d,,,,,,,,,,,,,4,,,,,,,,,,,,,,,,,,,,,,,,,,,,,,,,,,,,,,,,,,,,,,,,,,,,,,,,,,,,,,,,,,,,,,,,,,,,,,,960.972,970.6416,slightly agree,0,3,3,3,1,"I find it difficult to explain to others things that I understand easily,   when they don't understand it first time.",1,0,0,1,,
,,,,,,,,,5bd77196beca730001ced094,Spanish,13 or older,"no, only English or Spanish",no,2025-07-22_22h19.37.198,empathy_intonation_perc,2024.2.4,Win32,40,5bd77196beca730001ced094,687ed1b7e638a4cbf2f02089,68804654ff543006e5ff9c6d,,,,,,,,,,,,,5,,,,,,,,,,,,,,,,,,,,,,,,,,,,,,,,,,,,,,,,,,,,,,,,,,,,,,,,,,,,,,,,,,,,,,,,,,,,,,,970.6435,974.1404,slightly disagree,0,4,4,4,1,I dream most nights.,0,1,0,0,,
,,,,,,,,,5bd77196beca730001ced094,Spanish,13 or older,"no, only English or Spanish",no,2025-07-22_22h19.37.198,empathy_intonation_perc,2024.2.4,Win32,40,5bd77196beca730001ced094,687ed1b7e638a4cbf2f02089,68804654ff543006e5ff9c6d,,,,,,,,,,,,,6,,,,,,,,,,,,,,,,,,,,,,,,,,,,,,,,,,,,,,,,,,,,,,,,,,,,,,,,,,,,,,,,,,,,,,,,,,,,,,,974.1438,978.6394,strongly agree,0,5,5,5,1,I really enjoy caring for other people.,1,0,1,0,,
,,,,,,,,,5bd77196beca730001ced094,Spanish,13 or older,"no, only English or Spanish",no,2025-07-22_22h19.37.198,empathy_intonation_perc,2024.2.4,Win32,40,5bd77196beca730001ced094,687ed1b7e638a4cbf2f02089,68804654ff543006e5ff9c6d,,,,,,,,,,,,,7,,,,,,,,,,,,,,,,,,,,,,,,,,,,,,,,,,,,,,,,,,,,,,,,,,,,,,,,,,,,,,,,,,,,,,,,,,,,,,,978.6428,984.6626,slightly agree,0,6,6,6,1,I try to solve my own problems rather than discussing them with others.,0,1,0,0,,
,,,,,,,,,5bd77196beca730001ced094,Spanish,13 or older,"no, only English or Spanish",no,2025-07-22_22h19.37.198,empathy_intonation_perc,2024.2.4,Win32,40,5bd77196beca730001ced094,687ed1b7e638a4cbf2f02089,68804654ff543006e5ff9c6d,,,,,,,,,,,,,8,,,,,,,,,,,,,,,,,,,,,,,,,,,,,,,,,,,,,,,,,,,,,,,,,,,,,,,,,,,,,,,,,,,,,,,,,,,,,,,984.6652,990.3611,strongly disagree,0,7,7,7,1,I find it hard to know what to do in a social situation.,1,0,0,1,,
,,,,,,,,,5bd77196beca730001ced094,Spanish,13 or older,"no, only English or Spanish",no,2025-07-22_22h19.37.198,empathy_intonation_perc,2024.2.4,Win32,40,5bd77196beca730001ced094,687ed1b7e638a4cbf2f02089,68804654ff543006e5ff9c6d,,,,,,,,,,,,,9,,,,,,,,,,,,,,,,,,,,,,,,,,,,,,,,,,,,,,,,,,,,,,,,,,,,,,,,,,,,,,,,,,,,,,,,,,,,,,,990.3633,994.4348,strongly disagree,0,8,8,8,1,I am at my best first thing in the morning.,0,1,0,0,,
,,,,,,,,,5bd77196beca730001ced094,Spanish,13 or older,"no, only English or Spanish",no,2025-07-22_22h19.37.198,empathy_intonation_perc,2024.2.4,Win32,40,5bd77196beca730001ced094,687ed1b7e638a4cbf2f02089,68804654ff543006e5ff9c6d,,,,,,,,,,,,,10,,,,,,,,,,,,,,,,,,,,,,,,,,,,,,,,,,,,,,,,,,,,,,,,,,,,,,,,,,,,,,,,,,,,,,,,,,,,,,,994.4377,1005.8822,strongly disagree,0,9,9,9,1,People often tell me that I went too far in driving my point home in a discussion.,1,0,0,1,,
,,,,,,,,,5bd77196beca730001ced094,Spanish,13 or older,"no, only English or Spanish",no,2025-07-22_22h19.37.198,empathy_intonation_perc,2024.2.4,Win32,40,5bd77196beca730001ced094,687ed1b7e638a4cbf2f02089,68804654ff543006e5ff9c6d,,,,,,,,,,,,,11,,,,,,,,,,,,,,,,,,,,,,,,,,,,,,,,,,,,,,,,,,,,,,,,,,,,,,,,,,,,,,,,,,,,,,,,,,,,,,,1005.8842,1015.6542,strongly disagree,0,10,10,10,1,It doesn't bother me too much if I am late meeting a friend.,1,0,0,1,,
,,,,,,,,,5bd77196beca730001ced094,Spanish,13 or older,"no, only English or Spanish",no,2025-07-22_22h19.37.198,empathy_intonation_perc,2024.2.4,Win32,40,5bd77196beca730001ced094,687ed1b7e638a4cbf2f02089,68804654ff543006e5ff9c6d,,,,,,,,,,,,,12,,,,,,,,,,,,,,,,,,,,,,,,,,,,,,,,,,,,,,,,,,,,,,,,,,,,,,,,,,,,,,,,,,,,,,,,,,,,,,,1015.6568,1034.301,strongly disagree,0,11,11,11,1,"Friendships and relationships are just too difficult, so I tend not to 
  bother with them.",1,0,0,1,,
,,,,,,,,,5bd77196beca730001ced094,Spanish,13 or older,"no, only English or Spanish",no,2025-07-22_22h19.37.198,empathy_intonation_perc,2024.2.4,Win32,40,5bd77196beca730001ced094,687ed1b7e638a4cbf2f02089,68804654ff543006e5ff9c6d,,,,,,,,,,,,,13,,,,,,,,,,,,,,,,,,,,,,,,,,,,,,,,,,,,,,,,,,,,,,,,,,,,,,,,,,,,,,,,,,,,,,,,,,,,,,,1034.3034,1040.2726,slightly agree,0,12,12,12,1,"I would never break a law, no matter how minor.",0,1,0,0,,
,,,,,,,,,5bd77196beca730001ced094,Spanish,13 or older,"no, only English or Spanish",no,2025-07-22_22h19.37.198,empathy_intonation_perc,2024.2.4,Win32,40,5bd77196beca730001ced094,687ed1b7e638a4cbf2f02089,68804654ff543006e5ff9c6d,,,,,,,,,,,,,14,,,,,,,,,,,,,,,,,,,,,,,,,,,,,,,,,,,,,,,,,,,,,,,,,,,,,,,,,,,,,,,,,,,,,,,,,,,,,,,1040.2763,1061.6421,strongly disagree,0,13,13,13,1,I often find it difficult to judge if something is rude or polite.,1,0,0,1,,
