instructions_exposure.started,instructions_exposure.stopped,instructions_exposure_loop.thisRepN,instructions_exposure_loop.thisTrialN,instructions_exposure_loop.thisN,instructions_exposure_loop.thisIndex,instructions_exposure_loop.ran,instructions_text,continue_text,participant_id,"What variety of Spanish are you most familiar with? (e.g., Peruvian, Spanish, Mexican)",At what age did you begin learning Spanish?,Are you proficient in any languages other than English/Spanish?,"Are you familiar with Caribbean (e.g., Caribbean, Puerto Rican) or Galician Spanish?",date,expName,psychopyVersion,OS,frameRate,id,study_id,session,trial_exposure.started,trial_exposure.stopped,key_resp_exposure.keys,key_resp_exposure.corr,key_resp_exposure.rt,key_resp_exposure.duration,key_resp.keys,exposure_loop.thisRepN,exposure_loop.thisTrialN,exposure_loop.thisN,exposure_loop.thisIndex,exposure_loop.ran,item_num,correct_response,question,path,duration,instructions_2afc.started,instructions_2afc.stopped,instructions_2afc_loop.thisRepN,instructions_2afc_loop.thisTrialN,instructions_2afc_loop.thisN,instructions_2afc_loop.thisIndex,instructions_2afc_loop.ran,practice_2afc.started,practice_2afc.stopped,key_resp_2afc_practice.keys,key_resp_2afc_practice.corr,key_resp_2afc_practice.rt,key_resp_2afc_practice.duration,trials_2afc_practice_loop.thisRepN,trials_2afc_practice_loop.thisTrialN,trials_2afc_practice_loop.thisN,trials_2afc_practice_loop.thisIndex,trials_2afc_practice_loop.ran,check_2afc.started,check_2afc.stopped,trial_2afc.started,trial_2afc.stopped,key_resp_2afc_trial.keys,key_resp_2afc_trial.corr,key_resp_2afc_trial.rt,key_resp_2afc_trial.duration,trials_2afc_loop.thisRepN,trials_2afc_loop.thisTrialN,trials_2afc_loop.thisN,trials_2afc_loop.thisIndex,trials_2afc_loop.ran,target,variety,instructions_lextale.started,instructions_lextale.stopped,instructions_lextale_loop.thisRepN,instructions_lextale_loop.thisTrialN,instructions_lextale_loop.thisN,instructions_lextale_loop.thisIndex,instructions_lextale_loop.ran,practice_lextale.started,practice_lextale.stopped,key_resp_lextale_practice.keys,key_resp_lextale_practice.corr,key_resp_lextale_practice.rt,key_resp_lextale_practice.duration,practice_feedback_lextale.started,practice_feedback_lextale.stopped,trials_lextale_practice_loop.thisRepN,trials_lextale_practice_loop.thisTrialN,trials_lextale_practice_loop.thisN,trials_lextale_practice_loop.thisIndex,trials_lextale_practice_loop.ran,stim,word,prac_button_real,prac_button_false,check_lextale.started,check_lextale.stopped,trial_lextale.started,trial_lextale.stopped,key_resp_lextale_trial.keys,key_resp_lextale_trial.corr,key_resp_lextale_trial.rt,key_resp_lextale_trial.duration,trials_lextale_loop.thisRepN,trials_lextale_loop.thisTrialN,trials_lextale_loop.thisN,trials_lextale_loop.thisIndex,trials_lextale_loop.ran,button_real,button_false,instructions_eq.started,instructions_eq.stopped,trial_eq.started,trial_eq.stopped,slider_eq_trial.response,trials_eq_loop.thisRepN,trials_eq_loop.thisTrialN,trials_eq_loop.thisN,trials_eq_loop.thisIndex,trials_eq_loop.ran,item,is_test_item,is_distractor,is_agree_score,is_disagree_score,end_exp.started,end_exp.stopped
0.2517,3.375,0,0,0,0,1,"In the following task, you are going to hear a series of conversations.", (press the space bar to continue),5c2fcd716ea6880001dc8e3d,Spanish,13 or older,"no, only English or Spanish",no,2025-07-23_08h30.34.842,empathy_intonation_perc,2024.2.4,Linux x86_64,60.24096386,5c2fcd716ea6880001dc8e3d,687ed1b7e638a4cbf2f02089,6880d5936aad0bdb61b722a4,,,,,,,,,,,,,,,,,,,,,,,,,,,,,,,,,,,,,,,,,,,,,,,,,,,,,,,,,,,,,,,,,,,,,,,,,,,,,,,,,,,,,,,,,,,,,,,,,,,,,,,,,,
3.3769,24.5018,0,1,1,1,1,It is okay if you don't not 100% understand them!, (press the space bar to continue),5c2fcd716ea6880001dc8e3d,Spanish,13 or older,"no, only English or Spanish",no,2025-07-23_08h30.34.842,empathy_intonation_perc,2024.2.4,Linux x86_64,60.24096386,5c2fcd716ea6880001dc8e3d,687ed1b7e638a4cbf2f02089,6880d5936aad0bdb61b722a4,,,,,,,,,,,,,,,,,,,,,,,,,,,,,,,,,,,,,,,,,,,,,,,,,,,,,,,,,,,,,,,,,,,,,,,,,,,,,,,,,,,,,,,,,,,,,,,,,,,,,,,,,,
24.5055,30.6649,0,2,2,2,1,"After, you will read a sentence about the conversation and decide if it's true or false.", (press the space bar to continue),5c2fcd716ea6880001dc8e3d,Spanish,13 or older,"no, only English or Spanish",no,2025-07-23_08h30.34.842,empathy_intonation_perc,2024.2.4,Linux x86_64,60.24096386,5c2fcd716ea6880001dc8e3d,687ed1b7e638a4cbf2f02089,6880d5936aad0bdb61b722a4,,,,,,,,,,,,,,,,,,,,,,,,,,,,,,,,,,,,,,,,,,,,,,,,,,,,,,,,,,,,,,,,,,,,,,,,,,,,,,,,,,,,,,,,,,,,,,,,,,,,,,,,,,
30.6699,38.1049,0,3,3,3,1,"If it's true, press '1' (True) and if it's false press '0' (False).", (press the space bar to continue),5c2fcd716ea6880001dc8e3d,Spanish,13 or older,"no, only English or Spanish",no,2025-07-23_08h30.34.842,empathy_intonation_perc,2024.2.4,Linux x86_64,60.24096386,5c2fcd716ea6880001dc8e3d,687ed1b7e638a4cbf2f02089,6880d5936aad0bdb61b722a4,,,,,,,,,,,,,,,,,,,,,,,,,,,,,,,,,,,,,,,,,,,,,,,,,,,,,,,,,,,,,,,,,,,,,,,,,,,,,,,,,,,,,,,,,,,,,,,,,,,,,,,,,,
,,,,,,,,,5c2fcd716ea6880001dc8e3d,Spanish,13 or older,"no, only English or Spanish",no,2025-07-23_08h30.34.842,empathy_intonation_perc,2024.2.4,Linux x86_64,60.24096386,5c2fcd716ea6880001dc8e3d,687ed1b7e638a4cbf2f02089,6880d5936aad0bdb61b722a4,38.1273,75.8857,0,1,1.6991,,,0,0,0,2,1,3,0,The mom already has rice.,./stim/exposure_wavs/pr_stimuli_convo.wav,36,,,,,,,,,,,,,,,,,,,,,,,,,,,,,,,,,,,,,,,,,,,,,,,,,,,,,,,,,,,,,,,,,,,,,,,,,,,,,,,,,,,,,,,,,
,,,,,,,,,5c2fcd716ea6880001dc8e3d,Spanish,13 or older,"no, only English or Spanish",no,2025-07-23_08h30.34.842,empathy_intonation_perc,2024.2.4,Linux x86_64,60.24096386,5c2fcd716ea6880001dc8e3d,687ed1b7e638a4cbf2f02089,6880d5936aad0bdb61b722a4,75.8905,124.8699,1,1,1.9519,,,0,1,1,0,1,1,1,The son asked the mom if Aunt Marina is okay.,./stim/exposure_wavs/ga_stimuli_convo.wav,47,,,,,,,,,,,,,,,,,,,,,,,,,,,,,,,,,,,,,,,,,,,,,,,,,,,,,,,,,,,,,,,,,,,,,,,,,,,,,,,,,,,,,,,,,
,,,,,,,,,5c2fcd716ea6880001dc8e3d,Spanish,13 or older,"no, only English or Spanish",no,2025-07-23_08h30.34.842,empathy_intonation_perc,2024.2.4,Linux x86_64,60.24096386,5c2fcd716ea6880001dc8e3d,687ed1b7e638a4cbf2f02089,6880d5936aad0bdb61b722a4,124.8749,188.7407,0,0,3.8387,,,0,2,2,1,1,2,1,The mom asked the daughter if she already went to the supermarket.,./stim/exposure_wavs/dr_stimuli_convo.wav,60,,,,,,,,,,,,,,,,,,,,,,,,,,,,,,,,,,,,,,,,,,,,,,,,,,,,,,,,,,,,,,,,,,,,,,,,,,,,,,,,,,,,,,,,,
,,,,,,,"In the following task you are going to hear a series of utterances. 

  You will decide if the utterances sound like questions or not using your keyboard.", (press the spacebar to continue),5c2fcd716ea6880001dc8e3d,Spanish,13 or older,"no, only English or Spanish",no,2025-07-23_08h30.34.842,empathy_intonation_perc,2024.2.4,Linux x86_64,60.24096386,5c2fcd716ea6880001dc8e3d,687ed1b7e638a4cbf2f02089,6880d5936aad0bdb61b722a4,,,,,,,,,,,,,,,,,,188.7531,194.3864,0,0,0,0,1,,,,,,,,,,,,,,,,,,,,,,,,,,,,,,,,,,,,,,,,,,,,,,,,,,,,,,,,,,,,,,,,,,,,,,,,,,,,,,,,,,
,,,,,,,"If you believe the utterance is a question, type '1' (for 'yes') and if you do not 
  believe it is a question type '0' (for 'no').

  Let's practice a bit...", (press the spacebar to continue),5c2fcd716ea6880001dc8e3d,Spanish,13 or older,"no, only English or Spanish",no,2025-07-23_08h30.34.842,empathy_intonation_perc,2024.2.4,Linux x86_64,60.24096386,5c2fcd716ea6880001dc8e3d,687ed1b7e638a4cbf2f02089,6880d5936aad0bdb61b722a4,,,,,,,,,,,,,,,,,,194.3916,202.5114,0,1,1,1,1,,,,,,,,,,,,,,,,,,,,,,,,,,,,,,,,,,,,,,,,,,,,,,,,,,,,,,,,,,,,,,,,,,,,,,,,,,,,,,,,,,
,,,,,,,,,5c2fcd716ea6880001dc8e3d,Spanish,13 or older,"no, only English or Spanish",no,2025-07-23_08h30.34.842,empathy_intonation_perc,2024.2.4,Linux x86_64,60.24096386,5c2fcd716ea6880001dc8e3d,687ed1b7e638a4cbf2f02089,6880d5936aad0bdb61b722a4,,,,,,,,,,,,,,0,,./stim/wavs/peruvian_statement_filler_El-nino-habla-con-su-madre.wav,,,,,,,,,202.5376,205.8079,0,1,2.7468,,0,0,0,6,1,,,,,,,,,,,,,,,,,,,,,,,,,,,,,,,,,,,,,,,,,,,,,,,,,,,,,,,,,,,,,,,,,,,,,,,
,,,,,,,,,5c2fcd716ea6880001dc8e3d,Spanish,13 or older,"no, only English or Spanish",no,2025-07-23_08h30.34.842,empathy_intonation_perc,2024.2.4,Linux x86_64,60.24096386,5c2fcd716ea6880001dc8e3d,687ed1b7e638a4cbf2f02089,6880d5936aad0bdb61b722a4,,,,,,,,,,,,,,1,,./stim/wavs/mexican_question_filler_Felipe-no-tiene-contrasena.wav,,,,,,,,,205.8097,208.8548,1,1,2.513,,0,1,1,3,1,,,,,,,,,,,,,,,,,,,,,,,,,,,,,,,,,,,,,,,,,,,,,,,,,,,,,,,,,,,,,,,,,,,,,,,
,,,,,,,,,5c2fcd716ea6880001dc8e3d,Spanish,13 or older,"no, only English or Spanish",no,2025-07-23_08h30.34.842,empathy_intonation_perc,2024.2.4,Linux x86_64,60.24096386,5c2fcd716ea6880001dc8e3d,687ed1b7e638a4cbf2f02089,6880d5936aad0bdb61b722a4,,,,,,,,,,,,,,0,,./stim/wavs/cuban_statement_filler_Cocinabas-por-la-noche.wav,,,,,,,,,208.856,211.4853,0,1,2.1051,,0,2,2,4,1,,,,,,,,,,,,,,,,,,,,,,,,,,,,,,,,,,,,,,,,,,,,,,,,,,,,,,,,,,,,,,,,,,,,,,,
,,,,,,,,,5c2fcd716ea6880001dc8e3d,Spanish,13 or older,"no, only English or Spanish",no,2025-07-23_08h30.34.842,empathy_intonation_perc,2024.2.4,Linux x86_64,60.24096386,5c2fcd716ea6880001dc8e3d,687ed1b7e638a4cbf2f02089,6880d5936aad0bdb61b722a4,,,,,,,,,,,,,,0,,./stim/wavs/andalusian_statement_filler_Alberto-nunca-se-afeita.wav,,,,,,,,,211.4884,214.3158,0,1,2.2991,,0,3,3,5,1,,,,,,,,,,,,,,,,,,,,,,,,,,,,,,,,,,,,,,,,,,,,,,,,,,,,,,,,,,,,,,,,,,,,,,,
,,,,,,,,,5c2fcd716ea6880001dc8e3d,Spanish,13 or older,"no, only English or Spanish",no,2025-07-23_08h30.34.842,empathy_intonation_perc,2024.2.4,Linux x86_64,60.24096386,5c2fcd716ea6880001dc8e3d,687ed1b7e638a4cbf2f02089,6880d5936aad0bdb61b722a4,,,,,,,,,,,,,,1,,./stim/wavs/chilean_question_filler_Mi-padre-cantaba-bien.wav,,,,,,,,,214.3174,216.9303,1,1,2.0782,,0,4,4,2,1,,,,,,,,,,,,,,,,,,,,,,,,,,,,,,,,,,,,,,,,,,,,,,,,,,,,,,,,,,,,,,,,,,,,,,,
,,,,,,,,,5c2fcd716ea6880001dc8e3d,Spanish,13 or older,"no, only English or Spanish",no,2025-07-23_08h30.34.842,empathy_intonation_perc,2024.2.4,Linux x86_64,60.24096386,5c2fcd716ea6880001dc8e3d,687ed1b7e638a4cbf2f02089,6880d5936aad0bdb61b722a4,,,,,,,,,,,,,,1,,./stim/wavs/argentine_question_filler_Mi-vecino-habla-mucho.wav,,,,,,,,,216.9318,219.3605,1,1,1.9006,,0,5,5,1,1,,,,,,,,,,,,,,,,,,,,,,,,,,,,,,,,,,,,,,,,,,,,,,,,,,,,,,,,,,,,,,,,,,,,,,,
,,,,,,,,,5c2fcd716ea6880001dc8e3d,Spanish,13 or older,"no, only English or Spanish",no,2025-07-23_08h30.34.842,empathy_intonation_perc,2024.2.4,Linux x86_64,60.24096386,5c2fcd716ea6880001dc8e3d,687ed1b7e638a4cbf2f02089,6880d5936aad0bdb61b722a4,,,,,,,,,,,,,,1,,./stim/wavs/castilian_question_filler_Mi-esposo-conoce-al-chico.wav,,,,,,,,,219.3622,222.1915,1,1,2.2986,,0,6,6,0,1,,,,,,,,,,,,,,,,,,,,,,,,,,,,,,,,,,,,,,,,,,,,,,,,,,,,,,,,,,,,,,,,,,,,,,,
,,,,,,,,,5c2fcd716ea6880001dc8e3d,Spanish,13 or older,"no, only English or Spanish",no,2025-07-23_08h30.34.842,empathy_intonation_perc,2024.2.4,Linux x86_64,60.24096386,5c2fcd716ea6880001dc8e3d,687ed1b7e638a4cbf2f02089,6880d5936aad0bdb61b722a4,,,,,,,,,,,,,,0,,./stim/wavs/puertorican_statement_filler_La-nina-pinta-con-su-amiga.wav,,,,,,,,,222.1927,224.9892,0,1,2.2659,,0,7,7,7,1,,,,,,,,,,,,,,,,,,,,,,,,,,,,,,,,,,,,,,,,,,,,,,,,,,,,,,,,,,,,,,,,,,,,,,,
,,,,,,,,,5c2fcd716ea6880001dc8e3d,Spanish,13 or older,"no, only English or Spanish",no,2025-07-23_08h30.34.842,empathy_intonation_perc,2024.2.4,Linux x86_64,60.24096386,5c2fcd716ea6880001dc8e3d,687ed1b7e638a4cbf2f02089,6880d5936aad0bdb61b722a4,,,,,,,,,,,,,,,,,,,,,,,,,,,,,,,,,,,,224.991,227.6367,,,,,,,,,,,,,,,,,,,,,,,,,,,,,,,,,,,,,,,,,,,,,,,,,,,,,,,,,,,,,,,,,,,,,
,,,,,,,,,5c2fcd716ea6880001dc8e3d,Spanish,13 or older,"no, only English or Spanish",no,2025-07-23_08h30.34.842,empathy_intonation_perc,2024.2.4,Linux x86_64,60.24096386,5c2fcd716ea6880001dc8e3d,687ed1b7e638a4cbf2f02089,6880d5936aad0bdb61b722a4,,,,,,,,,,,,,48,0,,./stim/wavs/castilian_match_declarative-broad-focus_Maria-bebe-el-vino.wav,,,,,,,,,,,,,,,,,,,,,,227.6674,230.2339,0,1,2.0531,,0,0,0,47,1,0,castilian,,,,,,,,,,,,,,,,,,,,,,,,,,,,,,,,,,,,,,,,,,,,,,,,,,,,,,,,
,,,,,,,,,5c2fcd716ea6880001dc8e3d,Spanish,13 or older,"no, only English or Spanish",no,2025-07-23_08h30.34.842,empathy_intonation_perc,2024.2.4,Linux x86_64,60.24096386,5c2fcd716ea6880001dc8e3d,687ed1b7e638a4cbf2f02089,6880d5936aad0bdb61b722a4,,,,,,,,,,,,,57,0,,./stim/wavs/mexican_match_declarative-broad-focus_Ana-lleva-el-abrigo.wav,,,,,,,,,,,,,,,,,,,,,,230.2356,232.4645,0,1,1.7004,,0,1,1,56,1,0,mexican,,,,,,,,,,,,,,,,,,,,,,,,,,,,,,,,,,,,,,,,,,,,,,,,,,,,,,,,
,,,,,,,,,5c2fcd716ea6880001dc8e3d,Spanish,13 or older,"no, only English or Spanish",no,2025-07-23_08h30.34.842,empathy_intonation_perc,2024.2.4,Linux x86_64,60.24096386,5c2fcd716ea6880001dc8e3d,687ed1b7e638a4cbf2f02089,6880d5936aad0bdb61b722a4,,,,,,,,,,,,,66,0,,./stim/wavs/puertorican_match_declarative-broad-focus_Emilio-ama-la-marcha.wav,,,,,,,,,,,,,,,,,,,,,,232.4656,235.0289,0,1,2.0336,,0,2,2,65,1,0,puertorican,,,,,,,,,,,,,,,,,,,,,,,,,,,,,,,,,,,,,,,,,,,,,,,,,,,,,,,,
,,,,,,,,,5c2fcd716ea6880001dc8e3d,Spanish,13 or older,"no, only English or Spanish",no,2025-07-23_08h30.34.842,empathy_intonation_perc,2024.2.4,Linux x86_64,60.24096386,5c2fcd716ea6880001dc8e3d,687ed1b7e638a4cbf2f02089,6880d5936aad0bdb61b722a4,,,,,,,,,,,,,77,0,,./stim/wavs/cuban_mismatch_declarative-broad-focus_Mi-novio-viene-del-lago.wav,,,,,,,,,,,,,,,,,,,,,,235.0309,237.6761,0,1,2.1179,,0,3,3,76,1,0,cuban,,,,,,,,,,,,,,,,,,,,,,,,,,,,,,,,,,,,,,,,,,,,,,,,,,,,,,,,
,,,,,,,,,5c2fcd716ea6880001dc8e3d,Spanish,13 or older,"no, only English or Spanish",no,2025-07-23_08h30.34.842,empathy_intonation_perc,2024.2.4,Linux x86_64,60.24096386,5c2fcd716ea6880001dc8e3d,687ed1b7e638a4cbf2f02089,6880d5936aad0bdb61b722a4,,,,,,,,,,,,,32,1,,./stim/wavs/cuban_mismatch_interrogative-total-yn_Mi-madre-come-la-fruta.wav,,,,,,,,,,,,,,,,,,,,,,237.6777,240.3733,0,0,2.1601,,0,4,4,31,1,1,cuban,,,,,,,,,,,,,,,,,,,,,,,,,,,,,,,,,,,,,,,,,,,,,,,,,,,,,,,,
,,,,,,,,,5c2fcd716ea6880001dc8e3d,Spanish,13 or older,"no, only English or Spanish",no,2025-07-23_08h30.34.842,empathy_intonation_perc,2024.2.4,Linux x86_64,60.24096386,5c2fcd716ea6880001dc8e3d,687ed1b7e638a4cbf2f02089,6880d5936aad0bdb61b722a4,,,,,,,,,,,,,21,1,,./stim/wavs/puertorican_match_interrogative-total-yn_David-leia-el-libro.wav,,,,,,,,,,,,,,,,,,,,,,240.3746,242.7548,0,0,1.8491,,0,5,5,20,1,1,puertorican,,,,,,,,,,,,,,,,,,,,,,,,,,,,,,,,,,,,,,,,,,,,,,,,,,,,,,,,
,,,,,,,,,5c2fcd716ea6880001dc8e3d,Spanish,13 or older,"no, only English or Spanish",no,2025-07-23_08h30.34.842,empathy_intonation_perc,2024.2.4,Linux x86_64,60.24096386,5c2fcd716ea6880001dc8e3d,687ed1b7e638a4cbf2f02089,6880d5936aad0bdb61b722a4,,,,,,,,,,,,,53,0,,./stim/wavs/cuban_match_declarative-broad-focus_Manuela-vende-el-carro.wav,,,,,,,,,,,,,,,,,,,,,,242.7569,245.4356,0,1,2.1497,,0,6,6,52,1,0,cuban,,,,,,,,,,,,,,,,,,,,,,,,,,,,,,,,,,,,,,,,,,,,,,,,,,,,,,,,
,,,,,,,,,5c2fcd716ea6880001dc8e3d,Spanish,13 or older,"no, only English or Spanish",no,2025-07-23_08h30.34.842,empathy_intonation_perc,2024.2.4,Linux x86_64,60.24096386,5c2fcd716ea6880001dc8e3d,687ed1b7e638a4cbf2f02089,6880d5936aad0bdb61b722a4,,,,,,,,,,,,,59,0,,./stim/wavs/mexican_match_declarative-broad-focus_David-leia-el-libro.wav,,,,,,,,,,,,,,,,,,,,,,245.4376,247.8832,0,1,1.9214,,0,7,7,58,1,0,mexican,,,,,,,,,,,,,,,,,,,,,,,,,,,,,,,,,,,,,,,,,,,,,,,,,,,,,,,,
,,,,,,,,,5c2fcd716ea6880001dc8e3d,Spanish,13 or older,"no, only English or Spanish",no,2025-07-23_08h30.34.842,empathy_intonation_perc,2024.2.4,Linux x86_64,60.24096386,5c2fcd716ea6880001dc8e3d,687ed1b7e638a4cbf2f02089,6880d5936aad0bdb61b722a4,,,,,,,,,,,,,64,0,,./stim/wavs/puertorican_match_declarative-broad-focus_Daniel-iba-a-Bolivia.wav,,,,,,,,,,,,,,,,,,,,,,247.8845,250.3306,0,1,1.919,,0,8,8,63,1,0,puertorican,,,,,,,,,,,,,,,,,,,,,,,,,,,,,,,,,,,,,,,,,,,,,,,,,,,,,,,,
,,,,,,,,,5c2fcd716ea6880001dc8e3d,Spanish,13 or older,"no, only English or Spanish",no,2025-07-23_08h30.34.842,empathy_intonation_perc,2024.2.4,Linux x86_64,60.24096386,5c2fcd716ea6880001dc8e3d,687ed1b7e638a4cbf2f02089,6880d5936aad0bdb61b722a4,,,,,,,,,,,,,80,0,,./stim/wavs/mexican_mismatch_declarative-broad-focus_El-hombre-mira-la-luna.wav,,,,,,,,,,,,,,,,,,,,,,250.3317,252.8612,0,1,1.9996,,0,9,9,79,1,0,mexican,,,,,,,,,,,,,,,,,,,,,,,,,,,,,,,,,,,,,,,,,,,,,,,,,,,,,,,,
,,,,,,,,,5c2fcd716ea6880001dc8e3d,Spanish,13 or older,"no, only English or Spanish",no,2025-07-23_08h30.34.842,empathy_intonation_perc,2024.2.4,Linux x86_64,60.24096386,5c2fcd716ea6880001dc8e3d,687ed1b7e638a4cbf2f02089,6880d5936aad0bdb61b722a4,,,,,,,,,,,,,33,1,,./stim/wavs/cuban_mismatch_interrogative-total-yn_Mi-novio-viene-del-lago.wav,,,,,,,,,,,,,,,,,,,,,,252.8626,255.6083,1,1,2.2147,,0,10,10,32,1,1,cuban,,,,,,,,,,,,,,,,,,,,,,,,,,,,,,,,,,,,,,,,,,,,,,,,,,,,,,,,
,,,,,,,,,5c2fcd716ea6880001dc8e3d,Spanish,13 or older,"no, only English or Spanish",no,2025-07-23_08h30.34.842,empathy_intonation_perc,2024.2.4,Linux x86_64,60.24096386,5c2fcd716ea6880001dc8e3d,687ed1b7e638a4cbf2f02089,6880d5936aad0bdb61b722a4,,,,,,,,,,,,,54,0,,./stim/wavs/cuban_match_declarative-broad-focus_Maria-bebe-el-vino.wav,,,,,,,,,,,,,,,,,,,,,,255.6097,258.1562,0,1,2.0154,,0,11,11,53,1,0,cuban,,,,,,,,,,,,,,,,,,,,,,,,,,,,,,,,,,,,,,,,,,,,,,,,,,,,,,,,
,,,,,,,,,5c2fcd716ea6880001dc8e3d,Spanish,13 or older,"no, only English or Spanish",no,2025-07-23_08h30.34.842,empathy_intonation_perc,2024.2.4,Linux x86_64,60.24096386,5c2fcd716ea6880001dc8e3d,687ed1b7e638a4cbf2f02089,6880d5936aad0bdb61b722a4,,,,,,,,,,,,,13,1,,./stim/wavs/mexican_match_interrogative-total-yn_Ana-lleva-el-abrigo.wav,,,,,,,,,,,,,,,,,,,,,,258.1579,260.6215,1,1,1.9371,,0,12,12,12,1,0,mexican,,,,,,,,,,,,,,,,,,,,,,,,,,,,,,,,,,,,,,,,,,,,,,,,,,,,,,,,
,,,,,,,,,5c2fcd716ea6880001dc8e3d,Spanish,13 or older,"no, only English or Spanish",no,2025-07-23_08h30.34.842,empathy_intonation_perc,2024.2.4,Linux x86_64,60.24096386,5c2fcd716ea6880001dc8e3d,687ed1b7e638a4cbf2f02089,6880d5936aad0bdb61b722a4,,,,,,,,,,,,,52,0,,./stim/wavs/cuban_match_declarative-broad-focus_Daniel-iba-a-Bolivia.wav,,,,,,,,,,,,,,,,,,,,,,260.6253,263.4188,0,1,2.2669,,0,13,13,51,1,0,cuban,,,,,,,,,,,,,,,,,,,,,,,,,,,,,,,,,,,,,,,,,,,,,,,,,,,,,,,,
,,,,,,,,,5c2fcd716ea6880001dc8e3d,Spanish,13 or older,"no, only English or Spanish",no,2025-07-23_08h30.34.842,empathy_intonation_perc,2024.2.4,Linux x86_64,60.24096386,5c2fcd716ea6880001dc8e3d,687ed1b7e638a4cbf2f02089,6880d5936aad0bdb61b722a4,,,,,,,,,,,,,82,0,,./stim/wavs/mexican_mismatch_declarative-broad-focus_Mi-novio-viene-del-lago.wav,,,,,,,,,,,,,,,,,,,,,,263.4201,266.1656,0,1,2.2153,,0,14,14,81,1,0,mexican,,,,,,,,,,,,,,,,,,,,,,,,,,,,,,,,,,,,,,,,,,,,,,,,,,,,,,,,
,,,,,,,,,5c2fcd716ea6880001dc8e3d,Spanish,13 or older,"no, only English or Spanish",no,2025-07-23_08h30.34.842,empathy_intonation_perc,2024.2.4,Linux x86_64,60.24096386,5c2fcd716ea6880001dc8e3d,687ed1b7e638a4cbf2f02089,6880d5936aad0bdb61b722a4,,,,,,,,,,,,,78,0,,./stim/wavs/cuban_mismatch_declarative-broad-focus_Mi-tia-odia-la-lluvia.wav,,,,,,,,,,,,,,,,,,,,,,266.1671,269.0793,0,1,2.3861,,0,15,15,77,1,0,cuban,,,,,,,,,,,,,,,,,,,,,,,,,,,,,,,,,,,,,,,,,,,,,,,,,,,,,,,,
,,,,,,,,,5c2fcd716ea6880001dc8e3d,Spanish,13 or older,"no, only English or Spanish",no,2025-07-23_08h30.34.842,empathy_intonation_perc,2024.2.4,Linux x86_64,60.24096386,5c2fcd716ea6880001dc8e3d,687ed1b7e638a4cbf2f02089,6880d5936aad0bdb61b722a4,,,,,,,,,,,,,1,1,,./stim/wavs/castilian_match_interrogative-total-yn_David-leia-el-libro.wav,,,,,,,,,,,,,,,,,,,,,,269.0818,271.6763,1,1,2.0686,,0,16,16,0,1,0,castilian,,,,,,,,,,,,,,,,,,,,,,,,,,,,,,,,,,,,,,,,,,,,,,,,,,,,,,,,
,,,,,,,,,5c2fcd716ea6880001dc8e3d,Spanish,13 or older,"no, only English or Spanish",no,2025-07-23_08h30.34.842,empathy_intonation_perc,2024.2.4,Linux x86_64,60.24096386,5c2fcd716ea6880001dc8e3d,687ed1b7e638a4cbf2f02089,6880d5936aad0bdb61b722a4,,,,,,,,,,,,,79,0,,./stim/wavs/mexican_mismatch_declarative-broad-focus_El-bebe-comia-muy-bien.wav,,,,,,,,,,,,,,,,,,,,,,271.679,274.1604,0,1,1.9391,,0,17,17,78,1,0,mexican,,,,,,,,,,,,,,,,,,,,,,,,,,,,,,,,,,,,,,,,,,,,,,,,,,,,,,,,
,,,,,,,,,5c2fcd716ea6880001dc8e3d,Spanish,13 or older,"no, only English or Spanish",no,2025-07-23_08h30.34.842,empathy_intonation_perc,2024.2.4,Linux x86_64,60.24096386,5c2fcd716ea6880001dc8e3d,687ed1b7e638a4cbf2f02089,6880d5936aad0bdb61b722a4,,,,,,,,,,,,,85,0,,./stim/wavs/puertorican_mismatch_declarative-broad-focus_El-hombre-mira-la-luna.wav,,,,,,,,,,,,,,,,,,,,,,274.1621,276.605,0,1,1.9158,,0,18,18,84,1,0,puertorican,,,,,,,,,,,,,,,,,,,,,,,,,,,,,,,,,,,,,,,,,,,,,,,,,,,,,,,,
,,,,,,,,,5c2fcd716ea6880001dc8e3d,Spanish,13 or older,"no, only English or Spanish",no,2025-07-23_08h30.34.842,empathy_intonation_perc,2024.2.4,Linux x86_64,60.24096386,5c2fcd716ea6880001dc8e3d,687ed1b7e638a4cbf2f02089,6880d5936aad0bdb61b722a4,,,,,,,,,,,,,16,1,,./stim/wavs/mexican_match_interrogative-total-yn_Emilio-ama-la-marcha.wav,,,,,,,,,,,,,,,,,,,,,,276.606,279.1195,1,1,2.0014,,0,19,19,15,1,0,mexican,,,,,,,,,,,,,,,,,,,,,,,,,,,,,,,,,,,,,,,,,,,,,,,,,,,,,,,,
,,,,,,,,,5c2fcd716ea6880001dc8e3d,Spanish,13 or older,"no, only English or Spanish",no,2025-07-23_08h30.34.842,empathy_intonation_perc,2024.2.4,Linux x86_64,60.24096386,5c2fcd716ea6880001dc8e3d,687ed1b7e638a4cbf2f02089,6880d5936aad0bdb61b722a4,,,,,,,,,,,,,37,1,,./stim/wavs/mexican_mismatch_interrogative-total-yn_La-maestra-vive-en-Paris.wav,,,,,,,,,,,,,,,,,,,,,,279.1205,281.8665,1,1,2.2157,,0,20,20,36,1,0,mexican,,,,,,,,,,,,,,,,,,,,,,,,,,,,,,,,,,,,,,,,,,,,,,,,,,,,,,,,
,,,,,,,,,5c2fcd716ea6880001dc8e3d,Spanish,13 or older,"no, only English or Spanish",no,2025-07-23_08h30.34.842,empathy_intonation_perc,2024.2.4,Linux x86_64,60.24096386,5c2fcd716ea6880001dc8e3d,687ed1b7e638a4cbf2f02089,6880d5936aad0bdb61b722a4,,,,,,,,,,,,,9,1,,./stim/wavs/cuban_match_interrogative-total-yn_Manuela-vende-el-carro.wav,,,,,,,,,,,,,,,,,,,,,,281.8675,284.3161,0,0,1.9227,,0,21,21,8,1,1,cuban,,,,,,,,,,,,,,,,,,,,,,,,,,,,,,,,,,,,,,,,,,,,,,,,,,,,,,,,
,,,,,,,,,5c2fcd716ea6880001dc8e3d,Spanish,13 or older,"no, only English or Spanish",no,2025-07-23_08h30.34.842,empathy_intonation_perc,2024.2.4,Linux x86_64,60.24096386,5c2fcd716ea6880001dc8e3d,687ed1b7e638a4cbf2f02089,6880d5936aad0bdb61b722a4,,,,,,,,,,,,,84,0,,./stim/wavs/puertorican_mismatch_declarative-broad-focus_El-bebe-comia-muy-bien.wav,,,,,,,,,,,,,,,,,,,,,,284.3193,286.795,0,1,1.9485,,0,22,22,83,1,0,puertorican,,,,,,,,,,,,,,,,,,,,,,,,,,,,,,,,,,,,,,,,,,,,,,,,,,,,,,,,
,,,,,,,,,5c2fcd716ea6880001dc8e3d,Spanish,13 or older,"no, only English or Spanish",no,2025-07-23_08h30.34.842,empathy_intonation_perc,2024.2.4,Linux x86_64,60.24096386,5c2fcd716ea6880001dc8e3d,687ed1b7e638a4cbf2f02089,6880d5936aad0bdb61b722a4,,,,,,,,,,,,,44,1,,./stim/wavs/puertorican_mismatch_interrogative-total-yn_Mi-madre-come-la-fruta.wav,,,,,,,,,,,,,,,,,,,,,,286.7973,289.3096,0,0,1.9819,,0,23,23,43,1,1,puertorican,,,,,,,,,,,,,,,,,,,,,,,,,,,,,,,,,,,,,,,,,,,,,,,,,,,,,,,,
,,,,,,,,,5c2fcd716ea6880001dc8e3d,Spanish,13 or older,"no, only English or Spanish",no,2025-07-23_08h30.34.842,empathy_intonation_perc,2024.2.4,Linux x86_64,60.24096386,5c2fcd716ea6880001dc8e3d,687ed1b7e638a4cbf2f02089,6880d5936aad0bdb61b722a4,,,,,,,,,,,,,10,1,,./stim/wavs/cuban_match_interrogative-total-yn_Maria-bebe-el-vino.wav,,,,,,,,,,,,,,,,,,,,,,289.3114,291.7751,0,0,1.9364,,0,24,24,9,1,1,cuban,,,,,,,,,,,,,,,,,,,,,,,,,,,,,,,,,,,,,,,,,,,,,,,,,,,,,,,,
,,,,,,,,,5c2fcd716ea6880001dc8e3d,Spanish,13 or older,"no, only English or Spanish",no,2025-07-23_08h30.34.842,empathy_intonation_perc,2024.2.4,Linux x86_64,60.24096386,5c2fcd716ea6880001dc8e3d,687ed1b7e638a4cbf2f02089,6880d5936aad0bdb61b722a4,,,,,,,,,,,,,7,1,,./stim/wavs/cuban_match_interrogative-total-yn_Ana-lleva-el-abrigo.wav,,,,,,,,,,,,,,,,,,,,,,291.7765,294.2541,1,1,1.9513,,0,25,25,6,1,1,cuban,,,,,,,,,,,,,,,,,,,,,,,,,,,,,,,,,,,,,,,,,,,,,,,,,,,,,,,,
,,,,,,,,,5c2fcd716ea6880001dc8e3d,Spanish,13 or older,"no, only English or Spanish",no,2025-07-23_08h30.34.842,empathy_intonation_perc,2024.2.4,Linux x86_64,60.24096386,5c2fcd716ea6880001dc8e3d,687ed1b7e638a4cbf2f02089,6880d5936aad0bdb61b722a4,,,,,,,,,,,,,72,0,,./stim/wavs/castilian_mismatch_declarative-broad-focus_Mi-novio-viene-del-lago.wav,,,,,,,,,,,,,,,,,,,,,,294.2553,297.2013,0,1,2.4152,,0,26,26,71,1,0,castilian,,,,,,,,,,,,,,,,,,,,,,,,,,,,,,,,,,,,,,,,,,,,,,,,,,,,,,,,
,,,,,,,,,5c2fcd716ea6880001dc8e3d,Spanish,13 or older,"no, only English or Spanish",no,2025-07-23_08h30.34.842,empathy_intonation_perc,2024.2.4,Linux x86_64,60.24096386,5c2fcd716ea6880001dc8e3d,687ed1b7e638a4cbf2f02089,6880d5936aad0bdb61b722a4,,,,,,,,,,,,,29,1,,./stim/wavs/castilian_mismatch_interrogative-total-yn_Mi-tia-odia-la-lluvia.wav,,,,,,,,,,,,,,,,,,,,,,297.2025,299.9323,1,1,2.2018,,0,27,27,28,1,0,castilian,,,,,,,,,,,,,,,,,,,,,,,,,,,,,,,,,,,,,,,,,,,,,,,,,,,,,,,,
,,,,,,,,,5c2fcd716ea6880001dc8e3d,Spanish,13 or older,"no, only English or Spanish",no,2025-07-23_08h30.34.842,empathy_intonation_perc,2024.2.4,Linux x86_64,60.24096386,5c2fcd716ea6880001dc8e3d,687ed1b7e638a4cbf2f02089,6880d5936aad0bdb61b722a4,,,,,,,,,,,,,15,1,,./stim/wavs/mexican_match_interrogative-total-yn_David-leia-el-libro.wav,,,,,,,,,,,,,,,,,,,,,,299.9338,302.4468,1,1,1.9848,,0,28,28,14,1,0,mexican,,,,,,,,,,,,,,,,,,,,,,,,,,,,,,,,,,,,,,,,,,,,,,,,,,,,,,,,
,,,,,,,,,5c2fcd716ea6880001dc8e3d,Spanish,13 or older,"no, only English or Spanish",no,2025-07-23_08h30.34.842,empathy_intonation_perc,2024.2.4,Linux x86_64,60.24096386,5c2fcd716ea6880001dc8e3d,687ed1b7e638a4cbf2f02089,6880d5936aad0bdb61b722a4,,,,,,,,,,,,,2,1,,./stim/wavs/castilian_match_interrogative-total-yn_Emilio-ama-la-marcha.wav,,,,,,,,,,,,,,,,,,,,,,302.4487,305.2265,1,1,2.2532,,0,29,29,1,1,0,castilian,,,,,,,,,,,,,,,,,,,,,,,,,,,,,,,,,,,,,,,,,,,,,,,,,,,,,,,,
,,,,,,,,,5c2fcd716ea6880001dc8e3d,Spanish,13 or older,"no, only English or Spanish",no,2025-07-23_08h30.34.842,empathy_intonation_perc,2024.2.4,Linux x86_64,60.24096386,5c2fcd716ea6880001dc8e3d,687ed1b7e638a4cbf2f02089,6880d5936aad0bdb61b722a4,,,,,,,,,,,,,40,1,,./stim/wavs/puertorican_mismatch_interrogative-total-yn_El-hombre-mira-la-luna.wav,,,,,,,,,,,,,,,,,,,,,,305.2277,307.8406,0,0,2.0847,,0,30,30,39,1,1,puertorican,,,,,,,,,,,,,,,,,,,,,,,,,,,,,,,,,,,,,,,,,,,,,,,,,,,,,,,,
,,,,,,,,,5c2fcd716ea6880001dc8e3d,Spanish,13 or older,"no, only English or Spanish",no,2025-07-23_08h30.34.842,empathy_intonation_perc,2024.2.4,Linux x86_64,60.24096386,5c2fcd716ea6880001dc8e3d,687ed1b7e638a4cbf2f02089,6880d5936aad0bdb61b722a4,,,,,,,,,,,,,26,1,,./stim/wavs/castilian_mismatch_interrogative-total-yn_La-nina-lava-el-plato.wav,,,,,,,,,,,,,,,,,,,,,,307.8417,310.5057,1,1,2.1322,,0,31,31,25,1,0,castilian,,,,,,,,,,,,,,,,,,,,,,,,,,,,,,,,,,,,,,,,,,,,,,,,,,,,,,,,
,,,,,,,,,5c2fcd716ea6880001dc8e3d,Spanish,13 or older,"no, only English or Spanish",no,2025-07-23_08h30.34.842,empathy_intonation_perc,2024.2.4,Linux x86_64,60.24096386,5c2fcd716ea6880001dc8e3d,687ed1b7e638a4cbf2f02089,6880d5936aad0bdb61b722a4,,,,,,,,,,,,,4,1,,./stim/wavs/castilian_match_interrogative-total-yn_Maria-bebe-el-vino.wav,,,,,,,,,,,,,,,,,,,,,,310.5073,312.9028,1,1,1.8709,,0,32,32,3,1,0,castilian,,,,,,,,,,,,,,,,,,,,,,,,,,,,,,,,,,,,,,,,,,,,,,,,,,,,,,,,
,,,,,,,,,5c2fcd716ea6880001dc8e3d,Spanish,13 or older,"no, only English or Spanish",no,2025-07-23_08h30.34.842,empathy_intonation_perc,2024.2.4,Linux x86_64,60.24096386,5c2fcd716ea6880001dc8e3d,687ed1b7e638a4cbf2f02089,6880d5936aad0bdb61b722a4,,,,,,,,,,,,,31,1,,./stim/wavs/cuban_mismatch_interrogative-total-yn_El-nino-oye-el-rio.wav,,,,,,,,,,,,,,,,,,,,,,312.9059,315.2175,0,0,1.7848,,0,33,33,30,1,1,cuban,,,,,,,,,,,,,,,,,,,,,,,,,,,,,,,,,,,,,,,,,,,,,,,,,,,,,,,,
,,,,,,,,,5c2fcd716ea6880001dc8e3d,Spanish,13 or older,"no, only English or Spanish",no,2025-07-23_08h30.34.842,empathy_intonation_perc,2024.2.4,Linux x86_64,60.24096386,5c2fcd716ea6880001dc8e3d,687ed1b7e638a4cbf2f02089,6880d5936aad0bdb61b722a4,,,,,,,,,,,,,41,1,,./stim/wavs/puertorican_mismatch_interrogative-total-yn_El-nino-oye-el-rio.wav,,,,,,,,,,,,,,,,,,,,,,315.2189,318.332,0,0,2.5844,,0,34,34,40,1,1,puertorican,,,,,,,,,,,,,,,,,,,,,,,,,,,,,,,,,,,,,,,,,,,,,,,,,,,,,,,,
,,,,,,,,,5c2fcd716ea6880001dc8e3d,Spanish,13 or older,"no, only English or Spanish",no,2025-07-23_08h30.34.842,empathy_intonation_perc,2024.2.4,Linux x86_64,60.24096386,5c2fcd716ea6880001dc8e3d,687ed1b7e638a4cbf2f02089,6880d5936aad0bdb61b722a4,,,,,,,,,,,,,83,0,,./stim/wavs/mexican_mismatch_declarative-broad-focus_Mi-tia-odia-la-lluvia.wav,,,,,,,,,,,,,,,,,,,,,,318.3335,320.8612,0,1,1.9959,,0,35,35,82,1,0,mexican,,,,,,,,,,,,,,,,,,,,,,,,,,,,,,,,,,,,,,,,,,,,,,,,,,,,,,,,
,,,,,,,,,5c2fcd716ea6880001dc8e3d,Spanish,13 or older,"no, only English or Spanish",no,2025-07-23_08h30.34.842,empathy_intonation_perc,2024.2.4,Linux x86_64,60.24096386,5c2fcd716ea6880001dc8e3d,687ed1b7e638a4cbf2f02089,6880d5936aad0bdb61b722a4,,,,,,,,,,,,,75,0,,./stim/wavs/cuban_mismatch_declarative-broad-focus_El-hombre-mira-la-luna.wav,,,,,,,,,,,,,,,,,,,,,,320.8626,323.1757,0,1,1.7849,,0,36,36,74,1,0,cuban,,,,,,,,,,,,,,,,,,,,,,,,,,,,,,,,,,,,,,,,,,,,,,,,,,,,,,,,
,,,,,,,,,5c2fcd716ea6880001dc8e3d,Spanish,13 or older,"no, only English or Spanish",no,2025-07-23_08h30.34.842,empathy_intonation_perc,2024.2.4,Linux x86_64,60.24096386,5c2fcd716ea6880001dc8e3d,687ed1b7e638a4cbf2f02089,6880d5936aad0bdb61b722a4,,,,,,,,,,,,,61,0,,./stim/wavs/mexican_match_declarative-broad-focus_Mariano-habla-del-tiempo.wav,,,,,,,,,,,,,,,,,,,,,,323.1777,325.724,0,1,2.0171,,0,37,37,60,1,0,mexican,,,,,,,,,,,,,,,,,,,,,,,,,,,,,,,,,,,,,,,,,,,,,,,,,,,,,,,,
,,,,,,,,,5c2fcd716ea6880001dc8e3d,Spanish,13 or older,"no, only English or Spanish",no,2025-07-23_08h30.34.842,empathy_intonation_perc,2024.2.4,Linux x86_64,60.24096386,5c2fcd716ea6880001dc8e3d,687ed1b7e638a4cbf2f02089,6880d5936aad0bdb61b722a4,,,,,,,,,,,,,20,1,,./stim/wavs/puertorican_match_interrogative-total-yn_Daniel-iba-a-Bolivia.wav,,,,,,,,,,,,,,,,,,,,,,325.7273,328.2878,0,0,2.0332,,0,38,38,19,1,1,puertorican,,,,,,,,,,,,,,,,,,,,,,,,,,,,,,,,,,,,,,,,,,,,,,,,,,,,,,,,
,,,,,,,,,5c2fcd716ea6880001dc8e3d,Spanish,13 or older,"no, only English or Spanish",no,2025-07-23_08h30.34.842,empathy_intonation_perc,2024.2.4,Linux x86_64,60.24096386,5c2fcd716ea6880001dc8e3d,687ed1b7e638a4cbf2f02089,6880d5936aad0bdb61b722a4,,,,,,,,,,,,,60,0,,./stim/wavs/mexican_match_declarative-broad-focus_Emilio-ama-la-marcha.wav,,,,,,,,,,,,,,,,,,,,,,328.2889,330.8349,1,0,2.0142,,0,39,39,59,1,0,mexican,,,,,,,,,,,,,,,,,,,,,,,,,,,,,,,,,,,,,,,,,,,,,,,,,,,,,,,,
,,,,,,,,,5c2fcd716ea6880001dc8e3d,Spanish,13 or older,"no, only English or Spanish",no,2025-07-23_08h30.34.842,empathy_intonation_perc,2024.2.4,Linux x86_64,60.24096386,5c2fcd716ea6880001dc8e3d,687ed1b7e638a4cbf2f02089,6880d5936aad0bdb61b722a4,,,,,,,,,,,,,23,1,,./stim/wavs/puertorican_match_interrogative-total-yn_Manuela-vende-el-carro.wav,,,,,,,,,,,,,,,,,,,,,,330.8369,333.5821,0,0,2.2209,,0,40,40,22,1,1,puertorican,,,,,,,,,,,,,,,,,,,,,,,,,,,,,,,,,,,,,,,,,,,,,,,,,,,,,,,,
,,,,,,,,,5c2fcd716ea6880001dc8e3d,Spanish,13 or older,"no, only English or Spanish",no,2025-07-23_08h30.34.842,empathy_intonation_perc,2024.2.4,Linux x86_64,60.24096386,5c2fcd716ea6880001dc8e3d,687ed1b7e638a4cbf2f02089,6880d5936aad0bdb61b722a4,,,,,,,,,,,,,55,0,,./stim/wavs/cuban_match_declarative-broad-focus_Mariano-habla-del-tiempo.wav,,,,,,,,,,,,,,,,,,,,,,333.583,336.4294,0,1,2.3129,,0,41,41,54,1,0,cuban,,,,,,,,,,,,,,,,,,,,,,,,,,,,,,,,,,,,,,,,,,,,,,,,,,,,,,,,
,,,,,,,,,5c2fcd716ea6880001dc8e3d,Spanish,13 or older,"no, only English or Spanish",no,2025-07-23_08h30.34.842,empathy_intonation_perc,2024.2.4,Linux x86_64,60.24096386,5c2fcd716ea6880001dc8e3d,687ed1b7e638a4cbf2f02089,6880d5936aad0bdb61b722a4,,,,,,,,,,,,,45,0,,./stim/wavs/castilian_match_declarative-broad-focus_David-leia-el-libro.wav,,,,,,,,,,,,,,,,,,,,,,336.4304,339.2933,0,1,2.3287,,0,42,42,44,1,0,castilian,,,,,,,,,,,,,,,,,,,,,,,,,,,,,,,,,,,,,,,,,,,,,,,,,,,,,,,,
,,,,,,,,,5c2fcd716ea6880001dc8e3d,Spanish,13 or older,"no, only English or Spanish",no,2025-07-23_08h30.34.842,empathy_intonation_perc,2024.2.4,Linux x86_64,60.24096386,5c2fcd716ea6880001dc8e3d,687ed1b7e638a4cbf2f02089,6880d5936aad0bdb61b722a4,,,,,,,,,,,,,8,1,,./stim/wavs/cuban_match_interrogative-total-yn_Daniel-iba-a-Bolivia.wav,,,,,,,,,,,,,,,,,,,,,,339.2949,341.7744,0,0,1.952,,0,43,43,7,1,1,cuban,,,,,,,,,,,,,,,,,,,,,,,,,,,,,,,,,,,,,,,,,,,,,,,,,,,,,,,,
,,,,,,,,,5c2fcd716ea6880001dc8e3d,Spanish,13 or older,"no, only English or Spanish",no,2025-07-23_08h30.34.842,empathy_intonation_perc,2024.2.4,Linux x86_64,60.24096386,5c2fcd716ea6880001dc8e3d,687ed1b7e638a4cbf2f02089,6880d5936aad0bdb61b722a4,,,,,,,,,,,,,73,0,,./stim/wavs/castilian_mismatch_declarative-broad-focus_Mi-tia-odia-la-lluvia.wav,,,,,,,,,,,,,,,,,,,,,,341.7755,344.3734,0,1,2.0699,,0,44,44,72,1,0,castilian,,,,,,,,,,,,,,,,,,,,,,,,,,,,,,,,,,,,,,,,,,,,,,,,,,,,,,,,
,,,,,,,,,5c2fcd716ea6880001dc8e3d,Spanish,13 or older,"no, only English or Spanish",no,2025-07-23_08h30.34.842,empathy_intonation_perc,2024.2.4,Linux x86_64,60.24096386,5c2fcd716ea6880001dc8e3d,687ed1b7e638a4cbf2f02089,6880d5936aad0bdb61b722a4,,,,,,,,,,,,,69,0,,./stim/wavs/castilian_mismatch_declarative-broad-focus_El-nino-oye-el-rio.wav,,,,,,,,,,,,,,,,,,,,,,344.3748,347.1188,0,1,2.217,,0,45,45,68,1,0,castilian,,,,,,,,,,,,,,,,,,,,,,,,,,,,,,,,,,,,,,,,,,,,,,,,,,,,,,,,
,,,,,,,,,5c2fcd716ea6880001dc8e3d,Spanish,13 or older,"no, only English or Spanish",no,2025-07-23_08h30.34.842,empathy_intonation_perc,2024.2.4,Linux x86_64,60.24096386,5c2fcd716ea6880001dc8e3d,687ed1b7e638a4cbf2f02089,6880d5936aad0bdb61b722a4,,,,,,,,,,,,,5,1,,./stim/wavs/castilian_match_interrogative-total-yn_Mariano-habla-del-tiempo.wav,,,,,,,,,,,,,,,,,,,,,,347.1205,349.9663,1,1,2.3143,,0,46,46,4,1,0,castilian,,,,,,,,,,,,,,,,,,,,,,,,,,,,,,,,,,,,,,,,,,,,,,,,,,,,,,,,
,,,,,,,,,5c2fcd716ea6880001dc8e3d,Spanish,13 or older,"no, only English or Spanish",no,2025-07-23_08h30.34.842,empathy_intonation_perc,2024.2.4,Linux x86_64,60.24096386,5c2fcd716ea6880001dc8e3d,687ed1b7e638a4cbf2f02089,6880d5936aad0bdb61b722a4,,,,,,,,,,,,,87,0,,./stim/wavs/puertorican_mismatch_declarative-broad-focus_La-maestra-vive-en-Paris.wav,,,,,,,,,,,,,,,,,,,,,,349.968,352.5972,0,1,2.0976,,0,47,47,86,1,0,puertorican,,,,,,,,,,,,,,,,,,,,,,,,,,,,,,,,,,,,,,,,,,,,,,,,,,,,,,,,
,,,,,,,,,5c2fcd716ea6880001dc8e3d,Spanish,13 or older,"no, only English or Spanish",no,2025-07-23_08h30.34.842,empathy_intonation_perc,2024.2.4,Linux x86_64,60.24096386,5c2fcd716ea6880001dc8e3d,687ed1b7e638a4cbf2f02089,6880d5936aad0bdb61b722a4,,,,,,,,,,,,,43,1,,./stim/wavs/puertorican_mismatch_interrogative-total-yn_La-nina-lava-el-plato.wav,,,,,,,,,,,,,,,,,,,,,,352.5985,355.0618,0,0,1.9338,,0,48,48,42,1,1,puertorican,,,,,,,,,,,,,,,,,,,,,,,,,,,,,,,,,,,,,,,,,,,,,,,,,,,,,,,,
,,,,,,,,,5c2fcd716ea6880001dc8e3d,Spanish,13 or older,"no, only English or Spanish",no,2025-07-23_08h30.34.842,empathy_intonation_perc,2024.2.4,Linux x86_64,60.24096386,5c2fcd716ea6880001dc8e3d,687ed1b7e638a4cbf2f02089,6880d5936aad0bdb61b722a4,,,,,,,,,,,,,65,0,,./stim/wavs/puertorican_match_declarative-broad-focus_David-leia-el-libro.wav,,,,,,,,,,,,,,,,,,,,,,355.0632,357.5091,0,1,1.9172,,0,49,49,64,1,0,puertorican,,,,,,,,,,,,,,,,,,,,,,,,,,,,,,,,,,,,,,,,,,,,,,,,,,,,,,,,
,,,,,,,,,5c2fcd716ea6880001dc8e3d,Spanish,13 or older,"no, only English or Spanish",no,2025-07-23_08h30.34.842,empathy_intonation_perc,2024.2.4,Linux x86_64,60.24096386,5c2fcd716ea6880001dc8e3d,687ed1b7e638a4cbf2f02089,6880d5936aad0bdb61b722a4,,,,,,,,,,,,,38,1,,./stim/wavs/mexican_mismatch_interrogative-total-yn_Mi-novio-viene-del-lago.wav,,,,,,,,,,,,,,,,,,,,,,357.5108,360.1617,1,1,2.1237,,0,50,50,37,1,0,mexican,,,,,,,,,,,,,,,,,,,,,,,,,,,,,,,,,,,,,,,,,,,,,,,,,,,,,,,,
,,,,,,,,,5c2fcd716ea6880001dc8e3d,Spanish,13 or older,"no, only English or Spanish",no,2025-07-23_08h30.34.842,empathy_intonation_perc,2024.2.4,Linux x86_64,60.24096386,5c2fcd716ea6880001dc8e3d,687ed1b7e638a4cbf2f02089,6880d5936aad0bdb61b722a4,,,,,,,,,,,,,56,0,,./stim/wavs/cuban_match_declarative-broad-focus_Marta-abre-el-regalo.wav,,,,,,,,,,,,,,,,,,,,,,360.1637,362.97,0,1,2.2814,,0,51,51,55,1,0,cuban,,,,,,,,,,,,,,,,,,,,,,,,,,,,,,,,,,,,,,,,,,,,,,,,,,,,,,,,
,,,,,,,,,5c2fcd716ea6880001dc8e3d,Spanish,13 or older,"no, only English or Spanish",no,2025-07-23_08h30.34.842,empathy_intonation_perc,2024.2.4,Linux x86_64,60.24096386,5c2fcd716ea6880001dc8e3d,687ed1b7e638a4cbf2f02089,6880d5936aad0bdb61b722a4,,,,,,,,,,,,,19,1,,./stim/wavs/puertorican_match_interrogative-total-yn_Ana-lleva-el-abrigo.wav,,,,,,,,,,,,,,,,,,,,,,362.9712,365.6345,1,1,2.1309,,0,52,52,18,1,1,puertorican,,,,,,,,,,,,,,,,,,,,,,,,,,,,,,,,,,,,,,,,,,,,,,,,,,,,,,,,
,,,,,,,,,5c2fcd716ea6880001dc8e3d,Spanish,13 or older,"no, only English or Spanish",no,2025-07-23_08h30.34.842,empathy_intonation_perc,2024.2.4,Linux x86_64,60.24096386,5c2fcd716ea6880001dc8e3d,687ed1b7e638a4cbf2f02089,6880d5936aad0bdb61b722a4,,,,,,,,,,,,,25,1,,./stim/wavs/castilian_mismatch_interrogative-total-yn_La-maestra-vive-en-Paris.wav,,,,,,,,,,,,,,,,,,,,,,365.6356,368.6646,1,1,2.5103,,0,53,53,24,1,0,castilian,,,,,,,,,,,,,,,,,,,,,,,,,,,,,,,,,,,,,,,,,,,,,,,,,,,,,,,,
,,,,,,,,,5c2fcd716ea6880001dc8e3d,Spanish,13 or older,"no, only English or Spanish",no,2025-07-23_08h30.34.842,empathy_intonation_perc,2024.2.4,Linux x86_64,60.24096386,5c2fcd716ea6880001dc8e3d,687ed1b7e638a4cbf2f02089,6880d5936aad0bdb61b722a4,,,,,,,,,,,,,35,1,,./stim/wavs/mexican_mismatch_interrogative-total-yn_El-hombre-mira-la-luna.wav,,,,,,,,,,,,,,,,,,,,,,368.6659,371.1292,1,1,1.9338,,0,54,54,34,1,0,mexican,,,,,,,,,,,,,,,,,,,,,,,,,,,,,,,,,,,,,,,,,,,,,,,,,,,,,,,,
,,,,,,,,,5c2fcd716ea6880001dc8e3d,Spanish,13 or older,"no, only English or Spanish",no,2025-07-23_08h30.34.842,empathy_intonation_perc,2024.2.4,Linux x86_64,60.24096386,5c2fcd716ea6880001dc8e3d,687ed1b7e638a4cbf2f02089,6880d5936aad0bdb61b722a4,,,,,,,,,,,,,3,1,,./stim/wavs/castilian_match_interrogative-total-yn_Manuela-vende-el-carro.wav,,,,,,,,,,,,,,,,,,,,,,371.1305,373.8284,1,1,2.1722,,0,55,55,2,1,0,castilian,,,,,,,,,,,,,,,,,,,,,,,,,,,,,,,,,,,,,,,,,,,,,,,,,,,,,,,,
,,,,,,,,,5c2fcd716ea6880001dc8e3d,Spanish,13 or older,"no, only English or Spanish",no,2025-07-23_08h30.34.842,empathy_intonation_perc,2024.2.4,Linux x86_64,60.24096386,5c2fcd716ea6880001dc8e3d,687ed1b7e638a4cbf2f02089,6880d5936aad0bdb61b722a4,,,,,,,,,,,,,27,1,,./stim/wavs/castilian_mismatch_interrogative-total-yn_Mi-madre-come-la-fruta.wav,,,,,,,,,,,,,,,,,,,,,,373.8297,376.5074,1,1,2.1508,,0,56,56,26,1,0,castilian,,,,,,,,,,,,,,,,,,,,,,,,,,,,,,,,,,,,,,,,,,,,,,,,,,,,,,,,
,,,,,,,,,5c2fcd716ea6880001dc8e3d,Spanish,13 or older,"no, only English or Spanish",no,2025-07-23_08h30.34.842,empathy_intonation_perc,2024.2.4,Linux x86_64,60.24096386,5c2fcd716ea6880001dc8e3d,687ed1b7e638a4cbf2f02089,6880d5936aad0bdb61b722a4,,,,,,,,,,,,,36,1,,./stim/wavs/mexican_mismatch_interrogative-total-yn_El-nino-oye-el-rio.wav,,,,,,,,,,,,,,,,,,,,,,376.5087,378.9052,1,1,1.8636,,0,57,57,35,1,0,mexican,,,,,,,,,,,,,,,,,,,,,,,,,,,,,,,,,,,,,,,,,,,,,,,,,,,,,,,,
,,,,,,,,,5c2fcd716ea6880001dc8e3d,Spanish,13 or older,"no, only English or Spanish",no,2025-07-23_08h30.34.842,empathy_intonation_perc,2024.2.4,Linux x86_64,60.24096386,5c2fcd716ea6880001dc8e3d,687ed1b7e638a4cbf2f02089,6880d5936aad0bdb61b722a4,,,,,,,,,,,,,50,0,,./stim/wavs/castilian_match_declarative-broad-focus_Marta-abre-el-regalo.wav,,,,,,,,,,,,,,,,,,,,,,378.9065,381.4689,0,1,2.03,,0,58,58,49,1,0,castilian,,,,,,,,,,,,,,,,,,,,,,,,,,,,,,,,,,,,,,,,,,,,,,,,,,,,,,,,
,,,,,,,,,5c2fcd716ea6880001dc8e3d,Spanish,13 or older,"no, only English or Spanish",no,2025-07-23_08h30.34.842,empathy_intonation_perc,2024.2.4,Linux x86_64,60.24096386,5c2fcd716ea6880001dc8e3d,687ed1b7e638a4cbf2f02089,6880d5936aad0bdb61b722a4,,,,,,,,,,,,,6,1,,./stim/wavs/castilian_match_interrogative-total-yn_Marta-abre-el-regalo.wav,,,,,,,,,,,,,,,,,,,,,,381.4698,384.1667,1,1,2.1654,,0,59,59,5,1,0,castilian,,,,,,,,,,,,,,,,,,,,,,,,,,,,,,,,,,,,,,,,,,,,,,,,,,,,,,,,
,,,,,,,,,5c2fcd716ea6880001dc8e3d,Spanish,13 or older,"no, only English or Spanish",no,2025-07-23_08h30.34.842,empathy_intonation_perc,2024.2.4,Linux x86_64,60.24096386,5c2fcd716ea6880001dc8e3d,687ed1b7e638a4cbf2f02089,6880d5936aad0bdb61b722a4,,,,,,,,,,,,,11,1,,./stim/wavs/cuban_match_interrogative-total-yn_Mariano-habla-del-tiempo.wav,,,,,,,,,,,,,,,,,,,,,,384.1685,386.881,0,0,2.187,,0,60,60,10,1,1,cuban,,,,,,,,,,,,,,,,,,,,,,,,,,,,,,,,,,,,,,,,,,,,,,,,,,,,,,,,
,,,,,,,,,5c2fcd716ea6880001dc8e3d,Spanish,13 or older,"no, only English or Spanish",no,2025-07-23_08h30.34.842,empathy_intonation_perc,2024.2.4,Linux x86_64,60.24096386,5c2fcd716ea6880001dc8e3d,687ed1b7e638a4cbf2f02089,6880d5936aad0bdb61b722a4,,,,,,,,,,,,,42,1,,./stim/wavs/puertorican_mismatch_interrogative-total-yn_La-maestra-vive-en-Paris.wav,,,,,,,,,,,,,,,,,,,,,,386.8822,389.6109,0,0,2.1975,,0,61,61,41,1,1,puertorican,,,,,,,,,,,,,,,,,,,,,,,,,,,,,,,,,,,,,,,,,,,,,,,,,,,,,,,,
,,,,,,,,,5c2fcd716ea6880001dc8e3d,Spanish,13 or older,"no, only English or Spanish",no,2025-07-23_08h30.34.842,empathy_intonation_perc,2024.2.4,Linux x86_64,60.24096386,5c2fcd716ea6880001dc8e3d,687ed1b7e638a4cbf2f02089,6880d5936aad0bdb61b722a4,,,,,,,,,,,,,47,0,,./stim/wavs/castilian_match_declarative-broad-focus_Manuela-vende-el-carro.wav,,,,,,,,,,,,,,,,,,,,,,389.6122,392.5083,0,1,2.3801,,0,62,62,46,1,0,castilian,,,,,,,,,,,,,,,,,,,,,,,,,,,,,,,,,,,,,,,,,,,,,,,,,,,,,,,,
,,,,,,,,,5c2fcd716ea6880001dc8e3d,Spanish,13 or older,"no, only English or Spanish",no,2025-07-23_08h30.34.842,empathy_intonation_perc,2024.2.4,Linux x86_64,60.24096386,5c2fcd716ea6880001dc8e3d,687ed1b7e638a4cbf2f02089,6880d5936aad0bdb61b722a4,,,,,,,,,,,,,58,0,,./stim/wavs/mexican_match_declarative-broad-focus_Daniel-iba-a-Bolivia.wav,,,,,,,,,,,,,,,,,,,,,,392.5096,395.1561,0,1,2.119,,0,63,63,57,1,0,mexican,,,,,,,,,,,,,,,,,,,,,,,,,,,,,,,,,,,,,,,,,,,,,,,,,,,,,,,,
,,,,,,,,,5c2fcd716ea6880001dc8e3d,Spanish,13 or older,"no, only English or Spanish",no,2025-07-23_08h30.34.842,empathy_intonation_perc,2024.2.4,Linux x86_64,60.24096386,5c2fcd716ea6880001dc8e3d,687ed1b7e638a4cbf2f02089,6880d5936aad0bdb61b722a4,,,,,,,,,,,,,14,1,,./stim/wavs/mexican_match_interrogative-total-yn_Daniel-iba-a-Bolivia.wav,,,,,,,,,,,,,,,,,,,,,,395.1579,397.7699,1,1,2.0859,,0,64,64,13,1,0,mexican,,,,,,,,,,,,,,,,,,,,,,,,,,,,,,,,,,,,,,,,,,,,,,,,,,,,,,,,
,,,,,,,,,5c2fcd716ea6880001dc8e3d,Spanish,13 or older,"no, only English or Spanish",no,2025-07-23_08h30.34.842,empathy_intonation_perc,2024.2.4,Linux x86_64,60.24096386,5c2fcd716ea6880001dc8e3d,687ed1b7e638a4cbf2f02089,6880d5936aad0bdb61b722a4,,,,,,,,,,,,,86,0,,./stim/wavs/puertorican_mismatch_declarative-broad-focus_El-nino-oye-el-rio.wav,,,,,,,,,,,,,,,,,,,,,,397.7711,400.2844,0,1,1.9814,,0,65,65,85,1,0,puertorican,,,,,,,,,,,,,,,,,,,,,,,,,,,,,,,,,,,,,,,,,,,,,,,,,,,,,,,,
,,,,,,,,,5c2fcd716ea6880001dc8e3d,Spanish,13 or older,"no, only English or Spanish",no,2025-07-23_08h30.34.842,empathy_intonation_perc,2024.2.4,Linux x86_64,60.24096386,5c2fcd716ea6880001dc8e3d,687ed1b7e638a4cbf2f02089,6880d5936aad0bdb61b722a4,,,,,,,,,,,,,63,0,,./stim/wavs/puertorican_match_declarative-broad-focus_Ana-lleva-el-abrigo.wav,,,,,,,,,,,,,,,,,,,,,,400.2867,402.6647,0,1,1.8488,,0,66,66,62,1,0,puertorican,,,,,,,,,,,,,,,,,,,,,,,,,,,,,,,,,,,,,,,,,,,,,,,,,,,,,,,,
,,,,,,,,,5c2fcd716ea6880001dc8e3d,Spanish,13 or older,"no, only English or Spanish",no,2025-07-23_08h30.34.842,empathy_intonation_perc,2024.2.4,Linux x86_64,60.24096386,5c2fcd716ea6880001dc8e3d,687ed1b7e638a4cbf2f02089,6880d5936aad0bdb61b722a4,,,,,,,,,,,,,24,1,,./stim/wavs/puertorican_match_interrogative-total-yn_Maria-bebe-el-vino.wav,,,,,,,,,,,,,,,,,,,,,,402.6664,405.3952,0,0,2.1989,,0,67,67,23,1,1,puertorican,,,,,,,,,,,,,,,,,,,,,,,,,,,,,,,,,,,,,,,,,,,,,,,,,,,,,,,,
,,,,,,,,,5c2fcd716ea6880001dc8e3d,Spanish,13 or older,"no, only English or Spanish",no,2025-07-23_08h30.34.842,empathy_intonation_perc,2024.2.4,Linux x86_64,60.24096386,5c2fcd716ea6880001dc8e3d,687ed1b7e638a4cbf2f02089,6880d5936aad0bdb61b722a4,,,,,,,,,,,,,39,1,,./stim/wavs/mexican_mismatch_interrogative-total-yn_Mi-tia-odia-la-lluvia.wav,,,,,,,,,,,,,,,,,,,,,,405.3969,407.9098,1,1,1.9863,,0,68,68,38,1,0,mexican,,,,,,,,,,,,,,,,,,,,,,,,,,,,,,,,,,,,,,,,,,,,,,,,,,,,,,,,
,,,,,,,,,5c2fcd716ea6880001dc8e3d,Spanish,13 or older,"no, only English or Spanish",no,2025-07-23_08h30.34.842,empathy_intonation_perc,2024.2.4,Linux x86_64,60.24096386,5c2fcd716ea6880001dc8e3d,687ed1b7e638a4cbf2f02089,6880d5936aad0bdb61b722a4,,,,,,,,,,,,,67,0,,./stim/wavs/puertorican_match_declarative-broad-focus_Manuela-vende-el-carro.wav,,,,,,,,,,,,,,,,,,,,,,407.9108,410.4576,0,1,2.015,,0,69,69,66,1,0,puertorican,,,,,,,,,,,,,,,,,,,,,,,,,,,,,,,,,,,,,,,,,,,,,,,,,,,,,,,,
,,,,,,,,,5c2fcd716ea6880001dc8e3d,Spanish,13 or older,"no, only English or Spanish",no,2025-07-23_08h30.34.842,empathy_intonation_perc,2024.2.4,Linux x86_64,60.24096386,5c2fcd716ea6880001dc8e3d,687ed1b7e638a4cbf2f02089,6880d5936aad0bdb61b722a4,,,,,,,,,,,,,49,0,,./stim/wavs/castilian_match_declarative-broad-focus_Mariano-habla-del-tiempo.wav,,,,,,,,,,,,,,,,,,,,,,410.4585,413.4711,0,1,2.4814,,0,70,70,48,1,0,castilian,,,,,,,,,,,,,,,,,,,,,,,,,,,,,,,,,,,,,,,,,,,,,,,,,,,,,,,,
,,,,,,,,,5c2fcd716ea6880001dc8e3d,Spanish,13 or older,"no, only English or Spanish",no,2025-07-23_08h30.34.842,empathy_intonation_perc,2024.2.4,Linux x86_64,60.24096386,5c2fcd716ea6880001dc8e3d,687ed1b7e638a4cbf2f02089,6880d5936aad0bdb61b722a4,,,,,,,,,,,,,30,1,,./stim/wavs/cuban_mismatch_interrogative-total-yn_El-hombre-mira-la-luna.wav,,,,,,,,,,,,,,,,,,,,,,413.4722,416.2347,1,1,2.2331,,0,71,71,29,1,1,cuban,,,,,,,,,,,,,,,,,,,,,,,,,,,,,,,,,,,,,,,,,,,,,,,,,,,,,,,,
,,,,,,,,,5c2fcd716ea6880001dc8e3d,Spanish,13 or older,"no, only English or Spanish",no,2025-07-23_08h30.34.842,empathy_intonation_perc,2024.2.4,Linux x86_64,60.24096386,5c2fcd716ea6880001dc8e3d,687ed1b7e638a4cbf2f02089,6880d5936aad0bdb61b722a4,,,,,,,,,,,,,51,0,,./stim/wavs/cuban_match_declarative-broad-focus_Ana-lleva-el-abrigo.wav,,,,,,,,,,,,,,,,,,,,,,416.2371,418.8331,0,1,2.0704,,0,72,72,50,1,0,cuban,,,,,,,,,,,,,,,,,,,,,,,,,,,,,,,,,,,,,,,,,,,,,,,,,,,,,,,,
,,,,,,,,,5c2fcd716ea6880001dc8e3d,Spanish,13 or older,"no, only English or Spanish",no,2025-07-23_08h30.34.842,empathy_intonation_perc,2024.2.4,Linux x86_64,60.24096386,5c2fcd716ea6880001dc8e3d,687ed1b7e638a4cbf2f02089,6880d5936aad0bdb61b722a4,,,,,,,,,,,,,17,1,,./stim/wavs/mexican_match_interrogative-total-yn_Mariano-habla-del-tiempo.wav,,,,,,,,,,,,,,,,,,,,,,418.8349,421.4803,1,1,2.1211,,0,73,73,16,1,0,mexican,,,,,,,,,,,,,,,,,,,,,,,,,,,,,,,,,,,,,,,,,,,,,,,,,,,,,,,,
,,,,,,,,,5c2fcd716ea6880001dc8e3d,Spanish,13 or older,"no, only English or Spanish",no,2025-07-23_08h30.34.842,empathy_intonation_perc,2024.2.4,Linux x86_64,60.24096386,5c2fcd716ea6880001dc8e3d,687ed1b7e638a4cbf2f02089,6880d5936aad0bdb61b722a4,,,,,,,,,,,,,18,1,,./stim/wavs/mexican_match_interrogative-total-yn_Marta-abre-el-regalo.wav,,,,,,,,,,,,,,,,,,,,,,421.482,423.9107,1,1,1.8967,,0,74,74,17,1,0,mexican,,,,,,,,,,,,,,,,,,,,,,,,,,,,,,,,,,,,,,,,,,,,,,,,,,,,,,,,
,,,,,,,,,5c2fcd716ea6880001dc8e3d,Spanish,13 or older,"no, only English or Spanish",no,2025-07-23_08h30.34.842,empathy_intonation_perc,2024.2.4,Linux x86_64,60.24096386,5c2fcd716ea6880001dc8e3d,687ed1b7e638a4cbf2f02089,6880d5936aad0bdb61b722a4,,,,,,,,,,,,,46,0,,./stim/wavs/castilian_match_declarative-broad-focus_Emilio-ama-la-marcha.wav,,,,,,,,,,,,,,,,,,,,,,423.9123,426.5749,0,1,2.1311,,0,75,75,45,1,0,castilian,,,,,,,,,,,,,,,,,,,,,,,,,,,,,,,,,,,,,,,,,,,,,,,,,,,,,,,,
,,,,,,,,,5c2fcd716ea6880001dc8e3d,Spanish,13 or older,"no, only English or Spanish",no,2025-07-23_08h30.34.842,empathy_intonation_perc,2024.2.4,Linux x86_64,60.24096386,5c2fcd716ea6880001dc8e3d,687ed1b7e638a4cbf2f02089,6880d5936aad0bdb61b722a4,,,,,,,,,,,,,70,0,,./stim/wavs/castilian_mismatch_declarative-broad-focus_La-maestra-vive-en-Paris.wav,,,,,,,,,,,,,,,,,,,,,,426.5761,429.2888,0,1,2.1836,,0,76,76,69,1,0,castilian,,,,,,,,,,,,,,,,,,,,,,,,,,,,,,,,,,,,,,,,,,,,,,,,,,,,,,,,
,,,,,,,,,5c2fcd716ea6880001dc8e3d,Spanish,13 or older,"no, only English or Spanish",no,2025-07-23_08h30.34.842,empathy_intonation_perc,2024.2.4,Linux x86_64,60.24096386,5c2fcd716ea6880001dc8e3d,687ed1b7e638a4cbf2f02089,6880d5936aad0bdb61b722a4,,,,,,,,,,,,,88,0,,./stim/wavs/puertorican_mismatch_declarative-broad-focus_La-nina-lava-el-plato.wav,,,,,,,,,,,,,,,,,,,,,,429.2902,431.6199,0,1,1.8049,,0,77,77,87,1,0,puertorican,,,,,,,,,,,,,,,,,,,,,,,,,,,,,,,,,,,,,,,,,,,,,,,,,,,,,,,,
,,,,,,,,,5c2fcd716ea6880001dc8e3d,Spanish,13 or older,"no, only English or Spanish",no,2025-07-23_08h30.34.842,empathy_intonation_perc,2024.2.4,Linux x86_64,60.24096386,5c2fcd716ea6880001dc8e3d,687ed1b7e638a4cbf2f02089,6880d5936aad0bdb61b722a4,,,,,,,,,,,,,22,1,,./stim/wavs/puertorican_match_interrogative-total-yn_Emilio-ama-la-marcha.wav,,,,,,,,,,,,,,,,,,,,,,431.6209,434.2196,0,0,2.0684,,0,78,78,21,1,1,puertorican,,,,,,,,,,,,,,,,,,,,,,,,,,,,,,,,,,,,,,,,,,,,,,,,,,,,,,,,
,,,,,,,,,5c2fcd716ea6880001dc8e3d,Spanish,13 or older,"no, only English or Spanish",no,2025-07-23_08h30.34.842,empathy_intonation_perc,2024.2.4,Linux x86_64,60.24096386,5c2fcd716ea6880001dc8e3d,687ed1b7e638a4cbf2f02089,6880d5936aad0bdb61b722a4,,,,,,,,,,,,,34,1,,./stim/wavs/cuban_mismatch_interrogative-total-yn_Mi-tia-odia-la-lluvia.wav,,,,,,,,,,,,,,,,,,,,,,434.2208,436.7647,0,0,2.0171,,0,79,79,33,1,1,cuban,,,,,,,,,,,,,,,,,,,,,,,,,,,,,,,,,,,,,,,,,,,,,,,,,,,,,,,,
,,,,,,,,,5c2fcd716ea6880001dc8e3d,Spanish,13 or older,"no, only English or Spanish",no,2025-07-23_08h30.34.842,empathy_intonation_perc,2024.2.4,Linux x86_64,60.24096386,5c2fcd716ea6880001dc8e3d,687ed1b7e638a4cbf2f02089,6880d5936aad0bdb61b722a4,,,,,,,,,,,,,81,0,,./stim/wavs/mexican_mismatch_declarative-broad-focus_La-maestra-vive-en-Paris.wav,,,,,,,,,,,,,,,,,,,,,,436.7657,439.3299,0,1,2.0333,,0,80,80,80,1,0,mexican,,,,,,,,,,,,,,,,,,,,,,,,,,,,,,,,,,,,,,,,,,,,,,,,,,,,,,,,
,,,,,,,,,5c2fcd716ea6880001dc8e3d,Spanish,13 or older,"no, only English or Spanish",no,2025-07-23_08h30.34.842,empathy_intonation_perc,2024.2.4,Linux x86_64,60.24096386,5c2fcd716ea6880001dc8e3d,687ed1b7e638a4cbf2f02089,6880d5936aad0bdb61b722a4,,,,,,,,,,,,,76,0,,./stim/wavs/cuban_mismatch_declarative-broad-focus_La-nina-lava-el-plato.wav,,,,,,,,,,,,,,,,,,,,,,439.3321,441.7763,0,1,1.9133,,0,81,81,75,1,0,cuban,,,,,,,,,,,,,,,,,,,,,,,,,,,,,,,,,,,,,,,,,,,,,,,,,,,,,,,,
,,,,,,,,,5c2fcd716ea6880001dc8e3d,Spanish,13 or older,"no, only English or Spanish",no,2025-07-23_08h30.34.842,empathy_intonation_perc,2024.2.4,Linux x86_64,60.24096386,5c2fcd716ea6880001dc8e3d,687ed1b7e638a4cbf2f02089,6880d5936aad0bdb61b722a4,,,,,,,,,,,,,68,0,,./stim/wavs/puertorican_match_declarative-broad-focus_Maria-bebe-el-vino.wav,,,,,,,,,,,,,,,,,,,,,,441.7778,444.3905,1,0,2.081,,0,82,82,67,1,0,puertorican,,,,,,,,,,,,,,,,,,,,,,,,,,,,,,,,,,,,,,,,,,,,,,,,,,,,,,,,
,,,,,,,,,5c2fcd716ea6880001dc8e3d,Spanish,13 or older,"no, only English or Spanish",no,2025-07-23_08h30.34.842,empathy_intonation_perc,2024.2.4,Linux x86_64,60.24096386,5c2fcd716ea6880001dc8e3d,687ed1b7e638a4cbf2f02089,6880d5936aad0bdb61b722a4,,,,,,,,,,,,,71,0,,./stim/wavs/castilian_mismatch_declarative-broad-focus_La-nina-lava-el-plato.wav,,,,,,,,,,,,,,,,,,,,,,444.3917,447.2378,0,1,2.3169,,0,83,83,70,1,0,castilian,,,,,,,,,,,,,,,,,,,,,,,,,,,,,,,,,,,,,,,,,,,,,,,,,,,,,,,,
,,,,,,,,,5c2fcd716ea6880001dc8e3d,Spanish,13 or older,"no, only English or Spanish",no,2025-07-23_08h30.34.842,empathy_intonation_perc,2024.2.4,Linux x86_64,60.24096386,5c2fcd716ea6880001dc8e3d,687ed1b7e638a4cbf2f02089,6880d5936aad0bdb61b722a4,,,,,,,,,,,,,74,0,,./stim/wavs/cuban_mismatch_declarative-broad-focus_El-bebe-comia-muy-bien.wav,,,,,,,,,,,,,,,,,,,,,,447.2394,449.6527,0,1,1.8839,,0,84,84,73,1,0,cuban,,,,,,,,,,,,,,,,,,,,,,,,,,,,,,,,,,,,,,,,,,,,,,,,,,,,,,,,
,,,,,,,,,5c2fcd716ea6880001dc8e3d,Spanish,13 or older,"no, only English or Spanish",no,2025-07-23_08h30.34.842,empathy_intonation_perc,2024.2.4,Linux x86_64,60.24096386,5c2fcd716ea6880001dc8e3d,687ed1b7e638a4cbf2f02089,6880d5936aad0bdb61b722a4,,,,,,,,,,,,,12,1,,./stim/wavs/cuban_match_interrogative-total-yn_Marta-abre-el-regalo.wav,,,,,,,,,,,,,,,,,,,,,,449.6543,452.1494,0,0,1.9649,,0,85,85,11,1,1,cuban,,,,,,,,,,,,,,,,,,,,,,,,,,,,,,,,,,,,,,,,,,,,,,,,,,,,,,,,
,,,,,,,,,5c2fcd716ea6880001dc8e3d,Spanish,13 or older,"no, only English or Spanish",no,2025-07-23_08h30.34.842,empathy_intonation_perc,2024.2.4,Linux x86_64,60.24096386,5c2fcd716ea6880001dc8e3d,687ed1b7e638a4cbf2f02089,6880d5936aad0bdb61b722a4,,,,,,,,,,,,,62,0,,./stim/wavs/mexican_match_declarative-broad-focus_Marta-abre-el-regalo.wav,,,,,,,,,,,,,,,,,,,,,,452.1508,454.4312,0,1,1.7629,,0,86,86,61,1,0,mexican,,,,,,,,,,,,,,,,,,,,,,,,,,,,,,,,,,,,,,,,,,,,,,,,,,,,,,,,
,,,,,,,,,5c2fcd716ea6880001dc8e3d,Spanish,13 or older,"no, only English or Spanish",no,2025-07-23_08h30.34.842,empathy_intonation_perc,2024.2.4,Linux x86_64,60.24096386,5c2fcd716ea6880001dc8e3d,687ed1b7e638a4cbf2f02089,6880d5936aad0bdb61b722a4,,,,,,,,,,,,,28,1,,./stim/wavs/castilian_mismatch_interrogative-total-yn_Mi-novio-viene-del-lago.wav,,,,,,,,,,,,,,,,,,,,,,454.4324,457.1781,1,1,2.2154,,0,87,87,27,1,0,castilian,,,,,,,,,,,,,,,,,,,,,,,,,,,,,,,,,,,,,,,,,,,,,,,,,,,,,,,,
,,,,,,,"Great! Now we will move on. The next task consists of about 60 trials, in each of which you will see a string of letters. 
  
  Your task is to decide whether this is a real Spanish word or not.", (press the spacebar to continue),5c2fcd716ea6880001dc8e3d,Spanish,13 or older,"no, only English or Spanish",no,2025-07-23_08h30.34.842,empathy_intonation_perc,2024.2.4,Linux x86_64,60.24096386,5c2fcd716ea6880001dc8e3d,687ed1b7e638a4cbf2f02089,6880d5936aad0bdb61b722a4,,,,,,,,,,,,,,,,,,,,,,,,,,,,,,,,,,,,,,,,,,,,,,,,,,,457.1925,463.4067,0,0,0,0,1,,,,,,,,,,,,,,,,,,,,,,,,,,,,,,,,,,,,,,,,,,,,,,,,,
,,,,,,,"If you think it is an existing Spanish word, you type '1' (for 'REAL'), and if you think it is not an existing Spanish word, you type '0' (for 'FAKE').", (press the spacebar to continue),5c2fcd716ea6880001dc8e3d,Spanish,13 or older,"no, only English or Spanish",no,2025-07-23_08h30.34.842,empathy_intonation_perc,2024.2.4,Linux x86_64,60.24096386,5c2fcd716ea6880001dc8e3d,687ed1b7e638a4cbf2f02089,6880d5936aad0bdb61b722a4,,,,,,,,,,,,,,,,,,,,,,,,,,,,,,,,,,,,,,,,,,,,,,,,,,,463.4135,466.7524,0,1,1,1,1,,,,,,,,,,,,,,,,,,,,,,,,,,,,,,,,,,,,,,,,,,,,,,,,,
,,,,,,,"If you are sure that the word exists, even though you don’t know its exact meaning, you may still respond '1' (REAL). 
  
  But if you are not sure if it is an existing word, you should respond '0' (FAKE).
  
  Let's do a practice round...", (press the spacebar to continue),5c2fcd716ea6880001dc8e3d,Spanish,13 or older,"no, only English or Spanish",no,2025-07-23_08h30.34.842,empathy_intonation_perc,2024.2.4,Linux x86_64,60.24096386,5c2fcd716ea6880001dc8e3d,687ed1b7e638a4cbf2f02089,6880d5936aad0bdb61b722a4,,,,,,,,,,,,,,,,,,,,,,,,,,,,,,,,,,,,,,,,,,,,,,,,,,,466.7577,471.0313,0,2,2,2,1,,,,,,,,,,,,,,,,,,,,,,,,,,,,,,,,,,,,,,,,,,,,,,,,,
,,,,,,,,,5c2fcd716ea6880001dc8e3d,Spanish,13 or older,"no, only English or Spanish",no,2025-07-23_08h30.34.842,empathy_intonation_perc,2024.2.4,Linux x86_64,60.24096386,5c2fcd716ea6880001dc8e3d,687ed1b7e638a4cbf2f02089,6880d5936aad0bdb61b722a4,,,,,,,,,,,,,,0,,,,,,,,,,,,,,,,,,,,,,,,,,,,,,,,,,,,,,,,,,,,471.0441,472.9138,0,1,1.3459,,472.9145,473.9124,0,0,0,0,1,0,depiste,REAL,FAKE,,,,,,,,,,,,,,,,,,,,,,,,,,,,,,,,
,,,,,,,,,5c2fcd716ea6880001dc8e3d,Spanish,13 or older,"no, only English or Spanish",no,2025-07-23_08h30.34.842,empathy_intonation_perc,2024.2.4,Linux x86_64,60.24096386,5c2fcd716ea6880001dc8e3d,687ed1b7e638a4cbf2f02089,6880d5936aad0bdb61b722a4,,,,,,,,,,,,,,1,,,,,,,,,,,,,,,,,,,,,,,,,,,,,,,,,,,,,,,,,,,,473.9152,475.6433,1,1,1.1981,,475.6434,476.643,0,1,1,1,1,0,sí,REAL,FAKE,,,,,,,,,,,,,,,,,,,,,,,,,,,,,,,,
,,,,,,,,,5c2fcd716ea6880001dc8e3d,Spanish,13 or older,"no, only English or Spanish",no,2025-07-23_08h30.34.842,empathy_intonation_perc,2024.2.4,Linux x86_64,60.24096386,5c2fcd716ea6880001dc8e3d,687ed1b7e638a4cbf2f02089,6880d5936aad0bdb61b722a4,,,,,,,,,,,,,,0,,,,,,,,,,,,,,,,,,,,,,,,,,,,,,,,,,,,,,,,,,,,476.6478,478.0243,0,1,0.8439,,478.0244,479.0232,0,2,2,2,1,0,coné,REAL,FAKE,,,,,,,,,,,,,,,,,,,,,,,,,,,,,,,,
,,,,,,,,,5c2fcd716ea6880001dc8e3d,Spanish,13 or older,"no, only English or Spanish",no,2025-07-23_08h30.34.842,empathy_intonation_perc,2024.2.4,Linux x86_64,60.24096386,5c2fcd716ea6880001dc8e3d,687ed1b7e638a4cbf2f02089,6880d5936aad0bdb61b722a4,,,,,,,,,,,,,,0,,,,,,,,,,,,,,,,,,,,,,,,,,,,,,,,,,,,,,,,,,,,479.0253,480.7719,0,1,1.2143,,480.772,481.7707,0,3,3,3,1,0,calpar,REAL,FAKE,,,,,,,,,,,,,,,,,,,,,,,,,,,,,,,,
,,,,,,,,,5c2fcd716ea6880001dc8e3d,Spanish,13 or older,"no, only English or Spanish",no,2025-07-23_08h30.34.842,empathy_intonation_perc,2024.2.4,Linux x86_64,60.24096386,5c2fcd716ea6880001dc8e3d,687ed1b7e638a4cbf2f02089,6880d5936aad0bdb61b722a4,,,,,,,,,,,,,,0,,,,,,,,,,,,,,,,,,,,,,,,,,,,,,,,,,,,,,,,,,,,481.7731,482.9694,0,1,0.6611,,482.9695,483.9684,0,4,4,4,1,0,joten,REAL,FAKE,,,,,,,,,,,,,,,,,,,,,,,,,,,,,,,,
,,,,,,,,,5c2fcd716ea6880001dc8e3d,Spanish,13 or older,"no, only English or Spanish",no,2025-07-23_08h30.34.842,empathy_intonation_perc,2024.2.4,Linux x86_64,60.24096386,5c2fcd716ea6880001dc8e3d,687ed1b7e638a4cbf2f02089,6880d5936aad0bdb61b722a4,,,,,,,,,,,,,,1,,,,,,,,,,,,,,,,,,,,,,,,,,,,,,,,,,,,,,,,,,,,483.9702,485.4673,1,1,0.9596,,485.4674,486.4662,0,5,5,5,1,0,sacapuntas,REAL,FAKE,,,,,,,,,,,,,,,,,,,,,,,,,,,,,,,,
,,,,,,,,,5c2fcd716ea6880001dc8e3d,Spanish,13 or older,"no, only English or Spanish",no,2025-07-23_08h30.34.842,empathy_intonation_perc,2024.2.4,Linux x86_64,60.24096386,5c2fcd716ea6880001dc8e3d,687ed1b7e638a4cbf2f02089,6880d5936aad0bdb61b722a4,,,,,,,,,,,,,,0,,,,,,,,,,,,,,,,,,,,,,,,,,,,,,,,,,,,,,,,,,,,486.4683,487.8649,1,0,0.8642,,487.8664,488.8642,0,6,6,6,1,0,priba,REAL,FAKE,,,,,,,,,,,,,,,,,,,,,,,,,,,,,,,,
,,,,,,,,,5c2fcd716ea6880001dc8e3d,Spanish,13 or older,"no, only English or Spanish",no,2025-07-23_08h30.34.842,empathy_intonation_perc,2024.2.4,Linux x86_64,60.24096386,5c2fcd716ea6880001dc8e3d,687ed1b7e638a4cbf2f02089,6880d5936aad0bdb61b722a4,,,,,,,,,,,,,,0,,,,,,,,,,,,,,,,,,,,,,,,,,,,,,,,,,,,,,,,,,,,488.8662,490.163,0,1,0.7606,,490.1651,491.1616,0,7,7,7,1,0,pelasula,REAL,FAKE,,,,,,,,,,,,,,,,,,,,,,,,,,,,,,,,
,,,,,,,,,5c2fcd716ea6880001dc8e3d,Spanish,13 or older,"no, only English or Spanish",no,2025-07-23_08h30.34.842,empathy_intonation_perc,2024.2.4,Linux x86_64,60.24096386,5c2fcd716ea6880001dc8e3d,687ed1b7e638a4cbf2f02089,6880d5936aad0bdb61b722a4,,,,,,,,,,,,,,1,,,,,,,,,,,,,,,,,,,,,,,,,,,,,,,,,,,,,,,,,,,,491.1645,492.6264,1,1,0.9279,,492.6265,493.6256,0,8,8,8,1,0,bien,REAL,FAKE,,,,,,,,,,,,,,,,,,,,,,,,,,,,,,,,
,,,,,,,,,5c2fcd716ea6880001dc8e3d,Spanish,13 or older,"no, only English or Spanish",no,2025-07-23_08h30.34.842,empathy_intonation_perc,2024.2.4,Linux x86_64,60.24096386,5c2fcd716ea6880001dc8e3d,687ed1b7e638a4cbf2f02089,6880d5936aad0bdb61b722a4,,,,,,,,,,,,,,1,,,,,,,,,,,,,,,,,,,,,,,,,,,,,,,,,,,,,,,,,,,,493.6281,494.7749,1,1,0.6141,,494.7749,495.7734,0,9,9,9,1,0,casa,REAL,FAKE,,,,,,,,,,,,,,,,,,,,,,,,,,,,,,,,
,,,,,,,,,5c2fcd716ea6880001dc8e3d,Spanish,13 or older,"no, only English or Spanish",no,2025-07-23_08h30.34.842,empathy_intonation_perc,2024.2.4,Linux x86_64,60.24096386,5c2fcd716ea6880001dc8e3d,687ed1b7e638a4cbf2f02089,6880d5936aad0bdb61b722a4,,,,,,,,,,,,,,0,,,,,,,,,,,,,,,,,,,,,,,,,,,,,,,,,,,,,,,,,,,,495.7756,497.242,1,0,0.9352,,497.2443,498.2397,0,10,10,10,1,0,lejo,REAL,FAKE,,,,,,,,,,,,,,,,,,,,,,,,,,,,,,,,
,,,,,,,,,5c2fcd716ea6880001dc8e3d,Spanish,13 or older,"no, only English or Spanish",no,2025-07-23_08h30.34.842,empathy_intonation_perc,2024.2.4,Linux x86_64,60.24096386,5c2fcd716ea6880001dc8e3d,687ed1b7e638a4cbf2f02089,6880d5936aad0bdb61b722a4,,,,,,,,,,,,,,0,,,,,,,,,,,,,,,,,,,,,,,,,,,,,,,,,,,,,,,,,,,,498.2427,499.5868,1,0,0.812,,499.5869,500.586,0,11,11,11,1,0,pretantas,REAL,FAKE,,,,,,,,,,,,,,,,,,,,,,,,,,,,,,,,
,,,,,,,,,5c2fcd716ea6880001dc8e3d,Spanish,13 or older,"no, only English or Spanish",no,2025-07-23_08h30.34.842,empathy_intonation_perc,2024.2.4,Linux x86_64,60.24096386,5c2fcd716ea6880001dc8e3d,687ed1b7e638a4cbf2f02089,6880d5936aad0bdb61b722a4,,,,,,,,,,,,,,,,,,,,,,,,,,,,,,,,,,,,,,,,,,,,,,,,,,,,,,,,,,,,,,,,,,,,,,,,,,,500.5869,503.6168,,,,,,,,,,,,,,,,,,,,,,,,,,,,,,
,,,,,,,,,5c2fcd716ea6880001dc8e3d,Spanish,13 or older,"no, only English or Spanish",no,2025-07-23_08h30.34.842,empathy_intonation_perc,2024.2.4,Linux x86_64,60.24096386,5c2fcd716ea6880001dc8e3d,687ed1b7e638a4cbf2f02089,6880d5936aad0bdb61b722a4,,,,,,,,,,,,,,1,,,,,,,,,,,,,,,,,,,,,,,,,,,,,,,,,,,,,,,,,,,,,,,,,,,,,,,,,85,laúd,,,,,503.642,505.3644,0,0,1.1892,,0,0,0,84,1,REAL,FAKE,,,,,,,,,,,,,,,,,
,,,,,,,,,5c2fcd716ea6880001dc8e3d,Spanish,13 or older,"no, only English or Spanish",no,2025-07-23_08h30.34.842,empathy_intonation_perc,2024.2.4,Linux x86_64,60.24096386,5c2fcd716ea6880001dc8e3d,687ed1b7e638a4cbf2f02089,6880d5936aad0bdb61b722a4,,,,,,,,,,,,,,0,,,,,,,,,,,,,,,,,,,,,,,,,,,,,,,,,,,,,,,,,,,,,,,,,,,,,,,,,19,brecedad,,,,,505.3668,506.8464,0,1,0.9443,,0,1,1,18,1,REAL,FAKE,,,,,,,,,,,,,,,,,
,,,,,,,,,5c2fcd716ea6880001dc8e3d,Spanish,13 or older,"no, only English or Spanish",no,2025-07-23_08h30.34.842,empathy_intonation_perc,2024.2.4,Linux x86_64,60.24096386,5c2fcd716ea6880001dc8e3d,687ed1b7e638a4cbf2f02089,6880d5936aad0bdb61b722a4,,,,,,,,,,,,,,0,,,,,,,,,,,,,,,,,,,,,,,,,,,,,,,,,,,,,,,,,,,,,,,,,,,,,,,,,27,acutación,,,,,506.8495,508.3445,1,0,0.9644,,0,2,2,26,1,REAL,FAKE,,,,,,,,,,,,,,,,,
,,,,,,,,,5c2fcd716ea6880001dc8e3d,Spanish,13 or older,"no, only English or Spanish",no,2025-07-23_08h30.34.842,empathy_intonation_perc,2024.2.4,Linux x86_64,60.24096386,5c2fcd716ea6880001dc8e3d,687ed1b7e638a4cbf2f02089,6880d5936aad0bdb61b722a4,,,,,,,,,,,,,,1,,,,,,,,,,,,,,,,,,,,,,,,,,,,,,,,,,,,,,,,,,,,,,,,,,,,,,,,,65,bizcocho,,,,,508.3465,509.7598,0,0,0.8835,,0,3,3,64,1,REAL,FAKE,,,,,,,,,,,,,,,,,
,,,,,,,,,5c2fcd716ea6880001dc8e3d,Spanish,13 or older,"no, only English or Spanish",no,2025-07-23_08h30.34.842,empathy_intonation_perc,2024.2.4,Linux x86_64,60.24096386,5c2fcd716ea6880001dc8e3d,687ed1b7e638a4cbf2f02089,6880d5936aad0bdb61b722a4,,,,,,,,,,,,,,0,,,,,,,,,,,,,,,,,,,,,,,,,,,,,,,,,,,,,,,,,,,,,,,,,,,,,,,,,58,plaudir,,,,,509.7618,511.0093,0,1,0.7122,,0,4,4,57,1,REAL,FAKE,,,,,,,,,,,,,,,,,
,,,,,,,,,5c2fcd716ea6880001dc8e3d,Spanish,13 or older,"no, only English or Spanish",no,2025-07-23_08h30.34.842,empathy_intonation_perc,2024.2.4,Linux x86_64,60.24096386,5c2fcd716ea6880001dc8e3d,687ed1b7e638a4cbf2f02089,6880d5936aad0bdb61b722a4,,,,,,,,,,,,,,1,,,,,,,,,,,,,,,,,,,,,,,,,,,,,,,,,,,,,,,,,,,,,,,,,,,,,,,,,52,camisa,,,,,511.0117,512.4256,1,1,0.8837,,0,5,5,51,1,REAL,FAKE,,,,,,,,,,,,,,,,,
,,,,,,,,,5c2fcd716ea6880001dc8e3d,Spanish,13 or older,"no, only English or Spanish",no,2025-07-23_08h30.34.842,empathy_intonation_perc,2024.2.4,Linux x86_64,60.24096386,5c2fcd716ea6880001dc8e3d,687ed1b7e638a4cbf2f02089,6880d5936aad0bdb61b722a4,,,,,,,,,,,,,,1,,,,,,,,,,,,,,,,,,,,,,,,,,,,,,,,,,,,,,,,,,,,,,,,,,,,,,,,,56,musgo,,,,,512.428,514.1725,1,1,1.2097,,0,6,6,55,1,REAL,FAKE,,,,,,,,,,,,,,,,,
,,,,,,,,,5c2fcd716ea6880001dc8e3d,Spanish,13 or older,"no, only English or Spanish",no,2025-07-23_08h30.34.842,empathy_intonation_perc,2024.2.4,Linux x86_64,60.24096386,5c2fcd716ea6880001dc8e3d,687ed1b7e638a4cbf2f02089,6880d5936aad0bdb61b722a4,,,,,,,,,,,,,,0,,,,,,,,,,,,,,,,,,,,,,,,,,,,,,,,,,,,,,,,,,,,,,,,,,,,,,,,,30,alardio,,,,,514.1756,515.7875,1,0,1.0742,,0,7,7,29,1,REAL,FAKE,,,,,,,,,,,,,,,,,
,,,,,,,,,5c2fcd716ea6880001dc8e3d,Spanish,13 or older,"no, only English or Spanish",no,2025-07-23_08h30.34.842,empathy_intonation_perc,2024.2.4,Linux x86_64,60.24096386,5c2fcd716ea6880001dc8e3d,687ed1b7e638a4cbf2f02089,6880d5936aad0bdb61b722a4,,,,,,,,,,,,,,1,,,,,,,,,,,,,,,,,,,,,,,,,,,,,,,,,,,,,,,,,,,,,,,,,,,,,,,,,22,lacayo,,,,,515.7896,517.5706,1,1,1.2483,,0,8,8,21,1,REAL,FAKE,,,,,,,,,,,,,,,,,
,,,,,,,,,5c2fcd716ea6880001dc8e3d,Spanish,13 or older,"no, only English or Spanish",no,2025-07-23_08h30.34.842,empathy_intonation_perc,2024.2.4,Linux x86_64,60.24096386,5c2fcd716ea6880001dc8e3d,687ed1b7e638a4cbf2f02089,6880d5936aad0bdb61b722a4,,,,,,,,,,,,,,0,,,,,,,,,,,,,,,,,,,,,,,,,,,,,,,,,,,,,,,,,,,,,,,,,,,,,,,,,53,vegada,,,,,517.5737,519.4674,0,1,1.3594,,0,9,9,52,1,REAL,FAKE,,,,,,,,,,,,,,,,,
,,,,,,,,,5c2fcd716ea6880001dc8e3d,Spanish,13 or older,"no, only English or Spanish",no,2025-07-23_08h30.34.842,empathy_intonation_perc,2024.2.4,Linux x86_64,60.24096386,5c2fcd716ea6880001dc8e3d,687ed1b7e638a4cbf2f02089,6880d5936aad0bdb61b722a4,,,,,,,,,,,,,,1,,,,,,,,,,,,,,,,,,,,,,,,,,,,,,,,,,,,,,,,,,,,,,,,,,,,,,,,,78,frondoso,,,,,519.4726,521.0992,0,0,1.0947,,0,10,10,77,1,REAL,FAKE,,,,,,,,,,,,,,,,,
,,,,,,,,,5c2fcd716ea6880001dc8e3d,Spanish,13 or older,"no, only English or Spanish",no,2025-07-23_08h30.34.842,empathy_intonation_perc,2024.2.4,Linux x86_64,60.24096386,5c2fcd716ea6880001dc8e3d,687ed1b7e638a4cbf2f02089,6880d5936aad0bdb61b722a4,,,,,,,,,,,,,,1,,,,,,,,,,,,,,,,,,,,,,,,,,,,,,,,,,,,,,,,,,,,,,,,,,,,,,,,,20,ávido,,,,,521.1023,522.516,1,1,0.8832,,0,11,11,19,1,REAL,FAKE,,,,,,,,,,,,,,,,,
,,,,,,,,,5c2fcd716ea6880001dc8e3d,Spanish,13 or older,"no, only English or Spanish",no,2025-07-23_08h30.34.842,empathy_intonation_perc,2024.2.4,Linux x86_64,60.24096386,5c2fcd716ea6880001dc8e3d,687ed1b7e638a4cbf2f02089,6880d5936aad0bdb61b722a4,,,,,,,,,,,,,,1,,,,,,,,,,,,,,,,,,,,,,,,,,,,,,,,,,,,,,,,,,,,,,,,,,,,,,,,,5,zapato,,,,,522.5187,524.2459,1,1,1.1939,,0,12,12,4,1,REAL,FAKE,,,,,,,,,,,,,,,,,
,,,,,,,,,5c2fcd716ea6880001dc8e3d,Spanish,13 or older,"no, only English or Spanish",no,2025-07-23_08h30.34.842,empathy_intonation_perc,2024.2.4,Linux x86_64,60.24096386,5c2fcd716ea6880001dc8e3d,687ed1b7e638a4cbf2f02089,6880d5936aad0bdb61b722a4,,,,,,,,,,,,,,1,,,,,,,,,,,,,,,,,,,,,,,,,,,,,,,,,,,,,,,,,,,,,,,,,,,,,,,,,7,pésimo,,,,,524.2483,525.5611,1,1,0.7765,,0,13,13,6,1,REAL,FAKE,,,,,,,,,,,,,,,,,
,,,,,,,,,5c2fcd716ea6880001dc8e3d,Spanish,13 or older,"no, only English or Spanish",no,2025-07-23_08h30.34.842,empathy_intonation_perc,2024.2.4,Linux x86_64,60.24096386,5c2fcd716ea6880001dc8e3d,687ed1b7e638a4cbf2f02089,6880d5936aad0bdb61b722a4,,,,,,,,,,,,,,1,,,,,,,,,,,,,,,,,,,,,,,,,,,,,,,,,,,,,,,,,,,,,,,,,,,,,,,,,13,helar,,,,,525.5629,526.8264,0,0,0.7316,,0,14,14,12,1,REAL,FAKE,,,,,,,,,,,,,,,,,
,,,,,,,,,5c2fcd716ea6880001dc8e3d,Spanish,13 or older,"no, only English or Spanish",no,2025-07-23_08h30.34.842,empathy_intonation_perc,2024.2.4,Linux x86_64,60.24096386,5c2fcd716ea6880001dc8e3d,687ed1b7e638a4cbf2f02089,6880d5936aad0bdb61b722a4,,,,,,,,,,,,,,1,,,,,,,,,,,,,,,,,,,,,,,,,,,,,,,,,,,,,,,,,,,,,,,,,,,,,,,,,55,nevar,,,,,526.8287,528.4082,0,0,1.0473,,0,15,15,54,1,REAL,FAKE,,,,,,,,,,,,,,,,,
,,,,,,,,,5c2fcd716ea6880001dc8e3d,Spanish,13 or older,"no, only English or Spanish",no,2025-07-23_08h30.34.842,empathy_intonation_perc,2024.2.4,Linux x86_64,60.24096386,5c2fcd716ea6880001dc8e3d,687ed1b7e638a4cbf2f02089,6880d5936aad0bdb61b722a4,,,,,,,,,,,,,,0,,,,,,,,,,,,,,,,,,,,,,,,,,,,,,,,,,,,,,,,,,,,,,,,,,,,,,,,,84,escuto,,,,,528.41,529.8741,1,0,0.9266,,0,16,16,83,1,REAL,FAKE,,,,,,,,,,,,,,,,,
,,,,,,,,,5c2fcd716ea6880001dc8e3d,Spanish,13 or older,"no, only English or Spanish",no,2025-07-23_08h30.34.842,empathy_intonation_perc,2024.2.4,Linux x86_64,60.24096386,5c2fcd716ea6880001dc8e3d,687ed1b7e638a4cbf2f02089,6880d5936aad0bdb61b722a4,,,,,,,,,,,,,,1,,,,,,,,,,,,,,,,,,,,,,,,,,,,,,,,,,,,,,,,,,,,,,,,,,,,,,,,,80,hormiga,,,,,529.8768,531.339,0,0,0.9321,,0,17,17,79,1,REAL,FAKE,,,,,,,,,,,,,,,,,
,,,,,,,,,5c2fcd716ea6880001dc8e3d,Spanish,13 or older,"no, only English or Spanish",no,2025-07-23_08h30.34.842,empathy_intonation_perc,2024.2.4,Linux x86_64,60.24096386,5c2fcd716ea6880001dc8e3d,687ed1b7e638a4cbf2f02089,6880d5936aad0bdb61b722a4,,,,,,,,,,,,,,1,,,,,,,,,,,,,,,,,,,,,,,,,,,,,,,,,,,,,,,,,,,,,,,,,,,,,,,,,36,loro,,,,,531.3415,532.6708,1,1,0.7914,,0,18,18,35,1,REAL,FAKE,,,,,,,,,,,,,,,,,
,,,,,,,,,5c2fcd716ea6880001dc8e3d,Spanish,13 or older,"no, only English or Spanish",no,2025-07-23_08h30.34.842,empathy_intonation_perc,2024.2.4,Linux x86_64,60.24096386,5c2fcd716ea6880001dc8e3d,687ed1b7e638a4cbf2f02089,6880d5936aad0bdb61b722a4,,,,,,,,,,,,,,1,,,,,,,,,,,,,,,,,,,,,,,,,,,,,,,,,,,,,,,,,,,,,,,,,,,,,,,,,71,polvoriento,,,,,532.6732,534.0863,1,1,0.8774,,0,19,19,70,1,REAL,FAKE,,,,,,,,,,,,,,,,,
,,,,,,,,,5c2fcd716ea6880001dc8e3d,Spanish,13 or older,"no, only English or Spanish",no,2025-07-23_08h30.34.842,empathy_intonation_perc,2024.2.4,Linux x86_64,60.24096386,5c2fcd716ea6880001dc8e3d,687ed1b7e638a4cbf2f02089,6880d5936aad0bdb61b722a4,,,,,,,,,,,,,,1,,,,,,,,,,,,,,,,,,,,,,,,,,,,,,,,,,,,,,,,,,,,,,,,,,,,,,,,,40,alfombra,,,,,534.0891,535.5682,1,1,0.9436,,0,20,20,39,1,REAL,FAKE,,,,,,,,,,,,,,,,,
,,,,,,,,,5c2fcd716ea6880001dc8e3d,Spanish,13 or older,"no, only English or Spanish",no,2025-07-23_08h30.34.842,empathy_intonation_perc,2024.2.4,Linux x86_64,60.24096386,5c2fcd716ea6880001dc8e3d,687ed1b7e638a4cbf2f02089,6880d5936aad0bdb61b722a4,,,,,,,,,,,,,,1,,,,,,,,,,,,,,,,,,,,,,,,,,,,,,,,,,,,,,,,,,,,,,,,,,,,,,,,,83,guante,,,,,535.57,537.0834,0,0,0.9796,,0,21,21,82,1,REAL,FAKE,,,,,,,,,,,,,,,,,
,,,,,,,,,5c2fcd716ea6880001dc8e3d,Spanish,13 or older,"no, only English or Spanish",no,2025-07-23_08h30.34.842,empathy_intonation_perc,2024.2.4,Linux x86_64,60.24096386,5c2fcd716ea6880001dc8e3d,687ed1b7e638a4cbf2f02089,6880d5936aad0bdb61b722a4,,,,,,,,,,,,,,0,,,,,,,,,,,,,,,,,,,,,,,,,,,,,,,,,,,,,,,,,,,,,,,,,,,,,,,,,87,grodo,,,,,537.086,538.6314,0,1,1.0096,,0,22,22,86,1,REAL,FAKE,,,,,,,,,,,,,,,,,
,,,,,,,,,5c2fcd716ea6880001dc8e3d,Spanish,13 or older,"no, only English or Spanish",no,2025-07-23_08h30.34.842,empathy_intonation_perc,2024.2.4,Linux x86_64,60.24096386,5c2fcd716ea6880001dc8e3d,687ed1b7e638a4cbf2f02089,6880d5936aad0bdb61b722a4,,,,,,,,,,,,,,1,,,,,,,,,,,,,,,,,,,,,,,,,,,,,,,,,,,,,,,,,,,,,,,,,,,,,,,,,24,látigo,,,,,538.6334,539.9971,1,1,0.8252,,0,23,23,23,1,REAL,FAKE,,,,,,,,,,,,,,,,,
,,,,,,,,,5c2fcd716ea6880001dc8e3d,Spanish,13 or older,"no, only English or Spanish",no,2025-07-23_08h30.34.842,empathy_intonation_perc,2024.2.4,Linux x86_64,60.24096386,5c2fcd716ea6880001dc8e3d,687ed1b7e638a4cbf2f02089,6880d5936aad0bdb61b722a4,,,,,,,,,,,,,,0,,,,,,,,,,,,,,,,,,,,,,,,,,,,,,,,,,,,,,,,,,,,,,,,,,,,,,,,,50,flamida,,,,,539.9997,541.5483,1,0,1.0101,,0,24,24,49,1,REAL,FAKE,,,,,,,,,,,,,,,,,
,,,,,,,,,5c2fcd716ea6880001dc8e3d,Spanish,13 or older,"no, only English or Spanish",no,2025-07-23_08h30.34.842,empathy_intonation_perc,2024.2.4,Linux x86_64,60.24096386,5c2fcd716ea6880001dc8e3d,687ed1b7e638a4cbf2f02089,6880d5936aad0bdb61b722a4,,,,,,,,,,,,,,1,,,,,,,,,,,,,,,,,,,,,,,,,,,,,,,,,,,,,,,,,,,,,,,,,,,,,,,,,31,pandilla,,,,,541.551,542.7614,1,1,0.6815,,0,25,25,30,1,REAL,FAKE,,,,,,,,,,,,,,,,,
,,,,,,,,,5c2fcd716ea6880001dc8e3d,Spanish,13 or older,"no, only English or Spanish",no,2025-07-23_08h30.34.842,empathy_intonation_perc,2024.2.4,Linux x86_64,60.24096386,5c2fcd716ea6880001dc8e3d,687ed1b7e638a4cbf2f02089,6880d5936aad0bdb61b722a4,,,,,,,,,,,,,,0,,,,,,,,,,,,,,,,,,,,,,,,,,,,,,,,,,,,,,,,,,,,,,,,,,,,,,,,,16,abracer,,,,,542.7639,544.193,0,1,0.8964,,0,26,26,15,1,REAL,FAKE,,,,,,,,,,,,,,,,,
,,,,,,,,,5c2fcd716ea6880001dc8e3d,Spanish,13 or older,"no, only English or Spanish",no,2025-07-23_08h30.34.842,empathy_intonation_perc,2024.2.4,Linux x86_64,60.24096386,5c2fcd716ea6880001dc8e3d,687ed1b7e638a4cbf2f02089,6880d5936aad0bdb61b722a4,,,,,,,,,,,,,,0,,,,,,,,,,,,,,,,,,,,,,,,,,,,,,,,,,,,,,,,,,,,,,,,,,,,,,,,,35,rompido,,,,,544.1952,545.7775,1,0,1.0467,,0,27,27,34,1,REAL,FAKE,,,,,,,,,,,,,,,,,
,,,,,,,,,5c2fcd716ea6880001dc8e3d,Spanish,13 or older,"no, only English or Spanish",no,2025-07-23_08h30.34.842,empathy_intonation_perc,2024.2.4,Linux x86_64,60.24096386,5c2fcd716ea6880001dc8e3d,687ed1b7e638a4cbf2f02089,6880d5936aad0bdb61b722a4,,,,,,,,,,,,,,1,,,,,,,,,,,,,,,,,,,,,,,,,,,,,,,,,,,,,,,,,,,,,,,,,,,,,,,,,25,bisagra,,,,,545.7799,547.357,1,1,1.0458,,0,28,28,24,1,REAL,FAKE,,,,,,,,,,,,,,,,,
,,,,,,,,,5c2fcd716ea6880001dc8e3d,Spanish,13 or older,"no, only English or Spanish",no,2025-07-23_08h30.34.842,empathy_intonation_perc,2024.2.4,Linux x86_64,60.24096386,5c2fcd716ea6880001dc8e3d,687ed1b7e638a4cbf2f02089,6880d5936aad0bdb61b722a4,,,,,,,,,,,,,,0,,,,,,,,,,,,,,,,,,,,,,,,,,,,,,,,,,,,,,,,,,,,,,,,,,,,,,,,,23,lampera,,,,,547.3589,548.6553,1,0,0.7635,,0,29,29,22,1,REAL,FAKE,,,,,,,,,,,,,,,,,
,,,,,,,,,5c2fcd716ea6880001dc8e3d,Spanish,13 or older,"no, only English or Spanish",no,2025-07-23_08h30.34.842,empathy_intonation_perc,2024.2.4,Linux x86_64,60.24096386,5c2fcd716ea6880001dc8e3d,687ed1b7e638a4cbf2f02089,6880d5936aad0bdb61b722a4,,,,,,,,,,,,,,1,,,,,,,,,,,,,,,,,,,,,,,,,,,,,,,,,,,,,,,,,,,,,,,,,,,,,,,,,11,cenefa,,,,,548.6574,550.0229,1,1,0.8324,,0,30,30,10,1,REAL,FAKE,,,,,,,,,,,,,,,,,
,,,,,,,,,5c2fcd716ea6880001dc8e3d,Spanish,13 or older,"no, only English or Spanish",no,2025-07-23_08h30.34.842,empathy_intonation_perc,2024.2.4,Linux x86_64,60.24096386,5c2fcd716ea6880001dc8e3d,687ed1b7e638a4cbf2f02089,6880d5936aad0bdb61b722a4,,,,,,,,,,,,,,1,,,,,,,,,,,,,,,,,,,,,,,,,,,,,,,,,,,,,,,,,,,,,,,,,,,,,,,,,67,cabello,,,,,550.0259,551.3856,1,1,0.8256,,0,31,31,66,1,REAL,FAKE,,,,,,,,,,,,,,,,,
,,,,,,,,,5c2fcd716ea6880001dc8e3d,Spanish,13 or older,"no, only English or Spanish",no,2025-07-23_08h30.34.842,empathy_intonation_perc,2024.2.4,Linux x86_64,60.24096386,5c2fcd716ea6880001dc8e3d,687ed1b7e638a4cbf2f02089,6880d5936aad0bdb61b722a4,,,,,,,,,,,,,,1,,,,,,,,,,,,,,,,,,,,,,,,,,,,,,,,,,,,,,,,,,,,,,,,,,,,,,,,,12,asesinato,,,,,551.3875,552.8382,1,1,0.9174,,0,32,32,11,1,REAL,FAKE,,,,,,,,,,,,,,,,,
,,,,,,,,,5c2fcd716ea6880001dc8e3d,Spanish,13 or older,"no, only English or Spanish",no,2025-07-23_08h30.34.842,empathy_intonation_perc,2024.2.4,Linux x86_64,60.24096386,5c2fcd716ea6880001dc8e3d,687ed1b7e638a4cbf2f02089,6880d5936aad0bdb61b722a4,,,,,,,,,,,,,,0,,,,,,,,,,,,,,,,,,,,,,,,,,,,,,,,,,,,,,,,,,,,,,,,,,,,,,,,,63,esposante,,,,,552.8414,554.2834,1,0,0.9121,,0,33,33,62,1,REAL,FAKE,,,,,,,,,,,,,,,,,
,,,,,,,,,5c2fcd716ea6880001dc8e3d,Spanish,13 or older,"no, only English or Spanish",no,2025-07-23_08h30.34.842,empathy_intonation_perc,2024.2.4,Linux x86_64,60.24096386,5c2fcd716ea6880001dc8e3d,687ed1b7e638a4cbf2f02089,6880d5936aad0bdb61b722a4,,,,,,,,,,,,,,0,,,,,,,,,,,,,,,,,,,,,,,,,,,,,,,,,,,,,,,,,,,,,,,,,,,,,,,,,1,terzo,,,,,554.287,555.5317,0,1,0.714,,0,34,34,0,1,REAL,FAKE,,,,,,,,,,,,,,,,,
,,,,,,,,,5c2fcd716ea6880001dc8e3d,Spanish,13 or older,"no, only English or Spanish",no,2025-07-23_08h30.34.842,empathy_intonation_perc,2024.2.4,Linux x86_64,60.24096386,5c2fcd716ea6880001dc8e3d,687ed1b7e638a4cbf2f02089,6880d5936aad0bdb61b722a4,,,,,,,,,,,,,,1,,,,,,,,,,,,,,,,,,,,,,,,,,,,,,,,,,,,,,,,,,,,,,,,,,,,,,,,,54,fomentar,,,,,555.536,556.8994,0,0,0.8285,,0,35,35,53,1,REAL,FAKE,,,,,,,,,,,,,,,,,
,,,,,,,,,5c2fcd716ea6880001dc8e3d,Spanish,13 or older,"no, only English or Spanish",no,2025-07-23_08h30.34.842,empathy_intonation_perc,2024.2.4,Linux x86_64,60.24096386,5c2fcd716ea6880001dc8e3d,687ed1b7e638a4cbf2f02089,6880d5936aad0bdb61b722a4,,,,,,,,,,,,,,1,,,,,,,,,,,,,,,,,,,,,,,,,,,,,,,,,,,,,,,,,,,,,,,,,,,,,,,,,88,acantilado,,,,,556.9014,558.5122,0,0,1.0764,,0,36,36,87,1,REAL,FAKE,,,,,,,,,,,,,,,,,
,,,,,,,,,5c2fcd716ea6880001dc8e3d,Spanish,13 or older,"no, only English or Spanish",no,2025-07-23_08h30.34.842,empathy_intonation_perc,2024.2.4,Linux x86_64,60.24096386,5c2fcd716ea6880001dc8e3d,687ed1b7e638a4cbf2f02089,6880d5936aad0bdb61b722a4,,,,,,,,,,,,,,1,,,,,,,,,,,,,,,,,,,,,,,,,,,,,,,,,,,,,,,,,,,,,,,,,,,,,,,,,43,canela,,,,,558.5142,559.6779,1,1,0.6277,,0,37,37,42,1,REAL,FAKE,,,,,,,,,,,,,,,,,
,,,,,,,,,5c2fcd716ea6880001dc8e3d,Spanish,13 or older,"no, only English or Spanish",no,2025-07-23_08h30.34.842,empathy_intonation_perc,2024.2.4,Linux x86_64,60.24096386,5c2fcd716ea6880001dc8e3d,687ed1b7e638a4cbf2f02089,6880d5936aad0bdb61b722a4,,,,,,,,,,,,,,0,,,,,,,,,,,,,,,,,,,,,,,,,,,,,,,,,,,,,,,,,,,,,,,,,,,,,,,,,33,pauca,,,,,559.6801,561.1431,0,1,0.9295,,0,38,38,32,1,REAL,FAKE,,,,,,,,,,,,,,,,,
,,,,,,,,,5c2fcd716ea6880001dc8e3d,Spanish,13 or older,"no, only English or Spanish",no,2025-07-23_08h30.34.842,empathy_intonation_perc,2024.2.4,Linux x86_64,60.24096386,5c2fcd716ea6880001dc8e3d,687ed1b7e638a4cbf2f02089,6880d5936aad0bdb61b722a4,,,,,,,,,,,,,,0,,,,,,,,,,,,,,,,,,,,,,,,,,,,,,,,,,,,,,,,,,,,,,,,,,,,,,,,,29,decar,,,,,561.1462,562.5248,0,1,0.8461,,0,39,39,28,1,REAL,FAKE,,,,,,,,,,,,,,,,,
,,,,,,,,,5c2fcd716ea6880001dc8e3d,Spanish,13 or older,"no, only English or Spanish",no,2025-07-23_08h30.34.842,empathy_intonation_perc,2024.2.4,Linux x86_64,60.24096386,5c2fcd716ea6880001dc8e3d,687ed1b7e638a4cbf2f02089,6880d5936aad0bdb61b722a4,,,,,,,,,,,,,,0,,,,,,,,,,,,,,,,,,,,,,,,,,,,,,,,,,,,,,,,,,,,,,,,,,,,,,,,,72,pemición,,,,,562.5267,563.8569,1,0,0.7946,,0,40,40,71,1,REAL,FAKE,,,,,,,,,,,,,,,,,
,,,,,,,,,5c2fcd716ea6880001dc8e3d,Spanish,13 or older,"no, only English or Spanish",no,2025-07-23_08h30.34.842,empathy_intonation_perc,2024.2.4,Linux x86_64,60.24096386,5c2fcd716ea6880001dc8e3d,687ed1b7e638a4cbf2f02089,6880d5936aad0bdb61b722a4,,,,,,,,,,,,,,1,,,,,,,,,,,,,,,,,,,,,,,,,,,,,,,,,,,,,,,,,,,,,,,,,,,,,,,,,2,pellizcar,,,,,563.8591,565.4055,0,0,1.011,,0,41,41,1,1,REAL,FAKE,,,,,,,,,,,,,,,,,
,,,,,,,,,5c2fcd716ea6880001dc8e3d,Spanish,13 or older,"no, only English or Spanish",no,2025-07-23_08h30.34.842,empathy_intonation_perc,2024.2.4,Linux x86_64,60.24096386,5c2fcd716ea6880001dc8e3d,687ed1b7e638a4cbf2f02089,6880d5936aad0bdb61b722a4,,,,,,,,,,,,,,0,,,,,,,,,,,,,,,,,,,,,,,,,,,,,,,,,,,,,,,,,,,,,,,,,,,,,,,,,4,batillón,,,,,565.4081,566.8721,1,0,0.9338,,0,42,42,3,1,REAL,FAKE,,,,,,,,,,,,,,,,,
,,,,,,,,,5c2fcd716ea6880001dc8e3d,Spanish,13 or older,"no, only English or Spanish",no,2025-07-23_08h30.34.842,empathy_intonation_perc,2024.2.4,Linux x86_64,60.24096386,5c2fcd716ea6880001dc8e3d,687ed1b7e638a4cbf2f02089,6880d5936aad0bdb61b722a4,,,,,,,,,,,,,,0,,,,,,,,,,,,,,,,,,,,,,,,,,,,,,,,,,,,,,,,,,,,,,,,,,,,,,,,,70,temblo,,,,,566.8741,568.186,0,1,0.7796,,0,43,43,69,1,REAL,FAKE,,,,,,,,,,,,,,,,,
,,,,,,,,,5c2fcd716ea6880001dc8e3d,Spanish,13 or older,"no, only English or Spanish",no,2025-07-23_08h30.34.842,empathy_intonation_perc,2024.2.4,Linux x86_64,60.24096386,5c2fcd716ea6880001dc8e3d,687ed1b7e638a4cbf2f02089,6880d5936aad0bdb61b722a4,,,,,,,,,,,,,,1,,,,,,,,,,,,,,,,,,,,,,,,,,,,,,,,,,,,,,,,,,,,,,,,,,,,,,,,,60,matar,,,,,568.1887,569.6704,0,0,0.9519,,0,44,44,59,1,REAL,FAKE,,,,,,,,,,,,,,,,,
,,,,,,,,,5c2fcd716ea6880001dc8e3d,Spanish,13 or older,"no, only English or Spanish",no,2025-07-23_08h30.34.842,empathy_intonation_perc,2024.2.4,Linux x86_64,60.24096386,5c2fcd716ea6880001dc8e3d,687ed1b7e638a4cbf2f02089,6880d5936aad0bdb61b722a4,,,,,,,,,,,,,,1,,,,,,,,,,,,,,,,,,,,,,,,,,,,,,,,,,,,,,,,,,,,,,,,,,,,,,,,,59,besar,,,,,569.6726,570.9339,1,1,0.7319,,0,45,45,58,1,REAL,FAKE,,,,,,,,,,,,,,,,,
,,,,,,,,,5c2fcd716ea6880001dc8e3d,Spanish,13 or older,"no, only English or Spanish",no,2025-07-23_08h30.34.842,empathy_intonation_perc,2024.2.4,Linux x86_64,60.24096386,5c2fcd716ea6880001dc8e3d,687ed1b7e638a4cbf2f02089,6880d5936aad0bdb61b722a4,,,,,,,,,,,,,,1,,,,,,,,,,,,,,,,,,,,,,,,,,,,,,,,,,,,,,,,,,,,,,,,,,,,,,,,,28,merodear,,,,,570.9366,572.3152,0,0,0.8459,,0,46,46,27,1,REAL,FAKE,,,,,,,,,,,,,,,,,
,,,,,,,,,5c2fcd716ea6880001dc8e3d,Spanish,13 or older,"no, only English or Spanish",no,2025-07-23_08h30.34.842,empathy_intonation_perc,2024.2.4,Linux x86_64,60.24096386,5c2fcd716ea6880001dc8e3d,687ed1b7e638a4cbf2f02089,6880d5936aad0bdb61b722a4,,,,,,,,,,,,,,1,,,,,,,,,,,,,,,,,,,,,,,,,,,,,,,,,,,,,,,,,,,,,,,,,,,,,,,,,61,seda,,,,,572.3171,573.6472,1,1,0.7934,,0,47,47,60,1,REAL,FAKE,,,,,,,,,,,,,,,,,
,,,,,,,,,5c2fcd716ea6880001dc8e3d,Spanish,13 or older,"no, only English or Spanish",no,2025-07-23_08h30.34.842,empathy_intonation_perc,2024.2.4,Linux x86_64,60.24096386,5c2fcd716ea6880001dc8e3d,687ed1b7e638a4cbf2f02089,6880d5936aad0bdb61b722a4,,,,,,,,,,,,,,0,,,,,,,,,,,,,,,,,,,,,,,,,,,,,,,,,,,,,,,,,,,,,,,,,,,,,,,,,66,hacido,,,,,573.6491,574.8468,1,0,0.6614,,0,48,48,65,1,REAL,FAKE,,,,,,,,,,,,,,,,,
,,,,,,,,,5c2fcd716ea6880001dc8e3d,Spanish,13 or older,"no, only English or Spanish",no,2025-07-23_08h30.34.842,empathy_intonation_perc,2024.2.4,Linux x86_64,60.24096386,5c2fcd716ea6880001dc8e3d,687ed1b7e638a4cbf2f02089,6880d5936aad0bdb61b722a4,,,,,,,,,,,,,,1,,,,,,,,,,,,,,,,,,,,,,,,,,,,,,,,,,,,,,,,,,,,,,,,,,,,,,,,,37,granuja,,,,,574.8489,576.0619,0,0,0.678,,0,49,49,36,1,REAL,FAKE,,,,,,,,,,,,,,,,,
,,,,,,,,,5c2fcd716ea6880001dc8e3d,Spanish,13 or older,"no, only English or Spanish",no,2025-07-23_08h30.34.842,empathy_intonation_perc,2024.2.4,Linux x86_64,60.24096386,5c2fcd716ea6880001dc8e3d,687ed1b7e638a4cbf2f02089,6880d5936aad0bdb61b722a4,,,,,,,,,,,,,,1,,,,,,,,,,,,,,,,,,,,,,,,,,,,,,,,,,,,,,,,,,,,,,,,,,,,,,,,,49,ganar,,,,,576.0647,577.2771,0,0,0.6785,,0,50,50,48,1,REAL,FAKE,,,,,,,,,,,,,,,,,
,,,,,,,,,5c2fcd716ea6880001dc8e3d,Spanish,13 or older,"no, only English or Spanish",no,2025-07-23_08h30.34.842,empathy_intonation_perc,2024.2.4,Linux x86_64,60.24096386,5c2fcd716ea6880001dc8e3d,687ed1b7e638a4cbf2f02089,6880d5936aad0bdb61b722a4,,,,,,,,,,,,,,1,,,,,,,,,,,,,,,,,,,,,,,,,,,,,,,,,,,,,,,,,,,,,,,,,,,,,,,,,26,secuestro,,,,,577.2793,578.6925,1,1,0.8751,,0,51,51,25,1,REAL,FAKE,,,,,,,,,,,,,,,,,
,,,,,,,,,5c2fcd716ea6880001dc8e3d,Spanish,13 or older,"no, only English or Spanish",no,2025-07-23_08h30.34.842,empathy_intonation_perc,2024.2.4,Linux x86_64,60.24096386,5c2fcd716ea6880001dc8e3d,687ed1b7e638a4cbf2f02089,6880d5936aad0bdb61b722a4,,,,,,,,,,,,,,1,,,,,,,,,,,,,,,,,,,,,,,,,,,,,,,,,,,,,,,,,,,,,,,,,,,,,,,,,14,yunque,,,,,578.696,579.9414,0,0,0.7118,,0,52,52,13,1,REAL,FAKE,,,,,,,,,,,,,,,,,
,,,,,,,,,5c2fcd716ea6880001dc8e3d,Spanish,13 or older,"no, only English or Spanish",no,2025-07-23_08h30.34.842,empathy_intonation_perc,2024.2.4,Linux x86_64,60.24096386,5c2fcd716ea6880001dc8e3d,687ed1b7e638a4cbf2f02089,6880d5936aad0bdb61b722a4,,,,,,,,,,,,,,1,,,,,,,,,,,,,,,,,,,,,,,,,,,,,,,,,,,,,,,,,,,,,,,,,,,,,,,,,51,candado,,,,,579.9466,581.1566,1,1,0.6793,,0,53,53,50,1,REAL,FAKE,,,,,,,,,,,,,,,,,
,,,,,,,,,5c2fcd716ea6880001dc8e3d,Spanish,13 or older,"no, only English or Spanish",no,2025-07-23_08h30.34.842,empathy_intonation_perc,2024.2.4,Linux x86_64,60.24096386,5c2fcd716ea6880001dc8e3d,687ed1b7e638a4cbf2f02089,6880d5936aad0bdb61b722a4,,,,,,,,,,,,,,1,,,,,,,,,,,,,,,,,,,,,,,,,,,,,,,,,,,,,,,,,,,,,,,,,,,,,,,,,39,torpe,,,,,581.1585,582.4388,0,0,0.7446,,0,54,54,38,1,REAL,FAKE,,,,,,,,,,,,,,,,,
,,,,,,,,,5c2fcd716ea6880001dc8e3d,Spanish,13 or older,"no, only English or Spanish",no,2025-07-23_08h30.34.842,empathy_intonation_perc,2024.2.4,Linux x86_64,60.24096386,5c2fcd716ea6880001dc8e3d,687ed1b7e638a4cbf2f02089,6880d5936aad0bdb61b722a4,,,,,,,,,,,,,,0,,,,,,,,,,,,,,,,,,,,,,,,,,,,,,,,,,,,,,,,,,,,,,,,,,,,,,,,,74,cintro,,,,,582.4408,583.6877,0,1,0.7116,,0,55,55,73,1,REAL,FAKE,,,,,,,,,,,,,,,,,
,,,,,,,,,5c2fcd716ea6880001dc8e3d,Spanish,13 or older,"no, only English or Spanish",no,2025-07-23_08h30.34.842,empathy_intonation_perc,2024.2.4,Linux x86_64,60.24096386,5c2fcd716ea6880001dc8e3d,687ed1b7e638a4cbf2f02089,6880d5936aad0bdb61b722a4,,,,,,,,,,,,,,1,,,,,,,,,,,,,,,,,,,,,,,,,,,,,,,,,,,,,,,,,,,,,,,,,,,,,,,,,6,tergiversar,,,,,583.6899,585.0879,0,0,0.8618,,0,56,56,5,1,REAL,FAKE,,,,,,,,,,,,,,,,,
,,,,,,,,,5c2fcd716ea6880001dc8e3d,Spanish,13 or older,"no, only English or Spanish",no,2025-07-23_08h30.34.842,empathy_intonation_perc,2024.2.4,Linux x86_64,60.24096386,5c2fcd716ea6880001dc8e3d,687ed1b7e638a4cbf2f02089,6880d5936aad0bdb61b722a4,,,,,,,,,,,,,,0,,,,,,,,,,,,,,,,,,,,,,,,,,,,,,,,,,,,,,,,,,,,,,,,,,,,,,,,,42,cadallo,,,,,585.0902,586.5684,0,1,0.9389,,0,57,57,41,1,REAL,FAKE,,,,,,,,,,,,,,,,,
,,,,,,,,,5c2fcd716ea6880001dc8e3d,Spanish,13 or older,"no, only English or Spanish",no,2025-07-23_08h30.34.842,empathy_intonation_perc,2024.2.4,Linux x86_64,60.24096386,5c2fcd716ea6880001dc8e3d,687ed1b7e638a4cbf2f02089,6880d5936aad0bdb61b722a4,,,,,,,,,,,,,,1,,,,,,,,,,,,,,,,,,,,,,,,,,,,,,,,,,,,,,,,,,,,,,,,,,,,,,,,,64,orgulloso,,,,,586.5706,587.9337,0,0,0.8252,,0,58,58,63,1,REAL,FAKE,,,,,,,,,,,,,,,,,
,,,,,,,,,5c2fcd716ea6880001dc8e3d,Spanish,13 or older,"no, only English or Spanish",no,2025-07-23_08h30.34.842,empathy_intonation_perc,2024.2.4,Linux x86_64,60.24096386,5c2fcd716ea6880001dc8e3d,687ed1b7e638a4cbf2f02089,6880d5936aad0bdb61b722a4,,,,,,,,,,,,,,0,,,,,,,,,,,,,,,,,,,,,,,,,,,,,,,,,,,,,,,,,,,,,,,,,,,,,,,,,10,antar,,,,,587.9366,589.915,1,0,1.4422,,0,59,59,9,1,REAL,FAKE,,,,,,,,,,,,,,,,,
,,,,,,,,,5c2fcd716ea6880001dc8e3d,Spanish,13 or older,"no, only English or Spanish",no,2025-07-23_08h30.34.842,empathy_intonation_perc,2024.2.4,Linux x86_64,60.24096386,5c2fcd716ea6880001dc8e3d,687ed1b7e638a4cbf2f02089,6880d5936aad0bdb61b722a4,,,,,,,,,,,,,,1,,,,,,,,,,,,,,,,,,,,,,,,,,,,,,,,,,,,,,,,,,,,,,,,,,,,,,,,,76,atar,,,,,589.9182,591.3998,0,0,0.9482,,0,60,60,75,1,REAL,FAKE,,,,,,,,,,,,,,,,,
,,,,,,,,,5c2fcd716ea6880001dc8e3d,Spanish,13 or older,"no, only English or Spanish",no,2025-07-23_08h30.34.842,empathy_intonation_perc,2024.2.4,Linux x86_64,60.24096386,5c2fcd716ea6880001dc8e3d,687ed1b7e638a4cbf2f02089,6880d5936aad0bdb61b722a4,,,,,,,,,,,,,,0,,,,,,,,,,,,,,,,,,,,,,,,,,,,,,,,,,,,,,,,,,,,,,,,,,,,,,,,,82,empirador,,,,,591.4019,592.6785,1,0,0.7438,,0,61,61,81,1,REAL,FAKE,,,,,,,,,,,,,,,,,
,,,,,,,,,5c2fcd716ea6880001dc8e3d,Spanish,13 or older,"no, only English or Spanish",no,2025-07-23_08h30.34.842,empathy_intonation_perc,2024.2.4,Linux x86_64,60.24096386,5c2fcd716ea6880001dc8e3d,687ed1b7e638a4cbf2f02089,6880d5936aad0bdb61b722a4,,,,,,,,,,,,,,1,,,,,,,,,,,,,,,,,,,,,,,,,,,,,,,,,,,,,,,,,,,,,,,,,,,,,,,,,57,tacaño,,,,,592.6804,593.9615,1,1,0.7503,,0,62,62,56,1,REAL,FAKE,,,,,,,,,,,,,,,,,
,,,,,,,,,5c2fcd716ea6880001dc8e3d,Spanish,13 or older,"no, only English or Spanish",no,2025-07-23_08h30.34.842,empathy_intonation_perc,2024.2.4,Linux x86_64,60.24096386,5c2fcd716ea6880001dc8e3d,687ed1b7e638a4cbf2f02089,6880d5936aad0bdb61b722a4,,,,,,,,,,,,,,1,,,,,,,,,,,,,,,,,,,,,,,,,,,,,,,,,,,,,,,,,,,,,,,,,,,,,,,,,69,engatusar,,,,,593.9637,595.2101,1,1,0.7131,,0,63,63,68,1,REAL,FAKE,,,,,,,,,,,,,,,,,
,,,,,,,,,5c2fcd716ea6880001dc8e3d,Spanish,13 or older,"no, only English or Spanish",no,2025-07-23_08h30.34.842,empathy_intonation_perc,2024.2.4,Linux x86_64,60.24096386,5c2fcd716ea6880001dc8e3d,687ed1b7e638a4cbf2f02089,6880d5936aad0bdb61b722a4,,,,,,,,,,,,,,1,,,,,,,,,,,,,,,,,,,,,,,,,,,,,,,,,,,,,,,,,,,,,,,,,,,,,,,,,15,regar,,,,,595.2121,596.3915,0,0,0.6456,,0,64,64,14,1,REAL,FAKE,,,,,,,,,,,,,,,,,
,,,,,,,,,5c2fcd716ea6880001dc8e3d,Spanish,13 or older,"no, only English or Spanish",no,2025-07-23_08h30.34.842,empathy_intonation_perc,2024.2.4,Linux x86_64,60.24096386,5c2fcd716ea6880001dc8e3d,687ed1b7e638a4cbf2f02089,6880d5936aad0bdb61b722a4,,,,,,,,,,,,,,1,,,,,,,,,,,,,,,,,,,,,,,,,,,,,,,,,,,,,,,,,,,,,,,,,,,,,,,,,45,jilguero,,,,,596.3933,597.7913,1,1,0.8635,,0,65,65,44,1,REAL,FAKE,,,,,,,,,,,,,,,,,
,,,,,,,,,5c2fcd716ea6880001dc8e3d,Spanish,13 or older,"no, only English or Spanish",no,2025-07-23_08h30.34.842,empathy_intonation_perc,2024.2.4,Linux x86_64,60.24096386,5c2fcd716ea6880001dc8e3d,687ed1b7e638a4cbf2f02089,6880d5936aad0bdb61b722a4,,,,,,,,,,,,,,0,,,,,,,,,,,,,,,,,,,,,,,,,,,,,,,,,,,,,,,,,,,,,,,,,,,,,,,,,8,cadeña,,,,,597.7947,598.9396,1,0,0.6151,,0,66,66,7,1,REAL,FAKE,,,,,,,,,,,,,,,,,
,,,,,,,,,5c2fcd716ea6880001dc8e3d,Spanish,13 or older,"no, only English or Spanish",no,2025-07-23_08h30.34.842,empathy_intonation_perc,2024.2.4,Linux x86_64,60.24096386,5c2fcd716ea6880001dc8e3d,687ed1b7e638a4cbf2f02089,6880d5936aad0bdb61b722a4,,,,,,,,,,,,,,0,,,,,,,,,,,,,,,,,,,,,,,,,,,,,,,,,,,,,,,,,,,,,,,,,,,,,,,,,18,arsa,,,,,598.9414,600.0574,0,1,0.586,,0,67,67,17,1,REAL,FAKE,,,,,,,,,,,,,,,,,
,,,,,,,,,5c2fcd716ea6880001dc8e3d,Spanish,13 or older,"no, only English or Spanish",no,2025-07-23_08h30.34.842,empathy_intonation_perc,2024.2.4,Linux x86_64,60.24096386,5c2fcd716ea6880001dc8e3d,687ed1b7e638a4cbf2f02089,6880d5936aad0bdb61b722a4,,,,,,,,,,,,,,1,,,,,,,,,,,,,,,,,,,,,,,,,,,,,,,,,,,,,,,,,,,,,,,,,,,,,,,,,48,ladrón,,,,,600.0593,601.3035,0,0,0.71,,0,68,68,47,1,REAL,FAKE,,,,,,,,,,,,,,,,,
,,,,,,,,,5c2fcd716ea6880001dc8e3d,Spanish,13 or older,"no, only English or Spanish",no,2025-07-23_08h30.34.842,empathy_intonation_perc,2024.2.4,Linux x86_64,60.24096386,5c2fcd716ea6880001dc8e3d,687ed1b7e638a4cbf2f02089,6880d5936aad0bdb61b722a4,,,,,,,,,,,,,,0,,,,,,,,,,,,,,,,,,,,,,,,,,,,,,,,,,,,,,,,,,,,,,,,,,,,,,,,,79,tropaje,,,,,601.3056,602.5198,0,1,0.6838,,0,69,69,78,1,REAL,FAKE,,,,,,,,,,,,,,,,,
,,,,,,,,,5c2fcd716ea6880001dc8e3d,Spanish,13 or older,"no, only English or Spanish",no,2025-07-23_08h30.34.842,empathy_intonation_perc,2024.2.4,Linux x86_64,60.24096386,5c2fcd716ea6880001dc8e3d,687ed1b7e638a4cbf2f02089,6880d5936aad0bdb61b722a4,,,,,,,,,,,,,,1,,,,,,,,,,,,,,,,,,,,,,,,,,,,,,,,,,,,,,,,,,,,,,,,,,,,,,,,,89,prisa,,,,,602.5221,604.0183,0,0,0.9647,,0,70,70,88,1,REAL,FAKE,,,,,,,,,,,,,,,,,
,,,,,,,,,5c2fcd716ea6880001dc8e3d,Spanish,13 or older,"no, only English or Spanish",no,2025-07-23_08h30.34.842,empathy_intonation_perc,2024.2.4,Linux x86_64,60.24096386,5c2fcd716ea6880001dc8e3d,687ed1b7e638a4cbf2f02089,6880d5936aad0bdb61b722a4,,,,,,,,,,,,,,0,,,,,,,,,,,,,,,,,,,,,,,,,,,,,,,,,,,,,,,,,,,,,,,,,,,,,,,,,17,floroso,,,,,604.0201,605.5326,1,0,0.9795,,0,71,71,16,1,REAL,FAKE,,,,,,,,,,,,,,,,,
,,,,,,,,,5c2fcd716ea6880001dc8e3d,Spanish,13 or older,"no, only English or Spanish",no,2025-07-23_08h30.34.842,empathy_intonation_perc,2024.2.4,Linux x86_64,60.24096386,5c2fcd716ea6880001dc8e3d,687ed1b7e638a4cbf2f02089,6880d5936aad0bdb61b722a4,,,,,,,,,,,,,,1,,,,,,,,,,,,,,,,,,,,,,,,,,,,,,,,,,,,,,,,,,,,,,,,,,,,,,,,,46,martillo,,,,,605.5346,606.7819,1,1,0.7093,,0,72,72,45,1,REAL,FAKE,,,,,,,,,,,,,,,,,
,,,,,,,,,5c2fcd716ea6880001dc8e3d,Spanish,13 or older,"no, only English or Spanish",no,2025-07-23_08h30.34.842,empathy_intonation_perc,2024.2.4,Linux x86_64,60.24096386,5c2fcd716ea6880001dc8e3d,687ed1b7e638a4cbf2f02089,6880d5936aad0bdb61b722a4,,,,,,,,,,,,,,1,,,,,,,,,,,,,,,,,,,,,,,,,,,,,,,,,,,,,,,,,,,,,,,,,,,,,,,,,90,clavel,,,,,606.7837,608.414,1,1,1.0973,,0,73,73,89,1,REAL,FAKE,,,,,,,,,,,,,,,,,
,,,,,,,,,5c2fcd716ea6880001dc8e3d,Spanish,13 or older,"no, only English or Spanish",no,2025-07-23_08h30.34.842,empathy_intonation_perc,2024.2.4,Linux x86_64,60.24096386,5c2fcd716ea6880001dc8e3d,687ed1b7e638a4cbf2f02089,6880d5936aad0bdb61b722a4,,,,,,,,,,,,,,1,,,,,,,,,,,,,,,,,,,,,,,,,,,,,,,,,,,,,,,,,,,,,,,,,,,,,,,,,9,hacha,,,,,608.417,609.6977,1,1,0.7468,,0,74,74,8,1,REAL,FAKE,,,,,,,,,,,,,,,,,
,,,,,,,,,5c2fcd716ea6880001dc8e3d,Spanish,13 or older,"no, only English or Spanish",no,2025-07-23_08h30.34.842,empathy_intonation_perc,2024.2.4,Linux x86_64,60.24096386,5c2fcd716ea6880001dc8e3d,687ed1b7e638a4cbf2f02089,6880d5936aad0bdb61b722a4,,,,,,,,,,,,,,1,,,,,,,,,,,,,,,,,,,,,,,,,,,,,,,,,,,,,,,,,,,,,,,,,,,,,,,,,41,rebuscar,,,,,609.7003,611.3448,1,1,1.1121,,0,75,75,40,1,REAL,FAKE,,,,,,,,,,,,,,,,,
,,,,,,,,,5c2fcd716ea6880001dc8e3d,Spanish,13 or older,"no, only English or Spanish",no,2025-07-23_08h30.34.842,empathy_intonation_perc,2024.2.4,Linux x86_64,60.24096386,5c2fcd716ea6880001dc8e3d,687ed1b7e638a4cbf2f02089,6880d5936aad0bdb61b722a4,,,,,,,,,,,,,,1,,,,,,,,,,,,,,,,,,,,,,,,,,,,,,,,,,,,,,,,,,,,,,,,,,,,,,,,,81,pozo,,,,,611.3479,612.6262,0,0,0.7419,,0,76,76,80,1,REAL,FAKE,,,,,,,,,,,,,,,,,
,,,,,,,,,5c2fcd716ea6880001dc8e3d,Spanish,13 or older,"no, only English or Spanish",no,2025-07-23_08h30.34.842,empathy_intonation_perc,2024.2.4,Linux x86_64,60.24096386,5c2fcd716ea6880001dc8e3d,687ed1b7e638a4cbf2f02089,6880d5936aad0bdb61b722a4,,,,,,,,,,,,,,1,,,,,,,,,,,,,,,,,,,,,,,,,,,,,,,,,,,,,,,,,,,,,,,,,,,,,,,,,62,flaco,,,,,612.6286,614.6407,1,1,1.4787,,0,77,77,61,1,REAL,FAKE,,,,,,,,,,,,,,,,,
,,,,,,,,,5c2fcd716ea6880001dc8e3d,Spanish,13 or older,"no, only English or Spanish",no,2025-07-23_08h30.34.842,empathy_intonation_perc,2024.2.4,Linux x86_64,60.24096386,5c2fcd716ea6880001dc8e3d,687ed1b7e638a4cbf2f02089,6880d5936aad0bdb61b722a4,,,,,,,,,,,,,,0,,,,,,,,,,,,,,,,,,,,,,,,,,,,,,,,,,,,,,,,,,,,,,,,,,,,,,,,,32,fatacidad,,,,,614.6426,615.9237,0,1,0.7461,,0,78,78,31,1,REAL,FAKE,,,,,,,,,,,,,,,,,
,,,,,,,,,5c2fcd716ea6880001dc8e3d,Spanish,13 or older,"no, only English or Spanish",no,2025-07-23_08h30.34.842,empathy_intonation_perc,2024.2.4,Linux x86_64,60.24096386,5c2fcd716ea6880001dc8e3d,687ed1b7e638a4cbf2f02089,6880d5936aad0bdb61b722a4,,,,,,,,,,,,,,1,,,,,,,,,,,,,,,,,,,,,,,,,,,,,,,,,,,,,,,,,,,,,,,,,,,,,,,,,34,aviso,,,,,615.9262,617.388,1,1,0.9282,,0,79,79,33,1,REAL,FAKE,,,,,,,,,,,,,,,,,
,,,,,,,,,5c2fcd716ea6880001dc8e3d,Spanish,13 or older,"no, only English or Spanish",no,2025-07-23_08h30.34.842,empathy_intonation_perc,2024.2.4,Linux x86_64,60.24096386,5c2fcd716ea6880001dc8e3d,687ed1b7e638a4cbf2f02089,6880d5936aad0bdb61b722a4,,,,,,,,,,,,,,0,,,,,,,,,,,,,,,,,,,,,,,,,,,,,,,,,,,,,,,,,,,,,,,,,,,,,,,,,92,click the 0 key.,,,,,617.3901,620.5518,0,1,2.6283,,0,80,80,91,1,REAL,FAKE,,,,,,,,,,,,,,,,,
,,,,,,,,,5c2fcd716ea6880001dc8e3d,Spanish,13 or older,"no, only English or Spanish",no,2025-07-23_08h30.34.842,empathy_intonation_perc,2024.2.4,Linux x86_64,60.24096386,5c2fcd716ea6880001dc8e3d,687ed1b7e638a4cbf2f02089,6880d5936aad0bdb61b722a4,,,,,,,,,,,,,,1,,,,,,,,,,,,,,,,,,,,,,,,,,,,,,,,,,,,,,,,,,,,,,,,,,,,,,,,,68,alegre,,,,,620.5538,622.2499,1,1,1.1586,,0,81,81,67,1,REAL,FAKE,,,,,,,,,,,,,,,,,
,,,,,,,,,5c2fcd716ea6880001dc8e3d,Spanish,13 or older,"no, only English or Spanish",no,2025-07-23_08h30.34.842,empathy_intonation_perc,2024.2.4,Linux x86_64,60.24096386,5c2fcd716ea6880001dc8e3d,687ed1b7e638a4cbf2f02089,6880d5936aad0bdb61b722a4,,,,,,,,,,,,,,1,,,,,,,,,,,,,,,,,,,,,,,,,,,,,,,,,,,,,,,,,,,,,,,,,,,,,,,,,77,tiburón,,,,,622.2522,623.6821,1,1,0.8923,,0,82,82,76,1,REAL,FAKE,,,,,,,,,,,,,,,,,
,,,,,,,,,5c2fcd716ea6880001dc8e3d,Spanish,13 or older,"no, only English or Spanish",no,2025-07-23_08h30.34.842,empathy_intonation_perc,2024.2.4,Linux x86_64,60.24096386,5c2fcd716ea6880001dc8e3d,687ed1b7e638a4cbf2f02089,6880d5936aad0bdb61b722a4,,,,,,,,,,,,,,1,,,,,,,,,,,,,,,,,,,,,,,,,,,,,,,,,,,,,,,,,,,,,,,,,,,,,,,,,44,cuchara,,,,,623.6841,624.9486,0,0,0.7349,,0,83,83,43,1,REAL,FAKE,,,,,,,,,,,,,,,,,
,,,,,,,,,5c2fcd716ea6880001dc8e3d,Spanish,13 or older,"no, only English or Spanish",no,2025-07-23_08h30.34.842,empathy_intonation_perc,2024.2.4,Linux x86_64,60.24096386,5c2fcd716ea6880001dc8e3d,687ed1b7e638a4cbf2f02089,6880d5936aad0bdb61b722a4,,,,,,,,,,,,,,1,,,,,,,,,,,,,,,,,,,,,,,,,,,,,,,,,,,,,,,,,,,,,,,,,,,,,,,,,75,yacer,,,,,624.9508,626.1963,0,0,0.7116,,0,84,84,74,1,REAL,FAKE,,,,,,,,,,,,,,,,,
,,,,,,,,,5c2fcd716ea6880001dc8e3d,Spanish,13 or older,"no, only English or Spanish",no,2025-07-23_08h30.34.842,empathy_intonation_perc,2024.2.4,Linux x86_64,60.24096386,5c2fcd716ea6880001dc8e3d,687ed1b7e638a4cbf2f02089,6880d5936aad0bdb61b722a4,,,,,,,,,,,,,,1,,,,,,,,,,,,,,,,,,,,,,,,,,,,,,,,,,,,,,,,,,,,,,,,,,,,,,,,,38,estornudar,,,,,626.2,627.5278,0,0,0.7992,,0,85,85,37,1,REAL,FAKE,,,,,,,,,,,,,,,,,
,,,,,,,,,5c2fcd716ea6880001dc8e3d,Spanish,13 or older,"no, only English or Spanish",no,2025-07-23_08h30.34.842,empathy_intonation_perc,2024.2.4,Linux x86_64,60.24096386,5c2fcd716ea6880001dc8e3d,687ed1b7e638a4cbf2f02089,6880d5936aad0bdb61b722a4,,,,,,,,,,,,,,0,,,,,,,,,,,,,,,,,,,,,,,,,,,,,,,,,,,,,,,,,,,,,,,,,,,,,,,,,47,cartinar,,,,,627.5297,628.8266,0,1,0.7627,,0,86,86,46,1,REAL,FAKE,,,,,,,,,,,,,,,,,
,,,,,,,,,5c2fcd716ea6880001dc8e3d,Spanish,13 or older,"no, only English or Spanish",no,2025-07-23_08h30.34.842,empathy_intonation_perc,2024.2.4,Linux x86_64,60.24096386,5c2fcd716ea6880001dc8e3d,687ed1b7e638a4cbf2f02089,6880d5936aad0bdb61b722a4,,,,,,,,,,,,,,0,,,,,,,,,,,,,,,,,,,,,,,,,,,,,,,,,,,,,,,,,,,,,,,,,,,,,,,,,21,capillo,,,,,628.8286,630.042,1,0,0.6762,,0,87,87,20,1,REAL,FAKE,,,,,,,,,,,,,,,,,
,,,,,,,,,5c2fcd716ea6880001dc8e3d,Spanish,13 or older,"no, only English or Spanish",no,2025-07-23_08h30.34.842,empathy_intonation_perc,2024.2.4,Linux x86_64,60.24096386,5c2fcd716ea6880001dc8e3d,687ed1b7e638a4cbf2f02089,6880d5936aad0bdb61b722a4,,,,,,,,,,,,,,1,,,,,,,,,,,,,,,,,,,,,,,,,,,,,,,,,,,,,,,,,,,,,,,,,,,,,,,,,91,click the 1 key.,,,,,630.0441,632.0404,1,1,1.4746,,0,88,88,90,1,REAL,FAKE,,,,,,,,,,,,,,,,,
,,,,,,,,,5c2fcd716ea6880001dc8e3d,Spanish,13 or older,"no, only English or Spanish",no,2025-07-23_08h30.34.842,empathy_intonation_perc,2024.2.4,Linux x86_64,60.24096386,5c2fcd716ea6880001dc8e3d,687ed1b7e638a4cbf2f02089,6880d5936aad0bdb61b722a4,,,,,,,,,,,,,,1,,,,,,,,,,,,,,,,,,,,,,,,,,,,,,,,,,,,,,,,,,,,,,,,,,,,,,,,,3,pulmones,,,,,632.0433,633.6884,1,1,1.1094,,0,89,89,2,1,REAL,FAKE,,,,,,,,,,,,,,,,,
,,,,,,,,,5c2fcd716ea6880001dc8e3d,Spanish,13 or older,"no, only English or Spanish",no,2025-07-23_08h30.34.842,empathy_intonation_perc,2024.2.4,Linux x86_64,60.24096386,5c2fcd716ea6880001dc8e3d,687ed1b7e638a4cbf2f02089,6880d5936aad0bdb61b722a4,,,,,,,,,,,,,,1,,,,,,,,,,,,,,,,,,,,,,,,,,,,,,,,,,,,,,,,,,,,,,,,,,,,,,,,,73,hervidor,,,,,633.6905,635.1375,0,0,0.9155,,0,90,90,72,1,REAL,FAKE,,,,,,,,,,,,,,,,,
,,,,,,,,,5c2fcd716ea6880001dc8e3d,Spanish,13 or older,"no, only English or Spanish",no,2025-07-23_08h30.34.842,empathy_intonation_perc,2024.2.4,Linux x86_64,60.24096386,5c2fcd716ea6880001dc8e3d,687ed1b7e638a4cbf2f02089,6880d5936aad0bdb61b722a4,,,,,,,,,,,,,,1,,,,,,,,,,,,,,,,,,,,,,,,,,,,,,,,,,,,,,,,,,,,,,,,,,,,,,,,,86,barato,,,,,635.1415,636.3864,0,0,0.7109,,0,91,91,85,1,REAL,FAKE,,,,,,,,,,,,,,,,,
,,,,,,,,,5c2fcd716ea6880001dc8e3d,Spanish,13 or older,"no, only English or Spanish",no,2025-07-23_08h30.34.842,empathy_intonation_perc,2024.2.4,Linux x86_64,60.24096386,5c2fcd716ea6880001dc8e3d,687ed1b7e638a4cbf2f02089,6880d5936aad0bdb61b722a4,,,,,,,,,,,,,,,,,,,,,,,,,,,,,,,,,,,,,,,,,,,,,,,,,,,,,,,,,,,,,,,,,,,,,,,,,,,,,,,,,,,,,,,,,,636.3871,693.515,,,,,,,,,,,,,,,
,,,,,,,,,5c2fcd716ea6880001dc8e3d,Spanish,13 or older,"no, only English or Spanish",no,2025-07-23_08h30.34.842,empathy_intonation_perc,2024.2.4,Linux x86_64,60.24096386,5c2fcd716ea6880001dc8e3d,687ed1b7e638a4cbf2f02089,6880d5936aad0bdb61b722a4,,,,,,,,,,,,,1,,,,,,,,,,,,,,,,,,,,,,,,,,,,,,,,,,,,,,,,,,,,,,,,,,,,,,,,,,,,,,,,,,,,,,,,,,,,,,,693.5489,699.7748,slightly agree,0,0,0,0,1,I can easily tell if someone else wants to enter a conversation.,1,0,1,0,,
,,,,,,,,,5c2fcd716ea6880001dc8e3d,Spanish,13 or older,"no, only English or Spanish",no,2025-07-23_08h30.34.842,empathy_intonation_perc,2024.2.4,Linux x86_64,60.24096386,5c2fcd716ea6880001dc8e3d,687ed1b7e638a4cbf2f02089,6880d5936aad0bdb61b722a4,,,,,,,,,,,,,2,,,,,,,,,,,,,,,,,,,,,,,,,,,,,,,,,,,,,,,,,,,,,,,,,,,,,,,,,,,,,,,,,,,,,,,,,,,,,,,699.7789,701.9892,slightly agree,0,1,1,1,1,I prefer animals to humans.,0,1,0,0,,
,,,,,,,,,5c2fcd716ea6880001dc8e3d,Spanish,13 or older,"no, only English or Spanish",no,2025-07-23_08h30.34.842,empathy_intonation_perc,2024.2.4,Linux x86_64,60.24096386,5c2fcd716ea6880001dc8e3d,687ed1b7e638a4cbf2f02089,6880d5936aad0bdb61b722a4,,,,,,,,,,,,,3,,,,,,,,,,,,,,,,,,,,,,,,,,,,,,,,,,,,,,,,,,,,,,,,,,,,,,,,,,,,,,,,,,,,,,,,,,,,,,,701.9936,703.9224,slightly agree,0,2,2,2,1,I try to keep up with the current trends and fashions.,0,1,0,0,,
,,,,,,,,,5c2fcd716ea6880001dc8e3d,Spanish,13 or older,"no, only English or Spanish",no,2025-07-23_08h30.34.842,empathy_intonation_perc,2024.2.4,Linux x86_64,60.24096386,5c2fcd716ea6880001dc8e3d,687ed1b7e638a4cbf2f02089,6880d5936aad0bdb61b722a4,,,,,,,,,,,,,4,,,,,,,,,,,,,,,,,,,,,,,,,,,,,,,,,,,,,,,,,,,,,,,,,,,,,,,,,,,,,,,,,,,,,,,,,,,,,,,703.9273,711.2177,slightly disagree,0,3,3,3,1,"I find it difficult to explain to others things that I understand easily,   when they don't understand it first time.",1,0,0,1,,
,,,,,,,,,5c2fcd716ea6880001dc8e3d,Spanish,13 or older,"no, only English or Spanish",no,2025-07-23_08h30.34.842,empathy_intonation_perc,2024.2.4,Linux x86_64,60.24096386,5c2fcd716ea6880001dc8e3d,687ed1b7e638a4cbf2f02089,6880d5936aad0bdb61b722a4,,,,,,,,,,,,,5,,,,,,,,,,,,,,,,,,,,,,,,,,,,,,,,,,,,,,,,,,,,,,,,,,,,,,,,,,,,,,,,,,,,,,,,,,,,,,,711.2214,715.5756,slightly agree,0,4,4,4,1,I dream most nights.,0,1,0,0,,
,,,,,,,,,5c2fcd716ea6880001dc8e3d,Spanish,13 or older,"no, only English or Spanish",no,2025-07-23_08h30.34.842,empathy_intonation_perc,2024.2.4,Linux x86_64,60.24096386,5c2fcd716ea6880001dc8e3d,687ed1b7e638a4cbf2f02089,6880d5936aad0bdb61b722a4,,,,,,,,,,,,,6,,,,,,,,,,,,,,,,,,,,,,,,,,,,,,,,,,,,,,,,,,,,,,,,,,,,,,,,,,,,,,,,,,,,,,,,,,,,,,,715.5785,717.3574,slightly agree,0,5,5,5,1,I really enjoy caring for other people.,1,0,1,0,,
