instructions_exposure.started,instructions_exposure.stopped,instructions_exposure_loop.thisRepN,instructions_exposure_loop.thisTrialN,instructions_exposure_loop.thisN,instructions_exposure_loop.thisIndex,instructions_exposure_loop.ran,instructions_text,continue_text,participant_id,"What variety of Spanish are you most familiar with? (e.g., Peruvian, Spanish, Mexican)",At what age did you begin learning Spanish?,Are you proficient in any languages other than English/Spanish?,"Are you familiar with Caribbean (e.g., Caribbean, Puerto Rican) or Galician Spanish?",date,expName,psychopyVersion,OS,frameRate,id,study_id,session,trial_exposure.started,trial_exposure.stopped,key_resp_exposure.keys,key_resp_exposure.corr,key_resp_exposure.rt,key_resp_exposure.duration,key_resp.keys,exposure_loop.thisRepN,exposure_loop.thisTrialN,exposure_loop.thisN,exposure_loop.thisIndex,exposure_loop.ran,item_num,correct_response,question,path,duration,instructions_2afc.started,instructions_2afc.stopped,instructions_2afc_loop.thisRepN,instructions_2afc_loop.thisTrialN,instructions_2afc_loop.thisN,instructions_2afc_loop.thisIndex,instructions_2afc_loop.ran,practice_2afc.started,practice_2afc.stopped,key_resp_2afc_practice.keys,key_resp_2afc_practice.corr,key_resp_2afc_practice.rt,key_resp_2afc_practice.duration,trials_2afc_practice_loop.thisRepN,trials_2afc_practice_loop.thisTrialN,trials_2afc_practice_loop.thisN,trials_2afc_practice_loop.thisIndex,trials_2afc_practice_loop.ran,check_2afc.started,check_2afc.stopped,trial_2afc.started,trial_2afc.stopped,key_resp_2afc_trial.keys,key_resp_2afc_trial.corr,key_resp_2afc_trial.rt,key_resp_2afc_trial.duration,trials_2afc_loop.thisRepN,trials_2afc_loop.thisTrialN,trials_2afc_loop.thisN,trials_2afc_loop.thisIndex,trials_2afc_loop.ran,target,variety,instructions_lextale.started,instructions_lextale.stopped,instructions_lextale_loop.thisRepN,instructions_lextale_loop.thisTrialN,instructions_lextale_loop.thisN,instructions_lextale_loop.thisIndex,instructions_lextale_loop.ran,practice_lextale.started,practice_lextale.stopped,key_resp_lextale_practice.keys,key_resp_lextale_practice.corr,key_resp_lextale_practice.rt,key_resp_lextale_practice.duration,practice_feedback_lextale.started,practice_feedback_lextale.stopped,trials_lextale_practice_loop.thisRepN,trials_lextale_practice_loop.thisTrialN,trials_lextale_practice_loop.thisN,trials_lextale_practice_loop.thisIndex,trials_lextale_practice_loop.ran,stim,word,prac_button_real,prac_button_false,check_lextale.started,check_lextale.stopped,trial_lextale.started,trial_lextale.stopped,key_resp_lextale_trial.keys,key_resp_lextale_trial.corr,key_resp_lextale_trial.rt,key_resp_lextale_trial.duration,trials_lextale_loop.thisRepN,trials_lextale_loop.thisTrialN,trials_lextale_loop.thisN,trials_lextale_loop.thisIndex,trials_lextale_loop.ran,button_real,button_false,instructions_eq.started,instructions_eq.stopped,trial_eq.started,trial_eq.stopped,slider_eq_trial.response,trials_eq_loop.thisRepN,trials_eq_loop.thisTrialN,trials_eq_loop.thisN,trials_eq_loop.thisIndex,trials_eq_loop.ran,item,is_test_item,is_distractor,is_agree_score,is_disagree_score,end_exp.started,end_exp.stopped
0.01,3.919,0,0,0,0,1,"In the following task, you are going to hear a series of conversations.", (press the space bar to continue),5c4a4b329ba9e00001ffc4f3,Mexican,13 or older,"no, only English or Spanish",no,2025-07-22_21h53.06.915,empathy_intonation_perc,2024.2.4,Win32,119.9040767,5c4a4b329ba9e00001ffc4f3,687ed1b7e638a4cbf2f02089,6880405b18a35585d723aad2,,,,,,,,,,,,,,,,,,,,,,,,,,,,,,,,,,,,,,,,,,,,,,,,,,,,,,,,,,,,,,,,,,,,,,,,,,,,,,,,,,,,,,,,,,,,,,,,,,,,,,,,,,
3.919,6.011,0,1,1,1,1,It is okay if you don't not 100% understand them!, (press the space bar to continue),5c4a4b329ba9e00001ffc4f3,Mexican,13 or older,"no, only English or Spanish",no,2025-07-22_21h53.06.915,empathy_intonation_perc,2024.2.4,Win32,119.9040767,5c4a4b329ba9e00001ffc4f3,687ed1b7e638a4cbf2f02089,6880405b18a35585d723aad2,,,,,,,,,,,,,,,,,,,,,,,,,,,,,,,,,,,,,,,,,,,,,,,,,,,,,,,,,,,,,,,,,,,,,,,,,,,,,,,,,,,,,,,,,,,,,,,,,,,,,,,,,,
6.012,12.052,0,2,2,2,1,"After, you will read a sentence about the conversation and decide if it's true or false.", (press the space bar to continue),5c4a4b329ba9e00001ffc4f3,Mexican,13 or older,"no, only English or Spanish",no,2025-07-22_21h53.06.915,empathy_intonation_perc,2024.2.4,Win32,119.9040767,5c4a4b329ba9e00001ffc4f3,687ed1b7e638a4cbf2f02089,6880405b18a35585d723aad2,,,,,,,,,,,,,,,,,,,,,,,,,,,,,,,,,,,,,,,,,,,,,,,,,,,,,,,,,,,,,,,,,,,,,,,,,,,,,,,,,,,,,,,,,,,,,,,,,,,,,,,,,,
12.053,14.969,0,3,3,3,1,"If it's true, press '1' (True) and if it's false press '0' (False).", (press the space bar to continue),5c4a4b329ba9e00001ffc4f3,Mexican,13 or older,"no, only English or Spanish",no,2025-07-22_21h53.06.915,empathy_intonation_perc,2024.2.4,Win32,119.9040767,5c4a4b329ba9e00001ffc4f3,687ed1b7e638a4cbf2f02089,6880405b18a35585d723aad2,,,,,,,,,,,,,,,,,,,,,,,,,,,,,,,,,,,,,,,,,,,,,,,,,,,,,,,,,,,,,,,,,,,,,,,,,,,,,,,,,,,,,,,,,,,,,,,,,,,,,,,,,,
,,,,,,,,,5c4a4b329ba9e00001ffc4f3,Mexican,13 or older,"no, only English or Spanish",no,2025-07-22_21h53.06.915,empathy_intonation_perc,2024.2.4,Win32,119.9040767,5c4a4b329ba9e00001ffc4f3,687ed1b7e638a4cbf2f02089,6880405b18a35585d723aad2,14.972,77.901,1,1,2.885,,,0,0,0,1,1,2,1,The mom asked the daughter if she already went to the supermarket.,./stim/exposure_wavs/dr_stimuli_convo.wav,60,,,,,,,,,,,,,,,,,,,,,,,,,,,,,,,,,,,,,,,,,,,,,,,,,,,,,,,,,,,,,,,,,,,,,,,,,,,,,,,,,,,,,,,,,
,,,,,,,,,5c4a4b329ba9e00001ffc4f3,Mexican,13 or older,"no, only English or Spanish",no,2025-07-22_21h53.06.915,empathy_intonation_perc,2024.2.4,Win32,119.9040767,5c4a4b329ba9e00001ffc4f3,687ed1b7e638a4cbf2f02089,6880405b18a35585d723aad2,77.903,128.592,0,0,3.654,,,0,1,1,0,1,1,1,The son asked the mom if Aunt Marina is okay.,./stim/exposure_wavs/ga_stimuli_convo.wav,47,,,,,,,,,,,,,,,,,,,,,,,,,,,,,,,,,,,,,,,,,,,,,,,,,,,,,,,,,,,,,,,,,,,,,,,,,,,,,,,,,,,,,,,,,
,,,,,,,,,5c4a4b329ba9e00001ffc4f3,Mexican,13 or older,"no, only English or Spanish",no,2025-07-22_21h53.06.915,empathy_intonation_perc,2024.2.4,Win32,119.9040767,5c4a4b329ba9e00001ffc4f3,687ed1b7e638a4cbf2f02089,6880405b18a35585d723aad2,128.595,168.167,0,1,3.537,,,0,2,2,2,1,3,0,The mom already has rice.,./stim/exposure_wavs/pr_stimuli_convo.wav,36,,,,,,,,,,,,,,,,,,,,,,,,,,,,,,,,,,,,,,,,,,,,,,,,,,,,,,,,,,,,,,,,,,,,,,,,,,,,,,,,,,,,,,,,,
,,,,,,,"In the following task you are going to hear a series of utterances. 

  You will decide if the utterances sound like questions or not using your keyboard.", (press the spacebar to continue),5c4a4b329ba9e00001ffc4f3,Mexican,13 or older,"no, only English or Spanish",no,2025-07-22_21h53.06.915,empathy_intonation_perc,2024.2.4,Win32,119.9040767,5c4a4b329ba9e00001ffc4f3,687ed1b7e638a4cbf2f02089,6880405b18a35585d723aad2,,,,,,,,,,,,,,,,,,168.174,178.566,0,0,0,0,1,,,,,,,,,,,,,,,,,,,,,,,,,,,,,,,,,,,,,,,,,,,,,,,,,,,,,,,,,,,,,,,,,,,,,,,,,,,,,,,,,,
,,,,,,,"If you believe the utterance is a question, type '1' (for 'yes') and if you do not 
  believe it is a question type '0' (for 'no').

  Let's practice a bit...", (press the spacebar to continue),5c4a4b329ba9e00001ffc4f3,Mexican,13 or older,"no, only English or Spanish",no,2025-07-22_21h53.06.915,empathy_intonation_perc,2024.2.4,Win32,119.9040767,5c4a4b329ba9e00001ffc4f3,687ed1b7e638a4cbf2f02089,6880405b18a35585d723aad2,,,,,,,,,,,,,,,,,,178.567,182.774,0,1,1,1,1,,,,,,,,,,,,,,,,,,,,,,,,,,,,,,,,,,,,,,,,,,,,,,,,,,,,,,,,,,,,,,,,,,,,,,,,,,,,,,,,,,
,,,,,,,,,5c4a4b329ba9e00001ffc4f3,Mexican,13 or older,"no, only English or Spanish",no,2025-07-22_21h53.06.915,empathy_intonation_perc,2024.2.4,Win32,119.9040767,5c4a4b329ba9e00001ffc4f3,687ed1b7e638a4cbf2f02089,6880405b18a35585d723aad2,,,,,,,,,,,,,,0,,./stim/wavs/cuban_statement_filler_Cocinabas-por-la-noche.wav,,,,,,,,,182.779,186.05,0,1,2.763,,0,0,0,4,1,,,,,,,,,,,,,,,,,,,,,,,,,,,,,,,,,,,,,,,,,,,,,,,,,,,,,,,,,,,,,,,,,,,,,,,
,,,,,,,,,5c4a4b329ba9e00001ffc4f3,Mexican,13 or older,"no, only English or Spanish",no,2025-07-22_21h53.06.915,empathy_intonation_perc,2024.2.4,Win32,119.9040767,5c4a4b329ba9e00001ffc4f3,687ed1b7e638a4cbf2f02089,6880405b18a35585d723aad2,,,,,,,,,,,,,,1,,./stim/wavs/chilean_question_filler_Mi-padre-cantaba-bien.wav,,,,,,,,,186.051,188.575,1,1,2.02,,0,1,1,2,1,,,,,,,,,,,,,,,,,,,,,,,,,,,,,,,,,,,,,,,,,,,,,,,,,,,,,,,,,,,,,,,,,,,,,,,
,,,,,,,,,5c4a4b329ba9e00001ffc4f3,Mexican,13 or older,"no, only English or Spanish",no,2025-07-22_21h53.06.915,empathy_intonation_perc,2024.2.4,Win32,119.9040767,5c4a4b329ba9e00001ffc4f3,687ed1b7e638a4cbf2f02089,6880405b18a35585d723aad2,,,,,,,,,,,,,,1,,./stim/wavs/mexican_question_filler_Felipe-no-tiene-contrasena.wav,,,,,,,,,188.575,191.599,1,1,2.519,,0,2,2,3,1,,,,,,,,,,,,,,,,,,,,,,,,,,,,,,,,,,,,,,,,,,,,,,,,,,,,,,,,,,,,,,,,,,,,,,,
,,,,,,,,,5c4a4b329ba9e00001ffc4f3,Mexican,13 or older,"no, only English or Spanish",no,2025-07-22_21h53.06.915,empathy_intonation_perc,2024.2.4,Win32,119.9040767,5c4a4b329ba9e00001ffc4f3,687ed1b7e638a4cbf2f02089,6880405b18a35585d723aad2,,,,,,,,,,,,,,0,,./stim/wavs/peruvian_statement_filler_El-nino-habla-con-su-madre.wav,,,,,,,,,191.6,195.049,0,1,2.941,,0,3,3,6,1,,,,,,,,,,,,,,,,,,,,,,,,,,,,,,,,,,,,,,,,,,,,,,,,,,,,,,,,,,,,,,,,,,,,,,,
,,,,,,,,,5c4a4b329ba9e00001ffc4f3,Mexican,13 or older,"no, only English or Spanish",no,2025-07-22_21h53.06.915,empathy_intonation_perc,2024.2.4,Win32,119.9040767,5c4a4b329ba9e00001ffc4f3,687ed1b7e638a4cbf2f02089,6880405b18a35585d723aad2,,,,,,,,,,,,,,0,,./stim/wavs/andalusian_statement_filler_Alberto-nunca-se-afeita.wav,,,,,,,,,195.051,198.174,0,1,2.617,,0,4,4,5,1,,,,,,,,,,,,,,,,,,,,,,,,,,,,,,,,,,,,,,,,,,,,,,,,,,,,,,,,,,,,,,,,,,,,,,,
,,,,,,,,,5c4a4b329ba9e00001ffc4f3,Mexican,13 or older,"no, only English or Spanish",no,2025-07-22_21h53.06.915,empathy_intonation_perc,2024.2.4,Win32,119.9040767,5c4a4b329ba9e00001ffc4f3,687ed1b7e638a4cbf2f02089,6880405b18a35585d723aad2,,,,,,,,,,,,,,1,,./stim/wavs/argentine_question_filler_Mi-vecino-habla-mucho.wav,,,,,,,,,198.175,201.033,1,1,2.342,,0,5,5,1,1,,,,,,,,,,,,,,,,,,,,,,,,,,,,,,,,,,,,,,,,,,,,,,,,,,,,,,,,,,,,,,,,,,,,,,,
,,,,,,,,,5c4a4b329ba9e00001ffc4f3,Mexican,13 or older,"no, only English or Spanish",no,2025-07-22_21h53.06.915,empathy_intonation_perc,2024.2.4,Win32,119.9040767,5c4a4b329ba9e00001ffc4f3,687ed1b7e638a4cbf2f02089,6880405b18a35585d723aad2,,,,,,,,,,,,,,0,,./stim/wavs/puertorican_statement_filler_La-nina-pinta-con-su-amiga.wav,,,,,,,,,201.033,204.833,0,1,3.291,,0,6,6,7,1,,,,,,,,,,,,,,,,,,,,,,,,,,,,,,,,,,,,,,,,,,,,,,,,,,,,,,,,,,,,,,,,,,,,,,,
,,,,,,,,,5c4a4b329ba9e00001ffc4f3,Mexican,13 or older,"no, only English or Spanish",no,2025-07-22_21h53.06.915,empathy_intonation_perc,2024.2.4,Win32,119.9040767,5c4a4b329ba9e00001ffc4f3,687ed1b7e638a4cbf2f02089,6880405b18a35585d723aad2,,,,,,,,,,,,,,1,,./stim/wavs/castilian_question_filler_Mi-esposo-conoce-al-chico.wav,,,,,,,,,204.834,208.249,1,1,2.901,,0,7,7,0,1,,,,,,,,,,,,,,,,,,,,,,,,,,,,,,,,,,,,,,,,,,,,,,,,,,,,,,,,,,,,,,,,,,,,,,,
,,,,,,,,,5c4a4b329ba9e00001ffc4f3,Mexican,13 or older,"no, only English or Spanish",no,2025-07-22_21h53.06.915,empathy_intonation_perc,2024.2.4,Win32,119.9040767,5c4a4b329ba9e00001ffc4f3,687ed1b7e638a4cbf2f02089,6880405b18a35585d723aad2,,,,,,,,,,,,,,,,,,,,,,,,,,,,,,,,,,,,208.249,211.757,,,,,,,,,,,,,,,,,,,,,,,,,,,,,,,,,,,,,,,,,,,,,,,,,,,,,,,,,,,,,,,,,,,,,
,,,,,,,,,5c4a4b329ba9e00001ffc4f3,Mexican,13 or older,"no, only English or Spanish",no,2025-07-22_21h53.06.915,empathy_intonation_perc,2024.2.4,Win32,119.9040767,5c4a4b329ba9e00001ffc4f3,687ed1b7e638a4cbf2f02089,6880405b18a35585d723aad2,,,,,,,,,,,,,45,0,,./stim/wavs/castilian_match_declarative-broad-focus_David-leia-el-libro.wav,,,,,,,,,,,,,,,,,,,,,,211.768,214.532,0,1,2.25,,0,0,0,44,1,0,castilian,,,,,,,,,,,,,,,,,,,,,,,,,,,,,,,,,,,,,,,,,,,,,,,,,,,,,,,,
,,,,,,,,,5c4a4b329ba9e00001ffc4f3,Mexican,13 or older,"no, only English or Spanish",no,2025-07-22_21h53.06.915,empathy_intonation_perc,2024.2.4,Win32,119.9040767,5c4a4b329ba9e00001ffc4f3,687ed1b7e638a4cbf2f02089,6880405b18a35585d723aad2,,,,,,,,,,,,,43,1,,./stim/wavs/puertorican_mismatch_interrogative-total-yn_La-nina-lava-el-plato.wav,,,,,,,,,,,,,,,,,,,,,,214.533,216.707,1,1,1.659,,0,1,1,42,1,1,puertorican,,,,,,,,,,,,,,,,,,,,,,,,,,,,,,,,,,,,,,,,,,,,,,,,,,,,,,,,
,,,,,,,,,5c4a4b329ba9e00001ffc4f3,Mexican,13 or older,"no, only English or Spanish",no,2025-07-22_21h53.06.915,empathy_intonation_perc,2024.2.4,Win32,119.9040767,5c4a4b329ba9e00001ffc4f3,687ed1b7e638a4cbf2f02089,6880405b18a35585d723aad2,,,,,,,,,,,,,56,0,,./stim/wavs/cuban_match_declarative-broad-focus_Marta-abre-el-regalo.wav,,,,,,,,,,,,,,,,,,,,,,216.708,218.966,0,1,1.745,,0,2,2,55,1,0,cuban,,,,,,,,,,,,,,,,,,,,,,,,,,,,,,,,,,,,,,,,,,,,,,,,,,,,,,,,
,,,,,,,,,5c4a4b329ba9e00001ffc4f3,Mexican,13 or older,"no, only English or Spanish",no,2025-07-22_21h53.06.915,empathy_intonation_perc,2024.2.4,Win32,119.9040767,5c4a4b329ba9e00001ffc4f3,687ed1b7e638a4cbf2f02089,6880405b18a35585d723aad2,,,,,,,,,,,,,74,0,,./stim/wavs/cuban_mismatch_declarative-broad-focus_El-bebe-comia-muy-bien.wav,,,,,,,,,,,,,,,,,,,,,,218.967,221.241,0,1,1.759,,0,3,3,73,1,0,cuban,,,,,,,,,,,,,,,,,,,,,,,,,,,,,,,,,,,,,,,,,,,,,,,,,,,,,,,,
,,,,,,,,,5c4a4b329ba9e00001ffc4f3,Mexican,13 or older,"no, only English or Spanish",no,2025-07-22_21h53.06.915,empathy_intonation_perc,2024.2.4,Win32,119.9040767,5c4a4b329ba9e00001ffc4f3,687ed1b7e638a4cbf2f02089,6880405b18a35585d723aad2,,,,,,,,,,,,,88,0,,./stim/wavs/puertorican_mismatch_declarative-broad-focus_La-nina-lava-el-plato.wav,,,,,,,,,,,,,,,,,,,,,,221.242,223.757,0,1,2,,0,4,4,87,1,0,puertorican,,,,,,,,,,,,,,,,,,,,,,,,,,,,,,,,,,,,,,,,,,,,,,,,,,,,,,,,
,,,,,,,,,5c4a4b329ba9e00001ffc4f3,Mexican,13 or older,"no, only English or Spanish",no,2025-07-22_21h53.06.915,empathy_intonation_perc,2024.2.4,Win32,119.9040767,5c4a4b329ba9e00001ffc4f3,687ed1b7e638a4cbf2f02089,6880405b18a35585d723aad2,,,,,,,,,,,,,47,0,,./stim/wavs/castilian_match_declarative-broad-focus_Manuela-vende-el-carro.wav,,,,,,,,,,,,,,,,,,,,,,223.758,226.591,1,0,2.318,,0,5,5,46,1,0,castilian,,,,,,,,,,,,,,,,,,,,,,,,,,,,,,,,,,,,,,,,,,,,,,,,,,,,,,,,
,,,,,,,,,5c4a4b329ba9e00001ffc4f3,Mexican,13 or older,"no, only English or Spanish",no,2025-07-22_21h53.06.915,empathy_intonation_perc,2024.2.4,Win32,119.9040767,5c4a4b329ba9e00001ffc4f3,687ed1b7e638a4cbf2f02089,6880405b18a35585d723aad2,,,,,,,,,,,,,11,1,,./stim/wavs/cuban_match_interrogative-total-yn_Mariano-habla-del-tiempo.wav,,,,,,,,,,,,,,,,,,,,,,226.592,229.174,1,1,2.07,,0,6,6,10,1,1,cuban,,,,,,,,,,,,,,,,,,,,,,,,,,,,,,,,,,,,,,,,,,,,,,,,,,,,,,,,
,,,,,,,,,5c4a4b329ba9e00001ffc4f3,Mexican,13 or older,"no, only English or Spanish",no,2025-07-22_21h53.06.915,empathy_intonation_perc,2024.2.4,Win32,119.9040767,5c4a4b329ba9e00001ffc4f3,687ed1b7e638a4cbf2f02089,6880405b18a35585d723aad2,,,,,,,,,,,,,36,1,,./stim/wavs/mexican_mismatch_interrogative-total-yn_El-nino-oye-el-rio.wav,,,,,,,,,,,,,,,,,,,,,,229.175,231.991,1,1,2.303,,0,7,7,35,1,0,mexican,,,,,,,,,,,,,,,,,,,,,,,,,,,,,,,,,,,,,,,,,,,,,,,,,,,,,,,,
,,,,,,,,,5c4a4b329ba9e00001ffc4f3,Mexican,13 or older,"no, only English or Spanish",no,2025-07-22_21h53.06.915,empathy_intonation_perc,2024.2.4,Win32,119.9040767,5c4a4b329ba9e00001ffc4f3,687ed1b7e638a4cbf2f02089,6880405b18a35585d723aad2,,,,,,,,,,,,,60,0,,./stim/wavs/mexican_match_declarative-broad-focus_Emilio-ama-la-marcha.wav,,,,,,,,,,,,,,,,,,,,,,231.991,234.191,0,1,1.694,,0,8,8,59,1,0,mexican,,,,,,,,,,,,,,,,,,,,,,,,,,,,,,,,,,,,,,,,,,,,,,,,,,,,,,,,
,,,,,,,,,5c4a4b329ba9e00001ffc4f3,Mexican,13 or older,"no, only English or Spanish",no,2025-07-22_21h53.06.915,empathy_intonation_perc,2024.2.4,Win32,119.9040767,5c4a4b329ba9e00001ffc4f3,687ed1b7e638a4cbf2f02089,6880405b18a35585d723aad2,,,,,,,,,,,,,59,0,,./stim/wavs/mexican_match_declarative-broad-focus_David-leia-el-libro.wav,,,,,,,,,,,,,,,,,,,,,,234.192,236.432,0,1,1.724,,0,9,9,58,1,0,mexican,,,,,,,,,,,,,,,,,,,,,,,,,,,,,,,,,,,,,,,,,,,,,,,,,,,,,,,,
,,,,,,,,,5c4a4b329ba9e00001ffc4f3,Mexican,13 or older,"no, only English or Spanish",no,2025-07-22_21h53.06.915,empathy_intonation_perc,2024.2.4,Win32,119.9040767,5c4a4b329ba9e00001ffc4f3,687ed1b7e638a4cbf2f02089,6880405b18a35585d723aad2,,,,,,,,,,,,,85,0,,./stim/wavs/puertorican_mismatch_declarative-broad-focus_El-hombre-mira-la-luna.wav,,,,,,,,,,,,,,,,,,,,,,236.432,239.857,0,1,2.918,,0,10,10,84,1,0,puertorican,,,,,,,,,,,,,,,,,,,,,,,,,,,,,,,,,,,,,,,,,,,,,,,,,,,,,,,,
,,,,,,,,,5c4a4b329ba9e00001ffc4f3,Mexican,13 or older,"no, only English or Spanish",no,2025-07-22_21h53.06.915,empathy_intonation_perc,2024.2.4,Win32,119.9040767,5c4a4b329ba9e00001ffc4f3,687ed1b7e638a4cbf2f02089,6880405b18a35585d723aad2,,,,,,,,,,,,,39,1,,./stim/wavs/mexican_mismatch_interrogative-total-yn_Mi-tia-odia-la-lluvia.wav,,,,,,,,,,,,,,,,,,,,,,239.858,242.757,1,1,2.385,,0,11,11,38,1,0,mexican,,,,,,,,,,,,,,,,,,,,,,,,,,,,,,,,,,,,,,,,,,,,,,,,,,,,,,,,
,,,,,,,,,5c4a4b329ba9e00001ffc4f3,Mexican,13 or older,"no, only English or Spanish",no,2025-07-22_21h53.06.915,empathy_intonation_perc,2024.2.4,Win32,119.9040767,5c4a4b329ba9e00001ffc4f3,687ed1b7e638a4cbf2f02089,6880405b18a35585d723aad2,,,,,,,,,,,,,53,0,,./stim/wavs/cuban_match_declarative-broad-focus_Manuela-vende-el-carro.wav,,,,,,,,,,,,,,,,,,,,,,242.758,245.274,0,1,2.002,,0,12,12,52,1,0,cuban,,,,,,,,,,,,,,,,,,,,,,,,,,,,,,,,,,,,,,,,,,,,,,,,,,,,,,,,
,,,,,,,,,5c4a4b329ba9e00001ffc4f3,Mexican,13 or older,"no, only English or Spanish",no,2025-07-22_21h53.06.915,empathy_intonation_perc,2024.2.4,Win32,119.9040767,5c4a4b329ba9e00001ffc4f3,687ed1b7e638a4cbf2f02089,6880405b18a35585d723aad2,,,,,,,,,,,,,67,0,,./stim/wavs/puertorican_match_declarative-broad-focus_Manuela-vende-el-carro.wav,,,,,,,,,,,,,,,,,,,,,,245.274,247.632,0,1,1.849,,0,13,13,66,1,0,puertorican,,,,,,,,,,,,,,,,,,,,,,,,,,,,,,,,,,,,,,,,,,,,,,,,,,,,,,,,
,,,,,,,,,5c4a4b329ba9e00001ffc4f3,Mexican,13 or older,"no, only English or Spanish",no,2025-07-22_21h53.06.915,empathy_intonation_perc,2024.2.4,Win32,119.9040767,5c4a4b329ba9e00001ffc4f3,687ed1b7e638a4cbf2f02089,6880405b18a35585d723aad2,,,,,,,,,,,,,57,0,,./stim/wavs/mexican_match_declarative-broad-focus_Ana-lleva-el-abrigo.wav,,,,,,,,,,,,,,,,,,,,,,247.633,250.59,0,1,2.446,,0,14,14,56,1,0,mexican,,,,,,,,,,,,,,,,,,,,,,,,,,,,,,,,,,,,,,,,,,,,,,,,,,,,,,,,
,,,,,,,,,5c4a4b329ba9e00001ffc4f3,Mexican,13 or older,"no, only English or Spanish",no,2025-07-22_21h53.06.915,empathy_intonation_perc,2024.2.4,Win32,119.9040767,5c4a4b329ba9e00001ffc4f3,687ed1b7e638a4cbf2f02089,6880405b18a35585d723aad2,,,,,,,,,,,,,50,0,,./stim/wavs/castilian_match_declarative-broad-focus_Marta-abre-el-regalo.wav,,,,,,,,,,,,,,,,,,,,,,250.591,253.373,1,0,2.266,,0,15,15,49,1,0,castilian,,,,,,,,,,,,,,,,,,,,,,,,,,,,,,,,,,,,,,,,,,,,,,,,,,,,,,,,
,,,,,,,,,5c4a4b329ba9e00001ffc4f3,Mexican,13 or older,"no, only English or Spanish",no,2025-07-22_21h53.06.915,empathy_intonation_perc,2024.2.4,Win32,119.9040767,5c4a4b329ba9e00001ffc4f3,687ed1b7e638a4cbf2f02089,6880405b18a35585d723aad2,,,,,,,,,,,,,1,1,,./stim/wavs/castilian_match_interrogative-total-yn_David-leia-el-libro.wav,,,,,,,,,,,,,,,,,,,,,,253.374,256.215,1,1,2.324,,0,16,16,0,1,0,castilian,,,,,,,,,,,,,,,,,,,,,,,,,,,,,,,,,,,,,,,,,,,,,,,,,,,,,,,,
,,,,,,,,,5c4a4b329ba9e00001ffc4f3,Mexican,13 or older,"no, only English or Spanish",no,2025-07-22_21h53.06.915,empathy_intonation_perc,2024.2.4,Win32,119.9040767,5c4a4b329ba9e00001ffc4f3,687ed1b7e638a4cbf2f02089,6880405b18a35585d723aad2,,,,,,,,,,,,,87,0,,./stim/wavs/puertorican_mismatch_declarative-broad-focus_La-maestra-vive-en-Paris.wav,,,,,,,,,,,,,,,,,,,,,,256.216,258.891,0,1,2.159,,0,17,17,86,1,0,puertorican,,,,,,,,,,,,,,,,,,,,,,,,,,,,,,,,,,,,,,,,,,,,,,,,,,,,,,,,
,,,,,,,,,5c4a4b329ba9e00001ffc4f3,Mexican,13 or older,"no, only English or Spanish",no,2025-07-22_21h53.06.915,empathy_intonation_perc,2024.2.4,Win32,119.9040767,5c4a4b329ba9e00001ffc4f3,687ed1b7e638a4cbf2f02089,6880405b18a35585d723aad2,,,,,,,,,,,,,6,1,,./stim/wavs/castilian_match_interrogative-total-yn_Marta-abre-el-regalo.wav,,,,,,,,,,,,,,,,,,,,,,258.892,261.507,1,1,2.101,,0,18,18,5,1,0,castilian,,,,,,,,,,,,,,,,,,,,,,,,,,,,,,,,,,,,,,,,,,,,,,,,,,,,,,,,
,,,,,,,,,5c4a4b329ba9e00001ffc4f3,Mexican,13 or older,"no, only English or Spanish",no,2025-07-22_21h53.06.915,empathy_intonation_perc,2024.2.4,Win32,119.9040767,5c4a4b329ba9e00001ffc4f3,687ed1b7e638a4cbf2f02089,6880405b18a35585d723aad2,,,,,,,,,,,,,73,0,,./stim/wavs/castilian_mismatch_declarative-broad-focus_Mi-tia-odia-la-lluvia.wav,,,,,,,,,,,,,,,,,,,,,,261.508,264.532,1,0,2.508,,0,19,19,72,1,0,castilian,,,,,,,,,,,,,,,,,,,,,,,,,,,,,,,,,,,,,,,,,,,,,,,,,,,,,,,,
,,,,,,,,,5c4a4b329ba9e00001ffc4f3,Mexican,13 or older,"no, only English or Spanish",no,2025-07-22_21h53.06.915,empathy_intonation_perc,2024.2.4,Win32,119.9040767,5c4a4b329ba9e00001ffc4f3,687ed1b7e638a4cbf2f02089,6880405b18a35585d723aad2,,,,,,,,,,,,,66,0,,./stim/wavs/puertorican_match_declarative-broad-focus_Emilio-ama-la-marcha.wav,,,,,,,,,,,,,,,,,,,,,,264.533,267.623,0,1,2.578,,0,20,20,65,1,0,puertorican,,,,,,,,,,,,,,,,,,,,,,,,,,,,,,,,,,,,,,,,,,,,,,,,,,,,,,,,
,,,,,,,,,5c4a4b329ba9e00001ffc4f3,Mexican,13 or older,"no, only English or Spanish",no,2025-07-22_21h53.06.915,empathy_intonation_perc,2024.2.4,Win32,119.9040767,5c4a4b329ba9e00001ffc4f3,687ed1b7e638a4cbf2f02089,6880405b18a35585d723aad2,,,,,,,,,,,,,52,0,,./stim/wavs/cuban_match_declarative-broad-focus_Daniel-iba-a-Bolivia.wav,,,,,,,,,,,,,,,,,,,,,,267.625,269.973,0,1,1.843,,0,21,21,51,1,0,cuban,,,,,,,,,,,,,,,,,,,,,,,,,,,,,,,,,,,,,,,,,,,,,,,,,,,,,,,,
,,,,,,,,,5c4a4b329ba9e00001ffc4f3,Mexican,13 or older,"no, only English or Spanish",no,2025-07-22_21h53.06.915,empathy_intonation_perc,2024.2.4,Win32,119.9040767,5c4a4b329ba9e00001ffc4f3,687ed1b7e638a4cbf2f02089,6880405b18a35585d723aad2,,,,,,,,,,,,,8,1,,./stim/wavs/cuban_match_interrogative-total-yn_Daniel-iba-a-Bolivia.wav,,,,,,,,,,,,,,,,,,,,,,269.974,272.048,0,0,1.559,,0,22,22,7,1,1,cuban,,,,,,,,,,,,,,,,,,,,,,,,,,,,,,,,,,,,,,,,,,,,,,,,,,,,,,,,
,,,,,,,,,5c4a4b329ba9e00001ffc4f3,Mexican,13 or older,"no, only English or Spanish",no,2025-07-22_21h53.06.915,empathy_intonation_perc,2024.2.4,Win32,119.9040767,5c4a4b329ba9e00001ffc4f3,687ed1b7e638a4cbf2f02089,6880405b18a35585d723aad2,,,,,,,,,,,,,14,1,,./stim/wavs/mexican_match_interrogative-total-yn_Daniel-iba-a-Bolivia.wav,,,,,,,,,,,,,,,,,,,,,,272.049,274.482,0,0,1.921,,0,23,23,13,1,0,mexican,,,,,,,,,,,,,,,,,,,,,,,,,,,,,,,,,,,,,,,,,,,,,,,,,,,,,,,,
,,,,,,,,,5c4a4b329ba9e00001ffc4f3,Mexican,13 or older,"no, only English or Spanish",no,2025-07-22_21h53.06.915,empathy_intonation_perc,2024.2.4,Win32,119.9040767,5c4a4b329ba9e00001ffc4f3,687ed1b7e638a4cbf2f02089,6880405b18a35585d723aad2,,,,,,,,,,,,,76,0,,./stim/wavs/cuban_mismatch_declarative-broad-focus_La-nina-lava-el-plato.wav,,,,,,,,,,,,,,,,,,,,,,274.482,278.065,1,0,3.068,,0,24,24,75,1,0,cuban,,,,,,,,,,,,,,,,,,,,,,,,,,,,,,,,,,,,,,,,,,,,,,,,,,,,,,,,
,,,,,,,,,5c4a4b329ba9e00001ffc4f3,Mexican,13 or older,"no, only English or Spanish",no,2025-07-22_21h53.06.915,empathy_intonation_perc,2024.2.4,Win32,119.9040767,5c4a4b329ba9e00001ffc4f3,687ed1b7e638a4cbf2f02089,6880405b18a35585d723aad2,,,,,,,,,,,,,83,0,,./stim/wavs/mexican_mismatch_declarative-broad-focus_Mi-tia-odia-la-lluvia.wav,,,,,,,,,,,,,,,,,,,,,,278.065,280.89,0,1,2.322,,0,25,25,82,1,0,mexican,,,,,,,,,,,,,,,,,,,,,,,,,,,,,,,,,,,,,,,,,,,,,,,,,,,,,,,,
,,,,,,,,,5c4a4b329ba9e00001ffc4f3,Mexican,13 or older,"no, only English or Spanish",no,2025-07-22_21h53.06.915,empathy_intonation_perc,2024.2.4,Win32,119.9040767,5c4a4b329ba9e00001ffc4f3,687ed1b7e638a4cbf2f02089,6880405b18a35585d723aad2,,,,,,,,,,,,,79,0,,./stim/wavs/mexican_mismatch_declarative-broad-focus_El-bebe-comia-muy-bien.wav,,,,,,,,,,,,,,,,,,,,,,280.891,283.782,0,1,2.379,,0,26,26,78,1,0,mexican,,,,,,,,,,,,,,,,,,,,,,,,,,,,,,,,,,,,,,,,,,,,,,,,,,,,,,,,
,,,,,,,,,5c4a4b329ba9e00001ffc4f3,Mexican,13 or older,"no, only English or Spanish",no,2025-07-22_21h53.06.915,empathy_intonation_perc,2024.2.4,Win32,119.9040767,5c4a4b329ba9e00001ffc4f3,687ed1b7e638a4cbf2f02089,6880405b18a35585d723aad2,,,,,,,,,,,,,20,1,,./stim/wavs/puertorican_match_interrogative-total-yn_Daniel-iba-a-Bolivia.wav,,,,,,,,,,,,,,,,,,,,,,283.782,286.19,0,0,1.901,,0,27,27,19,1,1,puertorican,,,,,,,,,,,,,,,,,,,,,,,,,,,,,,,,,,,,,,,,,,,,,,,,,,,,,,,,
,,,,,,,,,5c4a4b329ba9e00001ffc4f3,Mexican,13 or older,"no, only English or Spanish",no,2025-07-22_21h53.06.915,empathy_intonation_perc,2024.2.4,Win32,119.9040767,5c4a4b329ba9e00001ffc4f3,687ed1b7e638a4cbf2f02089,6880405b18a35585d723aad2,,,,,,,,,,,,,15,1,,./stim/wavs/mexican_match_interrogative-total-yn_David-leia-el-libro.wav,,,,,,,,,,,,,,,,,,,,,,286.19,288.489,0,0,1.791,,0,28,28,14,1,0,mexican,,,,,,,,,,,,,,,,,,,,,,,,,,,,,,,,,,,,,,,,,,,,,,,,,,,,,,,,
,,,,,,,,,5c4a4b329ba9e00001ffc4f3,Mexican,13 or older,"no, only English or Spanish",no,2025-07-22_21h53.06.915,empathy_intonation_perc,2024.2.4,Win32,119.9040767,5c4a4b329ba9e00001ffc4f3,687ed1b7e638a4cbf2f02089,6880405b18a35585d723aad2,,,,,,,,,,,,,86,0,,./stim/wavs/puertorican_mismatch_declarative-broad-focus_El-nino-oye-el-rio.wav,,,,,,,,,,,,,,,,,,,,,,288.49,291.481,1,0,2.483,,0,29,29,85,1,0,puertorican,,,,,,,,,,,,,,,,,,,,,,,,,,,,,,,,,,,,,,,,,,,,,,,,,,,,,,,,
,,,,,,,,,5c4a4b329ba9e00001ffc4f3,Mexican,13 or older,"no, only English or Spanish",no,2025-07-22_21h53.06.915,empathy_intonation_perc,2024.2.4,Win32,119.9040767,5c4a4b329ba9e00001ffc4f3,687ed1b7e638a4cbf2f02089,6880405b18a35585d723aad2,,,,,,,,,,,,,51,0,,./stim/wavs/cuban_match_declarative-broad-focus_Ana-lleva-el-abrigo.wav,,,,,,,,,,,,,,,,,,,,,,291.482,294.24,0,1,2.252,,0,30,30,50,1,0,cuban,,,,,,,,,,,,,,,,,,,,,,,,,,,,,,,,,,,,,,,,,,,,,,,,,,,,,,,,
,,,,,,,,,5c4a4b329ba9e00001ffc4f3,Mexican,13 or older,"no, only English or Spanish",no,2025-07-22_21h53.06.915,empathy_intonation_perc,2024.2.4,Win32,119.9040767,5c4a4b329ba9e00001ffc4f3,687ed1b7e638a4cbf2f02089,6880405b18a35585d723aad2,,,,,,,,,,,,,33,1,,./stim/wavs/cuban_mismatch_interrogative-total-yn_Mi-novio-viene-del-lago.wav,,,,,,,,,,,,,,,,,,,,,,294.242,296.615,0,0,1.858,,0,31,31,32,1,1,cuban,,,,,,,,,,,,,,,,,,,,,,,,,,,,,,,,,,,,,,,,,,,,,,,,,,,,,,,,
,,,,,,,,,5c4a4b329ba9e00001ffc4f3,Mexican,13 or older,"no, only English or Spanish",no,2025-07-22_21h53.06.915,empathy_intonation_perc,2024.2.4,Win32,119.9040767,5c4a4b329ba9e00001ffc4f3,687ed1b7e638a4cbf2f02089,6880405b18a35585d723aad2,,,,,,,,,,,,,48,0,,./stim/wavs/castilian_match_declarative-broad-focus_Maria-bebe-el-vino.wav,,,,,,,,,,,,,,,,,,,,,,296.615,300.106,0,1,2.987,,0,32,32,47,1,0,castilian,,,,,,,,,,,,,,,,,,,,,,,,,,,,,,,,,,,,,,,,,,,,,,,,,,,,,,,,
,,,,,,,,,5c4a4b329ba9e00001ffc4f3,Mexican,13 or older,"no, only English or Spanish",no,2025-07-22_21h53.06.915,empathy_intonation_perc,2024.2.4,Win32,119.9040767,5c4a4b329ba9e00001ffc4f3,687ed1b7e638a4cbf2f02089,6880405b18a35585d723aad2,,,,,,,,,,,,,65,0,,./stim/wavs/puertorican_match_declarative-broad-focus_David-leia-el-libro.wav,,,,,,,,,,,,,,,,,,,,,,300.108,303.531,0,1,2.906,,0,33,33,64,1,0,puertorican,,,,,,,,,,,,,,,,,,,,,,,,,,,,,,,,,,,,,,,,,,,,,,,,,,,,,,,,
,,,,,,,,,5c4a4b329ba9e00001ffc4f3,Mexican,13 or older,"no, only English or Spanish",no,2025-07-22_21h53.06.915,empathy_intonation_perc,2024.2.4,Win32,119.9040767,5c4a4b329ba9e00001ffc4f3,687ed1b7e638a4cbf2f02089,6880405b18a35585d723aad2,,,,,,,,,,,,,22,1,,./stim/wavs/puertorican_match_interrogative-total-yn_Emilio-ama-la-marcha.wav,,,,,,,,,,,,,,,,,,,,,,303.531,306.431,1,1,2.396,,0,34,34,21,1,1,puertorican,,,,,,,,,,,,,,,,,,,,,,,,,,,,,,,,,,,,,,,,,,,,,,,,,,,,,,,,
,,,,,,,,,5c4a4b329ba9e00001ffc4f3,Mexican,13 or older,"no, only English or Spanish",no,2025-07-22_21h53.06.915,empathy_intonation_perc,2024.2.4,Win32,119.9040767,5c4a4b329ba9e00001ffc4f3,687ed1b7e638a4cbf2f02089,6880405b18a35585d723aad2,,,,,,,,,,,,,28,1,,./stim/wavs/castilian_mismatch_interrogative-total-yn_Mi-novio-viene-del-lago.wav,,,,,,,,,,,,,,,,,,,,,,306.432,309.39,0,0,2.443,,0,35,35,27,1,0,castilian,,,,,,,,,,,,,,,,,,,,,,,,,,,,,,,,,,,,,,,,,,,,,,,,,,,,,,,,
,,,,,,,,,5c4a4b329ba9e00001ffc4f3,Mexican,13 or older,"no, only English or Spanish",no,2025-07-22_21h53.06.915,empathy_intonation_perc,2024.2.4,Win32,119.9040767,5c4a4b329ba9e00001ffc4f3,687ed1b7e638a4cbf2f02089,6880405b18a35585d723aad2,,,,,,,,,,,,,77,0,,./stim/wavs/cuban_mismatch_declarative-broad-focus_Mi-novio-viene-del-lago.wav,,,,,,,,,,,,,,,,,,,,,,309.39,311.79,0,1,1.892,,0,36,36,76,1,0,cuban,,,,,,,,,,,,,,,,,,,,,,,,,,,,,,,,,,,,,,,,,,,,,,,,,,,,,,,,
,,,,,,,,,5c4a4b329ba9e00001ffc4f3,Mexican,13 or older,"no, only English or Spanish",no,2025-07-22_21h53.06.915,empathy_intonation_perc,2024.2.4,Win32,119.9040767,5c4a4b329ba9e00001ffc4f3,687ed1b7e638a4cbf2f02089,6880405b18a35585d723aad2,,,,,,,,,,,,,21,1,,./stim/wavs/puertorican_match_interrogative-total-yn_David-leia-el-libro.wav,,,,,,,,,,,,,,,,,,,,,,311.79,314.281,0,0,1.977,,0,37,37,20,1,1,puertorican,,,,,,,,,,,,,,,,,,,,,,,,,,,,,,,,,,,,,,,,,,,,,,,,,,,,,,,,
,,,,,,,,,5c4a4b329ba9e00001ffc4f3,Mexican,13 or older,"no, only English or Spanish",no,2025-07-22_21h53.06.915,empathy_intonation_perc,2024.2.4,Win32,119.9040767,5c4a4b329ba9e00001ffc4f3,687ed1b7e638a4cbf2f02089,6880405b18a35585d723aad2,,,,,,,,,,,,,18,1,,./stim/wavs/mexican_match_interrogative-total-yn_Marta-abre-el-regalo.wav,,,,,,,,,,,,,,,,,,,,,,314.282,317.264,0,0,2.474,,0,38,38,17,1,0,mexican,,,,,,,,,,,,,,,,,,,,,,,,,,,,,,,,,,,,,,,,,,,,,,,,,,,,,,,,
,,,,,,,,,5c4a4b329ba9e00001ffc4f3,Mexican,13 or older,"no, only English or Spanish",no,2025-07-22_21h53.06.915,empathy_intonation_perc,2024.2.4,Win32,119.9040767,5c4a4b329ba9e00001ffc4f3,687ed1b7e638a4cbf2f02089,6880405b18a35585d723aad2,,,,,,,,,,,,,12,1,,./stim/wavs/cuban_match_interrogative-total-yn_Marta-abre-el-regalo.wav,,,,,,,,,,,,,,,,,,,,,,317.265,320.59,0,0,2.809,,0,39,39,11,1,1,cuban,,,,,,,,,,,,,,,,,,,,,,,,,,,,,,,,,,,,,,,,,,,,,,,,,,,,,,,,
,,,,,,,,,5c4a4b329ba9e00001ffc4f3,Mexican,13 or older,"no, only English or Spanish",no,2025-07-22_21h53.06.915,empathy_intonation_perc,2024.2.4,Win32,119.9040767,5c4a4b329ba9e00001ffc4f3,687ed1b7e638a4cbf2f02089,6880405b18a35585d723aad2,,,,,,,,,,,,,34,1,,./stim/wavs/cuban_mismatch_interrogative-total-yn_Mi-tia-odia-la-lluvia.wav,,,,,,,,,,,,,,,,,,,,,,320.59,322.989,1,1,1.884,,0,40,40,33,1,1,cuban,,,,,,,,,,,,,,,,,,,,,,,,,,,,,,,,,,,,,,,,,,,,,,,,,,,,,,,,
,,,,,,,,,5c4a4b329ba9e00001ffc4f3,Mexican,13 or older,"no, only English or Spanish",no,2025-07-22_21h53.06.915,empathy_intonation_perc,2024.2.4,Win32,119.9040767,5c4a4b329ba9e00001ffc4f3,687ed1b7e638a4cbf2f02089,6880405b18a35585d723aad2,,,,,,,,,,,,,3,1,,./stim/wavs/castilian_match_interrogative-total-yn_Manuela-vende-el-carro.wav,,,,,,,,,,,,,,,,,,,,,,322.99,329.423,1,1,5.916,,0,41,41,2,1,0,castilian,,,,,,,,,,,,,,,,,,,,,,,,,,,,,,,,,,,,,,,,,,,,,,,,,,,,,,,,
,,,,,,,,,5c4a4b329ba9e00001ffc4f3,Mexican,13 or older,"no, only English or Spanish",no,2025-07-22_21h53.06.915,empathy_intonation_perc,2024.2.4,Win32,119.9040767,5c4a4b329ba9e00001ffc4f3,687ed1b7e638a4cbf2f02089,6880405b18a35585d723aad2,,,,,,,,,,,,,64,0,,./stim/wavs/puertorican_match_declarative-broad-focus_Daniel-iba-a-Bolivia.wav,,,,,,,,,,,,,,,,,,,,,,329.424,334.264,1,0,4.325,,0,42,42,63,1,0,puertorican,,,,,,,,,,,,,,,,,,,,,,,,,,,,,,,,,,,,,,,,,,,,,,,,,,,,,,,,
,,,,,,,,,5c4a4b329ba9e00001ffc4f3,Mexican,13 or older,"no, only English or Spanish",no,2025-07-22_21h53.06.915,empathy_intonation_perc,2024.2.4,Win32,119.9040767,5c4a4b329ba9e00001ffc4f3,687ed1b7e638a4cbf2f02089,6880405b18a35585d723aad2,,,,,,,,,,,,,32,1,,./stim/wavs/cuban_mismatch_interrogative-total-yn_Mi-madre-come-la-fruta.wav,,,,,,,,,,,,,,,,,,,,,,334.264,336.922,0,0,2.154,,0,43,43,31,1,1,cuban,,,,,,,,,,,,,,,,,,,,,,,,,,,,,,,,,,,,,,,,,,,,,,,,,,,,,,,,
,,,,,,,,,5c4a4b329ba9e00001ffc4f3,Mexican,13 or older,"no, only English or Spanish",no,2025-07-22_21h53.06.915,empathy_intonation_perc,2024.2.4,Win32,119.9040767,5c4a4b329ba9e00001ffc4f3,687ed1b7e638a4cbf2f02089,6880405b18a35585d723aad2,,,,,,,,,,,,,44,1,,./stim/wavs/puertorican_mismatch_interrogative-total-yn_Mi-madre-come-la-fruta.wav,,,,,,,,,,,,,,,,,,,,,,336.923,340.68,1,1,3.243,,0,44,44,43,1,1,puertorican,,,,,,,,,,,,,,,,,,,,,,,,,,,,,,,,,,,,,,,,,,,,,,,,,,,,,,,,
,,,,,,,,,5c4a4b329ba9e00001ffc4f3,Mexican,13 or older,"no, only English or Spanish",no,2025-07-22_21h53.06.915,empathy_intonation_perc,2024.2.4,Win32,119.9040767,5c4a4b329ba9e00001ffc4f3,687ed1b7e638a4cbf2f02089,6880405b18a35585d723aad2,,,,,,,,,,,,,69,0,,./stim/wavs/castilian_mismatch_declarative-broad-focus_El-nino-oye-el-rio.wav,,,,,,,,,,,,,,,,,,,,,,340.681,345.506,1,0,4.316,,0,45,45,68,1,0,castilian,,,,,,,,,,,,,,,,,,,,,,,,,,,,,,,,,,,,,,,,,,,,,,,,,,,,,,,,
,,,,,,,,,5c4a4b329ba9e00001ffc4f3,Mexican,13 or older,"no, only English or Spanish",no,2025-07-22_21h53.06.915,empathy_intonation_perc,2024.2.4,Win32,119.9040767,5c4a4b329ba9e00001ffc4f3,687ed1b7e638a4cbf2f02089,6880405b18a35585d723aad2,,,,,,,,,,,,,49,0,,./stim/wavs/castilian_match_declarative-broad-focus_Mariano-habla-del-tiempo.wav,,,,,,,,,,,,,,,,,,,,,,345.506,349.08,0,1,3.058,,0,46,46,48,1,0,castilian,,,,,,,,,,,,,,,,,,,,,,,,,,,,,,,,,,,,,,,,,,,,,,,,,,,,,,,,
,,,,,,,,,5c4a4b329ba9e00001ffc4f3,Mexican,13 or older,"no, only English or Spanish",no,2025-07-22_21h53.06.915,empathy_intonation_perc,2024.2.4,Win32,119.9040767,5c4a4b329ba9e00001ffc4f3,687ed1b7e638a4cbf2f02089,6880405b18a35585d723aad2,,,,,,,,,,,,,19,1,,./stim/wavs/puertorican_match_interrogative-total-yn_Ana-lleva-el-abrigo.wav,,,,,,,,,,,,,,,,,,,,,,349.081,352.239,0,0,2.654,,0,47,47,18,1,1,puertorican,,,,,,,,,,,,,,,,,,,,,,,,,,,,,,,,,,,,,,,,,,,,,,,,,,,,,,,,
,,,,,,,,,5c4a4b329ba9e00001ffc4f3,Mexican,13 or older,"no, only English or Spanish",no,2025-07-22_21h53.06.915,empathy_intonation_perc,2024.2.4,Win32,119.9040767,5c4a4b329ba9e00001ffc4f3,687ed1b7e638a4cbf2f02089,6880405b18a35585d723aad2,,,,,,,,,,,,,46,0,,./stim/wavs/castilian_match_declarative-broad-focus_Emilio-ama-la-marcha.wav,,,,,,,,,,,,,,,,,,,,,,352.24,358.997,1,0,6.243,,0,48,48,45,1,0,castilian,,,,,,,,,,,,,,,,,,,,,,,,,,,,,,,,,,,,,,,,,,,,,,,,,,,,,,,,
,,,,,,,,,5c4a4b329ba9e00001ffc4f3,Mexican,13 or older,"no, only English or Spanish",no,2025-07-22_21h53.06.915,empathy_intonation_perc,2024.2.4,Win32,119.9040767,5c4a4b329ba9e00001ffc4f3,687ed1b7e638a4cbf2f02089,6880405b18a35585d723aad2,,,,,,,,,,,,,29,1,,./stim/wavs/castilian_mismatch_interrogative-total-yn_Mi-tia-odia-la-lluvia.wav,,,,,,,,,,,,,,,,,,,,,,358.999,362.606,1,1,3.105,,0,49,49,28,1,0,castilian,,,,,,,,,,,,,,,,,,,,,,,,,,,,,,,,,,,,,,,,,,,,,,,,,,,,,,,,
,,,,,,,,,5c4a4b329ba9e00001ffc4f3,Mexican,13 or older,"no, only English or Spanish",no,2025-07-22_21h53.06.915,empathy_intonation_perc,2024.2.4,Win32,119.9040767,5c4a4b329ba9e00001ffc4f3,687ed1b7e638a4cbf2f02089,6880405b18a35585d723aad2,,,,,,,,,,,,,7,1,,./stim/wavs/cuban_match_interrogative-total-yn_Ana-lleva-el-abrigo.wav,,,,,,,,,,,,,,,,,,,,,,362.606,365.047,0,0,1.929,,0,50,50,6,1,1,cuban,,,,,,,,,,,,,,,,,,,,,,,,,,,,,,,,,,,,,,,,,,,,,,,,,,,,,,,,
,,,,,,,,,5c4a4b329ba9e00001ffc4f3,Mexican,13 or older,"no, only English or Spanish",no,2025-07-22_21h53.06.915,empathy_intonation_perc,2024.2.4,Win32,119.9040767,5c4a4b329ba9e00001ffc4f3,687ed1b7e638a4cbf2f02089,6880405b18a35585d723aad2,,,,,,,,,,,,,62,0,,./stim/wavs/mexican_match_declarative-broad-focus_Marta-abre-el-regalo.wav,,,,,,,,,,,,,,,,,,,,,,365.047,367.18,0,1,1.627,,0,51,51,61,1,0,mexican,,,,,,,,,,,,,,,,,,,,,,,,,,,,,,,,,,,,,,,,,,,,,,,,,,,,,,,,
,,,,,,,,,5c4a4b329ba9e00001ffc4f3,Mexican,13 or older,"no, only English or Spanish",no,2025-07-22_21h53.06.915,empathy_intonation_perc,2024.2.4,Win32,119.9040767,5c4a4b329ba9e00001ffc4f3,687ed1b7e638a4cbf2f02089,6880405b18a35585d723aad2,,,,,,,,,,,,,81,0,,./stim/wavs/mexican_mismatch_declarative-broad-focus_La-maestra-vive-en-Paris.wav,,,,,,,,,,,,,,,,,,,,,,367.181,370.106,0,1,2.422,,0,52,52,80,1,0,mexican,,,,,,,,,,,,,,,,,,,,,,,,,,,,,,,,,,,,,,,,,,,,,,,,,,,,,,,,
,,,,,,,,,5c4a4b329ba9e00001ffc4f3,Mexican,13 or older,"no, only English or Spanish",no,2025-07-22_21h53.06.915,empathy_intonation_perc,2024.2.4,Win32,119.9040767,5c4a4b329ba9e00001ffc4f3,687ed1b7e638a4cbf2f02089,6880405b18a35585d723aad2,,,,,,,,,,,,,10,1,,./stim/wavs/cuban_match_interrogative-total-yn_Maria-bebe-el-vino.wav,,,,,,,,,,,,,,,,,,,,,,370.107,372.156,0,0,1.533,,0,53,53,9,1,1,cuban,,,,,,,,,,,,,,,,,,,,,,,,,,,,,,,,,,,,,,,,,,,,,,,,,,,,,,,,
,,,,,,,,,5c4a4b329ba9e00001ffc4f3,Mexican,13 or older,"no, only English or Spanish",no,2025-07-22_21h53.06.915,empathy_intonation_perc,2024.2.4,Win32,119.9040767,5c4a4b329ba9e00001ffc4f3,687ed1b7e638a4cbf2f02089,6880405b18a35585d723aad2,,,,,,,,,,,,,70,0,,./stim/wavs/castilian_mismatch_declarative-broad-focus_La-maestra-vive-en-Paris.wav,,,,,,,,,,,,,,,,,,,,,,372.156,376.221,1,0,3.555,,0,54,54,69,1,0,castilian,,,,,,,,,,,,,,,,,,,,,,,,,,,,,,,,,,,,,,,,,,,,,,,,,,,,,,,,
,,,,,,,,,5c4a4b329ba9e00001ffc4f3,Mexican,13 or older,"no, only English or Spanish",no,2025-07-22_21h53.06.915,empathy_intonation_perc,2024.2.4,Win32,119.9040767,5c4a4b329ba9e00001ffc4f3,687ed1b7e638a4cbf2f02089,6880405b18a35585d723aad2,,,,,,,,,,,,,61,0,,./stim/wavs/mexican_match_declarative-broad-focus_Mariano-habla-del-tiempo.wav,,,,,,,,,,,,,,,,,,,,,,376.223,379.072,1,0,2.343,,0,55,55,60,1,0,mexican,,,,,,,,,,,,,,,,,,,,,,,,,,,,,,,,,,,,,,,,,,,,,,,,,,,,,,,,
,,,,,,,,,5c4a4b329ba9e00001ffc4f3,Mexican,13 or older,"no, only English or Spanish",no,2025-07-22_21h53.06.915,empathy_intonation_perc,2024.2.4,Win32,119.9040767,5c4a4b329ba9e00001ffc4f3,687ed1b7e638a4cbf2f02089,6880405b18a35585d723aad2,,,,,,,,,,,,,37,1,,./stim/wavs/mexican_mismatch_interrogative-total-yn_La-maestra-vive-en-Paris.wav,,,,,,,,,,,,,,,,,,,,,,379.072,381.78,1,1,2.202,,0,56,56,36,1,0,mexican,,,,,,,,,,,,,,,,,,,,,,,,,,,,,,,,,,,,,,,,,,,,,,,,,,,,,,,,
,,,,,,,,,5c4a4b329ba9e00001ffc4f3,Mexican,13 or older,"no, only English or Spanish",no,2025-07-22_21h53.06.915,empathy_intonation_perc,2024.2.4,Win32,119.9040767,5c4a4b329ba9e00001ffc4f3,687ed1b7e638a4cbf2f02089,6880405b18a35585d723aad2,,,,,,,,,,,,,25,1,,./stim/wavs/castilian_mismatch_interrogative-total-yn_La-maestra-vive-en-Paris.wav,,,,,,,,,,,,,,,,,,,,,,381.781,385.48,1,1,3.185,,0,57,57,24,1,0,castilian,,,,,,,,,,,,,,,,,,,,,,,,,,,,,,,,,,,,,,,,,,,,,,,,,,,,,,,,
,,,,,,,,,5c4a4b329ba9e00001ffc4f3,Mexican,13 or older,"no, only English or Spanish",no,2025-07-22_21h53.06.915,empathy_intonation_perc,2024.2.4,Win32,119.9040767,5c4a4b329ba9e00001ffc4f3,687ed1b7e638a4cbf2f02089,6880405b18a35585d723aad2,,,,,,,,,,,,,80,0,,./stim/wavs/mexican_mismatch_declarative-broad-focus_El-hombre-mira-la-luna.wav,,,,,,,,,,,,,,,,,,,,,,385.481,388.439,0,1,2.451,,0,58,58,79,1,0,mexican,,,,,,,,,,,,,,,,,,,,,,,,,,,,,,,,,,,,,,,,,,,,,,,,,,,,,,,,
,,,,,,,,,5c4a4b329ba9e00001ffc4f3,Mexican,13 or older,"no, only English or Spanish",no,2025-07-22_21h53.06.915,empathy_intonation_perc,2024.2.4,Win32,119.9040767,5c4a4b329ba9e00001ffc4f3,687ed1b7e638a4cbf2f02089,6880405b18a35585d723aad2,,,,,,,,,,,,,63,0,,./stim/wavs/puertorican_match_declarative-broad-focus_Ana-lleva-el-abrigo.wav,,,,,,,,,,,,,,,,,,,,,,388.439,391.439,0,1,2.489,,0,59,59,62,1,0,puertorican,,,,,,,,,,,,,,,,,,,,,,,,,,,,,,,,,,,,,,,,,,,,,,,,,,,,,,,,
,,,,,,,,,5c4a4b329ba9e00001ffc4f3,Mexican,13 or older,"no, only English or Spanish",no,2025-07-22_21h53.06.915,empathy_intonation_perc,2024.2.4,Win32,119.9040767,5c4a4b329ba9e00001ffc4f3,687ed1b7e638a4cbf2f02089,6880405b18a35585d723aad2,,,,,,,,,,,,,16,1,,./stim/wavs/mexican_match_interrogative-total-yn_Emilio-ama-la-marcha.wav,,,,,,,,,,,,,,,,,,,,,,391.44,394.097,1,1,2.143,,0,60,60,15,1,0,mexican,,,,,,,,,,,,,,,,,,,,,,,,,,,,,,,,,,,,,,,,,,,,,,,,,,,,,,,,
,,,,,,,,,5c4a4b329ba9e00001ffc4f3,Mexican,13 or older,"no, only English or Spanish",no,2025-07-22_21h53.06.915,empathy_intonation_perc,2024.2.4,Win32,119.9040767,5c4a4b329ba9e00001ffc4f3,687ed1b7e638a4cbf2f02089,6880405b18a35585d723aad2,,,,,,,,,,,,,72,0,,./stim/wavs/castilian_mismatch_declarative-broad-focus_Mi-novio-viene-del-lago.wav,,,,,,,,,,,,,,,,,,,,,,394.097,397.013,0,1,2.401,,0,61,61,71,1,0,castilian,,,,,,,,,,,,,,,,,,,,,,,,,,,,,,,,,,,,,,,,,,,,,,,,,,,,,,,,
,,,,,,,,,5c4a4b329ba9e00001ffc4f3,Mexican,13 or older,"no, only English or Spanish",no,2025-07-22_21h53.06.915,empathy_intonation_perc,2024.2.4,Win32,119.9040767,5c4a4b329ba9e00001ffc4f3,687ed1b7e638a4cbf2f02089,6880405b18a35585d723aad2,,,,,,,,,,,,,27,1,,./stim/wavs/castilian_mismatch_interrogative-total-yn_Mi-madre-come-la-fruta.wav,,,,,,,,,,,,,,,,,,,,,,397.014,399.93,1,1,2.404,,0,62,62,26,1,0,castilian,,,,,,,,,,,,,,,,,,,,,,,,,,,,,,,,,,,,,,,,,,,,,,,,,,,,,,,,
,,,,,,,,,5c4a4b329ba9e00001ffc4f3,Mexican,13 or older,"no, only English or Spanish",no,2025-07-22_21h53.06.915,empathy_intonation_perc,2024.2.4,Win32,119.9040767,5c4a4b329ba9e00001ffc4f3,687ed1b7e638a4cbf2f02089,6880405b18a35585d723aad2,,,,,,,,,,,,,41,1,,./stim/wavs/puertorican_mismatch_interrogative-total-yn_El-nino-oye-el-rio.wav,,,,,,,,,,,,,,,,,,,,,,399.931,402.513,0,0,2.066,,0,63,63,40,1,1,puertorican,,,,,,,,,,,,,,,,,,,,,,,,,,,,,,,,,,,,,,,,,,,,,,,,,,,,,,,,
,,,,,,,,,5c4a4b329ba9e00001ffc4f3,Mexican,13 or older,"no, only English or Spanish",no,2025-07-22_21h53.06.915,empathy_intonation_perc,2024.2.4,Win32,119.9040767,5c4a4b329ba9e00001ffc4f3,687ed1b7e638a4cbf2f02089,6880405b18a35585d723aad2,,,,,,,,,,,,,30,1,,./stim/wavs/cuban_mismatch_interrogative-total-yn_El-hombre-mira-la-luna.wav,,,,,,,,,,,,,,,,,,,,,,402.514,404.722,0,0,1.705,,0,64,64,29,1,1,cuban,,,,,,,,,,,,,,,,,,,,,,,,,,,,,,,,,,,,,,,,,,,,,,,,,,,,,,,,
,,,,,,,,,5c4a4b329ba9e00001ffc4f3,Mexican,13 or older,"no, only English or Spanish",no,2025-07-22_21h53.06.915,empathy_intonation_perc,2024.2.4,Win32,119.9040767,5c4a4b329ba9e00001ffc4f3,687ed1b7e638a4cbf2f02089,6880405b18a35585d723aad2,,,,,,,,,,,,,71,0,,./stim/wavs/castilian_mismatch_declarative-broad-focus_La-nina-lava-el-plato.wav,,,,,,,,,,,,,,,,,,,,,,404.722,407.672,0,1,2.437,,0,65,65,70,1,0,castilian,,,,,,,,,,,,,,,,,,,,,,,,,,,,,,,,,,,,,,,,,,,,,,,,,,,,,,,,
,,,,,,,,,5c4a4b329ba9e00001ffc4f3,Mexican,13 or older,"no, only English or Spanish",no,2025-07-22_21h53.06.915,empathy_intonation_perc,2024.2.4,Win32,119.9040767,5c4a4b329ba9e00001ffc4f3,687ed1b7e638a4cbf2f02089,6880405b18a35585d723aad2,,,,,,,,,,,,,58,0,,./stim/wavs/mexican_match_declarative-broad-focus_Daniel-iba-a-Bolivia.wav,,,,,,,,,,,,,,,,,,,,,,407.672,409.871,0,1,1.683,,0,66,66,57,1,0,mexican,,,,,,,,,,,,,,,,,,,,,,,,,,,,,,,,,,,,,,,,,,,,,,,,,,,,,,,,
,,,,,,,,,5c4a4b329ba9e00001ffc4f3,Mexican,13 or older,"no, only English or Spanish",no,2025-07-22_21h53.06.915,empathy_intonation_perc,2024.2.4,Win32,119.9040767,5c4a4b329ba9e00001ffc4f3,687ed1b7e638a4cbf2f02089,6880405b18a35585d723aad2,,,,,,,,,,,,,54,0,,./stim/wavs/cuban_match_declarative-broad-focus_Maria-bebe-el-vino.wav,,,,,,,,,,,,,,,,,,,,,,409.872,412.355,0,1,1.967,,0,67,67,53,1,0,cuban,,,,,,,,,,,,,,,,,,,,,,,,,,,,,,,,,,,,,,,,,,,,,,,,,,,,,,,,
,,,,,,,,,5c4a4b329ba9e00001ffc4f3,Mexican,13 or older,"no, only English or Spanish",no,2025-07-22_21h53.06.915,empathy_intonation_perc,2024.2.4,Win32,119.9040767,5c4a4b329ba9e00001ffc4f3,687ed1b7e638a4cbf2f02089,6880405b18a35585d723aad2,,,,,,,,,,,,,4,1,,./stim/wavs/castilian_match_interrogative-total-yn_Maria-bebe-el-vino.wav,,,,,,,,,,,,,,,,,,,,,,412.355,414.363,0,0,1.502,,0,68,68,3,1,0,castilian,,,,,,,,,,,,,,,,,,,,,,,,,,,,,,,,,,,,,,,,,,,,,,,,,,,,,,,,
,,,,,,,,,5c4a4b329ba9e00001ffc4f3,Mexican,13 or older,"no, only English or Spanish",no,2025-07-22_21h53.06.915,empathy_intonation_perc,2024.2.4,Win32,119.9040767,5c4a4b329ba9e00001ffc4f3,687ed1b7e638a4cbf2f02089,6880405b18a35585d723aad2,,,,,,,,,,,,,13,1,,./stim/wavs/mexican_match_interrogative-total-yn_Ana-lleva-el-abrigo.wav,,,,,,,,,,,,,,,,,,,,,,414.364,416.596,1,1,1.717,,0,69,69,12,1,0,mexican,,,,,,,,,,,,,,,,,,,,,,,,,,,,,,,,,,,,,,,,,,,,,,,,,,,,,,,,
,,,,,,,,,5c4a4b329ba9e00001ffc4f3,Mexican,13 or older,"no, only English or Spanish",no,2025-07-22_21h53.06.915,empathy_intonation_perc,2024.2.4,Win32,119.9040767,5c4a4b329ba9e00001ffc4f3,687ed1b7e638a4cbf2f02089,6880405b18a35585d723aad2,,,,,,,,,,,,,75,0,,./stim/wavs/cuban_mismatch_declarative-broad-focus_El-hombre-mira-la-luna.wav,,,,,,,,,,,,,,,,,,,,,,416.597,419.172,0,1,2.069,,0,70,70,74,1,0,cuban,,,,,,,,,,,,,,,,,,,,,,,,,,,,,,,,,,,,,,,,,,,,,,,,,,,,,,,,
,,,,,,,,,5c4a4b329ba9e00001ffc4f3,Mexican,13 or older,"no, only English or Spanish",no,2025-07-22_21h53.06.915,empathy_intonation_perc,2024.2.4,Win32,119.9040767,5c4a4b329ba9e00001ffc4f3,687ed1b7e638a4cbf2f02089,6880405b18a35585d723aad2,,,,,,,,,,,,,42,1,,./stim/wavs/puertorican_mismatch_interrogative-total-yn_La-maestra-vive-en-Paris.wav,,,,,,,,,,,,,,,,,,,,,,419.172,421.513,0,0,1.826,,0,71,71,41,1,1,puertorican,,,,,,,,,,,,,,,,,,,,,,,,,,,,,,,,,,,,,,,,,,,,,,,,,,,,,,,,
,,,,,,,,,5c4a4b329ba9e00001ffc4f3,Mexican,13 or older,"no, only English or Spanish",no,2025-07-22_21h53.06.915,empathy_intonation_perc,2024.2.4,Win32,119.9040767,5c4a4b329ba9e00001ffc4f3,687ed1b7e638a4cbf2f02089,6880405b18a35585d723aad2,,,,,,,,,,,,,82,0,,./stim/wavs/mexican_mismatch_declarative-broad-focus_Mi-novio-viene-del-lago.wav,,,,,,,,,,,,,,,,,,,,,,421.513,423.83,0,1,1.801,,0,72,72,81,1,0,mexican,,,,,,,,,,,,,,,,,,,,,,,,,,,,,,,,,,,,,,,,,,,,,,,,,,,,,,,,
,,,,,,,,,5c4a4b329ba9e00001ffc4f3,Mexican,13 or older,"no, only English or Spanish",no,2025-07-22_21h53.06.915,empathy_intonation_perc,2024.2.4,Win32,119.9040767,5c4a4b329ba9e00001ffc4f3,687ed1b7e638a4cbf2f02089,6880405b18a35585d723aad2,,,,,,,,,,,,,2,1,,./stim/wavs/castilian_match_interrogative-total-yn_Emilio-ama-la-marcha.wav,,,,,,,,,,,,,,,,,,,,,,423.83,426.23,1,1,1.887,,0,73,73,1,1,0,castilian,,,,,,,,,,,,,,,,,,,,,,,,,,,,,,,,,,,,,,,,,,,,,,,,,,,,,,,,
,,,,,,,,,5c4a4b329ba9e00001ffc4f3,Mexican,13 or older,"no, only English or Spanish",no,2025-07-22_21h53.06.915,empathy_intonation_perc,2024.2.4,Win32,119.9040767,5c4a4b329ba9e00001ffc4f3,687ed1b7e638a4cbf2f02089,6880405b18a35585d723aad2,,,,,,,,,,,,,68,0,,./stim/wavs/puertorican_match_declarative-broad-focus_Maria-bebe-el-vino.wav,,,,,,,,,,,,,,,,,,,,,,426.231,428.347,0,1,1.599,,0,74,74,67,1,0,puertorican,,,,,,,,,,,,,,,,,,,,,,,,,,,,,,,,,,,,,,,,,,,,,,,,,,,,,,,,
,,,,,,,,,5c4a4b329ba9e00001ffc4f3,Mexican,13 or older,"no, only English or Spanish",no,2025-07-22_21h53.06.915,empathy_intonation_perc,2024.2.4,Win32,119.9040767,5c4a4b329ba9e00001ffc4f3,687ed1b7e638a4cbf2f02089,6880405b18a35585d723aad2,,,,,,,,,,,,,40,1,,./stim/wavs/puertorican_mismatch_interrogative-total-yn_El-hombre-mira-la-luna.wav,,,,,,,,,,,,,,,,,,,,,,428.347,431.679,0,0,2.817,,0,75,75,39,1,1,puertorican,,,,,,,,,,,,,,,,,,,,,,,,,,,,,,,,,,,,,,,,,,,,,,,,,,,,,,,,
,,,,,,,,,5c4a4b329ba9e00001ffc4f3,Mexican,13 or older,"no, only English or Spanish",no,2025-07-22_21h53.06.915,empathy_intonation_perc,2024.2.4,Win32,119.9040767,5c4a4b329ba9e00001ffc4f3,687ed1b7e638a4cbf2f02089,6880405b18a35585d723aad2,,,,,,,,,,,,,23,1,,./stim/wavs/puertorican_match_interrogative-total-yn_Manuela-vende-el-carro.wav,,,,,,,,,,,,,,,,,,,,,,431.681,433.921,0,0,1.724,,0,76,76,22,1,1,puertorican,,,,,,,,,,,,,,,,,,,,,,,,,,,,,,,,,,,,,,,,,,,,,,,,,,,,,,,,
,,,,,,,,,5c4a4b329ba9e00001ffc4f3,Mexican,13 or older,"no, only English or Spanish",no,2025-07-22_21h53.06.915,empathy_intonation_perc,2024.2.4,Win32,119.9040767,5c4a4b329ba9e00001ffc4f3,687ed1b7e638a4cbf2f02089,6880405b18a35585d723aad2,,,,,,,,,,,,,84,0,,./stim/wavs/puertorican_mismatch_declarative-broad-focus_El-bebe-comia-muy-bien.wav,,,,,,,,,,,,,,,,,,,,,,433.922,437.004,0,1,2.565,,0,77,77,83,1,0,puertorican,,,,,,,,,,,,,,,,,,,,,,,,,,,,,,,,,,,,,,,,,,,,,,,,,,,,,,,,
,,,,,,,,,5c4a4b329ba9e00001ffc4f3,Mexican,13 or older,"no, only English or Spanish",no,2025-07-22_21h53.06.915,empathy_intonation_perc,2024.2.4,Win32,119.9040767,5c4a4b329ba9e00001ffc4f3,687ed1b7e638a4cbf2f02089,6880405b18a35585d723aad2,,,,,,,,,,,,,5,1,,./stim/wavs/castilian_match_interrogative-total-yn_Mariano-habla-del-tiempo.wav,,,,,,,,,,,,,,,,,,,,,,437.005,439.404,1,1,1.885,,0,78,78,4,1,0,castilian,,,,,,,,,,,,,,,,,,,,,,,,,,,,,,,,,,,,,,,,,,,,,,,,,,,,,,,,
,,,,,,,,,5c4a4b329ba9e00001ffc4f3,Mexican,13 or older,"no, only English or Spanish",no,2025-07-22_21h53.06.915,empathy_intonation_perc,2024.2.4,Win32,119.9040767,5c4a4b329ba9e00001ffc4f3,687ed1b7e638a4cbf2f02089,6880405b18a35585d723aad2,,,,,,,,,,,,,26,1,,./stim/wavs/castilian_mismatch_interrogative-total-yn_La-nina-lava-el-plato.wav,,,,,,,,,,,,,,,,,,,,,,439.405,441.746,1,1,1.829,,0,79,79,25,1,0,castilian,,,,,,,,,,,,,,,,,,,,,,,,,,,,,,,,,,,,,,,,,,,,,,,,,,,,,,,,
,,,,,,,,,5c4a4b329ba9e00001ffc4f3,Mexican,13 or older,"no, only English or Spanish",no,2025-07-22_21h53.06.915,empathy_intonation_perc,2024.2.4,Win32,119.9040767,5c4a4b329ba9e00001ffc4f3,687ed1b7e638a4cbf2f02089,6880405b18a35585d723aad2,,,,,,,,,,,,,38,1,,./stim/wavs/mexican_mismatch_interrogative-total-yn_Mi-novio-viene-del-lago.wav,,,,,,,,,,,,,,,,,,,,,,441.746,444.138,1,1,1.887,,0,80,80,37,1,0,mexican,,,,,,,,,,,,,,,,,,,,,,,,,,,,,,,,,,,,,,,,,,,,,,,,,,,,,,,,
,,,,,,,,,5c4a4b329ba9e00001ffc4f3,Mexican,13 or older,"no, only English or Spanish",no,2025-07-22_21h53.06.915,empathy_intonation_perc,2024.2.4,Win32,119.9040767,5c4a4b329ba9e00001ffc4f3,687ed1b7e638a4cbf2f02089,6880405b18a35585d723aad2,,,,,,,,,,,,,17,1,,./stim/wavs/mexican_match_interrogative-total-yn_Mariano-habla-del-tiempo.wav,,,,,,,,,,,,,,,,,,,,,,444.138,447.538,1,1,2.891,,0,81,81,16,1,0,mexican,,,,,,,,,,,,,,,,,,,,,,,,,,,,,,,,,,,,,,,,,,,,,,,,,,,,,,,,
,,,,,,,,,5c4a4b329ba9e00001ffc4f3,Mexican,13 or older,"no, only English or Spanish",no,2025-07-22_21h53.06.915,empathy_intonation_perc,2024.2.4,Win32,119.9040767,5c4a4b329ba9e00001ffc4f3,687ed1b7e638a4cbf2f02089,6880405b18a35585d723aad2,,,,,,,,,,,,,55,0,,./stim/wavs/cuban_match_declarative-broad-focus_Mariano-habla-del-tiempo.wav,,,,,,,,,,,,,,,,,,,,,,447.538,449.838,1,0,1.796,,0,82,82,54,1,0,cuban,,,,,,,,,,,,,,,,,,,,,,,,,,,,,,,,,,,,,,,,,,,,,,,,,,,,,,,,
,,,,,,,,,5c4a4b329ba9e00001ffc4f3,Mexican,13 or older,"no, only English or Spanish",no,2025-07-22_21h53.06.915,empathy_intonation_perc,2024.2.4,Win32,119.9040767,5c4a4b329ba9e00001ffc4f3,687ed1b7e638a4cbf2f02089,6880405b18a35585d723aad2,,,,,,,,,,,,,24,1,,./stim/wavs/puertorican_match_interrogative-total-yn_Maria-bebe-el-vino.wav,,,,,,,,,,,,,,,,,,,,,,449.839,451.77,0,0,1.417,,0,83,83,23,1,1,puertorican,,,,,,,,,,,,,,,,,,,,,,,,,,,,,,,,,,,,,,,,,,,,,,,,,,,,,,,,
,,,,,,,,,5c4a4b329ba9e00001ffc4f3,Mexican,13 or older,"no, only English or Spanish",no,2025-07-22_21h53.06.915,empathy_intonation_perc,2024.2.4,Win32,119.9040767,5c4a4b329ba9e00001ffc4f3,687ed1b7e638a4cbf2f02089,6880405b18a35585d723aad2,,,,,,,,,,,,,9,1,,./stim/wavs/cuban_match_interrogative-total-yn_Manuela-vende-el-carro.wav,,,,,,,,,,,,,,,,,,,,,,451.772,453.745,0,0,1.459,,0,84,84,8,1,1,cuban,,,,,,,,,,,,,,,,,,,,,,,,,,,,,,,,,,,,,,,,,,,,,,,,,,,,,,,,
,,,,,,,,,5c4a4b329ba9e00001ffc4f3,Mexican,13 or older,"no, only English or Spanish",no,2025-07-22_21h53.06.915,empathy_intonation_perc,2024.2.4,Win32,119.9040767,5c4a4b329ba9e00001ffc4f3,687ed1b7e638a4cbf2f02089,6880405b18a35585d723aad2,,,,,,,,,,,,,35,1,,./stim/wavs/mexican_mismatch_interrogative-total-yn_El-hombre-mira-la-luna.wav,,,,,,,,,,,,,,,,,,,,,,453.746,455.863,0,0,1.612,,0,85,85,34,1,0,mexican,,,,,,,,,,,,,,,,,,,,,,,,,,,,,,,,,,,,,,,,,,,,,,,,,,,,,,,,
,,,,,,,,,5c4a4b329ba9e00001ffc4f3,Mexican,13 or older,"no, only English or Spanish",no,2025-07-22_21h53.06.915,empathy_intonation_perc,2024.2.4,Win32,119.9040767,5c4a4b329ba9e00001ffc4f3,687ed1b7e638a4cbf2f02089,6880405b18a35585d723aad2,,,,,,,,,,,,,78,0,,./stim/wavs/cuban_mismatch_declarative-broad-focus_Mi-tia-odia-la-lluvia.wav,,,,,,,,,,,,,,,,,,,,,,455.863,458.196,0,1,1.825,,0,86,86,77,1,0,cuban,,,,,,,,,,,,,,,,,,,,,,,,,,,,,,,,,,,,,,,,,,,,,,,,,,,,,,,,
,,,,,,,,,5c4a4b329ba9e00001ffc4f3,Mexican,13 or older,"no, only English or Spanish",no,2025-07-22_21h53.06.915,empathy_intonation_perc,2024.2.4,Win32,119.9040767,5c4a4b329ba9e00001ffc4f3,687ed1b7e638a4cbf2f02089,6880405b18a35585d723aad2,,,,,,,,,,,,,31,1,,./stim/wavs/cuban_mismatch_interrogative-total-yn_El-nino-oye-el-rio.wav,,,,,,,,,,,,,,,,,,,,,,458.198,460.613,1,1,1.901,,0,87,87,30,1,1,cuban,,,,,,,,,,,,,,,,,,,,,,,,,,,,,,,,,,,,,,,,,,,,,,,,,,,,,,,,
,,,,,,,"Great! Now we will move on. The next task consists of about 60 trials, in each of which you will see a string of letters. 
  
  Your task is to decide whether this is a real Spanish word or not.", (press the spacebar to continue),5c4a4b329ba9e00001ffc4f3,Mexican,13 or older,"no, only English or Spanish",no,2025-07-22_21h53.06.915,empathy_intonation_perc,2024.2.4,Win32,119.9040767,5c4a4b329ba9e00001ffc4f3,687ed1b7e638a4cbf2f02089,6880405b18a35585d723aad2,,,,,,,,,,,,,,,,,,,,,,,,,,,,,,,,,,,,,,,,,,,,,,,,,,,460.619,469.829,0,0,0,0,1,,,,,,,,,,,,,,,,,,,,,,,,,,,,,,,,,,,,,,,,,,,,,,,,,
,,,,,,,"If you think it is an existing Spanish word, you type '1' (for 'REAL'), and if you think it is not an existing Spanish word, you type '0' (for 'FAKE').", (press the spacebar to continue),5c4a4b329ba9e00001ffc4f3,Mexican,13 or older,"no, only English or Spanish",no,2025-07-22_21h53.06.915,empathy_intonation_perc,2024.2.4,Win32,119.9040767,5c4a4b329ba9e00001ffc4f3,687ed1b7e638a4cbf2f02089,6880405b18a35585d723aad2,,,,,,,,,,,,,,,,,,,,,,,,,,,,,,,,,,,,,,,,,,,,,,,,,,,469.831,472.254,0,1,1,1,1,,,,,,,,,,,,,,,,,,,,,,,,,,,,,,,,,,,,,,,,,,,,,,,,,
,,,,,,,"If you are sure that the word exists, even though you don’t know its exact meaning, you may still respond '1' (REAL). 
  
  But if you are not sure if it is an existing word, you should respond '0' (FAKE).
  
  Let's do a practice round...", (press the spacebar to continue),5c4a4b329ba9e00001ffc4f3,Mexican,13 or older,"no, only English or Spanish",no,2025-07-22_21h53.06.915,empathy_intonation_perc,2024.2.4,Win32,119.9040767,5c4a4b329ba9e00001ffc4f3,687ed1b7e638a4cbf2f02089,6880405b18a35585d723aad2,,,,,,,,,,,,,,,,,,,,,,,,,,,,,,,,,,,,,,,,,,,,,,,,,,,472.255,475.796,0,2,2,2,1,,,,,,,,,,,,,,,,,,,,,,,,,,,,,,,,,,,,,,,,,,,,,,,,,
,,,,,,,,,5c4a4b329ba9e00001ffc4f3,Mexican,13 or older,"no, only English or Spanish",no,2025-07-22_21h53.06.915,empathy_intonation_perc,2024.2.4,Win32,119.9040767,5c4a4b329ba9e00001ffc4f3,687ed1b7e638a4cbf2f02089,6880405b18a35585d723aad2,,,,,,,,,,,,,,0,,,,,,,,,,,,,,,,,,,,,,,,,,,,,,,,,,,,,,,,,,,,475.799,478.004,0,1,1.676,,478.004,479.004,0,0,0,0,1,0,depiste,REAL,FAKE,,,,,,,,,,,,,,,,,,,,,,,,,,,,,,,,
,,,,,,,,,5c4a4b329ba9e00001ffc4f3,Mexican,13 or older,"no, only English or Spanish",no,2025-07-22_21h53.06.915,empathy_intonation_perc,2024.2.4,Win32,119.9040767,5c4a4b329ba9e00001ffc4f3,687ed1b7e638a4cbf2f02089,6880405b18a35585d723aad2,,,,,,,,,,,,,,1,,,,,,,,,,,,,,,,,,,,,,,,,,,,,,,,,,,,,,,,,,,,479.005,480.871,1,1,1.358,,480.871,481.87,0,1,1,1,1,0,sí,REAL,FAKE,,,,,,,,,,,,,,,,,,,,,,,,,,,,,,,,
,,,,,,,,,5c4a4b329ba9e00001ffc4f3,Mexican,13 or older,"no, only English or Spanish",no,2025-07-22_21h53.06.915,empathy_intonation_perc,2024.2.4,Win32,119.9040767,5c4a4b329ba9e00001ffc4f3,687ed1b7e638a4cbf2f02089,6880405b18a35585d723aad2,,,,,,,,,,,,,,0,,,,,,,,,,,,,,,,,,,,,,,,,,,,,,,,,,,,,,,,,,,,481.871,483.679,0,1,1.288,,483.679,484.678,0,2,2,2,1,0,coné,REAL,FAKE,,,,,,,,,,,,,,,,,,,,,,,,,,,,,,,,
,,,,,,,,,5c4a4b329ba9e00001ffc4f3,Mexican,13 or older,"no, only English or Spanish",no,2025-07-22_21h53.06.915,empathy_intonation_perc,2024.2.4,Win32,119.9040767,5c4a4b329ba9e00001ffc4f3,687ed1b7e638a4cbf2f02089,6880405b18a35585d723aad2,,,,,,,,,,,,,,0,,,,,,,,,,,,,,,,,,,,,,,,,,,,,,,,,,,,,,,,,,,,484.679,486.196,1,0,0.987,,486.196,487.196,0,3,3,3,1,0,calpar,REAL,FAKE,,,,,,,,,,,,,,,,,,,,,,,,,,,,,,,,
,,,,,,,,,5c4a4b329ba9e00001ffc4f3,Mexican,13 or older,"no, only English or Spanish",no,2025-07-22_21h53.06.915,empathy_intonation_perc,2024.2.4,Win32,119.9040767,5c4a4b329ba9e00001ffc4f3,687ed1b7e638a4cbf2f02089,6880405b18a35585d723aad2,,,,,,,,,,,,,,0,,,,,,,,,,,,,,,,,,,,,,,,,,,,,,,,,,,,,,,,,,,,487.197,489.779,0,1,2.069,,489.779,490.779,0,4,4,4,1,0,joten,REAL,FAKE,,,,,,,,,,,,,,,,,,,,,,,,,,,,,,,,
,,,,,,,,,5c4a4b329ba9e00001ffc4f3,Mexican,13 or older,"no, only English or Spanish",no,2025-07-22_21h53.06.915,empathy_intonation_perc,2024.2.4,Win32,119.9040767,5c4a4b329ba9e00001ffc4f3,687ed1b7e638a4cbf2f02089,6880405b18a35585d723aad2,,,,,,,,,,,,,,1,,,,,,,,,,,,,,,,,,,,,,,,,,,,,,,,,,,,,,,,,,,,490.781,493.087,0,0,1.773,,493.088,494.087,0,5,5,5,1,0,sacapuntas,REAL,FAKE,,,,,,,,,,,,,,,,,,,,,,,,,,,,,,,,
,,,,,,,,,5c4a4b329ba9e00001ffc4f3,Mexican,13 or older,"no, only English or Spanish",no,2025-07-22_21h53.06.915,empathy_intonation_perc,2024.2.4,Win32,119.9040767,5c4a4b329ba9e00001ffc4f3,687ed1b7e638a4cbf2f02089,6880405b18a35585d723aad2,,,,,,,,,,,,,,0,,,,,,,,,,,,,,,,,,,,,,,,,,,,,,,,,,,,,,,,,,,,494.088,495.653,1,0,1.035,,495.653,496.654,0,6,6,6,1,0,priba,REAL,FAKE,,,,,,,,,,,,,,,,,,,,,,,,,,,,,,,,
,,,,,,,,,5c4a4b329ba9e00001ffc4f3,Mexican,13 or older,"no, only English or Spanish",no,2025-07-22_21h53.06.915,empathy_intonation_perc,2024.2.4,Win32,119.9040767,5c4a4b329ba9e00001ffc4f3,687ed1b7e638a4cbf2f02089,6880405b18a35585d723aad2,,,,,,,,,,,,,,0,,,,,,,,,,,,,,,,,,,,,,,,,,,,,,,,,,,,,,,,,,,,496.654,498.837,1,0,1.672,,498.837,499.837,0,7,7,7,1,0,pelasula,REAL,FAKE,,,,,,,,,,,,,,,,,,,,,,,,,,,,,,,,
,,,,,,,,,5c4a4b329ba9e00001ffc4f3,Mexican,13 or older,"no, only English or Spanish",no,2025-07-22_21h53.06.915,empathy_intonation_perc,2024.2.4,Win32,119.9040767,5c4a4b329ba9e00001ffc4f3,687ed1b7e638a4cbf2f02089,6880405b18a35585d723aad2,,,,,,,,,,,,,,1,,,,,,,,,,,,,,,,,,,,,,,,,,,,,,,,,,,,,,,,,,,,499.837,501.57,1,1,1.217,,501.571,502.57,0,8,8,8,1,0,bien,REAL,FAKE,,,,,,,,,,,,,,,,,,,,,,,,,,,,,,,,
,,,,,,,,,5c4a4b329ba9e00001ffc4f3,Mexican,13 or older,"no, only English or Spanish",no,2025-07-22_21h53.06.915,empathy_intonation_perc,2024.2.4,Win32,119.9040767,5c4a4b329ba9e00001ffc4f3,687ed1b7e638a4cbf2f02089,6880405b18a35585d723aad2,,,,,,,,,,,,,,1,,,,,,,,,,,,,,,,,,,,,,,,,,,,,,,,,,,,,,,,,,,,502.571,503.97,1,1,0.874,,503.97,504.97,0,9,9,9,1,0,casa,REAL,FAKE,,,,,,,,,,,,,,,,,,,,,,,,,,,,,,,,
,,,,,,,,,5c4a4b329ba9e00001ffc4f3,Mexican,13 or older,"no, only English or Spanish",no,2025-07-22_21h53.06.915,empathy_intonation_perc,2024.2.4,Win32,119.9040767,5c4a4b329ba9e00001ffc4f3,687ed1b7e638a4cbf2f02089,6880405b18a35585d723aad2,,,,,,,,,,,,,,0,,,,,,,,,,,,,,,,,,,,,,,,,,,,,,,,,,,,,,,,,,,,504.971,507.67,1,0,2.177,,507.671,508.67,0,10,10,10,1,0,lejo,REAL,FAKE,,,,,,,,,,,,,,,,,,,,,,,,,,,,,,,,
,,,,,,,,,5c4a4b329ba9e00001ffc4f3,Mexican,13 or older,"no, only English or Spanish",no,2025-07-22_21h53.06.915,empathy_intonation_perc,2024.2.4,Win32,119.9040767,5c4a4b329ba9e00001ffc4f3,687ed1b7e638a4cbf2f02089,6880405b18a35585d723aad2,,,,,,,,,,,,,,0,,,,,,,,,,,,,,,,,,,,,,,,,,,,,,,,,,,,,,,,,,,,508.671,510.578,1,0,1.39,,510.578,511.579,0,11,11,11,1,0,pretantas,REAL,FAKE,,,,,,,,,,,,,,,,,,,,,,,,,,,,,,,,
,,,,,,,,,5c4a4b329ba9e00001ffc4f3,Mexican,13 or older,"no, only English or Spanish",no,2025-07-22_21h53.06.915,empathy_intonation_perc,2024.2.4,Win32,119.9040767,5c4a4b329ba9e00001ffc4f3,687ed1b7e638a4cbf2f02089,6880405b18a35585d723aad2,,,,,,,,,,,,,,,,,,,,,,,,,,,,,,,,,,,,,,,,,,,,,,,,,,,,,,,,,,,,,,,,,,,,,,,,,,,511.579,513.12,,,,,,,,,,,,,,,,,,,,,,,,,,,,,,
,,,,,,,,,5c4a4b329ba9e00001ffc4f3,Mexican,13 or older,"no, only English or Spanish",no,2025-07-22_21h53.06.915,empathy_intonation_perc,2024.2.4,Win32,119.9040767,5c4a4b329ba9e00001ffc4f3,687ed1b7e638a4cbf2f02089,6880405b18a35585d723aad2,,,,,,,,,,,,,,1,,,,,,,,,,,,,,,,,,,,,,,,,,,,,,,,,,,,,,,,,,,,,,,,,,,,,,,,,85,laúd,,,,,513.13,514.695,0,0,1.035,,0,0,0,84,1,REAL,FAKE,,,,,,,,,,,,,,,,,
,,,,,,,,,5c4a4b329ba9e00001ffc4f3,Mexican,13 or older,"no, only English or Spanish",no,2025-07-22_21h53.06.915,empathy_intonation_perc,2024.2.4,Win32,119.9040767,5c4a4b329ba9e00001ffc4f3,687ed1b7e638a4cbf2f02089,6880405b18a35585d723aad2,,,,,,,,,,,,,,1,,,,,,,,,,,,,,,,,,,,,,,,,,,,,,,,,,,,,,,,,,,,,,,,,,,,,,,,,56,musgo,,,,,514.696,516.495,0,0,1.27,,0,1,1,55,1,REAL,FAKE,,,,,,,,,,,,,,,,,
,,,,,,,,,5c4a4b329ba9e00001ffc4f3,Mexican,13 or older,"no, only English or Spanish",no,2025-07-22_21h53.06.915,empathy_intonation_perc,2024.2.4,Win32,119.9040767,5c4a4b329ba9e00001ffc4f3,687ed1b7e638a4cbf2f02089,6880405b18a35585d723aad2,,,,,,,,,,,,,,1,,,,,,,,,,,,,,,,,,,,,,,,,,,,,,,,,,,,,,,,,,,,,,,,,,,,,,,,,7,pésimo,,,,,516.496,517.936,1,1,0.917,,0,2,2,6,1,REAL,FAKE,,,,,,,,,,,,,,,,,
,,,,,,,,,5c4a4b329ba9e00001ffc4f3,Mexican,13 or older,"no, only English or Spanish",no,2025-07-22_21h53.06.915,empathy_intonation_perc,2024.2.4,Win32,119.9040767,5c4a4b329ba9e00001ffc4f3,687ed1b7e638a4cbf2f02089,6880405b18a35585d723aad2,,,,,,,,,,,,,,0,,,,,,,,,,,,,,,,,,,,,,,,,,,,,,,,,,,,,,,,,,,,,,,,,,,,,,,,,21,capillo,,,,,517.937,519.812,0,1,1.349,,0,3,3,20,1,REAL,FAKE,,,,,,,,,,,,,,,,,
,,,,,,,,,5c4a4b329ba9e00001ffc4f3,Mexican,13 or older,"no, only English or Spanish",no,2025-07-22_21h53.06.915,empathy_intonation_perc,2024.2.4,Win32,119.9040767,5c4a4b329ba9e00001ffc4f3,687ed1b7e638a4cbf2f02089,6880405b18a35585d723aad2,,,,,,,,,,,,,,1,,,,,,,,,,,,,,,,,,,,,,,,,,,,,,,,,,,,,,,,,,,,,,,,,,,,,,,,,83,guante,,,,,519.812,521.645,0,0,1.319,,0,4,4,82,1,REAL,FAKE,,,,,,,,,,,,,,,,,
,,,,,,,,,5c4a4b329ba9e00001ffc4f3,Mexican,13 or older,"no, only English or Spanish",no,2025-07-22_21h53.06.915,empathy_intonation_perc,2024.2.4,Win32,119.9040767,5c4a4b329ba9e00001ffc4f3,687ed1b7e638a4cbf2f02089,6880405b18a35585d723aad2,,,,,,,,,,,,,,0,,,,,,,,,,,,,,,,,,,,,,,,,,,,,,,,,,,,,,,,,,,,,,,,,,,,,,,,,82,empirador,,,,,521.646,523.161,1,0,0.988,,0,5,5,81,1,REAL,FAKE,,,,,,,,,,,,,,,,,
,,,,,,,,,5c4a4b329ba9e00001ffc4f3,Mexican,13 or older,"no, only English or Spanish",no,2025-07-22_21h53.06.915,empathy_intonation_perc,2024.2.4,Win32,119.9040767,5c4a4b329ba9e00001ffc4f3,687ed1b7e638a4cbf2f02089,6880405b18a35585d723aad2,,,,,,,,,,,,,,1,,,,,,,,,,,,,,,,,,,,,,,,,,,,,,,,,,,,,,,,,,,,,,,,,,,,,,,,,36,loro,,,,,523.162,525.428,0,0,1.743,,0,6,6,35,1,REAL,FAKE,,,,,,,,,,,,,,,,,
,,,,,,,,,5c4a4b329ba9e00001ffc4f3,Mexican,13 or older,"no, only English or Spanish",no,2025-07-22_21h53.06.915,empathy_intonation_perc,2024.2.4,Win32,119.9040767,5c4a4b329ba9e00001ffc4f3,687ed1b7e638a4cbf2f02089,6880405b18a35585d723aad2,,,,,,,,,,,,,,1,,,,,,,,,,,,,,,,,,,,,,,,,,,,,,,,,,,,,,,,,,,,,,,,,,,,,,,,,9,hacha,,,,,525.431,526.82,1,1,0.862,,0,7,7,8,1,REAL,FAKE,,,,,,,,,,,,,,,,,
,,,,,,,,,5c4a4b329ba9e00001ffc4f3,Mexican,13 or older,"no, only English or Spanish",no,2025-07-22_21h53.06.915,empathy_intonation_perc,2024.2.4,Win32,119.9040767,5c4a4b329ba9e00001ffc4f3,687ed1b7e638a4cbf2f02089,6880405b18a35585d723aad2,,,,,,,,,,,,,,1,,,,,,,,,,,,,,,,,,,,,,,,,,,,,,,,,,,,,,,,,,,,,,,,,,,,,,,,,78,frondoso,,,,,526.821,528.903,0,0,1.553,,0,8,8,77,1,REAL,FAKE,,,,,,,,,,,,,,,,,
,,,,,,,,,5c4a4b329ba9e00001ffc4f3,Mexican,13 or older,"no, only English or Spanish",no,2025-07-22_21h53.06.915,empathy_intonation_perc,2024.2.4,Win32,119.9040767,5c4a4b329ba9e00001ffc4f3,687ed1b7e638a4cbf2f02089,6880405b18a35585d723aad2,,,,,,,,,,,,,,1,,,,,,,,,,,,,,,,,,,,,,,,,,,,,,,,,,,,,,,,,,,,,,,,,,,,,,,,,49,ganar,,,,,528.905,530.461,1,1,1.031,,0,9,9,48,1,REAL,FAKE,,,,,,,,,,,,,,,,,
,,,,,,,,,5c4a4b329ba9e00001ffc4f3,Mexican,13 or older,"no, only English or Spanish",no,2025-07-22_21h53.06.915,empathy_intonation_perc,2024.2.4,Win32,119.9040767,5c4a4b329ba9e00001ffc4f3,687ed1b7e638a4cbf2f02089,6880405b18a35585d723aad2,,,,,,,,,,,,,,0,,,,,,,,,,,,,,,,,,,,,,,,,,,,,,,,,,,,,,,,,,,,,,,,,,,,,,,,,66,hacido,,,,,530.462,532.011,1,0,1.021,,0,10,10,65,1,REAL,FAKE,,,,,,,,,,,,,,,,,
,,,,,,,,,5c4a4b329ba9e00001ffc4f3,Mexican,13 or older,"no, only English or Spanish",no,2025-07-22_21h53.06.915,empathy_intonation_perc,2024.2.4,Win32,119.9040767,5c4a4b329ba9e00001ffc4f3,687ed1b7e638a4cbf2f02089,6880405b18a35585d723aad2,,,,,,,,,,,,,,1,,,,,,,,,,,,,,,,,,,,,,,,,,,,,,,,,,,,,,,,,,,,,,,,,,,,,,,,,12,asesinato,,,,,532.012,533.728,1,1,1.18,,0,11,11,11,1,REAL,FAKE,,,,,,,,,,,,,,,,,
,,,,,,,,,5c4a4b329ba9e00001ffc4f3,Mexican,13 or older,"no, only English or Spanish",no,2025-07-22_21h53.06.915,empathy_intonation_perc,2024.2.4,Win32,119.9040767,5c4a4b329ba9e00001ffc4f3,687ed1b7e638a4cbf2f02089,6880405b18a35585d723aad2,,,,,,,,,,,,,,1,,,,,,,,,,,,,,,,,,,,,,,,,,,,,,,,,,,,,,,,,,,,,,,,,,,,,,,,,2,pellizcar,,,,,533.728,535.345,0,0,1.097,,0,12,12,1,1,REAL,FAKE,,,,,,,,,,,,,,,,,
,,,,,,,,,5c4a4b329ba9e00001ffc4f3,Mexican,13 or older,"no, only English or Spanish",no,2025-07-22_21h53.06.915,empathy_intonation_perc,2024.2.4,Win32,119.9040767,5c4a4b329ba9e00001ffc4f3,687ed1b7e638a4cbf2f02089,6880405b18a35585d723aad2,,,,,,,,,,,,,,0,,,,,,,,,,,,,,,,,,,,,,,,,,,,,,,,,,,,,,,,,,,,,,,,,,,,,,,,,47,cartinar,,,,,535.346,537.311,0,1,1.44,,0,13,13,46,1,REAL,FAKE,,,,,,,,,,,,,,,,,
,,,,,,,,,5c4a4b329ba9e00001ffc4f3,Mexican,13 or older,"no, only English or Spanish",no,2025-07-22_21h53.06.915,empathy_intonation_perc,2024.2.4,Win32,119.9040767,5c4a4b329ba9e00001ffc4f3,687ed1b7e638a4cbf2f02089,6880405b18a35585d723aad2,,,,,,,,,,,,,,1,,,,,,,,,,,,,,,,,,,,,,,,,,,,,,,,,,,,,,,,,,,,,,,,,,,,,,,,,59,besar,,,,,537.313,539.869,1,1,2.041,,0,14,14,58,1,REAL,FAKE,,,,,,,,,,,,,,,,,
,,,,,,,,,5c4a4b329ba9e00001ffc4f3,Mexican,13 or older,"no, only English or Spanish",no,2025-07-22_21h53.06.915,empathy_intonation_perc,2024.2.4,Win32,119.9040767,5c4a4b329ba9e00001ffc4f3,687ed1b7e638a4cbf2f02089,6880405b18a35585d723aad2,,,,,,,,,,,,,,0,,,,,,,,,,,,,,,,,,,,,,,,,,,,,,,,,,,,,,,,,,,,,,,,,,,,,,,,,32,fatacidad,,,,,539.871,541.662,0,1,1.263,,0,15,15,31,1,REAL,FAKE,,,,,,,,,,,,,,,,,
,,,,,,,,,5c4a4b329ba9e00001ffc4f3,Mexican,13 or older,"no, only English or Spanish",no,2025-07-22_21h53.06.915,empathy_intonation_perc,2024.2.4,Win32,119.9040767,5c4a4b329ba9e00001ffc4f3,687ed1b7e638a4cbf2f02089,6880405b18a35585d723aad2,,,,,,,,,,,,,,1,,,,,,,,,,,,,,,,,,,,,,,,,,,,,,,,,,,,,,,,,,,,,,,,,,,,,,,,,15,regar,,,,,541.663,543.245,0,0,1.049,,0,16,16,14,1,REAL,FAKE,,,,,,,,,,,,,,,,,
,,,,,,,,,5c4a4b329ba9e00001ffc4f3,Mexican,13 or older,"no, only English or Spanish",no,2025-07-22_21h53.06.915,empathy_intonation_perc,2024.2.4,Win32,119.9040767,5c4a4b329ba9e00001ffc4f3,687ed1b7e638a4cbf2f02089,6880405b18a35585d723aad2,,,,,,,,,,,,,,1,,,,,,,,,,,,,,,,,,,,,,,,,,,,,,,,,,,,,,,,,,,,,,,,,,,,,,,,,60,matar,,,,,543.245,544.728,1,1,0.962,,0,17,17,59,1,REAL,FAKE,,,,,,,,,,,,,,,,,
,,,,,,,,,5c4a4b329ba9e00001ffc4f3,Mexican,13 or older,"no, only English or Spanish",no,2025-07-22_21h53.06.915,empathy_intonation_perc,2024.2.4,Win32,119.9040767,5c4a4b329ba9e00001ffc4f3,687ed1b7e638a4cbf2f02089,6880405b18a35585d723aad2,,,,,,,,,,,,,,1,,,,,,,,,,,,,,,,,,,,,,,,,,,,,,,,,,,,,,,,,,,,,,,,,,,,,,,,,52,camisa,,,,,544.729,546.153,1,1,0.895,,0,18,18,51,1,REAL,FAKE,,,,,,,,,,,,,,,,,
,,,,,,,,,5c4a4b329ba9e00001ffc4f3,Mexican,13 or older,"no, only English or Spanish",no,2025-07-22_21h53.06.915,empathy_intonation_perc,2024.2.4,Win32,119.9040767,5c4a4b329ba9e00001ffc4f3,687ed1b7e638a4cbf2f02089,6880405b18a35585d723aad2,,,,,,,,,,,,,,0,,,,,,,,,,,,,,,,,,,,,,,,,,,,,,,,,,,,,,,,,,,,,,,,,,,,,,,,,53,vegada,,,,,546.154,547.636,0,1,0.953,,0,19,19,52,1,REAL,FAKE,,,,,,,,,,,,,,,,,
,,,,,,,,,5c4a4b329ba9e00001ffc4f3,Mexican,13 or older,"no, only English or Spanish",no,2025-07-22_21h53.06.915,empathy_intonation_perc,2024.2.4,Win32,119.9040767,5c4a4b329ba9e00001ffc4f3,687ed1b7e638a4cbf2f02089,6880405b18a35585d723aad2,,,,,,,,,,,,,,1,,,,,,,,,,,,,,,,,,,,,,,,,,,,,,,,,,,,,,,,,,,,,,,,,,,,,,,,,38,estornudar,,,,,547.637,549.67,1,1,1.518,,0,20,20,37,1,REAL,FAKE,,,,,,,,,,,,,,,,,
,,,,,,,,,5c4a4b329ba9e00001ffc4f3,Mexican,13 or older,"no, only English or Spanish",no,2025-07-22_21h53.06.915,empathy_intonation_perc,2024.2.4,Win32,119.9040767,5c4a4b329ba9e00001ffc4f3,687ed1b7e638a4cbf2f02089,6880405b18a35585d723aad2,,,,,,,,,,,,,,0,,,,,,,,,,,,,,,,,,,,,,,,,,,,,,,,,,,,,,,,,,,,,,,,,,,,,,,,,23,lampera,,,,,549.67,550.969,1,0,0.779,,0,21,21,22,1,REAL,FAKE,,,,,,,,,,,,,,,,,
,,,,,,,,,5c4a4b329ba9e00001ffc4f3,Mexican,13 or older,"no, only English or Spanish",no,2025-07-22_21h53.06.915,empathy_intonation_perc,2024.2.4,Win32,119.9040767,5c4a4b329ba9e00001ffc4f3,687ed1b7e638a4cbf2f02089,6880405b18a35585d723aad2,,,,,,,,,,,,,,1,,,,,,,,,,,,,,,,,,,,,,,,,,,,,,,,,,,,,,,,,,,,,,,,,,,,,,,,,76,atar,,,,,550.97,552.553,0,0,1.049,,0,22,22,75,1,REAL,FAKE,,,,,,,,,,,,,,,,,
,,,,,,,,,5c4a4b329ba9e00001ffc4f3,Mexican,13 or older,"no, only English or Spanish",no,2025-07-22_21h53.06.915,empathy_intonation_perc,2024.2.4,Win32,119.9040767,5c4a4b329ba9e00001ffc4f3,687ed1b7e638a4cbf2f02089,6880405b18a35585d723aad2,,,,,,,,,,,,,,1,,,,,,,,,,,,,,,,,,,,,,,,,,,,,,,,,,,,,,,,,,,,,,,,,,,,,,,,,90,clavel,,,,,552.553,554.586,1,1,1.498,,0,23,23,89,1,REAL,FAKE,,,,,,,,,,,,,,,,,
,,,,,,,,,5c4a4b329ba9e00001ffc4f3,Mexican,13 or older,"no, only English or Spanish",no,2025-07-22_21h53.06.915,empathy_intonation_perc,2024.2.4,Win32,119.9040767,5c4a4b329ba9e00001ffc4f3,687ed1b7e638a4cbf2f02089,6880405b18a35585d723aad2,,,,,,,,,,,,,,0,,,,,,,,,,,,,,,,,,,,,,,,,,,,,,,,,,,,,,,,,,,,,,,,,,,,,,,,,79,tropaje,,,,,554.587,555.878,0,1,0.768,,0,24,24,78,1,REAL,FAKE,,,,,,,,,,,,,,,,,
,,,,,,,,,5c4a4b329ba9e00001ffc4f3,Mexican,13 or older,"no, only English or Spanish",no,2025-07-22_21h53.06.915,empathy_intonation_perc,2024.2.4,Win32,119.9040767,5c4a4b329ba9e00001ffc4f3,687ed1b7e638a4cbf2f02089,6880405b18a35585d723aad2,,,,,,,,,,,,,,1,,,,,,,,,,,,,,,,,,,,,,,,,,,,,,,,,,,,,,,,,,,,,,,,,,,,,,,,,71,polvoriento,,,,,555.879,557.253,0,0,0.848,,0,25,25,70,1,REAL,FAKE,,,,,,,,,,,,,,,,,
,,,,,,,,,5c4a4b329ba9e00001ffc4f3,Mexican,13 or older,"no, only English or Spanish",no,2025-07-22_21h53.06.915,empathy_intonation_perc,2024.2.4,Win32,119.9040767,5c4a4b329ba9e00001ffc4f3,687ed1b7e638a4cbf2f02089,6880405b18a35585d723aad2,,,,,,,,,,,,,,1,,,,,,,,,,,,,,,,,,,,,,,,,,,,,,,,,,,,,,,,,,,,,,,,,,,,,,,,,51,candado,,,,,557.254,558.987,1,1,1.219,,0,26,26,50,1,REAL,FAKE,,,,,,,,,,,,,,,,,
,,,,,,,,,5c4a4b329ba9e00001ffc4f3,Mexican,13 or older,"no, only English or Spanish",no,2025-07-22_21h53.06.915,empathy_intonation_perc,2024.2.4,Win32,119.9040767,5c4a4b329ba9e00001ffc4f3,687ed1b7e638a4cbf2f02089,6880405b18a35585d723aad2,,,,,,,,,,,,,,0,,,,,,,,,,,,,,,,,,,,,,,,,,,,,,,,,,,,,,,,,,,,,,,,,,,,,,,,,29,decar,,,,,558.988,560.369,1,0,0.852,,0,27,27,28,1,REAL,FAKE,,,,,,,,,,,,,,,,,
,,,,,,,,,5c4a4b329ba9e00001ffc4f3,Mexican,13 or older,"no, only English or Spanish",no,2025-07-22_21h53.06.915,empathy_intonation_perc,2024.2.4,Win32,119.9040767,5c4a4b329ba9e00001ffc4f3,687ed1b7e638a4cbf2f02089,6880405b18a35585d723aad2,,,,,,,,,,,,,,1,,,,,,,,,,,,,,,,,,,,,,,,,,,,,,,,,,,,,,,,,,,,,,,,,,,,,,,,,40,alfombra,,,,,560.37,561.794,0,0,0.913,,0,28,28,39,1,REAL,FAKE,,,,,,,,,,,,,,,,,
,,,,,,,,,5c4a4b329ba9e00001ffc4f3,Mexican,13 or older,"no, only English or Spanish",no,2025-07-22_21h53.06.915,empathy_intonation_perc,2024.2.4,Win32,119.9040767,5c4a4b329ba9e00001ffc4f3,687ed1b7e638a4cbf2f02089,6880405b18a35585d723aad2,,,,,,,,,,,,,,0,,,,,,,,,,,,,,,,,,,,,,,,,,,,,,,,,,,,,,,,,,,,,,,,,,,,,,,,,19,brecedad,,,,,561.795,563.703,0,1,1.387,,0,29,29,18,1,REAL,FAKE,,,,,,,,,,,,,,,,,
,,,,,,,,,5c4a4b329ba9e00001ffc4f3,Mexican,13 or older,"no, only English or Spanish",no,2025-07-22_21h53.06.915,empathy_intonation_perc,2024.2.4,Win32,119.9040767,5c4a4b329ba9e00001ffc4f3,687ed1b7e638a4cbf2f02089,6880405b18a35585d723aad2,,,,,,,,,,,,,,1,,,,,,,,,,,,,,,,,,,,,,,,,,,,,,,,,,,,,,,,,,,,,,,,,,,,,,,,,43,canela,,,,,563.704,565.086,0,0,0.859,,0,30,30,42,1,REAL,FAKE,,,,,,,,,,,,,,,,,
,,,,,,,,,5c4a4b329ba9e00001ffc4f3,Mexican,13 or older,"no, only English or Spanish",no,2025-07-22_21h53.06.915,empathy_intonation_perc,2024.2.4,Win32,119.9040767,5c4a4b329ba9e00001ffc4f3,687ed1b7e638a4cbf2f02089,6880405b18a35585d723aad2,,,,,,,,,,,,,,0,,,,,,,,,,,,,,,,,,,,,,,,,,,,,,,,,,,,,,,,,,,,,,,,,,,,,,,,,70,temblo,,,,,565.087,566.503,1,0,0.896,,0,31,31,69,1,REAL,FAKE,,,,,,,,,,,,,,,,,
,,,,,,,,,5c4a4b329ba9e00001ffc4f3,Mexican,13 or older,"no, only English or Spanish",no,2025-07-22_21h53.06.915,empathy_intonation_perc,2024.2.4,Win32,119.9040767,5c4a4b329ba9e00001ffc4f3,687ed1b7e638a4cbf2f02089,6880405b18a35585d723aad2,,,,,,,,,,,,,,0,,,,,,,,,,,,,,,,,,,,,,,,,,,,,,,,,,,,,,,,,,,,,,,,,,,,,,,,,1,terzo,,,,,566.504,567.736,1,0,0.708,,0,32,32,0,1,REAL,FAKE,,,,,,,,,,,,,,,,,
,,,,,,,,,5c4a4b329ba9e00001ffc4f3,Mexican,13 or older,"no, only English or Spanish",no,2025-07-22_21h53.06.915,empathy_intonation_perc,2024.2.4,Win32,119.9040767,5c4a4b329ba9e00001ffc4f3,687ed1b7e638a4cbf2f02089,6880405b18a35585d723aad2,,,,,,,,,,,,,,1,,,,,,,,,,,,,,,,,,,,,,,,,,,,,,,,,,,,,,,,,,,,,,,,,,,,,,,,,11,cenefa,,,,,567.737,569.361,1,1,1.104,,0,33,33,10,1,REAL,FAKE,,,,,,,,,,,,,,,,,
,,,,,,,,,5c4a4b329ba9e00001ffc4f3,Mexican,13 or older,"no, only English or Spanish",no,2025-07-22_21h53.06.915,empathy_intonation_perc,2024.2.4,Win32,119.9040767,5c4a4b329ba9e00001ffc4f3,687ed1b7e638a4cbf2f02089,6880405b18a35585d723aad2,,,,,,,,,,,,,,1,,,,,,,,,,,,,,,,,,,,,,,,,,,,,,,,,,,,,,,,,,,,,,,,,,,,,,,,,91,click the 1 key.,,,,,569.362,571.836,1,1,1.943,,0,34,34,90,1,REAL,FAKE,,,,,,,,,,,,,,,,,
,,,,,,,,,5c4a4b329ba9e00001ffc4f3,Mexican,13 or older,"no, only English or Spanish",no,2025-07-22_21h53.06.915,empathy_intonation_perc,2024.2.4,Win32,119.9040767,5c4a4b329ba9e00001ffc4f3,687ed1b7e638a4cbf2f02089,6880405b18a35585d723aad2,,,,,,,,,,,,,,1,,,,,,,,,,,,,,,,,,,,,,,,,,,,,,,,,,,,,,,,,,,,,,,,,,,,,,,,,45,jilguero,,,,,571.837,573.602,0,0,1.253,,0,35,35,44,1,REAL,FAKE,,,,,,,,,,,,,,,,,
,,,,,,,,,5c4a4b329ba9e00001ffc4f3,Mexican,13 or older,"no, only English or Spanish",no,2025-07-22_21h53.06.915,empathy_intonation_perc,2024.2.4,Win32,119.9040767,5c4a4b329ba9e00001ffc4f3,687ed1b7e638a4cbf2f02089,6880405b18a35585d723aad2,,,,,,,,,,,,,,0,,,,,,,,,,,,,,,,,,,,,,,,,,,,,,,,,,,,,,,,,,,,,,,,,,,,,,,,,30,alardio,,,,,573.603,575.361,1,0,1.238,,0,36,36,29,1,REAL,FAKE,,,,,,,,,,,,,,,,,
,,,,,,,,,5c4a4b329ba9e00001ffc4f3,Mexican,13 or older,"no, only English or Spanish",no,2025-07-22_21h53.06.915,empathy_intonation_perc,2024.2.4,Win32,119.9040767,5c4a4b329ba9e00001ffc4f3,687ed1b7e638a4cbf2f02089,6880405b18a35585d723aad2,,,,,,,,,,,,,,1,,,,,,,,,,,,,,,,,,,,,,,,,,,,,,,,,,,,,,,,,,,,,,,,,,,,,,,,,26,secuestro,,,,,575.362,578.219,0,0,2.337,,0,37,37,25,1,REAL,FAKE,,,,,,,,,,,,,,,,,
,,,,,,,,,5c4a4b329ba9e00001ffc4f3,Mexican,13 or older,"no, only English or Spanish",no,2025-07-22_21h53.06.915,empathy_intonation_perc,2024.2.4,Win32,119.9040767,5c4a4b329ba9e00001ffc4f3,687ed1b7e638a4cbf2f02089,6880405b18a35585d723aad2,,,,,,,,,,,,,,1,,,,,,,,,,,,,,,,,,,,,,,,,,,,,,,,,,,,,,,,,,,,,,,,,,,,,,,,,48,ladrón,,,,,578.22,580.228,0,0,1.486,,0,38,38,47,1,REAL,FAKE,,,,,,,,,,,,,,,,,
,,,,,,,,,5c4a4b329ba9e00001ffc4f3,Mexican,13 or older,"no, only English or Spanish",no,2025-07-22_21h53.06.915,empathy_intonation_perc,2024.2.4,Win32,119.9040767,5c4a4b329ba9e00001ffc4f3,687ed1b7e638a4cbf2f02089,6880405b18a35585d723aad2,,,,,,,,,,,,,,1,,,,,,,,,,,,,,,,,,,,,,,,,,,,,,,,,,,,,,,,,,,,,,,,,,,,,,,,,44,cuchara,,,,,580.229,582.419,1,1,1.667,,0,39,39,43,1,REAL,FAKE,,,,,,,,,,,,,,,,,
,,,,,,,,,5c4a4b329ba9e00001ffc4f3,Mexican,13 or older,"no, only English or Spanish",no,2025-07-22_21h53.06.915,empathy_intonation_perc,2024.2.4,Win32,119.9040767,5c4a4b329ba9e00001ffc4f3,687ed1b7e638a4cbf2f02089,6880405b18a35585d723aad2,,,,,,,,,,,,,,1,,,,,,,,,,,,,,,,,,,,,,,,,,,,,,,,,,,,,,,,,,,,,,,,,,,,,,,,,46,martillo,,,,,582.42,584.019,0,0,1.08,,0,40,40,45,1,REAL,FAKE,,,,,,,,,,,,,,,,,
,,,,,,,,,5c4a4b329ba9e00001ffc4f3,Mexican,13 or older,"no, only English or Spanish",no,2025-07-22_21h53.06.915,empathy_intonation_perc,2024.2.4,Win32,119.9040767,5c4a4b329ba9e00001ffc4f3,687ed1b7e638a4cbf2f02089,6880405b18a35585d723aad2,,,,,,,,,,,,,,1,,,,,,,,,,,,,,,,,,,,,,,,,,,,,,,,,,,,,,,,,,,,,,,,,,,,,,,,,39,torpe,,,,,584.02,585.535,1,1,0.995,,0,41,41,38,1,REAL,FAKE,,,,,,,,,,,,,,,,,
,,,,,,,,,5c4a4b329ba9e00001ffc4f3,Mexican,13 or older,"no, only English or Spanish",no,2025-07-22_21h53.06.915,empathy_intonation_perc,2024.2.4,Win32,119.9040767,5c4a4b329ba9e00001ffc4f3,687ed1b7e638a4cbf2f02089,6880405b18a35585d723aad2,,,,,,,,,,,,,,0,,,,,,,,,,,,,,,,,,,,,,,,,,,,,,,,,,,,,,,,,,,,,,,,,,,,,,,,,84,escuto,,,,,585.536,588.152,0,1,2.106,,0,42,42,83,1,REAL,FAKE,,,,,,,,,,,,,,,,,
,,,,,,,,,5c4a4b329ba9e00001ffc4f3,Mexican,13 or older,"no, only English or Spanish",no,2025-07-22_21h53.06.915,empathy_intonation_perc,2024.2.4,Win32,119.9040767,5c4a4b329ba9e00001ffc4f3,687ed1b7e638a4cbf2f02089,6880405b18a35585d723aad2,,,,,,,,,,,,,,0,,,,,,,,,,,,,,,,,,,,,,,,,,,,,,,,,,,,,,,,,,,,,,,,,,,,,,,,,58,plaudir,,,,,588.153,589.81,0,1,1.148,,0,43,43,57,1,REAL,FAKE,,,,,,,,,,,,,,,,,
,,,,,,,,,5c4a4b329ba9e00001ffc4f3,Mexican,13 or older,"no, only English or Spanish",no,2025-07-22_21h53.06.915,empathy_intonation_perc,2024.2.4,Win32,119.9040767,5c4a4b329ba9e00001ffc4f3,687ed1b7e638a4cbf2f02089,6880405b18a35585d723aad2,,,,,,,,,,,,,,1,,,,,,,,,,,,,,,,,,,,,,,,,,,,,,,,,,,,,,,,,,,,,,,,,,,,,,,,,20,ávido,,,,,589.811,591.803,1,1,1.473,,0,44,44,19,1,REAL,FAKE,,,,,,,,,,,,,,,,,
,,,,,,,,,5c4a4b329ba9e00001ffc4f3,Mexican,13 or older,"no, only English or Spanish",no,2025-07-22_21h53.06.915,empathy_intonation_perc,2024.2.4,Win32,119.9040767,5c4a4b329ba9e00001ffc4f3,687ed1b7e638a4cbf2f02089,6880405b18a35585d723aad2,,,,,,,,,,,,,,1,,,,,,,,,,,,,,,,,,,,,,,,,,,,,,,,,,,,,,,,,,,,,,,,,,,,,,,,,34,aviso,,,,,591.805,595.394,0,0,3.077,,0,45,45,33,1,REAL,FAKE,,,,,,,,,,,,,,,,,
,,,,,,,,,5c4a4b329ba9e00001ffc4f3,Mexican,13 or older,"no, only English or Spanish",no,2025-07-22_21h53.06.915,empathy_intonation_perc,2024.2.4,Win32,119.9040767,5c4a4b329ba9e00001ffc4f3,687ed1b7e638a4cbf2f02089,6880405b18a35585d723aad2,,,,,,,,,,,,,,1,,,,,,,,,,,,,,,,,,,,,,,,,,,,,,,,,,,,,,,,,,,,,,,,,,,,,,,,,62,flaco,,,,,595.395,597.227,0,0,1.309,,0,46,46,61,1,REAL,FAKE,,,,,,,,,,,,,,,,,
,,,,,,,,,5c4a4b329ba9e00001ffc4f3,Mexican,13 or older,"no, only English or Spanish",no,2025-07-22_21h53.06.915,empathy_intonation_perc,2024.2.4,Win32,119.9040767,5c4a4b329ba9e00001ffc4f3,687ed1b7e638a4cbf2f02089,6880405b18a35585d723aad2,,,,,,,,,,,,,,1,,,,,,,,,,,,,,,,,,,,,,,,,,,,,,,,,,,,,,,,,,,,,,,,,,,,,,,,,67,cabello,,,,,597.228,598.977,1,1,1.23,,0,47,47,66,1,REAL,FAKE,,,,,,,,,,,,,,,,,
,,,,,,,,,5c4a4b329ba9e00001ffc4f3,Mexican,13 or older,"no, only English or Spanish",no,2025-07-22_21h53.06.915,empathy_intonation_perc,2024.2.4,Win32,119.9040767,5c4a4b329ba9e00001ffc4f3,687ed1b7e638a4cbf2f02089,6880405b18a35585d723aad2,,,,,,,,,,,,,,0,,,,,,,,,,,,,,,,,,,,,,,,,,,,,,,,,,,,,,,,,,,,,,,,,,,,,,,,,27,acutación,,,,,598.978,600.527,0,1,1.036,,0,48,48,26,1,REAL,FAKE,,,,,,,,,,,,,,,,,
,,,,,,,,,5c4a4b329ba9e00001ffc4f3,Mexican,13 or older,"no, only English or Spanish",no,2025-07-22_21h53.06.915,empathy_intonation_perc,2024.2.4,Win32,119.9040767,5c4a4b329ba9e00001ffc4f3,687ed1b7e638a4cbf2f02089,6880405b18a35585d723aad2,,,,,,,,,,,,,,1,,,,,,,,,,,,,,,,,,,,,,,,,,,,,,,,,,,,,,,,,,,,,,,,,,,,,,,,,55,nevar,,,,,600.528,602.227,0,0,1.178,,0,49,49,54,1,REAL,FAKE,,,,,,,,,,,,,,,,,
,,,,,,,,,5c4a4b329ba9e00001ffc4f3,Mexican,13 or older,"no, only English or Spanish",no,2025-07-22_21h53.06.915,empathy_intonation_perc,2024.2.4,Win32,119.9040767,5c4a4b329ba9e00001ffc4f3,687ed1b7e638a4cbf2f02089,6880405b18a35585d723aad2,,,,,,,,,,,,,,0,,,,,,,,,,,,,,,,,,,,,,,,,,,,,,,,,,,,,,,,,,,,,,,,,,,,,,,,,87,grodo,,,,,602.228,604.044,1,0,1.3,,0,50,50,86,1,REAL,FAKE,,,,,,,,,,,,,,,,,
,,,,,,,,,5c4a4b329ba9e00001ffc4f3,Mexican,13 or older,"no, only English or Spanish",no,2025-07-22_21h53.06.915,empathy_intonation_perc,2024.2.4,Win32,119.9040767,5c4a4b329ba9e00001ffc4f3,687ed1b7e638a4cbf2f02089,6880405b18a35585d723aad2,,,,,,,,,,,,,,0,,,,,,,,,,,,,,,,,,,,,,,,,,,,,,,,,,,,,,,,,,,,,,,,,,,,,,,,,10,antar,,,,,604.044,605.436,0,1,0.866,,0,51,51,9,1,REAL,FAKE,,,,,,,,,,,,,,,,,
,,,,,,,,,5c4a4b329ba9e00001ffc4f3,Mexican,13 or older,"no, only English or Spanish",no,2025-07-22_21h53.06.915,empathy_intonation_perc,2024.2.4,Win32,119.9040767,5c4a4b329ba9e00001ffc4f3,687ed1b7e638a4cbf2f02089,6880405b18a35585d723aad2,,,,,,,,,,,,,,1,,,,,,,,,,,,,,,,,,,,,,,,,,,,,,,,,,,,,,,,,,,,,,,,,,,,,,,,,14,yunque,,,,,605.436,606.936,0,0,0.971,,0,52,52,13,1,REAL,FAKE,,,,,,,,,,,,,,,,,
,,,,,,,,,5c4a4b329ba9e00001ffc4f3,Mexican,13 or older,"no, only English or Spanish",no,2025-07-22_21h53.06.915,empathy_intonation_perc,2024.2.4,Win32,119.9040767,5c4a4b329ba9e00001ffc4f3,687ed1b7e638a4cbf2f02089,6880405b18a35585d723aad2,,,,,,,,,,,,,,0,,,,,,,,,,,,,,,,,,,,,,,,,,,,,,,,,,,,,,,,,,,,,,,,,,,,,,,,,74,cintro,,,,,606.936,608.519,1,0,1.065,,0,53,53,73,1,REAL,FAKE,,,,,,,,,,,,,,,,,
,,,,,,,,,5c4a4b329ba9e00001ffc4f3,Mexican,13 or older,"no, only English or Spanish",no,2025-07-22_21h53.06.915,empathy_intonation_perc,2024.2.4,Win32,119.9040767,5c4a4b329ba9e00001ffc4f3,687ed1b7e638a4cbf2f02089,6880405b18a35585d723aad2,,,,,,,,,,,,,,0,,,,,,,,,,,,,,,,,,,,,,,,,,,,,,,,,,,,,,,,,,,,,,,,,,,,,,,,,17,floroso,,,,,608.519,609.952,0,1,0.913,,0,54,54,16,1,REAL,FAKE,,,,,,,,,,,,,,,,,
,,,,,,,,,5c4a4b329ba9e00001ffc4f3,Mexican,13 or older,"no, only English or Spanish",no,2025-07-22_21h53.06.915,empathy_intonation_perc,2024.2.4,Win32,119.9040767,5c4a4b329ba9e00001ffc4f3,687ed1b7e638a4cbf2f02089,6880405b18a35585d723aad2,,,,,,,,,,,,,,1,,,,,,,,,,,,,,,,,,,,,,,,,,,,,,,,,,,,,,,,,,,,,,,,,,,,,,,,,68,alegre,,,,,609.953,612.21,0,0,1.743,,0,55,55,67,1,REAL,FAKE,,,,,,,,,,,,,,,,,
,,,,,,,,,5c4a4b329ba9e00001ffc4f3,Mexican,13 or older,"no, only English or Spanish",no,2025-07-22_21h53.06.915,empathy_intonation_perc,2024.2.4,Win32,119.9040767,5c4a4b329ba9e00001ffc4f3,687ed1b7e638a4cbf2f02089,6880405b18a35585d723aad2,,,,,,,,,,,,,,0,,,,,,,,,,,,,,,,,,,,,,,,,,,,,,,,,,,,,,,,,,,,,,,,,,,,,,,,,92,click the 0 key.,,,,,612.211,613.977,0,1,1.246,,0,56,56,91,1,REAL,FAKE,,,,,,,,,,,,,,,,,
,,,,,,,,,5c4a4b329ba9e00001ffc4f3,Mexican,13 or older,"no, only English or Spanish",no,2025-07-22_21h53.06.915,empathy_intonation_perc,2024.2.4,Win32,119.9040767,5c4a4b329ba9e00001ffc4f3,687ed1b7e638a4cbf2f02089,6880405b18a35585d723aad2,,,,,,,,,,,,,,1,,,,,,,,,,,,,,,,,,,,,,,,,,,,,,,,,,,,,,,,,,,,,,,,,,,,,,,,,81,pozo,,,,,613.977,619.869,0,0,5.371,,0,57,57,80,1,REAL,FAKE,,,,,,,,,,,,,,,,,
,,,,,,,,,5c4a4b329ba9e00001ffc4f3,Mexican,13 or older,"no, only English or Spanish",no,2025-07-22_21h53.06.915,empathy_intonation_perc,2024.2.4,Win32,119.9040767,5c4a4b329ba9e00001ffc4f3,687ed1b7e638a4cbf2f02089,6880405b18a35585d723aad2,,,,,,,,,,,,,,0,,,,,,,,,,,,,,,,,,,,,,,,,,,,,,,,,,,,,,,,,,,,,,,,,,,,,,,,,8,cadeña,,,,,619.87,621.26,1,0,0.864,,0,58,58,7,1,REAL,FAKE,,,,,,,,,,,,,,,,,
,,,,,,,,,5c4a4b329ba9e00001ffc4f3,Mexican,13 or older,"no, only English or Spanish",no,2025-07-22_21h53.06.915,empathy_intonation_perc,2024.2.4,Win32,119.9040767,5c4a4b329ba9e00001ffc4f3,687ed1b7e638a4cbf2f02089,6880405b18a35585d723aad2,,,,,,,,,,,,,,1,,,,,,,,,,,,,,,,,,,,,,,,,,,,,,,,,,,,,,,,,,,,,,,,,,,,,,,,,61,seda,,,,,621.261,623.91,1,1,2.138,,0,59,59,60,1,REAL,FAKE,,,,,,,,,,,,,,,,,
,,,,,,,,,5c4a4b329ba9e00001ffc4f3,Mexican,13 or older,"no, only English or Spanish",no,2025-07-22_21h53.06.915,empathy_intonation_perc,2024.2.4,Win32,119.9040767,5c4a4b329ba9e00001ffc4f3,687ed1b7e638a4cbf2f02089,6880405b18a35585d723aad2,,,,,,,,,,,,,,1,,,,,,,,,,,,,,,,,,,,,,,,,,,,,,,,,,,,,,,,,,,,,,,,,,,,,,,,,54,fomentar,,,,,623.91,625.235,0,0,0.804,,0,60,60,53,1,REAL,FAKE,,,,,,,,,,,,,,,,,
,,,,,,,,,5c4a4b329ba9e00001ffc4f3,Mexican,13 or older,"no, only English or Spanish",no,2025-07-22_21h53.06.915,empathy_intonation_perc,2024.2.4,Win32,119.9040767,5c4a4b329ba9e00001ffc4f3,687ed1b7e638a4cbf2f02089,6880405b18a35585d723aad2,,,,,,,,,,,,,,1,,,,,,,,,,,,,,,,,,,,,,,,,,,,,,,,,,,,,,,,,,,,,,,,,,,,,,,,,25,bisagra,,,,,625.237,626.652,0,0,0.891,,0,61,61,24,1,REAL,FAKE,,,,,,,,,,,,,,,,,
,,,,,,,,,5c4a4b329ba9e00001ffc4f3,Mexican,13 or older,"no, only English or Spanish",no,2025-07-22_21h53.06.915,empathy_intonation_perc,2024.2.4,Win32,119.9040767,5c4a4b329ba9e00001ffc4f3,687ed1b7e638a4cbf2f02089,6880405b18a35585d723aad2,,,,,,,,,,,,,,1,,,,,,,,,,,,,,,,,,,,,,,,,,,,,,,,,,,,,,,,,,,,,,,,,,,,,,,,,69,engatusar,,,,,626.653,628.377,0,0,1.193,,0,62,62,68,1,REAL,FAKE,,,,,,,,,,,,,,,,,
,,,,,,,,,5c4a4b329ba9e00001ffc4f3,Mexican,13 or older,"no, only English or Spanish",no,2025-07-22_21h53.06.915,empathy_intonation_perc,2024.2.4,Win32,119.9040767,5c4a4b329ba9e00001ffc4f3,687ed1b7e638a4cbf2f02089,6880405b18a35585d723aad2,,,,,,,,,,,,,,1,,,,,,,,,,,,,,,,,,,,,,,,,,,,,,,,,,,,,,,,,,,,,,,,,,,,,,,,,80,hormiga,,,,,628.377,629.968,1,1,1.058,,0,63,63,79,1,REAL,FAKE,,,,,,,,,,,,,,,,,
,,,,,,,,,5c4a4b329ba9e00001ffc4f3,Mexican,13 or older,"no, only English or Spanish",no,2025-07-22_21h53.06.915,empathy_intonation_perc,2024.2.4,Win32,119.9040767,5c4a4b329ba9e00001ffc4f3,687ed1b7e638a4cbf2f02089,6880405b18a35585d723aad2,,,,,,,,,,,,,,1,,,,,,,,,,,,,,,,,,,,,,,,,,,,,,,,,,,,,,,,,,,,,,,,,,,,,,,,,86,barato,,,,,629.969,631.735,0,0,1.256,,0,64,64,85,1,REAL,FAKE,,,,,,,,,,,,,,,,,
,,,,,,,,,5c4a4b329ba9e00001ffc4f3,Mexican,13 or older,"no, only English or Spanish",no,2025-07-22_21h53.06.915,empathy_intonation_perc,2024.2.4,Win32,119.9040767,5c4a4b329ba9e00001ffc4f3,687ed1b7e638a4cbf2f02089,6880405b18a35585d723aad2,,,,,,,,,,,,,,1,,,,,,,,,,,,,,,,,,,,,,,,,,,,,,,,,,,,,,,,,,,,,,,,,,,,,,,,,3,pulmones,,,,,631.736,633.86,0,0,1.598,,0,65,65,2,1,REAL,FAKE,,,,,,,,,,,,,,,,,
,,,,,,,,,5c4a4b329ba9e00001ffc4f3,Mexican,13 or older,"no, only English or Spanish",no,2025-07-22_21h53.06.915,empathy_intonation_perc,2024.2.4,Win32,119.9040767,5c4a4b329ba9e00001ffc4f3,687ed1b7e638a4cbf2f02089,6880405b18a35585d723aad2,,,,,,,,,,,,,,1,,,,,,,,,,,,,,,,,,,,,,,,,,,,,,,,,,,,,,,,,,,,,,,,,,,,,,,,,89,prisa,,,,,633.86,635.118,1,1,0.752,,0,66,66,88,1,REAL,FAKE,,,,,,,,,,,,,,,,,
,,,,,,,,,5c4a4b329ba9e00001ffc4f3,Mexican,13 or older,"no, only English or Spanish",no,2025-07-22_21h53.06.915,empathy_intonation_perc,2024.2.4,Win32,119.9040767,5c4a4b329ba9e00001ffc4f3,687ed1b7e638a4cbf2f02089,6880405b18a35585d723aad2,,,,,,,,,,,,,,0,,,,,,,,,,,,,,,,,,,,,,,,,,,,,,,,,,,,,,,,,,,,,,,,,,,,,,,,,16,abracer,,,,,635.119,636.419,0,1,0.784,,0,67,67,15,1,REAL,FAKE,,,,,,,,,,,,,,,,,
,,,,,,,,,5c4a4b329ba9e00001ffc4f3,Mexican,13 or older,"no, only English or Spanish",no,2025-07-22_21h53.06.915,empathy_intonation_perc,2024.2.4,Win32,119.9040767,5c4a4b329ba9e00001ffc4f3,687ed1b7e638a4cbf2f02089,6880405b18a35585d723aad2,,,,,,,,,,,,,,1,,,,,,,,,,,,,,,,,,,,,,,,,,,,,,,,,,,,,,,,,,,,,,,,,,,,,,,,,64,orgulloso,,,,,636.419,637.885,0,0,0.946,,0,68,68,63,1,REAL,FAKE,,,,,,,,,,,,,,,,,
,,,,,,,,,5c4a4b329ba9e00001ffc4f3,Mexican,13 or older,"no, only English or Spanish",no,2025-07-22_21h53.06.915,empathy_intonation_perc,2024.2.4,Win32,119.9040767,5c4a4b329ba9e00001ffc4f3,687ed1b7e638a4cbf2f02089,6880405b18a35585d723aad2,,,,,,,,,,,,,,1,,,,,,,,,,,,,,,,,,,,,,,,,,,,,,,,,,,,,,,,,,,,,,,,,,,,,,,,,77,tiburón,,,,,637.886,639.36,1,1,0.956,,0,69,69,76,1,REAL,FAKE,,,,,,,,,,,,,,,,,
,,,,,,,,,5c4a4b329ba9e00001ffc4f3,Mexican,13 or older,"no, only English or Spanish",no,2025-07-22_21h53.06.915,empathy_intonation_perc,2024.2.4,Win32,119.9040767,5c4a4b329ba9e00001ffc4f3,687ed1b7e638a4cbf2f02089,6880405b18a35585d723aad2,,,,,,,,,,,,,,0,,,,,,,,,,,,,,,,,,,,,,,,,,,,,,,,,,,,,,,,,,,,,,,,,,,,,,,,,4,batillón,,,,,639.361,640.768,0,1,0.88,,0,70,70,3,1,REAL,FAKE,,,,,,,,,,,,,,,,,
,,,,,,,,,5c4a4b329ba9e00001ffc4f3,Mexican,13 or older,"no, only English or Spanish",no,2025-07-22_21h53.06.915,empathy_intonation_perc,2024.2.4,Win32,119.9040767,5c4a4b329ba9e00001ffc4f3,687ed1b7e638a4cbf2f02089,6880405b18a35585d723aad2,,,,,,,,,,,,,,0,,,,,,,,,,,,,,,,,,,,,,,,,,,,,,,,,,,,,,,,,,,,,,,,,,,,,,,,,33,pauca,,,,,640.771,642.194,0,1,0.91,,0,71,71,32,1,REAL,FAKE,,,,,,,,,,,,,,,,,
,,,,,,,,,5c4a4b329ba9e00001ffc4f3,Mexican,13 or older,"no, only English or Spanish",no,2025-07-22_21h53.06.915,empathy_intonation_perc,2024.2.4,Win32,119.9040767,5c4a4b329ba9e00001ffc4f3,687ed1b7e638a4cbf2f02089,6880405b18a35585d723aad2,,,,,,,,,,,,,,1,,,,,,,,,,,,,,,,,,,,,,,,,,,,,,,,,,,,,,,,,,,,,,,,,,,,,,,,,31,pandilla,,,,,642.194,643.41,0,0,0.692,,0,72,72,30,1,REAL,FAKE,,,,,,,,,,,,,,,,,
,,,,,,,,,5c4a4b329ba9e00001ffc4f3,Mexican,13 or older,"no, only English or Spanish",no,2025-07-22_21h53.06.915,empathy_intonation_perc,2024.2.4,Win32,119.9040767,5c4a4b329ba9e00001ffc4f3,687ed1b7e638a4cbf2f02089,6880405b18a35585d723aad2,,,,,,,,,,,,,,1,,,,,,,,,,,,,,,,,,,,,,,,,,,,,,,,,,,,,,,,,,,,,,,,,,,,,,,,,73,hervidor,,,,,643.41,645.909,1,1,1.98,,0,73,73,72,1,REAL,FAKE,,,,,,,,,,,,,,,,,
,,,,,,,,,5c4a4b329ba9e00001ffc4f3,Mexican,13 or older,"no, only English or Spanish",no,2025-07-22_21h53.06.915,empathy_intonation_perc,2024.2.4,Win32,119.9040767,5c4a4b329ba9e00001ffc4f3,687ed1b7e638a4cbf2f02089,6880405b18a35585d723aad2,,,,,,,,,,,,,,0,,,,,,,,,,,,,,,,,,,,,,,,,,,,,,,,,,,,,,,,,,,,,,,,,,,,,,,,,72,pemición,,,,,645.91,647.693,1,0,1.272,,0,74,74,71,1,REAL,FAKE,,,,,,,,,,,,,,,,,
,,,,,,,,,5c4a4b329ba9e00001ffc4f3,Mexican,13 or older,"no, only English or Spanish",no,2025-07-22_21h53.06.915,empathy_intonation_perc,2024.2.4,Win32,119.9040767,5c4a4b329ba9e00001ffc4f3,687ed1b7e638a4cbf2f02089,6880405b18a35585d723aad2,,,,,,,,,,,,,,1,,,,,,,,,,,,,,,,,,,,,,,,,,,,,,,,,,,,,,,,,,,,,,,,,,,,,,,,,37,granuja,,,,,647.694,649.977,1,1,1.765,,0,75,75,36,1,REAL,FAKE,,,,,,,,,,,,,,,,,
,,,,,,,,,5c4a4b329ba9e00001ffc4f3,Mexican,13 or older,"no, only English or Spanish",no,2025-07-22_21h53.06.915,empathy_intonation_perc,2024.2.4,Win32,119.9040767,5c4a4b329ba9e00001ffc4f3,687ed1b7e638a4cbf2f02089,6880405b18a35585d723aad2,,,,,,,,,,,,,,1,,,,,,,,,,,,,,,,,,,,,,,,,,,,,,,,,,,,,,,,,,,,,,,,,,,,,,,,,75,yacer,,,,,649.977,651.26,0,0,0.761,,0,76,76,74,1,REAL,FAKE,,,,,,,,,,,,,,,,,
,,,,,,,,,5c4a4b329ba9e00001ffc4f3,Mexican,13 or older,"no, only English or Spanish",no,2025-07-22_21h53.06.915,empathy_intonation_perc,2024.2.4,Win32,119.9040767,5c4a4b329ba9e00001ffc4f3,687ed1b7e638a4cbf2f02089,6880405b18a35585d723aad2,,,,,,,,,,,,,,1,,,,,,,,,,,,,,,,,,,,,,,,,,,,,,,,,,,,,,,,,,,,,,,,,,,,,,,,,41,rebuscar,,,,,651.26,653.344,0,0,1.56,,0,77,77,40,1,REAL,FAKE,,,,,,,,,,,,,,,,,
,,,,,,,,,5c4a4b329ba9e00001ffc4f3,Mexican,13 or older,"no, only English or Spanish",no,2025-07-22_21h53.06.915,empathy_intonation_perc,2024.2.4,Win32,119.9040767,5c4a4b329ba9e00001ffc4f3,687ed1b7e638a4cbf2f02089,6880405b18a35585d723aad2,,,,,,,,,,,,,,1,,,,,,,,,,,,,,,,,,,,,,,,,,,,,,,,,,,,,,,,,,,,,,,,,,,,,,,,,6,tergiversar,,,,,653.344,654.651,0,0,0.79,,0,78,78,5,1,REAL,FAKE,,,,,,,,,,,,,,,,,
,,,,,,,,,5c4a4b329ba9e00001ffc4f3,Mexican,13 or older,"no, only English or Spanish",no,2025-07-22_21h53.06.915,empathy_intonation_perc,2024.2.4,Win32,119.9040767,5c4a4b329ba9e00001ffc4f3,687ed1b7e638a4cbf2f02089,6880405b18a35585d723aad2,,,,,,,,,,,,,,1,,,,,,,,,,,,,,,,,,,,,,,,,,,,,,,,,,,,,,,,,,,,,,,,,,,,,,,,,65,bizcocho,,,,,654.652,656.909,0,0,1.735,,0,79,79,64,1,REAL,FAKE,,,,,,,,,,,,,,,,,
,,,,,,,,,5c4a4b329ba9e00001ffc4f3,Mexican,13 or older,"no, only English or Spanish",no,2025-07-22_21h53.06.915,empathy_intonation_perc,2024.2.4,Win32,119.9040767,5c4a4b329ba9e00001ffc4f3,687ed1b7e638a4cbf2f02089,6880405b18a35585d723aad2,,,,,,,,,,,,,,1,,,,,,,,,,,,,,,,,,,,,,,,,,,,,,,,,,,,,,,,,,,,,,,,,,,,,,,,,24,látigo,,,,,656.911,658.285,0,0,0.851,,0,80,80,23,1,REAL,FAKE,,,,,,,,,,,,,,,,,
,,,,,,,,,5c4a4b329ba9e00001ffc4f3,Mexican,13 or older,"no, only English or Spanish",no,2025-07-22_21h53.06.915,empathy_intonation_perc,2024.2.4,Win32,119.9040767,5c4a4b329ba9e00001ffc4f3,687ed1b7e638a4cbf2f02089,6880405b18a35585d723aad2,,,,,,,,,,,,,,1,,,,,,,,,,,,,,,,,,,,,,,,,,,,,,,,,,,,,,,,,,,,,,,,,,,,,,,,,5,zapato,,,,,658.286,660.801,1,1,1.998,,0,81,81,4,1,REAL,FAKE,,,,,,,,,,,,,,,,,
,,,,,,,,,5c4a4b329ba9e00001ffc4f3,Mexican,13 or older,"no, only English or Spanish",no,2025-07-22_21h53.06.915,empathy_intonation_perc,2024.2.4,Win32,119.9040767,5c4a4b329ba9e00001ffc4f3,687ed1b7e638a4cbf2f02089,6880405b18a35585d723aad2,,,,,,,,,,,,,,0,,,,,,,,,,,,,,,,,,,,,,,,,,,,,,,,,,,,,,,,,,,,,,,,,,,,,,,,,63,esposante,,,,,660.802,662.226,0,1,0.905,,0,82,82,62,1,REAL,FAKE,,,,,,,,,,,,,,,,,
,,,,,,,,,5c4a4b329ba9e00001ffc4f3,Mexican,13 or older,"no, only English or Spanish",no,2025-07-22_21h53.06.915,empathy_intonation_perc,2024.2.4,Win32,119.9040767,5c4a4b329ba9e00001ffc4f3,687ed1b7e638a4cbf2f02089,6880405b18a35585d723aad2,,,,,,,,,,,,,,0,,,,,,,,,,,,,,,,,,,,,,,,,,,,,,,,,,,,,,,,,,,,,,,,,,,,,,,,,42,cadallo,,,,,662.228,664.418,1,0,1.676,,0,83,83,41,1,REAL,FAKE,,,,,,,,,,,,,,,,,
,,,,,,,,,5c4a4b329ba9e00001ffc4f3,Mexican,13 or older,"no, only English or Spanish",no,2025-07-22_21h53.06.915,empathy_intonation_perc,2024.2.4,Win32,119.9040767,5c4a4b329ba9e00001ffc4f3,687ed1b7e638a4cbf2f02089,6880405b18a35585d723aad2,,,,,,,,,,,,,,1,,,,,,,,,,,,,,,,,,,,,,,,,,,,,,,,,,,,,,,,,,,,,,,,,,,,,,,,,28,merodear,,,,,664.419,665.918,0,0,0.985,,0,84,84,27,1,REAL,FAKE,,,,,,,,,,,,,,,,,
,,,,,,,,,5c4a4b329ba9e00001ffc4f3,Mexican,13 or older,"no, only English or Spanish",no,2025-07-22_21h53.06.915,empathy_intonation_perc,2024.2.4,Win32,119.9040767,5c4a4b329ba9e00001ffc4f3,687ed1b7e638a4cbf2f02089,6880405b18a35585d723aad2,,,,,,,,,,,,,,1,,,,,,,,,,,,,,,,,,,,,,,,,,,,,,,,,,,,,,,,,,,,,,,,,,,,,,,,,22,lacayo,,,,,665.918,667.268,0,0,0.837,,0,85,85,21,1,REAL,FAKE,,,,,,,,,,,,,,,,,
,,,,,,,,,5c4a4b329ba9e00001ffc4f3,Mexican,13 or older,"no, only English or Spanish",no,2025-07-22_21h53.06.915,empathy_intonation_perc,2024.2.4,Win32,119.9040767,5c4a4b329ba9e00001ffc4f3,687ed1b7e638a4cbf2f02089,6880405b18a35585d723aad2,,,,,,,,,,,,,,1,,,,,,,,,,,,,,,,,,,,,,,,,,,,,,,,,,,,,,,,,,,,,,,,,,,,,,,,,13,helar,,,,,667.269,668.467,0,0,0.677,,0,86,86,12,1,REAL,FAKE,,,,,,,,,,,,,,,,,
,,,,,,,,,5c4a4b329ba9e00001ffc4f3,Mexican,13 or older,"no, only English or Spanish",no,2025-07-22_21h53.06.915,empathy_intonation_perc,2024.2.4,Win32,119.9040767,5c4a4b329ba9e00001ffc4f3,687ed1b7e638a4cbf2f02089,6880405b18a35585d723aad2,,,,,,,,,,,,,,1,,,,,,,,,,,,,,,,,,,,,,,,,,,,,,,,,,,,,,,,,,,,,,,,,,,,,,,,,57,tacaño,,,,,668.469,669.96,1,1,0.965,,0,87,87,56,1,REAL,FAKE,,,,,,,,,,,,,,,,,
,,,,,,,,,5c4a4b329ba9e00001ffc4f3,Mexican,13 or older,"no, only English or Spanish",no,2025-07-22_21h53.06.915,empathy_intonation_perc,2024.2.4,Win32,119.9040767,5c4a4b329ba9e00001ffc4f3,687ed1b7e638a4cbf2f02089,6880405b18a35585d723aad2,,,,,,,,,,,,,,1,,,,,,,,,,,,,,,,,,,,,,,,,,,,,,,,,,,,,,,,,,,,,,,,,,,,,,,,,88,acantilado,,,,,669.961,671.86,0,0,1.367,,0,88,88,87,1,REAL,FAKE,,,,,,,,,,,,,,,,,
,,,,,,,,,5c4a4b329ba9e00001ffc4f3,Mexican,13 or older,"no, only English or Spanish",no,2025-07-22_21h53.06.915,empathy_intonation_perc,2024.2.4,Win32,119.9040767,5c4a4b329ba9e00001ffc4f3,687ed1b7e638a4cbf2f02089,6880405b18a35585d723aad2,,,,,,,,,,,,,,0,,,,,,,,,,,,,,,,,,,,,,,,,,,,,,,,,,,,,,,,,,,,,,,,,,,,,,,,,18,arsa,,,,,671.86,673.168,0,1,0.777,,0,89,89,17,1,REAL,FAKE,,,,,,,,,,,,,,,,,
,,,,,,,,,5c4a4b329ba9e00001ffc4f3,Mexican,13 or older,"no, only English or Spanish",no,2025-07-22_21h53.06.915,empathy_intonation_perc,2024.2.4,Win32,119.9040767,5c4a4b329ba9e00001ffc4f3,687ed1b7e638a4cbf2f02089,6880405b18a35585d723aad2,,,,,,,,,,,,,,0,,,,,,,,,,,,,,,,,,,,,,,,,,,,,,,,,,,,,,,,,,,,,,,,,,,,,,,,,35,rompido,,,,,673.168,674.668,0,1,0.98,,0,90,90,34,1,REAL,FAKE,,,,,,,,,,,,,,,,,
,,,,,,,,,5c4a4b329ba9e00001ffc4f3,Mexican,13 or older,"no, only English or Spanish",no,2025-07-22_21h53.06.915,empathy_intonation_perc,2024.2.4,Win32,119.9040767,5c4a4b329ba9e00001ffc4f3,687ed1b7e638a4cbf2f02089,6880405b18a35585d723aad2,,,,,,,,,,,,,,0,,,,,,,,,,,,,,,,,,,,,,,,,,,,,,,,,,,,,,,,,,,,,,,,,,,,,,,,,50,flamida,,,,,674.668,676.568,0,1,1.379,,0,91,91,49,1,REAL,FAKE,,,,,,,,,,,,,,,,,
,,,,,,,,,5c4a4b329ba9e00001ffc4f3,Mexican,13 or older,"no, only English or Spanish",no,2025-07-22_21h53.06.915,empathy_intonation_perc,2024.2.4,Win32,119.9040767,5c4a4b329ba9e00001ffc4f3,687ed1b7e638a4cbf2f02089,6880405b18a35585d723aad2,,,,,,,,,,,,,,,,,,,,,,,,,,,,,,,,,,,,,,,,,,,,,,,,,,,,,,,,,,,,,,,,,,,,,,,,,,,,,,,,,,,,,,,,,,676.568,684.16,,,,,,,,,,,,,,,
,,,,,,,,,5c4a4b329ba9e00001ffc4f3,Mexican,13 or older,"no, only English or Spanish",no,2025-07-22_21h53.06.915,empathy_intonation_perc,2024.2.4,Win32,119.9040767,5c4a4b329ba9e00001ffc4f3,687ed1b7e638a4cbf2f02089,6880405b18a35585d723aad2,,,,,,,,,,,,,1,,,,,,,,,,,,,,,,,,,,,,,,,,,,,,,,,,,,,,,,,,,,,,,,,,,,,,,,,,,,,,,,,,,,,,,,,,,,,,,684.172,688.734,strongly agree,0,0,0,0,1,I can easily tell if someone else wants to enter a conversation.,1,0,1,0,,
,,,,,,,,,5c4a4b329ba9e00001ffc4f3,Mexican,13 or older,"no, only English or Spanish",no,2025-07-22_21h53.06.915,empathy_intonation_perc,2024.2.4,Win32,119.9040767,5c4a4b329ba9e00001ffc4f3,687ed1b7e638a4cbf2f02089,6880405b18a35585d723aad2,,,,,,,,,,,,,2,,,,,,,,,,,,,,,,,,,,,,,,,,,,,,,,,,,,,,,,,,,,,,,,,,,,,,,,,,,,,,,,,,,,,,,,,,,,,,,688.736,692.227,strongly disagree,0,1,1,1,1,I prefer animals to humans.,0,1,0,0,,
,,,,,,,,,5c4a4b329ba9e00001ffc4f3,Mexican,13 or older,"no, only English or Spanish",no,2025-07-22_21h53.06.915,empathy_intonation_perc,2024.2.4,Win32,119.9040767,5c4a4b329ba9e00001ffc4f3,687ed1b7e638a4cbf2f02089,6880405b18a35585d723aad2,,,,,,,,,,,,,3,,,,,,,,,,,,,,,,,,,,,,,,,,,,,,,,,,,,,,,,,,,,,,,,,,,,,,,,,,,,,,,,,,,,,,,,,,,,,,,692.228,696.626,slightly disagree,0,2,2,2,1,I try to keep up with the current trends and fashions.,0,1,0,0,,
,,,,,,,,,5c4a4b329ba9e00001ffc4f3,Mexican,13 or older,"no, only English or Spanish",no,2025-07-22_21h53.06.915,empathy_intonation_perc,2024.2.4,Win32,119.9040767,5c4a4b329ba9e00001ffc4f3,687ed1b7e638a4cbf2f02089,6880405b18a35585d723aad2,,,,,,,,,,,,,4,,,,,,,,,,,,,,,,,,,,,,,,,,,,,,,,,,,,,,,,,,,,,,,,,,,,,,,,,,,,,,,,,,,,,,,,,,,,,,,696.627,699.793,slightly agree,0,3,3,3,1,"I find it difficult to explain to others things that I understand easily,   when they don't understand it first time.",1,0,0,1,,
,,,,,,,,,5c4a4b329ba9e00001ffc4f3,Mexican,13 or older,"no, only English or Spanish",no,2025-07-22_21h53.06.915,empathy_intonation_perc,2024.2.4,Win32,119.9040767,5c4a4b329ba9e00001ffc4f3,687ed1b7e638a4cbf2f02089,6880405b18a35585d723aad2,,,,,,,,,,,,,5,,,,,,,,,,,,,,,,,,,,,,,,,,,,,,,,,,,,,,,,,,,,,,,,,,,,,,,,,,,,,,,,,,,,,,,,,,,,,,,699.793,702.534,strongly disagree,0,4,4,4,1,I dream most nights.,0,1,0,0,,
,,,,,,,,,5c4a4b329ba9e00001ffc4f3,Mexican,13 or older,"no, only English or Spanish",no,2025-07-22_21h53.06.915,empathy_intonation_perc,2024.2.4,Win32,119.9040767,5c4a4b329ba9e00001ffc4f3,687ed1b7e638a4cbf2f02089,6880405b18a35585d723aad2,,,,,,,,,,,,,6,,,,,,,,,,,,,,,,,,,,,,,,,,,,,,,,,,,,,,,,,,,,,,,,,,,,,,,,,,,,,,,,,,,,,,,,,,,,,,,702.537,704.834,slightly agree,0,5,5,5,1,I really enjoy caring for other people.,1,0,1,0,,
,,,,,,,,,5c4a4b329ba9e00001ffc4f3,Mexican,13 or older,"no, only English or Spanish",no,2025-07-22_21h53.06.915,empathy_intonation_perc,2024.2.4,Win32,119.9040767,5c4a4b329ba9e00001ffc4f3,687ed1b7e638a4cbf2f02089,6880405b18a35585d723aad2,,,,,,,,,,,,,7,,,,,,,,,,,,,,,,,,,,,,,,,,,,,,,,,,,,,,,,,,,,,,,,,,,,,,,,,,,,,,,,,,,,,,,,,,,,,,,704.836,708.501,slightly disagree,0,6,6,6,1,I try to solve my own problems rather than discussing them with others.,0,1,0,0,,
,,,,,,,,,5c4a4b329ba9e00001ffc4f3,Mexican,13 or older,"no, only English or Spanish",no,2025-07-22_21h53.06.915,empathy_intonation_perc,2024.2.4,Win32,119.9040767,5c4a4b329ba9e00001ffc4f3,687ed1b7e638a4cbf2f02089,6880405b18a35585d723aad2,,,,,,,,,,,,,8,,,,,,,,,,,,,,,,,,,,,,,,,,,,,,,,,,,,,,,,,,,,,,,,,,,,,,,,,,,,,,,,,,,,,,,,,,,,,,,708.502,710.868,strongly disagree,0,7,7,7,1,I find it hard to know what to do in a social situation.,1,0,0,1,,
,,,,,,,,,5c4a4b329ba9e00001ffc4f3,Mexican,13 or older,"no, only English or Spanish",no,2025-07-22_21h53.06.915,empathy_intonation_perc,2024.2.4,Win32,119.9040767,5c4a4b329ba9e00001ffc4f3,687ed1b7e638a4cbf2f02089,6880405b18a35585d723aad2,,,,,,,,,,,,,9,,,,,,,,,,,,,,,,,,,,,,,,,,,,,,,,,,,,,,,,,,,,,,,,,,,,,,,,,,,,,,,,,,,,,,,,,,,,,,,710.869,714.042,strongly disagree,0,8,8,8,1,I am at my best first thing in the morning.,0,1,0,0,,
,,,,,,,,,5c4a4b329ba9e00001ffc4f3,Mexican,13 or older,"no, only English or Spanish",no,2025-07-22_21h53.06.915,empathy_intonation_perc,2024.2.4,Win32,119.9040767,5c4a4b329ba9e00001ffc4f3,687ed1b7e638a4cbf2f02089,6880405b18a35585d723aad2,,,,,,,,,,,,,10,,,,,,,,,,,,,,,,,,,,,,,,,,,,,,,,,,,,,,,,,,,,,,,,,,,,,,,,,,,,,,,,,,,,,,,,,,,,,,,714.043,719.417,slightly disagree,0,9,9,9,1,People often tell me that I went too far in driving my point home in a discussion.,1,0,0,1,,
,,,,,,,,,5c4a4b329ba9e00001ffc4f3,Mexican,13 or older,"no, only English or Spanish",no,2025-07-22_21h53.06.915,empathy_intonation_perc,2024.2.4,Win32,119.9040767,5c4a4b329ba9e00001ffc4f3,687ed1b7e638a4cbf2f02089,6880405b18a35585d723aad2,,,,,,,,,,,,,11,,,,,,,,,,,,,,,,,,,,,,,,,,,,,,,,,,,,,,,,,,,,,,,,,,,,,,,,,,,,,,,,,,,,,,,,,,,,,,,719.418,723.293,strongly disagree,0,10,10,10,1,It doesn't bother me too much if I am late meeting a friend.,1,0,0,1,,
