instructions_exposure.started,instructions_exposure.stopped,instructions_exposure_loop.thisRepN,instructions_exposure_loop.thisTrialN,instructions_exposure_loop.thisN,instructions_exposure_loop.thisIndex,instructions_exposure_loop.ran,instructions_text,continue_text,participant_id,"What variety of Spanish are you most familiar with? (e.g., Peruvian, Spanish, Mexican)",At what age did you begin learning Spanish?,Are you proficient in any languages other than English/Spanish?,"Are you familiar with Caribbean (e.g., Caribbean, Puerto Rican) or Galician Spanish?",date,expName,psychopyVersion,OS,frameRate,id,study_id,session,trial_exposure.started,trial_exposure.stopped,key_resp_exposure.keys,key_resp_exposure.corr,key_resp_exposure.rt,key_resp_exposure.duration,key_resp.keys,exposure_loop.thisRepN,exposure_loop.thisTrialN,exposure_loop.thisN,exposure_loop.thisIndex,exposure_loop.ran,item_num,correct_response,question,path,duration,instructions_2afc.started,instructions_2afc.stopped,instructions_2afc_loop.thisRepN,instructions_2afc_loop.thisTrialN,instructions_2afc_loop.thisN,instructions_2afc_loop.thisIndex,instructions_2afc_loop.ran,practice_2afc.started,practice_2afc.stopped,key_resp_2afc_practice.keys,key_resp_2afc_practice.corr,key_resp_2afc_practice.rt,key_resp_2afc_practice.duration,trials_2afc_practice_loop.thisRepN,trials_2afc_practice_loop.thisTrialN,trials_2afc_practice_loop.thisN,trials_2afc_practice_loop.thisIndex,trials_2afc_practice_loop.ran,check_2afc.started,check_2afc.stopped,trial_2afc.started,trial_2afc.stopped,key_resp_2afc_trial.keys,key_resp_2afc_trial.corr,key_resp_2afc_trial.rt,key_resp_2afc_trial.duration,trials_2afc_loop.thisRepN,trials_2afc_loop.thisTrialN,trials_2afc_loop.thisN,trials_2afc_loop.thisIndex,trials_2afc_loop.ran,target,variety,instructions_lextale.started,instructions_lextale.stopped,instructions_lextale_loop.thisRepN,instructions_lextale_loop.thisTrialN,instructions_lextale_loop.thisN,instructions_lextale_loop.thisIndex,instructions_lextale_loop.ran,practice_lextale.started,practice_lextale.stopped,key_resp_lextale_practice.keys,key_resp_lextale_practice.corr,key_resp_lextale_practice.rt,key_resp_lextale_practice.duration,practice_feedback_lextale.started,practice_feedback_lextale.stopped,trials_lextale_practice_loop.thisRepN,trials_lextale_practice_loop.thisTrialN,trials_lextale_practice_loop.thisN,trials_lextale_practice_loop.thisIndex,trials_lextale_practice_loop.ran,stim,word,prac_button_real,prac_button_false,check_lextale.started,check_lextale.stopped,trial_lextale.started,trial_lextale.stopped,key_resp_lextale_trial.keys,key_resp_lextale_trial.corr,key_resp_lextale_trial.rt,key_resp_lextale_trial.duration,trials_lextale_loop.thisRepN,trials_lextale_loop.thisTrialN,trials_lextale_loop.thisN,trials_lextale_loop.thisIndex,trials_lextale_loop.ran,button_real,button_false,instructions_eq.started,instructions_eq.stopped,trial_eq.started,trial_eq.stopped,slider_eq_trial.response,trials_eq_loop.thisRepN,trials_eq_loop.thisTrialN,trials_eq_loop.thisN,trials_eq_loop.thisIndex,trials_eq_loop.ran,item,is_test_item,is_distractor,is_agree_score,is_disagree_score,end_exp.started,end_exp.stopped
0.0106,2.4537,0,0,0,0,1,"In the following task, you are going to hear a series of conversations.", (press the space bar to continue),5c553e0ad3cc6b0001d98fd3,not sure ,13 or older,click here to respond,no,2025-07-22_22h09.51.334,empathy_intonation_perc,2024.2.4,MacIntel,63.69426752,5c553e0ad3cc6b0001d98fd3,687ed1b7e638a4cbf2f02089,68804430d468caf09f03e5e8,,,,,,,,,,,,,,,,,,,,,,,,,,,,,,,,,,,,,,,,,,,,,,,,,,,,,,,,,,,,,,,,,,,,,,,,,,,,,,,,,,,,,,,,,,,,,,,,,,,,,,,,,,
2.4544,6.2004,0,1,1,1,1,It is okay if you don't not 100% understand them!, (press the space bar to continue),5c553e0ad3cc6b0001d98fd3,not sure ,13 or older,click here to respond,no,2025-07-22_22h09.51.334,empathy_intonation_perc,2024.2.4,MacIntel,63.69426752,5c553e0ad3cc6b0001d98fd3,687ed1b7e638a4cbf2f02089,68804430d468caf09f03e5e8,,,,,,,,,,,,,,,,,,,,,,,,,,,,,,,,,,,,,,,,,,,,,,,,,,,,,,,,,,,,,,,,,,,,,,,,,,,,,,,,,,,,,,,,,,,,,,,,,,,,,,,,,,
6.2035,8.1495,0,2,2,2,1,"After, you will read a sentence about the conversation and decide if it's true or false.", (press the space bar to continue),5c553e0ad3cc6b0001d98fd3,not sure ,13 or older,click here to respond,no,2025-07-22_22h09.51.334,empathy_intonation_perc,2024.2.4,MacIntel,63.69426752,5c553e0ad3cc6b0001d98fd3,687ed1b7e638a4cbf2f02089,68804430d468caf09f03e5e8,,,,,,,,,,,,,,,,,,,,,,,,,,,,,,,,,,,,,,,,,,,,,,,,,,,,,,,,,,,,,,,,,,,,,,,,,,,,,,,,,,,,,,,,,,,,,,,,,,,,,,,,,,
8.153,12.4171,0,3,3,3,1,"If it's true, press '1' (True) and if it's false press '0' (False).", (press the space bar to continue),5c553e0ad3cc6b0001d98fd3,not sure ,13 or older,click here to respond,no,2025-07-22_22h09.51.334,empathy_intonation_perc,2024.2.4,MacIntel,63.69426752,5c553e0ad3cc6b0001d98fd3,687ed1b7e638a4cbf2f02089,68804430d468caf09f03e5e8,,,,,,,,,,,,,,,,,,,,,,,,,,,,,,,,,,,,,,,,,,,,,,,,,,,,,,,,,,,,,,,,,,,,,,,,,,,,,,,,,,,,,,,,,,,,,,,,,,,,,,,,,,
,,,,,,,,,5c553e0ad3cc6b0001d98fd3,not sure ,13 or older,click here to respond,no,2025-07-22_22h09.51.334,empathy_intonation_perc,2024.2.4,MacIntel,63.69426752,5c553e0ad3cc6b0001d98fd3,687ed1b7e638a4cbf2f02089,68804430d468caf09f03e5e8,12.4321,82.6339,1,1,10.1154,,,0,0,0,1,1,2,1,The mom asked the daughter if she already went to the supermarket.,./stim/exposure_wavs/dr_stimuli_convo.wav,60,,,,,,,,,,,,,,,,,,,,,,,,,,,,,,,,,,,,,,,,,,,,,,,,,,,,,,,,,,,,,,,,,,,,,,,,,,,,,,,,,,,,,,,,,
,,,,,,,,,5c553e0ad3cc6b0001d98fd3,not sure ,13 or older,click here to respond,no,2025-07-22_22h09.51.334,empathy_intonation_perc,2024.2.4,MacIntel,63.69426752,5c553e0ad3cc6b0001d98fd3,687ed1b7e638a4cbf2f02089,68804430d468caf09f03e5e8,82.6371,134.0321,0,0,4.3546,,,0,1,1,0,1,1,1,The son asked the mom if Aunt Marina is okay.,./stim/exposure_wavs/ga_stimuli_convo.wav,47,,,,,,,,,,,,,,,,,,,,,,,,,,,,,,,,,,,,,,,,,,,,,,,,,,,,,,,,,,,,,,,,,,,,,,,,,,,,,,,,,,,,,,,,,
,,,,,,,,,5c553e0ad3cc6b0001d98fd3,not sure ,13 or older,click here to respond,no,2025-07-22_22h09.51.334,empathy_intonation_perc,2024.2.4,MacIntel,63.69426752,5c553e0ad3cc6b0001d98fd3,687ed1b7e638a4cbf2f02089,68804430d468caf09f03e5e8,134.0335,182.7658,1,0,12.6801,,,0,2,2,2,1,3,0,The mom already has rice.,./stim/exposure_wavs/pr_stimuli_convo.wav,36,,,,,,,,,,,,,,,,,,,,,,,,,,,,,,,,,,,,,,,,,,,,,,,,,,,,,,,,,,,,,,,,,,,,,,,,,,,,,,,,,,,,,,,,,
,,,,,,,"In the following task you are going to hear a series of utterances. 

  You will decide if the utterances sound like questions or not using your keyboard.", (press the spacebar to continue),5c553e0ad3cc6b0001d98fd3,not sure ,13 or older,click here to respond,no,2025-07-22_22h09.51.334,empathy_intonation_perc,2024.2.4,MacIntel,63.69426752,5c553e0ad3cc6b0001d98fd3,687ed1b7e638a4cbf2f02089,68804430d468caf09f03e5e8,,,,,,,,,,,,,,,,,,182.772,188.3835,0,0,0,0,1,,,,,,,,,,,,,,,,,,,,,,,,,,,,,,,,,,,,,,,,,,,,,,,,,,,,,,,,,,,,,,,,,,,,,,,,,,,,,,,,,,
,,,,,,,"If you believe the utterance is a question, type '1' (for 'yes') and if you do not 
  believe it is a question type '0' (for 'no').

  Let's practice a bit...", (press the spacebar to continue),5c553e0ad3cc6b0001d98fd3,not sure ,13 or older,click here to respond,no,2025-07-22_22h09.51.334,empathy_intonation_perc,2024.2.4,MacIntel,63.69426752,5c553e0ad3cc6b0001d98fd3,687ed1b7e638a4cbf2f02089,68804430d468caf09f03e5e8,,,,,,,,,,,,,,,,,,188.3873,194.9002,0,1,1,1,1,,,,,,,,,,,,,,,,,,,,,,,,,,,,,,,,,,,,,,,,,,,,,,,,,,,,,,,,,,,,,,,,,,,,,,,,,,,,,,,,,,
,,,,,,,,,5c553e0ad3cc6b0001d98fd3,not sure ,13 or older,click here to respond,no,2025-07-22_22h09.51.334,empathy_intonation_perc,2024.2.4,MacIntel,63.69426752,5c553e0ad3cc6b0001d98fd3,687ed1b7e638a4cbf2f02089,68804430d468caf09f03e5e8,,,,,,,,,,,,,,1,,./stim/wavs/chilean_question_filler_Mi-padre-cantaba-bien.wav,,,,,,,,,194.913,198.7327,1,1,3.2996,,0,0,0,2,1,,,,,,,,,,,,,,,,,,,,,,,,,,,,,,,,,,,,,,,,,,,,,,,,,,,,,,,,,,,,,,,,,,,,,,,
,,,,,,,,,5c553e0ad3cc6b0001d98fd3,not sure ,13 or older,click here to respond,no,2025-07-22_22h09.51.334,empathy_intonation_perc,2024.2.4,MacIntel,63.69426752,5c553e0ad3cc6b0001d98fd3,687ed1b7e638a4cbf2f02089,68804430d468caf09f03e5e8,,,,,,,,,,,,,,1,,./stim/wavs/mexican_question_filler_Felipe-no-tiene-contrasena.wav,,,,,,,,,198.7334,201.8159,1,1,2.5514,,0,1,1,3,1,,,,,,,,,,,,,,,,,,,,,,,,,,,,,,,,,,,,,,,,,,,,,,,,,,,,,,,,,,,,,,,,,,,,,,,
,,,,,,,,,5c553e0ad3cc6b0001d98fd3,not sure ,13 or older,click here to respond,no,2025-07-22_22h09.51.334,empathy_intonation_perc,2024.2.4,MacIntel,63.69426752,5c553e0ad3cc6b0001d98fd3,687ed1b7e638a4cbf2f02089,68804430d468caf09f03e5e8,,,,,,,,,,,,,,1,,./stim/wavs/argentine_question_filler_Mi-vecino-habla-mucho.wav,,,,,,,,,201.8165,204.4157,1,1,2.0683,,0,2,2,1,1,,,,,,,,,,,,,,,,,,,,,,,,,,,,,,,,,,,,,,,,,,,,,,,,,,,,,,,,,,,,,,,,,,,,,,,
,,,,,,,,,5c553e0ad3cc6b0001d98fd3,not sure ,13 or older,click here to respond,no,2025-07-22_22h09.51.334,empathy_intonation_perc,2024.2.4,MacIntel,63.69426752,5c553e0ad3cc6b0001d98fd3,687ed1b7e638a4cbf2f02089,68804430d468caf09f03e5e8,,,,,,,,,,,,,,0,,./stim/wavs/peruvian_statement_filler_El-nino-habla-con-su-madre.wav,,,,,,,,,204.417,207.2492,0,1,2.3018,,0,3,3,6,1,,,,,,,,,,,,,,,,,,,,,,,,,,,,,,,,,,,,,,,,,,,,,,,,,,,,,,,,,,,,,,,,,,,,,,,
,,,,,,,,,5c553e0ad3cc6b0001d98fd3,not sure ,13 or older,click here to respond,no,2025-07-22_22h09.51.334,empathy_intonation_perc,2024.2.4,MacIntel,63.69426752,5c553e0ad3cc6b0001d98fd3,687ed1b7e638a4cbf2f02089,68804430d468caf09f03e5e8,,,,,,,,,,,,,,0,,./stim/wavs/cuban_statement_filler_Cocinabas-por-la-noche.wav,,,,,,,,,207.2594,210.266,0,1,2.4902,,0,4,4,4,1,,,,,,,,,,,,,,,,,,,,,,,,,,,,,,,,,,,,,,,,,,,,,,,,,,,,,,,,,,,,,,,,,,,,,,,
,,,,,,,,,5c553e0ad3cc6b0001d98fd3,not sure ,13 or older,click here to respond,no,2025-07-22_22h09.51.334,empathy_intonation_perc,2024.2.4,MacIntel,63.69426752,5c553e0ad3cc6b0001d98fd3,687ed1b7e638a4cbf2f02089,68804430d468caf09f03e5e8,,,,,,,,,,,,,,0,,./stim/wavs/andalusian_statement_filler_Alberto-nunca-se-afeita.wav,,,,,,,,,210.2671,212.6507,0,1,1.8536,,0,5,5,5,1,,,,,,,,,,,,,,,,,,,,,,,,,,,,,,,,,,,,,,,,,,,,,,,,,,,,,,,,,,,,,,,,,,,,,,,
,,,,,,,,,5c553e0ad3cc6b0001d98fd3,not sure ,13 or older,click here to respond,no,2025-07-22_22h09.51.334,empathy_intonation_perc,2024.2.4,MacIntel,63.69426752,5c553e0ad3cc6b0001d98fd3,687ed1b7e638a4cbf2f02089,68804430d468caf09f03e5e8,,,,,,,,,,,,,,1,,./stim/wavs/castilian_question_filler_Mi-esposo-conoce-al-chico.wav,,,,,,,,,212.6529,215.4488,1,1,2.2764,,0,6,6,0,1,,,,,,,,,,,,,,,,,,,,,,,,,,,,,,,,,,,,,,,,,,,,,,,,,,,,,,,,,,,,,,,,,,,,,,,
,,,,,,,,,5c553e0ad3cc6b0001d98fd3,not sure ,13 or older,click here to respond,no,2025-07-22_22h09.51.334,empathy_intonation_perc,2024.2.4,MacIntel,63.69426752,5c553e0ad3cc6b0001d98fd3,687ed1b7e638a4cbf2f02089,68804430d468caf09f03e5e8,,,,,,,,,,,,,,0,,./stim/wavs/puertorican_statement_filler_La-nina-pinta-con-su-amiga.wav,,,,,,,,,215.4491,217.7989,0,1,1.825,,0,7,7,7,1,,,,,,,,,,,,,,,,,,,,,,,,,,,,,,,,,,,,,,,,,,,,,,,,,,,,,,,,,,,,,,,,,,,,,,,
,,,,,,,,,5c553e0ad3cc6b0001d98fd3,not sure ,13 or older,click here to respond,no,2025-07-22_22h09.51.334,empathy_intonation_perc,2024.2.4,MacIntel,63.69426752,5c553e0ad3cc6b0001d98fd3,687ed1b7e638a4cbf2f02089,68804430d468caf09f03e5e8,,,,,,,,,,,,,,,,,,,,,,,,,,,,,,,,,,,,217.7992,220.2164,,,,,,,,,,,,,,,,,,,,,,,,,,,,,,,,,,,,,,,,,,,,,,,,,,,,,,,,,,,,,,,,,,,,,
,,,,,,,,,5c553e0ad3cc6b0001d98fd3,not sure ,13 or older,click here to respond,no,2025-07-22_22h09.51.334,empathy_intonation_perc,2024.2.4,MacIntel,63.69426752,5c553e0ad3cc6b0001d98fd3,687ed1b7e638a4cbf2f02089,68804430d468caf09f03e5e8,,,,,,,,,,,,,66,0,,./stim/wavs/puertorican_match_declarative-broad-focus_Emilio-ama-la-marcha.wav,,,,,,,,,,,,,,,,,,,,,,220.2365,222.3494,0,1,1.5918,,0,0,0,65,1,0,puertorican,,,,,,,,,,,,,,,,,,,,,,,,,,,,,,,,,,,,,,,,,,,,,,,,,,,,,,,,
,,,,,,,,,5c553e0ad3cc6b0001d98fd3,not sure ,13 or older,click here to respond,no,2025-07-22_22h09.51.334,empathy_intonation_perc,2024.2.4,MacIntel,63.69426752,5c553e0ad3cc6b0001d98fd3,687ed1b7e638a4cbf2f02089,68804430d468caf09f03e5e8,,,,,,,,,,,,,62,0,,./stim/wavs/mexican_match_declarative-broad-focus_Marta-abre-el-regalo.wav,,,,,,,,,,,,,,,,,,,,,,222.3505,224.349,0,1,1.471,,0,1,1,61,1,0,mexican,,,,,,,,,,,,,,,,,,,,,,,,,,,,,,,,,,,,,,,,,,,,,,,,,,,,,,,,
,,,,,,,,,5c553e0ad3cc6b0001d98fd3,not sure ,13 or older,click here to respond,no,2025-07-22_22h09.51.334,empathy_intonation_perc,2024.2.4,MacIntel,63.69426752,5c553e0ad3cc6b0001d98fd3,687ed1b7e638a4cbf2f02089,68804430d468caf09f03e5e8,,,,,,,,,,,,,74,0,,./stim/wavs/cuban_mismatch_declarative-broad-focus_El-bebe-comia-muy-bien.wav,,,,,,,,,,,,,,,,,,,,,,224.3497,226.2172,0,1,1.3482,,0,2,2,73,1,0,cuban,,,,,,,,,,,,,,,,,,,,,,,,,,,,,,,,,,,,,,,,,,,,,,,,,,,,,,,,
,,,,,,,,,5c553e0ad3cc6b0001d98fd3,not sure ,13 or older,click here to respond,no,2025-07-22_22h09.51.334,empathy_intonation_perc,2024.2.4,MacIntel,63.69426752,5c553e0ad3cc6b0001d98fd3,687ed1b7e638a4cbf2f02089,68804430d468caf09f03e5e8,,,,,,,,,,,,,16,1,,./stim/wavs/mexican_match_interrogative-total-yn_Emilio-ama-la-marcha.wav,,,,,,,,,,,,,,,,,,,,,,226.2179,228.3658,1,1,1.6286,,0,3,3,15,1,0,mexican,,,,,,,,,,,,,,,,,,,,,,,,,,,,,,,,,,,,,,,,,,,,,,,,,,,,,,,,
,,,,,,,,,5c553e0ad3cc6b0001d98fd3,not sure ,13 or older,click here to respond,no,2025-07-22_22h09.51.334,empathy_intonation_perc,2024.2.4,MacIntel,63.69426752,5c553e0ad3cc6b0001d98fd3,687ed1b7e638a4cbf2f02089,68804430d468caf09f03e5e8,,,,,,,,,,,,,54,0,,./stim/wavs/cuban_match_declarative-broad-focus_Maria-bebe-el-vino.wav,,,,,,,,,,,,,,,,,,,,,,228.3667,230.4824,0,1,1.5851,,0,4,4,53,1,0,cuban,,,,,,,,,,,,,,,,,,,,,,,,,,,,,,,,,,,,,,,,,,,,,,,,,,,,,,,,
,,,,,,,,,5c553e0ad3cc6b0001d98fd3,not sure ,13 or older,click here to respond,no,2025-07-22_22h09.51.334,empathy_intonation_perc,2024.2.4,MacIntel,63.69426752,5c553e0ad3cc6b0001d98fd3,687ed1b7e638a4cbf2f02089,68804430d468caf09f03e5e8,,,,,,,,,,,,,7,1,,./stim/wavs/cuban_match_interrogative-total-yn_Ana-lleva-el-abrigo.wav,,,,,,,,,,,,,,,,,,,,,,230.4831,232.7834,1,1,1.7803,,0,5,5,6,1,1,cuban,,,,,,,,,,,,,,,,,,,,,,,,,,,,,,,,,,,,,,,,,,,,,,,,,,,,,,,,
,,,,,,,,,5c553e0ad3cc6b0001d98fd3,not sure ,13 or older,click here to respond,no,2025-07-22_22h09.51.334,empathy_intonation_perc,2024.2.4,MacIntel,63.69426752,5c553e0ad3cc6b0001d98fd3,687ed1b7e638a4cbf2f02089,68804430d468caf09f03e5e8,,,,,,,,,,,,,23,1,,./stim/wavs/puertorican_match_interrogative-total-yn_Manuela-vende-el-carro.wav,,,,,,,,,,,,,,,,,,,,,,232.784,235.1649,0,0,1.8545,,0,6,6,22,1,1,puertorican,,,,,,,,,,,,,,,,,,,,,,,,,,,,,,,,,,,,,,,,,,,,,,,,,,,,,,,,
,,,,,,,,,5c553e0ad3cc6b0001d98fd3,not sure ,13 or older,click here to respond,no,2025-07-22_22h09.51.334,empathy_intonation_perc,2024.2.4,MacIntel,63.69426752,5c553e0ad3cc6b0001d98fd3,687ed1b7e638a4cbf2f02089,68804430d468caf09f03e5e8,,,,,,,,,,,,,71,0,,./stim/wavs/castilian_mismatch_declarative-broad-focus_La-nina-lava-el-plato.wav,,,,,,,,,,,,,,,,,,,,,,235.1657,237.6326,0,1,1.9415,,0,7,7,70,1,0,castilian,,,,,,,,,,,,,,,,,,,,,,,,,,,,,,,,,,,,,,,,,,,,,,,,,,,,,,,,
,,,,,,,,,5c553e0ad3cc6b0001d98fd3,not sure ,13 or older,click here to respond,no,2025-07-22_22h09.51.334,empathy_intonation_perc,2024.2.4,MacIntel,63.69426752,5c553e0ad3cc6b0001d98fd3,687ed1b7e638a4cbf2f02089,68804430d468caf09f03e5e8,,,,,,,,,,,,,85,0,,./stim/wavs/puertorican_mismatch_declarative-broad-focus_El-hombre-mira-la-luna.wav,,,,,,,,,,,,,,,,,,,,,,237.6337,239.7312,0,1,1.5678,,0,8,8,84,1,0,puertorican,,,,,,,,,,,,,,,,,,,,,,,,,,,,,,,,,,,,,,,,,,,,,,,,,,,,,,,,
,,,,,,,,,5c553e0ad3cc6b0001d98fd3,not sure ,13 or older,click here to respond,no,2025-07-22_22h09.51.334,empathy_intonation_perc,2024.2.4,MacIntel,63.69426752,5c553e0ad3cc6b0001d98fd3,687ed1b7e638a4cbf2f02089,68804430d468caf09f03e5e8,,,,,,,,,,,,,1,1,,./stim/wavs/castilian_match_interrogative-total-yn_David-leia-el-libro.wav,,,,,,,,,,,,,,,,,,,,,,239.7316,241.8815,1,1,1.6396,,0,9,9,0,1,0,castilian,,,,,,,,,,,,,,,,,,,,,,,,,,,,,,,,,,,,,,,,,,,,,,,,,,,,,,,,
,,,,,,,,,5c553e0ad3cc6b0001d98fd3,not sure ,13 or older,click here to respond,no,2025-07-22_22h09.51.334,empathy_intonation_perc,2024.2.4,MacIntel,63.69426752,5c553e0ad3cc6b0001d98fd3,687ed1b7e638a4cbf2f02089,68804430d468caf09f03e5e8,,,,,,,,,,,,,49,0,,./stim/wavs/castilian_match_declarative-broad-focus_Mariano-habla-del-tiempo.wav,,,,,,,,,,,,,,,,,,,,,,241.8818,244.2825,0,1,1.8872,,0,10,10,48,1,0,castilian,,,,,,,,,,,,,,,,,,,,,,,,,,,,,,,,,,,,,,,,,,,,,,,,,,,,,,,,
,,,,,,,,,5c553e0ad3cc6b0001d98fd3,not sure ,13 or older,click here to respond,no,2025-07-22_22h09.51.334,empathy_intonation_perc,2024.2.4,MacIntel,63.69426752,5c553e0ad3cc6b0001d98fd3,687ed1b7e638a4cbf2f02089,68804430d468caf09f03e5e8,,,,,,,,,,,,,52,0,,./stim/wavs/cuban_match_declarative-broad-focus_Daniel-iba-a-Bolivia.wav,,,,,,,,,,,,,,,,,,,,,,244.2836,246.6821,0,1,1.8659,,0,11,11,51,1,0,cuban,,,,,,,,,,,,,,,,,,,,,,,,,,,,,,,,,,,,,,,,,,,,,,,,,,,,,,,,
,,,,,,,,,5c553e0ad3cc6b0001d98fd3,not sure ,13 or older,click here to respond,no,2025-07-22_22h09.51.334,empathy_intonation_perc,2024.2.4,MacIntel,63.69426752,5c553e0ad3cc6b0001d98fd3,687ed1b7e638a4cbf2f02089,68804430d468caf09f03e5e8,,,,,,,,,,,,,30,1,,./stim/wavs/cuban_mismatch_interrogative-total-yn_El-hombre-mira-la-luna.wav,,,,,,,,,,,,,,,,,,,,,,246.6826,248.7655,1,1,1.5509,,0,12,12,29,1,1,cuban,,,,,,,,,,,,,,,,,,,,,,,,,,,,,,,,,,,,,,,,,,,,,,,,,,,,,,,,
,,,,,,,,,5c553e0ad3cc6b0001d98fd3,not sure ,13 or older,click here to respond,no,2025-07-22_22h09.51.334,empathy_intonation_perc,2024.2.4,MacIntel,63.69426752,5c553e0ad3cc6b0001d98fd3,687ed1b7e638a4cbf2f02089,68804430d468caf09f03e5e8,,,,,,,,,,,,,26,1,,./stim/wavs/castilian_mismatch_interrogative-total-yn_La-nina-lava-el-plato.wav,,,,,,,,,,,,,,,,,,,,,,248.766,251.1993,1,1,1.9032,,0,13,13,25,1,0,castilian,,,,,,,,,,,,,,,,,,,,,,,,,,,,,,,,,,,,,,,,,,,,,,,,,,,,,,,,
,,,,,,,,,5c553e0ad3cc6b0001d98fd3,not sure ,13 or older,click here to respond,no,2025-07-22_22h09.51.334,empathy_intonation_perc,2024.2.4,MacIntel,63.69426752,5c553e0ad3cc6b0001d98fd3,687ed1b7e638a4cbf2f02089,68804430d468caf09f03e5e8,,,,,,,,,,,,,56,0,,./stim/wavs/cuban_match_declarative-broad-focus_Marta-abre-el-regalo.wav,,,,,,,,,,,,,,,,,,,,,,251.2008,253.3346,0,1,1.6154,,0,14,14,55,1,0,cuban,,,,,,,,,,,,,,,,,,,,,,,,,,,,,,,,,,,,,,,,,,,,,,,,,,,,,,,,
,,,,,,,,,5c553e0ad3cc6b0001d98fd3,not sure ,13 or older,click here to respond,no,2025-07-22_22h09.51.334,empathy_intonation_perc,2024.2.4,MacIntel,63.69426752,5c553e0ad3cc6b0001d98fd3,687ed1b7e638a4cbf2f02089,68804430d468caf09f03e5e8,,,,,,,,,,,,,38,1,,./stim/wavs/mexican_mismatch_interrogative-total-yn_Mi-novio-viene-del-lago.wav,,,,,,,,,,,,,,,,,,,,,,253.3353,255.5663,1,1,1.7122,,0,15,15,37,1,0,mexican,,,,,,,,,,,,,,,,,,,,,,,,,,,,,,,,,,,,,,,,,,,,,,,,,,,,,,,,
,,,,,,,,,5c553e0ad3cc6b0001d98fd3,not sure ,13 or older,click here to respond,no,2025-07-22_22h09.51.334,empathy_intonation_perc,2024.2.4,MacIntel,63.69426752,5c553e0ad3cc6b0001d98fd3,687ed1b7e638a4cbf2f02089,68804430d468caf09f03e5e8,,,,,,,,,,,,,58,0,,./stim/wavs/mexican_match_declarative-broad-focus_Daniel-iba-a-Bolivia.wav,,,,,,,,,,,,,,,,,,,,,,255.5668,257.6646,0,1,1.5749,,0,16,16,57,1,0,mexican,,,,,,,,,,,,,,,,,,,,,,,,,,,,,,,,,,,,,,,,,,,,,,,,,,,,,,,,
,,,,,,,,,5c553e0ad3cc6b0001d98fd3,not sure ,13 or older,click here to respond,no,2025-07-22_22h09.51.334,empathy_intonation_perc,2024.2.4,MacIntel,63.69426752,5c553e0ad3cc6b0001d98fd3,687ed1b7e638a4cbf2f02089,68804430d468caf09f03e5e8,,,,,,,,,,,,,60,0,,./stim/wavs/mexican_match_declarative-broad-focus_Emilio-ama-la-marcha.wav,,,,,,,,,,,,,,,,,,,,,,257.6653,260.0652,0,1,1.8864,,0,17,17,59,1,0,mexican,,,,,,,,,,,,,,,,,,,,,,,,,,,,,,,,,,,,,,,,,,,,,,,,,,,,,,,,
,,,,,,,,,5c553e0ad3cc6b0001d98fd3,not sure ,13 or older,click here to respond,no,2025-07-22_22h09.51.334,empathy_intonation_perc,2024.2.4,MacIntel,63.69426752,5c553e0ad3cc6b0001d98fd3,687ed1b7e638a4cbf2f02089,68804430d468caf09f03e5e8,,,,,,,,,,,,,72,0,,./stim/wavs/castilian_mismatch_declarative-broad-focus_Mi-novio-viene-del-lago.wav,,,,,,,,,,,,,,,,,,,,,,260.066,262.4323,0,1,1.8355,,0,18,18,71,1,0,castilian,,,,,,,,,,,,,,,,,,,,,,,,,,,,,,,,,,,,,,,,,,,,,,,,,,,,,,,,
,,,,,,,,,5c553e0ad3cc6b0001d98fd3,not sure ,13 or older,click here to respond,no,2025-07-22_22h09.51.334,empathy_intonation_perc,2024.2.4,MacIntel,63.69426752,5c553e0ad3cc6b0001d98fd3,687ed1b7e638a4cbf2f02089,68804430d468caf09f03e5e8,,,,,,,,,,,,,6,1,,./stim/wavs/castilian_match_interrogative-total-yn_Marta-abre-el-regalo.wav,,,,,,,,,,,,,,,,,,,,,,262.433,264.682,1,1,1.7277,,0,19,19,5,1,0,castilian,,,,,,,,,,,,,,,,,,,,,,,,,,,,,,,,,,,,,,,,,,,,,,,,,,,,,,,,
,,,,,,,,,5c553e0ad3cc6b0001d98fd3,not sure ,13 or older,click here to respond,no,2025-07-22_22h09.51.334,empathy_intonation_perc,2024.2.4,MacIntel,63.69426752,5c553e0ad3cc6b0001d98fd3,687ed1b7e638a4cbf2f02089,68804430d468caf09f03e5e8,,,,,,,,,,,,,33,1,,./stim/wavs/cuban_mismatch_interrogative-total-yn_Mi-novio-viene-del-lago.wav,,,,,,,,,,,,,,,,,,,,,,264.6828,266.9652,0,0,1.7492,,0,20,20,32,1,1,cuban,,,,,,,,,,,,,,,,,,,,,,,,,,,,,,,,,,,,,,,,,,,,,,,,,,,,,,,,
,,,,,,,,,5c553e0ad3cc6b0001d98fd3,not sure ,13 or older,click here to respond,no,2025-07-22_22h09.51.334,empathy_intonation_perc,2024.2.4,MacIntel,63.69426752,5c553e0ad3cc6b0001d98fd3,687ed1b7e638a4cbf2f02089,68804430d468caf09f03e5e8,,,,,,,,,,,,,25,1,,./stim/wavs/castilian_mismatch_interrogative-total-yn_La-maestra-vive-en-Paris.wav,,,,,,,,,,,,,,,,,,,,,,266.9661,269.5148,1,1,2.0162,,0,21,21,24,1,0,castilian,,,,,,,,,,,,,,,,,,,,,,,,,,,,,,,,,,,,,,,,,,,,,,,,,,,,,,,,
,,,,,,,,,5c553e0ad3cc6b0001d98fd3,not sure ,13 or older,click here to respond,no,2025-07-22_22h09.51.334,empathy_intonation_perc,2024.2.4,MacIntel,63.69426752,5c553e0ad3cc6b0001d98fd3,687ed1b7e638a4cbf2f02089,68804430d468caf09f03e5e8,,,,,,,,,,,,,17,1,,./stim/wavs/mexican_match_interrogative-total-yn_Mariano-habla-del-tiempo.wav,,,,,,,,,,,,,,,,,,,,,,269.5153,271.7821,1,1,1.7513,,0,22,22,16,1,0,mexican,,,,,,,,,,,,,,,,,,,,,,,,,,,,,,,,,,,,,,,,,,,,,,,,,,,,,,,,
,,,,,,,,,5c553e0ad3cc6b0001d98fd3,not sure ,13 or older,click here to respond,no,2025-07-22_22h09.51.334,empathy_intonation_perc,2024.2.4,MacIntel,63.69426752,5c553e0ad3cc6b0001d98fd3,687ed1b7e638a4cbf2f02089,68804430d468caf09f03e5e8,,,,,,,,,,,,,63,0,,./stim/wavs/puertorican_match_declarative-broad-focus_Ana-lleva-el-abrigo.wav,,,,,,,,,,,,,,,,,,,,,,271.7829,273.8991,0,1,1.5901,,0,23,23,62,1,0,puertorican,,,,,,,,,,,,,,,,,,,,,,,,,,,,,,,,,,,,,,,,,,,,,,,,,,,,,,,,
,,,,,,,,,5c553e0ad3cc6b0001d98fd3,not sure ,13 or older,click here to respond,no,2025-07-22_22h09.51.334,empathy_intonation_perc,2024.2.4,MacIntel,63.69426752,5c553e0ad3cc6b0001d98fd3,687ed1b7e638a4cbf2f02089,68804430d468caf09f03e5e8,,,,,,,,,,,,,53,0,,./stim/wavs/cuban_match_declarative-broad-focus_Manuela-vende-el-carro.wav,,,,,,,,,,,,,,,,,,,,,,273.9004,276.1821,0,1,1.7508,,0,24,24,52,1,0,cuban,,,,,,,,,,,,,,,,,,,,,,,,,,,,,,,,,,,,,,,,,,,,,,,,,,,,,,,,
,,,,,,,,,5c553e0ad3cc6b0001d98fd3,not sure ,13 or older,click here to respond,no,2025-07-22_22h09.51.334,empathy_intonation_perc,2024.2.4,MacIntel,63.69426752,5c553e0ad3cc6b0001d98fd3,687ed1b7e638a4cbf2f02089,68804430d468caf09f03e5e8,,,,,,,,,,,,,31,1,,./stim/wavs/cuban_mismatch_interrogative-total-yn_El-nino-oye-el-rio.wav,,,,,,,,,,,,,,,,,,,,,,276.1826,278.1489,1,1,1.4403,,0,25,25,30,1,1,cuban,,,,,,,,,,,,,,,,,,,,,,,,,,,,,,,,,,,,,,,,,,,,,,,,,,,,,,,,
,,,,,,,,,5c553e0ad3cc6b0001d98fd3,not sure ,13 or older,click here to respond,no,2025-07-22_22h09.51.334,empathy_intonation_perc,2024.2.4,MacIntel,63.69426752,5c553e0ad3cc6b0001d98fd3,687ed1b7e638a4cbf2f02089,68804430d468caf09f03e5e8,,,,,,,,,,,,,77,0,,./stim/wavs/cuban_mismatch_declarative-broad-focus_Mi-novio-viene-del-lago.wav,,,,,,,,,,,,,,,,,,,,,,278.1498,280.2982,0,1,1.6236,,0,26,26,76,1,0,cuban,,,,,,,,,,,,,,,,,,,,,,,,,,,,,,,,,,,,,,,,,,,,,,,,,,,,,,,,
,,,,,,,,,5c553e0ad3cc6b0001d98fd3,not sure ,13 or older,click here to respond,no,2025-07-22_22h09.51.334,empathy_intonation_perc,2024.2.4,MacIntel,63.69426752,5c553e0ad3cc6b0001d98fd3,687ed1b7e638a4cbf2f02089,68804430d468caf09f03e5e8,,,,,,,,,,,,,24,1,,./stim/wavs/puertorican_match_interrogative-total-yn_Maria-bebe-el-vino.wav,,,,,,,,,,,,,,,,,,,,,,280.2988,282.3485,1,1,1.5182,,0,27,27,23,1,1,puertorican,,,,,,,,,,,,,,,,,,,,,,,,,,,,,,,,,,,,,,,,,,,,,,,,,,,,,,,,
,,,,,,,,,5c553e0ad3cc6b0001d98fd3,not sure ,13 or older,click here to respond,no,2025-07-22_22h09.51.334,empathy_intonation_perc,2024.2.4,MacIntel,63.69426752,5c553e0ad3cc6b0001d98fd3,687ed1b7e638a4cbf2f02089,68804430d468caf09f03e5e8,,,,,,,,,,,,,83,0,,./stim/wavs/mexican_mismatch_declarative-broad-focus_Mi-tia-odia-la-lluvia.wav,,,,,,,,,,,,,,,,,,,,,,282.3494,284.3655,0,1,1.4827,,0,28,28,82,1,0,mexican,,,,,,,,,,,,,,,,,,,,,,,,,,,,,,,,,,,,,,,,,,,,,,,,,,,,,,,,
,,,,,,,,,5c553e0ad3cc6b0001d98fd3,not sure ,13 or older,click here to respond,no,2025-07-22_22h09.51.334,empathy_intonation_perc,2024.2.4,MacIntel,63.69426752,5c553e0ad3cc6b0001d98fd3,687ed1b7e638a4cbf2f02089,68804430d468caf09f03e5e8,,,,,,,,,,,,,22,1,,./stim/wavs/puertorican_match_interrogative-total-yn_Emilio-ama-la-marcha.wav,,,,,,,,,,,,,,,,,,,,,,284.3667,286.4989,0,0,1.6041,,0,29,29,21,1,1,puertorican,,,,,,,,,,,,,,,,,,,,,,,,,,,,,,,,,,,,,,,,,,,,,,,,,,,,,,,,
,,,,,,,,,5c553e0ad3cc6b0001d98fd3,not sure ,13 or older,click here to respond,no,2025-07-22_22h09.51.334,empathy_intonation_perc,2024.2.4,MacIntel,63.69426752,5c553e0ad3cc6b0001d98fd3,687ed1b7e638a4cbf2f02089,68804430d468caf09f03e5e8,,,,,,,,,,,,,20,1,,./stim/wavs/puertorican_match_interrogative-total-yn_Daniel-iba-a-Bolivia.wav,,,,,,,,,,,,,,,,,,,,,,286.4997,289.1823,1,1,2.1533,,0,30,30,19,1,1,puertorican,,,,,,,,,,,,,,,,,,,,,,,,,,,,,,,,,,,,,,,,,,,,,,,,,,,,,,,,
,,,,,,,,,5c553e0ad3cc6b0001d98fd3,not sure ,13 or older,click here to respond,no,2025-07-22_22h09.51.334,empathy_intonation_perc,2024.2.4,MacIntel,63.69426752,5c553e0ad3cc6b0001d98fd3,687ed1b7e638a4cbf2f02089,68804430d468caf09f03e5e8,,,,,,,,,,,,,32,1,,./stim/wavs/cuban_mismatch_interrogative-total-yn_Mi-madre-come-la-fruta.wav,,,,,,,,,,,,,,,,,,,,,,289.1839,291.6654,1,1,1.9518,,0,31,31,31,1,1,cuban,,,,,,,,,,,,,,,,,,,,,,,,,,,,,,,,,,,,,,,,,,,,,,,,,,,,,,,,
,,,,,,,,,5c553e0ad3cc6b0001d98fd3,not sure ,13 or older,click here to respond,no,2025-07-22_22h09.51.334,empathy_intonation_perc,2024.2.4,MacIntel,63.69426752,5c553e0ad3cc6b0001d98fd3,687ed1b7e638a4cbf2f02089,68804430d468caf09f03e5e8,,,,,,,,,,,,,43,1,,./stim/wavs/puertorican_mismatch_interrogative-total-yn_La-nina-lava-el-plato.wav,,,,,,,,,,,,,,,,,,,,,,291.6658,296.5987,0,0,4.4086,,0,32,32,42,1,1,puertorican,,,,,,,,,,,,,,,,,,,,,,,,,,,,,,,,,,,,,,,,,,,,,,,,,,,,,,,,
,,,,,,,,,5c553e0ad3cc6b0001d98fd3,not sure ,13 or older,click here to respond,no,2025-07-22_22h09.51.334,empathy_intonation_perc,2024.2.4,MacIntel,63.69426752,5c553e0ad3cc6b0001d98fd3,687ed1b7e638a4cbf2f02089,68804430d468caf09f03e5e8,,,,,,,,,,,,,80,0,,./stim/wavs/mexican_mismatch_declarative-broad-focus_El-hombre-mira-la-luna.wav,,,,,,,,,,,,,,,,,,,,,,296.5995,298.8154,0,1,1.6849,,0,33,33,79,1,0,mexican,,,,,,,,,,,,,,,,,,,,,,,,,,,,,,,,,,,,,,,,,,,,,,,,,,,,,,,,
,,,,,,,,,5c553e0ad3cc6b0001d98fd3,not sure ,13 or older,click here to respond,no,2025-07-22_22h09.51.334,empathy_intonation_perc,2024.2.4,MacIntel,63.69426752,5c553e0ad3cc6b0001d98fd3,687ed1b7e638a4cbf2f02089,68804430d468caf09f03e5e8,,,,,,,,,,,,,11,1,,./stim/wavs/cuban_match_interrogative-total-yn_Mariano-habla-del-tiempo.wav,,,,,,,,,,,,,,,,,,,,,,298.816,300.9811,0,0,1.6348,,0,34,34,10,1,1,cuban,,,,,,,,,,,,,,,,,,,,,,,,,,,,,,,,,,,,,,,,,,,,,,,,,,,,,,,,
,,,,,,,,,5c553e0ad3cc6b0001d98fd3,not sure ,13 or older,click here to respond,no,2025-07-22_22h09.51.334,empathy_intonation_perc,2024.2.4,MacIntel,63.69426752,5c553e0ad3cc6b0001d98fd3,687ed1b7e638a4cbf2f02089,68804430d468caf09f03e5e8,,,,,,,,,,,,,2,1,,./stim/wavs/castilian_match_interrogative-total-yn_Emilio-ama-la-marcha.wav,,,,,,,,,,,,,,,,,,,,,,300.9817,303.2013,1,1,1.7135,,0,35,35,1,1,0,castilian,,,,,,,,,,,,,,,,,,,,,,,,,,,,,,,,,,,,,,,,,,,,,,,,,,,,,,,,
,,,,,,,,,5c553e0ad3cc6b0001d98fd3,not sure ,13 or older,click here to respond,no,2025-07-22_22h09.51.334,empathy_intonation_perc,2024.2.4,MacIntel,63.69426752,5c553e0ad3cc6b0001d98fd3,687ed1b7e638a4cbf2f02089,68804430d468caf09f03e5e8,,,,,,,,,,,,,14,1,,./stim/wavs/mexican_match_interrogative-total-yn_Daniel-iba-a-Bolivia.wav,,,,,,,,,,,,,,,,,,,,,,303.202,305.4985,1,1,1.7717,,0,36,36,13,1,0,mexican,,,,,,,,,,,,,,,,,,,,,,,,,,,,,,,,,,,,,,,,,,,,,,,,,,,,,,,,
,,,,,,,,,5c553e0ad3cc6b0001d98fd3,not sure ,13 or older,click here to respond,no,2025-07-22_22h09.51.334,empathy_intonation_perc,2024.2.4,MacIntel,63.69426752,5c553e0ad3cc6b0001d98fd3,687ed1b7e638a4cbf2f02089,68804430d468caf09f03e5e8,,,,,,,,,,,,,15,1,,./stim/wavs/mexican_match_interrogative-total-yn_David-leia-el-libro.wav,,,,,,,,,,,,,,,,,,,,,,305.4991,307.5653,1,1,1.5346,,0,37,37,14,1,0,mexican,,,,,,,,,,,,,,,,,,,,,,,,,,,,,,,,,,,,,,,,,,,,,,,,,,,,,,,,
,,,,,,,,,5c553e0ad3cc6b0001d98fd3,not sure ,13 or older,click here to respond,no,2025-07-22_22h09.51.334,empathy_intonation_perc,2024.2.4,MacIntel,63.69426752,5c553e0ad3cc6b0001d98fd3,687ed1b7e638a4cbf2f02089,68804430d468caf09f03e5e8,,,,,,,,,,,,,42,1,,./stim/wavs/puertorican_mismatch_interrogative-total-yn_La-maestra-vive-en-Paris.wav,,,,,,,,,,,,,,,,,,,,,,307.566,310.0823,0,0,1.9872,,0,38,38,41,1,1,puertorican,,,,,,,,,,,,,,,,,,,,,,,,,,,,,,,,,,,,,,,,,,,,,,,,,,,,,,,,
,,,,,,,,,5c553e0ad3cc6b0001d98fd3,not sure ,13 or older,click here to respond,no,2025-07-22_22h09.51.334,empathy_intonation_perc,2024.2.4,MacIntel,63.69426752,5c553e0ad3cc6b0001d98fd3,687ed1b7e638a4cbf2f02089,68804430d468caf09f03e5e8,,,,,,,,,,,,,40,1,,./stim/wavs/puertorican_mismatch_interrogative-total-yn_El-hombre-mira-la-luna.wav,,,,,,,,,,,,,,,,,,,,,,310.0835,312.1524,1,1,1.5487,,0,39,39,39,1,1,puertorican,,,,,,,,,,,,,,,,,,,,,,,,,,,,,,,,,,,,,,,,,,,,,,,,,,,,,,,,
,,,,,,,,,5c553e0ad3cc6b0001d98fd3,not sure ,13 or older,click here to respond,no,2025-07-22_22h09.51.334,empathy_intonation_perc,2024.2.4,MacIntel,63.69426752,5c553e0ad3cc6b0001d98fd3,687ed1b7e638a4cbf2f02089,68804430d468caf09f03e5e8,,,,,,,,,,,,,55,0,,./stim/wavs/cuban_match_declarative-broad-focus_Mariano-habla-del-tiempo.wav,,,,,,,,,,,,,,,,,,,,,,312.1531,314.282,0,1,1.6031,,0,40,40,54,1,0,cuban,,,,,,,,,,,,,,,,,,,,,,,,,,,,,,,,,,,,,,,,,,,,,,,,,,,,,,,,
,,,,,,,,,5c553e0ad3cc6b0001d98fd3,not sure ,13 or older,click here to respond,no,2025-07-22_22h09.51.334,empathy_intonation_perc,2024.2.4,MacIntel,63.69426752,5c553e0ad3cc6b0001d98fd3,687ed1b7e638a4cbf2f02089,68804430d468caf09f03e5e8,,,,,,,,,,,,,9,1,,./stim/wavs/cuban_match_interrogative-total-yn_Manuela-vende-el-carro.wav,,,,,,,,,,,,,,,,,,,,,,314.2826,316.2985,0,0,1.4871,,0,41,41,8,1,1,cuban,,,,,,,,,,,,,,,,,,,,,,,,,,,,,,,,,,,,,,,,,,,,,,,,,,,,,,,,
,,,,,,,,,5c553e0ad3cc6b0001d98fd3,not sure ,13 or older,click here to respond,no,2025-07-22_22h09.51.334,empathy_intonation_perc,2024.2.4,MacIntel,63.69426752,5c553e0ad3cc6b0001d98fd3,687ed1b7e638a4cbf2f02089,68804430d468caf09f03e5e8,,,,,,,,,,,,,82,0,,./stim/wavs/mexican_mismatch_declarative-broad-focus_Mi-novio-viene-del-lago.wav,,,,,,,,,,,,,,,,,,,,,,316.2993,320.5485,0,1,3.7206,,0,42,42,81,1,0,mexican,,,,,,,,,,,,,,,,,,,,,,,,,,,,,,,,,,,,,,,,,,,,,,,,,,,,,,,,
,,,,,,,,,5c553e0ad3cc6b0001d98fd3,not sure ,13 or older,click here to respond,no,2025-07-22_22h09.51.334,empathy_intonation_perc,2024.2.4,MacIntel,63.69426752,5c553e0ad3cc6b0001d98fd3,687ed1b7e638a4cbf2f02089,68804430d468caf09f03e5e8,,,,,,,,,,,,,27,1,,./stim/wavs/castilian_mismatch_interrogative-total-yn_Mi-madre-come-la-fruta.wav,,,,,,,,,,,,,,,,,,,,,,320.549,322.8314,1,1,1.7509,,0,43,43,26,1,0,castilian,,,,,,,,,,,,,,,,,,,,,,,,,,,,,,,,,,,,,,,,,,,,,,,,,,,,,,,,
,,,,,,,,,5c553e0ad3cc6b0001d98fd3,not sure ,13 or older,click here to respond,no,2025-07-22_22h09.51.334,empathy_intonation_perc,2024.2.4,MacIntel,63.69426752,5c553e0ad3cc6b0001d98fd3,687ed1b7e638a4cbf2f02089,68804430d468caf09f03e5e8,,,,,,,,,,,,,4,1,,./stim/wavs/castilian_match_interrogative-total-yn_Maria-bebe-el-vino.wav,,,,,,,,,,,,,,,,,,,,,,322.832,324.832,1,1,1.4846,,0,44,44,3,1,0,castilian,,,,,,,,,,,,,,,,,,,,,,,,,,,,,,,,,,,,,,,,,,,,,,,,,,,,,,,,
,,,,,,,,,5c553e0ad3cc6b0001d98fd3,not sure ,13 or older,click here to respond,no,2025-07-22_22h09.51.334,empathy_intonation_perc,2024.2.4,MacIntel,63.69426752,5c553e0ad3cc6b0001d98fd3,687ed1b7e638a4cbf2f02089,68804430d468caf09f03e5e8,,,,,,,,,,,,,37,1,,./stim/wavs/mexican_mismatch_interrogative-total-yn_La-maestra-vive-en-Paris.wav,,,,,,,,,,,,,,,,,,,,,,324.8326,327.0504,1,1,1.6962,,0,45,45,36,1,0,mexican,,,,,,,,,,,,,,,,,,,,,,,,,,,,,,,,,,,,,,,,,,,,,,,,,,,,,,,,
,,,,,,,,,5c553e0ad3cc6b0001d98fd3,not sure ,13 or older,click here to respond,no,2025-07-22_22h09.51.334,empathy_intonation_perc,2024.2.4,MacIntel,63.69426752,5c553e0ad3cc6b0001d98fd3,687ed1b7e638a4cbf2f02089,68804430d468caf09f03e5e8,,,,,,,,,,,,,12,1,,./stim/wavs/cuban_match_interrogative-total-yn_Marta-abre-el-regalo.wav,,,,,,,,,,,,,,,,,,,,,,327.0515,329.1487,0,0,1.5705,,0,46,46,11,1,1,cuban,,,,,,,,,,,,,,,,,,,,,,,,,,,,,,,,,,,,,,,,,,,,,,,,,,,,,,,,
,,,,,,,,,5c553e0ad3cc6b0001d98fd3,not sure ,13 or older,click here to respond,no,2025-07-22_22h09.51.334,empathy_intonation_perc,2024.2.4,MacIntel,63.69426752,5c553e0ad3cc6b0001d98fd3,687ed1b7e638a4cbf2f02089,68804430d468caf09f03e5e8,,,,,,,,,,,,,35,1,,./stim/wavs/mexican_mismatch_interrogative-total-yn_El-hombre-mira-la-luna.wav,,,,,,,,,,,,,,,,,,,,,,329.1493,331.082,1,1,1.4166,,0,47,47,34,1,0,mexican,,,,,,,,,,,,,,,,,,,,,,,,,,,,,,,,,,,,,,,,,,,,,,,,,,,,,,,,
,,,,,,,,,5c553e0ad3cc6b0001d98fd3,not sure ,13 or older,click here to respond,no,2025-07-22_22h09.51.334,empathy_intonation_perc,2024.2.4,MacIntel,63.69426752,5c553e0ad3cc6b0001d98fd3,687ed1b7e638a4cbf2f02089,68804430d468caf09f03e5e8,,,,,,,,,,,,,18,1,,./stim/wavs/mexican_match_interrogative-total-yn_Marta-abre-el-regalo.wav,,,,,,,,,,,,,,,,,,,,,,331.0828,333.1019,1,1,1.4979,,0,48,48,17,1,0,mexican,,,,,,,,,,,,,,,,,,,,,,,,,,,,,,,,,,,,,,,,,,,,,,,,,,,,,,,,
,,,,,,,,,5c553e0ad3cc6b0001d98fd3,not sure ,13 or older,click here to respond,no,2025-07-22_22h09.51.334,empathy_intonation_perc,2024.2.4,MacIntel,63.69426752,5c553e0ad3cc6b0001d98fd3,687ed1b7e638a4cbf2f02089,68804430d468caf09f03e5e8,,,,,,,,,,,,,28,1,,./stim/wavs/castilian_mismatch_interrogative-total-yn_Mi-novio-viene-del-lago.wav,,,,,,,,,,,,,,,,,,,,,,333.103,335.3682,1,1,1.7482,,0,49,49,27,1,0,castilian,,,,,,,,,,,,,,,,,,,,,,,,,,,,,,,,,,,,,,,,,,,,,,,,,,,,,,,,
,,,,,,,,,5c553e0ad3cc6b0001d98fd3,not sure ,13 or older,click here to respond,no,2025-07-22_22h09.51.334,empathy_intonation_perc,2024.2.4,MacIntel,63.69426752,5c553e0ad3cc6b0001d98fd3,687ed1b7e638a4cbf2f02089,68804430d468caf09f03e5e8,,,,,,,,,,,,,46,0,,./stim/wavs/castilian_match_declarative-broad-focus_Emilio-ama-la-marcha.wav,,,,,,,,,,,,,,,,,,,,,,335.3687,337.5988,0,1,1.7085,,0,50,50,45,1,0,castilian,,,,,,,,,,,,,,,,,,,,,,,,,,,,,,,,,,,,,,,,,,,,,,,,,,,,,,,,
,,,,,,,,,5c553e0ad3cc6b0001d98fd3,not sure ,13 or older,click here to respond,no,2025-07-22_22h09.51.334,empathy_intonation_perc,2024.2.4,MacIntel,63.69426752,5c553e0ad3cc6b0001d98fd3,687ed1b7e638a4cbf2f02089,68804430d468caf09f03e5e8,,,,,,,,,,,,,48,0,,./stim/wavs/castilian_match_declarative-broad-focus_Maria-bebe-el-vino.wav,,,,,,,,,,,,,,,,,,,,,,337.5997,339.7819,0,1,1.6502,,0,51,51,47,1,0,castilian,,,,,,,,,,,,,,,,,,,,,,,,,,,,,,,,,,,,,,,,,,,,,,,,,,,,,,,,
,,,,,,,,,5c553e0ad3cc6b0001d98fd3,not sure ,13 or older,click here to respond,no,2025-07-22_22h09.51.334,empathy_intonation_perc,2024.2.4,MacIntel,63.69426752,5c553e0ad3cc6b0001d98fd3,687ed1b7e638a4cbf2f02089,68804430d468caf09f03e5e8,,,,,,,,,,,,,44,1,,./stim/wavs/puertorican_mismatch_interrogative-total-yn_Mi-madre-come-la-fruta.wav,,,,,,,,,,,,,,,,,,,,,,339.7826,341.9653,0,0,1.6526,,0,52,52,43,1,1,puertorican,,,,,,,,,,,,,,,,,,,,,,,,,,,,,,,,,,,,,,,,,,,,,,,,,,,,,,,,
,,,,,,,,,5c553e0ad3cc6b0001d98fd3,not sure ,13 or older,click here to respond,no,2025-07-22_22h09.51.334,empathy_intonation_perc,2024.2.4,MacIntel,63.69426752,5c553e0ad3cc6b0001d98fd3,687ed1b7e638a4cbf2f02089,68804430d468caf09f03e5e8,,,,,,,,,,,,,41,1,,./stim/wavs/puertorican_mismatch_interrogative-total-yn_El-nino-oye-el-rio.wav,,,,,,,,,,,,,,,,,,,,,,341.966,344.3821,0,0,1.8854,,0,53,53,40,1,1,puertorican,,,,,,,,,,,,,,,,,,,,,,,,,,,,,,,,,,,,,,,,,,,,,,,,,,,,,,,,
,,,,,,,,,5c553e0ad3cc6b0001d98fd3,not sure ,13 or older,click here to respond,no,2025-07-22_22h09.51.334,empathy_intonation_perc,2024.2.4,MacIntel,63.69426752,5c553e0ad3cc6b0001d98fd3,687ed1b7e638a4cbf2f02089,68804430d468caf09f03e5e8,,,,,,,,,,,,,8,1,,./stim/wavs/cuban_match_interrogative-total-yn_Daniel-iba-a-Bolivia.wav,,,,,,,,,,,,,,,,,,,,,,344.3828,346.8669,1,1,1.963,,0,54,54,7,1,1,cuban,,,,,,,,,,,,,,,,,,,,,,,,,,,,,,,,,,,,,,,,,,,,,,,,,,,,,,,,
,,,,,,,,,5c553e0ad3cc6b0001d98fd3,not sure ,13 or older,click here to respond,no,2025-07-22_22h09.51.334,empathy_intonation_perc,2024.2.4,MacIntel,63.69426752,5c553e0ad3cc6b0001d98fd3,687ed1b7e638a4cbf2f02089,68804430d468caf09f03e5e8,,,,,,,,,,,,,65,0,,./stim/wavs/puertorican_match_declarative-broad-focus_David-leia-el-libro.wav,,,,,,,,,,,,,,,,,,,,,,346.8672,348.8488,0,1,1.4518,,0,55,55,64,1,0,puertorican,,,,,,,,,,,,,,,,,,,,,,,,,,,,,,,,,,,,,,,,,,,,,,,,,,,,,,,,
,,,,,,,,,5c553e0ad3cc6b0001d98fd3,not sure ,13 or older,click here to respond,no,2025-07-22_22h09.51.334,empathy_intonation_perc,2024.2.4,MacIntel,63.69426752,5c553e0ad3cc6b0001d98fd3,687ed1b7e638a4cbf2f02089,68804430d468caf09f03e5e8,,,,,,,,,,,,,39,1,,./stim/wavs/mexican_mismatch_interrogative-total-yn_Mi-tia-odia-la-lluvia.wav,,,,,,,,,,,,,,,,,,,,,,348.8499,350.9988,1,1,1.6289,,0,56,56,38,1,0,mexican,,,,,,,,,,,,,,,,,,,,,,,,,,,,,,,,,,,,,,,,,,,,,,,,,,,,,,,,
,,,,,,,,,5c553e0ad3cc6b0001d98fd3,not sure ,13 or older,click here to respond,no,2025-07-22_22h09.51.334,empathy_intonation_perc,2024.2.4,MacIntel,63.69426752,5c553e0ad3cc6b0001d98fd3,687ed1b7e638a4cbf2f02089,68804430d468caf09f03e5e8,,,,,,,,,,,,,84,0,,./stim/wavs/puertorican_mismatch_declarative-broad-focus_El-bebe-comia-muy-bien.wav,,,,,,,,,,,,,,,,,,,,,,350.9994,353.0651,0,1,1.5307,,0,57,57,83,1,0,puertorican,,,,,,,,,,,,,,,,,,,,,,,,,,,,,,,,,,,,,,,,,,,,,,,,,,,,,,,,
,,,,,,,,,5c553e0ad3cc6b0001d98fd3,not sure ,13 or older,click here to respond,no,2025-07-22_22h09.51.334,empathy_intonation_perc,2024.2.4,MacIntel,63.69426752,5c553e0ad3cc6b0001d98fd3,687ed1b7e638a4cbf2f02089,68804430d468caf09f03e5e8,,,,,,,,,,,,,81,0,,./stim/wavs/mexican_mismatch_declarative-broad-focus_La-maestra-vive-en-Paris.wav,,,,,,,,,,,,,,,,,,,,,,353.0657,355.382,0,1,1.7855,,0,58,58,80,1,0,mexican,,,,,,,,,,,,,,,,,,,,,,,,,,,,,,,,,,,,,,,,,,,,,,,,,,,,,,,,
,,,,,,,,,5c553e0ad3cc6b0001d98fd3,not sure ,13 or older,click here to respond,no,2025-07-22_22h09.51.334,empathy_intonation_perc,2024.2.4,MacIntel,63.69426752,5c553e0ad3cc6b0001d98fd3,687ed1b7e638a4cbf2f02089,68804430d468caf09f03e5e8,,,,,,,,,,,,,34,1,,./stim/wavs/cuban_mismatch_interrogative-total-yn_Mi-tia-odia-la-lluvia.wav,,,,,,,,,,,,,,,,,,,,,,355.3833,358.3153,1,1,2.4071,,0,59,59,33,1,1,cuban,,,,,,,,,,,,,,,,,,,,,,,,,,,,,,,,,,,,,,,,,,,,,,,,,,,,,,,,
,,,,,,,,,5c553e0ad3cc6b0001d98fd3,not sure ,13 or older,click here to respond,no,2025-07-22_22h09.51.334,empathy_intonation_perc,2024.2.4,MacIntel,63.69426752,5c553e0ad3cc6b0001d98fd3,687ed1b7e638a4cbf2f02089,68804430d468caf09f03e5e8,,,,,,,,,,,,,13,1,,./stim/wavs/mexican_match_interrogative-total-yn_Ana-lleva-el-abrigo.wav,,,,,,,,,,,,,,,,,,,,,,358.316,360.6493,1,1,1.8122,,0,60,60,12,1,0,mexican,,,,,,,,,,,,,,,,,,,,,,,,,,,,,,,,,,,,,,,,,,,,,,,,,,,,,,,,
,,,,,,,,,5c553e0ad3cc6b0001d98fd3,not sure ,13 or older,click here to respond,no,2025-07-22_22h09.51.334,empathy_intonation_perc,2024.2.4,MacIntel,63.69426752,5c553e0ad3cc6b0001d98fd3,687ed1b7e638a4cbf2f02089,68804430d468caf09f03e5e8,,,,,,,,,,,,,87,0,,./stim/wavs/puertorican_mismatch_declarative-broad-focus_La-maestra-vive-en-Paris.wav,,,,,,,,,,,,,,,,,,,,,,360.6495,362.816,0,1,1.6351,,0,61,61,86,1,0,puertorican,,,,,,,,,,,,,,,,,,,,,,,,,,,,,,,,,,,,,,,,,,,,,,,,,,,,,,,,
,,,,,,,,,5c553e0ad3cc6b0001d98fd3,not sure ,13 or older,click here to respond,no,2025-07-22_22h09.51.334,empathy_intonation_perc,2024.2.4,MacIntel,63.69426752,5c553e0ad3cc6b0001d98fd3,687ed1b7e638a4cbf2f02089,68804430d468caf09f03e5e8,,,,,,,,,,,,,57,0,,./stim/wavs/mexican_match_declarative-broad-focus_Ana-lleva-el-abrigo.wav,,,,,,,,,,,,,,,,,,,,,,362.8166,364.5819,0,1,1.2368,,0,62,62,56,1,0,mexican,,,,,,,,,,,,,,,,,,,,,,,,,,,,,,,,,,,,,,,,,,,,,,,,,,,,,,,,
,,,,,,,,,5c553e0ad3cc6b0001d98fd3,not sure ,13 or older,click here to respond,no,2025-07-22_22h09.51.334,empathy_intonation_perc,2024.2.4,MacIntel,63.69426752,5c553e0ad3cc6b0001d98fd3,687ed1b7e638a4cbf2f02089,68804430d468caf09f03e5e8,,,,,,,,,,,,,51,0,,./stim/wavs/cuban_match_declarative-broad-focus_Ana-lleva-el-abrigo.wav,,,,,,,,,,,,,,,,,,,,,,364.5825,366.6319,0,1,1.5183,,0,63,63,50,1,0,cuban,,,,,,,,,,,,,,,,,,,,,,,,,,,,,,,,,,,,,,,,,,,,,,,,,,,,,,,,
,,,,,,,,,5c553e0ad3cc6b0001d98fd3,not sure ,13 or older,click here to respond,no,2025-07-22_22h09.51.334,empathy_intonation_perc,2024.2.4,MacIntel,63.69426752,5c553e0ad3cc6b0001d98fd3,687ed1b7e638a4cbf2f02089,68804430d468caf09f03e5e8,,,,,,,,,,,,,10,1,,./stim/wavs/cuban_match_interrogative-total-yn_Maria-bebe-el-vino.wav,,,,,,,,,,,,,,,,,,,,,,366.6326,369.2509,1,1,2.0971,,0,64,64,9,1,1,cuban,,,,,,,,,,,,,,,,,,,,,,,,,,,,,,,,,,,,,,,,,,,,,,,,,,,,,,,,
,,,,,,,,,5c553e0ad3cc6b0001d98fd3,not sure ,13 or older,click here to respond,no,2025-07-22_22h09.51.334,empathy_intonation_perc,2024.2.4,MacIntel,63.69426752,5c553e0ad3cc6b0001d98fd3,687ed1b7e638a4cbf2f02089,68804430d468caf09f03e5e8,,,,,,,,,,,,,68,0,,./stim/wavs/puertorican_match_declarative-broad-focus_Maria-bebe-el-vino.wav,,,,,,,,,,,,,,,,,,,,,,369.2522,371.1977,1,0,1.4183,,0,65,65,67,1,0,puertorican,,,,,,,,,,,,,,,,,,,,,,,,,,,,,,,,,,,,,,,,,,,,,,,,,,,,,,,,
,,,,,,,,,5c553e0ad3cc6b0001d98fd3,not sure ,13 or older,click here to respond,no,2025-07-22_22h09.51.334,empathy_intonation_perc,2024.2.4,MacIntel,63.69426752,5c553e0ad3cc6b0001d98fd3,687ed1b7e638a4cbf2f02089,68804430d468caf09f03e5e8,,,,,,,,,,,,,78,0,,./stim/wavs/cuban_mismatch_declarative-broad-focus_Mi-tia-odia-la-lluvia.wav,,,,,,,,,,,,,,,,,,,,,,371.1984,373.6319,0,1,1.9202,,0,66,66,77,1,0,cuban,,,,,,,,,,,,,,,,,,,,,,,,,,,,,,,,,,,,,,,,,,,,,,,,,,,,,,,,
,,,,,,,,,5c553e0ad3cc6b0001d98fd3,not sure ,13 or older,click here to respond,no,2025-07-22_22h09.51.334,empathy_intonation_perc,2024.2.4,MacIntel,63.69426752,5c553e0ad3cc6b0001d98fd3,687ed1b7e638a4cbf2f02089,68804430d468caf09f03e5e8,,,,,,,,,,,,,19,1,,./stim/wavs/puertorican_match_interrogative-total-yn_Ana-lleva-el-abrigo.wav,,,,,,,,,,,,,,,,,,,,,,373.6326,375.3818,1,1,1.2184,,0,67,67,18,1,1,puertorican,,,,,,,,,,,,,,,,,,,,,,,,,,,,,,,,,,,,,,,,,,,,,,,,,,,,,,,,
,,,,,,,,,5c553e0ad3cc6b0001d98fd3,not sure ,13 or older,click here to respond,no,2025-07-22_22h09.51.334,empathy_intonation_perc,2024.2.4,MacIntel,63.69426752,5c553e0ad3cc6b0001d98fd3,687ed1b7e638a4cbf2f02089,68804430d468caf09f03e5e8,,,,,,,,,,,,,36,1,,./stim/wavs/mexican_mismatch_interrogative-total-yn_El-nino-oye-el-rio.wav,,,,,,,,,,,,,,,,,,,,,,375.3831,377.5655,1,1,1.6583,,0,68,68,35,1,0,mexican,,,,,,,,,,,,,,,,,,,,,,,,,,,,,,,,,,,,,,,,,,,,,,,,,,,,,,,,
,,,,,,,,,5c553e0ad3cc6b0001d98fd3,not sure ,13 or older,click here to respond,no,2025-07-22_22h09.51.334,empathy_intonation_perc,2024.2.4,MacIntel,63.69426752,5c553e0ad3cc6b0001d98fd3,687ed1b7e638a4cbf2f02089,68804430d468caf09f03e5e8,,,,,,,,,,,,,5,1,,./stim/wavs/castilian_match_interrogative-total-yn_Mariano-habla-del-tiempo.wav,,,,,,,,,,,,,,,,,,,,,,377.5668,380.0984,1,1,2.0065,,0,69,69,4,1,0,castilian,,,,,,,,,,,,,,,,,,,,,,,,,,,,,,,,,,,,,,,,,,,,,,,,,,,,,,,,
,,,,,,,,,5c553e0ad3cc6b0001d98fd3,not sure ,13 or older,click here to respond,no,2025-07-22_22h09.51.334,empathy_intonation_perc,2024.2.4,MacIntel,63.69426752,5c553e0ad3cc6b0001d98fd3,687ed1b7e638a4cbf2f02089,68804430d468caf09f03e5e8,,,,,,,,,,,,,29,1,,./stim/wavs/castilian_mismatch_interrogative-total-yn_Mi-tia-odia-la-lluvia.wav,,,,,,,,,,,,,,,,,,,,,,380.0989,382.2818,1,1,1.6517,,0,70,70,28,1,0,castilian,,,,,,,,,,,,,,,,,,,,,,,,,,,,,,,,,,,,,,,,,,,,,,,,,,,,,,,,
,,,,,,,,,5c553e0ad3cc6b0001d98fd3,not sure ,13 or older,click here to respond,no,2025-07-22_22h09.51.334,empathy_intonation_perc,2024.2.4,MacIntel,63.69426752,5c553e0ad3cc6b0001d98fd3,687ed1b7e638a4cbf2f02089,68804430d468caf09f03e5e8,,,,,,,,,,,,,69,0,,./stim/wavs/castilian_mismatch_declarative-broad-focus_El-nino-oye-el-rio.wav,,,,,,,,,,,,,,,,,,,,,,382.2824,384.5485,0,1,1.7356,,0,71,71,68,1,0,castilian,,,,,,,,,,,,,,,,,,,,,,,,,,,,,,,,,,,,,,,,,,,,,,,,,,,,,,,,
,,,,,,,,,5c553e0ad3cc6b0001d98fd3,not sure ,13 or older,click here to respond,no,2025-07-22_22h09.51.334,empathy_intonation_perc,2024.2.4,MacIntel,63.69426752,5c553e0ad3cc6b0001d98fd3,687ed1b7e638a4cbf2f02089,68804430d468caf09f03e5e8,,,,,,,,,,,,,88,0,,./stim/wavs/puertorican_mismatch_declarative-broad-focus_La-nina-lava-el-plato.wav,,,,,,,,,,,,,,,,,,,,,,384.5493,386.6152,0,1,1.5473,,0,72,72,87,1,0,puertorican,,,,,,,,,,,,,,,,,,,,,,,,,,,,,,,,,,,,,,,,,,,,,,,,,,,,,,,,
,,,,,,,,,5c553e0ad3cc6b0001d98fd3,not sure ,13 or older,click here to respond,no,2025-07-22_22h09.51.334,empathy_intonation_perc,2024.2.4,MacIntel,63.69426752,5c553e0ad3cc6b0001d98fd3,687ed1b7e638a4cbf2f02089,68804430d468caf09f03e5e8,,,,,,,,,,,,,75,0,,./stim/wavs/cuban_mismatch_declarative-broad-focus_El-hombre-mira-la-luna.wav,,,,,,,,,,,,,,,,,,,,,,386.6159,388.8485,0,1,1.7008,,0,73,73,74,1,0,cuban,,,,,,,,,,,,,,,,,,,,,,,,,,,,,,,,,,,,,,,,,,,,,,,,,,,,,,,,
,,,,,,,,,5c553e0ad3cc6b0001d98fd3,not sure ,13 or older,click here to respond,no,2025-07-22_22h09.51.334,empathy_intonation_perc,2024.2.4,MacIntel,63.69426752,5c553e0ad3cc6b0001d98fd3,687ed1b7e638a4cbf2f02089,68804430d468caf09f03e5e8,,,,,,,,,,,,,45,0,,./stim/wavs/castilian_match_declarative-broad-focus_David-leia-el-libro.wav,,,,,,,,,,,,,,,,,,,,,,388.8495,391.0815,0,1,1.7088,,0,74,74,44,1,0,castilian,,,,,,,,,,,,,,,,,,,,,,,,,,,,,,,,,,,,,,,,,,,,,,,,,,,,,,,,
,,,,,,,,,5c553e0ad3cc6b0001d98fd3,not sure ,13 or older,click here to respond,no,2025-07-22_22h09.51.334,empathy_intonation_perc,2024.2.4,MacIntel,63.69426752,5c553e0ad3cc6b0001d98fd3,687ed1b7e638a4cbf2f02089,68804430d468caf09f03e5e8,,,,,,,,,,,,,47,0,,./stim/wavs/castilian_match_declarative-broad-focus_Manuela-vende-el-carro.wav,,,,,,,,,,,,,,,,,,,,,,391.082,393.3487,0,1,1.7398,,0,75,75,46,1,0,castilian,,,,,,,,,,,,,,,,,,,,,,,,,,,,,,,,,,,,,,,,,,,,,,,,,,,,,,,,
,,,,,,,,,5c553e0ad3cc6b0001d98fd3,not sure ,13 or older,click here to respond,no,2025-07-22_22h09.51.334,empathy_intonation_perc,2024.2.4,MacIntel,63.69426752,5c553e0ad3cc6b0001d98fd3,687ed1b7e638a4cbf2f02089,68804430d468caf09f03e5e8,,,,,,,,,,,,,73,0,,./stim/wavs/castilian_mismatch_declarative-broad-focus_Mi-tia-odia-la-lluvia.wav,,,,,,,,,,,,,,,,,,,,,,393.35,395.3985,0,1,1.5351,,0,76,76,72,1,0,castilian,,,,,,,,,,,,,,,,,,,,,,,,,,,,,,,,,,,,,,,,,,,,,,,,,,,,,,,,
,,,,,,,,,5c553e0ad3cc6b0001d98fd3,not sure ,13 or older,click here to respond,no,2025-07-22_22h09.51.334,empathy_intonation_perc,2024.2.4,MacIntel,63.69426752,5c553e0ad3cc6b0001d98fd3,687ed1b7e638a4cbf2f02089,68804430d468caf09f03e5e8,,,,,,,,,,,,,21,1,,./stim/wavs/puertorican_match_interrogative-total-yn_David-leia-el-libro.wav,,,,,,,,,,,,,,,,,,,,,,395.399,398.0654,1,1,2.1344,,0,77,77,20,1,1,puertorican,,,,,,,,,,,,,,,,,,,,,,,,,,,,,,,,,,,,,,,,,,,,,,,,,,,,,,,,
,,,,,,,,,5c553e0ad3cc6b0001d98fd3,not sure ,13 or older,click here to respond,no,2025-07-22_22h09.51.334,empathy_intonation_perc,2024.2.4,MacIntel,63.69426752,5c553e0ad3cc6b0001d98fd3,687ed1b7e638a4cbf2f02089,68804430d468caf09f03e5e8,,,,,,,,,,,,,61,0,,./stim/wavs/mexican_match_declarative-broad-focus_Mariano-habla-del-tiempo.wav,,,,,,,,,,,,,,,,,,,,,,398.0667,400.2472,0,1,1.6557,,0,78,78,60,1,0,mexican,,,,,,,,,,,,,,,,,,,,,,,,,,,,,,,,,,,,,,,,,,,,,,,,,,,,,,,,
,,,,,,,,,5c553e0ad3cc6b0001d98fd3,not sure ,13 or older,click here to respond,no,2025-07-22_22h09.51.334,empathy_intonation_perc,2024.2.4,MacIntel,63.69426752,5c553e0ad3cc6b0001d98fd3,687ed1b7e638a4cbf2f02089,68804430d468caf09f03e5e8,,,,,,,,,,,,,79,0,,./stim/wavs/mexican_mismatch_declarative-broad-focus_El-bebe-comia-muy-bien.wav,,,,,,,,,,,,,,,,,,,,,,400.2478,403.6308,1,0,2.855,,0,79,79,78,1,0,mexican,,,,,,,,,,,,,,,,,,,,,,,,,,,,,,,,,,,,,,,,,,,,,,,,,,,,,,,,
,,,,,,,,,5c553e0ad3cc6b0001d98fd3,not sure ,13 or older,click here to respond,no,2025-07-22_22h09.51.334,empathy_intonation_perc,2024.2.4,MacIntel,63.69426752,5c553e0ad3cc6b0001d98fd3,687ed1b7e638a4cbf2f02089,68804430d468caf09f03e5e8,,,,,,,,,,,,,3,1,,./stim/wavs/castilian_match_interrogative-total-yn_Manuela-vende-el-carro.wav,,,,,,,,,,,,,,,,,,,,,,403.6318,405.8842,1,1,1.7292,,0,80,80,2,1,0,castilian,,,,,,,,,,,,,,,,,,,,,,,,,,,,,,,,,,,,,,,,,,,,,,,,,,,,,,,,
,,,,,,,,,5c553e0ad3cc6b0001d98fd3,not sure ,13 or older,click here to respond,no,2025-07-22_22h09.51.334,empathy_intonation_perc,2024.2.4,MacIntel,63.69426752,5c553e0ad3cc6b0001d98fd3,687ed1b7e638a4cbf2f02089,68804430d468caf09f03e5e8,,,,,,,,,,,,,76,0,,./stim/wavs/cuban_mismatch_declarative-broad-focus_La-nina-lava-el-plato.wav,,,,,,,,,,,,,,,,,,,,,,405.8851,407.9154,0,1,1.5035,,0,81,81,75,1,0,cuban,,,,,,,,,,,,,,,,,,,,,,,,,,,,,,,,,,,,,,,,,,,,,,,,,,,,,,,,
,,,,,,,,,5c553e0ad3cc6b0001d98fd3,not sure ,13 or older,click here to respond,no,2025-07-22_22h09.51.334,empathy_intonation_perc,2024.2.4,MacIntel,63.69426752,5c553e0ad3cc6b0001d98fd3,687ed1b7e638a4cbf2f02089,68804430d468caf09f03e5e8,,,,,,,,,,,,,70,0,,./stim/wavs/castilian_mismatch_declarative-broad-focus_La-maestra-vive-en-Paris.wav,,,,,,,,,,,,,,,,,,,,,,407.9163,410.4988,0,1,2.0525,,0,82,82,69,1,0,castilian,,,,,,,,,,,,,,,,,,,,,,,,,,,,,,,,,,,,,,,,,,,,,,,,,,,,,,,,
,,,,,,,,,5c553e0ad3cc6b0001d98fd3,not sure ,13 or older,click here to respond,no,2025-07-22_22h09.51.334,empathy_intonation_perc,2024.2.4,MacIntel,63.69426752,5c553e0ad3cc6b0001d98fd3,687ed1b7e638a4cbf2f02089,68804430d468caf09f03e5e8,,,,,,,,,,,,,86,0,,./stim/wavs/puertorican_mismatch_declarative-broad-focus_El-nino-oye-el-rio.wav,,,,,,,,,,,,,,,,,,,,,,410.5001,412.4838,0,1,1.4632,,0,83,83,85,1,0,puertorican,,,,,,,,,,,,,,,,,,,,,,,,,,,,,,,,,,,,,,,,,,,,,,,,,,,,,,,,
,,,,,,,,,5c553e0ad3cc6b0001d98fd3,not sure ,13 or older,click here to respond,no,2025-07-22_22h09.51.334,empathy_intonation_perc,2024.2.4,MacIntel,63.69426752,5c553e0ad3cc6b0001d98fd3,687ed1b7e638a4cbf2f02089,68804430d468caf09f03e5e8,,,,,,,,,,,,,59,0,,./stim/wavs/mexican_match_declarative-broad-focus_David-leia-el-libro.wav,,,,,,,,,,,,,,,,,,,,,,412.4843,414.5474,0,1,1.5341,,0,84,84,58,1,0,mexican,,,,,,,,,,,,,,,,,,,,,,,,,,,,,,,,,,,,,,,,,,,,,,,,,,,,,,,,
,,,,,,,,,5c553e0ad3cc6b0001d98fd3,not sure ,13 or older,click here to respond,no,2025-07-22_22h09.51.334,empathy_intonation_perc,2024.2.4,MacIntel,63.69426752,5c553e0ad3cc6b0001d98fd3,687ed1b7e638a4cbf2f02089,68804430d468caf09f03e5e8,,,,,,,,,,,,,50,0,,./stim/wavs/castilian_match_declarative-broad-focus_Marta-abre-el-regalo.wav,,,,,,,,,,,,,,,,,,,,,,414.5492,416.682,0,1,1.6038,,0,85,85,49,1,0,castilian,,,,,,,,,,,,,,,,,,,,,,,,,,,,,,,,,,,,,,,,,,,,,,,,,,,,,,,,
,,,,,,,,,5c553e0ad3cc6b0001d98fd3,not sure ,13 or older,click here to respond,no,2025-07-22_22h09.51.334,empathy_intonation_perc,2024.2.4,MacIntel,63.69426752,5c553e0ad3cc6b0001d98fd3,687ed1b7e638a4cbf2f02089,68804430d468caf09f03e5e8,,,,,,,,,,,,,64,0,,./stim/wavs/puertorican_match_declarative-broad-focus_Daniel-iba-a-Bolivia.wav,,,,,,,,,,,,,,,,,,,,,,416.6829,419.0658,0,1,1.8521,,0,86,86,63,1,0,puertorican,,,,,,,,,,,,,,,,,,,,,,,,,,,,,,,,,,,,,,,,,,,,,,,,,,,,,,,,
,,,,,,,,,5c553e0ad3cc6b0001d98fd3,not sure ,13 or older,click here to respond,no,2025-07-22_22h09.51.334,empathy_intonation_perc,2024.2.4,MacIntel,63.69426752,5c553e0ad3cc6b0001d98fd3,687ed1b7e638a4cbf2f02089,68804430d468caf09f03e5e8,,,,,,,,,,,,,67,0,,./stim/wavs/puertorican_match_declarative-broad-focus_Manuela-vende-el-carro.wav,,,,,,,,,,,,,,,,,,,,,,419.0669,421.3317,0,1,1.7402,,0,87,87,66,1,0,puertorican,,,,,,,,,,,,,,,,,,,,,,,,,,,,,,,,,,,,,,,,,,,,,,,,,,,,,,,,
,,,,,,,"Great! Now we will move on. The next task consists of about 60 trials, in each of which you will see a string of letters. 
  
  Your task is to decide whether this is a real Spanish word or not.", (press the spacebar to continue),5c553e0ad3cc6b0001d98fd3,not sure ,13 or older,click here to respond,no,2025-07-22_22h09.51.334,empathy_intonation_perc,2024.2.4,MacIntel,63.69426752,5c553e0ad3cc6b0001d98fd3,687ed1b7e638a4cbf2f02089,68804430d468caf09f03e5e8,,,,,,,,,,,,,,,,,,,,,,,,,,,,,,,,,,,,,,,,,,,,,,,,,,,421.3468,426.2823,0,0,0,0,1,,,,,,,,,,,,,,,,,,,,,,,,,,,,,,,,,,,,,,,,,,,,,,,,,
,,,,,,,"If you think it is an existing Spanish word, you type '1' (for 'REAL'), and if you think it is not an existing Spanish word, you type '0' (for 'FAKE').", (press the spacebar to continue),5c553e0ad3cc6b0001d98fd3,not sure ,13 or older,click here to respond,no,2025-07-22_22h09.51.334,empathy_intonation_perc,2024.2.4,MacIntel,63.69426752,5c553e0ad3cc6b0001d98fd3,687ed1b7e638a4cbf2f02089,68804430d468caf09f03e5e8,,,,,,,,,,,,,,,,,,,,,,,,,,,,,,,,,,,,,,,,,,,,,,,,,,,426.2852,431.0154,0,1,1,1,1,,,,,,,,,,,,,,,,,,,,,,,,,,,,,,,,,,,,,,,,,,,,,,,,,
,,,,,,,"If you are sure that the word exists, even though you don’t know its exact meaning, you may still respond '1' (REAL). 
  
  But if you are not sure if it is an existing word, you should respond '0' (FAKE).
  
  Let's do a practice round...", (press the spacebar to continue),5c553e0ad3cc6b0001d98fd3,not sure ,13 or older,click here to respond,no,2025-07-22_22h09.51.334,empathy_intonation_perc,2024.2.4,MacIntel,63.69426752,5c553e0ad3cc6b0001d98fd3,687ed1b7e638a4cbf2f02089,68804430d468caf09f03e5e8,,,,,,,,,,,,,,,,,,,,,,,,,,,,,,,,,,,,,,,,,,,,,,,,,,,431.0199,434.4981,0,2,2,2,1,,,,,,,,,,,,,,,,,,,,,,,,,,,,,,,,,,,,,,,,,,,,,,,,,
,,,,,,,,,5c553e0ad3cc6b0001d98fd3,not sure ,13 or older,click here to respond,no,2025-07-22_22h09.51.334,empathy_intonation_perc,2024.2.4,MacIntel,63.69426752,5c553e0ad3cc6b0001d98fd3,687ed1b7e638a4cbf2f02089,68804430d468caf09f03e5e8,,,,,,,,,,,,,,0,,,,,,,,,,,,,,,,,,,,,,,,,,,,,,,,,,,,,,,,,,,,434.5043,436.4153,1,0,1.3805,,436.4158,437.4157,0,0,0,0,1,0,depiste,REAL,FAKE,,,,,,,,,,,,,,,,,,,,,,,,,,,,,,,,
,,,,,,,,,5c553e0ad3cc6b0001d98fd3,not sure ,13 or older,click here to respond,no,2025-07-22_22h09.51.334,empathy_intonation_perc,2024.2.4,MacIntel,63.69426752,5c553e0ad3cc6b0001d98fd3,687ed1b7e638a4cbf2f02089,68804430d468caf09f03e5e8,,,,,,,,,,,,,,1,,,,,,,,,,,,,,,,,,,,,,,,,,,,,,,,,,,,,,,,,,,,437.4178,438.9817,1,1,1.0185,,438.9824,439.9817,0,1,1,1,1,0,sí,REAL,FAKE,,,,,,,,,,,,,,,,,,,,,,,,,,,,,,,,
,,,,,,,,,5c553e0ad3cc6b0001d98fd3,not sure ,13 or older,click here to respond,no,2025-07-22_22h09.51.334,empathy_intonation_perc,2024.2.4,MacIntel,63.69426752,5c553e0ad3cc6b0001d98fd3,687ed1b7e638a4cbf2f02089,68804430d468caf09f03e5e8,,,,,,,,,,,,,,0,,,,,,,,,,,,,,,,,,,,,,,,,,,,,,,,,,,,,,,,,,,,439.9834,441.4813,0,1,0.9654,,441.4813,442.4817,0,2,2,2,1,0,coné,REAL,FAKE,,,,,,,,,,,,,,,,,,,,,,,,,,,,,,,,
,,,,,,,,,5c553e0ad3cc6b0001d98fd3,not sure ,13 or older,click here to respond,no,2025-07-22_22h09.51.334,empathy_intonation_perc,2024.2.4,MacIntel,63.69426752,5c553e0ad3cc6b0001d98fd3,687ed1b7e638a4cbf2f02089,68804430d468caf09f03e5e8,,,,,,,,,,,,,,0,,,,,,,,,,,,,,,,,,,,,,,,,,,,,,,,,,,,,,,,,,,,442.4831,444.3984,1,0,1.3742,,444.3995,445.3984,0,3,3,3,1,0,calpar,REAL,FAKE,,,,,,,,,,,,,,,,,,,,,,,,,,,,,,,,
,,,,,,,,,5c553e0ad3cc6b0001d98fd3,not sure ,13 or older,click here to respond,no,2025-07-22_22h09.51.334,empathy_intonation_perc,2024.2.4,MacIntel,63.69426752,5c553e0ad3cc6b0001d98fd3,687ed1b7e638a4cbf2f02089,68804430d468caf09f03e5e8,,,,,,,,,,,,,,0,,,,,,,,,,,,,,,,,,,,,,,,,,,,,,,,,,,,,,,,,,,,445.4002,447.2816,0,1,1.3395,,447.2824,448.2819,0,4,4,4,1,0,joten,REAL,FAKE,,,,,,,,,,,,,,,,,,,,,,,,,,,,,,,,
,,,,,,,,,5c553e0ad3cc6b0001d98fd3,not sure ,13 or older,click here to respond,no,2025-07-22_22h09.51.334,empathy_intonation_perc,2024.2.4,MacIntel,63.69426752,5c553e0ad3cc6b0001d98fd3,687ed1b7e638a4cbf2f02089,68804430d468caf09f03e5e8,,,,,,,,,,,,,,1,,,,,,,,,,,,,,,,,,,,,,,,,,,,,,,,,,,,,,,,,,,,448.2844,450.1817,1,1,1.3529,,450.1818,451.1807,0,5,5,5,1,0,sacapuntas,REAL,FAKE,,,,,,,,,,,,,,,,,,,,,,,,,,,,,,,,
,,,,,,,,,5c553e0ad3cc6b0001d98fd3,not sure ,13 or older,click here to respond,no,2025-07-22_22h09.51.334,empathy_intonation_perc,2024.2.4,MacIntel,63.69426752,5c553e0ad3cc6b0001d98fd3,687ed1b7e638a4cbf2f02089,68804430d468caf09f03e5e8,,,,,,,,,,,,,,0,,,,,,,,,,,,,,,,,,,,,,,,,,,,,,,,,,,,,,,,,,,,451.1826,452.4315,0,1,0.7127,,452.4315,453.4313,0,6,6,6,1,0,priba,REAL,FAKE,,,,,,,,,,,,,,,,,,,,,,,,,,,,,,,,
,,,,,,,,,5c553e0ad3cc6b0001d98fd3,not sure ,13 or older,click here to respond,no,2025-07-22_22h09.51.334,empathy_intonation_perc,2024.2.4,MacIntel,63.69426752,5c553e0ad3cc6b0001d98fd3,687ed1b7e638a4cbf2f02089,68804430d468caf09f03e5e8,,,,,,,,,,,,,,0,,,,,,,,,,,,,,,,,,,,,,,,,,,,,,,,,,,,,,,,,,,,453.4324,454.9315,1,0,0.9457,,454.9325,455.931,0,7,7,7,1,0,pelasula,REAL,FAKE,,,,,,,,,,,,,,,,,,,,,,,,,,,,,,,,
,,,,,,,,,5c553e0ad3cc6b0001d98fd3,not sure ,13 or older,click here to respond,no,2025-07-22_22h09.51.334,empathy_intonation_perc,2024.2.4,MacIntel,63.69426752,5c553e0ad3cc6b0001d98fd3,687ed1b7e638a4cbf2f02089,68804430d468caf09f03e5e8,,,,,,,,,,,,,,1,,,,,,,,,,,,,,,,,,,,,,,,,,,,,,,,,,,,,,,,,,,,455.9336,457.2163,1,1,0.7499,,457.2174,458.2142,0,8,8,8,1,0,bien,REAL,FAKE,,,,,,,,,,,,,,,,,,,,,,,,,,,,,,,,
,,,,,,,,,5c553e0ad3cc6b0001d98fd3,not sure ,13 or older,click here to respond,no,2025-07-22_22h09.51.334,empathy_intonation_perc,2024.2.4,MacIntel,63.69426752,5c553e0ad3cc6b0001d98fd3,687ed1b7e638a4cbf2f02089,68804430d468caf09f03e5e8,,,,,,,,,,,,,,1,,,,,,,,,,,,,,,,,,,,,,,,,,,,,,,,,,,,,,,,,,,,458.2154,459.4193,1,1,0.6854,,459.4198,460.4139,0,9,9,9,1,0,casa,REAL,FAKE,,,,,,,,,,,,,,,,,,,,,,,,,,,,,,,,
,,,,,,,,,5c553e0ad3cc6b0001d98fd3,not sure ,13 or older,click here to respond,no,2025-07-22_22h09.51.334,empathy_intonation_perc,2024.2.4,MacIntel,63.69426752,5c553e0ad3cc6b0001d98fd3,687ed1b7e638a4cbf2f02089,68804430d468caf09f03e5e8,,,,,,,,,,,,,,0,,,,,,,,,,,,,,,,,,,,,,,,,,,,,,,,,,,,,,,,,,,,460.4163,461.8475,0,1,0.8796,,461.8476,462.8479,0,10,10,10,1,0,lejo,REAL,FAKE,,,,,,,,,,,,,,,,,,,,,,,,,,,,,,,,
,,,,,,,,,5c553e0ad3cc6b0001d98fd3,not sure ,13 or older,click here to respond,no,2025-07-22_22h09.51.334,empathy_intonation_perc,2024.2.4,MacIntel,63.69426752,5c553e0ad3cc6b0001d98fd3,687ed1b7e638a4cbf2f02089,68804430d468caf09f03e5e8,,,,,,,,,,,,,,0,,,,,,,,,,,,,,,,,,,,,,,,,,,,,,,,,,,,,,,,,,,,462.8493,464.6647,0,1,1.272,,464.6648,465.6651,0,11,11,11,1,0,pretantas,REAL,FAKE,,,,,,,,,,,,,,,,,,,,,,,,,,,,,,,,
,,,,,,,,,5c553e0ad3cc6b0001d98fd3,not sure ,13 or older,click here to respond,no,2025-07-22_22h09.51.334,empathy_intonation_perc,2024.2.4,MacIntel,63.69426752,5c553e0ad3cc6b0001d98fd3,687ed1b7e638a4cbf2f02089,68804430d468caf09f03e5e8,,,,,,,,,,,,,,,,,,,,,,,,,,,,,,,,,,,,,,,,,,,,,,,,,,,,,,,,,,,,,,,,,,,,,,,,,,,465.6659,467.1827,,,,,,,,,,,,,,,,,,,,,,,,,,,,,,
,,,,,,,,,5c553e0ad3cc6b0001d98fd3,not sure ,13 or older,click here to respond,no,2025-07-22_22h09.51.334,empathy_intonation_perc,2024.2.4,MacIntel,63.69426752,5c553e0ad3cc6b0001d98fd3,687ed1b7e638a4cbf2f02089,68804430d468caf09f03e5e8,,,,,,,,,,,,,,1,,,,,,,,,,,,,,,,,,,,,,,,,,,,,,,,,,,,,,,,,,,,,,,,,,,,,,,,,7,pésimo,,,,,467.1974,468.648,1,1,0.9431,,0,0,0,6,1,REAL,FAKE,,,,,,,,,,,,,,,,,
,,,,,,,,,5c553e0ad3cc6b0001d98fd3,not sure ,13 or older,click here to respond,no,2025-07-22_22h09.51.334,empathy_intonation_perc,2024.2.4,MacIntel,63.69426752,5c553e0ad3cc6b0001d98fd3,687ed1b7e638a4cbf2f02089,68804430d468caf09f03e5e8,,,,,,,,,,,,,,1,,,,,,,,,,,,,,,,,,,,,,,,,,,,,,,,,,,,,,,,,,,,,,,,,,,,,,,,,5,zapato,,,,,468.6501,469.9472,1,1,0.7717,,0,1,1,4,1,REAL,FAKE,,,,,,,,,,,,,,,,,
,,,,,,,,,5c553e0ad3cc6b0001d98fd3,not sure ,13 or older,click here to respond,no,2025-07-22_22h09.51.334,empathy_intonation_perc,2024.2.4,MacIntel,63.69426752,5c553e0ad3cc6b0001d98fd3,687ed1b7e638a4cbf2f02089,68804430d468caf09f03e5e8,,,,,,,,,,,,,,1,,,,,,,,,,,,,,,,,,,,,,,,,,,,,,,,,,,,,,,,,,,,,,,,,,,,,,,,,6,tergiversar,,,,,469.9486,471.1648,0,0,0.6886,,0,2,2,5,1,REAL,FAKE,,,,,,,,,,,,,,,,,
,,,,,,,,,5c553e0ad3cc6b0001d98fd3,not sure ,13 or older,click here to respond,no,2025-07-22_22h09.51.334,empathy_intonation_perc,2024.2.4,MacIntel,63.69426752,5c553e0ad3cc6b0001d98fd3,687ed1b7e638a4cbf2f02089,68804430d468caf09f03e5e8,,,,,,,,,,,,,,1,,,,,,,,,,,,,,,,,,,,,,,,,,,,,,,,,,,,,,,,,,,,,,,,,,,,,,,,,45,jilguero,,,,,471.1657,472.5146,0,0,0.8234,,0,3,3,44,1,REAL,FAKE,,,,,,,,,,,,,,,,,
,,,,,,,,,5c553e0ad3cc6b0001d98fd3,not sure ,13 or older,click here to respond,no,2025-07-22_22h09.51.334,empathy_intonation_perc,2024.2.4,MacIntel,63.69426752,5c553e0ad3cc6b0001d98fd3,687ed1b7e638a4cbf2f02089,68804430d468caf09f03e5e8,,,,,,,,,,,,,,0,,,,,,,,,,,,,,,,,,,,,,,,,,,,,,,,,,,,,,,,,,,,,,,,,,,,,,,,,4,batillón,,,,,472.5152,473.9148,1,0,0.8738,,0,4,4,3,1,REAL,FAKE,,,,,,,,,,,,,,,,,
,,,,,,,,,5c553e0ad3cc6b0001d98fd3,not sure ,13 or older,click here to respond,no,2025-07-22_22h09.51.334,empathy_intonation_perc,2024.2.4,MacIntel,63.69426752,5c553e0ad3cc6b0001d98fd3,687ed1b7e638a4cbf2f02089,68804430d468caf09f03e5e8,,,,,,,,,,,,,,1,,,,,,,,,,,,,,,,,,,,,,,,,,,,,,,,,,,,,,,,,,,,,,,,,,,,,,,,,46,martillo,,,,,473.9162,475.1315,1,1,0.6849,,0,5,5,45,1,REAL,FAKE,,,,,,,,,,,,,,,,,
,,,,,,,,,5c553e0ad3cc6b0001d98fd3,not sure ,13 or older,click here to respond,no,2025-07-22_22h09.51.334,empathy_intonation_perc,2024.2.4,MacIntel,63.69426752,5c553e0ad3cc6b0001d98fd3,687ed1b7e638a4cbf2f02089,68804430d468caf09f03e5e8,,,,,,,,,,,,,,1,,,,,,,,,,,,,,,,,,,,,,,,,,,,,,,,,,,,,,,,,,,,,,,,,,,,,,,,,55,nevar,,,,,475.1328,476.4157,1,1,0.7592,,0,6,6,54,1,REAL,FAKE,,,,,,,,,,,,,,,,,
,,,,,,,,,5c553e0ad3cc6b0001d98fd3,not sure ,13 or older,click here to respond,no,2025-07-22_22h09.51.334,empathy_intonation_perc,2024.2.4,MacIntel,63.69426752,5c553e0ad3cc6b0001d98fd3,687ed1b7e638a4cbf2f02089,68804430d468caf09f03e5e8,,,,,,,,,,,,,,1,,,,,,,,,,,,,,,,,,,,,,,,,,,,,,,,,,,,,,,,,,,,,,,,,,,,,,,,,15,regar,,,,,476.4174,477.698,1,1,0.7365,,0,7,7,14,1,REAL,FAKE,,,,,,,,,,,,,,,,,
,,,,,,,,,5c553e0ad3cc6b0001d98fd3,not sure ,13 or older,click here to respond,no,2025-07-22_22h09.51.334,empathy_intonation_perc,2024.2.4,MacIntel,63.69426752,5c553e0ad3cc6b0001d98fd3,687ed1b7e638a4cbf2f02089,68804430d468caf09f03e5e8,,,,,,,,,,,,,,1,,,,,,,,,,,,,,,,,,,,,,,,,,,,,,,,,,,,,,,,,,,,,,,,,,,,,,,,,34,aviso,,,,,477.6988,479.1974,1,1,0.9651,,0,8,8,33,1,REAL,FAKE,,,,,,,,,,,,,,,,,
,,,,,,,,,5c553e0ad3cc6b0001d98fd3,not sure ,13 or older,click here to respond,no,2025-07-22_22h09.51.334,empathy_intonation_perc,2024.2.4,MacIntel,63.69426752,5c553e0ad3cc6b0001d98fd3,687ed1b7e638a4cbf2f02089,68804430d468caf09f03e5e8,,,,,,,,,,,,,,0,,,,,,,,,,,,,,,,,,,,,,,,,,,,,,,,,,,,,,,,,,,,,,,,,,,,,,,,,92,click the 0 key.,,,,,479.1979,481.6812,0,1,1.9513,,0,9,9,91,1,REAL,FAKE,,,,,,,,,,,,,,,,,
,,,,,,,,,5c553e0ad3cc6b0001d98fd3,not sure ,13 or older,click here to respond,no,2025-07-22_22h09.51.334,empathy_intonation_perc,2024.2.4,MacIntel,63.69426752,5c553e0ad3cc6b0001d98fd3,687ed1b7e638a4cbf2f02089,68804430d468caf09f03e5e8,,,,,,,,,,,,,,0,,,,,,,,,,,,,,,,,,,,,,,,,,,,,,,,,,,,,,,,,,,,,,,,,,,,,,,,,50,flamida,,,,,481.6821,483.3472,0,1,1.1292,,0,10,10,49,1,REAL,FAKE,,,,,,,,,,,,,,,,,
,,,,,,,,,5c553e0ad3cc6b0001d98fd3,not sure ,13 or older,click here to respond,no,2025-07-22_22h09.51.334,empathy_intonation_perc,2024.2.4,MacIntel,63.69426752,5c553e0ad3cc6b0001d98fd3,687ed1b7e638a4cbf2f02089,68804430d468caf09f03e5e8,,,,,,,,,,,,,,1,,,,,,,,,,,,,,,,,,,,,,,,,,,,,,,,,,,,,,,,,,,,,,,,,,,,,,,,,52,camisa,,,,,483.3486,484.8479,1,1,0.9698,,0,11,11,51,1,REAL,FAKE,,,,,,,,,,,,,,,,,
,,,,,,,,,5c553e0ad3cc6b0001d98fd3,not sure ,13 or older,click here to respond,no,2025-07-22_22h09.51.334,empathy_intonation_perc,2024.2.4,MacIntel,63.69426752,5c553e0ad3cc6b0001d98fd3,687ed1b7e638a4cbf2f02089,68804430d468caf09f03e5e8,,,,,,,,,,,,,,1,,,,,,,,,,,,,,,,,,,,,,,,,,,,,,,,,,,,,,,,,,,,,,,,,,,,,,,,,81,pozo,,,,,484.8491,486.4482,0,0,1.0564,,0,12,12,80,1,REAL,FAKE,,,,,,,,,,,,,,,,,
,,,,,,,,,5c553e0ad3cc6b0001d98fd3,not sure ,13 or older,click here to respond,no,2025-07-22_22h09.51.334,empathy_intonation_perc,2024.2.4,MacIntel,63.69426752,5c553e0ad3cc6b0001d98fd3,687ed1b7e638a4cbf2f02089,68804430d468caf09f03e5e8,,,,,,,,,,,,,,1,,,,,,,,,,,,,,,,,,,,,,,,,,,,,,,,,,,,,,,,,,,,,,,,,,,,,,,,,91,click the 1 key.,,,,,486.4495,488.3648,1,1,1.3698,,0,13,13,90,1,REAL,FAKE,,,,,,,,,,,,,,,,,
,,,,,,,,,5c553e0ad3cc6b0001d98fd3,not sure ,13 or older,click here to respond,no,2025-07-22_22h09.51.334,empathy_intonation_perc,2024.2.4,MacIntel,63.69426752,5c553e0ad3cc6b0001d98fd3,687ed1b7e638a4cbf2f02089,68804430d468caf09f03e5e8,,,,,,,,,,,,,,0,,,,,,,,,,,,,,,,,,,,,,,,,,,,,,,,,,,,,,,,,,,,,,,,,,,,,,,,,16,abracer,,,,,488.3659,489.7479,1,0,0.8563,,0,14,14,15,1,REAL,FAKE,,,,,,,,,,,,,,,,,
,,,,,,,,,5c553e0ad3cc6b0001d98fd3,not sure ,13 or older,click here to respond,no,2025-07-22_22h09.51.334,empathy_intonation_perc,2024.2.4,MacIntel,63.69426752,5c553e0ad3cc6b0001d98fd3,687ed1b7e638a4cbf2f02089,68804430d468caf09f03e5e8,,,,,,,,,,,,,,1,,,,,,,,,,,,,,,,,,,,,,,,,,,,,,,,,,,,,,,,,,,,,,,,,,,,,,,,,57,tacaño,,,,,489.7519,491.3649,0,0,1.0651,,0,15,15,56,1,REAL,FAKE,,,,,,,,,,,,,,,,,
,,,,,,,,,5c553e0ad3cc6b0001d98fd3,not sure ,13 or older,click here to respond,no,2025-07-22_22h09.51.334,empathy_intonation_perc,2024.2.4,MacIntel,63.69426752,5c553e0ad3cc6b0001d98fd3,687ed1b7e638a4cbf2f02089,68804430d468caf09f03e5e8,,,,,,,,,,,,,,1,,,,,,,,,,,,,,,,,,,,,,,,,,,,,,,,,,,,,,,,,,,,,,,,,,,,,,,,,77,tiburón,,,,,491.3662,492.8305,0,0,0.9216,,0,16,16,76,1,REAL,FAKE,,,,,,,,,,,,,,,,,
,,,,,,,,,5c553e0ad3cc6b0001d98fd3,not sure ,13 or older,click here to respond,no,2025-07-22_22h09.51.334,empathy_intonation_perc,2024.2.4,MacIntel,63.69426752,5c553e0ad3cc6b0001d98fd3,687ed1b7e638a4cbf2f02089,68804430d468caf09f03e5e8,,,,,,,,,,,,,,1,,,,,,,,,,,,,,,,,,,,,,,,,,,,,,,,,,,,,,,,,,,,,,,,,,,,,,,,,68,alegre,,,,,492.8316,494.1305,1,1,0.7613,,0,17,17,67,1,REAL,FAKE,,,,,,,,,,,,,,,,,
,,,,,,,,,5c553e0ad3cc6b0001d98fd3,not sure ,13 or older,click here to respond,no,2025-07-22_22h09.51.334,empathy_intonation_perc,2024.2.4,MacIntel,63.69426752,5c553e0ad3cc6b0001d98fd3,687ed1b7e638a4cbf2f02089,68804430d468caf09f03e5e8,,,,,,,,,,,,,,1,,,,,,,,,,,,,,,,,,,,,,,,,,,,,,,,,,,,,,,,,,,,,,,,,,,,,,,,,80,hormiga,,,,,494.1313,495.4315,1,1,0.7627,,0,18,18,79,1,REAL,FAKE,,,,,,,,,,,,,,,,,
,,,,,,,,,5c553e0ad3cc6b0001d98fd3,not sure ,13 or older,click here to respond,no,2025-07-22_22h09.51.334,empathy_intonation_perc,2024.2.4,MacIntel,63.69426752,5c553e0ad3cc6b0001d98fd3,687ed1b7e638a4cbf2f02089,68804430d468caf09f03e5e8,,,,,,,,,,,,,,1,,,,,,,,,,,,,,,,,,,,,,,,,,,,,,,,,,,,,,,,,,,,,,,,,,,,,,,,,2,pellizcar,,,,,495.4329,497.2313,0,0,1.2557,,0,19,19,1,1,REAL,FAKE,,,,,,,,,,,,,,,,,
,,,,,,,,,5c553e0ad3cc6b0001d98fd3,not sure ,13 or older,click here to respond,no,2025-07-22_22h09.51.334,empathy_intonation_perc,2024.2.4,MacIntel,63.69426752,5c553e0ad3cc6b0001d98fd3,687ed1b7e638a4cbf2f02089,68804430d468caf09f03e5e8,,,,,,,,,,,,,,1,,,,,,,,,,,,,,,,,,,,,,,,,,,,,,,,,,,,,,,,,,,,,,,,,,,,,,,,,26,secuestro,,,,,497.2324,498.5814,1,1,0.8058,,0,20,20,25,1,REAL,FAKE,,,,,,,,,,,,,,,,,
,,,,,,,,,5c553e0ad3cc6b0001d98fd3,not sure ,13 or older,click here to respond,no,2025-07-22_22h09.51.334,empathy_intonation_perc,2024.2.4,MacIntel,63.69426752,5c553e0ad3cc6b0001d98fd3,687ed1b7e638a4cbf2f02089,68804430d468caf09f03e5e8,,,,,,,,,,,,,,1,,,,,,,,,,,,,,,,,,,,,,,,,,,,,,,,,,,,,,,,,,,,,,,,,,,,,,,,,83,guante,,,,,498.5826,499.9979,1,1,0.8813,,0,21,21,82,1,REAL,FAKE,,,,,,,,,,,,,,,,,
,,,,,,,,,5c553e0ad3cc6b0001d98fd3,not sure ,13 or older,click here to respond,no,2025-07-22_22h09.51.334,empathy_intonation_perc,2024.2.4,MacIntel,63.69426752,5c553e0ad3cc6b0001d98fd3,687ed1b7e638a4cbf2f02089,68804430d468caf09f03e5e8,,,,,,,,,,,,,,1,,,,,,,,,,,,,,,,,,,,,,,,,,,,,,,,,,,,,,,,,,,,,,,,,,,,,,,,,13,helar,,,,,499.9989,502.198,0,0,1.6572,,0,22,22,12,1,REAL,FAKE,,,,,,,,,,,,,,,,,
,,,,,,,,,5c553e0ad3cc6b0001d98fd3,not sure ,13 or older,click here to respond,no,2025-07-22_22h09.51.334,empathy_intonation_perc,2024.2.4,MacIntel,63.69426752,5c553e0ad3cc6b0001d98fd3,687ed1b7e638a4cbf2f02089,68804430d468caf09f03e5e8,,,,,,,,,,,,,,1,,,,,,,,,,,,,,,,,,,,,,,,,,,,,,,,,,,,,,,,,,,,,,,,,,,,,,,,,49,ganar,,,,,502.1993,503.6816,0,0,0.9484,,0,23,23,48,1,REAL,FAKE,,,,,,,,,,,,,,,,,
,,,,,,,,,5c553e0ad3cc6b0001d98fd3,not sure ,13 or older,click here to respond,no,2025-07-22_22h09.51.334,empathy_intonation_perc,2024.2.4,MacIntel,63.69426752,5c553e0ad3cc6b0001d98fd3,687ed1b7e638a4cbf2f02089,68804430d468caf09f03e5e8,,,,,,,,,,,,,,1,,,,,,,,,,,,,,,,,,,,,,,,,,,,,,,,,,,,,,,,,,,,,,,,,,,,,,,,,41,rebuscar,,,,,503.6828,505.0648,1,1,0.8422,,0,24,24,40,1,REAL,FAKE,,,,,,,,,,,,,,,,,
,,,,,,,,,5c553e0ad3cc6b0001d98fd3,not sure ,13 or older,click here to respond,no,2025-07-22_22h09.51.334,empathy_intonation_perc,2024.2.4,MacIntel,63.69426752,5c553e0ad3cc6b0001d98fd3,687ed1b7e638a4cbf2f02089,68804430d468caf09f03e5e8,,,,,,,,,,,,,,0,,,,,,,,,,,,,,,,,,,,,,,,,,,,,,,,,,,,,,,,,,,,,,,,,,,,,,,,,70,temblo,,,,,505.0661,506.5976,0,1,0.9883,,0,25,25,69,1,REAL,FAKE,,,,,,,,,,,,,,,,,
,,,,,,,,,5c553e0ad3cc6b0001d98fd3,not sure ,13 or older,click here to respond,no,2025-07-22_22h09.51.334,empathy_intonation_perc,2024.2.4,MacIntel,63.69426752,5c553e0ad3cc6b0001d98fd3,687ed1b7e638a4cbf2f02089,68804430d468caf09f03e5e8,,,,,,,,,,,,,,0,,,,,,,,,,,,,,,,,,,,,,,,,,,,,,,,,,,,,,,,,,,,,,,,,,,,,,,,,29,decar,,,,,506.5994,507.9811,1,0,0.845,,0,26,26,28,1,REAL,FAKE,,,,,,,,,,,,,,,,,
,,,,,,,,,5c553e0ad3cc6b0001d98fd3,not sure ,13 or older,click here to respond,no,2025-07-22_22h09.51.334,empathy_intonation_perc,2024.2.4,MacIntel,63.69426752,5c553e0ad3cc6b0001d98fd3,687ed1b7e638a4cbf2f02089,68804430d468caf09f03e5e8,,,,,,,,,,,,,,1,,,,,,,,,,,,,,,,,,,,,,,,,,,,,,,,,,,,,,,,,,,,,,,,,,,,,,,,,22,lacayo,,,,,507.9817,509.2829,0,0,0.7915,,0,27,27,21,1,REAL,FAKE,,,,,,,,,,,,,,,,,
,,,,,,,,,5c553e0ad3cc6b0001d98fd3,not sure ,13 or older,click here to respond,no,2025-07-22_22h09.51.334,empathy_intonation_perc,2024.2.4,MacIntel,63.69426752,5c553e0ad3cc6b0001d98fd3,687ed1b7e638a4cbf2f02089,68804430d468caf09f03e5e8,,,,,,,,,,,,,,1,,,,,,,,,,,,,,,,,,,,,,,,,,,,,,,,,,,,,,,,,,,,,,,,,,,,,,,,,64,orgulloso,,,,,509.284,510.7146,0,0,0.8948,,0,28,28,63,1,REAL,FAKE,,,,,,,,,,,,,,,,,
,,,,,,,,,5c553e0ad3cc6b0001d98fd3,not sure ,13 or older,click here to respond,no,2025-07-22_22h09.51.334,empathy_intonation_perc,2024.2.4,MacIntel,63.69426752,5c553e0ad3cc6b0001d98fd3,687ed1b7e638a4cbf2f02089,68804430d468caf09f03e5e8,,,,,,,,,,,,,,1,,,,,,,,,,,,,,,,,,,,,,,,,,,,,,,,,,,,,,,,,,,,,,,,,,,,,,,,,71,polvoriento,,,,,510.7154,512.0801,0,0,0.8206,,0,29,29,70,1,REAL,FAKE,,,,,,,,,,,,,,,,,
,,,,,,,,,5c553e0ad3cc6b0001d98fd3,not sure ,13 or older,click here to respond,no,2025-07-22_22h09.51.334,empathy_intonation_perc,2024.2.4,MacIntel,63.69426752,5c553e0ad3cc6b0001d98fd3,687ed1b7e638a4cbf2f02089,68804430d468caf09f03e5e8,,,,,,,,,,,,,,0,,,,,,,,,,,,,,,,,,,,,,,,,,,,,,,,,,,,,,,,,,,,,,,,,,,,,,,,,42,cadallo,,,,,512.0814,513.3306,1,0,0.7196,,0,30,30,41,1,REAL,FAKE,,,,,,,,,,,,,,,,,
,,,,,,,,,5c553e0ad3cc6b0001d98fd3,not sure ,13 or older,click here to respond,no,2025-07-22_22h09.51.334,empathy_intonation_perc,2024.2.4,MacIntel,63.69426752,5c553e0ad3cc6b0001d98fd3,687ed1b7e638a4cbf2f02089,68804430d468caf09f03e5e8,,,,,,,,,,,,,,1,,,,,,,,,,,,,,,,,,,,,,,,,,,,,,,,,,,,,,,,,,,,,,,,,,,,,,,,,62,flaco,,,,,513.3332,514.9814,1,1,1.1162,,0,31,31,61,1,REAL,FAKE,,,,,,,,,,,,,,,,,
,,,,,,,,,5c553e0ad3cc6b0001d98fd3,not sure ,13 or older,click here to respond,no,2025-07-22_22h09.51.334,empathy_intonation_perc,2024.2.4,MacIntel,63.69426752,5c553e0ad3cc6b0001d98fd3,687ed1b7e638a4cbf2f02089,68804430d468caf09f03e5e8,,,,,,,,,,,,,,1,,,,,,,,,,,,,,,,,,,,,,,,,,,,,,,,,,,,,,,,,,,,,,,,,,,,,,,,,65,bizcocho,,,,,514.9825,516.2478,0,0,0.7346,,0,32,32,64,1,REAL,FAKE,,,,,,,,,,,,,,,,,
,,,,,,,,,5c553e0ad3cc6b0001d98fd3,not sure ,13 or older,click here to respond,no,2025-07-22_22h09.51.334,empathy_intonation_perc,2024.2.4,MacIntel,63.69426752,5c553e0ad3cc6b0001d98fd3,687ed1b7e638a4cbf2f02089,68804430d468caf09f03e5e8,,,,,,,,,,,,,,1,,,,,,,,,,,,,,,,,,,,,,,,,,,,,,,,,,,,,,,,,,,,,,,,,,,,,,,,,48,ladrón,,,,,516.2488,517.6644,1,1,0.8831,,0,33,33,47,1,REAL,FAKE,,,,,,,,,,,,,,,,,
,,,,,,,,,5c553e0ad3cc6b0001d98fd3,not sure ,13 or older,click here to respond,no,2025-07-22_22h09.51.334,empathy_intonation_perc,2024.2.4,MacIntel,63.69426752,5c553e0ad3cc6b0001d98fd3,687ed1b7e638a4cbf2f02089,68804430d468caf09f03e5e8,,,,,,,,,,,,,,0,,,,,,,,,,,,,,,,,,,,,,,,,,,,,,,,,,,,,,,,,,,,,,,,,,,,,,,,,79,tropaje,,,,,517.665,519.4812,1,0,1.2847,,0,34,34,78,1,REAL,FAKE,,,,,,,,,,,,,,,,,
,,,,,,,,,5c553e0ad3cc6b0001d98fd3,not sure ,13 or older,click here to respond,no,2025-07-22_22h09.51.334,empathy_intonation_perc,2024.2.4,MacIntel,63.69426752,5c553e0ad3cc6b0001d98fd3,687ed1b7e638a4cbf2f02089,68804430d468caf09f03e5e8,,,,,,,,,,,,,,1,,,,,,,,,,,,,,,,,,,,,,,,,,,,,,,,,,,,,,,,,,,,,,,,,,,,,,,,,39,torpe,,,,,519.4842,520.7644,1,1,0.7455,,0,35,35,38,1,REAL,FAKE,,,,,,,,,,,,,,,,,
,,,,,,,,,5c553e0ad3cc6b0001d98fd3,not sure ,13 or older,click here to respond,no,2025-07-22_22h09.51.334,empathy_intonation_perc,2024.2.4,MacIntel,63.69426752,5c553e0ad3cc6b0001d98fd3,687ed1b7e638a4cbf2f02089,68804430d468caf09f03e5e8,,,,,,,,,,,,,,0,,,,,,,,,,,,,,,,,,,,,,,,,,,,,,,,,,,,,,,,,,,,,,,,,,,,,,,,,84,escuto,,,,,520.7648,522.0647,1,0,0.7794,,0,36,36,83,1,REAL,FAKE,,,,,,,,,,,,,,,,,
,,,,,,,,,5c553e0ad3cc6b0001d98fd3,not sure ,13 or older,click here to respond,no,2025-07-22_22h09.51.334,empathy_intonation_perc,2024.2.4,MacIntel,63.69426752,5c553e0ad3cc6b0001d98fd3,687ed1b7e638a4cbf2f02089,68804430d468caf09f03e5e8,,,,,,,,,,,,,,0,,,,,,,,,,,,,,,,,,,,,,,,,,,,,,,,,,,,,,,,,,,,,,,,,,,,,,,,,18,arsa,,,,,522.0659,523.6148,0,1,1.0074,,0,37,37,17,1,REAL,FAKE,,,,,,,,,,,,,,,,,
,,,,,,,,,5c553e0ad3cc6b0001d98fd3,not sure ,13 or older,click here to respond,no,2025-07-22_22h09.51.334,empathy_intonation_perc,2024.2.4,MacIntel,63.69426752,5c553e0ad3cc6b0001d98fd3,687ed1b7e638a4cbf2f02089,68804430d468caf09f03e5e8,,,,,,,,,,,,,,1,,,,,,,,,,,,,,,,,,,,,,,,,,,,,,,,,,,,,,,,,,,,,,,,,,,,,,,,,78,frondoso,,,,,523.616,525.0807,0,0,0.9212,,0,38,38,77,1,REAL,FAKE,,,,,,,,,,,,,,,,,
,,,,,,,,,5c553e0ad3cc6b0001d98fd3,not sure ,13 or older,click here to respond,no,2025-07-22_22h09.51.334,empathy_intonation_perc,2024.2.4,MacIntel,63.69426752,5c553e0ad3cc6b0001d98fd3,687ed1b7e638a4cbf2f02089,68804430d468caf09f03e5e8,,,,,,,,,,,,,,0,,,,,,,,,,,,,,,,,,,,,,,,,,,,,,,,,,,,,,,,,,,,,,,,,,,,,,,,,1,terzo,,,,,525.0818,526.6659,1,0,1.0544,,0,39,39,0,1,REAL,FAKE,,,,,,,,,,,,,,,,,
,,,,,,,,,5c553e0ad3cc6b0001d98fd3,not sure ,13 or older,click here to respond,no,2025-07-22_22h09.51.334,empathy_intonation_perc,2024.2.4,MacIntel,63.69426752,5c553e0ad3cc6b0001d98fd3,687ed1b7e638a4cbf2f02089,68804430d468caf09f03e5e8,,,,,,,,,,,,,,0,,,,,,,,,,,,,,,,,,,,,,,,,,,,,,,,,,,,,,,,,,,,,,,,,,,,,,,,,72,pemición,,,,,526.6662,528.315,1,0,1.1248,,0,40,40,71,1,REAL,FAKE,,,,,,,,,,,,,,,,,
,,,,,,,,,5c553e0ad3cc6b0001d98fd3,not sure ,13 or older,click here to respond,no,2025-07-22_22h09.51.334,empathy_intonation_perc,2024.2.4,MacIntel,63.69426752,5c553e0ad3cc6b0001d98fd3,687ed1b7e638a4cbf2f02089,68804430d468caf09f03e5e8,,,,,,,,,,,,,,1,,,,,,,,,,,,,,,,,,,,,,,,,,,,,,,,,,,,,,,,,,,,,,,,,,,,,,,,,14,yunque,,,,,528.3159,529.6479,0,0,0.7895,,0,41,41,13,1,REAL,FAKE,,,,,,,,,,,,,,,,,
,,,,,,,,,5c553e0ad3cc6b0001d98fd3,not sure ,13 or older,click here to respond,no,2025-07-22_22h09.51.334,empathy_intonation_perc,2024.2.4,MacIntel,63.69426752,5c553e0ad3cc6b0001d98fd3,687ed1b7e638a4cbf2f02089,68804430d468caf09f03e5e8,,,,,,,,,,,,,,1,,,,,,,,,,,,,,,,,,,,,,,,,,,,,,,,,,,,,,,,,,,,,,,,,,,,,,,,,43,canela,,,,,529.6491,531.0143,1,1,0.8203,,0,42,42,42,1,REAL,FAKE,,,,,,,,,,,,,,,,,
,,,,,,,,,5c553e0ad3cc6b0001d98fd3,not sure ,13 or older,click here to respond,no,2025-07-22_22h09.51.334,empathy_intonation_perc,2024.2.4,MacIntel,63.69426752,5c553e0ad3cc6b0001d98fd3,687ed1b7e638a4cbf2f02089,68804430d468caf09f03e5e8,,,,,,,,,,,,,,0,,,,,,,,,,,,,,,,,,,,,,,,,,,,,,,,,,,,,,,,,,,,,,,,,,,,,,,,,17,floroso,,,,,531.0148,532.431,1,0,0.8836,,0,43,43,16,1,REAL,FAKE,,,,,,,,,,,,,,,,,
,,,,,,,,,5c553e0ad3cc6b0001d98fd3,not sure ,13 or older,click here to respond,no,2025-07-22_22h09.51.334,empathy_intonation_perc,2024.2.4,MacIntel,63.69426752,5c553e0ad3cc6b0001d98fd3,687ed1b7e638a4cbf2f02089,68804430d468caf09f03e5e8,,,,,,,,,,,,,,0,,,,,,,,,,,,,,,,,,,,,,,,,,,,,,,,,,,,,,,,,,,,,,,,,,,,,,,,,27,acutación,,,,,532.4315,533.6827,0,1,0.7379,,0,44,44,26,1,REAL,FAKE,,,,,,,,,,,,,,,,,
,,,,,,,,,5c553e0ad3cc6b0001d98fd3,not sure ,13 or older,click here to respond,no,2025-07-22_22h09.51.334,empathy_intonation_perc,2024.2.4,MacIntel,63.69426752,5c553e0ad3cc6b0001d98fd3,687ed1b7e638a4cbf2f02089,68804430d468caf09f03e5e8,,,,,,,,,,,,,,1,,,,,,,,,,,,,,,,,,,,,,,,,,,,,,,,,,,,,,,,,,,,,,,,,,,,,,,,,40,alfombra,,,,,533.6836,534.9982,0,0,0.7841,,0,45,45,39,1,REAL,FAKE,,,,,,,,,,,,,,,,,
,,,,,,,,,5c553e0ad3cc6b0001d98fd3,not sure ,13 or older,click here to respond,no,2025-07-22_22h09.51.334,empathy_intonation_perc,2024.2.4,MacIntel,63.69426752,5c553e0ad3cc6b0001d98fd3,687ed1b7e638a4cbf2f02089,68804430d468caf09f03e5e8,,,,,,,,,,,,,,1,,,,,,,,,,,,,,,,,,,,,,,,,,,,,,,,,,,,,,,,,,,,,,,,,,,,,,,,,37,granuja,,,,,534.9997,536.348,0,0,0.8149,,0,46,46,36,1,REAL,FAKE,,,,,,,,,,,,,,,,,
,,,,,,,,,5c553e0ad3cc6b0001d98fd3,not sure ,13 or older,click here to respond,no,2025-07-22_22h09.51.334,empathy_intonation_perc,2024.2.4,MacIntel,63.69426752,5c553e0ad3cc6b0001d98fd3,687ed1b7e638a4cbf2f02089,68804430d468caf09f03e5e8,,,,,,,,,,,,,,1,,,,,,,,,,,,,,,,,,,,,,,,,,,,,,,,,,,,,,,,,,,,,,,,,,,,,,,,,12,asesinato,,,,,536.35,537.9472,0,0,1.0604,,0,47,47,11,1,REAL,FAKE,,,,,,,,,,,,,,,,,
,,,,,,,,,5c553e0ad3cc6b0001d98fd3,not sure ,13 or older,click here to respond,no,2025-07-22_22h09.51.334,empathy_intonation_perc,2024.2.4,MacIntel,63.69426752,5c553e0ad3cc6b0001d98fd3,687ed1b7e638a4cbf2f02089,68804430d468caf09f03e5e8,,,,,,,,,,,,,,1,,,,,,,,,,,,,,,,,,,,,,,,,,,,,,,,,,,,,,,,,,,,,,,,,,,,,,,,,73,hervidor,,,,,537.9482,539.2646,1,1,0.7712,,0,48,48,72,1,REAL,FAKE,,,,,,,,,,,,,,,,,
,,,,,,,,,5c553e0ad3cc6b0001d98fd3,not sure ,13 or older,click here to respond,no,2025-07-22_22h09.51.334,empathy_intonation_perc,2024.2.4,MacIntel,63.69426752,5c553e0ad3cc6b0001d98fd3,687ed1b7e638a4cbf2f02089,68804430d468caf09f03e5e8,,,,,,,,,,,,,,1,,,,,,,,,,,,,,,,,,,,,,,,,,,,,,,,,,,,,,,,,,,,,,,,,,,,,,,,,76,atar,,,,,539.2658,540.3314,1,1,0.5314,,0,49,49,75,1,REAL,FAKE,,,,,,,,,,,,,,,,,
,,,,,,,,,5c553e0ad3cc6b0001d98fd3,not sure ,13 or older,click here to respond,no,2025-07-22_22h09.51.334,empathy_intonation_perc,2024.2.4,MacIntel,63.69426752,5c553e0ad3cc6b0001d98fd3,687ed1b7e638a4cbf2f02089,68804430d468caf09f03e5e8,,,,,,,,,,,,,,1,,,,,,,,,,,,,,,,,,,,,,,,,,,,,,,,,,,,,,,,,,,,,,,,,,,,,,,,,36,loro,,,,,540.3329,541.5814,1,1,0.7162,,0,50,50,35,1,REAL,FAKE,,,,,,,,,,,,,,,,,
,,,,,,,,,5c553e0ad3cc6b0001d98fd3,not sure ,13 or older,click here to respond,no,2025-07-22_22h09.51.334,empathy_intonation_perc,2024.2.4,MacIntel,63.69426752,5c553e0ad3cc6b0001d98fd3,687ed1b7e638a4cbf2f02089,68804430d468caf09f03e5e8,,,,,,,,,,,,,,1,,,,,,,,,,,,,,,,,,,,,,,,,,,,,,,,,,,,,,,,,,,,,,,,,,,,,,,,,20,ávido,,,,,541.5845,542.7477,1,1,0.6179,,0,51,51,19,1,REAL,FAKE,,,,,,,,,,,,,,,,,
,,,,,,,,,5c553e0ad3cc6b0001d98fd3,not sure ,13 or older,click here to respond,no,2025-07-22_22h09.51.334,empathy_intonation_perc,2024.2.4,MacIntel,63.69426752,5c553e0ad3cc6b0001d98fd3,687ed1b7e638a4cbf2f02089,68804430d468caf09f03e5e8,,,,,,,,,,,,,,1,,,,,,,,,,,,,,,,,,,,,,,,,,,,,,,,,,,,,,,,,,,,,,,,,,,,,,,,,3,pulmones,,,,,542.7487,543.9176,0,0,0.6323,,0,52,52,2,1,REAL,FAKE,,,,,,,,,,,,,,,,,
,,,,,,,,,5c553e0ad3cc6b0001d98fd3,not sure ,13 or older,click here to respond,no,2025-07-22_22h09.51.334,empathy_intonation_perc,2024.2.4,MacIntel,63.69426752,5c553e0ad3cc6b0001d98fd3,687ed1b7e638a4cbf2f02089,68804430d468caf09f03e5e8,,,,,,,,,,,,,,1,,,,,,,,,,,,,,,,,,,,,,,,,,,,,,,,,,,,,,,,,,,,,,,,,,,,,,,,,69,engatusar,,,,,543.9188,545.1972,0,0,0.7488,,0,53,53,68,1,REAL,FAKE,,,,,,,,,,,,,,,,,
,,,,,,,,,5c553e0ad3cc6b0001d98fd3,not sure ,13 or older,click here to respond,no,2025-07-22_22h09.51.334,empathy_intonation_perc,2024.2.4,MacIntel,63.69426752,5c553e0ad3cc6b0001d98fd3,687ed1b7e638a4cbf2f02089,68804430d468caf09f03e5e8,,,,,,,,,,,,,,1,,,,,,,,,,,,,,,,,,,,,,,,,,,,,,,,,,,,,,,,,,,,,,,,,,,,,,,,,56,musgo,,,,,545.1978,546.4976,0,0,0.765,,0,54,54,55,1,REAL,FAKE,,,,,,,,,,,,,,,,,
,,,,,,,,,5c553e0ad3cc6b0001d98fd3,not sure ,13 or older,click here to respond,no,2025-07-22_22h09.51.334,empathy_intonation_perc,2024.2.4,MacIntel,63.69426752,5c553e0ad3cc6b0001d98fd3,687ed1b7e638a4cbf2f02089,68804430d468caf09f03e5e8,,,,,,,,,,,,,,1,,,,,,,,,,,,,,,,,,,,,,,,,,,,,,,,,,,,,,,,,,,,,,,,,,,,,,,,,89,prisa,,,,,546.4986,547.6173,1,1,0.5923,,0,55,55,88,1,REAL,FAKE,,,,,,,,,,,,,,,,,
,,,,,,,,,5c553e0ad3cc6b0001d98fd3,not sure ,13 or older,click here to respond,no,2025-07-22_22h09.51.334,empathy_intonation_perc,2024.2.4,MacIntel,63.69426752,5c553e0ad3cc6b0001d98fd3,687ed1b7e638a4cbf2f02089,68804430d468caf09f03e5e8,,,,,,,,,,,,,,1,,,,,,,,,,,,,,,,,,,,,,,,,,,,,,,,,,,,,,,,,,,,,,,,,,,,,,,,,61,seda,,,,,547.6187,548.6811,1,1,0.5297,,0,56,56,60,1,REAL,FAKE,,,,,,,,,,,,,,,,,
,,,,,,,,,5c553e0ad3cc6b0001d98fd3,not sure ,13 or older,click here to respond,no,2025-07-22_22h09.51.334,empathy_intonation_perc,2024.2.4,MacIntel,63.69426752,5c553e0ad3cc6b0001d98fd3,687ed1b7e638a4cbf2f02089,68804430d468caf09f03e5e8,,,,,,,,,,,,,,1,,,,,,,,,,,,,,,,,,,,,,,,,,,,,,,,,,,,,,,,,,,,,,,,,,,,,,,,,75,yacer,,,,,548.6818,549.8643,0,0,0.6447,,0,57,57,74,1,REAL,FAKE,,,,,,,,,,,,,,,,,
,,,,,,,,,5c553e0ad3cc6b0001d98fd3,not sure ,13 or older,click here to respond,no,2025-07-22_22h09.51.334,empathy_intonation_perc,2024.2.4,MacIntel,63.69426752,5c553e0ad3cc6b0001d98fd3,687ed1b7e638a4cbf2f02089,68804430d468caf09f03e5e8,,,,,,,,,,,,,,1,,,,,,,,,,,,,,,,,,,,,,,,,,,,,,,,,,,,,,,,,,,,,,,,,,,,,,,,,51,candado,,,,,549.8649,551.031,1,1,0.6272,,0,58,58,50,1,REAL,FAKE,,,,,,,,,,,,,,,,,
,,,,,,,,,5c553e0ad3cc6b0001d98fd3,not sure ,13 or older,click here to respond,no,2025-07-22_22h09.51.334,empathy_intonation_perc,2024.2.4,MacIntel,63.69426752,5c553e0ad3cc6b0001d98fd3,687ed1b7e638a4cbf2f02089,68804430d468caf09f03e5e8,,,,,,,,,,,,,,0,,,,,,,,,,,,,,,,,,,,,,,,,,,,,,,,,,,,,,,,,,,,,,,,,,,,,,,,,30,alardio,,,,,551.0317,552.1313,1,0,0.5613,,0,59,59,29,1,REAL,FAKE,,,,,,,,,,,,,,,,,
,,,,,,,,,5c553e0ad3cc6b0001d98fd3,not sure ,13 or older,click here to respond,no,2025-07-22_22h09.51.334,empathy_intonation_perc,2024.2.4,MacIntel,63.69426752,5c553e0ad3cc6b0001d98fd3,687ed1b7e638a4cbf2f02089,68804430d468caf09f03e5e8,,,,,,,,,,,,,,0,,,,,,,,,,,,,,,,,,,,,,,,,,,,,,,,,,,,,,,,,,,,,,,,,,,,,,,,,66,hacido,,,,,552.1325,553.2646,1,0,0.5933,,0,60,60,65,1,REAL,FAKE,,,,,,,,,,,,,,,,,
,,,,,,,,,5c553e0ad3cc6b0001d98fd3,not sure ,13 or older,click here to respond,no,2025-07-22_22h09.51.334,empathy_intonation_perc,2024.2.4,MacIntel,63.69426752,5c553e0ad3cc6b0001d98fd3,687ed1b7e638a4cbf2f02089,68804430d468caf09f03e5e8,,,,,,,,,,,,,,1,,,,,,,,,,,,,,,,,,,,,,,,,,,,,,,,,,,,,,,,,,,,,,,,,,,,,,,,,28,merodear,,,,,553.2659,554.6669,0,0,0.872,,0,61,61,27,1,REAL,FAKE,,,,,,,,,,,,,,,,,
,,,,,,,,,5c553e0ad3cc6b0001d98fd3,not sure ,13 or older,click here to respond,no,2025-07-22_22h09.51.334,empathy_intonation_perc,2024.2.4,MacIntel,63.69426752,5c553e0ad3cc6b0001d98fd3,687ed1b7e638a4cbf2f02089,68804430d468caf09f03e5e8,,,,,,,,,,,,,,0,,,,,,,,,,,,,,,,,,,,,,,,,,,,,,,,,,,,,,,,,,,,,,,,,,,,,,,,,19,brecedad,,,,,554.6676,556.1976,0,1,0.9968,,0,62,62,18,1,REAL,FAKE,,,,,,,,,,,,,,,,,
,,,,,,,,,5c553e0ad3cc6b0001d98fd3,not sure ,13 or older,click here to respond,no,2025-07-22_22h09.51.334,empathy_intonation_perc,2024.2.4,MacIntel,63.69426752,5c553e0ad3cc6b0001d98fd3,687ed1b7e638a4cbf2f02089,68804430d468caf09f03e5e8,,,,,,,,,,,,,,1,,,,,,,,,,,,,,,,,,,,,,,,,,,,,,,,,,,,,,,,,,,,,,,,,,,,,,,,,11,cenefa,,,,,556.199,557.5646,0,0,0.8332,,0,63,63,10,1,REAL,FAKE,,,,,,,,,,,,,,,,,
,,,,,,,,,5c553e0ad3cc6b0001d98fd3,not sure ,13 or older,click here to respond,no,2025-07-22_22h09.51.334,empathy_intonation_perc,2024.2.4,MacIntel,63.69426752,5c553e0ad3cc6b0001d98fd3,687ed1b7e638a4cbf2f02089,68804430d468caf09f03e5e8,,,,,,,,,,,,,,0,,,,,,,,,,,,,,,,,,,,,,,,,,,,,,,,,,,,,,,,,,,,,,,,,,,,,,,,,47,cartinar,,,,,557.566,558.7311,0,1,0.6194,,0,64,64,46,1,REAL,FAKE,,,,,,,,,,,,,,,,,
,,,,,,,,,5c553e0ad3cc6b0001d98fd3,not sure ,13 or older,click here to respond,no,2025-07-22_22h09.51.334,empathy_intonation_perc,2024.2.4,MacIntel,63.69426752,5c553e0ad3cc6b0001d98fd3,687ed1b7e638a4cbf2f02089,68804430d468caf09f03e5e8,,,,,,,,,,,,,,0,,,,,,,,,,,,,,,,,,,,,,,,,,,,,,,,,,,,,,,,,,,,,,,,,,,,,,,,,32,fatacidad,,,,,558.7331,559.9307,0,1,0.6605,,0,65,65,31,1,REAL,FAKE,,,,,,,,,,,,,,,,,
,,,,,,,,,5c553e0ad3cc6b0001d98fd3,not sure ,13 or older,click here to respond,no,2025-07-22_22h09.51.334,empathy_intonation_perc,2024.2.4,MacIntel,63.69426752,5c553e0ad3cc6b0001d98fd3,687ed1b7e638a4cbf2f02089,68804430d468caf09f03e5e8,,,,,,,,,,,,,,0,,,,,,,,,,,,,,,,,,,,,,,,,,,,,,,,,,,,,,,,,,,,,,,,,,,,,,,,,63,esposante,,,,,559.9317,560.9479,1,0,0.4795,,0,66,66,62,1,REAL,FAKE,,,,,,,,,,,,,,,,,
,,,,,,,,,5c553e0ad3cc6b0001d98fd3,not sure ,13 or older,click here to respond,no,2025-07-22_22h09.51.334,empathy_intonation_perc,2024.2.4,MacIntel,63.69426752,5c553e0ad3cc6b0001d98fd3,687ed1b7e638a4cbf2f02089,68804430d468caf09f03e5e8,,,,,,,,,,,,,,1,,,,,,,,,,,,,,,,,,,,,,,,,,,,,,,,,,,,,,,,,,,,,,,,,,,,,,,,,44,cuchara,,,,,560.9489,562.2146,1,1,0.7298,,0,67,67,43,1,REAL,FAKE,,,,,,,,,,,,,,,,,
,,,,,,,,,5c553e0ad3cc6b0001d98fd3,not sure ,13 or older,click here to respond,no,2025-07-22_22h09.51.334,empathy_intonation_perc,2024.2.4,MacIntel,63.69426752,5c553e0ad3cc6b0001d98fd3,687ed1b7e638a4cbf2f02089,68804430d468caf09f03e5e8,,,,,,,,,,,,,,1,,,,,,,,,,,,,,,,,,,,,,,,,,,,,,,,,,,,,,,,,,,,,,,,,,,,,,,,,85,laúd,,,,,562.2163,563.3802,1,1,0.6321,,0,68,68,84,1,REAL,FAKE,,,,,,,,,,,,,,,,,
,,,,,,,,,5c553e0ad3cc6b0001d98fd3,not sure ,13 or older,click here to respond,no,2025-07-22_22h09.51.334,empathy_intonation_perc,2024.2.4,MacIntel,63.69426752,5c553e0ad3cc6b0001d98fd3,687ed1b7e638a4cbf2f02089,68804430d468caf09f03e5e8,,,,,,,,,,,,,,0,,,,,,,,,,,,,,,,,,,,,,,,,,,,,,,,,,,,,,,,,,,,,,,,,,,,,,,,,82,empirador,,,,,563.3812,564.681,1,0,0.789,,0,69,69,81,1,REAL,FAKE,,,,,,,,,,,,,,,,,
,,,,,,,,,5c553e0ad3cc6b0001d98fd3,not sure ,13 or older,click here to respond,no,2025-07-22_22h09.51.334,empathy_intonation_perc,2024.2.4,MacIntel,63.69426752,5c553e0ad3cc6b0001d98fd3,687ed1b7e638a4cbf2f02089,68804430d468caf09f03e5e8,,,,,,,,,,,,,,0,,,,,,,,,,,,,,,,,,,,,,,,,,,,,,,,,,,,,,,,,,,,,,,,,,,,,,,,,8,cadeña,,,,,564.6814,565.7473,1,0,0.5366,,0,70,70,7,1,REAL,FAKE,,,,,,,,,,,,,,,,,
,,,,,,,,,5c553e0ad3cc6b0001d98fd3,not sure ,13 or older,click here to respond,no,2025-07-22_22h09.51.334,empathy_intonation_perc,2024.2.4,MacIntel,63.69426752,5c553e0ad3cc6b0001d98fd3,687ed1b7e638a4cbf2f02089,68804430d468caf09f03e5e8,,,,,,,,,,,,,,1,,,,,,,,,,,,,,,,,,,,,,,,,,,,,,,,,,,,,,,,,,,,,,,,,,,,,,,,,25,bisagra,,,,,565.7478,566.8476,1,1,0.5803,,0,71,71,24,1,REAL,FAKE,,,,,,,,,,,,,,,,,
,,,,,,,,,5c553e0ad3cc6b0001d98fd3,not sure ,13 or older,click here to respond,no,2025-07-22_22h09.51.334,empathy_intonation_perc,2024.2.4,MacIntel,63.69426752,5c553e0ad3cc6b0001d98fd3,687ed1b7e638a4cbf2f02089,68804430d468caf09f03e5e8,,,,,,,,,,,,,,0,,,,,,,,,,,,,,,,,,,,,,,,,,,,,,,,,,,,,,,,,,,,,,,,,,,,,,,,,74,cintro,,,,,566.8486,567.8478,0,1,0.4724,,0,72,72,73,1,REAL,FAKE,,,,,,,,,,,,,,,,,
,,,,,,,,,5c553e0ad3cc6b0001d98fd3,not sure ,13 or older,click here to respond,no,2025-07-22_22h09.51.334,empathy_intonation_perc,2024.2.4,MacIntel,63.69426752,5c553e0ad3cc6b0001d98fd3,687ed1b7e638a4cbf2f02089,68804430d468caf09f03e5e8,,,,,,,,,,,,,,1,,,,,,,,,,,,,,,,,,,,,,,,,,,,,,,,,,,,,,,,,,,,,,,,,,,,,,,,,31,pandilla,,,,,567.8496,568.7475,1,1,0.3617,,0,73,73,30,1,REAL,FAKE,,,,,,,,,,,,,,,,,
,,,,,,,,,5c553e0ad3cc6b0001d98fd3,not sure ,13 or older,click here to respond,no,2025-07-22_22h09.51.334,empathy_intonation_perc,2024.2.4,MacIntel,63.69426752,5c553e0ad3cc6b0001d98fd3,687ed1b7e638a4cbf2f02089,68804430d468caf09f03e5e8,,,,,,,,,,,,,,1,,,,,,,,,,,,,,,,,,,,,,,,,,,,,,,,,,,,,,,,,,,,,,,,,,,,,,,,,9,hacha,,,,,568.7482,569.7646,1,1,0.499,,0,74,74,8,1,REAL,FAKE,,,,,,,,,,,,,,,,,
,,,,,,,,,5c553e0ad3cc6b0001d98fd3,not sure ,13 or older,click here to respond,no,2025-07-22_22h09.51.334,empathy_intonation_perc,2024.2.4,MacIntel,63.69426752,5c553e0ad3cc6b0001d98fd3,687ed1b7e638a4cbf2f02089,68804430d468caf09f03e5e8,,,,,,,,,,,,,,1,,,,,,,,,,,,,,,,,,,,,,,,,,,,,,,,,,,,,,,,,,,,,,,,,,,,,,,,,67,cabello,,,,,569.7656,570.8476,1,1,0.5358,,0,75,75,66,1,REAL,FAKE,,,,,,,,,,,,,,,,,
,,,,,,,,,5c553e0ad3cc6b0001d98fd3,not sure ,13 or older,click here to respond,no,2025-07-22_22h09.51.334,empathy_intonation_perc,2024.2.4,MacIntel,63.69426752,5c553e0ad3cc6b0001d98fd3,687ed1b7e638a4cbf2f02089,68804430d468caf09f03e5e8,,,,,,,,,,,,,,0,,,,,,,,,,,,,,,,,,,,,,,,,,,,,,,,,,,,,,,,,,,,,,,,,,,,,,,,,23,lampera,,,,,570.8482,571.8489,1,0,0.4896,,0,76,76,22,1,REAL,FAKE,,,,,,,,,,,,,,,,,
,,,,,,,,,5c553e0ad3cc6b0001d98fd3,not sure ,13 or older,click here to respond,no,2025-07-22_22h09.51.334,empathy_intonation_perc,2024.2.4,MacIntel,63.69426752,5c553e0ad3cc6b0001d98fd3,687ed1b7e638a4cbf2f02089,68804430d468caf09f03e5e8,,,,,,,,,,,,,,0,,,,,,,,,,,,,,,,,,,,,,,,,,,,,,,,,,,,,,,,,,,,,,,,,,,,,,,,,87,grodo,,,,,571.8515,573.082,0,1,0.7076,,0,77,77,86,1,REAL,FAKE,,,,,,,,,,,,,,,,,
,,,,,,,,,5c553e0ad3cc6b0001d98fd3,not sure ,13 or older,click here to respond,no,2025-07-22_22h09.51.334,empathy_intonation_perc,2024.2.4,MacIntel,63.69426752,5c553e0ad3cc6b0001d98fd3,687ed1b7e638a4cbf2f02089,68804430d468caf09f03e5e8,,,,,,,,,,,,,,0,,,,,,,,,,,,,,,,,,,,,,,,,,,,,,,,,,,,,,,,,,,,,,,,,,,,,,,,,35,rompido,,,,,573.0831,574.3312,0,1,0.7055,,0,78,78,34,1,REAL,FAKE,,,,,,,,,,,,,,,,,
,,,,,,,,,5c553e0ad3cc6b0001d98fd3,not sure ,13 or older,click here to respond,no,2025-07-22_22h09.51.334,empathy_intonation_perc,2024.2.4,MacIntel,63.69426752,5c553e0ad3cc6b0001d98fd3,687ed1b7e638a4cbf2f02089,68804430d468caf09f03e5e8,,,,,,,,,,,,,,1,,,,,,,,,,,,,,,,,,,,,,,,,,,,,,,,,,,,,,,,,,,,,,,,,,,,,,,,,59,besar,,,,,574.3323,575.2649,1,1,0.3983,,0,79,79,58,1,REAL,FAKE,,,,,,,,,,,,,,,,,
,,,,,,,,,5c553e0ad3cc6b0001d98fd3,not sure ,13 or older,click here to respond,no,2025-07-22_22h09.51.334,empathy_intonation_perc,2024.2.4,MacIntel,63.69426752,5c553e0ad3cc6b0001d98fd3,687ed1b7e638a4cbf2f02089,68804430d468caf09f03e5e8,,,,,,,,,,,,,,0,,,,,,,,,,,,,,,,,,,,,,,,,,,,,,,,,,,,,,,,,,,,,,,,,,,,,,,,,21,capillo,,,,,575.2667,576.3526,1,0,0.5597,,0,80,80,20,1,REAL,FAKE,,,,,,,,,,,,,,,,,
,,,,,,,,,5c553e0ad3cc6b0001d98fd3,not sure ,13 or older,click here to respond,no,2025-07-22_22h09.51.334,empathy_intonation_perc,2024.2.4,MacIntel,63.69426752,5c553e0ad3cc6b0001d98fd3,687ed1b7e638a4cbf2f02089,68804430d468caf09f03e5e8,,,,,,,,,,,,,,1,,,,,,,,,,,,,,,,,,,,,,,,,,,,,,,,,,,,,,,,,,,,,,,,,,,,,,,,,24,látigo,,,,,576.3543,577.3809,1,1,0.4997,,0,81,81,23,1,REAL,FAKE,,,,,,,,,,,,,,,,,
,,,,,,,,,5c553e0ad3cc6b0001d98fd3,not sure ,13 or older,click here to respond,no,2025-07-22_22h09.51.334,empathy_intonation_perc,2024.2.4,MacIntel,63.69426752,5c553e0ad3cc6b0001d98fd3,687ed1b7e638a4cbf2f02089,68804430d468caf09f03e5e8,,,,,,,,,,,,,,1,,,,,,,,,,,,,,,,,,,,,,,,,,,,,,,,,,,,,,,,,,,,,,,,,,,,,,,,,60,matar,,,,,577.3813,578.2809,1,1,0.3704,,0,82,82,59,1,REAL,FAKE,,,,,,,,,,,,,,,,,
,,,,,,,,,5c553e0ad3cc6b0001d98fd3,not sure ,13 or older,click here to respond,no,2025-07-22_22h09.51.334,empathy_intonation_perc,2024.2.4,MacIntel,63.69426752,5c553e0ad3cc6b0001d98fd3,687ed1b7e638a4cbf2f02089,68804430d468caf09f03e5e8,,,,,,,,,,,,,,1,,,,,,,,,,,,,,,,,,,,,,,,,,,,,,,,,,,,,,,,,,,,,,,,,,,,,,,,,38,estornudar,,,,,578.2816,579.2475,0,0,0.4232,,0,83,83,37,1,REAL,FAKE,,,,,,,,,,,,,,,,,
,,,,,,,,,5c553e0ad3cc6b0001d98fd3,not sure ,13 or older,click here to respond,no,2025-07-22_22h09.51.334,empathy_intonation_perc,2024.2.4,MacIntel,63.69426752,5c553e0ad3cc6b0001d98fd3,687ed1b7e638a4cbf2f02089,68804430d468caf09f03e5e8,,,,,,,,,,,,,,1,,,,,,,,,,,,,,,,,,,,,,,,,,,,,,,,,,,,,,,,,,,,,,,,,,,,,,,,,90,clavel,,,,,579.2481,580.1979,1,1,0.4136,,0,84,84,89,1,REAL,FAKE,,,,,,,,,,,,,,,,,
,,,,,,,,,5c553e0ad3cc6b0001d98fd3,not sure ,13 or older,click here to respond,no,2025-07-22_22h09.51.334,empathy_intonation_perc,2024.2.4,MacIntel,63.69426752,5c553e0ad3cc6b0001d98fd3,687ed1b7e638a4cbf2f02089,68804430d468caf09f03e5e8,,,,,,,,,,,,,,1,,,,,,,,,,,,,,,,,,,,,,,,,,,,,,,,,,,,,,,,,,,,,,,,,,,,,,,,,88,acantilado,,,,,580.1996,581.2475,1,1,0.5226,,0,85,85,87,1,REAL,FAKE,,,,,,,,,,,,,,,,,
,,,,,,,,,5c553e0ad3cc6b0001d98fd3,not sure ,13 or older,click here to respond,no,2025-07-22_22h09.51.334,empathy_intonation_perc,2024.2.4,MacIntel,63.69426752,5c553e0ad3cc6b0001d98fd3,687ed1b7e638a4cbf2f02089,68804430d468caf09f03e5e8,,,,,,,,,,,,,,1,,,,,,,,,,,,,,,,,,,,,,,,,,,,,,,,,,,,,,,,,,,,,,,,,,,,,,,,,86,barato,,,,,581.2478,582.3138,0,0,0.5479,,0,86,86,85,1,REAL,FAKE,,,,,,,,,,,,,,,,,
,,,,,,,,,5c553e0ad3cc6b0001d98fd3,not sure ,13 or older,click here to respond,no,2025-07-22_22h09.51.334,empathy_intonation_perc,2024.2.4,MacIntel,63.69426752,5c553e0ad3cc6b0001d98fd3,687ed1b7e638a4cbf2f02089,68804430d468caf09f03e5e8,,,,,,,,,,,,,,0,,,,,,,,,,,,,,,,,,,,,,,,,,,,,,,,,,,,,,,,,,,,,,,,,,,,,,,,,10,antar,,,,,582.3147,583.1802,1,0,0.3511,,0,87,87,9,1,REAL,FAKE,,,,,,,,,,,,,,,,,
,,,,,,,,,5c553e0ad3cc6b0001d98fd3,not sure ,13 or older,click here to respond,no,2025-07-22_22h09.51.334,empathy_intonation_perc,2024.2.4,MacIntel,63.69426752,5c553e0ad3cc6b0001d98fd3,687ed1b7e638a4cbf2f02089,68804430d468caf09f03e5e8,,,,,,,,,,,,,,0,,,,,,,,,,,,,,,,,,,,,,,,,,,,,,,,,,,,,,,,,,,,,,,,,,,,,,,,,58,plaudir,,,,,583.1806,584.1478,1,0,0.4572,,0,88,88,57,1,REAL,FAKE,,,,,,,,,,,,,,,,,
,,,,,,,,,5c553e0ad3cc6b0001d98fd3,not sure ,13 or older,click here to respond,no,2025-07-22_22h09.51.334,empathy_intonation_perc,2024.2.4,MacIntel,63.69426752,5c553e0ad3cc6b0001d98fd3,687ed1b7e638a4cbf2f02089,68804430d468caf09f03e5e8,,,,,,,,,,,,,,1,,,,,,,,,,,,,,,,,,,,,,,,,,,,,,,,,,,,,,,,,,,,,,,,,,,,,,,,,54,fomentar,,,,,584.149,584.9312,0,0,0.2487,,0,89,89,53,1,REAL,FAKE,,,,,,,,,,,,,,,,,
,,,,,,,,,5c553e0ad3cc6b0001d98fd3,not sure ,13 or older,click here to respond,no,2025-07-22_22h09.51.334,empathy_intonation_perc,2024.2.4,MacIntel,63.69426752,5c553e0ad3cc6b0001d98fd3,687ed1b7e638a4cbf2f02089,68804430d468caf09f03e5e8,,,,,,,,,,,,,,0,,,,,,,,,,,,,,,,,,,,,,,,,,,,,,,,,,,,,,,,,,,,,,,,,,,,,,,,,33,pauca,,,,,584.9325,585.8992,1,0,0.4425,,0,90,90,32,1,REAL,FAKE,,,,,,,,,,,,,,,,,
,,,,,,,,,5c553e0ad3cc6b0001d98fd3,not sure ,13 or older,click here to respond,no,2025-07-22_22h09.51.334,empathy_intonation_perc,2024.2.4,MacIntel,63.69426752,5c553e0ad3cc6b0001d98fd3,687ed1b7e638a4cbf2f02089,68804430d468caf09f03e5e8,,,,,,,,,,,,,,0,,,,,,,,,,,,,,,,,,,,,,,,,,,,,,,,,,,,,,,,,,,,,,,,,,,,,,,,,53,vegada,,,,,585.9003,587.0476,1,0,0.6236,,0,91,91,52,1,REAL,FAKE,,,,,,,,,,,,,,,,,
,,,,,,,,,5c553e0ad3cc6b0001d98fd3,not sure ,13 or older,click here to respond,no,2025-07-22_22h09.51.334,empathy_intonation_perc,2024.2.4,MacIntel,63.69426752,5c553e0ad3cc6b0001d98fd3,687ed1b7e638a4cbf2f02089,68804430d468caf09f03e5e8,,,,,,,,,,,,,,,,,,,,,,,,,,,,,,,,,,,,,,,,,,,,,,,,,,,,,,,,,,,,,,,,,,,,,,,,,,,,,,,,,,,,,,,,,,587.048,591.5478,,,,,,,,,,,,,,,
,,,,,,,,,5c553e0ad3cc6b0001d98fd3,not sure ,13 or older,click here to respond,no,2025-07-22_22h09.51.334,empathy_intonation_perc,2024.2.4,MacIntel,63.69426752,5c553e0ad3cc6b0001d98fd3,687ed1b7e638a4cbf2f02089,68804430d468caf09f03e5e8,,,,,,,,,,,,,1,,,,,,,,,,,,,,,,,,,,,,,,,,,,,,,,,,,,,,,,,,,,,,,,,,,,,,,,,,,,,,,,,,,,,,,,,,,,,,,591.559,597.7981,strongly agree,0,0,0,0,1,I can easily tell if someone else wants to enter a conversation.,1,0,1,0,,
,,,,,,,,,5c553e0ad3cc6b0001d98fd3,not sure ,13 or older,click here to respond,no,2025-07-22_22h09.51.334,empathy_intonation_perc,2024.2.4,MacIntel,63.69426752,5c553e0ad3cc6b0001d98fd3,687ed1b7e638a4cbf2f02089,68804430d468caf09f03e5e8,,,,,,,,,,,,,2,,,,,,,,,,,,,,,,,,,,,,,,,,,,,,,,,,,,,,,,,,,,,,,,,,,,,,,,,,,,,,,,,,,,,,,,,,,,,,,597.7997,607.6149,slightly agree,0,1,1,1,1,I prefer animals to humans.,0,1,0,0,,
,,,,,,,,,5c553e0ad3cc6b0001d98fd3,not sure ,13 or older,click here to respond,no,2025-07-22_22h09.51.334,empathy_intonation_perc,2024.2.4,MacIntel,63.69426752,5c553e0ad3cc6b0001d98fd3,687ed1b7e638a4cbf2f02089,68804430d468caf09f03e5e8,,,,,,,,,,,,,3,,,,,,,,,,,,,,,,,,,,,,,,,,,,,,,,,,,,,,,,,,,,,,,,,,,,,,,,,,,,,,,,,,,,,,,,,,,,,,,607.6174,611.8967,slightly agree,0,2,2,2,1,I try to keep up with the current trends and fashions.,0,1,0,0,,
,,,,,,,,,5c553e0ad3cc6b0001d98fd3,not sure ,13 or older,click here to respond,no,2025-07-22_22h09.51.334,empathy_intonation_perc,2024.2.4,MacIntel,63.69426752,5c553e0ad3cc6b0001d98fd3,687ed1b7e638a4cbf2f02089,68804430d468caf09f03e5e8,,,,,,,,,,,,,4,,,,,,,,,,,,,,,,,,,,,,,,,,,,,,,,,,,,,,,,,,,,,,,,,,,,,,,,,,,,,,,,,,,,,,,,,,,,,,,611.8988,619.1836,slightly disagree,0,3,3,3,1,"I find it difficult to explain to others things that I understand easily,   when they don't understand it first time.",1,0,0,1,,
,,,,,,,,,5c553e0ad3cc6b0001d98fd3,not sure ,13 or older,click here to respond,no,2025-07-22_22h09.51.334,empathy_intonation_perc,2024.2.4,MacIntel,63.69426752,5c553e0ad3cc6b0001d98fd3,687ed1b7e638a4cbf2f02089,68804430d468caf09f03e5e8,,,,,,,,,,,,,5,,,,,,,,,,,,,,,,,,,,,,,,,,,,,,,,,,,,,,,,,,,,,,,,,,,,,,,,,,,,,,,,,,,,,,,,,,,,,,,619.186,621.3806,slightly disagree,0,4,4,4,1,I dream most nights.,0,1,0,0,,
,,,,,,,,,5c553e0ad3cc6b0001d98fd3,not sure ,13 or older,click here to respond,no,2025-07-22_22h09.51.334,empathy_intonation_perc,2024.2.4,MacIntel,63.69426752,5c553e0ad3cc6b0001d98fd3,687ed1b7e638a4cbf2f02089,68804430d468caf09f03e5e8,,,,,,,,,,,,,6,,,,,,,,,,,,,,,,,,,,,,,,,,,,,,,,,,,,,,,,,,,,,,,,,,,,,,,,,,,,,,,,,,,,,,,,,,,,,,,621.382,623.7306,strongly agree,0,5,5,5,1,I really enjoy caring for other people.,1,0,1,0,,
,,,,,,,,,5c553e0ad3cc6b0001d98fd3,not sure ,13 or older,click here to respond,no,2025-07-22_22h09.51.334,empathy_intonation_perc,2024.2.4,MacIntel,63.69426752,5c553e0ad3cc6b0001d98fd3,687ed1b7e638a4cbf2f02089,68804430d468caf09f03e5e8,,,,,,,,,,,,,7,,,,,,,,,,,,,,,,,,,,,,,,,,,,,,,,,,,,,,,,,,,,,,,,,,,,,,,,,,,,,,,,,,,,,,,,,,,,,,,623.7312,628.0308,strongly agree,0,6,6,6,1,I try to solve my own problems rather than discussing them with others.,0,1,0,0,,
,,,,,,,,,5c553e0ad3cc6b0001d98fd3,not sure ,13 or older,click here to respond,no,2025-07-22_22h09.51.334,empathy_intonation_perc,2024.2.4,MacIntel,63.69426752,5c553e0ad3cc6b0001d98fd3,687ed1b7e638a4cbf2f02089,68804430d468caf09f03e5e8,,,,,,,,,,,,,8,,,,,,,,,,,,,,,,,,,,,,,,,,,,,,,,,,,,,,,,,,,,,,,,,,,,,,,,,,,,,,,,,,,,,,,,,,,,,,,628.0321,630.7987,slightly agree,0,7,7,7,1,I find it hard to know what to do in a social situation.,1,0,0,1,,
,,,,,,,,,5c553e0ad3cc6b0001d98fd3,not sure ,13 or older,click here to respond,no,2025-07-22_22h09.51.334,empathy_intonation_perc,2024.2.4,MacIntel,63.69426752,5c553e0ad3cc6b0001d98fd3,687ed1b7e638a4cbf2f02089,68804430d468caf09f03e5e8,,,,,,,,,,,,,9,,,,,,,,,,,,,,,,,,,,,,,,,,,,,,,,,,,,,,,,,,,,,,,,,,,,,,,,,,,,,,,,,,,,,,,,,,,,,,,630.8002,638.1329,slightly disagree,0,8,8,8,1,I am at my best first thing in the morning.,0,1,0,0,,
,,,,,,,,,5c553e0ad3cc6b0001d98fd3,not sure ,13 or older,click here to respond,no,2025-07-22_22h09.51.334,empathy_intonation_perc,2024.2.4,MacIntel,63.69426752,5c553e0ad3cc6b0001d98fd3,687ed1b7e638a4cbf2f02089,68804430d468caf09f03e5e8,,,,,,,,,,,,,10,,,,,,,,,,,,,,,,,,,,,,,,,,,,,,,,,,,,,,,,,,,,,,,,,,,,,,,,,,,,,,,,,,,,,,,,,,,,,,,638.1379,644.9463,slightly agree,0,9,9,9,1,People often tell me that I went too far in driving my point home in a discussion.,1,0,0,1,,
,,,,,,,,,5c553e0ad3cc6b0001d98fd3,not sure ,13 or older,click here to respond,no,2025-07-22_22h09.51.334,empathy_intonation_perc,2024.2.4,MacIntel,63.69426752,5c553e0ad3cc6b0001d98fd3,687ed1b7e638a4cbf2f02089,68804430d468caf09f03e5e8,,,,,,,,,,,,,11,,,,,,,,,,,,,,,,,,,,,,,,,,,,,,,,,,,,,,,,,,,,,,,,,,,,,,,,,,,,,,,,,,,,,,,,,,,,,,,644.9473,651.364,strongly disagree,0,10,10,10,1,It doesn't bother me too much if I am late meeting a friend.,1,0,0,1,,
