instructions_exposure.started,instructions_exposure.stopped,instructions_exposure_loop.thisRepN,instructions_exposure_loop.thisTrialN,instructions_exposure_loop.thisN,instructions_exposure_loop.thisIndex,instructions_exposure_loop.ran,instructions_text,continue_text,participant_id,"What variety of Spanish are you most familiar with? (e.g., Peruvian, Spanish, Mexican)",At what age did you begin learning Spanish?,Are you proficient in any languages other than English/Spanish?,"Are you familiar with Caribbean (e.g., Caribbean, Puerto Rican) or Galician Spanish?",date,expName,psychopyVersion,OS,frameRate,id,study_id,session,trial_exposure.started,trial_exposure.stopped,key_resp_exposure.keys,key_resp_exposure.corr,key_resp_exposure.rt,key_resp_exposure.duration,key_resp.keys,exposure_loop.thisRepN,exposure_loop.thisTrialN,exposure_loop.thisN,exposure_loop.thisIndex,exposure_loop.ran,item_num,correct_response,question,path,duration,instructions_2afc.started,instructions_2afc.stopped,instructions_2afc_loop.thisRepN,instructions_2afc_loop.thisTrialN,instructions_2afc_loop.thisN,instructions_2afc_loop.thisIndex,instructions_2afc_loop.ran,practice_2afc.started,practice_2afc.stopped,key_resp_2afc_practice.keys,key_resp_2afc_practice.corr,key_resp_2afc_practice.rt,key_resp_2afc_practice.duration,trials_2afc_practice_loop.thisRepN,trials_2afc_practice_loop.thisTrialN,trials_2afc_practice_loop.thisN,trials_2afc_practice_loop.thisIndex,trials_2afc_practice_loop.ran,check_2afc.started,check_2afc.stopped,trial_2afc.started,trial_2afc.stopped,key_resp_2afc_trial.keys,key_resp_2afc_trial.corr,key_resp_2afc_trial.rt,key_resp_2afc_trial.duration,trials_2afc_loop.thisRepN,trials_2afc_loop.thisTrialN,trials_2afc_loop.thisN,trials_2afc_loop.thisIndex,trials_2afc_loop.ran,target,variety,instructions_lextale.started,instructions_lextale.stopped,instructions_lextale_loop.thisRepN,instructions_lextale_loop.thisTrialN,instructions_lextale_loop.thisN,instructions_lextale_loop.thisIndex,instructions_lextale_loop.ran,practice_lextale.started,practice_lextale.stopped,key_resp_lextale_practice.keys,key_resp_lextale_practice.corr,key_resp_lextale_practice.rt,key_resp_lextale_practice.duration,practice_feedback_lextale.started,practice_feedback_lextale.stopped,trials_lextale_practice_loop.thisRepN,trials_lextale_practice_loop.thisTrialN,trials_lextale_practice_loop.thisN,trials_lextale_practice_loop.thisIndex,trials_lextale_practice_loop.ran,stim,word,prac_button_real,prac_button_false,check_lextale.started,check_lextale.stopped,trial_lextale.started,trial_lextale.stopped,key_resp_lextale_trial.keys,key_resp_lextale_trial.corr,key_resp_lextale_trial.rt,key_resp_lextale_trial.duration,trials_lextale_loop.thisRepN,trials_lextale_loop.thisTrialN,trials_lextale_loop.thisN,trials_lextale_loop.thisIndex,trials_lextale_loop.ran,button_real,button_false,instructions_eq.started,instructions_eq.stopped,trial_eq.started,trial_eq.stopped,slider_eq_trial.response,trials_eq_loop.thisRepN,trials_eq_loop.thisTrialN,trials_eq_loop.thisN,trials_eq_loop.thisIndex,trials_eq_loop.ran,item,is_test_item,is_distractor,is_agree_score,is_disagree_score,end_exp.started,end_exp.stopped
0.0115,2.1749,0,0,0,0,1,"In the following task, you are going to hear a series of conversations.", (press the space bar to continue),5c66ed5b2d31c20001b09d7f,Spanish,13 or older,"no, only English or Spanish",no,2025-07-23_08h32.41.537,empathy_intonation_perc,2024.2.4,Win32,60.24096386,5c66ed5b2d31c20001b09d7f,687ed1b7e638a4cbf2f02089,6880d63bd0a9ae71b6913231,,,,,,,,,,,,,,,,,,,,,,,,,,,,,,,,,,,,,,,,,,,,,,,,,,,,,,,,,,,,,,,,,,,,,,,,,,,,,,,,,,,,,,,,,,,,,,,,,,,,,,,,,,
2.1757,5.941,0,1,1,1,1,It is okay if you don't not 100% understand them!, (press the space bar to continue),5c66ed5b2d31c20001b09d7f,Spanish,13 or older,"no, only English or Spanish",no,2025-07-23_08h32.41.537,empathy_intonation_perc,2024.2.4,Win32,60.24096386,5c66ed5b2d31c20001b09d7f,687ed1b7e638a4cbf2f02089,6880d63bd0a9ae71b6913231,,,,,,,,,,,,,,,,,,,,,,,,,,,,,,,,,,,,,,,,,,,,,,,,,,,,,,,,,,,,,,,,,,,,,,,,,,,,,,,,,,,,,,,,,,,,,,,,,,,,,,,,,,
5.9423,13.5906,0,2,2,2,1,"After, you will read a sentence about the conversation and decide if it's true or false.", (press the space bar to continue),5c66ed5b2d31c20001b09d7f,Spanish,13 or older,"no, only English or Spanish",no,2025-07-23_08h32.41.537,empathy_intonation_perc,2024.2.4,Win32,60.24096386,5c66ed5b2d31c20001b09d7f,687ed1b7e638a4cbf2f02089,6880d63bd0a9ae71b6913231,,,,,,,,,,,,,,,,,,,,,,,,,,,,,,,,,,,,,,,,,,,,,,,,,,,,,,,,,,,,,,,,,,,,,,,,,,,,,,,,,,,,,,,,,,,,,,,,,,,,,,,,,,
13.5924,15.379,0,3,3,3,1,"If it's true, press '1' (True) and if it's false press '0' (False).", (press the space bar to continue),5c66ed5b2d31c20001b09d7f,Spanish,13 or older,"no, only English or Spanish",no,2025-07-23_08h32.41.537,empathy_intonation_perc,2024.2.4,Win32,60.24096386,5c66ed5b2d31c20001b09d7f,687ed1b7e638a4cbf2f02089,6880d63bd0a9ae71b6913231,,,,,,,,,,,,,,,,,,,,,,,,,,,,,,,,,,,,,,,,,,,,,,,,,,,,,,,,,,,,,,,,,,,,,,,,,,,,,,,,,,,,,,,,,,,,,,,,,,,,,,,,,,
,,,,,,,,,5c66ed5b2d31c20001b09d7f,Spanish,13 or older,"no, only English or Spanish",no,2025-07-23_08h32.41.537,empathy_intonation_perc,2024.2.4,Win32,60.24096386,5c66ed5b2d31c20001b09d7f,687ed1b7e638a4cbf2f02089,6880d63bd0a9ae71b6913231,15.3837,79.7913,1,1,4.3593,,,0,0,0,1,1,2,1,The mom asked the daughter if she already went to the supermarket.,./stim/exposure_wavs/dr_stimuli_convo.wav,60,,,,,,,,,,,,,,,,,,,,,,,,,,,,,,,,,,,,,,,,,,,,,,,,,,,,,,,,,,,,,,,,,,,,,,,,,,,,,,,,,,,,,,,,,
,,,,,,,,,5c66ed5b2d31c20001b09d7f,Spanish,13 or older,"no, only English or Spanish",no,2025-07-23_08h32.41.537,empathy_intonation_perc,2024.2.4,Win32,60.24096386,5c66ed5b2d31c20001b09d7f,687ed1b7e638a4cbf2f02089,6880d63bd0a9ae71b6913231,79.7927,131.5905,1,1,4.7549,,,0,1,1,0,1,1,1,The son asked the mom if Aunt Marina is okay.,./stim/exposure_wavs/ga_stimuli_convo.wav,47,,,,,,,,,,,,,,,,,,,,,,,,,,,,,,,,,,,,,,,,,,,,,,,,,,,,,,,,,,,,,,,,,,,,,,,,,,,,,,,,,,,,,,,,,
,,,,,,,,,5c66ed5b2d31c20001b09d7f,Spanish,13 or older,"no, only English or Spanish",no,2025-07-23_08h32.41.537,empathy_intonation_perc,2024.2.4,Win32,60.24096386,5c66ed5b2d31c20001b09d7f,687ed1b7e638a4cbf2f02089,6880d63bd0a9ae71b6913231,131.5922,170.8575,0,1,3.2442,,,0,2,2,2,1,3,0,The mom already has rice.,./stim/exposure_wavs/pr_stimuli_convo.wav,36,,,,,,,,,,,,,,,,,,,,,,,,,,,,,,,,,,,,,,,,,,,,,,,,,,,,,,,,,,,,,,,,,,,,,,,,,,,,,,,,,,,,,,,,,
,,,,,,,"In the following task you are going to hear a series of utterances. 

  You will decide if the utterances sound like questions or not using your keyboard.", (press the spacebar to continue),5c66ed5b2d31c20001b09d7f,Spanish,13 or older,"no, only English or Spanish",no,2025-07-23_08h32.41.537,empathy_intonation_perc,2024.2.4,Win32,60.24096386,5c66ed5b2d31c20001b09d7f,687ed1b7e638a4cbf2f02089,6880d63bd0a9ae71b6913231,,,,,,,,,,,,,,,,,,170.8609,179.3746,0,0,0,0,1,,,,,,,,,,,,,,,,,,,,,,,,,,,,,,,,,,,,,,,,,,,,,,,,,,,,,,,,,,,,,,,,,,,,,,,,,,,,,,,,,,
,,,,,,,"If you believe the utterance is a question, type '1' (for 'yes') and if you do not 
  believe it is a question type '0' (for 'no').

  Let's practice a bit...", (press the spacebar to continue),5c66ed5b2d31c20001b09d7f,Spanish,13 or older,"no, only English or Spanish",no,2025-07-23_08h32.41.537,empathy_intonation_perc,2024.2.4,Win32,60.24096386,5c66ed5b2d31c20001b09d7f,687ed1b7e638a4cbf2f02089,6880d63bd0a9ae71b6913231,,,,,,,,,,,,,,,,,,179.376,196.6958,0,1,1,1,1,,,,,,,,,,,,,,,,,,,,,,,,,,,,,,,,,,,,,,,,,,,,,,,,,,,,,,,,,,,,,,,,,,,,,,,,,,,,,,,,,,
,,,,,,,,,5c66ed5b2d31c20001b09d7f,Spanish,13 or older,"no, only English or Spanish",no,2025-07-23_08h32.41.537,empathy_intonation_perc,2024.2.4,Win32,60.24096386,5c66ed5b2d31c20001b09d7f,687ed1b7e638a4cbf2f02089,6880d63bd0a9ae71b6913231,,,,,,,,,,,,,,0,,./stim/wavs/andalusian_statement_filler_Alberto-nunca-se-afeita.wav,,,,,,,,,196.6994,199.4405,0,1,2.2275,,0,0,0,5,1,,,,,,,,,,,,,,,,,,,,,,,,,,,,,,,,,,,,,,,,,,,,,,,,,,,,,,,,,,,,,,,,,,,,,,,
,,,,,,,,,5c66ed5b2d31c20001b09d7f,Spanish,13 or older,"no, only English or Spanish",no,2025-07-23_08h32.41.537,empathy_intonation_perc,2024.2.4,Win32,60.24096386,5c66ed5b2d31c20001b09d7f,687ed1b7e638a4cbf2f02089,6880d63bd0a9ae71b6913231,,,,,,,,,,,,,,0,,./stim/wavs/puertorican_statement_filler_La-nina-pinta-con-su-amiga.wav,,,,,,,,,199.4414,201.8905,0,1,1.9405,,0,1,1,7,1,,,,,,,,,,,,,,,,,,,,,,,,,,,,,,,,,,,,,,,,,,,,,,,,,,,,,,,,,,,,,,,,,,,,,,,
,,,,,,,,,5c66ed5b2d31c20001b09d7f,Spanish,13 or older,"no, only English or Spanish",no,2025-07-23_08h32.41.537,empathy_intonation_perc,2024.2.4,Win32,60.24096386,5c66ed5b2d31c20001b09d7f,687ed1b7e638a4cbf2f02089,6880d63bd0a9ae71b6913231,,,,,,,,,,,,,,1,,./stim/wavs/argentine_question_filler_Mi-vecino-habla-mucho.wav,,,,,,,,,201.8911,203.9241,1,1,1.5035,,0,2,2,1,1,,,,,,,,,,,,,,,,,,,,,,,,,,,,,,,,,,,,,,,,,,,,,,,,,,,,,,,,,,,,,,,,,,,,,,,
,,,,,,,,,5c66ed5b2d31c20001b09d7f,Spanish,13 or older,"no, only English or Spanish",no,2025-07-23_08h32.41.537,empathy_intonation_perc,2024.2.4,Win32,60.24096386,5c66ed5b2d31c20001b09d7f,687ed1b7e638a4cbf2f02089,6880d63bd0a9ae71b6913231,,,,,,,,,,,,,,1,,./stim/wavs/chilean_question_filler_Mi-padre-cantaba-bien.wav,,,,,,,,,203.9251,206.1405,1,1,1.6898,,0,3,3,2,1,,,,,,,,,,,,,,,,,,,,,,,,,,,,,,,,,,,,,,,,,,,,,,,,,,,,,,,,,,,,,,,,,,,,,,,
,,,,,,,,,5c66ed5b2d31c20001b09d7f,Spanish,13 or older,"no, only English or Spanish",no,2025-07-23_08h32.41.537,empathy_intonation_perc,2024.2.4,Win32,60.24096386,5c66ed5b2d31c20001b09d7f,687ed1b7e638a4cbf2f02089,6880d63bd0a9ae71b6913231,,,,,,,,,,,,,,0,,./stim/wavs/peruvian_statement_filler_El-nino-habla-con-su-madre.wav,,,,,,,,,206.1416,209.0576,0,1,2.3933,,0,4,4,6,1,,,,,,,,,,,,,,,,,,,,,,,,,,,,,,,,,,,,,,,,,,,,,,,,,,,,,,,,,,,,,,,,,,,,,,,
,,,,,,,,,5c66ed5b2d31c20001b09d7f,Spanish,13 or older,"no, only English or Spanish",no,2025-07-23_08h32.41.537,empathy_intonation_perc,2024.2.4,Win32,60.24096386,5c66ed5b2d31c20001b09d7f,687ed1b7e638a4cbf2f02089,6880d63bd0a9ae71b6913231,,,,,,,,,,,,,,1,,./stim/wavs/mexican_question_filler_Felipe-no-tiene-contrasena.wav,,,,,,,,,209.0586,211.374,1,1,1.7881,,0,5,5,3,1,,,,,,,,,,,,,,,,,,,,,,,,,,,,,,,,,,,,,,,,,,,,,,,,,,,,,,,,,,,,,,,,,,,,,,,
,,,,,,,,,5c66ed5b2d31c20001b09d7f,Spanish,13 or older,"no, only English or Spanish",no,2025-07-23_08h32.41.537,empathy_intonation_perc,2024.2.4,Win32,60.24096386,5c66ed5b2d31c20001b09d7f,687ed1b7e638a4cbf2f02089,6880d63bd0a9ae71b6913231,,,,,,,,,,,,,,1,,./stim/wavs/castilian_question_filler_Mi-esposo-conoce-al-chico.wav,,,,,,,,,211.3747,213.8403,1,1,1.9569,,0,6,6,0,1,,,,,,,,,,,,,,,,,,,,,,,,,,,,,,,,,,,,,,,,,,,,,,,,,,,,,,,,,,,,,,,,,,,,,,,
,,,,,,,,,5c66ed5b2d31c20001b09d7f,Spanish,13 or older,"no, only English or Spanish",no,2025-07-23_08h32.41.537,empathy_intonation_perc,2024.2.4,Win32,60.24096386,5c66ed5b2d31c20001b09d7f,687ed1b7e638a4cbf2f02089,6880d63bd0a9ae71b6913231,,,,,,,,,,,,,,0,,./stim/wavs/cuban_statement_filler_Cocinabas-por-la-noche.wav,,,,,,,,,213.8411,215.993,0,1,1.631,,0,7,7,4,1,,,,,,,,,,,,,,,,,,,,,,,,,,,,,,,,,,,,,,,,,,,,,,,,,,,,,,,,,,,,,,,,,,,,,,,
,,,,,,,,,5c66ed5b2d31c20001b09d7f,Spanish,13 or older,"no, only English or Spanish",no,2025-07-23_08h32.41.537,empathy_intonation_perc,2024.2.4,Win32,60.24096386,5c66ed5b2d31c20001b09d7f,687ed1b7e638a4cbf2f02089,6880d63bd0a9ae71b6913231,,,,,,,,,,,,,,,,,,,,,,,,,,,,,,,,,,,,215.9932,219.6791,,,,,,,,,,,,,,,,,,,,,,,,,,,,,,,,,,,,,,,,,,,,,,,,,,,,,,,,,,,,,,,,,,,,,
,,,,,,,,,5c66ed5b2d31c20001b09d7f,Spanish,13 or older,"no, only English or Spanish",no,2025-07-23_08h32.41.537,empathy_intonation_perc,2024.2.4,Win32,60.24096386,5c66ed5b2d31c20001b09d7f,687ed1b7e638a4cbf2f02089,6880d63bd0a9ae71b6913231,,,,,,,,,,,,,32,1,,./stim/wavs/cuban_mismatch_interrogative-total-yn_Mi-madre-come-la-fruta.wav,,,,,,,,,,,,,,,,,,,,,,219.6837,221.891,0,0,1.6699,,0,0,0,31,1,1,cuban,,,,,,,,,,,,,,,,,,,,,,,,,,,,,,,,,,,,,,,,,,,,,,,,,,,,,,,,
,,,,,,,,,5c66ed5b2d31c20001b09d7f,Spanish,13 or older,"no, only English or Spanish",no,2025-07-23_08h32.41.537,empathy_intonation_perc,2024.2.4,Win32,60.24096386,5c66ed5b2d31c20001b09d7f,687ed1b7e638a4cbf2f02089,6880d63bd0a9ae71b6913231,,,,,,,,,,,,,42,1,,./stim/wavs/puertorican_mismatch_interrogative-total-yn_La-maestra-vive-en-Paris.wav,,,,,,,,,,,,,,,,,,,,,,221.8918,224.2088,0,0,1.7692,,0,1,1,41,1,1,puertorican,,,,,,,,,,,,,,,,,,,,,,,,,,,,,,,,,,,,,,,,,,,,,,,,,,,,,,,,
,,,,,,,,,5c66ed5b2d31c20001b09d7f,Spanish,13 or older,"no, only English or Spanish",no,2025-07-23_08h32.41.537,empathy_intonation_perc,2024.2.4,Win32,60.24096386,5c66ed5b2d31c20001b09d7f,687ed1b7e638a4cbf2f02089,6880d63bd0a9ae71b6913231,,,,,,,,,,,,,45,0,,./stim/wavs/castilian_match_declarative-broad-focus_David-leia-el-libro.wav,,,,,,,,,,,,,,,,,,,,,,224.2091,226.5071,0,1,1.7589,,0,2,2,44,1,0,castilian,,,,,,,,,,,,,,,,,,,,,,,,,,,,,,,,,,,,,,,,,,,,,,,,,,,,,,,,
,,,,,,,,,5c66ed5b2d31c20001b09d7f,Spanish,13 or older,"no, only English or Spanish",no,2025-07-23_08h32.41.537,empathy_intonation_perc,2024.2.4,Win32,60.24096386,5c66ed5b2d31c20001b09d7f,687ed1b7e638a4cbf2f02089,6880d63bd0a9ae71b6913231,,,,,,,,,,,,,6,1,,./stim/wavs/castilian_match_interrogative-total-yn_Marta-abre-el-regalo.wav,,,,,,,,,,,,,,,,,,,,,,226.5079,228.679,1,1,1.6335,,0,3,3,5,1,0,castilian,,,,,,,,,,,,,,,,,,,,,,,,,,,,,,,,,,,,,,,,,,,,,,,,,,,,,,,,
,,,,,,,,,5c66ed5b2d31c20001b09d7f,Spanish,13 or older,"no, only English or Spanish",no,2025-07-23_08h32.41.537,empathy_intonation_perc,2024.2.4,Win32,60.24096386,5c66ed5b2d31c20001b09d7f,687ed1b7e638a4cbf2f02089,6880d63bd0a9ae71b6913231,,,,,,,,,,,,,74,0,,./stim/wavs/cuban_mismatch_declarative-broad-focus_El-bebe-comia-muy-bien.wav,,,,,,,,,,,,,,,,,,,,,,228.6793,230.9576,0,1,1.7423,,0,4,4,73,1,0,cuban,,,,,,,,,,,,,,,,,,,,,,,,,,,,,,,,,,,,,,,,,,,,,,,,,,,,,,,,
,,,,,,,,,5c66ed5b2d31c20001b09d7f,Spanish,13 or older,"no, only English or Spanish",no,2025-07-23_08h32.41.537,empathy_intonation_perc,2024.2.4,Win32,60.24096386,5c66ed5b2d31c20001b09d7f,687ed1b7e638a4cbf2f02089,6880d63bd0a9ae71b6913231,,,,,,,,,,,,,19,1,,./stim/wavs/puertorican_match_interrogative-total-yn_Ana-lleva-el-abrigo.wav,,,,,,,,,,,,,,,,,,,,,,230.9584,232.7621,1,1,1.2829,,0,5,5,18,1,1,puertorican,,,,,,,,,,,,,,,,,,,,,,,,,,,,,,,,,,,,,,,,,,,,,,,,,,,,,,,,
,,,,,,,,,5c66ed5b2d31c20001b09d7f,Spanish,13 or older,"no, only English or Spanish",no,2025-07-23_08h32.41.537,empathy_intonation_perc,2024.2.4,Win32,60.24096386,5c66ed5b2d31c20001b09d7f,687ed1b7e638a4cbf2f02089,6880d63bd0a9ae71b6913231,,,,,,,,,,,,,24,1,,./stim/wavs/puertorican_match_interrogative-total-yn_Maria-bebe-el-vino.wav,,,,,,,,,,,,,,,,,,,,,,232.7624,234.5575,1,1,1.2671,,0,6,6,23,1,1,puertorican,,,,,,,,,,,,,,,,,,,,,,,,,,,,,,,,,,,,,,,,,,,,,,,,,,,,,,,,
,,,,,,,,,5c66ed5b2d31c20001b09d7f,Spanish,13 or older,"no, only English or Spanish",no,2025-07-23_08h32.41.537,empathy_intonation_perc,2024.2.4,Win32,60.24096386,5c66ed5b2d31c20001b09d7f,687ed1b7e638a4cbf2f02089,6880d63bd0a9ae71b6913231,,,,,,,,,,,,,21,1,,./stim/wavs/puertorican_match_interrogative-total-yn_David-leia-el-libro.wav,,,,,,,,,,,,,,,,,,,,,,234.5581,236.5411,1,1,1.4506,,0,7,7,20,1,1,puertorican,,,,,,,,,,,,,,,,,,,,,,,,,,,,,,,,,,,,,,,,,,,,,,,,,,,,,,,,
,,,,,,,,,5c66ed5b2d31c20001b09d7f,Spanish,13 or older,"no, only English or Spanish",no,2025-07-23_08h32.41.537,empathy_intonation_perc,2024.2.4,Win32,60.24096386,5c66ed5b2d31c20001b09d7f,687ed1b7e638a4cbf2f02089,6880d63bd0a9ae71b6913231,,,,,,,,,,,,,16,1,,./stim/wavs/mexican_match_interrogative-total-yn_Emilio-ama-la-marcha.wav,,,,,,,,,,,,,,,,,,,,,,236.5417,238.707,1,1,1.6412,,0,8,8,15,1,0,mexican,,,,,,,,,,,,,,,,,,,,,,,,,,,,,,,,,,,,,,,,,,,,,,,,,,,,,,,,
,,,,,,,,,5c66ed5b2d31c20001b09d7f,Spanish,13 or older,"no, only English or Spanish",no,2025-07-23_08h32.41.537,empathy_intonation_perc,2024.2.4,Win32,60.24096386,5c66ed5b2d31c20001b09d7f,687ed1b7e638a4cbf2f02089,6880d63bd0a9ae71b6913231,,,,,,,,,,,,,77,0,,./stim/wavs/cuban_mismatch_declarative-broad-focus_Mi-novio-viene-del-lago.wav,,,,,,,,,,,,,,,,,,,,,,238.7078,240.841,0,1,1.6027,,0,9,9,76,1,0,cuban,,,,,,,,,,,,,,,,,,,,,,,,,,,,,,,,,,,,,,,,,,,,,,,,,,,,,,,,
,,,,,,,,,5c66ed5b2d31c20001b09d7f,Spanish,13 or older,"no, only English or Spanish",no,2025-07-23_08h32.41.537,empathy_intonation_perc,2024.2.4,Win32,60.24096386,5c66ed5b2d31c20001b09d7f,687ed1b7e638a4cbf2f02089,6880d63bd0a9ae71b6913231,,,,,,,,,,,,,86,0,,./stim/wavs/puertorican_mismatch_declarative-broad-focus_El-nino-oye-el-rio.wav,,,,,,,,,,,,,,,,,,,,,,240.8417,242.774,0,1,1.3836,,0,10,10,85,1,0,puertorican,,,,,,,,,,,,,,,,,,,,,,,,,,,,,,,,,,,,,,,,,,,,,,,,,,,,,,,,
,,,,,,,,,5c66ed5b2d31c20001b09d7f,Spanish,13 or older,"no, only English or Spanish",no,2025-07-23_08h32.41.537,empathy_intonation_perc,2024.2.4,Win32,60.24096386,5c66ed5b2d31c20001b09d7f,687ed1b7e638a4cbf2f02089,6880d63bd0a9ae71b6913231,,,,,,,,,,,,,47,0,,./stim/wavs/castilian_match_declarative-broad-focus_Manuela-vende-el-carro.wav,,,,,,,,,,,,,,,,,,,,,,242.7749,245.0738,0,1,1.7885,,0,11,11,46,1,0,castilian,,,,,,,,,,,,,,,,,,,,,,,,,,,,,,,,,,,,,,,,,,,,,,,,,,,,,,,,
,,,,,,,,,5c66ed5b2d31c20001b09d7f,Spanish,13 or older,"no, only English or Spanish",no,2025-07-23_08h32.41.537,empathy_intonation_perc,2024.2.4,Win32,60.24096386,5c66ed5b2d31c20001b09d7f,687ed1b7e638a4cbf2f02089,6880d63bd0a9ae71b6913231,,,,,,,,,,,,,3,1,,./stim/wavs/castilian_match_interrogative-total-yn_Manuela-vende-el-carro.wav,,,,,,,,,,,,,,,,,,,,,,245.0748,247.441,0,0,1.8205,,0,12,12,2,1,0,castilian,,,,,,,,,,,,,,,,,,,,,,,,,,,,,,,,,,,,,,,,,,,,,,,,,,,,,,,,
,,,,,,,,,5c66ed5b2d31c20001b09d7f,Spanish,13 or older,"no, only English or Spanish",no,2025-07-23_08h32.41.537,empathy_intonation_perc,2024.2.4,Win32,60.24096386,5c66ed5b2d31c20001b09d7f,687ed1b7e638a4cbf2f02089,6880d63bd0a9ae71b6913231,,,,,,,,,,,,,82,0,,./stim/wavs/mexican_mismatch_declarative-broad-focus_Mi-novio-viene-del-lago.wav,,,,,,,,,,,,,,,,,,,,,,247.4419,249.6289,0,1,1.6793,,0,13,13,81,1,0,mexican,,,,,,,,,,,,,,,,,,,,,,,,,,,,,,,,,,,,,,,,,,,,,,,,,,,,,,,,
,,,,,,,,,5c66ed5b2d31c20001b09d7f,Spanish,13 or older,"no, only English or Spanish",no,2025-07-23_08h32.41.537,empathy_intonation_perc,2024.2.4,Win32,60.24096386,5c66ed5b2d31c20001b09d7f,687ed1b7e638a4cbf2f02089,6880d63bd0a9ae71b6913231,,,,,,,,,,,,,58,0,,./stim/wavs/mexican_match_declarative-broad-focus_Daniel-iba-a-Bolivia.wav,,,,,,,,,,,,,,,,,,,,,,249.6293,251.7073,0,1,1.5577,,0,14,14,57,1,0,mexican,,,,,,,,,,,,,,,,,,,,,,,,,,,,,,,,,,,,,,,,,,,,,,,,,,,,,,,,
,,,,,,,,,5c66ed5b2d31c20001b09d7f,Spanish,13 or older,"no, only English or Spanish",no,2025-07-23_08h32.41.537,empathy_intonation_perc,2024.2.4,Win32,60.24096386,5c66ed5b2d31c20001b09d7f,687ed1b7e638a4cbf2f02089,6880d63bd0a9ae71b6913231,,,,,,,,,,,,,71,0,,./stim/wavs/castilian_mismatch_declarative-broad-focus_La-nina-lava-el-plato.wav,,,,,,,,,,,,,,,,,,,,,,251.7084,253.9903,0,1,1.7545,,0,15,15,70,1,0,castilian,,,,,,,,,,,,,,,,,,,,,,,,,,,,,,,,,,,,,,,,,,,,,,,,,,,,,,,,
,,,,,,,,,5c66ed5b2d31c20001b09d7f,Spanish,13 or older,"no, only English or Spanish",no,2025-07-23_08h32.41.537,empathy_intonation_perc,2024.2.4,Win32,60.24096386,5c66ed5b2d31c20001b09d7f,687ed1b7e638a4cbf2f02089,6880d63bd0a9ae71b6913231,,,,,,,,,,,,,48,0,,./stim/wavs/castilian_match_declarative-broad-focus_Maria-bebe-el-vino.wav,,,,,,,,,,,,,,,,,,,,,,253.991,256.1406,0,1,1.6174,,0,16,16,47,1,0,castilian,,,,,,,,,,,,,,,,,,,,,,,,,,,,,,,,,,,,,,,,,,,,,,,,,,,,,,,,
,,,,,,,,,5c66ed5b2d31c20001b09d7f,Spanish,13 or older,"no, only English or Spanish",no,2025-07-23_08h32.41.537,empathy_intonation_perc,2024.2.4,Win32,60.24096386,5c66ed5b2d31c20001b09d7f,687ed1b7e638a4cbf2f02089,6880d63bd0a9ae71b6913231,,,,,,,,,,,,,59,0,,./stim/wavs/mexican_match_declarative-broad-focus_David-leia-el-libro.wav,,,,,,,,,,,,,,,,,,,,,,256.1418,258.1611,0,1,1.5119,,0,17,17,58,1,0,mexican,,,,,,,,,,,,,,,,,,,,,,,,,,,,,,,,,,,,,,,,,,,,,,,,,,,,,,,,
,,,,,,,,,5c66ed5b2d31c20001b09d7f,Spanish,13 or older,"no, only English or Spanish",no,2025-07-23_08h32.41.537,empathy_intonation_perc,2024.2.4,Win32,60.24096386,5c66ed5b2d31c20001b09d7f,687ed1b7e638a4cbf2f02089,6880d63bd0a9ae71b6913231,,,,,,,,,,,,,9,1,,./stim/wavs/cuban_match_interrogative-total-yn_Manuela-vende-el-carro.wav,,,,,,,,,,,,,,,,,,,,,,258.1614,260.4238,0,0,1.7367,,0,18,18,8,1,1,cuban,,,,,,,,,,,,,,,,,,,,,,,,,,,,,,,,,,,,,,,,,,,,,,,,,,,,,,,,
,,,,,,,,,5c66ed5b2d31c20001b09d7f,Spanish,13 or older,"no, only English or Spanish",no,2025-07-23_08h32.41.537,empathy_intonation_perc,2024.2.4,Win32,60.24096386,5c66ed5b2d31c20001b09d7f,687ed1b7e638a4cbf2f02089,6880d63bd0a9ae71b6913231,,,,,,,,,,,,,68,0,,./stim/wavs/puertorican_match_declarative-broad-focus_Maria-bebe-el-vino.wav,,,,,,,,,,,,,,,,,,,,,,260.4244,262.7239,1,0,1.7506,,0,19,19,67,1,0,puertorican,,,,,,,,,,,,,,,,,,,,,,,,,,,,,,,,,,,,,,,,,,,,,,,,,,,,,,,,
,,,,,,,,,5c66ed5b2d31c20001b09d7f,Spanish,13 or older,"no, only English or Spanish",no,2025-07-23_08h32.41.537,empathy_intonation_perc,2024.2.4,Win32,60.24096386,5c66ed5b2d31c20001b09d7f,687ed1b7e638a4cbf2f02089,6880d63bd0a9ae71b6913231,,,,,,,,,,,,,28,1,,./stim/wavs/castilian_mismatch_interrogative-total-yn_Mi-novio-viene-del-lago.wav,,,,,,,,,,,,,,,,,,,,,,262.7247,264.8243,1,1,1.5689,,0,20,20,27,1,0,castilian,,,,,,,,,,,,,,,,,,,,,,,,,,,,,,,,,,,,,,,,,,,,,,,,,,,,,,,,
,,,,,,,,,5c66ed5b2d31c20001b09d7f,Spanish,13 or older,"no, only English or Spanish",no,2025-07-23_08h32.41.537,empathy_intonation_perc,2024.2.4,Win32,60.24096386,5c66ed5b2d31c20001b09d7f,687ed1b7e638a4cbf2f02089,6880d63bd0a9ae71b6913231,,,,,,,,,,,,,78,0,,./stim/wavs/cuban_mismatch_declarative-broad-focus_Mi-tia-odia-la-lluvia.wav,,,,,,,,,,,,,,,,,,,,,,264.825,267.2104,0,1,1.8799,,0,21,21,77,1,0,cuban,,,,,,,,,,,,,,,,,,,,,,,,,,,,,,,,,,,,,,,,,,,,,,,,,,,,,,,,
,,,,,,,,,5c66ed5b2d31c20001b09d7f,Spanish,13 or older,"no, only English or Spanish",no,2025-07-23_08h32.41.537,empathy_intonation_perc,2024.2.4,Win32,60.24096386,5c66ed5b2d31c20001b09d7f,687ed1b7e638a4cbf2f02089,6880d63bd0a9ae71b6913231,,,,,,,,,,,,,2,1,,./stim/wavs/castilian_match_interrogative-total-yn_Emilio-ama-la-marcha.wav,,,,,,,,,,,,,,,,,,,,,,267.2107,269.3274,1,1,1.5985,,0,22,22,1,1,0,castilian,,,,,,,,,,,,,,,,,,,,,,,,,,,,,,,,,,,,,,,,,,,,,,,,,,,,,,,,
,,,,,,,,,5c66ed5b2d31c20001b09d7f,Spanish,13 or older,"no, only English or Spanish",no,2025-07-23_08h32.41.537,empathy_intonation_perc,2024.2.4,Win32,60.24096386,5c66ed5b2d31c20001b09d7f,687ed1b7e638a4cbf2f02089,6880d63bd0a9ae71b6913231,,,,,,,,,,,,,1,1,,./stim/wavs/castilian_match_interrogative-total-yn_David-leia-el-libro.wav,,,,,,,,,,,,,,,,,,,,,,269.3276,271.4239,1,1,1.5508,,0,23,23,0,1,0,castilian,,,,,,,,,,,,,,,,,,,,,,,,,,,,,,,,,,,,,,,,,,,,,,,,,,,,,,,,
,,,,,,,,,5c66ed5b2d31c20001b09d7f,Spanish,13 or older,"no, only English or Spanish",no,2025-07-23_08h32.41.537,empathy_intonation_perc,2024.2.4,Win32,60.24096386,5c66ed5b2d31c20001b09d7f,687ed1b7e638a4cbf2f02089,6880d63bd0a9ae71b6913231,,,,,,,,,,,,,35,1,,./stim/wavs/mexican_mismatch_interrogative-total-yn_El-hombre-mira-la-luna.wav,,,,,,,,,,,,,,,,,,,,,,271.4247,273.4943,1,1,1.5491,,0,24,24,34,1,0,mexican,,,,,,,,,,,,,,,,,,,,,,,,,,,,,,,,,,,,,,,,,,,,,,,,,,,,,,,,
,,,,,,,,,5c66ed5b2d31c20001b09d7f,Spanish,13 or older,"no, only English or Spanish",no,2025-07-23_08h32.41.537,empathy_intonation_perc,2024.2.4,Win32,60.24096386,5c66ed5b2d31c20001b09d7f,687ed1b7e638a4cbf2f02089,6880d63bd0a9ae71b6913231,,,,,,,,,,,,,29,1,,./stim/wavs/castilian_mismatch_interrogative-total-yn_Mi-tia-odia-la-lluvia.wav,,,,,,,,,,,,,,,,,,,,,,273.4948,275.657,1,1,1.6349,,0,25,25,28,1,0,castilian,,,,,,,,,,,,,,,,,,,,,,,,,,,,,,,,,,,,,,,,,,,,,,,,,,,,,,,,
,,,,,,,,,5c66ed5b2d31c20001b09d7f,Spanish,13 or older,"no, only English or Spanish",no,2025-07-23_08h32.41.537,empathy_intonation_perc,2024.2.4,Win32,60.24096386,5c66ed5b2d31c20001b09d7f,687ed1b7e638a4cbf2f02089,6880d63bd0a9ae71b6913231,,,,,,,,,,,,,53,0,,./stim/wavs/cuban_match_declarative-broad-focus_Manuela-vende-el-carro.wav,,,,,,,,,,,,,,,,,,,,,,275.6577,277.8738,0,1,1.7063,,0,26,26,52,1,0,cuban,,,,,,,,,,,,,,,,,,,,,,,,,,,,,,,,,,,,,,,,,,,,,,,,,,,,,,,,
,,,,,,,,,5c66ed5b2d31c20001b09d7f,Spanish,13 or older,"no, only English or Spanish",no,2025-07-23_08h32.41.537,empathy_intonation_perc,2024.2.4,Win32,60.24096386,5c66ed5b2d31c20001b09d7f,687ed1b7e638a4cbf2f02089,6880d63bd0a9ae71b6913231,,,,,,,,,,,,,13,1,,./stim/wavs/mexican_match_interrogative-total-yn_Ana-lleva-el-abrigo.wav,,,,,,,,,,,,,,,,,,,,,,277.8745,279.8625,1,1,1.467,,0,27,27,12,1,0,mexican,,,,,,,,,,,,,,,,,,,,,,,,,,,,,,,,,,,,,,,,,,,,,,,,,,,,,,,,
,,,,,,,,,5c66ed5b2d31c20001b09d7f,Spanish,13 or older,"no, only English or Spanish",no,2025-07-23_08h32.41.537,empathy_intonation_perc,2024.2.4,Win32,60.24096386,5c66ed5b2d31c20001b09d7f,687ed1b7e638a4cbf2f02089,6880d63bd0a9ae71b6913231,,,,,,,,,,,,,64,0,,./stim/wavs/puertorican_match_declarative-broad-focus_Daniel-iba-a-Bolivia.wav,,,,,,,,,,,,,,,,,,,,,,279.8629,282.0086,0,1,1.6125,,0,28,28,63,1,0,puertorican,,,,,,,,,,,,,,,,,,,,,,,,,,,,,,,,,,,,,,,,,,,,,,,,,,,,,,,,
,,,,,,,,,5c66ed5b2d31c20001b09d7f,Spanish,13 or older,"no, only English or Spanish",no,2025-07-23_08h32.41.537,empathy_intonation_perc,2024.2.4,Win32,60.24096386,5c66ed5b2d31c20001b09d7f,687ed1b7e638a4cbf2f02089,6880d63bd0a9ae71b6913231,,,,,,,,,,,,,55,0,,./stim/wavs/cuban_match_declarative-broad-focus_Mariano-habla-del-tiempo.wav,,,,,,,,,,,,,,,,,,,,,,282.0089,284.2905,0,1,1.7508,,0,29,29,54,1,0,cuban,,,,,,,,,,,,,,,,,,,,,,,,,,,,,,,,,,,,,,,,,,,,,,,,,,,,,,,,
,,,,,,,,,5c66ed5b2d31c20001b09d7f,Spanish,13 or older,"no, only English or Spanish",no,2025-07-23_08h32.41.537,empathy_intonation_perc,2024.2.4,Win32,60.24096386,5c66ed5b2d31c20001b09d7f,687ed1b7e638a4cbf2f02089,6880d63bd0a9ae71b6913231,,,,,,,,,,,,,40,1,,./stim/wavs/puertorican_mismatch_interrogative-total-yn_El-hombre-mira-la-luna.wav,,,,,,,,,,,,,,,,,,,,,,284.2913,286.2904,1,1,1.4589,,0,30,30,39,1,1,puertorican,,,,,,,,,,,,,,,,,,,,,,,,,,,,,,,,,,,,,,,,,,,,,,,,,,,,,,,,
,,,,,,,,,5c66ed5b2d31c20001b09d7f,Spanish,13 or older,"no, only English or Spanish",no,2025-07-23_08h32.41.537,empathy_intonation_perc,2024.2.4,Win32,60.24096386,5c66ed5b2d31c20001b09d7f,687ed1b7e638a4cbf2f02089,6880d63bd0a9ae71b6913231,,,,,,,,,,,,,62,0,,./stim/wavs/mexican_match_declarative-broad-focus_Marta-abre-el-regalo.wav,,,,,,,,,,,,,,,,,,,,,,286.2913,288.3072,0,1,1.4834,,0,31,31,61,1,0,mexican,,,,,,,,,,,,,,,,,,,,,,,,,,,,,,,,,,,,,,,,,,,,,,,,,,,,,,,,
,,,,,,,,,5c66ed5b2d31c20001b09d7f,Spanish,13 or older,"no, only English or Spanish",no,2025-07-23_08h32.41.537,empathy_intonation_perc,2024.2.4,Win32,60.24096386,5c66ed5b2d31c20001b09d7f,687ed1b7e638a4cbf2f02089,6880d63bd0a9ae71b6913231,,,,,,,,,,,,,33,1,,./stim/wavs/cuban_mismatch_interrogative-total-yn_Mi-novio-viene-del-lago.wav,,,,,,,,,,,,,,,,,,,,,,288.308,290.4909,0,0,1.6585,,0,32,32,32,1,1,cuban,,,,,,,,,,,,,,,,,,,,,,,,,,,,,,,,,,,,,,,,,,,,,,,,,,,,,,,,
,,,,,,,,,5c66ed5b2d31c20001b09d7f,Spanish,13 or older,"no, only English or Spanish",no,2025-07-23_08h32.41.537,empathy_intonation_perc,2024.2.4,Win32,60.24096386,5c66ed5b2d31c20001b09d7f,687ed1b7e638a4cbf2f02089,6880d63bd0a9ae71b6913231,,,,,,,,,,,,,80,0,,./stim/wavs/mexican_mismatch_declarative-broad-focus_El-hombre-mira-la-luna.wav,,,,,,,,,,,,,,,,,,,,,,290.4919,292.8959,0,1,1.8838,,0,33,33,79,1,0,mexican,,,,,,,,,,,,,,,,,,,,,,,,,,,,,,,,,,,,,,,,,,,,,,,,,,,,,,,,
,,,,,,,,,5c66ed5b2d31c20001b09d7f,Spanish,13 or older,"no, only English or Spanish",no,2025-07-23_08h32.41.537,empathy_intonation_perc,2024.2.4,Win32,60.24096386,5c66ed5b2d31c20001b09d7f,687ed1b7e638a4cbf2f02089,6880d63bd0a9ae71b6913231,,,,,,,,,,,,,31,1,,./stim/wavs/cuban_mismatch_interrogative-total-yn_El-nino-oye-el-rio.wav,,,,,,,,,,,,,,,,,,,,,,292.8964,294.8112,0,0,1.3984,,0,34,34,30,1,1,cuban,,,,,,,,,,,,,,,,,,,,,,,,,,,,,,,,,,,,,,,,,,,,,,,,,,,,,,,,
,,,,,,,,,5c66ed5b2d31c20001b09d7f,Spanish,13 or older,"no, only English or Spanish",no,2025-07-23_08h32.41.537,empathy_intonation_perc,2024.2.4,Win32,60.24096386,5c66ed5b2d31c20001b09d7f,687ed1b7e638a4cbf2f02089,6880d63bd0a9ae71b6913231,,,,,,,,,,,,,75,0,,./stim/wavs/cuban_mismatch_declarative-broad-focus_El-hombre-mira-la-luna.wav,,,,,,,,,,,,,,,,,,,,,,294.8117,296.8616,1,0,1.5327,,0,35,35,74,1,0,cuban,,,,,,,,,,,,,,,,,,,,,,,,,,,,,,,,,,,,,,,,,,,,,,,,,,,,,,,,
,,,,,,,,,5c66ed5b2d31c20001b09d7f,Spanish,13 or older,"no, only English or Spanish",no,2025-07-23_08h32.41.537,empathy_intonation_perc,2024.2.4,Win32,60.24096386,5c66ed5b2d31c20001b09d7f,687ed1b7e638a4cbf2f02089,6880d63bd0a9ae71b6913231,,,,,,,,,,,,,22,1,,./stim/wavs/puertorican_match_interrogative-total-yn_Emilio-ama-la-marcha.wav,,,,,,,,,,,,,,,,,,,,,,296.8617,298.8785,1,1,1.4834,,0,36,36,21,1,1,puertorican,,,,,,,,,,,,,,,,,,,,,,,,,,,,,,,,,,,,,,,,,,,,,,,,,,,,,,,,
,,,,,,,,,5c66ed5b2d31c20001b09d7f,Spanish,13 or older,"no, only English or Spanish",no,2025-07-23_08h32.41.537,empathy_intonation_perc,2024.2.4,Win32,60.24096386,5c66ed5b2d31c20001b09d7f,687ed1b7e638a4cbf2f02089,6880d63bd0a9ae71b6913231,,,,,,,,,,,,,60,0,,./stim/wavs/mexican_match_declarative-broad-focus_Emilio-ama-la-marcha.wav,,,,,,,,,,,,,,,,,,,,,,298.8788,301.3574,1,0,1.9513,,0,37,37,59,1,0,mexican,,,,,,,,,,,,,,,,,,,,,,,,,,,,,,,,,,,,,,,,,,,,,,,,,,,,,,,,
,,,,,,,,,5c66ed5b2d31c20001b09d7f,Spanish,13 or older,"no, only English or Spanish",no,2025-07-23_08h32.41.537,empathy_intonation_perc,2024.2.4,Win32,60.24096386,5c66ed5b2d31c20001b09d7f,687ed1b7e638a4cbf2f02089,6880d63bd0a9ae71b6913231,,,,,,,,,,,,,52,0,,./stim/wavs/cuban_match_declarative-broad-focus_Daniel-iba-a-Bolivia.wav,,,,,,,,,,,,,,,,,,,,,,301.3585,303.5404,0,1,1.6513,,0,38,38,51,1,0,cuban,,,,,,,,,,,,,,,,,,,,,,,,,,,,,,,,,,,,,,,,,,,,,,,,,,,,,,,,
,,,,,,,,,5c66ed5b2d31c20001b09d7f,Spanish,13 or older,"no, only English or Spanish",no,2025-07-23_08h32.41.537,empathy_intonation_perc,2024.2.4,Win32,60.24096386,5c66ed5b2d31c20001b09d7f,687ed1b7e638a4cbf2f02089,6880d63bd0a9ae71b6913231,,,,,,,,,,,,,79,0,,./stim/wavs/mexican_mismatch_declarative-broad-focus_El-bebe-comia-muy-bien.wav,,,,,,,,,,,,,,,,,,,,,,303.5412,305.7956,0,1,1.7166,,0,39,39,78,1,0,mexican,,,,,,,,,,,,,,,,,,,,,,,,,,,,,,,,,,,,,,,,,,,,,,,,,,,,,,,,
,,,,,,,,,5c66ed5b2d31c20001b09d7f,Spanish,13 or older,"no, only English or Spanish",no,2025-07-23_08h32.41.537,empathy_intonation_perc,2024.2.4,Win32,60.24096386,5c66ed5b2d31c20001b09d7f,687ed1b7e638a4cbf2f02089,6880d63bd0a9ae71b6913231,,,,,,,,,,,,,65,0,,./stim/wavs/puertorican_match_declarative-broad-focus_David-leia-el-libro.wav,,,,,,,,,,,,,,,,,,,,,,305.7959,307.6124,0,1,1.2979,,0,40,40,64,1,0,puertorican,,,,,,,,,,,,,,,,,,,,,,,,,,,,,,,,,,,,,,,,,,,,,,,,,,,,,,,,
,,,,,,,,,5c66ed5b2d31c20001b09d7f,Spanish,13 or older,"no, only English or Spanish",no,2025-07-23_08h32.41.537,empathy_intonation_perc,2024.2.4,Win32,60.24096386,5c66ed5b2d31c20001b09d7f,687ed1b7e638a4cbf2f02089,6880d63bd0a9ae71b6913231,,,,,,,,,,,,,83,0,,./stim/wavs/mexican_mismatch_declarative-broad-focus_Mi-tia-odia-la-lluvia.wav,,,,,,,,,,,,,,,,,,,,,,307.6127,309.5574,0,1,1.4228,,0,41,41,82,1,0,mexican,,,,,,,,,,,,,,,,,,,,,,,,,,,,,,,,,,,,,,,,,,,,,,,,,,,,,,,,
,,,,,,,,,5c66ed5b2d31c20001b09d7f,Spanish,13 or older,"no, only English or Spanish",no,2025-07-23_08h32.41.537,empathy_intonation_perc,2024.2.4,Win32,60.24096386,5c66ed5b2d31c20001b09d7f,687ed1b7e638a4cbf2f02089,6880d63bd0a9ae71b6913231,,,,,,,,,,,,,50,0,,./stim/wavs/castilian_match_declarative-broad-focus_Marta-abre-el-regalo.wav,,,,,,,,,,,,,,,,,,,,,,309.5585,311.7238,0,1,1.6474,,0,42,42,49,1,0,castilian,,,,,,,,,,,,,,,,,,,,,,,,,,,,,,,,,,,,,,,,,,,,,,,,,,,,,,,,
,,,,,,,,,5c66ed5b2d31c20001b09d7f,Spanish,13 or older,"no, only English or Spanish",no,2025-07-23_08h32.41.537,empathy_intonation_perc,2024.2.4,Win32,60.24096386,5c66ed5b2d31c20001b09d7f,687ed1b7e638a4cbf2f02089,6880d63bd0a9ae71b6913231,,,,,,,,,,,,,44,1,,./stim/wavs/puertorican_mismatch_interrogative-total-yn_Mi-madre-come-la-fruta.wav,,,,,,,,,,,,,,,,,,,,,,311.7245,313.6953,0,0,1.4502,,0,43,43,43,1,1,puertorican,,,,,,,,,,,,,,,,,,,,,,,,,,,,,,,,,,,,,,,,,,,,,,,,,,,,,,,,
,,,,,,,,,5c66ed5b2d31c20001b09d7f,Spanish,13 or older,"no, only English or Spanish",no,2025-07-23_08h32.41.537,empathy_intonation_perc,2024.2.4,Win32,60.24096386,5c66ed5b2d31c20001b09d7f,687ed1b7e638a4cbf2f02089,6880d63bd0a9ae71b6913231,,,,,,,,,,,,,49,0,,./stim/wavs/castilian_match_declarative-broad-focus_Mariano-habla-del-tiempo.wav,,,,,,,,,,,,,,,,,,,,,,313.6956,316.1907,0,1,1.971,,0,44,44,48,1,0,castilian,,,,,,,,,,,,,,,,,,,,,,,,,,,,,,,,,,,,,,,,,,,,,,,,,,,,,,,,
,,,,,,,,,5c66ed5b2d31c20001b09d7f,Spanish,13 or older,"no, only English or Spanish",no,2025-07-23_08h32.41.537,empathy_intonation_perc,2024.2.4,Win32,60.24096386,5c66ed5b2d31c20001b09d7f,687ed1b7e638a4cbf2f02089,6880d63bd0a9ae71b6913231,,,,,,,,,,,,,30,1,,./stim/wavs/cuban_mismatch_interrogative-total-yn_El-hombre-mira-la-luna.wav,,,,,,,,,,,,,,,,,,,,,,316.1913,318.0904,0,0,1.3759,,0,45,45,29,1,1,cuban,,,,,,,,,,,,,,,,,,,,,,,,,,,,,,,,,,,,,,,,,,,,,,,,,,,,,,,,
,,,,,,,,,5c66ed5b2d31c20001b09d7f,Spanish,13 or older,"no, only English or Spanish",no,2025-07-23_08h32.41.537,empathy_intonation_perc,2024.2.4,Win32,60.24096386,5c66ed5b2d31c20001b09d7f,687ed1b7e638a4cbf2f02089,6880d63bd0a9ae71b6913231,,,,,,,,,,,,,34,1,,./stim/wavs/cuban_mismatch_interrogative-total-yn_Mi-tia-odia-la-lluvia.wav,,,,,,,,,,,,,,,,,,,,,,318.0911,320.1404,0,0,1.5068,,0,46,46,33,1,1,cuban,,,,,,,,,,,,,,,,,,,,,,,,,,,,,,,,,,,,,,,,,,,,,,,,,,,,,,,,
,,,,,,,,,5c66ed5b2d31c20001b09d7f,Spanish,13 or older,"no, only English or Spanish",no,2025-07-23_08h32.41.537,empathy_intonation_perc,2024.2.4,Win32,60.24096386,5c66ed5b2d31c20001b09d7f,687ed1b7e638a4cbf2f02089,6880d63bd0a9ae71b6913231,,,,,,,,,,,,,25,1,,./stim/wavs/castilian_mismatch_interrogative-total-yn_La-maestra-vive-en-Paris.wav,,,,,,,,,,,,,,,,,,,,,,320.1411,322.6075,1,1,1.9382,,0,47,47,24,1,0,castilian,,,,,,,,,,,,,,,,,,,,,,,,,,,,,,,,,,,,,,,,,,,,,,,,,,,,,,,,
,,,,,,,,,5c66ed5b2d31c20001b09d7f,Spanish,13 or older,"no, only English or Spanish",no,2025-07-23_08h32.41.537,empathy_intonation_perc,2024.2.4,Win32,60.24096386,5c66ed5b2d31c20001b09d7f,687ed1b7e638a4cbf2f02089,6880d63bd0a9ae71b6913231,,,,,,,,,,,,,38,1,,./stim/wavs/mexican_mismatch_interrogative-total-yn_Mi-novio-viene-del-lago.wav,,,,,,,,,,,,,,,,,,,,,,322.609,324.8789,1,1,1.7495,,0,48,48,37,1,0,mexican,,,,,,,,,,,,,,,,,,,,,,,,,,,,,,,,,,,,,,,,,,,,,,,,,,,,,,,,
,,,,,,,,,5c66ed5b2d31c20001b09d7f,Spanish,13 or older,"no, only English or Spanish",no,2025-07-23_08h32.41.537,empathy_intonation_perc,2024.2.4,Win32,60.24096386,5c66ed5b2d31c20001b09d7f,687ed1b7e638a4cbf2f02089,6880d63bd0a9ae71b6913231,,,,,,,,,,,,,37,1,,./stim/wavs/mexican_mismatch_interrogative-total-yn_La-maestra-vive-en-Paris.wav,,,,,,,,,,,,,,,,,,,,,,324.8792,327.1074,1,1,1.7005,,0,49,49,36,1,0,mexican,,,,,,,,,,,,,,,,,,,,,,,,,,,,,,,,,,,,,,,,,,,,,,,,,,,,,,,,
,,,,,,,,,5c66ed5b2d31c20001b09d7f,Spanish,13 or older,"no, only English or Spanish",no,2025-07-23_08h32.41.537,empathy_intonation_perc,2024.2.4,Win32,60.24096386,5c66ed5b2d31c20001b09d7f,687ed1b7e638a4cbf2f02089,6880d63bd0a9ae71b6913231,,,,,,,,,,,,,67,0,,./stim/wavs/puertorican_match_declarative-broad-focus_Manuela-vende-el-carro.wav,,,,,,,,,,,,,,,,,,,,,,327.1082,329.3955,0,1,1.7668,,0,50,50,66,1,0,puertorican,,,,,,,,,,,,,,,,,,,,,,,,,,,,,,,,,,,,,,,,,,,,,,,,,,,,,,,,
,,,,,,,,,5c66ed5b2d31c20001b09d7f,Spanish,13 or older,"no, only English or Spanish",no,2025-07-23_08h32.41.537,empathy_intonation_perc,2024.2.4,Win32,60.24096386,5c66ed5b2d31c20001b09d7f,687ed1b7e638a4cbf2f02089,6880d63bd0a9ae71b6913231,,,,,,,,,,,,,39,1,,./stim/wavs/mexican_mismatch_interrogative-total-yn_Mi-tia-odia-la-lluvia.wav,,,,,,,,,,,,,,,,,,,,,,329.3958,331.4909,0,0,1.5717,,0,51,51,38,1,0,mexican,,,,,,,,,,,,,,,,,,,,,,,,,,,,,,,,,,,,,,,,,,,,,,,,,,,,,,,,
,,,,,,,,,5c66ed5b2d31c20001b09d7f,Spanish,13 or older,"no, only English or Spanish",no,2025-07-23_08h32.41.537,empathy_intonation_perc,2024.2.4,Win32,60.24096386,5c66ed5b2d31c20001b09d7f,687ed1b7e638a4cbf2f02089,6880d63bd0a9ae71b6913231,,,,,,,,,,,,,63,0,,./stim/wavs/puertorican_match_declarative-broad-focus_Ana-lleva-el-abrigo.wav,,,,,,,,,,,,,,,,,,,,,,331.4916,333.4078,0,1,1.3875,,0,52,52,62,1,0,puertorican,,,,,,,,,,,,,,,,,,,,,,,,,,,,,,,,,,,,,,,,,,,,,,,,,,,,,,,,
,,,,,,,,,5c66ed5b2d31c20001b09d7f,Spanish,13 or older,"no, only English or Spanish",no,2025-07-23_08h32.41.537,empathy_intonation_perc,2024.2.4,Win32,60.24096386,5c66ed5b2d31c20001b09d7f,687ed1b7e638a4cbf2f02089,6880d63bd0a9ae71b6913231,,,,,,,,,,,,,8,1,,./stim/wavs/cuban_match_interrogative-total-yn_Daniel-iba-a-Bolivia.wav,,,,,,,,,,,,,,,,,,,,,,333.4085,335.6403,0,0,1.686,,0,53,53,7,1,1,cuban,,,,,,,,,,,,,,,,,,,,,,,,,,,,,,,,,,,,,,,,,,,,,,,,,,,,,,,,
,,,,,,,,,5c66ed5b2d31c20001b09d7f,Spanish,13 or older,"no, only English or Spanish",no,2025-07-23_08h32.41.537,empathy_intonation_perc,2024.2.4,Win32,60.24096386,5c66ed5b2d31c20001b09d7f,687ed1b7e638a4cbf2f02089,6880d63bd0a9ae71b6913231,,,,,,,,,,,,,41,1,,./stim/wavs/puertorican_mismatch_interrogative-total-yn_El-nino-oye-el-rio.wav,,,,,,,,,,,,,,,,,,,,,,335.641,337.7741,0,0,1.6009,,0,54,54,40,1,1,puertorican,,,,,,,,,,,,,,,,,,,,,,,,,,,,,,,,,,,,,,,,,,,,,,,,,,,,,,,,
,,,,,,,,,5c66ed5b2d31c20001b09d7f,Spanish,13 or older,"no, only English or Spanish",no,2025-07-23_08h32.41.537,empathy_intonation_perc,2024.2.4,Win32,60.24096386,5c66ed5b2d31c20001b09d7f,687ed1b7e638a4cbf2f02089,6880d63bd0a9ae71b6913231,,,,,,,,,,,,,73,0,,./stim/wavs/castilian_mismatch_declarative-broad-focus_Mi-tia-odia-la-lluvia.wav,,,,,,,,,,,,,,,,,,,,,,337.7752,340.1408,0,1,1.8396,,0,55,55,72,1,0,castilian,,,,,,,,,,,,,,,,,,,,,,,,,,,,,,,,,,,,,,,,,,,,,,,,,,,,,,,,
,,,,,,,,,5c66ed5b2d31c20001b09d7f,Spanish,13 or older,"no, only English or Spanish",no,2025-07-23_08h32.41.537,empathy_intonation_perc,2024.2.4,Win32,60.24096386,5c66ed5b2d31c20001b09d7f,687ed1b7e638a4cbf2f02089,6880d63bd0a9ae71b6913231,,,,,,,,,,,,,88,0,,./stim/wavs/puertorican_mismatch_declarative-broad-focus_La-nina-lava-el-plato.wav,,,,,,,,,,,,,,,,,,,,,,340.1417,342.1577,0,1,1.4835,,0,56,56,87,1,0,puertorican,,,,,,,,,,,,,,,,,,,,,,,,,,,,,,,,,,,,,,,,,,,,,,,,,,,,,,,,
,,,,,,,,,5c66ed5b2d31c20001b09d7f,Spanish,13 or older,"no, only English or Spanish",no,2025-07-23_08h32.41.537,empathy_intonation_perc,2024.2.4,Win32,60.24096386,5c66ed5b2d31c20001b09d7f,687ed1b7e638a4cbf2f02089,6880d63bd0a9ae71b6913231,,,,,,,,,,,,,12,1,,./stim/wavs/cuban_match_interrogative-total-yn_Marta-abre-el-regalo.wav,,,,,,,,,,,,,,,,,,,,,,342.1586,344.224,0,0,1.5202,,0,57,57,11,1,1,cuban,,,,,,,,,,,,,,,,,,,,,,,,,,,,,,,,,,,,,,,,,,,,,,,,,,,,,,,,
,,,,,,,,,5c66ed5b2d31c20001b09d7f,Spanish,13 or older,"no, only English or Spanish",no,2025-07-23_08h32.41.537,empathy_intonation_perc,2024.2.4,Win32,60.24096386,5c66ed5b2d31c20001b09d7f,687ed1b7e638a4cbf2f02089,6880d63bd0a9ae71b6913231,,,,,,,,,,,,,70,0,,./stim/wavs/castilian_mismatch_declarative-broad-focus_La-maestra-vive-en-Paris.wav,,,,,,,,,,,,,,,,,,,,,,344.2246,346.5575,0,1,1.8081,,0,58,58,69,1,0,castilian,,,,,,,,,,,,,,,,,,,,,,,,,,,,,,,,,,,,,,,,,,,,,,,,,,,,,,,,
,,,,,,,,,5c66ed5b2d31c20001b09d7f,Spanish,13 or older,"no, only English or Spanish",no,2025-07-23_08h32.41.537,empathy_intonation_perc,2024.2.4,Win32,60.24096386,5c66ed5b2d31c20001b09d7f,687ed1b7e638a4cbf2f02089,6880d63bd0a9ae71b6913231,,,,,,,,,,,,,26,1,,./stim/wavs/castilian_mismatch_interrogative-total-yn_La-nina-lava-el-plato.wav,,,,,,,,,,,,,,,,,,,,,,346.5583,348.7241,1,1,1.6244,,0,59,59,25,1,0,castilian,,,,,,,,,,,,,,,,,,,,,,,,,,,,,,,,,,,,,,,,,,,,,,,,,,,,,,,,
,,,,,,,,,5c66ed5b2d31c20001b09d7f,Spanish,13 or older,"no, only English or Spanish",no,2025-07-23_08h32.41.537,empathy_intonation_perc,2024.2.4,Win32,60.24096386,5c66ed5b2d31c20001b09d7f,687ed1b7e638a4cbf2f02089,6880d63bd0a9ae71b6913231,,,,,,,,,,,,,46,0,,./stim/wavs/castilian_match_declarative-broad-focus_Emilio-ama-la-marcha.wav,,,,,,,,,,,,,,,,,,,,,,348.7246,350.9904,0,1,1.7309,,0,60,60,45,1,0,castilian,,,,,,,,,,,,,,,,,,,,,,,,,,,,,,,,,,,,,,,,,,,,,,,,,,,,,,,,
,,,,,,,,,5c66ed5b2d31c20001b09d7f,Spanish,13 or older,"no, only English or Spanish",no,2025-07-23_08h32.41.537,empathy_intonation_perc,2024.2.4,Win32,60.24096386,5c66ed5b2d31c20001b09d7f,687ed1b7e638a4cbf2f02089,6880d63bd0a9ae71b6913231,,,,,,,,,,,,,72,0,,./stim/wavs/castilian_mismatch_declarative-broad-focus_Mi-novio-viene-del-lago.wav,,,,,,,,,,,,,,,,,,,,,,350.991,353.3073,0,1,1.7919,,0,61,61,71,1,0,castilian,,,,,,,,,,,,,,,,,,,,,,,,,,,,,,,,,,,,,,,,,,,,,,,,,,,,,,,,
,,,,,,,,,5c66ed5b2d31c20001b09d7f,Spanish,13 or older,"no, only English or Spanish",no,2025-07-23_08h32.41.537,empathy_intonation_perc,2024.2.4,Win32,60.24096386,5c66ed5b2d31c20001b09d7f,687ed1b7e638a4cbf2f02089,6880d63bd0a9ae71b6913231,,,,,,,,,,,,,11,1,,./stim/wavs/cuban_match_interrogative-total-yn_Mariano-habla-del-tiempo.wav,,,,,,,,,,,,,,,,,,,,,,353.3086,355.7097,0,0,1.8937,,0,62,62,10,1,1,cuban,,,,,,,,,,,,,,,,,,,,,,,,,,,,,,,,,,,,,,,,,,,,,,,,,,,,,,,,
,,,,,,,,,5c66ed5b2d31c20001b09d7f,Spanish,13 or older,"no, only English or Spanish",no,2025-07-23_08h32.41.537,empathy_intonation_perc,2024.2.4,Win32,60.24096386,5c66ed5b2d31c20001b09d7f,687ed1b7e638a4cbf2f02089,6880d63bd0a9ae71b6913231,,,,,,,,,,,,,4,1,,./stim/wavs/castilian_match_interrogative-total-yn_Maria-bebe-el-vino.wav,,,,,,,,,,,,,,,,,,,,,,355.71,357.7237,1,1,1.4905,,0,63,63,3,1,0,castilian,,,,,,,,,,,,,,,,,,,,,,,,,,,,,,,,,,,,,,,,,,,,,,,,,,,,,,,,
,,,,,,,,,5c66ed5b2d31c20001b09d7f,Spanish,13 or older,"no, only English or Spanish",no,2025-07-23_08h32.41.537,empathy_intonation_perc,2024.2.4,Win32,60.24096386,5c66ed5b2d31c20001b09d7f,687ed1b7e638a4cbf2f02089,6880d63bd0a9ae71b6913231,,,,,,,,,,,,,51,0,,./stim/wavs/cuban_match_declarative-broad-focus_Ana-lleva-el-abrigo.wav,,,,,,,,,,,,,,,,,,,,,,357.7244,359.9954,0,1,1.7627,,0,64,64,50,1,0,cuban,,,,,,,,,,,,,,,,,,,,,,,,,,,,,,,,,,,,,,,,,,,,,,,,,,,,,,,,
,,,,,,,,,5c66ed5b2d31c20001b09d7f,Spanish,13 or older,"no, only English or Spanish",no,2025-07-23_08h32.41.537,empathy_intonation_perc,2024.2.4,Win32,60.24096386,5c66ed5b2d31c20001b09d7f,687ed1b7e638a4cbf2f02089,6880d63bd0a9ae71b6913231,,,,,,,,,,,,,23,1,,./stim/wavs/puertorican_match_interrogative-total-yn_Manuela-vende-el-carro.wav,,,,,,,,,,,,,,,,,,,,,,359.9958,362.657,1,1,2.1429,,0,65,65,22,1,1,puertorican,,,,,,,,,,,,,,,,,,,,,,,,,,,,,,,,,,,,,,,,,,,,,,,,,,,,,,,,
,,,,,,,,,5c66ed5b2d31c20001b09d7f,Spanish,13 or older,"no, only English or Spanish",no,2025-07-23_08h32.41.537,empathy_intonation_perc,2024.2.4,Win32,60.24096386,5c66ed5b2d31c20001b09d7f,687ed1b7e638a4cbf2f02089,6880d63bd0a9ae71b6913231,,,,,,,,,,,,,15,1,,./stim/wavs/mexican_match_interrogative-total-yn_David-leia-el-libro.wav,,,,,,,,,,,,,,,,,,,,,,362.6576,366.5949,1,1,3.4117,,0,66,66,14,1,0,mexican,,,,,,,,,,,,,,,,,,,,,,,,,,,,,,,,,,,,,,,,,,,,,,,,,,,,,,,,
,,,,,,,,,5c66ed5b2d31c20001b09d7f,Spanish,13 or older,"no, only English or Spanish",no,2025-07-23_08h32.41.537,empathy_intonation_perc,2024.2.4,Win32,60.24096386,5c66ed5b2d31c20001b09d7f,687ed1b7e638a4cbf2f02089,6880d63bd0a9ae71b6913231,,,,,,,,,,,,,36,1,,./stim/wavs/mexican_mismatch_interrogative-total-yn_El-nino-oye-el-rio.wav,,,,,,,,,,,,,,,,,,,,,,366.5953,368.5243,0,0,1.4007,,0,67,67,35,1,0,mexican,,,,,,,,,,,,,,,,,,,,,,,,,,,,,,,,,,,,,,,,,,,,,,,,,,,,,,,,
,,,,,,,,,5c66ed5b2d31c20001b09d7f,Spanish,13 or older,"no, only English or Spanish",no,2025-07-23_08h32.41.537,empathy_intonation_perc,2024.2.4,Win32,60.24096386,5c66ed5b2d31c20001b09d7f,687ed1b7e638a4cbf2f02089,6880d63bd0a9ae71b6913231,,,,,,,,,,,,,54,0,,./stim/wavs/cuban_match_declarative-broad-focus_Maria-bebe-el-vino.wav,,,,,,,,,,,,,,,,,,,,,,368.5248,370.1742,0,1,1.1218,,0,68,68,53,1,0,cuban,,,,,,,,,,,,,,,,,,,,,,,,,,,,,,,,,,,,,,,,,,,,,,,,,,,,,,,,
,,,,,,,,,5c66ed5b2d31c20001b09d7f,Spanish,13 or older,"no, only English or Spanish",no,2025-07-23_08h32.41.537,empathy_intonation_perc,2024.2.4,Win32,60.24096386,5c66ed5b2d31c20001b09d7f,687ed1b7e638a4cbf2f02089,6880d63bd0a9ae71b6913231,,,,,,,,,,,,,7,1,,./stim/wavs/cuban_match_interrogative-total-yn_Ana-lleva-el-abrigo.wav,,,,,,,,,,,,,,,,,,,,,,370.1751,372.0071,1,1,1.3043,,0,69,69,6,1,1,cuban,,,,,,,,,,,,,,,,,,,,,,,,,,,,,,,,,,,,,,,,,,,,,,,,,,,,,,,,
,,,,,,,,,5c66ed5b2d31c20001b09d7f,Spanish,13 or older,"no, only English or Spanish",no,2025-07-23_08h32.41.537,empathy_intonation_perc,2024.2.4,Win32,60.24096386,5c66ed5b2d31c20001b09d7f,687ed1b7e638a4cbf2f02089,6880d63bd0a9ae71b6913231,,,,,,,,,,,,,87,0,,./stim/wavs/puertorican_mismatch_declarative-broad-focus_La-maestra-vive-en-Paris.wav,,,,,,,,,,,,,,,,,,,,,,372.0075,374.0409,0,1,1.4865,,0,70,70,86,1,0,puertorican,,,,,,,,,,,,,,,,,,,,,,,,,,,,,,,,,,,,,,,,,,,,,,,,,,,,,,,,
,,,,,,,,,5c66ed5b2d31c20001b09d7f,Spanish,13 or older,"no, only English or Spanish",no,2025-07-23_08h32.41.537,empathy_intonation_perc,2024.2.4,Win32,60.24096386,5c66ed5b2d31c20001b09d7f,687ed1b7e638a4cbf2f02089,6880d63bd0a9ae71b6913231,,,,,,,,,,,,,10,1,,./stim/wavs/cuban_match_interrogative-total-yn_Maria-bebe-el-vino.wav,,,,,,,,,,,,,,,,,,,,,,374.0419,376.0408,0,0,1.4655,,0,71,71,9,1,1,cuban,,,,,,,,,,,,,,,,,,,,,,,,,,,,,,,,,,,,,,,,,,,,,,,,,,,,,,,,
,,,,,,,,,5c66ed5b2d31c20001b09d7f,Spanish,13 or older,"no, only English or Spanish",no,2025-07-23_08h32.41.537,empathy_intonation_perc,2024.2.4,Win32,60.24096386,5c66ed5b2d31c20001b09d7f,687ed1b7e638a4cbf2f02089,6880d63bd0a9ae71b6913231,,,,,,,,,,,,,81,0,,./stim/wavs/mexican_mismatch_declarative-broad-focus_La-maestra-vive-en-Paris.wav,,,,,,,,,,,,,,,,,,,,,,376.0421,378.0741,0,1,1.5224,,0,72,72,80,1,0,mexican,,,,,,,,,,,,,,,,,,,,,,,,,,,,,,,,,,,,,,,,,,,,,,,,,,,,,,,,
,,,,,,,,,5c66ed5b2d31c20001b09d7f,Spanish,13 or older,"no, only English or Spanish",no,2025-07-23_08h32.41.537,empathy_intonation_perc,2024.2.4,Win32,60.24096386,5c66ed5b2d31c20001b09d7f,687ed1b7e638a4cbf2f02089,6880d63bd0a9ae71b6913231,,,,,,,,,,,,,76,0,,./stim/wavs/cuban_mismatch_declarative-broad-focus_La-nina-lava-el-plato.wav,,,,,,,,,,,,,,,,,,,,,,378.0748,380.0238,0,1,1.433,,0,73,73,75,1,0,cuban,,,,,,,,,,,,,,,,,,,,,,,,,,,,,,,,,,,,,,,,,,,,,,,,,,,,,,,,
,,,,,,,,,5c66ed5b2d31c20001b09d7f,Spanish,13 or older,"no, only English or Spanish",no,2025-07-23_08h32.41.537,empathy_intonation_perc,2024.2.4,Win32,60.24096386,5c66ed5b2d31c20001b09d7f,687ed1b7e638a4cbf2f02089,6880d63bd0a9ae71b6913231,,,,,,,,,,,,,84,0,,./stim/wavs/puertorican_mismatch_declarative-broad-focus_El-bebe-comia-muy-bien.wav,,,,,,,,,,,,,,,,,,,,,,380.0246,382.0445,0,1,1.4984,,0,74,74,83,1,0,puertorican,,,,,,,,,,,,,,,,,,,,,,,,,,,,,,,,,,,,,,,,,,,,,,,,,,,,,,,,
,,,,,,,,,5c66ed5b2d31c20001b09d7f,Spanish,13 or older,"no, only English or Spanish",no,2025-07-23_08h32.41.537,empathy_intonation_perc,2024.2.4,Win32,60.24096386,5c66ed5b2d31c20001b09d7f,687ed1b7e638a4cbf2f02089,6880d63bd0a9ae71b6913231,,,,,,,,,,,,,66,0,,./stim/wavs/puertorican_match_declarative-broad-focus_Emilio-ama-la-marcha.wav,,,,,,,,,,,,,,,,,,,,,,382.0447,383.941,0,1,1.3677,,0,75,75,65,1,0,puertorican,,,,,,,,,,,,,,,,,,,,,,,,,,,,,,,,,,,,,,,,,,,,,,,,,,,,,,,,
,,,,,,,,,5c66ed5b2d31c20001b09d7f,Spanish,13 or older,"no, only English or Spanish",no,2025-07-23_08h32.41.537,empathy_intonation_perc,2024.2.4,Win32,60.24096386,5c66ed5b2d31c20001b09d7f,687ed1b7e638a4cbf2f02089,6880d63bd0a9ae71b6913231,,,,,,,,,,,,,57,0,,./stim/wavs/mexican_match_declarative-broad-focus_Ana-lleva-el-abrigo.wav,,,,,,,,,,,,,,,,,,,,,,383.9421,385.7956,0,1,1.3459,,0,76,76,56,1,0,mexican,,,,,,,,,,,,,,,,,,,,,,,,,,,,,,,,,,,,,,,,,,,,,,,,,,,,,,,,
,,,,,,,,,5c66ed5b2d31c20001b09d7f,Spanish,13 or older,"no, only English or Spanish",no,2025-07-23_08h32.41.537,empathy_intonation_perc,2024.2.4,Win32,60.24096386,5c66ed5b2d31c20001b09d7f,687ed1b7e638a4cbf2f02089,6880d63bd0a9ae71b6913231,,,,,,,,,,,,,43,1,,./stim/wavs/puertorican_mismatch_interrogative-total-yn_La-nina-lava-el-plato.wav,,,,,,,,,,,,,,,,,,,,,,385.7959,387.6571,1,1,1.335,,0,77,77,42,1,1,puertorican,,,,,,,,,,,,,,,,,,,,,,,,,,,,,,,,,,,,,,,,,,,,,,,,,,,,,,,,
,,,,,,,,,5c66ed5b2d31c20001b09d7f,Spanish,13 or older,"no, only English or Spanish",no,2025-07-23_08h32.41.537,empathy_intonation_perc,2024.2.4,Win32,60.24096386,5c66ed5b2d31c20001b09d7f,687ed1b7e638a4cbf2f02089,6880d63bd0a9ae71b6913231,,,,,,,,,,,,,5,1,,./stim/wavs/castilian_match_interrogative-total-yn_Mariano-habla-del-tiempo.wav,,,,,,,,,,,,,,,,,,,,,,387.658,389.7576,0,0,1.5677,,0,78,78,4,1,0,castilian,,,,,,,,,,,,,,,,,,,,,,,,,,,,,,,,,,,,,,,,,,,,,,,,,,,,,,,,
,,,,,,,,,5c66ed5b2d31c20001b09d7f,Spanish,13 or older,"no, only English or Spanish",no,2025-07-23_08h32.41.537,empathy_intonation_perc,2024.2.4,Win32,60.24096386,5c66ed5b2d31c20001b09d7f,687ed1b7e638a4cbf2f02089,6880d63bd0a9ae71b6913231,,,,,,,,,,,,,85,0,,./stim/wavs/puertorican_mismatch_declarative-broad-focus_El-hombre-mira-la-luna.wav,,,,,,,,,,,,,,,,,,,,,,389.7584,391.746,0,1,1.4653,,0,79,79,84,1,0,puertorican,,,,,,,,,,,,,,,,,,,,,,,,,,,,,,,,,,,,,,,,,,,,,,,,,,,,,,,,
,,,,,,,,,5c66ed5b2d31c20001b09d7f,Spanish,13 or older,"no, only English or Spanish",no,2025-07-23_08h32.41.537,empathy_intonation_perc,2024.2.4,Win32,60.24096386,5c66ed5b2d31c20001b09d7f,687ed1b7e638a4cbf2f02089,6880d63bd0a9ae71b6913231,,,,,,,,,,,,,69,0,,./stim/wavs/castilian_mismatch_declarative-broad-focus_El-nino-oye-el-rio.wav,,,,,,,,,,,,,,,,,,,,,,391.7463,393.9906,0,1,1.7171,,0,80,80,68,1,0,castilian,,,,,,,,,,,,,,,,,,,,,,,,,,,,,,,,,,,,,,,,,,,,,,,,,,,,,,,,
,,,,,,,,,5c66ed5b2d31c20001b09d7f,Spanish,13 or older,"no, only English or Spanish",no,2025-07-23_08h32.41.537,empathy_intonation_perc,2024.2.4,Win32,60.24096386,5c66ed5b2d31c20001b09d7f,687ed1b7e638a4cbf2f02089,6880d63bd0a9ae71b6913231,,,,,,,,,,,,,17,1,,./stim/wavs/mexican_match_interrogative-total-yn_Mariano-habla-del-tiempo.wav,,,,,,,,,,,,,,,,,,,,,,393.9913,396.2618,0,0,1.7329,,0,81,81,16,1,0,mexican,,,,,,,,,,,,,,,,,,,,,,,,,,,,,,,,,,,,,,,,,,,,,,,,,,,,,,,,
,,,,,,,,,5c66ed5b2d31c20001b09d7f,Spanish,13 or older,"no, only English or Spanish",no,2025-07-23_08h32.41.537,empathy_intonation_perc,2024.2.4,Win32,60.24096386,5c66ed5b2d31c20001b09d7f,687ed1b7e638a4cbf2f02089,6880d63bd0a9ae71b6913231,,,,,,,,,,,,,27,1,,./stim/wavs/castilian_mismatch_interrogative-total-yn_Mi-madre-come-la-fruta.wav,,,,,,,,,,,,,,,,,,,,,,396.2621,398.4571,1,1,1.6662,,0,82,82,26,1,0,castilian,,,,,,,,,,,,,,,,,,,,,,,,,,,,,,,,,,,,,,,,,,,,,,,,,,,,,,,,
,,,,,,,,,5c66ed5b2d31c20001b09d7f,Spanish,13 or older,"no, only English or Spanish",no,2025-07-23_08h32.41.537,empathy_intonation_perc,2024.2.4,Win32,60.24096386,5c66ed5b2d31c20001b09d7f,687ed1b7e638a4cbf2f02089,6880d63bd0a9ae71b6913231,,,,,,,,,,,,,61,0,,./stim/wavs/mexican_match_declarative-broad-focus_Mariano-habla-del-tiempo.wav,,,,,,,,,,,,,,,,,,,,,,398.4577,400.6912,0,1,1.7101,,0,83,83,60,1,0,mexican,,,,,,,,,,,,,,,,,,,,,,,,,,,,,,,,,,,,,,,,,,,,,,,,,,,,,,,,
,,,,,,,,,5c66ed5b2d31c20001b09d7f,Spanish,13 or older,"no, only English or Spanish",no,2025-07-23_08h32.41.537,empathy_intonation_perc,2024.2.4,Win32,60.24096386,5c66ed5b2d31c20001b09d7f,687ed1b7e638a4cbf2f02089,6880d63bd0a9ae71b6913231,,,,,,,,,,,,,20,1,,./stim/wavs/puertorican_match_interrogative-total-yn_Daniel-iba-a-Bolivia.wav,,,,,,,,,,,,,,,,,,,,,,400.692,402.8908,0,0,1.6517,,0,84,84,19,1,1,puertorican,,,,,,,,,,,,,,,,,,,,,,,,,,,,,,,,,,,,,,,,,,,,,,,,,,,,,,,,
,,,,,,,,,5c66ed5b2d31c20001b09d7f,Spanish,13 or older,"no, only English or Spanish",no,2025-07-23_08h32.41.537,empathy_intonation_perc,2024.2.4,Win32,60.24096386,5c66ed5b2d31c20001b09d7f,687ed1b7e638a4cbf2f02089,6880d63bd0a9ae71b6913231,,,,,,,,,,,,,14,1,,./stim/wavs/mexican_match_interrogative-total-yn_Daniel-iba-a-Bolivia.wav,,,,,,,,,,,,,,,,,,,,,,402.8915,405.3571,1,1,1.9466,,0,85,85,13,1,0,mexican,,,,,,,,,,,,,,,,,,,,,,,,,,,,,,,,,,,,,,,,,,,,,,,,,,,,,,,,
,,,,,,,,,5c66ed5b2d31c20001b09d7f,Spanish,13 or older,"no, only English or Spanish",no,2025-07-23_08h32.41.537,empathy_intonation_perc,2024.2.4,Win32,60.24096386,5c66ed5b2d31c20001b09d7f,687ed1b7e638a4cbf2f02089,6880d63bd0a9ae71b6913231,,,,,,,,,,,,,56,0,,./stim/wavs/cuban_match_declarative-broad-focus_Marta-abre-el-regalo.wav,,,,,,,,,,,,,,,,,,,,,,405.3585,407.5767,0,1,1.6839,,0,86,86,55,1,0,cuban,,,,,,,,,,,,,,,,,,,,,,,,,,,,,,,,,,,,,,,,,,,,,,,,,,,,,,,,
,,,,,,,,,5c66ed5b2d31c20001b09d7f,Spanish,13 or older,"no, only English or Spanish",no,2025-07-23_08h32.41.537,empathy_intonation_perc,2024.2.4,Win32,60.24096386,5c66ed5b2d31c20001b09d7f,687ed1b7e638a4cbf2f02089,6880d63bd0a9ae71b6913231,,,,,,,,,,,,,18,1,,./stim/wavs/mexican_match_interrogative-total-yn_Marta-abre-el-regalo.wav,,,,,,,,,,,,,,,,,,,,,,407.577,409.5282,0,0,1.4316,,0,87,87,17,1,0,mexican,,,,,,,,,,,,,,,,,,,,,,,,,,,,,,,,,,,,,,,,,,,,,,,,,,,,,,,,
,,,,,,,"Great! Now we will move on. The next task consists of about 60 trials, in each of which you will see a string of letters. 
  
  Your task is to decide whether this is a real Spanish word or not.", (press the spacebar to continue),5c66ed5b2d31c20001b09d7f,Spanish,13 or older,"no, only English or Spanish",no,2025-07-23_08h32.41.537,empathy_intonation_perc,2024.2.4,Win32,60.24096386,5c66ed5b2d31c20001b09d7f,687ed1b7e638a4cbf2f02089,6880d63bd0a9ae71b6913231,,,,,,,,,,,,,,,,,,,,,,,,,,,,,,,,,,,,,,,,,,,,,,,,,,,409.5315,416.1909,0,0,0,0,1,,,,,,,,,,,,,,,,,,,,,,,,,,,,,,,,,,,,,,,,,,,,,,,,,
,,,,,,,"If you think it is an existing Spanish word, you type '1' (for 'REAL'), and if you think it is not an existing Spanish word, you type '0' (for 'FAKE').", (press the spacebar to continue),5c66ed5b2d31c20001b09d7f,Spanish,13 or older,"no, only English or Spanish",no,2025-07-23_08h32.41.537,empathy_intonation_perc,2024.2.4,Win32,60.24096386,5c66ed5b2d31c20001b09d7f,687ed1b7e638a4cbf2f02089,6880d63bd0a9ae71b6913231,,,,,,,,,,,,,,,,,,,,,,,,,,,,,,,,,,,,,,,,,,,,,,,,,,,416.1925,420.2076,0,1,1,1,1,,,,,,,,,,,,,,,,,,,,,,,,,,,,,,,,,,,,,,,,,,,,,,,,,
,,,,,,,"If you are sure that the word exists, even though you don’t know its exact meaning, you may still respond '1' (REAL). 
  
  But if you are not sure if it is an existing word, you should respond '0' (FAKE).
  
  Let's do a practice round...", (press the spacebar to continue),5c66ed5b2d31c20001b09d7f,Spanish,13 or older,"no, only English or Spanish",no,2025-07-23_08h32.41.537,empathy_intonation_perc,2024.2.4,Win32,60.24096386,5c66ed5b2d31c20001b09d7f,687ed1b7e638a4cbf2f02089,6880d63bd0a9ae71b6913231,,,,,,,,,,,,,,,,,,,,,,,,,,,,,,,,,,,,,,,,,,,,,,,,,,,420.2093,424.3242,0,2,2,2,1,,,,,,,,,,,,,,,,,,,,,,,,,,,,,,,,,,,,,,,,,,,,,,,,,
,,,,,,,,,5c66ed5b2d31c20001b09d7f,Spanish,13 or older,"no, only English or Spanish",no,2025-07-23_08h32.41.537,empathy_intonation_perc,2024.2.4,Win32,60.24096386,5c66ed5b2d31c20001b09d7f,687ed1b7e638a4cbf2f02089,6880d63bd0a9ae71b6913231,,,,,,,,,,,,,,0,,,,,,,,,,,,,,,,,,,,,,,,,,,,,,,,,,,,,,,,,,,,424.3279,426.3082,1,0,1.4418,,426.3087,427.311,0,0,0,0,1,0,depiste,REAL,FAKE,,,,,,,,,,,,,,,,,,,,,,,,,,,,,,,,
,,,,,,,,,5c66ed5b2d31c20001b09d7f,Spanish,13 or older,"no, only English or Spanish",no,2025-07-23_08h32.41.537,empathy_intonation_perc,2024.2.4,Win32,60.24096386,5c66ed5b2d31c20001b09d7f,687ed1b7e638a4cbf2f02089,6880d63bd0a9ae71b6913231,,,,,,,,,,,,,,1,,,,,,,,,,,,,,,,,,,,,,,,,,,,,,,,,,,,,,,,,,,,427.3119,428.4958,1,1,0.6513,,428.4962,429.4964,0,1,1,1,1,0,sí,REAL,FAKE,,,,,,,,,,,,,,,,,,,,,,,,,,,,,,,,
,,,,,,,,,5c66ed5b2d31c20001b09d7f,Spanish,13 or older,"no, only English or Spanish",no,2025-07-23_08h32.41.537,empathy_intonation_perc,2024.2.4,Win32,60.24096386,5c66ed5b2d31c20001b09d7f,687ed1b7e638a4cbf2f02089,6880d63bd0a9ae71b6913231,,,,,,,,,,,,,,0,,,,,,,,,,,,,,,,,,,,,,,,,,,,,,,,,,,,,,,,,,,,429.4971,430.9572,1,0,0.9165,,430.9587,431.9572,0,2,2,2,1,0,coné,REAL,FAKE,,,,,,,,,,,,,,,,,,,,,,,,,,,,,,,,
,,,,,,,,,5c66ed5b2d31c20001b09d7f,Spanish,13 or older,"no, only English or Spanish",no,2025-07-23_08h32.41.537,empathy_intonation_perc,2024.2.4,Win32,60.24096386,5c66ed5b2d31c20001b09d7f,687ed1b7e638a4cbf2f02089,6880d63bd0a9ae71b6913231,,,,,,,,,,,,,,0,,,,,,,,,,,,,,,,,,,,,,,,,,,,,,,,,,,,,,,,,,,,431.9588,433.1241,1,0,0.6165,,433.1241,434.1238,0,3,3,3,1,0,calpar,REAL,FAKE,,,,,,,,,,,,,,,,,,,,,,,,,,,,,,,,
,,,,,,,,,5c66ed5b2d31c20001b09d7f,Spanish,13 or older,"no, only English or Spanish",no,2025-07-23_08h32.41.537,empathy_intonation_perc,2024.2.4,Win32,60.24096386,5c66ed5b2d31c20001b09d7f,687ed1b7e638a4cbf2f02089,6880d63bd0a9ae71b6913231,,,,,,,,,,,,,,0,,,,,,,,,,,,,,,,,,,,,,,,,,,,,,,,,,,,,,,,,,,,434.1253,435.2621,0,1,0.6167,,435.2625,436.2575,0,4,4,4,1,0,joten,REAL,FAKE,,,,,,,,,,,,,,,,,,,,,,,,,,,,,,,,
,,,,,,,,,5c66ed5b2d31c20001b09d7f,Spanish,13 or older,"no, only English or Spanish",no,2025-07-23_08h32.41.537,empathy_intonation_perc,2024.2.4,Win32,60.24096386,5c66ed5b2d31c20001b09d7f,687ed1b7e638a4cbf2f02089,6880d63bd0a9ae71b6913231,,,,,,,,,,,,,,1,,,,,,,,,,,,,,,,,,,,,,,,,,,,,,,,,,,,,,,,,,,,436.2593,437.4789,0,0,0.6833,,437.4793,438.4745,0,5,5,5,1,0,sacapuntas,REAL,FAKE,,,,,,,,,,,,,,,,,,,,,,,,,,,,,,,,
,,,,,,,,,5c66ed5b2d31c20001b09d7f,Spanish,13 or older,"no, only English or Spanish",no,2025-07-23_08h32.41.537,empathy_intonation_perc,2024.2.4,Win32,60.24096386,5c66ed5b2d31c20001b09d7f,687ed1b7e638a4cbf2f02089,6880d63bd0a9ae71b6913231,,,,,,,,,,,,,,0,,,,,,,,,,,,,,,,,,,,,,,,,,,,,,,,,,,,,,,,,,,,438.4758,439.6572,0,1,0.6525,,439.658,440.6578,0,6,6,6,1,0,priba,REAL,FAKE,,,,,,,,,,,,,,,,,,,,,,,,,,,,,,,,
,,,,,,,,,5c66ed5b2d31c20001b09d7f,Spanish,13 or older,"no, only English or Spanish",no,2025-07-23_08h32.41.537,empathy_intonation_perc,2024.2.4,Win32,60.24096386,5c66ed5b2d31c20001b09d7f,687ed1b7e638a4cbf2f02089,6880d63bd0a9ae71b6913231,,,,,,,,,,,,,,0,,,,,,,,,,,,,,,,,,,,,,,,,,,,,,,,,,,,,,,,,,,,440.6589,441.9075,0,1,0.7077,,441.9076,442.9079,0,7,7,7,1,0,pelasula,REAL,FAKE,,,,,,,,,,,,,,,,,,,,,,,,,,,,,,,,
,,,,,,,,,5c66ed5b2d31c20001b09d7f,Spanish,13 or older,"no, only English or Spanish",no,2025-07-23_08h32.41.537,empathy_intonation_perc,2024.2.4,Win32,60.24096386,5c66ed5b2d31c20001b09d7f,687ed1b7e638a4cbf2f02089,6880d63bd0a9ae71b6913231,,,,,,,,,,,,,,1,,,,,,,,,,,,,,,,,,,,,,,,,,,,,,,,,,,,,,,,,,,,442.9089,444.0912,1,1,0.6343,,444.0913,445.0946,0,8,8,8,1,0,bien,REAL,FAKE,,,,,,,,,,,,,,,,,,,,,,,,,,,,,,,,
,,,,,,,,,5c66ed5b2d31c20001b09d7f,Spanish,13 or older,"no, only English or Spanish",no,2025-07-23_08h32.41.537,empathy_intonation_perc,2024.2.4,Win32,60.24096386,5c66ed5b2d31c20001b09d7f,687ed1b7e638a4cbf2f02089,6880d63bd0a9ae71b6913231,,,,,,,,,,,,,,1,,,,,,,,,,,,,,,,,,,,,,,,,,,,,,,,,,,,,,,,,,,,445.0953,446.3463,1,1,0.7183,,446.3463,447.3411,0,9,9,9,1,0,casa,REAL,FAKE,,,,,,,,,,,,,,,,,,,,,,,,,,,,,,,,
,,,,,,,,,5c66ed5b2d31c20001b09d7f,Spanish,13 or older,"no, only English or Spanish",no,2025-07-23_08h32.41.537,empathy_intonation_perc,2024.2.4,Win32,60.24096386,5c66ed5b2d31c20001b09d7f,687ed1b7e638a4cbf2f02089,6880d63bd0a9ae71b6913231,,,,,,,,,,,,,,0,,,,,,,,,,,,,,,,,,,,,,,,,,,,,,,,,,,,,,,,,,,,447.3426,448.5959,0,1,0.7167,,448.5959,449.5911,0,10,10,10,1,0,lejo,REAL,FAKE,,,,,,,,,,,,,,,,,,,,,,,,,,,,,,,,
,,,,,,,,,5c66ed5b2d31c20001b09d7f,Spanish,13 or older,"no, only English or Spanish",no,2025-07-23_08h32.41.537,empathy_intonation_perc,2024.2.4,Win32,60.24096386,5c66ed5b2d31c20001b09d7f,687ed1b7e638a4cbf2f02089,6880d63bd0a9ae71b6913231,,,,,,,,,,,,,,0,,,,,,,,,,,,,,,,,,,,,,,,,,,,,,,,,,,,,,,,,,,,449.5923,450.8958,0,1,0.7666,,450.8958,451.8905,0,11,11,11,1,0,pretantas,REAL,FAKE,,,,,,,,,,,,,,,,,,,,,,,,,,,,,,,,
,,,,,,,,,5c66ed5b2d31c20001b09d7f,Spanish,13 or older,"no, only English or Spanish",no,2025-07-23_08h32.41.537,empathy_intonation_perc,2024.2.4,Win32,60.24096386,5c66ed5b2d31c20001b09d7f,687ed1b7e638a4cbf2f02089,6880d63bd0a9ae71b6913231,,,,,,,,,,,,,,,,,,,,,,,,,,,,,,,,,,,,,,,,,,,,,,,,,,,,,,,,,,,,,,,,,,,,,,,,,,,451.8908,453.6078,,,,,,,,,,,,,,,,,,,,,,,,,,,,,,
,,,,,,,,,5c66ed5b2d31c20001b09d7f,Spanish,13 or older,"no, only English or Spanish",no,2025-07-23_08h32.41.537,empathy_intonation_perc,2024.2.4,Win32,60.24096386,5c66ed5b2d31c20001b09d7f,687ed1b7e638a4cbf2f02089,6880d63bd0a9ae71b6913231,,,,,,,,,,,,,,0,,,,,,,,,,,,,,,,,,,,,,,,,,,,,,,,,,,,,,,,,,,,,,,,,,,,,,,,,23,lampera,,,,,453.6123,454.9409,0,1,0.7901,,0,0,0,22,1,REAL,FAKE,,,,,,,,,,,,,,,,,
,,,,,,,,,5c66ed5b2d31c20001b09d7f,Spanish,13 or older,"no, only English or Spanish",no,2025-07-23_08h32.41.537,empathy_intonation_perc,2024.2.4,Win32,60.24096386,5c66ed5b2d31c20001b09d7f,687ed1b7e638a4cbf2f02089,6880d63bd0a9ae71b6913231,,,,,,,,,,,,,,1,,,,,,,,,,,,,,,,,,,,,,,,,,,,,,,,,,,,,,,,,,,,,,,,,,,,,,,,,2,pellizcar,,,,,454.9422,456.3574,1,1,0.8728,,0,1,1,1,1,REAL,FAKE,,,,,,,,,,,,,,,,,
,,,,,,,,,5c66ed5b2d31c20001b09d7f,Spanish,13 or older,"no, only English or Spanish",no,2025-07-23_08h32.41.537,empathy_intonation_perc,2024.2.4,Win32,60.24096386,5c66ed5b2d31c20001b09d7f,687ed1b7e638a4cbf2f02089,6880d63bd0a9ae71b6913231,,,,,,,,,,,,,,1,,,,,,,,,,,,,,,,,,,,,,,,,,,,,,,,,,,,,,,,,,,,,,,,,,,,,,,,,11,cenefa,,,,,456.3586,457.8932,1,1,1.0139,,0,2,2,10,1,REAL,FAKE,,,,,,,,,,,,,,,,,
,,,,,,,,,5c66ed5b2d31c20001b09d7f,Spanish,13 or older,"no, only English or Spanish",no,2025-07-23_08h32.41.537,empathy_intonation_perc,2024.2.4,Win32,60.24096386,5c66ed5b2d31c20001b09d7f,687ed1b7e638a4cbf2f02089,6880d63bd0a9ae71b6913231,,,,,,,,,,,,,,1,,,,,,,,,,,,,,,,,,,,,,,,,,,,,,,,,,,,,,,,,,,,,,,,,,,,,,,,,40,alfombra,,,,,457.8938,459.2453,1,1,0.8328,,0,3,3,39,1,REAL,FAKE,,,,,,,,,,,,,,,,,
,,,,,,,,,5c66ed5b2d31c20001b09d7f,Spanish,13 or older,"no, only English or Spanish",no,2025-07-23_08h32.41.537,empathy_intonation_perc,2024.2.4,Win32,60.24096386,5c66ed5b2d31c20001b09d7f,687ed1b7e638a4cbf2f02089,6880d63bd0a9ae71b6913231,,,,,,,,,,,,,,0,,,,,,,,,,,,,,,,,,,,,,,,,,,,,,,,,,,,,,,,,,,,,,,,,,,,,,,,,53,vegada,,,,,459.2462,460.7073,0,1,0.9171,,0,4,4,52,1,REAL,FAKE,,,,,,,,,,,,,,,,,
,,,,,,,,,5c66ed5b2d31c20001b09d7f,Spanish,13 or older,"no, only English or Spanish",no,2025-07-23_08h32.41.537,empathy_intonation_perc,2024.2.4,Win32,60.24096386,5c66ed5b2d31c20001b09d7f,687ed1b7e638a4cbf2f02089,6880d63bd0a9ae71b6913231,,,,,,,,,,,,,,0,,,,,,,,,,,,,,,,,,,,,,,,,,,,,,,,,,,,,,,,,,,,,,,,,,,,,,,,,58,plaudir,,,,,460.7088,462.1288,1,0,0.8836,,0,5,5,57,1,REAL,FAKE,,,,,,,,,,,,,,,,,
,,,,,,,,,5c66ed5b2d31c20001b09d7f,Spanish,13 or older,"no, only English or Spanish",no,2025-07-23_08h32.41.537,empathy_intonation_perc,2024.2.4,Win32,60.24096386,5c66ed5b2d31c20001b09d7f,687ed1b7e638a4cbf2f02089,6880d63bd0a9ae71b6913231,,,,,,,,,,,,,,0,,,,,,,,,,,,,,,,,,,,,,,,,,,,,,,,,,,,,,,,,,,,,,,,,,,,,,,,,30,alardio,,,,,462.1294,463.4575,0,1,0.7931,,0,6,6,29,1,REAL,FAKE,,,,,,,,,,,,,,,,,
,,,,,,,,,5c66ed5b2d31c20001b09d7f,Spanish,13 or older,"no, only English or Spanish",no,2025-07-23_08h32.41.537,empathy_intonation_perc,2024.2.4,Win32,60.24096386,5c66ed5b2d31c20001b09d7f,687ed1b7e638a4cbf2f02089,6880d63bd0a9ae71b6913231,,,,,,,,,,,,,,1,,,,,,,,,,,,,,,,,,,,,,,,,,,,,,,,,,,,,,,,,,,,,,,,,,,,,,,,,90,clavel,,,,,463.4587,465.0907,0,0,1.092,,0,7,7,89,1,REAL,FAKE,,,,,,,,,,,,,,,,,
,,,,,,,,,5c66ed5b2d31c20001b09d7f,Spanish,13 or older,"no, only English or Spanish",no,2025-07-23_08h32.41.537,empathy_intonation_perc,2024.2.4,Win32,60.24096386,5c66ed5b2d31c20001b09d7f,687ed1b7e638a4cbf2f02089,6880d63bd0a9ae71b6913231,,,,,,,,,,,,,,1,,,,,,,,,,,,,,,,,,,,,,,,,,,,,,,,,,,,,,,,,,,,,,,,,,,,,,,,,43,canela,,,,,465.0918,466.3282,1,1,0.6993,,0,8,8,42,1,REAL,FAKE,,,,,,,,,,,,,,,,,
,,,,,,,,,5c66ed5b2d31c20001b09d7f,Spanish,13 or older,"no, only English or Spanish",no,2025-07-23_08h32.41.537,empathy_intonation_perc,2024.2.4,Win32,60.24096386,5c66ed5b2d31c20001b09d7f,687ed1b7e638a4cbf2f02089,6880d63bd0a9ae71b6913231,,,,,,,,,,,,,,0,,,,,,,,,,,,,,,,,,,,,,,,,,,,,,,,,,,,,,,,,,,,,,,,,,,,,,,,,84,escuto,,,,,466.3287,467.7238,0,1,0.8568,,0,9,9,83,1,REAL,FAKE,,,,,,,,,,,,,,,,,
,,,,,,,,,5c66ed5b2d31c20001b09d7f,Spanish,13 or older,"no, only English or Spanish",no,2025-07-23_08h32.41.537,empathy_intonation_perc,2024.2.4,Win32,60.24096386,5c66ed5b2d31c20001b09d7f,687ed1b7e638a4cbf2f02089,6880d63bd0a9ae71b6913231,,,,,,,,,,,,,,1,,,,,,,,,,,,,,,,,,,,,,,,,,,,,,,,,,,,,,,,,,,,,,,,,,,,,,,,,26,secuestro,,,,,467.7249,469.0237,0,0,0.7608,,0,10,10,25,1,REAL,FAKE,,,,,,,,,,,,,,,,,
,,,,,,,,,5c66ed5b2d31c20001b09d7f,Spanish,13 or older,"no, only English or Spanish",no,2025-07-23_08h32.41.537,empathy_intonation_perc,2024.2.4,Win32,60.24096386,5c66ed5b2d31c20001b09d7f,687ed1b7e638a4cbf2f02089,6880d63bd0a9ae71b6913231,,,,,,,,,,,,,,0,,,,,,,,,,,,,,,,,,,,,,,,,,,,,,,,,,,,,,,,,,,,,,,,,,,,,,,,,33,pauca,,,,,469.025,470.4738,1,0,0.9013,,0,11,11,32,1,REAL,FAKE,,,,,,,,,,,,,,,,,
,,,,,,,,,5c66ed5b2d31c20001b09d7f,Spanish,13 or older,"no, only English or Spanish",no,2025-07-23_08h32.41.537,empathy_intonation_perc,2024.2.4,Win32,60.24096386,5c66ed5b2d31c20001b09d7f,687ed1b7e638a4cbf2f02089,6880d63bd0a9ae71b6913231,,,,,,,,,,,,,,1,,,,,,,,,,,,,,,,,,,,,,,,,,,,,,,,,,,,,,,,,,,,,,,,,,,,,,,,,6,tergiversar,,,,,470.4753,472.0744,0,0,1.068,,0,12,12,5,1,REAL,FAKE,,,,,,,,,,,,,,,,,
,,,,,,,,,5c66ed5b2d31c20001b09d7f,Spanish,13 or older,"no, only English or Spanish",no,2025-07-23_08h32.41.537,empathy_intonation_perc,2024.2.4,Win32,60.24096386,5c66ed5b2d31c20001b09d7f,687ed1b7e638a4cbf2f02089,6880d63bd0a9ae71b6913231,,,,,,,,,,,,,,1,,,,,,,,,,,,,,,,,,,,,,,,,,,,,,,,,,,,,,,,,,,,,,,,,,,,,,,,,67,cabello,,,,,472.0756,473.4238,1,1,0.824,,0,13,13,66,1,REAL,FAKE,,,,,,,,,,,,,,,,,
,,,,,,,,,5c66ed5b2d31c20001b09d7f,Spanish,13 or older,"no, only English or Spanish",no,2025-07-23_08h32.41.537,empathy_intonation_perc,2024.2.4,Win32,60.24096386,5c66ed5b2d31c20001b09d7f,687ed1b7e638a4cbf2f02089,6880d63bd0a9ae71b6913231,,,,,,,,,,,,,,1,,,,,,,,,,,,,,,,,,,,,,,,,,,,,,,,,,,,,,,,,,,,,,,,,,,,,,,,,13,helar,,,,,473.4252,474.9611,1,1,0.9999,,0,14,14,12,1,REAL,FAKE,,,,,,,,,,,,,,,,,
,,,,,,,,,5c66ed5b2d31c20001b09d7f,Spanish,13 or older,"no, only English or Spanish",no,2025-07-23_08h32.41.537,empathy_intonation_perc,2024.2.4,Win32,60.24096386,5c66ed5b2d31c20001b09d7f,687ed1b7e638a4cbf2f02089,6880d63bd0a9ae71b6913231,,,,,,,,,,,,,,1,,,,,,,,,,,,,,,,,,,,,,,,,,,,,,,,,,,,,,,,,,,,,,,,,,,,,,,,,22,lacayo,,,,,474.9618,476.1572,0,0,0.656,,0,15,15,21,1,REAL,FAKE,,,,,,,,,,,,,,,,,
,,,,,,,,,5c66ed5b2d31c20001b09d7f,Spanish,13 or older,"no, only English or Spanish",no,2025-07-23_08h32.41.537,empathy_intonation_perc,2024.2.4,Win32,60.24096386,5c66ed5b2d31c20001b09d7f,687ed1b7e638a4cbf2f02089,6880d63bd0a9ae71b6913231,,,,,,,,,,,,,,1,,,,,,,,,,,,,,,,,,,,,,,,,,,,,,,,,,,,,,,,,,,,,,,,,,,,,,,,,83,guante,,,,,476.1586,477.3406,1,1,0.6574,,0,16,16,82,1,REAL,FAKE,,,,,,,,,,,,,,,,,
,,,,,,,,,5c66ed5b2d31c20001b09d7f,Spanish,13 or older,"no, only English or Spanish",no,2025-07-23_08h32.41.537,empathy_intonation_perc,2024.2.4,Win32,60.24096386,5c66ed5b2d31c20001b09d7f,687ed1b7e638a4cbf2f02089,6880d63bd0a9ae71b6913231,,,,,,,,,,,,,,0,,,,,,,,,,,,,,,,,,,,,,,,,,,,,,,,,,,,,,,,,,,,,,,,,,,,,,,,,63,esposante,,,,,477.342,478.8125,1,0,0.9509,,0,17,17,62,1,REAL,FAKE,,,,,,,,,,,,,,,,,
,,,,,,,,,5c66ed5b2d31c20001b09d7f,Spanish,13 or older,"no, only English or Spanish",no,2025-07-23_08h32.41.537,empathy_intonation_perc,2024.2.4,Win32,60.24096386,5c66ed5b2d31c20001b09d7f,687ed1b7e638a4cbf2f02089,6880d63bd0a9ae71b6913231,,,,,,,,,,,,,,1,,,,,,,,,,,,,,,,,,,,,,,,,,,,,,,,,,,,,,,,,,,,,,,,,,,,,,,,,9,hacha,,,,,478.8132,480.3072,0,0,0.9579,,0,18,18,8,1,REAL,FAKE,,,,,,,,,,,,,,,,,
,,,,,,,,,5c66ed5b2d31c20001b09d7f,Spanish,13 or older,"no, only English or Spanish",no,2025-07-23_08h32.41.537,empathy_intonation_perc,2024.2.4,Win32,60.24096386,5c66ed5b2d31c20001b09d7f,687ed1b7e638a4cbf2f02089,6880d63bd0a9ae71b6913231,,,,,,,,,,,,,,1,,,,,,,,,,,,,,,,,,,,,,,,,,,,,,,,,,,,,,,,,,,,,,,,,,,,,,,,,51,candado,,,,,480.3088,481.8071,0,0,0.9512,,0,19,19,50,1,REAL,FAKE,,,,,,,,,,,,,,,,,
,,,,,,,,,5c66ed5b2d31c20001b09d7f,Spanish,13 or older,"no, only English or Spanish",no,2025-07-23_08h32.41.537,empathy_intonation_perc,2024.2.4,Win32,60.24096386,5c66ed5b2d31c20001b09d7f,687ed1b7e638a4cbf2f02089,6880d63bd0a9ae71b6913231,,,,,,,,,,,,,,1,,,,,,,,,,,,,,,,,,,,,,,,,,,,,,,,,,,,,,,,,,,,,,,,,,,,,,,,,61,seda,,,,,481.8088,483.2072,1,1,0.8671,,0,20,20,60,1,REAL,FAKE,,,,,,,,,,,,,,,,,
,,,,,,,,,5c66ed5b2d31c20001b09d7f,Spanish,13 or older,"no, only English or Spanish",no,2025-07-23_08h32.41.537,empathy_intonation_perc,2024.2.4,Win32,60.24096386,5c66ed5b2d31c20001b09d7f,687ed1b7e638a4cbf2f02089,6880d63bd0a9ae71b6913231,,,,,,,,,,,,,,1,,,,,,,,,,,,,,,,,,,,,,,,,,,,,,,,,,,,,,,,,,,,,,,,,,,,,,,,,75,yacer,,,,,483.2086,484.6573,1,1,0.9017,,0,21,21,74,1,REAL,FAKE,,,,,,,,,,,,,,,,,
,,,,,,,,,5c66ed5b2d31c20001b09d7f,Spanish,13 or older,"no, only English or Spanish",no,2025-07-23_08h32.41.537,empathy_intonation_perc,2024.2.4,Win32,60.24096386,5c66ed5b2d31c20001b09d7f,687ed1b7e638a4cbf2f02089,6880d63bd0a9ae71b6913231,,,,,,,,,,,,,,0,,,,,,,,,,,,,,,,,,,,,,,,,,,,,,,,,,,,,,,,,,,,,,,,,,,,,,,,,17,floroso,,,,,484.6587,486.3446,0,1,1.1492,,0,22,22,16,1,REAL,FAKE,,,,,,,,,,,,,,,,,
,,,,,,,,,5c66ed5b2d31c20001b09d7f,Spanish,13 or older,"no, only English or Spanish",no,2025-07-23_08h32.41.537,empathy_intonation_perc,2024.2.4,Win32,60.24096386,5c66ed5b2d31c20001b09d7f,687ed1b7e638a4cbf2f02089,6880d63bd0a9ae71b6913231,,,,,,,,,,,,,,1,,,,,,,,,,,,,,,,,,,,,,,,,,,,,,,,,,,,,,,,,,,,,,,,,,,,,,,,,31,pandilla,,,,,486.3452,488.2077,0,0,1.3178,,0,23,23,30,1,REAL,FAKE,,,,,,,,,,,,,,,,,
,,,,,,,,,5c66ed5b2d31c20001b09d7f,Spanish,13 or older,"no, only English or Spanish",no,2025-07-23_08h32.41.537,empathy_intonation_perc,2024.2.4,Win32,60.24096386,5c66ed5b2d31c20001b09d7f,687ed1b7e638a4cbf2f02089,6880d63bd0a9ae71b6913231,,,,,,,,,,,,,,0,,,,,,,,,,,,,,,,,,,,,,,,,,,,,,,,,,,,,,,,,,,,,,,,,,,,,,,,,4,batillón,,,,,488.2093,489.678,1,0,0.9327,,0,24,24,3,1,REAL,FAKE,,,,,,,,,,,,,,,,,
,,,,,,,,,5c66ed5b2d31c20001b09d7f,Spanish,13 or older,"no, only English or Spanish",no,2025-07-23_08h32.41.537,empathy_intonation_perc,2024.2.4,Win32,60.24096386,5c66ed5b2d31c20001b09d7f,687ed1b7e638a4cbf2f02089,6880d63bd0a9ae71b6913231,,,,,,,,,,,,,,0,,,,,,,,,,,,,,,,,,,,,,,,,,,,,,,,,,,,,,,,,,,,,,,,,,,,,,,,,87,grodo,,,,,489.6787,491.4907,0,1,1.2753,,0,25,25,86,1,REAL,FAKE,,,,,,,,,,,,,,,,,
,,,,,,,,,5c66ed5b2d31c20001b09d7f,Spanish,13 or older,"no, only English or Spanish",no,2025-07-23_08h32.41.537,empathy_intonation_perc,2024.2.4,Win32,60.24096386,5c66ed5b2d31c20001b09d7f,687ed1b7e638a4cbf2f02089,6880d63bd0a9ae71b6913231,,,,,,,,,,,,,,0,,,,,,,,,,,,,,,,,,,,,,,,,,,,,,,,,,,,,,,,,,,,,,,,,,,,,,,,,42,cadallo,,,,,491.4919,492.9452,1,0,0.9164,,0,26,26,41,1,REAL,FAKE,,,,,,,,,,,,,,,,,
,,,,,,,,,5c66ed5b2d31c20001b09d7f,Spanish,13 or older,"no, only English or Spanish",no,2025-07-23_08h32.41.537,empathy_intonation_perc,2024.2.4,Win32,60.24096386,5c66ed5b2d31c20001b09d7f,687ed1b7e638a4cbf2f02089,6880d63bd0a9ae71b6913231,,,,,,,,,,,,,,0,,,,,,,,,,,,,,,,,,,,,,,,,,,,,,,,,,,,,,,,,,,,,,,,,,,,,,,,,10,antar,,,,,492.9459,494.2608,1,0,0.7815,,0,27,27,9,1,REAL,FAKE,,,,,,,,,,,,,,,,,
,,,,,,,,,5c66ed5b2d31c20001b09d7f,Spanish,13 or older,"no, only English or Spanish",no,2025-07-23_08h32.41.537,empathy_intonation_perc,2024.2.4,Win32,60.24096386,5c66ed5b2d31c20001b09d7f,687ed1b7e638a4cbf2f02089,6880d63bd0a9ae71b6913231,,,,,,,,,,,,,,0,,,,,,,,,,,,,,,,,,,,,,,,,,,,,,,,,,,,,,,,,,,,,,,,,,,,,,,,,47,cartinar,,,,,494.2613,495.8792,0,1,1.0846,,0,28,28,46,1,REAL,FAKE,,,,,,,,,,,,,,,,,
,,,,,,,,,5c66ed5b2d31c20001b09d7f,Spanish,13 or older,"no, only English or Spanish",no,2025-07-23_08h32.41.537,empathy_intonation_perc,2024.2.4,Win32,60.24096386,5c66ed5b2d31c20001b09d7f,687ed1b7e638a4cbf2f02089,6880d63bd0a9ae71b6913231,,,,,,,,,,,,,,0,,,,,,,,,,,,,,,,,,,,,,,,,,,,,,,,,,,,,,,,,,,,,,,,,,,,,,,,,74,cintro,,,,,495.8799,497.3406,1,0,0.9174,,0,29,29,73,1,REAL,FAKE,,,,,,,,,,,,,,,,,
,,,,,,,,,5c66ed5b2d31c20001b09d7f,Spanish,13 or older,"no, only English or Spanish",no,2025-07-23_08h32.41.537,empathy_intonation_perc,2024.2.4,Win32,60.24096386,5c66ed5b2d31c20001b09d7f,687ed1b7e638a4cbf2f02089,6880d63bd0a9ae71b6913231,,,,,,,,,,,,,,1,,,,,,,,,,,,,,,,,,,,,,,,,,,,,,,,,,,,,,,,,,,,,,,,,,,,,,,,,89,prisa,,,,,497.3418,498.6737,1,1,0.785,,0,30,30,88,1,REAL,FAKE,,,,,,,,,,,,,,,,,
,,,,,,,,,5c66ed5b2d31c20001b09d7f,Spanish,13 or older,"no, only English or Spanish",no,2025-07-23_08h32.41.537,empathy_intonation_perc,2024.2.4,Win32,60.24096386,5c66ed5b2d31c20001b09d7f,687ed1b7e638a4cbf2f02089,6880d63bd0a9ae71b6913231,,,,,,,,,,,,,,0,,,,,,,,,,,,,,,,,,,,,,,,,,,,,,,,,,,,,,,,,,,,,,,,,,,,,,,,,1,terzo,,,,,498.675,500.0406,0,1,0.8199,,0,31,31,0,1,REAL,FAKE,,,,,,,,,,,,,,,,,
,,,,,,,,,5c66ed5b2d31c20001b09d7f,Spanish,13 or older,"no, only English or Spanish",no,2025-07-23_08h32.41.537,empathy_intonation_perc,2024.2.4,Win32,60.24096386,5c66ed5b2d31c20001b09d7f,687ed1b7e638a4cbf2f02089,6880d63bd0a9ae71b6913231,,,,,,,,,,,,,,1,,,,,,,,,,,,,,,,,,,,,,,,,,,,,,,,,,,,,,,,,,,,,,,,,,,,,,,,,81,pozo,,,,,500.0421,502.0409,1,1,1.4533,,0,32,32,80,1,REAL,FAKE,,,,,,,,,,,,,,,,,
,,,,,,,,,5c66ed5b2d31c20001b09d7f,Spanish,13 or older,"no, only English or Spanish",no,2025-07-23_08h32.41.537,empathy_intonation_perc,2024.2.4,Win32,60.24096386,5c66ed5b2d31c20001b09d7f,687ed1b7e638a4cbf2f02089,6880d63bd0a9ae71b6913231,,,,,,,,,,,,,,1,,,,,,,,,,,,,,,,,,,,,,,,,,,,,,,,,,,,,,,,,,,,,,,,,,,,,,,,,91,click the 1 key.,,,,,502.0423,503.596,1,1,1.0341,,0,33,33,90,1,REAL,FAKE,,,,,,,,,,,,,,,,,
,,,,,,,,,5c66ed5b2d31c20001b09d7f,Spanish,13 or older,"no, only English or Spanish",no,2025-07-23_08h32.41.537,empathy_intonation_perc,2024.2.4,Win32,60.24096386,5c66ed5b2d31c20001b09d7f,687ed1b7e638a4cbf2f02089,6880d63bd0a9ae71b6913231,,,,,,,,,,,,,,1,,,,,,,,,,,,,,,,,,,,,,,,,,,,,,,,,,,,,,,,,,,,,,,,,,,,,,,,,36,loro,,,,,503.5967,505.2238,0,0,1.0868,,0,34,34,35,1,REAL,FAKE,,,,,,,,,,,,,,,,,
,,,,,,,,,5c66ed5b2d31c20001b09d7f,Spanish,13 or older,"no, only English or Spanish",no,2025-07-23_08h32.41.537,empathy_intonation_perc,2024.2.4,Win32,60.24096386,5c66ed5b2d31c20001b09d7f,687ed1b7e638a4cbf2f02089,6880d63bd0a9ae71b6913231,,,,,,,,,,,,,,1,,,,,,,,,,,,,,,,,,,,,,,,,,,,,,,,,,,,,,,,,,,,,,,,,,,,,,,,,71,polvoriento,,,,,505.2251,506.7739,0,0,1.0217,,0,35,35,70,1,REAL,FAKE,,,,,,,,,,,,,,,,,
,,,,,,,,,5c66ed5b2d31c20001b09d7f,Spanish,13 or older,"no, only English or Spanish",no,2025-07-23_08h32.41.537,empathy_intonation_perc,2024.2.4,Win32,60.24096386,5c66ed5b2d31c20001b09d7f,687ed1b7e638a4cbf2f02089,6880d63bd0a9ae71b6913231,,,,,,,,,,,,,,0,,,,,,,,,,,,,,,,,,,,,,,,,,,,,,,,,,,,,,,,,,,,,,,,,,,,,,,,,79,tropaje,,,,,506.7753,508.1447,1,0,0.8326,,0,36,36,78,1,REAL,FAKE,,,,,,,,,,,,,,,,,
,,,,,,,,,5c66ed5b2d31c20001b09d7f,Spanish,13 or older,"no, only English or Spanish",no,2025-07-23_08h32.41.537,empathy_intonation_perc,2024.2.4,Win32,60.24096386,5c66ed5b2d31c20001b09d7f,687ed1b7e638a4cbf2f02089,6880d63bd0a9ae71b6913231,,,,,,,,,,,,,,1,,,,,,,,,,,,,,,,,,,,,,,,,,,,,,,,,,,,,,,,,,,,,,,,,,,,,,,,,57,tacaño,,,,,508.1455,509.6284,1,1,0.9502,,0,37,37,56,1,REAL,FAKE,,,,,,,,,,,,,,,,,
,,,,,,,,,5c66ed5b2d31c20001b09d7f,Spanish,13 or older,"no, only English or Spanish",no,2025-07-23_08h32.41.537,empathy_intonation_perc,2024.2.4,Win32,60.24096386,5c66ed5b2d31c20001b09d7f,687ed1b7e638a4cbf2f02089,6880d63bd0a9ae71b6913231,,,,,,,,,,,,,,1,,,,,,,,,,,,,,,,,,,,,,,,,,,,,,,,,,,,,,,,,,,,,,,,,,,,,,,,,49,ganar,,,,,509.629,510.9074,0,0,0.7408,,0,38,38,48,1,REAL,FAKE,,,,,,,,,,,,,,,,,
,,,,,,,,,5c66ed5b2d31c20001b09d7f,Spanish,13 or older,"no, only English or Spanish",no,2025-07-23_08h32.41.537,empathy_intonation_perc,2024.2.4,Win32,60.24096386,5c66ed5b2d31c20001b09d7f,687ed1b7e638a4cbf2f02089,6880d63bd0a9ae71b6913231,,,,,,,,,,,,,,1,,,,,,,,,,,,,,,,,,,,,,,,,,,,,,,,,,,,,,,,,,,,,,,,,,,,,,,,,68,alegre,,,,,510.9086,512.6764,1,1,1.2479,,0,39,39,67,1,REAL,FAKE,,,,,,,,,,,,,,,,,
,,,,,,,,,5c66ed5b2d31c20001b09d7f,Spanish,13 or older,"no, only English or Spanish",no,2025-07-23_08h32.41.537,empathy_intonation_perc,2024.2.4,Win32,60.24096386,5c66ed5b2d31c20001b09d7f,687ed1b7e638a4cbf2f02089,6880d63bd0a9ae71b6913231,,,,,,,,,,,,,,0,,,,,,,,,,,,,,,,,,,,,,,,,,,,,,,,,,,,,,,,,,,,,,,,,,,,,,,,,29,decar,,,,,512.6768,514.1947,0,1,0.9995,,0,40,40,28,1,REAL,FAKE,,,,,,,,,,,,,,,,,
,,,,,,,,,5c66ed5b2d31c20001b09d7f,Spanish,13 or older,"no, only English or Spanish",no,2025-07-23_08h32.41.537,empathy_intonation_perc,2024.2.4,Win32,60.24096386,5c66ed5b2d31c20001b09d7f,687ed1b7e638a4cbf2f02089,6880d63bd0a9ae71b6913231,,,,,,,,,,,,,,1,,,,,,,,,,,,,,,,,,,,,,,,,,,,,,,,,,,,,,,,,,,,,,,,,,,,,,,,,64,orgulloso,,,,,514.1952,515.5448,0,0,0.817,,0,41,41,63,1,REAL,FAKE,,,,,,,,,,,,,,,,,
,,,,,,,,,5c66ed5b2d31c20001b09d7f,Spanish,13 or older,"no, only English or Spanish",no,2025-07-23_08h32.41.537,empathy_intonation_perc,2024.2.4,Win32,60.24096386,5c66ed5b2d31c20001b09d7f,687ed1b7e638a4cbf2f02089,6880d63bd0a9ae71b6913231,,,,,,,,,,,,,,1,,,,,,,,,,,,,,,,,,,,,,,,,,,,,,,,,,,,,,,,,,,,,,,,,,,,,,,,,3,pulmones,,,,,515.5454,517.1283,0,0,1.0501,,0,42,42,2,1,REAL,FAKE,,,,,,,,,,,,,,,,,
,,,,,,,,,5c66ed5b2d31c20001b09d7f,Spanish,13 or older,"no, only English or Spanish",no,2025-07-23_08h32.41.537,empathy_intonation_perc,2024.2.4,Win32,60.24096386,5c66ed5b2d31c20001b09d7f,687ed1b7e638a4cbf2f02089,6880d63bd0a9ae71b6913231,,,,,,,,,,,,,,1,,,,,,,,,,,,,,,,,,,,,,,,,,,,,,,,,,,,,,,,,,,,,,,,,,,,,,,,,56,musgo,,,,,517.1289,518.5787,0,0,0.9172,,0,43,43,55,1,REAL,FAKE,,,,,,,,,,,,,,,,,
,,,,,,,,,5c66ed5b2d31c20001b09d7f,Spanish,13 or older,"no, only English or Spanish",no,2025-07-23_08h32.41.537,empathy_intonation_perc,2024.2.4,Win32,60.24096386,5c66ed5b2d31c20001b09d7f,687ed1b7e638a4cbf2f02089,6880d63bd0a9ae71b6913231,,,,,,,,,,,,,,1,,,,,,,,,,,,,,,,,,,,,,,,,,,,,,,,,,,,,,,,,,,,,,,,,,,,,,,,,38,estornudar,,,,,518.5794,520.3573,0,0,1.2397,,0,44,44,37,1,REAL,FAKE,,,,,,,,,,,,,,,,,
,,,,,,,,,5c66ed5b2d31c20001b09d7f,Spanish,13 or older,"no, only English or Spanish",no,2025-07-23_08h32.41.537,empathy_intonation_perc,2024.2.4,Win32,60.24096386,5c66ed5b2d31c20001b09d7f,687ed1b7e638a4cbf2f02089,6880d63bd0a9ae71b6913231,,,,,,,,,,,,,,1,,,,,,,,,,,,,,,,,,,,,,,,,,,,,,,,,,,,,,,,,,,,,,,,,,,,,,,,,62,flaco,,,,,520.3586,521.9578,0,0,1.0554,,0,45,45,61,1,REAL,FAKE,,,,,,,,,,,,,,,,,
,,,,,,,,,5c66ed5b2d31c20001b09d7f,Spanish,13 or older,"no, only English or Spanish",no,2025-07-23_08h32.41.537,empathy_intonation_perc,2024.2.4,Win32,60.24096386,5c66ed5b2d31c20001b09d7f,687ed1b7e638a4cbf2f02089,6880d63bd0a9ae71b6913231,,,,,,,,,,,,,,1,,,,,,,,,,,,,,,,,,,,,,,,,,,,,,,,,,,,,,,,,,,,,,,,,,,,,,,,,5,zapato,,,,,521.9589,523.2904,1,1,0.7844,,0,46,46,4,1,REAL,FAKE,,,,,,,,,,,,,,,,,
,,,,,,,,,5c66ed5b2d31c20001b09d7f,Spanish,13 or older,"no, only English or Spanish",no,2025-07-23_08h32.41.537,empathy_intonation_perc,2024.2.4,Win32,60.24096386,5c66ed5b2d31c20001b09d7f,687ed1b7e638a4cbf2f02089,6880d63bd0a9ae71b6913231,,,,,,,,,,,,,,1,,,,,,,,,,,,,,,,,,,,,,,,,,,,,,,,,,,,,,,,,,,,,,,,,,,,,,,,,77,tiburón,,,,,523.2916,524.7405,1,1,0.9066,,0,47,47,76,1,REAL,FAKE,,,,,,,,,,,,,,,,,
,,,,,,,,,5c66ed5b2d31c20001b09d7f,Spanish,13 or older,"no, only English or Spanish",no,2025-07-23_08h32.41.537,empathy_intonation_perc,2024.2.4,Win32,60.24096386,5c66ed5b2d31c20001b09d7f,687ed1b7e638a4cbf2f02089,6880d63bd0a9ae71b6913231,,,,,,,,,,,,,,1,,,,,,,,,,,,,,,,,,,,,,,,,,,,,,,,,,,,,,,,,,,,,,,,,,,,,,,,,12,asesinato,,,,,524.7417,526.1405,0,0,0.873,,0,48,48,11,1,REAL,FAKE,,,,,,,,,,,,,,,,,
,,,,,,,,,5c66ed5b2d31c20001b09d7f,Spanish,13 or older,"no, only English or Spanish",no,2025-07-23_08h32.41.537,empathy_intonation_perc,2024.2.4,Win32,60.24096386,5c66ed5b2d31c20001b09d7f,687ed1b7e638a4cbf2f02089,6880d63bd0a9ae71b6913231,,,,,,,,,,,,,,0,,,,,,,,,,,,,,,,,,,,,,,,,,,,,,,,,,,,,,,,,,,,,,,,,,,,,,,,,72,pemición,,,,,526.1415,527.8574,1,0,1.1694,,0,49,49,71,1,REAL,FAKE,,,,,,,,,,,,,,,,,
,,,,,,,,,5c66ed5b2d31c20001b09d7f,Spanish,13 or older,"no, only English or Spanish",no,2025-07-23_08h32.41.537,empathy_intonation_perc,2024.2.4,Win32,60.24096386,5c66ed5b2d31c20001b09d7f,687ed1b7e638a4cbf2f02089,6880d63bd0a9ae71b6913231,,,,,,,,,,,,,,1,,,,,,,,,,,,,,,,,,,,,,,,,,,,,,,,,,,,,,,,,,,,,,,,,,,,,,,,,60,matar,,,,,527.8586,529.8743,1,1,1.4932,,0,50,50,59,1,REAL,FAKE,,,,,,,,,,,,,,,,,
,,,,,,,,,5c66ed5b2d31c20001b09d7f,Spanish,13 or older,"no, only English or Spanish",no,2025-07-23_08h32.41.537,empathy_intonation_perc,2024.2.4,Win32,60.24096386,5c66ed5b2d31c20001b09d7f,687ed1b7e638a4cbf2f02089,6880d63bd0a9ae71b6913231,,,,,,,,,,,,,,0,,,,,,,,,,,,,,,,,,,,,,,,,,,,,,,,,,,,,,,,,,,,,,,,,,,,,,,,,27,acutación,,,,,529.8754,531.3296,0,1,0.9176,,0,51,51,26,1,REAL,FAKE,,,,,,,,,,,,,,,,,
,,,,,,,,,5c66ed5b2d31c20001b09d7f,Spanish,13 or older,"no, only English or Spanish",no,2025-07-23_08h32.41.537,empathy_intonation_perc,2024.2.4,Win32,60.24096386,5c66ed5b2d31c20001b09d7f,687ed1b7e638a4cbf2f02089,6880d63bd0a9ae71b6913231,,,,,,,,,,,,,,1,,,,,,,,,,,,,,,,,,,,,,,,,,,,,,,,,,,,,,,,,,,,,,,,,,,,,,,,,78,frondoso,,,,,531.3307,548.8123,0,0,16.9505,,0,52,52,77,1,REAL,FAKE,,,,,,,,,,,,,,,,,
,,,,,,,,,5c66ed5b2d31c20001b09d7f,Spanish,13 or older,"no, only English or Spanish",no,2025-07-23_08h32.41.537,empathy_intonation_perc,2024.2.4,Win32,60.24096386,5c66ed5b2d31c20001b09d7f,687ed1b7e638a4cbf2f02089,6880d63bd0a9ae71b6913231,,,,,,,,,,,,,,1,,,,,,,,,,,,,,,,,,,,,,,,,,,,,,,,,,,,,,,,,,,,,,,,,,,,,,,,,44,cuchara,,,,,548.8131,550.193,1,1,0.8475,,0,53,53,43,1,REAL,FAKE,,,,,,,,,,,,,,,,,
,,,,,,,,,5c66ed5b2d31c20001b09d7f,Spanish,13 or older,"no, only English or Spanish",no,2025-07-23_08h32.41.537,empathy_intonation_perc,2024.2.4,Win32,60.24096386,5c66ed5b2d31c20001b09d7f,687ed1b7e638a4cbf2f02089,6880d63bd0a9ae71b6913231,,,,,,,,,,,,,,1,,,,,,,,,,,,,,,,,,,,,,,,,,,,,,,,,,,,,,,,,,,,,,,,,,,,,,,,,55,nevar,,,,,550.1936,551.624,0,0,0.887,,0,54,54,54,1,REAL,FAKE,,,,,,,,,,,,,,,,,
,,,,,,,,,5c66ed5b2d31c20001b09d7f,Spanish,13 or older,"no, only English or Spanish",no,2025-07-23_08h32.41.537,empathy_intonation_perc,2024.2.4,Win32,60.24096386,5c66ed5b2d31c20001b09d7f,687ed1b7e638a4cbf2f02089,6880d63bd0a9ae71b6913231,,,,,,,,,,,,,,1,,,,,,,,,,,,,,,,,,,,,,,,,,,,,,,,,,,,,,,,,,,,,,,,,,,,,,,,,59,besar,,,,,551.6253,552.8461,0,0,0.6842,,0,55,55,58,1,REAL,FAKE,,,,,,,,,,,,,,,,,
,,,,,,,,,5c66ed5b2d31c20001b09d7f,Spanish,13 or older,"no, only English or Spanish",no,2025-07-23_08h32.41.537,empathy_intonation_perc,2024.2.4,Win32,60.24096386,5c66ed5b2d31c20001b09d7f,687ed1b7e638a4cbf2f02089,6880d63bd0a9ae71b6913231,,,,,,,,,,,,,,0,,,,,,,,,,,,,,,,,,,,,,,,,,,,,,,,,,,,,,,,,,,,,,,,,,,,,,,,,21,capillo,,,,,552.8465,553.8409,1,0,0.4608,,0,56,56,20,1,REAL,FAKE,,,,,,,,,,,,,,,,,
,,,,,,,,,5c66ed5b2d31c20001b09d7f,Spanish,13 or older,"no, only English or Spanish",no,2025-07-23_08h32.41.537,empathy_intonation_perc,2024.2.4,Win32,60.24096386,5c66ed5b2d31c20001b09d7f,687ed1b7e638a4cbf2f02089,6880d63bd0a9ae71b6913231,,,,,,,,,,,,,,0,,,,,,,,,,,,,,,,,,,,,,,,,,,,,,,,,,,,,,,,,,,,,,,,,,,,,,,,,8,cadeña,,,,,553.8422,554.9619,1,0,0.6002,,0,57,57,7,1,REAL,FAKE,,,,,,,,,,,,,,,,,
,,,,,,,,,5c66ed5b2d31c20001b09d7f,Spanish,13 or older,"no, only English or Spanish",no,2025-07-23_08h32.41.537,empathy_intonation_perc,2024.2.4,Win32,60.24096386,5c66ed5b2d31c20001b09d7f,687ed1b7e638a4cbf2f02089,6880d63bd0a9ae71b6913231,,,,,,,,,,,,,,0,,,,,,,,,,,,,,,,,,,,,,,,,,,,,,,,,,,,,,,,,,,,,,,,,,,,,,,,,19,brecedad,,,,,554.9625,556.3944,0,1,0.8993,,0,58,58,18,1,REAL,FAKE,,,,,,,,,,,,,,,,,
,,,,,,,,,5c66ed5b2d31c20001b09d7f,Spanish,13 or older,"no, only English or Spanish",no,2025-07-23_08h32.41.537,empathy_intonation_perc,2024.2.4,Win32,60.24096386,5c66ed5b2d31c20001b09d7f,687ed1b7e638a4cbf2f02089,6880d63bd0a9ae71b6913231,,,,,,,,,,,,,,1,,,,,,,,,,,,,,,,,,,,,,,,,,,,,,,,,,,,,,,,,,,,,,,,,,,,,,,,,14,yunque,,,,,556.395,557.708,0,0,0.7677,,0,59,59,13,1,REAL,FAKE,,,,,,,,,,,,,,,,,
,,,,,,,,,5c66ed5b2d31c20001b09d7f,Spanish,13 or older,"no, only English or Spanish",no,2025-07-23_08h32.41.537,empathy_intonation_perc,2024.2.4,Win32,60.24096386,5c66ed5b2d31c20001b09d7f,687ed1b7e638a4cbf2f02089,6880d63bd0a9ae71b6913231,,,,,,,,,,,,,,1,,,,,,,,,,,,,,,,,,,,,,,,,,,,,,,,,,,,,,,,,,,,,,,,,,,,,,,,,85,laúd,,,,,557.7096,559.0118,1,1,0.7669,,0,60,60,84,1,REAL,FAKE,,,,,,,,,,,,,,,,,
,,,,,,,,,5c66ed5b2d31c20001b09d7f,Spanish,13 or older,"no, only English or Spanish",no,2025-07-23_08h32.41.537,empathy_intonation_perc,2024.2.4,Win32,60.24096386,5c66ed5b2d31c20001b09d7f,687ed1b7e638a4cbf2f02089,6880d63bd0a9ae71b6913231,,,,,,,,,,,,,,1,,,,,,,,,,,,,,,,,,,,,,,,,,,,,,,,,,,,,,,,,,,,,,,,,,,,,,,,,46,martillo,,,,,559.0122,560.4079,0,0,0.8538,,0,61,61,45,1,REAL,FAKE,,,,,,,,,,,,,,,,,
,,,,,,,,,5c66ed5b2d31c20001b09d7f,Spanish,13 or older,"no, only English or Spanish",no,2025-07-23_08h32.41.537,empathy_intonation_perc,2024.2.4,Win32,60.24096386,5c66ed5b2d31c20001b09d7f,687ed1b7e638a4cbf2f02089,6880d63bd0a9ae71b6913231,,,,,,,,,,,,,,0,,,,,,,,,,,,,,,,,,,,,,,,,,,,,,,,,,,,,,,,,,,,,,,,,,,,,,,,,92,click the 0 key.,,,,,560.409,561.7241,0,1,0.7737,,0,62,62,91,1,REAL,FAKE,,,,,,,,,,,,,,,,,
,,,,,,,,,5c66ed5b2d31c20001b09d7f,Spanish,13 or older,"no, only English or Spanish",no,2025-07-23_08h32.41.537,empathy_intonation_perc,2024.2.4,Win32,60.24096386,5c66ed5b2d31c20001b09d7f,687ed1b7e638a4cbf2f02089,6880d63bd0a9ae71b6913231,,,,,,,,,,,,,,1,,,,,,,,,,,,,,,,,,,,,,,,,,,,,,,,,,,,,,,,,,,,,,,,,,,,,,,,,7,pésimo,,,,,561.7251,563.1076,0,0,0.85,,0,63,63,6,1,REAL,FAKE,,,,,,,,,,,,,,,,,
,,,,,,,,,5c66ed5b2d31c20001b09d7f,Spanish,13 or older,"no, only English or Spanish",no,2025-07-23_08h32.41.537,empathy_intonation_perc,2024.2.4,Win32,60.24096386,5c66ed5b2d31c20001b09d7f,687ed1b7e638a4cbf2f02089,6880d63bd0a9ae71b6913231,,,,,,,,,,,,,,0,,,,,,,,,,,,,,,,,,,,,,,,,,,,,,,,,,,,,,,,,,,,,,,,,,,,,,,,,18,arsa,,,,,563.1089,564.5097,0,1,0.8646,,0,64,64,17,1,REAL,FAKE,,,,,,,,,,,,,,,,,
,,,,,,,,,5c66ed5b2d31c20001b09d7f,Spanish,13 or older,"no, only English or Spanish",no,2025-07-23_08h32.41.537,empathy_intonation_perc,2024.2.4,Win32,60.24096386,5c66ed5b2d31c20001b09d7f,687ed1b7e638a4cbf2f02089,6880d63bd0a9ae71b6913231,,,,,,,,,,,,,,0,,,,,,,,,,,,,,,,,,,,,,,,,,,,,,,,,,,,,,,,,,,,,,,,,,,,,,,,,35,rompido,,,,,564.5104,565.8738,0,1,0.8424,,0,65,65,34,1,REAL,FAKE,,,,,,,,,,,,,,,,,
,,,,,,,,,5c66ed5b2d31c20001b09d7f,Spanish,13 or older,"no, only English or Spanish",no,2025-07-23_08h32.41.537,empathy_intonation_perc,2024.2.4,Win32,60.24096386,5c66ed5b2d31c20001b09d7f,687ed1b7e638a4cbf2f02089,6880d63bd0a9ae71b6913231,,,,,,,,,,,,,,1,,,,,,,,,,,,,,,,,,,,,,,,,,,,,,,,,,,,,,,,,,,,,,,,,,,,,,,,,37,granuja,,,,,565.875,567.2239,0,0,0.8119,,0,66,66,36,1,REAL,FAKE,,,,,,,,,,,,,,,,,
,,,,,,,,,5c66ed5b2d31c20001b09d7f,Spanish,13 or older,"no, only English or Spanish",no,2025-07-23_08h32.41.537,empathy_intonation_perc,2024.2.4,Win32,60.24096386,5c66ed5b2d31c20001b09d7f,687ed1b7e638a4cbf2f02089,6880d63bd0a9ae71b6913231,,,,,,,,,,,,,,1,,,,,,,,,,,,,,,,,,,,,,,,,,,,,,,,,,,,,,,,,,,,,,,,,,,,,,,,,25,bisagra,,,,,567.2249,568.5239,0,0,0.7571,,0,67,67,24,1,REAL,FAKE,,,,,,,,,,,,,,,,,
,,,,,,,,,5c66ed5b2d31c20001b09d7f,Spanish,13 or older,"no, only English or Spanish",no,2025-07-23_08h32.41.537,empathy_intonation_perc,2024.2.4,Win32,60.24096386,5c66ed5b2d31c20001b09d7f,687ed1b7e638a4cbf2f02089,6880d63bd0a9ae71b6913231,,,,,,,,,,,,,,0,,,,,,,,,,,,,,,,,,,,,,,,,,,,,,,,,,,,,,,,,,,,,,,,,,,,,,,,,50,flamida,,,,,568.5252,569.8575,1,0,0.7855,,0,68,68,49,1,REAL,FAKE,,,,,,,,,,,,,,,,,
,,,,,,,,,5c66ed5b2d31c20001b09d7f,Spanish,13 or older,"no, only English or Spanish",no,2025-07-23_08h32.41.537,empathy_intonation_perc,2024.2.4,Win32,60.24096386,5c66ed5b2d31c20001b09d7f,687ed1b7e638a4cbf2f02089,6880d63bd0a9ae71b6913231,,,,,,,,,,,,,,1,,,,,,,,,,,,,,,,,,,,,,,,,,,,,,,,,,,,,,,,,,,,,,,,,,,,,,,,,73,hervidor,,,,,569.8586,571.2113,1,1,0.8329,,0,69,69,72,1,REAL,FAKE,,,,,,,,,,,,,,,,,
,,,,,,,,,5c66ed5b2d31c20001b09d7f,Spanish,13 or older,"no, only English or Spanish",no,2025-07-23_08h32.41.537,empathy_intonation_perc,2024.2.4,Win32,60.24096386,5c66ed5b2d31c20001b09d7f,687ed1b7e638a4cbf2f02089,6880d63bd0a9ae71b6913231,,,,,,,,,,,,,,0,,,,,,,,,,,,,,,,,,,,,,,,,,,,,,,,,,,,,,,,,,,,,,,,,,,,,,,,,32,fatacidad,,,,,571.2119,572.4073,0,1,0.6614,,0,70,70,31,1,REAL,FAKE,,,,,,,,,,,,,,,,,
,,,,,,,,,5c66ed5b2d31c20001b09d7f,Spanish,13 or older,"no, only English or Spanish",no,2025-07-23_08h32.41.537,empathy_intonation_perc,2024.2.4,Win32,60.24096386,5c66ed5b2d31c20001b09d7f,687ed1b7e638a4cbf2f02089,6880d63bd0a9ae71b6913231,,,,,,,,,,,,,,1,,,,,,,,,,,,,,,,,,,,,,,,,,,,,,,,,,,,,,,,,,,,,,,,,,,,,,,,,45,jilguero,,,,,572.4085,573.7405,1,1,0.8065,,0,71,71,44,1,REAL,FAKE,,,,,,,,,,,,,,,,,
,,,,,,,,,5c66ed5b2d31c20001b09d7f,Spanish,13 or older,"no, only English or Spanish",no,2025-07-23_08h32.41.537,empathy_intonation_perc,2024.2.4,Win32,60.24096386,5c66ed5b2d31c20001b09d7f,687ed1b7e638a4cbf2f02089,6880d63bd0a9ae71b6913231,,,,,,,,,,,,,,1,,,,,,,,,,,,,,,,,,,,,,,,,,,,,,,,,,,,,,,,,,,,,,,,,,,,,,,,,48,ladrón,,,,,573.742,574.8595,0,0,0.5805,,0,72,72,47,1,REAL,FAKE,,,,,,,,,,,,,,,,,
,,,,,,,,,5c66ed5b2d31c20001b09d7f,Spanish,13 or older,"no, only English or Spanish",no,2025-07-23_08h32.41.537,empathy_intonation_perc,2024.2.4,Win32,60.24096386,5c66ed5b2d31c20001b09d7f,687ed1b7e638a4cbf2f02089,6880d63bd0a9ae71b6913231,,,,,,,,,,,,,,1,,,,,,,,,,,,,,,,,,,,,,,,,,,,,,,,,,,,,,,,,,,,,,,,,,,,,,,,,54,fomentar,,,,,574.8599,575.8613,0,0,0.4662,,0,73,73,53,1,REAL,FAKE,,,,,,,,,,,,,,,,,
,,,,,,,,,5c66ed5b2d31c20001b09d7f,Spanish,13 or older,"no, only English or Spanish",no,2025-07-23_08h32.41.537,empathy_intonation_perc,2024.2.4,Win32,60.24096386,5c66ed5b2d31c20001b09d7f,687ed1b7e638a4cbf2f02089,6880d63bd0a9ae71b6913231,,,,,,,,,,,,,,1,,,,,,,,,,,,,,,,,,,,,,,,,,,,,,,,,,,,,,,,,,,,,,,,,,,,,,,,,15,regar,,,,,575.862,576.6622,1,1,0.2837,,0,74,74,14,1,REAL,FAKE,,,,,,,,,,,,,,,,,
,,,,,,,,,5c66ed5b2d31c20001b09d7f,Spanish,13 or older,"no, only English or Spanish",no,2025-07-23_08h32.41.537,empathy_intonation_perc,2024.2.4,Win32,60.24096386,5c66ed5b2d31c20001b09d7f,687ed1b7e638a4cbf2f02089,6880d63bd0a9ae71b6913231,,,,,,,,,,,,,,0,,,,,,,,,,,,,,,,,,,,,,,,,,,,,,,,,,,,,,,,,,,,,,,,,,,,,,,,,66,hacido,,,,,576.6628,577.8108,1,0,0.6153,,0,75,75,65,1,REAL,FAKE,,,,,,,,,,,,,,,,,
,,,,,,,,,5c66ed5b2d31c20001b09d7f,Spanish,13 or older,"no, only English or Spanish",no,2025-07-23_08h32.41.537,empathy_intonation_perc,2024.2.4,Win32,60.24096386,5c66ed5b2d31c20001b09d7f,687ed1b7e638a4cbf2f02089,6880d63bd0a9ae71b6913231,,,,,,,,,,,,,,1,,,,,,,,,,,,,,,,,,,,,,,,,,,,,,,,,,,,,,,,,,,,,,,,,,,,,,,,,28,merodear,,,,,577.8117,578.995,1,1,0.6499,,0,76,76,27,1,REAL,FAKE,,,,,,,,,,,,,,,,,
,,,,,,,,,5c66ed5b2d31c20001b09d7f,Spanish,13 or older,"no, only English or Spanish",no,2025-07-23_08h32.41.537,empathy_intonation_perc,2024.2.4,Win32,60.24096386,5c66ed5b2d31c20001b09d7f,687ed1b7e638a4cbf2f02089,6880d63bd0a9ae71b6913231,,,,,,,,,,,,,,1,,,,,,,,,,,,,,,,,,,,,,,,,,,,,,,,,,,,,,,,,,,,,,,,,,,,,,,,,34,aviso,,,,,578.9956,580.0078,0,0,0.4708,,0,77,77,33,1,REAL,FAKE,,,,,,,,,,,,,,,,,
,,,,,,,,,5c66ed5b2d31c20001b09d7f,Spanish,13 or older,"no, only English or Spanish",no,2025-07-23_08h32.41.537,empathy_intonation_perc,2024.2.4,Win32,60.24096386,5c66ed5b2d31c20001b09d7f,687ed1b7e638a4cbf2f02089,6880d63bd0a9ae71b6913231,,,,,,,,,,,,,,1,,,,,,,,,,,,,,,,,,,,,,,,,,,,,,,,,,,,,,,,,,,,,,,,,,,,,,,,,65,bizcocho,,,,,580.0089,581.1572,1,1,0.6009,,0,78,78,64,1,REAL,FAKE,,,,,,,,,,,,,,,,,
,,,,,,,,,5c66ed5b2d31c20001b09d7f,Spanish,13 or older,"no, only English or Spanish",no,2025-07-23_08h32.41.537,empathy_intonation_perc,2024.2.4,Win32,60.24096386,5c66ed5b2d31c20001b09d7f,687ed1b7e638a4cbf2f02089,6880d63bd0a9ae71b6913231,,,,,,,,,,,,,,1,,,,,,,,,,,,,,,,,,,,,,,,,,,,,,,,,,,,,,,,,,,,,,,,,,,,,,,,,69,engatusar,,,,,581.1586,582.3243,0,0,0.6383,,0,79,79,68,1,REAL,FAKE,,,,,,,,,,,,,,,,,
,,,,,,,,,5c66ed5b2d31c20001b09d7f,Spanish,13 or older,"no, only English or Spanish",no,2025-07-23_08h32.41.537,empathy_intonation_perc,2024.2.4,Win32,60.24096386,5c66ed5b2d31c20001b09d7f,687ed1b7e638a4cbf2f02089,6880d63bd0a9ae71b6913231,,,,,,,,,,,,,,1,,,,,,,,,,,,,,,,,,,,,,,,,,,,,,,,,,,,,,,,,,,,,,,,,,,,,,,,,39,torpe,,,,,582.3254,583.2075,1,1,0.3337,,0,80,80,38,1,REAL,FAKE,,,,,,,,,,,,,,,,,
,,,,,,,,,5c66ed5b2d31c20001b09d7f,Spanish,13 or older,"no, only English or Spanish",no,2025-07-23_08h32.41.537,empathy_intonation_perc,2024.2.4,Win32,60.24096386,5c66ed5b2d31c20001b09d7f,687ed1b7e638a4cbf2f02089,6880d63bd0a9ae71b6913231,,,,,,,,,,,,,,1,,,,,,,,,,,,,,,,,,,,,,,,,,,,,,,,,,,,,,,,,,,,,,,,,,,,,,,,,88,acantilado,,,,,583.2086,584.329,1,1,0.584,,0,81,81,87,1,REAL,FAKE,,,,,,,,,,,,,,,,,
,,,,,,,,,5c66ed5b2d31c20001b09d7f,Spanish,13 or older,"no, only English or Spanish",no,2025-07-23_08h32.41.537,empathy_intonation_perc,2024.2.4,Win32,60.24096386,5c66ed5b2d31c20001b09d7f,687ed1b7e638a4cbf2f02089,6880d63bd0a9ae71b6913231,,,,,,,,,,,,,,1,,,,,,,,,,,,,,,,,,,,,,,,,,,,,,,,,,,,,,,,,,,,,,,,,,,,,,,,,52,camisa,,,,,584.3295,585.3742,0,0,0.5056,,0,82,82,51,1,REAL,FAKE,,,,,,,,,,,,,,,,,
,,,,,,,,,5c66ed5b2d31c20001b09d7f,Spanish,13 or older,"no, only English or Spanish",no,2025-07-23_08h32.41.537,empathy_intonation_perc,2024.2.4,Win32,60.24096386,5c66ed5b2d31c20001b09d7f,687ed1b7e638a4cbf2f02089,6880d63bd0a9ae71b6913231,,,,,,,,,,,,,,1,,,,,,,,,,,,,,,,,,,,,,,,,,,,,,,,,,,,,,,,,,,,,,,,,,,,,,,,,20,ávido,,,,,585.3753,586.3408,1,1,0.4174,,0,83,83,19,1,REAL,FAKE,,,,,,,,,,,,,,,,,
,,,,,,,,,5c66ed5b2d31c20001b09d7f,Spanish,13 or older,"no, only English or Spanish",no,2025-07-23_08h32.41.537,empathy_intonation_perc,2024.2.4,Win32,60.24096386,5c66ed5b2d31c20001b09d7f,687ed1b7e638a4cbf2f02089,6880d63bd0a9ae71b6913231,,,,,,,,,,,,,,1,,,,,,,,,,,,,,,,,,,,,,,,,,,,,,,,,,,,,,,,,,,,,,,,,,,,,,,,,86,barato,,,,,586.3424,587.308,0,0,0.4374,,0,84,84,85,1,REAL,FAKE,,,,,,,,,,,,,,,,,
,,,,,,,,,5c66ed5b2d31c20001b09d7f,Spanish,13 or older,"no, only English or Spanish",no,2025-07-23_08h32.41.537,empathy_intonation_perc,2024.2.4,Win32,60.24096386,5c66ed5b2d31c20001b09d7f,687ed1b7e638a4cbf2f02089,6880d63bd0a9ae71b6913231,,,,,,,,,,,,,,1,,,,,,,,,,,,,,,,,,,,,,,,,,,,,,,,,,,,,,,,,,,,,,,,,,,,,,,,,76,atar,,,,,587.309,588.2122,1,1,0.3836,,0,85,85,75,1,REAL,FAKE,,,,,,,,,,,,,,,,,
,,,,,,,,,5c66ed5b2d31c20001b09d7f,Spanish,13 or older,"no, only English or Spanish",no,2025-07-23_08h32.41.537,empathy_intonation_perc,2024.2.4,Win32,60.24096386,5c66ed5b2d31c20001b09d7f,687ed1b7e638a4cbf2f02089,6880d63bd0a9ae71b6913231,,,,,,,,,,,,,,1,,,,,,,,,,,,,,,,,,,,,,,,,,,,,,,,,,,,,,,,,,,,,,,,,,,,,,,,,24,látigo,,,,,588.2128,589.029,1,1,0.2843,,0,86,86,23,1,REAL,FAKE,,,,,,,,,,,,,,,,,
,,,,,,,,,5c66ed5b2d31c20001b09d7f,Spanish,13 or older,"no, only English or Spanish",no,2025-07-23_08h32.41.537,empathy_intonation_perc,2024.2.4,Win32,60.24096386,5c66ed5b2d31c20001b09d7f,687ed1b7e638a4cbf2f02089,6880d63bd0a9ae71b6913231,,,,,,,,,,,,,,1,,,,,,,,,,,,,,,,,,,,,,,,,,,,,,,,,,,,,,,,,,,,,,,,,,,,,,,,,80,hormiga,,,,,589.0295,589.8262,0,0,0.2642,,0,87,87,79,1,REAL,FAKE,,,,,,,,,,,,,,,,,
,,,,,,,,,5c66ed5b2d31c20001b09d7f,Spanish,13 or older,"no, only English or Spanish",no,2025-07-23_08h32.41.537,empathy_intonation_perc,2024.2.4,Win32,60.24096386,5c66ed5b2d31c20001b09d7f,687ed1b7e638a4cbf2f02089,6880d63bd0a9ae71b6913231,,,,,,,,,,,,,,0,,,,,,,,,,,,,,,,,,,,,,,,,,,,,,,,,,,,,,,,,,,,,,,,,,,,,,,,,82,empirador,,,,,589.8269,590.7079,0,1,0.3496,,0,88,88,81,1,REAL,FAKE,,,,,,,,,,,,,,,,,
,,,,,,,,,5c66ed5b2d31c20001b09d7f,Spanish,13 or older,"no, only English or Spanish",no,2025-07-23_08h32.41.537,empathy_intonation_perc,2024.2.4,Win32,60.24096386,5c66ed5b2d31c20001b09d7f,687ed1b7e638a4cbf2f02089,6880d63bd0a9ae71b6913231,,,,,,,,,,,,,,1,,,,,,,,,,,,,,,,,,,,,,,,,,,,,,,,,,,,,,,,,,,,,,,,,,,,,,,,,41,rebuscar,,,,,590.709,592.1407,1,1,0.9047,,0,89,89,40,1,REAL,FAKE,,,,,,,,,,,,,,,,,
,,,,,,,,,5c66ed5b2d31c20001b09d7f,Spanish,13 or older,"no, only English or Spanish",no,2025-07-23_08h32.41.537,empathy_intonation_perc,2024.2.4,Win32,60.24096386,5c66ed5b2d31c20001b09d7f,687ed1b7e638a4cbf2f02089,6880d63bd0a9ae71b6913231,,,,,,,,,,,,,,0,,,,,,,,,,,,,,,,,,,,,,,,,,,,,,,,,,,,,,,,,,,,,,,,,,,,,,,,,70,temblo,,,,,592.1415,593.6578,1,0,0.9917,,0,90,90,69,1,REAL,FAKE,,,,,,,,,,,,,,,,,
,,,,,,,,,5c66ed5b2d31c20001b09d7f,Spanish,13 or older,"no, only English or Spanish",no,2025-07-23_08h32.41.537,empathy_intonation_perc,2024.2.4,Win32,60.24096386,5c66ed5b2d31c20001b09d7f,687ed1b7e638a4cbf2f02089,6880d63bd0a9ae71b6913231,,,,,,,,,,,,,,0,,,,,,,,,,,,,,,,,,,,,,,,,,,,,,,,,,,,,,,,,,,,,,,,,,,,,,,,,16,abracer,,,,,593.6589,594.9077,0,1,0.723,,0,91,91,15,1,REAL,FAKE,,,,,,,,,,,,,,,,,
,,,,,,,,,5c66ed5b2d31c20001b09d7f,Spanish,13 or older,"no, only English or Spanish",no,2025-07-23_08h32.41.537,empathy_intonation_perc,2024.2.4,Win32,60.24096386,5c66ed5b2d31c20001b09d7f,687ed1b7e638a4cbf2f02089,6880d63bd0a9ae71b6913231,,,,,,,,,,,,,,,,,,,,,,,,,,,,,,,,,,,,,,,,,,,,,,,,,,,,,,,,,,,,,,,,,,,,,,,,,,,,,,,,,,,,,,,,,,594.908,604.3242,,,,,,,,,,,,,,,
,,,,,,,,,5c66ed5b2d31c20001b09d7f,Spanish,13 or older,"no, only English or Spanish",no,2025-07-23_08h32.41.537,empathy_intonation_perc,2024.2.4,Win32,60.24096386,5c66ed5b2d31c20001b09d7f,687ed1b7e638a4cbf2f02089,6880d63bd0a9ae71b6913231,,,,,,,,,,,,,1,,,,,,,,,,,,,,,,,,,,,,,,,,,,,,,,,,,,,,,,,,,,,,,,,,,,,,,,,,,,,,,,,,,,,,,,,,,,,,,604.3295,608.0743,slightly agree,0,0,0,0,1,I can easily tell if someone else wants to enter a conversation.,1,0,1,0,,
,,,,,,,,,5c66ed5b2d31c20001b09d7f,Spanish,13 or older,"no, only English or Spanish",no,2025-07-23_08h32.41.537,empathy_intonation_perc,2024.2.4,Win32,60.24096386,5c66ed5b2d31c20001b09d7f,687ed1b7e638a4cbf2f02089,6880d63bd0a9ae71b6913231,,,,,,,,,,,,,2,,,,,,,,,,,,,,,,,,,,,,,,,,,,,,,,,,,,,,,,,,,,,,,,,,,,,,,,,,,,,,,,,,,,,,,,,,,,,,,608.0757,613.0408,slightly agree,0,1,1,1,1,I prefer animals to humans.,0,1,0,0,,
,,,,,,,,,5c66ed5b2d31c20001b09d7f,Spanish,13 or older,"no, only English or Spanish",no,2025-07-23_08h32.41.537,empathy_intonation_perc,2024.2.4,Win32,60.24096386,5c66ed5b2d31c20001b09d7f,687ed1b7e638a4cbf2f02089,6880d63bd0a9ae71b6913231,,,,,,,,,,,,,3,,,,,,,,,,,,,,,,,,,,,,,,,,,,,,,,,,,,,,,,,,,,,,,,,,,,,,,,,,,,,,,,,,,,,,,,,,,,,,,613.0421,615.0076,strongly agree,0,2,2,2,1,I try to keep up with the current trends and fashions.,0,1,0,0,,
,,,,,,,,,5c66ed5b2d31c20001b09d7f,Spanish,13 or older,"no, only English or Spanish",no,2025-07-23_08h32.41.537,empathy_intonation_perc,2024.2.4,Win32,60.24096386,5c66ed5b2d31c20001b09d7f,687ed1b7e638a4cbf2f02089,6880d63bd0a9ae71b6913231,,,,,,,,,,,,,4,,,,,,,,,,,,,,,,,,,,,,,,,,,,,,,,,,,,,,,,,,,,,,,,,,,,,,,,,,,,,,,,,,,,,,,,,,,,,,,615.0091,619.824,slightly agree,0,3,3,3,1,"I find it difficult to explain to others things that I understand easily,   when they don't understand it first time.",1,0,0,1,,
,,,,,,,,,5c66ed5b2d31c20001b09d7f,Spanish,13 or older,"no, only English or Spanish",no,2025-07-23_08h32.41.537,empathy_intonation_perc,2024.2.4,Win32,60.24096386,5c66ed5b2d31c20001b09d7f,687ed1b7e638a4cbf2f02089,6880d63bd0a9ae71b6913231,,,,,,,,,,,,,5,,,,,,,,,,,,,,,,,,,,,,,,,,,,,,,,,,,,,,,,,,,,,,,,,,,,,,,,,,,,,,,,,,,,,,,,,,,,,,,619.8252,622.1406,strongly agree,0,4,4,4,1,I dream most nights.,0,1,0,0,,
,,,,,,,,,5c66ed5b2d31c20001b09d7f,Spanish,13 or older,"no, only English or Spanish",no,2025-07-23_08h32.41.537,empathy_intonation_perc,2024.2.4,Win32,60.24096386,5c66ed5b2d31c20001b09d7f,687ed1b7e638a4cbf2f02089,6880d63bd0a9ae71b6913231,,,,,,,,,,,,,6,,,,,,,,,,,,,,,,,,,,,,,,,,,,,,,,,,,,,,,,,,,,,,,,,,,,,,,,,,,,,,,,,,,,,,,,,,,,,,,622.1422,624.724,strongly agree,0,5,5,5,1,I really enjoy caring for other people.,1,0,1,0,,
,,,,,,,,,5c66ed5b2d31c20001b09d7f,Spanish,13 or older,"no, only English or Spanish",no,2025-07-23_08h32.41.537,empathy_intonation_perc,2024.2.4,Win32,60.24096386,5c66ed5b2d31c20001b09d7f,687ed1b7e638a4cbf2f02089,6880d63bd0a9ae71b6913231,,,,,,,,,,,,,7,,,,,,,,,,,,,,,,,,,,,,,,,,,,,,,,,,,,,,,,,,,,,,,,,,,,,,,,,,,,,,,,,,,,,,,,,,,,,,,624.7254,628.7239,slightly agree,0,6,6,6,1,I try to solve my own problems rather than discussing them with others.,0,1,0,0,,
,,,,,,,,,5c66ed5b2d31c20001b09d7f,Spanish,13 or older,"no, only English or Spanish",no,2025-07-23_08h32.41.537,empathy_intonation_perc,2024.2.4,Win32,60.24096386,5c66ed5b2d31c20001b09d7f,687ed1b7e638a4cbf2f02089,6880d63bd0a9ae71b6913231,,,,,,,,,,,,,8,,,,,,,,,,,,,,,,,,,,,,,,,,,,,,,,,,,,,,,,,,,,,,,,,,,,,,,,,,,,,,,,,,,,,,,,,,,,,,,628.7251,632.0073,strongly agree,0,7,7,7,1,I find it hard to know what to do in a social situation.,1,0,0,1,,
,,,,,,,,,5c66ed5b2d31c20001b09d7f,Spanish,13 or older,"no, only English or Spanish",no,2025-07-23_08h32.41.537,empathy_intonation_perc,2024.2.4,Win32,60.24096386,5c66ed5b2d31c20001b09d7f,687ed1b7e638a4cbf2f02089,6880d63bd0a9ae71b6913231,,,,,,,,,,,,,9,,,,,,,,,,,,,,,,,,,,,,,,,,,,,,,,,,,,,,,,,,,,,,,,,,,,,,,,,,,,,,,,,,,,,,,,,,,,,,,632.0084,634.5571,slightly agree,0,8,8,8,1,I am at my best first thing in the morning.,0,1,0,0,,
,,,,,,,,,5c66ed5b2d31c20001b09d7f,Spanish,13 or older,"no, only English or Spanish",no,2025-07-23_08h32.41.537,empathy_intonation_perc,2024.2.4,Win32,60.24096386,5c66ed5b2d31c20001b09d7f,687ed1b7e638a4cbf2f02089,6880d63bd0a9ae71b6913231,,,,,,,,,,,,,10,,,,,,,,,,,,,,,,,,,,,,,,,,,,,,,,,,,,,,,,,,,,,,,,,,,,,,,,,,,,,,,,,,,,,,,,,,,,,,,634.5588,639.2575,slightly agree,0,9,9,9,1,People often tell me that I went too far in driving my point home in a discussion.,1,0,0,1,,
