instructions_exposure.started,instructions_exposure.stopped,instructions_exposure_loop.thisRepN,instructions_exposure_loop.thisTrialN,instructions_exposure_loop.thisN,instructions_exposure_loop.thisIndex,instructions_exposure_loop.ran,instructions_text,continue_text,participant_id,"What variety of Spanish are you most familiar with? (e.g., Peruvian, Spanish, Mexican)",At what age did you begin learning Spanish?,Are you proficient in any languages other than English/Spanish?,"Are you familiar with Caribbean (e.g., Caribbean, Puerto Rican) or Galician Spanish?",date,expName,psychopyVersion,OS,frameRate,id,study_id,session,trial_exposure.started,trial_exposure.stopped,key_resp_exposure.keys,key_resp_exposure.corr,key_resp_exposure.rt,key_resp_exposure.duration,key_resp.keys,exposure_loop.thisRepN,exposure_loop.thisTrialN,exposure_loop.thisN,exposure_loop.thisIndex,exposure_loop.ran,item_num,correct_response,question,path,duration,instructions_2afc.started,instructions_2afc.stopped,instructions_2afc_loop.thisRepN,instructions_2afc_loop.thisTrialN,instructions_2afc_loop.thisN,instructions_2afc_loop.thisIndex,instructions_2afc_loop.ran,practice_2afc.started,practice_2afc.stopped,key_resp_2afc_practice.keys,key_resp_2afc_practice.corr,key_resp_2afc_practice.rt,key_resp_2afc_practice.duration,trials_2afc_practice_loop.thisRepN,trials_2afc_practice_loop.thisTrialN,trials_2afc_practice_loop.thisN,trials_2afc_practice_loop.thisIndex,trials_2afc_practice_loop.ran,check_2afc.started,check_2afc.stopped,trial_2afc.started,trial_2afc.stopped,key_resp_2afc_trial.keys,key_resp_2afc_trial.corr,key_resp_2afc_trial.rt,key_resp_2afc_trial.duration,trials_2afc_loop.thisRepN,trials_2afc_loop.thisTrialN,trials_2afc_loop.thisN,trials_2afc_loop.thisIndex,trials_2afc_loop.ran,target,variety,instructions_lextale.started,instructions_lextale.stopped,instructions_lextale_loop.thisRepN,instructions_lextale_loop.thisTrialN,instructions_lextale_loop.thisN,instructions_lextale_loop.thisIndex,instructions_lextale_loop.ran,practice_lextale.started,practice_lextale.stopped,key_resp_lextale_practice.keys,key_resp_lextale_practice.corr,key_resp_lextale_practice.rt,key_resp_lextale_practice.duration,practice_feedback_lextale.started,practice_feedback_lextale.stopped,trials_lextale_practice_loop.thisRepN,trials_lextale_practice_loop.thisTrialN,trials_lextale_practice_loop.thisN,trials_lextale_practice_loop.thisIndex,trials_lextale_practice_loop.ran,stim,word,prac_button_real,prac_button_false,check_lextale.started,check_lextale.stopped,trial_lextale.started,trial_lextale.stopped,key_resp_lextale_trial.keys,key_resp_lextale_trial.corr,key_resp_lextale_trial.rt,key_resp_lextale_trial.duration,trials_lextale_loop.thisRepN,trials_lextale_loop.thisTrialN,trials_lextale_loop.thisN,trials_lextale_loop.thisIndex,trials_lextale_loop.ran,button_real,button_false,instructions_eq.started,instructions_eq.stopped,trial_eq.started,trial_eq.stopped,slider_eq_trial.response,trials_eq_loop.thisRepN,trials_eq_loop.thisTrialN,trials_eq_loop.thisN,trials_eq_loop.thisIndex,trials_eq_loop.ran,item,is_test_item,is_distractor,is_agree_score,is_disagree_score,end_exp.started,end_exp.stopped
0.0186,1.221,0,0,0,0,1,"In the following task, you are going to hear a series of conversations.", (press the space bar to continue),5ca25f7048f78e0018fdac10,Spanish,13 or older,"no, only English or Spanish",no,2025-08-12_14h50.57.359,empathy_intonation_perc,2024.2.4,Win32,59.88023952,5ca25f7048f78e0018fdac10,687ed1b7e638a4cbf2f02089,689b8cf6f602fdab42d94437,,,,,,,,,,,,,,,,,,,,,,,,,,,,,,,,,,,,,,,,,,,,,,,,,,,,,,,,,,,,,,,,,,,,,,,,,,,,,,,,,,,,,,,,,,,,,,,,,,,,,,,,,,
1.2244,4.4521,0,1,1,1,1,It is okay if you don't not 100% understand them!, (press the space bar to continue),5ca25f7048f78e0018fdac10,Spanish,13 or older,"no, only English or Spanish",no,2025-08-12_14h50.57.359,empathy_intonation_perc,2024.2.4,Win32,59.88023952,5ca25f7048f78e0018fdac10,687ed1b7e638a4cbf2f02089,689b8cf6f602fdab42d94437,,,,,,,,,,,,,,,,,,,,,,,,,,,,,,,,,,,,,,,,,,,,,,,,,,,,,,,,,,,,,,,,,,,,,,,,,,,,,,,,,,,,,,,,,,,,,,,,,,,,,,,,,,
4.454,8.6851,0,2,2,2,1,"After, you will read a sentence about the conversation and decide if it's true or false.", (press the space bar to continue),5ca25f7048f78e0018fdac10,Spanish,13 or older,"no, only English or Spanish",no,2025-08-12_14h50.57.359,empathy_intonation_perc,2024.2.4,Win32,59.88023952,5ca25f7048f78e0018fdac10,687ed1b7e638a4cbf2f02089,689b8cf6f602fdab42d94437,,,,,,,,,,,,,,,,,,,,,,,,,,,,,,,,,,,,,,,,,,,,,,,,,,,,,,,,,,,,,,,,,,,,,,,,,,,,,,,,,,,,,,,,,,,,,,,,,,,,,,,,,,
8.688,10.668,0,3,3,3,1,"If it's true, press '1' (True) and if it's false press '0' (False).", (press the space bar to continue),5ca25f7048f78e0018fdac10,Spanish,13 or older,"no, only English or Spanish",no,2025-08-12_14h50.57.359,empathy_intonation_perc,2024.2.4,Win32,59.88023952,5ca25f7048f78e0018fdac10,687ed1b7e638a4cbf2f02089,689b8cf6f602fdab42d94437,,,,,,,,,,,,,,,,,,,,,,,,,,,,,,,,,,,,,,,,,,,,,,,,,,,,,,,,,,,,,,,,,,,,,,,,,,,,,,,,,,,,,,,,,,,,,,,,,,,,,,,,,,
,,,,,,,,,5ca25f7048f78e0018fdac10,Spanish,13 or older,"no, only English or Spanish",no,2025-08-12_14h50.57.359,empathy_intonation_perc,2024.2.4,Win32,59.88023952,5ca25f7048f78e0018fdac10,687ed1b7e638a4cbf2f02089,689b8cf6f602fdab42d94437,10.6841,60.5506,1,1,2.8219,,,0,0,0,0,1,1,1,The son asked the mom if Aunt Marina is okay.,./stim/exposure_wavs/ga_stimuli_convo.wav,47,,,,,,,,,,,,,,,,,,,,,,,,,,,,,,,,,,,,,,,,,,,,,,,,,,,,,,,,,,,,,,,,,,,,,,,,,,,,,,,,,,,,,,,,,
,,,,,,,,,5ca25f7048f78e0018fdac10,Spanish,13 or older,"no, only English or Spanish",no,2025-08-12_14h50.57.359,empathy_intonation_perc,2024.2.4,Win32,59.88023952,5ca25f7048f78e0018fdac10,687ed1b7e638a4cbf2f02089,689b8cf6f602fdab42d94437,60.5544,124.9116,1,1,4.3166,,,0,1,1,1,1,2,1,The mom asked the daughter if she already went to the supermarket.,./stim/exposure_wavs/dr_stimuli_convo.wav,60,,,,,,,,,,,,,,,,,,,,,,,,,,,,,,,,,,,,,,,,,,,,,,,,,,,,,,,,,,,,,,,,,,,,,,,,,,,,,,,,,,,,,,,,,
,,,,,,,,,5ca25f7048f78e0018fdac10,Spanish,13 or older,"no, only English or Spanish",no,2025-08-12_14h50.57.359,empathy_intonation_perc,2024.2.4,Win32,59.88023952,5ca25f7048f78e0018fdac10,687ed1b7e638a4cbf2f02089,689b8cf6f602fdab42d94437,124.9145,164.0655,0,1,3.1172,,,0,2,2,2,1,3,0,The mom already has rice.,./stim/exposure_wavs/pr_stimuli_convo.wav,36,,,,,,,,,,,,,,,,,,,,,,,,,,,,,,,,,,,,,,,,,,,,,,,,,,,,,,,,,,,,,,,,,,,,,,,,,,,,,,,,,,,,,,,,,
,,,,,,,"In the following task you are going to hear a series of utterances. 

  You will decide if the utterances sound like questions or not using your keyboard.", (press the spacebar to continue),5ca25f7048f78e0018fdac10,Spanish,13 or older,"no, only English or Spanish",no,2025-08-12_14h50.57.359,empathy_intonation_perc,2024.2.4,Win32,59.88023952,5ca25f7048f78e0018fdac10,687ed1b7e638a4cbf2f02089,689b8cf6f602fdab42d94437,,,,,,,,,,,,,,,,,,164.0737,169.5522,0,0,0,0,1,,,,,,,,,,,,,,,,,,,,,,,,,,,,,,,,,,,,,,,,,,,,,,,,,,,,,,,,,,,,,,,,,,,,,,,,,,,,,,,,,,
,,,,,,,"If you believe the utterance is a question, type '1' (for 'yes') and if you do not 
  believe it is a question type '0' (for 'no').

  Let's practice a bit...", (press the spacebar to continue),5ca25f7048f78e0018fdac10,Spanish,13 or older,"no, only English or Spanish",no,2025-08-12_14h50.57.359,empathy_intonation_perc,2024.2.4,Win32,59.88023952,5ca25f7048f78e0018fdac10,687ed1b7e638a4cbf2f02089,689b8cf6f602fdab42d94437,,,,,,,,,,,,,,,,,,169.5548,173.0661,0,1,1,1,1,,,,,,,,,,,,,,,,,,,,,,,,,,,,,,,,,,,,,,,,,,,,,,,,,,,,,,,,,,,,,,,,,,,,,,,,,,,,,,,,,,
,,,,,,,,,5ca25f7048f78e0018fdac10,Spanish,13 or older,"no, only English or Spanish",no,2025-08-12_14h50.57.359,empathy_intonation_perc,2024.2.4,Win32,59.88023952,5ca25f7048f78e0018fdac10,687ed1b7e638a4cbf2f02089,689b8cf6f602fdab42d94437,,,,,,,,,,,,,,1,,./stim/wavs/chilean_question_filler_Mi-padre-cantaba-bien.wav,,,,,,,,,173.0769,176.3618,0,0,2.7662,,0,0,0,2,1,,,,,,,,,,,,,,,,,,,,,,,,,,,,,,,,,,,,,,,,,,,,,,,,,,,,,,,,,,,,,,,,,,,,,,,
,,,,,,,,,5ca25f7048f78e0018fdac10,Spanish,13 or older,"no, only English or Spanish",no,2025-08-12_14h50.57.359,empathy_intonation_perc,2024.2.4,Win32,59.88023952,5ca25f7048f78e0018fdac10,687ed1b7e638a4cbf2f02089,689b8cf6f602fdab42d94437,,,,,,,,,,,,,,0,,./stim/wavs/andalusian_statement_filler_Alberto-nunca-se-afeita.wav,,,,,,,,,176.3627,179.3601,0,1,2.4645,,0,1,1,5,1,,,,,,,,,,,,,,,,,,,,,,,,,,,,,,,,,,,,,,,,,,,,,,,,,,,,,,,,,,,,,,,,,,,,,,,
,,,,,,,,,5ca25f7048f78e0018fdac10,Spanish,13 or older,"no, only English or Spanish",no,2025-08-12_14h50.57.359,empathy_intonation_perc,2024.2.4,Win32,59.88023952,5ca25f7048f78e0018fdac10,687ed1b7e638a4cbf2f02089,689b8cf6f602fdab42d94437,,,,,,,,,,,,,,1,,./stim/wavs/castilian_question_filler_Mi-esposo-conoce-al-chico.wav,,,,,,,,,179.3608,182.4257,1,1,2.5242,,0,2,2,0,1,,,,,,,,,,,,,,,,,,,,,,,,,,,,,,,,,,,,,,,,,,,,,,,,,,,,,,,,,,,,,,,,,,,,,,,
,,,,,,,,,5ca25f7048f78e0018fdac10,Spanish,13 or older,"no, only English or Spanish",no,2025-08-12_14h50.57.359,empathy_intonation_perc,2024.2.4,Win32,59.88023952,5ca25f7048f78e0018fdac10,687ed1b7e638a4cbf2f02089,689b8cf6f602fdab42d94437,,,,,,,,,,,,,,0,,./stim/wavs/peruvian_statement_filler_El-nino-habla-con-su-madre.wav,,,,,,,,,182.4271,185.5921,0,1,2.6335,,0,3,3,6,1,,,,,,,,,,,,,,,,,,,,,,,,,,,,,,,,,,,,,,,,,,,,,,,,,,,,,,,,,,,,,,,,,,,,,,,
,,,,,,,,,5ca25f7048f78e0018fdac10,Spanish,13 or older,"no, only English or Spanish",no,2025-08-12_14h50.57.359,empathy_intonation_perc,2024.2.4,Win32,59.88023952,5ca25f7048f78e0018fdac10,687ed1b7e638a4cbf2f02089,689b8cf6f602fdab42d94437,,,,,,,,,,,,,,0,,./stim/wavs/cuban_statement_filler_Cocinabas-por-la-noche.wav,,,,,,,,,185.593,188.7566,0,1,2.642,,0,4,4,4,1,,,,,,,,,,,,,,,,,,,,,,,,,,,,,,,,,,,,,,,,,,,,,,,,,,,,,,,,,,,,,,,,,,,,,,,
,,,,,,,,,5ca25f7048f78e0018fdac10,Spanish,13 or older,"no, only English or Spanish",no,2025-08-12_14h50.57.359,empathy_intonation_perc,2024.2.4,Win32,59.88023952,5ca25f7048f78e0018fdac10,687ed1b7e638a4cbf2f02089,689b8cf6f602fdab42d94437,,,,,,,,,,,,,,0,,./stim/wavs/puertorican_statement_filler_La-nina-pinta-con-su-amiga.wav,,,,,,,,,188.7579,192.789,0,1,3.5043,,0,5,5,7,1,,,,,,,,,,,,,,,,,,,,,,,,,,,,,,,,,,,,,,,,,,,,,,,,,,,,,,,,,,,,,,,,,,,,,,,
,,,,,,,,,5ca25f7048f78e0018fdac10,Spanish,13 or older,"no, only English or Spanish",no,2025-08-12_14h50.57.359,empathy_intonation_perc,2024.2.4,Win32,59.88023952,5ca25f7048f78e0018fdac10,687ed1b7e638a4cbf2f02089,689b8cf6f602fdab42d94437,,,,,,,,,,,,,,1,,./stim/wavs/mexican_question_filler_Felipe-no-tiene-contrasena.wav,,,,,,,,,192.7901,195.4219,1,1,2.0981,,0,6,6,3,1,,,,,,,,,,,,,,,,,,,,,,,,,,,,,,,,,,,,,,,,,,,,,,,,,,,,,,,,,,,,,,,,,,,,,,,
,,,,,,,,,5ca25f7048f78e0018fdac10,Spanish,13 or older,"no, only English or Spanish",no,2025-08-12_14h50.57.359,empathy_intonation_perc,2024.2.4,Win32,59.88023952,5ca25f7048f78e0018fdac10,687ed1b7e638a4cbf2f02089,689b8cf6f602fdab42d94437,,,,,,,,,,,,,,1,,./stim/wavs/argentine_question_filler_Mi-vecino-habla-mucho.wav,,,,,,,,,195.4228,197.3873,1,1,1.4353,,0,7,7,1,1,,,,,,,,,,,,,,,,,,,,,,,,,,,,,,,,,,,,,,,,,,,,,,,,,,,,,,,,,,,,,,,,,,,,,,,
,,,,,,,,,5ca25f7048f78e0018fdac10,Spanish,13 or older,"no, only English or Spanish",no,2025-08-12_14h50.57.359,empathy_intonation_perc,2024.2.4,Win32,59.88023952,5ca25f7048f78e0018fdac10,687ed1b7e638a4cbf2f02089,689b8cf6f602fdab42d94437,,,,,,,,,,,,,,,,,,,,,,,,,,,,,,,,,,,,197.3883,202.9035,,,,,,,,,,,,,,,,,,,,,,,,,,,,,,,,,,,,,,,,,,,,,,,,,,,,,,,,,,,,,,,,,,,,,
,,,,,,,,,5ca25f7048f78e0018fdac10,Spanish,13 or older,"no, only English or Spanish",no,2025-08-12_14h50.57.359,empathy_intonation_perc,2024.2.4,Win32,59.88023952,5ca25f7048f78e0018fdac10,687ed1b7e638a4cbf2f02089,689b8cf6f602fdab42d94437,,,,,,,,,,,,,12,1,,./stim/wavs/cuban_match_interrogative-total-yn_Marta-abre-el-regalo.wav,,,,,,,,,,,,,,,,,,,,,,202.92,205.2353,0,0,1.7909,,0,0,0,11,1,1,cuban,,,,,,,,,,,,,,,,,,,,,,,,,,,,,,,,,,,,,,,,,,,,,,,,,,,,,,,,
,,,,,,,,,5ca25f7048f78e0018fdac10,Spanish,13 or older,"no, only English or Spanish",no,2025-08-12_14h50.57.359,empathy_intonation_perc,2024.2.4,Win32,59.88023952,5ca25f7048f78e0018fdac10,687ed1b7e638a4cbf2f02089,689b8cf6f602fdab42d94437,,,,,,,,,,,,,53,0,,./stim/wavs/cuban_match_declarative-broad-focus_Manuela-vende-el-carro.wav,,,,,,,,,,,,,,,,,,,,,,205.2363,207.8006,0,1,2.0331,,0,1,1,52,1,0,cuban,,,,,,,,,,,,,,,,,,,,,,,,,,,,,,,,,,,,,,,,,,,,,,,,,,,,,,,,
,,,,,,,,,5ca25f7048f78e0018fdac10,Spanish,13 or older,"no, only English or Spanish",no,2025-08-12_14h50.57.359,empathy_intonation_perc,2024.2.4,Win32,59.88023952,5ca25f7048f78e0018fdac10,687ed1b7e638a4cbf2f02089,689b8cf6f602fdab42d94437,,,,,,,,,,,,,25,1,,./stim/wavs/castilian_mismatch_interrogative-total-yn_La-maestra-vive-en-Paris.wav,,,,,,,,,,,,,,,,,,,,,,207.8017,210.1004,1,1,1.7763,,0,2,2,24,1,0,castilian,,,,,,,,,,,,,,,,,,,,,,,,,,,,,,,,,,,,,,,,,,,,,,,,,,,,,,,,
,,,,,,,,,5ca25f7048f78e0018fdac10,Spanish,13 or older,"no, only English or Spanish",no,2025-08-12_14h50.57.359,empathy_intonation_perc,2024.2.4,Win32,59.88023952,5ca25f7048f78e0018fdac10,687ed1b7e638a4cbf2f02089,689b8cf6f602fdab42d94437,,,,,,,,,,,,,73,0,,./stim/wavs/castilian_mismatch_declarative-broad-focus_Mi-tia-odia-la-lluvia.wav,,,,,,,,,,,,,,,,,,,,,,210.1011,212.5326,0,1,1.9017,,0,3,3,72,1,0,castilian,,,,,,,,,,,,,,,,,,,,,,,,,,,,,,,,,,,,,,,,,,,,,,,,,,,,,,,,
,,,,,,,,,5ca25f7048f78e0018fdac10,Spanish,13 or older,"no, only English or Spanish",no,2025-08-12_14h50.57.359,empathy_intonation_perc,2024.2.4,Win32,59.88023952,5ca25f7048f78e0018fdac10,687ed1b7e638a4cbf2f02089,689b8cf6f602fdab42d94437,,,,,,,,,,,,,52,0,,./stim/wavs/cuban_match_declarative-broad-focus_Daniel-iba-a-Bolivia.wav,,,,,,,,,,,,,,,,,,,,,,212.5335,215.0685,0,1,2.0015,,0,4,4,51,1,0,cuban,,,,,,,,,,,,,,,,,,,,,,,,,,,,,,,,,,,,,,,,,,,,,,,,,,,,,,,,
,,,,,,,,,5ca25f7048f78e0018fdac10,Spanish,13 or older,"no, only English or Spanish",no,2025-08-12_14h50.57.359,empathy_intonation_perc,2024.2.4,Win32,59.88023952,5ca25f7048f78e0018fdac10,687ed1b7e638a4cbf2f02089,689b8cf6f602fdab42d94437,,,,,,,,,,,,,5,1,,./stim/wavs/castilian_match_interrogative-total-yn_Mariano-habla-del-tiempo.wav,,,,,,,,,,,,,,,,,,,,,,215.0693,217.4977,1,1,1.9013,,0,5,5,4,1,0,castilian,,,,,,,,,,,,,,,,,,,,,,,,,,,,,,,,,,,,,,,,,,,,,,,,,,,,,,,,
,,,,,,,,,5ca25f7048f78e0018fdac10,Spanish,13 or older,"no, only English or Spanish",no,2025-08-12_14h50.57.359,empathy_intonation_perc,2024.2.4,Win32,59.88023952,5ca25f7048f78e0018fdac10,687ed1b7e638a4cbf2f02089,689b8cf6f602fdab42d94437,,,,,,,,,,,,,24,1,,./stim/wavs/puertorican_match_interrogative-total-yn_Maria-bebe-el-vino.wav,,,,,,,,,,,,,,,,,,,,,,217.4985,219.463,1,1,1.4372,,0,6,6,23,1,1,puertorican,,,,,,,,,,,,,,,,,,,,,,,,,,,,,,,,,,,,,,,,,,,,,,,,,,,,,,,,
,,,,,,,,,5ca25f7048f78e0018fdac10,Spanish,13 or older,"no, only English or Spanish",no,2025-08-12_14h50.57.359,empathy_intonation_perc,2024.2.4,Win32,59.88023952,5ca25f7048f78e0018fdac10,687ed1b7e638a4cbf2f02089,689b8cf6f602fdab42d94437,,,,,,,,,,,,,61,0,,./stim/wavs/mexican_match_declarative-broad-focus_Mariano-habla-del-tiempo.wav,,,,,,,,,,,,,,,,,,,,,,219.464,221.7788,0,1,1.7836,,0,7,7,60,1,0,mexican,,,,,,,,,,,,,,,,,,,,,,,,,,,,,,,,,,,,,,,,,,,,,,,,,,,,,,,,
,,,,,,,,,5ca25f7048f78e0018fdac10,Spanish,13 or older,"no, only English or Spanish",no,2025-08-12_14h50.57.359,empathy_intonation_perc,2024.2.4,Win32,59.88023952,5ca25f7048f78e0018fdac10,687ed1b7e638a4cbf2f02089,689b8cf6f602fdab42d94437,,,,,,,,,,,,,85,0,,./stim/wavs/puertorican_mismatch_declarative-broad-focus_El-hombre-mira-la-luna.wav,,,,,,,,,,,,,,,,,,,,,,221.7799,223.9617,0,1,1.6576,,0,8,8,84,1,0,puertorican,,,,,,,,,,,,,,,,,,,,,,,,,,,,,,,,,,,,,,,,,,,,,,,,,,,,,,,,
,,,,,,,,,5ca25f7048f78e0018fdac10,Spanish,13 or older,"no, only English or Spanish",no,2025-08-12_14h50.57.359,empathy_intonation_perc,2024.2.4,Win32,59.88023952,5ca25f7048f78e0018fdac10,687ed1b7e638a4cbf2f02089,689b8cf6f602fdab42d94437,,,,,,,,,,,,,50,0,,./stim/wavs/castilian_match_declarative-broad-focus_Marta-abre-el-regalo.wav,,,,,,,,,,,,,,,,,,,,,,223.9625,226.2442,0,1,1.7494,,0,9,9,49,1,0,castilian,,,,,,,,,,,,,,,,,,,,,,,,,,,,,,,,,,,,,,,,,,,,,,,,,,,,,,,,
,,,,,,,,,5ca25f7048f78e0018fdac10,Spanish,13 or older,"no, only English or Spanish",no,2025-08-12_14h50.57.359,empathy_intonation_perc,2024.2.4,Win32,59.88023952,5ca25f7048f78e0018fdac10,687ed1b7e638a4cbf2f02089,689b8cf6f602fdab42d94437,,,,,,,,,,,,,34,1,,./stim/wavs/cuban_mismatch_interrogative-total-yn_Mi-tia-odia-la-lluvia.wav,,,,,,,,,,,,,,,,,,,,,,226.2451,228.3971,1,1,1.6302,,0,10,10,33,1,1,cuban,,,,,,,,,,,,,,,,,,,,,,,,,,,,,,,,,,,,,,,,,,,,,,,,,,,,,,,,
,,,,,,,,,5ca25f7048f78e0018fdac10,Spanish,13 or older,"no, only English or Spanish",no,2025-08-12_14h50.57.359,empathy_intonation_perc,2024.2.4,Win32,59.88023952,5ca25f7048f78e0018fdac10,687ed1b7e638a4cbf2f02089,689b8cf6f602fdab42d94437,,,,,,,,,,,,,15,1,,./stim/wavs/mexican_match_interrogative-total-yn_David-leia-el-libro.wav,,,,,,,,,,,,,,,,,,,,,,228.3979,230.493,1,1,1.5706,,0,11,11,14,1,0,mexican,,,,,,,,,,,,,,,,,,,,,,,,,,,,,,,,,,,,,,,,,,,,,,,,,,,,,,,,
,,,,,,,,,5ca25f7048f78e0018fdac10,Spanish,13 or older,"no, only English or Spanish",no,2025-08-12_14h50.57.359,empathy_intonation_perc,2024.2.4,Win32,59.88023952,5ca25f7048f78e0018fdac10,687ed1b7e638a4cbf2f02089,689b8cf6f602fdab42d94437,,,,,,,,,,,,,80,0,,./stim/wavs/mexican_mismatch_declarative-broad-focus_El-hombre-mira-la-luna.wav,,,,,,,,,,,,,,,,,,,,,,230.4939,232.5111,0,1,1.4961,,0,12,12,79,1,0,mexican,,,,,,,,,,,,,,,,,,,,,,,,,,,,,,,,,,,,,,,,,,,,,,,,,,,,,,,,
,,,,,,,,,5ca25f7048f78e0018fdac10,Spanish,13 or older,"no, only English or Spanish",no,2025-08-12_14h50.57.359,empathy_intonation_perc,2024.2.4,Win32,59.88023952,5ca25f7048f78e0018fdac10,687ed1b7e638a4cbf2f02089,689b8cf6f602fdab42d94437,,,,,,,,,,,,,57,0,,./stim/wavs/mexican_match_declarative-broad-focus_Ana-lleva-el-abrigo.wav,,,,,,,,,,,,,,,,,,,,,,232.5118,234.4082,0,1,1.3661,,0,13,13,56,1,0,mexican,,,,,,,,,,,,,,,,,,,,,,,,,,,,,,,,,,,,,,,,,,,,,,,,,,,,,,,,
,,,,,,,,,5ca25f7048f78e0018fdac10,Spanish,13 or older,"no, only English or Spanish",no,2025-08-12_14h50.57.359,empathy_intonation_perc,2024.2.4,Win32,59.88023952,5ca25f7048f78e0018fdac10,687ed1b7e638a4cbf2f02089,689b8cf6f602fdab42d94437,,,,,,,,,,,,,9,1,,./stim/wavs/cuban_match_interrogative-total-yn_Manuela-vende-el-carro.wav,,,,,,,,,,,,,,,,,,,,,,234.4093,236.5741,0,0,1.6307,,0,14,14,8,1,1,cuban,,,,,,,,,,,,,,,,,,,,,,,,,,,,,,,,,,,,,,,,,,,,,,,,,,,,,,,,
,,,,,,,,,5ca25f7048f78e0018fdac10,Spanish,13 or older,"no, only English or Spanish",no,2025-08-12_14h50.57.359,empathy_intonation_perc,2024.2.4,Win32,59.88023952,5ca25f7048f78e0018fdac10,687ed1b7e638a4cbf2f02089,689b8cf6f602fdab42d94437,,,,,,,,,,,,,20,1,,./stim/wavs/puertorican_match_interrogative-total-yn_Daniel-iba-a-Bolivia.wav,,,,,,,,,,,,,,,,,,,,,,236.5756,238.9231,0,0,1.8185,,0,15,15,19,1,1,puertorican,,,,,,,,,,,,,,,,,,,,,,,,,,,,,,,,,,,,,,,,,,,,,,,,,,,,,,,,
,,,,,,,,,5ca25f7048f78e0018fdac10,Spanish,13 or older,"no, only English or Spanish",no,2025-08-12_14h50.57.359,empathy_intonation_perc,2024.2.4,Win32,59.88023952,5ca25f7048f78e0018fdac10,687ed1b7e638a4cbf2f02089,689b8cf6f602fdab42d94437,,,,,,,,,,,,,36,1,,./stim/wavs/mexican_mismatch_interrogative-total-yn_El-nino-oye-el-rio.wav,,,,,,,,,,,,,,,,,,,,,,238.9242,240.922,1,1,1.4872,,0,16,16,35,1,0,mexican,,,,,,,,,,,,,,,,,,,,,,,,,,,,,,,,,,,,,,,,,,,,,,,,,,,,,,,,
,,,,,,,,,5ca25f7048f78e0018fdac10,Spanish,13 or older,"no, only English or Spanish",no,2025-08-12_14h50.57.359,empathy_intonation_perc,2024.2.4,Win32,59.88023952,5ca25f7048f78e0018fdac10,687ed1b7e638a4cbf2f02089,689b8cf6f602fdab42d94437,,,,,,,,,,,,,27,1,,./stim/wavs/castilian_mismatch_interrogative-total-yn_Mi-madre-come-la-fruta.wav,,,,,,,,,,,,,,,,,,,,,,240.923,243.038,1,1,1.5911,,0,17,17,26,1,0,castilian,,,,,,,,,,,,,,,,,,,,,,,,,,,,,,,,,,,,,,,,,,,,,,,,,,,,,,,,
,,,,,,,,,5ca25f7048f78e0018fdac10,Spanish,13 or older,"no, only English or Spanish",no,2025-08-12_14h50.57.359,empathy_intonation_perc,2024.2.4,Win32,59.88023952,5ca25f7048f78e0018fdac10,687ed1b7e638a4cbf2f02089,689b8cf6f602fdab42d94437,,,,,,,,,,,,,70,0,,./stim/wavs/castilian_mismatch_declarative-broad-focus_La-maestra-vive-en-Paris.wav,,,,,,,,,,,,,,,,,,,,,,243.0393,245.8377,0,1,2.2734,,0,18,18,69,1,0,castilian,,,,,,,,,,,,,,,,,,,,,,,,,,,,,,,,,,,,,,,,,,,,,,,,,,,,,,,,
,,,,,,,,,5ca25f7048f78e0018fdac10,Spanish,13 or older,"no, only English or Spanish",no,2025-08-12_14h50.57.359,empathy_intonation_perc,2024.2.4,Win32,59.88023952,5ca25f7048f78e0018fdac10,687ed1b7e638a4cbf2f02089,689b8cf6f602fdab42d94437,,,,,,,,,,,,,11,1,,./stim/wavs/cuban_match_interrogative-total-yn_Mariano-habla-del-tiempo.wav,,,,,,,,,,,,,,,,,,,,,,245.8386,247.953,0,0,1.5902,,0,19,19,10,1,1,cuban,,,,,,,,,,,,,,,,,,,,,,,,,,,,,,,,,,,,,,,,,,,,,,,,,,,,,,,,
,,,,,,,,,5ca25f7048f78e0018fdac10,Spanish,13 or older,"no, only English or Spanish",no,2025-08-12_14h50.57.359,empathy_intonation_perc,2024.2.4,Win32,59.88023952,5ca25f7048f78e0018fdac10,687ed1b7e638a4cbf2f02089,689b8cf6f602fdab42d94437,,,,,,,,,,,,,17,1,,./stim/wavs/mexican_match_interrogative-total-yn_Mariano-habla-del-tiempo.wav,,,,,,,,,,,,,,,,,,,,,,247.9542,250.2697,1,1,1.7832,,0,20,20,16,1,0,mexican,,,,,,,,,,,,,,,,,,,,,,,,,,,,,,,,,,,,,,,,,,,,,,,,,,,,,,,,
,,,,,,,,,5ca25f7048f78e0018fdac10,Spanish,13 or older,"no, only English or Spanish",no,2025-08-12_14h50.57.359,empathy_intonation_perc,2024.2.4,Win32,59.88023952,5ca25f7048f78e0018fdac10,687ed1b7e638a4cbf2f02089,689b8cf6f602fdab42d94437,,,,,,,,,,,,,4,1,,./stim/wavs/castilian_match_interrogative-total-yn_Maria-bebe-el-vino.wav,,,,,,,,,,,,,,,,,,,,,,250.2706,252.2522,1,1,1.4554,,0,21,21,3,1,0,castilian,,,,,,,,,,,,,,,,,,,,,,,,,,,,,,,,,,,,,,,,,,,,,,,,,,,,,,,,
,,,,,,,,,5ca25f7048f78e0018fdac10,Spanish,13 or older,"no, only English or Spanish",no,2025-08-12_14h50.57.359,empathy_intonation_perc,2024.2.4,Win32,59.88023952,5ca25f7048f78e0018fdac10,687ed1b7e638a4cbf2f02089,689b8cf6f602fdab42d94437,,,,,,,,,,,,,59,0,,./stim/wavs/mexican_match_declarative-broad-focus_David-leia-el-libro.wav,,,,,,,,,,,,,,,,,,,,,,252.2532,254.2844,0,1,1.5002,,0,22,22,58,1,0,mexican,,,,,,,,,,,,,,,,,,,,,,,,,,,,,,,,,,,,,,,,,,,,,,,,,,,,,,,,
,,,,,,,,,5ca25f7048f78e0018fdac10,Spanish,13 or older,"no, only English or Spanish",no,2025-08-12_14h50.57.359,empathy_intonation_perc,2024.2.4,Win32,59.88023952,5ca25f7048f78e0018fdac10,687ed1b7e638a4cbf2f02089,689b8cf6f602fdab42d94437,,,,,,,,,,,,,79,0,,./stim/wavs/mexican_mismatch_declarative-broad-focus_El-bebe-comia-muy-bien.wav,,,,,,,,,,,,,,,,,,,,,,254.2855,256.4509,0,1,1.6366,,0,23,23,78,1,0,mexican,,,,,,,,,,,,,,,,,,,,,,,,,,,,,,,,,,,,,,,,,,,,,,,,,,,,,,,,
,,,,,,,,,5ca25f7048f78e0018fdac10,Spanish,13 or older,"no, only English or Spanish",no,2025-08-12_14h50.57.359,empathy_intonation_perc,2024.2.4,Win32,59.88023952,5ca25f7048f78e0018fdac10,687ed1b7e638a4cbf2f02089,689b8cf6f602fdab42d94437,,,,,,,,,,,,,72,0,,./stim/wavs/castilian_mismatch_declarative-broad-focus_Mi-novio-viene-del-lago.wav,,,,,,,,,,,,,,,,,,,,,,256.452,258.4996,1,0,1.5242,,0,24,24,71,1,0,castilian,,,,,,,,,,,,,,,,,,,,,,,,,,,,,,,,,,,,,,,,,,,,,,,,,,,,,,,,
,,,,,,,,,5ca25f7048f78e0018fdac10,Spanish,13 or older,"no, only English or Spanish",no,2025-08-12_14h50.57.359,empathy_intonation_perc,2024.2.4,Win32,59.88023952,5ca25f7048f78e0018fdac10,687ed1b7e638a4cbf2f02089,689b8cf6f602fdab42d94437,,,,,,,,,,,,,88,0,,./stim/wavs/puertorican_mismatch_declarative-broad-focus_La-nina-lava-el-plato.wav,,,,,,,,,,,,,,,,,,,,,,258.5006,260.4663,0,1,1.4333,,0,25,25,87,1,0,puertorican,,,,,,,,,,,,,,,,,,,,,,,,,,,,,,,,,,,,,,,,,,,,,,,,,,,,,,,,
,,,,,,,,,5ca25f7048f78e0018fdac10,Spanish,13 or older,"no, only English or Spanish",no,2025-08-12_14h50.57.359,empathy_intonation_perc,2024.2.4,Win32,59.88023952,5ca25f7048f78e0018fdac10,687ed1b7e638a4cbf2f02089,689b8cf6f602fdab42d94437,,,,,,,,,,,,,76,0,,./stim/wavs/cuban_mismatch_declarative-broad-focus_La-nina-lava-el-plato.wav,,,,,,,,,,,,,,,,,,,,,,260.4671,262.6489,0,1,1.6509,,0,26,26,75,1,0,cuban,,,,,,,,,,,,,,,,,,,,,,,,,,,,,,,,,,,,,,,,,,,,,,,,,,,,,,,,
,,,,,,,,,5ca25f7048f78e0018fdac10,Spanish,13 or older,"no, only English or Spanish",no,2025-08-12_14h50.57.359,empathy_intonation_perc,2024.2.4,Win32,59.88023952,5ca25f7048f78e0018fdac10,687ed1b7e638a4cbf2f02089,689b8cf6f602fdab42d94437,,,,,,,,,,,,,31,1,,./stim/wavs/cuban_mismatch_interrogative-total-yn_El-nino-oye-el-rio.wav,,,,,,,,,,,,,,,,,,,,,,262.65,264.9688,0,0,1.798,,0,27,27,30,1,1,cuban,,,,,,,,,,,,,,,,,,,,,,,,,,,,,,,,,,,,,,,,,,,,,,,,,,,,,,,,
,,,,,,,,,5ca25f7048f78e0018fdac10,Spanish,13 or older,"no, only English or Spanish",no,2025-08-12_14h50.57.359,empathy_intonation_perc,2024.2.4,Win32,59.88023952,5ca25f7048f78e0018fdac10,687ed1b7e638a4cbf2f02089,689b8cf6f602fdab42d94437,,,,,,,,,,,,,45,0,,./stim/wavs/castilian_match_declarative-broad-focus_David-leia-el-libro.wav,,,,,,,,,,,,,,,,,,,,,,264.9695,267.3632,0,1,1.8761,,0,28,28,44,1,0,castilian,,,,,,,,,,,,,,,,,,,,,,,,,,,,,,,,,,,,,,,,,,,,,,,,,,,,,,,,
,,,,,,,,,5ca25f7048f78e0018fdac10,Spanish,13 or older,"no, only English or Spanish",no,2025-08-12_14h50.57.359,empathy_intonation_perc,2024.2.4,Win32,59.88023952,5ca25f7048f78e0018fdac10,687ed1b7e638a4cbf2f02089,689b8cf6f602fdab42d94437,,,,,,,,,,,,,51,0,,./stim/wavs/cuban_match_declarative-broad-focus_Ana-lleva-el-abrigo.wav,,,,,,,,,,,,,,,,,,,,,,267.3644,269.4166,1,0,1.53,,0,29,29,50,1,0,cuban,,,,,,,,,,,,,,,,,,,,,,,,,,,,,,,,,,,,,,,,,,,,,,,,,,,,,,,,
,,,,,,,,,5ca25f7048f78e0018fdac10,Spanish,13 or older,"no, only English or Spanish",no,2025-08-12_14h50.57.359,empathy_intonation_perc,2024.2.4,Win32,59.88023952,5ca25f7048f78e0018fdac10,687ed1b7e638a4cbf2f02089,689b8cf6f602fdab42d94437,,,,,,,,,,,,,39,1,,./stim/wavs/mexican_mismatch_interrogative-total-yn_Mi-tia-odia-la-lluvia.wav,,,,,,,,,,,,,,,,,,,,,,269.4178,271.4126,1,1,1.4671,,0,30,30,38,1,0,mexican,,,,,,,,,,,,,,,,,,,,,,,,,,,,,,,,,,,,,,,,,,,,,,,,,,,,,,,,
,,,,,,,,,5ca25f7048f78e0018fdac10,Spanish,13 or older,"no, only English or Spanish",no,2025-08-12_14h50.57.359,empathy_intonation_perc,2024.2.4,Win32,59.88023952,5ca25f7048f78e0018fdac10,687ed1b7e638a4cbf2f02089,689b8cf6f602fdab42d94437,,,,,,,,,,,,,26,1,,./stim/wavs/castilian_mismatch_interrogative-total-yn_La-nina-lava-el-plato.wav,,,,,,,,,,,,,,,,,,,,,,271.4135,273.3784,1,1,1.4207,,0,31,31,25,1,0,castilian,,,,,,,,,,,,,,,,,,,,,,,,,,,,,,,,,,,,,,,,,,,,,,,,,,,,,,,,
,,,,,,,,,5ca25f7048f78e0018fdac10,Spanish,13 or older,"no, only English or Spanish",no,2025-08-12_14h50.57.359,empathy_intonation_perc,2024.2.4,Win32,59.88023952,5ca25f7048f78e0018fdac10,687ed1b7e638a4cbf2f02089,689b8cf6f602fdab42d94437,,,,,,,,,,,,,23,1,,./stim/wavs/puertorican_match_interrogative-total-yn_Manuela-vende-el-carro.wav,,,,,,,,,,,,,,,,,,,,,,273.3796,275.345,1,1,1.4341,,0,32,32,22,1,1,puertorican,,,,,,,,,,,,,,,,,,,,,,,,,,,,,,,,,,,,,,,,,,,,,,,,,,,,,,,,
,,,,,,,,,5ca25f7048f78e0018fdac10,Spanish,13 or older,"no, only English or Spanish",no,2025-08-12_14h50.57.359,empathy_intonation_perc,2024.2.4,Win32,59.88023952,5ca25f7048f78e0018fdac10,687ed1b7e638a4cbf2f02089,689b8cf6f602fdab42d94437,,,,,,,,,,,,,74,0,,./stim/wavs/cuban_mismatch_declarative-broad-focus_El-bebe-comia-muy-bien.wav,,,,,,,,,,,,,,,,,,,,,,275.346,277.2989,0,1,1.419,,0,33,33,73,1,0,cuban,,,,,,,,,,,,,,,,,,,,,,,,,,,,,,,,,,,,,,,,,,,,,,,,,,,,,,,,
,,,,,,,,,5ca25f7048f78e0018fdac10,Spanish,13 or older,"no, only English or Spanish",no,2025-08-12_14h50.57.359,empathy_intonation_perc,2024.2.4,Win32,59.88023952,5ca25f7048f78e0018fdac10,687ed1b7e638a4cbf2f02089,689b8cf6f602fdab42d94437,,,,,,,,,,,,,44,1,,./stim/wavs/puertorican_mismatch_interrogative-total-yn_Mi-madre-come-la-fruta.wav,,,,,,,,,,,,,,,,,,,,,,277.2996,279.3266,0,0,1.503,,0,34,34,43,1,1,puertorican,,,,,,,,,,,,,,,,,,,,,,,,,,,,,,,,,,,,,,,,,,,,,,,,,,,,,,,,
,,,,,,,,,5ca25f7048f78e0018fdac10,Spanish,13 or older,"no, only English or Spanish",no,2025-08-12_14h50.57.359,empathy_intonation_perc,2024.2.4,Win32,59.88023952,5ca25f7048f78e0018fdac10,687ed1b7e638a4cbf2f02089,689b8cf6f602fdab42d94437,,,,,,,,,,,,,86,0,,./stim/wavs/puertorican_mismatch_declarative-broad-focus_El-nino-oye-el-rio.wav,,,,,,,,,,,,,,,,,,,,,,279.3275,281.1592,0,1,1.3005,,0,35,35,85,1,0,puertorican,,,,,,,,,,,,,,,,,,,,,,,,,,,,,,,,,,,,,,,,,,,,,,,,,,,,,,,,
,,,,,,,,,5ca25f7048f78e0018fdac10,Spanish,13 or older,"no, only English or Spanish",no,2025-08-12_14h50.57.359,empathy_intonation_perc,2024.2.4,Win32,59.88023952,5ca25f7048f78e0018fdac10,687ed1b7e638a4cbf2f02089,689b8cf6f602fdab42d94437,,,,,,,,,,,,,78,0,,./stim/wavs/cuban_mismatch_declarative-broad-focus_Mi-tia-odia-la-lluvia.wav,,,,,,,,,,,,,,,,,,,,,,281.16,283.7083,0,1,2.0182,,0,36,36,77,1,0,cuban,,,,,,,,,,,,,,,,,,,,,,,,,,,,,,,,,,,,,,,,,,,,,,,,,,,,,,,,
,,,,,,,,,5ca25f7048f78e0018fdac10,Spanish,13 or older,"no, only English or Spanish",no,2025-08-12_14h50.57.359,empathy_intonation_perc,2024.2.4,Win32,59.88023952,5ca25f7048f78e0018fdac10,687ed1b7e638a4cbf2f02089,689b8cf6f602fdab42d94437,,,,,,,,,,,,,64,0,,./stim/wavs/puertorican_match_declarative-broad-focus_Daniel-iba-a-Bolivia.wav,,,,,,,,,,,,,,,,,,,,,,283.7093,285.8075,0,1,1.5708,,0,37,37,63,1,0,puertorican,,,,,,,,,,,,,,,,,,,,,,,,,,,,,,,,,,,,,,,,,,,,,,,,,,,,,,,,
,,,,,,,,,5ca25f7048f78e0018fdac10,Spanish,13 or older,"no, only English or Spanish",no,2025-08-12_14h50.57.359,empathy_intonation_perc,2024.2.4,Win32,59.88023952,5ca25f7048f78e0018fdac10,687ed1b7e638a4cbf2f02089,689b8cf6f602fdab42d94437,,,,,,,,,,,,,66,0,,./stim/wavs/puertorican_match_declarative-broad-focus_Emilio-ama-la-marcha.wav,,,,,,,,,,,,,,,,,,,,,,285.8084,287.807,0,1,1.4675,,0,38,38,65,1,0,puertorican,,,,,,,,,,,,,,,,,,,,,,,,,,,,,,,,,,,,,,,,,,,,,,,,,,,,,,,,
,,,,,,,,,5ca25f7048f78e0018fdac10,Spanish,13 or older,"no, only English or Spanish",no,2025-08-12_14h50.57.359,empathy_intonation_perc,2024.2.4,Win32,59.88023952,5ca25f7048f78e0018fdac10,687ed1b7e638a4cbf2f02089,689b8cf6f602fdab42d94437,,,,,,,,,,,,,60,0,,./stim/wavs/mexican_match_declarative-broad-focus_Emilio-ama-la-marcha.wav,,,,,,,,,,,,,,,,,,,,,,287.8079,290.2568,0,1,1.9227,,0,39,39,59,1,0,mexican,,,,,,,,,,,,,,,,,,,,,,,,,,,,,,,,,,,,,,,,,,,,,,,,,,,,,,,,
,,,,,,,,,5ca25f7048f78e0018fdac10,Spanish,13 or older,"no, only English or Spanish",no,2025-08-12_14h50.57.359,empathy_intonation_perc,2024.2.4,Win32,59.88023952,5ca25f7048f78e0018fdac10,687ed1b7e638a4cbf2f02089,689b8cf6f602fdab42d94437,,,,,,,,,,,,,62,0,,./stim/wavs/mexican_match_declarative-broad-focus_Marta-abre-el-regalo.wav,,,,,,,,,,,,,,,,,,,,,,290.2578,292.3381,0,1,1.5561,,0,40,40,61,1,0,mexican,,,,,,,,,,,,,,,,,,,,,,,,,,,,,,,,,,,,,,,,,,,,,,,,,,,,,,,,
,,,,,,,,,5ca25f7048f78e0018fdac10,Spanish,13 or older,"no, only English or Spanish",no,2025-08-12_14h50.57.359,empathy_intonation_perc,2024.2.4,Win32,59.88023952,5ca25f7048f78e0018fdac10,687ed1b7e638a4cbf2f02089,689b8cf6f602fdab42d94437,,,,,,,,,,,,,75,0,,./stim/wavs/cuban_mismatch_declarative-broad-focus_El-hombre-mira-la-luna.wav,,,,,,,,,,,,,,,,,,,,,,292.3393,294.2049,1,0,1.3325,,0,41,41,74,1,0,cuban,,,,,,,,,,,,,,,,,,,,,,,,,,,,,,,,,,,,,,,,,,,,,,,,,,,,,,,,
,,,,,,,,,5ca25f7048f78e0018fdac10,Spanish,13 or older,"no, only English or Spanish",no,2025-08-12_14h50.57.359,empathy_intonation_perc,2024.2.4,Win32,59.88023952,5ca25f7048f78e0018fdac10,687ed1b7e638a4cbf2f02089,689b8cf6f602fdab42d94437,,,,,,,,,,,,,56,0,,./stim/wavs/cuban_match_declarative-broad-focus_Marta-abre-el-regalo.wav,,,,,,,,,,,,,,,,,,,,,,294.2058,296.271,1,0,1.5341,,0,42,42,55,1,0,cuban,,,,,,,,,,,,,,,,,,,,,,,,,,,,,,,,,,,,,,,,,,,,,,,,,,,,,,,,
,,,,,,,,,5ca25f7048f78e0018fdac10,Spanish,13 or older,"no, only English or Spanish",no,2025-08-12_14h50.57.359,empathy_intonation_perc,2024.2.4,Win32,59.88023952,5ca25f7048f78e0018fdac10,687ed1b7e638a4cbf2f02089,689b8cf6f602fdab42d94437,,,,,,,,,,,,,1,1,,./stim/wavs/castilian_match_interrogative-total-yn_David-leia-el-libro.wav,,,,,,,,,,,,,,,,,,,,,,296.2718,298.3411,1,1,1.5603,,0,43,43,0,1,0,castilian,,,,,,,,,,,,,,,,,,,,,,,,,,,,,,,,,,,,,,,,,,,,,,,,,,,,,,,,
,,,,,,,,,5ca25f7048f78e0018fdac10,Spanish,13 or older,"no, only English or Spanish",no,2025-08-12_14h50.57.359,empathy_intonation_perc,2024.2.4,Win32,59.88023952,5ca25f7048f78e0018fdac10,687ed1b7e638a4cbf2f02089,689b8cf6f602fdab42d94437,,,,,,,,,,,,,3,1,,./stim/wavs/castilian_match_interrogative-total-yn_Manuela-vende-el-carro.wav,,,,,,,,,,,,,,,,,,,,,,298.342,300.5189,1,1,1.6494,,0,44,44,2,1,0,castilian,,,,,,,,,,,,,,,,,,,,,,,,,,,,,,,,,,,,,,,,,,,,,,,,,,,,,,,,
,,,,,,,,,5ca25f7048f78e0018fdac10,Spanish,13 or older,"no, only English or Spanish",no,2025-08-12_14h50.57.359,empathy_intonation_perc,2024.2.4,Win32,59.88023952,5ca25f7048f78e0018fdac10,687ed1b7e638a4cbf2f02089,689b8cf6f602fdab42d94437,,,,,,,,,,,,,38,1,,./stim/wavs/mexican_mismatch_interrogative-total-yn_Mi-novio-viene-del-lago.wav,,,,,,,,,,,,,,,,,,,,,,300.5201,302.6682,1,1,1.6188,,0,45,45,37,1,0,mexican,,,,,,,,,,,,,,,,,,,,,,,,,,,,,,,,,,,,,,,,,,,,,,,,,,,,,,,,
,,,,,,,,,5ca25f7048f78e0018fdac10,Spanish,13 or older,"no, only English or Spanish",no,2025-08-12_14h50.57.359,empathy_intonation_perc,2024.2.4,Win32,59.88023952,5ca25f7048f78e0018fdac10,687ed1b7e638a4cbf2f02089,689b8cf6f602fdab42d94437,,,,,,,,,,,,,71,0,,./stim/wavs/castilian_mismatch_declarative-broad-focus_La-nina-lava-el-plato.wav,,,,,,,,,,,,,,,,,,,,,,302.6694,304.9513,0,1,1.749,,0,46,46,70,1,0,castilian,,,,,,,,,,,,,,,,,,,,,,,,,,,,,,,,,,,,,,,,,,,,,,,,,,,,,,,,
,,,,,,,,,5ca25f7048f78e0018fdac10,Spanish,13 or older,"no, only English or Spanish",no,2025-08-12_14h50.57.359,empathy_intonation_perc,2024.2.4,Win32,59.88023952,5ca25f7048f78e0018fdac10,687ed1b7e638a4cbf2f02089,689b8cf6f602fdab42d94437,,,,,,,,,,,,,37,1,,./stim/wavs/mexican_mismatch_interrogative-total-yn_La-maestra-vive-en-Paris.wav,,,,,,,,,,,,,,,,,,,,,,304.9522,307.3166,1,1,1.8295,,0,47,47,36,1,0,mexican,,,,,,,,,,,,,,,,,,,,,,,,,,,,,,,,,,,,,,,,,,,,,,,,,,,,,,,,
,,,,,,,,,5ca25f7048f78e0018fdac10,Spanish,13 or older,"no, only English or Spanish",no,2025-08-12_14h50.57.359,empathy_intonation_perc,2024.2.4,Win32,59.88023952,5ca25f7048f78e0018fdac10,687ed1b7e638a4cbf2f02089,689b8cf6f602fdab42d94437,,,,,,,,,,,,,40,1,,./stim/wavs/puertorican_mismatch_interrogative-total-yn_El-hombre-mira-la-luna.wav,,,,,,,,,,,,,,,,,,,,,,307.318,309.3166,1,1,1.4634,,0,48,48,39,1,1,puertorican,,,,,,,,,,,,,,,,,,,,,,,,,,,,,,,,,,,,,,,,,,,,,,,,,,,,,,,,
,,,,,,,,,5ca25f7048f78e0018fdac10,Spanish,13 or older,"no, only English or Spanish",no,2025-08-12_14h50.57.359,empathy_intonation_perc,2024.2.4,Win32,59.88023952,5ca25f7048f78e0018fdac10,687ed1b7e638a4cbf2f02089,689b8cf6f602fdab42d94437,,,,,,,,,,,,,42,1,,./stim/wavs/puertorican_mismatch_interrogative-total-yn_La-maestra-vive-en-Paris.wav,,,,,,,,,,,,,,,,,,,,,,309.3179,311.8649,0,0,2.0014,,0,49,49,41,1,1,puertorican,,,,,,,,,,,,,,,,,,,,,,,,,,,,,,,,,,,,,,,,,,,,,,,,,,,,,,,,
,,,,,,,,,5ca25f7048f78e0018fdac10,Spanish,13 or older,"no, only English or Spanish",no,2025-08-12_14h50.57.359,empathy_intonation_perc,2024.2.4,Win32,59.88023952,5ca25f7048f78e0018fdac10,687ed1b7e638a4cbf2f02089,689b8cf6f602fdab42d94437,,,,,,,,,,,,,22,1,,./stim/wavs/puertorican_match_interrogative-total-yn_Emilio-ama-la-marcha.wav,,,,,,,,,,,,,,,,,,,,,,311.8661,313.8487,0,0,1.454,,0,50,50,21,1,1,puertorican,,,,,,,,,,,,,,,,,,,,,,,,,,,,,,,,,,,,,,,,,,,,,,,,,,,,,,,,
,,,,,,,,,5ca25f7048f78e0018fdac10,Spanish,13 or older,"no, only English or Spanish",no,2025-08-12_14h50.57.359,empathy_intonation_perc,2024.2.4,Win32,59.88023952,5ca25f7048f78e0018fdac10,687ed1b7e638a4cbf2f02089,689b8cf6f602fdab42d94437,,,,,,,,,,,,,35,1,,./stim/wavs/mexican_mismatch_interrogative-total-yn_El-hombre-mira-la-luna.wav,,,,,,,,,,,,,,,,,,,,,,313.8497,315.7808,1,1,1.386,,0,51,51,34,1,0,mexican,,,,,,,,,,,,,,,,,,,,,,,,,,,,,,,,,,,,,,,,,,,,,,,,,,,,,,,,
,,,,,,,,,5ca25f7048f78e0018fdac10,Spanish,13 or older,"no, only English or Spanish",no,2025-08-12_14h50.57.359,empathy_intonation_perc,2024.2.4,Win32,59.88023952,5ca25f7048f78e0018fdac10,687ed1b7e638a4cbf2f02089,689b8cf6f602fdab42d94437,,,,,,,,,,,,,7,1,,./stim/wavs/cuban_match_interrogative-total-yn_Ana-lleva-el-abrigo.wav,,,,,,,,,,,,,,,,,,,,,,315.7817,317.5639,0,0,1.2424,,0,52,52,6,1,1,cuban,,,,,,,,,,,,,,,,,,,,,,,,,,,,,,,,,,,,,,,,,,,,,,,,,,,,,,,,
,,,,,,,,,5ca25f7048f78e0018fdac10,Spanish,13 or older,"no, only English or Spanish",no,2025-08-12_14h50.57.359,empathy_intonation_perc,2024.2.4,Win32,59.88023952,5ca25f7048f78e0018fdac10,687ed1b7e638a4cbf2f02089,689b8cf6f602fdab42d94437,,,,,,,,,,,,,41,1,,./stim/wavs/puertorican_mismatch_interrogative-total-yn_El-nino-oye-el-rio.wav,,,,,,,,,,,,,,,,,,,,,,317.5648,319.6129,0,0,1.5243,,0,53,53,40,1,1,puertorican,,,,,,,,,,,,,,,,,,,,,,,,,,,,,,,,,,,,,,,,,,,,,,,,,,,,,,,,
,,,,,,,,,5ca25f7048f78e0018fdac10,Spanish,13 or older,"no, only English or Spanish",no,2025-08-12_14h50.57.359,empathy_intonation_perc,2024.2.4,Win32,59.88023952,5ca25f7048f78e0018fdac10,687ed1b7e638a4cbf2f02089,689b8cf6f602fdab42d94437,,,,,,,,,,,,,46,0,,./stim/wavs/castilian_match_declarative-broad-focus_Emilio-ama-la-marcha.wav,,,,,,,,,,,,,,,,,,,,,,319.6139,321.948,0,1,1.8126,,0,54,54,45,1,0,castilian,,,,,,,,,,,,,,,,,,,,,,,,,,,,,,,,,,,,,,,,,,,,,,,,,,,,,,,,
,,,,,,,,,5ca25f7048f78e0018fdac10,Spanish,13 or older,"no, only English or Spanish",no,2025-08-12_14h50.57.359,empathy_intonation_perc,2024.2.4,Win32,59.88023952,5ca25f7048f78e0018fdac10,687ed1b7e638a4cbf2f02089,689b8cf6f602fdab42d94437,,,,,,,,,,,,,19,1,,./stim/wavs/puertorican_match_interrogative-total-yn_Ana-lleva-el-abrigo.wav,,,,,,,,,,,,,,,,,,,,,,321.9488,323.9784,0,0,1.5054,,0,55,55,18,1,1,puertorican,,,,,,,,,,,,,,,,,,,,,,,,,,,,,,,,,,,,,,,,,,,,,,,,,,,,,,,,
,,,,,,,,,5ca25f7048f78e0018fdac10,Spanish,13 or older,"no, only English or Spanish",no,2025-08-12_14h50.57.359,empathy_intonation_perc,2024.2.4,Win32,59.88023952,5ca25f7048f78e0018fdac10,687ed1b7e638a4cbf2f02089,689b8cf6f602fdab42d94437,,,,,,,,,,,,,13,1,,./stim/wavs/mexican_match_interrogative-total-yn_Ana-lleva-el-abrigo.wav,,,,,,,,,,,,,,,,,,,,,,323.9795,325.9603,1,1,1.4472,,0,56,56,12,1,0,mexican,,,,,,,,,,,,,,,,,,,,,,,,,,,,,,,,,,,,,,,,,,,,,,,,,,,,,,,,
,,,,,,,,,5ca25f7048f78e0018fdac10,Spanish,13 or older,"no, only English or Spanish",no,2025-08-12_14h50.57.359,empathy_intonation_perc,2024.2.4,Win32,59.88023952,5ca25f7048f78e0018fdac10,687ed1b7e638a4cbf2f02089,689b8cf6f602fdab42d94437,,,,,,,,,,,,,18,1,,./stim/wavs/mexican_match_interrogative-total-yn_Marta-abre-el-regalo.wav,,,,,,,,,,,,,,,,,,,,,,325.9615,327.7761,1,1,1.2935,,0,57,57,17,1,0,mexican,,,,,,,,,,,,,,,,,,,,,,,,,,,,,,,,,,,,,,,,,,,,,,,,,,,,,,,,
,,,,,,,,,5ca25f7048f78e0018fdac10,Spanish,13 or older,"no, only English or Spanish",no,2025-08-12_14h50.57.359,empathy_intonation_perc,2024.2.4,Win32,59.88023952,5ca25f7048f78e0018fdac10,687ed1b7e638a4cbf2f02089,689b8cf6f602fdab42d94437,,,,,,,,,,,,,54,0,,./stim/wavs/cuban_match_declarative-broad-focus_Maria-bebe-el-vino.wav,,,,,,,,,,,,,,,,,,,,,,327.7778,329.8982,0,1,1.5986,,0,58,58,53,1,0,cuban,,,,,,,,,,,,,,,,,,,,,,,,,,,,,,,,,,,,,,,,,,,,,,,,,,,,,,,,
,,,,,,,,,5ca25f7048f78e0018fdac10,Spanish,13 or older,"no, only English or Spanish",no,2025-08-12_14h50.57.359,empathy_intonation_perc,2024.2.4,Win32,59.88023952,5ca25f7048f78e0018fdac10,687ed1b7e638a4cbf2f02089,689b8cf6f602fdab42d94437,,,,,,,,,,,,,28,1,,./stim/wavs/castilian_mismatch_interrogative-total-yn_Mi-novio-viene-del-lago.wav,,,,,,,,,,,,,,,,,,,,,,329.8987,332.2966,1,1,1.8817,,0,59,59,27,1,0,castilian,,,,,,,,,,,,,,,,,,,,,,,,,,,,,,,,,,,,,,,,,,,,,,,,,,,,,,,,
,,,,,,,,,5ca25f7048f78e0018fdac10,Spanish,13 or older,"no, only English or Spanish",no,2025-08-12_14h50.57.359,empathy_intonation_perc,2024.2.4,Win32,59.88023952,5ca25f7048f78e0018fdac10,687ed1b7e638a4cbf2f02089,689b8cf6f602fdab42d94437,,,,,,,,,,,,,48,0,,./stim/wavs/castilian_match_declarative-broad-focus_Maria-bebe-el-vino.wav,,,,,,,,,,,,,,,,,,,,,,332.2976,334.9579,0,1,2.135,,0,60,60,47,1,0,castilian,,,,,,,,,,,,,,,,,,,,,,,,,,,,,,,,,,,,,,,,,,,,,,,,,,,,,,,,
,,,,,,,,,5ca25f7048f78e0018fdac10,Spanish,13 or older,"no, only English or Spanish",no,2025-08-12_14h50.57.359,empathy_intonation_perc,2024.2.4,Win32,59.88023952,5ca25f7048f78e0018fdac10,687ed1b7e638a4cbf2f02089,689b8cf6f602fdab42d94437,,,,,,,,,,,,,67,0,,./stim/wavs/puertorican_match_declarative-broad-focus_Manuela-vende-el-carro.wav,,,,,,,,,,,,,,,,,,,,,,334.9589,337.0792,0,1,1.5975,,0,61,61,66,1,0,puertorican,,,,,,,,,,,,,,,,,,,,,,,,,,,,,,,,,,,,,,,,,,,,,,,,,,,,,,,,
,,,,,,,,,5ca25f7048f78e0018fdac10,Spanish,13 or older,"no, only English or Spanish",no,2025-08-12_14h50.57.359,empathy_intonation_perc,2024.2.4,Win32,59.88023952,5ca25f7048f78e0018fdac10,687ed1b7e638a4cbf2f02089,689b8cf6f602fdab42d94437,,,,,,,,,,,,,43,1,,./stim/wavs/puertorican_mismatch_interrogative-total-yn_La-nina-lava-el-plato.wav,,,,,,,,,,,,,,,,,,,,,,337.0799,339.1228,0,0,1.5234,,0,62,62,42,1,1,puertorican,,,,,,,,,,,,,,,,,,,,,,,,,,,,,,,,,,,,,,,,,,,,,,,,,,,,,,,,
,,,,,,,,,5ca25f7048f78e0018fdac10,Spanish,13 or older,"no, only English or Spanish",no,2025-08-12_14h50.57.359,empathy_intonation_perc,2024.2.4,Win32,59.88023952,5ca25f7048f78e0018fdac10,687ed1b7e638a4cbf2f02089,689b8cf6f602fdab42d94437,,,,,,,,,,,,,32,1,,./stim/wavs/cuban_mismatch_interrogative-total-yn_Mi-madre-come-la-fruta.wav,,,,,,,,,,,,,,,,,,,,,,339.1239,341.3557,0,0,1.6997,,0,63,63,31,1,1,cuban,,,,,,,,,,,,,,,,,,,,,,,,,,,,,,,,,,,,,,,,,,,,,,,,,,,,,,,,
,,,,,,,,,5ca25f7048f78e0018fdac10,Spanish,13 or older,"no, only English or Spanish",no,2025-08-12_14h50.57.359,empathy_intonation_perc,2024.2.4,Win32,59.88023952,5ca25f7048f78e0018fdac10,687ed1b7e638a4cbf2f02089,689b8cf6f602fdab42d94437,,,,,,,,,,,,,65,0,,./stim/wavs/puertorican_match_declarative-broad-focus_David-leia-el-libro.wav,,,,,,,,,,,,,,,,,,,,,,341.3566,343.3715,0,1,1.4871,,0,64,64,64,1,0,puertorican,,,,,,,,,,,,,,,,,,,,,,,,,,,,,,,,,,,,,,,,,,,,,,,,,,,,,,,,
,,,,,,,,,5ca25f7048f78e0018fdac10,Spanish,13 or older,"no, only English or Spanish",no,2025-08-12_14h50.57.359,empathy_intonation_perc,2024.2.4,Win32,59.88023952,5ca25f7048f78e0018fdac10,687ed1b7e638a4cbf2f02089,689b8cf6f602fdab42d94437,,,,,,,,,,,,,2,1,,./stim/wavs/castilian_match_interrogative-total-yn_Emilio-ama-la-marcha.wav,,,,,,,,,,,,,,,,,,,,,,343.3725,345.4868,1,1,1.5915,,0,65,65,1,1,0,castilian,,,,,,,,,,,,,,,,,,,,,,,,,,,,,,,,,,,,,,,,,,,,,,,,,,,,,,,,
,,,,,,,,,5ca25f7048f78e0018fdac10,Spanish,13 or older,"no, only English or Spanish",no,2025-08-12_14h50.57.359,empathy_intonation_perc,2024.2.4,Win32,59.88023952,5ca25f7048f78e0018fdac10,687ed1b7e638a4cbf2f02089,689b8cf6f602fdab42d94437,,,,,,,,,,,,,14,1,,./stim/wavs/mexican_match_interrogative-total-yn_Daniel-iba-a-Bolivia.wav,,,,,,,,,,,,,,,,,,,,,,345.4879,347.5702,1,1,1.5463,,0,66,66,13,1,0,mexican,,,,,,,,,,,,,,,,,,,,,,,,,,,,,,,,,,,,,,,,,,,,,,,,,,,,,,,,
,,,,,,,,,5ca25f7048f78e0018fdac10,Spanish,13 or older,"no, only English or Spanish",no,2025-08-12_14h50.57.359,empathy_intonation_perc,2024.2.4,Win32,59.88023952,5ca25f7048f78e0018fdac10,687ed1b7e638a4cbf2f02089,689b8cf6f602fdab42d94437,,,,,,,,,,,,,29,1,,./stim/wavs/castilian_mismatch_interrogative-total-yn_Mi-tia-odia-la-lluvia.wav,,,,,,,,,,,,,,,,,,,,,,347.571,349.7021,1,1,1.6001,,0,67,67,28,1,0,castilian,,,,,,,,,,,,,,,,,,,,,,,,,,,,,,,,,,,,,,,,,,,,,,,,,,,,,,,,
,,,,,,,,,5ca25f7048f78e0018fdac10,Spanish,13 or older,"no, only English or Spanish",no,2025-08-12_14h50.57.359,empathy_intonation_perc,2024.2.4,Win32,59.88023952,5ca25f7048f78e0018fdac10,687ed1b7e638a4cbf2f02089,689b8cf6f602fdab42d94437,,,,,,,,,,,,,30,1,,./stim/wavs/cuban_mismatch_interrogative-total-yn_El-hombre-mira-la-luna.wav,,,,,,,,,,,,,,,,,,,,,,349.7034,351.5238,0,0,1.2989,,0,68,68,29,1,1,cuban,,,,,,,,,,,,,,,,,,,,,,,,,,,,,,,,,,,,,,,,,,,,,,,,,,,,,,,,
,,,,,,,,,5ca25f7048f78e0018fdac10,Spanish,13 or older,"no, only English or Spanish",no,2025-08-12_14h50.57.359,empathy_intonation_perc,2024.2.4,Win32,59.88023952,5ca25f7048f78e0018fdac10,687ed1b7e638a4cbf2f02089,689b8cf6f602fdab42d94437,,,,,,,,,,,,,58,0,,./stim/wavs/mexican_match_declarative-broad-focus_Daniel-iba-a-Bolivia.wav,,,,,,,,,,,,,,,,,,,,,,351.5245,353.4518,0,1,1.3991,,0,69,69,57,1,0,mexican,,,,,,,,,,,,,,,,,,,,,,,,,,,,,,,,,,,,,,,,,,,,,,,,,,,,,,,,
,,,,,,,,,5ca25f7048f78e0018fdac10,Spanish,13 or older,"no, only English or Spanish",no,2025-08-12_14h50.57.359,empathy_intonation_perc,2024.2.4,Win32,59.88023952,5ca25f7048f78e0018fdac10,687ed1b7e638a4cbf2f02089,689b8cf6f602fdab42d94437,,,,,,,,,,,,,68,0,,./stim/wavs/puertorican_match_declarative-broad-focus_Maria-bebe-el-vino.wav,,,,,,,,,,,,,,,,,,,,,,353.4525,355.4176,0,1,1.4433,,0,70,70,67,1,0,puertorican,,,,,,,,,,,,,,,,,,,,,,,,,,,,,,,,,,,,,,,,,,,,,,,,,,,,,,,,
,,,,,,,,,5ca25f7048f78e0018fdac10,Spanish,13 or older,"no, only English or Spanish",no,2025-08-12_14h50.57.359,empathy_intonation_perc,2024.2.4,Win32,59.88023952,5ca25f7048f78e0018fdac10,687ed1b7e638a4cbf2f02089,689b8cf6f602fdab42d94437,,,,,,,,,,,,,21,1,,./stim/wavs/puertorican_match_interrogative-total-yn_David-leia-el-libro.wav,,,,,,,,,,,,,,,,,,,,,,355.4183,357.6,0,0,1.6473,,0,71,71,20,1,1,puertorican,,,,,,,,,,,,,,,,,,,,,,,,,,,,,,,,,,,,,,,,,,,,,,,,,,,,,,,,
,,,,,,,,,5ca25f7048f78e0018fdac10,Spanish,13 or older,"no, only English or Spanish",no,2025-08-12_14h50.57.359,empathy_intonation_perc,2024.2.4,Win32,59.88023952,5ca25f7048f78e0018fdac10,687ed1b7e638a4cbf2f02089,689b8cf6f602fdab42d94437,,,,,,,,,,,,,87,0,,./stim/wavs/puertorican_mismatch_declarative-broad-focus_La-maestra-vive-en-Paris.wav,,,,,,,,,,,,,,,,,,,,,,357.601,359.7491,0,1,1.6085,,0,72,72,86,1,0,puertorican,,,,,,,,,,,,,,,,,,,,,,,,,,,,,,,,,,,,,,,,,,,,,,,,,,,,,,,,
,,,,,,,,,5ca25f7048f78e0018fdac10,Spanish,13 or older,"no, only English or Spanish",no,2025-08-12_14h50.57.359,empathy_intonation_perc,2024.2.4,Win32,59.88023952,5ca25f7048f78e0018fdac10,687ed1b7e638a4cbf2f02089,689b8cf6f602fdab42d94437,,,,,,,,,,,,,63,0,,./stim/wavs/puertorican_match_declarative-broad-focus_Ana-lleva-el-abrigo.wav,,,,,,,,,,,,,,,,,,,,,,359.75,361.9313,0,1,1.6583,,0,73,73,62,1,0,puertorican,,,,,,,,,,,,,,,,,,,,,,,,,,,,,,,,,,,,,,,,,,,,,,,,,,,,,,,,
,,,,,,,,,5ca25f7048f78e0018fdac10,Spanish,13 or older,"no, only English or Spanish",no,2025-08-12_14h50.57.359,empathy_intonation_perc,2024.2.4,Win32,59.88023952,5ca25f7048f78e0018fdac10,687ed1b7e638a4cbf2f02089,689b8cf6f602fdab42d94437,,,,,,,,,,,,,16,1,,./stim/wavs/mexican_match_interrogative-total-yn_Emilio-ama-la-marcha.wav,,,,,,,,,,,,,,,,,,,,,,361.9324,363.9643,1,1,1.5075,,0,74,74,15,1,0,mexican,,,,,,,,,,,,,,,,,,,,,,,,,,,,,,,,,,,,,,,,,,,,,,,,,,,,,,,,
,,,,,,,,,5ca25f7048f78e0018fdac10,Spanish,13 or older,"no, only English or Spanish",no,2025-08-12_14h50.57.359,empathy_intonation_perc,2024.2.4,Win32,59.88023952,5ca25f7048f78e0018fdac10,687ed1b7e638a4cbf2f02089,689b8cf6f602fdab42d94437,,,,,,,,,,,,,83,0,,./stim/wavs/mexican_mismatch_declarative-broad-focus_Mi-tia-odia-la-lluvia.wav,,,,,,,,,,,,,,,,,,,,,,363.9653,366.0137,0,1,1.5183,,0,75,75,82,1,0,mexican,,,,,,,,,,,,,,,,,,,,,,,,,,,,,,,,,,,,,,,,,,,,,,,,,,,,,,,,
,,,,,,,,,5ca25f7048f78e0018fdac10,Spanish,13 or older,"no, only English or Spanish",no,2025-08-12_14h50.57.359,empathy_intonation_perc,2024.2.4,Win32,59.88023952,5ca25f7048f78e0018fdac10,687ed1b7e638a4cbf2f02089,689b8cf6f602fdab42d94437,,,,,,,,,,,,,10,1,,./stim/wavs/cuban_match_interrogative-total-yn_Maria-bebe-el-vino.wav,,,,,,,,,,,,,,,,,,,,,,366.0145,368.4123,0,0,1.8729,,0,76,76,9,1,1,cuban,,,,,,,,,,,,,,,,,,,,,,,,,,,,,,,,,,,,,,,,,,,,,,,,,,,,,,,,
,,,,,,,,,5ca25f7048f78e0018fdac10,Spanish,13 or older,"no, only English or Spanish",no,2025-08-12_14h50.57.359,empathy_intonation_perc,2024.2.4,Win32,59.88023952,5ca25f7048f78e0018fdac10,687ed1b7e638a4cbf2f02089,689b8cf6f602fdab42d94437,,,,,,,,,,,,,6,1,,./stim/wavs/castilian_match_interrogative-total-yn_Marta-abre-el-regalo.wav,,,,,,,,,,,,,,,,,,,,,,368.4132,370.4459,1,1,1.5131,,0,77,77,5,1,0,castilian,,,,,,,,,,,,,,,,,,,,,,,,,,,,,,,,,,,,,,,,,,,,,,,,,,,,,,,,
,,,,,,,,,5ca25f7048f78e0018fdac10,Spanish,13 or older,"no, only English or Spanish",no,2025-08-12_14h50.57.359,empathy_intonation_perc,2024.2.4,Win32,59.88023952,5ca25f7048f78e0018fdac10,687ed1b7e638a4cbf2f02089,689b8cf6f602fdab42d94437,,,,,,,,,,,,,8,1,,./stim/wavs/cuban_match_interrogative-total-yn_Daniel-iba-a-Bolivia.wav,,,,,,,,,,,,,,,,,,,,,,370.447,372.429,0,0,1.4544,,0,78,78,7,1,1,cuban,,,,,,,,,,,,,,,,,,,,,,,,,,,,,,,,,,,,,,,,,,,,,,,,,,,,,,,,
,,,,,,,,,5ca25f7048f78e0018fdac10,Spanish,13 or older,"no, only English or Spanish",no,2025-08-12_14h50.57.359,empathy_intonation_perc,2024.2.4,Win32,59.88023952,5ca25f7048f78e0018fdac10,687ed1b7e638a4cbf2f02089,689b8cf6f602fdab42d94437,,,,,,,,,,,,,47,0,,./stim/wavs/castilian_match_declarative-broad-focus_Manuela-vende-el-carro.wav,,,,,,,,,,,,,,,,,,,,,,372.4298,374.6773,0,1,1.7244,,0,79,79,46,1,0,castilian,,,,,,,,,,,,,,,,,,,,,,,,,,,,,,,,,,,,,,,,,,,,,,,,,,,,,,,,
,,,,,,,,,5ca25f7048f78e0018fdac10,Spanish,13 or older,"no, only English or Spanish",no,2025-08-12_14h50.57.359,empathy_intonation_perc,2024.2.4,Win32,59.88023952,5ca25f7048f78e0018fdac10,687ed1b7e638a4cbf2f02089,689b8cf6f602fdab42d94437,,,,,,,,,,,,,84,0,,./stim/wavs/puertorican_mismatch_declarative-broad-focus_El-bebe-comia-muy-bien.wav,,,,,,,,,,,,,,,,,,,,,,374.6785,376.6436,0,1,1.4436,,0,80,80,83,1,0,puertorican,,,,,,,,,,,,,,,,,,,,,,,,,,,,,,,,,,,,,,,,,,,,,,,,,,,,,,,,
,,,,,,,,,5ca25f7048f78e0018fdac10,Spanish,13 or older,"no, only English or Spanish",no,2025-08-12_14h50.57.359,empathy_intonation_perc,2024.2.4,Win32,59.88023952,5ca25f7048f78e0018fdac10,687ed1b7e638a4cbf2f02089,689b8cf6f602fdab42d94437,,,,,,,,,,,,,77,0,,./stim/wavs/cuban_mismatch_declarative-broad-focus_Mi-novio-viene-del-lago.wav,,,,,,,,,,,,,,,,,,,,,,376.6445,379.0429,0,1,1.8664,,0,81,81,76,1,0,cuban,,,,,,,,,,,,,,,,,,,,,,,,,,,,,,,,,,,,,,,,,,,,,,,,,,,,,,,,
,,,,,,,,,5ca25f7048f78e0018fdac10,Spanish,13 or older,"no, only English or Spanish",no,2025-08-12_14h50.57.359,empathy_intonation_perc,2024.2.4,Win32,59.88023952,5ca25f7048f78e0018fdac10,687ed1b7e638a4cbf2f02089,689b8cf6f602fdab42d94437,,,,,,,,,,,,,81,0,,./stim/wavs/mexican_mismatch_declarative-broad-focus_La-maestra-vive-en-Paris.wav,,,,,,,,,,,,,,,,,,,,,,379.0438,381.2581,0,1,1.6989,,0,82,82,80,1,0,mexican,,,,,,,,,,,,,,,,,,,,,,,,,,,,,,,,,,,,,,,,,,,,,,,,,,,,,,,,
,,,,,,,,,5ca25f7048f78e0018fdac10,Spanish,13 or older,"no, only English or Spanish",no,2025-08-12_14h50.57.359,empathy_intonation_perc,2024.2.4,Win32,59.88023952,5ca25f7048f78e0018fdac10,687ed1b7e638a4cbf2f02089,689b8cf6f602fdab42d94437,,,,,,,,,,,,,82,0,,./stim/wavs/mexican_mismatch_declarative-broad-focus_Mi-novio-viene-del-lago.wav,,,,,,,,,,,,,,,,,,,,,,381.2593,383.1583,0,1,1.3704,,0,83,83,81,1,0,mexican,,,,,,,,,,,,,,,,,,,,,,,,,,,,,,,,,,,,,,,,,,,,,,,,,,,,,,,,
,,,,,,,,,5ca25f7048f78e0018fdac10,Spanish,13 or older,"no, only English or Spanish",no,2025-08-12_14h50.57.359,empathy_intonation_perc,2024.2.4,Win32,59.88023952,5ca25f7048f78e0018fdac10,687ed1b7e638a4cbf2f02089,689b8cf6f602fdab42d94437,,,,,,,,,,,,,49,0,,./stim/wavs/castilian_match_declarative-broad-focus_Mariano-habla-del-tiempo.wav,,,,,,,,,,,,,,,,,,,,,,383.159,385.1906,1,0,1.4988,,0,84,84,48,1,0,castilian,,,,,,,,,,,,,,,,,,,,,,,,,,,,,,,,,,,,,,,,,,,,,,,,,,,,,,,,
,,,,,,,,,5ca25f7048f78e0018fdac10,Spanish,13 or older,"no, only English or Spanish",no,2025-08-12_14h50.57.359,empathy_intonation_perc,2024.2.4,Win32,59.88023952,5ca25f7048f78e0018fdac10,687ed1b7e638a4cbf2f02089,689b8cf6f602fdab42d94437,,,,,,,,,,,,,69,0,,./stim/wavs/castilian_mismatch_declarative-broad-focus_El-nino-oye-el-rio.wav,,,,,,,,,,,,,,,,,,,,,,385.1915,387.4064,0,1,1.6784,,0,85,85,68,1,0,castilian,,,,,,,,,,,,,,,,,,,,,,,,,,,,,,,,,,,,,,,,,,,,,,,,,,,,,,,,
,,,,,,,,,5ca25f7048f78e0018fdac10,Spanish,13 or older,"no, only English or Spanish",no,2025-08-12_14h50.57.359,empathy_intonation_perc,2024.2.4,Win32,59.88023952,5ca25f7048f78e0018fdac10,687ed1b7e638a4cbf2f02089,689b8cf6f602fdab42d94437,,,,,,,,,,,,,55,0,,./stim/wavs/cuban_match_declarative-broad-focus_Mariano-habla-del-tiempo.wav,,,,,,,,,,,,,,,,,,,,,,387.4075,389.5061,0,1,1.5738,,0,86,86,54,1,0,cuban,,,,,,,,,,,,,,,,,,,,,,,,,,,,,,,,,,,,,,,,,,,,,,,,,,,,,,,,
,,,,,,,,,5ca25f7048f78e0018fdac10,Spanish,13 or older,"no, only English or Spanish",no,2025-08-12_14h50.57.359,empathy_intonation_perc,2024.2.4,Win32,59.88023952,5ca25f7048f78e0018fdac10,687ed1b7e638a4cbf2f02089,689b8cf6f602fdab42d94437,,,,,,,,,,,,,33,1,,./stim/wavs/cuban_mismatch_interrogative-total-yn_Mi-novio-viene-del-lago.wav,,,,,,,,,,,,,,,,,,,,,,389.5071,391.6383,0,0,1.5995,,0,87,87,32,1,1,cuban,,,,,,,,,,,,,,,,,,,,,,,,,,,,,,,,,,,,,,,,,,,,,,,,,,,,,,,,
,,,,,,,"Great! Now we will move on. The next task consists of about 60 trials, in each of which you will see a string of letters. 
  
  Your task is to decide whether this is a real Spanish word or not.", (press the spacebar to continue),5ca25f7048f78e0018fdac10,Spanish,13 or older,"no, only English or Spanish",no,2025-08-12_14h50.57.359,empathy_intonation_perc,2024.2.4,Win32,59.88023952,5ca25f7048f78e0018fdac10,687ed1b7e638a4cbf2f02089,689b8cf6f602fdab42d94437,,,,,,,,,,,,,,,,,,,,,,,,,,,,,,,,,,,,,,,,,,,,,,,,,,,391.6489,396.6878,0,0,0,0,1,,,,,,,,,,,,,,,,,,,,,,,,,,,,,,,,,,,,,,,,,,,,,,,,,
,,,,,,,"If you think it is an existing Spanish word, you type '1' (for 'REAL'), and if you think it is not an existing Spanish word, you type '0' (for 'FAKE').", (press the spacebar to continue),5ca25f7048f78e0018fdac10,Spanish,13 or older,"no, only English or Spanish",no,2025-08-12_14h50.57.359,empathy_intonation_perc,2024.2.4,Win32,59.88023952,5ca25f7048f78e0018fdac10,687ed1b7e638a4cbf2f02089,689b8cf6f602fdab42d94437,,,,,,,,,,,,,,,,,,,,,,,,,,,,,,,,,,,,,,,,,,,,,,,,,,,396.6906,398.8197,0,1,1,1,1,,,,,,,,,,,,,,,,,,,,,,,,,,,,,,,,,,,,,,,,,,,,,,,,,
,,,,,,,"If you are sure that the word exists, even though you don’t know its exact meaning, you may still respond '1' (REAL). 
  
  But if you are not sure if it is an existing word, you should respond '0' (FAKE).
  
  Let's do a practice round...", (press the spacebar to continue),5ca25f7048f78e0018fdac10,Spanish,13 or older,"no, only English or Spanish",no,2025-08-12_14h50.57.359,empathy_intonation_perc,2024.2.4,Win32,59.88023952,5ca25f7048f78e0018fdac10,687ed1b7e638a4cbf2f02089,689b8cf6f602fdab42d94437,,,,,,,,,,,,,,,,,,,,,,,,,,,,,,,,,,,,,,,,,,,,,,,,,,,398.8226,400.5357,0,2,2,2,1,,,,,,,,,,,,,,,,,,,,,,,,,,,,,,,,,,,,,,,,,,,,,,,,,
,,,,,,,,,5ca25f7048f78e0018fdac10,Spanish,13 or older,"no, only English or Spanish",no,2025-08-12_14h50.57.359,empathy_intonation_perc,2024.2.4,Win32,59.88023952,5ca25f7048f78e0018fdac10,687ed1b7e638a4cbf2f02089,689b8cf6f602fdab42d94437,,,,,,,,,,,,,,0,,,,,,,,,,,,,,,,,,,,,,,,,,,,,,,,,,,,,,,,,,,,400.5438,402.5741,1,0,1.4998,,402.5745,403.5685,0,0,0,0,1,0,depiste,REAL,FAKE,,,,,,,,,,,,,,,,,,,,,,,,,,,,,,,,
,,,,,,,,,5ca25f7048f78e0018fdac10,Spanish,13 or older,"no, only English or Spanish",no,2025-08-12_14h50.57.359,empathy_intonation_perc,2024.2.4,Win32,59.88023952,5ca25f7048f78e0018fdac10,687ed1b7e638a4cbf2f02089,689b8cf6f602fdab42d94437,,,,,,,,,,,,,,1,,,,,,,,,,,,,,,,,,,,,,,,,,,,,,,,,,,,,,,,,,,,403.5705,404.8511,1,1,0.739,,404.8521,405.8506,0,1,1,1,1,0,sí,REAL,FAKE,,,,,,,,,,,,,,,,,,,,,,,,,,,,,,,,
,,,,,,,,,5ca25f7048f78e0018fdac10,Spanish,13 or older,"no, only English or Spanish",no,2025-08-12_14h50.57.359,empathy_intonation_perc,2024.2.4,Win32,59.88023952,5ca25f7048f78e0018fdac10,687ed1b7e638a4cbf2f02089,689b8cf6f602fdab42d94437,,,,,,,,,,,,,,0,,,,,,,,,,,,,,,,,,,,,,,,,,,,,,,,,,,,,,,,,,,,405.8527,407.2667,0,1,0.868,,407.2669,408.2659,0,2,2,2,1,0,coné,REAL,FAKE,,,,,,,,,,,,,,,,,,,,,,,,,,,,,,,,
,,,,,,,,,5ca25f7048f78e0018fdac10,Spanish,13 or older,"no, only English or Spanish",no,2025-08-12_14h50.57.359,empathy_intonation_perc,2024.2.4,Win32,59.88023952,5ca25f7048f78e0018fdac10,687ed1b7e638a4cbf2f02089,689b8cf6f602fdab42d94437,,,,,,,,,,,,,,0,,,,,,,,,,,,,,,,,,,,,,,,,,,,,,,,,,,,,,,,,,,,408.2679,409.6322,1,0,0.8278,,409.6333,410.6326,0,3,3,3,1,0,calpar,REAL,FAKE,,,,,,,,,,,,,,,,,,,,,,,,,,,,,,,,
,,,,,,,,,5ca25f7048f78e0018fdac10,Spanish,13 or older,"no, only English or Spanish",no,2025-08-12_14h50.57.359,empathy_intonation_perc,2024.2.4,Win32,59.88023952,5ca25f7048f78e0018fdac10,687ed1b7e638a4cbf2f02089,689b8cf6f602fdab42d94437,,,,,,,,,,,,,,0,,,,,,,,,,,,,,,,,,,,,,,,,,,,,,,,,,,,,,,,,,,,410.6347,412.3813,0,1,1.2074,,412.3824,413.3815,0,4,4,4,1,0,joten,REAL,FAKE,,,,,,,,,,,,,,,,,,,,,,,,,,,,,,,,
,,,,,,,,,5ca25f7048f78e0018fdac10,Spanish,13 or older,"no, only English or Spanish",no,2025-08-12_14h50.57.359,empathy_intonation_perc,2024.2.4,Win32,59.88023952,5ca25f7048f78e0018fdac10,687ed1b7e638a4cbf2f02089,689b8cf6f602fdab42d94437,,,,,,,,,,,,,,1,,,,,,,,,,,,,,,,,,,,,,,,,,,,,,,,,,,,,,,,,,,,413.3829,415.2645,1,1,1.3342,,415.2647,416.2663,0,5,5,5,1,0,sacapuntas,REAL,FAKE,,,,,,,,,,,,,,,,,,,,,,,,,,,,,,,,
,,,,,,,,,5ca25f7048f78e0018fdac10,Spanish,13 or older,"no, only English or Spanish",no,2025-08-12_14h50.57.359,empathy_intonation_perc,2024.2.4,Win32,59.88023952,5ca25f7048f78e0018fdac10,687ed1b7e638a4cbf2f02089,689b8cf6f602fdab42d94437,,,,,,,,,,,,,,0,,,,,,,,,,,,,,,,,,,,,,,,,,,,,,,,,,,,,,,,,,,,416.2678,418.1298,1,0,1.3177,,418.1308,419.1304,0,6,6,6,1,0,priba,REAL,FAKE,,,,,,,,,,,,,,,,,,,,,,,,,,,,,,,,
,,,,,,,,,5ca25f7048f78e0018fdac10,Spanish,13 or older,"no, only English or Spanish",no,2025-08-12_14h50.57.359,empathy_intonation_perc,2024.2.4,Win32,59.88023952,5ca25f7048f78e0018fdac10,687ed1b7e638a4cbf2f02089,689b8cf6f602fdab42d94437,,,,,,,,,,,,,,0,,,,,,,,,,,,,,,,,,,,,,,,,,,,,,,,,,,,,,,,,,,,419.1331,420.5623,1,0,0.8866,,420.5624,421.5617,0,7,7,7,1,0,pelasula,REAL,FAKE,,,,,,,,,,,,,,,,,,,,,,,,,,,,,,,,
,,,,,,,,,5ca25f7048f78e0018fdac10,Spanish,13 or older,"no, only English or Spanish",no,2025-08-12_14h50.57.359,empathy_intonation_perc,2024.2.4,Win32,59.88023952,5ca25f7048f78e0018fdac10,687ed1b7e638a4cbf2f02089,689b8cf6f602fdab42d94437,,,,,,,,,,,,,,1,,,,,,,,,,,,,,,,,,,,,,,,,,,,,,,,,,,,,,,,,,,,421.5631,422.7283,1,1,0.6236,,422.7293,423.7277,0,8,8,8,1,0,bien,REAL,FAKE,,,,,,,,,,,,,,,,,,,,,,,,,,,,,,,,
,,,,,,,,,5ca25f7048f78e0018fdac10,Spanish,13 or older,"no, only English or Spanish",no,2025-08-12_14h50.57.359,empathy_intonation_perc,2024.2.4,Win32,59.88023952,5ca25f7048f78e0018fdac10,687ed1b7e638a4cbf2f02089,689b8cf6f602fdab42d94437,,,,,,,,,,,,,,1,,,,,,,,,,,,,,,,,,,,,,,,,,,,,,,,,,,,,,,,,,,,423.7291,424.8609,1,1,0.5845,,424.8612,425.8605,0,9,9,9,1,0,casa,REAL,FAKE,,,,,,,,,,,,,,,,,,,,,,,,,,,,,,,,
,,,,,,,,,5ca25f7048f78e0018fdac10,Spanish,13 or older,"no, only English or Spanish",no,2025-08-12_14h50.57.359,empathy_intonation_perc,2024.2.4,Win32,59.88023952,5ca25f7048f78e0018fdac10,687ed1b7e638a4cbf2f02089,689b8cf6f602fdab42d94437,,,,,,,,,,,,,,0,,,,,,,,,,,,,,,,,,,,,,,,,,,,,,,,,,,,,,,,,,,,425.8621,427.0765,0,1,0.6681,,427.0767,428.075,0,10,10,10,1,0,lejo,REAL,FAKE,,,,,,,,,,,,,,,,,,,,,,,,,,,,,,,,
,,,,,,,,,5ca25f7048f78e0018fdac10,Spanish,13 or older,"no, only English or Spanish",no,2025-08-12_14h50.57.359,empathy_intonation_perc,2024.2.4,Win32,59.88023952,5ca25f7048f78e0018fdac10,687ed1b7e638a4cbf2f02089,689b8cf6f602fdab42d94437,,,,,,,,,,,,,,0,,,,,,,,,,,,,,,,,,,,,,,,,,,,,,,,,,,,,,,,,,,,428.0765,429.9143,0,1,1.3165,,429.9143,430.9131,0,11,11,11,1,0,pretantas,REAL,FAKE,,,,,,,,,,,,,,,,,,,,,,,,,,,,,,,,
,,,,,,,,,5ca25f7048f78e0018fdac10,Spanish,13 or older,"no, only English or Spanish",no,2025-08-12_14h50.57.359,empathy_intonation_perc,2024.2.4,Win32,59.88023952,5ca25f7048f78e0018fdac10,687ed1b7e638a4cbf2f02089,689b8cf6f602fdab42d94437,,,,,,,,,,,,,,,,,,,,,,,,,,,,,,,,,,,,,,,,,,,,,,,,,,,,,,,,,,,,,,,,,,,,,,,,,,,430.9137,432.1088,,,,,,,,,,,,,,,,,,,,,,,,,,,,,,
,,,,,,,,,5ca25f7048f78e0018fdac10,Spanish,13 or older,"no, only English or Spanish",no,2025-08-12_14h50.57.359,empathy_intonation_perc,2024.2.4,Win32,59.88023952,5ca25f7048f78e0018fdac10,687ed1b7e638a4cbf2f02089,689b8cf6f602fdab42d94437,,,,,,,,,,,,,,1,,,,,,,,,,,,,,,,,,,,,,,,,,,,,,,,,,,,,,,,,,,,,,,,,,,,,,,,,91,click the 1 key.,,,,,432.1239,433.7083,1,1,1.0521,,0,0,0,90,1,REAL,FAKE,,,,,,,,,,,,,,,,,
,,,,,,,,,5ca25f7048f78e0018fdac10,Spanish,13 or older,"no, only English or Spanish",no,2025-08-12_14h50.57.359,empathy_intonation_perc,2024.2.4,Win32,59.88023952,5ca25f7048f78e0018fdac10,687ed1b7e638a4cbf2f02089,689b8cf6f602fdab42d94437,,,,,,,,,,,,,,1,,,,,,,,,,,,,,,,,,,,,,,,,,,,,,,,,,,,,,,,,,,,,,,,,,,,,,,,,6,tergiversar,,,,,433.7103,435.4064,0,0,1.1603,,0,1,1,5,1,REAL,FAKE,,,,,,,,,,,,,,,,,
,,,,,,,,,5ca25f7048f78e0018fdac10,Spanish,13 or older,"no, only English or Spanish",no,2025-08-12_14h50.57.359,empathy_intonation_perc,2024.2.4,Win32,59.88023952,5ca25f7048f78e0018fdac10,687ed1b7e638a4cbf2f02089,689b8cf6f602fdab42d94437,,,,,,,,,,,,,,0,,,,,,,,,,,,,,,,,,,,,,,,,,,,,,,,,,,,,,,,,,,,,,,,,,,,,,,,,33,pauca,,,,,435.4081,437.1066,0,1,1.1565,,0,2,2,32,1,REAL,FAKE,,,,,,,,,,,,,,,,,
,,,,,,,,,5ca25f7048f78e0018fdac10,Spanish,13 or older,"no, only English or Spanish",no,2025-08-12_14h50.57.359,empathy_intonation_perc,2024.2.4,Win32,59.88023952,5ca25f7048f78e0018fdac10,687ed1b7e638a4cbf2f02089,689b8cf6f602fdab42d94437,,,,,,,,,,,,,,1,,,,,,,,,,,,,,,,,,,,,,,,,,,,,,,,,,,,,,,,,,,,,,,,,,,,,,,,,64,orgulloso,,,,,437.1082,438.6281,1,1,0.9839,,0,3,3,63,1,REAL,FAKE,,,,,,,,,,,,,,,,,
,,,,,,,,,5ca25f7048f78e0018fdac10,Spanish,13 or older,"no, only English or Spanish",no,2025-08-12_14h50.57.359,empathy_intonation_perc,2024.2.4,Win32,59.88023952,5ca25f7048f78e0018fdac10,687ed1b7e638a4cbf2f02089,689b8cf6f602fdab42d94437,,,,,,,,,,,,,,0,,,,,,,,,,,,,,,,,,,,,,,,,,,,,,,,,,,,,,,,,,,,,,,,,,,,,,,,,66,hacido,,,,,438.6292,439.9554,1,0,0.7854,,0,4,4,65,1,REAL,FAKE,,,,,,,,,,,,,,,,,
,,,,,,,,,5ca25f7048f78e0018fdac10,Spanish,13 or older,"no, only English or Spanish",no,2025-08-12_14h50.57.359,empathy_intonation_perc,2024.2.4,Win32,59.88023952,5ca25f7048f78e0018fdac10,687ed1b7e638a4cbf2f02089,689b8cf6f602fdab42d94437,,,,,,,,,,,,,,0,,,,,,,,,,,,,,,,,,,,,,,,,,,,,,,,,,,,,,,,,,,,,,,,,,,,,,,,,18,arsa,,,,,439.9567,441.8377,0,1,1.3438,,0,5,5,17,1,REAL,FAKE,,,,,,,,,,,,,,,,,
,,,,,,,,,5ca25f7048f78e0018fdac10,Spanish,13 or older,"no, only English or Spanish",no,2025-08-12_14h50.57.359,empathy_intonation_perc,2024.2.4,Win32,59.88023952,5ca25f7048f78e0018fdac10,687ed1b7e638a4cbf2f02089,689b8cf6f602fdab42d94437,,,,,,,,,,,,,,1,,,,,,,,,,,,,,,,,,,,,,,,,,,,,,,,,,,,,,,,,,,,,,,,,,,,,,,,,51,candado,,,,,441.8394,444.071,1,1,1.7024,,0,6,6,50,1,REAL,FAKE,,,,,,,,,,,,,,,,,
,,,,,,,,,5ca25f7048f78e0018fdac10,Spanish,13 or older,"no, only English or Spanish",no,2025-08-12_14h50.57.359,empathy_intonation_perc,2024.2.4,Win32,59.88023952,5ca25f7048f78e0018fdac10,687ed1b7e638a4cbf2f02089,689b8cf6f602fdab42d94437,,,,,,,,,,,,,,1,,,,,,,,,,,,,,,,,,,,,,,,,,,,,,,,,,,,,,,,,,,,,,,,,,,,,,,,,14,yunque,,,,,444.0723,445.2205,0,0,0.6048,,0,7,7,13,1,REAL,FAKE,,,,,,,,,,,,,,,,,
,,,,,,,,,5ca25f7048f78e0018fdac10,Spanish,13 or older,"no, only English or Spanish",no,2025-08-12_14h50.57.359,empathy_intonation_perc,2024.2.4,Win32,59.88023952,5ca25f7048f78e0018fdac10,687ed1b7e638a4cbf2f02089,689b8cf6f602fdab42d94437,,,,,,,,,,,,,,1,,,,,,,,,,,,,,,,,,,,,,,,,,,,,,,,,,,,,,,,,,,,,,,,,,,,,,,,,28,merodear,,,,,445.2218,446.6909,0,0,0.9318,,0,8,8,27,1,REAL,FAKE,,,,,,,,,,,,,,,,,
,,,,,,,,,5ca25f7048f78e0018fdac10,Spanish,13 or older,"no, only English or Spanish",no,2025-08-12_14h50.57.359,empathy_intonation_perc,2024.2.4,Win32,59.88023952,5ca25f7048f78e0018fdac10,687ed1b7e638a4cbf2f02089,689b8cf6f602fdab42d94437,,,,,,,,,,,,,,1,,,,,,,,,,,,,,,,,,,,,,,,,,,,,,,,,,,,,,,,,,,,,,,,,,,,,,,,,57,tacaño,,,,,446.6929,448.0196,1,1,0.7887,,0,9,9,56,1,REAL,FAKE,,,,,,,,,,,,,,,,,
,,,,,,,,,5ca25f7048f78e0018fdac10,Spanish,13 or older,"no, only English or Spanish",no,2025-08-12_14h50.57.359,empathy_intonation_perc,2024.2.4,Win32,59.88023952,5ca25f7048f78e0018fdac10,687ed1b7e638a4cbf2f02089,689b8cf6f602fdab42d94437,,,,,,,,,,,,,,1,,,,,,,,,,,,,,,,,,,,,,,,,,,,,,,,,,,,,,,,,,,,,,,,,,,,,,,,,76,atar,,,,,448.021,449.0519,0,0,0.4903,,0,10,10,75,1,REAL,FAKE,,,,,,,,,,,,,,,,,
,,,,,,,,,5ca25f7048f78e0018fdac10,Spanish,13 or older,"no, only English or Spanish",no,2025-08-12_14h50.57.359,empathy_intonation_perc,2024.2.4,Win32,59.88023952,5ca25f7048f78e0018fdac10,687ed1b7e638a4cbf2f02089,689b8cf6f602fdab42d94437,,,,,,,,,,,,,,1,,,,,,,,,,,,,,,,,,,,,,,,,,,,,,,,,,,,,,,,,,,,,,,,,,,,,,,,,49,ganar,,,,,449.0535,450.4041,0,0,0.8137,,0,11,11,48,1,REAL,FAKE,,,,,,,,,,,,,,,,,
,,,,,,,,,5ca25f7048f78e0018fdac10,Spanish,13 or older,"no, only English or Spanish",no,2025-08-12_14h50.57.359,empathy_intonation_perc,2024.2.4,Win32,59.88023952,5ca25f7048f78e0018fdac10,687ed1b7e638a4cbf2f02089,689b8cf6f602fdab42d94437,,,,,,,,,,,,,,1,,,,,,,,,,,,,,,,,,,,,,,,,,,,,,,,,,,,,,,,,,,,,,,,,,,,,,,,,73,hervidor,,,,,450.4057,451.6901,0,0,0.7668,,0,12,12,72,1,REAL,FAKE,,,,,,,,,,,,,,,,,
,,,,,,,,,5ca25f7048f78e0018fdac10,Spanish,13 or older,"no, only English or Spanish",no,2025-08-12_14h50.57.359,empathy_intonation_perc,2024.2.4,Win32,59.88023952,5ca25f7048f78e0018fdac10,687ed1b7e638a4cbf2f02089,689b8cf6f602fdab42d94437,,,,,,,,,,,,,,1,,,,,,,,,,,,,,,,,,,,,,,,,,,,,,,,,,,,,,,,,,,,,,,,,,,,,,,,,59,besar,,,,,451.6914,453.0507,1,1,0.8434,,0,13,13,58,1,REAL,FAKE,,,,,,,,,,,,,,,,,
,,,,,,,,,5ca25f7048f78e0018fdac10,Spanish,13 or older,"no, only English or Spanish",no,2025-08-12_14h50.57.359,empathy_intonation_perc,2024.2.4,Win32,59.88023952,5ca25f7048f78e0018fdac10,687ed1b7e638a4cbf2f02089,689b8cf6f602fdab42d94437,,,,,,,,,,,,,,1,,,,,,,,,,,,,,,,,,,,,,,,,,,,,,,,,,,,,,,,,,,,,,,,,,,,,,,,,78,frondoso,,,,,453.0521,455.2999,0,0,1.7101,,0,14,14,77,1,REAL,FAKE,,,,,,,,,,,,,,,,,
,,,,,,,,,5ca25f7048f78e0018fdac10,Spanish,13 or older,"no, only English or Spanish",no,2025-08-12_14h50.57.359,empathy_intonation_perc,2024.2.4,Win32,59.88023952,5ca25f7048f78e0018fdac10,687ed1b7e638a4cbf2f02089,689b8cf6f602fdab42d94437,,,,,,,,,,,,,,0,,,,,,,,,,,,,,,,,,,,,,,,,,,,,,,,,,,,,,,,,,,,,,,,,,,,,,,,,4,batillón,,,,,455.3019,456.9498,0,1,1.1172,,0,15,15,3,1,REAL,FAKE,,,,,,,,,,,,,,,,,
,,,,,,,,,5ca25f7048f78e0018fdac10,Spanish,13 or older,"no, only English or Spanish",no,2025-08-12_14h50.57.359,empathy_intonation_perc,2024.2.4,Win32,59.88023952,5ca25f7048f78e0018fdac10,687ed1b7e638a4cbf2f02089,689b8cf6f602fdab42d94437,,,,,,,,,,,,,,1,,,,,,,,,,,,,,,,,,,,,,,,,,,,,,,,,,,,,,,,,,,,,,,,,,,,,,,,,46,martillo,,,,,456.9515,458.2324,1,1,0.7421,,0,16,16,45,1,REAL,FAKE,,,,,,,,,,,,,,,,,
,,,,,,,,,5ca25f7048f78e0018fdac10,Spanish,13 or older,"no, only English or Spanish",no,2025-08-12_14h50.57.359,empathy_intonation_perc,2024.2.4,Win32,59.88023952,5ca25f7048f78e0018fdac10,687ed1b7e638a4cbf2f02089,689b8cf6f602fdab42d94437,,,,,,,,,,,,,,1,,,,,,,,,,,,,,,,,,,,,,,,,,,,,,,,,,,,,,,,,,,,,,,,,,,,,,,,,20,ávido,,,,,458.2345,459.7648,1,1,0.9836,,0,17,17,19,1,REAL,FAKE,,,,,,,,,,,,,,,,,
,,,,,,,,,5ca25f7048f78e0018fdac10,Spanish,13 or older,"no, only English or Spanish",no,2025-08-12_14h50.57.359,empathy_intonation_perc,2024.2.4,Win32,59.88023952,5ca25f7048f78e0018fdac10,687ed1b7e638a4cbf2f02089,689b8cf6f602fdab42d94437,,,,,,,,,,,,,,1,,,,,,,,,,,,,,,,,,,,,,,,,,,,,,,,,,,,,,,,,,,,,,,,,,,,,,,,,2,pellizcar,,,,,459.7672,460.9318,0,0,0.6238,,0,18,18,1,1,REAL,FAKE,,,,,,,,,,,,,,,,,
,,,,,,,,,5ca25f7048f78e0018fdac10,Spanish,13 or older,"no, only English or Spanish",no,2025-08-12_14h50.57.359,empathy_intonation_perc,2024.2.4,Win32,59.88023952,5ca25f7048f78e0018fdac10,687ed1b7e638a4cbf2f02089,689b8cf6f602fdab42d94437,,,,,,,,,,,,,,1,,,,,,,,,,,,,,,,,,,,,,,,,,,,,,,,,,,,,,,,,,,,,,,,,,,,,,,,,39,torpe,,,,,460.9331,462.2139,1,1,0.7578,,0,19,19,38,1,REAL,FAKE,,,,,,,,,,,,,,,,,
,,,,,,,,,5ca25f7048f78e0018fdac10,Spanish,13 or older,"no, only English or Spanish",no,2025-08-12_14h50.57.359,empathy_intonation_perc,2024.2.4,Win32,59.88023952,5ca25f7048f78e0018fdac10,687ed1b7e638a4cbf2f02089,689b8cf6f602fdab42d94437,,,,,,,,,,,,,,0,,,,,,,,,,,,,,,,,,,,,,,,,,,,,,,,,,,,,,,,,,,,,,,,,,,,,,,,,30,alardio,,,,,462.2153,463.3804,0,1,0.6272,,0,20,20,29,1,REAL,FAKE,,,,,,,,,,,,,,,,,
,,,,,,,,,5ca25f7048f78e0018fdac10,Spanish,13 or older,"no, only English or Spanish",no,2025-08-12_14h50.57.359,empathy_intonation_perc,2024.2.4,Win32,59.88023952,5ca25f7048f78e0018fdac10,687ed1b7e638a4cbf2f02089,689b8cf6f602fdab42d94437,,,,,,,,,,,,,,0,,,,,,,,,,,,,,,,,,,,,,,,,,,,,,,,,,,,,,,,,,,,,,,,,,,,,,,,,74,cintro,,,,,463.3821,464.7304,0,1,0.8235,,0,21,21,73,1,REAL,FAKE,,,,,,,,,,,,,,,,,
,,,,,,,,,5ca25f7048f78e0018fdac10,Spanish,13 or older,"no, only English or Spanish",no,2025-08-12_14h50.57.359,empathy_intonation_perc,2024.2.4,Win32,59.88023952,5ca25f7048f78e0018fdac10,687ed1b7e638a4cbf2f02089,689b8cf6f602fdab42d94437,,,,,,,,,,,,,,1,,,,,,,,,,,,,,,,,,,,,,,,,,,,,,,,,,,,,,,,,,,,,,,,,,,,,,,,,77,tiburón,,,,,464.7319,465.9296,0,0,0.6616,,0,22,22,76,1,REAL,FAKE,,,,,,,,,,,,,,,,,
,,,,,,,,,5ca25f7048f78e0018fdac10,Spanish,13 or older,"no, only English or Spanish",no,2025-08-12_14h50.57.359,empathy_intonation_perc,2024.2.4,Win32,59.88023952,5ca25f7048f78e0018fdac10,687ed1b7e638a4cbf2f02089,689b8cf6f602fdab42d94437,,,,,,,,,,,,,,0,,,,,,,,,,,,,,,,,,,,,,,,,,,,,,,,,,,,,,,,,,,,,,,,,,,,,,,,,19,brecedad,,,,,465.9309,467.1793,0,1,0.708,,0,23,23,18,1,REAL,FAKE,,,,,,,,,,,,,,,,,
,,,,,,,,,5ca25f7048f78e0018fdac10,Spanish,13 or older,"no, only English or Spanish",no,2025-08-12_14h50.57.359,empathy_intonation_perc,2024.2.4,Win32,59.88023952,5ca25f7048f78e0018fdac10,687ed1b7e638a4cbf2f02089,689b8cf6f602fdab42d94437,,,,,,,,,,,,,,0,,,,,,,,,,,,,,,,,,,,,,,,,,,,,,,,,,,,,,,,,,,,,,,,,,,,,,,,,23,lampera,,,,,467.1807,468.3959,1,0,0.6685,,0,24,24,22,1,REAL,FAKE,,,,,,,,,,,,,,,,,
,,,,,,,,,5ca25f7048f78e0018fdac10,Spanish,13 or older,"no, only English or Spanish",no,2025-08-12_14h50.57.359,empathy_intonation_perc,2024.2.4,Win32,59.88023952,5ca25f7048f78e0018fdac10,687ed1b7e638a4cbf2f02089,689b8cf6f602fdab42d94437,,,,,,,,,,,,,,1,,,,,,,,,,,,,,,,,,,,,,,,,,,,,,,,,,,,,,,,,,,,,,,,,,,,,,,,,61,seda,,,,,468.3972,469.6457,0,0,0.7115,,0,25,25,60,1,REAL,FAKE,,,,,,,,,,,,,,,,,
,,,,,,,,,5ca25f7048f78e0018fdac10,Spanish,13 or older,"no, only English or Spanish",no,2025-08-12_14h50.57.359,empathy_intonation_perc,2024.2.4,Win32,59.88023952,5ca25f7048f78e0018fdac10,687ed1b7e638a4cbf2f02089,689b8cf6f602fdab42d94437,,,,,,,,,,,,,,1,,,,,,,,,,,,,,,,,,,,,,,,,,,,,,,,,,,,,,,,,,,,,,,,,,,,,,,,,22,lacayo,,,,,469.647,470.8622,0,0,0.6685,,0,26,26,21,1,REAL,FAKE,,,,,,,,,,,,,,,,,
,,,,,,,,,5ca25f7048f78e0018fdac10,Spanish,13 or older,"no, only English or Spanish",no,2025-08-12_14h50.57.359,empathy_intonation_perc,2024.2.4,Win32,59.88023952,5ca25f7048f78e0018fdac10,687ed1b7e638a4cbf2f02089,689b8cf6f602fdab42d94437,,,,,,,,,,,,,,1,,,,,,,,,,,,,,,,,,,,,,,,,,,,,,,,,,,,,,,,,,,,,,,,,,,,,,,,,86,barato,,,,,470.8632,472.1612,1,1,0.7595,,0,27,27,85,1,REAL,FAKE,,,,,,,,,,,,,,,,,
,,,,,,,,,5ca25f7048f78e0018fdac10,Spanish,13 or older,"no, only English or Spanish",no,2025-08-12_14h50.57.359,empathy_intonation_perc,2024.2.4,Win32,59.88023952,5ca25f7048f78e0018fdac10,687ed1b7e638a4cbf2f02089,689b8cf6f602fdab42d94437,,,,,,,,,,,,,,0,,,,,,,,,,,,,,,,,,,,,,,,,,,,,,,,,,,,,,,,,,,,,,,,,,,,,,,,,50,flamida,,,,,472.1625,473.3603,0,1,0.6565,,0,28,28,49,1,REAL,FAKE,,,,,,,,,,,,,,,,,
,,,,,,,,,5ca25f7048f78e0018fdac10,Spanish,13 or older,"no, only English or Spanish",no,2025-08-12_14h50.57.359,empathy_intonation_perc,2024.2.4,Win32,59.88023952,5ca25f7048f78e0018fdac10,687ed1b7e638a4cbf2f02089,689b8cf6f602fdab42d94437,,,,,,,,,,,,,,0,,,,,,,,,,,,,,,,,,,,,,,,,,,,,,,,,,,,,,,,,,,,,,,,,,,,,,,,,29,decar,,,,,473.362,474.5324,1,0,0.6331,,0,29,29,28,1,REAL,FAKE,,,,,,,,,,,,,,,,,
,,,,,,,,,5ca25f7048f78e0018fdac10,Spanish,13 or older,"no, only English or Spanish",no,2025-08-12_14h50.57.359,empathy_intonation_perc,2024.2.4,Win32,59.88023952,5ca25f7048f78e0018fdac10,687ed1b7e638a4cbf2f02089,689b8cf6f602fdab42d94437,,,,,,,,,,,,,,1,,,,,,,,,,,,,,,,,,,,,,,,,,,,,,,,,,,,,,,,,,,,,,,,,,,,,,,,,85,laúd,,,,,474.5343,475.729,0,0,0.664,,0,30,30,84,1,REAL,FAKE,,,,,,,,,,,,,,,,,
,,,,,,,,,5ca25f7048f78e0018fdac10,Spanish,13 or older,"no, only English or Spanish",no,2025-08-12_14h50.57.359,empathy_intonation_perc,2024.2.4,Win32,59.88023952,5ca25f7048f78e0018fdac10,687ed1b7e638a4cbf2f02089,689b8cf6f602fdab42d94437,,,,,,,,,,,,,,1,,,,,,,,,,,,,,,,,,,,,,,,,,,,,,,,,,,,,,,,,,,,,,,,,,,,,,,,,15,regar,,,,,475.73,476.9433,1,1,0.6691,,0,31,31,14,1,REAL,FAKE,,,,,,,,,,,,,,,,,
,,,,,,,,,5ca25f7048f78e0018fdac10,Spanish,13 or older,"no, only English or Spanish",no,2025-08-12_14h50.57.359,empathy_intonation_perc,2024.2.4,Win32,59.88023952,5ca25f7048f78e0018fdac10,687ed1b7e638a4cbf2f02089,689b8cf6f602fdab42d94437,,,,,,,,,,,,,,0,,,,,,,,,,,,,,,,,,,,,,,,,,,,,,,,,,,,,,,,,,,,,,,,,,,,,,,,,35,rompido,,,,,476.9449,477.9929,0,1,0.5063,,0,32,32,34,1,REAL,FAKE,,,,,,,,,,,,,,,,,
,,,,,,,,,5ca25f7048f78e0018fdac10,Spanish,13 or older,"no, only English or Spanish",no,2025-08-12_14h50.57.359,empathy_intonation_perc,2024.2.4,Win32,59.88023952,5ca25f7048f78e0018fdac10,687ed1b7e638a4cbf2f02089,689b8cf6f602fdab42d94437,,,,,,,,,,,,,,1,,,,,,,,,,,,,,,,,,,,,,,,,,,,,,,,,,,,,,,,,,,,,,,,,,,,,,,,,67,cabello,,,,,477.9943,479.131,1,1,0.6169,,0,33,33,66,1,REAL,FAKE,,,,,,,,,,,,,,,,,
,,,,,,,,,5ca25f7048f78e0018fdac10,Spanish,13 or older,"no, only English or Spanish",no,2025-08-12_14h50.57.359,empathy_intonation_perc,2024.2.4,Win32,59.88023952,5ca25f7048f78e0018fdac10,687ed1b7e638a4cbf2f02089,689b8cf6f602fdab42d94437,,,,,,,,,,,,,,0,,,,,,,,,,,,,,,,,,,,,,,,,,,,,,,,,,,,,,,,,,,,,,,,,,,,,,,,,53,vegada,,,,,479.1323,480.5249,1,0,0.8507,,0,34,34,52,1,REAL,FAKE,,,,,,,,,,,,,,,,,
,,,,,,,,,5ca25f7048f78e0018fdac10,Spanish,13 or older,"no, only English or Spanish",no,2025-08-12_14h50.57.359,empathy_intonation_perc,2024.2.4,Win32,59.88023952,5ca25f7048f78e0018fdac10,687ed1b7e638a4cbf2f02089,689b8cf6f602fdab42d94437,,,,,,,,,,,,,,1,,,,,,,,,,,,,,,,,,,,,,,,,,,,,,,,,,,,,,,,,,,,,,,,,,,,,,,,,56,musgo,,,,,480.5268,481.6416,0,0,0.5718,,0,35,35,55,1,REAL,FAKE,,,,,,,,,,,,,,,,,
,,,,,,,,,5ca25f7048f78e0018fdac10,Spanish,13 or older,"no, only English or Spanish",no,2025-08-12_14h50.57.359,empathy_intonation_perc,2024.2.4,Win32,59.88023952,5ca25f7048f78e0018fdac10,687ed1b7e638a4cbf2f02089,689b8cf6f602fdab42d94437,,,,,,,,,,,,,,1,,,,,,,,,,,,,,,,,,,,,,,,,,,,,,,,,,,,,,,,,,,,,,,,,,,,,,,,,7,pésimo,,,,,481.643,484.0243,1,1,1.8342,,0,36,36,6,1,REAL,FAKE,,,,,,,,,,,,,,,,,
,,,,,,,,,5ca25f7048f78e0018fdac10,Spanish,13 or older,"no, only English or Spanish",no,2025-08-12_14h50.57.359,empathy_intonation_perc,2024.2.4,Win32,59.88023952,5ca25f7048f78e0018fdac10,687ed1b7e638a4cbf2f02089,689b8cf6f602fdab42d94437,,,,,,,,,,,,,,0,,,,,,,,,,,,,,,,,,,,,,,,,,,,,,,,,,,,,,,,,,,,,,,,,,,,,,,,,10,antar,,,,,484.0257,485.2907,0,1,0.7226,,0,37,37,9,1,REAL,FAKE,,,,,,,,,,,,,,,,,
,,,,,,,,,5ca25f7048f78e0018fdac10,Spanish,13 or older,"no, only English or Spanish",no,2025-08-12_14h50.57.359,empathy_intonation_perc,2024.2.4,Win32,59.88023952,5ca25f7048f78e0018fdac10,687ed1b7e638a4cbf2f02089,689b8cf6f602fdab42d94437,,,,,,,,,,,,,,0,,,,,,,,,,,,,,,,,,,,,,,,,,,,,,,,,,,,,,,,,,,,,,,,,,,,,,,,,92,click the 0 key.,,,,,485.2924,486.5072,0,1,0.6678,,0,38,38,91,1,REAL,FAKE,,,,,,,,,,,,,,,,,
,,,,,,,,,5ca25f7048f78e0018fdac10,Spanish,13 or older,"no, only English or Spanish",no,2025-08-12_14h50.57.359,empathy_intonation_perc,2024.2.4,Win32,59.88023952,5ca25f7048f78e0018fdac10,687ed1b7e638a4cbf2f02089,689b8cf6f602fdab42d94437,,,,,,,,,,,,,,1,,,,,,,,,,,,,,,,,,,,,,,,,,,,,,,,,,,,,,,,,,,,,,,,,,,,,,,,,36,loro,,,,,486.5084,487.789,0,0,0.7436,,0,39,39,35,1,REAL,FAKE,,,,,,,,,,,,,,,,,
,,,,,,,,,5ca25f7048f78e0018fdac10,Spanish,13 or older,"no, only English or Spanish",no,2025-08-12_14h50.57.359,empathy_intonation_perc,2024.2.4,Win32,59.88023952,5ca25f7048f78e0018fdac10,687ed1b7e638a4cbf2f02089,689b8cf6f602fdab42d94437,,,,,,,,,,,,,,1,,,,,,,,,,,,,,,,,,,,,,,,,,,,,,,,,,,,,,,,,,,,,,,,,,,,,,,,,80,hormiga,,,,,487.7906,489.0724,0,0,0.7346,,0,40,40,79,1,REAL,FAKE,,,,,,,,,,,,,,,,,
,,,,,,,,,5ca25f7048f78e0018fdac10,Spanish,13 or older,"no, only English or Spanish",no,2025-08-12_14h50.57.359,empathy_intonation_perc,2024.2.4,Win32,59.88023952,5ca25f7048f78e0018fdac10,687ed1b7e638a4cbf2f02089,689b8cf6f602fdab42d94437,,,,,,,,,,,,,,0,,,,,,,,,,,,,,,,,,,,,,,,,,,,,,,,,,,,,,,,,,,,,,,,,,,,,,,,,84,escuto,,,,,489.0737,490.2386,0,1,0.6181,,0,41,41,83,1,REAL,FAKE,,,,,,,,,,,,,,,,,
,,,,,,,,,5ca25f7048f78e0018fdac10,Spanish,13 or older,"no, only English or Spanish",no,2025-08-12_14h50.57.359,empathy_intonation_perc,2024.2.4,Win32,59.88023952,5ca25f7048f78e0018fdac10,687ed1b7e638a4cbf2f02089,689b8cf6f602fdab42d94437,,,,,,,,,,,,,,0,,,,,,,,,,,,,,,,,,,,,,,,,,,,,,,,,,,,,,,,,,,,,,,,,,,,,,,,,79,tropaje,,,,,490.2399,492.1067,0,1,1.3299,,0,42,42,78,1,REAL,FAKE,,,,,,,,,,,,,,,,,
,,,,,,,,,5ca25f7048f78e0018fdac10,Spanish,13 or older,"no, only English or Spanish",no,2025-08-12_14h50.57.359,empathy_intonation_perc,2024.2.4,Win32,59.88023952,5ca25f7048f78e0018fdac10,687ed1b7e638a4cbf2f02089,689b8cf6f602fdab42d94437,,,,,,,,,,,,,,1,,,,,,,,,,,,,,,,,,,,,,,,,,,,,,,,,,,,,,,,,,,,,,,,,,,,,,,,,83,guante,,,,,492.1077,494.5704,0,0,1.9274,,0,43,43,82,1,REAL,FAKE,,,,,,,,,,,,,,,,,
,,,,,,,,,5ca25f7048f78e0018fdac10,Spanish,13 or older,"no, only English or Spanish",no,2025-08-12_14h50.57.359,empathy_intonation_perc,2024.2.4,Win32,59.88023952,5ca25f7048f78e0018fdac10,687ed1b7e638a4cbf2f02089,689b8cf6f602fdab42d94437,,,,,,,,,,,,,,1,,,,,,,,,,,,,,,,,,,,,,,,,,,,,,,,,,,,,,,,,,,,,,,,,,,,,,,,,45,jilguero,,,,,494.5719,495.8371,0,0,0.7183,,0,44,44,44,1,REAL,FAKE,,,,,,,,,,,,,,,,,
,,,,,,,,,5ca25f7048f78e0018fdac10,Spanish,13 or older,"no, only English or Spanish",no,2025-08-12_14h50.57.359,empathy_intonation_perc,2024.2.4,Win32,59.88023952,5ca25f7048f78e0018fdac10,687ed1b7e638a4cbf2f02089,689b8cf6f602fdab42d94437,,,,,,,,,,,,,,1,,,,,,,,,,,,,,,,,,,,,,,,,,,,,,,,,,,,,,,,,,,,,,,,,,,,,,,,,31,pandilla,,,,,495.8384,497.053,1,1,0.6748,,0,45,45,30,1,REAL,FAKE,,,,,,,,,,,,,,,,,
,,,,,,,,,5ca25f7048f78e0018fdac10,Spanish,13 or older,"no, only English or Spanish",no,2025-08-12_14h50.57.359,empathy_intonation_perc,2024.2.4,Win32,59.88023952,5ca25f7048f78e0018fdac10,687ed1b7e638a4cbf2f02089,689b8cf6f602fdab42d94437,,,,,,,,,,,,,,0,,,,,,,,,,,,,,,,,,,,,,,,,,,,,,,,,,,,,,,,,,,,,,,,,,,,,,,,,70,temblo,,,,,497.0543,498.3859,0,1,0.7879,,0,46,46,69,1,REAL,FAKE,,,,,,,,,,,,,,,,,
,,,,,,,,,5ca25f7048f78e0018fdac10,Spanish,13 or older,"no, only English or Spanish",no,2025-08-12_14h50.57.359,empathy_intonation_perc,2024.2.4,Win32,59.88023952,5ca25f7048f78e0018fdac10,687ed1b7e638a4cbf2f02089,689b8cf6f602fdab42d94437,,,,,,,,,,,,,,1,,,,,,,,,,,,,,,,,,,,,,,,,,,,,,,,,,,,,,,,,,,,,,,,,,,,,,,,,41,rebuscar,,,,,498.3871,500.2187,1,1,1.2844,,0,47,47,40,1,REAL,FAKE,,,,,,,,,,,,,,,,,
,,,,,,,,,5ca25f7048f78e0018fdac10,Spanish,13 or older,"no, only English or Spanish",no,2025-08-12_14h50.57.359,empathy_intonation_perc,2024.2.4,Win32,59.88023952,5ca25f7048f78e0018fdac10,687ed1b7e638a4cbf2f02089,689b8cf6f602fdab42d94437,,,,,,,,,,,,,,1,,,,,,,,,,,,,,,,,,,,,,,,,,,,,,,,,,,,,,,,,,,,,,,,,,,,,,,,,43,canela,,,,,500.2202,501.9677,1,1,1.2052,,0,48,48,42,1,REAL,FAKE,,,,,,,,,,,,,,,,,
,,,,,,,,,5ca25f7048f78e0018fdac10,Spanish,13 or older,"no, only English or Spanish",no,2025-08-12_14h50.57.359,empathy_intonation_perc,2024.2.4,Win32,59.88023952,5ca25f7048f78e0018fdac10,687ed1b7e638a4cbf2f02089,689b8cf6f602fdab42d94437,,,,,,,,,,,,,,1,,,,,,,,,,,,,,,,,,,,,,,,,,,,,,,,,,,,,,,,,,,,,,,,,,,,,,,,,75,yacer,,,,,501.9691,503.0167,0,0,0.511,,0,49,49,74,1,REAL,FAKE,,,,,,,,,,,,,,,,,
,,,,,,,,,5ca25f7048f78e0018fdac10,Spanish,13 or older,"no, only English or Spanish",no,2025-08-12_14h50.57.359,empathy_intonation_perc,2024.2.4,Win32,59.88023952,5ca25f7048f78e0018fdac10,687ed1b7e638a4cbf2f02089,689b8cf6f602fdab42d94437,,,,,,,,,,,,,,1,,,,,,,,,,,,,,,,,,,,,,,,,,,,,,,,,,,,,,,,,,,,,,,,,,,,,,,,,11,cenefa,,,,,503.0187,504.1001,0,0,0.5441,,0,50,50,10,1,REAL,FAKE,,,,,,,,,,,,,,,,,
,,,,,,,,,5ca25f7048f78e0018fdac10,Spanish,13 or older,"no, only English or Spanish",no,2025-08-12_14h50.57.359,empathy_intonation_perc,2024.2.4,Win32,59.88023952,5ca25f7048f78e0018fdac10,687ed1b7e638a4cbf2f02089,689b8cf6f602fdab42d94437,,,,,,,,,,,,,,1,,,,,,,,,,,,,,,,,,,,,,,,,,,,,,,,,,,,,,,,,,,,,,,,,,,,,,,,,38,estornudar,,,,,504.1015,505.9164,1,1,1.2897,,0,51,51,37,1,REAL,FAKE,,,,,,,,,,,,,,,,,
,,,,,,,,,5ca25f7048f78e0018fdac10,Spanish,13 or older,"no, only English or Spanish",no,2025-08-12_14h50.57.359,empathy_intonation_perc,2024.2.4,Win32,59.88023952,5ca25f7048f78e0018fdac10,687ed1b7e638a4cbf2f02089,689b8cf6f602fdab42d94437,,,,,,,,,,,,,,1,,,,,,,,,,,,,,,,,,,,,,,,,,,,,,,,,,,,,,,,,,,,,,,,,,,,,,,,,48,ladrón,,,,,505.9186,507.0378,0,0,0.5832,,0,52,52,47,1,REAL,FAKE,,,,,,,,,,,,,,,,,
,,,,,,,,,5ca25f7048f78e0018fdac10,Spanish,13 or older,"no, only English or Spanish",no,2025-08-12_14h50.57.359,empathy_intonation_perc,2024.2.4,Win32,59.88023952,5ca25f7048f78e0018fdac10,687ed1b7e638a4cbf2f02089,689b8cf6f602fdab42d94437,,,,,,,,,,,,,,0,,,,,,,,,,,,,,,,,,,,,,,,,,,,,,,,,,,,,,,,,,,,,,,,,,,,,,,,,32,fatacidad,,,,,507.0391,508.4874,0,1,0.9159,,0,53,53,31,1,REAL,FAKE,,,,,,,,,,,,,,,,,
,,,,,,,,,5ca25f7048f78e0018fdac10,Spanish,13 or older,"no, only English or Spanish",no,2025-08-12_14h50.57.359,empathy_intonation_perc,2024.2.4,Win32,59.88023952,5ca25f7048f78e0018fdac10,687ed1b7e638a4cbf2f02089,689b8cf6f602fdab42d94437,,,,,,,,,,,,,,1,,,,,,,,,,,,,,,,,,,,,,,,,,,,,,,,,,,,,,,,,,,,,,,,,,,,,,,,,69,engatusar,,,,,508.4889,510.3816,0,0,1.3568,,0,54,54,68,1,REAL,FAKE,,,,,,,,,,,,,,,,,
,,,,,,,,,5ca25f7048f78e0018fdac10,Spanish,13 or older,"no, only English or Spanish",no,2025-08-12_14h50.57.359,empathy_intonation_perc,2024.2.4,Win32,59.88023952,5ca25f7048f78e0018fdac10,687ed1b7e638a4cbf2f02089,689b8cf6f602fdab42d94437,,,,,,,,,,,,,,1,,,,,,,,,,,,,,,,,,,,,,,,,,,,,,,,,,,,,,,,,,,,,,,,,,,,,,,,,26,secuestro,,,,,510.3832,512.5813,1,1,1.6615,,0,55,55,25,1,REAL,FAKE,,,,,,,,,,,,,,,,,
,,,,,,,,,5ca25f7048f78e0018fdac10,Spanish,13 or older,"no, only English or Spanish",no,2025-08-12_14h50.57.359,empathy_intonation_perc,2024.2.4,Win32,59.88023952,5ca25f7048f78e0018fdac10,687ed1b7e638a4cbf2f02089,689b8cf6f602fdab42d94437,,,,,,,,,,,,,,1,,,,,,,,,,,,,,,,,,,,,,,,,,,,,,,,,,,,,,,,,,,,,,,,,,,,,,,,,89,prisa,,,,,512.5826,514.1304,0,0,1.0021,,0,56,56,88,1,REAL,FAKE,,,,,,,,,,,,,,,,,
,,,,,,,,,5ca25f7048f78e0018fdac10,Spanish,13 or older,"no, only English or Spanish",no,2025-08-12_14h50.57.359,empathy_intonation_perc,2024.2.4,Win32,59.88023952,5ca25f7048f78e0018fdac10,687ed1b7e638a4cbf2f02089,689b8cf6f602fdab42d94437,,,,,,,,,,,,,,0,,,,,,,,,,,,,,,,,,,,,,,,,,,,,,,,,,,,,,,,,,,,,,,,,,,,,,,,,8,cadeña,,,,,514.132,515.8133,0,1,1.1518,,0,57,57,7,1,REAL,FAKE,,,,,,,,,,,,,,,,,
,,,,,,,,,5ca25f7048f78e0018fdac10,Spanish,13 or older,"no, only English or Spanish",no,2025-08-12_14h50.57.359,empathy_intonation_perc,2024.2.4,Win32,59.88023952,5ca25f7048f78e0018fdac10,687ed1b7e638a4cbf2f02089,689b8cf6f602fdab42d94437,,,,,,,,,,,,,,1,,,,,,,,,,,,,,,,,,,,,,,,,,,,,,,,,,,,,,,,,,,,,,,,,,,,,,,,,12,asesinato,,,,,515.8148,517.0629,0,0,0.7057,,0,58,58,11,1,REAL,FAKE,,,,,,,,,,,,,,,,,
,,,,,,,,,5ca25f7048f78e0018fdac10,Spanish,13 or older,"no, only English or Spanish",no,2025-08-12_14h50.57.359,empathy_intonation_perc,2024.2.4,Win32,59.88023952,5ca25f7048f78e0018fdac10,687ed1b7e638a4cbf2f02089,689b8cf6f602fdab42d94437,,,,,,,,,,,,,,1,,,,,,,,,,,,,,,,,,,,,,,,,,,,,,,,,,,,,,,,,,,,,,,,,,,,,,,,,62,flaco,,,,,517.0643,518.8124,1,1,1.2064,,0,59,59,61,1,REAL,FAKE,,,,,,,,,,,,,,,,,
,,,,,,,,,5ca25f7048f78e0018fdac10,Spanish,13 or older,"no, only English or Spanish",no,2025-08-12_14h50.57.359,empathy_intonation_perc,2024.2.4,Win32,59.88023952,5ca25f7048f78e0018fdac10,687ed1b7e638a4cbf2f02089,689b8cf6f602fdab42d94437,,,,,,,,,,,,,,1,,,,,,,,,,,,,,,,,,,,,,,,,,,,,,,,,,,,,,,,,,,,,,,,,,,,,,,,,60,matar,,,,,518.8138,519.8618,0,0,0.5185,,0,60,60,59,1,REAL,FAKE,,,,,,,,,,,,,,,,,
,,,,,,,,,5ca25f7048f78e0018fdac10,Spanish,13 or older,"no, only English or Spanish",no,2025-08-12_14h50.57.359,empathy_intonation_perc,2024.2.4,Win32,59.88023952,5ca25f7048f78e0018fdac10,687ed1b7e638a4cbf2f02089,689b8cf6f602fdab42d94437,,,,,,,,,,,,,,0,,,,,,,,,,,,,,,,,,,,,,,,,,,,,,,,,,,,,,,,,,,,,,,,,,,,,,,,,42,cadallo,,,,,519.8634,521.0282,0,1,0.6425,,0,61,61,41,1,REAL,FAKE,,,,,,,,,,,,,,,,,
,,,,,,,,,5ca25f7048f78e0018fdac10,Spanish,13 or older,"no, only English or Spanish",no,2025-08-12_14h50.57.359,empathy_intonation_perc,2024.2.4,Win32,59.88023952,5ca25f7048f78e0018fdac10,687ed1b7e638a4cbf2f02089,689b8cf6f602fdab42d94437,,,,,,,,,,,,,,1,,,,,,,,,,,,,,,,,,,,,,,,,,,,,,,,,,,,,,,,,,,,,,,,,,,,,,,,,13,helar,,,,,521.0296,522.1444,0,0,0.5683,,0,62,62,12,1,REAL,FAKE,,,,,,,,,,,,,,,,,
,,,,,,,,,5ca25f7048f78e0018fdac10,Spanish,13 or older,"no, only English or Spanish",no,2025-08-12_14h50.57.359,empathy_intonation_perc,2024.2.4,Win32,59.88023952,5ca25f7048f78e0018fdac10,687ed1b7e638a4cbf2f02089,689b8cf6f602fdab42d94437,,,,,,,,,,,,,,0,,,,,,,,,,,,,,,,,,,,,,,,,,,,,,,,,,,,,,,,,,,,,,,,,,,,,,,,,72,pemición,,,,,522.1458,523.3107,0,1,0.6175,,0,63,63,71,1,REAL,FAKE,,,,,,,,,,,,,,,,,
,,,,,,,,,5ca25f7048f78e0018fdac10,Spanish,13 or older,"no, only English or Spanish",no,2025-08-12_14h50.57.359,empathy_intonation_perc,2024.2.4,Win32,59.88023952,5ca25f7048f78e0018fdac10,687ed1b7e638a4cbf2f02089,689b8cf6f602fdab42d94437,,,,,,,,,,,,,,1,,,,,,,,,,,,,,,,,,,,,,,,,,,,,,,,,,,,,,,,,,,,,,,,,,,,,,,,,90,clavel,,,,,523.312,524.3995,0,0,0.5678,,0,64,64,89,1,REAL,FAKE,,,,,,,,,,,,,,,,,
,,,,,,,,,5ca25f7048f78e0018fdac10,Spanish,13 or older,"no, only English or Spanish",no,2025-08-12_14h50.57.359,empathy_intonation_perc,2024.2.4,Win32,59.88023952,5ca25f7048f78e0018fdac10,687ed1b7e638a4cbf2f02089,689b8cf6f602fdab42d94437,,,,,,,,,,,,,,1,,,,,,,,,,,,,,,,,,,,,,,,,,,,,,,,,,,,,,,,,,,,,,,,,,,,,,,,,54,fomentar,,,,,524.4007,525.9097,1,1,0.9678,,0,65,65,53,1,REAL,FAKE,,,,,,,,,,,,,,,,,
,,,,,,,,,5ca25f7048f78e0018fdac10,Spanish,13 or older,"no, only English or Spanish",no,2025-08-12_14h50.57.359,empathy_intonation_perc,2024.2.4,Win32,59.88023952,5ca25f7048f78e0018fdac10,687ed1b7e638a4cbf2f02089,689b8cf6f602fdab42d94437,,,,,,,,,,,,,,1,,,,,,,,,,,,,,,,,,,,,,,,,,,,,,,,,,,,,,,,,,,,,,,,,,,,,,,,,5,zapato,,,,,525.9113,527.2093,1,1,0.7522,,0,66,66,4,1,REAL,FAKE,,,,,,,,,,,,,,,,,
,,,,,,,,,5ca25f7048f78e0018fdac10,Spanish,13 or older,"no, only English or Spanish",no,2025-08-12_14h50.57.359,empathy_intonation_perc,2024.2.4,Win32,59.88023952,5ca25f7048f78e0018fdac10,687ed1b7e638a4cbf2f02089,689b8cf6f602fdab42d94437,,,,,,,,,,,,,,1,,,,,,,,,,,,,,,,,,,,,,,,,,,,,,,,,,,,,,,,,,,,,,,,,,,,,,,,,71,polvoriento,,,,,527.211,528.3094,0,0,0.5508,,0,67,67,70,1,REAL,FAKE,,,,,,,,,,,,,,,,,
,,,,,,,,,5ca25f7048f78e0018fdac10,Spanish,13 or older,"no, only English or Spanish",no,2025-08-12_14h50.57.359,empathy_intonation_perc,2024.2.4,Win32,59.88023952,5ca25f7048f78e0018fdac10,687ed1b7e638a4cbf2f02089,689b8cf6f602fdab42d94437,,,,,,,,,,,,,,0,,,,,,,,,,,,,,,,,,,,,,,,,,,,,,,,,,,,,,,,,,,,,,,,,,,,,,,,,82,empirador,,,,,528.3106,529.8086,1,0,0.9554,,0,68,68,81,1,REAL,FAKE,,,,,,,,,,,,,,,,,
,,,,,,,,,5ca25f7048f78e0018fdac10,Spanish,13 or older,"no, only English or Spanish",no,2025-08-12_14h50.57.359,empathy_intonation_perc,2024.2.4,Win32,59.88023952,5ca25f7048f78e0018fdac10,687ed1b7e638a4cbf2f02089,689b8cf6f602fdab42d94437,,,,,,,,,,,,,,1,,,,,,,,,,,,,,,,,,,,,,,,,,,,,,,,,,,,,,,,,,,,,,,,,,,,,,,,,44,cuchara,,,,,529.8099,531.4747,1,1,1.1185,,0,69,69,43,1,REAL,FAKE,,,,,,,,,,,,,,,,,
,,,,,,,,,5ca25f7048f78e0018fdac10,Spanish,13 or older,"no, only English or Spanish",no,2025-08-12_14h50.57.359,empathy_intonation_perc,2024.2.4,Win32,59.88023952,5ca25f7048f78e0018fdac10,687ed1b7e638a4cbf2f02089,689b8cf6f602fdab42d94437,,,,,,,,,,,,,,0,,,,,,,,,,,,,,,,,,,,,,,,,,,,,,,,,,,,,,,,,,,,,,,,,,,,,,,,,47,cartinar,,,,,531.4762,532.874,0,1,0.8509,,0,70,70,46,1,REAL,FAKE,,,,,,,,,,,,,,,,,
,,,,,,,,,5ca25f7048f78e0018fdac10,Spanish,13 or older,"no, only English or Spanish",no,2025-08-12_14h50.57.359,empathy_intonation_perc,2024.2.4,Win32,59.88023952,5ca25f7048f78e0018fdac10,687ed1b7e638a4cbf2f02089,689b8cf6f602fdab42d94437,,,,,,,,,,,,,,0,,,,,,,,,,,,,,,,,,,,,,,,,,,,,,,,,,,,,,,,,,,,,,,,,,,,,,,,,16,abracer,,,,,532.8753,534.1737,0,1,0.7518,,0,71,71,15,1,REAL,FAKE,,,,,,,,,,,,,,,,,
,,,,,,,,,5ca25f7048f78e0018fdac10,Spanish,13 or older,"no, only English or Spanish",no,2025-08-12_14h50.57.359,empathy_intonation_perc,2024.2.4,Win32,59.88023952,5ca25f7048f78e0018fdac10,687ed1b7e638a4cbf2f02089,689b8cf6f602fdab42d94437,,,,,,,,,,,,,,1,,,,,,,,,,,,,,,,,,,,,,,,,,,,,,,,,,,,,,,,,,,,,,,,,,,,,,,,,24,látigo,,,,,534.1754,535.2895,0,0,0.5936,,0,72,72,23,1,REAL,FAKE,,,,,,,,,,,,,,,,,
,,,,,,,,,5ca25f7048f78e0018fdac10,Spanish,13 or older,"no, only English or Spanish",no,2025-08-12_14h50.57.359,empathy_intonation_perc,2024.2.4,Win32,59.88023952,5ca25f7048f78e0018fdac10,687ed1b7e638a4cbf2f02089,689b8cf6f602fdab42d94437,,,,,,,,,,,,,,1,,,,,,,,,,,,,,,,,,,,,,,,,,,,,,,,,,,,,,,,,,,,,,,,,,,,,,,,,9,hacha,,,,,535.2911,536.6227,1,1,0.7865,,0,73,73,8,1,REAL,FAKE,,,,,,,,,,,,,,,,,
,,,,,,,,,5ca25f7048f78e0018fdac10,Spanish,13 or older,"no, only English or Spanish",no,2025-08-12_14h50.57.359,empathy_intonation_perc,2024.2.4,Win32,59.88023952,5ca25f7048f78e0018fdac10,687ed1b7e638a4cbf2f02089,689b8cf6f602fdab42d94437,,,,,,,,,,,,,,0,,,,,,,,,,,,,,,,,,,,,,,,,,,,,,,,,,,,,,,,,,,,,,,,,,,,,,,,,17,floroso,,,,,536.6244,537.7394,0,1,0.5752,,0,74,74,16,1,REAL,FAKE,,,,,,,,,,,,,,,,,
,,,,,,,,,5ca25f7048f78e0018fdac10,Spanish,13 or older,"no, only English or Spanish",no,2025-08-12_14h50.57.359,empathy_intonation_perc,2024.2.4,Win32,59.88023952,5ca25f7048f78e0018fdac10,687ed1b7e638a4cbf2f02089,689b8cf6f602fdab42d94437,,,,,,,,,,,,,,0,,,,,,,,,,,,,,,,,,,,,,,,,,,,,,,,,,,,,,,,,,,,,,,,,,,,,,,,,27,acutación,,,,,537.7408,538.7891,0,1,0.5096,,0,75,75,26,1,REAL,FAKE,,,,,,,,,,,,,,,,,
,,,,,,,,,5ca25f7048f78e0018fdac10,Spanish,13 or older,"no, only English or Spanish",no,2025-08-12_14h50.57.359,empathy_intonation_perc,2024.2.4,Win32,59.88023952,5ca25f7048f78e0018fdac10,687ed1b7e638a4cbf2f02089,689b8cf6f602fdab42d94437,,,,,,,,,,,,,,1,,,,,,,,,,,,,,,,,,,,,,,,,,,,,,,,,,,,,,,,,,,,,,,,,,,,,,,,,40,alfombra,,,,,538.7905,539.9219,0,0,0.5839,,0,76,76,39,1,REAL,FAKE,,,,,,,,,,,,,,,,,
,,,,,,,,,5ca25f7048f78e0018fdac10,Spanish,13 or older,"no, only English or Spanish",no,2025-08-12_14h50.57.359,empathy_intonation_perc,2024.2.4,Win32,59.88023952,5ca25f7048f78e0018fdac10,687ed1b7e638a4cbf2f02089,689b8cf6f602fdab42d94437,,,,,,,,,,,,,,1,,,,,,,,,,,,,,,,,,,,,,,,,,,,,,,,,,,,,,,,,,,,,,,,,,,,,,,,,3,pulmones,,,,,539.9233,541.7711,1,1,1.3073,,0,77,77,2,1,REAL,FAKE,,,,,,,,,,,,,,,,,
,,,,,,,,,5ca25f7048f78e0018fdac10,Spanish,13 or older,"no, only English or Spanish",no,2025-08-12_14h50.57.359,empathy_intonation_perc,2024.2.4,Win32,59.88023952,5ca25f7048f78e0018fdac10,687ed1b7e638a4cbf2f02089,689b8cf6f602fdab42d94437,,,,,,,,,,,,,,1,,,,,,,,,,,,,,,,,,,,,,,,,,,,,,,,,,,,,,,,,,,,,,,,,,,,,,,,,81,pozo,,,,,541.7724,543.2375,0,0,0.9179,,0,78,78,80,1,REAL,FAKE,,,,,,,,,,,,,,,,,
,,,,,,,,,5ca25f7048f78e0018fdac10,Spanish,13 or older,"no, only English or Spanish",no,2025-08-12_14h50.57.359,empathy_intonation_perc,2024.2.4,Win32,59.88023952,5ca25f7048f78e0018fdac10,687ed1b7e638a4cbf2f02089,689b8cf6f602fdab42d94437,,,,,,,,,,,,,,1,,,,,,,,,,,,,,,,,,,,,,,,,,,,,,,,,,,,,,,,,,,,,,,,,,,,,,,,,34,aviso,,,,,543.2389,545.1255,1,1,1.35,,0,79,79,33,1,REAL,FAKE,,,,,,,,,,,,,,,,,
,,,,,,,,,5ca25f7048f78e0018fdac10,Spanish,13 or older,"no, only English or Spanish",no,2025-08-12_14h50.57.359,empathy_intonation_perc,2024.2.4,Win32,59.88023952,5ca25f7048f78e0018fdac10,687ed1b7e638a4cbf2f02089,689b8cf6f602fdab42d94437,,,,,,,,,,,,,,1,,,,,,,,,,,,,,,,,,,,,,,,,,,,,,,,,,,,,,,,,,,,,,,,,,,,,,,,,68,alegre,,,,,545.1267,546.8864,0,0,1.2244,,0,80,80,67,1,REAL,FAKE,,,,,,,,,,,,,,,,,
,,,,,,,,,5ca25f7048f78e0018fdac10,Spanish,13 or older,"no, only English or Spanish",no,2025-08-12_14h50.57.359,empathy_intonation_perc,2024.2.4,Win32,59.88023952,5ca25f7048f78e0018fdac10,687ed1b7e638a4cbf2f02089,689b8cf6f602fdab42d94437,,,,,,,,,,,,,,0,,,,,,,,,,,,,,,,,,,,,,,,,,,,,,,,,,,,,,,,,,,,,,,,,,,,,,,,,63,esposante,,,,,546.8877,548.2358,0,1,0.8049,,0,81,81,62,1,REAL,FAKE,,,,,,,,,,,,,,,,,
,,,,,,,,,5ca25f7048f78e0018fdac10,Spanish,13 or older,"no, only English or Spanish",no,2025-08-12_14h50.57.359,empathy_intonation_perc,2024.2.4,Win32,59.88023952,5ca25f7048f78e0018fdac10,687ed1b7e638a4cbf2f02089,689b8cf6f602fdab42d94437,,,,,,,,,,,,,,0,,,,,,,,,,,,,,,,,,,,,,,,,,,,,,,,,,,,,,,,,,,,,,,,,,,,,,,,,1,terzo,,,,,548.2371,549.4242,0,1,0.6508,,0,82,82,0,1,REAL,FAKE,,,,,,,,,,,,,,,,,
,,,,,,,,,5ca25f7048f78e0018fdac10,Spanish,13 or older,"no, only English or Spanish",no,2025-08-12_14h50.57.359,empathy_intonation_perc,2024.2.4,Win32,59.88023952,5ca25f7048f78e0018fdac10,687ed1b7e638a4cbf2f02089,689b8cf6f602fdab42d94437,,,,,,,,,,,,,,1,,,,,,,,,,,,,,,,,,,,,,,,,,,,,,,,,,,,,,,,,,,,,,,,,,,,,,,,,37,granuja,,,,,549.4252,551.2564,0,0,1.2997,,0,83,83,36,1,REAL,FAKE,,,,,,,,,,,,,,,,,
,,,,,,,,,5ca25f7048f78e0018fdac10,Spanish,13 or older,"no, only English or Spanish",no,2025-08-12_14h50.57.359,empathy_intonation_perc,2024.2.4,Win32,59.88023952,5ca25f7048f78e0018fdac10,687ed1b7e638a4cbf2f02089,689b8cf6f602fdab42d94437,,,,,,,,,,,,,,0,,,,,,,,,,,,,,,,,,,,,,,,,,,,,,,,,,,,,,,,,,,,,,,,,,,,,,,,,21,capillo,,,,,551.2575,552.7339,1,0,0.9345,,0,84,84,20,1,REAL,FAKE,,,,,,,,,,,,,,,,,
,,,,,,,,,5ca25f7048f78e0018fdac10,Spanish,13 or older,"no, only English or Spanish",no,2025-08-12_14h50.57.359,empathy_intonation_perc,2024.2.4,Win32,59.88023952,5ca25f7048f78e0018fdac10,687ed1b7e638a4cbf2f02089,689b8cf6f602fdab42d94437,,,,,,,,,,,,,,1,,,,,,,,,,,,,,,,,,,,,,,,,,,,,,,,,,,,,,,,,,,,,,,,,,,,,,,,,25,bisagra,,,,,552.7355,553.7832,0,0,0.507,,0,85,85,24,1,REAL,FAKE,,,,,,,,,,,,,,,,,
,,,,,,,,,5ca25f7048f78e0018fdac10,Spanish,13 or older,"no, only English or Spanish",no,2025-08-12_14h50.57.359,empathy_intonation_perc,2024.2.4,Win32,59.88023952,5ca25f7048f78e0018fdac10,687ed1b7e638a4cbf2f02089,689b8cf6f602fdab42d94437,,,,,,,,,,,,,,1,,,,,,,,,,,,,,,,,,,,,,,,,,,,,,,,,,,,,,,,,,,,,,,,,,,,,,,,,55,nevar,,,,,553.7847,555.2336,0,0,0.9059,,0,86,86,54,1,REAL,FAKE,,,,,,,,,,,,,,,,,
,,,,,,,,,5ca25f7048f78e0018fdac10,Spanish,13 or older,"no, only English or Spanish",no,2025-08-12_14h50.57.359,empathy_intonation_perc,2024.2.4,Win32,59.88023952,5ca25f7048f78e0018fdac10,687ed1b7e638a4cbf2f02089,689b8cf6f602fdab42d94437,,,,,,,,,,,,,,0,,,,,,,,,,,,,,,,,,,,,,,,,,,,,,,,,,,,,,,,,,,,,,,,,,,,,,,,,87,grodo,,,,,555.2349,556.3656,0,1,0.5842,,0,87,87,86,1,REAL,FAKE,,,,,,,,,,,,,,,,,
,,,,,,,,,5ca25f7048f78e0018fdac10,Spanish,13 or older,"no, only English or Spanish",no,2025-08-12_14h50.57.359,empathy_intonation_perc,2024.2.4,Win32,59.88023952,5ca25f7048f78e0018fdac10,687ed1b7e638a4cbf2f02089,689b8cf6f602fdab42d94437,,,,,,,,,,,,,,0,,,,,,,,,,,,,,,,,,,,,,,,,,,,,,,,,,,,,,,,,,,,,,,,,,,,,,,,,58,plaudir,,,,,556.3671,557.6533,0,1,0.7491,,0,88,88,57,1,REAL,FAKE,,,,,,,,,,,,,,,,,
,,,,,,,,,5ca25f7048f78e0018fdac10,Spanish,13 or older,"no, only English or Spanish",no,2025-08-12_14h50.57.359,empathy_intonation_perc,2024.2.4,Win32,59.88023952,5ca25f7048f78e0018fdac10,687ed1b7e638a4cbf2f02089,689b8cf6f602fdab42d94437,,,,,,,,,,,,,,1,,,,,,,,,,,,,,,,,,,,,,,,,,,,,,,,,,,,,,,,,,,,,,,,,,,,,,,,,88,acantilado,,,,,557.6545,558.9192,0,0,0.7319,,0,89,89,87,1,REAL,FAKE,,,,,,,,,,,,,,,,,
,,,,,,,,,5ca25f7048f78e0018fdac10,Spanish,13 or older,"no, only English or Spanish",no,2025-08-12_14h50.57.359,empathy_intonation_perc,2024.2.4,Win32,59.88023952,5ca25f7048f78e0018fdac10,687ed1b7e638a4cbf2f02089,689b8cf6f602fdab42d94437,,,,,,,,,,,,,,1,,,,,,,,,,,,,,,,,,,,,,,,,,,,,,,,,,,,,,,,,,,,,,,,,,,,,,,,,65,bizcocho,,,,,558.9207,560.3533,0,0,0.9002,,0,90,90,64,1,REAL,FAKE,,,,,,,,,,,,,,,,,
,,,,,,,,,5ca25f7048f78e0018fdac10,Spanish,13 or older,"no, only English or Spanish",no,2025-08-12_14h50.57.359,empathy_intonation_perc,2024.2.4,Win32,59.88023952,5ca25f7048f78e0018fdac10,687ed1b7e638a4cbf2f02089,689b8cf6f602fdab42d94437,,,,,,,,,,,,,,1,,,,,,,,,,,,,,,,,,,,,,,,,,,,,,,,,,,,,,,,,,,,,,,,,,,,,,,,,52,camisa,,,,,560.3544,561.5817,0,0,0.6948,,0,91,91,51,1,REAL,FAKE,,,,,,,,,,,,,,,,,
,,,,,,,,,5ca25f7048f78e0018fdac10,Spanish,13 or older,"no, only English or Spanish",no,2025-08-12_14h50.57.359,empathy_intonation_perc,2024.2.4,Win32,59.88023952,5ca25f7048f78e0018fdac10,687ed1b7e638a4cbf2f02089,689b8cf6f602fdab42d94437,,,,,,,,,,,,,,,,,,,,,,,,,,,,,,,,,,,,,,,,,,,,,,,,,,,,,,,,,,,,,,,,,,,,,,,,,,,,,,,,,,,,,,,,,,561.5824,576.7766,,,,,,,,,,,,,,,
,,,,,,,,,5ca25f7048f78e0018fdac10,Spanish,13 or older,"no, only English or Spanish",no,2025-08-12_14h50.57.359,empathy_intonation_perc,2024.2.4,Win32,59.88023952,5ca25f7048f78e0018fdac10,687ed1b7e638a4cbf2f02089,689b8cf6f602fdab42d94437,,,,,,,,,,,,,1,,,,,,,,,,,,,,,,,,,,,,,,,,,,,,,,,,,,,,,,,,,,,,,,,,,,,,,,,,,,,,,,,,,,,,,,,,,,,,,576.7947,582.4403,strongly agree,0,0,0,0,1,I can easily tell if someone else wants to enter a conversation.,1,0,1,0,,
,,,,,,,,,5ca25f7048f78e0018fdac10,Spanish,13 or older,"no, only English or Spanish",no,2025-08-12_14h50.57.359,empathy_intonation_perc,2024.2.4,Win32,59.88023952,5ca25f7048f78e0018fdac10,687ed1b7e638a4cbf2f02089,689b8cf6f602fdab42d94437,,,,,,,,,,,,,2,,,,,,,,,,,,,,,,,,,,,,,,,,,,,,,,,,,,,,,,,,,,,,,,,,,,,,,,,,,,,,,,,,,,,,,,,,,,,,,582.4425,584.473,strongly disagree,0,1,1,1,1,I prefer animals to humans.,0,1,0,0,,
,,,,,,,,,5ca25f7048f78e0018fdac10,Spanish,13 or older,"no, only English or Spanish",no,2025-08-12_14h50.57.359,empathy_intonation_perc,2024.2.4,Win32,59.88023952,5ca25f7048f78e0018fdac10,687ed1b7e638a4cbf2f02089,689b8cf6f602fdab42d94437,,,,,,,,,,,,,3,,,,,,,,,,,,,,,,,,,,,,,,,,,,,,,,,,,,,,,,,,,,,,,,,,,,,,,,,,,,,,,,,,,,,,,,,,,,,,,584.4749,589.1714,strongly disagree,0,2,2,2,1,I try to keep up with the current trends and fashions.,0,1,0,0,,
,,,,,,,,,5ca25f7048f78e0018fdac10,Spanish,13 or older,"no, only English or Spanish",no,2025-08-12_14h50.57.359,empathy_intonation_perc,2024.2.4,Win32,59.88023952,5ca25f7048f78e0018fdac10,687ed1b7e638a4cbf2f02089,689b8cf6f602fdab42d94437,,,,,,,,,,,,,4,,,,,,,,,,,,,,,,,,,,,,,,,,,,,,,,,,,,,,,,,,,,,,,,,,,,,,,,,,,,,,,,,,,,,,,,,,,,,,,589.1736,593.6031,strongly disagree,0,3,3,3,1,"I find it difficult to explain to others things that I understand easily,   when they don't understand it first time.",1,0,0,1,,
,,,,,,,,,5ca25f7048f78e0018fdac10,Spanish,13 or older,"no, only English or Spanish",no,2025-08-12_14h50.57.359,empathy_intonation_perc,2024.2.4,Win32,59.88023952,5ca25f7048f78e0018fdac10,687ed1b7e638a4cbf2f02089,689b8cf6f602fdab42d94437,,,,,,,,,,,,,5,,,,,,,,,,,,,,,,,,,,,,,,,,,,,,,,,,,,,,,,,,,,,,,,,,,,,,,,,,,,,,,,,,,,,,,,,,,,,,,593.6041,595.3692,slightly disagree,0,4,4,4,1,I dream most nights.,0,1,0,0,,
,,,,,,,,,5ca25f7048f78e0018fdac10,Spanish,13 or older,"no, only English or Spanish",no,2025-08-12_14h50.57.359,empathy_intonation_perc,2024.2.4,Win32,59.88023952,5ca25f7048f78e0018fdac10,687ed1b7e638a4cbf2f02089,689b8cf6f602fdab42d94437,,,,,,,,,,,,,6,,,,,,,,,,,,,,,,,,,,,,,,,,,,,,,,,,,,,,,,,,,,,,,,,,,,,,,,,,,,,,,,,,,,,,,,,,,,,,,595.3709,598.0018,slightly agree,0,5,5,5,1,I really enjoy caring for other people.,1,0,1,0,,
,,,,,,,,,5ca25f7048f78e0018fdac10,Spanish,13 or older,"no, only English or Spanish",no,2025-08-12_14h50.57.359,empathy_intonation_perc,2024.2.4,Win32,59.88023952,5ca25f7048f78e0018fdac10,687ed1b7e638a4cbf2f02089,689b8cf6f602fdab42d94437,,,,,,,,,,,,,7,,,,,,,,,,,,,,,,,,,,,,,,,,,,,,,,,,,,,,,,,,,,,,,,,,,,,,,,,,,,,,,,,,,,,,,,,,,,,,,598.0039,599.7513,strongly agree,0,6,6,6,1,I try to solve my own problems rather than discussing them with others.,0,1,0,0,,
,,,,,,,,,5ca25f7048f78e0018fdac10,Spanish,13 or older,"no, only English or Spanish",no,2025-08-12_14h50.57.359,empathy_intonation_perc,2024.2.4,Win32,59.88023952,5ca25f7048f78e0018fdac10,687ed1b7e638a4cbf2f02089,689b8cf6f602fdab42d94437,,,,,,,,,,,,,8,,,,,,,,,,,,,,,,,,,,,,,,,,,,,,,,,,,,,,,,,,,,,,,,,,,,,,,,,,,,,,,,,,,,,,,,,,,,,,,599.7525,602.2501,slightly agree,0,7,7,7,1,I find it hard to know what to do in a social situation.,1,0,0,1,,
,,,,,,,,,5ca25f7048f78e0018fdac10,Spanish,13 or older,"no, only English or Spanish",no,2025-08-12_14h50.57.359,empathy_intonation_perc,2024.2.4,Win32,59.88023952,5ca25f7048f78e0018fdac10,687ed1b7e638a4cbf2f02089,689b8cf6f602fdab42d94437,,,,,,,,,,,,,9,,,,,,,,,,,,,,,,,,,,,,,,,,,,,,,,,,,,,,,,,,,,,,,,,,,,,,,,,,,,,,,,,,,,,,,,,,,,,,,602.2511,603.8329,slightly agree,0,8,8,8,1,I am at my best first thing in the morning.,0,1,0,0,,
,,,,,,,,,5ca25f7048f78e0018fdac10,Spanish,13 or older,"no, only English or Spanish",no,2025-08-12_14h50.57.359,empathy_intonation_perc,2024.2.4,Win32,59.88023952,5ca25f7048f78e0018fdac10,687ed1b7e638a4cbf2f02089,689b8cf6f602fdab42d94437,,,,,,,,,,,,,10,,,,,,,,,,,,,,,,,,,,,,,,,,,,,,,,,,,,,,,,,,,,,,,,,,,,,,,,,,,,,,,,,,,,,,,,,,,,,,,603.835,607.948,slightly disagree,0,9,9,9,1,People often tell me that I went too far in driving my point home in a discussion.,1,0,0,1,,
