instructions_exposure.started,instructions_exposure.stopped,instructions_exposure_loop.thisRepN,instructions_exposure_loop.thisTrialN,instructions_exposure_loop.thisN,instructions_exposure_loop.thisIndex,instructions_exposure_loop.ran,instructions_text,continue_text,participant_id,"What variety of Spanish are you most familiar with? (e.g., Peruvian, Spanish, Mexican)",At what age did you begin learning Spanish?,Are you proficient in any languages other than English/Spanish?,"Are you familiar with Caribbean (e.g., Caribbean, Puerto Rican) or Galician Spanish?",date,expName,psychopyVersion,OS,frameRate,id,study_id,session,trial_exposure.started,trial_exposure.stopped,key_resp_exposure.keys,key_resp_exposure.corr,key_resp_exposure.rt,key_resp_exposure.duration,key_resp.keys,exposure_loop.thisRepN,exposure_loop.thisTrialN,exposure_loop.thisN,exposure_loop.thisIndex,exposure_loop.ran,item_num,correct_response,question,path,duration,instructions_2afc.started,instructions_2afc.stopped,instructions_2afc_loop.thisRepN,instructions_2afc_loop.thisTrialN,instructions_2afc_loop.thisN,instructions_2afc_loop.thisIndex,instructions_2afc_loop.ran,practice_2afc.started,practice_2afc.stopped,key_resp_2afc_practice.keys,key_resp_2afc_practice.corr,key_resp_2afc_practice.rt,key_resp_2afc_practice.duration,trials_2afc_practice_loop.thisRepN,trials_2afc_practice_loop.thisTrialN,trials_2afc_practice_loop.thisN,trials_2afc_practice_loop.thisIndex,trials_2afc_practice_loop.ran,check_2afc.started,check_2afc.stopped,trial_2afc.started,trial_2afc.stopped,key_resp_2afc_trial.keys,key_resp_2afc_trial.corr,key_resp_2afc_trial.rt,key_resp_2afc_trial.duration,trials_2afc_loop.thisRepN,trials_2afc_loop.thisTrialN,trials_2afc_loop.thisN,trials_2afc_loop.thisIndex,trials_2afc_loop.ran,target,variety,instructions_lextale.started,instructions_lextale.stopped,instructions_lextale_loop.thisRepN,instructions_lextale_loop.thisTrialN,instructions_lextale_loop.thisN,instructions_lextale_loop.thisIndex,instructions_lextale_loop.ran,practice_lextale.started,practice_lextale.stopped,key_resp_lextale_practice.keys,key_resp_lextale_practice.corr,key_resp_lextale_practice.rt,key_resp_lextale_practice.duration,practice_feedback_lextale.started,practice_feedback_lextale.stopped,trials_lextale_practice_loop.thisRepN,trials_lextale_practice_loop.thisTrialN,trials_lextale_practice_loop.thisN,trials_lextale_practice_loop.thisIndex,trials_lextale_practice_loop.ran,stim,word,prac_button_real,prac_button_false,check_lextale.started,check_lextale.stopped,trial_lextale.started,trial_lextale.stopped,key_resp_lextale_trial.keys,key_resp_lextale_trial.corr,key_resp_lextale_trial.rt,key_resp_lextale_trial.duration,trials_lextale_loop.thisRepN,trials_lextale_loop.thisTrialN,trials_lextale_loop.thisN,trials_lextale_loop.thisIndex,trials_lextale_loop.ran,button_real,button_false,instructions_eq.started,instructions_eq.stopped,trial_eq.started,trial_eq.stopped,slider_eq_trial.response,trials_eq_loop.thisRepN,trials_eq_loop.thisTrialN,trials_eq_loop.thisN,trials_eq_loop.thisIndex,trials_eq_loop.ran,item,is_test_item,is_distractor,is_agree_score,is_disagree_score,end_exp.started,end_exp.stopped
0.0134,2.0744,0,0,0,0,1,"In the following task, you are going to hear a series of conversations.", (press the space bar to continue),5cd3d5760b858f0016ccd823,Mexican,13 or older,click here to respond,no,2025-07-22_21h38.42.864,empathy_intonation_perc,2024.2.4,Win32,11.99040767,5cd3d5760b858f0016ccd823,687ed1b7e638a4cbf2f02089,68803cfc350a438651958f70,,,,,,,,,,,,,,,,,,,,,,,,,,,,,,,,,,,,,,,,,,,,,,,,,,,,,,,,,,,,,,,,,,,,,,,,,,,,,,,,,,,,,,,,,,,,,,,,,,,,,,,,,,
2.0748,7.4295,0,1,1,1,1,It is okay if you don't not 100% understand them!, (press the space bar to continue),5cd3d5760b858f0016ccd823,Mexican,13 or older,click here to respond,no,2025-07-22_21h38.42.864,empathy_intonation_perc,2024.2.4,Win32,11.99040767,5cd3d5760b858f0016ccd823,687ed1b7e638a4cbf2f02089,68803cfc350a438651958f70,,,,,,,,,,,,,,,,,,,,,,,,,,,,,,,,,,,,,,,,,,,,,,,,,,,,,,,,,,,,,,,,,,,,,,,,,,,,,,,,,,,,,,,,,,,,,,,,,,,,,,,,,,
7.431,10.1728,0,2,2,2,1,"After, you will read a sentence about the conversation and decide if it's true or false.", (press the space bar to continue),5cd3d5760b858f0016ccd823,Mexican,13 or older,click here to respond,no,2025-07-22_21h38.42.864,empathy_intonation_perc,2024.2.4,Win32,11.99040767,5cd3d5760b858f0016ccd823,687ed1b7e638a4cbf2f02089,68803cfc350a438651958f70,,,,,,,,,,,,,,,,,,,,,,,,,,,,,,,,,,,,,,,,,,,,,,,,,,,,,,,,,,,,,,,,,,,,,,,,,,,,,,,,,,,,,,,,,,,,,,,,,,,,,,,,,,
10.1746,14.8598,0,3,3,3,1,"If it's true, press '1' (True) and if it's false press '0' (False).", (press the space bar to continue),5cd3d5760b858f0016ccd823,Mexican,13 or older,click here to respond,no,2025-07-22_21h38.42.864,empathy_intonation_perc,2024.2.4,Win32,11.99040767,5cd3d5760b858f0016ccd823,687ed1b7e638a4cbf2f02089,68803cfc350a438651958f70,,,,,,,,,,,,,,,,,,,,,,,,,,,,,,,,,,,,,,,,,,,,,,,,,,,,,,,,,,,,,,,,,,,,,,,,,,,,,,,,,,,,,,,,,,,,,,,,,,,,,,,,,,
,,,,,,,,,5cd3d5760b858f0016ccd823,Mexican,13 or older,click here to respond,no,2025-07-22_21h38.42.864,empathy_intonation_perc,2024.2.4,Win32,11.99040767,5cd3d5760b858f0016ccd823,687ed1b7e638a4cbf2f02089,68803cfc350a438651958f70,14.8659,81.4828,1,1,6.4447,0.0002,,0,0,0,1,1,2,1,The mom asked the daughter if she already went to the supermarket.,./stim/exposure_wavs/dr_stimuli_convo.wav,60,,,,,,,,,,,,,,,,,,,,,,,,,,,,,,,,,,,,,,,,,,,,,,,,,,,,,,,,,,,,,,,,,,,,,,,,,,,,,,,,,,,,,,,,,
,,,,,,,,,5cd3d5760b858f0016ccd823,Mexican,13 or older,click here to respond,no,2025-07-22_21h38.42.864,empathy_intonation_perc,2024.2.4,Win32,11.99040767,5cd3d5760b858f0016ccd823,687ed1b7e638a4cbf2f02089,68803cfc350a438651958f70,81.4845,137.5013,1,1,8.8988,,,0,1,1,0,1,1,1,The son asked the mom if Aunt Marina is okay.,./stim/exposure_wavs/ga_stimuli_convo.wav,47,,,,,,,,,,,,,,,,,,,,,,,,,,,,,,,,,,,,,,,,,,,,,,,,,,,,,,,,,,,,,,,,,,,,,,,,,,,,,,,,,,,,,,,,,
,,,,,,,,,5cd3d5760b858f0016ccd823,Mexican,13 or older,click here to respond,no,2025-07-22_21h38.42.864,empathy_intonation_perc,2024.2.4,Win32,11.99040767,5cd3d5760b858f0016ccd823,687ed1b7e638a4cbf2f02089,68803cfc350a438651958f70,137.503,177.4324,0,1,3.8159,,,0,2,2,2,1,3,0,The mom already has rice.,./stim/exposure_wavs/pr_stimuli_convo.wav,36,,,,,,,,,,,,,,,,,,,,,,,,,,,,,,,,,,,,,,,,,,,,,,,,,,,,,,,,,,,,,,,,,,,,,,,,,,,,,,,,,,,,,,,,,
,,,,,,,"In the following task you are going to hear a series of utterances. 

  You will decide if the utterances sound like questions or not using your keyboard.", (press the spacebar to continue),5cd3d5760b858f0016ccd823,Mexican,13 or older,click here to respond,no,2025-07-22_21h38.42.864,empathy_intonation_perc,2024.2.4,Win32,11.99040767,5cd3d5760b858f0016ccd823,687ed1b7e638a4cbf2f02089,68803cfc350a438651958f70,,,,,,,,,,,,,,,,,,177.4357,186.5465,0,0,0,0,1,,,,,,,,,,,,,,,,,,,,,,,,,,,,,,,,,,,,,,,,,,,,,,,,,,,,,,,,,,,,,,,,,,,,,,,,,,,,,,,,,,
,,,,,,,"If you believe the utterance is a question, type '1' (for 'yes') and if you do not 
  believe it is a question type '0' (for 'no').

  Let's practice a bit...", (press the spacebar to continue),5cd3d5760b858f0016ccd823,Mexican,13 or older,click here to respond,no,2025-07-22_21h38.42.864,empathy_intonation_perc,2024.2.4,Win32,11.99040767,5cd3d5760b858f0016ccd823,687ed1b7e638a4cbf2f02089,68803cfc350a438651958f70,,,,,,,,,,,,,,,,,,186.5481,196.3398,0,1,1,1,1,,,,,,,,,,,,,,,,,,,,,,,,,,,,,,,,,,,,,,,,,,,,,,,,,,,,,,,,,,,,,,,,,,,,,,,,,,,,,,,,,,
,,,,,,,,,5cd3d5760b858f0016ccd823,Mexican,13 or older,click here to respond,no,2025-07-22_21h38.42.864,empathy_intonation_perc,2024.2.4,Win32,11.99040767,5cd3d5760b858f0016ccd823,687ed1b7e638a4cbf2f02089,68803cfc350a438651958f70,,,,,,,,,,,,,,0,,./stim/wavs/cuban_statement_filler_Cocinabas-por-la-noche.wav,,,,,,,,,196.3442,200.2012,0,1,3.202,,0,0,0,4,1,,,,,,,,,,,,,,,,,,,,,,,,,,,,,,,,,,,,,,,,,,,,,,,,,,,,,,,,,,,,,,,,,,,,,,,
,,,,,,,,,5cd3d5760b858f0016ccd823,Mexican,13 or older,click here to respond,no,2025-07-22_21h38.42.864,empathy_intonation_perc,2024.2.4,Win32,11.99040767,5cd3d5760b858f0016ccd823,687ed1b7e638a4cbf2f02089,68803cfc350a438651958f70,,,,,,,,,,,,,,0,,./stim/wavs/peruvian_statement_filler_El-nino-habla-con-su-madre.wav,,,,,,,,,200.2017,203.274,0,1,2.4205,,0,1,1,6,1,,,,,,,,,,,,,,,,,,,,,,,,,,,,,,,,,,,,,,,,,,,,,,,,,,,,,,,,,,,,,,,,,,,,,,,
,,,,,,,,,5cd3d5760b858f0016ccd823,Mexican,13 or older,click here to respond,no,2025-07-22_21h38.42.864,empathy_intonation_perc,2024.2.4,Win32,11.99040767,5cd3d5760b858f0016ccd823,687ed1b7e638a4cbf2f02089,68803cfc350a438651958f70,,,,,,,,,,,,,,1,,./stim/wavs/mexican_question_filler_Felipe-no-tiene-contrasena.wav,,,,,,,,,203.2744,205.7648,1,1,1.8349,0.0001,0,2,2,3,1,,,,,,,,,,,,,,,,,,,,,,,,,,,,,,,,,,,,,,,,,,,,,,,,,,,,,,,,,,,,,,,,,,,,,,,
,,,,,,,,,5cd3d5760b858f0016ccd823,Mexican,13 or older,click here to respond,no,2025-07-22_21h38.42.864,empathy_intonation_perc,2024.2.4,Win32,11.99040767,5cd3d5760b858f0016ccd823,687ed1b7e638a4cbf2f02089,68803cfc350a438651958f70,,,,,,,,,,,,,,1,,./stim/wavs/castilian_question_filler_Mi-esposo-conoce-al-chico.wav,,,,,,,,,205.7653,208.2938,1,1,1.8593,,0,3,3,0,1,,,,,,,,,,,,,,,,,,,,,,,,,,,,,,,,,,,,,,,,,,,,,,,,,,,,,,,,,,,,,,,,,,,,,,,
,,,,,,,,,5cd3d5760b858f0016ccd823,Mexican,13 or older,click here to respond,no,2025-07-22_21h38.42.864,empathy_intonation_perc,2024.2.4,Win32,11.99040767,5cd3d5760b858f0016ccd823,687ed1b7e638a4cbf2f02089,68803cfc350a438651958f70,,,,,,,,,,,,,,0,,./stim/wavs/andalusian_statement_filler_Alberto-nunca-se-afeita.wav,,,,,,,,,208.2942,210.7817,1,0,1.8084,,0,4,4,5,1,,,,,,,,,,,,,,,,,,,,,,,,,,,,,,,,,,,,,,,,,,,,,,,,,,,,,,,,,,,,,,,,,,,,,,,
,,,,,,,,,5cd3d5760b858f0016ccd823,Mexican,13 or older,click here to respond,no,2025-07-22_21h38.42.864,empathy_intonation_perc,2024.2.4,Win32,11.99040767,5cd3d5760b858f0016ccd823,687ed1b7e638a4cbf2f02089,68803cfc350a438651958f70,,,,,,,,,,,,,,1,,./stim/wavs/chilean_question_filler_Mi-padre-cantaba-bien.wav,,,,,,,,,210.782,213.1118,1,1,1.6714,0.0002,0,5,5,2,1,,,,,,,,,,,,,,,,,,,,,,,,,,,,,,,,,,,,,,,,,,,,,,,,,,,,,,,,,,,,,,,,,,,,,,,
,,,,,,,,,5cd3d5760b858f0016ccd823,Mexican,13 or older,click here to respond,no,2025-07-22_21h38.42.864,empathy_intonation_perc,2024.2.4,Win32,11.99040767,5cd3d5760b858f0016ccd823,687ed1b7e638a4cbf2f02089,68803cfc350a438651958f70,,,,,,,,,,,,,,0,,./stim/wavs/puertorican_statement_filler_La-nina-pinta-con-su-amiga.wav,,,,,,,,,213.1121,216.1739,0,1,2.4165,,0,6,6,7,1,,,,,,,,,,,,,,,,,,,,,,,,,,,,,,,,,,,,,,,,,,,,,,,,,,,,,,,,,,,,,,,,,,,,,,,
,,,,,,,,,5cd3d5760b858f0016ccd823,Mexican,13 or older,click here to respond,no,2025-07-22_21h38.42.864,empathy_intonation_perc,2024.2.4,Win32,11.99040767,5cd3d5760b858f0016ccd823,687ed1b7e638a4cbf2f02089,68803cfc350a438651958f70,,,,,,,,,,,,,,1,,./stim/wavs/argentine_question_filler_Mi-vecino-habla-mucho.wav,,,,,,,,,216.1742,218.3265,1,1,1.5083,,0,7,7,1,1,,,,,,,,,,,,,,,,,,,,,,,,,,,,,,,,,,,,,,,,,,,,,,,,,,,,,,,,,,,,,,,,,,,,,,,
,,,,,,,,,5cd3d5760b858f0016ccd823,Mexican,13 or older,click here to respond,no,2025-07-22_21h38.42.864,empathy_intonation_perc,2024.2.4,Win32,11.99040767,5cd3d5760b858f0016ccd823,687ed1b7e638a4cbf2f02089,68803cfc350a438651958f70,,,,,,,,,,,,,,,,,,,,,,,,,,,,,,,,,,,,218.3267,219.9493,,,,,,,,,,,,,,,,,,,,,,,,,,,,,,,,,,,,,,,,,,,,,,,,,,,,,,,,,,,,,,,,,,,,,
,,,,,,,,,5cd3d5760b858f0016ccd823,Mexican,13 or older,click here to respond,no,2025-07-22_21h38.42.864,empathy_intonation_perc,2024.2.4,Win32,11.99040767,5cd3d5760b858f0016ccd823,687ed1b7e638a4cbf2f02089,68803cfc350a438651958f70,,,,,,,,,,,,,71,0,,./stim/wavs/castilian_mismatch_declarative-broad-focus_La-nina-lava-el-plato.wav,,,,,,,,,,,,,,,,,,,,,,219.956,222.9226,0,1,2.3331,,0,0,0,70,1,0,castilian,,,,,,,,,,,,,,,,,,,,,,,,,,,,,,,,,,,,,,,,,,,,,,,,,,,,,,,,
,,,,,,,,,5cd3d5760b858f0016ccd823,Mexican,13 or older,click here to respond,no,2025-07-22_21h38.42.864,empathy_intonation_perc,2024.2.4,Win32,11.99040767,5cd3d5760b858f0016ccd823,687ed1b7e638a4cbf2f02089,68803cfc350a438651958f70,,,,,,,,,,,,,68,0,,./stim/wavs/puertorican_match_declarative-broad-focus_Maria-bebe-el-vino.wav,,,,,,,,,,,,,,,,,,,,,,222.9231,227.2164,1,0,3.6208,,0,1,1,67,1,0,puertorican,,,,,,,,,,,,,,,,,,,,,,,,,,,,,,,,,,,,,,,,,,,,,,,,,,,,,,,,
,,,,,,,,,5cd3d5760b858f0016ccd823,Mexican,13 or older,click here to respond,no,2025-07-22_21h38.42.864,empathy_intonation_perc,2024.2.4,Win32,11.99040767,5cd3d5760b858f0016ccd823,687ed1b7e638a4cbf2f02089,68803cfc350a438651958f70,,,,,,,,,,,,,11,1,,./stim/wavs/cuban_match_interrogative-total-yn_Mariano-habla-del-tiempo.wav,,,,,,,,,,,,,,,,,,,,,,227.2168,230.0948,0,0,2.2152,,0,2,2,10,1,1,cuban,,,,,,,,,,,,,,,,,,,,,,,,,,,,,,,,,,,,,,,,,,,,,,,,,,,,,,,,
,,,,,,,,,5cd3d5760b858f0016ccd823,Mexican,13 or older,click here to respond,no,2025-07-22_21h38.42.864,empathy_intonation_perc,2024.2.4,Win32,11.99040767,5cd3d5760b858f0016ccd823,687ed1b7e638a4cbf2f02089,68803cfc350a438651958f70,,,,,,,,,,,,,52,0,,./stim/wavs/cuban_match_declarative-broad-focus_Daniel-iba-a-Bolivia.wav,,,,,,,,,,,,,,,,,,,,,,230.0952,232.855,0,1,2.0867,,0,3,3,51,1,0,cuban,,,,,,,,,,,,,,,,,,,,,,,,,,,,,,,,,,,,,,,,,,,,,,,,,,,,,,,,
,,,,,,,,,5cd3d5760b858f0016ccd823,Mexican,13 or older,click here to respond,no,2025-07-22_21h38.42.864,empathy_intonation_perc,2024.2.4,Win32,11.99040767,5cd3d5760b858f0016ccd823,687ed1b7e638a4cbf2f02089,68803cfc350a438651958f70,,,,,,,,,,,,,58,0,,./stim/wavs/mexican_match_declarative-broad-focus_Daniel-iba-a-Bolivia.wav,,,,,,,,,,,,,,,,,,,,,,232.8554,235.9285,0,1,2.405,,0,4,4,57,1,0,mexican,,,,,,,,,,,,,,,,,,,,,,,,,,,,,,,,,,,,,,,,,,,,,,,,,,,,,,,,
,,,,,,,,,5cd3d5760b858f0016ccd823,Mexican,13 or older,click here to respond,no,2025-07-22_21h38.42.864,empathy_intonation_perc,2024.2.4,Win32,11.99040767,5cd3d5760b858f0016ccd823,687ed1b7e638a4cbf2f02089,68803cfc350a438651958f70,,,,,,,,,,,,,45,0,,./stim/wavs/castilian_match_declarative-broad-focus_David-leia-el-libro.wav,,,,,,,,,,,,,,,,,,,,,,235.9288,240.4849,0,1,3.9101,,0,5,5,44,1,0,castilian,,,,,,,,,,,,,,,,,,,,,,,,,,,,,,,,,,,,,,,,,,,,,,,,,,,,,,,,
,,,,,,,,,5cd3d5760b858f0016ccd823,Mexican,13 or older,click here to respond,no,2025-07-22_21h38.42.864,empathy_intonation_perc,2024.2.4,Win32,11.99040767,5cd3d5760b858f0016ccd823,687ed1b7e638a4cbf2f02089,68803cfc350a438651958f70,,,,,,,,,,,,,81,0,,./stim/wavs/mexican_mismatch_declarative-broad-focus_La-maestra-vive-en-Paris.wav,,,,,,,,,,,,,,,,,,,,,,240.4852,246.6101,0,1,5.4662,,0,6,6,80,1,0,mexican,,,,,,,,,,,,,,,,,,,,,,,,,,,,,,,,,,,,,,,,,,,,,,,,,,,,,,,,
,,,,,,,,,5cd3d5760b858f0016ccd823,Mexican,13 or older,click here to respond,no,2025-07-22_21h38.42.864,empathy_intonation_perc,2024.2.4,Win32,11.99040767,5cd3d5760b858f0016ccd823,687ed1b7e638a4cbf2f02089,68803cfc350a438651958f70,,,,,,,,,,,,,30,1,,./stim/wavs/cuban_mismatch_interrogative-total-yn_El-hombre-mira-la-luna.wav,,,,,,,,,,,,,,,,,,,,,,246.6106,255.7997,0,0,8.5381,,0,7,7,29,1,1,cuban,,,,,,,,,,,,,,,,,,,,,,,,,,,,,,,,,,,,,,,,,,,,,,,,,,,,,,,,
,,,,,,,,,5cd3d5760b858f0016ccd823,Mexican,13 or older,click here to respond,no,2025-07-22_21h38.42.864,empathy_intonation_perc,2024.2.4,Win32,11.99040767,5cd3d5760b858f0016ccd823,687ed1b7e638a4cbf2f02089,68803cfc350a438651958f70,,,,,,,,,,,,,84,0,,./stim/wavs/puertorican_mismatch_declarative-broad-focus_El-bebe-comia-muy-bien.wav,,,,,,,,,,,,,,,,,,,,,,255.8,258.4709,1,0,2.0148,,0,8,8,83,1,0,puertorican,,,,,,,,,,,,,,,,,,,,,,,,,,,,,,,,,,,,,,,,,,,,,,,,,,,,,,,,
,,,,,,,,,5cd3d5760b858f0016ccd823,Mexican,13 or older,click here to respond,no,2025-07-22_21h38.42.864,empathy_intonation_perc,2024.2.4,Win32,11.99040767,5cd3d5760b858f0016ccd823,687ed1b7e638a4cbf2f02089,68803cfc350a438651958f70,,,,,,,,,,,,,77,0,,./stim/wavs/cuban_mismatch_declarative-broad-focus_Mi-novio-viene-del-lago.wav,,,,,,,,,,,,,,,,,,,,,,258.4714,262.9128,0,1,3.805,,0,9,9,76,1,0,cuban,,,,,,,,,,,,,,,,,,,,,,,,,,,,,,,,,,,,,,,,,,,,,,,,,,,,,,,,
,,,,,,,,,5cd3d5760b858f0016ccd823,Mexican,13 or older,click here to respond,no,2025-07-22_21h38.42.864,empathy_intonation_perc,2024.2.4,Win32,11.99040767,5cd3d5760b858f0016ccd823,687ed1b7e638a4cbf2f02089,68803cfc350a438651958f70,,,,,,,,,,,,,87,0,,./stim/wavs/puertorican_mismatch_declarative-broad-focus_La-maestra-vive-en-Paris.wav,,,,,,,,,,,,,,,,,,,,,,262.9131,265.4791,0,1,1.9241,,0,10,10,86,1,0,puertorican,,,,,,,,,,,,,,,,,,,,,,,,,,,,,,,,,,,,,,,,,,,,,,,,,,,,,,,,
,,,,,,,,,5cd3d5760b858f0016ccd823,Mexican,13 or older,click here to respond,no,2025-07-22_21h38.42.864,empathy_intonation_perc,2024.2.4,Win32,11.99040767,5cd3d5760b858f0016ccd823,687ed1b7e638a4cbf2f02089,68803cfc350a438651958f70,,,,,,,,,,,,,9,1,,./stim/wavs/cuban_match_interrogative-total-yn_Manuela-vende-el-carro.wav,,,,,,,,,,,,,,,,,,,,,,265.4795,269.2259,0,0,3.073,,0,11,11,8,1,1,cuban,,,,,,,,,,,,,,,,,,,,,,,,,,,,,,,,,,,,,,,,,,,,,,,,,,,,,,,,
,,,,,,,,,5cd3d5760b858f0016ccd823,Mexican,13 or older,click here to respond,no,2025-07-22_21h38.42.864,empathy_intonation_perc,2024.2.4,Win32,11.99040767,5cd3d5760b858f0016ccd823,687ed1b7e638a4cbf2f02089,68803cfc350a438651958f70,,,,,,,,,,,,,76,0,,./stim/wavs/cuban_mismatch_declarative-broad-focus_La-nina-lava-el-plato.wav,,,,,,,,,,,,,,,,,,,,,,269.2263,274.3587,1,0,4.4664,,0,12,12,75,1,0,cuban,,,,,,,,,,,,,,,,,,,,,,,,,,,,,,,,,,,,,,,,,,,,,,,,,,,,,,,,
,,,,,,,,,5cd3d5760b858f0016ccd823,Mexican,13 or older,click here to respond,no,2025-07-22_21h38.42.864,empathy_intonation_perc,2024.2.4,Win32,11.99040767,5cd3d5760b858f0016ccd823,687ed1b7e638a4cbf2f02089,68803cfc350a438651958f70,,,,,,,,,,,,,79,0,,./stim/wavs/mexican_mismatch_declarative-broad-focus_El-bebe-comia-muy-bien.wav,,,,,,,,,,,,,,,,,,,,,,274.3591,277.8223,1,0,2.8385,,0,13,13,78,1,0,mexican,,,,,,,,,,,,,,,,,,,,,,,,,,,,,,,,,,,,,,,,,,,,,,,,,,,,,,,,
,,,,,,,,,5cd3d5760b858f0016ccd823,Mexican,13 or older,click here to respond,no,2025-07-22_21h38.42.864,empathy_intonation_perc,2024.2.4,Win32,11.99040767,5cd3d5760b858f0016ccd823,687ed1b7e638a4cbf2f02089,68803cfc350a438651958f70,,,,,,,,,,,,,61,0,,./stim/wavs/mexican_match_declarative-broad-focus_Mariano-habla-del-tiempo.wav,,,,,,,,,,,,,,,,,,,,,,277.8227,280.5132,0,1,2.0142,,0,14,14,60,1,0,mexican,,,,,,,,,,,,,,,,,,,,,,,,,,,,,,,,,,,,,,,,,,,,,,,,,,,,,,,,
,,,,,,,,,5cd3d5760b858f0016ccd823,Mexican,13 or older,click here to respond,no,2025-07-22_21h38.42.864,empathy_intonation_perc,2024.2.4,Win32,11.99040767,5cd3d5760b858f0016ccd823,687ed1b7e638a4cbf2f02089,68803cfc350a438651958f70,,,,,,,,,,,,,56,0,,./stim/wavs/cuban_match_declarative-broad-focus_Marta-abre-el-regalo.wav,,,,,,,,,,,,,,,,,,,,,,280.5136,283.4688,0,1,2.3014,,0,15,15,55,1,0,cuban,,,,,,,,,,,,,,,,,,,,,,,,,,,,,,,,,,,,,,,,,,,,,,,,,,,,,,,,
,,,,,,,,,5cd3d5760b858f0016ccd823,Mexican,13 or older,click here to respond,no,2025-07-22_21h38.42.864,empathy_intonation_perc,2024.2.4,Win32,11.99040767,5cd3d5760b858f0016ccd823,687ed1b7e638a4cbf2f02089,68803cfc350a438651958f70,,,,,,,,,,,,,5,1,,./stim/wavs/castilian_match_interrogative-total-yn_Mariano-habla-del-tiempo.wav,,,,,,,,,,,,,,,,,,,,,,283.4693,286.2217,1,1,2.0785,,0,16,16,4,1,0,castilian,,,,,,,,,,,,,,,,,,,,,,,,,,,,,,,,,,,,,,,,,,,,,,,,,,,,,,,,
,,,,,,,,,5cd3d5760b858f0016ccd823,Mexican,13 or older,click here to respond,no,2025-07-22_21h38.42.864,empathy_intonation_perc,2024.2.4,Win32,11.99040767,5cd3d5760b858f0016ccd823,687ed1b7e638a4cbf2f02089,68803cfc350a438651958f70,,,,,,,,,,,,,28,1,,./stim/wavs/castilian_mismatch_interrogative-total-yn_Mi-novio-viene-del-lago.wav,,,,,,,,,,,,,,,,,,,,,,286.2221,288.5981,1,1,1.7397,,0,17,17,27,1,0,castilian,,,,,,,,,,,,,,,,,,,,,,,,,,,,,,,,,,,,,,,,,,,,,,,,,,,,,,,,
,,,,,,,,,5cd3d5760b858f0016ccd823,Mexican,13 or older,click here to respond,no,2025-07-22_21h38.42.864,empathy_intonation_perc,2024.2.4,Win32,11.99040767,5cd3d5760b858f0016ccd823,687ed1b7e638a4cbf2f02089,68803cfc350a438651958f70,,,,,,,,,,,,,44,1,,./stim/wavs/puertorican_mismatch_interrogative-total-yn_Mi-madre-come-la-fruta.wav,,,,,,,,,,,,,,,,,,,,,,288.5985,294.0582,0,0,4.8087,,0,18,18,43,1,1,puertorican,,,,,,,,,,,,,,,,,,,,,,,,,,,,,,,,,,,,,,,,,,,,,,,,,,,,,,,,
,,,,,,,,,5cd3d5760b858f0016ccd823,Mexican,13 or older,click here to respond,no,2025-07-22_21h38.42.864,empathy_intonation_perc,2024.2.4,Win32,11.99040767,5cd3d5760b858f0016ccd823,687ed1b7e638a4cbf2f02089,68803cfc350a438651958f70,,,,,,,,,,,,,38,1,,./stim/wavs/mexican_mismatch_interrogative-total-yn_Mi-novio-viene-del-lago.wav,,,,,,,,,,,,,,,,,,,,,,294.0585,296.9359,1,1,2.2364,,0,19,19,37,1,0,mexican,,,,,,,,,,,,,,,,,,,,,,,,,,,,,,,,,,,,,,,,,,,,,,,,,,,,,,,,
,,,,,,,,,5cd3d5760b858f0016ccd823,Mexican,13 or older,click here to respond,no,2025-07-22_21h38.42.864,empathy_intonation_perc,2024.2.4,Win32,11.99040767,5cd3d5760b858f0016ccd823,687ed1b7e638a4cbf2f02089,68803cfc350a438651958f70,,,,,,,,,,,,,6,1,,./stim/wavs/castilian_match_interrogative-total-yn_Marta-abre-el-regalo.wav,,,,,,,,,,,,,,,,,,,,,,296.9363,300.1026,1,1,2.529,,0,20,20,5,1,0,castilian,,,,,,,,,,,,,,,,,,,,,,,,,,,,,,,,,,,,,,,,,,,,,,,,,,,,,,,,
,,,,,,,,,5cd3d5760b858f0016ccd823,Mexican,13 or older,click here to respond,no,2025-07-22_21h38.42.864,empathy_intonation_perc,2024.2.4,Win32,11.99040767,5cd3d5760b858f0016ccd823,687ed1b7e638a4cbf2f02089,68803cfc350a438651958f70,,,,,,,,,,,,,40,1,,./stim/wavs/puertorican_mismatch_interrogative-total-yn_El-hombre-mira-la-luna.wav,,,,,,,,,,,,,,,,,,,,,,300.103,303.7488,0,0,3.0082,,0,21,21,39,1,1,puertorican,,,,,,,,,,,,,,,,,,,,,,,,,,,,,,,,,,,,,,,,,,,,,,,,,,,,,,,,
,,,,,,,,,5cd3d5760b858f0016ccd823,Mexican,13 or older,click here to respond,no,2025-07-22_21h38.42.864,empathy_intonation_perc,2024.2.4,Win32,11.99040767,5cd3d5760b858f0016ccd823,687ed1b7e638a4cbf2f02089,68803cfc350a438651958f70,,,,,,,,,,,,,8,1,,./stim/wavs/cuban_match_interrogative-total-yn_Daniel-iba-a-Bolivia.wav,,,,,,,,,,,,,,,,,,,,,,303.7492,307.1064,0,0,2.6703,,0,22,22,7,1,1,cuban,,,,,,,,,,,,,,,,,,,,,,,,,,,,,,,,,,,,,,,,,,,,,,,,,,,,,,,,
,,,,,,,,,5cd3d5760b858f0016ccd823,Mexican,13 or older,click here to respond,no,2025-07-22_21h38.42.864,empathy_intonation_perc,2024.2.4,Win32,11.99040767,5cd3d5760b858f0016ccd823,687ed1b7e638a4cbf2f02089,68803cfc350a438651958f70,,,,,,,,,,,,,55,0,,./stim/wavs/cuban_match_declarative-broad-focus_Mariano-habla-del-tiempo.wav,,,,,,,,,,,,,,,,,,,,,,307.1067,310.0475,0,1,2.2805,,0,23,23,54,1,0,cuban,,,,,,,,,,,,,,,,,,,,,,,,,,,,,,,,,,,,,,,,,,,,,,,,,,,,,,,,
,,,,,,,,,5cd3d5760b858f0016ccd823,Mexican,13 or older,click here to respond,no,2025-07-22_21h38.42.864,empathy_intonation_perc,2024.2.4,Win32,11.99040767,5cd3d5760b858f0016ccd823,687ed1b7e638a4cbf2f02089,68803cfc350a438651958f70,,,,,,,,,,,,,69,0,,./stim/wavs/castilian_mismatch_declarative-broad-focus_El-nino-oye-el-rio.wav,,,,,,,,,,,,,,,,,,,,,,310.048,314.0975,0,1,3.3862,,0,24,24,68,1,0,castilian,,,,,,,,,,,,,,,,,,,,,,,,,,,,,,,,,,,,,,,,,,,,,,,,,,,,,,,,
,,,,,,,,,5cd3d5760b858f0016ccd823,Mexican,13 or older,click here to respond,no,2025-07-22_21h38.42.864,empathy_intonation_perc,2024.2.4,Win32,11.99040767,5cd3d5760b858f0016ccd823,687ed1b7e638a4cbf2f02089,68803cfc350a438651958f70,,,,,,,,,,,,,39,1,,./stim/wavs/mexican_mismatch_interrogative-total-yn_Mi-tia-odia-la-lluvia.wav,,,,,,,,,,,,,,,,,,,,,,314.098,317.787,1,1,3.0443,,0,25,25,38,1,0,mexican,,,,,,,,,,,,,,,,,,,,,,,,,,,,,,,,,,,,,,,,,,,,,,,,,,,,,,,,
,,,,,,,,,5cd3d5760b858f0016ccd823,Mexican,13 or older,click here to respond,no,2025-07-22_21h38.42.864,empathy_intonation_perc,2024.2.4,Win32,11.99040767,5cd3d5760b858f0016ccd823,687ed1b7e638a4cbf2f02089,68803cfc350a438651958f70,,,,,,,,,,,,,48,0,,./stim/wavs/castilian_match_declarative-broad-focus_Maria-bebe-el-vino.wav,,,,,,,,,,,,,,,,,,,,,,317.7874,321.2249,0,1,2.7914,,0,26,26,47,1,0,castilian,,,,,,,,,,,,,,,,,,,,,,,,,,,,,,,,,,,,,,,,,,,,,,,,,,,,,,,,
,,,,,,,,,5cd3d5760b858f0016ccd823,Mexican,13 or older,click here to respond,no,2025-07-22_21h38.42.864,empathy_intonation_perc,2024.2.4,Win32,11.99040767,5cd3d5760b858f0016ccd823,687ed1b7e638a4cbf2f02089,68803cfc350a438651958f70,,,,,,,,,,,,,67,0,,./stim/wavs/puertorican_match_declarative-broad-focus_Manuela-vende-el-carro.wav,,,,,,,,,,,,,,,,,,,,,,321.2252,324.3544,0,1,2.4669,,0,27,27,66,1,0,puertorican,,,,,,,,,,,,,,,,,,,,,,,,,,,,,,,,,,,,,,,,,,,,,,,,,,,,,,,,
,,,,,,,,,5cd3d5760b858f0016ccd823,Mexican,13 or older,click here to respond,no,2025-07-22_21h38.42.864,empathy_intonation_perc,2024.2.4,Win32,11.99040767,5cd3d5760b858f0016ccd823,687ed1b7e638a4cbf2f02089,68803cfc350a438651958f70,,,,,,,,,,,,,80,0,,./stim/wavs/mexican_mismatch_declarative-broad-focus_El-hombre-mira-la-luna.wav,,,,,,,,,,,,,,,,,,,,,,324.3548,326.6986,0,1,1.6952,,0,28,28,79,1,0,mexican,,,,,,,,,,,,,,,,,,,,,,,,,,,,,,,,,,,,,,,,,,,,,,,,,,,,,,,,
,,,,,,,,,5cd3d5760b858f0016ccd823,Mexican,13 or older,click here to respond,no,2025-07-22_21h38.42.864,empathy_intonation_perc,2024.2.4,Win32,11.99040767,5cd3d5760b858f0016ccd823,687ed1b7e638a4cbf2f02089,68803cfc350a438651958f70,,,,,,,,,,,,,83,0,,./stim/wavs/mexican_mismatch_declarative-broad-focus_Mi-tia-odia-la-lluvia.wav,,,,,,,,,,,,,,,,,,,,,,326.6991,329.9823,0,1,2.6048,,0,29,29,82,1,0,mexican,,,,,,,,,,,,,,,,,,,,,,,,,,,,,,,,,,,,,,,,,,,,,,,,,,,,,,,,
,,,,,,,,,5cd3d5760b858f0016ccd823,Mexican,13 or older,click here to respond,no,2025-07-22_21h38.42.864,empathy_intonation_perc,2024.2.4,Win32,11.99040767,5cd3d5760b858f0016ccd823,687ed1b7e638a4cbf2f02089,68803cfc350a438651958f70,,,,,,,,,,,,,17,1,,./stim/wavs/mexican_match_interrogative-total-yn_Mariano-habla-del-tiempo.wav,,,,,,,,,,,,,,,,,,,,,,329.9825,333.2539,1,1,2.5906,,0,30,30,16,1,0,mexican,,,,,,,,,,,,,,,,,,,,,,,,,,,,,,,,,,,,,,,,,,,,,,,,,,,,,,,,
,,,,,,,,,5cd3d5760b858f0016ccd823,Mexican,13 or older,click here to respond,no,2025-07-22_21h38.42.864,empathy_intonation_perc,2024.2.4,Win32,11.99040767,5cd3d5760b858f0016ccd823,687ed1b7e638a4cbf2f02089,68803cfc350a438651958f70,,,,,,,,,,,,,23,1,,./stim/wavs/puertorican_match_interrogative-total-yn_Manuela-vende-el-carro.wav,,,,,,,,,,,,,,,,,,,,,,333.2543,336.4927,1,1,2.5811,,0,31,31,22,1,1,puertorican,,,,,,,,,,,,,,,,,,,,,,,,,,,,,,,,,,,,,,,,,,,,,,,,,,,,,,,,
,,,,,,,,,5cd3d5760b858f0016ccd823,Mexican,13 or older,click here to respond,no,2025-07-22_21h38.42.864,empathy_intonation_perc,2024.2.4,Win32,11.99040767,5cd3d5760b858f0016ccd823,687ed1b7e638a4cbf2f02089,68803cfc350a438651958f70,,,,,,,,,,,,,13,1,,./stim/wavs/mexican_match_interrogative-total-yn_Ana-lleva-el-abrigo.wav,,,,,,,,,,,,,,,,,,,,,,336.493,338.7375,1,1,1.5837,,0,32,32,12,1,0,mexican,,,,,,,,,,,,,,,,,,,,,,,,,,,,,,,,,,,,,,,,,,,,,,,,,,,,,,,,
,,,,,,,,,5cd3d5760b858f0016ccd823,Mexican,13 or older,click here to respond,no,2025-07-22_21h38.42.864,empathy_intonation_perc,2024.2.4,Win32,11.99040767,5cd3d5760b858f0016ccd823,687ed1b7e638a4cbf2f02089,68803cfc350a438651958f70,,,,,,,,,,,,,3,1,,./stim/wavs/castilian_match_interrogative-total-yn_Manuela-vende-el-carro.wav,,,,,,,,,,,,,,,,,,,,,,338.7378,341.5927,1,1,2.192,,0,33,33,2,1,0,castilian,,,,,,,,,,,,,,,,,,,,,,,,,,,,,,,,,,,,,,,,,,,,,,,,,,,,,,,,
,,,,,,,,,5cd3d5760b858f0016ccd823,Mexican,13 or older,click here to respond,no,2025-07-22_21h38.42.864,empathy_intonation_perc,2024.2.4,Win32,11.99040767,5cd3d5760b858f0016ccd823,687ed1b7e638a4cbf2f02089,68803cfc350a438651958f70,,,,,,,,,,,,,21,1,,./stim/wavs/puertorican_match_interrogative-total-yn_David-leia-el-libro.wav,,,,,,,,,,,,,,,,,,,,,,341.5931,345.7591,1,1,3.5056,,0,34,34,20,1,1,puertorican,,,,,,,,,,,,,,,,,,,,,,,,,,,,,,,,,,,,,,,,,,,,,,,,,,,,,,,,
,,,,,,,,,5cd3d5760b858f0016ccd823,Mexican,13 or older,click here to respond,no,2025-07-22_21h38.42.864,empathy_intonation_perc,2024.2.4,Win32,11.99040767,5cd3d5760b858f0016ccd823,687ed1b7e638a4cbf2f02089,68803cfc350a438651958f70,,,,,,,,,,,,,16,1,,./stim/wavs/mexican_match_interrogative-total-yn_Emilio-ama-la-marcha.wav,,,,,,,,,,,,,,,,,,,,,,345.7595,348.9979,1,1,2.5897,,0,35,35,15,1,0,mexican,,,,,,,,,,,,,,,,,,,,,,,,,,,,,,,,,,,,,,,,,,,,,,,,,,,,,,,,
,,,,,,,,,5cd3d5760b858f0016ccd823,Mexican,13 or older,click here to respond,no,2025-07-22_21h38.42.864,empathy_intonation_perc,2024.2.4,Win32,11.99040767,5cd3d5760b858f0016ccd823,687ed1b7e638a4cbf2f02089,68803cfc350a438651958f70,,,,,,,,,,,,,36,1,,./stim/wavs/mexican_mismatch_interrogative-total-yn_El-nino-oye-el-rio.wav,,,,,,,,,,,,,,,,,,,,,,348.9983,352.0711,0,0,2.3632,,0,36,36,35,1,0,mexican,,,,,,,,,,,,,,,,,,,,,,,,,,,,,,,,,,,,,,,,,,,,,,,,,,,,,,,,
,,,,,,,,,5cd3d5760b858f0016ccd823,Mexican,13 or older,click here to respond,no,2025-07-22_21h38.42.864,empathy_intonation_perc,2024.2.4,Win32,11.99040767,5cd3d5760b858f0016ccd823,687ed1b7e638a4cbf2f02089,68803cfc350a438651958f70,,,,,,,,,,,,,47,0,,./stim/wavs/castilian_match_declarative-broad-focus_Manuela-vende-el-carro.wav,,,,,,,,,,,,,,,,,,,,,,352.0715,354.7718,1,0,2.053,,0,37,37,46,1,0,castilian,,,,,,,,,,,,,,,,,,,,,,,,,,,,,,,,,,,,,,,,,,,,,,,,,,,,,,,,
,,,,,,,,,5cd3d5760b858f0016ccd823,Mexican,13 or older,click here to respond,no,2025-07-22_21h38.42.864,empathy_intonation_perc,2024.2.4,Win32,11.99040767,5cd3d5760b858f0016ccd823,687ed1b7e638a4cbf2f02089,68803cfc350a438651958f70,,,,,,,,,,,,,74,0,,./stim/wavs/cuban_mismatch_declarative-broad-focus_El-bebe-comia-muy-bien.wav,,,,,,,,,,,,,,,,,,,,,,354.7722,358.8436,0,1,3.4165,,0,38,38,73,1,0,cuban,,,,,,,,,,,,,,,,,,,,,,,,,,,,,,,,,,,,,,,,,,,,,,,,,,,,,,,,
,,,,,,,,,5cd3d5760b858f0016ccd823,Mexican,13 or older,click here to respond,no,2025-07-22_21h38.42.864,empathy_intonation_perc,2024.2.4,Win32,11.99040767,5cd3d5760b858f0016ccd823,687ed1b7e638a4cbf2f02089,68803cfc350a438651958f70,,,,,,,,,,,,,33,1,,./stim/wavs/cuban_mismatch_interrogative-total-yn_Mi-novio-viene-del-lago.wav,,,,,,,,,,,,,,,,,,,,,,358.844,361.7708,0,0,2.2613,,0,39,39,32,1,1,cuban,,,,,,,,,,,,,,,,,,,,,,,,,,,,,,,,,,,,,,,,,,,,,,,,,,,,,,,,
,,,,,,,,,5cd3d5760b858f0016ccd823,Mexican,13 or older,click here to respond,no,2025-07-22_21h38.42.864,empathy_intonation_perc,2024.2.4,Win32,11.99040767,5cd3d5760b858f0016ccd823,687ed1b7e638a4cbf2f02089,68803cfc350a438651958f70,,,,,,,,,,,,,2,1,,./stim/wavs/castilian_match_interrogative-total-yn_Emilio-ama-la-marcha.wav,,,,,,,,,,,,,,,,,,,,,,361.7712,365.3685,0,0,2.9393,,0,40,40,1,1,0,castilian,,,,,,,,,,,,,,,,,,,,,,,,,,,,,,,,,,,,,,,,,,,,,,,,,,,,,,,,
,,,,,,,,,5cd3d5760b858f0016ccd823,Mexican,13 or older,click here to respond,no,2025-07-22_21h38.42.864,empathy_intonation_perc,2024.2.4,Win32,11.99040767,5cd3d5760b858f0016ccd823,687ed1b7e638a4cbf2f02089,68803cfc350a438651958f70,,,,,,,,,,,,,26,1,,./stim/wavs/castilian_mismatch_interrogative-total-yn_La-nina-lava-el-plato.wav,,,,,,,,,,,,,,,,,,,,,,365.3689,368.4937,1,1,2.4549,,0,41,41,25,1,0,castilian,,,,,,,,,,,,,,,,,,,,,,,,,,,,,,,,,,,,,,,,,,,,,,,,,,,,,,,,
,,,,,,,,,5cd3d5760b858f0016ccd823,Mexican,13 or older,click here to respond,no,2025-07-22_21h38.42.864,empathy_intonation_perc,2024.2.4,Win32,11.99040767,5cd3d5760b858f0016ccd823,687ed1b7e638a4cbf2f02089,68803cfc350a438651958f70,,,,,,,,,,,,,73,0,,./stim/wavs/castilian_mismatch_declarative-broad-focus_Mi-tia-odia-la-lluvia.wav,,,,,,,,,,,,,,,,,,,,,,368.494,371.4535,0,1,2.3242,,0,42,42,72,1,0,castilian,,,,,,,,,,,,,,,,,,,,,,,,,,,,,,,,,,,,,,,,,,,,,,,,,,,,,,,,
,,,,,,,,,5cd3d5760b858f0016ccd823,Mexican,13 or older,click here to respond,no,2025-07-22_21h38.42.864,empathy_intonation_perc,2024.2.4,Win32,11.99040767,5cd3d5760b858f0016ccd823,687ed1b7e638a4cbf2f02089,68803cfc350a438651958f70,,,,,,,,,,,,,25,1,,./stim/wavs/castilian_mismatch_interrogative-total-yn_La-maestra-vive-en-Paris.wav,,,,,,,,,,,,,,,,,,,,,,371.4539,375.7784,1,1,3.6779,,0,43,43,24,1,0,castilian,,,,,,,,,,,,,,,,,,,,,,,,,,,,,,,,,,,,,,,,,,,,,,,,,,,,,,,,
,,,,,,,,,5cd3d5760b858f0016ccd823,Mexican,13 or older,click here to respond,no,2025-07-22_21h38.42.864,empathy_intonation_perc,2024.2.4,Win32,11.99040767,5cd3d5760b858f0016ccd823,687ed1b7e638a4cbf2f02089,68803cfc350a438651958f70,,,,,,,,,,,,,29,1,,./stim/wavs/castilian_mismatch_interrogative-total-yn_Mi-tia-odia-la-lluvia.wav,,,,,,,,,,,,,,,,,,,,,,375.7787,378.4366,1,1,2.0093,,0,44,44,28,1,0,castilian,,,,,,,,,,,,,,,,,,,,,,,,,,,,,,,,,,,,,,,,,,,,,,,,,,,,,,,,
,,,,,,,,,5cd3d5760b858f0016ccd823,Mexican,13 or older,click here to respond,no,2025-07-22_21h38.42.864,empathy_intonation_perc,2024.2.4,Win32,11.99040767,5cd3d5760b858f0016ccd823,687ed1b7e638a4cbf2f02089,68803cfc350a438651958f70,,,,,,,,,,,,,34,1,,./stim/wavs/cuban_mismatch_interrogative-total-yn_Mi-tia-odia-la-lluvia.wav,,,,,,,,,,,,,,,,,,,,,,378.4369,381.7592,1,1,2.662,,0,45,45,33,1,1,cuban,,,,,,,,,,,,,,,,,,,,,,,,,,,,,,,,,,,,,,,,,,,,,,,,,,,,,,,,
,,,,,,,,,5cd3d5760b858f0016ccd823,Mexican,13 or older,click here to respond,no,2025-07-22_21h38.42.864,empathy_intonation_perc,2024.2.4,Win32,11.99040767,5cd3d5760b858f0016ccd823,687ed1b7e638a4cbf2f02089,68803cfc350a438651958f70,,,,,,,,,,,,,1,1,,./stim/wavs/castilian_match_interrogative-total-yn_David-leia-el-libro.wav,,,,,,,,,,,,,,,,,,,,,,381.7595,386.5191,1,1,4.0953,,0,46,46,0,1,0,castilian,,,,,,,,,,,,,,,,,,,,,,,,,,,,,,,,,,,,,,,,,,,,,,,,,,,,,,,,
,,,,,,,,,5cd3d5760b858f0016ccd823,Mexican,13 or older,click here to respond,no,2025-07-22_21h38.42.864,empathy_intonation_perc,2024.2.4,Win32,11.99040767,5cd3d5760b858f0016ccd823,687ed1b7e638a4cbf2f02089,68803cfc350a438651958f70,,,,,,,,,,,,,54,0,,./stim/wavs/cuban_match_declarative-broad-focus_Maria-bebe-el-vino.wav,,,,,,,,,,,,,,,,,,,,,,386.5194,388.9683,0,1,1.8092,,0,47,47,53,1,0,cuban,,,,,,,,,,,,,,,,,,,,,,,,,,,,,,,,,,,,,,,,,,,,,,,,,,,,,,,,
,,,,,,,,,5cd3d5760b858f0016ccd823,Mexican,13 or older,click here to respond,no,2025-07-22_21h38.42.864,empathy_intonation_perc,2024.2.4,Win32,11.99040767,5cd3d5760b858f0016ccd823,687ed1b7e638a4cbf2f02089,68803cfc350a438651958f70,,,,,,,,,,,,,60,0,,./stim/wavs/mexican_match_declarative-broad-focus_Emilio-ama-la-marcha.wav,,,,,,,,,,,,,,,,,,,,,,388.9687,393.4513,0,1,3.79,,0,48,48,59,1,0,mexican,,,,,,,,,,,,,,,,,,,,,,,,,,,,,,,,,,,,,,,,,,,,,,,,,,,,,,,,
,,,,,,,,,5cd3d5760b858f0016ccd823,Mexican,13 or older,click here to respond,no,2025-07-22_21h38.42.864,empathy_intonation_perc,2024.2.4,Win32,11.99040767,5cd3d5760b858f0016ccd823,687ed1b7e638a4cbf2f02089,68803cfc350a438651958f70,,,,,,,,,,,,,32,1,,./stim/wavs/cuban_mismatch_interrogative-total-yn_Mi-madre-come-la-fruta.wav,,,,,,,,,,,,,,,,,,,,,,393.4518,396.6512,0,0,2.551,,0,49,49,31,1,1,cuban,,,,,,,,,,,,,,,,,,,,,,,,,,,,,,,,,,,,,,,,,,,,,,,,,,,,,,,,
,,,,,,,,,5cd3d5760b858f0016ccd823,Mexican,13 or older,click here to respond,no,2025-07-22_21h38.42.864,empathy_intonation_perc,2024.2.4,Win32,11.99040767,5cd3d5760b858f0016ccd823,687ed1b7e638a4cbf2f02089,68803cfc350a438651958f70,,,,,,,,,,,,,82,0,,./stim/wavs/mexican_mismatch_declarative-broad-focus_Mi-novio-viene-del-lago.wav,,,,,,,,,,,,,,,,,,,,,,396.6516,399.1963,0,1,1.8906,,0,50,50,81,1,0,mexican,,,,,,,,,,,,,,,,,,,,,,,,,,,,,,,,,,,,,,,,,,,,,,,,,,,,,,,,
,,,,,,,,,5cd3d5760b858f0016ccd823,Mexican,13 or older,click here to respond,no,2025-07-22_21h38.42.864,empathy_intonation_perc,2024.2.4,Win32,11.99040767,5cd3d5760b858f0016ccd823,687ed1b7e638a4cbf2f02089,68803cfc350a438651958f70,,,,,,,,,,,,,20,1,,./stim/wavs/puertorican_match_interrogative-total-yn_Daniel-iba-a-Bolivia.wav,,,,,,,,,,,,,,,,,,,,,,399.1967,402.9897,0,0,3.1241,,0,51,51,19,1,1,puertorican,,,,,,,,,,,,,,,,,,,,,,,,,,,,,,,,,,,,,,,,,,,,,,,,,,,,,,,,
,,,,,,,,,5cd3d5760b858f0016ccd823,Mexican,13 or older,click here to respond,no,2025-07-22_21h38.42.864,empathy_intonation_perc,2024.2.4,Win32,11.99040767,5cd3d5760b858f0016ccd823,687ed1b7e638a4cbf2f02089,68803cfc350a438651958f70,,,,,,,,,,,,,65,0,,./stim/wavs/puertorican_match_declarative-broad-focus_David-leia-el-libro.wav,,,,,,,,,,,,,,,,,,,,,,402.9901,405.4684,0,1,1.8196,0.0002,0,52,52,64,1,0,puertorican,,,,,,,,,,,,,,,,,,,,,,,,,,,,,,,,,,,,,,,,,,,,,,,,,,,,,,,,
,,,,,,,,,5cd3d5760b858f0016ccd823,Mexican,13 or older,click here to respond,no,2025-07-22_21h38.42.864,empathy_intonation_perc,2024.2.4,Win32,11.99040767,5cd3d5760b858f0016ccd823,687ed1b7e638a4cbf2f02089,68803cfc350a438651958f70,,,,,,,,,,,,,43,1,,./stim/wavs/puertorican_mismatch_interrogative-total-yn_La-nina-lava-el-plato.wav,,,,,,,,,,,,,,,,,,,,,,405.4687,409.2043,0,0,3.0964,,0,53,53,42,1,1,puertorican,,,,,,,,,,,,,,,,,,,,,,,,,,,,,,,,,,,,,,,,,,,,,,,,,,,,,,,,
,,,,,,,,,5cd3d5760b858f0016ccd823,Mexican,13 or older,click here to respond,no,2025-07-22_21h38.42.864,empathy_intonation_perc,2024.2.4,Win32,11.99040767,5cd3d5760b858f0016ccd823,687ed1b7e638a4cbf2f02089,68803cfc350a438651958f70,,,,,,,,,,,,,72,0,,./stim/wavs/castilian_mismatch_declarative-broad-focus_Mi-novio-viene-del-lago.wav,,,,,,,,,,,,,,,,,,,,,,409.2046,412.4708,0,1,2.6307,,0,54,54,71,1,0,castilian,,,,,,,,,,,,,,,,,,,,,,,,,,,,,,,,,,,,,,,,,,,,,,,,,,,,,,,,
,,,,,,,,,5cd3d5760b858f0016ccd823,Mexican,13 or older,click here to respond,no,2025-07-22_21h38.42.864,empathy_intonation_perc,2024.2.4,Win32,11.99040767,5cd3d5760b858f0016ccd823,687ed1b7e638a4cbf2f02089,68803cfc350a438651958f70,,,,,,,,,,,,,70,0,,./stim/wavs/castilian_mismatch_declarative-broad-focus_La-maestra-vive-en-Paris.wav,,,,,,,,,,,,,,,,,,,,,,412.4712,415.9745,0,1,2.8651,,0,55,55,69,1,0,castilian,,,,,,,,,,,,,,,,,,,,,,,,,,,,,,,,,,,,,,,,,,,,,,,,,,,,,,,,
,,,,,,,,,5cd3d5760b858f0016ccd823,Mexican,13 or older,click here to respond,no,2025-07-22_21h38.42.864,empathy_intonation_perc,2024.2.4,Win32,11.99040767,5cd3d5760b858f0016ccd823,687ed1b7e638a4cbf2f02089,68803cfc350a438651958f70,,,,,,,,,,,,,78,0,,./stim/wavs/cuban_mismatch_declarative-broad-focus_Mi-tia-odia-la-lluvia.wav,,,,,,,,,,,,,,,,,,,,,,415.9748,418.6793,0,1,2.0095,,0,56,56,77,1,0,cuban,,,,,,,,,,,,,,,,,,,,,,,,,,,,,,,,,,,,,,,,,,,,,,,,,,,,,,,,
,,,,,,,,,5cd3d5760b858f0016ccd823,Mexican,13 or older,click here to respond,no,2025-07-22_21h38.42.864,empathy_intonation_perc,2024.2.4,Win32,11.99040767,5cd3d5760b858f0016ccd823,687ed1b7e638a4cbf2f02089,68803cfc350a438651958f70,,,,,,,,,,,,,49,0,,./stim/wavs/castilian_match_declarative-broad-focus_Mariano-habla-del-tiempo.wav,,,,,,,,,,,,,,,,,,,,,,418.6797,423.7894,0,1,4.4498,,0,57,57,48,1,0,castilian,,,,,,,,,,,,,,,,,,,,,,,,,,,,,,,,,,,,,,,,,,,,,,,,,,,,,,,,
,,,,,,,,,5cd3d5760b858f0016ccd823,Mexican,13 or older,click here to respond,no,2025-07-22_21h38.42.864,empathy_intonation_perc,2024.2.4,Win32,11.99040767,5cd3d5760b858f0016ccd823,687ed1b7e638a4cbf2f02089,68803cfc350a438651958f70,,,,,,,,,,,,,46,0,,./stim/wavs/castilian_match_declarative-broad-focus_Emilio-ama-la-marcha.wav,,,,,,,,,,,,,,,,,,,,,,423.7897,426.9897,0,1,2.5523,,0,58,58,45,1,0,castilian,,,,,,,,,,,,,,,,,,,,,,,,,,,,,,,,,,,,,,,,,,,,,,,,,,,,,,,,
,,,,,,,,,5cd3d5760b858f0016ccd823,Mexican,13 or older,click here to respond,no,2025-07-22_21h38.42.864,empathy_intonation_perc,2024.2.4,Win32,11.99040767,5cd3d5760b858f0016ccd823,687ed1b7e638a4cbf2f02089,68803cfc350a438651958f70,,,,,,,,,,,,,75,0,,./stim/wavs/cuban_mismatch_declarative-broad-focus_El-hombre-mira-la-luna.wav,,,,,,,,,,,,,,,,,,,,,,426.99,430.655,0,1,3.0134,,0,59,59,74,1,0,cuban,,,,,,,,,,,,,,,,,,,,,,,,,,,,,,,,,,,,,,,,,,,,,,,,,,,,,,,,
,,,,,,,,,5cd3d5760b858f0016ccd823,Mexican,13 or older,click here to respond,no,2025-07-22_21h38.42.864,empathy_intonation_perc,2024.2.4,Win32,11.99040767,5cd3d5760b858f0016ccd823,687ed1b7e638a4cbf2f02089,68803cfc350a438651958f70,,,,,,,,,,,,,37,1,,./stim/wavs/mexican_mismatch_interrogative-total-yn_La-maestra-vive-en-Paris.wav,,,,,,,,,,,,,,,,,,,,,,430.6553,433.2799,1,1,1.966,,0,60,60,36,1,0,mexican,,,,,,,,,,,,,,,,,,,,,,,,,,,,,,,,,,,,,,,,,,,,,,,,,,,,,,,,
,,,,,,,,,5cd3d5760b858f0016ccd823,Mexican,13 or older,click here to respond,no,2025-07-22_21h38.42.864,empathy_intonation_perc,2024.2.4,Win32,11.99040767,5cd3d5760b858f0016ccd823,687ed1b7e638a4cbf2f02089,68803cfc350a438651958f70,,,,,,,,,,,,,59,0,,./stim/wavs/mexican_match_declarative-broad-focus_David-leia-el-libro.wav,,,,,,,,,,,,,,,,,,,,,,433.2802,437.0984,0,1,3.1702,,0,61,61,58,1,0,mexican,,,,,,,,,,,,,,,,,,,,,,,,,,,,,,,,,,,,,,,,,,,,,,,,,,,,,,,,
,,,,,,,,,5cd3d5760b858f0016ccd823,Mexican,13 or older,click here to respond,no,2025-07-22_21h38.42.864,empathy_intonation_perc,2024.2.4,Win32,11.99040767,5cd3d5760b858f0016ccd823,687ed1b7e638a4cbf2f02089,68803cfc350a438651958f70,,,,,,,,,,,,,53,0,,./stim/wavs/cuban_match_declarative-broad-focus_Manuela-vende-el-carro.wav,,,,,,,,,,,,,,,,,,,,,,437.0988,439.6905,0,1,1.9165,,0,62,62,52,1,0,cuban,,,,,,,,,,,,,,,,,,,,,,,,,,,,,,,,,,,,,,,,,,,,,,,,,,,,,,,,
,,,,,,,,,5cd3d5760b858f0016ccd823,Mexican,13 or older,click here to respond,no,2025-07-22_21h38.42.864,empathy_intonation_perc,2024.2.4,Win32,11.99040767,5cd3d5760b858f0016ccd823,687ed1b7e638a4cbf2f02089,68803cfc350a438651958f70,,,,,,,,,,,,,42,1,,./stim/wavs/puertorican_mismatch_interrogative-total-yn_La-maestra-vive-en-Paris.wav,,,,,,,,,,,,,,,,,,,,,,439.6909,442.3694,0,0,2.0203,,0,63,63,41,1,1,puertorican,,,,,,,,,,,,,,,,,,,,,,,,,,,,,,,,,,,,,,,,,,,,,,,,,,,,,,,,
,,,,,,,,,5cd3d5760b858f0016ccd823,Mexican,13 or older,click here to respond,no,2025-07-22_21h38.42.864,empathy_intonation_perc,2024.2.4,Win32,11.99040767,5cd3d5760b858f0016ccd823,687ed1b7e638a4cbf2f02089,68803cfc350a438651958f70,,,,,,,,,,,,,15,1,,./stim/wavs/mexican_match_interrogative-total-yn_David-leia-el-libro.wav,,,,,,,,,,,,,,,,,,,,,,442.3697,446.2763,0,0,3.2573,,0,64,64,14,1,0,mexican,,,,,,,,,,,,,,,,,,,,,,,,,,,,,,,,,,,,,,,,,,,,,,,,,,,,,,,,
,,,,,,,,,5cd3d5760b858f0016ccd823,Mexican,13 or older,click here to respond,no,2025-07-22_21h38.42.864,empathy_intonation_perc,2024.2.4,Win32,11.99040767,5cd3d5760b858f0016ccd823,687ed1b7e638a4cbf2f02089,68803cfc350a438651958f70,,,,,,,,,,,,,27,1,,./stim/wavs/castilian_mismatch_interrogative-total-yn_Mi-madre-come-la-fruta.wav,,,,,,,,,,,,,,,,,,,,,,446.2766,450.4296,1,1,3.488,,0,65,65,26,1,0,castilian,,,,,,,,,,,,,,,,,,,,,,,,,,,,,,,,,,,,,,,,,,,,,,,,,,,,,,,,
,,,,,,,,,5cd3d5760b858f0016ccd823,Mexican,13 or older,click here to respond,no,2025-07-22_21h38.42.864,empathy_intonation_perc,2024.2.4,Win32,11.99040767,5cd3d5760b858f0016ccd823,687ed1b7e638a4cbf2f02089,68803cfc350a438651958f70,,,,,,,,,,,,,12,1,,./stim/wavs/cuban_match_interrogative-total-yn_Marta-abre-el-regalo.wav,,,,,,,,,,,,,,,,,,,,,,450.43,452.7881,0,0,1.6848,,0,66,66,11,1,1,cuban,,,,,,,,,,,,,,,,,,,,,,,,,,,,,,,,,,,,,,,,,,,,,,,,,,,,,,,,
,,,,,,,,,5cd3d5760b858f0016ccd823,Mexican,13 or older,click here to respond,no,2025-07-22_21h38.42.864,empathy_intonation_perc,2024.2.4,Win32,11.99040767,5cd3d5760b858f0016ccd823,687ed1b7e638a4cbf2f02089,68803cfc350a438651958f70,,,,,,,,,,,,,41,1,,./stim/wavs/puertorican_mismatch_interrogative-total-yn_El-nino-oye-el-rio.wav,,,,,,,,,,,,,,,,,,,,,,452.7885,455.6399,0,0,2.2123,,0,67,67,40,1,1,puertorican,,,,,,,,,,,,,,,,,,,,,,,,,,,,,,,,,,,,,,,,,,,,,,,,,,,,,,,,
,,,,,,,,,5cd3d5760b858f0016ccd823,Mexican,13 or older,click here to respond,no,2025-07-22_21h38.42.864,empathy_intonation_perc,2024.2.4,Win32,11.99040767,5cd3d5760b858f0016ccd823,687ed1b7e638a4cbf2f02089,68803cfc350a438651958f70,,,,,,,,,,,,,24,1,,./stim/wavs/puertorican_match_interrogative-total-yn_Maria-bebe-el-vino.wav,,,,,,,,,,,,,,,,,,,,,,455.6402,458.3126,1,1,2.0186,,0,68,68,23,1,1,puertorican,,,,,,,,,,,,,,,,,,,,,,,,,,,,,,,,,,,,,,,,,,,,,,,,,,,,,,,,
,,,,,,,,,5cd3d5760b858f0016ccd823,Mexican,13 or older,click here to respond,no,2025-07-22_21h38.42.864,empathy_intonation_perc,2024.2.4,Win32,11.99040767,5cd3d5760b858f0016ccd823,687ed1b7e638a4cbf2f02089,68803cfc350a438651958f70,,,,,,,,,,,,,7,1,,./stim/wavs/cuban_match_interrogative-total-yn_Ana-lleva-el-abrigo.wav,,,,,,,,,,,,,,,,,,,,,,458.313,461.6736,0,0,2.7088,,0,69,69,6,1,1,cuban,,,,,,,,,,,,,,,,,,,,,,,,,,,,,,,,,,,,,,,,,,,,,,,,,,,,,,,,
,,,,,,,,,5cd3d5760b858f0016ccd823,Mexican,13 or older,click here to respond,no,2025-07-22_21h38.42.864,empathy_intonation_perc,2024.2.4,Win32,11.99040767,5cd3d5760b858f0016ccd823,687ed1b7e638a4cbf2f02089,68803cfc350a438651958f70,,,,,,,,,,,,,18,1,,./stim/wavs/mexican_match_interrogative-total-yn_Marta-abre-el-regalo.wav,,,,,,,,,,,,,,,,,,,,,,461.6739,464.6774,1,1,2.3548,,0,70,70,17,1,0,mexican,,,,,,,,,,,,,,,,,,,,,,,,,,,,,,,,,,,,,,,,,,,,,,,,,,,,,,,,
,,,,,,,,,5cd3d5760b858f0016ccd823,Mexican,13 or older,click here to respond,no,2025-07-22_21h38.42.864,empathy_intonation_perc,2024.2.4,Win32,11.99040767,5cd3d5760b858f0016ccd823,687ed1b7e638a4cbf2f02089,68803cfc350a438651958f70,,,,,,,,,,,,,86,0,,./stim/wavs/puertorican_mismatch_declarative-broad-focus_El-nino-oye-el-rio.wav,,,,,,,,,,,,,,,,,,,,,,464.6776,467.0924,0,1,1.7671,,0,71,71,85,1,0,puertorican,,,,,,,,,,,,,,,,,,,,,,,,,,,,,,,,,,,,,,,,,,,,,,,,,,,,,,,,
,,,,,,,,,5cd3d5760b858f0016ccd823,Mexican,13 or older,click here to respond,no,2025-07-22_21h38.42.864,empathy_intonation_perc,2024.2.4,Win32,11.99040767,5cd3d5760b858f0016ccd823,687ed1b7e638a4cbf2f02089,68803cfc350a438651958f70,,,,,,,,,,,,,63,0,,./stim/wavs/puertorican_match_declarative-broad-focus_Ana-lleva-el-abrigo.wav,,,,,,,,,,,,,,,,,,,,,,467.0928,469.7392,0,1,1.992,,0,72,72,62,1,0,puertorican,,,,,,,,,,,,,,,,,,,,,,,,,,,,,,,,,,,,,,,,,,,,,,,,,,,,,,,,
,,,,,,,,,5cd3d5760b858f0016ccd823,Mexican,13 or older,click here to respond,no,2025-07-22_21h38.42.864,empathy_intonation_perc,2024.2.4,Win32,11.99040767,5cd3d5760b858f0016ccd823,687ed1b7e638a4cbf2f02089,68803cfc350a438651958f70,,,,,,,,,,,,,51,0,,./stim/wavs/cuban_match_declarative-broad-focus_Ana-lleva-el-abrigo.wav,,,,,,,,,,,,,,,,,,,,,,469.7395,472.9454,0,1,2.5628,,0,73,73,50,1,0,cuban,,,,,,,,,,,,,,,,,,,,,,,,,,,,,,,,,,,,,,,,,,,,,,,,,,,,,,,,
,,,,,,,,,5cd3d5760b858f0016ccd823,Mexican,13 or older,click here to respond,no,2025-07-22_21h38.42.864,empathy_intonation_perc,2024.2.4,Win32,11.99040767,5cd3d5760b858f0016ccd823,687ed1b7e638a4cbf2f02089,68803cfc350a438651958f70,,,,,,,,,,,,,14,1,,./stim/wavs/mexican_match_interrogative-total-yn_Daniel-iba-a-Bolivia.wav,,,,,,,,,,,,,,,,,,,,,,472.9457,475.7984,1,1,2.2233,,0,74,74,13,1,0,mexican,,,,,,,,,,,,,,,,,,,,,,,,,,,,,,,,,,,,,,,,,,,,,,,,,,,,,,,,
,,,,,,,,,5cd3d5760b858f0016ccd823,Mexican,13 or older,click here to respond,no,2025-07-22_21h38.42.864,empathy_intonation_perc,2024.2.4,Win32,11.99040767,5cd3d5760b858f0016ccd823,687ed1b7e638a4cbf2f02089,68803cfc350a438651958f70,,,,,,,,,,,,,10,1,,./stim/wavs/cuban_match_interrogative-total-yn_Maria-bebe-el-vino.wav,,,,,,,,,,,,,,,,,,,,,,475.7987,478.2431,0,0,1.7801,,0,75,75,9,1,1,cuban,,,,,,,,,,,,,,,,,,,,,,,,,,,,,,,,,,,,,,,,,,,,,,,,,,,,,,,,
,,,,,,,,,5cd3d5760b858f0016ccd823,Mexican,13 or older,click here to respond,no,2025-07-22_21h38.42.864,empathy_intonation_perc,2024.2.4,Win32,11.99040767,5cd3d5760b858f0016ccd823,687ed1b7e638a4cbf2f02089,68803cfc350a438651958f70,,,,,,,,,,,,,85,0,,./stim/wavs/puertorican_mismatch_declarative-broad-focus_El-hombre-mira-la-luna.wav,,,,,,,,,,,,,,,,,,,,,,478.2435,480.7365,0,1,1.8169,,0,76,76,84,1,0,puertorican,,,,,,,,,,,,,,,,,,,,,,,,,,,,,,,,,,,,,,,,,,,,,,,,,,,,,,,,
,,,,,,,,,5cd3d5760b858f0016ccd823,Mexican,13 or older,click here to respond,no,2025-07-22_21h38.42.864,empathy_intonation_perc,2024.2.4,Win32,11.99040767,5cd3d5760b858f0016ccd823,687ed1b7e638a4cbf2f02089,68803cfc350a438651958f70,,,,,,,,,,,,,50,0,,./stim/wavs/castilian_match_declarative-broad-focus_Marta-abre-el-regalo.wav,,,,,,,,,,,,,,,,,,,,,,480.737,483.7034,0,1,2.3174,,0,77,77,49,1,0,castilian,,,,,,,,,,,,,,,,,,,,,,,,,,,,,,,,,,,,,,,,,,,,,,,,,,,,,,,,
,,,,,,,,,5cd3d5760b858f0016ccd823,Mexican,13 or older,click here to respond,no,2025-07-22_21h38.42.864,empathy_intonation_perc,2024.2.4,Win32,11.99040767,5cd3d5760b858f0016ccd823,687ed1b7e638a4cbf2f02089,68803cfc350a438651958f70,,,,,,,,,,,,,62,0,,./stim/wavs/mexican_match_declarative-broad-focus_Marta-abre-el-regalo.wav,,,,,,,,,,,,,,,,,,,,,,483.7038,485.8133,0,1,1.4451,,0,78,78,61,1,0,mexican,,,,,,,,,,,,,,,,,,,,,,,,,,,,,,,,,,,,,,,,,,,,,,,,,,,,,,,,
,,,,,,,,,5cd3d5760b858f0016ccd823,Mexican,13 or older,click here to respond,no,2025-07-22_21h38.42.864,empathy_intonation_perc,2024.2.4,Win32,11.99040767,5cd3d5760b858f0016ccd823,687ed1b7e638a4cbf2f02089,68803cfc350a438651958f70,,,,,,,,,,,,,35,1,,./stim/wavs/mexican_mismatch_interrogative-total-yn_El-hombre-mira-la-luna.wav,,,,,,,,,,,,,,,,,,,,,,485.8137,487.9069,1,1,1.4383,,0,79,79,34,1,0,mexican,,,,,,,,,,,,,,,,,,,,,,,,,,,,,,,,,,,,,,,,,,,,,,,,,,,,,,,,
,,,,,,,,,5cd3d5760b858f0016ccd823,Mexican,13 or older,click here to respond,no,2025-07-22_21h38.42.864,empathy_intonation_perc,2024.2.4,Win32,11.99040767,5cd3d5760b858f0016ccd823,687ed1b7e638a4cbf2f02089,68803cfc350a438651958f70,,,,,,,,,,,,,31,1,,./stim/wavs/cuban_mismatch_interrogative-total-yn_El-nino-oye-el-rio.wav,,,,,,,,,,,,,,,,,,,,,,487.9073,490.4004,0,0,1.8264,,0,80,80,30,1,1,cuban,,,,,,,,,,,,,,,,,,,,,,,,,,,,,,,,,,,,,,,,,,,,,,,,,,,,,,,,
,,,,,,,,,5cd3d5760b858f0016ccd823,Mexican,13 or older,click here to respond,no,2025-07-22_21h38.42.864,empathy_intonation_perc,2024.2.4,Win32,11.99040767,5cd3d5760b858f0016ccd823,687ed1b7e638a4cbf2f02089,68803cfc350a438651958f70,,,,,,,,,,,,,66,0,,./stim/wavs/puertorican_match_declarative-broad-focus_Emilio-ama-la-marcha.wav,,,,,,,,,,,,,,,,,,,,,,490.4008,493.4795,0,1,2.4107,,0,81,81,65,1,0,puertorican,,,,,,,,,,,,,,,,,,,,,,,,,,,,,,,,,,,,,,,,,,,,,,,,,,,,,,,,
,,,,,,,,,5cd3d5760b858f0016ccd823,Mexican,13 or older,click here to respond,no,2025-07-22_21h38.42.864,empathy_intonation_perc,2024.2.4,Win32,11.99040767,5cd3d5760b858f0016ccd823,687ed1b7e638a4cbf2f02089,68803cfc350a438651958f70,,,,,,,,,,,,,22,1,,./stim/wavs/puertorican_match_interrogative-total-yn_Emilio-ama-la-marcha.wav,,,,,,,,,,,,,,,,,,,,,,493.4798,495.67,0,0,1.5398,,0,82,82,21,1,1,puertorican,,,,,,,,,,,,,,,,,,,,,,,,,,,,,,,,,,,,,,,,,,,,,,,,,,,,,,,,
,,,,,,,,,5cd3d5760b858f0016ccd823,Mexican,13 or older,click here to respond,no,2025-07-22_21h38.42.864,empathy_intonation_perc,2024.2.4,Win32,11.99040767,5cd3d5760b858f0016ccd823,687ed1b7e638a4cbf2f02089,68803cfc350a438651958f70,,,,,,,,,,,,,57,0,,./stim/wavs/mexican_match_declarative-broad-focus_Ana-lleva-el-abrigo.wav,,,,,,,,,,,,,,,,,,,,,,495.6703,498.0199,0,1,1.6805,,0,83,83,56,1,0,mexican,,,,,,,,,,,,,,,,,,,,,,,,,,,,,,,,,,,,,,,,,,,,,,,,,,,,,,,,
,,,,,,,,,5cd3d5760b858f0016ccd823,Mexican,13 or older,click here to respond,no,2025-07-22_21h38.42.864,empathy_intonation_perc,2024.2.4,Win32,11.99040767,5cd3d5760b858f0016ccd823,687ed1b7e638a4cbf2f02089,68803cfc350a438651958f70,,,,,,,,,,,,,88,0,,./stim/wavs/puertorican_mismatch_declarative-broad-focus_La-nina-lava-el-plato.wav,,,,,,,,,,,,,,,,,,,,,,498.0203,505.469,0,1,6.7906,,0,84,84,87,1,0,puertorican,,,,,,,,,,,,,,,,,,,,,,,,,,,,,,,,,,,,,,,,,,,,,,,,,,,,,,,,
,,,,,,,,,5cd3d5760b858f0016ccd823,Mexican,13 or older,click here to respond,no,2025-07-22_21h38.42.864,empathy_intonation_perc,2024.2.4,Win32,11.99040767,5cd3d5760b858f0016ccd823,687ed1b7e638a4cbf2f02089,68803cfc350a438651958f70,,,,,,,,,,,,,4,1,,./stim/wavs/castilian_match_interrogative-total-yn_Maria-bebe-el-vino.wav,,,,,,,,,,,,,,,,,,,,,,505.4693,507.8955,1,1,1.7637,,0,85,85,3,1,0,castilian,,,,,,,,,,,,,,,,,,,,,,,,,,,,,,,,,,,,,,,,,,,,,,,,,,,,,,,,
,,,,,,,,,5cd3d5760b858f0016ccd823,Mexican,13 or older,click here to respond,no,2025-07-22_21h38.42.864,empathy_intonation_perc,2024.2.4,Win32,11.99040767,5cd3d5760b858f0016ccd823,687ed1b7e638a4cbf2f02089,68803cfc350a438651958f70,,,,,,,,,,,,,19,1,,./stim/wavs/puertorican_match_interrogative-total-yn_Ana-lleva-el-abrigo.wav,,,,,,,,,,,,,,,,,,,,,,507.896,510.3687,0,0,1.8425,,0,86,86,18,1,1,puertorican,,,,,,,,,,,,,,,,,,,,,,,,,,,,,,,,,,,,,,,,,,,,,,,,,,,,,,,,
,,,,,,,,,5cd3d5760b858f0016ccd823,Mexican,13 or older,click here to respond,no,2025-07-22_21h38.42.864,empathy_intonation_perc,2024.2.4,Win32,11.99040767,5cd3d5760b858f0016ccd823,687ed1b7e638a4cbf2f02089,68803cfc350a438651958f70,,,,,,,,,,,,,64,0,,./stim/wavs/puertorican_match_declarative-broad-focus_Daniel-iba-a-Bolivia.wav,,,,,,,,,,,,,,,,,,,,,,510.369,512.9289,0,1,1.8754,,0,87,87,63,1,0,puertorican,,,,,,,,,,,,,,,,,,,,,,,,,,,,,,,,,,,,,,,,,,,,,,,,,,,,,,,,
,,,,,,,"Great! Now we will move on. The next task consists of about 60 trials, in each of which you will see a string of letters. 
  
  Your task is to decide whether this is a real Spanish word or not.", (press the spacebar to continue),5cd3d5760b858f0016ccd823,Mexican,13 or older,click here to respond,no,2025-07-22_21h38.42.864,empathy_intonation_perc,2024.2.4,Win32,11.99040767,5cd3d5760b858f0016ccd823,687ed1b7e638a4cbf2f02089,68803cfc350a438651958f70,,,,,,,,,,,,,,,,,,,,,,,,,,,,,,,,,,,,,,,,,,,,,,,,,,,512.9326,537.1824,0,0,0,0,1,,,,,,,,,,,,,,,,,,,,,,,,,,,,,,,,,,,,,,,,,,,,,,,,,
,,,,,,,"If you think it is an existing Spanish word, you type '1' (for 'REAL'), and if you think it is not an existing Spanish word, you type '0' (for 'FAKE').", (press the spacebar to continue),5cd3d5760b858f0016ccd823,Mexican,13 or older,click here to respond,no,2025-07-22_21h38.42.864,empathy_intonation_perc,2024.2.4,Win32,11.99040767,5cd3d5760b858f0016ccd823,687ed1b7e638a4cbf2f02089,68803cfc350a438651958f70,,,,,,,,,,,,,,,,,,,,,,,,,,,,,,,,,,,,,,,,,,,,,,,,,,,537.1842,541.7974,0,1,1,1,1,,,,,,,,,,,,,,,,,,,,,,,,,,,,,,,,,,,,,,,,,,,,,,,,,
,,,,,,,"If you are sure that the word exists, even though you don’t know its exact meaning, you may still respond '1' (REAL). 
  
  But if you are not sure if it is an existing word, you should respond '0' (FAKE).
  
  Let's do a practice round...", (press the spacebar to continue),5cd3d5760b858f0016ccd823,Mexican,13 or older,click here to respond,no,2025-07-22_21h38.42.864,empathy_intonation_perc,2024.2.4,Win32,11.99040767,5cd3d5760b858f0016ccd823,687ed1b7e638a4cbf2f02089,68803cfc350a438651958f70,,,,,,,,,,,,,,,,,,,,,,,,,,,,,,,,,,,,,,,,,,,,,,,,,,,541.7992,545.4796,0,2,2,2,1,,,,,,,,,,,,,,,,,,,,,,,,,,,,,,,,,,,,,,,,,,,,,,,,,
,,,,,,,,,5cd3d5760b858f0016ccd823,Mexican,13 or older,click here to respond,no,2025-07-22_21h38.42.864,empathy_intonation_perc,2024.2.4,Win32,11.99040767,5cd3d5760b858f0016ccd823,687ed1b7e638a4cbf2f02089,68803cfc350a438651958f70,,,,,,,,,,,,,,0,,,,,,,,,,,,,,,,,,,,,,,,,,,,,,,,,,,,,,,,,,,,545.4827,548.8365,0,1,2.6916,1E-04,548.8367,549.8325,0,0,0,0,1,0,depiste,REAL,FAKE,,,,,,,,,,,,,,,,,,,,,,,,,,,,,,,,
,,,,,,,,,5cd3d5760b858f0016ccd823,Mexican,13 or older,click here to respond,no,2025-07-22_21h38.42.864,empathy_intonation_perc,2024.2.4,Win32,11.99040767,5cd3d5760b858f0016ccd823,687ed1b7e638a4cbf2f02089,68803cfc350a438651958f70,,,,,,,,,,,,,,1,,,,,,,,,,,,,,,,,,,,,,,,,,,,,,,,,,,,,,,,,,,,549.8338,551.3729,1,1,0.8961,,551.373,552.3639,0,1,1,1,1,0,sí,REAL,FAKE,,,,,,,,,,,,,,,,,,,,,,,,,,,,,,,,
,,,,,,,,,5cd3d5760b858f0016ccd823,Mexican,13 or older,click here to respond,no,2025-07-22_21h38.42.864,empathy_intonation_perc,2024.2.4,Win32,11.99040767,5cd3d5760b858f0016ccd823,687ed1b7e638a4cbf2f02089,68803cfc350a438651958f70,,,,,,,,,,,,,,0,,,,,,,,,,,,,,,,,,,,,,,,,,,,,,,,,,,,,,,,,,,,552.3653,554.6059,1,0,1.5883,1E-04,554.6073,555.5986,0,2,2,2,1,0,coné,REAL,FAKE,,,,,,,,,,,,,,,,,,,,,,,,,,,,,,,,
,,,,,,,,,5cd3d5760b858f0016ccd823,Mexican,13 or older,click here to respond,no,2025-07-22_21h38.42.864,empathy_intonation_perc,2024.2.4,Win32,11.99040767,5cd3d5760b858f0016ccd823,687ed1b7e638a4cbf2f02089,68803cfc350a438651958f70,,,,,,,,,,,,,,0,,,,,,,,,,,,,,,,,,,,,,,,,,,,,,,,,,,,,,,,,,,,555.5996,558.1774,0,1,1.9284,,558.1783,559.1457,0,3,3,3,1,0,calpar,REAL,FAKE,,,,,,,,,,,,,,,,,,,,,,,,,,,,,,,,
,,,,,,,,,5cd3d5760b858f0016ccd823,Mexican,13 or older,click here to respond,no,2025-07-22_21h38.42.864,empathy_intonation_perc,2024.2.4,Win32,11.99040767,5cd3d5760b858f0016ccd823,687ed1b7e638a4cbf2f02089,68803cfc350a438651958f70,,,,,,,,,,,,,,0,,,,,,,,,,,,,,,,,,,,,,,,,,,,,,,,,,,,,,,,,,,,559.1469,561.1006,0,1,1.3121,,561.1007,562.0705,0,4,4,4,1,0,joten,REAL,FAKE,,,,,,,,,,,,,,,,,,,,,,,,,,,,,,,,
,,,,,,,,,5cd3d5760b858f0016ccd823,Mexican,13 or older,click here to respond,no,2025-07-22_21h38.42.864,empathy_intonation_perc,2024.2.4,Win32,11.99040767,5cd3d5760b858f0016ccd823,687ed1b7e638a4cbf2f02089,68803cfc350a438651958f70,,,,,,,,,,,,,,1,,,,,,,,,,,,,,,,,,,,,,,,,,,,,,,,,,,,,,,,,,,,562.0716,564.4162,1,1,1.6805,,564.4162,565.3873,0,5,5,5,1,0,sacapuntas,REAL,FAKE,,,,,,,,,,,,,,,,,,,,,,,,,,,,,,,,
,,,,,,,,,5cd3d5760b858f0016ccd823,Mexican,13 or older,click here to respond,no,2025-07-22_21h38.42.864,empathy_intonation_perc,2024.2.4,Win32,11.99040767,5cd3d5760b858f0016ccd823,687ed1b7e638a4cbf2f02089,68803cfc350a438651958f70,,,,,,,,,,,,,,0,,,,,,,,,,,,,,,,,,,,,,,,,,,,,,,,,,,,,,,,,,,,565.3886,566.9268,0,1,0.8806,,566.9269,567.8806,0,6,6,6,1,0,priba,REAL,FAKE,,,,,,,,,,,,,,,,,,,,,,,,,,,,,,,,
,,,,,,,,,5cd3d5760b858f0016ccd823,Mexican,13 or older,click here to respond,no,2025-07-22_21h38.42.864,empathy_intonation_perc,2024.2.4,Win32,11.99040767,5cd3d5760b858f0016ccd823,687ed1b7e638a4cbf2f02089,68803cfc350a438651958f70,,,,,,,,,,,,,,0,,,,,,,,,,,,,,,,,,,,,,,,,,,,,,,,,,,,,,,,,,,,567.8816,569.8037,0,1,1.2795,,569.8037,570.8092,0,7,7,7,1,0,pelasula,REAL,FAKE,,,,,,,,,,,,,,,,,,,,,,,,,,,,,,,,
,,,,,,,,,5cd3d5760b858f0016ccd823,Mexican,13 or older,click here to respond,no,2025-07-22_21h38.42.864,empathy_intonation_perc,2024.2.4,Win32,11.99040767,5cd3d5760b858f0016ccd823,687ed1b7e638a4cbf2f02089,68803cfc350a438651958f70,,,,,,,,,,,,,,1,,,,,,,,,,,,,,,,,,,,,,,,,,,,,,,,,,,,,,,,,,,,570.8101,572.3639,1,1,0.8971,,572.3639,573.3348,0,8,8,8,1,0,bien,REAL,FAKE,,,,,,,,,,,,,,,,,,,,,,,,,,,,,,,,
,,,,,,,,,5cd3d5760b858f0016ccd823,Mexican,13 or older,click here to respond,no,2025-07-22_21h38.42.864,empathy_intonation_perc,2024.2.4,Win32,11.99040767,5cd3d5760b858f0016ccd823,687ed1b7e638a4cbf2f02089,68803cfc350a438651958f70,,,,,,,,,,,,,,1,,,,,,,,,,,,,,,,,,,,,,,,,,,,,,,,,,,,,,,,,,,,573.3358,574.7517,1,1,0.7908,,574.7517,575.7088,0,9,9,9,1,0,casa,REAL,FAKE,,,,,,,,,,,,,,,,,,,,,,,,,,,,,,,,
,,,,,,,,,5cd3d5760b858f0016ccd823,Mexican,13 or older,click here to respond,no,2025-07-22_21h38.42.864,empathy_intonation_perc,2024.2.4,Win32,11.99040767,5cd3d5760b858f0016ccd823,687ed1b7e638a4cbf2f02089,68803cfc350a438651958f70,,,,,,,,,,,,,,0,,,,,,,,,,,,,,,,,,,,,,,,,,,,,,,,,,,,,,,,,,,,575.71,577.1321,0,1,0.7789,,577.1321,578.1083,0,10,10,10,1,0,lejo,REAL,FAKE,,,,,,,,,,,,,,,,,,,,,,,,,,,,,,,,
,,,,,,,,,5cd3d5760b858f0016ccd823,Mexican,13 or older,click here to respond,no,2025-07-22_21h38.42.864,empathy_intonation_perc,2024.2.4,Win32,11.99040767,5cd3d5760b858f0016ccd823,687ed1b7e638a4cbf2f02089,68803cfc350a438651958f70,,,,,,,,,,,,,,0,,,,,,,,,,,,,,,,,,,,,,,,,,,,,,,,,,,,,,,,,,,,578.1094,580.1999,0,1,1.4503,,580.1999,581.1949,0,11,11,11,1,0,pretantas,REAL,FAKE,,,,,,,,,,,,,,,,,,,,,,,,,,,,,,,,
,,,,,,,,,5cd3d5760b858f0016ccd823,Mexican,13 or older,click here to respond,no,2025-07-22_21h38.42.864,empathy_intonation_perc,2024.2.4,Win32,11.99040767,5cd3d5760b858f0016ccd823,687ed1b7e638a4cbf2f02089,68803cfc350a438651958f70,,,,,,,,,,,,,,,,,,,,,,,,,,,,,,,,,,,,,,,,,,,,,,,,,,,,,,,,,,,,,,,,,,,,,,,,,,,581.195,582.5276,,,,,,,,,,,,,,,,,,,,,,,,,,,,,,
,,,,,,,,,5cd3d5760b858f0016ccd823,Mexican,13 or older,click here to respond,no,2025-07-22_21h38.42.864,empathy_intonation_perc,2024.2.4,Win32,11.99040767,5cd3d5760b858f0016ccd823,687ed1b7e638a4cbf2f02089,68803cfc350a438651958f70,,,,,,,,,,,,,,0,,,,,,,,,,,,,,,,,,,,,,,,,,,,,,,,,,,,,,,,,,,,,,,,,,,,,,,,,82,empirador,,,,,582.5333,584.2626,0,1,1.1043,,0,0,0,81,1,REAL,FAKE,,,,,,,,,,,,,,,,,
,,,,,,,,,5cd3d5760b858f0016ccd823,Mexican,13 or older,click here to respond,no,2025-07-22_21h38.42.864,empathy_intonation_perc,2024.2.4,Win32,11.99040767,5cd3d5760b858f0016ccd823,687ed1b7e638a4cbf2f02089,68803cfc350a438651958f70,,,,,,,,,,,,,,0,,,,,,,,,,,,,,,,,,,,,,,,,,,,,,,,,,,,,,,,,,,,,,,,,,,,,,,,,8,cadeña,,,,,584.2639,586.4197,1,0,1.5147,,0,1,1,7,1,REAL,FAKE,,,,,,,,,,,,,,,,,
,,,,,,,,,5cd3d5760b858f0016ccd823,Mexican,13 or older,click here to respond,no,2025-07-22_21h38.42.864,empathy_intonation_perc,2024.2.4,Win32,11.99040767,5cd3d5760b858f0016ccd823,687ed1b7e638a4cbf2f02089,68803cfc350a438651958f70,,,,,,,,,,,,,,1,,,,,,,,,,,,,,,,,,,,,,,,,,,,,,,,,,,,,,,,,,,,,,,,,,,,,,,,,31,pandilla,,,,,586.4207,588.6186,0,0,1.5493,,0,2,2,30,1,REAL,FAKE,,,,,,,,,,,,,,,,,
,,,,,,,,,5cd3d5760b858f0016ccd823,Mexican,13 or older,click here to respond,no,2025-07-22_21h38.42.864,empathy_intonation_perc,2024.2.4,Win32,11.99040767,5cd3d5760b858f0016ccd823,687ed1b7e638a4cbf2f02089,68803cfc350a438651958f70,,,,,,,,,,,,,,0,,,,,,,,,,,,,,,,,,,,,,,,,,,,,,,,,,,,,,,,,,,,,,,,,,,,,,,,,66,hacido,,,,,588.6197,590.2876,1,0,1.0252,,0,3,3,65,1,REAL,FAKE,,,,,,,,,,,,,,,,,
,,,,,,,,,5cd3d5760b858f0016ccd823,Mexican,13 or older,click here to respond,no,2025-07-22_21h38.42.864,empathy_intonation_perc,2024.2.4,Win32,11.99040767,5cd3d5760b858f0016ccd823,687ed1b7e638a4cbf2f02089,68803cfc350a438651958f70,,,,,,,,,,,,,,0,,,,,,,,,,,,,,,,,,,,,,,,,,,,,,,,,,,,,,,,,,,,,,,,,,,,,,,,,70,temblo,,,,,590.2885,591.8318,0,1,0.903,,0,4,4,69,1,REAL,FAKE,,,,,,,,,,,,,,,,,
,,,,,,,,,5cd3d5760b858f0016ccd823,Mexican,13 or older,click here to respond,no,2025-07-22_21h38.42.864,empathy_intonation_perc,2024.2.4,Win32,11.99040767,5cd3d5760b858f0016ccd823,687ed1b7e638a4cbf2f02089,68803cfc350a438651958f70,,,,,,,,,,,,,,1,,,,,,,,,,,,,,,,,,,,,,,,,,,,,,,,,,,,,,,,,,,,,,,,,,,,,,,,,36,loro,,,,,591.8329,593.1183,0,0,0.6575,,0,5,5,35,1,REAL,FAKE,,,,,,,,,,,,,,,,,
,,,,,,,,,5cd3d5760b858f0016ccd823,Mexican,13 or older,click here to respond,no,2025-07-22_21h38.42.864,empathy_intonation_perc,2024.2.4,Win32,11.99040767,5cd3d5760b858f0016ccd823,687ed1b7e638a4cbf2f02089,68803cfc350a438651958f70,,,,,,,,,,,,,,1,,,,,,,,,,,,,,,,,,,,,,,,,,,,,,,,,,,,,,,,,,,,,,,,,,,,,,,,,64,orgulloso,,,,,593.1194,595.6932,0,0,1.9048,,0,6,6,63,1,REAL,FAKE,,,,,,,,,,,,,,,,,
,,,,,,,,,5cd3d5760b858f0016ccd823,Mexican,13 or older,click here to respond,no,2025-07-22_21h38.42.864,empathy_intonation_perc,2024.2.4,Win32,11.99040767,5cd3d5760b858f0016ccd823,687ed1b7e638a4cbf2f02089,68803cfc350a438651958f70,,,,,,,,,,,,,,0,,,,,,,,,,,,,,,,,,,,,,,,,,,,,,,,,,,,,,,,,,,,,,,,,,,,,,,,,92,click the 0 key.,,,,,595.6943,597.6517,0,1,1.3172,,0,7,7,91,1,REAL,FAKE,,,,,,,,,,,,,,,,,
,,,,,,,,,5cd3d5760b858f0016ccd823,Mexican,13 or older,click here to respond,no,2025-07-22_21h38.42.864,empathy_intonation_perc,2024.2.4,Win32,11.99040767,5cd3d5760b858f0016ccd823,687ed1b7e638a4cbf2f02089,68803cfc350a438651958f70,,,,,,,,,,,,,,1,,,,,,,,,,,,,,,,,,,,,,,,,,,,,,,,,,,,,,,,,,,,,,,,,,,,,,,,,76,atar,,,,,597.6527,599.3915,0,0,1.0889,,0,8,8,75,1,REAL,FAKE,,,,,,,,,,,,,,,,,
,,,,,,,,,5cd3d5760b858f0016ccd823,Mexican,13 or older,click here to respond,no,2025-07-22_21h38.42.864,empathy_intonation_perc,2024.2.4,Win32,11.99040767,5cd3d5760b858f0016ccd823,687ed1b7e638a4cbf2f02089,68803cfc350a438651958f70,,,,,,,,,,,,,,1,,,,,,,,,,,,,,,,,,,,,,,,,,,,,,,,,,,,,,,,,,,,,,,,,,,,,,,,,5,zapato,,,,,599.3928,601.1162,0,0,1.0945,,0,9,9,4,1,REAL,FAKE,,,,,,,,,,,,,,,,,
,,,,,,,,,5cd3d5760b858f0016ccd823,Mexican,13 or older,click here to respond,no,2025-07-22_21h38.42.864,empathy_intonation_perc,2024.2.4,Win32,11.99040767,5cd3d5760b858f0016ccd823,687ed1b7e638a4cbf2f02089,68803cfc350a438651958f70,,,,,,,,,,,,,,1,,,,,,,,,,,,,,,,,,,,,,,,,,,,,,,,,,,,,,,,,,,,,,,,,,,,,,,,,86,barato,,,,,601.1171,603.5888,1,1,1.8282,,0,10,10,85,1,REAL,FAKE,,,,,,,,,,,,,,,,,
,,,,,,,,,5cd3d5760b858f0016ccd823,Mexican,13 or older,click here to respond,no,2025-07-22_21h38.42.864,empathy_intonation_perc,2024.2.4,Win32,11.99040767,5cd3d5760b858f0016ccd823,687ed1b7e638a4cbf2f02089,68803cfc350a438651958f70,,,,,,,,,,,,,,1,,,,,,,,,,,,,,,,,,,,,,,,,,,,,,,,,,,,,,,,,,,,,,,,,,,,,,,,,67,cabello,,,,,603.5899,605.0109,1,1,0.7695,,0,11,11,66,1,REAL,FAKE,,,,,,,,,,,,,,,,,
,,,,,,,,,5cd3d5760b858f0016ccd823,Mexican,13 or older,click here to respond,no,2025-07-22_21h38.42.864,empathy_intonation_perc,2024.2.4,Win32,11.99040767,5cd3d5760b858f0016ccd823,687ed1b7e638a4cbf2f02089,68803cfc350a438651958f70,,,,,,,,,,,,,,0,,,,,,,,,,,,,,,,,,,,,,,,,,,,,,,,,,,,,,,,,,,,,,,,,,,,,,,,,50,flamida,,,,,605.012,606.5112,0,1,0.8765,,0,12,12,49,1,REAL,FAKE,,,,,,,,,,,,,,,,,
,,,,,,,,,5cd3d5760b858f0016ccd823,Mexican,13 or older,click here to respond,no,2025-07-22_21h38.42.864,empathy_intonation_perc,2024.2.4,Win32,11.99040767,5cd3d5760b858f0016ccd823,687ed1b7e638a4cbf2f02089,68803cfc350a438651958f70,,,,,,,,,,,,,,0,,,,,,,,,,,,,,,,,,,,,,,,,,,,,,,,,,,,,,,,,,,,,,,,,,,,,,,,,19,brecedad,,,,,606.5122,608.1426,0,1,1.0192,,0,13,13,18,1,REAL,FAKE,,,,,,,,,,,,,,,,,
,,,,,,,,,5cd3d5760b858f0016ccd823,Mexican,13 or older,click here to respond,no,2025-07-22_21h38.42.864,empathy_intonation_perc,2024.2.4,Win32,11.99040767,5cd3d5760b858f0016ccd823,687ed1b7e638a4cbf2f02089,68803cfc350a438651958f70,,,,,,,,,,,,,,1,,,,,,,,,,,,,,,,,,,,,,,,,,,,,,,,,,,,,,,,,,,,,,,,,,,,,,,,,9,hacha,,,,,608.1436,610.7453,1,1,1.9939,,0,14,14,8,1,REAL,FAKE,,,,,,,,,,,,,,,,,
,,,,,,,,,5cd3d5760b858f0016ccd823,Mexican,13 or older,click here to respond,no,2025-07-22_21h38.42.864,empathy_intonation_perc,2024.2.4,Win32,11.99040767,5cd3d5760b858f0016ccd823,687ed1b7e638a4cbf2f02089,68803cfc350a438651958f70,,,,,,,,,,,,,,1,,,,,,,,,,,,,,,,,,,,,,,,,,,,,,,,,,,,,,,,,,,,,,,,,,,,,,,,,83,guante,,,,,610.7463,612.4129,1,1,0.9972,1E-04,0,15,15,82,1,REAL,FAKE,,,,,,,,,,,,,,,,,
,,,,,,,,,5cd3d5760b858f0016ccd823,Mexican,13 or older,click here to respond,no,2025-07-22_21h38.42.864,empathy_intonation_perc,2024.2.4,Win32,11.99040767,5cd3d5760b858f0016ccd823,687ed1b7e638a4cbf2f02089,68803cfc350a438651958f70,,,,,,,,,,,,,,1,,,,,,,,,,,,,,,,,,,,,,,,,,,,,,,,,,,,,,,,,,,,,,,,,,,,,,,,,75,yacer,,,,,612.4139,613.7311,0,0,0.6635,,0,16,16,74,1,REAL,FAKE,,,,,,,,,,,,,,,,,
,,,,,,,,,5cd3d5760b858f0016ccd823,Mexican,13 or older,click here to respond,no,2025-07-22_21h38.42.864,empathy_intonation_perc,2024.2.4,Win32,11.99040767,5cd3d5760b858f0016ccd823,687ed1b7e638a4cbf2f02089,68803cfc350a438651958f70,,,,,,,,,,,,,,1,,,,,,,,,,,,,,,,,,,,,,,,,,,,,,,,,,,,,,,,,,,,,,,,,,,,,,,,,34,aviso,,,,,613.7322,616.5276,0,0,2.1694,,0,17,17,33,1,REAL,FAKE,,,,,,,,,,,,,,,,,
,,,,,,,,,5cd3d5760b858f0016ccd823,Mexican,13 or older,click here to respond,no,2025-07-22_21h38.42.864,empathy_intonation_perc,2024.2.4,Win32,11.99040767,5cd3d5760b858f0016ccd823,687ed1b7e638a4cbf2f02089,68803cfc350a438651958f70,,,,,,,,,,,,,,0,,,,,,,,,,,,,,,,,,,,,,,,,,,,,,,,,,,,,,,,,,,,,,,,,,,,,,,,,32,fatacidad,,,,,616.5286,618.3299,0,1,1.1786,,0,18,18,31,1,REAL,FAKE,,,,,,,,,,,,,,,,,
,,,,,,,,,5cd3d5760b858f0016ccd823,Mexican,13 or older,click here to respond,no,2025-07-22_21h38.42.864,empathy_intonation_perc,2024.2.4,Win32,11.99040767,5cd3d5760b858f0016ccd823,687ed1b7e638a4cbf2f02089,68803cfc350a438651958f70,,,,,,,,,,,,,,1,,,,,,,,,,,,,,,,,,,,,,,,,,,,,,,,,,,,,,,,,,,,,,,,,,,,,,,,,37,granuja,,,,,618.3309,619.9118,0,0,0.9573,,0,19,19,36,1,REAL,FAKE,,,,,,,,,,,,,,,,,
,,,,,,,,,5cd3d5760b858f0016ccd823,Mexican,13 or older,click here to respond,no,2025-07-22_21h38.42.864,empathy_intonation_perc,2024.2.4,Win32,11.99040767,5cd3d5760b858f0016ccd823,687ed1b7e638a4cbf2f02089,68803cfc350a438651958f70,,,,,,,,,,,,,,1,,,,,,,,,,,,,,,,,,,,,,,,,,,,,,,,,,,,,,,,,,,,,,,,,,,,,,,,,49,ganar,,,,,619.913,622.0959,0,0,1.5288,,0,20,20,48,1,REAL,FAKE,,,,,,,,,,,,,,,,,
,,,,,,,,,5cd3d5760b858f0016ccd823,Mexican,13 or older,click here to respond,no,2025-07-22_21h38.42.864,empathy_intonation_perc,2024.2.4,Win32,11.99040767,5cd3d5760b858f0016ccd823,687ed1b7e638a4cbf2f02089,68803cfc350a438651958f70,,,,,,,,,,,,,,1,,,,,,,,,,,,,,,,,,,,,,,,,,,,,,,,,,,,,,,,,,,,,,,,,,,,,,,,,55,nevar,,,,,622.097,623.8484,0,0,1.0998,,0,21,21,54,1,REAL,FAKE,,,,,,,,,,,,,,,,,
,,,,,,,,,5cd3d5760b858f0016ccd823,Mexican,13 or older,click here to respond,no,2025-07-22_21h38.42.864,empathy_intonation_perc,2024.2.4,Win32,11.99040767,5cd3d5760b858f0016ccd823,687ed1b7e638a4cbf2f02089,68803cfc350a438651958f70,,,,,,,,,,,,,,1,,,,,,,,,,,,,,,,,,,,,,,,,,,,,,,,,,,,,,,,,,,,,,,,,,,,,,,,,38,estornudar,,,,,623.8494,626.7122,1,1,2.2201,,0,22,22,37,1,REAL,FAKE,,,,,,,,,,,,,,,,,
,,,,,,,,,5cd3d5760b858f0016ccd823,Mexican,13 or older,click here to respond,no,2025-07-22_21h38.42.864,empathy_intonation_perc,2024.2.4,Win32,11.99040767,5cd3d5760b858f0016ccd823,687ed1b7e638a4cbf2f02089,68803cfc350a438651958f70,,,,,,,,,,,,,,0,,,,,,,,,,,,,,,,,,,,,,,,,,,,,,,,,,,,,,,,,,,,,,,,,,,,,,,,,10,antar,,,,,626.7132,628.9196,1,0,1.5632,,0,23,23,9,1,REAL,FAKE,,,,,,,,,,,,,,,,,
,,,,,,,,,5cd3d5760b858f0016ccd823,Mexican,13 or older,click here to respond,no,2025-07-22_21h38.42.864,empathy_intonation_perc,2024.2.4,Win32,11.99040767,5cd3d5760b858f0016ccd823,687ed1b7e638a4cbf2f02089,68803cfc350a438651958f70,,,,,,,,,,,,,,1,,,,,,,,,,,,,,,,,,,,,,,,,,,,,,,,,,,,,,,,,,,,,,,,,,,,,,,,,2,pellizcar,,,,,628.9206,630.4654,0,0,0.8825,,0,24,24,1,1,REAL,FAKE,,,,,,,,,,,,,,,,,
,,,,,,,,,5cd3d5760b858f0016ccd823,Mexican,13 or older,click here to respond,no,2025-07-22_21h38.42.864,empathy_intonation_perc,2024.2.4,Win32,11.99040767,5cd3d5760b858f0016ccd823,687ed1b7e638a4cbf2f02089,68803cfc350a438651958f70,,,,,,,,,,,,,,1,,,,,,,,,,,,,,,,,,,,,,,,,,,,,,,,,,,,,,,,,,,,,,,,,,,,,,,,,28,merodear,,,,,630.4665,632.6821,0,0,1.5558,,0,25,25,27,1,REAL,FAKE,,,,,,,,,,,,,,,,,
,,,,,,,,,5cd3d5760b858f0016ccd823,Mexican,13 or older,click here to respond,no,2025-07-22_21h38.42.864,empathy_intonation_perc,2024.2.4,Win32,11.99040767,5cd3d5760b858f0016ccd823,687ed1b7e638a4cbf2f02089,68803cfc350a438651958f70,,,,,,,,,,,,,,1,,,,,,,,,,,,,,,,,,,,,,,,,,,,,,,,,,,,,,,,,,,,,,,,,,,,,,,,,24,látigo,,,,,632.6834,634.5185,0,0,1.212,,0,26,26,23,1,REAL,FAKE,,,,,,,,,,,,,,,,,
,,,,,,,,,5cd3d5760b858f0016ccd823,Mexican,13 or older,click here to respond,no,2025-07-22_21h38.42.864,empathy_intonation_perc,2024.2.4,Win32,11.99040767,5cd3d5760b858f0016ccd823,687ed1b7e638a4cbf2f02089,68803cfc350a438651958f70,,,,,,,,,,,,,,0,,,,,,,,,,,,,,,,,,,,,,,,,,,,,,,,,,,,,,,,,,,,,,,,,,,,,,,,,42,cadallo,,,,,634.5196,636.4857,0,1,1.3357,,0,27,27,41,1,REAL,FAKE,,,,,,,,,,,,,,,,,
,,,,,,,,,5cd3d5760b858f0016ccd823,Mexican,13 or older,click here to respond,no,2025-07-22_21h38.42.864,empathy_intonation_perc,2024.2.4,Win32,11.99040767,5cd3d5760b858f0016ccd823,687ed1b7e638a4cbf2f02089,68803cfc350a438651958f70,,,,,,,,,,,,,,1,,,,,,,,,,,,,,,,,,,,,,,,,,,,,,,,,,,,,,,,,,,,,,,,,,,,,,,,,78,frondoso,,,,,636.4868,638.3739,0,0,1.2552,,0,28,28,77,1,REAL,FAKE,,,,,,,,,,,,,,,,,
,,,,,,,,,5cd3d5760b858f0016ccd823,Mexican,13 or older,click here to respond,no,2025-07-22_21h38.42.864,empathy_intonation_perc,2024.2.4,Win32,11.99040767,5cd3d5760b858f0016ccd823,687ed1b7e638a4cbf2f02089,68803cfc350a438651958f70,,,,,,,,,,,,,,1,,,,,,,,,,,,,,,,,,,,,,,,,,,,,,,,,,,,,,,,,,,,,,,,,,,,,,,,,52,camisa,,,,,638.3749,639.9927,1,1,0.9989,,0,29,29,51,1,REAL,FAKE,,,,,,,,,,,,,,,,,
,,,,,,,,,5cd3d5760b858f0016ccd823,Mexican,13 or older,click here to respond,no,2025-07-22_21h38.42.864,empathy_intonation_perc,2024.2.4,Win32,11.99040767,5cd3d5760b858f0016ccd823,687ed1b7e638a4cbf2f02089,68803cfc350a438651958f70,,,,,,,,,,,,,,1,,,,,,,,,,,,,,,,,,,,,,,,,,,,,,,,,,,,,,,,,,,,,,,,,,,,,,,,,45,jilguero,,,,,639.9936,641.573,0,0,0.9258,,0,30,30,44,1,REAL,FAKE,,,,,,,,,,,,,,,,,
,,,,,,,,,5cd3d5760b858f0016ccd823,Mexican,13 or older,click here to respond,no,2025-07-22_21h38.42.864,empathy_intonation_perc,2024.2.4,Win32,11.99040767,5cd3d5760b858f0016ccd823,687ed1b7e638a4cbf2f02089,68803cfc350a438651958f70,,,,,,,,,,,,,,0,,,,,,,,,,,,,,,,,,,,,,,,,,,,,,,,,,,,,,,,,,,,,,,,,,,,,,,,,35,rompido,,,,,641.5742,643.6451,0,1,1.4341,,0,31,31,34,1,REAL,FAKE,,,,,,,,,,,,,,,,,
,,,,,,,,,5cd3d5760b858f0016ccd823,Mexican,13 or older,click here to respond,no,2025-07-22_21h38.42.864,empathy_intonation_perc,2024.2.4,Win32,11.99040767,5cd3d5760b858f0016ccd823,687ed1b7e638a4cbf2f02089,68803cfc350a438651958f70,,,,,,,,,,,,,,1,,,,,,,,,,,,,,,,,,,,,,,,,,,,,,,,,,,,,,,,,,,,,,,,,,,,,,,,,41,rebuscar,,,,,643.6461,645.5461,0,0,1.2486,,0,32,32,40,1,REAL,FAKE,,,,,,,,,,,,,,,,,
,,,,,,,,,5cd3d5760b858f0016ccd823,Mexican,13 or older,click here to respond,no,2025-07-22_21h38.42.864,empathy_intonation_perc,2024.2.4,Win32,11.99040767,5cd3d5760b858f0016ccd823,687ed1b7e638a4cbf2f02089,68803cfc350a438651958f70,,,,,,,,,,,,,,1,,,,,,,,,,,,,,,,,,,,,,,,,,,,,,,,,,,,,,,,,,,,,,,,,,,,,,,,,69,engatusar,,,,,645.5473,647.2272,1,1,1.0275,,0,33,33,68,1,REAL,FAKE,,,,,,,,,,,,,,,,,
,,,,,,,,,5cd3d5760b858f0016ccd823,Mexican,13 or older,click here to respond,no,2025-07-22_21h38.42.864,empathy_intonation_perc,2024.2.4,Win32,11.99040767,5cd3d5760b858f0016ccd823,687ed1b7e638a4cbf2f02089,68803cfc350a438651958f70,,,,,,,,,,,,,,0,,,,,,,,,,,,,,,,,,,,,,,,,,,,,,,,,,,,,,,,,,,,,,,,,,,,,,,,,30,alardio,,,,,647.2282,649.405,0,1,1.5381,,0,34,34,29,1,REAL,FAKE,,,,,,,,,,,,,,,,,
,,,,,,,,,5cd3d5760b858f0016ccd823,Mexican,13 or older,click here to respond,no,2025-07-22_21h38.42.864,empathy_intonation_perc,2024.2.4,Win32,11.99040767,5cd3d5760b858f0016ccd823,687ed1b7e638a4cbf2f02089,68803cfc350a438651958f70,,,,,,,,,,,,,,1,,,,,,,,,,,,,,,,,,,,,,,,,,,,,,,,,,,,,,,,,,,,,,,,,,,,,,,,,65,bizcocho,,,,,649.4061,650.9002,0,0,0.8914,,0,35,35,64,1,REAL,FAKE,,,,,,,,,,,,,,,,,
,,,,,,,,,5cd3d5760b858f0016ccd823,Mexican,13 or older,click here to respond,no,2025-07-22_21h38.42.864,empathy_intonation_perc,2024.2.4,Win32,11.99040767,5cd3d5760b858f0016ccd823,687ed1b7e638a4cbf2f02089,68803cfc350a438651958f70,,,,,,,,,,,,,,0,,,,,,,,,,,,,,,,,,,,,,,,,,,,,,,,,,,,,,,,,,,,,,,,,,,,,,,,,63,esposante,,,,,650.9013,652.6609,1,0,1.1212,,0,36,36,62,1,REAL,FAKE,,,,,,,,,,,,,,,,,
,,,,,,,,,5cd3d5760b858f0016ccd823,Mexican,13 or older,click here to respond,no,2025-07-22_21h38.42.864,empathy_intonation_perc,2024.2.4,Win32,11.99040767,5cd3d5760b858f0016ccd823,687ed1b7e638a4cbf2f02089,68803cfc350a438651958f70,,,,,,,,,,,,,,0,,,,,,,,,,,,,,,,,,,,,,,,,,,,,,,,,,,,,,,,,,,,,,,,,,,,,,,,,4,batillón,,,,,652.6621,655.1014,0,1,1.8061,,0,37,37,3,1,REAL,FAKE,,,,,,,,,,,,,,,,,
,,,,,,,,,5cd3d5760b858f0016ccd823,Mexican,13 or older,click here to respond,no,2025-07-22_21h38.42.864,empathy_intonation_perc,2024.2.4,Win32,11.99040767,5cd3d5760b858f0016ccd823,687ed1b7e638a4cbf2f02089,68803cfc350a438651958f70,,,,,,,,,,,,,,1,,,,,,,,,,,,,,,,,,,,,,,,,,,,,,,,,,,,,,,,,,,,,,,,,,,,,,,,,11,cenefa,,,,,655.1025,656.7416,0,0,0.9967,,0,38,38,10,1,REAL,FAKE,,,,,,,,,,,,,,,,,
,,,,,,,,,5cd3d5760b858f0016ccd823,Mexican,13 or older,click here to respond,no,2025-07-22_21h38.42.864,empathy_intonation_perc,2024.2.4,Win32,11.99040767,5cd3d5760b858f0016ccd823,687ed1b7e638a4cbf2f02089,68803cfc350a438651958f70,,,,,,,,,,,,,,1,,,,,,,,,,,,,,,,,,,,,,,,,,,,,,,,,,,,,,,,,,,,,,,,,,,,,,,,,57,tacaño,,,,,656.7428,658.6101,0,0,1.2217,,0,39,39,56,1,REAL,FAKE,,,,,,,,,,,,,,,,,
,,,,,,,,,5cd3d5760b858f0016ccd823,Mexican,13 or older,click here to respond,no,2025-07-22_21h38.42.864,empathy_intonation_perc,2024.2.4,Win32,11.99040767,5cd3d5760b858f0016ccd823,687ed1b7e638a4cbf2f02089,68803cfc350a438651958f70,,,,,,,,,,,,,,1,,,,,,,,,,,,,,,,,,,,,,,,,,,,,,,,,,,,,,,,,,,,,,,,,,,,,,,,,51,candado,,,,,658.6112,661.3505,0,0,2.1191,,0,40,40,50,1,REAL,FAKE,,,,,,,,,,,,,,,,,
,,,,,,,,,5cd3d5760b858f0016ccd823,Mexican,13 or older,click here to respond,no,2025-07-22_21h38.42.864,empathy_intonation_perc,2024.2.4,Win32,11.99040767,5cd3d5760b858f0016ccd823,687ed1b7e638a4cbf2f02089,68803cfc350a438651958f70,,,,,,,,,,,,,,1,,,,,,,,,,,,,,,,,,,,,,,,,,,,,,,,,,,,,,,,,,,,,,,,,,,,,,,,,46,martillo,,,,,661.3514,662.8816,0,0,0.8932,,0,41,41,45,1,REAL,FAKE,,,,,,,,,,,,,,,,,
,,,,,,,,,5cd3d5760b858f0016ccd823,Mexican,13 or older,click here to respond,no,2025-07-22_21h38.42.864,empathy_intonation_perc,2024.2.4,Win32,11.99040767,5cd3d5760b858f0016ccd823,687ed1b7e638a4cbf2f02089,68803cfc350a438651958f70,,,,,,,,,,,,,,1,,,,,,,,,,,,,,,,,,,,,,,,,,,,,,,,,,,,,,,,,,,,,,,,,,,,,,,,,60,matar,,,,,662.8826,664.7477,0,0,1.2304,,0,42,42,59,1,REAL,FAKE,,,,,,,,,,,,,,,,,
,,,,,,,,,5cd3d5760b858f0016ccd823,Mexican,13 or older,click here to respond,no,2025-07-22_21h38.42.864,empathy_intonation_perc,2024.2.4,Win32,11.99040767,5cd3d5760b858f0016ccd823,687ed1b7e638a4cbf2f02089,68803cfc350a438651958f70,,,,,,,,,,,,,,1,,,,,,,,,,,,,,,,,,,,,,,,,,,,,,,,,,,,,,,,,,,,,,,,,,,,,,,,,77,tiburón,,,,,664.7487,666.5955,1,1,1.2161,,0,43,43,76,1,REAL,FAKE,,,,,,,,,,,,,,,,,
,,,,,,,,,5cd3d5760b858f0016ccd823,Mexican,13 or older,click here to respond,no,2025-07-22_21h38.42.864,empathy_intonation_perc,2024.2.4,Win32,11.99040767,5cd3d5760b858f0016ccd823,687ed1b7e638a4cbf2f02089,68803cfc350a438651958f70,,,,,,,,,,,,,,1,,,,,,,,,,,,,,,,,,,,,,,,,,,,,,,,,,,,,,,,,,,,,,,,,,,,,,,,,80,hormiga,,,,,666.5965,668.2385,0,0,1.0061,,0,44,44,79,1,REAL,FAKE,,,,,,,,,,,,,,,,,
,,,,,,,,,5cd3d5760b858f0016ccd823,Mexican,13 or older,click here to respond,no,2025-07-22_21h38.42.864,empathy_intonation_perc,2024.2.4,Win32,11.99040767,5cd3d5760b858f0016ccd823,687ed1b7e638a4cbf2f02089,68803cfc350a438651958f70,,,,,,,,,,,,,,0,,,,,,,,,,,,,,,,,,,,,,,,,,,,,,,,,,,,,,,,,,,,,,,,,,,,,,,,,79,tropaje,,,,,668.2396,669.8714,0,1,0.9988,,0,45,45,78,1,REAL,FAKE,,,,,,,,,,,,,,,,,
,,,,,,,,,5cd3d5760b858f0016ccd823,Mexican,13 or older,click here to respond,no,2025-07-22_21h38.42.864,empathy_intonation_perc,2024.2.4,Win32,11.99040767,5cd3d5760b858f0016ccd823,687ed1b7e638a4cbf2f02089,68803cfc350a438651958f70,,,,,,,,,,,,,,1,,,,,,,,,,,,,,,,,,,,,,,,,,,,,,,,,,,,,,,,,,,,,,,,,,,,,,,,,90,clavel,,,,,669.8724,673.0499,0,0,2.5501,,0,46,46,89,1,REAL,FAKE,,,,,,,,,,,,,,,,,
,,,,,,,,,5cd3d5760b858f0016ccd823,Mexican,13 or older,click here to respond,no,2025-07-22_21h38.42.864,empathy_intonation_perc,2024.2.4,Win32,11.99040767,5cd3d5760b858f0016ccd823,687ed1b7e638a4cbf2f02089,68803cfc350a438651958f70,,,,,,,,,,,,,,1,,,,,,,,,,,,,,,,,,,,,,,,,,,,,,,,,,,,,,,,,,,,,,,,,,,,,,,,,91,click the 1 key.,,,,,673.051,674.5875,1,1,0.8874,,0,47,47,90,1,REAL,FAKE,,,,,,,,,,,,,,,,,
,,,,,,,,,5cd3d5760b858f0016ccd823,Mexican,13 or older,click here to respond,no,2025-07-22_21h38.42.864,empathy_intonation_perc,2024.2.4,Win32,11.99040767,5cd3d5760b858f0016ccd823,687ed1b7e638a4cbf2f02089,68803cfc350a438651958f70,,,,,,,,,,,,,,1,,,,,,,,,,,,,,,,,,,,,,,,,,,,,,,,,,,,,,,,,,,,,,,,,,,,,,,,,81,pozo,,,,,674.5884,677.133,0,0,1.9041,,0,48,48,80,1,REAL,FAKE,,,,,,,,,,,,,,,,,
,,,,,,,,,5cd3d5760b858f0016ccd823,Mexican,13 or older,click here to respond,no,2025-07-22_21h38.42.864,empathy_intonation_perc,2024.2.4,Win32,11.99040767,5cd3d5760b858f0016ccd823,687ed1b7e638a4cbf2f02089,68803cfc350a438651958f70,,,,,,,,,,,,,,0,,,,,,,,,,,,,,,,,,,,,,,,,,,,,,,,,,,,,,,,,,,,,,,,,,,,,,,,,58,plaudir,,,,,677.1341,678.5909,0,1,0.7916,,0,49,49,57,1,REAL,FAKE,,,,,,,,,,,,,,,,,
,,,,,,,,,5cd3d5760b858f0016ccd823,Mexican,13 or older,click here to respond,no,2025-07-22_21h38.42.864,empathy_intonation_perc,2024.2.4,Win32,11.99040767,5cd3d5760b858f0016ccd823,687ed1b7e638a4cbf2f02089,68803cfc350a438651958f70,,,,,,,,,,,,,,1,,,,,,,,,,,,,,,,,,,,,,,,,,,,,,,,,,,,,,,,,,,,,,,,,,,,,,,,,71,polvoriento,,,,,678.592,680.4814,0,0,1.2405,,0,50,50,70,1,REAL,FAKE,,,,,,,,,,,,,,,,,
,,,,,,,,,5cd3d5760b858f0016ccd823,Mexican,13 or older,click here to respond,no,2025-07-22_21h38.42.864,empathy_intonation_perc,2024.2.4,Win32,11.99040767,5cd3d5760b858f0016ccd823,687ed1b7e638a4cbf2f02089,68803cfc350a438651958f70,,,,,,,,,,,,,,1,,,,,,,,,,,,,,,,,,,,,,,,,,,,,,,,,,,,,,,,,,,,,,,,,,,,,,,,,44,cuchara,,,,,680.4824,684.767,1,1,3.623,,0,51,51,43,1,REAL,FAKE,,,,,,,,,,,,,,,,,
,,,,,,,,,5cd3d5760b858f0016ccd823,Mexican,13 or older,click here to respond,no,2025-07-22_21h38.42.864,empathy_intonation_perc,2024.2.4,Win32,11.99040767,5cd3d5760b858f0016ccd823,687ed1b7e638a4cbf2f02089,68803cfc350a438651958f70,,,,,,,,,,,,,,0,,,,,,,,,,,,,,,,,,,,,,,,,,,,,,,,,,,,,,,,,,,,,,,,,,,,,,,,,17,floroso,,,,,684.7681,686.0693,0,1,0.6618,,0,52,52,16,1,REAL,FAKE,,,,,,,,,,,,,,,,,
,,,,,,,,,5cd3d5760b858f0016ccd823,Mexican,13 or older,click here to respond,no,2025-07-22_21h38.42.864,empathy_intonation_perc,2024.2.4,Win32,11.99040767,5cd3d5760b858f0016ccd823,687ed1b7e638a4cbf2f02089,68803cfc350a438651958f70,,,,,,,,,,,,,,1,,,,,,,,,,,,,,,,,,,,,,,,,,,,,,,,,,,,,,,,,,,,,,,,,,,,,,,,,54,fomentar,,,,,686.0704,688.4881,0,0,1.8029,,0,53,53,53,1,REAL,FAKE,,,,,,,,,,,,,,,,,
,,,,,,,,,5cd3d5760b858f0016ccd823,Mexican,13 or older,click here to respond,no,2025-07-22_21h38.42.864,empathy_intonation_perc,2024.2.4,Win32,11.99040767,5cd3d5760b858f0016ccd823,687ed1b7e638a4cbf2f02089,68803cfc350a438651958f70,,,,,,,,,,,,,,1,,,,,,,,,,,,,,,,,,,,,,,,,,,,,,,,,,,,,,,,,,,,,,,,,,,,,,,,,85,laúd,,,,,688.4896,690.5923,0,0,1.4481,,0,54,54,84,1,REAL,FAKE,,,,,,,,,,,,,,,,,
,,,,,,,,,5cd3d5760b858f0016ccd823,Mexican,13 or older,click here to respond,no,2025-07-22_21h38.42.864,empathy_intonation_perc,2024.2.4,Win32,11.99040767,5cd3d5760b858f0016ccd823,687ed1b7e638a4cbf2f02089,68803cfc350a438651958f70,,,,,,,,,,,,,,1,,,,,,,,,,,,,,,,,,,,,,,,,,,,,,,,,,,,,,,,,,,,,,,,,,,,,,,,,7,pésimo,,,,,690.5934,692.1862,1,1,0.9287,,0,55,55,6,1,REAL,FAKE,,,,,,,,,,,,,,,,,
,,,,,,,,,5cd3d5760b858f0016ccd823,Mexican,13 or older,click here to respond,no,2025-07-22_21h38.42.864,empathy_intonation_perc,2024.2.4,Win32,11.99040767,5cd3d5760b858f0016ccd823,687ed1b7e638a4cbf2f02089,68803cfc350a438651958f70,,,,,,,,,,,,,,0,,,,,,,,,,,,,,,,,,,,,,,,,,,,,,,,,,,,,,,,,,,,,,,,,,,,,,,,,72,pemición,,,,,692.1872,695.1556,0,1,2.3444,,0,56,56,71,1,REAL,FAKE,,,,,,,,,,,,,,,,,
,,,,,,,,,5cd3d5760b858f0016ccd823,Mexican,13 or older,click here to respond,no,2025-07-22_21h38.42.864,empathy_intonation_perc,2024.2.4,Win32,11.99040767,5cd3d5760b858f0016ccd823,687ed1b7e638a4cbf2f02089,68803cfc350a438651958f70,,,,,,,,,,,,,,0,,,,,,,,,,,,,,,,,,,,,,,,,,,,,,,,,,,,,,,,,,,,,,,,,,,,,,,,,33,pauca,,,,,695.1565,696.6981,0,1,0.8957,,0,57,57,32,1,REAL,FAKE,,,,,,,,,,,,,,,,,
,,,,,,,,,5cd3d5760b858f0016ccd823,Mexican,13 or older,click here to respond,no,2025-07-22_21h38.42.864,empathy_intonation_perc,2024.2.4,Win32,11.99040767,5cd3d5760b858f0016ccd823,687ed1b7e638a4cbf2f02089,68803cfc350a438651958f70,,,,,,,,,,,,,,1,,,,,,,,,,,,,,,,,,,,,,,,,,,,,,,,,,,,,,,,,,,,,,,,,,,,,,,,,88,acantilado,,,,,696.6991,700.595,1,1,3.2556,,0,58,58,87,1,REAL,FAKE,,,,,,,,,,,,,,,,,
,,,,,,,,,5cd3d5760b858f0016ccd823,Mexican,13 or older,click here to respond,no,2025-07-22_21h38.42.864,empathy_intonation_perc,2024.2.4,Win32,11.99040767,5cd3d5760b858f0016ccd823,687ed1b7e638a4cbf2f02089,68803cfc350a438651958f70,,,,,,,,,,,,,,0,,,,,,,,,,,,,,,,,,,,,,,,,,,,,,,,,,,,,,,,,,,,,,,,,,,,,,,,,84,escuto,,,,,700.596,702.6497,0,1,1.3593,,0,59,59,83,1,REAL,FAKE,,,,,,,,,,,,,,,,,
,,,,,,,,,5cd3d5760b858f0016ccd823,Mexican,13 or older,click here to respond,no,2025-07-22_21h38.42.864,empathy_intonation_perc,2024.2.4,Win32,11.99040767,5cd3d5760b858f0016ccd823,687ed1b7e638a4cbf2f02089,68803cfc350a438651958f70,,,,,,,,,,,,,,0,,,,,,,,,,,,,,,,,,,,,,,,,,,,,,,,,,,,,,,,,,,,,,,,,,,,,,,,,27,acutación,,,,,702.6507,705.3744,0,1,2.0934,,0,60,60,26,1,REAL,FAKE,,,,,,,,,,,,,,,,,
,,,,,,,,,5cd3d5760b858f0016ccd823,Mexican,13 or older,click here to respond,no,2025-07-22_21h38.42.864,empathy_intonation_perc,2024.2.4,Win32,11.99040767,5cd3d5760b858f0016ccd823,687ed1b7e638a4cbf2f02089,68803cfc350a438651958f70,,,,,,,,,,,,,,1,,,,,,,,,,,,,,,,,,,,,,,,,,,,,,,,,,,,,,,,,,,,,,,,,,,,,,,,,68,alegre,,,,,705.3755,708.2153,1,1,2.201,,0,61,61,67,1,REAL,FAKE,,,,,,,,,,,,,,,,,
,,,,,,,,,5cd3d5760b858f0016ccd823,Mexican,13 or older,click here to respond,no,2025-07-22_21h38.42.864,empathy_intonation_perc,2024.2.4,Win32,11.99040767,5cd3d5760b858f0016ccd823,687ed1b7e638a4cbf2f02089,68803cfc350a438651958f70,,,,,,,,,,,,,,0,,,,,,,,,,,,,,,,,,,,,,,,,,,,,,,,,,,,,,,,,,,,,,,,,,,,,,,,,21,capillo,,,,,708.2164,709.7497,0,1,0.8939,,0,62,62,20,1,REAL,FAKE,,,,,,,,,,,,,,,,,
,,,,,,,,,5cd3d5760b858f0016ccd823,Mexican,13 or older,click here to respond,no,2025-07-22_21h38.42.864,empathy_intonation_perc,2024.2.4,Win32,11.99040767,5cd3d5760b858f0016ccd823,687ed1b7e638a4cbf2f02089,68803cfc350a438651958f70,,,,,,,,,,,,,,1,,,,,,,,,,,,,,,,,,,,,,,,,,,,,,,,,,,,,,,,,,,,,,,,,,,,,,,,,13,helar,,,,,709.751,711.2252,0,0,0.7874,,0,63,63,12,1,REAL,FAKE,,,,,,,,,,,,,,,,,
,,,,,,,,,5cd3d5760b858f0016ccd823,Mexican,13 or older,click here to respond,no,2025-07-22_21h38.42.864,empathy_intonation_perc,2024.2.4,Win32,11.99040767,5cd3d5760b858f0016ccd823,687ed1b7e638a4cbf2f02089,68803cfc350a438651958f70,,,,,,,,,,,,,,0,,,,,,,,,,,,,,,,,,,,,,,,,,,,,,,,,,,,,,,,,,,,,,,,,,,,,,,,,47,cartinar,,,,,711.2262,713.5826,0,1,1.6984,,0,64,64,46,1,REAL,FAKE,,,,,,,,,,,,,,,,,
,,,,,,,,,5cd3d5760b858f0016ccd823,Mexican,13 or older,click here to respond,no,2025-07-22_21h38.42.864,empathy_intonation_perc,2024.2.4,Win32,11.99040767,5cd3d5760b858f0016ccd823,687ed1b7e638a4cbf2f02089,68803cfc350a438651958f70,,,,,,,,,,,,,,1,,,,,,,,,,,,,,,,,,,,,,,,,,,,,,,,,,,,,,,,,,,,,,,,,,,,,,,,,12,asesinato,,,,,713.5837,715.5947,0,0,1.3694,,0,65,65,11,1,REAL,FAKE,,,,,,,,,,,,,,,,,
,,,,,,,,,5cd3d5760b858f0016ccd823,Mexican,13 or older,click here to respond,no,2025-07-22_21h38.42.864,empathy_intonation_perc,2024.2.4,Win32,11.99040767,5cd3d5760b858f0016ccd823,687ed1b7e638a4cbf2f02089,68803cfc350a438651958f70,,,,,,,,,,,,,,1,,,,,,,,,,,,,,,,,,,,,,,,,,,,,,,,,,,,,,,,,,,,,,,,,,,,,,,,,62,flaco,,,,,715.5958,717.0407,0,0,0.7832,,0,66,66,61,1,REAL,FAKE,,,,,,,,,,,,,,,,,
,,,,,,,,,5cd3d5760b858f0016ccd823,Mexican,13 or older,click here to respond,no,2025-07-22_21h38.42.864,empathy_intonation_perc,2024.2.4,Win32,11.99040767,5cd3d5760b858f0016ccd823,687ed1b7e638a4cbf2f02089,68803cfc350a438651958f70,,,,,,,,,,,,,,1,,,,,,,,,,,,,,,,,,,,,,,,,,,,,,,,,,,,,,,,,,,,,,,,,,,,,,,,,39,torpe,,,,,717.0418,718.9468,0,0,1.2748,,0,67,67,38,1,REAL,FAKE,,,,,,,,,,,,,,,,,
,,,,,,,,,5cd3d5760b858f0016ccd823,Mexican,13 or older,click here to respond,no,2025-07-22_21h38.42.864,empathy_intonation_perc,2024.2.4,Win32,11.99040767,5cd3d5760b858f0016ccd823,687ed1b7e638a4cbf2f02089,68803cfc350a438651958f70,,,,,,,,,,,,,,0,,,,,,,,,,,,,,,,,,,,,,,,,,,,,,,,,,,,,,,,,,,,,,,,,,,,,,,,,74,cintro,,,,,718.9479,724.7065,1,0,5.1179,,0,68,68,73,1,REAL,FAKE,,,,,,,,,,,,,,,,,
,,,,,,,,,5cd3d5760b858f0016ccd823,Mexican,13 or older,click here to respond,no,2025-07-22_21h38.42.864,empathy_intonation_perc,2024.2.4,Win32,11.99040767,5cd3d5760b858f0016ccd823,687ed1b7e638a4cbf2f02089,68803cfc350a438651958f70,,,,,,,,,,,,,,0,,,,,,,,,,,,,,,,,,,,,,,,,,,,,,,,,,,,,,,,,,,,,,,,,,,,,,,,,1,terzo,,,,,724.7075,726.1296,0,1,0.7767,,0,69,69,0,1,REAL,FAKE,,,,,,,,,,,,,,,,,
,,,,,,,,,5cd3d5760b858f0016ccd823,Mexican,13 or older,click here to respond,no,2025-07-22_21h38.42.864,empathy_intonation_perc,2024.2.4,Win32,11.99040767,5cd3d5760b858f0016ccd823,687ed1b7e638a4cbf2f02089,68803cfc350a438651958f70,,,,,,,,,,,,,,1,,,,,,,,,,,,,,,,,,,,,,,,,,,,,,,,,,,,,,,,,,,,,,,,,,,,,,,,,61,seda,,,,,726.1305,727.4466,0,0,0.6817,,0,70,70,60,1,REAL,FAKE,,,,,,,,,,,,,,,,,
,,,,,,,,,5cd3d5760b858f0016ccd823,Mexican,13 or older,click here to respond,no,2025-07-22_21h38.42.864,empathy_intonation_perc,2024.2.4,Win32,11.99040767,5cd3d5760b858f0016ccd823,687ed1b7e638a4cbf2f02089,68803cfc350a438651958f70,,,,,,,,,,,,,,1,,,,,,,,,,,,,,,,,,,,,,,,,,,,,,,,,,,,,,,,,,,,,,,,,,,,,,,,,40,alfombra,,,,,727.4476,730.0369,0,0,1.9545,,0,71,71,39,1,REAL,FAKE,,,,,,,,,,,,,,,,,
,,,,,,,,,5cd3d5760b858f0016ccd823,Mexican,13 or older,click here to respond,no,2025-07-22_21h38.42.864,empathy_intonation_perc,2024.2.4,Win32,11.99040767,5cd3d5760b858f0016ccd823,687ed1b7e638a4cbf2f02089,68803cfc350a438651958f70,,,,,,,,,,,,,,0,,,,,,,,,,,,,,,,,,,,,,,,,,,,,,,,,,,,,,,,,,,,,,,,,,,,,,,,,53,vegada,,,,,730.0381,731.8929,0,1,1.2097,,0,72,72,52,1,REAL,FAKE,,,,,,,,,,,,,,,,,
,,,,,,,,,5cd3d5760b858f0016ccd823,Mexican,13 or older,click here to respond,no,2025-07-22_21h38.42.864,empathy_intonation_perc,2024.2.4,Win32,11.99040767,5cd3d5760b858f0016ccd823,687ed1b7e638a4cbf2f02089,68803cfc350a438651958f70,,,,,,,,,,,,,,1,,,,,,,,,,,,,,,,,,,,,,,,,,,,,,,,,,,,,,,,,,,,,,,,,,,,,,,,,3,pulmones,,,,,731.8939,733.6616,0,0,1.1039,,0,73,73,2,1,REAL,FAKE,,,,,,,,,,,,,,,,,
,,,,,,,,,5cd3d5760b858f0016ccd823,Mexican,13 or older,click here to respond,no,2025-07-22_21h38.42.864,empathy_intonation_perc,2024.2.4,Win32,11.99040767,5cd3d5760b858f0016ccd823,687ed1b7e638a4cbf2f02089,68803cfc350a438651958f70,,,,,,,,,,,,,,1,,,,,,,,,,,,,,,,,,,,,,,,,,,,,,,,,,,,,,,,,,,,,,,,,,,,,,,,,15,regar,,,,,733.6628,735.6004,0,0,1.3121,0.0001,0,74,74,14,1,REAL,FAKE,,,,,,,,,,,,,,,,,
,,,,,,,,,5cd3d5760b858f0016ccd823,Mexican,13 or older,click here to respond,no,2025-07-22_21h38.42.864,empathy_intonation_perc,2024.2.4,Win32,11.99040767,5cd3d5760b858f0016ccd823,687ed1b7e638a4cbf2f02089,68803cfc350a438651958f70,,,,,,,,,,,,,,1,,,,,,,,,,,,,,,,,,,,,,,,,,,,,,,,,,,,,,,,,,,,,,,,,,,,,,,,,89,prisa,,,,,735.6014,737.0962,0,0,0.8645,,0,75,75,88,1,REAL,FAKE,,,,,,,,,,,,,,,,,
,,,,,,,,,5cd3d5760b858f0016ccd823,Mexican,13 or older,click here to respond,no,2025-07-22_21h38.42.864,empathy_intonation_perc,2024.2.4,Win32,11.99040767,5cd3d5760b858f0016ccd823,687ed1b7e638a4cbf2f02089,68803cfc350a438651958f70,,,,,,,,,,,,,,1,,,,,,,,,,,,,,,,,,,,,,,,,,,,,,,,,,,,,,,,,,,,,,,,,,,,,,,,,26,secuestro,,,,,737.0971,738.9481,1,1,1.2239,,0,76,76,25,1,REAL,FAKE,,,,,,,,,,,,,,,,,
,,,,,,,,,5cd3d5760b858f0016ccd823,Mexican,13 or older,click here to respond,no,2025-07-22_21h38.42.864,empathy_intonation_perc,2024.2.4,Win32,11.99040767,5cd3d5760b858f0016ccd823,687ed1b7e638a4cbf2f02089,68803cfc350a438651958f70,,,,,,,,,,,,,,0,,,,,,,,,,,,,,,,,,,,,,,,,,,,,,,,,,,,,,,,,,,,,,,,,,,,,,,,,18,arsa,,,,,738.9491,741.0429,0,1,1.4582,,0,77,77,17,1,REAL,FAKE,,,,,,,,,,,,,,,,,
,,,,,,,,,5cd3d5760b858f0016ccd823,Mexican,13 or older,click here to respond,no,2025-07-22_21h38.42.864,empathy_intonation_perc,2024.2.4,Win32,11.99040767,5cd3d5760b858f0016ccd823,687ed1b7e638a4cbf2f02089,68803cfc350a438651958f70,,,,,,,,,,,,,,1,,,,,,,,,,,,,,,,,,,,,,,,,,,,,,,,,,,,,,,,,,,,,,,,,,,,,,,,,14,yunque,,,,,741.0439,742.8791,0,0,1.2057,,0,78,78,13,1,REAL,FAKE,,,,,,,,,,,,,,,,,
,,,,,,,,,5cd3d5760b858f0016ccd823,Mexican,13 or older,click here to respond,no,2025-07-22_21h38.42.864,empathy_intonation_perc,2024.2.4,Win32,11.99040767,5cd3d5760b858f0016ccd823,687ed1b7e638a4cbf2f02089,68803cfc350a438651958f70,,,,,,,,,,,,,,1,,,,,,,,,,,,,,,,,,,,,,,,,,,,,,,,,,,,,,,,,,,,,,,,,,,,,,,,,6,tergiversar,,,,,742.8802,748.3124,0,0,4.818,,0,79,79,5,1,REAL,FAKE,,,,,,,,,,,,,,,,,
,,,,,,,,,5cd3d5760b858f0016ccd823,Mexican,13 or older,click here to respond,no,2025-07-22_21h38.42.864,empathy_intonation_perc,2024.2.4,Win32,11.99040767,5cd3d5760b858f0016ccd823,687ed1b7e638a4cbf2f02089,68803cfc350a438651958f70,,,,,,,,,,,,,,1,,,,,,,,,,,,,,,,,,,,,,,,,,,,,,,,,,,,,,,,,,,,,,,,,,,,,,,,,73,hervidor,,,,,748.3136,751.64,0,0,2.6922,,0,80,80,72,1,REAL,FAKE,,,,,,,,,,,,,,,,,
,,,,,,,,,5cd3d5760b858f0016ccd823,Mexican,13 or older,click here to respond,no,2025-07-22_21h38.42.864,empathy_intonation_perc,2024.2.4,Win32,11.99040767,5cd3d5760b858f0016ccd823,687ed1b7e638a4cbf2f02089,68803cfc350a438651958f70,,,,,,,,,,,,,,1,,,,,,,,,,,,,,,,,,,,,,,,,,,,,,,,,,,,,,,,,,,,,,,,,,,,,,,,,20,ávido,,,,,751.6411,753.3856,0,0,1.1087,,0,81,81,19,1,REAL,FAKE,,,,,,,,,,,,,,,,,
,,,,,,,,,5cd3d5760b858f0016ccd823,Mexican,13 or older,click here to respond,no,2025-07-22_21h38.42.864,empathy_intonation_perc,2024.2.4,Win32,11.99040767,5cd3d5760b858f0016ccd823,687ed1b7e638a4cbf2f02089,68803cfc350a438651958f70,,,,,,,,,,,,,,1,,,,,,,,,,,,,,,,,,,,,,,,,,,,,,,,,,,,,,,,,,,,,,,,,,,,,,,,,25,bisagra,,,,,753.3866,755.9898,0,0,1.9559,,0,82,82,24,1,REAL,FAKE,,,,,,,,,,,,,,,,,
,,,,,,,,,5cd3d5760b858f0016ccd823,Mexican,13 or older,click here to respond,no,2025-07-22_21h38.42.864,empathy_intonation_perc,2024.2.4,Win32,11.99040767,5cd3d5760b858f0016ccd823,687ed1b7e638a4cbf2f02089,68803cfc350a438651958f70,,,,,,,,,,,,,,0,,,,,,,,,,,,,,,,,,,,,,,,,,,,,,,,,,,,,,,,,,,,,,,,,,,,,,,,,16,abracer,,,,,755.9907,758.0563,0,1,1.4406,1E-04,0,83,83,15,1,REAL,FAKE,,,,,,,,,,,,,,,,,
,,,,,,,,,5cd3d5760b858f0016ccd823,Mexican,13 or older,click here to respond,no,2025-07-22_21h38.42.864,empathy_intonation_perc,2024.2.4,Win32,11.99040767,5cd3d5760b858f0016ccd823,687ed1b7e638a4cbf2f02089,68803cfc350a438651958f70,,,,,,,,,,,,,,1,,,,,,,,,,,,,,,,,,,,,,,,,,,,,,,,,,,,,,,,,,,,,,,,,,,,,,,,,43,canela,,,,,758.0574,761.4393,0,0,2.7227,,0,84,84,42,1,REAL,FAKE,,,,,,,,,,,,,,,,,
,,,,,,,,,5cd3d5760b858f0016ccd823,Mexican,13 or older,click here to respond,no,2025-07-22_21h38.42.864,empathy_intonation_perc,2024.2.4,Win32,11.99040767,5cd3d5760b858f0016ccd823,687ed1b7e638a4cbf2f02089,68803cfc350a438651958f70,,,,,,,,,,,,,,0,,,,,,,,,,,,,,,,,,,,,,,,,,,,,,,,,,,,,,,,,,,,,,,,,,,,,,,,,87,grodo,,,,,761.4403,762.9839,0,1,0.9062,,0,85,85,86,1,REAL,FAKE,,,,,,,,,,,,,,,,,
,,,,,,,,,5cd3d5760b858f0016ccd823,Mexican,13 or older,click here to respond,no,2025-07-22_21h38.42.864,empathy_intonation_perc,2024.2.4,Win32,11.99040767,5cd3d5760b858f0016ccd823,687ed1b7e638a4cbf2f02089,68803cfc350a438651958f70,,,,,,,,,,,,,,0,,,,,,,,,,,,,,,,,,,,,,,,,,,,,,,,,,,,,,,,,,,,,,,,,,,,,,,,,29,decar,,,,,762.9849,764.5128,1,0,0.8853,,0,86,86,28,1,REAL,FAKE,,,,,,,,,,,,,,,,,
,,,,,,,,,5cd3d5760b858f0016ccd823,Mexican,13 or older,click here to respond,no,2025-07-22_21h38.42.864,empathy_intonation_perc,2024.2.4,Win32,11.99040767,5cd3d5760b858f0016ccd823,687ed1b7e638a4cbf2f02089,68803cfc350a438651958f70,,,,,,,,,,,,,,1,,,,,,,,,,,,,,,,,,,,,,,,,,,,,,,,,,,,,,,,,,,,,,,,,,,,,,,,,48,ladrón,,,,,764.5138,766.0453,0,0,0.9071,,0,87,87,47,1,REAL,FAKE,,,,,,,,,,,,,,,,,
,,,,,,,,,5cd3d5760b858f0016ccd823,Mexican,13 or older,click here to respond,no,2025-07-22_21h38.42.864,empathy_intonation_perc,2024.2.4,Win32,11.99040767,5cd3d5760b858f0016ccd823,687ed1b7e638a4cbf2f02089,68803cfc350a438651958f70,,,,,,,,,,,,,,1,,,,,,,,,,,,,,,,,,,,,,,,,,,,,,,,,,,,,,,,,,,,,,,,,,,,,,,,,59,besar,,,,,766.0466,768.0329,0,0,1.3305,,0,88,88,58,1,REAL,FAKE,,,,,,,,,,,,,,,,,
,,,,,,,,,5cd3d5760b858f0016ccd823,Mexican,13 or older,click here to respond,no,2025-07-22_21h38.42.864,empathy_intonation_perc,2024.2.4,Win32,11.99040767,5cd3d5760b858f0016ccd823,687ed1b7e638a4cbf2f02089,68803cfc350a438651958f70,,,,,,,,,,,,,,0,,,,,,,,,,,,,,,,,,,,,,,,,,,,,,,,,,,,,,,,,,,,,,,,,,,,,,,,,23,lampera,,,,,768.0338,770.4583,0,1,1.7848,,0,89,89,22,1,REAL,FAKE,,,,,,,,,,,,,,,,,
,,,,,,,,,5cd3d5760b858f0016ccd823,Mexican,13 or older,click here to respond,no,2025-07-22_21h38.42.864,empathy_intonation_perc,2024.2.4,Win32,11.99040767,5cd3d5760b858f0016ccd823,687ed1b7e638a4cbf2f02089,68803cfc350a438651958f70,,,,,,,,,,,,,,1,,,,,,,,,,,,,,,,,,,,,,,,,,,,,,,,,,,,,,,,,,,,,,,,,,,,,,,,,56,musgo,,,,,770.4593,772.6321,0,0,1.5298,,0,90,90,55,1,REAL,FAKE,,,,,,,,,,,,,,,,,
,,,,,,,,,5cd3d5760b858f0016ccd823,Mexican,13 or older,click here to respond,no,2025-07-22_21h38.42.864,empathy_intonation_perc,2024.2.4,Win32,11.99040767,5cd3d5760b858f0016ccd823,687ed1b7e638a4cbf2f02089,68803cfc350a438651958f70,,,,,,,,,,,,,,1,,,,,,,,,,,,,,,,,,,,,,,,,,,,,,,,,,,,,,,,,,,,,,,,,,,,,,,,,22,lacayo,,,,,772.6344,774.3008,0,0,1.0081,,0,91,91,21,1,REAL,FAKE,,,,,,,,,,,,,,,,,
,,,,,,,,,5cd3d5760b858f0016ccd823,Mexican,13 or older,click here to respond,no,2025-07-22_21h38.42.864,empathy_intonation_perc,2024.2.4,Win32,11.99040767,5cd3d5760b858f0016ccd823,687ed1b7e638a4cbf2f02089,68803cfc350a438651958f70,,,,,,,,,,,,,,,,,,,,,,,,,,,,,,,,,,,,,,,,,,,,,,,,,,,,,,,,,,,,,,,,,,,,,,,,,,,,,,,,,,,,,,,,,,774.3011,784.0992,,,,,,,,,,,,,,,
,,,,,,,,,5cd3d5760b858f0016ccd823,Mexican,13 or older,click here to respond,no,2025-07-22_21h38.42.864,empathy_intonation_perc,2024.2.4,Win32,11.99040767,5cd3d5760b858f0016ccd823,687ed1b7e638a4cbf2f02089,68803cfc350a438651958f70,,,,,,,,,,,,,1,,,,,,,,,,,,,,,,,,,,,,,,,,,,,,,,,,,,,,,,,,,,,,,,,,,,,,,,,,,,,,,,,,,,,,,,,,,,,,,784.1061,790.1741,strongly agree,0,0,0,0,1,I can easily tell if someone else wants to enter a conversation.,1,0,1,0,,
,,,,,,,,,5cd3d5760b858f0016ccd823,Mexican,13 or older,click here to respond,no,2025-07-22_21h38.42.864,empathy_intonation_perc,2024.2.4,Win32,11.99040767,5cd3d5760b858f0016ccd823,687ed1b7e638a4cbf2f02089,68803cfc350a438651958f70,,,,,,,,,,,,,2,,,,,,,,,,,,,,,,,,,,,,,,,,,,,,,,,,,,,,,,,,,,,,,,,,,,,,,,,,,,,,,,,,,,,,,,,,,,,,,790.1755,792.0727,strongly agree,0,1,1,1,1,I prefer animals to humans.,0,1,0,0,,
,,,,,,,,,5cd3d5760b858f0016ccd823,Mexican,13 or older,click here to respond,no,2025-07-22_21h38.42.864,empathy_intonation_perc,2024.2.4,Win32,11.99040767,5cd3d5760b858f0016ccd823,687ed1b7e638a4cbf2f02089,68803cfc350a438651958f70,,,,,,,,,,,,,3,,,,,,,,,,,,,,,,,,,,,,,,,,,,,,,,,,,,,,,,,,,,,,,,,,,,,,,,,,,,,,,,,,,,,,,,,,,,,,,792.0742,795.0376,slightly agree,0,2,2,2,1,I try to keep up with the current trends and fashions.,0,1,0,0,,
,,,,,,,,,5cd3d5760b858f0016ccd823,Mexican,13 or older,click here to respond,no,2025-07-22_21h38.42.864,empathy_intonation_perc,2024.2.4,Win32,11.99040767,5cd3d5760b858f0016ccd823,687ed1b7e638a4cbf2f02089,68803cfc350a438651958f70,,,,,,,,,,,,,4,,,,,,,,,,,,,,,,,,,,,,,,,,,,,,,,,,,,,,,,,,,,,,,,,,,,,,,,,,,,,,,,,,,,,,,,,,,,,,,795.0391,800.2512,slightly agree,0,3,3,3,1,"I find it difficult to explain to others things that I understand easily,   when they don't understand it first time.",1,0,0,1,,
,,,,,,,,,5cd3d5760b858f0016ccd823,Mexican,13 or older,click here to respond,no,2025-07-22_21h38.42.864,empathy_intonation_perc,2024.2.4,Win32,11.99040767,5cd3d5760b858f0016ccd823,687ed1b7e638a4cbf2f02089,68803cfc350a438651958f70,,,,,,,,,,,,,5,,,,,,,,,,,,,,,,,,,,,,,,,,,,,,,,,,,,,,,,,,,,,,,,,,,,,,,,,,,,,,,,,,,,,,,,,,,,,,,800.2522,802.9348,strongly disagree,0,4,4,4,1,I dream most nights.,0,1,0,0,,
,,,,,,,,,5cd3d5760b858f0016ccd823,Mexican,13 or older,click here to respond,no,2025-07-22_21h38.42.864,empathy_intonation_perc,2024.2.4,Win32,11.99040767,5cd3d5760b858f0016ccd823,687ed1b7e638a4cbf2f02089,68803cfc350a438651958f70,,,,,,,,,,,,,6,,,,,,,,,,,,,,,,,,,,,,,,,,,,,,,,,,,,,,,,,,,,,,,,,,,,,,,,,,,,,,,,,,,,,,,,,,,,,,,802.9361,805.8639,slightly disagree,0,5,5,5,1,I really enjoy caring for other people.,1,0,1,0,,
,,,,,,,,,5cd3d5760b858f0016ccd823,Mexican,13 or older,click here to respond,no,2025-07-22_21h38.42.864,empathy_intonation_perc,2024.2.4,Win32,11.99040767,5cd3d5760b858f0016ccd823,687ed1b7e638a4cbf2f02089,68803cfc350a438651958f70,,,,,,,,,,,,,7,,,,,,,,,,,,,,,,,,,,,,,,,,,,,,,,,,,,,,,,,,,,,,,,,,,,,,,,,,,,,,,,,,,,,,,,,,,,,,,805.8653,809.2481,strongly agree,0,6,6,6,1,I try to solve my own problems rather than discussing them with others.,0,1,0,0,,
,,,,,,,,,5cd3d5760b858f0016ccd823,Mexican,13 or older,click here to respond,no,2025-07-22_21h38.42.864,empathy_intonation_perc,2024.2.4,Win32,11.99040767,5cd3d5760b858f0016ccd823,687ed1b7e638a4cbf2f02089,68803cfc350a438651958f70,,,,,,,,,,,,,8,,,,,,,,,,,,,,,,,,,,,,,,,,,,,,,,,,,,,,,,,,,,,,,,,,,,,,,,,,,,,,,,,,,,,,,,,,,,,,,809.2493,812.5633,slightly disagree,0,7,7,7,1,I find it hard to know what to do in a social situation.,1,0,0,1,,
,,,,,,,,,5cd3d5760b858f0016ccd823,Mexican,13 or older,click here to respond,no,2025-07-22_21h38.42.864,empathy_intonation_perc,2024.2.4,Win32,11.99040767,5cd3d5760b858f0016ccd823,687ed1b7e638a4cbf2f02089,68803cfc350a438651958f70,,,,,,,,,,,,,9,,,,,,,,,,,,,,,,,,,,,,,,,,,,,,,,,,,,,,,,,,,,,,,,,,,,,,,,,,,,,,,,,,,,,,,,,,,,,,,812.5644,815.9574,slightly agree,0,8,8,8,1,I am at my best first thing in the morning.,0,1,0,0,,
,,,,,,,,,5cd3d5760b858f0016ccd823,Mexican,13 or older,click here to respond,no,2025-07-22_21h38.42.864,empathy_intonation_perc,2024.2.4,Win32,11.99040767,5cd3d5760b858f0016ccd823,687ed1b7e638a4cbf2f02089,68803cfc350a438651958f70,,,,,,,,,,,,,10,,,,,,,,,,,,,,,,,,,,,,,,,,,,,,,,,,,,,,,,,,,,,,,,,,,,,,,,,,,,,,,,,,,,,,,,,,,,,,,815.9587,820.406,slightly disagree,0,9,9,9,1,People often tell me that I went too far in driving my point home in a discussion.,1,0,0,1,,
,,,,,,,,,5cd3d5760b858f0016ccd823,Mexican,13 or older,click here to respond,no,2025-07-22_21h38.42.864,empathy_intonation_perc,2024.2.4,Win32,11.99040767,5cd3d5760b858f0016ccd823,687ed1b7e638a4cbf2f02089,68803cfc350a438651958f70,,,,,,,,,,,,,11,,,,,,,,,,,,,,,,,,,,,,,,,,,,,,,,,,,,,,,,,,,,,,,,,,,,,,,,,,,,,,,,,,,,,,,,,,,,,,,820.4072,824.0468,slightly disagree,0,10,10,10,1,It doesn't bother me too much if I am late meeting a friend.,1,0,0,1,,
,,,,,,,,,5cd3d5760b858f0016ccd823,Mexican,13 or older,click here to respond,no,2025-07-22_21h38.42.864,empathy_intonation_perc,2024.2.4,Win32,11.99040767,5cd3d5760b858f0016ccd823,687ed1b7e638a4cbf2f02089,68803cfc350a438651958f70,,,,,,,,,,,,,12,,,,,,,,,,,,,,,,,,,,,,,,,,,,,,,,,,,,,,,,,,,,,,,,,,,,,,,,,,,,,,,,,,,,,,,,,,,,,,,824.048,828.1816,slightly agree,0,11,11,11,1,"Friendships and relationships are just too difficult, so I tend not to 
  bother with them.",1,0,0,1,,
,,,,,,,,,5cd3d5760b858f0016ccd823,Mexican,13 or older,click here to respond,no,2025-07-22_21h38.42.864,empathy_intonation_perc,2024.2.4,Win32,11.99040767,5cd3d5760b858f0016ccd823,687ed1b7e638a4cbf2f02089,68803cfc350a438651958f70,,,,,,,,,,,,,13,,,,,,,,,,,,,,,,,,,,,,,,,,,,,,,,,,,,,,,,,,,,,,,,,,,,,,,,,,,,,,,,,,,,,,,,,,,,,,,828.1826,831.5255,slightly agree,0,12,12,12,1,"I would never break a law, no matter how minor.",0,1,0,0,,
