instructions_exposure.started,instructions_exposure.stopped,instructions_exposure_loop.thisRepN,instructions_exposure_loop.thisTrialN,instructions_exposure_loop.thisN,instructions_exposure_loop.thisIndex,instructions_exposure_loop.ran,instructions_text,continue_text,participant_id,"What variety of Spanish are you most familiar with? (e.g., Peruvian, Spanish, Mexican)",At what age did you begin learning Spanish?,Are you proficient in any languages other than English/Spanish?,"Are you familiar with Caribbean (e.g., Caribbean, Puerto Rican) or Galician Spanish?",date,expName,psychopyVersion,OS,frameRate,id,study_id,session,trial_exposure.started,trial_exposure.stopped,key_resp_exposure.keys,key_resp_exposure.corr,key_resp_exposure.rt,key_resp_exposure.duration,key_resp.keys,exposure_loop.thisRepN,exposure_loop.thisTrialN,exposure_loop.thisN,exposure_loop.thisIndex,exposure_loop.ran,item_num,correct_response,question,path,duration,instructions_2afc.started,instructions_2afc.stopped,instructions_2afc_loop.thisRepN,instructions_2afc_loop.thisTrialN,instructions_2afc_loop.thisN,instructions_2afc_loop.thisIndex,instructions_2afc_loop.ran,practice_2afc.started,practice_2afc.stopped,key_resp_2afc_practice.keys,key_resp_2afc_practice.corr,key_resp_2afc_practice.rt,key_resp_2afc_practice.duration,trials_2afc_practice_loop.thisRepN,trials_2afc_practice_loop.thisTrialN,trials_2afc_practice_loop.thisN,trials_2afc_practice_loop.thisIndex,trials_2afc_practice_loop.ran,check_2afc.started,check_2afc.stopped,trial_2afc.started,trial_2afc.stopped,key_resp_2afc_trial.keys,key_resp_2afc_trial.corr,key_resp_2afc_trial.rt,key_resp_2afc_trial.duration,trials_2afc_loop.thisRepN,trials_2afc_loop.thisTrialN,trials_2afc_loop.thisN,trials_2afc_loop.thisIndex,trials_2afc_loop.ran,target,variety,instructions_lextale.started,instructions_lextale.stopped,instructions_lextale_loop.thisRepN,instructions_lextale_loop.thisTrialN,instructions_lextale_loop.thisN,instructions_lextale_loop.thisIndex,instructions_lextale_loop.ran,practice_lextale.started,practice_lextale.stopped,key_resp_lextale_practice.keys,key_resp_lextale_practice.corr,key_resp_lextale_practice.rt,key_resp_lextale_practice.duration,practice_feedback_lextale.started,practice_feedback_lextale.stopped,trials_lextale_practice_loop.thisRepN,trials_lextale_practice_loop.thisTrialN,trials_lextale_practice_loop.thisN,trials_lextale_practice_loop.thisIndex,trials_lextale_practice_loop.ran,stim,word,prac_button_real,prac_button_false,check_lextale.started,check_lextale.stopped,trial_lextale.started,trial_lextale.stopped,key_resp_lextale_trial.keys,key_resp_lextale_trial.corr,key_resp_lextale_trial.rt,key_resp_lextale_trial.duration,trials_lextale_loop.thisRepN,trials_lextale_loop.thisTrialN,trials_lextale_loop.thisN,trials_lextale_loop.thisIndex,trials_lextale_loop.ran,button_real,button_false,instructions_eq.started,instructions_eq.stopped,trial_eq.started,trial_eq.stopped,slider_eq_trial.response,trials_eq_loop.thisRepN,trials_eq_loop.thisTrialN,trials_eq_loop.thisN,trials_eq_loop.thisIndex,trials_eq_loop.ran,item,is_test_item,is_distractor,is_agree_score,is_disagree_score,end_exp.started,end_exp.stopped
0.0172,3.6572,0,0,0,0,1,"In the following task, you are going to hear a series of conversations.", (press the space bar to continue),5d79375d794d900017671c07,Spanish,13 or older,"yes, I am fluent in another language",no,2025-08-12_14h46.03.437,empathy_intonation_perc,2024.2.4,Win32,59.17159763,5d79375d794d900017671c07,687ed1b7e638a4cbf2f02089,689b8ba95a1a0cc058520639,,,,,,,,,,,,,,,,,,,,,,,,,,,,,,,,,,,,,,,,,,,,,,,,,,,,,,,,,,,,,,,,,,,,,,,,,,,,,,,,,,,,,,,,,,,,,,,,,,,,,,,,,,
3.6589,5.04,0,1,1,1,1,It is okay if you don't not 100% understand them!, (press the space bar to continue),5d79375d794d900017671c07,Spanish,13 or older,"yes, I am fluent in another language",no,2025-08-12_14h46.03.437,empathy_intonation_perc,2024.2.4,Win32,59.17159763,5d79375d794d900017671c07,687ed1b7e638a4cbf2f02089,689b8ba95a1a0cc058520639,,,,,,,,,,,,,,,,,,,,,,,,,,,,,,,,,,,,,,,,,,,,,,,,,,,,,,,,,,,,,,,,,,,,,,,,,,,,,,,,,,,,,,,,,,,,,,,,,,,,,,,,,,
5.0432,7.373,0,2,2,2,1,"After, you will read a sentence about the conversation and decide if it's true or false.", (press the space bar to continue),5d79375d794d900017671c07,Spanish,13 or older,"yes, I am fluent in another language",no,2025-08-12_14h46.03.437,empathy_intonation_perc,2024.2.4,Win32,59.17159763,5d79375d794d900017671c07,687ed1b7e638a4cbf2f02089,689b8ba95a1a0cc058520639,,,,,,,,,,,,,,,,,,,,,,,,,,,,,,,,,,,,,,,,,,,,,,,,,,,,,,,,,,,,,,,,,,,,,,,,,,,,,,,,,,,,,,,,,,,,,,,,,,,,,,,,,,
7.376,8.9228,0,3,3,3,1,"If it's true, press '1' (True) and if it's false press '0' (False).", (press the space bar to continue),5d79375d794d900017671c07,Spanish,13 or older,"yes, I am fluent in another language",no,2025-08-12_14h46.03.437,empathy_intonation_perc,2024.2.4,Win32,59.17159763,5d79375d794d900017671c07,687ed1b7e638a4cbf2f02089,689b8ba95a1a0cc058520639,,,,,,,,,,,,,,,,,,,,,,,,,,,,,,,,,,,,,,,,,,,,,,,,,,,,,,,,,,,,,,,,,,,,,,,,,,,,,,,,,,,,,,,,,,,,,,,,,,,,,,,,,,
,,,,,,,,,5d79375d794d900017671c07,Spanish,13 or older,"yes, I am fluent in another language",no,2025-08-12_14h46.03.437,empathy_intonation_perc,2024.2.4,Win32,59.17159763,5d79375d794d900017671c07,687ed1b7e638a4cbf2f02089,689b8ba95a1a0cc058520639,8.931,74.6735,1,1,5.6813,,,0,0,0,1,1,2,1,The mom asked the daughter if she already went to the supermarket.,./stim/exposure_wavs/dr_stimuli_convo.wav,60,,,,,,,,,,,,,,,,,,,,,,,,,,,,,,,,,,,,,,,,,,,,,,,,,,,,,,,,,,,,,,,,,,,,,,,,,,,,,,,,,,,,,,,,,
,,,,,,,,,5d79375d794d900017671c07,Spanish,13 or older,"yes, I am fluent in another language",no,2025-08-12_14h46.03.437,empathy_intonation_perc,2024.2.4,Win32,59.17159763,5d79375d794d900017671c07,687ed1b7e638a4cbf2f02089,689b8ba95a1a0cc058520639,74.6757,127.9066,0,1,17.1983,,,0,1,1,2,1,3,0,The mom already has rice.,./stim/exposure_wavs/pr_stimuli_convo.wav,36,,,,,,,,,,,,,,,,,,,,,,,,,,,,,,,,,,,,,,,,,,,,,,,,,,,,,,,,,,,,,,,,,,,,,,,,,,,,,,,,,,,,,,,,,
,,,,,,,,,5d79375d794d900017671c07,Spanish,13 or older,"yes, I am fluent in another language",no,2025-08-12_14h46.03.437,empathy_intonation_perc,2024.2.4,Win32,59.17159763,5d79375d794d900017671c07,687ed1b7e638a4cbf2f02089,689b8ba95a1a0cc058520639,127.9088,181.9569,1,1,7.0102,,,0,2,2,0,1,1,1,The son asked the mom if Aunt Marina is okay.,./stim/exposure_wavs/ga_stimuli_convo.wav,47,,,,,,,,,,,,,,,,,,,,,,,,,,,,,,,,,,,,,,,,,,,,,,,,,,,,,,,,,,,,,,,,,,,,,,,,,,,,,,,,,,,,,,,,,
,,,,,,,"In the following task you are going to hear a series of utterances. 

  You will decide if the utterances sound like questions or not using your keyboard.", (press the spacebar to continue),5d79375d794d900017671c07,Spanish,13 or older,"yes, I am fluent in another language",no,2025-08-12_14h46.03.437,empathy_intonation_perc,2024.2.4,Win32,59.17159763,5d79375d794d900017671c07,687ed1b7e638a4cbf2f02089,689b8ba95a1a0cc058520639,,,,,,,,,,,,,,,,,,181.9626,187.0408,0,0,0,0,1,,,,,,,,,,,,,,,,,,,,,,,,,,,,,,,,,,,,,,,,,,,,,,,,,,,,,,,,,,,,,,,,,,,,,,,,,,,,,,,,,,
,,,,,,,"If you believe the utterance is a question, type '1' (for 'yes') and if you do not 
  believe it is a question type '0' (for 'no').

  Let's practice a bit...", (press the spacebar to continue),5d79375d794d900017671c07,Spanish,13 or older,"yes, I am fluent in another language",no,2025-08-12_14h46.03.437,empathy_intonation_perc,2024.2.4,Win32,59.17159763,5d79375d794d900017671c07,687ed1b7e638a4cbf2f02089,689b8ba95a1a0cc058520639,,,,,,,,,,,,,,,,,,187.0427,192.3906,0,1,1,1,1,,,,,,,,,,,,,,,,,,,,,,,,,,,,,,,,,,,,,,,,,,,,,,,,,,,,,,,,,,,,,,,,,,,,,,,,,,,,,,,,,,
,,,,,,,,,5d79375d794d900017671c07,Spanish,13 or older,"yes, I am fluent in another language",no,2025-08-12_14h46.03.437,empathy_intonation_perc,2024.2.4,Win32,59.17159763,5d79375d794d900017671c07,687ed1b7e638a4cbf2f02089,689b8ba95a1a0cc058520639,,,,,,,,,,,,,,0,,./stim/wavs/cuban_statement_filler_Cocinabas-por-la-noche.wav,,,,,,,,,192.3966,198.3572,0,1,5.4443,,0,0,0,4,1,,,,,,,,,,,,,,,,,,,,,,,,,,,,,,,,,,,,,,,,,,,,,,,,,,,,,,,,,,,,,,,,,,,,,,,
,,,,,,,,,5d79375d794d900017671c07,Spanish,13 or older,"yes, I am fluent in another language",no,2025-08-12_14h46.03.437,empathy_intonation_perc,2024.2.4,Win32,59.17159763,5d79375d794d900017671c07,687ed1b7e638a4cbf2f02089,689b8ba95a1a0cc058520639,,,,,,,,,,,,,,1,,./stim/wavs/mexican_question_filler_Felipe-no-tiene-contrasena.wav,,,,,,,,,198.3578,202.7908,1,1,3.9078,,0,1,1,3,1,,,,,,,,,,,,,,,,,,,,,,,,,,,,,,,,,,,,,,,,,,,,,,,,,,,,,,,,,,,,,,,,,,,,,,,
,,,,,,,,,5d79375d794d900017671c07,Spanish,13 or older,"yes, I am fluent in another language",no,2025-08-12_14h46.03.437,empathy_intonation_perc,2024.2.4,Win32,59.17159763,5d79375d794d900017671c07,687ed1b7e638a4cbf2f02089,689b8ba95a1a0cc058520639,,,,,,,,,,,,,,0,,./stim/wavs/puertorican_statement_filler_La-nina-pinta-con-su-amiga.wav,,,,,,,,,202.7914,206.1907,0,1,2.8667,,0,2,2,7,1,,,,,,,,,,,,,,,,,,,,,,,,,,,,,,,,,,,,,,,,,,,,,,,,,,,,,,,,,,,,,,,,,,,,,,,
,,,,,,,,,5d79375d794d900017671c07,Spanish,13 or older,"yes, I am fluent in another language",no,2025-08-12_14h46.03.437,empathy_intonation_perc,2024.2.4,Win32,59.17159763,5d79375d794d900017671c07,687ed1b7e638a4cbf2f02089,689b8ba95a1a0cc058520639,,,,,,,,,,,,,,0,,./stim/wavs/peruvian_statement_filler_El-nino-habla-con-su-madre.wav,,,,,,,,,206.1914,210.2403,0,1,3.5245,,0,3,3,6,1,,,,,,,,,,,,,,,,,,,,,,,,,,,,,,,,,,,,,,,,,,,,,,,,,,,,,,,,,,,,,,,,,,,,,,,
,,,,,,,,,5d79375d794d900017671c07,Spanish,13 or older,"yes, I am fluent in another language",no,2025-08-12_14h46.03.437,empathy_intonation_perc,2024.2.4,Win32,59.17159763,5d79375d794d900017671c07,687ed1b7e638a4cbf2f02089,689b8ba95a1a0cc058520639,,,,,,,,,,,,,,1,,./stim/wavs/chilean_question_filler_Mi-padre-cantaba-bien.wav,,,,,,,,,210.2409,213.5574,0,0,2.7822,,0,4,4,2,1,,,,,,,,,,,,,,,,,,,,,,,,,,,,,,,,,,,,,,,,,,,,,,,,,,,,,,,,,,,,,,,,,,,,,,,
,,,,,,,,,5d79375d794d900017671c07,Spanish,13 or older,"yes, I am fluent in another language",no,2025-08-12_14h46.03.437,empathy_intonation_perc,2024.2.4,Win32,59.17159763,5d79375d794d900017671c07,687ed1b7e638a4cbf2f02089,689b8ba95a1a0cc058520639,,,,,,,,,,,,,,0,,./stim/wavs/andalusian_statement_filler_Alberto-nunca-se-afeita.wav,,,,,,,,,213.5581,219.9737,1,0,5.8833,,0,5,5,5,1,,,,,,,,,,,,,,,,,,,,,,,,,,,,,,,,,,,,,,,,,,,,,,,,,,,,,,,,,,,,,,,,,,,,,,,
,,,,,,,,,5d79375d794d900017671c07,Spanish,13 or older,"yes, I am fluent in another language",no,2025-08-12_14h46.03.437,empathy_intonation_perc,2024.2.4,Win32,59.17159763,5d79375d794d900017671c07,687ed1b7e638a4cbf2f02089,689b8ba95a1a0cc058520639,,,,,,,,,,,,,,1,,./stim/wavs/argentine_question_filler_Mi-vecino-habla-mucho.wav,,,,,,,,,219.9744,228.0571,1,1,7.5502,,0,6,6,1,1,,,,,,,,,,,,,,,,,,,,,,,,,,,,,,,,,,,,,,,,,,,,,,,,,,,,,,,,,,,,,,,,,,,,,,,
,,,,,,,,,5d79375d794d900017671c07,Spanish,13 or older,"yes, I am fluent in another language",no,2025-08-12_14h46.03.437,empathy_intonation_perc,2024.2.4,Win32,59.17159763,5d79375d794d900017671c07,687ed1b7e638a4cbf2f02089,689b8ba95a1a0cc058520639,,,,,,,,,,,,,,1,,./stim/wavs/castilian_question_filler_Mi-esposo-conoce-al-chico.wav,,,,,,,,,228.0578,231.3905,0,0,2.8115,,0,7,7,0,1,,,,,,,,,,,,,,,,,,,,,,,,,,,,,,,,,,,,,,,,,,,,,,,,,,,,,,,,,,,,,,,,,,,,,,,
,,,,,,,,,5d79375d794d900017671c07,Spanish,13 or older,"yes, I am fluent in another language",no,2025-08-12_14h46.03.437,empathy_intonation_perc,2024.2.4,Win32,59.17159763,5d79375d794d900017671c07,687ed1b7e638a4cbf2f02089,689b8ba95a1a0cc058520639,,,,,,,,,,,,,,,,,,,,,,,,,,,,,,,,,,,,231.391,234.7906,,,,,,,,,,,,,,,,,,,,,,,,,,,,,,,,,,,,,,,,,,,,,,,,,,,,,,,,,,,,,,,,,,,,,
,,,,,,,,,5d79375d794d900017671c07,Spanish,13 or older,"yes, I am fluent in another language",no,2025-08-12_14h46.03.437,empathy_intonation_perc,2024.2.4,Win32,59.17159763,5d79375d794d900017671c07,687ed1b7e638a4cbf2f02089,689b8ba95a1a0cc058520639,,,,,,,,,,,,,17,1,,./stim/wavs/mexican_match_interrogative-total-yn_Mariano-habla-del-tiempo.wav,,,,,,,,,,,,,,,,,,,,,,234.7997,239.207,0,0,3.8924,,0,0,0,16,1,0,mexican,,,,,,,,,,,,,,,,,,,,,,,,,,,,,,,,,,,,,,,,,,,,,,,,,,,,,,,,
,,,,,,,,,5d79375d794d900017671c07,Spanish,13 or older,"yes, I am fluent in another language",no,2025-08-12_14h46.03.437,empathy_intonation_perc,2024.2.4,Win32,59.17159763,5d79375d794d900017671c07,687ed1b7e638a4cbf2f02089,689b8ba95a1a0cc058520639,,,,,,,,,,,,,77,0,,./stim/wavs/cuban_mismatch_declarative-broad-focus_Mi-novio-viene-del-lago.wav,,,,,,,,,,,,,,,,,,,,,,239.2079,242.5739,0,1,2.838,,0,1,1,76,1,0,cuban,,,,,,,,,,,,,,,,,,,,,,,,,,,,,,,,,,,,,,,,,,,,,,,,,,,,,,,,
,,,,,,,,,5d79375d794d900017671c07,Spanish,13 or older,"yes, I am fluent in another language",no,2025-08-12_14h46.03.437,empathy_intonation_perc,2024.2.4,Win32,59.17159763,5d79375d794d900017671c07,687ed1b7e638a4cbf2f02089,689b8ba95a1a0cc058520639,,,,,,,,,,,,,81,0,,./stim/wavs/mexican_mismatch_declarative-broad-focus_La-maestra-vive-en-Paris.wav,,,,,,,,,,,,,,,,,,,,,,242.5744,246.6405,1,0,3.545,,0,2,2,80,1,0,mexican,,,,,,,,,,,,,,,,,,,,,,,,,,,,,,,,,,,,,,,,,,,,,,,,,,,,,,,,
,,,,,,,,,5d79375d794d900017671c07,Spanish,13 or older,"yes, I am fluent in another language",no,2025-08-12_14h46.03.437,empathy_intonation_perc,2024.2.4,Win32,59.17159763,5d79375d794d900017671c07,687ed1b7e638a4cbf2f02089,689b8ba95a1a0cc058520639,,,,,,,,,,,,,87,0,,./stim/wavs/puertorican_mismatch_declarative-broad-focus_La-maestra-vive-en-Paris.wav,,,,,,,,,,,,,,,,,,,,,,246.641,250.3074,0,1,3.1342,,0,3,3,86,1,0,puertorican,,,,,,,,,,,,,,,,,,,,,,,,,,,,,,,,,,,,,,,,,,,,,,,,,,,,,,,,
,,,,,,,,,5d79375d794d900017671c07,Spanish,13 or older,"yes, I am fluent in another language",no,2025-08-12_14h46.03.437,empathy_intonation_perc,2024.2.4,Win32,59.17159763,5d79375d794d900017671c07,687ed1b7e638a4cbf2f02089,689b8ba95a1a0cc058520639,,,,,,,,,,,,,9,1,,./stim/wavs/cuban_match_interrogative-total-yn_Manuela-vende-el-carro.wav,,,,,,,,,,,,,,,,,,,,,,250.3079,256.2069,0,0,5.3764,,0,4,4,8,1,1,cuban,,,,,,,,,,,,,,,,,,,,,,,,,,,,,,,,,,,,,,,,,,,,,,,,,,,,,,,,
,,,,,,,,,5d79375d794d900017671c07,Spanish,13 or older,"yes, I am fluent in another language",no,2025-08-12_14h46.03.437,empathy_intonation_perc,2024.2.4,Win32,59.17159763,5d79375d794d900017671c07,687ed1b7e638a4cbf2f02089,689b8ba95a1a0cc058520639,,,,,,,,,,,,,35,1,,./stim/wavs/mexican_mismatch_interrogative-total-yn_El-hombre-mira-la-luna.wav,,,,,,,,,,,,,,,,,,,,,,256.2073,259.6738,1,1,2.9328,,0,5,5,34,1,0,mexican,,,,,,,,,,,,,,,,,,,,,,,,,,,,,,,,,,,,,,,,,,,,,,,,,,,,,,,,
,,,,,,,,,5d79375d794d900017671c07,Spanish,13 or older,"yes, I am fluent in another language",no,2025-08-12_14h46.03.437,empathy_intonation_perc,2024.2.4,Win32,59.17159763,5d79375d794d900017671c07,687ed1b7e638a4cbf2f02089,689b8ba95a1a0cc058520639,,,,,,,,,,,,,38,1,,./stim/wavs/mexican_mismatch_interrogative-total-yn_Mi-novio-viene-del-lago.wav,,,,,,,,,,,,,,,,,,,,,,259.6743,262.7905,1,1,2.5838,,0,6,6,37,1,0,mexican,,,,,,,,,,,,,,,,,,,,,,,,,,,,,,,,,,,,,,,,,,,,,,,,,,,,,,,,
,,,,,,,,,5d79375d794d900017671c07,Spanish,13 or older,"yes, I am fluent in another language",no,2025-08-12_14h46.03.437,empathy_intonation_perc,2024.2.4,Win32,59.17159763,5d79375d794d900017671c07,687ed1b7e638a4cbf2f02089,689b8ba95a1a0cc058520639,,,,,,,,,,,,,83,0,,./stim/wavs/mexican_mismatch_declarative-broad-focus_Mi-tia-odia-la-lluvia.wav,,,,,,,,,,,,,,,,,,,,,,262.7911,265.4239,0,1,2.1004,,0,7,7,82,1,0,mexican,,,,,,,,,,,,,,,,,,,,,,,,,,,,,,,,,,,,,,,,,,,,,,,,,,,,,,,,
,,,,,,,,,5d79375d794d900017671c07,Spanish,13 or older,"yes, I am fluent in another language",no,2025-08-12_14h46.03.437,empathy_intonation_perc,2024.2.4,Win32,59.17159763,5d79375d794d900017671c07,687ed1b7e638a4cbf2f02089,689b8ba95a1a0cc058520639,,,,,,,,,,,,,37,1,,./stim/wavs/mexican_mismatch_interrogative-total-yn_La-maestra-vive-en-Paris.wav,,,,,,,,,,,,,,,,,,,,,,265.4244,271.1407,0,0,5.1838,,0,8,8,36,1,0,mexican,,,,,,,,,,,,,,,,,,,,,,,,,,,,,,,,,,,,,,,,,,,,,,,,,,,,,,,,
,,,,,,,,,5d79375d794d900017671c07,Spanish,13 or older,"yes, I am fluent in another language",no,2025-08-12_14h46.03.437,empathy_intonation_perc,2024.2.4,Win32,59.17159763,5d79375d794d900017671c07,687ed1b7e638a4cbf2f02089,689b8ba95a1a0cc058520639,,,,,,,,,,,,,86,0,,./stim/wavs/puertorican_mismatch_declarative-broad-focus_El-nino-oye-el-rio.wav,,,,,,,,,,,,,,,,,,,,,,271.1413,275.6572,0,1,3.9827,,0,9,9,85,1,0,puertorican,,,,,,,,,,,,,,,,,,,,,,,,,,,,,,,,,,,,,,,,,,,,,,,,,,,,,,,,
,,,,,,,,,5d79375d794d900017671c07,Spanish,13 or older,"yes, I am fluent in another language",no,2025-08-12_14h46.03.437,empathy_intonation_perc,2024.2.4,Win32,59.17159763,5d79375d794d900017671c07,687ed1b7e638a4cbf2f02089,689b8ba95a1a0cc058520639,,,,,,,,,,,,,78,0,,./stim/wavs/cuban_mismatch_declarative-broad-focus_Mi-tia-odia-la-lluvia.wav,,,,,,,,,,,,,,,,,,,,,,275.6578,279.4904,0,1,3.3168,,0,10,10,77,1,0,cuban,,,,,,,,,,,,,,,,,,,,,,,,,,,,,,,,,,,,,,,,,,,,,,,,,,,,,,,,
,,,,,,,,,5d79375d794d900017671c07,Spanish,13 or older,"yes, I am fluent in another language",no,2025-08-12_14h46.03.437,empathy_intonation_perc,2024.2.4,Win32,59.17159763,5d79375d794d900017671c07,687ed1b7e638a4cbf2f02089,689b8ba95a1a0cc058520639,,,,,,,,,,,,,66,0,,./stim/wavs/puertorican_match_declarative-broad-focus_Emilio-ama-la-marcha.wav,,,,,,,,,,,,,,,,,,,,,,279.4909,282.874,0,1,2.8519,,0,11,11,65,1,0,puertorican,,,,,,,,,,,,,,,,,,,,,,,,,,,,,,,,,,,,,,,,,,,,,,,,,,,,,,,,
,,,,,,,,,5d79375d794d900017671c07,Spanish,13 or older,"yes, I am fluent in another language",no,2025-08-12_14h46.03.437,empathy_intonation_perc,2024.2.4,Win32,59.17159763,5d79375d794d900017671c07,687ed1b7e638a4cbf2f02089,689b8ba95a1a0cc058520639,,,,,,,,,,,,,72,0,,./stim/wavs/castilian_mismatch_declarative-broad-focus_Mi-novio-viene-del-lago.wav,,,,,,,,,,,,,,,,,,,,,,282.8745,285.8737,0,1,2.477,,0,12,12,71,1,0,castilian,,,,,,,,,,,,,,,,,,,,,,,,,,,,,,,,,,,,,,,,,,,,,,,,,,,,,,,,
,,,,,,,,,5d79375d794d900017671c07,Spanish,13 or older,"yes, I am fluent in another language",no,2025-08-12_14h46.03.437,empathy_intonation_perc,2024.2.4,Win32,59.17159763,5d79375d794d900017671c07,687ed1b7e638a4cbf2f02089,689b8ba95a1a0cc058520639,,,,,,,,,,,,,64,0,,./stim/wavs/puertorican_match_declarative-broad-focus_Daniel-iba-a-Bolivia.wav,,,,,,,,,,,,,,,,,,,,,,285.8741,288.224,0,1,1.8204,,0,13,13,63,1,0,puertorican,,,,,,,,,,,,,,,,,,,,,,,,,,,,,,,,,,,,,,,,,,,,,,,,,,,,,,,,
,,,,,,,,,5d79375d794d900017671c07,Spanish,13 or older,"yes, I am fluent in another language",no,2025-08-12_14h46.03.437,empathy_intonation_perc,2024.2.4,Win32,59.17159763,5d79375d794d900017671c07,687ed1b7e638a4cbf2f02089,689b8ba95a1a0cc058520639,,,,,,,,,,,,,42,1,,./stim/wavs/puertorican_mismatch_interrogative-total-yn_La-maestra-vive-en-Paris.wav,,,,,,,,,,,,,,,,,,,,,,288.2247,290.8242,0,0,2.0716,,0,14,14,41,1,1,puertorican,,,,,,,,,,,,,,,,,,,,,,,,,,,,,,,,,,,,,,,,,,,,,,,,,,,,,,,,
,,,,,,,,,5d79375d794d900017671c07,Spanish,13 or older,"yes, I am fluent in another language",no,2025-08-12_14h46.03.437,empathy_intonation_perc,2024.2.4,Win32,59.17159763,5d79375d794d900017671c07,687ed1b7e638a4cbf2f02089,689b8ba95a1a0cc058520639,,,,,,,,,,,,,60,0,,./stim/wavs/mexican_match_declarative-broad-focus_Emilio-ama-la-marcha.wav,,,,,,,,,,,,,,,,,,,,,,290.825,293.4569,0,1,2.1106,,0,15,15,59,1,0,mexican,,,,,,,,,,,,,,,,,,,,,,,,,,,,,,,,,,,,,,,,,,,,,,,,,,,,,,,,
,,,,,,,,,5d79375d794d900017671c07,Spanish,13 or older,"yes, I am fluent in another language",no,2025-08-12_14h46.03.437,empathy_intonation_perc,2024.2.4,Win32,59.17159763,5d79375d794d900017671c07,687ed1b7e638a4cbf2f02089,689b8ba95a1a0cc058520639,,,,,,,,,,,,,80,0,,./stim/wavs/mexican_mismatch_declarative-broad-focus_El-hombre-mira-la-luna.wav,,,,,,,,,,,,,,,,,,,,,,293.4573,296.3576,1,0,2.3824,,0,16,16,79,1,0,mexican,,,,,,,,,,,,,,,,,,,,,,,,,,,,,,,,,,,,,,,,,,,,,,,,,,,,,,,,
,,,,,,,,,5d79375d794d900017671c07,Spanish,13 or older,"yes, I am fluent in another language",no,2025-08-12_14h46.03.437,empathy_intonation_perc,2024.2.4,Win32,59.17159763,5d79375d794d900017671c07,687ed1b7e638a4cbf2f02089,689b8ba95a1a0cc058520639,,,,,,,,,,,,,85,0,,./stim/wavs/puertorican_mismatch_declarative-broad-focus_El-hombre-mira-la-luna.wav,,,,,,,,,,,,,,,,,,,,,,296.3583,298.3242,1,0,1.438,,0,17,17,84,1,0,puertorican,,,,,,,,,,,,,,,,,,,,,,,,,,,,,,,,,,,,,,,,,,,,,,,,,,,,,,,,
,,,,,,,,,5d79375d794d900017671c07,Spanish,13 or older,"yes, I am fluent in another language",no,2025-08-12_14h46.03.437,empathy_intonation_perc,2024.2.4,Win32,59.17159763,5d79375d794d900017671c07,687ed1b7e638a4cbf2f02089,689b8ba95a1a0cc058520639,,,,,,,,,,,,,75,0,,./stim/wavs/cuban_mismatch_declarative-broad-focus_El-hombre-mira-la-luna.wav,,,,,,,,,,,,,,,,,,,,,,298.3249,304.1238,1,0,5.2751,,0,18,18,74,1,0,cuban,,,,,,,,,,,,,,,,,,,,,,,,,,,,,,,,,,,,,,,,,,,,,,,,,,,,,,,,
,,,,,,,,,5d79375d794d900017671c07,Spanish,13 or older,"yes, I am fluent in another language",no,2025-08-12_14h46.03.437,empathy_intonation_perc,2024.2.4,Win32,59.17159763,5d79375d794d900017671c07,687ed1b7e638a4cbf2f02089,689b8ba95a1a0cc058520639,,,,,,,,,,,,,33,1,,./stim/wavs/cuban_mismatch_interrogative-total-yn_Mi-novio-viene-del-lago.wav,,,,,,,,,,,,,,,,,,,,,,304.1242,307.2077,1,1,2.5665,,0,19,19,32,1,1,cuban,,,,,,,,,,,,,,,,,,,,,,,,,,,,,,,,,,,,,,,,,,,,,,,,,,,,,,,,
,,,,,,,,,5d79375d794d900017671c07,Spanish,13 or older,"yes, I am fluent in another language",no,2025-08-12_14h46.03.437,empathy_intonation_perc,2024.2.4,Win32,59.17159763,5d79375d794d900017671c07,687ed1b7e638a4cbf2f02089,689b8ba95a1a0cc058520639,,,,,,,,,,,,,19,1,,./stim/wavs/puertorican_match_interrogative-total-yn_Ana-lleva-el-abrigo.wav,,,,,,,,,,,,,,,,,,,,,,307.2084,309.4904,0,0,1.7599,,0,20,20,18,1,1,puertorican,,,,,,,,,,,,,,,,,,,,,,,,,,,,,,,,,,,,,,,,,,,,,,,,,,,,,,,,
,,,,,,,,,5d79375d794d900017671c07,Spanish,13 or older,"yes, I am fluent in another language",no,2025-08-12_14h46.03.437,empathy_intonation_perc,2024.2.4,Win32,59.17159763,5d79375d794d900017671c07,687ed1b7e638a4cbf2f02089,689b8ba95a1a0cc058520639,,,,,,,,,,,,,82,0,,./stim/wavs/mexican_mismatch_declarative-broad-focus_Mi-novio-viene-del-lago.wav,,,,,,,,,,,,,,,,,,,,,,309.4908,315.7908,1,0,5.7828,,0,21,21,81,1,0,mexican,,,,,,,,,,,,,,,,,,,,,,,,,,,,,,,,,,,,,,,,,,,,,,,,,,,,,,,,
,,,,,,,,,5d79375d794d900017671c07,Spanish,13 or older,"yes, I am fluent in another language",no,2025-08-12_14h46.03.437,empathy_intonation_perc,2024.2.4,Win32,59.17159763,5d79375d794d900017671c07,687ed1b7e638a4cbf2f02089,689b8ba95a1a0cc058520639,,,,,,,,,,,,,88,0,,./stim/wavs/puertorican_mismatch_declarative-broad-focus_La-nina-lava-el-plato.wav,,,,,,,,,,,,,,,,,,,,,,315.7915,318.1405,0,1,1.8251,,0,22,22,87,1,0,puertorican,,,,,,,,,,,,,,,,,,,,,,,,,,,,,,,,,,,,,,,,,,,,,,,,,,,,,,,,
,,,,,,,,,5d79375d794d900017671c07,Spanish,13 or older,"yes, I am fluent in another language",no,2025-08-12_14h46.03.437,empathy_intonation_perc,2024.2.4,Win32,59.17159763,5d79375d794d900017671c07,687ed1b7e638a4cbf2f02089,689b8ba95a1a0cc058520639,,,,,,,,,,,,,34,1,,./stim/wavs/cuban_mismatch_interrogative-total-yn_Mi-tia-odia-la-lluvia.wav,,,,,,,,,,,,,,,,,,,,,,318.1408,320.5406,0,0,1.8825,,0,23,23,33,1,1,cuban,,,,,,,,,,,,,,,,,,,,,,,,,,,,,,,,,,,,,,,,,,,,,,,,,,,,,,,,
,,,,,,,,,5d79375d794d900017671c07,Spanish,13 or older,"yes, I am fluent in another language",no,2025-08-12_14h46.03.437,empathy_intonation_perc,2024.2.4,Win32,59.17159763,5d79375d794d900017671c07,687ed1b7e638a4cbf2f02089,689b8ba95a1a0cc058520639,,,,,,,,,,,,,14,1,,./stim/wavs/mexican_match_interrogative-total-yn_Daniel-iba-a-Bolivia.wav,,,,,,,,,,,,,,,,,,,,,,320.5411,324.3741,1,1,3.3082,,0,24,24,13,1,0,mexican,,,,,,,,,,,,,,,,,,,,,,,,,,,,,,,,,,,,,,,,,,,,,,,,,,,,,,,,
,,,,,,,,,5d79375d794d900017671c07,Spanish,13 or older,"yes, I am fluent in another language",no,2025-08-12_14h46.03.437,empathy_intonation_perc,2024.2.4,Win32,59.17159763,5d79375d794d900017671c07,687ed1b7e638a4cbf2f02089,689b8ba95a1a0cc058520639,,,,,,,,,,,,,23,1,,./stim/wavs/puertorican_match_interrogative-total-yn_Manuela-vende-el-carro.wav,,,,,,,,,,,,,,,,,,,,,,324.3746,327.1407,0,0,2.2387,,0,25,25,22,1,1,puertorican,,,,,,,,,,,,,,,,,,,,,,,,,,,,,,,,,,,,,,,,,,,,,,,,,,,,,,,,
,,,,,,,,,5d79375d794d900017671c07,Spanish,13 or older,"yes, I am fluent in another language",no,2025-08-12_14h46.03.437,empathy_intonation_perc,2024.2.4,Win32,59.17159763,5d79375d794d900017671c07,687ed1b7e638a4cbf2f02089,689b8ba95a1a0cc058520639,,,,,,,,,,,,,18,1,,./stim/wavs/mexican_match_interrogative-total-yn_Marta-abre-el-regalo.wav,,,,,,,,,,,,,,,,,,,,,,327.1412,330.3407,1,1,2.6721,,0,26,26,17,1,0,mexican,,,,,,,,,,,,,,,,,,,,,,,,,,,,,,,,,,,,,,,,,,,,,,,,,,,,,,,,
,,,,,,,,,5d79375d794d900017671c07,Spanish,13 or older,"yes, I am fluent in another language",no,2025-08-12_14h46.03.437,empathy_intonation_perc,2024.2.4,Win32,59.17159763,5d79375d794d900017671c07,687ed1b7e638a4cbf2f02089,689b8ba95a1a0cc058520639,,,,,,,,,,,,,4,1,,./stim/wavs/castilian_match_interrogative-total-yn_Maria-bebe-el-vino.wav,,,,,,,,,,,,,,,,,,,,,,330.3412,332.9072,1,1,2.0435,,0,27,27,3,1,0,castilian,,,,,,,,,,,,,,,,,,,,,,,,,,,,,,,,,,,,,,,,,,,,,,,,,,,,,,,,
,,,,,,,,,5d79375d794d900017671c07,Spanish,13 or older,"yes, I am fluent in another language",no,2025-08-12_14h46.03.437,empathy_intonation_perc,2024.2.4,Win32,59.17159763,5d79375d794d900017671c07,687ed1b7e638a4cbf2f02089,689b8ba95a1a0cc058520639,,,,,,,,,,,,,3,1,,./stim/wavs/castilian_match_interrogative-total-yn_Manuela-vende-el-carro.wav,,,,,,,,,,,,,,,,,,,,,,332.9077,337.9903,0,0,4.5652,,0,28,28,2,1,0,castilian,,,,,,,,,,,,,,,,,,,,,,,,,,,,,,,,,,,,,,,,,,,,,,,,,,,,,,,,
,,,,,,,,,5d79375d794d900017671c07,Spanish,13 or older,"yes, I am fluent in another language",no,2025-08-12_14h46.03.437,empathy_intonation_perc,2024.2.4,Win32,59.17159763,5d79375d794d900017671c07,687ed1b7e638a4cbf2f02089,689b8ba95a1a0cc058520639,,,,,,,,,,,,,53,0,,./stim/wavs/cuban_match_declarative-broad-focus_Manuela-vende-el-carro.wav,,,,,,,,,,,,,,,,,,,,,,337.9907,340.2573,0,1,1.7376,,0,29,29,52,1,0,cuban,,,,,,,,,,,,,,,,,,,,,,,,,,,,,,,,,,,,,,,,,,,,,,,,,,,,,,,,
,,,,,,,,,5d79375d794d900017671c07,Spanish,13 or older,"yes, I am fluent in another language",no,2025-08-12_14h46.03.437,empathy_intonation_perc,2024.2.4,Win32,59.17159763,5d79375d794d900017671c07,687ed1b7e638a4cbf2f02089,689b8ba95a1a0cc058520639,,,,,,,,,,,,,27,1,,./stim/wavs/castilian_mismatch_interrogative-total-yn_Mi-madre-come-la-fruta.wav,,,,,,,,,,,,,,,,,,,,,,340.2582,351.5583,0,0,10.7657,,0,30,30,26,1,0,castilian,,,,,,,,,,,,,,,,,,,,,,,,,,,,,,,,,,,,,,,,,,,,,,,,,,,,,,,,
,,,,,,,,,5d79375d794d900017671c07,Spanish,13 or older,"yes, I am fluent in another language",no,2025-08-12_14h46.03.437,empathy_intonation_perc,2024.2.4,Win32,59.17159763,5d79375d794d900017671c07,687ed1b7e638a4cbf2f02089,689b8ba95a1a0cc058520639,,,,,,,,,,,,,11,1,,./stim/wavs/cuban_match_interrogative-total-yn_Mariano-habla-del-tiempo.wav,,,,,,,,,,,,,,,,,,,,,,351.5597,354.1911,0,0,2.1028,,0,31,31,10,1,1,cuban,,,,,,,,,,,,,,,,,,,,,,,,,,,,,,,,,,,,,,,,,,,,,,,,,,,,,,,,
,,,,,,,,,5d79375d794d900017671c07,Spanish,13 or older,"yes, I am fluent in another language",no,2025-08-12_14h46.03.437,empathy_intonation_perc,2024.2.4,Win32,59.17159763,5d79375d794d900017671c07,687ed1b7e638a4cbf2f02089,689b8ba95a1a0cc058520639,,,,,,,,,,,,,15,1,,./stim/wavs/mexican_match_interrogative-total-yn_David-leia-el-libro.wav,,,,,,,,,,,,,,,,,,,,,,354.1921,357.1575,1,1,2.4336,,0,32,32,14,1,0,mexican,,,,,,,,,,,,,,,,,,,,,,,,,,,,,,,,,,,,,,,,,,,,,,,,,,,,,,,,
,,,,,,,,,5d79375d794d900017671c07,Spanish,13 or older,"yes, I am fluent in another language",no,2025-08-12_14h46.03.437,empathy_intonation_perc,2024.2.4,Win32,59.17159763,5d79375d794d900017671c07,687ed1b7e638a4cbf2f02089,689b8ba95a1a0cc058520639,,,,,,,,,,,,,22,1,,./stim/wavs/puertorican_match_interrogative-total-yn_Emilio-ama-la-marcha.wav,,,,,,,,,,,,,,,,,,,,,,357.1583,360.0242,0,0,2.3377,,0,33,33,21,1,1,puertorican,,,,,,,,,,,,,,,,,,,,,,,,,,,,,,,,,,,,,,,,,,,,,,,,,,,,,,,,
,,,,,,,,,5d79375d794d900017671c07,Spanish,13 or older,"yes, I am fluent in another language",no,2025-08-12_14h46.03.437,empathy_intonation_perc,2024.2.4,Win32,59.17159763,5d79375d794d900017671c07,687ed1b7e638a4cbf2f02089,689b8ba95a1a0cc058520639,,,,,,,,,,,,,21,1,,./stim/wavs/puertorican_match_interrogative-total-yn_David-leia-el-libro.wav,,,,,,,,,,,,,,,,,,,,,,360.0248,362.4743,0,0,1.9171,,0,34,34,20,1,1,puertorican,,,,,,,,,,,,,,,,,,,,,,,,,,,,,,,,,,,,,,,,,,,,,,,,,,,,,,,,
,,,,,,,,,5d79375d794d900017671c07,Spanish,13 or older,"yes, I am fluent in another language",no,2025-08-12_14h46.03.437,empathy_intonation_perc,2024.2.4,Win32,59.17159763,5d79375d794d900017671c07,687ed1b7e638a4cbf2f02089,689b8ba95a1a0cc058520639,,,,,,,,,,,,,47,0,,./stim/wavs/castilian_match_declarative-broad-focus_Manuela-vende-el-carro.wav,,,,,,,,,,,,,,,,,,,,,,362.475,365.4242,0,1,2.4224,,0,35,35,46,1,0,castilian,,,,,,,,,,,,,,,,,,,,,,,,,,,,,,,,,,,,,,,,,,,,,,,,,,,,,,,,
,,,,,,,,,5d79375d794d900017671c07,Spanish,13 or older,"yes, I am fluent in another language",no,2025-08-12_14h46.03.437,empathy_intonation_perc,2024.2.4,Win32,59.17159763,5d79375d794d900017671c07,687ed1b7e638a4cbf2f02089,689b8ba95a1a0cc058520639,,,,,,,,,,,,,6,1,,./stim/wavs/castilian_match_interrogative-total-yn_Marta-abre-el-regalo.wav,,,,,,,,,,,,,,,,,,,,,,365.4248,368.541,1,1,2.6025,,0,36,36,5,1,0,castilian,,,,,,,,,,,,,,,,,,,,,,,,,,,,,,,,,,,,,,,,,,,,,,,,,,,,,,,,
,,,,,,,,,5d79375d794d900017671c07,Spanish,13 or older,"yes, I am fluent in another language",no,2025-08-12_14h46.03.437,empathy_intonation_perc,2024.2.4,Win32,59.17159763,5d79375d794d900017671c07,687ed1b7e638a4cbf2f02089,689b8ba95a1a0cc058520639,,,,,,,,,,,,,76,0,,./stim/wavs/cuban_mismatch_declarative-broad-focus_La-nina-lava-el-plato.wav,,,,,,,,,,,,,,,,,,,,,,368.5417,370.6407,0,1,1.5662,,0,37,37,75,1,0,cuban,,,,,,,,,,,,,,,,,,,,,,,,,,,,,,,,,,,,,,,,,,,,,,,,,,,,,,,,
,,,,,,,,,5d79375d794d900017671c07,Spanish,13 or older,"yes, I am fluent in another language",no,2025-08-12_14h46.03.437,empathy_intonation_perc,2024.2.4,Win32,59.17159763,5d79375d794d900017671c07,687ed1b7e638a4cbf2f02089,689b8ba95a1a0cc058520639,,,,,,,,,,,,,56,0,,./stim/wavs/cuban_match_declarative-broad-focus_Marta-abre-el-regalo.wav,,,,,,,,,,,,,,,,,,,,,,370.6415,372.7574,0,1,1.5921,,0,38,38,55,1,0,cuban,,,,,,,,,,,,,,,,,,,,,,,,,,,,,,,,,,,,,,,,,,,,,,,,,,,,,,,,
,,,,,,,,,5d79375d794d900017671c07,Spanish,13 or older,"yes, I am fluent in another language",no,2025-08-12_14h46.03.437,empathy_intonation_perc,2024.2.4,Win32,59.17159763,5d79375d794d900017671c07,687ed1b7e638a4cbf2f02089,689b8ba95a1a0cc058520639,,,,,,,,,,,,,59,0,,./stim/wavs/mexican_match_declarative-broad-focus_David-leia-el-libro.wav,,,,,,,,,,,,,,,,,,,,,,372.7589,375.1073,0,1,1.822,,0,39,39,58,1,0,mexican,,,,,,,,,,,,,,,,,,,,,,,,,,,,,,,,,,,,,,,,,,,,,,,,,,,,,,,,
,,,,,,,,,5d79375d794d900017671c07,Spanish,13 or older,"yes, I am fluent in another language",no,2025-08-12_14h46.03.437,empathy_intonation_perc,2024.2.4,Win32,59.17159763,5d79375d794d900017671c07,687ed1b7e638a4cbf2f02089,689b8ba95a1a0cc058520639,,,,,,,,,,,,,25,1,,./stim/wavs/castilian_mismatch_interrogative-total-yn_La-maestra-vive-en-Paris.wav,,,,,,,,,,,,,,,,,,,,,,375.1082,377.8251,1,1,2.1944,,0,40,40,24,1,0,castilian,,,,,,,,,,,,,,,,,,,,,,,,,,,,,,,,,,,,,,,,,,,,,,,,,,,,,,,,
,,,,,,,,,5d79375d794d900017671c07,Spanish,13 or older,"yes, I am fluent in another language",no,2025-08-12_14h46.03.437,empathy_intonation_perc,2024.2.4,Win32,59.17159763,5d79375d794d900017671c07,687ed1b7e638a4cbf2f02089,689b8ba95a1a0cc058520639,,,,,,,,,,,,,31,1,,./stim/wavs/cuban_mismatch_interrogative-total-yn_El-nino-oye-el-rio.wav,,,,,,,,,,,,,,,,,,,,,,377.8264,380.1075,0,0,1.7505,,0,41,41,30,1,1,cuban,,,,,,,,,,,,,,,,,,,,,,,,,,,,,,,,,,,,,,,,,,,,,,,,,,,,,,,,
,,,,,,,,,5d79375d794d900017671c07,Spanish,13 or older,"yes, I am fluent in another language",no,2025-08-12_14h46.03.437,empathy_intonation_perc,2024.2.4,Win32,59.17159763,5d79375d794d900017671c07,687ed1b7e638a4cbf2f02089,689b8ba95a1a0cc058520639,,,,,,,,,,,,,54,0,,./stim/wavs/cuban_match_declarative-broad-focus_Maria-bebe-el-vino.wav,,,,,,,,,,,,,,,,,,,,,,380.1084,382.8744,0,1,2.2359,,0,42,42,53,1,0,cuban,,,,,,,,,,,,,,,,,,,,,,,,,,,,,,,,,,,,,,,,,,,,,,,,,,,,,,,,
,,,,,,,,,5d79375d794d900017671c07,Spanish,13 or older,"yes, I am fluent in another language",no,2025-08-12_14h46.03.437,empathy_intonation_perc,2024.2.4,Win32,59.17159763,5d79375d794d900017671c07,687ed1b7e638a4cbf2f02089,689b8ba95a1a0cc058520639,,,,,,,,,,,,,67,0,,./stim/wavs/puertorican_match_declarative-broad-focus_Manuela-vende-el-carro.wav,,,,,,,,,,,,,,,,,,,,,,382.875,385.5911,0,1,2.208,,0,43,43,66,1,0,puertorican,,,,,,,,,,,,,,,,,,,,,,,,,,,,,,,,,,,,,,,,,,,,,,,,,,,,,,,,
,,,,,,,,,5d79375d794d900017671c07,Spanish,13 or older,"yes, I am fluent in another language",no,2025-08-12_14h46.03.437,empathy_intonation_perc,2024.2.4,Win32,59.17159763,5d79375d794d900017671c07,687ed1b7e638a4cbf2f02089,689b8ba95a1a0cc058520639,,,,,,,,,,,,,69,0,,./stim/wavs/castilian_mismatch_declarative-broad-focus_El-nino-oye-el-rio.wav,,,,,,,,,,,,,,,,,,,,,,385.5916,388.274,0,1,2.1494,,0,44,44,68,1,0,castilian,,,,,,,,,,,,,,,,,,,,,,,,,,,,,,,,,,,,,,,,,,,,,,,,,,,,,,,,
,,,,,,,,,5d79375d794d900017671c07,Spanish,13 or older,"yes, I am fluent in another language",no,2025-08-12_14h46.03.437,empathy_intonation_perc,2024.2.4,Win32,59.17159763,5d79375d794d900017671c07,687ed1b7e638a4cbf2f02089,689b8ba95a1a0cc058520639,,,,,,,,,,,,,43,1,,./stim/wavs/puertorican_mismatch_interrogative-total-yn_La-nina-lava-el-plato.wav,,,,,,,,,,,,,,,,,,,,,,388.2747,390.7745,0,0,1.9698,,0,45,45,42,1,1,puertorican,,,,,,,,,,,,,,,,,,,,,,,,,,,,,,,,,,,,,,,,,,,,,,,,,,,,,,,,
,,,,,,,,,5d79375d794d900017671c07,Spanish,13 or older,"yes, I am fluent in another language",no,2025-08-12_14h46.03.437,empathy_intonation_perc,2024.2.4,Win32,59.17159763,5d79375d794d900017671c07,687ed1b7e638a4cbf2f02089,689b8ba95a1a0cc058520639,,,,,,,,,,,,,44,1,,./stim/wavs/puertorican_mismatch_interrogative-total-yn_Mi-madre-come-la-fruta.wav,,,,,,,,,,,,,,,,,,,,,,390.775,393.3246,0,0,2.0251,,0,46,46,43,1,1,puertorican,,,,,,,,,,,,,,,,,,,,,,,,,,,,,,,,,,,,,,,,,,,,,,,,,,,,,,,,
,,,,,,,,,5d79375d794d900017671c07,Spanish,13 or older,"yes, I am fluent in another language",no,2025-08-12_14h46.03.437,empathy_intonation_perc,2024.2.4,Win32,59.17159763,5d79375d794d900017671c07,687ed1b7e638a4cbf2f02089,689b8ba95a1a0cc058520639,,,,,,,,,,,,,32,1,,./stim/wavs/cuban_mismatch_interrogative-total-yn_Mi-madre-come-la-fruta.wav,,,,,,,,,,,,,,,,,,,,,,393.3254,395.6074,0,0,1.7565,,0,47,47,31,1,1,cuban,,,,,,,,,,,,,,,,,,,,,,,,,,,,,,,,,,,,,,,,,,,,,,,,,,,,,,,,
,,,,,,,,,5d79375d794d900017671c07,Spanish,13 or older,"yes, I am fluent in another language",no,2025-08-12_14h46.03.437,empathy_intonation_perc,2024.2.4,Win32,59.17159763,5d79375d794d900017671c07,687ed1b7e638a4cbf2f02089,689b8ba95a1a0cc058520639,,,,,,,,,,,,,52,0,,./stim/wavs/cuban_match_declarative-broad-focus_Daniel-iba-a-Bolivia.wav,,,,,,,,,,,,,,,,,,,,,,395.6085,398.0082,0,1,1.8709,,0,48,48,51,1,0,cuban,,,,,,,,,,,,,,,,,,,,,,,,,,,,,,,,,,,,,,,,,,,,,,,,,,,,,,,,
,,,,,,,,,5d79375d794d900017671c07,Spanish,13 or older,"yes, I am fluent in another language",no,2025-08-12_14h46.03.437,empathy_intonation_perc,2024.2.4,Win32,59.17159763,5d79375d794d900017671c07,687ed1b7e638a4cbf2f02089,689b8ba95a1a0cc058520639,,,,,,,,,,,,,24,1,,./stim/wavs/puertorican_match_interrogative-total-yn_Maria-bebe-el-vino.wav,,,,,,,,,,,,,,,,,,,,,,398.0088,400.6746,0,0,2.1342,,0,49,49,23,1,1,puertorican,,,,,,,,,,,,,,,,,,,,,,,,,,,,,,,,,,,,,,,,,,,,,,,,,,,,,,,,
,,,,,,,,,5d79375d794d900017671c07,Spanish,13 or older,"yes, I am fluent in another language",no,2025-08-12_14h46.03.437,empathy_intonation_perc,2024.2.4,Win32,59.17159763,5d79375d794d900017671c07,687ed1b7e638a4cbf2f02089,689b8ba95a1a0cc058520639,,,,,,,,,,,,,79,0,,./stim/wavs/mexican_mismatch_declarative-broad-focus_El-bebe-comia-muy-bien.wav,,,,,,,,,,,,,,,,,,,,,,400.6753,403.5747,0,1,2.3676,,0,50,50,78,1,0,mexican,,,,,,,,,,,,,,,,,,,,,,,,,,,,,,,,,,,,,,,,,,,,,,,,,,,,,,,,
,,,,,,,,,5d79375d794d900017671c07,Spanish,13 or older,"yes, I am fluent in another language",no,2025-08-12_14h46.03.437,empathy_intonation_perc,2024.2.4,Win32,59.17159763,5d79375d794d900017671c07,687ed1b7e638a4cbf2f02089,689b8ba95a1a0cc058520639,,,,,,,,,,,,,39,1,,./stim/wavs/mexican_mismatch_interrogative-total-yn_Mi-tia-odia-la-lluvia.wav,,,,,,,,,,,,,,,,,,,,,,403.5754,406.8909,1,1,2.7847,,0,51,51,38,1,0,mexican,,,,,,,,,,,,,,,,,,,,,,,,,,,,,,,,,,,,,,,,,,,,,,,,,,,,,,,,
,,,,,,,,,5d79375d794d900017671c07,Spanish,13 or older,"yes, I am fluent in another language",no,2025-08-12_14h46.03.437,empathy_intonation_perc,2024.2.4,Win32,59.17159763,5d79375d794d900017671c07,687ed1b7e638a4cbf2f02089,689b8ba95a1a0cc058520639,,,,,,,,,,,,,10,1,,./stim/wavs/cuban_match_interrogative-total-yn_Maria-bebe-el-vino.wav,,,,,,,,,,,,,,,,,,,,,,406.8917,409.6248,0,0,2.207,,0,52,52,9,1,1,cuban,,,,,,,,,,,,,,,,,,,,,,,,,,,,,,,,,,,,,,,,,,,,,,,,,,,,,,,,
,,,,,,,,,5d79375d794d900017671c07,Spanish,13 or older,"yes, I am fluent in another language",no,2025-08-12_14h46.03.437,empathy_intonation_perc,2024.2.4,Win32,59.17159763,5d79375d794d900017671c07,687ed1b7e638a4cbf2f02089,689b8ba95a1a0cc058520639,,,,,,,,,,,,,63,0,,./stim/wavs/puertorican_match_declarative-broad-focus_Ana-lleva-el-abrigo.wav,,,,,,,,,,,,,,,,,,,,,,409.6253,413.7243,0,1,3.5766,,0,53,53,62,1,0,puertorican,,,,,,,,,,,,,,,,,,,,,,,,,,,,,,,,,,,,,,,,,,,,,,,,,,,,,,,,
,,,,,,,,,5d79375d794d900017671c07,Spanish,13 or older,"yes, I am fluent in another language",no,2025-08-12_14h46.03.437,empathy_intonation_perc,2024.2.4,Win32,59.17159763,5d79375d794d900017671c07,687ed1b7e638a4cbf2f02089,689b8ba95a1a0cc058520639,,,,,,,,,,,,,12,1,,./stim/wavs/cuban_match_interrogative-total-yn_Marta-abre-el-regalo.wav,,,,,,,,,,,,,,,,,,,,,,413.7258,416.3246,0,0,2.068,,0,54,54,11,1,1,cuban,,,,,,,,,,,,,,,,,,,,,,,,,,,,,,,,,,,,,,,,,,,,,,,,,,,,,,,,
,,,,,,,,,5d79375d794d900017671c07,Spanish,13 or older,"yes, I am fluent in another language",no,2025-08-12_14h46.03.437,empathy_intonation_perc,2024.2.4,Win32,59.17159763,5d79375d794d900017671c07,687ed1b7e638a4cbf2f02089,689b8ba95a1a0cc058520639,,,,,,,,,,,,,7,1,,./stim/wavs/cuban_match_interrogative-total-yn_Ana-lleva-el-abrigo.wav,,,,,,,,,,,,,,,,,,,,,,416.3249,419.9746,0,0,3.1169,,0,55,55,6,1,1,cuban,,,,,,,,,,,,,,,,,,,,,,,,,,,,,,,,,,,,,,,,,,,,,,,,,,,,,,,,
,,,,,,,,,5d79375d794d900017671c07,Spanish,13 or older,"yes, I am fluent in another language",no,2025-08-12_14h46.03.437,empathy_intonation_perc,2024.2.4,Win32,59.17159763,5d79375d794d900017671c07,687ed1b7e638a4cbf2f02089,689b8ba95a1a0cc058520639,,,,,,,,,,,,,65,0,,./stim/wavs/puertorican_match_declarative-broad-focus_David-leia-el-libro.wav,,,,,,,,,,,,,,,,,,,,,,419.9751,422.0247,0,1,1.5173,,0,56,56,64,1,0,puertorican,,,,,,,,,,,,,,,,,,,,,,,,,,,,,,,,,,,,,,,,,,,,,,,,,,,,,,,,
,,,,,,,,,5d79375d794d900017671c07,Spanish,13 or older,"yes, I am fluent in another language",no,2025-08-12_14h46.03.437,empathy_intonation_perc,2024.2.4,Win32,59.17159763,5d79375d794d900017671c07,687ed1b7e638a4cbf2f02089,689b8ba95a1a0cc058520639,,,,,,,,,,,,,84,0,,./stim/wavs/puertorican_mismatch_declarative-broad-focus_El-bebe-comia-muy-bien.wav,,,,,,,,,,,,,,,,,,,,,,422.0253,424.5746,0,1,2.017,,0,57,57,83,1,0,puertorican,,,,,,,,,,,,,,,,,,,,,,,,,,,,,,,,,,,,,,,,,,,,,,,,,,,,,,,,
,,,,,,,,,5d79375d794d900017671c07,Spanish,13 or older,"yes, I am fluent in another language",no,2025-08-12_14h46.03.437,empathy_intonation_perc,2024.2.4,Win32,59.17159763,5d79375d794d900017671c07,687ed1b7e638a4cbf2f02089,689b8ba95a1a0cc058520639,,,,,,,,,,,,,70,0,,./stim/wavs/castilian_mismatch_declarative-broad-focus_La-maestra-vive-en-Paris.wav,,,,,,,,,,,,,,,,,,,,,,424.5751,427.575,0,1,2.4775,,0,58,58,69,1,0,castilian,,,,,,,,,,,,,,,,,,,,,,,,,,,,,,,,,,,,,,,,,,,,,,,,,,,,,,,,
,,,,,,,,,5d79375d794d900017671c07,Spanish,13 or older,"yes, I am fluent in another language",no,2025-08-12_14h46.03.437,empathy_intonation_perc,2024.2.4,Win32,59.17159763,5d79375d794d900017671c07,687ed1b7e638a4cbf2f02089,689b8ba95a1a0cc058520639,,,,,,,,,,,,,49,0,,./stim/wavs/castilian_match_declarative-broad-focus_Mariano-habla-del-tiempo.wav,,,,,,,,,,,,,,,,,,,,,,427.5764,430.5911,0,1,2.4912,,0,59,59,48,1,0,castilian,,,,,,,,,,,,,,,,,,,,,,,,,,,,,,,,,,,,,,,,,,,,,,,,,,,,,,,,
,,,,,,,,,5d79375d794d900017671c07,Spanish,13 or older,"yes, I am fluent in another language",no,2025-08-12_14h46.03.437,empathy_intonation_perc,2024.2.4,Win32,59.17159763,5d79375d794d900017671c07,687ed1b7e638a4cbf2f02089,689b8ba95a1a0cc058520639,,,,,,,,,,,,,48,0,,./stim/wavs/castilian_match_declarative-broad-focus_Maria-bebe-el-vino.wav,,,,,,,,,,,,,,,,,,,,,,430.592,432.9082,0,1,1.7854,,0,60,60,47,1,0,castilian,,,,,,,,,,,,,,,,,,,,,,,,,,,,,,,,,,,,,,,,,,,,,,,,,,,,,,,,
,,,,,,,,,5d79375d794d900017671c07,Spanish,13 or older,"yes, I am fluent in another language",no,2025-08-12_14h46.03.437,empathy_intonation_perc,2024.2.4,Win32,59.17159763,5d79375d794d900017671c07,687ed1b7e638a4cbf2f02089,689b8ba95a1a0cc058520639,,,,,,,,,,,,,55,0,,./stim/wavs/cuban_match_declarative-broad-focus_Mariano-habla-del-tiempo.wav,,,,,,,,,,,,,,,,,,,,,,432.9088,435.2417,0,1,1.8004,,0,61,61,54,1,0,cuban,,,,,,,,,,,,,,,,,,,,,,,,,,,,,,,,,,,,,,,,,,,,,,,,,,,,,,,,
,,,,,,,,,5d79375d794d900017671c07,Spanish,13 or older,"yes, I am fluent in another language",no,2025-08-12_14h46.03.437,empathy_intonation_perc,2024.2.4,Win32,59.17159763,5d79375d794d900017671c07,687ed1b7e638a4cbf2f02089,689b8ba95a1a0cc058520639,,,,,,,,,,,,,13,1,,./stim/wavs/mexican_match_interrogative-total-yn_Ana-lleva-el-abrigo.wav,,,,,,,,,,,,,,,,,,,,,,435.2425,439.3913,1,1,3.6225,,0,62,62,12,1,0,mexican,,,,,,,,,,,,,,,,,,,,,,,,,,,,,,,,,,,,,,,,,,,,,,,,,,,,,,,,
,,,,,,,,,5d79375d794d900017671c07,Spanish,13 or older,"yes, I am fluent in another language",no,2025-08-12_14h46.03.437,empathy_intonation_perc,2024.2.4,Win32,59.17159763,5d79375d794d900017671c07,687ed1b7e638a4cbf2f02089,689b8ba95a1a0cc058520639,,,,,,,,,,,,,28,1,,./stim/wavs/castilian_mismatch_interrogative-total-yn_Mi-novio-viene-del-lago.wav,,,,,,,,,,,,,,,,,,,,,,439.3918,442.1583,1,1,2.2336,,0,63,63,27,1,0,castilian,,,,,,,,,,,,,,,,,,,,,,,,,,,,,,,,,,,,,,,,,,,,,,,,,,,,,,,,
,,,,,,,,,5d79375d794d900017671c07,Spanish,13 or older,"yes, I am fluent in another language",no,2025-08-12_14h46.03.437,empathy_intonation_perc,2024.2.4,Win32,59.17159763,5d79375d794d900017671c07,687ed1b7e638a4cbf2f02089,689b8ba95a1a0cc058520639,,,,,,,,,,,,,45,0,,./stim/wavs/castilian_match_declarative-broad-focus_David-leia-el-libro.wav,,,,,,,,,,,,,,,,,,,,,,442.1588,444.4749,0,1,1.7866,,0,64,64,44,1,0,castilian,,,,,,,,,,,,,,,,,,,,,,,,,,,,,,,,,,,,,,,,,,,,,,,,,,,,,,,,
,,,,,,,,,5d79375d794d900017671c07,Spanish,13 or older,"yes, I am fluent in another language",no,2025-08-12_14h46.03.437,empathy_intonation_perc,2024.2.4,Win32,59.17159763,5d79375d794d900017671c07,687ed1b7e638a4cbf2f02089,689b8ba95a1a0cc058520639,,,,,,,,,,,,,51,0,,./stim/wavs/cuban_match_declarative-broad-focus_Ana-lleva-el-abrigo.wav,,,,,,,,,,,,,,,,,,,,,,444.4755,446.4412,0,1,1.4388,,0,65,65,50,1,0,cuban,,,,,,,,,,,,,,,,,,,,,,,,,,,,,,,,,,,,,,,,,,,,,,,,,,,,,,,,
,,,,,,,,,5d79375d794d900017671c07,Spanish,13 or older,"yes, I am fluent in another language",no,2025-08-12_14h46.03.437,empathy_intonation_perc,2024.2.4,Win32,59.17159763,5d79375d794d900017671c07,687ed1b7e638a4cbf2f02089,689b8ba95a1a0cc058520639,,,,,,,,,,,,,62,0,,./stim/wavs/mexican_match_declarative-broad-focus_Marta-abre-el-regalo.wav,,,,,,,,,,,,,,,,,,,,,,446.4418,448.4083,0,1,1.4341,,0,66,66,61,1,0,mexican,,,,,,,,,,,,,,,,,,,,,,,,,,,,,,,,,,,,,,,,,,,,,,,,,,,,,,,,
,,,,,,,,,5d79375d794d900017671c07,Spanish,13 or older,"yes, I am fluent in another language",no,2025-08-12_14h46.03.437,empathy_intonation_perc,2024.2.4,Win32,59.17159763,5d79375d794d900017671c07,687ed1b7e638a4cbf2f02089,689b8ba95a1a0cc058520639,,,,,,,,,,,,,74,0,,./stim/wavs/cuban_mismatch_declarative-broad-focus_El-bebe-comia-muy-bien.wav,,,,,,,,,,,,,,,,,,,,,,448.4091,450.4252,0,1,1.4831,,0,67,67,73,1,0,cuban,,,,,,,,,,,,,,,,,,,,,,,,,,,,,,,,,,,,,,,,,,,,,,,,,,,,,,,,
,,,,,,,,,5d79375d794d900017671c07,Spanish,13 or older,"yes, I am fluent in another language",no,2025-08-12_14h46.03.437,empathy_intonation_perc,2024.2.4,Win32,59.17159763,5d79375d794d900017671c07,687ed1b7e638a4cbf2f02089,689b8ba95a1a0cc058520639,,,,,,,,,,,,,71,0,,./stim/wavs/castilian_mismatch_declarative-broad-focus_La-nina-lava-el-plato.wav,,,,,,,,,,,,,,,,,,,,,,450.4258,453.0578,0,1,2.1023,,0,68,68,70,1,0,castilian,,,,,,,,,,,,,,,,,,,,,,,,,,,,,,,,,,,,,,,,,,,,,,,,,,,,,,,,
,,,,,,,,,5d79375d794d900017671c07,Spanish,13 or older,"yes, I am fluent in another language",no,2025-08-12_14h46.03.437,empathy_intonation_perc,2024.2.4,Win32,59.17159763,5d79375d794d900017671c07,687ed1b7e638a4cbf2f02089,689b8ba95a1a0cc058520639,,,,,,,,,,,,,20,1,,./stim/wavs/puertorican_match_interrogative-total-yn_Daniel-iba-a-Bolivia.wav,,,,,,,,,,,,,,,,,,,,,,453.0583,455.2416,0,0,1.6683,,0,69,69,19,1,1,puertorican,,,,,,,,,,,,,,,,,,,,,,,,,,,,,,,,,,,,,,,,,,,,,,,,,,,,,,,,
,,,,,,,,,5d79375d794d900017671c07,Spanish,13 or older,"yes, I am fluent in another language",no,2025-08-12_14h46.03.437,empathy_intonation_perc,2024.2.4,Win32,59.17159763,5d79375d794d900017671c07,687ed1b7e638a4cbf2f02089,689b8ba95a1a0cc058520639,,,,,,,,,,,,,16,1,,./stim/wavs/mexican_match_interrogative-total-yn_Emilio-ama-la-marcha.wav,,,,,,,,,,,,,,,,,,,,,,455.2422,460.3081,1,1,4.5394,,0,70,70,15,1,0,mexican,,,,,,,,,,,,,,,,,,,,,,,,,,,,,,,,,,,,,,,,,,,,,,,,,,,,,,,,
,,,,,,,,,5d79375d794d900017671c07,Spanish,13 or older,"yes, I am fluent in another language",no,2025-08-12_14h46.03.437,empathy_intonation_perc,2024.2.4,Win32,59.17159763,5d79375d794d900017671c07,687ed1b7e638a4cbf2f02089,689b8ba95a1a0cc058520639,,,,,,,,,,,,,30,1,,./stim/wavs/cuban_mismatch_interrogative-total-yn_El-hombre-mira-la-luna.wav,,,,,,,,,,,,,,,,,,,,,,460.3092,462.2251,0,0,1.3887,,0,71,71,29,1,1,cuban,,,,,,,,,,,,,,,,,,,,,,,,,,,,,,,,,,,,,,,,,,,,,,,,,,,,,,,,
,,,,,,,,,5d79375d794d900017671c07,Spanish,13 or older,"yes, I am fluent in another language",no,2025-08-12_14h46.03.437,empathy_intonation_perc,2024.2.4,Win32,59.17159763,5d79375d794d900017671c07,687ed1b7e638a4cbf2f02089,689b8ba95a1a0cc058520639,,,,,,,,,,,,,58,0,,./stim/wavs/mexican_match_declarative-broad-focus_Daniel-iba-a-Bolivia.wav,,,,,,,,,,,,,,,,,,,,,,462.2263,464.9415,0,1,2.1835,,0,72,72,57,1,0,mexican,,,,,,,,,,,,,,,,,,,,,,,,,,,,,,,,,,,,,,,,,,,,,,,,,,,,,,,,
,,,,,,,,,5d79375d794d900017671c07,Spanish,13 or older,"yes, I am fluent in another language",no,2025-08-12_14h46.03.437,empathy_intonation_perc,2024.2.4,Win32,59.17159763,5d79375d794d900017671c07,687ed1b7e638a4cbf2f02089,689b8ba95a1a0cc058520639,,,,,,,,,,,,,40,1,,./stim/wavs/puertorican_mismatch_interrogative-total-yn_El-hombre-mira-la-luna.wav,,,,,,,,,,,,,,,,,,,,,,464.9419,466.8746,1,1,1.4048,,0,73,73,39,1,1,puertorican,,,,,,,,,,,,,,,,,,,,,,,,,,,,,,,,,,,,,,,,,,,,,,,,,,,,,,,,
,,,,,,,,,5d79375d794d900017671c07,Spanish,13 or older,"yes, I am fluent in another language",no,2025-08-12_14h46.03.437,empathy_intonation_perc,2024.2.4,Win32,59.17159763,5d79375d794d900017671c07,687ed1b7e638a4cbf2f02089,689b8ba95a1a0cc058520639,,,,,,,,,,,,,41,1,,./stim/wavs/puertorican_mismatch_interrogative-total-yn_El-nino-oye-el-rio.wav,,,,,,,,,,,,,,,,,,,,,,466.8751,470.075,0,0,2.6672,,0,74,74,40,1,1,puertorican,,,,,,,,,,,,,,,,,,,,,,,,,,,,,,,,,,,,,,,,,,,,,,,,,,,,,,,,
,,,,,,,,,5d79375d794d900017671c07,Spanish,13 or older,"yes, I am fluent in another language",no,2025-08-12_14h46.03.437,empathy_intonation_perc,2024.2.4,Win32,59.17159763,5d79375d794d900017671c07,687ed1b7e638a4cbf2f02089,689b8ba95a1a0cc058520639,,,,,,,,,,,,,73,0,,./stim/wavs/castilian_mismatch_declarative-broad-focus_Mi-tia-odia-la-lluvia.wav,,,,,,,,,,,,,,,,,,,,,,470.0755,472.8915,0,1,2.2836,,0,75,75,72,1,0,castilian,,,,,,,,,,,,,,,,,,,,,,,,,,,,,,,,,,,,,,,,,,,,,,,,,,,,,,,,
,,,,,,,,,5d79375d794d900017671c07,Spanish,13 or older,"yes, I am fluent in another language",no,2025-08-12_14h46.03.437,empathy_intonation_perc,2024.2.4,Win32,59.17159763,5d79375d794d900017671c07,687ed1b7e638a4cbf2f02089,689b8ba95a1a0cc058520639,,,,,,,,,,,,,5,1,,./stim/wavs/castilian_match_interrogative-total-yn_Mariano-habla-del-tiempo.wav,,,,,,,,,,,,,,,,,,,,,,472.8919,475.6919,0,0,2.2736,,0,76,76,4,1,0,castilian,,,,,,,,,,,,,,,,,,,,,,,,,,,,,,,,,,,,,,,,,,,,,,,,,,,,,,,,
,,,,,,,,,5d79375d794d900017671c07,Spanish,13 or older,"yes, I am fluent in another language",no,2025-08-12_14h46.03.437,empathy_intonation_perc,2024.2.4,Win32,59.17159763,5d79375d794d900017671c07,687ed1b7e638a4cbf2f02089,689b8ba95a1a0cc058520639,,,,,,,,,,,,,50,0,,./stim/wavs/castilian_match_declarative-broad-focus_Marta-abre-el-regalo.wav,,,,,,,,,,,,,,,,,,,,,,475.6928,478.1578,0,1,1.94,,0,77,77,49,1,0,castilian,,,,,,,,,,,,,,,,,,,,,,,,,,,,,,,,,,,,,,,,,,,,,,,,,,,,,,,,
,,,,,,,,,5d79375d794d900017671c07,Spanish,13 or older,"yes, I am fluent in another language",no,2025-08-12_14h46.03.437,empathy_intonation_perc,2024.2.4,Win32,59.17159763,5d79375d794d900017671c07,687ed1b7e638a4cbf2f02089,689b8ba95a1a0cc058520639,,,,,,,,,,,,,8,1,,./stim/wavs/cuban_match_interrogative-total-yn_Daniel-iba-a-Bolivia.wav,,,,,,,,,,,,,,,,,,,,,,478.1588,480.4918,0,0,1.8038,,0,78,78,7,1,1,cuban,,,,,,,,,,,,,,,,,,,,,,,,,,,,,,,,,,,,,,,,,,,,,,,,,,,,,,,,
,,,,,,,,,5d79375d794d900017671c07,Spanish,13 or older,"yes, I am fluent in another language",no,2025-08-12_14h46.03.437,empathy_intonation_perc,2024.2.4,Win32,59.17159763,5d79375d794d900017671c07,687ed1b7e638a4cbf2f02089,689b8ba95a1a0cc058520639,,,,,,,,,,,,,26,1,,./stim/wavs/castilian_mismatch_interrogative-total-yn_La-nina-lava-el-plato.wav,,,,,,,,,,,,,,,,,,,,,,480.493,483.7584,1,1,2.7359,,0,79,79,25,1,0,castilian,,,,,,,,,,,,,,,,,,,,,,,,,,,,,,,,,,,,,,,,,,,,,,,,,,,,,,,,
,,,,,,,,,5d79375d794d900017671c07,Spanish,13 or older,"yes, I am fluent in another language",no,2025-08-12_14h46.03.437,empathy_intonation_perc,2024.2.4,Win32,59.17159763,5d79375d794d900017671c07,687ed1b7e638a4cbf2f02089,689b8ba95a1a0cc058520639,,,,,,,,,,,,,1,1,,./stim/wavs/castilian_match_interrogative-total-yn_David-leia-el-libro.wav,,,,,,,,,,,,,,,,,,,,,,483.7603,486.6744,1,1,2.3921,,0,80,80,0,1,0,castilian,,,,,,,,,,,,,,,,,,,,,,,,,,,,,,,,,,,,,,,,,,,,,,,,,,,,,,,,
,,,,,,,,,5d79375d794d900017671c07,Spanish,13 or older,"yes, I am fluent in another language",no,2025-08-12_14h46.03.437,empathy_intonation_perc,2024.2.4,Win32,59.17159763,5d79375d794d900017671c07,687ed1b7e638a4cbf2f02089,689b8ba95a1a0cc058520639,,,,,,,,,,,,,36,1,,./stim/wavs/mexican_mismatch_interrogative-total-yn_El-nino-oye-el-rio.wav,,,,,,,,,,,,,,,,,,,,,,486.675,488.7751,1,1,1.5864,,0,81,81,35,1,0,mexican,,,,,,,,,,,,,,,,,,,,,,,,,,,,,,,,,,,,,,,,,,,,,,,,,,,,,,,,
,,,,,,,,,5d79375d794d900017671c07,Spanish,13 or older,"yes, I am fluent in another language",no,2025-08-12_14h46.03.437,empathy_intonation_perc,2024.2.4,Win32,59.17159763,5d79375d794d900017671c07,687ed1b7e638a4cbf2f02089,689b8ba95a1a0cc058520639,,,,,,,,,,,,,68,0,,./stim/wavs/puertorican_match_declarative-broad-focus_Maria-bebe-el-vino.wav,,,,,,,,,,,,,,,,,,,,,,488.7754,490.6919,0,1,1.3833,,0,82,82,67,1,0,puertorican,,,,,,,,,,,,,,,,,,,,,,,,,,,,,,,,,,,,,,,,,,,,,,,,,,,,,,,,
,,,,,,,,,5d79375d794d900017671c07,Spanish,13 or older,"yes, I am fluent in another language",no,2025-08-12_14h46.03.437,empathy_intonation_perc,2024.2.4,Win32,59.17159763,5d79375d794d900017671c07,687ed1b7e638a4cbf2f02089,689b8ba95a1a0cc058520639,,,,,,,,,,,,,61,0,,./stim/wavs/mexican_match_declarative-broad-focus_Mariano-habla-del-tiempo.wav,,,,,,,,,,,,,,,,,,,,,,490.6925,492.6751,0,1,1.4504,,0,83,83,60,1,0,mexican,,,,,,,,,,,,,,,,,,,,,,,,,,,,,,,,,,,,,,,,,,,,,,,,,,,,,,,,
,,,,,,,,,5d79375d794d900017671c07,Spanish,13 or older,"yes, I am fluent in another language",no,2025-08-12_14h46.03.437,empathy_intonation_perc,2024.2.4,Win32,59.17159763,5d79375d794d900017671c07,687ed1b7e638a4cbf2f02089,689b8ba95a1a0cc058520639,,,,,,,,,,,,,29,1,,./stim/wavs/castilian_mismatch_interrogative-total-yn_Mi-tia-odia-la-lluvia.wav,,,,,,,,,,,,,,,,,,,,,,492.6757,496.6919,1,1,3.4836,,0,84,84,28,1,0,castilian,,,,,,,,,,,,,,,,,,,,,,,,,,,,,,,,,,,,,,,,,,,,,,,,,,,,,,,,
,,,,,,,,,5d79375d794d900017671c07,Spanish,13 or older,"yes, I am fluent in another language",no,2025-08-12_14h46.03.437,empathy_intonation_perc,2024.2.4,Win32,59.17159763,5d79375d794d900017671c07,687ed1b7e638a4cbf2f02089,689b8ba95a1a0cc058520639,,,,,,,,,,,,,2,1,,./stim/wavs/castilian_match_interrogative-total-yn_Emilio-ama-la-marcha.wav,,,,,,,,,,,,,,,,,,,,,,496.6928,501.3248,1,1,4.101,,0,85,85,1,1,0,castilian,,,,,,,,,,,,,,,,,,,,,,,,,,,,,,,,,,,,,,,,,,,,,,,,,,,,,,,,
,,,,,,,,,5d79375d794d900017671c07,Spanish,13 or older,"yes, I am fluent in another language",no,2025-08-12_14h46.03.437,empathy_intonation_perc,2024.2.4,Win32,59.17159763,5d79375d794d900017671c07,687ed1b7e638a4cbf2f02089,689b8ba95a1a0cc058520639,,,,,,,,,,,,,46,0,,./stim/wavs/castilian_match_declarative-broad-focus_Emilio-ama-la-marcha.wav,,,,,,,,,,,,,,,,,,,,,,501.3259,503.925,0,1,2.0678,,0,86,86,45,1,0,castilian,,,,,,,,,,,,,,,,,,,,,,,,,,,,,,,,,,,,,,,,,,,,,,,,,,,,,,,,
,,,,,,,,,5d79375d794d900017671c07,Spanish,13 or older,"yes, I am fluent in another language",no,2025-08-12_14h46.03.437,empathy_intonation_perc,2024.2.4,Win32,59.17159763,5d79375d794d900017671c07,687ed1b7e638a4cbf2f02089,689b8ba95a1a0cc058520639,,,,,,,,,,,,,57,0,,./stim/wavs/mexican_match_declarative-broad-focus_Ana-lleva-el-abrigo.wav,,,,,,,,,,,,,,,,,,,,,,503.9255,506.7251,0,1,2.2735,,0,87,87,56,1,0,mexican,,,,,,,,,,,,,,,,,,,,,,,,,,,,,,,,,,,,,,,,,,,,,,,,,,,,,,,,
,,,,,,,"Great! Now we will move on. The next task consists of about 60 trials, in each of which you will see a string of letters. 
  
  Your task is to decide whether this is a real Spanish word or not.", (press the spacebar to continue),5d79375d794d900017671c07,Spanish,13 or older,"yes, I am fluent in another language",no,2025-08-12_14h46.03.437,empathy_intonation_perc,2024.2.4,Win32,59.17159763,5d79375d794d900017671c07,687ed1b7e638a4cbf2f02089,689b8ba95a1a0cc058520639,,,,,,,,,,,,,,,,,,,,,,,,,,,,,,,,,,,,,,,,,,,,,,,,,,,506.7314,516.6923,0,0,0,0,1,,,,,,,,,,,,,,,,,,,,,,,,,,,,,,,,,,,,,,,,,,,,,,,,,
,,,,,,,"If you think it is an existing Spanish word, you type '1' (for 'REAL'), and if you think it is not an existing Spanish word, you type '0' (for 'FAKE').", (press the spacebar to continue),5d79375d794d900017671c07,Spanish,13 or older,"yes, I am fluent in another language",no,2025-08-12_14h46.03.437,empathy_intonation_perc,2024.2.4,Win32,59.17159763,5d79375d794d900017671c07,687ed1b7e638a4cbf2f02089,689b8ba95a1a0cc058520639,,,,,,,,,,,,,,,,,,,,,,,,,,,,,,,,,,,,,,,,,,,,,,,,,,,516.6952,520.4752,0,1,1,1,1,,,,,,,,,,,,,,,,,,,,,,,,,,,,,,,,,,,,,,,,,,,,,,,,,
,,,,,,,"If you are sure that the word exists, even though you don’t know its exact meaning, you may still respond '1' (REAL). 
  
  But if you are not sure if it is an existing word, you should respond '0' (FAKE).
  
  Let's do a practice round...", (press the spacebar to continue),5d79375d794d900017671c07,Spanish,13 or older,"yes, I am fluent in another language",no,2025-08-12_14h46.03.437,empathy_intonation_perc,2024.2.4,Win32,59.17159763,5d79375d794d900017671c07,687ed1b7e638a4cbf2f02089,689b8ba95a1a0cc058520639,,,,,,,,,,,,,,,,,,,,,,,,,,,,,,,,,,,,,,,,,,,,,,,,,,,520.4781,528.3583,0,2,2,2,1,,,,,,,,,,,,,,,,,,,,,,,,,,,,,,,,,,,,,,,,,,,,,,,,,
,,,,,,,,,5d79375d794d900017671c07,Spanish,13 or older,"yes, I am fluent in another language",no,2025-08-12_14h46.03.437,empathy_intonation_perc,2024.2.4,Win32,59.17159763,5d79375d794d900017671c07,687ed1b7e638a4cbf2f02089,689b8ba95a1a0cc058520639,,,,,,,,,,,,,,0,,,,,,,,,,,,,,,,,,,,,,,,,,,,,,,,,,,,,,,,,,,,528.3641,531.625,0,1,2.727,,531.6254,532.6255,0,0,0,0,1,0,depiste,REAL,FAKE,,,,,,,,,,,,,,,,,,,,,,,,,,,,,,,,
,,,,,,,,,5d79375d794d900017671c07,Spanish,13 or older,"yes, I am fluent in another language",no,2025-08-12_14h46.03.437,empathy_intonation_perc,2024.2.4,Win32,59.17159763,5d79375d794d900017671c07,687ed1b7e638a4cbf2f02089,689b8ba95a1a0cc058520639,,,,,,,,,,,,,,1,,,,,,,,,,,,,,,,,,,,,,,,,,,,,,,,,,,,,,,,,,,,532.6281,534.8086,1,1,1.6333,,534.8088,535.8086,0,1,1,1,1,0,sí,REAL,FAKE,,,,,,,,,,,,,,,,,,,,,,,,,,,,,,,,
,,,,,,,,,5d79375d794d900017671c07,Spanish,13 or older,"yes, I am fluent in another language",no,2025-08-12_14h46.03.437,empathy_intonation_perc,2024.2.4,Win32,59.17159763,5d79375d794d900017671c07,687ed1b7e638a4cbf2f02089,689b8ba95a1a0cc058520639,,,,,,,,,,,,,,0,,,,,,,,,,,,,,,,,,,,,,,,,,,,,,,,,,,,,,,,,,,,535.8114,538.1916,1,0,1.8416,,538.1942,539.1918,0,2,2,2,1,0,coné,REAL,FAKE,,,,,,,,,,,,,,,,,,,,,,,,,,,,,,,,
,,,,,,,,,5d79375d794d900017671c07,Spanish,13 or older,"yes, I am fluent in another language",no,2025-08-12_14h46.03.437,empathy_intonation_perc,2024.2.4,Win32,59.17159763,5d79375d794d900017671c07,687ed1b7e638a4cbf2f02089,689b8ba95a1a0cc058520639,,,,,,,,,,,,,,0,,,,,,,,,,,,,,,,,,,,,,,,,,,,,,,,,,,,,,,,,,,,539.1943,541.5752,0,1,1.8443,,541.5775,542.5753,0,3,3,3,1,0,calpar,REAL,FAKE,,,,,,,,,,,,,,,,,,,,,,,,,,,,,,,,
,,,,,,,,,5d79375d794d900017671c07,Spanish,13 or older,"yes, I am fluent in another language",no,2025-08-12_14h46.03.437,empathy_intonation_perc,2024.2.4,Win32,59.17159763,5d79375d794d900017671c07,687ed1b7e638a4cbf2f02089,689b8ba95a1a0cc058520639,,,,,,,,,,,,,,0,,,,,,,,,,,,,,,,,,,,,,,,,,,,,,,,,,,,,,,,,,,,542.578,543.9759,0,1,0.8612,,543.9761,544.9756,0,4,4,4,1,0,joten,REAL,FAKE,,,,,,,,,,,,,,,,,,,,,,,,,,,,,,,,
,,,,,,,,,5d79375d794d900017671c07,Spanish,13 or older,"yes, I am fluent in another language",no,2025-08-12_14h46.03.437,empathy_intonation_perc,2024.2.4,Win32,59.17159763,5d79375d794d900017671c07,687ed1b7e638a4cbf2f02089,689b8ba95a1a0cc058520639,,,,,,,,,,,,,,1,,,,,,,,,,,,,,,,,,,,,,,,,,,,,,,,,,,,,,,,,,,,544.9781,547.1751,0,0,1.6503,,547.1772,548.1756,0,5,5,5,1,0,sacapuntas,REAL,FAKE,,,,,,,,,,,,,,,,,,,,,,,,,,,,,,,,
,,,,,,,,,5d79375d794d900017671c07,Spanish,13 or older,"yes, I am fluent in another language",no,2025-08-12_14h46.03.437,empathy_intonation_perc,2024.2.4,Win32,59.17159763,5d79375d794d900017671c07,687ed1b7e638a4cbf2f02089,689b8ba95a1a0cc058520639,,,,,,,,,,,,,,0,,,,,,,,,,,,,,,,,,,,,,,,,,,,,,,,,,,,,,,,,,,,548.1783,550.7252,0,1,2.0002,,550.7262,551.7258,0,6,6,6,1,0,priba,REAL,FAKE,,,,,,,,,,,,,,,,,,,,,,,,,,,,,,,,
,,,,,,,,,5d79375d794d900017671c07,Spanish,13 or older,"yes, I am fluent in another language",no,2025-08-12_14h46.03.437,empathy_intonation_perc,2024.2.4,Win32,59.17159763,5d79375d794d900017671c07,687ed1b7e638a4cbf2f02089,689b8ba95a1a0cc058520639,,,,,,,,,,,,,,0,,,,,,,,,,,,,,,,,,,,,,,,,,,,,,,,,,,,,,,,,,,,551.7284,554.7751,1,0,2.5077,,554.7761,555.7758,0,7,7,7,1,0,pelasula,REAL,FAKE,,,,,,,,,,,,,,,,,,,,,,,,,,,,,,,,
,,,,,,,,,5d79375d794d900017671c07,Spanish,13 or older,"yes, I am fluent in another language",no,2025-08-12_14h46.03.437,empathy_intonation_perc,2024.2.4,Win32,59.17159763,5d79375d794d900017671c07,687ed1b7e638a4cbf2f02089,689b8ba95a1a0cc058520639,,,,,,,,,,,,,,1,,,,,,,,,,,,,,,,,,,,,,,,,,,,,,,,,,,,,,,,,,,,555.778,557.9421,0,0,1.6274,,557.9423,558.9419,0,8,8,8,1,0,bien,REAL,FAKE,,,,,,,,,,,,,,,,,,,,,,,,,,,,,,,,
,,,,,,,,,5d79375d794d900017671c07,Spanish,13 or older,"yes, I am fluent in another language",no,2025-08-12_14h46.03.437,empathy_intonation_perc,2024.2.4,Win32,59.17159763,5d79375d794d900017671c07,687ed1b7e638a4cbf2f02089,689b8ba95a1a0cc058520639,,,,,,,,,,,,,,1,,,,,,,,,,,,,,,,,,,,,,,,,,,,,,,,,,,,,,,,,,,,558.9444,560.6919,1,1,1.2004,,560.694,561.6922,0,9,9,9,1,0,casa,REAL,FAKE,,,,,,,,,,,,,,,,,,,,,,,,,,,,,,,,
,,,,,,,,,5d79375d794d900017671c07,Spanish,13 or older,"yes, I am fluent in another language",no,2025-08-12_14h46.03.437,empathy_intonation_perc,2024.2.4,Win32,59.17159763,5d79375d794d900017671c07,687ed1b7e638a4cbf2f02089,689b8ba95a1a0cc058520639,,,,,,,,,,,,,,0,,,,,,,,,,,,,,,,,,,,,,,,,,,,,,,,,,,,,,,,,,,,561.6946,563.7083,1,0,1.477,,563.7102,564.7089,0,10,10,10,1,0,lejo,REAL,FAKE,,,,,,,,,,,,,,,,,,,,,,,,,,,,,,,,
,,,,,,,,,5d79375d794d900017671c07,Spanish,13 or older,"yes, I am fluent in another language",no,2025-08-12_14h46.03.437,empathy_intonation_perc,2024.2.4,Win32,59.17159763,5d79375d794d900017671c07,687ed1b7e638a4cbf2f02089,689b8ba95a1a0cc058520639,,,,,,,,,,,,,,0,,,,,,,,,,,,,,,,,,,,,,,,,,,,,,,,,,,,,,,,,,,,564.7112,566.5747,0,1,1.34,,566.5753,567.5747,0,11,11,11,1,0,pretantas,REAL,FAKE,,,,,,,,,,,,,,,,,,,,,,,,,,,,,,,,
,,,,,,,,,5d79375d794d900017671c07,Spanish,13 or older,"yes, I am fluent in another language",no,2025-08-12_14h46.03.437,empathy_intonation_perc,2024.2.4,Win32,59.17159763,5d79375d794d900017671c07,687ed1b7e638a4cbf2f02089,689b8ba95a1a0cc058520639,,,,,,,,,,,,,,,,,,,,,,,,,,,,,,,,,,,,,,,,,,,,,,,,,,,,,,,,,,,,,,,,,,,,,,,,,,,567.5751,569.5921,,,,,,,,,,,,,,,,,,,,,,,,,,,,,,
,,,,,,,,,5d79375d794d900017671c07,Spanish,13 or older,"yes, I am fluent in another language",no,2025-08-12_14h46.03.437,empathy_intonation_perc,2024.2.4,Win32,59.17159763,5d79375d794d900017671c07,687ed1b7e638a4cbf2f02089,689b8ba95a1a0cc058520639,,,,,,,,,,,,,,1,,,,,,,,,,,,,,,,,,,,,,,,,,,,,,,,,,,,,,,,,,,,,,,,,,,,,,,,,11,cenefa,,,,,569.6004,571.359,0,0,1.2176,,0,0,0,10,1,REAL,FAKE,,,,,,,,,,,,,,,,,
,,,,,,,,,5d79375d794d900017671c07,Spanish,13 or older,"yes, I am fluent in another language",no,2025-08-12_14h46.03.437,empathy_intonation_perc,2024.2.4,Win32,59.17159763,5d79375d794d900017671c07,687ed1b7e638a4cbf2f02089,689b8ba95a1a0cc058520639,,,,,,,,,,,,,,0,,,,,,,,,,,,,,,,,,,,,,,,,,,,,,,,,,,,,,,,,,,,,,,,,,,,,,,,,87,grodo,,,,,571.3615,572.8089,0,1,0.911,,0,1,1,86,1,REAL,FAKE,,,,,,,,,,,,,,,,,
,,,,,,,,,5d79375d794d900017671c07,Spanish,13 or older,"yes, I am fluent in another language",no,2025-08-12_14h46.03.437,empathy_intonation_perc,2024.2.4,Win32,59.17159763,5d79375d794d900017671c07,687ed1b7e638a4cbf2f02089,689b8ba95a1a0cc058520639,,,,,,,,,,,,,,1,,,,,,,,,,,,,,,,,,,,,,,,,,,,,,,,,,,,,,,,,,,,,,,,,,,,,,,,,20,ávido,,,,,572.8123,575.5417,1,1,2.1855,,0,2,2,19,1,REAL,FAKE,,,,,,,,,,,,,,,,,
,,,,,,,,,5d79375d794d900017671c07,Spanish,13 or older,"yes, I am fluent in another language",no,2025-08-12_14h46.03.437,empathy_intonation_perc,2024.2.4,Win32,59.17159763,5d79375d794d900017671c07,687ed1b7e638a4cbf2f02089,689b8ba95a1a0cc058520639,,,,,,,,,,,,,,1,,,,,,,,,,,,,,,,,,,,,,,,,,,,,,,,,,,,,,,,,,,,,,,,,,,,,,,,,36,loro,,,,,575.544,576.9087,0,0,0.8224,,0,3,3,35,1,REAL,FAKE,,,,,,,,,,,,,,,,,
,,,,,,,,,5d79375d794d900017671c07,Spanish,13 or older,"yes, I am fluent in another language",no,2025-08-12_14h46.03.437,empathy_intonation_perc,2024.2.4,Win32,59.17159763,5d79375d794d900017671c07,687ed1b7e638a4cbf2f02089,689b8ba95a1a0cc058520639,,,,,,,,,,,,,,0,,,,,,,,,,,,,,,,,,,,,,,,,,,,,,,,,,,,,,,,,,,,,,,,,,,,,,,,,16,abracer,,,,,576.9109,579.542,1,0,2.0841,,0,4,4,15,1,REAL,FAKE,,,,,,,,,,,,,,,,,
,,,,,,,,,5d79375d794d900017671c07,Spanish,13 or older,"yes, I am fluent in another language",no,2025-08-12_14h46.03.437,empathy_intonation_perc,2024.2.4,Win32,59.17159763,5d79375d794d900017671c07,687ed1b7e638a4cbf2f02089,689b8ba95a1a0cc058520639,,,,,,,,,,,,,,1,,,,,,,,,,,,,,,,,,,,,,,,,,,,,,,,,,,,,,,,,,,,,,,,,,,,,,,,,7,pésimo,,,,,579.5433,583.6585,0,0,3.5738,,0,5,5,6,1,REAL,FAKE,,,,,,,,,,,,,,,,,
,,,,,,,,,5d79375d794d900017671c07,Spanish,13 or older,"yes, I am fluent in another language",no,2025-08-12_14h46.03.437,empathy_intonation_perc,2024.2.4,Win32,59.17159763,5d79375d794d900017671c07,687ed1b7e638a4cbf2f02089,689b8ba95a1a0cc058520639,,,,,,,,,,,,,,0,,,,,,,,,,,,,,,,,,,,,,,,,,,,,,,,,,,,,,,,,,,,,,,,,,,,,,,,,32,fatacidad,,,,,583.6608,588.6089,0,1,4.4011,,0,6,6,31,1,REAL,FAKE,,,,,,,,,,,,,,,,,
,,,,,,,,,5d79375d794d900017671c07,Spanish,13 or older,"yes, I am fluent in another language",no,2025-08-12_14h46.03.437,empathy_intonation_perc,2024.2.4,Win32,59.17159763,5d79375d794d900017671c07,687ed1b7e638a4cbf2f02089,689b8ba95a1a0cc058520639,,,,,,,,,,,,,,1,,,,,,,,,,,,,,,,,,,,,,,,,,,,,,,,,,,,,,,,,,,,,,,,,,,,,,,,,13,helar,,,,,588.611,592.0256,1,1,2.8669,,0,7,7,12,1,REAL,FAKE,,,,,,,,,,,,,,,,,
,,,,,,,,,5d79375d794d900017671c07,Spanish,13 or older,"yes, I am fluent in another language",no,2025-08-12_14h46.03.437,empathy_intonation_perc,2024.2.4,Win32,59.17159763,5d79375d794d900017671c07,687ed1b7e638a4cbf2f02089,689b8ba95a1a0cc058520639,,,,,,,,,,,,,,1,,,,,,,,,,,,,,,,,,,,,,,,,,,,,,,,,,,,,,,,,,,,,,,,,,,,,,,,,12,asesinato,,,,,592.028,594.3253,0,0,1.7606,,0,8,8,11,1,REAL,FAKE,,,,,,,,,,,,,,,,,
,,,,,,,,,5d79375d794d900017671c07,Spanish,13 or older,"yes, I am fluent in another language",no,2025-08-12_14h46.03.437,empathy_intonation_perc,2024.2.4,Win32,59.17159763,5d79375d794d900017671c07,687ed1b7e638a4cbf2f02089,689b8ba95a1a0cc058520639,,,,,,,,,,,,,,1,,,,,,,,,,,,,,,,,,,,,,,,,,,,,,,,,,,,,,,,,,,,,,,,,,,,,,,,,52,camisa,,,,,594.3278,597.1249,1,1,2.2572,,0,9,9,51,1,REAL,FAKE,,,,,,,,,,,,,,,,,
,,,,,,,,,5d79375d794d900017671c07,Spanish,13 or older,"yes, I am fluent in another language",no,2025-08-12_14h46.03.437,empathy_intonation_perc,2024.2.4,Win32,59.17159763,5d79375d794d900017671c07,687ed1b7e638a4cbf2f02089,689b8ba95a1a0cc058520639,,,,,,,,,,,,,,1,,,,,,,,,,,,,,,,,,,,,,,,,,,,,,,,,,,,,,,,,,,,,,,,,,,,,,,,,41,rebuscar,,,,,597.1281,600.359,1,1,2.6833,,0,10,10,40,1,REAL,FAKE,,,,,,,,,,,,,,,,,
,,,,,,,,,5d79375d794d900017671c07,Spanish,13 or older,"yes, I am fluent in another language",no,2025-08-12_14h46.03.437,empathy_intonation_perc,2024.2.4,Win32,59.17159763,5d79375d794d900017671c07,687ed1b7e638a4cbf2f02089,689b8ba95a1a0cc058520639,,,,,,,,,,,,,,0,,,,,,,,,,,,,,,,,,,,,,,,,,,,,,,,,,,,,,,,,,,,,,,,,,,,,,,,,27,acutación,,,,,600.3616,603.8586,1,0,2.9503,,0,11,11,26,1,REAL,FAKE,,,,,,,,,,,,,,,,,
,,,,,,,,,5d79375d794d900017671c07,Spanish,13 or older,"yes, I am fluent in another language",no,2025-08-12_14h46.03.437,empathy_intonation_perc,2024.2.4,Win32,59.17159763,5d79375d794d900017671c07,687ed1b7e638a4cbf2f02089,689b8ba95a1a0cc058520639,,,,,,,,,,,,,,0,,,,,,,,,,,,,,,,,,,,,,,,,,,,,,,,,,,,,,,,,,,,,,,,,,,,,,,,,17,floroso,,,,,603.8611,607.6916,0,1,3.289,,0,12,12,16,1,REAL,FAKE,,,,,,,,,,,,,,,,,
,,,,,,,,,5d79375d794d900017671c07,Spanish,13 or older,"yes, I am fluent in another language",no,2025-08-12_14h46.03.437,empathy_intonation_perc,2024.2.4,Win32,59.17159763,5d79375d794d900017671c07,687ed1b7e638a4cbf2f02089,689b8ba95a1a0cc058520639,,,,,,,,,,,,,,0,,,,,,,,,,,,,,,,,,,,,,,,,,,,,,,,,,,,,,,,,,,,,,,,,,,,,,,,,50,flamida,,,,,607.6943,610.0257,0,1,1.7842,,0,13,13,49,1,REAL,FAKE,,,,,,,,,,,,,,,,,
,,,,,,,,,5d79375d794d900017671c07,Spanish,13 or older,"yes, I am fluent in another language",no,2025-08-12_14h46.03.437,empathy_intonation_perc,2024.2.4,Win32,59.17159763,5d79375d794d900017671c07,687ed1b7e638a4cbf2f02089,689b8ba95a1a0cc058520639,,,,,,,,,,,,,,1,,,,,,,,,,,,,,,,,,,,,,,,,,,,,,,,,,,,,,,,,,,,,,,,,,,,,,,,,31,pandilla,,,,,610.0278,614.8923,0,0,4.3177,,0,14,14,30,1,REAL,FAKE,,,,,,,,,,,,,,,,,
,,,,,,,,,5d79375d794d900017671c07,Spanish,13 or older,"yes, I am fluent in another language",no,2025-08-12_14h46.03.437,empathy_intonation_perc,2024.2.4,Win32,59.17159763,5d79375d794d900017671c07,687ed1b7e638a4cbf2f02089,689b8ba95a1a0cc058520639,,,,,,,,,,,,,,1,,,,,,,,,,,,,,,,,,,,,,,,,,,,,,,,,,,,,,,,,,,,,,,,,,,,,,,,,64,orgulloso,,,,,614.8942,617.3758,0,0,1.9334,,0,15,15,63,1,REAL,FAKE,,,,,,,,,,,,,,,,,
,,,,,,,,,5d79375d794d900017671c07,Spanish,13 or older,"yes, I am fluent in another language",no,2025-08-12_14h46.03.437,empathy_intonation_perc,2024.2.4,Win32,59.17159763,5d79375d794d900017671c07,687ed1b7e638a4cbf2f02089,689b8ba95a1a0cc058520639,,,,,,,,,,,,,,1,,,,,,,,,,,,,,,,,,,,,,,,,,,,,,,,,,,,,,,,,,,,,,,,,,,,,,,,,15,regar,,,,,617.3783,619.2264,1,1,1.3013,,0,16,16,14,1,REAL,FAKE,,,,,,,,,,,,,,,,,
,,,,,,,,,5d79375d794d900017671c07,Spanish,13 or older,"yes, I am fluent in another language",no,2025-08-12_14h46.03.437,empathy_intonation_perc,2024.2.4,Win32,59.17159763,5d79375d794d900017671c07,687ed1b7e638a4cbf2f02089,689b8ba95a1a0cc058520639,,,,,,,,,,,,,,0,,,,,,,,,,,,,,,,,,,,,,,,,,,,,,,,,,,,,,,,,,,,,,,,,,,,,,,,,35,rompido,,,,,619.228,621.3764,0,1,1.601,,0,17,17,34,1,REAL,FAKE,,,,,,,,,,,,,,,,,
,,,,,,,,,5d79375d794d900017671c07,Spanish,13 or older,"yes, I am fluent in another language",no,2025-08-12_14h46.03.437,empathy_intonation_perc,2024.2.4,Win32,59.17159763,5d79375d794d900017671c07,687ed1b7e638a4cbf2f02089,689b8ba95a1a0cc058520639,,,,,,,,,,,,,,1,,,,,,,,,,,,,,,,,,,,,,,,,,,,,,,,,,,,,,,,,,,,,,,,,,,,,,,,,48,ladrón,,,,,621.3781,623.2761,0,0,1.3522,,0,18,18,47,1,REAL,FAKE,,,,,,,,,,,,,,,,,
,,,,,,,,,5d79375d794d900017671c07,Spanish,13 or older,"yes, I am fluent in another language",no,2025-08-12_14h46.03.437,empathy_intonation_perc,2024.2.4,Win32,59.17159763,5d79375d794d900017671c07,687ed1b7e638a4cbf2f02089,689b8ba95a1a0cc058520639,,,,,,,,,,,,,,0,,,,,,,,,,,,,,,,,,,,,,,,,,,,,,,,,,,,,,,,,,,,,,,,,,,,,,,,,33,pauca,,,,,623.2778,625.4759,0,1,1.6522,,0,19,19,32,1,REAL,FAKE,,,,,,,,,,,,,,,,,
,,,,,,,,,5d79375d794d900017671c07,Spanish,13 or older,"yes, I am fluent in another language",no,2025-08-12_14h46.03.437,empathy_intonation_perc,2024.2.4,Win32,59.17159763,5d79375d794d900017671c07,687ed1b7e638a4cbf2f02089,689b8ba95a1a0cc058520639,,,,,,,,,,,,,,1,,,,,,,,,,,,,,,,,,,,,,,,,,,,,,,,,,,,,,,,,,,,,,,,,,,,,,,,,3,pulmones,,,,,625.4779,629.2925,1,1,3.2707,,0,20,20,2,1,REAL,FAKE,,,,,,,,,,,,,,,,,
,,,,,,,,,5d79375d794d900017671c07,Spanish,13 or older,"yes, I am fluent in another language",no,2025-08-12_14h46.03.437,empathy_intonation_perc,2024.2.4,Win32,59.17159763,5d79375d794d900017671c07,687ed1b7e638a4cbf2f02089,689b8ba95a1a0cc058520639,,,,,,,,,,,,,,1,,,,,,,,,,,,,,,,,,,,,,,,,,,,,,,,,,,,,,,,,,,,,,,,,,,,,,,,,76,atar,,,,,629.2944,631.1255,1,1,1.2839,,0,21,21,75,1,REAL,FAKE,,,,,,,,,,,,,,,,,
,,,,,,,,,5d79375d794d900017671c07,Spanish,13 or older,"yes, I am fluent in another language",no,2025-08-12_14h46.03.437,empathy_intonation_perc,2024.2.4,Win32,59.17159763,5d79375d794d900017671c07,687ed1b7e638a4cbf2f02089,689b8ba95a1a0cc058520639,,,,,,,,,,,,,,1,,,,,,,,,,,,,,,,,,,,,,,,,,,,,,,,,,,,,,,,,,,,,,,,,,,,,,,,,62,flaco,,,,,631.1275,633.659,1,1,2.0092,,0,22,22,61,1,REAL,FAKE,,,,,,,,,,,,,,,,,
,,,,,,,,,5d79375d794d900017671c07,Spanish,13 or older,"yes, I am fluent in another language",no,2025-08-12_14h46.03.437,empathy_intonation_perc,2024.2.4,Win32,59.17159763,5d79375d794d900017671c07,687ed1b7e638a4cbf2f02089,689b8ba95a1a0cc058520639,,,,,,,,,,,,,,1,,,,,,,,,,,,,,,,,,,,,,,,,,,,,,,,,,,,,,,,,,,,,,,,,,,,,,,,,9,hacha,,,,,633.6615,635.3259,1,1,1.117,,0,23,23,8,1,REAL,FAKE,,,,,,,,,,,,,,,,,
,,,,,,,,,5d79375d794d900017671c07,Spanish,13 or older,"yes, I am fluent in another language",no,2025-08-12_14h46.03.437,empathy_intonation_perc,2024.2.4,Win32,59.17159763,5d79375d794d900017671c07,687ed1b7e638a4cbf2f02089,689b8ba95a1a0cc058520639,,,,,,,,,,,,,,0,,,,,,,,,,,,,,,,,,,,,,,,,,,,,,,,,,,,,,,,,,,,,,,,,,,,,,,,,72,pemición,,,,,635.3284,640.9758,0,1,5.1021,,0,24,24,71,1,REAL,FAKE,,,,,,,,,,,,,,,,,
,,,,,,,,,5d79375d794d900017671c07,Spanish,13 or older,"yes, I am fluent in another language",no,2025-08-12_14h46.03.437,empathy_intonation_perc,2024.2.4,Win32,59.17159763,5d79375d794d900017671c07,687ed1b7e638a4cbf2f02089,689b8ba95a1a0cc058520639,,,,,,,,,,,,,,1,,,,,,,,,,,,,,,,,,,,,,,,,,,,,,,,,,,,,,,,,,,,,,,,,,,,,,,,,60,matar,,,,,640.9782,642.9925,0,0,1.4671,,0,25,25,59,1,REAL,FAKE,,,,,,,,,,,,,,,,,
,,,,,,,,,5d79375d794d900017671c07,Spanish,13 or older,"yes, I am fluent in another language",no,2025-08-12_14h46.03.437,empathy_intonation_perc,2024.2.4,Win32,59.17159763,5d79375d794d900017671c07,687ed1b7e638a4cbf2f02089,689b8ba95a1a0cc058520639,,,,,,,,,,,,,,1,,,,,,,,,,,,,,,,,,,,,,,,,,,,,,,,,,,,,,,,,,,,,,,,,,,,,,,,,54,fomentar,,,,,642.9944,645.076,0,0,1.5343,,0,26,26,53,1,REAL,FAKE,,,,,,,,,,,,,,,,,
,,,,,,,,,5d79375d794d900017671c07,Spanish,13 or older,"yes, I am fluent in another language",no,2025-08-12_14h46.03.437,empathy_intonation_perc,2024.2.4,Win32,59.17159763,5d79375d794d900017671c07,687ed1b7e638a4cbf2f02089,689b8ba95a1a0cc058520639,,,,,,,,,,,,,,1,,,,,,,,,,,,,,,,,,,,,,,,,,,,,,,,,,,,,,,,,,,,,,,,,,,,,,,,,68,alegre,,,,,645.0784,648.7921,0,0,3.176,,0,27,27,67,1,REAL,FAKE,,,,,,,,,,,,,,,,,
,,,,,,,,,5d79375d794d900017671c07,Spanish,13 or older,"yes, I am fluent in another language",no,2025-08-12_14h46.03.437,empathy_intonation_perc,2024.2.4,Win32,59.17159763,5d79375d794d900017671c07,687ed1b7e638a4cbf2f02089,689b8ba95a1a0cc058520639,,,,,,,,,,,,,,1,,,,,,,,,,,,,,,,,,,,,,,,,,,,,,,,,,,,,,,,,,,,,,,,,,,,,,,,,44,cuchara,,,,,648.7944,653.1926,1,1,3.8502,,0,28,28,43,1,REAL,FAKE,,,,,,,,,,,,,,,,,
,,,,,,,,,5d79375d794d900017671c07,Spanish,13 or older,"yes, I am fluent in another language",no,2025-08-12_14h46.03.437,empathy_intonation_perc,2024.2.4,Win32,59.17159763,5d79375d794d900017671c07,687ed1b7e638a4cbf2f02089,689b8ba95a1a0cc058520639,,,,,,,,,,,,,,1,,,,,,,,,,,,,,,,,,,,,,,,,,,,,,,,,,,,,,,,,,,,,,,,,,,,,,,,,71,polvoriento,,,,,653.1946,654.9424,0,0,1.205,,0,29,29,70,1,REAL,FAKE,,,,,,,,,,,,,,,,,
,,,,,,,,,5d79375d794d900017671c07,Spanish,13 or older,"yes, I am fluent in another language",no,2025-08-12_14h46.03.437,empathy_intonation_perc,2024.2.4,Win32,59.17159763,5d79375d794d900017671c07,687ed1b7e638a4cbf2f02089,689b8ba95a1a0cc058520639,,,,,,,,,,,,,,0,,,,,,,,,,,,,,,,,,,,,,,,,,,,,,,,,,,,,,,,,,,,,,,,,,,,,,,,,79,tropaje,,,,,654.9445,659.7086,1,0,4.2424,,0,30,30,78,1,REAL,FAKE,,,,,,,,,,,,,,,,,
,,,,,,,,,5d79375d794d900017671c07,Spanish,13 or older,"yes, I am fluent in another language",no,2025-08-12_14h46.03.437,empathy_intonation_perc,2024.2.4,Win32,59.17159763,5d79375d794d900017671c07,687ed1b7e638a4cbf2f02089,689b8ba95a1a0cc058520639,,,,,,,,,,,,,,1,,,,,,,,,,,,,,,,,,,,,,,,,,,,,,,,,,,,,,,,,,,,,,,,,,,,,,,,,91,click the 1 key.,,,,,659.7112,661.2753,1,1,1.026,,0,31,31,90,1,REAL,FAKE,,,,,,,,,,,,,,,,,
,,,,,,,,,5d79375d794d900017671c07,Spanish,13 or older,"yes, I am fluent in another language",no,2025-08-12_14h46.03.437,empathy_intonation_perc,2024.2.4,Win32,59.17159763,5d79375d794d900017671c07,687ed1b7e638a4cbf2f02089,689b8ba95a1a0cc058520639,,,,,,,,,,,,,,0,,,,,,,,,,,,,,,,,,,,,,,,,,,,,,,,,,,,,,,,,,,,,,,,,,,,,,,,,66,hacido,,,,,661.2778,664.0094,1,0,2.1903,,0,32,32,65,1,REAL,FAKE,,,,,,,,,,,,,,,,,
,,,,,,,,,5d79375d794d900017671c07,Spanish,13 or older,"yes, I am fluent in another language",no,2025-08-12_14h46.03.437,empathy_intonation_perc,2024.2.4,Win32,59.17159763,5d79375d794d900017671c07,687ed1b7e638a4cbf2f02089,689b8ba95a1a0cc058520639,,,,,,,,,,,,,,0,,,,,,,,,,,,,,,,,,,,,,,,,,,,,,,,,,,,,,,,,,,,,,,,,,,,,,,,,1,terzo,,,,,664.0121,665.8588,0,1,1.3034,,0,33,33,0,1,REAL,FAKE,,,,,,,,,,,,,,,,,
,,,,,,,,,5d79375d794d900017671c07,Spanish,13 or older,"yes, I am fluent in another language",no,2025-08-12_14h46.03.437,empathy_intonation_perc,2024.2.4,Win32,59.17159763,5d79375d794d900017671c07,687ed1b7e638a4cbf2f02089,689b8ba95a1a0cc058520639,,,,,,,,,,,,,,0,,,,,,,,,,,,,,,,,,,,,,,,,,,,,,,,,,,,,,,,,,,,,,,,,,,,,,,,,58,plaudir,,,,,665.8613,667.5255,0,1,1.1174,,0,34,34,57,1,REAL,FAKE,,,,,,,,,,,,,,,,,
,,,,,,,,,5d79375d794d900017671c07,Spanish,13 or older,"yes, I am fluent in another language",no,2025-08-12_14h46.03.437,empathy_intonation_perc,2024.2.4,Win32,59.17159763,5d79375d794d900017671c07,687ed1b7e638a4cbf2f02089,689b8ba95a1a0cc058520639,,,,,,,,,,,,,,1,,,,,,,,,,,,,,,,,,,,,,,,,,,,,,,,,,,,,,,,,,,,,,,,,,,,,,,,,51,candado,,,,,667.5283,671.1093,1,1,3.036,,0,35,35,50,1,REAL,FAKE,,,,,,,,,,,,,,,,,
,,,,,,,,,5d79375d794d900017671c07,Spanish,13 or older,"yes, I am fluent in another language",no,2025-08-12_14h46.03.437,empathy_intonation_perc,2024.2.4,Win32,59.17159763,5d79375d794d900017671c07,687ed1b7e638a4cbf2f02089,689b8ba95a1a0cc058520639,,,,,,,,,,,,,,1,,,,,,,,,,,,,,,,,,,,,,,,,,,,,,,,,,,,,,,,,,,,,,,,,,,,,,,,,67,cabello,,,,,671.1115,672.7089,1,1,1.0523,,0,36,36,66,1,REAL,FAKE,,,,,,,,,,,,,,,,,
,,,,,,,,,5d79375d794d900017671c07,Spanish,13 or older,"yes, I am fluent in another language",no,2025-08-12_14h46.03.437,empathy_intonation_perc,2024.2.4,Win32,59.17159763,5d79375d794d900017671c07,687ed1b7e638a4cbf2f02089,689b8ba95a1a0cc058520639,,,,,,,,,,,,,,1,,,,,,,,,,,,,,,,,,,,,,,,,,,,,,,,,,,,,,,,,,,,,,,,,,,,,,,,,34,aviso,,,,,672.7113,675.5925,0,0,2.3365,,0,37,37,33,1,REAL,FAKE,,,,,,,,,,,,,,,,,
,,,,,,,,,5d79375d794d900017671c07,Spanish,13 or older,"yes, I am fluent in another language",no,2025-08-12_14h46.03.437,empathy_intonation_perc,2024.2.4,Win32,59.17159763,5d79375d794d900017671c07,687ed1b7e638a4cbf2f02089,689b8ba95a1a0cc058520639,,,,,,,,,,,,,,1,,,,,,,,,,,,,,,,,,,,,,,,,,,,,,,,,,,,,,,,,,,,,,,,,,,,,,,,,6,tergiversar,,,,,675.5948,679.3088,0,0,3.1767,,0,38,38,5,1,REAL,FAKE,,,,,,,,,,,,,,,,,
,,,,,,,,,5d79375d794d900017671c07,Spanish,13 or older,"yes, I am fluent in another language",no,2025-08-12_14h46.03.437,empathy_intonation_perc,2024.2.4,Win32,59.17159763,5d79375d794d900017671c07,687ed1b7e638a4cbf2f02089,689b8ba95a1a0cc058520639,,,,,,,,,,,,,,0,,,,,,,,,,,,,,,,,,,,,,,,,,,,,,,,,,,,,,,,,,,,,,,,,,,,,,,,,70,temblo,,,,,679.3117,681.4259,0,1,1.5695,,0,39,39,69,1,REAL,FAKE,,,,,,,,,,,,,,,,,
,,,,,,,,,5d79375d794d900017671c07,Spanish,13 or older,"yes, I am fluent in another language",no,2025-08-12_14h46.03.437,empathy_intonation_perc,2024.2.4,Win32,59.17159763,5d79375d794d900017671c07,687ed1b7e638a4cbf2f02089,689b8ba95a1a0cc058520639,,,,,,,,,,,,,,1,,,,,,,,,,,,,,,,,,,,,,,,,,,,,,,,,,,,,,,,,,,,,,,,,,,,,,,,,85,laúd,,,,,681.4284,684.5757,0,0,2.6018,,0,40,40,84,1,REAL,FAKE,,,,,,,,,,,,,,,,,
,,,,,,,,,5d79375d794d900017671c07,Spanish,13 or older,"yes, I am fluent in another language",no,2025-08-12_14h46.03.437,empathy_intonation_perc,2024.2.4,Win32,59.17159763,5d79375d794d900017671c07,687ed1b7e638a4cbf2f02089,689b8ba95a1a0cc058520639,,,,,,,,,,,,,,0,,,,,,,,,,,,,,,,,,,,,,,,,,,,,,,,,,,,,,,,,,,,,,,,,,,,,,,,,19,brecedad,,,,,684.5785,688.8095,0,1,3.6902,,0,41,41,18,1,REAL,FAKE,,,,,,,,,,,,,,,,,
,,,,,,,,,5d79375d794d900017671c07,Spanish,13 or older,"yes, I am fluent in another language",no,2025-08-12_14h46.03.437,empathy_intonation_perc,2024.2.4,Win32,59.17159763,5d79375d794d900017671c07,687ed1b7e638a4cbf2f02089,689b8ba95a1a0cc058520639,,,,,,,,,,,,,,1,,,,,,,,,,,,,,,,,,,,,,,,,,,,,,,,,,,,,,,,,,,,,,,,,,,,,,,,,78,frondoso,,,,,688.8118,690.6254,0,0,1.2673,,0,42,42,77,1,REAL,FAKE,,,,,,,,,,,,,,,,,
,,,,,,,,,5d79375d794d900017671c07,Spanish,13 or older,"yes, I am fluent in another language",no,2025-08-12_14h46.03.437,empathy_intonation_perc,2024.2.4,Win32,59.17159763,5d79375d794d900017671c07,687ed1b7e638a4cbf2f02089,689b8ba95a1a0cc058520639,,,,,,,,,,,,,,1,,,,,,,,,,,,,,,,,,,,,,,,,,,,,,,,,,,,,,,,,,,,,,,,,,,,,,,,,25,bisagra,,,,,690.6281,692.0593,0,0,0.903,,0,43,43,24,1,REAL,FAKE,,,,,,,,,,,,,,,,,
,,,,,,,,,5d79375d794d900017671c07,Spanish,13 or older,"yes, I am fluent in another language",no,2025-08-12_14h46.03.437,empathy_intonation_perc,2024.2.4,Win32,59.17159763,5d79375d794d900017671c07,687ed1b7e638a4cbf2f02089,689b8ba95a1a0cc058520639,,,,,,,,,,,,,,1,,,,,,,,,,,,,,,,,,,,,,,,,,,,,,,,,,,,,,,,,,,,,,,,,,,,,,,,,59,besar,,,,,692.0609,693.6923,1,1,1.0897,,0,44,44,58,1,REAL,FAKE,,,,,,,,,,,,,,,,,
,,,,,,,,,5d79375d794d900017671c07,Spanish,13 or older,"yes, I am fluent in another language",no,2025-08-12_14h46.03.437,empathy_intonation_perc,2024.2.4,Win32,59.17159763,5d79375d794d900017671c07,687ed1b7e638a4cbf2f02089,689b8ba95a1a0cc058520639,,,,,,,,,,,,,,0,,,,,,,,,,,,,,,,,,,,,,,,,,,,,,,,,,,,,,,,,,,,,,,,,,,,,,,,,53,vegada,,,,,693.6946,697.2757,0,1,3.0399,,0,45,45,52,1,REAL,FAKE,,,,,,,,,,,,,,,,,
,,,,,,,,,5d79375d794d900017671c07,Spanish,13 or older,"yes, I am fluent in another language",no,2025-08-12_14h46.03.437,empathy_intonation_perc,2024.2.4,Win32,59.17159763,5d79375d794d900017671c07,687ed1b7e638a4cbf2f02089,689b8ba95a1a0cc058520639,,,,,,,,,,,,,,0,,,,,,,,,,,,,,,,,,,,,,,,,,,,,,,,,,,,,,,,,,,,,,,,,,,,,,,,,10,antar,,,,,697.2785,698.6261,1,0,0.8046,,0,46,46,9,1,REAL,FAKE,,,,,,,,,,,,,,,,,
,,,,,,,,,5d79375d794d900017671c07,Spanish,13 or older,"yes, I am fluent in another language",no,2025-08-12_14h46.03.437,empathy_intonation_perc,2024.2.4,Win32,59.17159763,5d79375d794d900017671c07,687ed1b7e638a4cbf2f02089,689b8ba95a1a0cc058520639,,,,,,,,,,,,,,1,,,,,,,,,,,,,,,,,,,,,,,,,,,,,,,,,,,,,,,,,,,,,,,,,,,,,,,,,75,yacer,,,,,698.6285,700.4422,0,0,1.2743,,0,47,47,74,1,REAL,FAKE,,,,,,,,,,,,,,,,,
,,,,,,,,,5d79375d794d900017671c07,Spanish,13 or older,"yes, I am fluent in another language",no,2025-08-12_14h46.03.437,empathy_intonation_perc,2024.2.4,Win32,59.17159763,5d79375d794d900017671c07,687ed1b7e638a4cbf2f02089,689b8ba95a1a0cc058520639,,,,,,,,,,,,,,0,,,,,,,,,,,,,,,,,,,,,,,,,,,,,,,,,,,,,,,,,,,,,,,,,,,,,,,,,30,alardio,,,,,700.4445,702.5925,0,1,1.6012,,0,48,48,29,1,REAL,FAKE,,,,,,,,,,,,,,,,,
,,,,,,,,,5d79375d794d900017671c07,Spanish,13 or older,"yes, I am fluent in another language",no,2025-08-12_14h46.03.437,empathy_intonation_perc,2024.2.4,Win32,59.17159763,5d79375d794d900017671c07,687ed1b7e638a4cbf2f02089,689b8ba95a1a0cc058520639,,,,,,,,,,,,,,1,,,,,,,,,,,,,,,,,,,,,,,,,,,,,,,,,,,,,,,,,,,,,,,,,,,,,,,,,56,musgo,,,,,702.5944,703.9756,0,0,0.8423,,0,49,49,55,1,REAL,FAKE,,,,,,,,,,,,,,,,,
,,,,,,,,,5d79375d794d900017671c07,Spanish,13 or older,"yes, I am fluent in another language",no,2025-08-12_14h46.03.437,empathy_intonation_perc,2024.2.4,Win32,59.17159763,5d79375d794d900017671c07,687ed1b7e638a4cbf2f02089,689b8ba95a1a0cc058520639,,,,,,,,,,,,,,1,,,,,,,,,,,,,,,,,,,,,,,,,,,,,,,,,,,,,,,,,,,,,,,,,,,,,,,,,14,yunque,,,,,703.9777,705.876,0,0,1.3499,,0,50,50,13,1,REAL,FAKE,,,,,,,,,,,,,,,,,
,,,,,,,,,5d79375d794d900017671c07,Spanish,13 or older,"yes, I am fluent in another language",no,2025-08-12_14h46.03.437,empathy_intonation_perc,2024.2.4,Win32,59.17159763,5d79375d794d900017671c07,687ed1b7e638a4cbf2f02089,689b8ba95a1a0cc058520639,,,,,,,,,,,,,,0,,,,,,,,,,,,,,,,,,,,,,,,,,,,,,,,,,,,,,,,,,,,,,,,,,,,,,,,,8,cadeña,,,,,705.8786,708.8427,1,0,2.4168,,0,51,51,7,1,REAL,FAKE,,,,,,,,,,,,,,,,,
,,,,,,,,,5d79375d794d900017671c07,Spanish,13 or older,"yes, I am fluent in another language",no,2025-08-12_14h46.03.437,empathy_intonation_perc,2024.2.4,Win32,59.17159763,5d79375d794d900017671c07,687ed1b7e638a4cbf2f02089,689b8ba95a1a0cc058520639,,,,,,,,,,,,,,1,,,,,,,,,,,,,,,,,,,,,,,,,,,,,,,,,,,,,,,,,,,,,,,,,,,,,,,,,38,estornudar,,,,,708.8451,710.8423,1,1,1.4568,,0,52,52,37,1,REAL,FAKE,,,,,,,,,,,,,,,,,
,,,,,,,,,5d79375d794d900017671c07,Spanish,13 or older,"yes, I am fluent in another language",no,2025-08-12_14h46.03.437,empathy_intonation_perc,2024.2.4,Win32,59.17159763,5d79375d794d900017671c07,687ed1b7e638a4cbf2f02089,689b8ba95a1a0cc058520639,,,,,,,,,,,,,,0,,,,,,,,,,,,,,,,,,,,,,,,,,,,,,,,,,,,,,,,,,,,,,,,,,,,,,,,,29,decar,,,,,710.845,713.5257,0,1,2.1344,,0,53,53,28,1,REAL,FAKE,,,,,,,,,,,,,,,,,
,,,,,,,,,5d79375d794d900017671c07,Spanish,13 or older,"yes, I am fluent in another language",no,2025-08-12_14h46.03.437,empathy_intonation_perc,2024.2.4,Win32,59.17159763,5d79375d794d900017671c07,687ed1b7e638a4cbf2f02089,689b8ba95a1a0cc058520639,,,,,,,,,,,,,,0,,,,,,,,,,,,,,,,,,,,,,,,,,,,,,,,,,,,,,,,,,,,,,,,,,,,,,,,,18,arsa,,,,,713.5281,714.9758,0,1,0.9007,,0,54,54,17,1,REAL,FAKE,,,,,,,,,,,,,,,,,
,,,,,,,,,5d79375d794d900017671c07,Spanish,13 or older,"yes, I am fluent in another language",no,2025-08-12_14h46.03.437,empathy_intonation_perc,2024.2.4,Win32,59.17159763,5d79375d794d900017671c07,687ed1b7e638a4cbf2f02089,689b8ba95a1a0cc058520639,,,,,,,,,,,,,,1,,,,,,,,,,,,,,,,,,,,,,,,,,,,,,,,,,,,,,,,,,,,,,,,,,,,,,,,,43,canela,,,,,714.9781,716.7753,0,0,1.26,,0,55,55,42,1,REAL,FAKE,,,,,,,,,,,,,,,,,
,,,,,,,,,5d79375d794d900017671c07,Spanish,13 or older,"yes, I am fluent in another language",no,2025-08-12_14h46.03.437,empathy_intonation_perc,2024.2.4,Win32,59.17159763,5d79375d794d900017671c07,687ed1b7e638a4cbf2f02089,689b8ba95a1a0cc058520639,,,,,,,,,,,,,,0,,,,,,,,,,,,,,,,,,,,,,,,,,,,,,,,,,,,,,,,,,,,,,,,,,,,,,,,,47,cartinar,,,,,716.7766,719.8255,1,0,2.5226,,0,56,56,46,1,REAL,FAKE,,,,,,,,,,,,,,,,,
,,,,,,,,,5d79375d794d900017671c07,Spanish,13 or older,"yes, I am fluent in another language",no,2025-08-12_14h46.03.437,empathy_intonation_perc,2024.2.4,Win32,59.17159763,5d79375d794d900017671c07,687ed1b7e638a4cbf2f02089,689b8ba95a1a0cc058520639,,,,,,,,,,,,,,0,,,,,,,,,,,,,,,,,,,,,,,,,,,,,,,,,,,,,,,,,,,,,,,,,,,,,,,,,23,lampera,,,,,719.8272,724.9426,1,0,4.5675,,0,57,57,22,1,REAL,FAKE,,,,,,,,,,,,,,,,,
,,,,,,,,,5d79375d794d900017671c07,Spanish,13 or older,"yes, I am fluent in another language",no,2025-08-12_14h46.03.437,empathy_intonation_perc,2024.2.4,Win32,59.17159763,5d79375d794d900017671c07,687ed1b7e638a4cbf2f02089,689b8ba95a1a0cc058520639,,,,,,,,,,,,,,1,,,,,,,,,,,,,,,,,,,,,,,,,,,,,,,,,,,,,,,,,,,,,,,,,,,,,,,,,39,torpe,,,,,724.9448,726.6922,0,0,1.2002,,0,58,58,38,1,REAL,FAKE,,,,,,,,,,,,,,,,,
,,,,,,,,,5d79375d794d900017671c07,Spanish,13 or older,"yes, I am fluent in another language",no,2025-08-12_14h46.03.437,empathy_intonation_perc,2024.2.4,Win32,59.17159763,5d79375d794d900017671c07,687ed1b7e638a4cbf2f02089,689b8ba95a1a0cc058520639,,,,,,,,,,,,,,0,,,,,,,,,,,,,,,,,,,,,,,,,,,,,,,,,,,,,,,,,,,,,,,,,,,,,,,,,74,cintro,,,,,726.6944,729.9761,0,1,2.736,,0,59,59,73,1,REAL,FAKE,,,,,,,,,,,,,,,,,
,,,,,,,,,5d79375d794d900017671c07,Spanish,13 or older,"yes, I am fluent in another language",no,2025-08-12_14h46.03.437,empathy_intonation_perc,2024.2.4,Win32,59.17159763,5d79375d794d900017671c07,687ed1b7e638a4cbf2f02089,689b8ba95a1a0cc058520639,,,,,,,,,,,,,,1,,,,,,,,,,,,,,,,,,,,,,,,,,,,,,,,,,,,,,,,,,,,,,,,,,,,,,,,,80,hormiga,,,,,729.9784,731.5756,0,0,1.05,,0,60,60,79,1,REAL,FAKE,,,,,,,,,,,,,,,,,
,,,,,,,,,5d79375d794d900017671c07,Spanish,13 or older,"yes, I am fluent in another language",no,2025-08-12_14h46.03.437,empathy_intonation_perc,2024.2.4,Win32,59.17159763,5d79375d794d900017671c07,687ed1b7e638a4cbf2f02089,689b8ba95a1a0cc058520639,,,,,,,,,,,,,,1,,,,,,,,,,,,,,,,,,,,,,,,,,,,,,,,,,,,,,,,,,,,,,,,,,,,,,,,,5,zapato,,,,,731.578,733.2925,1,1,1.1728,,0,61,61,4,1,REAL,FAKE,,,,,,,,,,,,,,,,,
,,,,,,,,,5d79375d794d900017671c07,Spanish,13 or older,"yes, I am fluent in another language",no,2025-08-12_14h46.03.437,empathy_intonation_perc,2024.2.4,Win32,59.17159763,5d79375d794d900017671c07,687ed1b7e638a4cbf2f02089,689b8ba95a1a0cc058520639,,,,,,,,,,,,,,1,,,,,,,,,,,,,,,,,,,,,,,,,,,,,,,,,,,,,,,,,,,,,,,,,,,,,,,,,22,lacayo,,,,,733.2947,734.7924,0,0,0.9505,,0,62,62,21,1,REAL,FAKE,,,,,,,,,,,,,,,,,
,,,,,,,,,5d79375d794d900017671c07,Spanish,13 or older,"yes, I am fluent in another language",no,2025-08-12_14h46.03.437,empathy_intonation_perc,2024.2.4,Win32,59.17159763,5d79375d794d900017671c07,687ed1b7e638a4cbf2f02089,689b8ba95a1a0cc058520639,,,,,,,,,,,,,,1,,,,,,,,,,,,,,,,,,,,,,,,,,,,,,,,,,,,,,,,,,,,,,,,,,,,,,,,,69,engatusar,,,,,734.7941,738.0423,1,1,2.7103,,0,63,63,68,1,REAL,FAKE,,,,,,,,,,,,,,,,,
,,,,,,,,,5d79375d794d900017671c07,Spanish,13 or older,"yes, I am fluent in another language",no,2025-08-12_14h46.03.437,empathy_intonation_perc,2024.2.4,Win32,59.17159763,5d79375d794d900017671c07,687ed1b7e638a4cbf2f02089,689b8ba95a1a0cc058520639,,,,,,,,,,,,,,1,,,,,,,,,,,,,,,,,,,,,,,,,,,,,,,,,,,,,,,,,,,,,,,,,,,,,,,,,77,tiburón,,,,,738.0451,740.8094,0,0,2.2207,,0,64,64,76,1,REAL,FAKE,,,,,,,,,,,,,,,,,
,,,,,,,,,5d79375d794d900017671c07,Spanish,13 or older,"yes, I am fluent in another language",no,2025-08-12_14h46.03.437,empathy_intonation_perc,2024.2.4,Win32,59.17159763,5d79375d794d900017671c07,687ed1b7e638a4cbf2f02089,689b8ba95a1a0cc058520639,,,,,,,,,,,,,,0,,,,,,,,,,,,,,,,,,,,,,,,,,,,,,,,,,,,,,,,,,,,,,,,,,,,,,,,,4,batillón,,,,,740.8117,745.8597,0,1,4.5035,,0,65,65,3,1,REAL,FAKE,,,,,,,,,,,,,,,,,
,,,,,,,,,5d79375d794d900017671c07,Spanish,13 or older,"yes, I am fluent in another language",no,2025-08-12_14h46.03.437,empathy_intonation_perc,2024.2.4,Win32,59.17159763,5d79375d794d900017671c07,687ed1b7e638a4cbf2f02089,689b8ba95a1a0cc058520639,,,,,,,,,,,,,,1,,,,,,,,,,,,,,,,,,,,,,,,,,,,,,,,,,,,,,,,,,,,,,,,,,,,,,,,,24,látigo,,,,,745.8621,747.5429,0,0,1.1442,,0,66,66,23,1,REAL,FAKE,,,,,,,,,,,,,,,,,
,,,,,,,,,5d79375d794d900017671c07,Spanish,13 or older,"yes, I am fluent in another language",no,2025-08-12_14h46.03.437,empathy_intonation_perc,2024.2.4,Win32,59.17159763,5d79375d794d900017671c07,687ed1b7e638a4cbf2f02089,689b8ba95a1a0cc058520639,,,,,,,,,,,,,,1,,,,,,,,,,,,,,,,,,,,,,,,,,,,,,,,,,,,,,,,,,,,,,,,,,,,,,,,,86,barato,,,,,747.5452,750.509,0,0,2.4244,,0,67,67,85,1,REAL,FAKE,,,,,,,,,,,,,,,,,
,,,,,,,,,5d79375d794d900017671c07,Spanish,13 or older,"yes, I am fluent in another language",no,2025-08-12_14h46.03.437,empathy_intonation_perc,2024.2.4,Win32,59.17159763,5d79375d794d900017671c07,687ed1b7e638a4cbf2f02089,689b8ba95a1a0cc058520639,,,,,,,,,,,,,,0,,,,,,,,,,,,,,,,,,,,,,,,,,,,,,,,,,,,,,,,,,,,,,,,,,,,,,,,,92,click the 0 key.,,,,,750.5113,752.1987,0,1,1.1501,,0,68,68,91,1,REAL,FAKE,,,,,,,,,,,,,,,,,
,,,,,,,,,5d79375d794d900017671c07,Spanish,13 or older,"yes, I am fluent in another language",no,2025-08-12_14h46.03.437,empathy_intonation_perc,2024.2.4,Win32,59.17159763,5d79375d794d900017671c07,687ed1b7e638a4cbf2f02089,689b8ba95a1a0cc058520639,,,,,,,,,,,,,,1,,,,,,,,,,,,,,,,,,,,,,,,,,,,,,,,,,,,,,,,,,,,,,,,,,,,,,,,,83,guante,,,,,752.1994,756.5761,1,1,3.8368,,0,69,69,82,1,REAL,FAKE,,,,,,,,,,,,,,,,,
,,,,,,,,,5d79375d794d900017671c07,Spanish,13 or older,"yes, I am fluent in another language",no,2025-08-12_14h46.03.437,empathy_intonation_perc,2024.2.4,Win32,59.17159763,5d79375d794d900017671c07,687ed1b7e638a4cbf2f02089,689b8ba95a1a0cc058520639,,,,,,,,,,,,,,1,,,,,,,,,,,,,,,,,,,,,,,,,,,,,,,,,,,,,,,,,,,,,,,,,,,,,,,,,45,jilguero,,,,,756.5784,758.2756,0,0,1.16,,0,70,70,44,1,REAL,FAKE,,,,,,,,,,,,,,,,,
,,,,,,,,,5d79375d794d900017671c07,Spanish,13 or older,"yes, I am fluent in another language",no,2025-08-12_14h46.03.437,empathy_intonation_perc,2024.2.4,Win32,59.17159763,5d79375d794d900017671c07,687ed1b7e638a4cbf2f02089,689b8ba95a1a0cc058520639,,,,,,,,,,,,,,1,,,,,,,,,,,,,,,,,,,,,,,,,,,,,,,,,,,,,,,,,,,,,,,,,,,,,,,,,88,acantilado,,,,,758.277,763.0093,1,1,4.2058,,0,71,71,87,1,REAL,FAKE,,,,,,,,,,,,,,,,,
,,,,,,,,,5d79375d794d900017671c07,Spanish,13 or older,"yes, I am fluent in another language",no,2025-08-12_14h46.03.437,empathy_intonation_perc,2024.2.4,Win32,59.17159763,5d79375d794d900017671c07,687ed1b7e638a4cbf2f02089,689b8ba95a1a0cc058520639,,,,,,,,,,,,,,1,,,,,,,,,,,,,,,,,,,,,,,,,,,,,,,,,,,,,,,,,,,,,,,,,,,,,,,,,65,bizcocho,,,,,763.0113,764.3761,0,0,0.8386,,0,72,72,64,1,REAL,FAKE,,,,,,,,,,,,,,,,,
,,,,,,,,,5d79375d794d900017671c07,Spanish,13 or older,"yes, I am fluent in another language",no,2025-08-12_14h46.03.437,empathy_intonation_perc,2024.2.4,Win32,59.17159763,5d79375d794d900017671c07,687ed1b7e638a4cbf2f02089,689b8ba95a1a0cc058520639,,,,,,,,,,,,,,1,,,,,,,,,,,,,,,,,,,,,,,,,,,,,,,,,,,,,,,,,,,,,,,,,,,,,,,,,90,clavel,,,,,764.378,765.8758,0,0,0.9595,,0,73,73,89,1,REAL,FAKE,,,,,,,,,,,,,,,,,
,,,,,,,,,5d79375d794d900017671c07,Spanish,13 or older,"yes, I am fluent in another language",no,2025-08-12_14h46.03.437,empathy_intonation_perc,2024.2.4,Win32,59.17159763,5d79375d794d900017671c07,687ed1b7e638a4cbf2f02089,689b8ba95a1a0cc058520639,,,,,,,,,,,,,,1,,,,,,,,,,,,,,,,,,,,,,,,,,,,,,,,,,,,,,,,,,,,,,,,,,,,,,,,,37,granuja,,,,,765.8782,768.9262,0,0,2.5211,,0,74,74,36,1,REAL,FAKE,,,,,,,,,,,,,,,,,
,,,,,,,,,5d79375d794d900017671c07,Spanish,13 or older,"yes, I am fluent in another language",no,2025-08-12_14h46.03.437,empathy_intonation_perc,2024.2.4,Win32,59.17159763,5d79375d794d900017671c07,687ed1b7e638a4cbf2f02089,689b8ba95a1a0cc058520639,,,,,,,,,,,,,,1,,,,,,,,,,,,,,,,,,,,,,,,,,,,,,,,,,,,,,,,,,,,,,,,,,,,,,,,,81,pozo,,,,,768.9284,770.376,0,0,0.9042,,0,75,75,80,1,REAL,FAKE,,,,,,,,,,,,,,,,,
,,,,,,,,,5d79375d794d900017671c07,Spanish,13 or older,"yes, I am fluent in another language",no,2025-08-12_14h46.03.437,empathy_intonation_perc,2024.2.4,Win32,59.17159763,5d79375d794d900017671c07,687ed1b7e638a4cbf2f02089,689b8ba95a1a0cc058520639,,,,,,,,,,,,,,1,,,,,,,,,,,,,,,,,,,,,,,,,,,,,,,,,,,,,,,,,,,,,,,,,,,,,,,,,55,nevar,,,,,770.3781,772.6926,1,1,1.7868,,0,76,76,54,1,REAL,FAKE,,,,,,,,,,,,,,,,,
,,,,,,,,,5d79375d794d900017671c07,Spanish,13 or older,"yes, I am fluent in another language",no,2025-08-12_14h46.03.437,empathy_intonation_perc,2024.2.4,Win32,59.17159763,5d79375d794d900017671c07,687ed1b7e638a4cbf2f02089,689b8ba95a1a0cc058520639,,,,,,,,,,,,,,1,,,,,,,,,,,,,,,,,,,,,,,,,,,,,,,,,,,,,,,,,,,,,,,,,,,,,,,,,61,seda,,,,,772.6949,775.4092,0,0,2.1748,,0,77,77,60,1,REAL,FAKE,,,,,,,,,,,,,,,,,
,,,,,,,,,5d79375d794d900017671c07,Spanish,13 or older,"yes, I am fluent in another language",no,2025-08-12_14h46.03.437,empathy_intonation_perc,2024.2.4,Win32,59.17159763,5d79375d794d900017671c07,687ed1b7e638a4cbf2f02089,689b8ba95a1a0cc058520639,,,,,,,,,,,,,,1,,,,,,,,,,,,,,,,,,,,,,,,,,,,,,,,,,,,,,,,,,,,,,,,,,,,,,,,,49,ganar,,,,,775.411,777.7597,0,0,1.8005,,0,78,78,48,1,REAL,FAKE,,,,,,,,,,,,,,,,,
,,,,,,,,,5d79375d794d900017671c07,Spanish,13 or older,"yes, I am fluent in another language",no,2025-08-12_14h46.03.437,empathy_intonation_perc,2024.2.4,Win32,59.17159763,5d79375d794d900017671c07,687ed1b7e638a4cbf2f02089,689b8ba95a1a0cc058520639,,,,,,,,,,,,,,0,,,,,,,,,,,,,,,,,,,,,,,,,,,,,,,,,,,,,,,,,,,,,,,,,,,,,,,,,84,escuto,,,,,777.7626,779.3927,1,0,1.0839,,0,79,79,83,1,REAL,FAKE,,,,,,,,,,,,,,,,,
,,,,,,,,,5d79375d794d900017671c07,Spanish,13 or older,"yes, I am fluent in another language",no,2025-08-12_14h46.03.437,empathy_intonation_perc,2024.2.4,Win32,59.17159763,5d79375d794d900017671c07,687ed1b7e638a4cbf2f02089,689b8ba95a1a0cc058520639,,,,,,,,,,,,,,0,,,,,,,,,,,,,,,,,,,,,,,,,,,,,,,,,,,,,,,,,,,,,,,,,,,,,,,,,21,capillo,,,,,779.395,781.5425,1,0,1.6015,,0,80,80,20,1,REAL,FAKE,,,,,,,,,,,,,,,,,
,,,,,,,,,5d79375d794d900017671c07,Spanish,13 or older,"yes, I am fluent in another language",no,2025-08-12_14h46.03.437,empathy_intonation_perc,2024.2.4,Win32,59.17159763,5d79375d794d900017671c07,687ed1b7e638a4cbf2f02089,689b8ba95a1a0cc058520639,,,,,,,,,,,,,,0,,,,,,,,,,,,,,,,,,,,,,,,,,,,,,,,,,,,,,,,,,,,,,,,,,,,,,,,,63,esposante,,,,,781.5448,783.5595,1,0,1.4749,,0,81,81,62,1,REAL,FAKE,,,,,,,,,,,,,,,,,
,,,,,,,,,5d79375d794d900017671c07,Spanish,13 or older,"yes, I am fluent in another language",no,2025-08-12_14h46.03.437,empathy_intonation_perc,2024.2.4,Win32,59.17159763,5d79375d794d900017671c07,687ed1b7e638a4cbf2f02089,689b8ba95a1a0cc058520639,,,,,,,,,,,,,,1,,,,,,,,,,,,,,,,,,,,,,,,,,,,,,,,,,,,,,,,,,,,,,,,,,,,,,,,,2,pellizcar,,,,,783.5616,786.4099,0,0,2.3003,,0,82,82,1,1,REAL,FAKE,,,,,,,,,,,,,,,,,
,,,,,,,,,5d79375d794d900017671c07,Spanish,13 or older,"yes, I am fluent in another language",no,2025-08-12_14h46.03.437,empathy_intonation_perc,2024.2.4,Win32,59.17159763,5d79375d794d900017671c07,687ed1b7e638a4cbf2f02089,689b8ba95a1a0cc058520639,,,,,,,,,,,,,,1,,,,,,,,,,,,,,,,,,,,,,,,,,,,,,,,,,,,,,,,,,,,,,,,,,,,,,,,,57,tacaño,,,,,786.4124,788.793,1,1,1.834,,0,83,83,56,1,REAL,FAKE,,,,,,,,,,,,,,,,,
,,,,,,,,,5d79375d794d900017671c07,Spanish,13 or older,"yes, I am fluent in another language",no,2025-08-12_14h46.03.437,empathy_intonation_perc,2024.2.4,Win32,59.17159763,5d79375d794d900017671c07,687ed1b7e638a4cbf2f02089,689b8ba95a1a0cc058520639,,,,,,,,,,,,,,1,,,,,,,,,,,,,,,,,,,,,,,,,,,,,,,,,,,,,,,,,,,,,,,,,,,,,,,,,28,merodear,,,,,788.7945,791.8423,0,0,2.5066,,0,84,84,27,1,REAL,FAKE,,,,,,,,,,,,,,,,,
,,,,,,,,,5d79375d794d900017671c07,Spanish,13 or older,"yes, I am fluent in another language",no,2025-08-12_14h46.03.437,empathy_intonation_perc,2024.2.4,Win32,59.17159763,5d79375d794d900017671c07,687ed1b7e638a4cbf2f02089,689b8ba95a1a0cc058520639,,,,,,,,,,,,,,1,,,,,,,,,,,,,,,,,,,,,,,,,,,,,,,,,,,,,,,,,,,,,,,,,,,,,,,,,46,martillo,,,,,791.8439,794.1928,1,1,1.8013,,0,85,85,45,1,REAL,FAKE,,,,,,,,,,,,,,,,,
,,,,,,,,,5d79375d794d900017671c07,Spanish,13 or older,"yes, I am fluent in another language",no,2025-08-12_14h46.03.437,empathy_intonation_perc,2024.2.4,Win32,59.17159763,5d79375d794d900017671c07,687ed1b7e638a4cbf2f02089,689b8ba95a1a0cc058520639,,,,,,,,,,,,,,0,,,,,,,,,,,,,,,,,,,,,,,,,,,,,,,,,,,,,,,,,,,,,,,,,,,,,,,,,82,empirador,,,,,794.1952,798.6267,1,0,3.8836,,0,86,86,81,1,REAL,FAKE,,,,,,,,,,,,,,,,,
,,,,,,,,,5d79375d794d900017671c07,Spanish,13 or older,"yes, I am fluent in another language",no,2025-08-12_14h46.03.437,empathy_intonation_perc,2024.2.4,Win32,59.17159763,5d79375d794d900017671c07,687ed1b7e638a4cbf2f02089,689b8ba95a1a0cc058520639,,,,,,,,,,,,,,0,,,,,,,,,,,,,,,,,,,,,,,,,,,,,,,,,,,,,,,,,,,,,,,,,,,,,,,,,42,cadallo,,,,,798.629,800.6934,1,0,1.517,,0,87,87,41,1,REAL,FAKE,,,,,,,,,,,,,,,,,
,,,,,,,,,5d79375d794d900017671c07,Spanish,13 or older,"yes, I am fluent in another language",no,2025-08-12_14h46.03.437,empathy_intonation_perc,2024.2.4,Win32,59.17159763,5d79375d794d900017671c07,687ed1b7e638a4cbf2f02089,689b8ba95a1a0cc058520639,,,,,,,,,,,,,,1,,,,,,,,,,,,,,,,,,,,,,,,,,,,,,,,,,,,,,,,,,,,,,,,,,,,,,,,,40,alfombra,,,,,800.6953,802.2764,0,0,1.0423,,0,88,88,39,1,REAL,FAKE,,,,,,,,,,,,,,,,,
,,,,,,,,,5d79375d794d900017671c07,Spanish,13 or older,"yes, I am fluent in another language",no,2025-08-12_14h46.03.437,empathy_intonation_perc,2024.2.4,Win32,59.17159763,5d79375d794d900017671c07,687ed1b7e638a4cbf2f02089,689b8ba95a1a0cc058520639,,,,,,,,,,,,,,1,,,,,,,,,,,,,,,,,,,,,,,,,,,,,,,,,,,,,,,,,,,,,,,,,,,,,,,,,73,hervidor,,,,,802.2786,807.1098,1,1,4.2854,,0,89,89,72,1,REAL,FAKE,,,,,,,,,,,,,,,,,
,,,,,,,,,5d79375d794d900017671c07,Spanish,13 or older,"yes, I am fluent in another language",no,2025-08-12_14h46.03.437,empathy_intonation_perc,2024.2.4,Win32,59.17159763,5d79375d794d900017671c07,687ed1b7e638a4cbf2f02089,689b8ba95a1a0cc058520639,,,,,,,,,,,,,,1,,,,,,,,,,,,,,,,,,,,,,,,,,,,,,,,,,,,,,,,,,,,,,,,,,,,,,,,,26,secuestro,,,,,807.1122,811.5092,0,0,3.8598,,0,90,90,25,1,REAL,FAKE,,,,,,,,,,,,,,,,,
,,,,,,,,,5d79375d794d900017671c07,Spanish,13 or older,"yes, I am fluent in another language",no,2025-08-12_14h46.03.437,empathy_intonation_perc,2024.2.4,Win32,59.17159763,5d79375d794d900017671c07,687ed1b7e638a4cbf2f02089,689b8ba95a1a0cc058520639,,,,,,,,,,,,,,1,,,,,,,,,,,,,,,,,,,,,,,,,,,,,,,,,,,,,,,,,,,,,,,,,,,,,,,,,89,prisa,,,,,811.5113,813.1264,0,0,1.0864,,0,91,91,88,1,REAL,FAKE,,,,,,,,,,,,,,,,,
,,,,,,,,,5d79375d794d900017671c07,Spanish,13 or older,"yes, I am fluent in another language",no,2025-08-12_14h46.03.437,empathy_intonation_perc,2024.2.4,Win32,59.17159763,5d79375d794d900017671c07,687ed1b7e638a4cbf2f02089,689b8ba95a1a0cc058520639,,,,,,,,,,,,,,,,,,,,,,,,,,,,,,,,,,,,,,,,,,,,,,,,,,,,,,,,,,,,,,,,,,,,,,,,,,,,,,,,,,,,,,,,,,813.1272,819.8598,,,,,,,,,,,,,,,
,,,,,,,,,5d79375d794d900017671c07,Spanish,13 or older,"yes, I am fluent in another language",no,2025-08-12_14h46.03.437,empathy_intonation_perc,2024.2.4,Win32,59.17159763,5d79375d794d900017671c07,687ed1b7e638a4cbf2f02089,689b8ba95a1a0cc058520639,,,,,,,,,,,,,1,,,,,,,,,,,,,,,,,,,,,,,,,,,,,,,,,,,,,,,,,,,,,,,,,,,,,,,,,,,,,,,,,,,,,,,,,,,,,,,819.8688,827.1433,slightly agree,0,0,0,0,1,I can easily tell if someone else wants to enter a conversation.,1,0,1,0,,
,,,,,,,,,5d79375d794d900017671c07,Spanish,13 or older,"yes, I am fluent in another language",no,2025-08-12_14h46.03.437,empathy_intonation_perc,2024.2.4,Win32,59.17159763,5d79375d794d900017671c07,687ed1b7e638a4cbf2f02089,689b8ba95a1a0cc058520639,,,,,,,,,,,,,2,,,,,,,,,,,,,,,,,,,,,,,,,,,,,,,,,,,,,,,,,,,,,,,,,,,,,,,,,,,,,,,,,,,,,,,,,,,,,,,827.1471,831.6429,slightly agree,0,1,1,1,1,I prefer animals to humans.,0,1,0,0,,
,,,,,,,,,5d79375d794d900017671c07,Spanish,13 or older,"yes, I am fluent in another language",no,2025-08-12_14h46.03.437,empathy_intonation_perc,2024.2.4,Win32,59.17159763,5d79375d794d900017671c07,687ed1b7e638a4cbf2f02089,689b8ba95a1a0cc058520639,,,,,,,,,,,,,3,,,,,,,,,,,,,,,,,,,,,,,,,,,,,,,,,,,,,,,,,,,,,,,,,,,,,,,,,,,,,,,,,,,,,,,,,,,,,,,831.6455,835.143,strongly disagree,0,2,2,2,1,I try to keep up with the current trends and fashions.,0,1,0,0,,
,,,,,,,,,5d79375d794d900017671c07,Spanish,13 or older,"yes, I am fluent in another language",no,2025-08-12_14h46.03.437,empathy_intonation_perc,2024.2.4,Win32,59.17159763,5d79375d794d900017671c07,687ed1b7e638a4cbf2f02089,689b8ba95a1a0cc058520639,,,,,,,,,,,,,4,,,,,,,,,,,,,,,,,,,,,,,,,,,,,,,,,,,,,,,,,,,,,,,,,,,,,,,,,,,,,,,,,,,,,,,,,,,,,,,835.1454,840.7594,slightly agree,0,3,3,3,1,"I find it difficult to explain to others things that I understand easily,   when they don't understand it first time.",1,0,0,1,,
,,,,,,,,,5d79375d794d900017671c07,Spanish,13 or older,"yes, I am fluent in another language",no,2025-08-12_14h46.03.437,empathy_intonation_perc,2024.2.4,Win32,59.17159763,5d79375d794d900017671c07,687ed1b7e638a4cbf2f02089,689b8ba95a1a0cc058520639,,,,,,,,,,,,,5,,,,,,,,,,,,,,,,,,,,,,,,,,,,,,,,,,,,,,,,,,,,,,,,,,,,,,,,,,,,,,,,,,,,,,,,,,,,,,,840.761,843.893,slightly agree,0,4,4,4,1,I dream most nights.,0,1,0,0,,
