instructions_exposure.started,instructions_exposure.stopped,instructions_exposure_loop.thisRepN,instructions_exposure_loop.thisTrialN,instructions_exposure_loop.thisN,instructions_exposure_loop.thisIndex,instructions_exposure_loop.ran,instructions_text,continue_text,participant_id,"What variety of Spanish are you most familiar with? (e.g., Peruvian, Spanish, Mexican)",At what age did you begin learning Spanish?,Are you proficient in any languages other than English/Spanish?,"Are you familiar with Caribbean (e.g., Caribbean, Puerto Rican) or Galician Spanish?",date,expName,psychopyVersion,OS,frameRate,id,study_id,session,trial_exposure.started,trial_exposure.stopped,key_resp_exposure.keys,key_resp_exposure.corr,key_resp_exposure.rt,key_resp_exposure.duration,key_resp.keys,exposure_loop.thisRepN,exposure_loop.thisTrialN,exposure_loop.thisN,exposure_loop.thisIndex,exposure_loop.ran,item_num,correct_response,question,path,duration,instructions_2afc.started,instructions_2afc.stopped,instructions_2afc_loop.thisRepN,instructions_2afc_loop.thisTrialN,instructions_2afc_loop.thisN,instructions_2afc_loop.thisIndex,instructions_2afc_loop.ran,practice_2afc.started,practice_2afc.stopped,key_resp_2afc_practice.keys,key_resp_2afc_practice.corr,key_resp_2afc_practice.rt,key_resp_2afc_practice.duration,trials_2afc_practice_loop.thisRepN,trials_2afc_practice_loop.thisTrialN,trials_2afc_practice_loop.thisN,trials_2afc_practice_loop.thisIndex,trials_2afc_practice_loop.ran,check_2afc.started,check_2afc.stopped,trial_2afc.started,trial_2afc.stopped,key_resp_2afc_trial.keys,key_resp_2afc_trial.corr,key_resp_2afc_trial.rt,key_resp_2afc_trial.duration,trials_2afc_loop.thisRepN,trials_2afc_loop.thisTrialN,trials_2afc_loop.thisN,trials_2afc_loop.thisIndex,trials_2afc_loop.ran,target,variety,instructions_lextale.started,instructions_lextale.stopped,instructions_lextale_loop.thisRepN,instructions_lextale_loop.thisTrialN,instructions_lextale_loop.thisN,instructions_lextale_loop.thisIndex,instructions_lextale_loop.ran,practice_lextale.started,practice_lextale.stopped,key_resp_lextale_practice.keys,key_resp_lextale_practice.corr,key_resp_lextale_practice.rt,key_resp_lextale_practice.duration,practice_feedback_lextale.started,practice_feedback_lextale.stopped,trials_lextale_practice_loop.thisRepN,trials_lextale_practice_loop.thisTrialN,trials_lextale_practice_loop.thisN,trials_lextale_practice_loop.thisIndex,trials_lextale_practice_loop.ran,stim,word,prac_button_real,prac_button_false,check_lextale.started,check_lextale.stopped,trial_lextale.started,trial_lextale.stopped,key_resp_lextale_trial.keys,key_resp_lextale_trial.corr,key_resp_lextale_trial.rt,key_resp_lextale_trial.duration,trials_lextale_loop.thisRepN,trials_lextale_loop.thisTrialN,trials_lextale_loop.thisN,trials_lextale_loop.thisIndex,trials_lextale_loop.ran,button_real,button_false,instructions_eq.started,instructions_eq.stopped,trial_eq.started,trial_eq.stopped,slider_eq_trial.response,trials_eq_loop.thisRepN,trials_eq_loop.thisTrialN,trials_eq_loop.thisN,trials_eq_loop.thisIndex,trials_eq_loop.ran,item,is_test_item,is_distractor,is_agree_score,is_disagree_score,end_exp.started,end_exp.stopped
0.0069,1.6766,0,0,0,0,1,"In the following task, you are going to hear a series of conversations.", (press the space bar to continue),5dad4c34b3446a0015e3de93,Spanish,13 or older,"no, only English or Spanish",no,2025-08-14_23h08.35.235,empathy_intonation_perc,2024.2.4,Win32,144.9275362,5dad4c34b3446a0015e3de93,687ed1b7e638a4cbf2f02089,689ea48b63119d60d7859f59,,,,,,,,,,,,,,,,,,,,,,,,,,,,,,,,,,,,,,,,,,,,,,,,,,,,,,,,,,,,,,,,,,,,,,,,,,,,,,,,,,,,,,,,,,,,,,,,,,,,,,,,,,
1.6768,4.2047,0,1,1,1,1,It is okay if you don't not 100% understand them!, (press the space bar to continue),5dad4c34b3446a0015e3de93,Spanish,13 or older,"no, only English or Spanish",no,2025-08-14_23h08.35.235,empathy_intonation_perc,2024.2.4,Win32,144.9275362,5dad4c34b3446a0015e3de93,687ed1b7e638a4cbf2f02089,689ea48b63119d60d7859f59,,,,,,,,,,,,,,,,,,,,,,,,,,,,,,,,,,,,,,,,,,,,,,,,,,,,,,,,,,,,,,,,,,,,,,,,,,,,,,,,,,,,,,,,,,,,,,,,,,,,,,,,,,
4.2055,6.3371,0,2,2,2,1,"After, you will read a sentence about the conversation and decide if it's true or false.", (press the space bar to continue),5dad4c34b3446a0015e3de93,Spanish,13 or older,"no, only English or Spanish",no,2025-08-14_23h08.35.235,empathy_intonation_perc,2024.2.4,Win32,144.9275362,5dad4c34b3446a0015e3de93,687ed1b7e638a4cbf2f02089,689ea48b63119d60d7859f59,,,,,,,,,,,,,,,,,,,,,,,,,,,,,,,,,,,,,,,,,,,,,,,,,,,,,,,,,,,,,,,,,,,,,,,,,,,,,,,,,,,,,,,,,,,,,,,,,,,,,,,,,,
6.3382,7.9413,0,3,3,3,1,"If it's true, press '1' (True) and if it's false press '0' (False).", (press the space bar to continue),5dad4c34b3446a0015e3de93,Spanish,13 or older,"no, only English or Spanish",no,2025-08-14_23h08.35.235,empathy_intonation_perc,2024.2.4,Win32,144.9275362,5dad4c34b3446a0015e3de93,687ed1b7e638a4cbf2f02089,689ea48b63119d60d7859f59,,,,,,,,,,,,,,,,,,,,,,,,,,,,,,,,,,,,,,,,,,,,,,,,,,,,,,,,,,,,,,,,,,,,,,,,,,,,,,,,,,,,,,,,,,,,,,,,,,,,,,,,,,
,,,,,,,,,5dad4c34b3446a0015e3de93,Spanish,13 or older,"no, only English or Spanish",no,2025-08-14_23h08.35.235,empathy_intonation_perc,2024.2.4,Win32,144.9275362,5dad4c34b3446a0015e3de93,687ed1b7e638a4cbf2f02089,689ea48b63119d60d7859f59,7.9449,62.8521,0,0,7.8823,,,0,0,0,0,1,1,1,The son asked the mom if Aunt Marina is okay.,./stim/exposure_wavs/ga_stimuli_convo.wav,47,,,,,,,,,,,,,,,,,,,,,,,,,,,,,,,,,,,,,,,,,,,,,,,,,,,,,,,,,,,,,,,,,,,,,,,,,,,,,,,,,,,,,,,,,
,,,,,,,,,5dad4c34b3446a0015e3de93,Spanish,13 or older,"no, only English or Spanish",no,2025-08-14_23h08.35.235,empathy_intonation_perc,2024.2.4,Win32,144.9275362,5dad4c34b3446a0015e3de93,687ed1b7e638a4cbf2f02089,689ea48b63119d60d7859f59,62.8528,105.1635,0,1,6.2922,,,0,1,1,2,1,3,0,The mom already has rice.,./stim/exposure_wavs/pr_stimuli_convo.wav,36,,,,,,,,,,,,,,,,,,,,,,,,,,,,,,,,,,,,,,,,,,,,,,,,,,,,,,,,,,,,,,,,,,,,,,,,,,,,,,,,,,,,,,,,,
,,,,,,,,,5dad4c34b3446a0015e3de93,Spanish,13 or older,"no, only English or Spanish",no,2025-08-14_23h08.35.235,empathy_intonation_perc,2024.2.4,Win32,144.9275362,5dad4c34b3446a0015e3de93,687ed1b7e638a4cbf2f02089,689ea48b63119d60d7859f59,105.1646,168.8255,1,1,3.6464,,,0,2,2,1,1,2,1,The mom asked the daughter if she already went to the supermarket.,./stim/exposure_wavs/dr_stimuli_convo.wav,60,,,,,,,,,,,,,,,,,,,,,,,,,,,,,,,,,,,,,,,,,,,,,,,,,,,,,,,,,,,,,,,,,,,,,,,,,,,,,,,,,,,,,,,,,
,,,,,,,"In the following task you are going to hear a series of utterances. 

  You will decide if the utterances sound like questions or not using your keyboard.", (press the spacebar to continue),5dad4c34b3446a0015e3de93,Spanish,13 or older,"no, only English or Spanish",no,2025-08-14_23h08.35.235,empathy_intonation_perc,2024.2.4,Win32,144.9275362,5dad4c34b3446a0015e3de93,687ed1b7e638a4cbf2f02089,689ea48b63119d60d7859f59,,,,,,,,,,,,,,,,,,168.829,171.5968,0,0,0,0,1,,,,,,,,,,,,,,,,,,,,,,,,,,,,,,,,,,,,,,,,,,,,,,,,,,,,,,,,,,,,,,,,,,,,,,,,,,,,,,,,,,
,,,,,,,"If you believe the utterance is a question, type '1' (for 'yes') and if you do not 
  believe it is a question type '0' (for 'no').

  Let's practice a bit...", (press the spacebar to continue),5dad4c34b3446a0015e3de93,Spanish,13 or older,"no, only English or Spanish",no,2025-08-14_23h08.35.235,empathy_intonation_perc,2024.2.4,Win32,144.9275362,5dad4c34b3446a0015e3de93,687ed1b7e638a4cbf2f02089,689ea48b63119d60d7859f59,,,,,,,,,,,,,,,,,,171.5978,174.0485,0,1,1,1,1,,,,,,,,,,,,,,,,,,,,,,,,,,,,,,,,,,,,,,,,,,,,,,,,,,,,,,,,,,,,,,,,,,,,,,,,,,,,,,,,,,
,,,,,,,,,5dad4c34b3446a0015e3de93,Spanish,13 or older,"no, only English or Spanish",no,2025-08-14_23h08.35.235,empathy_intonation_perc,2024.2.4,Win32,144.9275362,5dad4c34b3446a0015e3de93,687ed1b7e638a4cbf2f02089,689ea48b63119d60d7859f59,,,,,,,,,,,,,,1,,./stim/wavs/argentine_question_filler_Mi-vecino-habla-mucho.wav,,,,,,,,,174.0518,176.292,1,1,1.7268,,0,0,0,1,1,,,,,,,,,,,,,,,,,,,,,,,,,,,,,,,,,,,,,,,,,,,,,,,,,,,,,,,,,,,,,,,,,,,,,,,
,,,,,,,,,5dad4c34b3446a0015e3de93,Spanish,13 or older,"no, only English or Spanish",no,2025-08-14_23h08.35.235,empathy_intonation_perc,2024.2.4,Win32,144.9275362,5dad4c34b3446a0015e3de93,687ed1b7e638a4cbf2f02089,689ea48b63119d60d7859f59,,,,,,,,,,,,,,0,,./stim/wavs/peruvian_statement_filler_El-nino-habla-con-su-madre.wav,,,,,,,,,176.2922,179.098,0,1,2.2882,,0,1,1,6,1,,,,,,,,,,,,,,,,,,,,,,,,,,,,,,,,,,,,,,,,,,,,,,,,,,,,,,,,,,,,,,,,,,,,,,,
,,,,,,,,,5dad4c34b3446a0015e3de93,Spanish,13 or older,"no, only English or Spanish",no,2025-08-14_23h08.35.235,empathy_intonation_perc,2024.2.4,Win32,144.9275362,5dad4c34b3446a0015e3de93,687ed1b7e638a4cbf2f02089,689ea48b63119d60d7859f59,,,,,,,,,,,,,,0,,./stim/wavs/puertorican_statement_filler_La-nina-pinta-con-su-amiga.wav,,,,,,,,,179.0984,181.4387,0,1,1.8314,,0,2,2,7,1,,,,,,,,,,,,,,,,,,,,,,,,,,,,,,,,,,,,,,,,,,,,,,,,,,,,,,,,,,,,,,,,,,,,,,,
,,,,,,,,,5dad4c34b3446a0015e3de93,Spanish,13 or older,"no, only English or Spanish",no,2025-08-14_23h08.35.235,empathy_intonation_perc,2024.2.4,Win32,144.9275362,5dad4c34b3446a0015e3de93,687ed1b7e638a4cbf2f02089,689ea48b63119d60d7859f59,,,,,,,,,,,,,,0,,./stim/wavs/andalusian_statement_filler_Alberto-nunca-se-afeita.wav,,,,,,,,,181.4391,184.314,0,1,2.3606,,0,3,3,5,1,,,,,,,,,,,,,,,,,,,,,,,,,,,,,,,,,,,,,,,,,,,,,,,,,,,,,,,,,,,,,,,,,,,,,,,
,,,,,,,,,5dad4c34b3446a0015e3de93,Spanish,13 or older,"no, only English or Spanish",no,2025-08-14_23h08.35.235,empathy_intonation_perc,2024.2.4,Win32,144.9275362,5dad4c34b3446a0015e3de93,687ed1b7e638a4cbf2f02089,689ea48b63119d60d7859f59,,,,,,,,,,,,,,1,,./stim/wavs/chilean_question_filler_Mi-padre-cantaba-bien.wav,,,,,,,,,184.3143,186.6614,0,0,1.8362,,0,4,4,2,1,,,,,,,,,,,,,,,,,,,,,,,,,,,,,,,,,,,,,,,,,,,,,,,,,,,,,,,,,,,,,,,,,,,,,,,
,,,,,,,,,5dad4c34b3446a0015e3de93,Spanish,13 or older,"no, only English or Spanish",no,2025-08-14_23h08.35.235,empathy_intonation_perc,2024.2.4,Win32,144.9275362,5dad4c34b3446a0015e3de93,687ed1b7e638a4cbf2f02089,689ea48b63119d60d7859f59,,,,,,,,,,,,,,1,,./stim/wavs/castilian_question_filler_Mi-esposo-conoce-al-chico.wav,,,,,,,,,186.6616,189.1341,1,1,1.9696,,0,5,5,0,1,,,,,,,,,,,,,,,,,,,,,,,,,,,,,,,,,,,,,,,,,,,,,,,,,,,,,,,,,,,,,,,,,,,,,,,
,,,,,,,,,5dad4c34b3446a0015e3de93,Spanish,13 or older,"no, only English or Spanish",no,2025-08-14_23h08.35.235,empathy_intonation_perc,2024.2.4,Win32,144.9275362,5dad4c34b3446a0015e3de93,687ed1b7e638a4cbf2f02089,689ea48b63119d60d7859f59,,,,,,,,,,,,,,1,,./stim/wavs/mexican_question_filler_Felipe-no-tiene-contrasena.wav,,,,,,,,,189.1342,191.6276,1,1,1.9771,,0,6,6,3,1,,,,,,,,,,,,,,,,,,,,,,,,,,,,,,,,,,,,,,,,,,,,,,,,,,,,,,,,,,,,,,,,,,,,,,,
,,,,,,,,,5dad4c34b3446a0015e3de93,Spanish,13 or older,"no, only English or Spanish",no,2025-08-14_23h08.35.235,empathy_intonation_perc,2024.2.4,Win32,144.9275362,5dad4c34b3446a0015e3de93,687ed1b7e638a4cbf2f02089,689ea48b63119d60d7859f59,,,,,,,,,,,,,,0,,./stim/wavs/cuban_statement_filler_Cocinabas-por-la-noche.wav,,,,,,,,,191.6279,193.7249,0,1,1.587,,0,7,7,4,1,,,,,,,,,,,,,,,,,,,,,,,,,,,,,,,,,,,,,,,,,,,,,,,,,,,,,,,,,,,,,,,,,,,,,,,
,,,,,,,,,5dad4c34b3446a0015e3de93,Spanish,13 or older,"no, only English or Spanish",no,2025-08-14_23h08.35.235,empathy_intonation_perc,2024.2.4,Win32,144.9275362,5dad4c34b3446a0015e3de93,687ed1b7e638a4cbf2f02089,689ea48b63119d60d7859f59,,,,,,,,,,,,,,,,,,,,,,,,,,,,,,,,,,,,193.7251,196.1286,,,,,,,,,,,,,,,,,,,,,,,,,,,,,,,,,,,,,,,,,,,,,,,,,,,,,,,,,,,,,,,,,,,,,
,,,,,,,,,5dad4c34b3446a0015e3de93,Spanish,13 or older,"no, only English or Spanish",no,2025-08-14_23h08.35.235,empathy_intonation_perc,2024.2.4,Win32,144.9275362,5dad4c34b3446a0015e3de93,687ed1b7e638a4cbf2f02089,689ea48b63119d60d7859f59,,,,,,,,,,,,,80,0,,./stim/wavs/mexican_mismatch_declarative-broad-focus_El-hombre-mira-la-luna.wav,,,,,,,,,,,,,,,,,,,,,,196.1332,198.2257,0,1,1.5871,,0,0,0,79,1,0,mexican,,,,,,,,,,,,,,,,,,,,,,,,,,,,,,,,,,,,,,,,,,,,,,,,,,,,,,,,
,,,,,,,,,5dad4c34b3446a0015e3de93,Spanish,13 or older,"no, only English or Spanish",no,2025-08-14_23h08.35.235,empathy_intonation_perc,2024.2.4,Win32,144.9275362,5dad4c34b3446a0015e3de93,687ed1b7e638a4cbf2f02089,689ea48b63119d60d7859f59,,,,,,,,,,,,,6,1,,./stim/wavs/castilian_match_interrogative-total-yn_Marta-abre-el-regalo.wav,,,,,,,,,,,,,,,,,,,,,,198.226,200.3996,1,1,1.665,,0,1,1,5,1,0,castilian,,,,,,,,,,,,,,,,,,,,,,,,,,,,,,,,,,,,,,,,,,,,,,,,,,,,,,,,
,,,,,,,,,5dad4c34b3446a0015e3de93,Spanish,13 or older,"no, only English or Spanish",no,2025-08-14_23h08.35.235,empathy_intonation_perc,2024.2.4,Win32,144.9275362,5dad4c34b3446a0015e3de93,687ed1b7e638a4cbf2f02089,689ea48b63119d60d7859f59,,,,,,,,,,,,,15,1,,./stim/wavs/mexican_match_interrogative-total-yn_David-leia-el-libro.wav,,,,,,,,,,,,,,,,,,,,,,200.3998,202.4971,1,1,1.5928,,0,2,2,14,1,0,mexican,,,,,,,,,,,,,,,,,,,,,,,,,,,,,,,,,,,,,,,,,,,,,,,,,,,,,,,,
,,,,,,,,,5dad4c34b3446a0015e3de93,Spanish,13 or older,"no, only English or Spanish",no,2025-08-14_23h08.35.235,empathy_intonation_perc,2024.2.4,Win32,144.9275362,5dad4c34b3446a0015e3de93,687ed1b7e638a4cbf2f02089,689ea48b63119d60d7859f59,,,,,,,,,,,,,34,1,,./stim/wavs/cuban_mismatch_interrogative-total-yn_Mi-tia-odia-la-lluvia.wav,,,,,,,,,,,,,,,,,,,,,,202.4973,204.589,0,0,1.5825,,0,3,3,33,1,1,cuban,,,,,,,,,,,,,,,,,,,,,,,,,,,,,,,,,,,,,,,,,,,,,,,,,,,,,,,,
,,,,,,,,,5dad4c34b3446a0015e3de93,Spanish,13 or older,"no, only English or Spanish",no,2025-08-14_23h08.35.235,empathy_intonation_perc,2024.2.4,Win32,144.9275362,5dad4c34b3446a0015e3de93,687ed1b7e638a4cbf2f02089,689ea48b63119d60d7859f59,,,,,,,,,,,,,37,1,,./stim/wavs/mexican_mismatch_interrogative-total-yn_La-maestra-vive-en-Paris.wav,,,,,,,,,,,,,,,,,,,,,,204.5891,207.0002,1,1,1.9018,,0,4,4,36,1,0,mexican,,,,,,,,,,,,,,,,,,,,,,,,,,,,,,,,,,,,,,,,,,,,,,,,,,,,,,,,
,,,,,,,,,5dad4c34b3446a0015e3de93,Spanish,13 or older,"no, only English or Spanish",no,2025-08-14_23h08.35.235,empathy_intonation_perc,2024.2.4,Win32,144.9275362,5dad4c34b3446a0015e3de93,687ed1b7e638a4cbf2f02089,689ea48b63119d60d7859f59,,,,,,,,,,,,,17,1,,./stim/wavs/mexican_match_interrogative-total-yn_Mariano-habla-del-tiempo.wav,,,,,,,,,,,,,,,,,,,,,,207.0004,209.3523,1,1,1.8435,,0,5,5,16,1,0,mexican,,,,,,,,,,,,,,,,,,,,,,,,,,,,,,,,,,,,,,,,,,,,,,,,,,,,,,,,
,,,,,,,,,5dad4c34b3446a0015e3de93,Spanish,13 or older,"no, only English or Spanish",no,2025-08-14_23h08.35.235,empathy_intonation_perc,2024.2.4,Win32,144.9275362,5dad4c34b3446a0015e3de93,687ed1b7e638a4cbf2f02089,689ea48b63119d60d7859f59,,,,,,,,,,,,,48,0,,./stim/wavs/castilian_match_declarative-broad-focus_Maria-bebe-el-vino.wav,,,,,,,,,,,,,,,,,,,,,,209.3525,211.929,0,1,2.0626,,0,6,6,47,1,0,castilian,,,,,,,,,,,,,,,,,,,,,,,,,,,,,,,,,,,,,,,,,,,,,,,,,,,,,,,,
,,,,,,,,,5dad4c34b3446a0015e3de93,Spanish,13 or older,"no, only English or Spanish",no,2025-08-14_23h08.35.235,empathy_intonation_perc,2024.2.4,Win32,144.9275362,5dad4c34b3446a0015e3de93,687ed1b7e638a4cbf2f02089,689ea48b63119d60d7859f59,,,,,,,,,,,,,21,1,,./stim/wavs/puertorican_match_interrogative-total-yn_David-leia-el-libro.wav,,,,,,,,,,,,,,,,,,,,,,211.9293,214.2001,0,0,1.7597,,0,7,7,20,1,1,puertorican,,,,,,,,,,,,,,,,,,,,,,,,,,,,,,,,,,,,,,,,,,,,,,,,,,,,,,,,
,,,,,,,,,5dad4c34b3446a0015e3de93,Spanish,13 or older,"no, only English or Spanish",no,2025-08-14_23h08.35.235,empathy_intonation_perc,2024.2.4,Win32,144.9275362,5dad4c34b3446a0015e3de93,687ed1b7e638a4cbf2f02089,689ea48b63119d60d7859f59,,,,,,,,,,,,,64,0,,./stim/wavs/puertorican_match_declarative-broad-focus_Daniel-iba-a-Bolivia.wav,,,,,,,,,,,,,,,,,,,,,,214.2003,216.8744,0,1,2.1654,,0,8,8,63,1,0,puertorican,,,,,,,,,,,,,,,,,,,,,,,,,,,,,,,,,,,,,,,,,,,,,,,,,,,,,,,,
,,,,,,,,,5dad4c34b3446a0015e3de93,Spanish,13 or older,"no, only English or Spanish",no,2025-08-14_23h08.35.235,empathy_intonation_perc,2024.2.4,Win32,144.9275362,5dad4c34b3446a0015e3de93,687ed1b7e638a4cbf2f02089,689ea48b63119d60d7859f59,,,,,,,,,,,,,69,0,,./stim/wavs/castilian_mismatch_declarative-broad-focus_El-nino-oye-el-rio.wav,,,,,,,,,,,,,,,,,,,,,,216.8746,219.2425,0,1,1.8518,,0,9,9,68,1,0,castilian,,,,,,,,,,,,,,,,,,,,,,,,,,,,,,,,,,,,,,,,,,,,,,,,,,,,,,,,
,,,,,,,,,5dad4c34b3446a0015e3de93,Spanish,13 or older,"no, only English or Spanish",no,2025-08-14_23h08.35.235,empathy_intonation_perc,2024.2.4,Win32,144.9275362,5dad4c34b3446a0015e3de93,687ed1b7e638a4cbf2f02089,689ea48b63119d60d7859f59,,,,,,,,,,,,,52,0,,./stim/wavs/cuban_match_declarative-broad-focus_Daniel-iba-a-Bolivia.wav,,,,,,,,,,,,,,,,,,,,,,219.2427,221.9235,0,1,2.1595,,0,10,10,51,1,0,cuban,,,,,,,,,,,,,,,,,,,,,,,,,,,,,,,,,,,,,,,,,,,,,,,,,,,,,,,,
,,,,,,,,,5dad4c34b3446a0015e3de93,Spanish,13 or older,"no, only English or Spanish",no,2025-08-14_23h08.35.235,empathy_intonation_perc,2024.2.4,Win32,144.9275362,5dad4c34b3446a0015e3de93,687ed1b7e638a4cbf2f02089,689ea48b63119d60d7859f59,,,,,,,,,,,,,66,0,,./stim/wavs/puertorican_match_declarative-broad-focus_Emilio-ama-la-marcha.wav,,,,,,,,,,,,,,,,,,,,,,221.9237,224.4863,0,1,2.049,,0,11,11,65,1,0,puertorican,,,,,,,,,,,,,,,,,,,,,,,,,,,,,,,,,,,,,,,,,,,,,,,,,,,,,,,,
,,,,,,,,,5dad4c34b3446a0015e3de93,Spanish,13 or older,"no, only English or Spanish",no,2025-08-14_23h08.35.235,empathy_intonation_perc,2024.2.4,Win32,144.9275362,5dad4c34b3446a0015e3de93,687ed1b7e638a4cbf2f02089,689ea48b63119d60d7859f59,,,,,,,,,,,,,40,1,,./stim/wavs/puertorican_mismatch_interrogative-total-yn_El-hombre-mira-la-luna.wav,,,,,,,,,,,,,,,,,,,,,,224.4865,226.8965,0,0,1.9055,,0,12,12,39,1,1,puertorican,,,,,,,,,,,,,,,,,,,,,,,,,,,,,,,,,,,,,,,,,,,,,,,,,,,,,,,,
,,,,,,,,,5dad4c34b3446a0015e3de93,Spanish,13 or older,"no, only English or Spanish",no,2025-08-14_23h08.35.235,empathy_intonation_perc,2024.2.4,Win32,144.9275362,5dad4c34b3446a0015e3de93,687ed1b7e638a4cbf2f02089,689ea48b63119d60d7859f59,,,,,,,,,,,,,27,1,,./stim/wavs/castilian_mismatch_interrogative-total-yn_Mi-madre-come-la-fruta.wav,,,,,,,,,,,,,,,,,,,,,,226.8966,229.1259,1,1,1.7257,,0,13,13,26,1,0,castilian,,,,,,,,,,,,,,,,,,,,,,,,,,,,,,,,,,,,,,,,,,,,,,,,,,,,,,,,
,,,,,,,,,5dad4c34b3446a0015e3de93,Spanish,13 or older,"no, only English or Spanish",no,2025-08-14_23h08.35.235,empathy_intonation_perc,2024.2.4,Win32,144.9275362,5dad4c34b3446a0015e3de93,687ed1b7e638a4cbf2f02089,689ea48b63119d60d7859f59,,,,,,,,,,,,,23,1,,./stim/wavs/puertorican_match_interrogative-total-yn_Manuela-vende-el-carro.wav,,,,,,,,,,,,,,,,,,,,,,229.1261,231.8263,0,0,2.1899,,0,14,14,22,1,1,puertorican,,,,,,,,,,,,,,,,,,,,,,,,,,,,,,,,,,,,,,,,,,,,,,,,,,,,,,,,
,,,,,,,,,5dad4c34b3446a0015e3de93,Spanish,13 or older,"no, only English or Spanish",no,2025-08-14_23h08.35.235,empathy_intonation_perc,2024.2.4,Win32,144.9275362,5dad4c34b3446a0015e3de93,687ed1b7e638a4cbf2f02089,689ea48b63119d60d7859f59,,,,,,,,,,,,,46,0,,./stim/wavs/castilian_match_declarative-broad-focus_Emilio-ama-la-marcha.wav,,,,,,,,,,,,,,,,,,,,,,231.8266,234.1405,0,1,1.8011,,0,15,15,45,1,0,castilian,,,,,,,,,,,,,,,,,,,,,,,,,,,,,,,,,,,,,,,,,,,,,,,,,,,,,,,,
,,,,,,,,,5dad4c34b3446a0015e3de93,Spanish,13 or older,"no, only English or Spanish",no,2025-08-14_23h08.35.235,empathy_intonation_perc,2024.2.4,Win32,144.9275362,5dad4c34b3446a0015e3de93,687ed1b7e638a4cbf2f02089,689ea48b63119d60d7859f59,,,,,,,,,,,,,42,1,,./stim/wavs/puertorican_mismatch_interrogative-total-yn_La-maestra-vive-en-Paris.wav,,,,,,,,,,,,,,,,,,,,,,234.1407,236.9327,0,0,2.2715,,0,16,16,41,1,1,puertorican,,,,,,,,,,,,,,,,,,,,,,,,,,,,,,,,,,,,,,,,,,,,,,,,,,,,,,,,
,,,,,,,,,5dad4c34b3446a0015e3de93,Spanish,13 or older,"no, only English or Spanish",no,2025-08-14_23h08.35.235,empathy_intonation_perc,2024.2.4,Win32,144.9275362,5dad4c34b3446a0015e3de93,687ed1b7e638a4cbf2f02089,689ea48b63119d60d7859f59,,,,,,,,,,,,,60,0,,./stim/wavs/mexican_match_declarative-broad-focus_Emilio-ama-la-marcha.wav,,,,,,,,,,,,,,,,,,,,,,236.9329,239.3357,0,1,1.8907,,0,17,17,59,1,0,mexican,,,,,,,,,,,,,,,,,,,,,,,,,,,,,,,,,,,,,,,,,,,,,,,,,,,,,,,,
,,,,,,,,,5dad4c34b3446a0015e3de93,Spanish,13 or older,"no, only English or Spanish",no,2025-08-14_23h08.35.235,empathy_intonation_perc,2024.2.4,Win32,144.9275362,5dad4c34b3446a0015e3de93,687ed1b7e638a4cbf2f02089,689ea48b63119d60d7859f59,,,,,,,,,,,,,22,1,,./stim/wavs/puertorican_match_interrogative-total-yn_Emilio-ama-la-marcha.wav,,,,,,,,,,,,,,,,,,,,,,239.3359,241.4263,0,0,1.5795,,0,18,18,21,1,1,puertorican,,,,,,,,,,,,,,,,,,,,,,,,,,,,,,,,,,,,,,,,,,,,,,,,,,,,,,,,
,,,,,,,,,5dad4c34b3446a0015e3de93,Spanish,13 or older,"no, only English or Spanish",no,2025-08-14_23h08.35.235,empathy_intonation_perc,2024.2.4,Win32,144.9275362,5dad4c34b3446a0015e3de93,687ed1b7e638a4cbf2f02089,689ea48b63119d60d7859f59,,,,,,,,,,,,,24,1,,./stim/wavs/puertorican_match_interrogative-total-yn_Maria-bebe-el-vino.wav,,,,,,,,,,,,,,,,,,,,,,241.4266,243.7947,0,0,1.8525,,0,19,19,23,1,1,puertorican,,,,,,,,,,,,,,,,,,,,,,,,,,,,,,,,,,,,,,,,,,,,,,,,,,,,,,,,
,,,,,,,,,5dad4c34b3446a0015e3de93,Spanish,13 or older,"no, only English or Spanish",no,2025-08-14_23h08.35.235,empathy_intonation_perc,2024.2.4,Win32,144.9275362,5dad4c34b3446a0015e3de93,687ed1b7e638a4cbf2f02089,689ea48b63119d60d7859f59,,,,,,,,,,,,,68,0,,./stim/wavs/puertorican_match_declarative-broad-focus_Maria-bebe-el-vino.wav,,,,,,,,,,,,,,,,,,,,,,243.7948,245.7603,0,1,1.4516,,0,20,20,67,1,0,puertorican,,,,,,,,,,,,,,,,,,,,,,,,,,,,,,,,,,,,,,,,,,,,,,,,,,,,,,,,
,,,,,,,,,5dad4c34b3446a0015e3de93,Spanish,13 or older,"no, only English or Spanish",no,2025-08-14_23h08.35.235,empathy_intonation_perc,2024.2.4,Win32,144.9275362,5dad4c34b3446a0015e3de93,687ed1b7e638a4cbf2f02089,689ea48b63119d60d7859f59,,,,,,,,,,,,,28,1,,./stim/wavs/castilian_mismatch_interrogative-total-yn_Mi-novio-viene-del-lago.wav,,,,,,,,,,,,,,,,,,,,,,245.7604,248.101,1,1,1.8289,,0,21,21,27,1,0,castilian,,,,,,,,,,,,,,,,,,,,,,,,,,,,,,,,,,,,,,,,,,,,,,,,,,,,,,,,
,,,,,,,,,5dad4c34b3446a0015e3de93,Spanish,13 or older,"no, only English or Spanish",no,2025-08-14_23h08.35.235,empathy_intonation_perc,2024.2.4,Win32,144.9275362,5dad4c34b3446a0015e3de93,687ed1b7e638a4cbf2f02089,689ea48b63119d60d7859f59,,,,,,,,,,,,,86,0,,./stim/wavs/puertorican_mismatch_declarative-broad-focus_El-nino-oye-el-rio.wav,,,,,,,,,,,,,,,,,,,,,,248.1012,250.5526,0,1,1.9392,,0,22,22,85,1,0,puertorican,,,,,,,,,,,,,,,,,,,,,,,,,,,,,,,,,,,,,,,,,,,,,,,,,,,,,,,,
,,,,,,,,,5dad4c34b3446a0015e3de93,Spanish,13 or older,"no, only English or Spanish",no,2025-08-14_23h08.35.235,empathy_intonation_perc,2024.2.4,Win32,144.9275362,5dad4c34b3446a0015e3de93,687ed1b7e638a4cbf2f02089,689ea48b63119d60d7859f59,,,,,,,,,,,,,57,0,,./stim/wavs/mexican_match_declarative-broad-focus_Ana-lleva-el-abrigo.wav,,,,,,,,,,,,,,,,,,,,,,250.5529,253.9213,0,1,2.8578,,0,23,23,56,1,0,mexican,,,,,,,,,,,,,,,,,,,,,,,,,,,,,,,,,,,,,,,,,,,,,,,,,,,,,,,,
,,,,,,,,,5dad4c34b3446a0015e3de93,Spanish,13 or older,"no, only English or Spanish",no,2025-08-14_23h08.35.235,empathy_intonation_perc,2024.2.4,Win32,144.9275362,5dad4c34b3446a0015e3de93,687ed1b7e638a4cbf2f02089,689ea48b63119d60d7859f59,,,,,,,,,,,,,41,1,,./stim/wavs/puertorican_mismatch_interrogative-total-yn_El-nino-oye-el-rio.wav,,,,,,,,,,,,,,,,,,,,,,253.9214,256.2826,0,0,1.849,,0,24,24,40,1,1,puertorican,,,,,,,,,,,,,,,,,,,,,,,,,,,,,,,,,,,,,,,,,,,,,,,,,,,,,,,,
,,,,,,,,,5dad4c34b3446a0015e3de93,Spanish,13 or older,"no, only English or Spanish",no,2025-08-14_23h08.35.235,empathy_intonation_perc,2024.2.4,Win32,144.9275362,5dad4c34b3446a0015e3de93,687ed1b7e638a4cbf2f02089,689ea48b63119d60d7859f59,,,,,,,,,,,,,56,0,,./stim/wavs/cuban_match_declarative-broad-focus_Marta-abre-el-regalo.wav,,,,,,,,,,,,,,,,,,,,,,256.2829,258.5816,0,1,1.7882,,0,25,25,55,1,0,cuban,,,,,,,,,,,,,,,,,,,,,,,,,,,,,,,,,,,,,,,,,,,,,,,,,,,,,,,,
,,,,,,,,,5dad4c34b3446a0015e3de93,Spanish,13 or older,"no, only English or Spanish",no,2025-08-14_23h08.35.235,empathy_intonation_perc,2024.2.4,Win32,144.9275362,5dad4c34b3446a0015e3de93,687ed1b7e638a4cbf2f02089,689ea48b63119d60d7859f59,,,,,,,,,,,,,71,0,,./stim/wavs/castilian_mismatch_declarative-broad-focus_La-nina-lava-el-plato.wav,,,,,,,,,,,,,,,,,,,,,,258.5819,261.0193,0,1,1.9266,,0,26,26,70,1,0,castilian,,,,,,,,,,,,,,,,,,,,,,,,,,,,,,,,,,,,,,,,,,,,,,,,,,,,,,,,
,,,,,,,,,5dad4c34b3446a0015e3de93,Spanish,13 or older,"no, only English or Spanish",no,2025-08-14_23h08.35.235,empathy_intonation_perc,2024.2.4,Win32,144.9275362,5dad4c34b3446a0015e3de93,687ed1b7e638a4cbf2f02089,689ea48b63119d60d7859f59,,,,,,,,,,,,,12,1,,./stim/wavs/cuban_match_interrogative-total-yn_Marta-abre-el-regalo.wav,,,,,,,,,,,,,,,,,,,,,,261.0196,263.0683,0,0,1.5421,,0,27,27,11,1,1,cuban,,,,,,,,,,,,,,,,,,,,,,,,,,,,,,,,,,,,,,,,,,,,,,,,,,,,,,,,
,,,,,,,,,5dad4c34b3446a0015e3de93,Spanish,13 or older,"no, only English or Spanish",no,2025-08-14_23h08.35.235,empathy_intonation_perc,2024.2.4,Win32,144.9275362,5dad4c34b3446a0015e3de93,687ed1b7e638a4cbf2f02089,689ea48b63119d60d7859f59,,,,,,,,,,,,,10,1,,./stim/wavs/cuban_match_interrogative-total-yn_Maria-bebe-el-vino.wav,,,,,,,,,,,,,,,,,,,,,,263.0685,265.3834,0,0,1.8128,,0,28,28,9,1,1,cuban,,,,,,,,,,,,,,,,,,,,,,,,,,,,,,,,,,,,,,,,,,,,,,,,,,,,,,,,
,,,,,,,,,5dad4c34b3446a0015e3de93,Spanish,13 or older,"no, only English or Spanish",no,2025-08-14_23h08.35.235,empathy_intonation_perc,2024.2.4,Win32,144.9275362,5dad4c34b3446a0015e3de93,687ed1b7e638a4cbf2f02089,689ea48b63119d60d7859f59,,,,,,,,,,,,,53,0,,./stim/wavs/cuban_match_declarative-broad-focus_Manuela-vende-el-carro.wav,,,,,,,,,,,,,,,,,,,,,,265.3835,267.8884,0,1,1.9887,,0,29,29,52,1,0,cuban,,,,,,,,,,,,,,,,,,,,,,,,,,,,,,,,,,,,,,,,,,,,,,,,,,,,,,,,
,,,,,,,,,5dad4c34b3446a0015e3de93,Spanish,13 or older,"no, only English or Spanish",no,2025-08-14_23h08.35.235,empathy_intonation_perc,2024.2.4,Win32,144.9275362,5dad4c34b3446a0015e3de93,687ed1b7e638a4cbf2f02089,689ea48b63119d60d7859f59,,,,,,,,,,,,,75,0,,./stim/wavs/cuban_mismatch_declarative-broad-focus_El-hombre-mira-la-luna.wav,,,,,,,,,,,,,,,,,,,,,,267.8887,269.9374,0,1,1.547,,0,30,30,74,1,0,cuban,,,,,,,,,,,,,,,,,,,,,,,,,,,,,,,,,,,,,,,,,,,,,,,,,,,,,,,,
,,,,,,,,,5dad4c34b3446a0015e3de93,Spanish,13 or older,"no, only English or Spanish",no,2025-08-14_23h08.35.235,empathy_intonation_perc,2024.2.4,Win32,144.9275362,5dad4c34b3446a0015e3de93,687ed1b7e638a4cbf2f02089,689ea48b63119d60d7859f59,,,,,,,,,,,,,32,1,,./stim/wavs/cuban_mismatch_interrogative-total-yn_Mi-madre-come-la-fruta.wav,,,,,,,,,,,,,,,,,,,,,,269.9376,272.0141,0,0,1.5597,,0,31,31,31,1,1,cuban,,,,,,,,,,,,,,,,,,,,,,,,,,,,,,,,,,,,,,,,,,,,,,,,,,,,,,,,
,,,,,,,,,5dad4c34b3446a0015e3de93,Spanish,13 or older,"no, only English or Spanish",no,2025-08-14_23h08.35.235,empathy_intonation_perc,2024.2.4,Win32,144.9275362,5dad4c34b3446a0015e3de93,687ed1b7e638a4cbf2f02089,689ea48b63119d60d7859f59,,,,,,,,,,,,,13,1,,./stim/wavs/mexican_match_interrogative-total-yn_Ana-lleva-el-abrigo.wav,,,,,,,,,,,,,,,,,,,,,,272.0142,274.174,1,1,1.6507,,0,32,32,12,1,0,mexican,,,,,,,,,,,,,,,,,,,,,,,,,,,,,,,,,,,,,,,,,,,,,,,,,,,,,,,,
,,,,,,,,,5dad4c34b3446a0015e3de93,Spanish,13 or older,"no, only English or Spanish",no,2025-08-14_23h08.35.235,empathy_intonation_perc,2024.2.4,Win32,144.9275362,5dad4c34b3446a0015e3de93,687ed1b7e638a4cbf2f02089,689ea48b63119d60d7859f59,,,,,,,,,,,,,50,0,,./stim/wavs/castilian_match_declarative-broad-focus_Marta-abre-el-regalo.wav,,,,,,,,,,,,,,,,,,,,,,274.1743,276.4799,0,1,1.7939,,0,33,33,49,1,0,castilian,,,,,,,,,,,,,,,,,,,,,,,,,,,,,,,,,,,,,,,,,,,,,,,,,,,,,,,,
,,,,,,,,,5dad4c34b3446a0015e3de93,Spanish,13 or older,"no, only English or Spanish",no,2025-08-14_23h08.35.235,empathy_intonation_perc,2024.2.4,Win32,144.9275362,5dad4c34b3446a0015e3de93,687ed1b7e638a4cbf2f02089,689ea48b63119d60d7859f59,,,,,,,,,,,,,81,0,,./stim/wavs/mexican_mismatch_declarative-broad-focus_La-maestra-vive-en-Paris.wav,,,,,,,,,,,,,,,,,,,,,,276.4801,279.2581,0,1,2.2715,,0,34,34,80,1,0,mexican,,,,,,,,,,,,,,,,,,,,,,,,,,,,,,,,,,,,,,,,,,,,,,,,,,,,,,,,
,,,,,,,,,5dad4c34b3446a0015e3de93,Spanish,13 or older,"no, only English or Spanish",no,2025-08-14_23h08.35.235,empathy_intonation_perc,2024.2.4,Win32,144.9275362,5dad4c34b3446a0015e3de93,687ed1b7e638a4cbf2f02089,689ea48b63119d60d7859f59,,,,,,,,,,,,,49,0,,./stim/wavs/castilian_match_declarative-broad-focus_Mariano-habla-del-tiempo.wav,,,,,,,,,,,,,,,,,,,,,,279.2583,281.7863,0,1,2.0145,,0,35,35,48,1,0,castilian,,,,,,,,,,,,,,,,,,,,,,,,,,,,,,,,,,,,,,,,,,,,,,,,,,,,,,,,
,,,,,,,,,5dad4c34b3446a0015e3de93,Spanish,13 or older,"no, only English or Spanish",no,2025-08-14_23h08.35.235,empathy_intonation_perc,2024.2.4,Win32,144.9275362,5dad4c34b3446a0015e3de93,687ed1b7e638a4cbf2f02089,689ea48b63119d60d7859f59,,,,,,,,,,,,,74,0,,./stim/wavs/cuban_mismatch_declarative-broad-focus_El-bebe-comia-muy-bien.wav,,,,,,,,,,,,,,,,,,,,,,281.7865,284.2033,0,1,1.9033,,0,36,36,73,1,0,cuban,,,,,,,,,,,,,,,,,,,,,,,,,,,,,,,,,,,,,,,,,,,,,,,,,,,,,,,,
,,,,,,,,,5dad4c34b3446a0015e3de93,Spanish,13 or older,"no, only English or Spanish",no,2025-08-14_23h08.35.235,empathy_intonation_perc,2024.2.4,Win32,144.9275362,5dad4c34b3446a0015e3de93,687ed1b7e638a4cbf2f02089,689ea48b63119d60d7859f59,,,,,,,,,,,,,43,1,,./stim/wavs/puertorican_mismatch_interrogative-total-yn_La-nina-lava-el-plato.wav,,,,,,,,,,,,,,,,,,,,,,284.2035,286.2452,0,0,1.5315,,0,37,37,42,1,1,puertorican,,,,,,,,,,,,,,,,,,,,,,,,,,,,,,,,,,,,,,,,,,,,,,,,,,,,,,,,
,,,,,,,,,5dad4c34b3446a0015e3de93,Spanish,13 or older,"no, only English or Spanish",no,2025-08-14_23h08.35.235,empathy_intonation_perc,2024.2.4,Win32,144.9275362,5dad4c34b3446a0015e3de93,687ed1b7e638a4cbf2f02089,689ea48b63119d60d7859f59,,,,,,,,,,,,,87,0,,./stim/wavs/puertorican_mismatch_declarative-broad-focus_La-maestra-vive-en-Paris.wav,,,,,,,,,,,,,,,,,,,,,,286.2454,288.2733,0,1,1.5193,,0,38,38,86,1,0,puertorican,,,,,,,,,,,,,,,,,,,,,,,,,,,,,,,,,,,,,,,,,,,,,,,,,,,,,,,,
,,,,,,,,,5dad4c34b3446a0015e3de93,Spanish,13 or older,"no, only English or Spanish",no,2025-08-14_23h08.35.235,empathy_intonation_perc,2024.2.4,Win32,144.9275362,5dad4c34b3446a0015e3de93,687ed1b7e638a4cbf2f02089,689ea48b63119d60d7859f59,,,,,,,,,,,,,47,0,,./stim/wavs/castilian_match_declarative-broad-focus_Manuela-vende-el-carro.wav,,,,,,,,,,,,,,,,,,,,,,288.2735,290.6834,0,1,1.8936,,0,39,39,46,1,0,castilian,,,,,,,,,,,,,,,,,,,,,,,,,,,,,,,,,,,,,,,,,,,,,,,,,,,,,,,,
,,,,,,,,,5dad4c34b3446a0015e3de93,Spanish,13 or older,"no, only English or Spanish",no,2025-08-14_23h08.35.235,empathy_intonation_perc,2024.2.4,Win32,144.9275362,5dad4c34b3446a0015e3de93,687ed1b7e638a4cbf2f02089,689ea48b63119d60d7859f59,,,,,,,,,,,,,30,1,,./stim/wavs/cuban_mismatch_interrogative-total-yn_El-hombre-mira-la-luna.wav,,,,,,,,,,,,,,,,,,,,,,290.6835,292.6351,0,0,1.4468,,0,40,40,29,1,1,cuban,,,,,,,,,,,,,,,,,,,,,,,,,,,,,,,,,,,,,,,,,,,,,,,,,,,,,,,,
,,,,,,,,,5dad4c34b3446a0015e3de93,Spanish,13 or older,"no, only English or Spanish",no,2025-08-14_23h08.35.235,empathy_intonation_perc,2024.2.4,Win32,144.9275362,5dad4c34b3446a0015e3de93,687ed1b7e638a4cbf2f02089,689ea48b63119d60d7859f59,,,,,,,,,,,,,39,1,,./stim/wavs/mexican_mismatch_interrogative-total-yn_Mi-tia-odia-la-lluvia.wav,,,,,,,,,,,,,,,,,,,,,,292.6355,294.8601,1,1,1.7159,,0,41,41,38,1,0,mexican,,,,,,,,,,,,,,,,,,,,,,,,,,,,,,,,,,,,,,,,,,,,,,,,,,,,,,,,
,,,,,,,,,5dad4c34b3446a0015e3de93,Spanish,13 or older,"no, only English or Spanish",no,2025-08-14_23h08.35.235,empathy_intonation_perc,2024.2.4,Win32,144.9275362,5dad4c34b3446a0015e3de93,687ed1b7e638a4cbf2f02089,689ea48b63119d60d7859f59,,,,,,,,,,,,,59,0,,./stim/wavs/mexican_match_declarative-broad-focus_David-leia-el-libro.wav,,,,,,,,,,,,,,,,,,,,,,294.8603,297.0517,0,1,1.6854,,0,42,42,58,1,0,mexican,,,,,,,,,,,,,,,,,,,,,,,,,,,,,,,,,,,,,,,,,,,,,,,,,,,,,,,,
,,,,,,,,,5dad4c34b3446a0015e3de93,Spanish,13 or older,"no, only English or Spanish",no,2025-08-14_23h08.35.235,empathy_intonation_perc,2024.2.4,Win32,144.9275362,5dad4c34b3446a0015e3de93,687ed1b7e638a4cbf2f02089,689ea48b63119d60d7859f59,,,,,,,,,,,,,83,0,,./stim/wavs/mexican_mismatch_declarative-broad-focus_Mi-tia-odia-la-lluvia.wav,,,,,,,,,,,,,,,,,,,,,,297.0519,299.0735,0,1,1.5141,,0,43,43,82,1,0,mexican,,,,,,,,,,,,,,,,,,,,,,,,,,,,,,,,,,,,,,,,,,,,,,,,,,,,,,,,
,,,,,,,,,5dad4c34b3446a0015e3de93,Spanish,13 or older,"no, only English or Spanish",no,2025-08-14_23h08.35.235,empathy_intonation_perc,2024.2.4,Win32,144.9275362,5dad4c34b3446a0015e3de93,687ed1b7e638a4cbf2f02089,689ea48b63119d60d7859f59,,,,,,,,,,,,,18,1,,./stim/wavs/mexican_match_interrogative-total-yn_Marta-abre-el-regalo.wav,,,,,,,,,,,,,,,,,,,,,,299.0738,301.1433,1,1,1.5523,,0,44,44,17,1,0,mexican,,,,,,,,,,,,,,,,,,,,,,,,,,,,,,,,,,,,,,,,,,,,,,,,,,,,,,,,
,,,,,,,,,5dad4c34b3446a0015e3de93,Spanish,13 or older,"no, only English or Spanish",no,2025-08-14_23h08.35.235,empathy_intonation_perc,2024.2.4,Win32,144.9275362,5dad4c34b3446a0015e3de93,687ed1b7e638a4cbf2f02089,689ea48b63119d60d7859f59,,,,,,,,,,,,,85,0,,./stim/wavs/puertorican_mismatch_declarative-broad-focus_El-hombre-mira-la-luna.wav,,,,,,,,,,,,,,,,,,,,,,301.1434,304.8174,0,1,3.1683,,0,45,45,84,1,0,puertorican,,,,,,,,,,,,,,,,,,,,,,,,,,,,,,,,,,,,,,,,,,,,,,,,,,,,,,,,
,,,,,,,,,5dad4c34b3446a0015e3de93,Spanish,13 or older,"no, only English or Spanish",no,2025-08-14_23h08.35.235,empathy_intonation_perc,2024.2.4,Win32,144.9275362,5dad4c34b3446a0015e3de93,687ed1b7e638a4cbf2f02089,689ea48b63119d60d7859f59,,,,,,,,,,,,,44,1,,./stim/wavs/puertorican_mismatch_interrogative-total-yn_Mi-madre-come-la-fruta.wav,,,,,,,,,,,,,,,,,,,,,,304.8178,307.0122,0,0,1.6839,,0,46,46,43,1,1,puertorican,,,,,,,,,,,,,,,,,,,,,,,,,,,,,,,,,,,,,,,,,,,,,,,,,,,,,,,,
,,,,,,,,,5dad4c34b3446a0015e3de93,Spanish,13 or older,"no, only English or Spanish",no,2025-08-14_23h08.35.235,empathy_intonation_perc,2024.2.4,Win32,144.9275362,5dad4c34b3446a0015e3de93,687ed1b7e638a4cbf2f02089,689ea48b63119d60d7859f59,,,,,,,,,,,,,73,0,,./stim/wavs/castilian_mismatch_declarative-broad-focus_Mi-tia-odia-la-lluvia.wav,,,,,,,,,,,,,,,,,,,,,,307.0124,310.9017,0,1,3.3805,,0,47,47,72,1,0,castilian,,,,,,,,,,,,,,,,,,,,,,,,,,,,,,,,,,,,,,,,,,,,,,,,,,,,,,,,
,,,,,,,,,5dad4c34b3446a0015e3de93,Spanish,13 or older,"no, only English or Spanish",no,2025-08-14_23h08.35.235,empathy_intonation_perc,2024.2.4,Win32,144.9275362,5dad4c34b3446a0015e3de93,687ed1b7e638a4cbf2f02089,689ea48b63119d60d7859f59,,,,,,,,,,,,,1,1,,./stim/wavs/castilian_match_interrogative-total-yn_David-leia-el-libro.wav,,,,,,,,,,,,,,,,,,,,,,310.9021,313.1311,1,1,1.7189,,0,48,48,0,1,0,castilian,,,,,,,,,,,,,,,,,,,,,,,,,,,,,,,,,,,,,,,,,,,,,,,,,,,,,,,,
,,,,,,,,,5dad4c34b3446a0015e3de93,Spanish,13 or older,"no, only English or Spanish",no,2025-08-14_23h08.35.235,empathy_intonation_perc,2024.2.4,Win32,144.9275362,5dad4c34b3446a0015e3de93,687ed1b7e638a4cbf2f02089,689ea48b63119d60d7859f59,,,,,,,,,,,,,65,0,,./stim/wavs/puertorican_match_declarative-broad-focus_David-leia-el-libro.wav,,,,,,,,,,,,,,,,,,,,,,313.1314,315.5689,0,1,1.9278,,0,49,49,64,1,0,puertorican,,,,,,,,,,,,,,,,,,,,,,,,,,,,,,,,,,,,,,,,,,,,,,,,,,,,,,,,
,,,,,,,,,5dad4c34b3446a0015e3de93,Spanish,13 or older,"no, only English or Spanish",no,2025-08-14_23h08.35.235,empathy_intonation_perc,2024.2.4,Win32,144.9275362,5dad4c34b3446a0015e3de93,687ed1b7e638a4cbf2f02089,689ea48b63119d60d7859f59,,,,,,,,,,,,,25,1,,./stim/wavs/castilian_mismatch_interrogative-total-yn_La-maestra-vive-en-Paris.wav,,,,,,,,,,,,,,,,,,,,,,315.5692,319.2438,1,1,3.1637,,0,50,50,24,1,0,castilian,,,,,,,,,,,,,,,,,,,,,,,,,,,,,,,,,,,,,,,,,,,,,,,,,,,,,,,,
,,,,,,,,,5dad4c34b3446a0015e3de93,Spanish,13 or older,"no, only English or Spanish",no,2025-08-14_23h08.35.235,empathy_intonation_perc,2024.2.4,Win32,144.9275362,5dad4c34b3446a0015e3de93,687ed1b7e638a4cbf2f02089,689ea48b63119d60d7859f59,,,,,,,,,,,,,5,1,,./stim/wavs/castilian_match_interrogative-total-yn_Mariano-habla-del-tiempo.wav,,,,,,,,,,,,,,,,,,,,,,319.2439,321.6695,1,1,1.9185,,0,51,51,4,1,0,castilian,,,,,,,,,,,,,,,,,,,,,,,,,,,,,,,,,,,,,,,,,,,,,,,,,,,,,,,,
,,,,,,,,,5dad4c34b3446a0015e3de93,Spanish,13 or older,"no, only English or Spanish",no,2025-08-14_23h08.35.235,empathy_intonation_perc,2024.2.4,Win32,144.9275362,5dad4c34b3446a0015e3de93,687ed1b7e638a4cbf2f02089,689ea48b63119d60d7859f59,,,,,,,,,,,,,58,0,,./stim/wavs/mexican_match_declarative-broad-focus_Daniel-iba-a-Bolivia.wav,,,,,,,,,,,,,,,,,,,,,,321.6696,323.8225,0,1,1.6462,,0,52,52,57,1,0,mexican,,,,,,,,,,,,,,,,,,,,,,,,,,,,,,,,,,,,,,,,,,,,,,,,,,,,,,,,
,,,,,,,,,5dad4c34b3446a0015e3de93,Spanish,13 or older,"no, only English or Spanish",no,2025-08-14_23h08.35.235,empathy_intonation_perc,2024.2.4,Win32,144.9275362,5dad4c34b3446a0015e3de93,687ed1b7e638a4cbf2f02089,689ea48b63119d60d7859f59,,,,,,,,,,,,,3,1,,./stim/wavs/castilian_match_interrogative-total-yn_Manuela-vende-el-carro.wav,,,,,,,,,,,,,,,,,,,,,,323.8225,326.0703,1,1,1.7359,,0,53,53,2,1,0,castilian,,,,,,,,,,,,,,,,,,,,,,,,,,,,,,,,,,,,,,,,,,,,,,,,,,,,,,,,
,,,,,,,,,5dad4c34b3446a0015e3de93,Spanish,13 or older,"no, only English or Spanish",no,2025-08-14_23h08.35.235,empathy_intonation_perc,2024.2.4,Win32,144.9275362,5dad4c34b3446a0015e3de93,687ed1b7e638a4cbf2f02089,689ea48b63119d60d7859f59,,,,,,,,,,,,,62,0,,./stim/wavs/mexican_match_declarative-broad-focus_Marta-abre-el-regalo.wav,,,,,,,,,,,,,,,,,,,,,,326.0705,328.0498,0,1,1.4667,,0,54,54,61,1,0,mexican,,,,,,,,,,,,,,,,,,,,,,,,,,,,,,,,,,,,,,,,,,,,,,,,,,,,,,,,
,,,,,,,,,5dad4c34b3446a0015e3de93,Spanish,13 or older,"no, only English or Spanish",no,2025-08-14_23h08.35.235,empathy_intonation_perc,2024.2.4,Win32,144.9275362,5dad4c34b3446a0015e3de93,687ed1b7e638a4cbf2f02089,689ea48b63119d60d7859f59,,,,,,,,,,,,,4,1,,./stim/wavs/castilian_match_interrogative-total-yn_Maria-bebe-el-vino.wav,,,,,,,,,,,,,,,,,,,,,,328.05,330.071,0,0,1.5153,,0,55,55,3,1,0,castilian,,,,,,,,,,,,,,,,,,,,,,,,,,,,,,,,,,,,,,,,,,,,,,,,,,,,,,,,
,,,,,,,,,5dad4c34b3446a0015e3de93,Spanish,13 or older,"no, only English or Spanish",no,2025-08-14_23h08.35.235,empathy_intonation_perc,2024.2.4,Win32,144.9275362,5dad4c34b3446a0015e3de93,687ed1b7e638a4cbf2f02089,689ea48b63119d60d7859f59,,,,,,,,,,,,,33,1,,./stim/wavs/cuban_mismatch_interrogative-total-yn_Mi-novio-viene-del-lago.wav,,,,,,,,,,,,,,,,,,,,,,330.0712,333.2381,0,0,2.6534,,0,56,56,32,1,1,cuban,,,,,,,,,,,,,,,,,,,,,,,,,,,,,,,,,,,,,,,,,,,,,,,,,,,,,,,,
,,,,,,,,,5dad4c34b3446a0015e3de93,Spanish,13 or older,"no, only English or Spanish",no,2025-08-14_23h08.35.235,empathy_intonation_perc,2024.2.4,Win32,144.9275362,5dad4c34b3446a0015e3de93,687ed1b7e638a4cbf2f02089,689ea48b63119d60d7859f59,,,,,,,,,,,,,11,1,,./stim/wavs/cuban_match_interrogative-total-yn_Mariano-habla-del-tiempo.wav,,,,,,,,,,,,,,,,,,,,,,333.2383,335.7246,0,0,1.9715,,0,57,57,10,1,1,cuban,,,,,,,,,,,,,,,,,,,,,,,,,,,,,,,,,,,,,,,,,,,,,,,,,,,,,,,,
,,,,,,,,,5dad4c34b3446a0015e3de93,Spanish,13 or older,"no, only English or Spanish",no,2025-08-14_23h08.35.235,empathy_intonation_perc,2024.2.4,Win32,144.9275362,5dad4c34b3446a0015e3de93,687ed1b7e638a4cbf2f02089,689ea48b63119d60d7859f59,,,,,,,,,,,,,16,1,,./stim/wavs/mexican_match_interrogative-total-yn_Emilio-ama-la-marcha.wav,,,,,,,,,,,,,,,,,,,,,,335.7247,337.8291,1,1,1.5935,,0,58,58,15,1,0,mexican,,,,,,,,,,,,,,,,,,,,,,,,,,,,,,,,,,,,,,,,,,,,,,,,,,,,,,,,
,,,,,,,,,5dad4c34b3446a0015e3de93,Spanish,13 or older,"no, only English or Spanish",no,2025-08-14_23h08.35.235,empathy_intonation_perc,2024.2.4,Win32,144.9275362,5dad4c34b3446a0015e3de93,687ed1b7e638a4cbf2f02089,689ea48b63119d60d7859f59,,,,,,,,,,,,,31,1,,./stim/wavs/cuban_mismatch_interrogative-total-yn_El-nino-oye-el-rio.wav,,,,,,,,,,,,,,,,,,,,,,337.8293,339.7755,0,0,1.4378,,0,59,59,30,1,1,cuban,,,,,,,,,,,,,,,,,,,,,,,,,,,,,,,,,,,,,,,,,,,,,,,,,,,,,,,,
,,,,,,,,,5dad4c34b3446a0015e3de93,Spanish,13 or older,"no, only English or Spanish",no,2025-08-14_23h08.35.235,empathy_intonation_perc,2024.2.4,Win32,144.9275362,5dad4c34b3446a0015e3de93,687ed1b7e638a4cbf2f02089,689ea48b63119d60d7859f59,,,,,,,,,,,,,82,0,,./stim/wavs/mexican_mismatch_declarative-broad-focus_Mi-novio-viene-del-lago.wav,,,,,,,,,,,,,,,,,,,,,,339.7757,342.1352,0,1,1.8493,,0,60,60,81,1,0,mexican,,,,,,,,,,,,,,,,,,,,,,,,,,,,,,,,,,,,,,,,,,,,,,,,,,,,,,,,
,,,,,,,,,5dad4c34b3446a0015e3de93,Spanish,13 or older,"no, only English or Spanish",no,2025-08-14_23h08.35.235,empathy_intonation_perc,2024.2.4,Win32,144.9275362,5dad4c34b3446a0015e3de93,687ed1b7e638a4cbf2f02089,689ea48b63119d60d7859f59,,,,,,,,,,,,,79,0,,./stim/wavs/mexican_mismatch_declarative-broad-focus_El-bebe-comia-muy-bien.wav,,,,,,,,,,,,,,,,,,,,,,342.1353,344.3578,0,1,1.716,,0,61,61,78,1,0,mexican,,,,,,,,,,,,,,,,,,,,,,,,,,,,,,,,,,,,,,,,,,,,,,,,,,,,,,,,
,,,,,,,,,5dad4c34b3446a0015e3de93,Spanish,13 or older,"no, only English or Spanish",no,2025-08-14_23h08.35.235,empathy_intonation_perc,2024.2.4,Win32,144.9275362,5dad4c34b3446a0015e3de93,687ed1b7e638a4cbf2f02089,689ea48b63119d60d7859f59,,,,,,,,,,,,,78,0,,./stim/wavs/cuban_mismatch_declarative-broad-focus_Mi-tia-odia-la-lluvia.wav,,,,,,,,,,,,,,,,,,,,,,344.358,346.7218,0,1,1.8546,,0,62,62,77,1,0,cuban,,,,,,,,,,,,,,,,,,,,,,,,,,,,,,,,,,,,,,,,,,,,,,,,,,,,,,,,
,,,,,,,,,5dad4c34b3446a0015e3de93,Spanish,13 or older,"no, only English or Spanish",no,2025-08-14_23h08.35.235,empathy_intonation_perc,2024.2.4,Win32,144.9275362,5dad4c34b3446a0015e3de93,687ed1b7e638a4cbf2f02089,689ea48b63119d60d7859f59,,,,,,,,,,,,,45,0,,./stim/wavs/castilian_match_declarative-broad-focus_David-leia-el-libro.wav,,,,,,,,,,,,,,,,,,,,,,346.7219,349.0529,0,1,1.8156,,0,63,63,44,1,0,castilian,,,,,,,,,,,,,,,,,,,,,,,,,,,,,,,,,,,,,,,,,,,,,,,,,,,,,,,,
,,,,,,,,,5dad4c34b3446a0015e3de93,Spanish,13 or older,"no, only English or Spanish",no,2025-08-14_23h08.35.235,empathy_intonation_perc,2024.2.4,Win32,144.9275362,5dad4c34b3446a0015e3de93,687ed1b7e638a4cbf2f02089,689ea48b63119d60d7859f59,,,,,,,,,,,,,20,1,,./stim/wavs/puertorican_match_interrogative-total-yn_Daniel-iba-a-Bolivia.wav,,,,,,,,,,,,,,,,,,,,,,349.0532,352.4006,0,0,2.8353,,0,64,64,19,1,1,puertorican,,,,,,,,,,,,,,,,,,,,,,,,,,,,,,,,,,,,,,,,,,,,,,,,,,,,,,,,
,,,,,,,,,5dad4c34b3446a0015e3de93,Spanish,13 or older,"no, only English or Spanish",no,2025-08-14_23h08.35.235,empathy_intonation_perc,2024.2.4,Win32,144.9275362,5dad4c34b3446a0015e3de93,687ed1b7e638a4cbf2f02089,689ea48b63119d60d7859f59,,,,,,,,,,,,,26,1,,./stim/wavs/castilian_mismatch_interrogative-total-yn_La-nina-lava-el-plato.wav,,,,,,,,,,,,,,,,,,,,,,352.4008,354.644,1,1,1.731,,0,65,65,25,1,0,castilian,,,,,,,,,,,,,,,,,,,,,,,,,,,,,,,,,,,,,,,,,,,,,,,,,,,,,,,,
,,,,,,,,,5dad4c34b3446a0015e3de93,Spanish,13 or older,"no, only English or Spanish",no,2025-08-14_23h08.35.235,empathy_intonation_perc,2024.2.4,Win32,144.9275362,5dad4c34b3446a0015e3de93,687ed1b7e638a4cbf2f02089,689ea48b63119d60d7859f59,,,,,,,,,,,,,8,1,,./stim/wavs/cuban_match_interrogative-total-yn_Daniel-iba-a-Bolivia.wav,,,,,,,,,,,,,,,,,,,,,,354.6441,357.8389,0,0,2.6866,,0,66,66,7,1,1,cuban,,,,,,,,,,,,,,,,,,,,,,,,,,,,,,,,,,,,,,,,,,,,,,,,,,,,,,,,
,,,,,,,,,5dad4c34b3446a0015e3de93,Spanish,13 or older,"no, only English or Spanish",no,2025-08-14_23h08.35.235,empathy_intonation_perc,2024.2.4,Win32,144.9275362,5dad4c34b3446a0015e3de93,687ed1b7e638a4cbf2f02089,689ea48b63119d60d7859f59,,,,,,,,,,,,,54,0,,./stim/wavs/cuban_match_declarative-broad-focus_Maria-bebe-el-vino.wav,,,,,,,,,,,,,,,,,,,,,,357.8392,361.2352,0,1,2.8926,,0,67,67,53,1,0,cuban,,,,,,,,,,,,,,,,,,,,,,,,,,,,,,,,,,,,,,,,,,,,,,,,,,,,,,,,
,,,,,,,,,5dad4c34b3446a0015e3de93,Spanish,13 or older,"no, only English or Spanish",no,2025-08-14_23h08.35.235,empathy_intonation_perc,2024.2.4,Win32,144.9275362,5dad4c34b3446a0015e3de93,687ed1b7e638a4cbf2f02089,689ea48b63119d60d7859f59,,,,,,,,,,,,,72,0,,./stim/wavs/castilian_mismatch_declarative-broad-focus_Mi-novio-viene-del-lago.wav,,,,,,,,,,,,,,,,,,,,,,361.2354,363.6385,0,1,1.9011,,0,68,68,71,1,0,castilian,,,,,,,,,,,,,,,,,,,,,,,,,,,,,,,,,,,,,,,,,,,,,,,,,,,,,,,,
,,,,,,,,,5dad4c34b3446a0015e3de93,Spanish,13 or older,"no, only English or Spanish",no,2025-08-14_23h08.35.235,empathy_intonation_perc,2024.2.4,Win32,144.9275362,5dad4c34b3446a0015e3de93,687ed1b7e638a4cbf2f02089,689ea48b63119d60d7859f59,,,,,,,,,,,,,29,1,,./stim/wavs/castilian_mismatch_interrogative-total-yn_Mi-tia-odia-la-lluvia.wav,,,,,,,,,,,,,,,,,,,,,,363.6388,366.0137,1,1,1.8606,,0,69,69,28,1,0,castilian,,,,,,,,,,,,,,,,,,,,,,,,,,,,,,,,,,,,,,,,,,,,,,,,,,,,,,,,
,,,,,,,,,5dad4c34b3446a0015e3de93,Spanish,13 or older,"no, only English or Spanish",no,2025-08-14_23h08.35.235,empathy_intonation_perc,2024.2.4,Win32,144.9275362,5dad4c34b3446a0015e3de93,687ed1b7e638a4cbf2f02089,689ea48b63119d60d7859f59,,,,,,,,,,,,,36,1,,./stim/wavs/mexican_mismatch_interrogative-total-yn_El-nino-oye-el-rio.wav,,,,,,,,,,,,,,,,,,,,,,366.0139,370.503,1,1,3.987,,0,70,70,35,1,0,mexican,,,,,,,,,,,,,,,,,,,,,,,,,,,,,,,,,,,,,,,,,,,,,,,,,,,,,,,,
,,,,,,,,,5dad4c34b3446a0015e3de93,Spanish,13 or older,"no, only English or Spanish",no,2025-08-14_23h08.35.235,empathy_intonation_perc,2024.2.4,Win32,144.9275362,5dad4c34b3446a0015e3de93,687ed1b7e638a4cbf2f02089,689ea48b63119d60d7859f59,,,,,,,,,,,,,7,1,,./stim/wavs/cuban_match_interrogative-total-yn_Ana-lleva-el-abrigo.wav,,,,,,,,,,,,,,,,,,,,,,370.5032,372.598,0,0,1.5808,,0,71,71,6,1,1,cuban,,,,,,,,,,,,,,,,,,,,,,,,,,,,,,,,,,,,,,,,,,,,,,,,,,,,,,,,
,,,,,,,,,5dad4c34b3446a0015e3de93,Spanish,13 or older,"no, only English or Spanish",no,2025-08-14_23h08.35.235,empathy_intonation_perc,2024.2.4,Win32,144.9275362,5dad4c34b3446a0015e3de93,687ed1b7e638a4cbf2f02089,689ea48b63119d60d7859f59,,,,,,,,,,,,,84,0,,./stim/wavs/puertorican_mismatch_declarative-broad-focus_El-bebe-comia-muy-bien.wav,,,,,,,,,,,,,,,,,,,,,,372.5981,374.6608,0,1,1.5504,,0,72,72,83,1,0,puertorican,,,,,,,,,,,,,,,,,,,,,,,,,,,,,,,,,,,,,,,,,,,,,,,,,,,,,,,,
,,,,,,,,,5dad4c34b3446a0015e3de93,Spanish,13 or older,"no, only English or Spanish",no,2025-08-14_23h08.35.235,empathy_intonation_perc,2024.2.4,Win32,144.9275362,5dad4c34b3446a0015e3de93,687ed1b7e638a4cbf2f02089,689ea48b63119d60d7859f59,,,,,,,,,,,,,88,0,,./stim/wavs/puertorican_mismatch_declarative-broad-focus_La-nina-lava-el-plato.wav,,,,,,,,,,,,,,,,,,,,,,374.661,376.8346,0,1,1.6659,,0,73,73,87,1,0,puertorican,,,,,,,,,,,,,,,,,,,,,,,,,,,,,,,,,,,,,,,,,,,,,,,,,,,,,,,,
,,,,,,,,,5dad4c34b3446a0015e3de93,Spanish,13 or older,"no, only English or Spanish",no,2025-08-14_23h08.35.235,empathy_intonation_perc,2024.2.4,Win32,144.9275362,5dad4c34b3446a0015e3de93,687ed1b7e638a4cbf2f02089,689ea48b63119d60d7859f59,,,,,,,,,,,,,77,0,,./stim/wavs/cuban_mismatch_declarative-broad-focus_Mi-novio-viene-del-lago.wav,,,,,,,,,,,,,,,,,,,,,,376.8347,378.9759,0,1,1.6392,,0,74,74,76,1,0,cuban,,,,,,,,,,,,,,,,,,,,,,,,,,,,,,,,,,,,,,,,,,,,,,,,,,,,,,,,
,,,,,,,,,5dad4c34b3446a0015e3de93,Spanish,13 or older,"no, only English or Spanish",no,2025-08-14_23h08.35.235,empathy_intonation_perc,2024.2.4,Win32,144.9275362,5dad4c34b3446a0015e3de93,687ed1b7e638a4cbf2f02089,689ea48b63119d60d7859f59,,,,,,,,,,,,,38,1,,./stim/wavs/mexican_mismatch_interrogative-total-yn_Mi-novio-viene-del-lago.wav,,,,,,,,,,,,,,,,,,,,,,378.9761,381.1479,1,1,1.6619,,0,75,75,37,1,0,mexican,,,,,,,,,,,,,,,,,,,,,,,,,,,,,,,,,,,,,,,,,,,,,,,,,,,,,,,,
,,,,,,,,,5dad4c34b3446a0015e3de93,Spanish,13 or older,"no, only English or Spanish",no,2025-08-14_23h08.35.235,empathy_intonation_perc,2024.2.4,Win32,144.9275362,5dad4c34b3446a0015e3de93,687ed1b7e638a4cbf2f02089,689ea48b63119d60d7859f59,,,,,,,,,,,,,76,0,,./stim/wavs/cuban_mismatch_declarative-broad-focus_La-nina-lava-el-plato.wav,,,,,,,,,,,,,,,,,,,,,,381.1481,383.1887,0,1,1.5315,,0,76,76,75,1,0,cuban,,,,,,,,,,,,,,,,,,,,,,,,,,,,,,,,,,,,,,,,,,,,,,,,,,,,,,,,
,,,,,,,,,5dad4c34b3446a0015e3de93,Spanish,13 or older,"no, only English or Spanish",no,2025-08-14_23h08.35.235,empathy_intonation_perc,2024.2.4,Win32,144.9275362,5dad4c34b3446a0015e3de93,687ed1b7e638a4cbf2f02089,689ea48b63119d60d7859f59,,,,,,,,,,,,,67,0,,./stim/wavs/puertorican_match_declarative-broad-focus_Manuela-vende-el-carro.wav,,,,,,,,,,,,,,,,,,,,,,383.1888,385.5998,0,1,1.9038,,0,77,77,66,1,0,puertorican,,,,,,,,,,,,,,,,,,,,,,,,,,,,,,,,,,,,,,,,,,,,,,,,,,,,,,,,
,,,,,,,,,5dad4c34b3446a0015e3de93,Spanish,13 or older,"no, only English or Spanish",no,2025-08-14_23h08.35.235,empathy_intonation_perc,2024.2.4,Win32,144.9275362,5dad4c34b3446a0015e3de93,687ed1b7e638a4cbf2f02089,689ea48b63119d60d7859f59,,,,,,,,,,,,,14,1,,./stim/wavs/mexican_match_interrogative-total-yn_Daniel-iba-a-Bolivia.wav,,,,,,,,,,,,,,,,,,,,,,385.6,387.7625,1,1,1.6519,,0,78,78,13,1,0,mexican,,,,,,,,,,,,,,,,,,,,,,,,,,,,,,,,,,,,,,,,,,,,,,,,,,,,,,,,
,,,,,,,,,5dad4c34b3446a0015e3de93,Spanish,13 or older,"no, only English or Spanish",no,2025-08-14_23h08.35.235,empathy_intonation_perc,2024.2.4,Win32,144.9275362,5dad4c34b3446a0015e3de93,687ed1b7e638a4cbf2f02089,689ea48b63119d60d7859f59,,,,,,,,,,,,,55,0,,./stim/wavs/cuban_match_declarative-broad-focus_Mariano-habla-del-tiempo.wav,,,,,,,,,,,,,,,,,,,,,,387.7627,390.2186,0,1,1.9419,,0,79,79,54,1,0,cuban,,,,,,,,,,,,,,,,,,,,,,,,,,,,,,,,,,,,,,,,,,,,,,,,,,,,,,,,
,,,,,,,,,5dad4c34b3446a0015e3de93,Spanish,13 or older,"no, only English or Spanish",no,2025-08-14_23h08.35.235,empathy_intonation_perc,2024.2.4,Win32,144.9275362,5dad4c34b3446a0015e3de93,687ed1b7e638a4cbf2f02089,689ea48b63119d60d7859f59,,,,,,,,,,,,,35,1,,./stim/wavs/mexican_mismatch_interrogative-total-yn_El-hombre-mira-la-luna.wav,,,,,,,,,,,,,,,,,,,,,,390.2188,392.1563,1,1,1.4285,,0,80,80,34,1,0,mexican,,,,,,,,,,,,,,,,,,,,,,,,,,,,,,,,,,,,,,,,,,,,,,,,,,,,,,,,
,,,,,,,,,5dad4c34b3446a0015e3de93,Spanish,13 or older,"no, only English or Spanish",no,2025-08-14_23h08.35.235,empathy_intonation_perc,2024.2.4,Win32,144.9275362,5dad4c34b3446a0015e3de93,687ed1b7e638a4cbf2f02089,689ea48b63119d60d7859f59,,,,,,,,,,,,,2,1,,./stim/wavs/castilian_match_interrogative-total-yn_Emilio-ama-la-marcha.wav,,,,,,,,,,,,,,,,,,,,,,392.1565,394.2053,1,1,1.544,,0,81,81,1,1,0,castilian,,,,,,,,,,,,,,,,,,,,,,,,,,,,,,,,,,,,,,,,,,,,,,,,,,,,,,,,
,,,,,,,,,5dad4c34b3446a0015e3de93,Spanish,13 or older,"no, only English or Spanish",no,2025-08-14_23h08.35.235,empathy_intonation_perc,2024.2.4,Win32,144.9275362,5dad4c34b3446a0015e3de93,687ed1b7e638a4cbf2f02089,689ea48b63119d60d7859f59,,,,,,,,,,,,,70,0,,./stim/wavs/castilian_mismatch_declarative-broad-focus_La-maestra-vive-en-Paris.wav,,,,,,,,,,,,,,,,,,,,,,394.2055,396.6658,0,1,1.944,,0,82,82,69,1,0,castilian,,,,,,,,,,,,,,,,,,,,,,,,,,,,,,,,,,,,,,,,,,,,,,,,,,,,,,,,
,,,,,,,,,5dad4c34b3446a0015e3de93,Spanish,13 or older,"no, only English or Spanish",no,2025-08-14_23h08.35.235,empathy_intonation_perc,2024.2.4,Win32,144.9275362,5dad4c34b3446a0015e3de93,687ed1b7e638a4cbf2f02089,689ea48b63119d60d7859f59,,,,,,,,,,,,,51,0,,./stim/wavs/cuban_match_declarative-broad-focus_Ana-lleva-el-abrigo.wav,,,,,,,,,,,,,,,,,,,,,,396.666,398.7337,0,1,1.5532,,0,83,83,50,1,0,cuban,,,,,,,,,,,,,,,,,,,,,,,,,,,,,,,,,,,,,,,,,,,,,,,,,,,,,,,,
,,,,,,,,,5dad4c34b3446a0015e3de93,Spanish,13 or older,"no, only English or Spanish",no,2025-08-14_23h08.35.235,empathy_intonation_perc,2024.2.4,Win32,144.9275362,5dad4c34b3446a0015e3de93,687ed1b7e638a4cbf2f02089,689ea48b63119d60d7859f59,,,,,,,,,,,,,19,1,,./stim/wavs/puertorican_match_interrogative-total-yn_Ana-lleva-el-abrigo.wav,,,,,,,,,,,,,,,,,,,,,,398.7341,401.2132,0,0,1.9656,,0,84,84,18,1,1,puertorican,,,,,,,,,,,,,,,,,,,,,,,,,,,,,,,,,,,,,,,,,,,,,,,,,,,,,,,,
,,,,,,,,,5dad4c34b3446a0015e3de93,Spanish,13 or older,"no, only English or Spanish",no,2025-08-14_23h08.35.235,empathy_intonation_perc,2024.2.4,Win32,144.9275362,5dad4c34b3446a0015e3de93,687ed1b7e638a4cbf2f02089,689ea48b63119d60d7859f59,,,,,,,,,,,,,63,0,,./stim/wavs/puertorican_match_declarative-broad-focus_Ana-lleva-el-abrigo.wav,,,,,,,,,,,,,,,,,,,,,,401.2134,403.0121,0,1,1.2862,,0,85,85,62,1,0,puertorican,,,,,,,,,,,,,,,,,,,,,,,,,,,,,,,,,,,,,,,,,,,,,,,,,,,,,,,,
,,,,,,,,,5dad4c34b3446a0015e3de93,Spanish,13 or older,"no, only English or Spanish",no,2025-08-14_23h08.35.235,empathy_intonation_perc,2024.2.4,Win32,144.9275362,5dad4c34b3446a0015e3de93,687ed1b7e638a4cbf2f02089,689ea48b63119d60d7859f59,,,,,,,,,,,,,61,0,,./stim/wavs/mexican_match_declarative-broad-focus_Mariano-habla-del-tiempo.wav,,,,,,,,,,,,,,,,,,,,,,403.0124,405.1791,0,1,1.6539,,0,86,86,60,1,0,mexican,,,,,,,,,,,,,,,,,,,,,,,,,,,,,,,,,,,,,,,,,,,,,,,,,,,,,,,,
,,,,,,,,,5dad4c34b3446a0015e3de93,Spanish,13 or older,"no, only English or Spanish",no,2025-08-14_23h08.35.235,empathy_intonation_perc,2024.2.4,Win32,144.9275362,5dad4c34b3446a0015e3de93,687ed1b7e638a4cbf2f02089,689ea48b63119d60d7859f59,,,,,,,,,,,,,9,1,,./stim/wavs/cuban_match_interrogative-total-yn_Manuela-vende-el-carro.wav,,,,,,,,,,,,,,,,,,,,,,405.1792,407.7429,0,0,2.0497,,0,87,87,8,1,1,cuban,,,,,,,,,,,,,,,,,,,,,,,,,,,,,,,,,,,,,,,,,,,,,,,,,,,,,,,,
,,,,,,,"Great! Now we will move on. The next task consists of about 60 trials, in each of which you will see a string of letters. 
  
  Your task is to decide whether this is a real Spanish word or not.", (press the spacebar to continue),5dad4c34b3446a0015e3de93,Spanish,13 or older,"no, only English or Spanish",no,2025-08-14_23h08.35.235,empathy_intonation_perc,2024.2.4,Win32,144.9275362,5dad4c34b3446a0015e3de93,687ed1b7e638a4cbf2f02089,689ea48b63119d60d7859f59,,,,,,,,,,,,,,,,,,,,,,,,,,,,,,,,,,,,,,,,,,,,,,,,,,,407.7448,416.9171,0,0,0,0,1,,,,,,,,,,,,,,,,,,,,,,,,,,,,,,,,,,,,,,,,,,,,,,,,,
,,,,,,,"If you think it is an existing Spanish word, you type '1' (for 'REAL'), and if you think it is not an existing Spanish word, you type '0' (for 'FAKE').", (press the spacebar to continue),5dad4c34b3446a0015e3de93,Spanish,13 or older,"no, only English or Spanish",no,2025-08-14_23h08.35.235,empathy_intonation_perc,2024.2.4,Win32,144.9275362,5dad4c34b3446a0015e3de93,687ed1b7e638a4cbf2f02089,689ea48b63119d60d7859f59,,,,,,,,,,,,,,,,,,,,,,,,,,,,,,,,,,,,,,,,,,,,,,,,,,,416.9184,418.9241,0,1,1,1,1,,,,,,,,,,,,,,,,,,,,,,,,,,,,,,,,,,,,,,,,,,,,,,,,,
,,,,,,,"If you are sure that the word exists, even though you don’t know its exact meaning, you may still respond '1' (REAL). 
  
  But if you are not sure if it is an existing word, you should respond '0' (FAKE).
  
  Let's do a practice round...", (press the spacebar to continue),5dad4c34b3446a0015e3de93,Spanish,13 or older,"no, only English or Spanish",no,2025-08-14_23h08.35.235,empathy_intonation_perc,2024.2.4,Win32,144.9275362,5dad4c34b3446a0015e3de93,687ed1b7e638a4cbf2f02089,689ea48b63119d60d7859f59,,,,,,,,,,,,,,,,,,,,,,,,,,,,,,,,,,,,,,,,,,,,,,,,,,,418.9247,431.2524,0,2,2,2,1,,,,,,,,,,,,,,,,,,,,,,,,,,,,,,,,,,,,,,,,,,,,,,,,,
,,,,,,,,,5dad4c34b3446a0015e3de93,Spanish,13 or older,"no, only English or Spanish",no,2025-08-14_23h08.35.235,empathy_intonation_perc,2024.2.4,Win32,144.9275362,5dad4c34b3446a0015e3de93,687ed1b7e638a4cbf2f02089,689ea48b63119d60d7859f59,,,,,,,,,,,,,,0,,,,,,,,,,,,,,,,,,,,,,,,,,,,,,,,,,,,,,,,,,,,431.2542,433.2874,0,1,1.5143,,433.2875,434.2876,0,0,0,0,1,0,depiste,REAL,FAKE,,,,,,,,,,,,,,,,,,,,,,,,,,,,,,,,
,,,,,,,,,5dad4c34b3446a0015e3de93,Spanish,13 or older,"no, only English or Spanish",no,2025-08-14_23h08.35.235,empathy_intonation_perc,2024.2.4,Win32,144.9275362,5dad4c34b3446a0015e3de93,687ed1b7e638a4cbf2f02089,689ea48b63119d60d7859f59,,,,,,,,,,,,,,1,,,,,,,,,,,,,,,,,,,,,,,,,,,,,,,,,,,,,,,,,,,,434.2884,435.6001,1,1,0.7932,,435.6001,436.6003,0,1,1,1,1,0,sí,REAL,FAKE,,,,,,,,,,,,,,,,,,,,,,,,,,,,,,,,
,,,,,,,,,5dad4c34b3446a0015e3de93,Spanish,13 or older,"no, only English or Spanish",no,2025-08-14_23h08.35.235,empathy_intonation_perc,2024.2.4,Win32,144.9275362,5dad4c34b3446a0015e3de93,687ed1b7e638a4cbf2f02089,689ea48b63119d60d7859f59,,,,,,,,,,,,,,0,,,,,,,,,,,,,,,,,,,,,,,,,,,,,,,,,,,,,,,,,,,,436.6008,439.5073,0,1,2.3977,,439.5073,440.5036,0,2,2,2,1,0,coné,REAL,FAKE,,,,,,,,,,,,,,,,,,,,,,,,,,,,,,,,
,,,,,,,,,5dad4c34b3446a0015e3de93,Spanish,13 or older,"no, only English or Spanish",no,2025-08-14_23h08.35.235,empathy_intonation_perc,2024.2.4,Win32,144.9275362,5dad4c34b3446a0015e3de93,687ed1b7e638a4cbf2f02089,689ea48b63119d60d7859f59,,,,,,,,,,,,,,0,,,,,,,,,,,,,,,,,,,,,,,,,,,,,,,,,,,,,,,,,,,,440.504,441.8232,0,1,0.8023,,441.8232,442.8186,0,3,3,3,1,0,calpar,REAL,FAKE,,,,,,,,,,,,,,,,,,,,,,,,,,,,,,,,
,,,,,,,,,5dad4c34b3446a0015e3de93,Spanish,13 or older,"no, only English or Spanish",no,2025-08-14_23h08.35.235,empathy_intonation_perc,2024.2.4,Win32,144.9275362,5dad4c34b3446a0015e3de93,687ed1b7e638a4cbf2f02089,689ea48b63119d60d7859f59,,,,,,,,,,,,,,0,,,,,,,,,,,,,,,,,,,,,,,,,,,,,,,,,,,,,,,,,,,,442.819,444.7473,0,1,1.4141,,444.7473,445.7474,0,4,4,4,1,0,joten,REAL,FAKE,,,,,,,,,,,,,,,,,,,,,,,,,,,,,,,,
,,,,,,,,,5dad4c34b3446a0015e3de93,Spanish,13 or older,"no, only English or Spanish",no,2025-08-14_23h08.35.235,empathy_intonation_perc,2024.2.4,Win32,144.9275362,5dad4c34b3446a0015e3de93,687ed1b7e638a4cbf2f02089,689ea48b63119d60d7859f59,,,,,,,,,,,,,,1,,,,,,,,,,,,,,,,,,,,,,,,,,,,,,,,,,,,,,,,,,,,445.7478,447.2639,1,1,1,,447.2639,448.264,0,5,5,5,1,0,sacapuntas,REAL,FAKE,,,,,,,,,,,,,,,,,,,,,,,,,,,,,,,,
,,,,,,,,,5dad4c34b3446a0015e3de93,Spanish,13 or older,"no, only English or Spanish",no,2025-08-14_23h08.35.235,empathy_intonation_perc,2024.2.4,Win32,144.9275362,5dad4c34b3446a0015e3de93,687ed1b7e638a4cbf2f02089,689ea48b63119d60d7859f59,,,,,,,,,,,,,,0,,,,,,,,,,,,,,,,,,,,,,,,,,,,,,,,,,,,,,,,,,,,448.2647,449.8799,0,1,1.0978,,449.8799,450.8773,0,6,6,6,1,0,priba,REAL,FAKE,,,,,,,,,,,,,,,,,,,,,,,,,,,,,,,,
,,,,,,,,,5dad4c34b3446a0015e3de93,Spanish,13 or older,"no, only English or Spanish",no,2025-08-14_23h08.35.235,empathy_intonation_perc,2024.2.4,Win32,144.9275362,5dad4c34b3446a0015e3de93,687ed1b7e638a4cbf2f02089,689ea48b63119d60d7859f59,,,,,,,,,,,,,,0,,,,,,,,,,,,,,,,,,,,,,,,,,,,,,,,,,,,,,,,,,,,450.8777,453.3318,0,1,1.9377,,453.3318,454.332,0,7,7,7,1,0,pelasula,REAL,FAKE,,,,,,,,,,,,,,,,,,,,,,,,,,,,,,,,
,,,,,,,,,5dad4c34b3446a0015e3de93,Spanish,13 or older,"no, only English or Spanish",no,2025-08-14_23h08.35.235,empathy_intonation_perc,2024.2.4,Win32,144.9275362,5dad4c34b3446a0015e3de93,687ed1b7e638a4cbf2f02089,689ea48b63119d60d7859f59,,,,,,,,,,,,,,1,,,,,,,,,,,,,,,,,,,,,,,,,,,,,,,,,,,,,,,,,,,,454.3323,456.7283,1,1,1.8849,,456.7283,457.7284,0,8,8,8,1,0,bien,REAL,FAKE,,,,,,,,,,,,,,,,,,,,,,,,,,,,,,,,
,,,,,,,,,5dad4c34b3446a0015e3de93,Spanish,13 or older,"no, only English or Spanish",no,2025-08-14_23h08.35.235,empathy_intonation_perc,2024.2.4,Win32,144.9275362,5dad4c34b3446a0015e3de93,687ed1b7e638a4cbf2f02089,689ea48b63119d60d7859f59,,,,,,,,,,,,,,1,,,,,,,,,,,,,,,,,,,,,,,,,,,,,,,,,,,,,,,,,,,,457.7288,459.7355,1,1,1.4965,,459.7356,460.7359,0,9,9,9,1,0,casa,REAL,FAKE,,,,,,,,,,,,,,,,,,,,,,,,,,,,,,,,
,,,,,,,,,5dad4c34b3446a0015e3de93,Spanish,13 or older,"no, only English or Spanish",no,2025-08-14_23h08.35.235,empathy_intonation_perc,2024.2.4,Win32,144.9275362,5dad4c34b3446a0015e3de93,687ed1b7e638a4cbf2f02089,689ea48b63119d60d7859f59,,,,,,,,,,,,,,0,,,,,,,,,,,,,,,,,,,,,,,,,,,,,,,,,,,,,,,,,,,,460.7362,462.0068,0,1,0.7566,,462.0069,463.0069,0,10,10,10,1,0,lejo,REAL,FAKE,,,,,,,,,,,,,,,,,,,,,,,,,,,,,,,,
,,,,,,,,,5dad4c34b3446a0015e3de93,Spanish,13 or older,"no, only English or Spanish",no,2025-08-14_23h08.35.235,empathy_intonation_perc,2024.2.4,Win32,144.9275362,5dad4c34b3446a0015e3de93,687ed1b7e638a4cbf2f02089,689ea48b63119d60d7859f59,,,,,,,,,,,,,,0,,,,,,,,,,,,,,,,,,,,,,,,,,,,,,,,,,,,,,,,,,,,463.0073,464.8196,0,1,1.3002,,464.8196,465.8198,0,11,11,11,1,0,pretantas,REAL,FAKE,,,,,,,,,,,,,,,,,,,,,,,,,,,,,,,,
,,,,,,,,,5dad4c34b3446a0015e3de93,Spanish,13 or older,"no, only English or Spanish",no,2025-08-14_23h08.35.235,empathy_intonation_perc,2024.2.4,Win32,144.9275362,5dad4c34b3446a0015e3de93,687ed1b7e638a4cbf2f02089,689ea48b63119d60d7859f59,,,,,,,,,,,,,,,,,,,,,,,,,,,,,,,,,,,,,,,,,,,,,,,,,,,,,,,,,,,,,,,,,,,,,,,,,,,465.8199,466.695,,,,,,,,,,,,,,,,,,,,,,,,,,,,,,
,,,,,,,,,5dad4c34b3446a0015e3de93,Spanish,13 or older,"no, only English or Spanish",no,2025-08-14_23h08.35.235,empathy_intonation_perc,2024.2.4,Win32,144.9275362,5dad4c34b3446a0015e3de93,687ed1b7e638a4cbf2f02089,689ea48b63119d60d7859f59,,,,,,,,,,,,,,1,,,,,,,,,,,,,,,,,,,,,,,,,,,,,,,,,,,,,,,,,,,,,,,,,,,,,,,,,88,acantilado,,,,,466.6984,469.6608,0,0,2.4506,,0,0,0,87,1,REAL,FAKE,,,,,,,,,,,,,,,,,
,,,,,,,,,5dad4c34b3446a0015e3de93,Spanish,13 or older,"no, only English or Spanish",no,2025-08-14_23h08.35.235,empathy_intonation_perc,2024.2.4,Win32,144.9275362,5dad4c34b3446a0015e3de93,687ed1b7e638a4cbf2f02089,689ea48b63119d60d7859f59,,,,,,,,,,,,,,0,,,,,,,,,,,,,,,,,,,,,,,,,,,,,,,,,,,,,,,,,,,,,,,,,,,,,,,,,10,antar,,,,,469.6612,471.7303,0,1,1.5536,,0,1,1,9,1,REAL,FAKE,,,,,,,,,,,,,,,,,
,,,,,,,,,5dad4c34b3446a0015e3de93,Spanish,13 or older,"no, only English or Spanish",no,2025-08-14_23h08.35.235,empathy_intonation_perc,2024.2.4,Win32,144.9275362,5dad4c34b3446a0015e3de93,687ed1b7e638a4cbf2f02089,689ea48b63119d60d7859f59,,,,,,,,,,,,,,0,,,,,,,,,,,,,,,,,,,,,,,,,,,,,,,,,,,,,,,,,,,,,,,,,,,,,,,,,87,grodo,,,,,471.7307,473.0916,0,1,0.8509,,0,2,2,86,1,REAL,FAKE,,,,,,,,,,,,,,,,,
,,,,,,,,,5dad4c34b3446a0015e3de93,Spanish,13 or older,"no, only English or Spanish",no,2025-08-14_23h08.35.235,empathy_intonation_perc,2024.2.4,Win32,144.9275362,5dad4c34b3446a0015e3de93,687ed1b7e638a4cbf2f02089,689ea48b63119d60d7859f59,,,,,,,,,,,,,,1,,,,,,,,,,,,,,,,,,,,,,,,,,,,,,,,,,,,,,,,,,,,,,,,,,,,,,,,,26,secuestro,,,,,473.0921,475.2447,0,0,1.6382,,0,3,3,25,1,REAL,FAKE,,,,,,,,,,,,,,,,,
,,,,,,,,,5dad4c34b3446a0015e3de93,Spanish,13 or older,"no, only English or Spanish",no,2025-08-14_23h08.35.235,empathy_intonation_perc,2024.2.4,Win32,144.9275362,5dad4c34b3446a0015e3de93,687ed1b7e638a4cbf2f02089,689ea48b63119d60d7859f59,,,,,,,,,,,,,,0,,,,,,,,,,,,,,,,,,,,,,,,,,,,,,,,,,,,,,,,,,,,,,,,,,,,,,,,,58,plaudir,,,,,475.245,479.3356,0,1,3.5762,,0,4,4,57,1,REAL,FAKE,,,,,,,,,,,,,,,,,
,,,,,,,,,5dad4c34b3446a0015e3de93,Spanish,13 or older,"no, only English or Spanish",no,2025-08-14_23h08.35.235,empathy_intonation_perc,2024.2.4,Win32,144.9275362,5dad4c34b3446a0015e3de93,687ed1b7e638a4cbf2f02089,689ea48b63119d60d7859f59,,,,,,,,,,,,,,1,,,,,,,,,,,,,,,,,,,,,,,,,,,,,,,,,,,,,,,,,,,,,,,,,,,,,,,,,51,candado,,,,,479.336,481.4956,0,0,1.6492,,0,5,5,50,1,REAL,FAKE,,,,,,,,,,,,,,,,,
,,,,,,,,,5dad4c34b3446a0015e3de93,Spanish,13 or older,"no, only English or Spanish",no,2025-08-14_23h08.35.235,empathy_intonation_perc,2024.2.4,Win32,144.9275362,5dad4c34b3446a0015e3de93,687ed1b7e638a4cbf2f02089,689ea48b63119d60d7859f59,,,,,,,,,,,,,,0,,,,,,,,,,,,,,,,,,,,,,,,,,,,,,,,,,,,,,,,,,,,,,,,,,,,,,,,,79,tropaje,,,,,481.496,483.0378,0,1,1.0206,,0,6,6,78,1,REAL,FAKE,,,,,,,,,,,,,,,,,
,,,,,,,,,5dad4c34b3446a0015e3de93,Spanish,13 or older,"no, only English or Spanish",no,2025-08-14_23h08.35.235,empathy_intonation_perc,2024.2.4,Win32,144.9275362,5dad4c34b3446a0015e3de93,687ed1b7e638a4cbf2f02089,689ea48b63119d60d7859f59,,,,,,,,,,,,,,0,,,,,,,,,,,,,,,,,,,,,,,,,,,,,,,,,,,,,,,,,,,,,,,,,,,,,,,,,74,cintro,,,,,483.0381,485.2323,0,1,1.6753,,0,7,7,73,1,REAL,FAKE,,,,,,,,,,,,,,,,,
,,,,,,,,,5dad4c34b3446a0015e3de93,Spanish,13 or older,"no, only English or Spanish",no,2025-08-14_23h08.35.235,empathy_intonation_perc,2024.2.4,Win32,144.9275362,5dad4c34b3446a0015e3de93,687ed1b7e638a4cbf2f02089,689ea48b63119d60d7859f59,,,,,,,,,,,,,,0,,,,,,,,,,,,,,,,,,,,,,,,,,,,,,,,,,,,,,,,,,,,,,,,,,,,,,,,,1,terzo,,,,,485.2327,486.3994,0,1,0.6486,,0,8,8,0,1,REAL,FAKE,,,,,,,,,,,,,,,,,
,,,,,,,,,5dad4c34b3446a0015e3de93,Spanish,13 or older,"no, only English or Spanish",no,2025-08-14_23h08.35.235,empathy_intonation_perc,2024.2.4,Win32,144.9275362,5dad4c34b3446a0015e3de93,687ed1b7e638a4cbf2f02089,689ea48b63119d60d7859f59,,,,,,,,,,,,,,1,,,,,,,,,,,,,,,,,,,,,,,,,,,,,,,,,,,,,,,,,,,,,,,,,,,,,,,,,90,clavel,,,,,486.3999,488.5038,0,0,1.588,,0,9,9,89,1,REAL,FAKE,,,,,,,,,,,,,,,,,
,,,,,,,,,5dad4c34b3446a0015e3de93,Spanish,13 or older,"no, only English or Spanish",no,2025-08-14_23h08.35.235,empathy_intonation_perc,2024.2.4,Win32,144.9275362,5dad4c34b3446a0015e3de93,687ed1b7e638a4cbf2f02089,689ea48b63119d60d7859f59,,,,,,,,,,,,,,1,,,,,,,,,,,,,,,,,,,,,,,,,,,,,,,,,,,,,,,,,,,,,,,,,,,,,,,,,55,nevar,,,,,488.5044,490.6637,0,0,1.6489,,0,10,10,54,1,REAL,FAKE,,,,,,,,,,,,,,,,,
,,,,,,,,,5dad4c34b3446a0015e3de93,Spanish,13 or older,"no, only English or Spanish",no,2025-08-14_23h08.35.235,empathy_intonation_perc,2024.2.4,Win32,144.9275362,5dad4c34b3446a0015e3de93,687ed1b7e638a4cbf2f02089,689ea48b63119d60d7859f59,,,,,,,,,,,,,,1,,,,,,,,,,,,,,,,,,,,,,,,,,,,,,,,,,,,,,,,,,,,,,,,,,,,,,,,,69,engatusar,,,,,490.664,492.3791,0,0,1.194,,0,11,11,68,1,REAL,FAKE,,,,,,,,,,,,,,,,,
,,,,,,,,,5dad4c34b3446a0015e3de93,Spanish,13 or older,"no, only English or Spanish",no,2025-08-14_23h08.35.235,empathy_intonation_perc,2024.2.4,Win32,144.9275362,5dad4c34b3446a0015e3de93,687ed1b7e638a4cbf2f02089,689ea48b63119d60d7859f59,,,,,,,,,,,,,,1,,,,,,,,,,,,,,,,,,,,,,,,,,,,,,,,,,,,,,,,,,,,,,,,,,,,,,,,,86,barato,,,,,492.3795,494.5739,0,0,1.6782,,0,12,12,85,1,REAL,FAKE,,,,,,,,,,,,,,,,,
,,,,,,,,,5dad4c34b3446a0015e3de93,Spanish,13 or older,"no, only English or Spanish",no,2025-08-14_23h08.35.235,empathy_intonation_perc,2024.2.4,Win32,144.9275362,5dad4c34b3446a0015e3de93,687ed1b7e638a4cbf2f02089,689ea48b63119d60d7859f59,,,,,,,,,,,,,,1,,,,,,,,,,,,,,,,,,,,,,,,,,,,,,,,,,,,,,,,,,,,,,,,,,,,,,,,,68,alegre,,,,,494.5744,496.1948,0,0,1.1046,,0,13,13,67,1,REAL,FAKE,,,,,,,,,,,,,,,,,
,,,,,,,,,5dad4c34b3446a0015e3de93,Spanish,13 or older,"no, only English or Spanish",no,2025-08-14_23h08.35.235,empathy_intonation_perc,2024.2.4,Win32,144.9275362,5dad4c34b3446a0015e3de93,687ed1b7e638a4cbf2f02089,689ea48b63119d60d7859f59,,,,,,,,,,,,,,1,,,,,,,,,,,,,,,,,,,,,,,,,,,,,,,,,,,,,,,,,,,,,,,,,,,,,,,,,2,pellizcar,,,,,496.1951,497.5952,0,0,0.8866,,0,14,14,1,1,REAL,FAKE,,,,,,,,,,,,,,,,,
,,,,,,,,,5dad4c34b3446a0015e3de93,Spanish,13 or older,"no, only English or Spanish",no,2025-08-14_23h08.35.235,empathy_intonation_perc,2024.2.4,Win32,144.9275362,5dad4c34b3446a0015e3de93,687ed1b7e638a4cbf2f02089,689ea48b63119d60d7859f59,,,,,,,,,,,,,,1,,,,,,,,,,,,,,,,,,,,,,,,,,,,,,,,,,,,,,,,,,,,,,,,,,,,,,,,,54,fomentar,,,,,497.5955,499.4217,0,0,1.3067,,0,15,15,53,1,REAL,FAKE,,,,,,,,,,,,,,,,,
,,,,,,,,,5dad4c34b3446a0015e3de93,Spanish,13 or older,"no, only English or Spanish",no,2025-08-14_23h08.35.235,empathy_intonation_perc,2024.2.4,Win32,144.9275362,5dad4c34b3446a0015e3de93,687ed1b7e638a4cbf2f02089,689ea48b63119d60d7859f59,,,,,,,,,,,,,,1,,,,,,,,,,,,,,,,,,,,,,,,,,,,,,,,,,,,,,,,,,,,,,,,,,,,,,,,,39,torpe,,,,,499.4221,500.9568,0,0,1.0171,,0,16,16,38,1,REAL,FAKE,,,,,,,,,,,,,,,,,
,,,,,,,,,5dad4c34b3446a0015e3de93,Spanish,13 or older,"no, only English or Spanish",no,2025-08-14_23h08.35.235,empathy_intonation_perc,2024.2.4,Win32,144.9275362,5dad4c34b3446a0015e3de93,687ed1b7e638a4cbf2f02089,689ea48b63119d60d7859f59,,,,,,,,,,,,,,0,,,,,,,,,,,,,,,,,,,,,,,,,,,,,,,,,,,,,,,,,,,,,,,,,,,,,,,,,30,alardio,,,,,500.9571,502.7972,0,1,1.3261,,0,17,17,29,1,REAL,FAKE,,,,,,,,,,,,,,,,,
,,,,,,,,,5dad4c34b3446a0015e3de93,Spanish,13 or older,"no, only English or Spanish",no,2025-08-14_23h08.35.235,empathy_intonation_perc,2024.2.4,Win32,144.9275362,5dad4c34b3446a0015e3de93,687ed1b7e638a4cbf2f02089,689ea48b63119d60d7859f59,,,,,,,,,,,,,,1,,,,,,,,,,,,,,,,,,,,,,,,,,,,,,,,,,,,,,,,,,,,,,,,,,,,,,,,,64,orgulloso,,,,,502.7977,504.2905,0,0,0.9727,,0,18,18,63,1,REAL,FAKE,,,,,,,,,,,,,,,,,
,,,,,,,,,5dad4c34b3446a0015e3de93,Spanish,13 or older,"no, only English or Spanish",no,2025-08-14_23h08.35.235,empathy_intonation_perc,2024.2.4,Win32,144.9275362,5dad4c34b3446a0015e3de93,687ed1b7e638a4cbf2f02089,689ea48b63119d60d7859f59,,,,,,,,,,,,,,1,,,,,,,,,,,,,,,,,,,,,,,,,,,,,,,,,,,,,,,,,,,,,,,,,,,,,,,,,24,látigo,,,,,504.291,505.5824,0,0,0.7731,,0,19,19,23,1,REAL,FAKE,,,,,,,,,,,,,,,,,
,,,,,,,,,5dad4c34b3446a0015e3de93,Spanish,13 or older,"no, only English or Spanish",no,2025-08-14_23h08.35.235,empathy_intonation_perc,2024.2.4,Win32,144.9275362,5dad4c34b3446a0015e3de93,687ed1b7e638a4cbf2f02089,689ea48b63119d60d7859f59,,,,,,,,,,,,,,1,,,,,,,,,,,,,,,,,,,,,,,,,,,,,,,,,,,,,,,,,,,,,,,,,,,,,,,,,7,pésimo,,,,,505.5827,507.041,0,0,0.9358,,0,20,20,6,1,REAL,FAKE,,,,,,,,,,,,,,,,,
,,,,,,,,,5dad4c34b3446a0015e3de93,Spanish,13 or older,"no, only English or Spanish",no,2025-08-14_23h08.35.235,empathy_intonation_perc,2024.2.4,Win32,144.9275362,5dad4c34b3446a0015e3de93,687ed1b7e638a4cbf2f02089,689ea48b63119d60d7859f59,,,,,,,,,,,,,,0,,,,,,,,,,,,,,,,,,,,,,,,,,,,,,,,,,,,,,,,,,,,,,,,,,,,,,,,,50,flamida,,,,,507.0413,508.333,0,1,0.7747,,0,21,21,49,1,REAL,FAKE,,,,,,,,,,,,,,,,,
,,,,,,,,,5dad4c34b3446a0015e3de93,Spanish,13 or older,"no, only English or Spanish",no,2025-08-14_23h08.35.235,empathy_intonation_perc,2024.2.4,Win32,144.9275362,5dad4c34b3446a0015e3de93,687ed1b7e638a4cbf2f02089,689ea48b63119d60d7859f59,,,,,,,,,,,,,,1,,,,,,,,,,,,,,,,,,,,,,,,,,,,,,,,,,,,,,,,,,,,,,,,,,,,,,,,,81,pozo,,,,,508.3333,509.6732,0,0,0.8208,,0,22,22,80,1,REAL,FAKE,,,,,,,,,,,,,,,,,
,,,,,,,,,5dad4c34b3446a0015e3de93,Spanish,13 or older,"no, only English or Spanish",no,2025-08-14_23h08.35.235,empathy_intonation_perc,2024.2.4,Win32,144.9275362,5dad4c34b3446a0015e3de93,687ed1b7e638a4cbf2f02089,689ea48b63119d60d7859f59,,,,,,,,,,,,,,1,,,,,,,,,,,,,,,,,,,,,,,,,,,,,,,,,,,,,,,,,,,,,,,,,,,,,,,,,28,merodear,,,,,509.6737,511.2291,0,0,1.0356,,0,23,23,27,1,REAL,FAKE,,,,,,,,,,,,,,,,,
,,,,,,,,,5dad4c34b3446a0015e3de93,Spanish,13 or older,"no, only English or Spanish",no,2025-08-14_23h08.35.235,empathy_intonation_perc,2024.2.4,Win32,144.9275362,5dad4c34b3446a0015e3de93,687ed1b7e638a4cbf2f02089,689ea48b63119d60d7859f59,,,,,,,,,,,,,,1,,,,,,,,,,,,,,,,,,,,,,,,,,,,,,,,,,,,,,,,,,,,,,,,,,,,,,,,,11,cenefa,,,,,511.2294,512.5834,0,0,0.8331,,0,24,24,10,1,REAL,FAKE,,,,,,,,,,,,,,,,,
,,,,,,,,,5dad4c34b3446a0015e3de93,Spanish,13 or older,"no, only English or Spanish",no,2025-08-14_23h08.35.235,empathy_intonation_perc,2024.2.4,Win32,144.9275362,5dad4c34b3446a0015e3de93,687ed1b7e638a4cbf2f02089,689ea48b63119d60d7859f59,,,,,,,,,,,,,,1,,,,,,,,,,,,,,,,,,,,,,,,,,,,,,,,,,,,,,,,,,,,,,,,,,,,,,,,,45,jilguero,,,,,512.5838,513.8752,0,0,0.7743,,0,25,25,44,1,REAL,FAKE,,,,,,,,,,,,,,,,,
,,,,,,,,,5dad4c34b3446a0015e3de93,Spanish,13 or older,"no, only English or Spanish",no,2025-08-14_23h08.35.235,empathy_intonation_perc,2024.2.4,Win32,144.9275362,5dad4c34b3446a0015e3de93,687ed1b7e638a4cbf2f02089,689ea48b63119d60d7859f59,,,,,,,,,,,,,,1,,,,,,,,,,,,,,,,,,,,,,,,,,,,,,,,,,,,,,,,,,,,,,,,,,,,,,,,,5,zapato,,,,,513.8756,515.1463,1,1,0.7476,,0,26,26,4,1,REAL,FAKE,,,,,,,,,,,,,,,,,
,,,,,,,,,5dad4c34b3446a0015e3de93,Spanish,13 or older,"no, only English or Spanish",no,2025-08-14_23h08.35.235,empathy_intonation_perc,2024.2.4,Win32,144.9275362,5dad4c34b3446a0015e3de93,687ed1b7e638a4cbf2f02089,689ea48b63119d60d7859f59,,,,,,,,,,,,,,1,,,,,,,,,,,,,,,,,,,,,,,,,,,,,,,,,,,,,,,,,,,,,,,,,,,,,,,,,12,asesinato,,,,,515.1468,516.7785,0,0,1.1119,,0,27,27,11,1,REAL,FAKE,,,,,,,,,,,,,,,,,
,,,,,,,,,5dad4c34b3446a0015e3de93,Spanish,13 or older,"no, only English or Spanish",no,2025-08-14_23h08.35.235,empathy_intonation_perc,2024.2.4,Win32,144.9275362,5dad4c34b3446a0015e3de93,687ed1b7e638a4cbf2f02089,689ea48b63119d60d7859f59,,,,,,,,,,,,,,1,,,,,,,,,,,,,,,,,,,,,,,,,,,,,,,,,,,,,,,,,,,,,,,,,,,,,,,,,37,granuja,,,,,516.7789,518.2787,0,0,0.9832,,0,28,28,36,1,REAL,FAKE,,,,,,,,,,,,,,,,,
,,,,,,,,,5dad4c34b3446a0015e3de93,Spanish,13 or older,"no, only English or Spanish",no,2025-08-14_23h08.35.235,empathy_intonation_perc,2024.2.4,Win32,144.9275362,5dad4c34b3446a0015e3de93,687ed1b7e638a4cbf2f02089,689ea48b63119d60d7859f59,,,,,,,,,,,,,,1,,,,,,,,,,,,,,,,,,,,,,,,,,,,,,,,,,,,,,,,,,,,,,,,,,,,,,,,,67,cabello,,,,,518.279,520.154,0,0,1.3611,,0,29,29,66,1,REAL,FAKE,,,,,,,,,,,,,,,,,
,,,,,,,,,5dad4c34b3446a0015e3de93,Spanish,13 or older,"no, only English or Spanish",no,2025-08-14_23h08.35.235,empathy_intonation_perc,2024.2.4,Win32,144.9275362,5dad4c34b3446a0015e3de93,687ed1b7e638a4cbf2f02089,689ea48b63119d60d7859f59,,,,,,,,,,,,,,0,,,,,,,,,,,,,,,,,,,,,,,,,,,,,,,,,,,,,,,,,,,,,,,,,,,,,,,,,21,capillo,,,,,520.1542,522.2956,0,1,1.6229,,0,30,30,20,1,REAL,FAKE,,,,,,,,,,,,,,,,,
,,,,,,,,,5dad4c34b3446a0015e3de93,Spanish,13 or older,"no, only English or Spanish",no,2025-08-14_23h08.35.235,empathy_intonation_perc,2024.2.4,Win32,144.9275362,5dad4c34b3446a0015e3de93,687ed1b7e638a4cbf2f02089,689ea48b63119d60d7859f59,,,,,,,,,,,,,,1,,,,,,,,,,,,,,,,,,,,,,,,,,,,,,,,,,,,,,,,,,,,,,,,,,,,,,,,,77,tiburón,,,,,522.2961,526.2242,0,0,3.4107,,0,31,31,76,1,REAL,FAKE,,,,,,,,,,,,,,,,,
,,,,,,,,,5dad4c34b3446a0015e3de93,Spanish,13 or older,"no, only English or Spanish",no,2025-08-14_23h08.35.235,empathy_intonation_perc,2024.2.4,Win32,144.9275362,5dad4c34b3446a0015e3de93,687ed1b7e638a4cbf2f02089,689ea48b63119d60d7859f59,,,,,,,,,,,,,,0,,,,,,,,,,,,,,,,,,,,,,,,,,,,,,,,,,,,,,,,,,,,,,,,,,,,,,,,,16,abracer,,,,,526.2247,527.5326,0,1,0.7892,,0,32,32,15,1,REAL,FAKE,,,,,,,,,,,,,,,,,
,,,,,,,,,5dad4c34b3446a0015e3de93,Spanish,13 or older,"no, only English or Spanish",no,2025-08-14_23h08.35.235,empathy_intonation_perc,2024.2.4,Win32,144.9275362,5dad4c34b3446a0015e3de93,687ed1b7e638a4cbf2f02089,689ea48b63119d60d7859f59,,,,,,,,,,,,,,1,,,,,,,,,,,,,,,,,,,,,,,,,,,,,,,,,,,,,,,,,,,,,,,,,,,,,,,,,34,aviso,,,,,527.5329,528.5995,0,0,0.5483,,0,33,33,33,1,REAL,FAKE,,,,,,,,,,,,,,,,,
,,,,,,,,,5dad4c34b3446a0015e3de93,Spanish,13 or older,"no, only English or Spanish",no,2025-08-14_23h08.35.235,empathy_intonation_perc,2024.2.4,Win32,144.9275362,5dad4c34b3446a0015e3de93,687ed1b7e638a4cbf2f02089,689ea48b63119d60d7859f59,,,,,,,,,,,,,,1,,,,,,,,,,,,,,,,,,,,,,,,,,,,,,,,,,,,,,,,,,,,,,,,,,,,,,,,,36,loro,,,,,528.6,529.7942,0,0,0.682,,0,34,34,35,1,REAL,FAKE,,,,,,,,,,,,,,,,,
,,,,,,,,,5dad4c34b3446a0015e3de93,Spanish,13 or older,"no, only English or Spanish",no,2025-08-14_23h08.35.235,empathy_intonation_perc,2024.2.4,Win32,144.9275362,5dad4c34b3446a0015e3de93,687ed1b7e638a4cbf2f02089,689ea48b63119d60d7859f59,,,,,,,,,,,,,,1,,,,,,,,,,,,,,,,,,,,,,,,,,,,,,,,,,,,,,,,,,,,,,,,,,,,,,,,,48,ladrón,,,,,529.7945,531.0119,0,0,0.7082,,0,35,35,47,1,REAL,FAKE,,,,,,,,,,,,,,,,,
,,,,,,,,,5dad4c34b3446a0015e3de93,Spanish,13 or older,"no, only English or Spanish",no,2025-08-14_23h08.35.235,empathy_intonation_perc,2024.2.4,Win32,144.9275362,5dad4c34b3446a0015e3de93,687ed1b7e638a4cbf2f02089,689ea48b63119d60d7859f59,,,,,,,,,,,,,,1,,,,,,,,,,,,,,,,,,,,,,,,,,,,,,,,,,,,,,,,,,,,,,,,,,,,,,,,,57,tacaño,,,,,531.0123,532.2114,0,0,0.683,,0,36,36,56,1,REAL,FAKE,,,,,,,,,,,,,,,,,
,,,,,,,,,5dad4c34b3446a0015e3de93,Spanish,13 or older,"no, only English or Spanish",no,2025-08-14_23h08.35.235,empathy_intonation_perc,2024.2.4,Win32,144.9275362,5dad4c34b3446a0015e3de93,687ed1b7e638a4cbf2f02089,689ea48b63119d60d7859f59,,,,,,,,,,,,,,1,,,,,,,,,,,,,,,,,,,,,,,,,,,,,,,,,,,,,,,,,,,,,,,,,,,,,,,,,62,flaco,,,,,532.2117,536.3438,0,0,3.6122,,0,37,37,61,1,REAL,FAKE,,,,,,,,,,,,,,,,,
,,,,,,,,,5dad4c34b3446a0015e3de93,Spanish,13 or older,"no, only English or Spanish",no,2025-08-14_23h08.35.235,empathy_intonation_perc,2024.2.4,Win32,144.9275362,5dad4c34b3446a0015e3de93,687ed1b7e638a4cbf2f02089,689ea48b63119d60d7859f59,,,,,,,,,,,,,,1,,,,,,,,,,,,,,,,,,,,,,,,,,,,,,,,,,,,,,,,,,,,,,,,,,,,,,,,,71,polvoriento,,,,,536.3442,537.9135,0,0,1.0519,,0,38,38,70,1,REAL,FAKE,,,,,,,,,,,,,,,,,
,,,,,,,,,5dad4c34b3446a0015e3de93,Spanish,13 or older,"no, only English or Spanish",no,2025-08-14_23h08.35.235,empathy_intonation_perc,2024.2.4,Win32,144.9275362,5dad4c34b3446a0015e3de93,687ed1b7e638a4cbf2f02089,689ea48b63119d60d7859f59,,,,,,,,,,,,,,0,,,,,,,,,,,,,,,,,,,,,,,,,,,,,,,,,,,,,,,,,,,,,,,,,,,,,,,,,35,rompido,,,,,537.9138,540.3583,0,1,1.9242,,0,39,39,34,1,REAL,FAKE,,,,,,,,,,,,,,,,,
,,,,,,,,,5dad4c34b3446a0015e3de93,Spanish,13 or older,"no, only English or Spanish",no,2025-08-14_23h08.35.235,empathy_intonation_perc,2024.2.4,Win32,144.9275362,5dad4c34b3446a0015e3de93,687ed1b7e638a4cbf2f02089,689ea48b63119d60d7859f59,,,,,,,,,,,,,,0,,,,,,,,,,,,,,,,,,,,,,,,,,,,,,,,,,,,,,,,,,,,,,,,,,,,,,,,,53,vegada,,,,,540.3588,541.5945,0,1,0.7167,,0,40,40,52,1,REAL,FAKE,,,,,,,,,,,,,,,,,
,,,,,,,,,5dad4c34b3446a0015e3de93,Spanish,13 or older,"no, only English or Spanish",no,2025-08-14_23h08.35.235,empathy_intonation_perc,2024.2.4,Win32,144.9275362,5dad4c34b3446a0015e3de93,687ed1b7e638a4cbf2f02089,689ea48b63119d60d7859f59,,,,,,,,,,,,,,0,,,,,,,,,,,,,,,,,,,,,,,,,,,,,,,,,,,,,,,,,,,,,,,,,,,,,,,,,8,cadeña,,,,,541.5949,543.5601,0,1,1.4465,,0,41,41,7,1,REAL,FAKE,,,,,,,,,,,,,,,,,
,,,,,,,,,5dad4c34b3446a0015e3de93,Spanish,13 or older,"no, only English or Spanish",no,2025-08-14_23h08.35.235,empathy_intonation_perc,2024.2.4,Win32,144.9275362,5dad4c34b3446a0015e3de93,687ed1b7e638a4cbf2f02089,689ea48b63119d60d7859f59,,,,,,,,,,,,,,0,,,,,,,,,,,,,,,,,,,,,,,,,,,,,,,,,,,,,,,,,,,,,,,,,,,,,,,,,47,cartinar,,,,,543.5606,544.7616,0,1,0.6826,,0,42,42,46,1,REAL,FAKE,,,,,,,,,,,,,,,,,
,,,,,,,,,5dad4c34b3446a0015e3de93,Spanish,13 or older,"no, only English or Spanish",no,2025-08-14_23h08.35.235,empathy_intonation_perc,2024.2.4,Win32,144.9275362,5dad4c34b3446a0015e3de93,687ed1b7e638a4cbf2f02089,689ea48b63119d60d7859f59,,,,,,,,,,,,,,0,,,,,,,,,,,,,,,,,,,,,,,,,,,,,,,,,,,,,,,,,,,,,,,,,,,,,,,,,63,esposante,,,,,544.762,546.0466,0,1,0.7637,,0,43,43,62,1,REAL,FAKE,,,,,,,,,,,,,,,,,
,,,,,,,,,5dad4c34b3446a0015e3de93,Spanish,13 or older,"no, only English or Spanish",no,2025-08-14_23h08.35.235,empathy_intonation_perc,2024.2.4,Win32,144.9275362,5dad4c34b3446a0015e3de93,687ed1b7e638a4cbf2f02089,689ea48b63119d60d7859f59,,,,,,,,,,,,,,1,,,,,,,,,,,,,,,,,,,,,,,,,,,,,,,,,,,,,,,,,,,,,,,,,,,,,,,,,25,bisagra,,,,,546.047,547.3385,0,0,0.7706,,0,44,44,24,1,REAL,FAKE,,,,,,,,,,,,,,,,,
,,,,,,,,,5dad4c34b3446a0015e3de93,Spanish,13 or older,"no, only English or Spanish",no,2025-08-14_23h08.35.235,empathy_intonation_perc,2024.2.4,Win32,144.9275362,5dad4c34b3446a0015e3de93,687ed1b7e638a4cbf2f02089,689ea48b63119d60d7859f59,,,,,,,,,,,,,,0,,,,,,,,,,,,,,,,,,,,,,,,,,,,,,,,,,,,,,,,,,,,,,,,,,,,,,,,,84,escuto,,,,,547.3391,548.5956,0,1,0.7392,,0,45,45,83,1,REAL,FAKE,,,,,,,,,,,,,,,,,
,,,,,,,,,5dad4c34b3446a0015e3de93,Spanish,13 or older,"no, only English or Spanish",no,2025-08-14_23h08.35.235,empathy_intonation_perc,2024.2.4,Win32,144.9275362,5dad4c34b3446a0015e3de93,687ed1b7e638a4cbf2f02089,689ea48b63119d60d7859f59,,,,,,,,,,,,,,1,,,,,,,,,,,,,,,,,,,,,,,,,,,,,,,,,,,,,,,,,,,,,,,,,,,,,,,,,9,hacha,,,,,548.596,549.8388,0,0,0.7216,,0,46,46,8,1,REAL,FAKE,,,,,,,,,,,,,,,,,
,,,,,,,,,5dad4c34b3446a0015e3de93,Spanish,13 or older,"no, only English or Spanish",no,2025-08-14_23h08.35.235,empathy_intonation_perc,2024.2.4,Win32,144.9275362,5dad4c34b3446a0015e3de93,687ed1b7e638a4cbf2f02089,689ea48b63119d60d7859f59,,,,,,,,,,,,,,1,,,,,,,,,,,,,,,,,,,,,,,,,,,,,,,,,,,,,,,,,,,,,,,,,,,,,,,,,60,matar,,,,,549.8392,550.9501,0,0,0.5901,,0,47,47,59,1,REAL,FAKE,,,,,,,,,,,,,,,,,
,,,,,,,,,5dad4c34b3446a0015e3de93,Spanish,13 or older,"no, only English or Spanish",no,2025-08-14_23h08.35.235,empathy_intonation_perc,2024.2.4,Win32,144.9275362,5dad4c34b3446a0015e3de93,687ed1b7e638a4cbf2f02089,689ea48b63119d60d7859f59,,,,,,,,,,,,,,1,,,,,,,,,,,,,,,,,,,,,,,,,,,,,,,,,,,,,,,,,,,,,,,,,,,,,,,,,46,martillo,,,,,550.9504,552.0685,0,0,0.6079,,0,48,48,45,1,REAL,FAKE,,,,,,,,,,,,,,,,,
,,,,,,,,,5dad4c34b3446a0015e3de93,Spanish,13 or older,"no, only English or Spanish",no,2025-08-14_23h08.35.235,empathy_intonation_perc,2024.2.4,Win32,144.9275362,5dad4c34b3446a0015e3de93,687ed1b7e638a4cbf2f02089,689ea48b63119d60d7859f59,,,,,,,,,,,,,,1,,,,,,,,,,,,,,,,,,,,,,,,,,,,,,,,,,,,,,,,,,,,,,,,,,,,,,,,,85,laúd,,,,,552.0692,553.1865,0,0,0.5974,,0,49,49,84,1,REAL,FAKE,,,,,,,,,,,,,,,,,
,,,,,,,,,5dad4c34b3446a0015e3de93,Spanish,13 or older,"no, only English or Spanish",no,2025-08-14_23h08.35.235,empathy_intonation_perc,2024.2.4,Win32,144.9275362,5dad4c34b3446a0015e3de93,687ed1b7e638a4cbf2f02089,689ea48b63119d60d7859f59,,,,,,,,,,,,,,0,,,,,,,,,,,,,,,,,,,,,,,,,,,,,,,,,,,,,,,,,,,,,,,,,,,,,,,,,4,batillón,,,,,553.1868,555.3188,0,1,1.6082,,0,50,50,3,1,REAL,FAKE,,,,,,,,,,,,,,,,,
,,,,,,,,,5dad4c34b3446a0015e3de93,Spanish,13 or older,"no, only English or Spanish",no,2025-08-14_23h08.35.235,empathy_intonation_perc,2024.2.4,Win32,144.9275362,5dad4c34b3446a0015e3de93,687ed1b7e638a4cbf2f02089,689ea48b63119d60d7859f59,,,,,,,,,,,,,,1,,,,,,,,,,,,,,,,,,,,,,,,,,,,,,,,,,,,,,,,,,,,,,,,,,,,,,,,,80,hormiga,,,,,555.3192,556.6245,0,0,0.7843,,0,51,51,79,1,REAL,FAKE,,,,,,,,,,,,,,,,,
,,,,,,,,,5dad4c34b3446a0015e3de93,Spanish,13 or older,"no, only English or Spanish",no,2025-08-14_23h08.35.235,empathy_intonation_perc,2024.2.4,Win32,144.9275362,5dad4c34b3446a0015e3de93,687ed1b7e638a4cbf2f02089,689ea48b63119d60d7859f59,,,,,,,,,,,,,,1,,,,,,,,,,,,,,,,,,,,,,,,,,,,,,,,,,,,,,,,,,,,,,,,,,,,,,,,,78,frondoso,,,,,556.6248,557.8539,0,0,0.7082,,0,52,52,77,1,REAL,FAKE,,,,,,,,,,,,,,,,,
,,,,,,,,,5dad4c34b3446a0015e3de93,Spanish,13 or older,"no, only English or Spanish",no,2025-08-14_23h08.35.235,empathy_intonation_perc,2024.2.4,Win32,144.9275362,5dad4c34b3446a0015e3de93,687ed1b7e638a4cbf2f02089,689ea48b63119d60d7859f59,,,,,,,,,,,,,,0,,,,,,,,,,,,,,,,,,,,,,,,,,,,,,,,,,,,,,,,,,,,,,,,,,,,,,,,,33,pauca,,,,,557.8543,558.9953,0,1,0.6217,,0,53,53,32,1,REAL,FAKE,,,,,,,,,,,,,,,,,
,,,,,,,,,5dad4c34b3446a0015e3de93,Spanish,13 or older,"no, only English or Spanish",no,2025-08-14_23h08.35.235,empathy_intonation_perc,2024.2.4,Win32,144.9275362,5dad4c34b3446a0015e3de93,687ed1b7e638a4cbf2f02089,689ea48b63119d60d7859f59,,,,,,,,,,,,,,1,,,,,,,,,,,,,,,,,,,,,,,,,,,,,,,,,,,,,,,,,,,,,,,,,,,,,,,,,38,estornudar,,,,,558.9957,560.5556,0,0,1.0418,,0,54,54,37,1,REAL,FAKE,,,,,,,,,,,,,,,,,
,,,,,,,,,5dad4c34b3446a0015e3de93,Spanish,13 or older,"no, only English or Spanish",no,2025-08-14_23h08.35.235,empathy_intonation_perc,2024.2.4,Win32,144.9275362,5dad4c34b3446a0015e3de93,687ed1b7e638a4cbf2f02089,689ea48b63119d60d7859f59,,,,,,,,,,,,,,0,,,,,,,,,,,,,,,,,,,,,,,,,,,,,,,,,,,,,,,,,,,,,,,,,,,,,,,,,66,hacido,,,,,560.556,561.9863,0,1,0.9113,,0,55,55,65,1,REAL,FAKE,,,,,,,,,,,,,,,,,
,,,,,,,,,5dad4c34b3446a0015e3de93,Spanish,13 or older,"no, only English or Spanish",no,2025-08-14_23h08.35.235,empathy_intonation_perc,2024.2.4,Win32,144.9275362,5dad4c34b3446a0015e3de93,687ed1b7e638a4cbf2f02089,689ea48b63119d60d7859f59,,,,,,,,,,,,,,1,,,,,,,,,,,,,,,,,,,,,,,,,,,,,,,,,,,,,,,,,,,,,,,,,,,,,,,,,89,prisa,,,,,561.9868,563.2157,0,0,0.7194,,0,56,56,88,1,REAL,FAKE,,,,,,,,,,,,,,,,,
,,,,,,,,,5dad4c34b3446a0015e3de93,Spanish,13 or older,"no, only English or Spanish",no,2025-08-14_23h08.35.235,empathy_intonation_perc,2024.2.4,Win32,144.9275362,5dad4c34b3446a0015e3de93,687ed1b7e638a4cbf2f02089,689ea48b63119d60d7859f59,,,,,,,,,,,,,,1,,,,,,,,,,,,,,,,,,,,,,,,,,,,,,,,,,,,,,,,,,,,,,,,,,,,,,,,,59,besar,,,,,563.216,564.5493,0,0,0.8098,,0,57,57,58,1,REAL,FAKE,,,,,,,,,,,,,,,,,
,,,,,,,,,5dad4c34b3446a0015e3de93,Spanish,13 or older,"no, only English or Spanish",no,2025-08-14_23h08.35.235,empathy_intonation_perc,2024.2.4,Win32,144.9275362,5dad4c34b3446a0015e3de93,687ed1b7e638a4cbf2f02089,689ea48b63119d60d7859f59,,,,,,,,,,,,,,1,,,,,,,,,,,,,,,,,,,,,,,,,,,,,,,,,,,,,,,,,,,,,,,,,,,,,,,,,20,ávido,,,,,564.5497,565.8341,0,0,0.7664,,0,58,58,19,1,REAL,FAKE,,,,,,,,,,,,,,,,,
,,,,,,,,,5dad4c34b3446a0015e3de93,Spanish,13 or older,"no, only English or Spanish",no,2025-08-14_23h08.35.235,empathy_intonation_perc,2024.2.4,Win32,144.9275362,5dad4c34b3446a0015e3de93,687ed1b7e638a4cbf2f02089,689ea48b63119d60d7859f59,,,,,,,,,,,,,,1,,,,,,,,,,,,,,,,,,,,,,,,,,,,,,,,,,,,,,,,,,,,,,,,,,,,,,,,,44,cuchara,,,,,565.8345,567.2719,0,0,0.9236,,0,59,59,43,1,REAL,FAKE,,,,,,,,,,,,,,,,,
,,,,,,,,,5dad4c34b3446a0015e3de93,Spanish,13 or older,"no, only English or Spanish",no,2025-08-14_23h08.35.235,empathy_intonation_perc,2024.2.4,Win32,144.9275362,5dad4c34b3446a0015e3de93,687ed1b7e638a4cbf2f02089,689ea48b63119d60d7859f59,,,,,,,,,,,,,,1,,,,,,,,,,,,,,,,,,,,,,,,,,,,,,,,,,,,,,,,,,,,,,,,,,,,,,,,,73,hervidor,,,,,567.2723,568.6818,0,0,0.8937,,0,60,60,72,1,REAL,FAKE,,,,,,,,,,,,,,,,,
,,,,,,,,,5dad4c34b3446a0015e3de93,Spanish,13 or older,"no, only English or Spanish",no,2025-08-14_23h08.35.235,empathy_intonation_perc,2024.2.4,Win32,144.9275362,5dad4c34b3446a0015e3de93,687ed1b7e638a4cbf2f02089,689ea48b63119d60d7859f59,,,,,,,,,,,,,,1,,,,,,,,,,,,,,,,,,,,,,,,,,,,,,,,,,,,,,,,,,,,,,,,,,,,,,,,,31,pandilla,,,,,568.6821,570.2306,0,0,1.0347,,0,61,61,30,1,REAL,FAKE,,,,,,,,,,,,,,,,,
,,,,,,,,,5dad4c34b3446a0015e3de93,Spanish,13 or older,"no, only English or Spanish",no,2025-08-14_23h08.35.235,empathy_intonation_perc,2024.2.4,Win32,144.9275362,5dad4c34b3446a0015e3de93,687ed1b7e638a4cbf2f02089,689ea48b63119d60d7859f59,,,,,,,,,,,,,,1,,,,,,,,,,,,,,,,,,,,,,,,,,,,,,,,,,,,,,,,,,,,,,,,,,,,,,,,,13,helar,,,,,570.2309,571.3558,0,0,0.6106,,0,62,62,12,1,REAL,FAKE,,,,,,,,,,,,,,,,,
,,,,,,,,,5dad4c34b3446a0015e3de93,Spanish,13 or older,"no, only English or Spanish",no,2025-08-14_23h08.35.235,empathy_intonation_perc,2024.2.4,Win32,144.9275362,5dad4c34b3446a0015e3de93,687ed1b7e638a4cbf2f02089,689ea48b63119d60d7859f59,,,,,,,,,,,,,,1,,,,,,,,,,,,,,,,,,,,,,,,,,,,,,,,,,,,,,,,,,,,,,,,,,,,,,,,,83,guante,,,,,571.3561,572.9475,0,0,1.0755,,0,63,63,82,1,REAL,FAKE,,,,,,,,,,,,,,,,,
,,,,,,,,,5dad4c34b3446a0015e3de93,Spanish,13 or older,"no, only English or Spanish",no,2025-08-14_23h08.35.235,empathy_intonation_perc,2024.2.4,Win32,144.9275362,5dad4c34b3446a0015e3de93,687ed1b7e638a4cbf2f02089,689ea48b63119d60d7859f59,,,,,,,,,,,,,,1,,,,,,,,,,,,,,,,,,,,,,,,,,,,,,,,,,,,,,,,,,,,,,,,,,,,,,,,,56,musgo,,,,,572.9482,574.1826,0,0,0.7165,,0,64,64,55,1,REAL,FAKE,,,,,,,,,,,,,,,,,
,,,,,,,,,5dad4c34b3446a0015e3de93,Spanish,13 or older,"no, only English or Spanish",no,2025-08-14_23h08.35.235,empathy_intonation_perc,2024.2.4,Win32,144.9275362,5dad4c34b3446a0015e3de93,687ed1b7e638a4cbf2f02089,689ea48b63119d60d7859f59,,,,,,,,,,,,,,1,,,,,,,,,,,,,,,,,,,,,,,,,,,,,,,,,,,,,,,,,,,,,,,,,,,,,,,,,41,rebuscar,,,,,574.183,575.405,0,0,0.7008,,0,65,65,40,1,REAL,FAKE,,,,,,,,,,,,,,,,,
,,,,,,,,,5dad4c34b3446a0015e3de93,Spanish,13 or older,"no, only English or Spanish",no,2025-08-14_23h08.35.235,empathy_intonation_perc,2024.2.4,Win32,144.9275362,5dad4c34b3446a0015e3de93,687ed1b7e638a4cbf2f02089,689ea48b63119d60d7859f59,,,,,,,,,,,,,,1,,,,,,,,,,,,,,,,,,,,,,,,,,,,,,,,,,,,,,,,,,,,,,,,,,,,,,,,,91,click the 1 key.,,,,,575.4055,576.6483,1,1,0.728,,0,66,66,90,1,REAL,FAKE,,,,,,,,,,,,,,,,,
,,,,,,,,,5dad4c34b3446a0015e3de93,Spanish,13 or older,"no, only English or Spanish",no,2025-08-14_23h08.35.235,empathy_intonation_perc,2024.2.4,Win32,144.9275362,5dad4c34b3446a0015e3de93,687ed1b7e638a4cbf2f02089,689ea48b63119d60d7859f59,,,,,,,,,,,,,,0,,,,,,,,,,,,,,,,,,,,,,,,,,,,,,,,,,,,,,,,,,,,,,,,,,,,,,,,,32,fatacidad,,,,,576.6485,578.6555,0,1,1.4886,,0,67,67,31,1,REAL,FAKE,,,,,,,,,,,,,,,,,
,,,,,,,,,5dad4c34b3446a0015e3de93,Spanish,13 or older,"no, only English or Spanish",no,2025-08-14_23h08.35.235,empathy_intonation_perc,2024.2.4,Win32,144.9275362,5dad4c34b3446a0015e3de93,687ed1b7e638a4cbf2f02089,689ea48b63119d60d7859f59,,,,,,,,,,,,,,0,,,,,,,,,,,,,,,,,,,,,,,,,,,,,,,,,,,,,,,,,,,,,,,,,,,,,,,,,72,pemición,,,,,578.6558,580.107,0,1,0.934,,0,68,68,71,1,REAL,FAKE,,,,,,,,,,,,,,,,,
,,,,,,,,,5dad4c34b3446a0015e3de93,Spanish,13 or older,"no, only English or Spanish",no,2025-08-14_23h08.35.235,empathy_intonation_perc,2024.2.4,Win32,144.9275362,5dad4c34b3446a0015e3de93,687ed1b7e638a4cbf2f02089,689ea48b63119d60d7859f59,,,,,,,,,,,,,,0,,,,,,,,,,,,,,,,,,,,,,,,,,,,,,,,,,,,,,,,,,,,,,,,,,,,,,,,,23,lampera,,,,,580.1073,581.4615,0,1,0.8357,,0,69,69,22,1,REAL,FAKE,,,,,,,,,,,,,,,,,
,,,,,,,,,5dad4c34b3446a0015e3de93,Spanish,13 or older,"no, only English or Spanish",no,2025-08-14_23h08.35.235,empathy_intonation_perc,2024.2.4,Win32,144.9275362,5dad4c34b3446a0015e3de93,687ed1b7e638a4cbf2f02089,689ea48b63119d60d7859f59,,,,,,,,,,,,,,1,,,,,,,,,,,,,,,,,,,,,,,,,,,,,,,,,,,,,,,,,,,,,,,,,,,,,,,,,40,alfombra,,,,,581.4619,582.8506,0,0,0.8694,,0,70,70,39,1,REAL,FAKE,,,,,,,,,,,,,,,,,
,,,,,,,,,5dad4c34b3446a0015e3de93,Spanish,13 or older,"no, only English or Spanish",no,2025-08-14_23h08.35.235,empathy_intonation_perc,2024.2.4,Win32,144.9275362,5dad4c34b3446a0015e3de93,687ed1b7e638a4cbf2f02089,689ea48b63119d60d7859f59,,,,,,,,,,,,,,1,,,,,,,,,,,,,,,,,,,,,,,,,,,,,,,,,,,,,,,,,,,,,,,,,,,,,,,,,3,pulmones,,,,,582.8509,584.1354,0,0,0.7661,,0,71,71,2,1,REAL,FAKE,,,,,,,,,,,,,,,,,
,,,,,,,,,5dad4c34b3446a0015e3de93,Spanish,13 or older,"no, only English or Spanish",no,2025-08-14_23h08.35.235,empathy_intonation_perc,2024.2.4,Win32,144.9275362,5dad4c34b3446a0015e3de93,687ed1b7e638a4cbf2f02089,689ea48b63119d60d7859f59,,,,,,,,,,,,,,0,,,,,,,,,,,,,,,,,,,,,,,,,,,,,,,,,,,,,,,,,,,,,,,,,,,,,,,,,29,decar,,,,,584.1358,586.3119,0,1,1.667,,0,72,72,28,1,REAL,FAKE,,,,,,,,,,,,,,,,,
,,,,,,,,,5dad4c34b3446a0015e3de93,Spanish,13 or older,"no, only English or Spanish",no,2025-08-14_23h08.35.235,empathy_intonation_perc,2024.2.4,Win32,144.9275362,5dad4c34b3446a0015e3de93,687ed1b7e638a4cbf2f02089,689ea48b63119d60d7859f59,,,,,,,,,,,,,,1,,,,,,,,,,,,,,,,,,,,,,,,,,,,,,,,,,,,,,,,,,,,,,,,,,,,,,,,,52,camisa,,,,,586.3122,587.6081,1,1,0.7784,,0,73,73,51,1,REAL,FAKE,,,,,,,,,,,,,,,,,
,,,,,,,,,5dad4c34b3446a0015e3de93,Spanish,13 or older,"no, only English or Spanish",no,2025-08-14_23h08.35.235,empathy_intonation_perc,2024.2.4,Win32,144.9275362,5dad4c34b3446a0015e3de93,687ed1b7e638a4cbf2f02089,689ea48b63119d60d7859f59,,,,,,,,,,,,,,1,,,,,,,,,,,,,,,,,,,,,,,,,,,,,,,,,,,,,,,,,,,,,,,,,,,,,,,,,15,regar,,,,,587.6084,589.3931,0,0,1.2675,,0,74,74,14,1,REAL,FAKE,,,,,,,,,,,,,,,,,
,,,,,,,,,5dad4c34b3446a0015e3de93,Spanish,13 or older,"no, only English or Spanish",no,2025-08-14_23h08.35.235,empathy_intonation_perc,2024.2.4,Win32,144.9275362,5dad4c34b3446a0015e3de93,687ed1b7e638a4cbf2f02089,689ea48b63119d60d7859f59,,,,,,,,,,,,,,0,,,,,,,,,,,,,,,,,,,,,,,,,,,,,,,,,,,,,,,,,,,,,,,,,,,,,,,,,18,arsa,,,,,589.3934,591.2614,0,1,1.3518,,0,75,75,17,1,REAL,FAKE,,,,,,,,,,,,,,,,,
,,,,,,,,,5dad4c34b3446a0015e3de93,Spanish,13 or older,"no, only English or Spanish",no,2025-08-14_23h08.35.235,empathy_intonation_perc,2024.2.4,Win32,144.9275362,5dad4c34b3446a0015e3de93,687ed1b7e638a4cbf2f02089,689ea48b63119d60d7859f59,,,,,,,,,,,,,,1,,,,,,,,,,,,,,,,,,,,,,,,,,,,,,,,,,,,,,,,,,,,,,,,,,,,,,,,,22,lacayo,,,,,591.2618,592.47,0,0,0.6898,,0,76,76,21,1,REAL,FAKE,,,,,,,,,,,,,,,,,
,,,,,,,,,5dad4c34b3446a0015e3de93,Spanish,13 or older,"no, only English or Spanish",no,2025-08-14_23h08.35.235,empathy_intonation_perc,2024.2.4,Win32,144.9275362,5dad4c34b3446a0015e3de93,687ed1b7e638a4cbf2f02089,689ea48b63119d60d7859f59,,,,,,,,,,,,,,1,,,,,,,,,,,,,,,,,,,,,,,,,,,,,,,,,,,,,,,,,,,,,,,,,,,,,,,,,76,atar,,,,,592.4703,593.8798,0,0,0.8996,,0,77,77,75,1,REAL,FAKE,,,,,,,,,,,,,,,,,
,,,,,,,,,5dad4c34b3446a0015e3de93,Spanish,13 or older,"no, only English or Spanish",no,2025-08-14_23h08.35.235,empathy_intonation_perc,2024.2.4,Win32,144.9275362,5dad4c34b3446a0015e3de93,687ed1b7e638a4cbf2f02089,689ea48b63119d60d7859f59,,,,,,,,,,,,,,0,,,,,,,,,,,,,,,,,,,,,,,,,,,,,,,,,,,,,,,,,,,,,,,,,,,,,,,,,17,floroso,,,,,593.8802,595.4912,0,1,1.0969,,0,78,78,16,1,REAL,FAKE,,,,,,,,,,,,,,,,,
,,,,,,,,,5dad4c34b3446a0015e3de93,Spanish,13 or older,"no, only English or Spanish",no,2025-08-14_23h08.35.235,empathy_intonation_perc,2024.2.4,Win32,144.9275362,5dad4c34b3446a0015e3de93,687ed1b7e638a4cbf2f02089,689ea48b63119d60d7859f59,,,,,,,,,,,,,,0,,,,,,,,,,,,,,,,,,,,,,,,,,,,,,,,,,,,,,,,,,,,,,,,,,,,,,,,,27,acutación,,,,,595.4917,597.2161,0,1,1.2125,,0,79,79,26,1,REAL,FAKE,,,,,,,,,,,,,,,,,
,,,,,,,,,5dad4c34b3446a0015e3de93,Spanish,13 or older,"no, only English or Spanish",no,2025-08-14_23h08.35.235,empathy_intonation_perc,2024.2.4,Win32,144.9275362,5dad4c34b3446a0015e3de93,687ed1b7e638a4cbf2f02089,689ea48b63119d60d7859f59,,,,,,,,,,,,,,0,,,,,,,,,,,,,,,,,,,,,,,,,,,,,,,,,,,,,,,,,,,,,,,,,,,,,,,,,19,brecedad,,,,,597.2163,598.5403,0,1,0.808,,0,80,80,18,1,REAL,FAKE,,,,,,,,,,,,,,,,,
,,,,,,,,,5dad4c34b3446a0015e3de93,Spanish,13 or older,"no, only English or Spanish",no,2025-08-14_23h08.35.235,empathy_intonation_perc,2024.2.4,Win32,144.9275362,5dad4c34b3446a0015e3de93,687ed1b7e638a4cbf2f02089,689ea48b63119d60d7859f59,,,,,,,,,,,,,,1,,,,,,,,,,,,,,,,,,,,,,,,,,,,,,,,,,,,,,,,,,,,,,,,,,,,,,,,,75,yacer,,,,,598.5406,599.6052,0,0,0.549,,0,81,81,74,1,REAL,FAKE,,,,,,,,,,,,,,,,,
,,,,,,,,,5dad4c34b3446a0015e3de93,Spanish,13 or older,"no, only English or Spanish",no,2025-08-14_23h08.35.235,empathy_intonation_perc,2024.2.4,Win32,144.9275362,5dad4c34b3446a0015e3de93,687ed1b7e638a4cbf2f02089,689ea48b63119d60d7859f59,,,,,,,,,,,,,,1,,,,,,,,,,,,,,,,,,,,,,,,,,,,,,,,,,,,,,,,,,,,,,,,,,,,,,,,,65,bizcocho,,,,,599.6056,600.9364,0,0,0.8123,,0,82,82,64,1,REAL,FAKE,,,,,,,,,,,,,,,,,
,,,,,,,,,5dad4c34b3446a0015e3de93,Spanish,13 or older,"no, only English or Spanish",no,2025-08-14_23h08.35.235,empathy_intonation_perc,2024.2.4,Win32,144.9275362,5dad4c34b3446a0015e3de93,687ed1b7e638a4cbf2f02089,689ea48b63119d60d7859f59,,,,,,,,,,,,,,0,,,,,,,,,,,,,,,,,,,,,,,,,,,,,,,,,,,,,,,,,,,,,,,,,,,,,,,,,42,cadallo,,,,,600.9369,602.2491,0,1,0.7963,,0,83,83,41,1,REAL,FAKE,,,,,,,,,,,,,,,,,
,,,,,,,,,5dad4c34b3446a0015e3de93,Spanish,13 or older,"no, only English or Spanish",no,2025-08-14_23h08.35.235,empathy_intonation_perc,2024.2.4,Win32,144.9275362,5dad4c34b3446a0015e3de93,687ed1b7e638a4cbf2f02089,689ea48b63119d60d7859f59,,,,,,,,,,,,,,0,,,,,,,,,,,,,,,,,,,,,,,,,,,,,,,,,,,,,,,,,,,,,,,,,,,,,,,,,92,click the 0 key.,,,,,602.2495,604.673,0,1,1.9058,,0,84,84,91,1,REAL,FAKE,,,,,,,,,,,,,,,,,
,,,,,,,,,5dad4c34b3446a0015e3de93,Spanish,13 or older,"no, only English or Spanish",no,2025-08-14_23h08.35.235,empathy_intonation_perc,2024.2.4,Win32,144.9275362,5dad4c34b3446a0015e3de93,687ed1b7e638a4cbf2f02089,689ea48b63119d60d7859f59,,,,,,,,,,,,,,1,,,,,,,,,,,,,,,,,,,,,,,,,,,,,,,,,,,,,,,,,,,,,,,,,,,,,,,,,6,tergiversar,,,,,604.6734,606.6525,0,0,1.4665,,0,85,85,5,1,REAL,FAKE,,,,,,,,,,,,,,,,,
,,,,,,,,,5dad4c34b3446a0015e3de93,Spanish,13 or older,"no, only English or Spanish",no,2025-08-14_23h08.35.235,empathy_intonation_perc,2024.2.4,Win32,144.9275362,5dad4c34b3446a0015e3de93,687ed1b7e638a4cbf2f02089,689ea48b63119d60d7859f59,,,,,,,,,,,,,,1,,,,,,,,,,,,,,,,,,,,,,,,,,,,,,,,,,,,,,,,,,,,,,,,,,,,,,,,,43,canela,,,,,606.653,608.1893,0,0,1.0174,,0,86,86,42,1,REAL,FAKE,,,,,,,,,,,,,,,,,
,,,,,,,,,5dad4c34b3446a0015e3de93,Spanish,13 or older,"no, only English or Spanish",no,2025-08-14_23h08.35.235,empathy_intonation_perc,2024.2.4,Win32,144.9275362,5dad4c34b3446a0015e3de93,687ed1b7e638a4cbf2f02089,689ea48b63119d60d7859f59,,,,,,,,,,,,,,1,,,,,,,,,,,,,,,,,,,,,,,,,,,,,,,,,,,,,,,,,,,,,,,,,,,,,,,,,14,yunque,,,,,608.1897,616.661,0,0,7.9544,,0,87,87,13,1,REAL,FAKE,,,,,,,,,,,,,,,,,
,,,,,,,,,5dad4c34b3446a0015e3de93,Spanish,13 or older,"no, only English or Spanish",no,2025-08-14_23h08.35.235,empathy_intonation_perc,2024.2.4,Win32,144.9275362,5dad4c34b3446a0015e3de93,687ed1b7e638a4cbf2f02089,689ea48b63119d60d7859f59,,,,,,,,,,,,,,1,,,,,,,,,,,,,,,,,,,,,,,,,,,,,,,,,,,,,,,,,,,,,,,,,,,,,,,,,61,seda,,,,,616.6614,617.8486,0,0,0.6699,,0,88,88,60,1,REAL,FAKE,,,,,,,,,,,,,,,,,
,,,,,,,,,5dad4c34b3446a0015e3de93,Spanish,13 or older,"no, only English or Spanish",no,2025-08-14_23h08.35.235,empathy_intonation_perc,2024.2.4,Win32,144.9275362,5dad4c34b3446a0015e3de93,687ed1b7e638a4cbf2f02089,689ea48b63119d60d7859f59,,,,,,,,,,,,,,0,,,,,,,,,,,,,,,,,,,,,,,,,,,,,,,,,,,,,,,,,,,,,,,,,,,,,,,,,82,empirador,,,,,617.849,619.4114,0,1,1.0428,,0,89,89,81,1,REAL,FAKE,,,,,,,,,,,,,,,,,
,,,,,,,,,5dad4c34b3446a0015e3de93,Spanish,13 or older,"no, only English or Spanish",no,2025-08-14_23h08.35.235,empathy_intonation_perc,2024.2.4,Win32,144.9275362,5dad4c34b3446a0015e3de93,687ed1b7e638a4cbf2f02089,689ea48b63119d60d7859f59,,,,,,,,,,,,,,0,,,,,,,,,,,,,,,,,,,,,,,,,,,,,,,,,,,,,,,,,,,,,,,,,,,,,,,,,70,temblo,,,,,619.4117,620.8005,0,1,0.8796,,0,90,90,69,1,REAL,FAKE,,,,,,,,,,,,,,,,,
,,,,,,,,,5dad4c34b3446a0015e3de93,Spanish,13 or older,"no, only English or Spanish",no,2025-08-14_23h08.35.235,empathy_intonation_perc,2024.2.4,Win32,144.9275362,5dad4c34b3446a0015e3de93,687ed1b7e638a4cbf2f02089,689ea48b63119d60d7859f59,,,,,,,,,,,,,,1,,,,,,,,,,,,,,,,,,,,,,,,,,,,,,,,,,,,,,,,,,,,,,,,,,,,,,,,,49,ganar,,,,,620.8008,623.4814,0,0,2.1594,,0,91,91,48,1,REAL,FAKE,,,,,,,,,,,,,,,,,
,,,,,,,,,5dad4c34b3446a0015e3de93,Spanish,13 or older,"no, only English or Spanish",no,2025-08-14_23h08.35.235,empathy_intonation_perc,2024.2.4,Win32,144.9275362,5dad4c34b3446a0015e3de93,687ed1b7e638a4cbf2f02089,689ea48b63119d60d7859f59,,,,,,,,,,,,,,,,,,,,,,,,,,,,,,,,,,,,,,,,,,,,,,,,,,,,,,,,,,,,,,,,,,,,,,,,,,,,,,,,,,,,,,,,,,623.4815,629.4984,,,,,,,,,,,,,,,
,,,,,,,,,5dad4c34b3446a0015e3de93,Spanish,13 or older,"no, only English or Spanish",no,2025-08-14_23h08.35.235,empathy_intonation_perc,2024.2.4,Win32,144.9275362,5dad4c34b3446a0015e3de93,687ed1b7e638a4cbf2f02089,689ea48b63119d60d7859f59,,,,,,,,,,,,,1,,,,,,,,,,,,,,,,,,,,,,,,,,,,,,,,,,,,,,,,,,,,,,,,,,,,,,,,,,,,,,,,,,,,,,,,,,,,,,,629.5016,633.8996,slightly agree,0,0,0,0,1,I can easily tell if someone else wants to enter a conversation.,1,0,1,0,,
,,,,,,,,,5dad4c34b3446a0015e3de93,Spanish,13 or older,"no, only English or Spanish",no,2025-08-14_23h08.35.235,empathy_intonation_perc,2024.2.4,Win32,144.9275362,5dad4c34b3446a0015e3de93,687ed1b7e638a4cbf2f02089,689ea48b63119d60d7859f59,,,,,,,,,,,,,2,,,,,,,,,,,,,,,,,,,,,,,,,,,,,,,,,,,,,,,,,,,,,,,,,,,,,,,,,,,,,,,,,,,,,,,,,,,,,,,633.9004,637.6222,strongly agree,0,1,1,1,1,I prefer animals to humans.,0,1,0,0,,
,,,,,,,,,5dad4c34b3446a0015e3de93,Spanish,13 or older,"no, only English or Spanish",no,2025-08-14_23h08.35.235,empathy_intonation_perc,2024.2.4,Win32,144.9275362,5dad4c34b3446a0015e3de93,687ed1b7e638a4cbf2f02089,689ea48b63119d60d7859f59,,,,,,,,,,,,,3,,,,,,,,,,,,,,,,,,,,,,,,,,,,,,,,,,,,,,,,,,,,,,,,,,,,,,,,,,,,,,,,,,,,,,,,,,,,,,,637.6228,640.4699,slightly disagree,0,2,2,2,1,I try to keep up with the current trends and fashions.,0,1,0,0,,
,,,,,,,,,5dad4c34b3446a0015e3de93,Spanish,13 or older,"no, only English or Spanish",no,2025-08-14_23h08.35.235,empathy_intonation_perc,2024.2.4,Win32,144.9275362,5dad4c34b3446a0015e3de93,687ed1b7e638a4cbf2f02089,689ea48b63119d60d7859f59,,,,,,,,,,,,,4,,,,,,,,,,,,,,,,,,,,,,,,,,,,,,,,,,,,,,,,,,,,,,,,,,,,,,,,,,,,,,,,,,,,,,,,,,,,,,,640.4706,666.2097,slightly agree,0,3,3,3,1,"I find it difficult to explain to others things that I understand easily,   when they don't understand it first time.",1,0,0,1,,
,,,,,,,,,5dad4c34b3446a0015e3de93,Spanish,13 or older,"no, only English or Spanish",no,2025-08-14_23h08.35.235,empathy_intonation_perc,2024.2.4,Win32,144.9275362,5dad4c34b3446a0015e3de93,687ed1b7e638a4cbf2f02089,689ea48b63119d60d7859f59,,,,,,,,,,,,,5,,,,,,,,,,,,,,,,,,,,,,,,,,,,,,,,,,,,,,,,,,,,,,,,,,,,,,,,,,,,,,,,,,,,,,,,,,,,,,,666.2101,668.5921,slightly disagree,0,4,4,4,1,I dream most nights.,0,1,0,0,,
,,,,,,,,,5dad4c34b3446a0015e3de93,Spanish,13 or older,"no, only English or Spanish",no,2025-08-14_23h08.35.235,empathy_intonation_perc,2024.2.4,Win32,144.9275362,5dad4c34b3446a0015e3de93,687ed1b7e638a4cbf2f02089,689ea48b63119d60d7859f59,,,,,,,,,,,,,6,,,,,,,,,,,,,,,,,,,,,,,,,,,,,,,,,,,,,,,,,,,,,,,,,,,,,,,,,,,,,,,,,,,,,,,,,,,,,,,668.5925,674.7526,slightly agree,0,5,5,5,1,I really enjoy caring for other people.,1,0,1,0,,
,,,,,,,,,5dad4c34b3446a0015e3de93,Spanish,13 or older,"no, only English or Spanish",no,2025-08-14_23h08.35.235,empathy_intonation_perc,2024.2.4,Win32,144.9275362,5dad4c34b3446a0015e3de93,687ed1b7e638a4cbf2f02089,689ea48b63119d60d7859f59,,,,,,,,,,,,,7,,,,,,,,,,,,,,,,,,,,,,,,,,,,,,,,,,,,,,,,,,,,,,,,,,,,,,,,,,,,,,,,,,,,,,,,,,,,,,,674.7531,678.899,strongly agree,0,6,6,6,1,I try to solve my own problems rather than discussing them with others.,0,1,0,0,,
,,,,,,,,,5dad4c34b3446a0015e3de93,Spanish,13 or older,"no, only English or Spanish",no,2025-08-14_23h08.35.235,empathy_intonation_perc,2024.2.4,Win32,144.9275362,5dad4c34b3446a0015e3de93,687ed1b7e638a4cbf2f02089,689ea48b63119d60d7859f59,,,,,,,,,,,,,8,,,,,,,,,,,,,,,,,,,,,,,,,,,,,,,,,,,,,,,,,,,,,,,,,,,,,,,,,,,,,,,,,,,,,,,,,,,,,,,678.8994,683.0316,slightly disagree,0,7,7,7,1,I find it hard to know what to do in a social situation.,1,0,0,1,,
,,,,,,,,,5dad4c34b3446a0015e3de93,Spanish,13 or older,"no, only English or Spanish",no,2025-08-14_23h08.35.235,empathy_intonation_perc,2024.2.4,Win32,144.9275362,5dad4c34b3446a0015e3de93,687ed1b7e638a4cbf2f02089,689ea48b63119d60d7859f59,,,,,,,,,,,,,9,,,,,,,,,,,,,,,,,,,,,,,,,,,,,,,,,,,,,,,,,,,,,,,,,,,,,,,,,,,,,,,,,,,,,,,,,,,,,,,683.0321,685.0944,strongly disagree,0,8,8,8,1,I am at my best first thing in the morning.,0,1,0,0,,
,,,,,,,,,5dad4c34b3446a0015e3de93,Spanish,13 or older,"no, only English or Spanish",no,2025-08-14_23h08.35.235,empathy_intonation_perc,2024.2.4,Win32,144.9275362,5dad4c34b3446a0015e3de93,687ed1b7e638a4cbf2f02089,689ea48b63119d60d7859f59,,,,,,,,,,,,,10,,,,,,,,,,,,,,,,,,,,,,,,,,,,,,,,,,,,,,,,,,,,,,,,,,,,,,,,,,,,,,,,,,,,,,,,,,,,,,,685.0952,688.5601,strongly disagree,0,9,9,9,1,People often tell me that I went too far in driving my point home in a discussion.,1,0,0,1,,
