instructions_exposure.started,instructions_exposure.stopped,instructions_exposure_loop.thisRepN,instructions_exposure_loop.thisTrialN,instructions_exposure_loop.thisN,instructions_exposure_loop.thisIndex,instructions_exposure_loop.ran,instructions_text,continue_text,participant_id,"What variety of Spanish are you most familiar with? (e.g., Peruvian, Spanish, Mexican)",At what age did you begin learning Spanish?,Are you proficient in any languages other than English/Spanish?,"Are you familiar with Caribbean (e.g., Caribbean, Puerto Rican) or Galician Spanish?",date,expName,psychopyVersion,OS,frameRate,id,study_id,session,trial_exposure.started,trial_exposure.stopped,key_resp_exposure.keys,key_resp_exposure.corr,key_resp_exposure.rt,key_resp_exposure.duration,key_resp.keys,exposure_loop.thisRepN,exposure_loop.thisTrialN,exposure_loop.thisN,exposure_loop.thisIndex,exposure_loop.ran,item_num,correct_response,question,path,duration,instructions_2afc.started,instructions_2afc.stopped,instructions_2afc_loop.thisRepN,instructions_2afc_loop.thisTrialN,instructions_2afc_loop.thisN,instructions_2afc_loop.thisIndex,instructions_2afc_loop.ran,practice_2afc.started,practice_2afc.stopped,key_resp_2afc_practice.keys,key_resp_2afc_practice.corr,key_resp_2afc_practice.rt,key_resp_2afc_practice.duration,trials_2afc_practice_loop.thisRepN,trials_2afc_practice_loop.thisTrialN,trials_2afc_practice_loop.thisN,trials_2afc_practice_loop.thisIndex,trials_2afc_practice_loop.ran,check_2afc.started,check_2afc.stopped,trial_2afc.started,trial_2afc.stopped,key_resp_2afc_trial.keys,key_resp_2afc_trial.corr,key_resp_2afc_trial.rt,key_resp_2afc_trial.duration,trials_2afc_loop.thisRepN,trials_2afc_loop.thisTrialN,trials_2afc_loop.thisN,trials_2afc_loop.thisIndex,trials_2afc_loop.ran,target,variety,instructions_lextale.started,instructions_lextale.stopped,instructions_lextale_loop.thisRepN,instructions_lextale_loop.thisTrialN,instructions_lextale_loop.thisN,instructions_lextale_loop.thisIndex,instructions_lextale_loop.ran,practice_lextale.started,practice_lextale.stopped,key_resp_lextale_practice.keys,key_resp_lextale_practice.corr,key_resp_lextale_practice.rt,key_resp_lextale_practice.duration,practice_feedback_lextale.started,practice_feedback_lextale.stopped,trials_lextale_practice_loop.thisRepN,trials_lextale_practice_loop.thisTrialN,trials_lextale_practice_loop.thisN,trials_lextale_practice_loop.thisIndex,trials_lextale_practice_loop.ran,stim,word,prac_button_real,prac_button_false,check_lextale.started,check_lextale.stopped,trial_lextale.started,trial_lextale.stopped,key_resp_lextale_trial.keys,key_resp_lextale_trial.corr,key_resp_lextale_trial.rt,key_resp_lextale_trial.duration,trials_lextale_loop.thisRepN,trials_lextale_loop.thisTrialN,trials_lextale_loop.thisN,trials_lextale_loop.thisIndex,trials_lextale_loop.ran,button_real,button_false,instructions_eq.started,instructions_eq.stopped,trial_eq.started,trial_eq.stopped,slider_eq_trial.response,trials_eq_loop.thisRepN,trials_eq_loop.thisTrialN,trials_eq_loop.thisN,trials_eq_loop.thisIndex,trials_eq_loop.ran,item,is_test_item,is_distractor,is_agree_score,is_disagree_score,end_exp.started,end_exp.stopped
0.0087,1.727,0,0,0,0,1,"In the following task, you are going to hear a series of conversations.", (press the space bar to continue),5de81d685a8f94795b893d45,Spanish,13 or older,"no, only English or Spanish",no,2026-01-14_14h52.57.467,empathy_intonation_perc,2024.2.4,Win32,59.88023952,5de81d685a8f94795b893d45,6967d75d9f4867d525f9ffbe,6967f3e7728dbc343ff04dec,,,,,,,,,,,,,,,,,,,,,,,,,,,,,,,,,,,,,,,,,,,,,,,,,,,,,,,,,,,,,,,,,,,,,,,,,,,,,,,,,,,,,,,,,,,,,,,,,,,,,,,,,,
1.7282,3.2768,0,1,1,1,1,It is okay if you don't not 100% understand them!, (press the space bar to continue),5de81d685a8f94795b893d45,Spanish,13 or older,"no, only English or Spanish",no,2026-01-14_14h52.57.467,empathy_intonation_perc,2024.2.4,Win32,59.88023952,5de81d685a8f94795b893d45,6967d75d9f4867d525f9ffbe,6967f3e7728dbc343ff04dec,,,,,,,,,,,,,,,,,,,,,,,,,,,,,,,,,,,,,,,,,,,,,,,,,,,,,,,,,,,,,,,,,,,,,,,,,,,,,,,,,,,,,,,,,,,,,,,,,,,,,,,,,,
3.2774,6.8767,0,2,2,2,1,"After, you will read a sentence about the conversation and decide if it's true or false.", (press the space bar to continue),5de81d685a8f94795b893d45,Spanish,13 or older,"no, only English or Spanish",no,2026-01-14_14h52.57.467,empathy_intonation_perc,2024.2.4,Win32,59.88023952,5de81d685a8f94795b893d45,6967d75d9f4867d525f9ffbe,6967f3e7728dbc343ff04dec,,,,,,,,,,,,,,,,,,,,,,,,,,,,,,,,,,,,,,,,,,,,,,,,,,,,,,,,,,,,,,,,,,,,,,,,,,,,,,,,,,,,,,,,,,,,,,,,,,,,,,,,,,
6.8777,11.4439,0,3,3,3,1,"If it's true, press '1' (True) and if it's false press '0' (False).", (press the space bar to continue),5de81d685a8f94795b893d45,Spanish,13 or older,"no, only English or Spanish",no,2026-01-14_14h52.57.467,empathy_intonation_perc,2024.2.4,Win32,59.88023952,5de81d685a8f94795b893d45,6967d75d9f4867d525f9ffbe,6967f3e7728dbc343ff04dec,,,,,,,,,,,,,,,,,,,,,,,,,,,,,,,,,,,,,,,,,,,,,,,,,,,,,,,,,,,,,,,,,,,,,,,,,,,,,,,,,,,,,,,,,,,,,,,,,,,,,,,,,,
,,,,,,,,,5de81d685a8f94795b893d45,Spanish,13 or older,"no, only English or Spanish",no,2026-01-14_14h52.57.467,empathy_intonation_perc,2024.2.4,Win32,59.88023952,5de81d685a8f94795b893d45,6967d75d9f4867d525f9ffbe,6967f3e7728dbc343ff04dec,11.4479,63.291,0,0,4.806,,,0,0,0,0,1,1,1,The son asked the mom if Aunt Marina is okay.,./stim/exposure_wavs/ga_stimuli_convo.wav,47,,,,,,,,,,,,,,,,,,,,,,,,,,,,,,,,,,,,,,,,,,,,,,,,,,,,,,,,,,,,,,,,,,,,,,,,,,,,,,,,,,,,,,,,,
,,,,,,,,,5de81d685a8f94795b893d45,Spanish,13 or older,"no, only English or Spanish",no,2026-01-14_14h52.57.467,empathy_intonation_perc,2024.2.4,Win32,59.88023952,5de81d685a8f94795b893d45,6967d75d9f4867d525f9ffbe,6967f3e7728dbc343ff04dec,63.2924,103.4719,0,1,4.1524,,,0,1,1,2,1,3,0,The mom already has rice.,./stim/exposure_wavs/pr_stimuli_convo.wav,36,,,,,,,,,,,,,,,,,,,,,,,,,,,,,,,,,,,,,,,,,,,,,,,,,,,,,,,,,,,,,,,,,,,,,,,,,,,,,,,,,,,,,,,,,
,,,,,,,,,5de81d685a8f94795b893d45,Spanish,13 or older,"no, only English or Spanish",no,2026-01-14_14h52.57.467,empathy_intonation_perc,2024.2.4,Win32,59.88023952,5de81d685a8f94795b893d45,6967d75d9f4867d525f9ffbe,6967f3e7728dbc343ff04dec,103.4731,165.8021,1,1,2.3011,,,0,2,2,1,1,2,1,The mom asked the daughter if she already went to the supermarket.,./stim/exposure_wavs/dr_stimuli_convo.wav,60,,,,,,,,,,,,,,,,,,,,,,,,,,,,,,,,,,,,,,,,,,,,,,,,,,,,,,,,,,,,,,,,,,,,,,,,,,,,,,,,,,,,,,,,,
,,,,,,,"In the following task you are going to hear a series of utterances. 

  You will decide if the utterances sound like questions or not using your keyboard.", (press the spacebar to continue),5de81d685a8f94795b893d45,Spanish,13 or older,"no, only English or Spanish",no,2026-01-14_14h52.57.467,empathy_intonation_perc,2024.2.4,Win32,59.88023952,5de81d685a8f94795b893d45,6967d75d9f4867d525f9ffbe,6967f3e7728dbc343ff04dec,,,,,,,,,,,,,,,,,,165.8053,172.6527,0,0,0,0,1,,,,,,,,,,,,,,,,,,,,,,,,,,,,,,,,,,,,,,,,,,,,,,,,,,,,,,,,,,,,,,,,,,,,,,,,,,,,,,,,,,
,,,,,,,"If you believe the utterance is a question, type '1' (for 'yes') and if you do not 
  believe it is a question type '0' (for 'no').

  Let's practice a bit...", (press the spacebar to continue),5de81d685a8f94795b893d45,Spanish,13 or older,"no, only English or Spanish",no,2026-01-14_14h52.57.467,empathy_intonation_perc,2024.2.4,Win32,59.88023952,5de81d685a8f94795b893d45,6967d75d9f4867d525f9ffbe,6967f3e7728dbc343ff04dec,,,,,,,,,,,,,,,,,,172.6536,181.9853,0,1,1,1,1,,,,,,,,,,,,,,,,,,,,,,,,,,,,,,,,,,,,,,,,,,,,,,,,,,,,,,,,,,,,,,,,,,,,,,,,,,,,,,,,,,
,,,,,,,,,5de81d685a8f94795b893d45,Spanish,13 or older,"no, only English or Spanish",no,2026-01-14_14h52.57.467,empathy_intonation_perc,2024.2.4,Win32,59.88023952,5de81d685a8f94795b893d45,6967d75d9f4867d525f9ffbe,6967f3e7728dbc343ff04dec,,,,,,,,,,,,,,0,,./stim/wavs/peruvian_statement_filler_El-nino-habla-con-su-madre.wav,,,,,,,,,181.9882,185.1018,0,1,2.5865,,0,0,0,6,1,,,,,,,,,,,,,,,,,,,,,,,,,,,,,,,,,,,,,,,,,,,,,,,,,,,,,,,,,,,,,,,,,,,,,,,
,,,,,,,,,5de81d685a8f94795b893d45,Spanish,13 or older,"no, only English or Spanish",no,2026-01-14_14h52.57.467,empathy_intonation_perc,2024.2.4,Win32,59.88023952,5de81d685a8f94795b893d45,6967d75d9f4867d525f9ffbe,6967f3e7728dbc343ff04dec,,,,,,,,,,,,,,0,,./stim/wavs/andalusian_statement_filler_Alberto-nunca-se-afeita.wav,,,,,,,,,185.1024,187.9184,0,1,2.2863,,0,1,1,5,1,,,,,,,,,,,,,,,,,,,,,,,,,,,,,,,,,,,,,,,,,,,,,,,,,,,,,,,,,,,,,,,,,,,,,,,
,,,,,,,,,5de81d685a8f94795b893d45,Spanish,13 or older,"no, only English or Spanish",no,2026-01-14_14h52.57.467,empathy_intonation_perc,2024.2.4,Win32,59.88023952,5de81d685a8f94795b893d45,6967d75d9f4867d525f9ffbe,6967f3e7728dbc343ff04dec,,,,,,,,,,,,,,1,,./stim/wavs/argentine_question_filler_Mi-vecino-habla-mucho.wav,,,,,,,,,187.9188,190.1175,1,1,1.6699,,0,2,2,1,1,,,,,,,,,,,,,,,,,,,,,,,,,,,,,,,,,,,,,,,,,,,,,,,,,,,,,,,,,,,,,,,,,,,,,,,
,,,,,,,,,5de81d685a8f94795b893d45,Spanish,13 or older,"no, only English or Spanish",no,2026-01-14_14h52.57.467,empathy_intonation_perc,2024.2.4,Win32,59.88023952,5de81d685a8f94795b893d45,6967d75d9f4867d525f9ffbe,6967f3e7728dbc343ff04dec,,,,,,,,,,,,,,0,,./stim/wavs/cuban_statement_filler_Cocinabas-por-la-noche.wav,,,,,,,,,190.1183,192.6511,0,1,2.0057,,0,3,3,4,1,,,,,,,,,,,,,,,,,,,,,,,,,,,,,,,,,,,,,,,,,,,,,,,,,,,,,,,,,,,,,,,,,,,,,,,
,,,,,,,,,5de81d685a8f94795b893d45,Spanish,13 or older,"no, only English or Spanish",no,2026-01-14_14h52.57.467,empathy_intonation_perc,2024.2.4,Win32,59.88023952,5de81d685a8f94795b893d45,6967d75d9f4867d525f9ffbe,6967f3e7728dbc343ff04dec,,,,,,,,,,,,,,1,,./stim/wavs/chilean_question_filler_Mi-padre-cantaba-bien.wav,,,,,,,,,192.6515,195.1673,1,1,1.9892,,0,4,4,2,1,,,,,,,,,,,,,,,,,,,,,,,,,,,,,,,,,,,,,,,,,,,,,,,,,,,,,,,,,,,,,,,,,,,,,,,
,,,,,,,,,5de81d685a8f94795b893d45,Spanish,13 or older,"no, only English or Spanish",no,2026-01-14_14h52.57.467,empathy_intonation_perc,2024.2.4,Win32,59.88023952,5de81d685a8f94795b893d45,6967d75d9f4867d525f9ffbe,6967f3e7728dbc343ff04dec,,,,,,,,,,,,,,1,,./stim/wavs/castilian_question_filler_Mi-esposo-conoce-al-chico.wav,,,,,,,,,195.1677,197.9013,1,1,2.2059,,0,5,5,0,1,,,,,,,,,,,,,,,,,,,,,,,,,,,,,,,,,,,,,,,,,,,,,,,,,,,,,,,,,,,,,,,,,,,,,,,
,,,,,,,,,5de81d685a8f94795b893d45,Spanish,13 or older,"no, only English or Spanish",no,2026-01-14_14h52.57.467,empathy_intonation_perc,2024.2.4,Win32,59.88023952,5de81d685a8f94795b893d45,6967d75d9f4867d525f9ffbe,6967f3e7728dbc343ff04dec,,,,,,,,,,,,,,1,,./stim/wavs/mexican_question_filler_Felipe-no-tiene-contrasena.wav,,,,,,,,,197.9018,200.9173,1,1,2.4881,,0,6,6,3,1,,,,,,,,,,,,,,,,,,,,,,,,,,,,,,,,,,,,,,,,,,,,,,,,,,,,,,,,,,,,,,,,,,,,,,,
,,,,,,,,,5de81d685a8f94795b893d45,Spanish,13 or older,"no, only English or Spanish",no,2026-01-14_14h52.57.467,empathy_intonation_perc,2024.2.4,Win32,59.88023952,5de81d685a8f94795b893d45,6967d75d9f4867d525f9ffbe,6967f3e7728dbc343ff04dec,,,,,,,,,,,,,,0,,./stim/wavs/puertorican_statement_filler_La-nina-pinta-con-su-amiga.wav,,,,,,,,,200.9179,203.7174,0,1,2.2716,,0,7,7,7,1,,,,,,,,,,,,,,,,,,,,,,,,,,,,,,,,,,,,,,,,,,,,,,,,,,,,,,,,,,,,,,,,,,,,,,,
,,,,,,,,,5de81d685a8f94795b893d45,Spanish,13 or older,"no, only English or Spanish",no,2026-01-14_14h52.57.467,empathy_intonation_perc,2024.2.4,Win32,59.88023952,5de81d685a8f94795b893d45,6967d75d9f4867d525f9ffbe,6967f3e7728dbc343ff04dec,,,,,,,,,,,,,,,,,,,,,,,,,,,,,,,,,,,,203.7176,206.8006,,,,,,,,,,,,,,,,,,,,,,,,,,,,,,,,,,,,,,,,,,,,,,,,,,,,,,,,,,,,,,,,,,,,,
,,,,,,,,,5de81d685a8f94795b893d45,Spanish,13 or older,"no, only English or Spanish",no,2026-01-14_14h52.57.467,empathy_intonation_perc,2024.2.4,Win32,59.88023952,5de81d685a8f94795b893d45,6967d75d9f4867d525f9ffbe,6967f3e7728dbc343ff04dec,,,,,,,,,,,,,16,1,,./stim/wavs/mexican_match_interrogative-total-yn_Emilio-ama-la-marcha.wav,,,,,,,,,,,,,,,,,,,,,,206.805,208.9341,1,1,1.6056,,0,0,0,15,1,0,mexican,,,,,,,,,,,,,,,,,,,,,,,,,,,,,,,,,,,,,,,,,,,,,,,,,,,,,,,,
,,,,,,,,,5de81d685a8f94795b893d45,Spanish,13 or older,"no, only English or Spanish",no,2026-01-14_14h52.57.467,empathy_intonation_perc,2024.2.4,Win32,59.88023952,5de81d685a8f94795b893d45,6967d75d9f4867d525f9ffbe,6967f3e7728dbc343ff04dec,,,,,,,,,,,,,74,0,,./stim/wavs/cuban_mismatch_declarative-broad-focus_El-bebe-comia-muy-bien.wav,,,,,,,,,,,,,,,,,,,,,,208.9346,210.9011,0,1,1.4396,,0,1,1,73,1,0,cuban,,,,,,,,,,,,,,,,,,,,,,,,,,,,,,,,,,,,,,,,,,,,,,,,,,,,,,,,
,,,,,,,,,5de81d685a8f94795b893d45,Spanish,13 or older,"no, only English or Spanish",no,2026-01-14_14h52.57.467,empathy_intonation_perc,2024.2.4,Win32,59.88023952,5de81d685a8f94795b893d45,6967d75d9f4867d525f9ffbe,6967f3e7728dbc343ff04dec,,,,,,,,,,,,,69,0,,./stim/wavs/castilian_mismatch_declarative-broad-focus_El-nino-oye-el-rio.wav,,,,,,,,,,,,,,,,,,,,,,210.9014,213.2002,0,1,1.7851,,0,2,2,68,1,0,castilian,,,,,,,,,,,,,,,,,,,,,,,,,,,,,,,,,,,,,,,,,,,,,,,,,,,,,,,,
,,,,,,,,,5de81d685a8f94795b893d45,Spanish,13 or older,"no, only English or Spanish",no,2026-01-14_14h52.57.467,empathy_intonation_perc,2024.2.4,Win32,59.88023952,5de81d685a8f94795b893d45,6967d75d9f4867d525f9ffbe,6967f3e7728dbc343ff04dec,,,,,,,,,,,,,4,1,,./stim/wavs/castilian_match_interrogative-total-yn_Maria-bebe-el-vino.wav,,,,,,,,,,,,,,,,,,,,,,213.2006,215.2827,1,1,1.5551,,0,3,3,3,1,0,castilian,,,,,,,,,,,,,,,,,,,,,,,,,,,,,,,,,,,,,,,,,,,,,,,,,,,,,,,,
,,,,,,,,,5de81d685a8f94795b893d45,Spanish,13 or older,"no, only English or Spanish",no,2026-01-14_14h52.57.467,empathy_intonation_perc,2024.2.4,Win32,59.88023952,5de81d685a8f94795b893d45,6967d75d9f4867d525f9ffbe,6967f3e7728dbc343ff04dec,,,,,,,,,,,,,34,1,,./stim/wavs/cuban_mismatch_interrogative-total-yn_Mi-tia-odia-la-lluvia.wav,,,,,,,,,,,,,,,,,,,,,,215.283,217.3663,0,0,1.5544,,0,4,4,33,1,1,cuban,,,,,,,,,,,,,,,,,,,,,,,,,,,,,,,,,,,,,,,,,,,,,,,,,,,,,,,,
,,,,,,,,,5de81d685a8f94795b893d45,Spanish,13 or older,"no, only English or Spanish",no,2026-01-14_14h52.57.467,empathy_intonation_perc,2024.2.4,Win32,59.88023952,5de81d685a8f94795b893d45,6967d75d9f4867d525f9ffbe,6967f3e7728dbc343ff04dec,,,,,,,,,,,,,2,1,,./stim/wavs/castilian_match_interrogative-total-yn_Emilio-ama-la-marcha.wav,,,,,,,,,,,,,,,,,,,,,,217.3671,219.5665,1,1,1.6711,,0,5,5,1,1,0,castilian,,,,,,,,,,,,,,,,,,,,,,,,,,,,,,,,,,,,,,,,,,,,,,,,,,,,,,,,
,,,,,,,,,5de81d685a8f94795b893d45,Spanish,13 or older,"no, only English or Spanish",no,2026-01-14_14h52.57.467,empathy_intonation_perc,2024.2.4,Win32,59.88023952,5de81d685a8f94795b893d45,6967d75d9f4867d525f9ffbe,6967f3e7728dbc343ff04dec,,,,,,,,,,,,,23,1,,./stim/wavs/puertorican_match_interrogative-total-yn_Manuela-vende-el-carro.wav,,,,,,,,,,,,,,,,,,,,,,219.567,221.7165,0,0,1.6368,,0,6,6,22,1,1,puertorican,,,,,,,,,,,,,,,,,,,,,,,,,,,,,,,,,,,,,,,,,,,,,,,,,,,,,,,,
,,,,,,,,,5de81d685a8f94795b893d45,Spanish,13 or older,"no, only English or Spanish",no,2026-01-14_14h52.57.467,empathy_intonation_perc,2024.2.4,Win32,59.88023952,5de81d685a8f94795b893d45,6967d75d9f4867d525f9ffbe,6967f3e7728dbc343ff04dec,,,,,,,,,,,,,42,1,,./stim/wavs/puertorican_mismatch_interrogative-total-yn_La-maestra-vive-en-Paris.wav,,,,,,,,,,,,,,,,,,,,,,221.7168,223.982,0,0,1.7372,,0,7,7,41,1,1,puertorican,,,,,,,,,,,,,,,,,,,,,,,,,,,,,,,,,,,,,,,,,,,,,,,,,,,,,,,,
,,,,,,,,,5de81d685a8f94795b893d45,Spanish,13 or older,"no, only English or Spanish",no,2026-01-14_14h52.57.467,empathy_intonation_perc,2024.2.4,Win32,59.88023952,5de81d685a8f94795b893d45,6967d75d9f4867d525f9ffbe,6967f3e7728dbc343ff04dec,,,,,,,,,,,,,29,1,,./stim/wavs/castilian_mismatch_interrogative-total-yn_Mi-tia-odia-la-lluvia.wav,,,,,,,,,,,,,,,,,,,,,,223.9824,226.1825,1,1,1.6874,,0,8,8,28,1,0,castilian,,,,,,,,,,,,,,,,,,,,,,,,,,,,,,,,,,,,,,,,,,,,,,,,,,,,,,,,
,,,,,,,,,5de81d685a8f94795b893d45,Spanish,13 or older,"no, only English or Spanish",no,2026-01-14_14h52.57.467,empathy_intonation_perc,2024.2.4,Win32,59.88023952,5de81d685a8f94795b893d45,6967d75d9f4867d525f9ffbe,6967f3e7728dbc343ff04dec,,,,,,,,,,,,,50,0,,./stim/wavs/castilian_match_declarative-broad-focus_Marta-abre-el-regalo.wav,,,,,,,,,,,,,,,,,,,,,,226.183,228.5987,0,1,1.8877,,0,9,9,49,1,0,castilian,,,,,,,,,,,,,,,,,,,,,,,,,,,,,,,,,,,,,,,,,,,,,,,,,,,,,,,,
,,,,,,,,,5de81d685a8f94795b893d45,Spanish,13 or older,"no, only English or Spanish",no,2026-01-14_14h52.57.467,empathy_intonation_perc,2024.2.4,Win32,59.88023952,5de81d685a8f94795b893d45,6967d75d9f4867d525f9ffbe,6967f3e7728dbc343ff04dec,,,,,,,,,,,,,60,0,,./stim/wavs/mexican_match_declarative-broad-focus_Emilio-ama-la-marcha.wav,,,,,,,,,,,,,,,,,,,,,,228.599,230.9499,0,1,1.8376,,0,10,10,59,1,0,mexican,,,,,,,,,,,,,,,,,,,,,,,,,,,,,,,,,,,,,,,,,,,,,,,,,,,,,,,,
,,,,,,,,,5de81d685a8f94795b893d45,Spanish,13 or older,"no, only English or Spanish",no,2026-01-14_14h52.57.467,empathy_intonation_perc,2024.2.4,Win32,59.88023952,5de81d685a8f94795b893d45,6967d75d9f4867d525f9ffbe,6967f3e7728dbc343ff04dec,,,,,,,,,,,,,46,0,,./stim/wavs/castilian_match_declarative-broad-focus_Emilio-ama-la-marcha.wav,,,,,,,,,,,,,,,,,,,,,,230.9502,233.1826,0,1,1.7038,,0,11,11,45,1,0,castilian,,,,,,,,,,,,,,,,,,,,,,,,,,,,,,,,,,,,,,,,,,,,,,,,,,,,,,,,
,,,,,,,,,5de81d685a8f94795b893d45,Spanish,13 or older,"no, only English or Spanish",no,2026-01-14_14h52.57.467,empathy_intonation_perc,2024.2.4,Win32,59.88023952,5de81d685a8f94795b893d45,6967d75d9f4867d525f9ffbe,6967f3e7728dbc343ff04dec,,,,,,,,,,,,,44,1,,./stim/wavs/puertorican_mismatch_interrogative-total-yn_Mi-madre-come-la-fruta.wav,,,,,,,,,,,,,,,,,,,,,,233.1829,235.4652,0,0,1.755,,0,12,12,43,1,1,puertorican,,,,,,,,,,,,,,,,,,,,,,,,,,,,,,,,,,,,,,,,,,,,,,,,,,,,,,,,
,,,,,,,,,5de81d685a8f94795b893d45,Spanish,13 or older,"no, only English or Spanish",no,2026-01-14_14h52.57.467,empathy_intonation_perc,2024.2.4,Win32,59.88023952,5de81d685a8f94795b893d45,6967d75d9f4867d525f9ffbe,6967f3e7728dbc343ff04dec,,,,,,,,,,,,,72,0,,./stim/wavs/castilian_mismatch_declarative-broad-focus_Mi-novio-viene-del-lago.wav,,,,,,,,,,,,,,,,,,,,,,235.4656,237.8154,0,1,1.8211,,0,13,13,71,1,0,castilian,,,,,,,,,,,,,,,,,,,,,,,,,,,,,,,,,,,,,,,,,,,,,,,,,,,,,,,,
,,,,,,,,,5de81d685a8f94795b893d45,Spanish,13 or older,"no, only English or Spanish",no,2026-01-14_14h52.57.467,empathy_intonation_perc,2024.2.4,Win32,59.88023952,5de81d685a8f94795b893d45,6967d75d9f4867d525f9ffbe,6967f3e7728dbc343ff04dec,,,,,,,,,,,,,7,1,,./stim/wavs/cuban_match_interrogative-total-yn_Ana-lleva-el-abrigo.wav,,,,,,,,,,,,,,,,,,,,,,237.816,239.7163,0,0,1.3734,,0,14,14,6,1,1,cuban,,,,,,,,,,,,,,,,,,,,,,,,,,,,,,,,,,,,,,,,,,,,,,,,,,,,,,,,
,,,,,,,,,5de81d685a8f94795b893d45,Spanish,13 or older,"no, only English or Spanish",no,2026-01-14_14h52.57.467,empathy_intonation_perc,2024.2.4,Win32,59.88023952,5de81d685a8f94795b893d45,6967d75d9f4867d525f9ffbe,6967f3e7728dbc343ff04dec,,,,,,,,,,,,,58,0,,./stim/wavs/mexican_match_declarative-broad-focus_Daniel-iba-a-Bolivia.wav,,,,,,,,,,,,,,,,,,,,,,239.7165,241.7822,0,1,1.5371,,0,15,15,57,1,0,mexican,,,,,,,,,,,,,,,,,,,,,,,,,,,,,,,,,,,,,,,,,,,,,,,,,,,,,,,,
,,,,,,,,,5de81d685a8f94795b893d45,Spanish,13 or older,"no, only English or Spanish",no,2026-01-14_14h52.57.467,empathy_intonation_perc,2024.2.4,Win32,59.88023952,5de81d685a8f94795b893d45,6967d75d9f4867d525f9ffbe,6967f3e7728dbc343ff04dec,,,,,,,,,,,,,39,1,,./stim/wavs/mexican_mismatch_interrogative-total-yn_Mi-tia-odia-la-lluvia.wav,,,,,,,,,,,,,,,,,,,,,,241.7827,244.1651,1,1,1.8537,,0,16,16,38,1,0,mexican,,,,,,,,,,,,,,,,,,,,,,,,,,,,,,,,,,,,,,,,,,,,,,,,,,,,,,,,
,,,,,,,,,5de81d685a8f94795b893d45,Spanish,13 or older,"no, only English or Spanish",no,2026-01-14_14h52.57.467,empathy_intonation_perc,2024.2.4,Win32,59.88023952,5de81d685a8f94795b893d45,6967d75d9f4867d525f9ffbe,6967f3e7728dbc343ff04dec,,,,,,,,,,,,,62,0,,./stim/wavs/mexican_match_declarative-broad-focus_Marta-abre-el-regalo.wav,,,,,,,,,,,,,,,,,,,,,,244.1658,246.4145,0,1,1.721,,0,17,17,61,1,0,mexican,,,,,,,,,,,,,,,,,,,,,,,,,,,,,,,,,,,,,,,,,,,,,,,,,,,,,,,,
,,,,,,,,,5de81d685a8f94795b893d45,Spanish,13 or older,"no, only English or Spanish",no,2026-01-14_14h52.57.467,empathy_intonation_perc,2024.2.4,Win32,59.88023952,5de81d685a8f94795b893d45,6967d75d9f4867d525f9ffbe,6967f3e7728dbc343ff04dec,,,,,,,,,,,,,51,0,,./stim/wavs/cuban_match_declarative-broad-focus_Ana-lleva-el-abrigo.wav,,,,,,,,,,,,,,,,,,,,,,246.415,248.632,0,1,1.7041,,0,18,18,50,1,0,cuban,,,,,,,,,,,,,,,,,,,,,,,,,,,,,,,,,,,,,,,,,,,,,,,,,,,,,,,,
,,,,,,,,,5de81d685a8f94795b893d45,Spanish,13 or older,"no, only English or Spanish",no,2026-01-14_14h52.57.467,empathy_intonation_perc,2024.2.4,Win32,59.88023952,5de81d685a8f94795b893d45,6967d75d9f4867d525f9ffbe,6967f3e7728dbc343ff04dec,,,,,,,,,,,,,35,1,,./stim/wavs/mexican_mismatch_interrogative-total-yn_El-hombre-mira-la-luna.wav,,,,,,,,,,,,,,,,,,,,,,248.6324,251.2149,1,1,2.0539,,0,19,19,34,1,0,mexican,,,,,,,,,,,,,,,,,,,,,,,,,,,,,,,,,,,,,,,,,,,,,,,,,,,,,,,,
,,,,,,,,,5de81d685a8f94795b893d45,Spanish,13 or older,"no, only English or Spanish",no,2026-01-14_14h52.57.467,empathy_intonation_perc,2024.2.4,Win32,59.88023952,5de81d685a8f94795b893d45,6967d75d9f4867d525f9ffbe,6967f3e7728dbc343ff04dec,,,,,,,,,,,,,56,0,,./stim/wavs/cuban_match_declarative-broad-focus_Marta-abre-el-regalo.wav,,,,,,,,,,,,,,,,,,,,,,251.2155,253.4808,0,1,1.7387,,0,20,20,55,1,0,cuban,,,,,,,,,,,,,,,,,,,,,,,,,,,,,,,,,,,,,,,,,,,,,,,,,,,,,,,,
,,,,,,,,,5de81d685a8f94795b893d45,Spanish,13 or older,"no, only English or Spanish",no,2026-01-14_14h52.57.467,empathy_intonation_perc,2024.2.4,Win32,59.88023952,5de81d685a8f94795b893d45,6967d75d9f4867d525f9ffbe,6967f3e7728dbc343ff04dec,,,,,,,,,,,,,88,0,,./stim/wavs/puertorican_mismatch_declarative-broad-focus_La-nina-lava-el-plato.wav,,,,,,,,,,,,,,,,,,,,,,253.4813,255.8308,0,1,1.8381,,0,21,21,87,1,0,puertorican,,,,,,,,,,,,,,,,,,,,,,,,,,,,,,,,,,,,,,,,,,,,,,,,,,,,,,,,
,,,,,,,,,5de81d685a8f94795b893d45,Spanish,13 or older,"no, only English or Spanish",no,2026-01-14_14h52.57.467,empathy_intonation_perc,2024.2.4,Win32,59.88023952,5de81d685a8f94795b893d45,6967d75d9f4867d525f9ffbe,6967f3e7728dbc343ff04dec,,,,,,,,,,,,,32,1,,./stim/wavs/cuban_mismatch_interrogative-total-yn_Mi-madre-come-la-fruta.wav,,,,,,,,,,,,,,,,,,,,,,255.8313,258.2806,0,0,1.9375,,0,22,22,31,1,1,cuban,,,,,,,,,,,,,,,,,,,,,,,,,,,,,,,,,,,,,,,,,,,,,,,,,,,,,,,,
,,,,,,,,,5de81d685a8f94795b893d45,Spanish,13 or older,"no, only English or Spanish",no,2026-01-14_14h52.57.467,empathy_intonation_perc,2024.2.4,Win32,59.88023952,5de81d685a8f94795b893d45,6967d75d9f4867d525f9ffbe,6967f3e7728dbc343ff04dec,,,,,,,,,,,,,20,1,,./stim/wavs/puertorican_match_interrogative-total-yn_Daniel-iba-a-Bolivia.wav,,,,,,,,,,,,,,,,,,,,,,258.2809,260.4807,0,0,1.6873,,0,23,23,19,1,1,puertorican,,,,,,,,,,,,,,,,,,,,,,,,,,,,,,,,,,,,,,,,,,,,,,,,,,,,,,,,
,,,,,,,,,5de81d685a8f94795b893d45,Spanish,13 or older,"no, only English or Spanish",no,2026-01-14_14h52.57.467,empathy_intonation_perc,2024.2.4,Win32,59.88023952,5de81d685a8f94795b893d45,6967d75d9f4867d525f9ffbe,6967f3e7728dbc343ff04dec,,,,,,,,,,,,,70,0,,./stim/wavs/castilian_mismatch_declarative-broad-focus_La-maestra-vive-en-Paris.wav,,,,,,,,,,,,,,,,,,,,,,260.4812,262.8805,0,1,1.8876,,0,24,24,69,1,0,castilian,,,,,,,,,,,,,,,,,,,,,,,,,,,,,,,,,,,,,,,,,,,,,,,,,,,,,,,,
,,,,,,,,,5de81d685a8f94795b893d45,Spanish,13 or older,"no, only English or Spanish",no,2026-01-14_14h52.57.467,empathy_intonation_perc,2024.2.4,Win32,59.88023952,5de81d685a8f94795b893d45,6967d75d9f4867d525f9ffbe,6967f3e7728dbc343ff04dec,,,,,,,,,,,,,18,1,,./stim/wavs/mexican_match_interrogative-total-yn_Marta-abre-el-regalo.wav,,,,,,,,,,,,,,,,,,,,,,262.8811,265.1809,1,1,1.7718,,0,25,25,17,1,0,mexican,,,,,,,,,,,,,,,,,,,,,,,,,,,,,,,,,,,,,,,,,,,,,,,,,,,,,,,,
,,,,,,,,,5de81d685a8f94795b893d45,Spanish,13 or older,"no, only English or Spanish",no,2026-01-14_14h52.57.467,empathy_intonation_perc,2024.2.4,Win32,59.88023952,5de81d685a8f94795b893d45,6967d75d9f4867d525f9ffbe,6967f3e7728dbc343ff04dec,,,,,,,,,,,,,87,0,,./stim/wavs/puertorican_mismatch_declarative-broad-focus_La-maestra-vive-en-Paris.wav,,,,,,,,,,,,,,,,,,,,,,265.1813,267.3968,0,1,1.6874,,0,26,26,86,1,0,puertorican,,,,,,,,,,,,,,,,,,,,,,,,,,,,,,,,,,,,,,,,,,,,,,,,,,,,,,,,
,,,,,,,,,5de81d685a8f94795b893d45,Spanish,13 or older,"no, only English or Spanish",no,2026-01-14_14h52.57.467,empathy_intonation_perc,2024.2.4,Win32,59.88023952,5de81d685a8f94795b893d45,6967d75d9f4867d525f9ffbe,6967f3e7728dbc343ff04dec,,,,,,,,,,,,,14,1,,./stim/wavs/mexican_match_interrogative-total-yn_Daniel-iba-a-Bolivia.wav,,,,,,,,,,,,,,,,,,,,,,267.3971,269.5974,1,1,1.6871,,0,27,27,13,1,0,mexican,,,,,,,,,,,,,,,,,,,,,,,,,,,,,,,,,,,,,,,,,,,,,,,,,,,,,,,,
,,,,,,,,,5de81d685a8f94795b893d45,Spanish,13 or older,"no, only English or Spanish",no,2026-01-14_14h52.57.467,empathy_intonation_perc,2024.2.4,Win32,59.88023952,5de81d685a8f94795b893d45,6967d75d9f4867d525f9ffbe,6967f3e7728dbc343ff04dec,,,,,,,,,,,,,59,0,,./stim/wavs/mexican_match_declarative-broad-focus_David-leia-el-libro.wav,,,,,,,,,,,,,,,,,,,,,,269.5977,272.2307,0,1,2.1052,,0,28,28,58,1,0,mexican,,,,,,,,,,,,,,,,,,,,,,,,,,,,,,,,,,,,,,,,,,,,,,,,,,,,,,,,
,,,,,,,,,5de81d685a8f94795b893d45,Spanish,13 or older,"no, only English or Spanish",no,2026-01-14_14h52.57.467,empathy_intonation_perc,2024.2.4,Win32,59.88023952,5de81d685a8f94795b893d45,6967d75d9f4867d525f9ffbe,6967f3e7728dbc343ff04dec,,,,,,,,,,,,,75,0,,./stim/wavs/cuban_mismatch_declarative-broad-focus_El-hombre-mira-la-luna.wav,,,,,,,,,,,,,,,,,,,,,,272.2311,274.364,0,1,1.6043,,0,29,29,74,1,0,cuban,,,,,,,,,,,,,,,,,,,,,,,,,,,,,,,,,,,,,,,,,,,,,,,,,,,,,,,,
,,,,,,,,,5de81d685a8f94795b893d45,Spanish,13 or older,"no, only English or Spanish",no,2026-01-14_14h52.57.467,empathy_intonation_perc,2024.2.4,Win32,59.88023952,5de81d685a8f94795b893d45,6967d75d9f4867d525f9ffbe,6967f3e7728dbc343ff04dec,,,,,,,,,,,,,17,1,,./stim/wavs/mexican_match_interrogative-total-yn_Mariano-habla-del-tiempo.wav,,,,,,,,,,,,,,,,,,,,,,274.3643,276.864,1,1,1.9719,,0,30,30,16,1,0,mexican,,,,,,,,,,,,,,,,,,,,,,,,,,,,,,,,,,,,,,,,,,,,,,,,,,,,,,,,
,,,,,,,,,5de81d685a8f94795b893d45,Spanish,13 or older,"no, only English or Spanish",no,2026-01-14_14h52.57.467,empathy_intonation_perc,2024.2.4,Win32,59.88023952,5de81d685a8f94795b893d45,6967d75d9f4867d525f9ffbe,6967f3e7728dbc343ff04dec,,,,,,,,,,,,,45,0,,./stim/wavs/castilian_match_declarative-broad-focus_David-leia-el-libro.wav,,,,,,,,,,,,,,,,,,,,,,276.8644,279.8641,0,1,2.4723,,0,31,31,44,1,0,castilian,,,,,,,,,,,,,,,,,,,,,,,,,,,,,,,,,,,,,,,,,,,,,,,,,,,,,,,,
,,,,,,,,,5de81d685a8f94795b893d45,Spanish,13 or older,"no, only English or Spanish",no,2026-01-14_14h52.57.467,empathy_intonation_perc,2024.2.4,Win32,59.88023952,5de81d685a8f94795b893d45,6967d75d9f4867d525f9ffbe,6967f3e7728dbc343ff04dec,,,,,,,,,,,,,8,1,,./stim/wavs/cuban_match_interrogative-total-yn_Daniel-iba-a-Bolivia.wav,,,,,,,,,,,,,,,,,,,,,,279.8644,282.1141,0,0,1.7228,,0,32,32,7,1,1,cuban,,,,,,,,,,,,,,,,,,,,,,,,,,,,,,,,,,,,,,,,,,,,,,,,,,,,,,,,
,,,,,,,,,5de81d685a8f94795b893d45,Spanish,13 or older,"no, only English or Spanish",no,2026-01-14_14h52.57.467,empathy_intonation_perc,2024.2.4,Win32,59.88023952,5de81d685a8f94795b893d45,6967d75d9f4867d525f9ffbe,6967f3e7728dbc343ff04dec,,,,,,,,,,,,,80,0,,./stim/wavs/mexican_mismatch_declarative-broad-focus_El-hombre-mira-la-luna.wav,,,,,,,,,,,,,,,,,,,,,,282.1145,284.2625,0,1,1.6195,,0,33,33,79,1,0,mexican,,,,,,,,,,,,,,,,,,,,,,,,,,,,,,,,,,,,,,,,,,,,,,,,,,,,,,,,
,,,,,,,,,5de81d685a8f94795b893d45,Spanish,13 or older,"no, only English or Spanish",no,2026-01-14_14h52.57.467,empathy_intonation_perc,2024.2.4,Win32,59.88023952,5de81d685a8f94795b893d45,6967d75d9f4867d525f9ffbe,6967f3e7728dbc343ff04dec,,,,,,,,,,,,,9,1,,./stim/wavs/cuban_match_interrogative-total-yn_Manuela-vende-el-carro.wav,,,,,,,,,,,,,,,,,,,,,,284.2628,286.6971,0,0,1.922,,0,34,34,8,1,1,cuban,,,,,,,,,,,,,,,,,,,,,,,,,,,,,,,,,,,,,,,,,,,,,,,,,,,,,,,,
,,,,,,,,,5de81d685a8f94795b893d45,Spanish,13 or older,"no, only English or Spanish",no,2026-01-14_14h52.57.467,empathy_intonation_perc,2024.2.4,Win32,59.88023952,5de81d685a8f94795b893d45,6967d75d9f4867d525f9ffbe,6967f3e7728dbc343ff04dec,,,,,,,,,,,,,71,0,,./stim/wavs/castilian_mismatch_declarative-broad-focus_La-nina-lava-el-plato.wav,,,,,,,,,,,,,,,,,,,,,,286.6975,289.0298,0,1,1.8047,,0,35,35,70,1,0,castilian,,,,,,,,,,,,,,,,,,,,,,,,,,,,,,,,,,,,,,,,,,,,,,,,,,,,,,,,
,,,,,,,,,5de81d685a8f94795b893d45,Spanish,13 or older,"no, only English or Spanish",no,2026-01-14_14h52.57.467,empathy_intonation_perc,2024.2.4,Win32,59.88023952,5de81d685a8f94795b893d45,6967d75d9f4867d525f9ffbe,6967f3e7728dbc343ff04dec,,,,,,,,,,,,,57,0,,./stim/wavs/mexican_match_declarative-broad-focus_Ana-lleva-el-abrigo.wav,,,,,,,,,,,,,,,,,,,,,,289.0302,291.2638,0,1,1.7042,,0,36,36,56,1,0,mexican,,,,,,,,,,,,,,,,,,,,,,,,,,,,,,,,,,,,,,,,,,,,,,,,,,,,,,,,
,,,,,,,,,5de81d685a8f94795b893d45,Spanish,13 or older,"no, only English or Spanish",no,2026-01-14_14h52.57.467,empathy_intonation_perc,2024.2.4,Win32,59.88023952,5de81d685a8f94795b893d45,6967d75d9f4867d525f9ffbe,6967f3e7728dbc343ff04dec,,,,,,,,,,,,,22,1,,./stim/wavs/puertorican_match_interrogative-total-yn_Emilio-ama-la-marcha.wav,,,,,,,,,,,,,,,,,,,,,,291.2642,293.663,0,0,1.8728,,0,37,37,21,1,1,puertorican,,,,,,,,,,,,,,,,,,,,,,,,,,,,,,,,,,,,,,,,,,,,,,,,,,,,,,,,
,,,,,,,,,5de81d685a8f94795b893d45,Spanish,13 or older,"no, only English or Spanish",no,2026-01-14_14h52.57.467,empathy_intonation_perc,2024.2.4,Win32,59.88023952,5de81d685a8f94795b893d45,6967d75d9f4867d525f9ffbe,6967f3e7728dbc343ff04dec,,,,,,,,,,,,,25,1,,./stim/wavs/castilian_mismatch_interrogative-total-yn_La-maestra-vive-en-Paris.wav,,,,,,,,,,,,,,,,,,,,,,293.6637,296.7958,1,1,2.6031,,0,38,38,24,1,0,castilian,,,,,,,,,,,,,,,,,,,,,,,,,,,,,,,,,,,,,,,,,,,,,,,,,,,,,,,,
,,,,,,,,,5de81d685a8f94795b893d45,Spanish,13 or older,"no, only English or Spanish",no,2026-01-14_14h52.57.467,empathy_intonation_perc,2024.2.4,Win32,59.88023952,5de81d685a8f94795b893d45,6967d75d9f4867d525f9ffbe,6967f3e7728dbc343ff04dec,,,,,,,,,,,,,68,0,,./stim/wavs/puertorican_match_declarative-broad-focus_Maria-bebe-el-vino.wav,,,,,,,,,,,,,,,,,,,,,,296.7961,299.4801,0,1,2.154,,0,39,39,67,1,0,puertorican,,,,,,,,,,,,,,,,,,,,,,,,,,,,,,,,,,,,,,,,,,,,,,,,,,,,,,,,
,,,,,,,,,5de81d685a8f94795b893d45,Spanish,13 or older,"no, only English or Spanish",no,2026-01-14_14h52.57.467,empathy_intonation_perc,2024.2.4,Win32,59.88023952,5de81d685a8f94795b893d45,6967d75d9f4867d525f9ffbe,6967f3e7728dbc343ff04dec,,,,,,,,,,,,,11,1,,./stim/wavs/cuban_match_interrogative-total-yn_Mariano-habla-del-tiempo.wav,,,,,,,,,,,,,,,,,,,,,,299.4804,302.1628,0,0,2.1549,,0,40,40,10,1,1,cuban,,,,,,,,,,,,,,,,,,,,,,,,,,,,,,,,,,,,,,,,,,,,,,,,,,,,,,,,
,,,,,,,,,5de81d685a8f94795b893d45,Spanish,13 or older,"no, only English or Spanish",no,2026-01-14_14h52.57.467,empathy_intonation_perc,2024.2.4,Win32,59.88023952,5de81d685a8f94795b893d45,6967d75d9f4867d525f9ffbe,6967f3e7728dbc343ff04dec,,,,,,,,,,,,,67,0,,./stim/wavs/puertorican_match_declarative-broad-focus_Manuela-vende-el-carro.wav,,,,,,,,,,,,,,,,,,,,,,302.1632,304.6462,0,1,1.9704,,0,41,41,66,1,0,puertorican,,,,,,,,,,,,,,,,,,,,,,,,,,,,,,,,,,,,,,,,,,,,,,,,,,,,,,,,
,,,,,,,,,5de81d685a8f94795b893d45,Spanish,13 or older,"no, only English or Spanish",no,2026-01-14_14h52.57.467,empathy_intonation_perc,2024.2.4,Win32,59.88023952,5de81d685a8f94795b893d45,6967d75d9f4867d525f9ffbe,6967f3e7728dbc343ff04dec,,,,,,,,,,,,,1,1,,./stim/wavs/castilian_match_interrogative-total-yn_David-leia-el-libro.wav,,,,,,,,,,,,,,,,,,,,,,304.6465,307.5793,1,1,2.4041,,0,42,42,0,1,0,castilian,,,,,,,,,,,,,,,,,,,,,,,,,,,,,,,,,,,,,,,,,,,,,,,,,,,,,,,,
,,,,,,,,,5de81d685a8f94795b893d45,Spanish,13 or older,"no, only English or Spanish",no,2026-01-14_14h52.57.467,empathy_intonation_perc,2024.2.4,Win32,59.88023952,5de81d685a8f94795b893d45,6967d75d9f4867d525f9ffbe,6967f3e7728dbc343ff04dec,,,,,,,,,,,,,27,1,,./stim/wavs/castilian_mismatch_interrogative-total-yn_Mi-madre-come-la-fruta.wav,,,,,,,,,,,,,,,,,,,,,,307.5796,310.7116,0,0,2.604,,0,43,43,26,1,0,castilian,,,,,,,,,,,,,,,,,,,,,,,,,,,,,,,,,,,,,,,,,,,,,,,,,,,,,,,,
,,,,,,,,,5de81d685a8f94795b893d45,Spanish,13 or older,"no, only English or Spanish",no,2026-01-14_14h52.57.467,empathy_intonation_perc,2024.2.4,Win32,59.88023952,5de81d685a8f94795b893d45,6967d75d9f4867d525f9ffbe,6967f3e7728dbc343ff04dec,,,,,,,,,,,,,79,0,,./stim/wavs/mexican_mismatch_declarative-broad-focus_El-bebe-comia-muy-bien.wav,,,,,,,,,,,,,,,,,,,,,,310.7121,313.2958,0,1,2.0717,,0,44,44,78,1,0,mexican,,,,,,,,,,,,,,,,,,,,,,,,,,,,,,,,,,,,,,,,,,,,,,,,,,,,,,,,
,,,,,,,,,5de81d685a8f94795b893d45,Spanish,13 or older,"no, only English or Spanish",no,2026-01-14_14h52.57.467,empathy_intonation_perc,2024.2.4,Win32,59.88023952,5de81d685a8f94795b893d45,6967d75d9f4867d525f9ffbe,6967f3e7728dbc343ff04dec,,,,,,,,,,,,,13,1,,./stim/wavs/mexican_match_interrogative-total-yn_Ana-lleva-el-abrigo.wav,,,,,,,,,,,,,,,,,,,,,,313.2961,315.6946,1,1,1.8713,,0,45,45,12,1,0,mexican,,,,,,,,,,,,,,,,,,,,,,,,,,,,,,,,,,,,,,,,,,,,,,,,,,,,,,,,
,,,,,,,,,5de81d685a8f94795b893d45,Spanish,13 or older,"no, only English or Spanish",no,2026-01-14_14h52.57.467,empathy_intonation_perc,2024.2.4,Win32,59.88023952,5de81d685a8f94795b893d45,6967d75d9f4867d525f9ffbe,6967f3e7728dbc343ff04dec,,,,,,,,,,,,,52,0,,./stim/wavs/cuban_match_declarative-broad-focus_Daniel-iba-a-Bolivia.wav,,,,,,,,,,,,,,,,,,,,,,315.6951,318.0285,0,1,1.8047,,0,46,46,51,1,0,cuban,,,,,,,,,,,,,,,,,,,,,,,,,,,,,,,,,,,,,,,,,,,,,,,,,,,,,,,,
,,,,,,,,,5de81d685a8f94795b893d45,Spanish,13 or older,"no, only English or Spanish",no,2026-01-14_14h52.57.467,empathy_intonation_perc,2024.2.4,Win32,59.88023952,5de81d685a8f94795b893d45,6967d75d9f4867d525f9ffbe,6967f3e7728dbc343ff04dec,,,,,,,,,,,,,3,1,,./stim/wavs/castilian_match_interrogative-total-yn_Manuela-vende-el-carro.wav,,,,,,,,,,,,,,,,,,,,,,318.0288,321.2611,0,0,2.7048,,0,47,47,2,1,0,castilian,,,,,,,,,,,,,,,,,,,,,,,,,,,,,,,,,,,,,,,,,,,,,,,,,,,,,,,,
,,,,,,,,,5de81d685a8f94795b893d45,Spanish,13 or older,"no, only English or Spanish",no,2026-01-14_14h52.57.467,empathy_intonation_perc,2024.2.4,Win32,59.88023952,5de81d685a8f94795b893d45,6967d75d9f4867d525f9ffbe,6967f3e7728dbc343ff04dec,,,,,,,,,,,,,81,0,,./stim/wavs/mexican_mismatch_declarative-broad-focus_La-maestra-vive-en-Paris.wav,,,,,,,,,,,,,,,,,,,,,,321.2615,324.2286,0,1,2.4373,,0,48,48,80,1,0,mexican,,,,,,,,,,,,,,,,,,,,,,,,,,,,,,,,,,,,,,,,,,,,,,,,,,,,,,,,
,,,,,,,,,5de81d685a8f94795b893d45,Spanish,13 or older,"no, only English or Spanish",no,2026-01-14_14h52.57.467,empathy_intonation_perc,2024.2.4,Win32,59.88023952,5de81d685a8f94795b893d45,6967d75d9f4867d525f9ffbe,6967f3e7728dbc343ff04dec,,,,,,,,,,,,,30,1,,./stim/wavs/cuban_mismatch_interrogative-total-yn_El-hombre-mira-la-luna.wav,,,,,,,,,,,,,,,,,,,,,,324.229,326.1274,0,0,1.3695,,0,49,49,29,1,1,cuban,,,,,,,,,,,,,,,,,,,,,,,,,,,,,,,,,,,,,,,,,,,,,,,,,,,,,,,,
,,,,,,,,,5de81d685a8f94795b893d45,Spanish,13 or older,"no, only English or Spanish",no,2026-01-14_14h52.57.467,empathy_intonation_perc,2024.2.4,Win32,59.88023952,5de81d685a8f94795b893d45,6967d75d9f4867d525f9ffbe,6967f3e7728dbc343ff04dec,,,,,,,,,,,,,86,0,,./stim/wavs/puertorican_mismatch_declarative-broad-focus_El-nino-oye-el-rio.wav,,,,,,,,,,,,,,,,,,,,,,326.1278,328.1938,0,1,1.5538,,0,50,50,85,1,0,puertorican,,,,,,,,,,,,,,,,,,,,,,,,,,,,,,,,,,,,,,,,,,,,,,,,,,,,,,,,
,,,,,,,,,5de81d685a8f94795b893d45,Spanish,13 or older,"no, only English or Spanish",no,2026-01-14_14h52.57.467,empathy_intonation_perc,2024.2.4,Win32,59.88023952,5de81d685a8f94795b893d45,6967d75d9f4867d525f9ffbe,6967f3e7728dbc343ff04dec,,,,,,,,,,,,,37,1,,./stim/wavs/mexican_mismatch_interrogative-total-yn_La-maestra-vive-en-Paris.wav,,,,,,,,,,,,,,,,,,,,,,328.1941,330.561,0,0,1.8544,,0,51,51,36,1,0,mexican,,,,,,,,,,,,,,,,,,,,,,,,,,,,,,,,,,,,,,,,,,,,,,,,,,,,,,,,
,,,,,,,,,5de81d685a8f94795b893d45,Spanish,13 or older,"no, only English or Spanish",no,2026-01-14_14h52.57.467,empathy_intonation_perc,2024.2.4,Win32,59.88023952,5de81d685a8f94795b893d45,6967d75d9f4867d525f9ffbe,6967f3e7728dbc343ff04dec,,,,,,,,,,,,,77,0,,./stim/wavs/cuban_mismatch_declarative-broad-focus_Mi-novio-viene-del-lago.wav,,,,,,,,,,,,,,,,,,,,,,330.5616,332.9445,0,1,1.8547,,0,52,52,76,1,0,cuban,,,,,,,,,,,,,,,,,,,,,,,,,,,,,,,,,,,,,,,,,,,,,,,,,,,,,,,,
,,,,,,,,,5de81d685a8f94795b893d45,Spanish,13 or older,"no, only English or Spanish",no,2026-01-14_14h52.57.467,empathy_intonation_perc,2024.2.4,Win32,59.88023952,5de81d685a8f94795b893d45,6967d75d9f4867d525f9ffbe,6967f3e7728dbc343ff04dec,,,,,,,,,,,,,21,1,,./stim/wavs/puertorican_match_interrogative-total-yn_David-leia-el-libro.wav,,,,,,,,,,,,,,,,,,,,,,332.9449,335.4945,0,0,2.0214,,0,53,53,20,1,1,puertorican,,,,,,,,,,,,,,,,,,,,,,,,,,,,,,,,,,,,,,,,,,,,,,,,,,,,,,,,
,,,,,,,,,5de81d685a8f94795b893d45,Spanish,13 or older,"no, only English or Spanish",no,2026-01-14_14h52.57.467,empathy_intonation_perc,2024.2.4,Win32,59.88023952,5de81d685a8f94795b893d45,6967d75d9f4867d525f9ffbe,6967f3e7728dbc343ff04dec,,,,,,,,,,,,,38,1,,./stim/wavs/mexican_mismatch_interrogative-total-yn_Mi-novio-viene-del-lago.wav,,,,,,,,,,,,,,,,,,,,,,335.4947,338.1601,1,1,2.1373,,0,54,54,37,1,0,mexican,,,,,,,,,,,,,,,,,,,,,,,,,,,,,,,,,,,,,,,,,,,,,,,,,,,,,,,,
,,,,,,,,,5de81d685a8f94795b893d45,Spanish,13 or older,"no, only English or Spanish",no,2026-01-14_14h52.57.467,empathy_intonation_perc,2024.2.4,Win32,59.88023952,5de81d685a8f94795b893d45,6967d75d9f4867d525f9ffbe,6967f3e7728dbc343ff04dec,,,,,,,,,,,,,15,1,,./stim/wavs/mexican_match_interrogative-total-yn_David-leia-el-libro.wav,,,,,,,,,,,,,,,,,,,,,,338.1605,340.4106,1,1,1.7371,,0,55,55,14,1,0,mexican,,,,,,,,,,,,,,,,,,,,,,,,,,,,,,,,,,,,,,,,,,,,,,,,,,,,,,,,
,,,,,,,,,5de81d685a8f94795b893d45,Spanish,13 or older,"no, only English or Spanish",no,2026-01-14_14h52.57.467,empathy_intonation_perc,2024.2.4,Win32,59.88023952,5de81d685a8f94795b893d45,6967d75d9f4867d525f9ffbe,6967f3e7728dbc343ff04dec,,,,,,,,,,,,,26,1,,./stim/wavs/castilian_mismatch_interrogative-total-yn_La-nina-lava-el-plato.wav,,,,,,,,,,,,,,,,,,,,,,340.411,343.4773,1,1,2.5538,,0,56,56,25,1,0,castilian,,,,,,,,,,,,,,,,,,,,,,,,,,,,,,,,,,,,,,,,,,,,,,,,,,,,,,,,
,,,,,,,,,5de81d685a8f94795b893d45,Spanish,13 or older,"no, only English or Spanish",no,2026-01-14_14h52.57.467,empathy_intonation_perc,2024.2.4,Win32,59.88023952,5de81d685a8f94795b893d45,6967d75d9f4867d525f9ffbe,6967f3e7728dbc343ff04dec,,,,,,,,,,,,,76,0,,./stim/wavs/cuban_mismatch_declarative-broad-focus_La-nina-lava-el-plato.wav,,,,,,,,,,,,,,,,,,,,,,343.4777,346.7274,0,1,2.7203,,0,57,57,75,1,0,cuban,,,,,,,,,,,,,,,,,,,,,,,,,,,,,,,,,,,,,,,,,,,,,,,,,,,,,,,,
,,,,,,,,,5de81d685a8f94795b893d45,Spanish,13 or older,"no, only English or Spanish",no,2026-01-14_14h52.57.467,empathy_intonation_perc,2024.2.4,Win32,59.88023952,5de81d685a8f94795b893d45,6967d75d9f4867d525f9ffbe,6967f3e7728dbc343ff04dec,,,,,,,,,,,,,43,1,,./stim/wavs/puertorican_mismatch_interrogative-total-yn_La-nina-lava-el-plato.wav,,,,,,,,,,,,,,,,,,,,,,346.7279,349.3264,0,0,2.0711,,0,58,58,42,1,1,puertorican,,,,,,,,,,,,,,,,,,,,,,,,,,,,,,,,,,,,,,,,,,,,,,,,,,,,,,,,
,,,,,,,,,5de81d685a8f94795b893d45,Spanish,13 or older,"no, only English or Spanish",no,2026-01-14_14h52.57.467,empathy_intonation_perc,2024.2.4,Win32,59.88023952,5de81d685a8f94795b893d45,6967d75d9f4867d525f9ffbe,6967f3e7728dbc343ff04dec,,,,,,,,,,,,,73,0,,./stim/wavs/castilian_mismatch_declarative-broad-focus_Mi-tia-odia-la-lluvia.wav,,,,,,,,,,,,,,,,,,,,,,349.3269,352.7432,0,1,2.8879,,0,59,59,72,1,0,castilian,,,,,,,,,,,,,,,,,,,,,,,,,,,,,,,,,,,,,,,,,,,,,,,,,,,,,,,,
,,,,,,,,,5de81d685a8f94795b893d45,Spanish,13 or older,"no, only English or Spanish",no,2026-01-14_14h52.57.467,empathy_intonation_perc,2024.2.4,Win32,59.88023952,5de81d685a8f94795b893d45,6967d75d9f4867d525f9ffbe,6967f3e7728dbc343ff04dec,,,,,,,,,,,,,61,0,,./stim/wavs/mexican_match_declarative-broad-focus_Mariano-habla-del-tiempo.wav,,,,,,,,,,,,,,,,,,,,,,352.7439,355.6099,0,1,2.3377,,0,60,60,60,1,0,mexican,,,,,,,,,,,,,,,,,,,,,,,,,,,,,,,,,,,,,,,,,,,,,,,,,,,,,,,,
,,,,,,,,,5de81d685a8f94795b893d45,Spanish,13 or older,"no, only English or Spanish",no,2026-01-14_14h52.57.467,empathy_intonation_perc,2024.2.4,Win32,59.88023952,5de81d685a8f94795b893d45,6967d75d9f4867d525f9ffbe,6967f3e7728dbc343ff04dec,,,,,,,,,,,,,5,1,,./stim/wavs/castilian_match_interrogative-total-yn_Mariano-habla-del-tiempo.wav,,,,,,,,,,,,,,,,,,,,,,355.6104,357.9099,0,0,1.7716,,0,61,61,4,1,0,castilian,,,,,,,,,,,,,,,,,,,,,,,,,,,,,,,,,,,,,,,,,,,,,,,,,,,,,,,,
,,,,,,,,,5de81d685a8f94795b893d45,Spanish,13 or older,"no, only English or Spanish",no,2026-01-14_14h52.57.467,empathy_intonation_perc,2024.2.4,Win32,59.88023952,5de81d685a8f94795b893d45,6967d75d9f4867d525f9ffbe,6967f3e7728dbc343ff04dec,,,,,,,,,,,,,47,0,,./stim/wavs/castilian_match_declarative-broad-focus_Manuela-vende-el-carro.wav,,,,,,,,,,,,,,,,,,,,,,357.9104,360.7771,0,1,2.3388,,0,62,62,46,1,0,castilian,,,,,,,,,,,,,,,,,,,,,,,,,,,,,,,,,,,,,,,,,,,,,,,,,,,,,,,,
,,,,,,,,,5de81d685a8f94795b893d45,Spanish,13 or older,"no, only English or Spanish",no,2026-01-14_14h52.57.467,empathy_intonation_perc,2024.2.4,Win32,59.88023952,5de81d685a8f94795b893d45,6967d75d9f4867d525f9ffbe,6967f3e7728dbc343ff04dec,,,,,,,,,,,,,41,1,,./stim/wavs/puertorican_mismatch_interrogative-total-yn_El-nino-oye-el-rio.wav,,,,,,,,,,,,,,,,,,,,,,360.7774,362.8928,0,0,1.5883,,0,63,63,40,1,1,puertorican,,,,,,,,,,,,,,,,,,,,,,,,,,,,,,,,,,,,,,,,,,,,,,,,,,,,,,,,
,,,,,,,,,5de81d685a8f94795b893d45,Spanish,13 or older,"no, only English or Spanish",no,2026-01-14_14h52.57.467,empathy_intonation_perc,2024.2.4,Win32,59.88023952,5de81d685a8f94795b893d45,6967d75d9f4867d525f9ffbe,6967f3e7728dbc343ff04dec,,,,,,,,,,,,,53,0,,./stim/wavs/cuban_match_declarative-broad-focus_Manuela-vende-el-carro.wav,,,,,,,,,,,,,,,,,,,,,,362.8933,365.3434,0,1,1.9199,,0,64,64,52,1,0,cuban,,,,,,,,,,,,,,,,,,,,,,,,,,,,,,,,,,,,,,,,,,,,,,,,,,,,,,,,
,,,,,,,,,5de81d685a8f94795b893d45,Spanish,13 or older,"no, only English or Spanish",no,2026-01-14_14h52.57.467,empathy_intonation_perc,2024.2.4,Win32,59.88023952,5de81d685a8f94795b893d45,6967d75d9f4867d525f9ffbe,6967f3e7728dbc343ff04dec,,,,,,,,,,,,,83,0,,./stim/wavs/mexican_mismatch_declarative-broad-focus_Mi-tia-odia-la-lluvia.wav,,,,,,,,,,,,,,,,,,,,,,365.3438,367.9262,0,1,2.0548,,0,65,65,82,1,0,mexican,,,,,,,,,,,,,,,,,,,,,,,,,,,,,,,,,,,,,,,,,,,,,,,,,,,,,,,,
,,,,,,,,,5de81d685a8f94795b893d45,Spanish,13 or older,"no, only English or Spanish",no,2026-01-14_14h52.57.467,empathy_intonation_perc,2024.2.4,Win32,59.88023952,5de81d685a8f94795b893d45,6967d75d9f4867d525f9ffbe,6967f3e7728dbc343ff04dec,,,,,,,,,,,,,19,1,,./stim/wavs/puertorican_match_interrogative-total-yn_Ana-lleva-el-abrigo.wav,,,,,,,,,,,,,,,,,,,,,,367.9267,371.0098,1,1,2.555,,0,66,66,18,1,1,puertorican,,,,,,,,,,,,,,,,,,,,,,,,,,,,,,,,,,,,,,,,,,,,,,,,,,,,,,,,
,,,,,,,,,5de81d685a8f94795b893d45,Spanish,13 or older,"no, only English or Spanish",no,2026-01-14_14h52.57.467,empathy_intonation_perc,2024.2.4,Win32,59.88023952,5de81d685a8f94795b893d45,6967d75d9f4867d525f9ffbe,6967f3e7728dbc343ff04dec,,,,,,,,,,,,,6,1,,./stim/wavs/castilian_match_interrogative-total-yn_Marta-abre-el-regalo.wav,,,,,,,,,,,,,,,,,,,,,,371.0102,374.0752,0,0,2.5381,,0,67,67,5,1,0,castilian,,,,,,,,,,,,,,,,,,,,,,,,,,,,,,,,,,,,,,,,,,,,,,,,,,,,,,,,
,,,,,,,,,5de81d685a8f94795b893d45,Spanish,13 or older,"no, only English or Spanish",no,2026-01-14_14h52.57.467,empathy_intonation_perc,2024.2.4,Win32,59.88023952,5de81d685a8f94795b893d45,6967d75d9f4867d525f9ffbe,6967f3e7728dbc343ff04dec,,,,,,,,,,,,,36,1,,./stim/wavs/mexican_mismatch_interrogative-total-yn_El-nino-oye-el-rio.wav,,,,,,,,,,,,,,,,,,,,,,374.0757,376.1419,0,0,1.5377,,0,68,68,35,1,0,mexican,,,,,,,,,,,,,,,,,,,,,,,,,,,,,,,,,,,,,,,,,,,,,,,,,,,,,,,,
,,,,,,,,,5de81d685a8f94795b893d45,Spanish,13 or older,"no, only English or Spanish",no,2026-01-14_14h52.57.467,empathy_intonation_perc,2024.2.4,Win32,59.88023952,5de81d685a8f94795b893d45,6967d75d9f4867d525f9ffbe,6967f3e7728dbc343ff04dec,,,,,,,,,,,,,66,0,,./stim/wavs/puertorican_match_declarative-broad-focus_Emilio-ama-la-marcha.wav,,,,,,,,,,,,,,,,,,,,,,376.1424,378.3093,0,1,1.6371,,0,69,69,65,1,0,puertorican,,,,,,,,,,,,,,,,,,,,,,,,,,,,,,,,,,,,,,,,,,,,,,,,,,,,,,,,
,,,,,,,,,5de81d685a8f94795b893d45,Spanish,13 or older,"no, only English or Spanish",no,2026-01-14_14h52.57.467,empathy_intonation_perc,2024.2.4,Win32,59.88023952,5de81d685a8f94795b893d45,6967d75d9f4867d525f9ffbe,6967f3e7728dbc343ff04dec,,,,,,,,,,,,,84,0,,./stim/wavs/puertorican_mismatch_declarative-broad-focus_El-bebe-comia-muy-bien.wav,,,,,,,,,,,,,,,,,,,,,,378.3096,380.8754,0,1,2.0368,,0,70,70,83,1,0,puertorican,,,,,,,,,,,,,,,,,,,,,,,,,,,,,,,,,,,,,,,,,,,,,,,,,,,,,,,,
,,,,,,,,,5de81d685a8f94795b893d45,Spanish,13 or older,"no, only English or Spanish",no,2026-01-14_14h52.57.467,empathy_intonation_perc,2024.2.4,Win32,59.88023952,5de81d685a8f94795b893d45,6967d75d9f4867d525f9ffbe,6967f3e7728dbc343ff04dec,,,,,,,,,,,,,85,0,,./stim/wavs/puertorican_mismatch_declarative-broad-focus_El-hombre-mira-la-luna.wav,,,,,,,,,,,,,,,,,,,,,,380.8761,383.3079,0,1,1.9039,,0,71,71,84,1,0,puertorican,,,,,,,,,,,,,,,,,,,,,,,,,,,,,,,,,,,,,,,,,,,,,,,,,,,,,,,,
,,,,,,,,,5de81d685a8f94795b893d45,Spanish,13 or older,"no, only English or Spanish",no,2026-01-14_14h52.57.467,empathy_intonation_perc,2024.2.4,Win32,59.88023952,5de81d685a8f94795b893d45,6967d75d9f4867d525f9ffbe,6967f3e7728dbc343ff04dec,,,,,,,,,,,,,24,1,,./stim/wavs/puertorican_match_interrogative-total-yn_Maria-bebe-el-vino.wav,,,,,,,,,,,,,,,,,,,,,,383.3083,385.5257,0,0,1.7054,,0,72,72,23,1,1,puertorican,,,,,,,,,,,,,,,,,,,,,,,,,,,,,,,,,,,,,,,,,,,,,,,,,,,,,,,,
,,,,,,,,,5de81d685a8f94795b893d45,Spanish,13 or older,"no, only English or Spanish",no,2026-01-14_14h52.57.467,empathy_intonation_perc,2024.2.4,Win32,59.88023952,5de81d685a8f94795b893d45,6967d75d9f4867d525f9ffbe,6967f3e7728dbc343ff04dec,,,,,,,,,,,,,65,0,,./stim/wavs/puertorican_match_declarative-broad-focus_David-leia-el-libro.wav,,,,,,,,,,,,,,,,,,,,,,385.5261,387.6754,0,1,1.6216,,0,73,73,64,1,0,puertorican,,,,,,,,,,,,,,,,,,,,,,,,,,,,,,,,,,,,,,,,,,,,,,,,,,,,,,,,
,,,,,,,,,5de81d685a8f94795b893d45,Spanish,13 or older,"no, only English or Spanish",no,2026-01-14_14h52.57.467,empathy_intonation_perc,2024.2.4,Win32,59.88023952,5de81d685a8f94795b893d45,6967d75d9f4867d525f9ffbe,6967f3e7728dbc343ff04dec,,,,,,,,,,,,,33,1,,./stim/wavs/cuban_mismatch_interrogative-total-yn_Mi-novio-viene-del-lago.wav,,,,,,,,,,,,,,,,,,,,,,387.6758,391.1919,0,0,2.9881,,0,74,74,32,1,1,cuban,,,,,,,,,,,,,,,,,,,,,,,,,,,,,,,,,,,,,,,,,,,,,,,,,,,,,,,,
,,,,,,,,,5de81d685a8f94795b893d45,Spanish,13 or older,"no, only English or Spanish",no,2026-01-14_14h52.57.467,empathy_intonation_perc,2024.2.4,Win32,59.88023952,5de81d685a8f94795b893d45,6967d75d9f4867d525f9ffbe,6967f3e7728dbc343ff04dec,,,,,,,,,,,,,54,0,,./stim/wavs/cuban_match_declarative-broad-focus_Maria-bebe-el-vino.wav,,,,,,,,,,,,,,,,,,,,,,391.1924,394.6079,0,1,2.8875,,0,75,75,53,1,0,cuban,,,,,,,,,,,,,,,,,,,,,,,,,,,,,,,,,,,,,,,,,,,,,,,,,,,,,,,,
,,,,,,,,,5de81d685a8f94795b893d45,Spanish,13 or older,"no, only English or Spanish",no,2026-01-14_14h52.57.467,empathy_intonation_perc,2024.2.4,Win32,59.88023952,5de81d685a8f94795b893d45,6967d75d9f4867d525f9ffbe,6967f3e7728dbc343ff04dec,,,,,,,,,,,,,82,0,,./stim/wavs/mexican_mismatch_declarative-broad-focus_Mi-novio-viene-del-lago.wav,,,,,,,,,,,,,,,,,,,,,,394.6084,397.7913,0,1,2.6702,,0,76,76,81,1,0,mexican,,,,,,,,,,,,,,,,,,,,,,,,,,,,,,,,,,,,,,,,,,,,,,,,,,,,,,,,
,,,,,,,,,5de81d685a8f94795b893d45,Spanish,13 or older,"no, only English or Spanish",no,2026-01-14_14h52.57.467,empathy_intonation_perc,2024.2.4,Win32,59.88023952,5de81d685a8f94795b893d45,6967d75d9f4867d525f9ffbe,6967f3e7728dbc343ff04dec,,,,,,,,,,,,,28,1,,./stim/wavs/castilian_mismatch_interrogative-total-yn_Mi-novio-viene-del-lago.wav,,,,,,,,,,,,,,,,,,,,,,397.7917,399.9913,0,0,1.6872,,0,77,77,27,1,0,castilian,,,,,,,,,,,,,,,,,,,,,,,,,,,,,,,,,,,,,,,,,,,,,,,,,,,,,,,,
,,,,,,,,,5de81d685a8f94795b893d45,Spanish,13 or older,"no, only English or Spanish",no,2026-01-14_14h52.57.467,empathy_intonation_perc,2024.2.4,Win32,59.88023952,5de81d685a8f94795b893d45,6967d75d9f4867d525f9ffbe,6967f3e7728dbc343ff04dec,,,,,,,,,,,,,64,0,,./stim/wavs/puertorican_match_declarative-broad-focus_Daniel-iba-a-Bolivia.wav,,,,,,,,,,,,,,,,,,,,,,399.9917,403.2074,0,1,2.6877,,0,78,78,63,1,0,puertorican,,,,,,,,,,,,,,,,,,,,,,,,,,,,,,,,,,,,,,,,,,,,,,,,,,,,,,,,
,,,,,,,,,5de81d685a8f94795b893d45,Spanish,13 or older,"no, only English or Spanish",no,2026-01-14_14h52.57.467,empathy_intonation_perc,2024.2.4,Win32,59.88023952,5de81d685a8f94795b893d45,6967d75d9f4867d525f9ffbe,6967f3e7728dbc343ff04dec,,,,,,,,,,,,,49,0,,./stim/wavs/castilian_match_declarative-broad-focus_Mariano-habla-del-tiempo.wav,,,,,,,,,,,,,,,,,,,,,,403.2078,406.741,0,1,3.0048,,0,79,79,48,1,0,castilian,,,,,,,,,,,,,,,,,,,,,,,,,,,,,,,,,,,,,,,,,,,,,,,,,,,,,,,,
,,,,,,,,,5de81d685a8f94795b893d45,Spanish,13 or older,"no, only English or Spanish",no,2026-01-14_14h52.57.467,empathy_intonation_perc,2024.2.4,Win32,59.88023952,5de81d685a8f94795b893d45,6967d75d9f4867d525f9ffbe,6967f3e7728dbc343ff04dec,,,,,,,,,,,,,40,1,,./stim/wavs/puertorican_mismatch_interrogative-total-yn_El-hombre-mira-la-luna.wav,,,,,,,,,,,,,,,,,,,,,,406.7415,410.2568,1,1,2.9875,,0,80,80,39,1,1,puertorican,,,,,,,,,,,,,,,,,,,,,,,,,,,,,,,,,,,,,,,,,,,,,,,,,,,,,,,,
,,,,,,,,,5de81d685a8f94795b893d45,Spanish,13 or older,"no, only English or Spanish",no,2026-01-14_14h52.57.467,empathy_intonation_perc,2024.2.4,Win32,59.88023952,5de81d685a8f94795b893d45,6967d75d9f4867d525f9ffbe,6967f3e7728dbc343ff04dec,,,,,,,,,,,,,12,1,,./stim/wavs/cuban_match_interrogative-total-yn_Marta-abre-el-regalo.wav,,,,,,,,,,,,,,,,,,,,,,410.2572,412.5401,0,0,1.7714,,0,81,81,11,1,1,cuban,,,,,,,,,,,,,,,,,,,,,,,,,,,,,,,,,,,,,,,,,,,,,,,,,,,,,,,,
,,,,,,,,,5de81d685a8f94795b893d45,Spanish,13 or older,"no, only English or Spanish",no,2026-01-14_14h52.57.467,empathy_intonation_perc,2024.2.4,Win32,59.88023952,5de81d685a8f94795b893d45,6967d75d9f4867d525f9ffbe,6967f3e7728dbc343ff04dec,,,,,,,,,,,,,31,1,,./stim/wavs/cuban_mismatch_interrogative-total-yn_El-nino-oye-el-rio.wav,,,,,,,,,,,,,,,,,,,,,,412.5406,414.6739,0,0,1.6207,,0,82,82,30,1,1,cuban,,,,,,,,,,,,,,,,,,,,,,,,,,,,,,,,,,,,,,,,,,,,,,,,,,,,,,,,
,,,,,,,,,5de81d685a8f94795b893d45,Spanish,13 or older,"no, only English or Spanish",no,2026-01-14_14h52.57.467,empathy_intonation_perc,2024.2.4,Win32,59.88023952,5de81d685a8f94795b893d45,6967d75d9f4867d525f9ffbe,6967f3e7728dbc343ff04dec,,,,,,,,,,,,,78,0,,./stim/wavs/cuban_mismatch_declarative-broad-focus_Mi-tia-odia-la-lluvia.wav,,,,,,,,,,,,,,,,,,,,,,414.6743,416.9902,0,1,1.7888,,0,83,83,77,1,0,cuban,,,,,,,,,,,,,,,,,,,,,,,,,,,,,,,,,,,,,,,,,,,,,,,,,,,,,,,,
,,,,,,,,,5de81d685a8f94795b893d45,Spanish,13 or older,"no, only English or Spanish",no,2026-01-14_14h52.57.467,empathy_intonation_perc,2024.2.4,Win32,59.88023952,5de81d685a8f94795b893d45,6967d75d9f4867d525f9ffbe,6967f3e7728dbc343ff04dec,,,,,,,,,,,,,63,0,,./stim/wavs/puertorican_match_declarative-broad-focus_Ana-lleva-el-abrigo.wav,,,,,,,,,,,,,,,,,,,,,,416.9907,418.8571,0,1,1.3366,,0,84,84,62,1,0,puertorican,,,,,,,,,,,,,,,,,,,,,,,,,,,,,,,,,,,,,,,,,,,,,,,,,,,,,,,,
,,,,,,,,,5de81d685a8f94795b893d45,Spanish,13 or older,"no, only English or Spanish",no,2026-01-14_14h52.57.467,empathy_intonation_perc,2024.2.4,Win32,59.88023952,5de81d685a8f94795b893d45,6967d75d9f4867d525f9ffbe,6967f3e7728dbc343ff04dec,,,,,,,,,,,,,48,0,,./stim/wavs/castilian_match_declarative-broad-focus_Maria-bebe-el-vino.wav,,,,,,,,,,,,,,,,,,,,,,418.8575,421.1574,0,1,1.7718,,0,85,85,47,1,0,castilian,,,,,,,,,,,,,,,,,,,,,,,,,,,,,,,,,,,,,,,,,,,,,,,,,,,,,,,,
,,,,,,,,,5de81d685a8f94795b893d45,Spanish,13 or older,"no, only English or Spanish",no,2026-01-14_14h52.57.467,empathy_intonation_perc,2024.2.4,Win32,59.88023952,5de81d685a8f94795b893d45,6967d75d9f4867d525f9ffbe,6967f3e7728dbc343ff04dec,,,,,,,,,,,,,55,0,,./stim/wavs/cuban_match_declarative-broad-focus_Mariano-habla-del-tiempo.wav,,,,,,,,,,,,,,,,,,,,,,421.1576,424.3565,0,1,2.672,,0,86,86,54,1,0,cuban,,,,,,,,,,,,,,,,,,,,,,,,,,,,,,,,,,,,,,,,,,,,,,,,,,,,,,,,
,,,,,,,,,5de81d685a8f94795b893d45,Spanish,13 or older,"no, only English or Spanish",no,2026-01-14_14h52.57.467,empathy_intonation_perc,2024.2.4,Win32,59.88023952,5de81d685a8f94795b893d45,6967d75d9f4867d525f9ffbe,6967f3e7728dbc343ff04dec,,,,,,,,,,,,,10,1,,./stim/wavs/cuban_match_interrogative-total-yn_Maria-bebe-el-vino.wav,,,,,,,,,,,,,,,,,,,,,,424.3572,426.3231,0,0,1.4537,,0,87,87,9,1,1,cuban,,,,,,,,,,,,,,,,,,,,,,,,,,,,,,,,,,,,,,,,,,,,,,,,,,,,,,,,
,,,,,,,"Great! Now we will move on. The next task consists of about 60 trials, in each of which you will see a string of letters. 
  
  Your task is to decide whether this is a real Spanish word or not.", (press the spacebar to continue),5de81d685a8f94795b893d45,Spanish,13 or older,"no, only English or Spanish",no,2026-01-14_14h52.57.467,empathy_intonation_perc,2024.2.4,Win32,59.88023952,5de81d685a8f94795b893d45,6967d75d9f4867d525f9ffbe,6967f3e7728dbc343ff04dec,,,,,,,,,,,,,,,,,,,,,,,,,,,,,,,,,,,,,,,,,,,,,,,,,,,426.3261,431.9903,0,0,0,0,1,,,,,,,,,,,,,,,,,,,,,,,,,,,,,,,,,,,,,,,,,,,,,,,,,
,,,,,,,"If you think it is an existing Spanish word, you type '1' (for 'REAL'), and if you think it is not an existing Spanish word, you type '0' (for 'FAKE').", (press the spacebar to continue),5de81d685a8f94795b893d45,Spanish,13 or older,"no, only English or Spanish",no,2026-01-14_14h52.57.467,empathy_intonation_perc,2024.2.4,Win32,59.88023952,5de81d685a8f94795b893d45,6967d75d9f4867d525f9ffbe,6967f3e7728dbc343ff04dec,,,,,,,,,,,,,,,,,,,,,,,,,,,,,,,,,,,,,,,,,,,,,,,,,,,431.9914,435.7056,0,1,1,1,1,,,,,,,,,,,,,,,,,,,,,,,,,,,,,,,,,,,,,,,,,,,,,,,,,
,,,,,,,"If you are sure that the word exists, even though you don’t know its exact meaning, you may still respond '1' (REAL). 
  
  But if you are not sure if it is an existing word, you should respond '0' (FAKE).
  
  Let's do a practice round...", (press the spacebar to continue),5de81d685a8f94795b893d45,Spanish,13 or older,"no, only English or Spanish",no,2026-01-14_14h52.57.467,empathy_intonation_perc,2024.2.4,Win32,59.88023952,5de81d685a8f94795b893d45,6967d75d9f4867d525f9ffbe,6967f3e7728dbc343ff04dec,,,,,,,,,,,,,,,,,,,,,,,,,,,,,,,,,,,,,,,,,,,,,,,,,,,435.7069,440.572,0,2,2,2,1,,,,,,,,,,,,,,,,,,,,,,,,,,,,,,,,,,,,,,,,,,,,,,,,,
,,,,,,,,,5de81d685a8f94795b893d45,Spanish,13 or older,"no, only English or Spanish",no,2026-01-14_14h52.57.467,empathy_intonation_perc,2024.2.4,Win32,59.88023952,5de81d685a8f94795b893d45,6967d75d9f4867d525f9ffbe,6967f3e7728dbc343ff04dec,,,,,,,,,,,,,,0,,,,,,,,,,,,,,,,,,,,,,,,,,,,,,,,,,,,,,,,,,,,440.5746,442.4888,0,1,1.3822,,442.489,443.4889,0,0,0,0,1,0,depiste,REAL,FAKE,,,,,,,,,,,,,,,,,,,,,,,,,,,,,,,,
,,,,,,,,,5de81d685a8f94795b893d45,Spanish,13 or older,"no, only English or Spanish",no,2026-01-14_14h52.57.467,empathy_intonation_perc,2024.2.4,Win32,59.88023952,5de81d685a8f94795b893d45,6967d75d9f4867d525f9ffbe,6967f3e7728dbc343ff04dec,,,,,,,,,,,,,,1,,,,,,,,,,,,,,,,,,,,,,,,,,,,,,,,,,,,,,,,,,,,443.49,444.7559,1,1,0.7373,,444.7559,445.7563,0,1,1,1,1,0,sí,REAL,FAKE,,,,,,,,,,,,,,,,,,,,,,,,,,,,,,,,
,,,,,,,,,5de81d685a8f94795b893d45,Spanish,13 or older,"no, only English or Spanish",no,2026-01-14_14h52.57.467,empathy_intonation_perc,2024.2.4,Win32,59.88023952,5de81d685a8f94795b893d45,6967d75d9f4867d525f9ffbe,6967f3e7728dbc343ff04dec,,,,,,,,,,,,,,0,,,,,,,,,,,,,,,,,,,,,,,,,,,,,,,,,,,,,,,,,,,,445.7571,447.5386,0,1,1.253,,447.5387,448.5391,0,2,2,2,1,0,coné,REAL,FAKE,,,,,,,,,,,,,,,,,,,,,,,,,,,,,,,,
,,,,,,,,,5de81d685a8f94795b893d45,Spanish,13 or older,"no, only English or Spanish",no,2026-01-14_14h52.57.467,empathy_intonation_perc,2024.2.4,Win32,59.88023952,5de81d685a8f94795b893d45,6967d75d9f4867d525f9ffbe,6967f3e7728dbc343ff04dec,,,,,,,,,,,,,,0,,,,,,,,,,,,,,,,,,,,,,,,,,,,,,,,,,,,,,,,,,,,448.5398,450.5717,0,1,1.5035,,450.5717,451.5715,0,3,3,3,1,0,calpar,REAL,FAKE,,,,,,,,,,,,,,,,,,,,,,,,,,,,,,,,
,,,,,,,,,5de81d685a8f94795b893d45,Spanish,13 or older,"no, only English or Spanish",no,2026-01-14_14h52.57.467,empathy_intonation_perc,2024.2.4,Win32,59.88023952,5de81d685a8f94795b893d45,6967d75d9f4867d525f9ffbe,6967f3e7728dbc343ff04dec,,,,,,,,,,,,,,0,,,,,,,,,,,,,,,,,,,,,,,,,,,,,,,,,,,,,,,,,,,,451.5726,453.4725,0,1,1.3875,,453.4725,454.4717,0,4,4,4,1,0,joten,REAL,FAKE,,,,,,,,,,,,,,,,,,,,,,,,,,,,,,,,
,,,,,,,,,5de81d685a8f94795b893d45,Spanish,13 or older,"no, only English or Spanish",no,2026-01-14_14h52.57.467,empathy_intonation_perc,2024.2.4,Win32,59.88023952,5de81d685a8f94795b893d45,6967d75d9f4867d525f9ffbe,6967f3e7728dbc343ff04dec,,,,,,,,,,,,,,1,,,,,,,,,,,,,,,,,,,,,,,,,,,,,,,,,,,,,,,,,,,,454.4725,456.7055,1,1,1.7195,,456.7056,457.7061,0,5,5,5,1,0,sacapuntas,REAL,FAKE,,,,,,,,,,,,,,,,,,,,,,,,,,,,,,,,
,,,,,,,,,5de81d685a8f94795b893d45,Spanish,13 or older,"no, only English or Spanish",no,2026-01-14_14h52.57.467,empathy_intonation_perc,2024.2.4,Win32,59.88023952,5de81d685a8f94795b893d45,6967d75d9f4867d525f9ffbe,6967f3e7728dbc343ff04dec,,,,,,,,,,,,,,0,,,,,,,,,,,,,,,,,,,,,,,,,,,,,,,,,,,,,,,,,,,,457.7066,459.3225,0,1,1.0882,,459.3226,460.3221,0,6,6,6,1,0,priba,REAL,FAKE,,,,,,,,,,,,,,,,,,,,,,,,,,,,,,,,
,,,,,,,,,5de81d685a8f94795b893d45,Spanish,13 or older,"no, only English or Spanish",no,2026-01-14_14h52.57.467,empathy_intonation_perc,2024.2.4,Win32,59.88023952,5de81d685a8f94795b893d45,6967d75d9f4867d525f9ffbe,6967f3e7728dbc343ff04dec,,,,,,,,,,,,,,0,,,,,,,,,,,,,,,,,,,,,,,,,,,,,,,,,,,,,,,,,,,,460.3227,462.4547,0,1,1.6032,,462.4549,463.4552,0,7,7,7,1,0,pelasula,REAL,FAKE,,,,,,,,,,,,,,,,,,,,,,,,,,,,,,,,
,,,,,,,,,5de81d685a8f94795b893d45,Spanish,13 or older,"no, only English or Spanish",no,2026-01-14_14h52.57.467,empathy_intonation_perc,2024.2.4,Win32,59.88023952,5de81d685a8f94795b893d45,6967d75d9f4867d525f9ffbe,6967f3e7728dbc343ff04dec,,,,,,,,,,,,,,1,,,,,,,,,,,,,,,,,,,,,,,,,,,,,,,,,,,,,,,,,,,,463.4557,464.7384,1,1,0.7537,,464.7384,465.7384,0,8,8,8,1,0,bien,REAL,FAKE,,,,,,,,,,,,,,,,,,,,,,,,,,,,,,,,
,,,,,,,,,5de81d685a8f94795b893d45,Spanish,13 or older,"no, only English or Spanish",no,2026-01-14_14h52.57.467,empathy_intonation_perc,2024.2.4,Win32,59.88023952,5de81d685a8f94795b893d45,6967d75d9f4867d525f9ffbe,6967f3e7728dbc343ff04dec,,,,,,,,,,,,,,1,,,,,,,,,,,,,,,,,,,,,,,,,,,,,,,,,,,,,,,,,,,,465.739,466.9711,1,1,0.7039,,466.9712,467.9712,0,9,9,9,1,0,casa,REAL,FAKE,,,,,,,,,,,,,,,,,,,,,,,,,,,,,,,,
,,,,,,,,,5de81d685a8f94795b893d45,Spanish,13 or older,"no, only English or Spanish",no,2026-01-14_14h52.57.467,empathy_intonation_perc,2024.2.4,Win32,59.88023952,5de81d685a8f94795b893d45,6967d75d9f4867d525f9ffbe,6967f3e7728dbc343ff04dec,,,,,,,,,,,,,,0,,,,,,,,,,,,,,,,,,,,,,,,,,,,,,,,,,,,,,,,,,,,467.972,469.7386,0,1,1.2388,,469.7386,470.7372,0,10,10,10,1,0,lejo,REAL,FAKE,,,,,,,,,,,,,,,,,,,,,,,,,,,,,,,,
,,,,,,,,,5de81d685a8f94795b893d45,Spanish,13 or older,"no, only English or Spanish",no,2026-01-14_14h52.57.467,empathy_intonation_perc,2024.2.4,Win32,59.88023952,5de81d685a8f94795b893d45,6967d75d9f4867d525f9ffbe,6967f3e7728dbc343ff04dec,,,,,,,,,,,,,,0,,,,,,,,,,,,,,,,,,,,,,,,,,,,,,,,,,,,,,,,,,,,470.7379,472.5876,0,1,1.3375,,472.5877,473.5887,0,11,11,11,1,0,pretantas,REAL,FAKE,,,,,,,,,,,,,,,,,,,,,,,,,,,,,,,,
,,,,,,,,,5de81d685a8f94795b893d45,Spanish,13 or older,"no, only English or Spanish",no,2026-01-14_14h52.57.467,empathy_intonation_perc,2024.2.4,Win32,59.88023952,5de81d685a8f94795b893d45,6967d75d9f4867d525f9ffbe,6967f3e7728dbc343ff04dec,,,,,,,,,,,,,,,,,,,,,,,,,,,,,,,,,,,,,,,,,,,,,,,,,,,,,,,,,,,,,,,,,,,,,,,,,,,473.5889,474.5718,,,,,,,,,,,,,,,,,,,,,,,,,,,,,,
,,,,,,,,,5de81d685a8f94795b893d45,Spanish,13 or older,"no, only English or Spanish",no,2026-01-14_14h52.57.467,empathy_intonation_perc,2024.2.4,Win32,59.88023952,5de81d685a8f94795b893d45,6967d75d9f4867d525f9ffbe,6967f3e7728dbc343ff04dec,,,,,,,,,,,,,,0,,,,,,,,,,,,,,,,,,,,,,,,,,,,,,,,,,,,,,,,,,,,,,,,,,,,,,,,,17,floroso,,,,,474.5758,476.1384,0,1,1.0383,,0,0,0,16,1,REAL,FAKE,,,,,,,,,,,,,,,,,
,,,,,,,,,5de81d685a8f94795b893d45,Spanish,13 or older,"no, only English or Spanish",no,2026-01-14_14h52.57.467,empathy_intonation_perc,2024.2.4,Win32,59.88023952,5de81d685a8f94795b893d45,6967d75d9f4867d525f9ffbe,6967f3e7728dbc343ff04dec,,,,,,,,,,,,,,0,,,,,,,,,,,,,,,,,,,,,,,,,,,,,,,,,,,,,,,,,,,,,,,,,,,,,,,,,21,capillo,,,,,476.1389,477.5046,0,1,0.8379,,0,1,1,20,1,REAL,FAKE,,,,,,,,,,,,,,,,,
,,,,,,,,,5de81d685a8f94795b893d45,Spanish,13 or older,"no, only English or Spanish",no,2026-01-14_14h52.57.467,empathy_intonation_perc,2024.2.4,Win32,59.88023952,5de81d685a8f94795b893d45,6967d75d9f4867d525f9ffbe,6967f3e7728dbc343ff04dec,,,,,,,,,,,,,,0,,,,,,,,,,,,,,,,,,,,,,,,,,,,,,,,,,,,,,,,,,,,,,,,,,,,,,,,,79,tropaje,,,,,477.5052,479.3707,0,1,1.3377,,0,2,2,78,1,REAL,FAKE,,,,,,,,,,,,,,,,,
,,,,,,,,,5de81d685a8f94795b893d45,Spanish,13 or older,"no, only English or Spanish",no,2026-01-14_14h52.57.467,empathy_intonation_perc,2024.2.4,Win32,59.88023952,5de81d685a8f94795b893d45,6967d75d9f4867d525f9ffbe,6967f3e7728dbc343ff04dec,,,,,,,,,,,,,,1,,,,,,,,,,,,,,,,,,,,,,,,,,,,,,,,,,,,,,,,,,,,,,,,,,,,,,,,,12,asesinato,,,,,479.3715,481.4707,0,0,1.5867,,0,3,3,11,1,REAL,FAKE,,,,,,,,,,,,,,,,,
,,,,,,,,,5de81d685a8f94795b893d45,Spanish,13 or older,"no, only English or Spanish",no,2026-01-14_14h52.57.467,empathy_intonation_perc,2024.2.4,Win32,59.88023952,5de81d685a8f94795b893d45,6967d75d9f4867d525f9ffbe,6967f3e7728dbc343ff04dec,,,,,,,,,,,,,,1,,,,,,,,,,,,,,,,,,,,,,,,,,,,,,,,,,,,,,,,,,,,,,,,,,,,,,,,,38,estornudar,,,,,481.4715,483.8213,0,0,1.8204,,0,4,4,37,1,REAL,FAKE,,,,,,,,,,,,,,,,,
,,,,,,,,,5de81d685a8f94795b893d45,Spanish,13 or older,"no, only English or Spanish",no,2026-01-14_14h52.57.467,empathy_intonation_perc,2024.2.4,Win32,59.88023952,5de81d685a8f94795b893d45,6967d75d9f4867d525f9ffbe,6967f3e7728dbc343ff04dec,,,,,,,,,,,,,,1,,,,,,,,,,,,,,,,,,,,,,,,,,,,,,,,,,,,,,,,,,,,,,,,,,,,,,,,,60,matar,,,,,483.8219,485.8212,1,1,1.4697,,0,5,5,59,1,REAL,FAKE,,,,,,,,,,,,,,,,,
,,,,,,,,,5de81d685a8f94795b893d45,Spanish,13 or older,"no, only English or Spanish",no,2026-01-14_14h52.57.467,empathy_intonation_perc,2024.2.4,Win32,59.88023952,5de81d685a8f94795b893d45,6967d75d9f4867d525f9ffbe,6967f3e7728dbc343ff04dec,,,,,,,,,,,,,,0,,,,,,,,,,,,,,,,,,,,,,,,,,,,,,,,,,,,,,,,,,,,,,,,,,,,,,,,,18,arsa,,,,,485.8219,487.6536,0,1,1.3037,,0,6,6,17,1,REAL,FAKE,,,,,,,,,,,,,,,,,
,,,,,,,,,5de81d685a8f94795b893d45,Spanish,13 or older,"no, only English or Spanish",no,2026-01-14_14h52.57.467,empathy_intonation_perc,2024.2.4,Win32,59.88023952,5de81d685a8f94795b893d45,6967d75d9f4867d525f9ffbe,6967f3e7728dbc343ff04dec,,,,,,,,,,,,,,1,,,,,,,,,,,,,,,,,,,,,,,,,,,,,,,,,,,,,,,,,,,,,,,,,,,,,,,,,90,clavel,,,,,487.6549,489.0043,0,0,0.8367,,0,7,7,89,1,REAL,FAKE,,,,,,,,,,,,,,,,,
,,,,,,,,,5de81d685a8f94795b893d45,Spanish,13 or older,"no, only English or Spanish",no,2026-01-14_14h52.57.467,empathy_intonation_perc,2024.2.4,Win32,59.88023952,5de81d685a8f94795b893d45,6967d75d9f4867d525f9ffbe,6967f3e7728dbc343ff04dec,,,,,,,,,,,,,,1,,,,,,,,,,,,,,,,,,,,,,,,,,,,,,,,,,,,,,,,,,,,,,,,,,,,,,,,,46,martillo,,,,,489.0049,491.337,0,0,1.8028,,0,8,8,45,1,REAL,FAKE,,,,,,,,,,,,,,,,,
,,,,,,,,,5de81d685a8f94795b893d45,Spanish,13 or older,"no, only English or Spanish",no,2026-01-14_14h52.57.467,empathy_intonation_perc,2024.2.4,Win32,59.88023952,5de81d685a8f94795b893d45,6967d75d9f4867d525f9ffbe,6967f3e7728dbc343ff04dec,,,,,,,,,,,,,,1,,,,,,,,,,,,,,,,,,,,,,,,,,,,,,,,,,,,,,,,,,,,,,,,,,,,,,,,,76,atar,,,,,491.3379,492.9539,0,0,1.0873,,0,9,9,75,1,REAL,FAKE,,,,,,,,,,,,,,,,,
,,,,,,,,,5de81d685a8f94795b893d45,Spanish,13 or older,"no, only English or Spanish",no,2026-01-14_14h52.57.467,empathy_intonation_perc,2024.2.4,Win32,59.88023952,5de81d685a8f94795b893d45,6967d75d9f4867d525f9ffbe,6967f3e7728dbc343ff04dec,,,,,,,,,,,,,,1,,,,,,,,,,,,,,,,,,,,,,,,,,,,,,,,,,,,,,,,,,,,,,,,,,,,,,,,,6,tergiversar,,,,,492.9546,494.987,0,0,1.5034,,0,10,10,5,1,REAL,FAKE,,,,,,,,,,,,,,,,,
,,,,,,,,,5de81d685a8f94795b893d45,Spanish,13 or older,"no, only English or Spanish",no,2026-01-14_14h52.57.467,empathy_intonation_perc,2024.2.4,Win32,59.88023952,5de81d685a8f94795b893d45,6967d75d9f4867d525f9ffbe,6967f3e7728dbc343ff04dec,,,,,,,,,,,,,,1,,,,,,,,,,,,,,,,,,,,,,,,,,,,,,,,,,,,,,,,,,,,,,,,,,,,,,,,,44,cuchara,,,,,494.9877,496.6196,1,1,1.1041,,0,11,11,43,1,REAL,FAKE,,,,,,,,,,,,,,,,,
,,,,,,,,,5de81d685a8f94795b893d45,Spanish,13 or older,"no, only English or Spanish",no,2026-01-14_14h52.57.467,empathy_intonation_perc,2024.2.4,Win32,59.88023952,5de81d685a8f94795b893d45,6967d75d9f4867d525f9ffbe,6967f3e7728dbc343ff04dec,,,,,,,,,,,,,,0,,,,,,,,,,,,,,,,,,,,,,,,,,,,,,,,,,,,,,,,,,,,,,,,,,,,,,,,,1,terzo,,,,,496.6207,497.9367,0,1,0.8022,,0,12,12,0,1,REAL,FAKE,,,,,,,,,,,,,,,,,
,,,,,,,,,5de81d685a8f94795b893d45,Spanish,13 or older,"no, only English or Spanish",no,2026-01-14_14h52.57.467,empathy_intonation_perc,2024.2.4,Win32,59.88023952,5de81d685a8f94795b893d45,6967d75d9f4867d525f9ffbe,6967f3e7728dbc343ff04dec,,,,,,,,,,,,,,0,,,,,,,,,,,,,,,,,,,,,,,,,,,,,,,,,,,,,,,,,,,,,,,,,,,,,,,,,82,empirador,,,,,497.9373,500.3206,0,1,1.8535,,0,13,13,81,1,REAL,FAKE,,,,,,,,,,,,,,,,,
,,,,,,,,,5de81d685a8f94795b893d45,Spanish,13 or older,"no, only English or Spanish",no,2026-01-14_14h52.57.467,empathy_intonation_perc,2024.2.4,Win32,59.88023952,5de81d685a8f94795b893d45,6967d75d9f4867d525f9ffbe,6967f3e7728dbc343ff04dec,,,,,,,,,,,,,,1,,,,,,,,,,,,,,,,,,,,,,,,,,,,,,,,,,,,,,,,,,,,,,,,,,,,,,,,,59,besar,,,,,500.3211,502.7034,1,1,1.854,,0,14,14,58,1,REAL,FAKE,,,,,,,,,,,,,,,,,
,,,,,,,,,5de81d685a8f94795b893d45,Spanish,13 or older,"no, only English or Spanish",no,2026-01-14_14h52.57.467,empathy_intonation_perc,2024.2.4,Win32,59.88023952,5de81d685a8f94795b893d45,6967d75d9f4867d525f9ffbe,6967f3e7728dbc343ff04dec,,,,,,,,,,,,,,1,,,,,,,,,,,,,,,,,,,,,,,,,,,,,,,,,,,,,,,,,,,,,,,,,,,,,,,,,24,látigo,,,,,502.7043,504.1357,0,0,0.9037,,0,15,15,23,1,REAL,FAKE,,,,,,,,,,,,,,,,,
,,,,,,,,,5de81d685a8f94795b893d45,Spanish,13 or older,"no, only English or Spanish",no,2026-01-14_14h52.57.467,empathy_intonation_perc,2024.2.4,Win32,59.88023952,5de81d685a8f94795b893d45,6967d75d9f4867d525f9ffbe,6967f3e7728dbc343ff04dec,,,,,,,,,,,,,,1,,,,,,,,,,,,,,,,,,,,,,,,,,,,,,,,,,,,,,,,,,,,,,,,,,,,,,,,,88,acantilado,,,,,504.1365,507.0867,0,0,2.4375,,0,16,16,87,1,REAL,FAKE,,,,,,,,,,,,,,,,,
,,,,,,,,,5de81d685a8f94795b893d45,Spanish,13 or older,"no, only English or Spanish",no,2026-01-14_14h52.57.467,empathy_intonation_perc,2024.2.4,Win32,59.88023952,5de81d685a8f94795b893d45,6967d75d9f4867d525f9ffbe,6967f3e7728dbc343ff04dec,,,,,,,,,,,,,,1,,,,,,,,,,,,,,,,,,,,,,,,,,,,,,,,,,,,,,,,,,,,,,,,,,,,,,,,,7,pésimo,,,,,507.0874,509.453,0,0,1.8371,,0,17,17,6,1,REAL,FAKE,,,,,,,,,,,,,,,,,
,,,,,,,,,5de81d685a8f94795b893d45,Spanish,13 or older,"no, only English or Spanish",no,2026-01-14_14h52.57.467,empathy_intonation_perc,2024.2.4,Win32,59.88023952,5de81d685a8f94795b893d45,6967d75d9f4867d525f9ffbe,6967f3e7728dbc343ff04dec,,,,,,,,,,,,,,1,,,,,,,,,,,,,,,,,,,,,,,,,,,,,,,,,,,,,,,,,,,,,,,,,,,,,,,,,73,hervidor,,,,,509.4535,511.0699,0,0,1.0867,,0,18,18,72,1,REAL,FAKE,,,,,,,,,,,,,,,,,
,,,,,,,,,5de81d685a8f94795b893d45,Spanish,13 or older,"no, only English or Spanish",no,2026-01-14_14h52.57.467,empathy_intonation_perc,2024.2.4,Win32,59.88023952,5de81d685a8f94795b893d45,6967d75d9f4867d525f9ffbe,6967f3e7728dbc343ff04dec,,,,,,,,,,,,,,1,,,,,,,,,,,,,,,,,,,,,,,,,,,,,,,,,,,,,,,,,,,,,,,,,,,,,,,,,57,tacaño,,,,,511.0707,513.0862,0,0,1.5032,,0,19,19,56,1,REAL,FAKE,,,,,,,,,,,,,,,,,
,,,,,,,,,5de81d685a8f94795b893d45,Spanish,13 or older,"no, only English or Spanish",no,2026-01-14_14h52.57.467,empathy_intonation_perc,2024.2.4,Win32,59.88023952,5de81d685a8f94795b893d45,6967d75d9f4867d525f9ffbe,6967f3e7728dbc343ff04dec,,,,,,,,,,,,,,0,,,,,,,,,,,,,,,,,,,,,,,,,,,,,,,,,,,,,,,,,,,,,,,,,,,,,,,,,53,vegada,,,,,513.0869,515.3203,0,1,1.7038,,0,20,20,52,1,REAL,FAKE,,,,,,,,,,,,,,,,,
,,,,,,,,,5de81d685a8f94795b893d45,Spanish,13 or older,"no, only English or Spanish",no,2026-01-14_14h52.57.467,empathy_intonation_perc,2024.2.4,Win32,59.88023952,5de81d685a8f94795b893d45,6967d75d9f4867d525f9ffbe,6967f3e7728dbc343ff04dec,,,,,,,,,,,,,,0,,,,,,,,,,,,,,,,,,,,,,,,,,,,,,,,,,,,,,,,,,,,,,,,,,,,,,,,,29,decar,,,,,515.3208,517.3194,1,0,1.4707,,0,21,21,28,1,REAL,FAKE,,,,,,,,,,,,,,,,,
,,,,,,,,,5de81d685a8f94795b893d45,Spanish,13 or older,"no, only English or Spanish",no,2026-01-14_14h52.57.467,empathy_intonation_perc,2024.2.4,Win32,59.88023952,5de81d685a8f94795b893d45,6967d75d9f4867d525f9ffbe,6967f3e7728dbc343ff04dec,,,,,,,,,,,,,,1,,,,,,,,,,,,,,,,,,,,,,,,,,,,,,,,,,,,,,,,,,,,,,,,,,,,,,,,,15,regar,,,,,517.3199,518.6356,0,0,0.7873,,0,22,22,14,1,REAL,FAKE,,,,,,,,,,,,,,,,,
,,,,,,,,,5de81d685a8f94795b893d45,Spanish,13 or older,"no, only English or Spanish",no,2026-01-14_14h52.57.467,empathy_intonation_perc,2024.2.4,Win32,59.88023952,5de81d685a8f94795b893d45,6967d75d9f4867d525f9ffbe,6967f3e7728dbc343ff04dec,,,,,,,,,,,,,,0,,,,,,,,,,,,,,,,,,,,,,,,,,,,,,,,,,,,,,,,,,,,,,,,,,,,,,,,,84,escuto,,,,,518.6363,520.0857,0,1,0.9367,,0,23,23,83,1,REAL,FAKE,,,,,,,,,,,,,,,,,
,,,,,,,,,5de81d685a8f94795b893d45,Spanish,13 or older,"no, only English or Spanish",no,2026-01-14_14h52.57.467,empathy_intonation_perc,2024.2.4,Win32,59.88023952,5de81d685a8f94795b893d45,6967d75d9f4867d525f9ffbe,6967f3e7728dbc343ff04dec,,,,,,,,,,,,,,1,,,,,,,,,,,,,,,,,,,,,,,,,,,,,,,,,,,,,,,,,,,,,,,,,,,,,,,,,80,hormiga,,,,,520.0863,521.3357,0,0,0.7214,,0,24,24,79,1,REAL,FAKE,,,,,,,,,,,,,,,,,
,,,,,,,,,5de81d685a8f94795b893d45,Spanish,13 or older,"no, only English or Spanish",no,2026-01-14_14h52.57.467,empathy_intonation_perc,2024.2.4,Win32,59.88023952,5de81d685a8f94795b893d45,6967d75d9f4867d525f9ffbe,6967f3e7728dbc343ff04dec,,,,,,,,,,,,,,1,,,,,,,,,,,,,,,,,,,,,,,,,,,,,,,,,,,,,,,,,,,,,,,,,,,,,,,,,83,guante,,,,,521.3362,522.6692,0,0,0.8046,,0,25,25,82,1,REAL,FAKE,,,,,,,,,,,,,,,,,
,,,,,,,,,5de81d685a8f94795b893d45,Spanish,13 or older,"no, only English or Spanish",no,2026-01-14_14h52.57.467,empathy_intonation_perc,2024.2.4,Win32,59.88023952,5de81d685a8f94795b893d45,6967d75d9f4867d525f9ffbe,6967f3e7728dbc343ff04dec,,,,,,,,,,,,,,0,,,,,,,,,,,,,,,,,,,,,,,,,,,,,,,,,,,,,,,,,,,,,,,,,,,,,,,,,30,alardio,,,,,522.67,524.2518,0,1,1.054,,0,26,26,29,1,REAL,FAKE,,,,,,,,,,,,,,,,,
,,,,,,,,,5de81d685a8f94795b893d45,Spanish,13 or older,"no, only English or Spanish",no,2026-01-14_14h52.57.467,empathy_intonation_perc,2024.2.4,Win32,59.88023952,5de81d685a8f94795b893d45,6967d75d9f4867d525f9ffbe,6967f3e7728dbc343ff04dec,,,,,,,,,,,,,,0,,,,,,,,,,,,,,,,,,,,,,,,,,,,,,,,,,,,,,,,,,,,,,,,,,,,,,,,,10,antar,,,,,524.2528,525.4856,0,1,0.704,,0,27,27,9,1,REAL,FAKE,,,,,,,,,,,,,,,,,
,,,,,,,,,5de81d685a8f94795b893d45,Spanish,13 or older,"no, only English or Spanish",no,2026-01-14_14h52.57.467,empathy_intonation_perc,2024.2.4,Win32,59.88023952,5de81d685a8f94795b893d45,6967d75d9f4867d525f9ffbe,6967f3e7728dbc343ff04dec,,,,,,,,,,,,,,1,,,,,,,,,,,,,,,,,,,,,,,,,,,,,,,,,,,,,,,,,,,,,,,,,,,,,,,,,64,orgulloso,,,,,525.4862,526.8356,0,0,0.8208,,0,28,28,63,1,REAL,FAKE,,,,,,,,,,,,,,,,,
,,,,,,,,,5de81d685a8f94795b893d45,Spanish,13 or older,"no, only English or Spanish",no,2026-01-14_14h52.57.467,empathy_intonation_perc,2024.2.4,Win32,59.88023952,5de81d685a8f94795b893d45,6967d75d9f4867d525f9ffbe,6967f3e7728dbc343ff04dec,,,,,,,,,,,,,,1,,,,,,,,,,,,,,,,,,,,,,,,,,,,,,,,,,,,,,,,,,,,,,,,,,,,,,,,,68,alegre,,,,,526.8361,528.4186,0,0,1.0544,,0,29,29,67,1,REAL,FAKE,,,,,,,,,,,,,,,,,
,,,,,,,,,5de81d685a8f94795b893d45,Spanish,13 or older,"no, only English or Spanish",no,2026-01-14_14h52.57.467,empathy_intonation_perc,2024.2.4,Win32,59.88023952,5de81d685a8f94795b893d45,6967d75d9f4867d525f9ffbe,6967f3e7728dbc343ff04dec,,,,,,,,,,,,,,1,,,,,,,,,,,,,,,,,,,,,,,,,,,,,,,,,,,,,,,,,,,,,,,,,,,,,,,,,22,lacayo,,,,,528.4195,529.6514,0,0,0.7193,,0,30,30,21,1,REAL,FAKE,,,,,,,,,,,,,,,,,
,,,,,,,,,5de81d685a8f94795b893d45,Spanish,13 or older,"no, only English or Spanish",no,2026-01-14_14h52.57.467,empathy_intonation_perc,2024.2.4,Win32,59.88023952,5de81d685a8f94795b893d45,6967d75d9f4867d525f9ffbe,6967f3e7728dbc343ff04dec,,,,,,,,,,,,,,0,,,,,,,,,,,,,,,,,,,,,,,,,,,,,,,,,,,,,,,,,,,,,,,,,,,,,,,,,33,pauca,,,,,529.6522,531.3184,0,1,1.1537,,0,31,31,32,1,REAL,FAKE,,,,,,,,,,,,,,,,,
,,,,,,,,,5de81d685a8f94795b893d45,Spanish,13 or older,"no, only English or Spanish",no,2026-01-14_14h52.57.467,empathy_intonation_perc,2024.2.4,Win32,59.88023952,5de81d685a8f94795b893d45,6967d75d9f4867d525f9ffbe,6967f3e7728dbc343ff04dec,,,,,,,,,,,,,,0,,,,,,,,,,,,,,,,,,,,,,,,,,,,,,,,,,,,,,,,,,,,,,,,,,,,,,,,,50,flamida,,,,,531.3191,532.5855,0,1,0.7371,,0,32,32,49,1,REAL,FAKE,,,,,,,,,,,,,,,,,
,,,,,,,,,5de81d685a8f94795b893d45,Spanish,13 or older,"no, only English or Spanish",no,2026-01-14_14h52.57.467,empathy_intonation_perc,2024.2.4,Win32,59.88023952,5de81d685a8f94795b893d45,6967d75d9f4867d525f9ffbe,6967f3e7728dbc343ff04dec,,,,,,,,,,,,,,1,,,,,,,,,,,,,,,,,,,,,,,,,,,,,,,,,,,,,,,,,,,,,,,,,,,,,,,,,13,helar,,,,,532.5861,533.8676,0,0,0.7693,,0,33,33,12,1,REAL,FAKE,,,,,,,,,,,,,,,,,
,,,,,,,,,5de81d685a8f94795b893d45,Spanish,13 or older,"no, only English or Spanish",no,2026-01-14_14h52.57.467,empathy_intonation_perc,2024.2.4,Win32,59.88023952,5de81d685a8f94795b893d45,6967d75d9f4867d525f9ffbe,6967f3e7728dbc343ff04dec,,,,,,,,,,,,,,1,,,,,,,,,,,,,,,,,,,,,,,,,,,,,,,,,,,,,,,,,,,,,,,,,,,,,,,,,81,pozo,,,,,533.8684,535.0851,0,0,0.7043,,0,34,34,80,1,REAL,FAKE,,,,,,,,,,,,,,,,,
,,,,,,,,,5de81d685a8f94795b893d45,Spanish,13 or older,"no, only English or Spanish",no,2026-01-14_14h52.57.467,empathy_intonation_perc,2024.2.4,Win32,59.88023952,5de81d685a8f94795b893d45,6967d75d9f4867d525f9ffbe,6967f3e7728dbc343ff04dec,,,,,,,,,,,,,,1,,,,,,,,,,,,,,,,,,,,,,,,,,,,,,,,,,,,,,,,,,,,,,,,,,,,,,,,,55,nevar,,,,,535.0857,536.4016,0,0,0.7885,,0,35,35,54,1,REAL,FAKE,,,,,,,,,,,,,,,,,
,,,,,,,,,5de81d685a8f94795b893d45,Spanish,13 or older,"no, only English or Spanish",no,2026-01-14_14h52.57.467,empathy_intonation_perc,2024.2.4,Win32,59.88023952,5de81d685a8f94795b893d45,6967d75d9f4867d525f9ffbe,6967f3e7728dbc343ff04dec,,,,,,,,,,,,,,1,,,,,,,,,,,,,,,,,,,,,,,,,,,,,,,,,,,,,,,,,,,,,,,,,,,,,,,,,91,click the 1 key.,,,,,536.4027,538.434,1,1,1.5024,,0,36,36,90,1,REAL,FAKE,,,,,,,,,,,,,,,,,
,,,,,,,,,5de81d685a8f94795b893d45,Spanish,13 or older,"no, only English or Spanish",no,2026-01-14_14h52.57.467,empathy_intonation_perc,2024.2.4,Win32,59.88023952,5de81d685a8f94795b893d45,6967d75d9f4867d525f9ffbe,6967f3e7728dbc343ff04dec,,,,,,,,,,,,,,1,,,,,,,,,,,,,,,,,,,,,,,,,,,,,,,,,,,,,,,,,,,,,,,,,,,,,,,,,65,bizcocho,,,,,538.4347,540.0849,0,0,1.1359,,0,37,37,64,1,REAL,FAKE,,,,,,,,,,,,,,,,,
,,,,,,,,,5de81d685a8f94795b893d45,Spanish,13 or older,"no, only English or Spanish",no,2026-01-14_14h52.57.467,empathy_intonation_perc,2024.2.4,Win32,59.88023952,5de81d685a8f94795b893d45,6967d75d9f4867d525f9ffbe,6967f3e7728dbc343ff04dec,,,,,,,,,,,,,,1,,,,,,,,,,,,,,,,,,,,,,,,,,,,,,,,,,,,,,,,,,,,,,,,,,,,,,,,,75,yacer,,,,,540.0855,541.551,0,0,0.9369,,0,38,38,74,1,REAL,FAKE,,,,,,,,,,,,,,,,,
,,,,,,,,,5de81d685a8f94795b893d45,Spanish,13 or older,"no, only English or Spanish",no,2026-01-14_14h52.57.467,empathy_intonation_perc,2024.2.4,Win32,59.88023952,5de81d685a8f94795b893d45,6967d75d9f4867d525f9ffbe,6967f3e7728dbc343ff04dec,,,,,,,,,,,,,,1,,,,,,,,,,,,,,,,,,,,,,,,,,,,,,,,,,,,,,,,,,,,,,,,,,,,,,,,,54,fomentar,,,,,541.5519,543.6349,0,0,1.5547,,0,39,39,53,1,REAL,FAKE,,,,,,,,,,,,,,,,,
,,,,,,,,,5de81d685a8f94795b893d45,Spanish,13 or older,"no, only English or Spanish",no,2026-01-14_14h52.57.467,empathy_intonation_perc,2024.2.4,Win32,59.88023952,5de81d685a8f94795b893d45,6967d75d9f4867d525f9ffbe,6967f3e7728dbc343ff04dec,,,,,,,,,,,,,,1,,,,,,,,,,,,,,,,,,,,,,,,,,,,,,,,,,,,,,,,,,,,,,,,,,,,,,,,,48,ladrón,,,,,543.6358,544.901,0,0,0.7376,,0,40,40,47,1,REAL,FAKE,,,,,,,,,,,,,,,,,
,,,,,,,,,5de81d685a8f94795b893d45,Spanish,13 or older,"no, only English or Spanish",no,2026-01-14_14h52.57.467,empathy_intonation_perc,2024.2.4,Win32,59.88023952,5de81d685a8f94795b893d45,6967d75d9f4867d525f9ffbe,6967f3e7728dbc343ff04dec,,,,,,,,,,,,,,1,,,,,,,,,,,,,,,,,,,,,,,,,,,,,,,,,,,,,,,,,,,,,,,,,,,,,,,,,51,candado,,,,,544.9017,546.4007,0,0,0.9865,,0,41,41,50,1,REAL,FAKE,,,,,,,,,,,,,,,,,
,,,,,,,,,5de81d685a8f94795b893d45,Spanish,13 or older,"no, only English or Spanish",no,2026-01-14_14h52.57.467,empathy_intonation_perc,2024.2.4,Win32,59.88023952,5de81d685a8f94795b893d45,6967d75d9f4867d525f9ffbe,6967f3e7728dbc343ff04dec,,,,,,,,,,,,,,0,,,,,,,,,,,,,,,,,,,,,,,,,,,,,,,,,,,,,,,,,,,,,,,,,,,,,,,,,16,abracer,,,,,546.4016,547.6508,0,1,0.7195,,0,42,42,15,1,REAL,FAKE,,,,,,,,,,,,,,,,,
,,,,,,,,,5de81d685a8f94795b893d45,Spanish,13 or older,"no, only English or Spanish",no,2026-01-14_14h52.57.467,empathy_intonation_perc,2024.2.4,Win32,59.88023952,5de81d685a8f94795b893d45,6967d75d9f4867d525f9ffbe,6967f3e7728dbc343ff04dec,,,,,,,,,,,,,,0,,,,,,,,,,,,,,,,,,,,,,,,,,,,,,,,,,,,,,,,,,,,,,,,,,,,,,,,,87,grodo,,,,,547.6519,548.7846,0,1,0.6036,,0,43,43,86,1,REAL,FAKE,,,,,,,,,,,,,,,,,
,,,,,,,,,5de81d685a8f94795b893d45,Spanish,13 or older,"no, only English or Spanish",no,2026-01-14_14h52.57.467,empathy_intonation_perc,2024.2.4,Win32,59.88023952,5de81d685a8f94795b893d45,6967d75d9f4867d525f9ffbe,6967f3e7728dbc343ff04dec,,,,,,,,,,,,,,1,,,,,,,,,,,,,,,,,,,,,,,,,,,,,,,,,,,,,,,,,,,,,,,,,,,,,,,,,34,aviso,,,,,548.7852,550.1178,0,0,0.8033,,0,44,44,33,1,REAL,FAKE,,,,,,,,,,,,,,,,,
,,,,,,,,,5de81d685a8f94795b893d45,Spanish,13 or older,"no, only English or Spanish",no,2026-01-14_14h52.57.467,empathy_intonation_perc,2024.2.4,Win32,59.88023952,5de81d685a8f94795b893d45,6967d75d9f4867d525f9ffbe,6967f3e7728dbc343ff04dec,,,,,,,,,,,,,,1,,,,,,,,,,,,,,,,,,,,,,,,,,,,,,,,,,,,,,,,,,,,,,,,,,,,,,,,,25,bisagra,,,,,550.1184,551.5011,0,0,0.8551,,0,45,45,24,1,REAL,FAKE,,,,,,,,,,,,,,,,,
,,,,,,,,,5de81d685a8f94795b893d45,Spanish,13 or older,"no, only English or Spanish",no,2026-01-14_14h52.57.467,empathy_intonation_perc,2024.2.4,Win32,59.88023952,5de81d685a8f94795b893d45,6967d75d9f4867d525f9ffbe,6967f3e7728dbc343ff04dec,,,,,,,,,,,,,,1,,,,,,,,,,,,,,,,,,,,,,,,,,,,,,,,,,,,,,,,,,,,,,,,,,,,,,,,,3,pulmones,,,,,551.5018,553.2174,0,0,1.1878,,0,46,46,2,1,REAL,FAKE,,,,,,,,,,,,,,,,,
,,,,,,,,,5de81d685a8f94795b893d45,Spanish,13 or older,"no, only English or Spanish",no,2026-01-14_14h52.57.467,empathy_intonation_perc,2024.2.4,Win32,59.88023952,5de81d685a8f94795b893d45,6967d75d9f4867d525f9ffbe,6967f3e7728dbc343ff04dec,,,,,,,,,,,,,,1,,,,,,,,,,,,,,,,,,,,,,,,,,,,,,,,,,,,,,,,,,,,,,,,,,,,,,,,,2,pellizcar,,,,,553.2181,554.4176,0,0,0.6709,,0,47,47,1,1,REAL,FAKE,,,,,,,,,,,,,,,,,
,,,,,,,,,5de81d685a8f94795b893d45,Spanish,13 or older,"no, only English or Spanish",no,2026-01-14_14h52.57.467,empathy_intonation_perc,2024.2.4,Win32,59.88023952,5de81d685a8f94795b893d45,6967d75d9f4867d525f9ffbe,6967f3e7728dbc343ff04dec,,,,,,,,,,,,,,1,,,,,,,,,,,,,,,,,,,,,,,,,,,,,,,,,,,,,,,,,,,,,,,,,,,,,,,,,11,cenefa,,,,,554.4182,555.7342,0,0,0.787,,0,48,48,10,1,REAL,FAKE,,,,,,,,,,,,,,,,,
,,,,,,,,,5de81d685a8f94795b893d45,Spanish,13 or older,"no, only English or Spanish",no,2026-01-14_14h52.57.467,empathy_intonation_perc,2024.2.4,Win32,59.88023952,5de81d685a8f94795b893d45,6967d75d9f4867d525f9ffbe,6967f3e7728dbc343ff04dec,,,,,,,,,,,,,,1,,,,,,,,,,,,,,,,,,,,,,,,,,,,,,,,,,,,,,,,,,,,,,,,,,,,,,,,,78,frondoso,,,,,555.7348,557.0845,0,0,0.8207,,0,49,49,77,1,REAL,FAKE,,,,,,,,,,,,,,,,,
,,,,,,,,,5de81d685a8f94795b893d45,Spanish,13 or older,"no, only English or Spanish",no,2026-01-14_14h52.57.467,empathy_intonation_perc,2024.2.4,Win32,59.88023952,5de81d685a8f94795b893d45,6967d75d9f4867d525f9ffbe,6967f3e7728dbc343ff04dec,,,,,,,,,,,,,,1,,,,,,,,,,,,,,,,,,,,,,,,,,,,,,,,,,,,,,,,,,,,,,,,,,,,,,,,,26,secuestro,,,,,557.0852,558.8841,0,0,1.2704,,0,50,50,25,1,REAL,FAKE,,,,,,,,,,,,,,,,,
,,,,,,,,,5de81d685a8f94795b893d45,Spanish,13 or older,"no, only English or Spanish",no,2026-01-14_14h52.57.467,empathy_intonation_perc,2024.2.4,Win32,59.88023952,5de81d685a8f94795b893d45,6967d75d9f4867d525f9ffbe,6967f3e7728dbc343ff04dec,,,,,,,,,,,,,,0,,,,,,,,,,,,,,,,,,,,,,,,,,,,,,,,,,,,,,,,,,,,,,,,,,,,,,,,,92,click the 0 key.,,,,,558.8847,560.7004,0,1,1.2872,,0,51,51,91,1,REAL,FAKE,,,,,,,,,,,,,,,,,
,,,,,,,,,5de81d685a8f94795b893d45,Spanish,13 or older,"no, only English or Spanish",no,2026-01-14_14h52.57.467,empathy_intonation_perc,2024.2.4,Win32,59.88023952,5de81d685a8f94795b893d45,6967d75d9f4867d525f9ffbe,6967f3e7728dbc343ff04dec,,,,,,,,,,,,,,1,,,,,,,,,,,,,,,,,,,,,,,,,,,,,,,,,,,,,,,,,,,,,,,,,,,,,,,,,45,jilguero,,,,,560.7012,562.133,0,0,0.9197,,0,52,52,44,1,REAL,FAKE,,,,,,,,,,,,,,,,,
,,,,,,,,,5de81d685a8f94795b893d45,Spanish,13 or older,"no, only English or Spanish",no,2026-01-14_14h52.57.467,empathy_intonation_perc,2024.2.4,Win32,59.88023952,5de81d685a8f94795b893d45,6967d75d9f4867d525f9ffbe,6967f3e7728dbc343ff04dec,,,,,,,,,,,,,,1,,,,,,,,,,,,,,,,,,,,,,,,,,,,,,,,,,,,,,,,,,,,,,,,,,,,,,,,,31,pandilla,,,,,562.1341,564.2166,1,1,1.5705,,0,53,53,30,1,REAL,FAKE,,,,,,,,,,,,,,,,,
,,,,,,,,,5de81d685a8f94795b893d45,Spanish,13 or older,"no, only English or Spanish",no,2026-01-14_14h52.57.467,empathy_intonation_perc,2024.2.4,Win32,59.88023952,5de81d685a8f94795b893d45,6967d75d9f4867d525f9ffbe,6967f3e7728dbc343ff04dec,,,,,,,,,,,,,,1,,,,,,,,,,,,,,,,,,,,,,,,,,,,,,,,,,,,,,,,,,,,,,,,,,,,,,,,,37,granuja,,,,,564.2175,565.6848,0,0,0.9385,,0,54,54,36,1,REAL,FAKE,,,,,,,,,,,,,,,,,
,,,,,,,,,5de81d685a8f94795b893d45,Spanish,13 or older,"no, only English or Spanish",no,2026-01-14_14h52.57.467,empathy_intonation_perc,2024.2.4,Win32,59.88023952,5de81d685a8f94795b893d45,6967d75d9f4867d525f9ffbe,6967f3e7728dbc343ff04dec,,,,,,,,,,,,,,1,,,,,,,,,,,,,,,,,,,,,,,,,,,,,,,,,,,,,,,,,,,,,,,,,,,,,,,,,62,flaco,,,,,565.6852,567.3176,0,0,1.1037,,0,55,55,61,1,REAL,FAKE,,,,,,,,,,,,,,,,,
,,,,,,,,,5de81d685a8f94795b893d45,Spanish,13 or older,"no, only English or Spanish",no,2026-01-14_14h52.57.467,empathy_intonation_perc,2024.2.4,Win32,59.88023952,5de81d685a8f94795b893d45,6967d75d9f4867d525f9ffbe,6967f3e7728dbc343ff04dec,,,,,,,,,,,,,,1,,,,,,,,,,,,,,,,,,,,,,,,,,,,,,,,,,,,,,,,,,,,,,,,,,,,,,,,,86,barato,,,,,567.3181,568.5667,0,0,0.7202,,0,56,56,85,1,REAL,FAKE,,,,,,,,,,,,,,,,,
,,,,,,,,,5de81d685a8f94795b893d45,Spanish,13 or older,"no, only English or Spanish",no,2026-01-14_14h52.57.467,empathy_intonation_perc,2024.2.4,Win32,59.88023952,5de81d685a8f94795b893d45,6967d75d9f4867d525f9ffbe,6967f3e7728dbc343ff04dec,,,,,,,,,,,,,,1,,,,,,,,,,,,,,,,,,,,,,,,,,,,,,,,,,,,,,,,,,,,,,,,,,,,,,,,,28,merodear,,,,,568.5674,569.8498,0,0,0.7519,,0,57,57,27,1,REAL,FAKE,,,,,,,,,,,,,,,,,
,,,,,,,,,5de81d685a8f94795b893d45,Spanish,13 or older,"no, only English or Spanish",no,2026-01-14_14h52.57.467,empathy_intonation_perc,2024.2.4,Win32,59.88023952,5de81d685a8f94795b893d45,6967d75d9f4867d525f9ffbe,6967f3e7728dbc343ff04dec,,,,,,,,,,,,,,1,,,,,,,,,,,,,,,,,,,,,,,,,,,,,,,,,,,,,,,,,,,,,,,,,,,,,,,,,56,musgo,,,,,569.8505,571.1501,0,0,0.771,,0,58,58,55,1,REAL,FAKE,,,,,,,,,,,,,,,,,
,,,,,,,,,5de81d685a8f94795b893d45,Spanish,13 or older,"no, only English or Spanish",no,2026-01-14_14h52.57.467,empathy_intonation_perc,2024.2.4,Win32,59.88023952,5de81d685a8f94795b893d45,6967d75d9f4867d525f9ffbe,6967f3e7728dbc343ff04dec,,,,,,,,,,,,,,1,,,,,,,,,,,,,,,,,,,,,,,,,,,,,,,,,,,,,,,,,,,,,,,,,,,,,,,,,14,yunque,,,,,571.1507,572.366,0,0,0.6867,,0,59,59,13,1,REAL,FAKE,,,,,,,,,,,,,,,,,
,,,,,,,,,5de81d685a8f94795b893d45,Spanish,13 or older,"no, only English or Spanish",no,2026-01-14_14h52.57.467,empathy_intonation_perc,2024.2.4,Win32,59.88023952,5de81d685a8f94795b893d45,6967d75d9f4867d525f9ffbe,6967f3e7728dbc343ff04dec,,,,,,,,,,,,,,1,,,,,,,,,,,,,,,,,,,,,,,,,,,,,,,,,,,,,,,,,,,,,,,,,,,,,,,,,20,ávido,,,,,572.3667,574.117,0,0,1.2361,,0,60,60,19,1,REAL,FAKE,,,,,,,,,,,,,,,,,
,,,,,,,,,5de81d685a8f94795b893d45,Spanish,13 or older,"no, only English or Spanish",no,2026-01-14_14h52.57.467,empathy_intonation_perc,2024.2.4,Win32,59.88023952,5de81d685a8f94795b893d45,6967d75d9f4867d525f9ffbe,6967f3e7728dbc343ff04dec,,,,,,,,,,,,,,1,,,,,,,,,,,,,,,,,,,,,,,,,,,,,,,,,,,,,,,,,,,,,,,,,,,,,,,,,77,tiburón,,,,,574.1177,575.4671,0,0,0.8198,,0,61,61,76,1,REAL,FAKE,,,,,,,,,,,,,,,,,
,,,,,,,,,5de81d685a8f94795b893d45,Spanish,13 or older,"no, only English or Spanish",no,2026-01-14_14h52.57.467,empathy_intonation_perc,2024.2.4,Win32,59.88023952,5de81d685a8f94795b893d45,6967d75d9f4867d525f9ffbe,6967f3e7728dbc343ff04dec,,,,,,,,,,,,,,0,,,,,,,,,,,,,,,,,,,,,,,,,,,,,,,,,,,,,,,,,,,,,,,,,,,,,,,,,4,batillón,,,,,575.4677,576.6331,0,1,0.6371,,0,62,62,3,1,REAL,FAKE,,,,,,,,,,,,,,,,,
,,,,,,,,,5de81d685a8f94795b893d45,Spanish,13 or older,"no, only English or Spanish",no,2026-01-14_14h52.57.467,empathy_intonation_perc,2024.2.4,Win32,59.88023952,5de81d685a8f94795b893d45,6967d75d9f4867d525f9ffbe,6967f3e7728dbc343ff04dec,,,,,,,,,,,,,,0,,,,,,,,,,,,,,,,,,,,,,,,,,,,,,,,,,,,,,,,,,,,,,,,,,,,,,,,,23,lampera,,,,,576.6337,577.9999,0,1,0.8378,,0,63,63,22,1,REAL,FAKE,,,,,,,,,,,,,,,,,
,,,,,,,,,5de81d685a8f94795b893d45,Spanish,13 or older,"no, only English or Spanish",no,2026-01-14_14h52.57.467,empathy_intonation_perc,2024.2.4,Win32,59.88023952,5de81d685a8f94795b893d45,6967d75d9f4867d525f9ffbe,6967f3e7728dbc343ff04dec,,,,,,,,,,,,,,0,,,,,,,,,,,,,,,,,,,,,,,,,,,,,,,,,,,,,,,,,,,,,,,,,,,,,,,,,8,cadeña,,,,,578.0005,579.3498,0,1,0.821,,0,64,64,7,1,REAL,FAKE,,,,,,,,,,,,,,,,,
,,,,,,,,,5de81d685a8f94795b893d45,Spanish,13 or older,"no, only English or Spanish",no,2026-01-14_14h52.57.467,empathy_intonation_perc,2024.2.4,Win32,59.88023952,5de81d685a8f94795b893d45,6967d75d9f4867d525f9ffbe,6967f3e7728dbc343ff04dec,,,,,,,,,,,,,,0,,,,,,,,,,,,,,,,,,,,,,,,,,,,,,,,,,,,,,,,,,,,,,,,,,,,,,,,,70,temblo,,,,,579.3503,580.7166,0,1,0.8368,,0,65,65,69,1,REAL,FAKE,,,,,,,,,,,,,,,,,
,,,,,,,,,5de81d685a8f94795b893d45,Spanish,13 or older,"no, only English or Spanish",no,2026-01-14_14h52.57.467,empathy_intonation_perc,2024.2.4,Win32,59.88023952,5de81d685a8f94795b893d45,6967d75d9f4867d525f9ffbe,6967f3e7728dbc343ff04dec,,,,,,,,,,,,,,1,,,,,,,,,,,,,,,,,,,,,,,,,,,,,,,,,,,,,,,,,,,,,,,,,,,,,,,,,43,canela,,,,,580.7173,581.8666,0,0,0.6204,,0,66,66,42,1,REAL,FAKE,,,,,,,,,,,,,,,,,
,,,,,,,,,5de81d685a8f94795b893d45,Spanish,13 or older,"no, only English or Spanish",no,2026-01-14_14h52.57.467,empathy_intonation_perc,2024.2.4,Win32,59.88023952,5de81d685a8f94795b893d45,6967d75d9f4867d525f9ffbe,6967f3e7728dbc343ff04dec,,,,,,,,,,,,,,1,,,,,,,,,,,,,,,,,,,,,,,,,,,,,,,,,,,,,,,,,,,,,,,,,,,,,,,,,67,cabello,,,,,581.8673,583.8661,0,0,1.4708,,0,67,67,66,1,REAL,FAKE,,,,,,,,,,,,,,,,,
,,,,,,,,,5de81d685a8f94795b893d45,Spanish,13 or older,"no, only English or Spanish",no,2026-01-14_14h52.57.467,empathy_intonation_perc,2024.2.4,Win32,59.88023952,5de81d685a8f94795b893d45,6967d75d9f4867d525f9ffbe,6967f3e7728dbc343ff04dec,,,,,,,,,,,,,,1,,,,,,,,,,,,,,,,,,,,,,,,,,,,,,,,,,,,,,,,,,,,,,,,,,,,,,,,,69,engatusar,,,,,583.8668,585.0994,0,0,0.7044,,0,68,68,68,1,REAL,FAKE,,,,,,,,,,,,,,,,,
,,,,,,,,,5de81d685a8f94795b893d45,Spanish,13 or older,"no, only English or Spanish",no,2026-01-14_14h52.57.467,empathy_intonation_perc,2024.2.4,Win32,59.88023952,5de81d685a8f94795b893d45,6967d75d9f4867d525f9ffbe,6967f3e7728dbc343ff04dec,,,,,,,,,,,,,,0,,,,,,,,,,,,,,,,,,,,,,,,,,,,,,,,,,,,,,,,,,,,,,,,,,,,,,,,,66,hacido,,,,,585.1001,586.1661,0,1,0.5369,,0,69,69,65,1,REAL,FAKE,,,,,,,,,,,,,,,,,
,,,,,,,,,5de81d685a8f94795b893d45,Spanish,13 or older,"no, only English or Spanish",no,2026-01-14_14h52.57.467,empathy_intonation_perc,2024.2.4,Win32,59.88023952,5de81d685a8f94795b893d45,6967d75d9f4867d525f9ffbe,6967f3e7728dbc343ff04dec,,,,,,,,,,,,,,0,,,,,,,,,,,,,,,,,,,,,,,,,,,,,,,,,,,,,,,,,,,,,,,,,,,,,,,,,47,cartinar,,,,,586.1666,587.5662,0,1,0.87,,0,70,70,46,1,REAL,FAKE,,,,,,,,,,,,,,,,,
,,,,,,,,,5de81d685a8f94795b893d45,Spanish,13 or older,"no, only English or Spanish",no,2026-01-14_14h52.57.467,empathy_intonation_perc,2024.2.4,Win32,59.88023952,5de81d685a8f94795b893d45,6967d75d9f4867d525f9ffbe,6967f3e7728dbc343ff04dec,,,,,,,,,,,,,,0,,,,,,,,,,,,,,,,,,,,,,,,,,,,,,,,,,,,,,,,,,,,,,,,,,,,,,,,,19,brecedad,,,,,587.5669,589.0493,0,1,0.953,,0,71,71,18,1,REAL,FAKE,,,,,,,,,,,,,,,,,
,,,,,,,,,5de81d685a8f94795b893d45,Spanish,13 or older,"no, only English or Spanish",no,2026-01-14_14h52.57.467,empathy_intonation_perc,2024.2.4,Win32,59.88023952,5de81d685a8f94795b893d45,6967d75d9f4867d525f9ffbe,6967f3e7728dbc343ff04dec,,,,,,,,,,,,,,0,,,,,,,,,,,,,,,,,,,,,,,,,,,,,,,,,,,,,,,,,,,,,,,,,,,,,,,,,32,fatacidad,,,,,589.0499,590.4322,0,1,0.8529,,0,72,72,31,1,REAL,FAKE,,,,,,,,,,,,,,,,,
,,,,,,,,,5de81d685a8f94795b893d45,Spanish,13 or older,"no, only English or Spanish",no,2026-01-14_14h52.57.467,empathy_intonation_perc,2024.2.4,Win32,59.88023952,5de81d685a8f94795b893d45,6967d75d9f4867d525f9ffbe,6967f3e7728dbc343ff04dec,,,,,,,,,,,,,,0,,,,,,,,,,,,,,,,,,,,,,,,,,,,,,,,,,,,,,,,,,,,,,,,,,,,,,,,,63,esposante,,,,,590.4331,591.6823,0,1,0.7361,,0,73,73,62,1,REAL,FAKE,,,,,,,,,,,,,,,,,
,,,,,,,,,5de81d685a8f94795b893d45,Spanish,13 or older,"no, only English or Spanish",no,2026-01-14_14h52.57.467,empathy_intonation_perc,2024.2.4,Win32,59.88023952,5de81d685a8f94795b893d45,6967d75d9f4867d525f9ffbe,6967f3e7728dbc343ff04dec,,,,,,,,,,,,,,1,,,,,,,,,,,,,,,,,,,,,,,,,,,,,,,,,,,,,,,,,,,,,,,,,,,,,,,,,71,polvoriento,,,,,591.6832,593.1982,0,0,0.9861,,0,74,74,70,1,REAL,FAKE,,,,,,,,,,,,,,,,,
,,,,,,,,,5de81d685a8f94795b893d45,Spanish,13 or older,"no, only English or Spanish",no,2026-01-14_14h52.57.467,empathy_intonation_perc,2024.2.4,Win32,59.88023952,5de81d685a8f94795b893d45,6967d75d9f4867d525f9ffbe,6967f3e7728dbc343ff04dec,,,,,,,,,,,,,,1,,,,,,,,,,,,,,,,,,,,,,,,,,,,,,,,,,,,,,,,,,,,,,,,,,,,,,,,,9,hacha,,,,,593.1988,594.9825,1,1,1.2714,,0,75,75,8,1,REAL,FAKE,,,,,,,,,,,,,,,,,
,,,,,,,,,5de81d685a8f94795b893d45,Spanish,13 or older,"no, only English or Spanish",no,2026-01-14_14h52.57.467,empathy_intonation_perc,2024.2.4,Win32,59.88023952,5de81d685a8f94795b893d45,6967d75d9f4867d525f9ffbe,6967f3e7728dbc343ff04dec,,,,,,,,,,,,,,1,,,,,,,,,,,,,,,,,,,,,,,,,,,,,,,,,,,,,,,,,,,,,,,,,,,,,,,,,39,torpe,,,,,594.9832,596.2822,0,0,0.7869,,0,76,76,38,1,REAL,FAKE,,,,,,,,,,,,,,,,,
,,,,,,,,,5de81d685a8f94795b893d45,Spanish,13 or older,"no, only English or Spanish",no,2026-01-14_14h52.57.467,empathy_intonation_perc,2024.2.4,Win32,59.88023952,5de81d685a8f94795b893d45,6967d75d9f4867d525f9ffbe,6967f3e7728dbc343ff04dec,,,,,,,,,,,,,,0,,,,,,,,,,,,,,,,,,,,,,,,,,,,,,,,,,,,,,,,,,,,,,,,,,,,,,,,,27,acutación,,,,,596.2828,597.7492,0,1,0.9369,,0,77,77,26,1,REAL,FAKE,,,,,,,,,,,,,,,,,
,,,,,,,,,5de81d685a8f94795b893d45,Spanish,13 or older,"no, only English or Spanish",no,2026-01-14_14h52.57.467,empathy_intonation_perc,2024.2.4,Win32,59.88023952,5de81d685a8f94795b893d45,6967d75d9f4867d525f9ffbe,6967f3e7728dbc343ff04dec,,,,,,,,,,,,,,0,,,,,,,,,,,,,,,,,,,,,,,,,,,,,,,,,,,,,,,,,,,,,,,,,,,,,,,,,58,plaudir,,,,,597.7497,599.1653,0,1,0.8866,,0,78,78,57,1,REAL,FAKE,,,,,,,,,,,,,,,,,
,,,,,,,,,5de81d685a8f94795b893d45,Spanish,13 or older,"no, only English or Spanish",no,2026-01-14_14h52.57.467,empathy_intonation_perc,2024.2.4,Win32,59.88023952,5de81d685a8f94795b893d45,6967d75d9f4867d525f9ffbe,6967f3e7728dbc343ff04dec,,,,,,,,,,,,,,1,,,,,,,,,,,,,,,,,,,,,,,,,,,,,,,,,,,,,,,,,,,,,,,,,,,,,,,,,5,zapato,,,,,599.166,600.6812,1,1,0.9878,,0,79,79,4,1,REAL,FAKE,,,,,,,,,,,,,,,,,
,,,,,,,,,5de81d685a8f94795b893d45,Spanish,13 or older,"no, only English or Spanish",no,2026-01-14_14h52.57.467,empathy_intonation_perc,2024.2.4,Win32,59.88023952,5de81d685a8f94795b893d45,6967d75d9f4867d525f9ffbe,6967f3e7728dbc343ff04dec,,,,,,,,,,,,,,1,,,,,,,,,,,,,,,,,,,,,,,,,,,,,,,,,,,,,,,,,,,,,,,,,,,,,,,,,49,ganar,,,,,600.6819,601.8822,0,0,0.6865,,0,80,80,48,1,REAL,FAKE,,,,,,,,,,,,,,,,,
,,,,,,,,,5de81d685a8f94795b893d45,Spanish,13 or older,"no, only English or Spanish",no,2026-01-14_14h52.57.467,empathy_intonation_perc,2024.2.4,Win32,59.88023952,5de81d685a8f94795b893d45,6967d75d9f4867d525f9ffbe,6967f3e7728dbc343ff04dec,,,,,,,,,,,,,,1,,,,,,,,,,,,,,,,,,,,,,,,,,,,,,,,,,,,,,,,,,,,,,,,,,,,,,,,,61,seda,,,,,601.8828,603.0812,0,0,0.6703,,0,81,81,60,1,REAL,FAKE,,,,,,,,,,,,,,,,,
,,,,,,,,,5de81d685a8f94795b893d45,Spanish,13 or older,"no, only English or Spanish",no,2026-01-14_14h52.57.467,empathy_intonation_perc,2024.2.4,Win32,59.88023952,5de81d685a8f94795b893d45,6967d75d9f4867d525f9ffbe,6967f3e7728dbc343ff04dec,,,,,,,,,,,,,,1,,,,,,,,,,,,,,,,,,,,,,,,,,,,,,,,,,,,,,,,,,,,,,,,,,,,,,,,,41,rebuscar,,,,,603.0819,604.5487,0,0,0.9363,,0,82,82,40,1,REAL,FAKE,,,,,,,,,,,,,,,,,
,,,,,,,,,5de81d685a8f94795b893d45,Spanish,13 or older,"no, only English or Spanish",no,2026-01-14_14h52.57.467,empathy_intonation_perc,2024.2.4,Win32,59.88023952,5de81d685a8f94795b893d45,6967d75d9f4867d525f9ffbe,6967f3e7728dbc343ff04dec,,,,,,,,,,,,,,1,,,,,,,,,,,,,,,,,,,,,,,,,,,,,,,,,,,,,,,,,,,,,,,,,,,,,,,,,52,camisa,,,,,604.5494,605.7651,0,0,0.6869,,0,83,83,51,1,REAL,FAKE,,,,,,,,,,,,,,,,,
,,,,,,,,,5de81d685a8f94795b893d45,Spanish,13 or older,"no, only English or Spanish",no,2026-01-14_14h52.57.467,empathy_intonation_perc,2024.2.4,Win32,59.88023952,5de81d685a8f94795b893d45,6967d75d9f4867d525f9ffbe,6967f3e7728dbc343ff04dec,,,,,,,,,,,,,,1,,,,,,,,,,,,,,,,,,,,,,,,,,,,,,,,,,,,,,,,,,,,,,,,,,,,,,,,,89,prisa,,,,,605.7658,606.9658,0,0,0.6718,,0,84,84,88,1,REAL,FAKE,,,,,,,,,,,,,,,,,
,,,,,,,,,5de81d685a8f94795b893d45,Spanish,13 or older,"no, only English or Spanish",no,2026-01-14_14h52.57.467,empathy_intonation_perc,2024.2.4,Win32,59.88023952,5de81d685a8f94795b893d45,6967d75d9f4867d525f9ffbe,6967f3e7728dbc343ff04dec,,,,,,,,,,,,,,0,,,,,,,,,,,,,,,,,,,,,,,,,,,,,,,,,,,,,,,,,,,,,,,,,,,,,,,,,42,cadallo,,,,,606.9663,608.816,0,1,1.322,,0,85,85,41,1,REAL,FAKE,,,,,,,,,,,,,,,,,
,,,,,,,,,5de81d685a8f94795b893d45,Spanish,13 or older,"no, only English or Spanish",no,2026-01-14_14h52.57.467,empathy_intonation_perc,2024.2.4,Win32,59.88023952,5de81d685a8f94795b893d45,6967d75d9f4867d525f9ffbe,6967f3e7728dbc343ff04dec,,,,,,,,,,,,,,1,,,,,,,,,,,,,,,,,,,,,,,,,,,,,,,,,,,,,,,,,,,,,,,,,,,,,,,,,85,laúd,,,,,608.8168,610.2388,0,0,0.8989,,0,86,86,84,1,REAL,FAKE,,,,,,,,,,,,,,,,,
,,,,,,,,,5de81d685a8f94795b893d45,Spanish,13 or older,"no, only English or Spanish",no,2026-01-14_14h52.57.467,empathy_intonation_perc,2024.2.4,Win32,59.88023952,5de81d685a8f94795b893d45,6967d75d9f4867d525f9ffbe,6967f3e7728dbc343ff04dec,,,,,,,,,,,,,,0,,,,,,,,,,,,,,,,,,,,,,,,,,,,,,,,,,,,,,,,,,,,,,,,,,,,,,,,,74,cintro,,,,,610.2393,611.6987,0,1,0.9385,,0,87,87,73,1,REAL,FAKE,,,,,,,,,,,,,,,,,
,,,,,,,,,5de81d685a8f94795b893d45,Spanish,13 or older,"no, only English or Spanish",no,2026-01-14_14h52.57.467,empathy_intonation_perc,2024.2.4,Win32,59.88023952,5de81d685a8f94795b893d45,6967d75d9f4867d525f9ffbe,6967f3e7728dbc343ff04dec,,,,,,,,,,,,,,1,,,,,,,,,,,,,,,,,,,,,,,,,,,,,,,,,,,,,,,,,,,,,,,,,,,,,,,,,40,alfombra,,,,,611.6993,613.0311,0,0,0.8027,,0,88,88,39,1,REAL,FAKE,,,,,,,,,,,,,,,,,
,,,,,,,,,5de81d685a8f94795b893d45,Spanish,13 or older,"no, only English or Spanish",no,2026-01-14_14h52.57.467,empathy_intonation_perc,2024.2.4,Win32,59.88023952,5de81d685a8f94795b893d45,6967d75d9f4867d525f9ffbe,6967f3e7728dbc343ff04dec,,,,,,,,,,,,,,0,,,,,,,,,,,,,,,,,,,,,,,,,,,,,,,,,,,,,,,,,,,,,,,,,,,,,,,,,35,rompido,,,,,613.0318,614.4501,0,1,0.9064,,0,89,89,34,1,REAL,FAKE,,,,,,,,,,,,,,,,,
,,,,,,,,,5de81d685a8f94795b893d45,Spanish,13 or older,"no, only English or Spanish",no,2026-01-14_14h52.57.467,empathy_intonation_perc,2024.2.4,Win32,59.88023952,5de81d685a8f94795b893d45,6967d75d9f4867d525f9ffbe,6967f3e7728dbc343ff04dec,,,,,,,,,,,,,,1,,,,,,,,,,,,,,,,,,,,,,,,,,,,,,,,,,,,,,,,,,,,,,,,,,,,,,,,,36,loro,,,,,614.4505,615.9021,0,0,0.9362,,0,90,90,35,1,REAL,FAKE,,,,,,,,,,,,,,,,,
,,,,,,,,,5de81d685a8f94795b893d45,Spanish,13 or older,"no, only English or Spanish",no,2026-01-14_14h52.57.467,empathy_intonation_perc,2024.2.4,Win32,59.88023952,5de81d685a8f94795b893d45,6967d75d9f4867d525f9ffbe,6967f3e7728dbc343ff04dec,,,,,,,,,,,,,,0,,,,,,,,,,,,,,,,,,,,,,,,,,,,,,,,,,,,,,,,,,,,,,,,,,,,,,,,,72,pemición,,,,,615.9026,617.1691,0,1,0.7411,,0,91,91,71,1,REAL,FAKE,,,,,,,,,,,,,,,,,
,,,,,,,,,5de81d685a8f94795b893d45,Spanish,13 or older,"no, only English or Spanish",no,2026-01-14_14h52.57.467,empathy_intonation_perc,2024.2.4,Win32,59.88023952,5de81d685a8f94795b893d45,6967d75d9f4867d525f9ffbe,6967f3e7728dbc343ff04dec,,,,,,,,,,,,,,,,,,,,,,,,,,,,,,,,,,,,,,,,,,,,,,,,,,,,,,,,,,,,,,,,,,,,,,,,,,,,,,,,,,,,,,,,,,617.1695,624.8623,,,,,,,,,,,,,,,
,,,,,,,,,5de81d685a8f94795b893d45,Spanish,13 or older,"no, only English or Spanish",no,2026-01-14_14h52.57.467,empathy_intonation_perc,2024.2.4,Win32,59.88023952,5de81d685a8f94795b893d45,6967d75d9f4867d525f9ffbe,6967f3e7728dbc343ff04dec,,,,,,,,,,,,,1,,,,,,,,,,,,,,,,,,,,,,,,,,,,,,,,,,,,,,,,,,,,,,,,,,,,,,,,,,,,,,,,,,,,,,,,,,,,,,,624.8671,629.6651,slightly disagree,0,0,0,0,1,I can easily tell if someone else wants to enter a conversation.,1,0,1,0,,
,,,,,,,,,5de81d685a8f94795b893d45,Spanish,13 or older,"no, only English or Spanish",no,2026-01-14_14h52.57.467,empathy_intonation_perc,2024.2.4,Win32,59.88023952,5de81d685a8f94795b893d45,6967d75d9f4867d525f9ffbe,6967f3e7728dbc343ff04dec,,,,,,,,,,,,,2,,,,,,,,,,,,,,,,,,,,,,,,,,,,,,,,,,,,,,,,,,,,,,,,,,,,,,,,,,,,,,,,,,,,,,,,,,,,,,,629.6659,631.6312,slightly agree,0,1,1,1,1,I prefer animals to humans.,0,1,0,0,,
,,,,,,,,,5de81d685a8f94795b893d45,Spanish,13 or older,"no, only English or Spanish",no,2026-01-14_14h52.57.467,empathy_intonation_perc,2024.2.4,Win32,59.88023952,5de81d685a8f94795b893d45,6967d75d9f4867d525f9ffbe,6967f3e7728dbc343ff04dec,,,,,,,,,,,,,3,,,,,,,,,,,,,,,,,,,,,,,,,,,,,,,,,,,,,,,,,,,,,,,,,,,,,,,,,,,,,,,,,,,,,,,,,,,,,,,631.6325,634.3465,slightly disagree,0,2,2,2,1,I try to keep up with the current trends and fashions.,0,1,0,0,,
,,,,,,,,,5de81d685a8f94795b893d45,Spanish,13 or older,"no, only English or Spanish",no,2026-01-14_14h52.57.467,empathy_intonation_perc,2024.2.4,Win32,59.88023952,5de81d685a8f94795b893d45,6967d75d9f4867d525f9ffbe,6967f3e7728dbc343ff04dec,,,,,,,,,,,,,4,,,,,,,,,,,,,,,,,,,,,,,,,,,,,,,,,,,,,,,,,,,,,,,,,,,,,,,,,,,,,,,,,,,,,,,,,,,,,,,634.3477,643.4143,slightly agree,0,3,3,3,1,"I find it difficult to explain to others things that I understand easily,   when they don't understand it first time.",1,0,0,1,,
,,,,,,,,,5de81d685a8f94795b893d45,Spanish,13 or older,"no, only English or Spanish",no,2026-01-14_14h52.57.467,empathy_intonation_perc,2024.2.4,Win32,59.88023952,5de81d685a8f94795b893d45,6967d75d9f4867d525f9ffbe,6967f3e7728dbc343ff04dec,,,,,,,,,,,,,5,,,,,,,,,,,,,,,,,,,,,,,,,,,,,,,,,,,,,,,,,,,,,,,,,,,,,,,,,,,,,,,,,,,,,,,,,,,,,,,643.4147,645.5976,slightly disagree,0,4,4,4,1,I dream most nights.,0,1,0,0,,
,,,,,,,,,5de81d685a8f94795b893d45,Spanish,13 or older,"no, only English or Spanish",no,2026-01-14_14h52.57.467,empathy_intonation_perc,2024.2.4,Win32,59.88023952,5de81d685a8f94795b893d45,6967d75d9f4867d525f9ffbe,6967f3e7728dbc343ff04dec,,,,,,,,,,,,,6,,,,,,,,,,,,,,,,,,,,,,,,,,,,,,,,,,,,,,,,,,,,,,,,,,,,,,,,,,,,,,,,,,,,,,,,,,,,,,,645.5985,647.897,slightly agree,0,5,5,5,1,I really enjoy caring for other people.,1,0,1,0,,
,,,,,,,,,5de81d685a8f94795b893d45,Spanish,13 or older,"no, only English or Spanish",no,2026-01-14_14h52.57.467,empathy_intonation_perc,2024.2.4,Win32,59.88023952,5de81d685a8f94795b893d45,6967d75d9f4867d525f9ffbe,6967f3e7728dbc343ff04dec,,,,,,,,,,,,,7,,,,,,,,,,,,,,,,,,,,,,,,,,,,,,,,,,,,,,,,,,,,,,,,,,,,,,,,,,,,,,,,,,,,,,,,,,,,,,,647.8981,650.7814,slightly agree,0,6,6,6,1,I try to solve my own problems rather than discussing them with others.,0,1,0,0,,
,,,,,,,,,5de81d685a8f94795b893d45,Spanish,13 or older,"no, only English or Spanish",no,2026-01-14_14h52.57.467,empathy_intonation_perc,2024.2.4,Win32,59.88023952,5de81d685a8f94795b893d45,6967d75d9f4867d525f9ffbe,6967f3e7728dbc343ff04dec,,,,,,,,,,,,,8,,,,,,,,,,,,,,,,,,,,,,,,,,,,,,,,,,,,,,,,,,,,,,,,,,,,,,,,,,,,,,,,,,,,,,,,,,,,,,,650.7818,653.3132,slightly disagree,0,7,7,7,1,I find it hard to know what to do in a social situation.,1,0,0,1,,
,,,,,,,,,5de81d685a8f94795b893d45,Spanish,13 or older,"no, only English or Spanish",no,2026-01-14_14h52.57.467,empathy_intonation_perc,2024.2.4,Win32,59.88023952,5de81d685a8f94795b893d45,6967d75d9f4867d525f9ffbe,6967f3e7728dbc343ff04dec,,,,,,,,,,,,,9,,,,,,,,,,,,,,,,,,,,,,,,,,,,,,,,,,,,,,,,,,,,,,,,,,,,,,,,,,,,,,,,,,,,,,,,,,,,,,,653.3138,656.28,slightly disagree,0,8,8,8,1,I am at my best first thing in the morning.,0,1,0,0,,
,,,,,,,,,5de81d685a8f94795b893d45,Spanish,13 or older,"no, only English or Spanish",no,2026-01-14_14h52.57.467,empathy_intonation_perc,2024.2.4,Win32,59.88023952,5de81d685a8f94795b893d45,6967d75d9f4867d525f9ffbe,6967f3e7728dbc343ff04dec,,,,,,,,,,,,,10,,,,,,,,,,,,,,,,,,,,,,,,,,,,,,,,,,,,,,,,,,,,,,,,,,,,,,,,,,,,,,,,,,,,,,,,,,,,,,,656.2808,661.0794,slightly disagree,0,9,9,9,1,People often tell me that I went too far in driving my point home in a discussion.,1,0,0,1,,
