instructions_exposure.started,instructions_exposure.stopped,instructions_exposure_loop.thisRepN,instructions_exposure_loop.thisTrialN,instructions_exposure_loop.thisN,instructions_exposure_loop.thisIndex,instructions_exposure_loop.ran,instructions_text,continue_text,participant_id,"What variety of Spanish are you most familiar with? (e.g., Peruvian, Spanish, Mexican)",At what age did you begin learning Spanish?,Are you proficient in any languages other than English/Spanish?,"Are you familiar with Caribbean (e.g., Caribbean, Puerto Rican) or Galician Spanish?",date,expName,psychopyVersion,OS,frameRate,id,study_id,session,trial_exposure.started,trial_exposure.stopped,key_resp_exposure.keys,key_resp_exposure.corr,key_resp_exposure.rt,key_resp_exposure.duration,key_resp.keys,exposure_loop.thisRepN,exposure_loop.thisTrialN,exposure_loop.thisN,exposure_loop.thisIndex,exposure_loop.ran,item_num,correct_response,question,path,duration,instructions_2afc.started,instructions_2afc.stopped,instructions_2afc_loop.thisRepN,instructions_2afc_loop.thisTrialN,instructions_2afc_loop.thisN,instructions_2afc_loop.thisIndex,instructions_2afc_loop.ran,practice_2afc.started,practice_2afc.stopped,key_resp_2afc_practice.keys,key_resp_2afc_practice.corr,key_resp_2afc_practice.rt,key_resp_2afc_practice.duration,trials_2afc_practice_loop.thisRepN,trials_2afc_practice_loop.thisTrialN,trials_2afc_practice_loop.thisN,trials_2afc_practice_loop.thisIndex,trials_2afc_practice_loop.ran,check_2afc.started,check_2afc.stopped,trial_2afc.started,trial_2afc.stopped,key_resp_2afc_trial.keys,key_resp_2afc_trial.corr,key_resp_2afc_trial.rt,key_resp_2afc_trial.duration,trials_2afc_loop.thisRepN,trials_2afc_loop.thisTrialN,trials_2afc_loop.thisN,trials_2afc_loop.thisIndex,trials_2afc_loop.ran,target,variety,instructions_lextale.started,instructions_lextale.stopped,instructions_lextale_loop.thisRepN,instructions_lextale_loop.thisTrialN,instructions_lextale_loop.thisN,instructions_lextale_loop.thisIndex,instructions_lextale_loop.ran,practice_lextale.started,practice_lextale.stopped,key_resp_lextale_practice.keys,key_resp_lextale_practice.corr,key_resp_lextale_practice.rt,key_resp_lextale_practice.duration,practice_feedback_lextale.started,practice_feedback_lextale.stopped,trials_lextale_practice_loop.thisRepN,trials_lextale_practice_loop.thisTrialN,trials_lextale_practice_loop.thisN,trials_lextale_practice_loop.thisIndex,trials_lextale_practice_loop.ran,stim,word,prac_button_real,prac_button_false,check_lextale.started,check_lextale.stopped,trial_lextale.started,trial_lextale.stopped,key_resp_lextale_trial.keys,key_resp_lextale_trial.corr,key_resp_lextale_trial.rt,key_resp_lextale_trial.duration,trials_lextale_loop.thisRepN,trials_lextale_loop.thisTrialN,trials_lextale_loop.thisN,trials_lextale_loop.thisIndex,trials_lextale_loop.ran,button_real,button_false,instructions_eq.started,instructions_eq.stopped,trial_eq.started,trial_eq.stopped,slider_eq_trial.response,trials_eq_loop.thisRepN,trials_eq_loop.thisTrialN,trials_eq_loop.thisN,trials_eq_loop.thisIndex,trials_eq_loop.ran,item,is_test_item,is_distractor,is_agree_score,is_disagree_score,end_exp.started,end_exp.stopped
0.017,3.462,0,0,0,0,1,"In the following task, you are going to hear a series of conversations.", (press the space bar to continue),5e25c1a57d6cd1000cf870b8,Mexican,13 or older,"no, only English or Spanish",no,2025-08-15_09h34.10.599,empathy_intonation_perc,2024.2.4,Win32,60.24096386,5e25c1a57d6cd1000cf870b8,689ed6d1281858f68c932c05,689f35fc37cb2af7d9a54aaf,,,,,,,,,,,,,,,,,,,,,,,,,,,,,,,,,,,,,,,,,,,,,,,,,,,,,,,,,,,,,,,,,,,,,,,,,,,,,,,,,,,,,,,,,,,,,,,,,,,,,,,,,,
3.463,5.983,0,1,1,1,1,It is okay if you don't not 100% understand them!, (press the space bar to continue),5e25c1a57d6cd1000cf870b8,Mexican,13 or older,"no, only English or Spanish",no,2025-08-15_09h34.10.599,empathy_intonation_perc,2024.2.4,Win32,60.24096386,5e25c1a57d6cd1000cf870b8,689ed6d1281858f68c932c05,689f35fc37cb2af7d9a54aaf,,,,,,,,,,,,,,,,,,,,,,,,,,,,,,,,,,,,,,,,,,,,,,,,,,,,,,,,,,,,,,,,,,,,,,,,,,,,,,,,,,,,,,,,,,,,,,,,,,,,,,,,,,
5.987,9.578,0,2,2,2,1,"After, you will read a sentence about the conversation and decide if it's true or false.", (press the space bar to continue),5e25c1a57d6cd1000cf870b8,Mexican,13 or older,"no, only English or Spanish",no,2025-08-15_09h34.10.599,empathy_intonation_perc,2024.2.4,Win32,60.24096386,5e25c1a57d6cd1000cf870b8,689ed6d1281858f68c932c05,689f35fc37cb2af7d9a54aaf,,,,,,,,,,,,,,,,,,,,,,,,,,,,,,,,,,,,,,,,,,,,,,,,,,,,,,,,,,,,,,,,,,,,,,,,,,,,,,,,,,,,,,,,,,,,,,,,,,,,,,,,,,
9.582,12.124,0,3,3,3,1,"If it's true, press '1' (True) and if it's false press '0' (False).", (press the space bar to continue),5e25c1a57d6cd1000cf870b8,Mexican,13 or older,"no, only English or Spanish",no,2025-08-15_09h34.10.599,empathy_intonation_perc,2024.2.4,Win32,60.24096386,5e25c1a57d6cd1000cf870b8,689ed6d1281858f68c932c05,689f35fc37cb2af7d9a54aaf,,,,,,,,,,,,,,,,,,,,,,,,,,,,,,,,,,,,,,,,,,,,,,,,,,,,,,,,,,,,,,,,,,,,,,,,,,,,,,,,,,,,,,,,,,,,,,,,,,,,,,,,,,
,,,,,,,,,5e25c1a57d6cd1000cf870b8,Mexican,13 or older,"no, only English or Spanish",no,2025-08-15_09h34.10.599,empathy_intonation_perc,2024.2.4,Win32,60.24096386,5e25c1a57d6cd1000cf870b8,689ed6d1281858f68c932c05,689f35fc37cb2af7d9a54aaf,12.138,54.843,0,1,6.614,,,0,0,0,2,1,3,0,The mom already has rice.,./stim/exposure_wavs/pr_stimuli_convo.wav,36,,,,,,,,,,,,,,,,,,,,,,,,,,,,,,,,,,,,,,,,,,,,,,,,,,,,,,,,,,,,,,,,,,,,,,,,,,,,,,,,,,,,,,,,,
,,,,,,,,,5e25c1a57d6cd1000cf870b8,Mexican,13 or older,"no, only English or Spanish",no,2025-08-15_09h34.10.599,empathy_intonation_perc,2024.2.4,Win32,60.24096386,5e25c1a57d6cd1000cf870b8,689ed6d1281858f68c932c05,689f35fc37cb2af7d9a54aaf,54.852,123.24,1,1,8.311,,,0,1,1,1,1,2,1,The mom asked the daughter if she already went to the supermarket.,./stim/exposure_wavs/dr_stimuli_convo.wav,60,,,,,,,,,,,,,,,,,,,,,,,,,,,,,,,,,,,,,,,,,,,,,,,,,,,,,,,,,,,,,,,,,,,,,,,,,,,,,,,,,,,,,,,,,
,,,,,,,,,5e25c1a57d6cd1000cf870b8,Mexican,13 or older,"no, only English or Spanish",no,2025-08-15_09h34.10.599,empathy_intonation_perc,2024.2.4,Win32,60.24096386,5e25c1a57d6cd1000cf870b8,689ed6d1281858f68c932c05,689f35fc37cb2af7d9a54aaf,123.246,181.276,1,1,10.968,,,0,2,2,0,1,1,1,The son asked the mom if Aunt Marina is okay.,./stim/exposure_wavs/ga_stimuli_convo.wav,47,,,,,,,,,,,,,,,,,,,,,,,,,,,,,,,,,,,,,,,,,,,,,,,,,,,,,,,,,,,,,,,,,,,,,,,,,,,,,,,,,,,,,,,,,
,,,,,,,"In the following task you are going to hear a series of utterances. 

  You will decide if the utterances sound like questions or not using your keyboard.", (press the spacebar to continue),5e25c1a57d6cd1000cf870b8,Mexican,13 or older,"no, only English or Spanish",no,2025-08-15_09h34.10.599,empathy_intonation_perc,2024.2.4,Win32,60.24096386,5e25c1a57d6cd1000cf870b8,689ed6d1281858f68c932c05,689f35fc37cb2af7d9a54aaf,,,,,,,,,,,,,,,,,,181.293,188.625,0,0,0,0,1,,,,,,,,,,,,,,,,,,,,,,,,,,,,,,,,,,,,,,,,,,,,,,,,,,,,,,,,,,,,,,,,,,,,,,,,,,,,,,,,,,
,,,,,,,"If you believe the utterance is a question, type '1' (for 'yes') and if you do not 
  believe it is a question type '0' (for 'no').

  Let's practice a bit...", (press the spacebar to continue),5e25c1a57d6cd1000cf870b8,Mexican,13 or older,"no, only English or Spanish",no,2025-08-15_09h34.10.599,empathy_intonation_perc,2024.2.4,Win32,60.24096386,5e25c1a57d6cd1000cf870b8,689ed6d1281858f68c932c05,689f35fc37cb2af7d9a54aaf,,,,,,,,,,,,,,,,,,188.63,197.73,0,1,1,1,1,,,,,,,,,,,,,,,,,,,,,,,,,,,,,,,,,,,,,,,,,,,,,,,,,,,,,,,,,,,,,,,,,,,,,,,,,,,,,,,,,,
,,,,,,,,,5e25c1a57d6cd1000cf870b8,Mexican,13 or older,"no, only English or Spanish",no,2025-08-15_09h34.10.599,empathy_intonation_perc,2024.2.4,Win32,60.24096386,5e25c1a57d6cd1000cf870b8,689ed6d1281858f68c932c05,689f35fc37cb2af7d9a54aaf,,,,,,,,,,,,,,1,,./stim/wavs/castilian_question_filler_Mi-esposo-conoce-al-chico.wav,,,,,,,,,197.753,201.988,1,1,3.713,,0,0,0,0,1,,,,,,,,,,,,,,,,,,,,,,,,,,,,,,,,,,,,,,,,,,,,,,,,,,,,,,,,,,,,,,,,,,,,,,,
,,,,,,,,,5e25c1a57d6cd1000cf870b8,Mexican,13 or older,"no, only English or Spanish",no,2025-08-15_09h34.10.599,empathy_intonation_perc,2024.2.4,Win32,60.24096386,5e25c1a57d6cd1000cf870b8,689ed6d1281858f68c932c05,689f35fc37cb2af7d9a54aaf,,,,,,,,,,,,,,0,,./stim/wavs/andalusian_statement_filler_Alberto-nunca-se-afeita.wav,,,,,,,,,201.992,205.851,0,1,3.334,,0,1,1,5,1,,,,,,,,,,,,,,,,,,,,,,,,,,,,,,,,,,,,,,,,,,,,,,,,,,,,,,,,,,,,,,,,,,,,,,,
,,,,,,,,,5e25c1a57d6cd1000cf870b8,Mexican,13 or older,"no, only English or Spanish",no,2025-08-15_09h34.10.599,empathy_intonation_perc,2024.2.4,Win32,60.24096386,5e25c1a57d6cd1000cf870b8,689ed6d1281858f68c932c05,689f35fc37cb2af7d9a54aaf,,,,,,,,,,,,,,1,,./stim/wavs/chilean_question_filler_Mi-padre-cantaba-bien.wav,,,,,,,,,205.854,209.094,1,1,2.716,,0,2,2,2,1,,,,,,,,,,,,,,,,,,,,,,,,,,,,,,,,,,,,,,,,,,,,,,,,,,,,,,,,,,,,,,,,,,,,,,,
,,,,,,,,,5e25c1a57d6cd1000cf870b8,Mexican,13 or older,"no, only English or Spanish",no,2025-08-15_09h34.10.599,empathy_intonation_perc,2024.2.4,Win32,60.24096386,5e25c1a57d6cd1000cf870b8,689ed6d1281858f68c932c05,689f35fc37cb2af7d9a54aaf,,,,,,,,,,,,,,0,,./stim/wavs/peruvian_statement_filler_El-nino-habla-con-su-madre.wav,,,,,,,,,209.096,214.355,0,1,4.731,,0,3,3,6,1,,,,,,,,,,,,,,,,,,,,,,,,,,,,,,,,,,,,,,,,,,,,,,,,,,,,,,,,,,,,,,,,,,,,,,,
,,,,,,,,,5e25c1a57d6cd1000cf870b8,Mexican,13 or older,"no, only English or Spanish",no,2025-08-15_09h34.10.599,empathy_intonation_perc,2024.2.4,Win32,60.24096386,5e25c1a57d6cd1000cf870b8,689ed6d1281858f68c932c05,689f35fc37cb2af7d9a54aaf,,,,,,,,,,,,,,1,,./stim/wavs/argentine_question_filler_Mi-vecino-habla-mucho.wav,,,,,,,,,214.357,217.796,1,1,2.913,,0,4,4,1,1,,,,,,,,,,,,,,,,,,,,,,,,,,,,,,,,,,,,,,,,,,,,,,,,,,,,,,,,,,,,,,,,,,,,,,,
,,,,,,,,,5e25c1a57d6cd1000cf870b8,Mexican,13 or older,"no, only English or Spanish",no,2025-08-15_09h34.10.599,empathy_intonation_perc,2024.2.4,Win32,60.24096386,5e25c1a57d6cd1000cf870b8,689ed6d1281858f68c932c05,689f35fc37cb2af7d9a54aaf,,,,,,,,,,,,,,1,,./stim/wavs/mexican_question_filler_Felipe-no-tiene-contrasena.wav,,,,,,,,,217.8,222.04,1,1,3.711,,0,5,5,3,1,,,,,,,,,,,,,,,,,,,,,,,,,,,,,,,,,,,,,,,,,,,,,,,,,,,,,,,,,,,,,,,,,,,,,,,
,,,,,,,,,5e25c1a57d6cd1000cf870b8,Mexican,13 or older,"no, only English or Spanish",no,2025-08-15_09h34.10.599,empathy_intonation_perc,2024.2.4,Win32,60.24096386,5e25c1a57d6cd1000cf870b8,689ed6d1281858f68c932c05,689f35fc37cb2af7d9a54aaf,,,,,,,,,,,,,,0,,./stim/wavs/cuban_statement_filler_Cocinabas-por-la-noche.wav,,,,,,,,,222.043,229.031,0,1,6.459,,0,6,6,4,1,,,,,,,,,,,,,,,,,,,,,,,,,,,,,,,,,,,,,,,,,,,,,,,,,,,,,,,,,,,,,,,,,,,,,,,
,,,,,,,,,5e25c1a57d6cd1000cf870b8,Mexican,13 or older,"no, only English or Spanish",no,2025-08-15_09h34.10.599,empathy_intonation_perc,2024.2.4,Win32,60.24096386,5e25c1a57d6cd1000cf870b8,689ed6d1281858f68c932c05,689f35fc37cb2af7d9a54aaf,,,,,,,,,,,,,,0,,./stim/wavs/puertorican_statement_filler_La-nina-pinta-con-su-amiga.wav,,,,,,,,,229.038,233.097,0,1,3.536,,0,7,7,7,1,,,,,,,,,,,,,,,,,,,,,,,,,,,,,,,,,,,,,,,,,,,,,,,,,,,,,,,,,,,,,,,,,,,,,,,
,,,,,,,,,5e25c1a57d6cd1000cf870b8,Mexican,13 or older,"no, only English or Spanish",no,2025-08-15_09h34.10.599,empathy_intonation_perc,2024.2.4,Win32,60.24096386,5e25c1a57d6cd1000cf870b8,689ed6d1281858f68c932c05,689f35fc37cb2af7d9a54aaf,,,,,,,,,,,,,,,,,,,,,,,,,,,,,,,,,,,,233.097,237.439,,,,,,,,,,,,,,,,,,,,,,,,,,,,,,,,,,,,,,,,,,,,,,,,,,,,,,,,,,,,,,,,,,,,,
,,,,,,,,,5e25c1a57d6cd1000cf870b8,Mexican,13 or older,"no, only English or Spanish",no,2025-08-15_09h34.10.599,empathy_intonation_perc,2024.2.4,Win32,60.24096386,5e25c1a57d6cd1000cf870b8,689ed6d1281858f68c932c05,689f35fc37cb2af7d9a54aaf,,,,,,,,,,,,,30,1,,./stim/wavs/cuban_mismatch_interrogative-total-yn_El-hombre-mira-la-luna.wav,,,,,,,,,,,,,,,,,,,,,,237.481,240.985,1,1,2.974,,0,0,0,29,1,1,cuban,,,,,,,,,,,,,,,,,,,,,,,,,,,,,,,,,,,,,,,,,,,,,,,,,,,,,,,,
,,,,,,,,,5e25c1a57d6cd1000cf870b8,Mexican,13 or older,"no, only English or Spanish",no,2025-08-15_09h34.10.599,empathy_intonation_perc,2024.2.4,Win32,60.24096386,5e25c1a57d6cd1000cf870b8,689ed6d1281858f68c932c05,689f35fc37cb2af7d9a54aaf,,,,,,,,,,,,,85,0,,./stim/wavs/puertorican_mismatch_declarative-broad-focus_El-hombre-mira-la-luna.wav,,,,,,,,,,,,,,,,,,,,,,240.99,244.707,0,1,3.203,,0,1,1,84,1,0,puertorican,,,,,,,,,,,,,,,,,,,,,,,,,,,,,,,,,,,,,,,,,,,,,,,,,,,,,,,,
,,,,,,,,,5e25c1a57d6cd1000cf870b8,Mexican,13 or older,"no, only English or Spanish",no,2025-08-15_09h34.10.599,empathy_intonation_perc,2024.2.4,Win32,60.24096386,5e25c1a57d6cd1000cf870b8,689ed6d1281858f68c932c05,689f35fc37cb2af7d9a54aaf,,,,,,,,,,,,,41,1,,./stim/wavs/puertorican_mismatch_interrogative-total-yn_El-nino-oye-el-rio.wav,,,,,,,,,,,,,,,,,,,,,,244.71,247.316,1,1,2.081,,0,2,2,40,1,1,puertorican,,,,,,,,,,,,,,,,,,,,,,,,,,,,,,,,,,,,,,,,,,,,,,,,,,,,,,,,
,,,,,,,,,5e25c1a57d6cd1000cf870b8,Mexican,13 or older,"no, only English or Spanish",no,2025-08-15_09h34.10.599,empathy_intonation_perc,2024.2.4,Win32,60.24096386,5e25c1a57d6cd1000cf870b8,689ed6d1281858f68c932c05,689f35fc37cb2af7d9a54aaf,,,,,,,,,,,,,27,1,,./stim/wavs/castilian_mismatch_interrogative-total-yn_Mi-madre-come-la-fruta.wav,,,,,,,,,,,,,,,,,,,,,,247.317,251.18,1,1,3.346,,0,3,3,26,1,0,castilian,,,,,,,,,,,,,,,,,,,,,,,,,,,,,,,,,,,,,,,,,,,,,,,,,,,,,,,,
,,,,,,,,,5e25c1a57d6cd1000cf870b8,Mexican,13 or older,"no, only English or Spanish",no,2025-08-15_09h34.10.599,empathy_intonation_perc,2024.2.4,Win32,60.24096386,5e25c1a57d6cd1000cf870b8,689ed6d1281858f68c932c05,689f35fc37cb2af7d9a54aaf,,,,,,,,,,,,,61,0,,./stim/wavs/mexican_match_declarative-broad-focus_Mariano-habla-del-tiempo.wav,,,,,,,,,,,,,,,,,,,,,,251.184,255.109,0,1,3.397,,0,4,4,60,1,0,mexican,,,,,,,,,,,,,,,,,,,,,,,,,,,,,,,,,,,,,,,,,,,,,,,,,,,,,,,,
,,,,,,,,,5e25c1a57d6cd1000cf870b8,Mexican,13 or older,"no, only English or Spanish",no,2025-08-15_09h34.10.599,empathy_intonation_perc,2024.2.4,Win32,60.24096386,5e25c1a57d6cd1000cf870b8,689ed6d1281858f68c932c05,689f35fc37cb2af7d9a54aaf,,,,,,,,,,,,,67,0,,./stim/wavs/puertorican_match_declarative-broad-focus_Manuela-vende-el-carro.wav,,,,,,,,,,,,,,,,,,,,,,255.114,257.371,0,1,1.732,,0,5,5,66,1,0,puertorican,,,,,,,,,,,,,,,,,,,,,,,,,,,,,,,,,,,,,,,,,,,,,,,,,,,,,,,,
,,,,,,,,,5e25c1a57d6cd1000cf870b8,Mexican,13 or older,"no, only English or Spanish",no,2025-08-15_09h34.10.599,empathy_intonation_perc,2024.2.4,Win32,60.24096386,5e25c1a57d6cd1000cf870b8,689ed6d1281858f68c932c05,689f35fc37cb2af7d9a54aaf,,,,,,,,,,,,,71,0,,./stim/wavs/castilian_mismatch_declarative-broad-focus_La-nina-lava-el-plato.wav,,,,,,,,,,,,,,,,,,,,,,257.374,261.315,0,1,3.413,,0,6,6,70,1,0,castilian,,,,,,,,,,,,,,,,,,,,,,,,,,,,,,,,,,,,,,,,,,,,,,,,,,,,,,,,
,,,,,,,,,5e25c1a57d6cd1000cf870b8,Mexican,13 or older,"no, only English or Spanish",no,2025-08-15_09h34.10.599,empathy_intonation_perc,2024.2.4,Win32,60.24096386,5e25c1a57d6cd1000cf870b8,689ed6d1281858f68c932c05,689f35fc37cb2af7d9a54aaf,,,,,,,,,,,,,64,0,,./stim/wavs/puertorican_match_declarative-broad-focus_Daniel-iba-a-Bolivia.wav,,,,,,,,,,,,,,,,,,,,,,261.319,268.17,1,0,6.324,,0,7,7,63,1,0,puertorican,,,,,,,,,,,,,,,,,,,,,,,,,,,,,,,,,,,,,,,,,,,,,,,,,,,,,,,,
,,,,,,,,,5e25c1a57d6cd1000cf870b8,Mexican,13 or older,"no, only English or Spanish",no,2025-08-15_09h34.10.599,empathy_intonation_perc,2024.2.4,Win32,60.24096386,5e25c1a57d6cd1000cf870b8,689ed6d1281858f68c932c05,689f35fc37cb2af7d9a54aaf,,,,,,,,,,,,,73,0,,./stim/wavs/castilian_mismatch_declarative-broad-focus_Mi-tia-odia-la-lluvia.wav,,,,,,,,,,,,,,,,,,,,,,268.175,272.88,0,1,4.181,,0,8,8,72,1,0,castilian,,,,,,,,,,,,,,,,,,,,,,,,,,,,,,,,,,,,,,,,,,,,,,,,,,,,,,,,
,,,,,,,,,5e25c1a57d6cd1000cf870b8,Mexican,13 or older,"no, only English or Spanish",no,2025-08-15_09h34.10.599,empathy_intonation_perc,2024.2.4,Win32,60.24096386,5e25c1a57d6cd1000cf870b8,689ed6d1281858f68c932c05,689f35fc37cb2af7d9a54aaf,,,,,,,,,,,,,35,1,,./stim/wavs/mexican_mismatch_interrogative-total-yn_El-hombre-mira-la-luna.wav,,,,,,,,,,,,,,,,,,,,,,272.883,276.197,0,0,2.788,,0,9,9,34,1,0,mexican,,,,,,,,,,,,,,,,,,,,,,,,,,,,,,,,,,,,,,,,,,,,,,,,,,,,,,,,
,,,,,,,,,5e25c1a57d6cd1000cf870b8,Mexican,13 or older,"no, only English or Spanish",no,2025-08-15_09h34.10.599,empathy_intonation_perc,2024.2.4,Win32,60.24096386,5e25c1a57d6cd1000cf870b8,689ed6d1281858f68c932c05,689f35fc37cb2af7d9a54aaf,,,,,,,,,,,,,70,0,,./stim/wavs/castilian_mismatch_declarative-broad-focus_La-maestra-vive-en-Paris.wav,,,,,,,,,,,,,,,,,,,,,,276.2,280.02,0,1,3.297,,0,10,10,69,1,0,castilian,,,,,,,,,,,,,,,,,,,,,,,,,,,,,,,,,,,,,,,,,,,,,,,,,,,,,,,,
,,,,,,,,,5e25c1a57d6cd1000cf870b8,Mexican,13 or older,"no, only English or Spanish",no,2025-08-15_09h34.10.599,empathy_intonation_perc,2024.2.4,Win32,60.24096386,5e25c1a57d6cd1000cf870b8,689ed6d1281858f68c932c05,689f35fc37cb2af7d9a54aaf,,,,,,,,,,,,,58,0,,./stim/wavs/mexican_match_declarative-broad-focus_Daniel-iba-a-Bolivia.wav,,,,,,,,,,,,,,,,,,,,,,280.023,285.445,1,0,4.893,,0,11,11,57,1,0,mexican,,,,,,,,,,,,,,,,,,,,,,,,,,,,,,,,,,,,,,,,,,,,,,,,,,,,,,,,
,,,,,,,,,5e25c1a57d6cd1000cf870b8,Mexican,13 or older,"no, only English or Spanish",no,2025-08-15_09h34.10.599,empathy_intonation_perc,2024.2.4,Win32,60.24096386,5e25c1a57d6cd1000cf870b8,689ed6d1281858f68c932c05,689f35fc37cb2af7d9a54aaf,,,,,,,,,,,,,52,0,,./stim/wavs/cuban_match_declarative-broad-focus_Daniel-iba-a-Bolivia.wav,,,,,,,,,,,,,,,,,,,,,,285.449,288.94,0,1,2.963,,0,12,12,51,1,0,cuban,,,,,,,,,,,,,,,,,,,,,,,,,,,,,,,,,,,,,,,,,,,,,,,,,,,,,,,,
,,,,,,,,,5e25c1a57d6cd1000cf870b8,Mexican,13 or older,"no, only English or Spanish",no,2025-08-15_09h34.10.599,empathy_intonation_perc,2024.2.4,Win32,60.24096386,5e25c1a57d6cd1000cf870b8,689ed6d1281858f68c932c05,689f35fc37cb2af7d9a54aaf,,,,,,,,,,,,,78,0,,./stim/wavs/cuban_mismatch_declarative-broad-focus_Mi-tia-odia-la-lluvia.wav,,,,,,,,,,,,,,,,,,,,,,288.942,292.204,0,1,2.729,,0,13,13,77,1,0,cuban,,,,,,,,,,,,,,,,,,,,,,,,,,,,,,,,,,,,,,,,,,,,,,,,,,,,,,,,
,,,,,,,,,5e25c1a57d6cd1000cf870b8,Mexican,13 or older,"no, only English or Spanish",no,2025-08-15_09h34.10.599,empathy_intonation_perc,2024.2.4,Win32,60.24096386,5e25c1a57d6cd1000cf870b8,689ed6d1281858f68c932c05,689f35fc37cb2af7d9a54aaf,,,,,,,,,,,,,84,0,,./stim/wavs/puertorican_mismatch_declarative-broad-focus_El-bebe-comia-muy-bien.wav,,,,,,,,,,,,,,,,,,,,,,292.209,294.998,0,1,2.265,,0,14,14,83,1,0,puertorican,,,,,,,,,,,,,,,,,,,,,,,,,,,,,,,,,,,,,,,,,,,,,,,,,,,,,,,,
,,,,,,,,,5e25c1a57d6cd1000cf870b8,Mexican,13 or older,"no, only English or Spanish",no,2025-08-15_09h34.10.599,empathy_intonation_perc,2024.2.4,Win32,60.24096386,5e25c1a57d6cd1000cf870b8,689ed6d1281858f68c932c05,689f35fc37cb2af7d9a54aaf,,,,,,,,,,,,,21,1,,./stim/wavs/puertorican_match_interrogative-total-yn_David-leia-el-libro.wav,,,,,,,,,,,,,,,,,,,,,,295.002,297.565,1,1,2.04,,0,15,15,20,1,1,puertorican,,,,,,,,,,,,,,,,,,,,,,,,,,,,,,,,,,,,,,,,,,,,,,,,,,,,,,,,
,,,,,,,,,5e25c1a57d6cd1000cf870b8,Mexican,13 or older,"no, only English or Spanish",no,2025-08-15_09h34.10.599,empathy_intonation_perc,2024.2.4,Win32,60.24096386,5e25c1a57d6cd1000cf870b8,689ed6d1281858f68c932c05,689f35fc37cb2af7d9a54aaf,,,,,,,,,,,,,56,0,,./stim/wavs/cuban_match_declarative-broad-focus_Marta-abre-el-regalo.wav,,,,,,,,,,,,,,,,,,,,,,297.569,300.176,0,1,2.081,,0,16,16,55,1,0,cuban,,,,,,,,,,,,,,,,,,,,,,,,,,,,,,,,,,,,,,,,,,,,,,,,,,,,,,,,
,,,,,,,,,5e25c1a57d6cd1000cf870b8,Mexican,13 or older,"no, only English or Spanish",no,2025-08-15_09h34.10.599,empathy_intonation_perc,2024.2.4,Win32,60.24096386,5e25c1a57d6cd1000cf870b8,689ed6d1281858f68c932c05,689f35fc37cb2af7d9a54aaf,,,,,,,,,,,,,5,1,,./stim/wavs/castilian_match_interrogative-total-yn_Mariano-habla-del-tiempo.wav,,,,,,,,,,,,,,,,,,,,,,300.179,302.669,1,1,1.964,,0,17,17,4,1,0,castilian,,,,,,,,,,,,,,,,,,,,,,,,,,,,,,,,,,,,,,,,,,,,,,,,,,,,,,,,
,,,,,,,,,5e25c1a57d6cd1000cf870b8,Mexican,13 or older,"no, only English or Spanish",no,2025-08-15_09h34.10.599,empathy_intonation_perc,2024.2.4,Win32,60.24096386,5e25c1a57d6cd1000cf870b8,689ed6d1281858f68c932c05,689f35fc37cb2af7d9a54aaf,,,,,,,,,,,,,14,1,,./stim/wavs/mexican_match_interrogative-total-yn_Daniel-iba-a-Bolivia.wav,,,,,,,,,,,,,,,,,,,,,,302.671,304.75,1,1,1.549,,0,18,18,13,1,0,mexican,,,,,,,,,,,,,,,,,,,,,,,,,,,,,,,,,,,,,,,,,,,,,,,,,,,,,,,,
,,,,,,,,,5e25c1a57d6cd1000cf870b8,Mexican,13 or older,"no, only English or Spanish",no,2025-08-15_09h34.10.599,empathy_intonation_perc,2024.2.4,Win32,60.24096386,5e25c1a57d6cd1000cf870b8,689ed6d1281858f68c932c05,689f35fc37cb2af7d9a54aaf,,,,,,,,,,,,,44,1,,./stim/wavs/puertorican_mismatch_interrogative-total-yn_Mi-madre-come-la-fruta.wav,,,,,,,,,,,,,,,,,,,,,,304.752,307.515,0,0,2.237,,0,19,19,43,1,1,puertorican,,,,,,,,,,,,,,,,,,,,,,,,,,,,,,,,,,,,,,,,,,,,,,,,,,,,,,,,
,,,,,,,,,5e25c1a57d6cd1000cf870b8,Mexican,13 or older,"no, only English or Spanish",no,2025-08-15_09h34.10.599,empathy_intonation_perc,2024.2.4,Win32,60.24096386,5e25c1a57d6cd1000cf870b8,689ed6d1281858f68c932c05,689f35fc37cb2af7d9a54aaf,,,,,,,,,,,,,28,1,,./stim/wavs/castilian_mismatch_interrogative-total-yn_Mi-novio-viene-del-lago.wav,,,,,,,,,,,,,,,,,,,,,,307.516,310.53,0,0,2.491,,0,20,20,27,1,0,castilian,,,,,,,,,,,,,,,,,,,,,,,,,,,,,,,,,,,,,,,,,,,,,,,,,,,,,,,,
,,,,,,,,,5e25c1a57d6cd1000cf870b8,Mexican,13 or older,"no, only English or Spanish",no,2025-08-15_09h34.10.599,empathy_intonation_perc,2024.2.4,Win32,60.24096386,5e25c1a57d6cd1000cf870b8,689ed6d1281858f68c932c05,689f35fc37cb2af7d9a54aaf,,,,,,,,,,,,,25,1,,./stim/wavs/castilian_mismatch_interrogative-total-yn_La-maestra-vive-en-Paris.wav,,,,,,,,,,,,,,,,,,,,,,310.532,314.107,0,0,3.054,,0,21,21,24,1,0,castilian,,,,,,,,,,,,,,,,,,,,,,,,,,,,,,,,,,,,,,,,,,,,,,,,,,,,,,,,
,,,,,,,,,5e25c1a57d6cd1000cf870b8,Mexican,13 or older,"no, only English or Spanish",no,2025-08-15_09h34.10.599,empathy_intonation_perc,2024.2.4,Win32,60.24096386,5e25c1a57d6cd1000cf870b8,689ed6d1281858f68c932c05,689f35fc37cb2af7d9a54aaf,,,,,,,,,,,,,12,1,,./stim/wavs/cuban_match_interrogative-total-yn_Marta-abre-el-regalo.wav,,,,,,,,,,,,,,,,,,,,,,314.11,318.495,0,0,3.862,,0,22,22,11,1,1,cuban,,,,,,,,,,,,,,,,,,,,,,,,,,,,,,,,,,,,,,,,,,,,,,,,,,,,,,,,
,,,,,,,,,5e25c1a57d6cd1000cf870b8,Mexican,13 or older,"no, only English or Spanish",no,2025-08-15_09h34.10.599,empathy_intonation_perc,2024.2.4,Win32,60.24096386,5e25c1a57d6cd1000cf870b8,689ed6d1281858f68c932c05,689f35fc37cb2af7d9a54aaf,,,,,,,,,,,,,69,0,,./stim/wavs/castilian_mismatch_declarative-broad-focus_El-nino-oye-el-rio.wav,,,,,,,,,,,,,,,,,,,,,,318.497,321.092,0,1,2.065,,0,23,23,68,1,0,castilian,,,,,,,,,,,,,,,,,,,,,,,,,,,,,,,,,,,,,,,,,,,,,,,,,,,,,,,,
,,,,,,,,,5e25c1a57d6cd1000cf870b8,Mexican,13 or older,"no, only English or Spanish",no,2025-08-15_09h34.10.599,empathy_intonation_perc,2024.2.4,Win32,60.24096386,5e25c1a57d6cd1000cf870b8,689ed6d1281858f68c932c05,689f35fc37cb2af7d9a54aaf,,,,,,,,,,,,,65,0,,./stim/wavs/puertorican_match_declarative-broad-focus_David-leia-el-libro.wav,,,,,,,,,,,,,,,,,,,,,,321.099,329.064,0,1,7.441,,0,24,24,64,1,0,puertorican,,,,,,,,,,,,,,,,,,,,,,,,,,,,,,,,,,,,,,,,,,,,,,,,,,,,,,,,
,,,,,,,,,5e25c1a57d6cd1000cf870b8,Mexican,13 or older,"no, only English or Spanish",no,2025-08-15_09h34.10.599,empathy_intonation_perc,2024.2.4,Win32,60.24096386,5e25c1a57d6cd1000cf870b8,689ed6d1281858f68c932c05,689f35fc37cb2af7d9a54aaf,,,,,,,,,,,,,79,0,,./stim/wavs/mexican_mismatch_declarative-broad-focus_El-bebe-comia-muy-bien.wav,,,,,,,,,,,,,,,,,,,,,,329.067,332.195,1,0,2.602,,0,25,25,78,1,0,mexican,,,,,,,,,,,,,,,,,,,,,,,,,,,,,,,,,,,,,,,,,,,,,,,,,,,,,,,,
,,,,,,,,,5e25c1a57d6cd1000cf870b8,Mexican,13 or older,"no, only English or Spanish",no,2025-08-15_09h34.10.599,empathy_intonation_perc,2024.2.4,Win32,60.24096386,5e25c1a57d6cd1000cf870b8,689ed6d1281858f68c932c05,689f35fc37cb2af7d9a54aaf,,,,,,,,,,,,,60,0,,./stim/wavs/mexican_match_declarative-broad-focus_Emilio-ama-la-marcha.wav,,,,,,,,,,,,,,,,,,,,,,332.198,335.653,0,1,2.931,,0,26,26,59,1,0,mexican,,,,,,,,,,,,,,,,,,,,,,,,,,,,,,,,,,,,,,,,,,,,,,,,,,,,,,,,
,,,,,,,,,5e25c1a57d6cd1000cf870b8,Mexican,13 or older,"no, only English or Spanish",no,2025-08-15_09h34.10.599,empathy_intonation_perc,2024.2.4,Win32,60.24096386,5e25c1a57d6cd1000cf870b8,689ed6d1281858f68c932c05,689f35fc37cb2af7d9a54aaf,,,,,,,,,,,,,23,1,,./stim/wavs/puertorican_match_interrogative-total-yn_Manuela-vende-el-carro.wav,,,,,,,,,,,,,,,,,,,,,,335.655,344.489,1,1,8.305,,0,27,27,22,1,1,puertorican,,,,,,,,,,,,,,,,,,,,,,,,,,,,,,,,,,,,,,,,,,,,,,,,,,,,,,,,
,,,,,,,,,5e25c1a57d6cd1000cf870b8,Mexican,13 or older,"no, only English or Spanish",no,2025-08-15_09h34.10.599,empathy_intonation_perc,2024.2.4,Win32,60.24096386,5e25c1a57d6cd1000cf870b8,689ed6d1281858f68c932c05,689f35fc37cb2af7d9a54aaf,,,,,,,,,,,,,87,0,,./stim/wavs/puertorican_mismatch_declarative-broad-focus_La-maestra-vive-en-Paris.wav,,,,,,,,,,,,,,,,,,,,,,344.495,347.802,0,1,2.78,,0,28,28,86,1,0,puertorican,,,,,,,,,,,,,,,,,,,,,,,,,,,,,,,,,,,,,,,,,,,,,,,,,,,,,,,,
,,,,,,,,,5e25c1a57d6cd1000cf870b8,Mexican,13 or older,"no, only English or Spanish",no,2025-08-15_09h34.10.599,empathy_intonation_perc,2024.2.4,Win32,60.24096386,5e25c1a57d6cd1000cf870b8,689ed6d1281858f68c932c05,689f35fc37cb2af7d9a54aaf,,,,,,,,,,,,,22,1,,./stim/wavs/puertorican_match_interrogative-total-yn_Emilio-ama-la-marcha.wav,,,,,,,,,,,,,,,,,,,,,,347.804,350.846,1,1,2.514,,0,29,29,21,1,1,puertorican,,,,,,,,,,,,,,,,,,,,,,,,,,,,,,,,,,,,,,,,,,,,,,,,,,,,,,,,
,,,,,,,,,5e25c1a57d6cd1000cf870b8,Mexican,13 or older,"no, only English or Spanish",no,2025-08-15_09h34.10.599,empathy_intonation_perc,2024.2.4,Win32,60.24096386,5e25c1a57d6cd1000cf870b8,689ed6d1281858f68c932c05,689f35fc37cb2af7d9a54aaf,,,,,,,,,,,,,1,1,,./stim/wavs/castilian_match_interrogative-total-yn_David-leia-el-libro.wav,,,,,,,,,,,,,,,,,,,,,,350.849,353.693,1,1,2.314,,0,30,30,0,1,0,castilian,,,,,,,,,,,,,,,,,,,,,,,,,,,,,,,,,,,,,,,,,,,,,,,,,,,,,,,,
,,,,,,,,,5e25c1a57d6cd1000cf870b8,Mexican,13 or older,"no, only English or Spanish",no,2025-08-15_09h34.10.599,empathy_intonation_perc,2024.2.4,Win32,60.24096386,5e25c1a57d6cd1000cf870b8,689ed6d1281858f68c932c05,689f35fc37cb2af7d9a54aaf,,,,,,,,,,,,,75,0,,./stim/wavs/cuban_mismatch_declarative-broad-focus_El-hombre-mira-la-luna.wav,,,,,,,,,,,,,,,,,,,,,,353.698,357.72,0,1,3.496,,0,31,31,74,1,0,cuban,,,,,,,,,,,,,,,,,,,,,,,,,,,,,,,,,,,,,,,,,,,,,,,,,,,,,,,,
,,,,,,,,,5e25c1a57d6cd1000cf870b8,Mexican,13 or older,"no, only English or Spanish",no,2025-08-15_09h34.10.599,empathy_intonation_perc,2024.2.4,Win32,60.24096386,5e25c1a57d6cd1000cf870b8,689ed6d1281858f68c932c05,689f35fc37cb2af7d9a54aaf,,,,,,,,,,,,,2,1,,./stim/wavs/castilian_match_interrogative-total-yn_Emilio-ama-la-marcha.wav,,,,,,,,,,,,,,,,,,,,,,357.724,360.349,0,0,2.102,,0,32,32,1,1,0,castilian,,,,,,,,,,,,,,,,,,,,,,,,,,,,,,,,,,,,,,,,,,,,,,,,,,,,,,,,
,,,,,,,,,5e25c1a57d6cd1000cf870b8,Mexican,13 or older,"no, only English or Spanish",no,2025-08-15_09h34.10.599,empathy_intonation_perc,2024.2.4,Win32,60.24096386,5e25c1a57d6cd1000cf870b8,689ed6d1281858f68c932c05,689f35fc37cb2af7d9a54aaf,,,,,,,,,,,,,50,0,,./stim/wavs/castilian_match_declarative-broad-focus_Marta-abre-el-regalo.wav,,,,,,,,,,,,,,,,,,,,,,360.353,362.695,0,1,1.816,,0,33,33,49,1,0,castilian,,,,,,,,,,,,,,,,,,,,,,,,,,,,,,,,,,,,,,,,,,,,,,,,,,,,,,,,
,,,,,,,,,5e25c1a57d6cd1000cf870b8,Mexican,13 or older,"no, only English or Spanish",no,2025-08-15_09h34.10.599,empathy_intonation_perc,2024.2.4,Win32,60.24096386,5e25c1a57d6cd1000cf870b8,689ed6d1281858f68c932c05,689f35fc37cb2af7d9a54aaf,,,,,,,,,,,,,47,0,,./stim/wavs/castilian_match_declarative-broad-focus_Manuela-vende-el-carro.wav,,,,,,,,,,,,,,,,,,,,,,362.699,366.373,0,1,3.145,,0,34,34,46,1,0,castilian,,,,,,,,,,,,,,,,,,,,,,,,,,,,,,,,,,,,,,,,,,,,,,,,,,,,,,,,
,,,,,,,,,5e25c1a57d6cd1000cf870b8,Mexican,13 or older,"no, only English or Spanish",no,2025-08-15_09h34.10.599,empathy_intonation_perc,2024.2.4,Win32,60.24096386,5e25c1a57d6cd1000cf870b8,689ed6d1281858f68c932c05,689f35fc37cb2af7d9a54aaf,,,,,,,,,,,,,8,1,,./stim/wavs/cuban_match_interrogative-total-yn_Daniel-iba-a-Bolivia.wav,,,,,,,,,,,,,,,,,,,,,,366.376,368.869,1,1,1.965,,0,35,35,7,1,1,cuban,,,,,,,,,,,,,,,,,,,,,,,,,,,,,,,,,,,,,,,,,,,,,,,,,,,,,,,,
,,,,,,,,,5e25c1a57d6cd1000cf870b8,Mexican,13 or older,"no, only English or Spanish",no,2025-08-15_09h34.10.599,empathy_intonation_perc,2024.2.4,Win32,60.24096386,5e25c1a57d6cd1000cf870b8,689ed6d1281858f68c932c05,689f35fc37cb2af7d9a54aaf,,,,,,,,,,,,,17,1,,./stim/wavs/mexican_match_interrogative-total-yn_Mariano-habla-del-tiempo.wav,,,,,,,,,,,,,,,,,,,,,,368.871,397.294,0,0,27.894,,0,36,36,16,1,0,mexican,,,,,,,,,,,,,,,,,,,,,,,,,,,,,,,,,,,,,,,,,,,,,,,,,,,,,,,,
,,,,,,,,,5e25c1a57d6cd1000cf870b8,Mexican,13 or older,"no, only English or Spanish",no,2025-08-15_09h34.10.599,empathy_intonation_perc,2024.2.4,Win32,60.24096386,5e25c1a57d6cd1000cf870b8,689ed6d1281858f68c932c05,689f35fc37cb2af7d9a54aaf,,,,,,,,,,,,,68,0,,./stim/wavs/puertorican_match_declarative-broad-focus_Maria-bebe-el-vino.wav,,,,,,,,,,,,,,,,,,,,,,397.302,399.242,0,1,1.418,,0,37,37,67,1,0,puertorican,,,,,,,,,,,,,,,,,,,,,,,,,,,,,,,,,,,,,,,,,,,,,,,,,,,,,,,,
,,,,,,,,,5e25c1a57d6cd1000cf870b8,Mexican,13 or older,"no, only English or Spanish",no,2025-08-15_09h34.10.599,empathy_intonation_perc,2024.2.4,Win32,60.24096386,5e25c1a57d6cd1000cf870b8,689ed6d1281858f68c932c05,689f35fc37cb2af7d9a54aaf,,,,,,,,,,,,,24,1,,./stim/wavs/puertorican_match_interrogative-total-yn_Maria-bebe-el-vino.wav,,,,,,,,,,,,,,,,,,,,,,399.245,401.82,1,1,2.048,,0,38,38,23,1,1,puertorican,,,,,,,,,,,,,,,,,,,,,,,,,,,,,,,,,,,,,,,,,,,,,,,,,,,,,,,,
,,,,,,,,,5e25c1a57d6cd1000cf870b8,Mexican,13 or older,"no, only English or Spanish",no,2025-08-15_09h34.10.599,empathy_intonation_perc,2024.2.4,Win32,60.24096386,5e25c1a57d6cd1000cf870b8,689ed6d1281858f68c932c05,689f35fc37cb2af7d9a54aaf,,,,,,,,,,,,,59,0,,./stim/wavs/mexican_match_declarative-broad-focus_David-leia-el-libro.wav,,,,,,,,,,,,,,,,,,,,,,401.823,404.632,0,1,2.282,,0,39,39,58,1,0,mexican,,,,,,,,,,,,,,,,,,,,,,,,,,,,,,,,,,,,,,,,,,,,,,,,,,,,,,,,
,,,,,,,,,5e25c1a57d6cd1000cf870b8,Mexican,13 or older,"no, only English or Spanish",no,2025-08-15_09h34.10.599,empathy_intonation_perc,2024.2.4,Win32,60.24096386,5e25c1a57d6cd1000cf870b8,689ed6d1281858f68c932c05,689f35fc37cb2af7d9a54aaf,,,,,,,,,,,,,63,0,,./stim/wavs/puertorican_match_declarative-broad-focus_Ana-lleva-el-abrigo.wav,,,,,,,,,,,,,,,,,,,,,,404.634,407.68,0,1,2.518,,0,40,40,62,1,0,puertorican,,,,,,,,,,,,,,,,,,,,,,,,,,,,,,,,,,,,,,,,,,,,,,,,,,,,,,,,
,,,,,,,,,5e25c1a57d6cd1000cf870b8,Mexican,13 or older,"no, only English or Spanish",no,2025-08-15_09h34.10.599,empathy_intonation_perc,2024.2.4,Win32,60.24096386,5e25c1a57d6cd1000cf870b8,689ed6d1281858f68c932c05,689f35fc37cb2af7d9a54aaf,,,,,,,,,,,,,11,1,,./stim/wavs/cuban_match_interrogative-total-yn_Mariano-habla-del-tiempo.wav,,,,,,,,,,,,,,,,,,,,,,407.682,411.172,1,1,2.963,,0,41,41,10,1,1,cuban,,,,,,,,,,,,,,,,,,,,,,,,,,,,,,,,,,,,,,,,,,,,,,,,,,,,,,,,
,,,,,,,,,5e25c1a57d6cd1000cf870b8,Mexican,13 or older,"no, only English or Spanish",no,2025-08-15_09h34.10.599,empathy_intonation_perc,2024.2.4,Win32,60.24096386,5e25c1a57d6cd1000cf870b8,689ed6d1281858f68c932c05,689f35fc37cb2af7d9a54aaf,,,,,,,,,,,,,9,1,,./stim/wavs/cuban_match_interrogative-total-yn_Manuela-vende-el-carro.wav,,,,,,,,,,,,,,,,,,,,,,411.175,414.35,0,0,2.646,,0,42,42,8,1,1,cuban,,,,,,,,,,,,,,,,,,,,,,,,,,,,,,,,,,,,,,,,,,,,,,,,,,,,,,,,
,,,,,,,,,5e25c1a57d6cd1000cf870b8,Mexican,13 or older,"no, only English or Spanish",no,2025-08-15_09h34.10.599,empathy_intonation_perc,2024.2.4,Win32,60.24096386,5e25c1a57d6cd1000cf870b8,689ed6d1281858f68c932c05,689f35fc37cb2af7d9a54aaf,,,,,,,,,,,,,10,1,,./stim/wavs/cuban_match_interrogative-total-yn_Maria-bebe-el-vino.wav,,,,,,,,,,,,,,,,,,,,,,414.352,417.063,1,1,2.183,,0,43,43,9,1,1,cuban,,,,,,,,,,,,,,,,,,,,,,,,,,,,,,,,,,,,,,,,,,,,,,,,,,,,,,,,
,,,,,,,,,5e25c1a57d6cd1000cf870b8,Mexican,13 or older,"no, only English or Spanish",no,2025-08-15_09h34.10.599,empathy_intonation_perc,2024.2.4,Win32,60.24096386,5e25c1a57d6cd1000cf870b8,689ed6d1281858f68c932c05,689f35fc37cb2af7d9a54aaf,,,,,,,,,,,,,51,0,,./stim/wavs/cuban_match_declarative-broad-focus_Ana-lleva-el-abrigo.wav,,,,,,,,,,,,,,,,,,,,,,417.064,427.881,1,0,10.287,,0,44,44,50,1,0,cuban,,,,,,,,,,,,,,,,,,,,,,,,,,,,,,,,,,,,,,,,,,,,,,,,,,,,,,,,
,,,,,,,,,5e25c1a57d6cd1000cf870b8,Mexican,13 or older,"no, only English or Spanish",no,2025-08-15_09h34.10.599,empathy_intonation_perc,2024.2.4,Win32,60.24096386,5e25c1a57d6cd1000cf870b8,689ed6d1281858f68c932c05,689f35fc37cb2af7d9a54aaf,,,,,,,,,,,,,53,0,,./stim/wavs/cuban_match_declarative-broad-focus_Manuela-vende-el-carro.wav,,,,,,,,,,,,,,,,,,,,,,427.888,430.511,0,1,2.097,,0,45,45,52,1,0,cuban,,,,,,,,,,,,,,,,,,,,,,,,,,,,,,,,,,,,,,,,,,,,,,,,,,,,,,,,
,,,,,,,,,5e25c1a57d6cd1000cf870b8,Mexican,13 or older,"no, only English or Spanish",no,2025-08-15_09h34.10.599,empathy_intonation_perc,2024.2.4,Win32,60.24096386,5e25c1a57d6cd1000cf870b8,689ed6d1281858f68c932c05,689f35fc37cb2af7d9a54aaf,,,,,,,,,,,,,40,1,,./stim/wavs/puertorican_mismatch_interrogative-total-yn_El-hombre-mira-la-luna.wav,,,,,,,,,,,,,,,,,,,,,,430.515,432.756,1,1,1.714,,0,46,46,39,1,1,puertorican,,,,,,,,,,,,,,,,,,,,,,,,,,,,,,,,,,,,,,,,,,,,,,,,,,,,,,,,
,,,,,,,,,5e25c1a57d6cd1000cf870b8,Mexican,13 or older,"no, only English or Spanish",no,2025-08-15_09h34.10.599,empathy_intonation_perc,2024.2.4,Win32,60.24096386,5e25c1a57d6cd1000cf870b8,689ed6d1281858f68c932c05,689f35fc37cb2af7d9a54aaf,,,,,,,,,,,,,26,1,,./stim/wavs/castilian_mismatch_interrogative-total-yn_La-nina-lava-el-plato.wav,,,,,,,,,,,,,,,,,,,,,,432.762,434.836,1,1,1.549,,0,47,47,25,1,0,castilian,,,,,,,,,,,,,,,,,,,,,,,,,,,,,,,,,,,,,,,,,,,,,,,,,,,,,,,,
,,,,,,,,,5e25c1a57d6cd1000cf870b8,Mexican,13 or older,"no, only English or Spanish",no,2025-08-15_09h34.10.599,empathy_intonation_perc,2024.2.4,Win32,60.24096386,5e25c1a57d6cd1000cf870b8,689ed6d1281858f68c932c05,689f35fc37cb2af7d9a54aaf,,,,,,,,,,,,,18,1,,./stim/wavs/mexican_match_interrogative-total-yn_Marta-abre-el-regalo.wav,,,,,,,,,,,,,,,,,,,,,,434.84,438.731,0,0,3.364,,0,48,48,17,1,0,mexican,,,,,,,,,,,,,,,,,,,,,,,,,,,,,,,,,,,,,,,,,,,,,,,,,,,,,,,,
,,,,,,,,,5e25c1a57d6cd1000cf870b8,Mexican,13 or older,"no, only English or Spanish",no,2025-08-15_09h34.10.599,empathy_intonation_perc,2024.2.4,Win32,60.24096386,5e25c1a57d6cd1000cf870b8,689ed6d1281858f68c932c05,689f35fc37cb2af7d9a54aaf,,,,,,,,,,,,,39,1,,./stim/wavs/mexican_mismatch_interrogative-total-yn_Mi-tia-odia-la-lluvia.wav,,,,,,,,,,,,,,,,,,,,,,438.732,441.51,1,1,2.247,,0,49,49,38,1,0,mexican,,,,,,,,,,,,,,,,,,,,,,,,,,,,,,,,,,,,,,,,,,,,,,,,,,,,,,,,
,,,,,,,,,5e25c1a57d6cd1000cf870b8,Mexican,13 or older,"no, only English or Spanish",no,2025-08-15_09h34.10.599,empathy_intonation_perc,2024.2.4,Win32,60.24096386,5e25c1a57d6cd1000cf870b8,689ed6d1281858f68c932c05,689f35fc37cb2af7d9a54aaf,,,,,,,,,,,,,66,0,,./stim/wavs/puertorican_match_declarative-broad-focus_Emilio-ama-la-marcha.wav,,,,,,,,,,,,,,,,,,,,,,441.512,444.938,0,1,2.897,,0,50,50,65,1,0,puertorican,,,,,,,,,,,,,,,,,,,,,,,,,,,,,,,,,,,,,,,,,,,,,,,,,,,,,,,,
,,,,,,,,,5e25c1a57d6cd1000cf870b8,Mexican,13 or older,"no, only English or Spanish",no,2025-08-15_09h34.10.599,empathy_intonation_perc,2024.2.4,Win32,60.24096386,5e25c1a57d6cd1000cf870b8,689ed6d1281858f68c932c05,689f35fc37cb2af7d9a54aaf,,,,,,,,,,,,,57,0,,./stim/wavs/mexican_match_declarative-broad-focus_Ana-lleva-el-abrigo.wav,,,,,,,,,,,,,,,,,,,,,,444.94,447.005,0,1,1.533,,0,51,51,56,1,0,mexican,,,,,,,,,,,,,,,,,,,,,,,,,,,,,,,,,,,,,,,,,,,,,,,,,,,,,,,,
,,,,,,,,,5e25c1a57d6cd1000cf870b8,Mexican,13 or older,"no, only English or Spanish",no,2025-08-15_09h34.10.599,empathy_intonation_perc,2024.2.4,Win32,60.24096386,5e25c1a57d6cd1000cf870b8,689ed6d1281858f68c932c05,689f35fc37cb2af7d9a54aaf,,,,,,,,,,,,,3,1,,./stim/wavs/castilian_match_interrogative-total-yn_Manuela-vende-el-carro.wav,,,,,,,,,,,,,,,,,,,,,,447.009,449.148,1,1,1.616,,0,52,52,2,1,0,castilian,,,,,,,,,,,,,,,,,,,,,,,,,,,,,,,,,,,,,,,,,,,,,,,,,,,,,,,,
,,,,,,,,,5e25c1a57d6cd1000cf870b8,Mexican,13 or older,"no, only English or Spanish",no,2025-08-15_09h34.10.599,empathy_intonation_perc,2024.2.4,Win32,60.24096386,5e25c1a57d6cd1000cf870b8,689ed6d1281858f68c932c05,689f35fc37cb2af7d9a54aaf,,,,,,,,,,,,,19,1,,./stim/wavs/puertorican_match_interrogative-total-yn_Ana-lleva-el-abrigo.wav,,,,,,,,,,,,,,,,,,,,,,449.149,451.896,0,0,2.214,,0,53,53,18,1,1,puertorican,,,,,,,,,,,,,,,,,,,,,,,,,,,,,,,,,,,,,,,,,,,,,,,,,,,,,,,,
,,,,,,,,,5e25c1a57d6cd1000cf870b8,Mexican,13 or older,"no, only English or Spanish",no,2025-08-15_09h34.10.599,empathy_intonation_perc,2024.2.4,Win32,60.24096386,5e25c1a57d6cd1000cf870b8,689ed6d1281858f68c932c05,689f35fc37cb2af7d9a54aaf,,,,,,,,,,,,,31,1,,./stim/wavs/cuban_mismatch_interrogative-total-yn_El-nino-oye-el-rio.wav,,,,,,,,,,,,,,,,,,,,,,451.902,454.99,0,0,2.564,,0,54,54,30,1,1,cuban,,,,,,,,,,,,,,,,,,,,,,,,,,,,,,,,,,,,,,,,,,,,,,,,,,,,,,,,
,,,,,,,,,5e25c1a57d6cd1000cf870b8,Mexican,13 or older,"no, only English or Spanish",no,2025-08-15_09h34.10.599,empathy_intonation_perc,2024.2.4,Win32,60.24096386,5e25c1a57d6cd1000cf870b8,689ed6d1281858f68c932c05,689f35fc37cb2af7d9a54aaf,,,,,,,,,,,,,7,1,,./stim/wavs/cuban_match_interrogative-total-yn_Ana-lleva-el-abrigo.wav,,,,,,,,,,,,,,,,,,,,,,454.993,461.097,0,0,5.575,,0,55,55,6,1,1,cuban,,,,,,,,,,,,,,,,,,,,,,,,,,,,,,,,,,,,,,,,,,,,,,,,,,,,,,,,
,,,,,,,,,5e25c1a57d6cd1000cf870b8,Mexican,13 or older,"no, only English or Spanish",no,2025-08-15_09h34.10.599,empathy_intonation_perc,2024.2.4,Win32,60.24096386,5e25c1a57d6cd1000cf870b8,689ed6d1281858f68c932c05,689f35fc37cb2af7d9a54aaf,,,,,,,,,,,,,80,0,,./stim/wavs/mexican_mismatch_declarative-broad-focus_El-hombre-mira-la-luna.wav,,,,,,,,,,,,,,,,,,,,,,461.101,463.793,0,1,2.164,,0,56,56,79,1,0,mexican,,,,,,,,,,,,,,,,,,,,,,,,,,,,,,,,,,,,,,,,,,,,,,,,,,,,,,,,
,,,,,,,,,5e25c1a57d6cd1000cf870b8,Mexican,13 or older,"no, only English or Spanish",no,2025-08-15_09h34.10.599,empathy_intonation_perc,2024.2.4,Win32,60.24096386,5e25c1a57d6cd1000cf870b8,689ed6d1281858f68c932c05,689f35fc37cb2af7d9a54aaf,,,,,,,,,,,,,55,0,,./stim/wavs/cuban_match_declarative-broad-focus_Mariano-habla-del-tiempo.wav,,,,,,,,,,,,,,,,,,,,,,463.796,466.907,0,1,2.583,,0,57,57,54,1,0,cuban,,,,,,,,,,,,,,,,,,,,,,,,,,,,,,,,,,,,,,,,,,,,,,,,,,,,,,,,
,,,,,,,,,5e25c1a57d6cd1000cf870b8,Mexican,13 or older,"no, only English or Spanish",no,2025-08-15_09h34.10.599,empathy_intonation_perc,2024.2.4,Win32,60.24096386,5e25c1a57d6cd1000cf870b8,689ed6d1281858f68c932c05,689f35fc37cb2af7d9a54aaf,,,,,,,,,,,,,46,0,,./stim/wavs/castilian_match_declarative-broad-focus_Emilio-ama-la-marcha.wav,,,,,,,,,,,,,,,,,,,,,,466.91,469.858,0,1,2.426,,0,58,58,45,1,0,castilian,,,,,,,,,,,,,,,,,,,,,,,,,,,,,,,,,,,,,,,,,,,,,,,,,,,,,,,,
,,,,,,,,,5e25c1a57d6cd1000cf870b8,Mexican,13 or older,"no, only English or Spanish",no,2025-08-15_09h34.10.599,empathy_intonation_perc,2024.2.4,Win32,60.24096386,5e25c1a57d6cd1000cf870b8,689ed6d1281858f68c932c05,689f35fc37cb2af7d9a54aaf,,,,,,,,,,,,,62,0,,./stim/wavs/mexican_match_declarative-broad-focus_Marta-abre-el-regalo.wav,,,,,,,,,,,,,,,,,,,,,,469.859,472.413,0,1,2.031,,0,59,59,61,1,0,mexican,,,,,,,,,,,,,,,,,,,,,,,,,,,,,,,,,,,,,,,,,,,,,,,,,,,,,,,,
,,,,,,,,,5e25c1a57d6cd1000cf870b8,Mexican,13 or older,"no, only English or Spanish",no,2025-08-15_09h34.10.599,empathy_intonation_perc,2024.2.4,Win32,60.24096386,5e25c1a57d6cd1000cf870b8,689ed6d1281858f68c932c05,689f35fc37cb2af7d9a54aaf,,,,,,,,,,,,,72,0,,./stim/wavs/castilian_mismatch_declarative-broad-focus_Mi-novio-viene-del-lago.wav,,,,,,,,,,,,,,,,,,,,,,472.415,475.093,0,1,2.147,,0,60,60,71,1,0,castilian,,,,,,,,,,,,,,,,,,,,,,,,,,,,,,,,,,,,,,,,,,,,,,,,,,,,,,,,
,,,,,,,,,5e25c1a57d6cd1000cf870b8,Mexican,13 or older,"no, only English or Spanish",no,2025-08-15_09h34.10.599,empathy_intonation_perc,2024.2.4,Win32,60.24096386,5e25c1a57d6cd1000cf870b8,689ed6d1281858f68c932c05,689f35fc37cb2af7d9a54aaf,,,,,,,,,,,,,54,0,,./stim/wavs/cuban_match_declarative-broad-focus_Maria-bebe-el-vino.wav,,,,,,,,,,,,,,,,,,,,,,475.094,477.938,0,1,2.314,,0,61,61,53,1,0,cuban,,,,,,,,,,,,,,,,,,,,,,,,,,,,,,,,,,,,,,,,,,,,,,,,,,,,,,,,
,,,,,,,,,5e25c1a57d6cd1000cf870b8,Mexican,13 or older,"no, only English or Spanish",no,2025-08-15_09h34.10.599,empathy_intonation_perc,2024.2.4,Win32,60.24096386,5e25c1a57d6cd1000cf870b8,689ed6d1281858f68c932c05,689f35fc37cb2af7d9a54aaf,,,,,,,,,,,,,13,1,,./stim/wavs/mexican_match_interrogative-total-yn_Ana-lleva-el-abrigo.wav,,,,,,,,,,,,,,,,,,,,,,477.939,480.65,1,1,2.179,,0,62,62,12,1,0,mexican,,,,,,,,,,,,,,,,,,,,,,,,,,,,,,,,,,,,,,,,,,,,,,,,,,,,,,,,
,,,,,,,,,5e25c1a57d6cd1000cf870b8,Mexican,13 or older,"no, only English or Spanish",no,2025-08-15_09h34.10.599,empathy_intonation_perc,2024.2.4,Win32,60.24096386,5e25c1a57d6cd1000cf870b8,689ed6d1281858f68c932c05,689f35fc37cb2af7d9a54aaf,,,,,,,,,,,,,43,1,,./stim/wavs/puertorican_mismatch_interrogative-total-yn_La-nina-lava-el-plato.wav,,,,,,,,,,,,,,,,,,,,,,480.653,482.748,1,1,1.567,,0,63,63,42,1,1,puertorican,,,,,,,,,,,,,,,,,,,,,,,,,,,,,,,,,,,,,,,,,,,,,,,,,,,,,,,,
,,,,,,,,,5e25c1a57d6cd1000cf870b8,Mexican,13 or older,"no, only English or Spanish",no,2025-08-15_09h34.10.599,empathy_intonation_perc,2024.2.4,Win32,60.24096386,5e25c1a57d6cd1000cf870b8,689ed6d1281858f68c932c05,689f35fc37cb2af7d9a54aaf,,,,,,,,,,,,,83,0,,./stim/wavs/mexican_mismatch_declarative-broad-focus_Mi-tia-odia-la-lluvia.wav,,,,,,,,,,,,,,,,,,,,,,482.748,485.86,0,1,2.581,,0,64,64,82,1,0,mexican,,,,,,,,,,,,,,,,,,,,,,,,,,,,,,,,,,,,,,,,,,,,,,,,,,,,,,,,
,,,,,,,,,5e25c1a57d6cd1000cf870b8,Mexican,13 or older,"no, only English or Spanish",no,2025-08-15_09h34.10.599,empathy_intonation_perc,2024.2.4,Win32,60.24096386,5e25c1a57d6cd1000cf870b8,689ed6d1281858f68c932c05,689f35fc37cb2af7d9a54aaf,,,,,,,,,,,,,38,1,,./stim/wavs/mexican_mismatch_interrogative-total-yn_Mi-novio-viene-del-lago.wav,,,,,,,,,,,,,,,,,,,,,,485.868,488.139,1,1,1.749,,0,65,65,37,1,0,mexican,,,,,,,,,,,,,,,,,,,,,,,,,,,,,,,,,,,,,,,,,,,,,,,,,,,,,,,,
,,,,,,,,,5e25c1a57d6cd1000cf870b8,Mexican,13 or older,"no, only English or Spanish",no,2025-08-15_09h34.10.599,empathy_intonation_perc,2024.2.4,Win32,60.24096386,5e25c1a57d6cd1000cf870b8,689ed6d1281858f68c932c05,689f35fc37cb2af7d9a54aaf,,,,,,,,,,,,,36,1,,./stim/wavs/mexican_mismatch_interrogative-total-yn_El-nino-oye-el-rio.wav,,,,,,,,,,,,,,,,,,,,,,488.144,490.469,1,1,1.8,,0,66,66,35,1,0,mexican,,,,,,,,,,,,,,,,,,,,,,,,,,,,,,,,,,,,,,,,,,,,,,,,,,,,,,,,
,,,,,,,,,5e25c1a57d6cd1000cf870b8,Mexican,13 or older,"no, only English or Spanish",no,2025-08-15_09h34.10.599,empathy_intonation_perc,2024.2.4,Win32,60.24096386,5e25c1a57d6cd1000cf870b8,689ed6d1281858f68c932c05,689f35fc37cb2af7d9a54aaf,,,,,,,,,,,,,45,0,,./stim/wavs/castilian_match_declarative-broad-focus_David-leia-el-libro.wav,,,,,,,,,,,,,,,,,,,,,,490.474,493.515,0,1,2.513,,0,67,67,44,1,0,castilian,,,,,,,,,,,,,,,,,,,,,,,,,,,,,,,,,,,,,,,,,,,,,,,,,,,,,,,,
,,,,,,,,,5e25c1a57d6cd1000cf870b8,Mexican,13 or older,"no, only English or Spanish",no,2025-08-15_09h34.10.599,empathy_intonation_perc,2024.2.4,Win32,60.24096386,5e25c1a57d6cd1000cf870b8,689ed6d1281858f68c932c05,689f35fc37cb2af7d9a54aaf,,,,,,,,,,,,,37,1,,./stim/wavs/mexican_mismatch_interrogative-total-yn_La-maestra-vive-en-Paris.wav,,,,,,,,,,,,,,,,,,,,,,493.52,496.926,0,0,2.88,,0,68,68,36,1,0,mexican,,,,,,,,,,,,,,,,,,,,,,,,,,,,,,,,,,,,,,,,,,,,,,,,,,,,,,,,
,,,,,,,,,5e25c1a57d6cd1000cf870b8,Mexican,13 or older,"no, only English or Spanish",no,2025-08-15_09h34.10.599,empathy_intonation_perc,2024.2.4,Win32,60.24096386,5e25c1a57d6cd1000cf870b8,689ed6d1281858f68c932c05,689f35fc37cb2af7d9a54aaf,,,,,,,,,,,,,15,1,,./stim/wavs/mexican_match_interrogative-total-yn_David-leia-el-libro.wav,,,,,,,,,,,,,,,,,,,,,,496.929,499.11,1,1,1.654,,0,69,69,14,1,0,mexican,,,,,,,,,,,,,,,,,,,,,,,,,,,,,,,,,,,,,,,,,,,,,,,,,,,,,,,,
,,,,,,,,,5e25c1a57d6cd1000cf870b8,Mexican,13 or older,"no, only English or Spanish",no,2025-08-15_09h34.10.599,empathy_intonation_perc,2024.2.4,Win32,60.24096386,5e25c1a57d6cd1000cf870b8,689ed6d1281858f68c932c05,689f35fc37cb2af7d9a54aaf,,,,,,,,,,,,,48,0,,./stim/wavs/castilian_match_declarative-broad-focus_Maria-bebe-el-vino.wav,,,,,,,,,,,,,,,,,,,,,,499.112,501.787,0,1,2.152,,0,70,70,47,1,0,castilian,,,,,,,,,,,,,,,,,,,,,,,,,,,,,,,,,,,,,,,,,,,,,,,,,,,,,,,,
,,,,,,,,,5e25c1a57d6cd1000cf870b8,Mexican,13 or older,"no, only English or Spanish",no,2025-08-15_09h34.10.599,empathy_intonation_perc,2024.2.4,Win32,60.24096386,5e25c1a57d6cd1000cf870b8,689ed6d1281858f68c932c05,689f35fc37cb2af7d9a54aaf,,,,,,,,,,,,,6,1,,./stim/wavs/castilian_match_interrogative-total-yn_Marta-abre-el-regalo.wav,,,,,,,,,,,,,,,,,,,,,,501.79,504.216,1,1,1.897,,0,71,71,5,1,0,castilian,,,,,,,,,,,,,,,,,,,,,,,,,,,,,,,,,,,,,,,,,,,,,,,,,,,,,,,,
,,,,,,,,,5e25c1a57d6cd1000cf870b8,Mexican,13 or older,"no, only English or Spanish",no,2025-08-15_09h34.10.599,empathy_intonation_perc,2024.2.4,Win32,60.24096386,5e25c1a57d6cd1000cf870b8,689ed6d1281858f68c932c05,689f35fc37cb2af7d9a54aaf,,,,,,,,,,,,,76,0,,./stim/wavs/cuban_mismatch_declarative-broad-focus_La-nina-lava-el-plato.wav,,,,,,,,,,,,,,,,,,,,,,504.218,507.295,0,1,2.548,,0,72,72,75,1,0,cuban,,,,,,,,,,,,,,,,,,,,,,,,,,,,,,,,,,,,,,,,,,,,,,,,,,,,,,,,
,,,,,,,,,5e25c1a57d6cd1000cf870b8,Mexican,13 or older,"no, only English or Spanish",no,2025-08-15_09h34.10.599,empathy_intonation_perc,2024.2.4,Win32,60.24096386,5e25c1a57d6cd1000cf870b8,689ed6d1281858f68c932c05,689f35fc37cb2af7d9a54aaf,,,,,,,,,,,,,82,0,,./stim/wavs/mexican_mismatch_declarative-broad-focus_Mi-novio-viene-del-lago.wav,,,,,,,,,,,,,,,,,,,,,,507.296,510.122,0,1,2.297,,0,73,73,81,1,0,mexican,,,,,,,,,,,,,,,,,,,,,,,,,,,,,,,,,,,,,,,,,,,,,,,,,,,,,,,,
,,,,,,,,,5e25c1a57d6cd1000cf870b8,Mexican,13 or older,"no, only English or Spanish",no,2025-08-15_09h34.10.599,empathy_intonation_perc,2024.2.4,Win32,60.24096386,5e25c1a57d6cd1000cf870b8,689ed6d1281858f68c932c05,689f35fc37cb2af7d9a54aaf,,,,,,,,,,,,,4,1,,./stim/wavs/castilian_match_interrogative-total-yn_Maria-bebe-el-vino.wav,,,,,,,,,,,,,,,,,,,,,,510.125,512.904,1,1,2.251,,0,74,74,3,1,0,castilian,,,,,,,,,,,,,,,,,,,,,,,,,,,,,,,,,,,,,,,,,,,,,,,,,,,,,,,,
,,,,,,,,,5e25c1a57d6cd1000cf870b8,Mexican,13 or older,"no, only English or Spanish",no,2025-08-15_09h34.10.599,empathy_intonation_perc,2024.2.4,Win32,60.24096386,5e25c1a57d6cd1000cf870b8,689ed6d1281858f68c932c05,689f35fc37cb2af7d9a54aaf,,,,,,,,,,,,,88,0,,./stim/wavs/puertorican_mismatch_declarative-broad-focus_La-nina-lava-el-plato.wav,,,,,,,,,,,,,,,,,,,,,,512.907,515.548,0,1,2.114,,0,75,75,87,1,0,puertorican,,,,,,,,,,,,,,,,,,,,,,,,,,,,,,,,,,,,,,,,,,,,,,,,,,,,,,,,
,,,,,,,,,5e25c1a57d6cd1000cf870b8,Mexican,13 or older,"no, only English or Spanish",no,2025-08-15_09h34.10.599,empathy_intonation_perc,2024.2.4,Win32,60.24096386,5e25c1a57d6cd1000cf870b8,689ed6d1281858f68c932c05,689f35fc37cb2af7d9a54aaf,,,,,,,,,,,,,74,0,,./stim/wavs/cuban_mismatch_declarative-broad-focus_El-bebe-comia-muy-bien.wav,,,,,,,,,,,,,,,,,,,,,,515.55,517.797,0,1,1.716,,0,76,76,73,1,0,cuban,,,,,,,,,,,,,,,,,,,,,,,,,,,,,,,,,,,,,,,,,,,,,,,,,,,,,,,,
,,,,,,,,,5e25c1a57d6cd1000cf870b8,Mexican,13 or older,"no, only English or Spanish",no,2025-08-15_09h34.10.599,empathy_intonation_perc,2024.2.4,Win32,60.24096386,5e25c1a57d6cd1000cf870b8,689ed6d1281858f68c932c05,689f35fc37cb2af7d9a54aaf,,,,,,,,,,,,,42,1,,./stim/wavs/puertorican_mismatch_interrogative-total-yn_La-maestra-vive-en-Paris.wav,,,,,,,,,,,,,,,,,,,,,,517.802,522.521,1,1,4.196,,0,77,77,41,1,1,puertorican,,,,,,,,,,,,,,,,,,,,,,,,,,,,,,,,,,,,,,,,,,,,,,,,,,,,,,,,
,,,,,,,,,5e25c1a57d6cd1000cf870b8,Mexican,13 or older,"no, only English or Spanish",no,2025-08-15_09h34.10.599,empathy_intonation_perc,2024.2.4,Win32,60.24096386,5e25c1a57d6cd1000cf870b8,689ed6d1281858f68c932c05,689f35fc37cb2af7d9a54aaf,,,,,,,,,,,,,20,1,,./stim/wavs/puertorican_match_interrogative-total-yn_Daniel-iba-a-Bolivia.wav,,,,,,,,,,,,,,,,,,,,,,522.524,524.922,1,1,1.873,,0,78,78,19,1,1,puertorican,,,,,,,,,,,,,,,,,,,,,,,,,,,,,,,,,,,,,,,,,,,,,,,,,,,,,,,,
,,,,,,,,,5e25c1a57d6cd1000cf870b8,Mexican,13 or older,"no, only English or Spanish",no,2025-08-15_09h34.10.599,empathy_intonation_perc,2024.2.4,Win32,60.24096386,5e25c1a57d6cd1000cf870b8,689ed6d1281858f68c932c05,689f35fc37cb2af7d9a54aaf,,,,,,,,,,,,,34,1,,./stim/wavs/cuban_mismatch_interrogative-total-yn_Mi-tia-odia-la-lluvia.wav,,,,,,,,,,,,,,,,,,,,,,524.924,528.312,0,0,2.863,,0,79,79,33,1,1,cuban,,,,,,,,,,,,,,,,,,,,,,,,,,,,,,,,,,,,,,,,,,,,,,,,,,,,,,,,
,,,,,,,,,5e25c1a57d6cd1000cf870b8,Mexican,13 or older,"no, only English or Spanish",no,2025-08-15_09h34.10.599,empathy_intonation_perc,2024.2.4,Win32,60.24096386,5e25c1a57d6cd1000cf870b8,689ed6d1281858f68c932c05,689f35fc37cb2af7d9a54aaf,,,,,,,,,,,,,33,1,,./stim/wavs/cuban_mismatch_interrogative-total-yn_Mi-novio-viene-del-lago.wav,,,,,,,,,,,,,,,,,,,,,,528.314,532.291,1,1,3.447,,0,80,80,32,1,1,cuban,,,,,,,,,,,,,,,,,,,,,,,,,,,,,,,,,,,,,,,,,,,,,,,,,,,,,,,,
,,,,,,,,,5e25c1a57d6cd1000cf870b8,Mexican,13 or older,"no, only English or Spanish",no,2025-08-15_09h34.10.599,empathy_intonation_perc,2024.2.4,Win32,60.24096386,5e25c1a57d6cd1000cf870b8,689ed6d1281858f68c932c05,689f35fc37cb2af7d9a54aaf,,,,,,,,,,,,,16,1,,./stim/wavs/mexican_match_interrogative-total-yn_Emilio-ama-la-marcha.wav,,,,,,,,,,,,,,,,,,,,,,532.293,536.385,0,0,3.563,,0,81,81,15,1,0,mexican,,,,,,,,,,,,,,,,,,,,,,,,,,,,,,,,,,,,,,,,,,,,,,,,,,,,,,,,
,,,,,,,,,5e25c1a57d6cd1000cf870b8,Mexican,13 or older,"no, only English or Spanish",no,2025-08-15_09h34.10.599,empathy_intonation_perc,2024.2.4,Win32,60.24096386,5e25c1a57d6cd1000cf870b8,689ed6d1281858f68c932c05,689f35fc37cb2af7d9a54aaf,,,,,,,,,,,,,32,1,,./stim/wavs/cuban_mismatch_interrogative-total-yn_Mi-madre-come-la-fruta.wav,,,,,,,,,,,,,,,,,,,,,,536.389,540.893,1,1,3.978,,0,82,82,31,1,1,cuban,,,,,,,,,,,,,,,,,,,,,,,,,,,,,,,,,,,,,,,,,,,,,,,,,,,,,,,,
,,,,,,,,,5e25c1a57d6cd1000cf870b8,Mexican,13 or older,"no, only English or Spanish",no,2025-08-15_09h34.10.599,empathy_intonation_perc,2024.2.4,Win32,60.24096386,5e25c1a57d6cd1000cf870b8,689ed6d1281858f68c932c05,689f35fc37cb2af7d9a54aaf,,,,,,,,,,,,,77,0,,./stim/wavs/cuban_mismatch_declarative-broad-focus_Mi-novio-viene-del-lago.wav,,,,,,,,,,,,,,,,,,,,,,540.895,585.344,1,0,43.918,,0,83,83,76,1,0,cuban,,,,,,,,,,,,,,,,,,,,,,,,,,,,,,,,,,,,,,,,,,,,,,,,,,,,,,,,
,,,,,,,,,5e25c1a57d6cd1000cf870b8,Mexican,13 or older,"no, only English or Spanish",no,2025-08-15_09h34.10.599,empathy_intonation_perc,2024.2.4,Win32,60.24096386,5e25c1a57d6cd1000cf870b8,689ed6d1281858f68c932c05,689f35fc37cb2af7d9a54aaf,,,,,,,,,,,,,29,1,,./stim/wavs/castilian_mismatch_interrogative-total-yn_Mi-tia-odia-la-lluvia.wav,,,,,,,,,,,,,,,,,,,,,,585.352,587.859,1,1,1.987,,0,84,84,28,1,0,castilian,,,,,,,,,,,,,,,,,,,,,,,,,,,,,,,,,,,,,,,,,,,,,,,,,,,,,,,,
,,,,,,,,,5e25c1a57d6cd1000cf870b8,Mexican,13 or older,"no, only English or Spanish",no,2025-08-15_09h34.10.599,empathy_intonation_perc,2024.2.4,Win32,60.24096386,5e25c1a57d6cd1000cf870b8,689ed6d1281858f68c932c05,689f35fc37cb2af7d9a54aaf,,,,,,,,,,,,,86,0,,./stim/wavs/puertorican_mismatch_declarative-broad-focus_El-nino-oye-el-rio.wav,,,,,,,,,,,,,,,,,,,,,,587.862,589.997,0,1,1.607,,0,85,85,85,1,0,puertorican,,,,,,,,,,,,,,,,,,,,,,,,,,,,,,,,,,,,,,,,,,,,,,,,,,,,,,,,
,,,,,,,,,5e25c1a57d6cd1000cf870b8,Mexican,13 or older,"no, only English or Spanish",no,2025-08-15_09h34.10.599,empathy_intonation_perc,2024.2.4,Win32,60.24096386,5e25c1a57d6cd1000cf870b8,689ed6d1281858f68c932c05,689f35fc37cb2af7d9a54aaf,,,,,,,,,,,,,49,0,,./stim/wavs/castilian_match_declarative-broad-focus_Mariano-habla-del-tiempo.wav,,,,,,,,,,,,,,,,,,,,,,590,592.554,0,1,2.03,,0,86,86,48,1,0,castilian,,,,,,,,,,,,,,,,,,,,,,,,,,,,,,,,,,,,,,,,,,,,,,,,,,,,,,,,
,,,,,,,,,5e25c1a57d6cd1000cf870b8,Mexican,13 or older,"no, only English or Spanish",no,2025-08-15_09h34.10.599,empathy_intonation_perc,2024.2.4,Win32,60.24096386,5e25c1a57d6cd1000cf870b8,689ed6d1281858f68c932c05,689f35fc37cb2af7d9a54aaf,,,,,,,,,,,,,81,0,,./stim/wavs/mexican_mismatch_declarative-broad-focus_La-maestra-vive-en-Paris.wav,,,,,,,,,,,,,,,,,,,,,,592.556,596.28,0,1,3.198,,0,87,87,80,1,0,mexican,,,,,,,,,,,,,,,,,,,,,,,,,,,,,,,,,,,,,,,,,,,,,,,,,,,,,,,,
,,,,,,,"Great! Now we will move on. The next task consists of about 60 trials, in each of which you will see a string of letters. 
  
  Your task is to decide whether this is a real Spanish word or not.", (press the spacebar to continue),5e25c1a57d6cd1000cf870b8,Mexican,13 or older,"no, only English or Spanish",no,2025-08-15_09h34.10.599,empathy_intonation_perc,2024.2.4,Win32,60.24096386,5e25c1a57d6cd1000cf870b8,689ed6d1281858f68c932c05,689f35fc37cb2af7d9a54aaf,,,,,,,,,,,,,,,,,,,,,,,,,,,,,,,,,,,,,,,,,,,,,,,,,,,596.306,659.582,0,0,0,0,1,,,,,,,,,,,,,,,,,,,,,,,,,,,,,,,,,,,,,,,,,,,,,,,,,
,,,,,,,"If you think it is an existing Spanish word, you type '1' (for 'REAL'), and if you think it is not an existing Spanish word, you type '0' (for 'FAKE').", (press the spacebar to continue),5e25c1a57d6cd1000cf870b8,Mexican,13 or older,"no, only English or Spanish",no,2025-08-15_09h34.10.599,empathy_intonation_perc,2024.2.4,Win32,60.24096386,5e25c1a57d6cd1000cf870b8,689ed6d1281858f68c932c05,689f35fc37cb2af7d9a54aaf,,,,,,,,,,,,,,,,,,,,,,,,,,,,,,,,,,,,,,,,,,,,,,,,,,,659.589,692.65,0,1,1,1,1,,,,,,,,,,,,,,,,,,,,,,,,,,,,,,,,,,,,,,,,,,,,,,,,,
,,,,,,,"If you are sure that the word exists, even though you don’t know its exact meaning, you may still respond '1' (REAL). 
  
  But if you are not sure if it is an existing word, you should respond '0' (FAKE).
  
  Let's do a practice round...", (press the spacebar to continue),5e25c1a57d6cd1000cf870b8,Mexican,13 or older,"no, only English or Spanish",no,2025-08-15_09h34.10.599,empathy_intonation_perc,2024.2.4,Win32,60.24096386,5e25c1a57d6cd1000cf870b8,689ed6d1281858f68c932c05,689f35fc37cb2af7d9a54aaf,,,,,,,,,,,,,,,,,,,,,,,,,,,,,,,,,,,,,,,,,,,,,,,,,,,692.659,725.488,0,2,2,2,1,,,,,,,,,,,,,,,,,,,,,,,,,,,,,,,,,,,,,,,,,,,,,,,,,
,,,,,,,,,5e25c1a57d6cd1000cf870b8,Mexican,13 or older,"no, only English or Spanish",no,2025-08-15_09h34.10.599,empathy_intonation_perc,2024.2.4,Win32,60.24096386,5e25c1a57d6cd1000cf870b8,689ed6d1281858f68c932c05,689f35fc37cb2af7d9a54aaf,,,,,,,,,,,,,,0,,,,,,,,,,,,,,,,,,,,,,,,,,,,,,,,,,,,,,,,,,,,725.512,729.844,1,0,3.785,,729.847,730.84,0,0,0,0,1,0,depiste,REAL,FAKE,,,,,,,,,,,,,,,,,,,,,,,,,,,,,,,,
,,,,,,,,,5e25c1a57d6cd1000cf870b8,Mexican,13 or older,"no, only English or Spanish",no,2025-08-15_09h34.10.599,empathy_intonation_perc,2024.2.4,Win32,60.24096386,5e25c1a57d6cd1000cf870b8,689ed6d1281858f68c932c05,689f35fc37cb2af7d9a54aaf,,,,,,,,,,,,,,1,,,,,,,,,,,,,,,,,,,,,,,,,,,,,,,,,,,,,,,,,,,,730.852,739.964,1,1,8.589,,739.967,740.96,0,1,1,1,1,0,sí,REAL,FAKE,,,,,,,,,,,,,,,,,,,,,,,,,,,,,,,,
,,,,,,,,,5e25c1a57d6cd1000cf870b8,Mexican,13 or older,"no, only English or Spanish",no,2025-08-15_09h34.10.599,empathy_intonation_perc,2024.2.4,Win32,60.24096386,5e25c1a57d6cd1000cf870b8,689ed6d1281858f68c932c05,689f35fc37cb2af7d9a54aaf,,,,,,,,,,,,,,0,,,,,,,,,,,,,,,,,,,,,,,,,,,,,,,,,,,,,,,,,,,,740.966,746.909,0,1,5.416,,746.91,747.899,0,2,2,2,1,0,coné,REAL,FAKE,,,,,,,,,,,,,,,,,,,,,,,,,,,,,,,,
,,,,,,,,,5e25c1a57d6cd1000cf870b8,Mexican,13 or older,"no, only English or Spanish",no,2025-08-15_09h34.10.599,empathy_intonation_perc,2024.2.4,Win32,60.24096386,5e25c1a57d6cd1000cf870b8,689ed6d1281858f68c932c05,689f35fc37cb2af7d9a54aaf,,,,,,,,,,,,,,0,,,,,,,,,,,,,,,,,,,,,,,,,,,,,,,,,,,,,,,,,,,,747.911,750.516,0,1,2.072,,750.517,751.509,0,3,3,3,1,0,calpar,REAL,FAKE,,,,,,,,,,,,,,,,,,,,,,,,,,,,,,,,
,,,,,,,,,5e25c1a57d6cd1000cf870b8,Mexican,13 or older,"no, only English or Spanish",no,2025-08-15_09h34.10.599,empathy_intonation_perc,2024.2.4,Win32,60.24096386,5e25c1a57d6cd1000cf870b8,689ed6d1281858f68c932c05,689f35fc37cb2af7d9a54aaf,,,,,,,,,,,,,,0,,,,,,,,,,,,,,,,,,,,,,,,,,,,,,,,,,,,,,,,,,,,751.514,758.249,0,1,6.188,,758.249,759.247,0,4,4,4,1,0,joten,REAL,FAKE,,,,,,,,,,,,,,,,,,,,,,,,,,,,,,,,
,,,,,,,,,5e25c1a57d6cd1000cf870b8,Mexican,13 or older,"no, only English or Spanish",no,2025-08-15_09h34.10.599,empathy_intonation_perc,2024.2.4,Win32,60.24096386,5e25c1a57d6cd1000cf870b8,689ed6d1281858f68c932c05,689f35fc37cb2af7d9a54aaf,,,,,,,,,,,,,,1,,,,,,,,,,,,,,,,,,,,,,,,,,,,,,,,,,,,,,,,,,,,759.252,762.212,1,1,2.427,,762.213,763.208,0,5,5,5,1,0,sacapuntas,REAL,FAKE,,,,,,,,,,,,,,,,,,,,,,,,,,,,,,,,
,,,,,,,,,5e25c1a57d6cd1000cf870b8,Mexican,13 or older,"no, only English or Spanish",no,2025-08-15_09h34.10.599,empathy_intonation_perc,2024.2.4,Win32,60.24096386,5e25c1a57d6cd1000cf870b8,689ed6d1281858f68c932c05,689f35fc37cb2af7d9a54aaf,,,,,,,,,,,,,,0,,,,,,,,,,,,,,,,,,,,,,,,,,,,,,,,,,,,,,,,,,,,763.212,765.888,1,0,2.137,,765.892,766.886,0,6,6,6,1,0,priba,REAL,FAKE,,,,,,,,,,,,,,,,,,,,,,,,,,,,,,,,
,,,,,,,,,5e25c1a57d6cd1000cf870b8,Mexican,13 or older,"no, only English or Spanish",no,2025-08-15_09h34.10.599,empathy_intonation_perc,2024.2.4,Win32,60.24096386,5e25c1a57d6cd1000cf870b8,689ed6d1281858f68c932c05,689f35fc37cb2af7d9a54aaf,,,,,,,,,,,,,,0,,,,,,,,,,,,,,,,,,,,,,,,,,,,,,,,,,,,,,,,,,,,766.894,770.082,0,1,2.654,,770.084,771.083,0,7,7,7,1,0,pelasula,REAL,FAKE,,,,,,,,,,,,,,,,,,,,,,,,,,,,,,,,
,,,,,,,,,5e25c1a57d6cd1000cf870b8,Mexican,13 or older,"no, only English or Spanish",no,2025-08-15_09h34.10.599,empathy_intonation_perc,2024.2.4,Win32,60.24096386,5e25c1a57d6cd1000cf870b8,689ed6d1281858f68c932c05,689f35fc37cb2af7d9a54aaf,,,,,,,,,,,,,,1,,,,,,,,,,,,,,,,,,,,,,,,,,,,,,,,,,,,,,,,,,,,771.089,773.643,1,1,2.019,,773.643,774.643,0,8,8,8,1,0,bien,REAL,FAKE,,,,,,,,,,,,,,,,,,,,,,,,,,,,,,,,
,,,,,,,,,5e25c1a57d6cd1000cf870b8,Mexican,13 or older,"no, only English or Spanish",no,2025-08-15_09h34.10.599,empathy_intonation_perc,2024.2.4,Win32,60.24096386,5e25c1a57d6cd1000cf870b8,689ed6d1281858f68c932c05,689f35fc37cb2af7d9a54aaf,,,,,,,,,,,,,,1,,,,,,,,,,,,,,,,,,,,,,,,,,,,,,,,,,,,,,,,,,,,774.653,776.663,1,1,1.474,,776.663,777.652,0,9,9,9,1,0,casa,REAL,FAKE,,,,,,,,,,,,,,,,,,,,,,,,,,,,,,,,
,,,,,,,,,5e25c1a57d6cd1000cf870b8,Mexican,13 or older,"no, only English or Spanish",no,2025-08-15_09h34.10.599,empathy_intonation_perc,2024.2.4,Win32,60.24096386,5e25c1a57d6cd1000cf870b8,689ed6d1281858f68c932c05,689f35fc37cb2af7d9a54aaf,,,,,,,,,,,,,,0,,,,,,,,,,,,,,,,,,,,,,,,,,,,,,,,,,,,,,,,,,,,777.656,783.86,0,1,5.691,,783.861,784.862,0,10,10,10,1,0,lejo,REAL,FAKE,,,,,,,,,,,,,,,,,,,,,,,,,,,,,,,,
,,,,,,,,,5e25c1a57d6cd1000cf870b8,Mexican,13 or older,"no, only English or Spanish",no,2025-08-15_09h34.10.599,empathy_intonation_perc,2024.2.4,Win32,60.24096386,5e25c1a57d6cd1000cf870b8,689ed6d1281858f68c932c05,689f35fc37cb2af7d9a54aaf,,,,,,,,,,,,,,0,,,,,,,,,,,,,,,,,,,,,,,,,,,,,,,,,,,,,,,,,,,,784.864,788.124,1,0,2.697,,788.128,789.119,0,11,11,11,1,0,pretantas,REAL,FAKE,,,,,,,,,,,,,,,,,,,,,,,,,,,,,,,,
,,,,,,,,,5e25c1a57d6cd1000cf870b8,Mexican,13 or older,"no, only English or Spanish",no,2025-08-15_09h34.10.599,empathy_intonation_perc,2024.2.4,Win32,60.24096386,5e25c1a57d6cd1000cf870b8,689ed6d1281858f68c932c05,689f35fc37cb2af7d9a54aaf,,,,,,,,,,,,,,,,,,,,,,,,,,,,,,,,,,,,,,,,,,,,,,,,,,,,,,,,,,,,,,,,,,,,,,,,,,,789.119,791.305,,,,,,,,,,,,,,,,,,,,,,,,,,,,,,
,,,,,,,,,5e25c1a57d6cd1000cf870b8,Mexican,13 or older,"no, only English or Spanish",no,2025-08-15_09h34.10.599,empathy_intonation_perc,2024.2.4,Win32,60.24096386,5e25c1a57d6cd1000cf870b8,689ed6d1281858f68c932c05,689f35fc37cb2af7d9a54aaf,,,,,,,,,,,,,,0,,,,,,,,,,,,,,,,,,,,,,,,,,,,,,,,,,,,,,,,,,,,,,,,,,,,,,,,,29,decar,,,,,791.341,794.232,0,1,2.348,,0,0,0,28,1,REAL,FAKE,,,,,,,,,,,,,,,,,
,,,,,,,,,5e25c1a57d6cd1000cf870b8,Mexican,13 or older,"no, only English or Spanish",no,2025-08-15_09h34.10.599,empathy_intonation_perc,2024.2.4,Win32,60.24096386,5e25c1a57d6cd1000cf870b8,689ed6d1281858f68c932c05,689f35fc37cb2af7d9a54aaf,,,,,,,,,,,,,,1,,,,,,,,,,,,,,,,,,,,,,,,,,,,,,,,,,,,,,,,,,,,,,,,,,,,,,,,,44,cuchara,,,,,794.235,796.741,1,1,1.966,,0,1,1,43,1,REAL,FAKE,,,,,,,,,,,,,,,,,
,,,,,,,,,5e25c1a57d6cd1000cf870b8,Mexican,13 or older,"no, only English or Spanish",no,2025-08-15_09h34.10.599,empathy_intonation_perc,2024.2.4,Win32,60.24096386,5e25c1a57d6cd1000cf870b8,689ed6d1281858f68c932c05,689f35fc37cb2af7d9a54aaf,,,,,,,,,,,,,,0,,,,,,,,,,,,,,,,,,,,,,,,,,,,,,,,,,,,,,,,,,,,,,,,,,,,,,,,,35,rompido,,,,,796.744,801.069,1,0,3.784,,0,2,2,34,1,REAL,FAKE,,,,,,,,,,,,,,,,,
,,,,,,,,,5e25c1a57d6cd1000cf870b8,Mexican,13 or older,"no, only English or Spanish",no,2025-08-15_09h34.10.599,empathy_intonation_perc,2024.2.4,Win32,60.24096386,5e25c1a57d6cd1000cf870b8,689ed6d1281858f68c932c05,689f35fc37cb2af7d9a54aaf,,,,,,,,,,,,,,1,,,,,,,,,,,,,,,,,,,,,,,,,,,,,,,,,,,,,,,,,,,,,,,,,,,,,,,,,89,prisa,,,,,801.072,803.847,1,1,2.231,,0,3,3,88,1,REAL,FAKE,,,,,,,,,,,,,,,,,
,,,,,,,,,5e25c1a57d6cd1000cf870b8,Mexican,13 or older,"no, only English or Spanish",no,2025-08-15_09h34.10.599,empathy_intonation_perc,2024.2.4,Win32,60.24096386,5e25c1a57d6cd1000cf870b8,689ed6d1281858f68c932c05,689f35fc37cb2af7d9a54aaf,,,,,,,,,,,,,,1,,,,,,,,,,,,,,,,,,,,,,,,,,,,,,,,,,,,,,,,,,,,,,,,,,,,,,,,,69,engatusar,,,,,803.85,806.565,0,0,2.173,,0,4,4,68,1,REAL,FAKE,,,,,,,,,,,,,,,,,
,,,,,,,,,5e25c1a57d6cd1000cf870b8,Mexican,13 or older,"no, only English or Spanish",no,2025-08-15_09h34.10.599,empathy_intonation_perc,2024.2.4,Win32,60.24096386,5e25c1a57d6cd1000cf870b8,689ed6d1281858f68c932c05,689f35fc37cb2af7d9a54aaf,,,,,,,,,,,,,,0,,,,,,,,,,,,,,,,,,,,,,,,,,,,,,,,,,,,,,,,,,,,,,,,,,,,,,,,,21,capillo,,,,,806.57,809.062,0,1,1.955,,0,5,5,20,1,REAL,FAKE,,,,,,,,,,,,,,,,,
,,,,,,,,,5e25c1a57d6cd1000cf870b8,Mexican,13 or older,"no, only English or Spanish",no,2025-08-15_09h34.10.599,empathy_intonation_perc,2024.2.4,Win32,60.24096386,5e25c1a57d6cd1000cf870b8,689ed6d1281858f68c932c05,689f35fc37cb2af7d9a54aaf,,,,,,,,,,,,,,1,,,,,,,,,,,,,,,,,,,,,,,,,,,,,,,,,,,,,,,,,,,,,,,,,,,,,,,,,11,cenefa,,,,,809.065,811.11,0,0,1.508,,0,6,6,10,1,REAL,FAKE,,,,,,,,,,,,,,,,,
,,,,,,,,,5e25c1a57d6cd1000cf870b8,Mexican,13 or older,"no, only English or Spanish",no,2025-08-15_09h34.10.599,empathy_intonation_perc,2024.2.4,Win32,60.24096386,5e25c1a57d6cd1000cf870b8,689ed6d1281858f68c932c05,689f35fc37cb2af7d9a54aaf,,,,,,,,,,,,,,0,,,,,,,,,,,,,,,,,,,,,,,,,,,,,,,,,,,,,,,,,,,,,,,,,,,,,,,,,19,brecedad,,,,,811.113,813.201,0,1,1.563,,0,7,7,18,1,REAL,FAKE,,,,,,,,,,,,,,,,,
,,,,,,,,,5e25c1a57d6cd1000cf870b8,Mexican,13 or older,"no, only English or Spanish",no,2025-08-15_09h34.10.599,empathy_intonation_perc,2024.2.4,Win32,60.24096386,5e25c1a57d6cd1000cf870b8,689ed6d1281858f68c932c05,689f35fc37cb2af7d9a54aaf,,,,,,,,,,,,,,1,,,,,,,,,,,,,,,,,,,,,,,,,,,,,,,,,,,,,,,,,,,,,,,,,,,,,,,,,71,polvoriento,,,,,813.207,816.232,1,1,2.48,,0,8,8,70,1,REAL,FAKE,,,,,,,,,,,,,,,,,
,,,,,,,,,5e25c1a57d6cd1000cf870b8,Mexican,13 or older,"no, only English or Spanish",no,2025-08-15_09h34.10.599,empathy_intonation_perc,2024.2.4,Win32,60.24096386,5e25c1a57d6cd1000cf870b8,689ed6d1281858f68c932c05,689f35fc37cb2af7d9a54aaf,,,,,,,,,,,,,,1,,,,,,,,,,,,,,,,,,,,,,,,,,,,,,,,,,,,,,,,,,,,,,,,,,,,,,,,,26,secuestro,,,,,816.235,818.792,1,1,2.015,,0,9,9,25,1,REAL,FAKE,,,,,,,,,,,,,,,,,
,,,,,,,,,5e25c1a57d6cd1000cf870b8,Mexican,13 or older,"no, only English or Spanish",no,2025-08-15_09h34.10.599,empathy_intonation_perc,2024.2.4,Win32,60.24096386,5e25c1a57d6cd1000cf870b8,689ed6d1281858f68c932c05,689f35fc37cb2af7d9a54aaf,,,,,,,,,,,,,,1,,,,,,,,,,,,,,,,,,,,,,,,,,,,,,,,,,,,,,,,,,,,,,,,,,,,,,,,,67,cabello,,,,,818.798,820.888,1,1,1.553,,0,10,10,66,1,REAL,FAKE,,,,,,,,,,,,,,,,,
,,,,,,,,,5e25c1a57d6cd1000cf870b8,Mexican,13 or older,"no, only English or Spanish",no,2025-08-15_09h34.10.599,empathy_intonation_perc,2024.2.4,Win32,60.24096386,5e25c1a57d6cd1000cf870b8,689ed6d1281858f68c932c05,689f35fc37cb2af7d9a54aaf,,,,,,,,,,,,,,0,,,,,,,,,,,,,,,,,,,,,,,,,,,,,,,,,,,,,,,,,,,,,,,,,,,,,,,,,50,flamida,,,,,820.895,822.588,0,1,1.145,,0,11,11,49,1,REAL,FAKE,,,,,,,,,,,,,,,,,
,,,,,,,,,5e25c1a57d6cd1000cf870b8,Mexican,13 or older,"no, only English or Spanish",no,2025-08-15_09h34.10.599,empathy_intonation_perc,2024.2.4,Win32,60.24096386,5e25c1a57d6cd1000cf870b8,689ed6d1281858f68c932c05,689f35fc37cb2af7d9a54aaf,,,,,,,,,,,,,,1,,,,,,,,,,,,,,,,,,,,,,,,,,,,,,,,,,,,,,,,,,,,,,,,,,,,,,,,,36,loro,,,,,822.59,824.666,0,0,1.549,,0,12,12,35,1,REAL,FAKE,,,,,,,,,,,,,,,,,
,,,,,,,,,5e25c1a57d6cd1000cf870b8,Mexican,13 or older,"no, only English or Spanish",no,2025-08-15_09h34.10.599,empathy_intonation_perc,2024.2.4,Win32,60.24096386,5e25c1a57d6cd1000cf870b8,689ed6d1281858f68c932c05,689f35fc37cb2af7d9a54aaf,,,,,,,,,,,,,,1,,,,,,,,,,,,,,,,,,,,,,,,,,,,,,,,,,,,,,,,,,,,,,,,,,,,,,,,,65,bizcocho,,,,,824.671,827.411,1,1,2.193,,0,13,13,64,1,REAL,FAKE,,,,,,,,,,,,,,,,,
,,,,,,,,,5e25c1a57d6cd1000cf870b8,Mexican,13 or older,"no, only English or Spanish",no,2025-08-15_09h34.10.599,empathy_intonation_perc,2024.2.4,Win32,60.24096386,5e25c1a57d6cd1000cf870b8,689ed6d1281858f68c932c05,689f35fc37cb2af7d9a54aaf,,,,,,,,,,,,,,1,,,,,,,,,,,,,,,,,,,,,,,,,,,,,,,,,,,,,,,,,,,,,,,,,,,,,,,,,28,merodear,,,,,827.415,830.041,1,1,2.08,,0,14,14,27,1,REAL,FAKE,,,,,,,,,,,,,,,,,
,,,,,,,,,5e25c1a57d6cd1000cf870b8,Mexican,13 or older,"no, only English or Spanish",no,2025-08-15_09h34.10.599,empathy_intonation_perc,2024.2.4,Win32,60.24096386,5e25c1a57d6cd1000cf870b8,689ed6d1281858f68c932c05,689f35fc37cb2af7d9a54aaf,,,,,,,,,,,,,,1,,,,,,,,,,,,,,,,,,,,,,,,,,,,,,,,,,,,,,,,,,,,,,,,,,,,,,,,,62,flaco,,,,,830.046,831.822,1,1,1.237,,0,15,15,61,1,REAL,FAKE,,,,,,,,,,,,,,,,,
,,,,,,,,,5e25c1a57d6cd1000cf870b8,Mexican,13 or older,"no, only English or Spanish",no,2025-08-15_09h34.10.599,empathy_intonation_perc,2024.2.4,Win32,60.24096386,5e25c1a57d6cd1000cf870b8,689ed6d1281858f68c932c05,689f35fc37cb2af7d9a54aaf,,,,,,,,,,,,,,1,,,,,,,,,,,,,,,,,,,,,,,,,,,,,,,,,,,,,,,,,,,,,,,,,,,,,,,,,5,zapato,,,,,831.824,833.419,1,1,1.052,,0,16,16,4,1,REAL,FAKE,,,,,,,,,,,,,,,,,
,,,,,,,,,5e25c1a57d6cd1000cf870b8,Mexican,13 or older,"no, only English or Spanish",no,2025-08-15_09h34.10.599,empathy_intonation_perc,2024.2.4,Win32,60.24096386,5e25c1a57d6cd1000cf870b8,689ed6d1281858f68c932c05,689f35fc37cb2af7d9a54aaf,,,,,,,,,,,,,,0,,,,,,,,,,,,,,,,,,,,,,,,,,,,,,,,,,,,,,,,,,,,,,,,,,,,,,,,,17,floroso,,,,,833.424,835.253,0,1,1.302,,0,17,17,16,1,REAL,FAKE,,,,,,,,,,,,,,,,,
,,,,,,,,,5e25c1a57d6cd1000cf870b8,Mexican,13 or older,"no, only English or Spanish",no,2025-08-15_09h34.10.599,empathy_intonation_perc,2024.2.4,Win32,60.24096386,5e25c1a57d6cd1000cf870b8,689ed6d1281858f68c932c05,689f35fc37cb2af7d9a54aaf,,,,,,,,,,,,,,1,,,,,,,,,,,,,,,,,,,,,,,,,,,,,,,,,,,,,,,,,,,,,,,,,,,,,,,,,91,click the 1 key.,,,,,835.259,837.621,1,1,1.821,,0,18,18,90,1,REAL,FAKE,,,,,,,,,,,,,,,,,
,,,,,,,,,5e25c1a57d6cd1000cf870b8,Mexican,13 or older,"no, only English or Spanish",no,2025-08-15_09h34.10.599,empathy_intonation_perc,2024.2.4,Win32,60.24096386,5e25c1a57d6cd1000cf870b8,689ed6d1281858f68c932c05,689f35fc37cb2af7d9a54aaf,,,,,,,,,,,,,,1,,,,,,,,,,,,,,,,,,,,,,,,,,,,,,,,,,,,,,,,,,,,,,,,,,,,,,,,,49,ganar,,,,,837.626,839.33,1,1,1.163,,0,19,19,48,1,REAL,FAKE,,,,,,,,,,,,,,,,,
,,,,,,,,,5e25c1a57d6cd1000cf870b8,Mexican,13 or older,"no, only English or Spanish",no,2025-08-15_09h34.10.599,empathy_intonation_perc,2024.2.4,Win32,60.24096386,5e25c1a57d6cd1000cf870b8,689ed6d1281858f68c932c05,689f35fc37cb2af7d9a54aaf,,,,,,,,,,,,,,1,,,,,,,,,,,,,,,,,,,,,,,,,,,,,,,,,,,,,,,,,,,,,,,,,,,,,,,,,14,yunque,,,,,839.336,841.159,0,0,1.282,,0,20,20,13,1,REAL,FAKE,,,,,,,,,,,,,,,,,
,,,,,,,,,5e25c1a57d6cd1000cf870b8,Mexican,13 or older,"no, only English or Spanish",no,2025-08-15_09h34.10.599,empathy_intonation_perc,2024.2.4,Win32,60.24096386,5e25c1a57d6cd1000cf870b8,689ed6d1281858f68c932c05,689f35fc37cb2af7d9a54aaf,,,,,,,,,,,,,,1,,,,,,,,,,,,,,,,,,,,,,,,,,,,,,,,,,,,,,,,,,,,,,,,,,,,,,,,,34,aviso,,,,,841.163,842.83,1,1,1.129,,0,21,21,33,1,REAL,FAKE,,,,,,,,,,,,,,,,,
,,,,,,,,,5e25c1a57d6cd1000cf870b8,Mexican,13 or older,"no, only English or Spanish",no,2025-08-15_09h34.10.599,empathy_intonation_perc,2024.2.4,Win32,60.24096386,5e25c1a57d6cd1000cf870b8,689ed6d1281858f68c932c05,689f35fc37cb2af7d9a54aaf,,,,,,,,,,,,,,1,,,,,,,,,,,,,,,,,,,,,,,,,,,,,,,,,,,,,,,,,,,,,,,,,,,,,,,,,54,fomentar,,,,,842.833,844.985,1,1,1.614,,0,22,22,53,1,REAL,FAKE,,,,,,,,,,,,,,,,,
,,,,,,,,,5e25c1a57d6cd1000cf870b8,Mexican,13 or older,"no, only English or Spanish",no,2025-08-15_09h34.10.599,empathy_intonation_perc,2024.2.4,Win32,60.24096386,5e25c1a57d6cd1000cf870b8,689ed6d1281858f68c932c05,689f35fc37cb2af7d9a54aaf,,,,,,,,,,,,,,1,,,,,,,,,,,,,,,,,,,,,,,,,,,,,,,,,,,,,,,,,,,,,,,,,,,,,,,,,86,barato,,,,,844.991,846.383,1,1,0.862,,0,23,23,85,1,REAL,FAKE,,,,,,,,,,,,,,,,,
,,,,,,,,,5e25c1a57d6cd1000cf870b8,Mexican,13 or older,"no, only English or Spanish",no,2025-08-15_09h34.10.599,empathy_intonation_perc,2024.2.4,Win32,60.24096386,5e25c1a57d6cd1000cf870b8,689ed6d1281858f68c932c05,689f35fc37cb2af7d9a54aaf,,,,,,,,,,,,,,1,,,,,,,,,,,,,,,,,,,,,,,,,,,,,,,,,,,,,,,,,,,,,,,,,,,,,,,,,75,yacer,,,,,846.385,849.112,0,0,2.2,,0,24,24,74,1,REAL,FAKE,,,,,,,,,,,,,,,,,
,,,,,,,,,5e25c1a57d6cd1000cf870b8,Mexican,13 or older,"no, only English or Spanish",no,2025-08-15_09h34.10.599,empathy_intonation_perc,2024.2.4,Win32,60.24096386,5e25c1a57d6cd1000cf870b8,689ed6d1281858f68c932c05,689f35fc37cb2af7d9a54aaf,,,,,,,,,,,,,,0,,,,,,,,,,,,,,,,,,,,,,,,,,,,,,,,,,,,,,,,,,,,,,,,,,,,,,,,,42,cadallo,,,,,849.116,850.901,0,1,1.238,,0,25,25,41,1,REAL,FAKE,,,,,,,,,,,,,,,,,
,,,,,,,,,5e25c1a57d6cd1000cf870b8,Mexican,13 or older,"no, only English or Spanish",no,2025-08-15_09h34.10.599,empathy_intonation_perc,2024.2.4,Win32,60.24096386,5e25c1a57d6cd1000cf870b8,689ed6d1281858f68c932c05,689f35fc37cb2af7d9a54aaf,,,,,,,,,,,,,,0,,,,,,,,,,,,,,,,,,,,,,,,,,,,,,,,,,,,,,,,,,,,,,,,,,,,,,,,,79,tropaje,,,,,850.903,852.59,0,1,1.148,,0,26,26,78,1,REAL,FAKE,,,,,,,,,,,,,,,,,
,,,,,,,,,5e25c1a57d6cd1000cf870b8,Mexican,13 or older,"no, only English or Spanish",no,2025-08-15_09h34.10.599,empathy_intonation_perc,2024.2.4,Win32,60.24096386,5e25c1a57d6cd1000cf870b8,689ed6d1281858f68c932c05,689f35fc37cb2af7d9a54aaf,,,,,,,,,,,,,,1,,,,,,,,,,,,,,,,,,,,,,,,,,,,,,,,,,,,,,,,,,,,,,,,,,,,,,,,,80,hormiga,,,,,852.593,854.354,1,1,1.212,,0,27,27,79,1,REAL,FAKE,,,,,,,,,,,,,,,,,
,,,,,,,,,5e25c1a57d6cd1000cf870b8,Mexican,13 or older,"no, only English or Spanish",no,2025-08-15_09h34.10.599,empathy_intonation_perc,2024.2.4,Win32,60.24096386,5e25c1a57d6cd1000cf870b8,689ed6d1281858f68c932c05,689f35fc37cb2af7d9a54aaf,,,,,,,,,,,,,,1,,,,,,,,,,,,,,,,,,,,,,,,,,,,,,,,,,,,,,,,,,,,,,,,,,,,,,,,,52,camisa,,,,,854.356,855.987,1,1,1.095,,0,28,28,51,1,REAL,FAKE,,,,,,,,,,,,,,,,,
,,,,,,,,,5e25c1a57d6cd1000cf870b8,Mexican,13 or older,"no, only English or Spanish",no,2025-08-15_09h34.10.599,empathy_intonation_perc,2024.2.4,Win32,60.24096386,5e25c1a57d6cd1000cf870b8,689ed6d1281858f68c932c05,689f35fc37cb2af7d9a54aaf,,,,,,,,,,,,,,1,,,,,,,,,,,,,,,,,,,,,,,,,,,,,,,,,,,,,,,,,,,,,,,,,,,,,,,,,51,candado,,,,,855.989,857.583,0,0,1.054,,0,29,29,50,1,REAL,FAKE,,,,,,,,,,,,,,,,,
,,,,,,,,,5e25c1a57d6cd1000cf870b8,Mexican,13 or older,"no, only English or Spanish",no,2025-08-15_09h34.10.599,empathy_intonation_perc,2024.2.4,Win32,60.24096386,5e25c1a57d6cd1000cf870b8,689ed6d1281858f68c932c05,689f35fc37cb2af7d9a54aaf,,,,,,,,,,,,,,1,,,,,,,,,,,,,,,,,,,,,,,,,,,,,,,,,,,,,,,,,,,,,,,,,,,,,,,,,85,laúd,,,,,857.588,860.362,1,1,2.233,,0,30,30,84,1,REAL,FAKE,,,,,,,,,,,,,,,,,
,,,,,,,,,5e25c1a57d6cd1000cf870b8,Mexican,13 or older,"no, only English or Spanish",no,2025-08-15_09h34.10.599,empathy_intonation_perc,2024.2.4,Win32,60.24096386,5e25c1a57d6cd1000cf870b8,689ed6d1281858f68c932c05,689f35fc37cb2af7d9a54aaf,,,,,,,,,,,,,,1,,,,,,,,,,,,,,,,,,,,,,,,,,,,,,,,,,,,,,,,,,,,,,,,,,,,,,,,,13,helar,,,,,860.367,861.996,0,0,1.085,,0,31,31,12,1,REAL,FAKE,,,,,,,,,,,,,,,,,
,,,,,,,,,5e25c1a57d6cd1000cf870b8,Mexican,13 or older,"no, only English or Spanish",no,2025-08-15_09h34.10.599,empathy_intonation_perc,2024.2.4,Win32,60.24096386,5e25c1a57d6cd1000cf870b8,689ed6d1281858f68c932c05,689f35fc37cb2af7d9a54aaf,,,,,,,,,,,,,,0,,,,,,,,,,,,,,,,,,,,,,,,,,,,,,,,,,,,,,,,,,,,,,,,,,,,,,,,,63,esposante,,,,,861.998,864.642,0,1,2.091,,0,32,32,62,1,REAL,FAKE,,,,,,,,,,,,,,,,,
,,,,,,,,,5e25c1a57d6cd1000cf870b8,Mexican,13 or older,"no, only English or Spanish",no,2025-08-15_09h34.10.599,empathy_intonation_perc,2024.2.4,Win32,60.24096386,5e25c1a57d6cd1000cf870b8,689ed6d1281858f68c932c05,689f35fc37cb2af7d9a54aaf,,,,,,,,,,,,,,1,,,,,,,,,,,,,,,,,,,,,,,,,,,,,,,,,,,,,,,,,,,,,,,,,,,,,,,,,38,estornudar,,,,,864.647,866.237,1,1,1.058,,0,33,33,37,1,REAL,FAKE,,,,,,,,,,,,,,,,,
,,,,,,,,,5e25c1a57d6cd1000cf870b8,Mexican,13 or older,"no, only English or Spanish",no,2025-08-15_09h34.10.599,empathy_intonation_perc,2024.2.4,Win32,60.24096386,5e25c1a57d6cd1000cf870b8,689ed6d1281858f68c932c05,689f35fc37cb2af7d9a54aaf,,,,,,,,,,,,,,1,,,,,,,,,,,,,,,,,,,,,,,,,,,,,,,,,,,,,,,,,,,,,,,,,,,,,,,,,68,alegre,,,,,866.244,867.804,1,1,1.027,,0,34,34,67,1,REAL,FAKE,,,,,,,,,,,,,,,,,
,,,,,,,,,5e25c1a57d6cd1000cf870b8,Mexican,13 or older,"no, only English or Spanish",no,2025-08-15_09h34.10.599,empathy_intonation_perc,2024.2.4,Win32,60.24096386,5e25c1a57d6cd1000cf870b8,689ed6d1281858f68c932c05,689f35fc37cb2af7d9a54aaf,,,,,,,,,,,,,,1,,,,,,,,,,,,,,,,,,,,,,,,,,,,,,,,,,,,,,,,,,,,,,,,,,,,,,,,,55,nevar,,,,,867.807,870.75,1,1,2.395,,0,35,35,54,1,REAL,FAKE,,,,,,,,,,,,,,,,,
,,,,,,,,,5e25c1a57d6cd1000cf870b8,Mexican,13 or older,"no, only English or Spanish",no,2025-08-15_09h34.10.599,empathy_intonation_perc,2024.2.4,Win32,60.24096386,5e25c1a57d6cd1000cf870b8,689ed6d1281858f68c932c05,689f35fc37cb2af7d9a54aaf,,,,,,,,,,,,,,1,,,,,,,,,,,,,,,,,,,,,,,,,,,,,,,,,,,,,,,,,,,,,,,,,,,,,,,,,83,guante,,,,,870.756,872.426,1,1,1.131,,0,36,36,82,1,REAL,FAKE,,,,,,,,,,,,,,,,,
,,,,,,,,,5e25c1a57d6cd1000cf870b8,Mexican,13 or older,"no, only English or Spanish",no,2025-08-15_09h34.10.599,empathy_intonation_perc,2024.2.4,Win32,60.24096386,5e25c1a57d6cd1000cf870b8,689ed6d1281858f68c932c05,689f35fc37cb2af7d9a54aaf,,,,,,,,,,,,,,1,,,,,,,,,,,,,,,,,,,,,,,,,,,,,,,,,,,,,,,,,,,,,,,,,,,,,,,,,57,tacaño,,,,,872.431,873.811,0,0,0.845,,0,37,37,56,1,REAL,FAKE,,,,,,,,,,,,,,,,,
,,,,,,,,,5e25c1a57d6cd1000cf870b8,Mexican,13 or older,"no, only English or Spanish",no,2025-08-15_09h34.10.599,empathy_intonation_perc,2024.2.4,Win32,60.24096386,5e25c1a57d6cd1000cf870b8,689ed6d1281858f68c932c05,689f35fc37cb2af7d9a54aaf,,,,,,,,,,,,,,1,,,,,,,,,,,,,,,,,,,,,,,,,,,,,,,,,,,,,,,,,,,,,,,,,,,,,,,,,20,ávido,,,,,873.814,876.975,1,1,2.624,,0,38,38,19,1,REAL,FAKE,,,,,,,,,,,,,,,,,
,,,,,,,,,5e25c1a57d6cd1000cf870b8,Mexican,13 or older,"no, only English or Spanish",no,2025-08-15_09h34.10.599,empathy_intonation_perc,2024.2.4,Win32,60.24096386,5e25c1a57d6cd1000cf870b8,689ed6d1281858f68c932c05,689f35fc37cb2af7d9a54aaf,,,,,,,,,,,,,,0,,,,,,,,,,,,,,,,,,,,,,,,,,,,,,,,,,,,,,,,,,,,,,,,,,,,,,,,,18,arsa,,,,,876.98,878.405,0,1,0.897,,0,39,39,17,1,REAL,FAKE,,,,,,,,,,,,,,,,,
,,,,,,,,,5e25c1a57d6cd1000cf870b8,Mexican,13 or older,"no, only English or Spanish",no,2025-08-15_09h34.10.599,empathy_intonation_perc,2024.2.4,Win32,60.24096386,5e25c1a57d6cd1000cf870b8,689ed6d1281858f68c932c05,689f35fc37cb2af7d9a54aaf,,,,,,,,,,,,,,1,,,,,,,,,,,,,,,,,,,,,,,,,,,,,,,,,,,,,,,,,,,,,,,,,,,,,,,,,78,frondoso,,,,,878.409,881.439,0,0,2.489,,0,40,40,77,1,REAL,FAKE,,,,,,,,,,,,,,,,,
,,,,,,,,,5e25c1a57d6cd1000cf870b8,Mexican,13 or older,"no, only English or Spanish",no,2025-08-15_09h34.10.599,empathy_intonation_perc,2024.2.4,Win32,60.24096386,5e25c1a57d6cd1000cf870b8,689ed6d1281858f68c932c05,689f35fc37cb2af7d9a54aaf,,,,,,,,,,,,,,0,,,,,,,,,,,,,,,,,,,,,,,,,,,,,,,,,,,,,,,,,,,,,,,,,,,,,,,,,70,temblo,,,,,881.44,885.109,0,1,3.131,,0,41,41,69,1,REAL,FAKE,,,,,,,,,,,,,,,,,
,,,,,,,,,5e25c1a57d6cd1000cf870b8,Mexican,13 or older,"no, only English or Spanish",no,2025-08-15_09h34.10.599,empathy_intonation_perc,2024.2.4,Win32,60.24096386,5e25c1a57d6cd1000cf870b8,689ed6d1281858f68c932c05,689f35fc37cb2af7d9a54aaf,,,,,,,,,,,,,,0,,,,,,,,,,,,,,,,,,,,,,,,,,,,,,,,,,,,,,,,,,,,,,,,,,,,,,,,,84,escuto,,,,,885.111,887.131,0,1,1.489,,0,42,42,83,1,REAL,FAKE,,,,,,,,,,,,,,,,,
,,,,,,,,,5e25c1a57d6cd1000cf870b8,Mexican,13 or older,"no, only English or Spanish",no,2025-08-15_09h34.10.599,empathy_intonation_perc,2024.2.4,Win32,60.24096386,5e25c1a57d6cd1000cf870b8,689ed6d1281858f68c932c05,689f35fc37cb2af7d9a54aaf,,,,,,,,,,,,,,1,,,,,,,,,,,,,,,,,,,,,,,,,,,,,,,,,,,,,,,,,,,,,,,,,,,,,,,,,15,regar,,,,,887.132,888.37,1,1,0.704,,0,43,43,14,1,REAL,FAKE,,,,,,,,,,,,,,,,,
,,,,,,,,,5e25c1a57d6cd1000cf870b8,Mexican,13 or older,"no, only English or Spanish",no,2025-08-15_09h34.10.599,empathy_intonation_perc,2024.2.4,Win32,60.24096386,5e25c1a57d6cd1000cf870b8,689ed6d1281858f68c932c05,689f35fc37cb2af7d9a54aaf,,,,,,,,,,,,,,0,,,,,,,,,,,,,,,,,,,,,,,,,,,,,,,,,,,,,,,,,,,,,,,,,,,,,,,,,8,cadeña,,,,,888.374,890.134,0,1,1.211,,0,44,44,7,1,REAL,FAKE,,,,,,,,,,,,,,,,,
,,,,,,,,,5e25c1a57d6cd1000cf870b8,Mexican,13 or older,"no, only English or Spanish",no,2025-08-15_09h34.10.599,empathy_intonation_perc,2024.2.4,Win32,60.24096386,5e25c1a57d6cd1000cf870b8,689ed6d1281858f68c932c05,689f35fc37cb2af7d9a54aaf,,,,,,,,,,,,,,1,,,,,,,,,,,,,,,,,,,,,,,,,,,,,,,,,,,,,,,,,,,,,,,,,,,,,,,,,6,tergiversar,,,,,890.139,893.682,1,1,3.002,,0,45,45,5,1,REAL,FAKE,,,,,,,,,,,,,,,,,
,,,,,,,,,5e25c1a57d6cd1000cf870b8,Mexican,13 or older,"no, only English or Spanish",no,2025-08-15_09h34.10.599,empathy_intonation_perc,2024.2.4,Win32,60.24096386,5e25c1a57d6cd1000cf870b8,689ed6d1281858f68c932c05,689f35fc37cb2af7d9a54aaf,,,,,,,,,,,,,,0,,,,,,,,,,,,,,,,,,,,,,,,,,,,,,,,,,,,,,,,,,,,,,,,,,,,,,,,,10,antar,,,,,893.685,895.477,0,1,1.25,,0,46,46,9,1,REAL,FAKE,,,,,,,,,,,,,,,,,
,,,,,,,,,5e25c1a57d6cd1000cf870b8,Mexican,13 or older,"no, only English or Spanish",no,2025-08-15_09h34.10.599,empathy_intonation_perc,2024.2.4,Win32,60.24096386,5e25c1a57d6cd1000cf870b8,689ed6d1281858f68c932c05,689f35fc37cb2af7d9a54aaf,,,,,,,,,,,,,,1,,,,,,,,,,,,,,,,,,,,,,,,,,,,,,,,,,,,,,,,,,,,,,,,,,,,,,,,,48,ladrón,,,,,895.487,897.191,1,1,1.165,,0,47,47,47,1,REAL,FAKE,,,,,,,,,,,,,,,,,
,,,,,,,,,5e25c1a57d6cd1000cf870b8,Mexican,13 or older,"no, only English or Spanish",no,2025-08-15_09h34.10.599,empathy_intonation_perc,2024.2.4,Win32,60.24096386,5e25c1a57d6cd1000cf870b8,689ed6d1281858f68c932c05,689f35fc37cb2af7d9a54aaf,,,,,,,,,,,,,,0,,,,,,,,,,,,,,,,,,,,,,,,,,,,,,,,,,,,,,,,,,,,,,,,,,,,,,,,,33,pauca,,,,,897.193,898.738,0,1,1.016,,0,48,48,32,1,REAL,FAKE,,,,,,,,,,,,,,,,,
,,,,,,,,,5e25c1a57d6cd1000cf870b8,Mexican,13 or older,"no, only English or Spanish",no,2025-08-15_09h34.10.599,empathy_intonation_perc,2024.2.4,Win32,60.24096386,5e25c1a57d6cd1000cf870b8,689ed6d1281858f68c932c05,689f35fc37cb2af7d9a54aaf,,,,,,,,,,,,,,0,,,,,,,,,,,,,,,,,,,,,,,,,,,,,,,,,,,,,,,,,,,,,,,,,,,,,,,,,66,hacido,,,,,898.741,901.142,0,1,1.859,,0,49,49,65,1,REAL,FAKE,,,,,,,,,,,,,,,,,
,,,,,,,,,5e25c1a57d6cd1000cf870b8,Mexican,13 or older,"no, only English or Spanish",no,2025-08-15_09h34.10.599,empathy_intonation_perc,2024.2.4,Win32,60.24096386,5e25c1a57d6cd1000cf870b8,689ed6d1281858f68c932c05,689f35fc37cb2af7d9a54aaf,,,,,,,,,,,,,,0,,,,,,,,,,,,,,,,,,,,,,,,,,,,,,,,,,,,,,,,,,,,,,,,,,,,,,,,,92,click the 0 key.,,,,,901.148,903.268,0,1,1.578,,0,50,50,91,1,REAL,FAKE,,,,,,,,,,,,,,,,,
,,,,,,,,,5e25c1a57d6cd1000cf870b8,Mexican,13 or older,"no, only English or Spanish",no,2025-08-15_09h34.10.599,empathy_intonation_perc,2024.2.4,Win32,60.24096386,5e25c1a57d6cd1000cf870b8,689ed6d1281858f68c932c05,689f35fc37cb2af7d9a54aaf,,,,,,,,,,,,,,1,,,,,,,,,,,,,,,,,,,,,,,,,,,,,,,,,,,,,,,,,,,,,,,,,,,,,,,,,56,musgo,,,,,903.272,905.461,0,0,1.655,,0,51,51,55,1,REAL,FAKE,,,,,,,,,,,,,,,,,
,,,,,,,,,5e25c1a57d6cd1000cf870b8,Mexican,13 or older,"no, only English or Spanish",no,2025-08-15_09h34.10.599,empathy_intonation_perc,2024.2.4,Win32,60.24096386,5e25c1a57d6cd1000cf870b8,689ed6d1281858f68c932c05,689f35fc37cb2af7d9a54aaf,,,,,,,,,,,,,,1,,,,,,,,,,,,,,,,,,,,,,,,,,,,,,,,,,,,,,,,,,,,,,,,,,,,,,,,,81,pozo,,,,,905.466,906.996,1,1,1.002,,0,52,52,80,1,REAL,FAKE,,,,,,,,,,,,,,,,,
,,,,,,,,,5e25c1a57d6cd1000cf870b8,Mexican,13 or older,"no, only English or Spanish",no,2025-08-15_09h34.10.599,empathy_intonation_perc,2024.2.4,Win32,60.24096386,5e25c1a57d6cd1000cf870b8,689ed6d1281858f68c932c05,689f35fc37cb2af7d9a54aaf,,,,,,,,,,,,,,1,,,,,,,,,,,,,,,,,,,,,,,,,,,,,,,,,,,,,,,,,,,,,,,,,,,,,,,,,77,tiburón,,,,,907.001,909.859,1,1,2.318,,0,53,53,76,1,REAL,FAKE,,,,,,,,,,,,,,,,,
,,,,,,,,,5e25c1a57d6cd1000cf870b8,Mexican,13 or older,"no, only English or Spanish",no,2025-08-15_09h34.10.599,empathy_intonation_perc,2024.2.4,Win32,60.24096386,5e25c1a57d6cd1000cf870b8,689ed6d1281858f68c932c05,689f35fc37cb2af7d9a54aaf,,,,,,,,,,,,,,1,,,,,,,,,,,,,,,,,,,,,,,,,,,,,,,,,,,,,,,,,,,,,,,,,,,,,,,,,61,seda,,,,,909.863,913.422,1,1,3.019,,0,54,54,60,1,REAL,FAKE,,,,,,,,,,,,,,,,,
,,,,,,,,,5e25c1a57d6cd1000cf870b8,Mexican,13 or older,"no, only English or Spanish",no,2025-08-15_09h34.10.599,empathy_intonation_perc,2024.2.4,Win32,60.24096386,5e25c1a57d6cd1000cf870b8,689ed6d1281858f68c932c05,689f35fc37cb2af7d9a54aaf,,,,,,,,,,,,,,1,,,,,,,,,,,,,,,,,,,,,,,,,,,,,,,,,,,,,,,,,,,,,,,,,,,,,,,,,3,pulmones,,,,,913.427,914.767,1,1,0.804,,0,55,55,2,1,REAL,FAKE,,,,,,,,,,,,,,,,,
,,,,,,,,,5e25c1a57d6cd1000cf870b8,Mexican,13 or older,"no, only English or Spanish",no,2025-08-15_09h34.10.599,empathy_intonation_perc,2024.2.4,Win32,60.24096386,5e25c1a57d6cd1000cf870b8,689ed6d1281858f68c932c05,689f35fc37cb2af7d9a54aaf,,,,,,,,,,,,,,0,,,,,,,,,,,,,,,,,,,,,,,,,,,,,,,,,,,,,,,,,,,,,,,,,,,,,,,,,82,empirador,,,,,914.772,916.211,0,1,0.9,,0,56,56,81,1,REAL,FAKE,,,,,,,,,,,,,,,,,
,,,,,,,,,5e25c1a57d6cd1000cf870b8,Mexican,13 or older,"no, only English or Spanish",no,2025-08-15_09h34.10.599,empathy_intonation_perc,2024.2.4,Win32,60.24096386,5e25c1a57d6cd1000cf870b8,689ed6d1281858f68c932c05,689f35fc37cb2af7d9a54aaf,,,,,,,,,,,,,,0,,,,,,,,,,,,,,,,,,,,,,,,,,,,,,,,,,,,,,,,,,,,,,,,,,,,,,,,,4,batillón,,,,,916.216,917.492,0,1,0.733,,0,57,57,3,1,REAL,FAKE,,,,,,,,,,,,,,,,,
,,,,,,,,,5e25c1a57d6cd1000cf870b8,Mexican,13 or older,"no, only English or Spanish",no,2025-08-15_09h34.10.599,empathy_intonation_perc,2024.2.4,Win32,60.24096386,5e25c1a57d6cd1000cf870b8,689ed6d1281858f68c932c05,689f35fc37cb2af7d9a54aaf,,,,,,,,,,,,,,1,,,,,,,,,,,,,,,,,,,,,,,,,,,,,,,,,,,,,,,,,,,,,,,,,,,,,,,,,24,látigo,,,,,917.496,920.005,1,1,1.979,,0,58,58,23,1,REAL,FAKE,,,,,,,,,,,,,,,,,
,,,,,,,,,5e25c1a57d6cd1000cf870b8,Mexican,13 or older,"no, only English or Spanish",no,2025-08-15_09h34.10.599,empathy_intonation_perc,2024.2.4,Win32,60.24096386,5e25c1a57d6cd1000cf870b8,689ed6d1281858f68c932c05,689f35fc37cb2af7d9a54aaf,,,,,,,,,,,,,,1,,,,,,,,,,,,,,,,,,,,,,,,,,,,,,,,,,,,,,,,,,,,,,,,,,,,,,,,,39,torpe,,,,,920.01,921.403,1,1,0.854,,0,59,59,38,1,REAL,FAKE,,,,,,,,,,,,,,,,,
,,,,,,,,,5e25c1a57d6cd1000cf870b8,Mexican,13 or older,"no, only English or Spanish",no,2025-08-15_09h34.10.599,empathy_intonation_perc,2024.2.4,Win32,60.24096386,5e25c1a57d6cd1000cf870b8,689ed6d1281858f68c932c05,689f35fc37cb2af7d9a54aaf,,,,,,,,,,,,,,1,,,,,,,,,,,,,,,,,,,,,,,,,,,,,,,,,,,,,,,,,,,,,,,,,,,,,,,,,59,besar,,,,,921.409,923.266,1,1,1.318,,0,60,60,58,1,REAL,FAKE,,,,,,,,,,,,,,,,,
,,,,,,,,,5e25c1a57d6cd1000cf870b8,Mexican,13 or older,"no, only English or Spanish",no,2025-08-15_09h34.10.599,empathy_intonation_perc,2024.2.4,Win32,60.24096386,5e25c1a57d6cd1000cf870b8,689ed6d1281858f68c932c05,689f35fc37cb2af7d9a54aaf,,,,,,,,,,,,,,1,,,,,,,,,,,,,,,,,,,,,,,,,,,,,,,,,,,,,,,,,,,,,,,,,,,,,,,,,43,canela,,,,,923.27,924.902,1,1,1.094,,0,61,61,42,1,REAL,FAKE,,,,,,,,,,,,,,,,,
,,,,,,,,,5e25c1a57d6cd1000cf870b8,Mexican,13 or older,"no, only English or Spanish",no,2025-08-15_09h34.10.599,empathy_intonation_perc,2024.2.4,Win32,60.24096386,5e25c1a57d6cd1000cf870b8,689ed6d1281858f68c932c05,689f35fc37cb2af7d9a54aaf,,,,,,,,,,,,,,0,,,,,,,,,,,,,,,,,,,,,,,,,,,,,,,,,,,,,,,,,,,,,,,,,,,,,,,,,87,grodo,,,,,924.905,927.244,0,1,1.797,,0,62,62,86,1,REAL,FAKE,,,,,,,,,,,,,,,,,
,,,,,,,,,5e25c1a57d6cd1000cf870b8,Mexican,13 or older,"no, only English or Spanish",no,2025-08-15_09h34.10.599,empathy_intonation_perc,2024.2.4,Win32,60.24096386,5e25c1a57d6cd1000cf870b8,689ed6d1281858f68c932c05,689f35fc37cb2af7d9a54aaf,,,,,,,,,,,,,,0,,,,,,,,,,,,,,,,,,,,,,,,,,,,,,,,,,,,,,,,,,,,,,,,,,,,,,,,,74,cintro,,,,,927.247,955.487,0,1,27.693,,0,63,63,73,1,REAL,FAKE,,,,,,,,,,,,,,,,,
,,,,,,,,,5e25c1a57d6cd1000cf870b8,Mexican,13 or older,"no, only English or Spanish",no,2025-08-15_09h34.10.599,empathy_intonation_perc,2024.2.4,Win32,60.24096386,5e25c1a57d6cd1000cf870b8,689ed6d1281858f68c932c05,689f35fc37cb2af7d9a54aaf,,,,,,,,,,,,,,0,,,,,,,,,,,,,,,,,,,,,,,,,,,,,,,,,,,,,,,,,,,,,,,,,,,,,,,,,32,fatacidad,,,,,955.494,959.364,1,0,3.326,,0,64,64,31,1,REAL,FAKE,,,,,,,,,,,,,,,,,
,,,,,,,,,5e25c1a57d6cd1000cf870b8,Mexican,13 or older,"no, only English or Spanish",no,2025-08-15_09h34.10.599,empathy_intonation_perc,2024.2.4,Win32,60.24096386,5e25c1a57d6cd1000cf870b8,689ed6d1281858f68c932c05,689f35fc37cb2af7d9a54aaf,,,,,,,,,,,,,,1,,,,,,,,,,,,,,,,,,,,,,,,,,,,,,,,,,,,,,,,,,,,,,,,,,,,,,,,,41,rebuscar,,,,,959.372,961.845,1,1,1.946,,0,65,65,40,1,REAL,FAKE,,,,,,,,,,,,,,,,,
,,,,,,,,,5e25c1a57d6cd1000cf870b8,Mexican,13 or older,"no, only English or Spanish",no,2025-08-15_09h34.10.599,empathy_intonation_perc,2024.2.4,Win32,60.24096386,5e25c1a57d6cd1000cf870b8,689ed6d1281858f68c932c05,689f35fc37cb2af7d9a54aaf,,,,,,,,,,,,,,1,,,,,,,,,,,,,,,,,,,,,,,,,,,,,,,,,,,,,,,,,,,,,,,,,,,,,,,,,40,alfombra,,,,,961.849,964.058,0,0,1.674,,0,66,66,39,1,REAL,FAKE,,,,,,,,,,,,,,,,,
,,,,,,,,,5e25c1a57d6cd1000cf870b8,Mexican,13 or older,"no, only English or Spanish",no,2025-08-15_09h34.10.599,empathy_intonation_perc,2024.2.4,Win32,60.24096386,5e25c1a57d6cd1000cf870b8,689ed6d1281858f68c932c05,689f35fc37cb2af7d9a54aaf,,,,,,,,,,,,,,1,,,,,,,,,,,,,,,,,,,,,,,,,,,,,,,,,,,,,,,,,,,,,,,,,,,,,,,,,9,hacha,,,,,964.081,966.072,1,1,1.468,,0,67,67,8,1,REAL,FAKE,,,,,,,,,,,,,,,,,
,,,,,,,,,5e25c1a57d6cd1000cf870b8,Mexican,13 or older,"no, only English or Spanish",no,2025-08-15_09h34.10.599,empathy_intonation_perc,2024.2.4,Win32,60.24096386,5e25c1a57d6cd1000cf870b8,689ed6d1281858f68c932c05,689f35fc37cb2af7d9a54aaf,,,,,,,,,,,,,,0,,,,,,,,,,,,,,,,,,,,,,,,,,,,,,,,,,,,,,,,,,,,,,,,,,,,,,,,,1,terzo,,,,,966.077,968.133,0,1,1.529,,0,68,68,0,1,REAL,FAKE,,,,,,,,,,,,,,,,,
,,,,,,,,,5e25c1a57d6cd1000cf870b8,Mexican,13 or older,"no, only English or Spanish",no,2025-08-15_09h34.10.599,empathy_intonation_perc,2024.2.4,Win32,60.24096386,5e25c1a57d6cd1000cf870b8,689ed6d1281858f68c932c05,689f35fc37cb2af7d9a54aaf,,,,,,,,,,,,,,1,,,,,,,,,,,,,,,,,,,,,,,,,,,,,,,,,,,,,,,,,,,,,,,,,,,,,,,,,90,clavel,,,,,968.137,969.585,0,0,0.907,,0,69,69,89,1,REAL,FAKE,,,,,,,,,,,,,,,,,
,,,,,,,,,5e25c1a57d6cd1000cf870b8,Mexican,13 or older,"no, only English or Spanish",no,2025-08-15_09h34.10.599,empathy_intonation_perc,2024.2.4,Win32,60.24096386,5e25c1a57d6cd1000cf870b8,689ed6d1281858f68c932c05,689f35fc37cb2af7d9a54aaf,,,,,,,,,,,,,,0,,,,,,,,,,,,,,,,,,,,,,,,,,,,,,,,,,,,,,,,,,,,,,,,,,,,,,,,,58,plaudir,,,,,969.591,971.328,0,1,1.202,,0,70,70,57,1,REAL,FAKE,,,,,,,,,,,,,,,,,
,,,,,,,,,5e25c1a57d6cd1000cf870b8,Mexican,13 or older,"no, only English or Spanish",no,2025-08-15_09h34.10.599,empathy_intonation_perc,2024.2.4,Win32,60.24096386,5e25c1a57d6cd1000cf870b8,689ed6d1281858f68c932c05,689f35fc37cb2af7d9a54aaf,,,,,,,,,,,,,,1,,,,,,,,,,,,,,,,,,,,,,,,,,,,,,,,,,,,,,,,,,,,,,,,,,,,,,,,,64,orgulloso,,,,,971.338,972.911,1,1,1.031,,0,71,71,63,1,REAL,FAKE,,,,,,,,,,,,,,,,,
,,,,,,,,,5e25c1a57d6cd1000cf870b8,Mexican,13 or older,"no, only English or Spanish",no,2025-08-15_09h34.10.599,empathy_intonation_perc,2024.2.4,Win32,60.24096386,5e25c1a57d6cd1000cf870b8,689ed6d1281858f68c932c05,689f35fc37cb2af7d9a54aaf,,,,,,,,,,,,,,1,,,,,,,,,,,,,,,,,,,,,,,,,,,,,,,,,,,,,,,,,,,,,,,,,,,,,,,,,76,atar,,,,,972.915,974.424,1,1,0.979,,0,72,72,75,1,REAL,FAKE,,,,,,,,,,,,,,,,,
,,,,,,,,,5e25c1a57d6cd1000cf870b8,Mexican,13 or older,"no, only English or Spanish",no,2025-08-15_09h34.10.599,empathy_intonation_perc,2024.2.4,Win32,60.24096386,5e25c1a57d6cd1000cf870b8,689ed6d1281858f68c932c05,689f35fc37cb2af7d9a54aaf,,,,,,,,,,,,,,0,,,,,,,,,,,,,,,,,,,,,,,,,,,,,,,,,,,,,,,,,,,,,,,,,,,,,,,,,27,acutación,,,,,974.427,975.738,0,1,0.786,,0,73,73,26,1,REAL,FAKE,,,,,,,,,,,,,,,,,
,,,,,,,,,5e25c1a57d6cd1000cf870b8,Mexican,13 or older,"no, only English or Spanish",no,2025-08-15_09h34.10.599,empathy_intonation_perc,2024.2.4,Win32,60.24096386,5e25c1a57d6cd1000cf870b8,689ed6d1281858f68c932c05,689f35fc37cb2af7d9a54aaf,,,,,,,,,,,,,,0,,,,,,,,,,,,,,,,,,,,,,,,,,,,,,,,,,,,,,,,,,,,,,,,,,,,,,,,,16,abracer,,,,,975.741,977.146,0,1,0.861,,0,74,74,15,1,REAL,FAKE,,,,,,,,,,,,,,,,,
,,,,,,,,,5e25c1a57d6cd1000cf870b8,Mexican,13 or older,"no, only English or Spanish",no,2025-08-15_09h34.10.599,empathy_intonation_perc,2024.2.4,Win32,60.24096386,5e25c1a57d6cd1000cf870b8,689ed6d1281858f68c932c05,689f35fc37cb2af7d9a54aaf,,,,,,,,,,,,,,1,,,,,,,,,,,,,,,,,,,,,,,,,,,,,,,,,,,,,,,,,,,,,,,,,,,,,,,,,46,martillo,,,,,977.147,978.408,1,1,0.729,,0,75,75,45,1,REAL,FAKE,,,,,,,,,,,,,,,,,
,,,,,,,,,5e25c1a57d6cd1000cf870b8,Mexican,13 or older,"no, only English or Spanish",no,2025-08-15_09h34.10.599,empathy_intonation_perc,2024.2.4,Win32,60.24096386,5e25c1a57d6cd1000cf870b8,689ed6d1281858f68c932c05,689f35fc37cb2af7d9a54aaf,,,,,,,,,,,,,,1,,,,,,,,,,,,,,,,,,,,,,,,,,,,,,,,,,,,,,,,,,,,,,,,,,,,,,,,,45,jilguero,,,,,978.41,980.19,0,0,1.246,,0,76,76,44,1,REAL,FAKE,,,,,,,,,,,,,,,,,
,,,,,,,,,5e25c1a57d6cd1000cf870b8,Mexican,13 or older,"no, only English or Spanish",no,2025-08-15_09h34.10.599,empathy_intonation_perc,2024.2.4,Win32,60.24096386,5e25c1a57d6cd1000cf870b8,689ed6d1281858f68c932c05,689f35fc37cb2af7d9a54aaf,,,,,,,,,,,,,,1,,,,,,,,,,,,,,,,,,,,,,,,,,,,,,,,,,,,,,,,,,,,,,,,,,,,,,,,,7,pésimo,,,,,980.192,1102.855,0,0,122.127,,0,77,77,6,1,REAL,FAKE,,,,,,,,,,,,,,,,,
,,,,,,,,,5e25c1a57d6cd1000cf870b8,Mexican,13 or older,"no, only English or Spanish",no,2025-08-15_09h34.10.599,empathy_intonation_perc,2024.2.4,Win32,60.24096386,5e25c1a57d6cd1000cf870b8,689ed6d1281858f68c932c05,689f35fc37cb2af7d9a54aaf,,,,,,,,,,,,,,0,,,,,,,,,,,,,,,,,,,,,,,,,,,,,,,,,,,,,,,,,,,,,,,,,,,,,,,,,53,vegada,,,,,1102.863,1104.267,0,1,0.87,,0,78,78,52,1,REAL,FAKE,,,,,,,,,,,,,,,,,
,,,,,,,,,5e25c1a57d6cd1000cf870b8,Mexican,13 or older,"no, only English or Spanish",no,2025-08-15_09h34.10.599,empathy_intonation_perc,2024.2.4,Win32,60.24096386,5e25c1a57d6cd1000cf870b8,689ed6d1281858f68c932c05,689f35fc37cb2af7d9a54aaf,,,,,,,,,,,,,,1,,,,,,,,,,,,,,,,,,,,,,,,,,,,,,,,,,,,,,,,,,,,,,,,,,,,,,,,,12,asesinato,,,,,1104.27,1106.225,1,1,1.422,,0,79,79,11,1,REAL,FAKE,,,,,,,,,,,,,,,,,
,,,,,,,,,5e25c1a57d6cd1000cf870b8,Mexican,13 or older,"no, only English or Spanish",no,2025-08-15_09h34.10.599,empathy_intonation_perc,2024.2.4,Win32,60.24096386,5e25c1a57d6cd1000cf870b8,689ed6d1281858f68c932c05,689f35fc37cb2af7d9a54aaf,,,,,,,,,,,,,,0,,,,,,,,,,,,,,,,,,,,,,,,,,,,,,,,,,,,,,,,,,,,,,,,,,,,,,,,,72,pemición,,,,,1106.232,1108.389,0,1,1.603,,0,80,80,71,1,REAL,FAKE,,,,,,,,,,,,,,,,,
,,,,,,,,,5e25c1a57d6cd1000cf870b8,Mexican,13 or older,"no, only English or Spanish",no,2025-08-15_09h34.10.599,empathy_intonation_perc,2024.2.4,Win32,60.24096386,5e25c1a57d6cd1000cf870b8,689ed6d1281858f68c932c05,689f35fc37cb2af7d9a54aaf,,,,,,,,,,,,,,1,,,,,,,,,,,,,,,,,,,,,,,,,,,,,,,,,,,,,,,,,,,,,,,,,,,,,,,,,22,lacayo,,,,,1108.394,1110.604,0,0,1.667,,0,81,81,21,1,REAL,FAKE,,,,,,,,,,,,,,,,,
,,,,,,,,,5e25c1a57d6cd1000cf870b8,Mexican,13 or older,"no, only English or Spanish",no,2025-08-15_09h34.10.599,empathy_intonation_perc,2024.2.4,Win32,60.24096386,5e25c1a57d6cd1000cf870b8,689ed6d1281858f68c932c05,689f35fc37cb2af7d9a54aaf,,,,,,,,,,,,,,1,,,,,,,,,,,,,,,,,,,,,,,,,,,,,,,,,,,,,,,,,,,,,,,,,,,,,,,,,60,matar,,,,,1110.609,1111.719,1,1,0.564,,0,82,82,59,1,REAL,FAKE,,,,,,,,,,,,,,,,,
,,,,,,,,,5e25c1a57d6cd1000cf870b8,Mexican,13 or older,"no, only English or Spanish",no,2025-08-15_09h34.10.599,empathy_intonation_perc,2024.2.4,Win32,60.24096386,5e25c1a57d6cd1000cf870b8,689ed6d1281858f68c932c05,689f35fc37cb2af7d9a54aaf,,,,,,,,,,,,,,0,,,,,,,,,,,,,,,,,,,,,,,,,,,,,,,,,,,,,,,,,,,,,,,,,,,,,,,,,47,cartinar,,,,,1111.722,1113.281,1,0,1.02,,0,83,83,46,1,REAL,FAKE,,,,,,,,,,,,,,,,,
,,,,,,,,,5e25c1a57d6cd1000cf870b8,Mexican,13 or older,"no, only English or Spanish",no,2025-08-15_09h34.10.599,empathy_intonation_perc,2024.2.4,Win32,60.24096386,5e25c1a57d6cd1000cf870b8,689ed6d1281858f68c932c05,689f35fc37cb2af7d9a54aaf,,,,,,,,,,,,,,1,,,,,,,,,,,,,,,,,,,,,,,,,,,,,,,,,,,,,,,,,,,,,,,,,,,,,,,,,2,pellizcar,,,,,1113.284,1115.111,1,1,1.284,,0,84,84,1,1,REAL,FAKE,,,,,,,,,,,,,,,,,
,,,,,,,,,5e25c1a57d6cd1000cf870b8,Mexican,13 or older,"no, only English or Spanish",no,2025-08-15_09h34.10.599,empathy_intonation_perc,2024.2.4,Win32,60.24096386,5e25c1a57d6cd1000cf870b8,689ed6d1281858f68c932c05,689f35fc37cb2af7d9a54aaf,,,,,,,,,,,,,,1,,,,,,,,,,,,,,,,,,,,,,,,,,,,,,,,,,,,,,,,,,,,,,,,,,,,,,,,,88,acantilado,,,,,1115.115,1117.717,1,1,2.057,,0,85,85,87,1,REAL,FAKE,,,,,,,,,,,,,,,,,
,,,,,,,,,5e25c1a57d6cd1000cf870b8,Mexican,13 or older,"no, only English or Spanish",no,2025-08-15_09h34.10.599,empathy_intonation_perc,2024.2.4,Win32,60.24096386,5e25c1a57d6cd1000cf870b8,689ed6d1281858f68c932c05,689f35fc37cb2af7d9a54aaf,,,,,,,,,,,,,,1,,,,,,,,,,,,,,,,,,,,,,,,,,,,,,,,,,,,,,,,,,,,,,,,,,,,,,,,,37,granuja,,,,,1117.722,1120.338,0,0,2.087,,0,86,86,36,1,REAL,FAKE,,,,,,,,,,,,,,,,,
,,,,,,,,,5e25c1a57d6cd1000cf870b8,Mexican,13 or older,"no, only English or Spanish",no,2025-08-15_09h34.10.599,empathy_intonation_perc,2024.2.4,Win32,60.24096386,5e25c1a57d6cd1000cf870b8,689ed6d1281858f68c932c05,689f35fc37cb2af7d9a54aaf,,,,,,,,,,,,,,1,,,,,,,,,,,,,,,,,,,,,,,,,,,,,,,,,,,,,,,,,,,,,,,,,,,,,,,,,73,hervidor,,,,,1120.341,1122.558,1,1,1.671,,0,87,87,72,1,REAL,FAKE,,,,,,,,,,,,,,,,,
,,,,,,,,,5e25c1a57d6cd1000cf870b8,Mexican,13 or older,"no, only English or Spanish",no,2025-08-15_09h34.10.599,empathy_intonation_perc,2024.2.4,Win32,60.24096386,5e25c1a57d6cd1000cf870b8,689ed6d1281858f68c932c05,689f35fc37cb2af7d9a54aaf,,,,,,,,,,,,,,0,,,,,,,,,,,,,,,,,,,,,,,,,,,,,,,,,,,,,,,,,,,,,,,,,,,,,,,,,23,lampera,,,,,1122.56,1124.482,0,1,1.383,,0,88,88,22,1,REAL,FAKE,,,,,,,,,,,,,,,,,
,,,,,,,,,5e25c1a57d6cd1000cf870b8,Mexican,13 or older,"no, only English or Spanish",no,2025-08-15_09h34.10.599,empathy_intonation_perc,2024.2.4,Win32,60.24096386,5e25c1a57d6cd1000cf870b8,689ed6d1281858f68c932c05,689f35fc37cb2af7d9a54aaf,,,,,,,,,,,,,,1,,,,,,,,,,,,,,,,,,,,,,,,,,,,,,,,,,,,,,,,,,,,,,,,,,,,,,,,,31,pandilla,,,,,1124.49,1125.912,1,1,0.844,,0,89,89,30,1,REAL,FAKE,,,,,,,,,,,,,,,,,
,,,,,,,,,5e25c1a57d6cd1000cf870b8,Mexican,13 or older,"no, only English or Spanish",no,2025-08-15_09h34.10.599,empathy_intonation_perc,2024.2.4,Win32,60.24096386,5e25c1a57d6cd1000cf870b8,689ed6d1281858f68c932c05,689f35fc37cb2af7d9a54aaf,,,,,,,,,,,,,,0,,,,,,,,,,,,,,,,,,,,,,,,,,,,,,,,,,,,,,,,,,,,,,,,,,,,,,,,,30,alardio,,,,,1125.916,1127.659,0,1,1.199,,0,90,90,29,1,REAL,FAKE,,,,,,,,,,,,,,,,,
,,,,,,,,,5e25c1a57d6cd1000cf870b8,Mexican,13 or older,"no, only English or Spanish",no,2025-08-15_09h34.10.599,empathy_intonation_perc,2024.2.4,Win32,60.24096386,5e25c1a57d6cd1000cf870b8,689ed6d1281858f68c932c05,689f35fc37cb2af7d9a54aaf,,,,,,,,,,,,,,1,,,,,,,,,,,,,,,,,,,,,,,,,,,,,,,,,,,,,,,,,,,,,,,,,,,,,,,,,25,bisagra,,,,,1127.662,1129.074,1,1,0.87,,0,91,91,24,1,REAL,FAKE,,,,,,,,,,,,,,,,,
,,,,,,,,,5e25c1a57d6cd1000cf870b8,Mexican,13 or older,"no, only English or Spanish",no,2025-08-15_09h34.10.599,empathy_intonation_perc,2024.2.4,Win32,60.24096386,5e25c1a57d6cd1000cf870b8,689ed6d1281858f68c932c05,689f35fc37cb2af7d9a54aaf,,,,,,,,,,,,,,,,,,,,,,,,,,,,,,,,,,,,,,,,,,,,,,,,,,,,,,,,,,,,,,,,,,,,,,,,,,,,,,,,,,,,,,,,,,1129.076,1145.832,,,,,,,,,,,,,,,
,,,,,,,,,5e25c1a57d6cd1000cf870b8,Mexican,13 or older,"no, only English or Spanish",no,2025-08-15_09h34.10.599,empathy_intonation_perc,2024.2.4,Win32,60.24096386,5e25c1a57d6cd1000cf870b8,689ed6d1281858f68c932c05,689f35fc37cb2af7d9a54aaf,,,,,,,,,,,,,1,,,,,,,,,,,,,,,,,,,,,,,,,,,,,,,,,,,,,,,,,,,,,,,,,,,,,,,,,,,,,,,,,,,,,,,,,,,,,,,1145.88,1152.415,slightly agree,0,0,0,0,1,I can easily tell if someone else wants to enter a conversation.,1,0,1,0,,
,,,,,,,,,5e25c1a57d6cd1000cf870b8,Mexican,13 or older,"no, only English or Spanish",no,2025-08-15_09h34.10.599,empathy_intonation_perc,2024.2.4,Win32,60.24096386,5e25c1a57d6cd1000cf870b8,689ed6d1281858f68c932c05,689f35fc37cb2af7d9a54aaf,,,,,,,,,,,,,2,,,,,,,,,,,,,,,,,,,,,,,,,,,,,,,,,,,,,,,,,,,,,,,,,,,,,,,,,,,,,,,,,,,,,,,,,,,,,,,1152.418,1156.296,slightly disagree,0,1,1,1,1,I prefer animals to humans.,0,1,0,0,,
,,,,,,,,,5e25c1a57d6cd1000cf870b8,Mexican,13 or older,"no, only English or Spanish",no,2025-08-15_09h34.10.599,empathy_intonation_perc,2024.2.4,Win32,60.24096386,5e25c1a57d6cd1000cf870b8,689ed6d1281858f68c932c05,689f35fc37cb2af7d9a54aaf,,,,,,,,,,,,,3,,,,,,,,,,,,,,,,,,,,,,,,,,,,,,,,,,,,,,,,,,,,,,,,,,,,,,,,,,,,,,,,,,,,,,,,,,,,,,,1156.299,1161.162,strongly agree,0,2,2,2,1,I try to keep up with the current trends and fashions.,0,1,0,0,,
,,,,,,,,,5e25c1a57d6cd1000cf870b8,Mexican,13 or older,"no, only English or Spanish",no,2025-08-15_09h34.10.599,empathy_intonation_perc,2024.2.4,Win32,60.24096386,5e25c1a57d6cd1000cf870b8,689ed6d1281858f68c932c05,689f35fc37cb2af7d9a54aaf,,,,,,,,,,,,,4,,,,,,,,,,,,,,,,,,,,,,,,,,,,,,,,,,,,,,,,,,,,,,,,,,,,,,,,,,,,,,,,,,,,,,,,,,,,,,,1161.167,1176.868,strongly disagree,0,3,3,3,1,"I find it difficult to explain to others things that I understand easily,   when they don't understand it first time.",1,0,0,1,,
,,,,,,,,,5e25c1a57d6cd1000cf870b8,Mexican,13 or older,"no, only English or Spanish",no,2025-08-15_09h34.10.599,empathy_intonation_perc,2024.2.4,Win32,60.24096386,5e25c1a57d6cd1000cf870b8,689ed6d1281858f68c932c05,689f35fc37cb2af7d9a54aaf,,,,,,,,,,,,,5,,,,,,,,,,,,,,,,,,,,,,,,,,,,,,,,,,,,,,,,,,,,,,,,,,,,,,,,,,,,,,,,,,,,,,,,,,,,,,,1176.874,1180.296,slightly disagree,0,4,4,4,1,I dream most nights.,0,1,0,0,,
,,,,,,,,,5e25c1a57d6cd1000cf870b8,Mexican,13 or older,"no, only English or Spanish",no,2025-08-15_09h34.10.599,empathy_intonation_perc,2024.2.4,Win32,60.24096386,5e25c1a57d6cd1000cf870b8,689ed6d1281858f68c932c05,689f35fc37cb2af7d9a54aaf,,,,,,,,,,,,,6,,,,,,,,,,,,,,,,,,,,,,,,,,,,,,,,,,,,,,,,,,,,,,,,,,,,,,,,,,,,,,,,,,,,,,,,,,,,,,,1180.303,1188.539,slightly agree,0,5,5,5,1,I really enjoy caring for other people.,1,0,1,0,,
,,,,,,,,,5e25c1a57d6cd1000cf870b8,Mexican,13 or older,"no, only English or Spanish",no,2025-08-15_09h34.10.599,empathy_intonation_perc,2024.2.4,Win32,60.24096386,5e25c1a57d6cd1000cf870b8,689ed6d1281858f68c932c05,689f35fc37cb2af7d9a54aaf,,,,,,,,,,,,,7,,,,,,,,,,,,,,,,,,,,,,,,,,,,,,,,,,,,,,,,,,,,,,,,,,,,,,,,,,,,,,,,,,,,,,,,,,,,,,,1188.542,1193.051,strongly agree,0,6,6,6,1,I try to solve my own problems rather than discussing them with others.,0,1,0,0,,
,,,,,,,,,5e25c1a57d6cd1000cf870b8,Mexican,13 or older,"no, only English or Spanish",no,2025-08-15_09h34.10.599,empathy_intonation_perc,2024.2.4,Win32,60.24096386,5e25c1a57d6cd1000cf870b8,689ed6d1281858f68c932c05,689f35fc37cb2af7d9a54aaf,,,,,,,,,,,,,8,,,,,,,,,,,,,,,,,,,,,,,,,,,,,,,,,,,,,,,,,,,,,,,,,,,,,,,,,,,,,,,,,,,,,,,,,,,,,,,1193.055,1198.764,strongly disagree,0,7,7,7,1,I find it hard to know what to do in a social situation.,1,0,0,1,,
,,,,,,,,,5e25c1a57d6cd1000cf870b8,Mexican,13 or older,"no, only English or Spanish",no,2025-08-15_09h34.10.599,empathy_intonation_perc,2024.2.4,Win32,60.24096386,5e25c1a57d6cd1000cf870b8,689ed6d1281858f68c932c05,689f35fc37cb2af7d9a54aaf,,,,,,,,,,,,,9,,,,,,,,,,,,,,,,,,,,,,,,,,,,,,,,,,,,,,,,,,,,,,,,,,,,,,,,,,,,,,,,,,,,,,,,,,,,,,,1198.766,1265.24,strongly agree,0,8,8,8,1,I am at my best first thing in the morning.,0,1,0,0,,
,,,,,,,,,5e25c1a57d6cd1000cf870b8,Mexican,13 or older,"no, only English or Spanish",no,2025-08-15_09h34.10.599,empathy_intonation_perc,2024.2.4,Win32,60.24096386,5e25c1a57d6cd1000cf870b8,689ed6d1281858f68c932c05,689f35fc37cb2af7d9a54aaf,,,,,,,,,,,,,10,,,,,,,,,,,,,,,,,,,,,,,,,,,,,,,,,,,,,,,,,,,,,,,,,,,,,,,,,,,,,,,,,,,,,,,,,,,,,,,1265.246,1284.44,slightly disagree,0,9,9,9,1,People often tell me that I went too far in driving my point home in a discussion.,1,0,0,1,,
,,,,,,,,,5e25c1a57d6cd1000cf870b8,Mexican,13 or older,"no, only English or Spanish",no,2025-08-15_09h34.10.599,empathy_intonation_perc,2024.2.4,Win32,60.24096386,5e25c1a57d6cd1000cf870b8,689ed6d1281858f68c932c05,689f35fc37cb2af7d9a54aaf,,,,,,,,,,,,,11,,,,,,,,,,,,,,,,,,,,,,,,,,,,,,,,,,,,,,,,,,,,,,,,,,,,,,,,,,,,,,,,,,,,,,,,,,,,,,,1284.448,1292.012,strongly disagree,0,10,10,10,1,It doesn't bother me too much if I am late meeting a friend.,1,0,0,1,,
