instructions_exposure.started,instructions_exposure.stopped,instructions_exposure_loop.thisRepN,instructions_exposure_loop.thisTrialN,instructions_exposure_loop.thisN,instructions_exposure_loop.thisIndex,instructions_exposure_loop.ran,instructions_text,continue_text,participant_id,"What variety of Spanish are you most familiar with? (e.g., Peruvian, Spanish, Mexican)",At what age did you begin learning Spanish?,Are you proficient in any languages other than English/Spanish?,"Are you familiar with Caribbean (e.g., Caribbean, Puerto Rican) or Galician Spanish?",date,expName,psychopyVersion,OS,frameRate,id,study_id,session,trial_exposure.started,trial_exposure.stopped,key_resp_exposure.keys,key_resp_exposure.corr,key_resp_exposure.rt,key_resp_exposure.duration,key_resp.keys,exposure_loop.thisRepN,exposure_loop.thisTrialN,exposure_loop.thisN,exposure_loop.thisIndex,exposure_loop.ran,item_num,correct_response,question,path,duration,instructions_2afc.started,instructions_2afc.stopped,instructions_2afc_loop.thisRepN,instructions_2afc_loop.thisTrialN,instructions_2afc_loop.thisN,instructions_2afc_loop.thisIndex,instructions_2afc_loop.ran,practice_2afc.started,practice_2afc.stopped,key_resp_2afc_practice.keys,key_resp_2afc_practice.corr,key_resp_2afc_practice.rt,key_resp_2afc_practice.duration,trials_2afc_practice_loop.thisRepN,trials_2afc_practice_loop.thisTrialN,trials_2afc_practice_loop.thisN,trials_2afc_practice_loop.thisIndex,trials_2afc_practice_loop.ran,check_2afc.started,check_2afc.stopped,trial_2afc.started,trial_2afc.stopped,key_resp_2afc_trial.keys,key_resp_2afc_trial.corr,key_resp_2afc_trial.rt,key_resp_2afc_trial.duration,trials_2afc_loop.thisRepN,trials_2afc_loop.thisTrialN,trials_2afc_loop.thisN,trials_2afc_loop.thisIndex,trials_2afc_loop.ran,target,variety,instructions_lextale.started,instructions_lextale.stopped,instructions_lextale_loop.thisRepN,instructions_lextale_loop.thisTrialN,instructions_lextale_loop.thisN,instructions_lextale_loop.thisIndex,instructions_lextale_loop.ran,practice_lextale.started,practice_lextale.stopped,key_resp_lextale_practice.keys,key_resp_lextale_practice.corr,key_resp_lextale_practice.rt,key_resp_lextale_practice.duration,practice_feedback_lextale.started,practice_feedback_lextale.stopped,trials_lextale_practice_loop.thisRepN,trials_lextale_practice_loop.thisTrialN,trials_lextale_practice_loop.thisN,trials_lextale_practice_loop.thisIndex,trials_lextale_practice_loop.ran,stim,word,prac_button_real,prac_button_false,check_lextale.started,check_lextale.stopped,trial_lextale.started,trial_lextale.stopped,key_resp_lextale_trial.keys,key_resp_lextale_trial.corr,key_resp_lextale_trial.rt,key_resp_lextale_trial.duration,trials_lextale_loop.thisRepN,trials_lextale_loop.thisTrialN,trials_lextale_loop.thisN,trials_lextale_loop.thisIndex,trials_lextale_loop.ran,button_real,button_false,instructions_eq.started,instructions_eq.stopped,trial_eq.started,trial_eq.stopped,slider_eq_trial.response,trials_eq_loop.thisRepN,trials_eq_loop.thisTrialN,trials_eq_loop.thisN,trials_eq_loop.thisIndex,trials_eq_loop.ran,item,is_test_item,is_distractor,is_agree_score,is_disagree_score,end_exp.started,end_exp.stopped
0.014,2.7843,0,0,0,0,1,"In the following task, you are going to hear a series of conversations.", (press the space bar to continue),5e51c83155087a204d8e7f1f,spanish,13 or older,"no, only English or Spanish",no,2025-07-23_07h14.26.202,empathy_intonation_perc,2024.2.4,MacIntel,59.52380952,5e51c83155087a204d8e7f1f,687ed1b7e638a4cbf2f02089,6880c3c77e0681e06b644498,,,,,,,,,,,,,,,,,,,,,,,,,,,,,,,,,,,,,,,,,,,,,,,,,,,,,,,,,,,,,,,,,,,,,,,,,,,,,,,,,,,,,,,,,,,,,,,,,,,,,,,,,,
2.7847,8.1522,0,1,1,1,1,It is okay if you don't not 100% understand them!, (press the space bar to continue),5e51c83155087a204d8e7f1f,spanish,13 or older,"no, only English or Spanish",no,2025-07-23_07h14.26.202,empathy_intonation_perc,2024.2.4,MacIntel,59.52380952,5e51c83155087a204d8e7f1f,687ed1b7e638a4cbf2f02089,6880c3c77e0681e06b644498,,,,,,,,,,,,,,,,,,,,,,,,,,,,,,,,,,,,,,,,,,,,,,,,,,,,,,,,,,,,,,,,,,,,,,,,,,,,,,,,,,,,,,,,,,,,,,,,,,,,,,,,,,
8.1528,12.6541,0,2,2,2,1,"After, you will read a sentence about the conversation and decide if it's true or false.", (press the space bar to continue),5e51c83155087a204d8e7f1f,spanish,13 or older,"no, only English or Spanish",no,2025-07-23_07h14.26.202,empathy_intonation_perc,2024.2.4,MacIntel,59.52380952,5e51c83155087a204d8e7f1f,687ed1b7e638a4cbf2f02089,6880c3c77e0681e06b644498,,,,,,,,,,,,,,,,,,,,,,,,,,,,,,,,,,,,,,,,,,,,,,,,,,,,,,,,,,,,,,,,,,,,,,,,,,,,,,,,,,,,,,,,,,,,,,,,,,,,,,,,,,
12.6548,22.9908,0,3,3,3,1,"If it's true, press '1' (True) and if it's false press '0' (False).", (press the space bar to continue),5e51c83155087a204d8e7f1f,spanish,13 or older,"no, only English or Spanish",no,2025-07-23_07h14.26.202,empathy_intonation_perc,2024.2.4,MacIntel,59.52380952,5e51c83155087a204d8e7f1f,687ed1b7e638a4cbf2f02089,6880c3c77e0681e06b644498,,,,,,,,,,,,,,,,,,,,,,,,,,,,,,,,,,,,,,,,,,,,,,,,,,,,,,,,,,,,,,,,,,,,,,,,,,,,,,,,,,,,,,,,,,,,,,,,,,,,,,,,,,
,,,,,,,,,5e51c83155087a204d8e7f1f,spanish,13 or older,"no, only English or Spanish",no,2025-07-23_07h14.26.202,empathy_intonation_perc,2024.2.4,MacIntel,59.52380952,5e51c83155087a204d8e7f1f,687ed1b7e638a4cbf2f02089,6880c3c77e0681e06b644498,22.9961,83.4621,0,0,13.4127,,,0,0,0,0,1,1,1,The son asked the mom if Aunt Marina is okay.,./stim/exposure_wavs/ga_stimuli_convo.wav,47,,,,,,,,,,,,,,,,,,,,,,,,,,,,,,,,,,,,,,,,,,,,,,,,,,,,,,,,,,,,,,,,,,,,,,,,,,,,,,,,,,,,,,,,,
,,,,,,,,,5e51c83155087a204d8e7f1f,spanish,13 or older,"no, only English or Spanish",no,2025-07-23_07h14.26.202,empathy_intonation_perc,2024.2.4,MacIntel,59.52380952,5e51c83155087a204d8e7f1f,687ed1b7e638a4cbf2f02089,6880c3c77e0681e06b644498,83.4631,151.9339,0,0,8.4445,,,0,1,1,1,1,2,1,The mom asked the daughter if she already went to the supermarket.,./stim/exposure_wavs/dr_stimuli_convo.wav,60,,,,,,,,,,,,,,,,,,,,,,,,,,,,,,,,,,,,,,,,,,,,,,,,,,,,,,,,,,,,,,,,,,,,,,,,,,,,,,,,,,,,,,,,,
,,,,,,,,,5e51c83155087a204d8e7f1f,spanish,13 or older,"no, only English or Spanish",no,2025-07-23_07h14.26.202,empathy_intonation_perc,2024.2.4,MacIntel,59.52380952,5e51c83155087a204d8e7f1f,687ed1b7e638a4cbf2f02089,6880c3c77e0681e06b644498,151.9348,199.0841,1,0,11.1137,,,0,2,2,2,1,3,0,The mom already has rice.,./stim/exposure_wavs/pr_stimuli_convo.wav,36,,,,,,,,,,,,,,,,,,,,,,,,,,,,,,,,,,,,,,,,,,,,,,,,,,,,,,,,,,,,,,,,,,,,,,,,,,,,,,,,,,,,,,,,,
,,,,,,,"In the following task you are going to hear a series of utterances. 

  You will decide if the utterances sound like questions or not using your keyboard.", (press the spacebar to continue),5e51c83155087a204d8e7f1f,spanish,13 or older,"no, only English or Spanish",no,2025-07-23_07h14.26.202,empathy_intonation_perc,2024.2.4,MacIntel,59.52380952,5e51c83155087a204d8e7f1f,687ed1b7e638a4cbf2f02089,6880c3c77e0681e06b644498,,,,,,,,,,,,,,,,,,199.0882,206.8201,0,0,0,0,1,,,,,,,,,,,,,,,,,,,,,,,,,,,,,,,,,,,,,,,,,,,,,,,,,,,,,,,,,,,,,,,,,,,,,,,,,,,,,,,,,,
,,,,,,,"If you believe the utterance is a question, type '1' (for 'yes') and if you do not 
  believe it is a question type '0' (for 'no').

  Let's practice a bit...", (press the spacebar to continue),5e51c83155087a204d8e7f1f,spanish,13 or older,"no, only English or Spanish",no,2025-07-23_07h14.26.202,empathy_intonation_perc,2024.2.4,MacIntel,59.52380952,5e51c83155087a204d8e7f1f,687ed1b7e638a4cbf2f02089,6880c3c77e0681e06b644498,,,,,,,,,,,,,,,,,,206.821,209.2042,0,1,1,1,1,,,,,,,,,,,,,,,,,,,,,,,,,,,,,,,,,,,,,,,,,,,,,,,,,,,,,,,,,,,,,,,,,,,,,,,,,,,,,,,,,,
,,,,,,,,,5e51c83155087a204d8e7f1f,spanish,13 or older,"no, only English or Spanish",no,2025-07-23_07h14.26.202,empathy_intonation_perc,2024.2.4,MacIntel,59.52380952,5e51c83155087a204d8e7f1f,687ed1b7e638a4cbf2f02089,6880c3c77e0681e06b644498,,,,,,,,,,,,,,0,,./stim/wavs/puertorican_statement_filler_La-nina-pinta-con-su-amiga.wav,,,,,,,,,209.2086,212.8209,0,1,3.0835,,0,0,0,7,1,,,,,,,,,,,,,,,,,,,,,,,,,,,,,,,,,,,,,,,,,,,,,,,,,,,,,,,,,,,,,,,,,,,,,,,
,,,,,,,,,5e51c83155087a204d8e7f1f,spanish,13 or older,"no, only English or Spanish",no,2025-07-23_07h14.26.202,empathy_intonation_perc,2024.2.4,MacIntel,59.52380952,5e51c83155087a204d8e7f1f,687ed1b7e638a4cbf2f02089,6880c3c77e0681e06b644498,,,,,,,,,,,,,,1,,./stim/wavs/castilian_question_filler_Mi-esposo-conoce-al-chico.wav,,,,,,,,,212.8214,216.2725,1,1,2.9339,,0,1,1,0,1,,,,,,,,,,,,,,,,,,,,,,,,,,,,,,,,,,,,,,,,,,,,,,,,,,,,,,,,,,,,,,,,,,,,,,,
,,,,,,,,,5e51c83155087a204d8e7f1f,spanish,13 or older,"no, only English or Spanish",no,2025-07-23_07h14.26.202,empathy_intonation_perc,2024.2.4,MacIntel,59.52380952,5e51c83155087a204d8e7f1f,687ed1b7e638a4cbf2f02089,6880c3c77e0681e06b644498,,,,,,,,,,,,,,1,,./stim/wavs/chilean_question_filler_Mi-padre-cantaba-bien.wav,,,,,,,,,216.2728,219.0732,0,0,2.2872,,0,2,2,2,1,,,,,,,,,,,,,,,,,,,,,,,,,,,,,,,,,,,,,,,,,,,,,,,,,,,,,,,,,,,,,,,,,,,,,,,
,,,,,,,,,5e51c83155087a204d8e7f1f,spanish,13 or older,"no, only English or Spanish",no,2025-07-23_07h14.26.202,empathy_intonation_perc,2024.2.4,MacIntel,59.52380952,5e51c83155087a204d8e7f1f,687ed1b7e638a4cbf2f02089,6880c3c77e0681e06b644498,,,,,,,,,,,,,,1,,./stim/wavs/mexican_question_filler_Felipe-no-tiene-contrasena.wav,,,,,,,,,219.0737,221.5071,1,1,1.9007,,0,3,3,3,1,,,,,,,,,,,,,,,,,,,,,,,,,,,,,,,,,,,,,,,,,,,,,,,,,,,,,,,,,,,,,,,,,,,,,,,
,,,,,,,,,5e51c83155087a204d8e7f1f,spanish,13 or older,"no, only English or Spanish",no,2025-07-23_07h14.26.202,empathy_intonation_perc,2024.2.4,MacIntel,59.52380952,5e51c83155087a204d8e7f1f,687ed1b7e638a4cbf2f02089,6880c3c77e0681e06b644498,,,,,,,,,,,,,,0,,./stim/wavs/peruvian_statement_filler_El-nino-habla-con-su-madre.wav,,,,,,,,,221.5074,224.208,0,1,2.185,,0,4,4,6,1,,,,,,,,,,,,,,,,,,,,,,,,,,,,,,,,,,,,,,,,,,,,,,,,,,,,,,,,,,,,,,,,,,,,,,,
,,,,,,,,,5e51c83155087a204d8e7f1f,spanish,13 or older,"no, only English or Spanish",no,2025-07-23_07h14.26.202,empathy_intonation_perc,2024.2.4,MacIntel,59.52380952,5e51c83155087a204d8e7f1f,687ed1b7e638a4cbf2f02089,6880c3c77e0681e06b644498,,,,,,,,,,,,,,0,,./stim/wavs/cuban_statement_filler_Cocinabas-por-la-noche.wav,,,,,,,,,224.2082,226.2753,0,1,1.552,,0,5,5,4,1,,,,,,,,,,,,,,,,,,,,,,,,,,,,,,,,,,,,,,,,,,,,,,,,,,,,,,,,,,,,,,,,,,,,,,,
,,,,,,,,,5e51c83155087a204d8e7f1f,spanish,13 or older,"no, only English or Spanish",no,2025-07-23_07h14.26.202,empathy_intonation_perc,2024.2.4,MacIntel,59.52380952,5e51c83155087a204d8e7f1f,687ed1b7e638a4cbf2f02089,6880c3c77e0681e06b644498,,,,,,,,,,,,,,0,,./stim/wavs/andalusian_statement_filler_Alberto-nunca-se-afeita.wav,,,,,,,,,226.2756,228.5263,0,1,1.7325,,0,6,6,5,1,,,,,,,,,,,,,,,,,,,,,,,,,,,,,,,,,,,,,,,,,,,,,,,,,,,,,,,,,,,,,,,,,,,,,,,
,,,,,,,,,5e51c83155087a204d8e7f1f,spanish,13 or older,"no, only English or Spanish",no,2025-07-23_07h14.26.202,empathy_intonation_perc,2024.2.4,MacIntel,59.52380952,5e51c83155087a204d8e7f1f,687ed1b7e638a4cbf2f02089,6880c3c77e0681e06b644498,,,,,,,,,,,,,,1,,./stim/wavs/argentine_question_filler_Mi-vecino-habla-mucho.wav,,,,,,,,,228.5267,230.3774,1,1,1.3314,,0,7,7,1,1,,,,,,,,,,,,,,,,,,,,,,,,,,,,,,,,,,,,,,,,,,,,,,,,,,,,,,,,,,,,,,,,,,,,,,,
,,,,,,,,,5e51c83155087a204d8e7f1f,spanish,13 or older,"no, only English or Spanish",no,2025-07-23_07h14.26.202,empathy_intonation_perc,2024.2.4,MacIntel,59.52380952,5e51c83155087a204d8e7f1f,687ed1b7e638a4cbf2f02089,6880c3c77e0681e06b644498,,,,,,,,,,,,,,,,,,,,,,,,,,,,,,,,,,,,230.3777,234.8953,,,,,,,,,,,,,,,,,,,,,,,,,,,,,,,,,,,,,,,,,,,,,,,,,,,,,,,,,,,,,,,,,,,,,
,,,,,,,,,5e51c83155087a204d8e7f1f,spanish,13 or older,"no, only English or Spanish",no,2025-07-23_07h14.26.202,empathy_intonation_perc,2024.2.4,MacIntel,59.52380952,5e51c83155087a204d8e7f1f,687ed1b7e638a4cbf2f02089,6880c3c77e0681e06b644498,,,,,,,,,,,,,16,1,,./stim/wavs/mexican_match_interrogative-total-yn_Emilio-ama-la-marcha.wav,,,,,,,,,,,,,,,,,,,,,,234.9015,237.0291,1,1,1.6013,,0,0,0,15,1,0,mexican,,,,,,,,,,,,,,,,,,,,,,,,,,,,,,,,,,,,,,,,,,,,,,,,,,,,,,,,
,,,,,,,,,5e51c83155087a204d8e7f1f,spanish,13 or older,"no, only English or Spanish",no,2025-07-23_07h14.26.202,empathy_intonation_perc,2024.2.4,MacIntel,59.52380952,5e51c83155087a204d8e7f1f,687ed1b7e638a4cbf2f02089,6880c3c77e0681e06b644498,,,,,,,,,,,,,79,0,,./stim/wavs/mexican_mismatch_declarative-broad-focus_El-bebe-comia-muy-bien.wav,,,,,,,,,,,,,,,,,,,,,,237.0294,238.9466,1,0,1.3997,,0,1,1,78,1,0,mexican,,,,,,,,,,,,,,,,,,,,,,,,,,,,,,,,,,,,,,,,,,,,,,,,,,,,,,,,
,,,,,,,,,5e51c83155087a204d8e7f1f,spanish,13 or older,"no, only English or Spanish",no,2025-07-23_07h14.26.202,empathy_intonation_perc,2024.2.4,MacIntel,59.52380952,5e51c83155087a204d8e7f1f,687ed1b7e638a4cbf2f02089,6880c3c77e0681e06b644498,,,,,,,,,,,,,33,1,,./stim/wavs/cuban_mismatch_interrogative-total-yn_Mi-novio-viene-del-lago.wav,,,,,,,,,,,,,,,,,,,,,,238.9469,243.4649,0,0,4.0005,,0,2,2,32,1,1,cuban,,,,,,,,,,,,,,,,,,,,,,,,,,,,,,,,,,,,,,,,,,,,,,,,,,,,,,,,
,,,,,,,,,5e51c83155087a204d8e7f1f,spanish,13 or older,"no, only English or Spanish",no,2025-07-23_07h14.26.202,empathy_intonation_perc,2024.2.4,MacIntel,59.52380952,5e51c83155087a204d8e7f1f,687ed1b7e638a4cbf2f02089,6880c3c77e0681e06b644498,,,,,,,,,,,,,28,1,,./stim/wavs/castilian_mismatch_interrogative-total-yn_Mi-novio-viene-del-lago.wav,,,,,,,,,,,,,,,,,,,,,,243.4652,246.1319,1,1,2.1342,,0,3,3,27,1,0,castilian,,,,,,,,,,,,,,,,,,,,,,,,,,,,,,,,,,,,,,,,,,,,,,,,,,,,,,,,
,,,,,,,,,5e51c83155087a204d8e7f1f,spanish,13 or older,"no, only English or Spanish",no,2025-07-23_07h14.26.202,empathy_intonation_perc,2024.2.4,MacIntel,59.52380952,5e51c83155087a204d8e7f1f,687ed1b7e638a4cbf2f02089,6880c3c77e0681e06b644498,,,,,,,,,,,,,58,0,,./stim/wavs/mexican_match_declarative-broad-focus_Daniel-iba-a-Bolivia.wav,,,,,,,,,,,,,,,,,,,,,,246.1323,248.3672,0,1,1.7184,,0,4,4,57,1,0,mexican,,,,,,,,,,,,,,,,,,,,,,,,,,,,,,,,,,,,,,,,,,,,,,,,,,,,,,,,
,,,,,,,,,5e51c83155087a204d8e7f1f,spanish,13 or older,"no, only English or Spanish",no,2025-07-23_07h14.26.202,empathy_intonation_perc,2024.2.4,MacIntel,59.52380952,5e51c83155087a204d8e7f1f,687ed1b7e638a4cbf2f02089,6880c3c77e0681e06b644498,,,,,,,,,,,,,83,0,,./stim/wavs/mexican_mismatch_declarative-broad-focus_Mi-tia-odia-la-lluvia.wav,,,,,,,,,,,,,,,,,,,,,,248.3675,250.5179,0,1,1.6188,,0,5,5,82,1,0,mexican,,,,,,,,,,,,,,,,,,,,,,,,,,,,,,,,,,,,,,,,,,,,,,,,,,,,,,,,
,,,,,,,,,5e51c83155087a204d8e7f1f,spanish,13 or older,"no, only English or Spanish",no,2025-07-23_07h14.26.202,empathy_intonation_perc,2024.2.4,MacIntel,59.52380952,5e51c83155087a204d8e7f1f,687ed1b7e638a4cbf2f02089,6880c3c77e0681e06b644498,,,,,,,,,,,,,50,0,,./stim/wavs/castilian_match_declarative-broad-focus_Marta-abre-el-regalo.wav,,,,,,,,,,,,,,,,,,,,,,250.5183,252.6176,0,1,1.5651,,0,6,6,49,1,0,castilian,,,,,,,,,,,,,,,,,,,,,,,,,,,,,,,,,,,,,,,,,,,,,,,,,,,,,,,,
,,,,,,,,,5e51c83155087a204d8e7f1f,spanish,13 or older,"no, only English or Spanish",no,2025-07-23_07h14.26.202,empathy_intonation_perc,2024.2.4,MacIntel,59.52380952,5e51c83155087a204d8e7f1f,687ed1b7e638a4cbf2f02089,6880c3c77e0681e06b644498,,,,,,,,,,,,,61,0,,./stim/wavs/mexican_match_declarative-broad-focus_Mariano-habla-del-tiempo.wav,,,,,,,,,,,,,,,,,,,,,,252.6178,254.6193,0,1,1.483,,0,7,7,60,1,0,mexican,,,,,,,,,,,,,,,,,,,,,,,,,,,,,,,,,,,,,,,,,,,,,,,,,,,,,,,,
,,,,,,,,,5e51c83155087a204d8e7f1f,spanish,13 or older,"no, only English or Spanish",no,2025-07-23_07h14.26.202,empathy_intonation_perc,2024.2.4,MacIntel,59.52380952,5e51c83155087a204d8e7f1f,687ed1b7e638a4cbf2f02089,6880c3c77e0681e06b644498,,,,,,,,,,,,,11,1,,./stim/wavs/cuban_match_interrogative-total-yn_Mariano-habla-del-tiempo.wav,,,,,,,,,,,,,,,,,,,,,,254.6196,256.8033,0,0,1.6521,,0,8,8,10,1,1,cuban,,,,,,,,,,,,,,,,,,,,,,,,,,,,,,,,,,,,,,,,,,,,,,,,,,,,,,,,
,,,,,,,,,5e51c83155087a204d8e7f1f,spanish,13 or older,"no, only English or Spanish",no,2025-07-23_07h14.26.202,empathy_intonation_perc,2024.2.4,MacIntel,59.52380952,5e51c83155087a204d8e7f1f,687ed1b7e638a4cbf2f02089,6880c3c77e0681e06b644498,,,,,,,,,,,,,75,0,,./stim/wavs/cuban_mismatch_declarative-broad-focus_El-hombre-mira-la-luna.wav,,,,,,,,,,,,,,,,,,,,,,256.8035,258.5199,0,1,1.2012,,0,9,9,74,1,0,cuban,,,,,,,,,,,,,,,,,,,,,,,,,,,,,,,,,,,,,,,,,,,,,,,,,,,,,,,,
,,,,,,,,,5e51c83155087a204d8e7f1f,spanish,13 or older,"no, only English or Spanish",no,2025-07-23_07h14.26.202,empathy_intonation_perc,2024.2.4,MacIntel,59.52380952,5e51c83155087a204d8e7f1f,687ed1b7e638a4cbf2f02089,6880c3c77e0681e06b644498,,,,,,,,,,,,,17,1,,./stim/wavs/mexican_match_interrogative-total-yn_Mariano-habla-del-tiempo.wav,,,,,,,,,,,,,,,,,,,,,,258.5202,260.5706,1,1,1.5337,,0,10,10,16,1,0,mexican,,,,,,,,,,,,,,,,,,,,,,,,,,,,,,,,,,,,,,,,,,,,,,,,,,,,,,,,
,,,,,,,,,5e51c83155087a204d8e7f1f,spanish,13 or older,"no, only English or Spanish",no,2025-07-23_07h14.26.202,empathy_intonation_perc,2024.2.4,MacIntel,59.52380952,5e51c83155087a204d8e7f1f,687ed1b7e638a4cbf2f02089,6880c3c77e0681e06b644498,,,,,,,,,,,,,73,0,,./stim/wavs/castilian_mismatch_declarative-broad-focus_Mi-tia-odia-la-lluvia.wav,,,,,,,,,,,,,,,,,,,,,,260.571,262.9377,0,1,1.8362,,0,11,11,72,1,0,castilian,,,,,,,,,,,,,,,,,,,,,,,,,,,,,,,,,,,,,,,,,,,,,,,,,,,,,,,,
,,,,,,,,,5e51c83155087a204d8e7f1f,spanish,13 or older,"no, only English or Spanish",no,2025-07-23_07h14.26.202,empathy_intonation_perc,2024.2.4,MacIntel,59.52380952,5e51c83155087a204d8e7f1f,687ed1b7e638a4cbf2f02089,6880c3c77e0681e06b644498,,,,,,,,,,,,,57,0,,./stim/wavs/mexican_match_declarative-broad-focus_Ana-lleva-el-abrigo.wav,,,,,,,,,,,,,,,,,,,,,,262.938,264.8383,0,1,1.3834,,0,12,12,56,1,0,mexican,,,,,,,,,,,,,,,,,,,,,,,,,,,,,,,,,,,,,,,,,,,,,,,,,,,,,,,,
,,,,,,,,,5e51c83155087a204d8e7f1f,spanish,13 or older,"no, only English or Spanish",no,2025-07-23_07h14.26.202,empathy_intonation_perc,2024.2.4,MacIntel,59.52380952,5e51c83155087a204d8e7f1f,687ed1b7e638a4cbf2f02089,6880c3c77e0681e06b644498,,,,,,,,,,,,,76,0,,./stim/wavs/cuban_mismatch_declarative-broad-focus_La-nina-lava-el-plato.wav,,,,,,,,,,,,,,,,,,,,,,264.8386,266.8224,0,1,1.467,,0,13,13,75,1,0,cuban,,,,,,,,,,,,,,,,,,,,,,,,,,,,,,,,,,,,,,,,,,,,,,,,,,,,,,,,
,,,,,,,,,5e51c83155087a204d8e7f1f,spanish,13 or older,"no, only English or Spanish",no,2025-07-23_07h14.26.202,empathy_intonation_perc,2024.2.4,MacIntel,59.52380952,5e51c83155087a204d8e7f1f,687ed1b7e638a4cbf2f02089,6880c3c77e0681e06b644498,,,,,,,,,,,,,46,0,,./stim/wavs/castilian_match_declarative-broad-focus_Emilio-ama-la-marcha.wav,,,,,,,,,,,,,,,,,,,,,,266.8226,269.0241,0,1,1.686,,0,14,14,45,1,0,castilian,,,,,,,,,,,,,,,,,,,,,,,,,,,,,,,,,,,,,,,,,,,,,,,,,,,,,,,,
,,,,,,,,,5e51c83155087a204d8e7f1f,spanish,13 or older,"no, only English or Spanish",no,2025-07-23_07h14.26.202,empathy_intonation_perc,2024.2.4,MacIntel,59.52380952,5e51c83155087a204d8e7f1f,687ed1b7e638a4cbf2f02089,6880c3c77e0681e06b644498,,,,,,,,,,,,,54,0,,./stim/wavs/cuban_match_declarative-broad-focus_Maria-bebe-el-vino.wav,,,,,,,,,,,,,,,,,,,,,,269.0243,271.1745,0,1,1.6179,,0,15,15,53,1,0,cuban,,,,,,,,,,,,,,,,,,,,,,,,,,,,,,,,,,,,,,,,,,,,,,,,,,,,,,,,
,,,,,,,,,5e51c83155087a204d8e7f1f,spanish,13 or older,"no, only English or Spanish",no,2025-07-23_07h14.26.202,empathy_intonation_perc,2024.2.4,MacIntel,59.52380952,5e51c83155087a204d8e7f1f,687ed1b7e638a4cbf2f02089,6880c3c77e0681e06b644498,,,,,,,,,,,,,44,1,,./stim/wavs/puertorican_mismatch_interrogative-total-yn_Mi-madre-come-la-fruta.wav,,,,,,,,,,,,,,,,,,,,,,271.1749,273.3085,0,0,1.6008,,0,16,16,43,1,1,puertorican,,,,,,,,,,,,,,,,,,,,,,,,,,,,,,,,,,,,,,,,,,,,,,,,,,,,,,,,
,,,,,,,,,5e51c83155087a204d8e7f1f,spanish,13 or older,"no, only English or Spanish",no,2025-07-23_07h14.26.202,empathy_intonation_perc,2024.2.4,MacIntel,59.52380952,5e51c83155087a204d8e7f1f,687ed1b7e638a4cbf2f02089,6880c3c77e0681e06b644498,,,,,,,,,,,,,80,0,,./stim/wavs/mexican_mismatch_declarative-broad-focus_El-hombre-mira-la-luna.wav,,,,,,,,,,,,,,,,,,,,,,273.3089,275.2427,0,1,1.4,,0,17,17,79,1,0,mexican,,,,,,,,,,,,,,,,,,,,,,,,,,,,,,,,,,,,,,,,,,,,,,,,,,,,,,,,
,,,,,,,,,5e51c83155087a204d8e7f1f,spanish,13 or older,"no, only English or Spanish",no,2025-07-23_07h14.26.202,empathy_intonation_perc,2024.2.4,MacIntel,59.52380952,5e51c83155087a204d8e7f1f,687ed1b7e638a4cbf2f02089,6880c3c77e0681e06b644498,,,,,,,,,,,,,26,1,,./stim/wavs/castilian_mismatch_interrogative-total-yn_La-nina-lava-el-plato.wav,,,,,,,,,,,,,,,,,,,,,,275.2431,277.4267,1,1,1.651,,0,18,18,25,1,0,castilian,,,,,,,,,,,,,,,,,,,,,,,,,,,,,,,,,,,,,,,,,,,,,,,,,,,,,,,,
,,,,,,,,,5e51c83155087a204d8e7f1f,spanish,13 or older,"no, only English or Spanish",no,2025-07-23_07h14.26.202,empathy_intonation_perc,2024.2.4,MacIntel,59.52380952,5e51c83155087a204d8e7f1f,687ed1b7e638a4cbf2f02089,6880c3c77e0681e06b644498,,,,,,,,,,,,,51,0,,./stim/wavs/cuban_match_declarative-broad-focus_Ana-lleva-el-abrigo.wav,,,,,,,,,,,,,,,,,,,,,,277.4271,279.4109,0,1,1.4663,,0,19,19,50,1,0,cuban,,,,,,,,,,,,,,,,,,,,,,,,,,,,,,,,,,,,,,,,,,,,,,,,,,,,,,,,
,,,,,,,,,5e51c83155087a204d8e7f1f,spanish,13 or older,"no, only English or Spanish",no,2025-07-23_07h14.26.202,empathy_intonation_perc,2024.2.4,MacIntel,59.52380952,5e51c83155087a204d8e7f1f,687ed1b7e638a4cbf2f02089,6880c3c77e0681e06b644498,,,,,,,,,,,,,66,0,,./stim/wavs/puertorican_match_declarative-broad-focus_Emilio-ama-la-marcha.wav,,,,,,,,,,,,,,,,,,,,,,279.4113,281.7447,0,1,1.7991,,0,20,20,65,1,0,puertorican,,,,,,,,,,,,,,,,,,,,,,,,,,,,,,,,,,,,,,,,,,,,,,,,,,,,,,,,
,,,,,,,,,5e51c83155087a204d8e7f1f,spanish,13 or older,"no, only English or Spanish",no,2025-07-23_07h14.26.202,empathy_intonation_perc,2024.2.4,MacIntel,59.52380952,5e51c83155087a204d8e7f1f,687ed1b7e638a4cbf2f02089,6880c3c77e0681e06b644498,,,,,,,,,,,,,43,1,,./stim/wavs/puertorican_mismatch_interrogative-total-yn_La-nina-lava-el-plato.wav,,,,,,,,,,,,,,,,,,,,,,281.745,283.6946,1,1,1.4326,,0,21,21,42,1,1,puertorican,,,,,,,,,,,,,,,,,,,,,,,,,,,,,,,,,,,,,,,,,,,,,,,,,,,,,,,,
,,,,,,,,,5e51c83155087a204d8e7f1f,spanish,13 or older,"no, only English or Spanish",no,2025-07-23_07h14.26.202,empathy_intonation_perc,2024.2.4,MacIntel,59.52380952,5e51c83155087a204d8e7f1f,687ed1b7e638a4cbf2f02089,6880c3c77e0681e06b644498,,,,,,,,,,,,,2,1,,./stim/wavs/castilian_match_interrogative-total-yn_Emilio-ama-la-marcha.wav,,,,,,,,,,,,,,,,,,,,,,283.6948,285.7619,1,1,1.5517,,0,22,22,1,1,0,castilian,,,,,,,,,,,,,,,,,,,,,,,,,,,,,,,,,,,,,,,,,,,,,,,,,,,,,,,,
,,,,,,,,,5e51c83155087a204d8e7f1f,spanish,13 or older,"no, only English or Spanish",no,2025-07-23_07h14.26.202,empathy_intonation_perc,2024.2.4,MacIntel,59.52380952,5e51c83155087a204d8e7f1f,687ed1b7e638a4cbf2f02089,6880c3c77e0681e06b644498,,,,,,,,,,,,,27,1,,./stim/wavs/castilian_mismatch_interrogative-total-yn_Mi-madre-come-la-fruta.wav,,,,,,,,,,,,,,,,,,,,,,285.7622,287.9467,1,1,1.6674,,0,23,23,26,1,0,castilian,,,,,,,,,,,,,,,,,,,,,,,,,,,,,,,,,,,,,,,,,,,,,,,,,,,,,,,,
,,,,,,,,,5e51c83155087a204d8e7f1f,spanish,13 or older,"no, only English or Spanish",no,2025-07-23_07h14.26.202,empathy_intonation_perc,2024.2.4,MacIntel,59.52380952,5e51c83155087a204d8e7f1f,687ed1b7e638a4cbf2f02089,6880c3c77e0681e06b644498,,,,,,,,,,,,,22,1,,./stim/wavs/puertorican_match_interrogative-total-yn_Emilio-ama-la-marcha.wav,,,,,,,,,,,,,,,,,,,,,,287.947,290.1811,0,0,1.7005,,0,24,24,21,1,1,puertorican,,,,,,,,,,,,,,,,,,,,,,,,,,,,,,,,,,,,,,,,,,,,,,,,,,,,,,,,
,,,,,,,,,5e51c83155087a204d8e7f1f,spanish,13 or older,"no, only English or Spanish",no,2025-07-23_07h14.26.202,empathy_intonation_perc,2024.2.4,MacIntel,59.52380952,5e51c83155087a204d8e7f1f,687ed1b7e638a4cbf2f02089,6880c3c77e0681e06b644498,,,,,,,,,,,,,64,0,,./stim/wavs/puertorican_match_declarative-broad-focus_Daniel-iba-a-Bolivia.wav,,,,,,,,,,,,,,,,,,,,,,290.1815,292.182,0,1,1.4669,,0,25,25,63,1,0,puertorican,,,,,,,,,,,,,,,,,,,,,,,,,,,,,,,,,,,,,,,,,,,,,,,,,,,,,,,,
,,,,,,,,,5e51c83155087a204d8e7f1f,spanish,13 or older,"no, only English or Spanish",no,2025-07-23_07h14.26.202,empathy_intonation_perc,2024.2.4,MacIntel,59.52380952,5e51c83155087a204d8e7f1f,687ed1b7e638a4cbf2f02089,6880c3c77e0681e06b644498,,,,,,,,,,,,,14,1,,./stim/wavs/mexican_match_interrogative-total-yn_Daniel-iba-a-Bolivia.wav,,,,,,,,,,,,,,,,,,,,,,292.1823,294.2827,1,1,1.5682,,0,26,26,13,1,0,mexican,,,,,,,,,,,,,,,,,,,,,,,,,,,,,,,,,,,,,,,,,,,,,,,,,,,,,,,,
,,,,,,,,,5e51c83155087a204d8e7f1f,spanish,13 or older,"no, only English or Spanish",no,2025-07-23_07h14.26.202,empathy_intonation_perc,2024.2.4,MacIntel,59.52380952,5e51c83155087a204d8e7f1f,687ed1b7e638a4cbf2f02089,6880c3c77e0681e06b644498,,,,,,,,,,,,,74,0,,./stim/wavs/cuban_mismatch_declarative-broad-focus_El-bebe-comia-muy-bien.wav,,,,,,,,,,,,,,,,,,,,,,294.283,296.5668,0,1,1.7483,,0,27,27,73,1,0,cuban,,,,,,,,,,,,,,,,,,,,,,,,,,,,,,,,,,,,,,,,,,,,,,,,,,,,,,,,
,,,,,,,,,5e51c83155087a204d8e7f1f,spanish,13 or older,"no, only English or Spanish",no,2025-07-23_07h14.26.202,empathy_intonation_perc,2024.2.4,MacIntel,59.52380952,5e51c83155087a204d8e7f1f,687ed1b7e638a4cbf2f02089,6880c3c77e0681e06b644498,,,,,,,,,,,,,77,0,,./stim/wavs/cuban_mismatch_declarative-broad-focus_Mi-novio-viene-del-lago.wav,,,,,,,,,,,,,,,,,,,,,,296.567,298.8176,0,1,1.7145,,0,28,28,76,1,0,cuban,,,,,,,,,,,,,,,,,,,,,,,,,,,,,,,,,,,,,,,,,,,,,,,,,,,,,,,,
,,,,,,,,,5e51c83155087a204d8e7f1f,spanish,13 or older,"no, only English or Spanish",no,2025-07-23_07h14.26.202,empathy_intonation_perc,2024.2.4,MacIntel,59.52380952,5e51c83155087a204d8e7f1f,687ed1b7e638a4cbf2f02089,6880c3c77e0681e06b644498,,,,,,,,,,,,,78,0,,./stim/wavs/cuban_mismatch_declarative-broad-focus_Mi-tia-odia-la-lluvia.wav,,,,,,,,,,,,,,,,,,,,,,298.8179,300.9675,0,1,1.6185,,0,29,29,77,1,0,cuban,,,,,,,,,,,,,,,,,,,,,,,,,,,,,,,,,,,,,,,,,,,,,,,,,,,,,,,,
,,,,,,,,,5e51c83155087a204d8e7f1f,spanish,13 or older,"no, only English or Spanish",no,2025-07-23_07h14.26.202,empathy_intonation_perc,2024.2.4,MacIntel,59.52380952,5e51c83155087a204d8e7f1f,687ed1b7e638a4cbf2f02089,6880c3c77e0681e06b644498,,,,,,,,,,,,,38,1,,./stim/wavs/mexican_mismatch_interrogative-total-yn_Mi-novio-viene-del-lago.wav,,,,,,,,,,,,,,,,,,,,,,300.9677,303.0356,1,1,1.5349,,0,30,30,37,1,0,mexican,,,,,,,,,,,,,,,,,,,,,,,,,,,,,,,,,,,,,,,,,,,,,,,,,,,,,,,,
,,,,,,,,,5e51c83155087a204d8e7f1f,spanish,13 or older,"no, only English or Spanish",no,2025-07-23_07h14.26.202,empathy_intonation_perc,2024.2.4,MacIntel,59.52380952,5e51c83155087a204d8e7f1f,687ed1b7e638a4cbf2f02089,6880c3c77e0681e06b644498,,,,,,,,,,,,,56,0,,./stim/wavs/cuban_match_declarative-broad-focus_Marta-abre-el-regalo.wav,,,,,,,,,,,,,,,,,,,,,,303.0358,305.3861,0,1,1.8153,,0,31,31,55,1,0,cuban,,,,,,,,,,,,,,,,,,,,,,,,,,,,,,,,,,,,,,,,,,,,,,,,,,,,,,,,
,,,,,,,,,5e51c83155087a204d8e7f1f,spanish,13 or older,"no, only English or Spanish",no,2025-07-23_07h14.26.202,empathy_intonation_perc,2024.2.4,MacIntel,59.52380952,5e51c83155087a204d8e7f1f,687ed1b7e638a4cbf2f02089,6880c3c77e0681e06b644498,,,,,,,,,,,,,42,1,,./stim/wavs/puertorican_mismatch_interrogative-total-yn_La-maestra-vive-en-Paris.wav,,,,,,,,,,,,,,,,,,,,,,305.3863,307.4032,1,1,1.5019,,0,32,32,41,1,1,puertorican,,,,,,,,,,,,,,,,,,,,,,,,,,,,,,,,,,,,,,,,,,,,,,,,,,,,,,,,
,,,,,,,,,5e51c83155087a204d8e7f1f,spanish,13 or older,"no, only English or Spanish",no,2025-07-23_07h14.26.202,empathy_intonation_perc,2024.2.4,MacIntel,59.52380952,5e51c83155087a204d8e7f1f,687ed1b7e638a4cbf2f02089,6880c3c77e0681e06b644498,,,,,,,,,,,,,53,0,,./stim/wavs/cuban_match_declarative-broad-focus_Manuela-vende-el-carro.wav,,,,,,,,,,,,,,,,,,,,,,307.4034,309.4043,0,1,1.4669,,0,33,33,52,1,0,cuban,,,,,,,,,,,,,,,,,,,,,,,,,,,,,,,,,,,,,,,,,,,,,,,,,,,,,,,,
,,,,,,,,,5e51c83155087a204d8e7f1f,spanish,13 or older,"no, only English or Spanish",no,2025-07-23_07h14.26.202,empathy_intonation_perc,2024.2.4,MacIntel,59.52380952,5e51c83155087a204d8e7f1f,687ed1b7e638a4cbf2f02089,6880c3c77e0681e06b644498,,,,,,,,,,,,,37,1,,./stim/wavs/mexican_mismatch_interrogative-total-yn_La-maestra-vive-en-Paris.wav,,,,,,,,,,,,,,,,,,,,,,309.4046,311.538,0,0,1.6035,,0,34,34,36,1,0,mexican,,,,,,,,,,,,,,,,,,,,,,,,,,,,,,,,,,,,,,,,,,,,,,,,,,,,,,,,
,,,,,,,,,5e51c83155087a204d8e7f1f,spanish,13 or older,"no, only English or Spanish",no,2025-07-23_07h14.26.202,empathy_intonation_perc,2024.2.4,MacIntel,59.52380952,5e51c83155087a204d8e7f1f,687ed1b7e638a4cbf2f02089,6880c3c77e0681e06b644498,,,,,,,,,,,,,4,1,,./stim/wavs/castilian_match_interrogative-total-yn_Maria-bebe-el-vino.wav,,,,,,,,,,,,,,,,,,,,,,311.5384,313.7386,1,1,1.6694,,0,35,35,3,1,0,castilian,,,,,,,,,,,,,,,,,,,,,,,,,,,,,,,,,,,,,,,,,,,,,,,,,,,,,,,,
,,,,,,,,,5e51c83155087a204d8e7f1f,spanish,13 or older,"no, only English or Spanish",no,2025-07-23_07h14.26.202,empathy_intonation_perc,2024.2.4,MacIntel,59.52380952,5e51c83155087a204d8e7f1f,687ed1b7e638a4cbf2f02089,6880c3c77e0681e06b644498,,,,,,,,,,,,,8,1,,./stim/wavs/cuban_match_interrogative-total-yn_Daniel-iba-a-Bolivia.wav,,,,,,,,,,,,,,,,,,,,,,313.7389,315.7395,0,0,1.4668,,0,36,36,7,1,1,cuban,,,,,,,,,,,,,,,,,,,,,,,,,,,,,,,,,,,,,,,,,,,,,,,,,,,,,,,,
,,,,,,,,,5e51c83155087a204d8e7f1f,spanish,13 or older,"no, only English or Spanish",no,2025-07-23_07h14.26.202,empathy_intonation_perc,2024.2.4,MacIntel,59.52380952,5e51c83155087a204d8e7f1f,687ed1b7e638a4cbf2f02089,6880c3c77e0681e06b644498,,,,,,,,,,,,,39,1,,./stim/wavs/mexican_mismatch_interrogative-total-yn_Mi-tia-odia-la-lluvia.wav,,,,,,,,,,,,,,,,,,,,,,315.7399,317.7728,1,1,1.517,,0,37,37,38,1,0,mexican,,,,,,,,,,,,,,,,,,,,,,,,,,,,,,,,,,,,,,,,,,,,,,,,,,,,,,,,
,,,,,,,,,5e51c83155087a204d8e7f1f,spanish,13 or older,"no, only English or Spanish",no,2025-07-23_07h14.26.202,empathy_intonation_perc,2024.2.4,MacIntel,59.52380952,5e51c83155087a204d8e7f1f,687ed1b7e638a4cbf2f02089,6880c3c77e0681e06b644498,,,,,,,,,,,,,35,1,,./stim/wavs/mexican_mismatch_interrogative-total-yn_El-hombre-mira-la-luna.wav,,,,,,,,,,,,,,,,,,,,,,317.7732,319.8737,1,1,1.5663,,0,38,38,34,1,0,mexican,,,,,,,,,,,,,,,,,,,,,,,,,,,,,,,,,,,,,,,,,,,,,,,,,,,,,,,,
,,,,,,,,,5e51c83155087a204d8e7f1f,spanish,13 or older,"no, only English or Spanish",no,2025-07-23_07h14.26.202,empathy_intonation_perc,2024.2.4,MacIntel,59.52380952,5e51c83155087a204d8e7f1f,687ed1b7e638a4cbf2f02089,6880c3c77e0681e06b644498,,,,,,,,,,,,,15,1,,./stim/wavs/mexican_match_interrogative-total-yn_David-leia-el-libro.wav,,,,,,,,,,,,,,,,,,,,,,319.874,321.9076,1,1,1.5195,,0,39,39,14,1,0,mexican,,,,,,,,,,,,,,,,,,,,,,,,,,,,,,,,,,,,,,,,,,,,,,,,,,,,,,,,
,,,,,,,,,5e51c83155087a204d8e7f1f,spanish,13 or older,"no, only English or Spanish",no,2025-07-23_07h14.26.202,empathy_intonation_perc,2024.2.4,MacIntel,59.52380952,5e51c83155087a204d8e7f1f,687ed1b7e638a4cbf2f02089,6880c3c77e0681e06b644498,,,,,,,,,,,,,6,1,,./stim/wavs/castilian_match_interrogative-total-yn_Marta-abre-el-regalo.wav,,,,,,,,,,,,,,,,,,,,,,321.9079,324.1089,1,1,1.6666,,0,40,40,5,1,0,castilian,,,,,,,,,,,,,,,,,,,,,,,,,,,,,,,,,,,,,,,,,,,,,,,,,,,,,,,,
,,,,,,,,,5e51c83155087a204d8e7f1f,spanish,13 or older,"no, only English or Spanish",no,2025-07-23_07h14.26.202,empathy_intonation_perc,2024.2.4,MacIntel,59.52380952,5e51c83155087a204d8e7f1f,687ed1b7e638a4cbf2f02089,6880c3c77e0681e06b644498,,,,,,,,,,,,,88,0,,./stim/wavs/puertorican_mismatch_declarative-broad-focus_La-nina-lava-el-plato.wav,,,,,,,,,,,,,,,,,,,,,,324.1093,325.91,0,1,1.2668,,0,41,41,87,1,0,puertorican,,,,,,,,,,,,,,,,,,,,,,,,,,,,,,,,,,,,,,,,,,,,,,,,,,,,,,,,
,,,,,,,,,5e51c83155087a204d8e7f1f,spanish,13 or older,"no, only English or Spanish",no,2025-07-23_07h14.26.202,empathy_intonation_perc,2024.2.4,MacIntel,59.52380952,5e51c83155087a204d8e7f1f,687ed1b7e638a4cbf2f02089,6880c3c77e0681e06b644498,,,,,,,,,,,,,12,1,,./stim/wavs/cuban_match_interrogative-total-yn_Marta-abre-el-regalo.wav,,,,,,,,,,,,,,,,,,,,,,325.9103,328.1438,0,0,1.6979,,0,42,42,11,1,1,cuban,,,,,,,,,,,,,,,,,,,,,,,,,,,,,,,,,,,,,,,,,,,,,,,,,,,,,,,,
,,,,,,,,,5e51c83155087a204d8e7f1f,spanish,13 or older,"no, only English or Spanish",no,2025-07-23_07h14.26.202,empathy_intonation_perc,2024.2.4,MacIntel,59.52380952,5e51c83155087a204d8e7f1f,687ed1b7e638a4cbf2f02089,6880c3c77e0681e06b644498,,,,,,,,,,,,,72,0,,./stim/wavs/castilian_mismatch_declarative-broad-focus_Mi-novio-viene-del-lago.wav,,,,,,,,,,,,,,,,,,,,,,328.1442,330.3775,0,1,1.7156,,0,43,43,71,1,0,castilian,,,,,,,,,,,,,,,,,,,,,,,,,,,,,,,,,,,,,,,,,,,,,,,,,,,,,,,,
,,,,,,,,,5e51c83155087a204d8e7f1f,spanish,13 or older,"no, only English or Spanish",no,2025-07-23_07h14.26.202,empathy_intonation_perc,2024.2.4,MacIntel,59.52380952,5e51c83155087a204d8e7f1f,687ed1b7e638a4cbf2f02089,6880c3c77e0681e06b644498,,,,,,,,,,,,,40,1,,./stim/wavs/puertorican_mismatch_interrogative-total-yn_El-hombre-mira-la-luna.wav,,,,,,,,,,,,,,,,,,,,,,330.3777,332.4616,1,1,1.5496,,0,44,44,39,1,1,puertorican,,,,,,,,,,,,,,,,,,,,,,,,,,,,,,,,,,,,,,,,,,,,,,,,,,,,,,,,
,,,,,,,,,5e51c83155087a204d8e7f1f,spanish,13 or older,"no, only English or Spanish",no,2025-07-23_07h14.26.202,empathy_intonation_perc,2024.2.4,MacIntel,59.52380952,5e51c83155087a204d8e7f1f,687ed1b7e638a4cbf2f02089,6880c3c77e0681e06b644498,,,,,,,,,,,,,63,0,,./stim/wavs/puertorican_match_declarative-broad-focus_Ana-lleva-el-abrigo.wav,,,,,,,,,,,,,,,,,,,,,,332.4619,334.2961,0,1,1.2991,,0,45,45,62,1,0,puertorican,,,,,,,,,,,,,,,,,,,,,,,,,,,,,,,,,,,,,,,,,,,,,,,,,,,,,,,,
,,,,,,,,,5e51c83155087a204d8e7f1f,spanish,13 or older,"no, only English or Spanish",no,2025-07-23_07h14.26.202,empathy_intonation_perc,2024.2.4,MacIntel,59.52380952,5e51c83155087a204d8e7f1f,687ed1b7e638a4cbf2f02089,6880c3c77e0681e06b644498,,,,,,,,,,,,,25,1,,./stim/wavs/castilian_mismatch_interrogative-total-yn_La-maestra-vive-en-Paris.wav,,,,,,,,,,,,,,,,,,,,,,334.2965,336.5803,1,1,1.7482,,0,46,46,24,1,0,castilian,,,,,,,,,,,,,,,,,,,,,,,,,,,,,,,,,,,,,,,,,,,,,,,,,,,,,,,,
,,,,,,,,,5e51c83155087a204d8e7f1f,spanish,13 or older,"no, only English or Spanish",no,2025-07-23_07h14.26.202,empathy_intonation_perc,2024.2.4,MacIntel,59.52380952,5e51c83155087a204d8e7f1f,687ed1b7e638a4cbf2f02089,6880c3c77e0681e06b644498,,,,,,,,,,,,,45,0,,./stim/wavs/castilian_match_declarative-broad-focus_David-leia-el-libro.wav,,,,,,,,,,,,,,,,,,,,,,336.5807,338.6133,0,1,1.5029,,0,47,47,44,1,0,castilian,,,,,,,,,,,,,,,,,,,,,,,,,,,,,,,,,,,,,,,,,,,,,,,,,,,,,,,,
,,,,,,,,,5e51c83155087a204d8e7f1f,spanish,13 or older,"no, only English or Spanish",no,2025-07-23_07h14.26.202,empathy_intonation_perc,2024.2.4,MacIntel,59.52380952,5e51c83155087a204d8e7f1f,687ed1b7e638a4cbf2f02089,6880c3c77e0681e06b644498,,,,,,,,,,,,,30,1,,./stim/wavs/cuban_mismatch_interrogative-total-yn_El-hombre-mira-la-luna.wav,,,,,,,,,,,,,,,,,,,,,,338.6135,340.5315,1,1,1.3987,,0,48,48,29,1,1,cuban,,,,,,,,,,,,,,,,,,,,,,,,,,,,,,,,,,,,,,,,,,,,,,,,,,,,,,,,
,,,,,,,,,5e51c83155087a204d8e7f1f,spanish,13 or older,"no, only English or Spanish",no,2025-07-23_07h14.26.202,empathy_intonation_perc,2024.2.4,MacIntel,59.52380952,5e51c83155087a204d8e7f1f,687ed1b7e638a4cbf2f02089,6880c3c77e0681e06b644498,,,,,,,,,,,,,9,1,,./stim/wavs/cuban_match_interrogative-total-yn_Manuela-vende-el-carro.wav,,,,,,,,,,,,,,,,,,,,,,340.532,342.4656,0,0,1.3992,,0,49,49,8,1,1,cuban,,,,,,,,,,,,,,,,,,,,,,,,,,,,,,,,,,,,,,,,,,,,,,,,,,,,,,,,
,,,,,,,,,5e51c83155087a204d8e7f1f,spanish,13 or older,"no, only English or Spanish",no,2025-07-23_07h14.26.202,empathy_intonation_perc,2024.2.4,MacIntel,59.52380952,5e51c83155087a204d8e7f1f,687ed1b7e638a4cbf2f02089,6880c3c77e0681e06b644498,,,,,,,,,,,,,84,0,,./stim/wavs/puertorican_mismatch_declarative-broad-focus_El-bebe-comia-muy-bien.wav,,,,,,,,,,,,,,,,,,,,,,342.466,344.7829,0,1,1.7844,,0,50,50,83,1,0,puertorican,,,,,,,,,,,,,,,,,,,,,,,,,,,,,,,,,,,,,,,,,,,,,,,,,,,,,,,,
,,,,,,,,,5e51c83155087a204d8e7f1f,spanish,13 or older,"no, only English or Spanish",no,2025-07-23_07h14.26.202,empathy_intonation_perc,2024.2.4,MacIntel,59.52380952,5e51c83155087a204d8e7f1f,687ed1b7e638a4cbf2f02089,6880c3c77e0681e06b644498,,,,,,,,,,,,,48,0,,./stim/wavs/castilian_match_declarative-broad-focus_Maria-bebe-el-vino.wav,,,,,,,,,,,,,,,,,,,,,,344.7832,346.9504,0,1,1.6335,,0,51,51,47,1,0,castilian,,,,,,,,,,,,,,,,,,,,,,,,,,,,,,,,,,,,,,,,,,,,,,,,,,,,,,,,
,,,,,,,,,5e51c83155087a204d8e7f1f,spanish,13 or older,"no, only English or Spanish",no,2025-07-23_07h14.26.202,empathy_intonation_perc,2024.2.4,MacIntel,59.52380952,5e51c83155087a204d8e7f1f,687ed1b7e638a4cbf2f02089,6880c3c77e0681e06b644498,,,,,,,,,,,,,41,1,,./stim/wavs/puertorican_mismatch_interrogative-total-yn_El-nino-oye-el-rio.wav,,,,,,,,,,,,,,,,,,,,,,346.9507,349.1679,0,0,1.6826,,0,52,52,40,1,1,puertorican,,,,,,,,,,,,,,,,,,,,,,,,,,,,,,,,,,,,,,,,,,,,,,,,,,,,,,,,
,,,,,,,,,5e51c83155087a204d8e7f1f,spanish,13 or older,"no, only English or Spanish",no,2025-07-23_07h14.26.202,empathy_intonation_perc,2024.2.4,MacIntel,59.52380952,5e51c83155087a204d8e7f1f,687ed1b7e638a4cbf2f02089,6880c3c77e0681e06b644498,,,,,,,,,,,,,5,1,,./stim/wavs/castilian_match_interrogative-total-yn_Mariano-habla-del-tiempo.wav,,,,,,,,,,,,,,,,,,,,,,349.1682,351.7351,1,1,2.0313,,0,53,53,4,1,0,castilian,,,,,,,,,,,,,,,,,,,,,,,,,,,,,,,,,,,,,,,,,,,,,,,,,,,,,,,,
,,,,,,,,,5e51c83155087a204d8e7f1f,spanish,13 or older,"no, only English or Spanish",no,2025-07-23_07h14.26.202,empathy_intonation_perc,2024.2.4,MacIntel,59.52380952,5e51c83155087a204d8e7f1f,687ed1b7e638a4cbf2f02089,6880c3c77e0681e06b644498,,,,,,,,,,,,,23,1,,./stim/wavs/puertorican_match_interrogative-total-yn_Manuela-vende-el-carro.wav,,,,,,,,,,,,,,,,,,,,,,351.7354,354.0528,1,1,1.7823,,0,54,54,22,1,1,puertorican,,,,,,,,,,,,,,,,,,,,,,,,,,,,,,,,,,,,,,,,,,,,,,,,,,,,,,,,
,,,,,,,,,5e51c83155087a204d8e7f1f,spanish,13 or older,"no, only English or Spanish",no,2025-07-23_07h14.26.202,empathy_intonation_perc,2024.2.4,MacIntel,59.52380952,5e51c83155087a204d8e7f1f,687ed1b7e638a4cbf2f02089,6880c3c77e0681e06b644498,,,,,,,,,,,,,32,1,,./stim/wavs/cuban_mismatch_interrogative-total-yn_Mi-madre-come-la-fruta.wav,,,,,,,,,,,,,,,,,,,,,,354.0532,356.5364,0,0,1.9495,,0,55,55,31,1,1,cuban,,,,,,,,,,,,,,,,,,,,,,,,,,,,,,,,,,,,,,,,,,,,,,,,,,,,,,,,
,,,,,,,,,5e51c83155087a204d8e7f1f,spanish,13 or older,"no, only English or Spanish",no,2025-07-23_07h14.26.202,empathy_intonation_perc,2024.2.4,MacIntel,59.52380952,5e51c83155087a204d8e7f1f,687ed1b7e638a4cbf2f02089,6880c3c77e0681e06b644498,,,,,,,,,,,,,24,1,,./stim/wavs/puertorican_match_interrogative-total-yn_Maria-bebe-el-vino.wav,,,,,,,,,,,,,,,,,,,,,,356.5368,358.5372,0,0,1.4825,,0,56,56,23,1,1,puertorican,,,,,,,,,,,,,,,,,,,,,,,,,,,,,,,,,,,,,,,,,,,,,,,,,,,,,,,,
,,,,,,,,,5e51c83155087a204d8e7f1f,spanish,13 or older,"no, only English or Spanish",no,2025-07-23_07h14.26.202,empathy_intonation_perc,2024.2.4,MacIntel,59.52380952,5e51c83155087a204d8e7f1f,687ed1b7e638a4cbf2f02089,6880c3c77e0681e06b644498,,,,,,,,,,,,,62,0,,./stim/wavs/mexican_match_declarative-broad-focus_Marta-abre-el-regalo.wav,,,,,,,,,,,,,,,,,,,,,,358.5375,360.4207,0,1,1.3509,,0,57,57,61,1,0,mexican,,,,,,,,,,,,,,,,,,,,,,,,,,,,,,,,,,,,,,,,,,,,,,,,,,,,,,,,
,,,,,,,,,5e51c83155087a204d8e7f1f,spanish,13 or older,"no, only English or Spanish",no,2025-07-23_07h14.26.202,empathy_intonation_perc,2024.2.4,MacIntel,59.52380952,5e51c83155087a204d8e7f1f,687ed1b7e638a4cbf2f02089,6880c3c77e0681e06b644498,,,,,,,,,,,,,59,0,,./stim/wavs/mexican_match_declarative-broad-focus_David-leia-el-libro.wav,,,,,,,,,,,,,,,,,,,,,,360.4209,362.3552,0,1,1.416,,0,58,58,58,1,0,mexican,,,,,,,,,,,,,,,,,,,,,,,,,,,,,,,,,,,,,,,,,,,,,,,,,,,,,,,,
,,,,,,,,,5e51c83155087a204d8e7f1f,spanish,13 or older,"no, only English or Spanish",no,2025-07-23_07h14.26.202,empathy_intonation_perc,2024.2.4,MacIntel,59.52380952,5e51c83155087a204d8e7f1f,687ed1b7e638a4cbf2f02089,6880c3c77e0681e06b644498,,,,,,,,,,,,,18,1,,./stim/wavs/mexican_match_interrogative-total-yn_Marta-abre-el-regalo.wav,,,,,,,,,,,,,,,,,,,,,,362.3556,364.2384,1,1,1.3674,,0,59,59,17,1,0,mexican,,,,,,,,,,,,,,,,,,,,,,,,,,,,,,,,,,,,,,,,,,,,,,,,,,,,,,,,
,,,,,,,,,5e51c83155087a204d8e7f1f,spanish,13 or older,"no, only English or Spanish",no,2025-07-23_07h14.26.202,empathy_intonation_perc,2024.2.4,MacIntel,59.52380952,5e51c83155087a204d8e7f1f,687ed1b7e638a4cbf2f02089,6880c3c77e0681e06b644498,,,,,,,,,,,,,1,1,,./stim/wavs/castilian_match_interrogative-total-yn_David-leia-el-libro.wav,,,,,,,,,,,,,,,,,,,,,,364.2386,366.5894,1,1,1.8331,,0,60,60,0,1,0,castilian,,,,,,,,,,,,,,,,,,,,,,,,,,,,,,,,,,,,,,,,,,,,,,,,,,,,,,,,
,,,,,,,,,5e51c83155087a204d8e7f1f,spanish,13 or older,"no, only English or Spanish",no,2025-07-23_07h14.26.202,empathy_intonation_perc,2024.2.4,MacIntel,59.52380952,5e51c83155087a204d8e7f1f,687ed1b7e638a4cbf2f02089,6880c3c77e0681e06b644498,,,,,,,,,,,,,71,0,,./stim/wavs/castilian_mismatch_declarative-broad-focus_La-nina-lava-el-plato.wav,,,,,,,,,,,,,,,,,,,,,,366.5899,368.8566,0,1,1.7362,,0,61,61,70,1,0,castilian,,,,,,,,,,,,,,,,,,,,,,,,,,,,,,,,,,,,,,,,,,,,,,,,,,,,,,,,
,,,,,,,,,5e51c83155087a204d8e7f1f,spanish,13 or older,"no, only English or Spanish",no,2025-07-23_07h14.26.202,empathy_intonation_perc,2024.2.4,MacIntel,59.52380952,5e51c83155087a204d8e7f1f,687ed1b7e638a4cbf2f02089,6880c3c77e0681e06b644498,,,,,,,,,,,,,86,0,,./stim/wavs/puertorican_mismatch_declarative-broad-focus_El-nino-oye-el-rio.wav,,,,,,,,,,,,,,,,,,,,,,368.8568,370.9573,0,1,1.583,,0,62,62,85,1,0,puertorican,,,,,,,,,,,,,,,,,,,,,,,,,,,,,,,,,,,,,,,,,,,,,,,,,,,,,,,,
,,,,,,,,,5e51c83155087a204d8e7f1f,spanish,13 or older,"no, only English or Spanish",no,2025-07-23_07h14.26.202,empathy_intonation_perc,2024.2.4,MacIntel,59.52380952,5e51c83155087a204d8e7f1f,687ed1b7e638a4cbf2f02089,6880c3c77e0681e06b644498,,,,,,,,,,,,,19,1,,./stim/wavs/puertorican_match_interrogative-total-yn_Ana-lleva-el-abrigo.wav,,,,,,,,,,,,,,,,,,,,,,370.9576,372.7923,1,1,1.3006,,0,63,63,18,1,1,puertorican,,,,,,,,,,,,,,,,,,,,,,,,,,,,,,,,,,,,,,,,,,,,,,,,,,,,,,,,
,,,,,,,,,5e51c83155087a204d8e7f1f,spanish,13 or older,"no, only English or Spanish",no,2025-07-23_07h14.26.202,empathy_intonation_perc,2024.2.4,MacIntel,59.52380952,5e51c83155087a204d8e7f1f,687ed1b7e638a4cbf2f02089,6880c3c77e0681e06b644498,,,,,,,,,,,,,69,0,,./stim/wavs/castilian_mismatch_declarative-broad-focus_El-nino-oye-el-rio.wav,,,,,,,,,,,,,,,,,,,,,,372.7926,374.9431,0,1,1.6149,,0,64,64,68,1,0,castilian,,,,,,,,,,,,,,,,,,,,,,,,,,,,,,,,,,,,,,,,,,,,,,,,,,,,,,,,
,,,,,,,,,5e51c83155087a204d8e7f1f,spanish,13 or older,"no, only English or Spanish",no,2025-07-23_07h14.26.202,empathy_intonation_perc,2024.2.4,MacIntel,59.52380952,5e51c83155087a204d8e7f1f,687ed1b7e638a4cbf2f02089,6880c3c77e0681e06b644498,,,,,,,,,,,,,67,0,,./stim/wavs/puertorican_match_declarative-broad-focus_Manuela-vende-el-carro.wav,,,,,,,,,,,,,,,,,,,,,,374.9435,377.1429,0,1,1.6688,,0,65,65,66,1,0,puertorican,,,,,,,,,,,,,,,,,,,,,,,,,,,,,,,,,,,,,,,,,,,,,,,,,,,,,,,,
,,,,,,,,,5e51c83155087a204d8e7f1f,spanish,13 or older,"no, only English or Spanish",no,2025-07-23_07h14.26.202,empathy_intonation_perc,2024.2.4,MacIntel,59.52380952,5e51c83155087a204d8e7f1f,687ed1b7e638a4cbf2f02089,6880c3c77e0681e06b644498,,,,,,,,,,,,,81,0,,./stim/wavs/mexican_mismatch_declarative-broad-focus_La-maestra-vive-en-Paris.wav,,,,,,,,,,,,,,,,,,,,,,377.1431,379.2771,0,1,1.6176,,0,66,66,80,1,0,mexican,,,,,,,,,,,,,,,,,,,,,,,,,,,,,,,,,,,,,,,,,,,,,,,,,,,,,,,,
,,,,,,,,,5e51c83155087a204d8e7f1f,spanish,13 or older,"no, only English or Spanish",no,2025-07-23_07h14.26.202,empathy_intonation_perc,2024.2.4,MacIntel,59.52380952,5e51c83155087a204d8e7f1f,687ed1b7e638a4cbf2f02089,6880c3c77e0681e06b644498,,,,,,,,,,,,,13,1,,./stim/wavs/mexican_match_interrogative-total-yn_Ana-lleva-el-abrigo.wav,,,,,,,,,,,,,,,,,,,,,,379.2775,381.3448,1,1,1.5487,,0,67,67,12,1,0,mexican,,,,,,,,,,,,,,,,,,,,,,,,,,,,,,,,,,,,,,,,,,,,,,,,,,,,,,,,
,,,,,,,,,5e51c83155087a204d8e7f1f,spanish,13 or older,"no, only English or Spanish",no,2025-07-23_07h14.26.202,empathy_intonation_perc,2024.2.4,MacIntel,59.52380952,5e51c83155087a204d8e7f1f,687ed1b7e638a4cbf2f02089,6880c3c77e0681e06b644498,,,,,,,,,,,,,7,1,,./stim/wavs/cuban_match_interrogative-total-yn_Ana-lleva-el-abrigo.wav,,,,,,,,,,,,,,,,,,,,,,381.3451,383.5121,0,0,1.6366,,0,68,68,6,1,1,cuban,,,,,,,,,,,,,,,,,,,,,,,,,,,,,,,,,,,,,,,,,,,,,,,,,,,,,,,,
,,,,,,,,,5e51c83155087a204d8e7f1f,spanish,13 or older,"no, only English or Spanish",no,2025-07-23_07h14.26.202,empathy_intonation_perc,2024.2.4,MacIntel,59.52380952,5e51c83155087a204d8e7f1f,687ed1b7e638a4cbf2f02089,6880c3c77e0681e06b644498,,,,,,,,,,,,,85,0,,./stim/wavs/puertorican_mismatch_declarative-broad-focus_El-hombre-mira-la-luna.wav,,,,,,,,,,,,,,,,,,,,,,383.5124,385.7465,0,1,1.7012,,0,69,69,84,1,0,puertorican,,,,,,,,,,,,,,,,,,,,,,,,,,,,,,,,,,,,,,,,,,,,,,,,,,,,,,,,
,,,,,,,,,5e51c83155087a204d8e7f1f,spanish,13 or older,"no, only English or Spanish",no,2025-07-23_07h14.26.202,empathy_intonation_perc,2024.2.4,MacIntel,59.52380952,5e51c83155087a204d8e7f1f,687ed1b7e638a4cbf2f02089,6880c3c77e0681e06b644498,,,,,,,,,,,,,87,0,,./stim/wavs/puertorican_mismatch_declarative-broad-focus_La-maestra-vive-en-Paris.wav,,,,,,,,,,,,,,,,,,,,,,385.7468,387.9306,0,1,1.6509,,0,70,70,86,1,0,puertorican,,,,,,,,,,,,,,,,,,,,,,,,,,,,,,,,,,,,,,,,,,,,,,,,,,,,,,,,
,,,,,,,,,5e51c83155087a204d8e7f1f,spanish,13 or older,"no, only English or Spanish",no,2025-07-23_07h14.26.202,empathy_intonation_perc,2024.2.4,MacIntel,59.52380952,5e51c83155087a204d8e7f1f,687ed1b7e638a4cbf2f02089,6880c3c77e0681e06b644498,,,,,,,,,,,,,20,1,,./stim/wavs/puertorican_match_interrogative-total-yn_Daniel-iba-a-Bolivia.wav,,,,,,,,,,,,,,,,,,,,,,387.931,390.0471,0,0,1.5993,,0,71,71,19,1,1,puertorican,,,,,,,,,,,,,,,,,,,,,,,,,,,,,,,,,,,,,,,,,,,,,,,,,,,,,,,,
,,,,,,,,,5e51c83155087a204d8e7f1f,spanish,13 or older,"no, only English or Spanish",no,2025-07-23_07h14.26.202,empathy_intonation_perc,2024.2.4,MacIntel,59.52380952,5e51c83155087a204d8e7f1f,687ed1b7e638a4cbf2f02089,6880c3c77e0681e06b644498,,,,,,,,,,,,,60,0,,./stim/wavs/mexican_match_declarative-broad-focus_Emilio-ama-la-marcha.wav,,,,,,,,,,,,,,,,,,,,,,390.0474,392.1309,0,1,1.5674,,0,72,72,59,1,0,mexican,,,,,,,,,,,,,,,,,,,,,,,,,,,,,,,,,,,,,,,,,,,,,,,,,,,,,,,,
,,,,,,,,,5e51c83155087a204d8e7f1f,spanish,13 or older,"no, only English or Spanish",no,2025-07-23_07h14.26.202,empathy_intonation_perc,2024.2.4,MacIntel,59.52380952,5e51c83155087a204d8e7f1f,687ed1b7e638a4cbf2f02089,6880c3c77e0681e06b644498,,,,,,,,,,,,,36,1,,./stim/wavs/mexican_mismatch_interrogative-total-yn_El-nino-oye-el-rio.wav,,,,,,,,,,,,,,,,,,,,,,392.1311,394.1316,1,1,1.486,,0,73,73,35,1,0,mexican,,,,,,,,,,,,,,,,,,,,,,,,,,,,,,,,,,,,,,,,,,,,,,,,,,,,,,,,
,,,,,,,,,5e51c83155087a204d8e7f1f,spanish,13 or older,"no, only English or Spanish",no,2025-07-23_07h14.26.202,empathy_intonation_perc,2024.2.4,MacIntel,59.52380952,5e51c83155087a204d8e7f1f,687ed1b7e638a4cbf2f02089,6880c3c77e0681e06b644498,,,,,,,,,,,,,29,1,,./stim/wavs/castilian_mismatch_interrogative-total-yn_Mi-tia-odia-la-lluvia.wav,,,,,,,,,,,,,,,,,,,,,,394.132,396.3665,1,1,1.7171,,0,74,74,28,1,0,castilian,,,,,,,,,,,,,,,,,,,,,,,,,,,,,,,,,,,,,,,,,,,,,,,,,,,,,,,,
,,,,,,,,,5e51c83155087a204d8e7f1f,spanish,13 or older,"no, only English or Spanish",no,2025-07-23_07h14.26.202,empathy_intonation_perc,2024.2.4,MacIntel,59.52380952,5e51c83155087a204d8e7f1f,687ed1b7e638a4cbf2f02089,6880c3c77e0681e06b644498,,,,,,,,,,,,,52,0,,./stim/wavs/cuban_match_declarative-broad-focus_Daniel-iba-a-Bolivia.wav,,,,,,,,,,,,,,,,,,,,,,396.3667,398.6011,0,1,1.7152,,0,75,75,51,1,0,cuban,,,,,,,,,,,,,,,,,,,,,,,,,,,,,,,,,,,,,,,,,,,,,,,,,,,,,,,,
,,,,,,,,,5e51c83155087a204d8e7f1f,spanish,13 or older,"no, only English or Spanish",no,2025-07-23_07h14.26.202,empathy_intonation_perc,2024.2.4,MacIntel,59.52380952,5e51c83155087a204d8e7f1f,687ed1b7e638a4cbf2f02089,6880c3c77e0681e06b644498,,,,,,,,,,,,,55,0,,./stim/wavs/cuban_match_declarative-broad-focus_Mariano-habla-del-tiempo.wav,,,,,,,,,,,,,,,,,,,,,,398.6014,401.1675,0,1,2.0337,,0,76,76,54,1,0,cuban,,,,,,,,,,,,,,,,,,,,,,,,,,,,,,,,,,,,,,,,,,,,,,,,,,,,,,,,
,,,,,,,,,5e51c83155087a204d8e7f1f,spanish,13 or older,"no, only English or Spanish",no,2025-07-23_07h14.26.202,empathy_intonation_perc,2024.2.4,MacIntel,59.52380952,5e51c83155087a204d8e7f1f,687ed1b7e638a4cbf2f02089,6880c3c77e0681e06b644498,,,,,,,,,,,,,10,1,,./stim/wavs/cuban_match_interrogative-total-yn_Maria-bebe-el-vino.wav,,,,,,,,,,,,,,,,,,,,,,401.1679,403.3027,0,0,1.6158,,0,77,77,9,1,1,cuban,,,,,,,,,,,,,,,,,,,,,,,,,,,,,,,,,,,,,,,,,,,,,,,,,,,,,,,,
,,,,,,,,,5e51c83155087a204d8e7f1f,spanish,13 or older,"no, only English or Spanish",no,2025-07-23_07h14.26.202,empathy_intonation_perc,2024.2.4,MacIntel,59.52380952,5e51c83155087a204d8e7f1f,687ed1b7e638a4cbf2f02089,6880c3c77e0681e06b644498,,,,,,,,,,,,,21,1,,./stim/wavs/puertorican_match_interrogative-total-yn_David-leia-el-libro.wav,,,,,,,,,,,,,,,,,,,,,,403.303,405.7856,0,0,1.9496,,0,78,78,20,1,1,puertorican,,,,,,,,,,,,,,,,,,,,,,,,,,,,,,,,,,,,,,,,,,,,,,,,,,,,,,,,
,,,,,,,,,5e51c83155087a204d8e7f1f,spanish,13 or older,"no, only English or Spanish",no,2025-07-23_07h14.26.202,empathy_intonation_perc,2024.2.4,MacIntel,59.52380952,5e51c83155087a204d8e7f1f,687ed1b7e638a4cbf2f02089,6880c3c77e0681e06b644498,,,,,,,,,,,,,3,1,,./stim/wavs/castilian_match_interrogative-total-yn_Manuela-vende-el-carro.wav,,,,,,,,,,,,,,,,,,,,,,405.7859,408.154,1,1,1.8494,,0,79,79,2,1,0,castilian,,,,,,,,,,,,,,,,,,,,,,,,,,,,,,,,,,,,,,,,,,,,,,,,,,,,,,,,
,,,,,,,,,5e51c83155087a204d8e7f1f,spanish,13 or older,"no, only English or Spanish",no,2025-07-23_07h14.26.202,empathy_intonation_perc,2024.2.4,MacIntel,59.52380952,5e51c83155087a204d8e7f1f,687ed1b7e638a4cbf2f02089,6880c3c77e0681e06b644498,,,,,,,,,,,,,34,1,,./stim/wavs/cuban_mismatch_interrogative-total-yn_Mi-tia-odia-la-lluvia.wav,,,,,,,,,,,,,,,,,,,,,,408.1542,410.5045,0,0,1.8166,,0,80,80,33,1,1,cuban,,,,,,,,,,,,,,,,,,,,,,,,,,,,,,,,,,,,,,,,,,,,,,,,,,,,,,,,
,,,,,,,,,5e51c83155087a204d8e7f1f,spanish,13 or older,"no, only English or Spanish",no,2025-07-23_07h14.26.202,empathy_intonation_perc,2024.2.4,MacIntel,59.52380952,5e51c83155087a204d8e7f1f,687ed1b7e638a4cbf2f02089,6880c3c77e0681e06b644498,,,,,,,,,,,,,70,0,,./stim/wavs/castilian_mismatch_declarative-broad-focus_La-maestra-vive-en-Paris.wav,,,,,,,,,,,,,,,,,,,,,,410.5048,412.8557,0,1,1.8177,,0,81,81,69,1,0,castilian,,,,,,,,,,,,,,,,,,,,,,,,,,,,,,,,,,,,,,,,,,,,,,,,,,,,,,,,
,,,,,,,,,5e51c83155087a204d8e7f1f,spanish,13 or older,"no, only English or Spanish",no,2025-07-23_07h14.26.202,empathy_intonation_perc,2024.2.4,MacIntel,59.52380952,5e51c83155087a204d8e7f1f,687ed1b7e638a4cbf2f02089,6880c3c77e0681e06b644498,,,,,,,,,,,,,47,0,,./stim/wavs/castilian_match_declarative-broad-focus_Manuela-vende-el-carro.wav,,,,,,,,,,,,,,,,,,,,,,412.856,415.0892,0,1,1.7003,,0,82,82,46,1,0,castilian,,,,,,,,,,,,,,,,,,,,,,,,,,,,,,,,,,,,,,,,,,,,,,,,,,,,,,,,
,,,,,,,,,5e51c83155087a204d8e7f1f,spanish,13 or older,"no, only English or Spanish",no,2025-07-23_07h14.26.202,empathy_intonation_perc,2024.2.4,MacIntel,59.52380952,5e51c83155087a204d8e7f1f,687ed1b7e638a4cbf2f02089,6880c3c77e0681e06b644498,,,,,,,,,,,,,65,0,,./stim/wavs/puertorican_match_declarative-broad-focus_David-leia-el-libro.wav,,,,,,,,,,,,,,,,,,,,,,415.0895,417.04,0,1,1.4172,,0,83,83,64,1,0,puertorican,,,,,,,,,,,,,,,,,,,,,,,,,,,,,,,,,,,,,,,,,,,,,,,,,,,,,,,,
,,,,,,,,,5e51c83155087a204d8e7f1f,spanish,13 or older,"no, only English or Spanish",no,2025-07-23_07h14.26.202,empathy_intonation_perc,2024.2.4,MacIntel,59.52380952,5e51c83155087a204d8e7f1f,687ed1b7e638a4cbf2f02089,6880c3c77e0681e06b644498,,,,,,,,,,,,,82,0,,./stim/wavs/mexican_mismatch_declarative-broad-focus_Mi-novio-viene-del-lago.wav,,,,,,,,,,,,,,,,,,,,,,417.0404,419.0077,0,1,1.4349,,0,84,84,81,1,0,mexican,,,,,,,,,,,,,,,,,,,,,,,,,,,,,,,,,,,,,,,,,,,,,,,,,,,,,,,,
,,,,,,,,,5e51c83155087a204d8e7f1f,spanish,13 or older,"no, only English or Spanish",no,2025-07-23_07h14.26.202,empathy_intonation_perc,2024.2.4,MacIntel,59.52380952,5e51c83155087a204d8e7f1f,687ed1b7e638a4cbf2f02089,6880c3c77e0681e06b644498,,,,,,,,,,,,,68,0,,./stim/wavs/puertorican_match_declarative-broad-focus_Maria-bebe-el-vino.wav,,,,,,,,,,,,,,,,,,,,,,419.0081,421.2253,1,0,1.6842,,0,85,85,67,1,0,puertorican,,,,,,,,,,,,,,,,,,,,,,,,,,,,,,,,,,,,,,,,,,,,,,,,,,,,,,,,
,,,,,,,,,5e51c83155087a204d8e7f1f,spanish,13 or older,"no, only English or Spanish",no,2025-07-23_07h14.26.202,empathy_intonation_perc,2024.2.4,MacIntel,59.52380952,5e51c83155087a204d8e7f1f,687ed1b7e638a4cbf2f02089,6880c3c77e0681e06b644498,,,,,,,,,,,,,31,1,,./stim/wavs/cuban_mismatch_interrogative-total-yn_El-nino-oye-el-rio.wav,,,,,,,,,,,,,,,,,,,,,,421.2255,423.225,0,0,1.467,,0,86,86,30,1,1,cuban,,,,,,,,,,,,,,,,,,,,,,,,,,,,,,,,,,,,,,,,,,,,,,,,,,,,,,,,
,,,,,,,,,5e51c83155087a204d8e7f1f,spanish,13 or older,"no, only English or Spanish",no,2025-07-23_07h14.26.202,empathy_intonation_perc,2024.2.4,MacIntel,59.52380952,5e51c83155087a204d8e7f1f,687ed1b7e638a4cbf2f02089,6880c3c77e0681e06b644498,,,,,,,,,,,,,49,0,,./stim/wavs/castilian_match_declarative-broad-focus_Mariano-habla-del-tiempo.wav,,,,,,,,,,,,,,,,,,,,,,423.2253,425.6435,0,1,1.8996,,0,87,87,48,1,0,castilian,,,,,,,,,,,,,,,,,,,,,,,,,,,,,,,,,,,,,,,,,,,,,,,,,,,,,,,,
,,,,,,,"Great! Now we will move on. The next task consists of about 60 trials, in each of which you will see a string of letters. 
  
  Your task is to decide whether this is a real Spanish word or not.", (press the spacebar to continue),5e51c83155087a204d8e7f1f,spanish,13 or older,"no, only English or Spanish",no,2025-07-23_07h14.26.202,empathy_intonation_perc,2024.2.4,MacIntel,59.52380952,5e51c83155087a204d8e7f1f,687ed1b7e638a4cbf2f02089,6880c3c77e0681e06b644498,,,,,,,,,,,,,,,,,,,,,,,,,,,,,,,,,,,,,,,,,,,,,,,,,,,425.6482,438.9473,0,0,0,0,1,,,,,,,,,,,,,,,,,,,,,,,,,,,,,,,,,,,,,,,,,,,,,,,,,
,,,,,,,"If you think it is an existing Spanish word, you type '1' (for 'REAL'), and if you think it is not an existing Spanish word, you type '0' (for 'FAKE').", (press the spacebar to continue),5e51c83155087a204d8e7f1f,spanish,13 or older,"no, only English or Spanish",no,2025-07-23_07h14.26.202,empathy_intonation_perc,2024.2.4,MacIntel,59.52380952,5e51c83155087a204d8e7f1f,687ed1b7e638a4cbf2f02089,6880c3c77e0681e06b644498,,,,,,,,,,,,,,,,,,,,,,,,,,,,,,,,,,,,,,,,,,,,,,,,,,,438.9479,443.7662,0,1,1,1,1,,,,,,,,,,,,,,,,,,,,,,,,,,,,,,,,,,,,,,,,,,,,,,,,,
,,,,,,,"If you are sure that the word exists, even though you don’t know its exact meaning, you may still respond '1' (REAL). 
  
  But if you are not sure if it is an existing word, you should respond '0' (FAKE).
  
  Let's do a practice round...", (press the spacebar to continue),5e51c83155087a204d8e7f1f,spanish,13 or older,"no, only English or Spanish",no,2025-07-23_07h14.26.202,empathy_intonation_perc,2024.2.4,MacIntel,59.52380952,5e51c83155087a204d8e7f1f,687ed1b7e638a4cbf2f02089,6880c3c77e0681e06b644498,,,,,,,,,,,,,,,,,,,,,,,,,,,,,,,,,,,,,,,,,,,,,,,,,,,443.7672,451.002,0,2,2,2,1,,,,,,,,,,,,,,,,,,,,,,,,,,,,,,,,,,,,,,,,,,,,,,,,,
,,,,,,,,,5e51c83155087a204d8e7f1f,spanish,13 or older,"no, only English or Spanish",no,2025-07-23_07h14.26.202,empathy_intonation_perc,2024.2.4,MacIntel,59.52380952,5e51c83155087a204d8e7f1f,687ed1b7e638a4cbf2f02089,6880c3c77e0681e06b644498,,,,,,,,,,,,,,0,,,,,,,,,,,,,,,,,,,,,,,,,,,,,,,,,,,,,,,,,,,,451.006,453.8029,0,1,2.2662,,453.803,454.8033,0,0,0,0,1,0,depiste,REAL,FAKE,,,,,,,,,,,,,,,,,,,,,,,,,,,,,,,,
,,,,,,,,,5e51c83155087a204d8e7f1f,spanish,13 or older,"no, only English or Spanish",no,2025-07-23_07h14.26.202,empathy_intonation_perc,2024.2.4,MacIntel,59.52380952,5e51c83155087a204d8e7f1f,687ed1b7e638a4cbf2f02089,6880c3c77e0681e06b644498,,,,,,,,,,,,,,1,,,,,,,,,,,,,,,,,,,,,,,,,,,,,,,,,,,,,,,,,,,,454.8105,457.2368,1,1,1.8992,,457.2369,458.2378,0,1,1,1,1,0,sí,REAL,FAKE,,,,,,,,,,,,,,,,,,,,,,,,,,,,,,,,
,,,,,,,,,5e51c83155087a204d8e7f1f,spanish,13 or older,"no, only English or Spanish",no,2025-07-23_07h14.26.202,empathy_intonation_perc,2024.2.4,MacIntel,59.52380952,5e51c83155087a204d8e7f1f,687ed1b7e638a4cbf2f02089,6880c3c77e0681e06b644498,,,,,,,,,,,,,,0,,,,,,,,,,,,,,,,,,,,,,,,,,,,,,,,,,,,,,,,,,,,458.2384,461.6045,1,0,2.8317,,461.605,462.6053,0,2,2,2,1,0,coné,REAL,FAKE,,,,,,,,,,,,,,,,,,,,,,,,,,,,,,,,
,,,,,,,,,5e51c83155087a204d8e7f1f,spanish,13 or older,"no, only English or Spanish",no,2025-07-23_07h14.26.202,empathy_intonation_perc,2024.2.4,MacIntel,59.52380952,5e51c83155087a204d8e7f1f,687ed1b7e638a4cbf2f02089,6880c3c77e0681e06b644498,,,,,,,,,,,,,,0,,,,,,,,,,,,,,,,,,,,,,,,,,,,,,,,,,,,,,,,,,,,462.6059,464.7058,0,1,1.566,,464.7061,465.7064,0,3,3,3,1,0,calpar,REAL,FAKE,,,,,,,,,,,,,,,,,,,,,,,,,,,,,,,,
,,,,,,,,,5e51c83155087a204d8e7f1f,spanish,13 or older,"no, only English or Spanish",no,2025-07-23_07h14.26.202,empathy_intonation_perc,2024.2.4,MacIntel,59.52380952,5e51c83155087a204d8e7f1f,687ed1b7e638a4cbf2f02089,6880c3c77e0681e06b644498,,,,,,,,,,,,,,0,,,,,,,,,,,,,,,,,,,,,,,,,,,,,,,,,,,,,,,,,,,,465.7069,468.0244,0,1,1.7796,,468.0244,469.0246,0,4,4,4,1,0,joten,REAL,FAKE,,,,,,,,,,,,,,,,,,,,,,,,,,,,,,,,
,,,,,,,,,5e51c83155087a204d8e7f1f,spanish,13 or older,"no, only English or Spanish",no,2025-07-23_07h14.26.202,empathy_intonation_perc,2024.2.4,MacIntel,59.52380952,5e51c83155087a204d8e7f1f,687ed1b7e638a4cbf2f02089,6880c3c77e0681e06b644498,,,,,,,,,,,,,,1,,,,,,,,,,,,,,,,,,,,,,,,,,,,,,,,,,,,,,,,,,,,469.0255,470.8579,1,1,1.2952,,470.858,471.8582,0,5,5,5,1,0,sacapuntas,REAL,FAKE,,,,,,,,,,,,,,,,,,,,,,,,,,,,,,,,
,,,,,,,,,5e51c83155087a204d8e7f1f,spanish,13 or older,"no, only English or Spanish",no,2025-07-23_07h14.26.202,empathy_intonation_perc,2024.2.4,MacIntel,59.52380952,5e51c83155087a204d8e7f1f,687ed1b7e638a4cbf2f02089,6880c3c77e0681e06b644498,,,,,,,,,,,,,,0,,,,,,,,,,,,,,,,,,,,,,,,,,,,,,,,,,,,,,,,,,,,471.8589,473.893,1,0,1.5131,,473.8935,474.8933,0,6,6,6,1,0,priba,REAL,FAKE,,,,,,,,,,,,,,,,,,,,,,,,,,,,,,,,
,,,,,,,,,5e51c83155087a204d8e7f1f,spanish,13 or older,"no, only English or Spanish",no,2025-07-23_07h14.26.202,empathy_intonation_perc,2024.2.4,MacIntel,59.52380952,5e51c83155087a204d8e7f1f,687ed1b7e638a4cbf2f02089,6880c3c77e0681e06b644498,,,,,,,,,,,,,,0,,,,,,,,,,,,,,,,,,,,,,,,,,,,,,,,,,,,,,,,,,,,474.8939,476.3938,0,1,0.9674,,476.3944,477.3937,0,7,7,7,1,0,pelasula,REAL,FAKE,,,,,,,,,,,,,,,,,,,,,,,,,,,,,,,,
,,,,,,,,,5e51c83155087a204d8e7f1f,spanish,13 or older,"no, only English or Spanish",no,2025-07-23_07h14.26.202,empathy_intonation_perc,2024.2.4,MacIntel,59.52380952,5e51c83155087a204d8e7f1f,687ed1b7e638a4cbf2f02089,6880c3c77e0681e06b644498,,,,,,,,,,,,,,1,,,,,,,,,,,,,,,,,,,,,,,,,,,,,,,,,,,,,,,,,,,,477.3941,478.7777,0,0,0.8639,,478.7781,479.7783,0,8,8,8,1,0,bien,REAL,FAKE,,,,,,,,,,,,,,,,,,,,,,,,,,,,,,,,
,,,,,,,,,5e51c83155087a204d8e7f1f,spanish,13 or older,"no, only English or Spanish",no,2025-07-23_07h14.26.202,empathy_intonation_perc,2024.2.4,MacIntel,59.52380952,5e51c83155087a204d8e7f1f,687ed1b7e638a4cbf2f02089,6880c3c77e0681e06b644498,,,,,,,,,,,,,,1,,,,,,,,,,,,,,,,,,,,,,,,,,,,,,,,,,,,,,,,,,,,479.7788,482.1613,1,1,1.8493,,482.1616,483.1626,0,9,9,9,1,0,casa,REAL,FAKE,,,,,,,,,,,,,,,,,,,,,,,,,,,,,,,,
,,,,,,,,,5e51c83155087a204d8e7f1f,spanish,13 or older,"no, only English or Spanish",no,2025-07-23_07h14.26.202,empathy_intonation_perc,2024.2.4,MacIntel,59.52380952,5e51c83155087a204d8e7f1f,687ed1b7e638a4cbf2f02089,6880c3c77e0681e06b644498,,,,,,,,,,,,,,0,,,,,,,,,,,,,,,,,,,,,,,,,,,,,,,,,,,,,,,,,,,,483.1633,484.513,1,0,0.8166,,484.5134,485.5136,0,10,10,10,1,0,lejo,REAL,FAKE,,,,,,,,,,,,,,,,,,,,,,,,,,,,,,,,
,,,,,,,,,5e51c83155087a204d8e7f1f,spanish,13 or older,"no, only English or Spanish",no,2025-07-23_07h14.26.202,empathy_intonation_perc,2024.2.4,MacIntel,59.52380952,5e51c83155087a204d8e7f1f,687ed1b7e638a4cbf2f02089,6880c3c77e0681e06b644498,,,,,,,,,,,,,,0,,,,,,,,,,,,,,,,,,,,,,,,,,,,,,,,,,,,,,,,,,,,485.5143,487.7969,1,0,1.75,,487.7969,488.7977,0,11,11,11,1,0,pretantas,REAL,FAKE,,,,,,,,,,,,,,,,,,,,,,,,,,,,,,,,
,,,,,,,,,5e51c83155087a204d8e7f1f,spanish,13 or older,"no, only English or Spanish",no,2025-07-23_07h14.26.202,empathy_intonation_perc,2024.2.4,MacIntel,59.52380952,5e51c83155087a204d8e7f1f,687ed1b7e638a4cbf2f02089,6880c3c77e0681e06b644498,,,,,,,,,,,,,,,,,,,,,,,,,,,,,,,,,,,,,,,,,,,,,,,,,,,,,,,,,,,,,,,,,,,,,,,,,,,488.7979,490.4489,,,,,,,,,,,,,,,,,,,,,,,,,,,,,,
,,,,,,,,,5e51c83155087a204d8e7f1f,spanish,13 or older,"no, only English or Spanish",no,2025-07-23_07h14.26.202,empathy_intonation_perc,2024.2.4,MacIntel,59.52380952,5e51c83155087a204d8e7f1f,687ed1b7e638a4cbf2f02089,6880c3c77e0681e06b644498,,,,,,,,,,,,,,1,,,,,,,,,,,,,,,,,,,,,,,,,,,,,,,,,,,,,,,,,,,,,,,,,,,,,,,,,69,engatusar,,,,,490.4552,491.9317,0,0,0.9452,,0,0,0,68,1,REAL,FAKE,,,,,,,,,,,,,,,,,
,,,,,,,,,5e51c83155087a204d8e7f1f,spanish,13 or older,"no, only English or Spanish",no,2025-07-23_07h14.26.202,empathy_intonation_perc,2024.2.4,MacIntel,59.52380952,5e51c83155087a204d8e7f1f,687ed1b7e638a4cbf2f02089,6880c3c77e0681e06b644498,,,,,,,,,,,,,,0,,,,,,,,,,,,,,,,,,,,,,,,,,,,,,,,,,,,,,,,,,,,,,,,,,,,,,,,,87,grodo,,,,,491.9324,494.1494,1,0,1.701,,0,1,1,86,1,REAL,FAKE,,,,,,,,,,,,,,,,,
,,,,,,,,,5e51c83155087a204d8e7f1f,spanish,13 or older,"no, only English or Spanish",no,2025-07-23_07h14.26.202,empathy_intonation_perc,2024.2.4,MacIntel,59.52380952,5e51c83155087a204d8e7f1f,687ed1b7e638a4cbf2f02089,6880c3c77e0681e06b644498,,,,,,,,,,,,,,0,,,,,,,,,,,,,,,,,,,,,,,,,,,,,,,,,,,,,,,,,,,,,,,,,,,,,,,,,17,floroso,,,,,494.1499,495.567,1,0,0.8805,,0,2,2,16,1,REAL,FAKE,,,,,,,,,,,,,,,,,
,,,,,,,,,5e51c83155087a204d8e7f1f,spanish,13 or older,"no, only English or Spanish",no,2025-07-23_07h14.26.202,empathy_intonation_perc,2024.2.4,MacIntel,59.52380952,5e51c83155087a204d8e7f1f,687ed1b7e638a4cbf2f02089,6880c3c77e0681e06b644498,,,,,,,,,,,,,,0,,,,,,,,,,,,,,,,,,,,,,,,,,,,,,,,,,,,,,,,,,,,,,,,,,,,,,,,,70,temblo,,,,,495.5676,496.9333,1,0,0.8347,,0,3,3,69,1,REAL,FAKE,,,,,,,,,,,,,,,,,
,,,,,,,,,5e51c83155087a204d8e7f1f,spanish,13 or older,"no, only English or Spanish",no,2025-07-23_07h14.26.202,empathy_intonation_perc,2024.2.4,MacIntel,59.52380952,5e51c83155087a204d8e7f1f,687ed1b7e638a4cbf2f02089,6880c3c77e0681e06b644498,,,,,,,,,,,,,,1,,,,,,,,,,,,,,,,,,,,,,,,,,,,,,,,,,,,,,,,,,,,,,,,,,,,,,,,,83,guante,,,,,496.9337,498.7842,1,1,1.3162,,0,4,4,82,1,REAL,FAKE,,,,,,,,,,,,,,,,,
,,,,,,,,,5e51c83155087a204d8e7f1f,spanish,13 or older,"no, only English or Spanish",no,2025-07-23_07h14.26.202,empathy_intonation_perc,2024.2.4,MacIntel,59.52380952,5e51c83155087a204d8e7f1f,687ed1b7e638a4cbf2f02089,6880c3c77e0681e06b644498,,,,,,,,,,,,,,0,,,,,,,,,,,,,,,,,,,,,,,,,,,,,,,,,,,,,,,,,,,,,,,,,,,,,,,,,58,plaudir,,,,,498.7846,500.7853,1,0,1.4789,,0,5,5,57,1,REAL,FAKE,,,,,,,,,,,,,,,,,
,,,,,,,,,5e51c83155087a204d8e7f1f,spanish,13 or older,"no, only English or Spanish",no,2025-07-23_07h14.26.202,empathy_intonation_perc,2024.2.4,MacIntel,59.52380952,5e51c83155087a204d8e7f1f,687ed1b7e638a4cbf2f02089,6880c3c77e0681e06b644498,,,,,,,,,,,,,,0,,,,,,,,,,,,,,,,,,,,,,,,,,,,,,,,,,,,,,,,,,,,,,,,,,,,,,,,,72,pemición,,,,,500.7858,502.9182,1,0,1.5991,,0,6,6,71,1,REAL,FAKE,,,,,,,,,,,,,,,,,
,,,,,,,,,5e51c83155087a204d8e7f1f,spanish,13 or older,"no, only English or Spanish",no,2025-07-23_07h14.26.202,empathy_intonation_perc,2024.2.4,MacIntel,59.52380952,5e51c83155087a204d8e7f1f,687ed1b7e638a4cbf2f02089,6880c3c77e0681e06b644498,,,,,,,,,,,,,,1,,,,,,,,,,,,,,,,,,,,,,,,,,,,,,,,,,,,,,,,,,,,,,,,,,,,,,,,,81,pozo,,,,,502.9187,504.3019,0,0,0.8674,,0,7,7,80,1,REAL,FAKE,,,,,,,,,,,,,,,,,
,,,,,,,,,5e51c83155087a204d8e7f1f,spanish,13 or older,"no, only English or Spanish",no,2025-07-23_07h14.26.202,empathy_intonation_perc,2024.2.4,MacIntel,59.52380952,5e51c83155087a204d8e7f1f,687ed1b7e638a4cbf2f02089,6880c3c77e0681e06b644498,,,,,,,,,,,,,,1,,,,,,,,,,,,,,,,,,,,,,,,,,,,,,,,,,,,,,,,,,,,,,,,,,,,,,,,,86,barato,,,,,504.3025,505.9534,1,1,1.1353,,0,8,8,85,1,REAL,FAKE,,,,,,,,,,,,,,,,,
,,,,,,,,,5e51c83155087a204d8e7f1f,spanish,13 or older,"no, only English or Spanish",no,2025-07-23_07h14.26.202,empathy_intonation_perc,2024.2.4,MacIntel,59.52380952,5e51c83155087a204d8e7f1f,687ed1b7e638a4cbf2f02089,6880c3c77e0681e06b644498,,,,,,,,,,,,,,1,,,,,,,,,,,,,,,,,,,,,,,,,,,,,,,,,,,,,,,,,,,,,,,,,,,,,,,,,5,zapato,,,,,505.9541,507.5541,1,1,1.0782,,0,9,9,4,1,REAL,FAKE,,,,,,,,,,,,,,,,,
,,,,,,,,,5e51c83155087a204d8e7f1f,spanish,13 or older,"no, only English or Spanish",no,2025-07-23_07h14.26.202,empathy_intonation_perc,2024.2.4,MacIntel,59.52380952,5e51c83155087a204d8e7f1f,687ed1b7e638a4cbf2f02089,6880c3c77e0681e06b644498,,,,,,,,,,,,,,1,,,,,,,,,,,,,,,,,,,,,,,,,,,,,,,,,,,,,,,,,,,,,,,,,,,,,,,,,61,seda,,,,,507.5546,509.0546,1,1,0.9685,,0,10,10,60,1,REAL,FAKE,,,,,,,,,,,,,,,,,
,,,,,,,,,5e51c83155087a204d8e7f1f,spanish,13 or older,"no, only English or Spanish",no,2025-07-23_07h14.26.202,empathy_intonation_perc,2024.2.4,MacIntel,59.52380952,5e51c83155087a204d8e7f1f,687ed1b7e638a4cbf2f02089,6880c3c77e0681e06b644498,,,,,,,,,,,,,,0,,,,,,,,,,,,,,,,,,,,,,,,,,,,,,,,,,,,,,,,,,,,,,,,,,,,,,,,,92,click the 0 key.,,,,,509.0553,511.5381,0,1,1.9471,,0,11,11,91,1,REAL,FAKE,,,,,,,,,,,,,,,,,
,,,,,,,,,5e51c83155087a204d8e7f1f,spanish,13 or older,"no, only English or Spanish",no,2025-07-23_07h14.26.202,empathy_intonation_perc,2024.2.4,MacIntel,59.52380952,5e51c83155087a204d8e7f1f,687ed1b7e638a4cbf2f02089,6880c3c77e0681e06b644498,,,,,,,,,,,,,,1,,,,,,,,,,,,,,,,,,,,,,,,,,,,,,,,,,,,,,,,,,,,,,,,,,,,,,,,,60,matar,,,,,511.5387,513.372,0,0,1.3149,,0,12,12,59,1,REAL,FAKE,,,,,,,,,,,,,,,,,
,,,,,,,,,5e51c83155087a204d8e7f1f,spanish,13 or older,"no, only English or Spanish",no,2025-07-23_07h14.26.202,empathy_intonation_perc,2024.2.4,MacIntel,59.52380952,5e51c83155087a204d8e7f1f,687ed1b7e638a4cbf2f02089,6880c3c77e0681e06b644498,,,,,,,,,,,,,,1,,,,,,,,,,,,,,,,,,,,,,,,,,,,,,,,,,,,,,,,,,,,,,,,,,,,,,,,,31,pandilla,,,,,513.3725,515.0401,1,1,1.1318,,0,13,13,30,1,REAL,FAKE,,,,,,,,,,,,,,,,,
,,,,,,,,,5e51c83155087a204d8e7f1f,spanish,13 or older,"no, only English or Spanish",no,2025-07-23_07h14.26.202,empathy_intonation_perc,2024.2.4,MacIntel,59.52380952,5e51c83155087a204d8e7f1f,687ed1b7e638a4cbf2f02089,6880c3c77e0681e06b644498,,,,,,,,,,,,,,0,,,,,,,,,,,,,,,,,,,,,,,,,,,,,,,,,,,,,,,,,,,,,,,,,,,,,,,,,27,acutación,,,,,515.0407,516.6074,1,0,1.0306,,0,14,14,26,1,REAL,FAKE,,,,,,,,,,,,,,,,,
,,,,,,,,,5e51c83155087a204d8e7f1f,spanish,13 or older,"no, only English or Spanish",no,2025-07-23_07h14.26.202,empathy_intonation_perc,2024.2.4,MacIntel,59.52380952,5e51c83155087a204d8e7f1f,687ed1b7e638a4cbf2f02089,6880c3c77e0681e06b644498,,,,,,,,,,,,,,0,,,,,,,,,,,,,,,,,,,,,,,,,,,,,,,,,,,,,,,,,,,,,,,,,,,,,,,,,50,flamida,,,,,516.6079,518.2412,1,0,1.0985,,0,15,15,49,1,REAL,FAKE,,,,,,,,,,,,,,,,,
,,,,,,,,,5e51c83155087a204d8e7f1f,spanish,13 or older,"no, only English or Spanish",no,2025-07-23_07h14.26.202,empathy_intonation_perc,2024.2.4,MacIntel,59.52380952,5e51c83155087a204d8e7f1f,687ed1b7e638a4cbf2f02089,6880c3c77e0681e06b644498,,,,,,,,,,,,,,1,,,,,,,,,,,,,,,,,,,,,,,,,,,,,,,,,,,,,,,,,,,,,,,,,,,,,,,,,67,cabello,,,,,518.2416,520.3919,1,1,1.6115,,0,16,16,66,1,REAL,FAKE,,,,,,,,,,,,,,,,,
,,,,,,,,,5e51c83155087a204d8e7f1f,spanish,13 or older,"no, only English or Spanish",no,2025-07-23_07h14.26.202,empathy_intonation_perc,2024.2.4,MacIntel,59.52380952,5e51c83155087a204d8e7f1f,687ed1b7e638a4cbf2f02089,6880c3c77e0681e06b644498,,,,,,,,,,,,,,0,,,,,,,,,,,,,,,,,,,,,,,,,,,,,,,,,,,,,,,,,,,,,,,,,,,,,,,,,19,brecedad,,,,,520.3925,521.9086,0,1,0.9818,,0,17,17,18,1,REAL,FAKE,,,,,,,,,,,,,,,,,
,,,,,,,,,5e51c83155087a204d8e7f1f,spanish,13 or older,"no, only English or Spanish",no,2025-07-23_07h14.26.202,empathy_intonation_perc,2024.2.4,MacIntel,59.52380952,5e51c83155087a204d8e7f1f,687ed1b7e638a4cbf2f02089,6880c3c77e0681e06b644498,,,,,,,,,,,,,,0,,,,,,,,,,,,,,,,,,,,,,,,,,,,,,,,,,,,,,,,,,,,,,,,,,,,,,,,,1,terzo,,,,,521.9091,523.8764,0,1,1.4482,,0,18,18,0,1,REAL,FAKE,,,,,,,,,,,,,,,,,
,,,,,,,,,5e51c83155087a204d8e7f1f,spanish,13 or older,"no, only English or Spanish",no,2025-07-23_07h14.26.202,empathy_intonation_perc,2024.2.4,MacIntel,59.52380952,5e51c83155087a204d8e7f1f,687ed1b7e638a4cbf2f02089,6880c3c77e0681e06b644498,,,,,,,,,,,,,,1,,,,,,,,,,,,,,,,,,,,,,,,,,,,,,,,,,,,,,,,,,,,,,,,,,,,,,,,,80,hormiga,,,,,523.877,525.8938,0,0,1.4821,,0,19,19,79,1,REAL,FAKE,,,,,,,,,,,,,,,,,
,,,,,,,,,5e51c83155087a204d8e7f1f,spanish,13 or older,"no, only English or Spanish",no,2025-07-23_07h14.26.202,empathy_intonation_perc,2024.2.4,MacIntel,59.52380952,5e51c83155087a204d8e7f1f,687ed1b7e638a4cbf2f02089,6880c3c77e0681e06b644498,,,,,,,,,,,,,,1,,,,,,,,,,,,,,,,,,,,,,,,,,,,,,,,,,,,,,,,,,,,,,,,,,,,,,,,,43,canela,,,,,525.8945,527.1609,1,1,0.7307,,0,20,20,42,1,REAL,FAKE,,,,,,,,,,,,,,,,,
,,,,,,,,,5e51c83155087a204d8e7f1f,spanish,13 or older,"no, only English or Spanish",no,2025-07-23_07h14.26.202,empathy_intonation_perc,2024.2.4,MacIntel,59.52380952,5e51c83155087a204d8e7f1f,687ed1b7e638a4cbf2f02089,6880c3c77e0681e06b644498,,,,,,,,,,,,,,1,,,,,,,,,,,,,,,,,,,,,,,,,,,,,,,,,,,,,,,,,,,,,,,,,,,,,,,,,78,frondoso,,,,,527.1615,528.7603,1,1,1.0625,,0,21,21,77,1,REAL,FAKE,,,,,,,,,,,,,,,,,
,,,,,,,,,5e51c83155087a204d8e7f1f,spanish,13 or older,"no, only English or Spanish",no,2025-07-23_07h14.26.202,empathy_intonation_perc,2024.2.4,MacIntel,59.52380952,5e51c83155087a204d8e7f1f,687ed1b7e638a4cbf2f02089,6880c3c77e0681e06b644498,,,,,,,,,,,,,,1,,,,,,,,,,,,,,,,,,,,,,,,,,,,,,,,,,,,,,,,,,,,,,,,,,,,,,,,,12,asesinato,,,,,528.7609,530.5941,1,1,1.3154,,0,22,22,11,1,REAL,FAKE,,,,,,,,,,,,,,,,,
,,,,,,,,,5e51c83155087a204d8e7f1f,spanish,13 or older,"no, only English or Spanish",no,2025-07-23_07h14.26.202,empathy_intonation_perc,2024.2.4,MacIntel,59.52380952,5e51c83155087a204d8e7f1f,687ed1b7e638a4cbf2f02089,6880c3c77e0681e06b644498,,,,,,,,,,,,,,1,,,,,,,,,,,,,,,,,,,,,,,,,,,,,,,,,,,,,,,,,,,,,,,,,,,,,,,,,41,rebuscar,,,,,530.5947,532.3127,0,0,1.1986,,0,23,23,40,1,REAL,FAKE,,,,,,,,,,,,,,,,,
,,,,,,,,,5e51c83155087a204d8e7f1f,spanish,13 or older,"no, only English or Spanish",no,2025-07-23_07h14.26.202,empathy_intonation_perc,2024.2.4,MacIntel,59.52380952,5e51c83155087a204d8e7f1f,687ed1b7e638a4cbf2f02089,6880c3c77e0681e06b644498,,,,,,,,,,,,,,1,,,,,,,,,,,,,,,,,,,,,,,,,,,,,,,,,,,,,,,,,,,,,,,,,,,,,,,,,11,cenefa,,,,,532.3134,534.0129,0,0,1.1648,,0,24,24,10,1,REAL,FAKE,,,,,,,,,,,,,,,,,
,,,,,,,,,5e51c83155087a204d8e7f1f,spanish,13 or older,"no, only English or Spanish",no,2025-07-23_07h14.26.202,empathy_intonation_perc,2024.2.4,MacIntel,59.52380952,5e51c83155087a204d8e7f1f,687ed1b7e638a4cbf2f02089,6880c3c77e0681e06b644498,,,,,,,,,,,,,,1,,,,,,,,,,,,,,,,,,,,,,,,,,,,,,,,,,,,,,,,,,,,,,,,,,,,,,,,,75,yacer,,,,,534.0134,535.3297,0,0,0.7941,,0,25,25,74,1,REAL,FAKE,,,,,,,,,,,,,,,,,
,,,,,,,,,5e51c83155087a204d8e7f1f,spanish,13 or older,"no, only English or Spanish",no,2025-07-23_07h14.26.202,empathy_intonation_perc,2024.2.4,MacIntel,59.52380952,5e51c83155087a204d8e7f1f,687ed1b7e638a4cbf2f02089,6880c3c77e0681e06b644498,,,,,,,,,,,,,,1,,,,,,,,,,,,,,,,,,,,,,,,,,,,,,,,,,,,,,,,,,,,,,,,,,,,,,,,,45,jilguero,,,,,535.3303,536.9129,1,1,1.0658,,0,26,26,44,1,REAL,FAKE,,,,,,,,,,,,,,,,,
,,,,,,,,,5e51c83155087a204d8e7f1f,spanish,13 or older,"no, only English or Spanish",no,2025-07-23_07h14.26.202,empathy_intonation_perc,2024.2.4,MacIntel,59.52380952,5e51c83155087a204d8e7f1f,687ed1b7e638a4cbf2f02089,6880c3c77e0681e06b644498,,,,,,,,,,,,,,1,,,,,,,,,,,,,,,,,,,,,,,,,,,,,,,,,,,,,,,,,,,,,,,,,,,,,,,,,73,hervidor,,,,,536.9134,538.5813,1,1,1.1501,,0,27,27,72,1,REAL,FAKE,,,,,,,,,,,,,,,,,
,,,,,,,,,5e51c83155087a204d8e7f1f,spanish,13 or older,"no, only English or Spanish",no,2025-07-23_07h14.26.202,empathy_intonation_perc,2024.2.4,MacIntel,59.52380952,5e51c83155087a204d8e7f1f,687ed1b7e638a4cbf2f02089,6880c3c77e0681e06b644498,,,,,,,,,,,,,,1,,,,,,,,,,,,,,,,,,,,,,,,,,,,,,,,,,,,,,,,,,,,,,,,,,,,,,,,,55,nevar,,,,,538.5819,540.3311,0,0,1.2156,,0,28,28,54,1,REAL,FAKE,,,,,,,,,,,,,,,,,
,,,,,,,,,5e51c83155087a204d8e7f1f,spanish,13 or older,"no, only English or Spanish",no,2025-07-23_07h14.26.202,empathy_intonation_perc,2024.2.4,MacIntel,59.52380952,5e51c83155087a204d8e7f1f,687ed1b7e638a4cbf2f02089,6880c3c77e0681e06b644498,,,,,,,,,,,,,,1,,,,,,,,,,,,,,,,,,,,,,,,,,,,,,,,,,,,,,,,,,,,,,,,,,,,,,,,,38,estornudar,,,,,540.3316,542.216,0,0,1.3641,,0,29,29,37,1,REAL,FAKE,,,,,,,,,,,,,,,,,
,,,,,,,,,5e51c83155087a204d8e7f1f,spanish,13 or older,"no, only English or Spanish",no,2025-07-23_07h14.26.202,empathy_intonation_perc,2024.2.4,MacIntel,59.52380952,5e51c83155087a204d8e7f1f,687ed1b7e638a4cbf2f02089,6880c3c77e0681e06b644498,,,,,,,,,,,,,,1,,,,,,,,,,,,,,,,,,,,,,,,,,,,,,,,,,,,,,,,,,,,,,,,,,,,,,,,,91,click the 1 key.,,,,,542.2167,544.3499,1,1,1.5964,,0,30,30,90,1,REAL,FAKE,,,,,,,,,,,,,,,,,
,,,,,,,,,5e51c83155087a204d8e7f1f,spanish,13 or older,"no, only English or Spanish",no,2025-07-23_07h14.26.202,empathy_intonation_perc,2024.2.4,MacIntel,59.52380952,5e51c83155087a204d8e7f1f,687ed1b7e638a4cbf2f02089,6880c3c77e0681e06b644498,,,,,,,,,,,,,,0,,,,,,,,,,,,,,,,,,,,,,,,,,,,,,,,,,,,,,,,,,,,,,,,,,,,,,,,,79,tropaje,,,,,544.3502,546.2498,0,1,1.365,,0,31,31,78,1,REAL,FAKE,,,,,,,,,,,,,,,,,
,,,,,,,,,5e51c83155087a204d8e7f1f,spanish,13 or older,"no, only English or Spanish",no,2025-07-23_07h14.26.202,empathy_intonation_perc,2024.2.4,MacIntel,59.52380952,5e51c83155087a204d8e7f1f,687ed1b7e638a4cbf2f02089,6880c3c77e0681e06b644498,,,,,,,,,,,,,,1,,,,,,,,,,,,,,,,,,,,,,,,,,,,,,,,,,,,,,,,,,,,,,,,,,,,,,,,,49,ganar,,,,,546.2503,547.5511,0,0,0.7799,,0,32,32,48,1,REAL,FAKE,,,,,,,,,,,,,,,,,
,,,,,,,,,5e51c83155087a204d8e7f1f,spanish,13 or older,"no, only English or Spanish",no,2025-07-23_07h14.26.202,empathy_intonation_perc,2024.2.4,MacIntel,59.52380952,5e51c83155087a204d8e7f1f,687ed1b7e638a4cbf2f02089,6880c3c77e0681e06b644498,,,,,,,,,,,,,,1,,,,,,,,,,,,,,,,,,,,,,,,,,,,,,,,,,,,,,,,,,,,,,,,,,,,,,,,,71,polvoriento,,,,,547.5517,549.1347,0,0,1.0494,,0,33,33,70,1,REAL,FAKE,,,,,,,,,,,,,,,,,
,,,,,,,,,5e51c83155087a204d8e7f1f,spanish,13 or older,"no, only English or Spanish",no,2025-07-23_07h14.26.202,empathy_intonation_perc,2024.2.4,MacIntel,59.52380952,5e51c83155087a204d8e7f1f,687ed1b7e638a4cbf2f02089,6880c3c77e0681e06b644498,,,,,,,,,,,,,,1,,,,,,,,,,,,,,,,,,,,,,,,,,,,,,,,,,,,,,,,,,,,,,,,,,,,,,,,,59,besar,,,,,549.1353,550.6184,0,0,0.9463,,0,34,34,58,1,REAL,FAKE,,,,,,,,,,,,,,,,,
,,,,,,,,,5e51c83155087a204d8e7f1f,spanish,13 or older,"no, only English or Spanish",no,2025-07-23_07h14.26.202,empathy_intonation_perc,2024.2.4,MacIntel,59.52380952,5e51c83155087a204d8e7f1f,687ed1b7e638a4cbf2f02089,6880c3c77e0681e06b644498,,,,,,,,,,,,,,1,,,,,,,,,,,,,,,,,,,,,,,,,,,,,,,,,,,,,,,,,,,,,,,,,,,,,,,,,6,tergiversar,,,,,550.619,552.1688,0,0,1.0131,,0,35,35,5,1,REAL,FAKE,,,,,,,,,,,,,,,,,
,,,,,,,,,5e51c83155087a204d8e7f1f,spanish,13 or older,"no, only English or Spanish",no,2025-07-23_07h14.26.202,empathy_intonation_perc,2024.2.4,MacIntel,59.52380952,5e51c83155087a204d8e7f1f,687ed1b7e638a4cbf2f02089,6880c3c77e0681e06b644498,,,,,,,,,,,,,,1,,,,,,,,,,,,,,,,,,,,,,,,,,,,,,,,,,,,,,,,,,,,,,,,,,,,,,,,,40,alfombra,,,,,552.1695,554.1197,1,1,1.4294,,0,36,36,39,1,REAL,FAKE,,,,,,,,,,,,,,,,,
,,,,,,,,,5e51c83155087a204d8e7f1f,spanish,13 or older,"no, only English or Spanish",no,2025-07-23_07h14.26.202,empathy_intonation_perc,2024.2.4,MacIntel,59.52380952,5e51c83155087a204d8e7f1f,687ed1b7e638a4cbf2f02089,6880c3c77e0681e06b644498,,,,,,,,,,,,,,0,,,,,,,,,,,,,,,,,,,,,,,,,,,,,,,,,,,,,,,,,,,,,,,,,,,,,,,,,30,alardio,,,,,554.1204,555.7193,0,1,1.0662,,0,37,37,29,1,REAL,FAKE,,,,,,,,,,,,,,,,,
,,,,,,,,,5e51c83155087a204d8e7f1f,spanish,13 or older,"no, only English or Spanish",no,2025-07-23_07h14.26.202,empathy_intonation_perc,2024.2.4,MacIntel,59.52380952,5e51c83155087a204d8e7f1f,687ed1b7e638a4cbf2f02089,6880c3c77e0681e06b644498,,,,,,,,,,,,,,1,,,,,,,,,,,,,,,,,,,,,,,,,,,,,,,,,,,,,,,,,,,,,,,,,,,,,,,,,2,pellizcar,,,,,555.7197,557.337,1,1,1.0967,,0,38,38,1,1,REAL,FAKE,,,,,,,,,,,,,,,,,
,,,,,,,,,5e51c83155087a204d8e7f1f,spanish,13 or older,"no, only English or Spanish",no,2025-07-23_07h14.26.202,empathy_intonation_perc,2024.2.4,MacIntel,59.52380952,5e51c83155087a204d8e7f1f,687ed1b7e638a4cbf2f02089,6880c3c77e0681e06b644498,,,,,,,,,,,,,,1,,,,,,,,,,,,,,,,,,,,,,,,,,,,,,,,,,,,,,,,,,,,,,,,,,,,,,,,,48,ladrón,,,,,557.3374,558.554,0,0,0.6785,,0,39,39,47,1,REAL,FAKE,,,,,,,,,,,,,,,,,
,,,,,,,,,5e51c83155087a204d8e7f1f,spanish,13 or older,"no, only English or Spanish",no,2025-07-23_07h14.26.202,empathy_intonation_perc,2024.2.4,MacIntel,59.52380952,5e51c83155087a204d8e7f1f,687ed1b7e638a4cbf2f02089,6880c3c77e0681e06b644498,,,,,,,,,,,,,,0,,,,,,,,,,,,,,,,,,,,,,,,,,,,,,,,,,,,,,,,,,,,,,,,,,,,,,,,,8,cadeña,,,,,558.5545,560.2042,1,0,1.1144,,0,40,40,7,1,REAL,FAKE,,,,,,,,,,,,,,,,,
,,,,,,,,,5e51c83155087a204d8e7f1f,spanish,13 or older,"no, only English or Spanish",no,2025-07-23_07h14.26.202,empathy_intonation_perc,2024.2.4,MacIntel,59.52380952,5e51c83155087a204d8e7f1f,687ed1b7e638a4cbf2f02089,6880c3c77e0681e06b644498,,,,,,,,,,,,,,0,,,,,,,,,,,,,,,,,,,,,,,,,,,,,,,,,,,,,,,,,,,,,,,,,,,,,,,,,53,vegada,,,,,560.2049,561.8222,1,0,1.0928,,0,41,41,52,1,REAL,FAKE,,,,,,,,,,,,,,,,,
,,,,,,,,,5e51c83155087a204d8e7f1f,spanish,13 or older,"no, only English or Spanish",no,2025-07-23_07h14.26.202,empathy_intonation_perc,2024.2.4,MacIntel,59.52380952,5e51c83155087a204d8e7f1f,687ed1b7e638a4cbf2f02089,6880c3c77e0681e06b644498,,,,,,,,,,,,,,1,,,,,,,,,,,,,,,,,,,,,,,,,,,,,,,,,,,,,,,,,,,,,,,,,,,,,,,,,76,atar,,,,,561.823,563.3223,1,1,0.9661,,0,42,42,75,1,REAL,FAKE,,,,,,,,,,,,,,,,,
,,,,,,,,,5e51c83155087a204d8e7f1f,spanish,13 or older,"no, only English or Spanish",no,2025-07-23_07h14.26.202,empathy_intonation_perc,2024.2.4,MacIntel,59.52380952,5e51c83155087a204d8e7f1f,687ed1b7e638a4cbf2f02089,6880c3c77e0681e06b644498,,,,,,,,,,,,,,1,,,,,,,,,,,,,,,,,,,,,,,,,,,,,,,,,,,,,,,,,,,,,,,,,,,,,,,,,14,yunque,,,,,563.3228,564.8066,0,0,0.9612,,0,43,43,13,1,REAL,FAKE,,,,,,,,,,,,,,,,,
,,,,,,,,,5e51c83155087a204d8e7f1f,spanish,13 or older,"no, only English or Spanish",no,2025-07-23_07h14.26.202,empathy_intonation_perc,2024.2.4,MacIntel,59.52380952,5e51c83155087a204d8e7f1f,687ed1b7e638a4cbf2f02089,6880c3c77e0681e06b644498,,,,,,,,,,,,,,0,,,,,,,,,,,,,,,,,,,,,,,,,,,,,,,,,,,,,,,,,,,,,,,,,,,,,,,,,74,cintro,,,,,564.8071,566.4074,1,0,1.0623,,0,44,44,73,1,REAL,FAKE,,,,,,,,,,,,,,,,,
,,,,,,,,,5e51c83155087a204d8e7f1f,spanish,13 or older,"no, only English or Spanish",no,2025-07-23_07h14.26.202,empathy_intonation_perc,2024.2.4,MacIntel,59.52380952,5e51c83155087a204d8e7f1f,687ed1b7e638a4cbf2f02089,6880c3c77e0681e06b644498,,,,,,,,,,,,,,1,,,,,,,,,,,,,,,,,,,,,,,,,,,,,,,,,,,,,,,,,,,,,,,,,,,,,,,,,89,prisa,,,,,566.4081,567.8077,1,1,0.8633,,0,45,45,88,1,REAL,FAKE,,,,,,,,,,,,,,,,,
,,,,,,,,,5e51c83155087a204d8e7f1f,spanish,13 or older,"no, only English or Spanish",no,2025-07-23_07h14.26.202,empathy_intonation_perc,2024.2.4,MacIntel,59.52380952,5e51c83155087a204d8e7f1f,687ed1b7e638a4cbf2f02089,6880c3c77e0681e06b644498,,,,,,,,,,,,,,0,,,,,,,,,,,,,,,,,,,,,,,,,,,,,,,,,,,,,,,,,,,,,,,,,,,,,,,,,4,batillón,,,,,567.8085,569.4417,1,0,1.0962,,0,46,46,3,1,REAL,FAKE,,,,,,,,,,,,,,,,,
,,,,,,,,,5e51c83155087a204d8e7f1f,spanish,13 or older,"no, only English or Spanish",no,2025-07-23_07h14.26.202,empathy_intonation_perc,2024.2.4,MacIntel,59.52380952,5e51c83155087a204d8e7f1f,687ed1b7e638a4cbf2f02089,6880c3c77e0681e06b644498,,,,,,,,,,,,,,1,,,,,,,,,,,,,,,,,,,,,,,,,,,,,,,,,,,,,,,,,,,,,,,,,,,,,,,,,37,granuja,,,,,569.4425,571.0419,0,0,1.0639,,0,47,47,36,1,REAL,FAKE,,,,,,,,,,,,,,,,,
,,,,,,,,,5e51c83155087a204d8e7f1f,spanish,13 or older,"no, only English or Spanish",no,2025-07-23_07h14.26.202,empathy_intonation_perc,2024.2.4,MacIntel,59.52380952,5e51c83155087a204d8e7f1f,687ed1b7e638a4cbf2f02089,6880c3c77e0681e06b644498,,,,,,,,,,,,,,0,,,,,,,,,,,,,,,,,,,,,,,,,,,,,,,,,,,,,,,,,,,,,,,,,,,,,,,,,21,capillo,,,,,571.0426,572.3094,0,1,0.7458,,0,48,48,20,1,REAL,FAKE,,,,,,,,,,,,,,,,,
,,,,,,,,,5e51c83155087a204d8e7f1f,spanish,13 or older,"no, only English or Spanish",no,2025-07-23_07h14.26.202,empathy_intonation_perc,2024.2.4,MacIntel,59.52380952,5e51c83155087a204d8e7f1f,687ed1b7e638a4cbf2f02089,6880c3c77e0681e06b644498,,,,,,,,,,,,,,0,,,,,,,,,,,,,,,,,,,,,,,,,,,,,,,,,,,,,,,,,,,,,,,,,,,,,,,,,35,rompido,,,,,572.31,574.0094,0,1,1.16,,0,49,49,34,1,REAL,FAKE,,,,,,,,,,,,,,,,,
,,,,,,,,,5e51c83155087a204d8e7f1f,spanish,13 or older,"no, only English or Spanish",no,2025-07-23_07h14.26.202,empathy_intonation_perc,2024.2.4,MacIntel,59.52380952,5e51c83155087a204d8e7f1f,687ed1b7e638a4cbf2f02089,6880c3c77e0681e06b644498,,,,,,,,,,,,,,1,,,,,,,,,,,,,,,,,,,,,,,,,,,,,,,,,,,,,,,,,,,,,,,,,,,,,,,,,20,ávido,,,,,574.0099,575.3434,1,1,0.8135,,0,50,50,19,1,REAL,FAKE,,,,,,,,,,,,,,,,,
,,,,,,,,,5e51c83155087a204d8e7f1f,spanish,13 or older,"no, only English or Spanish",no,2025-07-23_07h14.26.202,empathy_intonation_perc,2024.2.4,MacIntel,59.52380952,5e51c83155087a204d8e7f1f,687ed1b7e638a4cbf2f02089,6880c3c77e0681e06b644498,,,,,,,,,,,,,,1,,,,,,,,,,,,,,,,,,,,,,,,,,,,,,,,,,,,,,,,,,,,,,,,,,,,,,,,,64,orgulloso,,,,,575.344,577.1764,1,1,1.316,,0,51,51,63,1,REAL,FAKE,,,,,,,,,,,,,,,,,
,,,,,,,,,5e51c83155087a204d8e7f1f,spanish,13 or older,"no, only English or Spanish",no,2025-07-23_07h14.26.202,empathy_intonation_perc,2024.2.4,MacIntel,59.52380952,5e51c83155087a204d8e7f1f,687ed1b7e638a4cbf2f02089,6880c3c77e0681e06b644498,,,,,,,,,,,,,,1,,,,,,,,,,,,,,,,,,,,,,,,,,,,,,,,,,,,,,,,,,,,,,,,,,,,,,,,,15,regar,,,,,577.177,578.5613,0,0,0.866,,0,52,52,14,1,REAL,FAKE,,,,,,,,,,,,,,,,,
,,,,,,,,,5e51c83155087a204d8e7f1f,spanish,13 or older,"no, only English or Spanish",no,2025-07-23_07h14.26.202,empathy_intonation_perc,2024.2.4,MacIntel,59.52380952,5e51c83155087a204d8e7f1f,687ed1b7e638a4cbf2f02089,6880c3c77e0681e06b644498,,,,,,,,,,,,,,1,,,,,,,,,,,,,,,,,,,,,,,,,,,,,,,,,,,,,,,,,,,,,,,,,,,,,,,,,9,hacha,,,,,578.5619,580.0452,1,1,0.962,,0,53,53,8,1,REAL,FAKE,,,,,,,,,,,,,,,,,
,,,,,,,,,5e51c83155087a204d8e7f1f,spanish,13 or older,"no, only English or Spanish",no,2025-07-23_07h14.26.202,empathy_intonation_perc,2024.2.4,MacIntel,59.52380952,5e51c83155087a204d8e7f1f,687ed1b7e638a4cbf2f02089,6880c3c77e0681e06b644498,,,,,,,,,,,,,,1,,,,,,,,,,,,,,,,,,,,,,,,,,,,,,,,,,,,,,,,,,,,,,,,,,,,,,,,,65,bizcocho,,,,,580.0457,581.395,0,0,0.8115,0.002,0,54,54,64,1,REAL,FAKE,,,,,,,,,,,,,,,,,
,,,,,,,,,5e51c83155087a204d8e7f1f,spanish,13 or older,"no, only English or Spanish",no,2025-07-23_07h14.26.202,empathy_intonation_perc,2024.2.4,MacIntel,59.52380952,5e51c83155087a204d8e7f1f,687ed1b7e638a4cbf2f02089,6880c3c77e0681e06b644498,,,,,,,,,,,,,,1,,,,,,,,,,,,,,,,,,,,,,,,,,,,,,,,,,,,,,,,,,,,,,,,,,,,,,,,,24,látigo,,,,,581.3954,582.9295,1,1,1.0118,,0,55,55,23,1,REAL,FAKE,,,,,,,,,,,,,,,,,
,,,,,,,,,5e51c83155087a204d8e7f1f,spanish,13 or older,"no, only English or Spanish",no,2025-07-23_07h14.26.202,empathy_intonation_perc,2024.2.4,MacIntel,59.52380952,5e51c83155087a204d8e7f1f,687ed1b7e638a4cbf2f02089,6880c3c77e0681e06b644498,,,,,,,,,,,,,,1,,,,,,,,,,,,,,,,,,,,,,,,,,,,,,,,,,,,,,,,,,,,,,,,,,,,,,,,,3,pulmones,,,,,582.93,584.3634,0,0,0.8974,,0,56,56,2,1,REAL,FAKE,,,,,,,,,,,,,,,,,
,,,,,,,,,5e51c83155087a204d8e7f1f,spanish,13 or older,"no, only English or Spanish",no,2025-07-23_07h14.26.202,empathy_intonation_perc,2024.2.4,MacIntel,59.52380952,5e51c83155087a204d8e7f1f,687ed1b7e638a4cbf2f02089,6880c3c77e0681e06b644498,,,,,,,,,,,,,,1,,,,,,,,,,,,,,,,,,,,,,,,,,,,,,,,,,,,,,,,,,,,,,,,,,,,,,,,,88,acantilado,,,,,584.364,585.7304,1,1,0.8345,,0,57,57,87,1,REAL,FAKE,,,,,,,,,,,,,,,,,
,,,,,,,,,5e51c83155087a204d8e7f1f,spanish,13 or older,"no, only English or Spanish",no,2025-07-23_07h14.26.202,empathy_intonation_perc,2024.2.4,MacIntel,59.52380952,5e51c83155087a204d8e7f1f,687ed1b7e638a4cbf2f02089,6880c3c77e0681e06b644498,,,,,,,,,,,,,,0,,,,,,,,,,,,,,,,,,,,,,,,,,,,,,,,,,,,,,,,,,,,,,,,,,,,,,,,,18,arsa,,,,,585.7308,587.1131,1,0,0.8653,,0,58,58,17,1,REAL,FAKE,,,,,,,,,,,,,,,,,
,,,,,,,,,5e51c83155087a204d8e7f1f,spanish,13 or older,"no, only English or Spanish",no,2025-07-23_07h14.26.202,empathy_intonation_perc,2024.2.4,MacIntel,59.52380952,5e51c83155087a204d8e7f1f,687ed1b7e638a4cbf2f02089,6880c3c77e0681e06b644498,,,,,,,,,,,,,,0,,,,,,,,,,,,,,,,,,,,,,,,,,,,,,,,,,,,,,,,,,,,,,,,,,,,,,,,,10,antar,,,,,587.1136,588.498,0,1,0.8682,,0,59,59,9,1,REAL,FAKE,,,,,,,,,,,,,,,,,
,,,,,,,,,5e51c83155087a204d8e7f1f,spanish,13 or older,"no, only English or Spanish",no,2025-07-23_07h14.26.202,empathy_intonation_perc,2024.2.4,MacIntel,59.52380952,5e51c83155087a204d8e7f1f,687ed1b7e638a4cbf2f02089,6880c3c77e0681e06b644498,,,,,,,,,,,,,,1,,,,,,,,,,,,,,,,,,,,,,,,,,,,,,,,,,,,,,,,,,,,,,,,,,,,,,,,,85,laúd,,,,,588.4984,589.7817,0,0,0.7606,,0,60,60,84,1,REAL,FAKE,,,,,,,,,,,,,,,,,
,,,,,,,,,5e51c83155087a204d8e7f1f,spanish,13 or older,"no, only English or Spanish",no,2025-07-23_07h14.26.202,empathy_intonation_perc,2024.2.4,MacIntel,59.52380952,5e51c83155087a204d8e7f1f,687ed1b7e638a4cbf2f02089,6880c3c77e0681e06b644498,,,,,,,,,,,,,,1,,,,,,,,,,,,,,,,,,,,,,,,,,,,,,,,,,,,,,,,,,,,,,,,,,,,,,,,,90,clavel,,,,,589.7822,591.3157,1,1,0.9975,,0,61,61,89,1,REAL,FAKE,,,,,,,,,,,,,,,,,
,,,,,,,,,5e51c83155087a204d8e7f1f,spanish,13 or older,"no, only English or Spanish",no,2025-07-23_07h14.26.202,empathy_intonation_perc,2024.2.4,MacIntel,59.52380952,5e51c83155087a204d8e7f1f,687ed1b7e638a4cbf2f02089,6880c3c77e0681e06b644498,,,,,,,,,,,,,,0,,,,,,,,,,,,,,,,,,,,,,,,,,,,,,,,,,,,,,,,,,,,,,,,,,,,,,,,,33,pauca,,,,,591.3164,592.6817,1,0,0.8342,,0,62,62,32,1,REAL,FAKE,,,,,,,,,,,,,,,,,
,,,,,,,,,5e51c83155087a204d8e7f1f,spanish,13 or older,"no, only English or Spanish",no,2025-07-23_07h14.26.202,empathy_intonation_perc,2024.2.4,MacIntel,59.52380952,5e51c83155087a204d8e7f1f,687ed1b7e638a4cbf2f02089,6880c3c77e0681e06b644498,,,,,,,,,,,,,,1,,,,,,,,,,,,,,,,,,,,,,,,,,,,,,,,,,,,,,,,,,,,,,,,,,,,,,,,,51,candado,,,,,592.6822,594.0995,0,0,0.9007,,0,63,63,50,1,REAL,FAKE,,,,,,,,,,,,,,,,,
,,,,,,,,,5e51c83155087a204d8e7f1f,spanish,13 or older,"no, only English or Spanish",no,2025-07-23_07h14.26.202,empathy_intonation_perc,2024.2.4,MacIntel,59.52380952,5e51c83155087a204d8e7f1f,687ed1b7e638a4cbf2f02089,6880c3c77e0681e06b644498,,,,,,,,,,,,,,0,,,,,,,,,,,,,,,,,,,,,,,,,,,,,,,,,,,,,,,,,,,,,,,,,,,,,,,,,66,hacido,,,,,594.1,595.4332,1,0,0.8157,,0,64,64,65,1,REAL,FAKE,,,,,,,,,,,,,,,,,
,,,,,,,,,5e51c83155087a204d8e7f1f,spanish,13 or older,"no, only English or Spanish",no,2025-07-23_07h14.26.202,empathy_intonation_perc,2024.2.4,MacIntel,59.52380952,5e51c83155087a204d8e7f1f,687ed1b7e638a4cbf2f02089,6880c3c77e0681e06b644498,,,,,,,,,,,,,,1,,,,,,,,,,,,,,,,,,,,,,,,,,,,,,,,,,,,,,,,,,,,,,,,,,,,,,,,,68,alegre,,,,,595.4336,596.7342,1,1,0.7681,,0,65,65,67,1,REAL,FAKE,,,,,,,,,,,,,,,,,
,,,,,,,,,5e51c83155087a204d8e7f1f,spanish,13 or older,"no, only English or Spanish",no,2025-07-23_07h14.26.202,empathy_intonation_perc,2024.2.4,MacIntel,59.52380952,5e51c83155087a204d8e7f1f,687ed1b7e638a4cbf2f02089,6880c3c77e0681e06b644498,,,,,,,,,,,,,,0,,,,,,,,,,,,,,,,,,,,,,,,,,,,,,,,,,,,,,,,,,,,,,,,,,,,,,,,,63,esposante,,,,,596.7348,598.0669,1,0,0.8015,,0,66,66,62,1,REAL,FAKE,,,,,,,,,,,,,,,,,
,,,,,,,,,5e51c83155087a204d8e7f1f,spanish,13 or older,"no, only English or Spanish",no,2025-07-23_07h14.26.202,empathy_intonation_perc,2024.2.4,MacIntel,59.52380952,5e51c83155087a204d8e7f1f,687ed1b7e638a4cbf2f02089,6880c3c77e0681e06b644498,,,,,,,,,,,,,,1,,,,,,,,,,,,,,,,,,,,,,,,,,,,,,,,,,,,,,,,,,,,,,,,,,,,,,,,,62,flaco,,,,,598.0673,599.8018,0,0,1.2145,,0,67,67,61,1,REAL,FAKE,,,,,,,,,,,,,,,,,
,,,,,,,,,5e51c83155087a204d8e7f1f,spanish,13 or older,"no, only English or Spanish",no,2025-07-23_07h14.26.202,empathy_intonation_perc,2024.2.4,MacIntel,59.52380952,5e51c83155087a204d8e7f1f,687ed1b7e638a4cbf2f02089,6880c3c77e0681e06b644498,,,,,,,,,,,,,,1,,,,,,,,,,,,,,,,,,,,,,,,,,,,,,,,,,,,,,,,,,,,,,,,,,,,,,,,,77,tiburón,,,,,599.8024,601.6025,1,1,1.2617,,0,68,68,76,1,REAL,FAKE,,,,,,,,,,,,,,,,,
,,,,,,,,,5e51c83155087a204d8e7f1f,spanish,13 or older,"no, only English or Spanish",no,2025-07-23_07h14.26.202,empathy_intonation_perc,2024.2.4,MacIntel,59.52380952,5e51c83155087a204d8e7f1f,687ed1b7e638a4cbf2f02089,6880c3c77e0681e06b644498,,,,,,,,,,,,,,1,,,,,,,,,,,,,,,,,,,,,,,,,,,,,,,,,,,,,,,,,,,,,,,,,,,,,,,,,54,fomentar,,,,,601.6032,603.052,0,0,0.9199,,0,69,69,53,1,REAL,FAKE,,,,,,,,,,,,,,,,,
,,,,,,,,,5e51c83155087a204d8e7f1f,spanish,13 or older,"no, only English or Spanish",no,2025-07-23_07h14.26.202,empathy_intonation_perc,2024.2.4,MacIntel,59.52380952,5e51c83155087a204d8e7f1f,687ed1b7e638a4cbf2f02089,6880c3c77e0681e06b644498,,,,,,,,,,,,,,0,,,,,,,,,,,,,,,,,,,,,,,,,,,,,,,,,,,,,,,,,,,,,,,,,,,,,,,,,84,escuto,,,,,603.0524,604.3361,1,0,0.7656,,0,70,70,83,1,REAL,FAKE,,,,,,,,,,,,,,,,,
,,,,,,,,,5e51c83155087a204d8e7f1f,spanish,13 or older,"no, only English or Spanish",no,2025-07-23_07h14.26.202,empathy_intonation_perc,2024.2.4,MacIntel,59.52380952,5e51c83155087a204d8e7f1f,687ed1b7e638a4cbf2f02089,6880c3c77e0681e06b644498,,,,,,,,,,,,,,1,,,,,,,,,,,,,,,,,,,,,,,,,,,,,,,,,,,,,,,,,,,,,,,,,,,,,,,,,39,torpe,,,,,604.3366,605.8032,0,0,0.9329,,0,71,71,38,1,REAL,FAKE,,,,,,,,,,,,,,,,,
,,,,,,,,,5e51c83155087a204d8e7f1f,spanish,13 or older,"no, only English or Spanish",no,2025-07-23_07h14.26.202,empathy_intonation_perc,2024.2.4,MacIntel,59.52380952,5e51c83155087a204d8e7f1f,687ed1b7e638a4cbf2f02089,6880c3c77e0681e06b644498,,,,,,,,,,,,,,1,,,,,,,,,,,,,,,,,,,,,,,,,,,,,,,,,,,,,,,,,,,,,,,,,,,,,,,,,22,lacayo,,,,,605.8037,607.1539,1,1,0.8345,,0,72,72,21,1,REAL,FAKE,,,,,,,,,,,,,,,,,
,,,,,,,,,5e51c83155087a204d8e7f1f,spanish,13 or older,"no, only English or Spanish",no,2025-07-23_07h14.26.202,empathy_intonation_perc,2024.2.4,MacIntel,59.52380952,5e51c83155087a204d8e7f1f,687ed1b7e638a4cbf2f02089,6880c3c77e0681e06b644498,,,,,,,,,,,,,,0,,,,,,,,,,,,,,,,,,,,,,,,,,,,,,,,,,,,,,,,,,,,,,,,,,,,,,,,,47,cartinar,,,,,607.1543,608.4874,1,0,0.7994,,0,73,73,46,1,REAL,FAKE,,,,,,,,,,,,,,,,,
,,,,,,,,,5e51c83155087a204d8e7f1f,spanish,13 or older,"no, only English or Spanish",no,2025-07-23_07h14.26.202,empathy_intonation_perc,2024.2.4,MacIntel,59.52380952,5e51c83155087a204d8e7f1f,687ed1b7e638a4cbf2f02089,6880c3c77e0681e06b644498,,,,,,,,,,,,,,1,,,,,,,,,,,,,,,,,,,,,,,,,,,,,,,,,,,,,,,,,,,,,,,,,,,,,,,,,52,camisa,,,,,608.4879,609.8712,1,1,0.8509,,0,74,74,51,1,REAL,FAKE,,,,,,,,,,,,,,,,,
,,,,,,,,,5e51c83155087a204d8e7f1f,spanish,13 or older,"no, only English or Spanish",no,2025-07-23_07h14.26.202,empathy_intonation_perc,2024.2.4,MacIntel,59.52380952,5e51c83155087a204d8e7f1f,687ed1b7e638a4cbf2f02089,6880c3c77e0681e06b644498,,,,,,,,,,,,,,1,,,,,,,,,,,,,,,,,,,,,,,,,,,,,,,,,,,,,,,,,,,,,,,,,,,,,,,,,34,aviso,,,,,609.8716,611.1553,1,1,0.7643,,0,75,75,33,1,REAL,FAKE,,,,,,,,,,,,,,,,,
,,,,,,,,,5e51c83155087a204d8e7f1f,spanish,13 or older,"no, only English or Spanish",no,2025-07-23_07h14.26.202,empathy_intonation_perc,2024.2.4,MacIntel,59.52380952,5e51c83155087a204d8e7f1f,687ed1b7e638a4cbf2f02089,6880c3c77e0681e06b644498,,,,,,,,,,,,,,0,,,,,,,,,,,,,,,,,,,,,,,,,,,,,,,,,,,,,,,,,,,,,,,,,,,,,,,,,16,abracer,,,,,611.156,612.9389,0,1,1.265,,0,76,76,15,1,REAL,FAKE,,,,,,,,,,,,,,,,,
,,,,,,,,,5e51c83155087a204d8e7f1f,spanish,13 or older,"no, only English or Spanish",no,2025-07-23_07h14.26.202,empathy_intonation_perc,2024.2.4,MacIntel,59.52380952,5e51c83155087a204d8e7f1f,687ed1b7e638a4cbf2f02089,6880c3c77e0681e06b644498,,,,,,,,,,,,,,0,,,,,,,,,,,,,,,,,,,,,,,,,,,,,,,,,,,,,,,,,,,,,,,,,,,,,,,,,42,cadallo,,,,,612.9393,614.2235,1,0,0.7641,,0,77,77,41,1,REAL,FAKE,,,,,,,,,,,,,,,,,
,,,,,,,,,5e51c83155087a204d8e7f1f,spanish,13 or older,"no, only English or Spanish",no,2025-07-23_07h14.26.202,empathy_intonation_perc,2024.2.4,MacIntel,59.52380952,5e51c83155087a204d8e7f1f,687ed1b7e638a4cbf2f02089,6880c3c77e0681e06b644498,,,,,,,,,,,,,,0,,,,,,,,,,,,,,,,,,,,,,,,,,,,,,,,,,,,,,,,,,,,,,,,,,,,,,,,,32,fatacidad,,,,,614.2241,615.7739,0,1,1.0156,,0,78,78,31,1,REAL,FAKE,,,,,,,,,,,,,,,,,
,,,,,,,,,5e51c83155087a204d8e7f1f,spanish,13 or older,"no, only English or Spanish",no,2025-07-23_07h14.26.202,empathy_intonation_perc,2024.2.4,MacIntel,59.52380952,5e51c83155087a204d8e7f1f,687ed1b7e638a4cbf2f02089,6880c3c77e0681e06b644498,,,,,,,,,,,,,,1,,,,,,,,,,,,,,,,,,,,,,,,,,,,,,,,,,,,,,,,,,,,,,,,,,,,,,,,,36,loro,,,,,615.7745,617.1911,1,1,0.8786,,0,79,79,35,1,REAL,FAKE,,,,,,,,,,,,,,,,,
,,,,,,,,,5e51c83155087a204d8e7f1f,spanish,13 or older,"no, only English or Spanish",no,2025-07-23_07h14.26.202,empathy_intonation_perc,2024.2.4,MacIntel,59.52380952,5e51c83155087a204d8e7f1f,687ed1b7e638a4cbf2f02089,6880c3c77e0681e06b644498,,,,,,,,,,,,,,1,,,,,,,,,,,,,,,,,,,,,,,,,,,,,,,,,,,,,,,,,,,,,,,,,,,,,,,,,7,pésimo,,,,,617.1918,618.6577,1,1,0.9291,,0,80,80,6,1,REAL,FAKE,,,,,,,,,,,,,,,,,
,,,,,,,,,5e51c83155087a204d8e7f1f,spanish,13 or older,"no, only English or Spanish",no,2025-07-23_07h14.26.202,empathy_intonation_perc,2024.2.4,MacIntel,59.52380952,5e51c83155087a204d8e7f1f,687ed1b7e638a4cbf2f02089,6880c3c77e0681e06b644498,,,,,,,,,,,,,,0,,,,,,,,,,,,,,,,,,,,,,,,,,,,,,,,,,,,,,,,,,,,,,,,,,,,,,,,,82,empirador,,,,,618.6582,620.2245,0,1,1.0474,,0,81,81,81,1,REAL,FAKE,,,,,,,,,,,,,,,,,
,,,,,,,,,5e51c83155087a204d8e7f1f,spanish,13 or older,"no, only English or Spanish",no,2025-07-23_07h14.26.202,empathy_intonation_perc,2024.2.4,MacIntel,59.52380952,5e51c83155087a204d8e7f1f,687ed1b7e638a4cbf2f02089,6880c3c77e0681e06b644498,,,,,,,,,,,,,,1,,,,,,,,,,,,,,,,,,,,,,,,,,,,,,,,,,,,,,,,,,,,,,,,,,,,,,,,,46,martillo,,,,,620.2249,621.4925,0,0,0.7463,,0,82,82,45,1,REAL,FAKE,,,,,,,,,,,,,,,,,
,,,,,,,,,5e51c83155087a204d8e7f1f,spanish,13 or older,"no, only English or Spanish",no,2025-07-23_07h14.26.202,empathy_intonation_perc,2024.2.4,MacIntel,59.52380952,5e51c83155087a204d8e7f1f,687ed1b7e638a4cbf2f02089,6880c3c77e0681e06b644498,,,,,,,,,,,,,,1,,,,,,,,,,,,,,,,,,,,,,,,,,,,,,,,,,,,,,,,,,,,,,,,,,,,,,,,,57,tacaño,,,,,621.4932,623.0763,1,1,1.0458,,0,83,83,56,1,REAL,FAKE,,,,,,,,,,,,,,,,,
,,,,,,,,,5e51c83155087a204d8e7f1f,spanish,13 or older,"no, only English or Spanish",no,2025-07-23_07h14.26.202,empathy_intonation_perc,2024.2.4,MacIntel,59.52380952,5e51c83155087a204d8e7f1f,687ed1b7e638a4cbf2f02089,6880c3c77e0681e06b644498,,,,,,,,,,,,,,1,,,,,,,,,,,,,,,,,,,,,,,,,,,,,,,,,,,,,,,,,,,,,,,,,,,,,,,,,13,helar,,,,,623.0768,624.4593,1,1,0.8489,,0,84,84,12,1,REAL,FAKE,,,,,,,,,,,,,,,,,
,,,,,,,,,5e51c83155087a204d8e7f1f,spanish,13 or older,"no, only English or Spanish",no,2025-07-23_07h14.26.202,empathy_intonation_perc,2024.2.4,MacIntel,59.52380952,5e51c83155087a204d8e7f1f,687ed1b7e638a4cbf2f02089,6880c3c77e0681e06b644498,,,,,,,,,,,,,,1,,,,,,,,,,,,,,,,,,,,,,,,,,,,,,,,,,,,,,,,,,,,,,,,,,,,,,,,,56,musgo,,,,,624.4597,625.96,1,1,0.9795,,0,85,85,55,1,REAL,FAKE,,,,,,,,,,,,,,,,,
,,,,,,,,,5e51c83155087a204d8e7f1f,spanish,13 or older,"no, only English or Spanish",no,2025-07-23_07h14.26.202,empathy_intonation_perc,2024.2.4,MacIntel,59.52380952,5e51c83155087a204d8e7f1f,687ed1b7e638a4cbf2f02089,6880c3c77e0681e06b644498,,,,,,,,,,,,,,1,,,,,,,,,,,,,,,,,,,,,,,,,,,,,,,,,,,,,,,,,,,,,,,,,,,,,,,,,26,secuestro,,,,,625.9606,627.6442,1,1,1.1623,,0,86,86,25,1,REAL,FAKE,,,,,,,,,,,,,,,,,
,,,,,,,,,5e51c83155087a204d8e7f1f,spanish,13 or older,"no, only English or Spanish",no,2025-07-23_07h14.26.202,empathy_intonation_perc,2024.2.4,MacIntel,59.52380952,5e51c83155087a204d8e7f1f,687ed1b7e638a4cbf2f02089,6880c3c77e0681e06b644498,,,,,,,,,,,,,,1,,,,,,,,,,,,,,,,,,,,,,,,,,,,,,,,,,,,,,,,,,,,,,,,,,,,,,,,,28,merodear,,,,,627.6448,629.2117,0,0,1.0466,,0,87,87,27,1,REAL,FAKE,,,,,,,,,,,,,,,,,
,,,,,,,,,5e51c83155087a204d8e7f1f,spanish,13 or older,"no, only English or Spanish",no,2025-07-23_07h14.26.202,empathy_intonation_perc,2024.2.4,MacIntel,59.52380952,5e51c83155087a204d8e7f1f,687ed1b7e638a4cbf2f02089,6880c3c77e0681e06b644498,,,,,,,,,,,,,,1,,,,,,,,,,,,,,,,,,,,,,,,,,,,,,,,,,,,,,,,,,,,,,,,,,,,,,,,,25,bisagra,,,,,629.2124,630.4118,0,0,0.6666,,0,88,88,24,1,REAL,FAKE,,,,,,,,,,,,,,,,,
,,,,,,,,,5e51c83155087a204d8e7f1f,spanish,13 or older,"no, only English or Spanish",no,2025-07-23_07h14.26.202,empathy_intonation_perc,2024.2.4,MacIntel,59.52380952,5e51c83155087a204d8e7f1f,687ed1b7e638a4cbf2f02089,6880c3c77e0681e06b644498,,,,,,,,,,,,,,1,,,,,,,,,,,,,,,,,,,,,,,,,,,,,,,,,,,,,,,,,,,,,,,,,,,,,,,,,44,cuchara,,,,,630.4122,631.896,1,1,0.9632,,0,89,89,43,1,REAL,FAKE,,,,,,,,,,,,,,,,,
,,,,,,,,,5e51c83155087a204d8e7f1f,spanish,13 or older,"no, only English or Spanish",no,2025-07-23_07h14.26.202,empathy_intonation_perc,2024.2.4,MacIntel,59.52380952,5e51c83155087a204d8e7f1f,687ed1b7e638a4cbf2f02089,6880c3c77e0681e06b644498,,,,,,,,,,,,,,0,,,,,,,,,,,,,,,,,,,,,,,,,,,,,,,,,,,,,,,,,,,,,,,,,,,,,,,,,29,decar,,,,,631.8966,633.4462,1,0,1.0176,,0,90,90,28,1,REAL,FAKE,,,,,,,,,,,,,,,,,
,,,,,,,,,5e51c83155087a204d8e7f1f,spanish,13 or older,"no, only English or Spanish",no,2025-07-23_07h14.26.202,empathy_intonation_perc,2024.2.4,MacIntel,59.52380952,5e51c83155087a204d8e7f1f,687ed1b7e638a4cbf2f02089,6880c3c77e0681e06b644498,,,,,,,,,,,,,,0,,,,,,,,,,,,,,,,,,,,,,,,,,,,,,,,,,,,,,,,,,,,,,,,,,,,,,,,,23,lampera,,,,,633.4468,634.847,1,0,0.8775,,0,91,91,22,1,REAL,FAKE,,,,,,,,,,,,,,,,,
,,,,,,,,,5e51c83155087a204d8e7f1f,spanish,13 or older,"no, only English or Spanish",no,2025-07-23_07h14.26.202,empathy_intonation_perc,2024.2.4,MacIntel,59.52380952,5e51c83155087a204d8e7f1f,687ed1b7e638a4cbf2f02089,6880c3c77e0681e06b644498,,,,,,,,,,,,,,,,,,,,,,,,,,,,,,,,,,,,,,,,,,,,,,,,,,,,,,,,,,,,,,,,,,,,,,,,,,,,,,,,,,,,,,,,,,634.8472,642.7667,,,,,,,,,,,,,,,
,,,,,,,,,5e51c83155087a204d8e7f1f,spanish,13 or older,"no, only English or Spanish",no,2025-07-23_07h14.26.202,empathy_intonation_perc,2024.2.4,MacIntel,59.52380952,5e51c83155087a204d8e7f1f,687ed1b7e638a4cbf2f02089,6880c3c77e0681e06b644498,,,,,,,,,,,,,1,,,,,,,,,,,,,,,,,,,,,,,,,,,,,,,,,,,,,,,,,,,,,,,,,,,,,,,,,,,,,,,,,,,,,,,,,,,,,,,642.7739,649.7845,strongly agree,0,0,0,0,1,I can easily tell if someone else wants to enter a conversation.,1,0,1,0,,
,,,,,,,,,5e51c83155087a204d8e7f1f,spanish,13 or older,"no, only English or Spanish",no,2025-07-23_07h14.26.202,empathy_intonation_perc,2024.2.4,MacIntel,59.52380952,5e51c83155087a204d8e7f1f,687ed1b7e638a4cbf2f02089,6880c3c77e0681e06b644498,,,,,,,,,,,,,2,,,,,,,,,,,,,,,,,,,,,,,,,,,,,,,,,,,,,,,,,,,,,,,,,,,,,,,,,,,,,,,,,,,,,,,,,,,,,,,649.7855,654.4699,strongly disagree,0,1,1,1,1,I prefer animals to humans.,0,1,0,0,,
,,,,,,,,,5e51c83155087a204d8e7f1f,spanish,13 or older,"no, only English or Spanish",no,2025-07-23_07h14.26.202,empathy_intonation_perc,2024.2.4,MacIntel,59.52380952,5e51c83155087a204d8e7f1f,687ed1b7e638a4cbf2f02089,6880c3c77e0681e06b644498,,,,,,,,,,,,,3,,,,,,,,,,,,,,,,,,,,,,,,,,,,,,,,,,,,,,,,,,,,,,,,,,,,,,,,,,,,,,,,,,,,,,,,,,,,,,,654.4708,658.2207,slightly agree,0,2,2,2,1,I try to keep up with the current trends and fashions.,0,1,0,0,,
,,,,,,,,,5e51c83155087a204d8e7f1f,spanish,13 or older,"no, only English or Spanish",no,2025-07-23_07h14.26.202,empathy_intonation_perc,2024.2.4,MacIntel,59.52380952,5e51c83155087a204d8e7f1f,687ed1b7e638a4cbf2f02089,6880c3c77e0681e06b644498,,,,,,,,,,,,,4,,,,,,,,,,,,,,,,,,,,,,,,,,,,,,,,,,,,,,,,,,,,,,,,,,,,,,,,,,,,,,,,,,,,,,,,,,,,,,,658.2215,666.4898,slightly disagree,0,3,3,3,1,"I find it difficult to explain to others things that I understand easily,   when they don't understand it first time.",1,0,0,1,,
,,,,,,,,,5e51c83155087a204d8e7f1f,spanish,13 or older,"no, only English or Spanish",no,2025-07-23_07h14.26.202,empathy_intonation_perc,2024.2.4,MacIntel,59.52380952,5e51c83155087a204d8e7f1f,687ed1b7e638a4cbf2f02089,6880c3c77e0681e06b644498,,,,,,,,,,,,,5,,,,,,,,,,,,,,,,,,,,,,,,,,,,,,,,,,,,,,,,,,,,,,,,,,,,,,,,,,,,,,,,,,,,,,,,,,,,,,,666.4904,670.5421,slightly agree,0,4,4,4,1,I dream most nights.,0,1,0,0,,
,,,,,,,,,5e51c83155087a204d8e7f1f,spanish,13 or older,"no, only English or Spanish",no,2025-07-23_07h14.26.202,empathy_intonation_perc,2024.2.4,MacIntel,59.52380952,5e51c83155087a204d8e7f1f,687ed1b7e638a4cbf2f02089,6880c3c77e0681e06b644498,,,,,,,,,,,,,6,,,,,,,,,,,,,,,,,,,,,,,,,,,,,,,,,,,,,,,,,,,,,,,,,,,,,,,,,,,,,,,,,,,,,,,,,,,,,,,670.543,673.4264,slightly agree,0,5,5,5,1,I really enjoy caring for other people.,1,0,1,0,,
,,,,,,,,,5e51c83155087a204d8e7f1f,spanish,13 or older,"no, only English or Spanish",no,2025-07-23_07h14.26.202,empathy_intonation_perc,2024.2.4,MacIntel,59.52380952,5e51c83155087a204d8e7f1f,687ed1b7e638a4cbf2f02089,6880c3c77e0681e06b644498,,,,,,,,,,,,,7,,,,,,,,,,,,,,,,,,,,,,,,,,,,,,,,,,,,,,,,,,,,,,,,,,,,,,,,,,,,,,,,,,,,,,,,,,,,,,,673.4274,677.4435,slightly disagree,0,6,6,6,1,I try to solve my own problems rather than discussing them with others.,0,1,0,0,,
,,,,,,,,,5e51c83155087a204d8e7f1f,spanish,13 or older,"no, only English or Spanish",no,2025-07-23_07h14.26.202,empathy_intonation_perc,2024.2.4,MacIntel,59.52380952,5e51c83155087a204d8e7f1f,687ed1b7e638a4cbf2f02089,6880c3c77e0681e06b644498,,,,,,,,,,,,,8,,,,,,,,,,,,,,,,,,,,,,,,,,,,,,,,,,,,,,,,,,,,,,,,,,,,,,,,,,,,,,,,,,,,,,,,,,,,,,,677.4443,682.5618,strongly disagree,0,7,7,7,1,I find it hard to know what to do in a social situation.,1,0,0,1,,
