instructions_exposure.started,instructions_exposure.stopped,instructions_exposure_loop.thisRepN,instructions_exposure_loop.thisTrialN,instructions_exposure_loop.thisN,instructions_exposure_loop.thisIndex,instructions_exposure_loop.ran,instructions_text,continue_text,participant_id,"What variety of Spanish are you most familiar with? (e.g., Peruvian, Spanish, Mexican)",At what age did you begin learning Spanish?,Are you proficient in any languages other than English/Spanish?,"Are you familiar with Caribbean (e.g., Caribbean, Puerto Rican) or Galician Spanish?",date,expName,psychopyVersion,OS,frameRate,id,study_id,session,trial_exposure.started,trial_exposure.stopped,key_resp_exposure.keys,key_resp_exposure.corr,key_resp_exposure.rt,key_resp_exposure.duration,key_resp.keys,exposure_loop.thisRepN,exposure_loop.thisTrialN,exposure_loop.thisN,exposure_loop.thisIndex,exposure_loop.ran,item_num,correct_response,question,path,duration,instructions_2afc.started,instructions_2afc.stopped,instructions_2afc_loop.thisRepN,instructions_2afc_loop.thisTrialN,instructions_2afc_loop.thisN,instructions_2afc_loop.thisIndex,instructions_2afc_loop.ran,practice_2afc.started,practice_2afc.stopped,key_resp_2afc_practice.keys,key_resp_2afc_practice.corr,key_resp_2afc_practice.rt,key_resp_2afc_practice.duration,trials_2afc_practice_loop.thisRepN,trials_2afc_practice_loop.thisTrialN,trials_2afc_practice_loop.thisN,trials_2afc_practice_loop.thisIndex,trials_2afc_practice_loop.ran,check_2afc.started,check_2afc.stopped,trial_2afc.started,trial_2afc.stopped,key_resp_2afc_trial.keys,key_resp_2afc_trial.corr,key_resp_2afc_trial.rt,key_resp_2afc_trial.duration,trials_2afc_loop.thisRepN,trials_2afc_loop.thisTrialN,trials_2afc_loop.thisN,trials_2afc_loop.thisIndex,trials_2afc_loop.ran,target,variety,instructions_lextale.started,instructions_lextale.stopped,instructions_lextale_loop.thisRepN,instructions_lextale_loop.thisTrialN,instructions_lextale_loop.thisN,instructions_lextale_loop.thisIndex,instructions_lextale_loop.ran,practice_lextale.started,practice_lextale.stopped,key_resp_lextale_practice.keys,key_resp_lextale_practice.corr,key_resp_lextale_practice.rt,key_resp_lextale_practice.duration,practice_feedback_lextale.started,practice_feedback_lextale.stopped,trials_lextale_practice_loop.thisRepN,trials_lextale_practice_loop.thisTrialN,trials_lextale_practice_loop.thisN,trials_lextale_practice_loop.thisIndex,trials_lextale_practice_loop.ran,stim,word,prac_button_real,prac_button_false,check_lextale.started,check_lextale.stopped,trial_lextale.started,trial_lextale.stopped,key_resp_lextale_trial.keys,key_resp_lextale_trial.corr,key_resp_lextale_trial.rt,key_resp_lextale_trial.duration,trials_lextale_loop.thisRepN,trials_lextale_loop.thisTrialN,trials_lextale_loop.thisN,trials_lextale_loop.thisIndex,trials_lextale_loop.ran,button_real,button_false,instructions_eq.started,instructions_eq.stopped,trial_eq.started,trial_eq.stopped,slider_eq_trial.response,trials_eq_loop.thisRepN,trials_eq_loop.thisTrialN,trials_eq_loop.thisN,trials_eq_loop.thisIndex,trials_eq_loop.ran,item,is_test_item,is_distractor,is_agree_score,is_disagree_score,end_exp.started,end_exp.stopped
0.0222,2.0567,0,0,0,0,1,"In the following task, you are going to hear a series of conversations.", (press the space bar to continue),5e70636370147a63fecbdea3,Mexican,13 or older,"no, only English or Spanish",yes,2025-07-22_20h43.04.882,empathy_intonation_perc,2024.2.4,Win32,60.60606061,5e70636370147a63fecbdea3,687ed1b7e638a4cbf2f02089,68802ff282e6d7ec14192327,,,,,,,,,,,,,,,,,,,,,,,,,,,,,,,,,,,,,,,,,,,,,,,,,,,,,,,,,,,,,,,,,,,,,,,,,,,,,,,,,,,,,,,,,,,,,,,,,,,,,,,,,,
2.0582,3.5409,0,1,1,1,1,It is okay if you don't not 100% understand them!, (press the space bar to continue),5e70636370147a63fecbdea3,Mexican,13 or older,"no, only English or Spanish",yes,2025-07-22_20h43.04.882,empathy_intonation_perc,2024.2.4,Win32,60.60606061,5e70636370147a63fecbdea3,687ed1b7e638a4cbf2f02089,68802ff282e6d7ec14192327,,,,,,,,,,,,,,,,,,,,,,,,,,,,,,,,,,,,,,,,,,,,,,,,,,,,,,,,,,,,,,,,,,,,,,,,,,,,,,,,,,,,,,,,,,,,,,,,,,,,,,,,,,
3.543,4.8758,0,2,2,2,1,"After, you will read a sentence about the conversation and decide if it's true or false.", (press the space bar to continue),5e70636370147a63fecbdea3,Mexican,13 or older,"no, only English or Spanish",yes,2025-07-22_20h43.04.882,empathy_intonation_perc,2024.2.4,Win32,60.60606061,5e70636370147a63fecbdea3,687ed1b7e638a4cbf2f02089,68802ff282e6d7ec14192327,,,,,,,,,,,,,,,,,,,,,,,,,,,,,,,,,,,,,,,,,,,,,,,,,,,,,,,,,,,,,,,,,,,,,,,,,,,,,,,,,,,,,,,,,,,,,,,,,,,,,,,,,,
4.8782,10.697,0,3,3,3,1,"If it's true, press '1' (True) and if it's false press '0' (False).", (press the space bar to continue),5e70636370147a63fecbdea3,Mexican,13 or older,"no, only English or Spanish",yes,2025-07-22_20h43.04.882,empathy_intonation_perc,2024.2.4,Win32,60.60606061,5e70636370147a63fecbdea3,687ed1b7e638a4cbf2f02089,68802ff282e6d7ec14192327,,,,,,,,,,,,,,,,,,,,,,,,,,,,,,,,,,,,,,,,,,,,,,,,,,,,,,,,,,,,,,,,,,,,,,,,,,,,,,,,,,,,,,,,,,,,,,,,,,,,,,,,,,
,,,,,,,,,5e70636370147a63fecbdea3,Mexican,13 or older,"no, only English or Spanish",yes,2025-07-22_20h43.04.882,empathy_intonation_perc,2024.2.4,Win32,60.60606061,5e70636370147a63fecbdea3,687ed1b7e638a4cbf2f02089,68802ff282e6d7ec14192327,10.7061,53.2342,0,1,6.4643,,,0,0,0,2,1,3,0,The mom already has rice.,./stim/exposure_wavs/pr_stimuli_convo.wav,36,,,,,,,,,,,,,,,,,,,,,,,,,,,,,,,,,,,,,,,,,,,,,,,,,,,,,,,,,,,,,,,,,,,,,,,,,,,,,,,,,,,,,,,,,
,,,,,,,,,5e70636370147a63fecbdea3,Mexican,13 or older,"no, only English or Spanish",yes,2025-07-22_20h43.04.882,empathy_intonation_perc,2024.2.4,Win32,60.60606061,5e70636370147a63fecbdea3,687ed1b7e638a4cbf2f02089,68802ff282e6d7ec14192327,53.2377,116.8876,1,1,3.6013,,,0,1,1,1,1,2,1,The mom asked the daughter if she already went to the supermarket.,./stim/exposure_wavs/dr_stimuli_convo.wav,60,,,,,,,,,,,,,,,,,,,,,,,,,,,,,,,,,,,,,,,,,,,,,,,,,,,,,,,,,,,,,,,,,,,,,,,,,,,,,,,,,,,,,,,,,
,,,,,,,,,5e70636370147a63fecbdea3,Mexican,13 or older,"no, only English or Spanish",yes,2025-07-22_20h43.04.882,empathy_intonation_perc,2024.2.4,Win32,60.60606061,5e70636370147a63fecbdea3,687ed1b7e638a4cbf2f02089,68802ff282e6d7ec14192327,116.8897,173.4691,0,0,5.3833,,,0,2,2,0,1,1,1,The son asked the mom if Aunt Marina is okay.,./stim/exposure_wavs/ga_stimuli_convo.wav,47,,,,,,,,,,,,,,,,,,,,,,,,,,,,,,,,,,,,,,,,,,,,,,,,,,,,,,,,,,,,,,,,,,,,,,,,,,,,,,,,,,,,,,,,,
,,,,,,,"In the following task you are going to hear a series of utterances. 

  You will decide if the utterances sound like questions or not using your keyboard.", (press the spacebar to continue),5e70636370147a63fecbdea3,Mexican,13 or older,"no, only English or Spanish",yes,2025-07-22_20h43.04.882,empathy_intonation_perc,2024.2.4,Win32,60.60606061,5e70636370147a63fecbdea3,687ed1b7e638a4cbf2f02089,68802ff282e6d7ec14192327,,,,,,,,,,,,,,,,,,173.4746,179.0906,0,0,0,0,1,,,,,,,,,,,,,,,,,,,,,,,,,,,,,,,,,,,,,,,,,,,,,,,,,,,,,,,,,,,,,,,,,,,,,,,,,,,,,,,,,,
,,,,,,,"If you believe the utterance is a question, type '1' (for 'yes') and if you do not 
  believe it is a question type '0' (for 'no').

  Let's practice a bit...", (press the spacebar to continue),5e70636370147a63fecbdea3,Mexican,13 or older,"no, only English or Spanish",yes,2025-07-22_20h43.04.882,empathy_intonation_perc,2024.2.4,Win32,60.60606061,5e70636370147a63fecbdea3,687ed1b7e638a4cbf2f02089,68802ff282e6d7ec14192327,,,,,,,,,,,,,,,,,,179.0928,184.5785,0,1,1,1,1,,,,,,,,,,,,,,,,,,,,,,,,,,,,,,,,,,,,,,,,,,,,,,,,,,,,,,,,,,,,,,,,,,,,,,,,,,,,,,,,,,
,,,,,,,,,5e70636370147a63fecbdea3,Mexican,13 or older,"no, only English or Spanish",yes,2025-07-22_20h43.04.882,empathy_intonation_perc,2024.2.4,Win32,60.60606061,5e70636370147a63fecbdea3,687ed1b7e638a4cbf2f02089,68802ff282e6d7ec14192327,,,,,,,,,,,,,,0,,./stim/wavs/cuban_statement_filler_Cocinabas-por-la-noche.wav,,,,,,,,,184.5863,188.7488,0,1,3.6374,,0,0,0,4,1,,,,,,,,,,,,,,,,,,,,,,,,,,,,,,,,,,,,,,,,,,,,,,,,,,,,,,,,,,,,,,,,,,,,,,,
,,,,,,,,,5e70636370147a63fecbdea3,Mexican,13 or older,"no, only English or Spanish",yes,2025-07-22_20h43.04.882,empathy_intonation_perc,2024.2.4,Win32,60.60606061,5e70636370147a63fecbdea3,687ed1b7e638a4cbf2f02089,68802ff282e6d7ec14192327,,,,,,,,,,,,,,1,,./stim/wavs/chilean_question_filler_Mi-padre-cantaba-bien.wav,,,,,,,,,188.7496,196.3052,1,1,7.0224,,0,1,1,2,1,,,,,,,,,,,,,,,,,,,,,,,,,,,,,,,,,,,,,,,,,,,,,,,,,,,,,,,,,,,,,,,,,,,,,,,
,,,,,,,,,5e70636370147a63fecbdea3,Mexican,13 or older,"no, only English or Spanish",yes,2025-07-22_20h43.04.882,empathy_intonation_perc,2024.2.4,Win32,60.60606061,5e70636370147a63fecbdea3,687ed1b7e638a4cbf2f02089,68802ff282e6d7ec14192327,,,,,,,,,,,,,,1,,./stim/wavs/mexican_question_filler_Felipe-no-tiene-contrasena.wav,,,,,,,,,196.3058,199.3909,1,1,2.5525,,0,2,2,3,1,,,,,,,,,,,,,,,,,,,,,,,,,,,,,,,,,,,,,,,,,,,,,,,,,,,,,,,,,,,,,,,,,,,,,,,
,,,,,,,,,5e70636370147a63fecbdea3,Mexican,13 or older,"no, only English or Spanish",yes,2025-07-22_20h43.04.882,empathy_intonation_perc,2024.2.4,Win32,60.60606061,5e70636370147a63fecbdea3,687ed1b7e638a4cbf2f02089,68802ff282e6d7ec14192327,,,,,,,,,,,,,,0,,./stim/wavs/peruvian_statement_filler_El-nino-habla-con-su-madre.wav,,,,,,,,,199.3919,202.2601,0,1,2.337,,0,3,3,6,1,,,,,,,,,,,,,,,,,,,,,,,,,,,,,,,,,,,,,,,,,,,,,,,,,,,,,,,,,,,,,,,,,,,,,,,
,,,,,,,,,5e70636370147a63fecbdea3,Mexican,13 or older,"no, only English or Spanish",yes,2025-07-22_20h43.04.882,empathy_intonation_perc,2024.2.4,Win32,60.60606061,5e70636370147a63fecbdea3,687ed1b7e638a4cbf2f02089,68802ff282e6d7ec14192327,,,,,,,,,,,,,,1,,./stim/wavs/castilian_question_filler_Mi-esposo-conoce-al-chico.wav,,,,,,,,,202.2606,204.9957,1,1,2.2039,,0,4,4,0,1,,,,,,,,,,,,,,,,,,,,,,,,,,,,,,,,,,,,,,,,,,,,,,,,,,,,,,,,,,,,,,,,,,,,,,,
,,,,,,,,,5e70636370147a63fecbdea3,Mexican,13 or older,"no, only English or Spanish",yes,2025-07-22_20h43.04.882,empathy_intonation_perc,2024.2.4,Win32,60.60606061,5e70636370147a63fecbdea3,687ed1b7e638a4cbf2f02089,68802ff282e6d7ec14192327,,,,,,,,,,,,,,0,,./stim/wavs/puertorican_statement_filler_La-nina-pinta-con-su-amiga.wav,,,,,,,,,204.9963,208.6989,0,1,3.173,,0,5,5,7,1,,,,,,,,,,,,,,,,,,,,,,,,,,,,,,,,,,,,,,,,,,,,,,,,,,,,,,,,,,,,,,,,,,,,,,,
,,,,,,,,,5e70636370147a63fecbdea3,Mexican,13 or older,"no, only English or Spanish",yes,2025-07-22_20h43.04.882,empathy_intonation_perc,2024.2.4,Win32,60.60606061,5e70636370147a63fecbdea3,687ed1b7e638a4cbf2f02089,68802ff282e6d7ec14192327,,,,,,,,,,,,,,1,,./stim/wavs/argentine_question_filler_Mi-vecino-habla-mucho.wav,,,,,,,,,208.6995,211.3178,1,1,2.1024,,0,6,6,1,1,,,,,,,,,,,,,,,,,,,,,,,,,,,,,,,,,,,,,,,,,,,,,,,,,,,,,,,,,,,,,,,,,,,,,,,
,,,,,,,,,5e70636370147a63fecbdea3,Mexican,13 or older,"no, only English or Spanish",yes,2025-07-22_20h43.04.882,empathy_intonation_perc,2024.2.4,Win32,60.60606061,5e70636370147a63fecbdea3,687ed1b7e638a4cbf2f02089,68802ff282e6d7ec14192327,,,,,,,,,,,,,,0,,./stim/wavs/andalusian_statement_filler_Alberto-nunca-se-afeita.wav,,,,,,,,,211.3184,214.5705,0,1,2.7359,,0,7,7,5,1,,,,,,,,,,,,,,,,,,,,,,,,,,,,,,,,,,,,,,,,,,,,,,,,,,,,,,,,,,,,,,,,,,,,,,,
,,,,,,,,,5e70636370147a63fecbdea3,Mexican,13 or older,"no, only English or Spanish",yes,2025-07-22_20h43.04.882,empathy_intonation_perc,2024.2.4,Win32,60.60606061,5e70636370147a63fecbdea3,687ed1b7e638a4cbf2f02089,68802ff282e6d7ec14192327,,,,,,,,,,,,,,,,,,,,,,,,,,,,,,,,,,,,214.5709,216.7228,,,,,,,,,,,,,,,,,,,,,,,,,,,,,,,,,,,,,,,,,,,,,,,,,,,,,,,,,,,,,,,,,,,,,
,,,,,,,,,5e70636370147a63fecbdea3,Mexican,13 or older,"no, only English or Spanish",yes,2025-07-22_20h43.04.882,empathy_intonation_perc,2024.2.4,Win32,60.60606061,5e70636370147a63fecbdea3,687ed1b7e638a4cbf2f02089,68802ff282e6d7ec14192327,,,,,,,,,,,,,86,0,,./stim/wavs/puertorican_mismatch_declarative-broad-focus_El-nino-oye-el-rio.wav,,,,,,,,,,,,,,,,,,,,,,216.7336,219.3247,0,1,2.0699,,0,0,0,85,1,0,puertorican,,,,,,,,,,,,,,,,,,,,,,,,,,,,,,,,,,,,,,,,,,,,,,,,,,,,,,,,
,,,,,,,,,5e70636370147a63fecbdea3,Mexican,13 or older,"no, only English or Spanish",yes,2025-07-22_20h43.04.882,empathy_intonation_perc,2024.2.4,Win32,60.60606061,5e70636370147a63fecbdea3,687ed1b7e638a4cbf2f02089,68802ff282e6d7ec14192327,,,,,,,,,,,,,58,0,,./stim/wavs/mexican_match_declarative-broad-focus_Daniel-iba-a-Bolivia.wav,,,,,,,,,,,,,,,,,,,,,,219.3255,222.6608,0,1,2.8035,,0,1,1,57,1,0,mexican,,,,,,,,,,,,,,,,,,,,,,,,,,,,,,,,,,,,,,,,,,,,,,,,,,,,,,,,
,,,,,,,,,5e70636370147a63fecbdea3,Mexican,13 or older,"no, only English or Spanish",yes,2025-07-22_20h43.04.882,empathy_intonation_perc,2024.2.4,Win32,60.60606061,5e70636370147a63fecbdea3,687ed1b7e638a4cbf2f02089,68802ff282e6d7ec14192327,,,,,,,,,,,,,22,1,,./stim/wavs/puertorican_match_interrogative-total-yn_Emilio-ama-la-marcha.wav,,,,,,,,,,,,,,,,,,,,,,222.6613,225.0962,1,1,1.9079,,0,2,2,21,1,1,puertorican,,,,,,,,,,,,,,,,,,,,,,,,,,,,,,,,,,,,,,,,,,,,,,,,,,,,,,,,
,,,,,,,,,5e70636370147a63fecbdea3,Mexican,13 or older,"no, only English or Spanish",yes,2025-07-22_20h43.04.882,empathy_intonation_perc,2024.2.4,Win32,60.60606061,5e70636370147a63fecbdea3,687ed1b7e638a4cbf2f02089,68802ff282e6d7ec14192327,,,,,,,,,,,,,18,1,,./stim/wavs/mexican_match_interrogative-total-yn_Marta-abre-el-regalo.wav,,,,,,,,,,,,,,,,,,,,,,225.0966,227.8151,1,1,2.1976,,0,3,3,17,1,0,mexican,,,,,,,,,,,,,,,,,,,,,,,,,,,,,,,,,,,,,,,,,,,,,,,,,,,,,,,,
,,,,,,,,,5e70636370147a63fecbdea3,Mexican,13 or older,"no, only English or Spanish",yes,2025-07-22_20h43.04.882,empathy_intonation_perc,2024.2.4,Win32,60.60606061,5e70636370147a63fecbdea3,687ed1b7e638a4cbf2f02089,68802ff282e6d7ec14192327,,,,,,,,,,,,,17,1,,./stim/wavs/mexican_match_interrogative-total-yn_Mariano-habla-del-tiempo.wav,,,,,,,,,,,,,,,,,,,,,,227.8157,230.9179,1,1,2.5863,,0,4,4,16,1,0,mexican,,,,,,,,,,,,,,,,,,,,,,,,,,,,,,,,,,,,,,,,,,,,,,,,,,,,,,,,
,,,,,,,,,5e70636370147a63fecbdea3,Mexican,13 or older,"no, only English or Spanish",yes,2025-07-22_20h43.04.882,empathy_intonation_perc,2024.2.4,Win32,60.60606061,5e70636370147a63fecbdea3,687ed1b7e638a4cbf2f02089,68802ff282e6d7ec14192327,,,,,,,,,,,,,31,1,,./stim/wavs/cuban_mismatch_interrogative-total-yn_El-nino-oye-el-rio.wav,,,,,,,,,,,,,,,,,,,,,,230.9185,233.153,1,1,1.7071,,0,5,5,30,1,1,cuban,,,,,,,,,,,,,,,,,,,,,,,,,,,,,,,,,,,,,,,,,,,,,,,,,,,,,,,,
,,,,,,,,,5e70636370147a63fecbdea3,Mexican,13 or older,"no, only English or Spanish",yes,2025-07-22_20h43.04.882,empathy_intonation_perc,2024.2.4,Win32,60.60606061,5e70636370147a63fecbdea3,687ed1b7e638a4cbf2f02089,68802ff282e6d7ec14192327,,,,,,,,,,,,,11,1,,./stim/wavs/cuban_match_interrogative-total-yn_Mariano-habla-del-tiempo.wav,,,,,,,,,,,,,,,,,,,,,,233.1536,235.9721,1,1,2.2852,,0,6,6,10,1,1,cuban,,,,,,,,,,,,,,,,,,,,,,,,,,,,,,,,,,,,,,,,,,,,,,,,,,,,,,,,
,,,,,,,,,5e70636370147a63fecbdea3,Mexican,13 or older,"no, only English or Spanish",yes,2025-07-22_20h43.04.882,empathy_intonation_perc,2024.2.4,Win32,60.60606061,5e70636370147a63fecbdea3,687ed1b7e638a4cbf2f02089,68802ff282e6d7ec14192327,,,,,,,,,,,,,7,1,,./stim/wavs/cuban_match_interrogative-total-yn_Ana-lleva-el-abrigo.wav,,,,,,,,,,,,,,,,,,,,,,235.9726,238.2741,1,1,1.7854,,0,7,7,6,1,1,cuban,,,,,,,,,,,,,,,,,,,,,,,,,,,,,,,,,,,,,,,,,,,,,,,,,,,,,,,,
,,,,,,,,,5e70636370147a63fecbdea3,Mexican,13 or older,"no, only English or Spanish",yes,2025-07-22_20h43.04.882,empathy_intonation_perc,2024.2.4,Win32,60.60606061,5e70636370147a63fecbdea3,687ed1b7e638a4cbf2f02089,68802ff282e6d7ec14192327,,,,,,,,,,,,,10,1,,./stim/wavs/cuban_match_interrogative-total-yn_Maria-bebe-el-vino.wav,,,,,,,,,,,,,,,,,,,,,,238.2745,240.3097,1,1,1.5029,,0,8,8,9,1,1,cuban,,,,,,,,,,,,,,,,,,,,,,,,,,,,,,,,,,,,,,,,,,,,,,,,,,,,,,,,
,,,,,,,,,5e70636370147a63fecbdea3,Mexican,13 or older,"no, only English or Spanish",yes,2025-07-22_20h43.04.882,empathy_intonation_perc,2024.2.4,Win32,60.60606061,5e70636370147a63fecbdea3,687ed1b7e638a4cbf2f02089,68802ff282e6d7ec14192327,,,,,,,,,,,,,75,0,,./stim/wavs/cuban_mismatch_declarative-broad-focus_El-hombre-mira-la-luna.wav,,,,,,,,,,,,,,,,,,,,,,240.3104,242.6946,1,0,1.8602,,0,9,9,74,1,0,cuban,,,,,,,,,,,,,,,,,,,,,,,,,,,,,,,,,,,,,,,,,,,,,,,,,,,,,,,,
,,,,,,,,,5e70636370147a63fecbdea3,Mexican,13 or older,"no, only English or Spanish",yes,2025-07-22_20h43.04.882,empathy_intonation_perc,2024.2.4,Win32,60.60606061,5e70636370147a63fecbdea3,687ed1b7e638a4cbf2f02089,68802ff282e6d7ec14192327,,,,,,,,,,,,,83,0,,./stim/wavs/mexican_mismatch_declarative-broad-focus_Mi-tia-odia-la-lluvia.wav,,,,,,,,,,,,,,,,,,,,,,242.6953,245.0464,0,1,1.819,,0,10,10,82,1,0,mexican,,,,,,,,,,,,,,,,,,,,,,,,,,,,,,,,,,,,,,,,,,,,,,,,,,,,,,,,
,,,,,,,,,5e70636370147a63fecbdea3,Mexican,13 or older,"no, only English or Spanish",yes,2025-07-22_20h43.04.882,empathy_intonation_perc,2024.2.4,Win32,60.60606061,5e70636370147a63fecbdea3,687ed1b7e638a4cbf2f02089,68802ff282e6d7ec14192327,,,,,,,,,,,,,53,0,,./stim/wavs/cuban_match_declarative-broad-focus_Manuela-vende-el-carro.wav,,,,,,,,,,,,,,,,,,,,,,245.0469,247.4319,0,1,1.8585,,0,11,11,52,1,0,cuban,,,,,,,,,,,,,,,,,,,,,,,,,,,,,,,,,,,,,,,,,,,,,,,,,,,,,,,,
,,,,,,,,,5e70636370147a63fecbdea3,Mexican,13 or older,"no, only English or Spanish",yes,2025-07-22_20h43.04.882,empathy_intonation_perc,2024.2.4,Win32,60.60606061,5e70636370147a63fecbdea3,687ed1b7e638a4cbf2f02089,68802ff282e6d7ec14192327,,,,,,,,,,,,,32,1,,./stim/wavs/cuban_mismatch_interrogative-total-yn_Mi-madre-come-la-fruta.wav,,,,,,,,,,,,,,,,,,,,,,247.4326,250.3346,0,0,2.3778,,0,12,12,31,1,1,cuban,,,,,,,,,,,,,,,,,,,,,,,,,,,,,,,,,,,,,,,,,,,,,,,,,,,,,,,,
,,,,,,,,,5e70636370147a63fecbdea3,Mexican,13 or older,"no, only English or Spanish",yes,2025-07-22_20h43.04.882,empathy_intonation_perc,2024.2.4,Win32,60.60606061,5e70636370147a63fecbdea3,687ed1b7e638a4cbf2f02089,68802ff282e6d7ec14192327,,,,,,,,,,,,,6,1,,./stim/wavs/castilian_match_interrogative-total-yn_Marta-abre-el-regalo.wav,,,,,,,,,,,,,,,,,,,,,,250.3354,254.0374,1,1,3.1699,,0,13,13,5,1,0,castilian,,,,,,,,,,,,,,,,,,,,,,,,,,,,,,,,,,,,,,,,,,,,,,,,,,,,,,,,
,,,,,,,,,5e70636370147a63fecbdea3,Mexican,13 or older,"no, only English or Spanish",yes,2025-07-22_20h43.04.882,empathy_intonation_perc,2024.2.4,Win32,60.60606061,5e70636370147a63fecbdea3,687ed1b7e638a4cbf2f02089,68802ff282e6d7ec14192327,,,,,,,,,,,,,77,0,,./stim/wavs/cuban_mismatch_declarative-broad-focus_Mi-novio-viene-del-lago.wav,,,,,,,,,,,,,,,,,,,,,,254.0379,257.2736,0,1,2.7274,,0,14,14,76,1,0,cuban,,,,,,,,,,,,,,,,,,,,,,,,,,,,,,,,,,,,,,,,,,,,,,,,,,,,,,,,
,,,,,,,,,5e70636370147a63fecbdea3,Mexican,13 or older,"no, only English or Spanish",yes,2025-07-22_20h43.04.882,empathy_intonation_perc,2024.2.4,Win32,60.60606061,5e70636370147a63fecbdea3,687ed1b7e638a4cbf2f02089,68802ff282e6d7ec14192327,,,,,,,,,,,,,71,0,,./stim/wavs/castilian_mismatch_declarative-broad-focus_La-nina-lava-el-plato.wav,,,,,,,,,,,,,,,,,,,,,,257.2741,260.7442,0,1,2.9613,,0,15,15,70,1,0,castilian,,,,,,,,,,,,,,,,,,,,,,,,,,,,,,,,,,,,,,,,,,,,,,,,,,,,,,,,
,,,,,,,,,5e70636370147a63fecbdea3,Mexican,13 or older,"no, only English or Spanish",yes,2025-07-22_20h43.04.882,empathy_intonation_perc,2024.2.4,Win32,60.60606061,5e70636370147a63fecbdea3,687ed1b7e638a4cbf2f02089,68802ff282e6d7ec14192327,,,,,,,,,,,,,88,0,,./stim/wavs/puertorican_mismatch_declarative-broad-focus_La-nina-lava-el-plato.wav,,,,,,,,,,,,,,,,,,,,,,260.7452,264.5799,0,1,3.3037,,0,16,16,87,1,0,puertorican,,,,,,,,,,,,,,,,,,,,,,,,,,,,,,,,,,,,,,,,,,,,,,,,,,,,,,,,
,,,,,,,,,5e70636370147a63fecbdea3,Mexican,13 or older,"no, only English or Spanish",yes,2025-07-22_20h43.04.882,empathy_intonation_perc,2024.2.4,Win32,60.60606061,5e70636370147a63fecbdea3,687ed1b7e638a4cbf2f02089,68802ff282e6d7ec14192327,,,,,,,,,,,,,61,0,,./stim/wavs/mexican_match_declarative-broad-focus_Mariano-habla-del-tiempo.wav,,,,,,,,,,,,,,,,,,,,,,264.5803,266.7482,0,1,1.6511,,0,17,17,60,1,0,mexican,,,,,,,,,,,,,,,,,,,,,,,,,,,,,,,,,,,,,,,,,,,,,,,,,,,,,,,,
,,,,,,,,,5e70636370147a63fecbdea3,Mexican,13 or older,"no, only English or Spanish",yes,2025-07-22_20h43.04.882,empathy_intonation_perc,2024.2.4,Win32,60.60606061,5e70636370147a63fecbdea3,687ed1b7e638a4cbf2f02089,68802ff282e6d7ec14192327,,,,,,,,,,,,,29,1,,./stim/wavs/castilian_mismatch_interrogative-total-yn_Mi-tia-odia-la-lluvia.wav,,,,,,,,,,,,,,,,,,,,,,266.7487,269.267,1,1,1.9898,,0,18,18,28,1,0,castilian,,,,,,,,,,,,,,,,,,,,,,,,,,,,,,,,,,,,,,,,,,,,,,,,,,,,,,,,
,,,,,,,,,5e70636370147a63fecbdea3,Mexican,13 or older,"no, only English or Spanish",yes,2025-07-22_20h43.04.882,empathy_intonation_perc,2024.2.4,Win32,60.60606061,5e70636370147a63fecbdea3,687ed1b7e638a4cbf2f02089,68802ff282e6d7ec14192327,,,,,,,,,,,,,14,1,,./stim/wavs/mexican_match_interrogative-total-yn_Daniel-iba-a-Bolivia.wav,,,,,,,,,,,,,,,,,,,,,,269.2675,272.1861,0,0,2.4022,,0,19,19,13,1,0,mexican,,,,,,,,,,,,,,,,,,,,,,,,,,,,,,,,,,,,,,,,,,,,,,,,,,,,,,,,
,,,,,,,,,5e70636370147a63fecbdea3,Mexican,13 or older,"no, only English or Spanish",yes,2025-07-22_20h43.04.882,empathy_intonation_perc,2024.2.4,Win32,60.60606061,5e70636370147a63fecbdea3,687ed1b7e638a4cbf2f02089,68802ff282e6d7ec14192327,,,,,,,,,,,,,21,1,,./stim/wavs/puertorican_match_interrogative-total-yn_David-leia-el-libro.wav,,,,,,,,,,,,,,,,,,,,,,272.1867,274.7385,0,0,2.0409,,0,20,20,20,1,1,puertorican,,,,,,,,,,,,,,,,,,,,,,,,,,,,,,,,,,,,,,,,,,,,,,,,,,,,,,,,
,,,,,,,,,5e70636370147a63fecbdea3,Mexican,13 or older,"no, only English or Spanish",yes,2025-07-22_20h43.04.882,empathy_intonation_perc,2024.2.4,Win32,60.60606061,5e70636370147a63fecbdea3,687ed1b7e638a4cbf2f02089,68802ff282e6d7ec14192327,,,,,,,,,,,,,24,1,,./stim/wavs/puertorican_match_interrogative-total-yn_Maria-bebe-el-vino.wav,,,,,,,,,,,,,,,,,,,,,,274.739,277.0069,0,0,1.7352,,0,21,21,23,1,1,puertorican,,,,,,,,,,,,,,,,,,,,,,,,,,,,,,,,,,,,,,,,,,,,,,,,,,,,,,,,
,,,,,,,,,5e70636370147a63fecbdea3,Mexican,13 or older,"no, only English or Spanish",yes,2025-07-22_20h43.04.882,empathy_intonation_perc,2024.2.4,Win32,60.60606061,5e70636370147a63fecbdea3,687ed1b7e638a4cbf2f02089,68802ff282e6d7ec14192327,,,,,,,,,,,,,65,0,,./stim/wavs/puertorican_match_declarative-broad-focus_David-leia-el-libro.wav,,,,,,,,,,,,,,,,,,,,,,277.0074,280.6434,0,1,3.1193,,0,22,22,64,1,0,puertorican,,,,,,,,,,,,,,,,,,,,,,,,,,,,,,,,,,,,,,,,,,,,,,,,,,,,,,,,
,,,,,,,,,5e70636370147a63fecbdea3,Mexican,13 or older,"no, only English or Spanish",yes,2025-07-22_20h43.04.882,empathy_intonation_perc,2024.2.4,Win32,60.60606061,5e70636370147a63fecbdea3,687ed1b7e638a4cbf2f02089,68802ff282e6d7ec14192327,,,,,,,,,,,,,2,1,,./stim/wavs/castilian_match_interrogative-total-yn_Emilio-ama-la-marcha.wav,,,,,,,,,,,,,,,,,,,,,,280.6439,283.0788,1,1,1.9184,,0,23,23,1,1,0,castilian,,,,,,,,,,,,,,,,,,,,,,,,,,,,,,,,,,,,,,,,,,,,,,,,,,,,,,,,
,,,,,,,,,5e70636370147a63fecbdea3,Mexican,13 or older,"no, only English or Spanish",yes,2025-07-22_20h43.04.882,empathy_intonation_perc,2024.2.4,Win32,60.60606061,5e70636370147a63fecbdea3,687ed1b7e638a4cbf2f02089,68802ff282e6d7ec14192327,,,,,,,,,,,,,19,1,,./stim/wavs/puertorican_match_interrogative-total-yn_Ana-lleva-el-abrigo.wav,,,,,,,,,,,,,,,,,,,,,,283.0795,284.9137,1,1,1.302,,0,24,24,18,1,1,puertorican,,,,,,,,,,,,,,,,,,,,,,,,,,,,,,,,,,,,,,,,,,,,,,,,,,,,,,,,
,,,,,,,,,5e70636370147a63fecbdea3,Mexican,13 or older,"no, only English or Spanish",yes,2025-07-22_20h43.04.882,empathy_intonation_perc,2024.2.4,Win32,60.60606061,5e70636370147a63fecbdea3,687ed1b7e638a4cbf2f02089,68802ff282e6d7ec14192327,,,,,,,,,,,,,39,1,,./stim/wavs/mexican_mismatch_interrogative-total-yn_Mi-tia-odia-la-lluvia.wav,,,,,,,,,,,,,,,,,,,,,,284.9143,286.8654,0,0,1.4192,,0,25,25,38,1,0,mexican,,,,,,,,,,,,,,,,,,,,,,,,,,,,,,,,,,,,,,,,,,,,,,,,,,,,,,,,
,,,,,,,,,5e70636370147a63fecbdea3,Mexican,13 or older,"no, only English or Spanish",yes,2025-07-22_20h43.04.882,empathy_intonation_perc,2024.2.4,Win32,60.60606061,5e70636370147a63fecbdea3,687ed1b7e638a4cbf2f02089,68802ff282e6d7ec14192327,,,,,,,,,,,,,34,1,,./stim/wavs/cuban_mismatch_interrogative-total-yn_Mi-tia-odia-la-lluvia.wav,,,,,,,,,,,,,,,,,,,,,,286.8659,288.9173,0,0,1.5208,,0,26,26,33,1,1,cuban,,,,,,,,,,,,,,,,,,,,,,,,,,,,,,,,,,,,,,,,,,,,,,,,,,,,,,,,
,,,,,,,,,5e70636370147a63fecbdea3,Mexican,13 or older,"no, only English or Spanish",yes,2025-07-22_20h43.04.882,empathy_intonation_perc,2024.2.4,Win32,60.60606061,5e70636370147a63fecbdea3,687ed1b7e638a4cbf2f02089,68802ff282e6d7ec14192327,,,,,,,,,,,,,80,0,,./stim/wavs/mexican_mismatch_declarative-broad-focus_El-hombre-mira-la-luna.wav,,,,,,,,,,,,,,,,,,,,,,288.9178,291.6027,1,0,2.1527,,0,27,27,79,1,0,mexican,,,,,,,,,,,,,,,,,,,,,,,,,,,,,,,,,,,,,,,,,,,,,,,,,,,,,,,,
,,,,,,,,,5e70636370147a63fecbdea3,Mexican,13 or older,"no, only English or Spanish",yes,2025-07-22_20h43.04.882,empathy_intonation_perc,2024.2.4,Win32,60.60606061,5e70636370147a63fecbdea3,687ed1b7e638a4cbf2f02089,68802ff282e6d7ec14192327,,,,,,,,,,,,,5,1,,./stim/wavs/castilian_match_interrogative-total-yn_Mariano-habla-del-tiempo.wav,,,,,,,,,,,,,,,,,,,,,,291.6032,295.6562,1,1,3.5443,,0,28,28,4,1,0,castilian,,,,,,,,,,,,,,,,,,,,,,,,,,,,,,,,,,,,,,,,,,,,,,,,,,,,,,,,
,,,,,,,,,5e70636370147a63fecbdea3,Mexican,13 or older,"no, only English or Spanish",yes,2025-07-22_20h43.04.882,empathy_intonation_perc,2024.2.4,Win32,60.60606061,5e70636370147a63fecbdea3,687ed1b7e638a4cbf2f02089,68802ff282e6d7ec14192327,,,,,,,,,,,,,46,0,,./stim/wavs/castilian_match_declarative-broad-focus_Emilio-ama-la-marcha.wav,,,,,,,,,,,,,,,,,,,,,,295.6568,298.2251,0,1,2.0527,,0,29,29,45,1,0,castilian,,,,,,,,,,,,,,,,,,,,,,,,,,,,,,,,,,,,,,,,,,,,,,,,,,,,,,,,
,,,,,,,,,5e70636370147a63fecbdea3,Mexican,13 or older,"no, only English or Spanish",yes,2025-07-22_20h43.04.882,empathy_intonation_perc,2024.2.4,Win32,60.60606061,5e70636370147a63fecbdea3,687ed1b7e638a4cbf2f02089,68802ff282e6d7ec14192327,,,,,,,,,,,,,30,1,,./stim/wavs/cuban_mismatch_interrogative-total-yn_El-hombre-mira-la-luna.wav,,,,,,,,,,,,,,,,,,,,,,298.2258,300.4269,0,0,1.6689,,0,30,30,29,1,1,cuban,,,,,,,,,,,,,,,,,,,,,,,,,,,,,,,,,,,,,,,,,,,,,,,,,,,,,,,,
,,,,,,,,,5e70636370147a63fecbdea3,Mexican,13 or older,"no, only English or Spanish",yes,2025-07-22_20h43.04.882,empathy_intonation_perc,2024.2.4,Win32,60.60606061,5e70636370147a63fecbdea3,687ed1b7e638a4cbf2f02089,68802ff282e6d7ec14192327,,,,,,,,,,,,,35,1,,./stim/wavs/mexican_mismatch_interrogative-total-yn_El-hombre-mira-la-luna.wav,,,,,,,,,,,,,,,,,,,,,,300.4274,303.4963,1,1,2.544,,0,31,31,34,1,0,mexican,,,,,,,,,,,,,,,,,,,,,,,,,,,,,,,,,,,,,,,,,,,,,,,,,,,,,,,,
,,,,,,,,,5e70636370147a63fecbdea3,Mexican,13 or older,"no, only English or Spanish",yes,2025-07-22_20h43.04.882,empathy_intonation_perc,2024.2.4,Win32,60.60606061,5e70636370147a63fecbdea3,687ed1b7e638a4cbf2f02089,68802ff282e6d7ec14192327,,,,,,,,,,,,,87,0,,./stim/wavs/puertorican_mismatch_declarative-broad-focus_La-maestra-vive-en-Paris.wav,,,,,,,,,,,,,,,,,,,,,,303.4969,305.6814,0,1,1.6524,,0,32,32,86,1,0,puertorican,,,,,,,,,,,,,,,,,,,,,,,,,,,,,,,,,,,,,,,,,,,,,,,,,,,,,,,,
,,,,,,,,,5e70636370147a63fecbdea3,Mexican,13 or older,"no, only English or Spanish",yes,2025-07-22_20h43.04.882,empathy_intonation_perc,2024.2.4,Win32,60.60606061,5e70636370147a63fecbdea3,687ed1b7e638a4cbf2f02089,68802ff282e6d7ec14192327,,,,,,,,,,,,,26,1,,./stim/wavs/castilian_mismatch_interrogative-total-yn_La-nina-lava-el-plato.wav,,,,,,,,,,,,,,,,,,,,,,305.6821,312.0201,0,0,5.8102,,0,33,33,25,1,0,castilian,,,,,,,,,,,,,,,,,,,,,,,,,,,,,,,,,,,,,,,,,,,,,,,,,,,,,,,,
,,,,,,,,,5e70636370147a63fecbdea3,Mexican,13 or older,"no, only English or Spanish",yes,2025-07-22_20h43.04.882,empathy_intonation_perc,2024.2.4,Win32,60.60606061,5e70636370147a63fecbdea3,687ed1b7e638a4cbf2f02089,68802ff282e6d7ec14192327,,,,,,,,,,,,,47,0,,./stim/wavs/castilian_match_declarative-broad-focus_Manuela-vende-el-carro.wav,,,,,,,,,,,,,,,,,,,,,,312.021,315.2567,0,1,2.7265,,0,34,34,46,1,0,castilian,,,,,,,,,,,,,,,,,,,,,,,,,,,,,,,,,,,,,,,,,,,,,,,,,,,,,,,,
,,,,,,,,,5e70636370147a63fecbdea3,Mexican,13 or older,"no, only English or Spanish",yes,2025-07-22_20h43.04.882,empathy_intonation_perc,2024.2.4,Win32,60.60606061,5e70636370147a63fecbdea3,687ed1b7e638a4cbf2f02089,68802ff282e6d7ec14192327,,,,,,,,,,,,,62,0,,./stim/wavs/mexican_match_declarative-broad-focus_Marta-abre-el-regalo.wav,,,,,,,,,,,,,,,,,,,,,,315.2572,317.4583,0,1,1.6688,,0,35,35,61,1,0,mexican,,,,,,,,,,,,,,,,,,,,,,,,,,,,,,,,,,,,,,,,,,,,,,,,,,,,,,,,
,,,,,,,,,5e70636370147a63fecbdea3,Mexican,13 or older,"no, only English or Spanish",yes,2025-07-22_20h43.04.882,empathy_intonation_perc,2024.2.4,Win32,60.60606061,5e70636370147a63fecbdea3,687ed1b7e638a4cbf2f02089,68802ff282e6d7ec14192327,,,,,,,,,,,,,76,0,,./stim/wavs/cuban_mismatch_declarative-broad-focus_La-nina-lava-el-plato.wav,,,,,,,,,,,,,,,,,,,,,,317.4589,320.1272,0,1,2.1374,,0,36,36,75,1,0,cuban,,,,,,,,,,,,,,,,,,,,,,,,,,,,,,,,,,,,,,,,,,,,,,,,,,,,,,,,
,,,,,,,,,5e70636370147a63fecbdea3,Mexican,13 or older,"no, only English or Spanish",yes,2025-07-22_20h43.04.882,empathy_intonation_perc,2024.2.4,Win32,60.60606061,5e70636370147a63fecbdea3,687ed1b7e638a4cbf2f02089,68802ff282e6d7ec14192327,,,,,,,,,,,,,85,0,,./stim/wavs/puertorican_mismatch_declarative-broad-focus_El-hombre-mira-la-luna.wav,,,,,,,,,,,,,,,,,,,,,,320.1276,323.4811,0,1,2.8285,,0,37,37,84,1,0,puertorican,,,,,,,,,,,,,,,,,,,,,,,,,,,,,,,,,,,,,,,,,,,,,,,,,,,,,,,,
,,,,,,,,,5e70636370147a63fecbdea3,Mexican,13 or older,"no, only English or Spanish",yes,2025-07-22_20h43.04.882,empathy_intonation_perc,2024.2.4,Win32,60.60606061,5e70636370147a63fecbdea3,687ed1b7e638a4cbf2f02089,68802ff282e6d7ec14192327,,,,,,,,,,,,,70,0,,./stim/wavs/castilian_mismatch_declarative-broad-focus_La-maestra-vive-en-Paris.wav,,,,,,,,,,,,,,,,,,,,,,323.4818,327.4667,0,1,3.4541,,0,38,38,69,1,0,castilian,,,,,,,,,,,,,,,,,,,,,,,,,,,,,,,,,,,,,,,,,,,,,,,,,,,,,,,,
,,,,,,,,,5e70636370147a63fecbdea3,Mexican,13 or older,"no, only English or Spanish",yes,2025-07-22_20h43.04.882,empathy_intonation_perc,2024.2.4,Win32,60.60606061,5e70636370147a63fecbdea3,687ed1b7e638a4cbf2f02089,68802ff282e6d7ec14192327,,,,,,,,,,,,,23,1,,./stim/wavs/puertorican_match_interrogative-total-yn_Manuela-vende-el-carro.wav,,,,,,,,,,,,,,,,,,,,,,327.4672,329.5684,1,1,1.5682,,0,39,39,22,1,1,puertorican,,,,,,,,,,,,,,,,,,,,,,,,,,,,,,,,,,,,,,,,,,,,,,,,,,,,,,,,
,,,,,,,,,5e70636370147a63fecbdea3,Mexican,13 or older,"no, only English or Spanish",yes,2025-07-22_20h43.04.882,empathy_intonation_perc,2024.2.4,Win32,60.60606061,5e70636370147a63fecbdea3,687ed1b7e638a4cbf2f02089,68802ff282e6d7ec14192327,,,,,,,,,,,,,44,1,,./stim/wavs/puertorican_mismatch_interrogative-total-yn_Mi-madre-come-la-fruta.wav,,,,,,,,,,,,,,,,,,,,,,329.5688,332.2874,0,0,2.1871,,0,40,40,43,1,1,puertorican,,,,,,,,,,,,,,,,,,,,,,,,,,,,,,,,,,,,,,,,,,,,,,,,,,,,,,,,
,,,,,,,,,5e70636370147a63fecbdea3,Mexican,13 or older,"no, only English or Spanish",yes,2025-07-22_20h43.04.882,empathy_intonation_perc,2024.2.4,Win32,60.60606061,5e70636370147a63fecbdea3,687ed1b7e638a4cbf2f02089,68802ff282e6d7ec14192327,,,,,,,,,,,,,41,1,,./stim/wavs/puertorican_mismatch_interrogative-total-yn_El-nino-oye-el-rio.wav,,,,,,,,,,,,,,,,,,,,,,332.2878,334.8733,0,0,2.078,,0,41,41,40,1,1,puertorican,,,,,,,,,,,,,,,,,,,,,,,,,,,,,,,,,,,,,,,,,,,,,,,,,,,,,,,,
,,,,,,,,,5e70636370147a63fecbdea3,Mexican,13 or older,"no, only English or Spanish",yes,2025-07-22_20h43.04.882,empathy_intonation_perc,2024.2.4,Win32,60.60606061,5e70636370147a63fecbdea3,687ed1b7e638a4cbf2f02089,68802ff282e6d7ec14192327,,,,,,,,,,,,,59,0,,./stim/wavs/mexican_match_declarative-broad-focus_David-leia-el-libro.wav,,,,,,,,,,,,,,,,,,,,,,334.8741,338.059,0,1,2.6532,,0,42,42,58,1,0,mexican,,,,,,,,,,,,,,,,,,,,,,,,,,,,,,,,,,,,,,,,,,,,,,,,,,,,,,,,
,,,,,,,,,5e70636370147a63fecbdea3,Mexican,13 or older,"no, only English or Spanish",yes,2025-07-22_20h43.04.882,empathy_intonation_perc,2024.2.4,Win32,60.60606061,5e70636370147a63fecbdea3,687ed1b7e638a4cbf2f02089,68802ff282e6d7ec14192327,,,,,,,,,,,,,67,0,,./stim/wavs/puertorican_match_declarative-broad-focus_Manuela-vende-el-carro.wav,,,,,,,,,,,,,,,,,,,,,,338.0594,340.3276,0,1,1.7353,,0,43,43,66,1,0,puertorican,,,,,,,,,,,,,,,,,,,,,,,,,,,,,,,,,,,,,,,,,,,,,,,,,,,,,,,,
,,,,,,,,,5e70636370147a63fecbdea3,Mexican,13 or older,"no, only English or Spanish",yes,2025-07-22_20h43.04.882,empathy_intonation_perc,2024.2.4,Win32,60.60606061,5e70636370147a63fecbdea3,687ed1b7e638a4cbf2f02089,68802ff282e6d7ec14192327,,,,,,,,,,,,,51,0,,./stim/wavs/cuban_match_declarative-broad-focus_Ana-lleva-el-abrigo.wav,,,,,,,,,,,,,,,,,,,,,,340.3281,342.2626,0,1,1.4048,,0,44,44,50,1,0,cuban,,,,,,,,,,,,,,,,,,,,,,,,,,,,,,,,,,,,,,,,,,,,,,,,,,,,,,,,
,,,,,,,,,5e70636370147a63fecbdea3,Mexican,13 or older,"no, only English or Spanish",yes,2025-07-22_20h43.04.882,empathy_intonation_perc,2024.2.4,Win32,60.60606061,5e70636370147a63fecbdea3,687ed1b7e638a4cbf2f02089,68802ff282e6d7ec14192327,,,,,,,,,,,,,79,0,,./stim/wavs/mexican_mismatch_declarative-broad-focus_El-bebe-comia-muy-bien.wav,,,,,,,,,,,,,,,,,,,,,,342.2631,344.4144,0,1,1.6345,,0,45,45,78,1,0,mexican,,,,,,,,,,,,,,,,,,,,,,,,,,,,,,,,,,,,,,,,,,,,,,,,,,,,,,,,
,,,,,,,,,5e70636370147a63fecbdea3,Mexican,13 or older,"no, only English or Spanish",yes,2025-07-22_20h43.04.882,empathy_intonation_perc,2024.2.4,Win32,60.60606061,5e70636370147a63fecbdea3,687ed1b7e638a4cbf2f02089,68802ff282e6d7ec14192327,,,,,,,,,,,,,40,1,,./stim/wavs/puertorican_mismatch_interrogative-total-yn_El-hombre-mira-la-luna.wav,,,,,,,,,,,,,,,,,,,,,,344.415,347.3336,1,1,2.3858,,0,46,46,39,1,1,puertorican,,,,,,,,,,,,,,,,,,,,,,,,,,,,,,,,,,,,,,,,,,,,,,,,,,,,,,,,
,,,,,,,,,5e70636370147a63fecbdea3,Mexican,13 or older,"no, only English or Spanish",yes,2025-07-22_20h43.04.882,empathy_intonation_perc,2024.2.4,Win32,60.60606061,5e70636370147a63fecbdea3,687ed1b7e638a4cbf2f02089,68802ff282e6d7ec14192327,,,,,,,,,,,,,66,0,,./stim/wavs/puertorican_match_declarative-broad-focus_Emilio-ama-la-marcha.wav,,,,,,,,,,,,,,,,,,,,,,347.334,351.154,0,1,3.295,,0,47,47,65,1,0,puertorican,,,,,,,,,,,,,,,,,,,,,,,,,,,,,,,,,,,,,,,,,,,,,,,,,,,,,,,,
,,,,,,,,,5e70636370147a63fecbdea3,Mexican,13 or older,"no, only English or Spanish",yes,2025-07-22_20h43.04.882,empathy_intonation_perc,2024.2.4,Win32,60.60606061,5e70636370147a63fecbdea3,687ed1b7e638a4cbf2f02089,68802ff282e6d7ec14192327,,,,,,,,,,,,,20,1,,./stim/wavs/puertorican_match_interrogative-total-yn_Daniel-iba-a-Bolivia.wav,,,,,,,,,,,,,,,,,,,,,,351.1547,353.0551,1,1,1.3708,,0,48,48,19,1,1,puertorican,,,,,,,,,,,,,,,,,,,,,,,,,,,,,,,,,,,,,,,,,,,,,,,,,,,,,,,,
,,,,,,,,,5e70636370147a63fecbdea3,Mexican,13 or older,"no, only English or Spanish",yes,2025-07-22_20h43.04.882,empathy_intonation_perc,2024.2.4,Win32,60.60606061,5e70636370147a63fecbdea3,687ed1b7e638a4cbf2f02089,68802ff282e6d7ec14192327,,,,,,,,,,,,,16,1,,./stim/wavs/mexican_match_interrogative-total-yn_Emilio-ama-la-marcha.wav,,,,,,,,,,,,,,,,,,,,,,353.0556,355.5071,1,1,1.9353,,0,49,49,15,1,0,mexican,,,,,,,,,,,,,,,,,,,,,,,,,,,,,,,,,,,,,,,,,,,,,,,,,,,,,,,,
,,,,,,,,,5e70636370147a63fecbdea3,Mexican,13 or older,"no, only English or Spanish",yes,2025-07-22_20h43.04.882,empathy_intonation_perc,2024.2.4,Win32,60.60606061,5e70636370147a63fecbdea3,687ed1b7e638a4cbf2f02089,68802ff282e6d7ec14192327,,,,,,,,,,,,,72,0,,./stim/wavs/castilian_mismatch_declarative-broad-focus_Mi-novio-viene-del-lago.wav,,,,,,,,,,,,,,,,,,,,,,355.5076,358.1428,0,1,2.1046,,0,50,50,71,1,0,castilian,,,,,,,,,,,,,,,,,,,,,,,,,,,,,,,,,,,,,,,,,,,,,,,,,,,,,,,,
,,,,,,,,,5e70636370147a63fecbdea3,Mexican,13 or older,"no, only English or Spanish",yes,2025-07-22_20h43.04.882,empathy_intonation_perc,2024.2.4,Win32,60.60606061,5e70636370147a63fecbdea3,687ed1b7e638a4cbf2f02089,68802ff282e6d7ec14192327,,,,,,,,,,,,,69,0,,./stim/wavs/castilian_mismatch_declarative-broad-focus_El-nino-oye-el-rio.wav,,,,,,,,,,,,,,,,,,,,,,358.1433,362.313,0,1,3.6548,,0,51,51,68,1,0,castilian,,,,,,,,,,,,,,,,,,,,,,,,,,,,,,,,,,,,,,,,,,,,,,,,,,,,,,,,
,,,,,,,,,5e70636370147a63fecbdea3,Mexican,13 or older,"no, only English or Spanish",yes,2025-07-22_20h43.04.882,empathy_intonation_perc,2024.2.4,Win32,60.60606061,5e70636370147a63fecbdea3,687ed1b7e638a4cbf2f02089,68802ff282e6d7ec14192327,,,,,,,,,,,,,37,1,,./stim/wavs/mexican_mismatch_interrogative-total-yn_La-maestra-vive-en-Paris.wav,,,,,,,,,,,,,,,,,,,,,,362.3136,364.715,1,1,1.8917,,0,52,52,36,1,0,mexican,,,,,,,,,,,,,,,,,,,,,,,,,,,,,,,,,,,,,,,,,,,,,,,,,,,,,,,,
,,,,,,,,,5e70636370147a63fecbdea3,Mexican,13 or older,"no, only English or Spanish",yes,2025-07-22_20h43.04.882,empathy_intonation_perc,2024.2.4,Win32,60.60606061,5e70636370147a63fecbdea3,687ed1b7e638a4cbf2f02089,68802ff282e6d7ec14192327,,,,,,,,,,,,,48,0,,./stim/wavs/castilian_match_declarative-broad-focus_Maria-bebe-el-vino.wav,,,,,,,,,,,,,,,,,,,,,,364.7157,367.6843,0,1,2.4362,,0,53,53,47,1,0,castilian,,,,,,,,,,,,,,,,,,,,,,,,,,,,,,,,,,,,,,,,,,,,,,,,,,,,,,,,
,,,,,,,,,5e70636370147a63fecbdea3,Mexican,13 or older,"no, only English or Spanish",yes,2025-07-22_20h43.04.882,empathy_intonation_perc,2024.2.4,Win32,60.60606061,5e70636370147a63fecbdea3,687ed1b7e638a4cbf2f02089,68802ff282e6d7ec14192327,,,,,,,,,,,,,25,1,,./stim/wavs/castilian_mismatch_interrogative-total-yn_La-maestra-vive-en-Paris.wav,,,,,,,,,,,,,,,,,,,,,,367.6848,370.4035,1,1,2.2024,,0,54,54,24,1,0,castilian,,,,,,,,,,,,,,,,,,,,,,,,,,,,,,,,,,,,,,,,,,,,,,,,,,,,,,,,
,,,,,,,,,5e70636370147a63fecbdea3,Mexican,13 or older,"no, only English or Spanish",yes,2025-07-22_20h43.04.882,empathy_intonation_perc,2024.2.4,Win32,60.60606061,5e70636370147a63fecbdea3,687ed1b7e638a4cbf2f02089,68802ff282e6d7ec14192327,,,,,,,,,,,,,36,1,,./stim/wavs/mexican_mismatch_interrogative-total-yn_El-nino-oye-el-rio.wav,,,,,,,,,,,,,,,,,,,,,,370.4042,374.1898,1,1,3.2577,,0,55,55,35,1,0,mexican,,,,,,,,,,,,,,,,,,,,,,,,,,,,,,,,,,,,,,,,,,,,,,,,,,,,,,,,
,,,,,,,,,5e70636370147a63fecbdea3,Mexican,13 or older,"no, only English or Spanish",yes,2025-07-22_20h43.04.882,empathy_intonation_perc,2024.2.4,Win32,60.60606061,5e70636370147a63fecbdea3,687ed1b7e638a4cbf2f02089,68802ff282e6d7ec14192327,,,,,,,,,,,,,13,1,,./stim/wavs/mexican_match_interrogative-total-yn_Ana-lleva-el-abrigo.wav,,,,,,,,,,,,,,,,,,,,,,374.1903,379.7778,1,1,5.0692,,0,56,56,12,1,0,mexican,,,,,,,,,,,,,,,,,,,,,,,,,,,,,,,,,,,,,,,,,,,,,,,,,,,,,,,,
,,,,,,,,,5e70636370147a63fecbdea3,Mexican,13 or older,"no, only English or Spanish",yes,2025-07-22_20h43.04.882,empathy_intonation_perc,2024.2.4,Win32,60.60606061,5e70636370147a63fecbdea3,687ed1b7e638a4cbf2f02089,68802ff282e6d7ec14192327,,,,,,,,,,,,,45,0,,./stim/wavs/castilian_match_declarative-broad-focus_David-leia-el-libro.wav,,,,,,,,,,,,,,,,,,,,,,379.7784,382.5469,0,1,2.2429,,0,57,57,44,1,0,castilian,,,,,,,,,,,,,,,,,,,,,,,,,,,,,,,,,,,,,,,,,,,,,,,,,,,,,,,,
,,,,,,,,,5e70636370147a63fecbdea3,Mexican,13 or older,"no, only English or Spanish",yes,2025-07-22_20h43.04.882,empathy_intonation_perc,2024.2.4,Win32,60.60606061,5e70636370147a63fecbdea3,687ed1b7e638a4cbf2f02089,68802ff282e6d7ec14192327,,,,,,,,,,,,,12,1,,./stim/wavs/cuban_match_interrogative-total-yn_Marta-abre-el-regalo.wav,,,,,,,,,,,,,,,,,,,,,,382.5476,384.9989,0,0,1.9228,,0,58,58,11,1,1,cuban,,,,,,,,,,,,,,,,,,,,,,,,,,,,,,,,,,,,,,,,,,,,,,,,,,,,,,,,
,,,,,,,,,5e70636370147a63fecbdea3,Mexican,13 or older,"no, only English or Spanish",yes,2025-07-22_20h43.04.882,empathy_intonation_perc,2024.2.4,Win32,60.60606061,5e70636370147a63fecbdea3,687ed1b7e638a4cbf2f02089,68802ff282e6d7ec14192327,,,,,,,,,,,,,49,0,,./stim/wavs/castilian_match_declarative-broad-focus_Mariano-habla-del-tiempo.wav,,,,,,,,,,,,,,,,,,,,,,384.9994,387.6347,0,1,2.1186,,0,59,59,48,1,0,castilian,,,,,,,,,,,,,,,,,,,,,,,,,,,,,,,,,,,,,,,,,,,,,,,,,,,,,,,,
,,,,,,,,,5e70636370147a63fecbdea3,Mexican,13 or older,"no, only English or Spanish",yes,2025-07-22_20h43.04.882,empathy_intonation_perc,2024.2.4,Win32,60.60606061,5e70636370147a63fecbdea3,687ed1b7e638a4cbf2f02089,68802ff282e6d7ec14192327,,,,,,,,,,,,,27,1,,./stim/wavs/castilian_mismatch_interrogative-total-yn_Mi-madre-come-la-fruta.wav,,,,,,,,,,,,,,,,,,,,,,387.6351,390.437,1,1,2.2686,,0,60,60,26,1,0,castilian,,,,,,,,,,,,,,,,,,,,,,,,,,,,,,,,,,,,,,,,,,,,,,,,,,,,,,,,
,,,,,,,,,5e70636370147a63fecbdea3,Mexican,13 or older,"no, only English or Spanish",yes,2025-07-22_20h43.04.882,empathy_intonation_perc,2024.2.4,Win32,60.60606061,5e70636370147a63fecbdea3,687ed1b7e638a4cbf2f02089,68802ff282e6d7ec14192327,,,,,,,,,,,,,28,1,,./stim/wavs/castilian_mismatch_interrogative-total-yn_Mi-novio-viene-del-lago.wav,,,,,,,,,,,,,,,,,,,,,,390.4375,393.9566,1,1,2.9871,,0,61,61,27,1,0,castilian,,,,,,,,,,,,,,,,,,,,,,,,,,,,,,,,,,,,,,,,,,,,,,,,,,,,,,,,
,,,,,,,,,5e70636370147a63fecbdea3,Mexican,13 or older,"no, only English or Spanish",yes,2025-07-22_20h43.04.882,empathy_intonation_perc,2024.2.4,Win32,60.60606061,5e70636370147a63fecbdea3,687ed1b7e638a4cbf2f02089,68802ff282e6d7ec14192327,,,,,,,,,,,,,63,0,,./stim/wavs/puertorican_match_declarative-broad-focus_Ana-lleva-el-abrigo.wav,,,,,,,,,,,,,,,,,,,,,,393.9571,396.6592,0,1,2.1935,,0,62,62,62,1,0,puertorican,,,,,,,,,,,,,,,,,,,,,,,,,,,,,,,,,,,,,,,,,,,,,,,,,,,,,,,,
,,,,,,,,,5e70636370147a63fecbdea3,Mexican,13 or older,"no, only English or Spanish",yes,2025-07-22_20h43.04.882,empathy_intonation_perc,2024.2.4,Win32,60.60606061,5e70636370147a63fecbdea3,687ed1b7e638a4cbf2f02089,68802ff282e6d7ec14192327,,,,,,,,,,,,,50,0,,./stim/wavs/castilian_match_declarative-broad-focus_Marta-abre-el-regalo.wav,,,,,,,,,,,,,,,,,,,,,,396.6599,399.1778,0,1,1.9867,,0,63,63,49,1,0,castilian,,,,,,,,,,,,,,,,,,,,,,,,,,,,,,,,,,,,,,,,,,,,,,,,,,,,,,,,
,,,,,,,,,5e70636370147a63fecbdea3,Mexican,13 or older,"no, only English or Spanish",yes,2025-07-22_20h43.04.882,empathy_intonation_perc,2024.2.4,Win32,60.60606061,5e70636370147a63fecbdea3,687ed1b7e638a4cbf2f02089,68802ff282e6d7ec14192327,,,,,,,,,,,,,4,1,,./stim/wavs/castilian_match_interrogative-total-yn_Maria-bebe-el-vino.wav,,,,,,,,,,,,,,,,,,,,,,399.1783,401.7466,1,1,2.036,,0,64,64,3,1,0,castilian,,,,,,,,,,,,,,,,,,,,,,,,,,,,,,,,,,,,,,,,,,,,,,,,,,,,,,,,
,,,,,,,,,5e70636370147a63fecbdea3,Mexican,13 or older,"no, only English or Spanish",yes,2025-07-22_20h43.04.882,empathy_intonation_perc,2024.2.4,Win32,60.60606061,5e70636370147a63fecbdea3,687ed1b7e638a4cbf2f02089,68802ff282e6d7ec14192327,,,,,,,,,,,,,42,1,,./stim/wavs/puertorican_mismatch_interrogative-total-yn_La-maestra-vive-en-Paris.wav,,,,,,,,,,,,,,,,,,,,,,401.747,404.1486,0,0,1.8752,,0,65,65,41,1,1,puertorican,,,,,,,,,,,,,,,,,,,,,,,,,,,,,,,,,,,,,,,,,,,,,,,,,,,,,,,,
,,,,,,,,,5e70636370147a63fecbdea3,Mexican,13 or older,"no, only English or Spanish",yes,2025-07-22_20h43.04.882,empathy_intonation_perc,2024.2.4,Win32,60.60606061,5e70636370147a63fecbdea3,687ed1b7e638a4cbf2f02089,68802ff282e6d7ec14192327,,,,,,,,,,,,,43,1,,./stim/wavs/puertorican_mismatch_interrogative-total-yn_La-nina-lava-el-plato.wav,,,,,,,,,,,,,,,,,,,,,,404.149,406.067,1,1,1.3849,,0,66,66,42,1,1,puertorican,,,,,,,,,,,,,,,,,,,,,,,,,,,,,,,,,,,,,,,,,,,,,,,,,,,,,,,,
,,,,,,,,,5e70636370147a63fecbdea3,Mexican,13 or older,"no, only English or Spanish",yes,2025-07-22_20h43.04.882,empathy_intonation_perc,2024.2.4,Win32,60.60606061,5e70636370147a63fecbdea3,687ed1b7e638a4cbf2f02089,68802ff282e6d7ec14192327,,,,,,,,,,,,,84,0,,./stim/wavs/puertorican_mismatch_declarative-broad-focus_El-bebe-comia-muy-bien.wav,,,,,,,,,,,,,,,,,,,,,,406.0675,408.6691,1,0,2.0749,,0,67,67,83,1,0,puertorican,,,,,,,,,,,,,,,,,,,,,,,,,,,,,,,,,,,,,,,,,,,,,,,,,,,,,,,,
,,,,,,,,,5e70636370147a63fecbdea3,Mexican,13 or older,"no, only English or Spanish",yes,2025-07-22_20h43.04.882,empathy_intonation_perc,2024.2.4,Win32,60.60606061,5e70636370147a63fecbdea3,687ed1b7e638a4cbf2f02089,68802ff282e6d7ec14192327,,,,,,,,,,,,,78,0,,./stim/wavs/cuban_mismatch_declarative-broad-focus_Mi-tia-odia-la-lluvia.wav,,,,,,,,,,,,,,,,,,,,,,408.6696,411.288,0,1,2.089,,0,68,68,77,1,0,cuban,,,,,,,,,,,,,,,,,,,,,,,,,,,,,,,,,,,,,,,,,,,,,,,,,,,,,,,,
,,,,,,,,,5e70636370147a63fecbdea3,Mexican,13 or older,"no, only English or Spanish",yes,2025-07-22_20h43.04.882,empathy_intonation_perc,2024.2.4,Win32,60.60606061,5e70636370147a63fecbdea3,687ed1b7e638a4cbf2f02089,68802ff282e6d7ec14192327,,,,,,,,,,,,,54,0,,./stim/wavs/cuban_match_declarative-broad-focus_Maria-bebe-el-vino.wav,,,,,,,,,,,,,,,,,,,,,,411.2884,413.4733,0,1,1.6682,,0,69,69,53,1,0,cuban,,,,,,,,,,,,,,,,,,,,,,,,,,,,,,,,,,,,,,,,,,,,,,,,,,,,,,,,
,,,,,,,,,5e70636370147a63fecbdea3,Mexican,13 or older,"no, only English or Spanish",yes,2025-07-22_20h43.04.882,empathy_intonation_perc,2024.2.4,Win32,60.60606061,5e70636370147a63fecbdea3,687ed1b7e638a4cbf2f02089,68802ff282e6d7ec14192327,,,,,,,,,,,,,15,1,,./stim/wavs/mexican_match_interrogative-total-yn_David-leia-el-libro.wav,,,,,,,,,,,,,,,,,,,,,,413.4737,415.9753,1,1,1.9695,,0,70,70,14,1,0,mexican,,,,,,,,,,,,,,,,,,,,,,,,,,,,,,,,,,,,,,,,,,,,,,,,,,,,,,,,
,,,,,,,,,5e70636370147a63fecbdea3,Mexican,13 or older,"no, only English or Spanish",yes,2025-07-22_20h43.04.882,empathy_intonation_perc,2024.2.4,Win32,60.60606061,5e70636370147a63fecbdea3,687ed1b7e638a4cbf2f02089,68802ff282e6d7ec14192327,,,,,,,,,,,,,1,1,,./stim/wavs/castilian_match_interrogative-total-yn_David-leia-el-libro.wav,,,,,,,,,,,,,,,,,,,,,,415.9758,418.1773,0,0,1.6853,,0,71,71,0,1,0,castilian,,,,,,,,,,,,,,,,,,,,,,,,,,,,,,,,,,,,,,,,,,,,,,,,,,,,,,,,
,,,,,,,,,5e70636370147a63fecbdea3,Mexican,13 or older,"no, only English or Spanish",yes,2025-07-22_20h43.04.882,empathy_intonation_perc,2024.2.4,Win32,60.60606061,5e70636370147a63fecbdea3,687ed1b7e638a4cbf2f02089,68802ff282e6d7ec14192327,,,,,,,,,,,,,74,0,,./stim/wavs/cuban_mismatch_declarative-broad-focus_El-bebe-comia-muy-bien.wav,,,,,,,,,,,,,,,,,,,,,,418.1779,420.4292,0,1,1.7249,,0,72,72,73,1,0,cuban,,,,,,,,,,,,,,,,,,,,,,,,,,,,,,,,,,,,,,,,,,,,,,,,,,,,,,,,
,,,,,,,,,5e70636370147a63fecbdea3,Mexican,13 or older,"no, only English or Spanish",yes,2025-07-22_20h43.04.882,empathy_intonation_perc,2024.2.4,Win32,60.60606061,5e70636370147a63fecbdea3,687ed1b7e638a4cbf2f02089,68802ff282e6d7ec14192327,,,,,,,,,,,,,9,1,,./stim/wavs/cuban_match_interrogative-total-yn_Manuela-vende-el-carro.wav,,,,,,,,,,,,,,,,,,,,,,420.4296,422.5977,0,0,1.6521,,0,73,73,8,1,1,cuban,,,,,,,,,,,,,,,,,,,,,,,,,,,,,,,,,,,,,,,,,,,,,,,,,,,,,,,,
,,,,,,,,,5e70636370147a63fecbdea3,Mexican,13 or older,"no, only English or Spanish",yes,2025-07-22_20h43.04.882,empathy_intonation_perc,2024.2.4,Win32,60.60606061,5e70636370147a63fecbdea3,687ed1b7e638a4cbf2f02089,68802ff282e6d7ec14192327,,,,,,,,,,,,,56,0,,./stim/wavs/cuban_match_declarative-broad-focus_Marta-abre-el-regalo.wav,,,,,,,,,,,,,,,,,,,,,,422.5982,424.7828,0,1,1.6524,,0,74,74,55,1,0,cuban,,,,,,,,,,,,,,,,,,,,,,,,,,,,,,,,,,,,,,,,,,,,,,,,,,,,,,,,
,,,,,,,,,5e70636370147a63fecbdea3,Mexican,13 or older,"no, only English or Spanish",yes,2025-07-22_20h43.04.882,empathy_intonation_perc,2024.2.4,Win32,60.60606061,5e70636370147a63fecbdea3,687ed1b7e638a4cbf2f02089,68802ff282e6d7ec14192327,,,,,,,,,,,,,8,1,,./stim/wavs/cuban_match_interrogative-total-yn_Daniel-iba-a-Bolivia.wav,,,,,,,,,,,,,,,,,,,,,,424.7833,427.4686,0,0,2.1759,,0,75,75,7,1,1,cuban,,,,,,,,,,,,,,,,,,,,,,,,,,,,,,,,,,,,,,,,,,,,,,,,,,,,,,,,
,,,,,,,,,5e70636370147a63fecbdea3,Mexican,13 or older,"no, only English or Spanish",yes,2025-07-22_20h43.04.882,empathy_intonation_perc,2024.2.4,Win32,60.60606061,5e70636370147a63fecbdea3,687ed1b7e638a4cbf2f02089,68802ff282e6d7ec14192327,,,,,,,,,,,,,55,0,,./stim/wavs/cuban_match_declarative-broad-focus_Mariano-habla-del-tiempo.wav,,,,,,,,,,,,,,,,,,,,,,427.4691,432.1599,0,1,4.1777,,0,76,76,54,1,0,cuban,,,,,,,,,,,,,,,,,,,,,,,,,,,,,,,,,,,,,,,,,,,,,,,,,,,,,,,,
,,,,,,,,,5e70636370147a63fecbdea3,Mexican,13 or older,"no, only English or Spanish",yes,2025-07-22_20h43.04.882,empathy_intonation_perc,2024.2.4,Win32,60.60606061,5e70636370147a63fecbdea3,687ed1b7e638a4cbf2f02089,68802ff282e6d7ec14192327,,,,,,,,,,,,,57,0,,./stim/wavs/mexican_match_declarative-broad-focus_Ana-lleva-el-abrigo.wav,,,,,,,,,,,,,,,,,,,,,,432.1606,441.3137,0,1,8.6183,,0,77,77,56,1,0,mexican,,,,,,,,,,,,,,,,,,,,,,,,,,,,,,,,,,,,,,,,,,,,,,,,,,,,,,,,
,,,,,,,,,5e70636370147a63fecbdea3,Mexican,13 or older,"no, only English or Spanish",yes,2025-07-22_20h43.04.882,empathy_intonation_perc,2024.2.4,Win32,60.60606061,5e70636370147a63fecbdea3,687ed1b7e638a4cbf2f02089,68802ff282e6d7ec14192327,,,,,,,,,,,,,68,0,,./stim/wavs/puertorican_match_declarative-broad-focus_Maria-bebe-el-vino.wav,,,,,,,,,,,,,,,,,,,,,,441.3143,444.5497,0,1,2.7027,,0,78,78,67,1,0,puertorican,,,,,,,,,,,,,,,,,,,,,,,,,,,,,,,,,,,,,,,,,,,,,,,,,,,,,,,,
,,,,,,,,,5e70636370147a63fecbdea3,Mexican,13 or older,"no, only English or Spanish",yes,2025-07-22_20h43.04.882,empathy_intonation_perc,2024.2.4,Win32,60.60606061,5e70636370147a63fecbdea3,687ed1b7e638a4cbf2f02089,68802ff282e6d7ec14192327,,,,,,,,,,,,,38,1,,./stim/wavs/mexican_mismatch_interrogative-total-yn_Mi-novio-viene-del-lago.wav,,,,,,,,,,,,,,,,,,,,,,444.5502,447.0184,1,1,1.9534,,0,79,79,37,1,0,mexican,,,,,,,,,,,,,,,,,,,,,,,,,,,,,,,,,,,,,,,,,,,,,,,,,,,,,,,,
,,,,,,,,,5e70636370147a63fecbdea3,Mexican,13 or older,"no, only English or Spanish",yes,2025-07-22_20h43.04.882,empathy_intonation_perc,2024.2.4,Win32,60.60606061,5e70636370147a63fecbdea3,687ed1b7e638a4cbf2f02089,68802ff282e6d7ec14192327,,,,,,,,,,,,,82,0,,./stim/wavs/mexican_mismatch_declarative-broad-focus_Mi-novio-viene-del-lago.wav,,,,,,,,,,,,,,,,,,,,,,447.0189,453.5573,0,1,6.0292,,0,80,80,81,1,0,mexican,,,,,,,,,,,,,,,,,,,,,,,,,,,,,,,,,,,,,,,,,,,,,,,,,,,,,,,,
,,,,,,,,,5e70636370147a63fecbdea3,Mexican,13 or older,"no, only English or Spanish",yes,2025-07-22_20h43.04.882,empathy_intonation_perc,2024.2.4,Win32,60.60606061,5e70636370147a63fecbdea3,687ed1b7e638a4cbf2f02089,68802ff282e6d7ec14192327,,,,,,,,,,,,,81,0,,./stim/wavs/mexican_mismatch_declarative-broad-focus_La-maestra-vive-en-Paris.wav,,,,,,,,,,,,,,,,,,,,,,453.5579,456.927,0,1,2.8528,,0,81,81,80,1,0,mexican,,,,,,,,,,,,,,,,,,,,,,,,,,,,,,,,,,,,,,,,,,,,,,,,,,,,,,,,
,,,,,,,,,5e70636370147a63fecbdea3,Mexican,13 or older,"no, only English or Spanish",yes,2025-07-22_20h43.04.882,empathy_intonation_perc,2024.2.4,Win32,60.60606061,5e70636370147a63fecbdea3,687ed1b7e638a4cbf2f02089,68802ff282e6d7ec14192327,,,,,,,,,,,,,60,0,,./stim/wavs/mexican_match_declarative-broad-focus_Emilio-ama-la-marcha.wav,,,,,,,,,,,,,,,,,,,,,,456.9274,459.2456,0,1,1.7857,,0,82,82,59,1,0,mexican,,,,,,,,,,,,,,,,,,,,,,,,,,,,,,,,,,,,,,,,,,,,,,,,,,,,,,,,
,,,,,,,,,5e70636370147a63fecbdea3,Mexican,13 or older,"no, only English or Spanish",yes,2025-07-22_20h43.04.882,empathy_intonation_perc,2024.2.4,Win32,60.60606061,5e70636370147a63fecbdea3,687ed1b7e638a4cbf2f02089,68802ff282e6d7ec14192327,,,,,,,,,,,,,73,0,,./stim/wavs/castilian_mismatch_declarative-broad-focus_Mi-tia-odia-la-lluvia.wav,,,,,,,,,,,,,,,,,,,,,,459.2461,461.6977,0,1,1.9394,,0,83,83,72,1,0,castilian,,,,,,,,,,,,,,,,,,,,,,,,,,,,,,,,,,,,,,,,,,,,,,,,,,,,,,,,
,,,,,,,,,5e70636370147a63fecbdea3,Mexican,13 or older,"no, only English or Spanish",yes,2025-07-22_20h43.04.882,empathy_intonation_perc,2024.2.4,Win32,60.60606061,5e70636370147a63fecbdea3,687ed1b7e638a4cbf2f02089,68802ff282e6d7ec14192327,,,,,,,,,,,,,33,1,,./stim/wavs/cuban_mismatch_interrogative-total-yn_Mi-novio-viene-del-lago.wav,,,,,,,,,,,,,,,,,,,,,,461.6981,463.8494,0,0,1.638,,0,84,84,32,1,1,cuban,,,,,,,,,,,,,,,,,,,,,,,,,,,,,,,,,,,,,,,,,,,,,,,,,,,,,,,,
,,,,,,,,,5e70636370147a63fecbdea3,Mexican,13 or older,"no, only English or Spanish",yes,2025-07-22_20h43.04.882,empathy_intonation_perc,2024.2.4,Win32,60.60606061,5e70636370147a63fecbdea3,687ed1b7e638a4cbf2f02089,68802ff282e6d7ec14192327,,,,,,,,,,,,,52,0,,./stim/wavs/cuban_match_declarative-broad-focus_Daniel-iba-a-Bolivia.wav,,,,,,,,,,,,,,,,,,,,,,463.8499,466.1188,0,1,1.7527,,0,85,85,51,1,0,cuban,,,,,,,,,,,,,,,,,,,,,,,,,,,,,,,,,,,,,,,,,,,,,,,,,,,,,,,,
,,,,,,,,,5e70636370147a63fecbdea3,Mexican,13 or older,"no, only English or Spanish",yes,2025-07-22_20h43.04.882,empathy_intonation_perc,2024.2.4,Win32,60.60606061,5e70636370147a63fecbdea3,687ed1b7e638a4cbf2f02089,68802ff282e6d7ec14192327,,,,,,,,,,,,,64,0,,./stim/wavs/puertorican_match_declarative-broad-focus_Daniel-iba-a-Bolivia.wav,,,,,,,,,,,,,,,,,,,,,,466.1194,468.37,0,1,1.7184,,0,86,86,63,1,0,puertorican,,,,,,,,,,,,,,,,,,,,,,,,,,,,,,,,,,,,,,,,,,,,,,,,,,,,,,,,
,,,,,,,,,5e70636370147a63fecbdea3,Mexican,13 or older,"no, only English or Spanish",yes,2025-07-22_20h43.04.882,empathy_intonation_perc,2024.2.4,Win32,60.60606061,5e70636370147a63fecbdea3,687ed1b7e638a4cbf2f02089,68802ff282e6d7ec14192327,,,,,,,,,,,,,3,1,,./stim/wavs/castilian_match_interrogative-total-yn_Manuela-vende-el-carro.wav,,,,,,,,,,,,,,,,,,,,,,468.3703,471.8063,1,1,2.9096,,0,87,87,2,1,0,castilian,,,,,,,,,,,,,,,,,,,,,,,,,,,,,,,,,,,,,,,,,,,,,,,,,,,,,,,,
,,,,,,,"Great! Now we will move on. The next task consists of about 60 trials, in each of which you will see a string of letters. 
  
  Your task is to decide whether this is a real Spanish word or not.", (press the spacebar to continue),5e70636370147a63fecbdea3,Mexican,13 or older,"no, only English or Spanish",yes,2025-07-22_20h43.04.882,empathy_intonation_perc,2024.2.4,Win32,60.60606061,5e70636370147a63fecbdea3,687ed1b7e638a4cbf2f02089,68802ff282e6d7ec14192327,,,,,,,,,,,,,,,,,,,,,,,,,,,,,,,,,,,,,,,,,,,,,,,,,,,471.8162,486.2526,0,0,0,0,1,,,,,,,,,,,,,,,,,,,,,,,,,,,,,,,,,,,,,,,,,,,,,,,,,
,,,,,,,"If you think it is an existing Spanish word, you type '1' (for 'REAL'), and if you think it is not an existing Spanish word, you type '0' (for 'FAKE').", (press the spacebar to continue),5e70636370147a63fecbdea3,Mexican,13 or older,"no, only English or Spanish",yes,2025-07-22_20h43.04.882,empathy_intonation_perc,2024.2.4,Win32,60.60606061,5e70636370147a63fecbdea3,687ed1b7e638a4cbf2f02089,68802ff282e6d7ec14192327,,,,,,,,,,,,,,,,,,,,,,,,,,,,,,,,,,,,,,,,,,,,,,,,,,,486.2564,499.2631,0,1,1,1,1,,,,,,,,,,,,,,,,,,,,,,,,,,,,,,,,,,,,,,,,,,,,,,,,,
,,,,,,,"If you are sure that the word exists, even though you don’t know its exact meaning, you may still respond '1' (REAL). 
  
  But if you are not sure if it is an existing word, you should respond '0' (FAKE).
  
  Let's do a practice round...", (press the spacebar to continue),5e70636370147a63fecbdea3,Mexican,13 or older,"no, only English or Spanish",yes,2025-07-22_20h43.04.882,empathy_intonation_perc,2024.2.4,Win32,60.60606061,5e70636370147a63fecbdea3,687ed1b7e638a4cbf2f02089,68802ff282e6d7ec14192327,,,,,,,,,,,,,,,,,,,,,,,,,,,,,,,,,,,,,,,,,,,,,,,,,,,499.2659,519.0303,0,2,2,2,1,,,,,,,,,,,,,,,,,,,,,,,,,,,,,,,,,,,,,,,,,,,,,,,,,
,,,,,,,,,5e70636370147a63fecbdea3,Mexican,13 or older,"no, only English or Spanish",yes,2025-07-22_20h43.04.882,empathy_intonation_perc,2024.2.4,Win32,60.60606061,5e70636370147a63fecbdea3,687ed1b7e638a4cbf2f02089,68802ff282e6d7ec14192327,,,,,,,,,,,,,,0,,,,,,,,,,,,,,,,,,,,,,,,,,,,,,,,,,,,,,,,,,,,519.0358,521.8493,0,1,2.2817,,521.8495,522.8498,0,0,0,0,1,0,depiste,REAL,FAKE,,,,,,,,,,,,,,,,,,,,,,,,,,,,,,,,
,,,,,,,,,5e70636370147a63fecbdea3,Mexican,13 or older,"no, only English or Spanish",yes,2025-07-22_20h43.04.882,empathy_intonation_perc,2024.2.4,Win32,60.60606061,5e70636370147a63fecbdea3,687ed1b7e638a4cbf2f02089,68802ff282e6d7ec14192327,,,,,,,,,,,,,,1,,,,,,,,,,,,,,,,,,,,,,,,,,,,,,,,,,,,,,,,,,,,522.8514,525.2184,1,1,1.8351,,525.2184,526.2192,0,1,1,1,1,0,sí,REAL,FAKE,,,,,,,,,,,,,,,,,,,,,,,,,,,,,,,,
,,,,,,,,,5e70636370147a63fecbdea3,Mexican,13 or older,"no, only English or Spanish",yes,2025-07-22_20h43.04.882,empathy_intonation_perc,2024.2.4,Win32,60.60606061,5e70636370147a63fecbdea3,687ed1b7e638a4cbf2f02089,68802ff282e6d7ec14192327,,,,,,,,,,,,,,0,,,,,,,,,,,,,,,,,,,,,,,,,,,,,,,,,,,,,,,,,,,,526.2207,528.5212,0,1,1.781,,528.5213,529.5222,0,2,2,2,1,0,coné,REAL,FAKE,,,,,,,,,,,,,,,,,,,,,,,,,,,,,,,,
,,,,,,,,,5e70636370147a63fecbdea3,Mexican,13 or older,"no, only English or Spanish",yes,2025-07-22_20h43.04.882,empathy_intonation_perc,2024.2.4,Win32,60.60606061,5e70636370147a63fecbdea3,687ed1b7e638a4cbf2f02089,68802ff282e6d7ec14192327,,,,,,,,,,,,,,0,,,,,,,,,,,,,,,,,,,,,,,,,,,,,,,,,,,,,,,,,,,,529.5232,531.8741,0,1,1.8152,,531.8741,532.8749,0,3,3,3,1,0,calpar,REAL,FAKE,,,,,,,,,,,,,,,,,,,,,,,,,,,,,,,,
,,,,,,,,,5e70636370147a63fecbdea3,Mexican,13 or older,"no, only English or Spanish",yes,2025-07-22_20h43.04.882,empathy_intonation_perc,2024.2.4,Win32,60.60606061,5e70636370147a63fecbdea3,687ed1b7e638a4cbf2f02089,68802ff282e6d7ec14192327,,,,,,,,,,,,,,0,,,,,,,,,,,,,,,,,,,,,,,,,,,,,,,,,,,,,,,,,,,,532.8764,534.8434,0,1,1.4503,,534.8434,535.8442,0,4,4,4,1,0,joten,REAL,FAKE,,,,,,,,,,,,,,,,,,,,,,,,,,,,,,,,
,,,,,,,,,5e70636370147a63fecbdea3,Mexican,13 or older,"no, only English or Spanish",yes,2025-07-22_20h43.04.882,empathy_intonation_perc,2024.2.4,Win32,60.60606061,5e70636370147a63fecbdea3,687ed1b7e638a4cbf2f02089,68802ff282e6d7ec14192327,,,,,,,,,,,,,,1,,,,,,,,,,,,,,,,,,,,,,,,,,,,,,,,,,,,,,,,,,,,535.8454,537.3455,1,1,0.9691,,537.3456,538.3462,0,5,5,5,1,0,sacapuntas,REAL,FAKE,,,,,,,,,,,,,,,,,,,,,,,,,,,,,,,,
,,,,,,,,,5e70636370147a63fecbdea3,Mexican,13 or older,"no, only English or Spanish",yes,2025-07-22_20h43.04.882,empathy_intonation_perc,2024.2.4,Win32,60.60606061,5e70636370147a63fecbdea3,687ed1b7e638a4cbf2f02089,68802ff282e6d7ec14192327,,,,,,,,,,,,,,0,,,,,,,,,,,,,,,,,,,,,,,,,,,,,,,,,,,,,,,,,,,,538.3473,540.1144,0,1,1.2477,,540.1145,541.1153,0,6,6,6,1,0,priba,REAL,FAKE,,,,,,,,,,,,,,,,,,,,,,,,,,,,,,,,
,,,,,,,,,5e70636370147a63fecbdea3,Mexican,13 or older,"no, only English or Spanish",yes,2025-07-22_20h43.04.882,empathy_intonation_perc,2024.2.4,Win32,60.60606061,5e70636370147a63fecbdea3,687ed1b7e638a4cbf2f02089,68802ff282e6d7ec14192327,,,,,,,,,,,,,,0,,,,,,,,,,,,,,,,,,,,,,,,,,,,,,,,,,,,,,,,,,,,541.1162,542.9668,0,1,1.3209,,542.9669,543.9687,0,7,7,7,1,0,pelasula,REAL,FAKE,,,,,,,,,,,,,,,,,,,,,,,,,,,,,,,,
,,,,,,,,,5e70636370147a63fecbdea3,Mexican,13 or older,"no, only English or Spanish",yes,2025-07-22_20h43.04.882,empathy_intonation_perc,2024.2.4,Win32,60.60606061,5e70636370147a63fecbdea3,687ed1b7e638a4cbf2f02089,68802ff282e6d7ec14192327,,,,,,,,,,,,,,1,,,,,,,,,,,,,,,,,,,,,,,,,,,,,,,,,,,,,,,,,,,,543.9696,545.5524,1,1,1.0468,,545.5524,546.5532,0,8,8,8,1,0,bien,REAL,FAKE,,,,,,,,,,,,,,,,,,,,,,,,,,,,,,,,
,,,,,,,,,5e70636370147a63fecbdea3,Mexican,13 or older,"no, only English or Spanish",yes,2025-07-22_20h43.04.882,empathy_intonation_perc,2024.2.4,Win32,60.60606061,5e70636370147a63fecbdea3,687ed1b7e638a4cbf2f02089,68802ff282e6d7ec14192327,,,,,,,,,,,,,,1,,,,,,,,,,,,,,,,,,,,,,,,,,,,,,,,,,,,,,,,,,,,546.5542,547.8878,1,1,0.8201,,547.8879,548.8895,0,9,9,9,1,0,casa,REAL,FAKE,,,,,,,,,,,,,,,,,,,,,,,,,,,,,,,,
,,,,,,,,,5e70636370147a63fecbdea3,Mexican,13 or older,"no, only English or Spanish",yes,2025-07-22_20h43.04.882,empathy_intonation_perc,2024.2.4,Win32,60.60606061,5e70636370147a63fecbdea3,687ed1b7e638a4cbf2f02089,68802ff282e6d7ec14192327,,,,,,,,,,,,,,0,,,,,,,,,,,,,,,,,,,,,,,,,,,,,,,,,,,,,,,,,,,,548.8904,550.7916,1,0,1.3719,,550.7931,551.791,0,10,10,10,1,0,lejo,REAL,FAKE,,,,,,,,,,,,,,,,,,,,,,,,,,,,,,,,
,,,,,,,,,5e70636370147a63fecbdea3,Mexican,13 or older,"no, only English or Spanish",yes,2025-07-22_20h43.04.882,empathy_intonation_perc,2024.2.4,Win32,60.60606061,5e70636370147a63fecbdea3,687ed1b7e638a4cbf2f02089,68802ff282e6d7ec14192327,,,,,,,,,,,,,,0,,,,,,,,,,,,,,,,,,,,,,,,,,,,,,,,,,,,,,,,,,,,551.7923,553.359,0,1,1.0306,,553.3596,554.3599,0,11,11,11,1,0,pretantas,REAL,FAKE,,,,,,,,,,,,,,,,,,,,,,,,,,,,,,,,
,,,,,,,,,5e70636370147a63fecbdea3,Mexican,13 or older,"no, only English or Spanish",yes,2025-07-22_20h43.04.882,empathy_intonation_perc,2024.2.4,Win32,60.60606061,5e70636370147a63fecbdea3,687ed1b7e638a4cbf2f02089,68802ff282e6d7ec14192327,,,,,,,,,,,,,,,,,,,,,,,,,,,,,,,,,,,,,,,,,,,,,,,,,,,,,,,,,,,,,,,,,,,,,,,,,,,554.3603,555.5446,,,,,,,,,,,,,,,,,,,,,,,,,,,,,,
,,,,,,,,,5e70636370147a63fecbdea3,Mexican,13 or older,"no, only English or Spanish",yes,2025-07-22_20h43.04.882,empathy_intonation_perc,2024.2.4,Win32,60.60606061,5e70636370147a63fecbdea3,687ed1b7e638a4cbf2f02089,68802ff282e6d7ec14192327,,,,,,,,,,,,,,1,,,,,,,,,,,,,,,,,,,,,,,,,,,,,,,,,,,,,,,,,,,,,,,,,,,,,,,,,41,rebuscar,,,,,555.5535,557.7464,1,1,1.6695,,0,0,0,40,1,REAL,FAKE,,,,,,,,,,,,,,,,,
,,,,,,,,,5e70636370147a63fecbdea3,Mexican,13 or older,"no, only English or Spanish",yes,2025-07-22_20h43.04.882,empathy_intonation_perc,2024.2.4,Win32,60.60606061,5e70636370147a63fecbdea3,687ed1b7e638a4cbf2f02089,68802ff282e6d7ec14192327,,,,,,,,,,,,,,1,,,,,,,,,,,,,,,,,,,,,,,,,,,,,,,,,,,,,,,,,,,,,,,,,,,,,,,,,39,torpe,,,,,557.7475,559.581,1,1,1.2975,,0,1,1,38,1,REAL,FAKE,,,,,,,,,,,,,,,,,
,,,,,,,,,5e70636370147a63fecbdea3,Mexican,13 or older,"no, only English or Spanish",yes,2025-07-22_20h43.04.882,empathy_intonation_perc,2024.2.4,Win32,60.60606061,5e70636370147a63fecbdea3,687ed1b7e638a4cbf2f02089,68802ff282e6d7ec14192327,,,,,,,,,,,,,,1,,,,,,,,,,,,,,,,,,,,,,,,,,,,,,,,,,,,,,,,,,,,,,,,,,,,,,,,,13,helar,,,,,559.5819,560.9831,1,1,0.8729,,0,2,2,12,1,REAL,FAKE,,,,,,,,,,,,,,,,,
,,,,,,,,,5e70636370147a63fecbdea3,Mexican,13 or older,"no, only English or Spanish",yes,2025-07-22_20h43.04.882,empathy_intonation_perc,2024.2.4,Win32,60.60606061,5e70636370147a63fecbdea3,687ed1b7e638a4cbf2f02089,68802ff282e6d7ec14192327,,,,,,,,,,,,,,0,,,,,,,,,,,,,,,,,,,,,,,,,,,,,,,,,,,,,,,,,,,,,,,,,,,,,,,,,27,acutación,,,,,560.9845,562.3834,1,0,0.8708,,0,3,3,26,1,REAL,FAKE,,,,,,,,,,,,,,,,,
,,,,,,,,,5e70636370147a63fecbdea3,Mexican,13 or older,"no, only English or Spanish",yes,2025-07-22_20h43.04.882,empathy_intonation_perc,2024.2.4,Win32,60.60606061,5e70636370147a63fecbdea3,687ed1b7e638a4cbf2f02089,68802ff282e6d7ec14192327,,,,,,,,,,,,,,0,,,,,,,,,,,,,,,,,,,,,,,,,,,,,,,,,,,,,,,,,,,,,,,,,,,,,,,,,16,abracer,,,,,562.3847,563.7515,1,0,0.8385,,0,4,4,15,1,REAL,FAKE,,,,,,,,,,,,,,,,,
,,,,,,,,,5e70636370147a63fecbdea3,Mexican,13 or older,"no, only English or Spanish",yes,2025-07-22_20h43.04.882,empathy_intonation_perc,2024.2.4,Win32,60.60606061,5e70636370147a63fecbdea3,687ed1b7e638a4cbf2f02089,68802ff282e6d7ec14192327,,,,,,,,,,,,,,1,,,,,,,,,,,,,,,,,,,,,,,,,,,,,,,,,,,,,,,,,,,,,,,,,,,,,,,,,89,prisa,,,,,563.7528,565.2358,1,1,0.9461,,0,5,5,88,1,REAL,FAKE,,,,,,,,,,,,,,,,,
,,,,,,,,,5e70636370147a63fecbdea3,Mexican,13 or older,"no, only English or Spanish",yes,2025-07-22_20h43.04.882,empathy_intonation_perc,2024.2.4,Win32,60.60606061,5e70636370147a63fecbdea3,687ed1b7e638a4cbf2f02089,68802ff282e6d7ec14192327,,,,,,,,,,,,,,1,,,,,,,,,,,,,,,,,,,,,,,,,,,,,,,,,,,,,,,,,,,,,,,,,,,,,,,,,65,bizcocho,,,,,565.2374,566.4707,1,1,0.7219,,0,6,6,64,1,REAL,FAKE,,,,,,,,,,,,,,,,,
,,,,,,,,,5e70636370147a63fecbdea3,Mexican,13 or older,"no, only English or Spanish",yes,2025-07-22_20h43.04.882,empathy_intonation_perc,2024.2.4,Win32,60.60606061,5e70636370147a63fecbdea3,687ed1b7e638a4cbf2f02089,68802ff282e6d7ec14192327,,,,,,,,,,,,,,0,,,,,,,,,,,,,,,,,,,,,,,,,,,,,,,,,,,,,,,,,,,,,,,,,,,,,,,,,84,escuto,,,,,566.4718,569.1725,0,1,2.1633,,0,7,7,83,1,REAL,FAKE,,,,,,,,,,,,,,,,,
,,,,,,,,,5e70636370147a63fecbdea3,Mexican,13 or older,"no, only English or Spanish",yes,2025-07-22_20h43.04.882,empathy_intonation_perc,2024.2.4,Win32,60.60606061,5e70636370147a63fecbdea3,687ed1b7e638a4cbf2f02089,68802ff282e6d7ec14192327,,,,,,,,,,,,,,1,,,,,,,,,,,,,,,,,,,,,,,,,,,,,,,,,,,,,,,,,,,,,,,,,,,,,,,,,91,click the 1 key.,,,,,569.1746,570.9073,1,1,1.2012,,0,8,8,90,1,REAL,FAKE,,,,,,,,,,,,,,,,,
,,,,,,,,,5e70636370147a63fecbdea3,Mexican,13 or older,"no, only English or Spanish",yes,2025-07-22_20h43.04.882,empathy_intonation_perc,2024.2.4,Win32,60.60606061,5e70636370147a63fecbdea3,687ed1b7e638a4cbf2f02089,68802ff282e6d7ec14192327,,,,,,,,,,,,,,0,,,,,,,,,,,,,,,,,,,,,,,,,,,,,,,,,,,,,,,,,,,,,,,,,,,,,,,,,53,vegada,,,,,570.9088,573.226,0,1,1.8022,,0,9,9,52,1,REAL,FAKE,,,,,,,,,,,,,,,,,
,,,,,,,,,5e70636370147a63fecbdea3,Mexican,13 or older,"no, only English or Spanish",yes,2025-07-22_20h43.04.882,empathy_intonation_perc,2024.2.4,Win32,60.60606061,5e70636370147a63fecbdea3,687ed1b7e638a4cbf2f02089,68802ff282e6d7ec14192327,,,,,,,,,,,,,,1,,,,,,,,,,,,,,,,,,,,,,,,,,,,,,,,,,,,,,,,,,,,,,,,,,,,,,,,,54,fomentar,,,,,573.227,574.3936,1,1,0.6304,,0,10,10,53,1,REAL,FAKE,,,,,,,,,,,,,,,,,
,,,,,,,,,5e70636370147a63fecbdea3,Mexican,13 or older,"no, only English or Spanish",yes,2025-07-22_20h43.04.882,empathy_intonation_perc,2024.2.4,Win32,60.60606061,5e70636370147a63fecbdea3,687ed1b7e638a4cbf2f02089,68802ff282e6d7ec14192327,,,,,,,,,,,,,,0,,,,,,,,,,,,,,,,,,,,,,,,,,,,,,,,,,,,,,,,,,,,,,,,,,,,,,,,,72,pemición,,,,,574.3946,575.8282,0,1,0.9171,,0,11,11,71,1,REAL,FAKE,,,,,,,,,,,,,,,,,
,,,,,,,,,5e70636370147a63fecbdea3,Mexican,13 or older,"no, only English or Spanish",yes,2025-07-22_20h43.04.882,empathy_intonation_perc,2024.2.4,Win32,60.60606061,5e70636370147a63fecbdea3,687ed1b7e638a4cbf2f02089,68802ff282e6d7ec14192327,,,,,,,,,,,,,,0,,,,,,,,,,,,,,,,,,,,,,,,,,,,,,,,,,,,,,,,,,,,,,,,,,,,,,,,,35,rompido,,,,,575.8291,578.1301,0,1,1.7639,,0,12,12,34,1,REAL,FAKE,,,,,,,,,,,,,,,,,
,,,,,,,,,5e70636370147a63fecbdea3,Mexican,13 or older,"no, only English or Spanish",yes,2025-07-22_20h43.04.882,empathy_intonation_perc,2024.2.4,Win32,60.60606061,5e70636370147a63fecbdea3,687ed1b7e638a4cbf2f02089,68802ff282e6d7ec14192327,,,,,,,,,,,,,,1,,,,,,,,,,,,,,,,,,,,,,,,,,,,,,,,,,,,,,,,,,,,,,,,,,,,,,,,,75,yacer,,,,,578.1318,579.3979,1,1,0.7312,,0,13,13,74,1,REAL,FAKE,,,,,,,,,,,,,,,,,
,,,,,,,,,5e70636370147a63fecbdea3,Mexican,13 or older,"no, only English or Spanish",yes,2025-07-22_20h43.04.882,empathy_intonation_perc,2024.2.4,Win32,60.60606061,5e70636370147a63fecbdea3,687ed1b7e638a4cbf2f02089,68802ff282e6d7ec14192327,,,,,,,,,,,,,,1,,,,,,,,,,,,,,,,,,,,,,,,,,,,,,,,,,,,,,,,,,,,,,,,,,,,,,,,,24,látigo,,,,,579.3993,580.7156,1,1,0.7806,,0,14,14,23,1,REAL,FAKE,,,,,,,,,,,,,,,,,
,,,,,,,,,5e70636370147a63fecbdea3,Mexican,13 or older,"no, only English or Spanish",yes,2025-07-22_20h43.04.882,empathy_intonation_perc,2024.2.4,Win32,60.60606061,5e70636370147a63fecbdea3,687ed1b7e638a4cbf2f02089,68802ff282e6d7ec14192327,,,,,,,,,,,,,,0,,,,,,,,,,,,,,,,,,,,,,,,,,,,,,,,,,,,,,,,,,,,,,,,,,,,,,,,,23,lampera,,,,,580.7167,582.5004,0,1,1.2646,,0,15,15,22,1,REAL,FAKE,,,,,,,,,,,,,,,,,
,,,,,,,,,5e70636370147a63fecbdea3,Mexican,13 or older,"no, only English or Spanish",yes,2025-07-22_20h43.04.882,empathy_intonation_perc,2024.2.4,Win32,60.60606061,5e70636370147a63fecbdea3,687ed1b7e638a4cbf2f02089,68802ff282e6d7ec14192327,,,,,,,,,,,,,,1,,,,,,,,,,,,,,,,,,,,,,,,,,,,,,,,,,,,,,,,,,,,,,,,,,,,,,,,,83,guante,,,,,582.5014,583.6518,1,1,0.629,,0,16,16,82,1,REAL,FAKE,,,,,,,,,,,,,,,,,
,,,,,,,,,5e70636370147a63fecbdea3,Mexican,13 or older,"no, only English or Spanish",yes,2025-07-22_20h43.04.882,empathy_intonation_perc,2024.2.4,Win32,60.60606061,5e70636370147a63fecbdea3,687ed1b7e638a4cbf2f02089,68802ff282e6d7ec14192327,,,,,,,,,,,,,,1,,,,,,,,,,,,,,,,,,,,,,,,,,,,,,,,,,,,,,,,,,,,,,,,,,,,,,,,,37,granuja,,,,,583.6536,585.4364,1,1,1.2504,,0,17,17,36,1,REAL,FAKE,,,,,,,,,,,,,,,,,
,,,,,,,,,5e70636370147a63fecbdea3,Mexican,13 or older,"no, only English or Spanish",yes,2025-07-22_20h43.04.882,empathy_intonation_perc,2024.2.4,Win32,60.60606061,5e70636370147a63fecbdea3,687ed1b7e638a4cbf2f02089,68802ff282e6d7ec14192327,,,,,,,,,,,,,,0,,,,,,,,,,,,,,,,,,,,,,,,,,,,,,,,,,,,,,,,,,,,,,,,,,,,,,,,,50,flamida,,,,,585.4374,586.7041,1,0,0.748,,0,18,18,49,1,REAL,FAKE,,,,,,,,,,,,,,,,,
,,,,,,,,,5e70636370147a63fecbdea3,Mexican,13 or older,"no, only English or Spanish",yes,2025-07-22_20h43.04.882,empathy_intonation_perc,2024.2.4,Win32,60.60606061,5e70636370147a63fecbdea3,687ed1b7e638a4cbf2f02089,68802ff282e6d7ec14192327,,,,,,,,,,,,,,1,,,,,,,,,,,,,,,,,,,,,,,,,,,,,,,,,,,,,,,,,,,,,,,,,,,,,,,,,6,tergiversar,,,,,586.7051,588.6395,1,1,1.4139,,0,19,19,5,1,REAL,FAKE,,,,,,,,,,,,,,,,,
,,,,,,,,,5e70636370147a63fecbdea3,Mexican,13 or older,"no, only English or Spanish",yes,2025-07-22_20h43.04.882,empathy_intonation_perc,2024.2.4,Win32,60.60606061,5e70636370147a63fecbdea3,687ed1b7e638a4cbf2f02089,68802ff282e6d7ec14192327,,,,,,,,,,,,,,0,,,,,,,,,,,,,,,,,,,,,,,,,,,,,,,,,,,,,,,,,,,,,,,,,,,,,,,,,10,antar,,,,,588.6407,590.4072,0,1,1.2304,,0,20,20,9,1,REAL,FAKE,,,,,,,,,,,,,,,,,
,,,,,,,,,5e70636370147a63fecbdea3,Mexican,13 or older,"no, only English or Spanish",yes,2025-07-22_20h43.04.882,empathy_intonation_perc,2024.2.4,Win32,60.60606061,5e70636370147a63fecbdea3,687ed1b7e638a4cbf2f02089,68802ff282e6d7ec14192327,,,,,,,,,,,,,,1,,,,,,,,,,,,,,,,,,,,,,,,,,,,,,,,,,,,,,,,,,,,,,,,,,,,,,,,,64,orgulloso,,,,,590.4082,591.5581,1,1,0.6303,,0,21,21,63,1,REAL,FAKE,,,,,,,,,,,,,,,,,
,,,,,,,,,5e70636370147a63fecbdea3,Mexican,13 or older,"no, only English or Spanish",yes,2025-07-22_20h43.04.882,empathy_intonation_perc,2024.2.4,Win32,60.60606061,5e70636370147a63fecbdea3,687ed1b7e638a4cbf2f02089,68802ff282e6d7ec14192327,,,,,,,,,,,,,,1,,,,,,,,,,,,,,,,,,,,,,,,,,,,,,,,,,,,,,,,,,,,,,,,,,,,,,,,,55,nevar,,,,,591.5592,592.9929,1,1,0.9209,,0,22,22,54,1,REAL,FAKE,,,,,,,,,,,,,,,,,
,,,,,,,,,5e70636370147a63fecbdea3,Mexican,13 or older,"no, only English or Spanish",yes,2025-07-22_20h43.04.882,empathy_intonation_perc,2024.2.4,Win32,60.60606061,5e70636370147a63fecbdea3,687ed1b7e638a4cbf2f02089,68802ff282e6d7ec14192327,,,,,,,,,,,,,,0,,,,,,,,,,,,,,,,,,,,,,,,,,,,,,,,,,,,,,,,,,,,,,,,,,,,,,,,,79,tropaje,,,,,592.9941,595.1281,1,0,1.5971,,0,23,23,78,1,REAL,FAKE,,,,,,,,,,,,,,,,,
,,,,,,,,,5e70636370147a63fecbdea3,Mexican,13 or older,"no, only English or Spanish",yes,2025-07-22_20h43.04.882,empathy_intonation_perc,2024.2.4,Win32,60.60606061,5e70636370147a63fecbdea3,687ed1b7e638a4cbf2f02089,68802ff282e6d7ec14192327,,,,,,,,,,,,,,1,,,,,,,,,,,,,,,,,,,,,,,,,,,,,,,,,,,,,,,,,,,,,,,,,,,,,,,,,52,camisa,,,,,595.1298,596.196,1,1,0.5295,,0,24,24,51,1,REAL,FAKE,,,,,,,,,,,,,,,,,
,,,,,,,,,5e70636370147a63fecbdea3,Mexican,13 or older,"no, only English or Spanish",yes,2025-07-22_20h43.04.882,empathy_intonation_perc,2024.2.4,Win32,60.60606061,5e70636370147a63fecbdea3,687ed1b7e638a4cbf2f02089,68802ff282e6d7ec14192327,,,,,,,,,,,,,,0,,,,,,,,,,,,,,,,,,,,,,,,,,,,,,,,,,,,,,,,,,,,,,,,,,,,,,,,,4,batillón,,,,,596.1974,597.2811,1,0,0.5556,,0,25,25,3,1,REAL,FAKE,,,,,,,,,,,,,,,,,
,,,,,,,,,5e70636370147a63fecbdea3,Mexican,13 or older,"no, only English or Spanish",yes,2025-07-22_20h43.04.882,empathy_intonation_perc,2024.2.4,Win32,60.60606061,5e70636370147a63fecbdea3,687ed1b7e638a4cbf2f02089,68802ff282e6d7ec14192327,,,,,,,,,,,,,,0,,,,,,,,,,,,,,,,,,,,,,,,,,,,,,,,,,,,,,,,,,,,,,,,,,,,,,,,,66,hacido,,,,,597.2821,599.0816,0,1,1.2643,,0,26,26,65,1,REAL,FAKE,,,,,,,,,,,,,,,,,
,,,,,,,,,5e70636370147a63fecbdea3,Mexican,13 or older,"no, only English or Spanish",yes,2025-07-22_20h43.04.882,empathy_intonation_perc,2024.2.4,Win32,60.60606061,5e70636370147a63fecbdea3,687ed1b7e638a4cbf2f02089,68802ff282e6d7ec14192327,,,,,,,,,,,,,,0,,,,,,,,,,,,,,,,,,,,,,,,,,,,,,,,,,,,,,,,,,,,,,,,,,,,,,,,,29,decar,,,,,599.0828,600.8994,0,1,1.2809,,0,27,27,28,1,REAL,FAKE,,,,,,,,,,,,,,,,,
,,,,,,,,,5e70636370147a63fecbdea3,Mexican,13 or older,"no, only English or Spanish",yes,2025-07-22_20h43.04.882,empathy_intonation_perc,2024.2.4,Win32,60.60606061,5e70636370147a63fecbdea3,687ed1b7e638a4cbf2f02089,68802ff282e6d7ec14192327,,,,,,,,,,,,,,0,,,,,,,,,,,,,,,,,,,,,,,,,,,,,,,,,,,,,,,,,,,,,,,,,,,,,,,,,70,temblo,,,,,600.9005,602.084,1,0,0.6673,,0,28,28,69,1,REAL,FAKE,,,,,,,,,,,,,,,,,
,,,,,,,,,5e70636370147a63fecbdea3,Mexican,13 or older,"no, only English or Spanish",yes,2025-07-22_20h43.04.882,empathy_intonation_perc,2024.2.4,Win32,60.60606061,5e70636370147a63fecbdea3,687ed1b7e638a4cbf2f02089,68802ff282e6d7ec14192327,,,,,,,,,,,,,,1,,,,,,,,,,,,,,,,,,,,,,,,,,,,,,,,,,,,,,,,,,,,,,,,,,,,,,,,,78,frondoso,,,,,602.0849,603.6519,0,0,1.0301,,0,29,29,77,1,REAL,FAKE,,,,,,,,,,,,,,,,,
,,,,,,,,,5e70636370147a63fecbdea3,Mexican,13 or older,"no, only English or Spanish",yes,2025-07-22_20h43.04.882,empathy_intonation_perc,2024.2.4,Win32,60.60606061,5e70636370147a63fecbdea3,687ed1b7e638a4cbf2f02089,68802ff282e6d7ec14192327,,,,,,,,,,,,,,0,,,,,,,,,,,,,,,,,,,,,,,,,,,,,,,,,,,,,,,,,,,,,,,,,,,,,,,,,42,cadallo,,,,,603.6528,605.1201,0,1,0.9549,,0,30,30,41,1,REAL,FAKE,,,,,,,,,,,,,,,,,
,,,,,,,,,5e70636370147a63fecbdea3,Mexican,13 or older,"no, only English or Spanish",yes,2025-07-22_20h43.04.882,empathy_intonation_perc,2024.2.4,Win32,60.60606061,5e70636370147a63fecbdea3,687ed1b7e638a4cbf2f02089,68802ff282e6d7ec14192327,,,,,,,,,,,,,,0,,,,,,,,,,,,,,,,,,,,,,,,,,,,,,,,,,,,,,,,,,,,,,,,,,,,,,,,,30,alardio,,,,,605.1213,606.7712,0,1,1.1193,,0,31,31,29,1,REAL,FAKE,,,,,,,,,,,,,,,,,
,,,,,,,,,5e70636370147a63fecbdea3,Mexican,13 or older,"no, only English or Spanish",yes,2025-07-22_20h43.04.882,empathy_intonation_perc,2024.2.4,Win32,60.60606061,5e70636370147a63fecbdea3,687ed1b7e638a4cbf2f02089,68802ff282e6d7ec14192327,,,,,,,,,,,,,,0,,,,,,,,,,,,,,,,,,,,,,,,,,,,,,,,,,,,,,,,,,,,,,,,,,,,,,,,,8,cadeña,,,,,606.7727,608.3392,1,0,1.0519,,0,32,32,7,1,REAL,FAKE,,,,,,,,,,,,,,,,,
,,,,,,,,,5e70636370147a63fecbdea3,Mexican,13 or older,"no, only English or Spanish",yes,2025-07-22_20h43.04.882,empathy_intonation_perc,2024.2.4,Win32,60.60606061,5e70636370147a63fecbdea3,687ed1b7e638a4cbf2f02089,68802ff282e6d7ec14192327,,,,,,,,,,,,,,1,,,,,,,,,,,,,,,,,,,,,,,,,,,,,,,,,,,,,,,,,,,,,,,,,,,,,,,,,51,candado,,,,,608.3403,609.5902,1,1,0.7322,,0,33,33,50,1,REAL,FAKE,,,,,,,,,,,,,,,,,
,,,,,,,,,5e70636370147a63fecbdea3,Mexican,13 or older,"no, only English or Spanish",yes,2025-07-22_20h43.04.882,empathy_intonation_perc,2024.2.4,Win32,60.60606061,5e70636370147a63fecbdea3,687ed1b7e638a4cbf2f02089,68802ff282e6d7ec14192327,,,,,,,,,,,,,,1,,,,,,,,,,,,,,,,,,,,,,,,,,,,,,,,,,,,,,,,,,,,,,,,,,,,,,,,,7,pésimo,,,,,609.5913,610.8914,1,1,0.7855,,0,34,34,6,1,REAL,FAKE,,,,,,,,,,,,,,,,,
,,,,,,,,,5e70636370147a63fecbdea3,Mexican,13 or older,"no, only English or Spanish",yes,2025-07-22_20h43.04.882,empathy_intonation_perc,2024.2.4,Win32,60.60606061,5e70636370147a63fecbdea3,687ed1b7e638a4cbf2f02089,68802ff282e6d7ec14192327,,,,,,,,,,,,,,1,,,,,,,,,,,,,,,,,,,,,,,,,,,,,,,,,,,,,,,,,,,,,,,,,,,,,,,,,49,ganar,,,,,610.8924,611.9756,1,1,0.5464,,0,35,35,48,1,REAL,FAKE,,,,,,,,,,,,,,,,,
,,,,,,,,,5e70636370147a63fecbdea3,Mexican,13 or older,"no, only English or Spanish",yes,2025-07-22_20h43.04.882,empathy_intonation_perc,2024.2.4,Win32,60.60606061,5e70636370147a63fecbdea3,687ed1b7e638a4cbf2f02089,68802ff282e6d7ec14192327,,,,,,,,,,,,,,1,,,,,,,,,,,,,,,,,,,,,,,,,,,,,,,,,,,,,,,,,,,,,,,,,,,,,,,,,44,cuchara,,,,,611.9766,613.2602,1,1,0.7622,,0,36,36,43,1,REAL,FAKE,,,,,,,,,,,,,,,,,
,,,,,,,,,5e70636370147a63fecbdea3,Mexican,13 or older,"no, only English or Spanish",yes,2025-07-22_20h43.04.882,empathy_intonation_perc,2024.2.4,Win32,60.60606061,5e70636370147a63fecbdea3,687ed1b7e638a4cbf2f02089,68802ff282e6d7ec14192327,,,,,,,,,,,,,,1,,,,,,,,,,,,,,,,,,,,,,,,,,,,,,,,,,,,,,,,,,,,,,,,,,,,,,,,,67,cabello,,,,,613.262,614.5279,1,1,0.7308,,0,37,37,66,1,REAL,FAKE,,,,,,,,,,,,,,,,,
,,,,,,,,,5e70636370147a63fecbdea3,Mexican,13 or older,"no, only English or Spanish",yes,2025-07-22_20h43.04.882,empathy_intonation_perc,2024.2.4,Win32,60.60606061,5e70636370147a63fecbdea3,687ed1b7e638a4cbf2f02089,68802ff282e6d7ec14192327,,,,,,,,,,,,,,1,,,,,,,,,,,,,,,,,,,,,,,,,,,,,,,,,,,,,,,,,,,,,,,,,,,,,,,,,3,pulmones,,,,,614.5291,615.8455,1,1,0.7796,,0,38,38,2,1,REAL,FAKE,,,,,,,,,,,,,,,,,
,,,,,,,,,5e70636370147a63fecbdea3,Mexican,13 or older,"no, only English or Spanish",yes,2025-07-22_20h43.04.882,empathy_intonation_perc,2024.2.4,Win32,60.60606061,5e70636370147a63fecbdea3,687ed1b7e638a4cbf2f02089,68802ff282e6d7ec14192327,,,,,,,,,,,,,,0,,,,,,,,,,,,,,,,,,,,,,,,,,,,,,,,,,,,,,,,,,,,,,,,,,,,,,,,,17,floroso,,,,,615.8465,617.03,1,0,0.6636,,0,39,39,16,1,REAL,FAKE,,,,,,,,,,,,,,,,,
,,,,,,,,,5e70636370147a63fecbdea3,Mexican,13 or older,"no, only English or Spanish",yes,2025-07-22_20h43.04.882,empathy_intonation_perc,2024.2.4,Win32,60.60606061,5e70636370147a63fecbdea3,687ed1b7e638a4cbf2f02089,68802ff282e6d7ec14192327,,,,,,,,,,,,,,1,,,,,,,,,,,,,,,,,,,,,,,,,,,,,,,,,,,,,,,,,,,,,,,,,,,,,,,,,85,laúd,,,,,617.0316,618.9482,0,0,1.385,,0,40,40,84,1,REAL,FAKE,,,,,,,,,,,,,,,,,
,,,,,,,,,5e70636370147a63fecbdea3,Mexican,13 or older,"no, only English or Spanish",yes,2025-07-22_20h43.04.882,empathy_intonation_perc,2024.2.4,Win32,60.60606061,5e70636370147a63fecbdea3,687ed1b7e638a4cbf2f02089,68802ff282e6d7ec14192327,,,,,,,,,,,,,,0,,,,,,,,,,,,,,,,,,,,,,,,,,,,,,,,,,,,,,,,,,,,,,,,,,,,,,,,,32,fatacidad,,,,,618.9493,620.6998,0,1,1.232,,0,41,41,31,1,REAL,FAKE,,,,,,,,,,,,,,,,,
,,,,,,,,,5e70636370147a63fecbdea3,Mexican,13 or older,"no, only English or Spanish",yes,2025-07-22_20h43.04.882,empathy_intonation_perc,2024.2.4,Win32,60.60606061,5e70636370147a63fecbdea3,687ed1b7e638a4cbf2f02089,68802ff282e6d7ec14192327,,,,,,,,,,,,,,1,,,,,,,,,,,,,,,,,,,,,,,,,,,,,,,,,,,,,,,,,,,,,,,,,,,,,,,,,26,secuestro,,,,,620.7008,621.8008,1,1,0.5869,,0,42,42,25,1,REAL,FAKE,,,,,,,,,,,,,,,,,
,,,,,,,,,5e70636370147a63fecbdea3,Mexican,13 or older,"no, only English or Spanish",yes,2025-07-22_20h43.04.882,empathy_intonation_perc,2024.2.4,Win32,60.60606061,5e70636370147a63fecbdea3,687ed1b7e638a4cbf2f02089,68802ff282e6d7ec14192327,,,,,,,,,,,,,,1,,,,,,,,,,,,,,,,,,,,,,,,,,,,,,,,,,,,,,,,,,,,,,,,,,,,,,,,,15,regar,,,,,621.802,623.4187,1,1,1.0863,,0,43,43,14,1,REAL,FAKE,,,,,,,,,,,,,,,,,
,,,,,,,,,5e70636370147a63fecbdea3,Mexican,13 or older,"no, only English or Spanish",yes,2025-07-22_20h43.04.882,empathy_intonation_perc,2024.2.4,Win32,60.60606061,5e70636370147a63fecbdea3,687ed1b7e638a4cbf2f02089,68802ff282e6d7ec14192327,,,,,,,,,,,,,,1,,,,,,,,,,,,,,,,,,,,,,,,,,,,,,,,,,,,,,,,,,,,,,,,,,,,,,,,,36,loro,,,,,623.4197,624.6698,1,1,0.7133,,0,44,44,35,1,REAL,FAKE,,,,,,,,,,,,,,,,,
,,,,,,,,,5e70636370147a63fecbdea3,Mexican,13 or older,"no, only English or Spanish",yes,2025-07-22_20h43.04.882,empathy_intonation_perc,2024.2.4,Win32,60.60606061,5e70636370147a63fecbdea3,687ed1b7e638a4cbf2f02089,68802ff282e6d7ec14192327,,,,,,,,,,,,,,0,,,,,,,,,,,,,,,,,,,,,,,,,,,,,,,,,,,,,,,,,,,,,,,,,,,,,,,,,19,brecedad,,,,,624.672,625.854,0,1,0.6618,,0,45,45,18,1,REAL,FAKE,,,,,,,,,,,,,,,,,
,,,,,,,,,5e70636370147a63fecbdea3,Mexican,13 or older,"no, only English or Spanish",yes,2025-07-22_20h43.04.882,empathy_intonation_perc,2024.2.4,Win32,60.60606061,5e70636370147a63fecbdea3,687ed1b7e638a4cbf2f02089,68802ff282e6d7ec14192327,,,,,,,,,,,,,,1,,,,,,,,,,,,,,,,,,,,,,,,,,,,,,,,,,,,,,,,,,,,,,,,,,,,,,,,,5,zapato,,,,,625.8554,626.9219,1,1,0.5539,,0,46,46,4,1,REAL,FAKE,,,,,,,,,,,,,,,,,
,,,,,,,,,5e70636370147a63fecbdea3,Mexican,13 or older,"no, only English or Spanish",yes,2025-07-22_20h43.04.882,empathy_intonation_perc,2024.2.4,Win32,60.60606061,5e70636370147a63fecbdea3,687ed1b7e638a4cbf2f02089,68802ff282e6d7ec14192327,,,,,,,,,,,,,,0,,,,,,,,,,,,,,,,,,,,,,,,,,,,,,,,,,,,,,,,,,,,,,,,,,,,,,,,,58,plaudir,,,,,626.9231,628.2895,1,0,0.8533,,0,47,47,57,1,REAL,FAKE,,,,,,,,,,,,,,,,,
,,,,,,,,,5e70636370147a63fecbdea3,Mexican,13 or older,"no, only English or Spanish",yes,2025-07-22_20h43.04.882,empathy_intonation_perc,2024.2.4,Win32,60.60606061,5e70636370147a63fecbdea3,687ed1b7e638a4cbf2f02089,68802ff282e6d7ec14192327,,,,,,,,,,,,,,1,,,,,,,,,,,,,,,,,,,,,,,,,,,,,,,,,,,,,,,,,,,,,,,,,,,,,,,,,73,hervidor,,,,,628.2907,629.6907,1,1,0.8852,,0,48,48,72,1,REAL,FAKE,,,,,,,,,,,,,,,,,
,,,,,,,,,5e70636370147a63fecbdea3,Mexican,13 or older,"no, only English or Spanish",yes,2025-07-22_20h43.04.882,empathy_intonation_perc,2024.2.4,Win32,60.60606061,5e70636370147a63fecbdea3,687ed1b7e638a4cbf2f02089,68802ff282e6d7ec14192327,,,,,,,,,,,,,,1,,,,,,,,,,,,,,,,,,,,,,,,,,,,,,,,,,,,,,,,,,,,,,,,,,,,,,,,,76,atar,,,,,629.6918,630.825,1,1,0.5975,,0,49,49,75,1,REAL,FAKE,,,,,,,,,,,,,,,,,
,,,,,,,,,5e70636370147a63fecbdea3,Mexican,13 or older,"no, only English or Spanish",yes,2025-07-22_20h43.04.882,empathy_intonation_perc,2024.2.4,Win32,60.60606061,5e70636370147a63fecbdea3,687ed1b7e638a4cbf2f02089,68802ff282e6d7ec14192327,,,,,,,,,,,,,,0,,,,,,,,,,,,,,,,,,,,,,,,,,,,,,,,,,,,,,,,,,,,,,,,,,,,,,,,,21,capillo,,,,,630.826,632.243,1,0,0.8801,,0,50,50,20,1,REAL,FAKE,,,,,,,,,,,,,,,,,
,,,,,,,,,5e70636370147a63fecbdea3,Mexican,13 or older,"no, only English or Spanish",yes,2025-07-22_20h43.04.882,empathy_intonation_perc,2024.2.4,Win32,60.60606061,5e70636370147a63fecbdea3,687ed1b7e638a4cbf2f02089,68802ff282e6d7ec14192327,,,,,,,,,,,,,,0,,,,,,,,,,,,,,,,,,,,,,,,,,,,,,,,,,,,,,,,,,,,,,,,,,,,,,,,,63,esposante,,,,,632.2441,633.7945,1,0,1.0324,,0,51,51,62,1,REAL,FAKE,,,,,,,,,,,,,,,,,
,,,,,,,,,5e70636370147a63fecbdea3,Mexican,13 or older,"no, only English or Spanish",yes,2025-07-22_20h43.04.882,empathy_intonation_perc,2024.2.4,Win32,60.60606061,5e70636370147a63fecbdea3,687ed1b7e638a4cbf2f02089,68802ff282e6d7ec14192327,,,,,,,,,,,,,,1,,,,,,,,,,,,,,,,,,,,,,,,,,,,,,,,,,,,,,,,,,,,,,,,,,,,,,,,,20,ávido,,,,,633.7957,635.0121,1,1,0.6863,,0,52,52,19,1,REAL,FAKE,,,,,,,,,,,,,,,,,
,,,,,,,,,5e70636370147a63fecbdea3,Mexican,13 or older,"no, only English or Spanish",yes,2025-07-22_20h43.04.882,empathy_intonation_perc,2024.2.4,Win32,60.60606061,5e70636370147a63fecbdea3,687ed1b7e638a4cbf2f02089,68802ff282e6d7ec14192327,,,,,,,,,,,,,,1,,,,,,,,,,,,,,,,,,,,,,,,,,,,,,,,,,,,,,,,,,,,,,,,,,,,,,,,,22,lacayo,,,,,635.0132,636.33,0,0,0.781,,0,53,53,21,1,REAL,FAKE,,,,,,,,,,,,,,,,,
,,,,,,,,,5e70636370147a63fecbdea3,Mexican,13 or older,"no, only English or Spanish",yes,2025-07-22_20h43.04.882,empathy_intonation_perc,2024.2.4,Win32,60.60606061,5e70636370147a63fecbdea3,687ed1b7e638a4cbf2f02089,68802ff282e6d7ec14192327,,,,,,,,,,,,,,0,,,,,,,,,,,,,,,,,,,,,,,,,,,,,,,,,,,,,,,,,,,,,,,,,,,,,,,,,18,arsa,,,,,636.3314,637.464,0,1,0.5975,,0,54,54,17,1,REAL,FAKE,,,,,,,,,,,,,,,,,
,,,,,,,,,5e70636370147a63fecbdea3,Mexican,13 or older,"no, only English or Spanish",yes,2025-07-22_20h43.04.882,empathy_intonation_perc,2024.2.4,Win32,60.60606061,5e70636370147a63fecbdea3,687ed1b7e638a4cbf2f02089,68802ff282e6d7ec14192327,,,,,,,,,,,,,,1,,,,,,,,,,,,,,,,,,,,,,,,,,,,,,,,,,,,,,,,,,,,,,,,,,,,,,,,,31,pandilla,,,,,637.465,638.5816,1,1,0.5961,,0,55,55,30,1,REAL,FAKE,,,,,,,,,,,,,,,,,
,,,,,,,,,5e70636370147a63fecbdea3,Mexican,13 or older,"no, only English or Spanish",yes,2025-07-22_20h43.04.882,empathy_intonation_perc,2024.2.4,Win32,60.60606061,5e70636370147a63fecbdea3,687ed1b7e638a4cbf2f02089,68802ff282e6d7ec14192327,,,,,,,,,,,,,,1,,,,,,,,,,,,,,,,,,,,,,,,,,,,,,,,,,,,,,,,,,,,,,,,,,,,,,,,,71,polvoriento,,,,,638.5827,639.9833,0,0,0.8797,,0,56,56,70,1,REAL,FAKE,,,,,,,,,,,,,,,,,
,,,,,,,,,5e70636370147a63fecbdea3,Mexican,13 or older,"no, only English or Spanish",yes,2025-07-22_20h43.04.882,empathy_intonation_perc,2024.2.4,Win32,60.60606061,5e70636370147a63fecbdea3,687ed1b7e638a4cbf2f02089,68802ff282e6d7ec14192327,,,,,,,,,,,,,,1,,,,,,,,,,,,,,,,,,,,,,,,,,,,,,,,,,,,,,,,,,,,,,,,,,,,,,,,,88,acantilado,,,,,639.9844,641.5341,1,1,1.0137,,0,57,57,87,1,REAL,FAKE,,,,,,,,,,,,,,,,,
,,,,,,,,,5e70636370147a63fecbdea3,Mexican,13 or older,"no, only English or Spanish",yes,2025-07-22_20h43.04.882,empathy_intonation_perc,2024.2.4,Win32,60.60606061,5e70636370147a63fecbdea3,687ed1b7e638a4cbf2f02089,68802ff282e6d7ec14192327,,,,,,,,,,,,,,1,,,,,,,,,,,,,,,,,,,,,,,,,,,,,,,,,,,,,,,,,,,,,,,,,,,,,,,,,28,merodear,,,,,641.5351,642.7519,1,1,0.6986,,0,58,58,27,1,REAL,FAKE,,,,,,,,,,,,,,,,,
,,,,,,,,,5e70636370147a63fecbdea3,Mexican,13 or older,"no, only English or Spanish",yes,2025-07-22_20h43.04.882,empathy_intonation_perc,2024.2.4,Win32,60.60606061,5e70636370147a63fecbdea3,687ed1b7e638a4cbf2f02089,68802ff282e6d7ec14192327,,,,,,,,,,,,,,1,,,,,,,,,,,,,,,,,,,,,,,,,,,,,,,,,,,,,,,,,,,,,,,,,,,,,,,,,48,ladrón,,,,,642.7529,643.8861,1,1,0.616,,0,59,59,47,1,REAL,FAKE,,,,,,,,,,,,,,,,,
,,,,,,,,,5e70636370147a63fecbdea3,Mexican,13 or older,"no, only English or Spanish",yes,2025-07-22_20h43.04.882,empathy_intonation_perc,2024.2.4,Win32,60.60606061,5e70636370147a63fecbdea3,687ed1b7e638a4cbf2f02089,68802ff282e6d7ec14192327,,,,,,,,,,,,,,1,,,,,,,,,,,,,,,,,,,,,,,,,,,,,,,,,,,,,,,,,,,,,,,,,,,,,,,,,40,alfombra,,,,,643.8872,645.0038,1,1,0.6024,,0,60,60,39,1,REAL,FAKE,,,,,,,,,,,,,,,,,
,,,,,,,,,5e70636370147a63fecbdea3,Mexican,13 or older,"no, only English or Spanish",yes,2025-07-22_20h43.04.882,empathy_intonation_perc,2024.2.4,Win32,60.60606061,5e70636370147a63fecbdea3,687ed1b7e638a4cbf2f02089,68802ff282e6d7ec14192327,,,,,,,,,,,,,,0,,,,,,,,,,,,,,,,,,,,,,,,,,,,,,,,,,,,,,,,,,,,,,,,,,,,,,,,,1,terzo,,,,,645.0047,646.4383,1,0,0.9169,,0,61,61,0,1,REAL,FAKE,,,,,,,,,,,,,,,,,
,,,,,,,,,5e70636370147a63fecbdea3,Mexican,13 or older,"no, only English or Spanish",yes,2025-07-22_20h43.04.882,empathy_intonation_perc,2024.2.4,Win32,60.60606061,5e70636370147a63fecbdea3,687ed1b7e638a4cbf2f02089,68802ff282e6d7ec14192327,,,,,,,,,,,,,,1,,,,,,,,,,,,,,,,,,,,,,,,,,,,,,,,,,,,,,,,,,,,,,,,,,,,,,,,,80,hormiga,,,,,646.4392,647.5226,1,1,0.5692,,0,62,62,79,1,REAL,FAKE,,,,,,,,,,,,,,,,,
,,,,,,,,,5e70636370147a63fecbdea3,Mexican,13 or older,"no, only English or Spanish",yes,2025-07-22_20h43.04.882,empathy_intonation_perc,2024.2.4,Win32,60.60606061,5e70636370147a63fecbdea3,687ed1b7e638a4cbf2f02089,68802ff282e6d7ec14192327,,,,,,,,,,,,,,1,,,,,,,,,,,,,,,,,,,,,,,,,,,,,,,,,,,,,,,,,,,,,,,,,,,,,,,,,38,estornudar,,,,,647.5238,648.6568,1,1,0.6137,,0,63,63,37,1,REAL,FAKE,,,,,,,,,,,,,,,,,
,,,,,,,,,5e70636370147a63fecbdea3,Mexican,13 or older,"no, only English or Spanish",yes,2025-07-22_20h43.04.882,empathy_intonation_perc,2024.2.4,Win32,60.60606061,5e70636370147a63fecbdea3,687ed1b7e638a4cbf2f02089,68802ff282e6d7ec14192327,,,,,,,,,,,,,,1,,,,,,,,,,,,,,,,,,,,,,,,,,,,,,,,,,,,,,,,,,,,,,,,,,,,,,,,,57,tacaño,,,,,648.6579,649.9579,1,1,0.7828,,0,64,64,56,1,REAL,FAKE,,,,,,,,,,,,,,,,,
,,,,,,,,,5e70636370147a63fecbdea3,Mexican,13 or older,"no, only English or Spanish",yes,2025-07-22_20h43.04.882,empathy_intonation_perc,2024.2.4,Win32,60.60606061,5e70636370147a63fecbdea3,687ed1b7e638a4cbf2f02089,68802ff282e6d7ec14192327,,,,,,,,,,,,,,1,,,,,,,,,,,,,,,,,,,,,,,,,,,,,,,,,,,,,,,,,,,,,,,,,,,,,,,,,46,martillo,,,,,649.9589,651.0256,1,1,0.5535,,0,65,65,45,1,REAL,FAKE,,,,,,,,,,,,,,,,,
,,,,,,,,,5e70636370147a63fecbdea3,Mexican,13 or older,"no, only English or Spanish",yes,2025-07-22_20h43.04.882,empathy_intonation_perc,2024.2.4,Win32,60.60606061,5e70636370147a63fecbdea3,687ed1b7e638a4cbf2f02089,68802ff282e6d7ec14192327,,,,,,,,,,,,,,0,,,,,,,,,,,,,,,,,,,,,,,,,,,,,,,,,,,,,,,,,,,,,,,,,,,,,,,,,33,pauca,,,,,651.0267,652.7103,0,1,1.1629,,0,66,66,32,1,REAL,FAKE,,,,,,,,,,,,,,,,,
,,,,,,,,,5e70636370147a63fecbdea3,Mexican,13 or older,"no, only English or Spanish",yes,2025-07-22_20h43.04.882,empathy_intonation_perc,2024.2.4,Win32,60.60606061,5e70636370147a63fecbdea3,687ed1b7e638a4cbf2f02089,68802ff282e6d7ec14192327,,,,,,,,,,,,,,1,,,,,,,,,,,,,,,,,,,,,,,,,,,,,,,,,,,,,,,,,,,,,,,,,,,,,,,,,60,matar,,,,,652.7114,653.778,1,1,0.5457,,0,67,67,59,1,REAL,FAKE,,,,,,,,,,,,,,,,,
,,,,,,,,,5e70636370147a63fecbdea3,Mexican,13 or older,"no, only English or Spanish",yes,2025-07-22_20h43.04.882,empathy_intonation_perc,2024.2.4,Win32,60.60606061,5e70636370147a63fecbdea3,687ed1b7e638a4cbf2f02089,68802ff282e6d7ec14192327,,,,,,,,,,,,,,1,,,,,,,,,,,,,,,,,,,,,,,,,,,,,,,,,,,,,,,,,,,,,,,,,,,,,,,,,25,bisagra,,,,,653.7795,655.1458,1,1,0.8307,,0,68,68,24,1,REAL,FAKE,,,,,,,,,,,,,,,,,
,,,,,,,,,5e70636370147a63fecbdea3,Mexican,13 or older,"no, only English or Spanish",yes,2025-07-22_20h43.04.882,empathy_intonation_perc,2024.2.4,Win32,60.60606061,5e70636370147a63fecbdea3,687ed1b7e638a4cbf2f02089,68802ff282e6d7ec14192327,,,,,,,,,,,,,,1,,,,,,,,,,,,,,,,,,,,,,,,,,,,,,,,,,,,,,,,,,,,,,,,,,,,,,,,,12,asesinato,,,,,655.1467,656.2466,1,1,0.5622,,0,69,69,11,1,REAL,FAKE,,,,,,,,,,,,,,,,,
,,,,,,,,,5e70636370147a63fecbdea3,Mexican,13 or older,"no, only English or Spanish",yes,2025-07-22_20h43.04.882,empathy_intonation_perc,2024.2.4,Win32,60.60606061,5e70636370147a63fecbdea3,687ed1b7e638a4cbf2f02089,68802ff282e6d7ec14192327,,,,,,,,,,,,,,1,,,,,,,,,,,,,,,,,,,,,,,,,,,,,,,,,,,,,,,,,,,,,,,,,,,,,,,,,62,flaco,,,,,656.2476,657.3976,1,1,0.6129,,0,70,70,61,1,REAL,FAKE,,,,,,,,,,,,,,,,,
,,,,,,,,,5e70636370147a63fecbdea3,Mexican,13 or older,"no, only English or Spanish",yes,2025-07-22_20h43.04.882,empathy_intonation_perc,2024.2.4,Win32,60.60606061,5e70636370147a63fecbdea3,687ed1b7e638a4cbf2f02089,68802ff282e6d7ec14192327,,,,,,,,,,,,,,1,,,,,,,,,,,,,,,,,,,,,,,,,,,,,,,,,,,,,,,,,,,,,,,,,,,,,,,,,68,alegre,,,,,657.3986,658.3985,1,1,0.4786,,0,71,71,67,1,REAL,FAKE,,,,,,,,,,,,,,,,,
,,,,,,,,,5e70636370147a63fecbdea3,Mexican,13 or older,"no, only English or Spanish",yes,2025-07-22_20h43.04.882,empathy_intonation_perc,2024.2.4,Win32,60.60606061,5e70636370147a63fecbdea3,687ed1b7e638a4cbf2f02089,68802ff282e6d7ec14192327,,,,,,,,,,,,,,0,,,,,,,,,,,,,,,,,,,,,,,,,,,,,,,,,,,,,,,,,,,,,,,,,,,,,,,,,92,click the 0 key.,,,,,658.3996,659.7663,0,1,0.829,,0,72,72,91,1,REAL,FAKE,,,,,,,,,,,,,,,,,
,,,,,,,,,5e70636370147a63fecbdea3,Mexican,13 or older,"no, only English or Spanish",yes,2025-07-22_20h43.04.882,empathy_intonation_perc,2024.2.4,Win32,60.60606061,5e70636370147a63fecbdea3,687ed1b7e638a4cbf2f02089,68802ff282e6d7ec14192327,,,,,,,,,,,,,,1,,,,,,,,,,,,,,,,,,,,,,,,,,,,,,,,,,,,,,,,,,,,,,,,,,,,,,,,,34,aviso,,,,,659.7673,661.3009,1,1,0.997,,0,73,73,33,1,REAL,FAKE,,,,,,,,,,,,,,,,,
,,,,,,,,,5e70636370147a63fecbdea3,Mexican,13 or older,"no, only English or Spanish",yes,2025-07-22_20h43.04.882,empathy_intonation_perc,2024.2.4,Win32,60.60606061,5e70636370147a63fecbdea3,687ed1b7e638a4cbf2f02089,68802ff282e6d7ec14192327,,,,,,,,,,,,,,1,,,,,,,,,,,,,,,,,,,,,,,,,,,,,,,,,,,,,,,,,,,,,,,,,,,,,,,,,2,pellizcar,,,,,661.3019,662.6689,0,0,0.8464,,0,74,74,1,1,REAL,FAKE,,,,,,,,,,,,,,,,,
,,,,,,,,,5e70636370147a63fecbdea3,Mexican,13 or older,"no, only English or Spanish",yes,2025-07-22_20h43.04.882,empathy_intonation_perc,2024.2.4,Win32,60.60606061,5e70636370147a63fecbdea3,687ed1b7e638a4cbf2f02089,68802ff282e6d7ec14192327,,,,,,,,,,,,,,1,,,,,,,,,,,,,,,,,,,,,,,,,,,,,,,,,,,,,,,,,,,,,,,,,,,,,,,,,43,canela,,,,,662.6702,664.1035,1,1,0.8997,,0,75,75,42,1,REAL,FAKE,,,,,,,,,,,,,,,,,
,,,,,,,,,5e70636370147a63fecbdea3,Mexican,13 or older,"no, only English or Spanish",yes,2025-07-22_20h43.04.882,empathy_intonation_perc,2024.2.4,Win32,60.60606061,5e70636370147a63fecbdea3,687ed1b7e638a4cbf2f02089,68802ff282e6d7ec14192327,,,,,,,,,,,,,,1,,,,,,,,,,,,,,,,,,,,,,,,,,,,,,,,,,,,,,,,,,,,,,,,,,,,,,,,,81,pozo,,,,,664.1051,665.2544,1,1,0.6167,,0,76,76,80,1,REAL,FAKE,,,,,,,,,,,,,,,,,
,,,,,,,,,5e70636370147a63fecbdea3,Mexican,13 or older,"no, only English or Spanish",yes,2025-07-22_20h43.04.882,empathy_intonation_perc,2024.2.4,Win32,60.60606061,5e70636370147a63fecbdea3,687ed1b7e638a4cbf2f02089,68802ff282e6d7ec14192327,,,,,,,,,,,,,,1,,,,,,,,,,,,,,,,,,,,,,,,,,,,,,,,,,,,,,,,,,,,,,,,,,,,,,,,,45,jilguero,,,,,665.2562,666.8058,0,0,1.0347,,0,77,77,44,1,REAL,FAKE,,,,,,,,,,,,,,,,,
,,,,,,,,,5e70636370147a63fecbdea3,Mexican,13 or older,"no, only English or Spanish",yes,2025-07-22_20h43.04.882,empathy_intonation_perc,2024.2.4,Win32,60.60606061,5e70636370147a63fecbdea3,687ed1b7e638a4cbf2f02089,68802ff282e6d7ec14192327,,,,,,,,,,,,,,1,,,,,,,,,,,,,,,,,,,,,,,,,,,,,,,,,,,,,,,,,,,,,,,,,,,,,,,,,90,clavel,,,,,666.8067,668.4071,0,0,1.0661,,0,78,78,89,1,REAL,FAKE,,,,,,,,,,,,,,,,,
,,,,,,,,,5e70636370147a63fecbdea3,Mexican,13 or older,"no, only English or Spanish",yes,2025-07-22_20h43.04.882,empathy_intonation_perc,2024.2.4,Win32,60.60606061,5e70636370147a63fecbdea3,687ed1b7e638a4cbf2f02089,68802ff282e6d7ec14192327,,,,,,,,,,,,,,1,,,,,,,,,,,,,,,,,,,,,,,,,,,,,,,,,,,,,,,,,,,,,,,,,,,,,,,,,86,barato,,,,,668.4085,669.5746,1,1,0.6446,,0,79,79,85,1,REAL,FAKE,,,,,,,,,,,,,,,,,
,,,,,,,,,5e70636370147a63fecbdea3,Mexican,13 or older,"no, only English or Spanish",yes,2025-07-22_20h43.04.882,empathy_intonation_perc,2024.2.4,Win32,60.60606061,5e70636370147a63fecbdea3,687ed1b7e638a4cbf2f02089,68802ff282e6d7ec14192327,,,,,,,,,,,,,,1,,,,,,,,,,,,,,,,,,,,,,,,,,,,,,,,,,,,,,,,,,,,,,,,,,,,,,,,,14,yunque,,,,,669.5757,670.9592,1,1,0.8473,,0,80,80,13,1,REAL,FAKE,,,,,,,,,,,,,,,,,
,,,,,,,,,5e70636370147a63fecbdea3,Mexican,13 or older,"no, only English or Spanish",yes,2025-07-22_20h43.04.882,empathy_intonation_perc,2024.2.4,Win32,60.60606061,5e70636370147a63fecbdea3,687ed1b7e638a4cbf2f02089,68802ff282e6d7ec14192327,,,,,,,,,,,,,,0,,,,,,,,,,,,,,,,,,,,,,,,,,,,,,,,,,,,,,,,,,,,,,,,,,,,,,,,,82,empirador,,,,,670.96,672.0438,1,0,0.5613,,0,81,81,81,1,REAL,FAKE,,,,,,,,,,,,,,,,,
,,,,,,,,,5e70636370147a63fecbdea3,Mexican,13 or older,"no, only English or Spanish",yes,2025-07-22_20h43.04.882,empathy_intonation_perc,2024.2.4,Win32,60.60606061,5e70636370147a63fecbdea3,687ed1b7e638a4cbf2f02089,68802ff282e6d7ec14192327,,,,,,,,,,,,,,0,,,,,,,,,,,,,,,,,,,,,,,,,,,,,,,,,,,,,,,,,,,,,,,,,,,,,,,,,87,grodo,,,,,672.0454,673.428,0,1,0.8488,,0,82,82,86,1,REAL,FAKE,,,,,,,,,,,,,,,,,
,,,,,,,,,5e70636370147a63fecbdea3,Mexican,13 or older,"no, only English or Spanish",yes,2025-07-22_20h43.04.882,empathy_intonation_perc,2024.2.4,Win32,60.60606061,5e70636370147a63fecbdea3,687ed1b7e638a4cbf2f02089,68802ff282e6d7ec14192327,,,,,,,,,,,,,,1,,,,,,,,,,,,,,,,,,,,,,,,,,,,,,,,,,,,,,,,,,,,,,,,,,,,,,,,,11,cenefa,,,,,673.4288,674.6623,0,0,0.7131,,0,83,83,10,1,REAL,FAKE,,,,,,,,,,,,,,,,,
,,,,,,,,,5e70636370147a63fecbdea3,Mexican,13 or older,"no, only English or Spanish",yes,2025-07-22_20h43.04.882,empathy_intonation_perc,2024.2.4,Win32,60.60606061,5e70636370147a63fecbdea3,687ed1b7e638a4cbf2f02089,68802ff282e6d7ec14192327,,,,,,,,,,,,,,0,,,,,,,,,,,,,,,,,,,,,,,,,,,,,,,,,,,,,,,,,,,,,,,,,,,,,,,,,74,cintro,,,,,674.664,676.1136,0,1,0.9304,,0,84,84,73,1,REAL,FAKE,,,,,,,,,,,,,,,,,
,,,,,,,,,5e70636370147a63fecbdea3,Mexican,13 or older,"no, only English or Spanish",yes,2025-07-22_20h43.04.882,empathy_intonation_perc,2024.2.4,Win32,60.60606061,5e70636370147a63fecbdea3,687ed1b7e638a4cbf2f02089,68802ff282e6d7ec14192327,,,,,,,,,,,,,,1,,,,,,,,,,,,,,,,,,,,,,,,,,,,,,,,,,,,,,,,,,,,,,,,,,,,,,,,,9,hacha,,,,,676.1146,677.715,1,1,1.0872,,0,85,85,8,1,REAL,FAKE,,,,,,,,,,,,,,,,,
,,,,,,,,,5e70636370147a63fecbdea3,Mexican,13 or older,"no, only English or Spanish",yes,2025-07-22_20h43.04.882,empathy_intonation_perc,2024.2.4,Win32,60.60606061,5e70636370147a63fecbdea3,687ed1b7e638a4cbf2f02089,68802ff282e6d7ec14192327,,,,,,,,,,,,,,1,,,,,,,,,,,,,,,,,,,,,,,,,,,,,,,,,,,,,,,,,,,,,,,,,,,,,,,,,77,tiburón,,,,,677.7159,678.8326,1,1,0.5816,,0,86,86,76,1,REAL,FAKE,,,,,,,,,,,,,,,,,
,,,,,,,,,5e70636370147a63fecbdea3,Mexican,13 or older,"no, only English or Spanish",yes,2025-07-22_20h43.04.882,empathy_intonation_perc,2024.2.4,Win32,60.60606061,5e70636370147a63fecbdea3,687ed1b7e638a4cbf2f02089,68802ff282e6d7ec14192327,,,,,,,,,,,,,,1,,,,,,,,,,,,,,,,,,,,,,,,,,,,,,,,,,,,,,,,,,,,,,,,,,,,,,,,,61,seda,,,,,678.8341,680.1337,1,1,0.7677,,0,87,87,60,1,REAL,FAKE,,,,,,,,,,,,,,,,,
,,,,,,,,,5e70636370147a63fecbdea3,Mexican,13 or older,"no, only English or Spanish",yes,2025-07-22_20h43.04.882,empathy_intonation_perc,2024.2.4,Win32,60.60606061,5e70636370147a63fecbdea3,687ed1b7e638a4cbf2f02089,68802ff282e6d7ec14192327,,,,,,,,,,,,,,1,,,,,,,,,,,,,,,,,,,,,,,,,,,,,,,,,,,,,,,,,,,,,,,,,,,,,,,,,69,engatusar,,,,,680.1347,681.4848,0,0,0.8353,,0,88,88,68,1,REAL,FAKE,,,,,,,,,,,,,,,,,
,,,,,,,,,5e70636370147a63fecbdea3,Mexican,13 or older,"no, only English or Spanish",yes,2025-07-22_20h43.04.882,empathy_intonation_perc,2024.2.4,Win32,60.60606061,5e70636370147a63fecbdea3,687ed1b7e638a4cbf2f02089,68802ff282e6d7ec14192327,,,,,,,,,,,,,,1,,,,,,,,,,,,,,,,,,,,,,,,,,,,,,,,,,,,,,,,,,,,,,,,,,,,,,,,,56,musgo,,,,,681.4858,682.936,0,0,0.9323,,0,89,89,55,1,REAL,FAKE,,,,,,,,,,,,,,,,,
,,,,,,,,,5e70636370147a63fecbdea3,Mexican,13 or older,"no, only English or Spanish",yes,2025-07-22_20h43.04.882,empathy_intonation_perc,2024.2.4,Win32,60.60606061,5e70636370147a63fecbdea3,687ed1b7e638a4cbf2f02089,68802ff282e6d7ec14192327,,,,,,,,,,,,,,1,,,,,,,,,,,,,,,,,,,,,,,,,,,,,,,,,,,,,,,,,,,,,,,,,,,,,,,,,59,besar,,,,,682.9371,684.0537,1,1,0.6018,,0,90,90,58,1,REAL,FAKE,,,,,,,,,,,,,,,,,
,,,,,,,,,5e70636370147a63fecbdea3,Mexican,13 or older,"no, only English or Spanish",yes,2025-07-22_20h43.04.882,empathy_intonation_perc,2024.2.4,Win32,60.60606061,5e70636370147a63fecbdea3,687ed1b7e638a4cbf2f02089,68802ff282e6d7ec14192327,,,,,,,,,,,,,,0,,,,,,,,,,,,,,,,,,,,,,,,,,,,,,,,,,,,,,,,,,,,,,,,,,,,,,,,,47,cartinar,,,,,684.0547,685.4717,0,1,0.8968,,0,91,91,46,1,REAL,FAKE,,,,,,,,,,,,,,,,,
,,,,,,,,,5e70636370147a63fecbdea3,Mexican,13 or older,"no, only English or Spanish",yes,2025-07-22_20h43.04.882,empathy_intonation_perc,2024.2.4,Win32,60.60606061,5e70636370147a63fecbdea3,687ed1b7e638a4cbf2f02089,68802ff282e6d7ec14192327,,,,,,,,,,,,,,,,,,,,,,,,,,,,,,,,,,,,,,,,,,,,,,,,,,,,,,,,,,,,,,,,,,,,,,,,,,,,,,,,,,,,,,,,,,685.4724,691.994,,,,,,,,,,,,,,,
,,,,,,,,,5e70636370147a63fecbdea3,Mexican,13 or older,"no, only English or Spanish",yes,2025-07-22_20h43.04.882,empathy_intonation_perc,2024.2.4,Win32,60.60606061,5e70636370147a63fecbdea3,687ed1b7e638a4cbf2f02089,68802ff282e6d7ec14192327,,,,,,,,,,,,,1,,,,,,,,,,,,,,,,,,,,,,,,,,,,,,,,,,,,,,,,,,,,,,,,,,,,,,,,,,,,,,,,,,,,,,,,,,,,,,,692.004,695.1804,slightly agree,0,0,0,0,1,I can easily tell if someone else wants to enter a conversation.,1,0,1,0,,
,,,,,,,,,5e70636370147a63fecbdea3,Mexican,13 or older,"no, only English or Spanish",yes,2025-07-22_20h43.04.882,empathy_intonation_perc,2024.2.4,Win32,60.60606061,5e70636370147a63fecbdea3,687ed1b7e638a4cbf2f02089,68802ff282e6d7ec14192327,,,,,,,,,,,,,2,,,,,,,,,,,,,,,,,,,,,,,,,,,,,,,,,,,,,,,,,,,,,,,,,,,,,,,,,,,,,,,,,,,,,,,,,,,,,,,695.183,698.8839,slightly disagree,0,1,1,1,1,I prefer animals to humans.,0,1,0,0,,
,,,,,,,,,5e70636370147a63fecbdea3,Mexican,13 or older,"no, only English or Spanish",yes,2025-07-22_20h43.04.882,empathy_intonation_perc,2024.2.4,Win32,60.60606061,5e70636370147a63fecbdea3,687ed1b7e638a4cbf2f02089,68802ff282e6d7ec14192327,,,,,,,,,,,,,3,,,,,,,,,,,,,,,,,,,,,,,,,,,,,,,,,,,,,,,,,,,,,,,,,,,,,,,,,,,,,,,,,,,,,,,,,,,,,,,698.8858,700.9851,slightly agree,0,2,2,2,1,I try to keep up with the current trends and fashions.,0,1,0,0,,
,,,,,,,,,5e70636370147a63fecbdea3,Mexican,13 or older,"no, only English or Spanish",yes,2025-07-22_20h43.04.882,empathy_intonation_perc,2024.2.4,Win32,60.60606061,5e70636370147a63fecbdea3,687ed1b7e638a4cbf2f02089,68802ff282e6d7ec14192327,,,,,,,,,,,,,4,,,,,,,,,,,,,,,,,,,,,,,,,,,,,,,,,,,,,,,,,,,,,,,,,,,,,,,,,,,,,,,,,,,,,,,,,,,,,,,700.9874,703.1034,slightly agree,0,3,3,3,1,"I find it difficult to explain to others things that I understand easily,   when they don't understand it first time.",1,0,0,1,,
,,,,,,,,,5e70636370147a63fecbdea3,Mexican,13 or older,"no, only English or Spanish",yes,2025-07-22_20h43.04.882,empathy_intonation_perc,2024.2.4,Win32,60.60606061,5e70636370147a63fecbdea3,687ed1b7e638a4cbf2f02089,68802ff282e6d7ec14192327,,,,,,,,,,,,,5,,,,,,,,,,,,,,,,,,,,,,,,,,,,,,,,,,,,,,,,,,,,,,,,,,,,,,,,,,,,,,,,,,,,,,,,,,,,,,,703.105,705.7727,strongly agree,0,4,4,4,1,I dream most nights.,0,1,0,0,,
,,,,,,,,,5e70636370147a63fecbdea3,Mexican,13 or older,"no, only English or Spanish",yes,2025-07-22_20h43.04.882,empathy_intonation_perc,2024.2.4,Win32,60.60606061,5e70636370147a63fecbdea3,687ed1b7e638a4cbf2f02089,68802ff282e6d7ec14192327,,,,,,,,,,,,,6,,,,,,,,,,,,,,,,,,,,,,,,,,,,,,,,,,,,,,,,,,,,,,,,,,,,,,,,,,,,,,,,,,,,,,,,,,,,,,,705.7745,708.0909,slightly disagree,0,5,5,5,1,I really enjoy caring for other people.,1,0,1,0,,
,,,,,,,,,5e70636370147a63fecbdea3,Mexican,13 or older,"no, only English or Spanish",yes,2025-07-22_20h43.04.882,empathy_intonation_perc,2024.2.4,Win32,60.60606061,5e70636370147a63fecbdea3,687ed1b7e638a4cbf2f02089,68802ff282e6d7ec14192327,,,,,,,,,,,,,7,,,,,,,,,,,,,,,,,,,,,,,,,,,,,,,,,,,,,,,,,,,,,,,,,,,,,,,,,,,,,,,,,,,,,,,,,,,,,,,708.0929,711.1435,slightly agree,0,6,6,6,1,I try to solve my own problems rather than discussing them with others.,0,1,0,0,,
,,,,,,,,,5e70636370147a63fecbdea3,Mexican,13 or older,"no, only English or Spanish",yes,2025-07-22_20h43.04.882,empathy_intonation_perc,2024.2.4,Win32,60.60606061,5e70636370147a63fecbdea3,687ed1b7e638a4cbf2f02089,68802ff282e6d7ec14192327,,,,,,,,,,,,,8,,,,,,,,,,,,,,,,,,,,,,,,,,,,,,,,,,,,,,,,,,,,,,,,,,,,,,,,,,,,,,,,,,,,,,,,,,,,,,,711.1457,714.43,slightly disagree,0,7,7,7,1,I find it hard to know what to do in a social situation.,1,0,0,1,,
,,,,,,,,,5e70636370147a63fecbdea3,Mexican,13 or older,"no, only English or Spanish",yes,2025-07-22_20h43.04.882,empathy_intonation_perc,2024.2.4,Win32,60.60606061,5e70636370147a63fecbdea3,687ed1b7e638a4cbf2f02089,68802ff282e6d7ec14192327,,,,,,,,,,,,,9,,,,,,,,,,,,,,,,,,,,,,,,,,,,,,,,,,,,,,,,,,,,,,,,,,,,,,,,,,,,,,,,,,,,,,,,,,,,,,,714.4317,716.4814,slightly agree,0,8,8,8,1,I am at my best first thing in the morning.,0,1,0,0,,
