instructions_exposure.started,instructions_exposure.stopped,instructions_exposure_loop.thisRepN,instructions_exposure_loop.thisTrialN,instructions_exposure_loop.thisN,instructions_exposure_loop.thisIndex,instructions_exposure_loop.ran,instructions_text,continue_text,participant_id,"What variety of Spanish are you most familiar with? (e.g., Peruvian, Spanish, Mexican)",At what age did you begin learning Spanish?,Are you proficient in any languages other than English/Spanish?,"Are you familiar with Caribbean (e.g., Caribbean, Puerto Rican) or Galician Spanish?",date,expName,psychopyVersion,OS,frameRate,id,study_id,session,trial_exposure.started,trial_exposure.stopped,key_resp_exposure.keys,key_resp_exposure.corr,key_resp_exposure.rt,key_resp_exposure.duration,key_resp.keys,exposure_loop.thisRepN,exposure_loop.thisTrialN,exposure_loop.thisN,exposure_loop.thisIndex,exposure_loop.ran,item_num,correct_response,question,path,duration,instructions_2afc.started,instructions_2afc.stopped,instructions_2afc_loop.thisRepN,instructions_2afc_loop.thisTrialN,instructions_2afc_loop.thisN,instructions_2afc_loop.thisIndex,instructions_2afc_loop.ran,practice_2afc.started,practice_2afc.stopped,key_resp_2afc_practice.keys,key_resp_2afc_practice.corr,key_resp_2afc_practice.rt,key_resp_2afc_practice.duration,trials_2afc_practice_loop.thisRepN,trials_2afc_practice_loop.thisTrialN,trials_2afc_practice_loop.thisN,trials_2afc_practice_loop.thisIndex,trials_2afc_practice_loop.ran,check_2afc.started,check_2afc.stopped,trial_2afc.started,trial_2afc.stopped,key_resp_2afc_trial.keys,key_resp_2afc_trial.corr,key_resp_2afc_trial.rt,key_resp_2afc_trial.duration,trials_2afc_loop.thisRepN,trials_2afc_loop.thisTrialN,trials_2afc_loop.thisN,trials_2afc_loop.thisIndex,trials_2afc_loop.ran,target,variety,instructions_lextale.started,instructions_lextale.stopped,instructions_lextale_loop.thisRepN,instructions_lextale_loop.thisTrialN,instructions_lextale_loop.thisN,instructions_lextale_loop.thisIndex,instructions_lextale_loop.ran,practice_lextale.started,practice_lextale.stopped,key_resp_lextale_practice.keys,key_resp_lextale_practice.corr,key_resp_lextale_practice.rt,key_resp_lextale_practice.duration,practice_feedback_lextale.started,practice_feedback_lextale.stopped,trials_lextale_practice_loop.thisRepN,trials_lextale_practice_loop.thisTrialN,trials_lextale_practice_loop.thisN,trials_lextale_practice_loop.thisIndex,trials_lextale_practice_loop.ran,stim,word,prac_button_real,prac_button_false,check_lextale.started,check_lextale.stopped,trial_lextale.started,trial_lextale.stopped,key_resp_lextale_trial.keys,key_resp_lextale_trial.corr,key_resp_lextale_trial.rt,key_resp_lextale_trial.duration,trials_lextale_loop.thisRepN,trials_lextale_loop.thisTrialN,trials_lextale_loop.thisN,trials_lextale_loop.thisIndex,trials_lextale_loop.ran,button_real,button_false,instructions_eq.started,instructions_eq.stopped,trial_eq.started,trial_eq.stopped,slider_eq_trial.response,trials_eq_loop.thisRepN,trials_eq_loop.thisTrialN,trials_eq_loop.thisN,trials_eq_loop.thisIndex,trials_eq_loop.ran,item,is_test_item,is_distractor,is_agree_score,is_disagree_score,end_exp.started,end_exp.stopped
0.0174,2.4312,0,0,0,0,1,"In the following task, you are going to hear a series of conversations.", (press the space bar to continue),5ec79b5033c65502ce2acade,Spanish,13 or older,"no, only English or Spanish",no,2025-08-12_14h02.58.481,empathy_intonation_perc,2024.2.4,Win32,59.88023952,5ec79b5033c65502ce2acade,687ed1b7e638a4cbf2f02089,689b818b82eeccedfb015033,,,,,,,,,,,,,,,,,,,,,,,,,,,,,,,,,,,,,,,,,,,,,,,,,,,,,,,,,,,,,,,,,,,,,,,,,,,,,,,,,,,,,,,,,,,,,,,,,,,,,,,,,,
2.4318,3.7311,0,1,1,1,1,It is okay if you don't not 100% understand them!, (press the space bar to continue),5ec79b5033c65502ce2acade,Spanish,13 or older,"no, only English or Spanish",no,2025-08-12_14h02.58.481,empathy_intonation_perc,2024.2.4,Win32,59.88023952,5ec79b5033c65502ce2acade,687ed1b7e638a4cbf2f02089,689b818b82eeccedfb015033,,,,,,,,,,,,,,,,,,,,,,,,,,,,,,,,,,,,,,,,,,,,,,,,,,,,,,,,,,,,,,,,,,,,,,,,,,,,,,,,,,,,,,,,,,,,,,,,,,,,,,,,,,
3.7324,7.4643,0,2,2,2,1,"After, you will read a sentence about the conversation and decide if it's true or false.", (press the space bar to continue),5ec79b5033c65502ce2acade,Spanish,13 or older,"no, only English or Spanish",no,2025-08-12_14h02.58.481,empathy_intonation_perc,2024.2.4,Win32,59.88023952,5ec79b5033c65502ce2acade,687ed1b7e638a4cbf2f02089,689b818b82eeccedfb015033,,,,,,,,,,,,,,,,,,,,,,,,,,,,,,,,,,,,,,,,,,,,,,,,,,,,,,,,,,,,,,,,,,,,,,,,,,,,,,,,,,,,,,,,,,,,,,,,,,,,,,,,,,
7.4658,13.2012,0,3,3,3,1,"If it's true, press '1' (True) and if it's false press '0' (False).", (press the space bar to continue),5ec79b5033c65502ce2acade,Spanish,13 or older,"no, only English or Spanish",no,2025-08-12_14h02.58.481,empathy_intonation_perc,2024.2.4,Win32,59.88023952,5ec79b5033c65502ce2acade,687ed1b7e638a4cbf2f02089,689b818b82eeccedfb015033,,,,,,,,,,,,,,,,,,,,,,,,,,,,,,,,,,,,,,,,,,,,,,,,,,,,,,,,,,,,,,,,,,,,,,,,,,,,,,,,,,,,,,,,,,,,,,,,,,,,,,,,,,
,,,,,,,,,5ec79b5033c65502ce2acade,Spanish,13 or older,"no, only English or Spanish",no,2025-08-12_14h02.58.481,empathy_intonation_perc,2024.2.4,Win32,59.88023952,5ec79b5033c65502ce2acade,687ed1b7e638a4cbf2f02089,689b818b82eeccedfb015033,13.208,64.5976,1,1,4.339,,,0,0,0,0,1,1,1,The son asked the mom if Aunt Marina is okay.,./stim/exposure_wavs/ga_stimuli_convo.wav,47,,,,,,,,,,,,,,,,,,,,,,,,,,,,,,,,,,,,,,,,,,,,,,,,,,,,,,,,,,,,,,,,,,,,,,,,,,,,,,,,,,,,,,,,,
,,,,,,,,,5ec79b5033c65502ce2acade,Spanish,13 or older,"no, only English or Spanish",no,2025-08-12_14h02.58.481,empathy_intonation_perc,2024.2.4,Win32,59.88023952,5ec79b5033c65502ce2acade,687ed1b7e638a4cbf2f02089,689b818b82eeccedfb015033,64.5996,128.8802,1,1,4.2325,,,0,1,1,1,1,2,1,The mom asked the daughter if she already went to the supermarket.,./stim/exposure_wavs/dr_stimuli_convo.wav,60,,,,,,,,,,,,,,,,,,,,,,,,,,,,,,,,,,,,,,,,,,,,,,,,,,,,,,,,,,,,,,,,,,,,,,,,,,,,,,,,,,,,,,,,,
,,,,,,,,,5ec79b5033c65502ce2acade,Spanish,13 or older,"no, only English or Spanish",no,2025-08-12_14h02.58.481,empathy_intonation_perc,2024.2.4,Win32,59.88023952,5ec79b5033c65502ce2acade,687ed1b7e638a4cbf2f02089,689b818b82eeccedfb015033,128.8812,168.9968,1,0,4.0765,,,0,2,2,2,1,3,0,The mom already has rice.,./stim/exposure_wavs/pr_stimuli_convo.wav,36,,,,,,,,,,,,,,,,,,,,,,,,,,,,,,,,,,,,,,,,,,,,,,,,,,,,,,,,,,,,,,,,,,,,,,,,,,,,,,,,,,,,,,,,,
,,,,,,,"In the following task you are going to hear a series of utterances. 

  You will decide if the utterances sound like questions or not using your keyboard.", (press the spacebar to continue),5ec79b5033c65502ce2acade,Spanish,13 or older,"no, only English or Spanish",no,2025-08-12_14h02.58.481,empathy_intonation_perc,2024.2.4,Win32,59.88023952,5ec79b5033c65502ce2acade,687ed1b7e638a4cbf2f02089,689b818b82eeccedfb015033,,,,,,,,,,,,,,,,,,169.001,172.847,0,0,0,0,1,,,,,,,,,,,,,,,,,,,,,,,,,,,,,,,,,,,,,,,,,,,,,,,,,,,,,,,,,,,,,,,,,,,,,,,,,,,,,,,,,,
,,,,,,,"If you believe the utterance is a question, type '1' (for 'yes') and if you do not 
  believe it is a question type '0' (for 'no').

  Let's practice a bit...", (press the spacebar to continue),5ec79b5033c65502ce2acade,Spanish,13 or older,"no, only English or Spanish",no,2025-08-12_14h02.58.481,empathy_intonation_perc,2024.2.4,Win32,59.88023952,5ec79b5033c65502ce2acade,687ed1b7e638a4cbf2f02089,689b818b82eeccedfb015033,,,,,,,,,,,,,,,,,,172.8485,175.9299,0,1,1,1,1,,,,,,,,,,,,,,,,,,,,,,,,,,,,,,,,,,,,,,,,,,,,,,,,,,,,,,,,,,,,,,,,,,,,,,,,,,,,,,,,,,
,,,,,,,,,5ec79b5033c65502ce2acade,Spanish,13 or older,"no, only English or Spanish",no,2025-08-12_14h02.58.481,empathy_intonation_perc,2024.2.4,Win32,59.88023952,5ec79b5033c65502ce2acade,687ed1b7e638a4cbf2f02089,689b818b82eeccedfb015033,,,,,,,,,,,,,,0,,./stim/wavs/puertorican_statement_filler_La-nina-pinta-con-su-amiga.wav,,,,,,,,,175.9357,179.5802,0,1,3.1174,,0,0,0,7,1,,,,,,,,,,,,,,,,,,,,,,,,,,,,,,,,,,,,,,,,,,,,,,,,,,,,,,,,,,,,,,,,,,,,,,,
,,,,,,,,,5ec79b5033c65502ce2acade,Spanish,13 or older,"no, only English or Spanish",no,2025-08-12_14h02.58.481,empathy_intonation_perc,2024.2.4,Win32,59.88023952,5ec79b5033c65502ce2acade,687ed1b7e638a4cbf2f02089,689b818b82eeccedfb015033,,,,,,,,,,,,,,1,,./stim/wavs/castilian_question_filler_Mi-esposo-conoce-al-chico.wav,,,,,,,,,179.5808,182.2177,1,1,2.1169,,0,1,1,0,1,,,,,,,,,,,,,,,,,,,,,,,,,,,,,,,,,,,,,,,,,,,,,,,,,,,,,,,,,,,,,,,,,,,,,,,
,,,,,,,,,5ec79b5033c65502ce2acade,Spanish,13 or older,"no, only English or Spanish",no,2025-08-12_14h02.58.481,empathy_intonation_perc,2024.2.4,Win32,59.88023952,5ec79b5033c65502ce2acade,687ed1b7e638a4cbf2f02089,689b818b82eeccedfb015033,,,,,,,,,,,,,,0,,./stim/wavs/andalusian_statement_filler_Alberto-nunca-se-afeita.wav,,,,,,,,,182.2181,184.6634,0,1,1.9244,,0,2,2,5,1,,,,,,,,,,,,,,,,,,,,,,,,,,,,,,,,,,,,,,,,,,,,,,,,,,,,,,,,,,,,,,,,,,,,,,,
,,,,,,,,,5ec79b5033c65502ce2acade,Spanish,13 or older,"no, only English or Spanish",no,2025-08-12_14h02.58.481,empathy_intonation_perc,2024.2.4,Win32,59.88023952,5ec79b5033c65502ce2acade,687ed1b7e638a4cbf2f02089,689b818b82eeccedfb015033,,,,,,,,,,,,,,1,,./stim/wavs/chilean_question_filler_Mi-padre-cantaba-bien.wav,,,,,,,,,184.6639,187.7633,0,0,2.5736,,0,3,3,2,1,,,,,,,,,,,,,,,,,,,,,,,,,,,,,,,,,,,,,,,,,,,,,,,,,,,,,,,,,,,,,,,,,,,,,,,
,,,,,,,,,5ec79b5033c65502ce2acade,Spanish,13 or older,"no, only English or Spanish",no,2025-08-12_14h02.58.481,empathy_intonation_perc,2024.2.4,Win32,59.88023952,5ec79b5033c65502ce2acade,687ed1b7e638a4cbf2f02089,689b818b82eeccedfb015033,,,,,,,,,,,,,,1,,./stim/wavs/argentine_question_filler_Mi-vecino-habla-mucho.wav,,,,,,,,,187.7639,190.2967,1,1,2.0046,,0,4,4,1,1,,,,,,,,,,,,,,,,,,,,,,,,,,,,,,,,,,,,,,,,,,,,,,,,,,,,,,,,,,,,,,,,,,,,,,,
,,,,,,,,,5ec79b5033c65502ce2acade,Spanish,13 or older,"no, only English or Spanish",no,2025-08-12_14h02.58.481,empathy_intonation_perc,2024.2.4,Win32,59.88023952,5ec79b5033c65502ce2acade,687ed1b7e638a4cbf2f02089,689b818b82eeccedfb015033,,,,,,,,,,,,,,0,,./stim/wavs/peruvian_statement_filler_El-nino-habla-con-su-madre.wav,,,,,,,,,190.2971,193.3509,0,1,2.534,,0,5,5,6,1,,,,,,,,,,,,,,,,,,,,,,,,,,,,,,,,,,,,,,,,,,,,,,,,,,,,,,,,,,,,,,,,,,,,,,,
,,,,,,,,,5ec79b5033c65502ce2acade,Spanish,13 or older,"no, only English or Spanish",no,2025-08-12_14h02.58.481,empathy_intonation_perc,2024.2.4,Win32,59.88023952,5ec79b5033c65502ce2acade,687ed1b7e638a4cbf2f02089,689b818b82eeccedfb015033,,,,,,,,,,,,,,0,,./stim/wavs/cuban_statement_filler_Cocinabas-por-la-noche.wav,,,,,,,,,193.3514,195.4966,0,1,1.6179,,0,6,6,4,1,,,,,,,,,,,,,,,,,,,,,,,,,,,,,,,,,,,,,,,,,,,,,,,,,,,,,,,,,,,,,,,,,,,,,,,
,,,,,,,,,5ec79b5033c65502ce2acade,Spanish,13 or older,"no, only English or Spanish",no,2025-08-12_14h02.58.481,empathy_intonation_perc,2024.2.4,Win32,59.88023952,5ec79b5033c65502ce2acade,687ed1b7e638a4cbf2f02089,689b818b82eeccedfb015033,,,,,,,,,,,,,,1,,./stim/wavs/mexican_question_filler_Felipe-no-tiene-contrasena.wav,,,,,,,,,195.497,198.0297,1,1,2.012,,0,7,7,3,1,,,,,,,,,,,,,,,,,,,,,,,,,,,,,,,,,,,,,,,,,,,,,,,,,,,,,,,,,,,,,,,,,,,,,,,
,,,,,,,,,5ec79b5033c65502ce2acade,Spanish,13 or older,"no, only English or Spanish",no,2025-08-12_14h02.58.481,empathy_intonation_perc,2024.2.4,Win32,59.88023952,5ec79b5033c65502ce2acade,687ed1b7e638a4cbf2f02089,689b818b82eeccedfb015033,,,,,,,,,,,,,,,,,,,,,,,,,,,,,,,,,,,,198.0299,201.1301,,,,,,,,,,,,,,,,,,,,,,,,,,,,,,,,,,,,,,,,,,,,,,,,,,,,,,,,,,,,,,,,,,,,,
,,,,,,,,,5ec79b5033c65502ce2acade,Spanish,13 or older,"no, only English or Spanish",no,2025-08-12_14h02.58.481,empathy_intonation_perc,2024.2.4,Win32,59.88023952,5ec79b5033c65502ce2acade,687ed1b7e638a4cbf2f02089,689b818b82eeccedfb015033,,,,,,,,,,,,,20,1,,./stim/wavs/puertorican_match_interrogative-total-yn_Daniel-iba-a-Bolivia.wav,,,,,,,,,,,,,,,,,,,,,,201.1371,203.4967,0,0,1.8439,,0,0,0,19,1,1,puertorican,,,,,,,,,,,,,,,,,,,,,,,,,,,,,,,,,,,,,,,,,,,,,,,,,,,,,,,,
,,,,,,,,,5ec79b5033c65502ce2acade,Spanish,13 or older,"no, only English or Spanish",no,2025-08-12_14h02.58.481,empathy_intonation_perc,2024.2.4,Win32,59.88023952,5ec79b5033c65502ce2acade,687ed1b7e638a4cbf2f02089,689b818b82eeccedfb015033,,,,,,,,,,,,,70,0,,./stim/wavs/castilian_mismatch_declarative-broad-focus_La-maestra-vive-en-Paris.wav,,,,,,,,,,,,,,,,,,,,,,203.4971,206.0798,0,1,2.0512,,0,1,1,69,1,0,castilian,,,,,,,,,,,,,,,,,,,,,,,,,,,,,,,,,,,,,,,,,,,,,,,,,,,,,,,,
,,,,,,,,,5ec79b5033c65502ce2acade,Spanish,13 or older,"no, only English or Spanish",no,2025-08-12_14h02.58.481,empathy_intonation_perc,2024.2.4,Win32,59.88023952,5ec79b5033c65502ce2acade,687ed1b7e638a4cbf2f02089,689b818b82eeccedfb015033,,,,,,,,,,,,,13,1,,./stim/wavs/mexican_match_interrogative-total-yn_Ana-lleva-el-abrigo.wav,,,,,,,,,,,,,,,,,,,,,,206.0801,208.0509,1,1,1.4508,,0,2,2,12,1,0,mexican,,,,,,,,,,,,,,,,,,,,,,,,,,,,,,,,,,,,,,,,,,,,,,,,,,,,,,,,
,,,,,,,,,5ec79b5033c65502ce2acade,Spanish,13 or older,"no, only English or Spanish",no,2025-08-12_14h02.58.481,empathy_intonation_perc,2024.2.4,Win32,59.88023952,5ec79b5033c65502ce2acade,687ed1b7e638a4cbf2f02089,689b818b82eeccedfb015033,,,,,,,,,,,,,48,0,,./stim/wavs/castilian_match_declarative-broad-focus_Maria-bebe-el-vino.wav,,,,,,,,,,,,,,,,,,,,,,208.0513,210.2798,0,1,1.7083,,0,3,3,47,1,0,castilian,,,,,,,,,,,,,,,,,,,,,,,,,,,,,,,,,,,,,,,,,,,,,,,,,,,,,,,,
,,,,,,,,,5ec79b5033c65502ce2acade,Spanish,13 or older,"no, only English or Spanish",no,2025-08-12_14h02.58.481,empathy_intonation_perc,2024.2.4,Win32,59.88023952,5ec79b5033c65502ce2acade,687ed1b7e638a4cbf2f02089,689b818b82eeccedfb015033,,,,,,,,,,,,,17,1,,./stim/wavs/mexican_match_interrogative-total-yn_Mariano-habla-del-tiempo.wav,,,,,,,,,,,,,,,,,,,,,,210.2802,212.4466,1,1,1.6353,,0,4,4,16,1,0,mexican,,,,,,,,,,,,,,,,,,,,,,,,,,,,,,,,,,,,,,,,,,,,,,,,,,,,,,,,
,,,,,,,,,5ec79b5033c65502ce2acade,Spanish,13 or older,"no, only English or Spanish",no,2025-08-12_14h02.58.481,empathy_intonation_perc,2024.2.4,Win32,59.88023952,5ec79b5033c65502ce2acade,687ed1b7e638a4cbf2f02089,689b818b82eeccedfb015033,,,,,,,,,,,,,81,0,,./stim/wavs/mexican_mismatch_declarative-broad-focus_La-maestra-vive-en-Paris.wav,,,,,,,,,,,,,,,,,,,,,,212.447,214.5297,0,1,1.5562,,0,5,5,80,1,0,mexican,,,,,,,,,,,,,,,,,,,,,,,,,,,,,,,,,,,,,,,,,,,,,,,,,,,,,,,,
,,,,,,,,,5ec79b5033c65502ce2acade,Spanish,13 or older,"no, only English or Spanish",no,2025-08-12_14h02.58.481,empathy_intonation_perc,2024.2.4,Win32,59.88023952,5ec79b5033c65502ce2acade,687ed1b7e638a4cbf2f02089,689b818b82eeccedfb015033,,,,,,,,,,,,,8,1,,./stim/wavs/cuban_match_interrogative-total-yn_Daniel-iba-a-Bolivia.wav,,,,,,,,,,,,,,,,,,,,,,214.5301,216.6129,0,0,1.5576,,0,6,6,7,1,1,cuban,,,,,,,,,,,,,,,,,,,,,,,,,,,,,,,,,,,,,,,,,,,,,,,,,,,,,,,,
,,,,,,,,,5ec79b5033c65502ce2acade,Spanish,13 or older,"no, only English or Spanish",no,2025-08-12_14h02.58.481,empathy_intonation_perc,2024.2.4,Win32,59.88023952,5ec79b5033c65502ce2acade,687ed1b7e638a4cbf2f02089,689b818b82eeccedfb015033,,,,,,,,,,,,,27,1,,./stim/wavs/castilian_mismatch_interrogative-total-yn_Mi-madre-come-la-fruta.wav,,,,,,,,,,,,,,,,,,,,,,216.6133,218.7963,0,0,1.6514,,0,7,7,26,1,0,castilian,,,,,,,,,,,,,,,,,,,,,,,,,,,,,,,,,,,,,,,,,,,,,,,,,,,,,,,,
,,,,,,,,,5ec79b5033c65502ce2acade,Spanish,13 or older,"no, only English or Spanish",no,2025-08-12_14h02.58.481,empathy_intonation_perc,2024.2.4,Win32,59.88023952,5ec79b5033c65502ce2acade,687ed1b7e638a4cbf2f02089,689b818b82eeccedfb015033,,,,,,,,,,,,,1,1,,./stim/wavs/castilian_match_interrogative-total-yn_David-leia-el-libro.wav,,,,,,,,,,,,,,,,,,,,,,218.7966,220.9129,1,1,1.596,,0,8,8,0,1,0,castilian,,,,,,,,,,,,,,,,,,,,,,,,,,,,,,,,,,,,,,,,,,,,,,,,,,,,,,,,
,,,,,,,,,5ec79b5033c65502ce2acade,Spanish,13 or older,"no, only English or Spanish",no,2025-08-12_14h02.58.481,empathy_intonation_perc,2024.2.4,Win32,59.88023952,5ec79b5033c65502ce2acade,687ed1b7e638a4cbf2f02089,689b818b82eeccedfb015033,,,,,,,,,,,,,78,0,,./stim/wavs/cuban_mismatch_declarative-broad-focus_Mi-tia-odia-la-lluvia.wav,,,,,,,,,,,,,,,,,,,,,,220.9134,223.3632,0,1,1.9296,,0,9,9,77,1,0,cuban,,,,,,,,,,,,,,,,,,,,,,,,,,,,,,,,,,,,,,,,,,,,,,,,,,,,,,,,
,,,,,,,,,5ec79b5033c65502ce2acade,Spanish,13 or older,"no, only English or Spanish",no,2025-08-12_14h02.58.481,empathy_intonation_perc,2024.2.4,Win32,59.88023952,5ec79b5033c65502ce2acade,687ed1b7e638a4cbf2f02089,689b818b82eeccedfb015033,,,,,,,,,,,,,50,0,,./stim/wavs/castilian_match_declarative-broad-focus_Marta-abre-el-regalo.wav,,,,,,,,,,,,,,,,,,,,,,223.3636,225.5965,0,1,1.7034,,0,10,10,49,1,0,castilian,,,,,,,,,,,,,,,,,,,,,,,,,,,,,,,,,,,,,,,,,,,,,,,,,,,,,,,,
,,,,,,,,,5ec79b5033c65502ce2acade,Spanish,13 or older,"no, only English or Spanish",no,2025-08-12_14h02.58.481,empathy_intonation_perc,2024.2.4,Win32,59.88023952,5ec79b5033c65502ce2acade,687ed1b7e638a4cbf2f02089,689b818b82eeccedfb015033,,,,,,,,,,,,,73,0,,./stim/wavs/castilian_mismatch_declarative-broad-focus_Mi-tia-odia-la-lluvia.wav,,,,,,,,,,,,,,,,,,,,,,225.5968,227.7131,0,1,1.5836,,0,11,11,72,1,0,castilian,,,,,,,,,,,,,,,,,,,,,,,,,,,,,,,,,,,,,,,,,,,,,,,,,,,,,,,,
,,,,,,,,,5ec79b5033c65502ce2acade,Spanish,13 or older,"no, only English or Spanish",no,2025-08-12_14h02.58.481,empathy_intonation_perc,2024.2.4,Win32,59.88023952,5ec79b5033c65502ce2acade,687ed1b7e638a4cbf2f02089,689b818b82eeccedfb015033,,,,,,,,,,,,,56,0,,./stim/wavs/cuban_match_declarative-broad-focus_Marta-abre-el-regalo.wav,,,,,,,,,,,,,,,,,,,,,,227.7134,229.9962,0,1,1.7504,,0,12,12,55,1,0,cuban,,,,,,,,,,,,,,,,,,,,,,,,,,,,,,,,,,,,,,,,,,,,,,,,,,,,,,,,
,,,,,,,,,5ec79b5033c65502ce2acade,Spanish,13 or older,"no, only English or Spanish",no,2025-08-12_14h02.58.481,empathy_intonation_perc,2024.2.4,Win32,59.88023952,5ec79b5033c65502ce2acade,687ed1b7e638a4cbf2f02089,689b818b82eeccedfb015033,,,,,,,,,,,,,49,0,,./stim/wavs/castilian_match_declarative-broad-focus_Mariano-habla-del-tiempo.wav,,,,,,,,,,,,,,,,,,,,,,229.9966,232.5131,0,1,1.9883,,0,13,13,48,1,0,castilian,,,,,,,,,,,,,,,,,,,,,,,,,,,,,,,,,,,,,,,,,,,,,,,,,,,,,,,,
,,,,,,,,,5ec79b5033c65502ce2acade,Spanish,13 or older,"no, only English or Spanish",no,2025-08-12_14h02.58.481,empathy_intonation_perc,2024.2.4,Win32,59.88023952,5ec79b5033c65502ce2acade,687ed1b7e638a4cbf2f02089,689b818b82eeccedfb015033,,,,,,,,,,,,,58,0,,./stim/wavs/mexican_match_declarative-broad-focus_Daniel-iba-a-Bolivia.wav,,,,,,,,,,,,,,,,,,,,,,232.5134,234.4629,1,0,1.4271,,0,14,14,57,1,0,mexican,,,,,,,,,,,,,,,,,,,,,,,,,,,,,,,,,,,,,,,,,,,,,,,,,,,,,,,,
,,,,,,,,,5ec79b5033c65502ce2acade,Spanish,13 or older,"no, only English or Spanish",no,2025-08-12_14h02.58.481,empathy_intonation_perc,2024.2.4,Win32,59.88023952,5ec79b5033c65502ce2acade,687ed1b7e638a4cbf2f02089,689b818b82eeccedfb015033,,,,,,,,,,,,,69,0,,./stim/wavs/castilian_mismatch_declarative-broad-focus_El-nino-oye-el-rio.wav,,,,,,,,,,,,,,,,,,,,,,234.4634,236.7629,0,1,1.7795,,0,15,15,68,1,0,castilian,,,,,,,,,,,,,,,,,,,,,,,,,,,,,,,,,,,,,,,,,,,,,,,,,,,,,,,,
,,,,,,,,,5ec79b5033c65502ce2acade,Spanish,13 or older,"no, only English or Spanish",no,2025-08-12_14h02.58.481,empathy_intonation_perc,2024.2.4,Win32,59.88023952,5ec79b5033c65502ce2acade,687ed1b7e638a4cbf2f02089,689b818b82eeccedfb015033,,,,,,,,,,,,,60,0,,./stim/wavs/mexican_match_declarative-broad-focus_Emilio-ama-la-marcha.wav,,,,,,,,,,,,,,,,,,,,,,236.7634,238.9462,0,1,1.6506,,0,16,16,59,1,0,mexican,,,,,,,,,,,,,,,,,,,,,,,,,,,,,,,,,,,,,,,,,,,,,,,,,,,,,,,,
,,,,,,,,,5ec79b5033c65502ce2acade,Spanish,13 or older,"no, only English or Spanish",no,2025-08-12_14h02.58.481,empathy_intonation_perc,2024.2.4,Win32,59.88023952,5ec79b5033c65502ce2acade,687ed1b7e638a4cbf2f02089,689b818b82eeccedfb015033,,,,,,,,,,,,,80,0,,./stim/wavs/mexican_mismatch_declarative-broad-focus_El-hombre-mira-la-luna.wav,,,,,,,,,,,,,,,,,,,,,,238.9467,241.3295,0,1,1.857,,0,17,17,79,1,0,mexican,,,,,,,,,,,,,,,,,,,,,,,,,,,,,,,,,,,,,,,,,,,,,,,,,,,,,,,,
,,,,,,,,,5ec79b5033c65502ce2acade,Spanish,13 or older,"no, only English or Spanish",no,2025-08-12_14h02.58.481,empathy_intonation_perc,2024.2.4,Win32,59.88023952,5ec79b5033c65502ce2acade,687ed1b7e638a4cbf2f02089,689b818b82eeccedfb015033,,,,,,,,,,,,,7,1,,./stim/wavs/cuban_match_interrogative-total-yn_Ana-lleva-el-abrigo.wav,,,,,,,,,,,,,,,,,,,,,,241.3299,243.1461,0,0,1.2848,,0,18,18,6,1,1,cuban,,,,,,,,,,,,,,,,,,,,,,,,,,,,,,,,,,,,,,,,,,,,,,,,,,,,,,,,
,,,,,,,,,5ec79b5033c65502ce2acade,Spanish,13 or older,"no, only English or Spanish",no,2025-08-12_14h02.58.481,empathy_intonation_perc,2024.2.4,Win32,59.88023952,5ec79b5033c65502ce2acade,687ed1b7e638a4cbf2f02089,689b818b82eeccedfb015033,,,,,,,,,,,,,32,1,,./stim/wavs/cuban_mismatch_interrogative-total-yn_Mi-madre-come-la-fruta.wav,,,,,,,,,,,,,,,,,,,,,,243.1466,245.263,0,0,1.5831,,0,19,19,31,1,1,cuban,,,,,,,,,,,,,,,,,,,,,,,,,,,,,,,,,,,,,,,,,,,,,,,,,,,,,,,,
,,,,,,,,,5ec79b5033c65502ce2acade,Spanish,13 or older,"no, only English or Spanish",no,2025-08-12_14h02.58.481,empathy_intonation_perc,2024.2.4,Win32,59.88023952,5ec79b5033c65502ce2acade,687ed1b7e638a4cbf2f02089,689b818b82eeccedfb015033,,,,,,,,,,,,,62,0,,./stim/wavs/mexican_match_declarative-broad-focus_Marta-abre-el-regalo.wav,,,,,,,,,,,,,,,,,,,,,,245.2634,247.2296,0,1,1.4438,,0,20,20,61,1,0,mexican,,,,,,,,,,,,,,,,,,,,,,,,,,,,,,,,,,,,,,,,,,,,,,,,,,,,,,,,
,,,,,,,,,5ec79b5033c65502ce2acade,Spanish,13 or older,"no, only English or Spanish",no,2025-08-12_14h02.58.481,empathy_intonation_perc,2024.2.4,Win32,59.88023952,5ec79b5033c65502ce2acade,687ed1b7e638a4cbf2f02089,689b818b82eeccedfb015033,,,,,,,,,,,,,53,0,,./stim/wavs/cuban_match_declarative-broad-focus_Manuela-vende-el-carro.wav,,,,,,,,,,,,,,,,,,,,,,247.2301,249.5295,0,1,1.7741,,0,21,21,52,1,0,cuban,,,,,,,,,,,,,,,,,,,,,,,,,,,,,,,,,,,,,,,,,,,,,,,,,,,,,,,,
,,,,,,,,,5ec79b5033c65502ce2acade,Spanish,13 or older,"no, only English or Spanish",no,2025-08-12_14h02.58.481,empathy_intonation_perc,2024.2.4,Win32,59.88023952,5ec79b5033c65502ce2acade,687ed1b7e638a4cbf2f02089,689b818b82eeccedfb015033,,,,,,,,,,,,,61,0,,./stim/wavs/mexican_match_declarative-broad-focus_Mariano-habla-del-tiempo.wav,,,,,,,,,,,,,,,,,,,,,,249.5299,251.6463,0,1,1.5869,,0,22,22,60,1,0,mexican,,,,,,,,,,,,,,,,,,,,,,,,,,,,,,,,,,,,,,,,,,,,,,,,,,,,,,,,
,,,,,,,,,5ec79b5033c65502ce2acade,Spanish,13 or older,"no, only English or Spanish",no,2025-08-12_14h02.58.481,empathy_intonation_perc,2024.2.4,Win32,59.88023952,5ec79b5033c65502ce2acade,687ed1b7e638a4cbf2f02089,689b818b82eeccedfb015033,,,,,,,,,,,,,29,1,,./stim/wavs/castilian_mismatch_interrogative-total-yn_Mi-tia-odia-la-lluvia.wav,,,,,,,,,,,,,,,,,,,,,,251.6467,253.7963,1,1,1.6213,,0,23,23,28,1,0,castilian,,,,,,,,,,,,,,,,,,,,,,,,,,,,,,,,,,,,,,,,,,,,,,,,,,,,,,,,
,,,,,,,,,5ec79b5033c65502ce2acade,Spanish,13 or older,"no, only English or Spanish",no,2025-08-12_14h02.58.481,empathy_intonation_perc,2024.2.4,Win32,59.88023952,5ec79b5033c65502ce2acade,687ed1b7e638a4cbf2f02089,689b818b82eeccedfb015033,,,,,,,,,,,,,11,1,,./stim/wavs/cuban_match_interrogative-total-yn_Mariano-habla-del-tiempo.wav,,,,,,,,,,,,,,,,,,,,,,253.7967,256.0129,0,0,1.6762,,0,24,24,10,1,1,cuban,,,,,,,,,,,,,,,,,,,,,,,,,,,,,,,,,,,,,,,,,,,,,,,,,,,,,,,,
,,,,,,,,,5ec79b5033c65502ce2acade,Spanish,13 or older,"no, only English or Spanish",no,2025-08-12_14h02.58.481,empathy_intonation_perc,2024.2.4,Win32,59.88023952,5ec79b5033c65502ce2acade,687ed1b7e638a4cbf2f02089,689b818b82eeccedfb015033,,,,,,,,,,,,,88,0,,./stim/wavs/puertorican_mismatch_declarative-broad-focus_La-nina-lava-el-plato.wav,,,,,,,,,,,,,,,,,,,,,,256.0133,257.9295,0,1,1.3837,,0,25,25,87,1,0,puertorican,,,,,,,,,,,,,,,,,,,,,,,,,,,,,,,,,,,,,,,,,,,,,,,,,,,,,,,,
,,,,,,,,,5ec79b5033c65502ce2acade,Spanish,13 or older,"no, only English or Spanish",no,2025-08-12_14h02.58.481,empathy_intonation_perc,2024.2.4,Win32,59.88023952,5ec79b5033c65502ce2acade,687ed1b7e638a4cbf2f02089,689b818b82eeccedfb015033,,,,,,,,,,,,,18,1,,./stim/wavs/mexican_match_interrogative-total-yn_Marta-abre-el-regalo.wav,,,,,,,,,,,,,,,,,,,,,,257.9299,259.9294,0,0,1.4676,,0,26,26,17,1,0,mexican,,,,,,,,,,,,,,,,,,,,,,,,,,,,,,,,,,,,,,,,,,,,,,,,,,,,,,,,
,,,,,,,,,5ec79b5033c65502ce2acade,Spanish,13 or older,"no, only English or Spanish",no,2025-08-12_14h02.58.481,empathy_intonation_perc,2024.2.4,Win32,59.88023952,5ec79b5033c65502ce2acade,687ed1b7e638a4cbf2f02089,689b818b82eeccedfb015033,,,,,,,,,,,,,43,1,,./stim/wavs/puertorican_mismatch_interrogative-total-yn_La-nina-lava-el-plato.wav,,,,,,,,,,,,,,,,,,,,,,259.9299,262.3628,0,0,1.884,,0,27,27,42,1,1,puertorican,,,,,,,,,,,,,,,,,,,,,,,,,,,,,,,,,,,,,,,,,,,,,,,,,,,,,,,,
,,,,,,,,,5ec79b5033c65502ce2acade,Spanish,13 or older,"no, only English or Spanish",no,2025-08-12_14h02.58.481,empathy_intonation_perc,2024.2.4,Win32,59.88023952,5ec79b5033c65502ce2acade,687ed1b7e638a4cbf2f02089,689b818b82eeccedfb015033,,,,,,,,,,,,,41,1,,./stim/wavs/puertorican_mismatch_interrogative-total-yn_El-nino-oye-el-rio.wav,,,,,,,,,,,,,,,,,,,,,,262.3631,264.3294,0,0,1.4447,,0,28,28,40,1,1,puertorican,,,,,,,,,,,,,,,,,,,,,,,,,,,,,,,,,,,,,,,,,,,,,,,,,,,,,,,,
,,,,,,,,,5ec79b5033c65502ce2acade,Spanish,13 or older,"no, only English or Spanish",no,2025-08-12_14h02.58.481,empathy_intonation_perc,2024.2.4,Win32,59.88023952,5ec79b5033c65502ce2acade,687ed1b7e638a4cbf2f02089,689b818b82eeccedfb015033,,,,,,,,,,,,,66,0,,./stim/wavs/puertorican_match_declarative-broad-focus_Emilio-ama-la-marcha.wav,,,,,,,,,,,,,,,,,,,,,,264.3297,266.3999,0,1,1.5493,,0,29,29,65,1,0,puertorican,,,,,,,,,,,,,,,,,,,,,,,,,,,,,,,,,,,,,,,,,,,,,,,,,,,,,,,,
,,,,,,,,,5ec79b5033c65502ce2acade,Spanish,13 or older,"no, only English or Spanish",no,2025-08-12_14h02.58.481,empathy_intonation_perc,2024.2.4,Win32,59.88023952,5ec79b5033c65502ce2acade,687ed1b7e638a4cbf2f02089,689b818b82eeccedfb015033,,,,,,,,,,,,,14,1,,./stim/wavs/mexican_match_interrogative-total-yn_Daniel-iba-a-Bolivia.wav,,,,,,,,,,,,,,,,,,,,,,266.4002,268.4128,1,1,1.4925,,0,30,30,13,1,0,mexican,,,,,,,,,,,,,,,,,,,,,,,,,,,,,,,,,,,,,,,,,,,,,,,,,,,,,,,,
,,,,,,,,,5ec79b5033c65502ce2acade,Spanish,13 or older,"no, only English or Spanish",no,2025-08-12_14h02.58.481,empathy_intonation_perc,2024.2.4,Win32,59.88023952,5ec79b5033c65502ce2acade,687ed1b7e638a4cbf2f02089,689b818b82eeccedfb015033,,,,,,,,,,,,,31,1,,./stim/wavs/cuban_mismatch_interrogative-total-yn_El-nino-oye-el-rio.wav,,,,,,,,,,,,,,,,,,,,,,268.4132,270.3793,0,0,1.439,,0,31,31,30,1,1,cuban,,,,,,,,,,,,,,,,,,,,,,,,,,,,,,,,,,,,,,,,,,,,,,,,,,,,,,,,
,,,,,,,,,5ec79b5033c65502ce2acade,Spanish,13 or older,"no, only English or Spanish",no,2025-08-12_14h02.58.481,empathy_intonation_perc,2024.2.4,Win32,59.88023952,5ec79b5033c65502ce2acade,687ed1b7e638a4cbf2f02089,689b818b82eeccedfb015033,,,,,,,,,,,,,23,1,,./stim/wavs/puertorican_match_interrogative-total-yn_Manuela-vende-el-carro.wav,,,,,,,,,,,,,,,,,,,,,,270.3797,272.4296,0,0,1.5181,,0,32,32,22,1,1,puertorican,,,,,,,,,,,,,,,,,,,,,,,,,,,,,,,,,,,,,,,,,,,,,,,,,,,,,,,,
,,,,,,,,,5ec79b5033c65502ce2acade,Spanish,13 or older,"no, only English or Spanish",no,2025-08-12_14h02.58.481,empathy_intonation_perc,2024.2.4,Win32,59.88023952,5ec79b5033c65502ce2acade,687ed1b7e638a4cbf2f02089,689b818b82eeccedfb015033,,,,,,,,,,,,,82,0,,./stim/wavs/mexican_mismatch_declarative-broad-focus_Mi-novio-viene-del-lago.wav,,,,,,,,,,,,,,,,,,,,,,272.4301,274.4961,0,1,1.5336,,0,33,33,81,1,0,mexican,,,,,,,,,,,,,,,,,,,,,,,,,,,,,,,,,,,,,,,,,,,,,,,,,,,,,,,,
,,,,,,,,,5ec79b5033c65502ce2acade,Spanish,13 or older,"no, only English or Spanish",no,2025-08-12_14h02.58.481,empathy_intonation_perc,2024.2.4,Win32,59.88023952,5ec79b5033c65502ce2acade,687ed1b7e638a4cbf2f02089,689b818b82eeccedfb015033,,,,,,,,,,,,,42,1,,./stim/wavs/puertorican_mismatch_interrogative-total-yn_La-maestra-vive-en-Paris.wav,,,,,,,,,,,,,,,,,,,,,,274.4965,276.9627,0,0,1.9418,,0,34,34,41,1,1,puertorican,,,,,,,,,,,,,,,,,,,,,,,,,,,,,,,,,,,,,,,,,,,,,,,,,,,,,,,,
,,,,,,,,,5ec79b5033c65502ce2acade,Spanish,13 or older,"no, only English or Spanish",no,2025-08-12_14h02.58.481,empathy_intonation_perc,2024.2.4,Win32,59.88023952,5ec79b5033c65502ce2acade,687ed1b7e638a4cbf2f02089,689b818b82eeccedfb015033,,,,,,,,,,,,,6,1,,./stim/wavs/castilian_match_interrogative-total-yn_Marta-abre-el-regalo.wav,,,,,,,,,,,,,,,,,,,,,,276.9631,279.0295,1,1,1.5329,,0,35,35,5,1,0,castilian,,,,,,,,,,,,,,,,,,,,,,,,,,,,,,,,,,,,,,,,,,,,,,,,,,,,,,,,
,,,,,,,,,5ec79b5033c65502ce2acade,Spanish,13 or older,"no, only English or Spanish",no,2025-08-12_14h02.58.481,empathy_intonation_perc,2024.2.4,Win32,59.88023952,5ec79b5033c65502ce2acade,687ed1b7e638a4cbf2f02089,689b818b82eeccedfb015033,,,,,,,,,,,,,54,0,,./stim/wavs/cuban_match_declarative-broad-focus_Maria-bebe-el-vino.wav,,,,,,,,,,,,,,,,,,,,,,279.0298,281.1294,0,1,1.5761,,0,36,36,53,1,0,cuban,,,,,,,,,,,,,,,,,,,,,,,,,,,,,,,,,,,,,,,,,,,,,,,,,,,,,,,,
,,,,,,,,,5ec79b5033c65502ce2acade,Spanish,13 or older,"no, only English or Spanish",no,2025-08-12_14h02.58.481,empathy_intonation_perc,2024.2.4,Win32,59.88023952,5ec79b5033c65502ce2acade,687ed1b7e638a4cbf2f02089,689b818b82eeccedfb015033,,,,,,,,,,,,,16,1,,./stim/wavs/mexican_match_interrogative-total-yn_Emilio-ama-la-marcha.wav,,,,,,,,,,,,,,,,,,,,,,281.1298,283.133,1,1,1.4833,,0,37,37,15,1,0,mexican,,,,,,,,,,,,,,,,,,,,,,,,,,,,,,,,,,,,,,,,,,,,,,,,,,,,,,,,
,,,,,,,,,5ec79b5033c65502ce2acade,Spanish,13 or older,"no, only English or Spanish",no,2025-08-12_14h02.58.481,empathy_intonation_perc,2024.2.4,Win32,59.88023952,5ec79b5033c65502ce2acade,687ed1b7e638a4cbf2f02089,689b818b82eeccedfb015033,,,,,,,,,,,,,34,1,,./stim/wavs/cuban_mismatch_interrogative-total-yn_Mi-tia-odia-la-lluvia.wav,,,,,,,,,,,,,,,,,,,,,,283.1334,285.1961,0,0,1.536,,0,38,38,33,1,1,cuban,,,,,,,,,,,,,,,,,,,,,,,,,,,,,,,,,,,,,,,,,,,,,,,,,,,,,,,,
,,,,,,,,,5ec79b5033c65502ce2acade,Spanish,13 or older,"no, only English or Spanish",no,2025-08-12_14h02.58.481,empathy_intonation_perc,2024.2.4,Win32,59.88023952,5ec79b5033c65502ce2acade,687ed1b7e638a4cbf2f02089,689b818b82eeccedfb015033,,,,,,,,,,,,,59,0,,./stim/wavs/mexican_match_declarative-broad-focus_David-leia-el-libro.wav,,,,,,,,,,,,,,,,,,,,,,285.1964,287.2127,0,1,1.4916,,0,39,39,58,1,0,mexican,,,,,,,,,,,,,,,,,,,,,,,,,,,,,,,,,,,,,,,,,,,,,,,,,,,,,,,,
,,,,,,,,,5ec79b5033c65502ce2acade,Spanish,13 or older,"no, only English or Spanish",no,2025-08-12_14h02.58.481,empathy_intonation_perc,2024.2.4,Win32,59.88023952,5ec79b5033c65502ce2acade,687ed1b7e638a4cbf2f02089,689b818b82eeccedfb015033,,,,,,,,,,,,,19,1,,./stim/wavs/puertorican_match_interrogative-total-yn_Ana-lleva-el-abrigo.wav,,,,,,,,,,,,,,,,,,,,,,287.2132,289.2629,0,0,1.5241,,0,40,40,18,1,1,puertorican,,,,,,,,,,,,,,,,,,,,,,,,,,,,,,,,,,,,,,,,,,,,,,,,,,,,,,,,
,,,,,,,,,5ec79b5033c65502ce2acade,Spanish,13 or older,"no, only English or Spanish",no,2025-08-12_14h02.58.481,empathy_intonation_perc,2024.2.4,Win32,59.88023952,5ec79b5033c65502ce2acade,687ed1b7e638a4cbf2f02089,689b818b82eeccedfb015033,,,,,,,,,,,,,46,0,,./stim/wavs/castilian_match_declarative-broad-focus_Emilio-ama-la-marcha.wav,,,,,,,,,,,,,,,,,,,,,,289.2632,291.4295,1,0,1.643,,0,41,41,45,1,0,castilian,,,,,,,,,,,,,,,,,,,,,,,,,,,,,,,,,,,,,,,,,,,,,,,,,,,,,,,,
,,,,,,,,,5ec79b5033c65502ce2acade,Spanish,13 or older,"no, only English or Spanish",no,2025-08-12_14h02.58.481,empathy_intonation_perc,2024.2.4,Win32,59.88023952,5ec79b5033c65502ce2acade,687ed1b7e638a4cbf2f02089,689b818b82eeccedfb015033,,,,,,,,,,,,,30,1,,./stim/wavs/cuban_mismatch_interrogative-total-yn_El-hombre-mira-la-luna.wav,,,,,,,,,,,,,,,,,,,,,,291.4299,293.3126,0,0,1.359,,0,42,42,29,1,1,cuban,,,,,,,,,,,,,,,,,,,,,,,,,,,,,,,,,,,,,,,,,,,,,,,,,,,,,,,,
,,,,,,,,,5ec79b5033c65502ce2acade,Spanish,13 or older,"no, only English or Spanish",no,2025-08-12_14h02.58.481,empathy_intonation_perc,2024.2.4,Win32,59.88023952,5ec79b5033c65502ce2acade,687ed1b7e638a4cbf2f02089,689b818b82eeccedfb015033,,,,,,,,,,,,,10,1,,./stim/wavs/cuban_match_interrogative-total-yn_Maria-bebe-el-vino.wav,,,,,,,,,,,,,,,,,,,,,,293.313,295.3793,0,0,1.5441,,0,43,43,9,1,1,cuban,,,,,,,,,,,,,,,,,,,,,,,,,,,,,,,,,,,,,,,,,,,,,,,,,,,,,,,,
,,,,,,,,,5ec79b5033c65502ce2acade,Spanish,13 or older,"no, only English or Spanish",no,2025-08-12_14h02.58.481,empathy_intonation_perc,2024.2.4,Win32,59.88023952,5ec79b5033c65502ce2acade,687ed1b7e638a4cbf2f02089,689b818b82eeccedfb015033,,,,,,,,,,,,,86,0,,./stim/wavs/puertorican_mismatch_declarative-broad-focus_El-nino-oye-el-rio.wav,,,,,,,,,,,,,,,,,,,,,,295.3797,297.2959,0,1,1.3942,,0,44,44,85,1,0,puertorican,,,,,,,,,,,,,,,,,,,,,,,,,,,,,,,,,,,,,,,,,,,,,,,,,,,,,,,,
,,,,,,,,,5ec79b5033c65502ce2acade,Spanish,13 or older,"no, only English or Spanish",no,2025-08-12_14h02.58.481,empathy_intonation_perc,2024.2.4,Win32,59.88023952,5ec79b5033c65502ce2acade,687ed1b7e638a4cbf2f02089,689b818b82eeccedfb015033,,,,,,,,,,,,,24,1,,./stim/wavs/puertorican_match_interrogative-total-yn_Maria-bebe-el-vino.wav,,,,,,,,,,,,,,,,,,,,,,297.2963,299.0627,1,1,1.2405,,0,45,45,23,1,1,puertorican,,,,,,,,,,,,,,,,,,,,,,,,,,,,,,,,,,,,,,,,,,,,,,,,,,,,,,,,
,,,,,,,,,5ec79b5033c65502ce2acade,Spanish,13 or older,"no, only English or Spanish",no,2025-08-12_14h02.58.481,empathy_intonation_perc,2024.2.4,Win32,59.88023952,5ec79b5033c65502ce2acade,687ed1b7e638a4cbf2f02089,689b818b82eeccedfb015033,,,,,,,,,,,,,12,1,,./stim/wavs/cuban_match_interrogative-total-yn_Marta-abre-el-regalo.wav,,,,,,,,,,,,,,,,,,,,,,299.063,301.096,0,0,1.505,,0,46,46,11,1,1,cuban,,,,,,,,,,,,,,,,,,,,,,,,,,,,,,,,,,,,,,,,,,,,,,,,,,,,,,,,
,,,,,,,,,5ec79b5033c65502ce2acade,Spanish,13 or older,"no, only English or Spanish",no,2025-08-12_14h02.58.481,empathy_intonation_perc,2024.2.4,Win32,59.88023952,5ec79b5033c65502ce2acade,687ed1b7e638a4cbf2f02089,689b818b82eeccedfb015033,,,,,,,,,,,,,84,0,,./stim/wavs/puertorican_mismatch_declarative-broad-focus_El-bebe-comia-muy-bien.wav,,,,,,,,,,,,,,,,,,,,,,301.0964,303.0627,1,0,1.4342,,0,47,47,83,1,0,puertorican,,,,,,,,,,,,,,,,,,,,,,,,,,,,,,,,,,,,,,,,,,,,,,,,,,,,,,,,
,,,,,,,,,5ec79b5033c65502ce2acade,Spanish,13 or older,"no, only English or Spanish",no,2025-08-12_14h02.58.481,empathy_intonation_perc,2024.2.4,Win32,59.88023952,5ec79b5033c65502ce2acade,687ed1b7e638a4cbf2f02089,689b818b82eeccedfb015033,,,,,,,,,,,,,39,1,,./stim/wavs/mexican_mismatch_interrogative-total-yn_Mi-tia-odia-la-lluvia.wav,,,,,,,,,,,,,,,,,,,,,,303.0631,305.046,1,1,1.4548,,0,48,48,38,1,0,mexican,,,,,,,,,,,,,,,,,,,,,,,,,,,,,,,,,,,,,,,,,,,,,,,,,,,,,,,,
,,,,,,,,,5ec79b5033c65502ce2acade,Spanish,13 or older,"no, only English or Spanish",no,2025-08-12_14h02.58.481,empathy_intonation_perc,2024.2.4,Win32,59.88023952,5ec79b5033c65502ce2acade,687ed1b7e638a4cbf2f02089,689b818b82eeccedfb015033,,,,,,,,,,,,,63,0,,./stim/wavs/puertorican_match_declarative-broad-focus_Ana-lleva-el-abrigo.wav,,,,,,,,,,,,,,,,,,,,,,305.0465,306.9294,0,1,1.3501,,0,49,49,62,1,0,puertorican,,,,,,,,,,,,,,,,,,,,,,,,,,,,,,,,,,,,,,,,,,,,,,,,,,,,,,,,
,,,,,,,,,5ec79b5033c65502ce2acade,Spanish,13 or older,"no, only English or Spanish",no,2025-08-12_14h02.58.481,empathy_intonation_perc,2024.2.4,Win32,59.88023952,5ec79b5033c65502ce2acade,687ed1b7e638a4cbf2f02089,689b818b82eeccedfb015033,,,,,,,,,,,,,21,1,,./stim/wavs/puertorican_match_interrogative-total-yn_David-leia-el-libro.wav,,,,,,,,,,,,,,,,,,,,,,306.9297,308.9292,0,0,1.4706,,0,50,50,20,1,1,puertorican,,,,,,,,,,,,,,,,,,,,,,,,,,,,,,,,,,,,,,,,,,,,,,,,,,,,,,,,
,,,,,,,,,5ec79b5033c65502ce2acade,Spanish,13 or older,"no, only English or Spanish",no,2025-08-12_14h02.58.481,empathy_intonation_perc,2024.2.4,Win32,59.88023952,5ec79b5033c65502ce2acade,687ed1b7e638a4cbf2f02089,689b818b82eeccedfb015033,,,,,,,,,,,,,22,1,,./stim/wavs/puertorican_match_interrogative-total-yn_Emilio-ama-la-marcha.wav,,,,,,,,,,,,,,,,,,,,,,308.9296,311.1124,0,0,1.6605,,0,51,51,21,1,1,puertorican,,,,,,,,,,,,,,,,,,,,,,,,,,,,,,,,,,,,,,,,,,,,,,,,,,,,,,,,
,,,,,,,,,5ec79b5033c65502ce2acade,Spanish,13 or older,"no, only English or Spanish",no,2025-08-12_14h02.58.481,empathy_intonation_perc,2024.2.4,Win32,59.88023952,5ec79b5033c65502ce2acade,687ed1b7e638a4cbf2f02089,689b818b82eeccedfb015033,,,,,,,,,,,,,75,0,,./stim/wavs/cuban_mismatch_declarative-broad-focus_El-hombre-mira-la-luna.wav,,,,,,,,,,,,,,,,,,,,,,311.1129,312.9962,0,1,1.3632,,0,52,52,74,1,0,cuban,,,,,,,,,,,,,,,,,,,,,,,,,,,,,,,,,,,,,,,,,,,,,,,,,,,,,,,,
,,,,,,,,,5ec79b5033c65502ce2acade,Spanish,13 or older,"no, only English or Spanish",no,2025-08-12_14h02.58.481,empathy_intonation_perc,2024.2.4,Win32,59.88023952,5ec79b5033c65502ce2acade,687ed1b7e638a4cbf2f02089,689b818b82eeccedfb015033,,,,,,,,,,,,,79,0,,./stim/wavs/mexican_mismatch_declarative-broad-focus_El-bebe-comia-muy-bien.wav,,,,,,,,,,,,,,,,,,,,,,312.9966,315.1124,0,1,1.5954,,0,53,53,78,1,0,mexican,,,,,,,,,,,,,,,,,,,,,,,,,,,,,,,,,,,,,,,,,,,,,,,,,,,,,,,,
,,,,,,,,,5ec79b5033c65502ce2acade,Spanish,13 or older,"no, only English or Spanish",no,2025-08-12_14h02.58.481,empathy_intonation_perc,2024.2.4,Win32,59.88023952,5ec79b5033c65502ce2acade,687ed1b7e638a4cbf2f02089,689b818b82eeccedfb015033,,,,,,,,,,,,,9,1,,./stim/wavs/cuban_match_interrogative-total-yn_Manuela-vende-el-carro.wav,,,,,,,,,,,,,,,,,,,,,,315.1128,317.1959,0,0,1.553,,0,54,54,8,1,1,cuban,,,,,,,,,,,,,,,,,,,,,,,,,,,,,,,,,,,,,,,,,,,,,,,,,,,,,,,,
,,,,,,,,,5ec79b5033c65502ce2acade,Spanish,13 or older,"no, only English or Spanish",no,2025-08-12_14h02.58.481,empathy_intonation_perc,2024.2.4,Win32,59.88023952,5ec79b5033c65502ce2acade,687ed1b7e638a4cbf2f02089,689b818b82eeccedfb015033,,,,,,,,,,,,,3,1,,./stim/wavs/castilian_match_interrogative-total-yn_Manuela-vende-el-carro.wav,,,,,,,,,,,,,,,,,,,,,,317.1962,319.4959,0,0,1.7718,,0,55,55,2,1,0,castilian,,,,,,,,,,,,,,,,,,,,,,,,,,,,,,,,,,,,,,,,,,,,,,,,,,,,,,,,
,,,,,,,,,5ec79b5033c65502ce2acade,Spanish,13 or older,"no, only English or Spanish",no,2025-08-12_14h02.58.481,empathy_intonation_perc,2024.2.4,Win32,59.88023952,5ec79b5033c65502ce2acade,687ed1b7e638a4cbf2f02089,689b818b82eeccedfb015033,,,,,,,,,,,,,72,0,,./stim/wavs/castilian_mismatch_declarative-broad-focus_Mi-novio-viene-del-lago.wav,,,,,,,,,,,,,,,,,,,,,,319.4964,321.7791,0,1,1.7605,,0,56,56,71,1,0,castilian,,,,,,,,,,,,,,,,,,,,,,,,,,,,,,,,,,,,,,,,,,,,,,,,,,,,,,,,
,,,,,,,,,5ec79b5033c65502ce2acade,Spanish,13 or older,"no, only English or Spanish",no,2025-08-12_14h02.58.481,empathy_intonation_perc,2024.2.4,Win32,59.88023952,5ec79b5033c65502ce2acade,687ed1b7e638a4cbf2f02089,689b818b82eeccedfb015033,,,,,,,,,,,,,68,0,,./stim/wavs/puertorican_match_declarative-broad-focus_Maria-bebe-el-vino.wav,,,,,,,,,,,,,,,,,,,,,,321.7794,323.7957,1,0,1.4871,,0,57,57,67,1,0,puertorican,,,,,,,,,,,,,,,,,,,,,,,,,,,,,,,,,,,,,,,,,,,,,,,,,,,,,,,,
,,,,,,,,,5ec79b5033c65502ce2acade,Spanish,13 or older,"no, only English or Spanish",no,2025-08-12_14h02.58.481,empathy_intonation_perc,2024.2.4,Win32,59.88023952,5ec79b5033c65502ce2acade,687ed1b7e638a4cbf2f02089,689b818b82eeccedfb015033,,,,,,,,,,,,,36,1,,./stim/wavs/mexican_mismatch_interrogative-total-yn_El-nino-oye-el-rio.wav,,,,,,,,,,,,,,,,,,,,,,323.7961,325.7124,1,1,1.3936,,0,58,58,35,1,0,mexican,,,,,,,,,,,,,,,,,,,,,,,,,,,,,,,,,,,,,,,,,,,,,,,,,,,,,,,,
,,,,,,,,,5ec79b5033c65502ce2acade,Spanish,13 or older,"no, only English or Spanish",no,2025-08-12_14h02.58.481,empathy_intonation_perc,2024.2.4,Win32,59.88023952,5ec79b5033c65502ce2acade,687ed1b7e638a4cbf2f02089,689b818b82eeccedfb015033,,,,,,,,,,,,,44,1,,./stim/wavs/puertorican_mismatch_interrogative-total-yn_Mi-madre-come-la-fruta.wav,,,,,,,,,,,,,,,,,,,,,,325.7128,327.7125,1,1,1.4675,,0,59,59,43,1,1,puertorican,,,,,,,,,,,,,,,,,,,,,,,,,,,,,,,,,,,,,,,,,,,,,,,,,,,,,,,,
,,,,,,,,,5ec79b5033c65502ce2acade,Spanish,13 or older,"no, only English or Spanish",no,2025-08-12_14h02.58.481,empathy_intonation_perc,2024.2.4,Win32,59.88023952,5ec79b5033c65502ce2acade,687ed1b7e638a4cbf2f02089,689b818b82eeccedfb015033,,,,,,,,,,,,,55,0,,./stim/wavs/cuban_match_declarative-broad-focus_Mariano-habla-del-tiempo.wav,,,,,,,,,,,,,,,,,,,,,,327.7129,330.3459,0,1,2.1142,,0,60,60,54,1,0,cuban,,,,,,,,,,,,,,,,,,,,,,,,,,,,,,,,,,,,,,,,,,,,,,,,,,,,,,,,
,,,,,,,,,5ec79b5033c65502ce2acade,Spanish,13 or older,"no, only English or Spanish",no,2025-08-12_14h02.58.481,empathy_intonation_perc,2024.2.4,Win32,59.88023952,5ec79b5033c65502ce2acade,687ed1b7e638a4cbf2f02089,689b818b82eeccedfb015033,,,,,,,,,,,,,83,0,,./stim/wavs/mexican_mismatch_declarative-broad-focus_Mi-tia-odia-la-lluvia.wav,,,,,,,,,,,,,,,,,,,,,,330.3462,332.3292,0,1,1.4587,,0,61,61,82,1,0,mexican,,,,,,,,,,,,,,,,,,,,,,,,,,,,,,,,,,,,,,,,,,,,,,,,,,,,,,,,
,,,,,,,,,5ec79b5033c65502ce2acade,Spanish,13 or older,"no, only English or Spanish",no,2025-08-12_14h02.58.481,empathy_intonation_perc,2024.2.4,Win32,59.88023952,5ec79b5033c65502ce2acade,687ed1b7e638a4cbf2f02089,689b818b82eeccedfb015033,,,,,,,,,,,,,77,0,,./stim/wavs/cuban_mismatch_declarative-broad-focus_Mi-novio-viene-del-lago.wav,,,,,,,,,,,,,,,,,,,,,,332.3295,334.3792,0,1,1.5162,,0,62,62,76,1,0,cuban,,,,,,,,,,,,,,,,,,,,,,,,,,,,,,,,,,,,,,,,,,,,,,,,,,,,,,,,
,,,,,,,,,5ec79b5033c65502ce2acade,Spanish,13 or older,"no, only English or Spanish",no,2025-08-12_14h02.58.481,empathy_intonation_perc,2024.2.4,Win32,59.88023952,5ec79b5033c65502ce2acade,687ed1b7e638a4cbf2f02089,689b818b82eeccedfb015033,,,,,,,,,,,,,37,1,,./stim/wavs/mexican_mismatch_interrogative-total-yn_La-maestra-vive-en-Paris.wav,,,,,,,,,,,,,,,,,,,,,,334.3796,336.8293,1,1,1.9163,,0,63,63,36,1,0,mexican,,,,,,,,,,,,,,,,,,,,,,,,,,,,,,,,,,,,,,,,,,,,,,,,,,,,,,,,
,,,,,,,,,5ec79b5033c65502ce2acade,Spanish,13 or older,"no, only English or Spanish",no,2025-08-12_14h02.58.481,empathy_intonation_perc,2024.2.4,Win32,59.88023952,5ec79b5033c65502ce2acade,687ed1b7e638a4cbf2f02089,689b818b82eeccedfb015033,,,,,,,,,,,,,71,0,,./stim/wavs/castilian_mismatch_declarative-broad-focus_La-nina-lava-el-plato.wav,,,,,,,,,,,,,,,,,,,,,,336.8298,339.2625,0,1,1.9002,,0,64,64,70,1,0,castilian,,,,,,,,,,,,,,,,,,,,,,,,,,,,,,,,,,,,,,,,,,,,,,,,,,,,,,,,
,,,,,,,,,5ec79b5033c65502ce2acade,Spanish,13 or older,"no, only English or Spanish",no,2025-08-12_14h02.58.481,empathy_intonation_perc,2024.2.4,Win32,59.88023952,5ec79b5033c65502ce2acade,687ed1b7e638a4cbf2f02089,689b818b82eeccedfb015033,,,,,,,,,,,,,25,1,,./stim/wavs/castilian_mismatch_interrogative-total-yn_La-maestra-vive-en-Paris.wav,,,,,,,,,,,,,,,,,,,,,,339.2628,342.0791,1,1,2.2906,,0,65,65,24,1,0,castilian,,,,,,,,,,,,,,,,,,,,,,,,,,,,,,,,,,,,,,,,,,,,,,,,,,,,,,,,
,,,,,,,,,5ec79b5033c65502ce2acade,Spanish,13 or older,"no, only English or Spanish",no,2025-08-12_14h02.58.481,empathy_intonation_perc,2024.2.4,Win32,59.88023952,5ec79b5033c65502ce2acade,687ed1b7e638a4cbf2f02089,689b818b82eeccedfb015033,,,,,,,,,,,,,67,0,,./stim/wavs/puertorican_match_declarative-broad-focus_Manuela-vende-el-carro.wav,,,,,,,,,,,,,,,,,,,,,,342.0795,344.4958,0,1,1.8925,,0,66,66,66,1,0,puertorican,,,,,,,,,,,,,,,,,,,,,,,,,,,,,,,,,,,,,,,,,,,,,,,,,,,,,,,,
,,,,,,,,,5ec79b5033c65502ce2acade,Spanish,13 or older,"no, only English or Spanish",no,2025-08-12_14h02.58.481,empathy_intonation_perc,2024.2.4,Win32,59.88023952,5ec79b5033c65502ce2acade,687ed1b7e638a4cbf2f02089,689b818b82eeccedfb015033,,,,,,,,,,,,,45,0,,./stim/wavs/castilian_match_declarative-broad-focus_David-leia-el-libro.wav,,,,,,,,,,,,,,,,,,,,,,344.4962,346.7122,0,1,1.694,,0,67,67,44,1,0,castilian,,,,,,,,,,,,,,,,,,,,,,,,,,,,,,,,,,,,,,,,,,,,,,,,,,,,,,,,
,,,,,,,,,5ec79b5033c65502ce2acade,Spanish,13 or older,"no, only English or Spanish",no,2025-08-12_14h02.58.481,empathy_intonation_perc,2024.2.4,Win32,59.88023952,5ec79b5033c65502ce2acade,687ed1b7e638a4cbf2f02089,689b818b82eeccedfb015033,,,,,,,,,,,,,26,1,,./stim/wavs/castilian_mismatch_interrogative-total-yn_La-nina-lava-el-plato.wav,,,,,,,,,,,,,,,,,,,,,,346.7127,348.8623,1,1,1.6209,,0,68,68,25,1,0,castilian,,,,,,,,,,,,,,,,,,,,,,,,,,,,,,,,,,,,,,,,,,,,,,,,,,,,,,,,
,,,,,,,,,5ec79b5033c65502ce2acade,Spanish,13 or older,"no, only English or Spanish",no,2025-08-12_14h02.58.481,empathy_intonation_perc,2024.2.4,Win32,59.88023952,5ec79b5033c65502ce2acade,687ed1b7e638a4cbf2f02089,689b818b82eeccedfb015033,,,,,,,,,,,,,51,0,,./stim/wavs/cuban_match_declarative-broad-focus_Ana-lleva-el-abrigo.wav,,,,,,,,,,,,,,,,,,,,,,348.8626,350.8289,0,1,1.4337,,0,69,69,50,1,0,cuban,,,,,,,,,,,,,,,,,,,,,,,,,,,,,,,,,,,,,,,,,,,,,,,,,,,,,,,,
,,,,,,,,,5ec79b5033c65502ce2acade,Spanish,13 or older,"no, only English or Spanish",no,2025-08-12_14h02.58.481,empathy_intonation_perc,2024.2.4,Win32,59.88023952,5ec79b5033c65502ce2acade,687ed1b7e638a4cbf2f02089,689b818b82eeccedfb015033,,,,,,,,,,,,,52,0,,./stim/wavs/cuban_match_declarative-broad-focus_Daniel-iba-a-Bolivia.wav,,,,,,,,,,,,,,,,,,,,,,350.8293,352.9956,0,1,1.6335,,0,70,70,51,1,0,cuban,,,,,,,,,,,,,,,,,,,,,,,,,,,,,,,,,,,,,,,,,,,,,,,,,,,,,,,,
,,,,,,,,,5ec79b5033c65502ce2acade,Spanish,13 or older,"no, only English or Spanish",no,2025-08-12_14h02.58.481,empathy_intonation_perc,2024.2.4,Win32,59.88023952,5ec79b5033c65502ce2acade,687ed1b7e638a4cbf2f02089,689b818b82eeccedfb015033,,,,,,,,,,,,,76,0,,./stim/wavs/cuban_mismatch_declarative-broad-focus_La-nina-lava-el-plato.wav,,,,,,,,,,,,,,,,,,,,,,352.9959,355.2291,0,1,1.7025,,0,71,71,75,1,0,cuban,,,,,,,,,,,,,,,,,,,,,,,,,,,,,,,,,,,,,,,,,,,,,,,,,,,,,,,,
,,,,,,,,,5ec79b5033c65502ce2acade,Spanish,13 or older,"no, only English or Spanish",no,2025-08-12_14h02.58.481,empathy_intonation_perc,2024.2.4,Win32,59.88023952,5ec79b5033c65502ce2acade,687ed1b7e638a4cbf2f02089,689b818b82eeccedfb015033,,,,,,,,,,,,,64,0,,./stim/wavs/puertorican_match_declarative-broad-focus_Daniel-iba-a-Bolivia.wav,,,,,,,,,,,,,,,,,,,,,,355.2296,357.2459,0,1,1.4884,,0,72,72,63,1,0,puertorican,,,,,,,,,,,,,,,,,,,,,,,,,,,,,,,,,,,,,,,,,,,,,,,,,,,,,,,,
,,,,,,,,,5ec79b5033c65502ce2acade,Spanish,13 or older,"no, only English or Spanish",no,2025-08-12_14h02.58.481,empathy_intonation_perc,2024.2.4,Win32,59.88023952,5ec79b5033c65502ce2acade,687ed1b7e638a4cbf2f02089,689b818b82eeccedfb015033,,,,,,,,,,,,,4,1,,./stim/wavs/castilian_match_interrogative-total-yn_Maria-bebe-el-vino.wav,,,,,,,,,,,,,,,,,,,,,,357.2462,359.179,1,1,1.4056,,0,73,73,3,1,0,castilian,,,,,,,,,,,,,,,,,,,,,,,,,,,,,,,,,,,,,,,,,,,,,,,,,,,,,,,,
,,,,,,,,,5ec79b5033c65502ce2acade,Spanish,13 or older,"no, only English or Spanish",no,2025-08-12_14h02.58.481,empathy_intonation_perc,2024.2.4,Win32,59.88023952,5ec79b5033c65502ce2acade,687ed1b7e638a4cbf2f02089,689b818b82eeccedfb015033,,,,,,,,,,,,,87,0,,./stim/wavs/puertorican_mismatch_declarative-broad-focus_La-maestra-vive-en-Paris.wav,,,,,,,,,,,,,,,,,,,,,,359.1794,361.5624,0,1,1.8502,,0,74,74,86,1,0,puertorican,,,,,,,,,,,,,,,,,,,,,,,,,,,,,,,,,,,,,,,,,,,,,,,,,,,,,,,,
,,,,,,,,,5ec79b5033c65502ce2acade,Spanish,13 or older,"no, only English or Spanish",no,2025-08-12_14h02.58.481,empathy_intonation_perc,2024.2.4,Win32,59.88023952,5ec79b5033c65502ce2acade,687ed1b7e638a4cbf2f02089,689b818b82eeccedfb015033,,,,,,,,,,,,,15,1,,./stim/wavs/mexican_match_interrogative-total-yn_David-leia-el-libro.wav,,,,,,,,,,,,,,,,,,,,,,361.5628,363.6789,1,1,1.5954,,0,75,75,14,1,0,mexican,,,,,,,,,,,,,,,,,,,,,,,,,,,,,,,,,,,,,,,,,,,,,,,,,,,,,,,,
,,,,,,,,,5ec79b5033c65502ce2acade,Spanish,13 or older,"no, only English or Spanish",no,2025-08-12_14h02.58.481,empathy_intonation_perc,2024.2.4,Win32,59.88023952,5ec79b5033c65502ce2acade,687ed1b7e638a4cbf2f02089,689b818b82eeccedfb015033,,,,,,,,,,,,,33,1,,./stim/wavs/cuban_mismatch_interrogative-total-yn_Mi-novio-viene-del-lago.wav,,,,,,,,,,,,,,,,,,,,,,363.6793,366.7291,0,0,2.5168,,0,76,76,32,1,1,cuban,,,,,,,,,,,,,,,,,,,,,,,,,,,,,,,,,,,,,,,,,,,,,,,,,,,,,,,,
,,,,,,,,,5ec79b5033c65502ce2acade,Spanish,13 or older,"no, only English or Spanish",no,2025-08-12_14h02.58.481,empathy_intonation_perc,2024.2.4,Win32,59.88023952,5ec79b5033c65502ce2acade,687ed1b7e638a4cbf2f02089,689b818b82eeccedfb015033,,,,,,,,,,,,,57,0,,./stim/wavs/mexican_match_declarative-broad-focus_Ana-lleva-el-abrigo.wav,,,,,,,,,,,,,,,,,,,,,,366.7294,368.579,0,1,1.319,,0,77,77,56,1,0,mexican,,,,,,,,,,,,,,,,,,,,,,,,,,,,,,,,,,,,,,,,,,,,,,,,,,,,,,,,
,,,,,,,,,5ec79b5033c65502ce2acade,Spanish,13 or older,"no, only English or Spanish",no,2025-08-12_14h02.58.481,empathy_intonation_perc,2024.2.4,Win32,59.88023952,5ec79b5033c65502ce2acade,687ed1b7e638a4cbf2f02089,689b818b82eeccedfb015033,,,,,,,,,,,,,47,0,,./stim/wavs/castilian_match_declarative-broad-focus_Manuela-vende-el-carro.wav,,,,,,,,,,,,,,,,,,,,,,368.5793,372.8334,0,1,3.7337,,0,78,78,46,1,0,castilian,,,,,,,,,,,,,,,,,,,,,,,,,,,,,,,,,,,,,,,,,,,,,,,,,,,,,,,,
,,,,,,,,,5ec79b5033c65502ce2acade,Spanish,13 or older,"no, only English or Spanish",no,2025-08-12_14h02.58.481,empathy_intonation_perc,2024.2.4,Win32,59.88023952,5ec79b5033c65502ce2acade,687ed1b7e638a4cbf2f02089,689b818b82eeccedfb015033,,,,,,,,,,,,,2,1,,./stim/wavs/castilian_match_interrogative-total-yn_Emilio-ama-la-marcha.wav,,,,,,,,,,,,,,,,,,,,,,372.8339,375.0622,1,1,1.7067,,0,79,79,1,1,0,castilian,,,,,,,,,,,,,,,,,,,,,,,,,,,,,,,,,,,,,,,,,,,,,,,,,,,,,,,,
,,,,,,,,,5ec79b5033c65502ce2acade,Spanish,13 or older,"no, only English or Spanish",no,2025-08-12_14h02.58.481,empathy_intonation_perc,2024.2.4,Win32,59.88023952,5ec79b5033c65502ce2acade,687ed1b7e638a4cbf2f02089,689b818b82eeccedfb015033,,,,,,,,,,,,,85,0,,./stim/wavs/puertorican_mismatch_declarative-broad-focus_El-hombre-mira-la-luna.wav,,,,,,,,,,,,,,,,,,,,,,375.0626,377.5121,0,1,1.9293,,0,80,80,84,1,0,puertorican,,,,,,,,,,,,,,,,,,,,,,,,,,,,,,,,,,,,,,,,,,,,,,,,,,,,,,,,
,,,,,,,,,5ec79b5033c65502ce2acade,Spanish,13 or older,"no, only English or Spanish",no,2025-08-12_14h02.58.481,empathy_intonation_perc,2024.2.4,Win32,59.88023952,5ec79b5033c65502ce2acade,687ed1b7e638a4cbf2f02089,689b818b82eeccedfb015033,,,,,,,,,,,,,74,0,,./stim/wavs/cuban_mismatch_declarative-broad-focus_El-bebe-comia-muy-bien.wav,,,,,,,,,,,,,,,,,,,,,,377.5124,380.3121,0,1,2.2683,,0,81,81,73,1,0,cuban,,,,,,,,,,,,,,,,,,,,,,,,,,,,,,,,,,,,,,,,,,,,,,,,,,,,,,,,
,,,,,,,,,5ec79b5033c65502ce2acade,Spanish,13 or older,"no, only English or Spanish",no,2025-08-12_14h02.58.481,empathy_intonation_perc,2024.2.4,Win32,59.88023952,5ec79b5033c65502ce2acade,687ed1b7e638a4cbf2f02089,689b818b82eeccedfb015033,,,,,,,,,,,,,65,0,,./stim/wavs/puertorican_match_declarative-broad-focus_David-leia-el-libro.wav,,,,,,,,,,,,,,,,,,,,,,380.3124,382.1787,0,1,1.346,,0,82,82,64,1,0,puertorican,,,,,,,,,,,,,,,,,,,,,,,,,,,,,,,,,,,,,,,,,,,,,,,,,,,,,,,,
,,,,,,,,,5ec79b5033c65502ce2acade,Spanish,13 or older,"no, only English or Spanish",no,2025-08-12_14h02.58.481,empathy_intonation_perc,2024.2.4,Win32,59.88023952,5ec79b5033c65502ce2acade,687ed1b7e638a4cbf2f02089,689b818b82eeccedfb015033,,,,,,,,,,,,,38,1,,./stim/wavs/mexican_mismatch_interrogative-total-yn_Mi-novio-viene-del-lago.wav,,,,,,,,,,,,,,,,,,,,,,382.1792,384.229,1,1,1.5244,,0,83,83,37,1,0,mexican,,,,,,,,,,,,,,,,,,,,,,,,,,,,,,,,,,,,,,,,,,,,,,,,,,,,,,,,
,,,,,,,,,5ec79b5033c65502ce2acade,Spanish,13 or older,"no, only English or Spanish",no,2025-08-12_14h02.58.481,empathy_intonation_perc,2024.2.4,Win32,59.88023952,5ec79b5033c65502ce2acade,687ed1b7e638a4cbf2f02089,689b818b82eeccedfb015033,,,,,,,,,,,,,5,1,,./stim/wavs/castilian_match_interrogative-total-yn_Mariano-habla-del-tiempo.wav,,,,,,,,,,,,,,,,,,,,,,384.2293,386.5788,1,1,1.8239,,0,84,84,4,1,0,castilian,,,,,,,,,,,,,,,,,,,,,,,,,,,,,,,,,,,,,,,,,,,,,,,,,,,,,,,,
,,,,,,,,,5ec79b5033c65502ce2acade,Spanish,13 or older,"no, only English or Spanish",no,2025-08-12_14h02.58.481,empathy_intonation_perc,2024.2.4,Win32,59.88023952,5ec79b5033c65502ce2acade,687ed1b7e638a4cbf2f02089,689b818b82eeccedfb015033,,,,,,,,,,,,,40,1,,./stim/wavs/puertorican_mismatch_interrogative-total-yn_El-hombre-mira-la-luna.wav,,,,,,,,,,,,,,,,,,,,,,386.5794,388.5955,1,1,1.4923,,0,85,85,39,1,1,puertorican,,,,,,,,,,,,,,,,,,,,,,,,,,,,,,,,,,,,,,,,,,,,,,,,,,,,,,,,
,,,,,,,,,5ec79b5033c65502ce2acade,Spanish,13 or older,"no, only English or Spanish",no,2025-08-12_14h02.58.481,empathy_intonation_perc,2024.2.4,Win32,59.88023952,5ec79b5033c65502ce2acade,687ed1b7e638a4cbf2f02089,689b818b82eeccedfb015033,,,,,,,,,,,,,28,1,,./stim/wavs/castilian_mismatch_interrogative-total-yn_Mi-novio-viene-del-lago.wav,,,,,,,,,,,,,,,,,,,,,,388.5959,390.9001,1,1,1.7844,,0,86,86,27,1,0,castilian,,,,,,,,,,,,,,,,,,,,,,,,,,,,,,,,,,,,,,,,,,,,,,,,,,,,,,,,
,,,,,,,,,5ec79b5033c65502ce2acade,Spanish,13 or older,"no, only English or Spanish",no,2025-08-12_14h02.58.481,empathy_intonation_perc,2024.2.4,Win32,59.88023952,5ec79b5033c65502ce2acade,687ed1b7e638a4cbf2f02089,689b818b82eeccedfb015033,,,,,,,,,,,,,35,1,,./stim/wavs/mexican_mismatch_interrogative-total-yn_El-hombre-mira-la-luna.wav,,,,,,,,,,,,,,,,,,,,,,390.9005,392.9991,1,1,1.5663,,0,87,87,34,1,0,mexican,,,,,,,,,,,,,,,,,,,,,,,,,,,,,,,,,,,,,,,,,,,,,,,,,,,,,,,,
,,,,,,,"Great! Now we will move on. The next task consists of about 60 trials, in each of which you will see a string of letters. 
  
  Your task is to decide whether this is a real Spanish word or not.", (press the spacebar to continue),5ec79b5033c65502ce2acade,Spanish,13 or older,"no, only English or Spanish",no,2025-08-12_14h02.58.481,empathy_intonation_perc,2024.2.4,Win32,59.88023952,5ec79b5033c65502ce2acade,687ed1b7e638a4cbf2f02089,689b818b82eeccedfb015033,,,,,,,,,,,,,,,,,,,,,,,,,,,,,,,,,,,,,,,,,,,,,,,,,,,393.004,398.2458,0,0,0,0,1,,,,,,,,,,,,,,,,,,,,,,,,,,,,,,,,,,,,,,,,,,,,,,,,,
,,,,,,,"If you think it is an existing Spanish word, you type '1' (for 'REAL'), and if you think it is not an existing Spanish word, you type '0' (for 'FAKE').", (press the spacebar to continue),5ec79b5033c65502ce2acade,Spanish,13 or older,"no, only English or Spanish",no,2025-08-12_14h02.58.481,empathy_intonation_perc,2024.2.4,Win32,59.88023952,5ec79b5033c65502ce2acade,687ed1b7e638a4cbf2f02089,689b818b82eeccedfb015033,,,,,,,,,,,,,,,,,,,,,,,,,,,,,,,,,,,,,,,,,,,,,,,,,,,398.2474,399.3956,0,1,1,1,1,,,,,,,,,,,,,,,,,,,,,,,,,,,,,,,,,,,,,,,,,,,,,,,,,
,,,,,,,"If you are sure that the word exists, even though you don’t know its exact meaning, you may still respond '1' (REAL). 
  
  But if you are not sure if it is an existing word, you should respond '0' (FAKE).
  
  Let's do a practice round...", (press the spacebar to continue),5ec79b5033c65502ce2acade,Spanish,13 or older,"no, only English or Spanish",no,2025-08-12_14h02.58.481,empathy_intonation_perc,2024.2.4,Win32,59.88023952,5ec79b5033c65502ce2acade,687ed1b7e638a4cbf2f02089,689b818b82eeccedfb015033,,,,,,,,,,,,,,,,,,,,,,,,,,,,,,,,,,,,,,,,,,,,,,,,,,,399.3969,400.1454,0,2,2,2,1,,,,,,,,,,,,,,,,,,,,,,,,,,,,,,,,,,,,,,,,,,,,,,,,,
,,,,,,,,,5ec79b5033c65502ce2acade,Spanish,13 or older,"no, only English or Spanish",no,2025-08-12_14h02.58.481,empathy_intonation_perc,2024.2.4,Win32,59.88023952,5ec79b5033c65502ce2acade,687ed1b7e638a4cbf2f02089,689b818b82eeccedfb015033,,,,,,,,,,,,,,0,,,,,,,,,,,,,,,,,,,,,,,,,,,,,,,,,,,,,,,,,,,,400.1499,403.6455,1,0,2.9536,,403.6457,404.6455,0,0,0,0,1,0,depiste,REAL,FAKE,,,,,,,,,,,,,,,,,,,,,,,,,,,,,,,,
,,,,,,,,,5ec79b5033c65502ce2acade,Spanish,13 or older,"no, only English or Spanish",no,2025-08-12_14h02.58.481,empathy_intonation_perc,2024.2.4,Win32,59.88023952,5ec79b5033c65502ce2acade,687ed1b7e638a4cbf2f02089,689b818b82eeccedfb015033,,,,,,,,,,,,,,1,,,,,,,,,,,,,,,,,,,,,,,,,,,,,,,,,,,,,,,,,,,,404.6465,406.0121,1,1,0.8202,,406.0128,407.0121,0,1,1,1,1,0,sí,REAL,FAKE,,,,,,,,,,,,,,,,,,,,,,,,,,,,,,,,
,,,,,,,,,5ec79b5033c65502ce2acade,Spanish,13 or older,"no, only English or Spanish",no,2025-08-12_14h02.58.481,empathy_intonation_perc,2024.2.4,Win32,59.88023952,5ec79b5033c65502ce2acade,687ed1b7e638a4cbf2f02089,689b818b82eeccedfb015033,,,,,,,,,,,,,,0,,,,,,,,,,,,,,,,,,,,,,,,,,,,,,,,,,,,,,,,,,,,407.0131,409.0453,0,1,1.4953,,409.0454,410.0452,0,2,2,2,1,0,coné,REAL,FAKE,,,,,,,,,,,,,,,,,,,,,,,,,,,,,,,,
,,,,,,,,,5ec79b5033c65502ce2acade,Spanish,13 or older,"no, only English or Spanish",no,2025-08-12_14h02.58.481,empathy_intonation_perc,2024.2.4,Win32,59.88023952,5ec79b5033c65502ce2acade,687ed1b7e638a4cbf2f02089,689b818b82eeccedfb015033,,,,,,,,,,,,,,0,,,,,,,,,,,,,,,,,,,,,,,,,,,,,,,,,,,,,,,,,,,,410.046,411.7453,1,0,1.1557,,411.7458,412.7452,0,3,3,3,1,0,calpar,REAL,FAKE,,,,,,,,,,,,,,,,,,,,,,,,,,,,,,,,
,,,,,,,,,5ec79b5033c65502ce2acade,Spanish,13 or older,"no, only English or Spanish",no,2025-08-12_14h02.58.481,empathy_intonation_perc,2024.2.4,Win32,59.88023952,5ec79b5033c65502ce2acade,687ed1b7e638a4cbf2f02089,689b818b82eeccedfb015033,,,,,,,,,,,,,,0,,,,,,,,,,,,,,,,,,,,,,,,,,,,,,,,,,,,,,,,,,,,412.7462,414.762,0,1,1.4796,,414.7625,415.7619,0,4,4,4,1,0,joten,REAL,FAKE,,,,,,,,,,,,,,,,,,,,,,,,,,,,,,,,
,,,,,,,,,5ec79b5033c65502ce2acade,Spanish,13 or older,"no, only English or Spanish",no,2025-08-12_14h02.58.481,empathy_intonation_perc,2024.2.4,Win32,59.88023952,5ec79b5033c65502ce2acade,687ed1b7e638a4cbf2f02089,689b818b82eeccedfb015033,,,,,,,,,,,,,,1,,,,,,,,,,,,,,,,,,,,,,,,,,,,,,,,,,,,,,,,,,,,415.7626,417.2452,0,0,0.9402,,417.2457,418.2456,0,5,5,5,1,0,sacapuntas,REAL,FAKE,,,,,,,,,,,,,,,,,,,,,,,,,,,,,,,,
,,,,,,,,,5ec79b5033c65502ce2acade,Spanish,13 or older,"no, only English or Spanish",no,2025-08-12_14h02.58.481,empathy_intonation_perc,2024.2.4,Win32,59.88023952,5ec79b5033c65502ce2acade,687ed1b7e638a4cbf2f02089,689b818b82eeccedfb015033,,,,,,,,,,,,,,0,,,,,,,,,,,,,,,,,,,,,,,,,,,,,,,,,,,,,,,,,,,,418.2465,419.662,0,1,0.8672,,419.6626,420.6619,0,6,6,6,1,0,priba,REAL,FAKE,,,,,,,,,,,,,,,,,,,,,,,,,,,,,,,,
,,,,,,,,,5ec79b5033c65502ce2acade,Spanish,13 or older,"no, only English or Spanish",no,2025-08-12_14h02.58.481,empathy_intonation_perc,2024.2.4,Win32,59.88023952,5ec79b5033c65502ce2acade,687ed1b7e638a4cbf2f02089,689b818b82eeccedfb015033,,,,,,,,,,,,,,0,,,,,,,,,,,,,,,,,,,,,,,,,,,,,,,,,,,,,,,,,,,,420.6626,422.2119,1,0,1.0062,,422.2124,423.2121,0,7,7,7,1,0,pelasula,REAL,FAKE,,,,,,,,,,,,,,,,,,,,,,,,,,,,,,,,
,,,,,,,,,5ec79b5033c65502ce2acade,Spanish,13 or older,"no, only English or Spanish",no,2025-08-12_14h02.58.481,empathy_intonation_perc,2024.2.4,Win32,59.88023952,5ec79b5033c65502ce2acade,687ed1b7e638a4cbf2f02089,689b818b82eeccedfb015033,,,,,,,,,,,,,,1,,,,,,,,,,,,,,,,,,,,,,,,,,,,,,,,,,,,,,,,,,,,423.2127,424.4452,1,1,0.6953,,424.4457,425.4454,0,8,8,8,1,0,bien,REAL,FAKE,,,,,,,,,,,,,,,,,,,,,,,,,,,,,,,,
,,,,,,,,,5ec79b5033c65502ce2acade,Spanish,13 or older,"no, only English or Spanish",no,2025-08-12_14h02.58.481,empathy_intonation_perc,2024.2.4,Win32,59.88023952,5ec79b5033c65502ce2acade,687ed1b7e638a4cbf2f02089,689b818b82eeccedfb015033,,,,,,,,,,,,,,1,,,,,,,,,,,,,,,,,,,,,,,,,,,,,,,,,,,,,,,,,,,,425.4462,426.6953,1,1,0.7071,,426.6954,427.6992,0,9,9,9,1,0,casa,REAL,FAKE,,,,,,,,,,,,,,,,,,,,,,,,,,,,,,,,
,,,,,,,,,5ec79b5033c65502ce2acade,Spanish,13 or older,"no, only English or Spanish",no,2025-08-12_14h02.58.481,empathy_intonation_perc,2024.2.4,Win32,59.88023952,5ec79b5033c65502ce2acade,687ed1b7e638a4cbf2f02089,689b818b82eeccedfb015033,,,,,,,,,,,,,,0,,,,,,,,,,,,,,,,,,,,,,,,,,,,,,,,,,,,,,,,,,,,427.7,428.8953,1,0,0.6579,,428.8959,429.8953,0,10,10,10,1,0,lejo,REAL,FAKE,,,,,,,,,,,,,,,,,,,,,,,,,,,,,,,,
,,,,,,,,,5ec79b5033c65502ce2acade,Spanish,13 or older,"no, only English or Spanish",no,2025-08-12_14h02.58.481,empathy_intonation_perc,2024.2.4,Win32,59.88023952,5ec79b5033c65502ce2acade,687ed1b7e638a4cbf2f02089,689b818b82eeccedfb015033,,,,,,,,,,,,,,0,,,,,,,,,,,,,,,,,,,,,,,,,,,,,,,,,,,,,,,,,,,,429.896,432.312,0,1,1.8672,,432.3125,433.312,0,11,11,11,1,0,pretantas,REAL,FAKE,,,,,,,,,,,,,,,,,,,,,,,,,,,,,,,,
,,,,,,,,,5ec79b5033c65502ce2acade,Spanish,13 or older,"no, only English or Spanish",no,2025-08-12_14h02.58.481,empathy_intonation_perc,2024.2.4,Win32,59.88023952,5ec79b5033c65502ce2acade,687ed1b7e638a4cbf2f02089,689b818b82eeccedfb015033,,,,,,,,,,,,,,,,,,,,,,,,,,,,,,,,,,,,,,,,,,,,,,,,,,,,,,,,,,,,,,,,,,,,,,,,,,,433.3121,434.3652,,,,,,,,,,,,,,,,,,,,,,,,,,,,,,
,,,,,,,,,5ec79b5033c65502ce2acade,Spanish,13 or older,"no, only English or Spanish",no,2025-08-12_14h02.58.481,empathy_intonation_perc,2024.2.4,Win32,59.88023952,5ec79b5033c65502ce2acade,687ed1b7e638a4cbf2f02089,689b818b82eeccedfb015033,,,,,,,,,,,,,,1,,,,,,,,,,,,,,,,,,,,,,,,,,,,,,,,,,,,,,,,,,,,,,,,,,,,,,,,,39,torpe,,,,,434.3712,437.1454,0,0,2.2373,,0,0,0,38,1,REAL,FAKE,,,,,,,,,,,,,,,,,
,,,,,,,,,5ec79b5033c65502ce2acade,Spanish,13 or older,"no, only English or Spanish",no,2025-08-12_14h02.58.481,empathy_intonation_perc,2024.2.4,Win32,59.88023952,5ec79b5033c65502ce2acade,687ed1b7e638a4cbf2f02089,689b818b82eeccedfb015033,,,,,,,,,,,,,,1,,,,,,,,,,,,,,,,,,,,,,,,,,,,,,,,,,,,,,,,,,,,,,,,,,,,,,,,,90,clavel,,,,,437.1463,438.8452,0,0,1.1568,,0,1,1,89,1,REAL,FAKE,,,,,,,,,,,,,,,,,
,,,,,,,,,5ec79b5033c65502ce2acade,Spanish,13 or older,"no, only English or Spanish",no,2025-08-12_14h02.58.481,empathy_intonation_perc,2024.2.4,Win32,59.88023952,5ec79b5033c65502ce2acade,687ed1b7e638a4cbf2f02089,689b818b82eeccedfb015033,,,,,,,,,,,,,,0,,,,,,,,,,,,,,,,,,,,,,,,,,,,,,,,,,,,,,,,,,,,,,,,,,,,,,,,,72,pemición,,,,,438.8462,440.3117,1,0,0.9279,,0,2,2,71,1,REAL,FAKE,,,,,,,,,,,,,,,,,
,,,,,,,,,5ec79b5033c65502ce2acade,Spanish,13 or older,"no, only English or Spanish",no,2025-08-12_14h02.58.481,empathy_intonation_perc,2024.2.4,Win32,59.88023952,5ec79b5033c65502ce2acade,687ed1b7e638a4cbf2f02089,689b818b82eeccedfb015033,,,,,,,,,,,,,,1,,,,,,,,,,,,,,,,,,,,,,,,,,,,,,,,,,,,,,,,,,,,,,,,,,,,,,,,,22,lacayo,,,,,440.3125,441.9285,0,0,1.0714,,0,3,3,21,1,REAL,FAKE,,,,,,,,,,,,,,,,,
,,,,,,,,,5ec79b5033c65502ce2acade,Spanish,13 or older,"no, only English or Spanish",no,2025-08-12_14h02.58.481,empathy_intonation_perc,2024.2.4,Win32,59.88023952,5ec79b5033c65502ce2acade,687ed1b7e638a4cbf2f02089,689b818b82eeccedfb015033,,,,,,,,,,,,,,1,,,,,,,,,,,,,,,,,,,,,,,,,,,,,,,,,,,,,,,,,,,,,,,,,,,,,,,,,75,yacer,,,,,441.9293,443.4284,0,0,0.9546,,0,4,4,74,1,REAL,FAKE,,,,,,,,,,,,,,,,,
,,,,,,,,,5ec79b5033c65502ce2acade,Spanish,13 or older,"no, only English or Spanish",no,2025-08-12_14h02.58.481,empathy_intonation_perc,2024.2.4,Win32,59.88023952,5ec79b5033c65502ce2acade,687ed1b7e638a4cbf2f02089,689b818b82eeccedfb015033,,,,,,,,,,,,,,1,,,,,,,,,,,,,,,,,,,,,,,,,,,,,,,,,,,,,,,,,,,,,,,,,,,,,,,,,89,prisa,,,,,443.4291,444.8285,1,1,0.8507,,0,5,5,88,1,REAL,FAKE,,,,,,,,,,,,,,,,,
,,,,,,,,,5ec79b5033c65502ce2acade,Spanish,13 or older,"no, only English or Spanish",no,2025-08-12_14h02.58.481,empathy_intonation_perc,2024.2.4,Win32,59.88023952,5ec79b5033c65502ce2acade,687ed1b7e638a4cbf2f02089,689b818b82eeccedfb015033,,,,,,,,,,,,,,1,,,,,,,,,,,,,,,,,,,,,,,,,,,,,,,,,,,,,,,,,,,,,,,,,,,,,,,,,55,nevar,,,,,444.8293,446.1618,0,0,0.7896,,0,6,6,54,1,REAL,FAKE,,,,,,,,,,,,,,,,,
,,,,,,,,,5ec79b5033c65502ce2acade,Spanish,13 or older,"no, only English or Spanish",no,2025-08-12_14h02.58.481,empathy_intonation_perc,2024.2.4,Win32,59.88023952,5ec79b5033c65502ce2acade,687ed1b7e638a4cbf2f02089,689b818b82eeccedfb015033,,,,,,,,,,,,,,1,,,,,,,,,,,,,,,,,,,,,,,,,,,,,,,,,,,,,,,,,,,,,,,,,,,,,,,,,80,hormiga,,,,,446.1624,447.795,0,0,1.0853,,0,7,7,79,1,REAL,FAKE,,,,,,,,,,,,,,,,,
,,,,,,,,,5ec79b5033c65502ce2acade,Spanish,13 or older,"no, only English or Spanish",no,2025-08-12_14h02.58.481,empathy_intonation_perc,2024.2.4,Win32,59.88023952,5ec79b5033c65502ce2acade,687ed1b7e638a4cbf2f02089,689b818b82eeccedfb015033,,,,,,,,,,,,,,0,,,,,,,,,,,,,,,,,,,,,,,,,,,,,,,,,,,,,,,,,,,,,,,,,,,,,,,,,8,cadeña,,,,,447.796,449.0826,1,0,0.7499,,0,8,8,7,1,REAL,FAKE,,,,,,,,,,,,,,,,,
,,,,,,,,,5ec79b5033c65502ce2acade,Spanish,13 or older,"no, only English or Spanish",no,2025-08-12_14h02.58.481,empathy_intonation_perc,2024.2.4,Win32,59.88023952,5ec79b5033c65502ce2acade,687ed1b7e638a4cbf2f02089,689b818b82eeccedfb015033,,,,,,,,,,,,,,1,,,,,,,,,,,,,,,,,,,,,,,,,,,,,,,,,,,,,,,,,,,,,,,,,,,,,,,,,51,candado,,,,,449.0832,450.4784,1,1,0.8491,,0,9,9,50,1,REAL,FAKE,,,,,,,,,,,,,,,,,
,,,,,,,,,5ec79b5033c65502ce2acade,Spanish,13 or older,"no, only English or Spanish",no,2025-08-12_14h02.58.481,empathy_intonation_perc,2024.2.4,Win32,59.88023952,5ec79b5033c65502ce2acade,687ed1b7e638a4cbf2f02089,689b818b82eeccedfb015033,,,,,,,,,,,,,,0,,,,,,,,,,,,,,,,,,,,,,,,,,,,,,,,,,,,,,,,,,,,,,,,,,,,,,,,,19,brecedad,,,,,450.4792,451.945,0,1,0.925,,0,10,10,18,1,REAL,FAKE,,,,,,,,,,,,,,,,,
,,,,,,,,,5ec79b5033c65502ce2acade,Spanish,13 or older,"no, only English or Spanish",no,2025-08-12_14h02.58.481,empathy_intonation_perc,2024.2.4,Win32,59.88023952,5ec79b5033c65502ce2acade,687ed1b7e638a4cbf2f02089,689b818b82eeccedfb015033,,,,,,,,,,,,,,1,,,,,,,,,,,,,,,,,,,,,,,,,,,,,,,,,,,,,,,,,,,,,,,,,,,,,,,,,59,besar,,,,,451.9457,453.4451,1,1,0.9502,,0,11,11,58,1,REAL,FAKE,,,,,,,,,,,,,,,,,
,,,,,,,,,5ec79b5033c65502ce2acade,Spanish,13 or older,"no, only English or Spanish",no,2025-08-12_14h02.58.481,empathy_intonation_perc,2024.2.4,Win32,59.88023952,5ec79b5033c65502ce2acade,687ed1b7e638a4cbf2f02089,689b818b82eeccedfb015033,,,,,,,,,,,,,,0,,,,,,,,,,,,,,,,,,,,,,,,,,,,,,,,,,,,,,,,,,,,,,,,,,,,,,,,,79,tropaje,,,,,453.4459,454.9165,0,1,0.9337,,0,12,12,78,1,REAL,FAKE,,,,,,,,,,,,,,,,,
,,,,,,,,,5ec79b5033c65502ce2acade,Spanish,13 or older,"no, only English or Spanish",no,2025-08-12_14h02.58.481,empathy_intonation_perc,2024.2.4,Win32,59.88023952,5ec79b5033c65502ce2acade,687ed1b7e638a4cbf2f02089,689b818b82eeccedfb015033,,,,,,,,,,,,,,1,,,,,,,,,,,,,,,,,,,,,,,,,,,,,,,,,,,,,,,,,,,,,,,,,,,,,,,,,45,jilguero,,,,,454.9172,456.4118,0,0,0.9505,,0,13,13,44,1,REAL,FAKE,,,,,,,,,,,,,,,,,
,,,,,,,,,5ec79b5033c65502ce2acade,Spanish,13 or older,"no, only English or Spanish",no,2025-08-12_14h02.58.481,empathy_intonation_perc,2024.2.4,Win32,59.88023952,5ec79b5033c65502ce2acade,687ed1b7e638a4cbf2f02089,689b818b82eeccedfb015033,,,,,,,,,,,,,,1,,,,,,,,,,,,,,,,,,,,,,,,,,,,,,,,,,,,,,,,,,,,,,,,,,,,,,,,,3,pulmones,,,,,456.4126,457.795,0,0,0.8331,,0,14,14,2,1,REAL,FAKE,,,,,,,,,,,,,,,,,
,,,,,,,,,5ec79b5033c65502ce2acade,Spanish,13 or older,"no, only English or Spanish",no,2025-08-12_14h02.58.481,empathy_intonation_perc,2024.2.4,Win32,59.88023952,5ec79b5033c65502ce2acade,687ed1b7e638a4cbf2f02089,689b818b82eeccedfb015033,,,,,,,,,,,,,,1,,,,,,,,,,,,,,,,,,,,,,,,,,,,,,,,,,,,,,,,,,,,,,,,,,,,,,,,,38,estornudar,,,,,457.7958,460.045,0,0,1.703,,0,15,15,37,1,REAL,FAKE,,,,,,,,,,,,,,,,,
,,,,,,,,,5ec79b5033c65502ce2acade,Spanish,13 or older,"no, only English or Spanish",no,2025-08-12_14h02.58.481,empathy_intonation_perc,2024.2.4,Win32,59.88023952,5ec79b5033c65502ce2acade,687ed1b7e638a4cbf2f02089,689b818b82eeccedfb015033,,,,,,,,,,,,,,0,,,,,,,,,,,,,,,,,,,,,,,,,,,,,,,,,,,,,,,,,,,,,,,,,,,,,,,,,30,alardio,,,,,460.0457,461.3283,1,0,0.743,,0,16,16,29,1,REAL,FAKE,,,,,,,,,,,,,,,,,
,,,,,,,,,5ec79b5033c65502ce2acade,Spanish,13 or older,"no, only English or Spanish",no,2025-08-12_14h02.58.481,empathy_intonation_perc,2024.2.4,Win32,59.88023952,5ec79b5033c65502ce2acade,687ed1b7e638a4cbf2f02089,689b818b82eeccedfb015033,,,,,,,,,,,,,,1,,,,,,,,,,,,,,,,,,,,,,,,,,,,,,,,,,,,,,,,,,,,,,,,,,,,,,,,,48,ladrón,,,,,461.3291,462.5283,1,1,0.6507,,0,17,17,47,1,REAL,FAKE,,,,,,,,,,,,,,,,,
,,,,,,,,,5ec79b5033c65502ce2acade,Spanish,13 or older,"no, only English or Spanish",no,2025-08-12_14h02.58.481,empathy_intonation_perc,2024.2.4,Win32,59.88023952,5ec79b5033c65502ce2acade,687ed1b7e638a4cbf2f02089,689b818b82eeccedfb015033,,,,,,,,,,,,,,1,,,,,,,,,,,,,,,,,,,,,,,,,,,,,,,,,,,,,,,,,,,,,,,,,,,,,,,,,37,granuja,,,,,462.529,464.5783,1,1,1.5108,,0,18,18,36,1,REAL,FAKE,,,,,,,,,,,,,,,,,
,,,,,,,,,5ec79b5033c65502ce2acade,Spanish,13 or older,"no, only English or Spanish",no,2025-08-12_14h02.58.481,empathy_intonation_perc,2024.2.4,Win32,59.88023952,5ec79b5033c65502ce2acade,687ed1b7e638a4cbf2f02089,689b818b82eeccedfb015033,,,,,,,,,,,,,,0,,,,,,,,,,,,,,,,,,,,,,,,,,,,,,,,,,,,,,,,,,,,,,,,,,,,,,,,,1,terzo,,,,,464.5792,466.2116,1,0,1.0937,,0,19,19,0,1,REAL,FAKE,,,,,,,,,,,,,,,,,
,,,,,,,,,5ec79b5033c65502ce2acade,Spanish,13 or older,"no, only English or Spanish",no,2025-08-12_14h02.58.481,empathy_intonation_perc,2024.2.4,Win32,59.88023952,5ec79b5033c65502ce2acade,687ed1b7e638a4cbf2f02089,689b818b82eeccedfb015033,,,,,,,,,,,,,,1,,,,,,,,,,,,,,,,,,,,,,,,,,,,,,,,,,,,,,,,,,,,,,,,,,,,,,,,,57,tacaño,,,,,466.2124,467.9449,0,0,1.1831,,0,20,20,56,1,REAL,FAKE,,,,,,,,,,,,,,,,,
,,,,,,,,,5ec79b5033c65502ce2acade,Spanish,13 or older,"no, only English or Spanish",no,2025-08-12_14h02.58.481,empathy_intonation_perc,2024.2.4,Win32,59.88023952,5ec79b5033c65502ce2acade,687ed1b7e638a4cbf2f02089,689b818b82eeccedfb015033,,,,,,,,,,,,,,1,,,,,,,,,,,,,,,,,,,,,,,,,,,,,,,,,,,,,,,,,,,,,,,,,,,,,,,,,46,martillo,,,,,467.9457,469.6116,0,0,1.1232,,0,21,21,45,1,REAL,FAKE,,,,,,,,,,,,,,,,,
,,,,,,,,,5ec79b5033c65502ce2acade,Spanish,13 or older,"no, only English or Spanish",no,2025-08-12_14h02.58.481,empathy_intonation_perc,2024.2.4,Win32,59.88023952,5ec79b5033c65502ce2acade,687ed1b7e638a4cbf2f02089,689b818b82eeccedfb015033,,,,,,,,,,,,,,0,,,,,,,,,,,,,,,,,,,,,,,,,,,,,,,,,,,,,,,,,,,,,,,,,,,,,,,,,84,escuto,,,,,469.6125,471.0616,1,0,0.902,,0,22,22,83,1,REAL,FAKE,,,,,,,,,,,,,,,,,
,,,,,,,,,5ec79b5033c65502ce2acade,Spanish,13 or older,"no, only English or Spanish",no,2025-08-12_14h02.58.481,empathy_intonation_perc,2024.2.4,Win32,59.88023952,5ec79b5033c65502ce2acade,687ed1b7e638a4cbf2f02089,689b818b82eeccedfb015033,,,,,,,,,,,,,,1,,,,,,,,,,,,,,,,,,,,,,,,,,,,,,,,,,,,,,,,,,,,,,,,,,,,,,,,,20,ávido,,,,,471.0626,472.4283,0,0,0.8244,,0,23,23,19,1,REAL,FAKE,,,,,,,,,,,,,,,,,
,,,,,,,,,5ec79b5033c65502ce2acade,Spanish,13 or older,"no, only English or Spanish",no,2025-08-12_14h02.58.481,empathy_intonation_perc,2024.2.4,Win32,59.88023952,5ec79b5033c65502ce2acade,687ed1b7e638a4cbf2f02089,689b818b82eeccedfb015033,,,,,,,,,,,,,,0,,,,,,,,,,,,,,,,,,,,,,,,,,,,,,,,,,,,,,,,,,,,,,,,,,,,,,,,,16,abracer,,,,,472.4291,473.7615,1,0,0.7898,,0,24,24,15,1,REAL,FAKE,,,,,,,,,,,,,,,,,
,,,,,,,,,5ec79b5033c65502ce2acade,Spanish,13 or older,"no, only English or Spanish",no,2025-08-12_14h02.58.481,empathy_intonation_perc,2024.2.4,Win32,59.88023952,5ec79b5033c65502ce2acade,687ed1b7e638a4cbf2f02089,689b818b82eeccedfb015033,,,,,,,,,,,,,,1,,,,,,,,,,,,,,,,,,,,,,,,,,,,,,,,,,,,,,,,,,,,,,,,,,,,,,,,,69,engatusar,,,,,473.7623,475.0951,1,1,0.7935,,0,25,25,68,1,REAL,FAKE,,,,,,,,,,,,,,,,,
,,,,,,,,,5ec79b5033c65502ce2acade,Spanish,13 or older,"no, only English or Spanish",no,2025-08-12_14h02.58.481,empathy_intonation_perc,2024.2.4,Win32,59.88023952,5ec79b5033c65502ce2acade,687ed1b7e638a4cbf2f02089,689b818b82eeccedfb015033,,,,,,,,,,,,,,1,,,,,,,,,,,,,,,,,,,,,,,,,,,,,,,,,,,,,,,,,,,,,,,,,,,,,,,,,43,canela,,,,,475.0959,476.5282,1,1,0.8911,,0,26,26,42,1,REAL,FAKE,,,,,,,,,,,,,,,,,
,,,,,,,,,5ec79b5033c65502ce2acade,Spanish,13 or older,"no, only English or Spanish",no,2025-08-12_14h02.58.481,empathy_intonation_perc,2024.2.4,Win32,59.88023952,5ec79b5033c65502ce2acade,687ed1b7e638a4cbf2f02089,689b818b82eeccedfb015033,,,,,,,,,,,,,,1,,,,,,,,,,,,,,,,,,,,,,,,,,,,,,,,,,,,,,,,,,,,,,,,,,,,,,,,,34,aviso,,,,,476.529,477.8283,0,0,0.7518,,0,27,27,33,1,REAL,FAKE,,,,,,,,,,,,,,,,,
,,,,,,,,,5ec79b5033c65502ce2acade,Spanish,13 or older,"no, only English or Spanish",no,2025-08-12_14h02.58.481,empathy_intonation_perc,2024.2.4,Win32,59.88023952,5ec79b5033c65502ce2acade,687ed1b7e638a4cbf2f02089,689b818b82eeccedfb015033,,,,,,,,,,,,,,1,,,,,,,,,,,,,,,,,,,,,,,,,,,,,,,,,,,,,,,,,,,,,,,,,,,,,,,,,2,pellizcar,,,,,477.829,479.7115,0,0,1.3377,,0,28,28,1,1,REAL,FAKE,,,,,,,,,,,,,,,,,
,,,,,,,,,5ec79b5033c65502ce2acade,Spanish,13 or older,"no, only English or Spanish",no,2025-08-12_14h02.58.481,empathy_intonation_perc,2024.2.4,Win32,59.88023952,5ec79b5033c65502ce2acade,687ed1b7e638a4cbf2f02089,689b818b82eeccedfb015033,,,,,,,,,,,,,,1,,,,,,,,,,,,,,,,,,,,,,,,,,,,,,,,,,,,,,,,,,,,,,,,,,,,,,,,,52,camisa,,,,,479.7121,481.0282,1,1,0.7668,,0,29,29,51,1,REAL,FAKE,,,,,,,,,,,,,,,,,
,,,,,,,,,5ec79b5033c65502ce2acade,Spanish,13 or older,"no, only English or Spanish",no,2025-08-12_14h02.58.481,empathy_intonation_perc,2024.2.4,Win32,59.88023952,5ec79b5033c65502ce2acade,687ed1b7e638a4cbf2f02089,689b818b82eeccedfb015033,,,,,,,,,,,,,,0,,,,,,,,,,,,,,,,,,,,,,,,,,,,,,,,,,,,,,,,,,,,,,,,,,,,,,,,,4,batillón,,,,,481.029,482.5949,0,1,1.0166,,0,30,30,3,1,REAL,FAKE,,,,,,,,,,,,,,,,,
,,,,,,,,,5ec79b5033c65502ce2acade,Spanish,13 or older,"no, only English or Spanish",no,2025-08-12_14h02.58.481,empathy_intonation_perc,2024.2.4,Win32,59.88023952,5ec79b5033c65502ce2acade,687ed1b7e638a4cbf2f02089,689b818b82eeccedfb015033,,,,,,,,,,,,,,1,,,,,,,,,,,,,,,,,,,,,,,,,,,,,,,,,,,,,,,,,,,,,,,,,,,,,,,,,41,rebuscar,,,,,482.5957,484.2782,0,0,1.1451,,0,31,31,40,1,REAL,FAKE,,,,,,,,,,,,,,,,,
,,,,,,,,,5ec79b5033c65502ce2acade,Spanish,13 or older,"no, only English or Spanish",no,2025-08-12_14h02.58.481,empathy_intonation_perc,2024.2.4,Win32,59.88023952,5ec79b5033c65502ce2acade,687ed1b7e638a4cbf2f02089,689b818b82eeccedfb015033,,,,,,,,,,,,,,1,,,,,,,,,,,,,,,,,,,,,,,,,,,,,,,,,,,,,,,,,,,,,,,,,,,,,,,,,76,atar,,,,,484.2789,486.3617,0,0,1.535,,0,32,32,75,1,REAL,FAKE,,,,,,,,,,,,,,,,,
,,,,,,,,,5ec79b5033c65502ce2acade,Spanish,13 or older,"no, only English or Spanish",no,2025-08-12_14h02.58.481,empathy_intonation_perc,2024.2.4,Win32,59.88023952,5ec79b5033c65502ce2acade,687ed1b7e638a4cbf2f02089,689b818b82eeccedfb015033,,,,,,,,,,,,,,1,,,,,,,,,,,,,,,,,,,,,,,,,,,,,,,,,,,,,,,,,,,,,,,,,,,,,,,,,86,barato,,,,,486.3624,487.545,1,1,0.6416,,0,33,33,85,1,REAL,FAKE,,,,,,,,,,,,,,,,,
,,,,,,,,,5ec79b5033c65502ce2acade,Spanish,13 or older,"no, only English or Spanish",no,2025-08-12_14h02.58.481,empathy_intonation_perc,2024.2.4,Win32,59.88023952,5ec79b5033c65502ce2acade,687ed1b7e638a4cbf2f02089,689b818b82eeccedfb015033,,,,,,,,,,,,,,0,,,,,,,,,,,,,,,,,,,,,,,,,,,,,,,,,,,,,,,,,,,,,,,,,,,,,,,,,42,cadallo,,,,,487.5456,488.7283,1,0,0.6393,,0,34,34,41,1,REAL,FAKE,,,,,,,,,,,,,,,,,
,,,,,,,,,5ec79b5033c65502ce2acade,Spanish,13 or older,"no, only English or Spanish",no,2025-08-12_14h02.58.481,empathy_intonation_perc,2024.2.4,Win32,59.88023952,5ec79b5033c65502ce2acade,687ed1b7e638a4cbf2f02089,689b818b82eeccedfb015033,,,,,,,,,,,,,,1,,,,,,,,,,,,,,,,,,,,,,,,,,,,,,,,,,,,,,,,,,,,,,,,,,,,,,,,,65,bizcocho,,,,,488.7291,489.995,0,0,0.7172,,0,35,35,64,1,REAL,FAKE,,,,,,,,,,,,,,,,,
,,,,,,,,,5ec79b5033c65502ce2acade,Spanish,13 or older,"no, only English or Spanish",no,2025-08-12_14h02.58.481,empathy_intonation_perc,2024.2.4,Win32,59.88023952,5ec79b5033c65502ce2acade,687ed1b7e638a4cbf2f02089,689b818b82eeccedfb015033,,,,,,,,,,,,,,0,,,,,,,,,,,,,,,,,,,,,,,,,,,,,,,,,,,,,,,,,,,,,,,,,,,,,,,,,63,esposante,,,,,489.9957,491.545,1,0,1.0011,,0,36,36,62,1,REAL,FAKE,,,,,,,,,,,,,,,,,
,,,,,,,,,5ec79b5033c65502ce2acade,Spanish,13 or older,"no, only English or Spanish",no,2025-08-12_14h02.58.481,empathy_intonation_perc,2024.2.4,Win32,59.88023952,5ec79b5033c65502ce2acade,687ed1b7e638a4cbf2f02089,689b818b82eeccedfb015033,,,,,,,,,,,,,,1,,,,,,,,,,,,,,,,,,,,,,,,,,,,,,,,,,,,,,,,,,,,,,,,,,,,,,,,,9,hacha,,,,,491.5457,492.7117,1,1,0.6204,,0,37,37,8,1,REAL,FAKE,,,,,,,,,,,,,,,,,
,,,,,,,,,5ec79b5033c65502ce2acade,Spanish,13 or older,"no, only English or Spanish",no,2025-08-12_14h02.58.481,empathy_intonation_perc,2024.2.4,Win32,59.88023952,5ec79b5033c65502ce2acade,687ed1b7e638a4cbf2f02089,689b818b82eeccedfb015033,,,,,,,,,,,,,,0,,,,,,,,,,,,,,,,,,,,,,,,,,,,,,,,,,,,,,,,,,,,,,,,,,,,,,,,,10,antar,,,,,492.7126,494.3117,0,1,1.0499,,0,38,38,9,1,REAL,FAKE,,,,,,,,,,,,,,,,,
,,,,,,,,,5ec79b5033c65502ce2acade,Spanish,13 or older,"no, only English or Spanish",no,2025-08-12_14h02.58.481,empathy_intonation_perc,2024.2.4,Win32,59.88023952,5ec79b5033c65502ce2acade,687ed1b7e638a4cbf2f02089,689b818b82eeccedfb015033,,,,,,,,,,,,,,1,,,,,,,,,,,,,,,,,,,,,,,,,,,,,,,,,,,,,,,,,,,,,,,,,,,,,,,,,15,regar,,,,,494.3125,496.0615,1,1,1.2076,,0,39,39,14,1,REAL,FAKE,,,,,,,,,,,,,,,,,
,,,,,,,,,5ec79b5033c65502ce2acade,Spanish,13 or older,"no, only English or Spanish",no,2025-08-12_14h02.58.481,empathy_intonation_perc,2024.2.4,Win32,59.88023952,5ec79b5033c65502ce2acade,687ed1b7e638a4cbf2f02089,689b818b82eeccedfb015033,,,,,,,,,,,,,,1,,,,,,,,,,,,,,,,,,,,,,,,,,,,,,,,,,,,,,,,,,,,,,,,,,,,,,,,,62,flaco,,,,,496.0622,497.528,0,0,0.9236,,0,40,40,61,1,REAL,FAKE,,,,,,,,,,,,,,,,,
,,,,,,,,,5ec79b5033c65502ce2acade,Spanish,13 or older,"no, only English or Spanish",no,2025-08-12_14h02.58.481,empathy_intonation_perc,2024.2.4,Win32,59.88023952,5ec79b5033c65502ce2acade,687ed1b7e638a4cbf2f02089,689b818b82eeccedfb015033,,,,,,,,,,,,,,0,,,,,,,,,,,,,,,,,,,,,,,,,,,,,,,,,,,,,,,,,,,,,,,,,,,,,,,,,82,empirador,,,,,497.5287,498.9614,1,0,0.8838,,0,41,41,81,1,REAL,FAKE,,,,,,,,,,,,,,,,,
,,,,,,,,,5ec79b5033c65502ce2acade,Spanish,13 or older,"no, only English or Spanish",no,2025-08-12_14h02.58.481,empathy_intonation_perc,2024.2.4,Win32,59.88023952,5ec79b5033c65502ce2acade,687ed1b7e638a4cbf2f02089,689b818b82eeccedfb015033,,,,,,,,,,,,,,1,,,,,,,,,,,,,,,,,,,,,,,,,,,,,,,,,,,,,,,,,,,,,,,,,,,,,,,,,40,alfombra,,,,,498.9621,500.1117,1,1,0.5998,,0,42,42,39,1,REAL,FAKE,,,,,,,,,,,,,,,,,
,,,,,,,,,5ec79b5033c65502ce2acade,Spanish,13 or older,"no, only English or Spanish",no,2025-08-12_14h02.58.481,empathy_intonation_perc,2024.2.4,Win32,59.88023952,5ec79b5033c65502ce2acade,687ed1b7e638a4cbf2f02089,689b818b82eeccedfb015033,,,,,,,,,,,,,,1,,,,,,,,,,,,,,,,,,,,,,,,,,,,,,,,,,,,,,,,,,,,,,,,,,,,,,,,,13,helar,,,,,500.1124,501.3947,0,0,0.7346,,0,43,43,12,1,REAL,FAKE,,,,,,,,,,,,,,,,,
,,,,,,,,,5ec79b5033c65502ce2acade,Spanish,13 or older,"no, only English or Spanish",no,2025-08-12_14h02.58.481,empathy_intonation_perc,2024.2.4,Win32,59.88023952,5ec79b5033c65502ce2acade,687ed1b7e638a4cbf2f02089,689b818b82eeccedfb015033,,,,,,,,,,,,,,1,,,,,,,,,,,,,,,,,,,,,,,,,,,,,,,,,,,,,,,,,,,,,,,,,,,,,,,,,83,guante,,,,,501.3956,502.8115,0,0,0.8711,,0,44,44,82,1,REAL,FAKE,,,,,,,,,,,,,,,,,
,,,,,,,,,5ec79b5033c65502ce2acade,Spanish,13 or older,"no, only English or Spanish",no,2025-08-12_14h02.58.481,empathy_intonation_perc,2024.2.4,Win32,59.88023952,5ec79b5033c65502ce2acade,687ed1b7e638a4cbf2f02089,689b818b82eeccedfb015033,,,,,,,,,,,,,,0,,,,,,,,,,,,,,,,,,,,,,,,,,,,,,,,,,,,,,,,,,,,,,,,,,,,,,,,,35,rompido,,,,,502.8122,504.0312,0,1,0.6823,,0,45,45,34,1,REAL,FAKE,,,,,,,,,,,,,,,,,
,,,,,,,,,5ec79b5033c65502ce2acade,Spanish,13 or older,"no, only English or Spanish",no,2025-08-12_14h02.58.481,empathy_intonation_perc,2024.2.4,Win32,59.88023952,5ec79b5033c65502ce2acade,687ed1b7e638a4cbf2f02089,689b818b82eeccedfb015033,,,,,,,,,,,,,,1,,,,,,,,,,,,,,,,,,,,,,,,,,,,,,,,,,,,,,,,,,,,,,,,,,,,,,,,,60,matar,,,,,504.0319,505.4447,0,0,0.8749,,0,46,46,59,1,REAL,FAKE,,,,,,,,,,,,,,,,,
,,,,,,,,,5ec79b5033c65502ce2acade,Spanish,13 or older,"no, only English or Spanish",no,2025-08-12_14h02.58.481,empathy_intonation_perc,2024.2.4,Win32,59.88023952,5ec79b5033c65502ce2acade,687ed1b7e638a4cbf2f02089,689b818b82eeccedfb015033,,,,,,,,,,,,,,1,,,,,,,,,,,,,,,,,,,,,,,,,,,,,,,,,,,,,,,,,,,,,,,,,,,,,,,,,7,pésimo,,,,,505.4454,507.7447,0,0,1.7497,,0,47,47,6,1,REAL,FAKE,,,,,,,,,,,,,,,,,
,,,,,,,,,5ec79b5033c65502ce2acade,Spanish,13 or older,"no, only English or Spanish",no,2025-08-12_14h02.58.481,empathy_intonation_perc,2024.2.4,Win32,59.88023952,5ec79b5033c65502ce2acade,687ed1b7e638a4cbf2f02089,689b818b82eeccedfb015033,,,,,,,,,,,,,,1,,,,,,,,,,,,,,,,,,,,,,,,,,,,,,,,,,,,,,,,,,,,,,,,,,,,,,,,,64,orgulloso,,,,,507.7455,508.9449,0,0,0.6583,,0,48,48,63,1,REAL,FAKE,,,,,,,,,,,,,,,,,
,,,,,,,,,5ec79b5033c65502ce2acade,Spanish,13 or older,"no, only English or Spanish",no,2025-08-12_14h02.58.481,empathy_intonation_perc,2024.2.4,Win32,59.88023952,5ec79b5033c65502ce2acade,687ed1b7e638a4cbf2f02089,689b818b82eeccedfb015033,,,,,,,,,,,,,,0,,,,,,,,,,,,,,,,,,,,,,,,,,,,,,,,,,,,,,,,,,,,,,,,,,,,,,,,,18,arsa,,,,,508.9456,510.1782,0,1,0.6853,,0,49,49,17,1,REAL,FAKE,,,,,,,,,,,,,,,,,
,,,,,,,,,5ec79b5033c65502ce2acade,Spanish,13 or older,"no, only English or Spanish",no,2025-08-12_14h02.58.481,empathy_intonation_perc,2024.2.4,Win32,59.88023952,5ec79b5033c65502ce2acade,687ed1b7e638a4cbf2f02089,689b818b82eeccedfb015033,,,,,,,,,,,,,,0,,,,,,,,,,,,,,,,,,,,,,,,,,,,,,,,,,,,,,,,,,,,,,,,,,,,,,,,,33,pauca,,,,,510.179,511.4448,0,1,0.7291,,0,50,50,32,1,REAL,FAKE,,,,,,,,,,,,,,,,,
,,,,,,,,,5ec79b5033c65502ce2acade,Spanish,13 or older,"no, only English or Spanish",no,2025-08-12_14h02.58.481,empathy_intonation_perc,2024.2.4,Win32,59.88023952,5ec79b5033c65502ce2acade,687ed1b7e638a4cbf2f02089,689b818b82eeccedfb015033,,,,,,,,,,,,,,1,,,,,,,,,,,,,,,,,,,,,,,,,,,,,,,,,,,,,,,,,,,,,,,,,,,,,,,,,26,secuestro,,,,,511.4455,512.6947,0,0,0.7092,,0,51,51,25,1,REAL,FAKE,,,,,,,,,,,,,,,,,
,,,,,,,,,5ec79b5033c65502ce2acade,Spanish,13 or older,"no, only English or Spanish",no,2025-08-12_14h02.58.481,empathy_intonation_perc,2024.2.4,Win32,59.88023952,5ec79b5033c65502ce2acade,687ed1b7e638a4cbf2f02089,689b818b82eeccedfb015033,,,,,,,,,,,,,,0,,,,,,,,,,,,,,,,,,,,,,,,,,,,,,,,,,,,,,,,,,,,,,,,,,,,,,,,,58,plaudir,,,,,512.6956,513.7946,1,0,0.5602,,0,52,52,57,1,REAL,FAKE,,,,,,,,,,,,,,,,,
,,,,,,,,,5ec79b5033c65502ce2acade,Spanish,13 or older,"no, only English or Spanish",no,2025-08-12_14h02.58.481,empathy_intonation_perc,2024.2.4,Win32,59.88023952,5ec79b5033c65502ce2acade,687ed1b7e638a4cbf2f02089,689b818b82eeccedfb015033,,,,,,,,,,,,,,1,,,,,,,,,,,,,,,,,,,,,,,,,,,,,,,,,,,,,,,,,,,,,,,,,,,,,,,,,67,cabello,,,,,513.7954,514.9617,1,1,0.6293,,0,53,53,66,1,REAL,FAKE,,,,,,,,,,,,,,,,,
,,,,,,,,,5ec79b5033c65502ce2acade,Spanish,13 or older,"no, only English or Spanish",no,2025-08-12_14h02.58.481,empathy_intonation_perc,2024.2.4,Win32,59.88023952,5ec79b5033c65502ce2acade,687ed1b7e638a4cbf2f02089,689b818b82eeccedfb015033,,,,,,,,,,,,,,1,,,,,,,,,,,,,,,,,,,,,,,,,,,,,,,,,,,,,,,,,,,,,,,,,,,,,,,,,68,alegre,,,,,514.9623,516.178,1,1,0.6664,,0,54,54,67,1,REAL,FAKE,,,,,,,,,,,,,,,,,
,,,,,,,,,5ec79b5033c65502ce2acade,Spanish,13 or older,"no, only English or Spanish",no,2025-08-12_14h02.58.481,empathy_intonation_perc,2024.2.4,Win32,59.88023952,5ec79b5033c65502ce2acade,687ed1b7e638a4cbf2f02089,689b818b82eeccedfb015033,,,,,,,,,,,,,,0,,,,,,,,,,,,,,,,,,,,,,,,,,,,,,,,,,,,,,,,,,,,,,,,,,,,,,,,,53,vegada,,,,,516.1786,517.4166,1,0,0.701,,0,55,55,52,1,REAL,FAKE,,,,,,,,,,,,,,,,,
,,,,,,,,,5ec79b5033c65502ce2acade,Spanish,13 or older,"no, only English or Spanish",no,2025-08-12_14h02.58.481,empathy_intonation_perc,2024.2.4,Win32,59.88023952,5ec79b5033c65502ce2acade,687ed1b7e638a4cbf2f02089,689b818b82eeccedfb015033,,,,,,,,,,,,,,0,,,,,,,,,,,,,,,,,,,,,,,,,,,,,,,,,,,,,,,,,,,,,,,,,,,,,,,,,23,lampera,,,,,517.4171,518.5948,1,0,0.6409,,0,56,56,22,1,REAL,FAKE,,,,,,,,,,,,,,,,,
,,,,,,,,,5ec79b5033c65502ce2acade,Spanish,13 or older,"no, only English or Spanish",no,2025-08-12_14h02.58.481,empathy_intonation_perc,2024.2.4,Win32,59.88023952,5ec79b5033c65502ce2acade,687ed1b7e638a4cbf2f02089,689b818b82eeccedfb015033,,,,,,,,,,,,,,1,,,,,,,,,,,,,,,,,,,,,,,,,,,,,,,,,,,,,,,,,,,,,,,,,,,,,,,,,56,musgo,,,,,518.5956,519.8281,1,1,0.6955,,0,57,57,55,1,REAL,FAKE,,,,,,,,,,,,,,,,,
,,,,,,,,,5ec79b5033c65502ce2acade,Spanish,13 or older,"no, only English or Spanish",no,2025-08-12_14h02.58.481,empathy_intonation_perc,2024.2.4,Win32,59.88023952,5ec79b5033c65502ce2acade,687ed1b7e638a4cbf2f02089,689b818b82eeccedfb015033,,,,,,,,,,,,,,1,,,,,,,,,,,,,,,,,,,,,,,,,,,,,,,,,,,,,,,,,,,,,,,,,,,,,,,,,6,tergiversar,,,,,519.8288,521.7282,1,1,1.3497,,0,58,58,5,1,REAL,FAKE,,,,,,,,,,,,,,,,,
,,,,,,,,,5ec79b5033c65502ce2acade,Spanish,13 or older,"no, only English or Spanish",no,2025-08-12_14h02.58.481,empathy_intonation_perc,2024.2.4,Win32,59.88023952,5ec79b5033c65502ce2acade,687ed1b7e638a4cbf2f02089,689b818b82eeccedfb015033,,,,,,,,,,,,,,0,,,,,,,,,,,,,,,,,,,,,,,,,,,,,,,,,,,,,,,,,,,,,,,,,,,,,,,,,87,grodo,,,,,521.7288,523.0448,1,0,0.7664,,0,59,59,86,1,REAL,FAKE,,,,,,,,,,,,,,,,,
,,,,,,,,,5ec79b5033c65502ce2acade,Spanish,13 or older,"no, only English or Spanish",no,2025-08-12_14h02.58.481,empathy_intonation_perc,2024.2.4,Win32,59.88023952,5ec79b5033c65502ce2acade,687ed1b7e638a4cbf2f02089,689b818b82eeccedfb015033,,,,,,,,,,,,,,1,,,,,,,,,,,,,,,,,,,,,,,,,,,,,,,,,,,,,,,,,,,,,,,,,,,,,,,,,88,acantilado,,,,,523.0456,524.3281,1,1,0.7443,,0,60,60,87,1,REAL,FAKE,,,,,,,,,,,,,,,,,
,,,,,,,,,5ec79b5033c65502ce2acade,Spanish,13 or older,"no, only English or Spanish",no,2025-08-12_14h02.58.481,empathy_intonation_perc,2024.2.4,Win32,59.88023952,5ec79b5033c65502ce2acade,687ed1b7e638a4cbf2f02089,689b818b82eeccedfb015033,,,,,,,,,,,,,,0,,,,,,,,,,,,,,,,,,,,,,,,,,,,,,,,,,,,,,,,,,,,,,,,,,,,,,,,,29,decar,,,,,524.3288,525.8614,0,1,0.9831,,0,61,61,28,1,REAL,FAKE,,,,,,,,,,,,,,,,,
,,,,,,,,,5ec79b5033c65502ce2acade,Spanish,13 or older,"no, only English or Spanish",no,2025-08-12_14h02.58.481,empathy_intonation_perc,2024.2.4,Win32,59.88023952,5ec79b5033c65502ce2acade,687ed1b7e638a4cbf2f02089,689b818b82eeccedfb015033,,,,,,,,,,,,,,1,,,,,,,,,,,,,,,,,,,,,,,,,,,,,,,,,,,,,,,,,,,,,,,,,,,,,,,,,31,pandilla,,,,,525.8622,527.1948,1,1,0.7847,,0,62,62,30,1,REAL,FAKE,,,,,,,,,,,,,,,,,
,,,,,,,,,5ec79b5033c65502ce2acade,Spanish,13 or older,"no, only English or Spanish",no,2025-08-12_14h02.58.481,empathy_intonation_perc,2024.2.4,Win32,59.88023952,5ec79b5033c65502ce2acade,687ed1b7e638a4cbf2f02089,689b818b82eeccedfb015033,,,,,,,,,,,,,,1,,,,,,,,,,,,,,,,,,,,,,,,,,,,,,,,,,,,,,,,,,,,,,,,,,,,,,,,,5,zapato,,,,,527.1956,528.5279,1,1,0.7925,,0,63,63,4,1,REAL,FAKE,,,,,,,,,,,,,,,,,
,,,,,,,,,5ec79b5033c65502ce2acade,Spanish,13 or older,"no, only English or Spanish",no,2025-08-12_14h02.58.481,empathy_intonation_perc,2024.2.4,Win32,59.88023952,5ec79b5033c65502ce2acade,687ed1b7e638a4cbf2f02089,689b818b82eeccedfb015033,,,,,,,,,,,,,,0,,,,,,,,,,,,,,,,,,,,,,,,,,,,,,,,,,,,,,,,,,,,,,,,,,,,,,,,,47,cartinar,,,,,528.5287,530.649,0,1,1.5836,,0,64,64,46,1,REAL,FAKE,,,,,,,,,,,,,,,,,
,,,,,,,,,5ec79b5033c65502ce2acade,Spanish,13 or older,"no, only English or Spanish",no,2025-08-12_14h02.58.481,empathy_intonation_perc,2024.2.4,Win32,59.88023952,5ec79b5033c65502ce2acade,687ed1b7e638a4cbf2f02089,689b818b82eeccedfb015033,,,,,,,,,,,,,,1,,,,,,,,,,,,,,,,,,,,,,,,,,,,,,,,,,,,,,,,,,,,,,,,,,,,,,,,,61,seda,,,,,530.6498,531.878,0,0,0.6925,,0,65,65,60,1,REAL,FAKE,,,,,,,,,,,,,,,,,
,,,,,,,,,5ec79b5033c65502ce2acade,Spanish,13 or older,"no, only English or Spanish",no,2025-08-12_14h02.58.481,empathy_intonation_perc,2024.2.4,Win32,59.88023952,5ec79b5033c65502ce2acade,687ed1b7e638a4cbf2f02089,689b818b82eeccedfb015033,,,,,,,,,,,,,,1,,,,,,,,,,,,,,,,,,,,,,,,,,,,,,,,,,,,,,,,,,,,,,,,,,,,,,,,,49,ganar,,,,,531.8787,533.2445,0,0,0.823,,0,66,66,48,1,REAL,FAKE,,,,,,,,,,,,,,,,,
,,,,,,,,,5ec79b5033c65502ce2acade,Spanish,13 or older,"no, only English or Spanish",no,2025-08-12_14h02.58.481,empathy_intonation_perc,2024.2.4,Win32,59.88023952,5ec79b5033c65502ce2acade,687ed1b7e638a4cbf2f02089,689b818b82eeccedfb015033,,,,,,,,,,,,,,0,,,,,,,,,,,,,,,,,,,,,,,,,,,,,,,,,,,,,,,,,,,,,,,,,,,,,,,,,32,fatacidad,,,,,533.2453,534.9113,0,1,1.1264,,0,67,67,31,1,REAL,FAKE,,,,,,,,,,,,,,,,,
,,,,,,,,,5ec79b5033c65502ce2acade,Spanish,13 or older,"no, only English or Spanish",no,2025-08-12_14h02.58.481,empathy_intonation_perc,2024.2.4,Win32,59.88023952,5ec79b5033c65502ce2acade,687ed1b7e638a4cbf2f02089,689b818b82eeccedfb015033,,,,,,,,,,,,,,1,,,,,,,,,,,,,,,,,,,,,,,,,,,,,,,,,,,,,,,,,,,,,,,,,,,,,,,,,78,frondoso,,,,,534.912,536.3947,0,0,0.9331,,0,68,68,77,1,REAL,FAKE,,,,,,,,,,,,,,,,,
,,,,,,,,,5ec79b5033c65502ce2acade,Spanish,13 or older,"no, only English or Spanish",no,2025-08-12_14h02.58.481,empathy_intonation_perc,2024.2.4,Win32,59.88023952,5ec79b5033c65502ce2acade,687ed1b7e638a4cbf2f02089,689b818b82eeccedfb015033,,,,,,,,,,,,,,1,,,,,,,,,,,,,,,,,,,,,,,,,,,,,,,,,,,,,,,,,,,,,,,,,,,,,,,,,14,yunque,,,,,536.3954,537.678,0,0,0.7343,,0,69,69,13,1,REAL,FAKE,,,,,,,,,,,,,,,,,
,,,,,,,,,5ec79b5033c65502ce2acade,Spanish,13 or older,"no, only English or Spanish",no,2025-08-12_14h02.58.481,empathy_intonation_perc,2024.2.4,Win32,59.88023952,5ec79b5033c65502ce2acade,687ed1b7e638a4cbf2f02089,689b818b82eeccedfb015033,,,,,,,,,,,,,,0,,,,,,,,,,,,,,,,,,,,,,,,,,,,,,,,,,,,,,,,,,,,,,,,,,,,,,,,,66,hacido,,,,,537.6787,539.3445,1,0,1.127,,0,70,70,65,1,REAL,FAKE,,,,,,,,,,,,,,,,,
,,,,,,,,,5ec79b5033c65502ce2acade,Spanish,13 or older,"no, only English or Spanish",no,2025-08-12_14h02.58.481,empathy_intonation_perc,2024.2.4,Win32,59.88023952,5ec79b5033c65502ce2acade,687ed1b7e638a4cbf2f02089,689b818b82eeccedfb015033,,,,,,,,,,,,,,1,,,,,,,,,,,,,,,,,,,,,,,,,,,,,,,,,,,,,,,,,,,,,,,,,,,,,,,,,77,tiburón,,,,,539.3454,540.4612,0,0,0.5734,,0,71,71,76,1,REAL,FAKE,,,,,,,,,,,,,,,,,
,,,,,,,,,5ec79b5033c65502ce2acade,Spanish,13 or older,"no, only English or Spanish",no,2025-08-12_14h02.58.481,empathy_intonation_perc,2024.2.4,Win32,59.88023952,5ec79b5033c65502ce2acade,687ed1b7e638a4cbf2f02089,689b818b82eeccedfb015033,,,,,,,,,,,,,,0,,,,,,,,,,,,,,,,,,,,,,,,,,,,,,,,,,,,,,,,,,,,,,,,,,,,,,,,,74,cintro,,,,,540.4619,541.8946,0,1,0.8831,,0,72,72,73,1,REAL,FAKE,,,,,,,,,,,,,,,,,
,,,,,,,,,5ec79b5033c65502ce2acade,Spanish,13 or older,"no, only English or Spanish",no,2025-08-12_14h02.58.481,empathy_intonation_perc,2024.2.4,Win32,59.88023952,5ec79b5033c65502ce2acade,687ed1b7e638a4cbf2f02089,689b818b82eeccedfb015033,,,,,,,,,,,,,,0,,,,,,,,,,,,,,,,,,,,,,,,,,,,,,,,,,,,,,,,,,,,,,,,,,,,,,,,,17,floroso,,,,,541.8953,543.1643,0,1,0.7322,,0,73,73,16,1,REAL,FAKE,,,,,,,,,,,,,,,,,
,,,,,,,,,5ec79b5033c65502ce2acade,Spanish,13 or older,"no, only English or Spanish",no,2025-08-12_14h02.58.481,empathy_intonation_perc,2024.2.4,Win32,59.88023952,5ec79b5033c65502ce2acade,687ed1b7e638a4cbf2f02089,689b818b82eeccedfb015033,,,,,,,,,,,,,,1,,,,,,,,,,,,,,,,,,,,,,,,,,,,,,,,,,,,,,,,,,,,,,,,,,,,,,,,,73,hervidor,,,,,543.1649,544.3445,0,0,0.6346,,0,74,74,72,1,REAL,FAKE,,,,,,,,,,,,,,,,,
,,,,,,,,,5ec79b5033c65502ce2acade,Spanish,13 or older,"no, only English or Spanish",no,2025-08-12_14h02.58.481,empathy_intonation_perc,2024.2.4,Win32,59.88023952,5ec79b5033c65502ce2acade,687ed1b7e638a4cbf2f02089,689b818b82eeccedfb015033,,,,,,,,,,,,,,1,,,,,,,,,,,,,,,,,,,,,,,,,,,,,,,,,,,,,,,,,,,,,,,,,,,,,,,,,85,laúd,,,,,544.3455,545.8613,0,0,0.9664,,0,75,75,84,1,REAL,FAKE,,,,,,,,,,,,,,,,,
,,,,,,,,,5ec79b5033c65502ce2acade,Spanish,13 or older,"no, only English or Spanish",no,2025-08-12_14h02.58.481,empathy_intonation_perc,2024.2.4,Win32,59.88023952,5ec79b5033c65502ce2acade,687ed1b7e638a4cbf2f02089,689b818b82eeccedfb015033,,,,,,,,,,,,,,1,,,,,,,,,,,,,,,,,,,,,,,,,,,,,,,,,,,,,,,,,,,,,,,,,,,,,,,,,44,cuchara,,,,,545.862,547.3445,1,1,0.9446,,0,76,76,43,1,REAL,FAKE,,,,,,,,,,,,,,,,,
,,,,,,,,,5ec79b5033c65502ce2acade,Spanish,13 or older,"no, only English or Spanish",no,2025-08-12_14h02.58.481,empathy_intonation_perc,2024.2.4,Win32,59.88023952,5ec79b5033c65502ce2acade,687ed1b7e638a4cbf2f02089,689b818b82eeccedfb015033,,,,,,,,,,,,,,1,,,,,,,,,,,,,,,,,,,,,,,,,,,,,,,,,,,,,,,,,,,,,,,,,,,,,,,,,28,merodear,,,,,547.3452,548.8613,1,1,0.9664,,0,77,77,27,1,REAL,FAKE,,,,,,,,,,,,,,,,,
,,,,,,,,,5ec79b5033c65502ce2acade,Spanish,13 or older,"no, only English or Spanish",no,2025-08-12_14h02.58.481,empathy_intonation_perc,2024.2.4,Win32,59.88023952,5ec79b5033c65502ce2acade,687ed1b7e638a4cbf2f02089,689b818b82eeccedfb015033,,,,,,,,,,,,,,1,,,,,,,,,,,,,,,,,,,,,,,,,,,,,,,,,,,,,,,,,,,,,,,,,,,,,,,,,81,pozo,,,,,548.8621,550.1445,1,1,0.7448,,0,78,78,80,1,REAL,FAKE,,,,,,,,,,,,,,,,,
,,,,,,,,,5ec79b5033c65502ce2acade,Spanish,13 or older,"no, only English or Spanish",no,2025-08-12_14h02.58.481,empathy_intonation_perc,2024.2.4,Win32,59.88023952,5ec79b5033c65502ce2acade,687ed1b7e638a4cbf2f02089,689b818b82eeccedfb015033,,,,,,,,,,,,,,0,,,,,,,,,,,,,,,,,,,,,,,,,,,,,,,,,,,,,,,,,,,,,,,,,,,,,,,,,27,acutación,,,,,550.1452,551.4112,1,0,0.7184,,0,79,79,26,1,REAL,FAKE,,,,,,,,,,,,,,,,,
,,,,,,,,,5ec79b5033c65502ce2acade,Spanish,13 or older,"no, only English or Spanish",no,2025-08-12_14h02.58.481,empathy_intonation_perc,2024.2.4,Win32,59.88023952,5ec79b5033c65502ce2acade,687ed1b7e638a4cbf2f02089,689b818b82eeccedfb015033,,,,,,,,,,,,,,1,,,,,,,,,,,,,,,,,,,,,,,,,,,,,,,,,,,,,,,,,,,,,,,,,,,,,,,,,54,fomentar,,,,,551.4119,552.8279,0,0,0.8664,,0,80,80,53,1,REAL,FAKE,,,,,,,,,,,,,,,,,
,,,,,,,,,5ec79b5033c65502ce2acade,Spanish,13 or older,"no, only English or Spanish",no,2025-08-12_14h02.58.481,empathy_intonation_perc,2024.2.4,Win32,59.88023952,5ec79b5033c65502ce2acade,687ed1b7e638a4cbf2f02089,689b818b82eeccedfb015033,,,,,,,,,,,,,,1,,,,,,,,,,,,,,,,,,,,,,,,,,,,,,,,,,,,,,,,,,,,,,,,,,,,,,,,,36,loro,,,,,552.8286,553.8945,1,1,0.528,,0,81,81,35,1,REAL,FAKE,,,,,,,,,,,,,,,,,
,,,,,,,,,5ec79b5033c65502ce2acade,Spanish,13 or older,"no, only English or Spanish",no,2025-08-12_14h02.58.481,empathy_intonation_perc,2024.2.4,Win32,59.88023952,5ec79b5033c65502ce2acade,687ed1b7e638a4cbf2f02089,689b818b82eeccedfb015033,,,,,,,,,,,,,,1,,,,,,,,,,,,,,,,,,,,,,,,,,,,,,,,,,,,,,,,,,,,,,,,,,,,,,,,,24,látigo,,,,,553.8952,555.2611,0,0,0.8275,,0,82,82,23,1,REAL,FAKE,,,,,,,,,,,,,,,,,
,,,,,,,,,5ec79b5033c65502ce2acade,Spanish,13 or older,"no, only English or Spanish",no,2025-08-12_14h02.58.481,empathy_intonation_perc,2024.2.4,Win32,59.88023952,5ec79b5033c65502ce2acade,687ed1b7e638a4cbf2f02089,689b818b82eeccedfb015033,,,,,,,,,,,,,,0,,,,,,,,,,,,,,,,,,,,,,,,,,,,,,,,,,,,,,,,,,,,,,,,,,,,,,,,,21,capillo,,,,,555.2618,556.3778,1,0,0.5697,,0,83,83,20,1,REAL,FAKE,,,,,,,,,,,,,,,,,
,,,,,,,,,5ec79b5033c65502ce2acade,Spanish,13 or older,"no, only English or Spanish",no,2025-08-12_14h02.58.481,empathy_intonation_perc,2024.2.4,Win32,59.88023952,5ec79b5033c65502ce2acade,687ed1b7e638a4cbf2f02089,689b818b82eeccedfb015033,,,,,,,,,,,,,,1,,,,,,,,,,,,,,,,,,,,,,,,,,,,,,,,,,,,,,,,,,,,,,,,,,,,,,,,,91,click the 1 key.,,,,,556.3787,558.3112,1,1,1.3861,,0,84,84,90,1,REAL,FAKE,,,,,,,,,,,,,,,,,
,,,,,,,,,5ec79b5033c65502ce2acade,Spanish,13 or older,"no, only English or Spanish",no,2025-08-12_14h02.58.481,empathy_intonation_perc,2024.2.4,Win32,59.88023952,5ec79b5033c65502ce2acade,687ed1b7e638a4cbf2f02089,689b818b82eeccedfb015033,,,,,,,,,,,,,,1,,,,,,,,,,,,,,,,,,,,,,,,,,,,,,,,,,,,,,,,,,,,,,,,,,,,,,,,,25,bisagra,,,,,558.3119,560.0444,0,0,1.1832,,0,85,85,24,1,REAL,FAKE,,,,,,,,,,,,,,,,,
,,,,,,,,,5ec79b5033c65502ce2acade,Spanish,13 or older,"no, only English or Spanish",no,2025-08-12_14h02.58.481,empathy_intonation_perc,2024.2.4,Win32,59.88023952,5ec79b5033c65502ce2acade,687ed1b7e638a4cbf2f02089,689b818b82eeccedfb015033,,,,,,,,,,,,,,1,,,,,,,,,,,,,,,,,,,,,,,,,,,,,,,,,,,,,,,,,,,,,,,,,,,,,,,,,11,cenefa,,,,,560.0451,561.2278,0,0,0.6376,,0,86,86,10,1,REAL,FAKE,,,,,,,,,,,,,,,,,
,,,,,,,,,5ec79b5033c65502ce2acade,Spanish,13 or older,"no, only English or Spanish",no,2025-08-12_14h02.58.481,empathy_intonation_perc,2024.2.4,Win32,59.88023952,5ec79b5033c65502ce2acade,687ed1b7e638a4cbf2f02089,689b818b82eeccedfb015033,,,,,,,,,,,,,,0,,,,,,,,,,,,,,,,,,,,,,,,,,,,,,,,,,,,,,,,,,,,,,,,,,,,,,,,,50,flamida,,,,,561.2284,562.7778,0,1,0.9997,,0,87,87,49,1,REAL,FAKE,,,,,,,,,,,,,,,,,
,,,,,,,,,5ec79b5033c65502ce2acade,Spanish,13 or older,"no, only English or Spanish",no,2025-08-12_14h02.58.481,empathy_intonation_perc,2024.2.4,Win32,59.88023952,5ec79b5033c65502ce2acade,687ed1b7e638a4cbf2f02089,689b818b82eeccedfb015033,,,,,,,,,,,,,,1,,,,,,,,,,,,,,,,,,,,,,,,,,,,,,,,,,,,,,,,,,,,,,,,,,,,,,,,,12,asesinato,,,,,562.7786,564.0279,1,1,0.7083,,0,88,88,11,1,REAL,FAKE,,,,,,,,,,,,,,,,,
,,,,,,,,,5ec79b5033c65502ce2acade,Spanish,13 or older,"no, only English or Spanish",no,2025-08-12_14h02.58.481,empathy_intonation_perc,2024.2.4,Win32,59.88023952,5ec79b5033c65502ce2acade,687ed1b7e638a4cbf2f02089,689b818b82eeccedfb015033,,,,,,,,,,,,,,1,,,,,,,,,,,,,,,,,,,,,,,,,,,,,,,,,,,,,,,,,,,,,,,,,,,,,,,,,71,polvoriento,,,,,564.0286,565.1778,1,1,0.6022,,0,89,89,70,1,REAL,FAKE,,,,,,,,,,,,,,,,,
,,,,,,,,,5ec79b5033c65502ce2acade,Spanish,13 or older,"no, only English or Spanish",no,2025-08-12_14h02.58.481,empathy_intonation_perc,2024.2.4,Win32,59.88023952,5ec79b5033c65502ce2acade,687ed1b7e638a4cbf2f02089,689b818b82eeccedfb015033,,,,,,,,,,,,,,0,,,,,,,,,,,,,,,,,,,,,,,,,,,,,,,,,,,,,,,,,,,,,,,,,,,,,,,,,92,click the 0 key.,,,,,565.1785,566.8277,0,1,1.1072,,0,90,90,91,1,REAL,FAKE,,,,,,,,,,,,,,,,,
,,,,,,,,,5ec79b5033c65502ce2acade,Spanish,13 or older,"no, only English or Spanish",no,2025-08-12_14h02.58.481,empathy_intonation_perc,2024.2.4,Win32,59.88023952,5ec79b5033c65502ce2acade,687ed1b7e638a4cbf2f02089,689b818b82eeccedfb015033,,,,,,,,,,,,,,0,,,,,,,,,,,,,,,,,,,,,,,,,,,,,,,,,,,,,,,,,,,,,,,,,,,,,,,,,70,temblo,,,,,566.8285,568.8445,0,1,1.4673,,0,91,91,69,1,REAL,FAKE,,,,,,,,,,,,,,,,,
,,,,,,,,,5ec79b5033c65502ce2acade,Spanish,13 or older,"no, only English or Spanish",no,2025-08-12_14h02.58.481,empathy_intonation_perc,2024.2.4,Win32,59.88023952,5ec79b5033c65502ce2acade,687ed1b7e638a4cbf2f02089,689b818b82eeccedfb015033,,,,,,,,,,,,,,,,,,,,,,,,,,,,,,,,,,,,,,,,,,,,,,,,,,,,,,,,,,,,,,,,,,,,,,,,,,,,,,,,,,,,,,,,,,568.8448,570.9114,,,,,,,,,,,,,,,
,,,,,,,,,5ec79b5033c65502ce2acade,Spanish,13 or older,"no, only English or Spanish",no,2025-08-12_14h02.58.481,empathy_intonation_perc,2024.2.4,Win32,59.88023952,5ec79b5033c65502ce2acade,687ed1b7e638a4cbf2f02089,689b818b82eeccedfb015033,,,,,,,,,,,,,1,,,,,,,,,,,,,,,,,,,,,,,,,,,,,,,,,,,,,,,,,,,,,,,,,,,,,,,,,,,,,,,,,,,,,,,,,,,,,,,570.9185,577.7944,slightly agree,0,0,0,0,1,I can easily tell if someone else wants to enter a conversation.,1,0,1,0,,
,,,,,,,,,5ec79b5033c65502ce2acade,Spanish,13 or older,"no, only English or Spanish",no,2025-08-12_14h02.58.481,empathy_intonation_perc,2024.2.4,Win32,59.88023952,5ec79b5033c65502ce2acade,687ed1b7e638a4cbf2f02089,689b818b82eeccedfb015033,,,,,,,,,,,,,2,,,,,,,,,,,,,,,,,,,,,,,,,,,,,,,,,,,,,,,,,,,,,,,,,,,,,,,,,,,,,,,,,,,,,,,,,,,,,,,577.7961,581.7777,slightly agree,0,1,1,1,1,I prefer animals to humans.,0,1,0,0,,
,,,,,,,,,5ec79b5033c65502ce2acade,Spanish,13 or older,"no, only English or Spanish",no,2025-08-12_14h02.58.481,empathy_intonation_perc,2024.2.4,Win32,59.88023952,5ec79b5033c65502ce2acade,687ed1b7e638a4cbf2f02089,689b818b82eeccedfb015033,,,,,,,,,,,,,3,,,,,,,,,,,,,,,,,,,,,,,,,,,,,,,,,,,,,,,,,,,,,,,,,,,,,,,,,,,,,,,,,,,,,,,,,,,,,,,581.7789,584.9442,slightly disagree,0,2,2,2,1,I try to keep up with the current trends and fashions.,0,1,0,0,,
,,,,,,,,,5ec79b5033c65502ce2acade,Spanish,13 or older,"no, only English or Spanish",no,2025-08-12_14h02.58.481,empathy_intonation_perc,2024.2.4,Win32,59.88023952,5ec79b5033c65502ce2acade,687ed1b7e638a4cbf2f02089,689b818b82eeccedfb015033,,,,,,,,,,,,,4,,,,,,,,,,,,,,,,,,,,,,,,,,,,,,,,,,,,,,,,,,,,,,,,,,,,,,,,,,,,,,,,,,,,,,,,,,,,,,,584.9456,590.0776,slightly agree,0,3,3,3,1,"I find it difficult to explain to others things that I understand easily,   when they don't understand it first time.",1,0,0,1,,
,,,,,,,,,5ec79b5033c65502ce2acade,Spanish,13 or older,"no, only English or Spanish",no,2025-08-12_14h02.58.481,empathy_intonation_perc,2024.2.4,Win32,59.88023952,5ec79b5033c65502ce2acade,687ed1b7e638a4cbf2f02089,689b818b82eeccedfb015033,,,,,,,,,,,,,5,,,,,,,,,,,,,,,,,,,,,,,,,,,,,,,,,,,,,,,,,,,,,,,,,,,,,,,,,,,,,,,,,,,,,,,,,,,,,,,590.0785,591.8281,slightly agree,0,4,4,4,1,I dream most nights.,0,1,0,0,,
,,,,,,,,,5ec79b5033c65502ce2acade,Spanish,13 or older,"no, only English or Spanish",no,2025-08-12_14h02.58.481,empathy_intonation_perc,2024.2.4,Win32,59.88023952,5ec79b5033c65502ce2acade,687ed1b7e638a4cbf2f02089,689b818b82eeccedfb015033,,,,,,,,,,,,,6,,,,,,,,,,,,,,,,,,,,,,,,,,,,,,,,,,,,,,,,,,,,,,,,,,,,,,,,,,,,,,,,,,,,,,,,,,,,,,,591.829,593.0609,slightly agree,0,5,5,5,1,I really enjoy caring for other people.,1,0,1,0,,
,,,,,,,,,5ec79b5033c65502ce2acade,Spanish,13 or older,"no, only English or Spanish",no,2025-08-12_14h02.58.481,empathy_intonation_perc,2024.2.4,Win32,59.88023952,5ec79b5033c65502ce2acade,687ed1b7e638a4cbf2f02089,689b818b82eeccedfb015033,,,,,,,,,,,,,7,,,,,,,,,,,,,,,,,,,,,,,,,,,,,,,,,,,,,,,,,,,,,,,,,,,,,,,,,,,,,,,,,,,,,,,,,,,,,,,593.0621,595.211,slightly agree,0,6,6,6,1,I try to solve my own problems rather than discussing them with others.,0,1,0,0,,
,,,,,,,,,5ec79b5033c65502ce2acade,Spanish,13 or older,"no, only English or Spanish",no,2025-08-12_14h02.58.481,empathy_intonation_perc,2024.2.4,Win32,59.88023952,5ec79b5033c65502ce2acade,687ed1b7e638a4cbf2f02089,689b818b82eeccedfb015033,,,,,,,,,,,,,8,,,,,,,,,,,,,,,,,,,,,,,,,,,,,,,,,,,,,,,,,,,,,,,,,,,,,,,,,,,,,,,,,,,,,,,,,,,,,,,595.2119,596.8608,slightly agree,0,7,7,7,1,I find it hard to know what to do in a social situation.,1,0,0,1,,
,,,,,,,,,5ec79b5033c65502ce2acade,Spanish,13 or older,"no, only English or Spanish",no,2025-08-12_14h02.58.481,empathy_intonation_perc,2024.2.4,Win32,59.88023952,5ec79b5033c65502ce2acade,687ed1b7e638a4cbf2f02089,689b818b82eeccedfb015033,,,,,,,,,,,,,9,,,,,,,,,,,,,,,,,,,,,,,,,,,,,,,,,,,,,,,,,,,,,,,,,,,,,,,,,,,,,,,,,,,,,,,,,,,,,,,596.8618,600.6611,slightly disagree,0,8,8,8,1,I am at my best first thing in the morning.,0,1,0,0,,
,,,,,,,,,5ec79b5033c65502ce2acade,Spanish,13 or older,"no, only English or Spanish",no,2025-08-12_14h02.58.481,empathy_intonation_perc,2024.2.4,Win32,59.88023952,5ec79b5033c65502ce2acade,687ed1b7e638a4cbf2f02089,689b818b82eeccedfb015033,,,,,,,,,,,,,10,,,,,,,,,,,,,,,,,,,,,,,,,,,,,,,,,,,,,,,,,,,,,,,,,,,,,,,,,,,,,,,,,,,,,,,,,,,,,,,600.6621,606.3443,slightly disagree,0,9,9,9,1,People often tell me that I went too far in driving my point home in a discussion.,1,0,0,1,,
