instructions_exposure.started,instructions_exposure.stopped,instructions_exposure_loop.thisRepN,instructions_exposure_loop.thisTrialN,instructions_exposure_loop.thisN,instructions_exposure_loop.thisIndex,instructions_exposure_loop.ran,instructions_text,continue_text,participant_id,"What variety of Spanish are you most familiar with? (e.g., Peruvian, Spanish, Mexican)",At what age did you begin learning Spanish?,Are you proficient in any languages other than English/Spanish?,"Are you familiar with Caribbean (e.g., Caribbean, Puerto Rican) or Galician Spanish?",date,expName,psychopyVersion,OS,frameRate,id,study_id,session,trial_exposure.started,trial_exposure.stopped,key_resp_exposure.keys,key_resp_exposure.corr,key_resp_exposure.rt,key_resp_exposure.duration,key_resp.keys,exposure_loop.thisRepN,exposure_loop.thisTrialN,exposure_loop.thisN,exposure_loop.thisIndex,exposure_loop.ran,item_num,correct_response,question,path,duration,instructions_2afc.started,instructions_2afc.stopped,instructions_2afc_loop.thisRepN,instructions_2afc_loop.thisTrialN,instructions_2afc_loop.thisN,instructions_2afc_loop.thisIndex,instructions_2afc_loop.ran,practice_2afc.started,practice_2afc.stopped,key_resp_2afc_practice.keys,key_resp_2afc_practice.corr,key_resp_2afc_practice.rt,key_resp_2afc_practice.duration,trials_2afc_practice_loop.thisRepN,trials_2afc_practice_loop.thisTrialN,trials_2afc_practice_loop.thisN,trials_2afc_practice_loop.thisIndex,trials_2afc_practice_loop.ran,check_2afc.started,check_2afc.stopped,trial_2afc.started,trial_2afc.stopped,key_resp_2afc_trial.keys,key_resp_2afc_trial.corr,key_resp_2afc_trial.rt,key_resp_2afc_trial.duration,trials_2afc_loop.thisRepN,trials_2afc_loop.thisTrialN,trials_2afc_loop.thisN,trials_2afc_loop.thisIndex,trials_2afc_loop.ran,target,variety,instructions_lextale.started,instructions_lextale.stopped,instructions_lextale_loop.thisRepN,instructions_lextale_loop.thisTrialN,instructions_lextale_loop.thisN,instructions_lextale_loop.thisIndex,instructions_lextale_loop.ran,practice_lextale.started,practice_lextale.stopped,key_resp_lextale_practice.keys,key_resp_lextale_practice.corr,key_resp_lextale_practice.rt,key_resp_lextale_practice.duration,practice_feedback_lextale.started,practice_feedback_lextale.stopped,trials_lextale_practice_loop.thisRepN,trials_lextale_practice_loop.thisTrialN,trials_lextale_practice_loop.thisN,trials_lextale_practice_loop.thisIndex,trials_lextale_practice_loop.ran,stim,word,prac_button_real,prac_button_false,check_lextale.started,check_lextale.stopped,trial_lextale.started,trial_lextale.stopped,key_resp_lextale_trial.keys,key_resp_lextale_trial.corr,key_resp_lextale_trial.rt,key_resp_lextale_trial.duration,trials_lextale_loop.thisRepN,trials_lextale_loop.thisTrialN,trials_lextale_loop.thisN,trials_lextale_loop.thisIndex,trials_lextale_loop.ran,button_real,button_false,instructions_eq.started,instructions_eq.stopped,trial_eq.started,trial_eq.stopped,slider_eq_trial.response,trials_eq_loop.thisRepN,trials_eq_loop.thisTrialN,trials_eq_loop.thisN,trials_eq_loop.thisIndex,trials_eq_loop.ran,item,is_test_item,is_distractor,is_agree_score,is_disagree_score,end_exp.started,end_exp.stopped
0.0089,4.4457,0,0,0,0,1,"In the following task, you are going to hear a series of conversations.", (press the space bar to continue),5ef7bc9de683904f56114114,Spanish,13 or older,"no, only English or Spanish",yes,2025-08-12_14h50.17.488,empathy_intonation_perc,2024.2.4,MacIntel,60.24096386,5ef7bc9de683904f56114114,687ed1b7e638a4cbf2f02089,689b8cab27912031a1e0f0fc,,,,,,,,,,,,,,,,,,,,,,,,,,,,,,,,,,,,,,,,,,,,,,,,,,,,,,,,,,,,,,,,,,,,,,,,,,,,,,,,,,,,,,,,,,,,,,,,,,,,,,,,,,
4.4467,8.2959,0,1,1,1,1,It is okay if you don't not 100% understand them!, (press the space bar to continue),5ef7bc9de683904f56114114,Spanish,13 or older,"no, only English or Spanish",yes,2025-08-12_14h50.17.488,empathy_intonation_perc,2024.2.4,MacIntel,60.24096386,5ef7bc9de683904f56114114,687ed1b7e638a4cbf2f02089,689b8cab27912031a1e0f0fc,,,,,,,,,,,,,,,,,,,,,,,,,,,,,,,,,,,,,,,,,,,,,,,,,,,,,,,,,,,,,,,,,,,,,,,,,,,,,,,,,,,,,,,,,,,,,,,,,,,,,,,,,,
8.2978,12.4957,0,2,2,2,1,"After, you will read a sentence about the conversation and decide if it's true or false.", (press the space bar to continue),5ef7bc9de683904f56114114,Spanish,13 or older,"no, only English or Spanish",yes,2025-08-12_14h50.17.488,empathy_intonation_perc,2024.2.4,MacIntel,60.24096386,5ef7bc9de683904f56114114,687ed1b7e638a4cbf2f02089,689b8cab27912031a1e0f0fc,,,,,,,,,,,,,,,,,,,,,,,,,,,,,,,,,,,,,,,,,,,,,,,,,,,,,,,,,,,,,,,,,,,,,,,,,,,,,,,,,,,,,,,,,,,,,,,,,,,,,,,,,,
12.4977,15.8789,0,3,3,3,1,"If it's true, press '1' (True) and if it's false press '0' (False).", (press the space bar to continue),5ef7bc9de683904f56114114,Spanish,13 or older,"no, only English or Spanish",yes,2025-08-12_14h50.17.488,empathy_intonation_perc,2024.2.4,MacIntel,60.24096386,5ef7bc9de683904f56114114,687ed1b7e638a4cbf2f02089,689b8cab27912031a1e0f0fc,,,,,,,,,,,,,,,,,,,,,,,,,,,,,,,,,,,,,,,,,,,,,,,,,,,,,,,,,,,,,,,,,,,,,,,,,,,,,,,,,,,,,,,,,,,,,,,,,,,,,,,,,,
,,,,,,,,,5ef7bc9de683904f56114114,Spanish,13 or older,"no, only English or Spanish",yes,2025-08-12_14h50.17.488,empathy_intonation_perc,2024.2.4,MacIntel,60.24096386,5ef7bc9de683904f56114114,687ed1b7e638a4cbf2f02089,689b8cab27912031a1e0f0fc,15.8895,59.5959,1,0,7.6531,,,0,0,0,2,1,3,0,The mom already has rice.,./stim/exposure_wavs/pr_stimuli_convo.wav,36,,,,,,,,,,,,,,,,,,,,,,,,,,,,,,,,,,,,,,,,,,,,,,,,,,,,,,,,,,,,,,,,,,,,,,,,,,,,,,,,,,,,,,,,,
,,,,,,,,,5ef7bc9de683904f56114114,Spanish,13 or older,"no, only English or Spanish",yes,2025-08-12_14h50.17.488,empathy_intonation_perc,2024.2.4,MacIntel,60.24096386,5ef7bc9de683904f56114114,687ed1b7e638a4cbf2f02089,689b8cab27912031a1e0f0fc,59.5988,127.7955,1,1,8.1499,,,0,1,1,1,1,2,1,The mom asked the daughter if she already went to the supermarket.,./stim/exposure_wavs/dr_stimuli_convo.wav,60,,,,,,,,,,,,,,,,,,,,,,,,,,,,,,,,,,,,,,,,,,,,,,,,,,,,,,,,,,,,,,,,,,,,,,,,,,,,,,,,,,,,,,,,,
,,,,,,,,,5ef7bc9de683904f56114114,Spanish,13 or older,"no, only English or Spanish",yes,2025-08-12_14h50.17.488,empathy_intonation_perc,2024.2.4,MacIntel,60.24096386,5ef7bc9de683904f56114114,687ed1b7e638a4cbf2f02089,689b8cab27912031a1e0f0fc,127.7977,184.4458,0,0,9.6016,,,0,2,2,0,1,1,1,The son asked the mom if Aunt Marina is okay.,./stim/exposure_wavs/ga_stimuli_convo.wav,47,,,,,,,,,,,,,,,,,,,,,,,,,,,,,,,,,,,,,,,,,,,,,,,,,,,,,,,,,,,,,,,,,,,,,,,,,,,,,,,,,,,,,,,,,
,,,,,,,"In the following task you are going to hear a series of utterances. 

  You will decide if the utterances sound like questions or not using your keyboard.", (press the spacebar to continue),5ef7bc9de683904f56114114,Spanish,13 or older,"no, only English or Spanish",yes,2025-08-12_14h50.17.488,empathy_intonation_perc,2024.2.4,MacIntel,60.24096386,5ef7bc9de683904f56114114,687ed1b7e638a4cbf2f02089,689b8cab27912031a1e0f0fc,,,,,,,,,,,,,,,,,,184.4528,192.7126,0,0,0,0,1,,,,,,,,,,,,,,,,,,,,,,,,,,,,,,,,,,,,,,,,,,,,,,,,,,,,,,,,,,,,,,,,,,,,,,,,,,,,,,,,,,
,,,,,,,"If you believe the utterance is a question, type '1' (for 'yes') and if you do not 
  believe it is a question type '0' (for 'no').

  Let's practice a bit...", (press the spacebar to continue),5ef7bc9de683904f56114114,Spanish,13 or older,"no, only English or Spanish",yes,2025-08-12_14h50.17.488,empathy_intonation_perc,2024.2.4,MacIntel,60.24096386,5ef7bc9de683904f56114114,687ed1b7e638a4cbf2f02089,689b8cab27912031a1e0f0fc,,,,,,,,,,,,,,,,,,192.7149,199.6791,0,1,1,1,1,,,,,,,,,,,,,,,,,,,,,,,,,,,,,,,,,,,,,,,,,,,,,,,,,,,,,,,,,,,,,,,,,,,,,,,,,,,,,,,,,,
,,,,,,,,,5ef7bc9de683904f56114114,Spanish,13 or older,"no, only English or Spanish",yes,2025-08-12_14h50.17.488,empathy_intonation_perc,2024.2.4,MacIntel,60.24096386,5ef7bc9de683904f56114114,687ed1b7e638a4cbf2f02089,689b8cab27912031a1e0f0fc,,,,,,,,,,,,,,0,,./stim/wavs/puertorican_statement_filler_La-nina-pinta-con-su-amiga.wav,,,,,,,,,199.688,205.6629,0,1,5.4544,,0,0,0,7,1,,,,,,,,,,,,,,,,,,,,,,,,,,,,,,,,,,,,,,,,,,,,,,,,,,,,,,,,,,,,,,,,,,,,,,,
,,,,,,,,,5ef7bc9de683904f56114114,Spanish,13 or older,"no, only English or Spanish",yes,2025-08-12_14h50.17.488,empathy_intonation_perc,2024.2.4,MacIntel,60.24096386,5ef7bc9de683904f56114114,687ed1b7e638a4cbf2f02089,689b8cab27912031a1e0f0fc,,,,,,,,,,,,,,0,,./stim/wavs/andalusian_statement_filler_Alberto-nunca-se-afeita.wav,,,,,,,,,205.6642,210.579,0,1,4.3954,,0,1,1,5,1,,,,,,,,,,,,,,,,,,,,,,,,,,,,,,,,,,,,,,,,,,,,,,,,,,,,,,,,,,,,,,,,,,,,,,,
,,,,,,,,,5ef7bc9de683904f56114114,Spanish,13 or older,"no, only English or Spanish",yes,2025-08-12_14h50.17.488,empathy_intonation_perc,2024.2.4,MacIntel,60.24096386,5ef7bc9de683904f56114114,687ed1b7e638a4cbf2f02089,689b8cab27912031a1e0f0fc,,,,,,,,,,,,,,0,,./stim/wavs/cuban_statement_filler_Cocinabas-por-la-noche.wav,,,,,,,,,210.5798,215.179,0,1,4.0666,,0,2,2,4,1,,,,,,,,,,,,,,,,,,,,,,,,,,,,,,,,,,,,,,,,,,,,,,,,,,,,,,,,,,,,,,,,,,,,,,,
,,,,,,,,,5ef7bc9de683904f56114114,Spanish,13 or older,"no, only English or Spanish",yes,2025-08-12_14h50.17.488,empathy_intonation_perc,2024.2.4,MacIntel,60.24096386,5ef7bc9de683904f56114114,687ed1b7e638a4cbf2f02089,689b8cab27912031a1e0f0fc,,,,,,,,,,,,,,0,,./stim/wavs/peruvian_statement_filler_El-nino-habla-con-su-madre.wav,,,,,,,,,215.1799,219.2954,0,1,3.5943,,0,3,3,6,1,,,,,,,,,,,,,,,,,,,,,,,,,,,,,,,,,,,,,,,,,,,,,,,,,,,,,,,,,,,,,,,,,,,,,,,
,,,,,,,,,5ef7bc9de683904f56114114,Spanish,13 or older,"no, only English or Spanish",yes,2025-08-12_14h50.17.488,empathy_intonation_perc,2024.2.4,MacIntel,60.24096386,5ef7bc9de683904f56114114,687ed1b7e638a4cbf2f02089,689b8cab27912031a1e0f0fc,,,,,,,,,,,,,,1,,./stim/wavs/mexican_question_filler_Felipe-no-tiene-contrasena.wav,,,,,,,,,219.2961,223.329,1,1,3.5067,,0,4,4,3,1,,,,,,,,,,,,,,,,,,,,,,,,,,,,,,,,,,,,,,,,,,,,,,,,,,,,,,,,,,,,,,,,,,,,,,,
,,,,,,,,,5ef7bc9de683904f56114114,Spanish,13 or older,"no, only English or Spanish",yes,2025-08-12_14h50.17.488,empathy_intonation_perc,2024.2.4,MacIntel,60.24096386,5ef7bc9de683904f56114114,687ed1b7e638a4cbf2f02089,689b8cab27912031a1e0f0fc,,,,,,,,,,,,,,1,,./stim/wavs/castilian_question_filler_Mi-esposo-conoce-al-chico.wav,,,,,,,,,223.3298,226.8285,1,1,2.9665,,0,5,5,0,1,,,,,,,,,,,,,,,,,,,,,,,,,,,,,,,,,,,,,,,,,,,,,,,,,,,,,,,,,,,,,,,,,,,,,,,
,,,,,,,,,5ef7bc9de683904f56114114,Spanish,13 or older,"no, only English or Spanish",yes,2025-08-12_14h50.17.488,empathy_intonation_perc,2024.2.4,MacIntel,60.24096386,5ef7bc9de683904f56114114,687ed1b7e638a4cbf2f02089,689b8cab27912031a1e0f0fc,,,,,,,,,,,,,,1,,./stim/wavs/chilean_question_filler_Mi-padre-cantaba-bien.wav,,,,,,,,,226.8293,232.9289,0,0,5.5664,,0,6,6,2,1,,,,,,,,,,,,,,,,,,,,,,,,,,,,,,,,,,,,,,,,,,,,,,,,,,,,,,,,,,,,,,,,,,,,,,,
,,,,,,,,,5ef7bc9de683904f56114114,Spanish,13 or older,"no, only English or Spanish",yes,2025-08-12_14h50.17.488,empathy_intonation_perc,2024.2.4,MacIntel,60.24096386,5ef7bc9de683904f56114114,687ed1b7e638a4cbf2f02089,689b8cab27912031a1e0f0fc,,,,,,,,,,,,,,1,,./stim/wavs/argentine_question_filler_Mi-vecino-habla-mucho.wav,,,,,,,,,232.9299,237.9124,0,0,4.4502,,0,7,7,1,1,,,,,,,,,,,,,,,,,,,,,,,,,,,,,,,,,,,,,,,,,,,,,,,,,,,,,,,,,,,,,,,,,,,,,,,
,,,,,,,,,5ef7bc9de683904f56114114,Spanish,13 or older,"no, only English or Spanish",yes,2025-08-12_14h50.17.488,empathy_intonation_perc,2024.2.4,MacIntel,60.24096386,5ef7bc9de683904f56114114,687ed1b7e638a4cbf2f02089,689b8cab27912031a1e0f0fc,,,,,,,,,,,,,,,,,,,,,,,,,,,,,,,,,,,,237.9132,243.9961,,,,,,,,,,,,,,,,,,,,,,,,,,,,,,,,,,,,,,,,,,,,,,,,,,,,,,,,,,,,,,,,,,,,,
,,,,,,,,,5ef7bc9de683904f56114114,Spanish,13 or older,"no, only English or Spanish",yes,2025-08-12_14h50.17.488,empathy_intonation_perc,2024.2.4,MacIntel,60.24096386,5ef7bc9de683904f56114114,687ed1b7e638a4cbf2f02089,689b8cab27912031a1e0f0fc,,,,,,,,,,,,,78,0,,./stim/wavs/cuban_mismatch_declarative-broad-focus_Mi-tia-odia-la-lluvia.wav,,,,,,,,,,,,,,,,,,,,,,244.0076,247.7461,0,1,3.2182,,0,0,0,77,1,0,cuban,,,,,,,,,,,,,,,,,,,,,,,,,,,,,,,,,,,,,,,,,,,,,,,,,,,,,,,,
,,,,,,,,,5ef7bc9de683904f56114114,Spanish,13 or older,"no, only English or Spanish",yes,2025-08-12_14h50.17.488,empathy_intonation_perc,2024.2.4,MacIntel,60.24096386,5ef7bc9de683904f56114114,687ed1b7e638a4cbf2f02089,689b8cab27912031a1e0f0fc,,,,,,,,,,,,,79,0,,./stim/wavs/mexican_mismatch_declarative-broad-focus_El-bebe-comia-muy-bien.wav,,,,,,,,,,,,,,,,,,,,,,247.7471,251.1624,0,1,2.8884,,0,1,1,78,1,0,mexican,,,,,,,,,,,,,,,,,,,,,,,,,,,,,,,,,,,,,,,,,,,,,,,,,,,,,,,,
,,,,,,,,,5ef7bc9de683904f56114114,Spanish,13 or older,"no, only English or Spanish",yes,2025-08-12_14h50.17.488,empathy_intonation_perc,2024.2.4,MacIntel,60.24096386,5ef7bc9de683904f56114114,687ed1b7e638a4cbf2f02089,689b8cab27912031a1e0f0fc,,,,,,,,,,,,,76,0,,./stim/wavs/cuban_mismatch_declarative-broad-focus_La-nina-lava-el-plato.wav,,,,,,,,,,,,,,,,,,,,,,251.1632,253.829,0,1,2.1363,,0,2,2,75,1,0,cuban,,,,,,,,,,,,,,,,,,,,,,,,,,,,,,,,,,,,,,,,,,,,,,,,,,,,,,,,
,,,,,,,,,5ef7bc9de683904f56114114,Spanish,13 or older,"no, only English or Spanish",yes,2025-08-12_14h50.17.488,empathy_intonation_perc,2024.2.4,MacIntel,60.24096386,5ef7bc9de683904f56114114,687ed1b7e638a4cbf2f02089,689b8cab27912031a1e0f0fc,,,,,,,,,,,,,48,0,,./stim/wavs/castilian_match_declarative-broad-focus_Maria-bebe-el-vino.wav,,,,,,,,,,,,,,,,,,,,,,253.8297,256.6957,0,1,2.3337,,0,3,3,47,1,0,castilian,,,,,,,,,,,,,,,,,,,,,,,,,,,,,,,,,,,,,,,,,,,,,,,,,,,,,,,,
,,,,,,,,,5ef7bc9de683904f56114114,Spanish,13 or older,"no, only English or Spanish",yes,2025-08-12_14h50.17.488,empathy_intonation_perc,2024.2.4,MacIntel,60.24096386,5ef7bc9de683904f56114114,687ed1b7e638a4cbf2f02089,689b8cab27912031a1e0f0fc,,,,,,,,,,,,,1,1,,./stim/wavs/castilian_match_interrogative-total-yn_David-leia-el-libro.wav,,,,,,,,,,,,,,,,,,,,,,256.6963,259.8624,1,1,2.6451,,0,4,4,0,1,0,castilian,,,,,,,,,,,,,,,,,,,,,,,,,,,,,,,,,,,,,,,,,,,,,,,,,,,,,,,,
,,,,,,,,,5ef7bc9de683904f56114114,Spanish,13 or older,"no, only English or Spanish",yes,2025-08-12_14h50.17.488,empathy_intonation_perc,2024.2.4,MacIntel,60.24096386,5ef7bc9de683904f56114114,687ed1b7e638a4cbf2f02089,689b8cab27912031a1e0f0fc,,,,,,,,,,,,,22,1,,./stim/wavs/puertorican_match_interrogative-total-yn_Emilio-ama-la-marcha.wav,,,,,,,,,,,,,,,,,,,,,,259.8629,263.1291,0,0,2.7334,,0,5,5,21,1,1,puertorican,,,,,,,,,,,,,,,,,,,,,,,,,,,,,,,,,,,,,,,,,,,,,,,,,,,,,,,,
,,,,,,,,,5ef7bc9de683904f56114114,Spanish,13 or older,"no, only English or Spanish",yes,2025-08-12_14h50.17.488,empathy_intonation_perc,2024.2.4,MacIntel,60.24096386,5ef7bc9de683904f56114114,687ed1b7e638a4cbf2f02089,689b8cab27912031a1e0f0fc,,,,,,,,,,,,,61,0,,./stim/wavs/mexican_match_declarative-broad-focus_Mariano-habla-del-tiempo.wav,,,,,,,,,,,,,,,,,,,,,,263.1297,266.9458,0,1,3.2844,,0,6,6,60,1,0,mexican,,,,,,,,,,,,,,,,,,,,,,,,,,,,,,,,,,,,,,,,,,,,,,,,,,,,,,,,
,,,,,,,,,5ef7bc9de683904f56114114,Spanish,13 or older,"no, only English or Spanish",yes,2025-08-12_14h50.17.488,empathy_intonation_perc,2024.2.4,MacIntel,60.24096386,5ef7bc9de683904f56114114,687ed1b7e638a4cbf2f02089,689b8cab27912031a1e0f0fc,,,,,,,,,,,,,39,1,,./stim/wavs/mexican_mismatch_interrogative-total-yn_Mi-tia-odia-la-lluvia.wav,,,,,,,,,,,,,,,,,,,,,,266.9465,269.762,1,1,2.2946,,0,7,7,38,1,0,mexican,,,,,,,,,,,,,,,,,,,,,,,,,,,,,,,,,,,,,,,,,,,,,,,,,,,,,,,,
,,,,,,,,,5ef7bc9de683904f56114114,Spanish,13 or older,"no, only English or Spanish",yes,2025-08-12_14h50.17.488,empathy_intonation_perc,2024.2.4,MacIntel,60.24096386,5ef7bc9de683904f56114114,687ed1b7e638a4cbf2f02089,689b8cab27912031a1e0f0fc,,,,,,,,,,,,,54,0,,./stim/wavs/cuban_match_declarative-broad-focus_Maria-bebe-el-vino.wav,,,,,,,,,,,,,,,,,,,,,,269.7626,272.5622,0,1,2.2782,,0,8,8,53,1,0,cuban,,,,,,,,,,,,,,,,,,,,,,,,,,,,,,,,,,,,,,,,,,,,,,,,,,,,,,,,
,,,,,,,,,5ef7bc9de683904f56114114,Spanish,13 or older,"no, only English or Spanish",yes,2025-08-12_14h50.17.488,empathy_intonation_perc,2024.2.4,MacIntel,60.24096386,5ef7bc9de683904f56114114,687ed1b7e638a4cbf2f02089,689b8cab27912031a1e0f0fc,,,,,,,,,,,,,10,1,,./stim/wavs/cuban_match_interrogative-total-yn_Maria-bebe-el-vino.wav,,,,,,,,,,,,,,,,,,,,,,272.563,275.3289,0,0,2.2332,,0,9,9,9,1,1,cuban,,,,,,,,,,,,,,,,,,,,,,,,,,,,,,,,,,,,,,,,,,,,,,,,,,,,,,,,
,,,,,,,,,5ef7bc9de683904f56114114,Spanish,13 or older,"no, only English or Spanish",yes,2025-08-12_14h50.17.488,empathy_intonation_perc,2024.2.4,MacIntel,60.24096386,5ef7bc9de683904f56114114,687ed1b7e638a4cbf2f02089,689b8cab27912031a1e0f0fc,,,,,,,,,,,,,74,0,,./stim/wavs/cuban_mismatch_declarative-broad-focus_El-bebe-comia-muy-bien.wav,,,,,,,,,,,,,,,,,,,,,,275.3297,278.4789,0,1,2.6203,,0,10,10,73,1,0,cuban,,,,,,,,,,,,,,,,,,,,,,,,,,,,,,,,,,,,,,,,,,,,,,,,,,,,,,,,
,,,,,,,,,5ef7bc9de683904f56114114,Spanish,13 or older,"no, only English or Spanish",yes,2025-08-12_14h50.17.488,empathy_intonation_perc,2024.2.4,MacIntel,60.24096386,5ef7bc9de683904f56114114,687ed1b7e638a4cbf2f02089,689b8cab27912031a1e0f0fc,,,,,,,,,,,,,71,0,,./stim/wavs/castilian_mismatch_declarative-broad-focus_La-nina-lava-el-plato.wav,,,,,,,,,,,,,,,,,,,,,,278.4796,281.3624,0,1,2.3554,,0,11,11,70,1,0,castilian,,,,,,,,,,,,,,,,,,,,,,,,,,,,,,,,,,,,,,,,,,,,,,,,,,,,,,,,
,,,,,,,,,5ef7bc9de683904f56114114,Spanish,13 or older,"no, only English or Spanish",yes,2025-08-12_14h50.17.488,empathy_intonation_perc,2024.2.4,MacIntel,60.24096386,5ef7bc9de683904f56114114,687ed1b7e638a4cbf2f02089,689b8cab27912031a1e0f0fc,,,,,,,,,,,,,68,0,,./stim/wavs/puertorican_match_declarative-broad-focus_Maria-bebe-el-vino.wav,,,,,,,,,,,,,,,,,,,,,,281.3631,284.2623,1,0,2.3666,,0,12,12,67,1,0,puertorican,,,,,,,,,,,,,,,,,,,,,,,,,,,,,,,,,,,,,,,,,,,,,,,,,,,,,,,,
,,,,,,,,,5ef7bc9de683904f56114114,Spanish,13 or older,"no, only English or Spanish",yes,2025-08-12_14h50.17.488,empathy_intonation_perc,2024.2.4,MacIntel,60.24096386,5ef7bc9de683904f56114114,687ed1b7e638a4cbf2f02089,689b8cab27912031a1e0f0fc,,,,,,,,,,,,,4,1,,./stim/wavs/castilian_match_interrogative-total-yn_Maria-bebe-el-vino.wav,,,,,,,,,,,,,,,,,,,,,,284.263,286.9624,1,1,2.1667,,0,13,13,3,1,0,castilian,,,,,,,,,,,,,,,,,,,,,,,,,,,,,,,,,,,,,,,,,,,,,,,,,,,,,,,,
,,,,,,,,,5ef7bc9de683904f56114114,Spanish,13 or older,"no, only English or Spanish",yes,2025-08-12_14h50.17.488,empathy_intonation_perc,2024.2.4,MacIntel,60.24096386,5ef7bc9de683904f56114114,687ed1b7e638a4cbf2f02089,689b8cab27912031a1e0f0fc,,,,,,,,,,,,,34,1,,./stim/wavs/cuban_mismatch_interrogative-total-yn_Mi-tia-odia-la-lluvia.wav,,,,,,,,,,,,,,,,,,,,,,286.9631,290.8956,0,0,3.4002,,0,14,14,33,1,1,cuban,,,,,,,,,,,,,,,,,,,,,,,,,,,,,,,,,,,,,,,,,,,,,,,,,,,,,,,,
,,,,,,,,,5ef7bc9de683904f56114114,Spanish,13 or older,"no, only English or Spanish",yes,2025-08-12_14h50.17.488,empathy_intonation_perc,2024.2.4,MacIntel,60.24096386,5ef7bc9de683904f56114114,687ed1b7e638a4cbf2f02089,689b8cab27912031a1e0f0fc,,,,,,,,,,,,,77,0,,./stim/wavs/cuban_mismatch_declarative-broad-focus_Mi-novio-viene-del-lago.wav,,,,,,,,,,,,,,,,,,,,,,290.8963,293.6624,0,1,2.2341,,0,15,15,76,1,0,cuban,,,,,,,,,,,,,,,,,,,,,,,,,,,,,,,,,,,,,,,,,,,,,,,,,,,,,,,,
,,,,,,,,,5ef7bc9de683904f56114114,Spanish,13 or older,"no, only English or Spanish",yes,2025-08-12_14h50.17.488,empathy_intonation_perc,2024.2.4,MacIntel,60.24096386,5ef7bc9de683904f56114114,687ed1b7e638a4cbf2f02089,689b8cab27912031a1e0f0fc,,,,,,,,,,,,,32,1,,./stim/wavs/cuban_mismatch_interrogative-total-yn_Mi-madre-come-la-fruta.wav,,,,,,,,,,,,,,,,,,,,,,293.6633,297.828,0,0,3.6341,,0,16,16,31,1,1,cuban,,,,,,,,,,,,,,,,,,,,,,,,,,,,,,,,,,,,,,,,,,,,,,,,,,,,,,,,
,,,,,,,,,5ef7bc9de683904f56114114,Spanish,13 or older,"no, only English or Spanish",yes,2025-08-12_14h50.17.488,empathy_intonation_perc,2024.2.4,MacIntel,60.24096386,5ef7bc9de683904f56114114,687ed1b7e638a4cbf2f02089,689b8cab27912031a1e0f0fc,,,,,,,,,,,,,36,1,,./stim/wavs/mexican_mismatch_interrogative-total-yn_El-nino-oye-el-rio.wav,,,,,,,,,,,,,,,,,,,,,,297.8287,300.5457,1,1,2.2007,,0,17,17,35,1,0,mexican,,,,,,,,,,,,,,,,,,,,,,,,,,,,,,,,,,,,,,,,,,,,,,,,,,,,,,,,
,,,,,,,,,5ef7bc9de683904f56114114,Spanish,13 or older,"no, only English or Spanish",yes,2025-08-12_14h50.17.488,empathy_intonation_perc,2024.2.4,MacIntel,60.24096386,5ef7bc9de683904f56114114,687ed1b7e638a4cbf2f02089,689b8cab27912031a1e0f0fc,,,,,,,,,,,,,67,0,,./stim/wavs/puertorican_match_declarative-broad-focus_Manuela-vende-el-carro.wav,,,,,,,,,,,,,,,,,,,,,,300.5464,303.3624,0,1,2.2839,,0,18,18,66,1,0,puertorican,,,,,,,,,,,,,,,,,,,,,,,,,,,,,,,,,,,,,,,,,,,,,,,,,,,,,,,,
,,,,,,,,,5ef7bc9de683904f56114114,Spanish,13 or older,"no, only English or Spanish",yes,2025-08-12_14h50.17.488,empathy_intonation_perc,2024.2.4,MacIntel,60.24096386,5ef7bc9de683904f56114114,687ed1b7e638a4cbf2f02089,689b8cab27912031a1e0f0fc,,,,,,,,,,,,,59,0,,./stim/wavs/mexican_match_declarative-broad-focus_David-leia-el-libro.wav,,,,,,,,,,,,,,,,,,,,,,303.3633,305.9624,0,1,2.0687,,0,19,19,58,1,0,mexican,,,,,,,,,,,,,,,,,,,,,,,,,,,,,,,,,,,,,,,,,,,,,,,,,,,,,,,,
,,,,,,,,,5ef7bc9de683904f56114114,Spanish,13 or older,"no, only English or Spanish",yes,2025-08-12_14h50.17.488,empathy_intonation_perc,2024.2.4,MacIntel,60.24096386,5ef7bc9de683904f56114114,687ed1b7e638a4cbf2f02089,689b8cab27912031a1e0f0fc,,,,,,,,,,,,,72,0,,./stim/wavs/castilian_mismatch_declarative-broad-focus_Mi-novio-viene-del-lago.wav,,,,,,,,,,,,,,,,,,,,,,305.9631,308.7291,0,1,2.2377,,0,20,20,71,1,0,castilian,,,,,,,,,,,,,,,,,,,,,,,,,,,,,,,,,,,,,,,,,,,,,,,,,,,,,,,,
,,,,,,,,,5ef7bc9de683904f56114114,Spanish,13 or older,"no, only English or Spanish",yes,2025-08-12_14h50.17.488,empathy_intonation_perc,2024.2.4,MacIntel,60.24096386,5ef7bc9de683904f56114114,687ed1b7e638a4cbf2f02089,689b8cab27912031a1e0f0fc,,,,,,,,,,,,,52,0,,./stim/wavs/cuban_match_declarative-broad-focus_Daniel-iba-a-Bolivia.wav,,,,,,,,,,,,,,,,,,,,,,308.7298,311.429,0,1,2.1768,,0,21,21,51,1,0,cuban,,,,,,,,,,,,,,,,,,,,,,,,,,,,,,,,,,,,,,,,,,,,,,,,,,,,,,,,
,,,,,,,,,5ef7bc9de683904f56114114,Spanish,13 or older,"no, only English or Spanish",yes,2025-08-12_14h50.17.488,empathy_intonation_perc,2024.2.4,MacIntel,60.24096386,5ef7bc9de683904f56114114,687ed1b7e638a4cbf2f02089,689b8cab27912031a1e0f0fc,,,,,,,,,,,,,47,0,,./stim/wavs/castilian_match_declarative-broad-focus_Manuela-vende-el-carro.wav,,,,,,,,,,,,,,,,,,,,,,311.4297,314.2124,0,1,2.2542,,0,22,22,46,1,0,castilian,,,,,,,,,,,,,,,,,,,,,,,,,,,,,,,,,,,,,,,,,,,,,,,,,,,,,,,,
,,,,,,,,,5ef7bc9de683904f56114114,Spanish,13 or older,"no, only English or Spanish",yes,2025-08-12_14h50.17.488,empathy_intonation_perc,2024.2.4,MacIntel,60.24096386,5ef7bc9de683904f56114114,687ed1b7e638a4cbf2f02089,689b8cab27912031a1e0f0fc,,,,,,,,,,,,,38,1,,./stim/wavs/mexican_mismatch_interrogative-total-yn_Mi-novio-viene-del-lago.wav,,,,,,,,,,,,,,,,,,,,,,314.2132,316.979,1,1,2.2326,,0,23,23,37,1,0,mexican,,,,,,,,,,,,,,,,,,,,,,,,,,,,,,,,,,,,,,,,,,,,,,,,,,,,,,,,
,,,,,,,,,5ef7bc9de683904f56114114,Spanish,13 or older,"no, only English or Spanish",yes,2025-08-12_14h50.17.488,empathy_intonation_perc,2024.2.4,MacIntel,60.24096386,5ef7bc9de683904f56114114,687ed1b7e638a4cbf2f02089,689b8cab27912031a1e0f0fc,,,,,,,,,,,,,19,1,,./stim/wavs/puertorican_match_interrogative-total-yn_Ana-lleva-el-abrigo.wav,,,,,,,,,,,,,,,,,,,,,,316.9798,319.6289,0,0,2.1155,,0,24,24,18,1,1,puertorican,,,,,,,,,,,,,,,,,,,,,,,,,,,,,,,,,,,,,,,,,,,,,,,,,,,,,,,,
,,,,,,,,,5ef7bc9de683904f56114114,Spanish,13 or older,"no, only English or Spanish",yes,2025-08-12_14h50.17.488,empathy_intonation_perc,2024.2.4,MacIntel,60.24096386,5ef7bc9de683904f56114114,687ed1b7e638a4cbf2f02089,689b8cab27912031a1e0f0fc,,,,,,,,,,,,,64,0,,./stim/wavs/puertorican_match_declarative-broad-focus_Daniel-iba-a-Bolivia.wav,,,,,,,,,,,,,,,,,,,,,,319.6296,322.178,0,1,2.0185,,0,25,25,63,1,0,puertorican,,,,,,,,,,,,,,,,,,,,,,,,,,,,,,,,,,,,,,,,,,,,,,,,,,,,,,,,
,,,,,,,,,5ef7bc9de683904f56114114,Spanish,13 or older,"no, only English or Spanish",yes,2025-08-12_14h50.17.488,empathy_intonation_perc,2024.2.4,MacIntel,60.24096386,5ef7bc9de683904f56114114,687ed1b7e638a4cbf2f02089,689b8cab27912031a1e0f0fc,,,,,,,,,,,,,81,0,,./stim/wavs/mexican_mismatch_declarative-broad-focus_La-maestra-vive-en-Paris.wav,,,,,,,,,,,,,,,,,,,,,,322.1787,325.328,0,1,2.6337,,0,26,26,80,1,0,mexican,,,,,,,,,,,,,,,,,,,,,,,,,,,,,,,,,,,,,,,,,,,,,,,,,,,,,,,,
,,,,,,,,,5ef7bc9de683904f56114114,Spanish,13 or older,"no, only English or Spanish",yes,2025-08-12_14h50.17.488,empathy_intonation_perc,2024.2.4,MacIntel,60.24096386,5ef7bc9de683904f56114114,687ed1b7e638a4cbf2f02089,689b8cab27912031a1e0f0fc,,,,,,,,,,,,,62,0,,./stim/wavs/mexican_match_declarative-broad-focus_Marta-abre-el-regalo.wav,,,,,,,,,,,,,,,,,,,,,,325.3288,328.079,0,1,2.2442,,0,27,27,61,1,0,mexican,,,,,,,,,,,,,,,,,,,,,,,,,,,,,,,,,,,,,,,,,,,,,,,,,,,,,,,,
,,,,,,,,,5ef7bc9de683904f56114114,Spanish,13 or older,"no, only English or Spanish",yes,2025-08-12_14h50.17.488,empathy_intonation_perc,2024.2.4,MacIntel,60.24096386,5ef7bc9de683904f56114114,687ed1b7e638a4cbf2f02089,689b8cab27912031a1e0f0fc,,,,,,,,,,,,,13,1,,./stim/wavs/mexican_match_interrogative-total-yn_Ana-lleva-el-abrigo.wav,,,,,,,,,,,,,,,,,,,,,,328.0797,330.929,1,1,2.3167,,0,28,28,12,1,0,mexican,,,,,,,,,,,,,,,,,,,,,,,,,,,,,,,,,,,,,,,,,,,,,,,,,,,,,,,,
,,,,,,,,,5ef7bc9de683904f56114114,Spanish,13 or older,"no, only English or Spanish",yes,2025-08-12_14h50.17.488,empathy_intonation_perc,2024.2.4,MacIntel,60.24096386,5ef7bc9de683904f56114114,687ed1b7e638a4cbf2f02089,689b8cab27912031a1e0f0fc,,,,,,,,,,,,,26,1,,./stim/wavs/castilian_mismatch_interrogative-total-yn_La-nina-lava-el-plato.wav,,,,,,,,,,,,,,,,,,,,,,330.9297,333.728,1,1,2.2669,,0,29,29,25,1,0,castilian,,,,,,,,,,,,,,,,,,,,,,,,,,,,,,,,,,,,,,,,,,,,,,,,,,,,,,,,
,,,,,,,,,5ef7bc9de683904f56114114,Spanish,13 or older,"no, only English or Spanish",yes,2025-08-12_14h50.17.488,empathy_intonation_perc,2024.2.4,MacIntel,60.24096386,5ef7bc9de683904f56114114,687ed1b7e638a4cbf2f02089,689b8cab27912031a1e0f0fc,,,,,,,,,,,,,3,1,,./stim/wavs/castilian_match_interrogative-total-yn_Manuela-vende-el-carro.wav,,,,,,,,,,,,,,,,,,,,,,333.7288,336.5124,1,1,2.2501,,0,30,30,2,1,0,castilian,,,,,,,,,,,,,,,,,,,,,,,,,,,,,,,,,,,,,,,,,,,,,,,,,,,,,,,,
,,,,,,,,,5ef7bc9de683904f56114114,Spanish,13 or older,"no, only English or Spanish",yes,2025-08-12_14h50.17.488,empathy_intonation_perc,2024.2.4,MacIntel,60.24096386,5ef7bc9de683904f56114114,687ed1b7e638a4cbf2f02089,689b8cab27912031a1e0f0fc,,,,,,,,,,,,,56,0,,./stim/wavs/cuban_match_declarative-broad-focus_Marta-abre-el-regalo.wav,,,,,,,,,,,,,,,,,,,,,,336.5131,338.9785,0,1,1.935,,0,31,31,55,1,0,cuban,,,,,,,,,,,,,,,,,,,,,,,,,,,,,,,,,,,,,,,,,,,,,,,,,,,,,,,,
,,,,,,,,,5ef7bc9de683904f56114114,Spanish,13 or older,"no, only English or Spanish",yes,2025-08-12_14h50.17.488,empathy_intonation_perc,2024.2.4,MacIntel,60.24096386,5ef7bc9de683904f56114114,687ed1b7e638a4cbf2f02089,689b8cab27912031a1e0f0fc,,,,,,,,,,,,,27,1,,./stim/wavs/castilian_mismatch_interrogative-total-yn_Mi-madre-come-la-fruta.wav,,,,,,,,,,,,,,,,,,,,,,338.9792,341.7792,1,1,2.2682,,0,32,32,26,1,0,castilian,,,,,,,,,,,,,,,,,,,,,,,,,,,,,,,,,,,,,,,,,,,,,,,,,,,,,,,,
,,,,,,,,,5ef7bc9de683904f56114114,Spanish,13 or older,"no, only English or Spanish",yes,2025-08-12_14h50.17.488,empathy_intonation_perc,2024.2.4,MacIntel,60.24096386,5ef7bc9de683904f56114114,687ed1b7e638a4cbf2f02089,689b8cab27912031a1e0f0fc,,,,,,,,,,,,,58,0,,./stim/wavs/mexican_match_declarative-broad-focus_Daniel-iba-a-Bolivia.wav,,,,,,,,,,,,,,,,,,,,,,341.7798,344.5115,0,1,2.2014,,0,33,33,57,1,0,mexican,,,,,,,,,,,,,,,,,,,,,,,,,,,,,,,,,,,,,,,,,,,,,,,,,,,,,,,,
,,,,,,,,,5ef7bc9de683904f56114114,Spanish,13 or older,"no, only English or Spanish",yes,2025-08-12_14h50.17.488,empathy_intonation_perc,2024.2.4,MacIntel,60.24096386,5ef7bc9de683904f56114114,687ed1b7e638a4cbf2f02089,689b8cab27912031a1e0f0fc,,,,,,,,,,,,,9,1,,./stim/wavs/cuban_match_interrogative-total-yn_Manuela-vende-el-carro.wav,,,,,,,,,,,,,,,,,,,,,,344.5123,346.829,0,0,1.8107,,0,34,34,8,1,1,cuban,,,,,,,,,,,,,,,,,,,,,,,,,,,,,,,,,,,,,,,,,,,,,,,,,,,,,,,,
,,,,,,,,,5ef7bc9de683904f56114114,Spanish,13 or older,"no, only English or Spanish",yes,2025-08-12_14h50.17.488,empathy_intonation_perc,2024.2.4,MacIntel,60.24096386,5ef7bc9de683904f56114114,687ed1b7e638a4cbf2f02089,689b8cab27912031a1e0f0fc,,,,,,,,,,,,,20,1,,./stim/wavs/puertorican_match_interrogative-total-yn_Daniel-iba-a-Bolivia.wav,,,,,,,,,,,,,,,,,,,,,,346.8297,349.2949,0,0,1.9328,,0,35,35,19,1,1,puertorican,,,,,,,,,,,,,,,,,,,,,,,,,,,,,,,,,,,,,,,,,,,,,,,,,,,,,,,,
,,,,,,,,,5ef7bc9de683904f56114114,Spanish,13 or older,"no, only English or Spanish",yes,2025-08-12_14h50.17.488,empathy_intonation_perc,2024.2.4,MacIntel,60.24096386,5ef7bc9de683904f56114114,687ed1b7e638a4cbf2f02089,689b8cab27912031a1e0f0fc,,,,,,,,,,,,,21,1,,./stim/wavs/puertorican_match_interrogative-total-yn_David-leia-el-libro.wav,,,,,,,,,,,,,,,,,,,,,,349.2956,351.4791,0,0,1.6496,,0,36,36,20,1,1,puertorican,,,,,,,,,,,,,,,,,,,,,,,,,,,,,,,,,,,,,,,,,,,,,,,,,,,,,,,,
,,,,,,,,,5ef7bc9de683904f56114114,Spanish,13 or older,"no, only English or Spanish",yes,2025-08-12_14h50.17.488,empathy_intonation_perc,2024.2.4,MacIntel,60.24096386,5ef7bc9de683904f56114114,687ed1b7e638a4cbf2f02089,689b8cab27912031a1e0f0fc,,,,,,,,,,,,,16,1,,./stim/wavs/mexican_match_interrogative-total-yn_Emilio-ama-la-marcha.wav,,,,,,,,,,,,,,,,,,,,,,351.48,354.0792,1,1,2.071,,0,37,37,15,1,0,mexican,,,,,,,,,,,,,,,,,,,,,,,,,,,,,,,,,,,,,,,,,,,,,,,,,,,,,,,,
,,,,,,,,,5ef7bc9de683904f56114114,Spanish,13 or older,"no, only English or Spanish",yes,2025-08-12_14h50.17.488,empathy_intonation_perc,2024.2.4,MacIntel,60.24096386,5ef7bc9de683904f56114114,687ed1b7e638a4cbf2f02089,689b8cab27912031a1e0f0fc,,,,,,,,,,,,,25,1,,./stim/wavs/castilian_mismatch_interrogative-total-yn_La-maestra-vive-en-Paris.wav,,,,,,,,,,,,,,,,,,,,,,354.0799,356.8126,1,1,2.2036,,0,38,38,24,1,0,castilian,,,,,,,,,,,,,,,,,,,,,,,,,,,,,,,,,,,,,,,,,,,,,,,,,,,,,,,,
,,,,,,,,,5ef7bc9de683904f56114114,Spanish,13 or older,"no, only English or Spanish",yes,2025-08-12_14h50.17.488,empathy_intonation_perc,2024.2.4,MacIntel,60.24096386,5ef7bc9de683904f56114114,687ed1b7e638a4cbf2f02089,689b8cab27912031a1e0f0fc,,,,,,,,,,,,,11,1,,./stim/wavs/cuban_match_interrogative-total-yn_Mariano-habla-del-tiempo.wav,,,,,,,,,,,,,,,,,,,,,,356.8133,359.4793,0,0,2.1354,,0,39,39,10,1,1,cuban,,,,,,,,,,,,,,,,,,,,,,,,,,,,,,,,,,,,,,,,,,,,,,,,,,,,,,,,
,,,,,,,,,5ef7bc9de683904f56114114,Spanish,13 or older,"no, only English or Spanish",yes,2025-08-12_14h50.17.488,empathy_intonation_perc,2024.2.4,MacIntel,60.24096386,5ef7bc9de683904f56114114,687ed1b7e638a4cbf2f02089,689b8cab27912031a1e0f0fc,,,,,,,,,,,,,30,1,,./stim/wavs/cuban_mismatch_interrogative-total-yn_El-hombre-mira-la-luna.wav,,,,,,,,,,,,,,,,,,,,,,359.4801,361.6623,0,0,1.6599,,0,40,40,29,1,1,cuban,,,,,,,,,,,,,,,,,,,,,,,,,,,,,,,,,,,,,,,,,,,,,,,,,,,,,,,,
,,,,,,,,,5ef7bc9de683904f56114114,Spanish,13 or older,"no, only English or Spanish",yes,2025-08-12_14h50.17.488,empathy_intonation_perc,2024.2.4,MacIntel,60.24096386,5ef7bc9de683904f56114114,687ed1b7e638a4cbf2f02089,689b8cab27912031a1e0f0fc,,,,,,,,,,,,,75,0,,./stim/wavs/cuban_mismatch_declarative-broad-focus_El-hombre-mira-la-luna.wav,,,,,,,,,,,,,,,,,,,,,,361.663,363.6458,0,1,1.4613,,0,41,41,74,1,0,cuban,,,,,,,,,,,,,,,,,,,,,,,,,,,,,,,,,,,,,,,,,,,,,,,,,,,,,,,,
,,,,,,,,,5ef7bc9de683904f56114114,Spanish,13 or older,"no, only English or Spanish",yes,2025-08-12_14h50.17.488,empathy_intonation_perc,2024.2.4,MacIntel,60.24096386,5ef7bc9de683904f56114114,687ed1b7e638a4cbf2f02089,689b8cab27912031a1e0f0fc,,,,,,,,,,,,,46,0,,./stim/wavs/castilian_match_declarative-broad-focus_Emilio-ama-la-marcha.wav,,,,,,,,,,,,,,,,,,,,,,363.6463,366.2292,0,1,2.0491,,0,42,42,45,1,0,castilian,,,,,,,,,,,,,,,,,,,,,,,,,,,,,,,,,,,,,,,,,,,,,,,,,,,,,,,,
,,,,,,,,,5ef7bc9de683904f56114114,Spanish,13 or older,"no, only English or Spanish",yes,2025-08-12_14h50.17.488,empathy_intonation_perc,2024.2.4,MacIntel,60.24096386,5ef7bc9de683904f56114114,687ed1b7e638a4cbf2f02089,689b8cab27912031a1e0f0fc,,,,,,,,,,,,,15,1,,./stim/wavs/mexican_match_interrogative-total-yn_David-leia-el-libro.wav,,,,,,,,,,,,,,,,,,,,,,366.23,368.4291,1,1,1.6663,,0,43,43,14,1,0,mexican,,,,,,,,,,,,,,,,,,,,,,,,,,,,,,,,,,,,,,,,,,,,,,,,,,,,,,,,
,,,,,,,,,5ef7bc9de683904f56114114,Spanish,13 or older,"no, only English or Spanish",yes,2025-08-12_14h50.17.488,empathy_intonation_perc,2024.2.4,MacIntel,60.24096386,5ef7bc9de683904f56114114,687ed1b7e638a4cbf2f02089,689b8cab27912031a1e0f0fc,,,,,,,,,,,,,83,0,,./stim/wavs/mexican_mismatch_declarative-broad-focus_Mi-tia-odia-la-lluvia.wav,,,,,,,,,,,,,,,,,,,,,,368.4299,370.7456,0,1,1.7871,,0,44,44,82,1,0,mexican,,,,,,,,,,,,,,,,,,,,,,,,,,,,,,,,,,,,,,,,,,,,,,,,,,,,,,,,
,,,,,,,,,5ef7bc9de683904f56114114,Spanish,13 or older,"no, only English or Spanish",yes,2025-08-12_14h50.17.488,empathy_intonation_perc,2024.2.4,MacIntel,60.24096386,5ef7bc9de683904f56114114,687ed1b7e638a4cbf2f02089,689b8cab27912031a1e0f0fc,,,,,,,,,,,,,44,1,,./stim/wavs/puertorican_mismatch_interrogative-total-yn_Mi-madre-come-la-fruta.wav,,,,,,,,,,,,,,,,,,,,,,370.7462,373.2625,0,0,1.9821,,0,45,45,43,1,1,puertorican,,,,,,,,,,,,,,,,,,,,,,,,,,,,,,,,,,,,,,,,,,,,,,,,,,,,,,,,
,,,,,,,,,5ef7bc9de683904f56114114,Spanish,13 or older,"no, only English or Spanish",yes,2025-08-12_14h50.17.488,empathy_intonation_perc,2024.2.4,MacIntel,60.24096386,5ef7bc9de683904f56114114,687ed1b7e638a4cbf2f02089,689b8cab27912031a1e0f0fc,,,,,,,,,,,,,33,1,,./stim/wavs/cuban_mismatch_interrogative-total-yn_Mi-novio-viene-del-lago.wav,,,,,,,,,,,,,,,,,,,,,,373.2631,375.5949,1,1,1.8012,,0,46,46,32,1,1,cuban,,,,,,,,,,,,,,,,,,,,,,,,,,,,,,,,,,,,,,,,,,,,,,,,,,,,,,,,
,,,,,,,,,5ef7bc9de683904f56114114,Spanish,13 or older,"no, only English or Spanish",yes,2025-08-12_14h50.17.488,empathy_intonation_perc,2024.2.4,MacIntel,60.24096386,5ef7bc9de683904f56114114,687ed1b7e638a4cbf2f02089,689b8cab27912031a1e0f0fc,,,,,,,,,,,,,40,1,,./stim/wavs/puertorican_mismatch_interrogative-total-yn_El-hombre-mira-la-luna.wav,,,,,,,,,,,,,,,,,,,,,,375.5958,377.8625,0,0,1.75,,0,47,47,39,1,1,puertorican,,,,,,,,,,,,,,,,,,,,,,,,,,,,,,,,,,,,,,,,,,,,,,,,,,,,,,,,
,,,,,,,,,5ef7bc9de683904f56114114,Spanish,13 or older,"no, only English or Spanish",yes,2025-08-12_14h50.17.488,empathy_intonation_perc,2024.2.4,MacIntel,60.24096386,5ef7bc9de683904f56114114,687ed1b7e638a4cbf2f02089,689b8cab27912031a1e0f0fc,,,,,,,,,,,,,31,1,,./stim/wavs/cuban_mismatch_interrogative-total-yn_El-nino-oye-el-rio.wav,,,,,,,,,,,,,,,,,,,,,,377.863,380.1116,0,0,1.7232,,0,48,48,30,1,1,cuban,,,,,,,,,,,,,,,,,,,,,,,,,,,,,,,,,,,,,,,,,,,,,,,,,,,,,,,,
,,,,,,,,,5ef7bc9de683904f56114114,Spanish,13 or older,"no, only English or Spanish",yes,2025-08-12_14h50.17.488,empathy_intonation_perc,2024.2.4,MacIntel,60.24096386,5ef7bc9de683904f56114114,687ed1b7e638a4cbf2f02089,689b8cab27912031a1e0f0fc,,,,,,,,,,,,,86,0,,./stim/wavs/puertorican_mismatch_declarative-broad-focus_El-nino-oye-el-rio.wav,,,,,,,,,,,,,,,,,,,,,,380.1121,382.2616,0,1,1.6159,,0,49,49,85,1,0,puertorican,,,,,,,,,,,,,,,,,,,,,,,,,,,,,,,,,,,,,,,,,,,,,,,,,,,,,,,,
,,,,,,,,,5ef7bc9de683904f56114114,Spanish,13 or older,"no, only English or Spanish",yes,2025-08-12_14h50.17.488,empathy_intonation_perc,2024.2.4,MacIntel,60.24096386,5ef7bc9de683904f56114114,687ed1b7e638a4cbf2f02089,689b8cab27912031a1e0f0fc,,,,,,,,,,,,,57,0,,./stim/wavs/mexican_match_declarative-broad-focus_Ana-lleva-el-abrigo.wav,,,,,,,,,,,,,,,,,,,,,,382.2621,384.2954,0,1,1.5166,,0,50,50,56,1,0,mexican,,,,,,,,,,,,,,,,,,,,,,,,,,,,,,,,,,,,,,,,,,,,,,,,,,,,,,,,
,,,,,,,,,5ef7bc9de683904f56114114,Spanish,13 or older,"no, only English or Spanish",yes,2025-08-12_14h50.17.488,empathy_intonation_perc,2024.2.4,MacIntel,60.24096386,5ef7bc9de683904f56114114,687ed1b7e638a4cbf2f02089,689b8cab27912031a1e0f0fc,,,,,,,,,,,,,69,0,,./stim/wavs/castilian_mismatch_declarative-broad-focus_El-nino-oye-el-rio.wav,,,,,,,,,,,,,,,,,,,,,,384.296,386.729,0,1,1.9031,,0,51,51,68,1,0,castilian,,,,,,,,,,,,,,,,,,,,,,,,,,,,,,,,,,,,,,,,,,,,,,,,,,,,,,,,
,,,,,,,,,5ef7bc9de683904f56114114,Spanish,13 or older,"no, only English or Spanish",yes,2025-08-12_14h50.17.488,empathy_intonation_perc,2024.2.4,MacIntel,60.24096386,5ef7bc9de683904f56114114,687ed1b7e638a4cbf2f02089,689b8cab27912031a1e0f0fc,,,,,,,,,,,,,88,0,,./stim/wavs/puertorican_mismatch_declarative-broad-focus_La-nina-lava-el-plato.wav,,,,,,,,,,,,,,,,,,,,,,386.7296,388.7615,0,1,1.5114,,0,52,52,87,1,0,puertorican,,,,,,,,,,,,,,,,,,,,,,,,,,,,,,,,,,,,,,,,,,,,,,,,,,,,,,,,
,,,,,,,,,5ef7bc9de683904f56114114,Spanish,13 or older,"no, only English or Spanish",yes,2025-08-12_14h50.17.488,empathy_intonation_perc,2024.2.4,MacIntel,60.24096386,5ef7bc9de683904f56114114,687ed1b7e638a4cbf2f02089,689b8cab27912031a1e0f0fc,,,,,,,,,,,,,80,0,,./stim/wavs/mexican_mismatch_declarative-broad-focus_El-hombre-mira-la-luna.wav,,,,,,,,,,,,,,,,,,,,,,388.7621,390.8791,0,1,1.5982,,0,53,53,79,1,0,mexican,,,,,,,,,,,,,,,,,,,,,,,,,,,,,,,,,,,,,,,,,,,,,,,,,,,,,,,,
,,,,,,,,,5ef7bc9de683904f56114114,Spanish,13 or older,"no, only English or Spanish",yes,2025-08-12_14h50.17.488,empathy_intonation_perc,2024.2.4,MacIntel,60.24096386,5ef7bc9de683904f56114114,687ed1b7e638a4cbf2f02089,689b8cab27912031a1e0f0fc,,,,,,,,,,,,,45,0,,./stim/wavs/castilian_match_declarative-broad-focus_David-leia-el-libro.wav,,,,,,,,,,,,,,,,,,,,,,390.8798,393.2792,0,1,1.8669,,0,54,54,44,1,0,castilian,,,,,,,,,,,,,,,,,,,,,,,,,,,,,,,,,,,,,,,,,,,,,,,,,,,,,,,,
,,,,,,,,,5ef7bc9de683904f56114114,Spanish,13 or older,"no, only English or Spanish",yes,2025-08-12_14h50.17.488,empathy_intonation_perc,2024.2.4,MacIntel,60.24096386,5ef7bc9de683904f56114114,687ed1b7e638a4cbf2f02089,689b8cab27912031a1e0f0fc,,,,,,,,,,,,,82,0,,./stim/wavs/mexican_mismatch_declarative-broad-focus_Mi-novio-viene-del-lago.wav,,,,,,,,,,,,,,,,,,,,,,393.2802,395.3449,0,1,1.5342,,0,55,55,81,1,0,mexican,,,,,,,,,,,,,,,,,,,,,,,,,,,,,,,,,,,,,,,,,,,,,,,,,,,,,,,,
,,,,,,,,,5ef7bc9de683904f56114114,Spanish,13 or older,"no, only English or Spanish",yes,2025-08-12_14h50.17.488,empathy_intonation_perc,2024.2.4,MacIntel,60.24096386,5ef7bc9de683904f56114114,687ed1b7e638a4cbf2f02089,689b8cab27912031a1e0f0fc,,,,,,,,,,,,,51,0,,./stim/wavs/cuban_match_declarative-broad-focus_Ana-lleva-el-abrigo.wav,,,,,,,,,,,,,,,,,,,,,,395.3455,397.4456,0,1,1.5703,,0,56,56,50,1,0,cuban,,,,,,,,,,,,,,,,,,,,,,,,,,,,,,,,,,,,,,,,,,,,,,,,,,,,,,,,
,,,,,,,,,5ef7bc9de683904f56114114,Spanish,13 or older,"no, only English or Spanish",yes,2025-08-12_14h50.17.488,empathy_intonation_perc,2024.2.4,MacIntel,60.24096386,5ef7bc9de683904f56114114,687ed1b7e638a4cbf2f02089,689b8cab27912031a1e0f0fc,,,,,,,,,,,,,5,1,,./stim/wavs/castilian_match_interrogative-total-yn_Mariano-habla-del-tiempo.wav,,,,,,,,,,,,,,,,,,,,,,397.4461,399.9124,1,1,1.9347,,0,57,57,4,1,0,castilian,,,,,,,,,,,,,,,,,,,,,,,,,,,,,,,,,,,,,,,,,,,,,,,,,,,,,,,,
,,,,,,,,,5ef7bc9de683904f56114114,Spanish,13 or older,"no, only English or Spanish",yes,2025-08-12_14h50.17.488,empathy_intonation_perc,2024.2.4,MacIntel,60.24096386,5ef7bc9de683904f56114114,687ed1b7e638a4cbf2f02089,689b8cab27912031a1e0f0fc,,,,,,,,,,,,,28,1,,./stim/wavs/castilian_mismatch_interrogative-total-yn_Mi-novio-viene-del-lago.wav,,,,,,,,,,,,,,,,,,,,,,399.913,402.1957,1,1,1.7501,,0,58,58,27,1,0,castilian,,,,,,,,,,,,,,,,,,,,,,,,,,,,,,,,,,,,,,,,,,,,,,,,,,,,,,,,
,,,,,,,,,5ef7bc9de683904f56114114,Spanish,13 or older,"no, only English or Spanish",yes,2025-08-12_14h50.17.488,empathy_intonation_perc,2024.2.4,MacIntel,60.24096386,5ef7bc9de683904f56114114,687ed1b7e638a4cbf2f02089,689b8cab27912031a1e0f0fc,,,,,,,,,,,,,6,1,,./stim/wavs/castilian_match_interrogative-total-yn_Marta-abre-el-regalo.wav,,,,,,,,,,,,,,,,,,,,,,402.1965,404.3958,1,1,1.6699,,0,59,59,5,1,0,castilian,,,,,,,,,,,,,,,,,,,,,,,,,,,,,,,,,,,,,,,,,,,,,,,,,,,,,,,,
,,,,,,,,,5ef7bc9de683904f56114114,Spanish,13 or older,"no, only English or Spanish",yes,2025-08-12_14h50.17.488,empathy_intonation_perc,2024.2.4,MacIntel,60.24096386,5ef7bc9de683904f56114114,687ed1b7e638a4cbf2f02089,689b8cab27912031a1e0f0fc,,,,,,,,,,,,,8,1,,./stim/wavs/cuban_match_interrogative-total-yn_Daniel-iba-a-Bolivia.wav,,,,,,,,,,,,,,,,,,,,,,404.3964,406.4292,1,1,1.5051,,0,60,60,7,1,1,cuban,,,,,,,,,,,,,,,,,,,,,,,,,,,,,,,,,,,,,,,,,,,,,,,,,,,,,,,,
,,,,,,,,,5ef7bc9de683904f56114114,Spanish,13 or older,"no, only English or Spanish",yes,2025-08-12_14h50.17.488,empathy_intonation_perc,2024.2.4,MacIntel,60.24096386,5ef7bc9de683904f56114114,687ed1b7e638a4cbf2f02089,689b8cab27912031a1e0f0fc,,,,,,,,,,,,,37,1,,./stim/wavs/mexican_mismatch_interrogative-total-yn_La-maestra-vive-en-Paris.wav,,,,,,,,,,,,,,,,,,,,,,406.4299,408.9125,1,1,1.9516,,0,61,61,36,1,0,mexican,,,,,,,,,,,,,,,,,,,,,,,,,,,,,,,,,,,,,,,,,,,,,,,,,,,,,,,,
,,,,,,,,,5ef7bc9de683904f56114114,Spanish,13 or older,"no, only English or Spanish",yes,2025-08-12_14h50.17.488,empathy_intonation_perc,2024.2.4,MacIntel,60.24096386,5ef7bc9de683904f56114114,687ed1b7e638a4cbf2f02089,689b8cab27912031a1e0f0fc,,,,,,,,,,,,,7,1,,./stim/wavs/cuban_match_interrogative-total-yn_Ana-lleva-el-abrigo.wav,,,,,,,,,,,,,,,,,,,,,,408.9131,411.1624,1,1,1.7164,,0,62,62,6,1,1,cuban,,,,,,,,,,,,,,,,,,,,,,,,,,,,,,,,,,,,,,,,,,,,,,,,,,,,,,,,
,,,,,,,,,5ef7bc9de683904f56114114,Spanish,13 or older,"no, only English or Spanish",yes,2025-08-12_14h50.17.488,empathy_intonation_perc,2024.2.4,MacIntel,60.24096386,5ef7bc9de683904f56114114,687ed1b7e638a4cbf2f02089,689b8cab27912031a1e0f0fc,,,,,,,,,,,,,2,1,,./stim/wavs/castilian_match_interrogative-total-yn_Emilio-ama-la-marcha.wav,,,,,,,,,,,,,,,,,,,,,,411.1631,413.445,1,1,1.7499,,0,63,63,1,1,0,castilian,,,,,,,,,,,,,,,,,,,,,,,,,,,,,,,,,,,,,,,,,,,,,,,,,,,,,,,,
,,,,,,,,,5ef7bc9de683904f56114114,Spanish,13 or older,"no, only English or Spanish",yes,2025-08-12_14h50.17.488,empathy_intonation_perc,2024.2.4,MacIntel,60.24096386,5ef7bc9de683904f56114114,687ed1b7e638a4cbf2f02089,689b8cab27912031a1e0f0fc,,,,,,,,,,,,,12,1,,./stim/wavs/cuban_match_interrogative-total-yn_Marta-abre-el-regalo.wav,,,,,,,,,,,,,,,,,,,,,,413.4457,415.6125,0,0,1.6497,,0,64,64,11,1,1,cuban,,,,,,,,,,,,,,,,,,,,,,,,,,,,,,,,,,,,,,,,,,,,,,,,,,,,,,,,
,,,,,,,,,5ef7bc9de683904f56114114,Spanish,13 or older,"no, only English or Spanish",yes,2025-08-12_14h50.17.488,empathy_intonation_perc,2024.2.4,MacIntel,60.24096386,5ef7bc9de683904f56114114,687ed1b7e638a4cbf2f02089,689b8cab27912031a1e0f0fc,,,,,,,,,,,,,87,0,,./stim/wavs/puertorican_mismatch_declarative-broad-focus_La-maestra-vive-en-Paris.wav,,,,,,,,,,,,,,,,,,,,,,415.6134,417.7958,0,1,1.6507,,0,65,65,86,1,0,puertorican,,,,,,,,,,,,,,,,,,,,,,,,,,,,,,,,,,,,,,,,,,,,,,,,,,,,,,,,
,,,,,,,,,5ef7bc9de683904f56114114,Spanish,13 or older,"no, only English or Spanish",yes,2025-08-12_14h50.17.488,empathy_intonation_perc,2024.2.4,MacIntel,60.24096386,5ef7bc9de683904f56114114,687ed1b7e638a4cbf2f02089,689b8cab27912031a1e0f0fc,,,,,,,,,,,,,23,1,,./stim/wavs/puertorican_match_interrogative-total-yn_Manuela-vende-el-carro.wav,,,,,,,,,,,,,,,,,,,,,,417.7965,420.0459,0,0,1.721,,0,66,66,22,1,1,puertorican,,,,,,,,,,,,,,,,,,,,,,,,,,,,,,,,,,,,,,,,,,,,,,,,,,,,,,,,
,,,,,,,,,5ef7bc9de683904f56114114,Spanish,13 or older,"no, only English or Spanish",yes,2025-08-12_14h50.17.488,empathy_intonation_perc,2024.2.4,MacIntel,60.24096386,5ef7bc9de683904f56114114,687ed1b7e638a4cbf2f02089,689b8cab27912031a1e0f0fc,,,,,,,,,,,,,73,0,,./stim/wavs/castilian_mismatch_declarative-broad-focus_Mi-tia-odia-la-lluvia.wav,,,,,,,,,,,,,,,,,,,,,,420.0464,422.3624,0,1,1.7864,,0,67,67,72,1,0,castilian,,,,,,,,,,,,,,,,,,,,,,,,,,,,,,,,,,,,,,,,,,,,,,,,,,,,,,,,
,,,,,,,,,5ef7bc9de683904f56114114,Spanish,13 or older,"no, only English or Spanish",yes,2025-08-12_14h50.17.488,empathy_intonation_perc,2024.2.4,MacIntel,60.24096386,5ef7bc9de683904f56114114,687ed1b7e638a4cbf2f02089,689b8cab27912031a1e0f0fc,,,,,,,,,,,,,50,0,,./stim/wavs/castilian_match_declarative-broad-focus_Marta-abre-el-regalo.wav,,,,,,,,,,,,,,,,,,,,,,422.363,424.5457,0,1,1.6621,,0,68,68,49,1,0,castilian,,,,,,,,,,,,,,,,,,,,,,,,,,,,,,,,,,,,,,,,,,,,,,,,,,,,,,,,
,,,,,,,,,5ef7bc9de683904f56114114,Spanish,13 or older,"no, only English or Spanish",yes,2025-08-12_14h50.17.488,empathy_intonation_perc,2024.2.4,MacIntel,60.24096386,5ef7bc9de683904f56114114,687ed1b7e638a4cbf2f02089,689b8cab27912031a1e0f0fc,,,,,,,,,,,,,70,0,,./stim/wavs/castilian_mismatch_declarative-broad-focus_La-maestra-vive-en-Paris.wav,,,,,,,,,,,,,,,,,,,,,,424.5463,427.1125,0,1,2.0336,,0,69,69,69,1,0,castilian,,,,,,,,,,,,,,,,,,,,,,,,,,,,,,,,,,,,,,,,,,,,,,,,,,,,,,,,
,,,,,,,,,5ef7bc9de683904f56114114,Spanish,13 or older,"no, only English or Spanish",yes,2025-08-12_14h50.17.488,empathy_intonation_perc,2024.2.4,MacIntel,60.24096386,5ef7bc9de683904f56114114,687ed1b7e638a4cbf2f02089,689b8cab27912031a1e0f0fc,,,,,,,,,,,,,65,0,,./stim/wavs/puertorican_match_declarative-broad-focus_David-leia-el-libro.wav,,,,,,,,,,,,,,,,,,,,,,427.113,429.2125,0,1,1.5665,,0,70,70,64,1,0,puertorican,,,,,,,,,,,,,,,,,,,,,,,,,,,,,,,,,,,,,,,,,,,,,,,,,,,,,,,,
,,,,,,,,,5ef7bc9de683904f56114114,Spanish,13 or older,"no, only English or Spanish",yes,2025-08-12_14h50.17.488,empathy_intonation_perc,2024.2.4,MacIntel,60.24096386,5ef7bc9de683904f56114114,687ed1b7e638a4cbf2f02089,689b8cab27912031a1e0f0fc,,,,,,,,,,,,,53,0,,./stim/wavs/cuban_match_declarative-broad-focus_Manuela-vende-el-carro.wav,,,,,,,,,,,,,,,,,,,,,,429.2132,431.396,0,1,1.6508,,0,71,71,52,1,0,cuban,,,,,,,,,,,,,,,,,,,,,,,,,,,,,,,,,,,,,,,,,,,,,,,,,,,,,,,,
,,,,,,,,,5ef7bc9de683904f56114114,Spanish,13 or older,"no, only English or Spanish",yes,2025-08-12_14h50.17.488,empathy_intonation_perc,2024.2.4,MacIntel,60.24096386,5ef7bc9de683904f56114114,687ed1b7e638a4cbf2f02089,689b8cab27912031a1e0f0fc,,,,,,,,,,,,,49,0,,./stim/wavs/castilian_match_declarative-broad-focus_Mariano-habla-del-tiempo.wav,,,,,,,,,,,,,,,,,,,,,,431.3967,433.8125,0,1,1.8826,,0,72,72,48,1,0,castilian,,,,,,,,,,,,,,,,,,,,,,,,,,,,,,,,,,,,,,,,,,,,,,,,,,,,,,,,
,,,,,,,,,5ef7bc9de683904f56114114,Spanish,13 or older,"no, only English or Spanish",yes,2025-08-12_14h50.17.488,empathy_intonation_perc,2024.2.4,MacIntel,60.24096386,5ef7bc9de683904f56114114,687ed1b7e638a4cbf2f02089,689b8cab27912031a1e0f0fc,,,,,,,,,,,,,35,1,,./stim/wavs/mexican_mismatch_interrogative-total-yn_El-hombre-mira-la-luna.wav,,,,,,,,,,,,,,,,,,,,,,433.8132,436.2458,1,1,1.9062,,0,73,73,34,1,0,mexican,,,,,,,,,,,,,,,,,,,,,,,,,,,,,,,,,,,,,,,,,,,,,,,,,,,,,,,,
,,,,,,,,,5ef7bc9de683904f56114114,Spanish,13 or older,"no, only English or Spanish",yes,2025-08-12_14h50.17.488,empathy_intonation_perc,2024.2.4,MacIntel,60.24096386,5ef7bc9de683904f56114114,687ed1b7e638a4cbf2f02089,689b8cab27912031a1e0f0fc,,,,,,,,,,,,,18,1,,./stim/wavs/mexican_match_interrogative-total-yn_Marta-abre-el-regalo.wav,,,,,,,,,,,,,,,,,,,,,,436.2465,438.2459,1,1,1.4663,,0,74,74,17,1,0,mexican,,,,,,,,,,,,,,,,,,,,,,,,,,,,,,,,,,,,,,,,,,,,,,,,,,,,,,,,
,,,,,,,,,5ef7bc9de683904f56114114,Spanish,13 or older,"no, only English or Spanish",yes,2025-08-12_14h50.17.488,empathy_intonation_perc,2024.2.4,MacIntel,60.24096386,5ef7bc9de683904f56114114,687ed1b7e638a4cbf2f02089,689b8cab27912031a1e0f0fc,,,,,,,,,,,,,41,1,,./stim/wavs/puertorican_mismatch_interrogative-total-yn_El-nino-oye-el-rio.wav,,,,,,,,,,,,,,,,,,,,,,438.2466,440.5287,0,0,1.7509,,0,75,75,40,1,1,puertorican,,,,,,,,,,,,,,,,,,,,,,,,,,,,,,,,,,,,,,,,,,,,,,,,,,,,,,,,
,,,,,,,,,5ef7bc9de683904f56114114,Spanish,13 or older,"no, only English or Spanish",yes,2025-08-12_14h50.17.488,empathy_intonation_perc,2024.2.4,MacIntel,60.24096386,5ef7bc9de683904f56114114,687ed1b7e638a4cbf2f02089,689b8cab27912031a1e0f0fc,,,,,,,,,,,,,14,1,,./stim/wavs/mexican_match_interrogative-total-yn_Daniel-iba-a-Bolivia.wav,,,,,,,,,,,,,,,,,,,,,,440.5292,442.7959,1,1,1.7337,,0,76,76,13,1,0,mexican,,,,,,,,,,,,,,,,,,,,,,,,,,,,,,,,,,,,,,,,,,,,,,,,,,,,,,,,
,,,,,,,,,5ef7bc9de683904f56114114,Spanish,13 or older,"no, only English or Spanish",yes,2025-08-12_14h50.17.488,empathy_intonation_perc,2024.2.4,MacIntel,60.24096386,5ef7bc9de683904f56114114,687ed1b7e638a4cbf2f02089,689b8cab27912031a1e0f0fc,,,,,,,,,,,,,85,0,,./stim/wavs/puertorican_mismatch_declarative-broad-focus_El-hombre-mira-la-luna.wav,,,,,,,,,,,,,,,,,,,,,,442.7966,444.9627,0,1,1.6331,,0,77,77,84,1,0,puertorican,,,,,,,,,,,,,,,,,,,,,,,,,,,,,,,,,,,,,,,,,,,,,,,,,,,,,,,,
,,,,,,,,,5ef7bc9de683904f56114114,Spanish,13 or older,"no, only English or Spanish",yes,2025-08-12_14h50.17.488,empathy_intonation_perc,2024.2.4,MacIntel,60.24096386,5ef7bc9de683904f56114114,687ed1b7e638a4cbf2f02089,689b8cab27912031a1e0f0fc,,,,,,,,,,,,,60,0,,./stim/wavs/mexican_match_declarative-broad-focus_Emilio-ama-la-marcha.wav,,,,,,,,,,,,,,,,,,,,,,444.9636,447.9288,0,1,2.4329,,0,78,78,59,1,0,mexican,,,,,,,,,,,,,,,,,,,,,,,,,,,,,,,,,,,,,,,,,,,,,,,,,,,,,,,,
,,,,,,,,,5ef7bc9de683904f56114114,Spanish,13 or older,"no, only English or Spanish",yes,2025-08-12_14h50.17.488,empathy_intonation_perc,2024.2.4,MacIntel,60.24096386,5ef7bc9de683904f56114114,687ed1b7e638a4cbf2f02089,689b8cab27912031a1e0f0fc,,,,,,,,,,,,,42,1,,./stim/wavs/puertorican_mismatch_interrogative-total-yn_La-maestra-vive-en-Paris.wav,,,,,,,,,,,,,,,,,,,,,,447.9296,450.2126,0,0,1.7532,,0,79,79,41,1,1,puertorican,,,,,,,,,,,,,,,,,,,,,,,,,,,,,,,,,,,,,,,,,,,,,,,,,,,,,,,,
,,,,,,,,,5ef7bc9de683904f56114114,Spanish,13 or older,"no, only English or Spanish",yes,2025-08-12_14h50.17.488,empathy_intonation_perc,2024.2.4,MacIntel,60.24096386,5ef7bc9de683904f56114114,687ed1b7e638a4cbf2f02089,689b8cab27912031a1e0f0fc,,,,,,,,,,,,,24,1,,./stim/wavs/puertorican_match_interrogative-total-yn_Maria-bebe-el-vino.wav,,,,,,,,,,,,,,,,,,,,,,450.2132,451.9627,1,1,1.2165,,0,80,80,23,1,1,puertorican,,,,,,,,,,,,,,,,,,,,,,,,,,,,,,,,,,,,,,,,,,,,,,,,,,,,,,,,
,,,,,,,,,5ef7bc9de683904f56114114,Spanish,13 or older,"no, only English or Spanish",yes,2025-08-12_14h50.17.488,empathy_intonation_perc,2024.2.4,MacIntel,60.24096386,5ef7bc9de683904f56114114,687ed1b7e638a4cbf2f02089,689b8cab27912031a1e0f0fc,,,,,,,,,,,,,17,1,,./stim/wavs/mexican_match_interrogative-total-yn_Mariano-habla-del-tiempo.wav,,,,,,,,,,,,,,,,,,,,,,451.9634,454.2127,1,1,1.7164,,0,81,81,16,1,0,mexican,,,,,,,,,,,,,,,,,,,,,,,,,,,,,,,,,,,,,,,,,,,,,,,,,,,,,,,,
,,,,,,,,,5ef7bc9de683904f56114114,Spanish,13 or older,"no, only English or Spanish",yes,2025-08-12_14h50.17.488,empathy_intonation_perc,2024.2.4,MacIntel,60.24096386,5ef7bc9de683904f56114114,687ed1b7e638a4cbf2f02089,689b8cab27912031a1e0f0fc,,,,,,,,,,,,,84,0,,./stim/wavs/puertorican_mismatch_declarative-broad-focus_El-bebe-comia-muy-bien.wav,,,,,,,,,,,,,,,,,,,,,,454.2133,456.496,0,1,1.7501,,0,82,82,83,1,0,puertorican,,,,,,,,,,,,,,,,,,,,,,,,,,,,,,,,,,,,,,,,,,,,,,,,,,,,,,,,
,,,,,,,,,5ef7bc9de683904f56114114,Spanish,13 or older,"no, only English or Spanish",yes,2025-08-12_14h50.17.488,empathy_intonation_perc,2024.2.4,MacIntel,60.24096386,5ef7bc9de683904f56114114,687ed1b7e638a4cbf2f02089,689b8cab27912031a1e0f0fc,,,,,,,,,,,,,63,0,,./stim/wavs/puertorican_match_declarative-broad-focus_Ana-lleva-el-abrigo.wav,,,,,,,,,,,,,,,,,,,,,,456.4966,459.1125,0,1,2.0838,,0,83,83,62,1,0,puertorican,,,,,,,,,,,,,,,,,,,,,,,,,,,,,,,,,,,,,,,,,,,,,,,,,,,,,,,,
,,,,,,,,,5ef7bc9de683904f56114114,Spanish,13 or older,"no, only English or Spanish",yes,2025-08-12_14h50.17.488,empathy_intonation_perc,2024.2.4,MacIntel,60.24096386,5ef7bc9de683904f56114114,687ed1b7e638a4cbf2f02089,689b8cab27912031a1e0f0fc,,,,,,,,,,,,,43,1,,./stim/wavs/puertorican_mismatch_interrogative-total-yn_La-nina-lava-el-plato.wav,,,,,,,,,,,,,,,,,,,,,,459.1132,461.2459,0,0,1.6001,,0,84,84,42,1,1,puertorican,,,,,,,,,,,,,,,,,,,,,,,,,,,,,,,,,,,,,,,,,,,,,,,,,,,,,,,,
,,,,,,,,,5ef7bc9de683904f56114114,Spanish,13 or older,"no, only English or Spanish",yes,2025-08-12_14h50.17.488,empathy_intonation_perc,2024.2.4,MacIntel,60.24096386,5ef7bc9de683904f56114114,687ed1b7e638a4cbf2f02089,689b8cab27912031a1e0f0fc,,,,,,,,,,,,,55,0,,./stim/wavs/cuban_match_declarative-broad-focus_Mariano-habla-del-tiempo.wav,,,,,,,,,,,,,,,,,,,,,,461.2465,463.8291,0,1,2.0606,,0,85,85,54,1,0,cuban,,,,,,,,,,,,,,,,,,,,,,,,,,,,,,,,,,,,,,,,,,,,,,,,,,,,,,,,
,,,,,,,,,5ef7bc9de683904f56114114,Spanish,13 or older,"no, only English or Spanish",yes,2025-08-12_14h50.17.488,empathy_intonation_perc,2024.2.4,MacIntel,60.24096386,5ef7bc9de683904f56114114,687ed1b7e638a4cbf2f02089,689b8cab27912031a1e0f0fc,,,,,,,,,,,,,66,0,,./stim/wavs/puertorican_match_declarative-broad-focus_Emilio-ama-la-marcha.wav,,,,,,,,,,,,,,,,,,,,,,463.8297,465.979,0,1,1.6286,,0,86,86,65,1,0,puertorican,,,,,,,,,,,,,,,,,,,,,,,,,,,,,,,,,,,,,,,,,,,,,,,,,,,,,,,,
,,,,,,,,,5ef7bc9de683904f56114114,Spanish,13 or older,"no, only English or Spanish",yes,2025-08-12_14h50.17.488,empathy_intonation_perc,2024.2.4,MacIntel,60.24096386,5ef7bc9de683904f56114114,687ed1b7e638a4cbf2f02089,689b8cab27912031a1e0f0fc,,,,,,,,,,,,,29,1,,./stim/wavs/castilian_mismatch_interrogative-total-yn_Mi-tia-odia-la-lluvia.wav,,,,,,,,,,,,,,,,,,,,,,465.9796,468.146,1,1,1.6335,,0,87,87,28,1,0,castilian,,,,,,,,,,,,,,,,,,,,,,,,,,,,,,,,,,,,,,,,,,,,,,,,,,,,,,,,
,,,,,,,"Great! Now we will move on. The next task consists of about 60 trials, in each of which you will see a string of letters. 
  
  Your task is to decide whether this is a real Spanish word or not.", (press the spacebar to continue),5ef7bc9de683904f56114114,Spanish,13 or older,"no, only English or Spanish",yes,2025-08-12_14h50.17.488,empathy_intonation_perc,2024.2.4,MacIntel,60.24096386,5ef7bc9de683904f56114114,687ed1b7e638a4cbf2f02089,689b8cab27912031a1e0f0fc,,,,,,,,,,,,,,,,,,,,,,,,,,,,,,,,,,,,,,,,,,,,,,,,,,,468.1534,475.4128,0,0,0,0,1,,,,,,,,,,,,,,,,,,,,,,,,,,,,,,,,,,,,,,,,,,,,,,,,,
,,,,,,,"If you think it is an existing Spanish word, you type '1' (for 'REAL'), and if you think it is not an existing Spanish word, you type '0' (for 'FAKE').", (press the spacebar to continue),5ef7bc9de683904f56114114,Spanish,13 or older,"no, only English or Spanish",yes,2025-08-12_14h50.17.488,empathy_intonation_perc,2024.2.4,MacIntel,60.24096386,5ef7bc9de683904f56114114,687ed1b7e638a4cbf2f02089,689b8cab27912031a1e0f0fc,,,,,,,,,,,,,,,,,,,,,,,,,,,,,,,,,,,,,,,,,,,,,,,,,,,475.415,482.0794,0,1,1,1,1,,,,,,,,,,,,,,,,,,,,,,,,,,,,,,,,,,,,,,,,,,,,,,,,,
,,,,,,,"If you are sure that the word exists, even though you don’t know its exact meaning, you may still respond '1' (REAL). 
  
  But if you are not sure if it is an existing word, you should respond '0' (FAKE).
  
  Let's do a practice round...", (press the spacebar to continue),5ef7bc9de683904f56114114,Spanish,13 or older,"no, only English or Spanish",yes,2025-08-12_14h50.17.488,empathy_intonation_perc,2024.2.4,MacIntel,60.24096386,5ef7bc9de683904f56114114,687ed1b7e638a4cbf2f02089,689b8cab27912031a1e0f0fc,,,,,,,,,,,,,,,,,,,,,,,,,,,,,,,,,,,,,,,,,,,,,,,,,,,482.0816,490.3293,0,2,2,2,1,,,,,,,,,,,,,,,,,,,,,,,,,,,,,,,,,,,,,,,,,,,,,,,,,
,,,,,,,,,5ef7bc9de683904f56114114,Spanish,13 or older,"no, only English or Spanish",yes,2025-08-12_14h50.17.488,empathy_intonation_perc,2024.2.4,MacIntel,60.24096386,5ef7bc9de683904f56114114,687ed1b7e638a4cbf2f02089,689b8cab27912031a1e0f0fc,,,,,,,,,,,,,,0,,,,,,,,,,,,,,,,,,,,,,,,,,,,,,,,,,,,,,,,,,,,490.3359,494.7785,1,0,3.9108,,494.779,495.7797,0,0,0,0,1,0,depiste,REAL,FAKE,,,,,,,,,,,,,,,,,,,,,,,,,,,,,,,,
,,,,,,,,,5ef7bc9de683904f56114114,Spanish,13 or older,"no, only English or Spanish",yes,2025-08-12_14h50.17.488,empathy_intonation_perc,2024.2.4,MacIntel,60.24096386,5ef7bc9de683904f56114114,687ed1b7e638a4cbf2f02089,689b8cab27912031a1e0f0fc,,,,,,,,,,,,,,1,,,,,,,,,,,,,,,,,,,,,,,,,,,,,,,,,,,,,,,,,,,,495.7813,503.3959,1,1,7.0805,,503.3967,504.396,0,1,1,1,1,0,sí,REAL,FAKE,,,,,,,,,,,,,,,,,,,,,,,,,,,,,,,,
,,,,,,,,,5ef7bc9de683904f56114114,Spanish,13 or older,"no, only English or Spanish",yes,2025-08-12_14h50.17.488,empathy_intonation_perc,2024.2.4,MacIntel,60.24096386,5ef7bc9de683904f56114114,687ed1b7e638a4cbf2f02089,689b8cab27912031a1e0f0fc,,,,,,,,,,,,,,0,,,,,,,,,,,,,,,,,,,,,,,,,,,,,,,,,,,,,,,,,,,,504.3976,506.7792,1,0,1.8425,,506.7801,507.7789,0,2,2,2,1,0,coné,REAL,FAKE,,,,,,,,,,,,,,,,,,,,,,,,,,,,,,,,
,,,,,,,,,5ef7bc9de683904f56114114,Spanish,13 or older,"no, only English or Spanish",yes,2025-08-12_14h50.17.488,empathy_intonation_perc,2024.2.4,MacIntel,60.24096386,5ef7bc9de683904f56114114,687ed1b7e638a4cbf2f02089,689b8cab27912031a1e0f0fc,,,,,,,,,,,,,,0,,,,,,,,,,,,,,,,,,,,,,,,,,,,,,,,,,,,,,,,,,,,507.7794,511.9792,0,1,3.6612,,511.9801,512.9794,0,3,3,3,1,0,calpar,REAL,FAKE,,,,,,,,,,,,,,,,,,,,,,,,,,,,,,,,
,,,,,,,,,5ef7bc9de683904f56114114,Spanish,13 or older,"no, only English or Spanish",yes,2025-08-12_14h50.17.488,empathy_intonation_perc,2024.2.4,MacIntel,60.24096386,5ef7bc9de683904f56114114,687ed1b7e638a4cbf2f02089,689b8cab27912031a1e0f0fc,,,,,,,,,,,,,,0,,,,,,,,,,,,,,,,,,,,,,,,,,,,,,,,,,,,,,,,,,,,512.9812,514.9292,0,1,1.4097,,514.9293,515.9294,0,4,4,4,1,0,joten,REAL,FAKE,,,,,,,,,,,,,,,,,,,,,,,,,,,,,,,,
,,,,,,,,,5ef7bc9de683904f56114114,Spanish,13 or older,"no, only English or Spanish",yes,2025-08-12_14h50.17.488,empathy_intonation_perc,2024.2.4,MacIntel,60.24096386,5ef7bc9de683904f56114114,687ed1b7e638a4cbf2f02089,689b8cab27912031a1e0f0fc,,,,,,,,,,,,,,1,,,,,,,,,,,,,,,,,,,,,,,,,,,,,,,,,,,,,,,,,,,,515.9309,518.1125,0,0,1.6417,,518.1134,519.1116,0,5,5,5,1,0,sacapuntas,REAL,FAKE,,,,,,,,,,,,,,,,,,,,,,,,,,,,,,,,
,,,,,,,,,5ef7bc9de683904f56114114,Spanish,13 or older,"no, only English or Spanish",yes,2025-08-12_14h50.17.488,empathy_intonation_perc,2024.2.4,MacIntel,60.24096386,5ef7bc9de683904f56114114,687ed1b7e638a4cbf2f02089,689b8cab27912031a1e0f0fc,,,,,,,,,,,,,,0,,,,,,,,,,,,,,,,,,,,,,,,,,,,,,,,,,,,,,,,,,,,519.1133,520.6461,0,1,0.9992,,520.6469,521.6461,0,6,6,6,1,0,priba,REAL,FAKE,,,,,,,,,,,,,,,,,,,,,,,,,,,,,,,,
,,,,,,,,,5ef7bc9de683904f56114114,Spanish,13 or older,"no, only English or Spanish",yes,2025-08-12_14h50.17.488,empathy_intonation_perc,2024.2.4,MacIntel,60.24096386,5ef7bc9de683904f56114114,687ed1b7e638a4cbf2f02089,689b8cab27912031a1e0f0fc,,,,,,,,,,,,,,0,,,,,,,,,,,,,,,,,,,,,,,,,,,,,,,,,,,,,,,,,,,,521.6472,524.3959,1,0,2.213,,524.3969,525.396,0,7,7,7,1,0,pelasula,REAL,FAKE,,,,,,,,,,,,,,,,,,,,,,,,,,,,,,,,
,,,,,,,,,5ef7bc9de683904f56114114,Spanish,13 or older,"no, only English or Spanish",yes,2025-08-12_14h50.17.488,empathy_intonation_perc,2024.2.4,MacIntel,60.24096386,5ef7bc9de683904f56114114,687ed1b7e638a4cbf2f02089,689b8cab27912031a1e0f0fc,,,,,,,,,,,,,,1,,,,,,,,,,,,,,,,,,,,,,,,,,,,,,,,,,,,,,,,,,,,525.3973,527.3793,1,1,1.4497,,527.3801,528.3794,0,8,8,8,1,0,bien,REAL,FAKE,,,,,,,,,,,,,,,,,,,,,,,,,,,,,,,,
,,,,,,,,,5ef7bc9de683904f56114114,Spanish,13 or older,"no, only English or Spanish",yes,2025-08-12_14h50.17.488,empathy_intonation_perc,2024.2.4,MacIntel,60.24096386,5ef7bc9de683904f56114114,687ed1b7e638a4cbf2f02089,689b8cab27912031a1e0f0fc,,,,,,,,,,,,,,1,,,,,,,,,,,,,,,,,,,,,,,,,,,,,,,,,,,,,,,,,,,,528.3807,529.8626,1,1,0.9485,,529.8627,530.8628,0,9,9,9,1,0,casa,REAL,FAKE,,,,,,,,,,,,,,,,,,,,,,,,,,,,,,,,
,,,,,,,,,5ef7bc9de683904f56114114,Spanish,13 or older,"no, only English or Spanish",yes,2025-08-12_14h50.17.488,empathy_intonation_perc,2024.2.4,MacIntel,60.24096386,5ef7bc9de683904f56114114,687ed1b7e638a4cbf2f02089,689b8cab27912031a1e0f0fc,,,,,,,,,,,,,,0,,,,,,,,,,,,,,,,,,,,,,,,,,,,,,,,,,,,,,,,,,,,530.8642,532.8794,1,0,1.4772,,532.8803,533.8794,0,10,10,10,1,0,lejo,REAL,FAKE,,,,,,,,,,,,,,,,,,,,,,,,,,,,,,,,
,,,,,,,,,5ef7bc9de683904f56114114,Spanish,13 or older,"no, only English or Spanish",yes,2025-08-12_14h50.17.488,empathy_intonation_perc,2024.2.4,MacIntel,60.24096386,5ef7bc9de683904f56114114,687ed1b7e638a4cbf2f02089,689b8cab27912031a1e0f0fc,,,,,,,,,,,,,,0,,,,,,,,,,,,,,,,,,,,,,,,,,,,,,,,,,,,,,,,,,,,533.8809,536.7961,0,1,2.3787,,536.7969,537.7952,0,11,11,11,1,0,pretantas,REAL,FAKE,,,,,,,,,,,,,,,,,,,,,,,,,,,,,,,,
,,,,,,,,,5ef7bc9de683904f56114114,Spanish,13 or older,"no, only English or Spanish",yes,2025-08-12_14h50.17.488,empathy_intonation_perc,2024.2.4,MacIntel,60.24096386,5ef7bc9de683904f56114114,687ed1b7e638a4cbf2f02089,689b8cab27912031a1e0f0fc,,,,,,,,,,,,,,,,,,,,,,,,,,,,,,,,,,,,,,,,,,,,,,,,,,,,,,,,,,,,,,,,,,,,,,,,,,,537.7957,539.6795,,,,,,,,,,,,,,,,,,,,,,,,,,,,,,
,,,,,,,,,5ef7bc9de683904f56114114,Spanish,13 or older,"no, only English or Spanish",yes,2025-08-12_14h50.17.488,empathy_intonation_perc,2024.2.4,MacIntel,60.24096386,5ef7bc9de683904f56114114,687ed1b7e638a4cbf2f02089,689b8cab27912031a1e0f0fc,,,,,,,,,,,,,,0,,,,,,,,,,,,,,,,,,,,,,,,,,,,,,,,,,,,,,,,,,,,,,,,,,,,,,,,,27,acutación,,,,,539.6898,543.5462,1,0,3.3334,,0,0,0,26,1,REAL,FAKE,,,,,,,,,,,,,,,,,
,,,,,,,,,5ef7bc9de683904f56114114,Spanish,13 or older,"no, only English or Spanish",yes,2025-08-12_14h50.17.488,empathy_intonation_perc,2024.2.4,MacIntel,60.24096386,5ef7bc9de683904f56114114,687ed1b7e638a4cbf2f02089,689b8cab27912031a1e0f0fc,,,,,,,,,,,,,,1,,,,,,,,,,,,,,,,,,,,,,,,,,,,,,,,,,,,,,,,,,,,,,,,,,,,,,,,,52,camisa,,,,,543.5474,546.046,1,1,1.9559,,0,1,1,51,1,REAL,FAKE,,,,,,,,,,,,,,,,,
,,,,,,,,,5ef7bc9de683904f56114114,Spanish,13 or older,"no, only English or Spanish",yes,2025-08-12_14h50.17.488,empathy_intonation_perc,2024.2.4,MacIntel,60.24096386,5ef7bc9de683904f56114114,687ed1b7e638a4cbf2f02089,689b8cab27912031a1e0f0fc,,,,,,,,,,,,,,1,,,,,,,,,,,,,,,,,,,,,,,,,,,,,,,,,,,,,,,,,,,,,,,,,,,,,,,,,9,hacha,,,,,546.0472,547.9459,1,1,1.3607,,0,2,2,8,1,REAL,FAKE,,,,,,,,,,,,,,,,,
,,,,,,,,,5ef7bc9de683904f56114114,Spanish,13 or older,"no, only English or Spanish",yes,2025-08-12_14h50.17.488,empathy_intonation_perc,2024.2.4,MacIntel,60.24096386,5ef7bc9de683904f56114114,687ed1b7e638a4cbf2f02089,689b8cab27912031a1e0f0fc,,,,,,,,,,,,,,1,,,,,,,,,,,,,,,,,,,,,,,,,,,,,,,,,,,,,,,,,,,,,,,,,,,,,,,,,24,látigo,,,,,547.9472,549.7293,1,1,1.2377,,0,3,3,23,1,REAL,FAKE,,,,,,,,,,,,,,,,,
,,,,,,,,,5ef7bc9de683904f56114114,Spanish,13 or older,"no, only English or Spanish",yes,2025-08-12_14h50.17.488,empathy_intonation_perc,2024.2.4,MacIntel,60.24096386,5ef7bc9de683904f56114114,687ed1b7e638a4cbf2f02089,689b8cab27912031a1e0f0fc,,,,,,,,,,,,,,1,,,,,,,,,,,,,,,,,,,,,,,,,,,,,,,,,,,,,,,,,,,,,,,,,,,,,,,,,68,alegre,,,,,549.7304,551.2626,1,1,1.0055,,0,4,4,67,1,REAL,FAKE,,,,,,,,,,,,,,,,,
,,,,,,,,,5ef7bc9de683904f56114114,Spanish,13 or older,"no, only English or Spanish",yes,2025-08-12_14h50.17.488,empathy_intonation_perc,2024.2.4,MacIntel,60.24096386,5ef7bc9de683904f56114114,687ed1b7e638a4cbf2f02089,689b8cab27912031a1e0f0fc,,,,,,,,,,,,,,1,,,,,,,,,,,,,,,,,,,,,,,,,,,,,,,,,,,,,,,,,,,,,,,,,,,,,,,,,28,merodear,,,,,551.2636,552.8294,0,0,1.0285,,0,5,5,27,1,REAL,FAKE,,,,,,,,,,,,,,,,,
,,,,,,,,,5ef7bc9de683904f56114114,Spanish,13 or older,"no, only English or Spanish",yes,2025-08-12_14h50.17.488,empathy_intonation_perc,2024.2.4,MacIntel,60.24096386,5ef7bc9de683904f56114114,687ed1b7e638a4cbf2f02089,689b8cab27912031a1e0f0fc,,,,,,,,,,,,,,0,,,,,,,,,,,,,,,,,,,,,,,,,,,,,,,,,,,,,,,,,,,,,,,,,,,,,,,,,87,grodo,,,,,552.8308,554.245,0,1,0.8794,,0,6,6,86,1,REAL,FAKE,,,,,,,,,,,,,,,,,
,,,,,,,,,5ef7bc9de683904f56114114,Spanish,13 or older,"no, only English or Spanish",yes,2025-08-12_14h50.17.488,empathy_intonation_perc,2024.2.4,MacIntel,60.24096386,5ef7bc9de683904f56114114,687ed1b7e638a4cbf2f02089,689b8cab27912031a1e0f0fc,,,,,,,,,,,,,,0,,,,,,,,,,,,,,,,,,,,,,,,,,,,,,,,,,,,,,,,,,,,,,,,,,,,,,,,,84,escuto,,,,,554.2461,557.6455,1,0,2.8624,,0,7,7,83,1,REAL,FAKE,,,,,,,,,,,,,,,,,
,,,,,,,,,5ef7bc9de683904f56114114,Spanish,13 or older,"no, only English or Spanish",yes,2025-08-12_14h50.17.488,empathy_intonation_perc,2024.2.4,MacIntel,60.24096386,5ef7bc9de683904f56114114,687ed1b7e638a4cbf2f02089,689b8cab27912031a1e0f0fc,,,,,,,,,,,,,,1,,,,,,,,,,,,,,,,,,,,,,,,,,,,,,,,,,,,,,,,,,,,,,,,,,,,,,,,,85,laúd,,,,,557.647,559.6959,0,0,1.5064,,0,8,8,84,1,REAL,FAKE,,,,,,,,,,,,,,,,,
,,,,,,,,,5ef7bc9de683904f56114114,Spanish,13 or older,"no, only English or Spanish",yes,2025-08-12_14h50.17.488,empathy_intonation_perc,2024.2.4,MacIntel,60.24096386,5ef7bc9de683904f56114114,687ed1b7e638a4cbf2f02089,689b8cab27912031a1e0f0fc,,,,,,,,,,,,,,1,,,,,,,,,,,,,,,,,,,,,,,,,,,,,,,,,,,,,,,,,,,,,,,,,,,,,,,,,14,yunque,,,,,559.6971,561.2127,0,0,0.9714,,0,9,9,13,1,REAL,FAKE,,,,,,,,,,,,,,,,,
,,,,,,,,,5ef7bc9de683904f56114114,Spanish,13 or older,"no, only English or Spanish",yes,2025-08-12_14h50.17.488,empathy_intonation_perc,2024.2.4,MacIntel,60.24096386,5ef7bc9de683904f56114114,687ed1b7e638a4cbf2f02089,689b8cab27912031a1e0f0fc,,,,,,,,,,,,,,1,,,,,,,,,,,,,,,,,,,,,,,,,,,,,,,,,,,,,,,,,,,,,,,,,,,,,,,,,39,torpe,,,,,561.2137,562.745,1,1,0.9964,,0,10,10,38,1,REAL,FAKE,,,,,,,,,,,,,,,,,
,,,,,,,,,5ef7bc9de683904f56114114,Spanish,13 or older,"no, only English or Spanish",yes,2025-08-12_14h50.17.488,empathy_intonation_perc,2024.2.4,MacIntel,60.24096386,5ef7bc9de683904f56114114,687ed1b7e638a4cbf2f02089,689b8cab27912031a1e0f0fc,,,,,,,,,,,,,,0,,,,,,,,,,,,,,,,,,,,,,,,,,,,,,,,,,,,,,,,,,,,,,,,,,,,,,,,,23,lampera,,,,,562.7463,564.7951,1,0,1.5328,,0,11,11,22,1,REAL,FAKE,,,,,,,,,,,,,,,,,
,,,,,,,,,5ef7bc9de683904f56114114,Spanish,13 or older,"no, only English or Spanish",yes,2025-08-12_14h50.17.488,empathy_intonation_perc,2024.2.4,MacIntel,60.24096386,5ef7bc9de683904f56114114,687ed1b7e638a4cbf2f02089,689b8cab27912031a1e0f0fc,,,,,,,,,,,,,,1,,,,,,,,,,,,,,,,,,,,,,,,,,,,,,,,,,,,,,,,,,,,,,,,,,,,,,,,,60,matar,,,,,564.7961,566.5128,0,0,1.1912,,0,12,12,59,1,REAL,FAKE,,,,,,,,,,,,,,,,,
,,,,,,,,,5ef7bc9de683904f56114114,Spanish,13 or older,"no, only English or Spanish",yes,2025-08-12_14h50.17.488,empathy_intonation_perc,2024.2.4,MacIntel,60.24096386,5ef7bc9de683904f56114114,687ed1b7e638a4cbf2f02089,689b8cab27912031a1e0f0fc,,,,,,,,,,,,,,1,,,,,,,,,,,,,,,,,,,,,,,,,,,,,,,,,,,,,,,,,,,,,,,,,,,,,,,,,48,ladrón,,,,,566.514,568.5459,1,1,1.508,,0,13,13,47,1,REAL,FAKE,,,,,,,,,,,,,,,,,
,,,,,,,,,5ef7bc9de683904f56114114,Spanish,13 or older,"no, only English or Spanish",yes,2025-08-12_14h50.17.488,empathy_intonation_perc,2024.2.4,MacIntel,60.24096386,5ef7bc9de683904f56114114,687ed1b7e638a4cbf2f02089,689b8cab27912031a1e0f0fc,,,,,,,,,,,,,,0,,,,,,,,,,,,,,,,,,,,,,,,,,,,,,,,,,,,,,,,,,,,,,,,,,,,,,,,,70,temblo,,,,,568.547,570.096,0,1,1.0114,,0,14,14,69,1,REAL,FAKE,,,,,,,,,,,,,,,,,
,,,,,,,,,5ef7bc9de683904f56114114,Spanish,13 or older,"no, only English or Spanish",yes,2025-08-12_14h50.17.488,empathy_intonation_perc,2024.2.4,MacIntel,60.24096386,5ef7bc9de683904f56114114,687ed1b7e638a4cbf2f02089,689b8cab27912031a1e0f0fc,,,,,,,,,,,,,,0,,,,,,,,,,,,,,,,,,,,,,,,,,,,,,,,,,,,,,,,,,,,,,,,,,,,,,,,,35,rompido,,,,,570.0978,572.9626,1,0,2.3328,,0,15,15,34,1,REAL,FAKE,,,,,,,,,,,,,,,,,
,,,,,,,,,5ef7bc9de683904f56114114,Spanish,13 or older,"no, only English or Spanish",yes,2025-08-12_14h50.17.488,empathy_intonation_perc,2024.2.4,MacIntel,60.24096386,5ef7bc9de683904f56114114,687ed1b7e638a4cbf2f02089,689b8cab27912031a1e0f0fc,,,,,,,,,,,,,,0,,,,,,,,,,,,,,,,,,,,,,,,,,,,,,,,,,,,,,,,,,,,,,,,,,,,,,,,,17,floroso,,,,,572.9639,574.5959,0,1,1.0996,,0,16,16,16,1,REAL,FAKE,,,,,,,,,,,,,,,,,
,,,,,,,,,5ef7bc9de683904f56114114,Spanish,13 or older,"no, only English or Spanish",yes,2025-08-12_14h50.17.488,empathy_intonation_perc,2024.2.4,MacIntel,60.24096386,5ef7bc9de683904f56114114,687ed1b7e638a4cbf2f02089,689b8cab27912031a1e0f0fc,,,,,,,,,,,,,,1,,,,,,,,,,,,,,,,,,,,,,,,,,,,,,,,,,,,,,,,,,,,,,,,,,,,,,,,,65,bizcocho,,,,,574.5973,576.7294,0,0,1.5939,,0,17,17,64,1,REAL,FAKE,,,,,,,,,,,,,,,,,
,,,,,,,,,5ef7bc9de683904f56114114,Spanish,13 or older,"no, only English or Spanish",yes,2025-08-12_14h50.17.488,empathy_intonation_perc,2024.2.4,MacIntel,60.24096386,5ef7bc9de683904f56114114,687ed1b7e638a4cbf2f02089,689b8cab27912031a1e0f0fc,,,,,,,,,,,,,,1,,,,,,,,,,,,,,,,,,,,,,,,,,,,,,,,,,,,,,,,,,,,,,,,,,,,,,,,,15,regar,,,,,576.7307,578.296,0,0,1.0268,,0,18,18,14,1,REAL,FAKE,,,,,,,,,,,,,,,,,
,,,,,,,,,5ef7bc9de683904f56114114,Spanish,13 or older,"no, only English or Spanish",yes,2025-08-12_14h50.17.488,empathy_intonation_perc,2024.2.4,MacIntel,60.24096386,5ef7bc9de683904f56114114,687ed1b7e638a4cbf2f02089,689b8cab27912031a1e0f0fc,,,,,,,,,,,,,,1,,,,,,,,,,,,,,,,,,,,,,,,,,,,,,,,,,,,,,,,,,,,,,,,,,,,,,,,,51,candado,,,,,578.2973,581.6296,1,1,2.8088,,0,19,19,50,1,REAL,FAKE,,,,,,,,,,,,,,,,,
,,,,,,,,,5ef7bc9de683904f56114114,Spanish,13 or older,"no, only English or Spanish",yes,2025-08-12_14h50.17.488,empathy_intonation_perc,2024.2.4,MacIntel,60.24096386,5ef7bc9de683904f56114114,687ed1b7e638a4cbf2f02089,689b8cab27912031a1e0f0fc,,,,,,,,,,,,,,0,,,,,,,,,,,,,,,,,,,,,,,,,,,,,,,,,,,,,,,,,,,,,,,,,,,,,,,,,1,terzo,,,,,581.6309,583.1127,0,1,0.9487,,0,20,20,0,1,REAL,FAKE,,,,,,,,,,,,,,,,,
,,,,,,,,,5ef7bc9de683904f56114114,Spanish,13 or older,"no, only English or Spanish",yes,2025-08-12_14h50.17.488,empathy_intonation_perc,2024.2.4,MacIntel,60.24096386,5ef7bc9de683904f56114114,687ed1b7e638a4cbf2f02089,689b8cab27912031a1e0f0fc,,,,,,,,,,,,,,1,,,,,,,,,,,,,,,,,,,,,,,,,,,,,,,,,,,,,,,,,,,,,,,,,,,,,,,,,31,pandilla,,,,,583.1138,585.0293,1,1,1.3922,,0,21,21,30,1,REAL,FAKE,,,,,,,,,,,,,,,,,
,,,,,,,,,5ef7bc9de683904f56114114,Spanish,13 or older,"no, only English or Spanish",yes,2025-08-12_14h50.17.488,empathy_intonation_perc,2024.2.4,MacIntel,60.24096386,5ef7bc9de683904f56114114,687ed1b7e638a4cbf2f02089,689b8cab27912031a1e0f0fc,,,,,,,,,,,,,,0,,,,,,,,,,,,,,,,,,,,,,,,,,,,,,,,,,,,,,,,,,,,,,,,,,,,,,,,,58,plaudir,,,,,585.0305,586.596,0,1,1.039,,0,22,22,57,1,REAL,FAKE,,,,,,,,,,,,,,,,,
,,,,,,,,,5ef7bc9de683904f56114114,Spanish,13 or older,"no, only English or Spanish",yes,2025-08-12_14h50.17.488,empathy_intonation_perc,2024.2.4,MacIntel,60.24096386,5ef7bc9de683904f56114114,687ed1b7e638a4cbf2f02089,689b8cab27912031a1e0f0fc,,,,,,,,,,,,,,1,,,,,,,,,,,,,,,,,,,,,,,,,,,,,,,,,,,,,,,,,,,,,,,,,,,,,,,,,59,besar,,,,,586.5971,588.296,0,0,1.1622,,0,23,23,58,1,REAL,FAKE,,,,,,,,,,,,,,,,,
,,,,,,,,,5ef7bc9de683904f56114114,Spanish,13 or older,"no, only English or Spanish",yes,2025-08-12_14h50.17.488,empathy_intonation_perc,2024.2.4,MacIntel,60.24096386,5ef7bc9de683904f56114114,687ed1b7e638a4cbf2f02089,689b8cab27912031a1e0f0fc,,,,,,,,,,,,,,1,,,,,,,,,,,,,,,,,,,,,,,,,,,,,,,,,,,,,,,,,,,,,,,,,,,,,,,,,81,pozo,,,,,588.297,589.6952,1,1,0.8606,,0,24,24,80,1,REAL,FAKE,,,,,,,,,,,,,,,,,
,,,,,,,,,5ef7bc9de683904f56114114,Spanish,13 or older,"no, only English or Spanish",yes,2025-08-12_14h50.17.488,empathy_intonation_perc,2024.2.4,MacIntel,60.24096386,5ef7bc9de683904f56114114,687ed1b7e638a4cbf2f02089,689b8cab27912031a1e0f0fc,,,,,,,,,,,,,,0,,,,,,,,,,,,,,,,,,,,,,,,,,,,,,,,,,,,,,,,,,,,,,,,,,,,,,,,,29,decar,,,,,589.6962,591.2628,0,1,1.0456,,0,25,25,28,1,REAL,FAKE,,,,,,,,,,,,,,,,,
,,,,,,,,,5ef7bc9de683904f56114114,Spanish,13 or older,"no, only English or Spanish",yes,2025-08-12_14h50.17.488,empathy_intonation_perc,2024.2.4,MacIntel,60.24096386,5ef7bc9de683904f56114114,687ed1b7e638a4cbf2f02089,689b8cab27912031a1e0f0fc,,,,,,,,,,,,,,1,,,,,,,,,,,,,,,,,,,,,,,,,,,,,,,,,,,,,,,,,,,,,,,,,,,,,,,,,57,tacaño,,,,,591.2644,593.4129,1,1,1.6231,,0,26,26,56,1,REAL,FAKE,,,,,,,,,,,,,,,,,
,,,,,,,,,5ef7bc9de683904f56114114,Spanish,13 or older,"no, only English or Spanish",yes,2025-08-12_14h50.17.488,empathy_intonation_perc,2024.2.4,MacIntel,60.24096386,5ef7bc9de683904f56114114,687ed1b7e638a4cbf2f02089,689b8cab27912031a1e0f0fc,,,,,,,,,,,,,,1,,,,,,,,,,,,,,,,,,,,,,,,,,,,,,,,,,,,,,,,,,,,,,,,,,,,,,,,,71,polvoriento,,,,,593.4141,595.4793,0,0,1.5299,,0,27,27,70,1,REAL,FAKE,,,,,,,,,,,,,,,,,
,,,,,,,,,5ef7bc9de683904f56114114,Spanish,13 or older,"no, only English or Spanish",yes,2025-08-12_14h50.17.488,empathy_intonation_perc,2024.2.4,MacIntel,60.24096386,5ef7bc9de683904f56114114,687ed1b7e638a4cbf2f02089,689b8cab27912031a1e0f0fc,,,,,,,,,,,,,,1,,,,,,,,,,,,,,,,,,,,,,,,,,,,,,,,,,,,,,,,,,,,,,,,,,,,,,,,,56,musgo,,,,,595.4805,597.113,0,0,1.1084,,0,28,28,55,1,REAL,FAKE,,,,,,,,,,,,,,,,,
,,,,,,,,,5ef7bc9de683904f56114114,Spanish,13 or older,"no, only English or Spanish",yes,2025-08-12_14h50.17.488,empathy_intonation_perc,2024.2.4,MacIntel,60.24096386,5ef7bc9de683904f56114114,687ed1b7e638a4cbf2f02089,689b8cab27912031a1e0f0fc,,,,,,,,,,,,,,1,,,,,,,,,,,,,,,,,,,,,,,,,,,,,,,,,,,,,,,,,,,,,,,,,,,,,,,,,75,yacer,,,,,597.1143,599.2127,1,1,1.5621,,0,29,29,74,1,REAL,FAKE,,,,,,,,,,,,,,,,,
,,,,,,,,,5ef7bc9de683904f56114114,Spanish,13 or older,"no, only English or Spanish",yes,2025-08-12_14h50.17.488,empathy_intonation_perc,2024.2.4,MacIntel,60.24096386,5ef7bc9de683904f56114114,687ed1b7e638a4cbf2f02089,689b8cab27912031a1e0f0fc,,,,,,,,,,,,,,1,,,,,,,,,,,,,,,,,,,,,,,,,,,,,,,,,,,,,,,,,,,,,,,,,,,,,,,,,3,pulmones,,,,,599.2138,602.6128,1,1,2.8597,,0,30,30,2,1,REAL,FAKE,,,,,,,,,,,,,,,,,
,,,,,,,,,5ef7bc9de683904f56114114,Spanish,13 or older,"no, only English or Spanish",yes,2025-08-12_14h50.17.488,empathy_intonation_perc,2024.2.4,MacIntel,60.24096386,5ef7bc9de683904f56114114,687ed1b7e638a4cbf2f02089,689b8cab27912031a1e0f0fc,,,,,,,,,,,,,,1,,,,,,,,,,,,,,,,,,,,,,,,,,,,,,,,,,,,,,,,,,,,,,,,,,,,,,,,,25,bisagra,,,,,602.6139,604.146,0,0,0.9947,,0,31,31,24,1,REAL,FAKE,,,,,,,,,,,,,,,,,
,,,,,,,,,5ef7bc9de683904f56114114,Spanish,13 or older,"no, only English or Spanish",yes,2025-08-12_14h50.17.488,empathy_intonation_perc,2024.2.4,MacIntel,60.24096386,5ef7bc9de683904f56114114,687ed1b7e638a4cbf2f02089,689b8cab27912031a1e0f0fc,,,,,,,,,,,,,,0,,,,,,,,,,,,,,,,,,,,,,,,,,,,,,,,,,,,,,,,,,,,,,,,,,,,,,,,,47,cartinar,,,,,604.147,606.3127,0,1,1.6323,,0,32,32,46,1,REAL,FAKE,,,,,,,,,,,,,,,,,
,,,,,,,,,5ef7bc9de683904f56114114,Spanish,13 or older,"no, only English or Spanish",yes,2025-08-12_14h50.17.488,empathy_intonation_perc,2024.2.4,MacIntel,60.24096386,5ef7bc9de683904f56114114,687ed1b7e638a4cbf2f02089,689b8cab27912031a1e0f0fc,,,,,,,,,,,,,,0,,,,,,,,,,,,,,,,,,,,,,,,,,,,,,,,,,,,,,,,,,,,,,,,,,,,,,,,,50,flamida,,,,,606.3141,608.0961,0,1,1.245,,0,33,33,49,1,REAL,FAKE,,,,,,,,,,,,,,,,,
,,,,,,,,,5ef7bc9de683904f56114114,Spanish,13 or older,"no, only English or Spanish",yes,2025-08-12_14h50.17.488,empathy_intonation_perc,2024.2.4,MacIntel,60.24096386,5ef7bc9de683904f56114114,687ed1b7e638a4cbf2f02089,689b8cab27912031a1e0f0fc,,,,,,,,,,,,,,1,,,,,,,,,,,,,,,,,,,,,,,,,,,,,,,,,,,,,,,,,,,,,,,,,,,,,,,,,2,pellizcar,,,,,608.0971,610.2628,0,0,1.6301,,0,34,34,1,1,REAL,FAKE,,,,,,,,,,,,,,,,,
,,,,,,,,,5ef7bc9de683904f56114114,Spanish,13 or older,"no, only English or Spanish",yes,2025-08-12_14h50.17.488,empathy_intonation_perc,2024.2.4,MacIntel,60.24096386,5ef7bc9de683904f56114114,687ed1b7e638a4cbf2f02089,689b8cab27912031a1e0f0fc,,,,,,,,,,,,,,0,,,,,,,,,,,,,,,,,,,,,,,,,,,,,,,,,,,,,,,,,,,,,,,,,,,,,,,,,10,antar,,,,,610.2639,612.2787,0,1,1.479,,0,35,35,9,1,REAL,FAKE,,,,,,,,,,,,,,,,,
,,,,,,,,,5ef7bc9de683904f56114114,Spanish,13 or older,"no, only English or Spanish",yes,2025-08-12_14h50.17.488,empathy_intonation_perc,2024.2.4,MacIntel,60.24096386,5ef7bc9de683904f56114114,687ed1b7e638a4cbf2f02089,689b8cab27912031a1e0f0fc,,,,,,,,,,,,,,0,,,,,,,,,,,,,,,,,,,,,,,,,,,,,,,,,,,,,,,,,,,,,,,,,,,,,,,,,42,cadallo,,,,,612.2799,614.2961,0,1,1.4961,,0,36,36,41,1,REAL,FAKE,,,,,,,,,,,,,,,,,
,,,,,,,,,5ef7bc9de683904f56114114,Spanish,13 or older,"no, only English or Spanish",yes,2025-08-12_14h50.17.488,empathy_intonation_perc,2024.2.4,MacIntel,60.24096386,5ef7bc9de683904f56114114,687ed1b7e638a4cbf2f02089,689b8cab27912031a1e0f0fc,,,,,,,,,,,,,,1,,,,,,,,,,,,,,,,,,,,,,,,,,,,,,,,,,,,,,,,,,,,,,,,,,,,,,,,,44,cuchara,,,,,614.2973,615.7295,1,1,0.8939,,0,37,37,43,1,REAL,FAKE,,,,,,,,,,,,,,,,,
,,,,,,,,,5ef7bc9de683904f56114114,Spanish,13 or older,"no, only English or Spanish",yes,2025-08-12_14h50.17.488,empathy_intonation_perc,2024.2.4,MacIntel,60.24096386,5ef7bc9de683904f56114114,687ed1b7e638a4cbf2f02089,689b8cab27912031a1e0f0fc,,,,,,,,,,,,,,1,,,,,,,,,,,,,,,,,,,,,,,,,,,,,,,,,,,,,,,,,,,,,,,,,,,,,,,,,37,granuja,,,,,615.7307,617.3796,1,1,1.1122,,0,38,38,36,1,REAL,FAKE,,,,,,,,,,,,,,,,,
,,,,,,,,,5ef7bc9de683904f56114114,Spanish,13 or older,"no, only English or Spanish",yes,2025-08-12_14h50.17.488,empathy_intonation_perc,2024.2.4,MacIntel,60.24096386,5ef7bc9de683904f56114114,687ed1b7e638a4cbf2f02089,689b8cab27912031a1e0f0fc,,,,,,,,,,,,,,1,,,,,,,,,,,,,,,,,,,,,,,,,,,,,,,,,,,,,,,,,,,,,,,,,,,,,,,,,7,pésimo,,,,,617.3809,618.796,1,1,0.8884,,0,39,39,6,1,REAL,FAKE,,,,,,,,,,,,,,,,,
,,,,,,,,,5ef7bc9de683904f56114114,Spanish,13 or older,"no, only English or Spanish",yes,2025-08-12_14h50.17.488,empathy_intonation_perc,2024.2.4,MacIntel,60.24096386,5ef7bc9de683904f56114114,687ed1b7e638a4cbf2f02089,689b8cab27912031a1e0f0fc,,,,,,,,,,,,,,1,,,,,,,,,,,,,,,,,,,,,,,,,,,,,,,,,,,,,,,,,,,,,,,,,,,,,,,,,78,frondoso,,,,,618.7969,620.612,0,0,1.2777,,0,40,40,77,1,REAL,FAKE,,,,,,,,,,,,,,,,,
,,,,,,,,,5ef7bc9de683904f56114114,Spanish,13 or older,"no, only English or Spanish",yes,2025-08-12_14h50.17.488,empathy_intonation_perc,2024.2.4,MacIntel,60.24096386,5ef7bc9de683904f56114114,687ed1b7e638a4cbf2f02089,689b8cab27912031a1e0f0fc,,,,,,,,,,,,,,0,,,,,,,,,,,,,,,,,,,,,,,,,,,,,,,,,,,,,,,,,,,,,,,,,,,,,,,,,30,alardio,,,,,620.6131,624.7462,0,1,3.6234,,0,41,41,29,1,REAL,FAKE,,,,,,,,,,,,,,,,,
,,,,,,,,,5ef7bc9de683904f56114114,Spanish,13 or older,"no, only English or Spanish",yes,2025-08-12_14h50.17.488,empathy_intonation_perc,2024.2.4,MacIntel,60.24096386,5ef7bc9de683904f56114114,687ed1b7e638a4cbf2f02089,689b8cab27912031a1e0f0fc,,,,,,,,,,,,,,1,,,,,,,,,,,,,,,,,,,,,,,,,,,,,,,,,,,,,,,,,,,,,,,,,,,,,,,,,64,orgulloso,,,,,624.7473,626.8961,0,0,1.613,,0,42,42,63,1,REAL,FAKE,,,,,,,,,,,,,,,,,
,,,,,,,,,5ef7bc9de683904f56114114,Spanish,13 or older,"no, only English or Spanish",yes,2025-08-12_14h50.17.488,empathy_intonation_perc,2024.2.4,MacIntel,60.24096386,5ef7bc9de683904f56114114,687ed1b7e638a4cbf2f02089,689b8cab27912031a1e0f0fc,,,,,,,,,,,,,,1,,,,,,,,,,,,,,,,,,,,,,,,,,,,,,,,,,,,,,,,,,,,,,,,,,,,,,,,,54,fomentar,,,,,626.8972,628.6127,1,1,1.1772,,0,43,43,53,1,REAL,FAKE,,,,,,,,,,,,,,,,,
,,,,,,,,,5ef7bc9de683904f56114114,Spanish,13 or older,"no, only English or Spanish",yes,2025-08-12_14h50.17.488,empathy_intonation_perc,2024.2.4,MacIntel,60.24096386,5ef7bc9de683904f56114114,687ed1b7e638a4cbf2f02089,689b8cab27912031a1e0f0fc,,,,,,,,,,,,,,1,,,,,,,,,,,,,,,,,,,,,,,,,,,,,,,,,,,,,,,,,,,,,,,,,,,,,,,,,26,secuestro,,,,,628.6137,630.4792,1,1,1.3345,,0,44,44,25,1,REAL,FAKE,,,,,,,,,,,,,,,,,
,,,,,,,,,5ef7bc9de683904f56114114,Spanish,13 or older,"no, only English or Spanish",yes,2025-08-12_14h50.17.488,empathy_intonation_perc,2024.2.4,MacIntel,60.24096386,5ef7bc9de683904f56114114,687ed1b7e638a4cbf2f02089,689b8cab27912031a1e0f0fc,,,,,,,,,,,,,,1,,,,,,,,,,,,,,,,,,,,,,,,,,,,,,,,,,,,,,,,,,,,,,,,,,,,,,,,,46,martillo,,,,,630.4806,632.4461,1,1,1.428,,0,45,45,45,1,REAL,FAKE,,,,,,,,,,,,,,,,,
,,,,,,,,,5ef7bc9de683904f56114114,Spanish,13 or older,"no, only English or Spanish",yes,2025-08-12_14h50.17.488,empathy_intonation_perc,2024.2.4,MacIntel,60.24096386,5ef7bc9de683904f56114114,687ed1b7e638a4cbf2f02089,689b8cab27912031a1e0f0fc,,,,,,,,,,,,,,0,,,,,,,,,,,,,,,,,,,,,,,,,,,,,,,,,,,,,,,,,,,,,,,,,,,,,,,,,53,vegada,,,,,632.4475,634.2294,0,1,1.2456,,0,46,46,52,1,REAL,FAKE,,,,,,,,,,,,,,,,,
,,,,,,,,,5ef7bc9de683904f56114114,Spanish,13 or older,"no, only English or Spanish",yes,2025-08-12_14h50.17.488,empathy_intonation_perc,2024.2.4,MacIntel,60.24096386,5ef7bc9de683904f56114114,687ed1b7e638a4cbf2f02089,689b8cab27912031a1e0f0fc,,,,,,,,,,,,,,0,,,,,,,,,,,,,,,,,,,,,,,,,,,,,,,,,,,,,,,,,,,,,,,,,,,,,,,,,79,tropaje,,,,,634.2306,636.1961,0,1,1.4292,,0,47,47,78,1,REAL,FAKE,,,,,,,,,,,,,,,,,
,,,,,,,,,5ef7bc9de683904f56114114,Spanish,13 or older,"no, only English or Spanish",yes,2025-08-12_14h50.17.488,empathy_intonation_perc,2024.2.4,MacIntel,60.24096386,5ef7bc9de683904f56114114,687ed1b7e638a4cbf2f02089,689b8cab27912031a1e0f0fc,,,,,,,,,,,,,,0,,,,,,,,,,,,,,,,,,,,,,,,,,,,,,,,,,,,,,,,,,,,,,,,,,,,,,,,,33,pauca,,,,,636.1975,637.6627,0,1,0.9292,,0,48,48,32,1,REAL,FAKE,,,,,,,,,,,,,,,,,
,,,,,,,,,5ef7bc9de683904f56114114,Spanish,13 or older,"no, only English or Spanish",yes,2025-08-12_14h50.17.488,empathy_intonation_perc,2024.2.4,MacIntel,60.24096386,5ef7bc9de683904f56114114,687ed1b7e638a4cbf2f02089,689b8cab27912031a1e0f0fc,,,,,,,,,,,,,,0,,,,,,,,,,,,,,,,,,,,,,,,,,,,,,,,,,,,,,,,,,,,,,,,,,,,,,,,,82,empirador,,,,,637.6641,639.8128,1,0,1.6105,,0,49,49,81,1,REAL,FAKE,,,,,,,,,,,,,,,,,
,,,,,,,,,5ef7bc9de683904f56114114,Spanish,13 or older,"no, only English or Spanish",yes,2025-08-12_14h50.17.488,empathy_intonation_perc,2024.2.4,MacIntel,60.24096386,5ef7bc9de683904f56114114,687ed1b7e638a4cbf2f02089,689b8cab27912031a1e0f0fc,,,,,,,,,,,,,,1,,,,,,,,,,,,,,,,,,,,,,,,,,,,,,,,,,,,,,,,,,,,,,,,,,,,,,,,,69,engatusar,,,,,639.8139,642.3629,1,1,2.0104,,0,50,50,68,1,REAL,FAKE,,,,,,,,,,,,,,,,,
,,,,,,,,,5ef7bc9de683904f56114114,Spanish,13 or older,"no, only English or Spanish",yes,2025-08-12_14h50.17.488,empathy_intonation_perc,2024.2.4,MacIntel,60.24096386,5ef7bc9de683904f56114114,687ed1b7e638a4cbf2f02089,689b8cab27912031a1e0f0fc,,,,,,,,,,,,,,0,,,,,,,,,,,,,,,,,,,,,,,,,,,,,,,,,,,,,,,,,,,,,,,,,,,,,,,,,19,brecedad,,,,,642.3642,644.1462,0,1,1.244,,0,51,51,18,1,REAL,FAKE,,,,,,,,,,,,,,,,,
,,,,,,,,,5ef7bc9de683904f56114114,Spanish,13 or older,"no, only English or Spanish",yes,2025-08-12_14h50.17.488,empathy_intonation_perc,2024.2.4,MacIntel,60.24096386,5ef7bc9de683904f56114114,687ed1b7e638a4cbf2f02089,689b8cab27912031a1e0f0fc,,,,,,,,,,,,,,0,,,,,,,,,,,,,,,,,,,,,,,,,,,,,,,,,,,,,,,,,,,,,,,,,,,,,,,,,66,hacido,,,,,644.1473,645.7295,1,0,1.0472,,0,52,52,65,1,REAL,FAKE,,,,,,,,,,,,,,,,,
,,,,,,,,,5ef7bc9de683904f56114114,Spanish,13 or older,"no, only English or Spanish",yes,2025-08-12_14h50.17.488,empathy_intonation_perc,2024.2.4,MacIntel,60.24096386,5ef7bc9de683904f56114114,687ed1b7e638a4cbf2f02089,689b8cab27912031a1e0f0fc,,,,,,,,,,,,,,0,,,,,,,,,,,,,,,,,,,,,,,,,,,,,,,,,,,,,,,,,,,,,,,,,,,,,,,,,72,pemición,,,,,645.731,647.7293,1,0,1.4723,,0,53,53,71,1,REAL,FAKE,,,,,,,,,,,,,,,,,
,,,,,,,,,5ef7bc9de683904f56114114,Spanish,13 or older,"no, only English or Spanish",yes,2025-08-12_14h50.17.488,empathy_intonation_perc,2024.2.4,MacIntel,60.24096386,5ef7bc9de683904f56114114,687ed1b7e638a4cbf2f02089,689b8cab27912031a1e0f0fc,,,,,,,,,,,,,,0,,,,,,,,,,,,,,,,,,,,,,,,,,,,,,,,,,,,,,,,,,,,,,,,,,,,,,,,,4,batillón,,,,,647.7304,649.0127,1,0,0.7462,,0,54,54,3,1,REAL,FAKE,,,,,,,,,,,,,,,,,
,,,,,,,,,5ef7bc9de683904f56114114,Spanish,13 or older,"no, only English or Spanish",yes,2025-08-12_14h50.17.488,empathy_intonation_perc,2024.2.4,MacIntel,60.24096386,5ef7bc9de683904f56114114,687ed1b7e638a4cbf2f02089,689b8cab27912031a1e0f0fc,,,,,,,,,,,,,,0,,,,,,,,,,,,,,,,,,,,,,,,,,,,,,,,,,,,,,,,,,,,,,,,,,,,,,,,,18,arsa,,,,,649.014,650.4462,0,1,0.8966,,0,55,55,17,1,REAL,FAKE,,,,,,,,,,,,,,,,,
,,,,,,,,,5ef7bc9de683904f56114114,Spanish,13 or older,"no, only English or Spanish",yes,2025-08-12_14h50.17.488,empathy_intonation_perc,2024.2.4,MacIntel,60.24096386,5ef7bc9de683904f56114114,687ed1b7e638a4cbf2f02089,689b8cab27912031a1e0f0fc,,,,,,,,,,,,,,1,,,,,,,,,,,,,,,,,,,,,,,,,,,,,,,,,,,,,,,,,,,,,,,,,,,,,,,,,80,hormiga,,,,,650.4474,652.2794,0,0,1.3006,,0,56,56,79,1,REAL,FAKE,,,,,,,,,,,,,,,,,
,,,,,,,,,5ef7bc9de683904f56114114,Spanish,13 or older,"no, only English or Spanish",yes,2025-08-12_14h50.17.488,empathy_intonation_perc,2024.2.4,MacIntel,60.24096386,5ef7bc9de683904f56114114,687ed1b7e638a4cbf2f02089,689b8cab27912031a1e0f0fc,,,,,,,,,,,,,,1,,,,,,,,,,,,,,,,,,,,,,,,,,,,,,,,,,,,,,,,,,,,,,,,,,,,,,,,,45,jilguero,,,,,652.2807,653.896,0,0,1.0819,,0,57,57,44,1,REAL,FAKE,,,,,,,,,,,,,,,,,
,,,,,,,,,5ef7bc9de683904f56114114,Spanish,13 or older,"no, only English or Spanish",yes,2025-08-12_14h50.17.488,empathy_intonation_perc,2024.2.4,MacIntel,60.24096386,5ef7bc9de683904f56114114,687ed1b7e638a4cbf2f02089,689b8cab27912031a1e0f0fc,,,,,,,,,,,,,,1,,,,,,,,,,,,,,,,,,,,,,,,,,,,,,,,,,,,,,,,,,,,,,,,,,,,,,,,,89,prisa,,,,,653.8973,655.3127,1,1,0.8781,,0,58,58,88,1,REAL,FAKE,,,,,,,,,,,,,,,,,
,,,,,,,,,5ef7bc9de683904f56114114,Spanish,13 or older,"no, only English or Spanish",yes,2025-08-12_14h50.17.488,empathy_intonation_perc,2024.2.4,MacIntel,60.24096386,5ef7bc9de683904f56114114,687ed1b7e638a4cbf2f02089,689b8cab27912031a1e0f0fc,,,,,,,,,,,,,,1,,,,,,,,,,,,,,,,,,,,,,,,,,,,,,,,,,,,,,,,,,,,,,,,,,,,,,,,,5,zapato,,,,,655.3139,656.9451,1,1,1.0944,,0,59,59,4,1,REAL,FAKE,,,,,,,,,,,,,,,,,
,,,,,,,,,5ef7bc9de683904f56114114,Spanish,13 or older,"no, only English or Spanish",yes,2025-08-12_14h50.17.488,empathy_intonation_perc,2024.2.4,MacIntel,60.24096386,5ef7bc9de683904f56114114,687ed1b7e638a4cbf2f02089,689b8cab27912031a1e0f0fc,,,,,,,,,,,,,,1,,,,,,,,,,,,,,,,,,,,,,,,,,,,,,,,,,,,,,,,,,,,,,,,,,,,,,,,,36,loro,,,,,656.9464,658.4456,0,0,0.9797,,0,60,60,35,1,REAL,FAKE,,,,,,,,,,,,,,,,,
,,,,,,,,,5ef7bc9de683904f56114114,Spanish,13 or older,"no, only English or Spanish",yes,2025-08-12_14h50.17.488,empathy_intonation_perc,2024.2.4,MacIntel,60.24096386,5ef7bc9de683904f56114114,687ed1b7e638a4cbf2f02089,689b8cab27912031a1e0f0fc,,,,,,,,,,,,,,1,,,,,,,,,,,,,,,,,,,,,,,,,,,,,,,,,,,,,,,,,,,,,,,,,,,,,,,,,77,tiburón,,,,,658.4469,659.963,0,0,1.0065,,0,61,61,76,1,REAL,FAKE,,,,,,,,,,,,,,,,,
,,,,,,,,,5ef7bc9de683904f56114114,Spanish,13 or older,"no, only English or Spanish",yes,2025-08-12_14h50.17.488,empathy_intonation_perc,2024.2.4,MacIntel,60.24096386,5ef7bc9de683904f56114114,687ed1b7e638a4cbf2f02089,689b8cab27912031a1e0f0fc,,,,,,,,,,,,,,0,,,,,,,,,,,,,,,,,,,,,,,,,,,,,,,,,,,,,,,,,,,,,,,,,,,,,,,,,63,esposante,,,,,659.9642,661.5794,1,0,1.0803,,0,62,62,62,1,REAL,FAKE,,,,,,,,,,,,,,,,,
,,,,,,,,,5ef7bc9de683904f56114114,Spanish,13 or older,"no, only English or Spanish",yes,2025-08-12_14h50.17.488,empathy_intonation_perc,2024.2.4,MacIntel,60.24096386,5ef7bc9de683904f56114114,687ed1b7e638a4cbf2f02089,689b8cab27912031a1e0f0fc,,,,,,,,,,,,,,1,,,,,,,,,,,,,,,,,,,,,,,,,,,,,,,,,,,,,,,,,,,,,,,,,,,,,,,,,11,cenefa,,,,,661.5807,663.7962,1,1,1.6775,,0,63,63,10,1,REAL,FAKE,,,,,,,,,,,,,,,,,
,,,,,,,,,5ef7bc9de683904f56114114,Spanish,13 or older,"no, only English or Spanish",yes,2025-08-12_14h50.17.488,empathy_intonation_perc,2024.2.4,MacIntel,60.24096386,5ef7bc9de683904f56114114,687ed1b7e638a4cbf2f02089,689b8cab27912031a1e0f0fc,,,,,,,,,,,,,,0,,,,,,,,,,,,,,,,,,,,,,,,,,,,,,,,,,,,,,,,,,,,,,,,,,,,,,,,,21,capillo,,,,,663.7973,665.2129,1,0,0.8896,,0,64,64,20,1,REAL,FAKE,,,,,,,,,,,,,,,,,
,,,,,,,,,5ef7bc9de683904f56114114,Spanish,13 or older,"no, only English or Spanish",yes,2025-08-12_14h50.17.488,empathy_intonation_perc,2024.2.4,MacIntel,60.24096386,5ef7bc9de683904f56114114,687ed1b7e638a4cbf2f02089,689b8cab27912031a1e0f0fc,,,,,,,,,,,,,,0,,,,,,,,,,,,,,,,,,,,,,,,,,,,,,,,,,,,,,,,,,,,,,,,,,,,,,,,,92,click the 0 key.,,,,,665.2142,668.8961,0,1,3.1447,,0,65,65,91,1,REAL,FAKE,,,,,,,,,,,,,,,,,
,,,,,,,,,5ef7bc9de683904f56114114,Spanish,13 or older,"no, only English or Spanish",yes,2025-08-12_14h50.17.488,empathy_intonation_perc,2024.2.4,MacIntel,60.24096386,5ef7bc9de683904f56114114,687ed1b7e638a4cbf2f02089,689b8cab27912031a1e0f0fc,,,,,,,,,,,,,,1,,,,,,,,,,,,,,,,,,,,,,,,,,,,,,,,,,,,,,,,,,,,,,,,,,,,,,,,,43,canela,,,,,668.8973,672.5294,1,1,3.0922,,0,66,66,42,1,REAL,FAKE,,,,,,,,,,,,,,,,,
,,,,,,,,,5ef7bc9de683904f56114114,Spanish,13 or older,"no, only English or Spanish",yes,2025-08-12_14h50.17.488,empathy_intonation_perc,2024.2.4,MacIntel,60.24096386,5ef7bc9de683904f56114114,687ed1b7e638a4cbf2f02089,689b8cab27912031a1e0f0fc,,,,,,,,,,,,,,1,,,,,,,,,,,,,,,,,,,,,,,,,,,,,,,,,,,,,,,,,,,,,,,,,,,,,,,,,62,flaco,,,,,672.5307,674.1461,1,1,1.0709,,0,67,67,61,1,REAL,FAKE,,,,,,,,,,,,,,,,,
,,,,,,,,,5ef7bc9de683904f56114114,Spanish,13 or older,"no, only English or Spanish",yes,2025-08-12_14h50.17.488,empathy_intonation_perc,2024.2.4,MacIntel,60.24096386,5ef7bc9de683904f56114114,687ed1b7e638a4cbf2f02089,689b8cab27912031a1e0f0fc,,,,,,,,,,,,,,1,,,,,,,,,,,,,,,,,,,,,,,,,,,,,,,,,,,,,,,,,,,,,,,,,,,,,,,,,73,hervidor,,,,,674.1472,676.5294,1,1,1.8404,,0,68,68,72,1,REAL,FAKE,,,,,,,,,,,,,,,,,
,,,,,,,,,5ef7bc9de683904f56114114,Spanish,13 or older,"no, only English or Spanish",yes,2025-08-12_14h50.17.488,empathy_intonation_perc,2024.2.4,MacIntel,60.24096386,5ef7bc9de683904f56114114,687ed1b7e638a4cbf2f02089,689b8cab27912031a1e0f0fc,,,,,,,,,,,,,,0,,,,,,,,,,,,,,,,,,,,,,,,,,,,,,,,,,,,,,,,,,,,,,,,,,,,,,,,,74,cintro,,,,,676.5305,678.6952,1,0,1.6283,,0,69,69,73,1,REAL,FAKE,,,,,,,,,,,,,,,,,
,,,,,,,,,5ef7bc9de683904f56114114,Spanish,13 or older,"no, only English or Spanish",yes,2025-08-12_14h50.17.488,empathy_intonation_perc,2024.2.4,MacIntel,60.24096386,5ef7bc9de683904f56114114,687ed1b7e638a4cbf2f02089,689b8cab27912031a1e0f0fc,,,,,,,,,,,,,,1,,,,,,,,,,,,,,,,,,,,,,,,,,,,,,,,,,,,,,,,,,,,,,,,,,,,,,,,,76,atar,,,,,678.6963,680.1454,0,0,0.9107,,0,70,70,75,1,REAL,FAKE,,,,,,,,,,,,,,,,,
,,,,,,,,,5ef7bc9de683904f56114114,Spanish,13 or older,"no, only English or Spanish",yes,2025-08-12_14h50.17.488,empathy_intonation_perc,2024.2.4,MacIntel,60.24096386,5ef7bc9de683904f56114114,687ed1b7e638a4cbf2f02089,689b8cab27912031a1e0f0fc,,,,,,,,,,,,,,1,,,,,,,,,,,,,,,,,,,,,,,,,,,,,,,,,,,,,,,,,,,,,,,,,,,,,,,,,91,click the 1 key.,,,,,680.1469,682.1461,1,1,1.4824,,0,71,71,90,1,REAL,FAKE,,,,,,,,,,,,,,,,,
,,,,,,,,,5ef7bc9de683904f56114114,Spanish,13 or older,"no, only English or Spanish",yes,2025-08-12_14h50.17.488,empathy_intonation_perc,2024.2.4,MacIntel,60.24096386,5ef7bc9de683904f56114114,687ed1b7e638a4cbf2f02089,689b8cab27912031a1e0f0fc,,,,,,,,,,,,,,0,,,,,,,,,,,,,,,,,,,,,,,,,,,,,,,,,,,,,,,,,,,,,,,,,,,,,,,,,32,fatacidad,,,,,682.1471,685.1462,0,1,2.4607,,0,72,72,31,1,REAL,FAKE,,,,,,,,,,,,,,,,,
,,,,,,,,,5ef7bc9de683904f56114114,Spanish,13 or older,"no, only English or Spanish",yes,2025-08-12_14h50.17.488,empathy_intonation_perc,2024.2.4,MacIntel,60.24096386,5ef7bc9de683904f56114114,687ed1b7e638a4cbf2f02089,689b8cab27912031a1e0f0fc,,,,,,,,,,,,,,0,,,,,,,,,,,,,,,,,,,,,,,,,,,,,,,,,,,,,,,,,,,,,,,,,,,,,,,,,16,abracer,,,,,685.1477,687.8957,0,1,2.221,,0,73,73,15,1,REAL,FAKE,,,,,,,,,,,,,,,,,
,,,,,,,,,5ef7bc9de683904f56114114,Spanish,13 or older,"no, only English or Spanish",yes,2025-08-12_14h50.17.488,empathy_intonation_perc,2024.2.4,MacIntel,60.24096386,5ef7bc9de683904f56114114,687ed1b7e638a4cbf2f02089,689b8cab27912031a1e0f0fc,,,,,,,,,,,,,,1,,,,,,,,,,,,,,,,,,,,,,,,,,,,,,,,,,,,,,,,,,,,,,,,,,,,,,,,,34,aviso,,,,,687.8962,689.4793,1,1,1.0551,,0,74,74,33,1,REAL,FAKE,,,,,,,,,,,,,,,,,
,,,,,,,,,5ef7bc9de683904f56114114,Spanish,13 or older,"no, only English or Spanish",yes,2025-08-12_14h50.17.488,empathy_intonation_perc,2024.2.4,MacIntel,60.24096386,5ef7bc9de683904f56114114,687ed1b7e638a4cbf2f02089,689b8cab27912031a1e0f0fc,,,,,,,,,,,,,,0,,,,,,,,,,,,,,,,,,,,,,,,,,,,,,,,,,,,,,,,,,,,,,,,,,,,,,,,,8,cadeña,,,,,689.4802,691.7117,1,0,1.693,,0,75,75,7,1,REAL,FAKE,,,,,,,,,,,,,,,,,
,,,,,,,,,5ef7bc9de683904f56114114,Spanish,13 or older,"no, only English or Spanish",yes,2025-08-12_14h50.17.488,empathy_intonation_perc,2024.2.4,MacIntel,60.24096386,5ef7bc9de683904f56114114,687ed1b7e638a4cbf2f02089,689b8cab27912031a1e0f0fc,,,,,,,,,,,,,,1,,,,,,,,,,,,,,,,,,,,,,,,,,,,,,,,,,,,,,,,,,,,,,,,,,,,,,,,,90,clavel,,,,,691.7128,693.2295,0,0,0.9936,,0,76,76,89,1,REAL,FAKE,,,,,,,,,,,,,,,,,
,,,,,,,,,5ef7bc9de683904f56114114,Spanish,13 or older,"no, only English or Spanish",yes,2025-08-12_14h50.17.488,empathy_intonation_perc,2024.2.4,MacIntel,60.24096386,5ef7bc9de683904f56114114,687ed1b7e638a4cbf2f02089,689b8cab27912031a1e0f0fc,,,,,,,,,,,,,,1,,,,,,,,,,,,,,,,,,,,,,,,,,,,,,,,,,,,,,,,,,,,,,,,,,,,,,,,,67,cabello,,,,,693.2306,695.6628,1,1,1.8953,,0,77,77,66,1,REAL,FAKE,,,,,,,,,,,,,,,,,
,,,,,,,,,5ef7bc9de683904f56114114,Spanish,13 or older,"no, only English or Spanish",yes,2025-08-12_14h50.17.488,empathy_intonation_perc,2024.2.4,MacIntel,60.24096386,5ef7bc9de683904f56114114,687ed1b7e638a4cbf2f02089,689b8cab27912031a1e0f0fc,,,,,,,,,,,,,,1,,,,,,,,,,,,,,,,,,,,,,,,,,,,,,,,,,,,,,,,,,,,,,,,,,,,,,,,,6,tergiversar,,,,,695.6639,697.1961,0,0,0.9936,,0,78,78,5,1,REAL,FAKE,,,,,,,,,,,,,,,,,
,,,,,,,,,5ef7bc9de683904f56114114,Spanish,13 or older,"no, only English or Spanish",yes,2025-08-12_14h50.17.488,empathy_intonation_perc,2024.2.4,MacIntel,60.24096386,5ef7bc9de683904f56114114,687ed1b7e638a4cbf2f02089,689b8cab27912031a1e0f0fc,,,,,,,,,,,,,,1,,,,,,,,,,,,,,,,,,,,,,,,,,,,,,,,,,,,,,,,,,,,,,,,,,,,,,,,,40,alfombra,,,,,697.1973,699.4793,0,0,1.7489,,0,79,79,39,1,REAL,FAKE,,,,,,,,,,,,,,,,,
,,,,,,,,,5ef7bc9de683904f56114114,Spanish,13 or older,"no, only English or Spanish",yes,2025-08-12_14h50.17.488,empathy_intonation_perc,2024.2.4,MacIntel,60.24096386,5ef7bc9de683904f56114114,687ed1b7e638a4cbf2f02089,689b8cab27912031a1e0f0fc,,,,,,,,,,,,,,1,,,,,,,,,,,,,,,,,,,,,,,,,,,,,,,,,,,,,,,,,,,,,,,,,,,,,,,,,20,ávido,,,,,699.4802,700.9127,1,1,0.9003,,0,80,80,19,1,REAL,FAKE,,,,,,,,,,,,,,,,,
,,,,,,,,,5ef7bc9de683904f56114114,Spanish,13 or older,"no, only English or Spanish",yes,2025-08-12_14h50.17.488,empathy_intonation_perc,2024.2.4,MacIntel,60.24096386,5ef7bc9de683904f56114114,687ed1b7e638a4cbf2f02089,689b8cab27912031a1e0f0fc,,,,,,,,,,,,,,1,,,,,,,,,,,,,,,,,,,,,,,,,,,,,,,,,,,,,,,,,,,,,,,,,,,,,,,,,55,nevar,,,,,700.9137,702.6963,0,0,1.2446,,0,81,81,54,1,REAL,FAKE,,,,,,,,,,,,,,,,,
,,,,,,,,,5ef7bc9de683904f56114114,Spanish,13 or older,"no, only English or Spanish",yes,2025-08-12_14h50.17.488,empathy_intonation_perc,2024.2.4,MacIntel,60.24096386,5ef7bc9de683904f56114114,687ed1b7e638a4cbf2f02089,689b8cab27912031a1e0f0fc,,,,,,,,,,,,,,1,,,,,,,,,,,,,,,,,,,,,,,,,,,,,,,,,,,,,,,,,,,,,,,,,,,,,,,,,38,estornudar,,,,,702.6974,704.0794,1,1,0.8434,,0,82,82,37,1,REAL,FAKE,,,,,,,,,,,,,,,,,
,,,,,,,,,5ef7bc9de683904f56114114,Spanish,13 or older,"no, only English or Spanish",yes,2025-08-12_14h50.17.488,empathy_intonation_perc,2024.2.4,MacIntel,60.24096386,5ef7bc9de683904f56114114,687ed1b7e638a4cbf2f02089,689b8cab27912031a1e0f0fc,,,,,,,,,,,,,,1,,,,,,,,,,,,,,,,,,,,,,,,,,,,,,,,,,,,,,,,,,,,,,,,,,,,,,,,,22,lacayo,,,,,704.0805,705.8628,0,0,1.2454,,0,83,83,21,1,REAL,FAKE,,,,,,,,,,,,,,,,,
,,,,,,,,,5ef7bc9de683904f56114114,Spanish,13 or older,"no, only English or Spanish",yes,2025-08-12_14h50.17.488,empathy_intonation_perc,2024.2.4,MacIntel,60.24096386,5ef7bc9de683904f56114114,687ed1b7e638a4cbf2f02089,689b8cab27912031a1e0f0fc,,,,,,,,,,,,,,1,,,,,,,,,,,,,,,,,,,,,,,,,,,,,,,,,,,,,,,,,,,,,,,,,,,,,,,,,13,helar,,,,,705.864,707.5628,0,0,1.1622,,0,84,84,12,1,REAL,FAKE,,,,,,,,,,,,,,,,,
,,,,,,,,,5ef7bc9de683904f56114114,Spanish,13 or older,"no, only English or Spanish",yes,2025-08-12_14h50.17.488,empathy_intonation_perc,2024.2.4,MacIntel,60.24096386,5ef7bc9de683904f56114114,687ed1b7e638a4cbf2f02089,689b8cab27912031a1e0f0fc,,,,,,,,,,,,,,1,,,,,,,,,,,,,,,,,,,,,,,,,,,,,,,,,,,,,,,,,,,,,,,,,,,,,,,,,86,barato,,,,,707.5641,708.9457,1,1,0.8486,,0,85,85,85,1,REAL,FAKE,,,,,,,,,,,,,,,,,
,,,,,,,,,5ef7bc9de683904f56114114,Spanish,13 or older,"no, only English or Spanish",yes,2025-08-12_14h50.17.488,empathy_intonation_perc,2024.2.4,MacIntel,60.24096386,5ef7bc9de683904f56114114,687ed1b7e638a4cbf2f02089,689b8cab27912031a1e0f0fc,,,,,,,,,,,,,,1,,,,,,,,,,,,,,,,,,,,,,,,,,,,,,,,,,,,,,,,,,,,,,,,,,,,,,,,,12,asesinato,,,,,708.9468,711.3128,0,0,1.8276,,0,86,86,11,1,REAL,FAKE,,,,,,,,,,,,,,,,,
,,,,,,,,,5ef7bc9de683904f56114114,Spanish,13 or older,"no, only English or Spanish",yes,2025-08-12_14h50.17.488,empathy_intonation_perc,2024.2.4,MacIntel,60.24096386,5ef7bc9de683904f56114114,687ed1b7e638a4cbf2f02089,689b8cab27912031a1e0f0fc,,,,,,,,,,,,,,1,,,,,,,,,,,,,,,,,,,,,,,,,,,,,,,,,,,,,,,,,,,,,,,,,,,,,,,,,88,acantilado,,,,,711.3141,713.696,1,1,1.8559,,0,87,87,87,1,REAL,FAKE,,,,,,,,,,,,,,,,,
,,,,,,,,,5ef7bc9de683904f56114114,Spanish,13 or older,"no, only English or Spanish",yes,2025-08-12_14h50.17.488,empathy_intonation_perc,2024.2.4,MacIntel,60.24096386,5ef7bc9de683904f56114114,687ed1b7e638a4cbf2f02089,689b8cab27912031a1e0f0fc,,,,,,,,,,,,,,1,,,,,,,,,,,,,,,,,,,,,,,,,,,,,,,,,,,,,,,,,,,,,,,,,,,,,,,,,49,ganar,,,,,713.697,715.0461,0,0,0.8112,,0,88,88,48,1,REAL,FAKE,,,,,,,,,,,,,,,,,
,,,,,,,,,5ef7bc9de683904f56114114,Spanish,13 or older,"no, only English or Spanish",yes,2025-08-12_14h50.17.488,empathy_intonation_perc,2024.2.4,MacIntel,60.24096386,5ef7bc9de683904f56114114,687ed1b7e638a4cbf2f02089,689b8cab27912031a1e0f0fc,,,,,,,,,,,,,,1,,,,,,,,,,,,,,,,,,,,,,,,,,,,,,,,,,,,,,,,,,,,,,,,,,,,,,,,,61,seda,,,,,715.0475,716.5785,0,0,0.9966,,0,89,89,60,1,REAL,FAKE,,,,,,,,,,,,,,,,,
,,,,,,,,,5ef7bc9de683904f56114114,Spanish,13 or older,"no, only English or Spanish",yes,2025-08-12_14h50.17.488,empathy_intonation_perc,2024.2.4,MacIntel,60.24096386,5ef7bc9de683904f56114114,687ed1b7e638a4cbf2f02089,689b8cab27912031a1e0f0fc,,,,,,,,,,,,,,1,,,,,,,,,,,,,,,,,,,,,,,,,,,,,,,,,,,,,,,,,,,,,,,,,,,,,,,,,41,rebuscar,,,,,716.5797,718.4129,1,1,1.3235,,0,90,90,40,1,REAL,FAKE,,,,,,,,,,,,,,,,,
,,,,,,,,,5ef7bc9de683904f56114114,Spanish,13 or older,"no, only English or Spanish",yes,2025-08-12_14h50.17.488,empathy_intonation_perc,2024.2.4,MacIntel,60.24096386,5ef7bc9de683904f56114114,687ed1b7e638a4cbf2f02089,689b8cab27912031a1e0f0fc,,,,,,,,,,,,,,1,,,,,,,,,,,,,,,,,,,,,,,,,,,,,,,,,,,,,,,,,,,,,,,,,,,,,,,,,83,guante,,,,,718.4139,720.4453,0,0,1.4959,,0,91,91,82,1,REAL,FAKE,,,,,,,,,,,,,,,,,
,,,,,,,,,5ef7bc9de683904f56114114,Spanish,13 or older,"no, only English or Spanish",yes,2025-08-12_14h50.17.488,empathy_intonation_perc,2024.2.4,MacIntel,60.24096386,5ef7bc9de683904f56114114,687ed1b7e638a4cbf2f02089,689b8cab27912031a1e0f0fc,,,,,,,,,,,,,,,,,,,,,,,,,,,,,,,,,,,,,,,,,,,,,,,,,,,,,,,,,,,,,,,,,,,,,,,,,,,,,,,,,,,,,,,,,,720.4457,731.0964,,,,,,,,,,,,,,,
,,,,,,,,,5ef7bc9de683904f56114114,Spanish,13 or older,"no, only English or Spanish",yes,2025-08-12_14h50.17.488,empathy_intonation_perc,2024.2.4,MacIntel,60.24096386,5ef7bc9de683904f56114114,687ed1b7e638a4cbf2f02089,689b8cab27912031a1e0f0fc,,,,,,,,,,,,,1,,,,,,,,,,,,,,,,,,,,,,,,,,,,,,,,,,,,,,,,,,,,,,,,,,,,,,,,,,,,,,,,,,,,,,,,,,,,,,,731.1086,738.412,strongly agree,0,0,0,0,1,I can easily tell if someone else wants to enter a conversation.,1,0,1,0,,
,,,,,,,,,5ef7bc9de683904f56114114,Spanish,13 or older,"no, only English or Spanish",yes,2025-08-12_14h50.17.488,empathy_intonation_perc,2024.2.4,MacIntel,60.24096386,5ef7bc9de683904f56114114,687ed1b7e638a4cbf2f02089,689b8cab27912031a1e0f0fc,,,,,,,,,,,,,2,,,,,,,,,,,,,,,,,,,,,,,,,,,,,,,,,,,,,,,,,,,,,,,,,,,,,,,,,,,,,,,,,,,,,,,,,,,,,,,738.4135,743.8622,slightly disagree,0,1,1,1,1,I prefer animals to humans.,0,1,0,0,,
,,,,,,,,,5ef7bc9de683904f56114114,Spanish,13 or older,"no, only English or Spanish",yes,2025-08-12_14h50.17.488,empathy_intonation_perc,2024.2.4,MacIntel,60.24096386,5ef7bc9de683904f56114114,687ed1b7e638a4cbf2f02089,689b8cab27912031a1e0f0fc,,,,,,,,,,,,,3,,,,,,,,,,,,,,,,,,,,,,,,,,,,,,,,,,,,,,,,,,,,,,,,,,,,,,,,,,,,,,,,,,,,,,,,,,,,,,,743.8639,748.5783,slightly agree,0,2,2,2,1,I try to keep up with the current trends and fashions.,0,1,0,0,,
,,,,,,,,,5ef7bc9de683904f56114114,Spanish,13 or older,"no, only English or Spanish",yes,2025-08-12_14h50.17.488,empathy_intonation_perc,2024.2.4,MacIntel,60.24096386,5ef7bc9de683904f56114114,687ed1b7e638a4cbf2f02089,689b8cab27912031a1e0f0fc,,,,,,,,,,,,,4,,,,,,,,,,,,,,,,,,,,,,,,,,,,,,,,,,,,,,,,,,,,,,,,,,,,,,,,,,,,,,,,,,,,,,,,,,,,,,,748.5799,757.5618,strongly disagree,0,3,3,3,1,"I find it difficult to explain to others things that I understand easily,   when they don't understand it first time.",1,0,0,1,,
,,,,,,,,,5ef7bc9de683904f56114114,Spanish,13 or older,"no, only English or Spanish",yes,2025-08-12_14h50.17.488,empathy_intonation_perc,2024.2.4,MacIntel,60.24096386,5ef7bc9de683904f56114114,687ed1b7e638a4cbf2f02089,689b8cab27912031a1e0f0fc,,,,,,,,,,,,,5,,,,,,,,,,,,,,,,,,,,,,,,,,,,,,,,,,,,,,,,,,,,,,,,,,,,,,,,,,,,,,,,,,,,,,,,,,,,,,,757.563,763.6627,slightly disagree,0,4,4,4,1,I dream most nights.,0,1,0,0,,
,,,,,,,,,5ef7bc9de683904f56114114,Spanish,13 or older,"no, only English or Spanish",yes,2025-08-12_14h50.17.488,empathy_intonation_perc,2024.2.4,MacIntel,60.24096386,5ef7bc9de683904f56114114,687ed1b7e638a4cbf2f02089,689b8cab27912031a1e0f0fc,,,,,,,,,,,,,6,,,,,,,,,,,,,,,,,,,,,,,,,,,,,,,,,,,,,,,,,,,,,,,,,,,,,,,,,,,,,,,,,,,,,,,,,,,,,,,763.6641,768.6295,slightly agree,0,5,5,5,1,I really enjoy caring for other people.,1,0,1,0,,
,,,,,,,,,5ef7bc9de683904f56114114,Spanish,13 or older,"no, only English or Spanish",yes,2025-08-12_14h50.17.488,empathy_intonation_perc,2024.2.4,MacIntel,60.24096386,5ef7bc9de683904f56114114,687ed1b7e638a4cbf2f02089,689b8cab27912031a1e0f0fc,,,,,,,,,,,,,7,,,,,,,,,,,,,,,,,,,,,,,,,,,,,,,,,,,,,,,,,,,,,,,,,,,,,,,,,,,,,,,,,,,,,,,,,,,,,,,768.6315,773.8295,strongly agree,0,6,6,6,1,I try to solve my own problems rather than discussing them with others.,0,1,0,0,,
,,,,,,,,,5ef7bc9de683904f56114114,Spanish,13 or older,"no, only English or Spanish",yes,2025-08-12_14h50.17.488,empathy_intonation_perc,2024.2.4,MacIntel,60.24096386,5ef7bc9de683904f56114114,687ed1b7e638a4cbf2f02089,689b8cab27912031a1e0f0fc,,,,,,,,,,,,,8,,,,,,,,,,,,,,,,,,,,,,,,,,,,,,,,,,,,,,,,,,,,,,,,,,,,,,,,,,,,,,,,,,,,,,,,,,,,,,,773.8313,780.5962,strongly disagree,0,7,7,7,1,I find it hard to know what to do in a social situation.,1,0,0,1,,
