instructions_exposure.started,instructions_exposure.stopped,instructions_exposure_loop.thisRepN,instructions_exposure_loop.thisTrialN,instructions_exposure_loop.thisN,instructions_exposure_loop.thisIndex,instructions_exposure_loop.ran,instructions_text,continue_text,participant_id,"What variety of Spanish are you most familiar with? (e.g., Peruvian, Spanish, Mexican)",At what age did you begin learning Spanish?,Are you proficient in any languages other than English/Spanish?,"Are you familiar with Caribbean (e.g., Caribbean, Puerto Rican) or Galician Spanish?",date,expName,psychopyVersion,OS,frameRate,id,study_id,session,trial_exposure.started,trial_exposure.stopped,key_resp_exposure.keys,key_resp_exposure.corr,key_resp_exposure.rt,key_resp_exposure.duration,key_resp.keys,exposure_loop.thisRepN,exposure_loop.thisTrialN,exposure_loop.thisN,exposure_loop.thisIndex,exposure_loop.ran,item_num,correct_response,question,path,duration,instructions_2afc.started,instructions_2afc.stopped,instructions_2afc_loop.thisRepN,instructions_2afc_loop.thisTrialN,instructions_2afc_loop.thisN,instructions_2afc_loop.thisIndex,instructions_2afc_loop.ran,practice_2afc.started,practice_2afc.stopped,key_resp_2afc_practice.keys,key_resp_2afc_practice.corr,key_resp_2afc_practice.rt,key_resp_2afc_practice.duration,trials_2afc_practice_loop.thisRepN,trials_2afc_practice_loop.thisTrialN,trials_2afc_practice_loop.thisN,trials_2afc_practice_loop.thisIndex,trials_2afc_practice_loop.ran,check_2afc.started,check_2afc.stopped,trial_2afc.started,trial_2afc.stopped,key_resp_2afc_trial.keys,key_resp_2afc_trial.corr,key_resp_2afc_trial.rt,key_resp_2afc_trial.duration,trials_2afc_loop.thisRepN,trials_2afc_loop.thisTrialN,trials_2afc_loop.thisN,trials_2afc_loop.thisIndex,trials_2afc_loop.ran,target,variety,instructions_lextale.started,instructions_lextale.stopped,instructions_lextale_loop.thisRepN,instructions_lextale_loop.thisTrialN,instructions_lextale_loop.thisN,instructions_lextale_loop.thisIndex,instructions_lextale_loop.ran,practice_lextale.started,practice_lextale.stopped,key_resp_lextale_practice.keys,key_resp_lextale_practice.corr,key_resp_lextale_practice.rt,key_resp_lextale_practice.duration,practice_feedback_lextale.started,practice_feedback_lextale.stopped,trials_lextale_practice_loop.thisRepN,trials_lextale_practice_loop.thisTrialN,trials_lextale_practice_loop.thisN,trials_lextale_practice_loop.thisIndex,trials_lextale_practice_loop.ran,stim,word,prac_button_real,prac_button_false,check_lextale.started,check_lextale.stopped,trial_lextale.started,trial_lextale.stopped,key_resp_lextale_trial.keys,key_resp_lextale_trial.corr,key_resp_lextale_trial.rt,key_resp_lextale_trial.duration,trials_lextale_loop.thisRepN,trials_lextale_loop.thisTrialN,trials_lextale_loop.thisN,trials_lextale_loop.thisIndex,trials_lextale_loop.ran,button_real,button_false,instructions_eq.started,instructions_eq.stopped,trial_eq.started,trial_eq.stopped,slider_eq_trial.response,trials_eq_loop.thisRepN,trials_eq_loop.thisTrialN,trials_eq_loop.thisN,trials_eq_loop.thisIndex,trials_eq_loop.ran,item,is_test_item,is_distractor,is_agree_score,is_disagree_score,end_exp.started,end_exp.stopped
0.0222,2.2172,0,0,0,0,1,"In the following task, you are going to hear a series of conversations.", (press the space bar to continue),5f78a9660c01564630e2c2c8,spanish,13 or older,"no, only English or Spanish",no,2025-07-23_00h11.01.708,empathy_intonation_perc,2024.2.4,Win32,59.88023952,5f78a9660c01564630e2c2c8,687ed1b7e638a4cbf2f02089,6880607929ccf867d27bcf19,,,,,,,,,,,,,,,,,,,,,,,,,,,,,,,,,,,,,,,,,,,,,,,,,,,,,,,,,,,,,,,,,,,,,,,,,,,,,,,,,,,,,,,,,,,,,,,,,,,,,,,,,,
2.2192,3.6678,0,1,1,1,1,It is okay if you don't not 100% understand them!, (press the space bar to continue),5f78a9660c01564630e2c2c8,spanish,13 or older,"no, only English or Spanish",no,2025-07-23_00h11.01.708,empathy_intonation_perc,2024.2.4,Win32,59.88023952,5f78a9660c01564630e2c2c8,687ed1b7e638a4cbf2f02089,6880607929ccf867d27bcf19,,,,,,,,,,,,,,,,,,,,,,,,,,,,,,,,,,,,,,,,,,,,,,,,,,,,,,,,,,,,,,,,,,,,,,,,,,,,,,,,,,,,,,,,,,,,,,,,,,,,,,,,,,
3.6706,4.8504,0,2,2,2,1,"After, you will read a sentence about the conversation and decide if it's true or false.", (press the space bar to continue),5f78a9660c01564630e2c2c8,spanish,13 or older,"no, only English or Spanish",no,2025-07-23_00h11.01.708,empathy_intonation_perc,2024.2.4,Win32,59.88023952,5f78a9660c01564630e2c2c8,687ed1b7e638a4cbf2f02089,6880607929ccf867d27bcf19,,,,,,,,,,,,,,,,,,,,,,,,,,,,,,,,,,,,,,,,,,,,,,,,,,,,,,,,,,,,,,,,,,,,,,,,,,,,,,,,,,,,,,,,,,,,,,,,,,,,,,,,,,
4.8525,7.134,0,3,3,3,1,"If it's true, press '1' (True) and if it's false press '0' (False).", (press the space bar to continue),5f78a9660c01564630e2c2c8,spanish,13 or older,"no, only English or Spanish",no,2025-07-23_00h11.01.708,empathy_intonation_perc,2024.2.4,Win32,59.88023952,5f78a9660c01564630e2c2c8,687ed1b7e638a4cbf2f02089,6880607929ccf867d27bcf19,,,,,,,,,,,,,,,,,,,,,,,,,,,,,,,,,,,,,,,,,,,,,,,,,,,,,,,,,,,,,,,,,,,,,,,,,,,,,,,,,,,,,,,,,,,,,,,,,,,,,,,,,,
,,,,,,,,,5f78a9660c01564630e2c2c8,spanish,13 or older,"no, only English or Spanish",no,2025-07-23_00h11.01.708,empathy_intonation_perc,2024.2.4,Win32,59.88023952,5f78a9660c01564630e2c2c8,687ed1b7e638a4cbf2f02089,6880607929ccf867d27bcf19,7.1444,57.1209,1,1,2.9388,,,0,0,0,0,1,1,1,The son asked the mom if Aunt Marina is okay.,./stim/exposure_wavs/ga_stimuli_convo.wav,47,,,,,,,,,,,,,,,,,,,,,,,,,,,,,,,,,,,,,,,,,,,,,,,,,,,,,,,,,,,,,,,,,,,,,,,,,,,,,,,,,,,,,,,,,
,,,,,,,,,5f78a9660c01564630e2c2c8,spanish,13 or older,"no, only English or Spanish",no,2025-07-23_00h11.01.708,empathy_intonation_perc,2024.2.4,Win32,59.88023952,5f78a9660c01564630e2c2c8,687ed1b7e638a4cbf2f02089,6880607929ccf867d27bcf19,57.1235,120.8547,1,1,3.7154,,,0,1,1,1,1,2,1,The mom asked the daughter if she already went to the supermarket.,./stim/exposure_wavs/dr_stimuli_convo.wav,60,,,,,,,,,,,,,,,,,,,,,,,,,,,,,,,,,,,,,,,,,,,,,,,,,,,,,,,,,,,,,,,,,,,,,,,,,,,,,,,,,,,,,,,,,
,,,,,,,,,5f78a9660c01564630e2c2c8,spanish,13 or older,"no, only English or Spanish",no,2025-07-23_00h11.01.708,empathy_intonation_perc,2024.2.4,Win32,59.88023952,5f78a9660c01564630e2c2c8,687ed1b7e638a4cbf2f02089,6880607929ccf867d27bcf19,120.8566,161.1046,0,1,4.2035,,,0,2,2,2,1,3,0,The mom already has rice.,./stim/exposure_wavs/pr_stimuli_convo.wav,36,,,,,,,,,,,,,,,,,,,,,,,,,,,,,,,,,,,,,,,,,,,,,,,,,,,,,,,,,,,,,,,,,,,,,,,,,,,,,,,,,,,,,,,,,
,,,,,,,"In the following task you are going to hear a series of utterances. 

  You will decide if the utterances sound like questions or not using your keyboard.", (press the spacebar to continue),5f78a9660c01564630e2c2c8,spanish,13 or older,"no, only English or Spanish",no,2025-07-23_00h11.01.708,empathy_intonation_perc,2024.2.4,Win32,59.88023952,5f78a9660c01564630e2c2c8,687ed1b7e638a4cbf2f02089,6880607929ccf867d27bcf19,,,,,,,,,,,,,,,,,,161.1138,172.0225,0,0,0,0,1,,,,,,,,,,,,,,,,,,,,,,,,,,,,,,,,,,,,,,,,,,,,,,,,,,,,,,,,,,,,,,,,,,,,,,,,,,,,,,,,,,
,,,,,,,"If you believe the utterance is a question, type '1' (for 'yes') and if you do not 
  believe it is a question type '0' (for 'no').

  Let's practice a bit...", (press the spacebar to continue),5f78a9660c01564630e2c2c8,spanish,13 or older,"no, only English or Spanish",no,2025-07-23_00h11.01.708,empathy_intonation_perc,2024.2.4,Win32,59.88023952,5f78a9660c01564630e2c2c8,687ed1b7e638a4cbf2f02089,6880607929ccf867d27bcf19,,,,,,,,,,,,,,,,,,172.0244,178.0204,0,1,1,1,1,,,,,,,,,,,,,,,,,,,,,,,,,,,,,,,,,,,,,,,,,,,,,,,,,,,,,,,,,,,,,,,,,,,,,,,,,,,,,,,,,,
,,,,,,,,,5f78a9660c01564630e2c2c8,spanish,13 or older,"no, only English or Spanish",no,2025-07-23_00h11.01.708,empathy_intonation_perc,2024.2.4,Win32,59.88023952,5f78a9660c01564630e2c2c8,687ed1b7e638a4cbf2f02089,6880607929ccf867d27bcf19,,,,,,,,,,,,,,1,,./stim/wavs/argentine_question_filler_Mi-vecino-habla-mucho.wav,,,,,,,,,178.0268,180.4207,1,1,1.8681,,0,0,0,1,1,,,,,,,,,,,,,,,,,,,,,,,,,,,,,,,,,,,,,,,,,,,,,,,,,,,,,,,,,,,,,,,,,,,,,,,
,,,,,,,,,5f78a9660c01564630e2c2c8,spanish,13 or older,"no, only English or Spanish",no,2025-07-23_00h11.01.708,empathy_intonation_perc,2024.2.4,Win32,59.88023952,5f78a9660c01564630e2c2c8,687ed1b7e638a4cbf2f02089,6880607929ccf867d27bcf19,,,,,,,,,,,,,,1,,./stim/wavs/castilian_question_filler_Mi-esposo-conoce-al-chico.wav,,,,,,,,,180.4218,183.3206,0,0,2.3791,,0,1,1,0,1,,,,,,,,,,,,,,,,,,,,,,,,,,,,,,,,,,,,,,,,,,,,,,,,,,,,,,,,,,,,,,,,,,,,,,,
,,,,,,,,,5f78a9660c01564630e2c2c8,spanish,13 or older,"no, only English or Spanish",no,2025-07-23_00h11.01.708,empathy_intonation_perc,2024.2.4,Win32,59.88023952,5f78a9660c01564630e2c2c8,687ed1b7e638a4cbf2f02089,6880607929ccf867d27bcf19,,,,,,,,,,,,,,0,,./stim/wavs/peruvian_statement_filler_El-nino-habla-con-su-madre.wav,,,,,,,,,183.3212,186.1373,0,1,2.286,,0,2,2,6,1,,,,,,,,,,,,,,,,,,,,,,,,,,,,,,,,,,,,,,,,,,,,,,,,,,,,,,,,,,,,,,,,,,,,,,,
,,,,,,,,,5f78a9660c01564630e2c2c8,spanish,13 or older,"no, only English or Spanish",no,2025-07-23_00h11.01.708,empathy_intonation_perc,2024.2.4,Win32,59.88023952,5f78a9660c01564630e2c2c8,687ed1b7e638a4cbf2f02089,6880607929ccf867d27bcf19,,,,,,,,,,,,,,1,,./stim/wavs/chilean_question_filler_Mi-padre-cantaba-bien.wav,,,,,,,,,186.1382,188.3209,0,0,1.6636,,0,3,3,2,1,,,,,,,,,,,,,,,,,,,,,,,,,,,,,,,,,,,,,,,,,,,,,,,,,,,,,,,,,,,,,,,,,,,,,,,
,,,,,,,,,5f78a9660c01564630e2c2c8,spanish,13 or older,"no, only English or Spanish",no,2025-07-23_00h11.01.708,empathy_intonation_perc,2024.2.4,Win32,59.88023952,5f78a9660c01564630e2c2c8,687ed1b7e638a4cbf2f02089,6880607929ccf867d27bcf19,,,,,,,,,,,,,,0,,./stim/wavs/andalusian_statement_filler_Alberto-nunca-se-afeita.wav,,,,,,,,,188.3223,190.9374,0,1,2.0857,,0,4,4,5,1,,,,,,,,,,,,,,,,,,,,,,,,,,,,,,,,,,,,,,,,,,,,,,,,,,,,,,,,,,,,,,,,,,,,,,,
,,,,,,,,,5f78a9660c01564630e2c2c8,spanish,13 or older,"no, only English or Spanish",no,2025-07-23_00h11.01.708,empathy_intonation_perc,2024.2.4,Win32,59.88023952,5f78a9660c01564630e2c2c8,687ed1b7e638a4cbf2f02089,6880607929ccf867d27bcf19,,,,,,,,,,,,,,1,,./stim/wavs/mexican_question_filler_Felipe-no-tiene-contrasena.wav,,,,,,,,,190.938,193.2042,1,1,1.7337,,0,5,5,3,1,,,,,,,,,,,,,,,,,,,,,,,,,,,,,,,,,,,,,,,,,,,,,,,,,,,,,,,,,,,,,,,,,,,,,,,
,,,,,,,,,5f78a9660c01564630e2c2c8,spanish,13 or older,"no, only English or Spanish",no,2025-07-23_00h11.01.708,empathy_intonation_perc,2024.2.4,Win32,59.88023952,5f78a9660c01564630e2c2c8,687ed1b7e638a4cbf2f02089,6880607929ccf867d27bcf19,,,,,,,,,,,,,,0,,./stim/wavs/puertorican_statement_filler_La-nina-pinta-con-su-amiga.wav,,,,,,,,,193.2048,195.7046,0,1,1.9793,,0,6,6,7,1,,,,,,,,,,,,,,,,,,,,,,,,,,,,,,,,,,,,,,,,,,,,,,,,,,,,,,,,,,,,,,,,,,,,,,,
,,,,,,,,,5f78a9660c01564630e2c2c8,spanish,13 or older,"no, only English or Spanish",no,2025-07-23_00h11.01.708,empathy_intonation_perc,2024.2.4,Win32,59.88023952,5f78a9660c01564630e2c2c8,687ed1b7e638a4cbf2f02089,6880607929ccf867d27bcf19,,,,,,,,,,,,,,0,,./stim/wavs/cuban_statement_filler_Cocinabas-por-la-noche.wav,,,,,,,,,195.7058,197.8379,0,1,1.6059,,0,7,7,4,1,,,,,,,,,,,,,,,,,,,,,,,,,,,,,,,,,,,,,,,,,,,,,,,,,,,,,,,,,,,,,,,,,,,,,,,
,,,,,,,,,5f78a9660c01564630e2c2c8,spanish,13 or older,"no, only English or Spanish",no,2025-07-23_00h11.01.708,empathy_intonation_perc,2024.2.4,Win32,59.88023952,5f78a9660c01564630e2c2c8,687ed1b7e638a4cbf2f02089,6880607929ccf867d27bcf19,,,,,,,,,,,,,,,,,,,,,,,,,,,,,,,,,,,,197.8385,199.7547,,,,,,,,,,,,,,,,,,,,,,,,,,,,,,,,,,,,,,,,,,,,,,,,,,,,,,,,,,,,,,,,,,,,,
,,,,,,,,,5f78a9660c01564630e2c2c8,spanish,13 or older,"no, only English or Spanish",no,2025-07-23_00h11.01.708,empathy_intonation_perc,2024.2.4,Win32,59.88023952,5f78a9660c01564630e2c2c8,687ed1b7e638a4cbf2f02089,6880607929ccf867d27bcf19,,,,,,,,,,,,,16,1,,./stim/wavs/mexican_match_interrogative-total-yn_Emilio-ama-la-marcha.wav,,,,,,,,,,,,,,,,,,,,,,199.7693,201.9878,1,1,1.6987,,0,0,0,15,1,0,mexican,,,,,,,,,,,,,,,,,,,,,,,,,,,,,,,,,,,,,,,,,,,,,,,,,,,,,,,,
,,,,,,,,,5f78a9660c01564630e2c2c8,spanish,13 or older,"no, only English or Spanish",no,2025-07-23_00h11.01.708,empathy_intonation_perc,2024.2.4,Win32,59.88023952,5f78a9660c01564630e2c2c8,687ed1b7e638a4cbf2f02089,6880607929ccf867d27bcf19,,,,,,,,,,,,,54,0,,./stim/wavs/cuban_match_declarative-broad-focus_Maria-bebe-el-vino.wav,,,,,,,,,,,,,,,,,,,,,,201.9887,204.1711,0,1,1.6528,,0,1,1,53,1,0,cuban,,,,,,,,,,,,,,,,,,,,,,,,,,,,,,,,,,,,,,,,,,,,,,,,,,,,,,,,
,,,,,,,,,5f78a9660c01564630e2c2c8,spanish,13 or older,"no, only English or Spanish",no,2025-07-23_00h11.01.708,empathy_intonation_perc,2024.2.4,Win32,59.88023952,5f78a9660c01564630e2c2c8,687ed1b7e638a4cbf2f02089,6880607929ccf867d27bcf19,,,,,,,,,,,,,39,1,,./stim/wavs/mexican_mismatch_interrogative-total-yn_Mi-tia-odia-la-lluvia.wav,,,,,,,,,,,,,,,,,,,,,,204.1722,206.1211,1,1,1.4262,,0,2,2,38,1,0,mexican,,,,,,,,,,,,,,,,,,,,,,,,,,,,,,,,,,,,,,,,,,,,,,,,,,,,,,,,
,,,,,,,,,5f78a9660c01564630e2c2c8,spanish,13 or older,"no, only English or Spanish",no,2025-07-23_00h11.01.708,empathy_intonation_perc,2024.2.4,Win32,59.88023952,5f78a9660c01564630e2c2c8,687ed1b7e638a4cbf2f02089,6880607929ccf867d27bcf19,,,,,,,,,,,,,60,0,,./stim/wavs/mexican_match_declarative-broad-focus_Emilio-ama-la-marcha.wav,,,,,,,,,,,,,,,,,,,,,,206.1221,208.4379,1,0,1.7935,,0,3,3,59,1,0,mexican,,,,,,,,,,,,,,,,,,,,,,,,,,,,,,,,,,,,,,,,,,,,,,,,,,,,,,,,
,,,,,,,,,5f78a9660c01564630e2c2c8,spanish,13 or older,"no, only English or Spanish",no,2025-07-23_00h11.01.708,empathy_intonation_perc,2024.2.4,Win32,59.88023952,5f78a9660c01564630e2c2c8,687ed1b7e638a4cbf2f02089,6880607929ccf867d27bcf19,,,,,,,,,,,,,18,1,,./stim/wavs/mexican_match_interrogative-total-yn_Marta-abre-el-regalo.wav,,,,,,,,,,,,,,,,,,,,,,208.4384,210.3715,1,1,1.4024,,0,4,4,17,1,0,mexican,,,,,,,,,,,,,,,,,,,,,,,,,,,,,,,,,,,,,,,,,,,,,,,,,,,,,,,,
,,,,,,,,,5f78a9660c01564630e2c2c8,spanish,13 or older,"no, only English or Spanish",no,2025-07-23_00h11.01.708,empathy_intonation_perc,2024.2.4,Win32,59.88023952,5f78a9660c01564630e2c2c8,687ed1b7e638a4cbf2f02089,6880607929ccf867d27bcf19,,,,,,,,,,,,,61,0,,./stim/wavs/mexican_match_declarative-broad-focus_Mariano-habla-del-tiempo.wav,,,,,,,,,,,,,,,,,,,,,,210.3723,212.7048,0,1,1.8123,,0,5,5,60,1,0,mexican,,,,,,,,,,,,,,,,,,,,,,,,,,,,,,,,,,,,,,,,,,,,,,,,,,,,,,,,
,,,,,,,,,5f78a9660c01564630e2c2c8,spanish,13 or older,"no, only English or Spanish",no,2025-07-23_00h11.01.708,empathy_intonation_perc,2024.2.4,Win32,59.88023952,5f78a9660c01564630e2c2c8,687ed1b7e638a4cbf2f02089,6880607929ccf867d27bcf19,,,,,,,,,,,,,71,0,,./stim/wavs/castilian_mismatch_declarative-broad-focus_La-nina-lava-el-plato.wav,,,,,,,,,,,,,,,,,,,,,,212.7059,215.1881,0,1,1.9492,,0,6,6,70,1,0,castilian,,,,,,,,,,,,,,,,,,,,,,,,,,,,,,,,,,,,,,,,,,,,,,,,,,,,,,,,
,,,,,,,,,5f78a9660c01564630e2c2c8,spanish,13 or older,"no, only English or Spanish",no,2025-07-23_00h11.01.708,empathy_intonation_perc,2024.2.4,Win32,59.88023952,5f78a9660c01564630e2c2c8,687ed1b7e638a4cbf2f02089,6880607929ccf867d27bcf19,,,,,,,,,,,,,36,1,,./stim/wavs/mexican_mismatch_interrogative-total-yn_El-nino-oye-el-rio.wav,,,,,,,,,,,,,,,,,,,,,,215.1887,217.1548,1,1,1.4421,,0,7,7,35,1,0,mexican,,,,,,,,,,,,,,,,,,,,,,,,,,,,,,,,,,,,,,,,,,,,,,,,,,,,,,,,
,,,,,,,,,5f78a9660c01564630e2c2c8,spanish,13 or older,"no, only English or Spanish",no,2025-07-23_00h11.01.708,empathy_intonation_perc,2024.2.4,Win32,59.88023952,5f78a9660c01564630e2c2c8,687ed1b7e638a4cbf2f02089,6880607929ccf867d27bcf19,,,,,,,,,,,,,63,0,,./stim/wavs/puertorican_match_declarative-broad-focus_Ana-lleva-el-abrigo.wav,,,,,,,,,,,,,,,,,,,,,,217.1553,219.4222,0,1,1.7382,,0,8,8,62,1,0,puertorican,,,,,,,,,,,,,,,,,,,,,,,,,,,,,,,,,,,,,,,,,,,,,,,,,,,,,,,,
,,,,,,,,,5f78a9660c01564630e2c2c8,spanish,13 or older,"no, only English or Spanish",no,2025-07-23_00h11.01.708,empathy_intonation_perc,2024.2.4,Win32,59.88023952,5f78a9660c01564630e2c2c8,687ed1b7e638a4cbf2f02089,6880607929ccf867d27bcf19,,,,,,,,,,,,,58,0,,./stim/wavs/mexican_match_declarative-broad-focus_Daniel-iba-a-Bolivia.wav,,,,,,,,,,,,,,,,,,,,,,219.4236,221.6386,0,1,1.6931,,0,9,9,57,1,0,mexican,,,,,,,,,,,,,,,,,,,,,,,,,,,,,,,,,,,,,,,,,,,,,,,,,,,,,,,,
,,,,,,,,,5f78a9660c01564630e2c2c8,spanish,13 or older,"no, only English or Spanish",no,2025-07-23_00h11.01.708,empathy_intonation_perc,2024.2.4,Win32,59.88023952,5f78a9660c01564630e2c2c8,687ed1b7e638a4cbf2f02089,6880607929ccf867d27bcf19,,,,,,,,,,,,,40,1,,./stim/wavs/puertorican_mismatch_interrogative-total-yn_El-hombre-mira-la-luna.wav,,,,,,,,,,,,,,,,,,,,,,221.6397,223.705,1,1,1.5342,,0,10,10,39,1,1,puertorican,,,,,,,,,,,,,,,,,,,,,,,,,,,,,,,,,,,,,,,,,,,,,,,,,,,,,,,,
,,,,,,,,,5f78a9660c01564630e2c2c8,spanish,13 or older,"no, only English or Spanish",no,2025-07-23_00h11.01.708,empathy_intonation_perc,2024.2.4,Win32,59.88023952,5f78a9660c01564630e2c2c8,687ed1b7e638a4cbf2f02089,6880607929ccf867d27bcf19,,,,,,,,,,,,,3,1,,./stim/wavs/castilian_match_interrogative-total-yn_Manuela-vende-el-carro.wav,,,,,,,,,,,,,,,,,,,,,,223.7057,226.0052,1,1,1.7702,,0,11,11,2,1,0,castilian,,,,,,,,,,,,,,,,,,,,,,,,,,,,,,,,,,,,,,,,,,,,,,,,,,,,,,,,
,,,,,,,,,5f78a9660c01564630e2c2c8,spanish,13 or older,"no, only English or Spanish",no,2025-07-23_00h11.01.708,empathy_intonation_perc,2024.2.4,Win32,59.88023952,5f78a9660c01564630e2c2c8,687ed1b7e638a4cbf2f02089,6880607929ccf867d27bcf19,,,,,,,,,,,,,73,0,,./stim/wavs/castilian_mismatch_declarative-broad-focus_Mi-tia-odia-la-lluvia.wav,,,,,,,,,,,,,,,,,,,,,,226.0058,228.3887,0,1,1.86,,0,12,12,72,1,0,castilian,,,,,,,,,,,,,,,,,,,,,,,,,,,,,,,,,,,,,,,,,,,,,,,,,,,,,,,,
,,,,,,,,,5f78a9660c01564630e2c2c8,spanish,13 or older,"no, only English or Spanish",no,2025-07-23_00h11.01.708,empathy_intonation_perc,2024.2.4,Win32,59.88023952,5f78a9660c01564630e2c2c8,687ed1b7e638a4cbf2f02089,6880607929ccf867d27bcf19,,,,,,,,,,,,,37,1,,./stim/wavs/mexican_mismatch_interrogative-total-yn_La-maestra-vive-en-Paris.wav,,,,,,,,,,,,,,,,,,,,,,228.3895,230.7052,1,1,1.7839,,0,13,13,36,1,0,mexican,,,,,,,,,,,,,,,,,,,,,,,,,,,,,,,,,,,,,,,,,,,,,,,,,,,,,,,,
,,,,,,,,,5f78a9660c01564630e2c2c8,spanish,13 or older,"no, only English or Spanish",no,2025-07-23_00h11.01.708,empathy_intonation_perc,2024.2.4,Win32,59.88023952,5f78a9660c01564630e2c2c8,687ed1b7e638a4cbf2f02089,6880607929ccf867d27bcf19,,,,,,,,,,,,,8,1,,./stim/wavs/cuban_match_interrogative-total-yn_Daniel-iba-a-Bolivia.wav,,,,,,,,,,,,,,,,,,,,,,230.7058,232.8221,1,1,1.585,,0,14,14,7,1,1,cuban,,,,,,,,,,,,,,,,,,,,,,,,,,,,,,,,,,,,,,,,,,,,,,,,,,,,,,,,
,,,,,,,,,5f78a9660c01564630e2c2c8,spanish,13 or older,"no, only English or Spanish",no,2025-07-23_00h11.01.708,empathy_intonation_perc,2024.2.4,Win32,59.88023952,5f78a9660c01564630e2c2c8,687ed1b7e638a4cbf2f02089,6880607929ccf867d27bcf19,,,,,,,,,,,,,9,1,,./stim/wavs/cuban_match_interrogative-total-yn_Manuela-vende-el-carro.wav,,,,,,,,,,,,,,,,,,,,,,232.8229,234.9387,1,1,1.5908,,0,15,15,8,1,1,cuban,,,,,,,,,,,,,,,,,,,,,,,,,,,,,,,,,,,,,,,,,,,,,,,,,,,,,,,,
,,,,,,,,,5f78a9660c01564630e2c2c8,spanish,13 or older,"no, only English or Spanish",no,2025-07-23_00h11.01.708,empathy_intonation_perc,2024.2.4,Win32,59.88023952,5f78a9660c01564630e2c2c8,687ed1b7e638a4cbf2f02089,6880607929ccf867d27bcf19,,,,,,,,,,,,,75,0,,./stim/wavs/cuban_mismatch_declarative-broad-focus_El-hombre-mira-la-luna.wav,,,,,,,,,,,,,,,,,,,,,,234.9392,236.9053,0,1,1.4437,,0,16,16,74,1,0,cuban,,,,,,,,,,,,,,,,,,,,,,,,,,,,,,,,,,,,,,,,,,,,,,,,,,,,,,,,
,,,,,,,,,5f78a9660c01564630e2c2c8,spanish,13 or older,"no, only English or Spanish",no,2025-07-23_00h11.01.708,empathy_intonation_perc,2024.2.4,Win32,59.88023952,5f78a9660c01564630e2c2c8,687ed1b7e638a4cbf2f02089,6880607929ccf867d27bcf19,,,,,,,,,,,,,78,0,,./stim/wavs/cuban_mismatch_declarative-broad-focus_Mi-tia-odia-la-lluvia.wav,,,,,,,,,,,,,,,,,,,,,,236.9058,239.2221,0,1,1.7914,,0,17,17,77,1,0,cuban,,,,,,,,,,,,,,,,,,,,,,,,,,,,,,,,,,,,,,,,,,,,,,,,,,,,,,,,
,,,,,,,,,5f78a9660c01564630e2c2c8,spanish,13 or older,"no, only English or Spanish",no,2025-07-23_00h11.01.708,empathy_intonation_perc,2024.2.4,Win32,59.88023952,5f78a9660c01564630e2c2c8,687ed1b7e638a4cbf2f02089,6880607929ccf867d27bcf19,,,,,,,,,,,,,55,0,,./stim/wavs/cuban_match_declarative-broad-focus_Mariano-habla-del-tiempo.wav,,,,,,,,,,,,,,,,,,,,,,239.2228,241.6225,0,1,1.87,,0,18,18,54,1,0,cuban,,,,,,,,,,,,,,,,,,,,,,,,,,,,,,,,,,,,,,,,,,,,,,,,,,,,,,,,
,,,,,,,,,5f78a9660c01564630e2c2c8,spanish,13 or older,"no, only English or Spanish",no,2025-07-23_00h11.01.708,empathy_intonation_perc,2024.2.4,Win32,59.88023952,5f78a9660c01564630e2c2c8,687ed1b7e638a4cbf2f02089,6880607929ccf867d27bcf19,,,,,,,,,,,,,50,0,,./stim/wavs/castilian_match_declarative-broad-focus_Marta-abre-el-regalo.wav,,,,,,,,,,,,,,,,,,,,,,241.6235,244.2389,0,1,2.0941,,0,19,19,49,1,0,castilian,,,,,,,,,,,,,,,,,,,,,,,,,,,,,,,,,,,,,,,,,,,,,,,,,,,,,,,,
,,,,,,,,,5f78a9660c01564630e2c2c8,spanish,13 or older,"no, only English or Spanish",no,2025-07-23_00h11.01.708,empathy_intonation_perc,2024.2.4,Win32,59.88023952,5f78a9660c01564630e2c2c8,687ed1b7e638a4cbf2f02089,6880607929ccf867d27bcf19,,,,,,,,,,,,,74,0,,./stim/wavs/cuban_mismatch_declarative-broad-focus_El-bebe-comia-muy-bien.wav,,,,,,,,,,,,,,,,,,,,,,244.2397,246.1726,1,0,1.4093,,0,20,20,73,1,0,cuban,,,,,,,,,,,,,,,,,,,,,,,,,,,,,,,,,,,,,,,,,,,,,,,,,,,,,,,,
,,,,,,,,,5f78a9660c01564630e2c2c8,spanish,13 or older,"no, only English or Spanish",no,2025-07-23_00h11.01.708,empathy_intonation_perc,2024.2.4,Win32,59.88023952,5f78a9660c01564630e2c2c8,687ed1b7e638a4cbf2f02089,6880607929ccf867d27bcf19,,,,,,,,,,,,,48,0,,./stim/wavs/castilian_match_declarative-broad-focus_Maria-bebe-el-vino.wav,,,,,,,,,,,,,,,,,,,,,,246.1734,248.389,0,1,1.6889,,0,21,21,47,1,0,castilian,,,,,,,,,,,,,,,,,,,,,,,,,,,,,,,,,,,,,,,,,,,,,,,,,,,,,,,,
,,,,,,,,,5f78a9660c01564630e2c2c8,spanish,13 or older,"no, only English or Spanish",no,2025-07-23_00h11.01.708,empathy_intonation_perc,2024.2.4,Win32,59.88023952,5f78a9660c01564630e2c2c8,687ed1b7e638a4cbf2f02089,6880607929ccf867d27bcf19,,,,,,,,,,,,,35,1,,./stim/wavs/mexican_mismatch_interrogative-total-yn_El-hombre-mira-la-luna.wav,,,,,,,,,,,,,,,,,,,,,,248.3897,250.4391,1,1,1.5281,,0,22,22,34,1,0,mexican,,,,,,,,,,,,,,,,,,,,,,,,,,,,,,,,,,,,,,,,,,,,,,,,,,,,,,,,
,,,,,,,,,5f78a9660c01564630e2c2c8,spanish,13 or older,"no, only English or Spanish",no,2025-07-23_00h11.01.708,empathy_intonation_perc,2024.2.4,Win32,59.88023952,5f78a9660c01564630e2c2c8,687ed1b7e638a4cbf2f02089,6880607929ccf867d27bcf19,,,,,,,,,,,,,7,1,,./stim/wavs/cuban_match_interrogative-total-yn_Ana-lleva-el-abrigo.wav,,,,,,,,,,,,,,,,,,,,,,250.4399,253.2391,0,0,2.2797,,0,23,23,6,1,1,cuban,,,,,,,,,,,,,,,,,,,,,,,,,,,,,,,,,,,,,,,,,,,,,,,,,,,,,,,,
,,,,,,,,,5f78a9660c01564630e2c2c8,spanish,13 or older,"no, only English or Spanish",no,2025-07-23_00h11.01.708,empathy_intonation_perc,2024.2.4,Win32,59.88023952,5f78a9660c01564630e2c2c8,687ed1b7e638a4cbf2f02089,6880607929ccf867d27bcf19,,,,,,,,,,,,,1,1,,./stim/wavs/castilian_match_interrogative-total-yn_David-leia-el-libro.wav,,,,,,,,,,,,,,,,,,,,,,253.2398,255.5065,1,1,1.7418,,0,24,24,0,1,0,castilian,,,,,,,,,,,,,,,,,,,,,,,,,,,,,,,,,,,,,,,,,,,,,,,,,,,,,,,,
,,,,,,,,,5f78a9660c01564630e2c2c8,spanish,13 or older,"no, only English or Spanish",no,2025-07-23_00h11.01.708,empathy_intonation_perc,2024.2.4,Win32,59.88023952,5f78a9660c01564630e2c2c8,687ed1b7e638a4cbf2f02089,6880607929ccf867d27bcf19,,,,,,,,,,,,,47,0,,./stim/wavs/castilian_match_declarative-broad-focus_Manuela-vende-el-carro.wav,,,,,,,,,,,,,,,,,,,,,,255.5081,258.0225,0,1,1.9862,,0,25,25,46,1,0,castilian,,,,,,,,,,,,,,,,,,,,,,,,,,,,,,,,,,,,,,,,,,,,,,,,,,,,,,,,
,,,,,,,,,5f78a9660c01564630e2c2c8,spanish,13 or older,"no, only English or Spanish",no,2025-07-23_00h11.01.708,empathy_intonation_perc,2024.2.4,Win32,59.88023952,5f78a9660c01564630e2c2c8,687ed1b7e638a4cbf2f02089,6880607929ccf867d27bcf19,,,,,,,,,,,,,67,0,,./stim/wavs/puertorican_match_declarative-broad-focus_Manuela-vende-el-carro.wav,,,,,,,,,,,,,,,,,,,,,,258.0232,260.1894,0,1,1.6411,,0,26,26,66,1,0,puertorican,,,,,,,,,,,,,,,,,,,,,,,,,,,,,,,,,,,,,,,,,,,,,,,,,,,,,,,,
,,,,,,,,,5f78a9660c01564630e2c2c8,spanish,13 or older,"no, only English or Spanish",no,2025-07-23_00h11.01.708,empathy_intonation_perc,2024.2.4,Win32,59.88023952,5f78a9660c01564630e2c2c8,687ed1b7e638a4cbf2f02089,6880607929ccf867d27bcf19,,,,,,,,,,,,,49,0,,./stim/wavs/castilian_match_declarative-broad-focus_Mariano-habla-del-tiempo.wav,,,,,,,,,,,,,,,,,,,,,,260.19,262.6727,0,1,1.952,,0,27,27,48,1,0,castilian,,,,,,,,,,,,,,,,,,,,,,,,,,,,,,,,,,,,,,,,,,,,,,,,,,,,,,,,
,,,,,,,,,5f78a9660c01564630e2c2c8,spanish,13 or older,"no, only English or Spanish",no,2025-07-23_00h11.01.708,empathy_intonation_perc,2024.2.4,Win32,59.88023952,5f78a9660c01564630e2c2c8,687ed1b7e638a4cbf2f02089,6880607929ccf867d27bcf19,,,,,,,,,,,,,72,0,,./stim/wavs/castilian_mismatch_declarative-broad-focus_Mi-novio-viene-del-lago.wav,,,,,,,,,,,,,,,,,,,,,,262.6733,265.0565,0,1,1.8533,,0,28,28,71,1,0,castilian,,,,,,,,,,,,,,,,,,,,,,,,,,,,,,,,,,,,,,,,,,,,,,,,,,,,,,,,
,,,,,,,,,5f78a9660c01564630e2c2c8,spanish,13 or older,"no, only English or Spanish",no,2025-07-23_00h11.01.708,empathy_intonation_perc,2024.2.4,Win32,59.88023952,5f78a9660c01564630e2c2c8,687ed1b7e638a4cbf2f02089,6880607929ccf867d27bcf19,,,,,,,,,,,,,41,1,,./stim/wavs/puertorican_mismatch_interrogative-total-yn_El-nino-oye-el-rio.wav,,,,,,,,,,,,,,,,,,,,,,265.0577,267.3895,0,0,1.7982,,0,29,29,40,1,1,puertorican,,,,,,,,,,,,,,,,,,,,,,,,,,,,,,,,,,,,,,,,,,,,,,,,,,,,,,,,
,,,,,,,,,5f78a9660c01564630e2c2c8,spanish,13 or older,"no, only English or Spanish",no,2025-07-23_00h11.01.708,empathy_intonation_perc,2024.2.4,Win32,59.88023952,5f78a9660c01564630e2c2c8,687ed1b7e638a4cbf2f02089,6880607929ccf867d27bcf19,,,,,,,,,,,,,66,0,,./stim/wavs/puertorican_match_declarative-broad-focus_Emilio-ama-la-marcha.wav,,,,,,,,,,,,,,,,,,,,,,267.39,269.5899,0,1,1.6766,,0,30,30,65,1,0,puertorican,,,,,,,,,,,,,,,,,,,,,,,,,,,,,,,,,,,,,,,,,,,,,,,,,,,,,,,,
,,,,,,,,,5f78a9660c01564630e2c2c8,spanish,13 or older,"no, only English or Spanish",no,2025-07-23_00h11.01.708,empathy_intonation_perc,2024.2.4,Win32,59.88023952,5f78a9660c01564630e2c2c8,687ed1b7e638a4cbf2f02089,6880607929ccf867d27bcf19,,,,,,,,,,,,,83,0,,./stim/wavs/mexican_mismatch_declarative-broad-focus_Mi-tia-odia-la-lluvia.wav,,,,,,,,,,,,,,,,,,,,,,269.591,271.6234,0,1,1.5036,,0,31,31,82,1,0,mexican,,,,,,,,,,,,,,,,,,,,,,,,,,,,,,,,,,,,,,,,,,,,,,,,,,,,,,,,
,,,,,,,,,5f78a9660c01564630e2c2c8,spanish,13 or older,"no, only English or Spanish",no,2025-07-23_00h11.01.708,empathy_intonation_perc,2024.2.4,Win32,59.88023952,5f78a9660c01564630e2c2c8,687ed1b7e638a4cbf2f02089,6880607929ccf867d27bcf19,,,,,,,,,,,,,4,1,,./stim/wavs/castilian_match_interrogative-total-yn_Maria-bebe-el-vino.wav,,,,,,,,,,,,,,,,,,,,,,271.6244,273.7063,1,1,1.5534,,0,32,32,3,1,0,castilian,,,,,,,,,,,,,,,,,,,,,,,,,,,,,,,,,,,,,,,,,,,,,,,,,,,,,,,,
,,,,,,,,,5f78a9660c01564630e2c2c8,spanish,13 or older,"no, only English or Spanish",no,2025-07-23_00h11.01.708,empathy_intonation_perc,2024.2.4,Win32,59.88023952,5f78a9660c01564630e2c2c8,687ed1b7e638a4cbf2f02089,6880607929ccf867d27bcf19,,,,,,,,,,,,,59,0,,./stim/wavs/mexican_match_declarative-broad-focus_David-leia-el-libro.wav,,,,,,,,,,,,,,,,,,,,,,273.7071,275.74,0,1,1.5022,,0,33,33,58,1,0,mexican,,,,,,,,,,,,,,,,,,,,,,,,,,,,,,,,,,,,,,,,,,,,,,,,,,,,,,,,
,,,,,,,,,5f78a9660c01564630e2c2c8,spanish,13 or older,"no, only English or Spanish",no,2025-07-23_00h11.01.708,empathy_intonation_perc,2024.2.4,Win32,59.88023952,5f78a9660c01564630e2c2c8,687ed1b7e638a4cbf2f02089,6880607929ccf867d27bcf19,,,,,,,,,,,,,2,1,,./stim/wavs/castilian_match_interrogative-total-yn_Emilio-ama-la-marcha.wav,,,,,,,,,,,,,,,,,,,,,,275.7408,277.8565,1,1,1.5909,,0,34,34,1,1,0,castilian,,,,,,,,,,,,,,,,,,,,,,,,,,,,,,,,,,,,,,,,,,,,,,,,,,,,,,,,
,,,,,,,,,5f78a9660c01564630e2c2c8,spanish,13 or older,"no, only English or Spanish",no,2025-07-23_00h11.01.708,empathy_intonation_perc,2024.2.4,Win32,59.88023952,5f78a9660c01564630e2c2c8,687ed1b7e638a4cbf2f02089,6880607929ccf867d27bcf19,,,,,,,,,,,,,15,1,,./stim/wavs/mexican_match_interrogative-total-yn_David-leia-el-libro.wav,,,,,,,,,,,,,,,,,,,,,,277.8571,279.9399,1,1,1.5518,,0,35,35,14,1,0,mexican,,,,,,,,,,,,,,,,,,,,,,,,,,,,,,,,,,,,,,,,,,,,,,,,,,,,,,,,
,,,,,,,,,5f78a9660c01564630e2c2c8,spanish,13 or older,"no, only English or Spanish",no,2025-07-23_00h11.01.708,empathy_intonation_perc,2024.2.4,Win32,59.88023952,5f78a9660c01564630e2c2c8,687ed1b7e638a4cbf2f02089,6880607929ccf867d27bcf19,,,,,,,,,,,,,17,1,,./stim/wavs/mexican_match_interrogative-total-yn_Mariano-habla-del-tiempo.wav,,,,,,,,,,,,,,,,,,,,,,279.9405,282.04,1,1,1.5784,,0,36,36,16,1,0,mexican,,,,,,,,,,,,,,,,,,,,,,,,,,,,,,,,,,,,,,,,,,,,,,,,,,,,,,,,
,,,,,,,,,5f78a9660c01564630e2c2c8,spanish,13 or older,"no, only English or Spanish",no,2025-07-23_00h11.01.708,empathy_intonation_perc,2024.2.4,Win32,59.88023952,5f78a9660c01564630e2c2c8,687ed1b7e638a4cbf2f02089,6880607929ccf867d27bcf19,,,,,,,,,,,,,79,0,,./stim/wavs/mexican_mismatch_declarative-broad-focus_El-bebe-comia-muy-bien.wav,,,,,,,,,,,,,,,,,,,,,,282.0406,284.0566,1,0,1.4866,,0,37,37,78,1,0,mexican,,,,,,,,,,,,,,,,,,,,,,,,,,,,,,,,,,,,,,,,,,,,,,,,,,,,,,,,
,,,,,,,,,5f78a9660c01564630e2c2c8,spanish,13 or older,"no, only English or Spanish",no,2025-07-23_00h11.01.708,empathy_intonation_perc,2024.2.4,Win32,59.88023952,5f78a9660c01564630e2c2c8,687ed1b7e638a4cbf2f02089,6880607929ccf867d27bcf19,,,,,,,,,,,,,5,1,,./stim/wavs/castilian_match_interrogative-total-yn_Mariano-habla-del-tiempo.wav,,,,,,,,,,,,,,,,,,,,,,284.0571,286.3567,1,1,1.7676,,0,38,38,4,1,0,castilian,,,,,,,,,,,,,,,,,,,,,,,,,,,,,,,,,,,,,,,,,,,,,,,,,,,,,,,,
,,,,,,,,,5f78a9660c01564630e2c2c8,spanish,13 or older,"no, only English or Spanish",no,2025-07-23_00h11.01.708,empathy_intonation_perc,2024.2.4,Win32,59.88023952,5f78a9660c01564630e2c2c8,687ed1b7e638a4cbf2f02089,6880607929ccf867d27bcf19,,,,,,,,,,,,,57,0,,./stim/wavs/mexican_match_declarative-broad-focus_Ana-lleva-el-abrigo.wav,,,,,,,,,,,,,,,,,,,,,,286.3574,288.3069,0,1,1.4298,,0,39,39,56,1,0,mexican,,,,,,,,,,,,,,,,,,,,,,,,,,,,,,,,,,,,,,,,,,,,,,,,,,,,,,,,
,,,,,,,,,5f78a9660c01564630e2c2c8,spanish,13 or older,"no, only English or Spanish",no,2025-07-23_00h11.01.708,empathy_intonation_perc,2024.2.4,Win32,59.88023952,5f78a9660c01564630e2c2c8,687ed1b7e638a4cbf2f02089,6880607929ccf867d27bcf19,,,,,,,,,,,,,19,1,,./stim/wavs/puertorican_match_interrogative-total-yn_Ana-lleva-el-abrigo.wav,,,,,,,,,,,,,,,,,,,,,,288.3078,290.5071,1,1,1.6739,,0,40,40,18,1,1,puertorican,,,,,,,,,,,,,,,,,,,,,,,,,,,,,,,,,,,,,,,,,,,,,,,,,,,,,,,,
,,,,,,,,,5f78a9660c01564630e2c2c8,spanish,13 or older,"no, only English or Spanish",no,2025-07-23_00h11.01.708,empathy_intonation_perc,2024.2.4,Win32,59.88023952,5f78a9660c01564630e2c2c8,687ed1b7e638a4cbf2f02089,6880607929ccf867d27bcf19,,,,,,,,,,,,,68,0,,./stim/wavs/puertorican_match_declarative-broad-focus_Maria-bebe-el-vino.wav,,,,,,,,,,,,,,,,,,,,,,290.5079,292.9902,0,1,1.958,,0,41,41,67,1,0,puertorican,,,,,,,,,,,,,,,,,,,,,,,,,,,,,,,,,,,,,,,,,,,,,,,,,,,,,,,,
,,,,,,,,,5f78a9660c01564630e2c2c8,spanish,13 or older,"no, only English or Spanish",no,2025-07-23_00h11.01.708,empathy_intonation_perc,2024.2.4,Win32,59.88023952,5f78a9660c01564630e2c2c8,687ed1b7e638a4cbf2f02089,6880607929ccf867d27bcf19,,,,,,,,,,,,,65,0,,./stim/wavs/puertorican_match_declarative-broad-focus_David-leia-el-libro.wav,,,,,,,,,,,,,,,,,,,,,,292.9908,295.0237,0,1,1.5057,,0,42,42,64,1,0,puertorican,,,,,,,,,,,,,,,,,,,,,,,,,,,,,,,,,,,,,,,,,,,,,,,,,,,,,,,,
,,,,,,,,,5f78a9660c01564630e2c2c8,spanish,13 or older,"no, only English or Spanish",no,2025-07-23_00h11.01.708,empathy_intonation_perc,2024.2.4,Win32,59.88023952,5f78a9660c01564630e2c2c8,687ed1b7e638a4cbf2f02089,6880607929ccf867d27bcf19,,,,,,,,,,,,,88,0,,./stim/wavs/puertorican_mismatch_declarative-broad-focus_La-nina-lava-el-plato.wav,,,,,,,,,,,,,,,,,,,,,,295.0247,297.0403,0,1,1.4839,,0,43,43,87,1,0,puertorican,,,,,,,,,,,,,,,,,,,,,,,,,,,,,,,,,,,,,,,,,,,,,,,,,,,,,,,,
,,,,,,,,,5f78a9660c01564630e2c2c8,spanish,13 or older,"no, only English or Spanish",no,2025-07-23_00h11.01.708,empathy_intonation_perc,2024.2.4,Win32,59.88023952,5f78a9660c01564630e2c2c8,687ed1b7e638a4cbf2f02089,6880607929ccf867d27bcf19,,,,,,,,,,,,,77,0,,./stim/wavs/cuban_mismatch_declarative-broad-focus_Mi-novio-viene-del-lago.wav,,,,,,,,,,,,,,,,,,,,,,297.0409,299.5069,0,1,1.9459,,0,44,44,76,1,0,cuban,,,,,,,,,,,,,,,,,,,,,,,,,,,,,,,,,,,,,,,,,,,,,,,,,,,,,,,,
,,,,,,,,,5f78a9660c01564630e2c2c8,spanish,13 or older,"no, only English or Spanish",no,2025-07-23_00h11.01.708,empathy_intonation_perc,2024.2.4,Win32,59.88023952,5f78a9660c01564630e2c2c8,687ed1b7e638a4cbf2f02089,6880607929ccf867d27bcf19,,,,,,,,,,,,,80,0,,./stim/wavs/mexican_mismatch_declarative-broad-focus_El-hombre-mira-la-luna.wav,,,,,,,,,,,,,,,,,,,,,,299.5076,301.7071,0,1,1.6722,,0,45,45,79,1,0,mexican,,,,,,,,,,,,,,,,,,,,,,,,,,,,,,,,,,,,,,,,,,,,,,,,,,,,,,,,
,,,,,,,,,5f78a9660c01564630e2c2c8,spanish,13 or older,"no, only English or Spanish",no,2025-07-23_00h11.01.708,empathy_intonation_perc,2024.2.4,Win32,59.88023952,5f78a9660c01564630e2c2c8,687ed1b7e638a4cbf2f02089,6880607929ccf867d27bcf19,,,,,,,,,,,,,42,1,,./stim/wavs/puertorican_mismatch_interrogative-total-yn_La-maestra-vive-en-Paris.wav,,,,,,,,,,,,,,,,,,,,,,301.7077,304.4072,0,0,2.1754,,0,46,46,41,1,1,puertorican,,,,,,,,,,,,,,,,,,,,,,,,,,,,,,,,,,,,,,,,,,,,,,,,,,,,,,,,
,,,,,,,,,5f78a9660c01564630e2c2c8,spanish,13 or older,"no, only English or Spanish",no,2025-07-23_00h11.01.708,empathy_intonation_perc,2024.2.4,Win32,59.88023952,5f78a9660c01564630e2c2c8,687ed1b7e638a4cbf2f02089,6880607929ccf867d27bcf19,,,,,,,,,,,,,32,1,,./stim/wavs/cuban_mismatch_interrogative-total-yn_Mi-madre-come-la-fruta.wav,,,,,,,,,,,,,,,,,,,,,,304.4078,306.8406,0,0,1.9095,,0,47,47,31,1,1,cuban,,,,,,,,,,,,,,,,,,,,,,,,,,,,,,,,,,,,,,,,,,,,,,,,,,,,,,,,
,,,,,,,,,5f78a9660c01564630e2c2c8,spanish,13 or older,"no, only English or Spanish",no,2025-07-23_00h11.01.708,empathy_intonation_perc,2024.2.4,Win32,59.88023952,5f78a9660c01564630e2c2c8,687ed1b7e638a4cbf2f02089,6880607929ccf867d27bcf19,,,,,,,,,,,,,70,0,,./stim/wavs/castilian_mismatch_declarative-broad-focus_La-maestra-vive-en-Paris.wav,,,,,,,,,,,,,,,,,,,,,,306.8414,309.1577,0,1,1.7936,,0,48,48,69,1,0,castilian,,,,,,,,,,,,,,,,,,,,,,,,,,,,,,,,,,,,,,,,,,,,,,,,,,,,,,,,
,,,,,,,,,5f78a9660c01564630e2c2c8,spanish,13 or older,"no, only English or Spanish",no,2025-07-23_00h11.01.708,empathy_intonation_perc,2024.2.4,Win32,59.88023952,5f78a9660c01564630e2c2c8,687ed1b7e638a4cbf2f02089,6880607929ccf867d27bcf19,,,,,,,,,,,,,26,1,,./stim/wavs/castilian_mismatch_interrogative-total-yn_La-nina-lava-el-plato.wav,,,,,,,,,,,,,,,,,,,,,,309.159,311.274,1,1,1.5963,,0,49,49,25,1,0,castilian,,,,,,,,,,,,,,,,,,,,,,,,,,,,,,,,,,,,,,,,,,,,,,,,,,,,,,,,
,,,,,,,,,5f78a9660c01564630e2c2c8,spanish,13 or older,"no, only English or Spanish",no,2025-07-23_00h11.01.708,empathy_intonation_perc,2024.2.4,Win32,59.88023952,5f78a9660c01564630e2c2c8,687ed1b7e638a4cbf2f02089,6880607929ccf867d27bcf19,,,,,,,,,,,,,52,0,,./stim/wavs/cuban_match_declarative-broad-focus_Daniel-iba-a-Bolivia.wav,,,,,,,,,,,,,,,,,,,,,,311.2746,313.5908,0,1,1.7932,,0,50,50,51,1,0,cuban,,,,,,,,,,,,,,,,,,,,,,,,,,,,,,,,,,,,,,,,,,,,,,,,,,,,,,,,
,,,,,,,,,5f78a9660c01564630e2c2c8,spanish,13 or older,"no, only English or Spanish",no,2025-07-23_00h11.01.708,empathy_intonation_perc,2024.2.4,Win32,59.88023952,5f78a9660c01564630e2c2c8,687ed1b7e638a4cbf2f02089,6880607929ccf867d27bcf19,,,,,,,,,,,,,30,1,,./stim/wavs/cuban_mismatch_interrogative-total-yn_El-hombre-mira-la-luna.wav,,,,,,,,,,,,,,,,,,,,,,313.5919,316.1743,0,0,2.0626,,0,51,51,29,1,1,cuban,,,,,,,,,,,,,,,,,,,,,,,,,,,,,,,,,,,,,,,,,,,,,,,,,,,,,,,,
,,,,,,,,,5f78a9660c01564630e2c2c8,spanish,13 or older,"no, only English or Spanish",no,2025-07-23_00h11.01.708,empathy_intonation_perc,2024.2.4,Win32,59.88023952,5f78a9660c01564630e2c2c8,687ed1b7e638a4cbf2f02089,6880607929ccf867d27bcf19,,,,,,,,,,,,,82,0,,./stim/wavs/mexican_mismatch_declarative-broad-focus_Mi-novio-viene-del-lago.wav,,,,,,,,,,,,,,,,,,,,,,316.175,318.1745,1,0,1.4765,,0,52,52,81,1,0,mexican,,,,,,,,,,,,,,,,,,,,,,,,,,,,,,,,,,,,,,,,,,,,,,,,,,,,,,,,
,,,,,,,,,5f78a9660c01564630e2c2c8,spanish,13 or older,"no, only English or Spanish",no,2025-07-23_00h11.01.708,empathy_intonation_perc,2024.2.4,Win32,59.88023952,5f78a9660c01564630e2c2c8,687ed1b7e638a4cbf2f02089,6880607929ccf867d27bcf19,,,,,,,,,,,,,12,1,,./stim/wavs/cuban_match_interrogative-total-yn_Marta-abre-el-regalo.wav,,,,,,,,,,,,,,,,,,,,,,318.1754,320.2751,0,0,1.5761,,0,53,53,11,1,1,cuban,,,,,,,,,,,,,,,,,,,,,,,,,,,,,,,,,,,,,,,,,,,,,,,,,,,,,,,,
,,,,,,,,,5f78a9660c01564630e2c2c8,spanish,13 or older,"no, only English or Spanish",no,2025-07-23_00h11.01.708,empathy_intonation_perc,2024.2.4,Win32,59.88023952,5f78a9660c01564630e2c2c8,687ed1b7e638a4cbf2f02089,6880607929ccf867d27bcf19,,,,,,,,,,,,,46,0,,./stim/wavs/castilian_match_declarative-broad-focus_Emilio-ama-la-marcha.wav,,,,,,,,,,,,,,,,,,,,,,320.2766,322.9576,0,1,2.1522,,0,54,54,45,1,0,castilian,,,,,,,,,,,,,,,,,,,,,,,,,,,,,,,,,,,,,,,,,,,,,,,,,,,,,,,,
,,,,,,,,,5f78a9660c01564630e2c2c8,spanish,13 or older,"no, only English or Spanish",no,2025-07-23_00h11.01.708,empathy_intonation_perc,2024.2.4,Win32,59.88023952,5f78a9660c01564630e2c2c8,687ed1b7e638a4cbf2f02089,6880607929ccf867d27bcf19,,,,,,,,,,,,,29,1,,./stim/wavs/castilian_mismatch_interrogative-total-yn_Mi-tia-odia-la-lluvia.wav,,,,,,,,,,,,,,,,,,,,,,322.9581,325.1913,1,1,1.7033,,0,55,55,28,1,0,castilian,,,,,,,,,,,,,,,,,,,,,,,,,,,,,,,,,,,,,,,,,,,,,,,,,,,,,,,,
,,,,,,,,,5f78a9660c01564630e2c2c8,spanish,13 or older,"no, only English or Spanish",no,2025-07-23_00h11.01.708,empathy_intonation_perc,2024.2.4,Win32,59.88023952,5f78a9660c01564630e2c2c8,687ed1b7e638a4cbf2f02089,6880607929ccf867d27bcf19,,,,,,,,,,,,,27,1,,./stim/wavs/castilian_mismatch_interrogative-total-yn_Mi-madre-come-la-fruta.wav,,,,,,,,,,,,,,,,,,,,,,325.1926,327.3079,1,1,1.5859,,0,56,56,26,1,0,castilian,,,,,,,,,,,,,,,,,,,,,,,,,,,,,,,,,,,,,,,,,,,,,,,,,,,,,,,,
,,,,,,,,,5f78a9660c01564630e2c2c8,spanish,13 or older,"no, only English or Spanish",no,2025-07-23_00h11.01.708,empathy_intonation_perc,2024.2.4,Win32,59.88023952,5f78a9660c01564630e2c2c8,687ed1b7e638a4cbf2f02089,6880607929ccf867d27bcf19,,,,,,,,,,,,,62,0,,./stim/wavs/mexican_match_declarative-broad-focus_Marta-abre-el-regalo.wav,,,,,,,,,,,,,,,,,,,,,,327.3085,329.608,1,0,1.7752,,0,57,57,61,1,0,mexican,,,,,,,,,,,,,,,,,,,,,,,,,,,,,,,,,,,,,,,,,,,,,,,,,,,,,,,,
,,,,,,,,,5f78a9660c01564630e2c2c8,spanish,13 or older,"no, only English or Spanish",no,2025-07-23_00h11.01.708,empathy_intonation_perc,2024.2.4,Win32,59.88023952,5f78a9660c01564630e2c2c8,687ed1b7e638a4cbf2f02089,6880607929ccf867d27bcf19,,,,,,,,,,,,,23,1,,./stim/wavs/puertorican_match_interrogative-total-yn_Manuela-vende-el-carro.wav,,,,,,,,,,,,,,,,,,,,,,329.6088,331.6747,1,1,1.5432,,0,58,58,22,1,1,puertorican,,,,,,,,,,,,,,,,,,,,,,,,,,,,,,,,,,,,,,,,,,,,,,,,,,,,,,,,
,,,,,,,,,5f78a9660c01564630e2c2c8,spanish,13 or older,"no, only English or Spanish",no,2025-07-23_00h11.01.708,empathy_intonation_perc,2024.2.4,Win32,59.88023952,5f78a9660c01564630e2c2c8,687ed1b7e638a4cbf2f02089,6880607929ccf867d27bcf19,,,,,,,,,,,,,76,0,,./stim/wavs/cuban_mismatch_declarative-broad-focus_La-nina-lava-el-plato.wav,,,,,,,,,,,,,,,,,,,,,,331.6753,333.808,0,1,1.6002,,0,59,59,75,1,0,cuban,,,,,,,,,,,,,,,,,,,,,,,,,,,,,,,,,,,,,,,,,,,,,,,,,,,,,,,,
,,,,,,,,,5f78a9660c01564630e2c2c8,spanish,13 or older,"no, only English or Spanish",no,2025-07-23_00h11.01.708,empathy_intonation_perc,2024.2.4,Win32,59.88023952,5f78a9660c01564630e2c2c8,687ed1b7e638a4cbf2f02089,6880607929ccf867d27bcf19,,,,,,,,,,,,,38,1,,./stim/wavs/mexican_mismatch_interrogative-total-yn_Mi-novio-viene-del-lago.wav,,,,,,,,,,,,,,,,,,,,,,333.8085,335.9428,1,1,1.6108,,0,60,60,37,1,0,mexican,,,,,,,,,,,,,,,,,,,,,,,,,,,,,,,,,,,,,,,,,,,,,,,,,,,,,,,,
,,,,,,,,,5f78a9660c01564630e2c2c8,spanish,13 or older,"no, only English or Spanish",no,2025-07-23_00h11.01.708,empathy_intonation_perc,2024.2.4,Win32,59.88023952,5f78a9660c01564630e2c2c8,687ed1b7e638a4cbf2f02089,6880607929ccf867d27bcf19,,,,,,,,,,,,,44,1,,./stim/wavs/puertorican_mismatch_interrogative-total-yn_Mi-madre-come-la-fruta.wav,,,,,,,,,,,,,,,,,,,,,,335.9444,338.1918,0,0,1.7219,,0,61,61,43,1,1,puertorican,,,,,,,,,,,,,,,,,,,,,,,,,,,,,,,,,,,,,,,,,,,,,,,,,,,,,,,,
,,,,,,,,,5f78a9660c01564630e2c2c8,spanish,13 or older,"no, only English or Spanish",no,2025-07-23_00h11.01.708,empathy_intonation_perc,2024.2.4,Win32,59.88023952,5f78a9660c01564630e2c2c8,687ed1b7e638a4cbf2f02089,6880607929ccf867d27bcf19,,,,,,,,,,,,,21,1,,./stim/wavs/puertorican_match_interrogative-total-yn_David-leia-el-libro.wav,,,,,,,,,,,,,,,,,,,,,,338.1926,340.1082,0,0,1.3877,,0,62,62,20,1,1,puertorican,,,,,,,,,,,,,,,,,,,,,,,,,,,,,,,,,,,,,,,,,,,,,,,,,,,,,,,,
,,,,,,,,,5f78a9660c01564630e2c2c8,spanish,13 or older,"no, only English or Spanish",no,2025-07-23_00h11.01.708,empathy_intonation_perc,2024.2.4,Win32,59.88023952,5f78a9660c01564630e2c2c8,687ed1b7e638a4cbf2f02089,6880607929ccf867d27bcf19,,,,,,,,,,,,,22,1,,./stim/wavs/puertorican_match_interrogative-total-yn_Emilio-ama-la-marcha.wav,,,,,,,,,,,,,,,,,,,,,,340.1087,342.2082,0,0,1.5788,,0,63,63,21,1,1,puertorican,,,,,,,,,,,,,,,,,,,,,,,,,,,,,,,,,,,,,,,,,,,,,,,,,,,,,,,,
,,,,,,,,,5f78a9660c01564630e2c2c8,spanish,13 or older,"no, only English or Spanish",no,2025-07-23_00h11.01.708,empathy_intonation_perc,2024.2.4,Win32,59.88023952,5f78a9660c01564630e2c2c8,687ed1b7e638a4cbf2f02089,6880607929ccf867d27bcf19,,,,,,,,,,,,,81,0,,./stim/wavs/mexican_mismatch_declarative-broad-focus_La-maestra-vive-en-Paris.wav,,,,,,,,,,,,,,,,,,,,,,342.2088,344.425,0,1,1.6866,,0,64,64,80,1,0,mexican,,,,,,,,,,,,,,,,,,,,,,,,,,,,,,,,,,,,,,,,,,,,,,,,,,,,,,,,
,,,,,,,,,5f78a9660c01564630e2c2c8,spanish,13 or older,"no, only English or Spanish",no,2025-07-23_00h11.01.708,empathy_intonation_perc,2024.2.4,Win32,59.88023952,5f78a9660c01564630e2c2c8,687ed1b7e638a4cbf2f02089,6880607929ccf867d27bcf19,,,,,,,,,,,,,69,0,,./stim/wavs/castilian_mismatch_declarative-broad-focus_El-nino-oye-el-rio.wav,,,,,,,,,,,,,,,,,,,,,,344.4257,346.5252,0,1,1.5747,,0,65,65,68,1,0,castilian,,,,,,,,,,,,,,,,,,,,,,,,,,,,,,,,,,,,,,,,,,,,,,,,,,,,,,,,
,,,,,,,,,5f78a9660c01564630e2c2c8,spanish,13 or older,"no, only English or Spanish",no,2025-07-23_00h11.01.708,empathy_intonation_perc,2024.2.4,Win32,59.88023952,5f78a9660c01564630e2c2c8,687ed1b7e638a4cbf2f02089,6880607929ccf867d27bcf19,,,,,,,,,,,,,51,0,,./stim/wavs/cuban_match_declarative-broad-focus_Ana-lleva-el-abrigo.wav,,,,,,,,,,,,,,,,,,,,,,346.5259,348.5088,0,1,1.4506,,0,66,66,50,1,0,cuban,,,,,,,,,,,,,,,,,,,,,,,,,,,,,,,,,,,,,,,,,,,,,,,,,,,,,,,,
,,,,,,,,,5f78a9660c01564630e2c2c8,spanish,13 or older,"no, only English or Spanish",no,2025-07-23_00h11.01.708,empathy_intonation_perc,2024.2.4,Win32,59.88023952,5f78a9660c01564630e2c2c8,687ed1b7e638a4cbf2f02089,6880607929ccf867d27bcf19,,,,,,,,,,,,,56,0,,./stim/wavs/cuban_match_declarative-broad-focus_Marta-abre-el-regalo.wav,,,,,,,,,,,,,,,,,,,,,,348.5097,350.4586,0,1,1.4197,,0,67,67,55,1,0,cuban,,,,,,,,,,,,,,,,,,,,,,,,,,,,,,,,,,,,,,,,,,,,,,,,,,,,,,,,
,,,,,,,,,5f78a9660c01564630e2c2c8,spanish,13 or older,"no, only English or Spanish",no,2025-07-23_00h11.01.708,empathy_intonation_perc,2024.2.4,Win32,59.88023952,5f78a9660c01564630e2c2c8,687ed1b7e638a4cbf2f02089,6880607929ccf867d27bcf19,,,,,,,,,,,,,11,1,,./stim/wavs/cuban_match_interrogative-total-yn_Mariano-habla-del-tiempo.wav,,,,,,,,,,,,,,,,,,,,,,350.4595,352.5943,0,0,1.614,,0,68,68,10,1,1,cuban,,,,,,,,,,,,,,,,,,,,,,,,,,,,,,,,,,,,,,,,,,,,,,,,,,,,,,,,
,,,,,,,,,5f78a9660c01564630e2c2c8,spanish,13 or older,"no, only English or Spanish",no,2025-07-23_00h11.01.708,empathy_intonation_perc,2024.2.4,Win32,59.88023952,5f78a9660c01564630e2c2c8,687ed1b7e638a4cbf2f02089,6880607929ccf867d27bcf19,,,,,,,,,,,,,6,1,,./stim/wavs/castilian_match_interrogative-total-yn_Marta-abre-el-regalo.wav,,,,,,,,,,,,,,,,,,,,,,352.596,354.7085,1,1,1.592,,0,69,69,5,1,0,castilian,,,,,,,,,,,,,,,,,,,,,,,,,,,,,,,,,,,,,,,,,,,,,,,,,,,,,,,,
,,,,,,,,,5f78a9660c01564630e2c2c8,spanish,13 or older,"no, only English or Spanish",no,2025-07-23_00h11.01.708,empathy_intonation_perc,2024.2.4,Win32,59.88023952,5f78a9660c01564630e2c2c8,687ed1b7e638a4cbf2f02089,6880607929ccf867d27bcf19,,,,,,,,,,,,,84,0,,./stim/wavs/puertorican_mismatch_declarative-broad-focus_El-bebe-comia-muy-bien.wav,,,,,,,,,,,,,,,,,,,,,,354.7091,356.7423,0,1,1.5114,,0,70,70,83,1,0,puertorican,,,,,,,,,,,,,,,,,,,,,,,,,,,,,,,,,,,,,,,,,,,,,,,,,,,,,,,,
,,,,,,,,,5f78a9660c01564630e2c2c8,spanish,13 or older,"no, only English or Spanish",no,2025-07-23_00h11.01.708,empathy_intonation_perc,2024.2.4,Win32,59.88023952,5f78a9660c01564630e2c2c8,687ed1b7e638a4cbf2f02089,6880607929ccf867d27bcf19,,,,,,,,,,,,,10,1,,./stim/wavs/cuban_match_interrogative-total-yn_Maria-bebe-el-vino.wav,,,,,,,,,,,,,,,,,,,,,,356.7431,358.8587,0,0,1.591,,0,71,71,9,1,1,cuban,,,,,,,,,,,,,,,,,,,,,,,,,,,,,,,,,,,,,,,,,,,,,,,,,,,,,,,,
,,,,,,,,,5f78a9660c01564630e2c2c8,spanish,13 or older,"no, only English or Spanish",no,2025-07-23_00h11.01.708,empathy_intonation_perc,2024.2.4,Win32,59.88023952,5f78a9660c01564630e2c2c8,687ed1b7e638a4cbf2f02089,6880607929ccf867d27bcf19,,,,,,,,,,,,,64,0,,./stim/wavs/puertorican_match_declarative-broad-focus_Daniel-iba-a-Bolivia.wav,,,,,,,,,,,,,,,,,,,,,,358.8593,360.8424,0,1,1.458,,0,72,72,63,1,0,puertorican,,,,,,,,,,,,,,,,,,,,,,,,,,,,,,,,,,,,,,,,,,,,,,,,,,,,,,,,
,,,,,,,,,5f78a9660c01564630e2c2c8,spanish,13 or older,"no, only English or Spanish",no,2025-07-23_00h11.01.708,empathy_intonation_perc,2024.2.4,Win32,59.88023952,5f78a9660c01564630e2c2c8,687ed1b7e638a4cbf2f02089,6880607929ccf867d27bcf19,,,,,,,,,,,,,20,1,,./stim/wavs/puertorican_match_interrogative-total-yn_Daniel-iba-a-Bolivia.wav,,,,,,,,,,,,,,,,,,,,,,360.8431,362.909,0,0,1.5419,,0,73,73,19,1,1,puertorican,,,,,,,,,,,,,,,,,,,,,,,,,,,,,,,,,,,,,,,,,,,,,,,,,,,,,,,,
,,,,,,,,,5f78a9660c01564630e2c2c8,spanish,13 or older,"no, only English or Spanish",no,2025-07-23_00h11.01.708,empathy_intonation_perc,2024.2.4,Win32,59.88023952,5f78a9660c01564630e2c2c8,687ed1b7e638a4cbf2f02089,6880607929ccf867d27bcf19,,,,,,,,,,,,,85,0,,./stim/wavs/puertorican_mismatch_declarative-broad-focus_El-hombre-mira-la-luna.wav,,,,,,,,,,,,,,,,,,,,,,362.9101,364.9588,0,1,1.5235,,0,74,74,84,1,0,puertorican,,,,,,,,,,,,,,,,,,,,,,,,,,,,,,,,,,,,,,,,,,,,,,,,,,,,,,,,
,,,,,,,,,5f78a9660c01564630e2c2c8,spanish,13 or older,"no, only English or Spanish",no,2025-07-23_00h11.01.708,empathy_intonation_perc,2024.2.4,Win32,59.88023952,5f78a9660c01564630e2c2c8,687ed1b7e638a4cbf2f02089,6880607929ccf867d27bcf19,,,,,,,,,,,,,24,1,,./stim/wavs/puertorican_match_interrogative-total-yn_Maria-bebe-el-vino.wav,,,,,,,,,,,,,,,,,,,,,,364.9593,366.7428,1,1,1.2514,,0,75,75,23,1,1,puertorican,,,,,,,,,,,,,,,,,,,,,,,,,,,,,,,,,,,,,,,,,,,,,,,,,,,,,,,,
,,,,,,,,,5f78a9660c01564630e2c2c8,spanish,13 or older,"no, only English or Spanish",no,2025-07-23_00h11.01.708,empathy_intonation_perc,2024.2.4,Win32,59.88023952,5f78a9660c01564630e2c2c8,687ed1b7e638a4cbf2f02089,6880607929ccf867d27bcf19,,,,,,,,,,,,,25,1,,./stim/wavs/castilian_mismatch_interrogative-total-yn_La-maestra-vive-en-Paris.wav,,,,,,,,,,,,,,,,,,,,,,366.7439,369.0767,1,1,1.8049,,0,76,76,24,1,0,castilian,,,,,,,,,,,,,,,,,,,,,,,,,,,,,,,,,,,,,,,,,,,,,,,,,,,,,,,,
,,,,,,,,,5f78a9660c01564630e2c2c8,spanish,13 or older,"no, only English or Spanish",no,2025-07-23_00h11.01.708,empathy_intonation_perc,2024.2.4,Win32,59.88023952,5f78a9660c01564630e2c2c8,687ed1b7e638a4cbf2f02089,6880607929ccf867d27bcf19,,,,,,,,,,,,,53,0,,./stim/wavs/cuban_match_declarative-broad-focus_Manuela-vende-el-carro.wav,,,,,,,,,,,,,,,,,,,,,,369.078,371.4474,0,1,1.8628,,0,77,77,52,1,0,cuban,,,,,,,,,,,,,,,,,,,,,,,,,,,,,,,,,,,,,,,,,,,,,,,,,,,,,,,,
,,,,,,,,,5f78a9660c01564630e2c2c8,spanish,13 or older,"no, only English or Spanish",no,2025-07-23_00h11.01.708,empathy_intonation_perc,2024.2.4,Win32,59.88023952,5f78a9660c01564630e2c2c8,687ed1b7e638a4cbf2f02089,6880607929ccf867d27bcf19,,,,,,,,,,,,,43,1,,./stim/wavs/puertorican_mismatch_interrogative-total-yn_La-nina-lava-el-plato.wav,,,,,,,,,,,,,,,,,,,,,,371.4482,373.5466,1,1,1.5669,,0,78,78,42,1,1,puertorican,,,,,,,,,,,,,,,,,,,,,,,,,,,,,,,,,,,,,,,,,,,,,,,,,,,,,,,,
,,,,,,,,,5f78a9660c01564630e2c2c8,spanish,13 or older,"no, only English or Spanish",no,2025-07-23_00h11.01.708,empathy_intonation_perc,2024.2.4,Win32,59.88023952,5f78a9660c01564630e2c2c8,687ed1b7e638a4cbf2f02089,6880607929ccf867d27bcf19,,,,,,,,,,,,,87,0,,./stim/wavs/puertorican_mismatch_declarative-broad-focus_La-maestra-vive-en-Paris.wav,,,,,,,,,,,,,,,,,,,,,,373.547,375.66,0,1,1.5859,,0,79,79,86,1,0,puertorican,,,,,,,,,,,,,,,,,,,,,,,,,,,,,,,,,,,,,,,,,,,,,,,,,,,,,,,,
,,,,,,,,,5f78a9660c01564630e2c2c8,spanish,13 or older,"no, only English or Spanish",no,2025-07-23_00h11.01.708,empathy_intonation_perc,2024.2.4,Win32,59.88023952,5f78a9660c01564630e2c2c8,687ed1b7e638a4cbf2f02089,6880607929ccf867d27bcf19,,,,,,,,,,,,,34,1,,./stim/wavs/cuban_mismatch_interrogative-total-yn_Mi-tia-odia-la-lluvia.wav,,,,,,,,,,,,,,,,,,,,,,375.661,377.7293,0,0,1.5483,,0,80,80,33,1,1,cuban,,,,,,,,,,,,,,,,,,,,,,,,,,,,,,,,,,,,,,,,,,,,,,,,,,,,,,,,
,,,,,,,,,5f78a9660c01564630e2c2c8,spanish,13 or older,"no, only English or Spanish",no,2025-07-23_00h11.01.708,empathy_intonation_perc,2024.2.4,Win32,59.88023952,5f78a9660c01564630e2c2c8,687ed1b7e638a4cbf2f02089,6880607929ccf867d27bcf19,,,,,,,,,,,,,86,0,,./stim/wavs/puertorican_mismatch_declarative-broad-focus_El-nino-oye-el-rio.wav,,,,,,,,,,,,,,,,,,,,,,377.7297,379.9271,0,1,1.6673,,0,81,81,85,1,0,puertorican,,,,,,,,,,,,,,,,,,,,,,,,,,,,,,,,,,,,,,,,,,,,,,,,,,,,,,,,
,,,,,,,,,5f78a9660c01564630e2c2c8,spanish,13 or older,"no, only English or Spanish",no,2025-07-23_00h11.01.708,empathy_intonation_perc,2024.2.4,Win32,59.88023952,5f78a9660c01564630e2c2c8,687ed1b7e638a4cbf2f02089,6880607929ccf867d27bcf19,,,,,,,,,,,,,14,1,,./stim/wavs/mexican_match_interrogative-total-yn_Daniel-iba-a-Bolivia.wav,,,,,,,,,,,,,,,,,,,,,,379.9278,382.2437,1,1,1.7832,,0,82,82,13,1,0,mexican,,,,,,,,,,,,,,,,,,,,,,,,,,,,,,,,,,,,,,,,,,,,,,,,,,,,,,,,
,,,,,,,,,5f78a9660c01564630e2c2c8,spanish,13 or older,"no, only English or Spanish",no,2025-07-23_00h11.01.708,empathy_intonation_perc,2024.2.4,Win32,59.88023952,5f78a9660c01564630e2c2c8,687ed1b7e638a4cbf2f02089,6880607929ccf867d27bcf19,,,,,,,,,,,,,13,1,,./stim/wavs/mexican_match_interrogative-total-yn_Ana-lleva-el-abrigo.wav,,,,,,,,,,,,,,,,,,,,,,382.2445,384.2113,1,1,1.4472,,0,83,83,12,1,0,mexican,,,,,,,,,,,,,,,,,,,,,,,,,,,,,,,,,,,,,,,,,,,,,,,,,,,,,,,,
,,,,,,,,,5f78a9660c01564630e2c2c8,spanish,13 or older,"no, only English or Spanish",no,2025-07-23_00h11.01.708,empathy_intonation_perc,2024.2.4,Win32,59.88023952,5f78a9660c01564630e2c2c8,687ed1b7e638a4cbf2f02089,6880607929ccf867d27bcf19,,,,,,,,,,,,,31,1,,./stim/wavs/cuban_mismatch_interrogative-total-yn_El-nino-oye-el-rio.wav,,,,,,,,,,,,,,,,,,,,,,384.212,386.3933,1,1,1.653,,0,84,84,30,1,1,cuban,,,,,,,,,,,,,,,,,,,,,,,,,,,,,,,,,,,,,,,,,,,,,,,,,,,,,,,,
,,,,,,,,,5f78a9660c01564630e2c2c8,spanish,13 or older,"no, only English or Spanish",no,2025-07-23_00h11.01.708,empathy_intonation_perc,2024.2.4,Win32,59.88023952,5f78a9660c01564630e2c2c8,687ed1b7e638a4cbf2f02089,6880607929ccf867d27bcf19,,,,,,,,,,,,,33,1,,./stim/wavs/cuban_mismatch_interrogative-total-yn_Mi-novio-viene-del-lago.wav,,,,,,,,,,,,,,,,,,,,,,386.3947,388.4602,1,1,1.549,,0,85,85,32,1,1,cuban,,,,,,,,,,,,,,,,,,,,,,,,,,,,,,,,,,,,,,,,,,,,,,,,,,,,,,,,
,,,,,,,,,5f78a9660c01564630e2c2c8,spanish,13 or older,"no, only English or Spanish",no,2025-07-23_00h11.01.708,empathy_intonation_perc,2024.2.4,Win32,59.88023952,5f78a9660c01564630e2c2c8,687ed1b7e638a4cbf2f02089,6880607929ccf867d27bcf19,,,,,,,,,,,,,28,1,,./stim/wavs/castilian_mismatch_interrogative-total-yn_Mi-novio-viene-del-lago.wav,,,,,,,,,,,,,,,,,,,,,,388.4618,390.6479,1,1,1.6665,,0,86,86,27,1,0,castilian,,,,,,,,,,,,,,,,,,,,,,,,,,,,,,,,,,,,,,,,,,,,,,,,,,,,,,,,
,,,,,,,,,5f78a9660c01564630e2c2c8,spanish,13 or older,"no, only English or Spanish",no,2025-07-23_00h11.01.708,empathy_intonation_perc,2024.2.4,Win32,59.88023952,5f78a9660c01564630e2c2c8,687ed1b7e638a4cbf2f02089,6880607929ccf867d27bcf19,,,,,,,,,,,,,45,0,,./stim/wavs/castilian_match_declarative-broad-focus_David-leia-el-libro.wav,,,,,,,,,,,,,,,,,,,,,,390.6488,392.8107,1,0,1.6265,,0,87,87,44,1,0,castilian,,,,,,,,,,,,,,,,,,,,,,,,,,,,,,,,,,,,,,,,,,,,,,,,,,,,,,,,
,,,,,,,"Great! Now we will move on. The next task consists of about 60 trials, in each of which you will see a string of letters. 
  
  Your task is to decide whether this is a real Spanish word or not.", (press the spacebar to continue),5f78a9660c01564630e2c2c8,spanish,13 or older,"no, only English or Spanish",no,2025-07-23_00h11.01.708,empathy_intonation_perc,2024.2.4,Win32,59.88023952,5f78a9660c01564630e2c2c8,687ed1b7e638a4cbf2f02089,6880607929ccf867d27bcf19,,,,,,,,,,,,,,,,,,,,,,,,,,,,,,,,,,,,,,,,,,,,,,,,,,,392.8243,396.6494,0,0,0,0,1,,,,,,,,,,,,,,,,,,,,,,,,,,,,,,,,,,,,,,,,,,,,,,,,,
,,,,,,,"If you think it is an existing Spanish word, you type '1' (for 'REAL'), and if you think it is not an existing Spanish word, you type '0' (for 'FAKE').", (press the spacebar to continue),5f78a9660c01564630e2c2c8,spanish,13 or older,"no, only English or Spanish",no,2025-07-23_00h11.01.708,empathy_intonation_perc,2024.2.4,Win32,59.88023952,5f78a9660c01564630e2c2c8,687ed1b7e638a4cbf2f02089,6880607929ccf867d27bcf19,,,,,,,,,,,,,,,,,,,,,,,,,,,,,,,,,,,,,,,,,,,,,,,,,,,396.6543,398.761,0,1,1,1,1,,,,,,,,,,,,,,,,,,,,,,,,,,,,,,,,,,,,,,,,,,,,,,,,,
,,,,,,,"If you are sure that the word exists, even though you don’t know its exact meaning, you may still respond '1' (REAL). 
  
  But if you are not sure if it is an existing word, you should respond '0' (FAKE).
  
  Let's do a practice round...", (press the spacebar to continue),5f78a9660c01564630e2c2c8,spanish,13 or older,"no, only English or Spanish",no,2025-07-23_00h11.01.708,empathy_intonation_perc,2024.2.4,Win32,59.88023952,5f78a9660c01564630e2c2c8,687ed1b7e638a4cbf2f02089,6880607929ccf867d27bcf19,,,,,,,,,,,,,,,,,,,,,,,,,,,,,,,,,,,,,,,,,,,,,,,,,,,398.7635,402.7805,0,2,2,2,1,,,,,,,,,,,,,,,,,,,,,,,,,,,,,,,,,,,,,,,,,,,,,,,,,
,,,,,,,,,5f78a9660c01564630e2c2c8,spanish,13 or older,"no, only English or Spanish",no,2025-07-23_00h11.01.708,empathy_intonation_perc,2024.2.4,Win32,59.88023952,5f78a9660c01564630e2c2c8,687ed1b7e638a4cbf2f02089,6880607929ccf867d27bcf19,,,,,,,,,,,,,,0,,,,,,,,,,,,,,,,,,,,,,,,,,,,,,,,,,,,,,,,,,,,402.7854,405.9282,0,1,2.6021,,405.9285,406.9302,0,0,0,0,1,0,depiste,REAL,FAKE,,,,,,,,,,,,,,,,,,,,,,,,,,,,,,,,
,,,,,,,,,5f78a9660c01564630e2c2c8,spanish,13 or older,"no, only English or Spanish",no,2025-07-23_00h11.01.708,empathy_intonation_perc,2024.2.4,Win32,59.88023952,5f78a9660c01564630e2c2c8,687ed1b7e638a4cbf2f02089,6880607929ccf867d27bcf19,,,,,,,,,,,,,,1,,,,,,,,,,,,,,,,,,,,,,,,,,,,,,,,,,,,,,,,,,,,406.9318,408.8803,1,1,1.4164,,408.8803,409.8777,0,1,1,1,1,0,sí,REAL,FAKE,,,,,,,,,,,,,,,,,,,,,,,,,,,,,,,,
,,,,,,,,,5f78a9660c01564630e2c2c8,spanish,13 or older,"no, only English or Spanish",no,2025-07-23_00h11.01.708,empathy_intonation_perc,2024.2.4,Win32,59.88023952,5f78a9660c01564630e2c2c8,687ed1b7e638a4cbf2f02089,6880607929ccf867d27bcf19,,,,,,,,,,,,,,0,,,,,,,,,,,,,,,,,,,,,,,,,,,,,,,,,,,,,,,,,,,,409.8792,411.7278,1,0,1.3187,,411.7294,412.6632,0,2,2,2,1,0,coné,REAL,FAKE,,,,,,,,,,,,,,,,,,,,,,,,,,,,,,,,
,,,,,,,,,5f78a9660c01564630e2c2c8,spanish,13 or older,"no, only English or Spanish",no,2025-07-23_00h11.01.708,empathy_intonation_perc,2024.2.4,Win32,59.88023952,5f78a9660c01564630e2c2c8,687ed1b7e638a4cbf2f02089,6880607929ccf867d27bcf19,,,,,,,,,,,,,,0,,,,,,,,,,,,,,,,,,,,,,,,,,,,,,,,,,,,,,,,,,,,412.665,414.3808,0,1,1.1838,,414.3816,415.3812,0,3,3,3,1,0,calpar,REAL,FAKE,,,,,,,,,,,,,,,,,,,,,,,,,,,,,,,,
,,,,,,,,,5f78a9660c01564630e2c2c8,spanish,13 or older,"no, only English or Spanish",no,2025-07-23_00h11.01.708,empathy_intonation_perc,2024.2.4,Win32,59.88023952,5f78a9660c01564630e2c2c8,687ed1b7e638a4cbf2f02089,6880607929ccf867d27bcf19,,,,,,,,,,,,,,0,,,,,,,,,,,,,,,,,,,,,,,,,,,,,,,,,,,,,,,,,,,,415.3839,417.4784,0,1,1.5541,,417.4786,418.4114,0,4,4,4,1,0,joten,REAL,FAKE,,,,,,,,,,,,,,,,,,,,,,,,,,,,,,,,
,,,,,,,,,5f78a9660c01564630e2c2c8,spanish,13 or older,"no, only English or Spanish",no,2025-07-23_00h11.01.708,empathy_intonation_perc,2024.2.4,Win32,59.88023952,5f78a9660c01564630e2c2c8,687ed1b7e638a4cbf2f02089,6880607929ccf867d27bcf19,,,,,,,,,,,,,,1,,,,,,,,,,,,,,,,,,,,,,,,,,,,,,,,,,,,,,,,,,,,418.4131,420.3617,1,1,1.4038,,420.363,421.1116,0,5,5,5,1,0,sacapuntas,REAL,FAKE,,,,,,,,,,,,,,,,,,,,,,,,,,,,,,,,
,,,,,,,,,5f78a9660c01564630e2c2c8,spanish,13 or older,"no, only English or Spanish",no,2025-07-23_00h11.01.708,empathy_intonation_perc,2024.2.4,Win32,59.88023952,5f78a9660c01564630e2c2c8,687ed1b7e638a4cbf2f02089,6880607929ccf867d27bcf19,,,,,,,,,,,,,,0,,,,,,,,,,,,,,,,,,,,,,,,,,,,,,,,,,,,,,,,,,,,421.1137,422.4453,1,0,0.7869,,422.4465,423.0622,0,6,6,6,1,0,priba,REAL,FAKE,,,,,,,,,,,,,,,,,,,,,,,,,,,,,,,,
,,,,,,,,,5f78a9660c01564630e2c2c8,spanish,13 or older,"no, only English or Spanish",no,2025-07-23_00h11.01.708,empathy_intonation_perc,2024.2.4,Win32,59.88023952,5f78a9660c01564630e2c2c8,687ed1b7e638a4cbf2f02089,6880607929ccf867d27bcf19,,,,,,,,,,,,,,0,,,,,,,,,,,,,,,,,,,,,,,,,,,,,,,,,,,,,,,,,,,,423.0644,424.7455,1,0,1.1441,,424.7459,425.3291,0,7,7,7,1,0,pelasula,REAL,FAKE,,,,,,,,,,,,,,,,,,,,,,,,,,,,,,,,
,,,,,,,,,5f78a9660c01564630e2c2c8,spanish,13 or older,"no, only English or Spanish",no,2025-07-23_00h11.01.708,empathy_intonation_perc,2024.2.4,Win32,59.88023952,5f78a9660c01564630e2c2c8,687ed1b7e638a4cbf2f02089,6880607929ccf867d27bcf19,,,,,,,,,,,,,,1,,,,,,,,,,,,,,,,,,,,,,,,,,,,,,,,,,,,,,,,,,,,425.3322,426.6454,1,1,0.7712,,426.6463,427.3293,0,8,8,8,1,0,bien,REAL,FAKE,,,,,,,,,,,,,,,,,,,,,,,,,,,,,,,,
,,,,,,,,,5f78a9660c01564630e2c2c8,spanish,13 or older,"no, only English or Spanish",no,2025-07-23_00h11.01.708,empathy_intonation_perc,2024.2.4,Win32,59.88023952,5f78a9660c01564630e2c2c8,687ed1b7e638a4cbf2f02089,6880607929ccf867d27bcf19,,,,,,,,,,,,,,1,,,,,,,,,,,,,,,,,,,,,,,,,,,,,,,,,,,,,,,,,,,,427.3318,428.5447,1,1,0.6737,,428.5451,429.3498,0,9,9,9,1,0,casa,REAL,FAKE,,,,,,,,,,,,,,,,,,,,,,,,,,,,,,,,
,,,,,,,,,5f78a9660c01564630e2c2c8,spanish,13 or older,"no, only English or Spanish",no,2025-07-23_00h11.01.708,empathy_intonation_perc,2024.2.4,Win32,59.88023952,5f78a9660c01564630e2c2c8,687ed1b7e638a4cbf2f02089,6880607929ccf867d27bcf19,,,,,,,,,,,,,,0,,,,,,,,,,,,,,,,,,,,,,,,,,,,,,,,,,,,,,,,,,,,429.3511,430.6619,1,0,0.7726,,430.6631,431.4953,0,10,10,10,1,0,lejo,REAL,FAKE,,,,,,,,,,,,,,,,,,,,,,,,,,,,,,,,
,,,,,,,,,5f78a9660c01564630e2c2c8,spanish,13 or older,"no, only English or Spanish",no,2025-07-23_00h11.01.708,empathy_intonation_perc,2024.2.4,Win32,59.88023952,5f78a9660c01564630e2c2c8,687ed1b7e638a4cbf2f02089,6880607929ccf867d27bcf19,,,,,,,,,,,,,,0,,,,,,,,,,,,,,,,,,,,,,,,,,,,,,,,,,,,,,,,,,,,431.497,433.1452,1,0,1.1028,,433.1456,433.8461,0,11,11,11,1,0,pretantas,REAL,FAKE,,,,,,,,,,,,,,,,,,,,,,,,,,,,,,,,
,,,,,,,,,5f78a9660c01564630e2c2c8,spanish,13 or older,"no, only English or Spanish",no,2025-07-23_00h11.01.708,empathy_intonation_perc,2024.2.4,Win32,59.88023952,5f78a9660c01564630e2c2c8,687ed1b7e638a4cbf2f02089,6880607929ccf867d27bcf19,,,,,,,,,,,,,,,,,,,,,,,,,,,,,,,,,,,,,,,,,,,,,,,,,,,,,,,,,,,,,,,,,,,,,,,,,,,433.8471,434.5789,,,,,,,,,,,,,,,,,,,,,,,,,,,,,,
,,,,,,,,,5f78a9660c01564630e2c2c8,spanish,13 or older,"no, only English or Spanish",no,2025-07-23_00h11.01.708,empathy_intonation_perc,2024.2.4,Win32,59.88023952,5f78a9660c01564630e2c2c8,687ed1b7e638a4cbf2f02089,6880607929ccf867d27bcf19,,,,,,,,,,,,,,0,,,,,,,,,,,,,,,,,,,,,,,,,,,,,,,,,,,,,,,,,,,,,,,,,,,,,,,,,10,antar,,,,,434.5885,436.0968,1,0,0.9719,,0,0,0,9,1,REAL,FAKE,,,,,,,,,,,,,,,,,
,,,,,,,,,5f78a9660c01564630e2c2c8,spanish,13 or older,"no, only English or Spanish",no,2025-07-23_00h11.01.708,empathy_intonation_perc,2024.2.4,Win32,59.88023952,5f78a9660c01564630e2c2c8,687ed1b7e638a4cbf2f02089,6880607929ccf867d27bcf19,,,,,,,,,,,,,,1,,,,,,,,,,,,,,,,,,,,,,,,,,,,,,,,,,,,,,,,,,,,,,,,,,,,,,,,,20,ávido,,,,,436.1013,437.4453,1,1,0.8038,,0,1,1,19,1,REAL,FAKE,,,,,,,,,,,,,,,,,
,,,,,,,,,5f78a9660c01564630e2c2c8,spanish,13 or older,"no, only English or Spanish",no,2025-07-23_00h11.01.708,empathy_intonation_perc,2024.2.4,Win32,59.88023952,5f78a9660c01564630e2c2c8,687ed1b7e638a4cbf2f02089,6880607929ccf867d27bcf19,,,,,,,,,,,,,,1,,,,,,,,,,,,,,,,,,,,,,,,,,,,,,,,,,,,,,,,,,,,,,,,,,,,,,,,,69,engatusar,,,,,437.4467,439.1675,1,1,1.2013,,0,2,2,68,1,REAL,FAKE,,,,,,,,,,,,,,,,,
,,,,,,,,,5f78a9660c01564630e2c2c8,spanish,13 or older,"no, only English or Spanish",no,2025-07-23_00h11.01.708,empathy_intonation_perc,2024.2.4,Win32,59.88023952,5f78a9660c01564630e2c2c8,687ed1b7e638a4cbf2f02089,6880607929ccf867d27bcf19,,,,,,,,,,,,,,1,,,,,,,,,,,,,,,,,,,,,,,,,,,,,,,,,,,,,,,,,,,,,,,,,,,,,,,,,13,helar,,,,,439.1698,440.9962,0,0,1.2945,,0,3,3,12,1,REAL,FAKE,,,,,,,,,,,,,,,,,
,,,,,,,,,5f78a9660c01564630e2c2c8,spanish,13 or older,"no, only English or Spanish",no,2025-07-23_00h11.01.708,empathy_intonation_perc,2024.2.4,Win32,59.88023952,5f78a9660c01564630e2c2c8,687ed1b7e638a4cbf2f02089,6880607929ccf867d27bcf19,,,,,,,,,,,,,,1,,,,,,,,,,,,,,,,,,,,,,,,,,,,,,,,,,,,,,,,,,,,,,,,,,,,,,,,,91,click the 1 key.,,,,,441.0001,442.6632,1,1,1.122,,0,4,4,90,1,REAL,FAKE,,,,,,,,,,,,,,,,,
,,,,,,,,,5f78a9660c01564630e2c2c8,spanish,13 or older,"no, only English or Spanish",no,2025-07-23_00h11.01.708,empathy_intonation_perc,2024.2.4,Win32,59.88023952,5f78a9660c01564630e2c2c8,687ed1b7e638a4cbf2f02089,6880607929ccf867d27bcf19,,,,,,,,,,,,,,1,,,,,,,,,,,,,,,,,,,,,,,,,,,,,,,,,,,,,,,,,,,,,,,,,,,,,,,,,86,barato,,,,,442.6657,444.4127,1,1,1.2044,,0,5,5,85,1,REAL,FAKE,,,,,,,,,,,,,,,,,
,,,,,,,,,5f78a9660c01564630e2c2c8,spanish,13 or older,"no, only English or Spanish",no,2025-07-23_00h11.01.708,empathy_intonation_perc,2024.2.4,Win32,59.88023952,5f78a9660c01564630e2c2c8,687ed1b7e638a4cbf2f02089,6880607929ccf867d27bcf19,,,,,,,,,,,,,,1,,,,,,,,,,,,,,,,,,,,,,,,,,,,,,,,,,,,,,,,,,,,,,,,,,,,,,,,,11,cenefa,,,,,444.4155,445.9466,0,0,0.992,,0,6,6,10,1,REAL,FAKE,,,,,,,,,,,,,,,,,
,,,,,,,,,5f78a9660c01564630e2c2c8,spanish,13 or older,"no, only English or Spanish",no,2025-07-23_00h11.01.708,empathy_intonation_perc,2024.2.4,Win32,59.88023952,5f78a9660c01564630e2c2c8,687ed1b7e638a4cbf2f02089,6880607929ccf867d27bcf19,,,,,,,,,,,,,,1,,,,,,,,,,,,,,,,,,,,,,,,,,,,,,,,,,,,,,,,,,,,,,,,,,,,,,,,,89,prisa,,,,,445.9489,447.9179,0,0,1.4346,,0,7,7,88,1,REAL,FAKE,,,,,,,,,,,,,,,,,
,,,,,,,,,5f78a9660c01564630e2c2c8,spanish,13 or older,"no, only English or Spanish",no,2025-07-23_00h11.01.708,empathy_intonation_perc,2024.2.4,Win32,59.88023952,5f78a9660c01564630e2c2c8,687ed1b7e638a4cbf2f02089,6880607929ccf867d27bcf19,,,,,,,,,,,,,,0,,,,,,,,,,,,,,,,,,,,,,,,,,,,,,,,,,,,,,,,,,,,,,,,,,,,,,,,,72,pemición,,,,,447.9211,449.8629,0,1,1.4072,,0,8,8,71,1,REAL,FAKE,,,,,,,,,,,,,,,,,
,,,,,,,,,5f78a9660c01564630e2c2c8,spanish,13 or older,"no, only English or Spanish",no,2025-07-23_00h11.01.708,empathy_intonation_perc,2024.2.4,Win32,59.88023952,5f78a9660c01564630e2c2c8,687ed1b7e638a4cbf2f02089,6880607929ccf867d27bcf19,,,,,,,,,,,,,,0,,,,,,,,,,,,,,,,,,,,,,,,,,,,,,,,,,,,,,,,,,,,,,,,,,,,,,,,,87,grodo,,,,,449.8649,451.7625,1,0,1.3576,,0,9,9,86,1,REAL,FAKE,,,,,,,,,,,,,,,,,
,,,,,,,,,5f78a9660c01564630e2c2c8,spanish,13 or older,"no, only English or Spanish",no,2025-07-23_00h11.01.708,empathy_intonation_perc,2024.2.4,Win32,59.88023952,5f78a9660c01564630e2c2c8,687ed1b7e638a4cbf2f02089,6880607929ccf867d27bcf19,,,,,,,,,,,,,,1,,,,,,,,,,,,,,,,,,,,,,,,,,,,,,,,,,,,,,,,,,,,,,,,,,,,,,,,,88,acantilado,,,,,451.7649,453.3512,1,1,1.0519,,0,10,10,87,1,REAL,FAKE,,,,,,,,,,,,,,,,,
,,,,,,,,,5f78a9660c01564630e2c2c8,spanish,13 or older,"no, only English or Spanish",no,2025-07-23_00h11.01.708,empathy_intonation_perc,2024.2.4,Win32,59.88023952,5f78a9660c01564630e2c2c8,687ed1b7e638a4cbf2f02089,6880607929ccf867d27bcf19,,,,,,,,,,,,,,1,,,,,,,,,,,,,,,,,,,,,,,,,,,,,,,,,,,,,,,,,,,,,,,,,,,,,,,,,6,tergiversar,,,,,453.3537,454.8838,0,0,1.0005,,0,11,11,5,1,REAL,FAKE,,,,,,,,,,,,,,,,,
,,,,,,,,,5f78a9660c01564630e2c2c8,spanish,13 or older,"no, only English or Spanish",no,2025-07-23_00h11.01.708,empathy_intonation_perc,2024.2.4,Win32,59.88023952,5f78a9660c01564630e2c2c8,687ed1b7e638a4cbf2f02089,6880607929ccf867d27bcf19,,,,,,,,,,,,,,0,,,,,,,,,,,,,,,,,,,,,,,,,,,,,,,,,,,,,,,,,,,,,,,,,,,,,,,,,30,alardio,,,,,454.8861,456.4626,0,1,1.0433,,0,12,12,29,1,REAL,FAKE,,,,,,,,,,,,,,,,,
,,,,,,,,,5f78a9660c01564630e2c2c8,spanish,13 or older,"no, only English or Spanish",no,2025-07-23_00h11.01.708,empathy_intonation_perc,2024.2.4,Win32,59.88023952,5f78a9660c01564630e2c2c8,687ed1b7e638a4cbf2f02089,6880607929ccf867d27bcf19,,,,,,,,,,,,,,1,,,,,,,,,,,,,,,,,,,,,,,,,,,,,,,,,,,,,,,,,,,,,,,,,,,,,,,,,9,hacha,,,,,456.4647,457.8793,0,0,0.8711,,0,13,13,8,1,REAL,FAKE,,,,,,,,,,,,,,,,,
,,,,,,,,,5f78a9660c01564630e2c2c8,spanish,13 or older,"no, only English or Spanish",no,2025-07-23_00h11.01.708,empathy_intonation_perc,2024.2.4,Win32,59.88023952,5f78a9660c01564630e2c2c8,687ed1b7e638a4cbf2f02089,6880607929ccf867d27bcf19,,,,,,,,,,,,,,1,,,,,,,,,,,,,,,,,,,,,,,,,,,,,,,,,,,,,,,,,,,,,,,,,,,,,,,,,64,orgulloso,,,,,457.8811,459.217,0,0,0.8009,,0,14,14,63,1,REAL,FAKE,,,,,,,,,,,,,,,,,
,,,,,,,,,5f78a9660c01564630e2c2c8,spanish,13 or older,"no, only English or Spanish",no,2025-07-23_00h11.01.708,empathy_intonation_perc,2024.2.4,Win32,59.88023952,5f78a9660c01564630e2c2c8,687ed1b7e638a4cbf2f02089,6880607929ccf867d27bcf19,,,,,,,,,,,,,,1,,,,,,,,,,,,,,,,,,,,,,,,,,,,,,,,,,,,,,,,,,,,,,,,,,,,,,,,,54,fomentar,,,,,459.2185,460.5633,0,0,0.8052,,0,15,15,53,1,REAL,FAKE,,,,,,,,,,,,,,,,,
,,,,,,,,,5f78a9660c01564630e2c2c8,spanish,13 or older,"no, only English or Spanish",no,2025-07-23_00h11.01.708,empathy_intonation_perc,2024.2.4,Win32,59.88023952,5f78a9660c01564630e2c2c8,687ed1b7e638a4cbf2f02089,6880607929ccf867d27bcf19,,,,,,,,,,,,,,1,,,,,,,,,,,,,,,,,,,,,,,,,,,,,,,,,,,,,,,,,,,,,,,,,,,,,,,,,49,ganar,,,,,460.5656,461.8823,0,0,0.7828,,0,16,16,48,1,REAL,FAKE,,,,,,,,,,,,,,,,,
,,,,,,,,,5f78a9660c01564630e2c2c8,spanish,13 or older,"no, only English or Spanish",no,2025-07-23_00h11.01.708,empathy_intonation_perc,2024.2.4,Win32,59.88023952,5f78a9660c01564630e2c2c8,687ed1b7e638a4cbf2f02089,6880607929ccf867d27bcf19,,,,,,,,,,,,,,1,,,,,,,,,,,,,,,,,,,,,,,,,,,,,,,,,,,,,,,,,,,,,,,,,,,,,,,,,28,merodear,,,,,461.8841,463.3129,0,0,0.8867,,0,17,17,27,1,REAL,FAKE,,,,,,,,,,,,,,,,,
,,,,,,,,,5f78a9660c01564630e2c2c8,spanish,13 or older,"no, only English or Spanish",no,2025-07-23_00h11.01.708,empathy_intonation_perc,2024.2.4,Win32,59.88023952,5f78a9660c01564630e2c2c8,687ed1b7e638a4cbf2f02089,6880607929ccf867d27bcf19,,,,,,,,,,,,,,1,,,,,,,,,,,,,,,,,,,,,,,,,,,,,,,,,,,,,,,,,,,,,,,,,,,,,,,,,73,hervidor,,,,,463.3151,464.6794,0,0,0.8254,,0,18,18,72,1,REAL,FAKE,,,,,,,,,,,,,,,,,
,,,,,,,,,5f78a9660c01564630e2c2c8,spanish,13 or older,"no, only English or Spanish",no,2025-07-23_00h11.01.708,empathy_intonation_perc,2024.2.4,Win32,59.88023952,5f78a9660c01564630e2c2c8,687ed1b7e638a4cbf2f02089,6880607929ccf867d27bcf19,,,,,,,,,,,,,,1,,,,,,,,,,,,,,,,,,,,,,,,,,,,,,,,,,,,,,,,,,,,,,,,,,,,,,,,,80,hormiga,,,,,464.6817,466.5469,0,0,1.3229,,0,19,19,79,1,REAL,FAKE,,,,,,,,,,,,,,,,,
,,,,,,,,,5f78a9660c01564630e2c2c8,spanish,13 or older,"no, only English or Spanish",no,2025-07-23_00h11.01.708,empathy_intonation_perc,2024.2.4,Win32,59.88023952,5f78a9660c01564630e2c2c8,687ed1b7e638a4cbf2f02089,6880607929ccf867d27bcf19,,,,,,,,,,,,,,0,,,,,,,,,,,,,,,,,,,,,,,,,,,,,,,,,,,,,,,,,,,,,,,,,,,,,,,,,79,tropaje,,,,,466.5499,469.6657,0,1,2.5816,,0,20,20,78,1,REAL,FAKE,,,,,,,,,,,,,,,,,
,,,,,,,,,5f78a9660c01564630e2c2c8,spanish,13 or older,"no, only English or Spanish",no,2025-07-23_00h11.01.708,empathy_intonation_perc,2024.2.4,Win32,59.88023952,5f78a9660c01564630e2c2c8,687ed1b7e638a4cbf2f02089,6880607929ccf867d27bcf19,,,,,,,,,,,,,,1,,,,,,,,,,,,,,,,,,,,,,,,,,,,,,,,,,,,,,,,,,,,,,,,,,,,,,,,,75,yacer,,,,,469.6682,471.1801,1,1,0.9903,,0,21,21,74,1,REAL,FAKE,,,,,,,,,,,,,,,,,
,,,,,,,,,5f78a9660c01564630e2c2c8,spanish,13 or older,"no, only English or Spanish",no,2025-07-23_00h11.01.708,empathy_intonation_perc,2024.2.4,Win32,59.88023952,5f78a9660c01564630e2c2c8,687ed1b7e638a4cbf2f02089,6880607929ccf867d27bcf19,,,,,,,,,,,,,,0,,,,,,,,,,,,,,,,,,,,,,,,,,,,,,,,,,,,,,,,,,,,,,,,,,,,,,,,,17,floroso,,,,,471.1827,472.714,0,1,0.9967,,0,22,22,16,1,REAL,FAKE,,,,,,,,,,,,,,,,,
,,,,,,,,,5f78a9660c01564630e2c2c8,spanish,13 or older,"no, only English or Spanish",no,2025-07-23_00h11.01.708,empathy_intonation_perc,2024.2.4,Win32,59.88023952,5f78a9660c01564630e2c2c8,687ed1b7e638a4cbf2f02089,6880607929ccf867d27bcf19,,,,,,,,,,,,,,1,,,,,,,,,,,,,,,,,,,,,,,,,,,,,,,,,,,,,,,,,,,,,,,,,,,,,,,,,65,bizcocho,,,,,472.7181,474.2302,0,0,0.9755,,0,23,23,64,1,REAL,FAKE,,,,,,,,,,,,,,,,,
,,,,,,,,,5f78a9660c01564630e2c2c8,spanish,13 or older,"no, only English or Spanish",no,2025-07-23_00h11.01.708,empathy_intonation_perc,2024.2.4,Win32,59.88023952,5f78a9660c01564630e2c2c8,687ed1b7e638a4cbf2f02089,6880607929ccf867d27bcf19,,,,,,,,,,,,,,0,,,,,,,,,,,,,,,,,,,,,,,,,,,,,,,,,,,,,,,,,,,,,,,,,,,,,,,,,16,abracer,,,,,474.2325,475.9802,1,0,1.207,,0,24,24,15,1,REAL,FAKE,,,,,,,,,,,,,,,,,
,,,,,,,,,5f78a9660c01564630e2c2c8,spanish,13 or older,"no, only English or Spanish",no,2025-07-23_00h11.01.708,empathy_intonation_perc,2024.2.4,Win32,59.88023952,5f78a9660c01564630e2c2c8,687ed1b7e638a4cbf2f02089,6880607929ccf867d27bcf19,,,,,,,,,,,,,,0,,,,,,,,,,,,,,,,,,,,,,,,,,,,,,,,,,,,,,,,,,,,,,,,,,,,,,,,,50,flamida,,,,,475.982,477.8513,1,0,1.3346,,0,25,25,49,1,REAL,FAKE,,,,,,,,,,,,,,,,,
,,,,,,,,,5f78a9660c01564630e2c2c8,spanish,13 or older,"no, only English or Spanish",no,2025-07-23_00h11.01.708,empathy_intonation_perc,2024.2.4,Win32,59.88023952,5f78a9660c01564630e2c2c8,687ed1b7e638a4cbf2f02089,6880607929ccf867d27bcf19,,,,,,,,,,,,,,1,,,,,,,,,,,,,,,,,,,,,,,,,,,,,,,,,,,,,,,,,,,,,,,,,,,,,,,,,25,bisagra,,,,,477.8534,479.1794,0,0,0.7934,,0,26,26,24,1,REAL,FAKE,,,,,,,,,,,,,,,,,
,,,,,,,,,5f78a9660c01564630e2c2c8,spanish,13 or older,"no, only English or Spanish",no,2025-07-23_00h11.01.708,empathy_intonation_perc,2024.2.4,Win32,59.88023952,5f78a9660c01564630e2c2c8,687ed1b7e638a4cbf2f02089,6880607929ccf867d27bcf19,,,,,,,,,,,,,,0,,,,,,,,,,,,,,,,,,,,,,,,,,,,,,,,,,,,,,,,,,,,,,,,,,,,,,,,,58,plaudir,,,,,479.1807,480.6988,0,1,0.9815,,0,27,27,57,1,REAL,FAKE,,,,,,,,,,,,,,,,,
,,,,,,,,,5f78a9660c01564630e2c2c8,spanish,13 or older,"no, only English or Spanish",no,2025-07-23_00h11.01.708,empathy_intonation_perc,2024.2.4,Win32,59.88023952,5f78a9660c01564630e2c2c8,687ed1b7e638a4cbf2f02089,6880607929ccf867d27bcf19,,,,,,,,,,,,,,1,,,,,,,,,,,,,,,,,,,,,,,,,,,,,,,,,,,,,,,,,,,,,,,,,,,,,,,,,36,loro,,,,,480.7011,482.1299,0,0,0.8935,,0,28,28,35,1,REAL,FAKE,,,,,,,,,,,,,,,,,
,,,,,,,,,5f78a9660c01564630e2c2c8,spanish,13 or older,"no, only English or Spanish",no,2025-07-23_00h11.01.708,empathy_intonation_perc,2024.2.4,Win32,59.88023952,5f78a9660c01564630e2c2c8,687ed1b7e638a4cbf2f02089,6880607929ccf867d27bcf19,,,,,,,,,,,,,,0,,,,,,,,,,,,,,,,,,,,,,,,,,,,,,,,,,,,,,,,,,,,,,,,,,,,,,,,,70,temblo,,,,,482.1325,483.8298,0,1,1.1541,,0,29,29,69,1,REAL,FAKE,,,,,,,,,,,,,,,,,
,,,,,,,,,5f78a9660c01564630e2c2c8,spanish,13 or older,"no, only English or Spanish",no,2025-07-23_00h11.01.708,empathy_intonation_perc,2024.2.4,Win32,59.88023952,5f78a9660c01564630e2c2c8,687ed1b7e638a4cbf2f02089,6880607929ccf867d27bcf19,,,,,,,,,,,,,,1,,,,,,,,,,,,,,,,,,,,,,,,,,,,,,,,,,,,,,,,,,,,,,,,,,,,,,,,,77,tiburón,,,,,483.8323,485.1796,0,0,0.8123,,0,30,30,76,1,REAL,FAKE,,,,,,,,,,,,,,,,,
,,,,,,,,,5f78a9660c01564630e2c2c8,spanish,13 or older,"no, only English or Spanish",no,2025-07-23_00h11.01.708,empathy_intonation_perc,2024.2.4,Win32,59.88023952,5f78a9660c01564630e2c2c8,687ed1b7e638a4cbf2f02089,6880607929ccf867d27bcf19,,,,,,,,,,,,,,0,,,,,,,,,,,,,,,,,,,,,,,,,,,,,,,,,,,,,,,,,,,,,,,,,,,,,,,,,42,cadallo,,,,,485.1817,486.7295,0,1,1.0044,,0,31,31,41,1,REAL,FAKE,,,,,,,,,,,,,,,,,
,,,,,,,,,5f78a9660c01564630e2c2c8,spanish,13 or older,"no, only English or Spanish",no,2025-07-23_00h11.01.708,empathy_intonation_perc,2024.2.4,Win32,59.88023952,5f78a9660c01564630e2c2c8,687ed1b7e638a4cbf2f02089,6880607929ccf867d27bcf19,,,,,,,,,,,,,,1,,,,,,,,,,,,,,,,,,,,,,,,,,,,,,,,,,,,,,,,,,,,,,,,,,,,,,,,,90,clavel,,,,,486.7318,488.2523,0,0,0.9858,,0,32,32,89,1,REAL,FAKE,,,,,,,,,,,,,,,,,
,,,,,,,,,5f78a9660c01564630e2c2c8,spanish,13 or older,"no, only English or Spanish",no,2025-07-23_00h11.01.708,empathy_intonation_perc,2024.2.4,Win32,59.88023952,5f78a9660c01564630e2c2c8,687ed1b7e638a4cbf2f02089,6880607929ccf867d27bcf19,,,,,,,,,,,,,,0,,,,,,,,,,,,,,,,,,,,,,,,,,,,,,,,,,,,,,,,,,,,,,,,,,,,,,,,,1,terzo,,,,,488.2539,489.7139,1,0,0.9231,,0,33,33,0,1,REAL,FAKE,,,,,,,,,,,,,,,,,
,,,,,,,,,5f78a9660c01564630e2c2c8,spanish,13 or older,"no, only English or Spanish",no,2025-07-23_00h11.01.708,empathy_intonation_perc,2024.2.4,Win32,59.88023952,5f78a9660c01564630e2c2c8,687ed1b7e638a4cbf2f02089,6880607929ccf867d27bcf19,,,,,,,,,,,,,,1,,,,,,,,,,,,,,,,,,,,,,,,,,,,,,,,,,,,,,,,,,,,,,,,,,,,,,,,,62,flaco,,,,,489.7155,491.1184,0,0,0.8678,,0,34,34,61,1,REAL,FAKE,,,,,,,,,,,,,,,,,
,,,,,,,,,5f78a9660c01564630e2c2c8,spanish,13 or older,"no, only English or Spanish",no,2025-07-23_00h11.01.708,empathy_intonation_perc,2024.2.4,Win32,59.88023952,5f78a9660c01564630e2c2c8,687ed1b7e638a4cbf2f02089,6880607929ccf867d27bcf19,,,,,,,,,,,,,,1,,,,,,,,,,,,,,,,,,,,,,,,,,,,,,,,,,,,,,,,,,,,,,,,,,,,,,,,,67,cabello,,,,,491.1204,492.6645,0,0,1.0054,,0,35,35,66,1,REAL,FAKE,,,,,,,,,,,,,,,,,
,,,,,,,,,5f78a9660c01564630e2c2c8,spanish,13 or older,"no, only English or Spanish",no,2025-07-23_00h11.01.708,empathy_intonation_perc,2024.2.4,Win32,59.88023952,5f78a9660c01564630e2c2c8,687ed1b7e638a4cbf2f02089,6880607929ccf867d27bcf19,,,,,,,,,,,,,,1,,,,,,,,,,,,,,,,,,,,,,,,,,,,,,,,,,,,,,,,,,,,,,,,,,,,,,,,,71,polvoriento,,,,,492.6671,493.964,0,0,0.7523,,0,36,36,70,1,REAL,FAKE,,,,,,,,,,,,,,,,,
,,,,,,,,,5f78a9660c01564630e2c2c8,spanish,13 or older,"no, only English or Spanish",no,2025-07-23_00h11.01.708,empathy_intonation_perc,2024.2.4,Win32,59.88023952,5f78a9660c01564630e2c2c8,687ed1b7e638a4cbf2f02089,6880607929ccf867d27bcf19,,,,,,,,,,,,,,1,,,,,,,,,,,,,,,,,,,,,,,,,,,,,,,,,,,,,,,,,,,,,,,,,,,,,,,,,61,seda,,,,,493.9659,495.281,1,1,0.7711,,0,37,37,60,1,REAL,FAKE,,,,,,,,,,,,,,,,,
,,,,,,,,,5f78a9660c01564630e2c2c8,spanish,13 or older,"no, only English or Spanish",no,2025-07-23_00h11.01.708,empathy_intonation_perc,2024.2.4,Win32,59.88023952,5f78a9660c01564630e2c2c8,687ed1b7e638a4cbf2f02089,6880607929ccf867d27bcf19,,,,,,,,,,,,,,1,,,,,,,,,,,,,,,,,,,,,,,,,,,,,,,,,,,,,,,,,,,,,,,,,,,,,,,,,60,matar,,,,,495.2841,496.6968,1,1,0.8707,,0,38,38,59,1,REAL,FAKE,,,,,,,,,,,,,,,,,
,,,,,,,,,5f78a9660c01564630e2c2c8,spanish,13 or older,"no, only English or Spanish",no,2025-07-23_00h11.01.708,empathy_intonation_perc,2024.2.4,Win32,59.88023952,5f78a9660c01564630e2c2c8,687ed1b7e638a4cbf2f02089,6880607929ccf867d27bcf19,,,,,,,,,,,,,,0,,,,,,,,,,,,,,,,,,,,,,,,,,,,,,,,,,,,,,,,,,,,,,,,,,,,,,,,,4,batillón,,,,,496.699,497.8802,0,1,0.6403,,0,39,39,3,1,REAL,FAKE,,,,,,,,,,,,,,,,,
,,,,,,,,,5f78a9660c01564630e2c2c8,spanish,13 or older,"no, only English or Spanish",no,2025-07-23_00h11.01.708,empathy_intonation_perc,2024.2.4,Win32,59.88023952,5f78a9660c01564630e2c2c8,687ed1b7e638a4cbf2f02089,6880607929ccf867d27bcf19,,,,,,,,,,,,,,0,,,,,,,,,,,,,,,,,,,,,,,,,,,,,,,,,,,,,,,,,,,,,,,,,,,,,,,,,82,empirador,,,,,497.8824,499.2312,1,0,0.8038,,0,40,40,81,1,REAL,FAKE,,,,,,,,,,,,,,,,,
,,,,,,,,,5f78a9660c01564630e2c2c8,spanish,13 or older,"no, only English or Spanish",no,2025-07-23_00h11.01.708,empathy_intonation_perc,2024.2.4,Win32,59.88023952,5f78a9660c01564630e2c2c8,687ed1b7e638a4cbf2f02089,6880607929ccf867d27bcf19,,,,,,,,,,,,,,1,,,,,,,,,,,,,,,,,,,,,,,,,,,,,,,,,,,,,,,,,,,,,,,,,,,,,,,,,48,ladrón,,,,,499.234,500.6802,0,0,0.9055,,0,41,41,47,1,REAL,FAKE,,,,,,,,,,,,,,,,,
,,,,,,,,,5f78a9660c01564630e2c2c8,spanish,13 or older,"no, only English or Spanish",no,2025-07-23_00h11.01.708,empathy_intonation_perc,2024.2.4,Win32,59.88023952,5f78a9660c01564630e2c2c8,687ed1b7e638a4cbf2f02089,6880607929ccf867d27bcf19,,,,,,,,,,,,,,1,,,,,,,,,,,,,,,,,,,,,,,,,,,,,,,,,,,,,,,,,,,,,,,,,,,,,,,,,15,regar,,,,,500.6824,502.1639,0,0,0.9451,,0,42,42,14,1,REAL,FAKE,,,,,,,,,,,,,,,,,
,,,,,,,,,5f78a9660c01564630e2c2c8,spanish,13 or older,"no, only English or Spanish",no,2025-07-23_00h11.01.708,empathy_intonation_perc,2024.2.4,Win32,59.88023952,5f78a9660c01564630e2c2c8,687ed1b7e638a4cbf2f02089,6880607929ccf867d27bcf19,,,,,,,,,,,,,,0,,,,,,,,,,,,,,,,,,,,,,,,,,,,,,,,,,,,,,,,,,,,,,,,,,,,,,,,,63,esposante,,,,,502.1654,503.8306,1,0,1.1198,,0,43,43,62,1,REAL,FAKE,,,,,,,,,,,,,,,,,
,,,,,,,,,5f78a9660c01564630e2c2c8,spanish,13 or older,"no, only English or Spanish",no,2025-07-23_00h11.01.708,empathy_intonation_perc,2024.2.4,Win32,59.88023952,5f78a9660c01564630e2c2c8,687ed1b7e638a4cbf2f02089,6880607929ccf867d27bcf19,,,,,,,,,,,,,,1,,,,,,,,,,,,,,,,,,,,,,,,,,,,,,,,,,,,,,,,,,,,,,,,,,,,,,,,,55,nevar,,,,,503.8331,505.1016,0,0,0.7339,,0,44,44,54,1,REAL,FAKE,,,,,,,,,,,,,,,,,
,,,,,,,,,5f78a9660c01564630e2c2c8,spanish,13 or older,"no, only English or Spanish",no,2025-07-23_00h11.01.708,empathy_intonation_perc,2024.2.4,Win32,59.88023952,5f78a9660c01564630e2c2c8,687ed1b7e638a4cbf2f02089,6880607929ccf867d27bcf19,,,,,,,,,,,,,,1,,,,,,,,,,,,,,,,,,,,,,,,,,,,,,,,,,,,,,,,,,,,,,,,,,,,,,,,,76,atar,,,,,505.1032,506.4348,0,0,0.8006,,0,45,45,75,1,REAL,FAKE,,,,,,,,,,,,,,,,,
,,,,,,,,,5f78a9660c01564630e2c2c8,spanish,13 or older,"no, only English or Spanish",no,2025-07-23_00h11.01.708,empathy_intonation_perc,2024.2.4,Win32,59.88023952,5f78a9660c01564630e2c2c8,687ed1b7e638a4cbf2f02089,6880607929ccf867d27bcf19,,,,,,,,,,,,,,0,,,,,,,,,,,,,,,,,,,,,,,,,,,,,,,,,,,,,,,,,,,,,,,,,,,,,,,,,53,vegada,,,,,506.4361,507.8014,0,1,0.8343,,0,46,46,52,1,REAL,FAKE,,,,,,,,,,,,,,,,,
,,,,,,,,,5f78a9660c01564630e2c2c8,spanish,13 or older,"no, only English or Spanish",no,2025-07-23_00h11.01.708,empathy_intonation_perc,2024.2.4,Win32,59.88023952,5f78a9660c01564630e2c2c8,687ed1b7e638a4cbf2f02089,6880607929ccf867d27bcf19,,,,,,,,,,,,,,1,,,,,,,,,,,,,,,,,,,,,,,,,,,,,,,,,,,,,,,,,,,,,,,,,,,,,,,,,40,alfombra,,,,,507.8032,509.8816,1,1,1.5476,,0,47,47,39,1,REAL,FAKE,,,,,,,,,,,,,,,,,
,,,,,,,,,5f78a9660c01564630e2c2c8,spanish,13 or older,"no, only English or Spanish",no,2025-07-23_00h11.01.708,empathy_intonation_perc,2024.2.4,Win32,59.88023952,5f78a9660c01564630e2c2c8,687ed1b7e638a4cbf2f02089,6880607929ccf867d27bcf19,,,,,,,,,,,,,,0,,,,,,,,,,,,,,,,,,,,,,,,,,,,,,,,,,,,,,,,,,,,,,,,,,,,,,,,,8,cadeña,,,,,509.8831,511.3017,1,0,0.9006,,0,48,48,7,1,REAL,FAKE,,,,,,,,,,,,,,,,,
,,,,,,,,,5f78a9660c01564630e2c2c8,spanish,13 or older,"no, only English or Spanish",no,2025-07-23_00h11.01.708,empathy_intonation_perc,2024.2.4,Win32,59.88023952,5f78a9660c01564630e2c2c8,687ed1b7e638a4cbf2f02089,6880607929ccf867d27bcf19,,,,,,,,,,,,,,0,,,,,,,,,,,,,,,,,,,,,,,,,,,,,,,,,,,,,,,,,,,,,,,,,,,,,,,,,74,cintro,,,,,511.3035,512.7193,1,0,0.8844,,0,49,49,73,1,REAL,FAKE,,,,,,,,,,,,,,,,,
,,,,,,,,,5f78a9660c01564630e2c2c8,spanish,13 or older,"no, only English or Spanish",no,2025-07-23_00h11.01.708,empathy_intonation_perc,2024.2.4,Win32,59.88023952,5f78a9660c01564630e2c2c8,687ed1b7e638a4cbf2f02089,6880607929ccf867d27bcf19,,,,,,,,,,,,,,1,,,,,,,,,,,,,,,,,,,,,,,,,,,,,,,,,,,,,,,,,,,,,,,,,,,,,,,,,41,rebuscar,,,,,512.7221,514.7636,1,1,1.5072,,0,50,50,40,1,REAL,FAKE,,,,,,,,,,,,,,,,,
,,,,,,,,,5f78a9660c01564630e2c2c8,spanish,13 or older,"no, only English or Spanish",no,2025-07-23_00h11.01.708,empathy_intonation_perc,2024.2.4,Win32,59.88023952,5f78a9660c01564630e2c2c8,687ed1b7e638a4cbf2f02089,6880607929ccf867d27bcf19,,,,,,,,,,,,,,1,,,,,,,,,,,,,,,,,,,,,,,,,,,,,,,,,,,,,,,,,,,,,,,,,,,,,,,,,14,yunque,,,,,514.7651,516.031,0,0,0.7212,,0,51,51,13,1,REAL,FAKE,,,,,,,,,,,,,,,,,
,,,,,,,,,5f78a9660c01564630e2c2c8,spanish,13 or older,"no, only English or Spanish",no,2025-07-23_00h11.01.708,empathy_intonation_perc,2024.2.4,Win32,59.88023952,5f78a9660c01564630e2c2c8,687ed1b7e638a4cbf2f02089,6880607929ccf867d27bcf19,,,,,,,,,,,,,,1,,,,,,,,,,,,,,,,,,,,,,,,,,,,,,,,,,,,,,,,,,,,,,,,,,,,,,,,,39,torpe,,,,,516.0332,517.4511,0,0,0.8836,,0,52,52,38,1,REAL,FAKE,,,,,,,,,,,,,,,,,
,,,,,,,,,5f78a9660c01564630e2c2c8,spanish,13 or older,"no, only English or Spanish",no,2025-07-23_00h11.01.708,empathy_intonation_perc,2024.2.4,Win32,59.88023952,5f78a9660c01564630e2c2c8,687ed1b7e638a4cbf2f02089,6880607929ccf867d27bcf19,,,,,,,,,,,,,,1,,,,,,,,,,,,,,,,,,,,,,,,,,,,,,,,,,,,,,,,,,,,,,,,,,,,,,,,,59,besar,,,,,517.4521,518.8531,0,0,0.8686,,0,53,53,58,1,REAL,FAKE,,,,,,,,,,,,,,,,,
,,,,,,,,,5f78a9660c01564630e2c2c8,spanish,13 or older,"no, only English or Spanish",no,2025-07-23_00h11.01.708,empathy_intonation_perc,2024.2.4,Win32,59.88023952,5f78a9660c01564630e2c2c8,687ed1b7e638a4cbf2f02089,6880607929ccf867d27bcf19,,,,,,,,,,,,,,1,,,,,,,,,,,,,,,,,,,,,,,,,,,,,,,,,,,,,,,,,,,,,,,,,,,,,,,,,83,guante,,,,,518.8555,520.1649,0,0,0.7706,,0,54,54,82,1,REAL,FAKE,,,,,,,,,,,,,,,,,
,,,,,,,,,5f78a9660c01564630e2c2c8,spanish,13 or older,"no, only English or Spanish",no,2025-07-23_00h11.01.708,empathy_intonation_perc,2024.2.4,Win32,59.88023952,5f78a9660c01564630e2c2c8,687ed1b7e638a4cbf2f02089,6880607929ccf867d27bcf19,,,,,,,,,,,,,,0,,,,,,,,,,,,,,,,,,,,,,,,,,,,,,,,,,,,,,,,,,,,,,,,,,,,,,,,,35,rompido,,,,,520.1673,521.3812,0,1,0.6885,,0,55,55,34,1,REAL,FAKE,,,,,,,,,,,,,,,,,
,,,,,,,,,5f78a9660c01564630e2c2c8,spanish,13 or older,"no, only English or Spanish",no,2025-07-23_00h11.01.708,empathy_intonation_perc,2024.2.4,Win32,59.88023952,5f78a9660c01564630e2c2c8,687ed1b7e638a4cbf2f02089,6880607929ccf867d27bcf19,,,,,,,,,,,,,,1,,,,,,,,,,,,,,,,,,,,,,,,,,,,,,,,,,,,,,,,,,,,,,,,,,,,,,,,,2,pellizcar,,,,,521.384,522.501,0,0,0.5836,,0,56,56,1,1,REAL,FAKE,,,,,,,,,,,,,,,,,
,,,,,,,,,5f78a9660c01564630e2c2c8,spanish,13 or older,"no, only English or Spanish",no,2025-07-23_00h11.01.708,empathy_intonation_perc,2024.2.4,Win32,59.88023952,5f78a9660c01564630e2c2c8,687ed1b7e638a4cbf2f02089,6880607929ccf867d27bcf19,,,,,,,,,,,,,,1,,,,,,,,,,,,,,,,,,,,,,,,,,,,,,,,,,,,,,,,,,,,,,,,,,,,,,,,,22,lacayo,,,,,522.5034,524.3306,0,0,1.287,,0,57,57,21,1,REAL,FAKE,,,,,,,,,,,,,,,,,
,,,,,,,,,5f78a9660c01564630e2c2c8,spanish,13 or older,"no, only English or Spanish",no,2025-07-23_00h11.01.708,empathy_intonation_perc,2024.2.4,Win32,59.88023952,5f78a9660c01564630e2c2c8,687ed1b7e638a4cbf2f02089,6880607929ccf867d27bcf19,,,,,,,,,,,,,,0,,,,,,,,,,,,,,,,,,,,,,,,,,,,,,,,,,,,,,,,,,,,,,,,,,,,,,,,,92,click the 0 key.,,,,,524.332,526.0643,0,1,1.1862,,0,58,58,91,1,REAL,FAKE,,,,,,,,,,,,,,,,,
,,,,,,,,,5f78a9660c01564630e2c2c8,spanish,13 or older,"no, only English or Spanish",no,2025-07-23_00h11.01.708,empathy_intonation_perc,2024.2.4,Win32,59.88023952,5f78a9660c01564630e2c2c8,687ed1b7e638a4cbf2f02089,6880607929ccf867d27bcf19,,,,,,,,,,,,,,1,,,,,,,,,,,,,,,,,,,,,,,,,,,,,,,,,,,,,,,,,,,,,,,,,,,,,,,,,31,pandilla,,,,,526.0664,527.2148,0,0,0.6044,,0,59,59,30,1,REAL,FAKE,,,,,,,,,,,,,,,,,
,,,,,,,,,5f78a9660c01564630e2c2c8,spanish,13 or older,"no, only English or Spanish",no,2025-07-23_00h11.01.708,empathy_intonation_perc,2024.2.4,Win32,59.88023952,5f78a9660c01564630e2c2c8,687ed1b7e638a4cbf2f02089,6880607929ccf867d27bcf19,,,,,,,,,,,,,,0,,,,,,,,,,,,,,,,,,,,,,,,,,,,,,,,,,,,,,,,,,,,,,,,,,,,,,,,,47,cartinar,,,,,527.2174,528.565,0,1,0.8087,,0,60,60,46,1,REAL,FAKE,,,,,,,,,,,,,,,,,
,,,,,,,,,5f78a9660c01564630e2c2c8,spanish,13 or older,"no, only English or Spanish",no,2025-07-23_00h11.01.708,empathy_intonation_perc,2024.2.4,Win32,59.88023952,5f78a9660c01564630e2c2c8,687ed1b7e638a4cbf2f02089,6880607929ccf867d27bcf19,,,,,,,,,,,,,,1,,,,,,,,,,,,,,,,,,,,,,,,,,,,,,,,,,,,,,,,,,,,,,,,,,,,,,,,,12,asesinato,,,,,528.5664,529.9154,0,0,0.8254,,0,61,61,11,1,REAL,FAKE,,,,,,,,,,,,,,,,,
,,,,,,,,,5f78a9660c01564630e2c2c8,spanish,13 or older,"no, only English or Spanish",no,2025-07-23_00h11.01.708,empathy_intonation_perc,2024.2.4,Win32,59.88023952,5f78a9660c01564630e2c2c8,687ed1b7e638a4cbf2f02089,6880607929ccf867d27bcf19,,,,,,,,,,,,,,0,,,,,,,,,,,,,,,,,,,,,,,,,,,,,,,,,,,,,,,,,,,,,,,,,,,,,,,,,21,capillo,,,,,529.9178,531.1852,0,1,0.7345,,0,62,62,20,1,REAL,FAKE,,,,,,,,,,,,,,,,,
,,,,,,,,,5f78a9660c01564630e2c2c8,spanish,13 or older,"no, only English or Spanish",no,2025-07-23_00h11.01.708,empathy_intonation_perc,2024.2.4,Win32,59.88023952,5f78a9660c01564630e2c2c8,687ed1b7e638a4cbf2f02089,6880607929ccf867d27bcf19,,,,,,,,,,,,,,0,,,,,,,,,,,,,,,,,,,,,,,,,,,,,,,,,,,,,,,,,,,,,,,,,,,,,,,,,33,pauca,,,,,531.1872,532.4482,0,1,0.7192,,0,63,63,32,1,REAL,FAKE,,,,,,,,,,,,,,,,,
,,,,,,,,,5f78a9660c01564630e2c2c8,spanish,13 or older,"no, only English or Spanish",no,2025-07-23_00h11.01.708,empathy_intonation_perc,2024.2.4,Win32,59.88023952,5f78a9660c01564630e2c2c8,687ed1b7e638a4cbf2f02089,6880607929ccf867d27bcf19,,,,,,,,,,,,,,1,,,,,,,,,,,,,,,,,,,,,,,,,,,,,,,,,,,,,,,,,,,,,,,,,,,,,,,,,81,pozo,,,,,532.4496,533.5864,0,0,0.6018,,0,64,64,80,1,REAL,FAKE,,,,,,,,,,,,,,,,,
,,,,,,,,,5f78a9660c01564630e2c2c8,spanish,13 or older,"no, only English or Spanish",no,2025-07-23_00h11.01.708,empathy_intonation_perc,2024.2.4,Win32,59.88023952,5f78a9660c01564630e2c2c8,687ed1b7e638a4cbf2f02089,6880607929ccf867d27bcf19,,,,,,,,,,,,,,1,,,,,,,,,,,,,,,,,,,,,,,,,,,,,,,,,,,,,,,,,,,,,,,,,,,,,,,,,46,martillo,,,,,533.5886,534.9155,0,0,0.7908,,0,65,65,45,1,REAL,FAKE,,,,,,,,,,,,,,,,,
,,,,,,,,,5f78a9660c01564630e2c2c8,spanish,13 or older,"no, only English or Spanish",no,2025-07-23_00h11.01.708,empathy_intonation_perc,2024.2.4,Win32,59.88023952,5f78a9660c01564630e2c2c8,687ed1b7e638a4cbf2f02089,6880607929ccf867d27bcf19,,,,,,,,,,,,,,1,,,,,,,,,,,,,,,,,,,,,,,,,,,,,,,,,,,,,,,,,,,,,,,,,,,,,,,,,78,frondoso,,,,,534.9179,536.0989,0,0,0.645,,0,66,66,77,1,REAL,FAKE,,,,,,,,,,,,,,,,,
,,,,,,,,,5f78a9660c01564630e2c2c8,spanish,13 or older,"no, only English or Spanish",no,2025-07-23_00h11.01.708,empathy_intonation_perc,2024.2.4,Win32,59.88023952,5f78a9660c01564630e2c2c8,687ed1b7e638a4cbf2f02089,6880607929ccf867d27bcf19,,,,,,,,,,,,,,0,,,,,,,,,,,,,,,,,,,,,,,,,,,,,,,,,,,,,,,,,,,,,,,,,,,,,,,,,18,arsa,,,,,536.1017,537.2483,0,1,0.6072,,0,67,67,17,1,REAL,FAKE,,,,,,,,,,,,,,,,,
,,,,,,,,,5f78a9660c01564630e2c2c8,spanish,13 or older,"no, only English or Spanish",no,2025-07-23_00h11.01.708,empathy_intonation_perc,2024.2.4,Win32,59.88023952,5f78a9660c01564630e2c2c8,687ed1b7e638a4cbf2f02089,6880607929ccf867d27bcf19,,,,,,,,,,,,,,1,,,,,,,,,,,,,,,,,,,,,,,,,,,,,,,,,,,,,,,,,,,,,,,,,,,,,,,,,7,pésimo,,,,,537.2501,538.7145,0,0,0.9192,,0,68,68,6,1,REAL,FAKE,,,,,,,,,,,,,,,,,
,,,,,,,,,5f78a9660c01564630e2c2c8,spanish,13 or older,"no, only English or Spanish",no,2025-07-23_00h11.01.708,empathy_intonation_perc,2024.2.4,Win32,59.88023952,5f78a9660c01564630e2c2c8,687ed1b7e638a4cbf2f02089,6880607929ccf867d27bcf19,,,,,,,,,,,,,,1,,,,,,,,,,,,,,,,,,,,,,,,,,,,,,,,,,,,,,,,,,,,,,,,,,,,,,,,,26,secuestro,,,,,538.7167,540.5652,1,1,1.3092,,0,69,69,25,1,REAL,FAKE,,,,,,,,,,,,,,,,,
,,,,,,,,,5f78a9660c01564630e2c2c8,spanish,13 or older,"no, only English or Spanish",no,2025-07-23_00h11.01.708,empathy_intonation_perc,2024.2.4,Win32,59.88023952,5f78a9660c01564630e2c2c8,687ed1b7e638a4cbf2f02089,6880607929ccf867d27bcf19,,,,,,,,,,,,,,1,,,,,,,,,,,,,,,,,,,,,,,,,,,,,,,,,,,,,,,,,,,,,,,,,,,,,,,,,34,aviso,,,,,540.5682,541.9022,1,1,0.8008,,0,70,70,33,1,REAL,FAKE,,,,,,,,,,,,,,,,,
,,,,,,,,,5f78a9660c01564630e2c2c8,spanish,13 or older,"no, only English or Spanish",no,2025-07-23_00h11.01.708,empathy_intonation_perc,2024.2.4,Win32,59.88023952,5f78a9660c01564630e2c2c8,687ed1b7e638a4cbf2f02089,6880607929ccf867d27bcf19,,,,,,,,,,,,,,0,,,,,,,,,,,,,,,,,,,,,,,,,,,,,,,,,,,,,,,,,,,,,,,,,,,,,,,,,23,lampera,,,,,541.9034,543.4856,1,0,1.051,,0,71,71,22,1,REAL,FAKE,,,,,,,,,,,,,,,,,
,,,,,,,,,5f78a9660c01564630e2c2c8,spanish,13 or older,"no, only English or Spanish",no,2025-07-23_00h11.01.708,empathy_intonation_perc,2024.2.4,Win32,59.88023952,5f78a9660c01564630e2c2c8,687ed1b7e638a4cbf2f02089,6880607929ccf867d27bcf19,,,,,,,,,,,,,,0,,,,,,,,,,,,,,,,,,,,,,,,,,,,,,,,,,,,,,,,,,,,,,,,,,,,,,,,,32,fatacidad,,,,,543.4869,544.7983,0,1,0.7696,,0,72,72,31,1,REAL,FAKE,,,,,,,,,,,,,,,,,
,,,,,,,,,5f78a9660c01564630e2c2c8,spanish,13 or older,"no, only English or Spanish",no,2025-07-23_00h11.01.708,empathy_intonation_perc,2024.2.4,Win32,59.88023952,5f78a9660c01564630e2c2c8,687ed1b7e638a4cbf2f02089,6880607929ccf867d27bcf19,,,,,,,,,,,,,,0,,,,,,,,,,,,,,,,,,,,,,,,,,,,,,,,,,,,,,,,,,,,,,,,,,,,,,,,,29,decar,,,,,544.8001,546.1146,1,0,0.7721,,0,73,73,28,1,REAL,FAKE,,,,,,,,,,,,,,,,,
,,,,,,,,,5f78a9660c01564630e2c2c8,spanish,13 or older,"no, only English or Spanish",no,2025-07-23_00h11.01.708,empathy_intonation_perc,2024.2.4,Win32,59.88023952,5f78a9660c01564630e2c2c8,687ed1b7e638a4cbf2f02089,6880607929ccf867d27bcf19,,,,,,,,,,,,,,1,,,,,,,,,,,,,,,,,,,,,,,,,,,,,,,,,,,,,,,,,,,,,,,,,,,,,,,,,45,jilguero,,,,,546.1169,547.4145,0,0,0.753,,0,74,74,44,1,REAL,FAKE,,,,,,,,,,,,,,,,,
,,,,,,,,,5f78a9660c01564630e2c2c8,spanish,13 or older,"no, only English or Spanish",no,2025-07-23_00h11.01.708,empathy_intonation_perc,2024.2.4,Win32,59.88023952,5f78a9660c01564630e2c2c8,687ed1b7e638a4cbf2f02089,6880607929ccf867d27bcf19,,,,,,,,,,,,,,1,,,,,,,,,,,,,,,,,,,,,,,,,,,,,,,,,,,,,,,,,,,,,,,,,,,,,,,,,38,estornudar,,,,,547.4168,548.5646,0,0,0.6059,,0,75,75,37,1,REAL,FAKE,,,,,,,,,,,,,,,,,
,,,,,,,,,5f78a9660c01564630e2c2c8,spanish,13 or older,"no, only English or Spanish",no,2025-07-23_00h11.01.708,empathy_intonation_perc,2024.2.4,Win32,59.88023952,5f78a9660c01564630e2c2c8,687ed1b7e638a4cbf2f02089,6880607929ccf867d27bcf19,,,,,,,,,,,,,,1,,,,,,,,,,,,,,,,,,,,,,,,,,,,,,,,,,,,,,,,,,,,,,,,,,,,,,,,,44,cuchara,,,,,548.5666,549.6813,0,0,0.5842,,0,76,76,43,1,REAL,FAKE,,,,,,,,,,,,,,,,,
,,,,,,,,,5f78a9660c01564630e2c2c8,spanish,13 or older,"no, only English or Spanish",no,2025-07-23_00h11.01.708,empathy_intonation_perc,2024.2.4,Win32,59.88023952,5f78a9660c01564630e2c2c8,687ed1b7e638a4cbf2f02089,6880607929ccf867d27bcf19,,,,,,,,,,,,,,1,,,,,,,,,,,,,,,,,,,,,,,,,,,,,,,,,,,,,,,,,,,,,,,,,,,,,,,,,51,candado,,,,,549.6826,551.3204,1,1,1.118,,0,77,77,50,1,REAL,FAKE,,,,,,,,,,,,,,,,,
,,,,,,,,,5f78a9660c01564630e2c2c8,spanish,13 or older,"no, only English or Spanish",no,2025-07-23_00h11.01.708,empathy_intonation_perc,2024.2.4,Win32,59.88023952,5f78a9660c01564630e2c2c8,687ed1b7e638a4cbf2f02089,6880607929ccf867d27bcf19,,,,,,,,,,,,,,1,,,,,,,,,,,,,,,,,,,,,,,,,,,,,,,,,,,,,,,,,,,,,,,,,,,,,,,,,57,tacaño,,,,,551.3222,552.5985,0,0,0.7454,,0,78,78,56,1,REAL,FAKE,,,,,,,,,,,,,,,,,
,,,,,,,,,5f78a9660c01564630e2c2c8,spanish,13 or older,"no, only English or Spanish",no,2025-07-23_00h11.01.708,empathy_intonation_perc,2024.2.4,Win32,59.88023952,5f78a9660c01564630e2c2c8,687ed1b7e638a4cbf2f02089,6880607929ccf867d27bcf19,,,,,,,,,,,,,,0,,,,,,,,,,,,,,,,,,,,,,,,,,,,,,,,,,,,,,,,,,,,,,,,,,,,,,,,,19,brecedad,,,,,552.6014,553.7484,0,1,0.606,,0,79,79,18,1,REAL,FAKE,,,,,,,,,,,,,,,,,
,,,,,,,,,5f78a9660c01564630e2c2c8,spanish,13 or older,"no, only English or Spanish",no,2025-07-23_00h11.01.708,empathy_intonation_perc,2024.2.4,Win32,59.88023952,5f78a9660c01564630e2c2c8,687ed1b7e638a4cbf2f02089,6880607929ccf867d27bcf19,,,,,,,,,,,,,,1,,,,,,,,,,,,,,,,,,,,,,,,,,,,,,,,,,,,,,,,,,,,,,,,,,,,,,,,,68,alegre,,,,,553.751,554.9144,0,0,0.6182,,0,80,80,67,1,REAL,FAKE,,,,,,,,,,,,,,,,,
,,,,,,,,,5f78a9660c01564630e2c2c8,spanish,13 or older,"no, only English or Spanish",no,2025-07-23_00h11.01.708,empathy_intonation_perc,2024.2.4,Win32,59.88023952,5f78a9660c01564630e2c2c8,687ed1b7e638a4cbf2f02089,6880607929ccf867d27bcf19,,,,,,,,,,,,,,1,,,,,,,,,,,,,,,,,,,,,,,,,,,,,,,,,,,,,,,,,,,,,,,,,,,,,,,,,24,látigo,,,,,554.9161,556.1986,0,0,0.7381,,0,81,81,23,1,REAL,FAKE,,,,,,,,,,,,,,,,,
,,,,,,,,,5f78a9660c01564630e2c2c8,spanish,13 or older,"no, only English or Spanish",no,2025-07-23_00h11.01.708,empathy_intonation_perc,2024.2.4,Win32,59.88023952,5f78a9660c01564630e2c2c8,687ed1b7e638a4cbf2f02089,6880607929ccf867d27bcf19,,,,,,,,,,,,,,1,,,,,,,,,,,,,,,,,,,,,,,,,,,,,,,,,,,,,,,,,,,,,,,,,,,,,,,,,85,laúd,,,,,556.2017,557.3988,0,0,0.6586,,0,82,82,84,1,REAL,FAKE,,,,,,,,,,,,,,,,,
,,,,,,,,,5f78a9660c01564630e2c2c8,spanish,13 or older,"no, only English or Spanish",no,2025-07-23_00h11.01.708,empathy_intonation_perc,2024.2.4,Win32,59.88023952,5f78a9660c01564630e2c2c8,687ed1b7e638a4cbf2f02089,6880607929ccf867d27bcf19,,,,,,,,,,,,,,1,,,,,,,,,,,,,,,,,,,,,,,,,,,,,,,,,,,,,,,,,,,,,,,,,,,,,,,,,5,zapato,,,,,557.4013,558.7651,1,1,0.8263,,0,83,83,4,1,REAL,FAKE,,,,,,,,,,,,,,,,,
,,,,,,,,,5f78a9660c01564630e2c2c8,spanish,13 or older,"no, only English or Spanish",no,2025-07-23_00h11.01.708,empathy_intonation_perc,2024.2.4,Win32,59.88023952,5f78a9660c01564630e2c2c8,687ed1b7e638a4cbf2f02089,6880607929ccf867d27bcf19,,,,,,,,,,,,,,0,,,,,,,,,,,,,,,,,,,,,,,,,,,,,,,,,,,,,,,,,,,,,,,,,,,,,,,,,84,escuto,,,,,558.7678,560.4155,1,0,1.105,,0,84,84,83,1,REAL,FAKE,,,,,,,,,,,,,,,,,
,,,,,,,,,5f78a9660c01564630e2c2c8,spanish,13 or older,"no, only English or Spanish",no,2025-07-23_00h11.01.708,empathy_intonation_perc,2024.2.4,Win32,59.88023952,5f78a9660c01564630e2c2c8,687ed1b7e638a4cbf2f02089,6880607929ccf867d27bcf19,,,,,,,,,,,,,,1,,,,,,,,,,,,,,,,,,,,,,,,,,,,,,,,,,,,,,,,,,,,,,,,,,,,,,,,,56,musgo,,,,,560.4183,561.6692,0,0,0.717,,0,85,85,55,1,REAL,FAKE,,,,,,,,,,,,,,,,,
,,,,,,,,,5f78a9660c01564630e2c2c8,spanish,13 or older,"no, only English or Spanish",no,2025-07-23_00h11.01.708,empathy_intonation_perc,2024.2.4,Win32,59.88023952,5f78a9660c01564630e2c2c8,687ed1b7e638a4cbf2f02089,6880607929ccf867d27bcf19,,,,,,,,,,,,,,1,,,,,,,,,,,,,,,,,,,,,,,,,,,,,,,,,,,,,,,,,,,,,,,,,,,,,,,,,37,granuja,,,,,561.6702,562.9655,0,0,0.7566,,0,86,86,36,1,REAL,FAKE,,,,,,,,,,,,,,,,,
,,,,,,,,,5f78a9660c01564630e2c2c8,spanish,13 or older,"no, only English or Spanish",no,2025-07-23_00h11.01.708,empathy_intonation_perc,2024.2.4,Win32,59.88023952,5f78a9660c01564630e2c2c8,687ed1b7e638a4cbf2f02089,6880607929ccf867d27bcf19,,,,,,,,,,,,,,0,,,,,,,,,,,,,,,,,,,,,,,,,,,,,,,,,,,,,,,,,,,,,,,,,,,,,,,,,66,hacido,,,,,562.9681,564.1986,1,0,0.6924,,0,87,87,65,1,REAL,FAKE,,,,,,,,,,,,,,,,,
,,,,,,,,,5f78a9660c01564630e2c2c8,spanish,13 or older,"no, only English or Spanish",no,2025-07-23_00h11.01.708,empathy_intonation_perc,2024.2.4,Win32,59.88023952,5f78a9660c01564630e2c2c8,687ed1b7e638a4cbf2f02089,6880607929ccf867d27bcf19,,,,,,,,,,,,,,1,,,,,,,,,,,,,,,,,,,,,,,,,,,,,,,,,,,,,,,,,,,,,,,,,,,,,,,,,52,camisa,,,,,564.2013,565.4005,1,1,0.6645,,0,88,88,51,1,REAL,FAKE,,,,,,,,,,,,,,,,,
,,,,,,,,,5f78a9660c01564630e2c2c8,spanish,13 or older,"no, only English or Spanish",no,2025-07-23_00h11.01.708,empathy_intonation_perc,2024.2.4,Win32,59.88023952,5f78a9660c01564630e2c2c8,687ed1b7e638a4cbf2f02089,6880607929ccf867d27bcf19,,,,,,,,,,,,,,1,,,,,,,,,,,,,,,,,,,,,,,,,,,,,,,,,,,,,,,,,,,,,,,,,,,,,,,,,43,canela,,,,,565.4028,566.6487,0,0,0.7047,,0,89,89,42,1,REAL,FAKE,,,,,,,,,,,,,,,,,
,,,,,,,,,5f78a9660c01564630e2c2c8,spanish,13 or older,"no, only English or Spanish",no,2025-07-23_00h11.01.708,empathy_intonation_perc,2024.2.4,Win32,59.88023952,5f78a9660c01564630e2c2c8,687ed1b7e638a4cbf2f02089,6880607929ccf867d27bcf19,,,,,,,,,,,,,,0,,,,,,,,,,,,,,,,,,,,,,,,,,,,,,,,,,,,,,,,,,,,,,,,,,,,,,,,,27,acutación,,,,,566.652,568.0153,0,1,0.8271,,0,90,90,26,1,REAL,FAKE,,,,,,,,,,,,,,,,,
,,,,,,,,,5f78a9660c01564630e2c2c8,spanish,13 or older,"no, only English or Spanish",no,2025-07-23_00h11.01.708,empathy_intonation_perc,2024.2.4,Win32,59.88023952,5f78a9660c01564630e2c2c8,687ed1b7e638a4cbf2f02089,6880607929ccf867d27bcf19,,,,,,,,,,,,,,1,,,,,,,,,,,,,,,,,,,,,,,,,,,,,,,,,,,,,,,,,,,,,,,,,,,,,,,,,3,pulmones,,,,,568.0175,569.3027,0,0,0.7504,,0,91,91,2,1,REAL,FAKE,,,,,,,,,,,,,,,,,
,,,,,,,,,5f78a9660c01564630e2c2c8,spanish,13 or older,"no, only English or Spanish",no,2025-07-23_00h11.01.708,empathy_intonation_perc,2024.2.4,Win32,59.88023952,5f78a9660c01564630e2c2c8,687ed1b7e638a4cbf2f02089,6880607929ccf867d27bcf19,,,,,,,,,,,,,,,,,,,,,,,,,,,,,,,,,,,,,,,,,,,,,,,,,,,,,,,,,,,,,,,,,,,,,,,,,,,,,,,,,,,,,,,,,,569.3034,572.9705,,,,,,,,,,,,,,,
,,,,,,,,,5f78a9660c01564630e2c2c8,spanish,13 or older,"no, only English or Spanish",no,2025-07-23_00h11.01.708,empathy_intonation_perc,2024.2.4,Win32,59.88023952,5f78a9660c01564630e2c2c8,687ed1b7e638a4cbf2f02089,6880607929ccf867d27bcf19,,,,,,,,,,,,,1,,,,,,,,,,,,,,,,,,,,,,,,,,,,,,,,,,,,,,,,,,,,,,,,,,,,,,,,,,,,,,,,,,,,,,,,,,,,,,,572.9946,577.4983,slightly agree,0,0,0,0,1,I can easily tell if someone else wants to enter a conversation.,1,0,1,0,,
,,,,,,,,,5f78a9660c01564630e2c2c8,spanish,13 or older,"no, only English or Spanish",no,2025-07-23_00h11.01.708,empathy_intonation_perc,2024.2.4,Win32,59.88023952,5f78a9660c01564630e2c2c8,687ed1b7e638a4cbf2f02089,6880607929ccf867d27bcf19,,,,,,,,,,,,,2,,,,,,,,,,,,,,,,,,,,,,,,,,,,,,,,,,,,,,,,,,,,,,,,,,,,,,,,,,,,,,,,,,,,,,,,,,,,,,,577.5008,582.615,slightly agree,0,1,1,1,1,I prefer animals to humans.,0,1,0,0,,
,,,,,,,,,5f78a9660c01564630e2c2c8,spanish,13 or older,"no, only English or Spanish",no,2025-07-23_00h11.01.708,empathy_intonation_perc,2024.2.4,Win32,59.88023952,5f78a9660c01564630e2c2c8,687ed1b7e638a4cbf2f02089,6880607929ccf867d27bcf19,,,,,,,,,,,,,3,,,,,,,,,,,,,,,,,,,,,,,,,,,,,,,,,,,,,,,,,,,,,,,,,,,,,,,,,,,,,,,,,,,,,,,,,,,,,,,582.6177,585.1316,strongly disagree,0,2,2,2,1,I try to keep up with the current trends and fashions.,0,1,0,0,,
,,,,,,,,,5f78a9660c01564630e2c2c8,spanish,13 or older,"no, only English or Spanish",no,2025-07-23_00h11.01.708,empathy_intonation_perc,2024.2.4,Win32,59.88023952,5f78a9660c01564630e2c2c8,687ed1b7e638a4cbf2f02089,6880607929ccf867d27bcf19,,,,,,,,,,,,,4,,,,,,,,,,,,,,,,,,,,,,,,,,,,,,,,,,,,,,,,,,,,,,,,,,,,,,,,,,,,,,,,,,,,,,,,,,,,,,,585.1345,591.9653,slightly agree,0,3,3,3,1,"I find it difficult to explain to others things that I understand easily,   when they don't understand it first time.",1,0,0,1,,
,,,,,,,,,5f78a9660c01564630e2c2c8,spanish,13 or older,"no, only English or Spanish",no,2025-07-23_00h11.01.708,empathy_intonation_perc,2024.2.4,Win32,59.88023952,5f78a9660c01564630e2c2c8,687ed1b7e638a4cbf2f02089,6880607929ccf867d27bcf19,,,,,,,,,,,,,5,,,,,,,,,,,,,,,,,,,,,,,,,,,,,,,,,,,,,,,,,,,,,,,,,,,,,,,,,,,,,,,,,,,,,,,,,,,,,,,591.9678,594.2153,strongly agree,0,4,4,4,1,I dream most nights.,0,1,0,0,,
,,,,,,,,,5f78a9660c01564630e2c2c8,spanish,13 or older,"no, only English or Spanish",no,2025-07-23_00h11.01.708,empathy_intonation_perc,2024.2.4,Win32,59.88023952,5f78a9660c01564630e2c2c8,687ed1b7e638a4cbf2f02089,6880607929ccf867d27bcf19,,,,,,,,,,,,,6,,,,,,,,,,,,,,,,,,,,,,,,,,,,,,,,,,,,,,,,,,,,,,,,,,,,,,,,,,,,,,,,,,,,,,,,,,,,,,,594.218,598.1488,slightly agree,0,5,5,5,1,I really enjoy caring for other people.,1,0,1,0,,
,,,,,,,,,5f78a9660c01564630e2c2c8,spanish,13 or older,"no, only English or Spanish",no,2025-07-23_00h11.01.708,empathy_intonation_perc,2024.2.4,Win32,59.88023952,5f78a9660c01564630e2c2c8,687ed1b7e638a4cbf2f02089,6880607929ccf867d27bcf19,,,,,,,,,,,,,7,,,,,,,,,,,,,,,,,,,,,,,,,,,,,,,,,,,,,,,,,,,,,,,,,,,,,,,,,,,,,,,,,,,,,,,,,,,,,,,598.1517,601.4154,strongly agree,0,6,6,6,1,I try to solve my own problems rather than discussing them with others.,0,1,0,0,,
,,,,,,,,,5f78a9660c01564630e2c2c8,spanish,13 or older,"no, only English or Spanish",no,2025-07-23_00h11.01.708,empathy_intonation_perc,2024.2.4,Win32,59.88023952,5f78a9660c01564630e2c2c8,687ed1b7e638a4cbf2f02089,6880607929ccf867d27bcf19,,,,,,,,,,,,,8,,,,,,,,,,,,,,,,,,,,,,,,,,,,,,,,,,,,,,,,,,,,,,,,,,,,,,,,,,,,,,,,,,,,,,,,,,,,,,,601.4182,607.7489,strongly disagree,0,7,7,7,1,I find it hard to know what to do in a social situation.,1,0,0,1,,
,,,,,,,,,5f78a9660c01564630e2c2c8,spanish,13 or older,"no, only English or Spanish",no,2025-07-23_00h11.01.708,empathy_intonation_perc,2024.2.4,Win32,59.88023952,5f78a9660c01564630e2c2c8,687ed1b7e638a4cbf2f02089,6880607929ccf867d27bcf19,,,,,,,,,,,,,9,,,,,,,,,,,,,,,,,,,,,,,,,,,,,,,,,,,,,,,,,,,,,,,,,,,,,,,,,,,,,,,,,,,,,,,,,,,,,,,607.7513,609.9156,strongly disagree,0,8,8,8,1,I am at my best first thing in the morning.,0,1,0,0,,
,,,,,,,,,5f78a9660c01564630e2c2c8,spanish,13 or older,"no, only English or Spanish",no,2025-07-23_00h11.01.708,empathy_intonation_perc,2024.2.4,Win32,59.88023952,5f78a9660c01564630e2c2c8,687ed1b7e638a4cbf2f02089,6880607929ccf867d27bcf19,,,,,,,,,,,,,10,,,,,,,,,,,,,,,,,,,,,,,,,,,,,,,,,,,,,,,,,,,,,,,,,,,,,,,,,,,,,,,,,,,,,,,,,,,,,,,609.9185,614.0328,slightly disagree,0,9,9,9,1,People often tell me that I went too far in driving my point home in a discussion.,1,0,0,1,,
