instructions_exposure.started,instructions_exposure.stopped,instructions_exposure_loop.thisRepN,instructions_exposure_loop.thisTrialN,instructions_exposure_loop.thisN,instructions_exposure_loop.thisIndex,instructions_exposure_loop.ran,instructions_text,continue_text,participant_id,"What variety of Spanish are you most familiar with? (e.g., Peruvian, Spanish, Mexican)",At what age did you begin learning Spanish?,Are you proficient in any languages other than English/Spanish?,"Are you familiar with Caribbean (e.g., Caribbean, Puerto Rican) or Galician Spanish?",date,expName,psychopyVersion,OS,frameRate,id,study_id,session,trial_exposure.started,trial_exposure.stopped,key_resp_exposure.keys,key_resp_exposure.corr,key_resp_exposure.rt,key_resp_exposure.duration,key_resp.keys,exposure_loop.thisRepN,exposure_loop.thisTrialN,exposure_loop.thisN,exposure_loop.thisIndex,exposure_loop.ran,item_num,correct_response,question,path,duration,instructions_2afc.started,instructions_2afc.stopped,instructions_2afc_loop.thisRepN,instructions_2afc_loop.thisTrialN,instructions_2afc_loop.thisN,instructions_2afc_loop.thisIndex,instructions_2afc_loop.ran,practice_2afc.started,practice_2afc.stopped,key_resp_2afc_practice.keys,key_resp_2afc_practice.corr,key_resp_2afc_practice.rt,key_resp_2afc_practice.duration,trials_2afc_practice_loop.thisRepN,trials_2afc_practice_loop.thisTrialN,trials_2afc_practice_loop.thisN,trials_2afc_practice_loop.thisIndex,trials_2afc_practice_loop.ran,check_2afc.started,check_2afc.stopped,trial_2afc.started,trial_2afc.stopped,key_resp_2afc_trial.keys,key_resp_2afc_trial.corr,key_resp_2afc_trial.rt,key_resp_2afc_trial.duration,trials_2afc_loop.thisRepN,trials_2afc_loop.thisTrialN,trials_2afc_loop.thisN,trials_2afc_loop.thisIndex,trials_2afc_loop.ran,target,variety,instructions_lextale.started,instructions_lextale.stopped,instructions_lextale_loop.thisRepN,instructions_lextale_loop.thisTrialN,instructions_lextale_loop.thisN,instructions_lextale_loop.thisIndex,instructions_lextale_loop.ran,practice_lextale.started,practice_lextale.stopped,key_resp_lextale_practice.keys,key_resp_lextale_practice.corr,key_resp_lextale_practice.rt,key_resp_lextale_practice.duration,practice_feedback_lextale.started,practice_feedback_lextale.stopped,trials_lextale_practice_loop.thisRepN,trials_lextale_practice_loop.thisTrialN,trials_lextale_practice_loop.thisN,trials_lextale_practice_loop.thisIndex,trials_lextale_practice_loop.ran,stim,word,prac_button_real,prac_button_false,check_lextale.started,check_lextale.stopped,trial_lextale.started,trial_lextale.stopped,key_resp_lextale_trial.keys,key_resp_lextale_trial.corr,key_resp_lextale_trial.rt,key_resp_lextale_trial.duration,trials_lextale_loop.thisRepN,trials_lextale_loop.thisTrialN,trials_lextale_loop.thisN,trials_lextale_loop.thisIndex,trials_lextale_loop.ran,button_real,button_false,instructions_eq.started,instructions_eq.stopped,trial_eq.started,trial_eq.stopped,slider_eq_trial.response,trials_eq_loop.thisRepN,trials_eq_loop.thisTrialN,trials_eq_loop.thisN,trials_eq_loop.thisIndex,trials_eq_loop.ran,item,is_test_item,is_distractor,is_agree_score,is_disagree_score,end_exp.started,end_exp.stopped
0.027,4.5015,0,0,0,0,1,"In the following task, you are going to hear a series of conversations.", (press the space bar to continue),5f8f0ae15fe9e60fbbbaead9,Spanish,13 or older,"no, only English or Spanish",yes,2025-08-12_11h21.45.069,empathy_intonation_perc,2024.2.4,Win32,59.88023952,5f8f0ae15fe9e60fbbbaead9,687ed1b7e638a4cbf2f02089,689b84794c1795fd57327e9f,,,,,,,,,,,,,,,,,,,,,,,,,,,,,,,,,,,,,,,,,,,,,,,,,,,,,,,,,,,,,,,,,,,,,,,,,,,,,,,,,,,,,,,,,,,,,,,,,,,,,,,,,,
4.502,8.7834,0,1,1,1,1,It is okay if you don't not 100% understand them!, (press the space bar to continue),5f8f0ae15fe9e60fbbbaead9,Spanish,13 or older,"no, only English or Spanish",yes,2025-08-12_11h21.45.069,empathy_intonation_perc,2024.2.4,Win32,59.88023952,5f8f0ae15fe9e60fbbbaead9,687ed1b7e638a4cbf2f02089,689b84794c1795fd57327e9f,,,,,,,,,,,,,,,,,,,,,,,,,,,,,,,,,,,,,,,,,,,,,,,,,,,,,,,,,,,,,,,,,,,,,,,,,,,,,,,,,,,,,,,,,,,,,,,,,,,,,,,,,,
8.7846,13.3628,0,2,2,2,1,"After, you will read a sentence about the conversation and decide if it's true or false.", (press the space bar to continue),5f8f0ae15fe9e60fbbbaead9,Spanish,13 or older,"no, only English or Spanish",yes,2025-08-12_11h21.45.069,empathy_intonation_perc,2024.2.4,Win32,59.88023952,5f8f0ae15fe9e60fbbbaead9,687ed1b7e638a4cbf2f02089,689b84794c1795fd57327e9f,,,,,,,,,,,,,,,,,,,,,,,,,,,,,,,,,,,,,,,,,,,,,,,,,,,,,,,,,,,,,,,,,,,,,,,,,,,,,,,,,,,,,,,,,,,,,,,,,,,,,,,,,,
13.3641,20.1977,0,3,3,3,1,"If it's true, press '1' (True) and if it's false press '0' (False).", (press the space bar to continue),5f8f0ae15fe9e60fbbbaead9,Spanish,13 or older,"no, only English or Spanish",yes,2025-08-12_11h21.45.069,empathy_intonation_perc,2024.2.4,Win32,59.88023952,5f8f0ae15fe9e60fbbbaead9,687ed1b7e638a4cbf2f02089,689b84794c1795fd57327e9f,,,,,,,,,,,,,,,,,,,,,,,,,,,,,,,,,,,,,,,,,,,,,,,,,,,,,,,,,,,,,,,,,,,,,,,,,,,,,,,,,,,,,,,,,,,,,,,,,,,,,,,,,,
,,,,,,,,,5f8f0ae15fe9e60fbbbaead9,Spanish,13 or older,"no, only English or Spanish",yes,2025-08-12_11h21.45.069,empathy_intonation_perc,2024.2.4,Win32,59.88023952,5f8f0ae15fe9e60fbbbaead9,687ed1b7e638a4cbf2f02089,689b84794c1795fd57327e9f,20.2035,90.7805,0,0,10.5187,,,0,0,0,1,1,2,1,The mom asked the daughter if she already went to the supermarket.,./stim/exposure_wavs/dr_stimuli_convo.wav,60,,,,,,,,,,,,,,,,,,,,,,,,,,,,,,,,,,,,,,,,,,,,,,,,,,,,,,,,,,,,,,,,,,,,,,,,,,,,,,,,,,,,,,,,,
,,,,,,,,,5f8f0ae15fe9e60fbbbaead9,Spanish,13 or older,"no, only English or Spanish",yes,2025-08-12_11h21.45.069,empathy_intonation_perc,2024.2.4,Win32,59.88023952,5f8f0ae15fe9e60fbbbaead9,687ed1b7e638a4cbf2f02089,689b84794c1795fd57327e9f,90.7823,132.2552,0,1,5.4505,,,0,1,1,2,1,3,0,The mom already has rice.,./stim/exposure_wavs/pr_stimuli_convo.wav,36,,,,,,,,,,,,,,,,,,,,,,,,,,,,,,,,,,,,,,,,,,,,,,,,,,,,,,,,,,,,,,,,,,,,,,,,,,,,,,,,,,,,,,,,,
,,,,,,,,,5f8f0ae15fe9e60fbbbaead9,Spanish,13 or older,"no, only English or Spanish",yes,2025-08-12_11h21.45.069,empathy_intonation_perc,2024.2.4,Win32,59.88023952,5f8f0ae15fe9e60fbbbaead9,687ed1b7e638a4cbf2f02089,689b84794c1795fd57327e9f,132.2568,182.0788,1,1,2.8044,,,0,2,2,0,1,1,1,The son asked the mom if Aunt Marina is okay.,./stim/exposure_wavs/ga_stimuli_convo.wav,47,,,,,,,,,,,,,,,,,,,,,,,,,,,,,,,,,,,,,,,,,,,,,,,,,,,,,,,,,,,,,,,,,,,,,,,,,,,,,,,,,,,,,,,,,
,,,,,,,"In the following task you are going to hear a series of utterances. 

  You will decide if the utterances sound like questions or not using your keyboard.", (press the spacebar to continue),5f8f0ae15fe9e60fbbbaead9,Spanish,13 or older,"no, only English or Spanish",yes,2025-08-12_11h21.45.069,empathy_intonation_perc,2024.2.4,Win32,59.88023952,5f8f0ae15fe9e60fbbbaead9,687ed1b7e638a4cbf2f02089,689b84794c1795fd57327e9f,,,,,,,,,,,,,,,,,,182.0839,195.7265,0,0,0,0,1,,,,,,,,,,,,,,,,,,,,,,,,,,,,,,,,,,,,,,,,,,,,,,,,,,,,,,,,,,,,,,,,,,,,,,,,,,,,,,,,,,
,,,,,,,"If you believe the utterance is a question, type '1' (for 'yes') and if you do not 
  believe it is a question type '0' (for 'no').

  Let's practice a bit...", (press the spacebar to continue),5f8f0ae15fe9e60fbbbaead9,Spanish,13 or older,"no, only English or Spanish",yes,2025-08-12_11h21.45.069,empathy_intonation_perc,2024.2.4,Win32,59.88023952,5f8f0ae15fe9e60fbbbaead9,687ed1b7e638a4cbf2f02089,689b84794c1795fd57327e9f,,,,,,,,,,,,,,,,,,195.7282,198.9591,0,1,1,1,1,,,,,,,,,,,,,,,,,,,,,,,,,,,,,,,,,,,,,,,,,,,,,,,,,,,,,,,,,,,,,,,,,,,,,,,,,,,,,,,,,,
,,,,,,,,,5f8f0ae15fe9e60fbbbaead9,Spanish,13 or older,"no, only English or Spanish",yes,2025-08-12_11h21.45.069,empathy_intonation_perc,2024.2.4,Win32,59.88023952,5f8f0ae15fe9e60fbbbaead9,687ed1b7e638a4cbf2f02089,689b84794c1795fd57327e9f,,,,,,,,,,,,,,0,,./stim/wavs/peruvian_statement_filler_El-nino-habla-con-su-madre.wav,,,,,,,,,198.9649,202.3751,0,1,2.8835,,0,0,0,6,1,,,,,,,,,,,,,,,,,,,,,,,,,,,,,,,,,,,,,,,,,,,,,,,,,,,,,,,,,,,,,,,,,,,,,,,
,,,,,,,,,5f8f0ae15fe9e60fbbbaead9,Spanish,13 or older,"no, only English or Spanish",yes,2025-08-12_11h21.45.069,empathy_intonation_perc,2024.2.4,Win32,59.88023952,5f8f0ae15fe9e60fbbbaead9,687ed1b7e638a4cbf2f02089,689b84794c1795fd57327e9f,,,,,,,,,,,,,,1,,./stim/wavs/mexican_question_filler_Felipe-no-tiene-contrasena.wav,,,,,,,,,202.3756,204.9581,1,1,2.0498,,0,1,1,3,1,,,,,,,,,,,,,,,,,,,,,,,,,,,,,,,,,,,,,,,,,,,,,,,,,,,,,,,,,,,,,,,,,,,,,,,
,,,,,,,,,5f8f0ae15fe9e60fbbbaead9,Spanish,13 or older,"no, only English or Spanish",yes,2025-08-12_11h21.45.069,empathy_intonation_perc,2024.2.4,Win32,59.88023952,5f8f0ae15fe9e60fbbbaead9,687ed1b7e638a4cbf2f02089,689b84794c1795fd57327e9f,,,,,,,,,,,,,,1,,./stim/wavs/castilian_question_filler_Mi-esposo-conoce-al-chico.wav,,,,,,,,,204.9585,207.5574,1,1,2.0685,,0,2,2,0,1,,,,,,,,,,,,,,,,,,,,,,,,,,,,,,,,,,,,,,,,,,,,,,,,,,,,,,,,,,,,,,,,,,,,,,,
,,,,,,,,,5f8f0ae15fe9e60fbbbaead9,Spanish,13 or older,"no, only English or Spanish",yes,2025-08-12_11h21.45.069,empathy_intonation_perc,2024.2.4,Win32,59.88023952,5f8f0ae15fe9e60fbbbaead9,687ed1b7e638a4cbf2f02089,689b84794c1795fd57327e9f,,,,,,,,,,,,,,1,,./stim/wavs/chilean_question_filler_Mi-padre-cantaba-bien.wav,,,,,,,,,207.5576,210.1899,1,1,2.1028,,0,3,3,2,1,,,,,,,,,,,,,,,,,,,,,,,,,,,,,,,,,,,,,,,,,,,,,,,,,,,,,,,,,,,,,,,,,,,,,,,
,,,,,,,,,5f8f0ae15fe9e60fbbbaead9,Spanish,13 or older,"no, only English or Spanish",yes,2025-08-12_11h21.45.069,empathy_intonation_perc,2024.2.4,Win32,59.88023952,5f8f0ae15fe9e60fbbbaead9,687ed1b7e638a4cbf2f02089,689b84794c1795fd57327e9f,,,,,,,,,,,,,,0,,./stim/wavs/andalusian_statement_filler_Alberto-nunca-se-afeita.wav,,,,,,,,,210.1903,212.4895,0,1,1.7707,,0,4,4,5,1,,,,,,,,,,,,,,,,,,,,,,,,,,,,,,,,,,,,,,,,,,,,,,,,,,,,,,,,,,,,,,,,,,,,,,,
,,,,,,,,,5f8f0ae15fe9e60fbbbaead9,Spanish,13 or older,"no, only English or Spanish",yes,2025-08-12_11h21.45.069,empathy_intonation_perc,2024.2.4,Win32,59.88023952,5f8f0ae15fe9e60fbbbaead9,687ed1b7e638a4cbf2f02089,689b84794c1795fd57327e9f,,,,,,,,,,,,,,1,,./stim/wavs/argentine_question_filler_Mi-vecino-habla-mucho.wav,,,,,,,,,212.4899,214.4891,1,1,1.4702,,0,5,5,1,1,,,,,,,,,,,,,,,,,,,,,,,,,,,,,,,,,,,,,,,,,,,,,,,,,,,,,,,,,,,,,,,,,,,,,,,
,,,,,,,,,5f8f0ae15fe9e60fbbbaead9,Spanish,13 or older,"no, only English or Spanish",yes,2025-08-12_11h21.45.069,empathy_intonation_perc,2024.2.4,Win32,59.88023952,5f8f0ae15fe9e60fbbbaead9,687ed1b7e638a4cbf2f02089,689b84794c1795fd57327e9f,,,,,,,,,,,,,,0,,./stim/wavs/puertorican_statement_filler_La-nina-pinta-con-su-amiga.wav,,,,,,,,,214.4894,217.1387,0,1,2.1245,,0,6,6,7,1,,,,,,,,,,,,,,,,,,,,,,,,,,,,,,,,,,,,,,,,,,,,,,,,,,,,,,,,,,,,,,,,,,,,,,,
,,,,,,,,,5f8f0ae15fe9e60fbbbaead9,Spanish,13 or older,"no, only English or Spanish",yes,2025-08-12_11h21.45.069,empathy_intonation_perc,2024.2.4,Win32,59.88023952,5f8f0ae15fe9e60fbbbaead9,687ed1b7e638a4cbf2f02089,689b84794c1795fd57327e9f,,,,,,,,,,,,,,0,,./stim/wavs/cuban_statement_filler_Cocinabas-por-la-noche.wav,,,,,,,,,217.1392,219.3714,0,1,1.7014,,0,7,7,4,1,,,,,,,,,,,,,,,,,,,,,,,,,,,,,,,,,,,,,,,,,,,,,,,,,,,,,,,,,,,,,,,,,,,,,,,
,,,,,,,,,5f8f0ae15fe9e60fbbbaead9,Spanish,13 or older,"no, only English or Spanish",yes,2025-08-12_11h21.45.069,empathy_intonation_perc,2024.2.4,Win32,59.88023952,5f8f0ae15fe9e60fbbbaead9,687ed1b7e638a4cbf2f02089,689b84794c1795fd57327e9f,,,,,,,,,,,,,,,,,,,,,,,,,,,,,,,,,,,,219.3717,221.7045,,,,,,,,,,,,,,,,,,,,,,,,,,,,,,,,,,,,,,,,,,,,,,,,,,,,,,,,,,,,,,,,,,,,,
,,,,,,,,,5f8f0ae15fe9e60fbbbaead9,Spanish,13 or older,"no, only English or Spanish",yes,2025-08-12_11h21.45.069,empathy_intonation_perc,2024.2.4,Win32,59.88023952,5f8f0ae15fe9e60fbbbaead9,687ed1b7e638a4cbf2f02089,689b84794c1795fd57327e9f,,,,,,,,,,,,,64,0,,./stim/wavs/puertorican_match_declarative-broad-focus_Daniel-iba-a-Bolivia.wav,,,,,,,,,,,,,,,,,,,,,,221.7104,224.0041,0,1,1.7681,,0,0,0,63,1,0,puertorican,,,,,,,,,,,,,,,,,,,,,,,,,,,,,,,,,,,,,,,,,,,,,,,,,,,,,,,,
,,,,,,,,,5f8f0ae15fe9e60fbbbaead9,Spanish,13 or older,"no, only English or Spanish",yes,2025-08-12_11h21.45.069,empathy_intonation_perc,2024.2.4,Win32,59.88023952,5f8f0ae15fe9e60fbbbaead9,687ed1b7e638a4cbf2f02089,689b84794c1795fd57327e9f,,,,,,,,,,,,,66,0,,./stim/wavs/puertorican_match_declarative-broad-focus_Emilio-ama-la-marcha.wav,,,,,,,,,,,,,,,,,,,,,,224.0047,226.42,1,0,1.8932,,0,1,1,65,1,0,puertorican,,,,,,,,,,,,,,,,,,,,,,,,,,,,,,,,,,,,,,,,,,,,,,,,,,,,,,,,
,,,,,,,,,5f8f0ae15fe9e60fbbbaead9,Spanish,13 or older,"no, only English or Spanish",yes,2025-08-12_11h21.45.069,empathy_intonation_perc,2024.2.4,Win32,59.88023952,5f8f0ae15fe9e60fbbbaead9,687ed1b7e638a4cbf2f02089,689b84794c1795fd57327e9f,,,,,,,,,,,,,12,1,,./stim/wavs/cuban_match_interrogative-total-yn_Marta-abre-el-regalo.wav,,,,,,,,,,,,,,,,,,,,,,226.4203,228.4696,0,0,1.5269,,0,2,2,11,1,1,cuban,,,,,,,,,,,,,,,,,,,,,,,,,,,,,,,,,,,,,,,,,,,,,,,,,,,,,,,,
,,,,,,,,,5f8f0ae15fe9e60fbbbaead9,Spanish,13 or older,"no, only English or Spanish",yes,2025-08-12_11h21.45.069,empathy_intonation_perc,2024.2.4,Win32,59.88023952,5f8f0ae15fe9e60fbbbaead9,687ed1b7e638a4cbf2f02089,689b84794c1795fd57327e9f,,,,,,,,,,,,,83,0,,./stim/wavs/mexican_mismatch_declarative-broad-focus_Mi-tia-odia-la-lluvia.wav,,,,,,,,,,,,,,,,,,,,,,228.4699,230.7528,0,1,1.7492,,0,3,3,82,1,0,mexican,,,,,,,,,,,,,,,,,,,,,,,,,,,,,,,,,,,,,,,,,,,,,,,,,,,,,,,,
,,,,,,,,,5f8f0ae15fe9e60fbbbaead9,Spanish,13 or older,"no, only English or Spanish",yes,2025-08-12_11h21.45.069,empathy_intonation_perc,2024.2.4,Win32,59.88023952,5f8f0ae15fe9e60fbbbaead9,687ed1b7e638a4cbf2f02089,689b84794c1795fd57327e9f,,,,,,,,,,,,,6,1,,./stim/wavs/castilian_match_interrogative-total-yn_Marta-abre-el-regalo.wav,,,,,,,,,,,,,,,,,,,,,,230.7535,233.0522,1,1,1.7667,,0,4,4,5,1,0,castilian,,,,,,,,,,,,,,,,,,,,,,,,,,,,,,,,,,,,,,,,,,,,,,,,,,,,,,,,
,,,,,,,,,5f8f0ae15fe9e60fbbbaead9,Spanish,13 or older,"no, only English or Spanish",yes,2025-08-12_11h21.45.069,empathy_intonation_perc,2024.2.4,Win32,59.88023952,5f8f0ae15fe9e60fbbbaead9,687ed1b7e638a4cbf2f02089,689b84794c1795fd57327e9f,,,,,,,,,,,,,25,1,,./stim/wavs/castilian_mismatch_interrogative-total-yn_La-maestra-vive-en-Paris.wav,,,,,,,,,,,,,,,,,,,,,,233.0526,235.385,1,1,1.8008,,0,5,5,24,1,0,castilian,,,,,,,,,,,,,,,,,,,,,,,,,,,,,,,,,,,,,,,,,,,,,,,,,,,,,,,,
,,,,,,,,,5f8f0ae15fe9e60fbbbaead9,Spanish,13 or older,"no, only English or Spanish",yes,2025-08-12_11h21.45.069,empathy_intonation_perc,2024.2.4,Win32,59.88023952,5f8f0ae15fe9e60fbbbaead9,687ed1b7e638a4cbf2f02089,689b84794c1795fd57327e9f,,,,,,,,,,,,,22,1,,./stim/wavs/puertorican_match_interrogative-total-yn_Emilio-ama-la-marcha.wav,,,,,,,,,,,,,,,,,,,,,,235.3855,237.5014,0,0,1.5924,,0,6,6,21,1,1,puertorican,,,,,,,,,,,,,,,,,,,,,,,,,,,,,,,,,,,,,,,,,,,,,,,,,,,,,,,,
,,,,,,,,,5f8f0ae15fe9e60fbbbaead9,Spanish,13 or older,"no, only English or Spanish",yes,2025-08-12_11h21.45.069,empathy_intonation_perc,2024.2.4,Win32,59.88023952,5f8f0ae15fe9e60fbbbaead9,687ed1b7e638a4cbf2f02089,689b84794c1795fd57327e9f,,,,,,,,,,,,,42,1,,./stim/wavs/puertorican_mismatch_interrogative-total-yn_La-maestra-vive-en-Paris.wav,,,,,,,,,,,,,,,,,,,,,,237.5017,239.8177,1,1,1.7853,,0,7,7,41,1,1,puertorican,,,,,,,,,,,,,,,,,,,,,,,,,,,,,,,,,,,,,,,,,,,,,,,,,,,,,,,,
,,,,,,,,,5f8f0ae15fe9e60fbbbaead9,Spanish,13 or older,"no, only English or Spanish",yes,2025-08-12_11h21.45.069,empathy_intonation_perc,2024.2.4,Win32,59.88023952,5f8f0ae15fe9e60fbbbaead9,687ed1b7e638a4cbf2f02089,689b84794c1795fd57327e9f,,,,,,,,,,,,,75,0,,./stim/wavs/cuban_mismatch_declarative-broad-focus_El-hombre-mira-la-luna.wav,,,,,,,,,,,,,,,,,,,,,,239.8181,242.2171,0,1,1.8692,,0,8,8,74,1,0,cuban,,,,,,,,,,,,,,,,,,,,,,,,,,,,,,,,,,,,,,,,,,,,,,,,,,,,,,,,
,,,,,,,,,5f8f0ae15fe9e60fbbbaead9,Spanish,13 or older,"no, only English or Spanish",yes,2025-08-12_11h21.45.069,empathy_intonation_perc,2024.2.4,Win32,59.88023952,5f8f0ae15fe9e60fbbbaead9,687ed1b7e638a4cbf2f02089,689b84794c1795fd57327e9f,,,,,,,,,,,,,26,1,,./stim/wavs/castilian_mismatch_interrogative-total-yn_La-nina-lava-el-plato.wav,,,,,,,,,,,,,,,,,,,,,,242.2174,244.4666,1,1,1.7156,,0,9,9,25,1,0,castilian,,,,,,,,,,,,,,,,,,,,,,,,,,,,,,,,,,,,,,,,,,,,,,,,,,,,,,,,
,,,,,,,,,5f8f0ae15fe9e60fbbbaead9,Spanish,13 or older,"no, only English or Spanish",yes,2025-08-12_11h21.45.069,empathy_intonation_perc,2024.2.4,Win32,59.88023952,5f8f0ae15fe9e60fbbbaead9,687ed1b7e638a4cbf2f02089,689b84794c1795fd57327e9f,,,,,,,,,,,,,68,0,,./stim/wavs/puertorican_match_declarative-broad-focus_Maria-bebe-el-vino.wav,,,,,,,,,,,,,,,,,,,,,,244.4669,246.4996,1,0,1.5026,,0,10,10,67,1,0,puertorican,,,,,,,,,,,,,,,,,,,,,,,,,,,,,,,,,,,,,,,,,,,,,,,,,,,,,,,,
,,,,,,,,,5f8f0ae15fe9e60fbbbaead9,Spanish,13 or older,"no, only English or Spanish",yes,2025-08-12_11h21.45.069,empathy_intonation_perc,2024.2.4,Win32,59.88023952,5f8f0ae15fe9e60fbbbaead9,687ed1b7e638a4cbf2f02089,689b84794c1795fd57327e9f,,,,,,,,,,,,,34,1,,./stim/wavs/cuban_mismatch_interrogative-total-yn_Mi-tia-odia-la-lluvia.wav,,,,,,,,,,,,,,,,,,,,,,246.5,249.0657,0,0,2.0447,,0,11,11,33,1,1,cuban,,,,,,,,,,,,,,,,,,,,,,,,,,,,,,,,,,,,,,,,,,,,,,,,,,,,,,,,
,,,,,,,,,5f8f0ae15fe9e60fbbbaead9,Spanish,13 or older,"no, only English or Spanish",yes,2025-08-12_11h21.45.069,empathy_intonation_perc,2024.2.4,Win32,59.88023952,5f8f0ae15fe9e60fbbbaead9,687ed1b7e638a4cbf2f02089,689b84794c1795fd57327e9f,,,,,,,,,,,,,31,1,,./stim/wavs/cuban_mismatch_interrogative-total-yn_El-nino-oye-el-rio.wav,,,,,,,,,,,,,,,,,,,,,,249.066,251.4319,0,0,1.8336,,0,12,12,30,1,1,cuban,,,,,,,,,,,,,,,,,,,,,,,,,,,,,,,,,,,,,,,,,,,,,,,,,,,,,,,,
,,,,,,,,,5f8f0ae15fe9e60fbbbaead9,Spanish,13 or older,"no, only English or Spanish",yes,2025-08-12_11h21.45.069,empathy_intonation_perc,2024.2.4,Win32,59.88023952,5f8f0ae15fe9e60fbbbaead9,687ed1b7e638a4cbf2f02089,689b84794c1795fd57327e9f,,,,,,,,,,,,,14,1,,./stim/wavs/mexican_match_interrogative-total-yn_Daniel-iba-a-Bolivia.wav,,,,,,,,,,,,,,,,,,,,,,251.4324,253.5649,1,1,1.6051,,0,13,13,13,1,0,mexican,,,,,,,,,,,,,,,,,,,,,,,,,,,,,,,,,,,,,,,,,,,,,,,,,,,,,,,,
,,,,,,,,,5f8f0ae15fe9e60fbbbaead9,Spanish,13 or older,"no, only English or Spanish",yes,2025-08-12_11h21.45.069,empathy_intonation_perc,2024.2.4,Win32,59.88023952,5f8f0ae15fe9e60fbbbaead9,687ed1b7e638a4cbf2f02089,689b84794c1795fd57327e9f,,,,,,,,,,,,,50,0,,./stim/wavs/castilian_match_declarative-broad-focus_Marta-abre-el-regalo.wav,,,,,,,,,,,,,,,,,,,,,,253.5653,255.8312,0,1,1.7331,,0,14,14,49,1,0,castilian,,,,,,,,,,,,,,,,,,,,,,,,,,,,,,,,,,,,,,,,,,,,,,,,,,,,,,,,
,,,,,,,,,5f8f0ae15fe9e60fbbbaead9,Spanish,13 or older,"no, only English or Spanish",yes,2025-08-12_11h21.45.069,empathy_intonation_perc,2024.2.4,Win32,59.88023952,5f8f0ae15fe9e60fbbbaead9,687ed1b7e638a4cbf2f02089,689b84794c1795fd57327e9f,,,,,,,,,,,,,39,1,,./stim/wavs/mexican_mismatch_interrogative-total-yn_Mi-tia-odia-la-lluvia.wav,,,,,,,,,,,,,,,,,,,,,,255.8315,257.9804,1,1,1.6282,,0,15,15,38,1,0,mexican,,,,,,,,,,,,,,,,,,,,,,,,,,,,,,,,,,,,,,,,,,,,,,,,,,,,,,,,
,,,,,,,,,5f8f0ae15fe9e60fbbbaead9,Spanish,13 or older,"no, only English or Spanish",yes,2025-08-12_11h21.45.069,empathy_intonation_perc,2024.2.4,Win32,59.88023952,5f8f0ae15fe9e60fbbbaead9,687ed1b7e638a4cbf2f02089,689b84794c1795fd57327e9f,,,,,,,,,,,,,55,0,,./stim/wavs/cuban_match_declarative-broad-focus_Mariano-habla-del-tiempo.wav,,,,,,,,,,,,,,,,,,,,,,257.9809,260.3636,0,1,1.8611,,0,16,16,54,1,0,cuban,,,,,,,,,,,,,,,,,,,,,,,,,,,,,,,,,,,,,,,,,,,,,,,,,,,,,,,,
,,,,,,,,,5f8f0ae15fe9e60fbbbaead9,Spanish,13 or older,"no, only English or Spanish",yes,2025-08-12_11h21.45.069,empathy_intonation_perc,2024.2.4,Win32,59.88023952,5f8f0ae15fe9e60fbbbaead9,687ed1b7e638a4cbf2f02089,689b84794c1795fd57327e9f,,,,,,,,,,,,,49,0,,./stim/wavs/castilian_match_declarative-broad-focus_Mariano-habla-del-tiempo.wav,,,,,,,,,,,,,,,,,,,,,,260.3639,263.0129,0,1,2.1166,,0,17,17,48,1,0,castilian,,,,,,,,,,,,,,,,,,,,,,,,,,,,,,,,,,,,,,,,,,,,,,,,,,,,,,,,
,,,,,,,,,5f8f0ae15fe9e60fbbbaead9,Spanish,13 or older,"no, only English or Spanish",yes,2025-08-12_11h21.45.069,empathy_intonation_perc,2024.2.4,Win32,59.88023952,5f8f0ae15fe9e60fbbbaead9,687ed1b7e638a4cbf2f02089,689b84794c1795fd57327e9f,,,,,,,,,,,,,37,1,,./stim/wavs/mexican_mismatch_interrogative-total-yn_La-maestra-vive-en-Paris.wav,,,,,,,,,,,,,,,,,,,,,,263.0133,265.3459,1,1,1.8065,,0,18,18,36,1,0,mexican,,,,,,,,,,,,,,,,,,,,,,,,,,,,,,,,,,,,,,,,,,,,,,,,,,,,,,,,
,,,,,,,,,5f8f0ae15fe9e60fbbbaead9,Spanish,13 or older,"no, only English or Spanish",yes,2025-08-12_11h21.45.069,empathy_intonation_perc,2024.2.4,Win32,59.88023952,5f8f0ae15fe9e60fbbbaead9,687ed1b7e638a4cbf2f02089,689b84794c1795fd57327e9f,,,,,,,,,,,,,16,1,,./stim/wavs/mexican_match_interrogative-total-yn_Emilio-ama-la-marcha.wav,,,,,,,,,,,,,,,,,,,,,,265.3464,267.5122,1,1,1.6373,,0,19,19,15,1,0,mexican,,,,,,,,,,,,,,,,,,,,,,,,,,,,,,,,,,,,,,,,,,,,,,,,,,,,,,,,
,,,,,,,,,5f8f0ae15fe9e60fbbbaead9,Spanish,13 or older,"no, only English or Spanish",yes,2025-08-12_11h21.45.069,empathy_intonation_perc,2024.2.4,Win32,59.88023952,5f8f0ae15fe9e60fbbbaead9,687ed1b7e638a4cbf2f02089,689b84794c1795fd57327e9f,,,,,,,,,,,,,29,1,,./stim/wavs/castilian_mismatch_interrogative-total-yn_Mi-tia-odia-la-lluvia.wav,,,,,,,,,,,,,,,,,,,,,,267.5126,269.745,1,1,1.7014,,0,20,20,28,1,0,castilian,,,,,,,,,,,,,,,,,,,,,,,,,,,,,,,,,,,,,,,,,,,,,,,,,,,,,,,,
,,,,,,,,,5f8f0ae15fe9e60fbbbaead9,Spanish,13 or older,"no, only English or Spanish",yes,2025-08-12_11h21.45.069,empathy_intonation_perc,2024.2.4,Win32,59.88023952,5f8f0ae15fe9e60fbbbaead9,687ed1b7e638a4cbf2f02089,689b84794c1795fd57327e9f,,,,,,,,,,,,,59,0,,./stim/wavs/mexican_match_declarative-broad-focus_David-leia-el-libro.wav,,,,,,,,,,,,,,,,,,,,,,269.7454,271.8279,0,1,1.5542,,0,21,21,58,1,0,mexican,,,,,,,,,,,,,,,,,,,,,,,,,,,,,,,,,,,,,,,,,,,,,,,,,,,,,,,,
,,,,,,,,,5f8f0ae15fe9e60fbbbaead9,Spanish,13 or older,"no, only English or Spanish",yes,2025-08-12_11h21.45.069,empathy_intonation_perc,2024.2.4,Win32,59.88023952,5f8f0ae15fe9e60fbbbaead9,687ed1b7e638a4cbf2f02089,689b84794c1795fd57327e9f,,,,,,,,,,,,,2,1,,./stim/wavs/castilian_match_interrogative-total-yn_Emilio-ama-la-marcha.wav,,,,,,,,,,,,,,,,,,,,,,271.8282,274.0276,1,1,1.6762,,0,22,22,1,1,0,castilian,,,,,,,,,,,,,,,,,,,,,,,,,,,,,,,,,,,,,,,,,,,,,,,,,,,,,,,,
,,,,,,,,,5f8f0ae15fe9e60fbbbaead9,Spanish,13 or older,"no, only English or Spanish",yes,2025-08-12_11h21.45.069,empathy_intonation_perc,2024.2.4,Win32,59.88023952,5f8f0ae15fe9e60fbbbaead9,687ed1b7e638a4cbf2f02089,689b84794c1795fd57327e9f,,,,,,,,,,,,,69,0,,./stim/wavs/castilian_mismatch_declarative-broad-focus_El-nino-oye-el-rio.wav,,,,,,,,,,,,,,,,,,,,,,274.028,276.3604,0,1,1.7999,,0,23,23,68,1,0,castilian,,,,,,,,,,,,,,,,,,,,,,,,,,,,,,,,,,,,,,,,,,,,,,,,,,,,,,,,
,,,,,,,,,5f8f0ae15fe9e60fbbbaead9,Spanish,13 or older,"no, only English or Spanish",yes,2025-08-12_11h21.45.069,empathy_intonation_perc,2024.2.4,Win32,59.88023952,5f8f0ae15fe9e60fbbbaead9,687ed1b7e638a4cbf2f02089,689b84794c1795fd57327e9f,,,,,,,,,,,,,67,0,,./stim/wavs/puertorican_match_declarative-broad-focus_Manuela-vende-el-carro.wav,,,,,,,,,,,,,,,,,,,,,,276.3607,278.5598,1,0,1.6714,,0,24,24,66,1,0,puertorican,,,,,,,,,,,,,,,,,,,,,,,,,,,,,,,,,,,,,,,,,,,,,,,,,,,,,,,,
,,,,,,,,,5f8f0ae15fe9e60fbbbaead9,Spanish,13 or older,"no, only English or Spanish",yes,2025-08-12_11h21.45.069,empathy_intonation_perc,2024.2.4,Win32,59.88023952,5f8f0ae15fe9e60fbbbaead9,687ed1b7e638a4cbf2f02089,689b84794c1795fd57327e9f,,,,,,,,,,,,,78,0,,./stim/wavs/cuban_mismatch_declarative-broad-focus_Mi-tia-odia-la-lluvia.wav,,,,,,,,,,,,,,,,,,,,,,278.5603,281.3426,0,1,2.2511,,0,25,25,77,1,0,cuban,,,,,,,,,,,,,,,,,,,,,,,,,,,,,,,,,,,,,,,,,,,,,,,,,,,,,,,,
,,,,,,,,,5f8f0ae15fe9e60fbbbaead9,Spanish,13 or older,"no, only English or Spanish",yes,2025-08-12_11h21.45.069,empathy_intonation_perc,2024.2.4,Win32,59.88023952,5f8f0ae15fe9e60fbbbaead9,687ed1b7e638a4cbf2f02089,689b84794c1795fd57327e9f,,,,,,,,,,,,,17,1,,./stim/wavs/mexican_match_interrogative-total-yn_Mariano-habla-del-tiempo.wav,,,,,,,,,,,,,,,,,,,,,,281.343,283.5758,1,1,1.6995,,0,26,26,16,1,0,mexican,,,,,,,,,,,,,,,,,,,,,,,,,,,,,,,,,,,,,,,,,,,,,,,,,,,,,,,,
,,,,,,,,,5f8f0ae15fe9e60fbbbaead9,Spanish,13 or older,"no, only English or Spanish",yes,2025-08-12_11h21.45.069,empathy_intonation_perc,2024.2.4,Win32,59.88023952,5f8f0ae15fe9e60fbbbaead9,687ed1b7e638a4cbf2f02089,689b84794c1795fd57327e9f,,,,,,,,,,,,,56,0,,./stim/wavs/cuban_match_declarative-broad-focus_Marta-abre-el-regalo.wav,,,,,,,,,,,,,,,,,,,,,,283.5763,285.975,0,1,1.8779,,0,27,27,55,1,0,cuban,,,,,,,,,,,,,,,,,,,,,,,,,,,,,,,,,,,,,,,,,,,,,,,,,,,,,,,,
,,,,,,,,,5f8f0ae15fe9e60fbbbaead9,Spanish,13 or older,"no, only English or Spanish",yes,2025-08-12_11h21.45.069,empathy_intonation_perc,2024.2.4,Win32,59.88023952,5f8f0ae15fe9e60fbbbaead9,687ed1b7e638a4cbf2f02089,689b84794c1795fd57327e9f,,,,,,,,,,,,,65,0,,./stim/wavs/puertorican_match_declarative-broad-focus_David-leia-el-libro.wav,,,,,,,,,,,,,,,,,,,,,,285.9755,288.4411,0,1,1.9405,,0,28,28,64,1,0,puertorican,,,,,,,,,,,,,,,,,,,,,,,,,,,,,,,,,,,,,,,,,,,,,,,,,,,,,,,,
,,,,,,,,,5f8f0ae15fe9e60fbbbaead9,Spanish,13 or older,"no, only English or Spanish",yes,2025-08-12_11h21.45.069,empathy_intonation_perc,2024.2.4,Win32,59.88023952,5f8f0ae15fe9e60fbbbaead9,687ed1b7e638a4cbf2f02089,689b84794c1795fd57327e9f,,,,,,,,,,,,,81,0,,./stim/wavs/mexican_mismatch_declarative-broad-focus_La-maestra-vive-en-Paris.wav,,,,,,,,,,,,,,,,,,,,,,288.4415,290.6745,0,1,1.7021,,0,29,29,80,1,0,mexican,,,,,,,,,,,,,,,,,,,,,,,,,,,,,,,,,,,,,,,,,,,,,,,,,,,,,,,,
,,,,,,,,,5f8f0ae15fe9e60fbbbaead9,Spanish,13 or older,"no, only English or Spanish",yes,2025-08-12_11h21.45.069,empathy_intonation_perc,2024.2.4,Win32,59.88023952,5f8f0ae15fe9e60fbbbaead9,687ed1b7e638a4cbf2f02089,689b84794c1795fd57327e9f,,,,,,,,,,,,,19,1,,./stim/wavs/puertorican_match_interrogative-total-yn_Ana-lleva-el-abrigo.wav,,,,,,,,,,,,,,,,,,,,,,290.6748,292.4904,1,1,1.2909,,0,30,30,18,1,1,puertorican,,,,,,,,,,,,,,,,,,,,,,,,,,,,,,,,,,,,,,,,,,,,,,,,,,,,,,,,
,,,,,,,,,5f8f0ae15fe9e60fbbbaead9,Spanish,13 or older,"no, only English or Spanish",yes,2025-08-12_11h21.45.069,empathy_intonation_perc,2024.2.4,Win32,59.88023952,5f8f0ae15fe9e60fbbbaead9,687ed1b7e638a4cbf2f02089,689b84794c1795fd57327e9f,,,,,,,,,,,,,85,0,,./stim/wavs/puertorican_mismatch_declarative-broad-focus_El-hombre-mira-la-luna.wav,,,,,,,,,,,,,,,,,,,,,,292.4907,294.9734,1,0,1.9544,,0,31,31,84,1,0,puertorican,,,,,,,,,,,,,,,,,,,,,,,,,,,,,,,,,,,,,,,,,,,,,,,,,,,,,,,,
,,,,,,,,,5f8f0ae15fe9e60fbbbaead9,Spanish,13 or older,"no, only English or Spanish",yes,2025-08-12_11h21.45.069,empathy_intonation_perc,2024.2.4,Win32,59.88023952,5f8f0ae15fe9e60fbbbaead9,687ed1b7e638a4cbf2f02089,689b84794c1795fd57327e9f,,,,,,,,,,,,,86,0,,./stim/wavs/puertorican_mismatch_declarative-broad-focus_El-nino-oye-el-rio.wav,,,,,,,,,,,,,,,,,,,,,,294.9737,297.0561,0,1,1.5517,,0,32,32,85,1,0,puertorican,,,,,,,,,,,,,,,,,,,,,,,,,,,,,,,,,,,,,,,,,,,,,,,,,,,,,,,,
,,,,,,,,,5f8f0ae15fe9e60fbbbaead9,Spanish,13 or older,"no, only English or Spanish",yes,2025-08-12_11h21.45.069,empathy_intonation_perc,2024.2.4,Win32,59.88023952,5f8f0ae15fe9e60fbbbaead9,687ed1b7e638a4cbf2f02089,689b84794c1795fd57327e9f,,,,,,,,,,,,,82,0,,./stim/wavs/mexican_mismatch_declarative-broad-focus_Mi-novio-viene-del-lago.wav,,,,,,,,,,,,,,,,,,,,,,297.0565,299.3224,0,1,1.7412,,0,33,33,81,1,0,mexican,,,,,,,,,,,,,,,,,,,,,,,,,,,,,,,,,,,,,,,,,,,,,,,,,,,,,,,,
,,,,,,,,,5f8f0ae15fe9e60fbbbaead9,Spanish,13 or older,"no, only English or Spanish",yes,2025-08-12_11h21.45.069,empathy_intonation_perc,2024.2.4,Win32,59.88023952,5f8f0ae15fe9e60fbbbaead9,687ed1b7e638a4cbf2f02089,689b84794c1795fd57327e9f,,,,,,,,,,,,,7,1,,./stim/wavs/cuban_match_interrogative-total-yn_Ana-lleva-el-abrigo.wav,,,,,,,,,,,,,,,,,,,,,,299.3227,301.5556,0,0,1.7049,,0,34,34,6,1,1,cuban,,,,,,,,,,,,,,,,,,,,,,,,,,,,,,,,,,,,,,,,,,,,,,,,,,,,,,,,
,,,,,,,,,5f8f0ae15fe9e60fbbbaead9,Spanish,13 or older,"no, only English or Spanish",yes,2025-08-12_11h21.45.069,empathy_intonation_perc,2024.2.4,Win32,59.88023952,5f8f0ae15fe9e60fbbbaead9,687ed1b7e638a4cbf2f02089,689b84794c1795fd57327e9f,,,,,,,,,,,,,9,1,,./stim/wavs/cuban_match_interrogative-total-yn_Manuela-vende-el-carro.wav,,,,,,,,,,,,,,,,,,,,,,301.5559,304.3882,0,0,2.3096,,0,35,35,8,1,1,cuban,,,,,,,,,,,,,,,,,,,,,,,,,,,,,,,,,,,,,,,,,,,,,,,,,,,,,,,,
,,,,,,,,,5f8f0ae15fe9e60fbbbaead9,Spanish,13 or older,"no, only English or Spanish",yes,2025-08-12_11h21.45.069,empathy_intonation_perc,2024.2.4,Win32,59.88023952,5f8f0ae15fe9e60fbbbaead9,687ed1b7e638a4cbf2f02089,689b84794c1795fd57327e9f,,,,,,,,,,,,,30,1,,./stim/wavs/cuban_mismatch_interrogative-total-yn_El-hombre-mira-la-luna.wav,,,,,,,,,,,,,,,,,,,,,,304.3887,306.3879,1,1,1.4719,,0,36,36,29,1,1,cuban,,,,,,,,,,,,,,,,,,,,,,,,,,,,,,,,,,,,,,,,,,,,,,,,,,,,,,,,
,,,,,,,,,5f8f0ae15fe9e60fbbbaead9,Spanish,13 or older,"no, only English or Spanish",yes,2025-08-12_11h21.45.069,empathy_intonation_perc,2024.2.4,Win32,59.88023952,5f8f0ae15fe9e60fbbbaead9,687ed1b7e638a4cbf2f02089,689b84794c1795fd57327e9f,,,,,,,,,,,,,40,1,,./stim/wavs/puertorican_mismatch_interrogative-total-yn_El-hombre-mira-la-luna.wav,,,,,,,,,,,,,,,,,,,,,,306.3887,308.3707,1,1,1.4502,,0,37,37,39,1,1,puertorican,,,,,,,,,,,,,,,,,,,,,,,,,,,,,,,,,,,,,,,,,,,,,,,,,,,,,,,,
,,,,,,,,,5f8f0ae15fe9e60fbbbaead9,Spanish,13 or older,"no, only English or Spanish",yes,2025-08-12_11h21.45.069,empathy_intonation_perc,2024.2.4,Win32,59.88023952,5f8f0ae15fe9e60fbbbaead9,687ed1b7e638a4cbf2f02089,689b84794c1795fd57327e9f,,,,,,,,,,,,,60,0,,./stim/wavs/mexican_match_declarative-broad-focus_Emilio-ama-la-marcha.wav,,,,,,,,,,,,,,,,,,,,,,308.3711,310.887,0,1,1.991,,0,38,38,59,1,0,mexican,,,,,,,,,,,,,,,,,,,,,,,,,,,,,,,,,,,,,,,,,,,,,,,,,,,,,,,,
,,,,,,,,,5f8f0ae15fe9e60fbbbaead9,Spanish,13 or older,"no, only English or Spanish",yes,2025-08-12_11h21.45.069,empathy_intonation_perc,2024.2.4,Win32,59.88023952,5f8f0ae15fe9e60fbbbaead9,687ed1b7e638a4cbf2f02089,689b84794c1795fd57327e9f,,,,,,,,,,,,,71,0,,./stim/wavs/castilian_mismatch_declarative-broad-focus_La-nina-lava-el-plato.wav,,,,,,,,,,,,,,,,,,,,,,310.8874,313.3864,0,1,1.9679,,0,39,39,70,1,0,castilian,,,,,,,,,,,,,,,,,,,,,,,,,,,,,,,,,,,,,,,,,,,,,,,,,,,,,,,,
,,,,,,,,,5f8f0ae15fe9e60fbbbaead9,Spanish,13 or older,"no, only English or Spanish",yes,2025-08-12_11h21.45.069,empathy_intonation_perc,2024.2.4,Win32,59.88023952,5f8f0ae15fe9e60fbbbaead9,687ed1b7e638a4cbf2f02089,689b84794c1795fd57327e9f,,,,,,,,,,,,,1,1,,./stim/wavs/castilian_match_interrogative-total-yn_David-leia-el-libro.wav,,,,,,,,,,,,,,,,,,,,,,313.3867,315.6191,1,1,1.7115,,0,40,40,0,1,0,castilian,,,,,,,,,,,,,,,,,,,,,,,,,,,,,,,,,,,,,,,,,,,,,,,,,,,,,,,,
,,,,,,,,,5f8f0ae15fe9e60fbbbaead9,Spanish,13 or older,"no, only English or Spanish",yes,2025-08-12_11h21.45.069,empathy_intonation_perc,2024.2.4,Win32,59.88023952,5f8f0ae15fe9e60fbbbaead9,687ed1b7e638a4cbf2f02089,689b84794c1795fd57327e9f,,,,,,,,,,,,,57,0,,./stim/wavs/mexican_match_declarative-broad-focus_Ana-lleva-el-abrigo.wav,,,,,,,,,,,,,,,,,,,,,,315.6194,317.6355,0,1,1.4912,,0,41,41,56,1,0,mexican,,,,,,,,,,,,,,,,,,,,,,,,,,,,,,,,,,,,,,,,,,,,,,,,,,,,,,,,
,,,,,,,,,5f8f0ae15fe9e60fbbbaead9,Spanish,13 or older,"no, only English or Spanish",yes,2025-08-12_11h21.45.069,empathy_intonation_perc,2024.2.4,Win32,59.88023952,5f8f0ae15fe9e60fbbbaead9,687ed1b7e638a4cbf2f02089,689b84794c1795fd57327e9f,,,,,,,,,,,,,47,0,,./stim/wavs/castilian_match_declarative-broad-focus_Manuela-vende-el-carro.wav,,,,,,,,,,,,,,,,,,,,,,317.6359,320.1685,0,1,2.0064,,0,42,42,46,1,0,castilian,,,,,,,,,,,,,,,,,,,,,,,,,,,,,,,,,,,,,,,,,,,,,,,,,,,,,,,,
,,,,,,,,,5f8f0ae15fe9e60fbbbaead9,Spanish,13 or older,"no, only English or Spanish",yes,2025-08-12_11h21.45.069,empathy_intonation_perc,2024.2.4,Win32,59.88023952,5f8f0ae15fe9e60fbbbaead9,687ed1b7e638a4cbf2f02089,689b84794c1795fd57327e9f,,,,,,,,,,,,,36,1,,./stim/wavs/mexican_mismatch_interrogative-total-yn_El-nino-oye-el-rio.wav,,,,,,,,,,,,,,,,,,,,,,320.1689,322.3011,1,1,1.6036,,0,43,43,35,1,0,mexican,,,,,,,,,,,,,,,,,,,,,,,,,,,,,,,,,,,,,,,,,,,,,,,,,,,,,,,,
,,,,,,,,,5f8f0ae15fe9e60fbbbaead9,Spanish,13 or older,"no, only English or Spanish",yes,2025-08-12_11h21.45.069,empathy_intonation_perc,2024.2.4,Win32,59.88023952,5f8f0ae15fe9e60fbbbaead9,687ed1b7e638a4cbf2f02089,689b84794c1795fd57327e9f,,,,,,,,,,,,,18,1,,./stim/wavs/mexican_match_interrogative-total-yn_Marta-abre-el-regalo.wav,,,,,,,,,,,,,,,,,,,,,,322.3014,324.301,1,1,1.4659,,0,44,44,17,1,0,mexican,,,,,,,,,,,,,,,,,,,,,,,,,,,,,,,,,,,,,,,,,,,,,,,,,,,,,,,,
,,,,,,,,,5f8f0ae15fe9e60fbbbaead9,Spanish,13 or older,"no, only English or Spanish",yes,2025-08-12_11h21.45.069,empathy_intonation_perc,2024.2.4,Win32,59.88023952,5f8f0ae15fe9e60fbbbaead9,687ed1b7e638a4cbf2f02089,689b84794c1795fd57327e9f,,,,,,,,,,,,,79,0,,./stim/wavs/mexican_mismatch_declarative-broad-focus_El-bebe-comia-muy-bien.wav,,,,,,,,,,,,,,,,,,,,,,324.3014,326.6005,0,1,1.77,,0,45,45,78,1,0,mexican,,,,,,,,,,,,,,,,,,,,,,,,,,,,,,,,,,,,,,,,,,,,,,,,,,,,,,,,
,,,,,,,,,5f8f0ae15fe9e60fbbbaead9,Spanish,13 or older,"no, only English or Spanish",yes,2025-08-12_11h21.45.069,empathy_intonation_perc,2024.2.4,Win32,59.88023952,5f8f0ae15fe9e60fbbbaead9,687ed1b7e638a4cbf2f02089,689b84794c1795fd57327e9f,,,,,,,,,,,,,27,1,,./stim/wavs/castilian_mismatch_interrogative-total-yn_Mi-madre-come-la-fruta.wav,,,,,,,,,,,,,,,,,,,,,,326.6009,328.8499,1,1,1.7248,,0,46,46,26,1,0,castilian,,,,,,,,,,,,,,,,,,,,,,,,,,,,,,,,,,,,,,,,,,,,,,,,,,,,,,,,
,,,,,,,,,5f8f0ae15fe9e60fbbbaead9,Spanish,13 or older,"no, only English or Spanish",yes,2025-08-12_11h21.45.069,empathy_intonation_perc,2024.2.4,Win32,59.88023952,5f8f0ae15fe9e60fbbbaead9,687ed1b7e638a4cbf2f02089,689b84794c1795fd57327e9f,,,,,,,,,,,,,54,0,,./stim/wavs/cuban_match_declarative-broad-focus_Maria-bebe-el-vino.wav,,,,,,,,,,,,,,,,,,,,,,328.8503,331.0496,0,1,1.678,,0,47,47,53,1,0,cuban,,,,,,,,,,,,,,,,,,,,,,,,,,,,,,,,,,,,,,,,,,,,,,,,,,,,,,,,
,,,,,,,,,5f8f0ae15fe9e60fbbbaead9,Spanish,13 or older,"no, only English or Spanish",yes,2025-08-12_11h21.45.069,empathy_intonation_perc,2024.2.4,Win32,59.88023952,5f8f0ae15fe9e60fbbbaead9,687ed1b7e638a4cbf2f02089,689b84794c1795fd57327e9f,,,,,,,,,,,,,24,1,,./stim/wavs/puertorican_match_interrogative-total-yn_Maria-bebe-el-vino.wav,,,,,,,,,,,,,,,,,,,,,,331.05,332.7494,1,1,1.1673,,0,48,48,23,1,1,puertorican,,,,,,,,,,,,,,,,,,,,,,,,,,,,,,,,,,,,,,,,,,,,,,,,,,,,,,,,
,,,,,,,,,5f8f0ae15fe9e60fbbbaead9,Spanish,13 or older,"no, only English or Spanish",yes,2025-08-12_11h21.45.069,empathy_intonation_perc,2024.2.4,Win32,59.88023952,5f8f0ae15fe9e60fbbbaead9,687ed1b7e638a4cbf2f02089,689b84794c1795fd57327e9f,,,,,,,,,,,,,11,1,,./stim/wavs/cuban_match_interrogative-total-yn_Mariano-habla-del-tiempo.wav,,,,,,,,,,,,,,,,,,,,,,332.7498,335.2655,1,1,1.9831,,0,49,49,10,1,1,cuban,,,,,,,,,,,,,,,,,,,,,,,,,,,,,,,,,,,,,,,,,,,,,,,,,,,,,,,,
,,,,,,,,,5f8f0ae15fe9e60fbbbaead9,Spanish,13 or older,"no, only English or Spanish",yes,2025-08-12_11h21.45.069,empathy_intonation_perc,2024.2.4,Win32,59.88023952,5f8f0ae15fe9e60fbbbaead9,687ed1b7e638a4cbf2f02089,689b84794c1795fd57327e9f,,,,,,,,,,,,,52,0,,./stim/wavs/cuban_match_declarative-broad-focus_Daniel-iba-a-Bolivia.wav,,,,,,,,,,,,,,,,,,,,,,335.2659,337.6649,0,1,1.8749,,0,50,50,51,1,0,cuban,,,,,,,,,,,,,,,,,,,,,,,,,,,,,,,,,,,,,,,,,,,,,,,,,,,,,,,,
,,,,,,,,,5f8f0ae15fe9e60fbbbaead9,Spanish,13 or older,"no, only English or Spanish",yes,2025-08-12_11h21.45.069,empathy_intonation_perc,2024.2.4,Win32,59.88023952,5f8f0ae15fe9e60fbbbaead9,687ed1b7e638a4cbf2f02089,689b84794c1795fd57327e9f,,,,,,,,,,,,,87,0,,./stim/wavs/puertorican_mismatch_declarative-broad-focus_La-maestra-vive-en-Paris.wav,,,,,,,,,,,,,,,,,,,,,,337.6652,339.9314,1,0,1.7418,,0,51,51,86,1,0,puertorican,,,,,,,,,,,,,,,,,,,,,,,,,,,,,,,,,,,,,,,,,,,,,,,,,,,,,,,,
,,,,,,,,,5f8f0ae15fe9e60fbbbaead9,Spanish,13 or older,"no, only English or Spanish",yes,2025-08-12_11h21.45.069,empathy_intonation_perc,2024.2.4,Win32,59.88023952,5f8f0ae15fe9e60fbbbaead9,687ed1b7e638a4cbf2f02089,689b84794c1795fd57327e9f,,,,,,,,,,,,,13,1,,./stim/wavs/mexican_match_interrogative-total-yn_Ana-lleva-el-abrigo.wav,,,,,,,,,,,,,,,,,,,,,,339.9319,341.9641,1,1,1.5088,,0,52,52,12,1,0,mexican,,,,,,,,,,,,,,,,,,,,,,,,,,,,,,,,,,,,,,,,,,,,,,,,,,,,,,,,
,,,,,,,,,5f8f0ae15fe9e60fbbbaead9,Spanish,13 or older,"no, only English or Spanish",yes,2025-08-12_11h21.45.069,empathy_intonation_perc,2024.2.4,Win32,59.88023952,5f8f0ae15fe9e60fbbbaead9,687ed1b7e638a4cbf2f02089,689b84794c1795fd57327e9f,,,,,,,,,,,,,21,1,,./stim/wavs/puertorican_match_interrogative-total-yn_David-leia-el-libro.wav,,,,,,,,,,,,,,,,,,,,,,341.9644,343.9805,0,0,1.483,,0,53,53,20,1,1,puertorican,,,,,,,,,,,,,,,,,,,,,,,,,,,,,,,,,,,,,,,,,,,,,,,,,,,,,,,,
,,,,,,,,,5f8f0ae15fe9e60fbbbaead9,Spanish,13 or older,"no, only English or Spanish",yes,2025-08-12_11h21.45.069,empathy_intonation_perc,2024.2.4,Win32,59.88023952,5f8f0ae15fe9e60fbbbaead9,687ed1b7e638a4cbf2f02089,689b84794c1795fd57327e9f,,,,,,,,,,,,,28,1,,./stim/wavs/castilian_mismatch_interrogative-total-yn_Mi-novio-viene-del-lago.wav,,,,,,,,,,,,,,,,,,,,,,343.9809,346.3133,1,1,1.8092,,0,54,54,27,1,0,castilian,,,,,,,,,,,,,,,,,,,,,,,,,,,,,,,,,,,,,,,,,,,,,,,,,,,,,,,,
,,,,,,,,,5f8f0ae15fe9e60fbbbaead9,Spanish,13 or older,"no, only English or Spanish",yes,2025-08-12_11h21.45.069,empathy_intonation_perc,2024.2.4,Win32,59.88023952,5f8f0ae15fe9e60fbbbaead9,687ed1b7e638a4cbf2f02089,689b84794c1795fd57327e9f,,,,,,,,,,,,,88,0,,./stim/wavs/puertorican_mismatch_declarative-broad-focus_La-nina-lava-el-plato.wav,,,,,,,,,,,,,,,,,,,,,,346.3136,348.8129,0,1,1.9698,,0,55,55,87,1,0,puertorican,,,,,,,,,,,,,,,,,,,,,,,,,,,,,,,,,,,,,,,,,,,,,,,,,,,,,,,,
,,,,,,,,,5f8f0ae15fe9e60fbbbaead9,Spanish,13 or older,"no, only English or Spanish",yes,2025-08-12_11h21.45.069,empathy_intonation_perc,2024.2.4,Win32,59.88023952,5f8f0ae15fe9e60fbbbaead9,687ed1b7e638a4cbf2f02089,689b84794c1795fd57327e9f,,,,,,,,,,,,,63,0,,./stim/wavs/puertorican_match_declarative-broad-focus_Ana-lleva-el-abrigo.wav,,,,,,,,,,,,,,,,,,,,,,348.8134,351.1124,1,0,1.7682,,0,56,56,62,1,0,puertorican,,,,,,,,,,,,,,,,,,,,,,,,,,,,,,,,,,,,,,,,,,,,,,,,,,,,,,,,
,,,,,,,,,5f8f0ae15fe9e60fbbbaead9,Spanish,13 or older,"no, only English or Spanish",yes,2025-08-12_11h21.45.069,empathy_intonation_perc,2024.2.4,Win32,59.88023952,5f8f0ae15fe9e60fbbbaead9,687ed1b7e638a4cbf2f02089,689b84794c1795fd57327e9f,,,,,,,,,,,,,46,0,,./stim/wavs/castilian_match_declarative-broad-focus_Emilio-ama-la-marcha.wav,,,,,,,,,,,,,,,,,,,,,,351.1127,353.4953,0,1,1.8541,,0,57,57,45,1,0,castilian,,,,,,,,,,,,,,,,,,,,,,,,,,,,,,,,,,,,,,,,,,,,,,,,,,,,,,,,
,,,,,,,,,5f8f0ae15fe9e60fbbbaead9,Spanish,13 or older,"no, only English or Spanish",yes,2025-08-12_11h21.45.069,empathy_intonation_perc,2024.2.4,Win32,59.88023952,5f8f0ae15fe9e60fbbbaead9,687ed1b7e638a4cbf2f02089,689b84794c1795fd57327e9f,,,,,,,,,,,,,5,1,,./stim/wavs/castilian_match_interrogative-total-yn_Mariano-habla-del-tiempo.wav,,,,,,,,,,,,,,,,,,,,,,353.4957,355.9113,1,1,1.8824,,0,58,58,4,1,0,castilian,,,,,,,,,,,,,,,,,,,,,,,,,,,,,,,,,,,,,,,,,,,,,,,,,,,,,,,,
,,,,,,,,,5f8f0ae15fe9e60fbbbaead9,Spanish,13 or older,"no, only English or Spanish",yes,2025-08-12_11h21.45.069,empathy_intonation_perc,2024.2.4,Win32,59.88023952,5f8f0ae15fe9e60fbbbaead9,687ed1b7e638a4cbf2f02089,689b84794c1795fd57327e9f,,,,,,,,,,,,,33,1,,./stim/wavs/cuban_mismatch_interrogative-total-yn_Mi-novio-viene-del-lago.wav,,,,,,,,,,,,,,,,,,,,,,355.9117,358.2442,0,0,1.8102,,0,59,59,32,1,1,cuban,,,,,,,,,,,,,,,,,,,,,,,,,,,,,,,,,,,,,,,,,,,,,,,,,,,,,,,,
,,,,,,,,,5f8f0ae15fe9e60fbbbaead9,Spanish,13 or older,"no, only English or Spanish",yes,2025-08-12_11h21.45.069,empathy_intonation_perc,2024.2.4,Win32,59.88023952,5f8f0ae15fe9e60fbbbaead9,687ed1b7e638a4cbf2f02089,689b84794c1795fd57327e9f,,,,,,,,,,,,,77,0,,./stim/wavs/cuban_mismatch_declarative-broad-focus_Mi-novio-viene-del-lago.wav,,,,,,,,,,,,,,,,,,,,,,358.2446,360.6437,0,1,1.8709,,0,60,60,76,1,0,cuban,,,,,,,,,,,,,,,,,,,,,,,,,,,,,,,,,,,,,,,,,,,,,,,,,,,,,,,,
,,,,,,,,,5f8f0ae15fe9e60fbbbaead9,Spanish,13 or older,"no, only English or Spanish",yes,2025-08-12_11h21.45.069,empathy_intonation_perc,2024.2.4,Win32,59.88023952,5f8f0ae15fe9e60fbbbaead9,687ed1b7e638a4cbf2f02089,689b84794c1795fd57327e9f,,,,,,,,,,,,,48,0,,./stim/wavs/castilian_match_declarative-broad-focus_Maria-bebe-el-vino.wav,,,,,,,,,,,,,,,,,,,,,,360.6441,363.21,0,1,2.0413,,0,61,61,47,1,0,castilian,,,,,,,,,,,,,,,,,,,,,,,,,,,,,,,,,,,,,,,,,,,,,,,,,,,,,,,,
,,,,,,,,,5f8f0ae15fe9e60fbbbaead9,Spanish,13 or older,"no, only English or Spanish",yes,2025-08-12_11h21.45.069,empathy_intonation_perc,2024.2.4,Win32,59.88023952,5f8f0ae15fe9e60fbbbaead9,687ed1b7e638a4cbf2f02089,689b84794c1795fd57327e9f,,,,,,,,,,,,,76,0,,./stim/wavs/cuban_mismatch_declarative-broad-focus_La-nina-lava-el-plato.wav,,,,,,,,,,,,,,,,,,,,,,363.2103,365.3929,0,1,1.6586,,0,62,62,75,1,0,cuban,,,,,,,,,,,,,,,,,,,,,,,,,,,,,,,,,,,,,,,,,,,,,,,,,,,,,,,,
,,,,,,,,,5f8f0ae15fe9e60fbbbaead9,Spanish,13 or older,"no, only English or Spanish",yes,2025-08-12_11h21.45.069,empathy_intonation_perc,2024.2.4,Win32,59.88023952,5f8f0ae15fe9e60fbbbaead9,687ed1b7e638a4cbf2f02089,689b84794c1795fd57327e9f,,,,,,,,,,,,,80,0,,./stim/wavs/mexican_mismatch_declarative-broad-focus_El-hombre-mira-la-luna.wav,,,,,,,,,,,,,,,,,,,,,,365.3933,367.4756,0,1,1.5596,,0,63,63,79,1,0,mexican,,,,,,,,,,,,,,,,,,,,,,,,,,,,,,,,,,,,,,,,,,,,,,,,,,,,,,,,
,,,,,,,,,5f8f0ae15fe9e60fbbbaead9,Spanish,13 or older,"no, only English or Spanish",yes,2025-08-12_11h21.45.069,empathy_intonation_perc,2024.2.4,Win32,59.88023952,5f8f0ae15fe9e60fbbbaead9,687ed1b7e638a4cbf2f02089,689b84794c1795fd57327e9f,,,,,,,,,,,,,44,1,,./stim/wavs/puertorican_mismatch_interrogative-total-yn_Mi-madre-come-la-fruta.wav,,,,,,,,,,,,,,,,,,,,,,367.476,369.8421,0,0,1.8358,,0,64,64,43,1,1,puertorican,,,,,,,,,,,,,,,,,,,,,,,,,,,,,,,,,,,,,,,,,,,,,,,,,,,,,,,,
,,,,,,,,,5f8f0ae15fe9e60fbbbaead9,Spanish,13 or older,"no, only English or Spanish",yes,2025-08-12_11h21.45.069,empathy_intonation_perc,2024.2.4,Win32,59.88023952,5f8f0ae15fe9e60fbbbaead9,687ed1b7e638a4cbf2f02089,689b84794c1795fd57327e9f,,,,,,,,,,,,,74,0,,./stim/wavs/cuban_mismatch_declarative-broad-focus_El-bebe-comia-muy-bien.wav,,,,,,,,,,,,,,,,,,,,,,369.8425,371.9582,0,1,1.5899,,0,65,65,73,1,0,cuban,,,,,,,,,,,,,,,,,,,,,,,,,,,,,,,,,,,,,,,,,,,,,,,,,,,,,,,,
,,,,,,,,,5f8f0ae15fe9e60fbbbaead9,Spanish,13 or older,"no, only English or Spanish",yes,2025-08-12_11h21.45.069,empathy_intonation_perc,2024.2.4,Win32,59.88023952,5f8f0ae15fe9e60fbbbaead9,687ed1b7e638a4cbf2f02089,689b84794c1795fd57327e9f,,,,,,,,,,,,,35,1,,./stim/wavs/mexican_mismatch_interrogative-total-yn_El-hombre-mira-la-luna.wav,,,,,,,,,,,,,,,,,,,,,,371.9586,373.858,1,1,1.367,,0,66,66,34,1,0,mexican,,,,,,,,,,,,,,,,,,,,,,,,,,,,,,,,,,,,,,,,,,,,,,,,,,,,,,,,
,,,,,,,,,5f8f0ae15fe9e60fbbbaead9,Spanish,13 or older,"no, only English or Spanish",yes,2025-08-12_11h21.45.069,empathy_intonation_perc,2024.2.4,Win32,59.88023952,5f8f0ae15fe9e60fbbbaead9,687ed1b7e638a4cbf2f02089,689b84794c1795fd57327e9f,,,,,,,,,,,,,43,1,,./stim/wavs/puertorican_mismatch_interrogative-total-yn_La-nina-lava-el-plato.wav,,,,,,,,,,,,,,,,,,,,,,373.8585,375.8409,0,0,1.4502,,0,67,67,42,1,1,puertorican,,,,,,,,,,,,,,,,,,,,,,,,,,,,,,,,,,,,,,,,,,,,,,,,,,,,,,,,
,,,,,,,,,5f8f0ae15fe9e60fbbbaead9,Spanish,13 or older,"no, only English or Spanish",yes,2025-08-12_11h21.45.069,empathy_intonation_perc,2024.2.4,Win32,59.88023952,5f8f0ae15fe9e60fbbbaead9,687ed1b7e638a4cbf2f02089,689b84794c1795fd57327e9f,,,,,,,,,,,,,23,1,,./stim/wavs/puertorican_match_interrogative-total-yn_Manuela-vende-el-carro.wav,,,,,,,,,,,,,,,,,,,,,,375.8413,378.1737,0,0,1.8063,,0,68,68,22,1,1,puertorican,,,,,,,,,,,,,,,,,,,,,,,,,,,,,,,,,,,,,,,,,,,,,,,,,,,,,,,,
,,,,,,,,,5f8f0ae15fe9e60fbbbaead9,Spanish,13 or older,"no, only English or Spanish",yes,2025-08-12_11h21.45.069,empathy_intonation_perc,2024.2.4,Win32,59.88023952,5f8f0ae15fe9e60fbbbaead9,687ed1b7e638a4cbf2f02089,689b84794c1795fd57327e9f,,,,,,,,,,,,,62,0,,./stim/wavs/mexican_match_declarative-broad-focus_Marta-abre-el-regalo.wav,,,,,,,,,,,,,,,,,,,,,,378.1741,380.4731,1,0,1.77,,0,69,69,61,1,0,mexican,,,,,,,,,,,,,,,,,,,,,,,,,,,,,,,,,,,,,,,,,,,,,,,,,,,,,,,,
,,,,,,,,,5f8f0ae15fe9e60fbbbaead9,Spanish,13 or older,"no, only English or Spanish",yes,2025-08-12_11h21.45.069,empathy_intonation_perc,2024.2.4,Win32,59.88023952,5f8f0ae15fe9e60fbbbaead9,687ed1b7e638a4cbf2f02089,689b84794c1795fd57327e9f,,,,,,,,,,,,,3,1,,./stim/wavs/castilian_match_interrogative-total-yn_Manuela-vende-el-carro.wav,,,,,,,,,,,,,,,,,,,,,,380.4735,382.7726,1,1,1.7675,,0,70,70,2,1,0,castilian,,,,,,,,,,,,,,,,,,,,,,,,,,,,,,,,,,,,,,,,,,,,,,,,,,,,,,,,
,,,,,,,,,5f8f0ae15fe9e60fbbbaead9,Spanish,13 or older,"no, only English or Spanish",yes,2025-08-12_11h21.45.069,empathy_intonation_perc,2024.2.4,Win32,59.88023952,5f8f0ae15fe9e60fbbbaead9,687ed1b7e638a4cbf2f02089,689b84794c1795fd57327e9f,,,,,,,,,,,,,51,0,,./stim/wavs/cuban_match_declarative-broad-focus_Ana-lleva-el-abrigo.wav,,,,,,,,,,,,,,,,,,,,,,382.7731,385.4055,0,1,2.1004,,0,71,71,50,1,0,cuban,,,,,,,,,,,,,,,,,,,,,,,,,,,,,,,,,,,,,,,,,,,,,,,,,,,,,,,,
,,,,,,,,,5f8f0ae15fe9e60fbbbaead9,Spanish,13 or older,"no, only English or Spanish",yes,2025-08-12_11h21.45.069,empathy_intonation_perc,2024.2.4,Win32,59.88023952,5f8f0ae15fe9e60fbbbaead9,687ed1b7e638a4cbf2f02089,689b84794c1795fd57327e9f,,,,,,,,,,,,,38,1,,./stim/wavs/mexican_mismatch_interrogative-total-yn_Mi-novio-viene-del-lago.wav,,,,,,,,,,,,,,,,,,,,,,385.4059,388.5048,1,1,2.5761,,0,72,72,37,1,0,mexican,,,,,,,,,,,,,,,,,,,,,,,,,,,,,,,,,,,,,,,,,,,,,,,,,,,,,,,,
,,,,,,,,,5f8f0ae15fe9e60fbbbaead9,Spanish,13 or older,"no, only English or Spanish",yes,2025-08-12_11h21.45.069,empathy_intonation_perc,2024.2.4,Win32,59.88023952,5f8f0ae15fe9e60fbbbaead9,687ed1b7e638a4cbf2f02089,689b84794c1795fd57327e9f,,,,,,,,,,,,,72,0,,./stim/wavs/castilian_mismatch_declarative-broad-focus_Mi-novio-viene-del-lago.wav,,,,,,,,,,,,,,,,,,,,,,388.5051,391.2547,0,1,2.2176,,0,73,73,71,1,0,castilian,,,,,,,,,,,,,,,,,,,,,,,,,,,,,,,,,,,,,,,,,,,,,,,,,,,,,,,,
,,,,,,,,,5f8f0ae15fe9e60fbbbaead9,Spanish,13 or older,"no, only English or Spanish",yes,2025-08-12_11h21.45.069,empathy_intonation_perc,2024.2.4,Win32,59.88023952,5f8f0ae15fe9e60fbbbaead9,687ed1b7e638a4cbf2f02089,689b84794c1795fd57327e9f,,,,,,,,,,,,,8,1,,./stim/wavs/cuban_match_interrogative-total-yn_Daniel-iba-a-Bolivia.wav,,,,,,,,,,,,,,,,,,,,,,391.255,393.9374,0,0,2.15,,0,74,74,7,1,1,cuban,,,,,,,,,,,,,,,,,,,,,,,,,,,,,,,,,,,,,,,,,,,,,,,,,,,,,,,,
,,,,,,,,,5f8f0ae15fe9e60fbbbaead9,Spanish,13 or older,"no, only English or Spanish",yes,2025-08-12_11h21.45.069,empathy_intonation_perc,2024.2.4,Win32,59.88023952,5f8f0ae15fe9e60fbbbaead9,687ed1b7e638a4cbf2f02089,689b84794c1795fd57327e9f,,,,,,,,,,,,,32,1,,./stim/wavs/cuban_mismatch_interrogative-total-yn_Mi-madre-come-la-fruta.wav,,,,,,,,,,,,,,,,,,,,,,393.9377,396.7371,0,0,2.275,,0,75,75,31,1,1,cuban,,,,,,,,,,,,,,,,,,,,,,,,,,,,,,,,,,,,,,,,,,,,,,,,,,,,,,,,
,,,,,,,,,5f8f0ae15fe9e60fbbbaead9,Spanish,13 or older,"no, only English or Spanish",yes,2025-08-12_11h21.45.069,empathy_intonation_perc,2024.2.4,Win32,59.88023952,5f8f0ae15fe9e60fbbbaead9,687ed1b7e638a4cbf2f02089,689b84794c1795fd57327e9f,,,,,,,,,,,,,41,1,,./stim/wavs/puertorican_mismatch_interrogative-total-yn_El-nino-oye-el-rio.wav,,,,,,,,,,,,,,,,,,,,,,396.7378,398.8703,0,0,1.6048,,0,76,76,40,1,1,puertorican,,,,,,,,,,,,,,,,,,,,,,,,,,,,,,,,,,,,,,,,,,,,,,,,,,,,,,,,
,,,,,,,,,5f8f0ae15fe9e60fbbbaead9,Spanish,13 or older,"no, only English or Spanish",yes,2025-08-12_11h21.45.069,empathy_intonation_perc,2024.2.4,Win32,59.88023952,5f8f0ae15fe9e60fbbbaead9,687ed1b7e638a4cbf2f02089,689b84794c1795fd57327e9f,,,,,,,,,,,,,10,1,,./stim/wavs/cuban_match_interrogative-total-yn_Maria-bebe-el-vino.wav,,,,,,,,,,,,,,,,,,,,,,398.8708,401.2025,0,0,1.8126,,0,77,77,9,1,1,cuban,,,,,,,,,,,,,,,,,,,,,,,,,,,,,,,,,,,,,,,,,,,,,,,,,,,,,,,,
,,,,,,,,,5f8f0ae15fe9e60fbbbaead9,Spanish,13 or older,"no, only English or Spanish",yes,2025-08-12_11h21.45.069,empathy_intonation_perc,2024.2.4,Win32,59.88023952,5f8f0ae15fe9e60fbbbaead9,687ed1b7e638a4cbf2f02089,689b84794c1795fd57327e9f,,,,,,,,,,,,,84,0,,./stim/wavs/puertorican_mismatch_declarative-broad-focus_El-bebe-comia-muy-bien.wav,,,,,,,,,,,,,,,,,,,,,,401.2033,404.0722,0,1,2.3626,,0,78,78,83,1,0,puertorican,,,,,,,,,,,,,,,,,,,,,,,,,,,,,,,,,,,,,,,,,,,,,,,,,,,,,,,,
,,,,,,,,,5f8f0ae15fe9e60fbbbaead9,Spanish,13 or older,"no, only English or Spanish",yes,2025-08-12_11h21.45.069,empathy_intonation_perc,2024.2.4,Win32,59.88023952,5f8f0ae15fe9e60fbbbaead9,687ed1b7e638a4cbf2f02089,689b84794c1795fd57327e9f,,,,,,,,,,,,,53,0,,./stim/wavs/cuban_match_declarative-broad-focus_Manuela-vende-el-carro.wav,,,,,,,,,,,,,,,,,,,,,,404.0725,408.1545,1,0,3.5656,,0,79,79,52,1,0,cuban,,,,,,,,,,,,,,,,,,,,,,,,,,,,,,,,,,,,,,,,,,,,,,,,,,,,,,,,
,,,,,,,,,5f8f0ae15fe9e60fbbbaead9,Spanish,13 or older,"no, only English or Spanish",yes,2025-08-12_11h21.45.069,empathy_intonation_perc,2024.2.4,Win32,59.88023952,5f8f0ae15fe9e60fbbbaead9,687ed1b7e638a4cbf2f02089,689b84794c1795fd57327e9f,,,,,,,,,,,,,15,1,,./stim/wavs/mexican_match_interrogative-total-yn_David-leia-el-libro.wav,,,,,,,,,,,,,,,,,,,,,,408.1549,410.3871,1,1,1.7157,,0,80,80,14,1,0,mexican,,,,,,,,,,,,,,,,,,,,,,,,,,,,,,,,,,,,,,,,,,,,,,,,,,,,,,,,
,,,,,,,,,5f8f0ae15fe9e60fbbbaead9,Spanish,13 or older,"no, only English or Spanish",yes,2025-08-12_11h21.45.069,empathy_intonation_perc,2024.2.4,Win32,59.88023952,5f8f0ae15fe9e60fbbbaead9,687ed1b7e638a4cbf2f02089,689b84794c1795fd57327e9f,,,,,,,,,,,,,70,0,,./stim/wavs/castilian_mismatch_declarative-broad-focus_La-maestra-vive-en-Paris.wav,,,,,,,,,,,,,,,,,,,,,,410.3874,412.9199,0,1,1.9998,,0,81,81,69,1,0,castilian,,,,,,,,,,,,,,,,,,,,,,,,,,,,,,,,,,,,,,,,,,,,,,,,,,,,,,,,
,,,,,,,,,5f8f0ae15fe9e60fbbbaead9,Spanish,13 or older,"no, only English or Spanish",yes,2025-08-12_11h21.45.069,empathy_intonation_perc,2024.2.4,Win32,59.88023952,5f8f0ae15fe9e60fbbbaead9,687ed1b7e638a4cbf2f02089,689b84794c1795fd57327e9f,,,,,,,,,,,,,73,0,,./stim/wavs/castilian_mismatch_declarative-broad-focus_Mi-tia-odia-la-lluvia.wav,,,,,,,,,,,,,,,,,,,,,,412.9202,416.0365,0,1,2.6128,,0,82,82,72,1,0,castilian,,,,,,,,,,,,,,,,,,,,,,,,,,,,,,,,,,,,,,,,,,,,,,,,,,,,,,,,
,,,,,,,,,5f8f0ae15fe9e60fbbbaead9,Spanish,13 or older,"no, only English or Spanish",yes,2025-08-12_11h21.45.069,empathy_intonation_perc,2024.2.4,Win32,59.88023952,5f8f0ae15fe9e60fbbbaead9,687ed1b7e638a4cbf2f02089,689b84794c1795fd57327e9f,,,,,,,,,,,,,61,0,,./stim/wavs/mexican_match_declarative-broad-focus_Mariano-habla-del-tiempo.wav,,,,,,,,,,,,,,,,,,,,,,416.037,418.6857,0,1,2.1163,,0,83,83,60,1,0,mexican,,,,,,,,,,,,,,,,,,,,,,,,,,,,,,,,,,,,,,,,,,,,,,,,,,,,,,,,
,,,,,,,,,5f8f0ae15fe9e60fbbbaead9,Spanish,13 or older,"no, only English or Spanish",yes,2025-08-12_11h21.45.069,empathy_intonation_perc,2024.2.4,Win32,59.88023952,5f8f0ae15fe9e60fbbbaead9,687ed1b7e638a4cbf2f02089,689b84794c1795fd57327e9f,,,,,,,,,,,,,4,1,,./stim/wavs/castilian_match_interrogative-total-yn_Maria-bebe-el-vino.wav,,,,,,,,,,,,,,,,,,,,,,418.686,420.8186,1,1,1.5999,,0,84,84,3,1,0,castilian,,,,,,,,,,,,,,,,,,,,,,,,,,,,,,,,,,,,,,,,,,,,,,,,,,,,,,,,
,,,,,,,,,5f8f0ae15fe9e60fbbbaead9,Spanish,13 or older,"no, only English or Spanish",yes,2025-08-12_11h21.45.069,empathy_intonation_perc,2024.2.4,Win32,59.88023952,5f8f0ae15fe9e60fbbbaead9,687ed1b7e638a4cbf2f02089,689b84794c1795fd57327e9f,,,,,,,,,,,,,20,1,,./stim/wavs/puertorican_match_interrogative-total-yn_Daniel-iba-a-Bolivia.wav,,,,,,,,,,,,,,,,,,,,,,420.8189,423.0849,0,0,1.747,,0,85,85,19,1,1,puertorican,,,,,,,,,,,,,,,,,,,,,,,,,,,,,,,,,,,,,,,,,,,,,,,,,,,,,,,,
,,,,,,,,,5f8f0ae15fe9e60fbbbaead9,Spanish,13 or older,"no, only English or Spanish",yes,2025-08-12_11h21.45.069,empathy_intonation_perc,2024.2.4,Win32,59.88023952,5f8f0ae15fe9e60fbbbaead9,687ed1b7e638a4cbf2f02089,689b84794c1795fd57327e9f,,,,,,,,,,,,,45,0,,./stim/wavs/castilian_match_declarative-broad-focus_David-leia-el-libro.wav,,,,,,,,,,,,,,,,,,,,,,423.0853,425.383,0,1,1.7648,,0,86,86,44,1,0,castilian,,,,,,,,,,,,,,,,,,,,,,,,,,,,,,,,,,,,,,,,,,,,,,,,,,,,,,,,
,,,,,,,,,5f8f0ae15fe9e60fbbbaead9,Spanish,13 or older,"no, only English or Spanish",yes,2025-08-12_11h21.45.069,empathy_intonation_perc,2024.2.4,Win32,59.88023952,5f8f0ae15fe9e60fbbbaead9,687ed1b7e638a4cbf2f02089,689b84794c1795fd57327e9f,,,,,,,,,,,,,58,0,,./stim/wavs/mexican_match_declarative-broad-focus_Daniel-iba-a-Bolivia.wav,,,,,,,,,,,,,,,,,,,,,,425.3834,427.6146,0,1,1.7059,,0,87,87,57,1,0,mexican,,,,,,,,,,,,,,,,,,,,,,,,,,,,,,,,,,,,,,,,,,,,,,,,,,,,,,,,
,,,,,,,"Great! Now we will move on. The next task consists of about 60 trials, in each of which you will see a string of letters. 
  
  Your task is to decide whether this is a real Spanish word or not.", (press the spacebar to continue),5f8f0ae15fe9e60fbbbaead9,Spanish,13 or older,"no, only English or Spanish",yes,2025-08-12_11h21.45.069,empathy_intonation_perc,2024.2.4,Win32,59.88023952,5f8f0ae15fe9e60fbbbaead9,687ed1b7e638a4cbf2f02089,689b84794c1795fd57327e9f,,,,,,,,,,,,,,,,,,,,,,,,,,,,,,,,,,,,,,,,,,,,,,,,,,,427.618,432.4638,0,0,0,0,1,,,,,,,,,,,,,,,,,,,,,,,,,,,,,,,,,,,,,,,,,,,,,,,,,
,,,,,,,"If you think it is an existing Spanish word, you type '1' (for 'REAL'), and if you think it is not an existing Spanish word, you type '0' (for 'FAKE').", (press the spacebar to continue),5f8f0ae15fe9e60fbbbaead9,Spanish,13 or older,"no, only English or Spanish",yes,2025-08-12_11h21.45.069,empathy_intonation_perc,2024.2.4,Win32,59.88023952,5f8f0ae15fe9e60fbbbaead9,687ed1b7e638a4cbf2f02089,689b84794c1795fd57327e9f,,,,,,,,,,,,,,,,,,,,,,,,,,,,,,,,,,,,,,,,,,,,,,,,,,,432.4651,434.8826,0,1,1,1,1,,,,,,,,,,,,,,,,,,,,,,,,,,,,,,,,,,,,,,,,,,,,,,,,,
,,,,,,,"If you are sure that the word exists, even though you don’t know its exact meaning, you may still respond '1' (REAL). 
  
  But if you are not sure if it is an existing word, you should respond '0' (FAKE).
  
  Let's do a practice round...", (press the spacebar to continue),5f8f0ae15fe9e60fbbbaead9,Spanish,13 or older,"no, only English or Spanish",yes,2025-08-12_11h21.45.069,empathy_intonation_perc,2024.2.4,Win32,59.88023952,5f8f0ae15fe9e60fbbbaead9,687ed1b7e638a4cbf2f02089,689b84794c1795fd57327e9f,,,,,,,,,,,,,,,,,,,,,,,,,,,,,,,,,,,,,,,,,,,,,,,,,,,434.8839,452.446,0,2,2,2,1,,,,,,,,,,,,,,,,,,,,,,,,,,,,,,,,,,,,,,,,,,,,,,,,,
,,,,,,,,,5f8f0ae15fe9e60fbbbaead9,Spanish,13 or older,"no, only English or Spanish",yes,2025-08-12_11h21.45.069,empathy_intonation_perc,2024.2.4,Win32,59.88023952,5f8f0ae15fe9e60fbbbaead9,687ed1b7e638a4cbf2f02089,689b84794c1795fd57327e9f,,,,,,,,,,,,,,0,,,,,,,,,,,,,,,,,,,,,,,,,,,,,,,,,,,,,,,,,,,,452.449,454.6594,0,1,1.6701,,454.6597,455.6619,0,0,0,0,1,0,depiste,REAL,FAKE,,,,,,,,,,,,,,,,,,,,,,,,,,,,,,,,
,,,,,,,,,5f8f0ae15fe9e60fbbbaead9,Spanish,13 or older,"no, only English or Spanish",yes,2025-08-12_11h21.45.069,empathy_intonation_perc,2024.2.4,Win32,59.88023952,5f8f0ae15fe9e60fbbbaead9,687ed1b7e638a4cbf2f02089,689b84794c1795fd57327e9f,,,,,,,,,,,,,,1,,,,,,,,,,,,,,,,,,,,,,,,,,,,,,,,,,,,,,,,,,,,455.6642,457.0453,1,1,0.8506,,457.0454,458.0417,0,1,1,1,1,0,sí,REAL,FAKE,,,,,,,,,,,,,,,,,,,,,,,,,,,,,,,,
,,,,,,,,,5f8f0ae15fe9e60fbbbaead9,Spanish,13 or older,"no, only English or Spanish",yes,2025-08-12_11h21.45.069,empathy_intonation_perc,2024.2.4,Win32,59.88023952,5f8f0ae15fe9e60fbbbaead9,687ed1b7e638a4cbf2f02089,689b84794c1795fd57327e9f,,,,,,,,,,,,,,0,,,,,,,,,,,,,,,,,,,,,,,,,,,,,,,,,,,,,,,,,,,,458.0428,459.7779,1,0,1.2004,,459.7786,460.7771,0,2,2,2,1,0,coné,REAL,FAKE,,,,,,,,,,,,,,,,,,,,,,,,,,,,,,,,
,,,,,,,,,5f8f0ae15fe9e60fbbbaead9,Spanish,13 or older,"no, only English or Spanish",yes,2025-08-12_11h21.45.069,empathy_intonation_perc,2024.2.4,Win32,59.88023952,5f8f0ae15fe9e60fbbbaead9,687ed1b7e638a4cbf2f02089,689b84794c1795fd57327e9f,,,,,,,,,,,,,,0,,,,,,,,,,,,,,,,,,,,,,,,,,,,,,,,,,,,,,,,,,,,460.7778,462.191,0,1,0.8959,,462.1915,463.1937,0,3,3,3,1,0,calpar,REAL,FAKE,,,,,,,,,,,,,,,,,,,,,,,,,,,,,,,,
,,,,,,,,,5f8f0ae15fe9e60fbbbaead9,Spanish,13 or older,"no, only English or Spanish",yes,2025-08-12_11h21.45.069,empathy_intonation_perc,2024.2.4,Win32,59.88023952,5f8f0ae15fe9e60fbbbaead9,687ed1b7e638a4cbf2f02089,689b84794c1795fd57327e9f,,,,,,,,,,,,,,0,,,,,,,,,,,,,,,,,,,,,,,,,,,,,,,,,,,,,,,,,,,,463.1945,464.7438,0,1,1.0171,,464.7438,465.7432,0,4,4,4,1,0,joten,REAL,FAKE,,,,,,,,,,,,,,,,,,,,,,,,,,,,,,,,
,,,,,,,,,5f8f0ae15fe9e60fbbbaead9,Spanish,13 or older,"no, only English or Spanish",yes,2025-08-12_11h21.45.069,empathy_intonation_perc,2024.2.4,Win32,59.88023952,5f8f0ae15fe9e60fbbbaead9,687ed1b7e638a4cbf2f02089,689b84794c1795fd57327e9f,,,,,,,,,,,,,,1,,,,,,,,,,,,,,,,,,,,,,,,,,,,,,,,,,,,,,,,,,,,465.7441,467.2735,1,1,0.9879,,467.2736,468.2763,0,5,5,5,1,0,sacapuntas,REAL,FAKE,,,,,,,,,,,,,,,,,,,,,,,,,,,,,,,,
,,,,,,,,,5f8f0ae15fe9e60fbbbaead9,Spanish,13 or older,"no, only English or Spanish",yes,2025-08-12_11h21.45.069,empathy_intonation_perc,2024.2.4,Win32,59.88023952,5f8f0ae15fe9e60fbbbaead9,687ed1b7e638a4cbf2f02089,689b84794c1795fd57327e9f,,,,,,,,,,,,,,0,,,,,,,,,,,,,,,,,,,,,,,,,,,,,,,,,,,,,,,,,,,,468.2771,469.5758,0,1,0.767,,469.5758,470.5728,0,6,6,6,1,0,priba,REAL,FAKE,,,,,,,,,,,,,,,,,,,,,,,,,,,,,,,,
,,,,,,,,,5f8f0ae15fe9e60fbbbaead9,Spanish,13 or older,"no, only English or Spanish",yes,2025-08-12_11h21.45.069,empathy_intonation_perc,2024.2.4,Win32,59.88023952,5f8f0ae15fe9e60fbbbaead9,687ed1b7e638a4cbf2f02089,689b84794c1795fd57327e9f,,,,,,,,,,,,,,0,,,,,,,,,,,,,,,,,,,,,,,,,,,,,,,,,,,,,,,,,,,,470.5739,471.9099,1,0,0.8015,,471.9103,472.9054,0,7,7,7,1,0,pelasula,REAL,FAKE,,,,,,,,,,,,,,,,,,,,,,,,,,,,,,,,
,,,,,,,,,5f8f0ae15fe9e60fbbbaead9,Spanish,13 or older,"no, only English or Spanish",yes,2025-08-12_11h21.45.069,empathy_intonation_perc,2024.2.4,Win32,59.88023952,5f8f0ae15fe9e60fbbbaead9,687ed1b7e638a4cbf2f02089,689b84794c1795fd57327e9f,,,,,,,,,,,,,,1,,,,,,,,,,,,,,,,,,,,,,,,,,,,,,,,,,,,,,,,,,,,472.9066,474.5078,0,0,1.0663,,474.5078,475.5077,0,8,8,8,1,0,bien,REAL,FAKE,,,,,,,,,,,,,,,,,,,,,,,,,,,,,,,,
,,,,,,,,,5f8f0ae15fe9e60fbbbaead9,Spanish,13 or older,"no, only English or Spanish",yes,2025-08-12_11h21.45.069,empathy_intonation_perc,2024.2.4,Win32,59.88023952,5f8f0ae15fe9e60fbbbaead9,687ed1b7e638a4cbf2f02089,689b84794c1795fd57327e9f,,,,,,,,,,,,,,1,,,,,,,,,,,,,,,,,,,,,,,,,,,,,,,,,,,,,,,,,,,,475.5083,476.775,1,1,0.7339,,476.7754,477.7742,0,9,9,9,1,0,casa,REAL,FAKE,,,,,,,,,,,,,,,,,,,,,,,,,,,,,,,,
,,,,,,,,,5f8f0ae15fe9e60fbbbaead9,Spanish,13 or older,"no, only English or Spanish",yes,2025-08-12_11h21.45.069,empathy_intonation_perc,2024.2.4,Win32,59.88023952,5f8f0ae15fe9e60fbbbaead9,687ed1b7e638a4cbf2f02089,689b84794c1795fd57327e9f,,,,,,,,,,,,,,0,,,,,,,,,,,,,,,,,,,,,,,,,,,,,,,,,,,,,,,,,,,,477.7747,479.1907,0,1,0.8836,,479.1908,480.1869,0,10,10,10,1,0,lejo,REAL,FAKE,,,,,,,,,,,,,,,,,,,,,,,,,,,,,,,,
,,,,,,,,,5f8f0ae15fe9e60fbbbaead9,Spanish,13 or older,"no, only English or Spanish",yes,2025-08-12_11h21.45.069,empathy_intonation_perc,2024.2.4,Win32,59.88023952,5f8f0ae15fe9e60fbbbaead9,687ed1b7e638a4cbf2f02089,689b84794c1795fd57327e9f,,,,,,,,,,,,,,0,,,,,,,,,,,,,,,,,,,,,,,,,,,,,,,,,,,,,,,,,,,,480.1881,481.5368,0,1,0.8245,,481.5369,482.5371,0,11,11,11,1,0,pretantas,REAL,FAKE,,,,,,,,,,,,,,,,,,,,,,,,,,,,,,,,
,,,,,,,,,5f8f0ae15fe9e60fbbbaead9,Spanish,13 or older,"no, only English or Spanish",yes,2025-08-12_11h21.45.069,empathy_intonation_perc,2024.2.4,Win32,59.88023952,5f8f0ae15fe9e60fbbbaead9,687ed1b7e638a4cbf2f02089,689b84794c1795fd57327e9f,,,,,,,,,,,,,,,,,,,,,,,,,,,,,,,,,,,,,,,,,,,,,,,,,,,,,,,,,,,,,,,,,,,,,,,,,,,482.5376,485.0369,,,,,,,,,,,,,,,,,,,,,,,,,,,,,,
,,,,,,,,,5f8f0ae15fe9e60fbbbaead9,Spanish,13 or older,"no, only English or Spanish",yes,2025-08-12_11h21.45.069,empathy_intonation_perc,2024.2.4,Win32,59.88023952,5f8f0ae15fe9e60fbbbaead9,687ed1b7e638a4cbf2f02089,689b84794c1795fd57327e9f,,,,,,,,,,,,,,0,,,,,,,,,,,,,,,,,,,,,,,,,,,,,,,,,,,,,,,,,,,,,,,,,,,,,,,,,32,fatacidad,,,,,485.0418,486.6559,0,1,1.083,,0,0,0,31,1,REAL,FAKE,,,,,,,,,,,,,,,,,
,,,,,,,,,5f8f0ae15fe9e60fbbbaead9,Spanish,13 or older,"no, only English or Spanish",yes,2025-08-12_11h21.45.069,empathy_intonation_perc,2024.2.4,Win32,59.88023952,5f8f0ae15fe9e60fbbbaead9,687ed1b7e638a4cbf2f02089,689b84794c1795fd57327e9f,,,,,,,,,,,,,,0,,,,,,,,,,,,,,,,,,,,,,,,,,,,,,,,,,,,,,,,,,,,,,,,,,,,,,,,,10,antar,,,,,486.6566,488.1192,0,1,0.9198,,0,1,1,9,1,REAL,FAKE,,,,,,,,,,,,,,,,,
,,,,,,,,,5f8f0ae15fe9e60fbbbaead9,Spanish,13 or older,"no, only English or Spanish",yes,2025-08-12_11h21.45.069,empathy_intonation_perc,2024.2.4,Win32,59.88023952,5f8f0ae15fe9e60fbbbaead9,687ed1b7e638a4cbf2f02089,689b84794c1795fd57327e9f,,,,,,,,,,,,,,1,,,,,,,,,,,,,,,,,,,,,,,,,,,,,,,,,,,,,,,,,,,,,,,,,,,,,,,,,34,aviso,,,,,488.1202,489.5854,1,1,0.941,,0,2,2,33,1,REAL,FAKE,,,,,,,,,,,,,,,,,
,,,,,,,,,5f8f0ae15fe9e60fbbbaead9,Spanish,13 or older,"no, only English or Spanish",yes,2025-08-12_11h21.45.069,empathy_intonation_perc,2024.2.4,Win32,59.88023952,5f8f0ae15fe9e60fbbbaead9,687ed1b7e638a4cbf2f02089,689b84794c1795fd57327e9f,,,,,,,,,,,,,,1,,,,,,,,,,,,,,,,,,,,,,,,,,,,,,,,,,,,,,,,,,,,,,,,,,,,,,,,,26,secuestro,,,,,489.5863,491.1717,0,0,1.0503,,0,3,3,25,1,REAL,FAKE,,,,,,,,,,,,,,,,,
,,,,,,,,,5f8f0ae15fe9e60fbbbaead9,Spanish,13 or older,"no, only English or Spanish",yes,2025-08-12_11h21.45.069,empathy_intonation_perc,2024.2.4,Win32,59.88023952,5f8f0ae15fe9e60fbbbaead9,687ed1b7e638a4cbf2f02089,689b84794c1795fd57327e9f,,,,,,,,,,,,,,1,,,,,,,,,,,,,,,,,,,,,,,,,,,,,,,,,,,,,,,,,,,,,,,,,,,,,,,,,62,flaco,,,,,491.1723,492.9714,0,0,1.2671,,0,4,4,61,1,REAL,FAKE,,,,,,,,,,,,,,,,,
,,,,,,,,,5f8f0ae15fe9e60fbbbaead9,Spanish,13 or older,"no, only English or Spanish",yes,2025-08-12_11h21.45.069,empathy_intonation_perc,2024.2.4,Win32,59.88023952,5f8f0ae15fe9e60fbbbaead9,687ed1b7e638a4cbf2f02089,689b84794c1795fd57327e9f,,,,,,,,,,,,,,1,,,,,,,,,,,,,,,,,,,,,,,,,,,,,,,,,,,,,,,,,,,,,,,,,,,,,,,,,22,lacayo,,,,,492.972,494.7712,1,1,1.2671,,0,5,5,21,1,REAL,FAKE,,,,,,,,,,,,,,,,,
,,,,,,,,,5f8f0ae15fe9e60fbbbaead9,Spanish,13 or older,"no, only English or Spanish",yes,2025-08-12_11h21.45.069,empathy_intonation_perc,2024.2.4,Win32,59.88023952,5f8f0ae15fe9e60fbbbaead9,687ed1b7e638a4cbf2f02089,689b84794c1795fd57327e9f,,,,,,,,,,,,,,1,,,,,,,,,,,,,,,,,,,,,,,,,,,,,,,,,,,,,,,,,,,,,,,,,,,,,,,,,54,fomentar,,,,,494.7719,496.8541,0,0,1.5502,,0,6,6,53,1,REAL,FAKE,,,,,,,,,,,,,,,,,
,,,,,,,,,5f8f0ae15fe9e60fbbbaead9,Spanish,13 or older,"no, only English or Spanish",yes,2025-08-12_11h21.45.069,empathy_intonation_perc,2024.2.4,Win32,59.88023952,5f8f0ae15fe9e60fbbbaead9,687ed1b7e638a4cbf2f02089,689b84794c1795fd57327e9f,,,,,,,,,,,,,,1,,,,,,,,,,,,,,,,,,,,,,,,,,,,,,,,,,,,,,,,,,,,,,,,,,,,,,,,,67,cabello,,,,,496.8546,498.6207,1,1,1.2342,,0,7,7,66,1,REAL,FAKE,,,,,,,,,,,,,,,,,
,,,,,,,,,5f8f0ae15fe9e60fbbbaead9,Spanish,13 or older,"no, only English or Spanish",yes,2025-08-12_11h21.45.069,empathy_intonation_perc,2024.2.4,Win32,59.88023952,5f8f0ae15fe9e60fbbbaead9,687ed1b7e638a4cbf2f02089,689b84794c1795fd57327e9f,,,,,,,,,,,,,,0,,,,,,,,,,,,,,,,,,,,,,,,,,,,,,,,,,,,,,,,,,,,,,,,,,,,,,,,,27,acutación,,,,,498.6218,500.2206,1,0,1.0675,,0,8,8,26,1,REAL,FAKE,,,,,,,,,,,,,,,,,
,,,,,,,,,5f8f0ae15fe9e60fbbbaead9,Spanish,13 or older,"no, only English or Spanish",yes,2025-08-12_11h21.45.069,empathy_intonation_perc,2024.2.4,Win32,59.88023952,5f8f0ae15fe9e60fbbbaead9,687ed1b7e638a4cbf2f02089,689b84794c1795fd57327e9f,,,,,,,,,,,,,,1,,,,,,,,,,,,,,,,,,,,,,,,,,,,,,,,,,,,,,,,,,,,,,,,,,,,,,,,,78,frondoso,,,,,500.2214,501.8692,0,0,1.1165,,0,9,9,77,1,REAL,FAKE,,,,,,,,,,,,,,,,,
,,,,,,,,,5f8f0ae15fe9e60fbbbaead9,Spanish,13 or older,"no, only English or Spanish",yes,2025-08-12_11h21.45.069,empathy_intonation_perc,2024.2.4,Win32,59.88023952,5f8f0ae15fe9e60fbbbaead9,687ed1b7e638a4cbf2f02089,689b84794c1795fd57327e9f,,,,,,,,,,,,,,1,,,,,,,,,,,,,,,,,,,,,,,,,,,,,,,,,,,,,,,,,,,,,,,,,,,,,,,,,88,acantilado,,,,,501.8699,504.1858,1,1,1.7832,,0,10,10,87,1,REAL,FAKE,,,,,,,,,,,,,,,,,
,,,,,,,,,5f8f0ae15fe9e60fbbbaead9,Spanish,13 or older,"no, only English or Spanish",yes,2025-08-12_11h21.45.069,empathy_intonation_perc,2024.2.4,Win32,59.88023952,5f8f0ae15fe9e60fbbbaead9,687ed1b7e638a4cbf2f02089,689b84794c1795fd57327e9f,,,,,,,,,,,,,,0,,,,,,,,,,,,,,,,,,,,,,,,,,,,,,,,,,,,,,,,,,,,,,,,,,,,,,,,,21,capillo,,,,,504.1864,505.9193,1,0,1.2008,,0,11,11,20,1,REAL,FAKE,,,,,,,,,,,,,,,,,
,,,,,,,,,5f8f0ae15fe9e60fbbbaead9,Spanish,13 or older,"no, only English or Spanish",yes,2025-08-12_11h21.45.069,empathy_intonation_perc,2024.2.4,Win32,59.88023952,5f8f0ae15fe9e60fbbbaead9,687ed1b7e638a4cbf2f02089,689b84794c1795fd57327e9f,,,,,,,,,,,,,,1,,,,,,,,,,,,,,,,,,,,,,,,,,,,,,,,,,,,,,,,,,,,,,,,,,,,,,,,,81,pozo,,,,,505.9203,507.3514,0,0,0.9,,0,12,12,80,1,REAL,FAKE,,,,,,,,,,,,,,,,,
,,,,,,,,,5f8f0ae15fe9e60fbbbaead9,Spanish,13 or older,"no, only English or Spanish",yes,2025-08-12_11h21.45.069,empathy_intonation_perc,2024.2.4,Win32,59.88023952,5f8f0ae15fe9e60fbbbaead9,687ed1b7e638a4cbf2f02089,689b84794c1795fd57327e9f,,,,,,,,,,,,,,1,,,,,,,,,,,,,,,,,,,,,,,,,,,,,,,,,,,,,,,,,,,,,,,,,,,,,,,,,2,pellizcar,,,,,507.3523,509.0843,0,0,1.1995,,0,13,13,1,1,REAL,FAKE,,,,,,,,,,,,,,,,,
,,,,,,,,,5f8f0ae15fe9e60fbbbaead9,Spanish,13 or older,"no, only English or Spanish",yes,2025-08-12_11h21.45.069,empathy_intonation_perc,2024.2.4,Win32,59.88023952,5f8f0ae15fe9e60fbbbaead9,687ed1b7e638a4cbf2f02089,689b84794c1795fd57327e9f,,,,,,,,,,,,,,0,,,,,,,,,,,,,,,,,,,,,,,,,,,,,,,,,,,,,,,,,,,,,,,,,,,,,,,,,70,temblo,,,,,509.0851,510.9509,0,1,1.3502,,0,14,14,69,1,REAL,FAKE,,,,,,,,,,,,,,,,,
,,,,,,,,,5f8f0ae15fe9e60fbbbaead9,Spanish,13 or older,"no, only English or Spanish",yes,2025-08-12_11h21.45.069,empathy_intonation_perc,2024.2.4,Win32,59.88023952,5f8f0ae15fe9e60fbbbaead9,687ed1b7e638a4cbf2f02089,689b84794c1795fd57327e9f,,,,,,,,,,,,,,1,,,,,,,,,,,,,,,,,,,,,,,,,,,,,,,,,,,,,,,,,,,,,,,,,,,,,,,,,37,granuja,,,,,510.9515,512.5474,1,1,1.0551,,0,15,15,36,1,REAL,FAKE,,,,,,,,,,,,,,,,,
,,,,,,,,,5f8f0ae15fe9e60fbbbaead9,Spanish,13 or older,"no, only English or Spanish",yes,2025-08-12_11h21.45.069,empathy_intonation_perc,2024.2.4,Win32,59.88023952,5f8f0ae15fe9e60fbbbaead9,687ed1b7e638a4cbf2f02089,689b84794c1795fd57327e9f,,,,,,,,,,,,,,0,,,,,,,,,,,,,,,,,,,,,,,,,,,,,,,,,,,,,,,,,,,,,,,,,,,,,,,,,17,floroso,,,,,512.5486,514.1507,0,1,1.084,,0,16,16,16,1,REAL,FAKE,,,,,,,,,,,,,,,,,
,,,,,,,,,5f8f0ae15fe9e60fbbbaead9,Spanish,13 or older,"no, only English or Spanish",yes,2025-08-12_11h21.45.069,empathy_intonation_perc,2024.2.4,Win32,59.88023952,5f8f0ae15fe9e60fbbbaead9,687ed1b7e638a4cbf2f02089,689b84794c1795fd57327e9f,,,,,,,,,,,,,,0,,,,,,,,,,,,,,,,,,,,,,,,,,,,,,,,,,,,,,,,,,,,,,,,,,,,,,,,,53,vegada,,,,,514.1515,516.5164,1,0,1.8328,,0,17,17,52,1,REAL,FAKE,,,,,,,,,,,,,,,,,
,,,,,,,,,5f8f0ae15fe9e60fbbbaead9,Spanish,13 or older,"no, only English or Spanish",yes,2025-08-12_11h21.45.069,empathy_intonation_perc,2024.2.4,Win32,59.88023952,5f8f0ae15fe9e60fbbbaead9,687ed1b7e638a4cbf2f02089,689b84794c1795fd57327e9f,,,,,,,,,,,,,,1,,,,,,,,,,,,,,,,,,,,,,,,,,,,,,,,,,,,,,,,,,,,,,,,,,,,,,,,,64,orgulloso,,,,,516.517,518.0165,0,0,0.9671,,0,18,18,63,1,REAL,FAKE,,,,,,,,,,,,,,,,,
,,,,,,,,,5f8f0ae15fe9e60fbbbaead9,Spanish,13 or older,"no, only English or Spanish",yes,2025-08-12_11h21.45.069,empathy_intonation_perc,2024.2.4,Win32,59.88023952,5f8f0ae15fe9e60fbbbaead9,687ed1b7e638a4cbf2f02089,689b84794c1795fd57327e9f,,,,,,,,,,,,,,1,,,,,,,,,,,,,,,,,,,,,,,,,,,,,,,,,,,,,,,,,,,,,,,,,,,,,,,,,69,engatusar,,,,,518.0173,519.6796,1,1,1.1203,,0,19,19,68,1,REAL,FAKE,,,,,,,,,,,,,,,,,
,,,,,,,,,5f8f0ae15fe9e60fbbbaead9,Spanish,13 or older,"no, only English or Spanish",yes,2025-08-12_11h21.45.069,empathy_intonation_perc,2024.2.4,Win32,59.88023952,5f8f0ae15fe9e60fbbbaead9,687ed1b7e638a4cbf2f02089,689b84794c1795fd57327e9f,,,,,,,,,,,,,,1,,,,,,,,,,,,,,,,,,,,,,,,,,,,,,,,,,,,,,,,,,,,,,,,,,,,,,,,,76,atar,,,,,519.6803,521.2993,0,0,1.084,,0,20,20,75,1,REAL,FAKE,,,,,,,,,,,,,,,,,
,,,,,,,,,5f8f0ae15fe9e60fbbbaead9,Spanish,13 or older,"no, only English or Spanish",yes,2025-08-12_11h21.45.069,empathy_intonation_perc,2024.2.4,Win32,59.88023952,5f8f0ae15fe9e60fbbbaead9,687ed1b7e638a4cbf2f02089,689b84794c1795fd57327e9f,,,,,,,,,,,,,,0,,,,,,,,,,,,,,,,,,,,,,,,,,,,,,,,,,,,,,,,,,,,,,,,,,,,,,,,,87,grodo,,,,,521.3,522.9287,0,1,1.0932,,0,21,21,86,1,REAL,FAKE,,,,,,,,,,,,,,,,,
,,,,,,,,,5f8f0ae15fe9e60fbbbaead9,Spanish,13 or older,"no, only English or Spanish",yes,2025-08-12_11h21.45.069,empathy_intonation_perc,2024.2.4,Win32,59.88023952,5f8f0ae15fe9e60fbbbaead9,687ed1b7e638a4cbf2f02089,689b84794c1795fd57327e9f,,,,,,,,,,,,,,0,,,,,,,,,,,,,,,,,,,,,,,,,,,,,,,,,,,,,,,,,,,,,,,,,,,,,,,,,1,terzo,,,,,522.93,524.7485,0,1,1.2999,,0,22,22,0,1,REAL,FAKE,,,,,,,,,,,,,,,,,
,,,,,,,,,5f8f0ae15fe9e60fbbbaead9,Spanish,13 or older,"no, only English or Spanish",yes,2025-08-12_11h21.45.069,empathy_intonation_perc,2024.2.4,Win32,59.88023952,5f8f0ae15fe9e60fbbbaead9,687ed1b7e638a4cbf2f02089,689b84794c1795fd57327e9f,,,,,,,,,,,,,,1,,,,,,,,,,,,,,,,,,,,,,,,,,,,,,,,,,,,,,,,,,,,,,,,,,,,,,,,,56,musgo,,,,,524.7493,526.598,0,0,1.3168,,0,23,23,55,1,REAL,FAKE,,,,,,,,,,,,,,,,,
,,,,,,,,,5f8f0ae15fe9e60fbbbaead9,Spanish,13 or older,"no, only English or Spanish",yes,2025-08-12_11h21.45.069,empathy_intonation_perc,2024.2.4,Win32,59.88023952,5f8f0ae15fe9e60fbbbaead9,687ed1b7e638a4cbf2f02089,689b84794c1795fd57327e9f,,,,,,,,,,,,,,0,,,,,,,,,,,,,,,,,,,,,,,,,,,,,,,,,,,,,,,,,,,,,,,,,,,,,,,,,8,cadeña,,,,,526.5988,528.0949,1,0,0.9545,,0,24,24,7,1,REAL,FAKE,,,,,,,,,,,,,,,,,
,,,,,,,,,5f8f0ae15fe9e60fbbbaead9,Spanish,13 or older,"no, only English or Spanish",yes,2025-08-12_11h21.45.069,empathy_intonation_perc,2024.2.4,Win32,59.88023952,5f8f0ae15fe9e60fbbbaead9,687ed1b7e638a4cbf2f02089,689b84794c1795fd57327e9f,,,,,,,,,,,,,,1,,,,,,,,,,,,,,,,,,,,,,,,,,,,,,,,,,,,,,,,,,,,,,,,,,,,,,,,,89,prisa,,,,,528.0956,529.947,0,0,1.3165,,0,25,25,88,1,REAL,FAKE,,,,,,,,,,,,,,,,,
,,,,,,,,,5f8f0ae15fe9e60fbbbaead9,Spanish,13 or older,"no, only English or Spanish",yes,2025-08-12_11h21.45.069,empathy_intonation_perc,2024.2.4,Win32,59.88023952,5f8f0ae15fe9e60fbbbaead9,687ed1b7e638a4cbf2f02089,689b84794c1795fd57327e9f,,,,,,,,,,,,,,1,,,,,,,,,,,,,,,,,,,,,,,,,,,,,,,,,,,,,,,,,,,,,,,,,,,,,,,,,9,hacha,,,,,529.9476,531.9137,0,0,1.4503,,0,26,26,8,1,REAL,FAKE,,,,,,,,,,,,,,,,,
,,,,,,,,,5f8f0ae15fe9e60fbbbaead9,Spanish,13 or older,"no, only English or Spanish",yes,2025-08-12_11h21.45.069,empathy_intonation_perc,2024.2.4,Win32,59.88023952,5f8f0ae15fe9e60fbbbaead9,687ed1b7e638a4cbf2f02089,689b84794c1795fd57327e9f,,,,,,,,,,,,,,1,,,,,,,,,,,,,,,,,,,,,,,,,,,,,,,,,,,,,,,,,,,,,,,,,,,,,,,,,13,helar,,,,,531.9143,533.4299,1,1,0.9837,,0,27,27,12,1,REAL,FAKE,,,,,,,,,,,,,,,,,
,,,,,,,,,5f8f0ae15fe9e60fbbbaead9,Spanish,13 or older,"no, only English or Spanish",yes,2025-08-12_11h21.45.069,empathy_intonation_perc,2024.2.4,Win32,59.88023952,5f8f0ae15fe9e60fbbbaead9,687ed1b7e638a4cbf2f02089,689b84794c1795fd57327e9f,,,,,,,,,,,,,,1,,,,,,,,,,,,,,,,,,,,,,,,,,,,,,,,,,,,,,,,,,,,,,,,,,,,,,,,,90,clavel,,,,,533.4307,535.13,1,1,1.1675,,0,28,28,89,1,REAL,FAKE,,,,,,,,,,,,,,,,,
,,,,,,,,,5f8f0ae15fe9e60fbbbaead9,Spanish,13 or older,"no, only English or Spanish",yes,2025-08-12_11h21.45.069,empathy_intonation_perc,2024.2.4,Win32,59.88023952,5f8f0ae15fe9e60fbbbaead9,687ed1b7e638a4cbf2f02089,689b84794c1795fd57327e9f,,,,,,,,,,,,,,1,,,,,,,,,,,,,,,,,,,,,,,,,,,,,,,,,,,,,,,,,,,,,,,,,,,,,,,,,6,tergiversar,,,,,535.1306,537.0759,1,1,1.4064,,0,29,29,5,1,REAL,FAKE,,,,,,,,,,,,,,,,,
,,,,,,,,,5f8f0ae15fe9e60fbbbaead9,Spanish,13 or older,"no, only English or Spanish",yes,2025-08-12_11h21.45.069,empathy_intonation_perc,2024.2.4,Win32,59.88023952,5f8f0ae15fe9e60fbbbaead9,687ed1b7e638a4cbf2f02089,689b84794c1795fd57327e9f,,,,,,,,,,,,,,0,,,,,,,,,,,,,,,,,,,,,,,,,,,,,,,,,,,,,,,,,,,,,,,,,,,,,,,,,23,lampera,,,,,537.0769,539.1925,1,0,1.5845,,0,30,30,22,1,REAL,FAKE,,,,,,,,,,,,,,,,,
,,,,,,,,,5f8f0ae15fe9e60fbbbaead9,Spanish,13 or older,"no, only English or Spanish",yes,2025-08-12_11h21.45.069,empathy_intonation_perc,2024.2.4,Win32,59.88023952,5f8f0ae15fe9e60fbbbaead9,687ed1b7e638a4cbf2f02089,689b84794c1795fd57327e9f,,,,,,,,,,,,,,1,,,,,,,,,,,,,,,,,,,,,,,,,,,,,,,,,,,,,,,,,,,,,,,,,,,,,,,,,83,guante,,,,,539.1932,540.6288,1,1,0.9005,,0,31,31,82,1,REAL,FAKE,,,,,,,,,,,,,,,,,
,,,,,,,,,5f8f0ae15fe9e60fbbbaead9,Spanish,13 or older,"no, only English or Spanish",yes,2025-08-12_11h21.45.069,empathy_intonation_perc,2024.2.4,Win32,59.88023952,5f8f0ae15fe9e60fbbbaead9,687ed1b7e638a4cbf2f02089,689b84794c1795fd57327e9f,,,,,,,,,,,,,,1,,,,,,,,,,,,,,,,,,,,,,,,,,,,,,,,,,,,,,,,,,,,,,,,,,,,,,,,,46,martillo,,,,,540.6294,542.5115,1,1,1.3497,,0,32,32,45,1,REAL,FAKE,,,,,,,,,,,,,,,,,
,,,,,,,,,5f8f0ae15fe9e60fbbbaead9,Spanish,13 or older,"no, only English or Spanish",yes,2025-08-12_11h21.45.069,empathy_intonation_perc,2024.2.4,Win32,59.88023952,5f8f0ae15fe9e60fbbbaead9,687ed1b7e638a4cbf2f02089,689b84794c1795fd57327e9f,,,,,,,,,,,,,,0,,,,,,,,,,,,,,,,,,,,,,,,,,,,,,,,,,,,,,,,,,,,,,,,,,,,,,,,,33,pauca,,,,,542.5121,543.9609,0,1,0.9167,,0,33,33,32,1,REAL,FAKE,,,,,,,,,,,,,,,,,
,,,,,,,,,5f8f0ae15fe9e60fbbbaead9,Spanish,13 or older,"no, only English or Spanish",yes,2025-08-12_11h21.45.069,empathy_intonation_perc,2024.2.4,Win32,59.88023952,5f8f0ae15fe9e60fbbbaead9,687ed1b7e638a4cbf2f02089,689b84794c1795fd57327e9f,,,,,,,,,,,,,,1,,,,,,,,,,,,,,,,,,,,,,,,,,,,,,,,,,,,,,,,,,,,,,,,,,,,,,,,,11,cenefa,,,,,543.9616,545.5611,1,1,1.067,,0,34,34,10,1,REAL,FAKE,,,,,,,,,,,,,,,,,
,,,,,,,,,5f8f0ae15fe9e60fbbbaead9,Spanish,13 or older,"no, only English or Spanish",yes,2025-08-12_11h21.45.069,empathy_intonation_perc,2024.2.4,Win32,59.88023952,5f8f0ae15fe9e60fbbbaead9,687ed1b7e638a4cbf2f02089,689b84794c1795fd57327e9f,,,,,,,,,,,,,,1,,,,,,,,,,,,,,,,,,,,,,,,,,,,,,,,,,,,,,,,,,,,,,,,,,,,,,,,,12,asesinato,,,,,545.5616,547.1402,1,1,1.04,,0,35,35,11,1,REAL,FAKE,,,,,,,,,,,,,,,,,
,,,,,,,,,5f8f0ae15fe9e60fbbbaead9,Spanish,13 or older,"no, only English or Spanish",yes,2025-08-12_11h21.45.069,empathy_intonation_perc,2024.2.4,Win32,59.88023952,5f8f0ae15fe9e60fbbbaead9,687ed1b7e638a4cbf2f02089,689b84794c1795fd57327e9f,,,,,,,,,,,,,,1,,,,,,,,,,,,,,,,,,,,,,,,,,,,,,,,,,,,,,,,,,,,,,,,,,,,,,,,,73,hervidor,,,,,547.1415,548.9434,0,0,1.2665,,0,36,36,72,1,REAL,FAKE,,,,,,,,,,,,,,,,,
,,,,,,,,,5f8f0ae15fe9e60fbbbaead9,Spanish,13 or older,"no, only English or Spanish",yes,2025-08-12_11h21.45.069,empathy_intonation_perc,2024.2.4,Win32,59.88023952,5f8f0ae15fe9e60fbbbaead9,687ed1b7e638a4cbf2f02089,689b84794c1795fd57327e9f,,,,,,,,,,,,,,0,,,,,,,,,,,,,,,,,,,,,,,,,,,,,,,,,,,,,,,,,,,,,,,,,,,,,,,,,63,esposante,,,,,548.9443,550.6404,1,0,1.1542,,0,37,37,62,1,REAL,FAKE,,,,,,,,,,,,,,,,,
,,,,,,,,,5f8f0ae15fe9e60fbbbaead9,Spanish,13 or older,"no, only English or Spanish",yes,2025-08-12_11h21.45.069,empathy_intonation_perc,2024.2.4,Win32,59.88023952,5f8f0ae15fe9e60fbbbaead9,687ed1b7e638a4cbf2f02089,689b84794c1795fd57327e9f,,,,,,,,,,,,,,1,,,,,,,,,,,,,,,,,,,,,,,,,,,,,,,,,,,,,,,,,,,,,,,,,,,,,,,,,65,bizcocho,,,,,550.6412,552.0765,0,0,0.9167,,0,38,38,64,1,REAL,FAKE,,,,,,,,,,,,,,,,,
,,,,,,,,,5f8f0ae15fe9e60fbbbaead9,Spanish,13 or older,"no, only English or Spanish",yes,2025-08-12_11h21.45.069,empathy_intonation_perc,2024.2.4,Win32,59.88023952,5f8f0ae15fe9e60fbbbaead9,687ed1b7e638a4cbf2f02089,689b84794c1795fd57327e9f,,,,,,,,,,,,,,0,,,,,,,,,,,,,,,,,,,,,,,,,,,,,,,,,,,,,,,,,,,,,,,,,,,,,,,,,82,empirador,,,,,552.0772,553.606,1,0,0.9937,,0,39,39,81,1,REAL,FAKE,,,,,,,,,,,,,,,,,
,,,,,,,,,5f8f0ae15fe9e60fbbbaead9,Spanish,13 or older,"no, only English or Spanish",yes,2025-08-12_11h21.45.069,empathy_intonation_perc,2024.2.4,Win32,59.88023952,5f8f0ae15fe9e60fbbbaead9,687ed1b7e638a4cbf2f02089,689b84794c1795fd57327e9f,,,,,,,,,,,,,,1,,,,,,,,,,,,,,,,,,,,,,,,,,,,,,,,,,,,,,,,,,,,,,,,,,,,,,,,,60,matar,,,,,553.6069,554.9092,0,0,0.7672,,0,40,40,59,1,REAL,FAKE,,,,,,,,,,,,,,,,,
,,,,,,,,,5f8f0ae15fe9e60fbbbaead9,Spanish,13 or older,"no, only English or Spanish",yes,2025-08-12_11h21.45.069,empathy_intonation_perc,2024.2.4,Win32,59.88023952,5f8f0ae15fe9e60fbbbaead9,687ed1b7e638a4cbf2f02089,689b84794c1795fd57327e9f,,,,,,,,,,,,,,0,,,,,,,,,,,,,,,,,,,,,,,,,,,,,,,,,,,,,,,,,,,,,,,,,,,,,,,,,74,cintro,,,,,554.9098,556.3424,0,1,0.9008,,0,41,41,73,1,REAL,FAKE,,,,,,,,,,,,,,,,,
,,,,,,,,,5f8f0ae15fe9e60fbbbaead9,Spanish,13 or older,"no, only English or Spanish",yes,2025-08-12_11h21.45.069,empathy_intonation_perc,2024.2.4,Win32,59.88023952,5f8f0ae15fe9e60fbbbaead9,687ed1b7e638a4cbf2f02089,689b84794c1795fd57327e9f,,,,,,,,,,,,,,1,,,,,,,,,,,,,,,,,,,,,,,,,,,,,,,,,,,,,,,,,,,,,,,,,,,,,,,,,38,estornudar,,,,,556.343,557.8381,1,1,0.9581,,0,42,42,37,1,REAL,FAKE,,,,,,,,,,,,,,,,,
,,,,,,,,,5f8f0ae15fe9e60fbbbaead9,Spanish,13 or older,"no, only English or Spanish",yes,2025-08-12_11h21.45.069,empathy_intonation_perc,2024.2.4,Win32,59.88023952,5f8f0ae15fe9e60fbbbaead9,687ed1b7e638a4cbf2f02089,689b84794c1795fd57327e9f,,,,,,,,,,,,,,1,,,,,,,,,,,,,,,,,,,,,,,,,,,,,,,,,,,,,,,,,,,,,,,,,,,,,,,,,86,barato,,,,,557.8398,559.375,0,0,0.9999,,0,43,43,85,1,REAL,FAKE,,,,,,,,,,,,,,,,,
,,,,,,,,,5f8f0ae15fe9e60fbbbaead9,Spanish,13 or older,"no, only English or Spanish",yes,2025-08-12_11h21.45.069,empathy_intonation_perc,2024.2.4,Win32,59.88023952,5f8f0ae15fe9e60fbbbaead9,687ed1b7e638a4cbf2f02089,689b84794c1795fd57327e9f,,,,,,,,,,,,,,1,,,,,,,,,,,,,,,,,,,,,,,,,,,,,,,,,,,,,,,,,,,,,,,,,,,,,,,,,25,bisagra,,,,,559.3756,560.7412,0,0,0.8332,,0,44,44,24,1,REAL,FAKE,,,,,,,,,,,,,,,,,
,,,,,,,,,5f8f0ae15fe9e60fbbbaead9,Spanish,13 or older,"no, only English or Spanish",yes,2025-08-12_11h21.45.069,empathy_intonation_perc,2024.2.4,Win32,59.88023952,5f8f0ae15fe9e60fbbbaead9,687ed1b7e638a4cbf2f02089,689b84794c1795fd57327e9f,,,,,,,,,,,,,,1,,,,,,,,,,,,,,,,,,,,,,,,,,,,,,,,,,,,,,,,,,,,,,,,,,,,,,,,,51,candado,,,,,560.7418,562.2239,1,1,0.9499,,0,45,45,50,1,REAL,FAKE,,,,,,,,,,,,,,,,,
,,,,,,,,,5f8f0ae15fe9e60fbbbaead9,Spanish,13 or older,"no, only English or Spanish",yes,2025-08-12_11h21.45.069,empathy_intonation_perc,2024.2.4,Win32,59.88023952,5f8f0ae15fe9e60fbbbaead9,687ed1b7e638a4cbf2f02089,689b84794c1795fd57327e9f,,,,,,,,,,,,,,1,,,,,,,,,,,,,,,,,,,,,,,,,,,,,,,,,,,,,,,,,,,,,,,,,,,,,,,,,52,camisa,,,,,562.2247,563.8237,1,1,1.0665,,0,46,46,51,1,REAL,FAKE,,,,,,,,,,,,,,,,,
,,,,,,,,,5f8f0ae15fe9e60fbbbaead9,Spanish,13 or older,"no, only English or Spanish",yes,2025-08-12_11h21.45.069,empathy_intonation_perc,2024.2.4,Win32,59.88023952,5f8f0ae15fe9e60fbbbaead9,687ed1b7e638a4cbf2f02089,689b84794c1795fd57327e9f,,,,,,,,,,,,,,1,,,,,,,,,,,,,,,,,,,,,,,,,,,,,,,,,,,,,,,,,,,,,,,,,,,,,,,,,71,polvoriento,,,,,563.8243,565.3909,0,0,1.0339,,0,47,47,70,1,REAL,FAKE,,,,,,,,,,,,,,,,,
,,,,,,,,,5f8f0ae15fe9e60fbbbaead9,Spanish,13 or older,"no, only English or Spanish",yes,2025-08-12_11h21.45.069,empathy_intonation_perc,2024.2.4,Win32,59.88023952,5f8f0ae15fe9e60fbbbaead9,687ed1b7e638a4cbf2f02089,689b84794c1795fd57327e9f,,,,,,,,,,,,,,1,,,,,,,,,,,,,,,,,,,,,,,,,,,,,,,,,,,,,,,,,,,,,,,,,,,,,,,,,24,látigo,,,,,565.392,566.937,1,1,1.0114,,0,48,48,23,1,REAL,FAKE,,,,,,,,,,,,,,,,,
,,,,,,,,,5f8f0ae15fe9e60fbbbaead9,Spanish,13 or older,"no, only English or Spanish",yes,2025-08-12_11h21.45.069,empathy_intonation_perc,2024.2.4,Win32,59.88023952,5f8f0ae15fe9e60fbbbaead9,687ed1b7e638a4cbf2f02089,689b84794c1795fd57327e9f,,,,,,,,,,,,,,1,,,,,,,,,,,,,,,,,,,,,,,,,,,,,,,,,,,,,,,,,,,,,,,,,,,,,,,,,59,besar,,,,,566.9378,568.5075,0,0,1.0347,,0,49,49,58,1,REAL,FAKE,,,,,,,,,,,,,,,,,
,,,,,,,,,5f8f0ae15fe9e60fbbbaead9,Spanish,13 or older,"no, only English or Spanish",yes,2025-08-12_11h21.45.069,empathy_intonation_perc,2024.2.4,Win32,59.88023952,5f8f0ae15fe9e60fbbbaead9,687ed1b7e638a4cbf2f02089,689b84794c1795fd57327e9f,,,,,,,,,,,,,,0,,,,,,,,,,,,,,,,,,,,,,,,,,,,,,,,,,,,,,,,,,,,,,,,,,,,,,,,,79,tropaje,,,,,568.5082,570.0526,0,1,1.0036,,0,50,50,78,1,REAL,FAKE,,,,,,,,,,,,,,,,,
,,,,,,,,,5f8f0ae15fe9e60fbbbaead9,Spanish,13 or older,"no, only English or Spanish",yes,2025-08-12_11h21.45.069,empathy_intonation_perc,2024.2.4,Win32,59.88023952,5f8f0ae15fe9e60fbbbaead9,687ed1b7e638a4cbf2f02089,689b84794c1795fd57327e9f,,,,,,,,,,,,,,0,,,,,,,,,,,,,,,,,,,,,,,,,,,,,,,,,,,,,,,,,,,,,,,,,,,,,,,,,18,arsa,,,,,570.0538,571.6229,1,0,1.0343,,0,51,51,17,1,REAL,FAKE,,,,,,,,,,,,,,,,,
,,,,,,,,,5f8f0ae15fe9e60fbbbaead9,Spanish,13 or older,"no, only English or Spanish",yes,2025-08-12_11h21.45.069,empathy_intonation_perc,2024.2.4,Win32,59.88023952,5f8f0ae15fe9e60fbbbaead9,687ed1b7e638a4cbf2f02089,689b84794c1795fd57327e9f,,,,,,,,,,,,,,0,,,,,,,,,,,,,,,,,,,,,,,,,,,,,,,,,,,,,,,,,,,,,,,,,,,,,,,,,50,flamida,,,,,571.6236,573.3893,0,1,1.2343,,0,52,52,49,1,REAL,FAKE,,,,,,,,,,,,,,,,,
,,,,,,,,,5f8f0ae15fe9e60fbbbaead9,Spanish,13 or older,"no, only English or Spanish",yes,2025-08-12_11h21.45.069,empathy_intonation_perc,2024.2.4,Win32,59.88023952,5f8f0ae15fe9e60fbbbaead9,687ed1b7e638a4cbf2f02089,689b84794c1795fd57327e9f,,,,,,,,,,,,,,1,,,,,,,,,,,,,,,,,,,,,,,,,,,,,,,,,,,,,,,,,,,,,,,,,,,,,,,,,36,loro,,,,,573.3899,574.852,1,1,0.9269,,0,53,53,35,1,REAL,FAKE,,,,,,,,,,,,,,,,,
,,,,,,,,,5f8f0ae15fe9e60fbbbaead9,Spanish,13 or older,"no, only English or Spanish",yes,2025-08-12_11h21.45.069,empathy_intonation_perc,2024.2.4,Win32,59.88023952,5f8f0ae15fe9e60fbbbaead9,687ed1b7e638a4cbf2f02089,689b84794c1795fd57327e9f,,,,,,,,,,,,,,1,,,,,,,,,,,,,,,,,,,,,,,,,,,,,,,,,,,,,,,,,,,,,,,,,,,,,,,,,91,click the 1 key.,,,,,574.8531,577.0052,1,1,1.6339,,0,54,54,90,1,REAL,FAKE,,,,,,,,,,,,,,,,,
,,,,,,,,,5f8f0ae15fe9e60fbbbaead9,Spanish,13 or older,"no, only English or Spanish",yes,2025-08-12_11h21.45.069,empathy_intonation_perc,2024.2.4,Win32,59.88023952,5f8f0ae15fe9e60fbbbaead9,687ed1b7e638a4cbf2f02089,689b84794c1795fd57327e9f,,,,,,,,,,,,,,1,,,,,,,,,,,,,,,,,,,,,,,,,,,,,,,,,,,,,,,,,,,,,,,,,,,,,,,,,40,alfombra,,,,,577.006,578.7049,0,0,1.1677,,0,55,55,39,1,REAL,FAKE,,,,,,,,,,,,,,,,,
,,,,,,,,,5f8f0ae15fe9e60fbbbaead9,Spanish,13 or older,"no, only English or Spanish",yes,2025-08-12_11h21.45.069,empathy_intonation_perc,2024.2.4,Win32,59.88023952,5f8f0ae15fe9e60fbbbaead9,687ed1b7e638a4cbf2f02089,689b84794c1795fd57327e9f,,,,,,,,,,,,,,1,,,,,,,,,,,,,,,,,,,,,,,,,,,,,,,,,,,,,,,,,,,,,,,,,,,,,,,,,31,pandilla,,,,,578.7054,580.2675,1,1,1.0183,,0,56,56,30,1,REAL,FAKE,,,,,,,,,,,,,,,,,
,,,,,,,,,5f8f0ae15fe9e60fbbbaead9,Spanish,13 or older,"no, only English or Spanish",yes,2025-08-12_11h21.45.069,empathy_intonation_perc,2024.2.4,Win32,59.88023952,5f8f0ae15fe9e60fbbbaead9,687ed1b7e638a4cbf2f02089,689b84794c1795fd57327e9f,,,,,,,,,,,,,,0,,,,,,,,,,,,,,,,,,,,,,,,,,,,,,,,,,,,,,,,,,,,,,,,,,,,,,,,,16,abracer,,,,,580.2686,582.1005,0,1,1.2864,,0,57,57,15,1,REAL,FAKE,,,,,,,,,,,,,,,,,
,,,,,,,,,5f8f0ae15fe9e60fbbbaead9,Spanish,13 or older,"no, only English or Spanish",yes,2025-08-12_11h21.45.069,empathy_intonation_perc,2024.2.4,Win32,59.88023952,5f8f0ae15fe9e60fbbbaead9,687ed1b7e638a4cbf2f02089,689b84794c1795fd57327e9f,,,,,,,,,,,,,,1,,,,,,,,,,,,,,,,,,,,,,,,,,,,,,,,,,,,,,,,,,,,,,,,,,,,,,,,,48,ladrón,,,,,582.1019,583.3367,1,1,0.7002,,0,58,58,47,1,REAL,FAKE,,,,,,,,,,,,,,,,,
,,,,,,,,,5f8f0ae15fe9e60fbbbaead9,Spanish,13 or older,"no, only English or Spanish",yes,2025-08-12_11h21.45.069,empathy_intonation_perc,2024.2.4,Win32,59.88023952,5f8f0ae15fe9e60fbbbaead9,687ed1b7e638a4cbf2f02089,689b84794c1795fd57327e9f,,,,,,,,,,,,,,0,,,,,,,,,,,,,,,,,,,,,,,,,,,,,,,,,,,,,,,,,,,,,,,,,,,,,,,,,19,brecedad,,,,,583.3373,584.9367,0,1,1.0672,,0,59,59,18,1,REAL,FAKE,,,,,,,,,,,,,,,,,
,,,,,,,,,5f8f0ae15fe9e60fbbbaead9,Spanish,13 or older,"no, only English or Spanish",yes,2025-08-12_11h21.45.069,empathy_intonation_perc,2024.2.4,Win32,59.88023952,5f8f0ae15fe9e60fbbbaead9,687ed1b7e638a4cbf2f02089,689b84794c1795fd57327e9f,,,,,,,,,,,,,,0,,,,,,,,,,,,,,,,,,,,,,,,,,,,,,,,,,,,,,,,,,,,,,,,,,,,,,,,,92,click the 0 key.,,,,,584.9375,586.3327,0,1,0.8627,,0,60,60,91,1,REAL,FAKE,,,,,,,,,,,,,,,,,
,,,,,,,,,5f8f0ae15fe9e60fbbbaead9,Spanish,13 or older,"no, only English or Spanish",yes,2025-08-12_11h21.45.069,empathy_intonation_perc,2024.2.4,Win32,59.88023952,5f8f0ae15fe9e60fbbbaead9,687ed1b7e638a4cbf2f02089,689b84794c1795fd57327e9f,,,,,,,,,,,,,,0,,,,,,,,,,,,,,,,,,,,,,,,,,,,,,,,,,,,,,,,,,,,,,,,,,,,,,,,,84,escuto,,,,,586.3343,587.9992,0,1,1.1201,,0,61,61,83,1,REAL,FAKE,,,,,,,,,,,,,,,,,
,,,,,,,,,5f8f0ae15fe9e60fbbbaead9,Spanish,13 or older,"no, only English or Spanish",yes,2025-08-12_11h21.45.069,empathy_intonation_perc,2024.2.4,Win32,59.88023952,5f8f0ae15fe9e60fbbbaead9,687ed1b7e638a4cbf2f02089,689b84794c1795fd57327e9f,,,,,,,,,,,,,,1,,,,,,,,,,,,,,,,,,,,,,,,,,,,,,,,,,,,,,,,,,,,,,,,,,,,,,,,,75,yacer,,,,,588.0003,589.9353,1,1,1.4001,,0,62,62,74,1,REAL,FAKE,,,,,,,,,,,,,,,,,
,,,,,,,,,5f8f0ae15fe9e60fbbbaead9,Spanish,13 or older,"no, only English or Spanish",yes,2025-08-12_11h21.45.069,empathy_intonation_perc,2024.2.4,Win32,59.88023952,5f8f0ae15fe9e60fbbbaead9,687ed1b7e638a4cbf2f02089,689b84794c1795fd57327e9f,,,,,,,,,,,,,,0,,,,,,,,,,,,,,,,,,,,,,,,,,,,,,,,,,,,,,,,,,,,,,,,,,,,,,,,,66,hacido,,,,,589.9359,591.6029,0,1,1.1345,,0,63,63,65,1,REAL,FAKE,,,,,,,,,,,,,,,,,
,,,,,,,,,5f8f0ae15fe9e60fbbbaead9,Spanish,13 or older,"no, only English or Spanish",yes,2025-08-12_11h21.45.069,empathy_intonation_perc,2024.2.4,Win32,59.88023952,5f8f0ae15fe9e60fbbbaead9,687ed1b7e638a4cbf2f02089,689b84794c1795fd57327e9f,,,,,,,,,,,,,,1,,,,,,,,,,,,,,,,,,,,,,,,,,,,,,,,,,,,,,,,,,,,,,,,,,,,,,,,,80,hormiga,,,,,591.6034,592.9647,0,0,0.821,,0,64,64,79,1,REAL,FAKE,,,,,,,,,,,,,,,,,
,,,,,,,,,5f8f0ae15fe9e60fbbbaead9,Spanish,13 or older,"no, only English or Spanish",yes,2025-08-12_11h21.45.069,empathy_intonation_perc,2024.2.4,Win32,59.88023952,5f8f0ae15fe9e60fbbbaead9,687ed1b7e638a4cbf2f02089,689b84794c1795fd57327e9f,,,,,,,,,,,,,,1,,,,,,,,,,,,,,,,,,,,,,,,,,,,,,,,,,,,,,,,,,,,,,,,,,,,,,,,,85,laúd,,,,,592.966,594.7182,1,1,1.2337,,0,65,65,84,1,REAL,FAKE,,,,,,,,,,,,,,,,,
,,,,,,,,,5f8f0ae15fe9e60fbbbaead9,Spanish,13 or older,"no, only English or Spanish",yes,2025-08-12_11h21.45.069,empathy_intonation_perc,2024.2.4,Win32,59.88023952,5f8f0ae15fe9e60fbbbaead9,687ed1b7e638a4cbf2f02089,689b84794c1795fd57327e9f,,,,,,,,,,,,,,1,,,,,,,,,,,,,,,,,,,,,,,,,,,,,,,,,,,,,,,,,,,,,,,,,,,,,,,,,15,regar,,,,,594.7187,596.3677,0,0,1.1172,,0,66,66,14,1,REAL,FAKE,,,,,,,,,,,,,,,,,
,,,,,,,,,5f8f0ae15fe9e60fbbbaead9,Spanish,13 or older,"no, only English or Spanish",yes,2025-08-12_11h21.45.069,empathy_intonation_perc,2024.2.4,Win32,59.88023952,5f8f0ae15fe9e60fbbbaead9,687ed1b7e638a4cbf2f02089,689b84794c1795fd57327e9f,,,,,,,,,,,,,,0,,,,,,,,,,,,,,,,,,,,,,,,,,,,,,,,,,,,,,,,,,,,,,,,,,,,,,,,,29,decar,,,,,596.3682,597.8305,1,0,0.9237,,0,67,67,28,1,REAL,FAKE,,,,,,,,,,,,,,,,,
,,,,,,,,,5f8f0ae15fe9e60fbbbaead9,Spanish,13 or older,"no, only English or Spanish",yes,2025-08-12_11h21.45.069,empathy_intonation_perc,2024.2.4,Win32,59.88023952,5f8f0ae15fe9e60fbbbaead9,687ed1b7e638a4cbf2f02089,689b84794c1795fd57327e9f,,,,,,,,,,,,,,1,,,,,,,,,,,,,,,,,,,,,,,,,,,,,,,,,,,,,,,,,,,,,,,,,,,,,,,,,14,yunque,,,,,597.8317,599.1008,0,0,0.734,,0,68,68,13,1,REAL,FAKE,,,,,,,,,,,,,,,,,
,,,,,,,,,5f8f0ae15fe9e60fbbbaead9,Spanish,13 or older,"no, only English or Spanish",yes,2025-08-12_11h21.45.069,empathy_intonation_perc,2024.2.4,Win32,59.88023952,5f8f0ae15fe9e60fbbbaead9,687ed1b7e638a4cbf2f02089,689b84794c1795fd57327e9f,,,,,,,,,,,,,,1,,,,,,,,,,,,,,,,,,,,,,,,,,,,,,,,,,,,,,,,,,,,,,,,,,,,,,,,,5,zapato,,,,,599.1016,601.013,0,0,1.3752,,0,69,69,4,1,REAL,FAKE,,,,,,,,,,,,,,,,,
,,,,,,,,,5f8f0ae15fe9e60fbbbaead9,Spanish,13 or older,"no, only English or Spanish",yes,2025-08-12_11h21.45.069,empathy_intonation_perc,2024.2.4,Win32,59.88023952,5f8f0ae15fe9e60fbbbaead9,687ed1b7e638a4cbf2f02089,689b84794c1795fd57327e9f,,,,,,,,,,,,,,1,,,,,,,,,,,,,,,,,,,,,,,,,,,,,,,,,,,,,,,,,,,,,,,,,,,,,,,,,45,jilguero,,,,,601.0144,602.667,1,1,1.1338,,0,70,70,44,1,REAL,FAKE,,,,,,,,,,,,,,,,,
,,,,,,,,,5f8f0ae15fe9e60fbbbaead9,Spanish,13 or older,"no, only English or Spanish",yes,2025-08-12_11h21.45.069,empathy_intonation_perc,2024.2.4,Win32,59.88023952,5f8f0ae15fe9e60fbbbaead9,687ed1b7e638a4cbf2f02089,689b84794c1795fd57327e9f,,,,,,,,,,,,,,1,,,,,,,,,,,,,,,,,,,,,,,,,,,,,,,,,,,,,,,,,,,,,,,,,,,,,,,,,61,seda,,,,,602.6678,604.1167,0,0,0.9174,,0,71,71,60,1,REAL,FAKE,,,,,,,,,,,,,,,,,
,,,,,,,,,5f8f0ae15fe9e60fbbbaead9,Spanish,13 or older,"no, only English or Spanish",yes,2025-08-12_11h21.45.069,empathy_intonation_perc,2024.2.4,Win32,59.88023952,5f8f0ae15fe9e60fbbbaead9,687ed1b7e638a4cbf2f02089,689b84794c1795fd57327e9f,,,,,,,,,,,,,,1,,,,,,,,,,,,,,,,,,,,,,,,,,,,,,,,,,,,,,,,,,,,,,,,,,,,,,,,,39,torpe,,,,,604.1174,605.5459,0,0,0.8953,,0,72,72,38,1,REAL,FAKE,,,,,,,,,,,,,,,,,
,,,,,,,,,5f8f0ae15fe9e60fbbbaead9,Spanish,13 or older,"no, only English or Spanish",yes,2025-08-12_11h21.45.069,empathy_intonation_perc,2024.2.4,Win32,59.88023952,5f8f0ae15fe9e60fbbbaead9,687ed1b7e638a4cbf2f02089,689b84794c1795fd57327e9f,,,,,,,,,,,,,,1,,,,,,,,,,,,,,,,,,,,,,,,,,,,,,,,,,,,,,,,,,,,,,,,,,,,,,,,,20,ávido,,,,,605.5468,606.9657,1,1,0.9005,,0,73,73,19,1,REAL,FAKE,,,,,,,,,,,,,,,,,
,,,,,,,,,5f8f0ae15fe9e60fbbbaead9,Spanish,13 or older,"no, only English or Spanish",yes,2025-08-12_11h21.45.069,empathy_intonation_perc,2024.2.4,Win32,59.88023952,5f8f0ae15fe9e60fbbbaead9,687ed1b7e638a4cbf2f02089,689b84794c1795fd57327e9f,,,,,,,,,,,,,,0,,,,,,,,,,,,,,,,,,,,,,,,,,,,,,,,,,,,,,,,,,,,,,,,,,,,,,,,,42,cadallo,,,,,606.9663,608.5309,0,1,1.0325,,0,74,74,41,1,REAL,FAKE,,,,,,,,,,,,,,,,,
,,,,,,,,,5f8f0ae15fe9e60fbbbaead9,Spanish,13 or older,"no, only English or Spanish",yes,2025-08-12_11h21.45.069,empathy_intonation_perc,2024.2.4,Win32,59.88023952,5f8f0ae15fe9e60fbbbaead9,687ed1b7e638a4cbf2f02089,689b84794c1795fd57327e9f,,,,,,,,,,,,,,0,,,,,,,,,,,,,,,,,,,,,,,,,,,,,,,,,,,,,,,,,,,,,,,,,,,,,,,,,30,alardio,,,,,608.5315,610.5649,1,0,1.5004,,0,75,75,29,1,REAL,FAKE,,,,,,,,,,,,,,,,,
,,,,,,,,,5f8f0ae15fe9e60fbbbaead9,Spanish,13 or older,"no, only English or Spanish",yes,2025-08-12_11h21.45.069,empathy_intonation_perc,2024.2.4,Win32,59.88023952,5f8f0ae15fe9e60fbbbaead9,687ed1b7e638a4cbf2f02089,689b84794c1795fd57327e9f,,,,,,,,,,,,,,0,,,,,,,,,,,,,,,,,,,,,,,,,,,,,,,,,,,,,,,,,,,,,,,,,,,,,,,,,58,plaudir,,,,,610.5656,611.9284,0,1,0.8208,,0,76,76,57,1,REAL,FAKE,,,,,,,,,,,,,,,,,
,,,,,,,,,5f8f0ae15fe9e60fbbbaead9,Spanish,13 or older,"no, only English or Spanish",yes,2025-08-12_11h21.45.069,empathy_intonation_perc,2024.2.4,Win32,59.88023952,5f8f0ae15fe9e60fbbbaead9,687ed1b7e638a4cbf2f02089,689b84794c1795fd57327e9f,,,,,,,,,,,,,,0,,,,,,,,,,,,,,,,,,,,,,,,,,,,,,,,,,,,,,,,,,,,,,,,,,,,,,,,,47,cartinar,,,,,611.9291,613.2309,1,0,0.7671,,0,77,77,46,1,REAL,FAKE,,,,,,,,,,,,,,,,,
,,,,,,,,,5f8f0ae15fe9e60fbbbaead9,Spanish,13 or older,"no, only English or Spanish",yes,2025-08-12_11h21.45.069,empathy_intonation_perc,2024.2.4,Win32,59.88023952,5f8f0ae15fe9e60fbbbaead9,687ed1b7e638a4cbf2f02089,689b84794c1795fd57327e9f,,,,,,,,,,,,,,1,,,,,,,,,,,,,,,,,,,,,,,,,,,,,,,,,,,,,,,,,,,,,,,,,,,,,,,,,44,cuchara,,,,,613.2315,614.6477,1,1,0.884,,0,78,78,43,1,REAL,FAKE,,,,,,,,,,,,,,,,,
,,,,,,,,,5f8f0ae15fe9e60fbbbaead9,Spanish,13 or older,"no, only English or Spanish",yes,2025-08-12_11h21.45.069,empathy_intonation_perc,2024.2.4,Win32,59.88023952,5f8f0ae15fe9e60fbbbaead9,687ed1b7e638a4cbf2f02089,689b84794c1795fd57327e9f,,,,,,,,,,,,,,1,,,,,,,,,,,,,,,,,,,,,,,,,,,,,,,,,,,,,,,,,,,,,,,,,,,,,,,,,68,alegre,,,,,614.6482,616.4309,1,1,1.2508,,0,79,79,67,1,REAL,FAKE,,,,,,,,,,,,,,,,,
,,,,,,,,,5f8f0ae15fe9e60fbbbaead9,Spanish,13 or older,"no, only English or Spanish",yes,2025-08-12_11h21.45.069,empathy_intonation_perc,2024.2.4,Win32,59.88023952,5f8f0ae15fe9e60fbbbaead9,687ed1b7e638a4cbf2f02089,689b84794c1795fd57327e9f,,,,,,,,,,,,,,1,,,,,,,,,,,,,,,,,,,,,,,,,,,,,,,,,,,,,,,,,,,,,,,,,,,,,,,,,7,pésimo,,,,,616.4314,618.0135,1,1,1.0505,,0,80,80,6,1,REAL,FAKE,,,,,,,,,,,,,,,,,
,,,,,,,,,5f8f0ae15fe9e60fbbbaead9,Spanish,13 or older,"no, only English or Spanish",yes,2025-08-12_11h21.45.069,empathy_intonation_perc,2024.2.4,Win32,59.88023952,5f8f0ae15fe9e60fbbbaead9,687ed1b7e638a4cbf2f02089,689b84794c1795fd57327e9f,,,,,,,,,,,,,,0,,,,,,,,,,,,,,,,,,,,,,,,,,,,,,,,,,,,,,,,,,,,,,,,,,,,,,,,,4,batillón,,,,,618.0141,619.6965,0,1,1.15,,0,81,81,3,1,REAL,FAKE,,,,,,,,,,,,,,,,,
,,,,,,,,,5f8f0ae15fe9e60fbbbaead9,Spanish,13 or older,"no, only English or Spanish",yes,2025-08-12_11h21.45.069,empathy_intonation_perc,2024.2.4,Win32,59.88023952,5f8f0ae15fe9e60fbbbaead9,687ed1b7e638a4cbf2f02089,689b84794c1795fd57327e9f,,,,,,,,,,,,,,1,,,,,,,,,,,,,,,,,,,,,,,,,,,,,,,,,,,,,,,,,,,,,,,,,,,,,,,,,49,ganar,,,,,619.697,621.1293,1,1,0.9002,,0,82,82,48,1,REAL,FAKE,,,,,,,,,,,,,,,,,
,,,,,,,,,5f8f0ae15fe9e60fbbbaead9,Spanish,13 or older,"no, only English or Spanish",yes,2025-08-12_11h21.45.069,empathy_intonation_perc,2024.2.4,Win32,59.88023952,5f8f0ae15fe9e60fbbbaead9,687ed1b7e638a4cbf2f02089,689b84794c1795fd57327e9f,,,,,,,,,,,,,,1,,,,,,,,,,,,,,,,,,,,,,,,,,,,,,,,,,,,,,,,,,,,,,,,,,,,,,,,,77,tiburón,,,,,621.1298,622.9459,0,0,1.2836,,0,83,83,76,1,REAL,FAKE,,,,,,,,,,,,,,,,,
,,,,,,,,,5f8f0ae15fe9e60fbbbaead9,Spanish,13 or older,"no, only English or Spanish",yes,2025-08-12_11h21.45.069,empathy_intonation_perc,2024.2.4,Win32,59.88023952,5f8f0ae15fe9e60fbbbaead9,687ed1b7e638a4cbf2f02089,689b84794c1795fd57327e9f,,,,,,,,,,,,,,1,,,,,,,,,,,,,,,,,,,,,,,,,,,,,,,,,,,,,,,,,,,,,,,,,,,,,,,,,57,tacaño,,,,,622.9466,624.3422,1,1,0.861,,0,84,84,56,1,REAL,FAKE,,,,,,,,,,,,,,,,,
,,,,,,,,,5f8f0ae15fe9e60fbbbaead9,Spanish,13 or older,"no, only English or Spanish",yes,2025-08-12_11h21.45.069,empathy_intonation_perc,2024.2.4,Win32,59.88023952,5f8f0ae15fe9e60fbbbaead9,687ed1b7e638a4cbf2f02089,689b84794c1795fd57327e9f,,,,,,,,,,,,,,1,,,,,,,,,,,,,,,,,,,,,,,,,,,,,,,,,,,,,,,,,,,,,,,,,,,,,,,,,3,pulmones,,,,,624.3432,626.2787,1,1,1.4168,,0,85,85,2,1,REAL,FAKE,,,,,,,,,,,,,,,,,
,,,,,,,,,5f8f0ae15fe9e60fbbbaead9,Spanish,13 or older,"no, only English or Spanish",yes,2025-08-12_11h21.45.069,empathy_intonation_perc,2024.2.4,Win32,59.88023952,5f8f0ae15fe9e60fbbbaead9,687ed1b7e638a4cbf2f02089,689b84794c1795fd57327e9f,,,,,,,,,,,,,,0,,,,,,,,,,,,,,,,,,,,,,,,,,,,,,,,,,,,,,,,,,,,,,,,,,,,,,,,,72,pemición,,,,,626.2795,627.4122,0,1,0.6007,,0,86,86,71,1,REAL,FAKE,,,,,,,,,,,,,,,,,
,,,,,,,,,5f8f0ae15fe9e60fbbbaead9,Spanish,13 or older,"no, only English or Spanish",yes,2025-08-12_11h21.45.069,empathy_intonation_perc,2024.2.4,Win32,59.88023952,5f8f0ae15fe9e60fbbbaead9,687ed1b7e638a4cbf2f02089,689b84794c1795fd57327e9f,,,,,,,,,,,,,,0,,,,,,,,,,,,,,,,,,,,,,,,,,,,,,,,,,,,,,,,,,,,,,,,,,,,,,,,,35,rompido,,,,,627.4128,628.711,0,1,0.7666,,0,87,87,34,1,REAL,FAKE,,,,,,,,,,,,,,,,,
,,,,,,,,,5f8f0ae15fe9e60fbbbaead9,Spanish,13 or older,"no, only English or Spanish",yes,2025-08-12_11h21.45.069,empathy_intonation_perc,2024.2.4,Win32,59.88023952,5f8f0ae15fe9e60fbbbaead9,687ed1b7e638a4cbf2f02089,689b84794c1795fd57327e9f,,,,,,,,,,,,,,1,,,,,,,,,,,,,,,,,,,,,,,,,,,,,,,,,,,,,,,,,,,,,,,,,,,,,,,,,43,canela,,,,,628.7117,630.1283,1,1,0.8841,,0,88,88,42,1,REAL,FAKE,,,,,,,,,,,,,,,,,
,,,,,,,,,5f8f0ae15fe9e60fbbbaead9,Spanish,13 or older,"no, only English or Spanish",yes,2025-08-12_11h21.45.069,empathy_intonation_perc,2024.2.4,Win32,59.88023952,5f8f0ae15fe9e60fbbbaead9,687ed1b7e638a4cbf2f02089,689b84794c1795fd57327e9f,,,,,,,,,,,,,,1,,,,,,,,,,,,,,,,,,,,,,,,,,,,,,,,,,,,,,,,,,,,,,,,,,,,,,,,,28,merodear,,,,,630.1288,631.724,0,0,1.0579,,0,89,89,27,1,REAL,FAKE,,,,,,,,,,,,,,,,,
,,,,,,,,,5f8f0ae15fe9e60fbbbaead9,Spanish,13 or older,"no, only English or Spanish",yes,2025-08-12_11h21.45.069,empathy_intonation_perc,2024.2.4,Win32,59.88023952,5f8f0ae15fe9e60fbbbaead9,687ed1b7e638a4cbf2f02089,689b84794c1795fd57327e9f,,,,,,,,,,,,,,1,,,,,,,,,,,,,,,,,,,,,,,,,,,,,,,,,,,,,,,,,,,,,,,,,,,,,,,,,55,nevar,,,,,631.7249,634.1438,0,0,1.9005,,0,90,90,54,1,REAL,FAKE,,,,,,,,,,,,,,,,,
,,,,,,,,,5f8f0ae15fe9e60fbbbaead9,Spanish,13 or older,"no, only English or Spanish",yes,2025-08-12_11h21.45.069,empathy_intonation_perc,2024.2.4,Win32,59.88023952,5f8f0ae15fe9e60fbbbaead9,687ed1b7e638a4cbf2f02089,689b84794c1795fd57327e9f,,,,,,,,,,,,,,1,,,,,,,,,,,,,,,,,,,,,,,,,,,,,,,,,,,,,,,,,,,,,,,,,,,,,,,,,41,rebuscar,,,,,634.1446,635.5599,1,1,0.8837,,0,91,91,40,1,REAL,FAKE,,,,,,,,,,,,,,,,,
,,,,,,,,,5f8f0ae15fe9e60fbbbaead9,Spanish,13 or older,"no, only English or Spanish",yes,2025-08-12_11h21.45.069,empathy_intonation_perc,2024.2.4,Win32,59.88023952,5f8f0ae15fe9e60fbbbaead9,687ed1b7e638a4cbf2f02089,689b84794c1795fd57327e9f,,,,,,,,,,,,,,,,,,,,,,,,,,,,,,,,,,,,,,,,,,,,,,,,,,,,,,,,,,,,,,,,,,,,,,,,,,,,,,,,,,,,,,,,,,635.5602,643.9424,,,,,,,,,,,,,,,
,,,,,,,,,5f8f0ae15fe9e60fbbbaead9,Spanish,13 or older,"no, only English or Spanish",yes,2025-08-12_11h21.45.069,empathy_intonation_perc,2024.2.4,Win32,59.88023952,5f8f0ae15fe9e60fbbbaead9,687ed1b7e638a4cbf2f02089,689b84794c1795fd57327e9f,,,,,,,,,,,,,1,,,,,,,,,,,,,,,,,,,,,,,,,,,,,,,,,,,,,,,,,,,,,,,,,,,,,,,,,,,,,,,,,,,,,,,,,,,,,,,643.9488,651.9533,slightly agree,0,0,0,0,1,I can easily tell if someone else wants to enter a conversation.,1,0,1,0,,
,,,,,,,,,5f8f0ae15fe9e60fbbbaead9,Spanish,13 or older,"no, only English or Spanish",yes,2025-08-12_11h21.45.069,empathy_intonation_perc,2024.2.4,Win32,59.88023952,5f8f0ae15fe9e60fbbbaead9,687ed1b7e638a4cbf2f02089,689b84794c1795fd57327e9f,,,,,,,,,,,,,2,,,,,,,,,,,,,,,,,,,,,,,,,,,,,,,,,,,,,,,,,,,,,,,,,,,,,,,,,,,,,,,,,,,,,,,,,,,,,,,651.955,654.9359,slightly disagree,0,1,1,1,1,I prefer animals to humans.,0,1,0,0,,
,,,,,,,,,5f8f0ae15fe9e60fbbbaead9,Spanish,13 or older,"no, only English or Spanish",yes,2025-08-12_11h21.45.069,empathy_intonation_perc,2024.2.4,Win32,59.88023952,5f8f0ae15fe9e60fbbbaead9,687ed1b7e638a4cbf2f02089,689b84794c1795fd57327e9f,,,,,,,,,,,,,3,,,,,,,,,,,,,,,,,,,,,,,,,,,,,,,,,,,,,,,,,,,,,,,,,,,,,,,,,,,,,,,,,,,,,,,,,,,,,,,654.9373,659.1183,strongly agree,0,2,2,2,1,I try to keep up with the current trends and fashions.,0,1,0,0,,
,,,,,,,,,5f8f0ae15fe9e60fbbbaead9,Spanish,13 or older,"no, only English or Spanish",yes,2025-08-12_11h21.45.069,empathy_intonation_perc,2024.2.4,Win32,59.88023952,5f8f0ae15fe9e60fbbbaead9,687ed1b7e638a4cbf2f02089,689b84794c1795fd57327e9f,,,,,,,,,,,,,4,,,,,,,,,,,,,,,,,,,,,,,,,,,,,,,,,,,,,,,,,,,,,,,,,,,,,,,,,,,,,,,,,,,,,,,,,,,,,,,659.1197,662.1012,slightly disagree,0,3,3,3,1,"I find it difficult to explain to others things that I understand easily,   when they don't understand it first time.",1,0,0,1,,
,,,,,,,,,5f8f0ae15fe9e60fbbbaead9,Spanish,13 or older,"no, only English or Spanish",yes,2025-08-12_11h21.45.069,empathy_intonation_perc,2024.2.4,Win32,59.88023952,5f8f0ae15fe9e60fbbbaead9,687ed1b7e638a4cbf2f02089,689b84794c1795fd57327e9f,,,,,,,,,,,,,5,,,,,,,,,,,,,,,,,,,,,,,,,,,,,,,,,,,,,,,,,,,,,,,,,,,,,,,,,,,,,,,,,,,,,,,,,,,,,,,662.1022,665.6003,slightly disagree,0,4,4,4,1,I dream most nights.,0,1,0,0,,
,,,,,,,,,5f8f0ae15fe9e60fbbbaead9,Spanish,13 or older,"no, only English or Spanish",yes,2025-08-12_11h21.45.069,empathy_intonation_perc,2024.2.4,Win32,59.88023952,5f8f0ae15fe9e60fbbbaead9,687ed1b7e638a4cbf2f02089,689b84794c1795fd57327e9f,,,,,,,,,,,,,6,,,,,,,,,,,,,,,,,,,,,,,,,,,,,,,,,,,,,,,,,,,,,,,,,,,,,,,,,,,,,,,,,,,,,,,,,,,,,,,665.6012,668.5497,strongly agree,0,5,5,5,1,I really enjoy caring for other people.,1,0,1,0,,
,,,,,,,,,5f8f0ae15fe9e60fbbbaead9,Spanish,13 or older,"no, only English or Spanish",yes,2025-08-12_11h21.45.069,empathy_intonation_perc,2024.2.4,Win32,59.88023952,5f8f0ae15fe9e60fbbbaead9,687ed1b7e638a4cbf2f02089,689b84794c1795fd57327e9f,,,,,,,,,,,,,7,,,,,,,,,,,,,,,,,,,,,,,,,,,,,,,,,,,,,,,,,,,,,,,,,,,,,,,,,,,,,,,,,,,,,,,,,,,,,,,668.5511,670.5993,slightly agree,0,6,6,6,1,I try to solve my own problems rather than discussing them with others.,0,1,0,0,,
,,,,,,,,,5f8f0ae15fe9e60fbbbaead9,Spanish,13 or older,"no, only English or Spanish",yes,2025-08-12_11h21.45.069,empathy_intonation_perc,2024.2.4,Win32,59.88023952,5f8f0ae15fe9e60fbbbaead9,687ed1b7e638a4cbf2f02089,689b84794c1795fd57327e9f,,,,,,,,,,,,,8,,,,,,,,,,,,,,,,,,,,,,,,,,,,,,,,,,,,,,,,,,,,,,,,,,,,,,,,,,,,,,,,,,,,,,,,,,,,,,,670.6002,673.5489,strongly agree,0,7,7,7,1,I find it hard to know what to do in a social situation.,1,0,0,1,,
,,,,,,,,,5f8f0ae15fe9e60fbbbaead9,Spanish,13 or older,"no, only English or Spanish",yes,2025-08-12_11h21.45.069,empathy_intonation_perc,2024.2.4,Win32,59.88023952,5f8f0ae15fe9e60fbbbaead9,687ed1b7e638a4cbf2f02089,689b84794c1795fd57327e9f,,,,,,,,,,,,,9,,,,,,,,,,,,,,,,,,,,,,,,,,,,,,,,,,,,,,,,,,,,,,,,,,,,,,,,,,,,,,,,,,,,,,,,,,,,,,,673.55,679.8312,slightly agree,0,8,8,8,1,I am at my best first thing in the morning.,0,1,0,0,,
