instructions_exposure.started,instructions_exposure.stopped,instructions_exposure_loop.thisRepN,instructions_exposure_loop.thisTrialN,instructions_exposure_loop.thisN,instructions_exposure_loop.thisIndex,instructions_exposure_loop.ran,instructions_text,continue_text,participant_id,"What variety of Spanish are you most familiar with? (e.g., Peruvian, Spanish, Mexican)",At what age did you begin learning Spanish?,Are you proficient in any languages other than English/Spanish?,"Are you familiar with Caribbean (e.g., Caribbean, Puerto Rican) or Galician Spanish?",date,expName,psychopyVersion,OS,frameRate,id,study_id,session,trial_exposure.started,trial_exposure.stopped,key_resp_exposure.keys,key_resp_exposure.corr,key_resp_exposure.rt,key_resp_exposure.duration,key_resp.keys,exposure_loop.thisRepN,exposure_loop.thisTrialN,exposure_loop.thisN,exposure_loop.thisIndex,exposure_loop.ran,item_num,correct_response,question,path,duration,instructions_2afc.started,instructions_2afc.stopped,instructions_2afc_loop.thisRepN,instructions_2afc_loop.thisTrialN,instructions_2afc_loop.thisN,instructions_2afc_loop.thisIndex,instructions_2afc_loop.ran,practice_2afc.started,practice_2afc.stopped,key_resp_2afc_practice.keys,key_resp_2afc_practice.corr,key_resp_2afc_practice.rt,key_resp_2afc_practice.duration,trials_2afc_practice_loop.thisRepN,trials_2afc_practice_loop.thisTrialN,trials_2afc_practice_loop.thisN,trials_2afc_practice_loop.thisIndex,trials_2afc_practice_loop.ran,check_2afc.started,check_2afc.stopped,trial_2afc.started,trial_2afc.stopped,key_resp_2afc_trial.keys,key_resp_2afc_trial.corr,key_resp_2afc_trial.rt,key_resp_2afc_trial.duration,trials_2afc_loop.thisRepN,trials_2afc_loop.thisTrialN,trials_2afc_loop.thisN,trials_2afc_loop.thisIndex,trials_2afc_loop.ran,target,variety,instructions_lextale.started,instructions_lextale.stopped,instructions_lextale_loop.thisRepN,instructions_lextale_loop.thisTrialN,instructions_lextale_loop.thisN,instructions_lextale_loop.thisIndex,instructions_lextale_loop.ran,practice_lextale.started,practice_lextale.stopped,key_resp_lextale_practice.keys,key_resp_lextale_practice.corr,key_resp_lextale_practice.rt,key_resp_lextale_practice.duration,practice_feedback_lextale.started,practice_feedback_lextale.stopped,trials_lextale_practice_loop.thisRepN,trials_lextale_practice_loop.thisTrialN,trials_lextale_practice_loop.thisN,trials_lextale_practice_loop.thisIndex,trials_lextale_practice_loop.ran,stim,word,prac_button_real,prac_button_false,check_lextale.started,check_lextale.stopped,trial_lextale.started,trial_lextale.stopped,key_resp_lextale_trial.keys,key_resp_lextale_trial.corr,key_resp_lextale_trial.rt,key_resp_lextale_trial.duration,trials_lextale_loop.thisRepN,trials_lextale_loop.thisTrialN,trials_lextale_loop.thisN,trials_lextale_loop.thisIndex,trials_lextale_loop.ran,button_real,button_false,instructions_eq.started,instructions_eq.stopped,trial_eq.started,trial_eq.stopped,slider_eq_trial.response,trials_eq_loop.thisRepN,trials_eq_loop.thisTrialN,trials_eq_loop.thisN,trials_eq_loop.thisIndex,trials_eq_loop.ran,item,is_test_item,is_distractor,is_agree_score,is_disagree_score,end_exp.started,end_exp.stopped
0.0185,83.8182,0,0,0,0,1,"In the following task, you are going to hear a series of conversations.", (press the space bar to continue),5f91a6bf59acc003a749718a,Spanish,13 or older,"no, only English or Spanish",no,2025-07-23_00h58.21.103,empathy_intonation_perc,2024.2.4,Linux armv81,59.88023952,5f91a6bf59acc003a749718a,687ed1b7e638a4cbf2f02089,68806b0f73bf4ee22fdb7022,,,,,,,,,,,,,,,,,,,,,,,,,,,,,,,,,,,,,,,,,,,,,,,,,,,,,,,,,,,,,,,,,,,,,,,,,,,,,,,,,,,,,,,,,,,,,,,,,,,,,,,,,,
83.8189,94.569,0,1,1,1,1,It is okay if you don't not 100% understand them!, (press the space bar to continue),5f91a6bf59acc003a749718a,Spanish,13 or older,"no, only English or Spanish",no,2025-07-23_00h58.21.103,empathy_intonation_perc,2024.2.4,Linux armv81,59.88023952,5f91a6bf59acc003a749718a,687ed1b7e638a4cbf2f02089,68806b0f73bf4ee22fdb7022,,,,,,,,,,,,,,,,,,,,,,,,,,,,,,,,,,,,,,,,,,,,,,,,,,,,,,,,,,,,,,,,,,,,,,,,,,,,,,,,,,,,,,,,,,,,,,,,,,,,,,,,,,
94.5706,101.8623,0,2,2,2,1,"After, you will read a sentence about the conversation and decide if it's true or false.", (press the space bar to continue),5f91a6bf59acc003a749718a,Spanish,13 or older,"no, only English or Spanish",no,2025-07-23_00h58.21.103,empathy_intonation_perc,2024.2.4,Linux armv81,59.88023952,5f91a6bf59acc003a749718a,687ed1b7e638a4cbf2f02089,68806b0f73bf4ee22fdb7022,,,,,,,,,,,,,,,,,,,,,,,,,,,,,,,,,,,,,,,,,,,,,,,,,,,,,,,,,,,,,,,,,,,,,,,,,,,,,,,,,,,,,,,,,,,,,,,,,,,,,,,,,,
101.8641,120.1645,0,3,3,3,1,"If it's true, press '1' (True) and if it's false press '0' (False).", (press the space bar to continue),5f91a6bf59acc003a749718a,Spanish,13 or older,"no, only English or Spanish",no,2025-07-23_00h58.21.103,empathy_intonation_perc,2024.2.4,Linux armv81,59.88023952,5f91a6bf59acc003a749718a,687ed1b7e638a4cbf2f02089,68806b0f73bf4ee22fdb7022,,,,,,,,,,,,,,,,,,,,,,,,,,,,,,,,,,,,,,,,,,,,,,,,,,,,,,,,,,,,,,,,,,,,,,,,,,,,,,,,,,,,,,,,,,,,,,,,,,,,,,,,,,
,,,,,,,,,5f91a6bf59acc003a749718a,Spanish,13 or older,"no, only English or Spanish",no,2025-07-23_00h58.21.103,empathy_intonation_perc,2024.2.4,Linux armv81,59.88023952,5f91a6bf59acc003a749718a,687ed1b7e638a4cbf2f02089,68806b0f73bf4ee22fdb7022,120.1767,163.2463,1,0,7.0259,,,0,0,0,2,1,3,0,The mom already has rice.,./stim/exposure_wavs/pr_stimuli_convo.wav,36,,,,,,,,,,,,,,,,,,,,,,,,,,,,,,,,,,,,,,,,,,,,,,,,,,,,,,,,,,,,,,,,,,,,,,,,,,,,,,,,,,,,,,,,,
,,,,,,,,,5f91a6bf59acc003a749718a,Spanish,13 or older,"no, only English or Spanish",no,2025-07-23_00h58.21.103,empathy_intonation_perc,2024.2.4,Linux armv81,59.88023952,5f91a6bf59acc003a749718a,687ed1b7e638a4cbf2f02089,68806b0f73bf4ee22fdb7022,163.249,218.0072,1,1,7.7344,,,0,1,1,0,1,1,1,The son asked the mom if Aunt Marina is okay.,./stim/exposure_wavs/ga_stimuli_convo.wav,47,,,,,,,,,,,,,,,,,,,,,,,,,,,,,,,,,,,,,,,,,,,,,,,,,,,,,,,,,,,,,,,,,,,,,,,,,,,,,,,,,,,,,,,,,
,,,,,,,,,5f91a6bf59acc003a749718a,Spanish,13 or older,"no, only English or Spanish",no,2025-07-23_00h58.21.103,empathy_intonation_perc,2024.2.4,Linux armv81,59.88023952,5f91a6bf59acc003a749718a,687ed1b7e638a4cbf2f02089,68806b0f73bf4ee22fdb7022,218.0096,283.5464,1,1,5.5231,,,0,2,2,1,1,2,1,The mom asked the daughter if she already went to the supermarket.,./stim/exposure_wavs/dr_stimuli_convo.wav,60,,,,,,,,,,,,,,,,,,,,,,,,,,,,,,,,,,,,,,,,,,,,,,,,,,,,,,,,,,,,,,,,,,,,,,,,,,,,,,,,,,,,,,,,,
,,,,,,,"In the following task you are going to hear a series of utterances. 

  You will decide if the utterances sound like questions or not using your keyboard.", (press the spacebar to continue),5f91a6bf59acc003a749718a,Spanish,13 or older,"no, only English or Spanish",no,2025-07-23_00h58.21.103,empathy_intonation_perc,2024.2.4,Linux armv81,59.88023952,5f91a6bf59acc003a749718a,687ed1b7e638a4cbf2f02089,68806b0f73bf4ee22fdb7022,,,,,,,,,,,,,,,,,,283.5555,293.9228,0,0,0,0,1,,,,,,,,,,,,,,,,,,,,,,,,,,,,,,,,,,,,,,,,,,,,,,,,,,,,,,,,,,,,,,,,,,,,,,,,,,,,,,,,,,
,,,,,,,"If you believe the utterance is a question, type '1' (for 'yes') and if you do not 
  believe it is a question type '0' (for 'no').

  Let's practice a bit...", (press the spacebar to continue),5f91a6bf59acc003a749718a,Spanish,13 or older,"no, only English or Spanish",no,2025-07-23_00h58.21.103,empathy_intonation_perc,2024.2.4,Linux armv81,59.88023952,5f91a6bf59acc003a749718a,687ed1b7e638a4cbf2f02089,68806b0f73bf4ee22fdb7022,,,,,,,,,,,,,,,,,,293.9252,300.7639,0,1,1,1,1,,,,,,,,,,,,,,,,,,,,,,,,,,,,,,,,,,,,,,,,,,,,,,,,,,,,,,,,,,,,,,,,,,,,,,,,,,,,,,,,,,
,,,,,,,,,5f91a6bf59acc003a749718a,Spanish,13 or older,"no, only English or Spanish",no,2025-07-23_00h58.21.103,empathy_intonation_perc,2024.2.4,Linux armv81,59.88023952,5f91a6bf59acc003a749718a,687ed1b7e638a4cbf2f02089,68806b0f73bf4ee22fdb7022,,,,,,,,,,,,,,1,,./stim/wavs/argentine_question_filler_Mi-vecino-habla-mucho.wav,,,,,,,,,300.7736,303.5819,1,1,2.2858,,0,0,0,1,1,,,,,,,,,,,,,,,,,,,,,,,,,,,,,,,,,,,,,,,,,,,,,,,,,,,,,,,,,,,,,,,,,,,,,,,
,,,,,,,,,5f91a6bf59acc003a749718a,Spanish,13 or older,"no, only English or Spanish",no,2025-07-23_00h58.21.103,empathy_intonation_perc,2024.2.4,Linux armv81,59.88023952,5f91a6bf59acc003a749718a,687ed1b7e638a4cbf2f02089,68806b0f73bf4ee22fdb7022,,,,,,,,,,,,,,0,,./stim/wavs/puertorican_statement_filler_La-nina-pinta-con-su-amiga.wav,,,,,,,,,303.5828,306.8507,0,1,2.7453,,0,1,1,7,1,,,,,,,,,,,,,,,,,,,,,,,,,,,,,,,,,,,,,,,,,,,,,,,,,,,,,,,,,,,,,,,,,,,,,,,
,,,,,,,,,5f91a6bf59acc003a749718a,Spanish,13 or older,"no, only English or Spanish",no,2025-07-23_00h58.21.103,empathy_intonation_perc,2024.2.4,Linux armv81,59.88023952,5f91a6bf59acc003a749718a,687ed1b7e638a4cbf2f02089,68806b0f73bf4ee22fdb7022,,,,,,,,,,,,,,0,,./stim/wavs/andalusian_statement_filler_Alberto-nunca-se-afeita.wav,,,,,,,,,306.8516,309.4198,0,1,2.056,,0,2,2,5,1,,,,,,,,,,,,,,,,,,,,,,,,,,,,,,,,,,,,,,,,,,,,,,,,,,,,,,,,,,,,,,,,,,,,,,,
,,,,,,,,,5f91a6bf59acc003a749718a,Spanish,13 or older,"no, only English or Spanish",no,2025-07-23_00h58.21.103,empathy_intonation_perc,2024.2.4,Linux armv81,59.88023952,5f91a6bf59acc003a749718a,687ed1b7e638a4cbf2f02089,68806b0f73bf4ee22fdb7022,,,,,,,,,,,,,,1,,./stim/wavs/chilean_question_filler_Mi-padre-cantaba-bien.wav,,,,,,,,,309.4206,311.7057,0,0,1.7524,,0,3,3,2,1,,,,,,,,,,,,,,,,,,,,,,,,,,,,,,,,,,,,,,,,,,,,,,,,,,,,,,,,,,,,,,,,,,,,,,,
,,,,,,,,,5f91a6bf59acc003a749718a,Spanish,13 or older,"no, only English or Spanish",no,2025-07-23_00h58.21.103,empathy_intonation_perc,2024.2.4,Linux armv81,59.88023952,5f91a6bf59acc003a749718a,687ed1b7e638a4cbf2f02089,68806b0f73bf4ee22fdb7022,,,,,,,,,,,,,,1,,./stim/wavs/castilian_question_filler_Mi-esposo-conoce-al-chico.wav,,,,,,,,,311.7069,314.7415,1,1,2.5051,,0,4,4,0,1,,,,,,,,,,,,,,,,,,,,,,,,,,,,,,,,,,,,,,,,,,,,,,,,,,,,,,,,,,,,,,,,,,,,,,,
,,,,,,,,,5f91a6bf59acc003a749718a,Spanish,13 or older,"no, only English or Spanish",no,2025-07-23_00h58.21.103,empathy_intonation_perc,2024.2.4,Linux armv81,59.88023952,5f91a6bf59acc003a749718a,687ed1b7e638a4cbf2f02089,68806b0f73bf4ee22fdb7022,,,,,,,,,,,,,,0,,./stim/wavs/peruvian_statement_filler_El-nino-habla-con-su-madre.wav,,,,,,,,,314.7425,317.4773,0,1,2.2061,,0,5,5,6,1,,,,,,,,,,,,,,,,,,,,,,,,,,,,,,,,,,,,,,,,,,,,,,,,,,,,,,,,,,,,,,,,,,,,,,,
,,,,,,,,,5f91a6bf59acc003a749718a,Spanish,13 or older,"no, only English or Spanish",no,2025-07-23_00h58.21.103,empathy_intonation_perc,2024.2.4,Linux armv81,59.88023952,5f91a6bf59acc003a749718a,687ed1b7e638a4cbf2f02089,68806b0f73bf4ee22fdb7022,,,,,,,,,,,,,,1,,./stim/wavs/mexican_question_filler_Felipe-no-tiene-contrasena.wav,,,,,,,,,317.4782,319.9634,1,1,1.9733,,0,6,6,3,1,,,,,,,,,,,,,,,,,,,,,,,,,,,,,,,,,,,,,,,,,,,,,,,,,,,,,,,,,,,,,,,,,,,,,,,
,,,,,,,,,5f91a6bf59acc003a749718a,Spanish,13 or older,"no, only English or Spanish",no,2025-07-23_00h58.21.103,empathy_intonation_perc,2024.2.4,Linux armv81,59.88023952,5f91a6bf59acc003a749718a,687ed1b7e638a4cbf2f02089,68806b0f73bf4ee22fdb7022,,,,,,,,,,,,,,0,,./stim/wavs/cuban_statement_filler_Cocinabas-por-la-noche.wav,,,,,,,,,319.9664,322.382,0,1,1.8893,,0,7,7,4,1,,,,,,,,,,,,,,,,,,,,,,,,,,,,,,,,,,,,,,,,,,,,,,,,,,,,,,,,,,,,,,,,,,,,,,,
,,,,,,,,,5f91a6bf59acc003a749718a,Spanish,13 or older,"no, only English or Spanish",no,2025-07-23_00h58.21.103,empathy_intonation_perc,2024.2.4,Linux armv81,59.88023952,5f91a6bf59acc003a749718a,687ed1b7e638a4cbf2f02089,68806b0f73bf4ee22fdb7022,,,,,,,,,,,,,,,,,,,,,,,,,,,,,,,,,,,,322.3826,327.3539,,,,,,,,,,,,,,,,,,,,,,,,,,,,,,,,,,,,,,,,,,,,,,,,,,,,,,,,,,,,,,,,,,,,,
,,,,,,,,,5f91a6bf59acc003a749718a,Spanish,13 or older,"no, only English or Spanish",no,2025-07-23_00h58.21.103,empathy_intonation_perc,2024.2.4,Linux armv81,59.88023952,5f91a6bf59acc003a749718a,687ed1b7e638a4cbf2f02089,68806b0f73bf4ee22fdb7022,,,,,,,,,,,,,63,0,,./stim/wavs/puertorican_match_declarative-broad-focus_Ana-lleva-el-abrigo.wav,,,,,,,,,,,,,,,,,,,,,,327.3648,329.9739,0,1,2.0899,,0,0,0,62,1,0,puertorican,,,,,,,,,,,,,,,,,,,,,,,,,,,,,,,,,,,,,,,,,,,,,,,,,,,,,,,,
,,,,,,,,,5f91a6bf59acc003a749718a,Spanish,13 or older,"no, only English or Spanish",no,2025-07-23_00h58.21.103,empathy_intonation_perc,2024.2.4,Linux armv81,59.88023952,5f91a6bf59acc003a749718a,687ed1b7e638a4cbf2f02089,68806b0f73bf4ee22fdb7022,,,,,,,,,,,,,70,0,,./stim/wavs/castilian_mismatch_declarative-broad-focus_La-maestra-vive-en-Paris.wav,,,,,,,,,,,,,,,,,,,,,,329.9753,332.3918,0,1,1.8903,,0,1,1,69,1,0,castilian,,,,,,,,,,,,,,,,,,,,,,,,,,,,,,,,,,,,,,,,,,,,,,,,,,,,,,,,
,,,,,,,,,5f91a6bf59acc003a749718a,Spanish,13 or older,"no, only English or Spanish",no,2025-07-23_00h58.21.103,empathy_intonation_perc,2024.2.4,Linux armv81,59.88023952,5f91a6bf59acc003a749718a,687ed1b7e638a4cbf2f02089,68806b0f73bf4ee22fdb7022,,,,,,,,,,,,,78,0,,./stim/wavs/cuban_mismatch_declarative-broad-focus_Mi-tia-odia-la-lluvia.wav,,,,,,,,,,,,,,,,,,,,,,332.3926,334.6941,0,1,1.7874,,0,2,2,77,1,0,cuban,,,,,,,,,,,,,,,,,,,,,,,,,,,,,,,,,,,,,,,,,,,,,,,,,,,,,,,,
,,,,,,,,,5f91a6bf59acc003a749718a,Spanish,13 or older,"no, only English or Spanish",no,2025-07-23_00h58.21.103,empathy_intonation_perc,2024.2.4,Linux armv81,59.88023952,5f91a6bf59acc003a749718a,687ed1b7e638a4cbf2f02089,68806b0f73bf4ee22fdb7022,,,,,,,,,,,,,16,1,,./stim/wavs/mexican_match_interrogative-total-yn_Emilio-ama-la-marcha.wav,,,,,,,,,,,,,,,,,,,,,,334.6948,337.0961,1,1,1.8722,,0,3,3,15,1,0,mexican,,,,,,,,,,,,,,,,,,,,,,,,,,,,,,,,,,,,,,,,,,,,,,,,,,,,,,,,
,,,,,,,,,5f91a6bf59acc003a749718a,Spanish,13 or older,"no, only English or Spanish",no,2025-07-23_00h58.21.103,empathy_intonation_perc,2024.2.4,Linux armv81,59.88023952,5f91a6bf59acc003a749718a,687ed1b7e638a4cbf2f02089,68806b0f73bf4ee22fdb7022,,,,,,,,,,,,,81,0,,./stim/wavs/mexican_mismatch_declarative-broad-focus_La-maestra-vive-en-Paris.wav,,,,,,,,,,,,,,,,,,,,,,337.0972,339.1973,0,1,1.5706,,0,4,4,80,1,0,mexican,,,,,,,,,,,,,,,,,,,,,,,,,,,,,,,,,,,,,,,,,,,,,,,,,,,,,,,,
,,,,,,,,,5f91a6bf59acc003a749718a,Spanish,13 or older,"no, only English or Spanish",no,2025-07-23_00h58.21.103,empathy_intonation_perc,2024.2.4,Linux armv81,59.88023952,5f91a6bf59acc003a749718a,687ed1b7e638a4cbf2f02089,68806b0f73bf4ee22fdb7022,,,,,,,,,,,,,26,1,,./stim/wavs/castilian_mismatch_interrogative-total-yn_La-nina-lava-el-plato.wav,,,,,,,,,,,,,,,,,,,,,,339.1982,341.8331,1,1,2.1211,,0,5,5,25,1,0,castilian,,,,,,,,,,,,,,,,,,,,,,,,,,,,,,,,,,,,,,,,,,,,,,,,,,,,,,,,
,,,,,,,,,5f91a6bf59acc003a749718a,Spanish,13 or older,"no, only English or Spanish",no,2025-07-23_00h58.21.103,empathy_intonation_perc,2024.2.4,Linux armv81,59.88023952,5f91a6bf59acc003a749718a,687ed1b7e638a4cbf2f02089,68806b0f73bf4ee22fdb7022,,,,,,,,,,,,,64,0,,./stim/wavs/puertorican_match_declarative-broad-focus_Daniel-iba-a-Bolivia.wav,,,,,,,,,,,,,,,,,,,,,,341.8342,344.0513,0,1,1.685,,0,6,6,63,1,0,puertorican,,,,,,,,,,,,,,,,,,,,,,,,,,,,,,,,,,,,,,,,,,,,,,,,,,,,,,,,
,,,,,,,,,5f91a6bf59acc003a749718a,Spanish,13 or older,"no, only English or Spanish",no,2025-07-23_00h58.21.103,empathy_intonation_perc,2024.2.4,Linux armv81,59.88023952,5f91a6bf59acc003a749718a,687ed1b7e638a4cbf2f02089,68806b0f73bf4ee22fdb7022,,,,,,,,,,,,,39,1,,./stim/wavs/mexican_mismatch_interrogative-total-yn_Mi-tia-odia-la-lluvia.wav,,,,,,,,,,,,,,,,,,,,,,344.0524,346.054,0,0,1.4893,,0,7,7,38,1,0,mexican,,,,,,,,,,,,,,,,,,,,,,,,,,,,,,,,,,,,,,,,,,,,,,,,,,,,,,,,
,,,,,,,,,5f91a6bf59acc003a749718a,Spanish,13 or older,"no, only English or Spanish",no,2025-07-23_00h58.21.103,empathy_intonation_perc,2024.2.4,Linux armv81,59.88023952,5f91a6bf59acc003a749718a,687ed1b7e638a4cbf2f02089,68806b0f73bf4ee22fdb7022,,,,,,,,,,,,,71,0,,./stim/wavs/castilian_mismatch_declarative-broad-focus_La-nina-lava-el-plato.wav,,,,,,,,,,,,,,,,,,,,,,346.0555,348.5725,0,1,1.9892,,0,8,8,70,1,0,castilian,,,,,,,,,,,,,,,,,,,,,,,,,,,,,,,,,,,,,,,,,,,,,,,,,,,,,,,,
,,,,,,,,,5f91a6bf59acc003a749718a,Spanish,13 or older,"no, only English or Spanish",no,2025-07-23_00h58.21.103,empathy_intonation_perc,2024.2.4,Linux armv81,59.88023952,5f91a6bf59acc003a749718a,687ed1b7e638a4cbf2f02089,68806b0f73bf4ee22fdb7022,,,,,,,,,,,,,85,0,,./stim/wavs/puertorican_mismatch_declarative-broad-focus_El-hombre-mira-la-luna.wav,,,,,,,,,,,,,,,,,,,,,,348.5735,350.6076,0,1,1.5183,,0,9,9,84,1,0,puertorican,,,,,,,,,,,,,,,,,,,,,,,,,,,,,,,,,,,,,,,,,,,,,,,,,,,,,,,,
,,,,,,,,,5f91a6bf59acc003a749718a,Spanish,13 or older,"no, only English or Spanish",no,2025-07-23_00h58.21.103,empathy_intonation_perc,2024.2.4,Linux armv81,59.88023952,5f91a6bf59acc003a749718a,687ed1b7e638a4cbf2f02089,68806b0f73bf4ee22fdb7022,,,,,,,,,,,,,55,0,,./stim/wavs/cuban_match_declarative-broad-focus_Mariano-habla-del-tiempo.wav,,,,,,,,,,,,,,,,,,,,,,350.6085,352.9762,0,1,1.8346,,0,10,10,54,1,0,cuban,,,,,,,,,,,,,,,,,,,,,,,,,,,,,,,,,,,,,,,,,,,,,,,,,,,,,,,,
,,,,,,,,,5f91a6bf59acc003a749718a,Spanish,13 or older,"no, only English or Spanish",no,2025-07-23_00h58.21.103,empathy_intonation_perc,2024.2.4,Linux armv81,59.88023952,5f91a6bf59acc003a749718a,687ed1b7e638a4cbf2f02089,68806b0f73bf4ee22fdb7022,,,,,,,,,,,,,61,0,,./stim/wavs/mexican_match_declarative-broad-focus_Mariano-habla-del-tiempo.wav,,,,,,,,,,,,,,,,,,,,,,352.9777,355.146,0,1,1.6508,,0,11,11,60,1,0,mexican,,,,,,,,,,,,,,,,,,,,,,,,,,,,,,,,,,,,,,,,,,,,,,,,,,,,,,,,
,,,,,,,,,5f91a6bf59acc003a749718a,Spanish,13 or older,"no, only English or Spanish",no,2025-07-23_00h58.21.103,empathy_intonation_perc,2024.2.4,Linux armv81,59.88023952,5f91a6bf59acc003a749718a,687ed1b7e638a4cbf2f02089,68806b0f73bf4ee22fdb7022,,,,,,,,,,,,,87,0,,./stim/wavs/puertorican_mismatch_declarative-broad-focus_La-maestra-vive-en-Paris.wav,,,,,,,,,,,,,,,,,,,,,,355.1521,357.4474,0,1,1.7703,,0,12,12,86,1,0,puertorican,,,,,,,,,,,,,,,,,,,,,,,,,,,,,,,,,,,,,,,,,,,,,,,,,,,,,,,,
,,,,,,,,,5f91a6bf59acc003a749718a,Spanish,13 or older,"no, only English or Spanish",no,2025-07-23_00h58.21.103,empathy_intonation_perc,2024.2.4,Linux armv81,59.88023952,5f91a6bf59acc003a749718a,687ed1b7e638a4cbf2f02089,68806b0f73bf4ee22fdb7022,,,,,,,,,,,,,41,1,,./stim/wavs/puertorican_mismatch_interrogative-total-yn_El-nino-oye-el-rio.wav,,,,,,,,,,,,,,,,,,,,,,357.4483,359.5158,0,0,1.5366,,0,13,13,40,1,1,puertorican,,,,,,,,,,,,,,,,,,,,,,,,,,,,,,,,,,,,,,,,,,,,,,,,,,,,,,,,
,,,,,,,,,5f91a6bf59acc003a749718a,Spanish,13 or older,"no, only English or Spanish",no,2025-07-23_00h58.21.103,empathy_intonation_perc,2024.2.4,Linux armv81,59.88023952,5f91a6bf59acc003a749718a,687ed1b7e638a4cbf2f02089,68806b0f73bf4ee22fdb7022,,,,,,,,,,,,,31,1,,./stim/wavs/cuban_mismatch_interrogative-total-yn_El-nino-oye-el-rio.wav,,,,,,,,,,,,,,,,,,,,,,359.5169,361.5842,0,0,1.5365,,0,14,14,30,1,1,cuban,,,,,,,,,,,,,,,,,,,,,,,,,,,,,,,,,,,,,,,,,,,,,,,,,,,,,,,,
,,,,,,,,,5f91a6bf59acc003a749718a,Spanish,13 or older,"no, only English or Spanish",no,2025-07-23_00h58.21.103,empathy_intonation_perc,2024.2.4,Linux armv81,59.88023952,5f91a6bf59acc003a749718a,687ed1b7e638a4cbf2f02089,68806b0f73bf4ee22fdb7022,,,,,,,,,,,,,9,1,,./stim/wavs/cuban_match_interrogative-total-yn_Manuela-vende-el-carro.wav,,,,,,,,,,,,,,,,,,,,,,361.5851,363.5521,0,0,1.4373,,0,15,15,8,1,1,cuban,,,,,,,,,,,,,,,,,,,,,,,,,,,,,,,,,,,,,,,,,,,,,,,,,,,,,,,,
,,,,,,,,,5f91a6bf59acc003a749718a,Spanish,13 or older,"no, only English or Spanish",no,2025-07-23_00h58.21.103,empathy_intonation_perc,2024.2.4,Linux armv81,59.88023952,5f91a6bf59acc003a749718a,687ed1b7e638a4cbf2f02089,68806b0f73bf4ee22fdb7022,,,,,,,,,,,,,40,1,,./stim/wavs/puertorican_mismatch_interrogative-total-yn_El-hombre-mira-la-luna.wav,,,,,,,,,,,,,,,,,,,,,,363.5528,366.0219,1,1,1.9555,,0,16,16,39,1,1,puertorican,,,,,,,,,,,,,,,,,,,,,,,,,,,,,,,,,,,,,,,,,,,,,,,,,,,,,,,,
,,,,,,,,,5f91a6bf59acc003a749718a,Spanish,13 or older,"no, only English or Spanish",no,2025-07-23_00h58.21.103,empathy_intonation_perc,2024.2.4,Linux armv81,59.88023952,5f91a6bf59acc003a749718a,687ed1b7e638a4cbf2f02089,68806b0f73bf4ee22fdb7022,,,,,,,,,,,,,25,1,,./stim/wavs/castilian_mismatch_interrogative-total-yn_La-maestra-vive-en-Paris.wav,,,,,,,,,,,,,,,,,,,,,,366.0243,369.0407,1,1,2.4864,,0,17,17,24,1,0,castilian,,,,,,,,,,,,,,,,,,,,,,,,,,,,,,,,,,,,,,,,,,,,,,,,,,,,,,,,
,,,,,,,,,5f91a6bf59acc003a749718a,Spanish,13 or older,"no, only English or Spanish",no,2025-07-23_00h58.21.103,empathy_intonation_perc,2024.2.4,Linux armv81,59.88023952,5f91a6bf59acc003a749718a,687ed1b7e638a4cbf2f02089,68806b0f73bf4ee22fdb7022,,,,,,,,,,,,,20,1,,./stim/wavs/puertorican_match_interrogative-total-yn_Daniel-iba-a-Bolivia.wav,,,,,,,,,,,,,,,,,,,,,,369.0417,371.2094,0,0,1.6546,,0,18,18,19,1,1,puertorican,,,,,,,,,,,,,,,,,,,,,,,,,,,,,,,,,,,,,,,,,,,,,,,,,,,,,,,,
,,,,,,,,,5f91a6bf59acc003a749718a,Spanish,13 or older,"no, only English or Spanish",no,2025-07-23_00h58.21.103,empathy_intonation_perc,2024.2.4,Linux armv81,59.88023952,5f91a6bf59acc003a749718a,687ed1b7e638a4cbf2f02089,68806b0f73bf4ee22fdb7022,,,,,,,,,,,,,68,0,,./stim/wavs/puertorican_match_declarative-broad-focus_Maria-bebe-el-vino.wav,,,,,,,,,,,,,,,,,,,,,,371.2103,373.1613,0,1,1.4355,,0,19,19,67,1,0,puertorican,,,,,,,,,,,,,,,,,,,,,,,,,,,,,,,,,,,,,,,,,,,,,,,,,,,,,,,,
,,,,,,,,,5f91a6bf59acc003a749718a,Spanish,13 or older,"no, only English or Spanish",no,2025-07-23_00h58.21.103,empathy_intonation_perc,2024.2.4,Linux armv81,59.88023952,5f91a6bf59acc003a749718a,687ed1b7e638a4cbf2f02089,68806b0f73bf4ee22fdb7022,,,,,,,,,,,,,65,0,,./stim/wavs/puertorican_match_declarative-broad-focus_David-leia-el-libro.wav,,,,,,,,,,,,,,,,,,,,,,373.1621,375.0983,0,1,1.4047,,0,20,20,64,1,0,puertorican,,,,,,,,,,,,,,,,,,,,,,,,,,,,,,,,,,,,,,,,,,,,,,,,,,,,,,,,
,,,,,,,,,5f91a6bf59acc003a749718a,Spanish,13 or older,"no, only English or Spanish",no,2025-07-23_00h58.21.103,empathy_intonation_perc,2024.2.4,Linux armv81,59.88023952,5f91a6bf59acc003a749718a,687ed1b7e638a4cbf2f02089,68806b0f73bf4ee22fdb7022,,,,,,,,,,,,,10,1,,./stim/wavs/cuban_match_interrogative-total-yn_Maria-bebe-el-vino.wav,,,,,,,,,,,,,,,,,,,,,,375.099,377.4321,0,0,1.8065,,0,21,21,9,1,1,cuban,,,,,,,,,,,,,,,,,,,,,,,,,,,,,,,,,,,,,,,,,,,,,,,,,,,,,,,,
,,,,,,,,,5f91a6bf59acc003a749718a,Spanish,13 or older,"no, only English or Spanish",no,2025-07-23_00h58.21.103,empathy_intonation_perc,2024.2.4,Linux armv81,59.88023952,5f91a6bf59acc003a749718a,687ed1b7e638a4cbf2f02089,68806b0f73bf4ee22fdb7022,,,,,,,,,,,,,86,0,,./stim/wavs/puertorican_mismatch_declarative-broad-focus_El-nino-oye-el-rio.wav,,,,,,,,,,,,,,,,,,,,,,377.4331,379.4337,0,1,1.4701,,0,22,22,85,1,0,puertorican,,,,,,,,,,,,,,,,,,,,,,,,,,,,,,,,,,,,,,,,,,,,,,,,,,,,,,,,
,,,,,,,,,5f91a6bf59acc003a749718a,Spanish,13 or older,"no, only English or Spanish",no,2025-07-23_00h58.21.103,empathy_intonation_perc,2024.2.4,Linux armv81,59.88023952,5f91a6bf59acc003a749718a,687ed1b7e638a4cbf2f02089,68806b0f73bf4ee22fdb7022,,,,,,,,,,,,,82,0,,./stim/wavs/mexican_mismatch_declarative-broad-focus_Mi-novio-viene-del-lago.wav,,,,,,,,,,,,,,,,,,,,,,379.4346,381.4187,0,1,1.4517,,0,23,23,81,1,0,mexican,,,,,,,,,,,,,,,,,,,,,,,,,,,,,,,,,,,,,,,,,,,,,,,,,,,,,,,,
,,,,,,,,,5f91a6bf59acc003a749718a,Spanish,13 or older,"no, only English or Spanish",no,2025-07-23_00h58.21.103,empathy_intonation_perc,2024.2.4,Linux armv81,59.88023952,5f91a6bf59acc003a749718a,687ed1b7e638a4cbf2f02089,68806b0f73bf4ee22fdb7022,,,,,,,,,,,,,11,1,,./stim/wavs/cuban_match_interrogative-total-yn_Mariano-habla-del-tiempo.wav,,,,,,,,,,,,,,,,,,,,,,381.4195,383.5375,0,0,1.6027,,0,24,24,10,1,1,cuban,,,,,,,,,,,,,,,,,,,,,,,,,,,,,,,,,,,,,,,,,,,,,,,,,,,,,,,,
,,,,,,,,,5f91a6bf59acc003a749718a,Spanish,13 or older,"no, only English or Spanish",no,2025-07-23_00h58.21.103,empathy_intonation_perc,2024.2.4,Linux armv81,59.88023952,5f91a6bf59acc003a749718a,687ed1b7e638a4cbf2f02089,68806b0f73bf4ee22fdb7022,,,,,,,,,,,,,7,1,,./stim/wavs/cuban_match_interrogative-total-yn_Ana-lleva-el-abrigo.wav,,,,,,,,,,,,,,,,,,,,,,383.5386,385.5563,0,0,1.4879,,0,25,25,6,1,1,cuban,,,,,,,,,,,,,,,,,,,,,,,,,,,,,,,,,,,,,,,,,,,,,,,,,,,,,,,,
,,,,,,,,,5f91a6bf59acc003a749718a,Spanish,13 or older,"no, only English or Spanish",no,2025-07-23_00h58.21.103,empathy_intonation_perc,2024.2.4,Linux armv81,59.88023952,5f91a6bf59acc003a749718a,687ed1b7e638a4cbf2f02089,68806b0f73bf4ee22fdb7022,,,,,,,,,,,,,32,1,,./stim/wavs/cuban_mismatch_interrogative-total-yn_Mi-madre-come-la-fruta.wav,,,,,,,,,,,,,,,,,,,,,,385.5577,387.6581,0,0,1.5863,,0,26,26,31,1,1,cuban,,,,,,,,,,,,,,,,,,,,,,,,,,,,,,,,,,,,,,,,,,,,,,,,,,,,,,,,
,,,,,,,,,5f91a6bf59acc003a749718a,Spanish,13 or older,"no, only English or Spanish",no,2025-07-23_00h58.21.103,empathy_intonation_perc,2024.2.4,Linux armv81,59.88023952,5f91a6bf59acc003a749718a,687ed1b7e638a4cbf2f02089,68806b0f73bf4ee22fdb7022,,,,,,,,,,,,,67,0,,./stim/wavs/puertorican_match_declarative-broad-focus_Manuela-vende-el-carro.wav,,,,,,,,,,,,,,,,,,,,,,387.6593,389.7602,0,1,1.5675,,0,27,27,66,1,0,puertorican,,,,,,,,,,,,,,,,,,,,,,,,,,,,,,,,,,,,,,,,,,,,,,,,,,,,,,,,
,,,,,,,,,5f91a6bf59acc003a749718a,Spanish,13 or older,"no, only English or Spanish",no,2025-07-23_00h58.21.103,empathy_intonation_perc,2024.2.4,Linux armv81,59.88023952,5f91a6bf59acc003a749718a,687ed1b7e638a4cbf2f02089,68806b0f73bf4ee22fdb7022,,,,,,,,,,,,,17,1,,./stim/wavs/mexican_match_interrogative-total-yn_Mariano-habla-del-tiempo.wav,,,,,,,,,,,,,,,,,,,,,,389.7615,392.1453,1,1,1.8528,,0,28,28,16,1,0,mexican,,,,,,,,,,,,,,,,,,,,,,,,,,,,,,,,,,,,,,,,,,,,,,,,,,,,,,,,
,,,,,,,,,5f91a6bf59acc003a749718a,Spanish,13 or older,"no, only English or Spanish",no,2025-07-23_00h58.21.103,empathy_intonation_perc,2024.2.4,Linux armv81,59.88023952,5f91a6bf59acc003a749718a,687ed1b7e638a4cbf2f02089,68806b0f73bf4ee22fdb7022,,,,,,,,,,,,,42,1,,./stim/wavs/puertorican_mismatch_interrogative-total-yn_La-maestra-vive-en-Paris.wav,,,,,,,,,,,,,,,,,,,,,,392.1462,394.6144,0,0,1.9406,,0,29,29,41,1,1,puertorican,,,,,,,,,,,,,,,,,,,,,,,,,,,,,,,,,,,,,,,,,,,,,,,,,,,,,,,,
,,,,,,,,,5f91a6bf59acc003a749718a,Spanish,13 or older,"no, only English or Spanish",no,2025-07-23_00h58.21.103,empathy_intonation_perc,2024.2.4,Linux armv81,59.88023952,5f91a6bf59acc003a749718a,687ed1b7e638a4cbf2f02089,68806b0f73bf4ee22fdb7022,,,,,,,,,,,,,76,0,,./stim/wavs/cuban_mismatch_declarative-broad-focus_La-nina-lava-el-plato.wav,,,,,,,,,,,,,,,,,,,,,,394.6153,396.9499,0,1,1.8067,,0,30,30,75,1,0,cuban,,,,,,,,,,,,,,,,,,,,,,,,,,,,,,,,,,,,,,,,,,,,,,,,,,,,,,,,
,,,,,,,,,5f91a6bf59acc003a749718a,Spanish,13 or older,"no, only English or Spanish",no,2025-07-23_00h58.21.103,empathy_intonation_perc,2024.2.4,Linux armv81,59.88023952,5f91a6bf59acc003a749718a,687ed1b7e638a4cbf2f02089,68806b0f73bf4ee22fdb7022,,,,,,,,,,,,,1,1,,./stim/wavs/castilian_match_interrogative-total-yn_David-leia-el-libro.wav,,,,,,,,,,,,,,,,,,,,,,396.951,399.7186,1,1,2.2572,,0,31,31,0,1,0,castilian,,,,,,,,,,,,,,,,,,,,,,,,,,,,,,,,,,,,,,,,,,,,,,,,,,,,,,,,
,,,,,,,,,5f91a6bf59acc003a749718a,Spanish,13 or older,"no, only English or Spanish",no,2025-07-23_00h58.21.103,empathy_intonation_perc,2024.2.4,Linux armv81,59.88023952,5f91a6bf59acc003a749718a,687ed1b7e638a4cbf2f02089,68806b0f73bf4ee22fdb7022,,,,,,,,,,,,,50,0,,./stim/wavs/castilian_match_declarative-broad-focus_Marta-abre-el-regalo.wav,,,,,,,,,,,,,,,,,,,,,,399.7195,401.9709,0,1,1.7438,,0,32,32,49,1,0,castilian,,,,,,,,,,,,,,,,,,,,,,,,,,,,,,,,,,,,,,,,,,,,,,,,,,,,,,,,
,,,,,,,,,5f91a6bf59acc003a749718a,Spanish,13 or older,"no, only English or Spanish",no,2025-07-23_00h58.21.103,empathy_intonation_perc,2024.2.4,Linux armv81,59.88023952,5f91a6bf59acc003a749718a,687ed1b7e638a4cbf2f02089,68806b0f73bf4ee22fdb7022,,,,,,,,,,,,,4,1,,./stim/wavs/castilian_match_interrogative-total-yn_Maria-bebe-el-vino.wav,,,,,,,,,,,,,,,,,,,,,,401.9718,404.3074,1,1,1.827,,0,33,33,3,1,0,castilian,,,,,,,,,,,,,,,,,,,,,,,,,,,,,,,,,,,,,,,,,,,,,,,,,,,,,,,,
,,,,,,,,,5f91a6bf59acc003a749718a,Spanish,13 or older,"no, only English or Spanish",no,2025-07-23_00h58.21.103,empathy_intonation_perc,2024.2.4,Linux armv81,59.88023952,5f91a6bf59acc003a749718a,687ed1b7e638a4cbf2f02089,68806b0f73bf4ee22fdb7022,,,,,,,,,,,,,46,0,,./stim/wavs/castilian_match_declarative-broad-focus_Emilio-ama-la-marcha.wav,,,,,,,,,,,,,,,,,,,,,,404.3084,406.611,0,1,1.7811,,0,34,34,45,1,0,castilian,,,,,,,,,,,,,,,,,,,,,,,,,,,,,,,,,,,,,,,,,,,,,,,,,,,,,,,,
,,,,,,,,,5f91a6bf59acc003a749718a,Spanish,13 or older,"no, only English or Spanish",no,2025-07-23_00h58.21.103,empathy_intonation_perc,2024.2.4,Linux armv81,59.88023952,5f91a6bf59acc003a749718a,687ed1b7e638a4cbf2f02089,68806b0f73bf4ee22fdb7022,,,,,,,,,,,,,57,0,,./stim/wavs/mexican_match_declarative-broad-focus_Ana-lleva-el-abrigo.wav,,,,,,,,,,,,,,,,,,,,,,406.6117,408.4935,0,1,1.3564,,0,35,35,56,1,0,mexican,,,,,,,,,,,,,,,,,,,,,,,,,,,,,,,,,,,,,,,,,,,,,,,,,,,,,,,,
,,,,,,,,,5f91a6bf59acc003a749718a,Spanish,13 or older,"no, only English or Spanish",no,2025-07-23_00h58.21.103,empathy_intonation_perc,2024.2.4,Linux armv81,59.88023952,5f91a6bf59acc003a749718a,687ed1b7e638a4cbf2f02089,68806b0f73bf4ee22fdb7022,,,,,,,,,,,,,58,0,,./stim/wavs/mexican_match_declarative-broad-focus_Daniel-iba-a-Bolivia.wav,,,,,,,,,,,,,,,,,,,,,,408.4945,410.5956,0,1,1.575,,0,36,36,57,1,0,mexican,,,,,,,,,,,,,,,,,,,,,,,,,,,,,,,,,,,,,,,,,,,,,,,,,,,,,,,,
,,,,,,,,,5f91a6bf59acc003a749718a,Spanish,13 or older,"no, only English or Spanish",no,2025-07-23_00h58.21.103,empathy_intonation_perc,2024.2.4,Linux armv81,59.88023952,5f91a6bf59acc003a749718a,687ed1b7e638a4cbf2f02089,68806b0f73bf4ee22fdb7022,,,,,,,,,,,,,14,1,,./stim/wavs/mexican_match_interrogative-total-yn_Daniel-iba-a-Bolivia.wav,,,,,,,,,,,,,,,,,,,,,,410.5969,413.0478,1,1,1.9221,,0,37,37,13,1,0,mexican,,,,,,,,,,,,,,,,,,,,,,,,,,,,,,,,,,,,,,,,,,,,,,,,,,,,,,,,
,,,,,,,,,5f91a6bf59acc003a749718a,Spanish,13 or older,"no, only English or Spanish",no,2025-07-23_00h58.21.103,empathy_intonation_perc,2024.2.4,Linux armv81,59.88023952,5f91a6bf59acc003a749718a,687ed1b7e638a4cbf2f02089,68806b0f73bf4ee22fdb7022,,,,,,,,,,,,,79,0,,./stim/wavs/mexican_mismatch_declarative-broad-focus_El-bebe-comia-muy-bien.wav,,,,,,,,,,,,,,,,,,,,,,413.0485,415.4668,0,1,1.894,,0,38,38,78,1,0,mexican,,,,,,,,,,,,,,,,,,,,,,,,,,,,,,,,,,,,,,,,,,,,,,,,,,,,,,,,
,,,,,,,,,5f91a6bf59acc003a749718a,Spanish,13 or older,"no, only English or Spanish",no,2025-07-23_00h58.21.103,empathy_intonation_perc,2024.2.4,Linux armv81,59.88023952,5f91a6bf59acc003a749718a,687ed1b7e638a4cbf2f02089,68806b0f73bf4ee22fdb7022,,,,,,,,,,,,,28,1,,./stim/wavs/castilian_mismatch_interrogative-total-yn_Mi-novio-viene-del-lago.wav,,,,,,,,,,,,,,,,,,,,,,415.4676,418.0524,0,0,2.0731,,0,39,39,27,1,0,castilian,,,,,,,,,,,,,,,,,,,,,,,,,,,,,,,,,,,,,,,,,,,,,,,,,,,,,,,,
,,,,,,,,,5f91a6bf59acc003a749718a,Spanish,13 or older,"no, only English or Spanish",no,2025-07-23_00h58.21.103,empathy_intonation_perc,2024.2.4,Linux armv81,59.88023952,5f91a6bf59acc003a749718a,687ed1b7e638a4cbf2f02089,68806b0f73bf4ee22fdb7022,,,,,,,,,,,,,23,1,,./stim/wavs/puertorican_match_interrogative-total-yn_Manuela-vende-el-carro.wav,,,,,,,,,,,,,,,,,,,,,,418.0534,420.5383,0,0,1.9709,,0,40,40,22,1,1,puertorican,,,,,,,,,,,,,,,,,,,,,,,,,,,,,,,,,,,,,,,,,,,,,,,,,,,,,,,,
,,,,,,,,,5f91a6bf59acc003a749718a,Spanish,13 or older,"no, only English or Spanish",no,2025-07-23_00h58.21.103,empathy_intonation_perc,2024.2.4,Linux armv81,59.88023952,5f91a6bf59acc003a749718a,687ed1b7e638a4cbf2f02089,68806b0f73bf4ee22fdb7022,,,,,,,,,,,,,19,1,,./stim/wavs/puertorican_match_interrogative-total-yn_Ana-lleva-el-abrigo.wav,,,,,,,,,,,,,,,,,,,,,,420.539,422.6064,0,0,1.5345,,0,41,41,18,1,1,puertorican,,,,,,,,,,,,,,,,,,,,,,,,,,,,,,,,,,,,,,,,,,,,,,,,,,,,,,,,
,,,,,,,,,5f91a6bf59acc003a749718a,Spanish,13 or older,"no, only English or Spanish",no,2025-07-23_00h58.21.103,empathy_intonation_perc,2024.2.4,Linux armv81,59.88023952,5f91a6bf59acc003a749718a,687ed1b7e638a4cbf2f02089,68806b0f73bf4ee22fdb7022,,,,,,,,,,,,,22,1,,./stim/wavs/puertorican_match_interrogative-total-yn_Emilio-ama-la-marcha.wav,,,,,,,,,,,,,,,,,,,,,,422.6076,424.675,0,0,1.5355,,0,42,42,21,1,1,puertorican,,,,,,,,,,,,,,,,,,,,,,,,,,,,,,,,,,,,,,,,,,,,,,,,,,,,,,,,
,,,,,,,,,5f91a6bf59acc003a749718a,Spanish,13 or older,"no, only English or Spanish",no,2025-07-23_00h58.21.103,empathy_intonation_perc,2024.2.4,Linux armv81,59.88023952,5f91a6bf59acc003a749718a,687ed1b7e638a4cbf2f02089,68806b0f73bf4ee22fdb7022,,,,,,,,,,,,,37,1,,./stim/wavs/mexican_mismatch_interrogative-total-yn_La-maestra-vive-en-Paris.wav,,,,,,,,,,,,,,,,,,,,,,424.676,427.3609,1,1,2.1697,,0,43,43,36,1,0,mexican,,,,,,,,,,,,,,,,,,,,,,,,,,,,,,,,,,,,,,,,,,,,,,,,,,,,,,,,
,,,,,,,,,5f91a6bf59acc003a749718a,Spanish,13 or older,"no, only English or Spanish",no,2025-07-23_00h58.21.103,empathy_intonation_perc,2024.2.4,Linux armv81,59.88023952,5f91a6bf59acc003a749718a,687ed1b7e638a4cbf2f02089,68806b0f73bf4ee22fdb7022,,,,,,,,,,,,,53,0,,./stim/wavs/cuban_match_declarative-broad-focus_Manuela-vende-el-carro.wav,,,,,,,,,,,,,,,,,,,,,,427.3615,429.7464,0,1,1.8691,,0,44,44,52,1,0,cuban,,,,,,,,,,,,,,,,,,,,,,,,,,,,,,,,,,,,,,,,,,,,,,,,,,,,,,,,
,,,,,,,,,5f91a6bf59acc003a749718a,Spanish,13 or older,"no, only English or Spanish",no,2025-07-23_00h58.21.103,empathy_intonation_perc,2024.2.4,Linux armv81,59.88023952,5f91a6bf59acc003a749718a,687ed1b7e638a4cbf2f02089,68806b0f73bf4ee22fdb7022,,,,,,,,,,,,,56,0,,./stim/wavs/cuban_match_declarative-broad-focus_Marta-abre-el-regalo.wav,,,,,,,,,,,,,,,,,,,,,,429.7472,431.8156,0,1,1.5565,,0,45,45,55,1,0,cuban,,,,,,,,,,,,,,,,,,,,,,,,,,,,,,,,,,,,,,,,,,,,,,,,,,,,,,,,
,,,,,,,,,5f91a6bf59acc003a749718a,Spanish,13 or older,"no, only English or Spanish",no,2025-07-23_00h58.21.103,empathy_intonation_perc,2024.2.4,Linux armv81,59.88023952,5f91a6bf59acc003a749718a,687ed1b7e638a4cbf2f02089,68806b0f73bf4ee22fdb7022,,,,,,,,,,,,,88,0,,./stim/wavs/puertorican_mismatch_declarative-broad-focus_La-nina-lava-el-plato.wav,,,,,,,,,,,,,,,,,,,,,,431.817,433.8207,0,1,1.4803,,0,46,46,87,1,0,puertorican,,,,,,,,,,,,,,,,,,,,,,,,,,,,,,,,,,,,,,,,,,,,,,,,,,,,,,,,
,,,,,,,,,5f91a6bf59acc003a749718a,Spanish,13 or older,"no, only English or Spanish",no,2025-07-23_00h58.21.103,empathy_intonation_perc,2024.2.4,Linux armv81,59.88023952,5f91a6bf59acc003a749718a,687ed1b7e638a4cbf2f02089,68806b0f73bf4ee22fdb7022,,,,,,,,,,,,,54,0,,./stim/wavs/cuban_match_declarative-broad-focus_Maria-bebe-el-vino.wav,,,,,,,,,,,,,,,,,,,,,,433.8218,435.8182,0,1,1.4768,,0,47,47,53,1,0,cuban,,,,,,,,,,,,,,,,,,,,,,,,,,,,,,,,,,,,,,,,,,,,,,,,,,,,,,,,
,,,,,,,,,5f91a6bf59acc003a749718a,Spanish,13 or older,"no, only English or Spanish",no,2025-07-23_00h58.21.103,empathy_intonation_perc,2024.2.4,Linux armv81,59.88023952,5f91a6bf59acc003a749718a,687ed1b7e638a4cbf2f02089,68806b0f73bf4ee22fdb7022,,,,,,,,,,,,,33,1,,./stim/wavs/cuban_mismatch_interrogative-total-yn_Mi-novio-viene-del-lago.wav,,,,,,,,,,,,,,,,,,,,,,435.819,438.0203,0,0,1.6725,,0,48,48,32,1,1,cuban,,,,,,,,,,,,,,,,,,,,,,,,,,,,,,,,,,,,,,,,,,,,,,,,,,,,,,,,
,,,,,,,,,5f91a6bf59acc003a749718a,Spanish,13 or older,"no, only English or Spanish",no,2025-07-23_00h58.21.103,empathy_intonation_perc,2024.2.4,Linux armv81,59.88023952,5f91a6bf59acc003a749718a,687ed1b7e638a4cbf2f02089,68806b0f73bf4ee22fdb7022,,,,,,,,,,,,,77,0,,./stim/wavs/cuban_mismatch_declarative-broad-focus_Mi-novio-viene-del-lago.wav,,,,,,,,,,,,,,,,,,,,,,438.0212,440.3389,0,1,1.7852,,0,49,49,76,1,0,cuban,,,,,,,,,,,,,,,,,,,,,,,,,,,,,,,,,,,,,,,,,,,,,,,,,,,,,,,,
,,,,,,,,,5f91a6bf59acc003a749718a,Spanish,13 or older,"no, only English or Spanish",no,2025-07-23_00h58.21.103,empathy_intonation_perc,2024.2.4,Linux armv81,59.88023952,5f91a6bf59acc003a749718a,687ed1b7e638a4cbf2f02089,68806b0f73bf4ee22fdb7022,,,,,,,,,,,,,44,1,,./stim/wavs/puertorican_mismatch_interrogative-total-yn_Mi-madre-come-la-fruta.wav,,,,,,,,,,,,,,,,,,,,,,440.3397,442.5576,0,0,1.7037,,0,50,50,43,1,1,puertorican,,,,,,,,,,,,,,,,,,,,,,,,,,,,,,,,,,,,,,,,,,,,,,,,,,,,,,,,
,,,,,,,,,5f91a6bf59acc003a749718a,Spanish,13 or older,"no, only English or Spanish",no,2025-07-23_00h58.21.103,empathy_intonation_perc,2024.2.4,Linux armv81,59.88023952,5f91a6bf59acc003a749718a,687ed1b7e638a4cbf2f02089,68806b0f73bf4ee22fdb7022,,,,,,,,,,,,,15,1,,./stim/wavs/mexican_match_interrogative-total-yn_David-leia-el-libro.wav,,,,,,,,,,,,,,,,,,,,,,442.5584,444.9096,1,1,1.8229,,0,51,51,14,1,0,mexican,,,,,,,,,,,,,,,,,,,,,,,,,,,,,,,,,,,,,,,,,,,,,,,,,,,,,,,,
,,,,,,,,,5f91a6bf59acc003a749718a,Spanish,13 or older,"no, only English or Spanish",no,2025-07-23_00h58.21.103,empathy_intonation_perc,2024.2.4,Linux armv81,59.88023952,5f91a6bf59acc003a749718a,687ed1b7e638a4cbf2f02089,68806b0f73bf4ee22fdb7022,,,,,,,,,,,,,8,1,,./stim/wavs/cuban_match_interrogative-total-yn_Daniel-iba-a-Bolivia.wav,,,,,,,,,,,,,,,,,,,,,,444.9104,447.328,0,0,1.9073,,0,52,52,7,1,1,cuban,,,,,,,,,,,,,,,,,,,,,,,,,,,,,,,,,,,,,,,,,,,,,,,,,,,,,,,,
,,,,,,,,,5f91a6bf59acc003a749718a,Spanish,13 or older,"no, only English or Spanish",no,2025-07-23_00h58.21.103,empathy_intonation_perc,2024.2.4,Linux armv81,59.88023952,5f91a6bf59acc003a749718a,687ed1b7e638a4cbf2f02089,68806b0f73bf4ee22fdb7022,,,,,,,,,,,,,27,1,,./stim/wavs/castilian_mismatch_interrogative-total-yn_Mi-madre-come-la-fruta.wav,,,,,,,,,,,,,,,,,,,,,,447.3287,450.2995,1,1,2.4631,,0,53,53,26,1,0,castilian,,,,,,,,,,,,,,,,,,,,,,,,,,,,,,,,,,,,,,,,,,,,,,,,,,,,,,,,
,,,,,,,,,5f91a6bf59acc003a749718a,Spanish,13 or older,"no, only English or Spanish",no,2025-07-23_00h58.21.103,empathy_intonation_perc,2024.2.4,Linux armv81,59.88023952,5f91a6bf59acc003a749718a,687ed1b7e638a4cbf2f02089,68806b0f73bf4ee22fdb7022,,,,,,,,,,,,,49,0,,./stim/wavs/castilian_match_declarative-broad-focus_Mariano-habla-del-tiempo.wav,,,,,,,,,,,,,,,,,,,,,,450.3008,452.9502,0,1,2.1394,,0,54,54,48,1,0,castilian,,,,,,,,,,,,,,,,,,,,,,,,,,,,,,,,,,,,,,,,,,,,,,,,,,,,,,,,
,,,,,,,,,5f91a6bf59acc003a749718a,Spanish,13 or older,"no, only English or Spanish",no,2025-07-23_00h58.21.103,empathy_intonation_perc,2024.2.4,Linux armv81,59.88023952,5f91a6bf59acc003a749718a,687ed1b7e638a4cbf2f02089,68806b0f73bf4ee22fdb7022,,,,,,,,,,,,,24,1,,./stim/wavs/puertorican_match_interrogative-total-yn_Maria-bebe-el-vino.wav,,,,,,,,,,,,,,,,,,,,,,452.9509,454.904,0,0,1.4238,,0,55,55,23,1,1,puertorican,,,,,,,,,,,,,,,,,,,,,,,,,,,,,,,,,,,,,,,,,,,,,,,,,,,,,,,,
,,,,,,,,,5f91a6bf59acc003a749718a,Spanish,13 or older,"no, only English or Spanish",no,2025-07-23_00h58.21.103,empathy_intonation_perc,2024.2.4,Linux armv81,59.88023952,5f91a6bf59acc003a749718a,687ed1b7e638a4cbf2f02089,68806b0f73bf4ee22fdb7022,,,,,,,,,,,,,52,0,,./stim/wavs/cuban_match_declarative-broad-focus_Daniel-iba-a-Bolivia.wav,,,,,,,,,,,,,,,,,,,,,,454.9046,457.4872,0,1,2.058,,0,56,56,51,1,0,cuban,,,,,,,,,,,,,,,,,,,,,,,,,,,,,,,,,,,,,,,,,,,,,,,,,,,,,,,,
,,,,,,,,,5f91a6bf59acc003a749718a,Spanish,13 or older,"no, only English or Spanish",no,2025-07-23_00h58.21.103,empathy_intonation_perc,2024.2.4,Linux armv81,59.88023952,5f91a6bf59acc003a749718a,687ed1b7e638a4cbf2f02089,68806b0f73bf4ee22fdb7022,,,,,,,,,,,,,80,0,,./stim/wavs/mexican_mismatch_declarative-broad-focus_El-hombre-mira-la-luna.wav,,,,,,,,,,,,,,,,,,,,,,457.4879,459.5394,0,1,1.5374,,0,57,57,79,1,0,mexican,,,,,,,,,,,,,,,,,,,,,,,,,,,,,,,,,,,,,,,,,,,,,,,,,,,,,,,,
,,,,,,,,,5f91a6bf59acc003a749718a,Spanish,13 or older,"no, only English or Spanish",no,2025-07-23_00h58.21.103,empathy_intonation_perc,2024.2.4,Linux armv81,59.88023952,5f91a6bf59acc003a749718a,687ed1b7e638a4cbf2f02089,68806b0f73bf4ee22fdb7022,,,,,,,,,,,,,48,0,,./stim/wavs/castilian_match_declarative-broad-focus_Maria-bebe-el-vino.wav,,,,,,,,,,,,,,,,,,,,,,459.5412,461.6912,0,1,1.6273,,0,58,58,47,1,0,castilian,,,,,,,,,,,,,,,,,,,,,,,,,,,,,,,,,,,,,,,,,,,,,,,,,,,,,,,,
,,,,,,,,,5f91a6bf59acc003a749718a,Spanish,13 or older,"no, only English or Spanish",no,2025-07-23_00h58.21.103,empathy_intonation_perc,2024.2.4,Linux armv81,59.88023952,5f91a6bf59acc003a749718a,687ed1b7e638a4cbf2f02089,68806b0f73bf4ee22fdb7022,,,,,,,,,,,,,60,0,,./stim/wavs/mexican_match_declarative-broad-focus_Emilio-ama-la-marcha.wav,,,,,,,,,,,,,,,,,,,,,,461.692,464.327,0,1,2.1014,,0,59,59,59,1,0,mexican,,,,,,,,,,,,,,,,,,,,,,,,,,,,,,,,,,,,,,,,,,,,,,,,,,,,,,,,
,,,,,,,,,5f91a6bf59acc003a749718a,Spanish,13 or older,"no, only English or Spanish",no,2025-07-23_00h58.21.103,empathy_intonation_perc,2024.2.4,Linux armv81,59.88023952,5f91a6bf59acc003a749718a,687ed1b7e638a4cbf2f02089,68806b0f73bf4ee22fdb7022,,,,,,,,,,,,,69,0,,./stim/wavs/castilian_mismatch_declarative-broad-focus_El-nino-oye-el-rio.wav,,,,,,,,,,,,,,,,,,,,,,464.3277,466.6128,0,1,1.7733,,0,60,60,68,1,0,castilian,,,,,,,,,,,,,,,,,,,,,,,,,,,,,,,,,,,,,,,,,,,,,,,,,,,,,,,,
,,,,,,,,,5f91a6bf59acc003a749718a,Spanish,13 or older,"no, only English or Spanish",no,2025-07-23_00h58.21.103,empathy_intonation_perc,2024.2.4,Linux armv81,59.88023952,5f91a6bf59acc003a749718a,687ed1b7e638a4cbf2f02089,68806b0f73bf4ee22fdb7022,,,,,,,,,,,,,12,1,,./stim/wavs/cuban_match_interrogative-total-yn_Marta-abre-el-regalo.wav,,,,,,,,,,,,,,,,,,,,,,466.6138,468.5823,0,0,1.4386,,0,61,61,11,1,1,cuban,,,,,,,,,,,,,,,,,,,,,,,,,,,,,,,,,,,,,,,,,,,,,,,,,,,,,,,,
,,,,,,,,,5f91a6bf59acc003a749718a,Spanish,13 or older,"no, only English or Spanish",no,2025-07-23_00h58.21.103,empathy_intonation_perc,2024.2.4,Linux armv81,59.88023952,5f91a6bf59acc003a749718a,687ed1b7e638a4cbf2f02089,68806b0f73bf4ee22fdb7022,,,,,,,,,,,,,3,1,,./stim/wavs/castilian_match_interrogative-total-yn_Manuela-vende-el-carro.wav,,,,,,,,,,,,,,,,,,,,,,468.5836,470.9171,0,0,1.8055,,0,62,62,2,1,0,castilian,,,,,,,,,,,,,,,,,,,,,,,,,,,,,,,,,,,,,,,,,,,,,,,,,,,,,,,,
,,,,,,,,,5f91a6bf59acc003a749718a,Spanish,13 or older,"no, only English or Spanish",no,2025-07-23_00h58.21.103,empathy_intonation_perc,2024.2.4,Linux armv81,59.88023952,5f91a6bf59acc003a749718a,687ed1b7e638a4cbf2f02089,68806b0f73bf4ee22fdb7022,,,,,,,,,,,,,62,0,,./stim/wavs/mexican_match_declarative-broad-focus_Marta-abre-el-regalo.wav,,,,,,,,,,,,,,,,,,,,,,470.9182,473.1192,0,1,1.6709,,0,63,63,61,1,0,mexican,,,,,,,,,,,,,,,,,,,,,,,,,,,,,,,,,,,,,,,,,,,,,,,,,,,,,,,,
,,,,,,,,,5f91a6bf59acc003a749718a,Spanish,13 or older,"no, only English or Spanish",no,2025-07-23_00h58.21.103,empathy_intonation_perc,2024.2.4,Linux armv81,59.88023952,5f91a6bf59acc003a749718a,687ed1b7e638a4cbf2f02089,68806b0f73bf4ee22fdb7022,,,,,,,,,,,,,30,1,,./stim/wavs/cuban_mismatch_interrogative-total-yn_El-hombre-mira-la-luna.wav,,,,,,,,,,,,,,,,,,,,,,473.12,475.2544,0,0,1.6006,,0,64,64,29,1,1,cuban,,,,,,,,,,,,,,,,,,,,,,,,,,,,,,,,,,,,,,,,,,,,,,,,,,,,,,,,
,,,,,,,,,5f91a6bf59acc003a749718a,Spanish,13 or older,"no, only English or Spanish",no,2025-07-23_00h58.21.103,empathy_intonation_perc,2024.2.4,Linux armv81,59.88023952,5f91a6bf59acc003a749718a,687ed1b7e638a4cbf2f02089,68806b0f73bf4ee22fdb7022,,,,,,,,,,,,,84,0,,./stim/wavs/puertorican_mismatch_declarative-broad-focus_El-bebe-comia-muy-bien.wav,,,,,,,,,,,,,,,,,,,,,,475.2556,477.4247,0,1,1.6529,,0,65,65,83,1,0,puertorican,,,,,,,,,,,,,,,,,,,,,,,,,,,,,,,,,,,,,,,,,,,,,,,,,,,,,,,,
,,,,,,,,,5f91a6bf59acc003a749718a,Spanish,13 or older,"no, only English or Spanish",no,2025-07-23_00h58.21.103,empathy_intonation_perc,2024.2.4,Linux armv81,59.88023952,5f91a6bf59acc003a749718a,687ed1b7e638a4cbf2f02089,68806b0f73bf4ee22fdb7022,,,,,,,,,,,,,18,1,,./stim/wavs/mexican_match_interrogative-total-yn_Marta-abre-el-regalo.wav,,,,,,,,,,,,,,,,,,,,,,477.4262,479.9754,0,0,2.0233,,0,66,66,17,1,0,mexican,,,,,,,,,,,,,,,,,,,,,,,,,,,,,,,,,,,,,,,,,,,,,,,,,,,,,,,,
,,,,,,,,,5f91a6bf59acc003a749718a,Spanish,13 or older,"no, only English or Spanish",no,2025-07-23_00h58.21.103,empathy_intonation_perc,2024.2.4,Linux armv81,59.88023952,5f91a6bf59acc003a749718a,687ed1b7e638a4cbf2f02089,68806b0f73bf4ee22fdb7022,,,,,,,,,,,,,29,1,,./stim/wavs/castilian_mismatch_interrogative-total-yn_Mi-tia-odia-la-lluvia.wav,,,,,,,,,,,,,,,,,,,,,,479.976,482.5637,1,1,2.0786,,0,67,67,28,1,0,castilian,,,,,,,,,,,,,,,,,,,,,,,,,,,,,,,,,,,,,,,,,,,,,,,,,,,,,,,,
,,,,,,,,,5f91a6bf59acc003a749718a,Spanish,13 or older,"no, only English or Spanish",no,2025-07-23_00h58.21.103,empathy_intonation_perc,2024.2.4,Linux armv81,59.88023952,5f91a6bf59acc003a749718a,687ed1b7e638a4cbf2f02089,68806b0f73bf4ee22fdb7022,,,,,,,,,,,,,5,1,,./stim/wavs/castilian_match_interrogative-total-yn_Mariano-habla-del-tiempo.wav,,,,,,,,,,,,,,,,,,,,,,482.5646,485.9812,1,1,2.8918,,0,68,68,4,1,0,castilian,,,,,,,,,,,,,,,,,,,,,,,,,,,,,,,,,,,,,,,,,,,,,,,,,,,,,,,,
,,,,,,,,,5f91a6bf59acc003a749718a,Spanish,13 or older,"no, only English or Spanish",no,2025-07-23_00h58.21.103,empathy_intonation_perc,2024.2.4,Linux armv81,59.88023952,5f91a6bf59acc003a749718a,687ed1b7e638a4cbf2f02089,68806b0f73bf4ee22fdb7022,,,,,,,,,,,,,72,0,,./stim/wavs/castilian_mismatch_declarative-broad-focus_Mi-novio-viene-del-lago.wav,,,,,,,,,,,,,,,,,,,,,,485.9823,488.3503,0,1,1.8402,,0,69,69,71,1,0,castilian,,,,,,,,,,,,,,,,,,,,,,,,,,,,,,,,,,,,,,,,,,,,,,,,,,,,,,,,
,,,,,,,,,5f91a6bf59acc003a749718a,Spanish,13 or older,"no, only English or Spanish",no,2025-07-23_00h58.21.103,empathy_intonation_perc,2024.2.4,Linux armv81,59.88023952,5f91a6bf59acc003a749718a,687ed1b7e638a4cbf2f02089,68806b0f73bf4ee22fdb7022,,,,,,,,,,,,,45,0,,./stim/wavs/castilian_match_declarative-broad-focus_David-leia-el-libro.wav,,,,,,,,,,,,,,,,,,,,,,488.3511,490.6356,0,1,1.7534,,0,70,70,44,1,0,castilian,,,,,,,,,,,,,,,,,,,,,,,,,,,,,,,,,,,,,,,,,,,,,,,,,,,,,,,,
,,,,,,,,,5f91a6bf59acc003a749718a,Spanish,13 or older,"no, only English or Spanish",no,2025-07-23_00h58.21.103,empathy_intonation_perc,2024.2.4,Linux armv81,59.88023952,5f91a6bf59acc003a749718a,687ed1b7e638a4cbf2f02089,68806b0f73bf4ee22fdb7022,,,,,,,,,,,,,2,1,,./stim/wavs/castilian_match_interrogative-total-yn_Emilio-ama-la-marcha.wav,,,,,,,,,,,,,,,,,,,,,,490.6364,493.3884,1,1,2.2374,,0,71,71,1,1,0,castilian,,,,,,,,,,,,,,,,,,,,,,,,,,,,,,,,,,,,,,,,,,,,,,,,,,,,,,,,
,,,,,,,,,5f91a6bf59acc003a749718a,Spanish,13 or older,"no, only English or Spanish",no,2025-07-23_00h58.21.103,empathy_intonation_perc,2024.2.4,Linux armv81,59.88023952,5f91a6bf59acc003a749718a,687ed1b7e638a4cbf2f02089,68806b0f73bf4ee22fdb7022,,,,,,,,,,,,,43,1,,./stim/wavs/puertorican_mismatch_interrogative-total-yn_La-nina-lava-el-plato.wav,,,,,,,,,,,,,,,,,,,,,,493.3895,495.5072,0,0,1.5846,,0,72,72,42,1,1,puertorican,,,,,,,,,,,,,,,,,,,,,,,,,,,,,,,,,,,,,,,,,,,,,,,,,,,,,,,,
,,,,,,,,,5f91a6bf59acc003a749718a,Spanish,13 or older,"no, only English or Spanish",no,2025-07-23_00h58.21.103,empathy_intonation_perc,2024.2.4,Linux armv81,59.88023952,5f91a6bf59acc003a749718a,687ed1b7e638a4cbf2f02089,68806b0f73bf4ee22fdb7022,,,,,,,,,,,,,73,0,,./stim/wavs/castilian_mismatch_declarative-broad-focus_Mi-tia-odia-la-lluvia.wav,,,,,,,,,,,,,,,,,,,,,,495.5081,497.742,0,1,1.722,,0,73,73,72,1,0,castilian,,,,,,,,,,,,,,,,,,,,,,,,,,,,,,,,,,,,,,,,,,,,,,,,,,,,,,,,
,,,,,,,,,5f91a6bf59acc003a749718a,Spanish,13 or older,"no, only English or Spanish",no,2025-07-23_00h58.21.103,empathy_intonation_perc,2024.2.4,Linux armv81,59.88023952,5f91a6bf59acc003a749718a,687ed1b7e638a4cbf2f02089,68806b0f73bf4ee22fdb7022,,,,,,,,,,,,,6,1,,./stim/wavs/castilian_match_interrogative-total-yn_Marta-abre-el-regalo.wav,,,,,,,,,,,,,,,,,,,,,,497.7427,500.7447,1,1,2.4724,,0,74,74,5,1,0,castilian,,,,,,,,,,,,,,,,,,,,,,,,,,,,,,,,,,,,,,,,,,,,,,,,,,,,,,,,
,,,,,,,,,5f91a6bf59acc003a749718a,Spanish,13 or older,"no, only English or Spanish",no,2025-07-23_00h58.21.103,empathy_intonation_perc,2024.2.4,Linux armv81,59.88023952,5f91a6bf59acc003a749718a,687ed1b7e638a4cbf2f02089,68806b0f73bf4ee22fdb7022,,,,,,,,,,,,,51,0,,./stim/wavs/cuban_match_declarative-broad-focus_Ana-lleva-el-abrigo.wav,,,,,,,,,,,,,,,,,,,,,,500.7454,502.7976,0,1,1.5378,,0,75,75,50,1,0,cuban,,,,,,,,,,,,,,,,,,,,,,,,,,,,,,,,,,,,,,,,,,,,,,,,,,,,,,,,
,,,,,,,,,5f91a6bf59acc003a749718a,Spanish,13 or older,"no, only English or Spanish",no,2025-07-23_00h58.21.103,empathy_intonation_perc,2024.2.4,Linux armv81,59.88023952,5f91a6bf59acc003a749718a,687ed1b7e638a4cbf2f02089,68806b0f73bf4ee22fdb7022,,,,,,,,,,,,,38,1,,./stim/wavs/mexican_mismatch_interrogative-total-yn_Mi-novio-viene-del-lago.wav,,,,,,,,,,,,,,,,,,,,,,502.7992,505.349,1,1,2.0235,,0,76,76,37,1,0,mexican,,,,,,,,,,,,,,,,,,,,,,,,,,,,,,,,,,,,,,,,,,,,,,,,,,,,,,,,
,,,,,,,,,5f91a6bf59acc003a749718a,Spanish,13 or older,"no, only English or Spanish",no,2025-07-23_00h58.21.103,empathy_intonation_perc,2024.2.4,Linux armv81,59.88023952,5f91a6bf59acc003a749718a,687ed1b7e638a4cbf2f02089,68806b0f73bf4ee22fdb7022,,,,,,,,,,,,,74,0,,./stim/wavs/cuban_mismatch_declarative-broad-focus_El-bebe-comia-muy-bien.wav,,,,,,,,,,,,,,,,,,,,,,505.3501,507.4029,0,1,1.5473,,0,77,77,73,1,0,cuban,,,,,,,,,,,,,,,,,,,,,,,,,,,,,,,,,,,,,,,,,,,,,,,,,,,,,,,,
,,,,,,,,,5f91a6bf59acc003a749718a,Spanish,13 or older,"no, only English or Spanish",no,2025-07-23_00h58.21.103,empathy_intonation_perc,2024.2.4,Linux armv81,59.88023952,5f91a6bf59acc003a749718a,687ed1b7e638a4cbf2f02089,68806b0f73bf4ee22fdb7022,,,,,,,,,,,,,13,1,,./stim/wavs/mexican_match_interrogative-total-yn_Ana-lleva-el-abrigo.wav,,,,,,,,,,,,,,,,,,,,,,507.4037,510.0865,1,1,2.1559,,0,78,78,12,1,0,mexican,,,,,,,,,,,,,,,,,,,,,,,,,,,,,,,,,,,,,,,,,,,,,,,,,,,,,,,,
,,,,,,,,,5f91a6bf59acc003a749718a,Spanish,13 or older,"no, only English or Spanish",no,2025-07-23_00h58.21.103,empathy_intonation_perc,2024.2.4,Linux armv81,59.88023952,5f91a6bf59acc003a749718a,687ed1b7e638a4cbf2f02089,68806b0f73bf4ee22fdb7022,,,,,,,,,,,,,83,0,,./stim/wavs/mexican_mismatch_declarative-broad-focus_Mi-tia-odia-la-lluvia.wav,,,,,,,,,,,,,,,,,,,,,,510.0871,512.4383,0,1,1.839,,0,79,79,82,1,0,mexican,,,,,,,,,,,,,,,,,,,,,,,,,,,,,,,,,,,,,,,,,,,,,,,,,,,,,,,,
,,,,,,,,,5f91a6bf59acc003a749718a,Spanish,13 or older,"no, only English or Spanish",no,2025-07-23_00h58.21.103,empathy_intonation_perc,2024.2.4,Linux armv81,59.88023952,5f91a6bf59acc003a749718a,687ed1b7e638a4cbf2f02089,68806b0f73bf4ee22fdb7022,,,,,,,,,,,,,34,1,,./stim/wavs/cuban_mismatch_interrogative-total-yn_Mi-tia-odia-la-lluvia.wav,,,,,,,,,,,,,,,,,,,,,,512.439,514.507,0,0,1.5358,,0,80,80,33,1,1,cuban,,,,,,,,,,,,,,,,,,,,,,,,,,,,,,,,,,,,,,,,,,,,,,,,,,,,,,,,
,,,,,,,,,5f91a6bf59acc003a749718a,Spanish,13 or older,"no, only English or Spanish",no,2025-07-23_00h58.21.103,empathy_intonation_perc,2024.2.4,Linux armv81,59.88023952,5f91a6bf59acc003a749718a,687ed1b7e638a4cbf2f02089,68806b0f73bf4ee22fdb7022,,,,,,,,,,,,,59,0,,./stim/wavs/mexican_match_declarative-broad-focus_David-leia-el-libro.wav,,,,,,,,,,,,,,,,,,,,,,514.5078,516.8595,0,1,1.8283,,0,81,81,58,1,0,mexican,,,,,,,,,,,,,,,,,,,,,,,,,,,,,,,,,,,,,,,,,,,,,,,,,,,,,,,,
,,,,,,,,,5f91a6bf59acc003a749718a,Spanish,13 or older,"no, only English or Spanish",no,2025-07-23_00h58.21.103,empathy_intonation_perc,2024.2.4,Linux armv81,59.88023952,5f91a6bf59acc003a749718a,687ed1b7e638a4cbf2f02089,68806b0f73bf4ee22fdb7022,,,,,,,,,,,,,35,1,,./stim/wavs/mexican_mismatch_interrogative-total-yn_El-hombre-mira-la-luna.wav,,,,,,,,,,,,,,,,,,,,,,516.8606,518.9783,1,1,1.5939,,0,82,82,34,1,0,mexican,,,,,,,,,,,,,,,,,,,,,,,,,,,,,,,,,,,,,,,,,,,,,,,,,,,,,,,,
,,,,,,,,,5f91a6bf59acc003a749718a,Spanish,13 or older,"no, only English or Spanish",no,2025-07-23_00h58.21.103,empathy_intonation_perc,2024.2.4,Linux armv81,59.88023952,5f91a6bf59acc003a749718a,687ed1b7e638a4cbf2f02089,68806b0f73bf4ee22fdb7022,,,,,,,,,,,,,21,1,,./stim/wavs/puertorican_match_interrogative-total-yn_David-leia-el-libro.wav,,,,,,,,,,,,,,,,,,,,,,518.9796,521.1963,0,0,1.6876,,0,83,83,20,1,1,puertorican,,,,,,,,,,,,,,,,,,,,,,,,,,,,,,,,,,,,,,,,,,,,,,,,,,,,,,,,
,,,,,,,,,5f91a6bf59acc003a749718a,Spanish,13 or older,"no, only English or Spanish",no,2025-07-23_00h58.21.103,empathy_intonation_perc,2024.2.4,Linux armv81,59.88023952,5f91a6bf59acc003a749718a,687ed1b7e638a4cbf2f02089,68806b0f73bf4ee22fdb7022,,,,,,,,,,,,,66,0,,./stim/wavs/puertorican_match_declarative-broad-focus_Emilio-ama-la-marcha.wav,,,,,,,,,,,,,,,,,,,,,,521.197,523.6321,0,1,1.903,,0,84,84,65,1,0,puertorican,,,,,,,,,,,,,,,,,,,,,,,,,,,,,,,,,,,,,,,,,,,,,,,,,,,,,,,,
,,,,,,,,,5f91a6bf59acc003a749718a,Spanish,13 or older,"no, only English or Spanish",no,2025-07-23_00h58.21.103,empathy_intonation_perc,2024.2.4,Linux armv81,59.88023952,5f91a6bf59acc003a749718a,687ed1b7e638a4cbf2f02089,68806b0f73bf4ee22fdb7022,,,,,,,,,,,,,75,0,,./stim/wavs/cuban_mismatch_declarative-broad-focus_El-hombre-mira-la-luna.wav,,,,,,,,,,,,,,,,,,,,,,523.6328,525.9349,0,1,1.773,,0,85,85,74,1,0,cuban,,,,,,,,,,,,,,,,,,,,,,,,,,,,,,,,,,,,,,,,,,,,,,,,,,,,,,,,
,,,,,,,,,5f91a6bf59acc003a749718a,Spanish,13 or older,"no, only English or Spanish",no,2025-07-23_00h58.21.103,empathy_intonation_perc,2024.2.4,Linux armv81,59.88023952,5f91a6bf59acc003a749718a,687ed1b7e638a4cbf2f02089,68806b0f73bf4ee22fdb7022,,,,,,,,,,,,,36,1,,./stim/wavs/mexican_mismatch_interrogative-total-yn_El-nino-oye-el-rio.wav,,,,,,,,,,,,,,,,,,,,,,525.9358,528.5372,1,1,2.0703,,0,86,86,35,1,0,mexican,,,,,,,,,,,,,,,,,,,,,,,,,,,,,,,,,,,,,,,,,,,,,,,,,,,,,,,,
,,,,,,,,,5f91a6bf59acc003a749718a,Spanish,13 or older,"no, only English or Spanish",no,2025-07-23_00h58.21.103,empathy_intonation_perc,2024.2.4,Linux armv81,59.88023952,5f91a6bf59acc003a749718a,687ed1b7e638a4cbf2f02089,68806b0f73bf4ee22fdb7022,,,,,,,,,,,,,47,0,,./stim/wavs/castilian_match_declarative-broad-focus_Manuela-vende-el-carro.wav,,,,,,,,,,,,,,,,,,,,,,528.538,531.0052,0,1,1.957,,0,87,87,46,1,0,castilian,,,,,,,,,,,,,,,,,,,,,,,,,,,,,,,,,,,,,,,,,,,,,,,,,,,,,,,,
,,,,,,,"Great! Now we will move on. The next task consists of about 60 trials, in each of which you will see a string of letters. 
  
  Your task is to decide whether this is a real Spanish word or not.", (press the spacebar to continue),5f91a6bf59acc003a749718a,Spanish,13 or older,"no, only English or Spanish",no,2025-07-23_00h58.21.103,empathy_intonation_perc,2024.2.4,Linux armv81,59.88023952,5f91a6bf59acc003a749718a,687ed1b7e638a4cbf2f02089,68806b0f73bf4ee22fdb7022,,,,,,,,,,,,,,,,,,,,,,,,,,,,,,,,,,,,,,,,,,,,,,,,,,,531.0133,548.3244,0,0,0,0,1,,,,,,,,,,,,,,,,,,,,,,,,,,,,,,,,,,,,,,,,,,,,,,,,,
,,,,,,,"If you think it is an existing Spanish word, you type '1' (for 'REAL'), and if you think it is not an existing Spanish word, you type '0' (for 'FAKE').", (press the spacebar to continue),5f91a6bf59acc003a749718a,Spanish,13 or older,"no, only English or Spanish",no,2025-07-23_00h58.21.103,empathy_intonation_perc,2024.2.4,Linux armv81,59.88023952,5f91a6bf59acc003a749718a,687ed1b7e638a4cbf2f02089,68806b0f73bf4ee22fdb7022,,,,,,,,,,,,,,,,,,,,,,,,,,,,,,,,,,,,,,,,,,,,,,,,,,,548.3264,554.7944,0,1,1,1,1,,,,,,,,,,,,,,,,,,,,,,,,,,,,,,,,,,,,,,,,,,,,,,,,,
,,,,,,,"If you are sure that the word exists, even though you don’t know its exact meaning, you may still respond '1' (REAL). 
  
  But if you are not sure if it is an existing word, you should respond '0' (FAKE).
  
  Let's do a practice round...", (press the spacebar to continue),5f91a6bf59acc003a749718a,Spanish,13 or older,"no, only English or Spanish",no,2025-07-23_00h58.21.103,empathy_intonation_perc,2024.2.4,Linux armv81,59.88023952,5f91a6bf59acc003a749718a,687ed1b7e638a4cbf2f02089,68806b0f73bf4ee22fdb7022,,,,,,,,,,,,,,,,,,,,,,,,,,,,,,,,,,,,,,,,,,,,,,,,,,,554.7965,558.4475,0,2,2,2,1,,,,,,,,,,,,,,,,,,,,,,,,,,,,,,,,,,,,,,,,,,,,,,,,,
,,,,,,,,,5f91a6bf59acc003a749718a,Spanish,13 or older,"no, only English or Spanish",no,2025-07-23_00h58.21.103,empathy_intonation_perc,2024.2.4,Linux armv81,59.88023952,5f91a6bf59acc003a749718a,687ed1b7e638a4cbf2f02089,68806b0f73bf4ee22fdb7022,,,,,,,,,,,,,,0,,,,,,,,,,,,,,,,,,,,,,,,,,,,,,,,,,,,,,,,,,,,558.4546,562.052,1,0,3.07,,562.0524,563.0528,0,0,0,0,1,0,depiste,REAL,FAKE,,,,,,,,,,,,,,,,,,,,,,,,,,,,,,,,
,,,,,,,,,5f91a6bf59acc003a749718a,Spanish,13 or older,"no, only English or Spanish",no,2025-07-23_00h58.21.103,empathy_intonation_perc,2024.2.4,Linux armv81,59.88023952,5f91a6bf59acc003a749718a,687ed1b7e638a4cbf2f02089,68806b0f73bf4ee22fdb7022,,,,,,,,,,,,,,1,,,,,,,,,,,,,,,,,,,,,,,,,,,,,,,,,,,,,,,,,,,,563.0551,564.7871,1,1,1.2005,,564.7887,565.7887,0,1,1,1,1,0,sí,REAL,FAKE,,,,,,,,,,,,,,,,,,,,,,,,,,,,,,,,
,,,,,,,,,5f91a6bf59acc003a749718a,Spanish,13 or older,"no, only English or Spanish",no,2025-07-23_00h58.21.103,empathy_intonation_perc,2024.2.4,Linux armv81,59.88023952,5f91a6bf59acc003a749718a,687ed1b7e638a4cbf2f02089,68806b0f73bf4ee22fdb7022,,,,,,,,,,,,,,0,,,,,,,,,,,,,,,,,,,,,,,,,,,,,,,,,,,,,,,,,,,,565.7909,567.8394,1,0,1.5207,,567.8402,568.8418,0,2,2,2,1,0,coné,REAL,FAKE,,,,,,,,,,,,,,,,,,,,,,,,,,,,,,,,
,,,,,,,,,5f91a6bf59acc003a749718a,Spanish,13 or older,"no, only English or Spanish",no,2025-07-23_00h58.21.103,empathy_intonation_perc,2024.2.4,Linux armv81,59.88023952,5f91a6bf59acc003a749718a,687ed1b7e638a4cbf2f02089,68806b0f73bf4ee22fdb7022,,,,,,,,,,,,,,0,,,,,,,,,,,,,,,,,,,,,,,,,,,,,,,,,,,,,,,,,,,,568.8451,570.1415,0,1,0.769,,570.1425,571.1426,0,3,3,3,1,0,calpar,REAL,FAKE,,,,,,,,,,,,,,,,,,,,,,,,,,,,,,,,
,,,,,,,,,5f91a6bf59acc003a749718a,Spanish,13 or older,"no, only English or Spanish",no,2025-07-23_00h58.21.103,empathy_intonation_perc,2024.2.4,Linux armv81,59.88023952,5f91a6bf59acc003a749718a,687ed1b7e638a4cbf2f02089,68806b0f73bf4ee22fdb7022,,,,,,,,,,,,,,0,,,,,,,,,,,,,,,,,,,,,,,,,,,,,,,,,,,,,,,,,,,,571.1442,572.4603,0,1,0.7818,,572.4603,573.4612,0,4,4,4,1,0,joten,REAL,FAKE,,,,,,,,,,,,,,,,,,,,,,,,,,,,,,,,
,,,,,,,,,5f91a6bf59acc003a749718a,Spanish,13 or older,"no, only English or Spanish",no,2025-07-23_00h58.21.103,empathy_intonation_perc,2024.2.4,Linux armv81,59.88023952,5f91a6bf59acc003a749718a,687ed1b7e638a4cbf2f02089,68806b0f73bf4ee22fdb7022,,,,,,,,,,,,,,1,,,,,,,,,,,,,,,,,,,,,,,,,,,,,,,,,,,,,,,,,,,,573.4638,575.1627,0,0,1.1741,,575.1636,576.1638,0,5,5,5,1,0,sacapuntas,REAL,FAKE,,,,,,,,,,,,,,,,,,,,,,,,,,,,,,,,
,,,,,,,,,5f91a6bf59acc003a749718a,Spanish,13 or older,"no, only English or Spanish",no,2025-07-23_00h58.21.103,empathy_intonation_perc,2024.2.4,Linux armv81,59.88023952,5f91a6bf59acc003a749718a,687ed1b7e638a4cbf2f02089,68806b0f73bf4ee22fdb7022,,,,,,,,,,,,,,0,,,,,,,,,,,,,,,,,,,,,,,,,,,,,,,,,,,,,,,,,,,,576.166,578.4819,1,0,1.7984,,578.4821,579.4838,0,6,6,6,1,0,priba,REAL,FAKE,,,,,,,,,,,,,,,,,,,,,,,,,,,,,,,,
,,,,,,,,,5f91a6bf59acc003a749718a,Spanish,13 or older,"no, only English or Spanish",no,2025-07-23_00h58.21.103,empathy_intonation_perc,2024.2.4,Linux armv81,59.88023952,5f91a6bf59acc003a749718a,687ed1b7e638a4cbf2f02089,68806b0f73bf4ee22fdb7022,,,,,,,,,,,,,,0,,,,,,,,,,,,,,,,,,,,,,,,,,,,,,,,,,,,,,,,,,,,579.486,581.4352,0,1,1.4251,,581.4362,582.4363,0,7,7,7,1,0,pelasula,REAL,FAKE,,,,,,,,,,,,,,,,,,,,,,,,,,,,,,,,
,,,,,,,,,5f91a6bf59acc003a749718a,Spanish,13 or older,"no, only English or Spanish",no,2025-07-23_00h58.21.103,empathy_intonation_perc,2024.2.4,Linux armv81,59.88023952,5f91a6bf59acc003a749718a,687ed1b7e638a4cbf2f02089,68806b0f73bf4ee22fdb7022,,,,,,,,,,,,,,1,,,,,,,,,,,,,,,,,,,,,,,,,,,,,,,,,,,,,,,,,,,,582.438,583.837,0,0,0.8673,,583.8383,584.8383,0,8,8,8,1,0,bien,REAL,FAKE,,,,,,,,,,,,,,,,,,,,,,,,,,,,,,,,
,,,,,,,,,5f91a6bf59acc003a749718a,Spanish,13 or older,"no, only English or Spanish",no,2025-07-23_00h58.21.103,empathy_intonation_perc,2024.2.4,Linux armv81,59.88023952,5f91a6bf59acc003a749718a,687ed1b7e638a4cbf2f02089,68806b0f73bf4ee22fdb7022,,,,,,,,,,,,,,1,,,,,,,,,,,,,,,,,,,,,,,,,,,,,,,,,,,,,,,,,,,,584.8411,586.3065,1,1,0.9361,,586.3079,587.3072,0,9,9,9,1,0,casa,REAL,FAKE,,,,,,,,,,,,,,,,,,,,,,,,,,,,,,,,
,,,,,,,,,5f91a6bf59acc003a749718a,Spanish,13 or older,"no, only English or Spanish",no,2025-07-23_00h58.21.103,empathy_intonation_perc,2024.2.4,Linux armv81,59.88023952,5f91a6bf59acc003a749718a,687ed1b7e638a4cbf2f02089,68806b0f73bf4ee22fdb7022,,,,,,,,,,,,,,0,,,,,,,,,,,,,,,,,,,,,,,,,,,,,,,,,,,,,,,,,,,,587.3089,588.6085,0,1,0.7652,,588.6086,589.6105,0,10,10,10,1,0,lejo,REAL,FAKE,,,,,,,,,,,,,,,,,,,,,,,,,,,,,,,,
,,,,,,,,,5f91a6bf59acc003a749718a,Spanish,13 or older,"no, only English or Spanish",no,2025-07-23_00h58.21.103,empathy_intonation_perc,2024.2.4,Linux armv81,59.88023952,5f91a6bf59acc003a749718a,687ed1b7e638a4cbf2f02089,68806b0f73bf4ee22fdb7022,,,,,,,,,,,,,,0,,,,,,,,,,,,,,,,,,,,,,,,,,,,,,,,,,,,,,,,,,,,589.6139,591.5111,0,1,1.3688,,591.5111,592.5124,0,11,11,11,1,0,pretantas,REAL,FAKE,,,,,,,,,,,,,,,,,,,,,,,,,,,,,,,,
,,,,,,,,,5f91a6bf59acc003a749718a,Spanish,13 or older,"no, only English or Spanish",no,2025-07-23_00h58.21.103,empathy_intonation_perc,2024.2.4,Linux armv81,59.88023952,5f91a6bf59acc003a749718a,687ed1b7e638a4cbf2f02089,68806b0f73bf4ee22fdb7022,,,,,,,,,,,,,,,,,,,,,,,,,,,,,,,,,,,,,,,,,,,,,,,,,,,,,,,,,,,,,,,,,,,,,,,,,,,592.5136,597.4185,,,,,,,,,,,,,,,,,,,,,,,,,,,,,,
,,,,,,,,,5f91a6bf59acc003a749718a,Spanish,13 or older,"no, only English or Spanish",no,2025-07-23_00h58.21.103,empathy_intonation_perc,2024.2.4,Linux armv81,59.88023952,5f91a6bf59acc003a749718a,687ed1b7e638a4cbf2f02089,68806b0f73bf4ee22fdb7022,,,,,,,,,,,,,,1,,,,,,,,,,,,,,,,,,,,,,,,,,,,,,,,,,,,,,,,,,,,,,,,,,,,,,,,,78,frondoso,,,,,597.4306,599.6529,0,0,1.7023,,0,0,0,77,1,REAL,FAKE,,,,,,,,,,,,,,,,,
,,,,,,,,,5f91a6bf59acc003a749718a,Spanish,13 or older,"no, only English or Spanish",no,2025-07-23_00h58.21.103,empathy_intonation_perc,2024.2.4,Linux armv81,59.88023952,5f91a6bf59acc003a749718a,687ed1b7e638a4cbf2f02089,68806b0f73bf4ee22fdb7022,,,,,,,,,,,,,,1,,,,,,,,,,,,,,,,,,,,,,,,,,,,,,,,,,,,,,,,,,,,,,,,,,,,,,,,,20,ávido,,,,,599.6542,602.2554,0,0,2.0863,,0,1,1,19,1,REAL,FAKE,,,,,,,,,,,,,,,,,
,,,,,,,,,5f91a6bf59acc003a749718a,Spanish,13 or older,"no, only English or Spanish",no,2025-07-23_00h58.21.103,empathy_intonation_perc,2024.2.4,Linux armv81,59.88023952,5f91a6bf59acc003a749718a,687ed1b7e638a4cbf2f02089,68806b0f73bf4ee22fdb7022,,,,,,,,,,,,,,1,,,,,,,,,,,,,,,,,,,,,,,,,,,,,,,,,,,,,,,,,,,,,,,,,,,,,,,,,54,fomentar,,,,,602.2565,603.9239,0,0,1.154,,0,2,2,53,1,REAL,FAKE,,,,,,,,,,,,,,,,,
,,,,,,,,,5f91a6bf59acc003a749718a,Spanish,13 or older,"no, only English or Spanish",no,2025-07-23_00h58.21.103,empathy_intonation_perc,2024.2.4,Linux armv81,59.88023952,5f91a6bf59acc003a749718a,687ed1b7e638a4cbf2f02089,68806b0f73bf4ee22fdb7022,,,,,,,,,,,,,,0,,,,,,,,,,,,,,,,,,,,,,,,,,,,,,,,,,,,,,,,,,,,,,,,,,,,,,,,,17,floroso,,,,,603.9255,606.4428,1,0,1.9991,,0,3,3,16,1,REAL,FAKE,,,,,,,,,,,,,,,,,
,,,,,,,,,5f91a6bf59acc003a749718a,Spanish,13 or older,"no, only English or Spanish",no,2025-07-23_00h58.21.103,empathy_intonation_perc,2024.2.4,Linux armv81,59.88023952,5f91a6bf59acc003a749718a,687ed1b7e638a4cbf2f02089,68806b0f73bf4ee22fdb7022,,,,,,,,,,,,,,1,,,,,,,,,,,,,,,,,,,,,,,,,,,,,,,,,,,,,,,,,,,,,,,,,,,,,,,,,36,loro,,,,,606.4445,608.5948,1,1,1.6345,,0,4,4,35,1,REAL,FAKE,,,,,,,,,,,,,,,,,
,,,,,,,,,5f91a6bf59acc003a749718a,Spanish,13 or older,"no, only English or Spanish",no,2025-07-23_00h58.21.103,empathy_intonation_perc,2024.2.4,Linux armv81,59.88023952,5f91a6bf59acc003a749718a,687ed1b7e638a4cbf2f02089,68806b0f73bf4ee22fdb7022,,,,,,,,,,,,,,0,,,,,,,,,,,,,,,,,,,,,,,,,,,,,,,,,,,,,,,,,,,,,,,,,,,,,,,,,87,grodo,,,,,608.5969,610.3299,0,1,1.2172,,0,5,5,86,1,REAL,FAKE,,,,,,,,,,,,,,,,,
,,,,,,,,,5f91a6bf59acc003a749718a,Spanish,13 or older,"no, only English or Spanish",no,2025-07-23_00h58.21.103,empathy_intonation_perc,2024.2.4,Linux armv81,59.88023952,5f91a6bf59acc003a749718a,687ed1b7e638a4cbf2f02089,68806b0f73bf4ee22fdb7022,,,,,,,,,,,,,,0,,,,,,,,,,,,,,,,,,,,,,,,,,,,,,,,,,,,,,,,,,,,,,,,,,,,,,,,,72,pemición,,,,,610.3316,612.6325,1,0,1.7839,,0,6,6,71,1,REAL,FAKE,,,,,,,,,,,,,,,,,
,,,,,,,,,5f91a6bf59acc003a749718a,Spanish,13 or older,"no, only English or Spanish",no,2025-07-23_00h58.21.103,empathy_intonation_perc,2024.2.4,Linux armv81,59.88023952,5f91a6bf59acc003a749718a,687ed1b7e638a4cbf2f02089,68806b0f73bf4ee22fdb7022,,,,,,,,,,,,,,1,,,,,,,,,,,,,,,,,,,,,,,,,,,,,,,,,,,,,,,,,,,,,,,,,,,,,,,,,3,pulmones,,,,,612.6343,614.8186,0,0,1.6589,,0,7,7,2,1,REAL,FAKE,,,,,,,,,,,,,,,,,
,,,,,,,,,5f91a6bf59acc003a749718a,Spanish,13 or older,"no, only English or Spanish",no,2025-07-23_00h58.21.103,empathy_intonation_perc,2024.2.4,Linux armv81,59.88023952,5f91a6bf59acc003a749718a,687ed1b7e638a4cbf2f02089,68806b0f73bf4ee22fdb7022,,,,,,,,,,,,,,1,,,,,,,,,,,,,,,,,,,,,,,,,,,,,,,,,,,,,,,,,,,,,,,,,,,,,,,,,43,canela,,,,,614.8203,617.104,1,1,1.7524,,0,8,8,42,1,REAL,FAKE,,,,,,,,,,,,,,,,,
,,,,,,,,,5f91a6bf59acc003a749718a,Spanish,13 or older,"no, only English or Spanish",no,2025-07-23_00h58.21.103,empathy_intonation_perc,2024.2.4,Linux armv81,59.88023952,5f91a6bf59acc003a749718a,687ed1b7e638a4cbf2f02089,68806b0f73bf4ee22fdb7022,,,,,,,,,,,,,,1,,,,,,,,,,,,,,,,,,,,,,,,,,,,,,,,,,,,,,,,,,,,,,,,,,,,,,,,,80,hormiga,,,,,617.1057,618.9556,0,0,1.3213,,0,9,9,79,1,REAL,FAKE,,,,,,,,,,,,,,,,,
,,,,,,,,,5f91a6bf59acc003a749718a,Spanish,13 or older,"no, only English or Spanish",no,2025-07-23_00h58.21.103,empathy_intonation_perc,2024.2.4,Linux armv81,59.88023952,5f91a6bf59acc003a749718a,687ed1b7e638a4cbf2f02089,68806b0f73bf4ee22fdb7022,,,,,,,,,,,,,,1,,,,,,,,,,,,,,,,,,,,,,,,,,,,,,,,,,,,,,,,,,,,,,,,,,,,,,,,,86,barato,,,,,618.9577,621.1908,1,1,1.7049,,0,10,10,85,1,REAL,FAKE,,,,,,,,,,,,,,,,,
,,,,,,,,,5f91a6bf59acc003a749718a,Spanish,13 or older,"no, only English or Spanish",no,2025-07-23_00h58.21.103,empathy_intonation_perc,2024.2.4,Linux armv81,59.88023952,5f91a6bf59acc003a749718a,687ed1b7e638a4cbf2f02089,68806b0f73bf4ee22fdb7022,,,,,,,,,,,,,,1,,,,,,,,,,,,,,,,,,,,,,,,,,,,,,,,,,,,,,,,,,,,,,,,,,,,,,,,,65,bizcocho,,,,,621.1921,623.4104,1,1,1.7075,,0,11,11,64,1,REAL,FAKE,,,,,,,,,,,,,,,,,
,,,,,,,,,5f91a6bf59acc003a749718a,Spanish,13 or older,"no, only English or Spanish",no,2025-07-23_00h58.21.103,empathy_intonation_perc,2024.2.4,Linux armv81,59.88023952,5f91a6bf59acc003a749718a,687ed1b7e638a4cbf2f02089,68806b0f73bf4ee22fdb7022,,,,,,,,,,,,,,1,,,,,,,,,,,,,,,,,,,,,,,,,,,,,,,,,,,,,,,,,,,,,,,,,,,,,,,,,11,cenefa,,,,,623.4116,626.0455,1,1,2.1003,,0,12,12,10,1,REAL,FAKE,,,,,,,,,,,,,,,,,
,,,,,,,,,5f91a6bf59acc003a749718a,Spanish,13 or older,"no, only English or Spanish",no,2025-07-23_00h58.21.103,empathy_intonation_perc,2024.2.4,Linux armv81,59.88023952,5f91a6bf59acc003a749718a,687ed1b7e638a4cbf2f02089,68806b0f73bf4ee22fdb7022,,,,,,,,,,,,,,1,,,,,,,,,,,,,,,,,,,,,,,,,,,,,,,,,,,,,,,,,,,,,,,,,,,,,,,,,25,bisagra,,,,,626.0471,628.0475,0,0,1.4647,,0,13,13,24,1,REAL,FAKE,,,,,,,,,,,,,,,,,
,,,,,,,,,5f91a6bf59acc003a749718a,Spanish,13 or older,"no, only English or Spanish",no,2025-07-23_00h58.21.103,empathy_intonation_perc,2024.2.4,Linux armv81,59.88023952,5f91a6bf59acc003a749718a,687ed1b7e638a4cbf2f02089,68806b0f73bf4ee22fdb7022,,,,,,,,,,,,,,1,,,,,,,,,,,,,,,,,,,,,,,,,,,,,,,,,,,,,,,,,,,,,,,,,,,,,,,,,83,guante,,,,,628.049,629.5324,0,0,0.9653,,0,14,14,82,1,REAL,FAKE,,,,,,,,,,,,,,,,,
,,,,,,,,,5f91a6bf59acc003a749718a,Spanish,13 or older,"no, only English or Spanish",no,2025-07-23_00h58.21.103,empathy_intonation_perc,2024.2.4,Linux armv81,59.88023952,5f91a6bf59acc003a749718a,687ed1b7e638a4cbf2f02089,68806b0f73bf4ee22fdb7022,,,,,,,,,,,,,,1,,,,,,,,,,,,,,,,,,,,,,,,,,,,,,,,,,,,,,,,,,,,,,,,,,,,,,,,,69,engatusar,,,,,629.534,631.1672,0,0,1.1007,,0,15,15,68,1,REAL,FAKE,,,,,,,,,,,,,,,,,
,,,,,,,,,5f91a6bf59acc003a749718a,Spanish,13 or older,"no, only English or Spanish",no,2025-07-23_00h58.21.103,empathy_intonation_perc,2024.2.4,Linux armv81,59.88023952,5f91a6bf59acc003a749718a,687ed1b7e638a4cbf2f02089,68806b0f73bf4ee22fdb7022,,,,,,,,,,,,,,0,,,,,,,,,,,,,,,,,,,,,,,,,,,,,,,,,,,,,,,,,,,,,,,,,,,,,,,,,92,click the 0 key.,,,,,631.169,634.0866,0,1,2.4041,,0,16,16,91,1,REAL,FAKE,,,,,,,,,,,,,,,,,
,,,,,,,,,5f91a6bf59acc003a749718a,Spanish,13 or older,"no, only English or Spanish",no,2025-07-23_00h58.21.103,empathy_intonation_perc,2024.2.4,Linux armv81,59.88023952,5f91a6bf59acc003a749718a,687ed1b7e638a4cbf2f02089,68806b0f73bf4ee22fdb7022,,,,,,,,,,,,,,1,,,,,,,,,,,,,,,,,,,,,,,,,,,,,,,,,,,,,,,,,,,,,,,,,,,,,,,,,39,torpe,,,,,634.0885,636.2749,0,0,1.66,,0,17,17,38,1,REAL,FAKE,,,,,,,,,,,,,,,,,
,,,,,,,,,5f91a6bf59acc003a749718a,Spanish,13 or older,"no, only English or Spanish",no,2025-07-23_00h58.21.103,empathy_intonation_perc,2024.2.4,Linux armv81,59.88023952,5f91a6bf59acc003a749718a,687ed1b7e638a4cbf2f02089,68806b0f73bf4ee22fdb7022,,,,,,,,,,,,,,0,,,,,,,,,,,,,,,,,,,,,,,,,,,,,,,,,,,,,,,,,,,,,,,,,,,,,,,,,19,brecedad,,,,,636.2768,638.2588,1,0,1.4586,,0,18,18,18,1,REAL,FAKE,,,,,,,,,,,,,,,,,
,,,,,,,,,5f91a6bf59acc003a749718a,Spanish,13 or older,"no, only English or Spanish",no,2025-07-23_00h58.21.103,empathy_intonation_perc,2024.2.4,Linux armv81,59.88023952,5f91a6bf59acc003a749718a,687ed1b7e638a4cbf2f02089,68806b0f73bf4ee22fdb7022,,,,,,,,,,,,,,1,,,,,,,,,,,,,,,,,,,,,,,,,,,,,,,,,,,,,,,,,,,,,,,,,,,,,,,,,24,látigo,,,,,638.262,639.7584,1,1,0.9649,,0,19,19,23,1,REAL,FAKE,,,,,,,,,,,,,,,,,
,,,,,,,,,5f91a6bf59acc003a749718a,Spanish,13 or older,"no, only English or Spanish",no,2025-07-23_00h58.21.103,empathy_intonation_perc,2024.2.4,Linux armv81,59.88023952,5f91a6bf59acc003a749718a,687ed1b7e638a4cbf2f02089,68806b0f73bf4ee22fdb7022,,,,,,,,,,,,,,1,,,,,,,,,,,,,,,,,,,,,,,,,,,,,,,,,,,,,,,,,,,,,,,,,,,,,,,,,56,musgo,,,,,639.7614,641.5947,0,0,1.3245,,0,20,20,55,1,REAL,FAKE,,,,,,,,,,,,,,,,,
,,,,,,,,,5f91a6bf59acc003a749718a,Spanish,13 or older,"no, only English or Spanish",no,2025-07-23_00h58.21.103,empathy_intonation_perc,2024.2.4,Linux armv81,59.88023952,5f91a6bf59acc003a749718a,687ed1b7e638a4cbf2f02089,68806b0f73bf4ee22fdb7022,,,,,,,,,,,,,,0,,,,,,,,,,,,,,,,,,,,,,,,,,,,,,,,,,,,,,,,,,,,,,,,,,,,,,,,,18,arsa,,,,,641.5971,644.0626,1,0,1.9348,,0,21,21,17,1,REAL,FAKE,,,,,,,,,,,,,,,,,
,,,,,,,,,5f91a6bf59acc003a749718a,Spanish,13 or older,"no, only English or Spanish",no,2025-07-23_00h58.21.103,empathy_intonation_perc,2024.2.4,Linux armv81,59.88023952,5f91a6bf59acc003a749718a,687ed1b7e638a4cbf2f02089,68806b0f73bf4ee22fdb7022,,,,,,,,,,,,,,1,,,,,,,,,,,,,,,,,,,,,,,,,,,,,,,,,,,,,,,,,,,,,,,,,,,,,,,,,81,pozo,,,,,644.0646,645.9814,1,1,1.3861,,0,22,22,80,1,REAL,FAKE,,,,,,,,,,,,,,,,,
,,,,,,,,,5f91a6bf59acc003a749718a,Spanish,13 or older,"no, only English or Spanish",no,2025-07-23_00h58.21.103,empathy_intonation_perc,2024.2.4,Linux armv81,59.88023952,5f91a6bf59acc003a749718a,687ed1b7e638a4cbf2f02089,68806b0f73bf4ee22fdb7022,,,,,,,,,,,,,,0,,,,,,,,,,,,,,,,,,,,,,,,,,,,,,,,,,,,,,,,,,,,,,,,,,,,,,,,,74,cintro,,,,,645.983,647.7495,1,0,1.2527,,0,23,23,73,1,REAL,FAKE,,,,,,,,,,,,,,,,,
,,,,,,,,,5f91a6bf59acc003a749718a,Spanish,13 or older,"no, only English or Spanish",no,2025-07-23_00h58.21.103,empathy_intonation_perc,2024.2.4,Linux armv81,59.88023952,5f91a6bf59acc003a749718a,687ed1b7e638a4cbf2f02089,68806b0f73bf4ee22fdb7022,,,,,,,,,,,,,,1,,,,,,,,,,,,,,,,,,,,,,,,,,,,,,,,,,,,,,,,,,,,,,,,,,,,,,,,,38,estornudar,,,,,647.7515,649.9183,0,0,1.6499,,0,24,24,37,1,REAL,FAKE,,,,,,,,,,,,,,,,,
,,,,,,,,,5f91a6bf59acc003a749718a,Spanish,13 or older,"no, only English or Spanish",no,2025-07-23_00h58.21.103,empathy_intonation_perc,2024.2.4,Linux armv81,59.88023952,5f91a6bf59acc003a749718a,687ed1b7e638a4cbf2f02089,68806b0f73bf4ee22fdb7022,,,,,,,,,,,,,,0,,,,,,,,,,,,,,,,,,,,,,,,,,,,,,,,,,,,,,,,,,,,,,,,,,,,,,,,,82,empirador,,,,,649.9206,651.9204,0,1,1.4647,,0,25,25,81,1,REAL,FAKE,,,,,,,,,,,,,,,,,
,,,,,,,,,5f91a6bf59acc003a749718a,Spanish,13 or older,"no, only English or Spanish",no,2025-07-23_00h58.21.103,empathy_intonation_perc,2024.2.4,Linux armv81,59.88023952,5f91a6bf59acc003a749718a,687ed1b7e638a4cbf2f02089,68806b0f73bf4ee22fdb7022,,,,,,,,,,,,,,1,,,,,,,,,,,,,,,,,,,,,,,,,,,,,,,,,,,,,,,,,,,,,,,,,,,,,,,,,49,ganar,,,,,651.9225,653.4553,0,0,1.0036,,0,26,26,48,1,REAL,FAKE,,,,,,,,,,,,,,,,,
,,,,,,,,,5f91a6bf59acc003a749718a,Spanish,13 or older,"no, only English or Spanish",no,2025-07-23_00h58.21.103,empathy_intonation_perc,2024.2.4,Linux armv81,59.88023952,5f91a6bf59acc003a749718a,687ed1b7e638a4cbf2f02089,68806b0f73bf4ee22fdb7022,,,,,,,,,,,,,,1,,,,,,,,,,,,,,,,,,,,,,,,,,,,,,,,,,,,,,,,,,,,,,,,,,,,,,,,,77,tiburón,,,,,653.457,655.5406,1,1,1.5576,,0,27,27,76,1,REAL,FAKE,,,,,,,,,,,,,,,,,
,,,,,,,,,5f91a6bf59acc003a749718a,Spanish,13 or older,"no, only English or Spanish",no,2025-07-23_00h58.21.103,empathy_intonation_perc,2024.2.4,Linux armv81,59.88023952,5f91a6bf59acc003a749718a,687ed1b7e638a4cbf2f02089,68806b0f73bf4ee22fdb7022,,,,,,,,,,,,,,1,,,,,,,,,,,,,,,,,,,,,,,,,,,,,,,,,,,,,,,,,,,,,,,,,,,,,,,,,68,alegre,,,,,655.5424,658.2107,1,1,2.1436,,0,28,28,67,1,REAL,FAKE,,,,,,,,,,,,,,,,,
,,,,,,,,,5f91a6bf59acc003a749718a,Spanish,13 or older,"no, only English or Spanish",no,2025-07-23_00h58.21.103,empathy_intonation_perc,2024.2.4,Linux armv81,59.88023952,5f91a6bf59acc003a749718a,687ed1b7e638a4cbf2f02089,68806b0f73bf4ee22fdb7022,,,,,,,,,,,,,,1,,,,,,,,,,,,,,,,,,,,,,,,,,,,,,,,,,,,,,,,,,,,,,,,,,,,,,,,,31,pandilla,,,,,658.2135,660.2611,1,1,1.5148,,0,29,29,30,1,REAL,FAKE,,,,,,,,,,,,,,,,,
,,,,,,,,,5f91a6bf59acc003a749718a,Spanish,13 or older,"no, only English or Spanish",no,2025-07-23_00h58.21.103,empathy_intonation_perc,2024.2.4,Linux armv81,59.88023952,5f91a6bf59acc003a749718a,687ed1b7e638a4cbf2f02089,68806b0f73bf4ee22fdb7022,,,,,,,,,,,,,,0,,,,,,,,,,,,,,,,,,,,,,,,,,,,,,,,,,,,,,,,,,,,,,,,,,,,,,,,,47,cartinar,,,,,660.2624,662.0632,0,1,1.2813,,0,30,30,46,1,REAL,FAKE,,,,,,,,,,,,,,,,,
,,,,,,,,,5f91a6bf59acc003a749718a,Spanish,13 or older,"no, only English or Spanish",no,2025-07-23_00h58.21.103,empathy_intonation_perc,2024.2.4,Linux armv81,59.88023952,5f91a6bf59acc003a749718a,687ed1b7e638a4cbf2f02089,68806b0f73bf4ee22fdb7022,,,,,,,,,,,,,,1,,,,,,,,,,,,,,,,,,,,,,,,,,,,,,,,,,,,,,,,,,,,,,,,,,,,,,,,,75,yacer,,,,,662.0666,663.4481,0,0,0.8639,,0,31,31,74,1,REAL,FAKE,,,,,,,,,,,,,,,,,
,,,,,,,,,5f91a6bf59acc003a749718a,Spanish,13 or older,"no, only English or Spanish",no,2025-07-23_00h58.21.103,empathy_intonation_perc,2024.2.4,Linux armv81,59.88023952,5f91a6bf59acc003a749718a,687ed1b7e638a4cbf2f02089,68806b0f73bf4ee22fdb7022,,,,,,,,,,,,,,0,,,,,,,,,,,,,,,,,,,,,,,,,,,,,,,,,,,,,,,,,,,,,,,,,,,,,,,,,70,temblo,,,,,663.4507,665.1824,0,1,1.2027,,0,32,32,69,1,REAL,FAKE,,,,,,,,,,,,,,,,,
,,,,,,,,,5f91a6bf59acc003a749718a,Spanish,13 or older,"no, only English or Spanish",no,2025-07-23_00h58.21.103,empathy_intonation_perc,2024.2.4,Linux armv81,59.88023952,5f91a6bf59acc003a749718a,687ed1b7e638a4cbf2f02089,68806b0f73bf4ee22fdb7022,,,,,,,,,,,,,,1,,,,,,,,,,,,,,,,,,,,,,,,,,,,,,,,,,,,,,,,,,,,,,,,,,,,,,,,,44,cuchara,,,,,665.1842,666.9674,1,1,1.2651,,0,33,33,43,1,REAL,FAKE,,,,,,,,,,,,,,,,,
,,,,,,,,,5f91a6bf59acc003a749718a,Spanish,13 or older,"no, only English or Spanish",no,2025-07-23_00h58.21.103,empathy_intonation_perc,2024.2.4,Linux armv81,59.88023952,5f91a6bf59acc003a749718a,687ed1b7e638a4cbf2f02089,68806b0f73bf4ee22fdb7022,,,,,,,,,,,,,,1,,,,,,,,,,,,,,,,,,,,,,,,,,,,,,,,,,,,,,,,,,,,,,,,,,,,,,,,,60,matar,,,,,666.9685,669.0205,1,1,1.5388,,0,34,34,59,1,REAL,FAKE,,,,,,,,,,,,,,,,,
,,,,,,,,,5f91a6bf59acc003a749718a,Spanish,13 or older,"no, only English or Spanish",no,2025-07-23_00h58.21.103,empathy_intonation_perc,2024.2.4,Linux armv81,59.88023952,5f91a6bf59acc003a749718a,687ed1b7e638a4cbf2f02089,68806b0f73bf4ee22fdb7022,,,,,,,,,,,,,,0,,,,,,,,,,,,,,,,,,,,,,,,,,,,,,,,,,,,,,,,,,,,,,,,,,,,,,,,,35,rompido,,,,,669.0228,671.5058,0,1,1.9527,,0,35,35,34,1,REAL,FAKE,,,,,,,,,,,,,,,,,
,,,,,,,,,5f91a6bf59acc003a749718a,Spanish,13 or older,"no, only English or Spanish",no,2025-07-23_00h58.21.103,empathy_intonation_perc,2024.2.4,Linux armv81,59.88023952,5f91a6bf59acc003a749718a,687ed1b7e638a4cbf2f02089,68806b0f73bf4ee22fdb7022,,,,,,,,,,,,,,1,,,,,,,,,,,,,,,,,,,,,,,,,,,,,,,,,,,,,,,,,,,,,,,,,,,,,,,,,22,lacayo,,,,,671.5076,674.2249,1,1,2.1835,,0,36,36,21,1,REAL,FAKE,,,,,,,,,,,,,,,,,
,,,,,,,,,5f91a6bf59acc003a749718a,Spanish,13 or older,"no, only English or Spanish",no,2025-07-23_00h58.21.103,empathy_intonation_perc,2024.2.4,Linux armv81,59.88023952,5f91a6bf59acc003a749718a,687ed1b7e638a4cbf2f02089,68806b0f73bf4ee22fdb7022,,,,,,,,,,,,,,1,,,,,,,,,,,,,,,,,,,,,,,,,,,,,,,,,,,,,,,,,,,,,,,,,,,,,,,,,9,hacha,,,,,674.2264,676.0268,1,1,1.2787,,0,37,37,8,1,REAL,FAKE,,,,,,,,,,,,,,,,,
,,,,,,,,,5f91a6bf59acc003a749718a,Spanish,13 or older,"no, only English or Spanish",no,2025-07-23_00h58.21.103,empathy_intonation_perc,2024.2.4,Linux armv81,59.88023952,5f91a6bf59acc003a749718a,687ed1b7e638a4cbf2f02089,68806b0f73bf4ee22fdb7022,,,,,,,,,,,,,,0,,,,,,,,,,,,,,,,,,,,,,,,,,,,,,,,,,,,,,,,,,,,,,,,,,,,,,,,,50,flamida,,,,,676.0286,678.4286,0,1,1.872,,0,38,38,49,1,REAL,FAKE,,,,,,,,,,,,,,,,,
,,,,,,,,,5f91a6bf59acc003a749718a,Spanish,13 or older,"no, only English or Spanish",no,2025-07-23_00h58.21.103,empathy_intonation_perc,2024.2.4,Linux armv81,59.88023952,5f91a6bf59acc003a749718a,687ed1b7e638a4cbf2f02089,68806b0f73bf4ee22fdb7022,,,,,,,,,,,,,,1,,,,,,,,,,,,,,,,,,,,,,,,,,,,,,,,,,,,,,,,,,,,,,,,,,,,,,,,,15,regar,,,,,678.4298,680.0804,0,0,1.1314,,0,39,39,14,1,REAL,FAKE,,,,,,,,,,,,,,,,,
,,,,,,,,,5f91a6bf59acc003a749718a,Spanish,13 or older,"no, only English or Spanish",no,2025-07-23_00h58.21.103,empathy_intonation_perc,2024.2.4,Linux armv81,59.88023952,5f91a6bf59acc003a749718a,687ed1b7e638a4cbf2f02089,68806b0f73bf4ee22fdb7022,,,,,,,,,,,,,,1,,,,,,,,,,,,,,,,,,,,,,,,,,,,,,,,,,,,,,,,,,,,,,,,,,,,,,,,,26,secuestro,,,,,680.0822,682.2497,0,0,1.6554,,0,40,40,25,1,REAL,FAKE,,,,,,,,,,,,,,,,,
,,,,,,,,,5f91a6bf59acc003a749718a,Spanish,13 or older,"no, only English or Spanish",no,2025-07-23_00h58.21.103,empathy_intonation_perc,2024.2.4,Linux armv81,59.88023952,5f91a6bf59acc003a749718a,687ed1b7e638a4cbf2f02089,68806b0f73bf4ee22fdb7022,,,,,,,,,,,,,,0,,,,,,,,,,,,,,,,,,,,,,,,,,,,,,,,,,,,,,,,,,,,,,,,,,,,,,,,,33,pauca,,,,,682.2512,684.0342,0,1,1.2506,,0,41,41,32,1,REAL,FAKE,,,,,,,,,,,,,,,,,
,,,,,,,,,5f91a6bf59acc003a749718a,Spanish,13 or older,"no, only English or Spanish",no,2025-07-23_00h58.21.103,empathy_intonation_perc,2024.2.4,Linux armv81,59.88023952,5f91a6bf59acc003a749718a,687ed1b7e638a4cbf2f02089,68806b0f73bf4ee22fdb7022,,,,,,,,,,,,,,1,,,,,,,,,,,,,,,,,,,,,,,,,,,,,,,,,,,,,,,,,,,,,,,,,,,,,,,,,90,clavel,,,,,684.0355,686.0362,0,0,1.4711,,0,42,42,89,1,REAL,FAKE,,,,,,,,,,,,,,,,,
,,,,,,,,,5f91a6bf59acc003a749718a,Spanish,13 or older,"no, only English or Spanish",no,2025-07-23_00h58.21.103,empathy_intonation_perc,2024.2.4,Linux armv81,59.88023952,5f91a6bf59acc003a749718a,687ed1b7e638a4cbf2f02089,68806b0f73bf4ee22fdb7022,,,,,,,,,,,,,,1,,,,,,,,,,,,,,,,,,,,,,,,,,,,,,,,,,,,,,,,,,,,,,,,,,,,,,,,,6,tergiversar,,,,,686.0385,688.1553,1,1,1.6059,,0,43,43,5,1,REAL,FAKE,,,,,,,,,,,,,,,,,
,,,,,,,,,5f91a6bf59acc003a749718a,Spanish,13 or older,"no, only English or Spanish",no,2025-07-23_00h58.21.103,empathy_intonation_perc,2024.2.4,Linux armv81,59.88023952,5f91a6bf59acc003a749718a,687ed1b7e638a4cbf2f02089,68806b0f73bf4ee22fdb7022,,,,,,,,,,,,,,1,,,,,,,,,,,,,,,,,,,,,,,,,,,,,,,,,,,,,,,,,,,,,,,,,,,,,,,,,61,seda,,,,,688.157,689.7734,1,1,1.0878,,0,44,44,60,1,REAL,FAKE,,,,,,,,,,,,,,,,,
,,,,,,,,,5f91a6bf59acc003a749718a,Spanish,13 or older,"no, only English or Spanish",no,2025-07-23_00h58.21.103,empathy_intonation_perc,2024.2.4,Linux armv81,59.88023952,5f91a6bf59acc003a749718a,687ed1b7e638a4cbf2f02089,68806b0f73bf4ee22fdb7022,,,,,,,,,,,,,,1,,,,,,,,,,,,,,,,,,,,,,,,,,,,,,,,,,,,,,,,,,,,,,,,,,,,,,,,,12,asesinato,,,,,689.7749,692.1586,1,1,1.8708,,0,45,45,11,1,REAL,FAKE,,,,,,,,,,,,,,,,,
,,,,,,,,,5f91a6bf59acc003a749718a,Spanish,13 or older,"no, only English or Spanish",no,2025-07-23_00h58.21.103,empathy_intonation_perc,2024.2.4,Linux armv81,59.88023952,5f91a6bf59acc003a749718a,687ed1b7e638a4cbf2f02089,68806b0f73bf4ee22fdb7022,,,,,,,,,,,,,,0,,,,,,,,,,,,,,,,,,,,,,,,,,,,,,,,,,,,,,,,,,,,,,,,,,,,,,,,,53,vegada,,,,,692.1599,694.8613,1,0,2.1855,,0,46,46,52,1,REAL,FAKE,,,,,,,,,,,,,,,,,
,,,,,,,,,5f91a6bf59acc003a749718a,Spanish,13 or older,"no, only English or Spanish",no,2025-07-23_00h58.21.103,empathy_intonation_perc,2024.2.4,Linux armv81,59.88023952,5f91a6bf59acc003a749718a,687ed1b7e638a4cbf2f02089,68806b0f73bf4ee22fdb7022,,,,,,,,,,,,,,0,,,,,,,,,,,,,,,,,,,,,,,,,,,,,,,,,,,,,,,,,,,,,,,,,,,,,,,,,23,lampera,,,,,694.8625,696.8139,0,1,1.4374,,0,47,47,22,1,REAL,FAKE,,,,,,,,,,,,,,,,,
,,,,,,,,,5f91a6bf59acc003a749718a,Spanish,13 or older,"no, only English or Spanish",no,2025-07-23_00h58.21.103,empathy_intonation_perc,2024.2.4,Linux armv81,59.88023952,5f91a6bf59acc003a749718a,687ed1b7e638a4cbf2f02089,68806b0f73bf4ee22fdb7022,,,,,,,,,,,,,,0,,,,,,,,,,,,,,,,,,,,,,,,,,,,,,,,,,,,,,,,,,,,,,,,,,,,,,,,,32,fatacidad,,,,,696.8163,699.2154,0,1,1.8651,,0,48,48,31,1,REAL,FAKE,,,,,,,,,,,,,,,,,
,,,,,,,,,5f91a6bf59acc003a749718a,Spanish,13 or older,"no, only English or Spanish",no,2025-07-23_00h58.21.103,empathy_intonation_perc,2024.2.4,Linux armv81,59.88023952,5f91a6bf59acc003a749718a,687ed1b7e638a4cbf2f02089,68806b0f73bf4ee22fdb7022,,,,,,,,,,,,,,1,,,,,,,,,,,,,,,,,,,,,,,,,,,,,,,,,,,,,,,,,,,,,,,,,,,,,,,,,62,flaco,,,,,699.2174,701.2509,1,1,1.5226,,0,49,49,61,1,REAL,FAKE,,,,,,,,,,,,,,,,,
,,,,,,,,,5f91a6bf59acc003a749718a,Spanish,13 or older,"no, only English or Spanish",no,2025-07-23_00h58.21.103,empathy_intonation_perc,2024.2.4,Linux armv81,59.88023952,5f91a6bf59acc003a749718a,687ed1b7e638a4cbf2f02089,68806b0f73bf4ee22fdb7022,,,,,,,,,,,,,,0,,,,,,,,,,,,,,,,,,,,,,,,,,,,,,,,,,,,,,,,,,,,,,,,,,,,,,,,,27,acutación,,,,,701.2524,703.6037,1,0,1.8163,,0,50,50,26,1,REAL,FAKE,,,,,,,,,,,,,,,,,
,,,,,,,,,5f91a6bf59acc003a749718a,Spanish,13 or older,"no, only English or Spanish",no,2025-07-23_00h58.21.103,empathy_intonation_perc,2024.2.4,Linux armv81,59.88023952,5f91a6bf59acc003a749718a,687ed1b7e638a4cbf2f02089,68806b0f73bf4ee22fdb7022,,,,,,,,,,,,,,0,,,,,,,,,,,,,,,,,,,,,,,,,,,,,,,,,,,,,,,,,,,,,,,,,,,,,,,,,79,tropaje,,,,,703.6056,705.6223,0,1,1.4802,,0,51,51,78,1,REAL,FAKE,,,,,,,,,,,,,,,,,
,,,,,,,,,5f91a6bf59acc003a749718a,Spanish,13 or older,"no, only English or Spanish",no,2025-07-23_00h58.21.103,empathy_intonation_perc,2024.2.4,Linux armv81,59.88023952,5f91a6bf59acc003a749718a,687ed1b7e638a4cbf2f02089,68806b0f73bf4ee22fdb7022,,,,,,,,,,,,,,1,,,,,,,,,,,,,,,,,,,,,,,,,,,,,,,,,,,,,,,,,,,,,,,,,,,,,,,,,28,merodear,,,,,705.6245,707.4233,0,0,1.2673,,0,52,52,27,1,REAL,FAKE,,,,,,,,,,,,,,,,,
,,,,,,,,,5f91a6bf59acc003a749718a,Spanish,13 or older,"no, only English or Spanish",no,2025-07-23_00h58.21.103,empathy_intonation_perc,2024.2.4,Linux armv81,59.88023952,5f91a6bf59acc003a749718a,687ed1b7e638a4cbf2f02089,68806b0f73bf4ee22fdb7022,,,,,,,,,,,,,,1,,,,,,,,,,,,,,,,,,,,,,,,,,,,,,,,,,,,,,,,,,,,,,,,,,,,,,,,,59,besar,,,,,707.4248,709.2084,0,0,1.2613,,0,53,53,58,1,REAL,FAKE,,,,,,,,,,,,,,,,,
,,,,,,,,,5f91a6bf59acc003a749718a,Spanish,13 or older,"no, only English or Spanish",no,2025-07-23_00h58.21.103,empathy_intonation_perc,2024.2.4,Linux armv81,59.88023952,5f91a6bf59acc003a749718a,687ed1b7e638a4cbf2f02089,68806b0f73bf4ee22fdb7022,,,,,,,,,,,,,,1,,,,,,,,,,,,,,,,,,,,,,,,,,,,,,,,,,,,,,,,,,,,,,,,,,,,,,,,,89,prisa,,,,,709.2097,710.8768,1,1,1.134,,0,54,54,88,1,REAL,FAKE,,,,,,,,,,,,,,,,,
,,,,,,,,,5f91a6bf59acc003a749718a,Spanish,13 or older,"no, only English or Spanish",no,2025-07-23_00h58.21.103,empathy_intonation_perc,2024.2.4,Linux armv81,59.88023952,5f91a6bf59acc003a749718a,687ed1b7e638a4cbf2f02089,68806b0f73bf4ee22fdb7022,,,,,,,,,,,,,,1,,,,,,,,,,,,,,,,,,,,,,,,,,,,,,,,,,,,,,,,,,,,,,,,,,,,,,,,,40,alfombra,,,,,710.8782,713.2955,0,0,1.8994,,0,55,55,39,1,REAL,FAKE,,,,,,,,,,,,,,,,,
,,,,,,,,,5f91a6bf59acc003a749718a,Spanish,13 or older,"no, only English or Spanish",no,2025-07-23_00h58.21.103,empathy_intonation_perc,2024.2.4,Linux armv81,59.88023952,5f91a6bf59acc003a749718a,687ed1b7e638a4cbf2f02089,68806b0f73bf4ee22fdb7022,,,,,,,,,,,,,,0,,,,,,,,,,,,,,,,,,,,,,,,,,,,,,,,,,,,,,,,,,,,,,,,,,,,,,,,,58,plaudir,,,,,713.2968,715.0803,0,1,1.2496,,0,56,56,57,1,REAL,FAKE,,,,,,,,,,,,,,,,,
,,,,,,,,,5f91a6bf59acc003a749718a,Spanish,13 or older,"no, only English or Spanish",no,2025-07-23_00h58.21.103,empathy_intonation_perc,2024.2.4,Linux armv81,59.88023952,5f91a6bf59acc003a749718a,687ed1b7e638a4cbf2f02089,68806b0f73bf4ee22fdb7022,,,,,,,,,,,,,,0,,,,,,,,,,,,,,,,,,,,,,,,,,,,,,,,,,,,,,,,,,,,,,,,,,,,,,,,,21,capillo,,,,,715.0818,716.9821,0,1,1.3832,,0,57,57,20,1,REAL,FAKE,,,,,,,,,,,,,,,,,
,,,,,,,,,5f91a6bf59acc003a749718a,Spanish,13 or older,"no, only English or Spanish",no,2025-07-23_00h58.21.103,empathy_intonation_perc,2024.2.4,Linux armv81,59.88023952,5f91a6bf59acc003a749718a,687ed1b7e638a4cbf2f02089,68806b0f73bf4ee22fdb7022,,,,,,,,,,,,,,0,,,,,,,,,,,,,,,,,,,,,,,,,,,,,,,,,,,,,,,,,,,,,,,,,,,,,,,,,42,cadallo,,,,,716.9843,719.0349,1,0,1.5404,,0,58,58,41,1,REAL,FAKE,,,,,,,,,,,,,,,,,
,,,,,,,,,5f91a6bf59acc003a749718a,Spanish,13 or older,"no, only English or Spanish",no,2025-07-23_00h58.21.103,empathy_intonation_perc,2024.2.4,Linux armv81,59.88023952,5f91a6bf59acc003a749718a,687ed1b7e638a4cbf2f02089,68806b0f73bf4ee22fdb7022,,,,,,,,,,,,,,1,,,,,,,,,,,,,,,,,,,,,,,,,,,,,,,,,,,,,,,,,,,,,,,,,,,,,,,,,73,hervidor,,,,,719.0364,720.636,0,0,1.072,,0,59,59,72,1,REAL,FAKE,,,,,,,,,,,,,,,,,
,,,,,,,,,5f91a6bf59acc003a749718a,Spanish,13 or older,"no, only English or Spanish",no,2025-07-23_00h58.21.103,empathy_intonation_perc,2024.2.4,Linux armv81,59.88023952,5f91a6bf59acc003a749718a,687ed1b7e638a4cbf2f02089,68806b0f73bf4ee22fdb7022,,,,,,,,,,,,,,1,,,,,,,,,,,,,,,,,,,,,,,,,,,,,,,,,,,,,,,,,,,,,,,,,,,,,,,,,13,helar,,,,,720.6379,722.4214,1,1,1.2525,,0,60,60,12,1,REAL,FAKE,,,,,,,,,,,,,,,,,
,,,,,,,,,5f91a6bf59acc003a749718a,Spanish,13 or older,"no, only English or Spanish",no,2025-07-23_00h58.21.103,empathy_intonation_perc,2024.2.4,Linux armv81,59.88023952,5f91a6bf59acc003a749718a,687ed1b7e638a4cbf2f02089,68806b0f73bf4ee22fdb7022,,,,,,,,,,,,,,0,,,,,,,,,,,,,,,,,,,,,,,,,,,,,,,,,,,,,,,,,,,,,,,,,,,,,,,,,66,hacido,,,,,722.4232,724.69,1,0,1.7326,,0,61,61,65,1,REAL,FAKE,,,,,,,,,,,,,,,,,
,,,,,,,,,5f91a6bf59acc003a749718a,Spanish,13 or older,"no, only English or Spanish",no,2025-07-23_00h58.21.103,empathy_intonation_perc,2024.2.4,Linux armv81,59.88023952,5f91a6bf59acc003a749718a,687ed1b7e638a4cbf2f02089,68806b0f73bf4ee22fdb7022,,,,,,,,,,,,,,1,,,,,,,,,,,,,,,,,,,,,,,,,,,,,,,,,,,,,,,,,,,,,,,,,,,,,,,,,5,zapato,,,,,724.6924,726.4585,0,0,1.2521,,0,62,62,4,1,REAL,FAKE,,,,,,,,,,,,,,,,,
,,,,,,,,,5f91a6bf59acc003a749718a,Spanish,13 or older,"no, only English or Spanish",no,2025-07-23_00h58.21.103,empathy_intonation_perc,2024.2.4,Linux armv81,59.88023952,5f91a6bf59acc003a749718a,687ed1b7e638a4cbf2f02089,68806b0f73bf4ee22fdb7022,,,,,,,,,,,,,,1,,,,,,,,,,,,,,,,,,,,,,,,,,,,,,,,,,,,,,,,,,,,,,,,,,,,,,,,,67,cabello,,,,,726.4603,728.5447,1,1,1.5662,,0,63,63,66,1,REAL,FAKE,,,,,,,,,,,,,,,,,
,,,,,,,,,5f91a6bf59acc003a749718a,Spanish,13 or older,"no, only English or Spanish",no,2025-07-23_00h58.21.103,empathy_intonation_perc,2024.2.4,Linux armv81,59.88023952,5f91a6bf59acc003a749718a,687ed1b7e638a4cbf2f02089,68806b0f73bf4ee22fdb7022,,,,,,,,,,,,,,1,,,,,,,,,,,,,,,,,,,,,,,,,,,,,,,,,,,,,,,,,,,,,,,,,,,,,,,,,14,yunque,,,,,728.5467,730.3124,0,0,1.2499,,0,64,64,13,1,REAL,FAKE,,,,,,,,,,,,,,,,,
,,,,,,,,,5f91a6bf59acc003a749718a,Spanish,13 or older,"no, only English or Spanish",no,2025-07-23_00h58.21.103,empathy_intonation_perc,2024.2.4,Linux armv81,59.88023952,5f91a6bf59acc003a749718a,687ed1b7e638a4cbf2f02089,68806b0f73bf4ee22fdb7022,,,,,,,,,,,,,,1,,,,,,,,,,,,,,,,,,,,,,,,,,,,,,,,,,,,,,,,,,,,,,,,,,,,,,,,,57,tacaño,,,,,730.3145,732.1153,1,1,1.2754,,0,65,65,56,1,REAL,FAKE,,,,,,,,,,,,,,,,,
,,,,,,,,,5f91a6bf59acc003a749718a,Spanish,13 or older,"no, only English or Spanish",no,2025-07-23_00h58.21.103,empathy_intonation_perc,2024.2.4,Linux armv81,59.88023952,5f91a6bf59acc003a749718a,687ed1b7e638a4cbf2f02089,68806b0f73bf4ee22fdb7022,,,,,,,,,,,,,,0,,,,,,,,,,,,,,,,,,,,,,,,,,,,,,,,,,,,,,,,,,,,,,,,,,,,,,,,,8,cadeña,,,,,732.1172,734.4505,1,0,1.809,,0,66,66,7,1,REAL,FAKE,,,,,,,,,,,,,,,,,
,,,,,,,,,5f91a6bf59acc003a749718a,Spanish,13 or older,"no, only English or Spanish",no,2025-07-23_00h58.21.103,empathy_intonation_perc,2024.2.4,Linux armv81,59.88023952,5f91a6bf59acc003a749718a,687ed1b7e638a4cbf2f02089,68806b0f73bf4ee22fdb7022,,,,,,,,,,,,,,0,,,,,,,,,,,,,,,,,,,,,,,,,,,,,,,,,,,,,,,,,,,,,,,,,,,,,,,,,1,terzo,,,,,734.4527,736.1179,1,0,1.137,,0,67,67,0,1,REAL,FAKE,,,,,,,,,,,,,,,,,
,,,,,,,,,5f91a6bf59acc003a749718a,Spanish,13 or older,"no, only English or Spanish",no,2025-07-23_00h58.21.103,empathy_intonation_perc,2024.2.4,Linux armv81,59.88023952,5f91a6bf59acc003a749718a,687ed1b7e638a4cbf2f02089,68806b0f73bf4ee22fdb7022,,,,,,,,,,,,,,1,,,,,,,,,,,,,,,,,,,,,,,,,,,,,,,,,,,,,,,,,,,,,,,,,,,,,,,,,41,rebuscar,,,,,736.1195,737.7525,0,0,1.1183,,0,68,68,40,1,REAL,FAKE,,,,,,,,,,,,,,,,,
,,,,,,,,,5f91a6bf59acc003a749718a,Spanish,13 or older,"no, only English or Spanish",no,2025-07-23_00h58.21.103,empathy_intonation_perc,2024.2.4,Linux armv81,59.88023952,5f91a6bf59acc003a749718a,687ed1b7e638a4cbf2f02089,68806b0f73bf4ee22fdb7022,,,,,,,,,,,,,,1,,,,,,,,,,,,,,,,,,,,,,,,,,,,,,,,,,,,,,,,,,,,,,,,,,,,,,,,,7,pésimo,,,,,737.7539,739.5044,1,1,1.2302,,0,69,69,6,1,REAL,FAKE,,,,,,,,,,,,,,,,,
,,,,,,,,,5f91a6bf59acc003a749718a,Spanish,13 or older,"no, only English or Spanish",no,2025-07-23_00h58.21.103,empathy_intonation_perc,2024.2.4,Linux armv81,59.88023952,5f91a6bf59acc003a749718a,687ed1b7e638a4cbf2f02089,68806b0f73bf4ee22fdb7022,,,,,,,,,,,,,,0,,,,,,,,,,,,,,,,,,,,,,,,,,,,,,,,,,,,,,,,,,,,,,,,,,,,,,,,,84,escuto,,,,,739.5064,741.2061,1,0,1.1852,,0,70,70,83,1,REAL,FAKE,,,,,,,,,,,,,,,,,
,,,,,,,,,5f91a6bf59acc003a749718a,Spanish,13 or older,"no, only English or Spanish",no,2025-07-23_00h58.21.103,empathy_intonation_perc,2024.2.4,Linux armv81,59.88023952,5f91a6bf59acc003a749718a,687ed1b7e638a4cbf2f02089,68806b0f73bf4ee22fdb7022,,,,,,,,,,,,,,1,,,,,,,,,,,,,,,,,,,,,,,,,,,,,,,,,,,,,,,,,,,,,,,,,,,,,,,,,91,click the 1 key.,,,,,741.2076,743.1258,1,1,1.3819,,0,71,71,90,1,REAL,FAKE,,,,,,,,,,,,,,,,,
,,,,,,,,,5f91a6bf59acc003a749718a,Spanish,13 or older,"no, only English or Spanish",no,2025-07-23_00h58.21.103,empathy_intonation_perc,2024.2.4,Linux armv81,59.88023952,5f91a6bf59acc003a749718a,687ed1b7e638a4cbf2f02089,68806b0f73bf4ee22fdb7022,,,,,,,,,,,,,,1,,,,,,,,,,,,,,,,,,,,,,,,,,,,,,,,,,,,,,,,,,,,,,,,,,,,,,,,,64,orgulloso,,,,,743.1274,745.01,0,0,1.3475,,0,72,72,63,1,REAL,FAKE,,,,,,,,,,,,,,,,,
,,,,,,,,,5f91a6bf59acc003a749718a,Spanish,13 or older,"no, only English or Spanish",no,2025-07-23_00h58.21.103,empathy_intonation_perc,2024.2.4,Linux armv81,59.88023952,5f91a6bf59acc003a749718a,687ed1b7e638a4cbf2f02089,68806b0f73bf4ee22fdb7022,,,,,,,,,,,,,,1,,,,,,,,,,,,,,,,,,,,,,,,,,,,,,,,,,,,,,,,,,,,,,,,,,,,,,,,,55,nevar,,,,,745.0113,746.9785,0,0,1.4465,,0,73,73,54,1,REAL,FAKE,,,,,,,,,,,,,,,,,
,,,,,,,,,5f91a6bf59acc003a749718a,Spanish,13 or older,"no, only English or Spanish",no,2025-07-23_00h58.21.103,empathy_intonation_perc,2024.2.4,Linux armv81,59.88023952,5f91a6bf59acc003a749718a,687ed1b7e638a4cbf2f02089,68806b0f73bf4ee22fdb7022,,,,,,,,,,,,,,0,,,,,,,,,,,,,,,,,,,,,,,,,,,,,,,,,,,,,,,,,,,,,,,,,,,,,,,,,30,alardio,,,,,746.9797,748.9973,0,1,1.4867,,0,74,74,29,1,REAL,FAKE,,,,,,,,,,,,,,,,,
,,,,,,,,,5f91a6bf59acc003a749718a,Spanish,13 or older,"no, only English or Spanish",no,2025-07-23_00h58.21.103,empathy_intonation_perc,2024.2.4,Linux armv81,59.88023952,5f91a6bf59acc003a749718a,687ed1b7e638a4cbf2f02089,68806b0f73bf4ee22fdb7022,,,,,,,,,,,,,,1,,,,,,,,,,,,,,,,,,,,,,,,,,,,,,,,,,,,,,,,,,,,,,,,,,,,,,,,,51,candado,,,,,748.9996,751.1662,0,0,1.6358,,0,75,75,50,1,REAL,FAKE,,,,,,,,,,,,,,,,,
,,,,,,,,,5f91a6bf59acc003a749718a,Spanish,13 or older,"no, only English or Spanish",no,2025-07-23_00h58.21.103,empathy_intonation_perc,2024.2.4,Linux armv81,59.88023952,5f91a6bf59acc003a749718a,687ed1b7e638a4cbf2f02089,68806b0f73bf4ee22fdb7022,,,,,,,,,,,,,,1,,,,,,,,,,,,,,,,,,,,,,,,,,,,,,,,,,,,,,,,,,,,,,,,,,,,,,,,,52,camisa,,,,,751.1685,752.7343,1,1,1.0536,,0,76,76,51,1,REAL,FAKE,,,,,,,,,,,,,,,,,
,,,,,,,,,5f91a6bf59acc003a749718a,Spanish,13 or older,"no, only English or Spanish",no,2025-07-23_00h58.21.103,empathy_intonation_perc,2024.2.4,Linux armv81,59.88023952,5f91a6bf59acc003a749718a,687ed1b7e638a4cbf2f02089,68806b0f73bf4ee22fdb7022,,,,,,,,,,,,,,1,,,,,,,,,,,,,,,,,,,,,,,,,,,,,,,,,,,,,,,,,,,,,,,,,,,,,,,,,85,laúd,,,,,752.7361,754.536,0,0,1.2871,,0,77,77,84,1,REAL,FAKE,,,,,,,,,,,,,,,,,
,,,,,,,,,5f91a6bf59acc003a749718a,Spanish,13 or older,"no, only English or Spanish",no,2025-07-23_00h58.21.103,empathy_intonation_perc,2024.2.4,Linux armv81,59.88023952,5f91a6bf59acc003a749718a,687ed1b7e638a4cbf2f02089,68806b0f73bf4ee22fdb7022,,,,,,,,,,,,,,0,,,,,,,,,,,,,,,,,,,,,,,,,,,,,,,,,,,,,,,,,,,,,,,,,,,,,,,,,4,batillón,,,,,754.5371,757.8226,0,1,2.77,,0,78,78,3,1,REAL,FAKE,,,,,,,,,,,,,,,,,
,,,,,,,,,5f91a6bf59acc003a749718a,Spanish,13 or older,"no, only English or Spanish",no,2025-07-23_00h58.21.103,empathy_intonation_perc,2024.2.4,Linux armv81,59.88023952,5f91a6bf59acc003a749718a,687ed1b7e638a4cbf2f02089,68806b0f73bf4ee22fdb7022,,,,,,,,,,,,,,1,,,,,,,,,,,,,,,,,,,,,,,,,,,,,,,,,,,,,,,,,,,,,,,,,,,,,,,,,71,polvoriento,,,,,757.8242,760.2414,1,1,1.9006,,0,79,79,70,1,REAL,FAKE,,,,,,,,,,,,,,,,,
,,,,,,,,,5f91a6bf59acc003a749718a,Spanish,13 or older,"no, only English or Spanish",no,2025-07-23_00h58.21.103,empathy_intonation_perc,2024.2.4,Linux armv81,59.88023952,5f91a6bf59acc003a749718a,687ed1b7e638a4cbf2f02089,68806b0f73bf4ee22fdb7022,,,,,,,,,,,,,,1,,,,,,,,,,,,,,,,,,,,,,,,,,,,,,,,,,,,,,,,,,,,,,,,,,,,,,,,,48,ladrón,,,,,760.2426,761.6935,1,1,0.9368,,0,80,80,47,1,REAL,FAKE,,,,,,,,,,,,,,,,,
,,,,,,,,,5f91a6bf59acc003a749718a,Spanish,13 or older,"no, only English or Spanish",no,2025-07-23_00h58.21.103,empathy_intonation_perc,2024.2.4,Linux armv81,59.88023952,5f91a6bf59acc003a749718a,687ed1b7e638a4cbf2f02089,68806b0f73bf4ee22fdb7022,,,,,,,,,,,,,,0,,,,,,,,,,,,,,,,,,,,,,,,,,,,,,,,,,,,,,,,,,,,,,,,,,,,,,,,,16,abracer,,,,,761.695,763.5446,0,1,1.3174,,0,81,81,15,1,REAL,FAKE,,,,,,,,,,,,,,,,,
,,,,,,,,,5f91a6bf59acc003a749718a,Spanish,13 or older,"no, only English or Spanish",no,2025-07-23_00h58.21.103,empathy_intonation_perc,2024.2.4,Linux armv81,59.88023952,5f91a6bf59acc003a749718a,687ed1b7e638a4cbf2f02089,68806b0f73bf4ee22fdb7022,,,,,,,,,,,,,,1,,,,,,,,,,,,,,,,,,,,,,,,,,,,,,,,,,,,,,,,,,,,,,,,,,,,,,,,,76,atar,,,,,763.5463,764.996,1,1,0.9336,,0,82,82,75,1,REAL,FAKE,,,,,,,,,,,,,,,,,
,,,,,,,,,5f91a6bf59acc003a749718a,Spanish,13 or older,"no, only English or Spanish",no,2025-07-23_00h58.21.103,empathy_intonation_perc,2024.2.4,Linux armv81,59.88023952,5f91a6bf59acc003a749718a,687ed1b7e638a4cbf2f02089,68806b0f73bf4ee22fdb7022,,,,,,,,,,,,,,1,,,,,,,,,,,,,,,,,,,,,,,,,,,,,,,,,,,,,,,,,,,,,,,,,,,,,,,,,37,granuja,,,,,764.9982,766.7476,0,0,1.2228,,0,83,83,36,1,REAL,FAKE,,,,,,,,,,,,,,,,,
,,,,,,,,,5f91a6bf59acc003a749718a,Spanish,13 or older,"no, only English or Spanish",no,2025-07-23_00h58.21.103,empathy_intonation_perc,2024.2.4,Linux armv81,59.88023952,5f91a6bf59acc003a749718a,687ed1b7e638a4cbf2f02089,68806b0f73bf4ee22fdb7022,,,,,,,,,,,,,,1,,,,,,,,,,,,,,,,,,,,,,,,,,,,,,,,,,,,,,,,,,,,,,,,,,,,,,,,,45,jilguero,,,,,766.7502,768.4831,0,0,1.2075,,0,84,84,44,1,REAL,FAKE,,,,,,,,,,,,,,,,,
,,,,,,,,,5f91a6bf59acc003a749718a,Spanish,13 or older,"no, only English or Spanish",no,2025-07-23_00h58.21.103,empathy_intonation_perc,2024.2.4,Linux armv81,59.88023952,5f91a6bf59acc003a749718a,687ed1b7e638a4cbf2f02089,68806b0f73bf4ee22fdb7022,,,,,,,,,,,,,,0,,,,,,,,,,,,,,,,,,,,,,,,,,,,,,,,,,,,,,,,,,,,,,,,,,,,,,,,,29,decar,,,,,768.4843,770.3008,0,1,1.2824,,0,85,85,28,1,REAL,FAKE,,,,,,,,,,,,,,,,,
,,,,,,,,,5f91a6bf59acc003a749718a,Spanish,13 or older,"no, only English or Spanish",no,2025-07-23_00h58.21.103,empathy_intonation_perc,2024.2.4,Linux armv81,59.88023952,5f91a6bf59acc003a749718a,687ed1b7e638a4cbf2f02089,68806b0f73bf4ee22fdb7022,,,,,,,,,,,,,,1,,,,,,,,,,,,,,,,,,,,,,,,,,,,,,,,,,,,,,,,,,,,,,,,,,,,,,,,,2,pellizcar,,,,,770.3023,772.3855,0,0,1.5521,,0,86,86,1,1,REAL,FAKE,,,,,,,,,,,,,,,,,
,,,,,,,,,5f91a6bf59acc003a749718a,Spanish,13 or older,"no, only English or Spanish",no,2025-07-23_00h58.21.103,empathy_intonation_perc,2024.2.4,Linux armv81,59.88023952,5f91a6bf59acc003a749718a,687ed1b7e638a4cbf2f02089,68806b0f73bf4ee22fdb7022,,,,,,,,,,,,,,0,,,,,,,,,,,,,,,,,,,,,,,,,,,,,,,,,,,,,,,,,,,,,,,,,,,,,,,,,63,esposante,,,,,772.3871,774.7878,0,1,1.8836,,0,87,87,62,1,REAL,FAKE,,,,,,,,,,,,,,,,,
,,,,,,,,,5f91a6bf59acc003a749718a,Spanish,13 or older,"no, only English or Spanish",no,2025-07-23_00h58.21.103,empathy_intonation_perc,2024.2.4,Linux armv81,59.88023952,5f91a6bf59acc003a749718a,687ed1b7e638a4cbf2f02089,68806b0f73bf4ee22fdb7022,,,,,,,,,,,,,,1,,,,,,,,,,,,,,,,,,,,,,,,,,,,,,,,,,,,,,,,,,,,,,,,,,,,,,,,,88,acantilado,,,,,774.7894,776.9231,1,1,1.6161,,0,88,88,87,1,REAL,FAKE,,,,,,,,,,,,,,,,,
,,,,,,,,,5f91a6bf59acc003a749718a,Spanish,13 or older,"no, only English or Spanish",no,2025-07-23_00h58.21.103,empathy_intonation_perc,2024.2.4,Linux armv81,59.88023952,5f91a6bf59acc003a749718a,687ed1b7e638a4cbf2f02089,68806b0f73bf4ee22fdb7022,,,,,,,,,,,,,,1,,,,,,,,,,,,,,,,,,,,,,,,,,,,,,,,,,,,,,,,,,,,,,,,,,,,,,,,,46,martillo,,,,,776.9247,778.975,1,1,1.532,,0,89,89,45,1,REAL,FAKE,,,,,,,,,,,,,,,,,
,,,,,,,,,5f91a6bf59acc003a749718a,Spanish,13 or older,"no, only English or Spanish",no,2025-07-23_00h58.21.103,empathy_intonation_perc,2024.2.4,Linux armv81,59.88023952,5f91a6bf59acc003a749718a,687ed1b7e638a4cbf2f02089,68806b0f73bf4ee22fdb7022,,,,,,,,,,,,,,1,,,,,,,,,,,,,,,,,,,,,,,,,,,,,,,,,,,,,,,,,,,,,,,,,,,,,,,,,34,aviso,,,,,778.9773,780.9767,1,1,1.4688,,0,90,90,33,1,REAL,FAKE,,,,,,,,,,,,,,,,,
,,,,,,,,,5f91a6bf59acc003a749718a,Spanish,13 or older,"no, only English or Spanish",no,2025-07-23_00h58.21.103,empathy_intonation_perc,2024.2.4,Linux armv81,59.88023952,5f91a6bf59acc003a749718a,687ed1b7e638a4cbf2f02089,68806b0f73bf4ee22fdb7022,,,,,,,,,,,,,,0,,,,,,,,,,,,,,,,,,,,,,,,,,,,,,,,,,,,,,,,,,,,,,,,,,,,,,,,,10,antar,,,,,780.9783,782.8783,1,0,1.368,,0,91,91,9,1,REAL,FAKE,,,,,,,,,,,,,,,,,
,,,,,,,,,5f91a6bf59acc003a749718a,Spanish,13 or older,"no, only English or Spanish",no,2025-07-23_00h58.21.103,empathy_intonation_perc,2024.2.4,Linux armv81,59.88023952,5f91a6bf59acc003a749718a,687ed1b7e638a4cbf2f02089,68806b0f73bf4ee22fdb7022,,,,,,,,,,,,,,,,,,,,,,,,,,,,,,,,,,,,,,,,,,,,,,,,,,,,,,,,,,,,,,,,,,,,,,,,,,,,,,,,,,,,,,,,,,782.8788,801.1297,,,,,,,,,,,,,,,
,,,,,,,,,5f91a6bf59acc003a749718a,Spanish,13 or older,"no, only English or Spanish",no,2025-07-23_00h58.21.103,empathy_intonation_perc,2024.2.4,Linux armv81,59.88023952,5f91a6bf59acc003a749718a,687ed1b7e638a4cbf2f02089,68806b0f73bf4ee22fdb7022,,,,,,,,,,,,,1,,,,,,,,,,,,,,,,,,,,,,,,,,,,,,,,,,,,,,,,,,,,,,,,,,,,,,,,,,,,,,,,,,,,,,,,,,,,,,,801.1405,831.8275,slightly agree,0,0,0,0,1,I can easily tell if someone else wants to enter a conversation.,1,0,1,0,,
,,,,,,,,,5f91a6bf59acc003a749718a,Spanish,13 or older,"no, only English or Spanish",no,2025-07-23_00h58.21.103,empathy_intonation_perc,2024.2.4,Linux armv81,59.88023952,5f91a6bf59acc003a749718a,687ed1b7e638a4cbf2f02089,68806b0f73bf4ee22fdb7022,,,,,,,,,,,,,2,,,,,,,,,,,,,,,,,,,,,,,,,,,,,,,,,,,,,,,,,,,,,,,,,,,,,,,,,,,,,,,,,,,,,,,,,,,,,,,831.8285,835.6307,strongly disagree,0,1,1,1,1,I prefer animals to humans.,0,1,0,0,,
,,,,,,,,,5f91a6bf59acc003a749718a,Spanish,13 or older,"no, only English or Spanish",no,2025-07-23_00h58.21.103,empathy_intonation_perc,2024.2.4,Linux armv81,59.88023952,5f91a6bf59acc003a749718a,687ed1b7e638a4cbf2f02089,68806b0f73bf4ee22fdb7022,,,,,,,,,,,,,3,,,,,,,,,,,,,,,,,,,,,,,,,,,,,,,,,,,,,,,,,,,,,,,,,,,,,,,,,,,,,,,,,,,,,,,,,,,,,,,835.6326,841.6037,slightly agree,0,2,2,2,1,I try to keep up with the current trends and fashions.,0,1,0,0,,
,,,,,,,,,5f91a6bf59acc003a749718a,Spanish,13 or older,"no, only English or Spanish",no,2025-07-23_00h58.21.103,empathy_intonation_perc,2024.2.4,Linux armv81,59.88023952,5f91a6bf59acc003a749718a,687ed1b7e638a4cbf2f02089,68806b0f73bf4ee22fdb7022,,,,,,,,,,,,,4,,,,,,,,,,,,,,,,,,,,,,,,,,,,,,,,,,,,,,,,,,,,,,,,,,,,,,,,,,,,,,,,,,,,,,,,,,,,,,,841.6053,846.1593,strongly disagree,0,3,3,3,1,"I find it difficult to explain to others things that I understand easily,   when they don't understand it first time.",1,0,0,1,,
,,,,,,,,,5f91a6bf59acc003a749718a,Spanish,13 or older,"no, only English or Spanish",no,2025-07-23_00h58.21.103,empathy_intonation_perc,2024.2.4,Linux armv81,59.88023952,5f91a6bf59acc003a749718a,687ed1b7e638a4cbf2f02089,68806b0f73bf4ee22fdb7022,,,,,,,,,,,,,5,,,,,,,,,,,,,,,,,,,,,,,,,,,,,,,,,,,,,,,,,,,,,,,,,,,,,,,,,,,,,,,,,,,,,,,,,,,,,,,846.1629,848.2275,strongly disagree,0,4,4,4,1,I dream most nights.,0,1,0,0,,
,,,,,,,,,5f91a6bf59acc003a749718a,Spanish,13 or older,"no, only English or Spanish",no,2025-07-23_00h58.21.103,empathy_intonation_perc,2024.2.4,Linux armv81,59.88023952,5f91a6bf59acc003a749718a,687ed1b7e638a4cbf2f02089,68806b0f73bf4ee22fdb7022,,,,,,,,,,,,,6,,,,,,,,,,,,,,,,,,,,,,,,,,,,,,,,,,,,,,,,,,,,,,,,,,,,,,,,,,,,,,,,,,,,,,,,,,,,,,,848.229,851.8814,strongly agree,0,5,5,5,1,I really enjoy caring for other people.,1,0,1,0,,
