instructions_exposure.started,instructions_exposure.stopped,instructions_exposure_loop.thisRepN,instructions_exposure_loop.thisTrialN,instructions_exposure_loop.thisN,instructions_exposure_loop.thisIndex,instructions_exposure_loop.ran,instructions_text,continue_text,participant_id,"What variety of Spanish are you most familiar with? (e.g., Peruvian, Spanish, Mexican)",At what age did you begin learning Spanish?,Are you proficient in any languages other than English/Spanish?,"Are you familiar with Caribbean (e.g., Caribbean, Puerto Rican) or Galician Spanish?",date,expName,psychopyVersion,OS,frameRate,id,study_id,session,trial_exposure.started,trial_exposure.stopped,key_resp_exposure.keys,key_resp_exposure.corr,key_resp_exposure.rt,key_resp_exposure.duration,key_resp.keys,exposure_loop.thisRepN,exposure_loop.thisTrialN,exposure_loop.thisN,exposure_loop.thisIndex,exposure_loop.ran,item_num,correct_response,question,path,duration,instructions_2afc.started,instructions_2afc.stopped,instructions_2afc_loop.thisRepN,instructions_2afc_loop.thisTrialN,instructions_2afc_loop.thisN,instructions_2afc_loop.thisIndex,instructions_2afc_loop.ran,practice_2afc.started,practice_2afc.stopped,key_resp_2afc_practice.keys,key_resp_2afc_practice.corr,key_resp_2afc_practice.rt,key_resp_2afc_practice.duration,trials_2afc_practice_loop.thisRepN,trials_2afc_practice_loop.thisTrialN,trials_2afc_practice_loop.thisN,trials_2afc_practice_loop.thisIndex,trials_2afc_practice_loop.ran,check_2afc.started,check_2afc.stopped,trial_2afc.started,trial_2afc.stopped,key_resp_2afc_trial.keys,key_resp_2afc_trial.corr,key_resp_2afc_trial.rt,key_resp_2afc_trial.duration,trials_2afc_loop.thisRepN,trials_2afc_loop.thisTrialN,trials_2afc_loop.thisN,trials_2afc_loop.thisIndex,trials_2afc_loop.ran,target,variety,instructions_lextale.started,instructions_lextale.stopped,instructions_lextale_loop.thisRepN,instructions_lextale_loop.thisTrialN,instructions_lextale_loop.thisN,instructions_lextale_loop.thisIndex,instructions_lextale_loop.ran,practice_lextale.started,practice_lextale.stopped,key_resp_lextale_practice.keys,key_resp_lextale_practice.corr,key_resp_lextale_practice.rt,key_resp_lextale_practice.duration,practice_feedback_lextale.started,practice_feedback_lextale.stopped,trials_lextale_practice_loop.thisRepN,trials_lextale_practice_loop.thisTrialN,trials_lextale_practice_loop.thisN,trials_lextale_practice_loop.thisIndex,trials_lextale_practice_loop.ran,stim,word,prac_button_real,prac_button_false,check_lextale.started,check_lextale.stopped,trial_lextale.started,trial_lextale.stopped,key_resp_lextale_trial.keys,key_resp_lextale_trial.corr,key_resp_lextale_trial.rt,key_resp_lextale_trial.duration,trials_lextale_loop.thisRepN,trials_lextale_loop.thisTrialN,trials_lextale_loop.thisN,trials_lextale_loop.thisIndex,trials_lextale_loop.ran,button_real,button_false,instructions_eq.started,instructions_eq.stopped,trial_eq.started,trial_eq.stopped,slider_eq_trial.response,trials_eq_loop.thisRepN,trials_eq_loop.thisTrialN,trials_eq_loop.thisN,trials_eq_loop.thisIndex,trials_eq_loop.ran,item,is_test_item,is_distractor,is_agree_score,is_disagree_score,end_exp.started,end_exp.stopped
0.0078,32.8223,0,0,0,0,1,"In the following task, you are going to hear a series of conversations.", (press the space bar to continue),5fb69cacddba6408f81a9564,Spanish,13 or older,"no, only English or Spanish",no,2025-08-12_15h15.22.163,empathy_intonation_perc,2024.2.4,MacIntel,30.67484663,5fb69cacddba6408f81a9564,687ed1b7e638a4cbf2f02089,689b929f4d50b728aa24fb9d,,,,,,,,,,,,,,,,,,,,,,,,,,,,,,,,,,,,,,,,,,,,,,,,,,,,,,,,,,,,,,,,,,,,,,,,,,,,,,,,,,,,,,,,,,,,,,,,,,,,,,,,,,
32.8232,34.855,0,1,1,1,1,It is okay if you don't not 100% understand them!, (press the space bar to continue),5fb69cacddba6408f81a9564,Spanish,13 or older,"no, only English or Spanish",no,2025-08-12_15h15.22.163,empathy_intonation_perc,2024.2.4,MacIntel,30.67484663,5fb69cacddba6408f81a9564,687ed1b7e638a4cbf2f02089,689b929f4d50b728aa24fb9d,,,,,,,,,,,,,,,,,,,,,,,,,,,,,,,,,,,,,,,,,,,,,,,,,,,,,,,,,,,,,,,,,,,,,,,,,,,,,,,,,,,,,,,,,,,,,,,,,,,,,,,,,,
34.8566,37.6217,0,2,2,2,1,"After, you will read a sentence about the conversation and decide if it's true or false.", (press the space bar to continue),5fb69cacddba6408f81a9564,Spanish,13 or older,"no, only English or Spanish",no,2025-08-12_15h15.22.163,empathy_intonation_perc,2024.2.4,MacIntel,30.67484663,5fb69cacddba6408f81a9564,687ed1b7e638a4cbf2f02089,689b929f4d50b728aa24fb9d,,,,,,,,,,,,,,,,,,,,,,,,,,,,,,,,,,,,,,,,,,,,,,,,,,,,,,,,,,,,,,,,,,,,,,,,,,,,,,,,,,,,,,,,,,,,,,,,,,,,,,,,,,
37.6232,39.7883,0,3,3,3,1,"If it's true, press '1' (True) and if it's false press '0' (False).", (press the space bar to continue),5fb69cacddba6408f81a9564,Spanish,13 or older,"no, only English or Spanish",no,2025-08-12_15h15.22.163,empathy_intonation_perc,2024.2.4,MacIntel,30.67484663,5fb69cacddba6408f81a9564,687ed1b7e638a4cbf2f02089,689b929f4d50b728aa24fb9d,,,,,,,,,,,,,,,,,,,,,,,,,,,,,,,,,,,,,,,,,,,,,,,,,,,,,,,,,,,,,,,,,,,,,,,,,,,,,,,,,,,,,,,,,,,,,,,,,,,,,,,,,,
,,,,,,,,,5fb69cacddba6408f81a9564,Spanish,13 or older,"no, only English or Spanish",no,2025-08-12_15h15.22.163,empathy_intonation_perc,2024.2.4,MacIntel,30.67484663,5fb69cacddba6408f81a9564,687ed1b7e638a4cbf2f02089,689b929f4d50b728aa24fb9d,39.7968,84.0887,1,0,8.2007,,,0,0,0,2,1,3,0,The mom already has rice.,./stim/exposure_wavs/pr_stimuli_convo.wav,36,,,,,,,,,,,,,,,,,,,,,,,,,,,,,,,,,,,,,,,,,,,,,,,,,,,,,,,,,,,,,,,,,,,,,,,,,,,,,,,,,,,,,,,,,
,,,,,,,,,5fb69cacddba6408f81a9564,Spanish,13 or older,"no, only English or Spanish",no,2025-08-12_15h15.22.163,empathy_intonation_perc,2024.2.4,MacIntel,30.67484663,5fb69cacddba6408f81a9564,687ed1b7e638a4cbf2f02089,689b929f4d50b728aa24fb9d,84.0909,148.455,1,1,4.2951,,,0,1,1,1,1,2,1,The mom asked the daughter if she already went to the supermarket.,./stim/exposure_wavs/dr_stimuli_convo.wav,60,,,,,,,,,,,,,,,,,,,,,,,,,,,,,,,,,,,,,,,,,,,,,,,,,,,,,,,,,,,,,,,,,,,,,,,,,,,,,,,,,,,,,,,,,
,,,,,,,,,5fb69cacddba6408f81a9564,Spanish,13 or older,"no, only English or Spanish",no,2025-08-12_15h15.22.163,empathy_intonation_perc,2024.2.4,MacIntel,30.67484663,5fb69cacddba6408f81a9564,687ed1b7e638a4cbf2f02089,689b929f4d50b728aa24fb9d,148.457,200.4206,1,1,4.9038,,,0,2,2,0,1,1,1,The son asked the mom if Aunt Marina is okay.,./stim/exposure_wavs/ga_stimuli_convo.wav,47,,,,,,,,,,,,,,,,,,,,,,,,,,,,,,,,,,,,,,,,,,,,,,,,,,,,,,,,,,,,,,,,,,,,,,,,,,,,,,,,,,,,,,,,,
,,,,,,,"In the following task you are going to hear a series of utterances. 

  You will decide if the utterances sound like questions or not using your keyboard.", (press the spacebar to continue),5fb69cacddba6408f81a9564,Spanish,13 or older,"no, only English or Spanish",no,2025-08-12_15h15.22.163,empathy_intonation_perc,2024.2.4,MacIntel,30.67484663,5fb69cacddba6408f81a9564,687ed1b7e638a4cbf2f02089,689b929f4d50b728aa24fb9d,,,,,,,,,,,,,,,,,,200.4269,703.4215,0,0,0,0,1,,,,,,,,,,,,,,,,,,,,,,,,,,,,,,,,,,,,,,,,,,,,,,,,,,,,,,,,,,,,,,,,,,,,,,,,,,,,,,,,,,
,,,,,,,"If you believe the utterance is a question, type '1' (for 'yes') and if you do not 
  believe it is a question type '0' (for 'no').

  Let's practice a bit...", (press the spacebar to continue),5fb69cacddba6408f81a9564,Spanish,13 or older,"no, only English or Spanish",no,2025-08-12_15h15.22.163,empathy_intonation_perc,2024.2.4,MacIntel,30.67484663,5fb69cacddba6408f81a9564,687ed1b7e638a4cbf2f02089,689b929f4d50b728aa24fb9d,,,,,,,,,,,,,,,,,,703.4229,714.788,0,1,1,1,1,,,,,,,,,,,,,,,,,,,,,,,,,,,,,,,,,,,,,,,,,,,,,,,,,,,,,,,,,,,,,,,,,,,,,,,,,,,,,,,,,,
,,,,,,,,,5fb69cacddba6408f81a9564,Spanish,13 or older,"no, only English or Spanish",no,2025-08-12_15h15.22.163,empathy_intonation_perc,2024.2.4,MacIntel,30.67484663,5fb69cacddba6408f81a9564,687ed1b7e638a4cbf2f02089,689b929f4d50b728aa24fb9d,,,,,,,,,,,,,,1,,./stim/wavs/chilean_question_filler_Mi-padre-cantaba-bien.wav,,,,,,,,,714.7971,718.1881,0,0,2.8427,,0,0,0,2,1,,,,,,,,,,,,,,,,,,,,,,,,,,,,,,,,,,,,,,,,,,,,,,,,,,,,,,,,,,,,,,,,,,,,,,,
,,,,,,,,,5fb69cacddba6408f81a9564,Spanish,13 or older,"no, only English or Spanish",no,2025-08-12_15h15.22.163,empathy_intonation_perc,2024.2.4,MacIntel,30.67484663,5fb69cacddba6408f81a9564,687ed1b7e638a4cbf2f02089,689b929f4d50b728aa24fb9d,,,,,,,,,,,,,,0,,./stim/wavs/puertorican_statement_filler_La-nina-pinta-con-su-amiga.wav,,,,,,,,,718.189,720.8879,0,1,2.1334,,0,1,1,7,1,,,,,,,,,,,,,,,,,,,,,,,,,,,,,,,,,,,,,,,,,,,,,,,,,,,,,,,,,,,,,,,,,,,,,,,
,,,,,,,,,5fb69cacddba6408f81a9564,Spanish,13 or older,"no, only English or Spanish",no,2025-08-12_15h15.22.163,empathy_intonation_perc,2024.2.4,MacIntel,30.67484663,5fb69cacddba6408f81a9564,687ed1b7e638a4cbf2f02089,689b929f4d50b728aa24fb9d,,,,,,,,,,,,,,1,,./stim/wavs/argentine_question_filler_Mi-vecino-habla-mucho.wav,,,,,,,,,720.8886,723.3213,1,1,1.8693,,0,2,2,1,1,,,,,,,,,,,,,,,,,,,,,,,,,,,,,,,,,,,,,,,,,,,,,,,,,,,,,,,,,,,,,,,,,,,,,,,
,,,,,,,,,5fb69cacddba6408f81a9564,Spanish,13 or older,"no, only English or Spanish",no,2025-08-12_15h15.22.163,empathy_intonation_perc,2024.2.4,MacIntel,30.67484663,5fb69cacddba6408f81a9564,687ed1b7e638a4cbf2f02089,689b929f4d50b728aa24fb9d,,,,,,,,,,,,,,1,,./stim/wavs/mexican_question_filler_Felipe-no-tiene-contrasena.wav,,,,,,,,,723.3221,725.7212,1,1,1.8336,,0,3,3,3,1,,,,,,,,,,,,,,,,,,,,,,,,,,,,,,,,,,,,,,,,,,,,,,,,,,,,,,,,,,,,,,,,,,,,,,,
,,,,,,,,,5fb69cacddba6408f81a9564,Spanish,13 or older,"no, only English or Spanish",no,2025-08-12_15h15.22.163,empathy_intonation_perc,2024.2.4,MacIntel,30.67484663,5fb69cacddba6408f81a9564,687ed1b7e638a4cbf2f02089,689b929f4d50b728aa24fb9d,,,,,,,,,,,,,,0,,./stim/wavs/cuban_statement_filler_Cocinabas-por-la-noche.wav,,,,,,,,,725.7219,728.487,0,1,2.2031,,0,4,4,4,1,,,,,,,,,,,,,,,,,,,,,,,,,,,,,,,,,,,,,,,,,,,,,,,,,,,,,,,,,,,,,,,,,,,,,,,
,,,,,,,,,5fb69cacddba6408f81a9564,Spanish,13 or older,"no, only English or Spanish",no,2025-08-12_15h15.22.163,empathy_intonation_perc,2024.2.4,MacIntel,30.67484663,5fb69cacddba6408f81a9564,687ed1b7e638a4cbf2f02089,689b929f4d50b728aa24fb9d,,,,,,,,,,,,,,0,,./stim/wavs/andalusian_statement_filler_Alberto-nunca-se-afeita.wav,,,,,,,,,728.4877,731.0546,0,1,2.0335,,0,5,5,5,1,,,,,,,,,,,,,,,,,,,,,,,,,,,,,,,,,,,,,,,,,,,,,,,,,,,,,,,,,,,,,,,,,,,,,,,
,,,,,,,,,5fb69cacddba6408f81a9564,Spanish,13 or older,"no, only English or Spanish",no,2025-08-12_15h15.22.163,empathy_intonation_perc,2024.2.4,MacIntel,30.67484663,5fb69cacddba6408f81a9564,687ed1b7e638a4cbf2f02089,689b929f4d50b728aa24fb9d,,,,,,,,,,,,,,0,,./stim/wavs/peruvian_statement_filler_El-nino-habla-con-su-madre.wav,,,,,,,,,731.0553,734.1212,0,1,2.5216,,0,6,6,6,1,,,,,,,,,,,,,,,,,,,,,,,,,,,,,,,,,,,,,,,,,,,,,,,,,,,,,,,,,,,,,,,,,,,,,,,
,,,,,,,,,5fb69cacddba6408f81a9564,Spanish,13 or older,"no, only English or Spanish",no,2025-08-12_15h15.22.163,empathy_intonation_perc,2024.2.4,MacIntel,30.67484663,5fb69cacddba6408f81a9564,687ed1b7e638a4cbf2f02089,689b929f4d50b728aa24fb9d,,,,,,,,,,,,,,1,,./stim/wavs/castilian_question_filler_Mi-esposo-conoce-al-chico.wav,,,,,,,,,734.122,736.4879,1,1,1.8275,,0,7,7,0,1,,,,,,,,,,,,,,,,,,,,,,,,,,,,,,,,,,,,,,,,,,,,,,,,,,,,,,,,,,,,,,,,,,,,,,,
,,,,,,,,,5fb69cacddba6408f81a9564,Spanish,13 or older,"no, only English or Spanish",no,2025-08-12_15h15.22.163,empathy_intonation_perc,2024.2.4,MacIntel,30.67484663,5fb69cacddba6408f81a9564,687ed1b7e638a4cbf2f02089,689b929f4d50b728aa24fb9d,,,,,,,,,,,,,,,,,,,,,,,,,,,,,,,,,,,,736.4884,738.5549,,,,,,,,,,,,,,,,,,,,,,,,,,,,,,,,,,,,,,,,,,,,,,,,,,,,,,,,,,,,,,,,,,,,,
,,,,,,,,,5fb69cacddba6408f81a9564,Spanish,13 or older,"no, only English or Spanish",no,2025-08-12_15h15.22.163,empathy_intonation_perc,2024.2.4,MacIntel,30.67484663,5fb69cacddba6408f81a9564,687ed1b7e638a4cbf2f02089,689b929f4d50b728aa24fb9d,,,,,,,,,,,,,46,0,,./stim/wavs/castilian_match_declarative-broad-focus_Emilio-ama-la-marcha.wav,,,,,,,,,,,,,,,,,,,,,,738.5651,741.3882,0,1,2.2825,,0,0,0,45,1,0,castilian,,,,,,,,,,,,,,,,,,,,,,,,,,,,,,,,,,,,,,,,,,,,,,,,,,,,,,,,
,,,,,,,,,5fb69cacddba6408f81a9564,Spanish,13 or older,"no, only English or Spanish",no,2025-08-12_15h15.22.163,empathy_intonation_perc,2024.2.4,MacIntel,30.67484663,5fb69cacddba6408f81a9564,687ed1b7e638a4cbf2f02089,689b929f4d50b728aa24fb9d,,,,,,,,,,,,,49,0,,./stim/wavs/castilian_match_declarative-broad-focus_Mariano-habla-del-tiempo.wav,,,,,,,,,,,,,,,,,,,,,,741.3889,744.6871,0,1,2.7601,,0,1,1,48,1,0,castilian,,,,,,,,,,,,,,,,,,,,,,,,,,,,,,,,,,,,,,,,,,,,,,,,,,,,,,,,
,,,,,,,,,5fb69cacddba6408f81a9564,Spanish,13 or older,"no, only English or Spanish",no,2025-08-12_15h15.22.163,empathy_intonation_perc,2024.2.4,MacIntel,30.67484663,5fb69cacddba6408f81a9564,687ed1b7e638a4cbf2f02089,689b929f4d50b728aa24fb9d,,,,,,,,,,,,,87,0,,./stim/wavs/puertorican_mismatch_declarative-broad-focus_La-maestra-vive-en-Paris.wav,,,,,,,,,,,,,,,,,,,,,,744.6878,749.0879,1,0,3.8667,,0,2,2,86,1,0,puertorican,,,,,,,,,,,,,,,,,,,,,,,,,,,,,,,,,,,,,,,,,,,,,,,,,,,,,,,,
,,,,,,,,,5fb69cacddba6408f81a9564,Spanish,13 or older,"no, only English or Spanish",no,2025-08-12_15h15.22.163,empathy_intonation_perc,2024.2.4,MacIntel,30.67484663,5fb69cacddba6408f81a9564,687ed1b7e638a4cbf2f02089,689b929f4d50b728aa24fb9d,,,,,,,,,,,,,4,1,,./stim/wavs/castilian_match_interrogative-total-yn_Maria-bebe-el-vino.wav,,,,,,,,,,,,,,,,,,,,,,749.0885,751.3878,1,1,1.7472,,0,3,3,3,1,0,castilian,,,,,,,,,,,,,,,,,,,,,,,,,,,,,,,,,,,,,,,,,,,,,,,,,,,,,,,,
,,,,,,,,,5fb69cacddba6408f81a9564,Spanish,13 or older,"no, only English or Spanish",no,2025-08-12_15h15.22.163,empathy_intonation_perc,2024.2.4,MacIntel,30.67484663,5fb69cacddba6408f81a9564,687ed1b7e638a4cbf2f02089,689b929f4d50b728aa24fb9d,,,,,,,,,,,,,17,1,,./stim/wavs/mexican_match_interrogative-total-yn_Mariano-habla-del-tiempo.wav,,,,,,,,,,,,,,,,,,,,,,751.3884,753.6211,1,1,1.6847,,0,4,4,16,1,0,mexican,,,,,,,,,,,,,,,,,,,,,,,,,,,,,,,,,,,,,,,,,,,,,,,,,,,,,,,,
,,,,,,,,,5fb69cacddba6408f81a9564,Spanish,13 or older,"no, only English or Spanish",no,2025-08-12_15h15.22.163,empathy_intonation_perc,2024.2.4,MacIntel,30.67484663,5fb69cacddba6408f81a9564,687ed1b7e638a4cbf2f02089,689b929f4d50b728aa24fb9d,,,,,,,,,,,,,21,1,,./stim/wavs/puertorican_match_interrogative-total-yn_David-leia-el-libro.wav,,,,,,,,,,,,,,,,,,,,,,753.6218,755.8212,0,0,1.6362,,0,5,5,20,1,1,puertorican,,,,,,,,,,,,,,,,,,,,,,,,,,,,,,,,,,,,,,,,,,,,,,,,,,,,,,,,
,,,,,,,,,5fb69cacddba6408f81a9564,Spanish,13 or older,"no, only English or Spanish",no,2025-08-12_15h15.22.163,empathy_intonation_perc,2024.2.4,MacIntel,30.67484663,5fb69cacddba6408f81a9564,687ed1b7e638a4cbf2f02089,689b929f4d50b728aa24fb9d,,,,,,,,,,,,,68,0,,./stim/wavs/puertorican_match_declarative-broad-focus_Maria-bebe-el-vino.wav,,,,,,,,,,,,,,,,,,,,,,755.8219,758.1546,0,1,1.7938,,0,6,6,67,1,0,puertorican,,,,,,,,,,,,,,,,,,,,,,,,,,,,,,,,,,,,,,,,,,,,,,,,,,,,,,,,
,,,,,,,,,5fb69cacddba6408f81a9564,Spanish,13 or older,"no, only English or Spanish",no,2025-08-12_15h15.22.163,empathy_intonation_perc,2024.2.4,MacIntel,30.67484663,5fb69cacddba6408f81a9564,687ed1b7e638a4cbf2f02089,689b929f4d50b728aa24fb9d,,,,,,,,,,,,,75,0,,./stim/wavs/cuban_mismatch_declarative-broad-focus_El-hombre-mira-la-luna.wav,,,,,,,,,,,,,,,,,,,,,,758.1551,760.4878,0,1,1.7663,,0,7,7,74,1,0,cuban,,,,,,,,,,,,,,,,,,,,,,,,,,,,,,,,,,,,,,,,,,,,,,,,,,,,,,,,
,,,,,,,,,5fb69cacddba6408f81a9564,Spanish,13 or older,"no, only English or Spanish",no,2025-08-12_15h15.22.163,empathy_intonation_perc,2024.2.4,MacIntel,30.67484663,5fb69cacddba6408f81a9564,687ed1b7e638a4cbf2f02089,689b929f4d50b728aa24fb9d,,,,,,,,,,,,,59,0,,./stim/wavs/mexican_match_declarative-broad-focus_David-leia-el-libro.wav,,,,,,,,,,,,,,,,,,,,,,760.4885,764.1202,1,0,3.0875,,0,8,8,58,1,0,mexican,,,,,,,,,,,,,,,,,,,,,,,,,,,,,,,,,,,,,,,,,,,,,,,,,,,,,,,,
,,,,,,,,,5fb69cacddba6408f81a9564,Spanish,13 or older,"no, only English or Spanish",no,2025-08-12_15h15.22.163,empathy_intonation_perc,2024.2.4,MacIntel,30.67484663,5fb69cacddba6408f81a9564,687ed1b7e638a4cbf2f02089,689b929f4d50b728aa24fb9d,,,,,,,,,,,,,73,0,,./stim/wavs/castilian_mismatch_declarative-broad-focus_Mi-tia-odia-la-lluvia.wav,,,,,,,,,,,,,,,,,,,,,,764.1207,766.2544,1,0,1.5797,,0,9,9,72,1,0,castilian,,,,,,,,,,,,,,,,,,,,,,,,,,,,,,,,,,,,,,,,,,,,,,,,,,,,,,,,
,,,,,,,,,5fb69cacddba6408f81a9564,Spanish,13 or older,"no, only English or Spanish",no,2025-08-12_15h15.22.163,empathy_intonation_perc,2024.2.4,MacIntel,30.67484663,5fb69cacddba6408f81a9564,687ed1b7e638a4cbf2f02089,689b929f4d50b728aa24fb9d,,,,,,,,,,,,,54,0,,./stim/wavs/cuban_match_declarative-broad-focus_Maria-bebe-el-vino.wav,,,,,,,,,,,,,,,,,,,,,,766.2551,768.2544,0,1,1.4571,,0,10,10,53,1,0,cuban,,,,,,,,,,,,,,,,,,,,,,,,,,,,,,,,,,,,,,,,,,,,,,,,,,,,,,,,
,,,,,,,,,5fb69cacddba6408f81a9564,Spanish,13 or older,"no, only English or Spanish",no,2025-08-12_15h15.22.163,empathy_intonation_perc,2024.2.4,MacIntel,30.67484663,5fb69cacddba6408f81a9564,687ed1b7e638a4cbf2f02089,689b929f4d50b728aa24fb9d,,,,,,,,,,,,,44,1,,./stim/wavs/puertorican_mismatch_interrogative-total-yn_Mi-madre-come-la-fruta.wav,,,,,,,,,,,,,,,,,,,,,,768.2549,771.0544,0,0,2.2604,,0,11,11,43,1,1,puertorican,,,,,,,,,,,,,,,,,,,,,,,,,,,,,,,,,,,,,,,,,,,,,,,,,,,,,,,,
,,,,,,,,,5fb69cacddba6408f81a9564,Spanish,13 or older,"no, only English or Spanish",no,2025-08-12_15h15.22.163,empathy_intonation_perc,2024.2.4,MacIntel,30.67484663,5fb69cacddba6408f81a9564,687ed1b7e638a4cbf2f02089,689b929f4d50b728aa24fb9d,,,,,,,,,,,,,31,1,,./stim/wavs/cuban_mismatch_interrogative-total-yn_El-nino-oye-el-rio.wav,,,,,,,,,,,,,,,,,,,,,,771.055,773.1211,1,1,1.5215,,0,12,12,30,1,1,cuban,,,,,,,,,,,,,,,,,,,,,,,,,,,,,,,,,,,,,,,,,,,,,,,,,,,,,,,,
,,,,,,,,,5fb69cacddba6408f81a9564,Spanish,13 or older,"no, only English or Spanish",no,2025-08-12_15h15.22.163,empathy_intonation_perc,2024.2.4,MacIntel,30.67484663,5fb69cacddba6408f81a9564,687ed1b7e638a4cbf2f02089,689b929f4d50b728aa24fb9d,,,,,,,,,,,,,53,0,,./stim/wavs/cuban_match_declarative-broad-focus_Manuela-vende-el-carro.wav,,,,,,,,,,,,,,,,,,,,,,773.1217,775.5545,0,1,1.8667,,0,13,13,52,1,0,cuban,,,,,,,,,,,,,,,,,,,,,,,,,,,,,,,,,,,,,,,,,,,,,,,,,,,,,,,,
,,,,,,,,,5fb69cacddba6408f81a9564,Spanish,13 or older,"no, only English or Spanish",no,2025-08-12_15h15.22.163,empathy_intonation_perc,2024.2.4,MacIntel,30.67484663,5fb69cacddba6408f81a9564,687ed1b7e638a4cbf2f02089,689b929f4d50b728aa24fb9d,,,,,,,,,,,,,2,1,,./stim/wavs/castilian_match_interrogative-total-yn_Emilio-ama-la-marcha.wav,,,,,,,,,,,,,,,,,,,,,,775.5552,777.7212,1,1,1.6097,,0,14,14,1,1,0,castilian,,,,,,,,,,,,,,,,,,,,,,,,,,,,,,,,,,,,,,,,,,,,,,,,,,,,,,,,
,,,,,,,,,5fb69cacddba6408f81a9564,Spanish,13 or older,"no, only English or Spanish",no,2025-08-12_15h15.22.163,empathy_intonation_perc,2024.2.4,MacIntel,30.67484663,5fb69cacddba6408f81a9564,687ed1b7e638a4cbf2f02089,689b929f4d50b728aa24fb9d,,,,,,,,,,,,,34,1,,./stim/wavs/cuban_mismatch_interrogative-total-yn_Mi-tia-odia-la-lluvia.wav,,,,,,,,,,,,,,,,,,,,,,777.7219,779.8877,1,1,1.611,,0,15,15,33,1,1,cuban,,,,,,,,,,,,,,,,,,,,,,,,,,,,,,,,,,,,,,,,,,,,,,,,,,,,,,,,
,,,,,,,,,5fb69cacddba6408f81a9564,Spanish,13 or older,"no, only English or Spanish",no,2025-08-12_15h15.22.163,empathy_intonation_perc,2024.2.4,MacIntel,30.67484663,5fb69cacddba6408f81a9564,687ed1b7e638a4cbf2f02089,689b929f4d50b728aa24fb9d,,,,,,,,,,,,,70,0,,./stim/wavs/castilian_mismatch_declarative-broad-focus_La-maestra-vive-en-Paris.wav,,,,,,,,,,,,,,,,,,,,,,779.8884,782.7213,0,1,2.2668,,0,16,16,69,1,0,castilian,,,,,,,,,,,,,,,,,,,,,,,,,,,,,,,,,,,,,,,,,,,,,,,,,,,,,,,,
,,,,,,,,,5fb69cacddba6408f81a9564,Spanish,13 or older,"no, only English or Spanish",no,2025-08-12_15h15.22.163,empathy_intonation_perc,2024.2.4,MacIntel,30.67484663,5fb69cacddba6408f81a9564,687ed1b7e638a4cbf2f02089,689b929f4d50b728aa24fb9d,,,,,,,,,,,,,19,1,,./stim/wavs/puertorican_match_interrogative-total-yn_Ana-lleva-el-abrigo.wav,,,,,,,,,,,,,,,,,,,,,,782.7219,785.5879,1,1,2.3002,,0,17,17,18,1,1,puertorican,,,,,,,,,,,,,,,,,,,,,,,,,,,,,,,,,,,,,,,,,,,,,,,,,,,,,,,,
,,,,,,,,,5fb69cacddba6408f81a9564,Spanish,13 or older,"no, only English or Spanish",no,2025-08-12_15h15.22.163,empathy_intonation_perc,2024.2.4,MacIntel,30.67484663,5fb69cacddba6408f81a9564,687ed1b7e638a4cbf2f02089,689b929f4d50b728aa24fb9d,,,,,,,,,,,,,79,0,,./stim/wavs/mexican_mismatch_declarative-broad-focus_El-bebe-comia-muy-bien.wav,,,,,,,,,,,,,,,,,,,,,,785.5885,787.8877,0,1,1.7516,,0,18,18,78,1,0,mexican,,,,,,,,,,,,,,,,,,,,,,,,,,,,,,,,,,,,,,,,,,,,,,,,,,,,,,,,
,,,,,,,,,5fb69cacddba6408f81a9564,Spanish,13 or older,"no, only English or Spanish",no,2025-08-12_15h15.22.163,empathy_intonation_perc,2024.2.4,MacIntel,30.67484663,5fb69cacddba6408f81a9564,687ed1b7e638a4cbf2f02089,689b929f4d50b728aa24fb9d,,,,,,,,,,,,,3,1,,./stim/wavs/castilian_match_interrogative-total-yn_Manuela-vende-el-carro.wav,,,,,,,,,,,,,,,,,,,,,,787.8884,790.1212,1,1,1.6682,,0,19,19,2,1,0,castilian,,,,,,,,,,,,,,,,,,,,,,,,,,,,,,,,,,,,,,,,,,,,,,,,,,,,,,,,
,,,,,,,,,5fb69cacddba6408f81a9564,Spanish,13 or older,"no, only English or Spanish",no,2025-08-12_15h15.22.163,empathy_intonation_perc,2024.2.4,MacIntel,30.67484663,5fb69cacddba6408f81a9564,687ed1b7e638a4cbf2f02089,689b929f4d50b728aa24fb9d,,,,,,,,,,,,,33,1,,./stim/wavs/cuban_mismatch_interrogative-total-yn_Mi-novio-viene-del-lago.wav,,,,,,,,,,,,,,,,,,,,,,790.122,794.4547,0,0,3.769,,0,20,20,32,1,1,cuban,,,,,,,,,,,,,,,,,,,,,,,,,,,,,,,,,,,,,,,,,,,,,,,,,,,,,,,,
,,,,,,,,,5fb69cacddba6408f81a9564,Spanish,13 or older,"no, only English or Spanish",no,2025-08-12_15h15.22.163,empathy_intonation_perc,2024.2.4,MacIntel,30.67484663,5fb69cacddba6408f81a9564,687ed1b7e638a4cbf2f02089,689b929f4d50b728aa24fb9d,,,,,,,,,,,,,81,0,,./stim/wavs/mexican_mismatch_declarative-broad-focus_La-maestra-vive-en-Paris.wav,,,,,,,,,,,,,,,,,,,,,,794.4554,797.0211,0,1,2.0241,,0,21,21,80,1,0,mexican,,,,,,,,,,,,,,,,,,,,,,,,,,,,,,,,,,,,,,,,,,,,,,,,,,,,,,,,
,,,,,,,,,5fb69cacddba6408f81a9564,Spanish,13 or older,"no, only English or Spanish",no,2025-08-12_15h15.22.163,empathy_intonation_perc,2024.2.4,MacIntel,30.67484663,5fb69cacddba6408f81a9564,687ed1b7e638a4cbf2f02089,689b929f4d50b728aa24fb9d,,,,,,,,,,,,,30,1,,./stim/wavs/cuban_mismatch_interrogative-total-yn_El-hombre-mira-la-luna.wav,,,,,,,,,,,,,,,,,,,,,,797.0216,798.9874,1,1,1.4271,,0,22,22,29,1,1,cuban,,,,,,,,,,,,,,,,,,,,,,,,,,,,,,,,,,,,,,,,,,,,,,,,,,,,,,,,
,,,,,,,,,5fb69cacddba6408f81a9564,Spanish,13 or older,"no, only English or Spanish",no,2025-08-12_15h15.22.163,empathy_intonation_perc,2024.2.4,MacIntel,30.67484663,5fb69cacddba6408f81a9564,687ed1b7e638a4cbf2f02089,689b929f4d50b728aa24fb9d,,,,,,,,,,,,,48,0,,./stim/wavs/castilian_match_declarative-broad-focus_Maria-bebe-el-vino.wav,,,,,,,,,,,,,,,,,,,,,,798.988,801.4544,0,1,1.954,,0,23,23,47,1,0,castilian,,,,,,,,,,,,,,,,,,,,,,,,,,,,,,,,,,,,,,,,,,,,,,,,,,,,,,,,
,,,,,,,,,5fb69cacddba6408f81a9564,Spanish,13 or older,"no, only English or Spanish",no,2025-08-12_15h15.22.163,empathy_intonation_perc,2024.2.4,MacIntel,30.67484663,5fb69cacddba6408f81a9564,687ed1b7e638a4cbf2f02089,689b929f4d50b728aa24fb9d,,,,,,,,,,,,,18,1,,./stim/wavs/mexican_match_interrogative-total-yn_Marta-abre-el-regalo.wav,,,,,,,,,,,,,,,,,,,,,,801.4551,803.6879,1,1,1.6697,,0,24,24,17,1,0,mexican,,,,,,,,,,,,,,,,,,,,,,,,,,,,,,,,,,,,,,,,,,,,,,,,,,,,,,,,
,,,,,,,,,5fb69cacddba6408f81a9564,Spanish,13 or older,"no, only English or Spanish",no,2025-08-12_15h15.22.163,empathy_intonation_perc,2024.2.4,MacIntel,30.67484663,5fb69cacddba6408f81a9564,687ed1b7e638a4cbf2f02089,689b929f4d50b728aa24fb9d,,,,,,,,,,,,,64,0,,./stim/wavs/puertorican_match_declarative-broad-focus_Daniel-iba-a-Bolivia.wav,,,,,,,,,,,,,,,,,,,,,,803.6885,805.8875,0,1,1.6365,,0,25,25,63,1,0,puertorican,,,,,,,,,,,,,,,,,,,,,,,,,,,,,,,,,,,,,,,,,,,,,,,,,,,,,,,,
,,,,,,,,,5fb69cacddba6408f81a9564,Spanish,13 or older,"no, only English or Spanish",no,2025-08-12_15h15.22.163,empathy_intonation_perc,2024.2.4,MacIntel,30.67484663,5fb69cacddba6408f81a9564,687ed1b7e638a4cbf2f02089,689b929f4d50b728aa24fb9d,,,,,,,,,,,,,24,1,,./stim/wavs/puertorican_match_interrogative-total-yn_Maria-bebe-el-vino.wav,,,,,,,,,,,,,,,,,,,,,,805.8882,807.8878,1,1,1.4585,,0,26,26,23,1,1,puertorican,,,,,,,,,,,,,,,,,,,,,,,,,,,,,,,,,,,,,,,,,,,,,,,,,,,,,,,,
,,,,,,,,,5fb69cacddba6408f81a9564,Spanish,13 or older,"no, only English or Spanish",no,2025-08-12_15h15.22.163,empathy_intonation_perc,2024.2.4,MacIntel,30.67484663,5fb69cacddba6408f81a9564,687ed1b7e638a4cbf2f02089,689b929f4d50b728aa24fb9d,,,,,,,,,,,,,9,1,,./stim/wavs/cuban_match_interrogative-total-yn_Manuela-vende-el-carro.wav,,,,,,,,,,,,,,,,,,,,,,807.8885,810.3877,0,0,1.9543,,0,27,27,8,1,1,cuban,,,,,,,,,,,,,,,,,,,,,,,,,,,,,,,,,,,,,,,,,,,,,,,,,,,,,,,,
,,,,,,,,,5fb69cacddba6408f81a9564,Spanish,13 or older,"no, only English or Spanish",no,2025-08-12_15h15.22.163,empathy_intonation_perc,2024.2.4,MacIntel,30.67484663,5fb69cacddba6408f81a9564,687ed1b7e638a4cbf2f02089,689b929f4d50b728aa24fb9d,,,,,,,,,,,,,78,0,,./stim/wavs/cuban_mismatch_declarative-broad-focus_Mi-tia-odia-la-lluvia.wav,,,,,,,,,,,,,,,,,,,,,,810.3884,812.7545,0,1,1.8033,,0,28,28,77,1,0,cuban,,,,,,,,,,,,,,,,,,,,,,,,,,,,,,,,,,,,,,,,,,,,,,,,,,,,,,,,
,,,,,,,,,5fb69cacddba6408f81a9564,Spanish,13 or older,"no, only English or Spanish",no,2025-08-12_15h15.22.163,empathy_intonation_perc,2024.2.4,MacIntel,30.67484663,5fb69cacddba6408f81a9564,687ed1b7e638a4cbf2f02089,689b929f4d50b728aa24fb9d,,,,,,,,,,,,,28,1,,./stim/wavs/castilian_mismatch_interrogative-total-yn_Mi-novio-viene-del-lago.wav,,,,,,,,,,,,,,,,,,,,,,812.7551,815.1545,1,1,1.8489,,0,29,29,27,1,0,castilian,,,,,,,,,,,,,,,,,,,,,,,,,,,,,,,,,,,,,,,,,,,,,,,,,,,,,,,,
,,,,,,,,,5fb69cacddba6408f81a9564,Spanish,13 or older,"no, only English or Spanish",no,2025-08-12_15h15.22.163,empathy_intonation_perc,2024.2.4,MacIntel,30.67484663,5fb69cacddba6408f81a9564,687ed1b7e638a4cbf2f02089,689b929f4d50b728aa24fb9d,,,,,,,,,,,,,42,1,,./stim/wavs/puertorican_mismatch_interrogative-total-yn_La-maestra-vive-en-Paris.wav,,,,,,,,,,,,,,,,,,,,,,815.1552,817.5544,0,0,1.851,,0,30,30,41,1,1,puertorican,,,,,,,,,,,,,,,,,,,,,,,,,,,,,,,,,,,,,,,,,,,,,,,,,,,,,,,,
,,,,,,,,,5fb69cacddba6408f81a9564,Spanish,13 or older,"no, only English or Spanish",no,2025-08-12_15h15.22.163,empathy_intonation_perc,2024.2.4,MacIntel,30.67484663,5fb69cacddba6408f81a9564,687ed1b7e638a4cbf2f02089,689b929f4d50b728aa24fb9d,,,,,,,,,,,,,12,1,,./stim/wavs/cuban_match_interrogative-total-yn_Marta-abre-el-regalo.wav,,,,,,,,,,,,,,,,,,,,,,817.5551,819.9878,1,1,1.8871,,0,31,31,11,1,1,cuban,,,,,,,,,,,,,,,,,,,,,,,,,,,,,,,,,,,,,,,,,,,,,,,,,,,,,,,,
,,,,,,,,,5fb69cacddba6408f81a9564,Spanish,13 or older,"no, only English or Spanish",no,2025-08-12_15h15.22.163,empathy_intonation_perc,2024.2.4,MacIntel,30.67484663,5fb69cacddba6408f81a9564,687ed1b7e638a4cbf2f02089,689b929f4d50b728aa24fb9d,,,,,,,,,,,,,88,0,,./stim/wavs/puertorican_mismatch_declarative-broad-focus_La-nina-lava-el-plato.wav,,,,,,,,,,,,,,,,,,,,,,819.9885,822.4545,1,0,1.9,,0,32,32,87,1,0,puertorican,,,,,,,,,,,,,,,,,,,,,,,,,,,,,,,,,,,,,,,,,,,,,,,,,,,,,,,,
,,,,,,,,,5fb69cacddba6408f81a9564,Spanish,13 or older,"no, only English or Spanish",no,2025-08-12_15h15.22.163,empathy_intonation_perc,2024.2.4,MacIntel,30.67484663,5fb69cacddba6408f81a9564,687ed1b7e638a4cbf2f02089,689b929f4d50b728aa24fb9d,,,,,,,,,,,,,45,0,,./stim/wavs/castilian_match_declarative-broad-focus_David-leia-el-libro.wav,,,,,,,,,,,,,,,,,,,,,,822.4552,824.9211,0,1,1.9254,,0,33,33,44,1,0,castilian,,,,,,,,,,,,,,,,,,,,,,,,,,,,,,,,,,,,,,,,,,,,,,,,,,,,,,,,
,,,,,,,,,5fb69cacddba6408f81a9564,Spanish,13 or older,"no, only English or Spanish",no,2025-08-12_15h15.22.163,empathy_intonation_perc,2024.2.4,MacIntel,30.67484663,5fb69cacddba6408f81a9564,687ed1b7e638a4cbf2f02089,689b929f4d50b728aa24fb9d,,,,,,,,,,,,,83,0,,./stim/wavs/mexican_mismatch_declarative-broad-focus_Mi-tia-odia-la-lluvia.wav,,,,,,,,,,,,,,,,,,,,,,824.9216,826.9211,0,1,1.4533,,0,34,34,82,1,0,mexican,,,,,,,,,,,,,,,,,,,,,,,,,,,,,,,,,,,,,,,,,,,,,,,,,,,,,,,,
,,,,,,,,,5fb69cacddba6408f81a9564,Spanish,13 or older,"no, only English or Spanish",no,2025-08-12_15h15.22.163,empathy_intonation_perc,2024.2.4,MacIntel,30.67484663,5fb69cacddba6408f81a9564,687ed1b7e638a4cbf2f02089,689b929f4d50b728aa24fb9d,,,,,,,,,,,,,43,1,,./stim/wavs/puertorican_mismatch_interrogative-total-yn_La-nina-lava-el-plato.wav,,,,,,,,,,,,,,,,,,,,,,826.9219,828.9211,1,1,1.4503,,0,35,35,42,1,1,puertorican,,,,,,,,,,,,,,,,,,,,,,,,,,,,,,,,,,,,,,,,,,,,,,,,,,,,,,,,
,,,,,,,,,5fb69cacddba6408f81a9564,Spanish,13 or older,"no, only English or Spanish",no,2025-08-12_15h15.22.163,empathy_intonation_perc,2024.2.4,MacIntel,30.67484663,5fb69cacddba6408f81a9564,687ed1b7e638a4cbf2f02089,689b929f4d50b728aa24fb9d,,,,,,,,,,,,,63,0,,./stim/wavs/puertorican_match_declarative-broad-focus_Ana-lleva-el-abrigo.wav,,,,,,,,,,,,,,,,,,,,,,828.9217,830.9211,0,1,1.4445,,0,36,36,62,1,0,puertorican,,,,,,,,,,,,,,,,,,,,,,,,,,,,,,,,,,,,,,,,,,,,,,,,,,,,,,,,
,,,,,,,,,5fb69cacddba6408f81a9564,Spanish,13 or older,"no, only English or Spanish",no,2025-08-12_15h15.22.163,empathy_intonation_perc,2024.2.4,MacIntel,30.67484663,5fb69cacddba6408f81a9564,687ed1b7e638a4cbf2f02089,689b929f4d50b728aa24fb9d,,,,,,,,,,,,,52,0,,./stim/wavs/cuban_match_declarative-broad-focus_Daniel-iba-a-Bolivia.wav,,,,,,,,,,,,,,,,,,,,,,830.9217,833.121,0,1,1.6436,,0,37,37,51,1,0,cuban,,,,,,,,,,,,,,,,,,,,,,,,,,,,,,,,,,,,,,,,,,,,,,,,,,,,,,,,
,,,,,,,,,5fb69cacddba6408f81a9564,Spanish,13 or older,"no, only English or Spanish",no,2025-08-12_15h15.22.163,empathy_intonation_perc,2024.2.4,MacIntel,30.67484663,5fb69cacddba6408f81a9564,687ed1b7e638a4cbf2f02089,689b929f4d50b728aa24fb9d,,,,,,,,,,,,,65,0,,./stim/wavs/puertorican_match_declarative-broad-focus_David-leia-el-libro.wav,,,,,,,,,,,,,,,,,,,,,,833.1217,837.1211,1,0,3.4445,,0,38,38,64,1,0,puertorican,,,,,,,,,,,,,,,,,,,,,,,,,,,,,,,,,,,,,,,,,,,,,,,,,,,,,,,,
,,,,,,,,,5fb69cacddba6408f81a9564,Spanish,13 or older,"no, only English or Spanish",no,2025-08-12_15h15.22.163,empathy_intonation_perc,2024.2.4,MacIntel,30.67484663,5fb69cacddba6408f81a9564,687ed1b7e638a4cbf2f02089,689b929f4d50b728aa24fb9d,,,,,,,,,,,,,56,0,,./stim/wavs/cuban_match_declarative-broad-focus_Marta-abre-el-regalo.wav,,,,,,,,,,,,,,,,,,,,,,837.1217,840.7211,1,0,3.0337,,0,39,39,55,1,0,cuban,,,,,,,,,,,,,,,,,,,,,,,,,,,,,,,,,,,,,,,,,,,,,,,,,,,,,,,,
,,,,,,,,,5fb69cacddba6408f81a9564,Spanish,13 or older,"no, only English or Spanish",no,2025-08-12_15h15.22.163,empathy_intonation_perc,2024.2.4,MacIntel,30.67484663,5fb69cacddba6408f81a9564,687ed1b7e638a4cbf2f02089,689b929f4d50b728aa24fb9d,,,,,,,,,,,,,22,1,,./stim/wavs/puertorican_match_interrogative-total-yn_Emilio-ama-la-marcha.wav,,,,,,,,,,,,,,,,,,,,,,840.7217,842.9878,0,0,1.7103,,0,40,40,21,1,1,puertorican,,,,,,,,,,,,,,,,,,,,,,,,,,,,,,,,,,,,,,,,,,,,,,,,,,,,,,,,
,,,,,,,,,5fb69cacddba6408f81a9564,Spanish,13 or older,"no, only English or Spanish",no,2025-08-12_15h15.22.163,empathy_intonation_perc,2024.2.4,MacIntel,30.67484663,5fb69cacddba6408f81a9564,687ed1b7e638a4cbf2f02089,689b929f4d50b728aa24fb9d,,,,,,,,,,,,,84,0,,./stim/wavs/puertorican_mismatch_declarative-broad-focus_El-bebe-comia-muy-bien.wav,,,,,,,,,,,,,,,,,,,,,,842.9884,845.1878,0,1,1.6456,,0,41,41,83,1,0,puertorican,,,,,,,,,,,,,,,,,,,,,,,,,,,,,,,,,,,,,,,,,,,,,,,,,,,,,,,,
,,,,,,,,,5fb69cacddba6408f81a9564,Spanish,13 or older,"no, only English or Spanish",no,2025-08-12_15h15.22.163,empathy_intonation_perc,2024.2.4,MacIntel,30.67484663,5fb69cacddba6408f81a9564,687ed1b7e638a4cbf2f02089,689b929f4d50b728aa24fb9d,,,,,,,,,,,,,66,0,,./stim/wavs/puertorican_match_declarative-broad-focus_Emilio-ama-la-marcha.wav,,,,,,,,,,,,,,,,,,,,,,845.1884,847.3877,0,1,1.6523,,0,42,42,65,1,0,puertorican,,,,,,,,,,,,,,,,,,,,,,,,,,,,,,,,,,,,,,,,,,,,,,,,,,,,,,,,
,,,,,,,,,5fb69cacddba6408f81a9564,Spanish,13 or older,"no, only English or Spanish",no,2025-08-12_15h15.22.163,empathy_intonation_perc,2024.2.4,MacIntel,30.67484663,5fb69cacddba6408f81a9564,687ed1b7e638a4cbf2f02089,689b929f4d50b728aa24fb9d,,,,,,,,,,,,,10,1,,./stim/wavs/cuban_match_interrogative-total-yn_Maria-bebe-el-vino.wav,,,,,,,,,,,,,,,,,,,,,,847.3885,849.6209,1,1,1.6771,,0,43,43,9,1,1,cuban,,,,,,,,,,,,,,,,,,,,,,,,,,,,,,,,,,,,,,,,,,,,,,,,,,,,,,,,
,,,,,,,,,5fb69cacddba6408f81a9564,Spanish,13 or older,"no, only English or Spanish",no,2025-08-12_15h15.22.163,empathy_intonation_perc,2024.2.4,MacIntel,30.67484663,5fb69cacddba6408f81a9564,687ed1b7e638a4cbf2f02089,689b929f4d50b728aa24fb9d,,,,,,,,,,,,,41,1,,./stim/wavs/puertorican_mismatch_interrogative-total-yn_El-nino-oye-el-rio.wav,,,,,,,,,,,,,,,,,,,,,,849.6215,851.6545,1,1,1.467,,0,44,44,40,1,1,puertorican,,,,,,,,,,,,,,,,,,,,,,,,,,,,,,,,,,,,,,,,,,,,,,,,,,,,,,,,
,,,,,,,,,5fb69cacddba6408f81a9564,Spanish,13 or older,"no, only English or Spanish",no,2025-08-12_15h15.22.163,empathy_intonation_perc,2024.2.4,MacIntel,30.67484663,5fb69cacddba6408f81a9564,687ed1b7e638a4cbf2f02089,689b929f4d50b728aa24fb9d,,,,,,,,,,,,,13,1,,./stim/wavs/mexican_match_interrogative-total-yn_Ana-lleva-el-abrigo.wav,,,,,,,,,,,,,,,,,,,,,,851.6551,854.0543,1,1,1.8438,,0,45,45,12,1,0,mexican,,,,,,,,,,,,,,,,,,,,,,,,,,,,,,,,,,,,,,,,,,,,,,,,,,,,,,,,
,,,,,,,,,5fb69cacddba6408f81a9564,Spanish,13 or older,"no, only English or Spanish",no,2025-08-12_15h15.22.163,empathy_intonation_perc,2024.2.4,MacIntel,30.67484663,5fb69cacddba6408f81a9564,687ed1b7e638a4cbf2f02089,689b929f4d50b728aa24fb9d,,,,,,,,,,,,,16,1,,./stim/wavs/mexican_match_interrogative-total-yn_Emilio-ama-la-marcha.wav,,,,,,,,,,,,,,,,,,,,,,854.055,856.1212,1,1,1.5007,,0,46,46,15,1,0,mexican,,,,,,,,,,,,,,,,,,,,,,,,,,,,,,,,,,,,,,,,,,,,,,,,,,,,,,,,
,,,,,,,,,5fb69cacddba6408f81a9564,Spanish,13 or older,"no, only English or Spanish",no,2025-08-12_15h15.22.163,empathy_intonation_perc,2024.2.4,MacIntel,30.67484663,5fb69cacddba6408f81a9564,687ed1b7e638a4cbf2f02089,689b929f4d50b728aa24fb9d,,,,,,,,,,,,,29,1,,./stim/wavs/castilian_mismatch_interrogative-total-yn_Mi-tia-odia-la-lluvia.wav,,,,,,,,,,,,,,,,,,,,,,856.1218,858.221,1,1,1.5473,,0,47,47,28,1,0,castilian,,,,,,,,,,,,,,,,,,,,,,,,,,,,,,,,,,,,,,,,,,,,,,,,,,,,,,,,
,,,,,,,,,5fb69cacddba6408f81a9564,Spanish,13 or older,"no, only English or Spanish",no,2025-08-12_15h15.22.163,empathy_intonation_perc,2024.2.4,MacIntel,30.67484663,5fb69cacddba6408f81a9564,687ed1b7e638a4cbf2f02089,689b929f4d50b728aa24fb9d,,,,,,,,,,,,,57,0,,./stim/wavs/mexican_match_declarative-broad-focus_Ana-lleva-el-abrigo.wav,,,,,,,,,,,,,,,,,,,,,,858.2217,860.4211,0,1,1.6563,,0,48,48,56,1,0,mexican,,,,,,,,,,,,,,,,,,,,,,,,,,,,,,,,,,,,,,,,,,,,,,,,,,,,,,,,
,,,,,,,,,5fb69cacddba6408f81a9564,Spanish,13 or older,"no, only English or Spanish",no,2025-08-12_15h15.22.163,empathy_intonation_perc,2024.2.4,MacIntel,30.67484663,5fb69cacddba6408f81a9564,687ed1b7e638a4cbf2f02089,689b929f4d50b728aa24fb9d,,,,,,,,,,,,,14,1,,./stim/wavs/mexican_match_interrogative-total-yn_Daniel-iba-a-Bolivia.wav,,,,,,,,,,,,,,,,,,,,,,860.4218,862.5212,1,1,1.5556,,0,49,49,13,1,0,mexican,,,,,,,,,,,,,,,,,,,,,,,,,,,,,,,,,,,,,,,,,,,,,,,,,,,,,,,,
,,,,,,,,,5fb69cacddba6408f81a9564,Spanish,13 or older,"no, only English or Spanish",no,2025-08-12_15h15.22.163,empathy_intonation_perc,2024.2.4,MacIntel,30.67484663,5fb69cacddba6408f81a9564,687ed1b7e638a4cbf2f02089,689b929f4d50b728aa24fb9d,,,,,,,,,,,,,80,0,,./stim/wavs/mexican_mismatch_declarative-broad-focus_El-hombre-mira-la-luna.wav,,,,,,,,,,,,,,,,,,,,,,862.5218,864.8544,0,1,1.7837,,0,50,50,79,1,0,mexican,,,,,,,,,,,,,,,,,,,,,,,,,,,,,,,,,,,,,,,,,,,,,,,,,,,,,,,,
,,,,,,,,,5fb69cacddba6408f81a9564,Spanish,13 or older,"no, only English or Spanish",no,2025-08-12_15h15.22.163,empathy_intonation_perc,2024.2.4,MacIntel,30.67484663,5fb69cacddba6408f81a9564,687ed1b7e638a4cbf2f02089,689b929f4d50b728aa24fb9d,,,,,,,,,,,,,82,0,,./stim/wavs/mexican_mismatch_declarative-broad-focus_Mi-novio-viene-del-lago.wav,,,,,,,,,,,,,,,,,,,,,,864.8551,866.8878,0,1,1.4669,,0,51,51,81,1,0,mexican,,,,,,,,,,,,,,,,,,,,,,,,,,,,,,,,,,,,,,,,,,,,,,,,,,,,,,,,
,,,,,,,,,5fb69cacddba6408f81a9564,Spanish,13 or older,"no, only English or Spanish",no,2025-08-12_15h15.22.163,empathy_intonation_perc,2024.2.4,MacIntel,30.67484663,5fb69cacddba6408f81a9564,687ed1b7e638a4cbf2f02089,689b929f4d50b728aa24fb9d,,,,,,,,,,,,,7,1,,./stim/wavs/cuban_match_interrogative-total-yn_Ana-lleva-el-abrigo.wav,,,,,,,,,,,,,,,,,,,,,,866.8884,874.5211,0,0,7.0678,,0,52,52,6,1,1,cuban,,,,,,,,,,,,,,,,,,,,,,,,,,,,,,,,,,,,,,,,,,,,,,,,,,,,,,,,
,,,,,,,,,5fb69cacddba6408f81a9564,Spanish,13 or older,"no, only English or Spanish",no,2025-08-12_15h15.22.163,empathy_intonation_perc,2024.2.4,MacIntel,30.67484663,5fb69cacddba6408f81a9564,687ed1b7e638a4cbf2f02089,689b929f4d50b728aa24fb9d,,,,,,,,,,,,,11,1,,./stim/wavs/cuban_match_interrogative-total-yn_Mariano-habla-del-tiempo.wav,,,,,,,,,,,,,,,,,,,,,,874.522,876.8209,1,1,1.7499,,0,53,53,10,1,1,cuban,,,,,,,,,,,,,,,,,,,,,,,,,,,,,,,,,,,,,,,,,,,,,,,,,,,,,,,,
,,,,,,,,,5fb69cacddba6408f81a9564,Spanish,13 or older,"no, only English or Spanish",no,2025-08-12_15h15.22.163,empathy_intonation_perc,2024.2.4,MacIntel,30.67484663,5fb69cacddba6408f81a9564,687ed1b7e638a4cbf2f02089,689b929f4d50b728aa24fb9d,,,,,,,,,,,,,36,1,,./stim/wavs/mexican_mismatch_interrogative-total-yn_El-nino-oye-el-rio.wav,,,,,,,,,,,,,,,,,,,,,,876.8215,878.6547,1,1,1.2946,,0,54,54,35,1,0,mexican,,,,,,,,,,,,,,,,,,,,,,,,,,,,,,,,,,,,,,,,,,,,,,,,,,,,,,,,
,,,,,,,,,5fb69cacddba6408f81a9564,Spanish,13 or older,"no, only English or Spanish",no,2025-08-12_15h15.22.163,empathy_intonation_perc,2024.2.4,MacIntel,30.67484663,5fb69cacddba6408f81a9564,687ed1b7e638a4cbf2f02089,689b929f4d50b728aa24fb9d,,,,,,,,,,,,,60,0,,./stim/wavs/mexican_match_declarative-broad-focus_Emilio-ama-la-marcha.wav,,,,,,,,,,,,,,,,,,,,,,878.6554,880.7878,1,0,1.5687,,0,55,55,59,1,0,mexican,,,,,,,,,,,,,,,,,,,,,,,,,,,,,,,,,,,,,,,,,,,,,,,,,,,,,,,,
,,,,,,,,,5fb69cacddba6408f81a9564,Spanish,13 or older,"no, only English or Spanish",no,2025-08-12_15h15.22.163,empathy_intonation_perc,2024.2.4,MacIntel,30.67484663,5fb69cacddba6408f81a9564,687ed1b7e638a4cbf2f02089,689b929f4d50b728aa24fb9d,,,,,,,,,,,,,69,0,,./stim/wavs/castilian_mismatch_declarative-broad-focus_El-nino-oye-el-rio.wav,,,,,,,,,,,,,,,,,,,,,,880.7884,882.8881,1,0,1.5426,,0,56,56,68,1,0,castilian,,,,,,,,,,,,,,,,,,,,,,,,,,,,,,,,,,,,,,,,,,,,,,,,,,,,,,,,
,,,,,,,,,5fb69cacddba6408f81a9564,Spanish,13 or older,"no, only English or Spanish",no,2025-08-12_15h15.22.163,empathy_intonation_perc,2024.2.4,MacIntel,30.67484663,5fb69cacddba6408f81a9564,687ed1b7e638a4cbf2f02089,689b929f4d50b728aa24fb9d,,,,,,,,,,,,,37,1,,./stim/wavs/mexican_mismatch_interrogative-total-yn_La-maestra-vive-en-Paris.wav,,,,,,,,,,,,,,,,,,,,,,882.8887,884.8878,0,0,1.4372,,0,57,57,36,1,0,mexican,,,,,,,,,,,,,,,,,,,,,,,,,,,,,,,,,,,,,,,,,,,,,,,,,,,,,,,,
,,,,,,,,,5fb69cacddba6408f81a9564,Spanish,13 or older,"no, only English or Spanish",no,2025-08-12_15h15.22.163,empathy_intonation_perc,2024.2.4,MacIntel,30.67484663,5fb69cacddba6408f81a9564,687ed1b7e638a4cbf2f02089,689b929f4d50b728aa24fb9d,,,,,,,,,,,,,8,1,,./stim/wavs/cuban_match_interrogative-total-yn_Daniel-iba-a-Bolivia.wav,,,,,,,,,,,,,,,,,,,,,,884.8884,888.8211,0,0,3.3866,,0,58,58,7,1,1,cuban,,,,,,,,,,,,,,,,,,,,,,,,,,,,,,,,,,,,,,,,,,,,,,,,,,,,,,,,
,,,,,,,,,5fb69cacddba6408f81a9564,Spanish,13 or older,"no, only English or Spanish",no,2025-08-12_15h15.22.163,empathy_intonation_perc,2024.2.4,MacIntel,30.67484663,5fb69cacddba6408f81a9564,687ed1b7e638a4cbf2f02089,689b929f4d50b728aa24fb9d,,,,,,,,,,,,,25,1,,./stim/wavs/castilian_mismatch_interrogative-total-yn_La-maestra-vive-en-Paris.wav,,,,,,,,,,,,,,,,,,,,,,888.8217,891.1544,1,1,1.7885,,0,59,59,24,1,0,castilian,,,,,,,,,,,,,,,,,,,,,,,,,,,,,,,,,,,,,,,,,,,,,,,,,,,,,,,,
,,,,,,,,,5fb69cacddba6408f81a9564,Spanish,13 or older,"no, only English or Spanish",no,2025-08-12_15h15.22.163,empathy_intonation_perc,2024.2.4,MacIntel,30.67484663,5fb69cacddba6408f81a9564,687ed1b7e638a4cbf2f02089,689b929f4d50b728aa24fb9d,,,,,,,,,,,,,58,0,,./stim/wavs/mexican_match_declarative-broad-focus_Daniel-iba-a-Bolivia.wav,,,,,,,,,,,,,,,,,,,,,,891.1551,893.5211,0,1,1.8142,,0,60,60,57,1,0,mexican,,,,,,,,,,,,,,,,,,,,,,,,,,,,,,,,,,,,,,,,,,,,,,,,,,,,,,,,
,,,,,,,,,5fb69cacddba6408f81a9564,Spanish,13 or older,"no, only English or Spanish",no,2025-08-12_15h15.22.163,empathy_intonation_perc,2024.2.4,MacIntel,30.67484663,5fb69cacddba6408f81a9564,687ed1b7e638a4cbf2f02089,689b929f4d50b728aa24fb9d,,,,,,,,,,,,,27,1,,./stim/wavs/castilian_mismatch_interrogative-total-yn_Mi-madre-come-la-fruta.wav,,,,,,,,,,,,,,,,,,,,,,893.5216,895.7548,1,1,1.6672,,0,61,61,26,1,0,castilian,,,,,,,,,,,,,,,,,,,,,,,,,,,,,,,,,,,,,,,,,,,,,,,,,,,,,,,,
,,,,,,,,,5fb69cacddba6408f81a9564,Spanish,13 or older,"no, only English or Spanish",no,2025-08-12_15h15.22.163,empathy_intonation_perc,2024.2.4,MacIntel,30.67484663,5fb69cacddba6408f81a9564,687ed1b7e638a4cbf2f02089,689b929f4d50b728aa24fb9d,,,,,,,,,,,,,67,0,,./stim/wavs/puertorican_match_declarative-broad-focus_Manuela-vende-el-carro.wav,,,,,,,,,,,,,,,,,,,,,,895.7554,898.3545,0,1,2.0333,,0,62,62,66,1,0,puertorican,,,,,,,,,,,,,,,,,,,,,,,,,,,,,,,,,,,,,,,,,,,,,,,,,,,,,,,,
,,,,,,,,,5fb69cacddba6408f81a9564,Spanish,13 or older,"no, only English or Spanish",no,2025-08-12_15h15.22.163,empathy_intonation_perc,2024.2.4,MacIntel,30.67484663,5fb69cacddba6408f81a9564,687ed1b7e638a4cbf2f02089,689b929f4d50b728aa24fb9d,,,,,,,,,,,,,71,0,,./stim/wavs/castilian_mismatch_declarative-broad-focus_La-nina-lava-el-plato.wav,,,,,,,,,,,,,,,,,,,,,,898.355,901.0203,0,1,2.1143,,0,63,63,70,1,0,castilian,,,,,,,,,,,,,,,,,,,,,,,,,,,,,,,,,,,,,,,,,,,,,,,,,,,,,,,,
,,,,,,,,,5fb69cacddba6408f81a9564,Spanish,13 or older,"no, only English or Spanish",no,2025-08-12_15h15.22.163,empathy_intonation_perc,2024.2.4,MacIntel,30.67484663,5fb69cacddba6408f81a9564,687ed1b7e638a4cbf2f02089,689b929f4d50b728aa24fb9d,,,,,,,,,,,,,23,1,,./stim/wavs/puertorican_match_interrogative-total-yn_Manuela-vende-el-carro.wav,,,,,,,,,,,,,,,,,,,,,,901.0209,904.3211,0,0,2.7667,,0,64,64,22,1,1,puertorican,,,,,,,,,,,,,,,,,,,,,,,,,,,,,,,,,,,,,,,,,,,,,,,,,,,,,,,,
,,,,,,,,,5fb69cacddba6408f81a9564,Spanish,13 or older,"no, only English or Spanish",no,2025-08-12_15h15.22.163,empathy_intonation_perc,2024.2.4,MacIntel,30.67484663,5fb69cacddba6408f81a9564,687ed1b7e638a4cbf2f02089,689b929f4d50b728aa24fb9d,,,,,,,,,,,,,1,1,,./stim/wavs/castilian_match_interrogative-total-yn_David-leia-el-libro.wav,,,,,,,,,,,,,,,,,,,,,,904.3218,906.7545,1,1,1.88,,0,65,65,0,1,0,castilian,,,,,,,,,,,,,,,,,,,,,,,,,,,,,,,,,,,,,,,,,,,,,,,,,,,,,,,,
,,,,,,,,,5fb69cacddba6408f81a9564,Spanish,13 or older,"no, only English or Spanish",no,2025-08-12_15h15.22.163,empathy_intonation_perc,2024.2.4,MacIntel,30.67484663,5fb69cacddba6408f81a9564,687ed1b7e638a4cbf2f02089,689b929f4d50b728aa24fb9d,,,,,,,,,,,,,40,1,,./stim/wavs/puertorican_mismatch_interrogative-total-yn_El-hombre-mira-la-luna.wav,,,,,,,,,,,,,,,,,,,,,,906.7551,909.221,1,1,1.9085,,0,66,66,39,1,1,puertorican,,,,,,,,,,,,,,,,,,,,,,,,,,,,,,,,,,,,,,,,,,,,,,,,,,,,,,,,
,,,,,,,,,5fb69cacddba6408f81a9564,Spanish,13 or older,"no, only English or Spanish",no,2025-08-12_15h15.22.163,empathy_intonation_perc,2024.2.4,MacIntel,30.67484663,5fb69cacddba6408f81a9564,687ed1b7e638a4cbf2f02089,689b929f4d50b728aa24fb9d,,,,,,,,,,,,,32,1,,./stim/wavs/cuban_mismatch_interrogative-total-yn_Mi-madre-come-la-fruta.wav,,,,,,,,,,,,,,,,,,,,,,909.2215,911.7545,1,1,1.9688,,0,67,67,31,1,1,cuban,,,,,,,,,,,,,,,,,,,,,,,,,,,,,,,,,,,,,,,,,,,,,,,,,,,,,,,,
,,,,,,,,,5fb69cacddba6408f81a9564,Spanish,13 or older,"no, only English or Spanish",no,2025-08-12_15h15.22.163,empathy_intonation_perc,2024.2.4,MacIntel,30.67484663,5fb69cacddba6408f81a9564,687ed1b7e638a4cbf2f02089,689b929f4d50b728aa24fb9d,,,,,,,,,,,,,77,0,,./stim/wavs/cuban_mismatch_declarative-broad-focus_Mi-novio-viene-del-lago.wav,,,,,,,,,,,,,,,,,,,,,,911.7551,914.721,0,1,2.4241,,0,68,68,76,1,0,cuban,,,,,,,,,,,,,,,,,,,,,,,,,,,,,,,,,,,,,,,,,,,,,,,,,,,,,,,,
,,,,,,,,,5fb69cacddba6408f81a9564,Spanish,13 or older,"no, only English or Spanish",no,2025-08-12_15h15.22.163,empathy_intonation_perc,2024.2.4,MacIntel,30.67484663,5fb69cacddba6408f81a9564,687ed1b7e638a4cbf2f02089,689b929f4d50b728aa24fb9d,,,,,,,,,,,,,86,0,,./stim/wavs/puertorican_mismatch_declarative-broad-focus_El-nino-oye-el-rio.wav,,,,,,,,,,,,,,,,,,,,,,914.7216,916.6878,1,0,1.4007,,0,69,69,85,1,0,puertorican,,,,,,,,,,,,,,,,,,,,,,,,,,,,,,,,,,,,,,,,,,,,,,,,,,,,,,,,
,,,,,,,,,5fb69cacddba6408f81a9564,Spanish,13 or older,"no, only English or Spanish",no,2025-08-12_15h15.22.163,empathy_intonation_perc,2024.2.4,MacIntel,30.67484663,5fb69cacddba6408f81a9564,687ed1b7e638a4cbf2f02089,689b929f4d50b728aa24fb9d,,,,,,,,,,,,,35,1,,./stim/wavs/mexican_mismatch_interrogative-total-yn_El-hombre-mira-la-luna.wav,,,,,,,,,,,,,,,,,,,,,,916.6884,918.8544,1,1,1.6121,,0,70,70,34,1,0,mexican,,,,,,,,,,,,,,,,,,,,,,,,,,,,,,,,,,,,,,,,,,,,,,,,,,,,,,,,
,,,,,,,,,5fb69cacddba6408f81a9564,Spanish,13 or older,"no, only English or Spanish",no,2025-08-12_15h15.22.163,empathy_intonation_perc,2024.2.4,MacIntel,30.67484663,5fb69cacddba6408f81a9564,687ed1b7e638a4cbf2f02089,689b929f4d50b728aa24fb9d,,,,,,,,,,,,,55,0,,./stim/wavs/cuban_match_declarative-broad-focus_Mariano-habla-del-tiempo.wav,,,,,,,,,,,,,,,,,,,,,,918.855,921.3544,1,0,1.9558,,0,71,71,54,1,0,cuban,,,,,,,,,,,,,,,,,,,,,,,,,,,,,,,,,,,,,,,,,,,,,,,,,,,,,,,,
,,,,,,,,,5fb69cacddba6408f81a9564,Spanish,13 or older,"no, only English or Spanish",no,2025-08-12_15h15.22.163,empathy_intonation_perc,2024.2.4,MacIntel,30.67484663,5fb69cacddba6408f81a9564,687ed1b7e638a4cbf2f02089,689b929f4d50b728aa24fb9d,,,,,,,,,,,,,72,0,,./stim/wavs/castilian_mismatch_declarative-broad-focus_Mi-novio-viene-del-lago.wav,,,,,,,,,,,,,,,,,,,,,,921.3552,925.021,0,1,3.1248,,0,72,72,71,1,0,castilian,,,,,,,,,,,,,,,,,,,,,,,,,,,,,,,,,,,,,,,,,,,,,,,,,,,,,,,,
,,,,,,,,,5fb69cacddba6408f81a9564,Spanish,13 or older,"no, only English or Spanish",no,2025-08-12_15h15.22.163,empathy_intonation_perc,2024.2.4,MacIntel,30.67484663,5fb69cacddba6408f81a9564,687ed1b7e638a4cbf2f02089,689b929f4d50b728aa24fb9d,,,,,,,,,,,,,61,0,,./stim/wavs/mexican_match_declarative-broad-focus_Mariano-habla-del-tiempo.wav,,,,,,,,,,,,,,,,,,,,,,925.0215,927.0878,1,0,1.5336,,0,73,73,60,1,0,mexican,,,,,,,,,,,,,,,,,,,,,,,,,,,,,,,,,,,,,,,,,,,,,,,,,,,,,,,,
,,,,,,,,,5fb69cacddba6408f81a9564,Spanish,13 or older,"no, only English or Spanish",no,2025-08-12_15h15.22.163,empathy_intonation_perc,2024.2.4,MacIntel,30.67484663,5fb69cacddba6408f81a9564,687ed1b7e638a4cbf2f02089,689b929f4d50b728aa24fb9d,,,,,,,,,,,,,76,0,,./stim/wavs/cuban_mismatch_declarative-broad-focus_La-nina-lava-el-plato.wav,,,,,,,,,,,,,,,,,,,,,,927.0884,929.3877,1,0,1.7337,,0,74,74,75,1,0,cuban,,,,,,,,,,,,,,,,,,,,,,,,,,,,,,,,,,,,,,,,,,,,,,,,,,,,,,,,
,,,,,,,,,5fb69cacddba6408f81a9564,Spanish,13 or older,"no, only English or Spanish",no,2025-08-12_15h15.22.163,empathy_intonation_perc,2024.2.4,MacIntel,30.67484663,5fb69cacddba6408f81a9564,687ed1b7e638a4cbf2f02089,689b929f4d50b728aa24fb9d,,,,,,,,,,,,,50,0,,./stim/wavs/castilian_match_declarative-broad-focus_Marta-abre-el-regalo.wav,,,,,,,,,,,,,,,,,,,,,,929.3882,931.9544,0,1,2.0026,,0,75,75,49,1,0,castilian,,,,,,,,,,,,,,,,,,,,,,,,,,,,,,,,,,,,,,,,,,,,,,,,,,,,,,,,
,,,,,,,,,5fb69cacddba6408f81a9564,Spanish,13 or older,"no, only English or Spanish",no,2025-08-12_15h15.22.163,empathy_intonation_perc,2024.2.4,MacIntel,30.67484663,5fb69cacddba6408f81a9564,687ed1b7e638a4cbf2f02089,689b929f4d50b728aa24fb9d,,,,,,,,,,,,,85,0,,./stim/wavs/puertorican_mismatch_declarative-broad-focus_El-hombre-mira-la-luna.wav,,,,,,,,,,,,,,,,,,,,,,931.9551,934.5544,0,1,2.0432,,0,76,76,84,1,0,puertorican,,,,,,,,,,,,,,,,,,,,,,,,,,,,,,,,,,,,,,,,,,,,,,,,,,,,,,,,
,,,,,,,,,5fb69cacddba6408f81a9564,Spanish,13 or older,"no, only English or Spanish",no,2025-08-12_15h15.22.163,empathy_intonation_perc,2024.2.4,MacIntel,30.67484663,5fb69cacddba6408f81a9564,687ed1b7e638a4cbf2f02089,689b929f4d50b728aa24fb9d,,,,,,,,,,,,,20,1,,./stim/wavs/puertorican_match_interrogative-total-yn_Daniel-iba-a-Bolivia.wav,,,,,,,,,,,,,,,,,,,,,,934.555,936.8871,0,0,1.7937,,0,77,77,19,1,1,puertorican,,,,,,,,,,,,,,,,,,,,,,,,,,,,,,,,,,,,,,,,,,,,,,,,,,,,,,,,
,,,,,,,,,5fb69cacddba6408f81a9564,Spanish,13 or older,"no, only English or Spanish",no,2025-08-12_15h15.22.163,empathy_intonation_perc,2024.2.4,MacIntel,30.67484663,5fb69cacddba6408f81a9564,687ed1b7e638a4cbf2f02089,689b929f4d50b728aa24fb9d,,,,,,,,,,,,,74,0,,./stim/wavs/cuban_mismatch_declarative-broad-focus_El-bebe-comia-muy-bien.wav,,,,,,,,,,,,,,,,,,,,,,936.8877,940.321,0,1,2.8901,,0,78,78,73,1,0,cuban,,,,,,,,,,,,,,,,,,,,,,,,,,,,,,,,,,,,,,,,,,,,,,,,,,,,,,,,
,,,,,,,,,5fb69cacddba6408f81a9564,Spanish,13 or older,"no, only English or Spanish",no,2025-08-12_15h15.22.163,empathy_intonation_perc,2024.2.4,MacIntel,30.67484663,5fb69cacddba6408f81a9564,687ed1b7e638a4cbf2f02089,689b929f4d50b728aa24fb9d,,,,,,,,,,,,,62,0,,./stim/wavs/mexican_match_declarative-broad-focus_Marta-abre-el-regalo.wav,,,,,,,,,,,,,,,,,,,,,,940.3215,942.1878,0,1,1.3104,,0,79,79,61,1,0,mexican,,,,,,,,,,,,,,,,,,,,,,,,,,,,,,,,,,,,,,,,,,,,,,,,,,,,,,,,
,,,,,,,,,5fb69cacddba6408f81a9564,Spanish,13 or older,"no, only English or Spanish",no,2025-08-12_15h15.22.163,empathy_intonation_perc,2024.2.4,MacIntel,30.67484663,5fb69cacddba6408f81a9564,687ed1b7e638a4cbf2f02089,689b929f4d50b728aa24fb9d,,,,,,,,,,,,,6,1,,./stim/wavs/castilian_match_interrogative-total-yn_Marta-abre-el-regalo.wav,,,,,,,,,,,,,,,,,,,,,,942.1884,944.321,0,0,1.5768,,0,80,80,5,1,0,castilian,,,,,,,,,,,,,,,,,,,,,,,,,,,,,,,,,,,,,,,,,,,,,,,,,,,,,,,,
,,,,,,,,,5fb69cacddba6408f81a9564,Spanish,13 or older,"no, only English or Spanish",no,2025-08-12_15h15.22.163,empathy_intonation_perc,2024.2.4,MacIntel,30.67484663,5fb69cacddba6408f81a9564,687ed1b7e638a4cbf2f02089,689b929f4d50b728aa24fb9d,,,,,,,,,,,,,5,1,,./stim/wavs/castilian_match_interrogative-total-yn_Mariano-habla-del-tiempo.wav,,,,,,,,,,,,,,,,,,,,,,944.3217,946.9544,1,1,2.078,,0,81,81,4,1,0,castilian,,,,,,,,,,,,,,,,,,,,,,,,,,,,,,,,,,,,,,,,,,,,,,,,,,,,,,,,
,,,,,,,,,5fb69cacddba6408f81a9564,Spanish,13 or older,"no, only English or Spanish",no,2025-08-12_15h15.22.163,empathy_intonation_perc,2024.2.4,MacIntel,30.67484663,5fb69cacddba6408f81a9564,687ed1b7e638a4cbf2f02089,689b929f4d50b728aa24fb9d,,,,,,,,,,,,,26,1,,./stim/wavs/castilian_mismatch_interrogative-total-yn_La-nina-lava-el-plato.wav,,,,,,,,,,,,,,,,,,,,,,946.955,949.0868,1,1,1.5696,,0,82,82,25,1,0,castilian,,,,,,,,,,,,,,,,,,,,,,,,,,,,,,,,,,,,,,,,,,,,,,,,,,,,,,,,
,,,,,,,,,5fb69cacddba6408f81a9564,Spanish,13 or older,"no, only English or Spanish",no,2025-08-12_15h15.22.163,empathy_intonation_perc,2024.2.4,MacIntel,30.67484663,5fb69cacddba6408f81a9564,687ed1b7e638a4cbf2f02089,689b929f4d50b728aa24fb9d,,,,,,,,,,,,,15,1,,./stim/wavs/mexican_match_interrogative-total-yn_David-leia-el-libro.wav,,,,,,,,,,,,,,,,,,,,,,949.0874,951.9877,1,1,2.3899,,0,83,83,14,1,0,mexican,,,,,,,,,,,,,,,,,,,,,,,,,,,,,,,,,,,,,,,,,,,,,,,,,,,,,,,,
,,,,,,,,,5fb69cacddba6408f81a9564,Spanish,13 or older,"no, only English or Spanish",no,2025-08-12_15h15.22.163,empathy_intonation_perc,2024.2.4,MacIntel,30.67484663,5fb69cacddba6408f81a9564,687ed1b7e638a4cbf2f02089,689b929f4d50b728aa24fb9d,,,,,,,,,,,,,47,0,,./stim/wavs/castilian_match_declarative-broad-focus_Manuela-vende-el-carro.wav,,,,,,,,,,,,,,,,,,,,,,951.9882,954.4534,0,1,1.9191,,0,84,84,46,1,0,castilian,,,,,,,,,,,,,,,,,,,,,,,,,,,,,,,,,,,,,,,,,,,,,,,,,,,,,,,,
,,,,,,,,,5fb69cacddba6408f81a9564,Spanish,13 or older,"no, only English or Spanish",no,2025-08-12_15h15.22.163,empathy_intonation_perc,2024.2.4,MacIntel,30.67484663,5fb69cacddba6408f81a9564,687ed1b7e638a4cbf2f02089,689b929f4d50b728aa24fb9d,,,,,,,,,,,,,38,1,,./stim/wavs/mexican_mismatch_interrogative-total-yn_Mi-novio-viene-del-lago.wav,,,,,,,,,,,,,,,,,,,,,,954.454,957.1544,1,1,2.179,,0,85,85,37,1,0,mexican,,,,,,,,,,,,,,,,,,,,,,,,,,,,,,,,,,,,,,,,,,,,,,,,,,,,,,,,
,,,,,,,,,5fb69cacddba6408f81a9564,Spanish,13 or older,"no, only English or Spanish",no,2025-08-12_15h15.22.163,empathy_intonation_perc,2024.2.4,MacIntel,30.67484663,5fb69cacddba6408f81a9564,687ed1b7e638a4cbf2f02089,689b929f4d50b728aa24fb9d,,,,,,,,,,,,,51,0,,./stim/wavs/cuban_match_declarative-broad-focus_Ana-lleva-el-abrigo.wav,,,,,,,,,,,,,,,,,,,,,,957.155,959.6877,0,1,1.9779,,0,86,86,50,1,0,cuban,,,,,,,,,,,,,,,,,,,,,,,,,,,,,,,,,,,,,,,,,,,,,,,,,,,,,,,,
,,,,,,,,,5fb69cacddba6408f81a9564,Spanish,13 or older,"no, only English or Spanish",no,2025-08-12_15h15.22.163,empathy_intonation_perc,2024.2.4,MacIntel,30.67484663,5fb69cacddba6408f81a9564,687ed1b7e638a4cbf2f02089,689b929f4d50b728aa24fb9d,,,,,,,,,,,,,39,1,,./stim/wavs/mexican_mismatch_interrogative-total-yn_Mi-tia-odia-la-lluvia.wav,,,,,,,,,,,,,,,,,,,,,,959.6883,961.7211,1,1,1.4698,,0,87,87,38,1,0,mexican,,,,,,,,,,,,,,,,,,,,,,,,,,,,,,,,,,,,,,,,,,,,,,,,,,,,,,,,
,,,,,,,"Great! Now we will move on. The next task consists of about 60 trials, in each of which you will see a string of letters. 
  
  Your task is to decide whether this is a real Spanish word or not.", (press the spacebar to continue),5fb69cacddba6408f81a9564,Spanish,13 or older,"no, only English or Spanish",no,2025-08-12_15h15.22.163,empathy_intonation_perc,2024.2.4,MacIntel,30.67484663,5fb69cacddba6408f81a9564,687ed1b7e638a4cbf2f02089,689b929f4d50b728aa24fb9d,,,,,,,,,,,,,,,,,,,,,,,,,,,,,,,,,,,,,,,,,,,,,,,,,,,961.7281,967.5879,0,0,0,0,1,,,,,,,,,,,,,,,,,,,,,,,,,,,,,,,,,,,,,,,,,,,,,,,,,
,,,,,,,"If you think it is an existing Spanish word, you type '1' (for 'REAL'), and if you think it is not an existing Spanish word, you type '0' (for 'FAKE').", (press the spacebar to continue),5fb69cacddba6408f81a9564,Spanish,13 or older,"no, only English or Spanish",no,2025-08-12_15h15.22.163,empathy_intonation_perc,2024.2.4,MacIntel,30.67484663,5fb69cacddba6408f81a9564,687ed1b7e638a4cbf2f02089,689b929f4d50b728aa24fb9d,,,,,,,,,,,,,,,,,,,,,,,,,,,,,,,,,,,,,,,,,,,,,,,,,,,967.5896,969.5545,0,1,1,1,1,,,,,,,,,,,,,,,,,,,,,,,,,,,,,,,,,,,,,,,,,,,,,,,,,
,,,,,,,"If you are sure that the word exists, even though you don’t know its exact meaning, you may still respond '1' (REAL). 
  
  But if you are not sure if it is an existing word, you should respond '0' (FAKE).
  
  Let's do a practice round...", (press the spacebar to continue),5fb69cacddba6408f81a9564,Spanish,13 or older,"no, only English or Spanish",no,2025-08-12_15h15.22.163,empathy_intonation_perc,2024.2.4,MacIntel,30.67484663,5fb69cacddba6408f81a9564,687ed1b7e638a4cbf2f02089,689b929f4d50b728aa24fb9d,,,,,,,,,,,,,,,,,,,,,,,,,,,,,,,,,,,,,,,,,,,,,,,,,,,969.5566,971.2535,0,2,2,2,1,,,,,,,,,,,,,,,,,,,,,,,,,,,,,,,,,,,,,,,,,,,,,,,,,
,,,,,,,,,5fb69cacddba6408f81a9564,Spanish,13 or older,"no, only English or Spanish",no,2025-08-12_15h15.22.163,empathy_intonation_perc,2024.2.4,MacIntel,30.67484663,5fb69cacddba6408f81a9564,687ed1b7e638a4cbf2f02089,689b929f4d50b728aa24fb9d,,,,,,,,,,,,,,0,,,,,,,,,,,,,,,,,,,,,,,,,,,,,,,,,,,,,,,,,,,,971.2604,974.4211,0,1,2.6002,,974.4215,975.4213,0,0,0,0,1,0,depiste,REAL,FAKE,,,,,,,,,,,,,,,,,,,,,,,,,,,,,,,,
,,,,,,,,,5fb69cacddba6408f81a9564,Spanish,13 or older,"no, only English or Spanish",no,2025-08-12_15h15.22.163,empathy_intonation_perc,2024.2.4,MacIntel,30.67484663,5fb69cacddba6408f81a9564,687ed1b7e638a4cbf2f02089,689b929f4d50b728aa24fb9d,,,,,,,,,,,,,,1,,,,,,,,,,,,,,,,,,,,,,,,,,,,,,,,,,,,,,,,,,,,975.4227,977.0543,1,1,1.0764,,977.0544,978.0544,0,1,1,1,1,0,sí,REAL,FAKE,,,,,,,,,,,,,,,,,,,,,,,,,,,,,,,,
,,,,,,,,,5fb69cacddba6408f81a9564,Spanish,13 or older,"no, only English or Spanish",no,2025-08-12_15h15.22.163,empathy_intonation_perc,2024.2.4,MacIntel,30.67484663,5fb69cacddba6408f81a9564,687ed1b7e638a4cbf2f02089,689b929f4d50b728aa24fb9d,,,,,,,,,,,,,,0,,,,,,,,,,,,,,,,,,,,,,,,,,,,,,,,,,,,,,,,,,,,978.0556,979.7877,1,0,1.1763,,979.7886,980.7868,0,2,2,2,1,0,coné,REAL,FAKE,,,,,,,,,,,,,,,,,,,,,,,,,,,,,,,,
,,,,,,,,,5fb69cacddba6408f81a9564,Spanish,13 or older,"no, only English or Spanish",no,2025-08-12_15h15.22.163,empathy_intonation_perc,2024.2.4,MacIntel,30.67484663,5fb69cacddba6408f81a9564,687ed1b7e638a4cbf2f02089,689b929f4d50b728aa24fb9d,,,,,,,,,,,,,,0,,,,,,,,,,,,,,,,,,,,,,,,,,,,,,,,,,,,,,,,,,,,980.7881,982.8544,0,1,1.5266,,982.8552,983.8544,0,3,3,3,1,0,calpar,REAL,FAKE,,,,,,,,,,,,,,,,,,,,,,,,,,,,,,,,
,,,,,,,,,5fb69cacddba6408f81a9564,Spanish,13 or older,"no, only English or Spanish",no,2025-08-12_15h15.22.163,empathy_intonation_perc,2024.2.4,MacIntel,30.67484663,5fb69cacddba6408f81a9564,687ed1b7e638a4cbf2f02089,689b929f4d50b728aa24fb9d,,,,,,,,,,,,,,0,,,,,,,,,,,,,,,,,,,,,,,,,,,,,,,,,,,,,,,,,,,,983.8557,985.5534,0,1,1.1327,,985.5536,986.5544,0,4,4,4,1,0,joten,REAL,FAKE,,,,,,,,,,,,,,,,,,,,,,,,,,,,,,,,
,,,,,,,,,5fb69cacddba6408f81a9564,Spanish,13 or older,"no, only English or Spanish",no,2025-08-12_15h15.22.163,empathy_intonation_perc,2024.2.4,MacIntel,30.67484663,5fb69cacddba6408f81a9564,687ed1b7e638a4cbf2f02089,689b929f4d50b728aa24fb9d,,,,,,,,,,,,,,1,,,,,,,,,,,,,,,,,,,,,,,,,,,,,,,,,,,,,,,,,,,,986.5555,988.3535,1,1,1.2401,,988.3536,989.3544,0,5,5,5,1,0,sacapuntas,REAL,FAKE,,,,,,,,,,,,,,,,,,,,,,,,,,,,,,,,
,,,,,,,,,5fb69cacddba6408f81a9564,Spanish,13 or older,"no, only English or Spanish",no,2025-08-12_15h15.22.163,empathy_intonation_perc,2024.2.4,MacIntel,30.67484663,5fb69cacddba6408f81a9564,687ed1b7e638a4cbf2f02089,689b929f4d50b728aa24fb9d,,,,,,,,,,,,,,0,,,,,,,,,,,,,,,,,,,,,,,,,,,,,,,,,,,,,,,,,,,,989.3556,990.9535,0,1,1.0367,,990.9535,991.9535,0,6,6,6,1,0,priba,REAL,FAKE,,,,,,,,,,,,,,,,,,,,,,,,,,,,,,,,
,,,,,,,,,5fb69cacddba6408f81a9564,Spanish,13 or older,"no, only English or Spanish",no,2025-08-12_15h15.22.163,empathy_intonation_perc,2024.2.4,MacIntel,30.67484663,5fb69cacddba6408f81a9564,687ed1b7e638a4cbf2f02089,689b929f4d50b728aa24fb9d,,,,,,,,,,,,,,0,,,,,,,,,,,,,,,,,,,,,,,,,,,,,,,,,,,,,,,,,,,,991.9547,993.921,1,0,1.4444,,993.9219,994.9211,0,7,7,7,1,0,pelasula,REAL,FAKE,,,,,,,,,,,,,,,,,,,,,,,,,,,,,,,,
,,,,,,,,,5fb69cacddba6408f81a9564,Spanish,13 or older,"no, only English or Spanish",no,2025-08-12_15h15.22.163,empathy_intonation_perc,2024.2.4,MacIntel,30.67484663,5fb69cacddba6408f81a9564,687ed1b7e638a4cbf2f02089,689b929f4d50b728aa24fb9d,,,,,,,,,,,,,,1,,,,,,,,,,,,,,,,,,,,,,,,,,,,,,,,,,,,,,,,,,,,994.9222,996.5546,1,1,1.0601,,996.5553,997.5544,0,8,8,8,1,0,bien,REAL,FAKE,,,,,,,,,,,,,,,,,,,,,,,,,,,,,,,,
,,,,,,,,,5fb69cacddba6408f81a9564,Spanish,13 or older,"no, only English or Spanish",no,2025-08-12_15h15.22.163,empathy_intonation_perc,2024.2.4,MacIntel,30.67484663,5fb69cacddba6408f81a9564,687ed1b7e638a4cbf2f02089,689b929f4d50b728aa24fb9d,,,,,,,,,,,,,,1,,,,,,,,,,,,,,,,,,,,,,,,,,,,,,,,,,,,,,,,,,,,997.5555,998.9211,1,1,0.8062,,998.9212,999.9211,0,9,9,9,1,0,casa,REAL,FAKE,,,,,,,,,,,,,,,,,,,,,,,,,,,,,,,,
,,,,,,,,,5fb69cacddba6408f81a9564,Spanish,13 or older,"no, only English or Spanish",no,2025-08-12_15h15.22.163,empathy_intonation_perc,2024.2.4,MacIntel,30.67484663,5fb69cacddba6408f81a9564,687ed1b7e638a4cbf2f02089,689b929f4d50b728aa24fb9d,,,,,,,,,,,,,,0,,,,,,,,,,,,,,,,,,,,,,,,,,,,,,,,,,,,,,,,,,,,999.9223,1001.421,1,0,0.9496,,1001.4219,1002.4201,0,10,10,10,1,0,lejo,REAL,FAKE,,,,,,,,,,,,,,,,,,,,,,,,,,,,,,,,
,,,,,,,,,5fb69cacddba6408f81a9564,Spanish,13 or older,"no, only English or Spanish",no,2025-08-12_15h15.22.163,empathy_intonation_perc,2024.2.4,MacIntel,30.67484663,5fb69cacddba6408f81a9564,687ed1b7e638a4cbf2f02089,689b929f4d50b728aa24fb9d,,,,,,,,,,,,,,0,,,,,,,,,,,,,,,,,,,,,,,,,,,,,,,,,,,,,,,,,,,,1002.4212,1004.3211,0,1,1.3618,,1004.3218,1005.3211,0,11,11,11,1,0,pretantas,REAL,FAKE,,,,,,,,,,,,,,,,,,,,,,,,,,,,,,,,
,,,,,,,,,5fb69cacddba6408f81a9564,Spanish,13 or older,"no, only English or Spanish",no,2025-08-12_15h15.22.163,empathy_intonation_perc,2024.2.4,MacIntel,30.67484663,5fb69cacddba6408f81a9564,687ed1b7e638a4cbf2f02089,689b929f4d50b728aa24fb9d,,,,,,,,,,,,,,,,,,,,,,,,,,,,,,,,,,,,,,,,,,,,,,,,,,,,,,,,,,,,,,,,,,,,,,,,,,,1005.3215,1006.8204,,,,,,,,,,,,,,,,,,,,,,,,,,,,,,
,,,,,,,,,5fb69cacddba6408f81a9564,Spanish,13 or older,"no, only English or Spanish",no,2025-08-12_15h15.22.163,empathy_intonation_perc,2024.2.4,MacIntel,30.67484663,5fb69cacddba6408f81a9564,687ed1b7e638a4cbf2f02089,689b929f4d50b728aa24fb9d,,,,,,,,,,,,,,0,,,,,,,,,,,,,,,,,,,,,,,,,,,,,,,,,,,,,,,,,,,,,,,,,,,,,,,,,4,batillón,,,,,1006.8296,1009.2213,1,0,1.8399,,0,0,0,3,1,REAL,FAKE,,,,,,,,,,,,,,,,,
,,,,,,,,,5fb69cacddba6408f81a9564,Spanish,13 or older,"no, only English or Spanish",no,2025-08-12_15h15.22.163,empathy_intonation_perc,2024.2.4,MacIntel,30.67484663,5fb69cacddba6408f81a9564,687ed1b7e638a4cbf2f02089,689b929f4d50b728aa24fb9d,,,,,,,,,,,,,,0,,,,,,,,,,,,,,,,,,,,,,,,,,,,,,,,,,,,,,,,,,,,,,,,,,,,,,,,,42,cadallo,,,,,1009.2226,1010.9544,1,0,1.1568,,0,1,1,41,1,REAL,FAKE,,,,,,,,,,,,,,,,,
,,,,,,,,,5fb69cacddba6408f81a9564,Spanish,13 or older,"no, only English or Spanish",no,2025-08-12_15h15.22.163,empathy_intonation_perc,2024.2.4,MacIntel,30.67484663,5fb69cacddba6408f81a9564,687ed1b7e638a4cbf2f02089,689b929f4d50b728aa24fb9d,,,,,,,,,,,,,,1,,,,,,,,,,,,,,,,,,,,,,,,,,,,,,,,,,,,,,,,,,,,,,,,,,,,,,,,,31,pandilla,,,,,1010.9554,1012.6533,0,0,1.1521,,0,2,2,30,1,REAL,FAKE,,,,,,,,,,,,,,,,,
,,,,,,,,,5fb69cacddba6408f81a9564,Spanish,13 or older,"no, only English or Spanish",no,2025-08-12_15h15.22.163,empathy_intonation_perc,2024.2.4,MacIntel,30.67484663,5fb69cacddba6408f81a9564,687ed1b7e638a4cbf2f02089,689b929f4d50b728aa24fb9d,,,,,,,,,,,,,,0,,,,,,,,,,,,,,,,,,,,,,,,,,,,,,,,,,,,,,,,,,,,,,,,,,,,,,,,,16,abracer,,,,,1012.6543,1014.6534,1,0,1.4463,,0,3,3,15,1,REAL,FAKE,,,,,,,,,,,,,,,,,
,,,,,,,,,5fb69cacddba6408f81a9564,Spanish,13 or older,"no, only English or Spanish",no,2025-08-12_15h15.22.163,empathy_intonation_perc,2024.2.4,MacIntel,30.67484663,5fb69cacddba6408f81a9564,687ed1b7e638a4cbf2f02089,689b929f4d50b728aa24fb9d,,,,,,,,,,,,,,1,,,,,,,,,,,,,,,,,,,,,,,,,,,,,,,,,,,,,,,,,,,,,,,,,,,,,,,,,28,merodear,,,,,1014.6545,1016.2544,0,0,1.068,,0,4,4,27,1,REAL,FAKE,,,,,,,,,,,,,,,,,
,,,,,,,,,5fb69cacddba6408f81a9564,Spanish,13 or older,"no, only English or Spanish",no,2025-08-12_15h15.22.163,empathy_intonation_perc,2024.2.4,MacIntel,30.67484663,5fb69cacddba6408f81a9564,687ed1b7e638a4cbf2f02089,689b929f4d50b728aa24fb9d,,,,,,,,,,,,,,1,,,,,,,,,,,,,,,,,,,,,,,,,,,,,,,,,,,,,,,,,,,,,,,,,,,,,,,,,2,pellizcar,,,,,1016.2555,1018.3544,0,0,1.5334,,0,5,5,1,1,REAL,FAKE,,,,,,,,,,,,,,,,,
,,,,,,,,,5fb69cacddba6408f81a9564,Spanish,13 or older,"no, only English or Spanish",no,2025-08-12_15h15.22.163,empathy_intonation_perc,2024.2.4,MacIntel,30.67484663,5fb69cacddba6408f81a9564,687ed1b7e638a4cbf2f02089,689b929f4d50b728aa24fb9d,,,,,,,,,,,,,,1,,,,,,,,,,,,,,,,,,,,,,,,,,,,,,,,,,,,,,,,,,,,,,,,,,,,,,,,,5,zapato,,,,,1018.3555,1020.1202,1,1,1.2055,,0,6,6,4,1,REAL,FAKE,,,,,,,,,,,,,,,,,
,,,,,,,,,5fb69cacddba6408f81a9564,Spanish,13 or older,"no, only English or Spanish",no,2025-08-12_15h15.22.163,empathy_intonation_perc,2024.2.4,MacIntel,30.67484663,5fb69cacddba6408f81a9564,687ed1b7e638a4cbf2f02089,689b929f4d50b728aa24fb9d,,,,,,,,,,,,,,1,,,,,,,,,,,,,,,,,,,,,,,,,,,,,,,,,,,,,,,,,,,,,,,,,,,,,,,,,38,estornudar,,,,,1020.1214,1021.8535,0,0,1.2176,,0,7,7,37,1,REAL,FAKE,,,,,,,,,,,,,,,,,
,,,,,,,,,5fb69cacddba6408f81a9564,Spanish,13 or older,"no, only English or Spanish",no,2025-08-12_15h15.22.163,empathy_intonation_perc,2024.2.4,MacIntel,30.67484663,5fb69cacddba6408f81a9564,687ed1b7e638a4cbf2f02089,689b929f4d50b728aa24fb9d,,,,,,,,,,,,,,1,,,,,,,,,,,,,,,,,,,,,,,,,,,,,,,,,,,,,,,,,,,,,,,,,,,,,,,,,46,martillo,,,,,1021.8545,1023.8545,1,1,1.4869,,0,8,8,45,1,REAL,FAKE,,,,,,,,,,,,,,,,,
,,,,,,,,,5fb69cacddba6408f81a9564,Spanish,13 or older,"no, only English or Spanish",no,2025-08-12_15h15.22.163,empathy_intonation_perc,2024.2.4,MacIntel,30.67484663,5fb69cacddba6408f81a9564,687ed1b7e638a4cbf2f02089,689b929f4d50b728aa24fb9d,,,,,,,,,,,,,,0,,,,,,,,,,,,,,,,,,,,,,,,,,,,,,,,,,,,,,,,,,,,,,,,,,,,,,,,,33,pauca,,,,,1023.8553,1025.421,1,0,1.0047,,0,9,9,32,1,REAL,FAKE,,,,,,,,,,,,,,,,,
,,,,,,,,,5fb69cacddba6408f81a9564,Spanish,13 or older,"no, only English or Spanish",no,2025-08-12_15h15.22.163,empathy_intonation_perc,2024.2.4,MacIntel,30.67484663,5fb69cacddba6408f81a9564,687ed1b7e638a4cbf2f02089,689b929f4d50b728aa24fb9d,,,,,,,,,,,,,,0,,,,,,,,,,,,,,,,,,,,,,,,,,,,,,,,,,,,,,,,,,,,,,,,,,,,,,,,,74,cintro,,,,,1025.4221,1027.1868,1,0,1.1958,,0,10,10,73,1,REAL,FAKE,,,,,,,,,,,,,,,,,
,,,,,,,,,5fb69cacddba6408f81a9564,Spanish,13 or older,"no, only English or Spanish",no,2025-08-12_15h15.22.163,empathy_intonation_perc,2024.2.4,MacIntel,30.67484663,5fb69cacddba6408f81a9564,687ed1b7e638a4cbf2f02089,689b929f4d50b728aa24fb9d,,,,,,,,,,,,,,1,,,,,,,,,,,,,,,,,,,,,,,,,,,,,,,,,,,,,,,,,,,,,,,,,,,,,,,,,85,laúd,,,,,1027.1879,1028.5534,0,0,0.8455,,0,11,11,84,1,REAL,FAKE,,,,,,,,,,,,,,,,,
,,,,,,,,,5fb69cacddba6408f81a9564,Spanish,13 or older,"no, only English or Spanish",no,2025-08-12_15h15.22.163,empathy_intonation_perc,2024.2.4,MacIntel,30.67484663,5fb69cacddba6408f81a9564,687ed1b7e638a4cbf2f02089,689b929f4d50b728aa24fb9d,,,,,,,,,,,,,,1,,,,,,,,,,,,,,,,,,,,,,,,,,,,,,,,,,,,,,,,,,,,,,,,,,,,,,,,,71,polvoriento,,,,,1028.5546,1030.2877,0,0,1.1909,,0,12,12,70,1,REAL,FAKE,,,,,,,,,,,,,,,,,
,,,,,,,,,5fb69cacddba6408f81a9564,Spanish,13 or older,"no, only English or Spanish",no,2025-08-12_15h15.22.163,empathy_intonation_perc,2024.2.4,MacIntel,30.67484663,5fb69cacddba6408f81a9564,687ed1b7e638a4cbf2f02089,689b929f4d50b728aa24fb9d,,,,,,,,,,,,,,1,,,,,,,,,,,,,,,,,,,,,,,,,,,,,,,,,,,,,,,,,,,,,,,,,,,,,,,,,26,secuestro,,,,,1030.2888,1032.1877,1,1,1.3375,,0,13,13,25,1,REAL,FAKE,,,,,,,,,,,,,,,,,
,,,,,,,,,5fb69cacddba6408f81a9564,Spanish,13 or older,"no, only English or Spanish",no,2025-08-12_15h15.22.163,empathy_intonation_perc,2024.2.4,MacIntel,30.67484663,5fb69cacddba6408f81a9564,687ed1b7e638a4cbf2f02089,689b929f4d50b728aa24fb9d,,,,,,,,,,,,,,1,,,,,,,,,,,,,,,,,,,,,,,,,,,,,,,,,,,,,,,,,,,,,,,,,,,,,,,,,67,cabello,,,,,1032.1888,1033.7535,1,1,0.9936,,0,14,14,66,1,REAL,FAKE,,,,,,,,,,,,,,,,,
,,,,,,,,,5fb69cacddba6408f81a9564,Spanish,13 or older,"no, only English or Spanish",no,2025-08-12_15h15.22.163,empathy_intonation_perc,2024.2.4,MacIntel,30.67484663,5fb69cacddba6408f81a9564,687ed1b7e638a4cbf2f02089,689b929f4d50b728aa24fb9d,,,,,,,,,,,,,,1,,,,,,,,,,,,,,,,,,,,,,,,,,,,,,,,,,,,,,,,,,,,,,,,,,,,,,,,,56,musgo,,,,,1033.7547,1035.4543,0,0,1.1732,,0,15,15,55,1,REAL,FAKE,,,,,,,,,,,,,,,,,
,,,,,,,,,5fb69cacddba6408f81a9564,Spanish,13 or older,"no, only English or Spanish",no,2025-08-12_15h15.22.163,empathy_intonation_perc,2024.2.4,MacIntel,30.67484663,5fb69cacddba6408f81a9564,687ed1b7e638a4cbf2f02089,689b929f4d50b728aa24fb9d,,,,,,,,,,,,,,1,,,,,,,,,,,,,,,,,,,,,,,,,,,,,,,,,,,,,,,,,,,,,,,,,,,,,,,,,22,lacayo,,,,,1035.4554,1037.0869,0,0,1.0605,,0,16,16,21,1,REAL,FAKE,,,,,,,,,,,,,,,,,
,,,,,,,,,5fb69cacddba6408f81a9564,Spanish,13 or older,"no, only English or Spanish",no,2025-08-12_15h15.22.163,empathy_intonation_perc,2024.2.4,MacIntel,30.67484663,5fb69cacddba6408f81a9564,687ed1b7e638a4cbf2f02089,689b929f4d50b728aa24fb9d,,,,,,,,,,,,,,0,,,,,,,,,,,,,,,,,,,,,,,,,,,,,,,,,,,,,,,,,,,,,,,,,,,,,,,,,50,flamida,,,,,1037.0881,1038.7543,0,1,1.1341,,0,17,17,49,1,REAL,FAKE,,,,,,,,,,,,,,,,,
,,,,,,,,,5fb69cacddba6408f81a9564,Spanish,13 or older,"no, only English or Spanish",no,2025-08-12_15h15.22.163,empathy_intonation_perc,2024.2.4,MacIntel,30.67484663,5fb69cacddba6408f81a9564,687ed1b7e638a4cbf2f02089,689b929f4d50b728aa24fb9d,,,,,,,,,,,,,,1,,,,,,,,,,,,,,,,,,,,,,,,,,,,,,,,,,,,,,,,,,,,,,,,,,,,,,,,,60,matar,,,,,1038.7554,1040.6544,1,1,1.327,,0,18,18,59,1,REAL,FAKE,,,,,,,,,,,,,,,,,
,,,,,,,,,5fb69cacddba6408f81a9564,Spanish,13 or older,"no, only English or Spanish",no,2025-08-12_15h15.22.163,empathy_intonation_perc,2024.2.4,MacIntel,30.67484663,5fb69cacddba6408f81a9564,687ed1b7e638a4cbf2f02089,689b929f4d50b728aa24fb9d,,,,,,,,,,,,,,0,,,,,,,,,,,,,,,,,,,,,,,,,,,,,,,,,,,,,,,,,,,,,,,,,,,,,,,,,63,esposante,,,,,1040.6556,1043.221,0,1,2.0158,,0,19,19,62,1,REAL,FAKE,,,,,,,,,,,,,,,,,
,,,,,,,,,5fb69cacddba6408f81a9564,Spanish,13 or older,"no, only English or Spanish",no,2025-08-12_15h15.22.163,empathy_intonation_perc,2024.2.4,MacIntel,30.67484663,5fb69cacddba6408f81a9564,687ed1b7e638a4cbf2f02089,689b929f4d50b728aa24fb9d,,,,,,,,,,,,,,1,,,,,,,,,,,,,,,,,,,,,,,,,,,,,,,,,,,,,,,,,,,,,,,,,,,,,,,,,73,hervidor,,,,,1043.2221,1044.6536,0,0,0.8607,,0,20,20,72,1,REAL,FAKE,,,,,,,,,,,,,,,,,
,,,,,,,,,5fb69cacddba6408f81a9564,Spanish,13 or older,"no, only English or Spanish",no,2025-08-12_15h15.22.163,empathy_intonation_perc,2024.2.4,MacIntel,30.67484663,5fb69cacddba6408f81a9564,687ed1b7e638a4cbf2f02089,689b929f4d50b728aa24fb9d,,,,,,,,,,,,,,1,,,,,,,,,,,,,,,,,,,,,,,,,,,,,,,,,,,,,,,,,,,,,,,,,,,,,,,,,51,candado,,,,,1044.6547,1046.3876,1,1,1.2115,,0,21,21,50,1,REAL,FAKE,,,,,,,,,,,,,,,,,
,,,,,,,,,5fb69cacddba6408f81a9564,Spanish,13 or older,"no, only English or Spanish",no,2025-08-12_15h15.22.163,empathy_intonation_perc,2024.2.4,MacIntel,30.67484663,5fb69cacddba6408f81a9564,687ed1b7e638a4cbf2f02089,689b929f4d50b728aa24fb9d,,,,,,,,,,,,,,0,,,,,,,,,,,,,,,,,,,,,,,,,,,,,,,,,,,,,,,,,,,,,,,,,,,,,,,,,72,pemición,,,,,1046.3885,1048.0867,0,1,1.1364,,0,22,22,71,1,REAL,FAKE,,,,,,,,,,,,,,,,,
,,,,,,,,,5fb69cacddba6408f81a9564,Spanish,13 or older,"no, only English or Spanish",no,2025-08-12_15h15.22.163,empathy_intonation_perc,2024.2.4,MacIntel,30.67484663,5fb69cacddba6408f81a9564,687ed1b7e638a4cbf2f02089,689b929f4d50b728aa24fb9d,,,,,,,,,,,,,,1,,,,,,,,,,,,,,,,,,,,,,,,,,,,,,,,,,,,,,,,,,,,,,,,,,,,,,,,,20,ávido,,,,,1048.0879,1049.4877,1,1,0.867,,0,23,23,19,1,REAL,FAKE,,,,,,,,,,,,,,,,,
,,,,,,,,,5fb69cacddba6408f81a9564,Spanish,13 or older,"no, only English or Spanish",no,2025-08-12_15h15.22.163,empathy_intonation_perc,2024.2.4,MacIntel,30.67484663,5fb69cacddba6408f81a9564,687ed1b7e638a4cbf2f02089,689b929f4d50b728aa24fb9d,,,,,,,,,,,,,,1,,,,,,,,,,,,,,,,,,,,,,,,,,,,,,,,,,,,,,,,,,,,,,,,,,,,,,,,,11,cenefa,,,,,1049.4887,1051.0534,0,0,1.0168,,0,24,24,10,1,REAL,FAKE,,,,,,,,,,,,,,,,,
,,,,,,,,,5fb69cacddba6408f81a9564,Spanish,13 or older,"no, only English or Spanish",no,2025-08-12_15h15.22.163,empathy_intonation_perc,2024.2.4,MacIntel,30.67484663,5fb69cacddba6408f81a9564,687ed1b7e638a4cbf2f02089,689b929f4d50b728aa24fb9d,,,,,,,,,,,,,,1,,,,,,,,,,,,,,,,,,,,,,,,,,,,,,,,,,,,,,,,,,,,,,,,,,,,,,,,,43,canela,,,,,1051.0545,1052.7211,1,1,1.1041,,0,25,25,42,1,REAL,FAKE,,,,,,,,,,,,,,,,,
,,,,,,,,,5fb69cacddba6408f81a9564,Spanish,13 or older,"no, only English or Spanish",no,2025-08-12_15h15.22.163,empathy_intonation_perc,2024.2.4,MacIntel,30.67484663,5fb69cacddba6408f81a9564,687ed1b7e638a4cbf2f02089,689b929f4d50b728aa24fb9d,,,,,,,,,,,,,,0,,,,,,,,,,,,,,,,,,,,,,,,,,,,,,,,,,,,,,,,,,,,,,,,,,,,,,,,,8,cadeña,,,,,1052.7221,1054.321,1,0,1.0236,,0,26,26,7,1,REAL,FAKE,,,,,,,,,,,,,,,,,
,,,,,,,,,5fb69cacddba6408f81a9564,Spanish,13 or older,"no, only English or Spanish",no,2025-08-12_15h15.22.163,empathy_intonation_perc,2024.2.4,MacIntel,30.67484663,5fb69cacddba6408f81a9564,687ed1b7e638a4cbf2f02089,689b929f4d50b728aa24fb9d,,,,,,,,,,,,,,1,,,,,,,,,,,,,,,,,,,,,,,,,,,,,,,,,,,,,,,,,,,,,,,,,,,,,,,,,75,yacer,,,,,1054.3219,1055.8544,1,1,0.9686,,0,27,27,74,1,REAL,FAKE,,,,,,,,,,,,,,,,,
,,,,,,,,,5fb69cacddba6408f81a9564,Spanish,13 or older,"no, only English or Spanish",no,2025-08-12_15h15.22.163,empathy_intonation_perc,2024.2.4,MacIntel,30.67484663,5fb69cacddba6408f81a9564,687ed1b7e638a4cbf2f02089,689b929f4d50b728aa24fb9d,,,,,,,,,,,,,,0,,,,,,,,,,,,,,,,,,,,,,,,,,,,,,,,,,,,,,,,,,,,,,,,,,,,,,,,,58,plaudir,,,,,1055.8555,1057.8867,0,1,1.4875,,0,28,28,57,1,REAL,FAKE,,,,,,,,,,,,,,,,,
,,,,,,,,,5fb69cacddba6408f81a9564,Spanish,13 or older,"no, only English or Spanish",no,2025-08-12_15h15.22.163,empathy_intonation_perc,2024.2.4,MacIntel,30.67484663,5fb69cacddba6408f81a9564,687ed1b7e638a4cbf2f02089,689b929f4d50b728aa24fb9d,,,,,,,,,,,,,,1,,,,,,,,,,,,,,,,,,,,,,,,,,,,,,,,,,,,,,,,,,,,,,,,,,,,,,,,,80,hormiga,,,,,1057.8879,1059.221,0,0,0.7731,,0,29,29,79,1,REAL,FAKE,,,,,,,,,,,,,,,,,
,,,,,,,,,5fb69cacddba6408f81a9564,Spanish,13 or older,"no, only English or Spanish",no,2025-08-12_15h15.22.163,empathy_intonation_perc,2024.2.4,MacIntel,30.67484663,5fb69cacddba6408f81a9564,687ed1b7e638a4cbf2f02089,689b929f4d50b728aa24fb9d,,,,,,,,,,,,,,1,,,,,,,,,,,,,,,,,,,,,,,,,,,,,,,,,,,,,,,,,,,,,,,,,,,,,,,,,45,jilguero,,,,,1059.2221,1060.9877,0,0,1.2061,,0,30,30,44,1,REAL,FAKE,,,,,,,,,,,,,,,,,
,,,,,,,,,5fb69cacddba6408f81a9564,Spanish,13 or older,"no, only English or Spanish",no,2025-08-12_15h15.22.163,empathy_intonation_perc,2024.2.4,MacIntel,30.67484663,5fb69cacddba6408f81a9564,687ed1b7e638a4cbf2f02089,689b929f4d50b728aa24fb9d,,,,,,,,,,,,,,1,,,,,,,,,,,,,,,,,,,,,,,,,,,,,,,,,,,,,,,,,,,,,,,,,,,,,,,,,25,bisagra,,,,,1060.9889,1062.4209,0,0,0.8839,,0,31,31,24,1,REAL,FAKE,,,,,,,,,,,,,,,,,
,,,,,,,,,5fb69cacddba6408f81a9564,Spanish,13 or older,"no, only English or Spanish",no,2025-08-12_15h15.22.163,empathy_intonation_perc,2024.2.4,MacIntel,30.67484663,5fb69cacddba6408f81a9564,687ed1b7e638a4cbf2f02089,689b929f4d50b728aa24fb9d,,,,,,,,,,,,,,1,,,,,,,,,,,,,,,,,,,,,,,,,,,,,,,,,,,,,,,,,,,,,,,,,,,,,,,,,69,engatusar,,,,,1062.4219,1063.7876,0,0,0.8111,,0,32,32,68,1,REAL,FAKE,,,,,,,,,,,,,,,,,
,,,,,,,,,5fb69cacddba6408f81a9564,Spanish,13 or older,"no, only English or Spanish",no,2025-08-12_15h15.22.163,empathy_intonation_perc,2024.2.4,MacIntel,30.67484663,5fb69cacddba6408f81a9564,687ed1b7e638a4cbf2f02089,689b929f4d50b728aa24fb9d,,,,,,,,,,,,,,0,,,,,,,,,,,,,,,,,,,,,,,,,,,,,,,,,,,,,,,,,,,,,,,,,,,,,,,,,19,brecedad,,,,,1063.7886,1065.1212,0,1,0.7897,,0,33,33,18,1,REAL,FAKE,,,,,,,,,,,,,,,,,
,,,,,,,,,5fb69cacddba6408f81a9564,Spanish,13 or older,"no, only English or Spanish",no,2025-08-12_15h15.22.163,empathy_intonation_perc,2024.2.4,MacIntel,30.67484663,5fb69cacddba6408f81a9564,687ed1b7e638a4cbf2f02089,689b929f4d50b728aa24fb9d,,,,,,,,,,,,,,0,,,,,,,,,,,,,,,,,,,,,,,,,,,,,,,,,,,,,,,,,,,,,,,,,,,,,,,,,10,antar,,,,,1065.1221,1066.6876,1,0,1.0176,,0,34,34,9,1,REAL,FAKE,,,,,,,,,,,,,,,,,
,,,,,,,,,5fb69cacddba6408f81a9564,Spanish,13 or older,"no, only English or Spanish",no,2025-08-12_15h15.22.163,empathy_intonation_perc,2024.2.4,MacIntel,30.67484663,5fb69cacddba6408f81a9564,687ed1b7e638a4cbf2f02089,689b929f4d50b728aa24fb9d,,,,,,,,,,,,,,1,,,,,,,,,,,,,,,,,,,,,,,,,,,,,,,,,,,,,,,,,,,,,,,,,,,,,,,,,12,asesinato,,,,,1066.6886,1068.421,0,0,1.1731,,0,35,35,11,1,REAL,FAKE,,,,,,,,,,,,,,,,,
,,,,,,,,,5fb69cacddba6408f81a9564,Spanish,13 or older,"no, only English or Spanish",no,2025-08-12_15h15.22.163,empathy_intonation_perc,2024.2.4,MacIntel,30.67484663,5fb69cacddba6408f81a9564,687ed1b7e638a4cbf2f02089,689b929f4d50b728aa24fb9d,,,,,,,,,,,,,,0,,,,,,,,,,,,,,,,,,,,,,,,,,,,,,,,,,,,,,,,,,,,,,,,,,,,,,,,,79,tropaje,,,,,1068.4222,1070.1543,0,1,1.1837,,0,36,36,78,1,REAL,FAKE,,,,,,,,,,,,,,,,,
,,,,,,,,,5fb69cacddba6408f81a9564,Spanish,13 or older,"no, only English or Spanish",no,2025-08-12_15h15.22.163,empathy_intonation_perc,2024.2.4,MacIntel,30.67484663,5fb69cacddba6408f81a9564,687ed1b7e638a4cbf2f02089,689b929f4d50b728aa24fb9d,,,,,,,,,,,,,,0,,,,,,,,,,,,,,,,,,,,,,,,,,,,,,,,,,,,,,,,,,,,,,,,,,,,,,,,,29,decar,,,,,1070.1555,1071.8202,1,0,1.0954,,0,37,37,28,1,REAL,FAKE,,,,,,,,,,,,,,,,,
,,,,,,,,,5fb69cacddba6408f81a9564,Spanish,13 or older,"no, only English or Spanish",no,2025-08-12_15h15.22.163,empathy_intonation_perc,2024.2.4,MacIntel,30.67484663,5fb69cacddba6408f81a9564,687ed1b7e638a4cbf2f02089,689b929f4d50b728aa24fb9d,,,,,,,,,,,,,,1,,,,,,,,,,,,,,,,,,,,,,,,,,,,,,,,,,,,,,,,,,,,,,,,,,,,,,,,,52,camisa,,,,,1071.8214,1073.3209,1,1,0.9845,,0,38,38,51,1,REAL,FAKE,,,,,,,,,,,,,,,,,
,,,,,,,,,5fb69cacddba6408f81a9564,Spanish,13 or older,"no, only English or Spanish",no,2025-08-12_15h15.22.163,empathy_intonation_perc,2024.2.4,MacIntel,30.67484663,5fb69cacddba6408f81a9564,687ed1b7e638a4cbf2f02089,689b929f4d50b728aa24fb9d,,,,,,,,,,,,,,1,,,,,,,,,,,,,,,,,,,,,,,,,,,,,,,,,,,,,,,,,,,,,,,,,,,,,,,,,7,pésimo,,,,,1073.3221,1075.0543,1,1,1.1873,,0,39,39,6,1,REAL,FAKE,,,,,,,,,,,,,,,,,
,,,,,,,,,5fb69cacddba6408f81a9564,Spanish,13 or older,"no, only English or Spanish",no,2025-08-12_15h15.22.163,empathy_intonation_perc,2024.2.4,MacIntel,30.67484663,5fb69cacddba6408f81a9564,687ed1b7e638a4cbf2f02089,689b929f4d50b728aa24fb9d,,,,,,,,,,,,,,1,,,,,,,,,,,,,,,,,,,,,,,,,,,,,,,,,,,,,,,,,,,,,,,,,,,,,,,,,68,alegre,,,,,1075.0554,1077.3867,0,0,1.776,,0,40,40,67,1,REAL,FAKE,,,,,,,,,,,,,,,,,
,,,,,,,,,5fb69cacddba6408f81a9564,Spanish,13 or older,"no, only English or Spanish",no,2025-08-12_15h15.22.163,empathy_intonation_perc,2024.2.4,MacIntel,30.67484663,5fb69cacddba6408f81a9564,687ed1b7e638a4cbf2f02089,689b929f4d50b728aa24fb9d,,,,,,,,,,,,,,1,,,,,,,,,,,,,,,,,,,,,,,,,,,,,,,,,,,,,,,,,,,,,,,,,,,,,,,,,55,nevar,,,,,1077.3878,1079.1543,0,0,1.2445,,0,41,41,54,1,REAL,FAKE,,,,,,,,,,,,,,,,,
,,,,,,,,,5fb69cacddba6408f81a9564,Spanish,13 or older,"no, only English or Spanish",no,2025-08-12_15h15.22.163,empathy_intonation_perc,2024.2.4,MacIntel,30.67484663,5fb69cacddba6408f81a9564,687ed1b7e638a4cbf2f02089,689b929f4d50b728aa24fb9d,,,,,,,,,,,,,,0,,,,,,,,,,,,,,,,,,,,,,,,,,,,,,,,,,,,,,,,,,,,,,,,,,,,,,,,,87,grodo,,,,,1079.1554,1080.5867,0,1,0.879,,0,42,42,86,1,REAL,FAKE,,,,,,,,,,,,,,,,,
,,,,,,,,,5fb69cacddba6408f81a9564,Spanish,13 or older,"no, only English or Spanish",no,2025-08-12_15h15.22.163,empathy_intonation_perc,2024.2.4,MacIntel,30.67484663,5fb69cacddba6408f81a9564,687ed1b7e638a4cbf2f02089,689b929f4d50b728aa24fb9d,,,,,,,,,,,,,,1,,,,,,,,,,,,,,,,,,,,,,,,,,,,,,,,,,,,,,,,,,,,,,,,,,,,,,,,,34,aviso,,,,,1080.5879,1082.6201,1,1,1.4937,,0,43,43,33,1,REAL,FAKE,,,,,,,,,,,,,,,,,
,,,,,,,,,5fb69cacddba6408f81a9564,Spanish,13 or older,"no, only English or Spanish",no,2025-08-12_15h15.22.163,empathy_intonation_perc,2024.2.4,MacIntel,30.67484663,5fb69cacddba6408f81a9564,687ed1b7e638a4cbf2f02089,689b929f4d50b728aa24fb9d,,,,,,,,,,,,,,1,,,,,,,,,,,,,,,,,,,,,,,,,,,,,,,,,,,,,,,,,,,,,,,,,,,,,,,,,49,ganar,,,,,1082.6211,1084.0535,0,0,0.9056,,0,44,44,48,1,REAL,FAKE,,,,,,,,,,,,,,,,,
,,,,,,,,,5fb69cacddba6408f81a9564,Spanish,13 or older,"no, only English or Spanish",no,2025-08-12_15h15.22.163,empathy_intonation_perc,2024.2.4,MacIntel,30.67484663,5fb69cacddba6408f81a9564,687ed1b7e638a4cbf2f02089,689b929f4d50b728aa24fb9d,,,,,,,,,,,,,,0,,,,,,,,,,,,,,,,,,,,,,,,,,,,,,,,,,,,,,,,,,,,,,,,,,,,,,,,,66,hacido,,,,,1084.0546,1085.321,0,1,0.7131,,0,45,45,65,1,REAL,FAKE,,,,,,,,,,,,,,,,,
,,,,,,,,,5fb69cacddba6408f81a9564,Spanish,13 or older,"no, only English or Spanish",no,2025-08-12_15h15.22.163,empathy_intonation_perc,2024.2.4,MacIntel,30.67484663,5fb69cacddba6408f81a9564,687ed1b7e638a4cbf2f02089,689b929f4d50b728aa24fb9d,,,,,,,,,,,,,,0,,,,,,,,,,,,,,,,,,,,,,,,,,,,,,,,,,,,,,,,,,,,,,,,,,,,,,,,,1,terzo,,,,,1085.3222,1086.6543,0,1,0.7703,,0,46,46,0,1,REAL,FAKE,,,,,,,,,,,,,,,,,
,,,,,,,,,5fb69cacddba6408f81a9564,Spanish,13 or older,"no, only English or Spanish",no,2025-08-12_15h15.22.163,empathy_intonation_perc,2024.2.4,MacIntel,30.67484663,5fb69cacddba6408f81a9564,687ed1b7e638a4cbf2f02089,689b929f4d50b728aa24fb9d,,,,,,,,,,,,,,0,,,,,,,,,,,,,,,,,,,,,,,,,,,,,,,,,,,,,,,,,,,,,,,,,,,,,,,,,21,capillo,,,,,1086.6554,1088.3209,0,1,1.1043,,0,47,47,20,1,REAL,FAKE,,,,,,,,,,,,,,,,,
,,,,,,,,,5fb69cacddba6408f81a9564,Spanish,13 or older,"no, only English or Spanish",no,2025-08-12_15h15.22.163,empathy_intonation_perc,2024.2.4,MacIntel,30.67484663,5fb69cacddba6408f81a9564,687ed1b7e638a4cbf2f02089,689b929f4d50b728aa24fb9d,,,,,,,,,,,,,,0,,,,,,,,,,,,,,,,,,,,,,,,,,,,,,,,,,,,,,,,,,,,,,,,,,,,,,,,,84,escuto,,,,,1088.3219,1090.6876,1,0,1.819,,0,48,48,83,1,REAL,FAKE,,,,,,,,,,,,,,,,,
,,,,,,,,,5fb69cacddba6408f81a9564,Spanish,13 or older,"no, only English or Spanish",no,2025-08-12_15h15.22.163,empathy_intonation_perc,2024.2.4,MacIntel,30.67484663,5fb69cacddba6408f81a9564,687ed1b7e638a4cbf2f02089,689b929f4d50b728aa24fb9d,,,,,,,,,,,,,,0,,,,,,,,,,,,,,,,,,,,,,,,,,,,,,,,,,,,,,,,,,,,,,,,,,,,,,,,,47,cartinar,,,,,1090.6885,1094.0544,0,1,2.8042,,0,49,49,46,1,REAL,FAKE,,,,,,,,,,,,,,,,,
,,,,,,,,,5fb69cacddba6408f81a9564,Spanish,13 or older,"no, only English or Spanish",no,2025-08-12_15h15.22.163,empathy_intonation_perc,2024.2.4,MacIntel,30.67484663,5fb69cacddba6408f81a9564,687ed1b7e638a4cbf2f02089,689b929f4d50b728aa24fb9d,,,,,,,,,,,,,,1,,,,,,,,,,,,,,,,,,,,,,,,,,,,,,,,,,,,,,,,,,,,,,,,,,,,,,,,,57,tacaño,,,,,1094.0555,1096.7543,0,0,2.1479,,0,50,50,56,1,REAL,FAKE,,,,,,,,,,,,,,,,,
,,,,,,,,,5fb69cacddba6408f81a9564,Spanish,13 or older,"no, only English or Spanish",no,2025-08-12_15h15.22.163,empathy_intonation_perc,2024.2.4,MacIntel,30.67484663,5fb69cacddba6408f81a9564,687ed1b7e638a4cbf2f02089,689b929f4d50b728aa24fb9d,,,,,,,,,,,,,,1,,,,,,,,,,,,,,,,,,,,,,,,,,,,,,,,,,,,,,,,,,,,,,,,,,,,,,,,,78,frondoso,,,,,1096.7552,1098.1877,0,0,0.8704,,0,51,51,77,1,REAL,FAKE,,,,,,,,,,,,,,,,,
,,,,,,,,,5fb69cacddba6408f81a9564,Spanish,13 or older,"no, only English or Spanish",no,2025-08-12_15h15.22.163,empathy_intonation_perc,2024.2.4,MacIntel,30.67484663,5fb69cacddba6408f81a9564,687ed1b7e638a4cbf2f02089,689b929f4d50b728aa24fb9d,,,,,,,,,,,,,,1,,,,,,,,,,,,,,,,,,,,,,,,,,,,,,,,,,,,,,,,,,,,,,,,,,,,,,,,,44,cuchara,,,,,1098.1888,1100.1877,1,1,1.4379,,0,52,52,43,1,REAL,FAKE,,,,,,,,,,,,,,,,,
,,,,,,,,,5fb69cacddba6408f81a9564,Spanish,13 or older,"no, only English or Spanish",no,2025-08-12_15h15.22.163,empathy_intonation_perc,2024.2.4,MacIntel,30.67484663,5fb69cacddba6408f81a9564,687ed1b7e638a4cbf2f02089,689b929f4d50b728aa24fb9d,,,,,,,,,,,,,,0,,,,,,,,,,,,,,,,,,,,,,,,,,,,,,,,,,,,,,,,,,,,,,,,,,,,,,,,,82,empirador,,,,,1100.1888,1103.3877,0,1,2.6453,,0,53,53,81,1,REAL,FAKE,,,,,,,,,,,,,,,,,
,,,,,,,,,5fb69cacddba6408f81a9564,Spanish,13 or older,"no, only English or Spanish",no,2025-08-12_15h15.22.163,empathy_intonation_perc,2024.2.4,MacIntel,30.67484663,5fb69cacddba6408f81a9564,687ed1b7e638a4cbf2f02089,689b929f4d50b728aa24fb9d,,,,,,,,,,,,,,1,,,,,,,,,,,,,,,,,,,,,,,,,,,,,,,,,,,,,,,,,,,,,,,,,,,,,,,,,14,yunque,,,,,1103.3888,1104.6209,0,0,0.6829,,0,54,54,13,1,REAL,FAKE,,,,,,,,,,,,,,,,,
,,,,,,,,,5fb69cacddba6408f81a9564,Spanish,13 or older,"no, only English or Spanish",no,2025-08-12_15h15.22.163,empathy_intonation_perc,2024.2.4,MacIntel,30.67484663,5fb69cacddba6408f81a9564,687ed1b7e638a4cbf2f02089,689b929f4d50b728aa24fb9d,,,,,,,,,,,,,,0,,,,,,,,,,,,,,,,,,,,,,,,,,,,,,,,,,,,,,,,,,,,,,,,,,,,,,,,,70,temblo,,,,,1104.6219,1106.921,1,0,1.7379,,0,55,55,69,1,REAL,FAKE,,,,,,,,,,,,,,,,,
,,,,,,,,,5fb69cacddba6408f81a9564,Spanish,13 or older,"no, only English or Spanish",no,2025-08-12_15h15.22.163,empathy_intonation_perc,2024.2.4,MacIntel,30.67484663,5fb69cacddba6408f81a9564,687ed1b7e638a4cbf2f02089,689b929f4d50b728aa24fb9d,,,,,,,,,,,,,,1,,,,,,,,,,,,,,,,,,,,,,,,,,,,,,,,,,,,,,,,,,,,,,,,,,,,,,,,,88,acantilado,,,,,1106.922,1108.5534,0,0,1.0707,,0,56,56,87,1,REAL,FAKE,,,,,,,,,,,,,,,,,
,,,,,,,,,5fb69cacddba6408f81a9564,Spanish,13 or older,"no, only English or Spanish",no,2025-08-12_15h15.22.163,empathy_intonation_perc,2024.2.4,MacIntel,30.67484663,5fb69cacddba6408f81a9564,687ed1b7e638a4cbf2f02089,689b929f4d50b728aa24fb9d,,,,,,,,,,,,,,1,,,,,,,,,,,,,,,,,,,,,,,,,,,,,,,,,,,,,,,,,,,,,,,,,,,,,,,,,81,pozo,,,,,1108.5545,1109.9544,0,0,0.8304,,0,57,57,80,1,REAL,FAKE,,,,,,,,,,,,,,,,,
,,,,,,,,,5fb69cacddba6408f81a9564,Spanish,13 or older,"no, only English or Spanish",no,2025-08-12_15h15.22.163,empathy_intonation_perc,2024.2.4,MacIntel,30.67484663,5fb69cacddba6408f81a9564,687ed1b7e638a4cbf2f02089,689b929f4d50b728aa24fb9d,,,,,,,,,,,,,,1,,,,,,,,,,,,,,,,,,,,,,,,,,,,,,,,,,,,,,,,,,,,,,,,,,,,,,,,,59,besar,,,,,1109.9555,1111.5534,1,1,1.0361,,0,58,58,58,1,REAL,FAKE,,,,,,,,,,,,,,,,,
,,,,,,,,,5fb69cacddba6408f81a9564,Spanish,13 or older,"no, only English or Spanish",no,2025-08-12_15h15.22.163,empathy_intonation_perc,2024.2.4,MacIntel,30.67484663,5fb69cacddba6408f81a9564,687ed1b7e638a4cbf2f02089,689b929f4d50b728aa24fb9d,,,,,,,,,,,,,,1,,,,,,,,,,,,,,,,,,,,,,,,,,,,,,,,,,,,,,,,,,,,,,,,,,,,,,,,,77,tiburón,,,,,1111.5544,1113.3534,1,1,1.267,,0,59,59,76,1,REAL,FAKE,,,,,,,,,,,,,,,,,
,,,,,,,,,5fb69cacddba6408f81a9564,Spanish,13 or older,"no, only English or Spanish",no,2025-08-12_15h15.22.163,empathy_intonation_perc,2024.2.4,MacIntel,30.67484663,5fb69cacddba6408f81a9564,687ed1b7e638a4cbf2f02089,689b929f4d50b728aa24fb9d,,,,,,,,,,,,,,0,,,,,,,,,,,,,,,,,,,,,,,,,,,,,,,,,,,,,,,,,,,,,,,,,,,,,,,,,30,alardio,,,,,1113.3544,1114.9543,0,1,1.0833,,0,60,60,29,1,REAL,FAKE,,,,,,,,,,,,,,,,,
,,,,,,,,,5fb69cacddba6408f81a9564,Spanish,13 or older,"no, only English or Spanish",no,2025-08-12_15h15.22.163,empathy_intonation_perc,2024.2.4,MacIntel,30.67484663,5fb69cacddba6408f81a9564,687ed1b7e638a4cbf2f02089,689b929f4d50b728aa24fb9d,,,,,,,,,,,,,,0,,,,,,,,,,,,,,,,,,,,,,,,,,,,,,,,,,,,,,,,,,,,,,,,,,,,,,,,,92,click the 0 key.,,,,,1114.9553,1117.0876,0,1,1.5752,,0,61,61,91,1,REAL,FAKE,,,,,,,,,,,,,,,,,
,,,,,,,,,5fb69cacddba6408f81a9564,Spanish,13 or older,"no, only English or Spanish",no,2025-08-12_15h15.22.163,empathy_intonation_perc,2024.2.4,MacIntel,30.67484663,5fb69cacddba6408f81a9564,687ed1b7e638a4cbf2f02089,689b929f4d50b728aa24fb9d,,,,,,,,,,,,,,0,,,,,,,,,,,,,,,,,,,,,,,,,,,,,,,,,,,,,,,,,,,,,,,,,,,,,,,,,53,vegada,,,,,1117.0887,1120.1543,1,0,2.5129,,0,62,62,52,1,REAL,FAKE,,,,,,,,,,,,,,,,,
,,,,,,,,,5fb69cacddba6408f81a9564,Spanish,13 or older,"no, only English or Spanish",no,2025-08-12_15h15.22.163,empathy_intonation_perc,2024.2.4,MacIntel,30.67484663,5fb69cacddba6408f81a9564,687ed1b7e638a4cbf2f02089,689b929f4d50b728aa24fb9d,,,,,,,,,,,,,,1,,,,,,,,,,,,,,,,,,,,,,,,,,,,,,,,,,,,,,,,,,,,,,,,,,,,,,,,,40,alfombra,,,,,1120.1554,1121.7543,0,0,1.0421,,0,63,63,39,1,REAL,FAKE,,,,,,,,,,,,,,,,,
,,,,,,,,,5fb69cacddba6408f81a9564,Spanish,13 or older,"no, only English or Spanish",no,2025-08-12_15h15.22.163,empathy_intonation_perc,2024.2.4,MacIntel,30.67484663,5fb69cacddba6408f81a9564,687ed1b7e638a4cbf2f02089,689b929f4d50b728aa24fb9d,,,,,,,,,,,,,,1,,,,,,,,,,,,,,,,,,,,,,,,,,,,,,,,,,,,,,,,,,,,,,,,,,,,,,,,,61,seda,,,,,1121.7553,1123.8534,0,0,1.5526,,0,64,64,60,1,REAL,FAKE,,,,,,,,,,,,,,,,,
,,,,,,,,,5fb69cacddba6408f81a9564,Spanish,13 or older,"no, only English or Spanish",no,2025-08-12_15h15.22.163,empathy_intonation_perc,2024.2.4,MacIntel,30.67484663,5fb69cacddba6408f81a9564,687ed1b7e638a4cbf2f02089,689b929f4d50b728aa24fb9d,,,,,,,,,,,,,,1,,,,,,,,,,,,,,,,,,,,,,,,,,,,,,,,,,,,,,,,,,,,,,,,,,,,,,,,,39,torpe,,,,,1123.8543,1125.5531,0,0,1.1574,,0,65,65,38,1,REAL,FAKE,,,,,,,,,,,,,,,,,
,,,,,,,,,5fb69cacddba6408f81a9564,Spanish,13 or older,"no, only English or Spanish",no,2025-08-12_15h15.22.163,empathy_intonation_perc,2024.2.4,MacIntel,30.67484663,5fb69cacddba6408f81a9564,687ed1b7e638a4cbf2f02089,689b929f4d50b728aa24fb9d,,,,,,,,,,,,,,1,,,,,,,,,,,,,,,,,,,,,,,,,,,,,,,,,,,,,,,,,,,,,,,,,,,,,,,,,41,rebuscar,,,,,1125.5537,1127.3876,0,0,1.3212,,0,66,66,40,1,REAL,FAKE,,,,,,,,,,,,,,,,,
,,,,,,,,,5fb69cacddba6408f81a9564,Spanish,13 or older,"no, only English or Spanish",no,2025-08-12_15h15.22.163,empathy_intonation_perc,2024.2.4,MacIntel,30.67484663,5fb69cacddba6408f81a9564,687ed1b7e638a4cbf2f02089,689b929f4d50b728aa24fb9d,,,,,,,,,,,,,,1,,,,,,,,,,,,,,,,,,,,,,,,,,,,,,,,,,,,,,,,,,,,,,,,,,,,,,,,,9,hacha,,,,,1127.3887,1128.8544,1,1,0.9012,,0,67,67,8,1,REAL,FAKE,,,,,,,,,,,,,,,,,
,,,,,,,,,5fb69cacddba6408f81a9564,Spanish,13 or older,"no, only English or Spanish",no,2025-08-12_15h15.22.163,empathy_intonation_perc,2024.2.4,MacIntel,30.67484663,5fb69cacddba6408f81a9564,687ed1b7e638a4cbf2f02089,689b929f4d50b728aa24fb9d,,,,,,,,,,,,,,1,,,,,,,,,,,,,,,,,,,,,,,,,,,,,,,,,,,,,,,,,,,,,,,,,,,,,,,,,86,barato,,,,,1128.8554,1130.42,1,1,0.9963,,0,68,68,85,1,REAL,FAKE,,,,,,,,,,,,,,,,,
,,,,,,,,,5fb69cacddba6408f81a9564,Spanish,13 or older,"no, only English or Spanish",no,2025-08-12_15h15.22.163,empathy_intonation_perc,2024.2.4,MacIntel,30.67484663,5fb69cacddba6408f81a9564,687ed1b7e638a4cbf2f02089,689b929f4d50b728aa24fb9d,,,,,,,,,,,,,,1,,,,,,,,,,,,,,,,,,,,,,,,,,,,,,,,,,,,,,,,,,,,,,,,,,,,,,,,,91,click the 1 key.,,,,,1130.4211,1132.1211,1,1,1.1622,,0,69,69,90,1,REAL,FAKE,,,,,,,,,,,,,,,,,
,,,,,,,,,5fb69cacddba6408f81a9564,Spanish,13 or older,"no, only English or Spanish",no,2025-08-12_15h15.22.163,empathy_intonation_perc,2024.2.4,MacIntel,30.67484663,5fb69cacddba6408f81a9564,687ed1b7e638a4cbf2f02089,689b929f4d50b728aa24fb9d,,,,,,,,,,,,,,1,,,,,,,,,,,,,,,,,,,,,,,,,,,,,,,,,,,,,,,,,,,,,,,,,,,,,,,,,90,clavel,,,,,1132.1222,1133.721,0,0,1.0274,,0,70,70,89,1,REAL,FAKE,,,,,,,,,,,,,,,,,
,,,,,,,,,5fb69cacddba6408f81a9564,Spanish,13 or older,"no, only English or Spanish",no,2025-08-12_15h15.22.163,empathy_intonation_perc,2024.2.4,MacIntel,30.67484663,5fb69cacddba6408f81a9564,687ed1b7e638a4cbf2f02089,689b929f4d50b728aa24fb9d,,,,,,,,,,,,,,1,,,,,,,,,,,,,,,,,,,,,,,,,,,,,,,,,,,,,,,,,,,,,,,,,,,,,,,,,89,prisa,,,,,1133.7223,1135.321,0,0,1.0371,,0,71,71,88,1,REAL,FAKE,,,,,,,,,,,,,,,,,
,,,,,,,,,5fb69cacddba6408f81a9564,Spanish,13 or older,"no, only English or Spanish",no,2025-08-12_15h15.22.163,empathy_intonation_perc,2024.2.4,MacIntel,30.67484663,5fb69cacddba6408f81a9564,687ed1b7e638a4cbf2f02089,689b929f4d50b728aa24fb9d,,,,,,,,,,,,,,1,,,,,,,,,,,,,,,,,,,,,,,,,,,,,,,,,,,,,,,,,,,,,,,,,,,,,,,,,54,fomentar,,,,,1135.3219,1137.02,0,0,1.1272,,0,72,72,53,1,REAL,FAKE,,,,,,,,,,,,,,,,,
,,,,,,,,,5fb69cacddba6408f81a9564,Spanish,13 or older,"no, only English or Spanish",no,2025-08-12_15h15.22.163,empathy_intonation_perc,2024.2.4,MacIntel,30.67484663,5fb69cacddba6408f81a9564,687ed1b7e638a4cbf2f02089,689b929f4d50b728aa24fb9d,,,,,,,,,,,,,,0,,,,,,,,,,,,,,,,,,,,,,,,,,,,,,,,,,,,,,,,,,,,,,,,,,,,,,,,,32,fatacidad,,,,,1137.0212,1138.2542,0,1,0.7142,,0,73,73,31,1,REAL,FAKE,,,,,,,,,,,,,,,,,
,,,,,,,,,5fb69cacddba6408f81a9564,Spanish,13 or older,"no, only English or Spanish",no,2025-08-12_15h15.22.163,empathy_intonation_perc,2024.2.4,MacIntel,30.67484663,5fb69cacddba6408f81a9564,687ed1b7e638a4cbf2f02089,689b929f4d50b728aa24fb9d,,,,,,,,,,,,,,1,,,,,,,,,,,,,,,,,,,,,,,,,,,,,,,,,,,,,,,,,,,,,,,,,,,,,,,,,3,pulmones,,,,,1138.2551,1139.9876,1,1,1.173,,0,74,74,2,1,REAL,FAKE,,,,,,,,,,,,,,,,,
,,,,,,,,,5fb69cacddba6408f81a9564,Spanish,13 or older,"no, only English or Spanish",no,2025-08-12_15h15.22.163,empathy_intonation_perc,2024.2.4,MacIntel,30.67484663,5fb69cacddba6408f81a9564,687ed1b7e638a4cbf2f02089,689b929f4d50b728aa24fb9d,,,,,,,,,,,,,,1,,,,,,,,,,,,,,,,,,,,,,,,,,,,,,,,,,,,,,,,,,,,,,,,,,,,,,,,,6,tergiversar,,,,,1139.9886,1141.5543,0,0,1.0083,,0,75,75,5,1,REAL,FAKE,,,,,,,,,,,,,,,,,
,,,,,,,,,5fb69cacddba6408f81a9564,Spanish,13 or older,"no, only English or Spanish",no,2025-08-12_15h15.22.163,empathy_intonation_perc,2024.2.4,MacIntel,30.67484663,5fb69cacddba6408f81a9564,687ed1b7e638a4cbf2f02089,689b929f4d50b728aa24fb9d,,,,,,,,,,,,,,0,,,,,,,,,,,,,,,,,,,,,,,,,,,,,,,,,,,,,,,,,,,,,,,,,,,,,,,,,17,floroso,,,,,1141.5554,1143.0544,0,1,0.9314,,0,76,76,16,1,REAL,FAKE,,,,,,,,,,,,,,,,,
,,,,,,,,,5fb69cacddba6408f81a9564,Spanish,13 or older,"no, only English or Spanish",no,2025-08-12_15h15.22.163,empathy_intonation_perc,2024.2.4,MacIntel,30.67484663,5fb69cacddba6408f81a9564,687ed1b7e638a4cbf2f02089,689b929f4d50b728aa24fb9d,,,,,,,,,,,,,,1,,,,,,,,,,,,,,,,,,,,,,,,,,,,,,,,,,,,,,,,,,,,,,,,,,,,,,,,,24,látigo,,,,,1143.0555,1145.4877,0,0,1.8569,,0,77,77,23,1,REAL,FAKE,,,,,,,,,,,,,,,,,
,,,,,,,,,5fb69cacddba6408f81a9564,Spanish,13 or older,"no, only English or Spanish",no,2025-08-12_15h15.22.163,empathy_intonation_perc,2024.2.4,MacIntel,30.67484663,5fb69cacddba6408f81a9564,687ed1b7e638a4cbf2f02089,689b929f4d50b728aa24fb9d,,,,,,,,,,,,,,1,,,,,,,,,,,,,,,,,,,,,,,,,,,,,,,,,,,,,,,,,,,,,,,,,,,,,,,,,62,flaco,,,,,1145.4888,1147.1208,1,1,1.0833,,0,78,78,61,1,REAL,FAKE,,,,,,,,,,,,,,,,,
,,,,,,,,,5fb69cacddba6408f81a9564,Spanish,13 or older,"no, only English or Spanish",no,2025-08-12_15h15.22.163,empathy_intonation_perc,2024.2.4,MacIntel,30.67484663,5fb69cacddba6408f81a9564,687ed1b7e638a4cbf2f02089,689b929f4d50b728aa24fb9d,,,,,,,,,,,,,,1,,,,,,,,,,,,,,,,,,,,,,,,,,,,,,,,,,,,,,,,,,,,,,,,,,,,,,,,,65,bizcocho,,,,,1147.1218,1149.4543,0,0,1.7758,,0,79,79,64,1,REAL,FAKE,,,,,,,,,,,,,,,,,
,,,,,,,,,5fb69cacddba6408f81a9564,Spanish,13 or older,"no, only English or Spanish",no,2025-08-12_15h15.22.163,empathy_intonation_perc,2024.2.4,MacIntel,30.67484663,5fb69cacddba6408f81a9564,687ed1b7e638a4cbf2f02089,689b929f4d50b728aa24fb9d,,,,,,,,,,,,,,0,,,,,,,,,,,,,,,,,,,,,,,,,,,,,,,,,,,,,,,,,,,,,,,,,,,,,,,,,35,rompido,,,,,1149.4554,1151.3876,0,1,1.3844,,0,80,80,34,1,REAL,FAKE,,,,,,,,,,,,,,,,,
,,,,,,,,,5fb69cacddba6408f81a9564,Spanish,13 or older,"no, only English or Spanish",no,2025-08-12_15h15.22.163,empathy_intonation_perc,2024.2.4,MacIntel,30.67484663,5fb69cacddba6408f81a9564,687ed1b7e638a4cbf2f02089,689b929f4d50b728aa24fb9d,,,,,,,,,,,,,,0,,,,,,,,,,,,,,,,,,,,,,,,,,,,,,,,,,,,,,,,,,,,,,,,,,,,,,,,,23,lampera,,,,,1151.3888,1153.4211,0,1,1.4699,,0,81,81,22,1,REAL,FAKE,,,,,,,,,,,,,,,,,
,,,,,,,,,5fb69cacddba6408f81a9564,Spanish,13 or older,"no, only English or Spanish",no,2025-08-12_15h15.22.163,empathy_intonation_perc,2024.2.4,MacIntel,30.67484663,5fb69cacddba6408f81a9564,687ed1b7e638a4cbf2f02089,689b929f4d50b728aa24fb9d,,,,,,,,,,,,,,1,,,,,,,,,,,,,,,,,,,,,,,,,,,,,,,,,,,,,,,,,,,,,,,,,,,,,,,,,13,helar,,,,,1153.4221,1154.9876,1,1,1.0095,,0,82,82,12,1,REAL,FAKE,,,,,,,,,,,,,,,,,
,,,,,,,,,5fb69cacddba6408f81a9564,Spanish,13 or older,"no, only English or Spanish",no,2025-08-12_15h15.22.163,empathy_intonation_perc,2024.2.4,MacIntel,30.67484663,5fb69cacddba6408f81a9564,687ed1b7e638a4cbf2f02089,689b929f4d50b728aa24fb9d,,,,,,,,,,,,,,1,,,,,,,,,,,,,,,,,,,,,,,,,,,,,,,,,,,,,,,,,,,,,,,,,,,,,,,,,36,loro,,,,,1154.9885,1157.2543,0,0,1.6956,,0,83,83,35,1,REAL,FAKE,,,,,,,,,,,,,,,,,
,,,,,,,,,5fb69cacddba6408f81a9564,Spanish,13 or older,"no, only English or Spanish",no,2025-08-12_15h15.22.163,empathy_intonation_perc,2024.2.4,MacIntel,30.67484663,5fb69cacddba6408f81a9564,687ed1b7e638a4cbf2f02089,689b929f4d50b728aa24fb9d,,,,,,,,,,,,,,1,,,,,,,,,,,,,,,,,,,,,,,,,,,,,,,,,,,,,,,,,,,,,,,,,,,,,,,,,64,orgulloso,,,,,1157.2555,1158.6877,0,0,0.8612,,0,84,84,63,1,REAL,FAKE,,,,,,,,,,,,,,,,,
,,,,,,,,,5fb69cacddba6408f81a9564,Spanish,13 or older,"no, only English or Spanish",no,2025-08-12_15h15.22.163,empathy_intonation_perc,2024.2.4,MacIntel,30.67484663,5fb69cacddba6408f81a9564,687ed1b7e638a4cbf2f02089,689b929f4d50b728aa24fb9d,,,,,,,,,,,,,,1,,,,,,,,,,,,,,,,,,,,,,,,,,,,,,,,,,,,,,,,,,,,,,,,,,,,,,,,,15,regar,,,,,1158.6888,1160.721,1,1,1.4629,,0,85,85,14,1,REAL,FAKE,,,,,,,,,,,,,,,,,
,,,,,,,,,5fb69cacddba6408f81a9564,Spanish,13 or older,"no, only English or Spanish",no,2025-08-12_15h15.22.163,empathy_intonation_perc,2024.2.4,MacIntel,30.67484663,5fb69cacddba6408f81a9564,687ed1b7e638a4cbf2f02089,689b929f4d50b728aa24fb9d,,,,,,,,,,,,,,0,,,,,,,,,,,,,,,,,,,,,,,,,,,,,,,,,,,,,,,,,,,,,,,,,,,,,,,,,18,arsa,,,,,1160.7222,1162.3877,0,1,1.0939,,0,86,86,17,1,REAL,FAKE,,,,,,,,,,,,,,,,,
,,,,,,,,,5fb69cacddba6408f81a9564,Spanish,13 or older,"no, only English or Spanish",no,2025-08-12_15h15.22.163,empathy_intonation_perc,2024.2.4,MacIntel,30.67484663,5fb69cacddba6408f81a9564,687ed1b7e638a4cbf2f02089,689b929f4d50b728aa24fb9d,,,,,,,,,,,,,,1,,,,,,,,,,,,,,,,,,,,,,,,,,,,,,,,,,,,,,,,,,,,,,,,,,,,,,,,,76,atar,,,,,1162.3888,1163.721,0,0,0.7647,,0,87,87,75,1,REAL,FAKE,,,,,,,,,,,,,,,,,
,,,,,,,,,5fb69cacddba6408f81a9564,Spanish,13 or older,"no, only English or Spanish",no,2025-08-12_15h15.22.163,empathy_intonation_perc,2024.2.4,MacIntel,30.67484663,5fb69cacddba6408f81a9564,687ed1b7e638a4cbf2f02089,689b929f4d50b728aa24fb9d,,,,,,,,,,,,,,1,,,,,,,,,,,,,,,,,,,,,,,,,,,,,,,,,,,,,,,,,,,,,,,,,,,,,,,,,48,ladrón,,,,,1163.7222,1165.0209,0,0,0.7407,,0,88,88,47,1,REAL,FAKE,,,,,,,,,,,,,,,,,
,,,,,,,,,5fb69cacddba6408f81a9564,Spanish,13 or older,"no, only English or Spanish",no,2025-08-12_15h15.22.163,empathy_intonation_perc,2024.2.4,MacIntel,30.67484663,5fb69cacddba6408f81a9564,687ed1b7e638a4cbf2f02089,689b929f4d50b728aa24fb9d,,,,,,,,,,,,,,1,,,,,,,,,,,,,,,,,,,,,,,,,,,,,,,,,,,,,,,,,,,,,,,,,,,,,,,,,37,granuja,,,,,1165.0219,1166.6876,1,1,1.1197,,0,89,89,36,1,REAL,FAKE,,,,,,,,,,,,,,,,,
,,,,,,,,,5fb69cacddba6408f81a9564,Spanish,13 or older,"no, only English or Spanish",no,2025-08-12_15h15.22.163,empathy_intonation_perc,2024.2.4,MacIntel,30.67484663,5fb69cacddba6408f81a9564,687ed1b7e638a4cbf2f02089,689b929f4d50b728aa24fb9d,,,,,,,,,,,,,,0,,,,,,,,,,,,,,,,,,,,,,,,,,,,,,,,,,,,,,,,,,,,,,,,,,,,,,,,,27,acutación,,,,,1166.6887,1168.1543,0,1,0.9059,,0,90,90,26,1,REAL,FAKE,,,,,,,,,,,,,,,,,
,,,,,,,,,5fb69cacddba6408f81a9564,Spanish,13 or older,"no, only English or Spanish",no,2025-08-12_15h15.22.163,empathy_intonation_perc,2024.2.4,MacIntel,30.67484663,5fb69cacddba6408f81a9564,687ed1b7e638a4cbf2f02089,689b929f4d50b728aa24fb9d,,,,,,,,,,,,,,1,,,,,,,,,,,,,,,,,,,,,,,,,,,,,,,,,,,,,,,,,,,,,,,,,,,,,,,,,83,guante,,,,,1168.1554,1169.321,0,0,0.5953,,0,91,91,82,1,REAL,FAKE,,,,,,,,,,,,,,,,,
,,,,,,,,,5fb69cacddba6408f81a9564,Spanish,13 or older,"no, only English or Spanish",no,2025-08-12_15h15.22.163,empathy_intonation_perc,2024.2.4,MacIntel,30.67484663,5fb69cacddba6408f81a9564,687ed1b7e638a4cbf2f02089,689b929f4d50b728aa24fb9d,,,,,,,,,,,,,,,,,,,,,,,,,,,,,,,,,,,,,,,,,,,,,,,,,,,,,,,,,,,,,,,,,,,,,,,,,,,,,,,,,,,,,,,,,,1169.3215,1175.5545,,,,,,,,,,,,,,,
,,,,,,,,,5fb69cacddba6408f81a9564,Spanish,13 or older,"no, only English or Spanish",no,2025-08-12_15h15.22.163,empathy_intonation_perc,2024.2.4,MacIntel,30.67484663,5fb69cacddba6408f81a9564,687ed1b7e638a4cbf2f02089,689b929f4d50b728aa24fb9d,,,,,,,,,,,,,1,,,,,,,,,,,,,,,,,,,,,,,,,,,,,,,,,,,,,,,,,,,,,,,,,,,,,,,,,,,,,,,,,,,,,,,,,,,,,,,1175.5651,1181.0543,strongly agree,0,0,0,0,1,I can easily tell if someone else wants to enter a conversation.,1,0,1,0,,
,,,,,,,,,5fb69cacddba6408f81a9564,Spanish,13 or older,"no, only English or Spanish",no,2025-08-12_15h15.22.163,empathy_intonation_perc,2024.2.4,MacIntel,30.67484663,5fb69cacddba6408f81a9564,687ed1b7e638a4cbf2f02089,689b929f4d50b728aa24fb9d,,,,,,,,,,,,,2,,,,,,,,,,,,,,,,,,,,,,,,,,,,,,,,,,,,,,,,,,,,,,,,,,,,,,,,,,,,,,,,,,,,,,,,,,,,,,,1181.0555,1184.9542,slightly disagree,0,1,1,1,1,I prefer animals to humans.,0,1,0,0,,
,,,,,,,,,5fb69cacddba6408f81a9564,Spanish,13 or older,"no, only English or Spanish",no,2025-08-12_15h15.22.163,empathy_intonation_perc,2024.2.4,MacIntel,30.67484663,5fb69cacddba6408f81a9564,687ed1b7e638a4cbf2f02089,689b929f4d50b728aa24fb9d,,,,,,,,,,,,,3,,,,,,,,,,,,,,,,,,,,,,,,,,,,,,,,,,,,,,,,,,,,,,,,,,,,,,,,,,,,,,,,,,,,,,,,,,,,,,,1184.9554,1187.6209,slightly agree,0,2,2,2,1,I try to keep up with the current trends and fashions.,0,1,0,0,,
,,,,,,,,,5fb69cacddba6408f81a9564,Spanish,13 or older,"no, only English or Spanish",no,2025-08-12_15h15.22.163,empathy_intonation_perc,2024.2.4,MacIntel,30.67484663,5fb69cacddba6408f81a9564,687ed1b7e638a4cbf2f02089,689b929f4d50b728aa24fb9d,,,,,,,,,,,,,4,,,,,,,,,,,,,,,,,,,,,,,,,,,,,,,,,,,,,,,,,,,,,,,,,,,,,,,,,,,,,,,,,,,,,,,,,,,,,,,1187.6226,1192.0876,slightly disagree,0,3,3,3,1,"I find it difficult to explain to others things that I understand easily,   when they don't understand it first time.",1,0,0,1,,
,,,,,,,,,5fb69cacddba6408f81a9564,Spanish,13 or older,"no, only English or Spanish",no,2025-08-12_15h15.22.163,empathy_intonation_perc,2024.2.4,MacIntel,30.67484663,5fb69cacddba6408f81a9564,687ed1b7e638a4cbf2f02089,689b929f4d50b728aa24fb9d,,,,,,,,,,,,,5,,,,,,,,,,,,,,,,,,,,,,,,,,,,,,,,,,,,,,,,,,,,,,,,,,,,,,,,,,,,,,,,,,,,,,,,,,,,,,,1192.0887,1193.7543,slightly agree,0,4,4,4,1,I dream most nights.,0,1,0,0,,
,,,,,,,,,5fb69cacddba6408f81a9564,Spanish,13 or older,"no, only English or Spanish",no,2025-08-12_15h15.22.163,empathy_intonation_perc,2024.2.4,MacIntel,30.67484663,5fb69cacddba6408f81a9564,687ed1b7e638a4cbf2f02089,689b929f4d50b728aa24fb9d,,,,,,,,,,,,,6,,,,,,,,,,,,,,,,,,,,,,,,,,,,,,,,,,,,,,,,,,,,,,,,,,,,,,,,,,,,,,,,,,,,,,,,,,,,,,,1193.7557,1196.4867,strongly agree,0,5,5,5,1,I really enjoy caring for other people.,1,0,1,0,,
,,,,,,,,,5fb69cacddba6408f81a9564,Spanish,13 or older,"no, only English or Spanish",no,2025-08-12_15h15.22.163,empathy_intonation_perc,2024.2.4,MacIntel,30.67484663,5fb69cacddba6408f81a9564,687ed1b7e638a4cbf2f02089,689b929f4d50b728aa24fb9d,,,,,,,,,,,,,7,,,,,,,,,,,,,,,,,,,,,,,,,,,,,,,,,,,,,,,,,,,,,,,,,,,,,,,,,,,,,,,,,,,,,,,,,,,,,,,1196.4878,1198.521,strongly agree,0,6,6,6,1,I try to solve my own problems rather than discussing them with others.,0,1,0,0,,
,,,,,,,,,5fb69cacddba6408f81a9564,Spanish,13 or older,"no, only English or Spanish",no,2025-08-12_15h15.22.163,empathy_intonation_perc,2024.2.4,MacIntel,30.67484663,5fb69cacddba6408f81a9564,687ed1b7e638a4cbf2f02089,689b929f4d50b728aa24fb9d,,,,,,,,,,,,,8,,,,,,,,,,,,,,,,,,,,,,,,,,,,,,,,,,,,,,,,,,,,,,,,,,,,,,,,,,,,,,,,,,,,,,,,,,,,,,,1198.5225,1200.9542,strongly disagree,0,7,7,7,1,I find it hard to know what to do in a social situation.,1,0,0,1,,
