instructions_exposure.started,instructions_exposure.stopped,instructions_exposure_loop.thisRepN,instructions_exposure_loop.thisTrialN,instructions_exposure_loop.thisN,instructions_exposure_loop.thisIndex,instructions_exposure_loop.ran,instructions_text,continue_text,participant_id,"What variety of Spanish are you most familiar with? (e.g., Peruvian, Spanish, Mexican)",At what age did you begin learning Spanish?,Are you proficient in any languages other than English/Spanish?,"Are you familiar with Caribbean (e.g., Caribbean, Puerto Rican) or Galician Spanish?",date,expName,psychopyVersion,OS,frameRate,id,study_id,session,trial_exposure.started,trial_exposure.stopped,key_resp_exposure.keys,key_resp_exposure.corr,key_resp_exposure.rt,key_resp_exposure.duration,key_resp.keys,exposure_loop.thisRepN,exposure_loop.thisTrialN,exposure_loop.thisN,exposure_loop.thisIndex,exposure_loop.ran,item_num,correct_response,question,path,duration,instructions_2afc.started,instructions_2afc.stopped,instructions_2afc_loop.thisRepN,instructions_2afc_loop.thisTrialN,instructions_2afc_loop.thisN,instructions_2afc_loop.thisIndex,instructions_2afc_loop.ran,practice_2afc.started,practice_2afc.stopped,key_resp_2afc_practice.keys,key_resp_2afc_practice.corr,key_resp_2afc_practice.rt,key_resp_2afc_practice.duration,trials_2afc_practice_loop.thisRepN,trials_2afc_practice_loop.thisTrialN,trials_2afc_practice_loop.thisN,trials_2afc_practice_loop.thisIndex,trials_2afc_practice_loop.ran,check_2afc.started,check_2afc.stopped,trial_2afc.started,trial_2afc.stopped,key_resp_2afc_trial.keys,key_resp_2afc_trial.corr,key_resp_2afc_trial.rt,key_resp_2afc_trial.duration,trials_2afc_loop.thisRepN,trials_2afc_loop.thisTrialN,trials_2afc_loop.thisN,trials_2afc_loop.thisIndex,trials_2afc_loop.ran,target,variety,instructions_lextale.started,instructions_lextale.stopped,instructions_lextale_loop.thisRepN,instructions_lextale_loop.thisTrialN,instructions_lextale_loop.thisN,instructions_lextale_loop.thisIndex,instructions_lextale_loop.ran,practice_lextale.started,practice_lextale.stopped,key_resp_lextale_practice.keys,key_resp_lextale_practice.corr,key_resp_lextale_practice.rt,key_resp_lextale_practice.duration,practice_feedback_lextale.started,practice_feedback_lextale.stopped,trials_lextale_practice_loop.thisRepN,trials_lextale_practice_loop.thisTrialN,trials_lextale_practice_loop.thisN,trials_lextale_practice_loop.thisIndex,trials_lextale_practice_loop.ran,stim,word,prac_button_real,prac_button_false,check_lextale.started,check_lextale.stopped,trial_lextale.started,trial_lextale.stopped,key_resp_lextale_trial.keys,key_resp_lextale_trial.corr,key_resp_lextale_trial.rt,key_resp_lextale_trial.duration,trials_lextale_loop.thisRepN,trials_lextale_loop.thisTrialN,trials_lextale_loop.thisN,trials_lextale_loop.thisIndex,trials_lextale_loop.ran,button_real,button_false,instructions_eq.started,instructions_eq.stopped,trial_eq.started,trial_eq.stopped,slider_eq_trial.response,trials_eq_loop.thisRepN,trials_eq_loop.thisTrialN,trials_eq_loop.thisN,trials_eq_loop.thisIndex,trials_eq_loop.ran,item,is_test_item,is_distractor,is_agree_score,is_disagree_score,end_exp.started,end_exp.stopped
0.0213,4.2534,0,0,0,0,1,"In the following task, you are going to hear a series of conversations.", (press the space bar to continue),5fe2bc6c9177396d90ae7f54,Spanish,13 or older,"no, only English or Spanish",no,2025-08-12_14h23.03.933,empathy_intonation_perc,2024.2.4,Win32,59.88023952,5fe2bc6c9177396d90ae7f54,687ed1b7e638a4cbf2f02089,689b860cd0ae9b5b45d95974,,,,,,,,,,,,,,,,,,,,,,,,,,,,,,,,,,,,,,,,,,,,,,,,,,,,,,,,,,,,,,,,,,,,,,,,,,,,,,,,,,,,,,,,,,,,,,,,,,,,,,,,,,
4.2543,8.8016,0,1,1,1,1,It is okay if you don't not 100% understand them!, (press the space bar to continue),5fe2bc6c9177396d90ae7f54,Spanish,13 or older,"no, only English or Spanish",no,2025-08-12_14h23.03.933,empathy_intonation_perc,2024.2.4,Win32,59.88023952,5fe2bc6c9177396d90ae7f54,687ed1b7e638a4cbf2f02089,689b860cd0ae9b5b45d95974,,,,,,,,,,,,,,,,,,,,,,,,,,,,,,,,,,,,,,,,,,,,,,,,,,,,,,,,,,,,,,,,,,,,,,,,,,,,,,,,,,,,,,,,,,,,,,,,,,,,,,,,,,
8.8031,11.8339,0,2,2,2,1,"After, you will read a sentence about the conversation and decide if it's true or false.", (press the space bar to continue),5fe2bc6c9177396d90ae7f54,Spanish,13 or older,"no, only English or Spanish",no,2025-08-12_14h23.03.933,empathy_intonation_perc,2024.2.4,Win32,59.88023952,5fe2bc6c9177396d90ae7f54,687ed1b7e638a4cbf2f02089,689b860cd0ae9b5b45d95974,,,,,,,,,,,,,,,,,,,,,,,,,,,,,,,,,,,,,,,,,,,,,,,,,,,,,,,,,,,,,,,,,,,,,,,,,,,,,,,,,,,,,,,,,,,,,,,,,,,,,,,,,,
11.8365,15.5162,0,3,3,3,1,"If it's true, press '1' (True) and if it's false press '0' (False).", (press the space bar to continue),5fe2bc6c9177396d90ae7f54,Spanish,13 or older,"no, only English or Spanish",no,2025-08-12_14h23.03.933,empathy_intonation_perc,2024.2.4,Win32,59.88023952,5fe2bc6c9177396d90ae7f54,687ed1b7e638a4cbf2f02089,689b860cd0ae9b5b45d95974,,,,,,,,,,,,,,,,,,,,,,,,,,,,,,,,,,,,,,,,,,,,,,,,,,,,,,,,,,,,,,,,,,,,,,,,,,,,,,,,,,,,,,,,,,,,,,,,,,,,,,,,,,
,,,,,,,,,5fe2bc6c9177396d90ae7f54,Spanish,13 or older,"no, only English or Spanish",no,2025-08-12_14h23.03.933,empathy_intonation_perc,2024.2.4,Win32,59.88023952,5fe2bc6c9177396d90ae7f54,687ed1b7e638a4cbf2f02089,689b860cd0ae9b5b45d95974,15.5267,58.6382,0,1,6.9711,,,0,0,0,2,1,3,0,The mom already has rice.,./stim/exposure_wavs/pr_stimuli_convo.wav,36,,,,,,,,,,,,,,,,,,,,,,,,,,,,,,,,,,,,,,,,,,,,,,,,,,,,,,,,,,,,,,,,,,,,,,,,,,,,,,,,,,,,,,,,,
,,,,,,,,,5fe2bc6c9177396d90ae7f54,Spanish,13 or older,"no, only English or Spanish",no,2025-08-12_14h23.03.933,empathy_intonation_perc,2024.2.4,Win32,59.88023952,5fe2bc6c9177396d90ae7f54,687ed1b7e638a4cbf2f02089,689b860cd0ae9b5b45d95974,58.6406,115.2728,1,1,9.6073,,,0,1,1,0,1,1,1,The son asked the mom if Aunt Marina is okay.,./stim/exposure_wavs/ga_stimuli_convo.wav,47,,,,,,,,,,,,,,,,,,,,,,,,,,,,,,,,,,,,,,,,,,,,,,,,,,,,,,,,,,,,,,,,,,,,,,,,,,,,,,,,,,,,,,,,,
,,,,,,,,,5fe2bc6c9177396d90ae7f54,Spanish,13 or older,"no, only English or Spanish",no,2025-08-12_14h23.03.933,empathy_intonation_perc,2024.2.4,Win32,59.88023952,5fe2bc6c9177396d90ae7f54,687ed1b7e638a4cbf2f02089,689b860cd0ae9b5b45d95974,115.275,180.1891,0,0,4.8875,,,0,2,2,1,1,2,1,The mom asked the daughter if she already went to the supermarket.,./stim/exposure_wavs/dr_stimuli_convo.wav,60,,,,,,,,,,,,,,,,,,,,,,,,,,,,,,,,,,,,,,,,,,,,,,,,,,,,,,,,,,,,,,,,,,,,,,,,,,,,,,,,,,,,,,,,,
,,,,,,,"In the following task you are going to hear a series of utterances. 

  You will decide if the utterances sound like questions or not using your keyboard.", (press the spacebar to continue),5fe2bc6c9177396d90ae7f54,Spanish,13 or older,"no, only English or Spanish",no,2025-08-12_14h23.03.933,empathy_intonation_perc,2024.2.4,Win32,59.88023952,5fe2bc6c9177396d90ae7f54,687ed1b7e638a4cbf2f02089,689b860cd0ae9b5b45d95974,,,,,,,,,,,,,,,,,,180.1964,192.286,0,0,0,0,1,,,,,,,,,,,,,,,,,,,,,,,,,,,,,,,,,,,,,,,,,,,,,,,,,,,,,,,,,,,,,,,,,,,,,,,,,,,,,,,,,,
,,,,,,,"If you believe the utterance is a question, type '1' (for 'yes') and if you do not 
  believe it is a question type '0' (for 'no').

  Let's practice a bit...", (press the spacebar to continue),5fe2bc6c9177396d90ae7f54,Spanish,13 or older,"no, only English or Spanish",no,2025-08-12_14h23.03.933,empathy_intonation_perc,2024.2.4,Win32,59.88023952,5fe2bc6c9177396d90ae7f54,687ed1b7e638a4cbf2f02089,689b860cd0ae9b5b45d95974,,,,,,,,,,,,,,,,,,192.2874,200.8003,0,1,1,1,1,,,,,,,,,,,,,,,,,,,,,,,,,,,,,,,,,,,,,,,,,,,,,,,,,,,,,,,,,,,,,,,,,,,,,,,,,,,,,,,,,,
,,,,,,,,,5fe2bc6c9177396d90ae7f54,Spanish,13 or older,"no, only English or Spanish",no,2025-08-12_14h23.03.933,empathy_intonation_perc,2024.2.4,Win32,59.88023952,5fe2bc6c9177396d90ae7f54,687ed1b7e638a4cbf2f02089,689b860cd0ae9b5b45d95974,,,,,,,,,,,,,,1,,./stim/wavs/castilian_question_filler_Mi-esposo-conoce-al-chico.wav,,,,,,,,,200.8081,205.1714,1,1,3.8451,,0,0,0,0,1,,,,,,,,,,,,,,,,,,,,,,,,,,,,,,,,,,,,,,,,,,,,,,,,,,,,,,,,,,,,,,,,,,,,,,,
,,,,,,,,,5fe2bc6c9177396d90ae7f54,Spanish,13 or older,"no, only English or Spanish",no,2025-08-12_14h23.03.933,empathy_intonation_perc,2024.2.4,Win32,59.88023952,5fe2bc6c9177396d90ae7f54,687ed1b7e638a4cbf2f02089,689b860cd0ae9b5b45d95974,,,,,,,,,,,,,,0,,./stim/wavs/peruvian_statement_filler_El-nino-habla-con-su-madre.wav,,,,,,,,,205.1724,209.0316,0,1,3.3387,,0,1,1,6,1,,,,,,,,,,,,,,,,,,,,,,,,,,,,,,,,,,,,,,,,,,,,,,,,,,,,,,,,,,,,,,,,,,,,,,,
,,,,,,,,,5fe2bc6c9177396d90ae7f54,Spanish,13 or older,"no, only English or Spanish",no,2025-08-12_14h23.03.933,empathy_intonation_perc,2024.2.4,Win32,59.88023952,5fe2bc6c9177396d90ae7f54,687ed1b7e638a4cbf2f02089,689b860cd0ae9b5b45d95974,,,,,,,,,,,,,,0,,./stim/wavs/cuban_statement_filler_Cocinabas-por-la-noche.wav,,,,,,,,,209.0325,212.5141,0,1,2.9497,,0,2,2,4,1,,,,,,,,,,,,,,,,,,,,,,,,,,,,,,,,,,,,,,,,,,,,,,,,,,,,,,,,,,,,,,,,,,,,,,,
,,,,,,,,,5fe2bc6c9177396d90ae7f54,Spanish,13 or older,"no, only English or Spanish",no,2025-08-12_14h23.03.933,empathy_intonation_perc,2024.2.4,Win32,59.88023952,5fe2bc6c9177396d90ae7f54,687ed1b7e638a4cbf2f02089,689b860cd0ae9b5b45d95974,,,,,,,,,,,,,,1,,./stim/wavs/mexican_question_filler_Felipe-no-tiene-contrasena.wav,,,,,,,,,212.5145,215.6798,1,1,2.6386,,0,3,3,3,1,,,,,,,,,,,,,,,,,,,,,,,,,,,,,,,,,,,,,,,,,,,,,,,,,,,,,,,,,,,,,,,,,,,,,,,
,,,,,,,,,5fe2bc6c9177396d90ae7f54,Spanish,13 or older,"no, only English or Spanish",no,2025-08-12_14h23.03.933,empathy_intonation_perc,2024.2.4,Win32,59.88023952,5fe2bc6c9177396d90ae7f54,687ed1b7e638a4cbf2f02089,689b860cd0ae9b5b45d95974,,,,,,,,,,,,,,0,,./stim/wavs/andalusian_statement_filler_Alberto-nunca-se-afeita.wav,,,,,,,,,215.6804,218.8622,0,1,2.6496,,0,4,4,5,1,,,,,,,,,,,,,,,,,,,,,,,,,,,,,,,,,,,,,,,,,,,,,,,,,,,,,,,,,,,,,,,,,,,,,,,
,,,,,,,,,5fe2bc6c9177396d90ae7f54,Spanish,13 or older,"no, only English or Spanish",no,2025-08-12_14h23.03.933,empathy_intonation_perc,2024.2.4,Win32,59.88023952,5fe2bc6c9177396d90ae7f54,687ed1b7e638a4cbf2f02089,689b860cd0ae9b5b45d95974,,,,,,,,,,,,,,0,,./stim/wavs/puertorican_statement_filler_La-nina-pinta-con-su-amiga.wav,,,,,,,,,218.8626,221.6167,0,1,2.2329,,0,5,5,7,1,,,,,,,,,,,,,,,,,,,,,,,,,,,,,,,,,,,,,,,,,,,,,,,,,,,,,,,,,,,,,,,,,,,,,,,
,,,,,,,,,5fe2bc6c9177396d90ae7f54,Spanish,13 or older,"no, only English or Spanish",no,2025-08-12_14h23.03.933,empathy_intonation_perc,2024.2.4,Win32,59.88023952,5fe2bc6c9177396d90ae7f54,687ed1b7e638a4cbf2f02089,689b860cd0ae9b5b45d95974,,,,,,,,,,,,,,1,,./stim/wavs/chilean_question_filler_Mi-padre-cantaba-bien.wav,,,,,,,,,221.6171,224.0943,0,0,1.9494,,0,6,6,2,1,,,,,,,,,,,,,,,,,,,,,,,,,,,,,,,,,,,,,,,,,,,,,,,,,,,,,,,,,,,,,,,,,,,,,,,
,,,,,,,,,5fe2bc6c9177396d90ae7f54,Spanish,13 or older,"no, only English or Spanish",no,2025-08-12_14h23.03.933,empathy_intonation_perc,2024.2.4,Win32,59.88023952,5fe2bc6c9177396d90ae7f54,687ed1b7e638a4cbf2f02089,689b860cd0ae9b5b45d95974,,,,,,,,,,,,,,1,,./stim/wavs/argentine_question_filler_Mi-vecino-habla-mucho.wav,,,,,,,,,224.0949,226.9769,1,1,2.3534,,0,7,7,1,1,,,,,,,,,,,,,,,,,,,,,,,,,,,,,,,,,,,,,,,,,,,,,,,,,,,,,,,,,,,,,,,,,,,,,,,
,,,,,,,,,5fe2bc6c9177396d90ae7f54,Spanish,13 or older,"no, only English or Spanish",no,2025-08-12_14h23.03.933,empathy_intonation_perc,2024.2.4,Win32,59.88023952,5fe2bc6c9177396d90ae7f54,687ed1b7e638a4cbf2f02089,689b860cd0ae9b5b45d95974,,,,,,,,,,,,,,,,,,,,,,,,,,,,,,,,,,,,226.9776,230.1594,,,,,,,,,,,,,,,,,,,,,,,,,,,,,,,,,,,,,,,,,,,,,,,,,,,,,,,,,,,,,,,,,,,,,
,,,,,,,,,5fe2bc6c9177396d90ae7f54,Spanish,13 or older,"no, only English or Spanish",no,2025-08-12_14h23.03.933,empathy_intonation_perc,2024.2.4,Win32,59.88023952,5fe2bc6c9177396d90ae7f54,687ed1b7e638a4cbf2f02089,689b860cd0ae9b5b45d95974,,,,,,,,,,,,,88,0,,./stim/wavs/puertorican_mismatch_declarative-broad-focus_La-nina-lava-el-plato.wav,,,,,,,,,,,,,,,,,,,,,,230.1682,233.5921,0,1,2.8848,,0,0,0,87,1,0,puertorican,,,,,,,,,,,,,,,,,,,,,,,,,,,,,,,,,,,,,,,,,,,,,,,,,,,,,,,,
,,,,,,,,,5fe2bc6c9177396d90ae7f54,Spanish,13 or older,"no, only English or Spanish",no,2025-08-12_14h23.03.933,empathy_intonation_perc,2024.2.4,Win32,59.88023952,5fe2bc6c9177396d90ae7f54,687ed1b7e638a4cbf2f02089,689b860cd0ae9b5b45d95974,,,,,,,,,,,,,59,0,,./stim/wavs/mexican_match_declarative-broad-focus_David-leia-el-libro.wav,,,,,,,,,,,,,,,,,,,,,,233.593,235.9243,0,1,1.7997,,0,1,1,58,1,0,mexican,,,,,,,,,,,,,,,,,,,,,,,,,,,,,,,,,,,,,,,,,,,,,,,,,,,,,,,,
,,,,,,,,,5fe2bc6c9177396d90ae7f54,Spanish,13 or older,"no, only English or Spanish",no,2025-08-12_14h23.03.933,empathy_intonation_perc,2024.2.4,Win32,59.88023952,5fe2bc6c9177396d90ae7f54,687ed1b7e638a4cbf2f02089,689b860cd0ae9b5b45d95974,,,,,,,,,,,,,47,0,,./stim/wavs/castilian_match_declarative-broad-focus_Manuela-vende-el-carro.wav,,,,,,,,,,,,,,,,,,,,,,235.9248,240.2734,0,1,3.8198,,0,2,2,46,1,0,castilian,,,,,,,,,,,,,,,,,,,,,,,,,,,,,,,,,,,,,,,,,,,,,,,,,,,,,,,,
,,,,,,,,,5fe2bc6c9177396d90ae7f54,Spanish,13 or older,"no, only English or Spanish",no,2025-08-12_14h23.03.933,empathy_intonation_perc,2024.2.4,Win32,59.88023952,5fe2bc6c9177396d90ae7f54,687ed1b7e638a4cbf2f02089,689b860cd0ae9b5b45d95974,,,,,,,,,,,,,17,1,,./stim/wavs/mexican_match_interrogative-total-yn_Mariano-habla-del-tiempo.wav,,,,,,,,,,,,,,,,,,,,,,240.2737,243.0222,1,1,2.2165,,0,3,3,16,1,0,mexican,,,,,,,,,,,,,,,,,,,,,,,,,,,,,,,,,,,,,,,,,,,,,,,,,,,,,,,,
,,,,,,,,,5fe2bc6c9177396d90ae7f54,Spanish,13 or older,"no, only English or Spanish",no,2025-08-12_14h23.03.933,empathy_intonation_perc,2024.2.4,Win32,59.88023952,5fe2bc6c9177396d90ae7f54,687ed1b7e638a4cbf2f02089,689b860cd0ae9b5b45d95974,,,,,,,,,,,,,44,1,,./stim/wavs/puertorican_mismatch_interrogative-total-yn_Mi-madre-come-la-fruta.wav,,,,,,,,,,,,,,,,,,,,,,243.0226,246.3381,0,0,2.7926,,0,4,4,43,1,1,puertorican,,,,,,,,,,,,,,,,,,,,,,,,,,,,,,,,,,,,,,,,,,,,,,,,,,,,,,,,
,,,,,,,,,5fe2bc6c9177396d90ae7f54,Spanish,13 or older,"no, only English or Spanish",no,2025-08-12_14h23.03.933,empathy_intonation_perc,2024.2.4,Win32,59.88023952,5fe2bc6c9177396d90ae7f54,687ed1b7e638a4cbf2f02089,689b860cd0ae9b5b45d95974,,,,,,,,,,,,,5,1,,./stim/wavs/castilian_match_interrogative-total-yn_Mariano-habla-del-tiempo.wav,,,,,,,,,,,,,,,,,,,,,,246.3386,249.6206,1,1,2.7547,,0,5,5,4,1,0,castilian,,,,,,,,,,,,,,,,,,,,,,,,,,,,,,,,,,,,,,,,,,,,,,,,,,,,,,,,
,,,,,,,,,5fe2bc6c9177396d90ae7f54,Spanish,13 or older,"no, only English or Spanish",no,2025-08-12_14h23.03.933,empathy_intonation_perc,2024.2.4,Win32,59.88023952,5fe2bc6c9177396d90ae7f54,687ed1b7e638a4cbf2f02089,689b860cd0ae9b5b45d95974,,,,,,,,,,,,,83,0,,./stim/wavs/mexican_mismatch_declarative-broad-focus_Mi-tia-odia-la-lluvia.wav,,,,,,,,,,,,,,,,,,,,,,249.6214,253.3029,0,1,3.1591,,0,6,6,82,1,0,mexican,,,,,,,,,,,,,,,,,,,,,,,,,,,,,,,,,,,,,,,,,,,,,,,,,,,,,,,,
,,,,,,,,,5fe2bc6c9177396d90ae7f54,Spanish,13 or older,"no, only English or Spanish",no,2025-08-12_14h23.03.933,empathy_intonation_perc,2024.2.4,Win32,59.88023952,5fe2bc6c9177396d90ae7f54,687ed1b7e638a4cbf2f02089,689b860cd0ae9b5b45d95974,,,,,,,,,,,,,33,1,,./stim/wavs/cuban_mismatch_interrogative-total-yn_Mi-novio-viene-del-lago.wav,,,,,,,,,,,,,,,,,,,,,,253.3036,258.3686,0,0,4.5348,,0,7,7,32,1,1,cuban,,,,,,,,,,,,,,,,,,,,,,,,,,,,,,,,,,,,,,,,,,,,,,,,,,,,,,,,
,,,,,,,,,5fe2bc6c9177396d90ae7f54,Spanish,13 or older,"no, only English or Spanish",no,2025-08-12_14h23.03.933,empathy_intonation_perc,2024.2.4,Win32,59.88023952,5fe2bc6c9177396d90ae7f54,687ed1b7e638a4cbf2f02089,689b860cd0ae9b5b45d95974,,,,,,,,,,,,,56,0,,./stim/wavs/cuban_match_declarative-broad-focus_Marta-abre-el-regalo.wav,,,,,,,,,,,,,,,,,,,,,,258.3696,261.4675,0,1,2.5772,,0,8,8,55,1,0,cuban,,,,,,,,,,,,,,,,,,,,,,,,,,,,,,,,,,,,,,,,,,,,,,,,,,,,,,,,
,,,,,,,,,5fe2bc6c9177396d90ae7f54,Spanish,13 or older,"no, only English or Spanish",no,2025-08-12_14h23.03.933,empathy_intonation_perc,2024.2.4,Win32,59.88023952,5fe2bc6c9177396d90ae7f54,687ed1b7e638a4cbf2f02089,689b860cd0ae9b5b45d95974,,,,,,,,,,,,,32,1,,./stim/wavs/cuban_mismatch_interrogative-total-yn_Mi-madre-come-la-fruta.wav,,,,,,,,,,,,,,,,,,,,,,261.4682,264.7001,0,0,2.705,,0,9,9,31,1,1,cuban,,,,,,,,,,,,,,,,,,,,,,,,,,,,,,,,,,,,,,,,,,,,,,,,,,,,,,,,
,,,,,,,,,5fe2bc6c9177396d90ae7f54,Spanish,13 or older,"no, only English or Spanish",no,2025-08-12_14h23.03.933,empathy_intonation_perc,2024.2.4,Win32,59.88023952,5fe2bc6c9177396d90ae7f54,687ed1b7e638a4cbf2f02089,689b860cd0ae9b5b45d95974,,,,,,,,,,,,,9,1,,./stim/wavs/cuban_match_interrogative-total-yn_Manuela-vende-el-carro.wav,,,,,,,,,,,,,,,,,,,,,,264.7007,267.3659,0,0,2.1424,,0,10,10,8,1,1,cuban,,,,,,,,,,,,,,,,,,,,,,,,,,,,,,,,,,,,,,,,,,,,,,,,,,,,,,,,
,,,,,,,,,5fe2bc6c9177396d90ae7f54,Spanish,13 or older,"no, only English or Spanish",no,2025-08-12_14h23.03.933,empathy_intonation_perc,2024.2.4,Win32,59.88023952,5fe2bc6c9177396d90ae7f54,687ed1b7e638a4cbf2f02089,689b860cd0ae9b5b45d95974,,,,,,,,,,,,,1,1,,./stim/wavs/castilian_match_interrogative-total-yn_David-leia-el-libro.wav,,,,,,,,,,,,,,,,,,,,,,267.3665,270.0152,1,1,2.1169,,0,11,11,0,1,0,castilian,,,,,,,,,,,,,,,,,,,,,,,,,,,,,,,,,,,,,,,,,,,,,,,,,,,,,,,,
,,,,,,,,,5fe2bc6c9177396d90ae7f54,Spanish,13 or older,"no, only English or Spanish",no,2025-08-12_14h23.03.933,empathy_intonation_perc,2024.2.4,Win32,59.88023952,5fe2bc6c9177396d90ae7f54,687ed1b7e638a4cbf2f02089,689b860cd0ae9b5b45d95974,,,,,,,,,,,,,63,0,,./stim/wavs/puertorican_match_declarative-broad-focus_Ana-lleva-el-abrigo.wav,,,,,,,,,,,,,,,,,,,,,,270.0159,272.7477,0,1,2.1999,,0,12,12,62,1,0,puertorican,,,,,,,,,,,,,,,,,,,,,,,,,,,,,,,,,,,,,,,,,,,,,,,,,,,,,,,,
,,,,,,,,,5fe2bc6c9177396d90ae7f54,Spanish,13 or older,"no, only English or Spanish",no,2025-08-12_14h23.03.933,empathy_intonation_perc,2024.2.4,Win32,59.88023952,5fe2bc6c9177396d90ae7f54,687ed1b7e638a4cbf2f02089,689b860cd0ae9b5b45d95974,,,,,,,,,,,,,10,1,,./stim/wavs/cuban_match_interrogative-total-yn_Maria-bebe-el-vino.wav,,,,,,,,,,,,,,,,,,,,,,272.748,275.5136,0,0,2.237,,0,13,13,9,1,1,cuban,,,,,,,,,,,,,,,,,,,,,,,,,,,,,,,,,,,,,,,,,,,,,,,,,,,,,,,,
,,,,,,,,,5fe2bc6c9177396d90ae7f54,Spanish,13 or older,"no, only English or Spanish",no,2025-08-12_14h23.03.933,empathy_intonation_perc,2024.2.4,Win32,59.88023952,5fe2bc6c9177396d90ae7f54,687ed1b7e638a4cbf2f02089,689b860cd0ae9b5b45d95974,,,,,,,,,,,,,68,0,,./stim/wavs/puertorican_match_declarative-broad-focus_Maria-bebe-el-vino.wav,,,,,,,,,,,,,,,,,,,,,,275.514,280.9791,1,0,4.9377,,0,14,14,67,1,0,puertorican,,,,,,,,,,,,,,,,,,,,,,,,,,,,,,,,,,,,,,,,,,,,,,,,,,,,,,,,
,,,,,,,,,5fe2bc6c9177396d90ae7f54,Spanish,13 or older,"no, only English or Spanish",no,2025-08-12_14h23.03.933,empathy_intonation_perc,2024.2.4,Win32,59.88023952,5fe2bc6c9177396d90ae7f54,687ed1b7e638a4cbf2f02089,689b860cd0ae9b5b45d95974,,,,,,,,,,,,,58,0,,./stim/wavs/mexican_match_declarative-broad-focus_Daniel-iba-a-Bolivia.wav,,,,,,,,,,,,,,,,,,,,,,280.98,284.1946,0,1,2.6832,,0,15,15,57,1,0,mexican,,,,,,,,,,,,,,,,,,,,,,,,,,,,,,,,,,,,,,,,,,,,,,,,,,,,,,,,
,,,,,,,,,5fe2bc6c9177396d90ae7f54,Spanish,13 or older,"no, only English or Spanish",no,2025-08-12_14h23.03.933,empathy_intonation_perc,2024.2.4,Win32,59.88023952,5fe2bc6c9177396d90ae7f54,687ed1b7e638a4cbf2f02089,689b860cd0ae9b5b45d95974,,,,,,,,,,,,,27,1,,./stim/wavs/castilian_mismatch_interrogative-total-yn_Mi-madre-come-la-fruta.wav,,,,,,,,,,,,,,,,,,,,,,284.195,286.8939,1,1,2.1663,,0,16,16,26,1,0,castilian,,,,,,,,,,,,,,,,,,,,,,,,,,,,,,,,,,,,,,,,,,,,,,,,,,,,,,,,
,,,,,,,,,5fe2bc6c9177396d90ae7f54,Spanish,13 or older,"no, only English or Spanish",no,2025-08-12_14h23.03.933,empathy_intonation_perc,2024.2.4,Win32,59.88023952,5fe2bc6c9177396d90ae7f54,687ed1b7e638a4cbf2f02089,689b860cd0ae9b5b45d95974,,,,,,,,,,,,,66,0,,./stim/wavs/puertorican_match_declarative-broad-focus_Emilio-ama-la-marcha.wav,,,,,,,,,,,,,,,,,,,,,,286.8945,292.9424,0,1,5.5216,,0,17,17,65,1,0,puertorican,,,,,,,,,,,,,,,,,,,,,,,,,,,,,,,,,,,,,,,,,,,,,,,,,,,,,,,,
,,,,,,,,,5fe2bc6c9177396d90ae7f54,Spanish,13 or older,"no, only English or Spanish",no,2025-08-12_14h23.03.933,empathy_intonation_perc,2024.2.4,Win32,59.88023952,5fe2bc6c9177396d90ae7f54,687ed1b7e638a4cbf2f02089,689b860cd0ae9b5b45d95974,,,,,,,,,,,,,24,1,,./stim/wavs/puertorican_match_interrogative-total-yn_Maria-bebe-el-vino.wav,,,,,,,,,,,,,,,,,,,,,,292.9427,298.3578,0,0,4.889,,0,18,18,23,1,1,puertorican,,,,,,,,,,,,,,,,,,,,,,,,,,,,,,,,,,,,,,,,,,,,,,,,,,,,,,,,
,,,,,,,,,5fe2bc6c9177396d90ae7f54,Spanish,13 or older,"no, only English or Spanish",no,2025-08-12_14h23.03.933,empathy_intonation_perc,2024.2.4,Win32,59.88023952,5fe2bc6c9177396d90ae7f54,687ed1b7e638a4cbf2f02089,689b860cd0ae9b5b45d95974,,,,,,,,,,,,,19,1,,./stim/wavs/puertorican_match_interrogative-total-yn_Ana-lleva-el-abrigo.wav,,,,,,,,,,,,,,,,,,,,,,298.3585,300.7908,0,0,1.8834,,0,19,19,18,1,1,puertorican,,,,,,,,,,,,,,,,,,,,,,,,,,,,,,,,,,,,,,,,,,,,,,,,,,,,,,,,
,,,,,,,,,5fe2bc6c9177396d90ae7f54,Spanish,13 or older,"no, only English or Spanish",no,2025-08-12_14h23.03.933,empathy_intonation_perc,2024.2.4,Win32,59.88023952,5fe2bc6c9177396d90ae7f54,687ed1b7e638a4cbf2f02089,689b860cd0ae9b5b45d95974,,,,,,,,,,,,,82,0,,./stim/wavs/mexican_mismatch_declarative-broad-focus_Mi-novio-viene-del-lago.wav,,,,,,,,,,,,,,,,,,,,,,300.7918,304.1728,0,1,2.858,,0,20,20,81,1,0,mexican,,,,,,,,,,,,,,,,,,,,,,,,,,,,,,,,,,,,,,,,,,,,,,,,,,,,,,,,
,,,,,,,,,5fe2bc6c9177396d90ae7f54,Spanish,13 or older,"no, only English or Spanish",no,2025-08-12_14h23.03.933,empathy_intonation_perc,2024.2.4,Win32,59.88023952,5fe2bc6c9177396d90ae7f54,687ed1b7e638a4cbf2f02089,689b860cd0ae9b5b45d95974,,,,,,,,,,,,,74,0,,./stim/wavs/cuban_mismatch_declarative-broad-focus_El-bebe-comia-muy-bien.wav,,,,,,,,,,,,,,,,,,,,,,304.1735,306.8387,0,1,2.1363,,0,21,21,73,1,0,cuban,,,,,,,,,,,,,,,,,,,,,,,,,,,,,,,,,,,,,,,,,,,,,,,,,,,,,,,,
,,,,,,,,,5fe2bc6c9177396d90ae7f54,Spanish,13 or older,"no, only English or Spanish",no,2025-08-12_14h23.03.933,empathy_intonation_perc,2024.2.4,Win32,59.88023952,5fe2bc6c9177396d90ae7f54,687ed1b7e638a4cbf2f02089,689b860cd0ae9b5b45d95974,,,,,,,,,,,,,38,1,,./stim/wavs/mexican_mismatch_interrogative-total-yn_Mi-novio-viene-del-lago.wav,,,,,,,,,,,,,,,,,,,,,,306.8391,309.3714,1,1,2.0058,,0,22,22,37,1,0,mexican,,,,,,,,,,,,,,,,,,,,,,,,,,,,,,,,,,,,,,,,,,,,,,,,,,,,,,,,
,,,,,,,,,5fe2bc6c9177396d90ae7f54,Spanish,13 or older,"no, only English or Spanish",no,2025-08-12_14h23.03.933,empathy_intonation_perc,2024.2.4,Win32,59.88023952,5fe2bc6c9177396d90ae7f54,687ed1b7e638a4cbf2f02089,689b860cd0ae9b5b45d95974,,,,,,,,,,,,,42,1,,./stim/wavs/puertorican_mismatch_interrogative-total-yn_La-maestra-vive-en-Paris.wav,,,,,,,,,,,,,,,,,,,,,,309.3721,312.1539,0,0,2.2498,,0,23,23,41,1,1,puertorican,,,,,,,,,,,,,,,,,,,,,,,,,,,,,,,,,,,,,,,,,,,,,,,,,,,,,,,,
,,,,,,,,,5fe2bc6c9177396d90ae7f54,Spanish,13 or older,"no, only English or Spanish",no,2025-08-12_14h23.03.933,empathy_intonation_perc,2024.2.4,Win32,59.88023952,5fe2bc6c9177396d90ae7f54,687ed1b7e638a4cbf2f02089,689b860cd0ae9b5b45d95974,,,,,,,,,,,,,78,0,,./stim/wavs/cuban_mismatch_declarative-broad-focus_Mi-tia-odia-la-lluvia.wav,,,,,,,,,,,,,,,,,,,,,,312.1546,315.1866,0,1,2.5069,,0,24,24,77,1,0,cuban,,,,,,,,,,,,,,,,,,,,,,,,,,,,,,,,,,,,,,,,,,,,,,,,,,,,,,,,
,,,,,,,,,5fe2bc6c9177396d90ae7f54,Spanish,13 or older,"no, only English or Spanish",no,2025-08-12_14h23.03.933,empathy_intonation_perc,2024.2.4,Win32,59.88023952,5fe2bc6c9177396d90ae7f54,687ed1b7e638a4cbf2f02089,689b860cd0ae9b5b45d95974,,,,,,,,,,,,,45,0,,./stim/wavs/castilian_match_declarative-broad-focus_David-leia-el-libro.wav,,,,,,,,,,,,,,,,,,,,,,315.1873,317.9527,0,1,2.2331,,0,25,25,44,1,0,castilian,,,,,,,,,,,,,,,,,,,,,,,,,,,,,,,,,,,,,,,,,,,,,,,,,,,,,,,,
,,,,,,,,,5fe2bc6c9177396d90ae7f54,Spanish,13 or older,"no, only English or Spanish",no,2025-08-12_14h23.03.933,empathy_intonation_perc,2024.2.4,Win32,59.88023952,5fe2bc6c9177396d90ae7f54,687ed1b7e638a4cbf2f02089,689b860cd0ae9b5b45d95974,,,,,,,,,,,,,71,0,,./stim/wavs/castilian_mismatch_declarative-broad-focus_La-nina-lava-el-plato.wav,,,,,,,,,,,,,,,,,,,,,,317.9536,320.7352,0,1,2.2505,,0,26,26,70,1,0,castilian,,,,,,,,,,,,,,,,,,,,,,,,,,,,,,,,,,,,,,,,,,,,,,,,,,,,,,,,
,,,,,,,,,5fe2bc6c9177396d90ae7f54,Spanish,13 or older,"no, only English or Spanish",no,2025-08-12_14h23.03.933,empathy_intonation_perc,2024.2.4,Win32,59.88023952,5fe2bc6c9177396d90ae7f54,687ed1b7e638a4cbf2f02089,689b860cd0ae9b5b45d95974,,,,,,,,,,,,,6,1,,./stim/wavs/castilian_match_interrogative-total-yn_Marta-abre-el-regalo.wav,,,,,,,,,,,,,,,,,,,,,,320.7359,323.9676,1,1,2.7041,,0,27,27,5,1,0,castilian,,,,,,,,,,,,,,,,,,,,,,,,,,,,,,,,,,,,,,,,,,,,,,,,,,,,,,,,
,,,,,,,,,5fe2bc6c9177396d90ae7f54,Spanish,13 or older,"no, only English or Spanish",no,2025-08-12_14h23.03.933,empathy_intonation_perc,2024.2.4,Win32,59.88023952,5fe2bc6c9177396d90ae7f54,687ed1b7e638a4cbf2f02089,689b860cd0ae9b5b45d95974,,,,,,,,,,,,,87,0,,./stim/wavs/puertorican_mismatch_declarative-broad-focus_La-maestra-vive-en-Paris.wav,,,,,,,,,,,,,,,,,,,,,,323.9684,326.3834,0,1,1.8832,,0,28,28,86,1,0,puertorican,,,,,,,,,,,,,,,,,,,,,,,,,,,,,,,,,,,,,,,,,,,,,,,,,,,,,,,,
,,,,,,,,,5fe2bc6c9177396d90ae7f54,Spanish,13 or older,"no, only English or Spanish",no,2025-08-12_14h23.03.933,empathy_intonation_perc,2024.2.4,Win32,59.88023952,5fe2bc6c9177396d90ae7f54,687ed1b7e638a4cbf2f02089,689b860cd0ae9b5b45d95974,,,,,,,,,,,,,18,1,,./stim/wavs/mexican_match_interrogative-total-yn_Marta-abre-el-regalo.wav,,,,,,,,,,,,,,,,,,,,,,326.3838,328.8332,1,1,1.9162,,0,29,29,17,1,0,mexican,,,,,,,,,,,,,,,,,,,,,,,,,,,,,,,,,,,,,,,,,,,,,,,,,,,,,,,,
,,,,,,,,,5fe2bc6c9177396d90ae7f54,Spanish,13 or older,"no, only English or Spanish",no,2025-08-12_14h23.03.933,empathy_intonation_perc,2024.2.4,Win32,59.88023952,5fe2bc6c9177396d90ae7f54,687ed1b7e638a4cbf2f02089,689b860cd0ae9b5b45d95974,,,,,,,,,,,,,31,1,,./stim/wavs/cuban_mismatch_interrogative-total-yn_El-nino-oye-el-rio.wav,,,,,,,,,,,,,,,,,,,,,,328.8342,331.2822,0,0,1.9391,,0,30,30,30,1,1,cuban,,,,,,,,,,,,,,,,,,,,,,,,,,,,,,,,,,,,,,,,,,,,,,,,,,,,,,,,
,,,,,,,,,5fe2bc6c9177396d90ae7f54,Spanish,13 or older,"no, only English or Spanish",no,2025-08-12_14h23.03.933,empathy_intonation_perc,2024.2.4,Win32,59.88023952,5fe2bc6c9177396d90ae7f54,687ed1b7e638a4cbf2f02089,689b860cd0ae9b5b45d95974,,,,,,,,,,,,,72,0,,./stim/wavs/castilian_mismatch_declarative-broad-focus_Mi-novio-viene-del-lago.wav,,,,,,,,,,,,,,,,,,,,,,331.2826,334.0151,0,1,2.1995,,0,31,31,71,1,0,castilian,,,,,,,,,,,,,,,,,,,,,,,,,,,,,,,,,,,,,,,,,,,,,,,,,,,,,,,,
,,,,,,,,,5fe2bc6c9177396d90ae7f54,Spanish,13 or older,"no, only English or Spanish",no,2025-08-12_14h23.03.933,empathy_intonation_perc,2024.2.4,Win32,59.88023952,5fe2bc6c9177396d90ae7f54,687ed1b7e638a4cbf2f02089,689b860cd0ae9b5b45d95974,,,,,,,,,,,,,62,0,,./stim/wavs/mexican_match_declarative-broad-focus_Marta-abre-el-regalo.wav,,,,,,,,,,,,,,,,,,,,,,334.0159,336.3307,0,1,1.783,,0,32,32,61,1,0,mexican,,,,,,,,,,,,,,,,,,,,,,,,,,,,,,,,,,,,,,,,,,,,,,,,,,,,,,,,
,,,,,,,,,5fe2bc6c9177396d90ae7f54,Spanish,13 or older,"no, only English or Spanish",no,2025-08-12_14h23.03.933,empathy_intonation_perc,2024.2.4,Win32,59.88023952,5fe2bc6c9177396d90ae7f54,687ed1b7e638a4cbf2f02089,689b860cd0ae9b5b45d95974,,,,,,,,,,,,,52,0,,./stim/wavs/cuban_match_declarative-broad-focus_Daniel-iba-a-Bolivia.wav,,,,,,,,,,,,,,,,,,,,,,336.3312,338.6802,0,1,1.8225,,0,33,33,51,1,0,cuban,,,,,,,,,,,,,,,,,,,,,,,,,,,,,,,,,,,,,,,,,,,,,,,,,,,,,,,,
,,,,,,,,,5fe2bc6c9177396d90ae7f54,Spanish,13 or older,"no, only English or Spanish",no,2025-08-12_14h23.03.933,empathy_intonation_perc,2024.2.4,Win32,59.88023952,5fe2bc6c9177396d90ae7f54,687ed1b7e638a4cbf2f02089,689b860cd0ae9b5b45d95974,,,,,,,,,,,,,65,0,,./stim/wavs/puertorican_match_declarative-broad-focus_David-leia-el-libro.wav,,,,,,,,,,,,,,,,,,,,,,338.6806,340.7966,0,1,1.5831,,0,34,34,64,1,0,puertorican,,,,,,,,,,,,,,,,,,,,,,,,,,,,,,,,,,,,,,,,,,,,,,,,,,,,,,,,
,,,,,,,,,5fe2bc6c9177396d90ae7f54,Spanish,13 or older,"no, only English or Spanish",no,2025-08-12_14h23.03.933,empathy_intonation_perc,2024.2.4,Win32,59.88023952,5fe2bc6c9177396d90ae7f54,687ed1b7e638a4cbf2f02089,689b860cd0ae9b5b45d95974,,,,,,,,,,,,,8,1,,./stim/wavs/cuban_match_interrogative-total-yn_Daniel-iba-a-Bolivia.wav,,,,,,,,,,,,,,,,,,,,,,340.7969,344.3787,0,0,3.0536,,0,35,35,7,1,1,cuban,,,,,,,,,,,,,,,,,,,,,,,,,,,,,,,,,,,,,,,,,,,,,,,,,,,,,,,,
,,,,,,,,,5fe2bc6c9177396d90ae7f54,Spanish,13 or older,"no, only English or Spanish",no,2025-08-12_14h23.03.933,empathy_intonation_perc,2024.2.4,Win32,59.88023952,5fe2bc6c9177396d90ae7f54,687ed1b7e638a4cbf2f02089,689b860cd0ae9b5b45d95974,,,,,,,,,,,,,50,0,,./stim/wavs/castilian_match_declarative-broad-focus_Marta-abre-el-regalo.wav,,,,,,,,,,,,,,,,,,,,,,344.3792,347.3281,0,1,2.4276,,0,36,36,49,1,0,castilian,,,,,,,,,,,,,,,,,,,,,,,,,,,,,,,,,,,,,,,,,,,,,,,,,,,,,,,,
,,,,,,,,,5fe2bc6c9177396d90ae7f54,Spanish,13 or older,"no, only English or Spanish",no,2025-08-12_14h23.03.933,empathy_intonation_perc,2024.2.4,Win32,59.88023952,5fe2bc6c9177396d90ae7f54,687ed1b7e638a4cbf2f02089,689b860cd0ae9b5b45d95974,,,,,,,,,,,,,11,1,,./stim/wavs/cuban_match_interrogative-total-yn_Mariano-habla-del-tiempo.wav,,,,,,,,,,,,,,,,,,,,,,347.3285,349.7773,0,0,1.9161,,0,37,37,10,1,1,cuban,,,,,,,,,,,,,,,,,,,,,,,,,,,,,,,,,,,,,,,,,,,,,,,,,,,,,,,,
,,,,,,,,,5fe2bc6c9177396d90ae7f54,Spanish,13 or older,"no, only English or Spanish",no,2025-08-12_14h23.03.933,empathy_intonation_perc,2024.2.4,Win32,59.88023952,5fe2bc6c9177396d90ae7f54,687ed1b7e638a4cbf2f02089,689b860cd0ae9b5b45d95974,,,,,,,,,,,,,57,0,,./stim/wavs/mexican_match_declarative-broad-focus_Ana-lleva-el-abrigo.wav,,,,,,,,,,,,,,,,,,,,,,349.7782,351.9933,0,1,1.6847,,0,38,38,56,1,0,mexican,,,,,,,,,,,,,,,,,,,,,,,,,,,,,,,,,,,,,,,,,,,,,,,,,,,,,,,,
,,,,,,,,,5fe2bc6c9177396d90ae7f54,Spanish,13 or older,"no, only English or Spanish",no,2025-08-12_14h23.03.933,empathy_intonation_perc,2024.2.4,Win32,59.88023952,5fe2bc6c9177396d90ae7f54,687ed1b7e638a4cbf2f02089,689b860cd0ae9b5b45d95974,,,,,,,,,,,,,67,0,,./stim/wavs/puertorican_match_declarative-broad-focus_Manuela-vende-el-carro.wav,,,,,,,,,,,,,,,,,,,,,,351.9937,354.3126,0,1,1.7978,,0,39,39,66,1,0,puertorican,,,,,,,,,,,,,,,,,,,,,,,,,,,,,,,,,,,,,,,,,,,,,,,,,,,,,,,,
,,,,,,,,,5fe2bc6c9177396d90ae7f54,Spanish,13 or older,"no, only English or Spanish",no,2025-08-12_14h23.03.933,empathy_intonation_perc,2024.2.4,Win32,59.88023952,5fe2bc6c9177396d90ae7f54,687ed1b7e638a4cbf2f02089,689b860cd0ae9b5b45d95974,,,,,,,,,,,,,60,0,,./stim/wavs/mexican_match_declarative-broad-focus_Emilio-ama-la-marcha.wav,,,,,,,,,,,,,,,,,,,,,,354.313,357.3755,0,1,2.5367,,0,40,40,59,1,0,mexican,,,,,,,,,,,,,,,,,,,,,,,,,,,,,,,,,,,,,,,,,,,,,,,,,,,,,,,,
,,,,,,,,,5fe2bc6c9177396d90ae7f54,Spanish,13 or older,"no, only English or Spanish",no,2025-08-12_14h23.03.933,empathy_intonation_perc,2024.2.4,Win32,59.88023952,5fe2bc6c9177396d90ae7f54,687ed1b7e638a4cbf2f02089,689b860cd0ae9b5b45d95974,,,,,,,,,,,,,7,1,,./stim/wavs/cuban_match_interrogative-total-yn_Ana-lleva-el-abrigo.wav,,,,,,,,,,,,,,,,,,,,,,357.3761,359.7249,0,0,1.8204,,0,41,41,6,1,1,cuban,,,,,,,,,,,,,,,,,,,,,,,,,,,,,,,,,,,,,,,,,,,,,,,,,,,,,,,,
,,,,,,,,,5fe2bc6c9177396d90ae7f54,Spanish,13 or older,"no, only English or Spanish",no,2025-08-12_14h23.03.933,empathy_intonation_perc,2024.2.4,Win32,59.88023952,5fe2bc6c9177396d90ae7f54,687ed1b7e638a4cbf2f02089,689b860cd0ae9b5b45d95974,,,,,,,,,,,,,14,1,,./stim/wavs/mexican_match_interrogative-total-yn_Daniel-iba-a-Bolivia.wav,,,,,,,,,,,,,,,,,,,,,,359.7255,362.7238,1,1,2.4737,,0,42,42,13,1,0,mexican,,,,,,,,,,,,,,,,,,,,,,,,,,,,,,,,,,,,,,,,,,,,,,,,,,,,,,,,
,,,,,,,,,5fe2bc6c9177396d90ae7f54,Spanish,13 or older,"no, only English or Spanish",no,2025-08-12_14h23.03.933,empathy_intonation_perc,2024.2.4,Win32,59.88023952,5fe2bc6c9177396d90ae7f54,687ed1b7e638a4cbf2f02089,689b860cd0ae9b5b45d95974,,,,,,,,,,,,,28,1,,./stim/wavs/castilian_mismatch_interrogative-total-yn_Mi-novio-viene-del-lago.wav,,,,,,,,,,,,,,,,,,,,,,362.7242,365.3897,1,1,2.1331,,0,43,43,27,1,0,castilian,,,,,,,,,,,,,,,,,,,,,,,,,,,,,,,,,,,,,,,,,,,,,,,,,,,,,,,,
,,,,,,,,,5fe2bc6c9177396d90ae7f54,Spanish,13 or older,"no, only English or Spanish",no,2025-08-12_14h23.03.933,empathy_intonation_perc,2024.2.4,Win32,59.88023952,5fe2bc6c9177396d90ae7f54,687ed1b7e638a4cbf2f02089,689b860cd0ae9b5b45d95974,,,,,,,,,,,,,13,1,,./stim/wavs/mexican_match_interrogative-total-yn_Ana-lleva-el-abrigo.wav,,,,,,,,,,,,,,,,,,,,,,365.3901,367.6392,1,1,1.7166,,0,44,44,12,1,0,mexican,,,,,,,,,,,,,,,,,,,,,,,,,,,,,,,,,,,,,,,,,,,,,,,,,,,,,,,,
,,,,,,,,,5fe2bc6c9177396d90ae7f54,Spanish,13 or older,"no, only English or Spanish",no,2025-08-12_14h23.03.933,empathy_intonation_perc,2024.2.4,Win32,59.88023952,5fe2bc6c9177396d90ae7f54,687ed1b7e638a4cbf2f02089,689b860cd0ae9b5b45d95974,,,,,,,,,,,,,80,0,,./stim/wavs/mexican_mismatch_declarative-broad-focus_El-hombre-mira-la-luna.wav,,,,,,,,,,,,,,,,,,,,,,367.6399,371.3718,0,1,3.1992,,0,45,45,79,1,0,mexican,,,,,,,,,,,,,,,,,,,,,,,,,,,,,,,,,,,,,,,,,,,,,,,,,,,,,,,,
,,,,,,,,,5fe2bc6c9177396d90ae7f54,Spanish,13 or older,"no, only English or Spanish",no,2025-08-12_14h23.03.933,empathy_intonation_perc,2024.2.4,Win32,59.88023952,5fe2bc6c9177396d90ae7f54,687ed1b7e638a4cbf2f02089,689b860cd0ae9b5b45d95974,,,,,,,,,,,,,86,0,,./stim/wavs/puertorican_mismatch_declarative-broad-focus_El-nino-oye-el-rio.wav,,,,,,,,,,,,,,,,,,,,,,371.3724,373.5545,0,1,1.6498,,0,46,46,85,1,0,puertorican,,,,,,,,,,,,,,,,,,,,,,,,,,,,,,,,,,,,,,,,,,,,,,,,,,,,,,,,
,,,,,,,,,5fe2bc6c9177396d90ae7f54,Spanish,13 or older,"no, only English or Spanish",no,2025-08-12_14h23.03.933,empathy_intonation_perc,2024.2.4,Win32,59.88023952,5fe2bc6c9177396d90ae7f54,687ed1b7e638a4cbf2f02089,689b860cd0ae9b5b45d95974,,,,,,,,,,,,,34,1,,./stim/wavs/cuban_mismatch_interrogative-total-yn_Mi-tia-odia-la-lluvia.wav,,,,,,,,,,,,,,,,,,,,,,373.5551,376.4367,1,1,2.3498,,0,47,47,33,1,1,cuban,,,,,,,,,,,,,,,,,,,,,,,,,,,,,,,,,,,,,,,,,,,,,,,,,,,,,,,,
,,,,,,,,,5fe2bc6c9177396d90ae7f54,Spanish,13 or older,"no, only English or Spanish",no,2025-08-12_14h23.03.933,empathy_intonation_perc,2024.2.4,Win32,59.88023952,5fe2bc6c9177396d90ae7f54,687ed1b7e638a4cbf2f02089,689b860cd0ae9b5b45d95974,,,,,,,,,,,,,75,0,,./stim/wavs/cuban_mismatch_declarative-broad-focus_El-hombre-mira-la-luna.wav,,,,,,,,,,,,,,,,,,,,,,376.4371,378.8083,0,1,1.8498,,0,48,48,74,1,0,cuban,,,,,,,,,,,,,,,,,,,,,,,,,,,,,,,,,,,,,,,,,,,,,,,,,,,,,,,,
,,,,,,,,,5fe2bc6c9177396d90ae7f54,Spanish,13 or older,"no, only English or Spanish",no,2025-08-12_14h23.03.933,empathy_intonation_perc,2024.2.4,Win32,59.88023952,5fe2bc6c9177396d90ae7f54,687ed1b7e638a4cbf2f02089,689b860cd0ae9b5b45d95974,,,,,,,,,,,,,79,0,,./stim/wavs/mexican_mismatch_declarative-broad-focus_El-bebe-comia-muy-bien.wav,,,,,,,,,,,,,,,,,,,,,,378.8089,383.7519,1,0,4.4158,,0,49,49,78,1,0,mexican,,,,,,,,,,,,,,,,,,,,,,,,,,,,,,,,,,,,,,,,,,,,,,,,,,,,,,,,
,,,,,,,,,5fe2bc6c9177396d90ae7f54,Spanish,13 or older,"no, only English or Spanish",no,2025-08-12_14h23.03.933,empathy_intonation_perc,2024.2.4,Win32,59.88023952,5fe2bc6c9177396d90ae7f54,687ed1b7e638a4cbf2f02089,689b860cd0ae9b5b45d95974,,,,,,,,,,,,,76,0,,./stim/wavs/cuban_mismatch_declarative-broad-focus_La-nina-lava-el-plato.wav,,,,,,,,,,,,,,,,,,,,,,383.7526,385.8177,0,1,1.5367,,0,50,50,75,1,0,cuban,,,,,,,,,,,,,,,,,,,,,,,,,,,,,,,,,,,,,,,,,,,,,,,,,,,,,,,,
,,,,,,,,,5fe2bc6c9177396d90ae7f54,Spanish,13 or older,"no, only English or Spanish",no,2025-08-12_14h23.03.933,empathy_intonation_perc,2024.2.4,Win32,59.88023952,5fe2bc6c9177396d90ae7f54,687ed1b7e638a4cbf2f02089,689b860cd0ae9b5b45d95974,,,,,,,,,,,,,46,0,,./stim/wavs/castilian_match_declarative-broad-focus_Emilio-ama-la-marcha.wav,,,,,,,,,,,,,,,,,,,,,,385.8184,388.2673,0,1,1.9214,,0,51,51,45,1,0,castilian,,,,,,,,,,,,,,,,,,,,,,,,,,,,,,,,,,,,,,,,,,,,,,,,,,,,,,,,
,,,,,,,,,5fe2bc6c9177396d90ae7f54,Spanish,13 or older,"no, only English or Spanish",no,2025-08-12_14h23.03.933,empathy_intonation_perc,2024.2.4,Win32,59.88023952,5fe2bc6c9177396d90ae7f54,687ed1b7e638a4cbf2f02089,689b860cd0ae9b5b45d95974,,,,,,,,,,,,,70,0,,./stim/wavs/castilian_mismatch_declarative-broad-focus_La-maestra-vive-en-Paris.wav,,,,,,,,,,,,,,,,,,,,,,388.2682,391.6832,0,1,2.8943,,0,52,52,69,1,0,castilian,,,,,,,,,,,,,,,,,,,,,,,,,,,,,,,,,,,,,,,,,,,,,,,,,,,,,,,,
,,,,,,,,,5fe2bc6c9177396d90ae7f54,Spanish,13 or older,"no, only English or Spanish",no,2025-08-12_14h23.03.933,empathy_intonation_perc,2024.2.4,Win32,59.88023952,5fe2bc6c9177396d90ae7f54,687ed1b7e638a4cbf2f02089,689b860cd0ae9b5b45d95974,,,,,,,,,,,,,40,1,,./stim/wavs/puertorican_mismatch_interrogative-total-yn_El-hombre-mira-la-luna.wav,,,,,,,,,,,,,,,,,,,,,,391.6838,394.8985,1,1,2.6842,,0,53,53,39,1,1,puertorican,,,,,,,,,,,,,,,,,,,,,,,,,,,,,,,,,,,,,,,,,,,,,,,,,,,,,,,,
,,,,,,,,,5fe2bc6c9177396d90ae7f54,Spanish,13 or older,"no, only English or Spanish",no,2025-08-12_14h23.03.933,empathy_intonation_perc,2024.2.4,Win32,59.88023952,5fe2bc6c9177396d90ae7f54,687ed1b7e638a4cbf2f02089,689b860cd0ae9b5b45d95974,,,,,,,,,,,,,21,1,,./stim/wavs/puertorican_match_interrogative-total-yn_David-leia-el-libro.wav,,,,,,,,,,,,,,,,,,,,,,394.8989,397.948,0,0,2.5163,,0,54,54,20,1,1,puertorican,,,,,,,,,,,,,,,,,,,,,,,,,,,,,,,,,,,,,,,,,,,,,,,,,,,,,,,,
,,,,,,,,,5fe2bc6c9177396d90ae7f54,Spanish,13 or older,"no, only English or Spanish",no,2025-08-12_14h23.03.933,empathy_intonation_perc,2024.2.4,Win32,59.88023952,5fe2bc6c9177396d90ae7f54,687ed1b7e638a4cbf2f02089,689b860cd0ae9b5b45d95974,,,,,,,,,,,,,26,1,,./stim/wavs/castilian_mismatch_interrogative-total-yn_La-nina-lava-el-plato.wav,,,,,,,,,,,,,,,,,,,,,,397.9488,400.6971,1,1,2.2043,,0,55,55,25,1,0,castilian,,,,,,,,,,,,,,,,,,,,,,,,,,,,,,,,,,,,,,,,,,,,,,,,,,,,,,,,
,,,,,,,,,5fe2bc6c9177396d90ae7f54,Spanish,13 or older,"no, only English or Spanish",no,2025-08-12_14h23.03.933,empathy_intonation_perc,2024.2.4,Win32,59.88023952,5fe2bc6c9177396d90ae7f54,687ed1b7e638a4cbf2f02089,689b860cd0ae9b5b45d95974,,,,,,,,,,,,,30,1,,./stim/wavs/cuban_mismatch_interrogative-total-yn_El-hombre-mira-la-luna.wav,,,,,,,,,,,,,,,,,,,,,,400.6973,403.3466,0,0,2.1193,,0,56,56,29,1,1,cuban,,,,,,,,,,,,,,,,,,,,,,,,,,,,,,,,,,,,,,,,,,,,,,,,,,,,,,,,
,,,,,,,,,5fe2bc6c9177396d90ae7f54,Spanish,13 or older,"no, only English or Spanish",no,2025-08-12_14h23.03.933,empathy_intonation_perc,2024.2.4,Win32,59.88023952,5fe2bc6c9177396d90ae7f54,687ed1b7e638a4cbf2f02089,689b860cd0ae9b5b45d95974,,,,,,,,,,,,,16,1,,./stim/wavs/mexican_match_interrogative-total-yn_Emilio-ama-la-marcha.wav,,,,,,,,,,,,,,,,,,,,,,403.3472,406.0456,1,1,2.1662,,0,57,57,15,1,0,mexican,,,,,,,,,,,,,,,,,,,,,,,,,,,,,,,,,,,,,,,,,,,,,,,,,,,,,,,,
,,,,,,,,,5fe2bc6c9177396d90ae7f54,Spanish,13 or older,"no, only English or Spanish",no,2025-08-12_14h23.03.933,empathy_intonation_perc,2024.2.4,Win32,59.88023952,5fe2bc6c9177396d90ae7f54,687ed1b7e638a4cbf2f02089,689b860cd0ae9b5b45d95974,,,,,,,,,,,,,69,0,,./stim/wavs/castilian_mismatch_declarative-broad-focus_El-nino-oye-el-rio.wav,,,,,,,,,,,,,,,,,,,,,,406.0459,410.761,0,1,4.1824,,0,58,58,68,1,0,castilian,,,,,,,,,,,,,,,,,,,,,,,,,,,,,,,,,,,,,,,,,,,,,,,,,,,,,,,,
,,,,,,,,,5fe2bc6c9177396d90ae7f54,Spanish,13 or older,"no, only English or Spanish",no,2025-08-12_14h23.03.933,empathy_intonation_perc,2024.2.4,Win32,59.88023952,5fe2bc6c9177396d90ae7f54,687ed1b7e638a4cbf2f02089,689b860cd0ae9b5b45d95974,,,,,,,,,,,,,64,0,,./stim/wavs/puertorican_match_declarative-broad-focus_Daniel-iba-a-Bolivia.wav,,,,,,,,,,,,,,,,,,,,,,410.7614,413.177,0,1,1.891,,0,59,59,63,1,0,puertorican,,,,,,,,,,,,,,,,,,,,,,,,,,,,,,,,,,,,,,,,,,,,,,,,,,,,,,,,
,,,,,,,,,5fe2bc6c9177396d90ae7f54,Spanish,13 or older,"no, only English or Spanish",no,2025-08-12_14h23.03.933,empathy_intonation_perc,2024.2.4,Win32,59.88023952,5fe2bc6c9177396d90ae7f54,687ed1b7e638a4cbf2f02089,689b860cd0ae9b5b45d95974,,,,,,,,,,,,,39,1,,./stim/wavs/mexican_mismatch_interrogative-total-yn_Mi-tia-odia-la-lluvia.wav,,,,,,,,,,,,,,,,,,,,,,413.1774,416.1627,1,1,2.4639,,0,60,60,38,1,0,mexican,,,,,,,,,,,,,,,,,,,,,,,,,,,,,,,,,,,,,,,,,,,,,,,,,,,,,,,,
,,,,,,,,,5fe2bc6c9177396d90ae7f54,Spanish,13 or older,"no, only English or Spanish",no,2025-08-12_14h23.03.933,empathy_intonation_perc,2024.2.4,Win32,59.88023952,5fe2bc6c9177396d90ae7f54,687ed1b7e638a4cbf2f02089,689b860cd0ae9b5b45d95974,,,,,,,,,,,,,41,1,,./stim/wavs/puertorican_mismatch_interrogative-total-yn_El-nino-oye-el-rio.wav,,,,,,,,,,,,,,,,,,,,,,416.163,420.625,1,1,3.9401,,0,61,61,40,1,1,puertorican,,,,,,,,,,,,,,,,,,,,,,,,,,,,,,,,,,,,,,,,,,,,,,,,,,,,,,,,
,,,,,,,,,5fe2bc6c9177396d90ae7f54,Spanish,13 or older,"no, only English or Spanish",no,2025-08-12_14h23.03.933,empathy_intonation_perc,2024.2.4,Win32,59.88023952,5fe2bc6c9177396d90ae7f54,687ed1b7e638a4cbf2f02089,689b860cd0ae9b5b45d95974,,,,,,,,,,,,,49,0,,./stim/wavs/castilian_match_declarative-broad-focus_Mariano-habla-del-tiempo.wav,,,,,,,,,,,,,,,,,,,,,,420.6257,423.3743,0,1,2.2161,,0,62,62,48,1,0,castilian,,,,,,,,,,,,,,,,,,,,,,,,,,,,,,,,,,,,,,,,,,,,,,,,,,,,,,,,
,,,,,,,,,5fe2bc6c9177396d90ae7f54,Spanish,13 or older,"no, only English or Spanish",no,2025-08-12_14h23.03.933,empathy_intonation_perc,2024.2.4,Win32,59.88023952,5fe2bc6c9177396d90ae7f54,687ed1b7e638a4cbf2f02089,689b860cd0ae9b5b45d95974,,,,,,,,,,,,,84,0,,./stim/wavs/puertorican_mismatch_declarative-broad-focus_El-bebe-comia-muy-bien.wav,,,,,,,,,,,,,,,,,,,,,,423.375,425.8403,0,1,1.9406,,0,63,63,83,1,0,puertorican,,,,,,,,,,,,,,,,,,,,,,,,,,,,,,,,,,,,,,,,,,,,,,,,,,,,,,,,
,,,,,,,,,5fe2bc6c9177396d90ae7f54,Spanish,13 or older,"no, only English or Spanish",no,2025-08-12_14h23.03.933,empathy_intonation_perc,2024.2.4,Win32,59.88023952,5fe2bc6c9177396d90ae7f54,687ed1b7e638a4cbf2f02089,689b860cd0ae9b5b45d95974,,,,,,,,,,,,,53,0,,./stim/wavs/cuban_match_declarative-broad-focus_Manuela-vende-el-carro.wav,,,,,,,,,,,,,,,,,,,,,,425.8407,429.373,0,1,2.9994,,0,64,64,52,1,0,cuban,,,,,,,,,,,,,,,,,,,,,,,,,,,,,,,,,,,,,,,,,,,,,,,,,,,,,,,,
,,,,,,,,,5fe2bc6c9177396d90ae7f54,Spanish,13 or older,"no, only English or Spanish",no,2025-08-12_14h23.03.933,empathy_intonation_perc,2024.2.4,Win32,59.88023952,5fe2bc6c9177396d90ae7f54,687ed1b7e638a4cbf2f02089,689b860cd0ae9b5b45d95974,,,,,,,,,,,,,36,1,,./stim/wavs/mexican_mismatch_interrogative-total-yn_El-nino-oye-el-rio.wav,,,,,,,,,,,,,,,,,,,,,,429.3736,432.189,1,1,2.2852,,0,65,65,35,1,0,mexican,,,,,,,,,,,,,,,,,,,,,,,,,,,,,,,,,,,,,,,,,,,,,,,,,,,,,,,,
,,,,,,,,,5fe2bc6c9177396d90ae7f54,Spanish,13 or older,"no, only English or Spanish",no,2025-08-12_14h23.03.933,empathy_intonation_perc,2024.2.4,Win32,59.88023952,5fe2bc6c9177396d90ae7f54,687ed1b7e638a4cbf2f02089,689b860cd0ae9b5b45d95974,,,,,,,,,,,,,48,0,,./stim/wavs/castilian_match_declarative-broad-focus_Maria-bebe-el-vino.wav,,,,,,,,,,,,,,,,,,,,,,432.1898,435.0214,0,1,2.2998,,0,66,66,47,1,0,castilian,,,,,,,,,,,,,,,,,,,,,,,,,,,,,,,,,,,,,,,,,,,,,,,,,,,,,,,,
,,,,,,,,,5fe2bc6c9177396d90ae7f54,Spanish,13 or older,"no, only English or Spanish",no,2025-08-12_14h23.03.933,empathy_intonation_perc,2024.2.4,Win32,59.88023952,5fe2bc6c9177396d90ae7f54,687ed1b7e638a4cbf2f02089,689b860cd0ae9b5b45d95974,,,,,,,,,,,,,3,1,,./stim/wavs/castilian_match_interrogative-total-yn_Manuela-vende-el-carro.wav,,,,,,,,,,,,,,,,,,,,,,435.0217,438.0402,1,1,2.4972,,0,67,67,2,1,0,castilian,,,,,,,,,,,,,,,,,,,,,,,,,,,,,,,,,,,,,,,,,,,,,,,,,,,,,,,,
,,,,,,,,,5fe2bc6c9177396d90ae7f54,Spanish,13 or older,"no, only English or Spanish",no,2025-08-12_14h23.03.933,empathy_intonation_perc,2024.2.4,Win32,59.88023952,5fe2bc6c9177396d90ae7f54,687ed1b7e638a4cbf2f02089,689b860cd0ae9b5b45d95974,,,,,,,,,,,,,20,1,,./stim/wavs/puertorican_match_interrogative-total-yn_Daniel-iba-a-Bolivia.wav,,,,,,,,,,,,,,,,,,,,,,438.0406,441.0863,0,0,2.5241,,0,68,68,19,1,1,puertorican,,,,,,,,,,,,,,,,,,,,,,,,,,,,,,,,,,,,,,,,,,,,,,,,,,,,,,,,
,,,,,,,,,5fe2bc6c9177396d90ae7f54,Spanish,13 or older,"no, only English or Spanish",no,2025-08-12_14h23.03.933,empathy_intonation_perc,2024.2.4,Win32,59.88023952,5fe2bc6c9177396d90ae7f54,687ed1b7e638a4cbf2f02089,689b860cd0ae9b5b45d95974,,,,,,,,,,,,,35,1,,./stim/wavs/mexican_mismatch_interrogative-total-yn_El-hombre-mira-la-luna.wav,,,,,,,,,,,,,,,,,,,,,,441.0867,443.7523,1,1,2.1398,,0,69,69,34,1,0,mexican,,,,,,,,,,,,,,,,,,,,,,,,,,,,,,,,,,,,,,,,,,,,,,,,,,,,,,,,
,,,,,,,,,5fe2bc6c9177396d90ae7f54,Spanish,13 or older,"no, only English or Spanish",no,2025-08-12_14h23.03.933,empathy_intonation_perc,2024.2.4,Win32,59.88023952,5fe2bc6c9177396d90ae7f54,687ed1b7e638a4cbf2f02089,689b860cd0ae9b5b45d95974,,,,,,,,,,,,,51,0,,./stim/wavs/cuban_match_declarative-broad-focus_Ana-lleva-el-abrigo.wav,,,,,,,,,,,,,,,,,,,,,,443.7528,446.0017,0,1,1.7185,,0,70,70,50,1,0,cuban,,,,,,,,,,,,,,,,,,,,,,,,,,,,,,,,,,,,,,,,,,,,,,,,,,,,,,,,
,,,,,,,,,5fe2bc6c9177396d90ae7f54,Spanish,13 or older,"no, only English or Spanish",no,2025-08-12_14h23.03.933,empathy_intonation_perc,2024.2.4,Win32,59.88023952,5fe2bc6c9177396d90ae7f54,687ed1b7e638a4cbf2f02089,689b860cd0ae9b5b45d95974,,,,,,,,,,,,,81,0,,./stim/wavs/mexican_mismatch_declarative-broad-focus_La-maestra-vive-en-Paris.wav,,,,,,,,,,,,,,,,,,,,,,446.0023,448.6509,0,1,2.1247,,0,71,71,80,1,0,mexican,,,,,,,,,,,,,,,,,,,,,,,,,,,,,,,,,,,,,,,,,,,,,,,,,,,,,,,,
,,,,,,,,,5fe2bc6c9177396d90ae7f54,Spanish,13 or older,"no, only English or Spanish",no,2025-08-12_14h23.03.933,empathy_intonation_perc,2024.2.4,Win32,59.88023952,5fe2bc6c9177396d90ae7f54,687ed1b7e638a4cbf2f02089,689b860cd0ae9b5b45d95974,,,,,,,,,,,,,29,1,,./stim/wavs/castilian_mismatch_interrogative-total-yn_Mi-tia-odia-la-lluvia.wav,,,,,,,,,,,,,,,,,,,,,,448.6514,451.8001,1,1,2.6218,,0,72,72,28,1,0,castilian,,,,,,,,,,,,,,,,,,,,,,,,,,,,,,,,,,,,,,,,,,,,,,,,,,,,,,,,
,,,,,,,,,5fe2bc6c9177396d90ae7f54,Spanish,13 or older,"no, only English or Spanish",no,2025-08-12_14h23.03.933,empathy_intonation_perc,2024.2.4,Win32,59.88023952,5fe2bc6c9177396d90ae7f54,687ed1b7e638a4cbf2f02089,689b860cd0ae9b5b45d95974,,,,,,,,,,,,,2,1,,./stim/wavs/castilian_match_interrogative-total-yn_Emilio-ama-la-marcha.wav,,,,,,,,,,,,,,,,,,,,,,451.8006,454.5497,1,1,2.2184,,0,73,73,1,1,0,castilian,,,,,,,,,,,,,,,,,,,,,,,,,,,,,,,,,,,,,,,,,,,,,,,,,,,,,,,,
,,,,,,,,,5fe2bc6c9177396d90ae7f54,Spanish,13 or older,"no, only English or Spanish",no,2025-08-12_14h23.03.933,empathy_intonation_perc,2024.2.4,Win32,59.88023952,5fe2bc6c9177396d90ae7f54,687ed1b7e638a4cbf2f02089,689b860cd0ae9b5b45d95974,,,,,,,,,,,,,85,0,,./stim/wavs/puertorican_mismatch_declarative-broad-focus_El-hombre-mira-la-luna.wav,,,,,,,,,,,,,,,,,,,,,,454.5506,457.3318,0,1,2.2599,,0,74,74,84,1,0,puertorican,,,,,,,,,,,,,,,,,,,,,,,,,,,,,,,,,,,,,,,,,,,,,,,,,,,,,,,,
,,,,,,,,,5fe2bc6c9177396d90ae7f54,Spanish,13 or older,"no, only English or Spanish",no,2025-08-12_14h23.03.933,empathy_intonation_perc,2024.2.4,Win32,59.88023952,5fe2bc6c9177396d90ae7f54,687ed1b7e638a4cbf2f02089,689b860cd0ae9b5b45d95974,,,,,,,,,,,,,22,1,,./stim/wavs/puertorican_match_interrogative-total-yn_Emilio-ama-la-marcha.wav,,,,,,,,,,,,,,,,,,,,,,457.3323,459.9316,0,0,2.0671,,0,75,75,21,1,1,puertorican,,,,,,,,,,,,,,,,,,,,,,,,,,,,,,,,,,,,,,,,,,,,,,,,,,,,,,,,
,,,,,,,,,5fe2bc6c9177396d90ae7f54,Spanish,13 or older,"no, only English or Spanish",no,2025-08-12_14h23.03.933,empathy_intonation_perc,2024.2.4,Win32,59.88023952,5fe2bc6c9177396d90ae7f54,687ed1b7e638a4cbf2f02089,689b860cd0ae9b5b45d95974,,,,,,,,,,,,,55,0,,./stim/wavs/cuban_match_declarative-broad-focus_Mariano-habla-del-tiempo.wav,,,,,,,,,,,,,,,,,,,,,,459.9323,462.4308,0,1,1.9729,,0,76,76,54,1,0,cuban,,,,,,,,,,,,,,,,,,,,,,,,,,,,,,,,,,,,,,,,,,,,,,,,,,,,,,,,
,,,,,,,,,5fe2bc6c9177396d90ae7f54,Spanish,13 or older,"no, only English or Spanish",no,2025-08-12_14h23.03.933,empathy_intonation_perc,2024.2.4,Win32,59.88023952,5fe2bc6c9177396d90ae7f54,687ed1b7e638a4cbf2f02089,689b860cd0ae9b5b45d95974,,,,,,,,,,,,,77,0,,./stim/wavs/cuban_mismatch_declarative-broad-focus_Mi-novio-viene-del-lago.wav,,,,,,,,,,,,,,,,,,,,,,462.4315,464.9135,0,1,1.9499,,0,77,77,76,1,0,cuban,,,,,,,,,,,,,,,,,,,,,,,,,,,,,,,,,,,,,,,,,,,,,,,,,,,,,,,,
,,,,,,,,,5fe2bc6c9177396d90ae7f54,Spanish,13 or older,"no, only English or Spanish",no,2025-08-12_14h23.03.933,empathy_intonation_perc,2024.2.4,Win32,59.88023952,5fe2bc6c9177396d90ae7f54,687ed1b7e638a4cbf2f02089,689b860cd0ae9b5b45d95974,,,,,,,,,,,,,23,1,,./stim/wavs/puertorican_match_interrogative-total-yn_Manuela-vende-el-carro.wav,,,,,,,,,,,,,,,,,,,,,,464.9142,467.9961,0,0,2.5527,,0,78,78,22,1,1,puertorican,,,,,,,,,,,,,,,,,,,,,,,,,,,,,,,,,,,,,,,,,,,,,,,,,,,,,,,,
,,,,,,,,,5fe2bc6c9177396d90ae7f54,Spanish,13 or older,"no, only English or Spanish",no,2025-08-12_14h23.03.933,empathy_intonation_perc,2024.2.4,Win32,59.88023952,5fe2bc6c9177396d90ae7f54,687ed1b7e638a4cbf2f02089,689b860cd0ae9b5b45d95974,,,,,,,,,,,,,43,1,,./stim/wavs/puertorican_mismatch_interrogative-total-yn_La-nina-lava-el-plato.wav,,,,,,,,,,,,,,,,,,,,,,467.997,470.2119,0,0,1.6844,,0,79,79,42,1,1,puertorican,,,,,,,,,,,,,,,,,,,,,,,,,,,,,,,,,,,,,,,,,,,,,,,,,,,,,,,,
,,,,,,,,,5fe2bc6c9177396d90ae7f54,Spanish,13 or older,"no, only English or Spanish",no,2025-08-12_14h23.03.933,empathy_intonation_perc,2024.2.4,Win32,59.88023952,5fe2bc6c9177396d90ae7f54,687ed1b7e638a4cbf2f02089,689b860cd0ae9b5b45d95974,,,,,,,,,,,,,61,0,,./stim/wavs/mexican_match_declarative-broad-focus_Mariano-habla-del-tiempo.wav,,,,,,,,,,,,,,,,,,,,,,470.2125,472.6112,0,1,1.8661,,0,80,80,60,1,0,mexican,,,,,,,,,,,,,,,,,,,,,,,,,,,,,,,,,,,,,,,,,,,,,,,,,,,,,,,,
,,,,,,,,,5fe2bc6c9177396d90ae7f54,Spanish,13 or older,"no, only English or Spanish",no,2025-08-12_14h23.03.933,empathy_intonation_perc,2024.2.4,Win32,59.88023952,5fe2bc6c9177396d90ae7f54,687ed1b7e638a4cbf2f02089,689b860cd0ae9b5b45d95974,,,,,,,,,,,,,4,1,,./stim/wavs/castilian_match_interrogative-total-yn_Maria-bebe-el-vino.wav,,,,,,,,,,,,,,,,,,,,,,472.6117,475.1272,1,1,1.9741,,0,81,81,3,1,0,castilian,,,,,,,,,,,,,,,,,,,,,,,,,,,,,,,,,,,,,,,,,,,,,,,,,,,,,,,,
,,,,,,,,,5fe2bc6c9177396d90ae7f54,Spanish,13 or older,"no, only English or Spanish",no,2025-08-12_14h23.03.933,empathy_intonation_perc,2024.2.4,Win32,59.88023952,5fe2bc6c9177396d90ae7f54,687ed1b7e638a4cbf2f02089,689b860cd0ae9b5b45d95974,,,,,,,,,,,,,54,0,,./stim/wavs/cuban_match_declarative-broad-focus_Maria-bebe-el-vino.wav,,,,,,,,,,,,,,,,,,,,,,475.1275,479.2094,1,0,3.5492,,0,82,82,53,1,0,cuban,,,,,,,,,,,,,,,,,,,,,,,,,,,,,,,,,,,,,,,,,,,,,,,,,,,,,,,,
,,,,,,,,,5fe2bc6c9177396d90ae7f54,Spanish,13 or older,"no, only English or Spanish",no,2025-08-12_14h23.03.933,empathy_intonation_perc,2024.2.4,Win32,59.88023952,5fe2bc6c9177396d90ae7f54,687ed1b7e638a4cbf2f02089,689b860cd0ae9b5b45d95974,,,,,,,,,,,,,37,1,,./stim/wavs/mexican_mismatch_interrogative-total-yn_La-maestra-vive-en-Paris.wav,,,,,,,,,,,,,,,,,,,,,,479.21,482.542,1,1,2.8014,,0,83,83,36,1,0,mexican,,,,,,,,,,,,,,,,,,,,,,,,,,,,,,,,,,,,,,,,,,,,,,,,,,,,,,,,
,,,,,,,,,5fe2bc6c9177396d90ae7f54,Spanish,13 or older,"no, only English or Spanish",no,2025-08-12_14h23.03.933,empathy_intonation_perc,2024.2.4,Win32,59.88023952,5fe2bc6c9177396d90ae7f54,687ed1b7e638a4cbf2f02089,689b860cd0ae9b5b45d95974,,,,,,,,,,,,,25,1,,./stim/wavs/castilian_mismatch_interrogative-total-yn_La-maestra-vive-en-Paris.wav,,,,,,,,,,,,,,,,,,,,,,482.5427,485.8412,1,1,2.766,,0,84,84,24,1,0,castilian,,,,,,,,,,,,,,,,,,,,,,,,,,,,,,,,,,,,,,,,,,,,,,,,,,,,,,,,
,,,,,,,,,5fe2bc6c9177396d90ae7f54,Spanish,13 or older,"no, only English or Spanish",no,2025-08-12_14h23.03.933,empathy_intonation_perc,2024.2.4,Win32,59.88023952,5fe2bc6c9177396d90ae7f54,687ed1b7e638a4cbf2f02089,689b860cd0ae9b5b45d95974,,,,,,,,,,,,,15,1,,./stim/wavs/mexican_match_interrogative-total-yn_David-leia-el-libro.wav,,,,,,,,,,,,,,,,,,,,,,485.8418,488.7906,1,1,2.4224,,0,85,85,14,1,0,mexican,,,,,,,,,,,,,,,,,,,,,,,,,,,,,,,,,,,,,,,,,,,,,,,,,,,,,,,,
,,,,,,,,,5fe2bc6c9177396d90ae7f54,Spanish,13 or older,"no, only English or Spanish",no,2025-08-12_14h23.03.933,empathy_intonation_perc,2024.2.4,Win32,59.88023952,5fe2bc6c9177396d90ae7f54,687ed1b7e638a4cbf2f02089,689b860cd0ae9b5b45d95974,,,,,,,,,,,,,73,0,,./stim/wavs/castilian_mismatch_declarative-broad-focus_Mi-tia-odia-la-lluvia.wav,,,,,,,,,,,,,,,,,,,,,,488.7913,491.7896,0,1,2.4664,,0,86,86,72,1,0,castilian,,,,,,,,,,,,,,,,,,,,,,,,,,,,,,,,,,,,,,,,,,,,,,,,,,,,,,,,
,,,,,,,,,5fe2bc6c9177396d90ae7f54,Spanish,13 or older,"no, only English or Spanish",no,2025-08-12_14h23.03.933,empathy_intonation_perc,2024.2.4,Win32,59.88023952,5fe2bc6c9177396d90ae7f54,687ed1b7e638a4cbf2f02089,689b860cd0ae9b5b45d95974,,,,,,,,,,,,,12,1,,./stim/wavs/cuban_match_interrogative-total-yn_Marta-abre-el-regalo.wav,,,,,,,,,,,,,,,,,,,,,,491.7901,495.1388,0,0,2.8167,,0,87,87,11,1,1,cuban,,,,,,,,,,,,,,,,,,,,,,,,,,,,,,,,,,,,,,,,,,,,,,,,,,,,,,,,
,,,,,,,"Great! Now we will move on. The next task consists of about 60 trials, in each of which you will see a string of letters. 
  
  Your task is to decide whether this is a real Spanish word or not.", (press the spacebar to continue),5fe2bc6c9177396d90ae7f54,Spanish,13 or older,"no, only English or Spanish",no,2025-08-12_14h23.03.933,empathy_intonation_perc,2024.2.4,Win32,59.88023952,5fe2bc6c9177396d90ae7f54,687ed1b7e638a4cbf2f02089,689b860cd0ae9b5b45d95974,,,,,,,,,,,,,,,,,,,,,,,,,,,,,,,,,,,,,,,,,,,,,,,,,,,495.1458,502.5209,0,0,0,0,1,,,,,,,,,,,,,,,,,,,,,,,,,,,,,,,,,,,,,,,,,,,,,,,,,
,,,,,,,"If you think it is an existing Spanish word, you type '1' (for 'REAL'), and if you think it is not an existing Spanish word, you type '0' (for 'FAKE').", (press the spacebar to continue),5fe2bc6c9177396d90ae7f54,Spanish,13 or older,"no, only English or Spanish",no,2025-08-12_14h23.03.933,empathy_intonation_perc,2024.2.4,Win32,59.88023952,5fe2bc6c9177396d90ae7f54,687ed1b7e638a4cbf2f02089,689b860cd0ae9b5b45d95974,,,,,,,,,,,,,,,,,,,,,,,,,,,,,,,,,,,,,,,,,,,,,,,,,,,502.5227,507.6024,0,1,1,1,1,,,,,,,,,,,,,,,,,,,,,,,,,,,,,,,,,,,,,,,,,,,,,,,,,
,,,,,,,"If you are sure that the word exists, even though you don’t know its exact meaning, you may still respond '1' (REAL). 
  
  But if you are not sure if it is an existing word, you should respond '0' (FAKE).
  
  Let's do a practice round...", (press the spacebar to continue),5fe2bc6c9177396d90ae7f54,Spanish,13 or older,"no, only English or Spanish",no,2025-08-12_14h23.03.933,empathy_intonation_perc,2024.2.4,Win32,59.88023952,5fe2bc6c9177396d90ae7f54,687ed1b7e638a4cbf2f02089,689b860cd0ae9b5b45d95974,,,,,,,,,,,,,,,,,,,,,,,,,,,,,,,,,,,,,,,,,,,,,,,,,,,507.6042,510.6513,0,2,2,2,1,,,,,,,,,,,,,,,,,,,,,,,,,,,,,,,,,,,,,,,,,,,,,,,,,
,,,,,,,,,5fe2bc6c9177396d90ae7f54,Spanish,13 or older,"no, only English or Spanish",no,2025-08-12_14h23.03.933,empathy_intonation_perc,2024.2.4,Win32,59.88023952,5fe2bc6c9177396d90ae7f54,687ed1b7e638a4cbf2f02089,689b860cd0ae9b5b45d95974,,,,,,,,,,,,,,0,,,,,,,,,,,,,,,,,,,,,,,,,,,,,,,,,,,,,,,,,,,,510.6553,515.4006,1,0,4.2061,,515.4011,516.3998,0,0,0,0,1,0,depiste,REAL,FAKE,,,,,,,,,,,,,,,,,,,,,,,,,,,,,,,,
,,,,,,,,,5fe2bc6c9177396d90ae7f54,Spanish,13 or older,"no, only English or Spanish",no,2025-08-12_14h23.03.933,empathy_intonation_perc,2024.2.4,Win32,59.88023952,5fe2bc6c9177396d90ae7f54,687ed1b7e638a4cbf2f02089,689b860cd0ae9b5b45d95974,,,,,,,,,,,,,,1,,,,,,,,,,,,,,,,,,,,,,,,,,,,,,,,,,,,,,,,,,,,516.4016,519.5987,1,1,2.6517,,519.5993,520.599,0,1,1,1,1,0,sí,REAL,FAKE,,,,,,,,,,,,,,,,,,,,,,,,,,,,,,,,
,,,,,,,,,5fe2bc6c9177396d90ae7f54,Spanish,13 or older,"no, only English or Spanish",no,2025-08-12_14h23.03.933,empathy_intonation_perc,2024.2.4,Win32,59.88023952,5fe2bc6c9177396d90ae7f54,687ed1b7e638a4cbf2f02089,689b860cd0ae9b5b45d95974,,,,,,,,,,,,,,0,,,,,,,,,,,,,,,,,,,,,,,,,,,,,,,,,,,,,,,,,,,,520.6005,523.348,0,1,2.2049,,523.3481,524.3478,0,2,2,2,1,0,coné,REAL,FAKE,,,,,,,,,,,,,,,,,,,,,,,,,,,,,,,,
,,,,,,,,,5fe2bc6c9177396d90ae7f54,Spanish,13 or older,"no, only English or Spanish",no,2025-08-12_14h23.03.933,empathy_intonation_perc,2024.2.4,Win32,59.88023952,5fe2bc6c9177396d90ae7f54,687ed1b7e638a4cbf2f02089,689b860cd0ae9b5b45d95974,,,,,,,,,,,,,,0,,,,,,,,,,,,,,,,,,,,,,,,,,,,,,,,,,,,,,,,,,,,524.3492,526.4971,1,0,1.6079,,526.4981,527.4969,0,3,3,3,1,0,calpar,REAL,FAKE,,,,,,,,,,,,,,,,,,,,,,,,,,,,,,,,
,,,,,,,,,5fe2bc6c9177396d90ae7f54,Spanish,13 or older,"no, only English or Spanish",no,2025-08-12_14h23.03.933,empathy_intonation_perc,2024.2.4,Win32,59.88023952,5fe2bc6c9177396d90ae7f54,687ed1b7e638a4cbf2f02089,689b860cd0ae9b5b45d95974,,,,,,,,,,,,,,0,,,,,,,,,,,,,,,,,,,,,,,,,,,,,,,,,,,,,,,,,,,,527.4982,529.7128,0,1,1.6752,,529.7133,530.7125,0,4,4,4,1,0,joten,REAL,FAKE,,,,,,,,,,,,,,,,,,,,,,,,,,,,,,,,
,,,,,,,,,5fe2bc6c9177396d90ae7f54,Spanish,13 or older,"no, only English or Spanish",no,2025-08-12_14h23.03.933,empathy_intonation_perc,2024.2.4,Win32,59.88023952,5fe2bc6c9177396d90ae7f54,687ed1b7e638a4cbf2f02089,689b860cd0ae9b5b45d95974,,,,,,,,,,,,,,1,,,,,,,,,,,,,,,,,,,,,,,,,,,,,,,,,,,,,,,,,,,,530.7131,534.9946,1,1,3.7406,,534.9947,535.9946,0,5,5,5,1,0,sacapuntas,REAL,FAKE,,,,,,,,,,,,,,,,,,,,,,,,,,,,,,,,
,,,,,,,,,5fe2bc6c9177396d90ae7f54,Spanish,13 or older,"no, only English or Spanish",no,2025-08-12_14h23.03.933,empathy_intonation_perc,2024.2.4,Win32,59.88023952,5fe2bc6c9177396d90ae7f54,687ed1b7e638a4cbf2f02089,689b860cd0ae9b5b45d95974,,,,,,,,,,,,,,0,,,,,,,,,,,,,,,,,,,,,,,,,,,,,,,,,,,,,,,,,,,,535.9961,537.9275,1,0,1.3891,,537.9282,538.927,0,6,6,6,1,0,priba,REAL,FAKE,,,,,,,,,,,,,,,,,,,,,,,,,,,,,,,,
,,,,,,,,,5fe2bc6c9177396d90ae7f54,Spanish,13 or older,"no, only English or Spanish",no,2025-08-12_14h23.03.933,empathy_intonation_perc,2024.2.4,Win32,59.88023952,5fe2bc6c9177396d90ae7f54,687ed1b7e638a4cbf2f02089,689b860cd0ae9b5b45d95974,,,,,,,,,,,,,,0,,,,,,,,,,,,,,,,,,,,,,,,,,,,,,,,,,,,,,,,,,,,538.9278,541.0097,1,0,1.5425,,541.0098,542.0094,0,7,7,7,1,0,pelasula,REAL,FAKE,,,,,,,,,,,,,,,,,,,,,,,,,,,,,,,,
,,,,,,,,,5fe2bc6c9177396d90ae7f54,Spanish,13 or older,"no, only English or Spanish",no,2025-08-12_14h23.03.933,empathy_intonation_perc,2024.2.4,Win32,59.88023952,5fe2bc6c9177396d90ae7f54,687ed1b7e638a4cbf2f02089,689b860cd0ae9b5b45d95974,,,,,,,,,,,,,,1,,,,,,,,,,,,,,,,,,,,,,,,,,,,,,,,,,,,,,,,,,,,542.0101,544.3758,1,1,1.8168,,544.3768,545.3755,0,8,8,8,1,0,bien,REAL,FAKE,,,,,,,,,,,,,,,,,,,,,,,,,,,,,,,,
,,,,,,,,,5fe2bc6c9177396d90ae7f54,Spanish,13 or older,"no, only English or Spanish",no,2025-08-12_14h23.03.933,empathy_intonation_perc,2024.2.4,Win32,59.88023952,5fe2bc6c9177396d90ae7f54,687ed1b7e638a4cbf2f02089,689b860cd0ae9b5b45d95974,,,,,,,,,,,,,,1,,,,,,,,,,,,,,,,,,,,,,,,,,,,,,,,,,,,,,,,,,,,545.3771,546.7252,1,1,0.8115,,546.7252,547.7249,0,9,9,9,1,0,casa,REAL,FAKE,,,,,,,,,,,,,,,,,,,,,,,,,,,,,,,,
,,,,,,,,,5fe2bc6c9177396d90ae7f54,Spanish,13 or older,"no, only English or Spanish",no,2025-08-12_14h23.03.933,empathy_intonation_perc,2024.2.4,Win32,59.88023952,5fe2bc6c9177396d90ae7f54,687ed1b7e638a4cbf2f02089,689b860cd0ae9b5b45d95974,,,,,,,,,,,,,,0,,,,,,,,,,,,,,,,,,,,,,,,,,,,,,,,,,,,,,,,,,,,547.7262,549.211,1,0,0.9481,,549.2118,550.2074,0,10,10,10,1,0,lejo,REAL,FAKE,,,,,,,,,,,,,,,,,,,,,,,,,,,,,,,,
,,,,,,,,,5fe2bc6c9177396d90ae7f54,Spanish,13 or older,"no, only English or Spanish",no,2025-08-12_14h23.03.933,empathy_intonation_perc,2024.2.4,Win32,59.88023952,5fe2bc6c9177396d90ae7f54,687ed1b7e638a4cbf2f02089,689b860cd0ae9b5b45d95974,,,,,,,,,,,,,,0,,,,,,,,,,,,,,,,,,,,,,,,,,,,,,,,,,,,,,,,,,,,550.2085,553.5286,1,0,2.7828,,553.5286,554.5229,0,11,11,11,1,0,pretantas,REAL,FAKE,,,,,,,,,,,,,,,,,,,,,,,,,,,,,,,,
,,,,,,,,,5fe2bc6c9177396d90ae7f54,Spanish,13 or older,"no, only English or Spanish",no,2025-08-12_14h23.03.933,empathy_intonation_perc,2024.2.4,Win32,59.88023952,5fe2bc6c9177396d90ae7f54,687ed1b7e638a4cbf2f02089,689b860cd0ae9b5b45d95974,,,,,,,,,,,,,,,,,,,,,,,,,,,,,,,,,,,,,,,,,,,,,,,,,,,,,,,,,,,,,,,,,,,,,,,,,,,554.5231,556.2392,,,,,,,,,,,,,,,,,,,,,,,,,,,,,,
,,,,,,,,,5fe2bc6c9177396d90ae7f54,Spanish,13 or older,"no, only English or Spanish",no,2025-08-12_14h23.03.933,empathy_intonation_perc,2024.2.4,Win32,59.88023952,5fe2bc6c9177396d90ae7f54,687ed1b7e638a4cbf2f02089,689b860cd0ae9b5b45d95974,,,,,,,,,,,,,,1,,,,,,,,,,,,,,,,,,,,,,,,,,,,,,,,,,,,,,,,,,,,,,,,,,,,,,,,,28,merodear,,,,,556.2467,558.9886,0,0,2.2071,,0,0,0,27,1,REAL,FAKE,,,,,,,,,,,,,,,,,
,,,,,,,,,5fe2bc6c9177396d90ae7f54,Spanish,13 or older,"no, only English or Spanish",no,2025-08-12_14h23.03.933,empathy_intonation_perc,2024.2.4,Win32,59.88023952,5fe2bc6c9177396d90ae7f54,687ed1b7e638a4cbf2f02089,689b860cd0ae9b5b45d95974,,,,,,,,,,,,,,1,,,,,,,,,,,,,,,,,,,,,,,,,,,,,,,,,,,,,,,,,,,,,,,,,,,,,,,,,48,ladrón,,,,,558.9905,561.971,1,1,2.4496,,0,1,1,47,1,REAL,FAKE,,,,,,,,,,,,,,,,,
,,,,,,,,,5fe2bc6c9177396d90ae7f54,Spanish,13 or older,"no, only English or Spanish",no,2025-08-12_14h23.03.933,empathy_intonation_perc,2024.2.4,Win32,59.88023952,5fe2bc6c9177396d90ae7f54,687ed1b7e638a4cbf2f02089,689b860cd0ae9b5b45d95974,,,,,,,,,,,,,,1,,,,,,,,,,,,,,,,,,,,,,,,,,,,,,,,,,,,,,,,,,,,,,,,,,,,,,,,,88,acantilado,,,,,561.9721,566.6696,1,1,4.1571,,0,2,2,87,1,REAL,FAKE,,,,,,,,,,,,,,,,,
,,,,,,,,,5fe2bc6c9177396d90ae7f54,Spanish,13 or older,"no, only English or Spanish",no,2025-08-12_14h23.03.933,empathy_intonation_perc,2024.2.4,Win32,59.88023952,5fe2bc6c9177396d90ae7f54,687ed1b7e638a4cbf2f02089,689b860cd0ae9b5b45d95974,,,,,,,,,,,,,,0,,,,,,,,,,,,,,,,,,,,,,,,,,,,,,,,,,,,,,,,,,,,,,,,,,,,,,,,,27,acutación,,,,,566.6706,569.6857,1,0,2.4661,,0,3,3,26,1,REAL,FAKE,,,,,,,,,,,,,,,,,
,,,,,,,,,5fe2bc6c9177396d90ae7f54,Spanish,13 or older,"no, only English or Spanish",no,2025-08-12_14h23.03.933,empathy_intonation_perc,2024.2.4,Win32,59.88023952,5fe2bc6c9177396d90ae7f54,687ed1b7e638a4cbf2f02089,689b860cd0ae9b5b45d95974,,,,,,,,,,,,,,0,,,,,,,,,,,,,,,,,,,,,,,,,,,,,,,,,,,,,,,,,,,,,,,,,,,,,,,,,1,terzo,,,,,569.6869,571.3685,0,1,1.1333,,0,4,4,0,1,REAL,FAKE,,,,,,,,,,,,,,,,,
,,,,,,,,,5fe2bc6c9177396d90ae7f54,Spanish,13 or older,"no, only English or Spanish",no,2025-08-12_14h23.03.933,empathy_intonation_perc,2024.2.4,Win32,59.88023952,5fe2bc6c9177396d90ae7f54,687ed1b7e638a4cbf2f02089,689b860cd0ae9b5b45d95974,,,,,,,,,,,,,,0,,,,,,,,,,,,,,,,,,,,,,,,,,,,,,,,,,,,,,,,,,,,,,,,,,,,,,,,,50,flamida,,,,,571.3696,573.8013,0,1,1.8832,,0,5,5,49,1,REAL,FAKE,,,,,,,,,,,,,,,,,
,,,,,,,,,5fe2bc6c9177396d90ae7f54,Spanish,13 or older,"no, only English or Spanish",no,2025-08-12_14h23.03.933,empathy_intonation_perc,2024.2.4,Win32,59.88023952,5fe2bc6c9177396d90ae7f54,687ed1b7e638a4cbf2f02089,689b860cd0ae9b5b45d95974,,,,,,,,,,,,,,1,,,,,,,,,,,,,,,,,,,,,,,,,,,,,,,,,,,,,,,,,,,,,,,,,,,,,,,,,90,clavel,,,,,573.8027,577.5502,1,1,3.2209,,0,6,6,89,1,REAL,FAKE,,,,,,,,,,,,,,,,,
,,,,,,,,,5fe2bc6c9177396d90ae7f54,Spanish,13 or older,"no, only English or Spanish",no,2025-08-12_14h23.03.933,empathy_intonation_perc,2024.2.4,Win32,59.88023952,5fe2bc6c9177396d90ae7f54,687ed1b7e638a4cbf2f02089,689b860cd0ae9b5b45d95974,,,,,,,,,,,,,,1,,,,,,,,,,,,,,,,,,,,,,,,,,,,,,,,,,,,,,,,,,,,,,,,,,,,,,,,,39,torpe,,,,,577.5511,579.6331,0,0,1.5386,,0,7,7,38,1,REAL,FAKE,,,,,,,,,,,,,,,,,
,,,,,,,,,5fe2bc6c9177396d90ae7f54,Spanish,13 or older,"no, only English or Spanish",no,2025-08-12_14h23.03.933,empathy_intonation_perc,2024.2.4,Win32,59.88023952,5fe2bc6c9177396d90ae7f54,687ed1b7e638a4cbf2f02089,689b860cd0ae9b5b45d95974,,,,,,,,,,,,,,1,,,,,,,,,,,,,,,,,,,,,,,,,,,,,,,,,,,,,,,,,,,,,,,,,,,,,,,,,64,orgulloso,,,,,579.6339,581.4159,0,0,1.2617,,0,8,8,63,1,REAL,FAKE,,,,,,,,,,,,,,,,,
,,,,,,,,,5fe2bc6c9177396d90ae7f54,Spanish,13 or older,"no, only English or Spanish",no,2025-08-12_14h23.03.933,empathy_intonation_perc,2024.2.4,Win32,59.88023952,5fe2bc6c9177396d90ae7f54,687ed1b7e638a4cbf2f02089,689b860cd0ae9b5b45d95974,,,,,,,,,,,,,,1,,,,,,,,,,,,,,,,,,,,,,,,,,,,,,,,,,,,,,,,,,,,,,,,,,,,,,,,,5,zapato,,,,,581.4167,583.0319,1,1,1.0744,,0,9,9,4,1,REAL,FAKE,,,,,,,,,,,,,,,,,
,,,,,,,,,5fe2bc6c9177396d90ae7f54,Spanish,13 or older,"no, only English or Spanish",no,2025-08-12_14h23.03.933,empathy_intonation_perc,2024.2.4,Win32,59.88023952,5fe2bc6c9177396d90ae7f54,687ed1b7e638a4cbf2f02089,689b860cd0ae9b5b45d95974,,,,,,,,,,,,,,1,,,,,,,,,,,,,,,,,,,,,,,,,,,,,,,,,,,,,,,,,,,,,,,,,,,,,,,,,71,polvoriento,,,,,583.0333,587.6307,0,0,4.0493,,0,10,10,70,1,REAL,FAKE,,,,,,,,,,,,,,,,,
,,,,,,,,,5fe2bc6c9177396d90ae7f54,Spanish,13 or older,"no, only English or Spanish",no,2025-08-12_14h23.03.933,empathy_intonation_perc,2024.2.4,Win32,59.88023952,5fe2bc6c9177396d90ae7f54,687ed1b7e638a4cbf2f02089,689b860cd0ae9b5b45d95974,,,,,,,,,,,,,,1,,,,,,,,,,,,,,,,,,,,,,,,,,,,,,,,,,,,,,,,,,,,,,,,,,,,,,,,,62,flaco,,,,,587.6314,589.0805,0,0,0.9019,,0,11,11,61,1,REAL,FAKE,,,,,,,,,,,,,,,,,
,,,,,,,,,5fe2bc6c9177396d90ae7f54,Spanish,13 or older,"no, only English or Spanish",no,2025-08-12_14h23.03.933,empathy_intonation_perc,2024.2.4,Win32,59.88023952,5fe2bc6c9177396d90ae7f54,687ed1b7e638a4cbf2f02089,689b860cd0ae9b5b45d95974,,,,,,,,,,,,,,1,,,,,,,,,,,,,,,,,,,,,,,,,,,,,,,,,,,,,,,,,,,,,,,,,,,,,,,,,89,prisa,,,,,589.0816,590.9464,1,1,1.3165,,0,12,12,88,1,REAL,FAKE,,,,,,,,,,,,,,,,,
,,,,,,,,,5fe2bc6c9177396d90ae7f54,Spanish,13 or older,"no, only English or Spanish",no,2025-08-12_14h23.03.933,empathy_intonation_perc,2024.2.4,Win32,59.88023952,5fe2bc6c9177396d90ae7f54,687ed1b7e638a4cbf2f02089,689b860cd0ae9b5b45d95974,,,,,,,,,,,,,,1,,,,,,,,,,,,,,,,,,,,,,,,,,,,,,,,,,,,,,,,,,,,,,,,,,,,,,,,,49,ganar,,,,,590.9471,593.396,1,1,1.9111,,0,13,13,48,1,REAL,FAKE,,,,,,,,,,,,,,,,,
,,,,,,,,,5fe2bc6c9177396d90ae7f54,Spanish,13 or older,"no, only English or Spanish",no,2025-08-12_14h23.03.933,empathy_intonation_perc,2024.2.4,Win32,59.88023952,5fe2bc6c9177396d90ae7f54,687ed1b7e638a4cbf2f02089,689b860cd0ae9b5b45d95974,,,,,,,,,,,,,,1,,,,,,,,,,,,,,,,,,,,,,,,,,,,,,,,,,,,,,,,,,,,,,,,,,,,,,,,,60,matar,,,,,593.3971,594.8454,1,1,0.9081,,0,14,14,59,1,REAL,FAKE,,,,,,,,,,,,,,,,,
,,,,,,,,,5fe2bc6c9177396d90ae7f54,Spanish,13 or older,"no, only English or Spanish",no,2025-08-12_14h23.03.933,empathy_intonation_perc,2024.2.4,Win32,59.88023952,5fe2bc6c9177396d90ae7f54,687ed1b7e638a4cbf2f02089,689b860cd0ae9b5b45d95974,,,,,,,,,,,,,,1,,,,,,,,,,,,,,,,,,,,,,,,,,,,,,,,,,,,,,,,,,,,,,,,,,,,,,,,,20,ávido,,,,,594.847,597.4447,1,1,2.0544,,0,15,15,19,1,REAL,FAKE,,,,,,,,,,,,,,,,,
,,,,,,,,,5fe2bc6c9177396d90ae7f54,Spanish,13 or older,"no, only English or Spanish",no,2025-08-12_14h23.03.933,empathy_intonation_perc,2024.2.4,Win32,59.88023952,5fe2bc6c9177396d90ae7f54,687ed1b7e638a4cbf2f02089,689b860cd0ae9b5b45d95974,,,,,,,,,,,,,,1,,,,,,,,,,,,,,,,,,,,,,,,,,,,,,,,,,,,,,,,,,,,,,,,,,,,,,,,,2,pellizcar,,,,,597.4453,599.4775,0,0,1.4917,,0,16,16,1,1,REAL,FAKE,,,,,,,,,,,,,,,,,
,,,,,,,,,5fe2bc6c9177396d90ae7f54,Spanish,13 or older,"no, only English or Spanish",no,2025-08-12_14h23.03.933,empathy_intonation_perc,2024.2.4,Win32,59.88023952,5fe2bc6c9177396d90ae7f54,687ed1b7e638a4cbf2f02089,689b860cd0ae9b5b45d95974,,,,,,,,,,,,,,1,,,,,,,,,,,,,,,,,,,,,,,,,,,,,,,,,,,,,,,,,,,,,,,,,,,,,,,,,43,canela,,,,,599.4784,602.3934,1,1,2.3663,,0,17,17,42,1,REAL,FAKE,,,,,,,,,,,,,,,,,
,,,,,,,,,5fe2bc6c9177396d90ae7f54,Spanish,13 or older,"no, only English or Spanish",no,2025-08-12_14h23.03.933,empathy_intonation_perc,2024.2.4,Win32,59.88023952,5fe2bc6c9177396d90ae7f54,687ed1b7e638a4cbf2f02089,689b860cd0ae9b5b45d95974,,,,,,,,,,,,,,1,,,,,,,,,,,,,,,,,,,,,,,,,,,,,,,,,,,,,,,,,,,,,,,,,,,,,,,,,73,hervidor,,,,,602.3941,604.3932,0,0,1.4504,,0,18,18,72,1,REAL,FAKE,,,,,,,,,,,,,,,,,
,,,,,,,,,5fe2bc6c9177396d90ae7f54,Spanish,13 or older,"no, only English or Spanish",no,2025-08-12_14h23.03.933,empathy_intonation_perc,2024.2.4,Win32,59.88023952,5fe2bc6c9177396d90ae7f54,687ed1b7e638a4cbf2f02089,689b860cd0ae9b5b45d95974,,,,,,,,,,,,,,1,,,,,,,,,,,,,,,,,,,,,,,,,,,,,,,,,,,,,,,,,,,,,,,,,,,,,,,,,59,besar,,,,,604.3947,606.7591,0,0,1.8271,,0,19,19,58,1,REAL,FAKE,,,,,,,,,,,,,,,,,
,,,,,,,,,5fe2bc6c9177396d90ae7f54,Spanish,13 or older,"no, only English or Spanish",no,2025-08-12_14h23.03.933,empathy_intonation_perc,2024.2.4,Win32,59.88023952,5fe2bc6c9177396d90ae7f54,687ed1b7e638a4cbf2f02089,689b860cd0ae9b5b45d95974,,,,,,,,,,,,,,0,,,,,,,,,,,,,,,,,,,,,,,,,,,,,,,,,,,,,,,,,,,,,,,,,,,,,,,,,32,fatacidad,,,,,606.7604,608.3921,1,0,1.1,,0,20,20,31,1,REAL,FAKE,,,,,,,,,,,,,,,,,
,,,,,,,,,5fe2bc6c9177396d90ae7f54,Spanish,13 or older,"no, only English or Spanish",no,2025-08-12_14h23.03.933,empathy_intonation_perc,2024.2.4,Win32,59.88023952,5fe2bc6c9177396d90ae7f54,687ed1b7e638a4cbf2f02089,689b860cd0ae9b5b45d95974,,,,,,,,,,,,,,0,,,,,,,,,,,,,,,,,,,,,,,,,,,,,,,,,,,,,,,,,,,,,,,,,,,,,,,,,92,click the 0 key.,,,,,608.3937,610.6782,0,1,1.7478,,0,21,21,91,1,REAL,FAKE,,,,,,,,,,,,,,,,,
,,,,,,,,,5fe2bc6c9177396d90ae7f54,Spanish,13 or older,"no, only English or Spanish",no,2025-08-12_14h23.03.933,empathy_intonation_perc,2024.2.4,Win32,59.88023952,5fe2bc6c9177396d90ae7f54,687ed1b7e638a4cbf2f02089,689b860cd0ae9b5b45d95974,,,,,,,,,,,,,,0,,,,,,,,,,,,,,,,,,,,,,,,,,,,,,,,,,,,,,,,,,,,,,,,,,,,,,,,,4,batillón,,,,,610.6792,613.7572,0,1,2.533,,0,22,22,3,1,REAL,FAKE,,,,,,,,,,,,,,,,,
,,,,,,,,,5fe2bc6c9177396d90ae7f54,Spanish,13 or older,"no, only English or Spanish",no,2025-08-12_14h23.03.933,empathy_intonation_perc,2024.2.4,Win32,59.88023952,5fe2bc6c9177396d90ae7f54,687ed1b7e638a4cbf2f02089,689b860cd0ae9b5b45d95974,,,,,,,,,,,,,,1,,,,,,,,,,,,,,,,,,,,,,,,,,,,,,,,,,,,,,,,,,,,,,,,,,,,,,,,,76,atar,,,,,613.7584,615.6232,0,0,1.3245,,0,23,23,75,1,REAL,FAKE,,,,,,,,,,,,,,,,,
,,,,,,,,,5fe2bc6c9177396d90ae7f54,Spanish,13 or older,"no, only English or Spanish",no,2025-08-12_14h23.03.933,empathy_intonation_perc,2024.2.4,Win32,59.88023952,5fe2bc6c9177396d90ae7f54,687ed1b7e638a4cbf2f02089,689b860cd0ae9b5b45d95974,,,,,,,,,,,,,,0,,,,,,,,,,,,,,,,,,,,,,,,,,,,,,,,,,,,,,,,,,,,,,,,,,,,,,,,,19,brecedad,,,,,615.6239,618.1562,0,1,1.9829,,0,24,24,18,1,REAL,FAKE,,,,,,,,,,,,,,,,,
,,,,,,,,,5fe2bc6c9177396d90ae7f54,Spanish,13 or older,"no, only English or Spanish",no,2025-08-12_14h23.03.933,empathy_intonation_perc,2024.2.4,Win32,59.88023952,5fe2bc6c9177396d90ae7f54,687ed1b7e638a4cbf2f02089,689b860cd0ae9b5b45d95974,,,,,,,,,,,,,,1,,,,,,,,,,,,,,,,,,,,,,,,,,,,,,,,,,,,,,,,,,,,,,,,,,,,,,,,,37,granuja,,,,,618.1575,624.1209,0,0,5.4247,,0,25,25,36,1,REAL,FAKE,,,,,,,,,,,,,,,,,
,,,,,,,,,5fe2bc6c9177396d90ae7f54,Spanish,13 or older,"no, only English or Spanish",no,2025-08-12_14h23.03.933,empathy_intonation_perc,2024.2.4,Win32,59.88023952,5fe2bc6c9177396d90ae7f54,687ed1b7e638a4cbf2f02089,689b860cd0ae9b5b45d95974,,,,,,,,,,,,,,1,,,,,,,,,,,,,,,,,,,,,,,,,,,,,,,,,,,,,,,,,,,,,,,,,,,,,,,,,46,martillo,,,,,624.1216,625.9707,1,1,1.3015,,0,26,26,45,1,REAL,FAKE,,,,,,,,,,,,,,,,,
,,,,,,,,,5fe2bc6c9177396d90ae7f54,Spanish,13 or older,"no, only English or Spanish",no,2025-08-12_14h23.03.933,empathy_intonation_perc,2024.2.4,Win32,59.88023952,5fe2bc6c9177396d90ae7f54,687ed1b7e638a4cbf2f02089,689b860cd0ae9b5b45d95974,,,,,,,,,,,,,,0,,,,,,,,,,,,,,,,,,,,,,,,,,,,,,,,,,,,,,,,,,,,,,,,,,,,,,,,,8,cadeña,,,,,625.9719,630.8525,1,0,4.3435,,0,27,27,7,1,REAL,FAKE,,,,,,,,,,,,,,,,,
,,,,,,,,,5fe2bc6c9177396d90ae7f54,Spanish,13 or older,"no, only English or Spanish",no,2025-08-12_14h23.03.933,empathy_intonation_perc,2024.2.4,Win32,59.88023952,5fe2bc6c9177396d90ae7f54,687ed1b7e638a4cbf2f02089,689b860cd0ae9b5b45d95974,,,,,,,,,,,,,,1,,,,,,,,,,,,,,,,,,,,,,,,,,,,,,,,,,,,,,,,,,,,,,,,,,,,,,,,,61,seda,,,,,630.8536,634.4349,1,1,3.043,,0,28,28,60,1,REAL,FAKE,,,,,,,,,,,,,,,,,
,,,,,,,,,5fe2bc6c9177396d90ae7f54,Spanish,13 or older,"no, only English or Spanish",no,2025-08-12_14h23.03.933,empathy_intonation_perc,2024.2.4,Win32,59.88023952,5fe2bc6c9177396d90ae7f54,687ed1b7e638a4cbf2f02089,689b860cd0ae9b5b45d95974,,,,,,,,,,,,,,0,,,,,,,,,,,,,,,,,,,,,,,,,,,,,,,,,,,,,,,,,,,,,,,,,,,,,,,,,72,pemición,,,,,634.436,636.4844,0,1,1.5053,,0,29,29,71,1,REAL,FAKE,,,,,,,,,,,,,,,,,
,,,,,,,,,5fe2bc6c9177396d90ae7f54,Spanish,13 or older,"no, only English or Spanish",no,2025-08-12_14h23.03.933,empathy_intonation_perc,2024.2.4,Win32,59.88023952,5fe2bc6c9177396d90ae7f54,687ed1b7e638a4cbf2f02089,689b860cd0ae9b5b45d95974,,,,,,,,,,,,,,1,,,,,,,,,,,,,,,,,,,,,,,,,,,,,,,,,,,,,,,,,,,,,,,,,,,,,,,,,86,barato,,,,,636.4854,639.5005,0,0,2.47,,0,30,30,85,1,REAL,FAKE,,,,,,,,,,,,,,,,,
,,,,,,,,,5fe2bc6c9177396d90ae7f54,Spanish,13 or older,"no, only English or Spanish",no,2025-08-12_14h23.03.933,empathy_intonation_perc,2024.2.4,Win32,59.88023952,5fe2bc6c9177396d90ae7f54,687ed1b7e638a4cbf2f02089,689b860cd0ae9b5b45d95974,,,,,,,,,,,,,,0,,,,,,,,,,,,,,,,,,,,,,,,,,,,,,,,,,,,,,,,,,,,,,,,,,,,,,,,,63,esposante,,,,,639.5016,642.1494,1,0,2.0997,,0,31,31,62,1,REAL,FAKE,,,,,,,,,,,,,,,,,
,,,,,,,,,5fe2bc6c9177396d90ae7f54,Spanish,13 or older,"no, only English or Spanish",no,2025-08-12_14h23.03.933,empathy_intonation_perc,2024.2.4,Win32,59.88023952,5fe2bc6c9177396d90ae7f54,687ed1b7e638a4cbf2f02089,689b860cd0ae9b5b45d95974,,,,,,,,,,,,,,0,,,,,,,,,,,,,,,,,,,,,,,,,,,,,,,,,,,,,,,,,,,,,,,,,,,,,,,,,33,pauca,,,,,642.1504,643.8157,0,1,1.1196,,0,32,32,32,1,REAL,FAKE,,,,,,,,,,,,,,,,,
,,,,,,,,,5fe2bc6c9177396d90ae7f54,Spanish,13 or older,"no, only English or Spanish",no,2025-08-12_14h23.03.933,empathy_intonation_perc,2024.2.4,Win32,59.88023952,5fe2bc6c9177396d90ae7f54,687ed1b7e638a4cbf2f02089,689b860cd0ae9b5b45d95974,,,,,,,,,,,,,,1,,,,,,,,,,,,,,,,,,,,,,,,,,,,,,,,,,,,,,,,,,,,,,,,,,,,,,,,,26,secuestro,,,,,643.8165,647.4151,1,1,3.0495,,0,33,33,25,1,REAL,FAKE,,,,,,,,,,,,,,,,,
,,,,,,,,,5fe2bc6c9177396d90ae7f54,Spanish,13 or older,"no, only English or Spanish",no,2025-08-12_14h23.03.933,empathy_intonation_perc,2024.2.4,Win32,59.88023952,5fe2bc6c9177396d90ae7f54,687ed1b7e638a4cbf2f02089,689b860cd0ae9b5b45d95974,,,,,,,,,,,,,,1,,,,,,,,,,,,,,,,,,,,,,,,,,,,,,,,,,,,,,,,,,,,,,,,,,,,,,,,,22,lacayo,,,,,647.4163,649.6644,1,1,1.6998,,0,34,34,21,1,REAL,FAKE,,,,,,,,,,,,,,,,,
,,,,,,,,,5fe2bc6c9177396d90ae7f54,Spanish,13 or older,"no, only English or Spanish",no,2025-08-12_14h23.03.933,empathy_intonation_perc,2024.2.4,Win32,59.88023952,5fe2bc6c9177396d90ae7f54,687ed1b7e638a4cbf2f02089,689b860cd0ae9b5b45d95974,,,,,,,,,,,,,,1,,,,,,,,,,,,,,,,,,,,,,,,,,,,,,,,,,,,,,,,,,,,,,,,,,,,,,,,,41,rebuscar,,,,,649.6657,651.6636,0,0,1.4666,,0,35,35,40,1,REAL,FAKE,,,,,,,,,,,,,,,,,
,,,,,,,,,5fe2bc6c9177396d90ae7f54,Spanish,13 or older,"no, only English or Spanish",no,2025-08-12_14h23.03.933,empathy_intonation_perc,2024.2.4,Win32,59.88023952,5fe2bc6c9177396d90ae7f54,687ed1b7e638a4cbf2f02089,689b860cd0ae9b5b45d95974,,,,,,,,,,,,,,1,,,,,,,,,,,,,,,,,,,,,,,,,,,,,,,,,,,,,,,,,,,,,,,,,,,,,,,,,38,estornudar,,,,,651.6652,654.1962,0,0,1.9909,,0,36,36,37,1,REAL,FAKE,,,,,,,,,,,,,,,,,
,,,,,,,,,5fe2bc6c9177396d90ae7f54,Spanish,13 or older,"no, only English or Spanish",no,2025-08-12_14h23.03.933,empathy_intonation_perc,2024.2.4,Win32,59.88023952,5fe2bc6c9177396d90ae7f54,687ed1b7e638a4cbf2f02089,689b860cd0ae9b5b45d95974,,,,,,,,,,,,,,1,,,,,,,,,,,,,,,,,,,,,,,,,,,,,,,,,,,,,,,,,,,,,,,,,,,,,,,,,40,alfombra,,,,,654.1976,658.5954,0,0,3.8492,,0,37,37,39,1,REAL,FAKE,,,,,,,,,,,,,,,,,
,,,,,,,,,5fe2bc6c9177396d90ae7f54,Spanish,13 or older,"no, only English or Spanish",no,2025-08-12_14h23.03.933,empathy_intonation_perc,2024.2.4,Win32,59.88023952,5fe2bc6c9177396d90ae7f54,687ed1b7e638a4cbf2f02089,689b860cd0ae9b5b45d95974,,,,,,,,,,,,,,0,,,,,,,,,,,,,,,,,,,,,,,,,,,,,,,,,,,,,,,,,,,,,,,,,,,,,,,,,58,plaudir,,,,,658.5961,660.3283,0,1,1.1862,,0,38,38,57,1,REAL,FAKE,,,,,,,,,,,,,,,,,
,,,,,,,,,5fe2bc6c9177396d90ae7f54,Spanish,13 or older,"no, only English or Spanish",no,2025-08-12_14h23.03.933,empathy_intonation_perc,2024.2.4,Win32,59.88023952,5fe2bc6c9177396d90ae7f54,687ed1b7e638a4cbf2f02089,689b860cd0ae9b5b45d95974,,,,,,,,,,,,,,0,,,,,,,,,,,,,,,,,,,,,,,,,,,,,,,,,,,,,,,,,,,,,,,,,,,,,,,,,16,abracer,,,,,660.3295,662.8273,0,1,1.9589,,0,39,39,15,1,REAL,FAKE,,,,,,,,,,,,,,,,,
,,,,,,,,,5fe2bc6c9177396d90ae7f54,Spanish,13 or older,"no, only English or Spanish",no,2025-08-12_14h23.03.933,empathy_intonation_perc,2024.2.4,Win32,59.88023952,5fe2bc6c9177396d90ae7f54,687ed1b7e638a4cbf2f02089,689b860cd0ae9b5b45d95974,,,,,,,,,,,,,,0,,,,,,,,,,,,,,,,,,,,,,,,,,,,,,,,,,,,,,,,,,,,,,,,,,,,,,,,,87,grodo,,,,,662.828,664.3102,0,1,0.9333,,0,40,40,86,1,REAL,FAKE,,,,,,,,,,,,,,,,,
,,,,,,,,,5fe2bc6c9177396d90ae7f54,Spanish,13 or older,"no, only English or Spanish",no,2025-08-12_14h23.03.933,empathy_intonation_perc,2024.2.4,Win32,59.88023952,5fe2bc6c9177396d90ae7f54,687ed1b7e638a4cbf2f02089,689b860cd0ae9b5b45d95974,,,,,,,,,,,,,,0,,,,,,,,,,,,,,,,,,,,,,,,,,,,,,,,,,,,,,,,,,,,,,,,,,,,,,,,,21,capillo,,,,,664.311,667.1263,1,0,2.2754,,0,41,41,20,1,REAL,FAKE,,,,,,,,,,,,,,,,,
,,,,,,,,,5fe2bc6c9177396d90ae7f54,Spanish,13 or older,"no, only English or Spanish",no,2025-08-12_14h23.03.933,empathy_intonation_perc,2024.2.4,Win32,59.88023952,5fe2bc6c9177396d90ae7f54,687ed1b7e638a4cbf2f02089,689b860cd0ae9b5b45d95974,,,,,,,,,,,,,,1,,,,,,,,,,,,,,,,,,,,,,,,,,,,,,,,,,,,,,,,,,,,,,,,,,,,,,,,,24,látigo,,,,,667.1272,668.6261,1,1,0.9524,,0,42,42,23,1,REAL,FAKE,,,,,,,,,,,,,,,,,
,,,,,,,,,5fe2bc6c9177396d90ae7f54,Spanish,13 or older,"no, only English or Spanish",no,2025-08-12_14h23.03.933,empathy_intonation_perc,2024.2.4,Win32,59.88023952,5fe2bc6c9177396d90ae7f54,687ed1b7e638a4cbf2f02089,689b860cd0ae9b5b45d95974,,,,,,,,,,,,,,1,,,,,,,,,,,,,,,,,,,,,,,,,,,,,,,,,,,,,,,,,,,,,,,,,,,,,,,,,91,click the 1 key.,,,,,668.6276,670.542,1,1,1.3765,,0,43,43,90,1,REAL,FAKE,,,,,,,,,,,,,,,,,
,,,,,,,,,5fe2bc6c9177396d90ae7f54,Spanish,13 or older,"no, only English or Spanish",no,2025-08-12_14h23.03.933,empathy_intonation_perc,2024.2.4,Win32,59.88023952,5fe2bc6c9177396d90ae7f54,687ed1b7e638a4cbf2f02089,689b860cd0ae9b5b45d95974,,,,,,,,,,,,,,1,,,,,,,,,,,,,,,,,,,,,,,,,,,,,,,,,,,,,,,,,,,,,,,,,,,,,,,,,3,pulmones,,,,,670.5429,672.225,0,0,1.1329,,0,44,44,2,1,REAL,FAKE,,,,,,,,,,,,,,,,,
,,,,,,,,,5fe2bc6c9177396d90ae7f54,Spanish,13 or older,"no, only English or Spanish",no,2025-08-12_14h23.03.933,empathy_intonation_perc,2024.2.4,Win32,59.88023952,5fe2bc6c9177396d90ae7f54,687ed1b7e638a4cbf2f02089,689b860cd0ae9b5b45d95974,,,,,,,,,,,,,,1,,,,,,,,,,,,,,,,,,,,,,,,,,,,,,,,,,,,,,,,,,,,,,,,,,,,,,,,,65,bizcocho,,,,,672.2257,673.7246,0,0,0.9599,,0,45,45,64,1,REAL,FAKE,,,,,,,,,,,,,,,,,
,,,,,,,,,5fe2bc6c9177396d90ae7f54,Spanish,13 or older,"no, only English or Spanish",no,2025-08-12_14h23.03.933,empathy_intonation_perc,2024.2.4,Win32,59.88023952,5fe2bc6c9177396d90ae7f54,687ed1b7e638a4cbf2f02089,689b860cd0ae9b5b45d95974,,,,,,,,,,,,,,1,,,,,,,,,,,,,,,,,,,,,,,,,,,,,,,,,,,,,,,,,,,,,,,,,,,,,,,,,34,aviso,,,,,673.7253,675.3907,1,1,1.1276,,0,46,46,33,1,REAL,FAKE,,,,,,,,,,,,,,,,,
,,,,,,,,,5fe2bc6c9177396d90ae7f54,Spanish,13 or older,"no, only English or Spanish",no,2025-08-12_14h23.03.933,empathy_intonation_perc,2024.2.4,Win32,59.88023952,5fe2bc6c9177396d90ae7f54,687ed1b7e638a4cbf2f02089,689b860cd0ae9b5b45d95974,,,,,,,,,,,,,,1,,,,,,,,,,,,,,,,,,,,,,,,,,,,,,,,,,,,,,,,,,,,,,,,,,,,,,,,,13,helar,,,,,675.3916,677.107,0,0,1.1695,,0,47,47,12,1,REAL,FAKE,,,,,,,,,,,,,,,,,
,,,,,,,,,5fe2bc6c9177396d90ae7f54,Spanish,13 or older,"no, only English or Spanish",no,2025-08-12_14h23.03.933,empathy_intonation_perc,2024.2.4,Win32,59.88023952,5fe2bc6c9177396d90ae7f54,687ed1b7e638a4cbf2f02089,689b860cd0ae9b5b45d95974,,,,,,,,,,,,,,1,,,,,,,,,,,,,,,,,,,,,,,,,,,,,,,,,,,,,,,,,,,,,,,,,,,,,,,,,15,regar,,,,,677.108,680.3062,0,0,2.6497,,0,48,48,14,1,REAL,FAKE,,,,,,,,,,,,,,,,,
,,,,,,,,,5fe2bc6c9177396d90ae7f54,Spanish,13 or older,"no, only English or Spanish",no,2025-08-12_14h23.03.933,empathy_intonation_perc,2024.2.4,Win32,59.88023952,5fe2bc6c9177396d90ae7f54,687ed1b7e638a4cbf2f02089,689b860cd0ae9b5b45d95974,,,,,,,,,,,,,,1,,,,,,,,,,,,,,,,,,,,,,,,,,,,,,,,,,,,,,,,,,,,,,,,,,,,,,,,,44,cuchara,,,,,680.3073,682.0222,1,1,1.1743,,0,49,49,43,1,REAL,FAKE,,,,,,,,,,,,,,,,,
,,,,,,,,,5fe2bc6c9177396d90ae7f54,Spanish,13 or older,"no, only English or Spanish",no,2025-08-12_14h23.03.933,empathy_intonation_perc,2024.2.4,Win32,59.88023952,5fe2bc6c9177396d90ae7f54,687ed1b7e638a4cbf2f02089,689b860cd0ae9b5b45d95974,,,,,,,,,,,,,,1,,,,,,,,,,,,,,,,,,,,,,,,,,,,,,,,,,,,,,,,,,,,,,,,,,,,,,,,,83,guante,,,,,682.0229,685.3217,0,0,2.7494,,0,50,50,82,1,REAL,FAKE,,,,,,,,,,,,,,,,,
,,,,,,,,,5fe2bc6c9177396d90ae7f54,Spanish,13 or older,"no, only English or Spanish",no,2025-08-12_14h23.03.933,empathy_intonation_perc,2024.2.4,Win32,59.88023952,5fe2bc6c9177396d90ae7f54,687ed1b7e638a4cbf2f02089,689b860cd0ae9b5b45d95974,,,,,,,,,,,,,,1,,,,,,,,,,,,,,,,,,,,,,,,,,,,,,,,,,,,,,,,,,,,,,,,,,,,,,,,,36,loro,,,,,685.3226,686.8712,0,0,1.0002,,0,51,51,35,1,REAL,FAKE,,,,,,,,,,,,,,,,,
,,,,,,,,,5fe2bc6c9177396d90ae7f54,Spanish,13 or older,"no, only English or Spanish",no,2025-08-12_14h23.03.933,empathy_intonation_perc,2024.2.4,Win32,59.88023952,5fe2bc6c9177396d90ae7f54,687ed1b7e638a4cbf2f02089,689b860cd0ae9b5b45d95974,,,,,,,,,,,,,,1,,,,,,,,,,,,,,,,,,,,,,,,,,,,,,,,,,,,,,,,,,,,,,,,,,,,,,,,,31,pandilla,,,,,686.8724,688.3709,1,1,0.9564,,0,52,52,30,1,REAL,FAKE,,,,,,,,,,,,,,,,,
,,,,,,,,,5fe2bc6c9177396d90ae7f54,Spanish,13 or older,"no, only English or Spanish",no,2025-08-12_14h23.03.933,empathy_intonation_perc,2024.2.4,Win32,59.88023952,5fe2bc6c9177396d90ae7f54,687ed1b7e638a4cbf2f02089,689b860cd0ae9b5b45d95974,,,,,,,,,,,,,,1,,,,,,,,,,,,,,,,,,,,,,,,,,,,,,,,,,,,,,,,,,,,,,,,,,,,,,,,,81,pozo,,,,,688.3719,690.5536,0,0,1.6332,,0,53,53,80,1,REAL,FAKE,,,,,,,,,,,,,,,,,
,,,,,,,,,5fe2bc6c9177396d90ae7f54,Spanish,13 or older,"no, only English or Spanish",no,2025-08-12_14h23.03.933,empathy_intonation_perc,2024.2.4,Win32,59.88023952,5fe2bc6c9177396d90ae7f54,687ed1b7e638a4cbf2f02089,689b860cd0ae9b5b45d95974,,,,,,,,,,,,,,1,,,,,,,,,,,,,,,,,,,,,,,,,,,,,,,,,,,,,,,,,,,,,,,,,,,,,,,,,54,fomentar,,,,,690.5544,693.0696,1,1,1.9664,,0,54,54,53,1,REAL,FAKE,,,,,,,,,,,,,,,,,
,,,,,,,,,5fe2bc6c9177396d90ae7f54,Spanish,13 or older,"no, only English or Spanish",no,2025-08-12_14h23.03.933,empathy_intonation_perc,2024.2.4,Win32,59.88023952,5fe2bc6c9177396d90ae7f54,687ed1b7e638a4cbf2f02089,689b860cd0ae9b5b45d95974,,,,,,,,,,,,,,1,,,,,,,,,,,,,,,,,,,,,,,,,,,,,,,,,,,,,,,,,,,,,,,,,,,,,,,,,78,frondoso,,,,,693.071,695.8355,0,0,2.2238,,0,55,55,77,1,REAL,FAKE,,,,,,,,,,,,,,,,,
,,,,,,,,,5fe2bc6c9177396d90ae7f54,Spanish,13 or older,"no, only English or Spanish",no,2025-08-12_14h23.03.933,empathy_intonation_perc,2024.2.4,Win32,59.88023952,5fe2bc6c9177396d90ae7f54,687ed1b7e638a4cbf2f02089,689b860cd0ae9b5b45d95974,,,,,,,,,,,,,,0,,,,,,,,,,,,,,,,,,,,,,,,,,,,,,,,,,,,,,,,,,,,,,,,,,,,,,,,,79,tropaje,,,,,695.8364,698.4348,1,0,2.0524,,0,56,56,78,1,REAL,FAKE,,,,,,,,,,,,,,,,,
,,,,,,,,,5fe2bc6c9177396d90ae7f54,Spanish,13 or older,"no, only English or Spanish",no,2025-08-12_14h23.03.933,empathy_intonation_perc,2024.2.4,Win32,59.88023952,5fe2bc6c9177396d90ae7f54,687ed1b7e638a4cbf2f02089,689b860cd0ae9b5b45d95974,,,,,,,,,,,,,,1,,,,,,,,,,,,,,,,,,,,,,,,,,,,,,,,,,,,,,,,,,,,,,,,,,,,,,,,,11,cenefa,,,,,698.4362,700.7508,0,0,1.768,,0,57,57,10,1,REAL,FAKE,,,,,,,,,,,,,,,,,
,,,,,,,,,5fe2bc6c9177396d90ae7f54,Spanish,13 or older,"no, only English or Spanish",no,2025-08-12_14h23.03.933,empathy_intonation_perc,2024.2.4,Win32,59.88023952,5fe2bc6c9177396d90ae7f54,687ed1b7e638a4cbf2f02089,689b860cd0ae9b5b45d95974,,,,,,,,,,,,,,1,,,,,,,,,,,,,,,,,,,,,,,,,,,,,,,,,,,,,,,,,,,,,,,,,,,,,,,,,14,yunque,,,,,700.7516,702.6001,0,0,1.3058,,0,58,58,13,1,REAL,FAKE,,,,,,,,,,,,,,,,,
,,,,,,,,,5fe2bc6c9177396d90ae7f54,Spanish,13 or older,"no, only English or Spanish",no,2025-08-12_14h23.03.933,empathy_intonation_perc,2024.2.4,Win32,59.88023952,5fe2bc6c9177396d90ae7f54,687ed1b7e638a4cbf2f02089,689b860cd0ae9b5b45d95974,,,,,,,,,,,,,,0,,,,,,,,,,,,,,,,,,,,,,,,,,,,,,,,,,,,,,,,,,,,,,,,,,,,,,,,,23,lampera,,,,,702.6008,704.383,1,0,1.2348,,0,59,59,22,1,REAL,FAKE,,,,,,,,,,,,,,,,,
,,,,,,,,,5fe2bc6c9177396d90ae7f54,Spanish,13 or older,"no, only English or Spanish",no,2025-08-12_14h23.03.933,empathy_intonation_perc,2024.2.4,Win32,59.88023952,5fe2bc6c9177396d90ae7f54,687ed1b7e638a4cbf2f02089,689b860cd0ae9b5b45d95974,,,,,,,,,,,,,,0,,,,,,,,,,,,,,,,,,,,,,,,,,,,,,,,,,,,,,,,,,,,,,,,,,,,,,,,,53,vegada,,,,,704.3845,705.9494,1,0,1.0334,,0,60,60,52,1,REAL,FAKE,,,,,,,,,,,,,,,,,
,,,,,,,,,5fe2bc6c9177396d90ae7f54,Spanish,13 or older,"no, only English or Spanish",no,2025-08-12_14h23.03.933,empathy_intonation_perc,2024.2.4,Win32,59.88023952,5fe2bc6c9177396d90ae7f54,687ed1b7e638a4cbf2f02089,689b860cd0ae9b5b45d95974,,,,,,,,,,,,,,1,,,,,,,,,,,,,,,,,,,,,,,,,,,,,,,,,,,,,,,,,,,,,,,,,,,,,,,,,55,nevar,,,,,705.9505,707.4821,1,1,0.9922,,0,61,61,54,1,REAL,FAKE,,,,,,,,,,,,,,,,,
,,,,,,,,,5fe2bc6c9177396d90ae7f54,Spanish,13 or older,"no, only English or Spanish",no,2025-08-12_14h23.03.933,empathy_intonation_perc,2024.2.4,Win32,59.88023952,5fe2bc6c9177396d90ae7f54,687ed1b7e638a4cbf2f02089,689b860cd0ae9b5b45d95974,,,,,,,,,,,,,,0,,,,,,,,,,,,,,,,,,,,,,,,,,,,,,,,,,,,,,,,,,,,,,,,,,,,,,,,,35,rompido,,,,,707.4828,709.1486,1,0,1.118,,0,62,62,34,1,REAL,FAKE,,,,,,,,,,,,,,,,,
,,,,,,,,,5fe2bc6c9177396d90ae7f54,Spanish,13 or older,"no, only English or Spanish",no,2025-08-12_14h23.03.933,empathy_intonation_perc,2024.2.4,Win32,59.88023952,5fe2bc6c9177396d90ae7f54,687ed1b7e638a4cbf2f02089,689b860cd0ae9b5b45d95974,,,,,,,,,,,,,,1,,,,,,,,,,,,,,,,,,,,,,,,,,,,,,,,,,,,,,,,,,,,,,,,,,,,,,,,,75,yacer,,,,,709.1497,710.6482,0,0,0.95,,0,63,63,74,1,REAL,FAKE,,,,,,,,,,,,,,,,,
,,,,,,,,,5fe2bc6c9177396d90ae7f54,Spanish,13 or older,"no, only English or Spanish",no,2025-08-12_14h23.03.933,empathy_intonation_perc,2024.2.4,Win32,59.88023952,5fe2bc6c9177396d90ae7f54,687ed1b7e638a4cbf2f02089,689b860cd0ae9b5b45d95974,,,,,,,,,,,,,,1,,,,,,,,,,,,,,,,,,,,,,,,,,,,,,,,,,,,,,,,,,,,,,,,,,,,,,,,,6,tergiversar,,,,,710.6496,712.5977,0,0,1.4037,,0,64,64,5,1,REAL,FAKE,,,,,,,,,,,,,,,,,
,,,,,,,,,5fe2bc6c9177396d90ae7f54,Spanish,13 or older,"no, only English or Spanish",no,2025-08-12_14h23.03.933,empathy_intonation_perc,2024.2.4,Win32,59.88023952,5fe2bc6c9177396d90ae7f54,687ed1b7e638a4cbf2f02089,689b860cd0ae9b5b45d95974,,,,,,,,,,,,,,0,,,,,,,,,,,,,,,,,,,,,,,,,,,,,,,,,,,,,,,,,,,,,,,,,,,,,,,,,74,cintro,,,,,712.5987,714.2139,1,0,1.067,,0,65,65,73,1,REAL,FAKE,,,,,,,,,,,,,,,,,
,,,,,,,,,5fe2bc6c9177396d90ae7f54,Spanish,13 or older,"no, only English or Spanish",no,2025-08-12_14h23.03.933,empathy_intonation_perc,2024.2.4,Win32,59.88023952,5fe2bc6c9177396d90ae7f54,687ed1b7e638a4cbf2f02089,689b860cd0ae9b5b45d95974,,,,,,,,,,,,,,1,,,,,,,,,,,,,,,,,,,,,,,,,,,,,,,,,,,,,,,,,,,,,,,,,,,,,,,,,51,candado,,,,,714.2149,716.9299,1,1,2.1879,,0,66,66,50,1,REAL,FAKE,,,,,,,,,,,,,,,,,
,,,,,,,,,5fe2bc6c9177396d90ae7f54,Spanish,13 or older,"no, only English or Spanish",no,2025-08-12_14h23.03.933,empathy_intonation_perc,2024.2.4,Win32,59.88023952,5fe2bc6c9177396d90ae7f54,687ed1b7e638a4cbf2f02089,689b860cd0ae9b5b45d95974,,,,,,,,,,,,,,1,,,,,,,,,,,,,,,,,,,,,,,,,,,,,,,,,,,,,,,,,,,,,,,,,,,,,,,,,56,musgo,,,,,716.931,718.8458,0,0,1.3664,,0,67,67,55,1,REAL,FAKE,,,,,,,,,,,,,,,,,
,,,,,,,,,5fe2bc6c9177396d90ae7f54,Spanish,13 or older,"no, only English or Spanish",no,2025-08-12_14h23.03.933,empathy_intonation_perc,2024.2.4,Win32,59.88023952,5fe2bc6c9177396d90ae7f54,687ed1b7e638a4cbf2f02089,689b860cd0ae9b5b45d95974,,,,,,,,,,,,,,1,,,,,,,,,,,,,,,,,,,,,,,,,,,,,,,,,,,,,,,,,,,,,,,,,,,,,,,,,45,jilguero,,,,,718.8465,721.7619,0,0,2.375,,0,68,68,44,1,REAL,FAKE,,,,,,,,,,,,,,,,,
,,,,,,,,,5fe2bc6c9177396d90ae7f54,Spanish,13 or older,"no, only English or Spanish",no,2025-08-12_14h23.03.933,empathy_intonation_perc,2024.2.4,Win32,59.88023952,5fe2bc6c9177396d90ae7f54,687ed1b7e638a4cbf2f02089,689b860cd0ae9b5b45d95974,,,,,,,,,,,,,,0,,,,,,,,,,,,,,,,,,,,,,,,,,,,,,,,,,,,,,,,,,,,,,,,,,,,,,,,,82,empirador,,,,,721.7626,723.1447,1,0,0.8412,,0,69,69,81,1,REAL,FAKE,,,,,,,,,,,,,,,,,
,,,,,,,,,5fe2bc6c9177396d90ae7f54,Spanish,13 or older,"no, only English or Spanish",no,2025-08-12_14h23.03.933,empathy_intonation_perc,2024.2.4,Win32,59.88023952,5fe2bc6c9177396d90ae7f54,687ed1b7e638a4cbf2f02089,689b860cd0ae9b5b45d95974,,,,,,,,,,,,,,0,,,,,,,,,,,,,,,,,,,,,,,,,,,,,,,,,,,,,,,,,,,,,,,,,,,,,,,,,17,floroso,,,,,723.1457,724.6611,0,1,0.9764,,0,70,70,16,1,REAL,FAKE,,,,,,,,,,,,,,,,,
,,,,,,,,,5fe2bc6c9177396d90ae7f54,Spanish,13 or older,"no, only English or Spanish",no,2025-08-12_14h23.03.933,empathy_intonation_perc,2024.2.4,Win32,59.88023952,5fe2bc6c9177396d90ae7f54,687ed1b7e638a4cbf2f02089,689b860cd0ae9b5b45d95974,,,,,,,,,,,,,,1,,,,,,,,,,,,,,,,,,,,,,,,,,,,,,,,,,,,,,,,,,,,,,,,,,,,,,,,,9,hacha,,,,,724.6618,726.4773,0,0,1.2667,,0,71,71,8,1,REAL,FAKE,,,,,,,,,,,,,,,,,
,,,,,,,,,5fe2bc6c9177396d90ae7f54,Spanish,13 or older,"no, only English or Spanish",no,2025-08-12_14h23.03.933,empathy_intonation_perc,2024.2.4,Win32,59.88023952,5fe2bc6c9177396d90ae7f54,687ed1b7e638a4cbf2f02089,689b860cd0ae9b5b45d95974,,,,,,,,,,,,,,1,,,,,,,,,,,,,,,,,,,,,,,,,,,,,,,,,,,,,,,,,,,,,,,,,,,,,,,,,77,tiburón,,,,,726.4783,728.3769,0,0,1.35,,0,72,72,76,1,REAL,FAKE,,,,,,,,,,,,,,,,,
,,,,,,,,,5fe2bc6c9177396d90ae7f54,Spanish,13 or older,"no, only English or Spanish",no,2025-08-12_14h23.03.933,empathy_intonation_perc,2024.2.4,Win32,59.88023952,5fe2bc6c9177396d90ae7f54,687ed1b7e638a4cbf2f02089,689b860cd0ae9b5b45d95974,,,,,,,,,,,,,,1,,,,,,,,,,,,,,,,,,,,,,,,,,,,,,,,,,,,,,,,,,,,,,,,,,,,,,,,,69,engatusar,,,,,728.3782,730.8477,1,1,1.9328,,0,73,73,68,1,REAL,FAKE,,,,,,,,,,,,,,,,,
,,,,,,,,,5fe2bc6c9177396d90ae7f54,Spanish,13 or older,"no, only English or Spanish",no,2025-08-12_14h23.03.933,empathy_intonation_perc,2024.2.4,Win32,59.88023952,5fe2bc6c9177396d90ae7f54,687ed1b7e638a4cbf2f02089,689b860cd0ae9b5b45d95974,,,,,,,,,,,,,,1,,,,,,,,,,,,,,,,,,,,,,,,,,,,,,,,,,,,,,,,,,,,,,,,,,,,,,,,,80,hormiga,,,,,730.8483,732.5925,0,0,1.1999,,0,74,74,79,1,REAL,FAKE,,,,,,,,,,,,,,,,,
,,,,,,,,,5fe2bc6c9177396d90ae7f54,Spanish,13 or older,"no, only English or Spanish",no,2025-08-12_14h23.03.933,empathy_intonation_perc,2024.2.4,Win32,59.88023952,5fe2bc6c9177396d90ae7f54,687ed1b7e638a4cbf2f02089,689b860cd0ae9b5b45d95974,,,,,,,,,,,,,,1,,,,,,,,,,,,,,,,,,,,,,,,,,,,,,,,,,,,,,,,,,,,,,,,,,,,,,,,,12,asesinato,,,,,732.5938,735.9415,1,1,2.7997,,0,75,75,11,1,REAL,FAKE,,,,,,,,,,,,,,,,,
,,,,,,,,,5fe2bc6c9177396d90ae7f54,Spanish,13 or older,"no, only English or Spanish",no,2025-08-12_14h23.03.933,empathy_intonation_perc,2024.2.4,Win32,59.88023952,5fe2bc6c9177396d90ae7f54,687ed1b7e638a4cbf2f02089,689b860cd0ae9b5b45d95974,,,,,,,,,,,,,,0,,,,,,,,,,,,,,,,,,,,,,,,,,,,,,,,,,,,,,,,,,,,,,,,,,,,,,,,,10,antar,,,,,735.9425,738.046,0,1,1.5664,,0,76,76,9,1,REAL,FAKE,,,,,,,,,,,,,,,,,
,,,,,,,,,5fe2bc6c9177396d90ae7f54,Spanish,13 or older,"no, only English or Spanish",no,2025-08-12_14h23.03.933,empathy_intonation_perc,2024.2.4,Win32,59.88023952,5fe2bc6c9177396d90ae7f54,687ed1b7e638a4cbf2f02089,689b860cd0ae9b5b45d95974,,,,,,,,,,,,,,1,,,,,,,,,,,,,,,,,,,,,,,,,,,,,,,,,,,,,,,,,,,,,,,,,,,,,,,,,85,laúd,,,,,738.0469,739.7236,0,0,1.1333,,0,77,77,84,1,REAL,FAKE,,,,,,,,,,,,,,,,,
,,,,,,,,,5fe2bc6c9177396d90ae7f54,Spanish,13 or older,"no, only English or Spanish",no,2025-08-12_14h23.03.933,empathy_intonation_perc,2024.2.4,Win32,59.88023952,5fe2bc6c9177396d90ae7f54,687ed1b7e638a4cbf2f02089,689b860cd0ae9b5b45d95974,,,,,,,,,,,,,,0,,,,,,,,,,,,,,,,,,,,,,,,,,,,,,,,,,,,,,,,,,,,,,,,,,,,,,,,,29,decar,,,,,739.7245,742.19,0,1,1.9182,,0,78,78,28,1,REAL,FAKE,,,,,,,,,,,,,,,,,
,,,,,,,,,5fe2bc6c9177396d90ae7f54,Spanish,13 or older,"no, only English or Spanish",no,2025-08-12_14h23.03.933,empathy_intonation_perc,2024.2.4,Win32,59.88023952,5fe2bc6c9177396d90ae7f54,687ed1b7e638a4cbf2f02089,689b860cd0ae9b5b45d95974,,,,,,,,,,,,,,1,,,,,,,,,,,,,,,,,,,,,,,,,,,,,,,,,,,,,,,,,,,,,,,,,,,,,,,,,52,camisa,,,,,742.1912,743.4725,1,1,0.757,,0,79,79,51,1,REAL,FAKE,,,,,,,,,,,,,,,,,
,,,,,,,,,5fe2bc6c9177396d90ae7f54,Spanish,13 or older,"no, only English or Spanish",no,2025-08-12_14h23.03.933,empathy_intonation_perc,2024.2.4,Win32,59.88023952,5fe2bc6c9177396d90ae7f54,687ed1b7e638a4cbf2f02089,689b860cd0ae9b5b45d95974,,,,,,,,,,,,,,0,,,,,,,,,,,,,,,,,,,,,,,,,,,,,,,,,,,,,,,,,,,,,,,,,,,,,,,,,42,cadallo,,,,,743.4732,744.8224,1,0,0.8002,,0,80,80,41,1,REAL,FAKE,,,,,,,,,,,,,,,,,
,,,,,,,,,5fe2bc6c9177396d90ae7f54,Spanish,13 or older,"no, only English or Spanish",no,2025-08-12_14h23.03.933,empathy_intonation_perc,2024.2.4,Win32,59.88023952,5fe2bc6c9177396d90ae7f54,687ed1b7e638a4cbf2f02089,689b860cd0ae9b5b45d95974,,,,,,,,,,,,,,1,,,,,,,,,,,,,,,,,,,,,,,,,,,,,,,,,,,,,,,,,,,,,,,,,,,,,,,,,68,alegre,,,,,744.8238,746.5053,1,1,1.144,,0,81,81,67,1,REAL,FAKE,,,,,,,,,,,,,,,,,
,,,,,,,,,5fe2bc6c9177396d90ae7f54,Spanish,13 or older,"no, only English or Spanish",no,2025-08-12_14h23.03.933,empathy_intonation_perc,2024.2.4,Win32,59.88023952,5fe2bc6c9177396d90ae7f54,687ed1b7e638a4cbf2f02089,689b860cd0ae9b5b45d95974,,,,,,,,,,,,,,0,,,,,,,,,,,,,,,,,,,,,,,,,,,,,,,,,,,,,,,,,,,,,,,,,,,,,,,,,18,arsa,,,,,746.5061,748.0716,0,1,1.0166,,0,82,82,17,1,REAL,FAKE,,,,,,,,,,,,,,,,,
,,,,,,,,,5fe2bc6c9177396d90ae7f54,Spanish,13 or older,"no, only English or Spanish",no,2025-08-12_14h23.03.933,empathy_intonation_perc,2024.2.4,Win32,59.88023952,5fe2bc6c9177396d90ae7f54,687ed1b7e638a4cbf2f02089,689b860cd0ae9b5b45d95974,,,,,,,,,,,,,,1,,,,,,,,,,,,,,,,,,,,,,,,,,,,,,,,,,,,,,,,,,,,,,,,,,,,,,,,,25,bisagra,,,,,748.0728,750.3207,0,0,1.702,,0,83,83,24,1,REAL,FAKE,,,,,,,,,,,,,,,,,
,,,,,,,,,5fe2bc6c9177396d90ae7f54,Spanish,13 or older,"no, only English or Spanish",no,2025-08-12_14h23.03.933,empathy_intonation_perc,2024.2.4,Win32,59.88023952,5fe2bc6c9177396d90ae7f54,687ed1b7e638a4cbf2f02089,689b860cd0ae9b5b45d95974,,,,,,,,,,,,,,1,,,,,,,,,,,,,,,,,,,,,,,,,,,,,,,,,,,,,,,,,,,,,,,,,,,,,,,,,67,cabello,,,,,750.322,751.5704,1,1,0.7067,,0,84,84,66,1,REAL,FAKE,,,,,,,,,,,,,,,,,
,,,,,,,,,5fe2bc6c9177396d90ae7f54,Spanish,13 or older,"no, only English or Spanish",no,2025-08-12_14h23.03.933,empathy_intonation_perc,2024.2.4,Win32,59.88023952,5fe2bc6c9177396d90ae7f54,687ed1b7e638a4cbf2f02089,689b860cd0ae9b5b45d95974,,,,,,,,,,,,,,0,,,,,,,,,,,,,,,,,,,,,,,,,,,,,,,,,,,,,,,,,,,,,,,,,,,,,,,,,47,cartinar,,,,,751.5713,753.9031,0,1,1.792,,0,85,85,46,1,REAL,FAKE,,,,,,,,,,,,,,,,,
,,,,,,,,,5fe2bc6c9177396d90ae7f54,Spanish,13 or older,"no, only English or Spanish",no,2025-08-12_14h23.03.933,empathy_intonation_perc,2024.2.4,Win32,59.88023952,5fe2bc6c9177396d90ae7f54,687ed1b7e638a4cbf2f02089,689b860cd0ae9b5b45d95974,,,,,,,,,,,,,,0,,,,,,,,,,,,,,,,,,,,,,,,,,,,,,,,,,,,,,,,,,,,,,,,,,,,,,,,,70,temblo,,,,,753.9038,756.1197,1,0,1.6782,,0,86,86,69,1,REAL,FAKE,,,,,,,,,,,,,,,,,
,,,,,,,,,5fe2bc6c9177396d90ae7f54,Spanish,13 or older,"no, only English or Spanish",no,2025-08-12_14h23.03.933,empathy_intonation_perc,2024.2.4,Win32,59.88023952,5fe2bc6c9177396d90ae7f54,687ed1b7e638a4cbf2f02089,689b860cd0ae9b5b45d95974,,,,,,,,,,,,,,1,,,,,,,,,,,,,,,,,,,,,,,,,,,,,,,,,,,,,,,,,,,,,,,,,,,,,,,,,57,tacaño,,,,,756.1206,757.7358,1,1,1.0699,,0,87,87,56,1,REAL,FAKE,,,,,,,,,,,,,,,,,
,,,,,,,,,5fe2bc6c9177396d90ae7f54,Spanish,13 or older,"no, only English or Spanish",no,2025-08-12_14h23.03.933,empathy_intonation_perc,2024.2.4,Win32,59.88023952,5fe2bc6c9177396d90ae7f54,687ed1b7e638a4cbf2f02089,689b860cd0ae9b5b45d95974,,,,,,,,,,,,,,0,,,,,,,,,,,,,,,,,,,,,,,,,,,,,,,,,,,,,,,,,,,,,,,,,,,,,,,,,66,hacido,,,,,757.7372,759.9349,1,0,1.6581,,0,88,88,65,1,REAL,FAKE,,,,,,,,,,,,,,,,,
,,,,,,,,,5fe2bc6c9177396d90ae7f54,Spanish,13 or older,"no, only English or Spanish",no,2025-08-12_14h23.03.933,empathy_intonation_perc,2024.2.4,Win32,59.88023952,5fe2bc6c9177396d90ae7f54,687ed1b7e638a4cbf2f02089,689b860cd0ae9b5b45d95974,,,,,,,,,,,,,,0,,,,,,,,,,,,,,,,,,,,,,,,,,,,,,,,,,,,,,,,,,,,,,,,,,,,,,,,,30,alardio,,,,,759.936,762.3342,0,1,1.859,,0,89,89,29,1,REAL,FAKE,,,,,,,,,,,,,,,,,
,,,,,,,,,5fe2bc6c9177396d90ae7f54,Spanish,13 or older,"no, only English or Spanish",no,2025-08-12_14h23.03.933,empathy_intonation_perc,2024.2.4,Win32,59.88023952,5fe2bc6c9177396d90ae7f54,687ed1b7e638a4cbf2f02089,689b860cd0ae9b5b45d95974,,,,,,,,,,,,,,1,,,,,,,,,,,,,,,,,,,,,,,,,,,,,,,,,,,,,,,,,,,,,,,,,,,,,,,,,7,pésimo,,,,,762.3353,763.9671,1,1,1.1096,,0,90,90,6,1,REAL,FAKE,,,,,,,,,,,,,,,,,
,,,,,,,,,5fe2bc6c9177396d90ae7f54,Spanish,13 or older,"no, only English or Spanish",no,2025-08-12_14h23.03.933,empathy_intonation_perc,2024.2.4,Win32,59.88023952,5fe2bc6c9177396d90ae7f54,687ed1b7e638a4cbf2f02089,689b860cd0ae9b5b45d95974,,,,,,,,,,,,,,0,,,,,,,,,,,,,,,,,,,,,,,,,,,,,,,,,,,,,,,,,,,,,,,,,,,,,,,,,84,escuto,,,,,763.9677,765.9834,1,0,1.4688,,0,91,91,83,1,REAL,FAKE,,,,,,,,,,,,,,,,,
,,,,,,,,,5fe2bc6c9177396d90ae7f54,Spanish,13 or older,"no, only English or Spanish",no,2025-08-12_14h23.03.933,empathy_intonation_perc,2024.2.4,Win32,59.88023952,5fe2bc6c9177396d90ae7f54,687ed1b7e638a4cbf2f02089,689b860cd0ae9b5b45d95974,,,,,,,,,,,,,,,,,,,,,,,,,,,,,,,,,,,,,,,,,,,,,,,,,,,,,,,,,,,,,,,,,,,,,,,,,,,,,,,,,,,,,,,,,,765.9838,774.3983,,,,,,,,,,,,,,,
,,,,,,,,,5fe2bc6c9177396d90ae7f54,Spanish,13 or older,"no, only English or Spanish",no,2025-08-12_14h23.03.933,empathy_intonation_perc,2024.2.4,Win32,59.88023952,5fe2bc6c9177396d90ae7f54,687ed1b7e638a4cbf2f02089,689b860cd0ae9b5b45d95974,,,,,,,,,,,,,1,,,,,,,,,,,,,,,,,,,,,,,,,,,,,,,,,,,,,,,,,,,,,,,,,,,,,,,,,,,,,,,,,,,,,,,,,,,,,,,774.4063,784.0991,slightly disagree,0,0,0,0,1,I can easily tell if someone else wants to enter a conversation.,1,0,1,0,,
,,,,,,,,,5fe2bc6c9177396d90ae7f54,Spanish,13 or older,"no, only English or Spanish",no,2025-08-12_14h23.03.933,empathy_intonation_perc,2024.2.4,Win32,59.88023952,5fe2bc6c9177396d90ae7f54,687ed1b7e638a4cbf2f02089,689b860cd0ae9b5b45d95974,,,,,,,,,,,,,2,,,,,,,,,,,,,,,,,,,,,,,,,,,,,,,,,,,,,,,,,,,,,,,,,,,,,,,,,,,,,,,,,,,,,,,,,,,,,,,784.1005,786.6611,slightly disagree,0,1,1,1,1,I prefer animals to humans.,0,1,0,0,,
,,,,,,,,,5fe2bc6c9177396d90ae7f54,Spanish,13 or older,"no, only English or Spanish",no,2025-08-12_14h23.03.933,empathy_intonation_perc,2024.2.4,Win32,59.88023952,5fe2bc6c9177396d90ae7f54,687ed1b7e638a4cbf2f02089,689b860cd0ae9b5b45d95974,,,,,,,,,,,,,3,,,,,,,,,,,,,,,,,,,,,,,,,,,,,,,,,,,,,,,,,,,,,,,,,,,,,,,,,,,,,,,,,,,,,,,,,,,,,,,786.6631,792.143,slightly agree,0,2,2,2,1,I try to keep up with the current trends and fashions.,0,1,0,0,,
,,,,,,,,,5fe2bc6c9177396d90ae7f54,Spanish,13 or older,"no, only English or Spanish",no,2025-08-12_14h23.03.933,empathy_intonation_perc,2024.2.4,Win32,59.88023952,5fe2bc6c9177396d90ae7f54,687ed1b7e638a4cbf2f02089,689b860cd0ae9b5b45d95974,,,,,,,,,,,,,4,,,,,,,,,,,,,,,,,,,,,,,,,,,,,,,,,,,,,,,,,,,,,,,,,,,,,,,,,,,,,,,,,,,,,,,,,,,,,,,792.1447,800.2574,slightly agree,0,3,3,3,1,"I find it difficult to explain to others things that I understand easily,   when they don't understand it first time.",1,0,0,1,,
,,,,,,,,,5fe2bc6c9177396d90ae7f54,Spanish,13 or older,"no, only English or Spanish",no,2025-08-12_14h23.03.933,empathy_intonation_perc,2024.2.4,Win32,59.88023952,5fe2bc6c9177396d90ae7f54,687ed1b7e638a4cbf2f02089,689b860cd0ae9b5b45d95974,,,,,,,,,,,,,5,,,,,,,,,,,,,,,,,,,,,,,,,,,,,,,,,,,,,,,,,,,,,,,,,,,,,,,,,,,,,,,,,,,,,,,,,,,,,,,800.2584,803.9789,slightly disagree,0,4,4,4,1,I dream most nights.,0,1,0,0,,
,,,,,,,,,5fe2bc6c9177396d90ae7f54,Spanish,13 or older,"no, only English or Spanish",no,2025-08-12_14h23.03.933,empathy_intonation_perc,2024.2.4,Win32,59.88023952,5fe2bc6c9177396d90ae7f54,687ed1b7e638a4cbf2f02089,689b860cd0ae9b5b45d95974,,,,,,,,,,,,,6,,,,,,,,,,,,,,,,,,,,,,,,,,,,,,,,,,,,,,,,,,,,,,,,,,,,,,,,,,,,,,,,,,,,,,,,,,,,,,,803.9799,807.6388,slightly agree,0,5,5,5,1,I really enjoy caring for other people.,1,0,1,0,,
,,,,,,,,,5fe2bc6c9177396d90ae7f54,Spanish,13 or older,"no, only English or Spanish",no,2025-08-12_14h23.03.933,empathy_intonation_perc,2024.2.4,Win32,59.88023952,5fe2bc6c9177396d90ae7f54,687ed1b7e638a4cbf2f02089,689b860cd0ae9b5b45d95974,,,,,,,,,,,,,7,,,,,,,,,,,,,,,,,,,,,,,,,,,,,,,,,,,,,,,,,,,,,,,,,,,,,,,,,,,,,,,,,,,,,,,,,,,,,,,807.6402,813.0374,strongly agree,0,6,6,6,1,I try to solve my own problems rather than discussing them with others.,0,1,0,0,,
,,,,,,,,,5fe2bc6c9177396d90ae7f54,Spanish,13 or older,"no, only English or Spanish",no,2025-08-12_14h23.03.933,empathy_intonation_perc,2024.2.4,Win32,59.88023952,5fe2bc6c9177396d90ae7f54,687ed1b7e638a4cbf2f02089,689b860cd0ae9b5b45d95974,,,,,,,,,,,,,8,,,,,,,,,,,,,,,,,,,,,,,,,,,,,,,,,,,,,,,,,,,,,,,,,,,,,,,,,,,,,,,,,,,,,,,,,,,,,,,813.0384,817.2866,slightly disagree,0,7,7,7,1,I find it hard to know what to do in a social situation.,1,0,0,1,,
,,,,,,,,,5fe2bc6c9177396d90ae7f54,Spanish,13 or older,"no, only English or Spanish",no,2025-08-12_14h23.03.933,empathy_intonation_perc,2024.2.4,Win32,59.88023952,5fe2bc6c9177396d90ae7f54,687ed1b7e638a4cbf2f02089,689b860cd0ae9b5b45d95974,,,,,,,,,,,,,9,,,,,,,,,,,,,,,,,,,,,,,,,,,,,,,,,,,,,,,,,,,,,,,,,,,,,,,,,,,,,,,,,,,,,,,,,,,,,,,817.2884,821.3687,strongly disagree,0,8,8,8,1,I am at my best first thing in the morning.,0,1,0,0,,
,,,,,,,,,5fe2bc6c9177396d90ae7f54,Spanish,13 or older,"no, only English or Spanish",no,2025-08-12_14h23.03.933,empathy_intonation_perc,2024.2.4,Win32,59.88023952,5fe2bc6c9177396d90ae7f54,687ed1b7e638a4cbf2f02089,689b860cd0ae9b5b45d95974,,,,,,,,,,,,,10,,,,,,,,,,,,,,,,,,,,,,,,,,,,,,,,,,,,,,,,,,,,,,,,,,,,,,,,,,,,,,,,,,,,,,,,,,,,,,,821.3701,828.167,slightly disagree,0,9,9,9,1,People often tell me that I went too far in driving my point home in a discussion.,1,0,0,1,,
