instructions_exposure.started,instructions_exposure.stopped,instructions_exposure_loop.thisRepN,instructions_exposure_loop.thisTrialN,instructions_exposure_loop.thisN,instructions_exposure_loop.thisIndex,instructions_exposure_loop.ran,instructions_text,continue_text,participant_id,"What variety of Spanish are you most familiar with? (e.g., Peruvian, Spanish, Mexican)",At what age did you begin learning Spanish?,Are you proficient in any languages other than English/Spanish?,"Are you familiar with Caribbean (e.g., Caribbean, Puerto Rican) or Galician Spanish?",date,expName,psychopyVersion,OS,frameRate,id,study_id,session,trial_exposure.started,trial_exposure.stopped,key_resp_exposure.keys,key_resp_exposure.corr,key_resp_exposure.rt,key_resp_exposure.duration,key_resp.keys,exposure_loop.thisRepN,exposure_loop.thisTrialN,exposure_loop.thisN,exposure_loop.thisIndex,exposure_loop.ran,item_num,correct_response,question,path,duration,instructions_2afc.started,instructions_2afc.stopped,instructions_2afc_loop.thisRepN,instructions_2afc_loop.thisTrialN,instructions_2afc_loop.thisN,instructions_2afc_loop.thisIndex,instructions_2afc_loop.ran,practice_2afc.started,practice_2afc.stopped,key_resp_2afc_practice.keys,key_resp_2afc_practice.corr,key_resp_2afc_practice.rt,key_resp_2afc_practice.duration,trials_2afc_practice_loop.thisRepN,trials_2afc_practice_loop.thisTrialN,trials_2afc_practice_loop.thisN,trials_2afc_practice_loop.thisIndex,trials_2afc_practice_loop.ran,check_2afc.started,check_2afc.stopped,trial_2afc.started,trial_2afc.stopped,key_resp_2afc_trial.keys,key_resp_2afc_trial.corr,key_resp_2afc_trial.rt,key_resp_2afc_trial.duration,trials_2afc_loop.thisRepN,trials_2afc_loop.thisTrialN,trials_2afc_loop.thisN,trials_2afc_loop.thisIndex,trials_2afc_loop.ran,target,variety,instructions_lextale.started,instructions_lextale.stopped,instructions_lextale_loop.thisRepN,instructions_lextale_loop.thisTrialN,instructions_lextale_loop.thisN,instructions_lextale_loop.thisIndex,instructions_lextale_loop.ran,practice_lextale.started,practice_lextale.stopped,key_resp_lextale_practice.keys,key_resp_lextale_practice.corr,key_resp_lextale_practice.rt,key_resp_lextale_practice.duration,practice_feedback_lextale.started,practice_feedback_lextale.stopped,trials_lextale_practice_loop.thisRepN,trials_lextale_practice_loop.thisTrialN,trials_lextale_practice_loop.thisN,trials_lextale_practice_loop.thisIndex,trials_lextale_practice_loop.ran,stim,word,prac_button_real,prac_button_false,check_lextale.started,check_lextale.stopped,trial_lextale.started,trial_lextale.stopped,key_resp_lextale_trial.keys,key_resp_lextale_trial.corr,key_resp_lextale_trial.rt,key_resp_lextale_trial.duration,trials_lextale_loop.thisRepN,trials_lextale_loop.thisTrialN,trials_lextale_loop.thisN,trials_lextale_loop.thisIndex,trials_lextale_loop.ran,button_real,button_false,instructions_eq.started,instructions_eq.stopped,trial_eq.started,trial_eq.stopped,slider_eq_trial.response,trials_eq_loop.thisRepN,trials_eq_loop.thisTrialN,trials_eq_loop.thisN,trials_eq_loop.thisIndex,trials_eq_loop.ran,item,is_test_item,is_distractor,is_agree_score,is_disagree_score,end_exp.started,end_exp.stopped
0.0179,5.0047,0,0,0,0,1,"In the following task, you are going to hear a series of conversations.", (press the space bar to continue),60045900ccb68e4bdd23111e,Spanish,13 or older,"no, only English or Spanish",no,2025-08-15_08h34.53.021,empathy_intonation_perc,2024.2.4,Win32,59.88023952,60045900ccb68e4bdd23111e,689ed6d1281858f68c932c05,689f29380079cc88f9c28eed,,,,,,,,,,,,,,,,,,,,,,,,,,,,,,,,,,,,,,,,,,,,,,,,,,,,,,,,,,,,,,,,,,,,,,,,,,,,,,,,,,,,,,,,,,,,,,,,,,,,,,,,,,
5.006,10.5874,0,1,1,1,1,It is okay if you don't not 100% understand them!, (press the space bar to continue),60045900ccb68e4bdd23111e,Spanish,13 or older,"no, only English or Spanish",no,2025-08-15_08h34.53.021,empathy_intonation_perc,2024.2.4,Win32,59.88023952,60045900ccb68e4bdd23111e,689ed6d1281858f68c932c05,689f29380079cc88f9c28eed,,,,,,,,,,,,,,,,,,,,,,,,,,,,,,,,,,,,,,,,,,,,,,,,,,,,,,,,,,,,,,,,,,,,,,,,,,,,,,,,,,,,,,,,,,,,,,,,,,,,,,,,,,
10.5913,14.7545,0,2,2,2,1,"After, you will read a sentence about the conversation and decide if it's true or false.", (press the space bar to continue),60045900ccb68e4bdd23111e,Spanish,13 or older,"no, only English or Spanish",no,2025-08-15_08h34.53.021,empathy_intonation_perc,2024.2.4,Win32,59.88023952,60045900ccb68e4bdd23111e,689ed6d1281858f68c932c05,689f29380079cc88f9c28eed,,,,,,,,,,,,,,,,,,,,,,,,,,,,,,,,,,,,,,,,,,,,,,,,,,,,,,,,,,,,,,,,,,,,,,,,,,,,,,,,,,,,,,,,,,,,,,,,,,,,,,,,,,
14.7586,20.9371,0,3,3,3,1,"If it's true, press '1' (True) and if it's false press '0' (False).", (press the space bar to continue),60045900ccb68e4bdd23111e,Spanish,13 or older,"no, only English or Spanish",no,2025-08-15_08h34.53.021,empathy_intonation_perc,2024.2.4,Win32,59.88023952,60045900ccb68e4bdd23111e,689ed6d1281858f68c932c05,689f29380079cc88f9c28eed,,,,,,,,,,,,,,,,,,,,,,,,,,,,,,,,,,,,,,,,,,,,,,,,,,,,,,,,,,,,,,,,,,,,,,,,,,,,,,,,,,,,,,,,,,,,,,,,,,,,,,,,,,
,,,,,,,,,60045900ccb68e4bdd23111e,Spanish,13 or older,"no, only English or Spanish",no,2025-08-15_08h34.53.021,empathy_intonation_perc,2024.2.4,Win32,59.88023952,60045900ccb68e4bdd23111e,689ed6d1281858f68c932c05,689f29380079cc88f9c28eed,20.9545,88.2375,0,0,7.23,,,0,0,0,1,1,2,1,The mom asked the daughter if she already went to the supermarket.,./stim/exposure_wavs/dr_stimuli_convo.wav,60,,,,,,,,,,,,,,,,,,,,,,,,,,,,,,,,,,,,,,,,,,,,,,,,,,,,,,,,,,,,,,,,,,,,,,,,,,,,,,,,,,,,,,,,,
,,,,,,,,,60045900ccb68e4bdd23111e,Spanish,13 or older,"no, only English or Spanish",no,2025-08-15_08h34.53.021,empathy_intonation_perc,2024.2.4,Win32,59.88023952,60045900ccb68e4bdd23111e,689ed6d1281858f68c932c05,689f29380079cc88f9c28eed,88.241,141.4033,1,1,6.1324,,,0,1,1,0,1,1,1,The son asked the mom if Aunt Marina is okay.,./stim/exposure_wavs/ga_stimuli_convo.wav,47,,,,,,,,,,,,,,,,,,,,,,,,,,,,,,,,,,,,,,,,,,,,,,,,,,,,,,,,,,,,,,,,,,,,,,,,,,,,,,,,,,,,,,,,,
,,,,,,,,,60045900ccb68e4bdd23111e,Spanish,13 or older,"no, only English or Spanish",no,2025-08-15_08h34.53.021,empathy_intonation_perc,2024.2.4,Win32,59.88023952,60045900ccb68e4bdd23111e,689ed6d1281858f68c932c05,689f29380079cc88f9c28eed,141.4052,183.0535,0,1,5.6133,,,0,2,2,2,1,3,0,The mom already has rice.,./stim/exposure_wavs/pr_stimuli_convo.wav,36,,,,,,,,,,,,,,,,,,,,,,,,,,,,,,,,,,,,,,,,,,,,,,,,,,,,,,,,,,,,,,,,,,,,,,,,,,,,,,,,,,,,,,,,,
,,,,,,,"In the following task you are going to hear a series of utterances. 

  You will decide if the utterances sound like questions or not using your keyboard.", (press the spacebar to continue),60045900ccb68e4bdd23111e,Spanish,13 or older,"no, only English or Spanish",no,2025-08-15_08h34.53.021,empathy_intonation_perc,2024.2.4,Win32,59.88023952,60045900ccb68e4bdd23111e,689ed6d1281858f68c932c05,689f29380079cc88f9c28eed,,,,,,,,,,,,,,,,,,183.0628,191.9036,0,0,0,0,1,,,,,,,,,,,,,,,,,,,,,,,,,,,,,,,,,,,,,,,,,,,,,,,,,,,,,,,,,,,,,,,,,,,,,,,,,,,,,,,,,,
,,,,,,,"If you believe the utterance is a question, type '1' (for 'yes') and if you do not 
  believe it is a question type '0' (for 'no').

  Let's practice a bit...", (press the spacebar to continue),60045900ccb68e4bdd23111e,Spanish,13 or older,"no, only English or Spanish",no,2025-08-15_08h34.53.021,empathy_intonation_perc,2024.2.4,Win32,59.88023952,60045900ccb68e4bdd23111e,689ed6d1281858f68c932c05,689f29380079cc88f9c28eed,,,,,,,,,,,,,,,,,,191.9057,196.7371,0,1,1,1,1,,,,,,,,,,,,,,,,,,,,,,,,,,,,,,,,,,,,,,,,,,,,,,,,,,,,,,,,,,,,,,,,,,,,,,,,,,,,,,,,,,
,,,,,,,,,60045900ccb68e4bdd23111e,Spanish,13 or older,"no, only English or Spanish",no,2025-08-15_08h34.53.021,empathy_intonation_perc,2024.2.4,Win32,59.88023952,60045900ccb68e4bdd23111e,689ed6d1281858f68c932c05,689f29380079cc88f9c28eed,,,,,,,,,,,,,,0,,./stim/wavs/peruvian_statement_filler_El-nino-habla-con-su-madre.wav,,,,,,,,,196.7487,202.5375,0,1,5.2679,,0,0,0,6,1,,,,,,,,,,,,,,,,,,,,,,,,,,,,,,,,,,,,,,,,,,,,,,,,,,,,,,,,,,,,,,,,,,,,,,,
,,,,,,,,,60045900ccb68e4bdd23111e,Spanish,13 or older,"no, only English or Spanish",no,2025-08-15_08h34.53.021,empathy_intonation_perc,2024.2.4,Win32,59.88023952,60045900ccb68e4bdd23111e,689ed6d1281858f68c932c05,689f29380079cc88f9c28eed,,,,,,,,,,,,,,0,,./stim/wavs/cuban_statement_filler_Cocinabas-por-la-noche.wav,,,,,,,,,202.5384,205.8199,0,1,2.7586,,0,1,1,4,1,,,,,,,,,,,,,,,,,,,,,,,,,,,,,,,,,,,,,,,,,,,,,,,,,,,,,,,,,,,,,,,,,,,,,,,
,,,,,,,,,60045900ccb68e4bdd23111e,Spanish,13 or older,"no, only English or Spanish",no,2025-08-15_08h34.53.021,empathy_intonation_perc,2024.2.4,Win32,59.88023952,60045900ccb68e4bdd23111e,689ed6d1281858f68c932c05,689f29380079cc88f9c28eed,,,,,,,,,,,,,,1,,./stim/wavs/mexican_question_filler_Felipe-no-tiene-contrasena.wav,,,,,,,,,205.8203,208.9202,1,1,2.5833,,0,2,2,3,1,,,,,,,,,,,,,,,,,,,,,,,,,,,,,,,,,,,,,,,,,,,,,,,,,,,,,,,,,,,,,,,,,,,,,,,
,,,,,,,,,60045900ccb68e4bdd23111e,Spanish,13 or older,"no, only English or Spanish",no,2025-08-15_08h34.53.021,empathy_intonation_perc,2024.2.4,Win32,59.88023952,60045900ccb68e4bdd23111e,689ed6d1281858f68c932c05,689f29380079cc88f9c28eed,,,,,,,,,,,,,,1,,./stim/wavs/argentine_question_filler_Mi-vecino-habla-mucho.wav,,,,,,,,,208.9215,211.3369,1,1,1.8838,,0,3,3,1,1,,,,,,,,,,,,,,,,,,,,,,,,,,,,,,,,,,,,,,,,,,,,,,,,,,,,,,,,,,,,,,,,,,,,,,,
,,,,,,,,,60045900ccb68e4bdd23111e,Spanish,13 or older,"no, only English or Spanish",no,2025-08-15_08h34.53.021,empathy_intonation_perc,2024.2.4,Win32,59.88023952,60045900ccb68e4bdd23111e,689ed6d1281858f68c932c05,689f29380079cc88f9c28eed,,,,,,,,,,,,,,0,,./stim/wavs/andalusian_statement_filler_Alberto-nunca-se-afeita.wav,,,,,,,,,211.3376,214.9201,0,1,3.0515,,0,4,4,5,1,,,,,,,,,,,,,,,,,,,,,,,,,,,,,,,,,,,,,,,,,,,,,,,,,,,,,,,,,,,,,,,,,,,,,,,
,,,,,,,,,60045900ccb68e4bdd23111e,Spanish,13 or older,"no, only English or Spanish",no,2025-08-15_08h34.53.021,empathy_intonation_perc,2024.2.4,Win32,59.88023952,60045900ccb68e4bdd23111e,689ed6d1281858f68c932c05,689f29380079cc88f9c28eed,,,,,,,,,,,,,,1,,./stim/wavs/castilian_question_filler_Mi-esposo-conoce-al-chico.wav,,,,,,,,,214.9211,217.7367,1,1,2.2855,,0,5,5,0,1,,,,,,,,,,,,,,,,,,,,,,,,,,,,,,,,,,,,,,,,,,,,,,,,,,,,,,,,,,,,,,,,,,,,,,,
,,,,,,,,,60045900ccb68e4bdd23111e,Spanish,13 or older,"no, only English or Spanish",no,2025-08-15_08h34.53.021,empathy_intonation_perc,2024.2.4,Win32,59.88023952,60045900ccb68e4bdd23111e,689ed6d1281858f68c932c05,689f29380079cc88f9c28eed,,,,,,,,,,,,,,1,,./stim/wavs/chilean_question_filler_Mi-padre-cantaba-bien.wav,,,,,,,,,217.7375,220.8365,0,0,2.5749,,0,6,6,2,1,,,,,,,,,,,,,,,,,,,,,,,,,,,,,,,,,,,,,,,,,,,,,,,,,,,,,,,,,,,,,,,,,,,,,,,
,,,,,,,,,60045900ccb68e4bdd23111e,Spanish,13 or older,"no, only English or Spanish",no,2025-08-15_08h34.53.021,empathy_intonation_perc,2024.2.4,Win32,59.88023952,60045900ccb68e4bdd23111e,689ed6d1281858f68c932c05,689f29380079cc88f9c28eed,,,,,,,,,,,,,,0,,./stim/wavs/puertorican_statement_filler_La-nina-pinta-con-su-amiga.wav,,,,,,,,,220.837,223.6534,0,1,2.3007,,0,7,7,7,1,,,,,,,,,,,,,,,,,,,,,,,,,,,,,,,,,,,,,,,,,,,,,,,,,,,,,,,,,,,,,,,,,,,,,,,
,,,,,,,,,60045900ccb68e4bdd23111e,Spanish,13 or older,"no, only English or Spanish",no,2025-08-15_08h34.53.021,empathy_intonation_perc,2024.2.4,Win32,59.88023952,60045900ccb68e4bdd23111e,689ed6d1281858f68c932c05,689f29380079cc88f9c28eed,,,,,,,,,,,,,,,,,,,,,,,,,,,,,,,,,,,,223.6537,228.1702,,,,,,,,,,,,,,,,,,,,,,,,,,,,,,,,,,,,,,,,,,,,,,,,,,,,,,,,,,,,,,,,,,,,,
,,,,,,,,,60045900ccb68e4bdd23111e,Spanish,13 or older,"no, only English or Spanish",no,2025-08-15_08h34.53.021,empathy_intonation_perc,2024.2.4,Win32,59.88023952,60045900ccb68e4bdd23111e,689ed6d1281858f68c932c05,689f29380079cc88f9c28eed,,,,,,,,,,,,,11,1,,./stim/wavs/cuban_match_interrogative-total-yn_Mariano-habla-del-tiempo.wav,,,,,,,,,,,,,,,,,,,,,,228.183,230.5535,0,0,1.8541,,0,0,0,10,1,1,cuban,,,,,,,,,,,,,,,,,,,,,,,,,,,,,,,,,,,,,,,,,,,,,,,,,,,,,,,,
,,,,,,,,,60045900ccb68e4bdd23111e,Spanish,13 or older,"no, only English or Spanish",no,2025-08-15_08h34.53.021,empathy_intonation_perc,2024.2.4,Win32,59.88023952,60045900ccb68e4bdd23111e,689ed6d1281858f68c932c05,689f29380079cc88f9c28eed,,,,,,,,,,,,,69,0,,./stim/wavs/castilian_mismatch_declarative-broad-focus_El-nino-oye-el-rio.wav,,,,,,,,,,,,,,,,,,,,,,230.5545,232.7534,0,1,1.6791,,0,1,1,68,1,0,castilian,,,,,,,,,,,,,,,,,,,,,,,,,,,,,,,,,,,,,,,,,,,,,,,,,,,,,,,,
,,,,,,,,,60045900ccb68e4bdd23111e,Spanish,13 or older,"no, only English or Spanish",no,2025-08-15_08h34.53.021,empathy_intonation_perc,2024.2.4,Win32,59.88023952,60045900ccb68e4bdd23111e,689ed6d1281858f68c932c05,689f29380079cc88f9c28eed,,,,,,,,,,,,,2,1,,./stim/wavs/castilian_match_interrogative-total-yn_Emilio-ama-la-marcha.wav,,,,,,,,,,,,,,,,,,,,,,232.7543,235.0199,1,1,1.7421,,0,2,2,1,1,0,castilian,,,,,,,,,,,,,,,,,,,,,,,,,,,,,,,,,,,,,,,,,,,,,,,,,,,,,,,,
,,,,,,,,,60045900ccb68e4bdd23111e,Spanish,13 or older,"no, only English or Spanish",no,2025-08-15_08h34.53.021,empathy_intonation_perc,2024.2.4,Win32,59.88023952,60045900ccb68e4bdd23111e,689ed6d1281858f68c932c05,689f29380079cc88f9c28eed,,,,,,,,,,,,,18,1,,./stim/wavs/mexican_match_interrogative-total-yn_Marta-abre-el-regalo.wav,,,,,,,,,,,,,,,,,,,,,,235.0203,237.0032,1,1,1.4762,,0,3,3,17,1,0,mexican,,,,,,,,,,,,,,,,,,,,,,,,,,,,,,,,,,,,,,,,,,,,,,,,,,,,,,,,
,,,,,,,,,60045900ccb68e4bdd23111e,Spanish,13 or older,"no, only English or Spanish",no,2025-08-15_08h34.53.021,empathy_intonation_perc,2024.2.4,Win32,59.88023952,60045900ccb68e4bdd23111e,689ed6d1281858f68c932c05,689f29380079cc88f9c28eed,,,,,,,,,,,,,82,0,,./stim/wavs/mexican_mismatch_declarative-broad-focus_Mi-novio-viene-del-lago.wav,,,,,,,,,,,,,,,,,,,,,,237.0037,239.0033,0,1,1.4781,,0,4,4,81,1,0,mexican,,,,,,,,,,,,,,,,,,,,,,,,,,,,,,,,,,,,,,,,,,,,,,,,,,,,,,,,
,,,,,,,,,60045900ccb68e4bdd23111e,Spanish,13 or older,"no, only English or Spanish",no,2025-08-15_08h34.53.021,empathy_intonation_perc,2024.2.4,Win32,59.88023952,60045900ccb68e4bdd23111e,689ed6d1281858f68c932c05,689f29380079cc88f9c28eed,,,,,,,,,,,,,29,1,,./stim/wavs/castilian_mismatch_interrogative-total-yn_Mi-tia-odia-la-lluvia.wav,,,,,,,,,,,,,,,,,,,,,,239.0041,241.3201,1,1,1.7853,,0,5,5,28,1,0,castilian,,,,,,,,,,,,,,,,,,,,,,,,,,,,,,,,,,,,,,,,,,,,,,,,,,,,,,,,
,,,,,,,,,60045900ccb68e4bdd23111e,Spanish,13 or older,"no, only English or Spanish",no,2025-08-15_08h34.53.021,empathy_intonation_perc,2024.2.4,Win32,59.88023952,60045900ccb68e4bdd23111e,689ed6d1281858f68c932c05,689f29380079cc88f9c28eed,,,,,,,,,,,,,27,1,,./stim/wavs/castilian_mismatch_interrogative-total-yn_Mi-madre-come-la-fruta.wav,,,,,,,,,,,,,,,,,,,,,,241.3208,243.5532,1,1,1.7056,,0,6,6,26,1,0,castilian,,,,,,,,,,,,,,,,,,,,,,,,,,,,,,,,,,,,,,,,,,,,,,,,,,,,,,,,
,,,,,,,,,60045900ccb68e4bdd23111e,Spanish,13 or older,"no, only English or Spanish",no,2025-08-15_08h34.53.021,empathy_intonation_perc,2024.2.4,Win32,59.88023952,60045900ccb68e4bdd23111e,689ed6d1281858f68c932c05,689f29380079cc88f9c28eed,,,,,,,,,,,,,37,1,,./stim/wavs/mexican_mismatch_interrogative-total-yn_La-maestra-vive-en-Paris.wav,,,,,,,,,,,,,,,,,,,,,,243.5537,245.8366,1,1,1.7581,,0,7,7,36,1,0,mexican,,,,,,,,,,,,,,,,,,,,,,,,,,,,,,,,,,,,,,,,,,,,,,,,,,,,,,,,
,,,,,,,,,60045900ccb68e4bdd23111e,Spanish,13 or older,"no, only English or Spanish",no,2025-08-15_08h34.53.021,empathy_intonation_perc,2024.2.4,Win32,59.88023952,60045900ccb68e4bdd23111e,689ed6d1281858f68c932c05,689f29380079cc88f9c28eed,,,,,,,,,,,,,80,0,,./stim/wavs/mexican_mismatch_declarative-broad-focus_El-hombre-mira-la-luna.wav,,,,,,,,,,,,,,,,,,,,,,245.8369,247.8367,0,1,1.4917,,0,8,8,79,1,0,mexican,,,,,,,,,,,,,,,,,,,,,,,,,,,,,,,,,,,,,,,,,,,,,,,,,,,,,,,,
,,,,,,,,,60045900ccb68e4bdd23111e,Spanish,13 or older,"no, only English or Spanish",no,2025-08-15_08h34.53.021,empathy_intonation_perc,2024.2.4,Win32,59.88023952,60045900ccb68e4bdd23111e,689ed6d1281858f68c932c05,689f29380079cc88f9c28eed,,,,,,,,,,,,,60,0,,./stim/wavs/mexican_match_declarative-broad-focus_Emilio-ama-la-marcha.wav,,,,,,,,,,,,,,,,,,,,,,247.8373,249.9202,0,1,1.5495,,0,9,9,59,1,0,mexican,,,,,,,,,,,,,,,,,,,,,,,,,,,,,,,,,,,,,,,,,,,,,,,,,,,,,,,,
,,,,,,,,,60045900ccb68e4bdd23111e,Spanish,13 or older,"no, only English or Spanish",no,2025-08-15_08h34.53.021,empathy_intonation_perc,2024.2.4,Win32,59.88023952,60045900ccb68e4bdd23111e,689ed6d1281858f68c932c05,689f29380079cc88f9c28eed,,,,,,,,,,,,,56,0,,./stim/wavs/cuban_match_declarative-broad-focus_Marta-abre-el-regalo.wav,,,,,,,,,,,,,,,,,,,,,,249.9209,252.1533,0,1,1.7033,,0,10,10,55,1,0,cuban,,,,,,,,,,,,,,,,,,,,,,,,,,,,,,,,,,,,,,,,,,,,,,,,,,,,,,,,
,,,,,,,,,60045900ccb68e4bdd23111e,Spanish,13 or older,"no, only English or Spanish",no,2025-08-15_08h34.53.021,empathy_intonation_perc,2024.2.4,Win32,59.88023952,60045900ccb68e4bdd23111e,689ed6d1281858f68c932c05,689f29380079cc88f9c28eed,,,,,,,,,,,,,36,1,,./stim/wavs/mexican_mismatch_interrogative-total-yn_El-nino-oye-el-rio.wav,,,,,,,,,,,,,,,,,,,,,,252.1538,254.4866,1,1,1.8061,,0,11,11,35,1,0,mexican,,,,,,,,,,,,,,,,,,,,,,,,,,,,,,,,,,,,,,,,,,,,,,,,,,,,,,,,
,,,,,,,,,60045900ccb68e4bdd23111e,Spanish,13 or older,"no, only English or Spanish",no,2025-08-15_08h34.53.021,empathy_intonation_perc,2024.2.4,Win32,59.88023952,60045900ccb68e4bdd23111e,689ed6d1281858f68c932c05,689f29380079cc88f9c28eed,,,,,,,,,,,,,53,0,,./stim/wavs/cuban_match_declarative-broad-focus_Manuela-vende-el-carro.wav,,,,,,,,,,,,,,,,,,,,,,254.487,256.6865,0,1,1.668,,0,12,12,52,1,0,cuban,,,,,,,,,,,,,,,,,,,,,,,,,,,,,,,,,,,,,,,,,,,,,,,,,,,,,,,,
,,,,,,,,,60045900ccb68e4bdd23111e,Spanish,13 or older,"no, only English or Spanish",no,2025-08-15_08h34.53.021,empathy_intonation_perc,2024.2.4,Win32,59.88023952,60045900ccb68e4bdd23111e,689ed6d1281858f68c932c05,689f29380079cc88f9c28eed,,,,,,,,,,,,,85,0,,./stim/wavs/puertorican_mismatch_declarative-broad-focus_El-hombre-mira-la-luna.wav,,,,,,,,,,,,,,,,,,,,,,256.687,258.7367,0,1,1.538,,0,13,13,84,1,0,puertorican,,,,,,,,,,,,,,,,,,,,,,,,,,,,,,,,,,,,,,,,,,,,,,,,,,,,,,,,
,,,,,,,,,60045900ccb68e4bdd23111e,Spanish,13 or older,"no, only English or Spanish",no,2025-08-15_08h34.53.021,empathy_intonation_perc,2024.2.4,Win32,59.88023952,60045900ccb68e4bdd23111e,689ed6d1281858f68c932c05,689f29380079cc88f9c28eed,,,,,,,,,,,,,65,0,,./stim/wavs/puertorican_match_declarative-broad-focus_David-leia-el-libro.wav,,,,,,,,,,,,,,,,,,,,,,258.7372,260.7366,0,1,1.4711,,0,14,14,64,1,0,puertorican,,,,,,,,,,,,,,,,,,,,,,,,,,,,,,,,,,,,,,,,,,,,,,,,,,,,,,,,
,,,,,,,,,60045900ccb68e4bdd23111e,Spanish,13 or older,"no, only English or Spanish",no,2025-08-15_08h34.53.021,empathy_intonation_perc,2024.2.4,Win32,59.88023952,60045900ccb68e4bdd23111e,689ed6d1281858f68c932c05,689f29380079cc88f9c28eed,,,,,,,,,,,,,13,1,,./stim/wavs/mexican_match_interrogative-total-yn_Ana-lleva-el-abrigo.wav,,,,,,,,,,,,,,,,,,,,,,260.737,262.77,1,1,1.512,,0,15,15,12,1,0,mexican,,,,,,,,,,,,,,,,,,,,,,,,,,,,,,,,,,,,,,,,,,,,,,,,,,,,,,,,
,,,,,,,,,60045900ccb68e4bdd23111e,Spanish,13 or older,"no, only English or Spanish",no,2025-08-15_08h34.53.021,empathy_intonation_perc,2024.2.4,Win32,59.88023952,60045900ccb68e4bdd23111e,689ed6d1281858f68c932c05,689f29380079cc88f9c28eed,,,,,,,,,,,,,5,1,,./stim/wavs/castilian_match_interrogative-total-yn_Mariano-habla-del-tiempo.wav,,,,,,,,,,,,,,,,,,,,,,262.7708,265.4031,1,1,2.1096,,0,16,16,4,1,0,castilian,,,,,,,,,,,,,,,,,,,,,,,,,,,,,,,,,,,,,,,,,,,,,,,,,,,,,,,,
,,,,,,,,,60045900ccb68e4bdd23111e,Spanish,13 or older,"no, only English or Spanish",no,2025-08-15_08h34.53.021,empathy_intonation_perc,2024.2.4,Win32,59.88023952,60045900ccb68e4bdd23111e,689ed6d1281858f68c932c05,689f29380079cc88f9c28eed,,,,,,,,,,,,,38,1,,./stim/wavs/mexican_mismatch_interrogative-total-yn_Mi-novio-viene-del-lago.wav,,,,,,,,,,,,,,,,,,,,,,265.4036,267.4701,1,1,1.5413,,0,17,17,37,1,0,mexican,,,,,,,,,,,,,,,,,,,,,,,,,,,,,,,,,,,,,,,,,,,,,,,,,,,,,,,,
,,,,,,,,,60045900ccb68e4bdd23111e,Spanish,13 or older,"no, only English or Spanish",no,2025-08-15_08h34.53.021,empathy_intonation_perc,2024.2.4,Win32,59.88023952,60045900ccb68e4bdd23111e,689ed6d1281858f68c932c05,689f29380079cc88f9c28eed,,,,,,,,,,,,,50,0,,./stim/wavs/castilian_match_declarative-broad-focus_Marta-abre-el-regalo.wav,,,,,,,,,,,,,,,,,,,,,,267.4706,270.5533,0,1,2.5617,,0,18,18,49,1,0,castilian,,,,,,,,,,,,,,,,,,,,,,,,,,,,,,,,,,,,,,,,,,,,,,,,,,,,,,,,
,,,,,,,,,60045900ccb68e4bdd23111e,Spanish,13 or older,"no, only English or Spanish",no,2025-08-15_08h34.53.021,empathy_intonation_perc,2024.2.4,Win32,59.88023952,60045900ccb68e4bdd23111e,689ed6d1281858f68c932c05,689f29380079cc88f9c28eed,,,,,,,,,,,,,62,0,,./stim/wavs/mexican_match_declarative-broad-focus_Marta-abre-el-regalo.wav,,,,,,,,,,,,,,,,,,,,,,270.5541,272.5533,0,1,1.4669,,0,19,19,61,1,0,mexican,,,,,,,,,,,,,,,,,,,,,,,,,,,,,,,,,,,,,,,,,,,,,,,,,,,,,,,,
,,,,,,,,,60045900ccb68e4bdd23111e,Spanish,13 or older,"no, only English or Spanish",no,2025-08-15_08h34.53.021,empathy_intonation_perc,2024.2.4,Win32,59.88023952,60045900ccb68e4bdd23111e,689ed6d1281858f68c932c05,689f29380079cc88f9c28eed,,,,,,,,,,,,,66,0,,./stim/wavs/puertorican_match_declarative-broad-focus_Emilio-ama-la-marcha.wav,,,,,,,,,,,,,,,,,,,,,,272.554,274.5867,0,1,1.5047,,0,20,20,65,1,0,puertorican,,,,,,,,,,,,,,,,,,,,,,,,,,,,,,,,,,,,,,,,,,,,,,,,,,,,,,,,
,,,,,,,,,60045900ccb68e4bdd23111e,Spanish,13 or older,"no, only English or Spanish",no,2025-08-15_08h34.53.021,empathy_intonation_perc,2024.2.4,Win32,59.88023952,60045900ccb68e4bdd23111e,689ed6d1281858f68c932c05,689f29380079cc88f9c28eed,,,,,,,,,,,,,20,1,,./stim/wavs/puertorican_match_interrogative-total-yn_Daniel-iba-a-Bolivia.wav,,,,,,,,,,,,,,,,,,,,,,274.5873,277.6032,0,0,2.4935,,0,21,21,19,1,1,puertorican,,,,,,,,,,,,,,,,,,,,,,,,,,,,,,,,,,,,,,,,,,,,,,,,,,,,,,,,
,,,,,,,,,60045900ccb68e4bdd23111e,Spanish,13 or older,"no, only English or Spanish",no,2025-08-15_08h34.53.021,empathy_intonation_perc,2024.2.4,Win32,59.88023952,60045900ccb68e4bdd23111e,689ed6d1281858f68c932c05,689f29380079cc88f9c28eed,,,,,,,,,,,,,45,0,,./stim/wavs/castilian_match_declarative-broad-focus_David-leia-el-libro.wav,,,,,,,,,,,,,,,,,,,,,,277.6036,279.92,0,1,1.784,,0,22,22,44,1,0,castilian,,,,,,,,,,,,,,,,,,,,,,,,,,,,,,,,,,,,,,,,,,,,,,,,,,,,,,,,
,,,,,,,,,60045900ccb68e4bdd23111e,Spanish,13 or older,"no, only English or Spanish",no,2025-08-15_08h34.53.021,empathy_intonation_perc,2024.2.4,Win32,59.88023952,60045900ccb68e4bdd23111e,689ed6d1281858f68c932c05,689f29380079cc88f9c28eed,,,,,,,,,,,,,71,0,,./stim/wavs/castilian_mismatch_declarative-broad-focus_La-nina-lava-el-plato.wav,,,,,,,,,,,,,,,,,,,,,,279.9206,282.1034,0,1,1.6506,,0,23,23,70,1,0,castilian,,,,,,,,,,,,,,,,,,,,,,,,,,,,,,,,,,,,,,,,,,,,,,,,,,,,,,,,
,,,,,,,,,60045900ccb68e4bdd23111e,Spanish,13 or older,"no, only English or Spanish",no,2025-08-15_08h34.53.021,empathy_intonation_perc,2024.2.4,Win32,59.88023952,60045900ccb68e4bdd23111e,689ed6d1281858f68c932c05,689f29380079cc88f9c28eed,,,,,,,,,,,,,51,0,,./stim/wavs/cuban_match_declarative-broad-focus_Ana-lleva-el-abrigo.wav,,,,,,,,,,,,,,,,,,,,,,282.1039,284.1199,0,1,1.4824,,0,24,24,50,1,0,cuban,,,,,,,,,,,,,,,,,,,,,,,,,,,,,,,,,,,,,,,,,,,,,,,,,,,,,,,,
,,,,,,,,,60045900ccb68e4bdd23111e,Spanish,13 or older,"no, only English or Spanish",no,2025-08-15_08h34.53.021,empathy_intonation_perc,2024.2.4,Win32,59.88023952,60045900ccb68e4bdd23111e,689ed6d1281858f68c932c05,689f29380079cc88f9c28eed,,,,,,,,,,,,,70,0,,./stim/wavs/castilian_mismatch_declarative-broad-focus_La-maestra-vive-en-Paris.wav,,,,,,,,,,,,,,,,,,,,,,284.1203,286.97,0,1,2.3443,,0,25,25,69,1,0,castilian,,,,,,,,,,,,,,,,,,,,,,,,,,,,,,,,,,,,,,,,,,,,,,,,,,,,,,,,
,,,,,,,,,60045900ccb68e4bdd23111e,Spanish,13 or older,"no, only English or Spanish",no,2025-08-15_08h34.53.021,empathy_intonation_perc,2024.2.4,Win32,59.88023952,60045900ccb68e4bdd23111e,689ed6d1281858f68c932c05,689f29380079cc88f9c28eed,,,,,,,,,,,,,59,0,,./stim/wavs/mexican_match_declarative-broad-focus_David-leia-el-libro.wav,,,,,,,,,,,,,,,,,,,,,,286.9707,289.3032,0,1,1.8054,,0,26,26,58,1,0,mexican,,,,,,,,,,,,,,,,,,,,,,,,,,,,,,,,,,,,,,,,,,,,,,,,,,,,,,,,
,,,,,,,,,60045900ccb68e4bdd23111e,Spanish,13 or older,"no, only English or Spanish",no,2025-08-15_08h34.53.021,empathy_intonation_perc,2024.2.4,Win32,59.88023952,60045900ccb68e4bdd23111e,689ed6d1281858f68c932c05,689f29380079cc88f9c28eed,,,,,,,,,,,,,57,0,,./stim/wavs/mexican_match_declarative-broad-focus_Ana-lleva-el-abrigo.wav,,,,,,,,,,,,,,,,,,,,,,289.3036,291.1535,0,1,1.3282,,0,27,27,56,1,0,mexican,,,,,,,,,,,,,,,,,,,,,,,,,,,,,,,,,,,,,,,,,,,,,,,,,,,,,,,,
,,,,,,,,,60045900ccb68e4bdd23111e,Spanish,13 or older,"no, only English or Spanish",no,2025-08-15_08h34.53.021,empathy_intonation_perc,2024.2.4,Win32,59.88023952,60045900ccb68e4bdd23111e,689ed6d1281858f68c932c05,689f29380079cc88f9c28eed,,,,,,,,,,,,,14,1,,./stim/wavs/mexican_match_interrogative-total-yn_Daniel-iba-a-Bolivia.wav,,,,,,,,,,,,,,,,,,,,,,291.1542,293.5033,1,1,1.822,,0,28,28,13,1,0,mexican,,,,,,,,,,,,,,,,,,,,,,,,,,,,,,,,,,,,,,,,,,,,,,,,,,,,,,,,
,,,,,,,,,60045900ccb68e4bdd23111e,Spanish,13 or older,"no, only English or Spanish",no,2025-08-15_08h34.53.021,empathy_intonation_perc,2024.2.4,Win32,59.88023952,60045900ccb68e4bdd23111e,689ed6d1281858f68c932c05,689f29380079cc88f9c28eed,,,,,,,,,,,,,43,1,,./stim/wavs/puertorican_mismatch_interrogative-total-yn_La-nina-lava-el-plato.wav,,,,,,,,,,,,,,,,,,,,,,293.5037,295.5701,0,0,1.5366,,0,29,29,42,1,1,puertorican,,,,,,,,,,,,,,,,,,,,,,,,,,,,,,,,,,,,,,,,,,,,,,,,,,,,,,,,
,,,,,,,,,60045900ccb68e4bdd23111e,Spanish,13 or older,"no, only English or Spanish",no,2025-08-15_08h34.53.021,empathy_intonation_perc,2024.2.4,Win32,59.88023952,60045900ccb68e4bdd23111e,689ed6d1281858f68c932c05,689f29380079cc88f9c28eed,,,,,,,,,,,,,73,0,,./stim/wavs/castilian_mismatch_declarative-broad-focus_Mi-tia-odia-la-lluvia.wav,,,,,,,,,,,,,,,,,,,,,,295.5706,297.6534,0,1,1.5584,,0,30,30,72,1,0,castilian,,,,,,,,,,,,,,,,,,,,,,,,,,,,,,,,,,,,,,,,,,,,,,,,,,,,,,,,
,,,,,,,,,60045900ccb68e4bdd23111e,Spanish,13 or older,"no, only English or Spanish",no,2025-08-15_08h34.53.021,empathy_intonation_perc,2024.2.4,Win32,59.88023952,60045900ccb68e4bdd23111e,689ed6d1281858f68c932c05,689f29380079cc88f9c28eed,,,,,,,,,,,,,63,0,,./stim/wavs/puertorican_match_declarative-broad-focus_Ana-lleva-el-abrigo.wav,,,,,,,,,,,,,,,,,,,,,,297.654,299.8534,0,1,1.6673,,0,31,31,62,1,0,puertorican,,,,,,,,,,,,,,,,,,,,,,,,,,,,,,,,,,,,,,,,,,,,,,,,,,,,,,,,
,,,,,,,,,60045900ccb68e4bdd23111e,Spanish,13 or older,"no, only English or Spanish",no,2025-08-15_08h34.53.021,empathy_intonation_perc,2024.2.4,Win32,59.88023952,60045900ccb68e4bdd23111e,689ed6d1281858f68c932c05,689f29380079cc88f9c28eed,,,,,,,,,,,,,83,0,,./stim/wavs/mexican_mismatch_declarative-broad-focus_Mi-tia-odia-la-lluvia.wav,,,,,,,,,,,,,,,,,,,,,,299.854,301.8368,0,1,1.4581,,0,32,32,82,1,0,mexican,,,,,,,,,,,,,,,,,,,,,,,,,,,,,,,,,,,,,,,,,,,,,,,,,,,,,,,,
,,,,,,,,,60045900ccb68e4bdd23111e,Spanish,13 or older,"no, only English or Spanish",no,2025-08-15_08h34.53.021,empathy_intonation_perc,2024.2.4,Win32,59.88023952,60045900ccb68e4bdd23111e,689ed6d1281858f68c932c05,689f29380079cc88f9c28eed,,,,,,,,,,,,,44,1,,./stim/wavs/puertorican_mismatch_interrogative-total-yn_Mi-madre-come-la-fruta.wav,,,,,,,,,,,,,,,,,,,,,,301.8375,303.8867,0,0,1.5234,,0,33,33,43,1,1,puertorican,,,,,,,,,,,,,,,,,,,,,,,,,,,,,,,,,,,,,,,,,,,,,,,,,,,,,,,,
,,,,,,,,,60045900ccb68e4bdd23111e,Spanish,13 or older,"no, only English or Spanish",no,2025-08-15_08h34.53.021,empathy_intonation_perc,2024.2.4,Win32,59.88023952,60045900ccb68e4bdd23111e,689ed6d1281858f68c932c05,689f29380079cc88f9c28eed,,,,,,,,,,,,,23,1,,./stim/wavs/puertorican_match_interrogative-total-yn_Manuela-vende-el-carro.wav,,,,,,,,,,,,,,,,,,,,,,303.8873,306.0034,0,0,1.5864,,0,34,34,22,1,1,puertorican,,,,,,,,,,,,,,,,,,,,,,,,,,,,,,,,,,,,,,,,,,,,,,,,,,,,,,,,
,,,,,,,,,60045900ccb68e4bdd23111e,Spanish,13 or older,"no, only English or Spanish",no,2025-08-15_08h34.53.021,empathy_intonation_perc,2024.2.4,Win32,59.88023952,60045900ccb68e4bdd23111e,689ed6d1281858f68c932c05,689f29380079cc88f9c28eed,,,,,,,,,,,,,42,1,,./stim/wavs/puertorican_mismatch_interrogative-total-yn_La-maestra-vive-en-Paris.wav,,,,,,,,,,,,,,,,,,,,,,306.004,308.2702,0,0,1.7403,,0,35,35,41,1,1,puertorican,,,,,,,,,,,,,,,,,,,,,,,,,,,,,,,,,,,,,,,,,,,,,,,,,,,,,,,,
,,,,,,,,,60045900ccb68e4bdd23111e,Spanish,13 or older,"no, only English or Spanish",no,2025-08-15_08h34.53.021,empathy_intonation_perc,2024.2.4,Win32,59.88023952,60045900ccb68e4bdd23111e,689ed6d1281858f68c932c05,689f29380079cc88f9c28eed,,,,,,,,,,,,,19,1,,./stim/wavs/puertorican_match_interrogative-total-yn_Ana-lleva-el-abrigo.wav,,,,,,,,,,,,,,,,,,,,,,308.2709,310.0868,0,0,1.2829,,0,36,36,18,1,1,puertorican,,,,,,,,,,,,,,,,,,,,,,,,,,,,,,,,,,,,,,,,,,,,,,,,,,,,,,,,
,,,,,,,,,60045900ccb68e4bdd23111e,Spanish,13 or older,"no, only English or Spanish",no,2025-08-15_08h34.53.021,empathy_intonation_perc,2024.2.4,Win32,59.88023952,60045900ccb68e4bdd23111e,689ed6d1281858f68c932c05,689f29380079cc88f9c28eed,,,,,,,,,,,,,61,0,,./stim/wavs/mexican_match_declarative-broad-focus_Mariano-habla-del-tiempo.wav,,,,,,,,,,,,,,,,,,,,,,310.0875,312.17,0,1,1.5537,,0,37,37,60,1,0,mexican,,,,,,,,,,,,,,,,,,,,,,,,,,,,,,,,,,,,,,,,,,,,,,,,,,,,,,,,
,,,,,,,,,60045900ccb68e4bdd23111e,Spanish,13 or older,"no, only English or Spanish",no,2025-08-15_08h34.53.021,empathy_intonation_perc,2024.2.4,Win32,59.88023952,60045900ccb68e4bdd23111e,689ed6d1281858f68c932c05,689f29380079cc88f9c28eed,,,,,,,,,,,,,47,0,,./stim/wavs/castilian_match_declarative-broad-focus_Manuela-vende-el-carro.wav,,,,,,,,,,,,,,,,,,,,,,312.1707,314.4034,0,1,1.7028,,0,38,38,46,1,0,castilian,,,,,,,,,,,,,,,,,,,,,,,,,,,,,,,,,,,,,,,,,,,,,,,,,,,,,,,,
,,,,,,,,,60045900ccb68e4bdd23111e,Spanish,13 or older,"no, only English or Spanish",no,2025-08-15_08h34.53.021,empathy_intonation_perc,2024.2.4,Win32,59.88023952,60045900ccb68e4bdd23111e,689ed6d1281858f68c932c05,689f29380079cc88f9c28eed,,,,,,,,,,,,,46,0,,./stim/wavs/castilian_match_declarative-broad-focus_Emilio-ama-la-marcha.wav,,,,,,,,,,,,,,,,,,,,,,314.404,316.5867,0,1,1.6523,,0,39,39,45,1,0,castilian,,,,,,,,,,,,,,,,,,,,,,,,,,,,,,,,,,,,,,,,,,,,,,,,,,,,,,,,
,,,,,,,,,60045900ccb68e4bdd23111e,Spanish,13 or older,"no, only English or Spanish",no,2025-08-15_08h34.53.021,empathy_intonation_perc,2024.2.4,Win32,59.88023952,60045900ccb68e4bdd23111e,689ed6d1281858f68c932c05,689f29380079cc88f9c28eed,,,,,,,,,,,,,39,1,,./stim/wavs/mexican_mismatch_interrogative-total-yn_Mi-tia-odia-la-lluvia.wav,,,,,,,,,,,,,,,,,,,,,,316.5874,318.5867,0,0,1.4701,,0,40,40,38,1,0,mexican,,,,,,,,,,,,,,,,,,,,,,,,,,,,,,,,,,,,,,,,,,,,,,,,,,,,,,,,
,,,,,,,,,60045900ccb68e4bdd23111e,Spanish,13 or older,"no, only English or Spanish",no,2025-08-15_08h34.53.021,empathy_intonation_perc,2024.2.4,Win32,59.88023952,60045900ccb68e4bdd23111e,689ed6d1281858f68c932c05,689f29380079cc88f9c28eed,,,,,,,,,,,,,10,1,,./stim/wavs/cuban_match_interrogative-total-yn_Maria-bebe-el-vino.wav,,,,,,,,,,,,,,,,,,,,,,318.5872,320.6868,0,0,1.5735,,0,41,41,9,1,1,cuban,,,,,,,,,,,,,,,,,,,,,,,,,,,,,,,,,,,,,,,,,,,,,,,,,,,,,,,,
,,,,,,,,,60045900ccb68e4bdd23111e,Spanish,13 or older,"no, only English or Spanish",no,2025-08-15_08h34.53.021,empathy_intonation_perc,2024.2.4,Win32,59.88023952,60045900ccb68e4bdd23111e,689ed6d1281858f68c932c05,689f29380079cc88f9c28eed,,,,,,,,,,,,,84,0,,./stim/wavs/puertorican_mismatch_declarative-broad-focus_El-bebe-comia-muy-bien.wav,,,,,,,,,,,,,,,,,,,,,,320.6875,322.7534,0,1,1.5338,,0,42,42,83,1,0,puertorican,,,,,,,,,,,,,,,,,,,,,,,,,,,,,,,,,,,,,,,,,,,,,,,,,,,,,,,,
,,,,,,,,,60045900ccb68e4bdd23111e,Spanish,13 or older,"no, only English or Spanish",no,2025-08-15_08h34.53.021,empathy_intonation_perc,2024.2.4,Win32,59.88023952,60045900ccb68e4bdd23111e,689ed6d1281858f68c932c05,689f29380079cc88f9c28eed,,,,,,,,,,,,,72,0,,./stim/wavs/castilian_mismatch_declarative-broad-focus_Mi-novio-viene-del-lago.wav,,,,,,,,,,,,,,,,,,,,,,322.7539,325.0535,0,1,1.7745,,0,43,43,71,1,0,castilian,,,,,,,,,,,,,,,,,,,,,,,,,,,,,,,,,,,,,,,,,,,,,,,,,,,,,,,,
,,,,,,,,,60045900ccb68e4bdd23111e,Spanish,13 or older,"no, only English or Spanish",no,2025-08-15_08h34.53.021,empathy_intonation_perc,2024.2.4,Win32,59.88023952,60045900ccb68e4bdd23111e,689ed6d1281858f68c932c05,689f29380079cc88f9c28eed,,,,,,,,,,,,,79,0,,./stim/wavs/mexican_mismatch_declarative-broad-focus_El-bebe-comia-muy-bien.wav,,,,,,,,,,,,,,,,,,,,,,325.054,327.2703,0,1,1.6909,,0,44,44,78,1,0,mexican,,,,,,,,,,,,,,,,,,,,,,,,,,,,,,,,,,,,,,,,,,,,,,,,,,,,,,,,
,,,,,,,,,60045900ccb68e4bdd23111e,Spanish,13 or older,"no, only English or Spanish",no,2025-08-15_08h34.53.021,empathy_intonation_perc,2024.2.4,Win32,59.88023952,60045900ccb68e4bdd23111e,689ed6d1281858f68c932c05,689f29380079cc88f9c28eed,,,,,,,,,,,,,81,0,,./stim/wavs/mexican_mismatch_declarative-broad-focus_La-maestra-vive-en-Paris.wav,,,,,,,,,,,,,,,,,,,,,,327.271,329.4034,0,1,1.6097,,0,45,45,80,1,0,mexican,,,,,,,,,,,,,,,,,,,,,,,,,,,,,,,,,,,,,,,,,,,,,,,,,,,,,,,,
,,,,,,,,,60045900ccb68e4bdd23111e,Spanish,13 or older,"no, only English or Spanish",no,2025-08-15_08h34.53.021,empathy_intonation_perc,2024.2.4,Win32,59.88023952,60045900ccb68e4bdd23111e,689ed6d1281858f68c932c05,689f29380079cc88f9c28eed,,,,,,,,,,,,,9,1,,./stim/wavs/cuban_match_interrogative-total-yn_Manuela-vende-el-carro.wav,,,,,,,,,,,,,,,,,,,,,,329.404,331.5032,0,0,1.5723,,0,46,46,8,1,1,cuban,,,,,,,,,,,,,,,,,,,,,,,,,,,,,,,,,,,,,,,,,,,,,,,,,,,,,,,,
,,,,,,,,,60045900ccb68e4bdd23111e,Spanish,13 or older,"no, only English or Spanish",no,2025-08-15_08h34.53.021,empathy_intonation_perc,2024.2.4,Win32,59.88023952,60045900ccb68e4bdd23111e,689ed6d1281858f68c932c05,689f29380079cc88f9c28eed,,,,,,,,,,,,,34,1,,./stim/wavs/cuban_mismatch_interrogative-total-yn_Mi-tia-odia-la-lluvia.wav,,,,,,,,,,,,,,,,,,,,,,331.5036,333.3868,0,0,1.3687,,0,47,47,33,1,1,cuban,,,,,,,,,,,,,,,,,,,,,,,,,,,,,,,,,,,,,,,,,,,,,,,,,,,,,,,,
,,,,,,,,,60045900ccb68e4bdd23111e,Spanish,13 or older,"no, only English or Spanish",no,2025-08-15_08h34.53.021,empathy_intonation_perc,2024.2.4,Win32,59.88023952,60045900ccb68e4bdd23111e,689ed6d1281858f68c932c05,689f29380079cc88f9c28eed,,,,,,,,,,,,,86,0,,./stim/wavs/puertorican_mismatch_declarative-broad-focus_El-nino-oye-el-rio.wav,,,,,,,,,,,,,,,,,,,,,,333.3874,335.32,0,1,1.4057,,0,48,48,85,1,0,puertorican,,,,,,,,,,,,,,,,,,,,,,,,,,,,,,,,,,,,,,,,,,,,,,,,,,,,,,,,
,,,,,,,,,60045900ccb68e4bdd23111e,Spanish,13 or older,"no, only English or Spanish",no,2025-08-15_08h34.53.021,empathy_intonation_perc,2024.2.4,Win32,59.88023952,60045900ccb68e4bdd23111e,689ed6d1281858f68c932c05,689f29380079cc88f9c28eed,,,,,,,,,,,,,26,1,,./stim/wavs/castilian_mismatch_interrogative-total-yn_La-nina-lava-el-plato.wav,,,,,,,,,,,,,,,,,,,,,,335.3206,337.5533,1,1,1.7001,,0,49,49,25,1,0,castilian,,,,,,,,,,,,,,,,,,,,,,,,,,,,,,,,,,,,,,,,,,,,,,,,,,,,,,,,
,,,,,,,,,60045900ccb68e4bdd23111e,Spanish,13 or older,"no, only English or Spanish",no,2025-08-15_08h34.53.021,empathy_intonation_perc,2024.2.4,Win32,59.88023952,60045900ccb68e4bdd23111e,689ed6d1281858f68c932c05,689f29380079cc88f9c28eed,,,,,,,,,,,,,87,0,,./stim/wavs/puertorican_mismatch_declarative-broad-focus_La-maestra-vive-en-Paris.wav,,,,,,,,,,,,,,,,,,,,,,337.5539,339.77,0,1,1.6869,,0,50,50,86,1,0,puertorican,,,,,,,,,,,,,,,,,,,,,,,,,,,,,,,,,,,,,,,,,,,,,,,,,,,,,,,,
,,,,,,,,,60045900ccb68e4bdd23111e,Spanish,13 or older,"no, only English or Spanish",no,2025-08-15_08h34.53.021,empathy_intonation_perc,2024.2.4,Win32,59.88023952,60045900ccb68e4bdd23111e,689ed6d1281858f68c932c05,689f29380079cc88f9c28eed,,,,,,,,,,,,,24,1,,./stim/wavs/puertorican_match_interrogative-total-yn_Maria-bebe-el-vino.wav,,,,,,,,,,,,,,,,,,,,,,339.7705,342.0867,1,1,1.7896,,0,51,51,23,1,1,puertorican,,,,,,,,,,,,,,,,,,,,,,,,,,,,,,,,,,,,,,,,,,,,,,,,,,,,,,,,
,,,,,,,,,60045900ccb68e4bdd23111e,Spanish,13 or older,"no, only English or Spanish",no,2025-08-15_08h34.53.021,empathy_intonation_perc,2024.2.4,Win32,59.88023952,60045900ccb68e4bdd23111e,689ed6d1281858f68c932c05,689f29380079cc88f9c28eed,,,,,,,,,,,,,48,0,,./stim/wavs/castilian_match_declarative-broad-focus_Maria-bebe-el-vino.wav,,,,,,,,,,,,,,,,,,,,,,342.0874,344.2368,0,1,1.6254,,0,52,52,47,1,0,castilian,,,,,,,,,,,,,,,,,,,,,,,,,,,,,,,,,,,,,,,,,,,,,,,,,,,,,,,,
,,,,,,,,,60045900ccb68e4bdd23111e,Spanish,13 or older,"no, only English or Spanish",no,2025-08-15_08h34.53.021,empathy_intonation_perc,2024.2.4,Win32,59.88023952,60045900ccb68e4bdd23111e,689ed6d1281858f68c932c05,689f29380079cc88f9c28eed,,,,,,,,,,,,,76,0,,./stim/wavs/cuban_mismatch_declarative-broad-focus_La-nina-lava-el-plato.wav,,,,,,,,,,,,,,,,,,,,,,344.2373,346.3368,0,1,1.5712,,0,53,53,75,1,0,cuban,,,,,,,,,,,,,,,,,,,,,,,,,,,,,,,,,,,,,,,,,,,,,,,,,,,,,,,,
,,,,,,,,,60045900ccb68e4bdd23111e,Spanish,13 or older,"no, only English or Spanish",no,2025-08-15_08h34.53.021,empathy_intonation_perc,2024.2.4,Win32,59.88023952,60045900ccb68e4bdd23111e,689ed6d1281858f68c932c05,689f29380079cc88f9c28eed,,,,,,,,,,,,,21,1,,./stim/wavs/puertorican_match_interrogative-total-yn_David-leia-el-libro.wav,,,,,,,,,,,,,,,,,,,,,,346.3373,348.5201,0,0,1.6556,,0,54,54,20,1,1,puertorican,,,,,,,,,,,,,,,,,,,,,,,,,,,,,,,,,,,,,,,,,,,,,,,,,,,,,,,,
,,,,,,,,,60045900ccb68e4bdd23111e,Spanish,13 or older,"no, only English or Spanish",no,2025-08-15_08h34.53.021,empathy_intonation_perc,2024.2.4,Win32,59.88023952,60045900ccb68e4bdd23111e,689ed6d1281858f68c932c05,689f29380079cc88f9c28eed,,,,,,,,,,,,,41,1,,./stim/wavs/puertorican_mismatch_interrogative-total-yn_El-nino-oye-el-rio.wav,,,,,,,,,,,,,,,,,,,,,,348.5206,350.5034,0,0,1.4557,,0,55,55,40,1,1,puertorican,,,,,,,,,,,,,,,,,,,,,,,,,,,,,,,,,,,,,,,,,,,,,,,,,,,,,,,,
,,,,,,,,,60045900ccb68e4bdd23111e,Spanish,13 or older,"no, only English or Spanish",no,2025-08-15_08h34.53.021,empathy_intonation_perc,2024.2.4,Win32,59.88023952,60045900ccb68e4bdd23111e,689ed6d1281858f68c932c05,689f29380079cc88f9c28eed,,,,,,,,,,,,,31,1,,./stim/wavs/cuban_mismatch_interrogative-total-yn_El-nino-oye-el-rio.wav,,,,,,,,,,,,,,,,,,,,,,350.504,352.3035,0,0,1.2676,,0,56,56,30,1,1,cuban,,,,,,,,,,,,,,,,,,,,,,,,,,,,,,,,,,,,,,,,,,,,,,,,,,,,,,,,
,,,,,,,,,60045900ccb68e4bdd23111e,Spanish,13 or older,"no, only English or Spanish",no,2025-08-15_08h34.53.021,empathy_intonation_perc,2024.2.4,Win32,59.88023952,60045900ccb68e4bdd23111e,689ed6d1281858f68c932c05,689f29380079cc88f9c28eed,,,,,,,,,,,,,22,1,,./stim/wavs/puertorican_match_interrogative-total-yn_Emilio-ama-la-marcha.wav,,,,,,,,,,,,,,,,,,,,,,352.3038,354.4033,0,0,1.5694,,0,57,57,21,1,1,puertorican,,,,,,,,,,,,,,,,,,,,,,,,,,,,,,,,,,,,,,,,,,,,,,,,,,,,,,,,
,,,,,,,,,60045900ccb68e4bdd23111e,Spanish,13 or older,"no, only English or Spanish",no,2025-08-15_08h34.53.021,empathy_intonation_perc,2024.2.4,Win32,59.88023952,60045900ccb68e4bdd23111e,689ed6d1281858f68c932c05,689f29380079cc88f9c28eed,,,,,,,,,,,,,64,0,,./stim/wavs/puertorican_match_declarative-broad-focus_Daniel-iba-a-Bolivia.wav,,,,,,,,,,,,,,,,,,,,,,354.4038,356.42,0,1,1.4921,,0,58,58,63,1,0,puertorican,,,,,,,,,,,,,,,,,,,,,,,,,,,,,,,,,,,,,,,,,,,,,,,,,,,,,,,,
,,,,,,,,,60045900ccb68e4bdd23111e,Spanish,13 or older,"no, only English or Spanish",no,2025-08-15_08h34.53.021,empathy_intonation_perc,2024.2.4,Win32,59.88023952,60045900ccb68e4bdd23111e,689ed6d1281858f68c932c05,689f29380079cc88f9c28eed,,,,,,,,,,,,,49,0,,./stim/wavs/castilian_match_declarative-broad-focus_Mariano-habla-del-tiempo.wav,,,,,,,,,,,,,,,,,,,,,,356.4203,358.6033,0,1,1.6599,,0,59,59,48,1,0,castilian,,,,,,,,,,,,,,,,,,,,,,,,,,,,,,,,,,,,,,,,,,,,,,,,,,,,,,,,
,,,,,,,,,60045900ccb68e4bdd23111e,Spanish,13 or older,"no, only English or Spanish",no,2025-08-15_08h34.53.021,empathy_intonation_perc,2024.2.4,Win32,59.88023952,60045900ccb68e4bdd23111e,689ed6d1281858f68c932c05,689f29380079cc88f9c28eed,,,,,,,,,,,,,33,1,,./stim/wavs/cuban_mismatch_interrogative-total-yn_Mi-novio-viene-del-lago.wav,,,,,,,,,,,,,,,,,,,,,,358.6039,360.8201,0,0,1.693,,0,60,60,32,1,1,cuban,,,,,,,,,,,,,,,,,,,,,,,,,,,,,,,,,,,,,,,,,,,,,,,,,,,,,,,,
,,,,,,,,,60045900ccb68e4bdd23111e,Spanish,13 or older,"no, only English or Spanish",no,2025-08-15_08h34.53.021,empathy_intonation_perc,2024.2.4,Win32,59.88023952,60045900ccb68e4bdd23111e,689ed6d1281858f68c932c05,689f29380079cc88f9c28eed,,,,,,,,,,,,,54,0,,./stim/wavs/cuban_match_declarative-broad-focus_Maria-bebe-el-vino.wav,,,,,,,,,,,,,,,,,,,,,,360.8206,364.5202,0,1,3.1675,,0,61,61,53,1,0,cuban,,,,,,,,,,,,,,,,,,,,,,,,,,,,,,,,,,,,,,,,,,,,,,,,,,,,,,,,
,,,,,,,,,60045900ccb68e4bdd23111e,Spanish,13 or older,"no, only English or Spanish",no,2025-08-15_08h34.53.021,empathy_intonation_perc,2024.2.4,Win32,59.88023952,60045900ccb68e4bdd23111e,689ed6d1281858f68c932c05,689f29380079cc88f9c28eed,,,,,,,,,,,,,55,0,,./stim/wavs/cuban_match_declarative-broad-focus_Mariano-habla-del-tiempo.wav,,,,,,,,,,,,,,,,,,,,,,364.5209,367.0867,0,1,2.0335,,0,62,62,54,1,0,cuban,,,,,,,,,,,,,,,,,,,,,,,,,,,,,,,,,,,,,,,,,,,,,,,,,,,,,,,,
,,,,,,,,,60045900ccb68e4bdd23111e,Spanish,13 or older,"no, only English or Spanish",no,2025-08-15_08h34.53.021,empathy_intonation_perc,2024.2.4,Win32,59.88023952,60045900ccb68e4bdd23111e,689ed6d1281858f68c932c05,689f29380079cc88f9c28eed,,,,,,,,,,,,,58,0,,./stim/wavs/mexican_match_declarative-broad-focus_Daniel-iba-a-Bolivia.wav,,,,,,,,,,,,,,,,,,,,,,367.0874,369.1035,0,1,1.4905,,0,63,63,57,1,0,mexican,,,,,,,,,,,,,,,,,,,,,,,,,,,,,,,,,,,,,,,,,,,,,,,,,,,,,,,,
,,,,,,,,,60045900ccb68e4bdd23111e,Spanish,13 or older,"no, only English or Spanish",no,2025-08-15_08h34.53.021,empathy_intonation_perc,2024.2.4,Win32,59.88023952,60045900ccb68e4bdd23111e,689ed6d1281858f68c932c05,689f29380079cc88f9c28eed,,,,,,,,,,,,,77,0,,./stim/wavs/cuban_mismatch_declarative-broad-focus_Mi-novio-viene-del-lago.wav,,,,,,,,,,,,,,,,,,,,,,369.1039,371.1699,0,1,1.5365,,0,64,64,76,1,0,cuban,,,,,,,,,,,,,,,,,,,,,,,,,,,,,,,,,,,,,,,,,,,,,,,,,,,,,,,,
,,,,,,,,,60045900ccb68e4bdd23111e,Spanish,13 or older,"no, only English or Spanish",no,2025-08-15_08h34.53.021,empathy_intonation_perc,2024.2.4,Win32,59.88023952,60045900ccb68e4bdd23111e,689ed6d1281858f68c932c05,689f29380079cc88f9c28eed,,,,,,,,,,,,,68,0,,./stim/wavs/puertorican_match_declarative-broad-focus_Maria-bebe-el-vino.wav,,,,,,,,,,,,,,,,,,,,,,371.1703,373.6701,1,0,1.9824,,0,65,65,67,1,0,puertorican,,,,,,,,,,,,,,,,,,,,,,,,,,,,,,,,,,,,,,,,,,,,,,,,,,,,,,,,
,,,,,,,,,60045900ccb68e4bdd23111e,Spanish,13 or older,"no, only English or Spanish",no,2025-08-15_08h34.53.021,empathy_intonation_perc,2024.2.4,Win32,59.88023952,60045900ccb68e4bdd23111e,689ed6d1281858f68c932c05,689f29380079cc88f9c28eed,,,,,,,,,,,,,1,1,,./stim/wavs/castilian_match_interrogative-total-yn_David-leia-el-libro.wav,,,,,,,,,,,,,,,,,,,,,,373.6708,376.2533,1,1,2.0575,,0,66,66,0,1,0,castilian,,,,,,,,,,,,,,,,,,,,,,,,,,,,,,,,,,,,,,,,,,,,,,,,,,,,,,,,
,,,,,,,,,60045900ccb68e4bdd23111e,Spanish,13 or older,"no, only English or Spanish",no,2025-08-15_08h34.53.021,empathy_intonation_perc,2024.2.4,Win32,59.88023952,60045900ccb68e4bdd23111e,689ed6d1281858f68c932c05,689f29380079cc88f9c28eed,,,,,,,,,,,,,6,1,,./stim/wavs/castilian_match_interrogative-total-yn_Marta-abre-el-regalo.wav,,,,,,,,,,,,,,,,,,,,,,376.2536,378.5035,1,1,1.7223,,0,67,67,5,1,0,castilian,,,,,,,,,,,,,,,,,,,,,,,,,,,,,,,,,,,,,,,,,,,,,,,,,,,,,,,,
,,,,,,,,,60045900ccb68e4bdd23111e,Spanish,13 or older,"no, only English or Spanish",no,2025-08-15_08h34.53.021,empathy_intonation_perc,2024.2.4,Win32,59.88023952,60045900ccb68e4bdd23111e,689ed6d1281858f68c932c05,689f29380079cc88f9c28eed,,,,,,,,,,,,,28,1,,./stim/wavs/castilian_mismatch_interrogative-total-yn_Mi-novio-viene-del-lago.wav,,,,,,,,,,,,,,,,,,,,,,378.5041,380.8202,1,1,1.7855,,0,68,68,27,1,0,castilian,,,,,,,,,,,,,,,,,,,,,,,,,,,,,,,,,,,,,,,,,,,,,,,,,,,,,,,,
,,,,,,,,,60045900ccb68e4bdd23111e,Spanish,13 or older,"no, only English or Spanish",no,2025-08-15_08h34.53.021,empathy_intonation_perc,2024.2.4,Win32,59.88023952,60045900ccb68e4bdd23111e,689ed6d1281858f68c932c05,689f29380079cc88f9c28eed,,,,,,,,,,,,,74,0,,./stim/wavs/cuban_mismatch_declarative-broad-focus_El-bebe-comia-muy-bien.wav,,,,,,,,,,,,,,,,,,,,,,380.8208,382.7867,0,1,1.4438,,0,69,69,73,1,0,cuban,,,,,,,,,,,,,,,,,,,,,,,,,,,,,,,,,,,,,,,,,,,,,,,,,,,,,,,,
,,,,,,,,,60045900ccb68e4bdd23111e,Spanish,13 or older,"no, only English or Spanish",no,2025-08-15_08h34.53.021,empathy_intonation_perc,2024.2.4,Win32,59.88023952,60045900ccb68e4bdd23111e,689ed6d1281858f68c932c05,689f29380079cc88f9c28eed,,,,,,,,,,,,,7,1,,./stim/wavs/cuban_match_interrogative-total-yn_Ana-lleva-el-abrigo.wav,,,,,,,,,,,,,,,,,,,,,,382.7874,384.6701,0,0,1.3573,,0,70,70,6,1,1,cuban,,,,,,,,,,,,,,,,,,,,,,,,,,,,,,,,,,,,,,,,,,,,,,,,,,,,,,,,
,,,,,,,,,60045900ccb68e4bdd23111e,Spanish,13 or older,"no, only English or Spanish",no,2025-08-15_08h34.53.021,empathy_intonation_perc,2024.2.4,Win32,59.88023952,60045900ccb68e4bdd23111e,689ed6d1281858f68c932c05,689f29380079cc88f9c28eed,,,,,,,,,,,,,3,1,,./stim/wavs/castilian_match_interrogative-total-yn_Manuela-vende-el-carro.wav,,,,,,,,,,,,,,,,,,,,,,384.6706,387.0869,0,0,1.8835,,0,71,71,2,1,0,castilian,,,,,,,,,,,,,,,,,,,,,,,,,,,,,,,,,,,,,,,,,,,,,,,,,,,,,,,,
,,,,,,,,,60045900ccb68e4bdd23111e,Spanish,13 or older,"no, only English or Spanish",no,2025-08-15_08h34.53.021,empathy_intonation_perc,2024.2.4,Win32,59.88023952,60045900ccb68e4bdd23111e,689ed6d1281858f68c932c05,689f29380079cc88f9c28eed,,,,,,,,,,,,,8,1,,./stim/wavs/cuban_match_interrogative-total-yn_Daniel-iba-a-Bolivia.wav,,,,,,,,,,,,,,,,,,,,,,387.0876,390.0034,1,1,2.3866,,0,72,72,7,1,1,cuban,,,,,,,,,,,,,,,,,,,,,,,,,,,,,,,,,,,,,,,,,,,,,,,,,,,,,,,,
,,,,,,,,,60045900ccb68e4bdd23111e,Spanish,13 or older,"no, only English or Spanish",no,2025-08-15_08h34.53.021,empathy_intonation_perc,2024.2.4,Win32,59.88023952,60045900ccb68e4bdd23111e,689ed6d1281858f68c932c05,689f29380079cc88f9c28eed,,,,,,,,,,,,,75,0,,./stim/wavs/cuban_mismatch_declarative-broad-focus_El-hombre-mira-la-luna.wav,,,,,,,,,,,,,,,,,,,,,,390.0039,392.47,0,1,1.9411,,0,73,73,74,1,0,cuban,,,,,,,,,,,,,,,,,,,,,,,,,,,,,,,,,,,,,,,,,,,,,,,,,,,,,,,,
,,,,,,,,,60045900ccb68e4bdd23111e,Spanish,13 or older,"no, only English or Spanish",no,2025-08-15_08h34.53.021,empathy_intonation_perc,2024.2.4,Win32,59.88023952,60045900ccb68e4bdd23111e,689ed6d1281858f68c932c05,689f29380079cc88f9c28eed,,,,,,,,,,,,,17,1,,./stim/wavs/mexican_match_interrogative-total-yn_Mariano-habla-del-tiempo.wav,,,,,,,,,,,,,,,,,,,,,,392.4706,394.62,0,0,1.6186,,0,74,74,16,1,0,mexican,,,,,,,,,,,,,,,,,,,,,,,,,,,,,,,,,,,,,,,,,,,,,,,,,,,,,,,,
,,,,,,,,,60045900ccb68e4bdd23111e,Spanish,13 or older,"no, only English or Spanish",no,2025-08-15_08h34.53.021,empathy_intonation_perc,2024.2.4,Win32,59.88023952,60045900ccb68e4bdd23111e,689ed6d1281858f68c932c05,689f29380079cc88f9c28eed,,,,,,,,,,,,,35,1,,./stim/wavs/mexican_mismatch_interrogative-total-yn_El-hombre-mira-la-luna.wav,,,,,,,,,,,,,,,,,,,,,,394.6206,396.67,1,1,1.5196,,0,75,75,34,1,0,mexican,,,,,,,,,,,,,,,,,,,,,,,,,,,,,,,,,,,,,,,,,,,,,,,,,,,,,,,,
,,,,,,,,,60045900ccb68e4bdd23111e,Spanish,13 or older,"no, only English or Spanish",no,2025-08-15_08h34.53.021,empathy_intonation_perc,2024.2.4,Win32,59.88023952,60045900ccb68e4bdd23111e,689ed6d1281858f68c932c05,689f29380079cc88f9c28eed,,,,,,,,,,,,,32,1,,./stim/wavs/cuban_mismatch_interrogative-total-yn_Mi-madre-come-la-fruta.wav,,,,,,,,,,,,,,,,,,,,,,396.6705,399.3033,0,0,2.106,,0,76,76,31,1,1,cuban,,,,,,,,,,,,,,,,,,,,,,,,,,,,,,,,,,,,,,,,,,,,,,,,,,,,,,,,
,,,,,,,,,60045900ccb68e4bdd23111e,Spanish,13 or older,"no, only English or Spanish",no,2025-08-15_08h34.53.021,empathy_intonation_perc,2024.2.4,Win32,59.88023952,60045900ccb68e4bdd23111e,689ed6d1281858f68c932c05,689f29380079cc88f9c28eed,,,,,,,,,,,,,67,0,,./stim/wavs/puertorican_match_declarative-broad-focus_Manuela-vende-el-carro.wav,,,,,,,,,,,,,,,,,,,,,,399.3038,401.6868,0,1,1.8563,,0,77,77,66,1,0,puertorican,,,,,,,,,,,,,,,,,,,,,,,,,,,,,,,,,,,,,,,,,,,,,,,,,,,,,,,,
,,,,,,,,,60045900ccb68e4bdd23111e,Spanish,13 or older,"no, only English or Spanish",no,2025-08-15_08h34.53.021,empathy_intonation_perc,2024.2.4,Win32,59.88023952,60045900ccb68e4bdd23111e,689ed6d1281858f68c932c05,689f29380079cc88f9c28eed,,,,,,,,,,,,,16,1,,./stim/wavs/mexican_match_interrogative-total-yn_Emilio-ama-la-marcha.wav,,,,,,,,,,,,,,,,,,,,,,401.6873,404.0036,1,1,1.7866,,0,78,78,15,1,0,mexican,,,,,,,,,,,,,,,,,,,,,,,,,,,,,,,,,,,,,,,,,,,,,,,,,,,,,,,,
,,,,,,,,,60045900ccb68e4bdd23111e,Spanish,13 or older,"no, only English or Spanish",no,2025-08-15_08h34.53.021,empathy_intonation_perc,2024.2.4,Win32,59.88023952,60045900ccb68e4bdd23111e,689ed6d1281858f68c932c05,689f29380079cc88f9c28eed,,,,,,,,,,,,,4,1,,./stim/wavs/castilian_match_interrogative-total-yn_Maria-bebe-el-vino.wav,,,,,,,,,,,,,,,,,,,,,,404.0042,405.9701,1,1,1.4447,,0,79,79,3,1,0,castilian,,,,,,,,,,,,,,,,,,,,,,,,,,,,,,,,,,,,,,,,,,,,,,,,,,,,,,,,
,,,,,,,,,60045900ccb68e4bdd23111e,Spanish,13 or older,"no, only English or Spanish",no,2025-08-15_08h34.53.021,empathy_intonation_perc,2024.2.4,Win32,59.88023952,60045900ccb68e4bdd23111e,689ed6d1281858f68c932c05,689f29380079cc88f9c28eed,,,,,,,,,,,,,52,0,,./stim/wavs/cuban_match_declarative-broad-focus_Daniel-iba-a-Bolivia.wav,,,,,,,,,,,,,,,,,,,,,,405.9708,408.2869,0,1,1.7896,,0,80,80,51,1,0,cuban,,,,,,,,,,,,,,,,,,,,,,,,,,,,,,,,,,,,,,,,,,,,,,,,,,,,,,,,
,,,,,,,,,60045900ccb68e4bdd23111e,Spanish,13 or older,"no, only English or Spanish",no,2025-08-15_08h34.53.021,empathy_intonation_perc,2024.2.4,Win32,59.88023952,60045900ccb68e4bdd23111e,689ed6d1281858f68c932c05,689f29380079cc88f9c28eed,,,,,,,,,,,,,40,1,,./stim/wavs/puertorican_mismatch_interrogative-total-yn_El-hombre-mira-la-luna.wav,,,,,,,,,,,,,,,,,,,,,,408.2876,410.4034,1,1,1.594,,0,81,81,39,1,1,puertorican,,,,,,,,,,,,,,,,,,,,,,,,,,,,,,,,,,,,,,,,,,,,,,,,,,,,,,,,
,,,,,,,,,60045900ccb68e4bdd23111e,Spanish,13 or older,"no, only English or Spanish",no,2025-08-15_08h34.53.021,empathy_intonation_perc,2024.2.4,Win32,59.88023952,60045900ccb68e4bdd23111e,689ed6d1281858f68c932c05,689f29380079cc88f9c28eed,,,,,,,,,,,,,25,1,,./stim/wavs/castilian_mismatch_interrogative-total-yn_La-maestra-vive-en-Paris.wav,,,,,,,,,,,,,,,,,,,,,,410.4042,412.8871,1,1,1.9508,,0,82,82,24,1,0,castilian,,,,,,,,,,,,,,,,,,,,,,,,,,,,,,,,,,,,,,,,,,,,,,,,,,,,,,,,
,,,,,,,,,60045900ccb68e4bdd23111e,Spanish,13 or older,"no, only English or Spanish",no,2025-08-15_08h34.53.021,empathy_intonation_perc,2024.2.4,Win32,59.88023952,60045900ccb68e4bdd23111e,689ed6d1281858f68c932c05,689f29380079cc88f9c28eed,,,,,,,,,,,,,30,1,,./stim/wavs/cuban_mismatch_interrogative-total-yn_El-hombre-mira-la-luna.wav,,,,,,,,,,,,,,,,,,,,,,412.8878,415.2705,0,0,1.8579,,0,83,83,29,1,1,cuban,,,,,,,,,,,,,,,,,,,,,,,,,,,,,,,,,,,,,,,,,,,,,,,,,,,,,,,,
,,,,,,,,,60045900ccb68e4bdd23111e,Spanish,13 or older,"no, only English or Spanish",no,2025-08-15_08h34.53.021,empathy_intonation_perc,2024.2.4,Win32,59.88023952,60045900ccb68e4bdd23111e,689ed6d1281858f68c932c05,689f29380079cc88f9c28eed,,,,,,,,,,,,,88,0,,./stim/wavs/puertorican_mismatch_declarative-broad-focus_La-nina-lava-el-plato.wav,,,,,,,,,,,,,,,,,,,,,,415.2714,418.0202,0,1,2.2255,,0,84,84,87,1,0,puertorican,,,,,,,,,,,,,,,,,,,,,,,,,,,,,,,,,,,,,,,,,,,,,,,,,,,,,,,,
,,,,,,,,,60045900ccb68e4bdd23111e,Spanish,13 or older,"no, only English or Spanish",no,2025-08-15_08h34.53.021,empathy_intonation_perc,2024.2.4,Win32,59.88023952,60045900ccb68e4bdd23111e,689ed6d1281858f68c932c05,689f29380079cc88f9c28eed,,,,,,,,,,,,,15,1,,./stim/wavs/mexican_match_interrogative-total-yn_David-leia-el-libro.wav,,,,,,,,,,,,,,,,,,,,,,418.0208,420.0536,1,1,1.5003,,0,85,85,14,1,0,mexican,,,,,,,,,,,,,,,,,,,,,,,,,,,,,,,,,,,,,,,,,,,,,,,,,,,,,,,,
,,,,,,,,,60045900ccb68e4bdd23111e,Spanish,13 or older,"no, only English or Spanish",no,2025-08-15_08h34.53.021,empathy_intonation_perc,2024.2.4,Win32,59.88023952,60045900ccb68e4bdd23111e,689ed6d1281858f68c932c05,689f29380079cc88f9c28eed,,,,,,,,,,,,,78,0,,./stim/wavs/cuban_mismatch_declarative-broad-focus_Mi-tia-odia-la-lluvia.wav,,,,,,,,,,,,,,,,,,,,,,420.0542,422.3205,0,1,1.7357,,0,86,86,77,1,0,cuban,,,,,,,,,,,,,,,,,,,,,,,,,,,,,,,,,,,,,,,,,,,,,,,,,,,,,,,,
,,,,,,,,,60045900ccb68e4bdd23111e,Spanish,13 or older,"no, only English or Spanish",no,2025-08-15_08h34.53.021,empathy_intonation_perc,2024.2.4,Win32,59.88023952,60045900ccb68e4bdd23111e,689ed6d1281858f68c932c05,689f29380079cc88f9c28eed,,,,,,,,,,,,,12,1,,./stim/wavs/cuban_match_interrogative-total-yn_Marta-abre-el-regalo.wav,,,,,,,,,,,,,,,,,,,,,,422.3215,424.9203,0,0,2.0718,,0,87,87,11,1,1,cuban,,,,,,,,,,,,,,,,,,,,,,,,,,,,,,,,,,,,,,,,,,,,,,,,,,,,,,,,
,,,,,,,"Great! Now we will move on. The next task consists of about 60 trials, in each of which you will see a string of letters. 
  
  Your task is to decide whether this is a real Spanish word or not.", (press the spacebar to continue),60045900ccb68e4bdd23111e,Spanish,13 or older,"no, only English or Spanish",no,2025-08-15_08h34.53.021,empathy_intonation_perc,2024.2.4,Win32,59.88023952,60045900ccb68e4bdd23111e,689ed6d1281858f68c932c05,689f29380079cc88f9c28eed,,,,,,,,,,,,,,,,,,,,,,,,,,,,,,,,,,,,,,,,,,,,,,,,,,,424.9262,434.8538,0,0,0,0,1,,,,,,,,,,,,,,,,,,,,,,,,,,,,,,,,,,,,,,,,,,,,,,,,,
,,,,,,,"If you think it is an existing Spanish word, you type '1' (for 'REAL'), and if you think it is not an existing Spanish word, you type '0' (for 'FAKE').", (press the spacebar to continue),60045900ccb68e4bdd23111e,Spanish,13 or older,"no, only English or Spanish",no,2025-08-15_08h34.53.021,empathy_intonation_perc,2024.2.4,Win32,59.88023952,60045900ccb68e4bdd23111e,689ed6d1281858f68c932c05,689f29380079cc88f9c28eed,,,,,,,,,,,,,,,,,,,,,,,,,,,,,,,,,,,,,,,,,,,,,,,,,,,434.8571,440.754,0,1,1,1,1,,,,,,,,,,,,,,,,,,,,,,,,,,,,,,,,,,,,,,,,,,,,,,,,,
,,,,,,,"If you are sure that the word exists, even though you don’t know its exact meaning, you may still respond '1' (REAL). 
  
  But if you are not sure if it is an existing word, you should respond '0' (FAKE).
  
  Let's do a practice round...", (press the spacebar to continue),60045900ccb68e4bdd23111e,Spanish,13 or older,"no, only English or Spanish",no,2025-08-15_08h34.53.021,empathy_intonation_perc,2024.2.4,Win32,59.88023952,60045900ccb68e4bdd23111e,689ed6d1281858f68c932c05,689f29380079cc88f9c28eed,,,,,,,,,,,,,,,,,,,,,,,,,,,,,,,,,,,,,,,,,,,,,,,,,,,440.7577,448.2869,0,2,2,2,1,,,,,,,,,,,,,,,,,,,,,,,,,,,,,,,,,,,,,,,,,,,,,,,,,
,,,,,,,,,60045900ccb68e4bdd23111e,Spanish,13 or older,"no, only English or Spanish",no,2025-08-15_08h34.53.021,empathy_intonation_perc,2024.2.4,Win32,59.88023952,60045900ccb68e4bdd23111e,689ed6d1281858f68c932c05,689f29380079cc88f9c28eed,,,,,,,,,,,,,,0,,,,,,,,,,,,,,,,,,,,,,,,,,,,,,,,,,,,,,,,,,,,448.2928,454.6875,0,1,5.8655,,454.6879,455.6873,0,0,0,0,1,0,depiste,REAL,FAKE,,,,,,,,,,,,,,,,,,,,,,,,,,,,,,,,
,,,,,,,,,60045900ccb68e4bdd23111e,Spanish,13 or older,"no, only English or Spanish",no,2025-08-15_08h34.53.021,empathy_intonation_perc,2024.2.4,Win32,59.88023952,60045900ccb68e4bdd23111e,689ed6d1281858f68c932c05,689f29380079cc88f9c28eed,,,,,,,,,,,,,,1,,,,,,,,,,,,,,,,,,,,,,,,,,,,,,,,,,,,,,,,,,,,455.6896,457.3705,1,1,1.1496,,457.3705,458.3703,0,1,1,1,1,0,sí,REAL,FAKE,,,,,,,,,,,,,,,,,,,,,,,,,,,,,,,,
,,,,,,,,,60045900ccb68e4bdd23111e,Spanish,13 or older,"no, only English or Spanish",no,2025-08-15_08h34.53.021,empathy_intonation_perc,2024.2.4,Win32,59.88023952,60045900ccb68e4bdd23111e,689ed6d1281858f68c932c05,689f29380079cc88f9c28eed,,,,,,,,,,,,,,0,,,,,,,,,,,,,,,,,,,,,,,,,,,,,,,,,,,,,,,,,,,,458.3725,460.3871,1,0,1.4823,,460.3891,461.3871,0,2,2,2,1,0,coné,REAL,FAKE,,,,,,,,,,,,,,,,,,,,,,,,,,,,,,,,
,,,,,,,,,60045900ccb68e4bdd23111e,Spanish,13 or older,"no, only English or Spanish",no,2025-08-15_08h34.53.021,empathy_intonation_perc,2024.2.4,Win32,59.88023952,60045900ccb68e4bdd23111e,689ed6d1281858f68c932c05,689f29380079cc88f9c28eed,,,,,,,,,,,,,,0,,,,,,,,,,,,,,,,,,,,,,,,,,,,,,,,,,,,,,,,,,,,461.3883,463.2872,0,1,1.3636,,463.2882,464.2871,0,3,3,3,1,0,calpar,REAL,FAKE,,,,,,,,,,,,,,,,,,,,,,,,,,,,,,,,
,,,,,,,,,60045900ccb68e4bdd23111e,Spanish,13 or older,"no, only English or Spanish",no,2025-08-15_08h34.53.021,empathy_intonation_perc,2024.2.4,Win32,59.88023952,60045900ccb68e4bdd23111e,689ed6d1281858f68c932c05,689f29380079cc88f9c28eed,,,,,,,,,,,,,,0,,,,,,,,,,,,,,,,,,,,,,,,,,,,,,,,,,,,,,,,,,,,464.2895,466.0537,1,0,1.2308,,466.0548,467.0537,0,4,4,4,1,0,joten,REAL,FAKE,,,,,,,,,,,,,,,,,,,,,,,,,,,,,,,,
,,,,,,,,,60045900ccb68e4bdd23111e,Spanish,13 or older,"no, only English or Spanish",no,2025-08-15_08h34.53.021,empathy_intonation_perc,2024.2.4,Win32,59.88023952,60045900ccb68e4bdd23111e,689ed6d1281858f68c932c05,689f29380079cc88f9c28eed,,,,,,,,,,,,,,1,,,,,,,,,,,,,,,,,,,,,,,,,,,,,,,,,,,,,,,,,,,,467.055,468.6871,0,0,1.1031,,468.6872,469.6871,0,5,5,5,1,0,sacapuntas,REAL,FAKE,,,,,,,,,,,,,,,,,,,,,,,,,,,,,,,,
,,,,,,,,,60045900ccb68e4bdd23111e,Spanish,13 or older,"no, only English or Spanish",no,2025-08-15_08h34.53.021,empathy_intonation_perc,2024.2.4,Win32,59.88023952,60045900ccb68e4bdd23111e,689ed6d1281858f68c932c05,689f29380079cc88f9c28eed,,,,,,,,,,,,,,0,,,,,,,,,,,,,,,,,,,,,,,,,,,,,,,,,,,,,,,,,,,,469.6892,471.4202,1,0,1.2061,,471.4202,472.4205,0,6,6,6,1,0,priba,REAL,FAKE,,,,,,,,,,,,,,,,,,,,,,,,,,,,,,,,
,,,,,,,,,60045900ccb68e4bdd23111e,Spanish,13 or older,"no, only English or Spanish",no,2025-08-15_08h34.53.021,empathy_intonation_perc,2024.2.4,Win32,59.88023952,60045900ccb68e4bdd23111e,689ed6d1281858f68c932c05,689f29380079cc88f9c28eed,,,,,,,,,,,,,,0,,,,,,,,,,,,,,,,,,,,,,,,,,,,,,,,,,,,,,,,,,,,472.4217,475.1701,1,0,2.2245,,475.1702,476.1705,0,7,7,7,1,0,pelasula,REAL,FAKE,,,,,,,,,,,,,,,,,,,,,,,,,,,,,,,,
,,,,,,,,,60045900ccb68e4bdd23111e,Spanish,13 or older,"no, only English or Spanish",no,2025-08-15_08h34.53.021,empathy_intonation_perc,2024.2.4,Win32,59.88023952,60045900ccb68e4bdd23111e,689ed6d1281858f68c932c05,689f29380079cc88f9c28eed,,,,,,,,,,,,,,1,,,,,,,,,,,,,,,,,,,,,,,,,,,,,,,,,,,,,,,,,,,,476.1725,477.5536,1,1,0.8495,,477.5544,478.5537,0,8,8,8,1,0,bien,REAL,FAKE,,,,,,,,,,,,,,,,,,,,,,,,,,,,,,,,
,,,,,,,,,60045900ccb68e4bdd23111e,Spanish,13 or older,"no, only English or Spanish",no,2025-08-15_08h34.53.021,empathy_intonation_perc,2024.2.4,Win32,59.88023952,60045900ccb68e4bdd23111e,689ed6d1281858f68c932c05,689f29380079cc88f9c28eed,,,,,,,,,,,,,,1,,,,,,,,,,,,,,,,,,,,,,,,,,,,,,,,,,,,,,,,,,,,478.5554,480.7871,0,0,1.6993,,480.7881,481.7871,0,9,9,9,1,0,casa,REAL,FAKE,,,,,,,,,,,,,,,,,,,,,,,,,,,,,,,,
,,,,,,,,,60045900ccb68e4bdd23111e,Spanish,13 or older,"no, only English or Spanish",no,2025-08-15_08h34.53.021,empathy_intonation_perc,2024.2.4,Win32,59.88023952,60045900ccb68e4bdd23111e,689ed6d1281858f68c932c05,689f29380079cc88f9c28eed,,,,,,,,,,,,,,0,,,,,,,,,,,,,,,,,,,,,,,,,,,,,,,,,,,,,,,,,,,,481.7883,483.5204,1,0,1.1979,,483.5205,484.5204,0,10,10,10,1,0,lejo,REAL,FAKE,,,,,,,,,,,,,,,,,,,,,,,,,,,,,,,,
,,,,,,,,,60045900ccb68e4bdd23111e,Spanish,13 or older,"no, only English or Spanish",no,2025-08-15_08h34.53.021,empathy_intonation_perc,2024.2.4,Win32,59.88023952,60045900ccb68e4bdd23111e,689ed6d1281858f68c932c05,689f29380079cc88f9c28eed,,,,,,,,,,,,,,0,,,,,,,,,,,,,,,,,,,,,,,,,,,,,,,,,,,,,,,,,,,,484.5217,486.5539,0,1,1.5087,,486.555,487.5537,0,11,11,11,1,0,pretantas,REAL,FAKE,,,,,,,,,,,,,,,,,,,,,,,,,,,,,,,,
,,,,,,,,,60045900ccb68e4bdd23111e,Spanish,13 or older,"no, only English or Spanish",no,2025-08-15_08h34.53.021,empathy_intonation_perc,2024.2.4,Win32,59.88023952,60045900ccb68e4bdd23111e,689ed6d1281858f68c932c05,689f29380079cc88f9c28eed,,,,,,,,,,,,,,,,,,,,,,,,,,,,,,,,,,,,,,,,,,,,,,,,,,,,,,,,,,,,,,,,,,,,,,,,,,,487.5541,489.554,,,,,,,,,,,,,,,,,,,,,,,,,,,,,,
,,,,,,,,,60045900ccb68e4bdd23111e,Spanish,13 or older,"no, only English or Spanish",no,2025-08-15_08h34.53.021,empathy_intonation_perc,2024.2.4,Win32,59.88023952,60045900ccb68e4bdd23111e,689ed6d1281858f68c932c05,689f29380079cc88f9c28eed,,,,,,,,,,,,,,1,,,,,,,,,,,,,,,,,,,,,,,,,,,,,,,,,,,,,,,,,,,,,,,,,,,,,,,,,12,asesinato,,,,,489.568,493.2038,0,0,3.1245,,0,0,0,11,1,REAL,FAKE,,,,,,,,,,,,,,,,,
,,,,,,,,,60045900ccb68e4bdd23111e,Spanish,13 or older,"no, only English or Spanish",no,2025-08-15_08h34.53.021,empathy_intonation_perc,2024.2.4,Win32,59.88023952,60045900ccb68e4bdd23111e,689ed6d1281858f68c932c05,689f29380079cc88f9c28eed,,,,,,,,,,,,,,1,,,,,,,,,,,,,,,,,,,,,,,,,,,,,,,,,,,,,,,,,,,,,,,,,,,,,,,,,14,yunque,,,,,493.2051,494.6872,0,0,0.9459,,0,1,1,13,1,REAL,FAKE,,,,,,,,,,,,,,,,,
,,,,,,,,,60045900ccb68e4bdd23111e,Spanish,13 or older,"no, only English or Spanish",no,2025-08-15_08h34.53.021,empathy_intonation_perc,2024.2.4,Win32,59.88023952,60045900ccb68e4bdd23111e,689ed6d1281858f68c932c05,689f29380079cc88f9c28eed,,,,,,,,,,,,,,0,,,,,,,,,,,,,,,,,,,,,,,,,,,,,,,,,,,,,,,,,,,,,,,,,,,,,,,,,32,fatacidad,,,,,494.6884,497.6537,0,1,2.4311,,0,2,2,31,1,REAL,FAKE,,,,,,,,,,,,,,,,,
,,,,,,,,,60045900ccb68e4bdd23111e,Spanish,13 or older,"no, only English or Spanish",no,2025-08-15_08h34.53.021,empathy_intonation_perc,2024.2.4,Win32,59.88023952,60045900ccb68e4bdd23111e,689ed6d1281858f68c932c05,689f29380079cc88f9c28eed,,,,,,,,,,,,,,0,,,,,,,,,,,,,,,,,,,,,,,,,,,,,,,,,,,,,,,,,,,,,,,,,,,,,,,,,53,vegada,,,,,497.6556,500.0706,0,1,1.8795,,0,3,3,52,1,REAL,FAKE,,,,,,,,,,,,,,,,,
,,,,,,,,,60045900ccb68e4bdd23111e,Spanish,13 or older,"no, only English or Spanish",no,2025-08-15_08h34.53.021,empathy_intonation_perc,2024.2.4,Win32,59.88023952,60045900ccb68e4bdd23111e,689ed6d1281858f68c932c05,689f29380079cc88f9c28eed,,,,,,,,,,,,,,1,,,,,,,,,,,,,,,,,,,,,,,,,,,,,,,,,,,,,,,,,,,,,,,,,,,,,,,,,67,cabello,,,,,500.0718,501.7536,1,1,1.148,,0,4,4,66,1,REAL,FAKE,,,,,,,,,,,,,,,,,
,,,,,,,,,60045900ccb68e4bdd23111e,Spanish,13 or older,"no, only English or Spanish",no,2025-08-15_08h34.53.021,empathy_intonation_perc,2024.2.4,Win32,59.88023952,60045900ccb68e4bdd23111e,689ed6d1281858f68c932c05,689f29380079cc88f9c28eed,,,,,,,,,,,,,,0,,,,,,,,,,,,,,,,,,,,,,,,,,,,,,,,,,,,,,,,,,,,,,,,,,,,,,,,,35,rompido,,,,,501.7547,503.9199,1,0,1.6308,,0,5,5,34,1,REAL,FAKE,,,,,,,,,,,,,,,,,
,,,,,,,,,60045900ccb68e4bdd23111e,Spanish,13 or older,"no, only English or Spanish",no,2025-08-15_08h34.53.021,empathy_intonation_perc,2024.2.4,Win32,59.88023952,60045900ccb68e4bdd23111e,689ed6d1281858f68c932c05,689f29380079cc88f9c28eed,,,,,,,,,,,,,,1,,,,,,,,,,,,,,,,,,,,,,,,,,,,,,,,,,,,,,,,,,,,,,,,,,,,,,,,,89,prisa,,,,,503.9207,505.9205,1,1,1.486,,0,6,6,88,1,REAL,FAKE,,,,,,,,,,,,,,,,,
,,,,,,,,,60045900ccb68e4bdd23111e,Spanish,13 or older,"no, only English or Spanish",no,2025-08-15_08h34.53.021,empathy_intonation_perc,2024.2.4,Win32,59.88023952,60045900ccb68e4bdd23111e,689ed6d1281858f68c932c05,689f29380079cc88f9c28eed,,,,,,,,,,,,,,0,,,,,,,,,,,,,,,,,,,,,,,,,,,,,,,,,,,,,,,,,,,,,,,,,,,,,,,,,33,pauca,,,,,505.9217,508.7536,0,1,2.3085,,0,7,7,32,1,REAL,FAKE,,,,,,,,,,,,,,,,,
,,,,,,,,,60045900ccb68e4bdd23111e,Spanish,13 or older,"no, only English or Spanish",no,2025-08-15_08h34.53.021,empathy_intonation_perc,2024.2.4,Win32,59.88023952,60045900ccb68e4bdd23111e,689ed6d1281858f68c932c05,689f29380079cc88f9c28eed,,,,,,,,,,,,,,1,,,,,,,,,,,,,,,,,,,,,,,,,,,,,,,,,,,,,,,,,,,,,,,,,,,,,,,,,65,bizcocho,,,,,508.7561,510.1868,0,0,0.9068,,0,8,8,64,1,REAL,FAKE,,,,,,,,,,,,,,,,,
,,,,,,,,,60045900ccb68e4bdd23111e,Spanish,13 or older,"no, only English or Spanish",no,2025-08-15_08h34.53.021,empathy_intonation_perc,2024.2.4,Win32,59.88023952,60045900ccb68e4bdd23111e,689ed6d1281858f68c932c05,689f29380079cc88f9c28eed,,,,,,,,,,,,,,1,,,,,,,,,,,,,,,,,,,,,,,,,,,,,,,,,,,,,,,,,,,,,,,,,,,,,,,,,64,orgulloso,,,,,510.188,511.5705,0,0,0.8498,,0,9,9,63,1,REAL,FAKE,,,,,,,,,,,,,,,,,
,,,,,,,,,60045900ccb68e4bdd23111e,Spanish,13 or older,"no, only English or Spanish",no,2025-08-15_08h34.53.021,empathy_intonation_perc,2024.2.4,Win32,59.88023952,60045900ccb68e4bdd23111e,689ed6d1281858f68c932c05,689f29380079cc88f9c28eed,,,,,,,,,,,,,,1,,,,,,,,,,,,,,,,,,,,,,,,,,,,,,,,,,,,,,,,,,,,,,,,,,,,,,,,,78,frondoso,,,,,511.5718,512.8536,0,0,0.7548,,0,10,10,77,1,REAL,FAKE,,,,,,,,,,,,,,,,,
,,,,,,,,,60045900ccb68e4bdd23111e,Spanish,13 or older,"no, only English or Spanish",no,2025-08-15_08h34.53.021,empathy_intonation_perc,2024.2.4,Win32,59.88023952,60045900ccb68e4bdd23111e,689ed6d1281858f68c932c05,689f29380079cc88f9c28eed,,,,,,,,,,,,,,0,,,,,,,,,,,,,,,,,,,,,,,,,,,,,,,,,,,,,,,,,,,,,,,,,,,,,,,,,23,lampera,,,,,512.8549,514.5701,0,1,1.1909,,0,11,11,22,1,REAL,FAKE,,,,,,,,,,,,,,,,,
,,,,,,,,,60045900ccb68e4bdd23111e,Spanish,13 or older,"no, only English or Spanish",no,2025-08-15_08h34.53.021,empathy_intonation_perc,2024.2.4,Win32,59.88023952,60045900ccb68e4bdd23111e,689ed6d1281858f68c932c05,689f29380079cc88f9c28eed,,,,,,,,,,,,,,0,,,,,,,,,,,,,,,,,,,,,,,,,,,,,,,,,,,,,,,,,,,,,,,,,,,,,,,,,19,brecedad,,,,,514.5715,516.4705,0,1,1.3713,,0,12,12,18,1,REAL,FAKE,,,,,,,,,,,,,,,,,
,,,,,,,,,60045900ccb68e4bdd23111e,Spanish,13 or older,"no, only English or Spanish",no,2025-08-15_08h34.53.021,empathy_intonation_perc,2024.2.4,Win32,59.88023952,60045900ccb68e4bdd23111e,689ed6d1281858f68c932c05,689f29380079cc88f9c28eed,,,,,,,,,,,,,,1,,,,,,,,,,,,,,,,,,,,,,,,,,,,,,,,,,,,,,,,,,,,,,,,,,,,,,,,,69,engatusar,,,,,516.4718,518.0536,0,0,1.054,,0,13,13,68,1,REAL,FAKE,,,,,,,,,,,,,,,,,
,,,,,,,,,60045900ccb68e4bdd23111e,Spanish,13 or older,"no, only English or Spanish",no,2025-08-15_08h34.53.021,empathy_intonation_perc,2024.2.4,Win32,59.88023952,60045900ccb68e4bdd23111e,689ed6d1281858f68c932c05,689f29380079cc88f9c28eed,,,,,,,,,,,,,,1,,,,,,,,,,,,,,,,,,,,,,,,,,,,,,,,,,,,,,,,,,,,,,,,,,,,,,,,,56,musgo,,,,,518.0553,519.4206,0,0,0.8321,,0,14,14,55,1,REAL,FAKE,,,,,,,,,,,,,,,,,
,,,,,,,,,60045900ccb68e4bdd23111e,Spanish,13 or older,"no, only English or Spanish",no,2025-08-15_08h34.53.021,empathy_intonation_perc,2024.2.4,Win32,59.88023952,60045900ccb68e4bdd23111e,689ed6d1281858f68c932c05,689f29380079cc88f9c28eed,,,,,,,,,,,,,,1,,,,,,,,,,,,,,,,,,,,,,,,,,,,,,,,,,,,,,,,,,,,,,,,,,,,,,,,,57,tacaño,,,,,519.4223,522.2202,1,1,2.2726,,0,15,15,56,1,REAL,FAKE,,,,,,,,,,,,,,,,,
,,,,,,,,,60045900ccb68e4bdd23111e,Spanish,13 or older,"no, only English or Spanish",no,2025-08-15_08h34.53.021,empathy_intonation_perc,2024.2.4,Win32,59.88023952,60045900ccb68e4bdd23111e,689ed6d1281858f68c932c05,689f29380079cc88f9c28eed,,,,,,,,,,,,,,1,,,,,,,,,,,,,,,,,,,,,,,,,,,,,,,,,,,,,,,,,,,,,,,,,,,,,,,,,11,cenefa,,,,,522.2214,524.6536,1,1,1.9042,,0,16,16,10,1,REAL,FAKE,,,,,,,,,,,,,,,,,
,,,,,,,,,60045900ccb68e4bdd23111e,Spanish,13 or older,"no, only English or Spanish",no,2025-08-15_08h34.53.021,empathy_intonation_perc,2024.2.4,Win32,59.88023952,60045900ccb68e4bdd23111e,689ed6d1281858f68c932c05,689f29380079cc88f9c28eed,,,,,,,,,,,,,,1,,,,,,,,,,,,,,,,,,,,,,,,,,,,,,,,,,,,,,,,,,,,,,,,,,,,,,,,,6,tergiversar,,,,,524.6548,527.4537,0,0,2.2715,,0,17,17,5,1,REAL,FAKE,,,,,,,,,,,,,,,,,
,,,,,,,,,60045900ccb68e4bdd23111e,Spanish,13 or older,"no, only English or Spanish",no,2025-08-15_08h34.53.021,empathy_intonation_perc,2024.2.4,Win32,59.88023952,60045900ccb68e4bdd23111e,689ed6d1281858f68c932c05,689f29380079cc88f9c28eed,,,,,,,,,,,,,,0,,,,,,,,,,,,,,,,,,,,,,,,,,,,,,,,,,,,,,,,,,,,,,,,,,,,,,,,,16,abracer,,,,,527.4552,529.0371,0,1,1.0552,,0,18,18,15,1,REAL,FAKE,,,,,,,,,,,,,,,,,
,,,,,,,,,60045900ccb68e4bdd23111e,Spanish,13 or older,"no, only English or Spanish",no,2025-08-15_08h34.53.021,empathy_intonation_perc,2024.2.4,Win32,59.88023952,60045900ccb68e4bdd23111e,689ed6d1281858f68c932c05,689f29380079cc88f9c28eed,,,,,,,,,,,,,,0,,,,,,,,,,,,,,,,,,,,,,,,,,,,,,,,,,,,,,,,,,,,,,,,,,,,,,,,,72,pemición,,,,,529.0391,530.8872,0,1,1.3133,,0,19,19,71,1,REAL,FAKE,,,,,,,,,,,,,,,,,
,,,,,,,,,60045900ccb68e4bdd23111e,Spanish,13 or older,"no, only English or Spanish",no,2025-08-15_08h34.53.021,empathy_intonation_perc,2024.2.4,Win32,59.88023952,60045900ccb68e4bdd23111e,689ed6d1281858f68c932c05,689f29380079cc88f9c28eed,,,,,,,,,,,,,,0,,,,,,,,,,,,,,,,,,,,,,,,,,,,,,,,,,,,,,,,,,,,,,,,,,,,,,,,,18,arsa,,,,,530.8885,532.2872,0,1,0.864,,0,20,20,17,1,REAL,FAKE,,,,,,,,,,,,,,,,,
,,,,,,,,,60045900ccb68e4bdd23111e,Spanish,13 or older,"no, only English or Spanish",no,2025-08-15_08h34.53.021,empathy_intonation_perc,2024.2.4,Win32,59.88023952,60045900ccb68e4bdd23111e,689ed6d1281858f68c932c05,689f29380079cc88f9c28eed,,,,,,,,,,,,,,1,,,,,,,,,,,,,,,,,,,,,,,,,,,,,,,,,,,,,,,,,,,,,,,,,,,,,,,,,62,flaco,,,,,532.2884,533.5372,0,0,0.7141,,0,21,21,61,1,REAL,FAKE,,,,,,,,,,,,,,,,,
,,,,,,,,,60045900ccb68e4bdd23111e,Spanish,13 or older,"no, only English or Spanish",no,2025-08-15_08h34.53.021,empathy_intonation_perc,2024.2.4,Win32,59.88023952,60045900ccb68e4bdd23111e,689ed6d1281858f68c932c05,689f29380079cc88f9c28eed,,,,,,,,,,,,,,1,,,,,,,,,,,,,,,,,,,,,,,,,,,,,,,,,,,,,,,,,,,,,,,,,,,,,,,,,48,ladrón,,,,,533.5384,534.9036,0,0,0.836,,0,22,22,47,1,REAL,FAKE,,,,,,,,,,,,,,,,,
,,,,,,,,,60045900ccb68e4bdd23111e,Spanish,13 or older,"no, only English or Spanish",no,2025-08-15_08h34.53.021,empathy_intonation_perc,2024.2.4,Win32,59.88023952,60045900ccb68e4bdd23111e,689ed6d1281858f68c932c05,689f29380079cc88f9c28eed,,,,,,,,,,,,,,1,,,,,,,,,,,,,,,,,,,,,,,,,,,,,,,,,,,,,,,,,,,,,,,,,,,,,,,,,28,merodear,,,,,534.9048,536.4873,1,1,1.0468,,0,23,23,27,1,REAL,FAKE,,,,,,,,,,,,,,,,,
,,,,,,,,,60045900ccb68e4bdd23111e,Spanish,13 or older,"no, only English or Spanish",no,2025-08-15_08h34.53.021,empathy_intonation_perc,2024.2.4,Win32,59.88023952,60045900ccb68e4bdd23111e,689ed6d1281858f68c932c05,689f29380079cc88f9c28eed,,,,,,,,,,,,,,1,,,,,,,,,,,,,,,,,,,,,,,,,,,,,,,,,,,,,,,,,,,,,,,,,,,,,,,,,22,lacayo,,,,,536.4887,537.9038,0,0,0.8861,,0,24,24,21,1,REAL,FAKE,,,,,,,,,,,,,,,,,
,,,,,,,,,60045900ccb68e4bdd23111e,Spanish,13 or older,"no, only English or Spanish",no,2025-08-15_08h34.53.021,empathy_intonation_perc,2024.2.4,Win32,59.88023952,60045900ccb68e4bdd23111e,689ed6d1281858f68c932c05,689f29380079cc88f9c28eed,,,,,,,,,,,,,,1,,,,,,,,,,,,,,,,,,,,,,,,,,,,,,,,,,,,,,,,,,,,,,,,,,,,,,,,,49,ganar,,,,,537.9055,539.4036,1,1,0.9727,,0,25,25,48,1,REAL,FAKE,,,,,,,,,,,,,,,,,
,,,,,,,,,60045900ccb68e4bdd23111e,Spanish,13 or older,"no, only English or Spanish",no,2025-08-15_08h34.53.021,empathy_intonation_perc,2024.2.4,Win32,59.88023952,60045900ccb68e4bdd23111e,689ed6d1281858f68c932c05,689f29380079cc88f9c28eed,,,,,,,,,,,,,,1,,,,,,,,,,,,,,,,,,,,,,,,,,,,,,,,,,,,,,,,,,,,,,,,,,,,,,,,,54,fomentar,,,,,539.4047,541.1702,1,1,1.2342,,0,26,26,53,1,REAL,FAKE,,,,,,,,,,,,,,,,,
,,,,,,,,,60045900ccb68e4bdd23111e,Spanish,13 or older,"no, only English or Spanish",no,2025-08-15_08h34.53.021,empathy_intonation_perc,2024.2.4,Win32,59.88023952,60045900ccb68e4bdd23111e,689ed6d1281858f68c932c05,689f29380079cc88f9c28eed,,,,,,,,,,,,,,0,,,,,,,,,,,,,,,,,,,,,,,,,,,,,,,,,,,,,,,,,,,,,,,,,,,,,,,,,63,esposante,,,,,541.1712,543.6205,1,0,1.9148,,0,27,27,62,1,REAL,FAKE,,,,,,,,,,,,,,,,,
,,,,,,,,,60045900ccb68e4bdd23111e,Spanish,13 or older,"no, only English or Spanish",no,2025-08-15_08h34.53.021,empathy_intonation_perc,2024.2.4,Win32,59.88023952,60045900ccb68e4bdd23111e,689ed6d1281858f68c932c05,689f29380079cc88f9c28eed,,,,,,,,,,,,,,0,,,,,,,,,,,,,,,,,,,,,,,,,,,,,,,,,,,,,,,,,,,,,,,,,,,,,,,,,50,flamida,,,,,543.6218,546.7035,0,1,2.5524,,0,28,28,49,1,REAL,FAKE,,,,,,,,,,,,,,,,,
,,,,,,,,,60045900ccb68e4bdd23111e,Spanish,13 or older,"no, only English or Spanish",no,2025-08-15_08h34.53.021,empathy_intonation_perc,2024.2.4,Win32,59.88023952,60045900ccb68e4bdd23111e,689ed6d1281858f68c932c05,689f29380079cc88f9c28eed,,,,,,,,,,,,,,1,,,,,,,,,,,,,,,,,,,,,,,,,,,,,,,,,,,,,,,,,,,,,,,,,,,,,,,,,61,seda,,,,,546.7046,548.4536,0,0,1.2212,,0,29,29,60,1,REAL,FAKE,,,,,,,,,,,,,,,,,
,,,,,,,,,60045900ccb68e4bdd23111e,Spanish,13 or older,"no, only English or Spanish",no,2025-08-15_08h34.53.021,empathy_intonation_perc,2024.2.4,Win32,59.88023952,60045900ccb68e4bdd23111e,689ed6d1281858f68c932c05,689f29380079cc88f9c28eed,,,,,,,,,,,,,,0,,,,,,,,,,,,,,,,,,,,,,,,,,,,,,,,,,,,,,,,,,,,,,,,,,,,,,,,,17,floroso,,,,,548.4548,550.1036,0,1,1.1138,,0,30,30,16,1,REAL,FAKE,,,,,,,,,,,,,,,,,
,,,,,,,,,60045900ccb68e4bdd23111e,Spanish,13 or older,"no, only English or Spanish",no,2025-08-15_08h34.53.021,empathy_intonation_perc,2024.2.4,Win32,59.88023952,60045900ccb68e4bdd23111e,689ed6d1281858f68c932c05,689f29380079cc88f9c28eed,,,,,,,,,,,,,,1,,,,,,,,,,,,,,,,,,,,,,,,,,,,,,,,,,,,,,,,,,,,,,,,,,,,,,,,,38,estornudar,,,,,550.1049,556.1205,0,0,5.4847,,0,31,31,37,1,REAL,FAKE,,,,,,,,,,,,,,,,,
,,,,,,,,,60045900ccb68e4bdd23111e,Spanish,13 or older,"no, only English or Spanish",no,2025-08-15_08h34.53.021,empathy_intonation_perc,2024.2.4,Win32,59.88023952,60045900ccb68e4bdd23111e,689ed6d1281858f68c932c05,689f29380079cc88f9c28eed,,,,,,,,,,,,,,1,,,,,,,,,,,,,,,,,,,,,,,,,,,,,,,,,,,,,,,,,,,,,,,,,,,,,,,,,45,jilguero,,,,,556.1218,558.0205,0,0,1.3663,,0,32,32,44,1,REAL,FAKE,,,,,,,,,,,,,,,,,
,,,,,,,,,60045900ccb68e4bdd23111e,Spanish,13 or older,"no, only English or Spanish",no,2025-08-15_08h34.53.021,empathy_intonation_perc,2024.2.4,Win32,59.88023952,60045900ccb68e4bdd23111e,689ed6d1281858f68c932c05,689f29380079cc88f9c28eed,,,,,,,,,,,,,,1,,,,,,,,,,,,,,,,,,,,,,,,,,,,,,,,,,,,,,,,,,,,,,,,,,,,,,,,,76,atar,,,,,558.0216,559.8537,0,0,1.3046,,0,33,33,75,1,REAL,FAKE,,,,,,,,,,,,,,,,,
,,,,,,,,,60045900ccb68e4bdd23111e,Spanish,13 or older,"no, only English or Spanish",no,2025-08-15_08h34.53.021,empathy_intonation_perc,2024.2.4,Win32,59.88023952,60045900ccb68e4bdd23111e,689ed6d1281858f68c932c05,689f29380079cc88f9c28eed,,,,,,,,,,,,,,0,,,,,,,,,,,,,,,,,,,,,,,,,,,,,,,,,,,,,,,,,,,,,,,,,,,,,,,,,66,hacido,,,,,559.855,561.5036,0,1,1.1136,,0,34,34,65,1,REAL,FAKE,,,,,,,,,,,,,,,,,
,,,,,,,,,60045900ccb68e4bdd23111e,Spanish,13 or older,"no, only English or Spanish",no,2025-08-15_08h34.53.021,empathy_intonation_perc,2024.2.4,Win32,59.88023952,60045900ccb68e4bdd23111e,689ed6d1281858f68c932c05,689f29380079cc88f9c28eed,,,,,,,,,,,,,,1,,,,,,,,,,,,,,,,,,,,,,,,,,,,,,,,,,,,,,,,,,,,,,,,,,,,,,,,,51,candado,,,,,561.5048,563.7369,1,1,1.7087,,0,35,35,50,1,REAL,FAKE,,,,,,,,,,,,,,,,,
,,,,,,,,,60045900ccb68e4bdd23111e,Spanish,13 or older,"no, only English or Spanish",no,2025-08-15_08h34.53.021,empathy_intonation_perc,2024.2.4,Win32,59.88023952,60045900ccb68e4bdd23111e,689ed6d1281858f68c932c05,689f29380079cc88f9c28eed,,,,,,,,,,,,,,1,,,,,,,,,,,,,,,,,,,,,,,,,,,,,,,,,,,,,,,,,,,,,,,,,,,,,,,,,90,clavel,,,,,563.7375,565.8371,0,0,1.5814,,0,36,36,89,1,REAL,FAKE,,,,,,,,,,,,,,,,,
,,,,,,,,,60045900ccb68e4bdd23111e,Spanish,13 or older,"no, only English or Spanish",no,2025-08-15_08h34.53.021,empathy_intonation_perc,2024.2.4,Win32,59.88023952,60045900ccb68e4bdd23111e,689ed6d1281858f68c932c05,689f29380079cc88f9c28eed,,,,,,,,,,,,,,0,,,,,,,,,,,,,,,,,,,,,,,,,,,,,,,,,,,,,,,,,,,,,,,,,,,,,,,,,74,cintro,,,,,565.8384,567.5705,1,0,1.1998,,0,37,37,73,1,REAL,FAKE,,,,,,,,,,,,,,,,,
,,,,,,,,,60045900ccb68e4bdd23111e,Spanish,13 or older,"no, only English or Spanish",no,2025-08-15_08h34.53.021,empathy_intonation_perc,2024.2.4,Win32,59.88023952,60045900ccb68e4bdd23111e,689ed6d1281858f68c932c05,689f29380079cc88f9c28eed,,,,,,,,,,,,,,0,,,,,,,,,,,,,,,,,,,,,,,,,,,,,,,,,,,,,,,,,,,,,,,,,,,,,,,,,8,cadeña,,,,,567.5717,569.3705,1,0,1.2672,,0,38,38,7,1,REAL,FAKE,,,,,,,,,,,,,,,,,
,,,,,,,,,60045900ccb68e4bdd23111e,Spanish,13 or older,"no, only English or Spanish",no,2025-08-15_08h34.53.021,empathy_intonation_perc,2024.2.4,Win32,59.88023952,60045900ccb68e4bdd23111e,689ed6d1281858f68c932c05,689f29380079cc88f9c28eed,,,,,,,,,,,,,,1,,,,,,,,,,,,,,,,,,,,,,,,,,,,,,,,,,,,,,,,,,,,,,,,,,,,,,,,,15,regar,,,,,569.3717,571.2872,0,0,1.3857,,0,39,39,14,1,REAL,FAKE,,,,,,,,,,,,,,,,,
,,,,,,,,,60045900ccb68e4bdd23111e,Spanish,13 or older,"no, only English or Spanish",no,2025-08-15_08h34.53.021,empathy_intonation_perc,2024.2.4,Win32,59.88023952,60045900ccb68e4bdd23111e,689ed6d1281858f68c932c05,689f29380079cc88f9c28eed,,,,,,,,,,,,,,0,,,,,,,,,,,,,,,,,,,,,,,,,,,,,,,,,,,,,,,,,,,,,,,,,,,,,,,,,21,capillo,,,,,571.2885,572.8872,1,0,1.0706,,0,40,40,20,1,REAL,FAKE,,,,,,,,,,,,,,,,,
,,,,,,,,,60045900ccb68e4bdd23111e,Spanish,13 or older,"no, only English or Spanish",no,2025-08-15_08h34.53.021,empathy_intonation_perc,2024.2.4,Win32,59.88023952,60045900ccb68e4bdd23111e,689ed6d1281858f68c932c05,689f29380079cc88f9c28eed,,,,,,,,,,,,,,0,,,,,,,,,,,,,,,,,,,,,,,,,,,,,,,,,,,,,,,,,,,,,,,,,,,,,,,,,87,grodo,,,,,572.8888,574.8538,1,0,1.4296,,0,41,41,86,1,REAL,FAKE,,,,,,,,,,,,,,,,,
,,,,,,,,,60045900ccb68e4bdd23111e,Spanish,13 or older,"no, only English or Spanish",no,2025-08-15_08h34.53.021,empathy_intonation_perc,2024.2.4,Win32,59.88023952,60045900ccb68e4bdd23111e,689ed6d1281858f68c932c05,689f29380079cc88f9c28eed,,,,,,,,,,,,,,1,,,,,,,,,,,,,,,,,,,,,,,,,,,,,,,,,,,,,,,,,,,,,,,,,,,,,,,,,13,helar,,,,,574.855,576.4372,0,0,1.048,,0,42,42,12,1,REAL,FAKE,,,,,,,,,,,,,,,,,
,,,,,,,,,60045900ccb68e4bdd23111e,Spanish,13 or older,"no, only English or Spanish",no,2025-08-15_08h34.53.021,empathy_intonation_perc,2024.2.4,Win32,59.88023952,60045900ccb68e4bdd23111e,689ed6d1281858f68c932c05,689f29380079cc88f9c28eed,,,,,,,,,,,,,,0,,,,,,,,,,,,,,,,,,,,,,,,,,,,,,,,,,,,,,,,,,,,,,,,,,,,,,,,,70,temblo,,,,,576.4384,577.9036,1,0,0.936,,0,43,43,69,1,REAL,FAKE,,,,,,,,,,,,,,,,,
,,,,,,,,,60045900ccb68e4bdd23111e,Spanish,13 or older,"no, only English or Spanish",no,2025-08-15_08h34.53.021,empathy_intonation_perc,2024.2.4,Win32,59.88023952,60045900ccb68e4bdd23111e,689ed6d1281858f68c932c05,689f29380079cc88f9c28eed,,,,,,,,,,,,,,1,,,,,,,,,,,,,,,,,,,,,,,,,,,,,,,,,,,,,,,,,,,,,,,,,,,,,,,,,60,matar,,,,,577.9048,579.3538,0,0,0.918,,0,44,44,59,1,REAL,FAKE,,,,,,,,,,,,,,,,,
,,,,,,,,,60045900ccb68e4bdd23111e,Spanish,13 or older,"no, only English or Spanish",no,2025-08-15_08h34.53.021,empathy_intonation_perc,2024.2.4,Win32,59.88023952,60045900ccb68e4bdd23111e,689ed6d1281858f68c932c05,689f29380079cc88f9c28eed,,,,,,,,,,,,,,0,,,,,,,,,,,,,,,,,,,,,,,,,,,,,,,,,,,,,,,,,,,,,,,,,,,,,,,,,79,tropaje,,,,,579.3551,580.7538,1,0,0.864,,0,45,45,78,1,REAL,FAKE,,,,,,,,,,,,,,,,,
,,,,,,,,,60045900ccb68e4bdd23111e,Spanish,13 or older,"no, only English or Spanish",no,2025-08-15_08h34.53.021,empathy_intonation_perc,2024.2.4,Win32,59.88023952,60045900ccb68e4bdd23111e,689ed6d1281858f68c932c05,689f29380079cc88f9c28eed,,,,,,,,,,,,,,0,,,,,,,,,,,,,,,,,,,,,,,,,,,,,,,,,,,,,,,,,,,,,,,,,,,,,,,,,82,empirador,,,,,580.7551,583.1038,1,0,1.8135,,0,46,46,81,1,REAL,FAKE,,,,,,,,,,,,,,,,,
,,,,,,,,,60045900ccb68e4bdd23111e,Spanish,13 or older,"no, only English or Spanish",no,2025-08-15_08h34.53.021,empathy_intonation_perc,2024.2.4,Win32,59.88023952,60045900ccb68e4bdd23111e,689ed6d1281858f68c932c05,689f29380079cc88f9c28eed,,,,,,,,,,,,,,1,,,,,,,,,,,,,,,,,,,,,,,,,,,,,,,,,,,,,,,,,,,,,,,,,,,,,,,,,39,torpe,,,,,583.1052,584.5702,1,1,0.9405,,0,47,47,38,1,REAL,FAKE,,,,,,,,,,,,,,,,,
,,,,,,,,,60045900ccb68e4bdd23111e,Spanish,13 or older,"no, only English or Spanish",no,2025-08-15_08h34.53.021,empathy_intonation_perc,2024.2.4,Win32,59.88023952,60045900ccb68e4bdd23111e,689ed6d1281858f68c932c05,689f29380079cc88f9c28eed,,,,,,,,,,,,,,1,,,,,,,,,,,,,,,,,,,,,,,,,,,,,,,,,,,,,,,,,,,,,,,,,,,,,,,,,80,hormiga,,,,,584.5715,586.0038,1,1,0.8996,,0,48,48,79,1,REAL,FAKE,,,,,,,,,,,,,,,,,
,,,,,,,,,60045900ccb68e4bdd23111e,Spanish,13 or older,"no, only English or Spanish",no,2025-08-15_08h34.53.021,empathy_intonation_perc,2024.2.4,Win32,59.88023952,60045900ccb68e4bdd23111e,689ed6d1281858f68c932c05,689f29380079cc88f9c28eed,,,,,,,,,,,,,,1,,,,,,,,,,,,,,,,,,,,,,,,,,,,,,,,,,,,,,,,,,,,,,,,,,,,,,,,,31,pandilla,,,,,586.005,587.5872,1,1,1.0489,,0,49,49,30,1,REAL,FAKE,,,,,,,,,,,,,,,,,
,,,,,,,,,60045900ccb68e4bdd23111e,Spanish,13 or older,"no, only English or Spanish",no,2025-08-15_08h34.53.021,empathy_intonation_perc,2024.2.4,Win32,59.88023952,60045900ccb68e4bdd23111e,689ed6d1281858f68c932c05,689f29380079cc88f9c28eed,,,,,,,,,,,,,,1,,,,,,,,,,,,,,,,,,,,,,,,,,,,,,,,,,,,,,,,,,,,,,,,,,,,,,,,,3,pulmones,,,,,587.5886,588.9539,0,0,0.8422,,0,50,50,2,1,REAL,FAKE,,,,,,,,,,,,,,,,,
,,,,,,,,,60045900ccb68e4bdd23111e,Spanish,13 or older,"no, only English or Spanish",no,2025-08-15_08h34.53.021,empathy_intonation_perc,2024.2.4,Win32,59.88023952,60045900ccb68e4bdd23111e,689ed6d1281858f68c932c05,689f29380079cc88f9c28eed,,,,,,,,,,,,,,0,,,,,,,,,,,,,,,,,,,,,,,,,,,,,,,,,,,,,,,,,,,,,,,,,,,,,,,,,27,acutación,,,,,588.9555,590.5537,1,0,1.067,,0,51,51,26,1,REAL,FAKE,,,,,,,,,,,,,,,,,
,,,,,,,,,60045900ccb68e4bdd23111e,Spanish,13 or older,"no, only English or Spanish",no,2025-08-15_08h34.53.021,empathy_intonation_perc,2024.2.4,Win32,59.88023952,60045900ccb68e4bdd23111e,689ed6d1281858f68c932c05,689f29380079cc88f9c28eed,,,,,,,,,,,,,,0,,,,,,,,,,,,,,,,,,,,,,,,,,,,,,,,,,,,,,,,,,,,,,,,,,,,,,,,,30,alardio,,,,,590.5549,591.9206,1,0,0.8348,,0,52,52,29,1,REAL,FAKE,,,,,,,,,,,,,,,,,
,,,,,,,,,60045900ccb68e4bdd23111e,Spanish,13 or older,"no, only English or Spanish",no,2025-08-15_08h34.53.021,empathy_intonation_perc,2024.2.4,Win32,59.88023952,60045900ccb68e4bdd23111e,689ed6d1281858f68c932c05,689f29380079cc88f9c28eed,,,,,,,,,,,,,,0,,,,,,,,,,,,,,,,,,,,,,,,,,,,,,,,,,,,,,,,,,,,,,,,,,,,,,,,,4,batillón,,,,,591.9221,593.2203,1,0,0.7729,,0,53,53,3,1,REAL,FAKE,,,,,,,,,,,,,,,,,
,,,,,,,,,60045900ccb68e4bdd23111e,Spanish,13 or older,"no, only English or Spanish",no,2025-08-15_08h34.53.021,empathy_intonation_perc,2024.2.4,Win32,59.88023952,60045900ccb68e4bdd23111e,689ed6d1281858f68c932c05,689f29380079cc88f9c28eed,,,,,,,,,,,,,,1,,,,,,,,,,,,,,,,,,,,,,,,,,,,,,,,,,,,,,,,,,,,,,,,,,,,,,,,,81,pozo,,,,,593.2215,594.6202,0,0,0.8725,,0,54,54,80,1,REAL,FAKE,,,,,,,,,,,,,,,,,
,,,,,,,,,60045900ccb68e4bdd23111e,Spanish,13 or older,"no, only English or Spanish",no,2025-08-15_08h34.53.021,empathy_intonation_perc,2024.2.4,Win32,59.88023952,60045900ccb68e4bdd23111e,689ed6d1281858f68c932c05,689f29380079cc88f9c28eed,,,,,,,,,,,,,,1,,,,,,,,,,,,,,,,,,,,,,,,,,,,,,,,,,,,,,,,,,,,,,,,,,,,,,,,,7,pésimo,,,,,594.6214,596.5872,0,0,1.4326,,0,55,55,6,1,REAL,FAKE,,,,,,,,,,,,,,,,,
,,,,,,,,,60045900ccb68e4bdd23111e,Spanish,13 or older,"no, only English or Spanish",no,2025-08-15_08h34.53.021,empathy_intonation_perc,2024.2.4,Win32,59.88023952,60045900ccb68e4bdd23111e,689ed6d1281858f68c932c05,689f29380079cc88f9c28eed,,,,,,,,,,,,,,1,,,,,,,,,,,,,,,,,,,,,,,,,,,,,,,,,,,,,,,,,,,,,,,,,,,,,,,,,68,alegre,,,,,596.5885,598.0371,1,1,0.9143,,0,56,56,67,1,REAL,FAKE,,,,,,,,,,,,,,,,,
,,,,,,,,,60045900ccb68e4bdd23111e,Spanish,13 or older,"no, only English or Spanish",no,2025-08-15_08h34.53.021,empathy_intonation_perc,2024.2.4,Win32,59.88023952,60045900ccb68e4bdd23111e,689ed6d1281858f68c932c05,689f29380079cc88f9c28eed,,,,,,,,,,,,,,0,,,,,,,,,,,,,,,,,,,,,,,,,,,,,,,,,,,,,,,,,,,,,,,,,,,,,,,,,58,plaudir,,,,,598.0383,599.5204,1,0,0.9483,,0,57,57,57,1,REAL,FAKE,,,,,,,,,,,,,,,,,
,,,,,,,,,60045900ccb68e4bdd23111e,Spanish,13 or older,"no, only English or Spanish",no,2025-08-15_08h34.53.021,empathy_intonation_perc,2024.2.4,Win32,59.88023952,60045900ccb68e4bdd23111e,689ed6d1281858f68c932c05,689f29380079cc88f9c28eed,,,,,,,,,,,,,,1,,,,,,,,,,,,,,,,,,,,,,,,,,,,,,,,,,,,,,,,,,,,,,,,,,,,,,,,,24,látigo,,,,,599.5224,601.3205,0,0,1.2652,,0,58,58,23,1,REAL,FAKE,,,,,,,,,,,,,,,,,
,,,,,,,,,60045900ccb68e4bdd23111e,Spanish,13 or older,"no, only English or Spanish",no,2025-08-15_08h34.53.021,empathy_intonation_perc,2024.2.4,Win32,59.88023952,60045900ccb68e4bdd23111e,689ed6d1281858f68c932c05,689f29380079cc88f9c28eed,,,,,,,,,,,,,,1,,,,,,,,,,,,,,,,,,,,,,,,,,,,,,,,,,,,,,,,,,,,,,,,,,,,,,,,,73,hervidor,,,,,601.3218,602.7705,1,1,0.9161,,0,59,59,72,1,REAL,FAKE,,,,,,,,,,,,,,,,,
,,,,,,,,,60045900ccb68e4bdd23111e,Spanish,13 or older,"no, only English or Spanish",no,2025-08-15_08h34.53.021,empathy_intonation_perc,2024.2.4,Win32,59.88023952,60045900ccb68e4bdd23111e,689ed6d1281858f68c932c05,689f29380079cc88f9c28eed,,,,,,,,,,,,,,1,,,,,,,,,,,,,,,,,,,,,,,,,,,,,,,,,,,,,,,,,,,,,,,,,,,,,,,,,36,loro,,,,,602.7717,604.0706,1,1,0.7634,,0,60,60,35,1,REAL,FAKE,,,,,,,,,,,,,,,,,
,,,,,,,,,60045900ccb68e4bdd23111e,Spanish,13 or older,"no, only English or Spanish",no,2025-08-15_08h34.53.021,empathy_intonation_perc,2024.2.4,Win32,59.88023952,60045900ccb68e4bdd23111e,689ed6d1281858f68c932c05,689f29380079cc88f9c28eed,,,,,,,,,,,,,,1,,,,,,,,,,,,,,,,,,,,,,,,,,,,,,,,,,,,,,,,,,,,,,,,,,,,,,,,,25,bisagra,,,,,604.0718,605.5038,1,1,0.8972,,0,61,61,24,1,REAL,FAKE,,,,,,,,,,,,,,,,,
,,,,,,,,,60045900ccb68e4bdd23111e,Spanish,13 or older,"no, only English or Spanish",no,2025-08-15_08h34.53.021,empathy_intonation_perc,2024.2.4,Win32,59.88023952,60045900ccb68e4bdd23111e,689ed6d1281858f68c932c05,689f29380079cc88f9c28eed,,,,,,,,,,,,,,1,,,,,,,,,,,,,,,,,,,,,,,,,,,,,,,,,,,,,,,,,,,,,,,,,,,,,,,,,55,nevar,,,,,605.5051,606.87,1,1,0.8361,,0,62,62,54,1,REAL,FAKE,,,,,,,,,,,,,,,,,
,,,,,,,,,60045900ccb68e4bdd23111e,Spanish,13 or older,"no, only English or Spanish",no,2025-08-15_08h34.53.021,empathy_intonation_perc,2024.2.4,Win32,59.88023952,60045900ccb68e4bdd23111e,689ed6d1281858f68c932c05,689f29380079cc88f9c28eed,,,,,,,,,,,,,,1,,,,,,,,,,,,,,,,,,,,,,,,,,,,,,,,,,,,,,,,,,,,,,,,,,,,,,,,,91,click the 1 key.,,,,,606.8713,610.3538,1,1,2.9497,,0,63,63,90,1,REAL,FAKE,,,,,,,,,,,,,,,,,
,,,,,,,,,60045900ccb68e4bdd23111e,Spanish,13 or older,"no, only English or Spanish",no,2025-08-15_08h34.53.021,empathy_intonation_perc,2024.2.4,Win32,59.88023952,60045900ccb68e4bdd23111e,689ed6d1281858f68c932c05,689f29380079cc88f9c28eed,,,,,,,,,,,,,,0,,,,,,,,,,,,,,,,,,,,,,,,,,,,,,,,,,,,,,,,,,,,,,,,,,,,,,,,,1,terzo,,,,,610.3549,613.8537,0,1,2.9636,,0,64,64,0,1,REAL,FAKE,,,,,,,,,,,,,,,,,
,,,,,,,,,60045900ccb68e4bdd23111e,Spanish,13 or older,"no, only English or Spanish",no,2025-08-15_08h34.53.021,empathy_intonation_perc,2024.2.4,Win32,59.88023952,60045900ccb68e4bdd23111e,689ed6d1281858f68c932c05,689f29380079cc88f9c28eed,,,,,,,,,,,,,,1,,,,,,,,,,,,,,,,,,,,,,,,,,,,,,,,,,,,,,,,,,,,,,,,,,,,,,,,,75,yacer,,,,,613.855,615.3541,1,1,0.9751,,0,65,65,74,1,REAL,FAKE,,,,,,,,,,,,,,,,,
,,,,,,,,,60045900ccb68e4bdd23111e,Spanish,13 or older,"no, only English or Spanish",no,2025-08-15_08h34.53.021,empathy_intonation_perc,2024.2.4,Win32,59.88023952,60045900ccb68e4bdd23111e,689ed6d1281858f68c932c05,689f29380079cc88f9c28eed,,,,,,,,,,,,,,0,,,,,,,,,,,,,,,,,,,,,,,,,,,,,,,,,,,,,,,,,,,,,,,,,,,,,,,,,42,cadallo,,,,,615.3557,617.7038,1,0,1.8137,,0,66,66,41,1,REAL,FAKE,,,,,,,,,,,,,,,,,
,,,,,,,,,60045900ccb68e4bdd23111e,Spanish,13 or older,"no, only English or Spanish",no,2025-08-15_08h34.53.021,empathy_intonation_perc,2024.2.4,Win32,59.88023952,60045900ccb68e4bdd23111e,689ed6d1281858f68c932c05,689f29380079cc88f9c28eed,,,,,,,,,,,,,,1,,,,,,,,,,,,,,,,,,,,,,,,,,,,,,,,,,,,,,,,,,,,,,,,,,,,,,,,,41,rebuscar,,,,,617.7049,619.3705,1,1,1.1324,,0,67,67,40,1,REAL,FAKE,,,,,,,,,,,,,,,,,
,,,,,,,,,60045900ccb68e4bdd23111e,Spanish,13 or older,"no, only English or Spanish",no,2025-08-15_08h34.53.021,empathy_intonation_perc,2024.2.4,Win32,59.88023952,60045900ccb68e4bdd23111e,689ed6d1281858f68c932c05,689f29380079cc88f9c28eed,,,,,,,,,,,,,,0,,,,,,,,,,,,,,,,,,,,,,,,,,,,,,,,,,,,,,,,,,,,,,,,,,,,,,,,,10,antar,,,,,619.3718,620.5873,1,0,0.683,,0,68,68,9,1,REAL,FAKE,,,,,,,,,,,,,,,,,
,,,,,,,,,60045900ccb68e4bdd23111e,Spanish,13 or older,"no, only English or Spanish",no,2025-08-15_08h34.53.021,empathy_intonation_perc,2024.2.4,Win32,59.88023952,60045900ccb68e4bdd23111e,689ed6d1281858f68c932c05,689f29380079cc88f9c28eed,,,,,,,,,,,,,,0,,,,,,,,,,,,,,,,,,,,,,,,,,,,,,,,,,,,,,,,,,,,,,,,,,,,,,,,,92,click the 0 key.,,,,,620.5886,622.1037,0,1,0.9802,,0,69,69,91,1,REAL,FAKE,,,,,,,,,,,,,,,,,
,,,,,,,,,60045900ccb68e4bdd23111e,Spanish,13 or older,"no, only English or Spanish",no,2025-08-15_08h34.53.021,empathy_intonation_perc,2024.2.4,Win32,59.88023952,60045900ccb68e4bdd23111e,689ed6d1281858f68c932c05,689f29380079cc88f9c28eed,,,,,,,,,,,,,,1,,,,,,,,,,,,,,,,,,,,,,,,,,,,,,,,,,,,,,,,,,,,,,,,,,,,,,,,,52,camisa,,,,,622.1051,624.6537,1,1,2.0212,,0,70,70,51,1,REAL,FAKE,,,,,,,,,,,,,,,,,
,,,,,,,,,60045900ccb68e4bdd23111e,Spanish,13 or older,"no, only English or Spanish",no,2025-08-15_08h34.53.021,empathy_intonation_perc,2024.2.4,Win32,59.88023952,60045900ccb68e4bdd23111e,689ed6d1281858f68c932c05,689f29380079cc88f9c28eed,,,,,,,,,,,,,,0,,,,,,,,,,,,,,,,,,,,,,,,,,,,,,,,,,,,,,,,,,,,,,,,,,,,,,,,,47,cartinar,,,,,624.6549,628.7871,1,0,3.5996,,0,71,71,46,1,REAL,FAKE,,,,,,,,,,,,,,,,,
,,,,,,,,,60045900ccb68e4bdd23111e,Spanish,13 or older,"no, only English or Spanish",no,2025-08-15_08h34.53.021,empathy_intonation_perc,2024.2.4,Win32,59.88023952,60045900ccb68e4bdd23111e,689ed6d1281858f68c932c05,689f29380079cc88f9c28eed,,,,,,,,,,,,,,1,,,,,,,,,,,,,,,,,,,,,,,,,,,,,,,,,,,,,,,,,,,,,,,,,,,,,,,,,2,pellizcar,,,,,628.7884,630.2537,0,0,0.9381,,0,72,72,1,1,REAL,FAKE,,,,,,,,,,,,,,,,,
,,,,,,,,,60045900ccb68e4bdd23111e,Spanish,13 or older,"no, only English or Spanish",no,2025-08-15_08h34.53.021,empathy_intonation_perc,2024.2.4,Win32,59.88023952,60045900ccb68e4bdd23111e,689ed6d1281858f68c932c05,689f29380079cc88f9c28eed,,,,,,,,,,,,,,0,,,,,,,,,,,,,,,,,,,,,,,,,,,,,,,,,,,,,,,,,,,,,,,,,,,,,,,,,29,decar,,,,,630.2549,631.9537,0,1,1.1753,,0,73,73,28,1,REAL,FAKE,,,,,,,,,,,,,,,,,
,,,,,,,,,60045900ccb68e4bdd23111e,Spanish,13 or older,"no, only English or Spanish",no,2025-08-15_08h34.53.021,empathy_intonation_perc,2024.2.4,Win32,59.88023952,60045900ccb68e4bdd23111e,689ed6d1281858f68c932c05,689f29380079cc88f9c28eed,,,,,,,,,,,,,,1,,,,,,,,,,,,,,,,,,,,,,,,,,,,,,,,,,,,,,,,,,,,,,,,,,,,,,,,,59,besar,,,,,631.955,633.2537,0,0,0.771,,0,74,74,58,1,REAL,FAKE,,,,,,,,,,,,,,,,,
,,,,,,,,,60045900ccb68e4bdd23111e,Spanish,13 or older,"no, only English or Spanish",no,2025-08-15_08h34.53.021,empathy_intonation_perc,2024.2.4,Win32,59.88023952,60045900ccb68e4bdd23111e,689ed6d1281858f68c932c05,689f29380079cc88f9c28eed,,,,,,,,,,,,,,1,,,,,,,,,,,,,,,,,,,,,,,,,,,,,,,,,,,,,,,,,,,,,,,,,,,,,,,,,20,ávido,,,,,633.255,634.5537,0,0,0.7637,,0,75,75,19,1,REAL,FAKE,,,,,,,,,,,,,,,,,
,,,,,,,,,60045900ccb68e4bdd23111e,Spanish,13 or older,"no, only English or Spanish",no,2025-08-15_08h34.53.021,empathy_intonation_perc,2024.2.4,Win32,59.88023952,60045900ccb68e4bdd23111e,689ed6d1281858f68c932c05,689f29380079cc88f9c28eed,,,,,,,,,,,,,,1,,,,,,,,,,,,,,,,,,,,,,,,,,,,,,,,,,,,,,,,,,,,,,,,,,,,,,,,,34,aviso,,,,,634.5548,635.7869,0,0,0.7068,,0,76,76,33,1,REAL,FAKE,,,,,,,,,,,,,,,,,
,,,,,,,,,60045900ccb68e4bdd23111e,Spanish,13 or older,"no, only English or Spanish",no,2025-08-15_08h34.53.021,empathy_intonation_perc,2024.2.4,Win32,59.88023952,60045900ccb68e4bdd23111e,689ed6d1281858f68c932c05,689f29380079cc88f9c28eed,,,,,,,,,,,,,,1,,,,,,,,,,,,,,,,,,,,,,,,,,,,,,,,,,,,,,,,,,,,,,,,,,,,,,,,,37,granuja,,,,,635.7879,637.4206,1,1,1.0983,,0,77,77,36,1,REAL,FAKE,,,,,,,,,,,,,,,,,
,,,,,,,,,60045900ccb68e4bdd23111e,Spanish,13 or older,"no, only English or Spanish",no,2025-08-15_08h34.53.021,empathy_intonation_perc,2024.2.4,Win32,59.88023952,60045900ccb68e4bdd23111e,689ed6d1281858f68c932c05,689f29380079cc88f9c28eed,,,,,,,,,,,,,,1,,,,,,,,,,,,,,,,,,,,,,,,,,,,,,,,,,,,,,,,,,,,,,,,,,,,,,,,,9,hacha,,,,,637.4218,638.7706,1,1,0.8159,,0,78,78,8,1,REAL,FAKE,,,,,,,,,,,,,,,,,
,,,,,,,,,60045900ccb68e4bdd23111e,Spanish,13 or older,"no, only English or Spanish",no,2025-08-15_08h34.53.021,empathy_intonation_perc,2024.2.4,Win32,59.88023952,60045900ccb68e4bdd23111e,689ed6d1281858f68c932c05,689f29380079cc88f9c28eed,,,,,,,,,,,,,,1,,,,,,,,,,,,,,,,,,,,,,,,,,,,,,,,,,,,,,,,,,,,,,,,,,,,,,,,,83,guante,,,,,638.7718,640.0371,1,1,0.7387,,0,79,79,82,1,REAL,FAKE,,,,,,,,,,,,,,,,,
,,,,,,,,,60045900ccb68e4bdd23111e,Spanish,13 or older,"no, only English or Spanish",no,2025-08-15_08h34.53.021,empathy_intonation_perc,2024.2.4,Win32,59.88023952,60045900ccb68e4bdd23111e,689ed6d1281858f68c932c05,689f29380079cc88f9c28eed,,,,,,,,,,,,,,1,,,,,,,,,,,,,,,,,,,,,,,,,,,,,,,,,,,,,,,,,,,,,,,,,,,,,,,,,5,zapato,,,,,640.0384,641.5536,1,1,0.984,,0,80,80,4,1,REAL,FAKE,,,,,,,,,,,,,,,,,
,,,,,,,,,60045900ccb68e4bdd23111e,Spanish,13 or older,"no, only English or Spanish",no,2025-08-15_08h34.53.021,empathy_intonation_perc,2024.2.4,Win32,59.88023952,60045900ccb68e4bdd23111e,689ed6d1281858f68c932c05,689f29380079cc88f9c28eed,,,,,,,,,,,,,,0,,,,,,,,,,,,,,,,,,,,,,,,,,,,,,,,,,,,,,,,,,,,,,,,,,,,,,,,,84,escuto,,,,,641.5549,643.2203,1,0,1.1391,,0,81,81,83,1,REAL,FAKE,,,,,,,,,,,,,,,,,
,,,,,,,,,60045900ccb68e4bdd23111e,Spanish,13 or older,"no, only English or Spanish",no,2025-08-15_08h34.53.021,empathy_intonation_perc,2024.2.4,Win32,59.88023952,60045900ccb68e4bdd23111e,689ed6d1281858f68c932c05,689f29380079cc88f9c28eed,,,,,,,,,,,,,,1,,,,,,,,,,,,,,,,,,,,,,,,,,,,,,,,,,,,,,,,,,,,,,,,,,,,,,,,,43,canela,,,,,643.2213,645.2036,0,0,1.4567,,0,82,82,42,1,REAL,FAKE,,,,,,,,,,,,,,,,,
,,,,,,,,,60045900ccb68e4bdd23111e,Spanish,13 or older,"no, only English or Spanish",no,2025-08-15_08h34.53.021,empathy_intonation_perc,2024.2.4,Win32,59.88023952,60045900ccb68e4bdd23111e,689ed6d1281858f68c932c05,689f29380079cc88f9c28eed,,,,,,,,,,,,,,1,,,,,,,,,,,,,,,,,,,,,,,,,,,,,,,,,,,,,,,,,,,,,,,,,,,,,,,,,71,polvoriento,,,,,645.2047,646.9536,1,1,1.2246,,0,83,83,70,1,REAL,FAKE,,,,,,,,,,,,,,,,,
,,,,,,,,,60045900ccb68e4bdd23111e,Spanish,13 or older,"no, only English or Spanish",no,2025-08-15_08h34.53.021,empathy_intonation_perc,2024.2.4,Win32,59.88023952,60045900ccb68e4bdd23111e,689ed6d1281858f68c932c05,689f29380079cc88f9c28eed,,,,,,,,,,,,,,1,,,,,,,,,,,,,,,,,,,,,,,,,,,,,,,,,,,,,,,,,,,,,,,,,,,,,,,,,77,tiburón,,,,,646.9549,648.3541,0,0,0.8759,,0,84,84,76,1,REAL,FAKE,,,,,,,,,,,,,,,,,
,,,,,,,,,60045900ccb68e4bdd23111e,Spanish,13 or older,"no, only English or Spanish",no,2025-08-15_08h34.53.021,empathy_intonation_perc,2024.2.4,Win32,59.88023952,60045900ccb68e4bdd23111e,689ed6d1281858f68c932c05,689f29380079cc88f9c28eed,,,,,,,,,,,,,,1,,,,,,,,,,,,,,,,,,,,,,,,,,,,,,,,,,,,,,,,,,,,,,,,,,,,,,,,,86,barato,,,,,648.3554,650.0371,1,1,1.1548,,0,85,85,85,1,REAL,FAKE,,,,,,,,,,,,,,,,,
,,,,,,,,,60045900ccb68e4bdd23111e,Spanish,13 or older,"no, only English or Spanish",no,2025-08-15_08h34.53.021,empathy_intonation_perc,2024.2.4,Win32,59.88023952,60045900ccb68e4bdd23111e,689ed6d1281858f68c932c05,689f29380079cc88f9c28eed,,,,,,,,,,,,,,1,,,,,,,,,,,,,,,,,,,,,,,,,,,,,,,,,,,,,,,,,,,,,,,,,,,,,,,,,40,alfombra,,,,,650.0383,652.3372,0,0,1.7678,,0,86,86,39,1,REAL,FAKE,,,,,,,,,,,,,,,,,
,,,,,,,,,60045900ccb68e4bdd23111e,Spanish,13 or older,"no, only English or Spanish",no,2025-08-15_08h34.53.021,empathy_intonation_perc,2024.2.4,Win32,59.88023952,60045900ccb68e4bdd23111e,689ed6d1281858f68c932c05,689f29380079cc88f9c28eed,,,,,,,,,,,,,,1,,,,,,,,,,,,,,,,,,,,,,,,,,,,,,,,,,,,,,,,,,,,,,,,,,,,,,,,,46,martillo,,,,,652.3385,654.0538,0,0,1.1876,,0,87,87,45,1,REAL,FAKE,,,,,,,,,,,,,,,,,
,,,,,,,,,60045900ccb68e4bdd23111e,Spanish,13 or older,"no, only English or Spanish",no,2025-08-15_08h34.53.021,empathy_intonation_perc,2024.2.4,Win32,59.88023952,60045900ccb68e4bdd23111e,689ed6d1281858f68c932c05,689f29380079cc88f9c28eed,,,,,,,,,,,,,,1,,,,,,,,,,,,,,,,,,,,,,,,,,,,,,,,,,,,,,,,,,,,,,,,,,,,,,,,,88,acantilado,,,,,654.055,655.5706,1,1,0.9844,,0,88,88,87,1,REAL,FAKE,,,,,,,,,,,,,,,,,
,,,,,,,,,60045900ccb68e4bdd23111e,Spanish,13 or older,"no, only English or Spanish",no,2025-08-15_08h34.53.021,empathy_intonation_perc,2024.2.4,Win32,59.88023952,60045900ccb68e4bdd23111e,689ed6d1281858f68c932c05,689f29380079cc88f9c28eed,,,,,,,,,,,,,,1,,,,,,,,,,,,,,,,,,,,,,,,,,,,,,,,,,,,,,,,,,,,,,,,,,,,,,,,,26,secuestro,,,,,655.5717,657.3704,1,1,1.2662,,0,89,89,25,1,REAL,FAKE,,,,,,,,,,,,,,,,,
,,,,,,,,,60045900ccb68e4bdd23111e,Spanish,13 or older,"no, only English or Spanish",no,2025-08-15_08h34.53.021,empathy_intonation_perc,2024.2.4,Win32,59.88023952,60045900ccb68e4bdd23111e,689ed6d1281858f68c932c05,689f29380079cc88f9c28eed,,,,,,,,,,,,,,1,,,,,,,,,,,,,,,,,,,,,,,,,,,,,,,,,,,,,,,,,,,,,,,,,,,,,,,,,85,laúd,,,,,657.3721,658.9036,0,0,0.9969,,0,90,90,84,1,REAL,FAKE,,,,,,,,,,,,,,,,,
,,,,,,,,,60045900ccb68e4bdd23111e,Spanish,13 or older,"no, only English or Spanish",no,2025-08-15_08h34.53.021,empathy_intonation_perc,2024.2.4,Win32,59.88023952,60045900ccb68e4bdd23111e,689ed6d1281858f68c932c05,689f29380079cc88f9c28eed,,,,,,,,,,,,,,1,,,,,,,,,,,,,,,,,,,,,,,,,,,,,,,,,,,,,,,,,,,,,,,,,,,,,,,,,44,cuchara,,,,,658.9049,660.5536,1,1,1.1131,,0,91,91,43,1,REAL,FAKE,,,,,,,,,,,,,,,,,
,,,,,,,,,60045900ccb68e4bdd23111e,Spanish,13 or older,"no, only English or Spanish",no,2025-08-15_08h34.53.021,empathy_intonation_perc,2024.2.4,Win32,59.88023952,60045900ccb68e4bdd23111e,689ed6d1281858f68c932c05,689f29380079cc88f9c28eed,,,,,,,,,,,,,,,,,,,,,,,,,,,,,,,,,,,,,,,,,,,,,,,,,,,,,,,,,,,,,,,,,,,,,,,,,,,,,,,,,,,,,,,,,,660.5541,671.1206,,,,,,,,,,,,,,,
,,,,,,,,,60045900ccb68e4bdd23111e,Spanish,13 or older,"no, only English or Spanish",no,2025-08-15_08h34.53.021,empathy_intonation_perc,2024.2.4,Win32,59.88023952,60045900ccb68e4bdd23111e,689ed6d1281858f68c932c05,689f29380079cc88f9c28eed,,,,,,,,,,,,,1,,,,,,,,,,,,,,,,,,,,,,,,,,,,,,,,,,,,,,,,,,,,,,,,,,,,,,,,,,,,,,,,,,,,,,,,,,,,,,,671.1369,678.2211,slightly agree,0,0,0,0,1,I can easily tell if someone else wants to enter a conversation.,1,0,1,0,,
,,,,,,,,,60045900ccb68e4bdd23111e,Spanish,13 or older,"no, only English or Spanish",no,2025-08-15_08h34.53.021,empathy_intonation_perc,2024.2.4,Win32,59.88023952,60045900ccb68e4bdd23111e,689ed6d1281858f68c932c05,689f29380079cc88f9c28eed,,,,,,,,,,,,,2,,,,,,,,,,,,,,,,,,,,,,,,,,,,,,,,,,,,,,,,,,,,,,,,,,,,,,,,,,,,,,,,,,,,,,,,,,,,,,,678.2238,681.637,strongly disagree,0,1,1,1,1,I prefer animals to humans.,0,1,0,0,,
,,,,,,,,,60045900ccb68e4bdd23111e,Spanish,13 or older,"no, only English or Spanish",no,2025-08-15_08h34.53.021,empathy_intonation_perc,2024.2.4,Win32,59.88023952,60045900ccb68e4bdd23111e,689ed6d1281858f68c932c05,689f29380079cc88f9c28eed,,,,,,,,,,,,,3,,,,,,,,,,,,,,,,,,,,,,,,,,,,,,,,,,,,,,,,,,,,,,,,,,,,,,,,,,,,,,,,,,,,,,,,,,,,,,,681.6398,686.587,slightly agree,0,2,2,2,1,I try to keep up with the current trends and fashions.,0,1,0,0,,
,,,,,,,,,60045900ccb68e4bdd23111e,Spanish,13 or older,"no, only English or Spanish",no,2025-08-15_08h34.53.021,empathy_intonation_perc,2024.2.4,Win32,59.88023952,60045900ccb68e4bdd23111e,689ed6d1281858f68c932c05,689f29380079cc88f9c28eed,,,,,,,,,,,,,4,,,,,,,,,,,,,,,,,,,,,,,,,,,,,,,,,,,,,,,,,,,,,,,,,,,,,,,,,,,,,,,,,,,,,,,,,,,,,,,686.5904,692.9535,slightly agree,0,3,3,3,1,"I find it difficult to explain to others things that I understand easily,   when they don't understand it first time.",1,0,0,1,,
,,,,,,,,,60045900ccb68e4bdd23111e,Spanish,13 or older,"no, only English or Spanish",no,2025-08-15_08h34.53.021,empathy_intonation_perc,2024.2.4,Win32,59.88023952,60045900ccb68e4bdd23111e,689ed6d1281858f68c932c05,689f29380079cc88f9c28eed,,,,,,,,,,,,,5,,,,,,,,,,,,,,,,,,,,,,,,,,,,,,,,,,,,,,,,,,,,,,,,,,,,,,,,,,,,,,,,,,,,,,,,,,,,,,,692.9563,696.4374,slightly disagree,0,4,4,4,1,I dream most nights.,0,1,0,0,,
,,,,,,,,,60045900ccb68e4bdd23111e,Spanish,13 or older,"no, only English or Spanish",no,2025-08-15_08h34.53.021,empathy_intonation_perc,2024.2.4,Win32,59.88023952,60045900ccb68e4bdd23111e,689ed6d1281858f68c932c05,689f29380079cc88f9c28eed,,,,,,,,,,,,,6,,,,,,,,,,,,,,,,,,,,,,,,,,,,,,,,,,,,,,,,,,,,,,,,,,,,,,,,,,,,,,,,,,,,,,,,,,,,,,,696.4397,700.1368,slightly agree,0,5,5,5,1,I really enjoy caring for other people.,1,0,1,0,,
,,,,,,,,,60045900ccb68e4bdd23111e,Spanish,13 or older,"no, only English or Spanish",no,2025-08-15_08h34.53.021,empathy_intonation_perc,2024.2.4,Win32,59.88023952,60045900ccb68e4bdd23111e,689ed6d1281858f68c932c05,689f29380079cc88f9c28eed,,,,,,,,,,,,,7,,,,,,,,,,,,,,,,,,,,,,,,,,,,,,,,,,,,,,,,,,,,,,,,,,,,,,,,,,,,,,,,,,,,,,,,,,,,,,,700.1396,702.9536,strongly agree,0,6,6,6,1,I try to solve my own problems rather than discussing them with others.,0,1,0,0,,
,,,,,,,,,60045900ccb68e4bdd23111e,Spanish,13 or older,"no, only English or Spanish",no,2025-08-15_08h34.53.021,empathy_intonation_perc,2024.2.4,Win32,59.88023952,60045900ccb68e4bdd23111e,689ed6d1281858f68c932c05,689f29380079cc88f9c28eed,,,,,,,,,,,,,8,,,,,,,,,,,,,,,,,,,,,,,,,,,,,,,,,,,,,,,,,,,,,,,,,,,,,,,,,,,,,,,,,,,,,,,,,,,,,,,702.9565,706.8869,slightly disagree,0,7,7,7,1,I find it hard to know what to do in a social situation.,1,0,0,1,,
,,,,,,,,,60045900ccb68e4bdd23111e,Spanish,13 or older,"no, only English or Spanish",no,2025-08-15_08h34.53.021,empathy_intonation_perc,2024.2.4,Win32,59.88023952,60045900ccb68e4bdd23111e,689ed6d1281858f68c932c05,689f29380079cc88f9c28eed,,,,,,,,,,,,,9,,,,,,,,,,,,,,,,,,,,,,,,,,,,,,,,,,,,,,,,,,,,,,,,,,,,,,,,,,,,,,,,,,,,,,,,,,,,,,,706.8896,709.9207,slightly disagree,0,8,8,8,1,I am at my best first thing in the morning.,0,1,0,0,,
,,,,,,,,,60045900ccb68e4bdd23111e,Spanish,13 or older,"no, only English or Spanish",no,2025-08-15_08h34.53.021,empathy_intonation_perc,2024.2.4,Win32,59.88023952,60045900ccb68e4bdd23111e,689ed6d1281858f68c932c05,689f29380079cc88f9c28eed,,,,,,,,,,,,,10,,,,,,,,,,,,,,,,,,,,,,,,,,,,,,,,,,,,,,,,,,,,,,,,,,,,,,,,,,,,,,,,,,,,,,,,,,,,,,,709.9235,714.8035,slightly disagree,0,9,9,9,1,People often tell me that I went too far in driving my point home in a discussion.,1,0,0,1,,
