instructions_exposure.started,instructions_exposure.stopped,instructions_exposure_loop.thisRepN,instructions_exposure_loop.thisTrialN,instructions_exposure_loop.thisN,instructions_exposure_loop.thisIndex,instructions_exposure_loop.ran,instructions_text,continue_text,participant_id,"What variety of Spanish are you most familiar with? (e.g., Peruvian, Spanish, Mexican)",At what age did you begin learning Spanish?,Are you proficient in any languages other than English/Spanish?,"Are you familiar with Caribbean (e.g., Caribbean, Puerto Rican) or Galician Spanish?",date,expName,psychopyVersion,OS,frameRate,id,study_id,session,trial_exposure.started,trial_exposure.stopped,key_resp_exposure.keys,key_resp_exposure.corr,key_resp_exposure.rt,key_resp_exposure.duration,key_resp.keys,exposure_loop.thisRepN,exposure_loop.thisTrialN,exposure_loop.thisN,exposure_loop.thisIndex,exposure_loop.ran,item_num,correct_response,question,path,duration,instructions_2afc.started,instructions_2afc.stopped,instructions_2afc_loop.thisRepN,instructions_2afc_loop.thisTrialN,instructions_2afc_loop.thisN,instructions_2afc_loop.thisIndex,instructions_2afc_loop.ran,practice_2afc.started,practice_2afc.stopped,key_resp_2afc_practice.keys,key_resp_2afc_practice.corr,key_resp_2afc_practice.rt,key_resp_2afc_practice.duration,trials_2afc_practice_loop.thisRepN,trials_2afc_practice_loop.thisTrialN,trials_2afc_practice_loop.thisN,trials_2afc_practice_loop.thisIndex,trials_2afc_practice_loop.ran,check_2afc.started,check_2afc.stopped,trial_2afc.started,trial_2afc.stopped,key_resp_2afc_trial.keys,key_resp_2afc_trial.corr,key_resp_2afc_trial.rt,key_resp_2afc_trial.duration,trials_2afc_loop.thisRepN,trials_2afc_loop.thisTrialN,trials_2afc_loop.thisN,trials_2afc_loop.thisIndex,trials_2afc_loop.ran,target,variety,instructions_lextale.started,instructions_lextale.stopped,instructions_lextale_loop.thisRepN,instructions_lextale_loop.thisTrialN,instructions_lextale_loop.thisN,instructions_lextale_loop.thisIndex,instructions_lextale_loop.ran,practice_lextale.started,practice_lextale.stopped,key_resp_lextale_practice.keys,key_resp_lextale_practice.corr,key_resp_lextale_practice.rt,key_resp_lextale_practice.duration,practice_feedback_lextale.started,practice_feedback_lextale.stopped,trials_lextale_practice_loop.thisRepN,trials_lextale_practice_loop.thisTrialN,trials_lextale_practice_loop.thisN,trials_lextale_practice_loop.thisIndex,trials_lextale_practice_loop.ran,stim,word,prac_button_real,prac_button_false,check_lextale.started,check_lextale.stopped,trial_lextale.started,trial_lextale.stopped,key_resp_lextale_trial.keys,key_resp_lextale_trial.corr,key_resp_lextale_trial.rt,key_resp_lextale_trial.duration,trials_lextale_loop.thisRepN,trials_lextale_loop.thisTrialN,trials_lextale_loop.thisN,trials_lextale_loop.thisIndex,trials_lextale_loop.ran,button_real,button_false,instructions_eq.started,instructions_eq.stopped,trial_eq.started,trial_eq.stopped,slider_eq_trial.response,trials_eq_loop.thisRepN,trials_eq_loop.thisTrialN,trials_eq_loop.thisN,trials_eq_loop.thisIndex,trials_eq_loop.ran,item,is_test_item,is_distractor,is_agree_score,is_disagree_score,end_exp.started,end_exp.stopped
0.0382,1.8336,0,0,0,0,1,"In the following task, you are going to hear a series of conversations.", (press the space bar to continue),60c8467d9872c0d83f695499,Spanish,13 or older,"no, only English or Spanish",no,2025-07-22_20h49.41.548,empathy_intonation_perc,2024.2.4,Win32,60.24096386,60c8467d9872c0d83f695499,687ed1b7e638a4cbf2f02089,68803162e4188473187ba793,,,,,,,,,,,,,,,,,,,,,,,,,,,,,,,,,,,,,,,,,,,,,,,,,,,,,,,,,,,,,,,,,,,,,,,,,,,,,,,,,,,,,,,,,,,,,,,,,,,,,,,,,,
1.8345,4.7565,0,1,1,1,1,It is okay if you don't not 100% understand them!, (press the space bar to continue),60c8467d9872c0d83f695499,Spanish,13 or older,"no, only English or Spanish",no,2025-07-22_20h49.41.548,empathy_intonation_perc,2024.2.4,Win32,60.24096386,60c8467d9872c0d83f695499,687ed1b7e638a4cbf2f02089,68803162e4188473187ba793,,,,,,,,,,,,,,,,,,,,,,,,,,,,,,,,,,,,,,,,,,,,,,,,,,,,,,,,,,,,,,,,,,,,,,,,,,,,,,,,,,,,,,,,,,,,,,,,,,,,,,,,,,
4.7627,6.7683,0,2,2,2,1,"After, you will read a sentence about the conversation and decide if it's true or false.", (press the space bar to continue),60c8467d9872c0d83f695499,Spanish,13 or older,"no, only English or Spanish",no,2025-07-22_20h49.41.548,empathy_intonation_perc,2024.2.4,Win32,60.24096386,60c8467d9872c0d83f695499,687ed1b7e638a4cbf2f02089,68803162e4188473187ba793,,,,,,,,,,,,,,,,,,,,,,,,,,,,,,,,,,,,,,,,,,,,,,,,,,,,,,,,,,,,,,,,,,,,,,,,,,,,,,,,,,,,,,,,,,,,,,,,,,,,,,,,,,
6.777,9.265,0,3,3,3,1,"If it's true, press '1' (True) and if it's false press '0' (False).", (press the space bar to continue),60c8467d9872c0d83f695499,Spanish,13 or older,"no, only English or Spanish",no,2025-07-22_20h49.41.548,empathy_intonation_perc,2024.2.4,Win32,60.24096386,60c8467d9872c0d83f695499,687ed1b7e638a4cbf2f02089,68803162e4188473187ba793,,,,,,,,,,,,,,,,,,,,,,,,,,,,,,,,,,,,,,,,,,,,,,,,,,,,,,,,,,,,,,,,,,,,,,,,,,,,,,,,,,,,,,,,,,,,,,,,,,,,,,,,,,
,,,,,,,,,60c8467d9872c0d83f695499,Spanish,13 or older,"no, only English or Spanish",no,2025-07-22_20h49.41.548,empathy_intonation_perc,2024.2.4,Win32,60.24096386,60c8467d9872c0d83f695499,687ed1b7e638a4cbf2f02089,68803162e4188473187ba793,9.3065,48.4644,1,0,3.0777,,,0,0,0,2,1,3,0,The mom already has rice.,./stim/exposure_wavs/pr_stimuli_convo.wav,36,,,,,,,,,,,,,,,,,,,,,,,,,,,,,,,,,,,,,,,,,,,,,,,,,,,,,,,,,,,,,,,,,,,,,,,,,,,,,,,,,,,,,,,,,
,,,,,,,,,60c8467d9872c0d83f695499,Spanish,13 or older,"no, only English or Spanish",no,2025-07-22_20h49.41.548,empathy_intonation_perc,2024.2.4,Win32,60.24096386,60c8467d9872c0d83f695499,687ed1b7e638a4cbf2f02089,68803162e4188473187ba793,48.4779,113.3611,0,0,4.8612,,,0,1,1,1,1,2,1,The mom asked the daughter if she already went to the supermarket.,./stim/exposure_wavs/dr_stimuli_convo.wav,60,,,,,,,,,,,,,,,,,,,,,,,,,,,,,,,,,,,,,,,,,,,,,,,,,,,,,,,,,,,,,,,,,,,,,,,,,,,,,,,,,,,,,,,,,
,,,,,,,,,60c8467d9872c0d83f695499,Spanish,13 or older,"no, only English or Spanish",no,2025-07-22_20h49.41.548,empathy_intonation_perc,2024.2.4,Win32,60.24096386,60c8467d9872c0d83f695499,687ed1b7e638a4cbf2f02089,68803162e4188473187ba793,113.3643,166.3108,1,1,5.9011,,,0,2,2,0,1,1,1,The son asked the mom if Aunt Marina is okay.,./stim/exposure_wavs/ga_stimuli_convo.wav,47,,,,,,,,,,,,,,,,,,,,,,,,,,,,,,,,,,,,,,,,,,,,,,,,,,,,,,,,,,,,,,,,,,,,,,,,,,,,,,,,,,,,,,,,,
,,,,,,,"In the following task you are going to hear a series of utterances. 

  You will decide if the utterances sound like questions or not using your keyboard.", (press the spacebar to continue),60c8467d9872c0d83f695499,Spanish,13 or older,"no, only English or Spanish",no,2025-07-22_20h49.41.548,empathy_intonation_perc,2024.2.4,Win32,60.24096386,60c8467d9872c0d83f695499,687ed1b7e638a4cbf2f02089,68803162e4188473187ba793,,,,,,,,,,,,,,,,,,166.3185,176.9463,0,0,0,0,1,,,,,,,,,,,,,,,,,,,,,,,,,,,,,,,,,,,,,,,,,,,,,,,,,,,,,,,,,,,,,,,,,,,,,,,,,,,,,,,,,,
,,,,,,,"If you believe the utterance is a question, type '1' (for 'yes') and if you do not 
  believe it is a question type '0' (for 'no').

  Let's practice a bit...", (press the spacebar to continue),60c8467d9872c0d83f695499,Spanish,13 or older,"no, only English or Spanish",no,2025-07-22_20h49.41.548,empathy_intonation_perc,2024.2.4,Win32,60.24096386,60c8467d9872c0d83f695499,687ed1b7e638a4cbf2f02089,68803162e4188473187ba793,,,,,,,,,,,,,,,,,,176.952,182.26,0,1,1,1,1,,,,,,,,,,,,,,,,,,,,,,,,,,,,,,,,,,,,,,,,,,,,,,,,,,,,,,,,,,,,,,,,,,,,,,,,,,,,,,,,,,
,,,,,,,,,60c8467d9872c0d83f695499,Spanish,13 or older,"no, only English or Spanish",no,2025-07-22_20h49.41.548,empathy_intonation_perc,2024.2.4,Win32,60.24096386,60c8467d9872c0d83f695499,687ed1b7e638a4cbf2f02089,68803162e4188473187ba793,,,,,,,,,,,,,,0,,./stim/wavs/cuban_statement_filler_Cocinabas-por-la-noche.wav,,,,,,,,,182.2853,184.7771,0,1,1.9564,,0,0,0,4,1,,,,,,,,,,,,,,,,,,,,,,,,,,,,,,,,,,,,,,,,,,,,,,,,,,,,,,,,,,,,,,,,,,,,,,,
,,,,,,,,,60c8467d9872c0d83f695499,Spanish,13 or older,"no, only English or Spanish",no,2025-07-22_20h49.41.548,empathy_intonation_perc,2024.2.4,Win32,60.24096386,60c8467d9872c0d83f695499,687ed1b7e638a4cbf2f02089,68803162e4188473187ba793,,,,,,,,,,,,,,1,,./stim/wavs/chilean_question_filler_Mi-padre-cantaba-bien.wav,,,,,,,,,184.7793,186.9177,1,1,1.6176,,0,1,1,2,1,,,,,,,,,,,,,,,,,,,,,,,,,,,,,,,,,,,,,,,,,,,,,,,,,,,,,,,,,,,,,,,,,,,,,,,
,,,,,,,,,60c8467d9872c0d83f695499,Spanish,13 or older,"no, only English or Spanish",no,2025-07-22_20h49.41.548,empathy_intonation_perc,2024.2.4,Win32,60.24096386,60c8467d9872c0d83f695499,687ed1b7e638a4cbf2f02089,68803162e4188473187ba793,,,,,,,,,,,,,,1,,./stim/wavs/mexican_question_filler_Felipe-no-tiene-contrasena.wav,,,,,,,,,186.92,189.2736,1,1,1.8246,,0,2,2,3,1,,,,,,,,,,,,,,,,,,,,,,,,,,,,,,,,,,,,,,,,,,,,,,,,,,,,,,,,,,,,,,,,,,,,,,,
,,,,,,,,,60c8467d9872c0d83f695499,Spanish,13 or older,"no, only English or Spanish",no,2025-07-22_20h49.41.548,empathy_intonation_perc,2024.2.4,Win32,60.24096386,60c8467d9872c0d83f695499,687ed1b7e638a4cbf2f02089,68803162e4188473187ba793,,,,,,,,,,,,,,1,,./stim/wavs/castilian_question_filler_Mi-esposo-conoce-al-chico.wav,,,,,,,,,189.2752,191.6564,1,1,1.8567,,0,3,3,0,1,,,,,,,,,,,,,,,,,,,,,,,,,,,,,,,,,,,,,,,,,,,,,,,,,,,,,,,,,,,,,,,,,,,,,,,
,,,,,,,,,60c8467d9872c0d83f695499,Spanish,13 or older,"no, only English or Spanish",no,2025-07-22_20h49.41.548,empathy_intonation_perc,2024.2.4,Win32,60.24096386,60c8467d9872c0d83f695499,687ed1b7e638a4cbf2f02089,68803162e4188473187ba793,,,,,,,,,,,,,,0,,./stim/wavs/andalusian_statement_filler_Alberto-nunca-se-afeita.wav,,,,,,,,,191.6577,194.1251,0,1,1.9434,,0,4,4,5,1,,,,,,,,,,,,,,,,,,,,,,,,,,,,,,,,,,,,,,,,,,,,,,,,,,,,,,,,,,,,,,,,,,,,,,,
,,,,,,,,,60c8467d9872c0d83f695499,Spanish,13 or older,"no, only English or Spanish",no,2025-07-22_20h49.41.548,empathy_intonation_perc,2024.2.4,Win32,60.24096386,60c8467d9872c0d83f695499,687ed1b7e638a4cbf2f02089,68803162e4188473187ba793,,,,,,,,,,,,,,0,,./stim/wavs/puertorican_statement_filler_La-nina-pinta-con-su-amiga.wav,,,,,,,,,194.1265,196.5854,0,1,1.9333,,0,5,5,7,1,,,,,,,,,,,,,,,,,,,,,,,,,,,,,,,,,,,,,,,,,,,,,,,,,,,,,,,,,,,,,,,,,,,,,,,
,,,,,,,,,60c8467d9872c0d83f695499,Spanish,13 or older,"no, only English or Spanish",no,2025-07-22_20h49.41.548,empathy_intonation_perc,2024.2.4,Win32,60.24096386,60c8467d9872c0d83f695499,687ed1b7e638a4cbf2f02089,68803162e4188473187ba793,,,,,,,,,,,,,,0,,./stim/wavs/peruvian_statement_filler_El-nino-habla-con-su-madre.wav,,,,,,,,,196.587,199.3708,0,1,2.2382,,0,6,6,6,1,,,,,,,,,,,,,,,,,,,,,,,,,,,,,,,,,,,,,,,,,,,,,,,,,,,,,,,,,,,,,,,,,,,,,,,
,,,,,,,,,60c8467d9872c0d83f695499,Spanish,13 or older,"no, only English or Spanish",no,2025-07-22_20h49.41.548,empathy_intonation_perc,2024.2.4,Win32,60.24096386,60c8467d9872c0d83f695499,687ed1b7e638a4cbf2f02089,68803162e4188473187ba793,,,,,,,,,,,,,,1,,./stim/wavs/argentine_question_filler_Mi-vecino-habla-mucho.wav,,,,,,,,,199.3719,201.2701,1,1,1.3762,,0,7,7,1,1,,,,,,,,,,,,,,,,,,,,,,,,,,,,,,,,,,,,,,,,,,,,,,,,,,,,,,,,,,,,,,,,,,,,,,,
,,,,,,,,,60c8467d9872c0d83f695499,Spanish,13 or older,"no, only English or Spanish",no,2025-07-22_20h49.41.548,empathy_intonation_perc,2024.2.4,Win32,60.24096386,60c8467d9872c0d83f695499,687ed1b7e638a4cbf2f02089,68803162e4188473187ba793,,,,,,,,,,,,,,,,,,,,,,,,,,,,,,,,,,,,201.2709,204.1683,,,,,,,,,,,,,,,,,,,,,,,,,,,,,,,,,,,,,,,,,,,,,,,,,,,,,,,,,,,,,,,,,,,,,
,,,,,,,,,60c8467d9872c0d83f695499,Spanish,13 or older,"no, only English or Spanish",no,2025-07-22_20h49.41.548,empathy_intonation_perc,2024.2.4,Win32,60.24096386,60c8467d9872c0d83f695499,687ed1b7e638a4cbf2f02089,68803162e4188473187ba793,,,,,,,,,,,,,64,0,,./stim/wavs/puertorican_match_declarative-broad-focus_Daniel-iba-a-Bolivia.wav,,,,,,,,,,,,,,,,,,,,,,204.1964,206.4006,0,1,1.6747,,0,0,0,63,1,0,puertorican,,,,,,,,,,,,,,,,,,,,,,,,,,,,,,,,,,,,,,,,,,,,,,,,,,,,,,,,
,,,,,,,,,60c8467d9872c0d83f695499,Spanish,13 or older,"no, only English or Spanish",no,2025-07-22_20h49.41.548,empathy_intonation_perc,2024.2.4,Win32,60.24096386,60c8467d9872c0d83f695499,687ed1b7e638a4cbf2f02089,68803162e4188473187ba793,,,,,,,,,,,,,68,0,,./stim/wavs/puertorican_match_declarative-broad-focus_Maria-bebe-el-vino.wav,,,,,,,,,,,,,,,,,,,,,,206.4021,208.3485,1,0,1.4042,,0,1,1,67,1,0,puertorican,,,,,,,,,,,,,,,,,,,,,,,,,,,,,,,,,,,,,,,,,,,,,,,,,,,,,,,,
,,,,,,,,,60c8467d9872c0d83f695499,Spanish,13 or older,"no, only English or Spanish",no,2025-07-22_20h49.41.548,empathy_intonation_perc,2024.2.4,Win32,60.24096386,60c8467d9872c0d83f695499,687ed1b7e638a4cbf2f02089,68803162e4188473187ba793,,,,,,,,,,,,,18,1,,./stim/wavs/mexican_match_interrogative-total-yn_Marta-abre-el-regalo.wav,,,,,,,,,,,,,,,,,,,,,,208.3493,210.3489,1,1,1.476,,0,2,2,17,1,0,mexican,,,,,,,,,,,,,,,,,,,,,,,,,,,,,,,,,,,,,,,,,,,,,,,,,,,,,,,,
,,,,,,,,,60c8467d9872c0d83f695499,Spanish,13 or older,"no, only English or Spanish",no,2025-07-22_20h49.41.548,empathy_intonation_perc,2024.2.4,Win32,60.24096386,60c8467d9872c0d83f695499,687ed1b7e638a4cbf2f02089,68803162e4188473187ba793,,,,,,,,,,,,,76,0,,./stim/wavs/cuban_mismatch_declarative-broad-focus_La-nina-lava-el-plato.wav,,,,,,,,,,,,,,,,,,,,,,210.3501,212.4678,0,1,1.5735,,0,3,3,75,1,0,cuban,,,,,,,,,,,,,,,,,,,,,,,,,,,,,,,,,,,,,,,,,,,,,,,,,,,,,,,,
,,,,,,,,,60c8467d9872c0d83f695499,Spanish,13 or older,"no, only English or Spanish",no,2025-07-22_20h49.41.548,empathy_intonation_perc,2024.2.4,Win32,60.24096386,60c8467d9872c0d83f695499,687ed1b7e638a4cbf2f02089,68803162e4188473187ba793,,,,,,,,,,,,,10,1,,./stim/wavs/cuban_match_interrogative-total-yn_Maria-bebe-el-vino.wav,,,,,,,,,,,,,,,,,,,,,,212.4694,214.6073,0,0,1.618,,0,4,4,9,1,1,cuban,,,,,,,,,,,,,,,,,,,,,,,,,,,,,,,,,,,,,,,,,,,,,,,,,,,,,,,,
,,,,,,,,,60c8467d9872c0d83f695499,Spanish,13 or older,"no, only English or Spanish",no,2025-07-22_20h49.41.548,empathy_intonation_perc,2024.2.4,Win32,60.24096386,60c8467d9872c0d83f695499,687ed1b7e638a4cbf2f02089,68803162e4188473187ba793,,,,,,,,,,,,,8,1,,./stim/wavs/cuban_match_interrogative-total-yn_Daniel-iba-a-Bolivia.wav,,,,,,,,,,,,,,,,,,,,,,214.6094,216.7488,0,0,1.6072,,0,5,5,7,1,1,cuban,,,,,,,,,,,,,,,,,,,,,,,,,,,,,,,,,,,,,,,,,,,,,,,,,,,,,,,,
,,,,,,,,,60c8467d9872c0d83f695499,Spanish,13 or older,"no, only English or Spanish",no,2025-07-22_20h49.41.548,empathy_intonation_perc,2024.2.4,Win32,60.24096386,60c8467d9872c0d83f695499,687ed1b7e638a4cbf2f02089,68803162e4188473187ba793,,,,,,,,,,,,,81,0,,./stim/wavs/mexican_mismatch_declarative-broad-focus_La-maestra-vive-en-Paris.wav,,,,,,,,,,,,,,,,,,,,,,216.7501,219.0606,0,1,1.7871,,0,6,6,80,1,0,mexican,,,,,,,,,,,,,,,,,,,,,,,,,,,,,,,,,,,,,,,,,,,,,,,,,,,,,,,,
,,,,,,,,,60c8467d9872c0d83f695499,Spanish,13 or older,"no, only English or Spanish",no,2025-07-22_20h49.41.548,empathy_intonation_perc,2024.2.4,Win32,60.24096386,60c8467d9872c0d83f695499,687ed1b7e638a4cbf2f02089,68803162e4188473187ba793,,,,,,,,,,,,,34,1,,./stim/wavs/cuban_mismatch_interrogative-total-yn_Mi-tia-odia-la-lluvia.wav,,,,,,,,,,,,,,,,,,,,,,219.0613,221.2269,1,1,1.646,,0,7,7,33,1,1,cuban,,,,,,,,,,,,,,,,,,,,,,,,,,,,,,,,,,,,,,,,,,,,,,,,,,,,,,,,
,,,,,,,,,60c8467d9872c0d83f695499,Spanish,13 or older,"no, only English or Spanish",no,2025-07-22_20h49.41.548,empathy_intonation_perc,2024.2.4,Win32,60.24096386,60c8467d9872c0d83f695499,687ed1b7e638a4cbf2f02089,68803162e4188473187ba793,,,,,,,,,,,,,62,0,,./stim/wavs/mexican_match_declarative-broad-focus_Marta-abre-el-regalo.wav,,,,,,,,,,,,,,,,,,,,,,221.2284,223.3581,0,1,1.5794,,0,8,8,61,1,0,mexican,,,,,,,,,,,,,,,,,,,,,,,,,,,,,,,,,,,,,,,,,,,,,,,,,,,,,,,,
,,,,,,,,,60c8467d9872c0d83f695499,Spanish,13 or older,"no, only English or Spanish",no,2025-07-22_20h49.41.548,empathy_intonation_perc,2024.2.4,Win32,60.24096386,60c8467d9872c0d83f695499,687ed1b7e638a4cbf2f02089,68803162e4188473187ba793,,,,,,,,,,,,,26,1,,./stim/wavs/castilian_mismatch_interrogative-total-yn_La-nina-lava-el-plato.wav,,,,,,,,,,,,,,,,,,,,,,223.3598,225.6258,1,1,1.7353,,0,9,9,25,1,0,castilian,,,,,,,,,,,,,,,,,,,,,,,,,,,,,,,,,,,,,,,,,,,,,,,,,,,,,,,,
,,,,,,,,,60c8467d9872c0d83f695499,Spanish,13 or older,"no, only English or Spanish",no,2025-07-22_20h49.41.548,empathy_intonation_perc,2024.2.4,Win32,60.24096386,60c8467d9872c0d83f695499,687ed1b7e638a4cbf2f02089,68803162e4188473187ba793,,,,,,,,,,,,,45,0,,./stim/wavs/castilian_match_declarative-broad-focus_David-leia-el-libro.wav,,,,,,,,,,,,,,,,,,,,,,225.6264,227.94,0,1,1.7815,,0,10,10,44,1,0,castilian,,,,,,,,,,,,,,,,,,,,,,,,,,,,,,,,,,,,,,,,,,,,,,,,,,,,,,,,
,,,,,,,,,60c8467d9872c0d83f695499,Spanish,13 or older,"no, only English or Spanish",no,2025-07-22_20h49.41.548,empathy_intonation_perc,2024.2.4,Win32,60.24096386,60c8467d9872c0d83f695499,687ed1b7e638a4cbf2f02089,68803162e4188473187ba793,,,,,,,,,,,,,39,1,,./stim/wavs/mexican_mismatch_interrogative-total-yn_Mi-tia-odia-la-lluvia.wav,,,,,,,,,,,,,,,,,,,,,,227.9418,229.9298,1,1,1.4469,,0,11,11,38,1,0,mexican,,,,,,,,,,,,,,,,,,,,,,,,,,,,,,,,,,,,,,,,,,,,,,,,,,,,,,,,
,,,,,,,,,60c8467d9872c0d83f695499,Spanish,13 or older,"no, only English or Spanish",no,2025-07-22_20h49.41.548,empathy_intonation_perc,2024.2.4,Win32,60.24096386,60c8467d9872c0d83f695499,687ed1b7e638a4cbf2f02089,68803162e4188473187ba793,,,,,,,,,,,,,48,0,,./stim/wavs/castilian_match_declarative-broad-focus_Maria-bebe-el-vino.wav,,,,,,,,,,,,,,,,,,,,,,229.9314,232.1103,0,1,1.6571,,0,12,12,47,1,0,castilian,,,,,,,,,,,,,,,,,,,,,,,,,,,,,,,,,,,,,,,,,,,,,,,,,,,,,,,,
,,,,,,,,,60c8467d9872c0d83f695499,Spanish,13 or older,"no, only English or Spanish",no,2025-07-22_20h49.41.548,empathy_intonation_perc,2024.2.4,Win32,60.24096386,60c8467d9872c0d83f695499,687ed1b7e638a4cbf2f02089,68803162e4188473187ba793,,,,,,,,,,,,,41,1,,./stim/wavs/puertorican_mismatch_interrogative-total-yn_El-nino-oye-el-rio.wav,,,,,,,,,,,,,,,,,,,,,,232.1115,234.1564,0,0,1.5255,,0,13,13,40,1,1,puertorican,,,,,,,,,,,,,,,,,,,,,,,,,,,,,,,,,,,,,,,,,,,,,,,,,,,,,,,,
,,,,,,,,,60c8467d9872c0d83f695499,Spanish,13 or older,"no, only English or Spanish",no,2025-07-22_20h49.41.548,empathy_intonation_perc,2024.2.4,Win32,60.24096386,60c8467d9872c0d83f695499,687ed1b7e638a4cbf2f02089,68803162e4188473187ba793,,,,,,,,,,,,,17,1,,./stim/wavs/mexican_match_interrogative-total-yn_Mariano-habla-del-tiempo.wav,,,,,,,,,,,,,,,,,,,,,,234.1582,236.3421,1,1,1.6563,,0,14,14,16,1,0,mexican,,,,,,,,,,,,,,,,,,,,,,,,,,,,,,,,,,,,,,,,,,,,,,,,,,,,,,,,
,,,,,,,,,60c8467d9872c0d83f695499,Spanish,13 or older,"no, only English or Spanish",no,2025-07-22_20h49.41.548,empathy_intonation_perc,2024.2.4,Win32,60.24096386,60c8467d9872c0d83f695499,687ed1b7e638a4cbf2f02089,68803162e4188473187ba793,,,,,,,,,,,,,37,1,,./stim/wavs/mexican_mismatch_interrogative-total-yn_La-maestra-vive-en-Paris.wav,,,,,,,,,,,,,,,,,,,,,,236.3436,238.6274,1,1,1.7421,,0,15,15,36,1,0,mexican,,,,,,,,,,,,,,,,,,,,,,,,,,,,,,,,,,,,,,,,,,,,,,,,,,,,,,,,
,,,,,,,,,60c8467d9872c0d83f695499,Spanish,13 or older,"no, only English or Spanish",no,2025-07-22_20h49.41.548,empathy_intonation_perc,2024.2.4,Win32,60.24096386,60c8467d9872c0d83f695499,687ed1b7e638a4cbf2f02089,68803162e4188473187ba793,,,,,,,,,,,,,28,1,,./stim/wavs/castilian_mismatch_interrogative-total-yn_Mi-novio-viene-del-lago.wav,,,,,,,,,,,,,,,,,,,,,,238.6294,240.9556,1,1,1.8108,,0,16,16,27,1,0,castilian,,,,,,,,,,,,,,,,,,,,,,,,,,,,,,,,,,,,,,,,,,,,,,,,,,,,,,,,
,,,,,,,,,60c8467d9872c0d83f695499,Spanish,13 or older,"no, only English or Spanish",no,2025-07-22_20h49.41.548,empathy_intonation_perc,2024.2.4,Win32,60.24096386,60c8467d9872c0d83f695499,687ed1b7e638a4cbf2f02089,68803162e4188473187ba793,,,,,,,,,,,,,38,1,,./stim/wavs/mexican_mismatch_interrogative-total-yn_Mi-novio-viene-del-lago.wav,,,,,,,,,,,,,,,,,,,,,,240.9575,243.0702,1,1,1.5693,,0,17,17,37,1,0,mexican,,,,,,,,,,,,,,,,,,,,,,,,,,,,,,,,,,,,,,,,,,,,,,,,,,,,,,,,
,,,,,,,,,60c8467d9872c0d83f695499,Spanish,13 or older,"no, only English or Spanish",no,2025-07-22_20h49.41.548,empathy_intonation_perc,2024.2.4,Win32,60.24096386,60c8467d9872c0d83f695499,687ed1b7e638a4cbf2f02089,68803162e4188473187ba793,,,,,,,,,,,,,69,0,,./stim/wavs/castilian_mismatch_declarative-broad-focus_El-nino-oye-el-rio.wav,,,,,,,,,,,,,,,,,,,,,,243.0714,245.806,0,1,2.1901,,0,18,18,68,1,0,castilian,,,,,,,,,,,,,,,,,,,,,,,,,,,,,,,,,,,,,,,,,,,,,,,,,,,,,,,,
,,,,,,,,,60c8467d9872c0d83f695499,Spanish,13 or older,"no, only English or Spanish",no,2025-07-22_20h49.41.548,empathy_intonation_perc,2024.2.4,Win32,60.24096386,60c8467d9872c0d83f695499,687ed1b7e638a4cbf2f02089,68803162e4188473187ba793,,,,,,,,,,,,,7,1,,./stim/wavs/cuban_match_interrogative-total-yn_Ana-lleva-el-abrigo.wav,,,,,,,,,,,,,,,,,,,,,,245.8076,247.919,0,0,1.593,,0,19,19,6,1,1,cuban,,,,,,,,,,,,,,,,,,,,,,,,,,,,,,,,,,,,,,,,,,,,,,,,,,,,,,,,
,,,,,,,,,60c8467d9872c0d83f695499,Spanish,13 or older,"no, only English or Spanish",no,2025-07-22_20h49.41.548,empathy_intonation_perc,2024.2.4,Win32,60.24096386,60c8467d9872c0d83f695499,687ed1b7e638a4cbf2f02089,68803162e4188473187ba793,,,,,,,,,,,,,15,1,,./stim/wavs/mexican_match_interrogative-total-yn_David-leia-el-libro.wav,,,,,,,,,,,,,,,,,,,,,,247.9199,249.9583,1,1,1.5112,,0,20,20,14,1,0,mexican,,,,,,,,,,,,,,,,,,,,,,,,,,,,,,,,,,,,,,,,,,,,,,,,,,,,,,,,
,,,,,,,,,60c8467d9872c0d83f695499,Spanish,13 or older,"no, only English or Spanish",no,2025-07-22_20h49.41.548,empathy_intonation_perc,2024.2.4,Win32,60.24096386,60c8467d9872c0d83f695499,687ed1b7e638a4cbf2f02089,68803162e4188473187ba793,,,,,,,,,,,,,84,0,,./stim/wavs/puertorican_mismatch_declarative-broad-focus_El-bebe-comia-muy-bien.wav,,,,,,,,,,,,,,,,,,,,,,249.9597,252.0739,0,1,1.5932,,0,21,21,83,1,0,puertorican,,,,,,,,,,,,,,,,,,,,,,,,,,,,,,,,,,,,,,,,,,,,,,,,,,,,,,,,
,,,,,,,,,60c8467d9872c0d83f695499,Spanish,13 or older,"no, only English or Spanish",no,2025-07-22_20h49.41.548,empathy_intonation_perc,2024.2.4,Win32,60.24096386,60c8467d9872c0d83f695499,687ed1b7e638a4cbf2f02089,68803162e4188473187ba793,,,,,,,,,,,,,13,1,,./stim/wavs/mexican_match_interrogative-total-yn_Ana-lleva-el-abrigo.wav,,,,,,,,,,,,,,,,,,,,,,252.0754,254.0364,1,1,1.4451,,0,22,22,12,1,0,mexican,,,,,,,,,,,,,,,,,,,,,,,,,,,,,,,,,,,,,,,,,,,,,,,,,,,,,,,,
,,,,,,,,,60c8467d9872c0d83f695499,Spanish,13 or older,"no, only English or Spanish",no,2025-07-22_20h49.41.548,empathy_intonation_perc,2024.2.4,Win32,60.24096386,60c8467d9872c0d83f695499,687ed1b7e638a4cbf2f02089,68803162e4188473187ba793,,,,,,,,,,,,,44,1,,./stim/wavs/puertorican_mismatch_interrogative-total-yn_Mi-madre-come-la-fruta.wav,,,,,,,,,,,,,,,,,,,,,,254.0377,256.2192,0,0,1.6466,,0,23,23,43,1,1,puertorican,,,,,,,,,,,,,,,,,,,,,,,,,,,,,,,,,,,,,,,,,,,,,,,,,,,,,,,,
,,,,,,,,,60c8467d9872c0d83f695499,Spanish,13 or older,"no, only English or Spanish",no,2025-07-22_20h49.41.548,empathy_intonation_perc,2024.2.4,Win32,60.24096386,60c8467d9872c0d83f695499,687ed1b7e638a4cbf2f02089,68803162e4188473187ba793,,,,,,,,,,,,,86,0,,./stim/wavs/puertorican_mismatch_declarative-broad-focus_El-nino-oye-el-rio.wav,,,,,,,,,,,,,,,,,,,,,,256.2205,258.269,0,1,1.5285,,0,24,24,85,1,0,puertorican,,,,,,,,,,,,,,,,,,,,,,,,,,,,,,,,,,,,,,,,,,,,,,,,,,,,,,,,
,,,,,,,,,60c8467d9872c0d83f695499,Spanish,13 or older,"no, only English or Spanish",no,2025-07-22_20h49.41.548,empathy_intonation_perc,2024.2.4,Win32,60.24096386,60c8467d9872c0d83f695499,687ed1b7e638a4cbf2f02089,68803162e4188473187ba793,,,,,,,,,,,,,88,0,,./stim/wavs/puertorican_mismatch_declarative-broad-focus_La-nina-lava-el-plato.wav,,,,,,,,,,,,,,,,,,,,,,258.2704,260.2306,0,1,1.4418,,0,25,25,87,1,0,puertorican,,,,,,,,,,,,,,,,,,,,,,,,,,,,,,,,,,,,,,,,,,,,,,,,,,,,,,,,
,,,,,,,,,60c8467d9872c0d83f695499,Spanish,13 or older,"no, only English or Spanish",no,2025-07-22_20h49.41.548,empathy_intonation_perc,2024.2.4,Win32,60.24096386,60c8467d9872c0d83f695499,687ed1b7e638a4cbf2f02089,68803162e4188473187ba793,,,,,,,,,,,,,42,1,,./stim/wavs/puertorican_mismatch_interrogative-total-yn_La-maestra-vive-en-Paris.wav,,,,,,,,,,,,,,,,,,,,,,260.2317,262.4193,0,0,1.6622,,0,26,26,41,1,1,puertorican,,,,,,,,,,,,,,,,,,,,,,,,,,,,,,,,,,,,,,,,,,,,,,,,,,,,,,,,
,,,,,,,,,60c8467d9872c0d83f695499,Spanish,13 or older,"no, only English or Spanish",no,2025-07-22_20h49.41.548,empathy_intonation_perc,2024.2.4,Win32,60.24096386,60c8467d9872c0d83f695499,687ed1b7e638a4cbf2f02089,68803162e4188473187ba793,,,,,,,,,,,,,20,1,,./stim/wavs/puertorican_match_interrogative-total-yn_Daniel-iba-a-Bolivia.wav,,,,,,,,,,,,,,,,,,,,,,262.4205,264.5142,0,0,1.558,,0,27,27,19,1,1,puertorican,,,,,,,,,,,,,,,,,,,,,,,,,,,,,,,,,,,,,,,,,,,,,,,,,,,,,,,,
,,,,,,,,,60c8467d9872c0d83f695499,Spanish,13 or older,"no, only English or Spanish",no,2025-07-22_20h49.41.548,empathy_intonation_perc,2024.2.4,Win32,60.24096386,60c8467d9872c0d83f695499,687ed1b7e638a4cbf2f02089,68803162e4188473187ba793,,,,,,,,,,,,,77,0,,./stim/wavs/cuban_mismatch_declarative-broad-focus_Mi-novio-viene-del-lago.wav,,,,,,,,,,,,,,,,,,,,,,264.5154,266.7489,0,1,1.6888,,0,28,28,76,1,0,cuban,,,,,,,,,,,,,,,,,,,,,,,,,,,,,,,,,,,,,,,,,,,,,,,,,,,,,,,,
,,,,,,,,,60c8467d9872c0d83f695499,Spanish,13 or older,"no, only English or Spanish",no,2025-07-22_20h49.41.548,empathy_intonation_perc,2024.2.4,Win32,60.24096386,60c8467d9872c0d83f695499,687ed1b7e638a4cbf2f02089,68803162e4188473187ba793,,,,,,,,,,,,,80,0,,./stim/wavs/mexican_mismatch_declarative-broad-focus_El-hombre-mira-la-luna.wav,,,,,,,,,,,,,,,,,,,,,,266.7505,268.8049,0,1,1.5298,,0,29,29,79,1,0,mexican,,,,,,,,,,,,,,,,,,,,,,,,,,,,,,,,,,,,,,,,,,,,,,,,,,,,,,,,
,,,,,,,,,60c8467d9872c0d83f695499,Spanish,13 or older,"no, only English or Spanish",no,2025-07-22_20h49.41.548,empathy_intonation_perc,2024.2.4,Win32,60.24096386,60c8467d9872c0d83f695499,687ed1b7e638a4cbf2f02089,68803162e4188473187ba793,,,,,,,,,,,,,46,0,,./stim/wavs/castilian_match_declarative-broad-focus_Emilio-ama-la-marcha.wav,,,,,,,,,,,,,,,,,,,,,,268.8068,270.9793,0,1,1.6512,,0,30,30,45,1,0,castilian,,,,,,,,,,,,,,,,,,,,,,,,,,,,,,,,,,,,,,,,,,,,,,,,,,,,,,,,
,,,,,,,,,60c8467d9872c0d83f695499,Spanish,13 or older,"no, only English or Spanish",no,2025-07-22_20h49.41.548,empathy_intonation_perc,2024.2.4,Win32,60.24096386,60c8467d9872c0d83f695499,687ed1b7e638a4cbf2f02089,68803162e4188473187ba793,,,,,,,,,,,,,36,1,,./stim/wavs/mexican_mismatch_interrogative-total-yn_El-nino-oye-el-rio.wav,,,,,,,,,,,,,,,,,,,,,,270.9801,273.013,1,1,1.5059,,0,31,31,35,1,0,mexican,,,,,,,,,,,,,,,,,,,,,,,,,,,,,,,,,,,,,,,,,,,,,,,,,,,,,,,,
,,,,,,,,,60c8467d9872c0d83f695499,Spanish,13 or older,"no, only English or Spanish",no,2025-07-22_20h49.41.548,empathy_intonation_perc,2024.2.4,Win32,60.24096386,60c8467d9872c0d83f695499,687ed1b7e638a4cbf2f02089,68803162e4188473187ba793,,,,,,,,,,,,,9,1,,./stim/wavs/cuban_match_interrogative-total-yn_Manuela-vende-el-carro.wav,,,,,,,,,,,,,,,,,,,,,,273.0145,274.9927,0,0,1.4572,,0,32,32,8,1,1,cuban,,,,,,,,,,,,,,,,,,,,,,,,,,,,,,,,,,,,,,,,,,,,,,,,,,,,,,,,
,,,,,,,,,60c8467d9872c0d83f695499,Spanish,13 or older,"no, only English or Spanish",no,2025-07-22_20h49.41.548,empathy_intonation_perc,2024.2.4,Win32,60.24096386,60c8467d9872c0d83f695499,687ed1b7e638a4cbf2f02089,68803162e4188473187ba793,,,,,,,,,,,,,49,0,,./stim/wavs/castilian_match_declarative-broad-focus_Mariano-habla-del-tiempo.wav,,,,,,,,,,,,,,,,,,,,,,274.9936,277.0673,0,1,1.5434,,0,33,33,48,1,0,castilian,,,,,,,,,,,,,,,,,,,,,,,,,,,,,,,,,,,,,,,,,,,,,,,,,,,,,,,,
,,,,,,,,,60c8467d9872c0d83f695499,Spanish,13 or older,"no, only English or Spanish",no,2025-07-22_20h49.41.548,empathy_intonation_perc,2024.2.4,Win32,60.24096386,60c8467d9872c0d83f695499,687ed1b7e638a4cbf2f02089,68803162e4188473187ba793,,,,,,,,,,,,,57,0,,./stim/wavs/mexican_match_declarative-broad-focus_Ana-lleva-el-abrigo.wav,,,,,,,,,,,,,,,,,,,,,,277.0691,279.0912,0,1,1.5023,,0,34,34,56,1,0,mexican,,,,,,,,,,,,,,,,,,,,,,,,,,,,,,,,,,,,,,,,,,,,,,,,,,,,,,,,
,,,,,,,,,60c8467d9872c0d83f695499,Spanish,13 or older,"no, only English or Spanish",no,2025-07-22_20h49.41.548,empathy_intonation_perc,2024.2.4,Win32,60.24096386,60c8467d9872c0d83f695499,687ed1b7e638a4cbf2f02089,68803162e4188473187ba793,,,,,,,,,,,,,35,1,,./stim/wavs/mexican_mismatch_interrogative-total-yn_El-hombre-mira-la-luna.wav,,,,,,,,,,,,,,,,,,,,,,279.0922,281.3449,1,1,1.7237,,0,35,35,34,1,0,mexican,,,,,,,,,,,,,,,,,,,,,,,,,,,,,,,,,,,,,,,,,,,,,,,,,,,,,,,,
,,,,,,,,,60c8467d9872c0d83f695499,Spanish,13 or older,"no, only English or Spanish",no,2025-07-22_20h49.41.548,empathy_intonation_perc,2024.2.4,Win32,60.24096386,60c8467d9872c0d83f695499,687ed1b7e638a4cbf2f02089,68803162e4188473187ba793,,,,,,,,,,,,,23,1,,./stim/wavs/puertorican_match_interrogative-total-yn_Manuela-vende-el-carro.wav,,,,,,,,,,,,,,,,,,,,,,281.3462,283.3609,0,0,1.495,,0,36,36,22,1,1,puertorican,,,,,,,,,,,,,,,,,,,,,,,,,,,,,,,,,,,,,,,,,,,,,,,,,,,,,,,,
,,,,,,,,,60c8467d9872c0d83f695499,Spanish,13 or older,"no, only English or Spanish",no,2025-07-22_20h49.41.548,empathy_intonation_perc,2024.2.4,Win32,60.24096386,60c8467d9872c0d83f695499,687ed1b7e638a4cbf2f02089,68803162e4188473187ba793,,,,,,,,,,,,,27,1,,./stim/wavs/castilian_mismatch_interrogative-total-yn_Mi-madre-come-la-fruta.wav,,,,,,,,,,,,,,,,,,,,,,283.3619,285.8935,0,0,2.0123,,0,37,37,26,1,0,castilian,,,,,,,,,,,,,,,,,,,,,,,,,,,,,,,,,,,,,,,,,,,,,,,,,,,,,,,,
,,,,,,,,,60c8467d9872c0d83f695499,Spanish,13 or older,"no, only English or Spanish",no,2025-07-22_20h49.41.548,empathy_intonation_perc,2024.2.4,Win32,60.24096386,60c8467d9872c0d83f695499,687ed1b7e638a4cbf2f02089,68803162e4188473187ba793,,,,,,,,,,,,,16,1,,./stim/wavs/mexican_match_interrogative-total-yn_Emilio-ama-la-marcha.wav,,,,,,,,,,,,,,,,,,,,,,285.8946,288.0146,1,1,1.5983,,0,38,38,15,1,0,mexican,,,,,,,,,,,,,,,,,,,,,,,,,,,,,,,,,,,,,,,,,,,,,,,,,,,,,,,,
,,,,,,,,,60c8467d9872c0d83f695499,Spanish,13 or older,"no, only English or Spanish",no,2025-07-22_20h49.41.548,empathy_intonation_perc,2024.2.4,Win32,60.24096386,60c8467d9872c0d83f695499,687ed1b7e638a4cbf2f02089,68803162e4188473187ba793,,,,,,,,,,,,,78,0,,./stim/wavs/cuban_mismatch_declarative-broad-focus_Mi-tia-odia-la-lluvia.wav,,,,,,,,,,,,,,,,,,,,,,288.0157,290.2997,0,1,1.769,,0,39,39,77,1,0,cuban,,,,,,,,,,,,,,,,,,,,,,,,,,,,,,,,,,,,,,,,,,,,,,,,,,,,,,,,
,,,,,,,,,60c8467d9872c0d83f695499,Spanish,13 or older,"no, only English or Spanish",no,2025-07-22_20h49.41.548,empathy_intonation_perc,2024.2.4,Win32,60.24096386,60c8467d9872c0d83f695499,687ed1b7e638a4cbf2f02089,68803162e4188473187ba793,,,,,,,,,,,,,82,0,,./stim/wavs/mexican_mismatch_declarative-broad-focus_Mi-novio-viene-del-lago.wav,,,,,,,,,,,,,,,,,,,,,,290.3011,292.3412,0,1,1.5217,,0,40,40,81,1,0,mexican,,,,,,,,,,,,,,,,,,,,,,,,,,,,,,,,,,,,,,,,,,,,,,,,,,,,,,,,
,,,,,,,,,60c8467d9872c0d83f695499,Spanish,13 or older,"no, only English or Spanish",no,2025-07-22_20h49.41.548,empathy_intonation_perc,2024.2.4,Win32,60.24096386,60c8467d9872c0d83f695499,687ed1b7e638a4cbf2f02089,68803162e4188473187ba793,,,,,,,,,,,,,60,0,,./stim/wavs/mexican_match_declarative-broad-focus_Emilio-ama-la-marcha.wav,,,,,,,,,,,,,,,,,,,,,,292.3424,294.6602,0,1,1.7963,,0,41,41,59,1,0,mexican,,,,,,,,,,,,,,,,,,,,,,,,,,,,,,,,,,,,,,,,,,,,,,,,,,,,,,,,
,,,,,,,,,60c8467d9872c0d83f695499,Spanish,13 or older,"no, only English or Spanish",no,2025-07-22_20h49.41.548,empathy_intonation_perc,2024.2.4,Win32,60.24096386,60c8467d9872c0d83f695499,687ed1b7e638a4cbf2f02089,68803162e4188473187ba793,,,,,,,,,,,,,14,1,,./stim/wavs/mexican_match_interrogative-total-yn_Daniel-iba-a-Bolivia.wav,,,,,,,,,,,,,,,,,,,,,,294.6613,296.7715,1,1,1.5795,,0,42,42,13,1,0,mexican,,,,,,,,,,,,,,,,,,,,,,,,,,,,,,,,,,,,,,,,,,,,,,,,,,,,,,,,
,,,,,,,,,60c8467d9872c0d83f695499,Spanish,13 or older,"no, only English or Spanish",no,2025-07-22_20h49.41.548,empathy_intonation_perc,2024.2.4,Win32,60.24096386,60c8467d9872c0d83f695499,687ed1b7e638a4cbf2f02089,68803162e4188473187ba793,,,,,,,,,,,,,33,1,,./stim/wavs/cuban_mismatch_interrogative-total-yn_Mi-novio-viene-del-lago.wav,,,,,,,,,,,,,,,,,,,,,,296.7724,299.3716,0,0,2.087,,0,43,43,32,1,1,cuban,,,,,,,,,,,,,,,,,,,,,,,,,,,,,,,,,,,,,,,,,,,,,,,,,,,,,,,,
,,,,,,,,,60c8467d9872c0d83f695499,Spanish,13 or older,"no, only English or Spanish",no,2025-07-22_20h49.41.548,empathy_intonation_perc,2024.2.4,Win32,60.24096386,60c8467d9872c0d83f695499,687ed1b7e638a4cbf2f02089,68803162e4188473187ba793,,,,,,,,,,,,,47,0,,./stim/wavs/castilian_match_declarative-broad-focus_Manuela-vende-el-carro.wav,,,,,,,,,,,,,,,,,,,,,,299.373,301.77,0,1,1.87,,0,44,44,46,1,0,castilian,,,,,,,,,,,,,,,,,,,,,,,,,,,,,,,,,,,,,,,,,,,,,,,,,,,,,,,,
,,,,,,,,,60c8467d9872c0d83f695499,Spanish,13 or older,"no, only English or Spanish",no,2025-07-22_20h49.41.548,empathy_intonation_perc,2024.2.4,Win32,60.24096386,60c8467d9872c0d83f695499,687ed1b7e638a4cbf2f02089,68803162e4188473187ba793,,,,,,,,,,,,,25,1,,./stim/wavs/castilian_mismatch_interrogative-total-yn_La-maestra-vive-en-Paris.wav,,,,,,,,,,,,,,,,,,,,,,301.7706,304.2063,1,1,1.906,,0,45,45,24,1,0,castilian,,,,,,,,,,,,,,,,,,,,,,,,,,,,,,,,,,,,,,,,,,,,,,,,,,,,,,,,
,,,,,,,,,60c8467d9872c0d83f695499,Spanish,13 or older,"no, only English or Spanish",no,2025-07-22_20h49.41.548,empathy_intonation_perc,2024.2.4,Win32,60.24096386,60c8467d9872c0d83f695499,687ed1b7e638a4cbf2f02089,68803162e4188473187ba793,,,,,,,,,,,,,32,1,,./stim/wavs/cuban_mismatch_interrogative-total-yn_Mi-madre-come-la-fruta.wav,,,,,,,,,,,,,,,,,,,,,,304.2073,306.4213,0,0,1.6895,,0,46,46,31,1,1,cuban,,,,,,,,,,,,,,,,,,,,,,,,,,,,,,,,,,,,,,,,,,,,,,,,,,,,,,,,
,,,,,,,,,60c8467d9872c0d83f695499,Spanish,13 or older,"no, only English or Spanish",no,2025-07-22_20h49.41.548,empathy_intonation_perc,2024.2.4,Win32,60.24096386,60c8467d9872c0d83f695499,687ed1b7e638a4cbf2f02089,68803162e4188473187ba793,,,,,,,,,,,,,2,1,,./stim/wavs/castilian_match_interrogative-total-yn_Emilio-ama-la-marcha.wav,,,,,,,,,,,,,,,,,,,,,,306.4225,308.6417,1,1,1.6935,,0,47,47,1,1,0,castilian,,,,,,,,,,,,,,,,,,,,,,,,,,,,,,,,,,,,,,,,,,,,,,,,,,,,,,,,
,,,,,,,,,60c8467d9872c0d83f695499,Spanish,13 or older,"no, only English or Spanish",no,2025-07-22_20h49.41.548,empathy_intonation_perc,2024.2.4,Win32,60.24096386,60c8467d9872c0d83f695499,687ed1b7e638a4cbf2f02089,68803162e4188473187ba793,,,,,,,,,,,,,73,0,,./stim/wavs/castilian_mismatch_declarative-broad-focus_Mi-tia-odia-la-lluvia.wav,,,,,,,,,,,,,,,,,,,,,,308.6433,310.8197,0,1,1.6414,,0,48,48,72,1,0,castilian,,,,,,,,,,,,,,,,,,,,,,,,,,,,,,,,,,,,,,,,,,,,,,,,,,,,,,,,
,,,,,,,,,60c8467d9872c0d83f695499,Spanish,13 or older,"no, only English or Spanish",no,2025-07-22_20h49.41.548,empathy_intonation_perc,2024.2.4,Win32,60.24096386,60c8467d9872c0d83f695499,687ed1b7e638a4cbf2f02089,68803162e4188473187ba793,,,,,,,,,,,,,5,1,,./stim/wavs/castilian_match_interrogative-total-yn_Mariano-habla-del-tiempo.wav,,,,,,,,,,,,,,,,,,,,,,310.8209,313.1168,1,1,1.7554,,0,49,49,4,1,0,castilian,,,,,,,,,,,,,,,,,,,,,,,,,,,,,,,,,,,,,,,,,,,,,,,,,,,,,,,,
,,,,,,,,,60c8467d9872c0d83f695499,Spanish,13 or older,"no, only English or Spanish",no,2025-07-22_20h49.41.548,empathy_intonation_perc,2024.2.4,Win32,60.24096386,60c8467d9872c0d83f695499,687ed1b7e638a4cbf2f02089,68803162e4188473187ba793,,,,,,,,,,,,,71,0,,./stim/wavs/castilian_mismatch_declarative-broad-focus_La-nina-lava-el-plato.wav,,,,,,,,,,,,,,,,,,,,,,313.1183,315.5582,0,1,1.8976,,0,50,50,70,1,0,castilian,,,,,,,,,,,,,,,,,,,,,,,,,,,,,,,,,,,,,,,,,,,,,,,,,,,,,,,,
,,,,,,,,,60c8467d9872c0d83f695499,Spanish,13 or older,"no, only English or Spanish",no,2025-07-22_20h49.41.548,empathy_intonation_perc,2024.2.4,Win32,60.24096386,60c8467d9872c0d83f695499,687ed1b7e638a4cbf2f02089,68803162e4188473187ba793,,,,,,,,,,,,,56,0,,./stim/wavs/cuban_match_declarative-broad-focus_Marta-abre-el-regalo.wav,,,,,,,,,,,,,,,,,,,,,,315.5598,317.7503,0,1,1.6732,,0,51,51,55,1,0,cuban,,,,,,,,,,,,,,,,,,,,,,,,,,,,,,,,,,,,,,,,,,,,,,,,,,,,,,,,
,,,,,,,,,60c8467d9872c0d83f695499,Spanish,13 or older,"no, only English or Spanish",no,2025-07-22_20h49.41.548,empathy_intonation_perc,2024.2.4,Win32,60.24096386,60c8467d9872c0d83f695499,687ed1b7e638a4cbf2f02089,68803162e4188473187ba793,,,,,,,,,,,,,43,1,,./stim/wavs/puertorican_mismatch_interrogative-total-yn_La-nina-lava-el-plato.wav,,,,,,,,,,,,,,,,,,,,,,317.7512,319.9332,0,0,1.6409,,0,52,52,42,1,1,puertorican,,,,,,,,,,,,,,,,,,,,,,,,,,,,,,,,,,,,,,,,,,,,,,,,,,,,,,,,
,,,,,,,,,60c8467d9872c0d83f695499,Spanish,13 or older,"no, only English or Spanish",no,2025-07-22_20h49.41.548,empathy_intonation_perc,2024.2.4,Win32,60.24096386,60c8467d9872c0d83f695499,687ed1b7e638a4cbf2f02089,68803162e4188473187ba793,,,,,,,,,,,,,54,0,,./stim/wavs/cuban_match_declarative-broad-focus_Maria-bebe-el-vino.wav,,,,,,,,,,,,,,,,,,,,,,319.9345,322.1478,0,1,1.6923,,0,53,53,53,1,0,cuban,,,,,,,,,,,,,,,,,,,,,,,,,,,,,,,,,,,,,,,,,,,,,,,,,,,,,,,,
,,,,,,,,,60c8467d9872c0d83f695499,Spanish,13 or older,"no, only English or Spanish",no,2025-07-22_20h49.41.548,empathy_intonation_perc,2024.2.4,Win32,60.24096386,60c8467d9872c0d83f695499,687ed1b7e638a4cbf2f02089,68803162e4188473187ba793,,,,,,,,,,,,,79,0,,./stim/wavs/mexican_mismatch_declarative-broad-focus_El-bebe-comia-muy-bien.wav,,,,,,,,,,,,,,,,,,,,,,322.1491,324.3274,0,1,1.6645,,0,54,54,78,1,0,mexican,,,,,,,,,,,,,,,,,,,,,,,,,,,,,,,,,,,,,,,,,,,,,,,,,,,,,,,,
,,,,,,,,,60c8467d9872c0d83f695499,Spanish,13 or older,"no, only English or Spanish",no,2025-07-22_20h49.41.548,empathy_intonation_perc,2024.2.4,Win32,60.24096386,60c8467d9872c0d83f695499,687ed1b7e638a4cbf2f02089,68803162e4188473187ba793,,,,,,,,,,,,,6,1,,./stim/wavs/castilian_match_interrogative-total-yn_Marta-abre-el-regalo.wav,,,,,,,,,,,,,,,,,,,,,,324.3288,326.5953,1,1,1.7362,,0,55,55,5,1,0,castilian,,,,,,,,,,,,,,,,,,,,,,,,,,,,,,,,,,,,,,,,,,,,,,,,,,,,,,,,
,,,,,,,,,60c8467d9872c0d83f695499,Spanish,13 or older,"no, only English or Spanish",no,2025-07-22_20h49.41.548,empathy_intonation_perc,2024.2.4,Win32,60.24096386,60c8467d9872c0d83f695499,687ed1b7e638a4cbf2f02089,68803162e4188473187ba793,,,,,,,,,,,,,55,0,,./stim/wavs/cuban_match_declarative-broad-focus_Mariano-habla-del-tiempo.wav,,,,,,,,,,,,,,,,,,,,,,326.5965,328.8997,0,1,1.7768,,0,56,56,54,1,0,cuban,,,,,,,,,,,,,,,,,,,,,,,,,,,,,,,,,,,,,,,,,,,,,,,,,,,,,,,,
,,,,,,,,,60c8467d9872c0d83f695499,Spanish,13 or older,"no, only English or Spanish",no,2025-07-22_20h49.41.548,empathy_intonation_perc,2024.2.4,Win32,60.24096386,60c8467d9872c0d83f695499,687ed1b7e638a4cbf2f02089,68803162e4188473187ba793,,,,,,,,,,,,,61,0,,./stim/wavs/mexican_match_declarative-broad-focus_Mariano-habla-del-tiempo.wav,,,,,,,,,,,,,,,,,,,,,,328.9011,331.1327,0,1,1.716,,0,57,57,60,1,0,mexican,,,,,,,,,,,,,,,,,,,,,,,,,,,,,,,,,,,,,,,,,,,,,,,,,,,,,,,,
,,,,,,,,,60c8467d9872c0d83f695499,Spanish,13 or older,"no, only English or Spanish",no,2025-07-22_20h49.41.548,empathy_intonation_perc,2024.2.4,Win32,60.24096386,60c8467d9872c0d83f695499,687ed1b7e638a4cbf2f02089,68803162e4188473187ba793,,,,,,,,,,,,,4,1,,./stim/wavs/castilian_match_interrogative-total-yn_Maria-bebe-el-vino.wav,,,,,,,,,,,,,,,,,,,,,,331.1332,333.3848,1,1,1.7129,,0,58,58,3,1,0,castilian,,,,,,,,,,,,,,,,,,,,,,,,,,,,,,,,,,,,,,,,,,,,,,,,,,,,,,,,
,,,,,,,,,60c8467d9872c0d83f695499,Spanish,13 or older,"no, only English or Spanish",no,2025-07-22_20h49.41.548,empathy_intonation_perc,2024.2.4,Win32,60.24096386,60c8467d9872c0d83f695499,687ed1b7e638a4cbf2f02089,68803162e4188473187ba793,,,,,,,,,,,,,12,1,,./stim/wavs/cuban_match_interrogative-total-yn_Marta-abre-el-regalo.wav,,,,,,,,,,,,,,,,,,,,,,333.3861,335.5957,0,0,1.6922,,0,59,59,11,1,1,cuban,,,,,,,,,,,,,,,,,,,,,,,,,,,,,,,,,,,,,,,,,,,,,,,,,,,,,,,,
,,,,,,,,,60c8467d9872c0d83f695499,Spanish,13 or older,"no, only English or Spanish",no,2025-07-22_20h49.41.548,empathy_intonation_perc,2024.2.4,Win32,60.24096386,60c8467d9872c0d83f695499,687ed1b7e638a4cbf2f02089,68803162e4188473187ba793,,,,,,,,,,,,,75,0,,./stim/wavs/cuban_mismatch_declarative-broad-focus_El-hombre-mira-la-luna.wav,,,,,,,,,,,,,,,,,,,,,,335.5968,337.5288,0,1,1.4066,,0,60,60,74,1,0,cuban,,,,,,,,,,,,,,,,,,,,,,,,,,,,,,,,,,,,,,,,,,,,,,,,,,,,,,,,
,,,,,,,,,60c8467d9872c0d83f695499,Spanish,13 or older,"no, only English or Spanish",no,2025-07-22_20h49.41.548,empathy_intonation_perc,2024.2.4,Win32,60.24096386,60c8467d9872c0d83f695499,687ed1b7e638a4cbf2f02089,68803162e4188473187ba793,,,,,,,,,,,,,52,0,,./stim/wavs/cuban_match_declarative-broad-focus_Daniel-iba-a-Bolivia.wav,,,,,,,,,,,,,,,,,,,,,,337.5298,339.7167,0,1,1.6621,,0,61,61,51,1,0,cuban,,,,,,,,,,,,,,,,,,,,,,,,,,,,,,,,,,,,,,,,,,,,,,,,,,,,,,,,
,,,,,,,,,60c8467d9872c0d83f695499,Spanish,13 or older,"no, only English or Spanish",no,2025-07-22_20h49.41.548,empathy_intonation_perc,2024.2.4,Win32,60.24096386,60c8467d9872c0d83f695499,687ed1b7e638a4cbf2f02089,68803162e4188473187ba793,,,,,,,,,,,,,31,1,,./stim/wavs/cuban_mismatch_interrogative-total-yn_El-nino-oye-el-rio.wav,,,,,,,,,,,,,,,,,,,,,,339.7183,341.7989,0,0,1.5461,,0,62,62,30,1,1,cuban,,,,,,,,,,,,,,,,,,,,,,,,,,,,,,,,,,,,,,,,,,,,,,,,,,,,,,,,
,,,,,,,,,60c8467d9872c0d83f695499,Spanish,13 or older,"no, only English or Spanish",no,2025-07-22_20h49.41.548,empathy_intonation_perc,2024.2.4,Win32,60.24096386,60c8467d9872c0d83f695499,687ed1b7e638a4cbf2f02089,68803162e4188473187ba793,,,,,,,,,,,,,1,1,,./stim/wavs/castilian_match_interrogative-total-yn_David-leia-el-libro.wav,,,,,,,,,,,,,,,,,,,,,,341.8004,343.9452,1,1,1.6106,,0,63,63,0,1,0,castilian,,,,,,,,,,,,,,,,,,,,,,,,,,,,,,,,,,,,,,,,,,,,,,,,,,,,,,,,
,,,,,,,,,60c8467d9872c0d83f695499,Spanish,13 or older,"no, only English or Spanish",no,2025-07-22_20h49.41.548,empathy_intonation_perc,2024.2.4,Win32,60.24096386,60c8467d9872c0d83f695499,687ed1b7e638a4cbf2f02089,68803162e4188473187ba793,,,,,,,,,,,,,58,0,,./stim/wavs/mexican_match_declarative-broad-focus_Daniel-iba-a-Bolivia.wav,,,,,,,,,,,,,,,,,,,,,,343.9471,346.0207,0,1,1.5528,,0,64,64,57,1,0,mexican,,,,,,,,,,,,,,,,,,,,,,,,,,,,,,,,,,,,,,,,,,,,,,,,,,,,,,,,
,,,,,,,,,60c8467d9872c0d83f695499,Spanish,13 or older,"no, only English or Spanish",no,2025-07-22_20h49.41.548,empathy_intonation_perc,2024.2.4,Win32,60.24096386,60c8467d9872c0d83f695499,687ed1b7e638a4cbf2f02089,68803162e4188473187ba793,,,,,,,,,,,,,3,1,,./stim/wavs/castilian_match_interrogative-total-yn_Manuela-vende-el-carro.wav,,,,,,,,,,,,,,,,,,,,,,346.0218,348.3391,1,1,1.7951,,0,65,65,2,1,0,castilian,,,,,,,,,,,,,,,,,,,,,,,,,,,,,,,,,,,,,,,,,,,,,,,,,,,,,,,,
,,,,,,,,,60c8467d9872c0d83f695499,Spanish,13 or older,"no, only English or Spanish",no,2025-07-22_20h49.41.548,empathy_intonation_perc,2024.2.4,Win32,60.24096386,60c8467d9872c0d83f695499,687ed1b7e638a4cbf2f02089,68803162e4188473187ba793,,,,,,,,,,,,,19,1,,./stim/wavs/puertorican_match_interrogative-total-yn_Ana-lleva-el-abrigo.wav,,,,,,,,,,,,,,,,,,,,,,348.3404,350.8744,1,1,2.0046,,0,66,66,18,1,1,puertorican,,,,,,,,,,,,,,,,,,,,,,,,,,,,,,,,,,,,,,,,,,,,,,,,,,,,,,,,
,,,,,,,,,60c8467d9872c0d83f695499,Spanish,13 or older,"no, only English or Spanish",no,2025-07-22_20h49.41.548,empathy_intonation_perc,2024.2.4,Win32,60.24096386,60c8467d9872c0d83f695499,687ed1b7e638a4cbf2f02089,68803162e4188473187ba793,,,,,,,,,,,,,50,0,,./stim/wavs/castilian_match_declarative-broad-focus_Marta-abre-el-regalo.wav,,,,,,,,,,,,,,,,,,,,,,350.8759,353.1563,0,1,1.7484,,0,67,67,49,1,0,castilian,,,,,,,,,,,,,,,,,,,,,,,,,,,,,,,,,,,,,,,,,,,,,,,,,,,,,,,,
,,,,,,,,,60c8467d9872c0d83f695499,Spanish,13 or older,"no, only English or Spanish",no,2025-07-22_20h49.41.548,empathy_intonation_perc,2024.2.4,Win32,60.24096386,60c8467d9872c0d83f695499,687ed1b7e638a4cbf2f02089,68803162e4188473187ba793,,,,,,,,,,,,,67,0,,./stim/wavs/puertorican_match_declarative-broad-focus_Manuela-vende-el-carro.wav,,,,,,,,,,,,,,,,,,,,,,353.1577,355.4951,0,1,1.8186,,0,68,68,66,1,0,puertorican,,,,,,,,,,,,,,,,,,,,,,,,,,,,,,,,,,,,,,,,,,,,,,,,,,,,,,,,
,,,,,,,,,60c8467d9872c0d83f695499,Spanish,13 or older,"no, only English or Spanish",no,2025-07-22_20h49.41.548,empathy_intonation_perc,2024.2.4,Win32,60.24096386,60c8467d9872c0d83f695499,687ed1b7e638a4cbf2f02089,68803162e4188473187ba793,,,,,,,,,,,,,59,0,,./stim/wavs/mexican_match_declarative-broad-focus_David-leia-el-libro.wav,,,,,,,,,,,,,,,,,,,,,,355.496,357.8425,0,1,1.8108,,0,69,69,58,1,0,mexican,,,,,,,,,,,,,,,,,,,,,,,,,,,,,,,,,,,,,,,,,,,,,,,,,,,,,,,,
,,,,,,,,,60c8467d9872c0d83f695499,Spanish,13 or older,"no, only English or Spanish",no,2025-07-22_20h49.41.548,empathy_intonation_perc,2024.2.4,Win32,60.24096386,60c8467d9872c0d83f695499,687ed1b7e638a4cbf2f02089,68803162e4188473187ba793,,,,,,,,,,,,,53,0,,./stim/wavs/cuban_match_declarative-broad-focus_Manuela-vende-el-carro.wav,,,,,,,,,,,,,,,,,,,,,,357.8438,360.0055,0,1,1.6309,,0,70,70,52,1,0,cuban,,,,,,,,,,,,,,,,,,,,,,,,,,,,,,,,,,,,,,,,,,,,,,,,,,,,,,,,
,,,,,,,,,60c8467d9872c0d83f695499,Spanish,13 or older,"no, only English or Spanish",no,2025-07-22_20h49.41.548,empathy_intonation_perc,2024.2.4,Win32,60.24096386,60c8467d9872c0d83f695499,687ed1b7e638a4cbf2f02089,68803162e4188473187ba793,,,,,,,,,,,,,21,1,,./stim/wavs/puertorican_match_interrogative-total-yn_David-leia-el-libro.wav,,,,,,,,,,,,,,,,,,,,,,360.0076,362.0868,0,0,1.541,,0,71,71,20,1,1,puertorican,,,,,,,,,,,,,,,,,,,,,,,,,,,,,,,,,,,,,,,,,,,,,,,,,,,,,,,,
,,,,,,,,,60c8467d9872c0d83f695499,Spanish,13 or older,"no, only English or Spanish",no,2025-07-22_20h49.41.548,empathy_intonation_perc,2024.2.4,Win32,60.24096386,60c8467d9872c0d83f695499,687ed1b7e638a4cbf2f02089,68803162e4188473187ba793,,,,,,,,,,,,,65,0,,./stim/wavs/puertorican_match_declarative-broad-focus_David-leia-el-libro.wav,,,,,,,,,,,,,,,,,,,,,,362.0887,364.1115,0,1,1.5006,,0,72,72,64,1,0,puertorican,,,,,,,,,,,,,,,,,,,,,,,,,,,,,,,,,,,,,,,,,,,,,,,,,,,,,,,,
,,,,,,,,,60c8467d9872c0d83f695499,Spanish,13 or older,"no, only English or Spanish",no,2025-07-22_20h49.41.548,empathy_intonation_perc,2024.2.4,Win32,60.24096386,60c8467d9872c0d83f695499,687ed1b7e638a4cbf2f02089,68803162e4188473187ba793,,,,,,,,,,,,,11,1,,./stim/wavs/cuban_match_interrogative-total-yn_Mariano-habla-del-tiempo.wav,,,,,,,,,,,,,,,,,,,,,,364.1138,366.4521,0,0,1.8073,,0,73,73,10,1,1,cuban,,,,,,,,,,,,,,,,,,,,,,,,,,,,,,,,,,,,,,,,,,,,,,,,,,,,,,,,
,,,,,,,,,60c8467d9872c0d83f695499,Spanish,13 or older,"no, only English or Spanish",no,2025-07-22_20h49.41.548,empathy_intonation_perc,2024.2.4,Win32,60.24096386,60c8467d9872c0d83f695499,687ed1b7e638a4cbf2f02089,68803162e4188473187ba793,,,,,,,,,,,,,24,1,,./stim/wavs/puertorican_match_interrogative-total-yn_Maria-bebe-el-vino.wav,,,,,,,,,,,,,,,,,,,,,,366.4533,368.3356,0,0,1.3647,,0,74,74,23,1,1,puertorican,,,,,,,,,,,,,,,,,,,,,,,,,,,,,,,,,,,,,,,,,,,,,,,,,,,,,,,,
,,,,,,,,,60c8467d9872c0d83f695499,Spanish,13 or older,"no, only English or Spanish",no,2025-07-22_20h49.41.548,empathy_intonation_perc,2024.2.4,Win32,60.24096386,60c8467d9872c0d83f695499,687ed1b7e638a4cbf2f02089,68803162e4188473187ba793,,,,,,,,,,,,,72,0,,./stim/wavs/castilian_mismatch_declarative-broad-focus_Mi-novio-viene-del-lago.wav,,,,,,,,,,,,,,,,,,,,,,368.3367,370.4151,0,1,1.5449,,0,75,75,71,1,0,castilian,,,,,,,,,,,,,,,,,,,,,,,,,,,,,,,,,,,,,,,,,,,,,,,,,,,,,,,,
,,,,,,,,,60c8467d9872c0d83f695499,Spanish,13 or older,"no, only English or Spanish",no,2025-07-22_20h49.41.548,empathy_intonation_perc,2024.2.4,Win32,60.24096386,60c8467d9872c0d83f695499,687ed1b7e638a4cbf2f02089,68803162e4188473187ba793,,,,,,,,,,,,,30,1,,./stim/wavs/cuban_mismatch_interrogative-total-yn_El-hombre-mira-la-luna.wav,,,,,,,,,,,,,,,,,,,,,,370.4164,372.3659,0,0,1.4333,,0,76,76,29,1,1,cuban,,,,,,,,,,,,,,,,,,,,,,,,,,,,,,,,,,,,,,,,,,,,,,,,,,,,,,,,
,,,,,,,,,60c8467d9872c0d83f695499,Spanish,13 or older,"no, only English or Spanish",no,2025-07-22_20h49.41.548,empathy_intonation_perc,2024.2.4,Win32,60.24096386,60c8467d9872c0d83f695499,687ed1b7e638a4cbf2f02089,68803162e4188473187ba793,,,,,,,,,,,,,70,0,,./stim/wavs/castilian_mismatch_declarative-broad-focus_La-maestra-vive-en-Paris.wav,,,,,,,,,,,,,,,,,,,,,,372.367,374.7,0,1,1.7972,,0,77,77,69,1,0,castilian,,,,,,,,,,,,,,,,,,,,,,,,,,,,,,,,,,,,,,,,,,,,,,,,,,,,,,,,
,,,,,,,,,60c8467d9872c0d83f695499,Spanish,13 or older,"no, only English or Spanish",no,2025-07-22_20h49.41.548,empathy_intonation_perc,2024.2.4,Win32,60.24096386,60c8467d9872c0d83f695499,687ed1b7e638a4cbf2f02089,68803162e4188473187ba793,,,,,,,,,,,,,85,0,,./stim/wavs/puertorican_mismatch_declarative-broad-focus_El-hombre-mira-la-luna.wav,,,,,,,,,,,,,,,,,,,,,,374.7012,376.6988,0,1,1.4783,,0,78,78,84,1,0,puertorican,,,,,,,,,,,,,,,,,,,,,,,,,,,,,,,,,,,,,,,,,,,,,,,,,,,,,,,,
,,,,,,,,,60c8467d9872c0d83f695499,Spanish,13 or older,"no, only English or Spanish",no,2025-07-22_20h49.41.548,empathy_intonation_perc,2024.2.4,Win32,60.24096386,60c8467d9872c0d83f695499,687ed1b7e638a4cbf2f02089,68803162e4188473187ba793,,,,,,,,,,,,,63,0,,./stim/wavs/puertorican_match_declarative-broad-focus_Ana-lleva-el-abrigo.wav,,,,,,,,,,,,,,,,,,,,,,376.7004,378.594,0,1,1.3521,,0,79,79,62,1,0,puertorican,,,,,,,,,,,,,,,,,,,,,,,,,,,,,,,,,,,,,,,,,,,,,,,,,,,,,,,,
,,,,,,,,,60c8467d9872c0d83f695499,Spanish,13 or older,"no, only English or Spanish",no,2025-07-22_20h49.41.548,empathy_intonation_perc,2024.2.4,Win32,60.24096386,60c8467d9872c0d83f695499,687ed1b7e638a4cbf2f02089,68803162e4188473187ba793,,,,,,,,,,,,,66,0,,./stim/wavs/puertorican_match_declarative-broad-focus_Emilio-ama-la-marcha.wav,,,,,,,,,,,,,,,,,,,,,,378.5956,380.6956,0,1,1.5539,,0,80,80,65,1,0,puertorican,,,,,,,,,,,,,,,,,,,,,,,,,,,,,,,,,,,,,,,,,,,,,,,,,,,,,,,,
,,,,,,,,,60c8467d9872c0d83f695499,Spanish,13 or older,"no, only English or Spanish",no,2025-07-22_20h49.41.548,empathy_intonation_perc,2024.2.4,Win32,60.24096386,60c8467d9872c0d83f695499,687ed1b7e638a4cbf2f02089,68803162e4188473187ba793,,,,,,,,,,,,,40,1,,./stim/wavs/puertorican_mismatch_interrogative-total-yn_El-hombre-mira-la-luna.wav,,,,,,,,,,,,,,,,,,,,,,380.697,382.7451,0,0,1.5258,,0,81,81,39,1,1,puertorican,,,,,,,,,,,,,,,,,,,,,,,,,,,,,,,,,,,,,,,,,,,,,,,,,,,,,,,,
,,,,,,,,,60c8467d9872c0d83f695499,Spanish,13 or older,"no, only English or Spanish",no,2025-07-22_20h49.41.548,empathy_intonation_perc,2024.2.4,Win32,60.24096386,60c8467d9872c0d83f695499,687ed1b7e638a4cbf2f02089,68803162e4188473187ba793,,,,,,,,,,,,,87,0,,./stim/wavs/puertorican_mismatch_declarative-broad-focus_La-maestra-vive-en-Paris.wav,,,,,,,,,,,,,,,,,,,,,,382.7464,384.8629,0,1,1.5942,,0,82,82,86,1,0,puertorican,,,,,,,,,,,,,,,,,,,,,,,,,,,,,,,,,,,,,,,,,,,,,,,,,,,,,,,,
,,,,,,,,,60c8467d9872c0d83f695499,Spanish,13 or older,"no, only English or Spanish",no,2025-07-22_20h49.41.548,empathy_intonation_perc,2024.2.4,Win32,60.24096386,60c8467d9872c0d83f695499,687ed1b7e638a4cbf2f02089,68803162e4188473187ba793,,,,,,,,,,,,,83,0,,./stim/wavs/mexican_mismatch_declarative-broad-focus_Mi-tia-odia-la-lluvia.wav,,,,,,,,,,,,,,,,,,,,,,384.864,386.9311,0,1,1.5492,,0,83,83,82,1,0,mexican,,,,,,,,,,,,,,,,,,,,,,,,,,,,,,,,,,,,,,,,,,,,,,,,,,,,,,,,
,,,,,,,,,60c8467d9872c0d83f695499,Spanish,13 or older,"no, only English or Spanish",no,2025-07-22_20h49.41.548,empathy_intonation_perc,2024.2.4,Win32,60.24096386,60c8467d9872c0d83f695499,687ed1b7e638a4cbf2f02089,68803162e4188473187ba793,,,,,,,,,,,,,29,1,,./stim/wavs/castilian_mismatch_interrogative-total-yn_Mi-tia-odia-la-lluvia.wav,,,,,,,,,,,,,,,,,,,,,,386.9323,389.2273,1,1,1.7737,,0,84,84,28,1,0,castilian,,,,,,,,,,,,,,,,,,,,,,,,,,,,,,,,,,,,,,,,,,,,,,,,,,,,,,,,
,,,,,,,,,60c8467d9872c0d83f695499,Spanish,13 or older,"no, only English or Spanish",no,2025-07-22_20h49.41.548,empathy_intonation_perc,2024.2.4,Win32,60.24096386,60c8467d9872c0d83f695499,687ed1b7e638a4cbf2f02089,68803162e4188473187ba793,,,,,,,,,,,,,51,0,,./stim/wavs/cuban_match_declarative-broad-focus_Ana-lleva-el-abrigo.wav,,,,,,,,,,,,,,,,,,,,,,389.2286,391.2592,0,1,1.4929,,0,85,85,50,1,0,cuban,,,,,,,,,,,,,,,,,,,,,,,,,,,,,,,,,,,,,,,,,,,,,,,,,,,,,,,,
,,,,,,,,,60c8467d9872c0d83f695499,Spanish,13 or older,"no, only English or Spanish",no,2025-07-22_20h49.41.548,empathy_intonation_perc,2024.2.4,Win32,60.24096386,60c8467d9872c0d83f695499,687ed1b7e638a4cbf2f02089,68803162e4188473187ba793,,,,,,,,,,,,,74,0,,./stim/wavs/cuban_mismatch_declarative-broad-focus_El-bebe-comia-muy-bien.wav,,,,,,,,,,,,,,,,,,,,,,391.2603,393.1859,0,1,1.4001,,0,86,86,73,1,0,cuban,,,,,,,,,,,,,,,,,,,,,,,,,,,,,,,,,,,,,,,,,,,,,,,,,,,,,,,,
,,,,,,,,,60c8467d9872c0d83f695499,Spanish,13 or older,"no, only English or Spanish",no,2025-07-22_20h49.41.548,empathy_intonation_perc,2024.2.4,Win32,60.24096386,60c8467d9872c0d83f695499,687ed1b7e638a4cbf2f02089,68803162e4188473187ba793,,,,,,,,,,,,,22,1,,./stim/wavs/puertorican_match_interrogative-total-yn_Emilio-ama-la-marcha.wav,,,,,,,,,,,,,,,,,,,,,,393.1874,395.4944,0,0,1.7843,,0,87,87,21,1,1,puertorican,,,,,,,,,,,,,,,,,,,,,,,,,,,,,,,,,,,,,,,,,,,,,,,,,,,,,,,,
,,,,,,,"Great! Now we will move on. The next task consists of about 60 trials, in each of which you will see a string of letters. 
  
  Your task is to decide whether this is a real Spanish word or not.", (press the spacebar to continue),60c8467d9872c0d83f695499,Spanish,13 or older,"no, only English or Spanish",no,2025-07-22_20h49.41.548,empathy_intonation_perc,2024.2.4,Win32,60.24096386,60c8467d9872c0d83f695499,687ed1b7e638a4cbf2f02089,68803162e4188473187ba793,,,,,,,,,,,,,,,,,,,,,,,,,,,,,,,,,,,,,,,,,,,,,,,,,,,395.5918,410.4798,0,0,0,0,1,,,,,,,,,,,,,,,,,,,,,,,,,,,,,,,,,,,,,,,,,,,,,,,,,
,,,,,,,"If you think it is an existing Spanish word, you type '1' (for 'REAL'), and if you think it is not an existing Spanish word, you type '0' (for 'FAKE').", (press the spacebar to continue),60c8467d9872c0d83f695499,Spanish,13 or older,"no, only English or Spanish",no,2025-07-22_20h49.41.548,empathy_intonation_perc,2024.2.4,Win32,60.24096386,60c8467d9872c0d83f695499,687ed1b7e638a4cbf2f02089,68803162e4188473187ba793,,,,,,,,,,,,,,,,,,,,,,,,,,,,,,,,,,,,,,,,,,,,,,,,,,,410.4883,418.0186,0,1,1,1,1,,,,,,,,,,,,,,,,,,,,,,,,,,,,,,,,,,,,,,,,,,,,,,,,,
,,,,,,,"If you are sure that the word exists, even though you don’t know its exact meaning, you may still respond '1' (REAL). 
  
  But if you are not sure if it is an existing word, you should respond '0' (FAKE).
  
  Let's do a practice round...", (press the spacebar to continue),60c8467d9872c0d83f695499,Spanish,13 or older,"no, only English or Spanish",no,2025-07-22_20h49.41.548,empathy_intonation_perc,2024.2.4,Win32,60.24096386,60c8467d9872c0d83f695499,687ed1b7e638a4cbf2f02089,68803162e4188473187ba793,,,,,,,,,,,,,,,,,,,,,,,,,,,,,,,,,,,,,,,,,,,,,,,,,,,418.0243,425.1186,0,2,2,2,1,,,,,,,,,,,,,,,,,,,,,,,,,,,,,,,,,,,,,,,,,,,,,,,,,
,,,,,,,,,60c8467d9872c0d83f695499,Spanish,13 or older,"no, only English or Spanish",no,2025-07-22_20h49.41.548,empathy_intonation_perc,2024.2.4,Win32,60.24096386,60c8467d9872c0d83f695499,687ed1b7e638a4cbf2f02089,68803162e4188473187ba793,,,,,,,,,,,,,,0,,,,,,,,,,,,,,,,,,,,,,,,,,,,,,,,,,,,,,,,,,,,425.1429,427.4331,1,0,1.7516,,427.4339,428.441,0,0,0,0,1,0,depiste,REAL,FAKE,,,,,,,,,,,,,,,,,,,,,,,,,,,,,,,,
,,,,,,,,,60c8467d9872c0d83f695499,Spanish,13 or older,"no, only English or Spanish",no,2025-07-22_20h49.41.548,empathy_intonation_perc,2024.2.4,Win32,60.24096386,60c8467d9872c0d83f695499,687ed1b7e638a4cbf2f02089,68803162e4188473187ba793,,,,,,,,,,,,,,1,,,,,,,,,,,,,,,,,,,,,,,,,,,,,,,,,,,,,,,,,,,,428.4465,430.1882,1,1,1.2134,,430.1893,431.191,0,1,1,1,1,0,sí,REAL,FAKE,,,,,,,,,,,,,,,,,,,,,,,,,,,,,,,,
,,,,,,,,,60c8467d9872c0d83f695499,Spanish,13 or older,"no, only English or Spanish",no,2025-07-22_20h49.41.548,empathy_intonation_perc,2024.2.4,Win32,60.24096386,60c8467d9872c0d83f695499,687ed1b7e638a4cbf2f02089,68803162e4188473187ba793,,,,,,,,,,,,,,0,,,,,,,,,,,,,,,,,,,,,,,,,,,,,,,,,,,,,,,,,,,,431.1954,432.7444,0,1,1.005,,432.7445,433.7603,0,2,2,2,1,0,coné,REAL,FAKE,,,,,,,,,,,,,,,,,,,,,,,,,,,,,,,,
,,,,,,,,,60c8467d9872c0d83f695499,Spanish,13 or older,"no, only English or Spanish",no,2025-07-22_20h49.41.548,empathy_intonation_perc,2024.2.4,Win32,60.24096386,60c8467d9872c0d83f695499,687ed1b7e638a4cbf2f02089,68803162e4188473187ba793,,,,,,,,,,,,,,0,,,,,,,,,,,,,,,,,,,,,,,,,,,,,,,,,,,,,,,,,,,,433.7625,435.6696,0,1,1.3733,,435.6697,436.673,0,3,3,3,1,0,calpar,REAL,FAKE,,,,,,,,,,,,,,,,,,,,,,,,,,,,,,,,
,,,,,,,,,60c8467d9872c0d83f695499,Spanish,13 or older,"no, only English or Spanish",no,2025-07-22_20h49.41.548,empathy_intonation_perc,2024.2.4,Win32,60.24096386,60c8467d9872c0d83f695499,687ed1b7e638a4cbf2f02089,68803162e4188473187ba793,,,,,,,,,,,,,,0,,,,,,,,,,,,,,,,,,,,,,,,,,,,,,,,,,,,,,,,,,,,436.6765,438.651,1,0,1.4298,,438.6531,439.6553,0,4,4,4,1,0,joten,REAL,FAKE,,,,,,,,,,,,,,,,,,,,,,,,,,,,,,,,
,,,,,,,,,60c8467d9872c0d83f695499,Spanish,13 or older,"no, only English or Spanish",no,2025-07-22_20h49.41.548,empathy_intonation_perc,2024.2.4,Win32,60.24096386,60c8467d9872c0d83f695499,687ed1b7e638a4cbf2f02089,68803162e4188473187ba793,,,,,,,,,,,,,,1,,,,,,,,,,,,,,,,,,,,,,,,,,,,,,,,,,,,,,,,,,,,439.6579,441.7455,0,0,1.5387,,441.7456,442.7373,0,5,5,5,1,0,sacapuntas,REAL,FAKE,,,,,,,,,,,,,,,,,,,,,,,,,,,,,,,,
,,,,,,,,,60c8467d9872c0d83f695499,Spanish,13 or older,"no, only English or Spanish",no,2025-07-22_20h49.41.548,empathy_intonation_perc,2024.2.4,Win32,60.24096386,60c8467d9872c0d83f695499,687ed1b7e638a4cbf2f02089,68803162e4188473187ba793,,,,,,,,,,,,,,0,,,,,,,,,,,,,,,,,,,,,,,,,,,,,,,,,,,,,,,,,,,,442.7415,444.659,1,0,1.3868,,444.6592,445.6556,0,6,6,6,1,0,priba,REAL,FAKE,,,,,,,,,,,,,,,,,,,,,,,,,,,,,,,,
,,,,,,,,,60c8467d9872c0d83f695499,Spanish,13 or older,"no, only English or Spanish",no,2025-07-22_20h49.41.548,empathy_intonation_perc,2024.2.4,Win32,60.24096386,60c8467d9872c0d83f695499,687ed1b7e638a4cbf2f02089,68803162e4188473187ba793,,,,,,,,,,,,,,0,,,,,,,,,,,,,,,,,,,,,,,,,,,,,,,,,,,,,,,,,,,,445.6596,447.2754,0,1,1.072,,447.2769,448.2675,0,7,7,7,1,0,pelasula,REAL,FAKE,,,,,,,,,,,,,,,,,,,,,,,,,,,,,,,,
,,,,,,,,,60c8467d9872c0d83f695499,Spanish,13 or older,"no, only English or Spanish",no,2025-07-22_20h49.41.548,empathy_intonation_perc,2024.2.4,Win32,60.24096386,60c8467d9872c0d83f695499,687ed1b7e638a4cbf2f02089,68803162e4188473187ba793,,,,,,,,,,,,,,1,,,,,,,,,,,,,,,,,,,,,,,,,,,,,,,,,,,,,,,,,,,,448.272,449.7946,1,1,0.999,,449.7947,450.7926,0,8,8,8,1,0,bien,REAL,FAKE,,,,,,,,,,,,,,,,,,,,,,,,,,,,,,,,
,,,,,,,,,60c8467d9872c0d83f695499,Spanish,13 or older,"no, only English or Spanish",no,2025-07-22_20h49.41.548,empathy_intonation_perc,2024.2.4,Win32,60.24096386,60c8467d9872c0d83f695499,687ed1b7e638a4cbf2f02089,68803162e4188473187ba793,,,,,,,,,,,,,,1,,,,,,,,,,,,,,,,,,,,,,,,,,,,,,,,,,,,,,,,,,,,450.7939,452.0573,1,1,0.7229,,452.0573,453.0503,0,9,9,9,1,0,casa,REAL,FAKE,,,,,,,,,,,,,,,,,,,,,,,,,,,,,,,,
,,,,,,,,,60c8467d9872c0d83f695499,Spanish,13 or older,"no, only English or Spanish",no,2025-07-22_20h49.41.548,empathy_intonation_perc,2024.2.4,Win32,60.24096386,60c8467d9872c0d83f695499,687ed1b7e638a4cbf2f02089,68803162e4188473187ba793,,,,,,,,,,,,,,0,,,,,,,,,,,,,,,,,,,,,,,,,,,,,,,,,,,,,,,,,,,,453.0532,454.6649,0,1,1.0807,,454.6649,455.6636,0,10,10,10,1,0,lejo,REAL,FAKE,,,,,,,,,,,,,,,,,,,,,,,,,,,,,,,,
,,,,,,,,,60c8467d9872c0d83f695499,Spanish,13 or older,"no, only English or Spanish",no,2025-07-22_20h49.41.548,empathy_intonation_perc,2024.2.4,Win32,60.24096386,60c8467d9872c0d83f695499,687ed1b7e638a4cbf2f02089,68803162e4188473187ba793,,,,,,,,,,,,,,0,,,,,,,,,,,,,,,,,,,,,,,,,,,,,,,,,,,,,,,,,,,,455.6663,457.4076,0,1,1.2036,,457.4076,458.3986,0,11,11,11,1,0,pretantas,REAL,FAKE,,,,,,,,,,,,,,,,,,,,,,,,,,,,,,,,
,,,,,,,,,60c8467d9872c0d83f695499,Spanish,13 or older,"no, only English or Spanish",no,2025-07-22_20h49.41.548,empathy_intonation_perc,2024.2.4,Win32,60.24096386,60c8467d9872c0d83f695499,687ed1b7e638a4cbf2f02089,68803162e4188473187ba793,,,,,,,,,,,,,,,,,,,,,,,,,,,,,,,,,,,,,,,,,,,,,,,,,,,,,,,,,,,,,,,,,,,,,,,,,,,458.3995,459.6683,,,,,,,,,,,,,,,,,,,,,,,,,,,,,,
,,,,,,,,,60c8467d9872c0d83f695499,Spanish,13 or older,"no, only English or Spanish",no,2025-07-22_20h49.41.548,empathy_intonation_perc,2024.2.4,Win32,60.24096386,60c8467d9872c0d83f695499,687ed1b7e638a4cbf2f02089,68803162e4188473187ba793,,,,,,,,,,,,,,1,,,,,,,,,,,,,,,,,,,,,,,,,,,,,,,,,,,,,,,,,,,,,,,,,,,,,,,,,14,yunque,,,,,459.7268,461.3698,0,0,1.1036,,0,0,0,13,1,REAL,FAKE,,,,,,,,,,,,,,,,,
,,,,,,,,,60c8467d9872c0d83f695499,Spanish,13 or older,"no, only English or Spanish",no,2025-07-22_20h49.41.548,empathy_intonation_perc,2024.2.4,Win32,60.24096386,60c8467d9872c0d83f695499,687ed1b7e638a4cbf2f02089,68803162e4188473187ba793,,,,,,,,,,,,,,0,,,,,,,,,,,,,,,,,,,,,,,,,,,,,,,,,,,,,,,,,,,,,,,,,,,,,,,,,21,capillo,,,,,461.3723,463.1376,0,1,1.2382,,0,1,1,20,1,REAL,FAKE,,,,,,,,,,,,,,,,,
,,,,,,,,,60c8467d9872c0d83f695499,Spanish,13 or older,"no, only English or Spanish",no,2025-07-22_20h49.41.548,empathy_intonation_perc,2024.2.4,Win32,60.24096386,60c8467d9872c0d83f695499,687ed1b7e638a4cbf2f02089,68803162e4188473187ba793,,,,,,,,,,,,,,1,,,,,,,,,,,,,,,,,,,,,,,,,,,,,,,,,,,,,,,,,,,,,,,,,,,,,,,,,59,besar,,,,,463.1398,464.9033,0,0,1.2384,,0,2,2,58,1,REAL,FAKE,,,,,,,,,,,,,,,,,
,,,,,,,,,60c8467d9872c0d83f695499,Spanish,13 or older,"no, only English or Spanish",no,2025-07-22_20h49.41.548,empathy_intonation_perc,2024.2.4,Win32,60.24096386,60c8467d9872c0d83f695499,687ed1b7e638a4cbf2f02089,68803162e4188473187ba793,,,,,,,,,,,,,,1,,,,,,,,,,,,,,,,,,,,,,,,,,,,,,,,,,,,,,,,,,,,,,,,,,,,,,,,,78,frondoso,,,,,464.9059,466.6725,0,0,1.227,,0,3,3,77,1,REAL,FAKE,,,,,,,,,,,,,,,,,
,,,,,,,,,60c8467d9872c0d83f695499,Spanish,13 or older,"no, only English or Spanish",no,2025-07-22_20h49.41.548,empathy_intonation_perc,2024.2.4,Win32,60.24096386,60c8467d9872c0d83f695499,687ed1b7e638a4cbf2f02089,68803162e4188473187ba793,,,,,,,,,,,,,,0,,,,,,,,,,,,,,,,,,,,,,,,,,,,,,,,,,,,,,,,,,,,,,,,,,,,,,,,,16,abracer,,,,,466.675,468.5239,0,1,1.3101,,0,4,4,15,1,REAL,FAKE,,,,,,,,,,,,,,,,,
,,,,,,,,,60c8467d9872c0d83f695499,Spanish,13 or older,"no, only English or Spanish",no,2025-07-22_20h49.41.548,empathy_intonation_perc,2024.2.4,Win32,60.24096386,60c8467d9872c0d83f695499,687ed1b7e638a4cbf2f02089,68803162e4188473187ba793,,,,,,,,,,,,,,1,,,,,,,,,,,,,,,,,,,,,,,,,,,,,,,,,,,,,,,,,,,,,,,,,,,,,,,,,86,barato,,,,,468.5257,470.2056,0,0,1.1565,,0,5,5,85,1,REAL,FAKE,,,,,,,,,,,,,,,,,
,,,,,,,,,60c8467d9872c0d83f695499,Spanish,13 or older,"no, only English or Spanish",no,2025-07-22_20h49.41.548,empathy_intonation_perc,2024.2.4,Win32,60.24096386,60c8467d9872c0d83f695499,687ed1b7e638a4cbf2f02089,68803162e4188473187ba793,,,,,,,,,,,,,,1,,,,,,,,,,,,,,,,,,,,,,,,,,,,,,,,,,,,,,,,,,,,,,,,,,,,,,,,,11,cenefa,,,,,470.2075,471.62,0,0,0.886,,0,6,6,10,1,REAL,FAKE,,,,,,,,,,,,,,,,,
,,,,,,,,,60c8467d9872c0d83f695499,Spanish,13 or older,"no, only English or Spanish",no,2025-07-22_20h49.41.548,empathy_intonation_perc,2024.2.4,Win32,60.24096386,60c8467d9872c0d83f695499,687ed1b7e638a4cbf2f02089,68803162e4188473187ba793,,,,,,,,,,,,,,1,,,,,,,,,,,,,,,,,,,,,,,,,,,,,,,,,,,,,,,,,,,,,,,,,,,,,,,,,28,merodear,,,,,471.6223,473.0021,0,0,0.8492,,0,7,7,27,1,REAL,FAKE,,,,,,,,,,,,,,,,,
,,,,,,,,,60c8467d9872c0d83f695499,Spanish,13 or older,"no, only English or Spanish",no,2025-07-22_20h49.41.548,empathy_intonation_perc,2024.2.4,Win32,60.24096386,60c8467d9872c0d83f695499,687ed1b7e638a4cbf2f02089,68803162e4188473187ba793,,,,,,,,,,,,,,0,,,,,,,,,,,,,,,,,,,,,,,,,,,,,,,,,,,,,,,,,,,,,,,,,,,,,,,,,1,terzo,,,,,473.0051,474.4009,0,1,0.8737,,0,8,8,0,1,REAL,FAKE,,,,,,,,,,,,,,,,,
,,,,,,,,,60c8467d9872c0d83f695499,Spanish,13 or older,"no, only English or Spanish",no,2025-07-22_20h49.41.548,empathy_intonation_perc,2024.2.4,Win32,60.24096386,60c8467d9872c0d83f695499,687ed1b7e638a4cbf2f02089,68803162e4188473187ba793,,,,,,,,,,,,,,0,,,,,,,,,,,,,,,,,,,,,,,,,,,,,,,,,,,,,,,,,,,,,,,,,,,,,,,,,79,tropaje,,,,,474.403,475.8667,0,1,0.9071,,0,9,9,78,1,REAL,FAKE,,,,,,,,,,,,,,,,,
,,,,,,,,,60c8467d9872c0d83f695499,Spanish,13 or older,"no, only English or Spanish",no,2025-07-22_20h49.41.548,empathy_intonation_perc,2024.2.4,Win32,60.24096386,60c8467d9872c0d83f695499,687ed1b7e638a4cbf2f02089,68803162e4188473187ba793,,,,,,,,,,,,,,1,,,,,,,,,,,,,,,,,,,,,,,,,,,,,,,,,,,,,,,,,,,,,,,,,,,,,,,,,83,guante,,,,,475.8688,477.2002,1,1,0.7858,,0,10,10,82,1,REAL,FAKE,,,,,,,,,,,,,,,,,
,,,,,,,,,60c8467d9872c0d83f695499,Spanish,13 or older,"no, only English or Spanish",no,2025-07-22_20h49.41.548,empathy_intonation_perc,2024.2.4,Win32,60.24096386,60c8467d9872c0d83f695499,687ed1b7e638a4cbf2f02089,68803162e4188473187ba793,,,,,,,,,,,,,,1,,,,,,,,,,,,,,,,,,,,,,,,,,,,,,,,,,,,,,,,,,,,,,,,,,,,,,,,,7,pésimo,,,,,477.2025,478.6153,0,0,0.8698,,0,11,11,6,1,REAL,FAKE,,,,,,,,,,,,,,,,,
,,,,,,,,,60c8467d9872c0d83f695499,Spanish,13 or older,"no, only English or Spanish",no,2025-07-22_20h49.41.548,empathy_intonation_perc,2024.2.4,Win32,60.24096386,60c8467d9872c0d83f695499,687ed1b7e638a4cbf2f02089,68803162e4188473187ba793,,,,,,,,,,,,,,1,,,,,,,,,,,,,,,,,,,,,,,,,,,,,,,,,,,,,,,,,,,,,,,,,,,,,,,,,64,orgulloso,,,,,478.6174,480.017,0,0,0.8581,,0,12,12,63,1,REAL,FAKE,,,,,,,,,,,,,,,,,
,,,,,,,,,60c8467d9872c0d83f695499,Spanish,13 or older,"no, only English or Spanish",no,2025-07-22_20h49.41.548,empathy_intonation_perc,2024.2.4,Win32,60.24096386,60c8467d9872c0d83f695499,687ed1b7e638a4cbf2f02089,68803162e4188473187ba793,,,,,,,,,,,,,,0,,,,,,,,,,,,,,,,,,,,,,,,,,,,,,,,,,,,,,,,,,,,,,,,,,,,,,,,,47,cartinar,,,,,480.019,482.1307,0,1,1.5733,,0,13,13,46,1,REAL,FAKE,,,,,,,,,,,,,,,,,
,,,,,,,,,60c8467d9872c0d83f695499,Spanish,13 or older,"no, only English or Spanish",no,2025-07-22_20h49.41.548,empathy_intonation_perc,2024.2.4,Win32,60.24096386,60c8467d9872c0d83f695499,687ed1b7e638a4cbf2f02089,68803162e4188473187ba793,,,,,,,,,,,,,,0,,,,,,,,,,,,,,,,,,,,,,,,,,,,,,,,,,,,,,,,,,,,,,,,,,,,,,,,,66,hacido,,,,,482.1329,483.4479,1,0,0.7732,,0,14,14,65,1,REAL,FAKE,,,,,,,,,,,,,,,,,
,,,,,,,,,60c8467d9872c0d83f695499,Spanish,13 or older,"no, only English or Spanish",no,2025-07-22_20h49.41.548,empathy_intonation_perc,2024.2.4,Win32,60.24096386,60c8467d9872c0d83f695499,687ed1b7e638a4cbf2f02089,68803162e4188473187ba793,,,,,,,,,,,,,,0,,,,,,,,,,,,,,,,,,,,,,,,,,,,,,,,,,,,,,,,,,,,,,,,,,,,,,,,,92,click the 0 key.,,,,,483.45,485.5294,0,1,1.5385,,0,15,15,91,1,REAL,FAKE,,,,,,,,,,,,,,,,,
,,,,,,,,,60c8467d9872c0d83f695499,Spanish,13 or older,"no, only English or Spanish",no,2025-07-22_20h49.41.548,empathy_intonation_perc,2024.2.4,Win32,60.24096386,60c8467d9872c0d83f695499,687ed1b7e638a4cbf2f02089,68803162e4188473187ba793,,,,,,,,,,,,,,1,,,,,,,,,,,,,,,,,,,,,,,,,,,,,,,,,,,,,,,,,,,,,,,,,,,,,,,,,55,nevar,,,,,485.5332,487.9673,1,1,1.8946,,0,16,16,54,1,REAL,FAKE,,,,,,,,,,,,,,,,,
,,,,,,,,,60c8467d9872c0d83f695499,Spanish,13 or older,"no, only English or Spanish",no,2025-07-22_20h49.41.548,empathy_intonation_perc,2024.2.4,Win32,60.24096386,60c8467d9872c0d83f695499,687ed1b7e638a4cbf2f02089,68803162e4188473187ba793,,,,,,,,,,,,,,1,,,,,,,,,,,,,,,,,,,,,,,,,,,,,,,,,,,,,,,,,,,,,,,,,,,,,,,,,65,bizcocho,,,,,487.969,489.2825,0,0,0.7952,,0,17,17,64,1,REAL,FAKE,,,,,,,,,,,,,,,,,
,,,,,,,,,60c8467d9872c0d83f695499,Spanish,13 or older,"no, only English or Spanish",no,2025-07-22_20h49.41.548,empathy_intonation_perc,2024.2.4,Win32,60.24096386,60c8467d9872c0d83f695499,687ed1b7e638a4cbf2f02089,68803162e4188473187ba793,,,,,,,,,,,,,,1,,,,,,,,,,,,,,,,,,,,,,,,,,,,,,,,,,,,,,,,,,,,,,,,,,,,,,,,,51,candado,,,,,489.2838,490.7129,1,1,0.8852,,0,18,18,50,1,REAL,FAKE,,,,,,,,,,,,,,,,,
,,,,,,,,,60c8467d9872c0d83f695499,Spanish,13 or older,"no, only English or Spanish",no,2025-07-22_20h49.41.548,empathy_intonation_perc,2024.2.4,Win32,60.24096386,60c8467d9872c0d83f695499,687ed1b7e638a4cbf2f02089,68803162e4188473187ba793,,,,,,,,,,,,,,1,,,,,,,,,,,,,,,,,,,,,,,,,,,,,,,,,,,,,,,,,,,,,,,,,,,,,,,,,85,laúd,,,,,490.7165,492.144,0,0,0.9037,,0,19,19,84,1,REAL,FAKE,,,,,,,,,,,,,,,,,
,,,,,,,,,60c8467d9872c0d83f695499,Spanish,13 or older,"no, only English or Spanish",no,2025-07-22_20h49.41.548,empathy_intonation_perc,2024.2.4,Win32,60.24096386,60c8467d9872c0d83f695499,687ed1b7e638a4cbf2f02089,68803162e4188473187ba793,,,,,,,,,,,,,,1,,,,,,,,,,,,,,,,,,,,,,,,,,,,,,,,,,,,,,,,,,,,,,,,,,,,,,,,,49,ganar,,,,,492.146,493.5747,0,0,0.8922,,0,20,20,48,1,REAL,FAKE,,,,,,,,,,,,,,,,,
,,,,,,,,,60c8467d9872c0d83f695499,Spanish,13 or older,"no, only English or Spanish",no,2025-07-22_20h49.41.548,empathy_intonation_perc,2024.2.4,Win32,60.24096386,60c8467d9872c0d83f695499,687ed1b7e638a4cbf2f02089,68803162e4188473187ba793,,,,,,,,,,,,,,1,,,,,,,,,,,,,,,,,,,,,,,,,,,,,,,,,,,,,,,,,,,,,,,,,,,,,,,,,68,alegre,,,,,493.576,495.1265,0,0,1.0244,,0,21,21,67,1,REAL,FAKE,,,,,,,,,,,,,,,,,
,,,,,,,,,60c8467d9872c0d83f695499,Spanish,13 or older,"no, only English or Spanish",no,2025-07-22_20h49.41.548,empathy_intonation_perc,2024.2.4,Win32,60.24096386,60c8467d9872c0d83f695499,687ed1b7e638a4cbf2f02089,68803162e4188473187ba793,,,,,,,,,,,,,,0,,,,,,,,,,,,,,,,,,,,,,,,,,,,,,,,,,,,,,,,,,,,,,,,,,,,,,,,,29,decar,,,,,495.1287,497.158,1,0,1.5057,,0,22,22,28,1,REAL,FAKE,,,,,,,,,,,,,,,,,
,,,,,,,,,60c8467d9872c0d83f695499,Spanish,13 or older,"no, only English or Spanish",no,2025-07-22_20h49.41.548,empathy_intonation_perc,2024.2.4,Win32,60.24096386,60c8467d9872c0d83f695499,687ed1b7e638a4cbf2f02089,68803162e4188473187ba793,,,,,,,,,,,,,,1,,,,,,,,,,,,,,,,,,,,,,,,,,,,,,,,,,,,,,,,,,,,,,,,,,,,,,,,,88,acantilado,,,,,497.1598,499.4928,1,1,1.7898,,0,23,23,87,1,REAL,FAKE,,,,,,,,,,,,,,,,,
,,,,,,,,,60c8467d9872c0d83f695499,Spanish,13 or older,"no, only English or Spanish",no,2025-07-22_20h49.41.548,empathy_intonation_perc,2024.2.4,Win32,60.24096386,60c8467d9872c0d83f695499,687ed1b7e638a4cbf2f02089,68803162e4188473187ba793,,,,,,,,,,,,,,0,,,,,,,,,,,,,,,,,,,,,,,,,,,,,,,,,,,,,,,,,,,,,,,,,,,,,,,,,58,plaudir,,,,,499.4946,502.0106,0,1,1.9754,,0,24,24,57,1,REAL,FAKE,,,,,,,,,,,,,,,,,
,,,,,,,,,60c8467d9872c0d83f695499,Spanish,13 or older,"no, only English or Spanish",no,2025-07-22_20h49.41.548,empathy_intonation_perc,2024.2.4,Win32,60.24096386,60c8467d9872c0d83f695499,687ed1b7e638a4cbf2f02089,68803162e4188473187ba793,,,,,,,,,,,,,,1,,,,,,,,,,,,,,,,,,,,,,,,,,,,,,,,,,,,,,,,,,,,,,,,,,,,,,,,,57,tacaño,,,,,502.0142,503.3572,1,1,0.8058,,0,25,25,56,1,REAL,FAKE,,,,,,,,,,,,,,,,,
,,,,,,,,,60c8467d9872c0d83f695499,Spanish,13 or older,"no, only English or Spanish",no,2025-07-22_20h49.41.548,empathy_intonation_perc,2024.2.4,Win32,60.24096386,60c8467d9872c0d83f695499,687ed1b7e638a4cbf2f02089,68803162e4188473187ba793,,,,,,,,,,,,,,1,,,,,,,,,,,,,,,,,,,,,,,,,,,,,,,,,,,,,,,,,,,,,,,,,,,,,,,,,6,tergiversar,,,,,503.3596,505.1498,0,0,1.261,,0,26,26,5,1,REAL,FAKE,,,,,,,,,,,,,,,,,
,,,,,,,,,60c8467d9872c0d83f695499,Spanish,13 or older,"no, only English or Spanish",no,2025-07-22_20h49.41.548,empathy_intonation_perc,2024.2.4,Win32,60.24096386,60c8467d9872c0d83f695499,687ed1b7e638a4cbf2f02089,68803162e4188473187ba793,,,,,,,,,,,,,,1,,,,,,,,,,,,,,,,,,,,,,,,,,,,,,,,,,,,,,,,,,,,,,,,,,,,,,,,,37,granuja,,,,,505.1539,506.3107,1,1,0.6368,,0,27,27,36,1,REAL,FAKE,,,,,,,,,,,,,,,,,
,,,,,,,,,60c8467d9872c0d83f695499,Spanish,13 or older,"no, only English or Spanish",no,2025-07-22_20h49.41.548,empathy_intonation_perc,2024.2.4,Win32,60.24096386,60c8467d9872c0d83f695499,687ed1b7e638a4cbf2f02089,68803162e4188473187ba793,,,,,,,,,,,,,,1,,,,,,,,,,,,,,,,,,,,,,,,,,,,,,,,,,,,,,,,,,,,,,,,,,,,,,,,,20,ávido,,,,,506.3145,507.5781,1,1,0.7293,,0,28,28,19,1,REAL,FAKE,,,,,,,,,,,,,,,,,
,,,,,,,,,60c8467d9872c0d83f695499,Spanish,13 or older,"no, only English or Spanish",no,2025-07-22_20h49.41.548,empathy_intonation_perc,2024.2.4,Win32,60.24096386,60c8467d9872c0d83f695499,687ed1b7e638a4cbf2f02089,68803162e4188473187ba793,,,,,,,,,,,,,,0,,,,,,,,,,,,,,,,,,,,,,,,,,,,,,,,,,,,,,,,,,,,,,,,,,,,,,,,,70,temblo,,,,,507.5802,509.0033,1,0,0.8871,,0,29,29,69,1,REAL,FAKE,,,,,,,,,,,,,,,,,
,,,,,,,,,60c8467d9872c0d83f695499,Spanish,13 or older,"no, only English or Spanish",no,2025-07-22_20h49.41.548,empathy_intonation_perc,2024.2.4,Win32,60.24096386,60c8467d9872c0d83f695499,687ed1b7e638a4cbf2f02089,68803162e4188473187ba793,,,,,,,,,,,,,,1,,,,,,,,,,,,,,,,,,,,,,,,,,,,,,,,,,,,,,,,,,,,,,,,,,,,,,,,,76,atar,,,,,509.005,510.3024,0,0,0.7536,,0,30,30,75,1,REAL,FAKE,,,,,,,,,,,,,,,,,
,,,,,,,,,60c8467d9872c0d83f695499,Spanish,13 or older,"no, only English or Spanish",no,2025-07-22_20h49.41.548,empathy_intonation_perc,2024.2.4,Win32,60.24096386,60c8467d9872c0d83f695499,687ed1b7e638a4cbf2f02089,68803162e4188473187ba793,,,,,,,,,,,,,,1,,,,,,,,,,,,,,,,,,,,,,,,,,,,,,,,,,,,,,,,,,,,,,,,,,,,,,,,,25,bisagra,,,,,510.3046,512.6045,0,0,1.7683,,0,31,31,24,1,REAL,FAKE,,,,,,,,,,,,,,,,,
,,,,,,,,,60c8467d9872c0d83f695499,Spanish,13 or older,"no, only English or Spanish",no,2025-07-22_20h49.41.548,empathy_intonation_perc,2024.2.4,Win32,60.24096386,60c8467d9872c0d83f695499,687ed1b7e638a4cbf2f02089,68803162e4188473187ba793,,,,,,,,,,,,,,0,,,,,,,,,,,,,,,,,,,,,,,,,,,,,,,,,,,,,,,,,,,,,,,,,,,,,,,,,18,arsa,,,,,512.6066,513.855,1,0,0.7043,,0,32,32,17,1,REAL,FAKE,,,,,,,,,,,,,,,,,
,,,,,,,,,60c8467d9872c0d83f695499,Spanish,13 or older,"no, only English or Spanish",no,2025-07-22_20h49.41.548,empathy_intonation_perc,2024.2.4,Win32,60.24096386,60c8467d9872c0d83f695499,687ed1b7e638a4cbf2f02089,68803162e4188473187ba793,,,,,,,,,,,,,,0,,,,,,,,,,,,,,,,,,,,,,,,,,,,,,,,,,,,,,,,,,,,,,,,,,,,,,,,,23,lampera,,,,,513.8572,515.9546,0,1,1.5576,,0,33,33,22,1,REAL,FAKE,,,,,,,,,,,,,,,,,
,,,,,,,,,60c8467d9872c0d83f695499,Spanish,13 or older,"no, only English or Spanish",no,2025-07-22_20h49.41.548,empathy_intonation_perc,2024.2.4,Win32,60.24096386,60c8467d9872c0d83f695499,687ed1b7e638a4cbf2f02089,68803162e4188473187ba793,,,,,,,,,,,,,,0,,,,,,,,,,,,,,,,,,,,,,,,,,,,,,,,,,,,,,,,,,,,,,,,,,,,,,,,,4,batillón,,,,,515.9582,517.4737,0,1,0.9217,,0,34,34,3,1,REAL,FAKE,,,,,,,,,,,,,,,,,
,,,,,,,,,60c8467d9872c0d83f695499,Spanish,13 or older,"no, only English or Spanish",no,2025-07-22_20h49.41.548,empathy_intonation_perc,2024.2.4,Win32,60.24096386,60c8467d9872c0d83f695499,687ed1b7e638a4cbf2f02089,68803162e4188473187ba793,,,,,,,,,,,,,,1,,,,,,,,,,,,,,,,,,,,,,,,,,,,,,,,,,,,,,,,,,,,,,,,,,,,,,,,,75,yacer,,,,,517.4758,518.7215,0,0,0.7085,,0,35,35,74,1,REAL,FAKE,,,,,,,,,,,,,,,,,
,,,,,,,,,60c8467d9872c0d83f695499,Spanish,13 or older,"no, only English or Spanish",no,2025-07-22_20h49.41.548,empathy_intonation_perc,2024.2.4,Win32,60.24096386,60c8467d9872c0d83f695499,687ed1b7e638a4cbf2f02089,68803162e4188473187ba793,,,,,,,,,,,,,,0,,,,,,,,,,,,,,,,,,,,,,,,,,,,,,,,,,,,,,,,,,,,,,,,,,,,,,,,,42,cadallo,,,,,518.7244,519.9483,1,0,0.6867,,0,36,36,41,1,REAL,FAKE,,,,,,,,,,,,,,,,,
,,,,,,,,,60c8467d9872c0d83f695499,Spanish,13 or older,"no, only English or Spanish",no,2025-07-22_20h49.41.548,empathy_intonation_perc,2024.2.4,Win32,60.24096386,60c8467d9872c0d83f695499,687ed1b7e638a4cbf2f02089,68803162e4188473187ba793,,,,,,,,,,,,,,0,,,,,,,,,,,,,,,,,,,,,,,,,,,,,,,,,,,,,,,,,,,,,,,,,,,,,,,,,27,acutación,,,,,519.9497,521.4523,0,1,0.9561,,0,37,37,26,1,REAL,FAKE,,,,,,,,,,,,,,,,,
,,,,,,,,,60c8467d9872c0d83f695499,Spanish,13 or older,"no, only English or Spanish",no,2025-07-22_20h49.41.548,empathy_intonation_perc,2024.2.4,Win32,60.24096386,60c8467d9872c0d83f695499,687ed1b7e638a4cbf2f02089,68803162e4188473187ba793,,,,,,,,,,,,,,1,,,,,,,,,,,,,,,,,,,,,,,,,,,,,,,,,,,,,,,,,,,,,,,,,,,,,,,,,80,hormiga,,,,,521.4549,522.8227,0,0,0.8393,,0,38,38,79,1,REAL,FAKE,,,,,,,,,,,,,,,,,
,,,,,,,,,60c8467d9872c0d83f695499,Spanish,13 or older,"no, only English or Spanish",no,2025-07-22_20h49.41.548,empathy_intonation_perc,2024.2.4,Win32,60.24096386,60c8467d9872c0d83f695499,687ed1b7e638a4cbf2f02089,68803162e4188473187ba793,,,,,,,,,,,,,,1,,,,,,,,,,,,,,,,,,,,,,,,,,,,,,,,,,,,,,,,,,,,,,,,,,,,,,,,,44,cuchara,,,,,522.8256,524.7255,0,0,1.3639,,0,39,39,43,1,REAL,FAKE,,,,,,,,,,,,,,,,,
,,,,,,,,,60c8467d9872c0d83f695499,Spanish,13 or older,"no, only English or Spanish",no,2025-07-22_20h49.41.548,empathy_intonation_perc,2024.2.4,Win32,60.24096386,60c8467d9872c0d83f695499,687ed1b7e638a4cbf2f02089,68803162e4188473187ba793,,,,,,,,,,,,,,0,,,,,,,,,,,,,,,,,,,,,,,,,,,,,,,,,,,,,,,,,,,,,,,,,,,,,,,,,74,cintro,,,,,524.7277,525.8906,1,0,0.6308,,0,40,40,73,1,REAL,FAKE,,,,,,,,,,,,,,,,,
,,,,,,,,,60c8467d9872c0d83f695499,Spanish,13 or older,"no, only English or Spanish",no,2025-07-22_20h49.41.548,empathy_intonation_perc,2024.2.4,Win32,60.24096386,60c8467d9872c0d83f695499,687ed1b7e638a4cbf2f02089,68803162e4188473187ba793,,,,,,,,,,,,,,1,,,,,,,,,,,,,,,,,,,,,,,,,,,,,,,,,,,,,,,,,,,,,,,,,,,,,,,,,41,rebuscar,,,,,525.8924,527.0514,0,0,0.6238,,0,41,41,40,1,REAL,FAKE,,,,,,,,,,,,,,,,,
,,,,,,,,,60c8467d9872c0d83f695499,Spanish,13 or older,"no, only English or Spanish",no,2025-07-22_20h49.41.548,empathy_intonation_perc,2024.2.4,Win32,60.24096386,60c8467d9872c0d83f695499,687ed1b7e638a4cbf2f02089,68803162e4188473187ba793,,,,,,,,,,,,,,1,,,,,,,,,,,,,,,,,,,,,,,,,,,,,,,,,,,,,,,,,,,,,,,,,,,,,,,,,89,prisa,,,,,527.0538,528.754,1,1,1.1609,,0,42,42,88,1,REAL,FAKE,,,,,,,,,,,,,,,,,
,,,,,,,,,60c8467d9872c0d83f695499,Spanish,13 or older,"no, only English or Spanish",no,2025-07-22_20h49.41.548,empathy_intonation_perc,2024.2.4,Win32,60.24096386,60c8467d9872c0d83f695499,687ed1b7e638a4cbf2f02089,68803162e4188473187ba793,,,,,,,,,,,,,,1,,,,,,,,,,,,,,,,,,,,,,,,,,,,,,,,,,,,,,,,,,,,,,,,,,,,,,,,,77,tiburón,,,,,528.7553,529.9487,0,0,0.6557,,0,43,43,76,1,REAL,FAKE,,,,,,,,,,,,,,,,,
,,,,,,,,,60c8467d9872c0d83f695499,Spanish,13 or older,"no, only English or Spanish",no,2025-07-22_20h49.41.548,empathy_intonation_perc,2024.2.4,Win32,60.24096386,60c8467d9872c0d83f695499,687ed1b7e638a4cbf2f02089,68803162e4188473187ba793,,,,,,,,,,,,,,1,,,,,,,,,,,,,,,,,,,,,,,,,,,,,,,,,,,,,,,,,,,,,,,,,,,,,,,,,61,seda,,,,,529.9518,531.6654,0,0,1.1734,,0,44,44,60,1,REAL,FAKE,,,,,,,,,,,,,,,,,
,,,,,,,,,60c8467d9872c0d83f695499,Spanish,13 or older,"no, only English or Spanish",no,2025-07-22_20h49.41.548,empathy_intonation_perc,2024.2.4,Win32,60.24096386,60c8467d9872c0d83f695499,687ed1b7e638a4cbf2f02089,68803162e4188473187ba793,,,,,,,,,,,,,,0,,,,,,,,,,,,,,,,,,,,,,,,,,,,,,,,,,,,,,,,,,,,,,,,,,,,,,,,,32,fatacidad,,,,,531.6679,533.1982,0,1,1.0064,,0,45,45,31,1,REAL,FAKE,,,,,,,,,,,,,,,,,
,,,,,,,,,60c8467d9872c0d83f695499,Spanish,13 or older,"no, only English or Spanish",no,2025-07-22_20h49.41.548,empathy_intonation_perc,2024.2.4,Win32,60.24096386,60c8467d9872c0d83f695499,687ed1b7e638a4cbf2f02089,68803162e4188473187ba793,,,,,,,,,,,,,,1,,,,,,,,,,,,,,,,,,,,,,,,,,,,,,,,,,,,,,,,,,,,,,,,,,,,,,,,,26,secuestro,,,,,533.2003,534.9142,1,1,1.1728,,0,46,46,25,1,REAL,FAKE,,,,,,,,,,,,,,,,,
,,,,,,,,,60c8467d9872c0d83f695499,Spanish,13 or older,"no, only English or Spanish",no,2025-07-22_20h49.41.548,empathy_intonation_perc,2024.2.4,Win32,60.24096386,60c8467d9872c0d83f695499,687ed1b7e638a4cbf2f02089,68803162e4188473187ba793,,,,,,,,,,,,,,0,,,,,,,,,,,,,,,,,,,,,,,,,,,,,,,,,,,,,,,,,,,,,,,,,,,,,,,,,53,vegada,,,,,534.916,537.132,1,0,1.6748,,0,47,47,52,1,REAL,FAKE,,,,,,,,,,,,,,,,,
,,,,,,,,,60c8467d9872c0d83f695499,Spanish,13 or older,"no, only English or Spanish",no,2025-07-22_20h49.41.548,empathy_intonation_perc,2024.2.4,Win32,60.24096386,60c8467d9872c0d83f695499,687ed1b7e638a4cbf2f02089,68803162e4188473187ba793,,,,,,,,,,,,,,1,,,,,,,,,,,,,,,,,,,,,,,,,,,,,,,,,,,,,,,,,,,,,,,,,,,,,,,,,90,clavel,,,,,537.134,538.4624,0,0,0.7999,,0,48,48,89,1,REAL,FAKE,,,,,,,,,,,,,,,,,
,,,,,,,,,60c8467d9872c0d83f695499,Spanish,13 or older,"no, only English or Spanish",no,2025-07-22_20h49.41.548,empathy_intonation_perc,2024.2.4,Win32,60.24096386,60c8467d9872c0d83f695499,687ed1b7e638a4cbf2f02089,68803162e4188473187ba793,,,,,,,,,,,,,,1,,,,,,,,,,,,,,,,,,,,,,,,,,,,,,,,,,,,,,,,,,,,,,,,,,,,,,,,,15,regar,,,,,538.4644,539.9311,0,0,0.939,,0,49,49,14,1,REAL,FAKE,,,,,,,,,,,,,,,,,
,,,,,,,,,60c8467d9872c0d83f695499,Spanish,13 or older,"no, only English or Spanish",no,2025-07-22_20h49.41.548,empathy_intonation_perc,2024.2.4,Win32,60.24096386,60c8467d9872c0d83f695499,687ed1b7e638a4cbf2f02089,68803162e4188473187ba793,,,,,,,,,,,,,,1,,,,,,,,,,,,,,,,,,,,,,,,,,,,,,,,,,,,,,,,,,,,,,,,,,,,,,,,,12,asesinato,,,,,539.9336,541.307,0,0,0.8337,,0,50,50,11,1,REAL,FAKE,,,,,,,,,,,,,,,,,
,,,,,,,,,60c8467d9872c0d83f695499,Spanish,13 or older,"no, only English or Spanish",no,2025-07-22_20h49.41.548,empathy_intonation_perc,2024.2.4,Win32,60.24096386,60c8467d9872c0d83f695499,687ed1b7e638a4cbf2f02089,68803162e4188473187ba793,,,,,,,,,,,,,,0,,,,,,,,,,,,,,,,,,,,,,,,,,,,,,,,,,,,,,,,,,,,,,,,,,,,,,,,,82,empirador,,,,,541.3092,543.813,0,1,1.9849,,0,51,51,81,1,REAL,FAKE,,,,,,,,,,,,,,,,,
,,,,,,,,,60c8467d9872c0d83f695499,Spanish,13 or older,"no, only English or Spanish",no,2025-07-22_20h49.41.548,empathy_intonation_perc,2024.2.4,Win32,60.24096386,60c8467d9872c0d83f695499,687ed1b7e638a4cbf2f02089,68803162e4188473187ba793,,,,,,,,,,,,,,0,,,,,,,,,,,,,,,,,,,,,,,,,,,,,,,,,,,,,,,,,,,,,,,,,,,,,,,,,35,rompido,,,,,543.8163,545.2611,0,1,0.9217,,0,52,52,34,1,REAL,FAKE,,,,,,,,,,,,,,,,,
,,,,,,,,,60c8467d9872c0d83f695499,Spanish,13 or older,"no, only English or Spanish",no,2025-07-22_20h49.41.548,empathy_intonation_perc,2024.2.4,Win32,60.24096386,60c8467d9872c0d83f695499,687ed1b7e638a4cbf2f02089,68803162e4188473187ba793,,,,,,,,,,,,,,0,,,,,,,,,,,,,,,,,,,,,,,,,,,,,,,,,,,,,,,,,,,,,,,,,,,,,,,,,33,pauca,,,,,545.2639,546.7118,0,1,0.908,,0,53,53,32,1,REAL,FAKE,,,,,,,,,,,,,,,,,
,,,,,,,,,60c8467d9872c0d83f695499,Spanish,13 or older,"no, only English or Spanish",no,2025-07-22_20h49.41.548,empathy_intonation_perc,2024.2.4,Win32,60.24096386,60c8467d9872c0d83f695499,687ed1b7e638a4cbf2f02089,68803162e4188473187ba793,,,,,,,,,,,,,,1,,,,,,,,,,,,,,,,,,,,,,,,,,,,,,,,,,,,,,,,,,,,,,,,,,,,,,,,,3,pulmones,,,,,546.714,548.16,0,0,0.9031,,0,54,54,2,1,REAL,FAKE,,,,,,,,,,,,,,,,,
,,,,,,,,,60c8467d9872c0d83f695499,Spanish,13 or older,"no, only English or Spanish",no,2025-07-22_20h49.41.548,empathy_intonation_perc,2024.2.4,Win32,60.24096386,60c8467d9872c0d83f695499,687ed1b7e638a4cbf2f02089,68803162e4188473187ba793,,,,,,,,,,,,,,1,,,,,,,,,,,,,,,,,,,,,,,,,,,,,,,,,,,,,,,,,,,,,,,,,,,,,,,,,60,matar,,,,,548.162,549.227,1,1,0.5241,,0,55,55,59,1,REAL,FAKE,,,,,,,,,,,,,,,,,
,,,,,,,,,60c8467d9872c0d83f695499,Spanish,13 or older,"no, only English or Spanish",no,2025-07-22_20h49.41.548,empathy_intonation_perc,2024.2.4,Win32,60.24096386,60c8467d9872c0d83f695499,687ed1b7e638a4cbf2f02089,68803162e4188473187ba793,,,,,,,,,,,,,,1,,,,,,,,,,,,,,,,,,,,,,,,,,,,,,,,,,,,,,,,,,,,,,,,,,,,,,,,,56,musgo,,,,,549.229,550.304,1,1,0.5349,,0,56,56,55,1,REAL,FAKE,,,,,,,,,,,,,,,,,
,,,,,,,,,60c8467d9872c0d83f695499,Spanish,13 or older,"no, only English or Spanish",no,2025-07-22_20h49.41.548,empathy_intonation_perc,2024.2.4,Win32,60.24096386,60c8467d9872c0d83f695499,687ed1b7e638a4cbf2f02089,68803162e4188473187ba793,,,,,,,,,,,,,,0,,,,,,,,,,,,,,,,,,,,,,,,,,,,,,,,,,,,,,,,,,,,,,,,,,,,,,,,,10,antar,,,,,550.3066,551.4958,1,0,0.6441,,0,57,57,9,1,REAL,FAKE,,,,,,,,,,,,,,,,,
,,,,,,,,,60c8467d9872c0d83f695499,Spanish,13 or older,"no, only English or Spanish",no,2025-07-22_20h49.41.548,empathy_intonation_perc,2024.2.4,Win32,60.24096386,60c8467d9872c0d83f695499,687ed1b7e638a4cbf2f02089,68803162e4188473187ba793,,,,,,,,,,,,,,1,,,,,,,,,,,,,,,,,,,,,,,,,,,,,,,,,,,,,,,,,,,,,,,,,,,,,,,,,36,loro,,,,,551.4978,553.0263,1,1,0.9911,,0,58,58,35,1,REAL,FAKE,,,,,,,,,,,,,,,,,
,,,,,,,,,60c8467d9872c0d83f695499,Spanish,13 or older,"no, only English or Spanish",no,2025-07-22_20h49.41.548,empathy_intonation_perc,2024.2.4,Win32,60.24096386,60c8467d9872c0d83f695499,687ed1b7e638a4cbf2f02089,68803162e4188473187ba793,,,,,,,,,,,,,,1,,,,,,,,,,,,,,,,,,,,,,,,,,,,,,,,,,,,,,,,,,,,,,,,,,,,,,,,,69,engatusar,,,,,553.0279,555.6329,0,0,2.0628,,0,59,59,68,1,REAL,FAKE,,,,,,,,,,,,,,,,,
,,,,,,,,,60c8467d9872c0d83f695499,Spanish,13 or older,"no, only English or Spanish",no,2025-07-22_20h49.41.548,empathy_intonation_perc,2024.2.4,Win32,60.24096386,60c8467d9872c0d83f695499,687ed1b7e638a4cbf2f02089,68803162e4188473187ba793,,,,,,,,,,,,,,0,,,,,,,,,,,,,,,,,,,,,,,,,,,,,,,,,,,,,,,,,,,,,,,,,,,,,,,,,30,alardio,,,,,555.6366,557.0116,0,1,0.8279,,0,60,60,29,1,REAL,FAKE,,,,,,,,,,,,,,,,,
,,,,,,,,,60c8467d9872c0d83f695499,Spanish,13 or older,"no, only English or Spanish",no,2025-07-22_20h49.41.548,empathy_intonation_perc,2024.2.4,Win32,60.24096386,60c8467d9872c0d83f695499,687ed1b7e638a4cbf2f02089,68803162e4188473187ba793,,,,,,,,,,,,,,1,,,,,,,,,,,,,,,,,,,,,,,,,,,,,,,,,,,,,,,,,,,,,,,,,,,,,,,,,9,hacha,,,,,557.0138,558.3406,1,1,0.7904,,0,61,61,8,1,REAL,FAKE,,,,,,,,,,,,,,,,,
,,,,,,,,,60c8467d9872c0d83f695499,Spanish,13 or older,"no, only English or Spanish",no,2025-07-22_20h49.41.548,empathy_intonation_perc,2024.2.4,Win32,60.24096386,60c8467d9872c0d83f695499,687ed1b7e638a4cbf2f02089,68803162e4188473187ba793,,,,,,,,,,,,,,1,,,,,,,,,,,,,,,,,,,,,,,,,,,,,,,,,,,,,,,,,,,,,,,,,,,,,,,,,24,látigo,,,,,558.3425,559.5575,0,0,0.6689,,0,62,62,23,1,REAL,FAKE,,,,,,,,,,,,,,,,,
,,,,,,,,,60c8467d9872c0d83f695499,Spanish,13 or older,"no, only English or Spanish",no,2025-07-22_20h49.41.548,empathy_intonation_perc,2024.2.4,Win32,60.24096386,60c8467d9872c0d83f695499,687ed1b7e638a4cbf2f02089,68803162e4188473187ba793,,,,,,,,,,,,,,1,,,,,,,,,,,,,,,,,,,,,,,,,,,,,,,,,,,,,,,,,,,,,,,,,,,,,,,,,22,lacayo,,,,,559.5595,560.8671,0,0,0.7651,,0,63,63,21,1,REAL,FAKE,,,,,,,,,,,,,,,,,
,,,,,,,,,60c8467d9872c0d83f695499,Spanish,13 or older,"no, only English or Spanish",no,2025-07-22_20h49.41.548,empathy_intonation_perc,2024.2.4,Win32,60.24096386,60c8467d9872c0d83f695499,687ed1b7e638a4cbf2f02089,68803162e4188473187ba793,,,,,,,,,,,,,,1,,,,,,,,,,,,,,,,,,,,,,,,,,,,,,,,,,,,,,,,,,,,,,,,,,,,,,,,,34,aviso,,,,,560.8694,561.9733,1,1,0.5577,,0,64,64,33,1,REAL,FAKE,,,,,,,,,,,,,,,,,
,,,,,,,,,60c8467d9872c0d83f695499,Spanish,13 or older,"no, only English or Spanish",no,2025-07-22_20h49.41.548,empathy_intonation_perc,2024.2.4,Win32,60.24096386,60c8467d9872c0d83f695499,687ed1b7e638a4cbf2f02089,68803162e4188473187ba793,,,,,,,,,,,,,,1,,,,,,,,,,,,,,,,,,,,,,,,,,,,,,,,,,,,,,,,,,,,,,,,,,,,,,,,,48,ladrón,,,,,561.9752,563.1375,1,1,0.6208,,0,65,65,47,1,REAL,FAKE,,,,,,,,,,,,,,,,,
,,,,,,,,,60c8467d9872c0d83f695499,Spanish,13 or older,"no, only English or Spanish",no,2025-07-22_20h49.41.548,empathy_intonation_perc,2024.2.4,Win32,60.24096386,60c8467d9872c0d83f695499,687ed1b7e638a4cbf2f02089,68803162e4188473187ba793,,,,,,,,,,,,,,1,,,,,,,,,,,,,,,,,,,,,,,,,,,,,,,,,,,,,,,,,,,,,,,,,,,,,,,,,5,zapato,,,,,563.14,564.3593,1,1,0.6922,,0,66,66,4,1,REAL,FAKE,,,,,,,,,,,,,,,,,
,,,,,,,,,60c8467d9872c0d83f695499,Spanish,13 or older,"no, only English or Spanish",no,2025-07-22_20h49.41.548,empathy_intonation_perc,2024.2.4,Win32,60.24096386,60c8467d9872c0d83f695499,687ed1b7e638a4cbf2f02089,68803162e4188473187ba793,,,,,,,,,,,,,,0,,,,,,,,,,,,,,,,,,,,,,,,,,,,,,,,,,,,,,,,,,,,,,,,,,,,,,,,,72,pemición,,,,,564.3612,566.0178,0,1,1.1184,,0,67,67,71,1,REAL,FAKE,,,,,,,,,,,,,,,,,
,,,,,,,,,60c8467d9872c0d83f695499,Spanish,13 or older,"no, only English or Spanish",no,2025-07-22_20h49.41.548,empathy_intonation_perc,2024.2.4,Win32,60.24096386,60c8467d9872c0d83f695499,687ed1b7e638a4cbf2f02089,68803162e4188473187ba793,,,,,,,,,,,,,,0,,,,,,,,,,,,,,,,,,,,,,,,,,,,,,,,,,,,,,,,,,,,,,,,,,,,,,,,,17,floroso,,,,,566.0199,567.5059,0,1,0.9406,,0,68,68,16,1,REAL,FAKE,,,,,,,,,,,,,,,,,
,,,,,,,,,60c8467d9872c0d83f695499,Spanish,13 or older,"no, only English or Spanish",no,2025-07-22_20h49.41.548,empathy_intonation_perc,2024.2.4,Win32,60.24096386,60c8467d9872c0d83f695499,687ed1b7e638a4cbf2f02089,68803162e4188473187ba793,,,,,,,,,,,,,,1,,,,,,,,,,,,,,,,,,,,,,,,,,,,,,,,,,,,,,,,,,,,,,,,,,,,,,,,,71,polvoriento,,,,,567.508,569.0076,0,0,0.9752,,0,69,69,70,1,REAL,FAKE,,,,,,,,,,,,,,,,,
,,,,,,,,,60c8467d9872c0d83f695499,Spanish,13 or older,"no, only English or Spanish",no,2025-07-22_20h49.41.548,empathy_intonation_perc,2024.2.4,Win32,60.24096386,60c8467d9872c0d83f695499,687ed1b7e638a4cbf2f02089,68803162e4188473187ba793,,,,,,,,,,,,,,1,,,,,,,,,,,,,,,,,,,,,,,,,,,,,,,,,,,,,,,,,,,,,,,,,,,,,,,,,39,torpe,,,,,569.0099,570.4339,0,0,0.8867,,0,70,70,38,1,REAL,FAKE,,,,,,,,,,,,,,,,,
,,,,,,,,,60c8467d9872c0d83f695499,Spanish,13 or older,"no, only English or Spanish",no,2025-07-22_20h49.41.548,empathy_intonation_perc,2024.2.4,Win32,60.24096386,60c8467d9872c0d83f695499,687ed1b7e638a4cbf2f02089,68803162e4188473187ba793,,,,,,,,,,,,,,1,,,,,,,,,,,,,,,,,,,,,,,,,,,,,,,,,,,,,,,,,,,,,,,,,,,,,,,,,45,jilguero,,,,,570.4365,571.6545,0,0,0.691,,0,71,71,44,1,REAL,FAKE,,,,,,,,,,,,,,,,,
,,,,,,,,,60c8467d9872c0d83f695499,Spanish,13 or older,"no, only English or Spanish",no,2025-07-22_20h49.41.548,empathy_intonation_perc,2024.2.4,Win32,60.24096386,60c8467d9872c0d83f695499,687ed1b7e638a4cbf2f02089,68803162e4188473187ba793,,,,,,,,,,,,,,0,,,,,,,,,,,,,,,,,,,,,,,,,,,,,,,,,,,,,,,,,,,,,,,,,,,,,,,,,63,esposante,,,,,571.6568,573.483,0,1,1.2872,,0,72,72,62,1,REAL,FAKE,,,,,,,,,,,,,,,,,
,,,,,,,,,60c8467d9872c0d83f695499,Spanish,13 or older,"no, only English or Spanish",no,2025-07-22_20h49.41.548,empathy_intonation_perc,2024.2.4,Win32,60.24096386,60c8467d9872c0d83f695499,687ed1b7e638a4cbf2f02089,68803162e4188473187ba793,,,,,,,,,,,,,,1,,,,,,,,,,,,,,,,,,,,,,,,,,,,,,,,,,,,,,,,,,,,,,,,,,,,,,,,,13,helar,,,,,573.4849,574.5298,1,1,0.5135,,0,73,73,12,1,REAL,FAKE,,,,,,,,,,,,,,,,,
,,,,,,,,,60c8467d9872c0d83f695499,Spanish,13 or older,"no, only English or Spanish",no,2025-07-22_20h49.41.548,empathy_intonation_perc,2024.2.4,Win32,60.24096386,60c8467d9872c0d83f695499,687ed1b7e638a4cbf2f02089,68803162e4188473187ba793,,,,,,,,,,,,,,1,,,,,,,,,,,,,,,,,,,,,,,,,,,,,,,,,,,,,,,,,,,,,,,,,,,,,,,,,2,pellizcar,,,,,574.5332,575.8369,1,1,0.7589,,0,74,74,1,1,REAL,FAKE,,,,,,,,,,,,,,,,,
,,,,,,,,,60c8467d9872c0d83f695499,Spanish,13 or older,"no, only English or Spanish",no,2025-07-22_20h49.41.548,empathy_intonation_perc,2024.2.4,Win32,60.24096386,60c8467d9872c0d83f695499,687ed1b7e638a4cbf2f02089,68803162e4188473187ba793,,,,,,,,,,,,,,0,,,,,,,,,,,,,,,,,,,,,,,,,,,,,,,,,,,,,,,,,,,,,,,,,,,,,,,,,8,cadeña,,,,,575.8388,576.9863,1,0,0.6045,,0,75,75,7,1,REAL,FAKE,,,,,,,,,,,,,,,,,
,,,,,,,,,60c8467d9872c0d83f695499,Spanish,13 or older,"no, only English or Spanish",no,2025-07-22_20h49.41.548,empathy_intonation_perc,2024.2.4,Win32,60.24096386,60c8467d9872c0d83f695499,687ed1b7e638a4cbf2f02089,68803162e4188473187ba793,,,,,,,,,,,,,,0,,,,,,,,,,,,,,,,,,,,,,,,,,,,,,,,,,,,,,,,,,,,,,,,,,,,,,,,,50,flamida,,,,,576.9886,578.3685,0,1,0.8408,,0,76,76,49,1,REAL,FAKE,,,,,,,,,,,,,,,,,
,,,,,,,,,60c8467d9872c0d83f695499,Spanish,13 or older,"no, only English or Spanish",no,2025-07-22_20h49.41.548,empathy_intonation_perc,2024.2.4,Win32,60.24096386,60c8467d9872c0d83f695499,687ed1b7e638a4cbf2f02089,68803162e4188473187ba793,,,,,,,,,,,,,,1,,,,,,,,,,,,,,,,,,,,,,,,,,,,,,,,,,,,,,,,,,,,,,,,,,,,,,,,,62,flaco,,,,,578.3706,579.682,0,0,0.7721,,0,77,77,61,1,REAL,FAKE,,,,,,,,,,,,,,,,,
,,,,,,,,,60c8467d9872c0d83f695499,Spanish,13 or older,"no, only English or Spanish",no,2025-07-22_20h49.41.548,empathy_intonation_perc,2024.2.4,Win32,60.24096386,60c8467d9872c0d83f695499,687ed1b7e638a4cbf2f02089,68803162e4188473187ba793,,,,,,,,,,,,,,1,,,,,,,,,,,,,,,,,,,,,,,,,,,,,,,,,,,,,,,,,,,,,,,,,,,,,,,,,46,martillo,,,,,579.684,580.9135,0,0,0.7044,,0,78,78,45,1,REAL,FAKE,,,,,,,,,,,,,,,,,
,,,,,,,,,60c8467d9872c0d83f695499,Spanish,13 or older,"no, only English or Spanish",no,2025-07-22_20h49.41.548,empathy_intonation_perc,2024.2.4,Win32,60.24096386,60c8467d9872c0d83f695499,687ed1b7e638a4cbf2f02089,68803162e4188473187ba793,,,,,,,,,,,,,,1,,,,,,,,,,,,,,,,,,,,,,,,,,,,,,,,,,,,,,,,,,,,,,,,,,,,,,,,,81,pozo,,,,,580.9158,582.1671,0,0,0.708,,0,79,79,80,1,REAL,FAKE,,,,,,,,,,,,,,,,,
,,,,,,,,,60c8467d9872c0d83f695499,Spanish,13 or older,"no, only English or Spanish",no,2025-07-22_20h49.41.548,empathy_intonation_perc,2024.2.4,Win32,60.24096386,60c8467d9872c0d83f695499,687ed1b7e638a4cbf2f02089,68803162e4188473187ba793,,,,,,,,,,,,,,1,,,,,,,,,,,,,,,,,,,,,,,,,,,,,,,,,,,,,,,,,,,,,,,,,,,,,,,,,31,pandilla,,,,,582.169,584.1346,1,1,1.4265,,0,80,80,30,1,REAL,FAKE,,,,,,,,,,,,,,,,,
,,,,,,,,,60c8467d9872c0d83f695499,Spanish,13 or older,"no, only English or Spanish",no,2025-07-22_20h49.41.548,empathy_intonation_perc,2024.2.4,Win32,60.24096386,60c8467d9872c0d83f695499,687ed1b7e638a4cbf2f02089,68803162e4188473187ba793,,,,,,,,,,,,,,0,,,,,,,,,,,,,,,,,,,,,,,,,,,,,,,,,,,,,,,,,,,,,,,,,,,,,,,,,19,brecedad,,,,,584.1363,585.3923,0,1,0.7335,,0,81,81,18,1,REAL,FAKE,,,,,,,,,,,,,,,,,
,,,,,,,,,60c8467d9872c0d83f695499,Spanish,13 or older,"no, only English or Spanish",no,2025-07-22_20h49.41.548,empathy_intonation_perc,2024.2.4,Win32,60.24096386,60c8467d9872c0d83f695499,687ed1b7e638a4cbf2f02089,68803162e4188473187ba793,,,,,,,,,,,,,,1,,,,,,,,,,,,,,,,,,,,,,,,,,,,,,,,,,,,,,,,,,,,,,,,,,,,,,,,,40,alfombra,,,,,585.3957,586.5452,0,0,0.6044,,0,82,82,39,1,REAL,FAKE,,,,,,,,,,,,,,,,,
,,,,,,,,,60c8467d9872c0d83f695499,Spanish,13 or older,"no, only English or Spanish",no,2025-07-22_20h49.41.548,empathy_intonation_perc,2024.2.4,Win32,60.24096386,60c8467d9872c0d83f695499,687ed1b7e638a4cbf2f02089,68803162e4188473187ba793,,,,,,,,,,,,,,0,,,,,,,,,,,,,,,,,,,,,,,,,,,,,,,,,,,,,,,,,,,,,,,,,,,,,,,,,87,grodo,,,,,586.5472,588.7803,1,0,1.6888,,0,83,83,86,1,REAL,FAKE,,,,,,,,,,,,,,,,,
,,,,,,,,,60c8467d9872c0d83f695499,Spanish,13 or older,"no, only English or Spanish",no,2025-07-22_20h49.41.548,empathy_intonation_perc,2024.2.4,Win32,60.24096386,60c8467d9872c0d83f695499,687ed1b7e638a4cbf2f02089,68803162e4188473187ba793,,,,,,,,,,,,,,1,,,,,,,,,,,,,,,,,,,,,,,,,,,,,,,,,,,,,,,,,,,,,,,,,,,,,,,,,38,estornudar,,,,,588.7823,589.9145,0,0,0.5906,,0,84,84,37,1,REAL,FAKE,,,,,,,,,,,,,,,,,
,,,,,,,,,60c8467d9872c0d83f695499,Spanish,13 or older,"no, only English or Spanish",no,2025-07-22_20h49.41.548,empathy_intonation_perc,2024.2.4,Win32,60.24096386,60c8467d9872c0d83f695499,687ed1b7e638a4cbf2f02089,68803162e4188473187ba793,,,,,,,,,,,,,,0,,,,,,,,,,,,,,,,,,,,,,,,,,,,,,,,,,,,,,,,,,,,,,,,,,,,,,,,,84,escuto,,,,,589.9162,591.5154,0,1,1.0738,,0,85,85,83,1,REAL,FAKE,,,,,,,,,,,,,,,,,
,,,,,,,,,60c8467d9872c0d83f695499,Spanish,13 or older,"no, only English or Spanish",no,2025-07-22_20h49.41.548,empathy_intonation_perc,2024.2.4,Win32,60.24096386,60c8467d9872c0d83f695499,687ed1b7e638a4cbf2f02089,68803162e4188473187ba793,,,,,,,,,,,,,,1,,,,,,,,,,,,,,,,,,,,,,,,,,,,,,,,,,,,,,,,,,,,,,,,,,,,,,,,,43,canela,,,,,591.5181,592.7461,1,1,0.705,,0,86,86,42,1,REAL,FAKE,,,,,,,,,,,,,,,,,
,,,,,,,,,60c8467d9872c0d83f695499,Spanish,13 or older,"no, only English or Spanish",no,2025-07-22_20h49.41.548,empathy_intonation_perc,2024.2.4,Win32,60.24096386,60c8467d9872c0d83f695499,687ed1b7e638a4cbf2f02089,68803162e4188473187ba793,,,,,,,,,,,,,,1,,,,,,,,,,,,,,,,,,,,,,,,,,,,,,,,,,,,,,,,,,,,,,,,,,,,,,,,,73,hervidor,,,,,592.7482,593.931,0,0,0.6409,,0,87,87,72,1,REAL,FAKE,,,,,,,,,,,,,,,,,
,,,,,,,,,60c8467d9872c0d83f695499,Spanish,13 or older,"no, only English or Spanish",no,2025-07-22_20h49.41.548,empathy_intonation_perc,2024.2.4,Win32,60.24096386,60c8467d9872c0d83f695499,687ed1b7e638a4cbf2f02089,68803162e4188473187ba793,,,,,,,,,,,,,,1,,,,,,,,,,,,,,,,,,,,,,,,,,,,,,,,,,,,,,,,,,,,,,,,,,,,,,,,,54,fomentar,,,,,593.9331,595.1743,0,0,0.7182,,0,88,88,53,1,REAL,FAKE,,,,,,,,,,,,,,,,,
,,,,,,,,,60c8467d9872c0d83f695499,Spanish,13 or older,"no, only English or Spanish",no,2025-07-22_20h49.41.548,empathy_intonation_perc,2024.2.4,Win32,60.24096386,60c8467d9872c0d83f695499,687ed1b7e638a4cbf2f02089,68803162e4188473187ba793,,,,,,,,,,,,,,1,,,,,,,,,,,,,,,,,,,,,,,,,,,,,,,,,,,,,,,,,,,,,,,,,,,,,,,,,52,camisa,,,,,595.1763,596.4609,1,1,0.7531,,0,89,89,51,1,REAL,FAKE,,,,,,,,,,,,,,,,,
,,,,,,,,,60c8467d9872c0d83f695499,Spanish,13 or older,"no, only English or Spanish",no,2025-07-22_20h49.41.548,empathy_intonation_perc,2024.2.4,Win32,60.24096386,60c8467d9872c0d83f695499,687ed1b7e638a4cbf2f02089,68803162e4188473187ba793,,,,,,,,,,,,,,1,,,,,,,,,,,,,,,,,,,,,,,,,,,,,,,,,,,,,,,,,,,,,,,,,,,,,,,,,91,click the 1 key.,,,,,596.464,598.2425,1,1,1.2377,,0,90,90,90,1,REAL,FAKE,,,,,,,,,,,,,,,,,
,,,,,,,,,60c8467d9872c0d83f695499,Spanish,13 or older,"no, only English or Spanish",no,2025-07-22_20h49.41.548,empathy_intonation_perc,2024.2.4,Win32,60.24096386,60c8467d9872c0d83f695499,687ed1b7e638a4cbf2f02089,68803162e4188473187ba793,,,,,,,,,,,,,,1,,,,,,,,,,,,,,,,,,,,,,,,,,,,,,,,,,,,,,,,,,,,,,,,,,,,,,,,,67,cabello,,,,,598.2443,599.921,1,1,1.1337,,0,91,91,66,1,REAL,FAKE,,,,,,,,,,,,,,,,,
,,,,,,,,,60c8467d9872c0d83f695499,Spanish,13 or older,"no, only English or Spanish",no,2025-07-22_20h49.41.548,empathy_intonation_perc,2024.2.4,Win32,60.24096386,60c8467d9872c0d83f695499,687ed1b7e638a4cbf2f02089,68803162e4188473187ba793,,,,,,,,,,,,,,,,,,,,,,,,,,,,,,,,,,,,,,,,,,,,,,,,,,,,,,,,,,,,,,,,,,,,,,,,,,,,,,,,,,,,,,,,,,599.922,610.6598,,,,,,,,,,,,,,,
,,,,,,,,,60c8467d9872c0d83f695499,Spanish,13 or older,"no, only English or Spanish",no,2025-07-22_20h49.41.548,empathy_intonation_perc,2024.2.4,Win32,60.24096386,60c8467d9872c0d83f695499,687ed1b7e638a4cbf2f02089,68803162e4188473187ba793,,,,,,,,,,,,,1,,,,,,,,,,,,,,,,,,,,,,,,,,,,,,,,,,,,,,,,,,,,,,,,,,,,,,,,,,,,,,,,,,,,,,,,,,,,,,,610.7195,617.2341,slightly agree,0,0,0,0,1,I can easily tell if someone else wants to enter a conversation.,1,0,1,0,,
,,,,,,,,,60c8467d9872c0d83f695499,Spanish,13 or older,"no, only English or Spanish",no,2025-07-22_20h49.41.548,empathy_intonation_perc,2024.2.4,Win32,60.24096386,60c8467d9872c0d83f695499,687ed1b7e638a4cbf2f02089,68803162e4188473187ba793,,,,,,,,,,,,,2,,,,,,,,,,,,,,,,,,,,,,,,,,,,,,,,,,,,,,,,,,,,,,,,,,,,,,,,,,,,,,,,,,,,,,,,,,,,,,,617.2362,619.8848,strongly agree,0,1,1,1,1,I prefer animals to humans.,0,1,0,0,,
,,,,,,,,,60c8467d9872c0d83f695499,Spanish,13 or older,"no, only English or Spanish",no,2025-07-22_20h49.41.548,empathy_intonation_perc,2024.2.4,Win32,60.24096386,60c8467d9872c0d83f695499,687ed1b7e638a4cbf2f02089,68803162e4188473187ba793,,,,,,,,,,,,,3,,,,,,,,,,,,,,,,,,,,,,,,,,,,,,,,,,,,,,,,,,,,,,,,,,,,,,,,,,,,,,,,,,,,,,,,,,,,,,,619.8869,621.3849,strongly agree,0,2,2,2,1,I try to keep up with the current trends and fashions.,0,1,0,0,,
,,,,,,,,,60c8467d9872c0d83f695499,Spanish,13 or older,"no, only English or Spanish",no,2025-07-22_20h49.41.548,empathy_intonation_perc,2024.2.4,Win32,60.24096386,60c8467d9872c0d83f695499,687ed1b7e638a4cbf2f02089,68803162e4188473187ba793,,,,,,,,,,,,,4,,,,,,,,,,,,,,,,,,,,,,,,,,,,,,,,,,,,,,,,,,,,,,,,,,,,,,,,,,,,,,,,,,,,,,,,,,,,,,,621.3873,627.8677,slightly disagree,0,3,3,3,1,"I find it difficult to explain to others things that I understand easily,   when they don't understand it first time.",1,0,0,1,,
,,,,,,,,,60c8467d9872c0d83f695499,Spanish,13 or older,"no, only English or Spanish",no,2025-07-22_20h49.41.548,empathy_intonation_perc,2024.2.4,Win32,60.24096386,60c8467d9872c0d83f695499,687ed1b7e638a4cbf2f02089,68803162e4188473187ba793,,,,,,,,,,,,,5,,,,,,,,,,,,,,,,,,,,,,,,,,,,,,,,,,,,,,,,,,,,,,,,,,,,,,,,,,,,,,,,,,,,,,,,,,,,,,,627.869,631.5028,slightly agree,0,4,4,4,1,I dream most nights.,0,1,0,0,,
,,,,,,,,,60c8467d9872c0d83f695499,Spanish,13 or older,"no, only English or Spanish",no,2025-07-22_20h49.41.548,empathy_intonation_perc,2024.2.4,Win32,60.24096386,60c8467d9872c0d83f695499,687ed1b7e638a4cbf2f02089,68803162e4188473187ba793,,,,,,,,,,,,,6,,,,,,,,,,,,,,,,,,,,,,,,,,,,,,,,,,,,,,,,,,,,,,,,,,,,,,,,,,,,,,,,,,,,,,,,,,,,,,,631.5047,634.7504,slightly agree,0,5,5,5,1,I really enjoy caring for other people.,1,0,1,0,,
,,,,,,,,,60c8467d9872c0d83f695499,Spanish,13 or older,"no, only English or Spanish",no,2025-07-22_20h49.41.548,empathy_intonation_perc,2024.2.4,Win32,60.24096386,60c8467d9872c0d83f695499,687ed1b7e638a4cbf2f02089,68803162e4188473187ba793,,,,,,,,,,,,,7,,,,,,,,,,,,,,,,,,,,,,,,,,,,,,,,,,,,,,,,,,,,,,,,,,,,,,,,,,,,,,,,,,,,,,,,,,,,,,,634.7525,637.5685,slightly agree,0,6,6,6,1,I try to solve my own problems rather than discussing them with others.,0,1,0,0,,
,,,,,,,,,60c8467d9872c0d83f695499,Spanish,13 or older,"no, only English or Spanish",no,2025-07-22_20h49.41.548,empathy_intonation_perc,2024.2.4,Win32,60.24096386,60c8467d9872c0d83f695499,687ed1b7e638a4cbf2f02089,68803162e4188473187ba793,,,,,,,,,,,,,8,,,,,,,,,,,,,,,,,,,,,,,,,,,,,,,,,,,,,,,,,,,,,,,,,,,,,,,,,,,,,,,,,,,,,,,,,,,,,,,637.5714,640.9329,slightly agree,0,7,7,7,1,I find it hard to know what to do in a social situation.,1,0,0,1,,
,,,,,,,,,60c8467d9872c0d83f695499,Spanish,13 or older,"no, only English or Spanish",no,2025-07-22_20h49.41.548,empathy_intonation_perc,2024.2.4,Win32,60.24096386,60c8467d9872c0d83f695499,687ed1b7e638a4cbf2f02089,68803162e4188473187ba793,,,,,,,,,,,,,9,,,,,,,,,,,,,,,,,,,,,,,,,,,,,,,,,,,,,,,,,,,,,,,,,,,,,,,,,,,,,,,,,,,,,,,,,,,,,,,640.9348,643.3908,strongly disagree,0,8,8,8,1,I am at my best first thing in the morning.,0,1,0,0,,
,,,,,,,,,60c8467d9872c0d83f695499,Spanish,13 or older,"no, only English or Spanish",no,2025-07-22_20h49.41.548,empathy_intonation_perc,2024.2.4,Win32,60.24096386,60c8467d9872c0d83f695499,687ed1b7e638a4cbf2f02089,68803162e4188473187ba793,,,,,,,,,,,,,10,,,,,,,,,,,,,,,,,,,,,,,,,,,,,,,,,,,,,,,,,,,,,,,,,,,,,,,,,,,,,,,,,,,,,,,,,,,,,,,643.3938,647.436,slightly disagree,0,9,9,9,1,People often tell me that I went too far in driving my point home in a discussion.,1,0,0,1,,
