instructions_exposure.started,instructions_exposure.stopped,instructions_exposure_loop.thisRepN,instructions_exposure_loop.thisTrialN,instructions_exposure_loop.thisN,instructions_exposure_loop.thisIndex,instructions_exposure_loop.ran,instructions_text,continue_text,participant_id,"What variety of Spanish are you most familiar with? (e.g., Peruvian, Spanish, Mexican)",At what age did you begin learning Spanish?,Are you proficient in any languages other than English/Spanish?,"Are you familiar with Caribbean (e.g., Caribbean, Puerto Rican) or Galician Spanish?",date,expName,psychopyVersion,OS,frameRate,id,study_id,session,trial_exposure.started,trial_exposure.stopped,key_resp_exposure.keys,key_resp_exposure.corr,key_resp_exposure.rt,key_resp_exposure.duration,key_resp.keys,exposure_loop.thisRepN,exposure_loop.thisTrialN,exposure_loop.thisN,exposure_loop.thisIndex,exposure_loop.ran,item_num,correct_response,question,path,duration,instructions_2afc.started,instructions_2afc.stopped,instructions_2afc_loop.thisRepN,instructions_2afc_loop.thisTrialN,instructions_2afc_loop.thisN,instructions_2afc_loop.thisIndex,instructions_2afc_loop.ran,practice_2afc.started,practice_2afc.stopped,key_resp_2afc_practice.keys,key_resp_2afc_practice.corr,key_resp_2afc_practice.rt,key_resp_2afc_practice.duration,trials_2afc_practice_loop.thisRepN,trials_2afc_practice_loop.thisTrialN,trials_2afc_practice_loop.thisN,trials_2afc_practice_loop.thisIndex,trials_2afc_practice_loop.ran,check_2afc.started,check_2afc.stopped,trial_2afc.started,trial_2afc.stopped,key_resp_2afc_trial.keys,key_resp_2afc_trial.corr,key_resp_2afc_trial.rt,key_resp_2afc_trial.duration,trials_2afc_loop.thisRepN,trials_2afc_loop.thisTrialN,trials_2afc_loop.thisN,trials_2afc_loop.thisIndex,trials_2afc_loop.ran,target,variety,instructions_lextale.started,instructions_lextale.stopped,instructions_lextale_loop.thisRepN,instructions_lextale_loop.thisTrialN,instructions_lextale_loop.thisN,instructions_lextale_loop.thisIndex,instructions_lextale_loop.ran,practice_lextale.started,practice_lextale.stopped,key_resp_lextale_practice.keys,key_resp_lextale_practice.corr,key_resp_lextale_practice.rt,key_resp_lextale_practice.duration,practice_feedback_lextale.started,practice_feedback_lextale.stopped,trials_lextale_practice_loop.thisRepN,trials_lextale_practice_loop.thisTrialN,trials_lextale_practice_loop.thisN,trials_lextale_practice_loop.thisIndex,trials_lextale_practice_loop.ran,stim,word,prac_button_real,prac_button_false,check_lextale.started,check_lextale.stopped,trial_lextale.started,trial_lextale.stopped,key_resp_lextale_trial.keys,key_resp_lextale_trial.corr,key_resp_lextale_trial.rt,key_resp_lextale_trial.duration,trials_lextale_loop.thisRepN,trials_lextale_loop.thisTrialN,trials_lextale_loop.thisN,trials_lextale_loop.thisIndex,trials_lextale_loop.ran,button_real,button_false,instructions_eq.started,instructions_eq.stopped,trial_eq.started,trial_eq.stopped,slider_eq_trial.response,trials_eq_loop.thisRepN,trials_eq_loop.thisTrialN,trials_eq_loop.thisN,trials_eq_loop.thisIndex,trials_eq_loop.ran,item,is_test_item,is_distractor,is_agree_score,is_disagree_score,end_exp.started,end_exp.stopped
0.017,4.8109,0,0,0,0,1,"In the following task, you are going to hear a series of conversations.", (press the space bar to continue),60d8c6bc9686529cdc824a49,Spanish,13 or older,"no, only English or Spanish",no,2025-07-22_20h40.17.067,empathy_intonation_perc,2024.2.4,Win32,9.99000999,60d8c6bc9686529cdc824a49,687ed1b7e638a4cbf2f02089,68802f3108240a5654ef00c2,,,,,,,,,,,,,,,,,,,,,,,,,,,,,,,,,,,,,,,,,,,,,,,,,,,,,,,,,,,,,,,,,,,,,,,,,,,,,,,,,,,,,,,,,,,,,,,,,,,,,,,,,,
4.8115,12.1104,0,1,1,1,1,It is okay if you don't not 100% understand them!, (press the space bar to continue),60d8c6bc9686529cdc824a49,Spanish,13 or older,"no, only English or Spanish",no,2025-07-22_20h40.17.067,empathy_intonation_perc,2024.2.4,Win32,9.99000999,60d8c6bc9686529cdc824a49,687ed1b7e638a4cbf2f02089,68802f3108240a5654ef00c2,,,,,,,,,,,,,,,,,,,,,,,,,,,,,,,,,,,,,,,,,,,,,,,,,,,,,,,,,,,,,,,,,,,,,,,,,,,,,,,,,,,,,,,,,,,,,,,,,,,,,,,,,,
12.1122,18.4137,0,2,2,2,1,"After, you will read a sentence about the conversation and decide if it's true or false.", (press the space bar to continue),60d8c6bc9686529cdc824a49,Spanish,13 or older,"no, only English or Spanish",no,2025-07-22_20h40.17.067,empathy_intonation_perc,2024.2.4,Win32,9.99000999,60d8c6bc9686529cdc824a49,687ed1b7e638a4cbf2f02089,68802f3108240a5654ef00c2,,,,,,,,,,,,,,,,,,,,,,,,,,,,,,,,,,,,,,,,,,,,,,,,,,,,,,,,,,,,,,,,,,,,,,,,,,,,,,,,,,,,,,,,,,,,,,,,,,,,,,,,,,
18.416,23.6519,0,3,3,3,1,"If it's true, press '1' (True) and if it's false press '0' (False).", (press the space bar to continue),60d8c6bc9686529cdc824a49,Spanish,13 or older,"no, only English or Spanish",no,2025-07-22_20h40.17.067,empathy_intonation_perc,2024.2.4,Win32,9.99000999,60d8c6bc9686529cdc824a49,687ed1b7e638a4cbf2f02089,68802f3108240a5654ef00c2,,,,,,,,,,,,,,,,,,,,,,,,,,,,,,,,,,,,,,,,,,,,,,,,,,,,,,,,,,,,,,,,,,,,,,,,,,,,,,,,,,,,,,,,,,,,,,,,,,,,,,,,,,
,,,,,,,,,60d8c6bc9686529cdc824a49,Spanish,13 or older,"no, only English or Spanish",no,2025-07-22_20h40.17.067,empathy_intonation_perc,2024.2.4,Win32,9.99000999,60d8c6bc9686529cdc824a49,687ed1b7e638a4cbf2f02089,68802f3108240a5654ef00c2,23.6591,76.9697,1,1,6.1375,,,0,0,0,0,1,1,1,The son asked the mom if Aunt Marina is okay.,./stim/exposure_wavs/ga_stimuli_convo.wav,47,,,,,,,,,,,,,,,,,,,,,,,,,,,,,,,,,,,,,,,,,,,,,,,,,,,,,,,,,,,,,,,,,,,,,,,,,,,,,,,,,,,,,,,,,
,,,,,,,,,60d8c6bc9686529cdc824a49,Spanish,13 or older,"no, only English or Spanish",no,2025-07-22_20h40.17.067,empathy_intonation_perc,2024.2.4,Win32,9.99000999,60d8c6bc9686529cdc824a49,687ed1b7e638a4cbf2f02089,68802f3108240a5654ef00c2,76.9715,120.6799,0,1,7.5194,,,0,1,1,2,1,3,0,The mom already has rice.,./stim/exposure_wavs/pr_stimuli_convo.wav,36,,,,,,,,,,,,,,,,,,,,,,,,,,,,,,,,,,,,,,,,,,,,,,,,,,,,,,,,,,,,,,,,,,,,,,,,,,,,,,,,,,,,,,,,,
,,,,,,,,,60d8c6bc9686529cdc824a49,Spanish,13 or older,"no, only English or Spanish",no,2025-07-22_20h40.17.067,empathy_intonation_perc,2024.2.4,Win32,9.99000999,60d8c6bc9686529cdc824a49,687ed1b7e638a4cbf2f02089,68802f3108240a5654ef00c2,120.6824,184.434,1,1,3.515,,,0,2,2,1,1,2,1,The mom asked the daughter if she already went to the supermarket.,./stim/exposure_wavs/dr_stimuli_convo.wav,60,,,,,,,,,,,,,,,,,,,,,,,,,,,,,,,,,,,,,,,,,,,,,,,,,,,,,,,,,,,,,,,,,,,,,,,,,,,,,,,,,,,,,,,,,
,,,,,,,"In the following task you are going to hear a series of utterances. 

  You will decide if the utterances sound like questions or not using your keyboard.", (press the spacebar to continue),60d8c6bc9686529cdc824a49,Spanish,13 or older,"no, only English or Spanish",no,2025-07-22_20h40.17.067,empathy_intonation_perc,2024.2.4,Win32,9.99000999,60d8c6bc9686529cdc824a49,687ed1b7e638a4cbf2f02089,68802f3108240a5654ef00c2,,,,,,,,,,,,,,,,,,184.4385,191.7765,0,0,0,0,1,,,,,,,,,,,,,,,,,,,,,,,,,,,,,,,,,,,,,,,,,,,,,,,,,,,,,,,,,,,,,,,,,,,,,,,,,,,,,,,,,,
,,,,,,,"If you believe the utterance is a question, type '1' (for 'yes') and if you do not 
  believe it is a question type '0' (for 'no').

  Let's practice a bit...", (press the spacebar to continue),60d8c6bc9686529cdc824a49,Spanish,13 or older,"no, only English or Spanish",no,2025-07-22_20h40.17.067,empathy_intonation_perc,2024.2.4,Win32,9.99000999,60d8c6bc9686529cdc824a49,687ed1b7e638a4cbf2f02089,68802f3108240a5654ef00c2,,,,,,,,,,,,,,,,,,191.7801,205.6535,0,1,1,1,1,,,,,,,,,,,,,,,,,,,,,,,,,,,,,,,,,,,,,,,,,,,,,,,,,,,,,,,,,,,,,,,,,,,,,,,,,,,,,,,,,,
,,,,,,,,,60d8c6bc9686529cdc824a49,Spanish,13 or older,"no, only English or Spanish",no,2025-07-22_20h40.17.067,empathy_intonation_perc,2024.2.4,Win32,9.99000999,60d8c6bc9686529cdc824a49,687ed1b7e638a4cbf2f02089,68802f3108240a5654ef00c2,,,,,,,,,,,,,,1,,./stim/wavs/argentine_question_filler_Mi-vecino-habla-mucho.wav,,,,,,,,,205.6599,209.1722,1,1,2.8915,,0,0,0,1,1,,,,,,,,,,,,,,,,,,,,,,,,,,,,,,,,,,,,,,,,,,,,,,,,,,,,,,,,,,,,,,,,,,,,,,,
,,,,,,,,,60d8c6bc9686529cdc824a49,Spanish,13 or older,"no, only English or Spanish",no,2025-07-22_20h40.17.067,empathy_intonation_perc,2024.2.4,Win32,9.99000999,60d8c6bc9686529cdc824a49,687ed1b7e638a4cbf2f02089,68802f3108240a5654ef00c2,,,,,,,,,,,,,,1,,./stim/wavs/castilian_question_filler_Mi-esposo-conoce-al-chico.wav,,,,,,,,,209.173,212.9469,0,0,3.0584,,0,1,1,0,1,,,,,,,,,,,,,,,,,,,,,,,,,,,,,,,,,,,,,,,,,,,,,,,,,,,,,,,,,,,,,,,,,,,,,,,
,,,,,,,,,60d8c6bc9686529cdc824a49,Spanish,13 or older,"no, only English or Spanish",no,2025-07-22_20h40.17.067,empathy_intonation_perc,2024.2.4,Win32,9.99000999,60d8c6bc9686529cdc824a49,687ed1b7e638a4cbf2f02089,68802f3108240a5654ef00c2,,,,,,,,,,,,,,0,,./stim/wavs/andalusian_statement_filler_Alberto-nunca-se-afeita.wav,,,,,,,,,212.9475,215.6785,0,1,2.1043,,0,2,2,5,1,,,,,,,,,,,,,,,,,,,,,,,,,,,,,,,,,,,,,,,,,,,,,,,,,,,,,,,,,,,,,,,,,,,,,,,
,,,,,,,,,60d8c6bc9686529cdc824a49,Spanish,13 or older,"no, only English or Spanish",no,2025-07-22_20h40.17.067,empathy_intonation_perc,2024.2.4,Win32,9.99000999,60d8c6bc9686529cdc824a49,687ed1b7e638a4cbf2f02089,68802f3108240a5654ef00c2,,,,,,,,,,,,,,1,,./stim/wavs/chilean_question_filler_Mi-padre-cantaba-bien.wav,,,,,,,,,215.6793,218.9618,1,1,2.538,,0,3,3,2,1,,,,,,,,,,,,,,,,,,,,,,,,,,,,,,,,,,,,,,,,,,,,,,,,,,,,,,,,,,,,,,,,,,,,,,,
,,,,,,,,,60d8c6bc9686529cdc824a49,Spanish,13 or older,"no, only English or Spanish",no,2025-07-22_20h40.17.067,empathy_intonation_perc,2024.2.4,Win32,9.99000999,60d8c6bc9686529cdc824a49,687ed1b7e638a4cbf2f02089,68802f3108240a5654ef00c2,,,,,,,,,,,,,,0,,./stim/wavs/peruvian_statement_filler_El-nino-habla-con-su-madre.wav,,,,,,,,,218.9624,222.1792,0,1,2.4997,,0,4,4,6,1,,,,,,,,,,,,,,,,,,,,,,,,,,,,,,,,,,,,,,,,,,,,,,,,,,,,,,,,,,,,,,,,,,,,,,,
,,,,,,,,,60d8c6bc9686529cdc824a49,Spanish,13 or older,"no, only English or Spanish",no,2025-07-22_20h40.17.067,empathy_intonation_perc,2024.2.4,Win32,9.99000999,60d8c6bc9686529cdc824a49,687ed1b7e638a4cbf2f02089,68802f3108240a5654ef00c2,,,,,,,,,,,,,,0,,./stim/wavs/cuban_statement_filler_Cocinabas-por-la-noche.wav,,,,,,,,,222.1803,225.0738,0,1,2.2732,,0,5,5,4,1,,,,,,,,,,,,,,,,,,,,,,,,,,,,,,,,,,,,,,,,,,,,,,,,,,,,,,,,,,,,,,,,,,,,,,,
,,,,,,,,,60d8c6bc9686529cdc824a49,Spanish,13 or older,"no, only English or Spanish",no,2025-07-22_20h40.17.067,empathy_intonation_perc,2024.2.4,Win32,9.99000999,60d8c6bc9686529cdc824a49,687ed1b7e638a4cbf2f02089,68802f3108240a5654ef00c2,,,,,,,,,,,,,,0,,./stim/wavs/puertorican_statement_filler_La-nina-pinta-con-su-amiga.wav,,,,,,,,,225.0744,227.8937,0,1,2.1115,,0,6,6,7,1,,,,,,,,,,,,,,,,,,,,,,,,,,,,,,,,,,,,,,,,,,,,,,,,,,,,,,,,,,,,,,,,,,,,,,,
,,,,,,,,,60d8c6bc9686529cdc824a49,Spanish,13 or older,"no, only English or Spanish",no,2025-07-22_20h40.17.067,empathy_intonation_perc,2024.2.4,Win32,9.99000999,60d8c6bc9686529cdc824a49,687ed1b7e638a4cbf2f02089,68802f3108240a5654ef00c2,,,,,,,,,,,,,,1,,./stim/wavs/mexican_question_filler_Felipe-no-tiene-contrasena.wav,,,,,,,,,227.8945,230.4235,1,1,1.8988,,0,7,7,3,1,,,,,,,,,,,,,,,,,,,,,,,,,,,,,,,,,,,,,,,,,,,,,,,,,,,,,,,,,,,,,,,,,,,,,,,
,,,,,,,,,60d8c6bc9686529cdc824a49,Spanish,13 or older,"no, only English or Spanish",no,2025-07-22_20h40.17.067,empathy_intonation_perc,2024.2.4,Win32,9.99000999,60d8c6bc9686529cdc824a49,687ed1b7e638a4cbf2f02089,68802f3108240a5654ef00c2,,,,,,,,,,,,,,,,,,,,,,,,,,,,,,,,,,,,230.4241,234.0471,,,,,,,,,,,,,,,,,,,,,,,,,,,,,,,,,,,,,,,,,,,,,,,,,,,,,,,,,,,,,,,,,,,,,
,,,,,,,,,60d8c6bc9686529cdc824a49,Spanish,13 or older,"no, only English or Spanish",no,2025-07-22_20h40.17.067,empathy_intonation_perc,2024.2.4,Win32,9.99000999,60d8c6bc9686529cdc824a49,687ed1b7e638a4cbf2f02089,68802f3108240a5654ef00c2,,,,,,,,,,,,,58,0,,./stim/wavs/mexican_match_declarative-broad-focus_Daniel-iba-a-Bolivia.wav,,,,,,,,,,,,,,,,,,,,,,234.0553,237.117,0,1,2.3896,,0,0,0,57,1,0,mexican,,,,,,,,,,,,,,,,,,,,,,,,,,,,,,,,,,,,,,,,,,,,,,,,,,,,,,,,
,,,,,,,,,60d8c6bc9686529cdc824a49,Spanish,13 or older,"no, only English or Spanish",no,2025-07-22_20h40.17.067,empathy_intonation_perc,2024.2.4,Win32,9.99000999,60d8c6bc9686529cdc824a49,687ed1b7e638a4cbf2f02089,68802f3108240a5654ef00c2,,,,,,,,,,,,,68,0,,./stim/wavs/puertorican_match_declarative-broad-focus_Maria-bebe-el-vino.wav,,,,,,,,,,,,,,,,,,,,,,237.1177,239.4943,0,1,1.7656,,0,1,1,67,1,0,puertorican,,,,,,,,,,,,,,,,,,,,,,,,,,,,,,,,,,,,,,,,,,,,,,,,,,,,,,,,
,,,,,,,,,60d8c6bc9686529cdc824a49,Spanish,13 or older,"no, only English or Spanish",no,2025-07-22_20h40.17.067,empathy_intonation_perc,2024.2.4,Win32,9.99000999,60d8c6bc9686529cdc824a49,687ed1b7e638a4cbf2f02089,68802f3108240a5654ef00c2,,,,,,,,,,,,,33,1,,./stim/wavs/cuban_mismatch_interrogative-total-yn_Mi-novio-viene-del-lago.wav,,,,,,,,,,,,,,,,,,,,,,239.495,242.2831,1,1,2.0515,,0,2,2,32,1,1,cuban,,,,,,,,,,,,,,,,,,,,,,,,,,,,,,,,,,,,,,,,,,,,,,,,,,,,,,,,
,,,,,,,,,60d8c6bc9686529cdc824a49,Spanish,13 or older,"no, only English or Spanish",no,2025-07-22_20h40.17.067,empathy_intonation_perc,2024.2.4,Win32,9.99000999,60d8c6bc9686529cdc824a49,687ed1b7e638a4cbf2f02089,68802f3108240a5654ef00c2,,,,,,,,,,,,,12,1,,./stim/wavs/cuban_match_interrogative-total-yn_Marta-abre-el-regalo.wav,,,,,,,,,,,,,,,,,,,,,,242.2842,244.9052,0,0,1.9961,,0,3,3,11,1,1,cuban,,,,,,,,,,,,,,,,,,,,,,,,,,,,,,,,,,,,,,,,,,,,,,,,,,,,,,,,
,,,,,,,,,60d8c6bc9686529cdc824a49,Spanish,13 or older,"no, only English or Spanish",no,2025-07-22_20h40.17.067,empathy_intonation_perc,2024.2.4,Win32,9.99000999,60d8c6bc9686529cdc824a49,687ed1b7e638a4cbf2f02089,68802f3108240a5654ef00c2,,,,,,,,,,,,,39,1,,./stim/wavs/mexican_mismatch_interrogative-total-yn_Mi-tia-odia-la-lluvia.wav,,,,,,,,,,,,,,,,,,,,,,244.9059,247.5491,1,1,2.0077,,0,4,4,38,1,0,mexican,,,,,,,,,,,,,,,,,,,,,,,,,,,,,,,,,,,,,,,,,,,,,,,,,,,,,,,,
,,,,,,,,,60d8c6bc9686529cdc824a49,Spanish,13 or older,"no, only English or Spanish",no,2025-07-22_20h40.17.067,empathy_intonation_perc,2024.2.4,Win32,9.99000999,60d8c6bc9686529cdc824a49,687ed1b7e638a4cbf2f02089,68802f3108240a5654ef00c2,,,,,,,,,,,,,78,0,,./stim/wavs/cuban_mismatch_declarative-broad-focus_Mi-tia-odia-la-lluvia.wav,,,,,,,,,,,,,,,,,,,,,,247.5499,250.4373,0,1,2.1473,,0,5,5,77,1,0,cuban,,,,,,,,,,,,,,,,,,,,,,,,,,,,,,,,,,,,,,,,,,,,,,,,,,,,,,,,
,,,,,,,,,60d8c6bc9686529cdc824a49,Spanish,13 or older,"no, only English or Spanish",no,2025-07-22_20h40.17.067,empathy_intonation_perc,2024.2.4,Win32,9.99000999,60d8c6bc9686529cdc824a49,687ed1b7e638a4cbf2f02089,68802f3108240a5654ef00c2,,,,,,,,,,,,,35,1,,./stim/wavs/mexican_mismatch_interrogative-total-yn_El-hombre-mira-la-luna.wav,,,,,,,,,,,,,,,,,,,,,,250.438,252.8077,0,0,1.6476,,0,6,6,34,1,0,mexican,,,,,,,,,,,,,,,,,,,,,,,,,,,,,,,,,,,,,,,,,,,,,,,,,,,,,,,,
,,,,,,,,,60d8c6bc9686529cdc824a49,Spanish,13 or older,"no, only English or Spanish",no,2025-07-22_20h40.17.067,empathy_intonation_perc,2024.2.4,Win32,9.99000999,60d8c6bc9686529cdc824a49,687ed1b7e638a4cbf2f02089,68802f3108240a5654ef00c2,,,,,,,,,,,,,52,0,,./stim/wavs/cuban_match_declarative-broad-focus_Daniel-iba-a-Bolivia.wav,,,,,,,,,,,,,,,,,,,,,,252.8083,255.4465,0,1,1.9487,,0,7,7,51,1,0,cuban,,,,,,,,,,,,,,,,,,,,,,,,,,,,,,,,,,,,,,,,,,,,,,,,,,,,,,,,
,,,,,,,,,60d8c6bc9686529cdc824a49,Spanish,13 or older,"no, only English or Spanish",no,2025-07-22_20h40.17.067,empathy_intonation_perc,2024.2.4,Win32,9.99000999,60d8c6bc9686529cdc824a49,687ed1b7e638a4cbf2f02089,68802f3108240a5654ef00c2,,,,,,,,,,,,,19,1,,./stim/wavs/puertorican_match_interrogative-total-yn_Ana-lleva-el-abrigo.wav,,,,,,,,,,,,,,,,,,,,,,255.447,257.7835,1,1,1.7088,,0,8,8,18,1,1,puertorican,,,,,,,,,,,,,,,,,,,,,,,,,,,,,,,,,,,,,,,,,,,,,,,,,,,,,,,,
,,,,,,,,,60d8c6bc9686529cdc824a49,Spanish,13 or older,"no, only English or Spanish",no,2025-07-22_20h40.17.067,empathy_intonation_perc,2024.2.4,Win32,9.99000999,60d8c6bc9686529cdc824a49,687ed1b7e638a4cbf2f02089,68802f3108240a5654ef00c2,,,,,,,,,,,,,27,1,,./stim/wavs/castilian_mismatch_interrogative-total-yn_Mi-madre-come-la-fruta.wav,,,,,,,,,,,,,,,,,,,,,,257.784,260.4356,1,1,2.0209,,0,9,9,26,1,0,castilian,,,,,,,,,,,,,,,,,,,,,,,,,,,,,,,,,,,,,,,,,,,,,,,,,,,,,,,,
,,,,,,,,,60d8c6bc9686529cdc824a49,Spanish,13 or older,"no, only English or Spanish",no,2025-07-22_20h40.17.067,empathy_intonation_perc,2024.2.4,Win32,9.99000999,60d8c6bc9686529cdc824a49,687ed1b7e638a4cbf2f02089,68802f3108240a5654ef00c2,,,,,,,,,,,,,48,0,,./stim/wavs/castilian_match_declarative-broad-focus_Maria-bebe-el-vino.wav,,,,,,,,,,,,,,,,,,,,,,260.4361,262.8939,0,1,1.7341,,0,10,10,47,1,0,castilian,,,,,,,,,,,,,,,,,,,,,,,,,,,,,,,,,,,,,,,,,,,,,,,,,,,,,,,,
,,,,,,,,,60d8c6bc9686529cdc824a49,Spanish,13 or older,"no, only English or Spanish",no,2025-07-22_20h40.17.067,empathy_intonation_perc,2024.2.4,Win32,9.99000999,60d8c6bc9686529cdc824a49,687ed1b7e638a4cbf2f02089,68802f3108240a5654ef00c2,,,,,,,,,,,,,51,0,,./stim/wavs/cuban_match_declarative-broad-focus_Ana-lleva-el-abrigo.wav,,,,,,,,,,,,,,,,,,,,,,262.8944,265.3988,0,1,1.8732,,0,11,11,50,1,0,cuban,,,,,,,,,,,,,,,,,,,,,,,,,,,,,,,,,,,,,,,,,,,,,,,,,,,,,,,,
,,,,,,,,,60d8c6bc9686529cdc824a49,Spanish,13 or older,"no, only English or Spanish",no,2025-07-22_20h40.17.067,empathy_intonation_perc,2024.2.4,Win32,9.99000999,60d8c6bc9686529cdc824a49,687ed1b7e638a4cbf2f02089,68802f3108240a5654ef00c2,,,,,,,,,,,,,9,1,,./stim/wavs/cuban_match_interrogative-total-yn_Manuela-vende-el-carro.wav,,,,,,,,,,,,,,,,,,,,,,265.3995,268.0009,1,1,1.9775,,0,12,12,8,1,1,cuban,,,,,,,,,,,,,,,,,,,,,,,,,,,,,,,,,,,,,,,,,,,,,,,,,,,,,,,,
,,,,,,,,,60d8c6bc9686529cdc824a49,Spanish,13 or older,"no, only English or Spanish",no,2025-07-22_20h40.17.067,empathy_intonation_perc,2024.2.4,Win32,9.99000999,60d8c6bc9686529cdc824a49,687ed1b7e638a4cbf2f02089,68802f3108240a5654ef00c2,,,,,,,,,,,,,64,0,,./stim/wavs/puertorican_match_declarative-broad-focus_Daniel-iba-a-Bolivia.wav,,,,,,,,,,,,,,,,,,,,,,268.0013,270.3501,0,1,1.6569,,0,13,13,63,1,0,puertorican,,,,,,,,,,,,,,,,,,,,,,,,,,,,,,,,,,,,,,,,,,,,,,,,,,,,,,,,
,,,,,,,,,60d8c6bc9686529cdc824a49,Spanish,13 or older,"no, only English or Spanish",no,2025-07-22_20h40.17.067,empathy_intonation_perc,2024.2.4,Win32,9.99000999,60d8c6bc9686529cdc824a49,687ed1b7e638a4cbf2f02089,68802f3108240a5654ef00c2,,,,,,,,,,,,,42,1,,./stim/wavs/puertorican_mismatch_interrogative-total-yn_La-maestra-vive-en-Paris.wav,,,,,,,,,,,,,,,,,,,,,,270.3507,272.7494,0,0,1.7832,,0,14,14,41,1,1,puertorican,,,,,,,,,,,,,,,,,,,,,,,,,,,,,,,,,,,,,,,,,,,,,,,,,,,,,,,,
,,,,,,,,,60d8c6bc9686529cdc824a49,Spanish,13 or older,"no, only English or Spanish",no,2025-07-22_20h40.17.067,empathy_intonation_perc,2024.2.4,Win32,9.99000999,60d8c6bc9686529cdc824a49,687ed1b7e638a4cbf2f02089,68802f3108240a5654ef00c2,,,,,,,,,,,,,56,0,,./stim/wavs/cuban_match_declarative-broad-focus_Marta-abre-el-regalo.wav,,,,,,,,,,,,,,,,,,,,,,272.7502,275.2055,0,1,1.8366,,0,15,15,55,1,0,cuban,,,,,,,,,,,,,,,,,,,,,,,,,,,,,,,,,,,,,,,,,,,,,,,,,,,,,,,,
,,,,,,,,,60d8c6bc9686529cdc824a49,Spanish,13 or older,"no, only English or Spanish",no,2025-07-22_20h40.17.067,empathy_intonation_perc,2024.2.4,Win32,9.99000999,60d8c6bc9686529cdc824a49,687ed1b7e638a4cbf2f02089,68802f3108240a5654ef00c2,,,,,,,,,,,,,81,0,,./stim/wavs/mexican_mismatch_declarative-broad-focus_La-maestra-vive-en-Paris.wav,,,,,,,,,,,,,,,,,,,,,,275.2061,277.4682,0,1,1.6447,,0,16,16,80,1,0,mexican,,,,,,,,,,,,,,,,,,,,,,,,,,,,,,,,,,,,,,,,,,,,,,,,,,,,,,,,
,,,,,,,,,60d8c6bc9686529cdc824a49,Spanish,13 or older,"no, only English or Spanish",no,2025-07-22_20h40.17.067,empathy_intonation_perc,2024.2.4,Win32,9.99000999,60d8c6bc9686529cdc824a49,687ed1b7e638a4cbf2f02089,68802f3108240a5654ef00c2,,,,,,,,,,,,,29,1,,./stim/wavs/castilian_mismatch_interrogative-total-yn_Mi-tia-odia-la-lluvia.wav,,,,,,,,,,,,,,,,,,,,,,277.4691,279.8836,1,1,1.7741,,0,17,17,28,1,0,castilian,,,,,,,,,,,,,,,,,,,,,,,,,,,,,,,,,,,,,,,,,,,,,,,,,,,,,,,,
,,,,,,,,,60d8c6bc9686529cdc824a49,Spanish,13 or older,"no, only English or Spanish",no,2025-07-22_20h40.17.067,empathy_intonation_perc,2024.2.4,Win32,9.99000999,60d8c6bc9686529cdc824a49,687ed1b7e638a4cbf2f02089,68802f3108240a5654ef00c2,,,,,,,,,,,,,36,1,,./stim/wavs/mexican_mismatch_interrogative-total-yn_El-nino-oye-el-rio.wav,,,,,,,,,,,,,,,,,,,,,,279.8843,282.2738,1,1,1.7613,,0,18,18,35,1,0,mexican,,,,,,,,,,,,,,,,,,,,,,,,,,,,,,,,,,,,,,,,,,,,,,,,,,,,,,,,
,,,,,,,,,60d8c6bc9686529cdc824a49,Spanish,13 or older,"no, only English or Spanish",no,2025-07-22_20h40.17.067,empathy_intonation_perc,2024.2.4,Win32,9.99000999,60d8c6bc9686529cdc824a49,687ed1b7e638a4cbf2f02089,68802f3108240a5654ef00c2,,,,,,,,,,,,,45,0,,./stim/wavs/castilian_match_declarative-broad-focus_David-leia-el-libro.wav,,,,,,,,,,,,,,,,,,,,,,282.2744,284.9295,0,1,1.9107,,0,19,19,44,1,0,castilian,,,,,,,,,,,,,,,,,,,,,,,,,,,,,,,,,,,,,,,,,,,,,,,,,,,,,,,,
,,,,,,,,,60d8c6bc9686529cdc824a49,Spanish,13 or older,"no, only English or Spanish",no,2025-07-22_20h40.17.067,empathy_intonation_perc,2024.2.4,Win32,9.99000999,60d8c6bc9686529cdc824a49,687ed1b7e638a4cbf2f02089,68802f3108240a5654ef00c2,,,,,,,,,,,,,38,1,,./stim/wavs/mexican_mismatch_interrogative-total-yn_Mi-novio-viene-del-lago.wav,,,,,,,,,,,,,,,,,,,,,,284.93,287.739,1,1,2.1859,,0,20,20,37,1,0,mexican,,,,,,,,,,,,,,,,,,,,,,,,,,,,,,,,,,,,,,,,,,,,,,,,,,,,,,,,
,,,,,,,,,60d8c6bc9686529cdc824a49,Spanish,13 or older,"no, only English or Spanish",no,2025-07-22_20h40.17.067,empathy_intonation_perc,2024.2.4,Win32,9.99000999,60d8c6bc9686529cdc824a49,687ed1b7e638a4cbf2f02089,68802f3108240a5654ef00c2,,,,,,,,,,,,,85,0,,./stim/wavs/puertorican_mismatch_declarative-broad-focus_El-hombre-mira-la-luna.wav,,,,,,,,,,,,,,,,,,,,,,287.7396,290.8666,0,1,2.4166,,0,21,21,84,1,0,puertorican,,,,,,,,,,,,,,,,,,,,,,,,,,,,,,,,,,,,,,,,,,,,,,,,,,,,,,,,
,,,,,,,,,60d8c6bc9686529cdc824a49,Spanish,13 or older,"no, only English or Spanish",no,2025-07-22_20h40.17.067,empathy_intonation_perc,2024.2.4,Win32,9.99000999,60d8c6bc9686529cdc824a49,687ed1b7e638a4cbf2f02089,68802f3108240a5654ef00c2,,,,,,,,,,,,,66,0,,./stim/wavs/puertorican_match_declarative-broad-focus_Emilio-ama-la-marcha.wav,,,,,,,,,,,,,,,,,,,,,,290.8671,293.1957,0,1,1.7057,,0,22,22,65,1,0,puertorican,,,,,,,,,,,,,,,,,,,,,,,,,,,,,,,,,,,,,,,,,,,,,,,,,,,,,,,,
,,,,,,,,,60d8c6bc9686529cdc824a49,Spanish,13 or older,"no, only English or Spanish",no,2025-07-22_20h40.17.067,empathy_intonation_perc,2024.2.4,Win32,9.99000999,60d8c6bc9686529cdc824a49,687ed1b7e638a4cbf2f02089,68802f3108240a5654ef00c2,,,,,,,,,,,,,13,1,,./stim/wavs/mexican_match_interrogative-total-yn_Ana-lleva-el-abrigo.wav,,,,,,,,,,,,,,,,,,,,,,293.1963,295.8584,1,1,2.0321,,0,23,23,12,1,0,mexican,,,,,,,,,,,,,,,,,,,,,,,,,,,,,,,,,,,,,,,,,,,,,,,,,,,,,,,,
,,,,,,,,,60d8c6bc9686529cdc824a49,Spanish,13 or older,"no, only English or Spanish",no,2025-07-22_20h40.17.067,empathy_intonation_perc,2024.2.4,Win32,9.99000999,60d8c6bc9686529cdc824a49,687ed1b7e638a4cbf2f02089,68802f3108240a5654ef00c2,,,,,,,,,,,,,75,0,,./stim/wavs/cuban_mismatch_declarative-broad-focus_El-hombre-mira-la-luna.wav,,,,,,,,,,,,,,,,,,,,,,295.859,298.1032,0,1,1.5498,,0,24,24,74,1,0,cuban,,,,,,,,,,,,,,,,,,,,,,,,,,,,,,,,,,,,,,,,,,,,,,,,,,,,,,,,
,,,,,,,,,60d8c6bc9686529cdc824a49,Spanish,13 or older,"no, only English or Spanish",no,2025-07-22_20h40.17.067,empathy_intonation_perc,2024.2.4,Win32,9.99000999,60d8c6bc9686529cdc824a49,687ed1b7e638a4cbf2f02089,68802f3108240a5654ef00c2,,,,,,,,,,,,,46,0,,./stim/wavs/castilian_match_declarative-broad-focus_Emilio-ama-la-marcha.wav,,,,,,,,,,,,,,,,,,,,,,298.1038,300.679,0,1,1.8619,,0,25,25,45,1,0,castilian,,,,,,,,,,,,,,,,,,,,,,,,,,,,,,,,,,,,,,,,,,,,,,,,,,,,,,,,
,,,,,,,,,60d8c6bc9686529cdc824a49,Spanish,13 or older,"no, only English or Spanish",no,2025-07-22_20h40.17.067,empathy_intonation_perc,2024.2.4,Win32,9.99000999,60d8c6bc9686529cdc824a49,687ed1b7e638a4cbf2f02089,68802f3108240a5654ef00c2,,,,,,,,,,,,,10,1,,./stim/wavs/cuban_match_interrogative-total-yn_Maria-bebe-el-vino.wav,,,,,,,,,,,,,,,,,,,,,,300.6796,303.0863,0,0,1.7886,,0,26,26,9,1,1,cuban,,,,,,,,,,,,,,,,,,,,,,,,,,,,,,,,,,,,,,,,,,,,,,,,,,,,,,,,
,,,,,,,,,60d8c6bc9686529cdc824a49,Spanish,13 or older,"no, only English or Spanish",no,2025-07-22_20h40.17.067,empathy_intonation_perc,2024.2.4,Win32,9.99000999,60d8c6bc9686529cdc824a49,687ed1b7e638a4cbf2f02089,68802f3108240a5654ef00c2,,,,,,,,,,,,,8,1,,./stim/wavs/cuban_match_interrogative-total-yn_Daniel-iba-a-Bolivia.wav,,,,,,,,,,,,,,,,,,,,,,303.087,305.5391,1,1,1.7322,,0,27,27,7,1,1,cuban,,,,,,,,,,,,,,,,,,,,,,,,,,,,,,,,,,,,,,,,,,,,,,,,,,,,,,,,
,,,,,,,,,60d8c6bc9686529cdc824a49,Spanish,13 or older,"no, only English or Spanish",no,2025-07-22_20h40.17.067,empathy_intonation_perc,2024.2.4,Win32,9.99000999,60d8c6bc9686529cdc824a49,687ed1b7e638a4cbf2f02089,68802f3108240a5654ef00c2,,,,,,,,,,,,,44,1,,./stim/wavs/puertorican_mismatch_interrogative-total-yn_Mi-madre-come-la-fruta.wav,,,,,,,,,,,,,,,,,,,,,,305.5397,308.5309,0,0,2.2988,,0,28,28,43,1,1,puertorican,,,,,,,,,,,,,,,,,,,,,,,,,,,,,,,,,,,,,,,,,,,,,,,,,,,,,,,,
,,,,,,,,,60d8c6bc9686529cdc824a49,Spanish,13 or older,"no, only English or Spanish",no,2025-07-22_20h40.17.067,empathy_intonation_perc,2024.2.4,Win32,9.99000999,60d8c6bc9686529cdc824a49,687ed1b7e638a4cbf2f02089,68802f3108240a5654ef00c2,,,,,,,,,,,,,11,1,,./stim/wavs/cuban_match_interrogative-total-yn_Mariano-habla-del-tiempo.wav,,,,,,,,,,,,,,,,,,,,,,308.5315,311.5584,0,0,2.391,,0,29,29,10,1,1,cuban,,,,,,,,,,,,,,,,,,,,,,,,,,,,,,,,,,,,,,,,,,,,,,,,,,,,,,,,
,,,,,,,,,60d8c6bc9686529cdc824a49,Spanish,13 or older,"no, only English or Spanish",no,2025-07-22_20h40.17.067,empathy_intonation_perc,2024.2.4,Win32,9.99000999,60d8c6bc9686529cdc824a49,687ed1b7e638a4cbf2f02089,68802f3108240a5654ef00c2,,,,,,,,,,,,,14,1,,./stim/wavs/mexican_match_interrogative-total-yn_Daniel-iba-a-Bolivia.wav,,,,,,,,,,,,,,,,,,,,,,311.5593,315.2241,1,1,2.9495,,0,30,30,13,1,0,mexican,,,,,,,,,,,,,,,,,,,,,,,,,,,,,,,,,,,,,,,,,,,,,,,,,,,,,,,,
,,,,,,,,,60d8c6bc9686529cdc824a49,Spanish,13 or older,"no, only English or Spanish",no,2025-07-22_20h40.17.067,empathy_intonation_perc,2024.2.4,Win32,9.99000999,60d8c6bc9686529cdc824a49,687ed1b7e638a4cbf2f02089,68802f3108240a5654ef00c2,,,,,,,,,,,,,30,1,,./stim/wavs/cuban_mismatch_interrogative-total-yn_El-hombre-mira-la-luna.wav,,,,,,,,,,,,,,,,,,,,,,315.2246,318.5416,0,0,2.5951,,0,31,31,29,1,1,cuban,,,,,,,,,,,,,,,,,,,,,,,,,,,,,,,,,,,,,,,,,,,,,,,,,,,,,,,,
,,,,,,,,,60d8c6bc9686529cdc824a49,Spanish,13 or older,"no, only English or Spanish",no,2025-07-22_20h40.17.067,empathy_intonation_perc,2024.2.4,Win32,9.99000999,60d8c6bc9686529cdc824a49,687ed1b7e638a4cbf2f02089,68802f3108240a5654ef00c2,,,,,,,,,,,,,6,1,,./stim/wavs/castilian_match_interrogative-total-yn_Marta-abre-el-regalo.wav,,,,,,,,,,,,,,,,,,,,,,318.5424,321.2861,1,1,2.1218,,0,32,32,5,1,0,castilian,,,,,,,,,,,,,,,,,,,,,,,,,,,,,,,,,,,,,,,,,,,,,,,,,,,,,,,,
,,,,,,,,,60d8c6bc9686529cdc824a49,Spanish,13 or older,"no, only English or Spanish",no,2025-07-22_20h40.17.067,empathy_intonation_perc,2024.2.4,Win32,9.99000999,60d8c6bc9686529cdc824a49,687ed1b7e638a4cbf2f02089,68802f3108240a5654ef00c2,,,,,,,,,,,,,40,1,,./stim/wavs/puertorican_mismatch_interrogative-total-yn_El-hombre-mira-la-luna.wav,,,,,,,,,,,,,,,,,,,,,,321.2869,323.9203,1,1,2.0157,,0,33,33,39,1,1,puertorican,,,,,,,,,,,,,,,,,,,,,,,,,,,,,,,,,,,,,,,,,,,,,,,,,,,,,,,,
,,,,,,,,,60d8c6bc9686529cdc824a49,Spanish,13 or older,"no, only English or Spanish",no,2025-07-22_20h40.17.067,empathy_intonation_perc,2024.2.4,Win32,9.99000999,60d8c6bc9686529cdc824a49,687ed1b7e638a4cbf2f02089,68802f3108240a5654ef00c2,,,,,,,,,,,,,79,0,,./stim/wavs/mexican_mismatch_declarative-broad-focus_El-bebe-comia-muy-bien.wav,,,,,,,,,,,,,,,,,,,,,,323.9211,326.9094,0,1,2.2536,,0,34,34,78,1,0,mexican,,,,,,,,,,,,,,,,,,,,,,,,,,,,,,,,,,,,,,,,,,,,,,,,,,,,,,,,
,,,,,,,,,60d8c6bc9686529cdc824a49,Spanish,13 or older,"no, only English or Spanish",no,2025-07-22_20h40.17.067,empathy_intonation_perc,2024.2.4,Win32,9.99000999,60d8c6bc9686529cdc824a49,687ed1b7e638a4cbf2f02089,68802f3108240a5654ef00c2,,,,,,,,,,,,,20,1,,./stim/wavs/puertorican_match_interrogative-total-yn_Daniel-iba-a-Bolivia.wav,,,,,,,,,,,,,,,,,,,,,,326.91,329.3735,0,0,1.8403,,0,35,35,19,1,1,puertorican,,,,,,,,,,,,,,,,,,,,,,,,,,,,,,,,,,,,,,,,,,,,,,,,,,,,,,,,
,,,,,,,,,60d8c6bc9686529cdc824a49,Spanish,13 or older,"no, only English or Spanish",no,2025-07-22_20h40.17.067,empathy_intonation_perc,2024.2.4,Win32,9.99000999,60d8c6bc9686529cdc824a49,687ed1b7e638a4cbf2f02089,68802f3108240a5654ef00c2,,,,,,,,,,,,,82,0,,./stim/wavs/mexican_mismatch_declarative-broad-focus_Mi-novio-viene-del-lago.wav,,,,,,,,,,,,,,,,,,,,,,329.3743,332.9054,0,1,2.7998,,0,36,36,81,1,0,mexican,,,,,,,,,,,,,,,,,,,,,,,,,,,,,,,,,,,,,,,,,,,,,,,,,,,,,,,,
,,,,,,,,,60d8c6bc9686529cdc824a49,Spanish,13 or older,"no, only English or Spanish",no,2025-07-22_20h40.17.067,empathy_intonation_perc,2024.2.4,Win32,9.99000999,60d8c6bc9686529cdc824a49,687ed1b7e638a4cbf2f02089,68802f3108240a5654ef00c2,,,,,,,,,,,,,60,0,,./stim/wavs/mexican_match_declarative-broad-focus_Emilio-ama-la-marcha.wav,,,,,,,,,,,,,,,,,,,,,,332.9058,336.1467,1,0,2.5099,,0,37,37,59,1,0,mexican,,,,,,,,,,,,,,,,,,,,,,,,,,,,,,,,,,,,,,,,,,,,,,,,,,,,,,,,
,,,,,,,,,60d8c6bc9686529cdc824a49,Spanish,13 or older,"no, only English or Spanish",no,2025-07-22_20h40.17.067,empathy_intonation_perc,2024.2.4,Win32,9.99000999,60d8c6bc9686529cdc824a49,687ed1b7e638a4cbf2f02089,68802f3108240a5654ef00c2,,,,,,,,,,,,,53,0,,./stim/wavs/cuban_match_declarative-broad-focus_Manuela-vende-el-carro.wav,,,,,,,,,,,,,,,,,,,,,,336.1474,340.0646,0,1,3.2817,,0,38,38,52,1,0,cuban,,,,,,,,,,,,,,,,,,,,,,,,,,,,,,,,,,,,,,,,,,,,,,,,,,,,,,,,
,,,,,,,,,60d8c6bc9686529cdc824a49,Spanish,13 or older,"no, only English or Spanish",no,2025-07-22_20h40.17.067,empathy_intonation_perc,2024.2.4,Win32,9.99000999,60d8c6bc9686529cdc824a49,687ed1b7e638a4cbf2f02089,68802f3108240a5654ef00c2,,,,,,,,,,,,,83,0,,./stim/wavs/mexican_mismatch_declarative-broad-focus_Mi-tia-odia-la-lluvia.wav,,,,,,,,,,,,,,,,,,,,,,340.0655,343.0314,0,1,2.2238,,0,39,39,82,1,0,mexican,,,,,,,,,,,,,,,,,,,,,,,,,,,,,,,,,,,,,,,,,,,,,,,,,,,,,,,,
,,,,,,,,,60d8c6bc9686529cdc824a49,Spanish,13 or older,"no, only English or Spanish",no,2025-07-22_20h40.17.067,empathy_intonation_perc,2024.2.4,Win32,9.99000999,60d8c6bc9686529cdc824a49,687ed1b7e638a4cbf2f02089,68802f3108240a5654ef00c2,,,,,,,,,,,,,84,0,,./stim/wavs/puertorican_mismatch_declarative-broad-focus_El-bebe-comia-muy-bien.wav,,,,,,,,,,,,,,,,,,,,,,343.0321,346.3684,0,1,2.714,,0,40,40,83,1,0,puertorican,,,,,,,,,,,,,,,,,,,,,,,,,,,,,,,,,,,,,,,,,,,,,,,,,,,,,,,,
,,,,,,,,,60d8c6bc9686529cdc824a49,Spanish,13 or older,"no, only English or Spanish",no,2025-07-22_20h40.17.067,empathy_intonation_perc,2024.2.4,Win32,9.99000999,60d8c6bc9686529cdc824a49,687ed1b7e638a4cbf2f02089,68802f3108240a5654ef00c2,,,,,,,,,,,,,70,0,,./stim/wavs/castilian_mismatch_declarative-broad-focus_La-maestra-vive-en-Paris.wav,,,,,,,,,,,,,,,,,,,,,,346.369,349.3375,0,1,2.365,,0,41,41,69,1,0,castilian,,,,,,,,,,,,,,,,,,,,,,,,,,,,,,,,,,,,,,,,,,,,,,,,,,,,,,,,
,,,,,,,,,60d8c6bc9686529cdc824a49,Spanish,13 or older,"no, only English or Spanish",no,2025-07-22_20h40.17.067,empathy_intonation_perc,2024.2.4,Win32,9.99000999,60d8c6bc9686529cdc824a49,687ed1b7e638a4cbf2f02089,68802f3108240a5654ef00c2,,,,,,,,,,,,,63,0,,./stim/wavs/puertorican_match_declarative-broad-focus_Ana-lleva-el-abrigo.wav,,,,,,,,,,,,,,,,,,,,,,349.338,352.0002,1,0,2.0533,,0,42,42,62,1,0,puertorican,,,,,,,,,,,,,,,,,,,,,,,,,,,,,,,,,,,,,,,,,,,,,,,,,,,,,,,,
,,,,,,,,,60d8c6bc9686529cdc824a49,Spanish,13 or older,"no, only English or Spanish",no,2025-07-22_20h40.17.067,empathy_intonation_perc,2024.2.4,Win32,9.99000999,60d8c6bc9686529cdc824a49,687ed1b7e638a4cbf2f02089,68802f3108240a5654ef00c2,,,,,,,,,,,,,55,0,,./stim/wavs/cuban_match_declarative-broad-focus_Mariano-habla-del-tiempo.wav,,,,,,,,,,,,,,,,,,,,,,352.0007,354.7824,0,1,2.1649,,0,43,43,54,1,0,cuban,,,,,,,,,,,,,,,,,,,,,,,,,,,,,,,,,,,,,,,,,,,,,,,,,,,,,,,,
,,,,,,,,,60d8c6bc9686529cdc824a49,Spanish,13 or older,"no, only English or Spanish",no,2025-07-22_20h40.17.067,empathy_intonation_perc,2024.2.4,Win32,9.99000999,60d8c6bc9686529cdc824a49,687ed1b7e638a4cbf2f02089,68802f3108240a5654ef00c2,,,,,,,,,,,,,61,0,,./stim/wavs/mexican_match_declarative-broad-focus_Mariano-habla-del-tiempo.wav,,,,,,,,,,,,,,,,,,,,,,354.7829,357.6215,0,1,2.0987,,0,44,44,60,1,0,mexican,,,,,,,,,,,,,,,,,,,,,,,,,,,,,,,,,,,,,,,,,,,,,,,,,,,,,,,,
,,,,,,,,,60d8c6bc9686529cdc824a49,Spanish,13 or older,"no, only English or Spanish",no,2025-07-22_20h40.17.067,empathy_intonation_perc,2024.2.4,Win32,9.99000999,60d8c6bc9686529cdc824a49,687ed1b7e638a4cbf2f02089,68802f3108240a5654ef00c2,,,,,,,,,,,,,22,1,,./stim/wavs/puertorican_match_interrogative-total-yn_Emilio-ama-la-marcha.wav,,,,,,,,,,,,,,,,,,,,,,357.622,359.8942,1,1,1.6597,,0,45,45,21,1,1,puertorican,,,,,,,,,,,,,,,,,,,,,,,,,,,,,,,,,,,,,,,,,,,,,,,,,,,,,,,,
,,,,,,,,,60d8c6bc9686529cdc824a49,Spanish,13 or older,"no, only English or Spanish",no,2025-07-22_20h40.17.067,empathy_intonation_perc,2024.2.4,Win32,9.99000999,60d8c6bc9686529cdc824a49,687ed1b7e638a4cbf2f02089,68802f3108240a5654ef00c2,,,,,,,,,,,,,37,1,,./stim/wavs/mexican_mismatch_interrogative-total-yn_La-maestra-vive-en-Paris.wav,,,,,,,,,,,,,,,,,,,,,,359.8947,362.4063,1,1,1.886,,0,46,46,36,1,0,mexican,,,,,,,,,,,,,,,,,,,,,,,,,,,,,,,,,,,,,,,,,,,,,,,,,,,,,,,,
,,,,,,,,,60d8c6bc9686529cdc824a49,Spanish,13 or older,"no, only English or Spanish",no,2025-07-22_20h40.17.067,empathy_intonation_perc,2024.2.4,Win32,9.99000999,60d8c6bc9686529cdc824a49,687ed1b7e638a4cbf2f02089,68802f3108240a5654ef00c2,,,,,,,,,,,,,21,1,,./stim/wavs/puertorican_match_interrogative-total-yn_David-leia-el-libro.wav,,,,,,,,,,,,,,,,,,,,,,362.4071,364.8891,1,1,1.8792,,0,47,47,20,1,1,puertorican,,,,,,,,,,,,,,,,,,,,,,,,,,,,,,,,,,,,,,,,,,,,,,,,,,,,,,,,
,,,,,,,,,60d8c6bc9686529cdc824a49,Spanish,13 or older,"no, only English or Spanish",no,2025-07-22_20h40.17.067,empathy_intonation_perc,2024.2.4,Win32,9.99000999,60d8c6bc9686529cdc824a49,687ed1b7e638a4cbf2f02089,68802f3108240a5654ef00c2,,,,,,,,,,,,,17,1,,./stim/wavs/mexican_match_interrogative-total-yn_Mariano-habla-del-tiempo.wav,,,,,,,,,,,,,,,,,,,,,,364.8899,367.3312,1,1,1.8115,,0,48,48,16,1,0,mexican,,,,,,,,,,,,,,,,,,,,,,,,,,,,,,,,,,,,,,,,,,,,,,,,,,,,,,,,
,,,,,,,,,60d8c6bc9686529cdc824a49,Spanish,13 or older,"no, only English or Spanish",no,2025-07-22_20h40.17.067,empathy_intonation_perc,2024.2.4,Win32,9.99000999,60d8c6bc9686529cdc824a49,687ed1b7e638a4cbf2f02089,68802f3108240a5654ef00c2,,,,,,,,,,,,,16,1,,./stim/wavs/mexican_match_interrogative-total-yn_Emilio-ama-la-marcha.wav,,,,,,,,,,,,,,,,,,,,,,367.332,369.7022,1,1,1.7352,,0,49,49,15,1,0,mexican,,,,,,,,,,,,,,,,,,,,,,,,,,,,,,,,,,,,,,,,,,,,,,,,,,,,,,,,
,,,,,,,,,60d8c6bc9686529cdc824a49,Spanish,13 or older,"no, only English or Spanish",no,2025-07-22_20h40.17.067,empathy_intonation_perc,2024.2.4,Win32,9.99000999,60d8c6bc9686529cdc824a49,687ed1b7e638a4cbf2f02089,68802f3108240a5654ef00c2,,,,,,,,,,,,,88,0,,./stim/wavs/puertorican_mismatch_declarative-broad-focus_La-nina-lava-el-plato.wav,,,,,,,,,,,,,,,,,,,,,,369.7033,372.1217,0,1,1.6895,,0,50,50,87,1,0,puertorican,,,,,,,,,,,,,,,,,,,,,,,,,,,,,,,,,,,,,,,,,,,,,,,,,,,,,,,,
,,,,,,,,,60d8c6bc9686529cdc824a49,Spanish,13 or older,"no, only English or Spanish",no,2025-07-22_20h40.17.067,empathy_intonation_perc,2024.2.4,Win32,9.99000999,60d8c6bc9686529cdc824a49,687ed1b7e638a4cbf2f02089,68802f3108240a5654ef00c2,,,,,,,,,,,,,54,0,,./stim/wavs/cuban_match_declarative-broad-focus_Maria-bebe-el-vino.wav,,,,,,,,,,,,,,,,,,,,,,372.1225,374.4937,0,1,1.666,,0,51,51,53,1,0,cuban,,,,,,,,,,,,,,,,,,,,,,,,,,,,,,,,,,,,,,,,,,,,,,,,,,,,,,,,
,,,,,,,,,60d8c6bc9686529cdc824a49,Spanish,13 or older,"no, only English or Spanish",no,2025-07-22_20h40.17.067,empathy_intonation_perc,2024.2.4,Win32,9.99000999,60d8c6bc9686529cdc824a49,687ed1b7e638a4cbf2f02089,68802f3108240a5654ef00c2,,,,,,,,,,,,,62,0,,./stim/wavs/mexican_match_declarative-broad-focus_Marta-abre-el-regalo.wav,,,,,,,,,,,,,,,,,,,,,,374.4942,377.1113,0,1,2.0048,,0,52,52,61,1,0,mexican,,,,,,,,,,,,,,,,,,,,,,,,,,,,,,,,,,,,,,,,,,,,,,,,,,,,,,,,
,,,,,,,,,60d8c6bc9686529cdc824a49,Spanish,13 or older,"no, only English or Spanish",no,2025-07-22_20h40.17.067,empathy_intonation_perc,2024.2.4,Win32,9.99000999,60d8c6bc9686529cdc824a49,687ed1b7e638a4cbf2f02089,68802f3108240a5654ef00c2,,,,,,,,,,,,,15,1,,./stim/wavs/mexican_match_interrogative-total-yn_David-leia-el-libro.wav,,,,,,,,,,,,,,,,,,,,,,377.1119,379.3198,1,1,1.4968,,0,53,53,14,1,0,mexican,,,,,,,,,,,,,,,,,,,,,,,,,,,,,,,,,,,,,,,,,,,,,,,,,,,,,,,,
,,,,,,,,,60d8c6bc9686529cdc824a49,Spanish,13 or older,"no, only English or Spanish",no,2025-07-22_20h40.17.067,empathy_intonation_perc,2024.2.4,Win32,9.99000999,60d8c6bc9686529cdc824a49,687ed1b7e638a4cbf2f02089,68802f3108240a5654ef00c2,,,,,,,,,,,,,57,0,,./stim/wavs/mexican_match_declarative-broad-focus_Ana-lleva-el-abrigo.wav,,,,,,,,,,,,,,,,,,,,,,379.3203,382.1895,1,0,2.1498,,0,54,54,56,1,0,mexican,,,,,,,,,,,,,,,,,,,,,,,,,,,,,,,,,,,,,,,,,,,,,,,,,,,,,,,,
,,,,,,,,,60d8c6bc9686529cdc824a49,Spanish,13 or older,"no, only English or Spanish",no,2025-07-22_20h40.17.067,empathy_intonation_perc,2024.2.4,Win32,9.99000999,60d8c6bc9686529cdc824a49,687ed1b7e638a4cbf2f02089,68802f3108240a5654ef00c2,,,,,,,,,,,,,25,1,,./stim/wavs/castilian_mismatch_interrogative-total-yn_La-maestra-vive-en-Paris.wav,,,,,,,,,,,,,,,,,,,,,,382.1901,385.3011,1,1,2.4902,,0,55,55,24,1,0,castilian,,,,,,,,,,,,,,,,,,,,,,,,,,,,,,,,,,,,,,,,,,,,,,,,,,,,,,,,
,,,,,,,,,60d8c6bc9686529cdc824a49,Spanish,13 or older,"no, only English or Spanish",no,2025-07-22_20h40.17.067,empathy_intonation_perc,2024.2.4,Win32,9.99000999,60d8c6bc9686529cdc824a49,687ed1b7e638a4cbf2f02089,68802f3108240a5654ef00c2,,,,,,,,,,,,,23,1,,./stim/wavs/puertorican_match_interrogative-total-yn_Manuela-vende-el-carro.wav,,,,,,,,,,,,,,,,,,,,,,385.302,387.5904,0,0,1.6434,,0,56,56,22,1,1,puertorican,,,,,,,,,,,,,,,,,,,,,,,,,,,,,,,,,,,,,,,,,,,,,,,,,,,,,,,,
,,,,,,,,,60d8c6bc9686529cdc824a49,Spanish,13 or older,"no, only English or Spanish",no,2025-07-22_20h40.17.067,empathy_intonation_perc,2024.2.4,Win32,9.99000999,60d8c6bc9686529cdc824a49,687ed1b7e638a4cbf2f02089,68802f3108240a5654ef00c2,,,,,,,,,,,,,18,1,,./stim/wavs/mexican_match_interrogative-total-yn_Marta-abre-el-regalo.wav,,,,,,,,,,,,,,,,,,,,,,387.591,390.1602,1,1,1.829,0.0003,0,57,57,17,1,0,mexican,,,,,,,,,,,,,,,,,,,,,,,,,,,,,,,,,,,,,,,,,,,,,,,,,,,,,,,,
,,,,,,,,,60d8c6bc9686529cdc824a49,Spanish,13 or older,"no, only English or Spanish",no,2025-07-22_20h40.17.067,empathy_intonation_perc,2024.2.4,Win32,9.99000999,60d8c6bc9686529cdc824a49,687ed1b7e638a4cbf2f02089,68802f3108240a5654ef00c2,,,,,,,,,,,,,86,0,,./stim/wavs/puertorican_mismatch_declarative-broad-focus_El-nino-oye-el-rio.wav,,,,,,,,,,,,,,,,,,,,,,390.1608,392.8984,0,1,2.1023,,0,58,58,85,1,0,puertorican,,,,,,,,,,,,,,,,,,,,,,,,,,,,,,,,,,,,,,,,,,,,,,,,,,,,,,,,
,,,,,,,,,60d8c6bc9686529cdc824a49,Spanish,13 or older,"no, only English or Spanish",no,2025-07-22_20h40.17.067,empathy_intonation_perc,2024.2.4,Win32,9.99000999,60d8c6bc9686529cdc824a49,687ed1b7e638a4cbf2f02089,68802f3108240a5654ef00c2,,,,,,,,,,,,,69,0,,./stim/wavs/castilian_mismatch_declarative-broad-focus_El-nino-oye-el-rio.wav,,,,,,,,,,,,,,,,,,,,,,392.8989,395.5424,1,0,1.9002,,0,59,59,68,1,0,castilian,,,,,,,,,,,,,,,,,,,,,,,,,,,,,,,,,,,,,,,,,,,,,,,,,,,,,,,,
,,,,,,,,,60d8c6bc9686529cdc824a49,Spanish,13 or older,"no, only English or Spanish",no,2025-07-22_20h40.17.067,empathy_intonation_perc,2024.2.4,Win32,9.99000999,60d8c6bc9686529cdc824a49,687ed1b7e638a4cbf2f02089,68802f3108240a5654ef00c2,,,,,,,,,,,,,65,0,,./stim/wavs/puertorican_match_declarative-broad-focus_David-leia-el-libro.wav,,,,,,,,,,,,,,,,,,,,,,395.543,398.199,0,1,2.0538,,0,60,60,64,1,0,puertorican,,,,,,,,,,,,,,,,,,,,,,,,,,,,,,,,,,,,,,,,,,,,,,,,,,,,,,,,
,,,,,,,,,60d8c6bc9686529cdc824a49,Spanish,13 or older,"no, only English or Spanish",no,2025-07-22_20h40.17.067,empathy_intonation_perc,2024.2.4,Win32,9.99000999,60d8c6bc9686529cdc824a49,687ed1b7e638a4cbf2f02089,68802f3108240a5654ef00c2,,,,,,,,,,,,,71,0,,./stim/wavs/castilian_mismatch_declarative-broad-focus_La-nina-lava-el-plato.wav,,,,,,,,,,,,,,,,,,,,,,398.1996,400.8057,0,1,1.9062,,0,61,61,70,1,0,castilian,,,,,,,,,,,,,,,,,,,,,,,,,,,,,,,,,,,,,,,,,,,,,,,,,,,,,,,,
,,,,,,,,,60d8c6bc9686529cdc824a49,Spanish,13 or older,"no, only English or Spanish",no,2025-07-22_20h40.17.067,empathy_intonation_perc,2024.2.4,Win32,9.99000999,60d8c6bc9686529cdc824a49,687ed1b7e638a4cbf2f02089,68802f3108240a5654ef00c2,,,,,,,,,,,,,24,1,,./stim/wavs/puertorican_match_interrogative-total-yn_Maria-bebe-el-vino.wav,,,,,,,,,,,,,,,,,,,,,,400.8062,403.0188,0,0,1.5028,,0,62,62,23,1,1,puertorican,,,,,,,,,,,,,,,,,,,,,,,,,,,,,,,,,,,,,,,,,,,,,,,,,,,,,,,,
,,,,,,,,,60d8c6bc9686529cdc824a49,Spanish,13 or older,"no, only English or Spanish",no,2025-07-22_20h40.17.067,empathy_intonation_perc,2024.2.4,Win32,9.99000999,60d8c6bc9686529cdc824a49,687ed1b7e638a4cbf2f02089,68802f3108240a5654ef00c2,,,,,,,,,,,,,41,1,,./stim/wavs/puertorican_mismatch_interrogative-total-yn_El-nino-oye-el-rio.wav,,,,,,,,,,,,,,,,,,,,,,403.0194,405.3177,0,0,1.6624,,0,63,63,40,1,1,puertorican,,,,,,,,,,,,,,,,,,,,,,,,,,,,,,,,,,,,,,,,,,,,,,,,,,,,,,,,
,,,,,,,,,60d8c6bc9686529cdc824a49,Spanish,13 or older,"no, only English or Spanish",no,2025-07-22_20h40.17.067,empathy_intonation_perc,2024.2.4,Win32,9.99000999,60d8c6bc9686529cdc824a49,687ed1b7e638a4cbf2f02089,68802f3108240a5654ef00c2,,,,,,,,,,,,,59,0,,./stim/wavs/mexican_match_declarative-broad-focus_David-leia-el-libro.wav,,,,,,,,,,,,,,,,,,,,,,405.3182,407.7257,0,1,1.6772,,0,64,64,58,1,0,mexican,,,,,,,,,,,,,,,,,,,,,,,,,,,,,,,,,,,,,,,,,,,,,,,,,,,,,,,,
,,,,,,,,,60d8c6bc9686529cdc824a49,Spanish,13 or older,"no, only English or Spanish",no,2025-07-22_20h40.17.067,empathy_intonation_perc,2024.2.4,Win32,9.99000999,60d8c6bc9686529cdc824a49,687ed1b7e638a4cbf2f02089,68802f3108240a5654ef00c2,,,,,,,,,,,,,3,1,,./stim/wavs/castilian_match_interrogative-total-yn_Manuela-vende-el-carro.wav,,,,,,,,,,,,,,,,,,,,,,407.7265,411.2617,1,1,2.7818,,0,65,65,2,1,0,castilian,,,,,,,,,,,,,,,,,,,,,,,,,,,,,,,,,,,,,,,,,,,,,,,,,,,,,,,,
,,,,,,,,,60d8c6bc9686529cdc824a49,Spanish,13 or older,"no, only English or Spanish",no,2025-07-22_20h40.17.067,empathy_intonation_perc,2024.2.4,Win32,9.99000999,60d8c6bc9686529cdc824a49,687ed1b7e638a4cbf2f02089,68802f3108240a5654ef00c2,,,,,,,,,,,,,26,1,,./stim/wavs/castilian_mismatch_interrogative-total-yn_La-nina-lava-el-plato.wav,,,,,,,,,,,,,,,,,,,,,,411.2623,413.7468,1,1,1.7835,,0,66,66,25,1,0,castilian,,,,,,,,,,,,,,,,,,,,,,,,,,,,,,,,,,,,,,,,,,,,,,,,,,,,,,,,
,,,,,,,,,60d8c6bc9686529cdc824a49,Spanish,13 or older,"no, only English or Spanish",no,2025-07-22_20h40.17.067,empathy_intonation_perc,2024.2.4,Win32,9.99000999,60d8c6bc9686529cdc824a49,687ed1b7e638a4cbf2f02089,68802f3108240a5654ef00c2,,,,,,,,,,,,,74,0,,./stim/wavs/cuban_mismatch_declarative-broad-focus_El-bebe-comia-muy-bien.wav,,,,,,,,,,,,,,,,,,,,,,413.7474,416.1291,0,1,1.6472,,0,67,67,73,1,0,cuban,,,,,,,,,,,,,,,,,,,,,,,,,,,,,,,,,,,,,,,,,,,,,,,,,,,,,,,,
,,,,,,,,,60d8c6bc9686529cdc824a49,Spanish,13 or older,"no, only English or Spanish",no,2025-07-22_20h40.17.067,empathy_intonation_perc,2024.2.4,Win32,9.99000999,60d8c6bc9686529cdc824a49,687ed1b7e638a4cbf2f02089,68802f3108240a5654ef00c2,,,,,,,,,,,,,73,0,,./stim/wavs/castilian_mismatch_declarative-broad-focus_Mi-tia-odia-la-lluvia.wav,,,,,,,,,,,,,,,,,,,,,,416.1297,418.801,0,1,2.0398,,0,68,68,72,1,0,castilian,,,,,,,,,,,,,,,,,,,,,,,,,,,,,,,,,,,,,,,,,,,,,,,,,,,,,,,,
,,,,,,,,,60d8c6bc9686529cdc824a49,Spanish,13 or older,"no, only English or Spanish",no,2025-07-22_20h40.17.067,empathy_intonation_perc,2024.2.4,Win32,9.99000999,60d8c6bc9686529cdc824a49,687ed1b7e638a4cbf2f02089,68802f3108240a5654ef00c2,,,,,,,,,,,,,43,1,,./stim/wavs/puertorican_mismatch_interrogative-total-yn_La-nina-lava-el-plato.wav,,,,,,,,,,,,,,,,,,,,,,418.8015,421.7102,0,0,2.2857,,0,69,69,42,1,1,puertorican,,,,,,,,,,,,,,,,,,,,,,,,,,,,,,,,,,,,,,,,,,,,,,,,,,,,,,,,
,,,,,,,,,60d8c6bc9686529cdc824a49,Spanish,13 or older,"no, only English or Spanish",no,2025-07-22_20h40.17.067,empathy_intonation_perc,2024.2.4,Win32,9.99000999,60d8c6bc9686529cdc824a49,687ed1b7e638a4cbf2f02089,68802f3108240a5654ef00c2,,,,,,,,,,,,,77,0,,./stim/wavs/cuban_mismatch_declarative-broad-focus_Mi-novio-viene-del-lago.wav,,,,,,,,,,,,,,,,,,,,,,421.7108,424.9428,0,1,2.6147,,0,70,70,76,1,0,cuban,,,,,,,,,,,,,,,,,,,,,,,,,,,,,,,,,,,,,,,,,,,,,,,,,,,,,,,,
,,,,,,,,,60d8c6bc9686529cdc824a49,Spanish,13 or older,"no, only English or Spanish",no,2025-07-22_20h40.17.067,empathy_intonation_perc,2024.2.4,Win32,9.99000999,60d8c6bc9686529cdc824a49,687ed1b7e638a4cbf2f02089,68802f3108240a5654ef00c2,,,,,,,,,,,,,72,0,,./stim/wavs/castilian_mismatch_declarative-broad-focus_Mi-novio-viene-del-lago.wav,,,,,,,,,,,,,,,,,,,,,,424.9434,427.9789,0,1,2.4065,,0,71,71,71,1,0,castilian,,,,,,,,,,,,,,,,,,,,,,,,,,,,,,,,,,,,,,,,,,,,,,,,,,,,,,,,
,,,,,,,,,60d8c6bc9686529cdc824a49,Spanish,13 or older,"no, only English or Spanish",no,2025-07-22_20h40.17.067,empathy_intonation_perc,2024.2.4,Win32,9.99000999,60d8c6bc9686529cdc824a49,687ed1b7e638a4cbf2f02089,68802f3108240a5654ef00c2,,,,,,,,,,,,,1,1,,./stim/wavs/castilian_match_interrogative-total-yn_David-leia-el-libro.wav,,,,,,,,,,,,,,,,,,,,,,427.9798,430.4547,1,1,1.8541,,0,72,72,0,1,0,castilian,,,,,,,,,,,,,,,,,,,,,,,,,,,,,,,,,,,,,,,,,,,,,,,,,,,,,,,,
,,,,,,,,,60d8c6bc9686529cdc824a49,Spanish,13 or older,"no, only English or Spanish",no,2025-07-22_20h40.17.067,empathy_intonation_perc,2024.2.4,Win32,9.99000999,60d8c6bc9686529cdc824a49,687ed1b7e638a4cbf2f02089,68802f3108240a5654ef00c2,,,,,,,,,,,,,28,1,,./stim/wavs/castilian_mismatch_interrogative-total-yn_Mi-novio-viene-del-lago.wav,,,,,,,,,,,,,,,,,,,,,,430.4556,433.0523,1,1,1.8971,,0,73,73,27,1,0,castilian,,,,,,,,,,,,,,,,,,,,,,,,,,,,,,,,,,,,,,,,,,,,,,,,,,,,,,,,
,,,,,,,,,60d8c6bc9686529cdc824a49,Spanish,13 or older,"no, only English or Spanish",no,2025-07-22_20h40.17.067,empathy_intonation_perc,2024.2.4,Win32,9.99000999,60d8c6bc9686529cdc824a49,687ed1b7e638a4cbf2f02089,68802f3108240a5654ef00c2,,,,,,,,,,,,,4,1,,./stim/wavs/castilian_match_interrogative-total-yn_Maria-bebe-el-vino.wav,,,,,,,,,,,,,,,,,,,,,,433.0529,435.413,1,1,1.7421,,0,74,74,3,1,0,castilian,,,,,,,,,,,,,,,,,,,,,,,,,,,,,,,,,,,,,,,,,,,,,,,,,,,,,,,,
,,,,,,,,,60d8c6bc9686529cdc824a49,Spanish,13 or older,"no, only English or Spanish",no,2025-07-22_20h40.17.067,empathy_intonation_perc,2024.2.4,Win32,9.99000999,60d8c6bc9686529cdc824a49,687ed1b7e638a4cbf2f02089,68802f3108240a5654ef00c2,,,,,,,,,,,,,32,1,,./stim/wavs/cuban_mismatch_interrogative-total-yn_Mi-madre-come-la-fruta.wav,,,,,,,,,,,,,,,,,,,,,,435.4136,438.6209,0,0,2.4699,,0,75,75,31,1,1,cuban,,,,,,,,,,,,,,,,,,,,,,,,,,,,,,,,,,,,,,,,,,,,,,,,,,,,,,,,
,,,,,,,,,60d8c6bc9686529cdc824a49,Spanish,13 or older,"no, only English or Spanish",no,2025-07-22_20h40.17.067,empathy_intonation_perc,2024.2.4,Win32,9.99000999,60d8c6bc9686529cdc824a49,687ed1b7e638a4cbf2f02089,68802f3108240a5654ef00c2,,,,,,,,,,,,,67,0,,./stim/wavs/puertorican_match_declarative-broad-focus_Manuela-vende-el-carro.wav,,,,,,,,,,,,,,,,,,,,,,438.6214,440.9087,0,1,1.6739,,0,76,76,66,1,0,puertorican,,,,,,,,,,,,,,,,,,,,,,,,,,,,,,,,,,,,,,,,,,,,,,,,,,,,,,,,
,,,,,,,,,60d8c6bc9686529cdc824a49,Spanish,13 or older,"no, only English or Spanish",no,2025-07-22_20h40.17.067,empathy_intonation_perc,2024.2.4,Win32,9.99000999,60d8c6bc9686529cdc824a49,687ed1b7e638a4cbf2f02089,68802f3108240a5654ef00c2,,,,,,,,,,,,,31,1,,./stim/wavs/cuban_mismatch_interrogative-total-yn_El-nino-oye-el-rio.wav,,,,,,,,,,,,,,,,,,,,,,440.9093,443.3052,1,1,1.6769,,0,77,77,30,1,1,cuban,,,,,,,,,,,,,,,,,,,,,,,,,,,,,,,,,,,,,,,,,,,,,,,,,,,,,,,,
,,,,,,,,,60d8c6bc9686529cdc824a49,Spanish,13 or older,"no, only English or Spanish",no,2025-07-22_20h40.17.067,empathy_intonation_perc,2024.2.4,Win32,9.99000999,60d8c6bc9686529cdc824a49,687ed1b7e638a4cbf2f02089,68802f3108240a5654ef00c2,,,,,,,,,,,,,87,0,,./stim/wavs/puertorican_mismatch_declarative-broad-focus_La-maestra-vive-en-Paris.wav,,,,,,,,,,,,,,,,,,,,,,443.3058,445.6941,0,1,1.7291,,0,78,78,86,1,0,puertorican,,,,,,,,,,,,,,,,,,,,,,,,,,,,,,,,,,,,,,,,,,,,,,,,,,,,,,,,
,,,,,,,,,60d8c6bc9686529cdc824a49,Spanish,13 or older,"no, only English or Spanish",no,2025-07-22_20h40.17.067,empathy_intonation_perc,2024.2.4,Win32,9.99000999,60d8c6bc9686529cdc824a49,687ed1b7e638a4cbf2f02089,68802f3108240a5654ef00c2,,,,,,,,,,,,,80,0,,./stim/wavs/mexican_mismatch_declarative-broad-focus_El-hombre-mira-la-luna.wav,,,,,,,,,,,,,,,,,,,,,,445.6947,448.3899,0,1,2.0708,,0,79,79,79,1,0,mexican,,,,,,,,,,,,,,,,,,,,,,,,,,,,,,,,,,,,,,,,,,,,,,,,,,,,,,,,
,,,,,,,,,60d8c6bc9686529cdc824a49,Spanish,13 or older,"no, only English or Spanish",no,2025-07-22_20h40.17.067,empathy_intonation_perc,2024.2.4,Win32,9.99000999,60d8c6bc9686529cdc824a49,687ed1b7e638a4cbf2f02089,68802f3108240a5654ef00c2,,,,,,,,,,,,,49,0,,./stim/wavs/castilian_match_declarative-broad-focus_Mariano-habla-del-tiempo.wav,,,,,,,,,,,,,,,,,,,,,,448.3907,450.9753,0,1,1.9586,,0,80,80,48,1,0,castilian,,,,,,,,,,,,,,,,,,,,,,,,,,,,,,,,,,,,,,,,,,,,,,,,,,,,,,,,
,,,,,,,,,60d8c6bc9686529cdc824a49,Spanish,13 or older,"no, only English or Spanish",no,2025-07-22_20h40.17.067,empathy_intonation_perc,2024.2.4,Win32,9.99000999,60d8c6bc9686529cdc824a49,687ed1b7e638a4cbf2f02089,68802f3108240a5654ef00c2,,,,,,,,,,,,,76,0,,./stim/wavs/cuban_mismatch_declarative-broad-focus_La-nina-lava-el-plato.wav,,,,,,,,,,,,,,,,,,,,,,450.9761,453.2718,0,1,1.5956,,0,81,81,75,1,0,cuban,,,,,,,,,,,,,,,,,,,,,,,,,,,,,,,,,,,,,,,,,,,,,,,,,,,,,,,,
,,,,,,,,,60d8c6bc9686529cdc824a49,Spanish,13 or older,"no, only English or Spanish",no,2025-07-22_20h40.17.067,empathy_intonation_perc,2024.2.4,Win32,9.99000999,60d8c6bc9686529cdc824a49,687ed1b7e638a4cbf2f02089,68802f3108240a5654ef00c2,,,,,,,,,,,,,5,1,,./stim/wavs/castilian_match_interrogative-total-yn_Mariano-habla-del-tiempo.wav,,,,,,,,,,,,,,,,,,,,,,453.2725,455.7511,1,1,1.8596,,0,82,82,4,1,0,castilian,,,,,,,,,,,,,,,,,,,,,,,,,,,,,,,,,,,,,,,,,,,,,,,,,,,,,,,,
,,,,,,,,,60d8c6bc9686529cdc824a49,Spanish,13 or older,"no, only English or Spanish",no,2025-07-22_20h40.17.067,empathy_intonation_perc,2024.2.4,Win32,9.99000999,60d8c6bc9686529cdc824a49,687ed1b7e638a4cbf2f02089,68802f3108240a5654ef00c2,,,,,,,,,,,,,50,0,,./stim/wavs/castilian_match_declarative-broad-focus_Marta-abre-el-regalo.wav,,,,,,,,,,,,,,,,,,,,,,455.7516,458.1679,1,0,1.8117,,0,83,83,49,1,0,castilian,,,,,,,,,,,,,,,,,,,,,,,,,,,,,,,,,,,,,,,,,,,,,,,,,,,,,,,,
,,,,,,,,,60d8c6bc9686529cdc824a49,Spanish,13 or older,"no, only English or Spanish",no,2025-07-22_20h40.17.067,empathy_intonation_perc,2024.2.4,Win32,9.99000999,60d8c6bc9686529cdc824a49,687ed1b7e638a4cbf2f02089,68802f3108240a5654ef00c2,,,,,,,,,,,,,2,1,,./stim/wavs/castilian_match_interrogative-total-yn_Emilio-ama-la-marcha.wav,,,,,,,,,,,,,,,,,,,,,,458.1685,460.5796,1,1,1.7702,,0,84,84,1,1,0,castilian,,,,,,,,,,,,,,,,,,,,,,,,,,,,,,,,,,,,,,,,,,,,,,,,,,,,,,,,
,,,,,,,,,60d8c6bc9686529cdc824a49,Spanish,13 or older,"no, only English or Spanish",no,2025-07-22_20h40.17.067,empathy_intonation_perc,2024.2.4,Win32,9.99000999,60d8c6bc9686529cdc824a49,687ed1b7e638a4cbf2f02089,68802f3108240a5654ef00c2,,,,,,,,,,,,,47,0,,./stim/wavs/castilian_match_declarative-broad-focus_Manuela-vende-el-carro.wav,,,,,,,,,,,,,,,,,,,,,,460.5801,462.9631,0,1,1.7559,,0,85,85,46,1,0,castilian,,,,,,,,,,,,,,,,,,,,,,,,,,,,,,,,,,,,,,,,,,,,,,,,,,,,,,,,
,,,,,,,,,60d8c6bc9686529cdc824a49,Spanish,13 or older,"no, only English or Spanish",no,2025-07-22_20h40.17.067,empathy_intonation_perc,2024.2.4,Win32,9.99000999,60d8c6bc9686529cdc824a49,687ed1b7e638a4cbf2f02089,68802f3108240a5654ef00c2,,,,,,,,,,,,,7,1,,./stim/wavs/cuban_match_interrogative-total-yn_Ana-lleva-el-abrigo.wav,,,,,,,,,,,,,,,,,,,,,,462.9638,466.056,0,0,2.4585,,0,86,86,6,1,1,cuban,,,,,,,,,,,,,,,,,,,,,,,,,,,,,,,,,,,,,,,,,,,,,,,,,,,,,,,,
,,,,,,,,,60d8c6bc9686529cdc824a49,Spanish,13 or older,"no, only English or Spanish",no,2025-07-22_20h40.17.067,empathy_intonation_perc,2024.2.4,Win32,9.99000999,60d8c6bc9686529cdc824a49,687ed1b7e638a4cbf2f02089,68802f3108240a5654ef00c2,,,,,,,,,,,,,34,1,,./stim/wavs/cuban_mismatch_interrogative-total-yn_Mi-tia-odia-la-lluvia.wav,,,,,,,,,,,,,,,,,,,,,,466.0566,469.1788,0,0,2.3741,,0,87,87,33,1,1,cuban,,,,,,,,,,,,,,,,,,,,,,,,,,,,,,,,,,,,,,,,,,,,,,,,,,,,,,,,
,,,,,,,"Great! Now we will move on. The next task consists of about 60 trials, in each of which you will see a string of letters. 
  
  Your task is to decide whether this is a real Spanish word or not.", (press the spacebar to continue),60d8c6bc9686529cdc824a49,Spanish,13 or older,"no, only English or Spanish",no,2025-07-22_20h40.17.067,empathy_intonation_perc,2024.2.4,Win32,9.99000999,60d8c6bc9686529cdc824a49,687ed1b7e638a4cbf2f02089,68802f3108240a5654ef00c2,,,,,,,,,,,,,,,,,,,,,,,,,,,,,,,,,,,,,,,,,,,,,,,,,,,469.1847,477.912,0,0,0,0,1,,,,,,,,,,,,,,,,,,,,,,,,,,,,,,,,,,,,,,,,,,,,,,,,,
,,,,,,,"If you think it is an existing Spanish word, you type '1' (for 'REAL'), and if you think it is not an existing Spanish word, you type '0' (for 'FAKE').", (press the spacebar to continue),60d8c6bc9686529cdc824a49,Spanish,13 or older,"no, only English or Spanish",no,2025-07-22_20h40.17.067,empathy_intonation_perc,2024.2.4,Win32,9.99000999,60d8c6bc9686529cdc824a49,687ed1b7e638a4cbf2f02089,68802f3108240a5654ef00c2,,,,,,,,,,,,,,,,,,,,,,,,,,,,,,,,,,,,,,,,,,,,,,,,,,,477.9139,483.1804,0,1,1,1,1,,,,,,,,,,,,,,,,,,,,,,,,,,,,,,,,,,,,,,,,,,,,,,,,,
,,,,,,,"If you are sure that the word exists, even though you don’t know its exact meaning, you may still respond '1' (REAL). 
  
  But if you are not sure if it is an existing word, you should respond '0' (FAKE).
  
  Let's do a practice round...", (press the spacebar to continue),60d8c6bc9686529cdc824a49,Spanish,13 or older,"no, only English or Spanish",no,2025-07-22_20h40.17.067,empathy_intonation_perc,2024.2.4,Win32,9.99000999,60d8c6bc9686529cdc824a49,687ed1b7e638a4cbf2f02089,68802f3108240a5654ef00c2,,,,,,,,,,,,,,,,,,,,,,,,,,,,,,,,,,,,,,,,,,,,,,,,,,,483.1822,490.7428,0,2,2,2,1,,,,,,,,,,,,,,,,,,,,,,,,,,,,,,,,,,,,,,,,,,,,,,,,,
,,,,,,,,,60d8c6bc9686529cdc824a49,Spanish,13 or older,"no, only English or Spanish",no,2025-07-22_20h40.17.067,empathy_intonation_perc,2024.2.4,Win32,9.99000999,60d8c6bc9686529cdc824a49,687ed1b7e638a4cbf2f02089,68802f3108240a5654ef00c2,,,,,,,,,,,,,,0,,,,,,,,,,,,,,,,,,,,,,,,,,,,,,,,,,,,,,,,,,,,490.7497,495.3697,1,0,3.8802,,495.3699,496.3433,0,0,0,0,1,0,depiste,REAL,FAKE,,,,,,,,,,,,,,,,,,,,,,,,,,,,,,,,
,,,,,,,,,60d8c6bc9686529cdc824a49,Spanish,13 or older,"no, only English or Spanish",no,2025-07-22_20h40.17.067,empathy_intonation_perc,2024.2.4,Win32,9.99000999,60d8c6bc9686529cdc824a49,687ed1b7e638a4cbf2f02089,68802f3108240a5654ef00c2,,,,,,,,,,,,,,1,,,,,,,,,,,,,,,,,,,,,,,,,,,,,,,,,,,,,,,,,,,,496.3448,498.3157,1,1,1.2616,,498.3166,499.2944,0,1,1,1,1,0,sí,REAL,FAKE,,,,,,,,,,,,,,,,,,,,,,,,,,,,,,,,
,,,,,,,,,60d8c6bc9686529cdc824a49,Spanish,13 or older,"no, only English or Spanish",no,2025-07-22_20h40.17.067,empathy_intonation_perc,2024.2.4,Win32,9.99000999,60d8c6bc9686529cdc824a49,687ed1b7e638a4cbf2f02089,68802f3108240a5654ef00c2,,,,,,,,,,,,,,0,,,,,,,,,,,,,,,,,,,,,,,,,,,,,,,,,,,,,,,,,,,,499.296,501.41,1,0,1.4959,,501.4108,502.3671,0,2,2,2,1,0,coné,REAL,FAKE,,,,,,,,,,,,,,,,,,,,,,,,,,,,,,,,
,,,,,,,,,60d8c6bc9686529cdc824a49,Spanish,13 or older,"no, only English or Spanish",no,2025-07-22_20h40.17.067,empathy_intonation_perc,2024.2.4,Win32,9.99000999,60d8c6bc9686529cdc824a49,687ed1b7e638a4cbf2f02089,68802f3108240a5654ef00c2,,,,,,,,,,,,,,0,,,,,,,,,,,,,,,,,,,,,,,,,,,,,,,,,,,,,,,,,,,,502.3682,504.8079,0,1,1.8294,,504.8088,505.7545,0,3,3,3,1,0,calpar,REAL,FAKE,,,,,,,,,,,,,,,,,,,,,,,,,,,,,,,,
,,,,,,,,,60d8c6bc9686529cdc824a49,Spanish,13 or older,"no, only English or Spanish",no,2025-07-22_20h40.17.067,empathy_intonation_perc,2024.2.4,Win32,9.99000999,60d8c6bc9686529cdc824a49,687ed1b7e638a4cbf2f02089,68802f3108240a5654ef00c2,,,,,,,,,,,,,,0,,,,,,,,,,,,,,,,,,,,,,,,,,,,,,,,,,,,,,,,,,,,505.7558,507.5666,0,1,1.1162,,507.5667,508.5447,0,4,4,4,1,0,joten,REAL,FAKE,,,,,,,,,,,,,,,,,,,,,,,,,,,,,,,,
,,,,,,,,,60d8c6bc9686529cdc824a49,Spanish,13 or older,"no, only English or Spanish",no,2025-07-22_20h40.17.067,empathy_intonation_perc,2024.2.4,Win32,9.99000999,60d8c6bc9686529cdc824a49,687ed1b7e638a4cbf2f02089,68802f3108240a5654ef00c2,,,,,,,,,,,,,,1,,,,,,,,,,,,,,,,,,,,,,,,,,,,,,,,,,,,,,,,,,,,508.5462,510.5189,0,0,1.257,,510.5197,511.4841,0,5,5,5,1,0,sacapuntas,REAL,FAKE,,,,,,,,,,,,,,,,,,,,,,,,,,,,,,,,
,,,,,,,,,60d8c6bc9686529cdc824a49,Spanish,13 or older,"no, only English or Spanish",no,2025-07-22_20h40.17.067,empathy_intonation_perc,2024.2.4,Win32,9.99000999,60d8c6bc9686529cdc824a49,687ed1b7e638a4cbf2f02089,68802f3108240a5654ef00c2,,,,,,,,,,,,,,0,,,,,,,,,,,,,,,,,,,,,,,,,,,,,,,,,,,,,,,,,,,,511.4854,513.3512,1,0,1.1502,,513.3512,514.2968,0,6,6,6,1,0,priba,REAL,FAKE,,,,,,,,,,,,,,,,,,,,,,,,,,,,,,,,
,,,,,,,,,60d8c6bc9686529cdc824a49,Spanish,13 or older,"no, only English or Spanish",no,2025-07-22_20h40.17.067,empathy_intonation_perc,2024.2.4,Win32,9.99000999,60d8c6bc9686529cdc824a49,687ed1b7e638a4cbf2f02089,68802f3108240a5654ef00c2,,,,,,,,,,,,,,0,,,,,,,,,,,,,,,,,,,,,,,,,,,,,,,,,,,,,,,,,,,,514.2982,517.1807,0,1,2.2656,,517.1815,518.2109,0,7,7,7,1,0,pelasula,REAL,FAKE,,,,,,,,,,,,,,,,,,,,,,,,,,,,,,,,
,,,,,,,,,60d8c6bc9686529cdc824a49,Spanish,13 or older,"no, only English or Spanish",no,2025-07-22_20h40.17.067,empathy_intonation_perc,2024.2.4,Win32,9.99000999,60d8c6bc9686529cdc824a49,687ed1b7e638a4cbf2f02089,68802f3108240a5654ef00c2,,,,,,,,,,,,,,1,,,,,,,,,,,,,,,,,,,,,,,,,,,,,,,,,,,,,,,,,,,,518.2122,519.7472,1,1,0.8585,,519.7472,520.716,0,8,8,8,1,0,bien,REAL,FAKE,,,,,,,,,,,,,,,,,,,,,,,,,,,,,,,,
,,,,,,,,,60d8c6bc9686529cdc824a49,Spanish,13 or older,"no, only English or Spanish",no,2025-07-22_20h40.17.067,empathy_intonation_perc,2024.2.4,Win32,9.99000999,60d8c6bc9686529cdc824a49,687ed1b7e638a4cbf2f02089,68802f3108240a5654ef00c2,,,,,,,,,,,,,,1,,,,,,,,,,,,,,,,,,,,,,,,,,,,,,,,,,,,,,,,,,,,520.7172,522.2098,1,1,0.7824,,522.2099,523.1428,0,9,9,9,1,0,casa,REAL,FAKE,,,,,,,,,,,,,,,,,,,,,,,,,,,,,,,,
,,,,,,,,,60d8c6bc9686529cdc824a49,Spanish,13 or older,"no, only English or Spanish",no,2025-07-22_20h40.17.067,empathy_intonation_perc,2024.2.4,Win32,9.99000999,60d8c6bc9686529cdc824a49,687ed1b7e638a4cbf2f02089,68802f3108240a5654ef00c2,,,,,,,,,,,,,,0,,,,,,,,,,,,,,,,,,,,,,,,,,,,,,,,,,,,,,,,,,,,523.1439,524.9255,1,0,1.1205,,524.9263,525.8761,0,10,10,10,1,0,lejo,REAL,FAKE,,,,,,,,,,,,,,,,,,,,,,,,,,,,,,,,
,,,,,,,,,60d8c6bc9686529cdc824a49,Spanish,13 or older,"no, only English or Spanish",no,2025-07-22_20h40.17.067,empathy_intonation_perc,2024.2.4,Win32,9.99000999,60d8c6bc9686529cdc824a49,687ed1b7e638a4cbf2f02089,68802f3108240a5654ef00c2,,,,,,,,,,,,,,0,,,,,,,,,,,,,,,,,,,,,,,,,,,,,,,,,,,,,,,,,,,,525.8774,528.0621,1,0,1.4658,0.0001,528.0621,529.024,0,11,11,11,1,0,pretantas,REAL,FAKE,,,,,,,,,,,,,,,,,,,,,,,,,,,,,,,,
,,,,,,,,,60d8c6bc9686529cdc824a49,Spanish,13 or older,"no, only English or Spanish",no,2025-07-22_20h40.17.067,empathy_intonation_perc,2024.2.4,Win32,9.99000999,60d8c6bc9686529cdc824a49,687ed1b7e638a4cbf2f02089,68802f3108240a5654ef00c2,,,,,,,,,,,,,,,,,,,,,,,,,,,,,,,,,,,,,,,,,,,,,,,,,,,,,,,,,,,,,,,,,,,,,,,,,,,529.0245,531.586,,,,,,,,,,,,,,,,,,,,,,,,,,,,,,
,,,,,,,,,60d8c6bc9686529cdc824a49,Spanish,13 or older,"no, only English or Spanish",no,2025-07-22_20h40.17.067,empathy_intonation_perc,2024.2.4,Win32,9.99000999,60d8c6bc9686529cdc824a49,687ed1b7e638a4cbf2f02089,68802f3108240a5654ef00c2,,,,,,,,,,,,,,1,,,,,,,,,,,,,,,,,,,,,,,,,,,,,,,,,,,,,,,,,,,,,,,,,,,,,,,,,78,frondoso,,,,,531.5929,535.101,0,0,2.7921,,0,0,0,77,1,REAL,FAKE,,,,,,,,,,,,,,,,,
,,,,,,,,,60d8c6bc9686529cdc824a49,Spanish,13 or older,"no, only English or Spanish",no,2025-07-22_20h40.17.067,empathy_intonation_perc,2024.2.4,Win32,9.99000999,60d8c6bc9686529cdc824a49,687ed1b7e638a4cbf2f02089,68802f3108240a5654ef00c2,,,,,,,,,,,,,,1,,,,,,,,,,,,,,,,,,,,,,,,,,,,,,,,,,,,,,,,,,,,,,,,,,,,,,,,,22,lacayo,,,,,535.102,537.7572,0,0,1.9255,,0,1,1,21,1,REAL,FAKE,,,,,,,,,,,,,,,,,
,,,,,,,,,60d8c6bc9686529cdc824a49,Spanish,13 or older,"no, only English or Spanish",no,2025-07-22_20h40.17.067,empathy_intonation_perc,2024.2.4,Win32,9.99000999,60d8c6bc9686529cdc824a49,687ed1b7e638a4cbf2f02089,68802f3108240a5654ef00c2,,,,,,,,,,,,,,0,,,,,,,,,,,,,,,,,,,,,,,,,,,,,,,,,,,,,,,,,,,,,,,,,,,,,,,,,58,plaudir,,,,,537.7582,540.749,1,0,2.2455,,0,2,2,57,1,REAL,FAKE,,,,,,,,,,,,,,,,,
,,,,,,,,,60d8c6bc9686529cdc824a49,Spanish,13 or older,"no, only English or Spanish",no,2025-07-22_20h40.17.067,empathy_intonation_perc,2024.2.4,Win32,9.99000999,60d8c6bc9686529cdc824a49,687ed1b7e638a4cbf2f02089,68802f3108240a5654ef00c2,,,,,,,,,,,,,,1,,,,,,,,,,,,,,,,,,,,,,,,,,,,,,,,,,,,,,,,,,,,,,,,,,,,,,,,,43,canela,,,,,540.7504,542.6955,1,1,1.2162,0.0003,0,3,3,42,1,REAL,FAKE,,,,,,,,,,,,,,,,,
,,,,,,,,,60d8c6bc9686529cdc824a49,Spanish,13 or older,"no, only English or Spanish",no,2025-07-22_20h40.17.067,empathy_intonation_perc,2024.2.4,Win32,9.99000999,60d8c6bc9686529cdc824a49,687ed1b7e638a4cbf2f02089,68802f3108240a5654ef00c2,,,,,,,,,,,,,,1,,,,,,,,,,,,,,,,,,,,,,,,,,,,,,,,,,,,,,,,,,,,,,,,,,,,,,,,,34,aviso,,,,,542.697,545.1474,0,0,1.7516,,0,4,4,33,1,REAL,FAKE,,,,,,,,,,,,,,,,,
,,,,,,,,,60d8c6bc9686529cdc824a49,Spanish,13 or older,"no, only English or Spanish",no,2025-07-22_20h40.17.067,empathy_intonation_perc,2024.2.4,Win32,9.99000999,60d8c6bc9686529cdc824a49,687ed1b7e638a4cbf2f02089,68802f3108240a5654ef00c2,,,,,,,,,,,,,,1,,,,,,,,,,,,,,,,,,,,,,,,,,,,,,,,,,,,,,,,,,,,,,,,,,,,,,,,,75,yacer,,,,,545.1485,547.6711,0,0,1.8013,,0,5,5,74,1,REAL,FAKE,,,,,,,,,,,,,,,,,
,,,,,,,,,60d8c6bc9686529cdc824a49,Spanish,13 or older,"no, only English or Spanish",no,2025-07-22_20h40.17.067,empathy_intonation_perc,2024.2.4,Win32,9.99000999,60d8c6bc9686529cdc824a49,687ed1b7e638a4cbf2f02089,68802f3108240a5654ef00c2,,,,,,,,,,,,,,1,,,,,,,,,,,,,,,,,,,,,,,,,,,,,,,,,,,,,,,,,,,,,,,,,,,,,,,,,49,ganar,,,,,547.6722,550.4173,1,1,2.0184,,0,6,6,48,1,REAL,FAKE,,,,,,,,,,,,,,,,,
,,,,,,,,,60d8c6bc9686529cdc824a49,Spanish,13 or older,"no, only English or Spanish",no,2025-07-22_20h40.17.067,empathy_intonation_perc,2024.2.4,Win32,9.99000999,60d8c6bc9686529cdc824a49,687ed1b7e638a4cbf2f02089,68802f3108240a5654ef00c2,,,,,,,,,,,,,,1,,,,,,,,,,,,,,,,,,,,,,,,,,,,,,,,,,,,,,,,,,,,,,,,,,,,,,,,,24,látigo,,,,,550.4192,553.3787,1,1,2.2767,,0,7,7,23,1,REAL,FAKE,,,,,,,,,,,,,,,,,
,,,,,,,,,60d8c6bc9686529cdc824a49,Spanish,13 or older,"no, only English or Spanish",no,2025-07-22_20h40.17.067,empathy_intonation_perc,2024.2.4,Win32,9.99000999,60d8c6bc9686529cdc824a49,687ed1b7e638a4cbf2f02089,68802f3108240a5654ef00c2,,,,,,,,,,,,,,1,,,,,,,,,,,,,,,,,,,,,,,,,,,,,,,,,,,,,,,,,,,,,,,,,,,,,,,,,14,yunque,,,,,553.3804,555.7179,0,0,1.7188,,0,8,8,13,1,REAL,FAKE,,,,,,,,,,,,,,,,,
,,,,,,,,,60d8c6bc9686529cdc824a49,Spanish,13 or older,"no, only English or Spanish",no,2025-07-22_20h40.17.067,empathy_intonation_perc,2024.2.4,Win32,9.99000999,60d8c6bc9686529cdc824a49,687ed1b7e638a4cbf2f02089,68802f3108240a5654ef00c2,,,,,,,,,,,,,,0,,,,,,,,,,,,,,,,,,,,,,,,,,,,,,,,,,,,,,,,,,,,,,,,,,,,,,,,,47,cartinar,,,,,555.719,557.9098,0,1,1.4998,,0,9,9,46,1,REAL,FAKE,,,,,,,,,,,,,,,,,
,,,,,,,,,60d8c6bc9686529cdc824a49,Spanish,13 or older,"no, only English or Spanish",no,2025-07-22_20h40.17.067,empathy_intonation_perc,2024.2.4,Win32,9.99000999,60d8c6bc9686529cdc824a49,687ed1b7e638a4cbf2f02089,68802f3108240a5654ef00c2,,,,,,,,,,,,,,1,,,,,,,,,,,,,,,,,,,,,,,,,,,,,,,,,,,,,,,,,,,,,,,,,,,,,,,,,80,hormiga,,,,,557.9108,559.9894,1,1,1.4617,,0,10,10,79,1,REAL,FAKE,,,,,,,,,,,,,,,,,
,,,,,,,,,60d8c6bc9686529cdc824a49,Spanish,13 or older,"no, only English or Spanish",no,2025-07-22_20h40.17.067,empathy_intonation_perc,2024.2.4,Win32,9.99000999,60d8c6bc9686529cdc824a49,687ed1b7e638a4cbf2f02089,68802f3108240a5654ef00c2,,,,,,,,,,,,,,1,,,,,,,,,,,,,,,,,,,,,,,,,,,,,,,,,,,,,,,,,,,,,,,,,,,,,,,,,28,merodear,,,,,559.9908,563.4311,0,0,2.7426,,0,11,11,27,1,REAL,FAKE,,,,,,,,,,,,,,,,,
,,,,,,,,,60d8c6bc9686529cdc824a49,Spanish,13 or older,"no, only English or Spanish",no,2025-07-22_20h40.17.067,empathy_intonation_perc,2024.2.4,Win32,9.99000999,60d8c6bc9686529cdc824a49,687ed1b7e638a4cbf2f02089,68802f3108240a5654ef00c2,,,,,,,,,,,,,,1,,,,,,,,,,,,,,,,,,,,,,,,,,,,,,,,,,,,,,,,,,,,,,,,,,,,,,,,,2,pellizcar,,,,,563.4331,566.885,0,0,2.7606,,0,12,12,1,1,REAL,FAKE,,,,,,,,,,,,,,,,,
,,,,,,,,,60d8c6bc9686529cdc824a49,Spanish,13 or older,"no, only English or Spanish",no,2025-07-22_20h40.17.067,empathy_intonation_perc,2024.2.4,Win32,9.99000999,60d8c6bc9686529cdc824a49,687ed1b7e638a4cbf2f02089,68802f3108240a5654ef00c2,,,,,,,,,,,,,,1,,,,,,,,,,,,,,,,,,,,,,,,,,,,,,,,,,,,,,,,,,,,,,,,,,,,,,,,,9,hacha,,,,,566.8863,569.0322,1,1,1.4296,,0,13,13,8,1,REAL,FAKE,,,,,,,,,,,,,,,,,
,,,,,,,,,60d8c6bc9686529cdc824a49,Spanish,13 or older,"no, only English or Spanish",no,2025-07-22_20h40.17.067,empathy_intonation_perc,2024.2.4,Win32,9.99000999,60d8c6bc9686529cdc824a49,687ed1b7e638a4cbf2f02089,68802f3108240a5654ef00c2,,,,,,,,,,,,,,0,,,,,,,,,,,,,,,,,,,,,,,,,,,,,,,,,,,,,,,,,,,,,,,,,,,,,,,,,53,vegada,,,,,569.0333,572.4862,1,0,2.7547,,0,14,14,52,1,REAL,FAKE,,,,,,,,,,,,,,,,,
,,,,,,,,,60d8c6bc9686529cdc824a49,Spanish,13 or older,"no, only English or Spanish",no,2025-07-22_20h40.17.067,empathy_intonation_perc,2024.2.4,Win32,9.99000999,60d8c6bc9686529cdc824a49,687ed1b7e638a4cbf2f02089,68802f3108240a5654ef00c2,,,,,,,,,,,,,,1,,,,,,,,,,,,,,,,,,,,,,,,,,,,,,,,,,,,,,,,,,,,,,,,,,,,,,,,,44,cuchara,,,,,572.4872,576.0363,1,1,2.8438,,0,15,15,43,1,REAL,FAKE,,,,,,,,,,,,,,,,,
,,,,,,,,,60d8c6bc9686529cdc824a49,Spanish,13 or older,"no, only English or Spanish",no,2025-07-22_20h40.17.067,empathy_intonation_perc,2024.2.4,Win32,9.99000999,60d8c6bc9686529cdc824a49,687ed1b7e638a4cbf2f02089,68802f3108240a5654ef00c2,,,,,,,,,,,,,,1,,,,,,,,,,,,,,,,,,,,,,,,,,,,,,,,,,,,,,,,,,,,,,,,,,,,,,,,,38,estornudar,,,,,576.0373,579.8897,0,0,3.1336,,0,16,16,37,1,REAL,FAKE,,,,,,,,,,,,,,,,,
,,,,,,,,,60d8c6bc9686529cdc824a49,Spanish,13 or older,"no, only English or Spanish",no,2025-07-22_20h40.17.067,empathy_intonation_perc,2024.2.4,Win32,9.99000999,60d8c6bc9686529cdc824a49,687ed1b7e638a4cbf2f02089,68802f3108240a5654ef00c2,,,,,,,,,,,,,,0,,,,,,,,,,,,,,,,,,,,,,,,,,,,,,,,,,,,,,,,,,,,,,,,,,,,,,,,,42,cadallo,,,,,579.8911,582.5937,0,1,1.9944,9.99999E-05,0,17,17,41,1,REAL,FAKE,,,,,,,,,,,,,,,,,
,,,,,,,,,60d8c6bc9686529cdc824a49,Spanish,13 or older,"no, only English or Spanish",no,2025-07-22_20h40.17.067,empathy_intonation_perc,2024.2.4,Win32,9.99000999,60d8c6bc9686529cdc824a49,687ed1b7e638a4cbf2f02089,68802f3108240a5654ef00c2,,,,,,,,,,,,,,1,,,,,,,,,,,,,,,,,,,,,,,,,,,,,,,,,,,,,,,,,,,,,,,,,,,,,,,,,57,tacaño,,,,,582.5955,585.7137,1,1,2.4817,,0,18,18,56,1,REAL,FAKE,,,,,,,,,,,,,,,,,
,,,,,,,,,60d8c6bc9686529cdc824a49,Spanish,13 or older,"no, only English or Spanish",no,2025-07-22_20h40.17.067,empathy_intonation_perc,2024.2.4,Win32,9.99000999,60d8c6bc9686529cdc824a49,687ed1b7e638a4cbf2f02089,68802f3108240a5654ef00c2,,,,,,,,,,,,,,1,,,,,,,,,,,,,,,,,,,,,,,,,,,,,,,,,,,,,,,,,,,,,,,,,,,,,,,,,59,besar,,,,,585.7149,587.9091,1,1,1.5549,,0,19,19,58,1,REAL,FAKE,,,,,,,,,,,,,,,,,
,,,,,,,,,60d8c6bc9686529cdc824a49,Spanish,13 or older,"no, only English or Spanish",no,2025-07-22_20h40.17.067,empathy_intonation_perc,2024.2.4,Win32,9.99000999,60d8c6bc9686529cdc824a49,687ed1b7e638a4cbf2f02089,68802f3108240a5654ef00c2,,,,,,,,,,,,,,0,,,,,,,,,,,,,,,,,,,,,,,,,,,,,,,,,,,,,,,,,,,,,,,,,,,,,,,,,72,pemición,,,,,587.9106,591.1205,0,1,2.5232,,0,20,20,71,1,REAL,FAKE,,,,,,,,,,,,,,,,,
,,,,,,,,,60d8c6bc9686529cdc824a49,Spanish,13 or older,"no, only English or Spanish",no,2025-07-22_20h40.17.067,empathy_intonation_perc,2024.2.4,Win32,9.99000999,60d8c6bc9686529cdc824a49,687ed1b7e638a4cbf2f02089,68802f3108240a5654ef00c2,,,,,,,,,,,,,,1,,,,,,,,,,,,,,,,,,,,,,,,,,,,,,,,,,,,,,,,,,,,,,,,,,,,,,,,,3,pulmones,,,,,591.1216,593.539,0,0,1.6869,,0,21,21,2,1,REAL,FAKE,,,,,,,,,,,,,,,,,
,,,,,,,,,60d8c6bc9686529cdc824a49,Spanish,13 or older,"no, only English or Spanish",no,2025-07-22_20h40.17.067,empathy_intonation_perc,2024.2.4,Win32,9.99000999,60d8c6bc9686529cdc824a49,687ed1b7e638a4cbf2f02089,68802f3108240a5654ef00c2,,,,,,,,,,,,,,0,,,,,,,,,,,,,,,,,,,,,,,,,,,,,,,,,,,,,,,,,,,,,,,,,,,,,,,,,92,click the 0 key.,,,,,593.5401,597.0591,0,1,2.8443,,0,22,22,91,1,REAL,FAKE,,,,,,,,,,,,,,,,,
,,,,,,,,,60d8c6bc9686529cdc824a49,Spanish,13 or older,"no, only English or Spanish",no,2025-07-22_20h40.17.067,empathy_intonation_perc,2024.2.4,Win32,9.99000999,60d8c6bc9686529cdc824a49,687ed1b7e638a4cbf2f02089,68802f3108240a5654ef00c2,,,,,,,,,,,,,,1,,,,,,,,,,,,,,,,,,,,,,,,,,,,,,,,,,,,,,,,,,,,,,,,,,,,,,,,,85,laúd,,,,,597.061,600.2407,0,0,2.5135,,0,23,23,84,1,REAL,FAKE,,,,,,,,,,,,,,,,,
,,,,,,,,,60d8c6bc9686529cdc824a49,Spanish,13 or older,"no, only English or Spanish",no,2025-07-22_20h40.17.067,empathy_intonation_perc,2024.2.4,Win32,9.99000999,60d8c6bc9686529cdc824a49,687ed1b7e638a4cbf2f02089,68802f3108240a5654ef00c2,,,,,,,,,,,,,,1,,,,,,,,,,,,,,,,,,,,,,,,,,,,,,,,,,,,,,,,,,,,,,,,,,,,,,,,,69,engatusar,,,,,600.2425,605.911,0,0,4.9457,,0,24,24,68,1,REAL,FAKE,,,,,,,,,,,,,,,,,
,,,,,,,,,60d8c6bc9686529cdc824a49,Spanish,13 or older,"no, only English or Spanish",no,2025-07-22_20h40.17.067,empathy_intonation_perc,2024.2.4,Win32,9.99000999,60d8c6bc9686529cdc824a49,687ed1b7e638a4cbf2f02089,68802f3108240a5654ef00c2,,,,,,,,,,,,,,1,,,,,,,,,,,,,,,,,,,,,,,,,,,,,,,,,,,,,,,,,,,,,,,,,,,,,,,,,11,cenefa,,,,,605.9121,609.8608,0,0,3.2432,,0,25,25,10,1,REAL,FAKE,,,,,,,,,,,,,,,,,
,,,,,,,,,60d8c6bc9686529cdc824a49,Spanish,13 or older,"no, only English or Spanish",no,2025-07-22_20h40.17.067,empathy_intonation_perc,2024.2.4,Win32,9.99000999,60d8c6bc9686529cdc824a49,687ed1b7e638a4cbf2f02089,68802f3108240a5654ef00c2,,,,,,,,,,,,,,1,,,,,,,,,,,,,,,,,,,,,,,,,,,,,,,,,,,,,,,,,,,,,,,,,,,,,,,,,51,candado,,,,,609.8617,611.9355,1,1,1.3774,,0,26,26,50,1,REAL,FAKE,,,,,,,,,,,,,,,,,
,,,,,,,,,60d8c6bc9686529cdc824a49,Spanish,13 or older,"no, only English or Spanish",no,2025-07-22_20h40.17.067,empathy_intonation_perc,2024.2.4,Win32,9.99000999,60d8c6bc9686529cdc824a49,687ed1b7e638a4cbf2f02089,68802f3108240a5654ef00c2,,,,,,,,,,,,,,1,,,,,,,,,,,,,,,,,,,,,,,,,,,,,,,,,,,,,,,,,,,,,,,,,,,,,,,,,5,zapato,,,,,611.9365,614.0913,1,1,1.4664,,0,27,27,4,1,REAL,FAKE,,,,,,,,,,,,,,,,,
,,,,,,,,,60d8c6bc9686529cdc824a49,Spanish,13 or older,"no, only English or Spanish",no,2025-07-22_20h40.17.067,empathy_intonation_perc,2024.2.4,Win32,9.99000999,60d8c6bc9686529cdc824a49,687ed1b7e638a4cbf2f02089,68802f3108240a5654ef00c2,,,,,,,,,,,,,,1,,,,,,,,,,,,,,,,,,,,,,,,,,,,,,,,,,,,,,,,,,,,,,,,,,,,,,,,,54,fomentar,,,,,614.0925,616.5612,1,1,1.7517,,0,28,28,53,1,REAL,FAKE,,,,,,,,,,,,,,,,,
,,,,,,,,,60d8c6bc9686529cdc824a49,Spanish,13 or older,"no, only English or Spanish",no,2025-07-22_20h40.17.067,empathy_intonation_perc,2024.2.4,Win32,9.99000999,60d8c6bc9686529cdc824a49,687ed1b7e638a4cbf2f02089,68802f3108240a5654ef00c2,,,,,,,,,,,,,,1,,,,,,,,,,,,,,,,,,,,,,,,,,,,,,,,,,,,,,,,,,,,,,,,,,,,,,,,,77,tiburón,,,,,616.5624,618.9886,0,0,1.7166,,0,29,29,76,1,REAL,FAKE,,,,,,,,,,,,,,,,,
,,,,,,,,,60d8c6bc9686529cdc824a49,Spanish,13 or older,"no, only English or Spanish",no,2025-07-22_20h40.17.067,empathy_intonation_perc,2024.2.4,Win32,9.99000999,60d8c6bc9686529cdc824a49,687ed1b7e638a4cbf2f02089,68802f3108240a5654ef00c2,,,,,,,,,,,,,,0,,,,,,,,,,,,,,,,,,,,,,,,,,,,,,,,,,,,,,,,,,,,,,,,,,,,,,,,,82,empirador,,,,,618.9897,621.831,0,1,2.1133,,0,30,30,81,1,REAL,FAKE,,,,,,,,,,,,,,,,,
,,,,,,,,,60d8c6bc9686529cdc824a49,Spanish,13 or older,"no, only English or Spanish",no,2025-07-22_20h40.17.067,empathy_intonation_perc,2024.2.4,Win32,9.99000999,60d8c6bc9686529cdc824a49,687ed1b7e638a4cbf2f02089,68802f3108240a5654ef00c2,,,,,,,,,,,,,,0,,,,,,,,,,,,,,,,,,,,,,,,,,,,,,,,,,,,,,,,,,,,,,,,,,,,,,,,,17,floroso,,,,,621.8322,624.5707,0,1,2.0448,,0,31,31,16,1,REAL,FAKE,,,,,,,,,,,,,,,,,
,,,,,,,,,60d8c6bc9686529cdc824a49,Spanish,13 or older,"no, only English or Spanish",no,2025-07-22_20h40.17.067,empathy_intonation_perc,2024.2.4,Win32,9.99000999,60d8c6bc9686529cdc824a49,687ed1b7e638a4cbf2f02089,68802f3108240a5654ef00c2,,,,,,,,,,,,,,0,,,,,,,,,,,,,,,,,,,,,,,,,,,,,,,,,,,,,,,,,,,,,,,,,,,,,,,,,66,hacido,,,,,624.5718,626.5566,1,0,1.2935,,0,32,32,65,1,REAL,FAKE,,,,,,,,,,,,,,,,,
,,,,,,,,,60d8c6bc9686529cdc824a49,Spanish,13 or older,"no, only English or Spanish",no,2025-07-22_20h40.17.067,empathy_intonation_perc,2024.2.4,Win32,9.99000999,60d8c6bc9686529cdc824a49,687ed1b7e638a4cbf2f02089,68802f3108240a5654ef00c2,,,,,,,,,,,,,,0,,,,,,,,,,,,,,,,,,,,,,,,,,,,,,,,,,,,,,,,,,,,,,,,,,,,,,,,,23,lampera,,,,,626.5577,629.454,1,0,2.2047,,0,33,33,22,1,REAL,FAKE,,,,,,,,,,,,,,,,,
,,,,,,,,,60d8c6bc9686529cdc824a49,Spanish,13 or older,"no, only English or Spanish",no,2025-07-22_20h40.17.067,empathy_intonation_perc,2024.2.4,Win32,9.99000999,60d8c6bc9686529cdc824a49,687ed1b7e638a4cbf2f02089,68802f3108240a5654ef00c2,,,,,,,,,,,,,,1,,,,,,,,,,,,,,,,,,,,,,,,,,,,,,,,,,,,,,,,,,,,,,,,,,,,,,,,,48,ladrón,,,,,629.4551,631.8813,0,0,1.7235,,0,34,34,47,1,REAL,FAKE,,,,,,,,,,,,,,,,,
,,,,,,,,,60d8c6bc9686529cdc824a49,Spanish,13 or older,"no, only English or Spanish",no,2025-07-22_20h40.17.067,empathy_intonation_perc,2024.2.4,Win32,9.99000999,60d8c6bc9686529cdc824a49,687ed1b7e638a4cbf2f02089,68802f3108240a5654ef00c2,,,,,,,,,,,,,,1,,,,,,,,,,,,,,,,,,,,,,,,,,,,,,,,,,,,,,,,,,,,,,,,,,,,,,,,,81,pozo,,,,,631.8825,634.0534,0,0,1.45,,0,35,35,80,1,REAL,FAKE,,,,,,,,,,,,,,,,,
,,,,,,,,,60d8c6bc9686529cdc824a49,Spanish,13 or older,"no, only English or Spanish",no,2025-07-22_20h40.17.067,empathy_intonation_perc,2024.2.4,Win32,9.99000999,60d8c6bc9686529cdc824a49,687ed1b7e638a4cbf2f02089,68802f3108240a5654ef00c2,,,,,,,,,,,,,,1,,,,,,,,,,,,,,,,,,,,,,,,,,,,,,,,,,,,,,,,,,,,,,,,,,,,,,,,,39,torpe,,,,,634.0545,636.6012,0,0,1.8512,,0,36,36,38,1,REAL,FAKE,,,,,,,,,,,,,,,,,
,,,,,,,,,60d8c6bc9686529cdc824a49,Spanish,13 or older,"no, only English or Spanish",no,2025-07-22_20h40.17.067,empathy_intonation_perc,2024.2.4,Win32,9.99000999,60d8c6bc9686529cdc824a49,687ed1b7e638a4cbf2f02089,68802f3108240a5654ef00c2,,,,,,,,,,,,,,0,,,,,,,,,,,,,,,,,,,,,,,,,,,,,,,,,,,,,,,,,,,,,,,,,,,,,,,,,16,abracer,,,,,636.6024,638.8454,1,0,1.5956,,0,37,37,15,1,REAL,FAKE,,,,,,,,,,,,,,,,,
,,,,,,,,,60d8c6bc9686529cdc824a49,Spanish,13 or older,"no, only English or Spanish",no,2025-07-22_20h40.17.067,empathy_intonation_perc,2024.2.4,Win32,9.99000999,60d8c6bc9686529cdc824a49,687ed1b7e638a4cbf2f02089,68802f3108240a5654ef00c2,,,,,,,,,,,,,,0,,,,,,,,,,,,,,,,,,,,,,,,,,,,,,,,,,,,,,,,,,,,,,,,,,,,,,,,,32,fatacidad,,,,,638.8466,641.8442,0,1,2.348,0.0002,0,38,38,31,1,REAL,FAKE,,,,,,,,,,,,,,,,,
,,,,,,,,,60d8c6bc9686529cdc824a49,Spanish,13 or older,"no, only English or Spanish",no,2025-07-22_20h40.17.067,empathy_intonation_perc,2024.2.4,Win32,9.99000999,60d8c6bc9686529cdc824a49,687ed1b7e638a4cbf2f02089,68802f3108240a5654ef00c2,,,,,,,,,,,,,,0,,,,,,,,,,,,,,,,,,,,,,,,,,,,,,,,,,,,,,,,,,,,,,,,,,,,,,,,,35,rompido,,,,,641.8457,646.6736,0,1,4.1218,,0,39,39,34,1,REAL,FAKE,,,,,,,,,,,,,,,,,
,,,,,,,,,60d8c6bc9686529cdc824a49,Spanish,13 or older,"no, only English or Spanish",no,2025-07-22_20h40.17.067,empathy_intonation_perc,2024.2.4,Win32,9.99000999,60d8c6bc9686529cdc824a49,687ed1b7e638a4cbf2f02089,68802f3108240a5654ef00c2,,,,,,,,,,,,,,1,,,,,,,,,,,,,,,,,,,,,,,,,,,,,,,,,,,,,,,,,,,,,,,,,,,,,,,,,41,rebuscar,,,,,646.6749,648.941,1,1,1.644,,0,40,40,40,1,REAL,FAKE,,,,,,,,,,,,,,,,,
,,,,,,,,,60d8c6bc9686529cdc824a49,Spanish,13 or older,"no, only English or Spanish",no,2025-07-22_20h40.17.067,empathy_intonation_perc,2024.2.4,Win32,9.99000999,60d8c6bc9686529cdc824a49,687ed1b7e638a4cbf2f02089,68802f3108240a5654ef00c2,,,,,,,,,,,,,,0,,,,,,,,,,,,,,,,,,,,,,,,,,,,,,,,,,,,,,,,,,,,,,,,,,,,,,,,,1,terzo,,,,,648.9426,652.0742,1,0,2.4337,,0,41,41,0,1,REAL,FAKE,,,,,,,,,,,,,,,,,
,,,,,,,,,60d8c6bc9686529cdc824a49,Spanish,13 or older,"no, only English or Spanish",no,2025-07-22_20h40.17.067,empathy_intonation_perc,2024.2.4,Win32,9.99000999,60d8c6bc9686529cdc824a49,687ed1b7e638a4cbf2f02089,68802f3108240a5654ef00c2,,,,,,,,,,,,,,0,,,,,,,,,,,,,,,,,,,,,,,,,,,,,,,,,,,,,,,,,,,,,,,,,,,,,,,,,19,brecedad,,,,,652.0753,654.6251,0,1,1.8444,,0,42,42,18,1,REAL,FAKE,,,,,,,,,,,,,,,,,
,,,,,,,,,60d8c6bc9686529cdc824a49,Spanish,13 or older,"no, only English or Spanish",no,2025-07-22_20h40.17.067,empathy_intonation_perc,2024.2.4,Win32,9.99000999,60d8c6bc9686529cdc824a49,687ed1b7e638a4cbf2f02089,68802f3108240a5654ef00c2,,,,,,,,,,,,,,0,,,,,,,,,,,,,,,,,,,,,,,,,,,,,,,,,,,,,,,,,,,,,,,,,,,,,,,,,29,decar,,,,,654.6263,657.2293,0,1,1.9316,,0,43,43,28,1,REAL,FAKE,,,,,,,,,,,,,,,,,
,,,,,,,,,60d8c6bc9686529cdc824a49,Spanish,13 or older,"no, only English or Spanish",no,2025-07-22_20h40.17.067,empathy_intonation_perc,2024.2.4,Win32,9.99000999,60d8c6bc9686529cdc824a49,687ed1b7e638a4cbf2f02089,68802f3108240a5654ef00c2,,,,,,,,,,,,,,0,,,,,,,,,,,,,,,,,,,,,,,,,,,,,,,,,,,,,,,,,,,,,,,,,,,,,,,,,70,temblo,,,,,657.2302,659.3019,1,0,1.4582,,0,44,44,69,1,REAL,FAKE,,,,,,,,,,,,,,,,,
,,,,,,,,,60d8c6bc9686529cdc824a49,Spanish,13 or older,"no, only English or Spanish",no,2025-07-22_20h40.17.067,empathy_intonation_perc,2024.2.4,Win32,9.99000999,60d8c6bc9686529cdc824a49,687ed1b7e638a4cbf2f02089,68802f3108240a5654ef00c2,,,,,,,,,,,,,,0,,,,,,,,,,,,,,,,,,,,,,,,,,,,,,,,,,,,,,,,,,,,,,,,,,,,,,,,,87,grodo,,,,,659.3031,661.843,0,1,1.8507,,0,45,45,86,1,REAL,FAKE,,,,,,,,,,,,,,,,,
,,,,,,,,,60d8c6bc9686529cdc824a49,Spanish,13 or older,"no, only English or Spanish",no,2025-07-22_20h40.17.067,empathy_intonation_perc,2024.2.4,Win32,9.99000999,60d8c6bc9686529cdc824a49,687ed1b7e638a4cbf2f02089,68802f3108240a5654ef00c2,,,,,,,,,,,,,,0,,,,,,,,,,,,,,,,,,,,,,,,,,,,,,,,,,,,,,,,,,,,,,,,,,,,,,,,,18,arsa,,,,,661.8441,663.8774,0,1,1.3356,,0,46,46,17,1,REAL,FAKE,,,,,,,,,,,,,,,,,
,,,,,,,,,60d8c6bc9686529cdc824a49,Spanish,13 or older,"no, only English or Spanish",no,2025-07-22_20h40.17.067,empathy_intonation_perc,2024.2.4,Win32,9.99000999,60d8c6bc9686529cdc824a49,687ed1b7e638a4cbf2f02089,68802f3108240a5654ef00c2,,,,,,,,,,,,,,1,,,,,,,,,,,,,,,,,,,,,,,,,,,,,,,,,,,,,,,,,,,,,,,,,,,,,,,,,89,prisa,,,,,663.8784,666.8944,1,1,2.2958,,0,47,47,88,1,REAL,FAKE,,,,,,,,,,,,,,,,,
,,,,,,,,,60d8c6bc9686529cdc824a49,Spanish,13 or older,"no, only English or Spanish",no,2025-07-22_20h40.17.067,empathy_intonation_perc,2024.2.4,Win32,9.99000999,60d8c6bc9686529cdc824a49,687ed1b7e638a4cbf2f02089,68802f3108240a5654ef00c2,,,,,,,,,,,,,,0,,,,,,,,,,,,,,,,,,,,,,,,,,,,,,,,,,,,,,,,,,,,,,,,,,,,,,,,,8,cadeña,,,,,666.8956,669.5887,1,0,1.9837,,0,48,48,7,1,REAL,FAKE,,,,,,,,,,,,,,,,,
,,,,,,,,,60d8c6bc9686529cdc824a49,Spanish,13 or older,"no, only English or Spanish",no,2025-07-22_20h40.17.067,empathy_intonation_perc,2024.2.4,Win32,9.99000999,60d8c6bc9686529cdc824a49,687ed1b7e638a4cbf2f02089,68802f3108240a5654ef00c2,,,,,,,,,,,,,,1,,,,,,,,,,,,,,,,,,,,,,,,,,,,,,,,,,,,,,,,,,,,,,,,,,,,,,,,,13,helar,,,,,669.5899,671.9987,1,1,1.702,,0,49,49,12,1,REAL,FAKE,,,,,,,,,,,,,,,,,
,,,,,,,,,60d8c6bc9686529cdc824a49,Spanish,13 or older,"no, only English or Spanish",no,2025-07-22_20h40.17.067,empathy_intonation_perc,2024.2.4,Win32,9.99000999,60d8c6bc9686529cdc824a49,687ed1b7e638a4cbf2f02089,68802f3108240a5654ef00c2,,,,,,,,,,,,,,1,,,,,,,,,,,,,,,,,,,,,,,,,,,,,,,,,,,,,,,,,,,,,,,,,,,,,,,,,46,martillo,,,,,671.9998,674.9124,0,0,2.2064,,0,50,50,45,1,REAL,FAKE,,,,,,,,,,,,,,,,,
,,,,,,,,,60d8c6bc9686529cdc824a49,Spanish,13 or older,"no, only English or Spanish",no,2025-07-22_20h40.17.067,empathy_intonation_perc,2024.2.4,Win32,9.99000999,60d8c6bc9686529cdc824a49,687ed1b7e638a4cbf2f02089,68802f3108240a5654ef00c2,,,,,,,,,,,,,,1,,,,,,,,,,,,,,,,,,,,,,,,,,,,,,,,,,,,,,,,,,,,,,,,,,,,,,,,,25,bisagra,,,,,674.917,679.9045,1,1,4.3035,,0,51,51,24,1,REAL,FAKE,,,,,,,,,,,,,,,,,
,,,,,,,,,60d8c6bc9686529cdc824a49,Spanish,13 or older,"no, only English or Spanish",no,2025-07-22_20h40.17.067,empathy_intonation_perc,2024.2.4,Win32,9.99000999,60d8c6bc9686529cdc824a49,687ed1b7e638a4cbf2f02089,68802f3108240a5654ef00c2,,,,,,,,,,,,,,1,,,,,,,,,,,,,,,,,,,,,,,,,,,,,,,,,,,,,,,,,,,,,,,,,,,,,,,,,64,orgulloso,,,,,679.9056,683.0428,0,0,2.4893,,0,52,52,63,1,REAL,FAKE,,,,,,,,,,,,,,,,,
,,,,,,,,,60d8c6bc9686529cdc824a49,Spanish,13 or older,"no, only English or Spanish",no,2025-07-22_20h40.17.067,empathy_intonation_perc,2024.2.4,Win32,9.99000999,60d8c6bc9686529cdc824a49,687ed1b7e638a4cbf2f02089,68802f3108240a5654ef00c2,,,,,,,,,,,,,,0,,,,,,,,,,,,,,,,,,,,,,,,,,,,,,,,,,,,,,,,,,,,,,,,,,,,,,,,,74,cintro,,,,,683.044,685.0391,1,0,1.3533,,0,53,53,73,1,REAL,FAKE,,,,,,,,,,,,,,,,,
,,,,,,,,,60d8c6bc9686529cdc824a49,Spanish,13 or older,"no, only English or Spanish",no,2025-07-22_20h40.17.067,empathy_intonation_perc,2024.2.4,Win32,9.99000999,60d8c6bc9686529cdc824a49,687ed1b7e638a4cbf2f02089,68802f3108240a5654ef00c2,,,,,,,,,,,,,,0,,,,,,,,,,,,,,,,,,,,,,,,,,,,,,,,,,,,,,,,,,,,,,,,,,,,,,,,,63,esposante,,,,,685.0405,690.7478,0,1,5.1042,,0,54,54,62,1,REAL,FAKE,,,,,,,,,,,,,,,,,
,,,,,,,,,60d8c6bc9686529cdc824a49,Spanish,13 or older,"no, only English or Spanish",no,2025-07-22_20h40.17.067,empathy_intonation_perc,2024.2.4,Win32,9.99000999,60d8c6bc9686529cdc824a49,687ed1b7e638a4cbf2f02089,68802f3108240a5654ef00c2,,,,,,,,,,,,,,1,,,,,,,,,,,,,,,,,,,,,,,,,,,,,,,,,,,,,,,,,,,,,,,,,,,,,,,,,67,cabello,,,,,690.7492,692.868,1,1,1.39,,0,55,55,66,1,REAL,FAKE,,,,,,,,,,,,,,,,,
,,,,,,,,,60d8c6bc9686529cdc824a49,Spanish,13 or older,"no, only English or Spanish",no,2025-07-22_20h40.17.067,empathy_intonation_perc,2024.2.4,Win32,9.99000999,60d8c6bc9686529cdc824a49,687ed1b7e638a4cbf2f02089,68802f3108240a5654ef00c2,,,,,,,,,,,,,,1,,,,,,,,,,,,,,,,,,,,,,,,,,,,,,,,,,,,,,,,,,,,,,,,,,,,,,,,,60,matar,,,,,692.8689,698.6357,1,1,5.0742,,0,56,56,59,1,REAL,FAKE,,,,,,,,,,,,,,,,,
,,,,,,,,,60d8c6bc9686529cdc824a49,Spanish,13 or older,"no, only English or Spanish",no,2025-07-22_20h40.17.067,empathy_intonation_perc,2024.2.4,Win32,9.99000999,60d8c6bc9686529cdc824a49,687ed1b7e638a4cbf2f02089,68802f3108240a5654ef00c2,,,,,,,,,,,,,,1,,,,,,,,,,,,,,,,,,,,,,,,,,,,,,,,,,,,,,,,,,,,,,,,,,,,,,,,,37,granuja,,,,,698.6367,705.633,0,0,6.3157,,0,57,57,36,1,REAL,FAKE,,,,,,,,,,,,,,,,,
,,,,,,,,,60d8c6bc9686529cdc824a49,Spanish,13 or older,"no, only English or Spanish",no,2025-07-22_20h40.17.067,empathy_intonation_perc,2024.2.4,Win32,9.99000999,60d8c6bc9686529cdc824a49,687ed1b7e638a4cbf2f02089,68802f3108240a5654ef00c2,,,,,,,,,,,,,,0,,,,,,,,,,,,,,,,,,,,,,,,,,,,,,,,,,,,,,,,,,,,,,,,,,,,,,,,,50,flamida,,,,,705.634,709.2333,1,0,2.8885,,0,58,58,49,1,REAL,FAKE,,,,,,,,,,,,,,,,,
,,,,,,,,,60d8c6bc9686529cdc824a49,Spanish,13 or older,"no, only English or Spanish",no,2025-07-22_20h40.17.067,empathy_intonation_perc,2024.2.4,Win32,9.99000999,60d8c6bc9686529cdc824a49,687ed1b7e638a4cbf2f02089,68802f3108240a5654ef00c2,,,,,,,,,,,,,,1,,,,,,,,,,,,,,,,,,,,,,,,,,,,,,,,,,,,,,,,,,,,,,,,,,,,,,,,,36,loro,,,,,709.2344,711.2722,1,1,1.4226,,0,59,59,35,1,REAL,FAKE,,,,,,,,,,,,,,,,,
,,,,,,,,,60d8c6bc9686529cdc824a49,Spanish,13 or older,"no, only English or Spanish",no,2025-07-22_20h40.17.067,empathy_intonation_perc,2024.2.4,Win32,9.99000999,60d8c6bc9686529cdc824a49,687ed1b7e638a4cbf2f02089,68802f3108240a5654ef00c2,,,,,,,,,,,,,,1,,,,,,,,,,,,,,,,,,,,,,,,,,,,,,,,,,,,,,,,,,,,,,,,,,,,,,,,,56,musgo,,,,,711.2731,713.9438,0,0,1.9413,,0,60,60,55,1,REAL,FAKE,,,,,,,,,,,,,,,,,
,,,,,,,,,60d8c6bc9686529cdc824a49,Spanish,13 or older,"no, only English or Spanish",no,2025-07-22_20h40.17.067,empathy_intonation_perc,2024.2.4,Win32,9.99000999,60d8c6bc9686529cdc824a49,687ed1b7e638a4cbf2f02089,68802f3108240a5654ef00c2,,,,,,,,,,,,,,1,,,,,,,,,,,,,,,,,,,,,,,,,,,,,,,,,,,,,,,,,,,,,,,,,,,,,,,,,20,ávido,,,,,713.945,716.0965,1,1,1.4696,,0,61,61,19,1,REAL,FAKE,,,,,,,,,,,,,,,,,
,,,,,,,,,60d8c6bc9686529cdc824a49,Spanish,13 or older,"no, only English or Spanish",no,2025-07-22_20h40.17.067,empathy_intonation_perc,2024.2.4,Win32,9.99000999,60d8c6bc9686529cdc824a49,687ed1b7e638a4cbf2f02089,68802f3108240a5654ef00c2,,,,,,,,,,,,,,1,,,,,,,,,,,,,,,,,,,,,,,,,,,,,,,,,,,,,,,,,,,,,,,,,,,,,,,,,26,secuestro,,,,,716.0975,719.6493,1,1,2.8458,,0,62,62,25,1,REAL,FAKE,,,,,,,,,,,,,,,,,
,,,,,,,,,60d8c6bc9686529cdc824a49,Spanish,13 or older,"no, only English or Spanish",no,2025-07-22_20h40.17.067,empathy_intonation_perc,2024.2.4,Win32,9.99000999,60d8c6bc9686529cdc824a49,687ed1b7e638a4cbf2f02089,68802f3108240a5654ef00c2,,,,,,,,,,,,,,0,,,,,,,,,,,,,,,,,,,,,,,,,,,,,,,,,,,,,,,,,,,,,,,,,,,,,,,,,84,escuto,,,,,719.6505,722.3963,1,0,2.0635,,0,63,63,83,1,REAL,FAKE,,,,,,,,,,,,,,,,,
,,,,,,,,,60d8c6bc9686529cdc824a49,Spanish,13 or older,"no, only English or Spanish",no,2025-07-22_20h40.17.067,empathy_intonation_perc,2024.2.4,Win32,9.99000999,60d8c6bc9686529cdc824a49,687ed1b7e638a4cbf2f02089,68802f3108240a5654ef00c2,,,,,,,,,,,,,,1,,,,,,,,,,,,,,,,,,,,,,,,,,,,,,,,,,,,,,,,,,,,,,,,,,,,,,,,,15,regar,,,,,722.398,724.7039,0,0,1.6092,,0,64,64,14,1,REAL,FAKE,,,,,,,,,,,,,,,,,
,,,,,,,,,60d8c6bc9686529cdc824a49,Spanish,13 or older,"no, only English or Spanish",no,2025-07-22_20h40.17.067,empathy_intonation_perc,2024.2.4,Win32,9.99000999,60d8c6bc9686529cdc824a49,687ed1b7e638a4cbf2f02089,68802f3108240a5654ef00c2,,,,,,,,,,,,,,1,,,,,,,,,,,,,,,,,,,,,,,,,,,,,,,,,,,,,,,,,,,,,,,,,,,,,,,,,12,asesinato,,,,,724.7051,728.7424,0,0,3.3317,,0,65,65,11,1,REAL,FAKE,,,,,,,,,,,,,,,,,
,,,,,,,,,60d8c6bc9686529cdc824a49,Spanish,13 or older,"no, only English or Spanish",no,2025-07-22_20h40.17.067,empathy_intonation_perc,2024.2.4,Win32,9.99000999,60d8c6bc9686529cdc824a49,687ed1b7e638a4cbf2f02089,68802f3108240a5654ef00c2,,,,,,,,,,,,,,1,,,,,,,,,,,,,,,,,,,,,,,,,,,,,,,,,,,,,,,,,,,,,,,,,,,,,,,,,73,hervidor,,,,,728.7434,731.5492,1,1,2.1495,,0,66,66,72,1,REAL,FAKE,,,,,,,,,,,,,,,,,
,,,,,,,,,60d8c6bc9686529cdc824a49,Spanish,13 or older,"no, only English or Spanish",no,2025-07-22_20h40.17.067,empathy_intonation_perc,2024.2.4,Win32,9.99000999,60d8c6bc9686529cdc824a49,687ed1b7e638a4cbf2f02089,68802f3108240a5654ef00c2,,,,,,,,,,,,,,1,,,,,,,,,,,,,,,,,,,,,,,,,,,,,,,,,,,,,,,,,,,,,,,,,,,,,,,,,68,alegre,,,,,731.5502,734.68,1,1,2.4489,,0,67,67,67,1,REAL,FAKE,,,,,,,,,,,,,,,,,
,,,,,,,,,60d8c6bc9686529cdc824a49,Spanish,13 or older,"no, only English or Spanish",no,2025-07-22_20h40.17.067,empathy_intonation_perc,2024.2.4,Win32,9.99000999,60d8c6bc9686529cdc824a49,687ed1b7e638a4cbf2f02089,68802f3108240a5654ef00c2,,,,,,,,,,,,,,1,,,,,,,,,,,,,,,,,,,,,,,,,,,,,,,,,,,,,,,,,,,,,,,,,,,,,,,,,40,alfombra,,,,,734.6811,737.7071,0,0,2.3077,,0,68,68,39,1,REAL,FAKE,,,,,,,,,,,,,,,,,
,,,,,,,,,60d8c6bc9686529cdc824a49,Spanish,13 or older,"no, only English or Spanish",no,2025-07-22_20h40.17.067,empathy_intonation_perc,2024.2.4,Win32,9.99000999,60d8c6bc9686529cdc824a49,687ed1b7e638a4cbf2f02089,68802f3108240a5654ef00c2,,,,,,,,,,,,,,1,,,,,,,,,,,,,,,,,,,,,,,,,,,,,,,,,,,,,,,,,,,,,,,,,,,,,,,,,62,flaco,,,,,737.7081,739.9901,1,1,1.5736,,0,69,69,61,1,REAL,FAKE,,,,,,,,,,,,,,,,,
,,,,,,,,,60d8c6bc9686529cdc824a49,Spanish,13 or older,"no, only English or Spanish",no,2025-07-22_20h40.17.067,empathy_intonation_perc,2024.2.4,Win32,9.99000999,60d8c6bc9686529cdc824a49,687ed1b7e638a4cbf2f02089,68802f3108240a5654ef00c2,,,,,,,,,,,,,,1,,,,,,,,,,,,,,,,,,,,,,,,,,,,,,,,,,,,,,,,,,,,,,,,,,,,,,,,,91,click the 1 key.,,,,,739.9914,741.8565,1,1,1.1478,,0,70,70,90,1,REAL,FAKE,,,,,,,,,,,,,,,,,
,,,,,,,,,60d8c6bc9686529cdc824a49,Spanish,13 or older,"no, only English or Spanish",no,2025-07-22_20h40.17.067,empathy_intonation_perc,2024.2.4,Win32,9.99000999,60d8c6bc9686529cdc824a49,687ed1b7e638a4cbf2f02089,68802f3108240a5654ef00c2,,,,,,,,,,,,,,1,,,,,,,,,,,,,,,,,,,,,,,,,,,,,,,,,,,,,,,,,,,,,,,,,,,,,,,,,55,nevar,,,,,741.8574,745.2101,1,1,2.6542,,0,71,71,54,1,REAL,FAKE,,,,,,,,,,,,,,,,,
,,,,,,,,,60d8c6bc9686529cdc824a49,Spanish,13 or older,"no, only English or Spanish",no,2025-07-22_20h40.17.067,empathy_intonation_perc,2024.2.4,Win32,9.99000999,60d8c6bc9686529cdc824a49,687ed1b7e638a4cbf2f02089,68802f3108240a5654ef00c2,,,,,,,,,,,,,,0,,,,,,,,,,,,,,,,,,,,,,,,,,,,,,,,,,,,,,,,,,,,,,,,,,,,,,,,,79,tropaje,,,,,745.2111,749.6554,0,1,3.7154,0.0003,0,72,72,78,1,REAL,FAKE,,,,,,,,,,,,,,,,,
,,,,,,,,,60d8c6bc9686529cdc824a49,Spanish,13 or older,"no, only English or Spanish",no,2025-07-22_20h40.17.067,empathy_intonation_perc,2024.2.4,Win32,9.99000999,60d8c6bc9686529cdc824a49,687ed1b7e638a4cbf2f02089,68802f3108240a5654ef00c2,,,,,,,,,,,,,,1,,,,,,,,,,,,,,,,,,,,,,,,,,,,,,,,,,,,,,,,,,,,,,,,,,,,,,,,,52,camisa,,,,,749.6564,751.4556,1,1,1.1271,,0,73,73,51,1,REAL,FAKE,,,,,,,,,,,,,,,,,
,,,,,,,,,60d8c6bc9686529cdc824a49,Spanish,13 or older,"no, only English or Spanish",no,2025-07-22_20h40.17.067,empathy_intonation_perc,2024.2.4,Win32,9.99000999,60d8c6bc9686529cdc824a49,687ed1b7e638a4cbf2f02089,68802f3108240a5654ef00c2,,,,,,,,,,,,,,1,,,,,,,,,,,,,,,,,,,,,,,,,,,,,,,,,,,,,,,,,,,,,,,,,,,,,,,,,6,tergiversar,,,,,751.4566,754.1681,0,0,1.9855,,0,74,74,5,1,REAL,FAKE,,,,,,,,,,,,,,,,,
,,,,,,,,,60d8c6bc9686529cdc824a49,Spanish,13 or older,"no, only English or Spanish",no,2025-07-22_20h40.17.067,empathy_intonation_perc,2024.2.4,Win32,9.99000999,60d8c6bc9686529cdc824a49,687ed1b7e638a4cbf2f02089,68802f3108240a5654ef00c2,,,,,,,,,,,,,,1,,,,,,,,,,,,,,,,,,,,,,,,,,,,,,,,,,,,,,,,,,,,,,,,,,,,,,,,,31,pandilla,,,,,754.1692,756.6338,1,1,1.7769,,0,75,75,30,1,REAL,FAKE,,,,,,,,,,,,,,,,,
,,,,,,,,,60d8c6bc9686529cdc824a49,Spanish,13 or older,"no, only English or Spanish",no,2025-07-22_20h40.17.067,empathy_intonation_perc,2024.2.4,Win32,9.99000999,60d8c6bc9686529cdc824a49,687ed1b7e638a4cbf2f02089,68802f3108240a5654ef00c2,,,,,,,,,,,,,,1,,,,,,,,,,,,,,,,,,,,,,,,,,,,,,,,,,,,,,,,,,,,,,,,,,,,,,,,,76,atar,,,,,756.6348,758.6079,1,1,1.2517,,0,76,76,75,1,REAL,FAKE,,,,,,,,,,,,,,,,,
,,,,,,,,,60d8c6bc9686529cdc824a49,Spanish,13 or older,"no, only English or Spanish",no,2025-07-22_20h40.17.067,empathy_intonation_perc,2024.2.4,Win32,9.99000999,60d8c6bc9686529cdc824a49,687ed1b7e638a4cbf2f02089,68802f3108240a5654ef00c2,,,,,,,,,,,,,,0,,,,,,,,,,,,,,,,,,,,,,,,,,,,,,,,,,,,,,,,,,,,,,,,,,,,,,,,,27,acutación,,,,,758.6091,762.4803,0,1,3.1833,,0,77,77,26,1,REAL,FAKE,,,,,,,,,,,,,,,,,
,,,,,,,,,60d8c6bc9686529cdc824a49,Spanish,13 or older,"no, only English or Spanish",no,2025-07-22_20h40.17.067,empathy_intonation_perc,2024.2.4,Win32,9.99000999,60d8c6bc9686529cdc824a49,687ed1b7e638a4cbf2f02089,68802f3108240a5654ef00c2,,,,,,,,,,,,,,1,,,,,,,,,,,,,,,,,,,,,,,,,,,,,,,,,,,,,,,,,,,,,,,,,,,,,,,,,83,guante,,,,,762.4814,765.1276,0,0,1.9266,,0,78,78,82,1,REAL,FAKE,,,,,,,,,,,,,,,,,
,,,,,,,,,60d8c6bc9686529cdc824a49,Spanish,13 or older,"no, only English or Spanish",no,2025-07-22_20h40.17.067,empathy_intonation_perc,2024.2.4,Win32,9.99000999,60d8c6bc9686529cdc824a49,687ed1b7e638a4cbf2f02089,68802f3108240a5654ef00c2,,,,,,,,,,,,,,1,,,,,,,,,,,,,,,,,,,,,,,,,,,,,,,,,,,,,,,,,,,,,,,,,,,,,,,,,45,jilguero,,,,,765.1286,767.9917,0,0,2.1728,,0,79,79,44,1,REAL,FAKE,,,,,,,,,,,,,,,,,
,,,,,,,,,60d8c6bc9686529cdc824a49,Spanish,13 or older,"no, only English or Spanish",no,2025-07-22_20h40.17.067,empathy_intonation_perc,2024.2.4,Win32,9.99000999,60d8c6bc9686529cdc824a49,687ed1b7e638a4cbf2f02089,68802f3108240a5654ef00c2,,,,,,,,,,,,,,1,,,,,,,,,,,,,,,,,,,,,,,,,,,,,,,,,,,,,,,,,,,,,,,,,,,,,,,,,65,bizcocho,,,,,767.9931,770.7074,0,0,1.9976,,0,80,80,64,1,REAL,FAKE,,,,,,,,,,,,,,,,,
,,,,,,,,,60d8c6bc9686529cdc824a49,Spanish,13 or older,"no, only English or Spanish",no,2025-07-22_20h40.17.067,empathy_intonation_perc,2024.2.4,Win32,9.99000999,60d8c6bc9686529cdc824a49,687ed1b7e638a4cbf2f02089,68802f3108240a5654ef00c2,,,,,,,,,,,,,,0,,,,,,,,,,,,,,,,,,,,,,,,,,,,,,,,,,,,,,,,,,,,,,,,,,,,,,,,,30,alardio,,,,,770.7087,773.5011,0,1,2.1008,,0,81,81,29,1,REAL,FAKE,,,,,,,,,,,,,,,,,
,,,,,,,,,60d8c6bc9686529cdc824a49,Spanish,13 or older,"no, only English or Spanish",no,2025-07-22_20h40.17.067,empathy_intonation_perc,2024.2.4,Win32,9.99000999,60d8c6bc9686529cdc824a49,687ed1b7e638a4cbf2f02089,68802f3108240a5654ef00c2,,,,,,,,,,,,,,1,,,,,,,,,,,,,,,,,,,,,,,,,,,,,,,,,,,,,,,,,,,,,,,,,,,,,,,,,86,barato,,,,,773.502,775.893,1,1,1.719,,0,82,82,85,1,REAL,FAKE,,,,,,,,,,,,,,,,,
,,,,,,,,,60d8c6bc9686529cdc824a49,Spanish,13 or older,"no, only English or Spanish",no,2025-07-22_20h40.17.067,empathy_intonation_perc,2024.2.4,Win32,9.99000999,60d8c6bc9686529cdc824a49,687ed1b7e638a4cbf2f02089,68802f3108240a5654ef00c2,,,,,,,,,,,,,,0,,,,,,,,,,,,,,,,,,,,,,,,,,,,,,,,,,,,,,,,,,,,,,,,,,,,,,,,,4,batillón,,,,,775.8943,778.1647,1,0,1.5601,,0,83,83,3,1,REAL,FAKE,,,,,,,,,,,,,,,,,
,,,,,,,,,60d8c6bc9686529cdc824a49,Spanish,13 or older,"no, only English or Spanish",no,2025-07-22_20h40.17.067,empathy_intonation_perc,2024.2.4,Win32,9.99000999,60d8c6bc9686529cdc824a49,687ed1b7e638a4cbf2f02089,68802f3108240a5654ef00c2,,,,,,,,,,,,,,1,,,,,,,,,,,,,,,,,,,,,,,,,,,,,,,,,,,,,,,,,,,,,,,,,,,,,,,,,71,polvoriento,,,,,778.1657,781.62,0,0,2.7361,,0,84,84,70,1,REAL,FAKE,,,,,,,,,,,,,,,,,
,,,,,,,,,60d8c6bc9686529cdc824a49,Spanish,13 or older,"no, only English or Spanish",no,2025-07-22_20h40.17.067,empathy_intonation_perc,2024.2.4,Win32,9.99000999,60d8c6bc9686529cdc824a49,687ed1b7e638a4cbf2f02089,68802f3108240a5654ef00c2,,,,,,,,,,,,,,0,,,,,,,,,,,,,,,,,,,,,,,,,,,,,,,,,,,,,,,,,,,,,,,,,,,,,,,,,10,antar,,,,,781.6211,783.2556,1,0,0.9735,,0,85,85,9,1,REAL,FAKE,,,,,,,,,,,,,,,,,
,,,,,,,,,60d8c6bc9686529cdc824a49,Spanish,13 or older,"no, only English or Spanish",no,2025-07-22_20h40.17.067,empathy_intonation_perc,2024.2.4,Win32,9.99000999,60d8c6bc9686529cdc824a49,687ed1b7e638a4cbf2f02089,68802f3108240a5654ef00c2,,,,,,,,,,,,,,0,,,,,,,,,,,,,,,,,,,,,,,,,,,,,,,,,,,,,,,,,,,,,,,,,,,,,,,,,21,capillo,,,,,783.2567,785.3164,1,0,1.3458,,0,86,86,20,1,REAL,FAKE,,,,,,,,,,,,,,,,,
,,,,,,,,,60d8c6bc9686529cdc824a49,Spanish,13 or older,"no, only English or Spanish",no,2025-07-22_20h40.17.067,empathy_intonation_perc,2024.2.4,Win32,9.99000999,60d8c6bc9686529cdc824a49,687ed1b7e638a4cbf2f02089,68802f3108240a5654ef00c2,,,,,,,,,,,,,,0,,,,,,,,,,,,,,,,,,,,,,,,,,,,,,,,,,,,,,,,,,,,,,,,,,,,,,,,,33,pauca,,,,,785.3176,787.9046,0,1,1.8951,,0,87,87,32,1,REAL,FAKE,,,,,,,,,,,,,,,,,
,,,,,,,,,60d8c6bc9686529cdc824a49,Spanish,13 or older,"no, only English or Spanish",no,2025-07-22_20h40.17.067,empathy_intonation_perc,2024.2.4,Win32,9.99000999,60d8c6bc9686529cdc824a49,687ed1b7e638a4cbf2f02089,68802f3108240a5654ef00c2,,,,,,,,,,,,,,1,,,,,,,,,,,,,,,,,,,,,,,,,,,,,,,,,,,,,,,,,,,,,,,,,,,,,,,,,7,pésimo,,,,,787.9056,789.9685,1,1,1.3647,,0,88,88,6,1,REAL,FAKE,,,,,,,,,,,,,,,,,
,,,,,,,,,60d8c6bc9686529cdc824a49,Spanish,13 or older,"no, only English or Spanish",no,2025-07-22_20h40.17.067,empathy_intonation_perc,2024.2.4,Win32,9.99000999,60d8c6bc9686529cdc824a49,687ed1b7e638a4cbf2f02089,68802f3108240a5654ef00c2,,,,,,,,,,,,,,1,,,,,,,,,,,,,,,,,,,,,,,,,,,,,,,,,,,,,,,,,,,,,,,,,,,,,,,,,90,clavel,,,,,789.9697,792.7238,1,1,2.0484,,0,89,89,89,1,REAL,FAKE,,,,,,,,,,,,,,,,,
,,,,,,,,,60d8c6bc9686529cdc824a49,Spanish,13 or older,"no, only English or Spanish",no,2025-07-22_20h40.17.067,empathy_intonation_perc,2024.2.4,Win32,9.99000999,60d8c6bc9686529cdc824a49,687ed1b7e638a4cbf2f02089,68802f3108240a5654ef00c2,,,,,,,,,,,,,,1,,,,,,,,,,,,,,,,,,,,,,,,,,,,,,,,,,,,,,,,,,,,,,,,,,,,,,,,,88,acantilado,,,,,792.7247,795.8287,0,0,2.4128,,0,90,90,87,1,REAL,FAKE,,,,,,,,,,,,,,,,,
,,,,,,,,,60d8c6bc9686529cdc824a49,Spanish,13 or older,"no, only English or Spanish",no,2025-07-22_20h40.17.067,empathy_intonation_perc,2024.2.4,Win32,9.99000999,60d8c6bc9686529cdc824a49,687ed1b7e638a4cbf2f02089,68802f3108240a5654ef00c2,,,,,,,,,,,,,,1,,,,,,,,,,,,,,,,,,,,,,,,,,,,,,,,,,,,,,,,,,,,,,,,,,,,,,,,,61,seda,,,,,795.8299,797.6791,0,0,1.1527,,0,91,91,60,1,REAL,FAKE,,,,,,,,,,,,,,,,,
,,,,,,,,,60d8c6bc9686529cdc824a49,Spanish,13 or older,"no, only English or Spanish",no,2025-07-22_20h40.17.067,empathy_intonation_perc,2024.2.4,Win32,9.99000999,60d8c6bc9686529cdc824a49,687ed1b7e638a4cbf2f02089,68802f3108240a5654ef00c2,,,,,,,,,,,,,,,,,,,,,,,,,,,,,,,,,,,,,,,,,,,,,,,,,,,,,,,,,,,,,,,,,,,,,,,,,,,,,,,,,,,,,,,,,,797.6795,809.3779,,,,,,,,,,,,,,,
,,,,,,,,,60d8c6bc9686529cdc824a49,Spanish,13 or older,"no, only English or Spanish",no,2025-07-22_20h40.17.067,empathy_intonation_perc,2024.2.4,Win32,9.99000999,60d8c6bc9686529cdc824a49,687ed1b7e638a4cbf2f02089,68802f3108240a5654ef00c2,,,,,,,,,,,,,1,,,,,,,,,,,,,,,,,,,,,,,,,,,,,,,,,,,,,,,,,,,,,,,,,,,,,,,,,,,,,,,,,,,,,,,,,,,,,,,809.3866,817.4662,strongly agree,0,0,0,0,1,I can easily tell if someone else wants to enter a conversation.,1,0,1,0,,
,,,,,,,,,60d8c6bc9686529cdc824a49,Spanish,13 or older,"no, only English or Spanish",no,2025-07-22_20h40.17.067,empathy_intonation_perc,2024.2.4,Win32,9.99000999,60d8c6bc9686529cdc824a49,687ed1b7e638a4cbf2f02089,68802f3108240a5654ef00c2,,,,,,,,,,,,,2,,,,,,,,,,,,,,,,,,,,,,,,,,,,,,,,,,,,,,,,,,,,,,,,,,,,,,,,,,,,,,,,,,,,,,,,,,,,,,,817.468,820.0107,strongly agree,0,1,1,1,1,I prefer animals to humans.,0,1,0,0,,
,,,,,,,,,60d8c6bc9686529cdc824a49,Spanish,13 or older,"no, only English or Spanish",no,2025-07-22_20h40.17.067,empathy_intonation_perc,2024.2.4,Win32,9.99000999,60d8c6bc9686529cdc824a49,687ed1b7e638a4cbf2f02089,68802f3108240a5654ef00c2,,,,,,,,,,,,,3,,,,,,,,,,,,,,,,,,,,,,,,,,,,,,,,,,,,,,,,,,,,,,,,,,,,,,,,,,,,,,,,,,,,,,,,,,,,,,,820.0123,825.3569,slightly disagree,0,2,2,2,1,I try to keep up with the current trends and fashions.,0,1,0,0,,
,,,,,,,,,60d8c6bc9686529cdc824a49,Spanish,13 or older,"no, only English or Spanish",no,2025-07-22_20h40.17.067,empathy_intonation_perc,2024.2.4,Win32,9.99000999,60d8c6bc9686529cdc824a49,687ed1b7e638a4cbf2f02089,68802f3108240a5654ef00c2,,,,,,,,,,,,,4,,,,,,,,,,,,,,,,,,,,,,,,,,,,,,,,,,,,,,,,,,,,,,,,,,,,,,,,,,,,,,,,,,,,,,,,,,,,,,,825.3586,835.6026,strongly agree,0,3,3,3,1,"I find it difficult to explain to others things that I understand easily,   when they don't understand it first time.",1,0,0,1,,
,,,,,,,,,60d8c6bc9686529cdc824a49,Spanish,13 or older,"no, only English or Spanish",no,2025-07-22_20h40.17.067,empathy_intonation_perc,2024.2.4,Win32,9.99000999,60d8c6bc9686529cdc824a49,687ed1b7e638a4cbf2f02089,68802f3108240a5654ef00c2,,,,,,,,,,,,,5,,,,,,,,,,,,,,,,,,,,,,,,,,,,,,,,,,,,,,,,,,,,,,,,,,,,,,,,,,,,,,,,,,,,,,,,,,,,,,,835.6034,840.8869,slightly disagree,0,4,4,4,1,I dream most nights.,0,1,0,0,,
,,,,,,,,,60d8c6bc9686529cdc824a49,Spanish,13 or older,"no, only English or Spanish",no,2025-07-22_20h40.17.067,empathy_intonation_perc,2024.2.4,Win32,9.99000999,60d8c6bc9686529cdc824a49,687ed1b7e638a4cbf2f02089,68802f3108240a5654ef00c2,,,,,,,,,,,,,6,,,,,,,,,,,,,,,,,,,,,,,,,,,,,,,,,,,,,,,,,,,,,,,,,,,,,,,,,,,,,,,,,,,,,,,,,,,,,,,840.888,845.7514,strongly agree,0,5,5,5,1,I really enjoy caring for other people.,1,0,1,0,,
,,,,,,,,,60d8c6bc9686529cdc824a49,Spanish,13 or older,"no, only English or Spanish",no,2025-07-22_20h40.17.067,empathy_intonation_perc,2024.2.4,Win32,9.99000999,60d8c6bc9686529cdc824a49,687ed1b7e638a4cbf2f02089,68802f3108240a5654ef00c2,,,,,,,,,,,,,7,,,,,,,,,,,,,,,,,,,,,,,,,,,,,,,,,,,,,,,,,,,,,,,,,,,,,,,,,,,,,,,,,,,,,,,,,,,,,,,845.7527,852.1317,slightly disagree,0,6,6,6,1,I try to solve my own problems rather than discussing them with others.,0,1,0,0,,
,,,,,,,,,60d8c6bc9686529cdc824a49,Spanish,13 or older,"no, only English or Spanish",no,2025-07-22_20h40.17.067,empathy_intonation_perc,2024.2.4,Win32,9.99000999,60d8c6bc9686529cdc824a49,687ed1b7e638a4cbf2f02089,68802f3108240a5654ef00c2,,,,,,,,,,,,,8,,,,,,,,,,,,,,,,,,,,,,,,,,,,,,,,,,,,,,,,,,,,,,,,,,,,,,,,,,,,,,,,,,,,,,,,,,,,,,,852.1327,857.9475,slightly disagree,0,7,7,7,1,I find it hard to know what to do in a social situation.,1,0,0,1,,
,,,,,,,,,60d8c6bc9686529cdc824a49,Spanish,13 or older,"no, only English or Spanish",no,2025-07-22_20h40.17.067,empathy_intonation_perc,2024.2.4,Win32,9.99000999,60d8c6bc9686529cdc824a49,687ed1b7e638a4cbf2f02089,68802f3108240a5654ef00c2,,,,,,,,,,,,,9,,,,,,,,,,,,,,,,,,,,,,,,,,,,,,,,,,,,,,,,,,,,,,,,,,,,,,,,,,,,,,,,,,,,,,,,,,,,,,,857.9486,870.412,slightly disagree,0,8,8,8,1,I am at my best first thing in the morning.,0,1,0,0,,
,,,,,,,,,60d8c6bc9686529cdc824a49,Spanish,13 or older,"no, only English or Spanish",no,2025-07-22_20h40.17.067,empathy_intonation_perc,2024.2.4,Win32,9.99000999,60d8c6bc9686529cdc824a49,687ed1b7e638a4cbf2f02089,68802f3108240a5654ef00c2,,,,,,,,,,,,,10,,,,,,,,,,,,,,,,,,,,,,,,,,,,,,,,,,,,,,,,,,,,,,,,,,,,,,,,,,,,,,,,,,,,,,,,,,,,,,,870.4135,878.6802,slightly disagree,0,9,9,9,1,People often tell me that I went too far in driving my point home in a discussion.,1,0,0,1,,
