instructions_exposure.started,instructions_exposure.stopped,instructions_exposure_loop.thisRepN,instructions_exposure_loop.thisTrialN,instructions_exposure_loop.thisN,instructions_exposure_loop.thisIndex,instructions_exposure_loop.ran,instructions_text,continue_text,participant_id,"What variety of Spanish are you most familiar with? (e.g., Peruvian, Spanish, Mexican)",At what age did you begin learning Spanish?,Are you proficient in any languages other than English/Spanish?,"Are you familiar with Caribbean (e.g., Caribbean, Puerto Rican) or Galician Spanish?",date,expName,psychopyVersion,OS,frameRate,id,study_id,session,trial_exposure.started,trial_exposure.stopped,key_resp_exposure.keys,key_resp_exposure.corr,key_resp_exposure.rt,key_resp_exposure.duration,key_resp.keys,exposure_loop.thisRepN,exposure_loop.thisTrialN,exposure_loop.thisN,exposure_loop.thisIndex,exposure_loop.ran,item_num,correct_response,question,path,duration,instructions_2afc.started,instructions_2afc.stopped,instructions_2afc_loop.thisRepN,instructions_2afc_loop.thisTrialN,instructions_2afc_loop.thisN,instructions_2afc_loop.thisIndex,instructions_2afc_loop.ran,practice_2afc.started,practice_2afc.stopped,key_resp_2afc_practice.keys,key_resp_2afc_practice.corr,key_resp_2afc_practice.rt,key_resp_2afc_practice.duration,trials_2afc_practice_loop.thisRepN,trials_2afc_practice_loop.thisTrialN,trials_2afc_practice_loop.thisN,trials_2afc_practice_loop.thisIndex,trials_2afc_practice_loop.ran,check_2afc.started,check_2afc.stopped,trial_2afc.started,trial_2afc.stopped,key_resp_2afc_trial.keys,key_resp_2afc_trial.corr,key_resp_2afc_trial.rt,key_resp_2afc_trial.duration,trials_2afc_loop.thisRepN,trials_2afc_loop.thisTrialN,trials_2afc_loop.thisN,trials_2afc_loop.thisIndex,trials_2afc_loop.ran,target,variety,instructions_lextale.started,instructions_lextale.stopped,instructions_lextale_loop.thisRepN,instructions_lextale_loop.thisTrialN,instructions_lextale_loop.thisN,instructions_lextale_loop.thisIndex,instructions_lextale_loop.ran,practice_lextale.started,practice_lextale.stopped,key_resp_lextale_practice.keys,key_resp_lextale_practice.corr,key_resp_lextale_practice.rt,key_resp_lextale_practice.duration,practice_feedback_lextale.started,practice_feedback_lextale.stopped,trials_lextale_practice_loop.thisRepN,trials_lextale_practice_loop.thisTrialN,trials_lextale_practice_loop.thisN,trials_lextale_practice_loop.thisIndex,trials_lextale_practice_loop.ran,stim,word,prac_button_real,prac_button_false,check_lextale.started,check_lextale.stopped,trial_lextale.started,trial_lextale.stopped,key_resp_lextale_trial.keys,key_resp_lextale_trial.corr,key_resp_lextale_trial.rt,key_resp_lextale_trial.duration,trials_lextale_loop.thisRepN,trials_lextale_loop.thisTrialN,trials_lextale_loop.thisN,trials_lextale_loop.thisIndex,trials_lextale_loop.ran,button_real,button_false,instructions_eq.started,instructions_eq.stopped,trial_eq.started,trial_eq.stopped,slider_eq_trial.response,trials_eq_loop.thisRepN,trials_eq_loop.thisTrialN,trials_eq_loop.thisN,trials_eq_loop.thisIndex,trials_eq_loop.ran,item,is_test_item,is_distractor,is_agree_score,is_disagree_score,end_exp.started,end_exp.stopped
0.0097,2.3223,0,0,0,0,1,"In the following task, you are going to hear a series of conversations.", (press the space bar to continue),60fcbf0aca44c1b1c5631970,colombian,13 or older,"no, only English or Spanish",no,2025-07-22_21h05.57.211,empathy_intonation_perc,2024.2.4,MacIntel,60.24096386,60fcbf0aca44c1b1c5631970,687ed1b7e638a4cbf2f02089,6880354492bae85d4dbe1f28,,,,,,,,,,,,,,,,,,,,,,,,,,,,,,,,,,,,,,,,,,,,,,,,,,,,,,,,,,,,,,,,,,,,,,,,,,,,,,,,,,,,,,,,,,,,,,,,,,,,,,,,,,
2.3231,6.0392,0,1,1,1,1,It is okay if you don't not 100% understand them!, (press the space bar to continue),60fcbf0aca44c1b1c5631970,colombian,13 or older,"no, only English or Spanish",no,2025-07-22_21h05.57.211,empathy_intonation_perc,2024.2.4,MacIntel,60.24096386,60fcbf0aca44c1b1c5631970,687ed1b7e638a4cbf2f02089,6880354492bae85d4dbe1f28,,,,,,,,,,,,,,,,,,,,,,,,,,,,,,,,,,,,,,,,,,,,,,,,,,,,,,,,,,,,,,,,,,,,,,,,,,,,,,,,,,,,,,,,,,,,,,,,,,,,,,,,,,
6.0407,8.5558,0,2,2,2,1,"After, you will read a sentence about the conversation and decide if it's true or false.", (press the space bar to continue),60fcbf0aca44c1b1c5631970,colombian,13 or older,"no, only English or Spanish",no,2025-07-22_21h05.57.211,empathy_intonation_perc,2024.2.4,MacIntel,60.24096386,60fcbf0aca44c1b1c5631970,687ed1b7e638a4cbf2f02089,6880354492bae85d4dbe1f28,,,,,,,,,,,,,,,,,,,,,,,,,,,,,,,,,,,,,,,,,,,,,,,,,,,,,,,,,,,,,,,,,,,,,,,,,,,,,,,,,,,,,,,,,,,,,,,,,,,,,,,,,,
8.5576,11.7397,0,3,3,3,1,"If it's true, press '1' (True) and if it's false press '0' (False).", (press the space bar to continue),60fcbf0aca44c1b1c5631970,colombian,13 or older,"no, only English or Spanish",no,2025-07-22_21h05.57.211,empathy_intonation_perc,2024.2.4,MacIntel,60.24096386,60fcbf0aca44c1b1c5631970,687ed1b7e638a4cbf2f02089,6880354492bae85d4dbe1f28,,,,,,,,,,,,,,,,,,,,,,,,,,,,,,,,,,,,,,,,,,,,,,,,,,,,,,,,,,,,,,,,,,,,,,,,,,,,,,,,,,,,,,,,,,,,,,,,,,,,,,,,,,
,,,,,,,,,60fcbf0aca44c1b1c5631970,colombian,13 or older,"no, only English or Spanish",no,2025-07-22_21h05.57.211,empathy_intonation_perc,2024.2.4,MacIntel,60.24096386,60fcbf0aca44c1b1c5631970,687ed1b7e638a4cbf2f02089,6880354492bae85d4dbe1f28,11.7494,64.5237,1,1,5.7063,,,0,0,0,0,1,1,1,The son asked the mom if Aunt Marina is okay.,./stim/exposure_wavs/ga_stimuli_convo.wav,47,,,,,,,,,,,,,,,,,,,,,,,,,,,,,,,,,,,,,,,,,,,,,,,,,,,,,,,,,,,,,,,,,,,,,,,,,,,,,,,,,,,,,,,,,
,,,,,,,,,60fcbf0aca44c1b1c5631970,colombian,13 or older,"no, only English or Spanish",no,2025-07-22_21h05.57.211,empathy_intonation_perc,2024.2.4,MacIntel,60.24096386,60fcbf0aca44c1b1c5631970,687ed1b7e638a4cbf2f02089,6880354492bae85d4dbe1f28,64.5258,127.9562,1,1,3.3848,,,0,1,1,1,1,2,1,The mom asked the daughter if she already went to the supermarket.,./stim/exposure_wavs/dr_stimuli_convo.wav,60,,,,,,,,,,,,,,,,,,,,,,,,,,,,,,,,,,,,,,,,,,,,,,,,,,,,,,,,,,,,,,,,,,,,,,,,,,,,,,,,,,,,,,,,,
,,,,,,,,,60fcbf0aca44c1b1c5631970,colombian,13 or older,"no, only English or Spanish",no,2025-07-22_21h05.57.211,empathy_intonation_perc,2024.2.4,MacIntel,60.24096386,60fcbf0aca44c1b1c5631970,687ed1b7e638a4cbf2f02089,6880354492bae85d4dbe1f28,127.9571,167.424,0,1,3.4418,,,0,2,2,2,1,3,0,The mom already has rice.,./stim/exposure_wavs/pr_stimuli_convo.wav,36,,,,,,,,,,,,,,,,,,,,,,,,,,,,,,,,,,,,,,,,,,,,,,,,,,,,,,,,,,,,,,,,,,,,,,,,,,,,,,,,,,,,,,,,,
,,,,,,,"In the following task you are going to hear a series of utterances. 

  You will decide if the utterances sound like questions or not using your keyboard.", (press the spacebar to continue),60fcbf0aca44c1b1c5631970,colombian,13 or older,"no, only English or Spanish",no,2025-07-22_21h05.57.211,empathy_intonation_perc,2024.2.4,MacIntel,60.24096386,60fcbf0aca44c1b1c5631970,687ed1b7e638a4cbf2f02089,6880354492bae85d4dbe1f28,,,,,,,,,,,,,,,,,,167.4282,190.5081,0,0,0,0,1,,,,,,,,,,,,,,,,,,,,,,,,,,,,,,,,,,,,,,,,,,,,,,,,,,,,,,,,,,,,,,,,,,,,,,,,,,,,,,,,,,
,,,,,,,"If you believe the utterance is a question, type '1' (for 'yes') and if you do not 
  believe it is a question type '0' (for 'no').

  Let's practice a bit...", (press the spacebar to continue),60fcbf0aca44c1b1c5631970,colombian,13 or older,"no, only English or Spanish",no,2025-07-22_21h05.57.211,empathy_intonation_perc,2024.2.4,MacIntel,60.24096386,60fcbf0aca44c1b1c5631970,687ed1b7e638a4cbf2f02089,6880354492bae85d4dbe1f28,,,,,,,,,,,,,,,,,,190.5114,199.1249,0,1,1,1,1,,,,,,,,,,,,,,,,,,,,,,,,,,,,,,,,,,,,,,,,,,,,,,,,,,,,,,,,,,,,,,,,,,,,,,,,,,,,,,,,,,
,,,,,,,,,60fcbf0aca44c1b1c5631970,colombian,13 or older,"no, only English or Spanish",no,2025-07-22_21h05.57.211,empathy_intonation_perc,2024.2.4,MacIntel,60.24096386,60fcbf0aca44c1b1c5631970,687ed1b7e638a4cbf2f02089,6880354492bae85d4dbe1f28,,,,,,,,,,,,,,1,,./stim/wavs/mexican_question_filler_Felipe-no-tiene-contrasena.wav,,,,,,,,,199.1341,202.3917,1,1,2.7365,,0,0,0,3,1,,,,,,,,,,,,,,,,,,,,,,,,,,,,,,,,,,,,,,,,,,,,,,,,,,,,,,,,,,,,,,,,,,,,,,,
,,,,,,,,,60fcbf0aca44c1b1c5631970,colombian,13 or older,"no, only English or Spanish",no,2025-07-22_21h05.57.211,empathy_intonation_perc,2024.2.4,MacIntel,60.24096386,60fcbf0aca44c1b1c5631970,687ed1b7e638a4cbf2f02089,6880354492bae85d4dbe1f28,,,,,,,,,,,,,,1,,./stim/wavs/chilean_question_filler_Mi-padre-cantaba-bien.wav,,,,,,,,,202.3924,205.558,1,1,2.6461,,0,1,1,2,1,,,,,,,,,,,,,,,,,,,,,,,,,,,,,,,,,,,,,,,,,,,,,,,,,,,,,,,,,,,,,,,,,,,,,,,
,,,,,,,,,60fcbf0aca44c1b1c5631970,colombian,13 or older,"no, only English or Spanish",no,2025-07-22_21h05.57.211,empathy_intonation_perc,2024.2.4,MacIntel,60.24096386,60fcbf0aca44c1b1c5631970,687ed1b7e638a4cbf2f02089,6880354492bae85d4dbe1f28,,,,,,,,,,,,,,0,,./stim/wavs/cuban_statement_filler_Cocinabas-por-la-noche.wav,,,,,,,,,205.5585,208.2245,0,1,2.1455,,0,2,2,4,1,,,,,,,,,,,,,,,,,,,,,,,,,,,,,,,,,,,,,,,,,,,,,,,,,,,,,,,,,,,,,,,,,,,,,,,
,,,,,,,,,60fcbf0aca44c1b1c5631970,colombian,13 or older,"no, only English or Spanish",no,2025-07-22_21h05.57.211,empathy_intonation_perc,2024.2.4,MacIntel,60.24096386,60fcbf0aca44c1b1c5631970,687ed1b7e638a4cbf2f02089,6880354492bae85d4dbe1f28,,,,,,,,,,,,,,0,,./stim/wavs/puertorican_statement_filler_La-nina-pinta-con-su-amiga.wav,,,,,,,,,208.2249,210.4251,0,1,1.6716,,0,3,3,7,1,,,,,,,,,,,,,,,,,,,,,,,,,,,,,,,,,,,,,,,,,,,,,,,,,,,,,,,,,,,,,,,,,,,,,,,
,,,,,,,,,60fcbf0aca44c1b1c5631970,colombian,13 or older,"no, only English or Spanish",no,2025-07-22_21h05.57.211,empathy_intonation_perc,2024.2.4,MacIntel,60.24096386,60fcbf0aca44c1b1c5631970,687ed1b7e638a4cbf2f02089,6880354492bae85d4dbe1f28,,,,,,,,,,,,,,1,,./stim/wavs/castilian_question_filler_Mi-esposo-conoce-al-chico.wav,,,,,,,,,210.4258,212.8418,1,1,1.8825,,0,4,4,0,1,,,,,,,,,,,,,,,,,,,,,,,,,,,,,,,,,,,,,,,,,,,,,,,,,,,,,,,,,,,,,,,,,,,,,,,
,,,,,,,,,60fcbf0aca44c1b1c5631970,colombian,13 or older,"no, only English or Spanish",no,2025-07-22_21h05.57.211,empathy_intonation_perc,2024.2.4,MacIntel,60.24096386,60fcbf0aca44c1b1c5631970,687ed1b7e638a4cbf2f02089,6880354492bae85d4dbe1f28,,,,,,,,,,,,,,0,,./stim/wavs/andalusian_statement_filler_Alberto-nunca-se-afeita.wav,,,,,,,,,212.8426,215.1749,0,1,1.8005,,0,5,5,5,1,,,,,,,,,,,,,,,,,,,,,,,,,,,,,,,,,,,,,,,,,,,,,,,,,,,,,,,,,,,,,,,,,,,,,,,
,,,,,,,,,60fcbf0aca44c1b1c5631970,colombian,13 or older,"no, only English or Spanish",no,2025-07-22_21h05.57.211,empathy_intonation_perc,2024.2.4,MacIntel,60.24096386,60fcbf0aca44c1b1c5631970,687ed1b7e638a4cbf2f02089,6880354492bae85d4dbe1f28,,,,,,,,,,,,,,0,,./stim/wavs/peruvian_statement_filler_El-nino-habla-con-su-madre.wav,,,,,,,,,215.1756,217.8081,0,1,2.1126,,0,6,6,6,1,,,,,,,,,,,,,,,,,,,,,,,,,,,,,,,,,,,,,,,,,,,,,,,,,,,,,,,,,,,,,,,,,,,,,,,
,,,,,,,,,60fcbf0aca44c1b1c5631970,colombian,13 or older,"no, only English or Spanish",no,2025-07-22_21h05.57.211,empathy_intonation_perc,2024.2.4,MacIntel,60.24096386,60fcbf0aca44c1b1c5631970,687ed1b7e638a4cbf2f02089,6880354492bae85d4dbe1f28,,,,,,,,,,,,,,1,,./stim/wavs/argentine_question_filler_Mi-vecino-habla-mucho.wav,,,,,,,,,217.8091,219.5415,1,1,1.2122,,0,7,7,1,1,,,,,,,,,,,,,,,,,,,,,,,,,,,,,,,,,,,,,,,,,,,,,,,,,,,,,,,,,,,,,,,,,,,,,,,
,,,,,,,,,60fcbf0aca44c1b1c5631970,colombian,13 or older,"no, only English or Spanish",no,2025-07-22_21h05.57.211,empathy_intonation_perc,2024.2.4,MacIntel,60.24096386,60fcbf0aca44c1b1c5631970,687ed1b7e638a4cbf2f02089,6880354492bae85d4dbe1f28,,,,,,,,,,,,,,,,,,,,,,,,,,,,,,,,,,,,219.5419,222.1073,,,,,,,,,,,,,,,,,,,,,,,,,,,,,,,,,,,,,,,,,,,,,,,,,,,,,,,,,,,,,,,,,,,,,
,,,,,,,,,60fcbf0aca44c1b1c5631970,colombian,13 or older,"no, only English or Spanish",no,2025-07-22_21h05.57.211,empathy_intonation_perc,2024.2.4,MacIntel,60.24096386,60fcbf0aca44c1b1c5631970,687ed1b7e638a4cbf2f02089,6880354492bae85d4dbe1f28,,,,,,,,,,,,,19,1,,./stim/wavs/puertorican_match_interrogative-total-yn_Ana-lleva-el-abrigo.wav,,,,,,,,,,,,,,,,,,,,,,222.1163,224.8913,0,0,2.2496,,0,0,0,18,1,1,puertorican,,,,,,,,,,,,,,,,,,,,,,,,,,,,,,,,,,,,,,,,,,,,,,,,,,,,,,,,
,,,,,,,,,60fcbf0aca44c1b1c5631970,colombian,13 or older,"no, only English or Spanish",no,2025-07-22_21h05.57.211,empathy_intonation_perc,2024.2.4,MacIntel,60.24096386,60fcbf0aca44c1b1c5631970,687ed1b7e638a4cbf2f02089,6880354492bae85d4dbe1f28,,,,,,,,,,,,,34,1,,./stim/wavs/cuban_mismatch_interrogative-total-yn_Mi-tia-odia-la-lluvia.wav,,,,,,,,,,,,,,,,,,,,,,224.8921,227.1584,1,1,1.7334,,0,1,1,33,1,1,cuban,,,,,,,,,,,,,,,,,,,,,,,,,,,,,,,,,,,,,,,,,,,,,,,,,,,,,,,,
,,,,,,,,,60fcbf0aca44c1b1c5631970,colombian,13 or older,"no, only English or Spanish",no,2025-07-22_21h05.57.211,empathy_intonation_perc,2024.2.4,MacIntel,60.24096386,60fcbf0aca44c1b1c5631970,687ed1b7e638a4cbf2f02089,6880354492bae85d4dbe1f28,,,,,,,,,,,,,33,1,,./stim/wavs/cuban_mismatch_interrogative-total-yn_Mi-novio-viene-del-lago.wav,,,,,,,,,,,,,,,,,,,,,,227.1592,229.3416,1,1,1.6521,,0,2,2,32,1,1,cuban,,,,,,,,,,,,,,,,,,,,,,,,,,,,,,,,,,,,,,,,,,,,,,,,,,,,,,,,
,,,,,,,,,60fcbf0aca44c1b1c5631970,colombian,13 or older,"no, only English or Spanish",no,2025-07-22_21h05.57.211,empathy_intonation_perc,2024.2.4,MacIntel,60.24096386,60fcbf0aca44c1b1c5631970,687ed1b7e638a4cbf2f02089,6880354492bae85d4dbe1f28,,,,,,,,,,,,,46,0,,./stim/wavs/castilian_match_declarative-broad-focus_Emilio-ama-la-marcha.wav,,,,,,,,,,,,,,,,,,,,,,229.3423,231.6085,0,1,1.7345,,0,3,3,45,1,0,castilian,,,,,,,,,,,,,,,,,,,,,,,,,,,,,,,,,,,,,,,,,,,,,,,,,,,,,,,,
,,,,,,,,,60fcbf0aca44c1b1c5631970,colombian,13 or older,"no, only English or Spanish",no,2025-07-22_21h05.57.211,empathy_intonation_perc,2024.2.4,MacIntel,60.24096386,60fcbf0aca44c1b1c5631970,687ed1b7e638a4cbf2f02089,6880354492bae85d4dbe1f28,,,,,,,,,,,,,10,1,,./stim/wavs/cuban_match_interrogative-total-yn_Maria-bebe-el-vino.wav,,,,,,,,,,,,,,,,,,,,,,231.609,233.7249,0,0,1.596,,0,4,4,9,1,1,cuban,,,,,,,,,,,,,,,,,,,,,,,,,,,,,,,,,,,,,,,,,,,,,,,,,,,,,,,,
,,,,,,,,,60fcbf0aca44c1b1c5631970,colombian,13 or older,"no, only English or Spanish",no,2025-07-22_21h05.57.211,empathy_intonation_perc,2024.2.4,MacIntel,60.24096386,60fcbf0aca44c1b1c5631970,687ed1b7e638a4cbf2f02089,6880354492bae85d4dbe1f28,,,,,,,,,,,,,87,0,,./stim/wavs/puertorican_mismatch_declarative-broad-focus_La-maestra-vive-en-Paris.wav,,,,,,,,,,,,,,,,,,,,,,233.7256,235.9417,0,1,1.6949,,0,5,5,86,1,0,puertorican,,,,,,,,,,,,,,,,,,,,,,,,,,,,,,,,,,,,,,,,,,,,,,,,,,,,,,,,
,,,,,,,,,60fcbf0aca44c1b1c5631970,colombian,13 or older,"no, only English or Spanish",no,2025-07-22_21h05.57.211,empathy_intonation_perc,2024.2.4,MacIntel,60.24096386,60fcbf0aca44c1b1c5631970,687ed1b7e638a4cbf2f02089,6880354492bae85d4dbe1f28,,,,,,,,,,,,,29,1,,./stim/wavs/castilian_mismatch_interrogative-total-yn_Mi-tia-odia-la-lluvia.wav,,,,,,,,,,,,,,,,,,,,,,235.9423,238.2252,1,1,1.7505,,0,6,6,28,1,0,castilian,,,,,,,,,,,,,,,,,,,,,,,,,,,,,,,,,,,,,,,,,,,,,,,,,,,,,,,,
,,,,,,,,,60fcbf0aca44c1b1c5631970,colombian,13 or older,"no, only English or Spanish",no,2025-07-22_21h05.57.211,empathy_intonation_perc,2024.2.4,MacIntel,60.24096386,60fcbf0aca44c1b1c5631970,687ed1b7e638a4cbf2f02089,6880354492bae85d4dbe1f28,,,,,,,,,,,,,59,0,,./stim/wavs/mexican_match_declarative-broad-focus_David-leia-el-libro.wav,,,,,,,,,,,,,,,,,,,,,,238.2256,240.1416,0,1,1.3954,,0,7,7,58,1,0,mexican,,,,,,,,,,,,,,,,,,,,,,,,,,,,,,,,,,,,,,,,,,,,,,,,,,,,,,,,
,,,,,,,,,60fcbf0aca44c1b1c5631970,colombian,13 or older,"no, only English or Spanish",no,2025-07-22_21h05.57.211,empathy_intonation_perc,2024.2.4,MacIntel,60.24096386,60fcbf0aca44c1b1c5631970,687ed1b7e638a4cbf2f02089,6880354492bae85d4dbe1f28,,,,,,,,,,,,,31,1,,./stim/wavs/cuban_mismatch_interrogative-total-yn_El-nino-oye-el-rio.wav,,,,,,,,,,,,,,,,,,,,,,240.1421,241.8918,0,0,1.219,,0,8,8,30,1,1,cuban,,,,,,,,,,,,,,,,,,,,,,,,,,,,,,,,,,,,,,,,,,,,,,,,,,,,,,,,
,,,,,,,,,60fcbf0aca44c1b1c5631970,colombian,13 or older,"no, only English or Spanish",no,2025-07-22_21h05.57.211,empathy_intonation_perc,2024.2.4,MacIntel,60.24096386,60fcbf0aca44c1b1c5631970,687ed1b7e638a4cbf2f02089,6880354492bae85d4dbe1f28,,,,,,,,,,,,,88,0,,./stim/wavs/puertorican_mismatch_declarative-broad-focus_La-nina-lava-el-plato.wav,,,,,,,,,,,,,,,,,,,,,,241.8924,243.7083,1,0,1.296,,0,9,9,87,1,0,puertorican,,,,,,,,,,,,,,,,,,,,,,,,,,,,,,,,,,,,,,,,,,,,,,,,,,,,,,,,
,,,,,,,,,60fcbf0aca44c1b1c5631970,colombian,13 or older,"no, only English or Spanish",no,2025-07-22_21h05.57.211,empathy_intonation_perc,2024.2.4,MacIntel,60.24096386,60fcbf0aca44c1b1c5631970,687ed1b7e638a4cbf2f02089,6880354492bae85d4dbe1f28,,,,,,,,,,,,,45,0,,./stim/wavs/castilian_match_declarative-broad-focus_David-leia-el-libro.wav,,,,,,,,,,,,,,,,,,,,,,243.7088,245.9584,0,1,1.7163,,0,10,10,44,1,0,castilian,,,,,,,,,,,,,,,,,,,,,,,,,,,,,,,,,,,,,,,,,,,,,,,,,,,,,,,,
,,,,,,,,,60fcbf0aca44c1b1c5631970,colombian,13 or older,"no, only English or Spanish",no,2025-07-22_21h05.57.211,empathy_intonation_perc,2024.2.4,MacIntel,60.24096386,60fcbf0aca44c1b1c5631970,687ed1b7e638a4cbf2f02089,6880354492bae85d4dbe1f28,,,,,,,,,,,,,20,1,,./stim/wavs/puertorican_match_interrogative-total-yn_Daniel-iba-a-Bolivia.wav,,,,,,,,,,,,,,,,,,,,,,245.959,248.1585,0,0,1.6664,,0,11,11,19,1,1,puertorican,,,,,,,,,,,,,,,,,,,,,,,,,,,,,,,,,,,,,,,,,,,,,,,,,,,,,,,,
,,,,,,,,,60fcbf0aca44c1b1c5631970,colombian,13 or older,"no, only English or Spanish",no,2025-07-22_21h05.57.211,empathy_intonation_perc,2024.2.4,MacIntel,60.24096386,60fcbf0aca44c1b1c5631970,687ed1b7e638a4cbf2f02089,6880354492bae85d4dbe1f28,,,,,,,,,,,,,17,1,,./stim/wavs/mexican_match_interrogative-total-yn_Mariano-habla-del-tiempo.wav,,,,,,,,,,,,,,,,,,,,,,248.1591,250.3414,1,1,1.6611,,0,12,12,16,1,0,mexican,,,,,,,,,,,,,,,,,,,,,,,,,,,,,,,,,,,,,,,,,,,,,,,,,,,,,,,,
,,,,,,,,,60fcbf0aca44c1b1c5631970,colombian,13 or older,"no, only English or Spanish",no,2025-07-22_21h05.57.211,empathy_intonation_perc,2024.2.4,MacIntel,60.24096386,60fcbf0aca44c1b1c5631970,687ed1b7e638a4cbf2f02089,6880354492bae85d4dbe1f28,,,,,,,,,,,,,82,0,,./stim/wavs/mexican_mismatch_declarative-broad-focus_Mi-novio-viene-del-lago.wav,,,,,,,,,,,,,,,,,,,,,,250.3421,252.6418,0,1,1.7674,,0,13,13,81,1,0,mexican,,,,,,,,,,,,,,,,,,,,,,,,,,,,,,,,,,,,,,,,,,,,,,,,,,,,,,,,
,,,,,,,,,60fcbf0aca44c1b1c5631970,colombian,13 or older,"no, only English or Spanish",no,2025-07-22_21h05.57.211,empathy_intonation_perc,2024.2.4,MacIntel,60.24096386,60fcbf0aca44c1b1c5631970,687ed1b7e638a4cbf2f02089,6880354492bae85d4dbe1f28,,,,,,,,,,,,,68,0,,./stim/wavs/puertorican_match_declarative-broad-focus_Maria-bebe-el-vino.wav,,,,,,,,,,,,,,,,,,,,,,252.6425,254.8086,0,1,1.6453,,0,14,14,67,1,0,puertorican,,,,,,,,,,,,,,,,,,,,,,,,,,,,,,,,,,,,,,,,,,,,,,,,,,,,,,,,
,,,,,,,,,60fcbf0aca44c1b1c5631970,colombian,13 or older,"no, only English or Spanish",no,2025-07-22_21h05.57.211,empathy_intonation_perc,2024.2.4,MacIntel,60.24096386,60fcbf0aca44c1b1c5631970,687ed1b7e638a4cbf2f02089,6880354492bae85d4dbe1f28,,,,,,,,,,,,,15,1,,./stim/wavs/mexican_match_interrogative-total-yn_David-leia-el-libro.wav,,,,,,,,,,,,,,,,,,,,,,254.8091,256.7252,1,1,1.3832,,0,15,15,14,1,0,mexican,,,,,,,,,,,,,,,,,,,,,,,,,,,,,,,,,,,,,,,,,,,,,,,,,,,,,,,,
,,,,,,,,,60fcbf0aca44c1b1c5631970,colombian,13 or older,"no, only English or Spanish",no,2025-07-22_21h05.57.211,empathy_intonation_perc,2024.2.4,MacIntel,60.24096386,60fcbf0aca44c1b1c5631970,687ed1b7e638a4cbf2f02089,6880354492bae85d4dbe1f28,,,,,,,,,,,,,24,1,,./stim/wavs/puertorican_match_interrogative-total-yn_Maria-bebe-el-vino.wav,,,,,,,,,,,,,,,,,,,,,,256.7259,258.4087,1,1,1.154,,0,16,16,23,1,1,puertorican,,,,,,,,,,,,,,,,,,,,,,,,,,,,,,,,,,,,,,,,,,,,,,,,,,,,,,,,
,,,,,,,,,60fcbf0aca44c1b1c5631970,colombian,13 or older,"no, only English or Spanish",no,2025-07-22_21h05.57.211,empathy_intonation_perc,2024.2.4,MacIntel,60.24096386,60fcbf0aca44c1b1c5631970,687ed1b7e638a4cbf2f02089,6880354492bae85d4dbe1f28,,,,,,,,,,,,,32,1,,./stim/wavs/cuban_mismatch_interrogative-total-yn_Mi-madre-come-la-fruta.wav,,,,,,,,,,,,,,,,,,,,,,258.4095,260.5422,0,0,1.6031,,0,17,17,31,1,1,cuban,,,,,,,,,,,,,,,,,,,,,,,,,,,,,,,,,,,,,,,,,,,,,,,,,,,,,,,,
,,,,,,,,,60fcbf0aca44c1b1c5631970,colombian,13 or older,"no, only English or Spanish",no,2025-07-22_21h05.57.211,empathy_intonation_perc,2024.2.4,MacIntel,60.24096386,60fcbf0aca44c1b1c5631970,687ed1b7e638a4cbf2f02089,6880354492bae85d4dbe1f28,,,,,,,,,,,,,58,0,,./stim/wavs/mexican_match_declarative-broad-focus_Daniel-iba-a-Bolivia.wav,,,,,,,,,,,,,,,,,,,,,,260.543,263.3587,0,1,2.2858,,0,18,18,57,1,0,mexican,,,,,,,,,,,,,,,,,,,,,,,,,,,,,,,,,,,,,,,,,,,,,,,,,,,,,,,,
,,,,,,,,,60fcbf0aca44c1b1c5631970,colombian,13 or older,"no, only English or Spanish",no,2025-07-22_21h05.57.211,empathy_intonation_perc,2024.2.4,MacIntel,60.24096386,60fcbf0aca44c1b1c5631970,687ed1b7e638a4cbf2f02089,6880354492bae85d4dbe1f28,,,,,,,,,,,,,79,0,,./stim/wavs/mexican_mismatch_declarative-broad-focus_El-bebe-comia-muy-bien.wav,,,,,,,,,,,,,,,,,,,,,,263.3592,265.592,0,1,1.7125,,0,19,19,78,1,0,mexican,,,,,,,,,,,,,,,,,,,,,,,,,,,,,,,,,,,,,,,,,,,,,,,,,,,,,,,,
,,,,,,,,,60fcbf0aca44c1b1c5631970,colombian,13 or older,"no, only English or Spanish",no,2025-07-22_21h05.57.211,empathy_intonation_perc,2024.2.4,MacIntel,60.24096386,60fcbf0aca44c1b1c5631970,687ed1b7e638a4cbf2f02089,6880354492bae85d4dbe1f28,,,,,,,,,,,,,65,0,,./stim/wavs/puertorican_match_declarative-broad-focus_David-leia-el-libro.wav,,,,,,,,,,,,,,,,,,,,,,265.5927,267.4921,1,0,1.368,,0,20,20,64,1,0,puertorican,,,,,,,,,,,,,,,,,,,,,,,,,,,,,,,,,,,,,,,,,,,,,,,,,,,,,,,,
,,,,,,,,,60fcbf0aca44c1b1c5631970,colombian,13 or older,"no, only English or Spanish",no,2025-07-22_21h05.57.211,empathy_intonation_perc,2024.2.4,MacIntel,60.24096386,60fcbf0aca44c1b1c5631970,687ed1b7e638a4cbf2f02089,6880354492bae85d4dbe1f28,,,,,,,,,,,,,57,0,,./stim/wavs/mexican_match_declarative-broad-focus_Ana-lleva-el-abrigo.wav,,,,,,,,,,,,,,,,,,,,,,267.4927,269.2415,0,1,1.2184,,0,21,21,56,1,0,mexican,,,,,,,,,,,,,,,,,,,,,,,,,,,,,,,,,,,,,,,,,,,,,,,,,,,,,,,,
,,,,,,,,,60fcbf0aca44c1b1c5631970,colombian,13 or older,"no, only English or Spanish",no,2025-07-22_21h05.57.211,empathy_intonation_perc,2024.2.4,MacIntel,60.24096386,60fcbf0aca44c1b1c5631970,687ed1b7e638a4cbf2f02089,6880354492bae85d4dbe1f28,,,,,,,,,,,,,85,0,,./stim/wavs/puertorican_mismatch_declarative-broad-focus_El-hombre-mira-la-luna.wav,,,,,,,,,,,,,,,,,,,,,,269.242,271.0921,0,1,1.3453,,0,22,22,84,1,0,puertorican,,,,,,,,,,,,,,,,,,,,,,,,,,,,,,,,,,,,,,,,,,,,,,,,,,,,,,,,
,,,,,,,,,60fcbf0aca44c1b1c5631970,colombian,13 or older,"no, only English or Spanish",no,2025-07-22_21h05.57.211,empathy_intonation_perc,2024.2.4,MacIntel,60.24096386,60fcbf0aca44c1b1c5631970,687ed1b7e638a4cbf2f02089,6880354492bae85d4dbe1f28,,,,,,,,,,,,,80,0,,./stim/wavs/mexican_mismatch_declarative-broad-focus_El-hombre-mira-la-luna.wav,,,,,,,,,,,,,,,,,,,,,,271.0927,272.8591,0,1,1.2413,,0,23,23,79,1,0,mexican,,,,,,,,,,,,,,,,,,,,,,,,,,,,,,,,,,,,,,,,,,,,,,,,,,,,,,,,
,,,,,,,,,60fcbf0aca44c1b1c5631970,colombian,13 or older,"no, only English or Spanish",no,2025-07-22_21h05.57.211,empathy_intonation_perc,2024.2.4,MacIntel,60.24096386,60fcbf0aca44c1b1c5631970,687ed1b7e638a4cbf2f02089,6880354492bae85d4dbe1f28,,,,,,,,,,,,,83,0,,./stim/wavs/mexican_mismatch_declarative-broad-focus_Mi-tia-odia-la-lluvia.wav,,,,,,,,,,,,,,,,,,,,,,272.8598,274.6753,0,1,1.2961,,0,24,24,82,1,0,mexican,,,,,,,,,,,,,,,,,,,,,,,,,,,,,,,,,,,,,,,,,,,,,,,,,,,,,,,,
,,,,,,,,,60fcbf0aca44c1b1c5631970,colombian,13 or older,"no, only English or Spanish",no,2025-07-22_21h05.57.211,empathy_intonation_perc,2024.2.4,MacIntel,60.24096386,60fcbf0aca44c1b1c5631970,687ed1b7e638a4cbf2f02089,6880354492bae85d4dbe1f28,,,,,,,,,,,,,22,1,,./stim/wavs/puertorican_match_interrogative-total-yn_Emilio-ama-la-marcha.wav,,,,,,,,,,,,,,,,,,,,,,274.6759,276.6588,0,0,1.4631,,0,25,25,21,1,1,puertorican,,,,,,,,,,,,,,,,,,,,,,,,,,,,,,,,,,,,,,,,,,,,,,,,,,,,,,,,
,,,,,,,,,60fcbf0aca44c1b1c5631970,colombian,13 or older,"no, only English or Spanish",no,2025-07-22_21h05.57.211,empathy_intonation_perc,2024.2.4,MacIntel,60.24096386,60fcbf0aca44c1b1c5631970,687ed1b7e638a4cbf2f02089,6880354492bae85d4dbe1f28,,,,,,,,,,,,,25,1,,./stim/wavs/castilian_mismatch_interrogative-total-yn_La-maestra-vive-en-Paris.wav,,,,,,,,,,,,,,,,,,,,,,276.6595,279.0089,1,1,1.8196,,0,26,26,24,1,0,castilian,,,,,,,,,,,,,,,,,,,,,,,,,,,,,,,,,,,,,,,,,,,,,,,,,,,,,,,,
,,,,,,,,,60fcbf0aca44c1b1c5631970,colombian,13 or older,"no, only English or Spanish",no,2025-07-22_21h05.57.211,empathy_intonation_perc,2024.2.4,MacIntel,60.24096386,60fcbf0aca44c1b1c5631970,687ed1b7e638a4cbf2f02089,6880354492bae85d4dbe1f28,,,,,,,,,,,,,84,0,,./stim/wavs/puertorican_mismatch_declarative-broad-focus_El-bebe-comia-muy-bien.wav,,,,,,,,,,,,,,,,,,,,,,279.0097,280.9255,0,1,1.3962,,0,27,27,83,1,0,puertorican,,,,,,,,,,,,,,,,,,,,,,,,,,,,,,,,,,,,,,,,,,,,,,,,,,,,,,,,
,,,,,,,,,60fcbf0aca44c1b1c5631970,colombian,13 or older,"no, only English or Spanish",no,2025-07-22_21h05.57.211,empathy_intonation_perc,2024.2.4,MacIntel,60.24096386,60fcbf0aca44c1b1c5631970,687ed1b7e638a4cbf2f02089,6880354492bae85d4dbe1f28,,,,,,,,,,,,,54,0,,./stim/wavs/cuban_match_declarative-broad-focus_Maria-bebe-el-vino.wav,,,,,,,,,,,,,,,,,,,,,,280.9263,283.159,0,1,1.7,,0,28,28,53,1,0,cuban,,,,,,,,,,,,,,,,,,,,,,,,,,,,,,,,,,,,,,,,,,,,,,,,,,,,,,,,
,,,,,,,,,60fcbf0aca44c1b1c5631970,colombian,13 or older,"no, only English or Spanish",no,2025-07-22_21h05.57.211,empathy_intonation_perc,2024.2.4,MacIntel,60.24096386,60fcbf0aca44c1b1c5631970,687ed1b7e638a4cbf2f02089,6880354492bae85d4dbe1f28,,,,,,,,,,,,,8,1,,./stim/wavs/cuban_match_interrogative-total-yn_Daniel-iba-a-Bolivia.wav,,,,,,,,,,,,,,,,,,,,,,283.1596,285.3089,0,0,1.6297,,0,29,29,7,1,1,cuban,,,,,,,,,,,,,,,,,,,,,,,,,,,,,,,,,,,,,,,,,,,,,,,,,,,,,,,,
,,,,,,,,,60fcbf0aca44c1b1c5631970,colombian,13 or older,"no, only English or Spanish",no,2025-07-22_21h05.57.211,empathy_intonation_perc,2024.2.4,MacIntel,60.24096386,60fcbf0aca44c1b1c5631970,687ed1b7e638a4cbf2f02089,6880354492bae85d4dbe1f28,,,,,,,,,,,,,73,0,,./stim/wavs/castilian_mismatch_declarative-broad-focus_Mi-tia-odia-la-lluvia.wav,,,,,,,,,,,,,,,,,,,,,,285.3096,287.3748,0,1,1.5358,,0,30,30,72,1,0,castilian,,,,,,,,,,,,,,,,,,,,,,,,,,,,,,,,,,,,,,,,,,,,,,,,,,,,,,,,
,,,,,,,,,60fcbf0aca44c1b1c5631970,colombian,13 or older,"no, only English or Spanish",no,2025-07-22_21h05.57.211,empathy_intonation_perc,2024.2.4,MacIntel,60.24096386,60fcbf0aca44c1b1c5631970,687ed1b7e638a4cbf2f02089,6880354492bae85d4dbe1f28,,,,,,,,,,,,,3,1,,./stim/wavs/castilian_match_interrogative-total-yn_Manuela-vende-el-carro.wav,,,,,,,,,,,,,,,,,,,,,,287.3755,289.4423,1,1,1.5502,,0,31,31,2,1,0,castilian,,,,,,,,,,,,,,,,,,,,,,,,,,,,,,,,,,,,,,,,,,,,,,,,,,,,,,,,
,,,,,,,,,60fcbf0aca44c1b1c5631970,colombian,13 or older,"no, only English or Spanish",no,2025-07-22_21h05.57.211,empathy_intonation_perc,2024.2.4,MacIntel,60.24096386,60fcbf0aca44c1b1c5631970,687ed1b7e638a4cbf2f02089,6880354492bae85d4dbe1f28,,,,,,,,,,,,,72,0,,./stim/wavs/castilian_mismatch_declarative-broad-focus_Mi-novio-viene-del-lago.wav,,,,,,,,,,,,,,,,,,,,,,289.443,291.5592,1,0,1.5849,,0,32,32,71,1,0,castilian,,,,,,,,,,,,,,,,,,,,,,,,,,,,,,,,,,,,,,,,,,,,,,,,,,,,,,,,
,,,,,,,,,60fcbf0aca44c1b1c5631970,colombian,13 or older,"no, only English or Spanish",no,2025-07-22_21h05.57.211,empathy_intonation_perc,2024.2.4,MacIntel,60.24096386,60fcbf0aca44c1b1c5631970,687ed1b7e638a4cbf2f02089,6880354492bae85d4dbe1f28,,,,,,,,,,,,,37,1,,./stim/wavs/mexican_mismatch_interrogative-total-yn_La-maestra-vive-en-Paris.wav,,,,,,,,,,,,,,,,,,,,,,291.5599,293.6423,1,1,1.5499,,0,33,33,36,1,0,mexican,,,,,,,,,,,,,,,,,,,,,,,,,,,,,,,,,,,,,,,,,,,,,,,,,,,,,,,,
,,,,,,,,,60fcbf0aca44c1b1c5631970,colombian,13 or older,"no, only English or Spanish",no,2025-07-22_21h05.57.211,empathy_intonation_perc,2024.2.4,MacIntel,60.24096386,60fcbf0aca44c1b1c5631970,687ed1b7e638a4cbf2f02089,6880354492bae85d4dbe1f28,,,,,,,,,,,,,56,0,,./stim/wavs/cuban_match_declarative-broad-focus_Marta-abre-el-regalo.wav,,,,,,,,,,,,,,,,,,,,,,293.6428,295.659,0,1,1.4947,,0,34,34,55,1,0,cuban,,,,,,,,,,,,,,,,,,,,,,,,,,,,,,,,,,,,,,,,,,,,,,,,,,,,,,,,
,,,,,,,,,60fcbf0aca44c1b1c5631970,colombian,13 or older,"no, only English or Spanish",no,2025-07-22_21h05.57.211,empathy_intonation_perc,2024.2.4,MacIntel,60.24096386,60fcbf0aca44c1b1c5631970,687ed1b7e638a4cbf2f02089,6880354492bae85d4dbe1f28,,,,,,,,,,,,,60,0,,./stim/wavs/mexican_match_declarative-broad-focus_Emilio-ama-la-marcha.wav,,,,,,,,,,,,,,,,,,,,,,295.6597,297.6924,0,1,1.5119,,0,35,35,59,1,0,mexican,,,,,,,,,,,,,,,,,,,,,,,,,,,,,,,,,,,,,,,,,,,,,,,,,,,,,,,,
,,,,,,,,,60fcbf0aca44c1b1c5631970,colombian,13 or older,"no, only English or Spanish",no,2025-07-22_21h05.57.211,empathy_intonation_perc,2024.2.4,MacIntel,60.24096386,60fcbf0aca44c1b1c5631970,687ed1b7e638a4cbf2f02089,6880354492bae85d4dbe1f28,,,,,,,,,,,,,78,0,,./stim/wavs/cuban_mismatch_declarative-broad-focus_Mi-tia-odia-la-lluvia.wav,,,,,,,,,,,,,,,,,,,,,,297.6932,299.9257,0,1,1.7038,,0,36,36,77,1,0,cuban,,,,,,,,,,,,,,,,,,,,,,,,,,,,,,,,,,,,,,,,,,,,,,,,,,,,,,,,
,,,,,,,,,60fcbf0aca44c1b1c5631970,colombian,13 or older,"no, only English or Spanish",no,2025-07-22_21h05.57.211,empathy_intonation_perc,2024.2.4,MacIntel,60.24096386,60fcbf0aca44c1b1c5631970,687ed1b7e638a4cbf2f02089,6880354492bae85d4dbe1f28,,,,,,,,,,,,,36,1,,./stim/wavs/mexican_mismatch_interrogative-total-yn_El-nino-oye-el-rio.wav,,,,,,,,,,,,,,,,,,,,,,299.9264,301.726,0,0,1.2673,,0,37,37,35,1,0,mexican,,,,,,,,,,,,,,,,,,,,,,,,,,,,,,,,,,,,,,,,,,,,,,,,,,,,,,,,
,,,,,,,,,60fcbf0aca44c1b1c5631970,colombian,13 or older,"no, only English or Spanish",no,2025-07-22_21h05.57.211,empathy_intonation_perc,2024.2.4,MacIntel,60.24096386,60fcbf0aca44c1b1c5631970,687ed1b7e638a4cbf2f02089,6880354492bae85d4dbe1f28,,,,,,,,,,,,,70,0,,./stim/wavs/castilian_mismatch_declarative-broad-focus_La-maestra-vive-en-Paris.wav,,,,,,,,,,,,,,,,,,,,,,301.7269,304.0754,0,1,1.8169,,0,38,38,69,1,0,castilian,,,,,,,,,,,,,,,,,,,,,,,,,,,,,,,,,,,,,,,,,,,,,,,,,,,,,,,,
,,,,,,,,,60fcbf0aca44c1b1c5631970,colombian,13 or older,"no, only English or Spanish",no,2025-07-22_21h05.57.211,empathy_intonation_perc,2024.2.4,MacIntel,60.24096386,60fcbf0aca44c1b1c5631970,687ed1b7e638a4cbf2f02089,6880354492bae85d4dbe1f28,,,,,,,,,,,,,77,0,,./stim/wavs/cuban_mismatch_declarative-broad-focus_Mi-novio-viene-del-lago.wav,,,,,,,,,,,,,,,,,,,,,,304.0761,306.2088,0,1,1.6119,,0,39,39,76,1,0,cuban,,,,,,,,,,,,,,,,,,,,,,,,,,,,,,,,,,,,,,,,,,,,,,,,,,,,,,,,
,,,,,,,,,60fcbf0aca44c1b1c5631970,colombian,13 or older,"no, only English or Spanish",no,2025-07-22_21h05.57.211,empathy_intonation_perc,2024.2.4,MacIntel,60.24096386,60fcbf0aca44c1b1c5631970,687ed1b7e638a4cbf2f02089,6880354492bae85d4dbe1f28,,,,,,,,,,,,,27,1,,./stim/wavs/castilian_mismatch_interrogative-total-yn_Mi-madre-come-la-fruta.wav,,,,,,,,,,,,,,,,,,,,,,306.2094,308.1758,1,1,1.4439,,0,40,40,26,1,0,castilian,,,,,,,,,,,,,,,,,,,,,,,,,,,,,,,,,,,,,,,,,,,,,,,,,,,,,,,,
,,,,,,,,,60fcbf0aca44c1b1c5631970,colombian,13 or older,"no, only English or Spanish",no,2025-07-22_21h05.57.211,empathy_intonation_perc,2024.2.4,MacIntel,60.24096386,60fcbf0aca44c1b1c5631970,687ed1b7e638a4cbf2f02089,6880354492bae85d4dbe1f28,,,,,,,,,,,,,76,0,,./stim/wavs/cuban_mismatch_declarative-broad-focus_La-nina-lava-el-plato.wav,,,,,,,,,,,,,,,,,,,,,,308.1769,310.359,0,1,1.6502,,0,41,41,75,1,0,cuban,,,,,,,,,,,,,,,,,,,,,,,,,,,,,,,,,,,,,,,,,,,,,,,,,,,,,,,,
,,,,,,,,,60fcbf0aca44c1b1c5631970,colombian,13 or older,"no, only English or Spanish",no,2025-07-22_21h05.57.211,empathy_intonation_perc,2024.2.4,MacIntel,60.24096386,60fcbf0aca44c1b1c5631970,687ed1b7e638a4cbf2f02089,6880354492bae85d4dbe1f28,,,,,,,,,,,,,38,1,,./stim/wavs/mexican_mismatch_interrogative-total-yn_Mi-novio-viene-del-lago.wav,,,,,,,,,,,,,,,,,,,,,,310.3596,312.2414,1,1,1.359,,0,42,42,37,1,0,mexican,,,,,,,,,,,,,,,,,,,,,,,,,,,,,,,,,,,,,,,,,,,,,,,,,,,,,,,,
,,,,,,,,,60fcbf0aca44c1b1c5631970,colombian,13 or older,"no, only English or Spanish",no,2025-07-22_21h05.57.211,empathy_intonation_perc,2024.2.4,MacIntel,60.24096386,60fcbf0aca44c1b1c5631970,687ed1b7e638a4cbf2f02089,6880354492bae85d4dbe1f28,,,,,,,,,,,,,81,0,,./stim/wavs/mexican_mismatch_declarative-broad-focus_La-maestra-vive-en-Paris.wav,,,,,,,,,,,,,,,,,,,,,,312.2417,314.4265,0,1,1.6791,,0,43,43,80,1,0,mexican,,,,,,,,,,,,,,,,,,,,,,,,,,,,,,,,,,,,,,,,,,,,,,,,,,,,,,,,
,,,,,,,,,60fcbf0aca44c1b1c5631970,colombian,13 or older,"no, only English or Spanish",no,2025-07-22_21h05.57.211,empathy_intonation_perc,2024.2.4,MacIntel,60.24096386,60fcbf0aca44c1b1c5631970,687ed1b7e638a4cbf2f02089,6880354492bae85d4dbe1f28,,,,,,,,,,,,,49,0,,./stim/wavs/castilian_match_declarative-broad-focus_Mariano-habla-del-tiempo.wav,,,,,,,,,,,,,,,,,,,,,,314.4273,316.3925,1,0,1.4358,,0,44,44,48,1,0,castilian,,,,,,,,,,,,,,,,,,,,,,,,,,,,,,,,,,,,,,,,,,,,,,,,,,,,,,,,
,,,,,,,,,60fcbf0aca44c1b1c5631970,colombian,13 or older,"no, only English or Spanish",no,2025-07-22_21h05.57.211,empathy_intonation_perc,2024.2.4,MacIntel,60.24096386,60fcbf0aca44c1b1c5631970,687ed1b7e638a4cbf2f02089,6880354492bae85d4dbe1f28,,,,,,,,,,,,,42,1,,./stim/wavs/puertorican_mismatch_interrogative-total-yn_La-maestra-vive-en-Paris.wav,,,,,,,,,,,,,,,,,,,,,,316.3931,318.4925,0,0,1.5736,,0,45,45,41,1,1,puertorican,,,,,,,,,,,,,,,,,,,,,,,,,,,,,,,,,,,,,,,,,,,,,,,,,,,,,,,,
,,,,,,,,,60fcbf0aca44c1b1c5631970,colombian,13 or older,"no, only English or Spanish",no,2025-07-22_21h05.57.211,empathy_intonation_perc,2024.2.4,MacIntel,60.24096386,60fcbf0aca44c1b1c5631970,687ed1b7e638a4cbf2f02089,6880354492bae85d4dbe1f28,,,,,,,,,,,,,75,0,,./stim/wavs/cuban_mismatch_declarative-broad-focus_El-hombre-mira-la-luna.wav,,,,,,,,,,,,,,,,,,,,,,318.493,320.2593,0,1,1.2364,,0,46,46,74,1,0,cuban,,,,,,,,,,,,,,,,,,,,,,,,,,,,,,,,,,,,,,,,,,,,,,,,,,,,,,,,
,,,,,,,,,60fcbf0aca44c1b1c5631970,colombian,13 or older,"no, only English or Spanish",no,2025-07-22_21h05.57.211,empathy_intonation_perc,2024.2.4,MacIntel,60.24096386,60fcbf0aca44c1b1c5631970,687ed1b7e638a4cbf2f02089,6880354492bae85d4dbe1f28,,,,,,,,,,,,,26,1,,./stim/wavs/castilian_mismatch_interrogative-total-yn_La-nina-lava-el-plato.wav,,,,,,,,,,,,,,,,,,,,,,320.2601,322.2427,1,1,1.4508,,0,47,47,25,1,0,castilian,,,,,,,,,,,,,,,,,,,,,,,,,,,,,,,,,,,,,,,,,,,,,,,,,,,,,,,,
,,,,,,,,,60fcbf0aca44c1b1c5631970,colombian,13 or older,"no, only English or Spanish",no,2025-07-22_21h05.57.211,empathy_intonation_perc,2024.2.4,MacIntel,60.24096386,60fcbf0aca44c1b1c5631970,687ed1b7e638a4cbf2f02089,6880354492bae85d4dbe1f28,,,,,,,,,,,,,1,1,,./stim/wavs/castilian_match_interrogative-total-yn_David-leia-el-libro.wav,,,,,,,,,,,,,,,,,,,,,,322.2433,324.3427,1,1,1.572,,0,48,48,0,1,0,castilian,,,,,,,,,,,,,,,,,,,,,,,,,,,,,,,,,,,,,,,,,,,,,,,,,,,,,,,,
,,,,,,,,,60fcbf0aca44c1b1c5631970,colombian,13 or older,"no, only English or Spanish",no,2025-07-22_21h05.57.211,empathy_intonation_perc,2024.2.4,MacIntel,60.24096386,60fcbf0aca44c1b1c5631970,687ed1b7e638a4cbf2f02089,6880354492bae85d4dbe1f28,,,,,,,,,,,,,47,0,,./stim/wavs/castilian_match_declarative-broad-focus_Manuela-vende-el-carro.wav,,,,,,,,,,,,,,,,,,,,,,324.3436,326.6928,0,1,1.8205,,0,49,49,46,1,0,castilian,,,,,,,,,,,,,,,,,,,,,,,,,,,,,,,,,,,,,,,,,,,,,,,,,,,,,,,,
,,,,,,,,,60fcbf0aca44c1b1c5631970,colombian,13 or older,"no, only English or Spanish",no,2025-07-22_21h05.57.211,empathy_intonation_perc,2024.2.4,MacIntel,60.24096386,60fcbf0aca44c1b1c5631970,687ed1b7e638a4cbf2f02089,6880354492bae85d4dbe1f28,,,,,,,,,,,,,44,1,,./stim/wavs/puertorican_mismatch_interrogative-total-yn_Mi-madre-come-la-fruta.wav,,,,,,,,,,,,,,,,,,,,,,326.6936,328.6761,0,0,1.4554,,0,50,50,43,1,1,puertorican,,,,,,,,,,,,,,,,,,,,,,,,,,,,,,,,,,,,,,,,,,,,,,,,,,,,,,,,
,,,,,,,,,60fcbf0aca44c1b1c5631970,colombian,13 or older,"no, only English or Spanish",no,2025-07-22_21h05.57.211,empathy_intonation_perc,2024.2.4,MacIntel,60.24096386,60fcbf0aca44c1b1c5631970,687ed1b7e638a4cbf2f02089,6880354492bae85d4dbe1f28,,,,,,,,,,,,,63,0,,./stim/wavs/puertorican_match_declarative-broad-focus_Ana-lleva-el-abrigo.wav,,,,,,,,,,,,,,,,,,,,,,328.6769,330.8422,0,1,1.6359,,0,51,51,62,1,0,puertorican,,,,,,,,,,,,,,,,,,,,,,,,,,,,,,,,,,,,,,,,,,,,,,,,,,,,,,,,
,,,,,,,,,60fcbf0aca44c1b1c5631970,colombian,13 or older,"no, only English or Spanish",no,2025-07-22_21h05.57.211,empathy_intonation_perc,2024.2.4,MacIntel,60.24096386,60fcbf0aca44c1b1c5631970,687ed1b7e638a4cbf2f02089,6880354492bae85d4dbe1f28,,,,,,,,,,,,,55,0,,./stim/wavs/cuban_match_declarative-broad-focus_Mariano-habla-del-tiempo.wav,,,,,,,,,,,,,,,,,,,,,,330.8429,332.9261,0,1,1.5681,,0,52,52,54,1,0,cuban,,,,,,,,,,,,,,,,,,,,,,,,,,,,,,,,,,,,,,,,,,,,,,,,,,,,,,,,
,,,,,,,,,60fcbf0aca44c1b1c5631970,colombian,13 or older,"no, only English or Spanish",no,2025-07-22_21h05.57.211,empathy_intonation_perc,2024.2.4,MacIntel,60.24096386,60fcbf0aca44c1b1c5631970,687ed1b7e638a4cbf2f02089,6880354492bae85d4dbe1f28,,,,,,,,,,,,,40,1,,./stim/wavs/puertorican_mismatch_interrogative-total-yn_El-hombre-mira-la-luna.wav,,,,,,,,,,,,,,,,,,,,,,332.9268,334.8594,1,1,1.406,,0,53,53,39,1,1,puertorican,,,,,,,,,,,,,,,,,,,,,,,,,,,,,,,,,,,,,,,,,,,,,,,,,,,,,,,,
,,,,,,,,,60fcbf0aca44c1b1c5631970,colombian,13 or older,"no, only English or Spanish",no,2025-07-22_21h05.57.211,empathy_intonation_perc,2024.2.4,MacIntel,60.24096386,60fcbf0aca44c1b1c5631970,687ed1b7e638a4cbf2f02089,6880354492bae85d4dbe1f28,,,,,,,,,,,,,9,1,,./stim/wavs/cuban_match_interrogative-total-yn_Manuela-vende-el-carro.wav,,,,,,,,,,,,,,,,,,,,,,334.8598,336.7265,0,0,1.3372,,0,54,54,8,1,1,cuban,,,,,,,,,,,,,,,,,,,,,,,,,,,,,,,,,,,,,,,,,,,,,,,,,,,,,,,,
,,,,,,,,,60fcbf0aca44c1b1c5631970,colombian,13 or older,"no, only English or Spanish",no,2025-07-22_21h05.57.211,empathy_intonation_perc,2024.2.4,MacIntel,60.24096386,60fcbf0aca44c1b1c5631970,687ed1b7e638a4cbf2f02089,6880354492bae85d4dbe1f28,,,,,,,,,,,,,11,1,,./stim/wavs/cuban_match_interrogative-total-yn_Mariano-habla-del-tiempo.wav,,,,,,,,,,,,,,,,,,,,,,336.7271,338.759,0,0,1.5036,,0,55,55,10,1,1,cuban,,,,,,,,,,,,,,,,,,,,,,,,,,,,,,,,,,,,,,,,,,,,,,,,,,,,,,,,
,,,,,,,,,60fcbf0aca44c1b1c5631970,colombian,13 or older,"no, only English or Spanish",no,2025-07-22_21h05.57.211,empathy_intonation_perc,2024.2.4,MacIntel,60.24096386,60fcbf0aca44c1b1c5631970,687ed1b7e638a4cbf2f02089,6880354492bae85d4dbe1f28,,,,,,,,,,,,,67,0,,./stim/wavs/puertorican_match_declarative-broad-focus_Manuela-vende-el-carro.wav,,,,,,,,,,,,,,,,,,,,,,338.7593,340.5766,0,1,1.2973,,0,56,56,66,1,0,puertorican,,,,,,,,,,,,,,,,,,,,,,,,,,,,,,,,,,,,,,,,,,,,,,,,,,,,,,,,
,,,,,,,,,60fcbf0aca44c1b1c5631970,colombian,13 or older,"no, only English or Spanish",no,2025-07-22_21h05.57.211,empathy_intonation_perc,2024.2.4,MacIntel,60.24096386,60fcbf0aca44c1b1c5631970,687ed1b7e638a4cbf2f02089,6880354492bae85d4dbe1f28,,,,,,,,,,,,,52,0,,./stim/wavs/cuban_match_declarative-broad-focus_Daniel-iba-a-Bolivia.wav,,,,,,,,,,,,,,,,,,,,,,340.5778,342.6597,0,1,1.5637,,0,57,57,51,1,0,cuban,,,,,,,,,,,,,,,,,,,,,,,,,,,,,,,,,,,,,,,,,,,,,,,,,,,,,,,,
,,,,,,,,,60fcbf0aca44c1b1c5631970,colombian,13 or older,"no, only English or Spanish",no,2025-07-22_21h05.57.211,empathy_intonation_perc,2024.2.4,MacIntel,60.24096386,60fcbf0aca44c1b1c5631970,687ed1b7e638a4cbf2f02089,6880354492bae85d4dbe1f28,,,,,,,,,,,,,71,0,,./stim/wavs/castilian_mismatch_declarative-broad-focus_La-nina-lava-el-plato.wav,,,,,,,,,,,,,,,,,,,,,,342.6603,345.0425,0,1,1.8506,,0,58,58,70,1,0,castilian,,,,,,,,,,,,,,,,,,,,,,,,,,,,,,,,,,,,,,,,,,,,,,,,,,,,,,,,
,,,,,,,,,60fcbf0aca44c1b1c5631970,colombian,13 or older,"no, only English or Spanish",no,2025-07-22_21h05.57.211,empathy_intonation_perc,2024.2.4,MacIntel,60.24096386,60fcbf0aca44c1b1c5631970,687ed1b7e638a4cbf2f02089,6880354492bae85d4dbe1f28,,,,,,,,,,,,,39,1,,./stim/wavs/mexican_mismatch_interrogative-total-yn_Mi-tia-odia-la-lluvia.wav,,,,,,,,,,,,,,,,,,,,,,345.0428,346.96,1,1,1.4123,,0,59,59,38,1,0,mexican,,,,,,,,,,,,,,,,,,,,,,,,,,,,,,,,,,,,,,,,,,,,,,,,,,,,,,,,
,,,,,,,,,60fcbf0aca44c1b1c5631970,colombian,13 or older,"no, only English or Spanish",no,2025-07-22_21h05.57.211,empathy_intonation_perc,2024.2.4,MacIntel,60.24096386,60fcbf0aca44c1b1c5631970,687ed1b7e638a4cbf2f02089,6880354492bae85d4dbe1f28,,,,,,,,,,,,,69,0,,./stim/wavs/castilian_mismatch_declarative-broad-focus_El-nino-oye-el-rio.wav,,,,,,,,,,,,,,,,,,,,,,346.9606,349.1096,0,1,1.617,,0,60,60,68,1,0,castilian,,,,,,,,,,,,,,,,,,,,,,,,,,,,,,,,,,,,,,,,,,,,,,,,,,,,,,,,
,,,,,,,,,60fcbf0aca44c1b1c5631970,colombian,13 or older,"no, only English or Spanish",no,2025-07-22_21h05.57.211,empathy_intonation_perc,2024.2.4,MacIntel,60.24096386,60fcbf0aca44c1b1c5631970,687ed1b7e638a4cbf2f02089,6880354492bae85d4dbe1f28,,,,,,,,,,,,,86,0,,./stim/wavs/puertorican_mismatch_declarative-broad-focus_El-nino-oye-el-rio.wav,,,,,,,,,,,,,,,,,,,,,,349.1102,350.9428,0,1,1.3125,,0,61,61,85,1,0,puertorican,,,,,,,,,,,,,,,,,,,,,,,,,,,,,,,,,,,,,,,,,,,,,,,,,,,,,,,,
,,,,,,,,,60fcbf0aca44c1b1c5631970,colombian,13 or older,"no, only English or Spanish",no,2025-07-22_21h05.57.211,empathy_intonation_perc,2024.2.4,MacIntel,60.24096386,60fcbf0aca44c1b1c5631970,687ed1b7e638a4cbf2f02089,6880354492bae85d4dbe1f28,,,,,,,,,,,,,2,1,,./stim/wavs/castilian_match_interrogative-total-yn_Emilio-ama-la-marcha.wav,,,,,,,,,,,,,,,,,,,,,,350.9434,353.1431,1,1,1.6674,,0,62,62,1,1,0,castilian,,,,,,,,,,,,,,,,,,,,,,,,,,,,,,,,,,,,,,,,,,,,,,,,,,,,,,,,
,,,,,,,,,60fcbf0aca44c1b1c5631970,colombian,13 or older,"no, only English or Spanish",no,2025-07-22_21h05.57.211,empathy_intonation_perc,2024.2.4,MacIntel,60.24096386,60fcbf0aca44c1b1c5631970,687ed1b7e638a4cbf2f02089,6880354492bae85d4dbe1f28,,,,,,,,,,,,,30,1,,./stim/wavs/cuban_mismatch_interrogative-total-yn_El-hombre-mira-la-luna.wav,,,,,,,,,,,,,,,,,,,,,,353.1438,354.9263,0,0,1.2627,,0,63,63,29,1,1,cuban,,,,,,,,,,,,,,,,,,,,,,,,,,,,,,,,,,,,,,,,,,,,,,,,,,,,,,,,
,,,,,,,,,60fcbf0aca44c1b1c5631970,colombian,13 or older,"no, only English or Spanish",no,2025-07-22_21h05.57.211,empathy_intonation_perc,2024.2.4,MacIntel,60.24096386,60fcbf0aca44c1b1c5631970,687ed1b7e638a4cbf2f02089,6880354492bae85d4dbe1f28,,,,,,,,,,,,,12,1,,./stim/wavs/cuban_match_interrogative-total-yn_Marta-abre-el-regalo.wav,,,,,,,,,,,,,,,,,,,,,,354.9269,356.843,0,0,1.3853,,0,64,64,11,1,1,cuban,,,,,,,,,,,,,,,,,,,,,,,,,,,,,,,,,,,,,,,,,,,,,,,,,,,,,,,,
,,,,,,,,,60fcbf0aca44c1b1c5631970,colombian,13 or older,"no, only English or Spanish",no,2025-07-22_21h05.57.211,empathy_intonation_perc,2024.2.4,MacIntel,60.24096386,60fcbf0aca44c1b1c5631970,687ed1b7e638a4cbf2f02089,6880354492bae85d4dbe1f28,,,,,,,,,,,,,51,0,,./stim/wavs/cuban_match_declarative-broad-focus_Ana-lleva-el-abrigo.wav,,,,,,,,,,,,,,,,,,,,,,356.8435,358.8929,0,1,1.5175,,0,65,65,50,1,0,cuban,,,,,,,,,,,,,,,,,,,,,,,,,,,,,,,,,,,,,,,,,,,,,,,,,,,,,,,,
,,,,,,,,,60fcbf0aca44c1b1c5631970,colombian,13 or older,"no, only English or Spanish",no,2025-07-22_21h05.57.211,empathy_intonation_perc,2024.2.4,MacIntel,60.24096386,60fcbf0aca44c1b1c5631970,687ed1b7e638a4cbf2f02089,6880354492bae85d4dbe1f28,,,,,,,,,,,,,6,1,,./stim/wavs/castilian_match_interrogative-total-yn_Marta-abre-el-regalo.wav,,,,,,,,,,,,,,,,,,,,,,358.8936,360.9931,1,1,1.5694,,0,66,66,5,1,0,castilian,,,,,,,,,,,,,,,,,,,,,,,,,,,,,,,,,,,,,,,,,,,,,,,,,,,,,,,,
,,,,,,,,,60fcbf0aca44c1b1c5631970,colombian,13 or older,"no, only English or Spanish",no,2025-07-22_21h05.57.211,empathy_intonation_perc,2024.2.4,MacIntel,60.24096386,60fcbf0aca44c1b1c5631970,687ed1b7e638a4cbf2f02089,6880354492bae85d4dbe1f28,,,,,,,,,,,,,16,1,,./stim/wavs/mexican_match_interrogative-total-yn_Emilio-ama-la-marcha.wav,,,,,,,,,,,,,,,,,,,,,,360.9936,363.0928,1,1,1.5803,,0,67,67,15,1,0,mexican,,,,,,,,,,,,,,,,,,,,,,,,,,,,,,,,,,,,,,,,,,,,,,,,,,,,,,,,
,,,,,,,,,60fcbf0aca44c1b1c5631970,colombian,13 or older,"no, only English or Spanish",no,2025-07-22_21h05.57.211,empathy_intonation_perc,2024.2.4,MacIntel,60.24096386,60fcbf0aca44c1b1c5631970,687ed1b7e638a4cbf2f02089,6880354492bae85d4dbe1f28,,,,,,,,,,,,,66,0,,./stim/wavs/puertorican_match_declarative-broad-focus_Emilio-ama-la-marcha.wav,,,,,,,,,,,,,,,,,,,,,,363.0935,364.9928,0,1,1.3789,,0,68,68,65,1,0,puertorican,,,,,,,,,,,,,,,,,,,,,,,,,,,,,,,,,,,,,,,,,,,,,,,,,,,,,,,,
,,,,,,,,,60fcbf0aca44c1b1c5631970,colombian,13 or older,"no, only English or Spanish",no,2025-07-22_21h05.57.211,empathy_intonation_perc,2024.2.4,MacIntel,60.24096386,60fcbf0aca44c1b1c5631970,687ed1b7e638a4cbf2f02089,6880354492bae85d4dbe1f28,,,,,,,,,,,,,7,1,,./stim/wavs/cuban_match_interrogative-total-yn_Ana-lleva-el-abrigo.wav,,,,,,,,,,,,,,,,,,,,,,364.9933,366.8095,0,0,1.2955,,0,69,69,6,1,1,cuban,,,,,,,,,,,,,,,,,,,,,,,,,,,,,,,,,,,,,,,,,,,,,,,,,,,,,,,,
,,,,,,,,,60fcbf0aca44c1b1c5631970,colombian,13 or older,"no, only English or Spanish",no,2025-07-22_21h05.57.211,empathy_intonation_perc,2024.2.4,MacIntel,60.24096386,60fcbf0aca44c1b1c5631970,687ed1b7e638a4cbf2f02089,6880354492bae85d4dbe1f28,,,,,,,,,,,,,43,1,,./stim/wavs/puertorican_mismatch_interrogative-total-yn_La-nina-lava-el-plato.wav,,,,,,,,,,,,,,,,,,,,,,366.8102,368.7764,0,0,1.4473,,0,70,70,42,1,1,puertorican,,,,,,,,,,,,,,,,,,,,,,,,,,,,,,,,,,,,,,,,,,,,,,,,,,,,,,,,
,,,,,,,,,60fcbf0aca44c1b1c5631970,colombian,13 or older,"no, only English or Spanish",no,2025-07-22_21h05.57.211,empathy_intonation_perc,2024.2.4,MacIntel,60.24096386,60fcbf0aca44c1b1c5631970,687ed1b7e638a4cbf2f02089,6880354492bae85d4dbe1f28,,,,,,,,,,,,,35,1,,./stim/wavs/mexican_mismatch_interrogative-total-yn_El-hombre-mira-la-luna.wav,,,,,,,,,,,,,,,,,,,,,,368.7771,370.5598,1,1,1.2629,,0,71,71,34,1,0,mexican,,,,,,,,,,,,,,,,,,,,,,,,,,,,,,,,,,,,,,,,,,,,,,,,,,,,,,,,
,,,,,,,,,60fcbf0aca44c1b1c5631970,colombian,13 or older,"no, only English or Spanish",no,2025-07-22_21h05.57.211,empathy_intonation_perc,2024.2.4,MacIntel,60.24096386,60fcbf0aca44c1b1c5631970,687ed1b7e638a4cbf2f02089,6880354492bae85d4dbe1f28,,,,,,,,,,,,,62,0,,./stim/wavs/mexican_match_declarative-broad-focus_Marta-abre-el-regalo.wav,,,,,,,,,,,,,,,,,,,,,,370.5607,372.4263,0,1,1.3353,,0,72,72,61,1,0,mexican,,,,,,,,,,,,,,,,,,,,,,,,,,,,,,,,,,,,,,,,,,,,,,,,,,,,,,,,
,,,,,,,,,60fcbf0aca44c1b1c5631970,colombian,13 or older,"no, only English or Spanish",no,2025-07-22_21h05.57.211,empathy_intonation_perc,2024.2.4,MacIntel,60.24096386,60fcbf0aca44c1b1c5631970,687ed1b7e638a4cbf2f02089,6880354492bae85d4dbe1f28,,,,,,,,,,,,,50,0,,./stim/wavs/castilian_match_declarative-broad-focus_Marta-abre-el-regalo.wav,,,,,,,,,,,,,,,,,,,,,,372.4267,374.5932,0,1,1.635,,0,73,73,49,1,0,castilian,,,,,,,,,,,,,,,,,,,,,,,,,,,,,,,,,,,,,,,,,,,,,,,,,,,,,,,,
,,,,,,,,,60fcbf0aca44c1b1c5631970,colombian,13 or older,"no, only English or Spanish",no,2025-07-22_21h05.57.211,empathy_intonation_perc,2024.2.4,MacIntel,60.24096386,60fcbf0aca44c1b1c5631970,687ed1b7e638a4cbf2f02089,6880354492bae85d4dbe1f28,,,,,,,,,,,,,23,1,,./stim/wavs/puertorican_match_interrogative-total-yn_Manuela-vende-el-carro.wav,,,,,,,,,,,,,,,,,,,,,,374.594,376.5601,0,0,1.4342,,0,74,74,22,1,1,puertorican,,,,,,,,,,,,,,,,,,,,,,,,,,,,,,,,,,,,,,,,,,,,,,,,,,,,,,,,
,,,,,,,,,60fcbf0aca44c1b1c5631970,colombian,13 or older,"no, only English or Spanish",no,2025-07-22_21h05.57.211,empathy_intonation_perc,2024.2.4,MacIntel,60.24096386,60fcbf0aca44c1b1c5631970,687ed1b7e638a4cbf2f02089,6880354492bae85d4dbe1f28,,,,,,,,,,,,,41,1,,./stim/wavs/puertorican_mismatch_interrogative-total-yn_El-nino-oye-el-rio.wav,,,,,,,,,,,,,,,,,,,,,,376.561,378.3926,0,0,1.3054,,0,75,75,40,1,1,puertorican,,,,,,,,,,,,,,,,,,,,,,,,,,,,,,,,,,,,,,,,,,,,,,,,,,,,,,,,
,,,,,,,,,60fcbf0aca44c1b1c5631970,colombian,13 or older,"no, only English or Spanish",no,2025-07-22_21h05.57.211,empathy_intonation_perc,2024.2.4,MacIntel,60.24096386,60fcbf0aca44c1b1c5631970,687ed1b7e638a4cbf2f02089,6880354492bae85d4dbe1f28,,,,,,,,,,,,,18,1,,./stim/wavs/mexican_match_interrogative-total-yn_Marta-abre-el-regalo.wav,,,,,,,,,,,,,,,,,,,,,,378.3936,380.3763,1,1,1.4601,,0,76,76,17,1,0,mexican,,,,,,,,,,,,,,,,,,,,,,,,,,,,,,,,,,,,,,,,,,,,,,,,,,,,,,,,
,,,,,,,,,60fcbf0aca44c1b1c5631970,colombian,13 or older,"no, only English or Spanish",no,2025-07-22_21h05.57.211,empathy_intonation_perc,2024.2.4,MacIntel,60.24096386,60fcbf0aca44c1b1c5631970,687ed1b7e638a4cbf2f02089,6880354492bae85d4dbe1f28,,,,,,,,,,,,,48,0,,./stim/wavs/castilian_match_declarative-broad-focus_Maria-bebe-el-vino.wav,,,,,,,,,,,,,,,,,,,,,,380.3766,382.4434,0,1,1.5339,,0,77,77,47,1,0,castilian,,,,,,,,,,,,,,,,,,,,,,,,,,,,,,,,,,,,,,,,,,,,,,,,,,,,,,,,
,,,,,,,,,60fcbf0aca44c1b1c5631970,colombian,13 or older,"no, only English or Spanish",no,2025-07-22_21h05.57.211,empathy_intonation_perc,2024.2.4,MacIntel,60.24096386,60fcbf0aca44c1b1c5631970,687ed1b7e638a4cbf2f02089,6880354492bae85d4dbe1f28,,,,,,,,,,,,,14,1,,./stim/wavs/mexican_match_interrogative-total-yn_Daniel-iba-a-Bolivia.wav,,,,,,,,,,,,,,,,,,,,,,382.4442,384.61,1,1,1.6333,,0,78,78,13,1,0,mexican,,,,,,,,,,,,,,,,,,,,,,,,,,,,,,,,,,,,,,,,,,,,,,,,,,,,,,,,
,,,,,,,,,60fcbf0aca44c1b1c5631970,colombian,13 or older,"no, only English or Spanish",no,2025-07-22_21h05.57.211,empathy_intonation_perc,2024.2.4,MacIntel,60.24096386,60fcbf0aca44c1b1c5631970,687ed1b7e638a4cbf2f02089,6880354492bae85d4dbe1f28,,,,,,,,,,,,,5,1,,./stim/wavs/castilian_match_interrogative-total-yn_Mariano-habla-del-tiempo.wav,,,,,,,,,,,,,,,,,,,,,,384.6105,386.8934,1,1,1.7507,,0,79,79,4,1,0,castilian,,,,,,,,,,,,,,,,,,,,,,,,,,,,,,,,,,,,,,,,,,,,,,,,,,,,,,,,
,,,,,,,,,60fcbf0aca44c1b1c5631970,colombian,13 or older,"no, only English or Spanish",no,2025-07-22_21h05.57.211,empathy_intonation_perc,2024.2.4,MacIntel,60.24096386,60fcbf0aca44c1b1c5631970,687ed1b7e638a4cbf2f02089,6880354492bae85d4dbe1f28,,,,,,,,,,,,,4,1,,./stim/wavs/castilian_match_interrogative-total-yn_Maria-bebe-el-vino.wav,,,,,,,,,,,,,,,,,,,,,,386.8941,388.71,1,1,1.2957,,0,80,80,3,1,0,castilian,,,,,,,,,,,,,,,,,,,,,,,,,,,,,,,,,,,,,,,,,,,,,,,,,,,,,,,,
,,,,,,,,,60fcbf0aca44c1b1c5631970,colombian,13 or older,"no, only English or Spanish",no,2025-07-22_21h05.57.211,empathy_intonation_perc,2024.2.4,MacIntel,60.24096386,60fcbf0aca44c1b1c5631970,687ed1b7e638a4cbf2f02089,6880354492bae85d4dbe1f28,,,,,,,,,,,,,64,0,,./stim/wavs/puertorican_match_declarative-broad-focus_Daniel-iba-a-Bolivia.wav,,,,,,,,,,,,,,,,,,,,,,388.7109,390.5266,0,1,1.2881,,0,81,81,63,1,0,puertorican,,,,,,,,,,,,,,,,,,,,,,,,,,,,,,,,,,,,,,,,,,,,,,,,,,,,,,,,
,,,,,,,,,60fcbf0aca44c1b1c5631970,colombian,13 or older,"no, only English or Spanish",no,2025-07-22_21h05.57.211,empathy_intonation_perc,2024.2.4,MacIntel,60.24096386,60fcbf0aca44c1b1c5631970,687ed1b7e638a4cbf2f02089,6880354492bae85d4dbe1f28,,,,,,,,,,,,,53,0,,./stim/wavs/cuban_match_declarative-broad-focus_Manuela-vende-el-carro.wav,,,,,,,,,,,,,,,,,,,,,,390.5271,392.4936,0,1,1.4344,,0,82,82,52,1,0,cuban,,,,,,,,,,,,,,,,,,,,,,,,,,,,,,,,,,,,,,,,,,,,,,,,,,,,,,,,
,,,,,,,,,60fcbf0aca44c1b1c5631970,colombian,13 or older,"no, only English or Spanish",no,2025-07-22_21h05.57.211,empathy_intonation_perc,2024.2.4,MacIntel,60.24096386,60fcbf0aca44c1b1c5631970,687ed1b7e638a4cbf2f02089,6880354492bae85d4dbe1f28,,,,,,,,,,,,,21,1,,./stim/wavs/puertorican_match_interrogative-total-yn_David-leia-el-libro.wav,,,,,,,,,,,,,,,,,,,,,,392.4943,394.7434,0,0,1.7272,,0,83,83,20,1,1,puertorican,,,,,,,,,,,,,,,,,,,,,,,,,,,,,,,,,,,,,,,,,,,,,,,,,,,,,,,,
,,,,,,,,,60fcbf0aca44c1b1c5631970,colombian,13 or older,"no, only English or Spanish",no,2025-07-22_21h05.57.211,empathy_intonation_perc,2024.2.4,MacIntel,60.24096386,60fcbf0aca44c1b1c5631970,687ed1b7e638a4cbf2f02089,6880354492bae85d4dbe1f28,,,,,,,,,,,,,61,0,,./stim/wavs/mexican_match_declarative-broad-focus_Mariano-habla-del-tiempo.wav,,,,,,,,,,,,,,,,,,,,,,394.7441,396.7436,0,1,1.4683,,0,84,84,60,1,0,mexican,,,,,,,,,,,,,,,,,,,,,,,,,,,,,,,,,,,,,,,,,,,,,,,,,,,,,,,,
,,,,,,,,,60fcbf0aca44c1b1c5631970,colombian,13 or older,"no, only English or Spanish",no,2025-07-22_21h05.57.211,empathy_intonation_perc,2024.2.4,MacIntel,60.24096386,60fcbf0aca44c1b1c5631970,687ed1b7e638a4cbf2f02089,6880354492bae85d4dbe1f28,,,,,,,,,,,,,13,1,,./stim/wavs/mexican_match_interrogative-total-yn_Ana-lleva-el-abrigo.wav,,,,,,,,,,,,,,,,,,,,,,396.7444,398.628,1,1,1.3636,,0,85,85,12,1,0,mexican,,,,,,,,,,,,,,,,,,,,,,,,,,,,,,,,,,,,,,,,,,,,,,,,,,,,,,,,
,,,,,,,,,60fcbf0aca44c1b1c5631970,colombian,13 or older,"no, only English or Spanish",no,2025-07-22_21h05.57.211,empathy_intonation_perc,2024.2.4,MacIntel,60.24096386,60fcbf0aca44c1b1c5631970,687ed1b7e638a4cbf2f02089,6880354492bae85d4dbe1f28,,,,,,,,,,,,,28,1,,./stim/wavs/castilian_mismatch_interrogative-total-yn_Mi-novio-viene-del-lago.wav,,,,,,,,,,,,,,,,,,,,,,398.6287,400.7435,1,1,1.587,,0,86,86,27,1,0,castilian,,,,,,,,,,,,,,,,,,,,,,,,,,,,,,,,,,,,,,,,,,,,,,,,,,,,,,,,
,,,,,,,,,60fcbf0aca44c1b1c5631970,colombian,13 or older,"no, only English or Spanish",no,2025-07-22_21h05.57.211,empathy_intonation_perc,2024.2.4,MacIntel,60.24096386,60fcbf0aca44c1b1c5631970,687ed1b7e638a4cbf2f02089,6880354492bae85d4dbe1f28,,,,,,,,,,,,,74,0,,./stim/wavs/cuban_mismatch_declarative-broad-focus_El-bebe-comia-muy-bien.wav,,,,,,,,,,,,,,,,,,,,,,400.7442,402.6265,0,1,1.369,,0,87,87,73,1,0,cuban,,,,,,,,,,,,,,,,,,,,,,,,,,,,,,,,,,,,,,,,,,,,,,,,,,,,,,,,
,,,,,,,"Great! Now we will move on. The next task consists of about 60 trials, in each of which you will see a string of letters. 
  
  Your task is to decide whether this is a real Spanish word or not.", (press the spacebar to continue),60fcbf0aca44c1b1c5631970,colombian,13 or older,"no, only English or Spanish",no,2025-07-22_21h05.57.211,empathy_intonation_perc,2024.2.4,MacIntel,60.24096386,60fcbf0aca44c1b1c5631970,687ed1b7e638a4cbf2f02089,6880354492bae85d4dbe1f28,,,,,,,,,,,,,,,,,,,,,,,,,,,,,,,,,,,,,,,,,,,,,,,,,,,402.6336,413.9463,0,0,0,0,1,,,,,,,,,,,,,,,,,,,,,,,,,,,,,,,,,,,,,,,,,,,,,,,,,
,,,,,,,"If you think it is an existing Spanish word, you type '1' (for 'REAL'), and if you think it is not an existing Spanish word, you type '0' (for 'FAKE').", (press the spacebar to continue),60fcbf0aca44c1b1c5631970,colombian,13 or older,"no, only English or Spanish",no,2025-07-22_21h05.57.211,empathy_intonation_perc,2024.2.4,MacIntel,60.24096386,60fcbf0aca44c1b1c5631970,687ed1b7e638a4cbf2f02089,6880354492bae85d4dbe1f28,,,,,,,,,,,,,,,,,,,,,,,,,,,,,,,,,,,,,,,,,,,,,,,,,,,413.9522,418.4438,0,1,1,1,1,,,,,,,,,,,,,,,,,,,,,,,,,,,,,,,,,,,,,,,,,,,,,,,,,
,,,,,,,"If you are sure that the word exists, even though you don’t know its exact meaning, you may still respond '1' (REAL). 
  
  But if you are not sure if it is an existing word, you should respond '0' (FAKE).
  
  Let's do a practice round...", (press the spacebar to continue),60fcbf0aca44c1b1c5631970,colombian,13 or older,"no, only English or Spanish",no,2025-07-22_21h05.57.211,empathy_intonation_perc,2024.2.4,MacIntel,60.24096386,60fcbf0aca44c1b1c5631970,687ed1b7e638a4cbf2f02089,6880354492bae85d4dbe1f28,,,,,,,,,,,,,,,,,,,,,,,,,,,,,,,,,,,,,,,,,,,,,,,,,,,418.4467,424.4439,0,2,2,2,1,,,,,,,,,,,,,,,,,,,,,,,,,,,,,,,,,,,,,,,,,,,,,,,,,
,,,,,,,,,60fcbf0aca44c1b1c5631970,colombian,13 or older,"no, only English or Spanish",no,2025-07-22_21h05.57.211,empathy_intonation_perc,2024.2.4,MacIntel,60.24096386,60fcbf0aca44c1b1c5631970,687ed1b7e638a4cbf2f02089,6880354492bae85d4dbe1f28,,,,,,,,,,,,,,0,,,,,,,,,,,,,,,,,,,,,,,,,,,,,,,,,,,,,,,,,,,,424.4559,427.8109,1,0,2.822,,427.8112,428.8108,0,0,0,0,1,0,depiste,REAL,FAKE,,,,,,,,,,,,,,,,,,,,,,,,,,,,,,,,
,,,,,,,,,60fcbf0aca44c1b1c5631970,colombian,13 or older,"no, only English or Spanish",no,2025-07-22_21h05.57.211,empathy_intonation_perc,2024.2.4,MacIntel,60.24096386,60fcbf0aca44c1b1c5631970,687ed1b7e638a4cbf2f02089,6880354492bae85d4dbe1f28,,,,,,,,,,,,,,1,,,,,,,,,,,,,,,,,,,,,,,,,,,,,,,,,,,,,,,,,,,,428.8137,430.9439,1,1,1.6024,,430.9449,431.9436,0,1,1,1,1,0,sí,REAL,FAKE,,,,,,,,,,,,,,,,,,,,,,,,,,,,,,,,
,,,,,,,,,60fcbf0aca44c1b1c5631970,colombian,13 or older,"no, only English or Spanish",no,2025-07-22_21h05.57.211,empathy_intonation_perc,2024.2.4,MacIntel,60.24096386,60fcbf0aca44c1b1c5631970,687ed1b7e638a4cbf2f02089,6880354492bae85d4dbe1f28,,,,,,,,,,,,,,0,,,,,,,,,,,,,,,,,,,,,,,,,,,,,,,,,,,,,,,,,,,,431.9452,433.7773,0,1,1.2941,,433.7775,434.7771,0,2,2,2,1,0,coné,REAL,FAKE,,,,,,,,,,,,,,,,,,,,,,,,,,,,,,,,
,,,,,,,,,60fcbf0aca44c1b1c5631970,colombian,13 or older,"no, only English or Spanish",no,2025-07-22_21h05.57.211,empathy_intonation_perc,2024.2.4,MacIntel,60.24096386,60fcbf0aca44c1b1c5631970,687ed1b7e638a4cbf2f02089,6880354492bae85d4dbe1f28,,,,,,,,,,,,,,0,,,,,,,,,,,,,,,,,,,,,,,,,,,,,,,,,,,,,,,,,,,,434.7789,436.5435,1,0,1.2356,,436.5442,437.5438,0,3,3,3,1,0,calpar,REAL,FAKE,,,,,,,,,,,,,,,,,,,,,,,,,,,,,,,,
,,,,,,,,,60fcbf0aca44c1b1c5631970,colombian,13 or older,"no, only English or Spanish",no,2025-07-22_21h05.57.211,empathy_intonation_perc,2024.2.4,MacIntel,60.24096386,60fcbf0aca44c1b1c5631970,687ed1b7e638a4cbf2f02089,6880354492bae85d4dbe1f28,,,,,,,,,,,,,,0,,,,,,,,,,,,,,,,,,,,,,,,,,,,,,,,,,,,,,,,,,,,437.5452,439.2603,0,1,1.1735,,439.261,440.2603,0,4,4,4,1,0,joten,REAL,FAKE,,,,,,,,,,,,,,,,,,,,,,,,,,,,,,,,
,,,,,,,,,60fcbf0aca44c1b1c5631970,colombian,13 or older,"no, only English or Spanish",no,2025-07-22_21h05.57.211,empathy_intonation_perc,2024.2.4,MacIntel,60.24096386,60fcbf0aca44c1b1c5631970,687ed1b7e638a4cbf2f02089,6880354492bae85d4dbe1f28,,,,,,,,,,,,,,1,,,,,,,,,,,,,,,,,,,,,,,,,,,,,,,,,,,,,,,,,,,,440.2616,442.3607,0,0,1.5626,,442.3615,443.3603,0,5,5,5,1,0,sacapuntas,REAL,FAKE,,,,,,,,,,,,,,,,,,,,,,,,,,,,,,,,
,,,,,,,,,60fcbf0aca44c1b1c5631970,colombian,13 or older,"no, only English or Spanish",no,2025-07-22_21h05.57.211,empathy_intonation_perc,2024.2.4,MacIntel,60.24096386,60fcbf0aca44c1b1c5631970,687ed1b7e638a4cbf2f02089,6880354492bae85d4dbe1f28,,,,,,,,,,,,,,0,,,,,,,,,,,,,,,,,,,,,,,,,,,,,,,,,,,,,,,,,,,,443.3645,445.1104,0,1,1.2228,,445.1111,446.1105,0,6,6,6,1,0,priba,REAL,FAKE,,,,,,,,,,,,,,,,,,,,,,,,,,,,,,,,
,,,,,,,,,60fcbf0aca44c1b1c5631970,colombian,13 or older,"no, only English or Spanish",no,2025-07-22_21h05.57.211,empathy_intonation_perc,2024.2.4,MacIntel,60.24096386,60fcbf0aca44c1b1c5631970,687ed1b7e638a4cbf2f02089,6880354492bae85d4dbe1f28,,,,,,,,,,,,,,0,,,,,,,,,,,,,,,,,,,,,,,,,,,,,,,,,,,,,,,,,,,,446.1122,448.0105,1,0,1.3627,,448.0112,449.0098,0,7,7,7,1,0,pelasula,REAL,FAKE,,,,,,,,,,,,,,,,,,,,,,,,,,,,,,,,
,,,,,,,,,60fcbf0aca44c1b1c5631970,colombian,13 or older,"no, only English or Spanish",no,2025-07-22_21h05.57.211,empathy_intonation_perc,2024.2.4,MacIntel,60.24096386,60fcbf0aca44c1b1c5631970,687ed1b7e638a4cbf2f02089,6880354492bae85d4dbe1f28,,,,,,,,,,,,,,1,,,,,,,,,,,,,,,,,,,,,,,,,,,,,,,,,,,,,,,,,,,,449.011,450.4927,1,1,0.9738,,450.4935,451.4929,0,8,8,8,1,0,bien,REAL,FAKE,,,,,,,,,,,,,,,,,,,,,,,,,,,,,,,,
,,,,,,,,,60fcbf0aca44c1b1c5631970,colombian,13 or older,"no, only English or Spanish",no,2025-07-22_21h05.57.211,empathy_intonation_perc,2024.2.4,MacIntel,60.24096386,60fcbf0aca44c1b1c5631970,687ed1b7e638a4cbf2f02089,6880354492bae85d4dbe1f28,,,,,,,,,,,,,,1,,,,,,,,,,,,,,,,,,,,,,,,,,,,,,,,,,,,,,,,,,,,451.4942,452.9928,1,1,0.9818,,452.9928,453.993,0,9,9,9,1,0,casa,REAL,FAKE,,,,,,,,,,,,,,,,,,,,,,,,,,,,,,,,
,,,,,,,,,60fcbf0aca44c1b1c5631970,colombian,13 or older,"no, only English or Spanish",no,2025-07-22_21h05.57.211,empathy_intonation_perc,2024.2.4,MacIntel,60.24096386,60fcbf0aca44c1b1c5631970,687ed1b7e638a4cbf2f02089,6880354492bae85d4dbe1f28,,,,,,,,,,,,,,0,,,,,,,,,,,,,,,,,,,,,,,,,,,,,,,,,,,,,,,,,,,,453.9943,455.6437,0,1,1.1145,,455.6437,456.6439,0,10,10,10,1,0,lejo,REAL,FAKE,,,,,,,,,,,,,,,,,,,,,,,,,,,,,,,,
,,,,,,,,,60fcbf0aca44c1b1c5631970,colombian,13 or older,"no, only English or Spanish",no,2025-07-22_21h05.57.211,empathy_intonation_perc,2024.2.4,MacIntel,60.24096386,60fcbf0aca44c1b1c5631970,687ed1b7e638a4cbf2f02089,6880354492bae85d4dbe1f28,,,,,,,,,,,,,,0,,,,,,,,,,,,,,,,,,,,,,,,,,,,,,,,,,,,,,,,,,,,456.645,458.4271,0,1,1.2572,,458.4272,459.4272,0,11,11,11,1,0,pretantas,REAL,FAKE,,,,,,,,,,,,,,,,,,,,,,,,,,,,,,,,
,,,,,,,,,60fcbf0aca44c1b1c5631970,colombian,13 or older,"no, only English or Spanish",no,2025-07-22_21h05.57.211,empathy_intonation_perc,2024.2.4,MacIntel,60.24096386,60fcbf0aca44c1b1c5631970,687ed1b7e638a4cbf2f02089,6880354492bae85d4dbe1f28,,,,,,,,,,,,,,,,,,,,,,,,,,,,,,,,,,,,,,,,,,,,,,,,,,,,,,,,,,,,,,,,,,,,,,,,,,,459.4277,460.4109,,,,,,,,,,,,,,,,,,,,,,,,,,,,,,
,,,,,,,,,60fcbf0aca44c1b1c5631970,colombian,13 or older,"no, only English or Spanish",no,2025-07-22_21h05.57.211,empathy_intonation_perc,2024.2.4,MacIntel,60.24096386,60fcbf0aca44c1b1c5631970,687ed1b7e638a4cbf2f02089,6880354492bae85d4dbe1f28,,,,,,,,,,,,,,1,,,,,,,,,,,,,,,,,,,,,,,,,,,,,,,,,,,,,,,,,,,,,,,,,,,,,,,,,55,nevar,,,,,460.4204,462.0277,0,0,1.079,,0,0,0,54,1,REAL,FAKE,,,,,,,,,,,,,,,,,
,,,,,,,,,60fcbf0aca44c1b1c5631970,colombian,13 or older,"no, only English or Spanish",no,2025-07-22_21h05.57.211,empathy_intonation_perc,2024.2.4,MacIntel,60.24096386,60fcbf0aca44c1b1c5631970,687ed1b7e638a4cbf2f02089,6880354492bae85d4dbe1f28,,,,,,,,,,,,,,1,,,,,,,,,,,,,,,,,,,,,,,,,,,,,,,,,,,,,,,,,,,,,,,,,,,,,,,,,77,tiburón,,,,,462.029,463.6269,0,0,1.0686,,0,1,1,76,1,REAL,FAKE,,,,,,,,,,,,,,,,,
,,,,,,,,,60fcbf0aca44c1b1c5631970,colombian,13 or older,"no, only English or Spanish",no,2025-07-22_21h05.57.211,empathy_intonation_perc,2024.2.4,MacIntel,60.24096386,60fcbf0aca44c1b1c5631970,687ed1b7e638a4cbf2f02089,6880354492bae85d4dbe1f28,,,,,,,,,,,,,,0,,,,,,,,,,,,,,,,,,,,,,,,,,,,,,,,,,,,,,,,,,,,,,,,,,,,,,,,,32,fatacidad,,,,,463.6277,465.5105,0,1,1.3553,,0,2,2,31,1,REAL,FAKE,,,,,,,,,,,,,,,,,
,,,,,,,,,60fcbf0aca44c1b1c5631970,colombian,13 or older,"no, only English or Spanish",no,2025-07-22_21h05.57.211,empathy_intonation_perc,2024.2.4,MacIntel,60.24096386,60fcbf0aca44c1b1c5631970,687ed1b7e638a4cbf2f02089,6880354492bae85d4dbe1f28,,,,,,,,,,,,,,1,,,,,,,,,,,,,,,,,,,,,,,,,,,,,,,,,,,,,,,,,,,,,,,,,,,,,,,,,85,laúd,,,,,465.5117,467.0439,0,0,1.0064,,0,3,3,84,1,REAL,FAKE,,,,,,,,,,,,,,,,,
,,,,,,,,,60fcbf0aca44c1b1c5631970,colombian,13 or older,"no, only English or Spanish",no,2025-07-22_21h05.57.211,empathy_intonation_perc,2024.2.4,MacIntel,60.24096386,60fcbf0aca44c1b1c5631970,687ed1b7e638a4cbf2f02089,6880354492bae85d4dbe1f28,,,,,,,,,,,,,,1,,,,,,,,,,,,,,,,,,,,,,,,,,,,,,,,,,,,,,,,,,,,,,,,,,,,,,,,,41,rebuscar,,,,,467.0447,468.8102,1,1,1.2403,,0,4,4,40,1,REAL,FAKE,,,,,,,,,,,,,,,,,
,,,,,,,,,60fcbf0aca44c1b1c5631970,colombian,13 or older,"no, only English or Spanish",no,2025-07-22_21h05.57.211,empathy_intonation_perc,2024.2.4,MacIntel,60.24096386,60fcbf0aca44c1b1c5631970,687ed1b7e638a4cbf2f02089,6880354492bae85d4dbe1f28,,,,,,,,,,,,,,0,,,,,,,,,,,,,,,,,,,,,,,,,,,,,,,,,,,,,,,,,,,,,,,,,,,,,,,,,79,tropaje,,,,,468.8112,470.8097,0,1,1.4663,,0,5,5,78,1,REAL,FAKE,,,,,,,,,,,,,,,,,
,,,,,,,,,60fcbf0aca44c1b1c5631970,colombian,13 or older,"no, only English or Spanish",no,2025-07-22_21h05.57.211,empathy_intonation_perc,2024.2.4,MacIntel,60.24096386,60fcbf0aca44c1b1c5631970,687ed1b7e638a4cbf2f02089,6880354492bae85d4dbe1f28,,,,,,,,,,,,,,1,,,,,,,,,,,,,,,,,,,,,,,,,,,,,,,,,,,,,,,,,,,,,,,,,,,,,,,,,88,acantilado,,,,,470.8108,472.1273,0,0,0.7987,,0,6,6,87,1,REAL,FAKE,,,,,,,,,,,,,,,,,
,,,,,,,,,60fcbf0aca44c1b1c5631970,colombian,13 or older,"no, only English or Spanish",no,2025-07-22_21h05.57.211,empathy_intonation_perc,2024.2.4,MacIntel,60.24096386,60fcbf0aca44c1b1c5631970,687ed1b7e638a4cbf2f02089,6880354492bae85d4dbe1f28,,,,,,,,,,,,,,1,,,,,,,,,,,,,,,,,,,,,,,,,,,,,,,,,,,,,,,,,,,,,,,,,,,,,,,,,86,barato,,,,,472.1281,473.2775,1,1,0.6184,,0,7,7,85,1,REAL,FAKE,,,,,,,,,,,,,,,,,
,,,,,,,,,60fcbf0aca44c1b1c5631970,colombian,13 or older,"no, only English or Spanish",no,2025-07-22_21h05.57.211,empathy_intonation_perc,2024.2.4,MacIntel,60.24096386,60fcbf0aca44c1b1c5631970,687ed1b7e638a4cbf2f02089,6880354492bae85d4dbe1f28,,,,,,,,,,,,,,1,,,,,,,,,,,,,,,,,,,,,,,,,,,,,,,,,,,,,,,,,,,,,,,,,,,,,,,,,62,flaco,,,,,473.2786,474.9272,1,1,1.1162,,0,8,8,61,1,REAL,FAKE,,,,,,,,,,,,,,,,,
,,,,,,,,,60fcbf0aca44c1b1c5631970,colombian,13 or older,"no, only English or Spanish",no,2025-07-22_21h05.57.211,empathy_intonation_perc,2024.2.4,MacIntel,60.24096386,60fcbf0aca44c1b1c5631970,687ed1b7e638a4cbf2f02089,6880354492bae85d4dbe1f28,,,,,,,,,,,,,,1,,,,,,,,,,,,,,,,,,,,,,,,,,,,,,,,,,,,,,,,,,,,,,,,,,,,,,,,,68,alegre,,,,,474.928,477.0439,1,1,1.5854,,0,9,9,67,1,REAL,FAKE,,,,,,,,,,,,,,,,,
,,,,,,,,,60fcbf0aca44c1b1c5631970,colombian,13 or older,"no, only English or Spanish",no,2025-07-22_21h05.57.211,empathy_intonation_perc,2024.2.4,MacIntel,60.24096386,60fcbf0aca44c1b1c5631970,687ed1b7e638a4cbf2f02089,6880354492bae85d4dbe1f28,,,,,,,,,,,,,,1,,,,,,,,,,,,,,,,,,,,,,,,,,,,,,,,,,,,,,,,,,,,,,,,,,,,,,,,,45,jilguero,,,,,477.045,478.2437,0,0,0.6706,,0,10,10,44,1,REAL,FAKE,,,,,,,,,,,,,,,,,
,,,,,,,,,60fcbf0aca44c1b1c5631970,colombian,13 or older,"no, only English or Spanish",no,2025-07-22_21h05.57.211,empathy_intonation_perc,2024.2.4,MacIntel,60.24096386,60fcbf0aca44c1b1c5631970,687ed1b7e638a4cbf2f02089,6880354492bae85d4dbe1f28,,,,,,,,,,,,,,1,,,,,,,,,,,,,,,,,,,,,,,,,,,,,,,,,,,,,,,,,,,,,,,,,,,,,,,,,9,hacha,,,,,478.2445,479.7107,1,1,0.933,,0,11,11,8,1,REAL,FAKE,,,,,,,,,,,,,,,,,
,,,,,,,,,60fcbf0aca44c1b1c5631970,colombian,13 or older,"no, only English or Spanish",no,2025-07-22_21h05.57.211,empathy_intonation_perc,2024.2.4,MacIntel,60.24096386,60fcbf0aca44c1b1c5631970,687ed1b7e638a4cbf2f02089,6880354492bae85d4dbe1f28,,,,,,,,,,,,,,0,,,,,,,,,,,,,,,,,,,,,,,,,,,,,,,,,,,,,,,,,,,,,,,,,,,,,,,,,23,lampera,,,,,479.712,481.1607,1,0,0.907,,0,12,12,22,1,REAL,FAKE,,,,,,,,,,,,,,,,,
,,,,,,,,,60fcbf0aca44c1b1c5631970,colombian,13 or older,"no, only English or Spanish",no,2025-07-22_21h05.57.211,empathy_intonation_perc,2024.2.4,MacIntel,60.24096386,60fcbf0aca44c1b1c5631970,687ed1b7e638a4cbf2f02089,6880354492bae85d4dbe1f28,,,,,,,,,,,,,,1,,,,,,,,,,,,,,,,,,,,,,,,,,,,,,,,,,,,,,,,,,,,,,,,,,,,,,,,,43,canela,,,,,481.1617,482.5275,1,1,0.8326,,0,13,13,42,1,REAL,FAKE,,,,,,,,,,,,,,,,,
,,,,,,,,,60fcbf0aca44c1b1c5631970,colombian,13 or older,"no, only English or Spanish",no,2025-07-22_21h05.57.211,empathy_intonation_perc,2024.2.4,MacIntel,60.24096386,60fcbf0aca44c1b1c5631970,687ed1b7e638a4cbf2f02089,6880354492bae85d4dbe1f28,,,,,,,,,,,,,,1,,,,,,,,,,,,,,,,,,,,,,,,,,,,,,,,,,,,,,,,,,,,,,,,,,,,,,,,,81,pozo,,,,,482.5289,483.9275,0,0,0.8636,,0,14,14,80,1,REAL,FAKE,,,,,,,,,,,,,,,,,
,,,,,,,,,60fcbf0aca44c1b1c5631970,colombian,13 or older,"no, only English or Spanish",no,2025-07-22_21h05.57.211,empathy_intonation_perc,2024.2.4,MacIntel,60.24096386,60fcbf0aca44c1b1c5631970,687ed1b7e638a4cbf2f02089,6880354492bae85d4dbe1f28,,,,,,,,,,,,,,1,,,,,,,,,,,,,,,,,,,,,,,,,,,,,,,,,,,,,,,,,,,,,,,,,,,,,,,,,12,asesinato,,,,,483.9287,485.8938,0,0,1.4284,,0,15,15,11,1,REAL,FAKE,,,,,,,,,,,,,,,,,
,,,,,,,,,60fcbf0aca44c1b1c5631970,colombian,13 or older,"no, only English or Spanish",no,2025-07-22_21h05.57.211,empathy_intonation_perc,2024.2.4,MacIntel,60.24096386,60fcbf0aca44c1b1c5631970,687ed1b7e638a4cbf2f02089,6880354492bae85d4dbe1f28,,,,,,,,,,,,,,0,,,,,,,,,,,,,,,,,,,,,,,,,,,,,,,,,,,,,,,,,,,,,,,,,,,,,,,,,72,pemición,,,,,485.8947,487.761,1,0,1.3328,,0,16,16,71,1,REAL,FAKE,,,,,,,,,,,,,,,,,
,,,,,,,,,60fcbf0aca44c1b1c5631970,colombian,13 or older,"no, only English or Spanish",no,2025-07-22_21h05.57.211,empathy_intonation_perc,2024.2.4,MacIntel,60.24096386,60fcbf0aca44c1b1c5631970,687ed1b7e638a4cbf2f02089,6880354492bae85d4dbe1f28,,,,,,,,,,,,,,1,,,,,,,,,,,,,,,,,,,,,,,,,,,,,,,,,,,,,,,,,,,,,,,,,,,,,,,,,25,bisagra,,,,,487.7622,488.9267,0,0,0.6408,,0,17,17,24,1,REAL,FAKE,,,,,,,,,,,,,,,,,
,,,,,,,,,60fcbf0aca44c1b1c5631970,colombian,13 or older,"no, only English or Spanish",no,2025-07-22_21h05.57.211,empathy_intonation_perc,2024.2.4,MacIntel,60.24096386,60fcbf0aca44c1b1c5631970,687ed1b7e638a4cbf2f02089,6880354492bae85d4dbe1f28,,,,,,,,,,,,,,1,,,,,,,,,,,,,,,,,,,,,,,,,,,,,,,,,,,,,,,,,,,,,,,,,,,,,,,,,83,guante,,,,,488.9278,490.294,0,0,0.8576,,0,18,18,82,1,REAL,FAKE,,,,,,,,,,,,,,,,,
,,,,,,,,,60fcbf0aca44c1b1c5631970,colombian,13 or older,"no, only English or Spanish",no,2025-07-22_21h05.57.211,empathy_intonation_perc,2024.2.4,MacIntel,60.24096386,60fcbf0aca44c1b1c5631970,687ed1b7e638a4cbf2f02089,6880354492bae85d4dbe1f28,,,,,,,,,,,,,,0,,,,,,,,,,,,,,,,,,,,,,,,,,,,,,,,,,,,,,,,,,,,,,,,,,,,,,,,,84,escuto,,,,,490.295,491.4931,0,1,0.6655,,0,19,19,83,1,REAL,FAKE,,,,,,,,,,,,,,,,,
,,,,,,,,,60fcbf0aca44c1b1c5631970,colombian,13 or older,"no, only English or Spanish",no,2025-07-22_21h05.57.211,empathy_intonation_perc,2024.2.4,MacIntel,60.24096386,60fcbf0aca44c1b1c5631970,687ed1b7e638a4cbf2f02089,6880354492bae85d4dbe1f28,,,,,,,,,,,,,,1,,,,,,,,,,,,,,,,,,,,,,,,,,,,,,,,,,,,,,,,,,,,,,,,,,,,,,,,,89,prisa,,,,,491.494,492.5607,1,1,0.5574,,0,20,20,88,1,REAL,FAKE,,,,,,,,,,,,,,,,,
,,,,,,,,,60fcbf0aca44c1b1c5631970,colombian,13 or older,"no, only English or Spanish",no,2025-07-22_21h05.57.211,empathy_intonation_perc,2024.2.4,MacIntel,60.24096386,60fcbf0aca44c1b1c5631970,687ed1b7e638a4cbf2f02089,6880354492bae85d4dbe1f28,,,,,,,,,,,,,,0,,,,,,,,,,,,,,,,,,,,,,,,,,,,,,,,,,,,,,,,,,,,,,,,,,,,,,,,,18,arsa,,,,,492.5618,493.8098,0,1,0.7109,,0,21,21,17,1,REAL,FAKE,,,,,,,,,,,,,,,,,
,,,,,,,,,60fcbf0aca44c1b1c5631970,colombian,13 or older,"no, only English or Spanish",no,2025-07-22_21h05.57.211,empathy_intonation_perc,2024.2.4,MacIntel,60.24096386,60fcbf0aca44c1b1c5631970,687ed1b7e638a4cbf2f02089,6880354492bae85d4dbe1f28,,,,,,,,,,,,,,1,,,,,,,,,,,,,,,,,,,,,,,,,,,,,,,,,,,,,,,,,,,,,,,,,,,,,,,,,65,bizcocho,,,,,493.8107,494.8943,0,0,0.5606,,0,22,22,64,1,REAL,FAKE,,,,,,,,,,,,,,,,,
,,,,,,,,,60fcbf0aca44c1b1c5631970,colombian,13 or older,"no, only English or Spanish",no,2025-07-22_21h05.57.211,empathy_intonation_perc,2024.2.4,MacIntel,60.24096386,60fcbf0aca44c1b1c5631970,687ed1b7e638a4cbf2f02089,6880354492bae85d4dbe1f28,,,,,,,,,,,,,,1,,,,,,,,,,,,,,,,,,,,,,,,,,,,,,,,,,,,,,,,,,,,,,,,,,,,,,,,,11,cenefa,,,,,494.8953,496.0274,0,0,0.6065,,0,23,23,10,1,REAL,FAKE,,,,,,,,,,,,,,,,,
,,,,,,,,,60fcbf0aca44c1b1c5631970,colombian,13 or older,"no, only English or Spanish",no,2025-07-22_21h05.57.211,empathy_intonation_perc,2024.2.4,MacIntel,60.24096386,60fcbf0aca44c1b1c5631970,687ed1b7e638a4cbf2f02089,6880354492bae85d4dbe1f28,,,,,,,,,,,,,,0,,,,,,,,,,,,,,,,,,,,,,,,,,,,,,,,,,,,,,,,,,,,,,,,,,,,,,,,,63,esposante,,,,,496.0286,497.6942,0,1,1.1307,,0,24,24,62,1,REAL,FAKE,,,,,,,,,,,,,,,,,
,,,,,,,,,60fcbf0aca44c1b1c5631970,colombian,13 or older,"no, only English or Spanish",no,2025-07-22_21h05.57.211,empathy_intonation_perc,2024.2.4,MacIntel,60.24096386,60fcbf0aca44c1b1c5631970,687ed1b7e638a4cbf2f02089,6880354492bae85d4dbe1f28,,,,,,,,,,,,,,1,,,,,,,,,,,,,,,,,,,,,,,,,,,,,,,,,,,,,,,,,,,,,,,,,,,,,,,,,52,camisa,,,,,497.6951,498.9442,1,1,0.7109,,0,25,25,51,1,REAL,FAKE,,,,,,,,,,,,,,,,,
,,,,,,,,,60fcbf0aca44c1b1c5631970,colombian,13 or older,"no, only English or Spanish",no,2025-07-22_21h05.57.211,empathy_intonation_perc,2024.2.4,MacIntel,60.24096386,60fcbf0aca44c1b1c5631970,687ed1b7e638a4cbf2f02089,6880354492bae85d4dbe1f28,,,,,,,,,,,,,,0,,,,,,,,,,,,,,,,,,,,,,,,,,,,,,,,,,,,,,,,,,,,,,,,,,,,,,,,,87,grodo,,,,,498.9452,500.044,0,1,0.5603,,0,26,26,86,1,REAL,FAKE,,,,,,,,,,,,,,,,,
,,,,,,,,,60fcbf0aca44c1b1c5631970,colombian,13 or older,"no, only English or Spanish",no,2025-07-22_21h05.57.211,empathy_intonation_perc,2024.2.4,MacIntel,60.24096386,60fcbf0aca44c1b1c5631970,687ed1b7e638a4cbf2f02089,6880354492bae85d4dbe1f28,,,,,,,,,,,,,,0,,,,,,,,,,,,,,,,,,,,,,,,,,,,,,,,,,,,,,,,,,,,,,,,,,,,,,,,,50,flamida,,,,,500.045,501.2935,0,1,0.7175,,0,27,27,49,1,REAL,FAKE,,,,,,,,,,,,,,,,,
,,,,,,,,,60fcbf0aca44c1b1c5631970,colombian,13 or older,"no, only English or Spanish",no,2025-07-22_21h05.57.211,empathy_intonation_perc,2024.2.4,MacIntel,60.24096386,60fcbf0aca44c1b1c5631970,687ed1b7e638a4cbf2f02089,6880354492bae85d4dbe1f28,,,,,,,,,,,,,,1,,,,,,,,,,,,,,,,,,,,,,,,,,,,,,,,,,,,,,,,,,,,,,,,,,,,,,,,,56,musgo,,,,,501.2945,502.3763,0,0,0.564,,0,28,28,55,1,REAL,FAKE,,,,,,,,,,,,,,,,,
,,,,,,,,,60fcbf0aca44c1b1c5631970,colombian,13 or older,"no, only English or Spanish",no,2025-07-22_21h05.57.211,empathy_intonation_perc,2024.2.4,MacIntel,60.24096386,60fcbf0aca44c1b1c5631970,687ed1b7e638a4cbf2f02089,6880354492bae85d4dbe1f28,,,,,,,,,,,,,,1,,,,,,,,,,,,,,,,,,,,,,,,,,,,,,,,,,,,,,,,,,,,,,,,,,,,,,,,,44,cuchara,,,,,502.3772,503.343,0,0,0.4506,,0,29,29,43,1,REAL,FAKE,,,,,,,,,,,,,,,,,
,,,,,,,,,60fcbf0aca44c1b1c5631970,colombian,13 or older,"no, only English or Spanish",no,2025-07-22_21h05.57.211,empathy_intonation_perc,2024.2.4,MacIntel,60.24096386,60fcbf0aca44c1b1c5631970,687ed1b7e638a4cbf2f02089,6880354492bae85d4dbe1f28,,,,,,,,,,,,,,0,,,,,,,,,,,,,,,,,,,,,,,,,,,,,,,,,,,,,,,,,,,,,,,,,,,,,,,,,47,cartinar,,,,,503.3438,504.5277,1,0,0.662,,0,30,30,46,1,REAL,FAKE,,,,,,,,,,,,,,,,,
,,,,,,,,,60fcbf0aca44c1b1c5631970,colombian,13 or older,"no, only English or Spanish",no,2025-07-22_21h05.57.211,empathy_intonation_perc,2024.2.4,MacIntel,60.24096386,60fcbf0aca44c1b1c5631970,687ed1b7e638a4cbf2f02089,6880354492bae85d4dbe1f28,,,,,,,,,,,,,,0,,,,,,,,,,,,,,,,,,,,,,,,,,,,,,,,,,,,,,,,,,,,,,,,,,,,,,,,,19,brecedad,,,,,504.5286,505.5443,0,1,0.4843,,0,31,31,18,1,REAL,FAKE,,,,,,,,,,,,,,,,,
,,,,,,,,,60fcbf0aca44c1b1c5631970,colombian,13 or older,"no, only English or Spanish",no,2025-07-22_21h05.57.211,empathy_intonation_perc,2024.2.4,MacIntel,60.24096386,60fcbf0aca44c1b1c5631970,687ed1b7e638a4cbf2f02089,6880354492bae85d4dbe1f28,,,,,,,,,,,,,,1,,,,,,,,,,,,,,,,,,,,,,,,,,,,,,,,,,,,,,,,,,,,,,,,,,,,,,,,,34,aviso,,,,,505.5457,506.9274,1,1,0.8579,,0,32,32,33,1,REAL,FAKE,,,,,,,,,,,,,,,,,
,,,,,,,,,60fcbf0aca44c1b1c5631970,colombian,13 or older,"no, only English or Spanish",no,2025-07-22_21h05.57.211,empathy_intonation_perc,2024.2.4,MacIntel,60.24096386,60fcbf0aca44c1b1c5631970,687ed1b7e638a4cbf2f02089,6880354492bae85d4dbe1f28,,,,,,,,,,,,,,0,,,,,,,,,,,,,,,,,,,,,,,,,,,,,,,,,,,,,,,,,,,,,,,,,,,,,,,,,53,vegada,,,,,506.9284,508.061,0,1,0.5953,,0,33,33,52,1,REAL,FAKE,,,,,,,,,,,,,,,,,
,,,,,,,,,60fcbf0aca44c1b1c5631970,colombian,13 or older,"no, only English or Spanish",no,2025-07-22_21h05.57.211,empathy_intonation_perc,2024.2.4,MacIntel,60.24096386,60fcbf0aca44c1b1c5631970,687ed1b7e638a4cbf2f02089,6880354492bae85d4dbe1f28,,,,,,,,,,,,,,0,,,,,,,,,,,,,,,,,,,,,,,,,,,,,,,,,,,,,,,,,,,,,,,,,,,,,,,,,66,hacido,,,,,508.0622,509.3266,0,1,0.7269,,0,34,34,65,1,REAL,FAKE,,,,,,,,,,,,,,,,,
,,,,,,,,,60fcbf0aca44c1b1c5631970,colombian,13 or older,"no, only English or Spanish",no,2025-07-22_21h05.57.211,empathy_intonation_perc,2024.2.4,MacIntel,60.24096386,60fcbf0aca44c1b1c5631970,687ed1b7e638a4cbf2f02089,6880354492bae85d4dbe1f28,,,,,,,,,,,,,,1,,,,,,,,,,,,,,,,,,,,,,,,,,,,,,,,,,,,,,,,,,,,,,,,,,,,,,,,,59,besar,,,,,509.3276,510.5934,1,1,0.7465,,0,35,35,58,1,REAL,FAKE,,,,,,,,,,,,,,,,,
,,,,,,,,,60fcbf0aca44c1b1c5631970,colombian,13 or older,"no, only English or Spanish",no,2025-07-22_21h05.57.211,empathy_intonation_perc,2024.2.4,MacIntel,60.24096386,60fcbf0aca44c1b1c5631970,687ed1b7e638a4cbf2f02089,6880354492bae85d4dbe1f28,,,,,,,,,,,,,,1,,,,,,,,,,,,,,,,,,,,,,,,,,,,,,,,,,,,,,,,,,,,,,,,,,,,,,,,,46,martillo,,,,,510.5945,512.2609,1,1,1.1309,,0,36,36,45,1,REAL,FAKE,,,,,,,,,,,,,,,,,
,,,,,,,,,60fcbf0aca44c1b1c5631970,colombian,13 or older,"no, only English or Spanish",no,2025-07-22_21h05.57.211,empathy_intonation_perc,2024.2.4,MacIntel,60.24096386,60fcbf0aca44c1b1c5631970,687ed1b7e638a4cbf2f02089,6880354492bae85d4dbe1f28,,,,,,,,,,,,,,1,,,,,,,,,,,,,,,,,,,,,,,,,,,,,,,,,,,,,,,,,,,,,,,,,,,,,,,,,48,ladrón,,,,,512.2619,513.2956,0,0,0.4969,,0,37,37,47,1,REAL,FAKE,,,,,,,,,,,,,,,,,
,,,,,,,,,60fcbf0aca44c1b1c5631970,colombian,13 or older,"no, only English or Spanish",no,2025-07-22_21h05.57.211,empathy_intonation_perc,2024.2.4,MacIntel,60.24096386,60fcbf0aca44c1b1c5631970,687ed1b7e638a4cbf2f02089,6880354492bae85d4dbe1f28,,,,,,,,,,,,,,0,,,,,,,,,,,,,,,,,,,,,,,,,,,,,,,,,,,,,,,,,,,,,,,,,,,,,,,,,1,terzo,,,,,513.2965,514.7277,0,1,0.8926,,0,38,38,0,1,REAL,FAKE,,,,,,,,,,,,,,,,,
,,,,,,,,,60fcbf0aca44c1b1c5631970,colombian,13 or older,"no, only English or Spanish",no,2025-07-22_21h05.57.211,empathy_intonation_perc,2024.2.4,MacIntel,60.24096386,60fcbf0aca44c1b1c5631970,687ed1b7e638a4cbf2f02089,6880354492bae85d4dbe1f28,,,,,,,,,,,,,,1,,,,,,,,,,,,,,,,,,,,,,,,,,,,,,,,,,,,,,,,,,,,,,,,,,,,,,,,,2,pellizcar,,,,,514.7287,516.2939,1,1,1.0401,,0,39,39,1,1,REAL,FAKE,,,,,,,,,,,,,,,,,
,,,,,,,,,60fcbf0aca44c1b1c5631970,colombian,13 or older,"no, only English or Spanish",no,2025-07-22_21h05.57.211,empathy_intonation_perc,2024.2.4,MacIntel,60.24096386,60fcbf0aca44c1b1c5631970,687ed1b7e638a4cbf2f02089,6880354492bae85d4dbe1f28,,,,,,,,,,,,,,1,,,,,,,,,,,,,,,,,,,,,,,,,,,,,,,,,,,,,,,,,,,,,,,,,,,,,,,,,69,engatusar,,,,,516.2949,517.7276,0,0,0.9066,,0,40,40,68,1,REAL,FAKE,,,,,,,,,,,,,,,,,
,,,,,,,,,60fcbf0aca44c1b1c5631970,colombian,13 or older,"no, only English or Spanish",no,2025-07-22_21h05.57.211,empathy_intonation_perc,2024.2.4,MacIntel,60.24096386,60fcbf0aca44c1b1c5631970,687ed1b7e638a4cbf2f02089,6880354492bae85d4dbe1f28,,,,,,,,,,,,,,0,,,,,,,,,,,,,,,,,,,,,,,,,,,,,,,,,,,,,,,,,,,,,,,,,,,,,,,,,21,capillo,,,,,517.7286,518.9601,0,1,0.6954,,0,41,41,20,1,REAL,FAKE,,,,,,,,,,,,,,,,,
,,,,,,,,,60fcbf0aca44c1b1c5631970,colombian,13 or older,"no, only English or Spanish",no,2025-07-22_21h05.57.211,empathy_intonation_perc,2024.2.4,MacIntel,60.24096386,60fcbf0aca44c1b1c5631970,687ed1b7e638a4cbf2f02089,6880354492bae85d4dbe1f28,,,,,,,,,,,,,,1,,,,,,,,,,,,,,,,,,,,,,,,,,,,,,,,,,,,,,,,,,,,,,,,,,,,,,,,,40,alfombra,,,,,518.9611,520.1776,0,0,0.6902,,0,42,42,39,1,REAL,FAKE,,,,,,,,,,,,,,,,,
,,,,,,,,,60fcbf0aca44c1b1c5631970,colombian,13 or older,"no, only English or Spanish",no,2025-07-22_21h05.57.211,empathy_intonation_perc,2024.2.4,MacIntel,60.24096386,60fcbf0aca44c1b1c5631970,687ed1b7e638a4cbf2f02089,6880354492bae85d4dbe1f28,,,,,,,,,,,,,,1,,,,,,,,,,,,,,,,,,,,,,,,,,,,,,,,,,,,,,,,,,,,,,,,,,,,,,,,,54,fomentar,,,,,520.1788,521.4435,0,0,0.7411,,0,43,43,53,1,REAL,FAKE,,,,,,,,,,,,,,,,,
,,,,,,,,,60fcbf0aca44c1b1c5631970,colombian,13 or older,"no, only English or Spanish",no,2025-07-22_21h05.57.211,empathy_intonation_perc,2024.2.4,MacIntel,60.24096386,60fcbf0aca44c1b1c5631970,687ed1b7e638a4cbf2f02089,6880354492bae85d4dbe1f28,,,,,,,,,,,,,,1,,,,,,,,,,,,,,,,,,,,,,,,,,,,,,,,,,,,,,,,,,,,,,,,,,,,,,,,,73,hervidor,,,,,521.4446,522.6278,0,0,0.6729,,0,44,44,72,1,REAL,FAKE,,,,,,,,,,,,,,,,,
,,,,,,,,,60fcbf0aca44c1b1c5631970,colombian,13 or older,"no, only English or Spanish",no,2025-07-22_21h05.57.211,empathy_intonation_perc,2024.2.4,MacIntel,60.24096386,60fcbf0aca44c1b1c5631970,687ed1b7e638a4cbf2f02089,6880354492bae85d4dbe1f28,,,,,,,,,,,,,,1,,,,,,,,,,,,,,,,,,,,,,,,,,,,,,,,,,,,,,,,,,,,,,,,,,,,,,,,,60,matar,,,,,522.6287,523.7441,1,1,0.5784,,0,45,45,59,1,REAL,FAKE,,,,,,,,,,,,,,,,,
,,,,,,,,,60fcbf0aca44c1b1c5631970,colombian,13 or older,"no, only English or Spanish",no,2025-07-22_21h05.57.211,empathy_intonation_perc,2024.2.4,MacIntel,60.24096386,60fcbf0aca44c1b1c5631970,687ed1b7e638a4cbf2f02089,6880354492bae85d4dbe1f28,,,,,,,,,,,,,,1,,,,,,,,,,,,,,,,,,,,,,,,,,,,,,,,,,,,,,,,,,,,,,,,,,,,,,,,,36,loro,,,,,523.7452,525.311,1,1,1.0303,,0,46,46,35,1,REAL,FAKE,,,,,,,,,,,,,,,,,
,,,,,,,,,60fcbf0aca44c1b1c5631970,colombian,13 or older,"no, only English or Spanish",no,2025-07-22_21h05.57.211,empathy_intonation_perc,2024.2.4,MacIntel,60.24096386,60fcbf0aca44c1b1c5631970,687ed1b7e638a4cbf2f02089,6880354492bae85d4dbe1f28,,,,,,,,,,,,,,1,,,,,,,,,,,,,,,,,,,,,,,,,,,,,,,,,,,,,,,,,,,,,,,,,,,,,,,,,78,frondoso,,,,,525.3123,526.361,0,0,0.5246,,0,47,47,77,1,REAL,FAKE,,,,,,,,,,,,,,,,,
,,,,,,,,,60fcbf0aca44c1b1c5631970,colombian,13 or older,"no, only English or Spanish",no,2025-07-22_21h05.57.211,empathy_intonation_perc,2024.2.4,MacIntel,60.24096386,60fcbf0aca44c1b1c5631970,687ed1b7e638a4cbf2f02089,6880354492bae85d4dbe1f28,,,,,,,,,,,,,,1,,,,,,,,,,,,,,,,,,,,,,,,,,,,,,,,,,,,,,,,,,,,,,,,,,,,,,,,,80,hormiga,,,,,526.3621,527.5613,0,0,0.6674,,0,48,48,79,1,REAL,FAKE,,,,,,,,,,,,,,,,,
,,,,,,,,,60fcbf0aca44c1b1c5631970,colombian,13 or older,"no, only English or Spanish",no,2025-07-22_21h05.57.211,empathy_intonation_perc,2024.2.4,MacIntel,60.24096386,60fcbf0aca44c1b1c5631970,687ed1b7e638a4cbf2f02089,6880354492bae85d4dbe1f28,,,,,,,,,,,,,,0,,,,,,,,,,,,,,,,,,,,,,,,,,,,,,,,,,,,,,,,,,,,,,,,,,,,,,,,,92,click the 0 key.,,,,,527.5632,529.4438,0,1,1.337,,0,49,49,91,1,REAL,FAKE,,,,,,,,,,,,,,,,,
,,,,,,,,,60fcbf0aca44c1b1c5631970,colombian,13 or older,"no, only English or Spanish",no,2025-07-22_21h05.57.211,empathy_intonation_perc,2024.2.4,MacIntel,60.24096386,60fcbf0aca44c1b1c5631970,687ed1b7e638a4cbf2f02089,6880354492bae85d4dbe1f28,,,,,,,,,,,,,,1,,,,,,,,,,,,,,,,,,,,,,,,,,,,,,,,,,,,,,,,,,,,,,,,,,,,,,,,,64,orgulloso,,,,,529.4447,531.0783,1,1,1.1064,,0,50,50,63,1,REAL,FAKE,,,,,,,,,,,,,,,,,
,,,,,,,,,60fcbf0aca44c1b1c5631970,colombian,13 or older,"no, only English or Spanish",no,2025-07-22_21h05.57.211,empathy_intonation_perc,2024.2.4,MacIntel,60.24096386,60fcbf0aca44c1b1c5631970,687ed1b7e638a4cbf2f02089,6880354492bae85d4dbe1f28,,,,,,,,,,,,,,1,,,,,,,,,,,,,,,,,,,,,,,,,,,,,,,,,,,,,,,,,,,,,,,,,,,,,,,,,71,polvoriento,,,,,531.0792,532.4612,0,0,0.8459,,0,51,51,70,1,REAL,FAKE,,,,,,,,,,,,,,,,,
,,,,,,,,,60fcbf0aca44c1b1c5631970,colombian,13 or older,"no, only English or Spanish",no,2025-07-22_21h05.57.211,empathy_intonation_perc,2024.2.4,MacIntel,60.24096386,60fcbf0aca44c1b1c5631970,687ed1b7e638a4cbf2f02089,6880354492bae85d4dbe1f28,,,,,,,,,,,,,,1,,,,,,,,,,,,,,,,,,,,,,,,,,,,,,,,,,,,,,,,,,,,,,,,,,,,,,,,,51,candado,,,,,532.4623,534.161,0,0,1.1638,,0,52,52,50,1,REAL,FAKE,,,,,,,,,,,,,,,,,
,,,,,,,,,60fcbf0aca44c1b1c5631970,colombian,13 or older,"no, only English or Spanish",no,2025-07-22_21h05.57.211,empathy_intonation_perc,2024.2.4,MacIntel,60.24096386,60fcbf0aca44c1b1c5631970,687ed1b7e638a4cbf2f02089,6880354492bae85d4dbe1f28,,,,,,,,,,,,,,1,,,,,,,,,,,,,,,,,,,,,,,,,,,,,,,,,,,,,,,,,,,,,,,,,,,,,,,,,49,ganar,,,,,534.162,535.3942,0,0,0.6937,,0,53,53,48,1,REAL,FAKE,,,,,,,,,,,,,,,,,
,,,,,,,,,60fcbf0aca44c1b1c5631970,colombian,13 or older,"no, only English or Spanish",no,2025-07-22_21h05.57.211,empathy_intonation_perc,2024.2.4,MacIntel,60.24096386,60fcbf0aca44c1b1c5631970,687ed1b7e638a4cbf2f02089,6880354492bae85d4dbe1f28,,,,,,,,,,,,,,1,,,,,,,,,,,,,,,,,,,,,,,,,,,,,,,,,,,,,,,,,,,,,,,,,,,,,,,,,38,estornudar,,,,,535.3951,536.8946,0,0,0.9629,,0,54,54,37,1,REAL,FAKE,,,,,,,,,,,,,,,,,
,,,,,,,,,60fcbf0aca44c1b1c5631970,colombian,13 or older,"no, only English or Spanish",no,2025-07-22_21h05.57.211,empathy_intonation_perc,2024.2.4,MacIntel,60.24096386,60fcbf0aca44c1b1c5631970,687ed1b7e638a4cbf2f02089,6880354492bae85d4dbe1f28,,,,,,,,,,,,,,0,,,,,,,,,,,,,,,,,,,,,,,,,,,,,,,,,,,,,,,,,,,,,,,,,,,,,,,,,10,antar,,,,,536.8956,538.128,1,0,0.6943,,0,55,55,9,1,REAL,FAKE,,,,,,,,,,,,,,,,,
,,,,,,,,,60fcbf0aca44c1b1c5631970,colombian,13 or older,"no, only English or Spanish",no,2025-07-22_21h05.57.211,empathy_intonation_perc,2024.2.4,MacIntel,60.24096386,60fcbf0aca44c1b1c5631970,687ed1b7e638a4cbf2f02089,6880354492bae85d4dbe1f28,,,,,,,,,,,,,,1,,,,,,,,,,,,,,,,,,,,,,,,,,,,,,,,,,,,,,,,,,,,,,,,,,,,,,,,,67,cabello,,,,,538.129,539.6111,1,1,0.9556,,0,56,56,66,1,REAL,FAKE,,,,,,,,,,,,,,,,,
,,,,,,,,,60fcbf0aca44c1b1c5631970,colombian,13 or older,"no, only English or Spanish",no,2025-07-22_21h05.57.211,empathy_intonation_perc,2024.2.4,MacIntel,60.24096386,60fcbf0aca44c1b1c5631970,687ed1b7e638a4cbf2f02089,6880354492bae85d4dbe1f28,,,,,,,,,,,,,,1,,,,,,,,,,,,,,,,,,,,,,,,,,,,,,,,,,,,,,,,,,,,,,,,,,,,,,,,,7,pésimo,,,,,539.6123,541.6443,1,1,1.4964,,0,57,57,6,1,REAL,FAKE,,,,,,,,,,,,,,,,,
,,,,,,,,,60fcbf0aca44c1b1c5631970,colombian,13 or older,"no, only English or Spanish",no,2025-07-22_21h05.57.211,empathy_intonation_perc,2024.2.4,MacIntel,60.24096386,60fcbf0aca44c1b1c5631970,687ed1b7e638a4cbf2f02089,6880354492bae85d4dbe1f28,,,,,,,,,,,,,,1,,,,,,,,,,,,,,,,,,,,,,,,,,,,,,,,,,,,,,,,,,,,,,,,,,,,,,,,,22,lacayo,,,,,541.6456,542.7278,0,0,0.5558,,0,58,58,21,1,REAL,FAKE,,,,,,,,,,,,,,,,,
,,,,,,,,,60fcbf0aca44c1b1c5631970,colombian,13 or older,"no, only English or Spanish",no,2025-07-22_21h05.57.211,empathy_intonation_perc,2024.2.4,MacIntel,60.24096386,60fcbf0aca44c1b1c5631970,687ed1b7e638a4cbf2f02089,6880354492bae85d4dbe1f28,,,,,,,,,,,,,,0,,,,,,,,,,,,,,,,,,,,,,,,,,,,,,,,,,,,,,,,,,,,,,,,,,,,,,,,,42,cadallo,,,,,542.7288,543.8112,0,1,0.5477,,0,59,59,41,1,REAL,FAKE,,,,,,,,,,,,,,,,,
,,,,,,,,,60fcbf0aca44c1b1c5631970,colombian,13 or older,"no, only English or Spanish",no,2025-07-22_21h05.57.211,empathy_intonation_perc,2024.2.4,MacIntel,60.24096386,60fcbf0aca44c1b1c5631970,687ed1b7e638a4cbf2f02089,6880354492bae85d4dbe1f28,,,,,,,,,,,,,,1,,,,,,,,,,,,,,,,,,,,,,,,,,,,,,,,,,,,,,,,,,,,,,,,,,,,,,,,,37,granuja,,,,,543.8121,545.761,0,0,1.4219,,0,60,60,36,1,REAL,FAKE,,,,,,,,,,,,,,,,,
,,,,,,,,,60fcbf0aca44c1b1c5631970,colombian,13 or older,"no, only English or Spanish",no,2025-07-22_21h05.57.211,empathy_intonation_perc,2024.2.4,MacIntel,60.24096386,60fcbf0aca44c1b1c5631970,687ed1b7e638a4cbf2f02089,6880354492bae85d4dbe1f28,,,,,,,,,,,,,,1,,,,,,,,,,,,,,,,,,,,,,,,,,,,,,,,,,,,,,,,,,,,,,,,,,,,,,,,,28,merodear,,,,,545.7616,547.1443,0,0,0.8567,,0,61,61,27,1,REAL,FAKE,,,,,,,,,,,,,,,,,
,,,,,,,,,60fcbf0aca44c1b1c5631970,colombian,13 or older,"no, only English or Spanish",no,2025-07-22_21h05.57.211,empathy_intonation_perc,2024.2.4,MacIntel,60.24096386,60fcbf0aca44c1b1c5631970,687ed1b7e638a4cbf2f02089,6880354492bae85d4dbe1f28,,,,,,,,,,,,,,1,,,,,,,,,,,,,,,,,,,,,,,,,,,,,,,,,,,,,,,,,,,,,,,,,,,,,,,,,5,zapato,,,,,547.1452,548.4446,1,1,0.7743,,0,62,62,4,1,REAL,FAKE,,,,,,,,,,,,,,,,,
,,,,,,,,,60fcbf0aca44c1b1c5631970,colombian,13 or older,"no, only English or Spanish",no,2025-07-22_21h05.57.211,empathy_intonation_perc,2024.2.4,MacIntel,60.24096386,60fcbf0aca44c1b1c5631970,687ed1b7e638a4cbf2f02089,6880354492bae85d4dbe1f28,,,,,,,,,,,,,,0,,,,,,,,,,,,,,,,,,,,,,,,,,,,,,,,,,,,,,,,,,,,,,,,,,,,,,,,,17,floroso,,,,,548.4457,549.678,0,1,0.707,,0,63,63,16,1,REAL,FAKE,,,,,,,,,,,,,,,,,
,,,,,,,,,60fcbf0aca44c1b1c5631970,colombian,13 or older,"no, only English or Spanish",no,2025-07-22_21h05.57.211,empathy_intonation_perc,2024.2.4,MacIntel,60.24096386,60fcbf0aca44c1b1c5631970,687ed1b7e638a4cbf2f02089,6880354492bae85d4dbe1f28,,,,,,,,,,,,,,0,,,,,,,,,,,,,,,,,,,,,,,,,,,,,,,,,,,,,,,,,,,,,,,,,,,,,,,,,16,abracer,,,,,549.6791,551.8114,1,0,1.5948,,0,64,64,15,1,REAL,FAKE,,,,,,,,,,,,,,,,,
,,,,,,,,,60fcbf0aca44c1b1c5631970,colombian,13 or older,"no, only English or Spanish",no,2025-07-22_21h05.57.211,empathy_intonation_perc,2024.2.4,MacIntel,60.24096386,60fcbf0aca44c1b1c5631970,687ed1b7e638a4cbf2f02089,6880354492bae85d4dbe1f28,,,,,,,,,,,,,,1,,,,,,,,,,,,,,,,,,,,,,,,,,,,,,,,,,,,,,,,,,,,,,,,,,,,,,,,,91,click the 1 key.,,,,,551.8126,553.3777,1,1,1.0213,,0,65,65,90,1,REAL,FAKE,,,,,,,,,,,,,,,,,
,,,,,,,,,60fcbf0aca44c1b1c5631970,colombian,13 or older,"no, only English or Spanish",no,2025-07-22_21h05.57.211,empathy_intonation_perc,2024.2.4,MacIntel,60.24096386,60fcbf0aca44c1b1c5631970,687ed1b7e638a4cbf2f02089,6880354492bae85d4dbe1f28,,,,,,,,,,,,,,0,,,,,,,,,,,,,,,,,,,,,,,,,,,,,,,,,,,,,,,,,,,,,,,,,,,,,,,,,4,batillón,,,,,553.3782,555.578,0,1,1.6613,,0,66,66,3,1,REAL,FAKE,,,,,,,,,,,,,,,,,
,,,,,,,,,60fcbf0aca44c1b1c5631970,colombian,13 or older,"no, only English or Spanish",no,2025-07-22_21h05.57.211,empathy_intonation_perc,2024.2.4,MacIntel,60.24096386,60fcbf0aca44c1b1c5631970,687ed1b7e638a4cbf2f02089,6880354492bae85d4dbe1f28,,,,,,,,,,,,,,0,,,,,,,,,,,,,,,,,,,,,,,,,,,,,,,,,,,,,,,,,,,,,,,,,,,,,,,,,58,plaudir,,,,,555.5789,556.7446,0,1,0.6385,,0,67,67,57,1,REAL,FAKE,,,,,,,,,,,,,,,,,
,,,,,,,,,60fcbf0aca44c1b1c5631970,colombian,13 or older,"no, only English or Spanish",no,2025-07-22_21h05.57.211,empathy_intonation_perc,2024.2.4,MacIntel,60.24096386,60fcbf0aca44c1b1c5631970,687ed1b7e638a4cbf2f02089,6880354492bae85d4dbe1f28,,,,,,,,,,,,,,1,,,,,,,,,,,,,,,,,,,,,,,,,,,,,,,,,,,,,,,,,,,,,,,,,,,,,,,,,75,yacer,,,,,556.7459,557.8282,0,0,0.5483,,0,68,68,74,1,REAL,FAKE,,,,,,,,,,,,,,,,,
,,,,,,,,,60fcbf0aca44c1b1c5631970,colombian,13 or older,"no, only English or Spanish",no,2025-07-22_21h05.57.211,empathy_intonation_perc,2024.2.4,MacIntel,60.24096386,60fcbf0aca44c1b1c5631970,687ed1b7e638a4cbf2f02089,6880354492bae85d4dbe1f28,,,,,,,,,,,,,,1,,,,,,,,,,,,,,,,,,,,,,,,,,,,,,,,,,,,,,,,,,,,,,,,,,,,,,,,,90,clavel,,,,,557.8293,558.8612,0,0,0.5092,,0,69,69,89,1,REAL,FAKE,,,,,,,,,,,,,,,,,
,,,,,,,,,60fcbf0aca44c1b1c5631970,colombian,13 or older,"no, only English or Spanish",no,2025-07-22_21h05.57.211,empathy_intonation_perc,2024.2.4,MacIntel,60.24096386,60fcbf0aca44c1b1c5631970,687ed1b7e638a4cbf2f02089,6880354492bae85d4dbe1f28,,,,,,,,,,,,,,1,,,,,,,,,,,,,,,,,,,,,,,,,,,,,,,,,,,,,,,,,,,,,,,,,,,,,,,,,76,atar,,,,,558.8623,560.2447,0,0,0.8481,,0,70,70,75,1,REAL,FAKE,,,,,,,,,,,,,,,,,
,,,,,,,,,60fcbf0aca44c1b1c5631970,colombian,13 or older,"no, only English or Spanish",no,2025-07-22_21h05.57.211,empathy_intonation_perc,2024.2.4,MacIntel,60.24096386,60fcbf0aca44c1b1c5631970,687ed1b7e638a4cbf2f02089,6880354492bae85d4dbe1f28,,,,,,,,,,,,,,1,,,,,,,,,,,,,,,,,,,,,,,,,,,,,,,,,,,,,,,,,,,,,,,,,,,,,,,,,15,regar,,,,,560.2458,561.4447,1,1,0.6637,,0,71,71,14,1,REAL,FAKE,,,,,,,,,,,,,,,,,
,,,,,,,,,60fcbf0aca44c1b1c5631970,colombian,13 or older,"no, only English or Spanish",no,2025-07-22_21h05.57.211,empathy_intonation_perc,2024.2.4,MacIntel,60.24096386,60fcbf0aca44c1b1c5631970,687ed1b7e638a4cbf2f02089,6880354492bae85d4dbe1f28,,,,,,,,,,,,,,1,,,,,,,,,,,,,,,,,,,,,,,,,,,,,,,,,,,,,,,,,,,,,,,,,,,,,,,,,13,helar,,,,,561.4458,562.528,0,0,0.5579,,0,72,72,12,1,REAL,FAKE,,,,,,,,,,,,,,,,,
,,,,,,,,,60fcbf0aca44c1b1c5631970,colombian,13 or older,"no, only English or Spanish",no,2025-07-22_21h05.57.211,empathy_intonation_perc,2024.2.4,MacIntel,60.24096386,60fcbf0aca44c1b1c5631970,687ed1b7e638a4cbf2f02089,6880354492bae85d4dbe1f28,,,,,,,,,,,,,,0,,,,,,,,,,,,,,,,,,,,,,,,,,,,,,,,,,,,,,,,,,,,,,,,,,,,,,,,,29,decar,,,,,562.5291,563.7114,0,1,0.646,,0,73,73,28,1,REAL,FAKE,,,,,,,,,,,,,,,,,
,,,,,,,,,60fcbf0aca44c1b1c5631970,colombian,13 or older,"no, only English or Spanish",no,2025-07-22_21h05.57.211,empathy_intonation_perc,2024.2.4,MacIntel,60.24096386,60fcbf0aca44c1b1c5631970,687ed1b7e638a4cbf2f02089,6880354492bae85d4dbe1f28,,,,,,,,,,,,,,0,,,,,,,,,,,,,,,,,,,,,,,,,,,,,,,,,,,,,,,,,,,,,,,,,,,,,,,,,30,alardio,,,,,563.7124,565.3447,0,1,1.1062,,0,74,74,29,1,REAL,FAKE,,,,,,,,,,,,,,,,,
,,,,,,,,,60fcbf0aca44c1b1c5631970,colombian,13 or older,"no, only English or Spanish",no,2025-07-22_21h05.57.211,empathy_intonation_perc,2024.2.4,MacIntel,60.24096386,60fcbf0aca44c1b1c5631970,687ed1b7e638a4cbf2f02089,6880354492bae85d4dbe1f28,,,,,,,,,,,,,,0,,,,,,,,,,,,,,,,,,,,,,,,,,,,,,,,,,,,,,,,,,,,,,,,,,,,,,,,,70,temblo,,,,,565.3458,566.6446,0,1,0.7749,,0,75,75,69,1,REAL,FAKE,,,,,,,,,,,,,,,,,
,,,,,,,,,60fcbf0aca44c1b1c5631970,colombian,13 or older,"no, only English or Spanish",no,2025-07-22_21h05.57.211,empathy_intonation_perc,2024.2.4,MacIntel,60.24096386,60fcbf0aca44c1b1c5631970,687ed1b7e638a4cbf2f02089,6880354492bae85d4dbe1f28,,,,,,,,,,,,,,0,,,,,,,,,,,,,,,,,,,,,,,,,,,,,,,,,,,,,,,,,,,,,,,,,,,,,,,,,74,cintro,,,,,566.6455,568.0282,1,0,0.8464,,0,76,76,73,1,REAL,FAKE,,,,,,,,,,,,,,,,,
,,,,,,,,,60fcbf0aca44c1b1c5631970,colombian,13 or older,"no, only English or Spanish",no,2025-07-22_21h05.57.211,empathy_intonation_perc,2024.2.4,MacIntel,60.24096386,60fcbf0aca44c1b1c5631970,687ed1b7e638a4cbf2f02089,6880354492bae85d4dbe1f28,,,,,,,,,,,,,,1,,,,,,,,,,,,,,,,,,,,,,,,,,,,,,,,,,,,,,,,,,,,,,,,,,,,,,,,,20,ávido,,,,,568.0322,569.4781,1,1,0.9079,,0,77,77,19,1,REAL,FAKE,,,,,,,,,,,,,,,,,
,,,,,,,,,60fcbf0aca44c1b1c5631970,colombian,13 or older,"no, only English or Spanish",no,2025-07-22_21h05.57.211,empathy_intonation_perc,2024.2.4,MacIntel,60.24096386,60fcbf0aca44c1b1c5631970,687ed1b7e638a4cbf2f02089,6880354492bae85d4dbe1f28,,,,,,,,,,,,,,0,,,,,,,,,,,,,,,,,,,,,,,,,,,,,,,,,,,,,,,,,,,,,,,,,,,,,,,,,8,cadeña,,,,,569.4792,570.8443,1,0,0.8401,,0,78,78,7,1,REAL,FAKE,,,,,,,,,,,,,,,,,
,,,,,,,,,60fcbf0aca44c1b1c5631970,colombian,13 or older,"no, only English or Spanish",no,2025-07-22_21h05.57.211,empathy_intonation_perc,2024.2.4,MacIntel,60.24096386,60fcbf0aca44c1b1c5631970,687ed1b7e638a4cbf2f02089,6880354492bae85d4dbe1f28,,,,,,,,,,,,,,1,,,,,,,,,,,,,,,,,,,,,,,,,,,,,,,,,,,,,,,,,,,,,,,,,,,,,,,,,14,yunque,,,,,570.8453,571.8615,0,0,0.4784,,0,79,79,13,1,REAL,FAKE,,,,,,,,,,,,,,,,,
,,,,,,,,,60fcbf0aca44c1b1c5631970,colombian,13 or older,"no, only English or Spanish",no,2025-07-22_21h05.57.211,empathy_intonation_perc,2024.2.4,MacIntel,60.24096386,60fcbf0aca44c1b1c5631970,687ed1b7e638a4cbf2f02089,6880354492bae85d4dbe1f28,,,,,,,,,,,,,,0,,,,,,,,,,,,,,,,,,,,,,,,,,,,,,,,,,,,,,,,,,,,,,,,,,,,,,,,,35,rompido,,,,,571.8625,573.1616,1,0,0.7741,,0,80,80,34,1,REAL,FAKE,,,,,,,,,,,,,,,,,
,,,,,,,,,60fcbf0aca44c1b1c5631970,colombian,13 or older,"no, only English or Spanish",no,2025-07-22_21h05.57.211,empathy_intonation_perc,2024.2.4,MacIntel,60.24096386,60fcbf0aca44c1b1c5631970,687ed1b7e638a4cbf2f02089,6880354492bae85d4dbe1f28,,,,,,,,,,,,,,1,,,,,,,,,,,,,,,,,,,,,,,,,,,,,,,,,,,,,,,,,,,,,,,,,,,,,,,,,26,secuestro,,,,,573.1628,574.3281,0,0,0.628,,0,81,81,25,1,REAL,FAKE,,,,,,,,,,,,,,,,,
,,,,,,,,,60fcbf0aca44c1b1c5631970,colombian,13 or older,"no, only English or Spanish",no,2025-07-22_21h05.57.211,empathy_intonation_perc,2024.2.4,MacIntel,60.24096386,60fcbf0aca44c1b1c5631970,687ed1b7e638a4cbf2f02089,6880354492bae85d4dbe1f28,,,,,,,,,,,,,,1,,,,,,,,,,,,,,,,,,,,,,,,,,,,,,,,,,,,,,,,,,,,,,,,,,,,,,,,,39,torpe,,,,,574.3291,575.6947,0,0,0.8411,,0,82,82,38,1,REAL,FAKE,,,,,,,,,,,,,,,,,
,,,,,,,,,60fcbf0aca44c1b1c5631970,colombian,13 or older,"no, only English or Spanish",no,2025-07-22_21h05.57.211,empathy_intonation_perc,2024.2.4,MacIntel,60.24096386,60fcbf0aca44c1b1c5631970,687ed1b7e638a4cbf2f02089,6880354492bae85d4dbe1f28,,,,,,,,,,,,,,0,,,,,,,,,,,,,,,,,,,,,,,,,,,,,,,,,,,,,,,,,,,,,,,,,,,,,,,,,82,empirador,,,,,575.6959,577.0782,1,0,0.8487,,0,83,83,81,1,REAL,FAKE,,,,,,,,,,,,,,,,,
,,,,,,,,,60fcbf0aca44c1b1c5631970,colombian,13 or older,"no, only English or Spanish",no,2025-07-22_21h05.57.211,empathy_intonation_perc,2024.2.4,MacIntel,60.24096386,60fcbf0aca44c1b1c5631970,687ed1b7e638a4cbf2f02089,6880354492bae85d4dbe1f28,,,,,,,,,,,,,,1,,,,,,,,,,,,,,,,,,,,,,,,,,,,,,,,,,,,,,,,,,,,,,,,,,,,,,,,,6,tergiversar,,,,,577.0791,578.1117,0,0,0.4965,,0,84,84,5,1,REAL,FAKE,,,,,,,,,,,,,,,,,
,,,,,,,,,60fcbf0aca44c1b1c5631970,colombian,13 or older,"no, only English or Spanish",no,2025-07-22_21h05.57.211,empathy_intonation_perc,2024.2.4,MacIntel,60.24096386,60fcbf0aca44c1b1c5631970,687ed1b7e638a4cbf2f02089,6880354492bae85d4dbe1f28,,,,,,,,,,,,,,0,,,,,,,,,,,,,,,,,,,,,,,,,,,,,,,,,,,,,,,,,,,,,,,,,,,,,,,,,27,acutación,,,,,578.1129,579.4614,0,1,0.8221,,0,85,85,26,1,REAL,FAKE,,,,,,,,,,,,,,,,,
,,,,,,,,,60fcbf0aca44c1b1c5631970,colombian,13 or older,"no, only English or Spanish",no,2025-07-22_21h05.57.211,empathy_intonation_perc,2024.2.4,MacIntel,60.24096386,60fcbf0aca44c1b1c5631970,687ed1b7e638a4cbf2f02089,6880354492bae85d4dbe1f28,,,,,,,,,,,,,,1,,,,,,,,,,,,,,,,,,,,,,,,,,,,,,,,,,,,,,,,,,,,,,,,,,,,,,,,,31,pandilla,,,,,579.4623,580.7615,0,0,0.7713,,0,86,86,30,1,REAL,FAKE,,,,,,,,,,,,,,,,,
,,,,,,,,,60fcbf0aca44c1b1c5631970,colombian,13 or older,"no, only English or Spanish",no,2025-07-22_21h05.57.211,empathy_intonation_perc,2024.2.4,MacIntel,60.24096386,60fcbf0aca44c1b1c5631970,687ed1b7e638a4cbf2f02089,6880354492bae85d4dbe1f28,,,,,,,,,,,,,,0,,,,,,,,,,,,,,,,,,,,,,,,,,,,,,,,,,,,,,,,,,,,,,,,,,,,,,,,,33,pauca,,,,,580.7628,581.9781,0,1,0.6914,,0,87,87,32,1,REAL,FAKE,,,,,,,,,,,,,,,,,
,,,,,,,,,60fcbf0aca44c1b1c5631970,colombian,13 or older,"no, only English or Spanish",no,2025-07-22_21h05.57.211,empathy_intonation_perc,2024.2.4,MacIntel,60.24096386,60fcbf0aca44c1b1c5631970,687ed1b7e638a4cbf2f02089,6880354492bae85d4dbe1f28,,,,,,,,,,,,,,1,,,,,,,,,,,,,,,,,,,,,,,,,,,,,,,,,,,,,,,,,,,,,,,,,,,,,,,,,3,pulmones,,,,,581.9792,583.5613,0,0,1.0582,,0,88,88,2,1,REAL,FAKE,,,,,,,,,,,,,,,,,
,,,,,,,,,60fcbf0aca44c1b1c5631970,colombian,13 or older,"no, only English or Spanish",no,2025-07-22_21h05.57.211,empathy_intonation_perc,2024.2.4,MacIntel,60.24096386,60fcbf0aca44c1b1c5631970,687ed1b7e638a4cbf2f02089,6880354492bae85d4dbe1f28,,,,,,,,,,,,,,1,,,,,,,,,,,,,,,,,,,,,,,,,,,,,,,,,,,,,,,,,,,,,,,,,,,,,,,,,57,tacaño,,,,,583.5623,584.6449,0,0,0.5445,,0,89,89,56,1,REAL,FAKE,,,,,,,,,,,,,,,,,
,,,,,,,,,60fcbf0aca44c1b1c5631970,colombian,13 or older,"no, only English or Spanish",no,2025-07-22_21h05.57.211,empathy_intonation_perc,2024.2.4,MacIntel,60.24096386,60fcbf0aca44c1b1c5631970,687ed1b7e638a4cbf2f02089,6880354492bae85d4dbe1f28,,,,,,,,,,,,,,1,,,,,,,,,,,,,,,,,,,,,,,,,,,,,,,,,,,,,,,,,,,,,,,,,,,,,,,,,24,látigo,,,,,584.6459,586.0282,0,0,0.8581,,0,90,90,23,1,REAL,FAKE,,,,,,,,,,,,,,,,,
,,,,,,,,,60fcbf0aca44c1b1c5631970,colombian,13 or older,"no, only English or Spanish",no,2025-07-22_21h05.57.211,empathy_intonation_perc,2024.2.4,MacIntel,60.24096386,60fcbf0aca44c1b1c5631970,687ed1b7e638a4cbf2f02089,6880354492bae85d4dbe1f28,,,,,,,,,,,,,,1,,,,,,,,,,,,,,,,,,,,,,,,,,,,,,,,,,,,,,,,,,,,,,,,,,,,,,,,,61,seda,,,,,586.0294,587.1284,0,0,0.5672,,0,91,91,60,1,REAL,FAKE,,,,,,,,,,,,,,,,,
,,,,,,,,,60fcbf0aca44c1b1c5631970,colombian,13 or older,"no, only English or Spanish",no,2025-07-22_21h05.57.211,empathy_intonation_perc,2024.2.4,MacIntel,60.24096386,60fcbf0aca44c1b1c5631970,687ed1b7e638a4cbf2f02089,6880354492bae85d4dbe1f28,,,,,,,,,,,,,,,,,,,,,,,,,,,,,,,,,,,,,,,,,,,,,,,,,,,,,,,,,,,,,,,,,,,,,,,,,,,,,,,,,,,,,,,,,,587.1289,591.9126,,,,,,,,,,,,,,,
,,,,,,,,,60fcbf0aca44c1b1c5631970,colombian,13 or older,"no, only English or Spanish",no,2025-07-22_21h05.57.211,empathy_intonation_perc,2024.2.4,MacIntel,60.24096386,60fcbf0aca44c1b1c5631970,687ed1b7e638a4cbf2f02089,6880354492bae85d4dbe1f28,,,,,,,,,,,,,1,,,,,,,,,,,,,,,,,,,,,,,,,,,,,,,,,,,,,,,,,,,,,,,,,,,,,,,,,,,,,,,,,,,,,,,,,,,,,,,591.9244,597.6129,slightly agree,0,0,0,0,1,I can easily tell if someone else wants to enter a conversation.,1,0,1,0,,
,,,,,,,,,60fcbf0aca44c1b1c5631970,colombian,13 or older,"no, only English or Spanish",no,2025-07-22_21h05.57.211,empathy_intonation_perc,2024.2.4,MacIntel,60.24096386,60fcbf0aca44c1b1c5631970,687ed1b7e638a4cbf2f02089,6880354492bae85d4dbe1f28,,,,,,,,,,,,,2,,,,,,,,,,,,,,,,,,,,,,,,,,,,,,,,,,,,,,,,,,,,,,,,,,,,,,,,,,,,,,,,,,,,,,,,,,,,,,,597.6137,599.5448,slightly agree,0,1,1,1,1,I prefer animals to humans.,0,1,0,0,,
,,,,,,,,,60fcbf0aca44c1b1c5631970,colombian,13 or older,"no, only English or Spanish",no,2025-07-22_21h05.57.211,empathy_intonation_perc,2024.2.4,MacIntel,60.24096386,60fcbf0aca44c1b1c5631970,687ed1b7e638a4cbf2f02089,6880354492bae85d4dbe1f28,,,,,,,,,,,,,3,,,,,,,,,,,,,,,,,,,,,,,,,,,,,,,,,,,,,,,,,,,,,,,,,,,,,,,,,,,,,,,,,,,,,,,,,,,,,,,599.546,602.9285,slightly disagree,0,2,2,2,1,I try to keep up with the current trends and fashions.,0,1,0,0,,
,,,,,,,,,60fcbf0aca44c1b1c5631970,colombian,13 or older,"no, only English or Spanish",no,2025-07-22_21h05.57.211,empathy_intonation_perc,2024.2.4,MacIntel,60.24096386,60fcbf0aca44c1b1c5631970,687ed1b7e638a4cbf2f02089,6880354492bae85d4dbe1f28,,,,,,,,,,,,,4,,,,,,,,,,,,,,,,,,,,,,,,,,,,,,,,,,,,,,,,,,,,,,,,,,,,,,,,,,,,,,,,,,,,,,,,,,,,,,,602.93,606.7452,slightly disagree,0,3,3,3,1,"I find it difficult to explain to others things that I understand easily,   when they don't understand it first time.",1,0,0,1,,
,,,,,,,,,60fcbf0aca44c1b1c5631970,colombian,13 or older,"no, only English or Spanish",no,2025-07-22_21h05.57.211,empathy_intonation_perc,2024.2.4,MacIntel,60.24096386,60fcbf0aca44c1b1c5631970,687ed1b7e638a4cbf2f02089,6880354492bae85d4dbe1f28,,,,,,,,,,,,,5,,,,,,,,,,,,,,,,,,,,,,,,,,,,,,,,,,,,,,,,,,,,,,,,,,,,,,,,,,,,,,,,,,,,,,,,,,,,,,,606.7464,608.5282,slightly agree,0,4,4,4,1,I dream most nights.,0,1,0,0,,
,,,,,,,,,60fcbf0aca44c1b1c5631970,colombian,13 or older,"no, only English or Spanish",no,2025-07-22_21h05.57.211,empathy_intonation_perc,2024.2.4,MacIntel,60.24096386,60fcbf0aca44c1b1c5631970,687ed1b7e638a4cbf2f02089,6880354492bae85d4dbe1f28,,,,,,,,,,,,,6,,,,,,,,,,,,,,,,,,,,,,,,,,,,,,,,,,,,,,,,,,,,,,,,,,,,,,,,,,,,,,,,,,,,,,,,,,,,,,,608.5293,610.0448,slightly agree,0,5,5,5,1,I really enjoy caring for other people.,1,0,1,0,,
,,,,,,,,,60fcbf0aca44c1b1c5631970,colombian,13 or older,"no, only English or Spanish",no,2025-07-22_21h05.57.211,empathy_intonation_perc,2024.2.4,MacIntel,60.24096386,60fcbf0aca44c1b1c5631970,687ed1b7e638a4cbf2f02089,6880354492bae85d4dbe1f28,,,,,,,,,,,,,7,,,,,,,,,,,,,,,,,,,,,,,,,,,,,,,,,,,,,,,,,,,,,,,,,,,,,,,,,,,,,,,,,,,,,,,,,,,,,,,610.0457,612.2448,slightly agree,0,6,6,6,1,I try to solve my own problems rather than discussing them with others.,0,1,0,0,,
