instructions_exposure.started,instructions_exposure.stopped,instructions_exposure_loop.thisRepN,instructions_exposure_loop.thisTrialN,instructions_exposure_loop.thisN,instructions_exposure_loop.thisIndex,instructions_exposure_loop.ran,instructions_text,continue_text,participant_id,"What variety of Spanish are you most familiar with? (e.g., Peruvian, Spanish, Mexican)",At what age did you begin learning Spanish?,Are you proficient in any languages other than English/Spanish?,"Are you familiar with Caribbean (e.g., Caribbean, Puerto Rican) or Galician Spanish?",date,expName,psychopyVersion,OS,frameRate,id,study_id,session,trial_exposure.started,trial_exposure.stopped,key_resp_exposure.keys,key_resp_exposure.corr,key_resp_exposure.rt,key_resp_exposure.duration,key_resp.keys,key_resp.rt,key_resp.duration,exposure_loop.thisRepN,exposure_loop.thisTrialN,exposure_loop.thisN,exposure_loop.thisIndex,exposure_loop.ran,item_num,correct_response,question,path,duration,instructions_2afc.started,instructions_2afc.stopped,instructions_2afc_loop.thisRepN,instructions_2afc_loop.thisTrialN,instructions_2afc_loop.thisN,instructions_2afc_loop.thisIndex,instructions_2afc_loop.ran,practice_2afc.started,practice_2afc.stopped,key_resp_2afc_practice.keys,key_resp_2afc_practice.corr,key_resp_2afc_practice.rt,key_resp_2afc_practice.duration,trials_2afc_practice_loop.thisRepN,trials_2afc_practice_loop.thisTrialN,trials_2afc_practice_loop.thisN,trials_2afc_practice_loop.thisIndex,trials_2afc_practice_loop.ran,check_2afc.started,check_2afc.stopped,trial_2afc.started,trial_2afc.stopped,key_resp_2afc_trial.keys,key_resp_2afc_trial.corr,key_resp_2afc_trial.rt,key_resp_2afc_trial.duration,trials_2afc_loop.thisRepN,trials_2afc_loop.thisTrialN,trials_2afc_loop.thisN,trials_2afc_loop.thisIndex,trials_2afc_loop.ran,target,variety,instructions_lextale.started,instructions_lextale.stopped,instructions_lextale_loop.thisRepN,instructions_lextale_loop.thisTrialN,instructions_lextale_loop.thisN,instructions_lextale_loop.thisIndex,instructions_lextale_loop.ran,practice_lextale.started,practice_lextale.stopped,key_resp_lextale_practice.keys,key_resp_lextale_practice.corr,key_resp_lextale_practice.rt,key_resp_lextale_practice.duration,practice_feedback_lextale.started,practice_feedback_lextale.stopped,trials_lextale_practice_loop.thisRepN,trials_lextale_practice_loop.thisTrialN,trials_lextale_practice_loop.thisN,trials_lextale_practice_loop.thisIndex,trials_lextale_practice_loop.ran,stim,word,prac_button_real,prac_button_false,check_lextale.started,check_lextale.stopped,trial_lextale.started,trial_lextale.stopped,key_resp_lextale_trial.keys,key_resp_lextale_trial.corr,key_resp_lextale_trial.rt,key_resp_lextale_trial.duration,trials_lextale_loop.thisRepN,trials_lextale_loop.thisTrialN,trials_lextale_loop.thisN,trials_lextale_loop.thisIndex,trials_lextale_loop.ran,button_real,button_false,instructions_eq.started,instructions_eq.stopped,trial_eq.started,trial_eq.stopped,slider_eq_trial.response,trials_eq_loop.thisRepN,trials_eq_loop.thisTrialN,trials_eq_loop.thisN,trials_eq_loop.thisIndex,trials_eq_loop.ran,item,is_test_item,is_distractor,is_agree_score,is_disagree_score,end_exp.started,end_exp.stopped
0.0119,3.8185,0,0,0,0,1,"In the following task, you are going to hear a series of conversations.", (press the space bar to continue),60fdd60f32a7b191d931f514,mexican,13 or older,"no, only English or Spanish",yes,2025-08-12_14h44.17.650,empathy_intonation_perc,2024.2.4,MacIntel,59.88023952,60fdd60f32a7b191d931f514,687ed1b7e638a4cbf2f02089,689b8b45d8b47a0ea9f6ba78,,,,,,,,,,,,,,,,,,,,,,,,,,,,,,,,,,,,,,,,,,,,,,,,,,,,,,,,,,,,,,,,,,,,,,,,,,,,,,,,,,,,,,,,,,,,,,,,,,,,,,,,,,,,
3.8195,6.9184,0,1,1,1,1,It is okay if you don't not 100% understand them!, (press the space bar to continue),60fdd60f32a7b191d931f514,mexican,13 or older,"no, only English or Spanish",yes,2025-08-12_14h44.17.650,empathy_intonation_perc,2024.2.4,MacIntel,59.88023952,60fdd60f32a7b191d931f514,687ed1b7e638a4cbf2f02089,689b8b45d8b47a0ea9f6ba78,,,,,,,,,,,,,,,,,,,,,,,,,,,,,,,,,,,,,,,,,,,,,,,,,,,,,,,,,,,,,,,,,,,,,,,,,,,,,,,,,,,,,,,,,,,,,,,,,,,,,,,,,,,,
6.92,9.2853,0,2,2,2,1,"After, you will read a sentence about the conversation and decide if it's true or false.", (press the space bar to continue),60fdd60f32a7b191d931f514,mexican,13 or older,"no, only English or Spanish",yes,2025-08-12_14h44.17.650,empathy_intonation_perc,2024.2.4,MacIntel,59.88023952,60fdd60f32a7b191d931f514,687ed1b7e638a4cbf2f02089,689b8b45d8b47a0ea9f6ba78,,,,,,,,,,,,,,,,,,,,,,,,,,,,,,,,,,,,,,,,,,,,,,,,,,,,,,,,,,,,,,,,,,,,,,,,,,,,,,,,,,,,,,,,,,,,,,,,,,,,,,,,,,,,
9.2869,13.0689,0,3,3,3,1,"If it's true, press '1' (True) and if it's false press '0' (False).", (press the space bar to continue),60fdd60f32a7b191d931f514,mexican,13 or older,"no, only English or Spanish",yes,2025-08-12_14h44.17.650,empathy_intonation_perc,2024.2.4,MacIntel,59.88023952,60fdd60f32a7b191d931f514,687ed1b7e638a4cbf2f02089,689b8b45d8b47a0ea9f6ba78,,,,,,,,,,,,,,,,,,,,,,,,,,,,,,,,,,,,,,,,,,,,,,,,,,,,,,,,,,,,,,,,,,,,,,,,,,,,,,,,,,,,,,,,,,,,,,,,,,,,,,,,,,,,
,,,,,,,,,60fdd60f32a7b191d931f514,mexican,13 or older,"no, only English or Spanish",yes,2025-08-12_14h44.17.650,empathy_intonation_perc,2024.2.4,MacIntel,59.88023952,60fdd60f32a7b191d931f514,687ed1b7e638a4cbf2f02089,689b8b45d8b47a0ea9f6ba78,13.0784,140.6379,c,0,91.4365,,c,127.5549,,0,0,0,2,1,3,0,The mom already has rice.,./stim/exposure_wavs/pr_stimuli_convo.wav,36,,,,,,,,,,,,,,,,,,,,,,,,,,,,,,,,,,,,,,,,,,,,,,,,,,,,,,,,,,,,,,,,,,,,,,,,,,,,,,,,,,,,,,,,,
,,,,,,,,,60fdd60f32a7b191d931f514,mexican,13 or older,"no, only English or Spanish",yes,2025-08-12_14h44.17.650,empathy_intonation_perc,2024.2.4,MacIntel,59.88023952,60fdd60f32a7b191d931f514,687ed1b7e638a4cbf2f02089,689b8b45d8b47a0ea9f6ba78,140.6394,195.0388,c,0,7.3578,,c,54.3838,,0,1,1,0,1,1,1,The son asked the mom if Aunt Marina is okay.,./stim/exposure_wavs/ga_stimuli_convo.wav,47,,,,,,,,,,,,,,,,,,,,,,,,,,,,,,,,,,,,,,,,,,,,,,,,,,,,,,,,,,,,,,,,,,,,,,,,,,,,,,,,,,,,,,,,,
,,,,,,,,,60fdd60f32a7b191d931f514,mexican,13 or older,"no, only English or Spanish",yes,2025-08-12_14h44.17.650,empathy_intonation_perc,2024.2.4,MacIntel,59.88023952,60fdd60f32a7b191d931f514,687ed1b7e638a4cbf2f02089,689b8b45d8b47a0ea9f6ba78,195.0404,264.0556,c,0,8.9913,,c,69.0081,,0,2,2,1,1,2,1,The mom asked the daughter if she already went to the supermarket.,./stim/exposure_wavs/dr_stimuli_convo.wav,60,,,,,,,,,,,,,,,,,,,,,,,,,,,,,,,,,,,,,,,,,,,,,,,,,,,,,,,,,,,,,,,,,,,,,,,,,,,,,,,,,,,,,,,,,
,,,,,,,"In the following task you are going to hear a series of utterances. 

  You will decide if the utterances sound like questions or not using your keyboard.", (press the spacebar to continue),60fdd60f32a7b191d931f514,mexican,13 or older,"no, only English or Spanish",yes,2025-08-12_14h44.17.650,empathy_intonation_perc,2024.2.4,MacIntel,59.88023952,60fdd60f32a7b191d931f514,687ed1b7e638a4cbf2f02089,689b8b45d8b47a0ea9f6ba78,,,,,,,,,,,,,,,,,,,,264.0672,269.7902,0,0,0,0,1,,,,,,,,,,,,,,,,,,,,,,,,,,,,,,,,,,,,,,,,,,,,,,,,,,,,,,,,,,,,,,,,,,,,,,,,,,,,,,,,,,
,,,,,,,"If you believe the utterance is a question, type '1' (for 'yes') and if you do not 
  believe it is a question type '0' (for 'no').

  Let's practice a bit...", (press the spacebar to continue),60fdd60f32a7b191d931f514,mexican,13 or older,"no, only English or Spanish",yes,2025-08-12_14h44.17.650,empathy_intonation_perc,2024.2.4,MacIntel,59.88023952,60fdd60f32a7b191d931f514,687ed1b7e638a4cbf2f02089,689b8b45d8b47a0ea9f6ba78,,,,,,,,,,,,,,,,,,,,269.7938,279.4407,0,1,1,1,1,,,,,,,,,,,,,,,,,,,,,,,,,,,,,,,,,,,,,,,,,,,,,,,,,,,,,,,,,,,,,,,,,,,,,,,,,,,,,,,,,,
,,,,,,,,,60fdd60f32a7b191d931f514,mexican,13 or older,"no, only English or Spanish",yes,2025-08-12_14h44.17.650,empathy_intonation_perc,2024.2.4,MacIntel,59.88023952,60fdd60f32a7b191d931f514,687ed1b7e638a4cbf2f02089,689b8b45d8b47a0ea9f6ba78,,,,,,,,,,,,,,,,0,,./stim/wavs/cuban_statement_filler_Cocinabas-por-la-noche.wav,,,,,,,,,279.4629,284.0071,0,1,3.9663,,0,0,0,4,1,,,,,,,,,,,,,,,,,,,,,,,,,,,,,,,,,,,,,,,,,,,,,,,,,,,,,,,,,,,,,,,,,,,,,,,
,,,,,,,,,60fdd60f32a7b191d931f514,mexican,13 or older,"no, only English or Spanish",yes,2025-08-12_14h44.17.650,empathy_intonation_perc,2024.2.4,MacIntel,59.88023952,60fdd60f32a7b191d931f514,687ed1b7e638a4cbf2f02089,689b8b45d8b47a0ea9f6ba78,,,,,,,,,,,,,,,,1,,./stim/wavs/mexican_question_filler_Felipe-no-tiene-contrasena.wav,,,,,,,,,284.0078,286.8571,1,1,2.3289,,0,1,1,3,1,,,,,,,,,,,,,,,,,,,,,,,,,,,,,,,,,,,,,,,,,,,,,,,,,,,,,,,,,,,,,,,,,,,,,,,
,,,,,,,,,60fdd60f32a7b191d931f514,mexican,13 or older,"no, only English or Spanish",yes,2025-08-12_14h44.17.650,empathy_intonation_perc,2024.2.4,MacIntel,59.88023952,60fdd60f32a7b191d931f514,687ed1b7e638a4cbf2f02089,689b8b45d8b47a0ea9f6ba78,,,,,,,,,,,,,,,,1,,./stim/wavs/argentine_question_filler_Mi-vecino-habla-mucho.wav,,,,,,,,,286.858,289.4902,1,1,2.1094,,0,2,2,1,1,,,,,,,,,,,,,,,,,,,,,,,,,,,,,,,,,,,,,,,,,,,,,,,,,,,,,,,,,,,,,,,,,,,,,,,
,,,,,,,,,60fdd60f32a7b191d931f514,mexican,13 or older,"no, only English or Spanish",yes,2025-08-12_14h44.17.650,empathy_intonation_perc,2024.2.4,MacIntel,59.88023952,60fdd60f32a7b191d931f514,687ed1b7e638a4cbf2f02089,689b8b45d8b47a0ea9f6ba78,,,,,,,,,,,,,,,,0,,./stim/wavs/andalusian_statement_filler_Alberto-nunca-se-afeita.wav,,,,,,,,,289.4904,292.2904,0,1,2.2744,,0,3,3,5,1,,,,,,,,,,,,,,,,,,,,,,,,,,,,,,,,,,,,,,,,,,,,,,,,,,,,,,,,,,,,,,,,,,,,,,,
,,,,,,,,,60fdd60f32a7b191d931f514,mexican,13 or older,"no, only English or Spanish",yes,2025-08-12_14h44.17.650,empathy_intonation_perc,2024.2.4,MacIntel,59.88023952,60fdd60f32a7b191d931f514,687ed1b7e638a4cbf2f02089,689b8b45d8b47a0ea9f6ba78,,,,,,,,,,,,,,,,0,,./stim/wavs/puertorican_statement_filler_La-nina-pinta-con-su-amiga.wav,,,,,,,,,292.2915,297.3067,0,1,4.484,,0,4,4,7,1,,,,,,,,,,,,,,,,,,,,,,,,,,,,,,,,,,,,,,,,,,,,,,,,,,,,,,,,,,,,,,,,,,,,,,,
,,,,,,,,,60fdd60f32a7b191d931f514,mexican,13 or older,"no, only English or Spanish",yes,2025-08-12_14h44.17.650,empathy_intonation_perc,2024.2.4,MacIntel,59.88023952,60fdd60f32a7b191d931f514,687ed1b7e638a4cbf2f02089,689b8b45d8b47a0ea9f6ba78,,,,,,,,,,,,,,,,0,,./stim/wavs/peruvian_statement_filler_El-nino-habla-con-su-madre.wav,,,,,,,,,297.307,300.6071,0,1,2.7671,,0,5,5,6,1,,,,,,,,,,,,,,,,,,,,,,,,,,,,,,,,,,,,,,,,,,,,,,,,,,,,,,,,,,,,,,,,,,,,,,,
,,,,,,,,,60fdd60f32a7b191d931f514,mexican,13 or older,"no, only English or Spanish",yes,2025-08-12_14h44.17.650,empathy_intonation_perc,2024.2.4,MacIntel,59.88023952,60fdd60f32a7b191d931f514,687ed1b7e638a4cbf2f02089,689b8b45d8b47a0ea9f6ba78,,,,,,,,,,,,,,,,1,,./stim/wavs/castilian_question_filler_Mi-esposo-conoce-al-chico.wav,,,,,,,,,300.6078,303.0577,1,1,1.9139,,0,6,6,0,1,,,,,,,,,,,,,,,,,,,,,,,,,,,,,,,,,,,,,,,,,,,,,,,,,,,,,,,,,,,,,,,,,,,,,,,
,,,,,,,,,60fdd60f32a7b191d931f514,mexican,13 or older,"no, only English or Spanish",yes,2025-08-12_14h44.17.650,empathy_intonation_perc,2024.2.4,MacIntel,59.88023952,60fdd60f32a7b191d931f514,687ed1b7e638a4cbf2f02089,689b8b45d8b47a0ea9f6ba78,,,,,,,,,,,,,,,,1,,./stim/wavs/chilean_question_filler_Mi-padre-cantaba-bien.wav,,,,,,,,,303.0584,305.2245,1,1,1.6335,,0,7,7,2,1,,,,,,,,,,,,,,,,,,,,,,,,,,,,,,,,,,,,,,,,,,,,,,,,,,,,,,,,,,,,,,,,,,,,,,,
,,,,,,,,,60fdd60f32a7b191d931f514,mexican,13 or older,"no, only English or Spanish",yes,2025-08-12_14h44.17.650,empathy_intonation_perc,2024.2.4,MacIntel,59.88023952,60fdd60f32a7b191d931f514,687ed1b7e638a4cbf2f02089,689b8b45d8b47a0ea9f6ba78,,,,,,,,,,,,,,,,,,,,,,,,,,,,,,,,,,,,,,305.2308,308.3081,,,,,,,,,,,,,,,,,,,,,,,,,,,,,,,,,,,,,,,,,,,,,,,,,,,,,,,,,,,,,,,,,,,,,
,,,,,,,,,60fdd60f32a7b191d931f514,mexican,13 or older,"no, only English or Spanish",yes,2025-08-12_14h44.17.650,empathy_intonation_perc,2024.2.4,MacIntel,59.88023952,60fdd60f32a7b191d931f514,687ed1b7e638a4cbf2f02089,689b8b45d8b47a0ea9f6ba78,,,,,,,,,,,,,,,27,1,,./stim/wavs/castilian_mismatch_interrogative-total-yn_Mi-madre-come-la-fruta.wav,,,,,,,,,,,,,,,,,,,,,,308.3155,310.5915,1,1,1.7556,,0,0,0,26,1,0,castilian,,,,,,,,,,,,,,,,,,,,,,,,,,,,,,,,,,,,,,,,,,,,,,,,,,,,,,,,
,,,,,,,,,60fdd60f32a7b191d931f514,mexican,13 or older,"no, only English or Spanish",yes,2025-08-12_14h44.17.650,empathy_intonation_perc,2024.2.4,MacIntel,59.88023952,60fdd60f32a7b191d931f514,687ed1b7e638a4cbf2f02089,689b8b45d8b47a0ea9f6ba78,,,,,,,,,,,,,,,70,0,,./stim/wavs/castilian_mismatch_declarative-broad-focus_La-maestra-vive-en-Paris.wav,,,,,,,,,,,,,,,,,,,,,,310.5926,315.3742,0,1,4.2546,,0,1,1,69,1,0,castilian,,,,,,,,,,,,,,,,,,,,,,,,,,,,,,,,,,,,,,,,,,,,,,,,,,,,,,,,
,,,,,,,,,60fdd60f32a7b191d931f514,mexican,13 or older,"no, only English or Spanish",yes,2025-08-12_14h44.17.650,empathy_intonation_perc,2024.2.4,MacIntel,59.88023952,60fdd60f32a7b191d931f514,687ed1b7e638a4cbf2f02089,689b8b45d8b47a0ea9f6ba78,,,,,,,,,,,,,,,4,1,,./stim/wavs/castilian_match_interrogative-total-yn_Maria-bebe-el-vino.wav,,,,,,,,,,,,,,,,,,,,,,315.3747,317.4076,1,1,1.5181,,0,2,2,3,1,0,castilian,,,,,,,,,,,,,,,,,,,,,,,,,,,,,,,,,,,,,,,,,,,,,,,,,,,,,,,,
,,,,,,,,,60fdd60f32a7b191d931f514,mexican,13 or older,"no, only English or Spanish",yes,2025-08-12_14h44.17.650,empathy_intonation_perc,2024.2.4,MacIntel,59.88023952,60fdd60f32a7b191d931f514,687ed1b7e638a4cbf2f02089,689b8b45d8b47a0ea9f6ba78,,,,,,,,,,,,,,,53,0,,./stim/wavs/cuban_match_declarative-broad-focus_Manuela-vende-el-carro.wav,,,,,,,,,,,,,,,,,,,,,,317.4084,319.941,0,1,2.0019,,0,3,3,52,1,0,cuban,,,,,,,,,,,,,,,,,,,,,,,,,,,,,,,,,,,,,,,,,,,,,,,,,,,,,,,,
,,,,,,,,,60fdd60f32a7b191d931f514,mexican,13 or older,"no, only English or Spanish",yes,2025-08-12_14h44.17.650,empathy_intonation_perc,2024.2.4,MacIntel,59.88023952,60fdd60f32a7b191d931f514,687ed1b7e638a4cbf2f02089,689b8b45d8b47a0ea9f6ba78,,,,,,,,,,,,,,,23,1,,./stim/wavs/puertorican_match_interrogative-total-yn_Manuela-vende-el-carro.wav,,,,,,,,,,,,,,,,,,,,,,319.9413,322.2917,0,0,1.8256,,0,4,4,22,1,1,puertorican,,,,,,,,,,,,,,,,,,,,,,,,,,,,,,,,,,,,,,,,,,,,,,,,,,,,,,,,
,,,,,,,,,60fdd60f32a7b191d931f514,mexican,13 or older,"no, only English or Spanish",yes,2025-08-12_14h44.17.650,empathy_intonation_perc,2024.2.4,MacIntel,59.88023952,60fdd60f32a7b191d931f514,687ed1b7e638a4cbf2f02089,689b8b45d8b47a0ea9f6ba78,,,,,,,,,,,,,,,77,0,,./stim/wavs/cuban_mismatch_declarative-broad-focus_Mi-novio-viene-del-lago.wav,,,,,,,,,,,,,,,,,,,,,,322.2927,324.541,0,1,1.7286,,0,5,5,76,1,0,cuban,,,,,,,,,,,,,,,,,,,,,,,,,,,,,,,,,,,,,,,,,,,,,,,,,,,,,,,,
,,,,,,,,,60fdd60f32a7b191d931f514,mexican,13 or older,"no, only English or Spanish",yes,2025-08-12_14h44.17.650,empathy_intonation_perc,2024.2.4,MacIntel,59.88023952,60fdd60f32a7b191d931f514,687ed1b7e638a4cbf2f02089,689b8b45d8b47a0ea9f6ba78,,,,,,,,,,,,,,,56,0,,./stim/wavs/cuban_match_declarative-broad-focus_Marta-abre-el-regalo.wav,,,,,,,,,,,,,,,,,,,,,,324.5418,326.7246,0,1,1.6538,,0,6,6,55,1,0,cuban,,,,,,,,,,,,,,,,,,,,,,,,,,,,,,,,,,,,,,,,,,,,,,,,,,,,,,,,
,,,,,,,,,60fdd60f32a7b191d931f514,mexican,13 or older,"no, only English or Spanish",yes,2025-08-12_14h44.17.650,empathy_intonation_perc,2024.2.4,MacIntel,59.88023952,60fdd60f32a7b191d931f514,687ed1b7e638a4cbf2f02089,689b8b45d8b47a0ea9f6ba78,,,,,,,,,,,,,,,38,1,,./stim/wavs/mexican_mismatch_interrogative-total-yn_Mi-novio-viene-del-lago.wav,,,,,,,,,,,,,,,,,,,,,,326.726,328.8417,1,1,1.5909,,0,7,7,37,1,0,mexican,,,,,,,,,,,,,,,,,,,,,,,,,,,,,,,,,,,,,,,,,,,,,,,,,,,,,,,,
,,,,,,,,,60fdd60f32a7b191d931f514,mexican,13 or older,"no, only English or Spanish",yes,2025-08-12_14h44.17.650,empathy_intonation_perc,2024.2.4,MacIntel,59.88023952,60fdd60f32a7b191d931f514,687ed1b7e638a4cbf2f02089,689b8b45d8b47a0ea9f6ba78,,,,,,,,,,,,,,,87,0,,./stim/wavs/puertorican_mismatch_declarative-broad-focus_La-maestra-vive-en-Paris.wav,,,,,,,,,,,,,,,,,,,,,,328.8435,331.025,0,1,1.6526,,0,8,8,86,1,0,puertorican,,,,,,,,,,,,,,,,,,,,,,,,,,,,,,,,,,,,,,,,,,,,,,,,,,,,,,,,
,,,,,,,,,60fdd60f32a7b191d931f514,mexican,13 or older,"no, only English or Spanish",yes,2025-08-12_14h44.17.650,empathy_intonation_perc,2024.2.4,MacIntel,59.88023952,60fdd60f32a7b191d931f514,687ed1b7e638a4cbf2f02089,689b8b45d8b47a0ea9f6ba78,,,,,,,,,,,,,,,11,1,,./stim/wavs/cuban_match_interrogative-total-yn_Mariano-habla-del-tiempo.wav,,,,,,,,,,,,,,,,,,,,,,331.0261,333.275,0,0,1.7212,,0,9,9,10,1,1,cuban,,,,,,,,,,,,,,,,,,,,,,,,,,,,,,,,,,,,,,,,,,,,,,,,,,,,,,,,
,,,,,,,,,60fdd60f32a7b191d931f514,mexican,13 or older,"no, only English or Spanish",yes,2025-08-12_14h44.17.650,empathy_intonation_perc,2024.2.4,MacIntel,59.88023952,60fdd60f32a7b191d931f514,687ed1b7e638a4cbf2f02089,689b8b45d8b47a0ea9f6ba78,,,,,,,,,,,,,,,31,1,,./stim/wavs/cuban_mismatch_interrogative-total-yn_El-nino-oye-el-rio.wav,,,,,,,,,,,,,,,,,,,,,,333.2757,336.4915,0,0,2.6846,,0,10,10,30,1,1,cuban,,,,,,,,,,,,,,,,,,,,,,,,,,,,,,,,,,,,,,,,,,,,,,,,,,,,,,,,
,,,,,,,,,60fdd60f32a7b191d931f514,mexican,13 or older,"no, only English or Spanish",yes,2025-08-12_14h44.17.650,empathy_intonation_perc,2024.2.4,MacIntel,59.88023952,60fdd60f32a7b191d931f514,687ed1b7e638a4cbf2f02089,689b8b45d8b47a0ea9f6ba78,,,,,,,,,,,,,,,13,1,,./stim/wavs/mexican_match_interrogative-total-yn_Ana-lleva-el-abrigo.wav,,,,,,,,,,,,,,,,,,,,,,336.4929,338.3905,1,1,1.3681,,0,11,11,12,1,0,mexican,,,,,,,,,,,,,,,,,,,,,,,,,,,,,,,,,,,,,,,,,,,,,,,,,,,,,,,,
,,,,,,,,,60fdd60f32a7b191d931f514,mexican,13 or older,"no, only English or Spanish",yes,2025-08-12_14h44.17.650,empathy_intonation_perc,2024.2.4,MacIntel,59.88023952,60fdd60f32a7b191d931f514,687ed1b7e638a4cbf2f02089,689b8b45d8b47a0ea9f6ba78,,,,,,,,,,,,,,,75,0,,./stim/wavs/cuban_mismatch_declarative-broad-focus_El-hombre-mira-la-luna.wav,,,,,,,,,,,,,,,,,,,,,,338.3907,341.0077,0,1,2.1082,,0,12,12,74,1,0,cuban,,,,,,,,,,,,,,,,,,,,,,,,,,,,,,,,,,,,,,,,,,,,,,,,,,,,,,,,
,,,,,,,,,60fdd60f32a7b191d931f514,mexican,13 or older,"no, only English or Spanish",yes,2025-08-12_14h44.17.650,empathy_intonation_perc,2024.2.4,MacIntel,59.88023952,60fdd60f32a7b191d931f514,687ed1b7e638a4cbf2f02089,689b8b45d8b47a0ea9f6ba78,,,,,,,,,,,,,,,86,0,,./stim/wavs/puertorican_mismatch_declarative-broad-focus_El-nino-oye-el-rio.wav,,,,,,,,,,,,,,,,,,,,,,341.0084,343.5751,0,1,2.0383,,0,13,13,85,1,0,puertorican,,,,,,,,,,,,,,,,,,,,,,,,,,,,,,,,,,,,,,,,,,,,,,,,,,,,,,,,
,,,,,,,,,60fdd60f32a7b191d931f514,mexican,13 or older,"no, only English or Spanish",yes,2025-08-12_14h44.17.650,empathy_intonation_perc,2024.2.4,MacIntel,59.88023952,60fdd60f32a7b191d931f514,687ed1b7e638a4cbf2f02089,689b8b45d8b47a0ea9f6ba78,,,,,,,,,,,,,,,49,0,,./stim/wavs/castilian_match_declarative-broad-focus_Mariano-habla-del-tiempo.wav,,,,,,,,,,,,,,,,,,,,,,343.5757,347.5746,0,1,3.478,,0,14,14,48,1,0,castilian,,,,,,,,,,,,,,,,,,,,,,,,,,,,,,,,,,,,,,,,,,,,,,,,,,,,,,,,
,,,,,,,,,60fdd60f32a7b191d931f514,mexican,13 or older,"no, only English or Spanish",yes,2025-08-12_14h44.17.650,empathy_intonation_perc,2024.2.4,MacIntel,59.88023952,60fdd60f32a7b191d931f514,687ed1b7e638a4cbf2f02089,689b8b45d8b47a0ea9f6ba78,,,,,,,,,,,,,,,26,1,,./stim/wavs/castilian_mismatch_interrogative-total-yn_La-nina-lava-el-plato.wav,,,,,,,,,,,,,,,,,,,,,,347.5753,349.5412,1,1,1.435,,0,15,15,25,1,0,castilian,,,,,,,,,,,,,,,,,,,,,,,,,,,,,,,,,,,,,,,,,,,,,,,,,,,,,,,,
,,,,,,,,,60fdd60f32a7b191d931f514,mexican,13 or older,"no, only English or Spanish",yes,2025-08-12_14h44.17.650,empathy_intonation_perc,2024.2.4,MacIntel,59.88023952,60fdd60f32a7b191d931f514,687ed1b7e638a4cbf2f02089,689b8b45d8b47a0ea9f6ba78,,,,,,,,,,,,,,,39,1,,./stim/wavs/mexican_mismatch_interrogative-total-yn_Mi-tia-odia-la-lluvia.wav,,,,,,,,,,,,,,,,,,,,,,349.5433,351.5754,1,1,1.5185,,0,16,16,38,1,0,mexican,,,,,,,,,,,,,,,,,,,,,,,,,,,,,,,,,,,,,,,,,,,,,,,,,,,,,,,,
,,,,,,,,,60fdd60f32a7b191d931f514,mexican,13 or older,"no, only English or Spanish",yes,2025-08-12_14h44.17.650,empathy_intonation_perc,2024.2.4,MacIntel,59.88023952,60fdd60f32a7b191d931f514,687ed1b7e638a4cbf2f02089,689b8b45d8b47a0ea9f6ba78,,,,,,,,,,,,,,,74,0,,./stim/wavs/cuban_mismatch_declarative-broad-focus_El-bebe-comia-muy-bien.wav,,,,,,,,,,,,,,,,,,,,,,351.5763,353.5585,0,1,1.451,,0,17,17,73,1,0,cuban,,,,,,,,,,,,,,,,,,,,,,,,,,,,,,,,,,,,,,,,,,,,,,,,,,,,,,,,
,,,,,,,,,60fdd60f32a7b191d931f514,mexican,13 or older,"no, only English or Spanish",yes,2025-08-12_14h44.17.650,empathy_intonation_perc,2024.2.4,MacIntel,59.88023952,60fdd60f32a7b191d931f514,687ed1b7e638a4cbf2f02089,689b8b45d8b47a0ea9f6ba78,,,,,,,,,,,,,,,19,1,,./stim/wavs/puertorican_match_interrogative-total-yn_Ana-lleva-el-abrigo.wav,,,,,,,,,,,,,,,,,,,,,,353.559,356.0418,1,1,1.9565,,0,18,18,18,1,1,puertorican,,,,,,,,,,,,,,,,,,,,,,,,,,,,,,,,,,,,,,,,,,,,,,,,,,,,,,,,
,,,,,,,,,60fdd60f32a7b191d931f514,mexican,13 or older,"no, only English or Spanish",yes,2025-08-12_14h44.17.650,empathy_intonation_perc,2024.2.4,MacIntel,59.88023952,60fdd60f32a7b191d931f514,687ed1b7e638a4cbf2f02089,689b8b45d8b47a0ea9f6ba78,,,,,,,,,,,,,,,25,1,,./stim/wavs/castilian_mismatch_interrogative-total-yn_La-maestra-vive-en-Paris.wav,,,,,,,,,,,,,,,,,,,,,,356.0425,358.242,1,1,1.6774,,0,19,19,24,1,0,castilian,,,,,,,,,,,,,,,,,,,,,,,,,,,,,,,,,,,,,,,,,,,,,,,,,,,,,,,,
,,,,,,,,,60fdd60f32a7b191d931f514,mexican,13 or older,"no, only English or Spanish",yes,2025-08-12_14h44.17.650,empathy_intonation_perc,2024.2.4,MacIntel,59.88023952,60fdd60f32a7b191d931f514,687ed1b7e638a4cbf2f02089,689b8b45d8b47a0ea9f6ba78,,,,,,,,,,,,,,,5,1,,./stim/wavs/castilian_match_interrogative-total-yn_Mariano-habla-del-tiempo.wav,,,,,,,,,,,,,,,,,,,,,,358.2431,360.3417,1,1,1.5773,,0,20,20,4,1,0,castilian,,,,,,,,,,,,,,,,,,,,,,,,,,,,,,,,,,,,,,,,,,,,,,,,,,,,,,,,
,,,,,,,,,60fdd60f32a7b191d931f514,mexican,13 or older,"no, only English or Spanish",yes,2025-08-12_14h44.17.650,empathy_intonation_perc,2024.2.4,MacIntel,59.88023952,60fdd60f32a7b191d931f514,687ed1b7e638a4cbf2f02089,689b8b45d8b47a0ea9f6ba78,,,,,,,,,,,,,,,47,0,,./stim/wavs/castilian_match_declarative-broad-focus_Manuela-vende-el-carro.wav,,,,,,,,,,,,,,,,,,,,,,360.3426,362.8912,0,1,2.0176,,0,21,21,46,1,0,castilian,,,,,,,,,,,,,,,,,,,,,,,,,,,,,,,,,,,,,,,,,,,,,,,,,,,,,,,,
,,,,,,,,,60fdd60f32a7b191d931f514,mexican,13 or older,"no, only English or Spanish",yes,2025-08-12_14h44.17.650,empathy_intonation_perc,2024.2.4,MacIntel,59.88023952,60fdd60f32a7b191d931f514,687ed1b7e638a4cbf2f02089,689b8b45d8b47a0ea9f6ba78,,,,,,,,,,,,,,,72,0,,./stim/wavs/castilian_mismatch_declarative-broad-focus_Mi-novio-viene-del-lago.wav,,,,,,,,,,,,,,,,,,,,,,362.8918,365.709,0,1,2.3039,,0,22,22,71,1,0,castilian,,,,,,,,,,,,,,,,,,,,,,,,,,,,,,,,,,,,,,,,,,,,,,,,,,,,,,,,
,,,,,,,,,60fdd60f32a7b191d931f514,mexican,13 or older,"no, only English or Spanish",yes,2025-08-12_14h44.17.650,empathy_intonation_perc,2024.2.4,MacIntel,59.88023952,60fdd60f32a7b191d931f514,687ed1b7e638a4cbf2f02089,689b8b45d8b47a0ea9f6ba78,,,,,,,,,,,,,,,81,0,,./stim/wavs/mexican_mismatch_declarative-broad-focus_La-maestra-vive-en-Paris.wav,,,,,,,,,,,,,,,,,,,,,,365.7099,371.9754,0,1,5.7335,,0,23,23,80,1,0,mexican,,,,,,,,,,,,,,,,,,,,,,,,,,,,,,,,,,,,,,,,,,,,,,,,,,,,,,,,
,,,,,,,,,60fdd60f32a7b191d931f514,mexican,13 or older,"no, only English or Spanish",yes,2025-08-12_14h44.17.650,empathy_intonation_perc,2024.2.4,MacIntel,59.88023952,60fdd60f32a7b191d931f514,687ed1b7e638a4cbf2f02089,689b8b45d8b47a0ea9f6ba78,,,,,,,,,,,,,,,35,1,,./stim/wavs/mexican_mismatch_interrogative-total-yn_El-hombre-mira-la-luna.wav,,,,,,,,,,,,,,,,,,,,,,371.9762,373.842,1,1,1.3386,,0,24,24,34,1,0,mexican,,,,,,,,,,,,,,,,,,,,,,,,,,,,,,,,,,,,,,,,,,,,,,,,,,,,,,,,
,,,,,,,,,60fdd60f32a7b191d931f514,mexican,13 or older,"no, only English or Spanish",yes,2025-08-12_14h44.17.650,empathy_intonation_perc,2024.2.4,MacIntel,59.88023952,60fdd60f32a7b191d931f514,687ed1b7e638a4cbf2f02089,689b8b45d8b47a0ea9f6ba78,,,,,,,,,,,,,,,58,0,,./stim/wavs/mexican_match_declarative-broad-focus_Daniel-iba-a-Bolivia.wav,,,,,,,,,,,,,,,,,,,,,,373.8429,375.8763,0,1,1.5139,,0,25,25,57,1,0,mexican,,,,,,,,,,,,,,,,,,,,,,,,,,,,,,,,,,,,,,,,,,,,,,,,,,,,,,,,
,,,,,,,,,60fdd60f32a7b191d931f514,mexican,13 or older,"no, only English or Spanish",yes,2025-08-12_14h44.17.650,empathy_intonation_perc,2024.2.4,MacIntel,59.88023952,60fdd60f32a7b191d931f514,687ed1b7e638a4cbf2f02089,689b8b45d8b47a0ea9f6ba78,,,,,,,,,,,,,,,78,0,,./stim/wavs/cuban_mismatch_declarative-broad-focus_Mi-tia-odia-la-lluvia.wav,,,,,,,,,,,,,,,,,,,,,,375.877,378.8921,0,1,2.4887,,0,26,26,77,1,0,cuban,,,,,,,,,,,,,,,,,,,,,,,,,,,,,,,,,,,,,,,,,,,,,,,,,,,,,,,,
,,,,,,,,,60fdd60f32a7b191d931f514,mexican,13 or older,"no, only English or Spanish",yes,2025-08-12_14h44.17.650,empathy_intonation_perc,2024.2.4,MacIntel,59.88023952,60fdd60f32a7b191d931f514,687ed1b7e638a4cbf2f02089,689b8b45d8b47a0ea9f6ba78,,,,,,,,,,,,,,,28,1,,./stim/wavs/castilian_mismatch_interrogative-total-yn_Mi-novio-viene-del-lago.wav,,,,,,,,,,,,,,,,,,,,,,378.8924,381.1089,1,1,1.6816,,0,27,27,27,1,0,castilian,,,,,,,,,,,,,,,,,,,,,,,,,,,,,,,,,,,,,,,,,,,,,,,,,,,,,,,,
,,,,,,,,,60fdd60f32a7b191d931f514,mexican,13 or older,"no, only English or Spanish",yes,2025-08-12_14h44.17.650,empathy_intonation_perc,2024.2.4,MacIntel,59.88023952,60fdd60f32a7b191d931f514,687ed1b7e638a4cbf2f02089,689b8b45d8b47a0ea9f6ba78,,,,,,,,,,,,,,,59,0,,./stim/wavs/mexican_match_declarative-broad-focus_David-leia-el-libro.wav,,,,,,,,,,,,,,,,,,,,,,381.1095,383.0593,0,1,1.4283,,0,28,28,58,1,0,mexican,,,,,,,,,,,,,,,,,,,,,,,,,,,,,,,,,,,,,,,,,,,,,,,,,,,,,,,,
,,,,,,,,,60fdd60f32a7b191d931f514,mexican,13 or older,"no, only English or Spanish",yes,2025-08-12_14h44.17.650,empathy_intonation_perc,2024.2.4,MacIntel,59.88023952,60fdd60f32a7b191d931f514,687ed1b7e638a4cbf2f02089,689b8b45d8b47a0ea9f6ba78,,,,,,,,,,,,,,,48,0,,./stim/wavs/castilian_match_declarative-broad-focus_Maria-bebe-el-vino.wav,,,,,,,,,,,,,,,,,,,,,,383.0601,386.6259,0,1,3.0389,,0,29,29,47,1,0,castilian,,,,,,,,,,,,,,,,,,,,,,,,,,,,,,,,,,,,,,,,,,,,,,,,,,,,,,,,
,,,,,,,,,60fdd60f32a7b191d931f514,mexican,13 or older,"no, only English or Spanish",yes,2025-08-12_14h44.17.650,empathy_intonation_perc,2024.2.4,MacIntel,59.88023952,60fdd60f32a7b191d931f514,687ed1b7e638a4cbf2f02089,689b8b45d8b47a0ea9f6ba78,,,,,,,,,,,,,,,43,1,,./stim/wavs/puertorican_mismatch_interrogative-total-yn_La-nina-lava-el-plato.wav,,,,,,,,,,,,,,,,,,,,,,386.6266,388.6948,0,0,1.5376,,0,30,30,42,1,1,puertorican,,,,,,,,,,,,,,,,,,,,,,,,,,,,,,,,,,,,,,,,,,,,,,,,,,,,,,,,
,,,,,,,,,60fdd60f32a7b191d931f514,mexican,13 or older,"no, only English or Spanish",yes,2025-08-12_14h44.17.650,empathy_intonation_perc,2024.2.4,MacIntel,59.88023952,60fdd60f32a7b191d931f514,687ed1b7e638a4cbf2f02089,689b8b45d8b47a0ea9f6ba78,,,,,,,,,,,,,,,12,1,,./stim/wavs/cuban_match_interrogative-total-yn_Marta-abre-el-regalo.wav,,,,,,,,,,,,,,,,,,,,,,388.6958,391.3591,1,1,2.1381,,0,31,31,11,1,1,cuban,,,,,,,,,,,,,,,,,,,,,,,,,,,,,,,,,,,,,,,,,,,,,,,,,,,,,,,,
,,,,,,,,,60fdd60f32a7b191d931f514,mexican,13 or older,"no, only English or Spanish",yes,2025-08-12_14h44.17.650,empathy_intonation_perc,2024.2.4,MacIntel,59.88023952,60fdd60f32a7b191d931f514,687ed1b7e638a4cbf2f02089,689b8b45d8b47a0ea9f6ba78,,,,,,,,,,,,,,,40,1,,./stim/wavs/puertorican_mismatch_interrogative-total-yn_El-hombre-mira-la-luna.wav,,,,,,,,,,,,,,,,,,,,,,391.3601,394.3595,1,1,2.473,,0,32,32,39,1,1,puertorican,,,,,,,,,,,,,,,,,,,,,,,,,,,,,,,,,,,,,,,,,,,,,,,,,,,,,,,,
,,,,,,,,,60fdd60f32a7b191d931f514,mexican,13 or older,"no, only English or Spanish",yes,2025-08-12_14h44.17.650,empathy_intonation_perc,2024.2.4,MacIntel,59.88023952,60fdd60f32a7b191d931f514,687ed1b7e638a4cbf2f02089,689b8b45d8b47a0ea9f6ba78,,,,,,,,,,,,,,,66,0,,./stim/wavs/puertorican_match_declarative-broad-focus_Emilio-ama-la-marcha.wav,,,,,,,,,,,,,,,,,,,,,,394.3604,396.4092,0,1,1.5249,,0,33,33,65,1,0,puertorican,,,,,,,,,,,,,,,,,,,,,,,,,,,,,,,,,,,,,,,,,,,,,,,,,,,,,,,,
,,,,,,,,,60fdd60f32a7b191d931f514,mexican,13 or older,"no, only English or Spanish",yes,2025-08-12_14h44.17.650,empathy_intonation_perc,2024.2.4,MacIntel,59.88023952,60fdd60f32a7b191d931f514,687ed1b7e638a4cbf2f02089,689b8b45d8b47a0ea9f6ba78,,,,,,,,,,,,,,,9,1,,./stim/wavs/cuban_match_interrogative-total-yn_Manuela-vende-el-carro.wav,,,,,,,,,,,,,,,,,,,,,,396.4098,398.5585,0,0,1.6246,,0,34,34,8,1,1,cuban,,,,,,,,,,,,,,,,,,,,,,,,,,,,,,,,,,,,,,,,,,,,,,,,,,,,,,,,
,,,,,,,,,60fdd60f32a7b191d931f514,mexican,13 or older,"no, only English or Spanish",yes,2025-08-12_14h44.17.650,empathy_intonation_perc,2024.2.4,MacIntel,59.88023952,60fdd60f32a7b191d931f514,687ed1b7e638a4cbf2f02089,689b8b45d8b47a0ea9f6ba78,,,,,,,,,,,,,,,29,1,,./stim/wavs/castilian_mismatch_interrogative-total-yn_Mi-tia-odia-la-lluvia.wav,,,,,,,,,,,,,,,,,,,,,,398.5593,402.3098,1,1,3.2217,,0,35,35,28,1,0,castilian,,,,,,,,,,,,,,,,,,,,,,,,,,,,,,,,,,,,,,,,,,,,,,,,,,,,,,,,
,,,,,,,,,60fdd60f32a7b191d931f514,mexican,13 or older,"no, only English or Spanish",yes,2025-08-12_14h44.17.650,empathy_intonation_perc,2024.2.4,MacIntel,59.88023952,60fdd60f32a7b191d931f514,687ed1b7e638a4cbf2f02089,689b8b45d8b47a0ea9f6ba78,,,,,,,,,,,,,,,60,0,,./stim/wavs/mexican_match_declarative-broad-focus_Emilio-ama-la-marcha.wav,,,,,,,,,,,,,,,,,,,,,,402.3105,405.8764,0,1,3.0424,,0,36,36,59,1,0,mexican,,,,,,,,,,,,,,,,,,,,,,,,,,,,,,,,,,,,,,,,,,,,,,,,,,,,,,,,
,,,,,,,,,60fdd60f32a7b191d931f514,mexican,13 or older,"no, only English or Spanish",yes,2025-08-12_14h44.17.650,empathy_intonation_perc,2024.2.4,MacIntel,59.88023952,60fdd60f32a7b191d931f514,687ed1b7e638a4cbf2f02089,689b8b45d8b47a0ea9f6ba78,,,,,,,,,,,,,,,54,0,,./stim/wavs/cuban_match_declarative-broad-focus_Maria-bebe-el-vino.wav,,,,,,,,,,,,,,,,,,,,,,405.877,407.8264,0,1,1.422,,0,37,37,53,1,0,cuban,,,,,,,,,,,,,,,,,,,,,,,,,,,,,,,,,,,,,,,,,,,,,,,,,,,,,,,,
,,,,,,,,,60fdd60f32a7b191d931f514,mexican,13 or older,"no, only English or Spanish",yes,2025-08-12_14h44.17.650,empathy_intonation_perc,2024.2.4,MacIntel,59.88023952,60fdd60f32a7b191d931f514,687ed1b7e638a4cbf2f02089,689b8b45d8b47a0ea9f6ba78,,,,,,,,,,,,,,,51,0,,./stim/wavs/cuban_match_declarative-broad-focus_Ana-lleva-el-abrigo.wav,,,,,,,,,,,,,,,,,,,,,,407.8274,409.5924,0,1,1.2366,,0,38,38,50,1,0,cuban,,,,,,,,,,,,,,,,,,,,,,,,,,,,,,,,,,,,,,,,,,,,,,,,,,,,,,,,
,,,,,,,,,60fdd60f32a7b191d931f514,mexican,13 or older,"no, only English or Spanish",yes,2025-08-12_14h44.17.650,empathy_intonation_perc,2024.2.4,MacIntel,59.88023952,60fdd60f32a7b191d931f514,687ed1b7e638a4cbf2f02089,689b8b45d8b47a0ea9f6ba78,,,,,,,,,,,,,,,76,0,,./stim/wavs/cuban_mismatch_declarative-broad-focus_La-nina-lava-el-plato.wav,,,,,,,,,,,,,,,,,,,,,,409.5932,411.7433,0,1,1.6209,,0,39,39,75,1,0,cuban,,,,,,,,,,,,,,,,,,,,,,,,,,,,,,,,,,,,,,,,,,,,,,,,,,,,,,,,
,,,,,,,,,60fdd60f32a7b191d931f514,mexican,13 or older,"no, only English or Spanish",yes,2025-08-12_14h44.17.650,empathy_intonation_perc,2024.2.4,MacIntel,59.88023952,60fdd60f32a7b191d931f514,687ed1b7e638a4cbf2f02089,689b8b45d8b47a0ea9f6ba78,,,,,,,,,,,,,,,10,1,,./stim/wavs/cuban_match_interrogative-total-yn_Maria-bebe-el-vino.wav,,,,,,,,,,,,,,,,,,,,,,411.744,415.3427,0,0,3.074,,0,40,40,9,1,1,cuban,,,,,,,,,,,,,,,,,,,,,,,,,,,,,,,,,,,,,,,,,,,,,,,,,,,,,,,,
,,,,,,,,,60fdd60f32a7b191d931f514,mexican,13 or older,"no, only English or Spanish",yes,2025-08-12_14h44.17.650,empathy_intonation_perc,2024.2.4,MacIntel,59.88023952,60fdd60f32a7b191d931f514,687ed1b7e638a4cbf2f02089,689b8b45d8b47a0ea9f6ba78,,,,,,,,,,,,,,,52,0,,./stim/wavs/cuban_match_declarative-broad-focus_Daniel-iba-a-Bolivia.wav,,,,,,,,,,,,,,,,,,,,,,415.3435,417.66,0,1,1.7893,,0,41,41,51,1,0,cuban,,,,,,,,,,,,,,,,,,,,,,,,,,,,,,,,,,,,,,,,,,,,,,,,,,,,,,,,
,,,,,,,,,60fdd60f32a7b191d931f514,mexican,13 or older,"no, only English or Spanish",yes,2025-08-12_14h44.17.650,empathy_intonation_perc,2024.2.4,MacIntel,59.88023952,60fdd60f32a7b191d931f514,687ed1b7e638a4cbf2f02089,689b8b45d8b47a0ea9f6ba78,,,,,,,,,,,,,,,62,0,,./stim/wavs/mexican_match_declarative-broad-focus_Marta-abre-el-regalo.wav,,,,,,,,,,,,,,,,,,,,,,417.6609,420.3595,0,1,2.1693,,0,42,42,61,1,0,mexican,,,,,,,,,,,,,,,,,,,,,,,,,,,,,,,,,,,,,,,,,,,,,,,,,,,,,,,,
,,,,,,,,,60fdd60f32a7b191d931f514,mexican,13 or older,"no, only English or Spanish",yes,2025-08-12_14h44.17.650,empathy_intonation_perc,2024.2.4,MacIntel,59.88023952,60fdd60f32a7b191d931f514,687ed1b7e638a4cbf2f02089,689b8b45d8b47a0ea9f6ba78,,,,,,,,,,,,,,,8,1,,./stim/wavs/cuban_match_interrogative-total-yn_Daniel-iba-a-Bolivia.wav,,,,,,,,,,,,,,,,,,,,,,420.3609,422.5938,1,1,1.7116,,0,43,43,7,1,1,cuban,,,,,,,,,,,,,,,,,,,,,,,,,,,,,,,,,,,,,,,,,,,,,,,,,,,,,,,,
,,,,,,,,,60fdd60f32a7b191d931f514,mexican,13 or older,"no, only English or Spanish",yes,2025-08-12_14h44.17.650,empathy_intonation_perc,2024.2.4,MacIntel,59.88023952,60fdd60f32a7b191d931f514,687ed1b7e638a4cbf2f02089,689b8b45d8b47a0ea9f6ba78,,,,,,,,,,,,,,,34,1,,./stim/wavs/cuban_mismatch_interrogative-total-yn_Mi-tia-odia-la-lluvia.wav,,,,,,,,,,,,,,,,,,,,,,422.5946,424.8437,0,0,1.7161,,0,44,44,33,1,1,cuban,,,,,,,,,,,,,,,,,,,,,,,,,,,,,,,,,,,,,,,,,,,,,,,,,,,,,,,,
,,,,,,,,,60fdd60f32a7b191d931f514,mexican,13 or older,"no, only English or Spanish",yes,2025-08-12_14h44.17.650,empathy_intonation_perc,2024.2.4,MacIntel,59.88023952,60fdd60f32a7b191d931f514,687ed1b7e638a4cbf2f02089,689b8b45d8b47a0ea9f6ba78,,,,,,,,,,,,,,,50,0,,./stim/wavs/castilian_match_declarative-broad-focus_Marta-abre-el-regalo.wav,,,,,,,,,,,,,,,,,,,,,,424.8443,426.6602,1,0,1.287,,0,45,45,49,1,0,castilian,,,,,,,,,,,,,,,,,,,,,,,,,,,,,,,,,,,,,,,,,,,,,,,,,,,,,,,,
,,,,,,,,,60fdd60f32a7b191d931f514,mexican,13 or older,"no, only English or Spanish",yes,2025-08-12_14h44.17.650,empathy_intonation_perc,2024.2.4,MacIntel,59.88023952,60fdd60f32a7b191d931f514,687ed1b7e638a4cbf2f02089,689b8b45d8b47a0ea9f6ba78,,,,,,,,,,,,,,,45,0,,./stim/wavs/castilian_match_declarative-broad-focus_David-leia-el-libro.wav,,,,,,,,,,,,,,,,,,,,,,426.661,428.9097,0,1,1.7229,,0,46,46,44,1,0,castilian,,,,,,,,,,,,,,,,,,,,,,,,,,,,,,,,,,,,,,,,,,,,,,,,,,,,,,,,
,,,,,,,,,60fdd60f32a7b191d931f514,mexican,13 or older,"no, only English or Spanish",yes,2025-08-12_14h44.17.650,empathy_intonation_perc,2024.2.4,MacIntel,59.88023952,60fdd60f32a7b191d931f514,687ed1b7e638a4cbf2f02089,689b8b45d8b47a0ea9f6ba78,,,,,,,,,,,,,,,61,0,,./stim/wavs/mexican_match_declarative-broad-focus_Mariano-habla-del-tiempo.wav,,,,,,,,,,,,,,,,,,,,,,428.9105,431.043,0,1,1.6121,,0,47,47,60,1,0,mexican,,,,,,,,,,,,,,,,,,,,,,,,,,,,,,,,,,,,,,,,,,,,,,,,,,,,,,,,
,,,,,,,,,60fdd60f32a7b191d931f514,mexican,13 or older,"no, only English or Spanish",yes,2025-08-12_14h44.17.650,empathy_intonation_perc,2024.2.4,MacIntel,59.88023952,60fdd60f32a7b191d931f514,687ed1b7e638a4cbf2f02089,689b8b45d8b47a0ea9f6ba78,,,,,,,,,,,,,,,85,0,,./stim/wavs/puertorican_mismatch_declarative-broad-focus_El-hombre-mira-la-luna.wav,,,,,,,,,,,,,,,,,,,,,,431.0437,432.9604,0,1,1.4032,,0,48,48,84,1,0,puertorican,,,,,,,,,,,,,,,,,,,,,,,,,,,,,,,,,,,,,,,,,,,,,,,,,,,,,,,,
,,,,,,,,,60fdd60f32a7b191d931f514,mexican,13 or older,"no, only English or Spanish",yes,2025-08-12_14h44.17.650,empathy_intonation_perc,2024.2.4,MacIntel,59.88023952,60fdd60f32a7b191d931f514,687ed1b7e638a4cbf2f02089,689b8b45d8b47a0ea9f6ba78,,,,,,,,,,,,,,,69,0,,./stim/wavs/castilian_mismatch_declarative-broad-focus_El-nino-oye-el-rio.wav,,,,,,,,,,,,,,,,,,,,,,432.9613,435.1603,0,1,1.6684,,0,49,49,68,1,0,castilian,,,,,,,,,,,,,,,,,,,,,,,,,,,,,,,,,,,,,,,,,,,,,,,,,,,,,,,,
,,,,,,,,,60fdd60f32a7b191d931f514,mexican,13 or older,"no, only English or Spanish",yes,2025-08-12_14h44.17.650,empathy_intonation_perc,2024.2.4,MacIntel,59.88023952,60fdd60f32a7b191d931f514,687ed1b7e638a4cbf2f02089,689b8b45d8b47a0ea9f6ba78,,,,,,,,,,,,,,,84,0,,./stim/wavs/puertorican_mismatch_declarative-broad-focus_El-bebe-comia-muy-bien.wav,,,,,,,,,,,,,,,,,,,,,,435.1609,437.2103,0,1,1.5235,,0,50,50,83,1,0,puertorican,,,,,,,,,,,,,,,,,,,,,,,,,,,,,,,,,,,,,,,,,,,,,,,,,,,,,,,,
,,,,,,,,,60fdd60f32a7b191d931f514,mexican,13 or older,"no, only English or Spanish",yes,2025-08-12_14h44.17.650,empathy_intonation_perc,2024.2.4,MacIntel,59.88023952,60fdd60f32a7b191d931f514,687ed1b7e638a4cbf2f02089,689b8b45d8b47a0ea9f6ba78,,,,,,,,,,,,,,,65,0,,./stim/wavs/puertorican_match_declarative-broad-focus_David-leia-el-libro.wav,,,,,,,,,,,,,,,,,,,,,,437.2109,439.327,0,1,1.5871,,0,51,51,64,1,0,puertorican,,,,,,,,,,,,,,,,,,,,,,,,,,,,,,,,,,,,,,,,,,,,,,,,,,,,,,,,
,,,,,,,,,60fdd60f32a7b191d931f514,mexican,13 or older,"no, only English or Spanish",yes,2025-08-12_14h44.17.650,empathy_intonation_perc,2024.2.4,MacIntel,59.88023952,60fdd60f32a7b191d931f514,687ed1b7e638a4cbf2f02089,689b8b45d8b47a0ea9f6ba78,,,,,,,,,,,,,,,32,1,,./stim/wavs/cuban_mismatch_interrogative-total-yn_Mi-madre-come-la-fruta.wav,,,,,,,,,,,,,,,,,,,,,,439.3278,441.9099,0,0,2.0529,,0,52,52,31,1,1,cuban,,,,,,,,,,,,,,,,,,,,,,,,,,,,,,,,,,,,,,,,,,,,,,,,,,,,,,,,
,,,,,,,,,60fdd60f32a7b191d931f514,mexican,13 or older,"no, only English or Spanish",yes,2025-08-12_14h44.17.650,empathy_intonation_perc,2024.2.4,MacIntel,59.88023952,60fdd60f32a7b191d931f514,687ed1b7e638a4cbf2f02089,689b8b45d8b47a0ea9f6ba78,,,,,,,,,,,,,,,82,0,,./stim/wavs/mexican_mismatch_declarative-broad-focus_Mi-novio-viene-del-lago.wav,,,,,,,,,,,,,,,,,,,,,,441.9106,443.7435,0,1,1.3029,,0,53,53,81,1,0,mexican,,,,,,,,,,,,,,,,,,,,,,,,,,,,,,,,,,,,,,,,,,,,,,,,,,,,,,,,
,,,,,,,,,60fdd60f32a7b191d931f514,mexican,13 or older,"no, only English or Spanish",yes,2025-08-12_14h44.17.650,empathy_intonation_perc,2024.2.4,MacIntel,59.88023952,60fdd60f32a7b191d931f514,687ed1b7e638a4cbf2f02089,689b8b45d8b47a0ea9f6ba78,,,,,,,,,,,,,,,14,1,,./stim/wavs/mexican_match_interrogative-total-yn_Daniel-iba-a-Bolivia.wav,,,,,,,,,,,,,,,,,,,,,,443.7443,445.7939,1,1,1.522,,0,54,54,13,1,0,mexican,,,,,,,,,,,,,,,,,,,,,,,,,,,,,,,,,,,,,,,,,,,,,,,,,,,,,,,,
,,,,,,,,,60fdd60f32a7b191d931f514,mexican,13 or older,"no, only English or Spanish",yes,2025-08-12_14h44.17.650,empathy_intonation_perc,2024.2.4,MacIntel,59.88023952,60fdd60f32a7b191d931f514,687ed1b7e638a4cbf2f02089,689b8b45d8b47a0ea9f6ba78,,,,,,,,,,,,,,,22,1,,./stim/wavs/puertorican_match_interrogative-total-yn_Emilio-ama-la-marcha.wav,,,,,,,,,,,,,,,,,,,,,,445.7962,447.8602,0,0,1.5362,,0,55,55,21,1,1,puertorican,,,,,,,,,,,,,,,,,,,,,,,,,,,,,,,,,,,,,,,,,,,,,,,,,,,,,,,,
,,,,,,,,,60fdd60f32a7b191d931f514,mexican,13 or older,"no, only English or Spanish",yes,2025-08-12_14h44.17.650,empathy_intonation_perc,2024.2.4,MacIntel,59.88023952,60fdd60f32a7b191d931f514,687ed1b7e638a4cbf2f02089,689b8b45d8b47a0ea9f6ba78,,,,,,,,,,,,,,,79,0,,./stim/wavs/mexican_mismatch_declarative-broad-focus_El-bebe-comia-muy-bien.wav,,,,,,,,,,,,,,,,,,,,,,447.8608,450.4609,0,1,2.0795,,0,56,56,78,1,0,mexican,,,,,,,,,,,,,,,,,,,,,,,,,,,,,,,,,,,,,,,,,,,,,,,,,,,,,,,,
,,,,,,,,,60fdd60f32a7b191d931f514,mexican,13 or older,"no, only English or Spanish",yes,2025-08-12_14h44.17.650,empathy_intonation_perc,2024.2.4,MacIntel,59.88023952,60fdd60f32a7b191d931f514,687ed1b7e638a4cbf2f02089,689b8b45d8b47a0ea9f6ba78,,,,,,,,,,,,,,,7,1,,./stim/wavs/cuban_match_interrogative-total-yn_Ana-lleva-el-abrigo.wav,,,,,,,,,,,,,,,,,,,,,,450.4617,452.394,0,0,1.4056,,0,57,57,6,1,1,cuban,,,,,,,,,,,,,,,,,,,,,,,,,,,,,,,,,,,,,,,,,,,,,,,,,,,,,,,,
,,,,,,,,,60fdd60f32a7b191d931f514,mexican,13 or older,"no, only English or Spanish",yes,2025-08-12_14h44.17.650,empathy_intonation_perc,2024.2.4,MacIntel,59.88023952,60fdd60f32a7b191d931f514,687ed1b7e638a4cbf2f02089,689b8b45d8b47a0ea9f6ba78,,,,,,,,,,,,,,,41,1,,./stim/wavs/puertorican_mismatch_interrogative-total-yn_El-nino-oye-el-rio.wav,,,,,,,,,,,,,,,,,,,,,,452.3947,454.4608,0,0,1.5379,,0,58,58,40,1,1,puertorican,,,,,,,,,,,,,,,,,,,,,,,,,,,,,,,,,,,,,,,,,,,,,,,,,,,,,,,,
,,,,,,,,,60fdd60f32a7b191d931f514,mexican,13 or older,"no, only English or Spanish",yes,2025-08-12_14h44.17.650,empathy_intonation_perc,2024.2.4,MacIntel,59.88023952,60fdd60f32a7b191d931f514,687ed1b7e638a4cbf2f02089,689b8b45d8b47a0ea9f6ba78,,,,,,,,,,,,,,,24,1,,./stim/wavs/puertorican_match_interrogative-total-yn_Maria-bebe-el-vino.wav,,,,,,,,,,,,,,,,,,,,,,454.4617,456.4274,0,0,1.4373,,0,59,59,23,1,1,puertorican,,,,,,,,,,,,,,,,,,,,,,,,,,,,,,,,,,,,,,,,,,,,,,,,,,,,,,,,
,,,,,,,,,60fdd60f32a7b191d931f514,mexican,13 or older,"no, only English or Spanish",yes,2025-08-12_14h44.17.650,empathy_intonation_perc,2024.2.4,MacIntel,59.88023952,60fdd60f32a7b191d931f514,687ed1b7e638a4cbf2f02089,689b8b45d8b47a0ea9f6ba78,,,,,,,,,,,,,,,2,1,,./stim/wavs/castilian_match_interrogative-total-yn_Emilio-ama-la-marcha.wav,,,,,,,,,,,,,,,,,,,,,,456.4283,458.1941,1,1,1.2378,,0,60,60,1,1,0,castilian,,,,,,,,,,,,,,,,,,,,,,,,,,,,,,,,,,,,,,,,,,,,,,,,,,,,,,,,
,,,,,,,,,60fdd60f32a7b191d931f514,mexican,13 or older,"no, only English or Spanish",yes,2025-08-12_14h44.17.650,empathy_intonation_perc,2024.2.4,MacIntel,59.88023952,60fdd60f32a7b191d931f514,687ed1b7e638a4cbf2f02089,689b8b45d8b47a0ea9f6ba78,,,,,,,,,,,,,,,20,1,,./stim/wavs/puertorican_match_interrogative-total-yn_Daniel-iba-a-Bolivia.wav,,,,,,,,,,,,,,,,,,,,,,458.195,460.5322,0,0,1.8173,,0,61,61,19,1,1,puertorican,,,,,,,,,,,,,,,,,,,,,,,,,,,,,,,,,,,,,,,,,,,,,,,,,,,,,,,,
,,,,,,,,,60fdd60f32a7b191d931f514,mexican,13 or older,"no, only English or Spanish",yes,2025-08-12_14h44.17.650,empathy_intonation_perc,2024.2.4,MacIntel,59.88023952,60fdd60f32a7b191d931f514,687ed1b7e638a4cbf2f02089,689b8b45d8b47a0ea9f6ba78,,,,,,,,,,,,,,,44,1,,./stim/wavs/puertorican_mismatch_interrogative-total-yn_Mi-madre-come-la-fruta.wav,,,,,,,,,,,,,,,,,,,,,,460.5325,462.4769,0,0,1.4164,,0,62,62,43,1,1,puertorican,,,,,,,,,,,,,,,,,,,,,,,,,,,,,,,,,,,,,,,,,,,,,,,,,,,,,,,,
,,,,,,,,,60fdd60f32a7b191d931f514,mexican,13 or older,"no, only English or Spanish",yes,2025-08-12_14h44.17.650,empathy_intonation_perc,2024.2.4,MacIntel,59.88023952,60fdd60f32a7b191d931f514,687ed1b7e638a4cbf2f02089,689b8b45d8b47a0ea9f6ba78,,,,,,,,,,,,,,,88,0,,./stim/wavs/puertorican_mismatch_declarative-broad-focus_La-nina-lava-el-plato.wav,,,,,,,,,,,,,,,,,,,,,,462.4776,464.1438,0,1,1.1395,,0,63,63,87,1,0,puertorican,,,,,,,,,,,,,,,,,,,,,,,,,,,,,,,,,,,,,,,,,,,,,,,,,,,,,,,,
,,,,,,,,,60fdd60f32a7b191d931f514,mexican,13 or older,"no, only English or Spanish",yes,2025-08-12_14h44.17.650,empathy_intonation_perc,2024.2.4,MacIntel,59.88023952,60fdd60f32a7b191d931f514,687ed1b7e638a4cbf2f02089,689b8b45d8b47a0ea9f6ba78,,,,,,,,,,,,,,,57,0,,./stim/wavs/mexican_match_declarative-broad-focus_Ana-lleva-el-abrigo.wav,,,,,,,,,,,,,,,,,,,,,,464.1443,466.0939,0,1,1.4268,,0,64,64,56,1,0,mexican,,,,,,,,,,,,,,,,,,,,,,,,,,,,,,,,,,,,,,,,,,,,,,,,,,,,,,,,
,,,,,,,,,60fdd60f32a7b191d931f514,mexican,13 or older,"no, only English or Spanish",yes,2025-08-12_14h44.17.650,empathy_intonation_perc,2024.2.4,MacIntel,59.88023952,60fdd60f32a7b191d931f514,687ed1b7e638a4cbf2f02089,689b8b45d8b47a0ea9f6ba78,,,,,,,,,,,,,,,46,0,,./stim/wavs/castilian_match_declarative-broad-focus_Emilio-ama-la-marcha.wav,,,,,,,,,,,,,,,,,,,,,,466.0947,468.3442,0,1,1.7188,,0,65,65,45,1,0,castilian,,,,,,,,,,,,,,,,,,,,,,,,,,,,,,,,,,,,,,,,,,,,,,,,,,,,,,,,
,,,,,,,,,60fdd60f32a7b191d931f514,mexican,13 or older,"no, only English or Spanish",yes,2025-08-12_14h44.17.650,empathy_intonation_perc,2024.2.4,MacIntel,59.88023952,60fdd60f32a7b191d931f514,687ed1b7e638a4cbf2f02089,689b8b45d8b47a0ea9f6ba78,,,,,,,,,,,,,,,18,1,,./stim/wavs/mexican_match_interrogative-total-yn_Marta-abre-el-regalo.wav,,,,,,,,,,,,,,,,,,,,,,468.345,470.261,1,1,1.3836,,0,66,66,17,1,0,mexican,,,,,,,,,,,,,,,,,,,,,,,,,,,,,,,,,,,,,,,,,,,,,,,,,,,,,,,,
,,,,,,,,,60fdd60f32a7b191d931f514,mexican,13 or older,"no, only English or Spanish",yes,2025-08-12_14h44.17.650,empathy_intonation_perc,2024.2.4,MacIntel,59.88023952,60fdd60f32a7b191d931f514,687ed1b7e638a4cbf2f02089,689b8b45d8b47a0ea9f6ba78,,,,,,,,,,,,,,,80,0,,./stim/wavs/mexican_mismatch_declarative-broad-focus_El-hombre-mira-la-luna.wav,,,,,,,,,,,,,,,,,,,,,,470.2617,472.4443,0,1,1.6528,,0,67,67,79,1,0,mexican,,,,,,,,,,,,,,,,,,,,,,,,,,,,,,,,,,,,,,,,,,,,,,,,,,,,,,,,
,,,,,,,,,60fdd60f32a7b191d931f514,mexican,13 or older,"no, only English or Spanish",yes,2025-08-12_14h44.17.650,empathy_intonation_perc,2024.2.4,MacIntel,59.88023952,60fdd60f32a7b191d931f514,687ed1b7e638a4cbf2f02089,689b8b45d8b47a0ea9f6ba78,,,,,,,,,,,,,,,63,0,,./stim/wavs/puertorican_match_declarative-broad-focus_Ana-lleva-el-abrigo.wav,,,,,,,,,,,,,,,,,,,,,,472.4452,474.5943,0,1,1.6187,,0,68,68,62,1,0,puertorican,,,,,,,,,,,,,,,,,,,,,,,,,,,,,,,,,,,,,,,,,,,,,,,,,,,,,,,,
,,,,,,,,,60fdd60f32a7b191d931f514,mexican,13 or older,"no, only English or Spanish",yes,2025-08-12_14h44.17.650,empathy_intonation_perc,2024.2.4,MacIntel,59.88023952,60fdd60f32a7b191d931f514,687ed1b7e638a4cbf2f02089,689b8b45d8b47a0ea9f6ba78,,,,,,,,,,,,,,,73,0,,./stim/wavs/castilian_mismatch_declarative-broad-focus_Mi-tia-odia-la-lluvia.wav,,,,,,,,,,,,,,,,,,,,,,474.595,476.7277,0,1,1.6015,,0,69,69,72,1,0,castilian,,,,,,,,,,,,,,,,,,,,,,,,,,,,,,,,,,,,,,,,,,,,,,,,,,,,,,,,
,,,,,,,,,60fdd60f32a7b191d931f514,mexican,13 or older,"no, only English or Spanish",yes,2025-08-12_14h44.17.650,empathy_intonation_perc,2024.2.4,MacIntel,59.88023952,60fdd60f32a7b191d931f514,687ed1b7e638a4cbf2f02089,689b8b45d8b47a0ea9f6ba78,,,,,,,,,,,,,,,15,1,,./stim/wavs/mexican_match_interrogative-total-yn_David-leia-el-libro.wav,,,,,,,,,,,,,,,,,,,,,,476.7283,479.0609,0,0,1.801,,0,70,70,14,1,0,mexican,,,,,,,,,,,,,,,,,,,,,,,,,,,,,,,,,,,,,,,,,,,,,,,,,,,,,,,,
,,,,,,,,,60fdd60f32a7b191d931f514,mexican,13 or older,"no, only English or Spanish",yes,2025-08-12_14h44.17.650,empathy_intonation_perc,2024.2.4,MacIntel,59.88023952,60fdd60f32a7b191d931f514,687ed1b7e638a4cbf2f02089,689b8b45d8b47a0ea9f6ba78,,,,,,,,,,,,,,,33,1,,./stim/wavs/cuban_mismatch_interrogative-total-yn_Mi-novio-viene-del-lago.wav,,,,,,,,,,,,,,,,,,,,,,479.0634,481.1107,0,0,1.5235,,0,71,71,32,1,1,cuban,,,,,,,,,,,,,,,,,,,,,,,,,,,,,,,,,,,,,,,,,,,,,,,,,,,,,,,,
,,,,,,,,,60fdd60f32a7b191d931f514,mexican,13 or older,"no, only English or Spanish",yes,2025-08-12_14h44.17.650,empathy_intonation_perc,2024.2.4,MacIntel,59.88023952,60fdd60f32a7b191d931f514,687ed1b7e638a4cbf2f02089,689b8b45d8b47a0ea9f6ba78,,,,,,,,,,,,,,,36,1,,./stim/wavs/mexican_mismatch_interrogative-total-yn_El-nino-oye-el-rio.wav,,,,,,,,,,,,,,,,,,,,,,481.1114,482.9607,1,1,1.3214,,0,72,72,35,1,0,mexican,,,,,,,,,,,,,,,,,,,,,,,,,,,,,,,,,,,,,,,,,,,,,,,,,,,,,,,,
,,,,,,,,,60fdd60f32a7b191d931f514,mexican,13 or older,"no, only English or Spanish",yes,2025-08-12_14h44.17.650,empathy_intonation_perc,2024.2.4,MacIntel,59.88023952,60fdd60f32a7b191d931f514,687ed1b7e638a4cbf2f02089,689b8b45d8b47a0ea9f6ba78,,,,,,,,,,,,,,,16,1,,./stim/wavs/mexican_match_interrogative-total-yn_Emilio-ama-la-marcha.wav,,,,,,,,,,,,,,,,,,,,,,482.9611,485.2112,1,1,1.7329,,0,73,73,15,1,0,mexican,,,,,,,,,,,,,,,,,,,,,,,,,,,,,,,,,,,,,,,,,,,,,,,,,,,,,,,,
,,,,,,,,,60fdd60f32a7b191d931f514,mexican,13 or older,"no, only English or Spanish",yes,2025-08-12_14h44.17.650,empathy_intonation_perc,2024.2.4,MacIntel,59.88023952,60fdd60f32a7b191d931f514,687ed1b7e638a4cbf2f02089,689b8b45d8b47a0ea9f6ba78,,,,,,,,,,,,,,,1,1,,./stim/wavs/castilian_match_interrogative-total-yn_David-leia-el-libro.wav,,,,,,,,,,,,,,,,,,,,,,485.2122,487.3611,1,1,1.6247,,0,74,74,0,1,0,castilian,,,,,,,,,,,,,,,,,,,,,,,,,,,,,,,,,,,,,,,,,,,,,,,,,,,,,,,,
,,,,,,,,,60fdd60f32a7b191d931f514,mexican,13 or older,"no, only English or Spanish",yes,2025-08-12_14h44.17.650,empathy_intonation_perc,2024.2.4,MacIntel,59.88023952,60fdd60f32a7b191d931f514,687ed1b7e638a4cbf2f02089,689b8b45d8b47a0ea9f6ba78,,,,,,,,,,,,,,,68,0,,./stim/wavs/puertorican_match_declarative-broad-focus_Maria-bebe-el-vino.wav,,,,,,,,,,,,,,,,,,,,,,487.3618,489.7613,1,0,1.8685,,0,75,75,67,1,0,puertorican,,,,,,,,,,,,,,,,,,,,,,,,,,,,,,,,,,,,,,,,,,,,,,,,,,,,,,,,
,,,,,,,,,60fdd60f32a7b191d931f514,mexican,13 or older,"no, only English or Spanish",yes,2025-08-12_14h44.17.650,empathy_intonation_perc,2024.2.4,MacIntel,59.88023952,60fdd60f32a7b191d931f514,687ed1b7e638a4cbf2f02089,689b8b45d8b47a0ea9f6ba78,,,,,,,,,,,,,,,17,1,,./stim/wavs/mexican_match_interrogative-total-yn_Mariano-habla-del-tiempo.wav,,,,,,,,,,,,,,,,,,,,,,489.7619,491.9775,1,1,1.6861,,0,76,76,16,1,0,mexican,,,,,,,,,,,,,,,,,,,,,,,,,,,,,,,,,,,,,,,,,,,,,,,,,,,,,,,,
,,,,,,,,,60fdd60f32a7b191d931f514,mexican,13 or older,"no, only English or Spanish",yes,2025-08-12_14h44.17.650,empathy_intonation_perc,2024.2.4,MacIntel,59.88023952,60fdd60f32a7b191d931f514,687ed1b7e638a4cbf2f02089,689b8b45d8b47a0ea9f6ba78,,,,,,,,,,,,,,,55,0,,./stim/wavs/cuban_match_declarative-broad-focus_Mariano-habla-del-tiempo.wav,,,,,,,,,,,,,,,,,,,,,,491.9782,493.9951,0,1,1.4956,,0,77,77,54,1,0,cuban,,,,,,,,,,,,,,,,,,,,,,,,,,,,,,,,,,,,,,,,,,,,,,,,,,,,,,,,
,,,,,,,,,60fdd60f32a7b191d931f514,mexican,13 or older,"no, only English or Spanish",yes,2025-08-12_14h44.17.650,empathy_intonation_perc,2024.2.4,MacIntel,59.88023952,60fdd60f32a7b191d931f514,687ed1b7e638a4cbf2f02089,689b8b45d8b47a0ea9f6ba78,,,,,,,,,,,,,,,30,1,,./stim/wavs/cuban_mismatch_interrogative-total-yn_El-hombre-mira-la-luna.wav,,,,,,,,,,,,,,,,,,,,,,493.9957,496.0446,0,0,1.5268,,0,78,78,29,1,1,cuban,,,,,,,,,,,,,,,,,,,,,,,,,,,,,,,,,,,,,,,,,,,,,,,,,,,,,,,,
,,,,,,,,,60fdd60f32a7b191d931f514,mexican,13 or older,"no, only English or Spanish",yes,2025-08-12_14h44.17.650,empathy_intonation_perc,2024.2.4,MacIntel,59.88023952,60fdd60f32a7b191d931f514,687ed1b7e638a4cbf2f02089,689b8b45d8b47a0ea9f6ba78,,,,,,,,,,,,,,,83,0,,./stim/wavs/mexican_mismatch_declarative-broad-focus_Mi-tia-odia-la-lluvia.wav,,,,,,,,,,,,,,,,,,,,,,496.045,498.0116,0,1,1.4396,,0,79,79,82,1,0,mexican,,,,,,,,,,,,,,,,,,,,,,,,,,,,,,,,,,,,,,,,,,,,,,,,,,,,,,,,
,,,,,,,,,60fdd60f32a7b191d931f514,mexican,13 or older,"no, only English or Spanish",yes,2025-08-12_14h44.17.650,empathy_intonation_perc,2024.2.4,MacIntel,59.88023952,60fdd60f32a7b191d931f514,687ed1b7e638a4cbf2f02089,689b8b45d8b47a0ea9f6ba78,,,,,,,,,,,,,,,3,1,,./stim/wavs/castilian_match_interrogative-total-yn_Manuela-vende-el-carro.wav,,,,,,,,,,,,,,,,,,,,,,498.0123,500.0949,1,1,1.5507,,0,80,80,2,1,0,castilian,,,,,,,,,,,,,,,,,,,,,,,,,,,,,,,,,,,,,,,,,,,,,,,,,,,,,,,,
,,,,,,,,,60fdd60f32a7b191d931f514,mexican,13 or older,"no, only English or Spanish",yes,2025-08-12_14h44.17.650,empathy_intonation_perc,2024.2.4,MacIntel,59.88023952,60fdd60f32a7b191d931f514,687ed1b7e638a4cbf2f02089,689b8b45d8b47a0ea9f6ba78,,,,,,,,,,,,,,,21,1,,./stim/wavs/puertorican_match_interrogative-total-yn_David-leia-el-libro.wav,,,,,,,,,,,,,,,,,,,,,,500.0956,502.2279,0,0,1.6048,,0,81,81,20,1,1,puertorican,,,,,,,,,,,,,,,,,,,,,,,,,,,,,,,,,,,,,,,,,,,,,,,,,,,,,,,,
,,,,,,,,,60fdd60f32a7b191d931f514,mexican,13 or older,"no, only English or Spanish",yes,2025-08-12_14h44.17.650,empathy_intonation_perc,2024.2.4,MacIntel,59.88023952,60fdd60f32a7b191d931f514,687ed1b7e638a4cbf2f02089,689b8b45d8b47a0ea9f6ba78,,,,,,,,,,,,,,,64,0,,./stim/wavs/puertorican_match_declarative-broad-focus_Daniel-iba-a-Bolivia.wav,,,,,,,,,,,,,,,,,,,,,,502.2288,504.078,0,1,1.3276,,0,82,82,63,1,0,puertorican,,,,,,,,,,,,,,,,,,,,,,,,,,,,,,,,,,,,,,,,,,,,,,,,,,,,,,,,
,,,,,,,,,60fdd60f32a7b191d931f514,mexican,13 or older,"no, only English or Spanish",yes,2025-08-12_14h44.17.650,empathy_intonation_perc,2024.2.4,MacIntel,59.88023952,60fdd60f32a7b191d931f514,687ed1b7e638a4cbf2f02089,689b8b45d8b47a0ea9f6ba78,,,,,,,,,,,,,,,67,0,,./stim/wavs/puertorican_match_declarative-broad-focus_Manuela-vende-el-carro.wav,,,,,,,,,,,,,,,,,,,,,,504.0785,506.4451,0,1,1.836,,0,83,83,66,1,0,puertorican,,,,,,,,,,,,,,,,,,,,,,,,,,,,,,,,,,,,,,,,,,,,,,,,,,,,,,,,
,,,,,,,,,60fdd60f32a7b191d931f514,mexican,13 or older,"no, only English or Spanish",yes,2025-08-12_14h44.17.650,empathy_intonation_perc,2024.2.4,MacIntel,59.88023952,60fdd60f32a7b191d931f514,687ed1b7e638a4cbf2f02089,689b8b45d8b47a0ea9f6ba78,,,,,,,,,,,,,,,42,1,,./stim/wavs/puertorican_mismatch_interrogative-total-yn_La-maestra-vive-en-Paris.wav,,,,,,,,,,,,,,,,,,,,,,506.4457,508.8618,0,0,1.8853,,0,84,84,41,1,1,puertorican,,,,,,,,,,,,,,,,,,,,,,,,,,,,,,,,,,,,,,,,,,,,,,,,,,,,,,,,
,,,,,,,,,60fdd60f32a7b191d931f514,mexican,13 or older,"no, only English or Spanish",yes,2025-08-12_14h44.17.650,empathy_intonation_perc,2024.2.4,MacIntel,59.88023952,60fdd60f32a7b191d931f514,687ed1b7e638a4cbf2f02089,689b8b45d8b47a0ea9f6ba78,,,,,,,,,,,,,,,71,0,,./stim/wavs/castilian_mismatch_declarative-broad-focus_La-nina-lava-el-plato.wav,,,,,,,,,,,,,,,,,,,,,,508.8626,511.2283,0,1,1.8377,,0,85,85,70,1,0,castilian,,,,,,,,,,,,,,,,,,,,,,,,,,,,,,,,,,,,,,,,,,,,,,,,,,,,,,,,
,,,,,,,,,60fdd60f32a7b191d931f514,mexican,13 or older,"no, only English or Spanish",yes,2025-08-12_14h44.17.650,empathy_intonation_perc,2024.2.4,MacIntel,59.88023952,60fdd60f32a7b191d931f514,687ed1b7e638a4cbf2f02089,689b8b45d8b47a0ea9f6ba78,,,,,,,,,,,,,,,37,1,,./stim/wavs/mexican_mismatch_interrogative-total-yn_La-maestra-vive-en-Paris.wav,,,,,,,,,,,,,,,,,,,,,,511.2288,513.6449,1,1,1.8901,,0,86,86,36,1,0,mexican,,,,,,,,,,,,,,,,,,,,,,,,,,,,,,,,,,,,,,,,,,,,,,,,,,,,,,,,
,,,,,,,,,60fdd60f32a7b191d931f514,mexican,13 or older,"no, only English or Spanish",yes,2025-08-12_14h44.17.650,empathy_intonation_perc,2024.2.4,MacIntel,59.88023952,60fdd60f32a7b191d931f514,687ed1b7e638a4cbf2f02089,689b8b45d8b47a0ea9f6ba78,,,,,,,,,,,,,,,6,1,,./stim/wavs/castilian_match_interrogative-total-yn_Marta-abre-el-regalo.wav,,,,,,,,,,,,,,,,,,,,,,513.6454,515.9946,1,1,1.8194,,0,87,87,5,1,0,castilian,,,,,,,,,,,,,,,,,,,,,,,,,,,,,,,,,,,,,,,,,,,,,,,,,,,,,,,,
,,,,,,,"Great! Now we will move on. The next task consists of about 60 trials, in each of which you will see a string of letters. 
  
  Your task is to decide whether this is a real Spanish word or not.", (press the spacebar to continue),60fdd60f32a7b191d931f514,mexican,13 or older,"no, only English or Spanish",yes,2025-08-12_14h44.17.650,empathy_intonation_perc,2024.2.4,MacIntel,59.88023952,60fdd60f32a7b191d931f514,687ed1b7e638a4cbf2f02089,689b8b45d8b47a0ea9f6ba78,,,,,,,,,,,,,,,,,,,,,,,,,,,,,,,,,,,,,,,,,,,,,,,,,,,,,516.0034,521.5952,0,0,0,0,1,,,,,,,,,,,,,,,,,,,,,,,,,,,,,,,,,,,,,,,,,,,,,,,,,
,,,,,,,"If you think it is an existing Spanish word, you type '1' (for 'REAL'), and if you think it is not an existing Spanish word, you type '0' (for 'FAKE').", (press the spacebar to continue),60fdd60f32a7b191d931f514,mexican,13 or older,"no, only English or Spanish",yes,2025-08-12_14h44.17.650,empathy_intonation_perc,2024.2.4,MacIntel,59.88023952,60fdd60f32a7b191d931f514,687ed1b7e638a4cbf2f02089,689b8b45d8b47a0ea9f6ba78,,,,,,,,,,,,,,,,,,,,,,,,,,,,,,,,,,,,,,,,,,,,,,,,,,,,,521.6007,524.912,0,1,1,1,1,,,,,,,,,,,,,,,,,,,,,,,,,,,,,,,,,,,,,,,,,,,,,,,,,
,,,,,,,"If you are sure that the word exists, even though you don’t know its exact meaning, you may still respond '1' (REAL). 
  
  But if you are not sure if it is an existing word, you should respond '0' (FAKE).
  
  Let's do a practice round...", (press the spacebar to continue),60fdd60f32a7b191d931f514,mexican,13 or older,"no, only English or Spanish",yes,2025-08-12_14h44.17.650,empathy_intonation_perc,2024.2.4,MacIntel,59.88023952,60fdd60f32a7b191d931f514,687ed1b7e638a4cbf2f02089,689b8b45d8b47a0ea9f6ba78,,,,,,,,,,,,,,,,,,,,,,,,,,,,,,,,,,,,,,,,,,,,,,,,,,,,,524.9127,531.9957,0,2,2,2,1,,,,,,,,,,,,,,,,,,,,,,,,,,,,,,,,,,,,,,,,,,,,,,,,,
,,,,,,,,,60fdd60f32a7b191d931f514,mexican,13 or older,"no, only English or Spanish",yes,2025-08-12_14h44.17.650,empathy_intonation_perc,2024.2.4,MacIntel,59.88023952,60fdd60f32a7b191d931f514,687ed1b7e638a4cbf2f02089,689b8b45d8b47a0ea9f6ba78,,,,,,,,,,,,,,,,0,,,,,,,,,,,,,,,,,,,,,,,,,,,,,,,,,,,,,,,,,,,,532.0027,535.4294,0,1,2.8973,,535.43,536.4289,0,0,0,0,1,0,depiste,REAL,FAKE,,,,,,,,,,,,,,,,,,,,,,,,,,,,,,,,
,,,,,,,,,60fdd60f32a7b191d931f514,mexican,13 or older,"no, only English or Spanish",yes,2025-08-12_14h44.17.650,empathy_intonation_perc,2024.2.4,MacIntel,59.88023952,60fdd60f32a7b191d931f514,687ed1b7e638a4cbf2f02089,689b8b45d8b47a0ea9f6ba78,,,,,,,,,,,,,,,,1,,,,,,,,,,,,,,,,,,,,,,,,,,,,,,,,,,,,,,,,,,,,536.4308,538.8119,1,1,1.8447,,538.8119,539.812,0,1,1,1,1,0,sí,REAL,FAKE,,,,,,,,,,,,,,,,,,,,,,,,,,,,,,,,
,,,,,,,,,60fdd60f32a7b191d931f514,mexican,13 or older,"no, only English or Spanish",yes,2025-08-12_14h44.17.650,empathy_intonation_perc,2024.2.4,MacIntel,59.88023952,60fdd60f32a7b191d931f514,687ed1b7e638a4cbf2f02089,689b8b45d8b47a0ea9f6ba78,,,,,,,,,,,,,,,,0,,,,,,,,,,,,,,,,,,,,,,,,,,,,,,,,,,,,,,,,,,,,539.8136,541.5292,0,1,1.1901,,541.5293,542.5295,0,2,2,2,1,0,coné,REAL,FAKE,,,,,,,,,,,,,,,,,,,,,,,,,,,,,,,,
,,,,,,,,,60fdd60f32a7b191d931f514,mexican,13 or older,"no, only English or Spanish",yes,2025-08-12_14h44.17.650,empathy_intonation_perc,2024.2.4,MacIntel,59.88023952,60fdd60f32a7b191d931f514,687ed1b7e638a4cbf2f02089,689b8b45d8b47a0ea9f6ba78,,,,,,,,,,,,,,,,0,,,,,,,,,,,,,,,,,,,,,,,,,,,,,,,,,,,,,,,,,,,,542.5316,544.012,0,1,0.9513,,544.0121,545.0127,0,3,3,3,1,0,calpar,REAL,FAKE,,,,,,,,,,,,,,,,,,,,,,,,,,,,,,,,
,,,,,,,,,60fdd60f32a7b191d931f514,mexican,13 or older,"no, only English or Spanish",yes,2025-08-12_14h44.17.650,empathy_intonation_perc,2024.2.4,MacIntel,59.88023952,60fdd60f32a7b191d931f514,687ed1b7e638a4cbf2f02089,689b8b45d8b47a0ea9f6ba78,,,,,,,,,,,,,,,,0,,,,,,,,,,,,,,,,,,,,,,,,,,,,,,,,,,,,,,,,,,,,545.0143,546.4621,0,1,0.9135,,546.4622,547.4626,0,4,4,4,1,0,joten,REAL,FAKE,,,,,,,,,,,,,,,,,,,,,,,,,,,,,,,,
,,,,,,,,,60fdd60f32a7b191d931f514,mexican,13 or older,"no, only English or Spanish",yes,2025-08-12_14h44.17.650,empathy_intonation_perc,2024.2.4,MacIntel,59.88023952,60fdd60f32a7b191d931f514,687ed1b7e638a4cbf2f02089,689b8b45d8b47a0ea9f6ba78,,,,,,,,,,,,,,,,1,,,,,,,,,,,,,,,,,,,,,,,,,,,,,,,,,,,,,,,,,,,,547.4641,549.8796,1,1,1.8873,,549.8798,550.8793,0,5,5,5,1,0,sacapuntas,REAL,FAKE,,,,,,,,,,,,,,,,,,,,,,,,,,,,,,,,
,,,,,,,,,60fdd60f32a7b191d931f514,mexican,13 or older,"no, only English or Spanish",yes,2025-08-12_14h44.17.650,empathy_intonation_perc,2024.2.4,MacIntel,59.88023952,60fdd60f32a7b191d931f514,687ed1b7e638a4cbf2f02089,689b8b45d8b47a0ea9f6ba78,,,,,,,,,,,,,,,,0,,,,,,,,,,,,,,,,,,,,,,,,,,,,,,,,,,,,,,,,,,,,550.8804,552.5127,1,0,1.1061,,552.5138,553.5129,0,6,6,6,1,0,priba,REAL,FAKE,,,,,,,,,,,,,,,,,,,,,,,,,,,,,,,,
,,,,,,,,,60fdd60f32a7b191d931f514,mexican,13 or older,"no, only English or Spanish",yes,2025-08-12_14h44.17.650,empathy_intonation_perc,2024.2.4,MacIntel,59.88023952,60fdd60f32a7b191d931f514,687ed1b7e638a4cbf2f02089,689b8b45d8b47a0ea9f6ba78,,,,,,,,,,,,,,,,0,,,,,,,,,,,,,,,,,,,,,,,,,,,,,,,,,,,,,,,,,,,,553.5146,556.1123,1,0,2.0663,,556.1124,557.113,0,7,7,7,1,0,pelasula,REAL,FAKE,,,,,,,,,,,,,,,,,,,,,,,,,,,,,,,,
,,,,,,,,,60fdd60f32a7b191d931f514,mexican,13 or older,"no, only English or Spanish",yes,2025-08-12_14h44.17.650,empathy_intonation_perc,2024.2.4,MacIntel,59.88023952,60fdd60f32a7b191d931f514,687ed1b7e638a4cbf2f02089,689b8b45d8b47a0ea9f6ba78,,,,,,,,,,,,,,,,1,,,,,,,,,,,,,,,,,,,,,,,,,,,,,,,,,,,,,,,,,,,,557.1147,558.6128,1,1,0.9646,,558.6138,559.6122,0,8,8,8,1,0,bien,REAL,FAKE,,,,,,,,,,,,,,,,,,,,,,,,,,,,,,,,
,,,,,,,,,60fdd60f32a7b191d931f514,mexican,13 or older,"no, only English or Spanish",yes,2025-08-12_14h44.17.650,empathy_intonation_perc,2024.2.4,MacIntel,59.88023952,60fdd60f32a7b191d931f514,687ed1b7e638a4cbf2f02089,689b8b45d8b47a0ea9f6ba78,,,,,,,,,,,,,,,,1,,,,,,,,,,,,,,,,,,,,,,,,,,,,,,,,,,,,,,,,,,,,559.6126,560.979,1,1,0.8503,,560.9791,561.9796,0,9,9,9,1,0,casa,REAL,FAKE,,,,,,,,,,,,,,,,,,,,,,,,,,,,,,,,
,,,,,,,,,60fdd60f32a7b191d931f514,mexican,13 or older,"no, only English or Spanish",yes,2025-08-12_14h44.17.650,empathy_intonation_perc,2024.2.4,MacIntel,59.88023952,60fdd60f32a7b191d931f514,687ed1b7e638a4cbf2f02089,689b8b45d8b47a0ea9f6ba78,,,,,,,,,,,,,,,,0,,,,,,,,,,,,,,,,,,,,,,,,,,,,,,,,,,,,,,,,,,,,561.9812,563.8955,1,0,1.3902,,563.8966,564.8957,0,10,10,10,1,0,lejo,REAL,FAKE,,,,,,,,,,,,,,,,,,,,,,,,,,,,,,,,
,,,,,,,,,60fdd60f32a7b191d931f514,mexican,13 or older,"no, only English or Spanish",yes,2025-08-12_14h44.17.650,empathy_intonation_perc,2024.2.4,MacIntel,59.88023952,60fdd60f32a7b191d931f514,687ed1b7e638a4cbf2f02089,689b8b45d8b47a0ea9f6ba78,,,,,,,,,,,,,,,,0,,,,,,,,,,,,,,,,,,,,,,,,,,,,,,,,,,,,,,,,,,,,564.8975,566.4957,0,1,1.0627,,566.4963,567.4959,0,11,11,11,1,0,pretantas,REAL,FAKE,,,,,,,,,,,,,,,,,,,,,,,,,,,,,,,,
,,,,,,,,,60fdd60f32a7b191d931f514,mexican,13 or older,"no, only English or Spanish",yes,2025-08-12_14h44.17.650,empathy_intonation_perc,2024.2.4,MacIntel,59.88023952,60fdd60f32a7b191d931f514,687ed1b7e638a4cbf2f02089,689b8b45d8b47a0ea9f6ba78,,,,,,,,,,,,,,,,,,,,,,,,,,,,,,,,,,,,,,,,,,,,,,,,,,,,,,,,,,,,,,,,,,,,,,,,,,,,,567.4965,569.2128,,,,,,,,,,,,,,,,,,,,,,,,,,,,,,
,,,,,,,,,60fdd60f32a7b191d931f514,mexican,13 or older,"no, only English or Spanish",yes,2025-08-12_14h44.17.650,empathy_intonation_perc,2024.2.4,MacIntel,59.88023952,60fdd60f32a7b191d931f514,687ed1b7e638a4cbf2f02089,689b8b45d8b47a0ea9f6ba78,,,,,,,,,,,,,,,,1,,,,,,,,,,,,,,,,,,,,,,,,,,,,,,,,,,,,,,,,,,,,,,,,,,,,,,,,,49,ganar,,,,,569.2188,570.9628,1,1,1.2184,,0,0,0,48,1,REAL,FAKE,,,,,,,,,,,,,,,,,
,,,,,,,,,60fdd60f32a7b191d931f514,mexican,13 or older,"no, only English or Spanish",yes,2025-08-12_14h44.17.650,empathy_intonation_perc,2024.2.4,MacIntel,59.88023952,60fdd60f32a7b191d931f514,687ed1b7e638a4cbf2f02089,689b8b45d8b47a0ea9f6ba78,,,,,,,,,,,,,,,,1,,,,,,,,,,,,,,,,,,,,,,,,,,,,,,,,,,,,,,,,,,,,,,,,,,,,,,,,,77,tiburón,,,,,570.9641,572.2292,0,0,0.7321,,0,1,1,76,1,REAL,FAKE,,,,,,,,,,,,,,,,,
,,,,,,,,,60fdd60f32a7b191d931f514,mexican,13 or older,"no, only English or Spanish",yes,2025-08-12_14h44.17.650,empathy_intonation_perc,2024.2.4,MacIntel,59.88023952,60fdd60f32a7b191d931f514,687ed1b7e638a4cbf2f02089,689b8b45d8b47a0ea9f6ba78,,,,,,,,,,,,,,,,1,,,,,,,,,,,,,,,,,,,,,,,,,,,,,,,,,,,,,,,,,,,,,,,,,,,,,,,,,43,canela,,,,,572.2311,573.846,0,0,1.0836,,0,2,2,42,1,REAL,FAKE,,,,,,,,,,,,,,,,,
,,,,,,,,,60fdd60f32a7b191d931f514,mexican,13 or older,"no, only English or Spanish",yes,2025-08-12_14h44.17.650,empathy_intonation_perc,2024.2.4,MacIntel,59.88023952,60fdd60f32a7b191d931f514,687ed1b7e638a4cbf2f02089,689b8b45d8b47a0ea9f6ba78,,,,,,,,,,,,,,,,0,,,,,,,,,,,,,,,,,,,,,,,,,,,,,,,,,,,,,,,,,,,,,,,,,,,,,,,,,79,tropaje,,,,,573.8478,575.9126,0,1,1.5337,,0,3,3,78,1,REAL,FAKE,,,,,,,,,,,,,,,,,
,,,,,,,,,60fdd60f32a7b191d931f514,mexican,13 or older,"no, only English or Spanish",yes,2025-08-12_14h44.17.650,empathy_intonation_perc,2024.2.4,MacIntel,59.88023952,60fdd60f32a7b191d931f514,687ed1b7e638a4cbf2f02089,689b8b45d8b47a0ea9f6ba78,,,,,,,,,,,,,,,,1,,,,,,,,,,,,,,,,,,,,,,,,,,,,,,,,,,,,,,,,,,,,,,,,,,,,,,,,,13,helar,,,,,575.9138,577.3791,0,0,0.9314,,0,4,4,12,1,REAL,FAKE,,,,,,,,,,,,,,,,,
,,,,,,,,,60fdd60f32a7b191d931f514,mexican,13 or older,"no, only English or Spanish",yes,2025-08-12_14h44.17.650,empathy_intonation_perc,2024.2.4,MacIntel,59.88023952,60fdd60f32a7b191d931f514,687ed1b7e638a4cbf2f02089,689b8b45d8b47a0ea9f6ba78,,,,,,,,,,,,,,,,1,,,,,,,,,,,,,,,,,,,,,,,,,,,,,,,,,,,,,,,,,,,,,,,,,,,,,,,,,89,prisa,,,,,577.3806,578.6968,0,0,0.8017,,0,5,5,88,1,REAL,FAKE,,,,,,,,,,,,,,,,,
,,,,,,,,,60fdd60f32a7b191d931f514,mexican,13 or older,"no, only English or Spanish",yes,2025-08-12_14h44.17.650,empathy_intonation_perc,2024.2.4,MacIntel,59.88023952,60fdd60f32a7b191d931f514,687ed1b7e638a4cbf2f02089,689b8b45d8b47a0ea9f6ba78,,,,,,,,,,,,,,,,1,,,,,,,,,,,,,,,,,,,,,,,,,,,,,,,,,,,,,,,,,,,,,,,,,,,,,,,,,44,cuchara,,,,,578.6983,581.4131,1,1,2.1898,,0,6,6,43,1,REAL,FAKE,,,,,,,,,,,,,,,,,
,,,,,,,,,60fdd60f32a7b191d931f514,mexican,13 or older,"no, only English or Spanish",yes,2025-08-12_14h44.17.650,empathy_intonation_perc,2024.2.4,MacIntel,59.88023952,60fdd60f32a7b191d931f514,687ed1b7e638a4cbf2f02089,689b8b45d8b47a0ea9f6ba78,,,,,,,,,,,,,,,,1,,,,,,,,,,,,,,,,,,,,,,,,,,,,,,,,,,,,,,,,,,,,,,,,,,,,,,,,,78,frondoso,,,,,581.4142,582.93,0,0,0.9837,,0,7,7,77,1,REAL,FAKE,,,,,,,,,,,,,,,,,
,,,,,,,,,60fdd60f32a7b191d931f514,mexican,13 or older,"no, only English or Spanish",yes,2025-08-12_14h44.17.650,empathy_intonation_perc,2024.2.4,MacIntel,59.88023952,60fdd60f32a7b191d931f514,687ed1b7e638a4cbf2f02089,689b8b45d8b47a0ea9f6ba78,,,,,,,,,,,,,,,,0,,,,,,,,,,,,,,,,,,,,,,,,,,,,,,,,,,,,,,,,,,,,,,,,,,,,,,,,,8,cadeña,,,,,582.9314,584.2962,1,0,0.8334,,0,8,8,7,1,REAL,FAKE,,,,,,,,,,,,,,,,,
,,,,,,,,,60fdd60f32a7b191d931f514,mexican,13 or older,"no, only English or Spanish",yes,2025-08-12_14h44.17.650,empathy_intonation_perc,2024.2.4,MacIntel,59.88023952,60fdd60f32a7b191d931f514,687ed1b7e638a4cbf2f02089,689b8b45d8b47a0ea9f6ba78,,,,,,,,,,,,,,,,1,,,,,,,,,,,,,,,,,,,,,,,,,,,,,,,,,,,,,,,,,,,,,,,,,,,,,,,,,37,granuja,,,,,584.2975,586.2463,0,0,1.4191,,0,9,9,36,1,REAL,FAKE,,,,,,,,,,,,,,,,,
,,,,,,,,,60fdd60f32a7b191d931f514,mexican,13 or older,"no, only English or Spanish",yes,2025-08-12_14h44.17.650,empathy_intonation_perc,2024.2.4,MacIntel,59.88023952,60fdd60f32a7b191d931f514,687ed1b7e638a4cbf2f02089,689b8b45d8b47a0ea9f6ba78,,,,,,,,,,,,,,,,1,,,,,,,,,,,,,,,,,,,,,,,,,,,,,,,,,,,,,,,,,,,,,,,,,,,,,,,,,71,polvoriento,,,,,586.2473,587.7963,0,0,1.0101,,0,10,10,70,1,REAL,FAKE,,,,,,,,,,,,,,,,,
,,,,,,,,,60fdd60f32a7b191d931f514,mexican,13 or older,"no, only English or Spanish",yes,2025-08-12_14h44.17.650,empathy_intonation_perc,2024.2.4,MacIntel,59.88023952,60fdd60f32a7b191d931f514,687ed1b7e638a4cbf2f02089,689b8b45d8b47a0ea9f6ba78,,,,,,,,,,,,,,,,1,,,,,,,,,,,,,,,,,,,,,,,,,,,,,,,,,,,,,,,,,,,,,,,,,,,,,,,,,40,alfombra,,,,,587.7975,589.7628,0,0,1.4365,,0,11,11,39,1,REAL,FAKE,,,,,,,,,,,,,,,,,
,,,,,,,,,60fdd60f32a7b191d931f514,mexican,13 or older,"no, only English or Spanish",yes,2025-08-12_14h44.17.650,empathy_intonation_perc,2024.2.4,MacIntel,59.88023952,60fdd60f32a7b191d931f514,687ed1b7e638a4cbf2f02089,689b8b45d8b47a0ea9f6ba78,,,,,,,,,,,,,,,,0,,,,,,,,,,,,,,,,,,,,,,,,,,,,,,,,,,,,,,,,,,,,,,,,,,,,,,,,,10,antar,,,,,589.7632,590.9473,0,1,0.6734,,0,12,12,9,1,REAL,FAKE,,,,,,,,,,,,,,,,,
,,,,,,,,,60fdd60f32a7b191d931f514,mexican,13 or older,"no, only English or Spanish",yes,2025-08-12_14h44.17.650,empathy_intonation_perc,2024.2.4,MacIntel,59.88023952,60fdd60f32a7b191d931f514,687ed1b7e638a4cbf2f02089,689b8b45d8b47a0ea9f6ba78,,,,,,,,,,,,,,,,1,,,,,,,,,,,,,,,,,,,,,,,,,,,,,,,,,,,,,,,,,,,,,,,,,,,,,,,,,41,rebuscar,,,,,590.9484,593.2304,0,0,1.7505,,0,13,13,40,1,REAL,FAKE,,,,,,,,,,,,,,,,,
,,,,,,,,,60fdd60f32a7b191d931f514,mexican,13 or older,"no, only English or Spanish",yes,2025-08-12_14h44.17.650,empathy_intonation_perc,2024.2.4,MacIntel,59.88023952,60fdd60f32a7b191d931f514,687ed1b7e638a4cbf2f02089,689b8b45d8b47a0ea9f6ba78,,,,,,,,,,,,,,,,0,,,,,,,,,,,,,,,,,,,,,,,,,,,,,,,,,,,,,,,,,,,,,,,,,,,,,,,,,29,decar,,,,,593.2316,594.8303,1,0,1.0734,,0,14,14,28,1,REAL,FAKE,,,,,,,,,,,,,,,,,
,,,,,,,,,60fdd60f32a7b191d931f514,mexican,13 or older,"no, only English or Spanish",yes,2025-08-12_14h44.17.650,empathy_intonation_perc,2024.2.4,MacIntel,59.88023952,60fdd60f32a7b191d931f514,687ed1b7e638a4cbf2f02089,689b8b45d8b47a0ea9f6ba78,,,,,,,,,,,,,,,,1,,,,,,,,,,,,,,,,,,,,,,,,,,,,,,,,,,,,,,,,,,,,,,,,,,,,,,,,,22,lacayo,,,,,594.8316,596.1465,0,0,0.7916,,0,15,15,21,1,REAL,FAKE,,,,,,,,,,,,,,,,,
,,,,,,,,,60fdd60f32a7b191d931f514,mexican,13 or older,"no, only English or Spanish",yes,2025-08-12_14h44.17.650,empathy_intonation_perc,2024.2.4,MacIntel,59.88023952,60fdd60f32a7b191d931f514,687ed1b7e638a4cbf2f02089,689b8b45d8b47a0ea9f6ba78,,,,,,,,,,,,,,,,0,,,,,,,,,,,,,,,,,,,,,,,,,,,,,,,,,,,,,,,,,,,,,,,,,,,,,,,,,74,cintro,,,,,596.1475,598.8302,0,1,2.1507,,0,16,16,73,1,REAL,FAKE,,,,,,,,,,,,,,,,,
,,,,,,,,,60fdd60f32a7b191d931f514,mexican,13 or older,"no, only English or Spanish",yes,2025-08-12_14h44.17.650,empathy_intonation_perc,2024.2.4,MacIntel,59.88023952,60fdd60f32a7b191d931f514,687ed1b7e638a4cbf2f02089,689b8b45d8b47a0ea9f6ba78,,,,,,,,,,,,,,,,0,,,,,,,,,,,,,,,,,,,,,,,,,,,,,,,,,,,,,,,,,,,,,,,,,,,,,,,,,50,flamida,,,,,598.8316,600.9292,0,1,1.5715,,0,17,17,49,1,REAL,FAKE,,,,,,,,,,,,,,,,,
,,,,,,,,,60fdd60f32a7b191d931f514,mexican,13 or older,"no, only English or Spanish",yes,2025-08-12_14h44.17.650,empathy_intonation_perc,2024.2.4,MacIntel,59.88023952,60fdd60f32a7b191d931f514,687ed1b7e638a4cbf2f02089,689b8b45d8b47a0ea9f6ba78,,,,,,,,,,,,,,,,1,,,,,,,,,,,,,,,,,,,,,,,,,,,,,,,,,,,,,,,,,,,,,,,,,,,,,,,,,3,pulmones,,,,,600.9295,602.2798,0,0,0.8345,,0,18,18,2,1,REAL,FAKE,,,,,,,,,,,,,,,,,
,,,,,,,,,60fdd60f32a7b191d931f514,mexican,13 or older,"no, only English or Spanish",yes,2025-08-12_14h44.17.650,empathy_intonation_perc,2024.2.4,MacIntel,59.88023952,60fdd60f32a7b191d931f514,687ed1b7e638a4cbf2f02089,689b8b45d8b47a0ea9f6ba78,,,,,,,,,,,,,,,,0,,,,,,,,,,,,,,,,,,,,,,,,,,,,,,,,,,,,,,,,,,,,,,,,,,,,,,,,,16,abracer,,,,,602.2802,603.5303,0,1,0.7219,,0,19,19,15,1,REAL,FAKE,,,,,,,,,,,,,,,,,
,,,,,,,,,60fdd60f32a7b191d931f514,mexican,13 or older,"no, only English or Spanish",yes,2025-08-12_14h44.17.650,empathy_intonation_perc,2024.2.4,MacIntel,59.88023952,60fdd60f32a7b191d931f514,687ed1b7e638a4cbf2f02089,689b8b45d8b47a0ea9f6ba78,,,,,,,,,,,,,,,,0,,,,,,,,,,,,,,,,,,,,,,,,,,,,,,,,,,,,,,,,,,,,,,,,,,,,,,,,,4,batillón,,,,,603.5325,605.1466,1,0,1.0889,,0,20,20,3,1,REAL,FAKE,,,,,,,,,,,,,,,,,
,,,,,,,,,60fdd60f32a7b191d931f514,mexican,13 or older,"no, only English or Spanish",yes,2025-08-12_14h44.17.650,empathy_intonation_perc,2024.2.4,MacIntel,59.88023952,60fdd60f32a7b191d931f514,687ed1b7e638a4cbf2f02089,689b8b45d8b47a0ea9f6ba78,,,,,,,,,,,,,,,,0,,,,,,,,,,,,,,,,,,,,,,,,,,,,,,,,,,,,,,,,,,,,,,,,,,,,,,,,,32,fatacidad,,,,,605.1482,607.0801,0,1,1.3989,,0,21,21,31,1,REAL,FAKE,,,,,,,,,,,,,,,,,
,,,,,,,,,60fdd60f32a7b191d931f514,mexican,13 or older,"no, only English or Spanish",yes,2025-08-12_14h44.17.650,empathy_intonation_perc,2024.2.4,MacIntel,59.88023952,60fdd60f32a7b191d931f514,687ed1b7e638a4cbf2f02089,689b8b45d8b47a0ea9f6ba78,,,,,,,,,,,,,,,,0,,,,,,,,,,,,,,,,,,,,,,,,,,,,,,,,,,,,,,,,,,,,,,,,,,,,,,,,,27,acutación,,,,,607.0809,609.3472,1,0,1.7351,,0,22,22,26,1,REAL,FAKE,,,,,,,,,,,,,,,,,
,,,,,,,,,60fdd60f32a7b191d931f514,mexican,13 or older,"no, only English or Spanish",yes,2025-08-12_14h44.17.650,empathy_intonation_perc,2024.2.4,MacIntel,59.88023952,60fdd60f32a7b191d931f514,687ed1b7e638a4cbf2f02089,689b8b45d8b47a0ea9f6ba78,,,,,,,,,,,,,,,,1,,,,,,,,,,,,,,,,,,,,,,,,,,,,,,,,,,,,,,,,,,,,,,,,,,,,,,,,,61,seda,,,,,609.3492,610.7137,0,0,0.8354,,0,23,23,60,1,REAL,FAKE,,,,,,,,,,,,,,,,,
,,,,,,,,,60fdd60f32a7b191d931f514,mexican,13 or older,"no, only English or Spanish",yes,2025-08-12_14h44.17.650,empathy_intonation_perc,2024.2.4,MacIntel,59.88023952,60fdd60f32a7b191d931f514,687ed1b7e638a4cbf2f02089,689b8b45d8b47a0ea9f6ba78,,,,,,,,,,,,,,,,1,,,,,,,,,,,,,,,,,,,,,,,,,,,,,,,,,,,,,,,,,,,,,,,,,,,,,,,,,9,hacha,,,,,610.7144,611.8971,0,0,0.6526,,0,24,24,8,1,REAL,FAKE,,,,,,,,,,,,,,,,,
,,,,,,,,,60fdd60f32a7b191d931f514,mexican,13 or older,"no, only English or Spanish",yes,2025-08-12_14h44.17.650,empathy_intonation_perc,2024.2.4,MacIntel,59.88023952,60fdd60f32a7b191d931f514,687ed1b7e638a4cbf2f02089,689b8b45d8b47a0ea9f6ba78,,,,,,,,,,,,,,,,0,,,,,,,,,,,,,,,,,,,,,,,,,,,,,,,,,,,,,,,,,,,,,,,,,,,,,,,,,63,esposante,,,,,611.8986,615.4124,1,0,2.9928,,0,25,25,62,1,REAL,FAKE,,,,,,,,,,,,,,,,,
,,,,,,,,,60fdd60f32a7b191d931f514,mexican,13 or older,"no, only English or Spanish",yes,2025-08-12_14h44.17.650,empathy_intonation_perc,2024.2.4,MacIntel,59.88023952,60fdd60f32a7b191d931f514,687ed1b7e638a4cbf2f02089,689b8b45d8b47a0ea9f6ba78,,,,,,,,,,,,,,,,1,,,,,,,,,,,,,,,,,,,,,,,,,,,,,,,,,,,,,,,,,,,,,,,,,,,,,,,,,25,bisagra,,,,,615.4128,617.0299,0,0,1.0699,,0,26,26,24,1,REAL,FAKE,,,,,,,,,,,,,,,,,
,,,,,,,,,60fdd60f32a7b191d931f514,mexican,13 or older,"no, only English or Spanish",yes,2025-08-12_14h44.17.650,empathy_intonation_perc,2024.2.4,MacIntel,59.88023952,60fdd60f32a7b191d931f514,687ed1b7e638a4cbf2f02089,689b8b45d8b47a0ea9f6ba78,,,,,,,,,,,,,,,,1,,,,,,,,,,,,,,,,,,,,,,,,,,,,,,,,,,,,,,,,,,,,,,,,,,,,,,,,,28,merodear,,,,,617.0311,618.3299,0,0,0.772,,0,27,27,27,1,REAL,FAKE,,,,,,,,,,,,,,,,,
,,,,,,,,,60fdd60f32a7b191d931f514,mexican,13 or older,"no, only English or Spanish",yes,2025-08-12_14h44.17.650,empathy_intonation_perc,2024.2.4,MacIntel,59.88023952,60fdd60f32a7b191d931f514,687ed1b7e638a4cbf2f02089,689b8b45d8b47a0ea9f6ba78,,,,,,,,,,,,,,,,0,,,,,,,,,,,,,,,,,,,,,,,,,,,,,,,,,,,,,,,,,,,,,,,,,,,,,,,,,35,rompido,,,,,618.3308,619.4807,0,1,0.6121,,0,28,28,34,1,REAL,FAKE,,,,,,,,,,,,,,,,,
,,,,,,,,,60fdd60f32a7b191d931f514,mexican,13 or older,"no, only English or Spanish",yes,2025-08-12_14h44.17.650,empathy_intonation_perc,2024.2.4,MacIntel,59.88023952,60fdd60f32a7b191d931f514,687ed1b7e638a4cbf2f02089,689b8b45d8b47a0ea9f6ba78,,,,,,,,,,,,,,,,1,,,,,,,,,,,,,,,,,,,,,,,,,,,,,,,,,,,,,,,,,,,,,,,,,,,,,,,,,80,hormiga,,,,,619.4824,620.5973,0,0,0.5874,,0,29,29,79,1,REAL,FAKE,,,,,,,,,,,,,,,,,
,,,,,,,,,60fdd60f32a7b191d931f514,mexican,13 or older,"no, only English or Spanish",yes,2025-08-12_14h44.17.650,empathy_intonation_perc,2024.2.4,MacIntel,59.88023952,60fdd60f32a7b191d931f514,687ed1b7e638a4cbf2f02089,689b8b45d8b47a0ea9f6ba78,,,,,,,,,,,,,,,,0,,,,,,,,,,,,,,,,,,,,,,,,,,,,,,,,,,,,,,,,,,,,,,,,,,,,,,,,,87,grodo,,,,,620.6004,621.714,0,1,0.5847,,0,30,30,86,1,REAL,FAKE,,,,,,,,,,,,,,,,,
,,,,,,,,,60fdd60f32a7b191d931f514,mexican,13 or older,"no, only English or Spanish",yes,2025-08-12_14h44.17.650,empathy_intonation_perc,2024.2.4,MacIntel,59.88023952,60fdd60f32a7b191d931f514,687ed1b7e638a4cbf2f02089,689b8b45d8b47a0ea9f6ba78,,,,,,,,,,,,,,,,1,,,,,,,,,,,,,,,,,,,,,,,,,,,,,,,,,,,,,,,,,,,,,,,,,,,,,,,,,60,matar,,,,,621.7159,622.7968,0,0,0.5518,,0,31,31,59,1,REAL,FAKE,,,,,,,,,,,,,,,,,
,,,,,,,,,60fdd60f32a7b191d931f514,mexican,13 or older,"no, only English or Spanish",yes,2025-08-12_14h44.17.650,empathy_intonation_perc,2024.2.4,MacIntel,59.88023952,60fdd60f32a7b191d931f514,687ed1b7e638a4cbf2f02089,689b8b45d8b47a0ea9f6ba78,,,,,,,,,,,,,,,,1,,,,,,,,,,,,,,,,,,,,,,,,,,,,,,,,,,,,,,,,,,,,,,,,,,,,,,,,,45,jilguero,,,,,622.7981,624.0133,0,0,0.6787,,0,32,32,44,1,REAL,FAKE,,,,,,,,,,,,,,,,,
,,,,,,,,,60fdd60f32a7b191d931f514,mexican,13 or older,"no, only English or Spanish",yes,2025-08-12_14h44.17.650,empathy_intonation_perc,2024.2.4,MacIntel,59.88023952,60fdd60f32a7b191d931f514,687ed1b7e638a4cbf2f02089,689b8b45d8b47a0ea9f6ba78,,,,,,,,,,,,,,,,1,,,,,,,,,,,,,,,,,,,,,,,,,,,,,,,,,,,,,,,,,,,,,,,,,,,,,,,,,59,besar,,,,,624.0153,625.1141,0,0,0.5648,,0,33,33,58,1,REAL,FAKE,,,,,,,,,,,,,,,,,
,,,,,,,,,60fdd60f32a7b191d931f514,mexican,13 or older,"no, only English or Spanish",yes,2025-08-12_14h44.17.650,empathy_intonation_perc,2024.2.4,MacIntel,59.88023952,60fdd60f32a7b191d931f514,687ed1b7e638a4cbf2f02089,689b8b45d8b47a0ea9f6ba78,,,,,,,,,,,,,,,,0,,,,,,,,,,,,,,,,,,,,,,,,,,,,,,,,,,,,,,,,,,,,,,,,,,,,,,,,,47,cartinar,,,,,625.1157,626.5143,0,1,0.8659,,0,34,34,46,1,REAL,FAKE,,,,,,,,,,,,,,,,,
,,,,,,,,,60fdd60f32a7b191d931f514,mexican,13 or older,"no, only English or Spanish",yes,2025-08-12_14h44.17.650,empathy_intonation_perc,2024.2.4,MacIntel,59.88023952,60fdd60f32a7b191d931f514,687ed1b7e638a4cbf2f02089,689b8b45d8b47a0ea9f6ba78,,,,,,,,,,,,,,,,1,,,,,,,,,,,,,,,,,,,,,,,,,,,,,,,,,,,,,,,,,,,,,,,,,,,,,,,,,2,pellizcar,,,,,626.5164,627.6477,0,0,0.5991,,0,35,35,1,1,REAL,FAKE,,,,,,,,,,,,,,,,,
,,,,,,,,,60fdd60f32a7b191d931f514,mexican,13 or older,"no, only English or Spanish",yes,2025-08-12_14h44.17.650,empathy_intonation_perc,2024.2.4,MacIntel,59.88023952,60fdd60f32a7b191d931f514,687ed1b7e638a4cbf2f02089,689b8b45d8b47a0ea9f6ba78,,,,,,,,,,,,,,,,1,,,,,,,,,,,,,,,,,,,,,,,,,,,,,,,,,,,,,,,,,,,,,,,,,,,,,,,,,62,flaco,,,,,627.6493,629.0476,1,1,0.8673,,0,36,36,61,1,REAL,FAKE,,,,,,,,,,,,,,,,,
,,,,,,,,,60fdd60f32a7b191d931f514,mexican,13 or older,"no, only English or Spanish",yes,2025-08-12_14h44.17.650,empathy_intonation_perc,2024.2.4,MacIntel,59.88023952,60fdd60f32a7b191d931f514,687ed1b7e638a4cbf2f02089,689b8b45d8b47a0ea9f6ba78,,,,,,,,,,,,,,,,1,,,,,,,,,,,,,,,,,,,,,,,,,,,,,,,,,,,,,,,,,,,,,,,,,,,,,,,,,7,pésimo,,,,,629.0492,630.5138,1,1,0.9324,,0,37,37,6,1,REAL,FAKE,,,,,,,,,,,,,,,,,
,,,,,,,,,60fdd60f32a7b191d931f514,mexican,13 or older,"no, only English or Spanish",yes,2025-08-12_14h44.17.650,empathy_intonation_perc,2024.2.4,MacIntel,59.88023952,60fdd60f32a7b191d931f514,687ed1b7e638a4cbf2f02089,689b8b45d8b47a0ea9f6ba78,,,,,,,,,,,,,,,,1,,,,,,,,,,,,,,,,,,,,,,,,,,,,,,,,,,,,,,,,,,,,,,,,,,,,,,,,,81,pozo,,,,,630.5143,631.7475,0,0,0.6975,,0,38,38,80,1,REAL,FAKE,,,,,,,,,,,,,,,,,
,,,,,,,,,60fdd60f32a7b191d931f514,mexican,13 or older,"no, only English or Spanish",yes,2025-08-12_14h44.17.650,empathy_intonation_perc,2024.2.4,MacIntel,59.88023952,60fdd60f32a7b191d931f514,687ed1b7e638a4cbf2f02089,689b8b45d8b47a0ea9f6ba78,,,,,,,,,,,,,,,,1,,,,,,,,,,,,,,,,,,,,,,,,,,,,,,,,,,,,,,,,,,,,,,,,,,,,,,,,,69,engatusar,,,,,631.7485,633.8637,0,0,1.5839,,0,39,39,68,1,REAL,FAKE,,,,,,,,,,,,,,,,,
,,,,,,,,,60fdd60f32a7b191d931f514,mexican,13 or older,"no, only English or Spanish",yes,2025-08-12_14h44.17.650,empathy_intonation_perc,2024.2.4,MacIntel,59.88023952,60fdd60f32a7b191d931f514,687ed1b7e638a4cbf2f02089,689b8b45d8b47a0ea9f6ba78,,,,,,,,,,,,,,,,1,,,,,,,,,,,,,,,,,,,,,,,,,,,,,,,,,,,,,,,,,,,,,,,,,,,,,,,,,67,cabello,,,,,633.8659,635.3805,1,1,0.9855,,0,40,40,66,1,REAL,FAKE,,,,,,,,,,,,,,,,,
,,,,,,,,,60fdd60f32a7b191d931f514,mexican,13 or older,"no, only English or Spanish",yes,2025-08-12_14h44.17.650,empathy_intonation_perc,2024.2.4,MacIntel,59.88023952,60fdd60f32a7b191d931f514,687ed1b7e638a4cbf2f02089,689b8b45d8b47a0ea9f6ba78,,,,,,,,,,,,,,,,0,,,,,,,,,,,,,,,,,,,,,,,,,,,,,,,,,,,,,,,,,,,,,,,,,,,,,,,,,72,pemición,,,,,635.3824,638.4308,0,1,2.5161,,0,41,41,71,1,REAL,FAKE,,,,,,,,,,,,,,,,,
,,,,,,,,,60fdd60f32a7b191d931f514,mexican,13 or older,"no, only English or Spanish",yes,2025-08-12_14h44.17.650,empathy_intonation_perc,2024.2.4,MacIntel,59.88023952,60fdd60f32a7b191d931f514,687ed1b7e638a4cbf2f02089,689b8b45d8b47a0ea9f6ba78,,,,,,,,,,,,,,,,1,,,,,,,,,,,,,,,,,,,,,,,,,,,,,,,,,,,,,,,,,,,,,,,,,,,,,,,,,34,aviso,,,,,638.4321,639.5476,0,0,0.5845,,0,42,42,33,1,REAL,FAKE,,,,,,,,,,,,,,,,,
,,,,,,,,,60fdd60f32a7b191d931f514,mexican,13 or older,"no, only English or Spanish",yes,2025-08-12_14h44.17.650,empathy_intonation_perc,2024.2.4,MacIntel,59.88023952,60fdd60f32a7b191d931f514,687ed1b7e638a4cbf2f02089,689b8b45d8b47a0ea9f6ba78,,,,,,,,,,,,,,,,0,,,,,,,,,,,,,,,,,,,,,,,,,,,,,,,,,,,,,,,,,,,,,,,,,,,,,,,,,92,click the 0 key.,,,,,639.5488,641.4808,0,1,1.3976,,0,43,43,91,1,REAL,FAKE,,,,,,,,,,,,,,,,,
,,,,,,,,,60fdd60f32a7b191d931f514,mexican,13 or older,"no, only English or Spanish",yes,2025-08-12_14h44.17.650,empathy_intonation_perc,2024.2.4,MacIntel,59.88023952,60fdd60f32a7b191d931f514,687ed1b7e638a4cbf2f02089,689b8b45d8b47a0ea9f6ba78,,,,,,,,,,,,,,,,1,,,,,,,,,,,,,,,,,,,,,,,,,,,,,,,,,,,,,,,,,,,,,,,,,,,,,,,,,73,hervidor,,,,,641.4815,643.0972,0,0,1.0866,,0,44,44,72,1,REAL,FAKE,,,,,,,,,,,,,,,,,
,,,,,,,,,60fdd60f32a7b191d931f514,mexican,13 or older,"no, only English or Spanish",yes,2025-08-12_14h44.17.650,empathy_intonation_perc,2024.2.4,MacIntel,59.88023952,60fdd60f32a7b191d931f514,687ed1b7e638a4cbf2f02089,689b8b45d8b47a0ea9f6ba78,,,,,,,,,,,,,,,,1,,,,,,,,,,,,,,,,,,,,,,,,,,,,,,,,,,,,,,,,,,,,,,,,,,,,,,,,,90,clavel,,,,,643.0985,644.3476,0,0,0.7246,,0,45,45,89,1,REAL,FAKE,,,,,,,,,,,,,,,,,
,,,,,,,,,60fdd60f32a7b191d931f514,mexican,13 or older,"no, only English or Spanish",yes,2025-08-12_14h44.17.650,empathy_intonation_perc,2024.2.4,MacIntel,59.88023952,60fdd60f32a7b191d931f514,687ed1b7e638a4cbf2f02089,689b8b45d8b47a0ea9f6ba78,,,,,,,,,,,,,,,,1,,,,,,,,,,,,,,,,,,,,,,,,,,,,,,,,,,,,,,,,,,,,,,,,,,,,,,,,,24,látigo,,,,,644.3488,646.5806,0,0,1.7014,,0,46,46,23,1,REAL,FAKE,,,,,,,,,,,,,,,,,
,,,,,,,,,60fdd60f32a7b191d931f514,mexican,13 or older,"no, only English or Spanish",yes,2025-08-12_14h44.17.650,empathy_intonation_perc,2024.2.4,MacIntel,59.88023952,60fdd60f32a7b191d931f514,687ed1b7e638a4cbf2f02089,689b8b45d8b47a0ea9f6ba78,,,,,,,,,,,,,,,,1,,,,,,,,,,,,,,,,,,,,,,,,,,,,,,,,,,,,,,,,,,,,,,,,,,,,,,,,,52,camisa,,,,,646.5816,648.1473,1,1,1.0355,,0,47,47,51,1,REAL,FAKE,,,,,,,,,,,,,,,,,
,,,,,,,,,60fdd60f32a7b191d931f514,mexican,13 or older,"no, only English or Spanish",yes,2025-08-12_14h44.17.650,empathy_intonation_perc,2024.2.4,MacIntel,59.88023952,60fdd60f32a7b191d931f514,687ed1b7e638a4cbf2f02089,689b8b45d8b47a0ea9f6ba78,,,,,,,,,,,,,,,,0,,,,,,,,,,,,,,,,,,,,,,,,,,,,,,,,,,,,,,,,,,,,,,,,,,,,,,,,,53,vegada,,,,,648.1483,649.814,0,1,1.1394,,0,48,48,52,1,REAL,FAKE,,,,,,,,,,,,,,,,,
,,,,,,,,,60fdd60f32a7b191d931f514,mexican,13 or older,"no, only English or Spanish",yes,2025-08-12_14h44.17.650,empathy_intonation_perc,2024.2.4,MacIntel,59.88023952,60fdd60f32a7b191d931f514,687ed1b7e638a4cbf2f02089,689b8b45d8b47a0ea9f6ba78,,,,,,,,,,,,,,,,1,,,,,,,,,,,,,,,,,,,,,,,,,,,,,,,,,,,,,,,,,,,,,,,,,,,,,,,,,6,tergiversar,,,,,649.8152,651.8975,0,0,1.5515,,0,49,49,5,1,REAL,FAKE,,,,,,,,,,,,,,,,,
,,,,,,,,,60fdd60f32a7b191d931f514,mexican,13 or older,"no, only English or Spanish",yes,2025-08-12_14h44.17.650,empathy_intonation_perc,2024.2.4,MacIntel,59.88023952,60fdd60f32a7b191d931f514,687ed1b7e638a4cbf2f02089,689b8b45d8b47a0ea9f6ba78,,,,,,,,,,,,,,,,1,,,,,,,,,,,,,,,,,,,,,,,,,,,,,,,,,,,,,,,,,,,,,,,,,,,,,,,,,14,yunque,,,,,651.8987,655.498,0,0,3.0738,,0,50,50,13,1,REAL,FAKE,,,,,,,,,,,,,,,,,
,,,,,,,,,60fdd60f32a7b191d931f514,mexican,13 or older,"no, only English or Spanish",yes,2025-08-12_14h44.17.650,empathy_intonation_perc,2024.2.4,MacIntel,59.88023952,60fdd60f32a7b191d931f514,687ed1b7e638a4cbf2f02089,689b8b45d8b47a0ea9f6ba78,,,,,,,,,,,,,,,,1,,,,,,,,,,,,,,,,,,,,,,,,,,,,,,,,,,,,,,,,,,,,,,,,,,,,,,,,,5,zapato,,,,,655.499,657.2146,1,1,1.1824,,0,51,51,4,1,REAL,FAKE,,,,,,,,,,,,,,,,,
,,,,,,,,,60fdd60f32a7b191d931f514,mexican,13 or older,"no, only English or Spanish",yes,2025-08-12_14h44.17.650,empathy_intonation_perc,2024.2.4,MacIntel,59.88023952,60fdd60f32a7b191d931f514,687ed1b7e638a4cbf2f02089,689b8b45d8b47a0ea9f6ba78,,,,,,,,,,,,,,,,0,,,,,,,,,,,,,,,,,,,,,,,,,,,,,,,,,,,,,,,,,,,,,,,,,,,,,,,,,21,capillo,,,,,657.216,658.4471,1,0,0.7021,,0,52,52,20,1,REAL,FAKE,,,,,,,,,,,,,,,,,
,,,,,,,,,60fdd60f32a7b191d931f514,mexican,13 or older,"no, only English or Spanish",yes,2025-08-12_14h44.17.650,empathy_intonation_perc,2024.2.4,MacIntel,59.88023952,60fdd60f32a7b191d931f514,687ed1b7e638a4cbf2f02089,689b8b45d8b47a0ea9f6ba78,,,,,,,,,,,,,,,,1,,,,,,,,,,,,,,,,,,,,,,,,,,,,,,,,,,,,,,,,,,,,,,,,,,,,,,,,,38,estornudar,,,,,658.4483,659.6316,0,0,0.65,,0,53,53,37,1,REAL,FAKE,,,,,,,,,,,,,,,,,
,,,,,,,,,60fdd60f32a7b191d931f514,mexican,13 or older,"no, only English or Spanish",yes,2025-08-12_14h44.17.650,empathy_intonation_perc,2024.2.4,MacIntel,59.88023952,60fdd60f32a7b191d931f514,687ed1b7e638a4cbf2f02089,689b8b45d8b47a0ea9f6ba78,,,,,,,,,,,,,,,,1,,,,,,,,,,,,,,,,,,,,,,,,,,,,,,,,,,,,,,,,,,,,,,,,,,,,,,,,,39,torpe,,,,,659.6333,660.9811,0,0,0.8167,,0,54,54,38,1,REAL,FAKE,,,,,,,,,,,,,,,,,
,,,,,,,,,60fdd60f32a7b191d931f514,mexican,13 or older,"no, only English or Spanish",yes,2025-08-12_14h44.17.650,empathy_intonation_perc,2024.2.4,MacIntel,59.88023952,60fdd60f32a7b191d931f514,687ed1b7e638a4cbf2f02089,689b8b45d8b47a0ea9f6ba78,,,,,,,,,,,,,,,,0,,,,,,,,,,,,,,,,,,,,,,,,,,,,,,,,,,,,,,,,,,,,,,,,,,,,,,,,,23,lampera,,,,,660.9827,662.5309,1,0,1.0174,,0,55,55,22,1,REAL,FAKE,,,,,,,,,,,,,,,,,
,,,,,,,,,60fdd60f32a7b191d931f514,mexican,13 or older,"no, only English or Spanish",yes,2025-08-12_14h44.17.650,empathy_intonation_perc,2024.2.4,MacIntel,59.88023952,60fdd60f32a7b191d931f514,687ed1b7e638a4cbf2f02089,689b8b45d8b47a0ea9f6ba78,,,,,,,,,,,,,,,,1,,,,,,,,,,,,,,,,,,,,,,,,,,,,,,,,,,,,,,,,,,,,,,,,,,,,,,,,,51,candado,,,,,662.5313,664.9643,0,0,1.9148,,0,56,56,50,1,REAL,FAKE,,,,,,,,,,,,,,,,,
,,,,,,,,,60fdd60f32a7b191d931f514,mexican,13 or older,"no, only English or Spanish",yes,2025-08-12_14h44.17.650,empathy_intonation_perc,2024.2.4,MacIntel,59.88023952,60fdd60f32a7b191d931f514,687ed1b7e638a4cbf2f02089,689b8b45d8b47a0ea9f6ba78,,,,,,,,,,,,,,,,1,,,,,,,,,,,,,,,,,,,,,,,,,,,,,,,,,,,,,,,,,,,,,,,,,,,,,,,,,86,barato,,,,,664.9656,666.465,0,0,0.9681,,0,57,57,85,1,REAL,FAKE,,,,,,,,,,,,,,,,,
,,,,,,,,,60fdd60f32a7b191d931f514,mexican,13 or older,"no, only English or Spanish",yes,2025-08-12_14h44.17.650,empathy_intonation_perc,2024.2.4,MacIntel,59.88023952,60fdd60f32a7b191d931f514,687ed1b7e638a4cbf2f02089,689b8b45d8b47a0ea9f6ba78,,,,,,,,,,,,,,,,1,,,,,,,,,,,,,,,,,,,,,,,,,,,,,,,,,,,,,,,,,,,,,,,,,,,,,,,,,83,guante,,,,,666.4662,668.1649,0,0,1.1707,,0,58,58,82,1,REAL,FAKE,,,,,,,,,,,,,,,,,
,,,,,,,,,60fdd60f32a7b191d931f514,mexican,13 or older,"no, only English or Spanish",yes,2025-08-12_14h44.17.650,empathy_intonation_perc,2024.2.4,MacIntel,59.88023952,60fdd60f32a7b191d931f514,687ed1b7e638a4cbf2f02089,689b8b45d8b47a0ea9f6ba78,,,,,,,,,,,,,,,,0,,,,,,,,,,,,,,,,,,,,,,,,,,,,,,,,,,,,,,,,,,,,,,,,,,,,,,,,,17,floroso,,,,,668.1665,669.7483,1,0,1.0542,,0,59,59,16,1,REAL,FAKE,,,,,,,,,,,,,,,,,
,,,,,,,,,60fdd60f32a7b191d931f514,mexican,13 or older,"no, only English or Spanish",yes,2025-08-12_14h44.17.650,empathy_intonation_perc,2024.2.4,MacIntel,59.88023952,60fdd60f32a7b191d931f514,687ed1b7e638a4cbf2f02089,689b8b45d8b47a0ea9f6ba78,,,,,,,,,,,,,,,,1,,,,,,,,,,,,,,,,,,,,,,,,,,,,,,,,,,,,,,,,,,,,,,,,,,,,,,,,,68,alegre,,,,,669.7495,671.832,0,0,1.5588,,0,60,60,67,1,REAL,FAKE,,,,,,,,,,,,,,,,,
,,,,,,,,,60fdd60f32a7b191d931f514,mexican,13 or older,"no, only English or Spanish",yes,2025-08-12_14h44.17.650,empathy_intonation_perc,2024.2.4,MacIntel,59.88023952,60fdd60f32a7b191d931f514,687ed1b7e638a4cbf2f02089,689b8b45d8b47a0ea9f6ba78,,,,,,,,,,,,,,,,1,,,,,,,,,,,,,,,,,,,,,,,,,,,,,,,,,,,,,,,,,,,,,,,,,,,,,,,,,12,asesinato,,,,,671.8334,673.1161,0,0,0.7623,,0,61,61,11,1,REAL,FAKE,,,,,,,,,,,,,,,,,
,,,,,,,,,60fdd60f32a7b191d931f514,mexican,13 or older,"no, only English or Spanish",yes,2025-08-12_14h44.17.650,empathy_intonation_perc,2024.2.4,MacIntel,59.88023952,60fdd60f32a7b191d931f514,687ed1b7e638a4cbf2f02089,689b8b45d8b47a0ea9f6ba78,,,,,,,,,,,,,,,,1,,,,,,,,,,,,,,,,,,,,,,,,,,,,,,,,,,,,,,,,,,,,,,,,,,,,,,,,,36,loro,,,,,673.117,674.8143,1,1,1.1636,,0,62,62,35,1,REAL,FAKE,,,,,,,,,,,,,,,,,
,,,,,,,,,60fdd60f32a7b191d931f514,mexican,13 or older,"no, only English or Spanish",yes,2025-08-12_14h44.17.650,empathy_intonation_perc,2024.2.4,MacIntel,59.88023952,60fdd60f32a7b191d931f514,687ed1b7e638a4cbf2f02089,689b8b45d8b47a0ea9f6ba78,,,,,,,,,,,,,,,,1,,,,,,,,,,,,,,,,,,,,,,,,,,,,,,,,,,,,,,,,,,,,,,,,,,,,,,,,,48,ladrón,,,,,674.8152,676.3646,1,1,1.0153,,0,63,63,47,1,REAL,FAKE,,,,,,,,,,,,,,,,,
,,,,,,,,,60fdd60f32a7b191d931f514,mexican,13 or older,"no, only English or Spanish",yes,2025-08-12_14h44.17.650,empathy_intonation_perc,2024.2.4,MacIntel,59.88023952,60fdd60f32a7b191d931f514,687ed1b7e638a4cbf2f02089,689b8b45d8b47a0ea9f6ba78,,,,,,,,,,,,,,,,1,,,,,,,,,,,,,,,,,,,,,,,,,,,,,,,,,,,,,,,,,,,,,,,,,,,,,,,,,85,laúd,,,,,676.3663,677.565,0,0,0.6628,,0,64,64,84,1,REAL,FAKE,,,,,,,,,,,,,,,,,
,,,,,,,,,60fdd60f32a7b191d931f514,mexican,13 or older,"no, only English or Spanish",yes,2025-08-12_14h44.17.650,empathy_intonation_perc,2024.2.4,MacIntel,59.88023952,60fdd60f32a7b191d931f514,687ed1b7e638a4cbf2f02089,689b8b45d8b47a0ea9f6ba78,,,,,,,,,,,,,,,,1,,,,,,,,,,,,,,,,,,,,,,,,,,,,,,,,,,,,,,,,,,,,,,,,,,,,,,,,,56,musgo,,,,,677.5663,678.8653,0,0,0.7632,,0,65,65,55,1,REAL,FAKE,,,,,,,,,,,,,,,,,
,,,,,,,,,60fdd60f32a7b191d931f514,mexican,13 or older,"no, only English or Spanish",yes,2025-08-12_14h44.17.650,empathy_intonation_perc,2024.2.4,MacIntel,59.88023952,60fdd60f32a7b191d931f514,687ed1b7e638a4cbf2f02089,689b8b45d8b47a0ea9f6ba78,,,,,,,,,,,,,,,,0,,,,,,,,,,,,,,,,,,,,,,,,,,,,,,,,,,,,,,,,,,,,,,,,,,,,,,,,,30,alardio,,,,,678.8662,680.1153,0,1,0.7165,,0,66,66,29,1,REAL,FAKE,,,,,,,,,,,,,,,,,
,,,,,,,,,60fdd60f32a7b191d931f514,mexican,13 or older,"no, only English or Spanish",yes,2025-08-12_14h44.17.650,empathy_intonation_perc,2024.2.4,MacIntel,59.88023952,60fdd60f32a7b191d931f514,687ed1b7e638a4cbf2f02089,689b8b45d8b47a0ea9f6ba78,,,,,,,,,,,,,,,,1,,,,,,,,,,,,,,,,,,,,,,,,,,,,,,,,,,,,,,,,,,,,,,,,,,,,,,,,,88,acantilado,,,,,680.1166,681.2985,0,0,0.648,,0,67,67,87,1,REAL,FAKE,,,,,,,,,,,,,,,,,
,,,,,,,,,60fdd60f32a7b191d931f514,mexican,13 or older,"no, only English or Spanish",yes,2025-08-12_14h44.17.650,empathy_intonation_perc,2024.2.4,MacIntel,59.88023952,60fdd60f32a7b191d931f514,687ed1b7e638a4cbf2f02089,689b8b45d8b47a0ea9f6ba78,,,,,,,,,,,,,,,,1,,,,,,,,,,,,,,,,,,,,,,,,,,,,,,,,,,,,,,,,,,,,,,,,,,,,,,,,,55,nevar,,,,,681.2997,682.7652,0,0,0.9334,,0,68,68,54,1,REAL,FAKE,,,,,,,,,,,,,,,,,
,,,,,,,,,60fdd60f32a7b191d931f514,mexican,13 or older,"no, only English or Spanish",yes,2025-08-12_14h44.17.650,empathy_intonation_perc,2024.2.4,MacIntel,59.88023952,60fdd60f32a7b191d931f514,687ed1b7e638a4cbf2f02089,689b8b45d8b47a0ea9f6ba78,,,,,,,,,,,,,,,,0,,,,,,,,,,,,,,,,,,,,,,,,,,,,,,,,,,,,,,,,,,,,,,,,,,,,,,,,,1,terzo,,,,,682.7666,683.9487,0,1,0.6489,,0,69,69,0,1,REAL,FAKE,,,,,,,,,,,,,,,,,
,,,,,,,,,60fdd60f32a7b191d931f514,mexican,13 or older,"no, only English or Spanish",yes,2025-08-12_14h44.17.650,empathy_intonation_perc,2024.2.4,MacIntel,59.88023952,60fdd60f32a7b191d931f514,687ed1b7e638a4cbf2f02089,689b8b45d8b47a0ea9f6ba78,,,,,,,,,,,,,,,,1,,,,,,,,,,,,,,,,,,,,,,,,,,,,,,,,,,,,,,,,,,,,,,,,,,,,,,,,,15,regar,,,,,683.9502,684.9321,0,0,0.4489,,0,70,70,14,1,REAL,FAKE,,,,,,,,,,,,,,,,,
,,,,,,,,,60fdd60f32a7b191d931f514,mexican,13 or older,"no, only English or Spanish",yes,2025-08-12_14h44.17.650,empathy_intonation_perc,2024.2.4,MacIntel,59.88023952,60fdd60f32a7b191d931f514,687ed1b7e638a4cbf2f02089,689b8b45d8b47a0ea9f6ba78,,,,,,,,,,,,,,,,1,,,,,,,,,,,,,,,,,,,,,,,,,,,,,,,,,,,,,,,,,,,,,,,,,,,,,,,,,57,tacaño,,,,,684.9339,687.0153,0,0,1.5488,,0,71,71,56,1,REAL,FAKE,,,,,,,,,,,,,,,,,
,,,,,,,,,60fdd60f32a7b191d931f514,mexican,13 or older,"no, only English or Spanish",yes,2025-08-12_14h44.17.650,empathy_intonation_perc,2024.2.4,MacIntel,59.88023952,60fdd60f32a7b191d931f514,687ed1b7e638a4cbf2f02089,689b8b45d8b47a0ea9f6ba78,,,,,,,,,,,,,,,,0,,,,,,,,,,,,,,,,,,,,,,,,,,,,,,,,,,,,,,,,,,,,,,,,,,,,,,,,,70,temblo,,,,,687.0166,688.4483,1,0,0.9004,,0,72,72,69,1,REAL,FAKE,,,,,,,,,,,,,,,,,
,,,,,,,,,60fdd60f32a7b191d931f514,mexican,13 or older,"no, only English or Spanish",yes,2025-08-12_14h44.17.650,empathy_intonation_perc,2024.2.4,MacIntel,59.88023952,60fdd60f32a7b191d931f514,687ed1b7e638a4cbf2f02089,689b8b45d8b47a0ea9f6ba78,,,,,,,,,,,,,,,,0,,,,,,,,,,,,,,,,,,,,,,,,,,,,,,,,,,,,,,,,,,,,,,,,,,,,,,,,,84,escuto,,,,,688.4499,689.7153,1,0,0.7305,,0,73,73,83,1,REAL,FAKE,,,,,,,,,,,,,,,,,
,,,,,,,,,60fdd60f32a7b191d931f514,mexican,13 or older,"no, only English or Spanish",yes,2025-08-12_14h44.17.650,empathy_intonation_perc,2024.2.4,MacIntel,59.88023952,60fdd60f32a7b191d931f514,687ed1b7e638a4cbf2f02089,689b8b45d8b47a0ea9f6ba78,,,,,,,,,,,,,,,,1,,,,,,,,,,,,,,,,,,,,,,,,,,,,,,,,,,,,,,,,,,,,,,,,,,,,,,,,,11,cenefa,,,,,689.7165,691.9155,0,0,1.6636,,0,74,74,10,1,REAL,FAKE,,,,,,,,,,,,,,,,,
,,,,,,,,,60fdd60f32a7b191d931f514,mexican,13 or older,"no, only English or Spanish",yes,2025-08-12_14h44.17.650,empathy_intonation_perc,2024.2.4,MacIntel,59.88023952,60fdd60f32a7b191d931f514,687ed1b7e638a4cbf2f02089,689b8b45d8b47a0ea9f6ba78,,,,,,,,,,,,,,,,1,,,,,,,,,,,,,,,,,,,,,,,,,,,,,,,,,,,,,,,,,,,,,,,,,,,,,,,,,65,bizcocho,,,,,691.917,694.6153,0,0,2.1709,,0,75,75,64,1,REAL,FAKE,,,,,,,,,,,,,,,,,
,,,,,,,,,60fdd60f32a7b191d931f514,mexican,13 or older,"no, only English or Spanish",yes,2025-08-12_14h44.17.650,empathy_intonation_perc,2024.2.4,MacIntel,59.88023952,60fdd60f32a7b191d931f514,687ed1b7e638a4cbf2f02089,689b8b45d8b47a0ea9f6ba78,,,,,,,,,,,,,,,,1,,,,,,,,,,,,,,,,,,,,,,,,,,,,,,,,,,,,,,,,,,,,,,,,,,,,,,,,,54,fomentar,,,,,694.6166,695.7157,0,0,0.5672,,0,76,76,53,1,REAL,FAKE,,,,,,,,,,,,,,,,,
,,,,,,,,,60fdd60f32a7b191d931f514,mexican,13 or older,"no, only English or Spanish",yes,2025-08-12_14h44.17.650,empathy_intonation_perc,2024.2.4,MacIntel,59.88023952,60fdd60f32a7b191d931f514,687ed1b7e638a4cbf2f02089,689b8b45d8b47a0ea9f6ba78,,,,,,,,,,,,,,,,0,,,,,,,,,,,,,,,,,,,,,,,,,,,,,,,,,,,,,,,,,,,,,,,,,,,,,,,,,82,empirador,,,,,695.7175,697.0822,0,1,0.8331,,0,77,77,81,1,REAL,FAKE,,,,,,,,,,,,,,,,,
,,,,,,,,,60fdd60f32a7b191d931f514,mexican,13 or older,"no, only English or Spanish",yes,2025-08-12_14h44.17.650,empathy_intonation_perc,2024.2.4,MacIntel,59.88023952,60fdd60f32a7b191d931f514,687ed1b7e638a4cbf2f02089,689b8b45d8b47a0ea9f6ba78,,,,,,,,,,,,,,,,0,,,,,,,,,,,,,,,,,,,,,,,,,,,,,,,,,,,,,,,,,,,,,,,,,,,,,,,,,42,cadallo,,,,,697.0833,698.7146,0,1,1.1057,,0,78,78,41,1,REAL,FAKE,,,,,,,,,,,,,,,,,
,,,,,,,,,60fdd60f32a7b191d931f514,mexican,13 or older,"no, only English or Spanish",yes,2025-08-12_14h44.17.650,empathy_intonation_perc,2024.2.4,MacIntel,59.88023952,60fdd60f32a7b191d931f514,687ed1b7e638a4cbf2f02089,689b8b45d8b47a0ea9f6ba78,,,,,,,,,,,,,,,,1,,,,,,,,,,,,,,,,,,,,,,,,,,,,,,,,,,,,,,,,,,,,,,,,,,,,,,,,,46,martillo,,,,,698.7155,699.9489,0,0,0.7189,,0,79,79,45,1,REAL,FAKE,,,,,,,,,,,,,,,,,
,,,,,,,,,60fdd60f32a7b191d931f514,mexican,13 or older,"no, only English or Spanish",yes,2025-08-12_14h44.17.650,empathy_intonation_perc,2024.2.4,MacIntel,59.88023952,60fdd60f32a7b191d931f514,687ed1b7e638a4cbf2f02089,689b8b45d8b47a0ea9f6ba78,,,,,,,,,,,,,,,,0,,,,,,,,,,,,,,,,,,,,,,,,,,,,,,,,,,,,,,,,,,,,,,,,,,,,,,,,,19,brecedad,,,,,699.9501,701.2657,0,1,0.7849,,0,80,80,18,1,REAL,FAKE,,,,,,,,,,,,,,,,,
,,,,,,,,,60fdd60f32a7b191d931f514,mexican,13 or older,"no, only English or Spanish",yes,2025-08-12_14h44.17.650,empathy_intonation_perc,2024.2.4,MacIntel,59.88023952,60fdd60f32a7b191d931f514,687ed1b7e638a4cbf2f02089,689b8b45d8b47a0ea9f6ba78,,,,,,,,,,,,,,,,1,,,,,,,,,,,,,,,,,,,,,,,,,,,,,,,,,,,,,,,,,,,,,,,,,,,,,,,,,20,ávido,,,,,701.2674,702.5486,0,0,0.7502,,0,81,81,19,1,REAL,FAKE,,,,,,,,,,,,,,,,,
,,,,,,,,,60fdd60f32a7b191d931f514,mexican,13 or older,"no, only English or Spanish",yes,2025-08-12_14h44.17.650,empathy_intonation_perc,2024.2.4,MacIntel,59.88023952,60fdd60f32a7b191d931f514,687ed1b7e638a4cbf2f02089,689b8b45d8b47a0ea9f6ba78,,,,,,,,,,,,,,,,1,,,,,,,,,,,,,,,,,,,,,,,,,,,,,,,,,,,,,,,,,,,,,,,,,,,,,,,,,76,atar,,,,,702.5503,703.6986,0,0,0.6217,,0,82,82,75,1,REAL,FAKE,,,,,,,,,,,,,,,,,
,,,,,,,,,60fdd60f32a7b191d931f514,mexican,13 or older,"no, only English or Spanish",yes,2025-08-12_14h44.17.650,empathy_intonation_perc,2024.2.4,MacIntel,59.88023952,60fdd60f32a7b191d931f514,687ed1b7e638a4cbf2f02089,689b8b45d8b47a0ea9f6ba78,,,,,,,,,,,,,,,,1,,,,,,,,,,,,,,,,,,,,,,,,,,,,,,,,,,,,,,,,,,,,,,,,,,,,,,,,,91,click the 1 key.,,,,,703.7002,705.4653,1,1,1.2352,,0,83,83,90,1,REAL,FAKE,,,,,,,,,,,,,,,,,
,,,,,,,,,60fdd60f32a7b191d931f514,mexican,13 or older,"no, only English or Spanish",yes,2025-08-12_14h44.17.650,empathy_intonation_perc,2024.2.4,MacIntel,59.88023952,60fdd60f32a7b191d931f514,687ed1b7e638a4cbf2f02089,689b8b45d8b47a0ea9f6ba78,,,,,,,,,,,,,,,,0,,,,,,,,,,,,,,,,,,,,,,,,,,,,,,,,,,,,,,,,,,,,,,,,,,,,,,,,,18,arsa,,,,,705.4668,706.7823,1,0,0.7826,,0,84,84,17,1,REAL,FAKE,,,,,,,,,,,,,,,,,
,,,,,,,,,60fdd60f32a7b191d931f514,mexican,13 or older,"no, only English or Spanish",yes,2025-08-12_14h44.17.650,empathy_intonation_perc,2024.2.4,MacIntel,59.88023952,60fdd60f32a7b191d931f514,687ed1b7e638a4cbf2f02089,689b8b45d8b47a0ea9f6ba78,,,,,,,,,,,,,,,,1,,,,,,,,,,,,,,,,,,,,,,,,,,,,,,,,,,,,,,,,,,,,,,,,,,,,,,,,,75,yacer,,,,,706.7835,708.3491,0,0,1.0342,,0,85,85,74,1,REAL,FAKE,,,,,,,,,,,,,,,,,
,,,,,,,,,60fdd60f32a7b191d931f514,mexican,13 or older,"no, only English or Spanish",yes,2025-08-12_14h44.17.650,empathy_intonation_perc,2024.2.4,MacIntel,59.88023952,60fdd60f32a7b191d931f514,687ed1b7e638a4cbf2f02089,689b8b45d8b47a0ea9f6ba78,,,,,,,,,,,,,,,,1,,,,,,,,,,,,,,,,,,,,,,,,,,,,,,,,,,,,,,,,,,,,,,,,,,,,,,,,,31,pandilla,,,,,708.3505,709.5824,0,0,0.7095,,0,86,86,30,1,REAL,FAKE,,,,,,,,,,,,,,,,,
,,,,,,,,,60fdd60f32a7b191d931f514,mexican,13 or older,"no, only English or Spanish",yes,2025-08-12_14h44.17.650,empathy_intonation_perc,2024.2.4,MacIntel,59.88023952,60fdd60f32a7b191d931f514,687ed1b7e638a4cbf2f02089,689b8b45d8b47a0ea9f6ba78,,,,,,,,,,,,,,,,0,,,,,,,,,,,,,,,,,,,,,,,,,,,,,,,,,,,,,,,,,,,,,,,,,,,,,,,,,66,hacido,,,,,709.5838,710.932,0,1,0.824,,0,87,87,65,1,REAL,FAKE,,,,,,,,,,,,,,,,,
,,,,,,,,,60fdd60f32a7b191d931f514,mexican,13 or older,"no, only English or Spanish",yes,2025-08-12_14h44.17.650,empathy_intonation_perc,2024.2.4,MacIntel,59.88023952,60fdd60f32a7b191d931f514,687ed1b7e638a4cbf2f02089,689b8b45d8b47a0ea9f6ba78,,,,,,,,,,,,,,,,1,,,,,,,,,,,,,,,,,,,,,,,,,,,,,,,,,,,,,,,,,,,,,,,,,,,,,,,,,26,secuestro,,,,,710.9337,712.0654,0,0,0.6003,,0,88,88,25,1,REAL,FAKE,,,,,,,,,,,,,,,,,
,,,,,,,,,60fdd60f32a7b191d931f514,mexican,13 or older,"no, only English or Spanish",yes,2025-08-12_14h44.17.650,empathy_intonation_perc,2024.2.4,MacIntel,59.88023952,60fdd60f32a7b191d931f514,687ed1b7e638a4cbf2f02089,689b8b45d8b47a0ea9f6ba78,,,,,,,,,,,,,,,,0,,,,,,,,,,,,,,,,,,,,,,,,,,,,,,,,,,,,,,,,,,,,,,,,,,,,,,,,,33,pauca,,,,,712.066,713.2491,0,1,0.6509,,0,89,89,32,1,REAL,FAKE,,,,,,,,,,,,,,,,,
,,,,,,,,,60fdd60f32a7b191d931f514,mexican,13 or older,"no, only English or Spanish",yes,2025-08-12_14h44.17.650,empathy_intonation_perc,2024.2.4,MacIntel,59.88023952,60fdd60f32a7b191d931f514,687ed1b7e638a4cbf2f02089,689b8b45d8b47a0ea9f6ba78,,,,,,,,,,,,,,,,1,,,,,,,,,,,,,,,,,,,,,,,,,,,,,,,,,,,,,,,,,,,,,,,,,,,,,,,,,64,orgulloso,,,,,713.2504,714.3159,0,0,0.5358,,0,90,90,63,1,REAL,FAKE,,,,,,,,,,,,,,,,,
,,,,,,,,,60fdd60f32a7b191d931f514,mexican,13 or older,"no, only English or Spanish",yes,2025-08-12_14h44.17.650,empathy_intonation_perc,2024.2.4,MacIntel,59.88023952,60fdd60f32a7b191d931f514,687ed1b7e638a4cbf2f02089,689b8b45d8b47a0ea9f6ba78,,,,,,,,,,,,,,,,0,,,,,,,,,,,,,,,,,,,,,,,,,,,,,,,,,,,,,,,,,,,,,,,,,,,,,,,,,58,plaudir,,,,,714.317,715.4651,0,1,0.6331,,0,91,91,57,1,REAL,FAKE,,,,,,,,,,,,,,,,,
,,,,,,,,,60fdd60f32a7b191d931f514,mexican,13 or older,"no, only English or Spanish",yes,2025-08-12_14h44.17.650,empathy_intonation_perc,2024.2.4,MacIntel,59.88023952,60fdd60f32a7b191d931f514,687ed1b7e638a4cbf2f02089,689b8b45d8b47a0ea9f6ba78,,,,,,,,,,,,,,,,,,,,,,,,,,,,,,,,,,,,,,,,,,,,,,,,,,,,,,,,,,,,,,,,,,,,,,,,,,,,,,,,,,,,,,,,,,,,715.4662,721.7327,,,,,,,,,,,,,,,
,,,,,,,,,60fdd60f32a7b191d931f514,mexican,13 or older,"no, only English or Spanish",yes,2025-08-12_14h44.17.650,empathy_intonation_perc,2024.2.4,MacIntel,59.88023952,60fdd60f32a7b191d931f514,687ed1b7e638a4cbf2f02089,689b8b45d8b47a0ea9f6ba78,,,,,,,,,,,,,,,1,,,,,,,,,,,,,,,,,,,,,,,,,,,,,,,,,,,,,,,,,,,,,,,,,,,,,,,,,,,,,,,,,,,,,,,,,,,,,,,721.741,727.1319,strongly agree,0,0,0,0,1,I can easily tell if someone else wants to enter a conversation.,1,0,1,0,,
,,,,,,,,,60fdd60f32a7b191d931f514,mexican,13 or older,"no, only English or Spanish",yes,2025-08-12_14h44.17.650,empathy_intonation_perc,2024.2.4,MacIntel,59.88023952,60fdd60f32a7b191d931f514,687ed1b7e638a4cbf2f02089,689b8b45d8b47a0ea9f6ba78,,,,,,,,,,,,,,,2,,,,,,,,,,,,,,,,,,,,,,,,,,,,,,,,,,,,,,,,,,,,,,,,,,,,,,,,,,,,,,,,,,,,,,,,,,,,,,,727.1331,731.4494,slightly agree,0,1,1,1,1,I prefer animals to humans.,0,1,0,0,,
,,,,,,,,,60fdd60f32a7b191d931f514,mexican,13 or older,"no, only English or Spanish",yes,2025-08-12_14h44.17.650,empathy_intonation_perc,2024.2.4,MacIntel,59.88023952,60fdd60f32a7b191d931f514,687ed1b7e638a4cbf2f02089,689b8b45d8b47a0ea9f6ba78,,,,,,,,,,,,,,,3,,,,,,,,,,,,,,,,,,,,,,,,,,,,,,,,,,,,,,,,,,,,,,,,,,,,,,,,,,,,,,,,,,,,,,,,,,,,,,,731.4514,734.4321,slightly agree,0,2,2,2,1,I try to keep up with the current trends and fashions.,0,1,0,0,,
,,,,,,,,,60fdd60f32a7b191d931f514,mexican,13 or older,"no, only English or Spanish",yes,2025-08-12_14h44.17.650,empathy_intonation_perc,2024.2.4,MacIntel,59.88023952,60fdd60f32a7b191d931f514,687ed1b7e638a4cbf2f02089,689b8b45d8b47a0ea9f6ba78,,,,,,,,,,,,,,,4,,,,,,,,,,,,,,,,,,,,,,,,,,,,,,,,,,,,,,,,,,,,,,,,,,,,,,,,,,,,,,,,,,,,,,,,,,,,,,,734.4343,740.9998,strongly disagree,0,3,3,3,1,"I find it difficult to explain to others things that I understand easily,   when they don't understand it first time.",1,0,0,1,,
,,,,,,,,,60fdd60f32a7b191d931f514,mexican,13 or older,"no, only English or Spanish",yes,2025-08-12_14h44.17.650,empathy_intonation_perc,2024.2.4,MacIntel,59.88023952,60fdd60f32a7b191d931f514,687ed1b7e638a4cbf2f02089,689b8b45d8b47a0ea9f6ba78,,,,,,,,,,,,,,,5,,,,,,,,,,,,,,,,,,,,,,,,,,,,,,,,,,,,,,,,,,,,,,,,,,,,,,,,,,,,,,,,,,,,,,,,,,,,,,,741.0015,743.5497,slightly agree,0,4,4,4,1,I dream most nights.,0,1,0,0,,
,,,,,,,,,60fdd60f32a7b191d931f514,mexican,13 or older,"no, only English or Spanish",yes,2025-08-12_14h44.17.650,empathy_intonation_perc,2024.2.4,MacIntel,59.88023952,60fdd60f32a7b191d931f514,687ed1b7e638a4cbf2f02089,689b8b45d8b47a0ea9f6ba78,,,,,,,,,,,,,,,6,,,,,,,,,,,,,,,,,,,,,,,,,,,,,,,,,,,,,,,,,,,,,,,,,,,,,,,,,,,,,,,,,,,,,,,,,,,,,,,743.5511,748.783,slightly agree,0,5,5,5,1,I really enjoy caring for other people.,1,0,1,0,,
