instructions_exposure.started,instructions_exposure.stopped,instructions_exposure_loop.thisRepN,instructions_exposure_loop.thisTrialN,instructions_exposure_loop.thisN,instructions_exposure_loop.thisIndex,instructions_exposure_loop.ran,instructions_text,continue_text,participant_id,"What variety of Spanish are you most familiar with? (e.g., Peruvian, Spanish, Mexican)",At what age did you begin learning Spanish?,Are you proficient in any languages other than English/Spanish?,"Are you familiar with Caribbean (e.g., Caribbean, Puerto Rican) or Galician Spanish?",date,expName,psychopyVersion,OS,frameRate,id,study_id,session,trial_exposure.started,trial_exposure.stopped,key_resp_exposure.keys,key_resp_exposure.corr,key_resp_exposure.rt,key_resp_exposure.duration,key_resp.keys,exposure_loop.thisRepN,exposure_loop.thisTrialN,exposure_loop.thisN,exposure_loop.thisIndex,exposure_loop.ran,item_num,correct_response,question,path,duration,instructions_2afc.started,instructions_2afc.stopped,instructions_2afc_loop.thisRepN,instructions_2afc_loop.thisTrialN,instructions_2afc_loop.thisN,instructions_2afc_loop.thisIndex,instructions_2afc_loop.ran,practice_2afc.started,practice_2afc.stopped,key_resp_2afc_practice.keys,key_resp_2afc_practice.corr,key_resp_2afc_practice.rt,key_resp_2afc_practice.duration,trials_2afc_practice_loop.thisRepN,trials_2afc_practice_loop.thisTrialN,trials_2afc_practice_loop.thisN,trials_2afc_practice_loop.thisIndex,trials_2afc_practice_loop.ran,check_2afc.started,check_2afc.stopped,trial_2afc.started,trial_2afc.stopped,key_resp_2afc_trial.keys,key_resp_2afc_trial.corr,key_resp_2afc_trial.rt,key_resp_2afc_trial.duration,trials_2afc_loop.thisRepN,trials_2afc_loop.thisTrialN,trials_2afc_loop.thisN,trials_2afc_loop.thisIndex,trials_2afc_loop.ran,target,variety,instructions_lextale.started,instructions_lextale.stopped,instructions_lextale_loop.thisRepN,instructions_lextale_loop.thisTrialN,instructions_lextale_loop.thisN,instructions_lextale_loop.thisIndex,instructions_lextale_loop.ran,practice_lextale.started,practice_lextale.stopped,key_resp_lextale_practice.keys,key_resp_lextale_practice.corr,key_resp_lextale_practice.rt,key_resp_lextale_practice.duration,practice_feedback_lextale.started,practice_feedback_lextale.stopped,trials_lextale_practice_loop.thisRepN,trials_lextale_practice_loop.thisTrialN,trials_lextale_practice_loop.thisN,trials_lextale_practice_loop.thisIndex,trials_lextale_practice_loop.ran,stim,word,prac_button_real,prac_button_false,check_lextale.started,check_lextale.stopped,trial_lextale.started,trial_lextale.stopped,key_resp_lextale_trial.keys,key_resp_lextale_trial.corr,key_resp_lextale_trial.rt,key_resp_lextale_trial.duration,trials_lextale_loop.thisRepN,trials_lextale_loop.thisTrialN,trials_lextale_loop.thisN,trials_lextale_loop.thisIndex,trials_lextale_loop.ran,button_real,button_false,instructions_eq.started,instructions_eq.stopped,trial_eq.started,trial_eq.stopped,slider_eq_trial.response,trials_eq_loop.thisRepN,trials_eq_loop.thisTrialN,trials_eq_loop.thisN,trials_eq_loop.thisIndex,trials_eq_loop.ran,item,is_test_item,is_distractor,is_agree_score,is_disagree_score,end_exp.started,end_exp.stopped
0.0185,1.954,0,0,0,0,1,"In the following task, you are going to hear a series of conversations.", (press the space bar to continue),610081ebf9f870b4213e06cb,Mexican,13 or older,"no, only English or Spanish",no,2025-08-12_14h26.54.866,empathy_intonation_perc,2024.2.4,Win32,59.88023952,610081ebf9f870b4213e06cb,687ed1b7e638a4cbf2f02089,689b87480fd5984874e9f6ef,,,,,,,,,,,,,,,,,,,,,,,,,,,,,,,,,,,,,,,,,,,,,,,,,,,,,,,,,,,,,,,,,,,,,,,,,,,,,,,,,,,,,,,,,,,,,,,,,,,,,,,,,,
1.9548,3.3922,0,1,1,1,1,It is okay if you don't not 100% understand them!, (press the space bar to continue),610081ebf9f870b4213e06cb,Mexican,13 or older,"no, only English or Spanish",no,2025-08-12_14h26.54.866,empathy_intonation_perc,2024.2.4,Win32,59.88023952,610081ebf9f870b4213e06cb,687ed1b7e638a4cbf2f02089,689b87480fd5984874e9f6ef,,,,,,,,,,,,,,,,,,,,,,,,,,,,,,,,,,,,,,,,,,,,,,,,,,,,,,,,,,,,,,,,,,,,,,,,,,,,,,,,,,,,,,,,,,,,,,,,,,,,,,,,,,
3.3944,4.9275,0,2,2,2,1,"After, you will read a sentence about the conversation and decide if it's true or false.", (press the space bar to continue),610081ebf9f870b4213e06cb,Mexican,13 or older,"no, only English or Spanish",no,2025-08-12_14h26.54.866,empathy_intonation_perc,2024.2.4,Win32,59.88023952,610081ebf9f870b4213e06cb,687ed1b7e638a4cbf2f02089,689b87480fd5984874e9f6ef,,,,,,,,,,,,,,,,,,,,,,,,,,,,,,,,,,,,,,,,,,,,,,,,,,,,,,,,,,,,,,,,,,,,,,,,,,,,,,,,,,,,,,,,,,,,,,,,,,,,,,,,,,
4.9301,7.7467,0,3,3,3,1,"If it's true, press '1' (True) and if it's false press '0' (False).", (press the space bar to continue),610081ebf9f870b4213e06cb,Mexican,13 or older,"no, only English or Spanish",no,2025-08-12_14h26.54.866,empathy_intonation_perc,2024.2.4,Win32,59.88023952,610081ebf9f870b4213e06cb,687ed1b7e638a4cbf2f02089,689b87480fd5984874e9f6ef,,,,,,,,,,,,,,,,,,,,,,,,,,,,,,,,,,,,,,,,,,,,,,,,,,,,,,,,,,,,,,,,,,,,,,,,,,,,,,,,,,,,,,,,,,,,,,,,,,,,,,,,,,
,,,,,,,,,610081ebf9f870b4213e06cb,Mexican,13 or older,"no, only English or Spanish",no,2025-08-12_14h26.54.866,empathy_intonation_perc,2024.2.4,Win32,59.88023952,610081ebf9f870b4213e06cb,687ed1b7e638a4cbf2f02089,689b87480fd5984874e9f6ef,7.7637,71.94,1,1,4.0956,,,0,0,0,1,1,2,1,The mom asked the daughter if she already went to the supermarket.,./stim/exposure_wavs/dr_stimuli_convo.wav,60,,,,,,,,,,,,,,,,,,,,,,,,,,,,,,,,,,,,,,,,,,,,,,,,,,,,,,,,,,,,,,,,,,,,,,,,,,,,,,,,,,,,,,,,,
,,,,,,,,,610081ebf9f870b4213e06cb,Mexican,13 or older,"no, only English or Spanish",no,2025-08-12_14h26.54.866,empathy_intonation_perc,2024.2.4,Win32,59.88023952,610081ebf9f870b4213e06cb,687ed1b7e638a4cbf2f02089,689b87480fd5984874e9f6ef,71.943,124.422,1,1,5.4417,,,0,1,1,0,1,1,1,The son asked the mom if Aunt Marina is okay.,./stim/exposure_wavs/ga_stimuli_convo.wav,47,,,,,,,,,,,,,,,,,,,,,,,,,,,,,,,,,,,,,,,,,,,,,,,,,,,,,,,,,,,,,,,,,,,,,,,,,,,,,,,,,,,,,,,,,
,,,,,,,,,610081ebf9f870b4213e06cb,Mexican,13 or older,"no, only English or Spanish",no,2025-08-12_14h26.54.866,empathy_intonation_perc,2024.2.4,Win32,59.88023952,610081ebf9f870b4213e06cb,687ed1b7e638a4cbf2f02089,689b87480fd5984874e9f6ef,124.4238,268.0727,0,1,107.6182,,,0,2,2,2,1,3,0,The mom already has rice.,./stim/exposure_wavs/pr_stimuli_convo.wav,36,,,,,,,,,,,,,,,,,,,,,,,,,,,,,,,,,,,,,,,,,,,,,,,,,,,,,,,,,,,,,,,,,,,,,,,,,,,,,,,,,,,,,,,,,
,,,,,,,"In the following task you are going to hear a series of utterances. 

  You will decide if the utterances sound like questions or not using your keyboard.", (press the spacebar to continue),610081ebf9f870b4213e06cb,Mexican,13 or older,"no, only English or Spanish",no,2025-08-12_14h26.54.866,empathy_intonation_perc,2024.2.4,Win32,59.88023952,610081ebf9f870b4213e06cb,687ed1b7e638a4cbf2f02089,689b87480fd5984874e9f6ef,,,,,,,,,,,,,,,,,,268.0814,273.4656,0,0,0,0,1,,,,,,,,,,,,,,,,,,,,,,,,,,,,,,,,,,,,,,,,,,,,,,,,,,,,,,,,,,,,,,,,,,,,,,,,,,,,,,,,,,
,,,,,,,"If you believe the utterance is a question, type '1' (for 'yes') and if you do not 
  believe it is a question type '0' (for 'no').

  Let's practice a bit...", (press the spacebar to continue),610081ebf9f870b4213e06cb,Mexican,13 or older,"no, only English or Spanish",no,2025-08-12_14h26.54.866,empathy_intonation_perc,2024.2.4,Win32,59.88023952,610081ebf9f870b4213e06cb,687ed1b7e638a4cbf2f02089,689b87480fd5984874e9f6ef,,,,,,,,,,,,,,,,,,273.473,275.7329,0,1,1,1,1,,,,,,,,,,,,,,,,,,,,,,,,,,,,,,,,,,,,,,,,,,,,,,,,,,,,,,,,,,,,,,,,,,,,,,,,,,,,,,,,,,
,,,,,,,,,610081ebf9f870b4213e06cb,Mexican,13 or older,"no, only English or Spanish",no,2025-08-12_14h26.54.866,empathy_intonation_perc,2024.2.4,Win32,59.88023952,610081ebf9f870b4213e06cb,687ed1b7e638a4cbf2f02089,689b87480fd5984874e9f6ef,,,,,,,,,,,,,,0,,./stim/wavs/cuban_statement_filler_Cocinabas-por-la-noche.wav,,,,,,,,,275.7426,278.7709,0,1,2.5061,,0,0,0,4,1,,,,,,,,,,,,,,,,,,,,,,,,,,,,,,,,,,,,,,,,,,,,,,,,,,,,,,,,,,,,,,,,,,,,,,,
,,,,,,,,,610081ebf9f870b4213e06cb,Mexican,13 or older,"no, only English or Spanish",no,2025-08-12_14h26.54.866,empathy_intonation_perc,2024.2.4,Win32,59.88023952,610081ebf9f870b4213e06cb,687ed1b7e638a4cbf2f02089,689b87480fd5984874e9f6ef,,,,,,,,,,,,,,0,,./stim/wavs/peruvian_statement_filler_El-nino-habla-con-su-madre.wav,,,,,,,,,278.7745,281.5679,0,1,2.2536,,0,1,1,6,1,,,,,,,,,,,,,,,,,,,,,,,,,,,,,,,,,,,,,,,,,,,,,,,,,,,,,,,,,,,,,,,,,,,,,,,
,,,,,,,,,610081ebf9f870b4213e06cb,Mexican,13 or older,"no, only English or Spanish",no,2025-08-12_14h26.54.866,empathy_intonation_perc,2024.2.4,Win32,59.88023952,610081ebf9f870b4213e06cb,687ed1b7e638a4cbf2f02089,689b87480fd5984874e9f6ef,,,,,,,,,,,,,,1,,./stim/wavs/castilian_question_filler_Mi-esposo-conoce-al-chico.wav,,,,,,,,,281.5685,284.2777,1,1,2.18,,0,2,2,0,1,,,,,,,,,,,,,,,,,,,,,,,,,,,,,,,,,,,,,,,,,,,,,,,,,,,,,,,,,,,,,,,,,,,,,,,
,,,,,,,,,610081ebf9f870b4213e06cb,Mexican,13 or older,"no, only English or Spanish",no,2025-08-12_14h26.54.866,empathy_intonation_perc,2024.2.4,Win32,59.88023952,610081ebf9f870b4213e06cb,687ed1b7e638a4cbf2f02089,689b87480fd5984874e9f6ef,,,,,,,,,,,,,,1,,./stim/wavs/argentine_question_filler_Mi-vecino-habla-mucho.wav,,,,,,,,,284.2807,286.3427,1,1,1.5355,,0,3,3,1,1,,,,,,,,,,,,,,,,,,,,,,,,,,,,,,,,,,,,,,,,,,,,,,,,,,,,,,,,,,,,,,,,,,,,,,,
,,,,,,,,,610081ebf9f870b4213e06cb,Mexican,13 or older,"no, only English or Spanish",no,2025-08-12_14h26.54.866,empathy_intonation_perc,2024.2.4,Win32,59.88023952,610081ebf9f870b4213e06cb,687ed1b7e638a4cbf2f02089,689b87480fd5984874e9f6ef,,,,,,,,,,,,,,1,,./stim/wavs/mexican_question_filler_Felipe-no-tiene-contrasena.wav,,,,,,,,,286.3436,288.5835,1,1,1.7163,,0,4,4,3,1,,,,,,,,,,,,,,,,,,,,,,,,,,,,,,,,,,,,,,,,,,,,,,,,,,,,,,,,,,,,,,,,,,,,,,,
,,,,,,,,,610081ebf9f870b4213e06cb,Mexican,13 or older,"no, only English or Spanish",no,2025-08-12_14h26.54.866,empathy_intonation_perc,2024.2.4,Win32,59.88023952,610081ebf9f870b4213e06cb,687ed1b7e638a4cbf2f02089,689b87480fd5984874e9f6ef,,,,,,,,,,,,,,0,,./stim/wavs/andalusian_statement_filler_Alberto-nunca-se-afeita.wav,,,,,,,,,288.5855,290.9207,0,1,1.8058,,0,5,5,5,1,,,,,,,,,,,,,,,,,,,,,,,,,,,,,,,,,,,,,,,,,,,,,,,,,,,,,,,,,,,,,,,,,,,,,,,
,,,,,,,,,610081ebf9f870b4213e06cb,Mexican,13 or older,"no, only English or Spanish",no,2025-08-12_14h26.54.866,empathy_intonation_perc,2024.2.4,Win32,59.88023952,610081ebf9f870b4213e06cb,687ed1b7e638a4cbf2f02089,689b87480fd5984874e9f6ef,,,,,,,,,,,,,,1,,./stim/wavs/chilean_question_filler_Mi-padre-cantaba-bien.wav,,,,,,,,,290.9243,292.8738,0,0,1.4242,,0,6,6,2,1,,,,,,,,,,,,,,,,,,,,,,,,,,,,,,,,,,,,,,,,,,,,,,,,,,,,,,,,,,,,,,,,,,,,,,,
,,,,,,,,,610081ebf9f870b4213e06cb,Mexican,13 or older,"no, only English or Spanish",no,2025-08-12_14h26.54.866,empathy_intonation_perc,2024.2.4,Win32,59.88023952,610081ebf9f870b4213e06cb,687ed1b7e638a4cbf2f02089,689b87480fd5984874e9f6ef,,,,,,,,,,,,,,0,,./stim/wavs/puertorican_statement_filler_La-nina-pinta-con-su-amiga.wav,,,,,,,,,292.8769,295.4196,0,1,2.0097,,0,7,7,7,1,,,,,,,,,,,,,,,,,,,,,,,,,,,,,,,,,,,,,,,,,,,,,,,,,,,,,,,,,,,,,,,,,,,,,,,
,,,,,,,,,610081ebf9f870b4213e06cb,Mexican,13 or older,"no, only English or Spanish",no,2025-08-12_14h26.54.866,empathy_intonation_perc,2024.2.4,Win32,59.88023952,610081ebf9f870b4213e06cb,687ed1b7e638a4cbf2f02089,689b87480fd5984874e9f6ef,,,,,,,,,,,,,,,,,,,,,,,,,,,,,,,,,,,,295.4201,299.1724,,,,,,,,,,,,,,,,,,,,,,,,,,,,,,,,,,,,,,,,,,,,,,,,,,,,,,,,,,,,,,,,,,,,,
,,,,,,,,,610081ebf9f870b4213e06cb,Mexican,13 or older,"no, only English or Spanish",no,2025-08-12_14h26.54.866,empathy_intonation_perc,2024.2.4,Win32,59.88023952,610081ebf9f870b4213e06cb,687ed1b7e638a4cbf2f02089,689b87480fd5984874e9f6ef,,,,,,,,,,,,,13,1,,./stim/wavs/mexican_match_interrogative-total-yn_Ana-lleva-el-abrigo.wav,,,,,,,,,,,,,,,,,,,,,,299.194,301.177,1,1,1.4678,,0,0,0,12,1,0,mexican,,,,,,,,,,,,,,,,,,,,,,,,,,,,,,,,,,,,,,,,,,,,,,,,,,,,,,,,
,,,,,,,,,610081ebf9f870b4213e06cb,Mexican,13 or older,"no, only English or Spanish",no,2025-08-12_14h26.54.866,empathy_intonation_perc,2024.2.4,Win32,59.88023952,610081ebf9f870b4213e06cb,687ed1b7e638a4cbf2f02089,689b87480fd5984874e9f6ef,,,,,,,,,,,,,26,1,,./stim/wavs/castilian_mismatch_interrogative-total-yn_La-nina-lava-el-plato.wav,,,,,,,,,,,,,,,,,,,,,,301.1774,303.3315,1,1,1.6369,,0,1,1,25,1,0,castilian,,,,,,,,,,,,,,,,,,,,,,,,,,,,,,,,,,,,,,,,,,,,,,,,,,,,,,,,
,,,,,,,,,610081ebf9f870b4213e06cb,Mexican,13 or older,"no, only English or Spanish",no,2025-08-12_14h26.54.866,empathy_intonation_perc,2024.2.4,Win32,59.88023952,610081ebf9f870b4213e06cb,687ed1b7e638a4cbf2f02089,689b87480fd5984874e9f6ef,,,,,,,,,,,,,37,1,,./stim/wavs/mexican_mismatch_interrogative-total-yn_La-maestra-vive-en-Paris.wav,,,,,,,,,,,,,,,,,,,,,,303.3321,305.6067,1,1,1.6856,,0,2,2,36,1,0,mexican,,,,,,,,,,,,,,,,,,,,,,,,,,,,,,,,,,,,,,,,,,,,,,,,,,,,,,,,
,,,,,,,,,610081ebf9f870b4213e06cb,Mexican,13 or older,"no, only English or Spanish",no,2025-08-12_14h26.54.866,empathy_intonation_perc,2024.2.4,Win32,59.88023952,610081ebf9f870b4213e06cb,687ed1b7e638a4cbf2f02089,689b87480fd5984874e9f6ef,,,,,,,,,,,,,15,1,,./stim/wavs/mexican_match_interrogative-total-yn_David-leia-el-libro.wav,,,,,,,,,,,,,,,,,,,,,,305.6074,307.6762,1,1,1.547,,0,3,3,14,1,0,mexican,,,,,,,,,,,,,,,,,,,,,,,,,,,,,,,,,,,,,,,,,,,,,,,,,,,,,,,,
,,,,,,,,,610081ebf9f870b4213e06cb,Mexican,13 or older,"no, only English or Spanish",no,2025-08-12_14h26.54.866,empathy_intonation_perc,2024.2.4,Win32,59.88023952,610081ebf9f870b4213e06cb,687ed1b7e638a4cbf2f02089,689b87480fd5984874e9f6ef,,,,,,,,,,,,,17,1,,./stim/wavs/mexican_match_interrogative-total-yn_Mariano-habla-del-tiempo.wav,,,,,,,,,,,,,,,,,,,,,,307.6767,309.8293,1,1,1.6386,,0,4,4,16,1,0,mexican,,,,,,,,,,,,,,,,,,,,,,,,,,,,,,,,,,,,,,,,,,,,,,,,,,,,,,,,
,,,,,,,,,610081ebf9f870b4213e06cb,Mexican,13 or older,"no, only English or Spanish",no,2025-08-12_14h26.54.866,empathy_intonation_perc,2024.2.4,Win32,59.88023952,610081ebf9f870b4213e06cb,687ed1b7e638a4cbf2f02089,689b87480fd5984874e9f6ef,,,,,,,,,,,,,81,0,,./stim/wavs/mexican_mismatch_declarative-broad-focus_La-maestra-vive-en-Paris.wav,,,,,,,,,,,,,,,,,,,,,,309.8306,312.0492,0,1,1.6866,,0,5,5,80,1,0,mexican,,,,,,,,,,,,,,,,,,,,,,,,,,,,,,,,,,,,,,,,,,,,,,,,,,,,,,,,
,,,,,,,,,610081ebf9f870b4213e06cb,Mexican,13 or older,"no, only English or Spanish",no,2025-08-12_14h26.54.866,empathy_intonation_perc,2024.2.4,Win32,59.88023952,610081ebf9f870b4213e06cb,687ed1b7e638a4cbf2f02089,689b87480fd5984874e9f6ef,,,,,,,,,,,,,1,1,,./stim/wavs/castilian_match_interrogative-total-yn_David-leia-el-libro.wav,,,,,,,,,,,,,,,,,,,,,,312.0503,314.4704,1,1,1.8919,,0,6,6,0,1,0,castilian,,,,,,,,,,,,,,,,,,,,,,,,,,,,,,,,,,,,,,,,,,,,,,,,,,,,,,,,
,,,,,,,,,610081ebf9f870b4213e06cb,Mexican,13 or older,"no, only English or Spanish",no,2025-08-12_14h26.54.866,empathy_intonation_perc,2024.2.4,Win32,59.88023952,610081ebf9f870b4213e06cb,687ed1b7e638a4cbf2f02089,689b87480fd5984874e9f6ef,,,,,,,,,,,,,24,1,,./stim/wavs/puertorican_match_interrogative-total-yn_Maria-bebe-el-vino.wav,,,,,,,,,,,,,,,,,,,,,,314.4723,316.4046,0,0,1.4059,,0,7,7,23,1,1,puertorican,,,,,,,,,,,,,,,,,,,,,,,,,,,,,,,,,,,,,,,,,,,,,,,,,,,,,,,,
,,,,,,,,,610081ebf9f870b4213e06cb,Mexican,13 or older,"no, only English or Spanish",no,2025-08-12_14h26.54.866,empathy_intonation_perc,2024.2.4,Win32,59.88023952,610081ebf9f870b4213e06cb,687ed1b7e638a4cbf2f02089,689b87480fd5984874e9f6ef,,,,,,,,,,,,,68,0,,./stim/wavs/puertorican_match_declarative-broad-focus_Maria-bebe-el-vino.wav,,,,,,,,,,,,,,,,,,,,,,316.4051,318.474,0,1,1.5589,,0,8,8,67,1,0,puertorican,,,,,,,,,,,,,,,,,,,,,,,,,,,,,,,,,,,,,,,,,,,,,,,,,,,,,,,,
,,,,,,,,,610081ebf9f870b4213e06cb,Mexican,13 or older,"no, only English or Spanish",no,2025-08-12_14h26.54.866,empathy_intonation_perc,2024.2.4,Win32,59.88023952,610081ebf9f870b4213e06cb,687ed1b7e638a4cbf2f02089,689b87480fd5984874e9f6ef,,,,,,,,,,,,,42,1,,./stim/wavs/puertorican_mismatch_interrogative-total-yn_La-maestra-vive-en-Paris.wav,,,,,,,,,,,,,,,,,,,,,,318.4746,320.7271,0,0,1.7392,,0,9,9,41,1,1,puertorican,,,,,,,,,,,,,,,,,,,,,,,,,,,,,,,,,,,,,,,,,,,,,,,,,,,,,,,,
,,,,,,,,,610081ebf9f870b4213e06cb,Mexican,13 or older,"no, only English or Spanish",no,2025-08-12_14h26.54.866,empathy_intonation_perc,2024.2.4,Win32,59.88023952,610081ebf9f870b4213e06cb,687ed1b7e638a4cbf2f02089,689b87480fd5984874e9f6ef,,,,,,,,,,,,,74,0,,./stim/wavs/cuban_mismatch_declarative-broad-focus_El-bebe-comia-muy-bien.wav,,,,,,,,,,,,,,,,,,,,,,320.7275,322.5805,0,1,1.3447,,0,10,10,73,1,0,cuban,,,,,,,,,,,,,,,,,,,,,,,,,,,,,,,,,,,,,,,,,,,,,,,,,,,,,,,,
,,,,,,,,,610081ebf9f870b4213e06cb,Mexican,13 or older,"no, only English or Spanish",no,2025-08-12_14h26.54.866,empathy_intonation_perc,2024.2.4,Win32,59.88023952,610081ebf9f870b4213e06cb,687ed1b7e638a4cbf2f02089,689b87480fd5984874e9f6ef,,,,,,,,,,,,,82,0,,./stim/wavs/mexican_mismatch_declarative-broad-focus_Mi-novio-viene-del-lago.wav,,,,,,,,,,,,,,,,,,,,,,322.5813,324.5008,0,1,1.3903,,0,11,11,81,1,0,mexican,,,,,,,,,,,,,,,,,,,,,,,,,,,,,,,,,,,,,,,,,,,,,,,,,,,,,,,,
,,,,,,,,,610081ebf9f870b4213e06cb,Mexican,13 or older,"no, only English or Spanish",no,2025-08-12_14h26.54.866,empathy_intonation_perc,2024.2.4,Win32,59.88023952,610081ebf9f870b4213e06cb,687ed1b7e638a4cbf2f02089,689b87480fd5984874e9f6ef,,,,,,,,,,,,,36,1,,./stim/wavs/mexican_mismatch_interrogative-total-yn_El-nino-oye-el-rio.wav,,,,,,,,,,,,,,,,,,,,,,324.5024,326.9688,0,0,1.9447,,0,12,12,35,1,0,mexican,,,,,,,,,,,,,,,,,,,,,,,,,,,,,,,,,,,,,,,,,,,,,,,,,,,,,,,,
,,,,,,,,,610081ebf9f870b4213e06cb,Mexican,13 or older,"no, only English or Spanish",no,2025-08-12_14h26.54.866,empathy_intonation_perc,2024.2.4,Win32,59.88023952,610081ebf9f870b4213e06cb,687ed1b7e638a4cbf2f02089,689b87480fd5984874e9f6ef,,,,,,,,,,,,,52,0,,./stim/wavs/cuban_match_declarative-broad-focus_Daniel-iba-a-Bolivia.wav,,,,,,,,,,,,,,,,,,,,,,326.9693,329.1051,0,1,1.6161,,0,13,13,51,1,0,cuban,,,,,,,,,,,,,,,,,,,,,,,,,,,,,,,,,,,,,,,,,,,,,,,,,,,,,,,,
,,,,,,,,,610081ebf9f870b4213e06cb,Mexican,13 or older,"no, only English or Spanish",no,2025-08-12_14h26.54.866,empathy_intonation_perc,2024.2.4,Win32,59.88023952,610081ebf9f870b4213e06cb,687ed1b7e638a4cbf2f02089,689b87480fd5984874e9f6ef,,,,,,,,,,,,,29,1,,./stim/wavs/castilian_mismatch_interrogative-total-yn_Mi-tia-odia-la-lluvia.wav,,,,,,,,,,,,,,,,,,,,,,329.1057,331.2246,1,1,1.6061,,0,14,14,28,1,0,castilian,,,,,,,,,,,,,,,,,,,,,,,,,,,,,,,,,,,,,,,,,,,,,,,,,,,,,,,,
,,,,,,,,,610081ebf9f870b4213e06cb,Mexican,13 or older,"no, only English or Spanish",no,2025-08-12_14h26.54.866,empathy_intonation_perc,2024.2.4,Win32,59.88023952,610081ebf9f870b4213e06cb,687ed1b7e638a4cbf2f02089,689b87480fd5984874e9f6ef,,,,,,,,,,,,,69,0,,./stim/wavs/castilian_mismatch_declarative-broad-focus_El-nino-oye-el-rio.wav,,,,,,,,,,,,,,,,,,,,,,331.2251,333.5283,0,1,1.7924,,0,15,15,68,1,0,castilian,,,,,,,,,,,,,,,,,,,,,,,,,,,,,,,,,,,,,,,,,,,,,,,,,,,,,,,,
,,,,,,,,,610081ebf9f870b4213e06cb,Mexican,13 or older,"no, only English or Spanish",no,2025-08-12_14h26.54.866,empathy_intonation_perc,2024.2.4,Win32,59.88023952,610081ebf9f870b4213e06cb,687ed1b7e638a4cbf2f02089,689b87480fd5984874e9f6ef,,,,,,,,,,,,,11,1,,./stim/wavs/cuban_match_interrogative-total-yn_Mariano-habla-del-tiempo.wav,,,,,,,,,,,,,,,,,,,,,,333.5287,335.6983,0,0,1.658,,0,16,16,10,1,1,cuban,,,,,,,,,,,,,,,,,,,,,,,,,,,,,,,,,,,,,,,,,,,,,,,,,,,,,,,,
,,,,,,,,,610081ebf9f870b4213e06cb,Mexican,13 or older,"no, only English or Spanish",no,2025-08-12_14h26.54.866,empathy_intonation_perc,2024.2.4,Win32,59.88023952,610081ebf9f870b4213e06cb,687ed1b7e638a4cbf2f02089,689b87480fd5984874e9f6ef,,,,,,,,,,,,,79,0,,./stim/wavs/mexican_mismatch_declarative-broad-focus_El-bebe-comia-muy-bien.wav,,,,,,,,,,,,,,,,,,,,,,335.6995,338.2185,0,1,1.9957,,0,17,17,78,1,0,mexican,,,,,,,,,,,,,,,,,,,,,,,,,,,,,,,,,,,,,,,,,,,,,,,,,,,,,,,,
,,,,,,,,,610081ebf9f870b4213e06cb,Mexican,13 or older,"no, only English or Spanish",no,2025-08-12_14h26.54.866,empathy_intonation_perc,2024.2.4,Win32,59.88023952,610081ebf9f870b4213e06cb,687ed1b7e638a4cbf2f02089,689b87480fd5984874e9f6ef,,,,,,,,,,,,,14,1,,./stim/wavs/mexican_match_interrogative-total-yn_Daniel-iba-a-Bolivia.wav,,,,,,,,,,,,,,,,,,,,,,338.2192,340.4204,0,0,1.6725,,0,18,18,13,1,0,mexican,,,,,,,,,,,,,,,,,,,,,,,,,,,,,,,,,,,,,,,,,,,,,,,,,,,,,,,,
,,,,,,,,,610081ebf9f870b4213e06cb,Mexican,13 or older,"no, only English or Spanish",no,2025-08-12_14h26.54.866,empathy_intonation_perc,2024.2.4,Win32,59.88023952,610081ebf9f870b4213e06cb,687ed1b7e638a4cbf2f02089,689b87480fd5984874e9f6ef,,,,,,,,,,,,,51,0,,./stim/wavs/cuban_match_declarative-broad-focus_Ana-lleva-el-abrigo.wav,,,,,,,,,,,,,,,,,,,,,,340.4208,342.4065,0,1,1.469,,0,19,19,50,1,0,cuban,,,,,,,,,,,,,,,,,,,,,,,,,,,,,,,,,,,,,,,,,,,,,,,,,,,,,,,,
,,,,,,,,,610081ebf9f870b4213e06cb,Mexican,13 or older,"no, only English or Spanish",no,2025-08-12_14h26.54.866,empathy_intonation_perc,2024.2.4,Win32,59.88023952,610081ebf9f870b4213e06cb,687ed1b7e638a4cbf2f02089,689b87480fd5984874e9f6ef,,,,,,,,,,,,,86,0,,./stim/wavs/puertorican_mismatch_declarative-broad-focus_El-nino-oye-el-rio.wav,,,,,,,,,,,,,,,,,,,,,,342.4071,344.426,0,1,1.503,,0,20,20,85,1,0,puertorican,,,,,,,,,,,,,,,,,,,,,,,,,,,,,,,,,,,,,,,,,,,,,,,,,,,,,,,,
,,,,,,,,,610081ebf9f870b4213e06cb,Mexican,13 or older,"no, only English or Spanish",no,2025-08-12_14h26.54.866,empathy_intonation_perc,2024.2.4,Win32,59.88023952,610081ebf9f870b4213e06cb,687ed1b7e638a4cbf2f02089,689b87480fd5984874e9f6ef,,,,,,,,,,,,,75,0,,./stim/wavs/cuban_mismatch_declarative-broad-focus_El-hombre-mira-la-luna.wav,,,,,,,,,,,,,,,,,,,,,,344.4267,346.3456,0,1,1.4038,,0,21,21,74,1,0,cuban,,,,,,,,,,,,,,,,,,,,,,,,,,,,,,,,,,,,,,,,,,,,,,,,,,,,,,,,
,,,,,,,,,610081ebf9f870b4213e06cb,Mexican,13 or older,"no, only English or Spanish",no,2025-08-12_14h26.54.866,empathy_intonation_perc,2024.2.4,Win32,59.88023952,610081ebf9f870b4213e06cb,687ed1b7e638a4cbf2f02089,689b87480fd5984874e9f6ef,,,,,,,,,,,,,20,1,,./stim/wavs/puertorican_match_interrogative-total-yn_Daniel-iba-a-Bolivia.wav,,,,,,,,,,,,,,,,,,,,,,346.3462,348.3984,0,0,1.5332,,0,22,22,19,1,1,puertorican,,,,,,,,,,,,,,,,,,,,,,,,,,,,,,,,,,,,,,,,,,,,,,,,,,,,,,,,
,,,,,,,,,610081ebf9f870b4213e06cb,Mexican,13 or older,"no, only English or Spanish",no,2025-08-12_14h26.54.866,empathy_intonation_perc,2024.2.4,Win32,59.88023952,610081ebf9f870b4213e06cb,687ed1b7e638a4cbf2f02089,689b87480fd5984874e9f6ef,,,,,,,,,,,,,3,1,,./stim/wavs/castilian_match_interrogative-total-yn_Manuela-vende-el-carro.wav,,,,,,,,,,,,,,,,,,,,,,348.3992,350.6343,1,1,1.7036,,0,23,23,2,1,0,castilian,,,,,,,,,,,,,,,,,,,,,,,,,,,,,,,,,,,,,,,,,,,,,,,,,,,,,,,,
,,,,,,,,,610081ebf9f870b4213e06cb,Mexican,13 or older,"no, only English or Spanish",no,2025-08-12_14h26.54.866,empathy_intonation_perc,2024.2.4,Win32,59.88023952,610081ebf9f870b4213e06cb,687ed1b7e638a4cbf2f02089,689b87480fd5984874e9f6ef,,,,,,,,,,,,,60,0,,./stim/wavs/mexican_match_declarative-broad-focus_Emilio-ama-la-marcha.wav,,,,,,,,,,,,,,,,,,,,,,350.6347,352.9875,0,1,1.8405,,0,24,24,59,1,0,mexican,,,,,,,,,,,,,,,,,,,,,,,,,,,,,,,,,,,,,,,,,,,,,,,,,,,,,,,,
,,,,,,,,,610081ebf9f870b4213e06cb,Mexican,13 or older,"no, only English or Spanish",no,2025-08-12_14h26.54.866,empathy_intonation_perc,2024.2.4,Win32,59.88023952,610081ebf9f870b4213e06cb,687ed1b7e638a4cbf2f02089,689b87480fd5984874e9f6ef,,,,,,,,,,,,,19,1,,./stim/wavs/puertorican_match_interrogative-total-yn_Ana-lleva-el-abrigo.wav,,,,,,,,,,,,,,,,,,,,,,352.9882,355.0235,0,0,1.5212,,0,25,25,18,1,1,puertorican,,,,,,,,,,,,,,,,,,,,,,,,,,,,,,,,,,,,,,,,,,,,,,,,,,,,,,,,
,,,,,,,,,610081ebf9f870b4213e06cb,Mexican,13 or older,"no, only English or Spanish",no,2025-08-12_14h26.54.866,empathy_intonation_perc,2024.2.4,Win32,59.88023952,610081ebf9f870b4213e06cb,687ed1b7e638a4cbf2f02089,689b87480fd5984874e9f6ef,,,,,,,,,,,,,76,0,,./stim/wavs/cuban_mismatch_declarative-broad-focus_La-nina-lava-el-plato.wav,,,,,,,,,,,,,,,,,,,,,,355.0239,356.9269,0,1,1.3949,,0,26,26,75,1,0,cuban,,,,,,,,,,,,,,,,,,,,,,,,,,,,,,,,,,,,,,,,,,,,,,,,,,,,,,,,
,,,,,,,,,610081ebf9f870b4213e06cb,Mexican,13 or older,"no, only English or Spanish",no,2025-08-12_14h26.54.866,empathy_intonation_perc,2024.2.4,Win32,59.88023952,610081ebf9f870b4213e06cb,687ed1b7e638a4cbf2f02089,689b87480fd5984874e9f6ef,,,,,,,,,,,,,16,1,,./stim/wavs/mexican_match_interrogative-total-yn_Emilio-ama-la-marcha.wav,,,,,,,,,,,,,,,,,,,,,,356.9274,358.9622,1,1,1.511,,0,27,27,15,1,0,mexican,,,,,,,,,,,,,,,,,,,,,,,,,,,,,,,,,,,,,,,,,,,,,,,,,,,,,,,,
,,,,,,,,,610081ebf9f870b4213e06cb,Mexican,13 or older,"no, only English or Spanish",no,2025-08-12_14h26.54.866,empathy_intonation_perc,2024.2.4,Win32,59.88023952,610081ebf9f870b4213e06cb,687ed1b7e638a4cbf2f02089,689b87480fd5984874e9f6ef,,,,,,,,,,,,,66,0,,./stim/wavs/puertorican_match_declarative-broad-focus_Emilio-ama-la-marcha.wav,,,,,,,,,,,,,,,,,,,,,,358.9627,361.1152,0,1,1.6311,,0,28,28,65,1,0,puertorican,,,,,,,,,,,,,,,,,,,,,,,,,,,,,,,,,,,,,,,,,,,,,,,,,,,,,,,,
,,,,,,,,,610081ebf9f870b4213e06cb,Mexican,13 or older,"no, only English or Spanish",no,2025-08-12_14h26.54.866,empathy_intonation_perc,2024.2.4,Win32,59.88023952,610081ebf9f870b4213e06cb,687ed1b7e638a4cbf2f02089,689b87480fd5984874e9f6ef,,,,,,,,,,,,,70,0,,./stim/wavs/castilian_mismatch_declarative-broad-focus_La-maestra-vive-en-Paris.wav,,,,,,,,,,,,,,,,,,,,,,361.1159,363.5445,0,1,1.9189,,0,29,29,69,1,0,castilian,,,,,,,,,,,,,,,,,,,,,,,,,,,,,,,,,,,,,,,,,,,,,,,,,,,,,,,,
,,,,,,,,,610081ebf9f870b4213e06cb,Mexican,13 or older,"no, only English or Spanish",no,2025-08-12_14h26.54.866,empathy_intonation_perc,2024.2.4,Win32,59.88023952,610081ebf9f870b4213e06cb,687ed1b7e638a4cbf2f02089,689b87480fd5984874e9f6ef,,,,,,,,,,,,,62,0,,./stim/wavs/mexican_match_declarative-broad-focus_Marta-abre-el-regalo.wav,,,,,,,,,,,,,,,,,,,,,,363.5449,365.5311,0,1,1.4632,,0,30,30,61,1,0,mexican,,,,,,,,,,,,,,,,,,,,,,,,,,,,,,,,,,,,,,,,,,,,,,,,,,,,,,,,
,,,,,,,,,610081ebf9f870b4213e06cb,Mexican,13 or older,"no, only English or Spanish",no,2025-08-12_14h26.54.866,empathy_intonation_perc,2024.2.4,Win32,59.88023952,610081ebf9f870b4213e06cb,687ed1b7e638a4cbf2f02089,689b87480fd5984874e9f6ef,,,,,,,,,,,,,6,1,,./stim/wavs/castilian_match_interrogative-total-yn_Marta-abre-el-regalo.wav,,,,,,,,,,,,,,,,,,,,,,365.5315,367.5918,1,1,1.5371,,0,31,31,5,1,0,castilian,,,,,,,,,,,,,,,,,,,,,,,,,,,,,,,,,,,,,,,,,,,,,,,,,,,,,,,,
,,,,,,,,,610081ebf9f870b4213e06cb,Mexican,13 or older,"no, only English or Spanish",no,2025-08-12_14h26.54.866,empathy_intonation_perc,2024.2.4,Win32,59.88023952,610081ebf9f870b4213e06cb,687ed1b7e638a4cbf2f02089,689b87480fd5984874e9f6ef,,,,,,,,,,,,,78,0,,./stim/wavs/cuban_mismatch_declarative-broad-focus_Mi-tia-odia-la-lluvia.wav,,,,,,,,,,,,,,,,,,,,,,367.5947,369.7027,0,1,1.5927,,0,32,32,77,1,0,cuban,,,,,,,,,,,,,,,,,,,,,,,,,,,,,,,,,,,,,,,,,,,,,,,,,,,,,,,,
,,,,,,,,,610081ebf9f870b4213e06cb,Mexican,13 or older,"no, only English or Spanish",no,2025-08-12_14h26.54.866,empathy_intonation_perc,2024.2.4,Win32,59.88023952,610081ebf9f870b4213e06cb,687ed1b7e638a4cbf2f02089,689b87480fd5984874e9f6ef,,,,,,,,,,,,,54,0,,./stim/wavs/cuban_match_declarative-broad-focus_Maria-bebe-el-vino.wav,,,,,,,,,,,,,,,,,,,,,,369.7032,371.6902,0,1,1.4682,,0,33,33,53,1,0,cuban,,,,,,,,,,,,,,,,,,,,,,,,,,,,,,,,,,,,,,,,,,,,,,,,,,,,,,,,
,,,,,,,,,610081ebf9f870b4213e06cb,Mexican,13 or older,"no, only English or Spanish",no,2025-08-12_14h26.54.866,empathy_intonation_perc,2024.2.4,Win32,59.88023952,610081ebf9f870b4213e06cb,687ed1b7e638a4cbf2f02089,689b87480fd5984874e9f6ef,,,,,,,,,,,,,73,0,,./stim/wavs/castilian_mismatch_declarative-broad-focus_Mi-tia-odia-la-lluvia.wav,,,,,,,,,,,,,,,,,,,,,,371.6915,374.1278,0,1,1.9039,,0,34,34,72,1,0,castilian,,,,,,,,,,,,,,,,,,,,,,,,,,,,,,,,,,,,,,,,,,,,,,,,,,,,,,,,
,,,,,,,,,610081ebf9f870b4213e06cb,Mexican,13 or older,"no, only English or Spanish",no,2025-08-12_14h26.54.866,empathy_intonation_perc,2024.2.4,Win32,59.88023952,610081ebf9f870b4213e06cb,687ed1b7e638a4cbf2f02089,689b87480fd5984874e9f6ef,,,,,,,,,,,,,27,1,,./stim/wavs/castilian_mismatch_interrogative-total-yn_Mi-madre-come-la-fruta.wav,,,,,,,,,,,,,,,,,,,,,,374.1288,376.6372,1,1,1.9848,,0,35,35,26,1,0,castilian,,,,,,,,,,,,,,,,,,,,,,,,,,,,,,,,,,,,,,,,,,,,,,,,,,,,,,,,
,,,,,,,,,610081ebf9f870b4213e06cb,Mexican,13 or older,"no, only English or Spanish",no,2025-08-12_14h26.54.866,empathy_intonation_perc,2024.2.4,Win32,59.88023952,610081ebf9f870b4213e06cb,687ed1b7e638a4cbf2f02089,689b87480fd5984874e9f6ef,,,,,,,,,,,,,5,1,,./stim/wavs/castilian_match_interrogative-total-yn_Mariano-habla-del-tiempo.wav,,,,,,,,,,,,,,,,,,,,,,376.6405,378.9902,0,0,1.8216,,0,36,36,4,1,0,castilian,,,,,,,,,,,,,,,,,,,,,,,,,,,,,,,,,,,,,,,,,,,,,,,,,,,,,,,,
,,,,,,,,,610081ebf9f870b4213e06cb,Mexican,13 or older,"no, only English or Spanish",no,2025-08-12_14h26.54.866,empathy_intonation_perc,2024.2.4,Win32,59.88023952,610081ebf9f870b4213e06cb,687ed1b7e638a4cbf2f02089,689b87480fd5984874e9f6ef,,,,,,,,,,,,,65,0,,./stim/wavs/puertorican_match_declarative-broad-focus_David-leia-el-libro.wav,,,,,,,,,,,,,,,,,,,,,,378.994,381.1925,0,1,1.68,,0,37,37,64,1,0,puertorican,,,,,,,,,,,,,,,,,,,,,,,,,,,,,,,,,,,,,,,,,,,,,,,,,,,,,,,,
,,,,,,,,,610081ebf9f870b4213e06cb,Mexican,13 or older,"no, only English or Spanish",no,2025-08-12_14h26.54.866,empathy_intonation_perc,2024.2.4,Win32,59.88023952,610081ebf9f870b4213e06cb,687ed1b7e638a4cbf2f02089,689b87480fd5984874e9f6ef,,,,,,,,,,,,,55,0,,./stim/wavs/cuban_match_declarative-broad-focus_Mariano-habla-del-tiempo.wav,,,,,,,,,,,,,,,,,,,,,,381.1944,383.5239,0,1,1.7975,,0,38,38,54,1,0,cuban,,,,,,,,,,,,,,,,,,,,,,,,,,,,,,,,,,,,,,,,,,,,,,,,,,,,,,,,
,,,,,,,,,610081ebf9f870b4213e06cb,Mexican,13 or older,"no, only English or Spanish",no,2025-08-12_14h26.54.866,empathy_intonation_perc,2024.2.4,Win32,59.88023952,610081ebf9f870b4213e06cb,687ed1b7e638a4cbf2f02089,689b87480fd5984874e9f6ef,,,,,,,,,,,,,40,1,,./stim/wavs/puertorican_mismatch_interrogative-total-yn_El-hombre-mira-la-luna.wav,,,,,,,,,,,,,,,,,,,,,,383.5245,385.4753,1,1,1.4179,,0,39,39,39,1,1,puertorican,,,,,,,,,,,,,,,,,,,,,,,,,,,,,,,,,,,,,,,,,,,,,,,,,,,,,,,,
,,,,,,,,,610081ebf9f870b4213e06cb,Mexican,13 or older,"no, only English or Spanish",no,2025-08-12_14h26.54.866,empathy_intonation_perc,2024.2.4,Win32,59.88023952,610081ebf9f870b4213e06cb,687ed1b7e638a4cbf2f02089,689b87480fd5984874e9f6ef,,,,,,,,,,,,,21,1,,./stim/wavs/puertorican_match_interrogative-total-yn_David-leia-el-libro.wav,,,,,,,,,,,,,,,,,,,,,,385.4758,387.3124,1,1,1.3183,,0,40,40,20,1,1,puertorican,,,,,,,,,,,,,,,,,,,,,,,,,,,,,,,,,,,,,,,,,,,,,,,,,,,,,,,,
,,,,,,,,,610081ebf9f870b4213e06cb,Mexican,13 or older,"no, only English or Spanish",no,2025-08-12_14h26.54.866,empathy_intonation_perc,2024.2.4,Win32,59.88023952,610081ebf9f870b4213e06cb,687ed1b7e638a4cbf2f02089,689b87480fd5984874e9f6ef,,,,,,,,,,,,,71,0,,./stim/wavs/castilian_mismatch_declarative-broad-focus_La-nina-lava-el-plato.wav,,,,,,,,,,,,,,,,,,,,,,387.3138,389.664,0,1,1.8271,,0,41,41,70,1,0,castilian,,,,,,,,,,,,,,,,,,,,,,,,,,,,,,,,,,,,,,,,,,,,,,,,,,,,,,,,
,,,,,,,,,610081ebf9f870b4213e06cb,Mexican,13 or older,"no, only English or Spanish",no,2025-08-12_14h26.54.866,empathy_intonation_perc,2024.2.4,Win32,59.88023952,610081ebf9f870b4213e06cb,687ed1b7e638a4cbf2f02089,689b87480fd5984874e9f6ef,,,,,,,,,,,,,43,1,,./stim/wavs/puertorican_mismatch_interrogative-total-yn_La-nina-lava-el-plato.wav,,,,,,,,,,,,,,,,,,,,,,389.6647,391.5231,0,0,1.3416,,0,42,42,42,1,1,puertorican,,,,,,,,,,,,,,,,,,,,,,,,,,,,,,,,,,,,,,,,,,,,,,,,,,,,,,,,
,,,,,,,,,610081ebf9f870b4213e06cb,Mexican,13 or older,"no, only English or Spanish",no,2025-08-12_14h26.54.866,empathy_intonation_perc,2024.2.4,Win32,59.88023952,610081ebf9f870b4213e06cb,687ed1b7e638a4cbf2f02089,689b87480fd5984874e9f6ef,,,,,,,,,,,,,28,1,,./stim/wavs/castilian_mismatch_interrogative-total-yn_Mi-novio-viene-del-lago.wav,,,,,,,,,,,,,,,,,,,,,,391.5252,393.7928,1,1,1.7496,,0,43,43,27,1,0,castilian,,,,,,,,,,,,,,,,,,,,,,,,,,,,,,,,,,,,,,,,,,,,,,,,,,,,,,,,
,,,,,,,,,610081ebf9f870b4213e06cb,Mexican,13 or older,"no, only English or Spanish",no,2025-08-12_14h26.54.866,empathy_intonation_perc,2024.2.4,Win32,59.88023952,610081ebf9f870b4213e06cb,687ed1b7e638a4cbf2f02089,689b87480fd5984874e9f6ef,,,,,,,,,,,,,7,1,,./stim/wavs/cuban_match_interrogative-total-yn_Ana-lleva-el-abrigo.wav,,,,,,,,,,,,,,,,,,,,,,393.7944,395.5953,0,0,1.2731,,0,44,44,6,1,1,cuban,,,,,,,,,,,,,,,,,,,,,,,,,,,,,,,,,,,,,,,,,,,,,,,,,,,,,,,,
,,,,,,,,,610081ebf9f870b4213e06cb,Mexican,13 or older,"no, only English or Spanish",no,2025-08-12_14h26.54.866,empathy_intonation_perc,2024.2.4,Win32,59.88023952,610081ebf9f870b4213e06cb,687ed1b7e638a4cbf2f02089,689b87480fd5984874e9f6ef,,,,,,,,,,,,,38,1,,./stim/wavs/mexican_mismatch_interrogative-total-yn_Mi-novio-viene-del-lago.wav,,,,,,,,,,,,,,,,,,,,,,395.5972,397.6167,0,0,1.506,,0,45,45,37,1,0,mexican,,,,,,,,,,,,,,,,,,,,,,,,,,,,,,,,,,,,,,,,,,,,,,,,,,,,,,,,
,,,,,,,,,610081ebf9f870b4213e06cb,Mexican,13 or older,"no, only English or Spanish",no,2025-08-12_14h26.54.866,empathy_intonation_perc,2024.2.4,Win32,59.88023952,610081ebf9f870b4213e06cb,687ed1b7e638a4cbf2f02089,689b87480fd5984874e9f6ef,,,,,,,,,,,,,53,0,,./stim/wavs/cuban_match_declarative-broad-focus_Manuela-vende-el-carro.wav,,,,,,,,,,,,,,,,,,,,,,397.6187,399.8783,0,1,1.7232,,0,46,46,52,1,0,cuban,,,,,,,,,,,,,,,,,,,,,,,,,,,,,,,,,,,,,,,,,,,,,,,,,,,,,,,,
,,,,,,,,,610081ebf9f870b4213e06cb,Mexican,13 or older,"no, only English or Spanish",no,2025-08-12_14h26.54.866,empathy_intonation_perc,2024.2.4,Win32,59.88023952,610081ebf9f870b4213e06cb,687ed1b7e638a4cbf2f02089,689b87480fd5984874e9f6ef,,,,,,,,,,,,,57,0,,./stim/wavs/mexican_match_declarative-broad-focus_Ana-lleva-el-abrigo.wav,,,,,,,,,,,,,,,,,,,,,,399.8792,401.8131,0,1,1.4174,,0,47,47,56,1,0,mexican,,,,,,,,,,,,,,,,,,,,,,,,,,,,,,,,,,,,,,,,,,,,,,,,,,,,,,,,
,,,,,,,,,610081ebf9f870b4213e06cb,Mexican,13 or older,"no, only English or Spanish",no,2025-08-12_14h26.54.866,empathy_intonation_perc,2024.2.4,Win32,59.88023952,610081ebf9f870b4213e06cb,687ed1b7e638a4cbf2f02089,689b87480fd5984874e9f6ef,,,,,,,,,,,,,87,0,,./stim/wavs/puertorican_mismatch_declarative-broad-focus_La-maestra-vive-en-Paris.wav,,,,,,,,,,,,,,,,,,,,,,401.8137,404.1067,0,1,1.7591,,0,48,48,86,1,0,puertorican,,,,,,,,,,,,,,,,,,,,,,,,,,,,,,,,,,,,,,,,,,,,,,,,,,,,,,,,
,,,,,,,,,610081ebf9f870b4213e06cb,Mexican,13 or older,"no, only English or Spanish",no,2025-08-12_14h26.54.866,empathy_intonation_perc,2024.2.4,Win32,59.88023952,610081ebf9f870b4213e06cb,687ed1b7e638a4cbf2f02089,689b87480fd5984874e9f6ef,,,,,,,,,,,,,85,0,,./stim/wavs/puertorican_mismatch_declarative-broad-focus_El-hombre-mira-la-luna.wav,,,,,,,,,,,,,,,,,,,,,,404.1085,406.1772,0,1,1.5518,,0,49,49,84,1,0,puertorican,,,,,,,,,,,,,,,,,,,,,,,,,,,,,,,,,,,,,,,,,,,,,,,,,,,,,,,,
,,,,,,,,,610081ebf9f870b4213e06cb,Mexican,13 or older,"no, only English or Spanish",no,2025-08-12_14h26.54.866,empathy_intonation_perc,2024.2.4,Win32,59.88023952,610081ebf9f870b4213e06cb,687ed1b7e638a4cbf2f02089,689b87480fd5984874e9f6ef,,,,,,,,,,,,,83,0,,./stim/wavs/mexican_mismatch_declarative-broad-focus_Mi-tia-odia-la-lluvia.wav,,,,,,,,,,,,,,,,,,,,,,406.1806,408.1123,0,1,1.4072,,0,50,50,82,1,0,mexican,,,,,,,,,,,,,,,,,,,,,,,,,,,,,,,,,,,,,,,,,,,,,,,,,,,,,,,,
,,,,,,,,,610081ebf9f870b4213e06cb,Mexican,13 or older,"no, only English or Spanish",no,2025-08-12_14h26.54.866,empathy_intonation_perc,2024.2.4,Win32,59.88023952,610081ebf9f870b4213e06cb,687ed1b7e638a4cbf2f02089,689b87480fd5984874e9f6ef,,,,,,,,,,,,,63,0,,./stim/wavs/puertorican_match_declarative-broad-focus_Ana-lleva-el-abrigo.wav,,,,,,,,,,,,,,,,,,,,,,408.1128,410.0149,0,1,1.3888,,0,51,51,62,1,0,puertorican,,,,,,,,,,,,,,,,,,,,,,,,,,,,,,,,,,,,,,,,,,,,,,,,,,,,,,,,
,,,,,,,,,610081ebf9f870b4213e06cb,Mexican,13 or older,"no, only English or Spanish",no,2025-08-12_14h26.54.866,empathy_intonation_perc,2024.2.4,Win32,59.88023952,610081ebf9f870b4213e06cb,687ed1b7e638a4cbf2f02089,689b87480fd5984874e9f6ef,,,,,,,,,,,,,49,0,,./stim/wavs/castilian_match_declarative-broad-focus_Mariano-habla-del-tiempo.wav,,,,,,,,,,,,,,,,,,,,,,410.0153,412.2347,1,0,1.7073,,0,52,52,48,1,0,castilian,,,,,,,,,,,,,,,,,,,,,,,,,,,,,,,,,,,,,,,,,,,,,,,,,,,,,,,,
,,,,,,,,,610081ebf9f870b4213e06cb,Mexican,13 or older,"no, only English or Spanish",no,2025-08-12_14h26.54.866,empathy_intonation_perc,2024.2.4,Win32,59.88023952,610081ebf9f870b4213e06cb,687ed1b7e638a4cbf2f02089,689b87480fd5984874e9f6ef,,,,,,,,,,,,,32,1,,./stim/wavs/cuban_mismatch_interrogative-total-yn_Mi-madre-come-la-fruta.wav,,,,,,,,,,,,,,,,,,,,,,412.2356,414.521,0,0,1.7528,,0,53,53,31,1,1,cuban,,,,,,,,,,,,,,,,,,,,,,,,,,,,,,,,,,,,,,,,,,,,,,,,,,,,,,,,
,,,,,,,,,610081ebf9f870b4213e06cb,Mexican,13 or older,"no, only English or Spanish",no,2025-08-12_14h26.54.866,empathy_intonation_perc,2024.2.4,Win32,59.88023952,610081ebf9f870b4213e06cb,687ed1b7e638a4cbf2f02089,689b87480fd5984874e9f6ef,,,,,,,,,,,,,22,1,,./stim/wavs/puertorican_match_interrogative-total-yn_Emilio-ama-la-marcha.wav,,,,,,,,,,,,,,,,,,,,,,414.5214,416.9077,0,0,1.8688,,0,54,54,21,1,1,puertorican,,,,,,,,,,,,,,,,,,,,,,,,,,,,,,,,,,,,,,,,,,,,,,,,,,,,,,,,
,,,,,,,,,610081ebf9f870b4213e06cb,Mexican,13 or older,"no, only English or Spanish",no,2025-08-12_14h26.54.866,empathy_intonation_perc,2024.2.4,Win32,59.88023952,610081ebf9f870b4213e06cb,687ed1b7e638a4cbf2f02089,689b87480fd5984874e9f6ef,,,,,,,,,,,,,61,0,,./stim/wavs/mexican_match_declarative-broad-focus_Mariano-habla-del-tiempo.wav,,,,,,,,,,,,,,,,,,,,,,416.9083,418.9938,0,1,1.5536,,0,55,55,60,1,0,mexican,,,,,,,,,,,,,,,,,,,,,,,,,,,,,,,,,,,,,,,,,,,,,,,,,,,,,,,,
,,,,,,,,,610081ebf9f870b4213e06cb,Mexican,13 or older,"no, only English or Spanish",no,2025-08-12_14h26.54.866,empathy_intonation_perc,2024.2.4,Win32,59.88023952,610081ebf9f870b4213e06cb,687ed1b7e638a4cbf2f02089,689b87480fd5984874e9f6ef,,,,,,,,,,,,,8,1,,./stim/wavs/cuban_match_interrogative-total-yn_Daniel-iba-a-Bolivia.wav,,,,,,,,,,,,,,,,,,,,,,418.9944,421.1801,0,0,1.6662,,0,56,56,7,1,1,cuban,,,,,,,,,,,,,,,,,,,,,,,,,,,,,,,,,,,,,,,,,,,,,,,,,,,,,,,,
,,,,,,,,,610081ebf9f870b4213e06cb,Mexican,13 or older,"no, only English or Spanish",no,2025-08-12_14h26.54.866,empathy_intonation_perc,2024.2.4,Win32,59.88023952,610081ebf9f870b4213e06cb,687ed1b7e638a4cbf2f02089,689b87480fd5984874e9f6ef,,,,,,,,,,,,,31,1,,./stim/wavs/cuban_mismatch_interrogative-total-yn_El-nino-oye-el-rio.wav,,,,,,,,,,,,,,,,,,,,,,421.1806,423.0602,0,0,1.3688,,0,57,57,30,1,1,cuban,,,,,,,,,,,,,,,,,,,,,,,,,,,,,,,,,,,,,,,,,,,,,,,,,,,,,,,,
,,,,,,,,,610081ebf9f870b4213e06cb,Mexican,13 or older,"no, only English or Spanish",no,2025-08-12_14h26.54.866,empathy_intonation_perc,2024.2.4,Win32,59.88023952,610081ebf9f870b4213e06cb,687ed1b7e638a4cbf2f02089,689b87480fd5984874e9f6ef,,,,,,,,,,,,,45,0,,./stim/wavs/castilian_match_declarative-broad-focus_David-leia-el-libro.wav,,,,,,,,,,,,,,,,,,,,,,423.0609,425.412,0,1,1.8188,,0,58,58,44,1,0,castilian,,,,,,,,,,,,,,,,,,,,,,,,,,,,,,,,,,,,,,,,,,,,,,,,,,,,,,,,
,,,,,,,,,610081ebf9f870b4213e06cb,Mexican,13 or older,"no, only English or Spanish",no,2025-08-12_14h26.54.866,empathy_intonation_perc,2024.2.4,Win32,59.88023952,610081ebf9f870b4213e06cb,687ed1b7e638a4cbf2f02089,689b87480fd5984874e9f6ef,,,,,,,,,,,,,18,1,,./stim/wavs/mexican_match_interrogative-total-yn_Marta-abre-el-regalo.wav,,,,,,,,,,,,,,,,,,,,,,425.4124,427.5315,1,1,1.602,,0,59,59,17,1,0,mexican,,,,,,,,,,,,,,,,,,,,,,,,,,,,,,,,,,,,,,,,,,,,,,,,,,,,,,,,
,,,,,,,,,610081ebf9f870b4213e06cb,Mexican,13 or older,"no, only English or Spanish",no,2025-08-12_14h26.54.866,empathy_intonation_perc,2024.2.4,Win32,59.88023952,610081ebf9f870b4213e06cb,687ed1b7e638a4cbf2f02089,689b87480fd5984874e9f6ef,,,,,,,,,,,,,39,1,,./stim/wavs/mexican_mismatch_interrogative-total-yn_Mi-tia-odia-la-lluvia.wav,,,,,,,,,,,,,,,,,,,,,,427.5319,429.7539,1,1,1.692,,0,60,60,38,1,0,mexican,,,,,,,,,,,,,,,,,,,,,,,,,,,,,,,,,,,,,,,,,,,,,,,,,,,,,,,,
,,,,,,,,,610081ebf9f870b4213e06cb,Mexican,13 or older,"no, only English or Spanish",no,2025-08-12_14h26.54.866,empathy_intonation_perc,2024.2.4,Win32,59.88023952,610081ebf9f870b4213e06cb,687ed1b7e638a4cbf2f02089,689b87480fd5984874e9f6ef,,,,,,,,,,,,,56,0,,./stim/wavs/cuban_match_declarative-broad-focus_Marta-abre-el-regalo.wav,,,,,,,,,,,,,,,,,,,,,,429.7551,432.2284,0,1,1.9561,,0,61,61,55,1,0,cuban,,,,,,,,,,,,,,,,,,,,,,,,,,,,,,,,,,,,,,,,,,,,,,,,,,,,,,,,
,,,,,,,,,610081ebf9f870b4213e06cb,Mexican,13 or older,"no, only English or Spanish",no,2025-08-12_14h26.54.866,empathy_intonation_perc,2024.2.4,Win32,59.88023952,610081ebf9f870b4213e06cb,687ed1b7e638a4cbf2f02089,689b87480fd5984874e9f6ef,,,,,,,,,,,,,35,1,,./stim/wavs/mexican_mismatch_interrogative-total-yn_El-hombre-mira-la-luna.wav,,,,,,,,,,,,,,,,,,,,,,432.2302,434.6085,1,1,1.8367,,0,62,62,34,1,0,mexican,,,,,,,,,,,,,,,,,,,,,,,,,,,,,,,,,,,,,,,,,,,,,,,,,,,,,,,,
,,,,,,,,,610081ebf9f870b4213e06cb,Mexican,13 or older,"no, only English or Spanish",no,2025-08-12_14h26.54.866,empathy_intonation_perc,2024.2.4,Win32,59.88023952,610081ebf9f870b4213e06cb,687ed1b7e638a4cbf2f02089,689b87480fd5984874e9f6ef,,,,,,,,,,,,,67,0,,./stim/wavs/puertorican_match_declarative-broad-focus_Manuela-vende-el-carro.wav,,,,,,,,,,,,,,,,,,,,,,434.6093,437.4091,0,1,2.2642,,0,63,63,66,1,0,puertorican,,,,,,,,,,,,,,,,,,,,,,,,,,,,,,,,,,,,,,,,,,,,,,,,,,,,,,,,
,,,,,,,,,610081ebf9f870b4213e06cb,Mexican,13 or older,"no, only English or Spanish",no,2025-08-12_14h26.54.866,empathy_intonation_perc,2024.2.4,Win32,59.88023952,610081ebf9f870b4213e06cb,687ed1b7e638a4cbf2f02089,689b87480fd5984874e9f6ef,,,,,,,,,,,,,84,0,,./stim/wavs/puertorican_mismatch_declarative-broad-focus_El-bebe-comia-muy-bien.wav,,,,,,,,,,,,,,,,,,,,,,437.4107,440.5662,0,1,2.636,,0,64,64,83,1,0,puertorican,,,,,,,,,,,,,,,,,,,,,,,,,,,,,,,,,,,,,,,,,,,,,,,,,,,,,,,,
,,,,,,,,,610081ebf9f870b4213e06cb,Mexican,13 or older,"no, only English or Spanish",no,2025-08-12_14h26.54.866,empathy_intonation_perc,2024.2.4,Win32,59.88023952,610081ebf9f870b4213e06cb,687ed1b7e638a4cbf2f02089,689b87480fd5984874e9f6ef,,,,,,,,,,,,,88,0,,./stim/wavs/puertorican_mismatch_declarative-broad-focus_La-nina-lava-el-plato.wav,,,,,,,,,,,,,,,,,,,,,,440.5666,444.3012,0,1,3.2028,,0,65,65,87,1,0,puertorican,,,,,,,,,,,,,,,,,,,,,,,,,,,,,,,,,,,,,,,,,,,,,,,,,,,,,,,,
,,,,,,,,,610081ebf9f870b4213e06cb,Mexican,13 or older,"no, only English or Spanish",no,2025-08-12_14h26.54.866,empathy_intonation_perc,2024.2.4,Win32,59.88023952,610081ebf9f870b4213e06cb,687ed1b7e638a4cbf2f02089,689b87480fd5984874e9f6ef,,,,,,,,,,,,,41,1,,./stim/wavs/puertorican_mismatch_interrogative-total-yn_El-nino-oye-el-rio.wav,,,,,,,,,,,,,,,,,,,,,,444.3022,446.3238,0,0,1.501,,0,66,66,40,1,1,puertorican,,,,,,,,,,,,,,,,,,,,,,,,,,,,,,,,,,,,,,,,,,,,,,,,,,,,,,,,
,,,,,,,,,610081ebf9f870b4213e06cb,Mexican,13 or older,"no, only English or Spanish",no,2025-08-12_14h26.54.866,empathy_intonation_perc,2024.2.4,Win32,59.88023952,610081ebf9f870b4213e06cb,687ed1b7e638a4cbf2f02089,689b87480fd5984874e9f6ef,,,,,,,,,,,,,59,0,,./stim/wavs/mexican_match_declarative-broad-focus_David-leia-el-libro.wav,,,,,,,,,,,,,,,,,,,,,,446.3241,450.2696,0,1,3.4221,,0,67,67,58,1,0,mexican,,,,,,,,,,,,,,,,,,,,,,,,,,,,,,,,,,,,,,,,,,,,,,,,,,,,,,,,
,,,,,,,,,610081ebf9f870b4213e06cb,Mexican,13 or older,"no, only English or Spanish",no,2025-08-12_14h26.54.866,empathy_intonation_perc,2024.2.4,Win32,59.88023952,610081ebf9f870b4213e06cb,687ed1b7e638a4cbf2f02089,689b87480fd5984874e9f6ef,,,,,,,,,,,,,58,0,,./stim/wavs/mexican_match_declarative-broad-focus_Daniel-iba-a-Bolivia.wav,,,,,,,,,,,,,,,,,,,,,,450.2703,453.7576,0,1,2.9527,,0,68,68,57,1,0,mexican,,,,,,,,,,,,,,,,,,,,,,,,,,,,,,,,,,,,,,,,,,,,,,,,,,,,,,,,
,,,,,,,,,610081ebf9f870b4213e06cb,Mexican,13 or older,"no, only English or Spanish",no,2025-08-12_14h26.54.866,empathy_intonation_perc,2024.2.4,Win32,59.88023952,610081ebf9f870b4213e06cb,687ed1b7e638a4cbf2f02089,689b87480fd5984874e9f6ef,,,,,,,,,,,,,46,0,,./stim/wavs/castilian_match_declarative-broad-focus_Emilio-ama-la-marcha.wav,,,,,,,,,,,,,,,,,,,,,,453.7582,458.4807,0,1,4.205,,0,69,69,45,1,0,castilian,,,,,,,,,,,,,,,,,,,,,,,,,,,,,,,,,,,,,,,,,,,,,,,,,,,,,,,,
,,,,,,,,,610081ebf9f870b4213e06cb,Mexican,13 or older,"no, only English or Spanish",no,2025-08-12_14h26.54.866,empathy_intonation_perc,2024.2.4,Win32,59.88023952,610081ebf9f870b4213e06cb,687ed1b7e638a4cbf2f02089,689b87480fd5984874e9f6ef,,,,,,,,,,,,,47,0,,./stim/wavs/castilian_match_declarative-broad-focus_Manuela-vende-el-carro.wav,,,,,,,,,,,,,,,,,,,,,,458.4813,465.0229,0,1,6.0294,,0,70,70,46,1,0,castilian,,,,,,,,,,,,,,,,,,,,,,,,,,,,,,,,,,,,,,,,,,,,,,,,,,,,,,,,
,,,,,,,,,610081ebf9f870b4213e06cb,Mexican,13 or older,"no, only English or Spanish",no,2025-08-12_14h26.54.866,empathy_intonation_perc,2024.2.4,Win32,59.88023952,610081ebf9f870b4213e06cb,687ed1b7e638a4cbf2f02089,689b87480fd5984874e9f6ef,,,,,,,,,,,,,10,1,,./stim/wavs/cuban_match_interrogative-total-yn_Maria-bebe-el-vino.wav,,,,,,,,,,,,,,,,,,,,,,465.0234,467.8099,0,0,2.2722,,0,71,71,9,1,1,cuban,,,,,,,,,,,,,,,,,,,,,,,,,,,,,,,,,,,,,,,,,,,,,,,,,,,,,,,,
,,,,,,,,,610081ebf9f870b4213e06cb,Mexican,13 or older,"no, only English or Spanish",no,2025-08-12_14h26.54.866,empathy_intonation_perc,2024.2.4,Win32,59.88023952,610081ebf9f870b4213e06cb,687ed1b7e638a4cbf2f02089,689b87480fd5984874e9f6ef,,,,,,,,,,,,,33,1,,./stim/wavs/cuban_mismatch_interrogative-total-yn_Mi-novio-viene-del-lago.wav,,,,,,,,,,,,,,,,,,,,,,467.8108,470.9477,0,0,2.6245,,0,72,72,32,1,1,cuban,,,,,,,,,,,,,,,,,,,,,,,,,,,,,,,,,,,,,,,,,,,,,,,,,,,,,,,,
,,,,,,,,,610081ebf9f870b4213e06cb,Mexican,13 or older,"no, only English or Spanish",no,2025-08-12_14h26.54.866,empathy_intonation_perc,2024.2.4,Win32,59.88023952,610081ebf9f870b4213e06cb,687ed1b7e638a4cbf2f02089,689b87480fd5984874e9f6ef,,,,,,,,,,,,,64,0,,./stim/wavs/puertorican_match_declarative-broad-focus_Daniel-iba-a-Bolivia.wav,,,,,,,,,,,,,,,,,,,,,,470.9482,473.5179,0,1,2.0529,,0,73,73,63,1,0,puertorican,,,,,,,,,,,,,,,,,,,,,,,,,,,,,,,,,,,,,,,,,,,,,,,,,,,,,,,,
,,,,,,,,,610081ebf9f870b4213e06cb,Mexican,13 or older,"no, only English or Spanish",no,2025-08-12_14h26.54.866,empathy_intonation_perc,2024.2.4,Win32,59.88023952,610081ebf9f870b4213e06cb,687ed1b7e638a4cbf2f02089,689b87480fd5984874e9f6ef,,,,,,,,,,,,,12,1,,./stim/wavs/cuban_match_interrogative-total-yn_Marta-abre-el-regalo.wav,,,,,,,,,,,,,,,,,,,,,,473.5191,476.6887,0,0,2.6414,,0,74,74,11,1,1,cuban,,,,,,,,,,,,,,,,,,,,,,,,,,,,,,,,,,,,,,,,,,,,,,,,,,,,,,,,
,,,,,,,,,610081ebf9f870b4213e06cb,Mexican,13 or older,"no, only English or Spanish",no,2025-08-12_14h26.54.866,empathy_intonation_perc,2024.2.4,Win32,59.88023952,610081ebf9f870b4213e06cb,687ed1b7e638a4cbf2f02089,689b87480fd5984874e9f6ef,,,,,,,,,,,,,80,0,,./stim/wavs/mexican_mismatch_declarative-broad-focus_El-hombre-mira-la-luna.wav,,,,,,,,,,,,,,,,,,,,,,476.6894,478.775,0,1,1.5766,,0,75,75,79,1,0,mexican,,,,,,,,,,,,,,,,,,,,,,,,,,,,,,,,,,,,,,,,,,,,,,,,,,,,,,,,
,,,,,,,,,610081ebf9f870b4213e06cb,Mexican,13 or older,"no, only English or Spanish",no,2025-08-12_14h26.54.866,empathy_intonation_perc,2024.2.4,Win32,59.88023952,610081ebf9f870b4213e06cb,687ed1b7e638a4cbf2f02089,689b87480fd5984874e9f6ef,,,,,,,,,,,,,72,0,,./stim/wavs/castilian_mismatch_declarative-broad-focus_Mi-novio-viene-del-lago.wav,,,,,,,,,,,,,,,,,,,,,,478.7758,481.0447,0,1,1.7512,,0,76,76,71,1,0,castilian,,,,,,,,,,,,,,,,,,,,,,,,,,,,,,,,,,,,,,,,,,,,,,,,,,,,,,,,
,,,,,,,,,610081ebf9f870b4213e06cb,Mexican,13 or older,"no, only English or Spanish",no,2025-08-12_14h26.54.866,empathy_intonation_perc,2024.2.4,Win32,59.88023952,610081ebf9f870b4213e06cb,687ed1b7e638a4cbf2f02089,689b87480fd5984874e9f6ef,,,,,,,,,,,,,77,0,,./stim/wavs/cuban_mismatch_declarative-broad-focus_Mi-novio-viene-del-lago.wav,,,,,,,,,,,,,,,,,,,,,,481.0452,483.118,0,1,1.5466,,0,77,77,76,1,0,cuban,,,,,,,,,,,,,,,,,,,,,,,,,,,,,,,,,,,,,,,,,,,,,,,,,,,,,,,,
,,,,,,,,,610081ebf9f870b4213e06cb,Mexican,13 or older,"no, only English or Spanish",no,2025-08-12_14h26.54.866,empathy_intonation_perc,2024.2.4,Win32,59.88023952,610081ebf9f870b4213e06cb,687ed1b7e638a4cbf2f02089,689b87480fd5984874e9f6ef,,,,,,,,,,,,,30,1,,./stim/wavs/cuban_mismatch_interrogative-total-yn_El-hombre-mira-la-luna.wav,,,,,,,,,,,,,,,,,,,,,,483.1198,485.3117,0,0,1.6528,,0,78,78,29,1,1,cuban,,,,,,,,,,,,,,,,,,,,,,,,,,,,,,,,,,,,,,,,,,,,,,,,,,,,,,,,
,,,,,,,,,610081ebf9f870b4213e06cb,Mexican,13 or older,"no, only English or Spanish",no,2025-08-12_14h26.54.866,empathy_intonation_perc,2024.2.4,Win32,59.88023952,610081ebf9f870b4213e06cb,687ed1b7e638a4cbf2f02089,689b87480fd5984874e9f6ef,,,,,,,,,,,,,25,1,,./stim/wavs/castilian_mismatch_interrogative-total-yn_La-maestra-vive-en-Paris.wav,,,,,,,,,,,,,,,,,,,,,,485.3127,487.9049,1,1,2.0648,,0,79,79,24,1,0,castilian,,,,,,,,,,,,,,,,,,,,,,,,,,,,,,,,,,,,,,,,,,,,,,,,,,,,,,,,
,,,,,,,,,610081ebf9f870b4213e06cb,Mexican,13 or older,"no, only English or Spanish",no,2025-08-12_14h26.54.866,empathy_intonation_perc,2024.2.4,Win32,59.88023952,610081ebf9f870b4213e06cb,687ed1b7e638a4cbf2f02089,689b87480fd5984874e9f6ef,,,,,,,,,,,,,2,1,,./stim/wavs/castilian_match_interrogative-total-yn_Emilio-ama-la-marcha.wav,,,,,,,,,,,,,,,,,,,,,,487.907,490.0285,1,1,1.5804,,0,80,80,1,1,0,castilian,,,,,,,,,,,,,,,,,,,,,,,,,,,,,,,,,,,,,,,,,,,,,,,,,,,,,,,,
,,,,,,,,,610081ebf9f870b4213e06cb,Mexican,13 or older,"no, only English or Spanish",no,2025-08-12_14h26.54.866,empathy_intonation_perc,2024.2.4,Win32,59.88023952,610081ebf9f870b4213e06cb,687ed1b7e638a4cbf2f02089,689b87480fd5984874e9f6ef,,,,,,,,,,,,,23,1,,./stim/wavs/puertorican_match_interrogative-total-yn_Manuela-vende-el-carro.wav,,,,,,,,,,,,,,,,,,,,,,490.029,492.0098,0,0,1.4521,,0,81,81,22,1,1,puertorican,,,,,,,,,,,,,,,,,,,,,,,,,,,,,,,,,,,,,,,,,,,,,,,,,,,,,,,,
,,,,,,,,,610081ebf9f870b4213e06cb,Mexican,13 or older,"no, only English or Spanish",no,2025-08-12_14h26.54.866,empathy_intonation_perc,2024.2.4,Win32,59.88023952,610081ebf9f870b4213e06cb,687ed1b7e638a4cbf2f02089,689b87480fd5984874e9f6ef,,,,,,,,,,,,,9,1,,./stim/wavs/cuban_match_interrogative-total-yn_Manuela-vende-el-carro.wav,,,,,,,,,,,,,,,,,,,,,,492.0119,494.0793,0,0,1.546,,0,82,82,8,1,1,cuban,,,,,,,,,,,,,,,,,,,,,,,,,,,,,,,,,,,,,,,,,,,,,,,,,,,,,,,,
,,,,,,,,,610081ebf9f870b4213e06cb,Mexican,13 or older,"no, only English or Spanish",no,2025-08-12_14h26.54.866,empathy_intonation_perc,2024.2.4,Win32,59.88023952,610081ebf9f870b4213e06cb,687ed1b7e638a4cbf2f02089,689b87480fd5984874e9f6ef,,,,,,,,,,,,,50,0,,./stim/wavs/castilian_match_declarative-broad-focus_Marta-abre-el-regalo.wav,,,,,,,,,,,,,,,,,,,,,,494.0814,496.2823,0,1,1.6596,,0,83,83,49,1,0,castilian,,,,,,,,,,,,,,,,,,,,,,,,,,,,,,,,,,,,,,,,,,,,,,,,,,,,,,,,
,,,,,,,,,610081ebf9f870b4213e06cb,Mexican,13 or older,"no, only English or Spanish",no,2025-08-12_14h26.54.866,empathy_intonation_perc,2024.2.4,Win32,59.88023952,610081ebf9f870b4213e06cb,687ed1b7e638a4cbf2f02089,689b87480fd5984874e9f6ef,,,,,,,,,,,,,4,1,,./stim/wavs/castilian_match_interrogative-total-yn_Maria-bebe-el-vino.wav,,,,,,,,,,,,,,,,,,,,,,496.2847,498.6353,1,1,1.8065,,0,84,84,3,1,0,castilian,,,,,,,,,,,,,,,,,,,,,,,,,,,,,,,,,,,,,,,,,,,,,,,,,,,,,,,,
,,,,,,,,,610081ebf9f870b4213e06cb,Mexican,13 or older,"no, only English or Spanish",no,2025-08-12_14h26.54.866,empathy_intonation_perc,2024.2.4,Win32,59.88023952,610081ebf9f870b4213e06cb,687ed1b7e638a4cbf2f02089,689b87480fd5984874e9f6ef,,,,,,,,,,,,,48,0,,./stim/wavs/castilian_match_declarative-broad-focus_Maria-bebe-el-vino.wav,,,,,,,,,,,,,,,,,,,,,,498.6374,500.9475,0,1,1.7693,,0,85,85,47,1,0,castilian,,,,,,,,,,,,,,,,,,,,,,,,,,,,,,,,,,,,,,,,,,,,,,,,,,,,,,,,
,,,,,,,,,610081ebf9f870b4213e06cb,Mexican,13 or older,"no, only English or Spanish",no,2025-08-12_14h26.54.866,empathy_intonation_perc,2024.2.4,Win32,59.88023952,610081ebf9f870b4213e06cb,687ed1b7e638a4cbf2f02089,689b87480fd5984874e9f6ef,,,,,,,,,,,,,44,1,,./stim/wavs/puertorican_mismatch_interrogative-total-yn_Mi-madre-come-la-fruta.wav,,,,,,,,,,,,,,,,,,,,,,500.9478,503.1833,0,0,1.701,,0,86,86,43,1,1,puertorican,,,,,,,,,,,,,,,,,,,,,,,,,,,,,,,,,,,,,,,,,,,,,,,,,,,,,,,,
,,,,,,,,,610081ebf9f870b4213e06cb,Mexican,13 or older,"no, only English or Spanish",no,2025-08-12_14h26.54.866,empathy_intonation_perc,2024.2.4,Win32,59.88023952,610081ebf9f870b4213e06cb,687ed1b7e638a4cbf2f02089,689b87480fd5984874e9f6ef,,,,,,,,,,,,,34,1,,./stim/wavs/cuban_mismatch_interrogative-total-yn_Mi-tia-odia-la-lluvia.wav,,,,,,,,,,,,,,,,,,,,,,503.1838,505.8558,0,0,2.1372,,0,87,87,33,1,1,cuban,,,,,,,,,,,,,,,,,,,,,,,,,,,,,,,,,,,,,,,,,,,,,,,,,,,,,,,,
,,,,,,,"Great! Now we will move on. The next task consists of about 60 trials, in each of which you will see a string of letters. 
  
  Your task is to decide whether this is a real Spanish word or not.", (press the spacebar to continue),610081ebf9f870b4213e06cb,Mexican,13 or older,"no, only English or Spanish",no,2025-08-12_14h26.54.866,empathy_intonation_perc,2024.2.4,Win32,59.88023952,610081ebf9f870b4213e06cb,687ed1b7e638a4cbf2f02089,689b87480fd5984874e9f6ef,,,,,,,,,,,,,,,,,,,,,,,,,,,,,,,,,,,,,,,,,,,,,,,,,,,505.8687,509.5338,0,0,0,0,1,,,,,,,,,,,,,,,,,,,,,,,,,,,,,,,,,,,,,,,,,,,,,,,,,
,,,,,,,"If you think it is an existing Spanish word, you type '1' (for 'REAL'), and if you think it is not an existing Spanish word, you type '0' (for 'FAKE').", (press the spacebar to continue),610081ebf9f870b4213e06cb,Mexican,13 or older,"no, only English or Spanish",no,2025-08-12_14h26.54.866,empathy_intonation_perc,2024.2.4,Win32,59.88023952,610081ebf9f870b4213e06cb,687ed1b7e638a4cbf2f02089,689b87480fd5984874e9f6ef,,,,,,,,,,,,,,,,,,,,,,,,,,,,,,,,,,,,,,,,,,,,,,,,,,,509.5387,512.0706,0,1,1,1,1,,,,,,,,,,,,,,,,,,,,,,,,,,,,,,,,,,,,,,,,,,,,,,,,,
,,,,,,,"If you are sure that the word exists, even though you don’t know its exact meaning, you may still respond '1' (REAL). 
  
  But if you are not sure if it is an existing word, you should respond '0' (FAKE).
  
  Let's do a practice round...", (press the spacebar to continue),610081ebf9f870b4213e06cb,Mexican,13 or older,"no, only English or Spanish",no,2025-08-12_14h26.54.866,empathy_intonation_perc,2024.2.4,Win32,59.88023952,610081ebf9f870b4213e06cb,687ed1b7e638a4cbf2f02089,689b87480fd5984874e9f6ef,,,,,,,,,,,,,,,,,,,,,,,,,,,,,,,,,,,,,,,,,,,,,,,,,,,512.0744,515.6418,0,2,2,2,1,,,,,,,,,,,,,,,,,,,,,,,,,,,,,,,,,,,,,,,,,,,,,,,,,
,,,,,,,,,610081ebf9f870b4213e06cb,Mexican,13 or older,"no, only English or Spanish",no,2025-08-12_14h26.54.866,empathy_intonation_perc,2024.2.4,Win32,59.88023952,610081ebf9f870b4213e06cb,687ed1b7e638a4cbf2f02089,689b87480fd5984874e9f6ef,,,,,,,,,,,,,,0,,,,,,,,,,,,,,,,,,,,,,,,,,,,,,,,,,,,,,,,,,,,515.6491,518.58,0,1,2.4055,,518.581,519.5803,0,0,0,0,1,0,depiste,REAL,FAKE,,,,,,,,,,,,,,,,,,,,,,,,,,,,,,,,
,,,,,,,,,610081ebf9f870b4213e06cb,Mexican,13 or older,"no, only English or Spanish",no,2025-08-12_14h26.54.866,empathy_intonation_perc,2024.2.4,Win32,59.88023952,610081ebf9f870b4213e06cb,687ed1b7e638a4cbf2f02089,689b87480fd5984874e9f6ef,,,,,,,,,,,,,,1,,,,,,,,,,,,,,,,,,,,,,,,,,,,,,,,,,,,,,,,,,,,519.5868,520.9491,1,1,0.8533,,520.9492,521.9499,0,1,1,1,1,0,sí,REAL,FAKE,,,,,,,,,,,,,,,,,,,,,,,,,,,,,,,,
,,,,,,,,,610081ebf9f870b4213e06cb,Mexican,13 or older,"no, only English or Spanish",no,2025-08-12_14h26.54.866,empathy_intonation_perc,2024.2.4,Win32,59.88023952,610081ebf9f870b4213e06cb,687ed1b7e638a4cbf2f02089,689b87480fd5984874e9f6ef,,,,,,,,,,,,,,0,,,,,,,,,,,,,,,,,,,,,,,,,,,,,,,,,,,,,,,,,,,,521.9522,523.6862,0,1,1.2151,,523.6863,524.6876,0,2,2,2,1,0,coné,REAL,FAKE,,,,,,,,,,,,,,,,,,,,,,,,,,,,,,,,
,,,,,,,,,610081ebf9f870b4213e06cb,Mexican,13 or older,"no, only English or Spanish",no,2025-08-12_14h26.54.866,empathy_intonation_perc,2024.2.4,Win32,59.88023952,610081ebf9f870b4213e06cb,687ed1b7e638a4cbf2f02089,689b87480fd5984874e9f6ef,,,,,,,,,,,,,,0,,,,,,,,,,,,,,,,,,,,,,,,,,,,,,,,,,,,,,,,,,,,524.6893,526.8739,1,0,1.6476,,526.8768,527.8753,0,3,3,3,1,0,calpar,REAL,FAKE,,,,,,,,,,,,,,,,,,,,,,,,,,,,,,,,
,,,,,,,,,610081ebf9f870b4213e06cb,Mexican,13 or older,"no, only English or Spanish",no,2025-08-12_14h26.54.866,empathy_intonation_perc,2024.2.4,Win32,59.88023952,610081ebf9f870b4213e06cb,687ed1b7e638a4cbf2f02089,689b87480fd5984874e9f6ef,,,,,,,,,,,,,,0,,,,,,,,,,,,,,,,,,,,,,,,,,,,,,,,,,,,,,,,,,,,527.8769,529.4609,0,1,1.0692,,529.4619,530.4648,0,4,4,4,1,0,joten,REAL,FAKE,,,,,,,,,,,,,,,,,,,,,,,,,,,,,,,,
,,,,,,,,,610081ebf9f870b4213e06cb,Mexican,13 or older,"no, only English or Spanish",no,2025-08-12_14h26.54.866,empathy_intonation_perc,2024.2.4,Win32,59.88023952,610081ebf9f870b4213e06cb,687ed1b7e638a4cbf2f02089,689b87480fd5984874e9f6ef,,,,,,,,,,,,,,1,,,,,,,,,,,,,,,,,,,,,,,,,,,,,,,,,,,,,,,,,,,,530.4669,531.9639,0,0,0.9654,,531.9652,532.9654,0,5,5,5,1,0,sacapuntas,REAL,FAKE,,,,,,,,,,,,,,,,,,,,,,,,,,,,,,,,
,,,,,,,,,610081ebf9f870b4213e06cb,Mexican,13 or older,"no, only English or Spanish",no,2025-08-12_14h26.54.866,empathy_intonation_perc,2024.2.4,Win32,59.88023952,610081ebf9f870b4213e06cb,687ed1b7e638a4cbf2f02089,689b87480fd5984874e9f6ef,,,,,,,,,,,,,,0,,,,,,,,,,,,,,,,,,,,,,,,,,,,,,,,,,,,,,,,,,,,532.9675,534.7901,1,0,1.2982,,534.7901,535.7968,0,6,6,6,1,0,priba,REAL,FAKE,,,,,,,,,,,,,,,,,,,,,,,,,,,,,,,,
,,,,,,,,,610081ebf9f870b4213e06cb,Mexican,13 or older,"no, only English or Spanish",no,2025-08-12_14h26.54.866,empathy_intonation_perc,2024.2.4,Win32,59.88023952,610081ebf9f870b4213e06cb,687ed1b7e638a4cbf2f02089,689b87480fd5984874e9f6ef,,,,,,,,,,,,,,0,,,,,,,,,,,,,,,,,,,,,,,,,,,,,,,,,,,,,,,,,,,,535.7979,539.1838,0,1,2.854,,539.1845,540.1751,0,7,7,7,1,0,pelasula,REAL,FAKE,,,,,,,,,,,,,,,,,,,,,,,,,,,,,,,,
,,,,,,,,,610081ebf9f870b4213e06cb,Mexican,13 or older,"no, only English or Spanish",no,2025-08-12_14h26.54.866,empathy_intonation_perc,2024.2.4,Win32,59.88023952,610081ebf9f870b4213e06cb,687ed1b7e638a4cbf2f02089,689b87480fd5984874e9f6ef,,,,,,,,,,,,,,1,,,,,,,,,,,,,,,,,,,,,,,,,,,,,,,,,,,,,,,,,,,,540.1791,541.4319,1,1,0.7277,,541.4321,542.4384,0,8,8,8,1,0,bien,REAL,FAKE,,,,,,,,,,,,,,,,,,,,,,,,,,,,,,,,
,,,,,,,,,610081ebf9f870b4213e06cb,Mexican,13 or older,"no, only English or Spanish",no,2025-08-12_14h26.54.866,empathy_intonation_perc,2024.2.4,Win32,59.88023952,610081ebf9f870b4213e06cb,687ed1b7e638a4cbf2f02089,689b87480fd5984874e9f6ef,,,,,,,,,,,,,,1,,,,,,,,,,,,,,,,,,,,,,,,,,,,,,,,,,,,,,,,,,,,542.4395,543.6892,1,1,0.7175,,543.6893,544.6816,0,9,9,9,1,0,casa,REAL,FAKE,,,,,,,,,,,,,,,,,,,,,,,,,,,,,,,,
,,,,,,,,,610081ebf9f870b4213e06cb,Mexican,13 or older,"no, only English or Spanish",no,2025-08-12_14h26.54.866,empathy_intonation_perc,2024.2.4,Win32,59.88023952,610081ebf9f870b4213e06cb,687ed1b7e638a4cbf2f02089,689b87480fd5984874e9f6ef,,,,,,,,,,,,,,0,,,,,,,,,,,,,,,,,,,,,,,,,,,,,,,,,,,,,,,,,,,,544.6861,546.0563,1,0,0.8461,,546.058,547.0518,0,10,10,10,1,0,lejo,REAL,FAKE,,,,,,,,,,,,,,,,,,,,,,,,,,,,,,,,
,,,,,,,,,610081ebf9f870b4213e06cb,Mexican,13 or older,"no, only English or Spanish",no,2025-08-12_14h26.54.866,empathy_intonation_perc,2024.2.4,Win32,59.88023952,610081ebf9f870b4213e06cb,687ed1b7e638a4cbf2f02089,689b87480fd5984874e9f6ef,,,,,,,,,,,,,,0,,,,,,,,,,,,,,,,,,,,,,,,,,,,,,,,,,,,,,,,,,,,547.0558,548.6702,1,0,1.0719,,548.6704,549.672,0,11,11,11,1,0,pretantas,REAL,FAKE,,,,,,,,,,,,,,,,,,,,,,,,,,,,,,,,
,,,,,,,,,610081ebf9f870b4213e06cb,Mexican,13 or older,"no, only English or Spanish",no,2025-08-12_14h26.54.866,empathy_intonation_perc,2024.2.4,Win32,59.88023952,610081ebf9f870b4213e06cb,687ed1b7e638a4cbf2f02089,689b87480fd5984874e9f6ef,,,,,,,,,,,,,,,,,,,,,,,,,,,,,,,,,,,,,,,,,,,,,,,,,,,,,,,,,,,,,,,,,,,,,,,,,,,549.6733,551.167,,,,,,,,,,,,,,,,,,,,,,,,,,,,,,
,,,,,,,,,610081ebf9f870b4213e06cb,Mexican,13 or older,"no, only English or Spanish",no,2025-08-12_14h26.54.866,empathy_intonation_perc,2024.2.4,Win32,59.88023952,610081ebf9f870b4213e06cb,687ed1b7e638a4cbf2f02089,689b87480fd5984874e9f6ef,,,,,,,,,,,,,,1,,,,,,,,,,,,,,,,,,,,,,,,,,,,,,,,,,,,,,,,,,,,,,,,,,,,,,,,,7,pésimo,,,,,551.18,552.8601,1,1,1.1475,,0,0,0,6,1,REAL,FAKE,,,,,,,,,,,,,,,,,
,,,,,,,,,610081ebf9f870b4213e06cb,Mexican,13 or older,"no, only English or Spanish",no,2025-08-12_14h26.54.866,empathy_intonation_perc,2024.2.4,Win32,59.88023952,610081ebf9f870b4213e06cb,687ed1b7e638a4cbf2f02089,689b87480fd5984874e9f6ef,,,,,,,,,,,,,,1,,,,,,,,,,,,,,,,,,,,,,,,,,,,,,,,,,,,,,,,,,,,,,,,,,,,,,,,,55,nevar,,,,,552.8642,554.6047,0,0,1.202,,0,1,1,54,1,REAL,FAKE,,,,,,,,,,,,,,,,,
,,,,,,,,,610081ebf9f870b4213e06cb,Mexican,13 or older,"no, only English or Spanish",no,2025-08-12_14h26.54.866,empathy_intonation_perc,2024.2.4,Win32,59.88023952,610081ebf9f870b4213e06cb,687ed1b7e638a4cbf2f02089,689b87480fd5984874e9f6ef,,,,,,,,,,,,,,1,,,,,,,,,,,,,,,,,,,,,,,,,,,,,,,,,,,,,,,,,,,,,,,,,,,,,,,,,12,asesinato,,,,,554.6057,558.4419,0,0,3.3042,,0,2,2,11,1,REAL,FAKE,,,,,,,,,,,,,,,,,
,,,,,,,,,610081ebf9f870b4213e06cb,Mexican,13 or older,"no, only English or Spanish",no,2025-08-12_14h26.54.866,empathy_intonation_perc,2024.2.4,Win32,59.88023952,610081ebf9f870b4213e06cb,687ed1b7e638a4cbf2f02089,689b87480fd5984874e9f6ef,,,,,,,,,,,,,,0,,,,,,,,,,,,,,,,,,,,,,,,,,,,,,,,,,,,,,,,,,,,,,,,,,,,,,,,,10,antar,,,,,558.4427,560.1195,0,1,1.1381,,0,3,3,9,1,REAL,FAKE,,,,,,,,,,,,,,,,,
,,,,,,,,,610081ebf9f870b4213e06cb,Mexican,13 or older,"no, only English or Spanish",no,2025-08-12_14h26.54.866,empathy_intonation_perc,2024.2.4,Win32,59.88023952,610081ebf9f870b4213e06cb,687ed1b7e638a4cbf2f02089,689b87480fd5984874e9f6ef,,,,,,,,,,,,,,1,,,,,,,,,,,,,,,,,,,,,,,,,,,,,,,,,,,,,,,,,,,,,,,,,,,,,,,,,62,flaco,,,,,560.1237,561.4984,0,0,0.8349,,0,4,4,61,1,REAL,FAKE,,,,,,,,,,,,,,,,,
,,,,,,,,,610081ebf9f870b4213e06cb,Mexican,13 or older,"no, only English or Spanish",no,2025-08-12_14h26.54.866,empathy_intonation_perc,2024.2.4,Win32,59.88023952,610081ebf9f870b4213e06cb,687ed1b7e638a4cbf2f02089,689b87480fd5984874e9f6ef,,,,,,,,,,,,,,1,,,,,,,,,,,,,,,,,,,,,,,,,,,,,,,,,,,,,,,,,,,,,,,,,,,,,,,,,39,torpe,,,,,561.5007,562.6568,0,0,0.6244,,0,5,5,38,1,REAL,FAKE,,,,,,,,,,,,,,,,,
,,,,,,,,,610081ebf9f870b4213e06cb,Mexican,13 or older,"no, only English or Spanish",no,2025-08-12_14h26.54.866,empathy_intonation_perc,2024.2.4,Win32,59.88023952,610081ebf9f870b4213e06cb,687ed1b7e638a4cbf2f02089,689b87480fd5984874e9f6ef,,,,,,,,,,,,,,0,,,,,,,,,,,,,,,,,,,,,,,,,,,,,,,,,,,,,,,,,,,,,,,,,,,,,,,,,84,escuto,,,,,562.6596,563.9746,1,0,0.7701,,0,6,6,83,1,REAL,FAKE,,,,,,,,,,,,,,,,,
,,,,,,,,,610081ebf9f870b4213e06cb,Mexican,13 or older,"no, only English or Spanish",no,2025-08-12_14h26.54.866,empathy_intonation_perc,2024.2.4,Win32,59.88023952,610081ebf9f870b4213e06cb,687ed1b7e638a4cbf2f02089,689b87480fd5984874e9f6ef,,,,,,,,,,,,,,0,,,,,,,,,,,,,,,,,,,,,,,,,,,,,,,,,,,,,,,,,,,,,,,,,,,,,,,,,21,capillo,,,,,563.9782,565.4882,1,0,0.987,,0,7,7,20,1,REAL,FAKE,,,,,,,,,,,,,,,,,
,,,,,,,,,610081ebf9f870b4213e06cb,Mexican,13 or older,"no, only English or Spanish",no,2025-08-12_14h26.54.866,empathy_intonation_perc,2024.2.4,Win32,59.88023952,610081ebf9f870b4213e06cb,687ed1b7e638a4cbf2f02089,689b87480fd5984874e9f6ef,,,,,,,,,,,,,,1,,,,,,,,,,,,,,,,,,,,,,,,,,,,,,,,,,,,,,,,,,,,,,,,,,,,,,,,,49,ganar,,,,,565.4905,566.783,0,0,0.7621,,0,8,8,48,1,REAL,FAKE,,,,,,,,,,,,,,,,,
,,,,,,,,,610081ebf9f870b4213e06cb,Mexican,13 or older,"no, only English or Spanish",no,2025-08-12_14h26.54.866,empathy_intonation_perc,2024.2.4,Win32,59.88023952,610081ebf9f870b4213e06cb,687ed1b7e638a4cbf2f02089,689b87480fd5984874e9f6ef,,,,,,,,,,,,,,1,,,,,,,,,,,,,,,,,,,,,,,,,,,,,,,,,,,,,,,,,,,,,,,,,,,,,,,,,71,polvoriento,,,,,566.7864,568.1555,0,0,0.8344,,0,9,9,70,1,REAL,FAKE,,,,,,,,,,,,,,,,,
,,,,,,,,,610081ebf9f870b4213e06cb,Mexican,13 or older,"no, only English or Spanish",no,2025-08-12_14h26.54.866,empathy_intonation_perc,2024.2.4,Win32,59.88023952,610081ebf9f870b4213e06cb,687ed1b7e638a4cbf2f02089,689b87480fd5984874e9f6ef,,,,,,,,,,,,,,1,,,,,,,,,,,,,,,,,,,,,,,,,,,,,,,,,,,,,,,,,,,,,,,,,,,,,,,,,48,ladrón,,,,,568.1567,569.7259,0,0,1.0357,,0,10,10,47,1,REAL,FAKE,,,,,,,,,,,,,,,,,
,,,,,,,,,610081ebf9f870b4213e06cb,Mexican,13 or older,"no, only English or Spanish",no,2025-08-12_14h26.54.866,empathy_intonation_perc,2024.2.4,Win32,59.88023952,610081ebf9f870b4213e06cb,687ed1b7e638a4cbf2f02089,689b87480fd5984874e9f6ef,,,,,,,,,,,,,,1,,,,,,,,,,,,,,,,,,,,,,,,,,,,,,,,,,,,,,,,,,,,,,,,,,,,,,,,,41,rebuscar,,,,,569.7277,571,0,0,0.739,,0,11,11,40,1,REAL,FAKE,,,,,,,,,,,,,,,,,
,,,,,,,,,610081ebf9f870b4213e06cb,Mexican,13 or older,"no, only English or Spanish",no,2025-08-12_14h26.54.866,empathy_intonation_perc,2024.2.4,Win32,59.88023952,610081ebf9f870b4213e06cb,687ed1b7e638a4cbf2f02089,689b87480fd5984874e9f6ef,,,,,,,,,,,,,,1,,,,,,,,,,,,,,,,,,,,,,,,,,,,,,,,,,,,,,,,,,,,,,,,,,,,,,,,,91,click the 1 key.,,,,,571.005,572.7964,1,1,1.2695,,0,12,12,90,1,REAL,FAKE,,,,,,,,,,,,,,,,,
,,,,,,,,,610081ebf9f870b4213e06cb,Mexican,13 or older,"no, only English or Spanish",no,2025-08-12_14h26.54.866,empathy_intonation_perc,2024.2.4,Win32,59.88023952,610081ebf9f870b4213e06cb,687ed1b7e638a4cbf2f02089,689b87480fd5984874e9f6ef,,,,,,,,,,,,,,1,,,,,,,,,,,,,,,,,,,,,,,,,,,,,,,,,,,,,,,,,,,,,,,,,,,,,,,,,83,guante,,,,,572.7972,574.9313,0,0,1.6005,,0,13,13,82,1,REAL,FAKE,,,,,,,,,,,,,,,,,
,,,,,,,,,610081ebf9f870b4213e06cb,Mexican,13 or older,"no, only English or Spanish",no,2025-08-12_14h26.54.866,empathy_intonation_perc,2024.2.4,Win32,59.88023952,610081ebf9f870b4213e06cb,687ed1b7e638a4cbf2f02089,689b87480fd5984874e9f6ef,,,,,,,,,,,,,,1,,,,,,,,,,,,,,,,,,,,,,,,,,,,,,,,,,,,,,,,,,,,,,,,,,,,,,,,,81,pozo,,,,,574.9324,576.1902,0,0,0.7178,,0,14,14,80,1,REAL,FAKE,,,,,,,,,,,,,,,,,
,,,,,,,,,610081ebf9f870b4213e06cb,Mexican,13 or older,"no, only English or Spanish",no,2025-08-12_14h26.54.866,empathy_intonation_perc,2024.2.4,Win32,59.88023952,610081ebf9f870b4213e06cb,687ed1b7e638a4cbf2f02089,689b87480fd5984874e9f6ef,,,,,,,,,,,,,,0,,,,,,,,,,,,,,,,,,,,,,,,,,,,,,,,,,,,,,,,,,,,,,,,,,,,,,,,,33,pauca,,,,,576.1943,577.78,1,0,1.0438,,0,15,15,32,1,REAL,FAKE,,,,,,,,,,,,,,,,,
,,,,,,,,,610081ebf9f870b4213e06cb,Mexican,13 or older,"no, only English or Spanish",no,2025-08-12_14h26.54.866,empathy_intonation_perc,2024.2.4,Win32,59.88023952,610081ebf9f870b4213e06cb,687ed1b7e638a4cbf2f02089,689b87480fd5984874e9f6ef,,,,,,,,,,,,,,1,,,,,,,,,,,,,,,,,,,,,,,,,,,,,,,,,,,,,,,,,,,,,,,,,,,,,,,,,36,loro,,,,,577.7821,579.1498,0,0,0.8305,,0,16,16,35,1,REAL,FAKE,,,,,,,,,,,,,,,,,
,,,,,,,,,610081ebf9f870b4213e06cb,Mexican,13 or older,"no, only English or Spanish",no,2025-08-12_14h26.54.866,empathy_intonation_perc,2024.2.4,Win32,59.88023952,610081ebf9f870b4213e06cb,687ed1b7e638a4cbf2f02089,689b87480fd5984874e9f6ef,,,,,,,,,,,,,,1,,,,,,,,,,,,,,,,,,,,,,,,,,,,,,,,,,,,,,,,,,,,,,,,,,,,,,,,,2,pellizcar,,,,,579.1507,581.9428,0,0,2.2537,,0,17,17,1,1,REAL,FAKE,,,,,,,,,,,,,,,,,
,,,,,,,,,610081ebf9f870b4213e06cb,Mexican,13 or older,"no, only English or Spanish",no,2025-08-12_14h26.54.866,empathy_intonation_perc,2024.2.4,Win32,59.88023952,610081ebf9f870b4213e06cb,687ed1b7e638a4cbf2f02089,689b87480fd5984874e9f6ef,,,,,,,,,,,,,,1,,,,,,,,,,,,,,,,,,,,,,,,,,,,,,,,,,,,,,,,,,,,,,,,,,,,,,,,,89,prisa,,,,,581.9454,584.2948,0,0,1.8201,,0,18,18,88,1,REAL,FAKE,,,,,,,,,,,,,,,,,
,,,,,,,,,610081ebf9f870b4213e06cb,Mexican,13 or older,"no, only English or Spanish",no,2025-08-12_14h26.54.866,empathy_intonation_perc,2024.2.4,Win32,59.88023952,610081ebf9f870b4213e06cb,687ed1b7e638a4cbf2f02089,689b87480fd5984874e9f6ef,,,,,,,,,,,,,,1,,,,,,,,,,,,,,,,,,,,,,,,,,,,,,,,,,,,,,,,,,,,,,,,,,,,,,,,,22,lacayo,,,,,584.2955,585.638,0,0,0.8054,,0,19,19,21,1,REAL,FAKE,,,,,,,,,,,,,,,,,
,,,,,,,,,610081ebf9f870b4213e06cb,Mexican,13 or older,"no, only English or Spanish",no,2025-08-12_14h26.54.866,empathy_intonation_perc,2024.2.4,Win32,59.88023952,610081ebf9f870b4213e06cb,687ed1b7e638a4cbf2f02089,689b87480fd5984874e9f6ef,,,,,,,,,,,,,,1,,,,,,,,,,,,,,,,,,,,,,,,,,,,,,,,,,,,,,,,,,,,,,,,,,,,,,,,,20,ávido,,,,,585.6441,587.1388,1,1,0.9518,,0,20,20,19,1,REAL,FAKE,,,,,,,,,,,,,,,,,
,,,,,,,,,610081ebf9f870b4213e06cb,Mexican,13 or older,"no, only English or Spanish",no,2025-08-12_14h26.54.866,empathy_intonation_perc,2024.2.4,Win32,59.88023952,610081ebf9f870b4213e06cb,687ed1b7e638a4cbf2f02089,689b87480fd5984874e9f6ef,,,,,,,,,,,,,,0,,,,,,,,,,,,,,,,,,,,,,,,,,,,,,,,,,,,,,,,,,,,,,,,,,,,,,,,,42,cadallo,,,,,587.1419,588.5331,1,0,0.851,,0,21,21,41,1,REAL,FAKE,,,,,,,,,,,,,,,,,
,,,,,,,,,610081ebf9f870b4213e06cb,Mexican,13 or older,"no, only English or Spanish",no,2025-08-12_14h26.54.866,empathy_intonation_perc,2024.2.4,Win32,59.88023952,610081ebf9f870b4213e06cb,687ed1b7e638a4cbf2f02089,689b87480fd5984874e9f6ef,,,,,,,,,,,,,,1,,,,,,,,,,,,,,,,,,,,,,,,,,,,,,,,,,,,,,,,,,,,,,,,,,,,,,,,,45,jilguero,,,,,588.534,590.0257,0,0,0.9521,,0,22,22,44,1,REAL,FAKE,,,,,,,,,,,,,,,,,
,,,,,,,,,610081ebf9f870b4213e06cb,Mexican,13 or older,"no, only English or Spanish",no,2025-08-12_14h26.54.866,empathy_intonation_perc,2024.2.4,Win32,59.88023952,610081ebf9f870b4213e06cb,687ed1b7e638a4cbf2f02089,689b87480fd5984874e9f6ef,,,,,,,,,,,,,,1,,,,,,,,,,,,,,,,,,,,,,,,,,,,,,,,,,,,,,,,,,,,,,,,,,,,,,,,,65,bizcocho,,,,,590.0297,591.2724,0,0,0.7199,,0,23,23,64,1,REAL,FAKE,,,,,,,,,,,,,,,,,
,,,,,,,,,610081ebf9f870b4213e06cb,Mexican,13 or older,"no, only English or Spanish",no,2025-08-12_14h26.54.866,empathy_intonation_perc,2024.2.4,Win32,59.88023952,610081ebf9f870b4213e06cb,687ed1b7e638a4cbf2f02089,689b87480fd5984874e9f6ef,,,,,,,,,,,,,,0,,,,,,,,,,,,,,,,,,,,,,,,,,,,,,,,,,,,,,,,,,,,,,,,,,,,,,,,,32,fatacidad,,,,,591.2744,593.4896,0,1,1.6853,,0,24,24,31,1,REAL,FAKE,,,,,,,,,,,,,,,,,
,,,,,,,,,610081ebf9f870b4213e06cb,Mexican,13 or older,"no, only English or Spanish",no,2025-08-12_14h26.54.866,empathy_intonation_perc,2024.2.4,Win32,59.88023952,610081ebf9f870b4213e06cb,687ed1b7e638a4cbf2f02089,689b87480fd5984874e9f6ef,,,,,,,,,,,,,,0,,,,,,,,,,,,,,,,,,,,,,,,,,,,,,,,,,,,,,,,,,,,,,,,,,,,,,,,,1,terzo,,,,,593.4904,595.7668,1,0,1.7356,,0,25,25,0,1,REAL,FAKE,,,,,,,,,,,,,,,,,
,,,,,,,,,610081ebf9f870b4213e06cb,Mexican,13 or older,"no, only English or Spanish",no,2025-08-12_14h26.54.866,empathy_intonation_perc,2024.2.4,Win32,59.88023952,610081ebf9f870b4213e06cb,687ed1b7e638a4cbf2f02089,689b87480fd5984874e9f6ef,,,,,,,,,,,,,,0,,,,,,,,,,,,,,,,,,,,,,,,,,,,,,,,,,,,,,,,,,,,,,,,,,,,,,,,,87,grodo,,,,,595.7712,597.0562,0,1,0.7418,,0,26,26,86,1,REAL,FAKE,,,,,,,,,,,,,,,,,
,,,,,,,,,610081ebf9f870b4213e06cb,Mexican,13 or older,"no, only English or Spanish",no,2025-08-12_14h26.54.866,empathy_intonation_perc,2024.2.4,Win32,59.88023952,610081ebf9f870b4213e06cb,687ed1b7e638a4cbf2f02089,689b87480fd5984874e9f6ef,,,,,,,,,,,,,,1,,,,,,,,,,,,,,,,,,,,,,,,,,,,,,,,,,,,,,,,,,,,,,,,,,,,,,,,,68,alegre,,,,,597.0583,598.1548,0,0,0.5558,,0,27,27,67,1,REAL,FAKE,,,,,,,,,,,,,,,,,
,,,,,,,,,610081ebf9f870b4213e06cb,Mexican,13 or older,"no, only English or Spanish",no,2025-08-12_14h26.54.866,empathy_intonation_perc,2024.2.4,Win32,59.88023952,610081ebf9f870b4213e06cb,687ed1b7e638a4cbf2f02089,689b87480fd5984874e9f6ef,,,,,,,,,,,,,,1,,,,,,,,,,,,,,,,,,,,,,,,,,,,,,,,,,,,,,,,,,,,,,,,,,,,,,,,,37,granuja,,,,,598.1593,599.4719,0,0,0.7811,,0,28,28,36,1,REAL,FAKE,,,,,,,,,,,,,,,,,
,,,,,,,,,610081ebf9f870b4213e06cb,Mexican,13 or older,"no, only English or Spanish",no,2025-08-12_14h26.54.866,empathy_intonation_perc,2024.2.4,Win32,59.88023952,610081ebf9f870b4213e06cb,687ed1b7e638a4cbf2f02089,689b87480fd5984874e9f6ef,,,,,,,,,,,,,,1,,,,,,,,,,,,,,,,,,,,,,,,,,,,,,,,,,,,,,,,,,,,,,,,,,,,,,,,,43,canela,,,,,599.4731,602.388,1,1,2.4006,,0,29,29,42,1,REAL,FAKE,,,,,,,,,,,,,,,,,
,,,,,,,,,610081ebf9f870b4213e06cb,Mexican,13 or older,"no, only English or Spanish",no,2025-08-12_14h26.54.866,empathy_intonation_perc,2024.2.4,Win32,59.88023952,610081ebf9f870b4213e06cb,687ed1b7e638a4cbf2f02089,689b87480fd5984874e9f6ef,,,,,,,,,,,,,,1,,,,,,,,,,,,,,,,,,,,,,,,,,,,,,,,,,,,,,,,,,,,,,,,,,,,,,,,,64,orgulloso,,,,,602.3889,603.604,0,0,0.6834,,0,30,30,63,1,REAL,FAKE,,,,,,,,,,,,,,,,,
,,,,,,,,,610081ebf9f870b4213e06cb,Mexican,13 or older,"no, only English or Spanish",no,2025-08-12_14h26.54.866,empathy_intonation_perc,2024.2.4,Win32,59.88023952,610081ebf9f870b4213e06cb,687ed1b7e638a4cbf2f02089,689b87480fd5984874e9f6ef,,,,,,,,,,,,,,1,,,,,,,,,,,,,,,,,,,,,,,,,,,,,,,,,,,,,,,,,,,,,,,,,,,,,,,,,57,tacaño,,,,,603.6055,605.0795,0,0,0.9366,,0,31,31,56,1,REAL,FAKE,,,,,,,,,,,,,,,,,
,,,,,,,,,610081ebf9f870b4213e06cb,Mexican,13 or older,"no, only English or Spanish",no,2025-08-12_14h26.54.866,empathy_intonation_perc,2024.2.4,Win32,59.88023952,610081ebf9f870b4213e06cb,687ed1b7e638a4cbf2f02089,689b87480fd5984874e9f6ef,,,,,,,,,,,,,,0,,,,,,,,,,,,,,,,,,,,,,,,,,,,,,,,,,,,,,,,,,,,,,,,,,,,,,,,,50,flamida,,,,,605.083,608.1174,1,0,2.5083,,0,32,32,49,1,REAL,FAKE,,,,,,,,,,,,,,,,,
,,,,,,,,,610081ebf9f870b4213e06cb,Mexican,13 or older,"no, only English or Spanish",no,2025-08-12_14h26.54.866,empathy_intonation_perc,2024.2.4,Win32,59.88023952,610081ebf9f870b4213e06cb,687ed1b7e638a4cbf2f02089,689b87480fd5984874e9f6ef,,,,,,,,,,,,,,1,,,,,,,,,,,,,,,,,,,,,,,,,,,,,,,,,,,,,,,,,,,,,,,,,,,,,,,,,61,seda,,,,,608.1195,609.6455,1,1,1.0014,,0,33,33,60,1,REAL,FAKE,,,,,,,,,,,,,,,,,
,,,,,,,,,610081ebf9f870b4213e06cb,Mexican,13 or older,"no, only English or Spanish",no,2025-08-12_14h26.54.866,empathy_intonation_perc,2024.2.4,Win32,59.88023952,610081ebf9f870b4213e06cb,687ed1b7e638a4cbf2f02089,689b87480fd5984874e9f6ef,,,,,,,,,,,,,,1,,,,,,,,,,,,,,,,,,,,,,,,,,,,,,,,,,,,,,,,,,,,,,,,,,,,,,,,,38,estornudar,,,,,609.6463,610.8829,0,0,0.7015,,0,34,34,37,1,REAL,FAKE,,,,,,,,,,,,,,,,,
,,,,,,,,,610081ebf9f870b4213e06cb,Mexican,13 or older,"no, only English or Spanish",no,2025-08-12_14h26.54.866,empathy_intonation_perc,2024.2.4,Win32,59.88023952,610081ebf9f870b4213e06cb,687ed1b7e638a4cbf2f02089,689b87480fd5984874e9f6ef,,,,,,,,,,,,,,0,,,,,,,,,,,,,,,,,,,,,,,,,,,,,,,,,,,,,,,,,,,,,,,,,,,,,,,,,17,floroso,,,,,610.8852,612.0763,0,1,0.6604,,0,35,35,16,1,REAL,FAKE,,,,,,,,,,,,,,,,,
,,,,,,,,,610081ebf9f870b4213e06cb,Mexican,13 or older,"no, only English or Spanish",no,2025-08-12_14h26.54.866,empathy_intonation_perc,2024.2.4,Win32,59.88023952,610081ebf9f870b4213e06cb,687ed1b7e638a4cbf2f02089,689b87480fd5984874e9f6ef,,,,,,,,,,,,,,1,,,,,,,,,,,,,,,,,,,,,,,,,,,,,,,,,,,,,,,,,,,,,,,,,,,,,,,,,67,cabello,,,,,612.0791,613.6013,1,1,0.986,,0,36,36,66,1,REAL,FAKE,,,,,,,,,,,,,,,,,
,,,,,,,,,610081ebf9f870b4213e06cb,Mexican,13 or older,"no, only English or Spanish",no,2025-08-12_14h26.54.866,empathy_intonation_perc,2024.2.4,Win32,59.88023952,610081ebf9f870b4213e06cb,687ed1b7e638a4cbf2f02089,689b87480fd5984874e9f6ef,,,,,,,,,,,,,,0,,,,,,,,,,,,,,,,,,,,,,,,,,,,,,,,,,,,,,,,,,,,,,,,,,,,,,,,,66,hacido,,,,,613.6022,614.9521,0,1,0.8181,,0,37,37,65,1,REAL,FAKE,,,,,,,,,,,,,,,,,
,,,,,,,,,610081ebf9f870b4213e06cb,Mexican,13 or older,"no, only English or Spanish",no,2025-08-12_14h26.54.866,empathy_intonation_perc,2024.2.4,Win32,59.88023952,610081ebf9f870b4213e06cb,687ed1b7e638a4cbf2f02089,689b87480fd5984874e9f6ef,,,,,,,,,,,,,,1,,,,,,,,,,,,,,,,,,,,,,,,,,,,,,,,,,,,,,,,,,,,,,,,,,,,,,,,,5,zapato,,,,,614.9529,616.5121,1,1,1.0236,,0,38,38,4,1,REAL,FAKE,,,,,,,,,,,,,,,,,
,,,,,,,,,610081ebf9f870b4213e06cb,Mexican,13 or older,"no, only English or Spanish",no,2025-08-12_14h26.54.866,empathy_intonation_perc,2024.2.4,Win32,59.88023952,610081ebf9f870b4213e06cb,687ed1b7e638a4cbf2f02089,689b87480fd5984874e9f6ef,,,,,,,,,,,,,,1,,,,,,,,,,,,,,,,,,,,,,,,,,,,,,,,,,,,,,,,,,,,,,,,,,,,,,,,,78,frondoso,,,,,616.5146,617.7422,0,0,0.6854,,0,39,39,77,1,REAL,FAKE,,,,,,,,,,,,,,,,,
,,,,,,,,,610081ebf9f870b4213e06cb,Mexican,13 or older,"no, only English or Spanish",no,2025-08-12_14h26.54.866,empathy_intonation_perc,2024.2.4,Win32,59.88023952,610081ebf9f870b4213e06cb,687ed1b7e638a4cbf2f02089,689b87480fd5984874e9f6ef,,,,,,,,,,,,,,1,,,,,,,,,,,,,,,,,,,,,,,,,,,,,,,,,,,,,,,,,,,,,,,,,,,,,,,,,3,pulmones,,,,,617.7447,619.7162,0,0,1.4273,,0,40,40,2,1,REAL,FAKE,,,,,,,,,,,,,,,,,
,,,,,,,,,610081ebf9f870b4213e06cb,Mexican,13 or older,"no, only English or Spanish",no,2025-08-12_14h26.54.866,empathy_intonation_perc,2024.2.4,Win32,59.88023952,610081ebf9f870b4213e06cb,687ed1b7e638a4cbf2f02089,689b87480fd5984874e9f6ef,,,,,,,,,,,,,,0,,,,,,,,,,,,,,,,,,,,,,,,,,,,,,,,,,,,,,,,,,,,,,,,,,,,,,,,,72,pemición,,,,,619.7179,620.8512,0,1,0.596,,0,41,41,71,1,REAL,FAKE,,,,,,,,,,,,,,,,,
,,,,,,,,,610081ebf9f870b4213e06cb,Mexican,13 or older,"no, only English or Spanish",no,2025-08-12_14h26.54.866,empathy_intonation_perc,2024.2.4,Win32,59.88023952,610081ebf9f870b4213e06cb,687ed1b7e638a4cbf2f02089,689b87480fd5984874e9f6ef,,,,,,,,,,,,,,1,,,,,,,,,,,,,,,,,,,,,,,,,,,,,,,,,,,,,,,,,,,,,,,,,,,,,,,,,75,yacer,,,,,620.8533,623.3379,0,0,1.9649,,0,42,42,74,1,REAL,FAKE,,,,,,,,,,,,,,,,,
,,,,,,,,,610081ebf9f870b4213e06cb,Mexican,13 or older,"no, only English or Spanish",no,2025-08-12_14h26.54.866,empathy_intonation_perc,2024.2.4,Win32,59.88023952,610081ebf9f870b4213e06cb,687ed1b7e638a4cbf2f02089,689b87480fd5984874e9f6ef,,,,,,,,,,,,,,0,,,,,,,,,,,,,,,,,,,,,,,,,,,,,,,,,,,,,,,,,,,,,,,,,,,,,,,,,58,plaudir,,,,,623.3394,624.9065,0,1,1.0514,,0,43,43,57,1,REAL,FAKE,,,,,,,,,,,,,,,,,
,,,,,,,,,610081ebf9f870b4213e06cb,Mexican,13 or older,"no, only English or Spanish",no,2025-08-12_14h26.54.866,empathy_intonation_perc,2024.2.4,Win32,59.88023952,610081ebf9f870b4213e06cb,687ed1b7e638a4cbf2f02089,689b87480fd5984874e9f6ef,,,,,,,,,,,,,,1,,,,,,,,,,,,,,,,,,,,,,,,,,,,,,,,,,,,,,,,,,,,,,,,,,,,,,,,,6,tergiversar,,,,,624.9079,626.1918,0,0,0.7664,,0,44,44,5,1,REAL,FAKE,,,,,,,,,,,,,,,,,
,,,,,,,,,610081ebf9f870b4213e06cb,Mexican,13 or older,"no, only English or Spanish",no,2025-08-12_14h26.54.866,empathy_intonation_perc,2024.2.4,Win32,59.88023952,610081ebf9f870b4213e06cb,687ed1b7e638a4cbf2f02089,689b87480fd5984874e9f6ef,,,,,,,,,,,,,,0,,,,,,,,,,,,,,,,,,,,,,,,,,,,,,,,,,,,,,,,,,,,,,,,,,,,,,,,,63,esposante,,,,,626.1928,629.2455,0,1,2.5353,,0,45,45,62,1,REAL,FAKE,,,,,,,,,,,,,,,,,
,,,,,,,,,610081ebf9f870b4213e06cb,Mexican,13 or older,"no, only English or Spanish",no,2025-08-12_14h26.54.866,empathy_intonation_perc,2024.2.4,Win32,59.88023952,610081ebf9f870b4213e06cb,687ed1b7e638a4cbf2f02089,689b87480fd5984874e9f6ef,,,,,,,,,,,,,,0,,,,,,,,,,,,,,,,,,,,,,,,,,,,,,,,,,,,,,,,,,,,,,,,,,,,,,,,,53,vegada,,,,,629.2465,630.4981,0,1,0.7387,,0,46,46,52,1,REAL,FAKE,,,,,,,,,,,,,,,,,
,,,,,,,,,610081ebf9f870b4213e06cb,Mexican,13 or older,"no, only English or Spanish",no,2025-08-12_14h26.54.866,empathy_intonation_perc,2024.2.4,Win32,59.88023952,610081ebf9f870b4213e06cb,687ed1b7e638a4cbf2f02089,689b87480fd5984874e9f6ef,,,,,,,,,,,,,,1,,,,,,,,,,,,,,,,,,,,,,,,,,,,,,,,,,,,,,,,,,,,,,,,,,,,,,,,,34,aviso,,,,,630.5003,631.6755,0,0,0.6499,,0,47,47,33,1,REAL,FAKE,,,,,,,,,,,,,,,,,
,,,,,,,,,610081ebf9f870b4213e06cb,Mexican,13 or older,"no, only English or Spanish",no,2025-08-12_14h26.54.866,empathy_intonation_perc,2024.2.4,Win32,59.88023952,610081ebf9f870b4213e06cb,687ed1b7e638a4cbf2f02089,689b87480fd5984874e9f6ef,,,,,,,,,,,,,,0,,,,,,,,,,,,,,,,,,,,,,,,,,,,,,,,,,,,,,,,,,,,,,,,,,,,,,,,,74,cintro,,,,,631.6762,632.9604,0,1,0.7519,,0,48,48,73,1,REAL,FAKE,,,,,,,,,,,,,,,,,
,,,,,,,,,610081ebf9f870b4213e06cb,Mexican,13 or older,"no, only English or Spanish",no,2025-08-12_14h26.54.866,empathy_intonation_perc,2024.2.4,Win32,59.88023952,610081ebf9f870b4213e06cb,687ed1b7e638a4cbf2f02089,689b87480fd5984874e9f6ef,,,,,,,,,,,,,,1,,,,,,,,,,,,,,,,,,,,,,,,,,,,,,,,,,,,,,,,,,,,,,,,,,,,,,,,,26,secuestro,,,,,632.9612,634.4626,0,0,0.9853,,0,49,49,25,1,REAL,FAKE,,,,,,,,,,,,,,,,,
,,,,,,,,,610081ebf9f870b4213e06cb,Mexican,13 or older,"no, only English or Spanish",no,2025-08-12_14h26.54.866,empathy_intonation_perc,2024.2.4,Win32,59.88023952,610081ebf9f870b4213e06cb,687ed1b7e638a4cbf2f02089,689b87480fd5984874e9f6ef,,,,,,,,,,,,,,1,,,,,,,,,,,,,,,,,,,,,,,,,,,,,,,,,,,,,,,,,,,,,,,,,,,,,,,,,52,camisa,,,,,634.4634,635.9153,1,1,0.9191,,0,50,50,51,1,REAL,FAKE,,,,,,,,,,,,,,,,,
,,,,,,,,,610081ebf9f870b4213e06cb,Mexican,13 or older,"no, only English or Spanish",no,2025-08-12_14h26.54.866,empathy_intonation_perc,2024.2.4,Win32,59.88023952,610081ebf9f870b4213e06cb,687ed1b7e638a4cbf2f02089,689b87480fd5984874e9f6ef,,,,,,,,,,,,,,1,,,,,,,,,,,,,,,,,,,,,,,,,,,,,,,,,,,,,,,,,,,,,,,,,,,,,,,,,28,merodear,,,,,635.9161,637.3163,0,0,0.8683,,0,51,51,27,1,REAL,FAKE,,,,,,,,,,,,,,,,,
,,,,,,,,,610081ebf9f870b4213e06cb,Mexican,13 or older,"no, only English or Spanish",no,2025-08-12_14h26.54.866,empathy_intonation_perc,2024.2.4,Win32,59.88023952,610081ebf9f870b4213e06cb,687ed1b7e638a4cbf2f02089,689b87480fd5984874e9f6ef,,,,,,,,,,,,,,1,,,,,,,,,,,,,,,,,,,,,,,,,,,,,,,,,,,,,,,,,,,,,,,,,,,,,,,,,77,tiburón,,,,,637.317,638.5006,0,0,0.6511,,0,52,52,76,1,REAL,FAKE,,,,,,,,,,,,,,,,,
,,,,,,,,,610081ebf9f870b4213e06cb,Mexican,13 or older,"no, only English or Spanish",no,2025-08-12_14h26.54.866,empathy_intonation_perc,2024.2.4,Win32,59.88023952,610081ebf9f870b4213e06cb,687ed1b7e638a4cbf2f02089,689b87480fd5984874e9f6ef,,,,,,,,,,,,,,1,,,,,,,,,,,,,,,,,,,,,,,,,,,,,,,,,,,,,,,,,,,,,,,,,,,,,,,,,80,hormiga,,,,,638.5013,639.7025,0,0,0.668,,0,53,53,79,1,REAL,FAKE,,,,,,,,,,,,,,,,,
,,,,,,,,,610081ebf9f870b4213e06cb,Mexican,13 or older,"no, only English or Spanish",no,2025-08-12_14h26.54.866,empathy_intonation_perc,2024.2.4,Win32,59.88023952,610081ebf9f870b4213e06cb,687ed1b7e638a4cbf2f02089,689b87480fd5984874e9f6ef,,,,,,,,,,,,,,1,,,,,,,,,,,,,,,,,,,,,,,,,,,,,,,,,,,,,,,,,,,,,,,,,,,,,,,,,51,candado,,,,,639.7035,641.0047,0,0,0.7687,,0,54,54,50,1,REAL,FAKE,,,,,,,,,,,,,,,,,
,,,,,,,,,610081ebf9f870b4213e06cb,Mexican,13 or older,"no, only English or Spanish",no,2025-08-12_14h26.54.866,empathy_intonation_perc,2024.2.4,Win32,59.88023952,610081ebf9f870b4213e06cb,687ed1b7e638a4cbf2f02089,689b87480fd5984874e9f6ef,,,,,,,,,,,,,,1,,,,,,,,,,,,,,,,,,,,,,,,,,,,,,,,,,,,,,,,,,,,,,,,,,,,,,,,,13,helar,,,,,641.0054,642.4588,0,0,0.9363,,0,55,55,12,1,REAL,FAKE,,,,,,,,,,,,,,,,,
,,,,,,,,,610081ebf9f870b4213e06cb,Mexican,13 or older,"no, only English or Spanish",no,2025-08-12_14h26.54.866,empathy_intonation_perc,2024.2.4,Win32,59.88023952,610081ebf9f870b4213e06cb,687ed1b7e638a4cbf2f02089,689b87480fd5984874e9f6ef,,,,,,,,,,,,,,1,,,,,,,,,,,,,,,,,,,,,,,,,,,,,,,,,,,,,,,,,,,,,,,,,,,,,,,,,24,látigo,,,,,642.4606,644.0762,1,1,1.086,,0,56,56,23,1,REAL,FAKE,,,,,,,,,,,,,,,,,
,,,,,,,,,610081ebf9f870b4213e06cb,Mexican,13 or older,"no, only English or Spanish",no,2025-08-12_14h26.54.866,empathy_intonation_perc,2024.2.4,Win32,59.88023952,610081ebf9f870b4213e06cb,687ed1b7e638a4cbf2f02089,689b87480fd5984874e9f6ef,,,,,,,,,,,,,,0,,,,,,,,,,,,,,,,,,,,,,,,,,,,,,,,,,,,,,,,,,,,,,,,,,,,,,,,,92,click the 0 key.,,,,,644.078,645.4964,0,1,0.8867,,0,57,57,91,1,REAL,FAKE,,,,,,,,,,,,,,,,,
,,,,,,,,,610081ebf9f870b4213e06cb,Mexican,13 or older,"no, only English or Spanish",no,2025-08-12_14h26.54.866,empathy_intonation_perc,2024.2.4,Win32,59.88023952,610081ebf9f870b4213e06cb,687ed1b7e638a4cbf2f02089,689b87480fd5984874e9f6ef,,,,,,,,,,,,,,0,,,,,,,,,,,,,,,,,,,,,,,,,,,,,,,,,,,,,,,,,,,,,,,,,,,,,,,,,82,empirador,,,,,645.4984,647.5467,0,1,1.5176,,0,58,58,81,1,REAL,FAKE,,,,,,,,,,,,,,,,,
,,,,,,,,,610081ebf9f870b4213e06cb,Mexican,13 or older,"no, only English or Spanish",no,2025-08-12_14h26.54.866,empathy_intonation_perc,2024.2.4,Win32,59.88023952,610081ebf9f870b4213e06cb,687ed1b7e638a4cbf2f02089,689b87480fd5984874e9f6ef,,,,,,,,,,,,,,1,,,,,,,,,,,,,,,,,,,,,,,,,,,,,,,,,,,,,,,,,,,,,,,,,,,,,,,,,73,hervidor,,,,,647.5474,648.7832,0,0,0.7009,,0,59,59,72,1,REAL,FAKE,,,,,,,,,,,,,,,,,
,,,,,,,,,610081ebf9f870b4213e06cb,Mexican,13 or older,"no, only English or Spanish",no,2025-08-12_14h26.54.866,empathy_intonation_perc,2024.2.4,Win32,59.88023952,610081ebf9f870b4213e06cb,687ed1b7e638a4cbf2f02089,689b87480fd5984874e9f6ef,,,,,,,,,,,,,,1,,,,,,,,,,,,,,,,,,,,,,,,,,,,,,,,,,,,,,,,,,,,,,,,,,,,,,,,,76,atar,,,,,648.7848,649.9683,0,0,0.653,,0,60,60,75,1,REAL,FAKE,,,,,,,,,,,,,,,,,
,,,,,,,,,610081ebf9f870b4213e06cb,Mexican,13 or older,"no, only English or Spanish",no,2025-08-12_14h26.54.866,empathy_intonation_perc,2024.2.4,Win32,59.88023952,610081ebf9f870b4213e06cb,687ed1b7e638a4cbf2f02089,689b87480fd5984874e9f6ef,,,,,,,,,,,,,,1,,,,,,,,,,,,,,,,,,,,,,,,,,,,,,,,,,,,,,,,,,,,,,,,,,,,,,,,,31,pandilla,,,,,649.97,651.6096,0,0,1.1034,,0,61,61,30,1,REAL,FAKE,,,,,,,,,,,,,,,,,
,,,,,,,,,610081ebf9f870b4213e06cb,Mexican,13 or older,"no, only English or Spanish",no,2025-08-12_14h26.54.866,empathy_intonation_perc,2024.2.4,Win32,59.88023952,610081ebf9f870b4213e06cb,687ed1b7e638a4cbf2f02089,689b87480fd5984874e9f6ef,,,,,,,,,,,,,,0,,,,,,,,,,,,,,,,,,,,,,,,,,,,,,,,,,,,,,,,,,,,,,,,,,,,,,,,,16,abracer,,,,,651.6133,653.3201,1,0,1.1833,,0,62,62,15,1,REAL,FAKE,,,,,,,,,,,,,,,,,
,,,,,,,,,610081ebf9f870b4213e06cb,Mexican,13 or older,"no, only English or Spanish",no,2025-08-12_14h26.54.866,empathy_intonation_perc,2024.2.4,Win32,59.88023952,610081ebf9f870b4213e06cb,687ed1b7e638a4cbf2f02089,689b87480fd5984874e9f6ef,,,,,,,,,,,,,,1,,,,,,,,,,,,,,,,,,,,,,,,,,,,,,,,,,,,,,,,,,,,,,,,,,,,,,,,,9,hacha,,,,,653.3208,655.0313,1,1,1.1877,,0,63,63,8,1,REAL,FAKE,,,,,,,,,,,,,,,,,
,,,,,,,,,610081ebf9f870b4213e06cb,Mexican,13 or older,"no, only English or Spanish",no,2025-08-12_14h26.54.866,empathy_intonation_perc,2024.2.4,Win32,59.88023952,610081ebf9f870b4213e06cb,687ed1b7e638a4cbf2f02089,689b87480fd5984874e9f6ef,,,,,,,,,,,,,,1,,,,,,,,,,,,,,,,,,,,,,,,,,,,,,,,,,,,,,,,,,,,,,,,,,,,,,,,,44,cuchara,,,,,655.0352,657.0767,1,1,1.5196,,0,64,64,43,1,REAL,FAKE,,,,,,,,,,,,,,,,,
,,,,,,,,,610081ebf9f870b4213e06cb,Mexican,13 or older,"no, only English or Spanish",no,2025-08-12_14h26.54.866,empathy_intonation_perc,2024.2.4,Win32,59.88023952,610081ebf9f870b4213e06cb,687ed1b7e638a4cbf2f02089,689b87480fd5984874e9f6ef,,,,,,,,,,,,,,0,,,,,,,,,,,,,,,,,,,,,,,,,,,,,,,,,,,,,,,,,,,,,,,,,,,,,,,,,29,decar,,,,,657.0778,658.5275,1,0,0.9179,,0,65,65,28,1,REAL,FAKE,,,,,,,,,,,,,,,,,
,,,,,,,,,610081ebf9f870b4213e06cb,Mexican,13 or older,"no, only English or Spanish",no,2025-08-12_14h26.54.866,empathy_intonation_perc,2024.2.4,Win32,59.88023952,610081ebf9f870b4213e06cb,687ed1b7e638a4cbf2f02089,689b87480fd5984874e9f6ef,,,,,,,,,,,,,,1,,,,,,,,,,,,,,,,,,,,,,,,,,,,,,,,,,,,,,,,,,,,,,,,,,,,,,,,,46,martillo,,,,,658.5282,659.6572,0,0,0.5907,,0,66,66,45,1,REAL,FAKE,,,,,,,,,,,,,,,,,
,,,,,,,,,610081ebf9f870b4213e06cb,Mexican,13 or older,"no, only English or Spanish",no,2025-08-12_14h26.54.866,empathy_intonation_perc,2024.2.4,Win32,59.88023952,610081ebf9f870b4213e06cb,687ed1b7e638a4cbf2f02089,689b87480fd5984874e9f6ef,,,,,,,,,,,,,,1,,,,,,,,,,,,,,,,,,,,,,,,,,,,,,,,,,,,,,,,,,,,,,,,,,,,,,,,,11,cenefa,,,,,659.6586,660.9003,0,0,0.7029,,0,67,67,10,1,REAL,FAKE,,,,,,,,,,,,,,,,,
,,,,,,,,,610081ebf9f870b4213e06cb,Mexican,13 or older,"no, only English or Spanish",no,2025-08-12_14h26.54.866,empathy_intonation_perc,2024.2.4,Win32,59.88023952,610081ebf9f870b4213e06cb,687ed1b7e638a4cbf2f02089,689b87480fd5984874e9f6ef,,,,,,,,,,,,,,0,,,,,,,,,,,,,,,,,,,,,,,,,,,,,,,,,,,,,,,,,,,,,,,,,,,,,,,,,8,cadeña,,,,,660.9021,662.2248,0,1,0.7893,,0,68,68,7,1,REAL,FAKE,,,,,,,,,,,,,,,,,
,,,,,,,,,610081ebf9f870b4213e06cb,Mexican,13 or older,"no, only English or Spanish",no,2025-08-12_14h26.54.866,empathy_intonation_perc,2024.2.4,Win32,59.88023952,610081ebf9f870b4213e06cb,687ed1b7e638a4cbf2f02089,689b87480fd5984874e9f6ef,,,,,,,,,,,,,,0,,,,,,,,,,,,,,,,,,,,,,,,,,,,,,,,,,,,,,,,,,,,,,,,,,,,,,,,,19,brecedad,,,,,662.2291,663.4679,0,1,0.7103,,0,69,69,18,1,REAL,FAKE,,,,,,,,,,,,,,,,,
,,,,,,,,,610081ebf9f870b4213e06cb,Mexican,13 or older,"no, only English or Spanish",no,2025-08-12_14h26.54.866,empathy_intonation_perc,2024.2.4,Win32,59.88023952,610081ebf9f870b4213e06cb,687ed1b7e638a4cbf2f02089,689b87480fd5984874e9f6ef,,,,,,,,,,,,,,0,,,,,,,,,,,,,,,,,,,,,,,,,,,,,,,,,,,,,,,,,,,,,,,,,,,,,,,,,35,rompido,,,,,663.4688,664.9539,0,1,0.9504,,0,70,70,34,1,REAL,FAKE,,,,,,,,,,,,,,,,,
,,,,,,,,,610081ebf9f870b4213e06cb,Mexican,13 or older,"no, only English or Spanish",no,2025-08-12_14h26.54.866,empathy_intonation_perc,2024.2.4,Win32,59.88023952,610081ebf9f870b4213e06cb,687ed1b7e638a4cbf2f02089,689b87480fd5984874e9f6ef,,,,,,,,,,,,,,1,,,,,,,,,,,,,,,,,,,,,,,,,,,,,,,,,,,,,,,,,,,,,,,,,,,,,,,,,60,matar,,,,,664.9547,665.9457,0,0,0.4561,,0,71,71,59,1,REAL,FAKE,,,,,,,,,,,,,,,,,
,,,,,,,,,610081ebf9f870b4213e06cb,Mexican,13 or older,"no, only English or Spanish",no,2025-08-12_14h26.54.866,empathy_intonation_perc,2024.2.4,Win32,59.88023952,610081ebf9f870b4213e06cb,687ed1b7e638a4cbf2f02089,689b87480fd5984874e9f6ef,,,,,,,,,,,,,,1,,,,,,,,,,,,,,,,,,,,,,,,,,,,,,,,,,,,,,,,,,,,,,,,,,,,,,,,,56,musgo,,,,,665.9498,667.0061,0,0,0.5336,,0,72,72,55,1,REAL,FAKE,,,,,,,,,,,,,,,,,
,,,,,,,,,610081ebf9f870b4213e06cb,Mexican,13 or older,"no, only English or Spanish",no,2025-08-12_14h26.54.866,empathy_intonation_perc,2024.2.4,Win32,59.88023952,610081ebf9f870b4213e06cb,687ed1b7e638a4cbf2f02089,689b87480fd5984874e9f6ef,,,,,,,,,,,,,,1,,,,,,,,,,,,,,,,,,,,,,,,,,,,,,,,,,,,,,,,,,,,,,,,,,,,,,,,,86,barato,,,,,667.0067,667.8733,0,0,0.3502,,0,73,73,85,1,REAL,FAKE,,,,,,,,,,,,,,,,,
,,,,,,,,,610081ebf9f870b4213e06cb,Mexican,13 or older,"no, only English or Spanish",no,2025-08-12_14h26.54.866,empathy_intonation_perc,2024.2.4,Win32,59.88023952,610081ebf9f870b4213e06cb,687ed1b7e638a4cbf2f02089,689b87480fd5984874e9f6ef,,,,,,,,,,,,,,1,,,,,,,,,,,,,,,,,,,,,,,,,,,,,,,,,,,,,,,,,,,,,,,,,,,,,,,,,54,fomentar,,,,,667.874,668.9095,0,0,0.4983,,0,74,74,53,1,REAL,FAKE,,,,,,,,,,,,,,,,,
,,,,,,,,,610081ebf9f870b4213e06cb,Mexican,13 or older,"no, only English or Spanish",no,2025-08-12_14h26.54.866,empathy_intonation_perc,2024.2.4,Win32,59.88023952,610081ebf9f870b4213e06cb,687ed1b7e638a4cbf2f02089,689b87480fd5984874e9f6ef,,,,,,,,,,,,,,1,,,,,,,,,,,,,,,,,,,,,,,,,,,,,,,,,,,,,,,,,,,,,,,,,,,,,,,,,15,regar,,,,,668.9107,670.6023,0,0,1.1538,,0,75,75,14,1,REAL,FAKE,,,,,,,,,,,,,,,,,
,,,,,,,,,610081ebf9f870b4213e06cb,Mexican,13 or older,"no, only English or Spanish",no,2025-08-12_14h26.54.866,empathy_intonation_perc,2024.2.4,Win32,59.88023952,610081ebf9f870b4213e06cb,687ed1b7e638a4cbf2f02089,689b87480fd5984874e9f6ef,,,,,,,,,,,,,,0,,,,,,,,,,,,,,,,,,,,,,,,,,,,,,,,,,,,,,,,,,,,,,,,,,,,,,,,,30,alardio,,,,,670.6063,672.0473,0,1,0.9188,,0,76,76,29,1,REAL,FAKE,,,,,,,,,,,,,,,,,
,,,,,,,,,610081ebf9f870b4213e06cb,Mexican,13 or older,"no, only English or Spanish",no,2025-08-12_14h26.54.866,empathy_intonation_perc,2024.2.4,Win32,59.88023952,610081ebf9f870b4213e06cb,687ed1b7e638a4cbf2f02089,689b87480fd5984874e9f6ef,,,,,,,,,,,,,,1,,,,,,,,,,,,,,,,,,,,,,,,,,,,,,,,,,,,,,,,,,,,,,,,,,,,,,,,,25,bisagra,,,,,672.048,673.3677,0,0,0.7858,,0,77,77,24,1,REAL,FAKE,,,,,,,,,,,,,,,,,
,,,,,,,,,610081ebf9f870b4213e06cb,Mexican,13 or older,"no, only English or Spanish",no,2025-08-12_14h26.54.866,empathy_intonation_perc,2024.2.4,Win32,59.88023952,610081ebf9f870b4213e06cb,687ed1b7e638a4cbf2f02089,689b87480fd5984874e9f6ef,,,,,,,,,,,,,,1,,,,,,,,,,,,,,,,,,,,,,,,,,,,,,,,,,,,,,,,,,,,,,,,,,,,,,,,,69,engatusar,,,,,673.3702,675.2251,0,0,1.3214,,0,78,78,68,1,REAL,FAKE,,,,,,,,,,,,,,,,,
,,,,,,,,,610081ebf9f870b4213e06cb,Mexican,13 or older,"no, only English or Spanish",no,2025-08-12_14h26.54.866,empathy_intonation_perc,2024.2.4,Win32,59.88023952,610081ebf9f870b4213e06cb,687ed1b7e638a4cbf2f02089,689b87480fd5984874e9f6ef,,,,,,,,,,,,,,0,,,,,,,,,,,,,,,,,,,,,,,,,,,,,,,,,,,,,,,,,,,,,,,,,,,,,,,,,27,acutación,,,,,675.2296,676.7605,1,0,0.9868,,0,79,79,26,1,REAL,FAKE,,,,,,,,,,,,,,,,,
,,,,,,,,,610081ebf9f870b4213e06cb,Mexican,13 or older,"no, only English or Spanish",no,2025-08-12_14h26.54.866,empathy_intonation_perc,2024.2.4,Win32,59.88023952,610081ebf9f870b4213e06cb,687ed1b7e638a4cbf2f02089,689b87480fd5984874e9f6ef,,,,,,,,,,,,,,0,,,,,,,,,,,,,,,,,,,,,,,,,,,,,,,,,,,,,,,,,,,,,,,,,,,,,,,,,47,cartinar,,,,,676.7643,679.2572,0,1,1.9536,,0,80,80,46,1,REAL,FAKE,,,,,,,,,,,,,,,,,
,,,,,,,,,610081ebf9f870b4213e06cb,Mexican,13 or older,"no, only English or Spanish",no,2025-08-12_14h26.54.866,empathy_intonation_perc,2024.2.4,Win32,59.88023952,610081ebf9f870b4213e06cb,687ed1b7e638a4cbf2f02089,689b87480fd5984874e9f6ef,,,,,,,,,,,,,,0,,,,,,,,,,,,,,,,,,,,,,,,,,,,,,,,,,,,,,,,,,,,,,,,,,,,,,,,,18,arsa,,,,,679.2583,680.4248,0,1,0.6344,,0,81,81,17,1,REAL,FAKE,,,,,,,,,,,,,,,,,
,,,,,,,,,610081ebf9f870b4213e06cb,Mexican,13 or older,"no, only English or Spanish",no,2025-08-12_14h26.54.866,empathy_intonation_perc,2024.2.4,Win32,59.88023952,610081ebf9f870b4213e06cb,687ed1b7e638a4cbf2f02089,689b87480fd5984874e9f6ef,,,,,,,,,,,,,,1,,,,,,,,,,,,,,,,,,,,,,,,,,,,,,,,,,,,,,,,,,,,,,,,,,,,,,,,,40,alfombra,,,,,680.426,681.6601,0,0,0.7017,,0,82,82,39,1,REAL,FAKE,,,,,,,,,,,,,,,,,
,,,,,,,,,610081ebf9f870b4213e06cb,Mexican,13 or older,"no, only English or Spanish",no,2025-08-12_14h26.54.866,empathy_intonation_perc,2024.2.4,Win32,59.88023952,610081ebf9f870b4213e06cb,687ed1b7e638a4cbf2f02089,689b87480fd5984874e9f6ef,,,,,,,,,,,,,,1,,,,,,,,,,,,,,,,,,,,,,,,,,,,,,,,,,,,,,,,,,,,,,,,,,,,,,,,,88,acantilado,,,,,681.6611,682.9017,0,0,0.7037,,0,83,83,87,1,REAL,FAKE,,,,,,,,,,,,,,,,,
,,,,,,,,,610081ebf9f870b4213e06cb,Mexican,13 or older,"no, only English or Spanish",no,2025-08-12_14h26.54.866,empathy_intonation_perc,2024.2.4,Win32,59.88023952,610081ebf9f870b4213e06cb,687ed1b7e638a4cbf2f02089,689b87480fd5984874e9f6ef,,,,,,,,,,,,,,0,,,,,,,,,,,,,,,,,,,,,,,,,,,,,,,,,,,,,,,,,,,,,,,,,,,,,,,,,23,lampera,,,,,682.9059,684.0962,0,1,0.6511,,0,84,84,22,1,REAL,FAKE,,,,,,,,,,,,,,,,,
,,,,,,,,,610081ebf9f870b4213e06cb,Mexican,13 or older,"no, only English or Spanish",no,2025-08-12_14h26.54.866,empathy_intonation_perc,2024.2.4,Win32,59.88023952,610081ebf9f870b4213e06cb,687ed1b7e638a4cbf2f02089,689b87480fd5984874e9f6ef,,,,,,,,,,,,,,0,,,,,,,,,,,,,,,,,,,,,,,,,,,,,,,,,,,,,,,,,,,,,,,,,,,,,,,,,79,tropaje,,,,,684.0969,685.327,0,1,0.6969,,0,85,85,78,1,REAL,FAKE,,,,,,,,,,,,,,,,,
,,,,,,,,,610081ebf9f870b4213e06cb,Mexican,13 or older,"no, only English or Spanish",no,2025-08-12_14h26.54.866,empathy_intonation_perc,2024.2.4,Win32,59.88023952,610081ebf9f870b4213e06cb,687ed1b7e638a4cbf2f02089,689b87480fd5984874e9f6ef,,,,,,,,,,,,,,0,,,,,,,,,,,,,,,,,,,,,,,,,,,,,,,,,,,,,,,,,,,,,,,,,,,,,,,,,70,temblo,,,,,685.3278,686.5496,0,1,0.6842,,0,86,86,69,1,REAL,FAKE,,,,,,,,,,,,,,,,,
,,,,,,,,,610081ebf9f870b4213e06cb,Mexican,13 or older,"no, only English or Spanish",no,2025-08-12_14h26.54.866,empathy_intonation_perc,2024.2.4,Win32,59.88023952,610081ebf9f870b4213e06cb,687ed1b7e638a4cbf2f02089,689b87480fd5984874e9f6ef,,,,,,,,,,,,,,1,,,,,,,,,,,,,,,,,,,,,,,,,,,,,,,,,,,,,,,,,,,,,,,,,,,,,,,,,85,laúd,,,,,686.5507,687.6918,0,0,0.6027,,0,87,87,84,1,REAL,FAKE,,,,,,,,,,,,,,,,,
,,,,,,,,,610081ebf9f870b4213e06cb,Mexican,13 or older,"no, only English or Spanish",no,2025-08-12_14h26.54.866,empathy_intonation_perc,2024.2.4,Win32,59.88023952,610081ebf9f870b4213e06cb,687ed1b7e638a4cbf2f02089,689b87480fd5984874e9f6ef,,,,,,,,,,,,,,0,,,,,,,,,,,,,,,,,,,,,,,,,,,,,,,,,,,,,,,,,,,,,,,,,,,,,,,,,4,batillón,,,,,687.6961,688.837,0,1,0.6022,,0,88,88,3,1,REAL,FAKE,,,,,,,,,,,,,,,,,
,,,,,,,,,610081ebf9f870b4213e06cb,Mexican,13 or older,"no, only English or Spanish",no,2025-08-12_14h26.54.866,empathy_intonation_perc,2024.2.4,Win32,59.88023952,610081ebf9f870b4213e06cb,687ed1b7e638a4cbf2f02089,689b87480fd5984874e9f6ef,,,,,,,,,,,,,,1,,,,,,,,,,,,,,,,,,,,,,,,,,,,,,,,,,,,,,,,,,,,,,,,,,,,,,,,,90,clavel,,,,,688.8383,690.0283,0,0,0.6522,,0,89,89,89,1,REAL,FAKE,,,,,,,,,,,,,,,,,
,,,,,,,,,610081ebf9f870b4213e06cb,Mexican,13 or older,"no, only English or Spanish",no,2025-08-12_14h26.54.866,empathy_intonation_perc,2024.2.4,Win32,59.88023952,610081ebf9f870b4213e06cb,687ed1b7e638a4cbf2f02089,689b87480fd5984874e9f6ef,,,,,,,,,,,,,,1,,,,,,,,,,,,,,,,,,,,,,,,,,,,,,,,,,,,,,,,,,,,,,,,,,,,,,,,,59,besar,,,,,690.032,691.2802,0,0,0.719,,0,90,90,58,1,REAL,FAKE,,,,,,,,,,,,,,,,,
,,,,,,,,,610081ebf9f870b4213e06cb,Mexican,13 or older,"no, only English or Spanish",no,2025-08-12_14h26.54.866,empathy_intonation_perc,2024.2.4,Win32,59.88023952,610081ebf9f870b4213e06cb,687ed1b7e638a4cbf2f02089,689b87480fd5984874e9f6ef,,,,,,,,,,,,,,1,,,,,,,,,,,,,,,,,,,,,,,,,,,,,,,,,,,,,,,,,,,,,,,,,,,,,,,,,14,yunque,,,,,691.2816,692.4318,0,0,0.6177,,0,91,91,13,1,REAL,FAKE,,,,,,,,,,,,,,,,,
,,,,,,,,,610081ebf9f870b4213e06cb,Mexican,13 or older,"no, only English or Spanish",no,2025-08-12_14h26.54.866,empathy_intonation_perc,2024.2.4,Win32,59.88023952,610081ebf9f870b4213e06cb,687ed1b7e638a4cbf2f02089,689b87480fd5984874e9f6ef,,,,,,,,,,,,,,,,,,,,,,,,,,,,,,,,,,,,,,,,,,,,,,,,,,,,,,,,,,,,,,,,,,,,,,,,,,,,,,,,,,,,,,,,,,692.4324,700.1254,,,,,,,,,,,,,,,
,,,,,,,,,610081ebf9f870b4213e06cb,Mexican,13 or older,"no, only English or Spanish",no,2025-08-12_14h26.54.866,empathy_intonation_perc,2024.2.4,Win32,59.88023952,610081ebf9f870b4213e06cb,687ed1b7e638a4cbf2f02089,689b87480fd5984874e9f6ef,,,,,,,,,,,,,1,,,,,,,,,,,,,,,,,,,,,,,,,,,,,,,,,,,,,,,,,,,,,,,,,,,,,,,,,,,,,,,,,,,,,,,,,,,,,,,700.1349,704.5314,strongly agree,0,0,0,0,1,I can easily tell if someone else wants to enter a conversation.,1,0,1,0,,
,,,,,,,,,610081ebf9f870b4213e06cb,Mexican,13 or older,"no, only English or Spanish",no,2025-08-12_14h26.54.866,empathy_intonation_perc,2024.2.4,Win32,59.88023952,610081ebf9f870b4213e06cb,687ed1b7e638a4cbf2f02089,689b87480fd5984874e9f6ef,,,,,,,,,,,,,2,,,,,,,,,,,,,,,,,,,,,,,,,,,,,,,,,,,,,,,,,,,,,,,,,,,,,,,,,,,,,,,,,,,,,,,,,,,,,,,704.5339,706.6678,strongly disagree,0,1,1,1,1,I prefer animals to humans.,0,1,0,0,,
,,,,,,,,,610081ebf9f870b4213e06cb,Mexican,13 or older,"no, only English or Spanish",no,2025-08-12_14h26.54.866,empathy_intonation_perc,2024.2.4,Win32,59.88023952,610081ebf9f870b4213e06cb,687ed1b7e638a4cbf2f02089,689b87480fd5984874e9f6ef,,,,,,,,,,,,,3,,,,,,,,,,,,,,,,,,,,,,,,,,,,,,,,,,,,,,,,,,,,,,,,,,,,,,,,,,,,,,,,,,,,,,,,,,,,,,,706.6728,710.1897,strongly agree,0,2,2,2,1,I try to keep up with the current trends and fashions.,0,1,0,0,,
,,,,,,,,,610081ebf9f870b4213e06cb,Mexican,13 or older,"no, only English or Spanish",no,2025-08-12_14h26.54.866,empathy_intonation_perc,2024.2.4,Win32,59.88023952,610081ebf9f870b4213e06cb,687ed1b7e638a4cbf2f02089,689b87480fd5984874e9f6ef,,,,,,,,,,,,,4,,,,,,,,,,,,,,,,,,,,,,,,,,,,,,,,,,,,,,,,,,,,,,,,,,,,,,,,,,,,,,,,,,,,,,,,,,,,,,,710.1965,714.0105,slightly disagree,0,3,3,3,1,"I find it difficult to explain to others things that I understand easily,   when they don't understand it first time.",1,0,0,1,,
,,,,,,,,,610081ebf9f870b4213e06cb,Mexican,13 or older,"no, only English or Spanish",no,2025-08-12_14h26.54.866,empathy_intonation_perc,2024.2.4,Win32,59.88023952,610081ebf9f870b4213e06cb,687ed1b7e638a4cbf2f02089,689b87480fd5984874e9f6ef,,,,,,,,,,,,,5,,,,,,,,,,,,,,,,,,,,,,,,,,,,,,,,,,,,,,,,,,,,,,,,,,,,,,,,,,,,,,,,,,,,,,,,,,,,,,,714.0114,716.1642,slightly disagree,0,4,4,4,1,I dream most nights.,0,1,0,0,,
,,,,,,,,,610081ebf9f870b4213e06cb,Mexican,13 or older,"no, only English or Spanish",no,2025-08-12_14h26.54.866,empathy_intonation_perc,2024.2.4,Win32,59.88023952,610081ebf9f870b4213e06cb,687ed1b7e638a4cbf2f02089,689b87480fd5984874e9f6ef,,,,,,,,,,,,,6,,,,,,,,,,,,,,,,,,,,,,,,,,,,,,,,,,,,,,,,,,,,,,,,,,,,,,,,,,,,,,,,,,,,,,,,,,,,,,,716.1669,718.4832,slightly agree,0,5,5,5,1,I really enjoy caring for other people.,1,0,1,0,,
,,,,,,,,,610081ebf9f870b4213e06cb,Mexican,13 or older,"no, only English or Spanish",no,2025-08-12_14h26.54.866,empathy_intonation_perc,2024.2.4,Win32,59.88023952,610081ebf9f870b4213e06cb,687ed1b7e638a4cbf2f02089,689b87480fd5984874e9f6ef,,,,,,,,,,,,,7,,,,,,,,,,,,,,,,,,,,,,,,,,,,,,,,,,,,,,,,,,,,,,,,,,,,,,,,,,,,,,,,,,,,,,,,,,,,,,,718.4857,721.0373,strongly agree,0,6,6,6,1,I try to solve my own problems rather than discussing them with others.,0,1,0,0,,
,,,,,,,,,610081ebf9f870b4213e06cb,Mexican,13 or older,"no, only English or Spanish",no,2025-08-12_14h26.54.866,empathy_intonation_perc,2024.2.4,Win32,59.88023952,610081ebf9f870b4213e06cb,687ed1b7e638a4cbf2f02089,689b87480fd5984874e9f6ef,,,,,,,,,,,,,8,,,,,,,,,,,,,,,,,,,,,,,,,,,,,,,,,,,,,,,,,,,,,,,,,,,,,,,,,,,,,,,,,,,,,,,,,,,,,,,721.0402,723.583,strongly disagree,0,7,7,7,1,I find it hard to know what to do in a social situation.,1,0,0,1,,
,,,,,,,,,610081ebf9f870b4213e06cb,Mexican,13 or older,"no, only English or Spanish",no,2025-08-12_14h26.54.866,empathy_intonation_perc,2024.2.4,Win32,59.88023952,610081ebf9f870b4213e06cb,687ed1b7e638a4cbf2f02089,689b87480fd5984874e9f6ef,,,,,,,,,,,,,9,,,,,,,,,,,,,,,,,,,,,,,,,,,,,,,,,,,,,,,,,,,,,,,,,,,,,,,,,,,,,,,,,,,,,,,,,,,,,,,723.5841,726.7068,strongly agree,0,8,8,8,1,I am at my best first thing in the morning.,0,1,0,0,,
,,,,,,,,,610081ebf9f870b4213e06cb,Mexican,13 or older,"no, only English or Spanish",no,2025-08-12_14h26.54.866,empathy_intonation_perc,2024.2.4,Win32,59.88023952,610081ebf9f870b4213e06cb,687ed1b7e638a4cbf2f02089,689b87480fd5984874e9f6ef,,,,,,,,,,,,,10,,,,,,,,,,,,,,,,,,,,,,,,,,,,,,,,,,,,,,,,,,,,,,,,,,,,,,,,,,,,,,,,,,,,,,,,,,,,,,,726.7106,731.2277,strongly disagree,0,9,9,9,1,People often tell me that I went too far in driving my point home in a discussion.,1,0,0,1,,
