instructions_exposure.started,instructions_exposure.stopped,instructions_exposure_loop.thisRepN,instructions_exposure_loop.thisTrialN,instructions_exposure_loop.thisN,instructions_exposure_loop.thisIndex,instructions_exposure_loop.ran,instructions_text,continue_text,participant_id,"What variety of Spanish are you most familiar with? (e.g., Peruvian, Spanish, Mexican)",At what age did you begin learning Spanish?,Are you proficient in any languages other than English/Spanish?,"Are you familiar with Caribbean (e.g., Caribbean, Puerto Rican) or Galician Spanish?",date,expName,psychopyVersion,OS,frameRate,id,study_id,session,trial_exposure.started,trial_exposure.stopped,key_resp_exposure.keys,key_resp_exposure.corr,key_resp_exposure.rt,key_resp_exposure.duration,key_resp.keys,exposure_loop.thisRepN,exposure_loop.thisTrialN,exposure_loop.thisN,exposure_loop.thisIndex,exposure_loop.ran,item_num,correct_response,question,path,duration,instructions_2afc.started,instructions_2afc.stopped,instructions_2afc_loop.thisRepN,instructions_2afc_loop.thisTrialN,instructions_2afc_loop.thisN,instructions_2afc_loop.thisIndex,instructions_2afc_loop.ran,practice_2afc.started,practice_2afc.stopped,key_resp_2afc_practice.keys,key_resp_2afc_practice.corr,key_resp_2afc_practice.rt,key_resp_2afc_practice.duration,trials_2afc_practice_loop.thisRepN,trials_2afc_practice_loop.thisTrialN,trials_2afc_practice_loop.thisN,trials_2afc_practice_loop.thisIndex,trials_2afc_practice_loop.ran,check_2afc.started,check_2afc.stopped,trial_2afc.started,trial_2afc.stopped,key_resp_2afc_trial.keys,key_resp_2afc_trial.corr,key_resp_2afc_trial.rt,key_resp_2afc_trial.duration,trials_2afc_loop.thisRepN,trials_2afc_loop.thisTrialN,trials_2afc_loop.thisN,trials_2afc_loop.thisIndex,trials_2afc_loop.ran,target,variety,instructions_lextale.started,instructions_lextale.stopped,instructions_lextale_loop.thisRepN,instructions_lextale_loop.thisTrialN,instructions_lextale_loop.thisN,instructions_lextale_loop.thisIndex,instructions_lextale_loop.ran,practice_lextale.started,practice_lextale.stopped,key_resp_lextale_practice.keys,key_resp_lextale_practice.corr,key_resp_lextale_practice.rt,key_resp_lextale_practice.duration,practice_feedback_lextale.started,practice_feedback_lextale.stopped,trials_lextale_practice_loop.thisRepN,trials_lextale_practice_loop.thisTrialN,trials_lextale_practice_loop.thisN,trials_lextale_practice_loop.thisIndex,trials_lextale_practice_loop.ran,stim,word,prac_button_real,prac_button_false,check_lextale.started,check_lextale.stopped,trial_lextale.started,trial_lextale.stopped,key_resp_lextale_trial.keys,key_resp_lextale_trial.corr,key_resp_lextale_trial.rt,key_resp_lextale_trial.duration,trials_lextale_loop.thisRepN,trials_lextale_loop.thisTrialN,trials_lextale_loop.thisN,trials_lextale_loop.thisIndex,trials_lextale_loop.ran,button_real,button_false,instructions_eq.started,instructions_eq.stopped,trial_eq.started,trial_eq.stopped,slider_eq_trial.response,trials_eq_loop.thisRepN,trials_eq_loop.thisTrialN,trials_eq_loop.thisN,trials_eq_loop.thisIndex,trials_eq_loop.ran,item,is_test_item,is_distractor,is_agree_score,is_disagree_score,end_exp.started,end_exp.stopped
0.03,2.5488,0,0,0,0,1,"In the following task, you are going to hear a series of conversations.", (press the space bar to continue),61075af85969d97b256603cc,Spanish,13 or older,"no, only English or Spanish",no,2025-07-23_00h45.01.998,empathy_intonation_perc,2024.2.4,MacIntel,64.1025641,61075af85969d97b256603cc,687ed1b7e638a4cbf2f02089,688068a1beb8f1fd6b81b00c,,,,,,,,,,,,,,,,,,,,,,,,,,,,,,,,,,,,,,,,,,,,,,,,,,,,,,,,,,,,,,,,,,,,,,,,,,,,,,,,,,,,,,,,,,,,,,,,,,,,,,,,,,
2.5497,5.9648,0,1,1,1,1,It is okay if you don't not 100% understand them!, (press the space bar to continue),61075af85969d97b256603cc,Spanish,13 or older,"no, only English or Spanish",no,2025-07-23_00h45.01.998,empathy_intonation_perc,2024.2.4,MacIntel,64.1025641,61075af85969d97b256603cc,687ed1b7e638a4cbf2f02089,688068a1beb8f1fd6b81b00c,,,,,,,,,,,,,,,,,,,,,,,,,,,,,,,,,,,,,,,,,,,,,,,,,,,,,,,,,,,,,,,,,,,,,,,,,,,,,,,,,,,,,,,,,,,,,,,,,,,,,,,,,,
5.9665,8.2152,0,2,2,2,1,"After, you will read a sentence about the conversation and decide if it's true or false.", (press the space bar to continue),61075af85969d97b256603cc,Spanish,13 or older,"no, only English or Spanish",no,2025-07-23_00h45.01.998,empathy_intonation_perc,2024.2.4,MacIntel,64.1025641,61075af85969d97b256603cc,687ed1b7e638a4cbf2f02089,688068a1beb8f1fd6b81b00c,,,,,,,,,,,,,,,,,,,,,,,,,,,,,,,,,,,,,,,,,,,,,,,,,,,,,,,,,,,,,,,,,,,,,,,,,,,,,,,,,,,,,,,,,,,,,,,,,,,,,,,,,,
8.2168,12.5251,0,3,3,3,1,"If it's true, press '1' (True) and if it's false press '0' (False).", (press the space bar to continue),61075af85969d97b256603cc,Spanish,13 or older,"no, only English or Spanish",no,2025-07-23_00h45.01.998,empathy_intonation_perc,2024.2.4,MacIntel,64.1025641,61075af85969d97b256603cc,687ed1b7e638a4cbf2f02089,688068a1beb8f1fd6b81b00c,,,,,,,,,,,,,,,,,,,,,,,,,,,,,,,,,,,,,,,,,,,,,,,,,,,,,,,,,,,,,,,,,,,,,,,,,,,,,,,,,,,,,,,,,,,,,,,,,,,,,,,,,,
,,,,,,,,,61075af85969d97b256603cc,Spanish,13 or older,"no, only English or Spanish",no,2025-07-23_00h45.01.998,empathy_intonation_perc,2024.2.4,MacIntel,64.1025641,61075af85969d97b256603cc,687ed1b7e638a4cbf2f02089,688068a1beb8f1fd6b81b00c,12.5368,68.6038,0,0,8.9841,,,0,0,0,0,1,1,1,The son asked the mom if Aunt Marina is okay.,./stim/exposure_wavs/ga_stimuli_convo.wav,47,,,,,,,,,,,,,,,,,,,,,,,,,,,,,,,,,,,,,,,,,,,,,,,,,,,,,,,,,,,,,,,,,,,,,,,,,,,,,,,,,,,,,,,,,
,,,,,,,,,61075af85969d97b256603cc,Spanish,13 or older,"no, only English or Spanish",no,2025-07-23_00h45.01.998,empathy_intonation_perc,2024.2.4,MacIntel,64.1025641,61075af85969d97b256603cc,687ed1b7e638a4cbf2f02089,688068a1beb8f1fd6b81b00c,68.6062,136.6218,1,1,7.9687,,,0,1,1,1,1,2,1,The mom asked the daughter if she already went to the supermarket.,./stim/exposure_wavs/dr_stimuli_convo.wav,60,,,,,,,,,,,,,,,,,,,,,,,,,,,,,,,,,,,,,,,,,,,,,,,,,,,,,,,,,,,,,,,,,,,,,,,,,,,,,,,,,,,,,,,,,
,,,,,,,,,61075af85969d97b256603cc,Spanish,13 or older,"no, only English or Spanish",no,2025-07-23_00h45.01.998,empathy_intonation_perc,2024.2.4,MacIntel,64.1025641,61075af85969d97b256603cc,687ed1b7e638a4cbf2f02089,688068a1beb8f1fd6b81b00c,136.6238,179.5692,0,1,6.8999,,,0,2,2,2,1,3,0,The mom already has rice.,./stim/exposure_wavs/pr_stimuli_convo.wav,36,,,,,,,,,,,,,,,,,,,,,,,,,,,,,,,,,,,,,,,,,,,,,,,,,,,,,,,,,,,,,,,,,,,,,,,,,,,,,,,,,,,,,,,,,
,,,,,,,"In the following task you are going to hear a series of utterances. 

  You will decide if the utterances sound like questions or not using your keyboard.", (press the spacebar to continue),61075af85969d97b256603cc,Spanish,13 or older,"no, only English or Spanish",no,2025-07-23_00h45.01.998,empathy_intonation_perc,2024.2.4,MacIntel,64.1025641,61075af85969d97b256603cc,687ed1b7e638a4cbf2f02089,688068a1beb8f1fd6b81b00c,,,,,,,,,,,,,,,,,,179.577,189.9765,0,0,0,0,1,,,,,,,,,,,,,,,,,,,,,,,,,,,,,,,,,,,,,,,,,,,,,,,,,,,,,,,,,,,,,,,,,,,,,,,,,,,,,,,,,,
,,,,,,,"If you believe the utterance is a question, type '1' (for 'yes') and if you do not 
  believe it is a question type '0' (for 'no').

  Let's practice a bit...", (press the spacebar to continue),61075af85969d97b256603cc,Spanish,13 or older,"no, only English or Spanish",no,2025-07-23_00h45.01.998,empathy_intonation_perc,2024.2.4,MacIntel,64.1025641,61075af85969d97b256603cc,687ed1b7e638a4cbf2f02089,688068a1beb8f1fd6b81b00c,,,,,,,,,,,,,,,,,,189.9785,195.2723,0,1,1,1,1,,,,,,,,,,,,,,,,,,,,,,,,,,,,,,,,,,,,,,,,,,,,,,,,,,,,,,,,,,,,,,,,,,,,,,,,,,,,,,,,,,
,,,,,,,,,61075af85969d97b256603cc,Spanish,13 or older,"no, only English or Spanish",no,2025-07-23_00h45.01.998,empathy_intonation_perc,2024.2.4,MacIntel,64.1025641,61075af85969d97b256603cc,687ed1b7e638a4cbf2f02089,688068a1beb8f1fd6b81b00c,,,,,,,,,,,,,,1,,./stim/wavs/chilean_question_filler_Mi-padre-cantaba-bien.wav,,,,,,,,,195.2826,200.7388,0,0,4.918,,0,0,0,2,1,,,,,,,,,,,,,,,,,,,,,,,,,,,,,,,,,,,,,,,,,,,,,,,,,,,,,,,,,,,,,,,,,,,,,,,
,,,,,,,,,61075af85969d97b256603cc,Spanish,13 or older,"no, only English or Spanish",no,2025-07-23_00h45.01.998,empathy_intonation_perc,2024.2.4,MacIntel,64.1025641,61075af85969d97b256603cc,687ed1b7e638a4cbf2f02089,688068a1beb8f1fd6b81b00c,,,,,,,,,,,,,,0,,./stim/wavs/peruvian_statement_filler_El-nino-habla-con-su-madre.wav,,,,,,,,,200.7396,204.3496,0,1,3.0769,,0,1,1,6,1,,,,,,,,,,,,,,,,,,,,,,,,,,,,,,,,,,,,,,,,,,,,,,,,,,,,,,,,,,,,,,,,,,,,,,,
,,,,,,,,,61075af85969d97b256603cc,Spanish,13 or older,"no, only English or Spanish",no,2025-07-23_00h45.01.998,empathy_intonation_perc,2024.2.4,MacIntel,64.1025641,61075af85969d97b256603cc,687ed1b7e638a4cbf2f02089,688068a1beb8f1fd6b81b00c,,,,,,,,,,,,,,0,,./stim/wavs/puertorican_statement_filler_La-nina-pinta-con-su-amiga.wav,,,,,,,,,204.3505,207.4158,0,1,2.5461,,0,2,2,7,1,,,,,,,,,,,,,,,,,,,,,,,,,,,,,,,,,,,,,,,,,,,,,,,,,,,,,,,,,,,,,,,,,,,,,,,
,,,,,,,,,61075af85969d97b256603cc,Spanish,13 or older,"no, only English or Spanish",no,2025-07-23_00h45.01.998,empathy_intonation_perc,2024.2.4,MacIntel,64.1025641,61075af85969d97b256603cc,687ed1b7e638a4cbf2f02089,688068a1beb8f1fd6b81b00c,,,,,,,,,,,,,,0,,./stim/wavs/andalusian_statement_filler_Alberto-nunca-se-afeita.wav,,,,,,,,,207.4166,210.4639,0,1,2.5138,,0,3,3,5,1,,,,,,,,,,,,,,,,,,,,,,,,,,,,,,,,,,,,,,,,,,,,,,,,,,,,,,,,,,,,,,,,,,,,,,,
,,,,,,,,,61075af85969d97b256603cc,Spanish,13 or older,"no, only English or Spanish",no,2025-07-23_00h45.01.998,empathy_intonation_perc,2024.2.4,MacIntel,64.1025641,61075af85969d97b256603cc,687ed1b7e638a4cbf2f02089,688068a1beb8f1fd6b81b00c,,,,,,,,,,,,,,1,,./stim/wavs/mexican_question_filler_Felipe-no-tiene-contrasena.wav,,,,,,,,,210.4645,213.1173,1,1,2.1191,,0,4,4,3,1,,,,,,,,,,,,,,,,,,,,,,,,,,,,,,,,,,,,,,,,,,,,,,,,,,,,,,,,,,,,,,,,,,,,,,,
,,,,,,,,,61075af85969d97b256603cc,Spanish,13 or older,"no, only English or Spanish",no,2025-07-23_00h45.01.998,empathy_intonation_perc,2024.2.4,MacIntel,64.1025641,61075af85969d97b256603cc,687ed1b7e638a4cbf2f02089,688068a1beb8f1fd6b81b00c,,,,,,,,,,,,,,1,,./stim/wavs/castilian_question_filler_Mi-esposo-conoce-al-chico.wav,,,,,,,,,213.1182,215.8678,1,1,2.2317,,0,5,5,0,1,,,,,,,,,,,,,,,,,,,,,,,,,,,,,,,,,,,,,,,,,,,,,,,,,,,,,,,,,,,,,,,,,,,,,,,
,,,,,,,,,61075af85969d97b256603cc,Spanish,13 or older,"no, only English or Spanish",no,2025-07-23_00h45.01.998,empathy_intonation_perc,2024.2.4,MacIntel,64.1025641,61075af85969d97b256603cc,687ed1b7e638a4cbf2f02089,688068a1beb8f1fd6b81b00c,,,,,,,,,,,,,,0,,./stim/wavs/cuban_statement_filler_Cocinabas-por-la-noche.wav,,,,,,,,,215.8683,219.1506,0,1,2.7658,,0,6,6,4,1,,,,,,,,,,,,,,,,,,,,,,,,,,,,,,,,,,,,,,,,,,,,,,,,,,,,,,,,,,,,,,,,,,,,,,,
,,,,,,,,,61075af85969d97b256603cc,Spanish,13 or older,"no, only English or Spanish",no,2025-07-23_00h45.01.998,empathy_intonation_perc,2024.2.4,MacIntel,64.1025641,61075af85969d97b256603cc,687ed1b7e638a4cbf2f02089,688068a1beb8f1fd6b81b00c,,,,,,,,,,,,,,1,,./stim/wavs/argentine_question_filler_Mi-vecino-habla-mucho.wav,,,,,,,,,219.1514,221.5368,1,1,1.8608,,0,7,7,1,1,,,,,,,,,,,,,,,,,,,,,,,,,,,,,,,,,,,,,,,,,,,,,,,,,,,,,,,,,,,,,,,,,,,,,,,
,,,,,,,,,61075af85969d97b256603cc,Spanish,13 or older,"no, only English or Spanish",no,2025-07-23_00h45.01.998,empathy_intonation_perc,2024.2.4,MacIntel,64.1025641,61075af85969d97b256603cc,687ed1b7e638a4cbf2f02089,688068a1beb8f1fd6b81b00c,,,,,,,,,,,,,,,,,,,,,,,,,,,,,,,,,,,,221.5373,227.3874,,,,,,,,,,,,,,,,,,,,,,,,,,,,,,,,,,,,,,,,,,,,,,,,,,,,,,,,,,,,,,,,,,,,,
,,,,,,,,,61075af85969d97b256603cc,Spanish,13 or older,"no, only English or Spanish",no,2025-07-23_00h45.01.998,empathy_intonation_perc,2024.2.4,MacIntel,64.1025641,61075af85969d97b256603cc,687ed1b7e638a4cbf2f02089,688068a1beb8f1fd6b81b00c,,,,,,,,,,,,,15,1,,./stim/wavs/mexican_match_interrogative-total-yn_David-leia-el-libro.wav,,,,,,,,,,,,,,,,,,,,,,227.3996,229.6153,1,1,1.6915,,0,0,0,14,1,0,mexican,,,,,,,,,,,,,,,,,,,,,,,,,,,,,,,,,,,,,,,,,,,,,,,,,,,,,,,,
,,,,,,,,,61075af85969d97b256603cc,Spanish,13 or older,"no, only English or Spanish",no,2025-07-23_00h45.01.998,empathy_intonation_perc,2024.2.4,MacIntel,64.1025641,61075af85969d97b256603cc,687ed1b7e638a4cbf2f02089,688068a1beb8f1fd6b81b00c,,,,,,,,,,,,,26,1,,./stim/wavs/castilian_mismatch_interrogative-total-yn_La-nina-lava-el-plato.wav,,,,,,,,,,,,,,,,,,,,,,229.6161,232.0139,1,1,1.8571,,0,1,1,25,1,0,castilian,,,,,,,,,,,,,,,,,,,,,,,,,,,,,,,,,,,,,,,,,,,,,,,,,,,,,,,,
,,,,,,,,,61075af85969d97b256603cc,Spanish,13 or older,"no, only English or Spanish",no,2025-07-23_00h45.01.998,empathy_intonation_perc,2024.2.4,MacIntel,64.1025641,61075af85969d97b256603cc,687ed1b7e638a4cbf2f02089,688068a1beb8f1fd6b81b00c,,,,,,,,,,,,,62,0,,./stim/wavs/mexican_match_declarative-broad-focus_Marta-abre-el-regalo.wav,,,,,,,,,,,,,,,,,,,,,,232.0146,234.3879,0,1,1.8432,,0,2,2,61,1,0,mexican,,,,,,,,,,,,,,,,,,,,,,,,,,,,,,,,,,,,,,,,,,,,,,,,,,,,,,,,
,,,,,,,,,61075af85969d97b256603cc,Spanish,13 or older,"no, only English or Spanish",no,2025-07-23_00h45.01.998,empathy_intonation_perc,2024.2.4,MacIntel,64.1025641,61075af85969d97b256603cc,687ed1b7e638a4cbf2f02089,688068a1beb8f1fd6b81b00c,,,,,,,,,,,,,13,1,,./stim/wavs/mexican_match_interrogative-total-yn_Ana-lleva-el-abrigo.wav,,,,,,,,,,,,,,,,,,,,,,234.3886,236.6815,1,1,1.7588,,0,3,3,12,1,0,mexican,,,,,,,,,,,,,,,,,,,,,,,,,,,,,,,,,,,,,,,,,,,,,,,,,,,,,,,,
,,,,,,,,,61075af85969d97b256603cc,Spanish,13 or older,"no, only English or Spanish",no,2025-07-23_00h45.01.998,empathy_intonation_perc,2024.2.4,MacIntel,64.1025641,61075af85969d97b256603cc,687ed1b7e638a4cbf2f02089,688068a1beb8f1fd6b81b00c,,,,,,,,,,,,,17,1,,./stim/wavs/mexican_match_interrogative-total-yn_Mariano-habla-del-tiempo.wav,,,,,,,,,,,,,,,,,,,,,,236.682,239.0957,1,1,1.8828,,0,4,4,16,1,0,mexican,,,,,,,,,,,,,,,,,,,,,,,,,,,,,,,,,,,,,,,,,,,,,,,,,,,,,,,,
,,,,,,,,,61075af85969d97b256603cc,Spanish,13 or older,"no, only English or Spanish",no,2025-07-23_00h45.01.998,empathy_intonation_perc,2024.2.4,MacIntel,64.1025641,61075af85969d97b256603cc,687ed1b7e638a4cbf2f02089,688068a1beb8f1fd6b81b00c,,,,,,,,,,,,,37,1,,./stim/wavs/mexican_mismatch_interrogative-total-yn_La-maestra-vive-en-Paris.wav,,,,,,,,,,,,,,,,,,,,,,239.0963,241.6098,1,1,1.9923,,0,5,5,36,1,0,mexican,,,,,,,,,,,,,,,,,,,,,,,,,,,,,,,,,,,,,,,,,,,,,,,,,,,,,,,,
,,,,,,,,,61075af85969d97b256603cc,Spanish,13 or older,"no, only English or Spanish",no,2025-07-23_00h45.01.998,empathy_intonation_perc,2024.2.4,MacIntel,64.1025641,61075af85969d97b256603cc,687ed1b7e638a4cbf2f02089,688068a1beb8f1fd6b81b00c,,,,,,,,,,,,,86,0,,./stim/wavs/puertorican_mismatch_declarative-broad-focus_El-nino-oye-el-rio.wav,,,,,,,,,,,,,,,,,,,,,,241.6105,243.9587,0,1,1.8233,,0,6,6,85,1,0,puertorican,,,,,,,,,,,,,,,,,,,,,,,,,,,,,,,,,,,,,,,,,,,,,,,,,,,,,,,,
,,,,,,,,,61075af85969d97b256603cc,Spanish,13 or older,"no, only English or Spanish",no,2025-07-23_00h45.01.998,empathy_intonation_perc,2024.2.4,MacIntel,64.1025641,61075af85969d97b256603cc,687ed1b7e638a4cbf2f02089,688068a1beb8f1fd6b81b00c,,,,,,,,,,,,,75,0,,./stim/wavs/cuban_mismatch_declarative-broad-focus_El-hombre-mira-la-luna.wav,,,,,,,,,,,,,,,,,,,,,,243.9596,246.0594,0,1,1.5567,,0,7,7,74,1,0,cuban,,,,,,,,,,,,,,,,,,,,,,,,,,,,,,,,,,,,,,,,,,,,,,,,,,,,,,,,
,,,,,,,,,61075af85969d97b256603cc,Spanish,13 or older,"no, only English or Spanish",no,2025-07-23_00h45.01.998,empathy_intonation_perc,2024.2.4,MacIntel,64.1025641,61075af85969d97b256603cc,687ed1b7e638a4cbf2f02089,688068a1beb8f1fd6b81b00c,,,,,,,,,,,,,80,0,,./stim/wavs/mexican_mismatch_declarative-broad-focus_El-hombre-mira-la-luna.wav,,,,,,,,,,,,,,,,,,,,,,246.06,248.2455,0,1,1.6517,,0,8,8,79,1,0,mexican,,,,,,,,,,,,,,,,,,,,,,,,,,,,,,,,,,,,,,,,,,,,,,,,,,,,,,,,
,,,,,,,,,61075af85969d97b256603cc,Spanish,13 or older,"no, only English or Spanish",no,2025-07-23_00h45.01.998,empathy_intonation_perc,2024.2.4,MacIntel,64.1025641,61075af85969d97b256603cc,687ed1b7e638a4cbf2f02089,688068a1beb8f1fd6b81b00c,,,,,,,,,,,,,70,0,,./stim/wavs/castilian_mismatch_declarative-broad-focus_La-maestra-vive-en-Paris.wav,,,,,,,,,,,,,,,,,,,,,,248.2464,250.8447,0,1,2.0875,,0,9,9,69,1,0,castilian,,,,,,,,,,,,,,,,,,,,,,,,,,,,,,,,,,,,,,,,,,,,,,,,,,,,,,,,
,,,,,,,,,61075af85969d97b256603cc,Spanish,13 or older,"no, only English or Spanish",no,2025-07-23_00h45.01.998,empathy_intonation_perc,2024.2.4,MacIntel,64.1025641,61075af85969d97b256603cc,687ed1b7e638a4cbf2f02089,688068a1beb8f1fd6b81b00c,,,,,,,,,,,,,49,0,,./stim/wavs/castilian_match_declarative-broad-focus_Mariano-habla-del-tiempo.wav,,,,,,,,,,,,,,,,,,,,,,250.8454,253.3325,0,1,1.948,,0,10,10,48,1,0,castilian,,,,,,,,,,,,,,,,,,,,,,,,,,,,,,,,,,,,,,,,,,,,,,,,,,,,,,,,
,,,,,,,,,61075af85969d97b256603cc,Spanish,13 or older,"no, only English or Spanish",no,2025-07-23_00h45.01.998,empathy_intonation_perc,2024.2.4,MacIntel,64.1025641,61075af85969d97b256603cc,687ed1b7e638a4cbf2f02089,688068a1beb8f1fd6b81b00c,,,,,,,,,,,,,16,1,,./stim/wavs/mexican_match_interrogative-total-yn_Emilio-ama-la-marcha.wav,,,,,,,,,,,,,,,,,,,,,,253.3333,255.5853,1,1,1.7262,,0,11,11,15,1,0,mexican,,,,,,,,,,,,,,,,,,,,,,,,,,,,,,,,,,,,,,,,,,,,,,,,,,,,,,,,
,,,,,,,,,61075af85969d97b256603cc,Spanish,13 or older,"no, only English or Spanish",no,2025-07-23_00h45.01.998,empathy_intonation_perc,2024.2.4,MacIntel,64.1025641,61075af85969d97b256603cc,687ed1b7e638a4cbf2f02089,688068a1beb8f1fd6b81b00c,,,,,,,,,,,,,60,0,,./stim/wavs/mexican_match_declarative-broad-focus_Emilio-ama-la-marcha.wav,,,,,,,,,,,,,,,,,,,,,,255.5861,257.8621,1,0,1.7357,,0,12,12,59,1,0,mexican,,,,,,,,,,,,,,,,,,,,,,,,,,,,,,,,,,,,,,,,,,,,,,,,,,,,,,,,
,,,,,,,,,61075af85969d97b256603cc,Spanish,13 or older,"no, only English or Spanish",no,2025-07-23_00h45.01.998,empathy_intonation_perc,2024.2.4,MacIntel,64.1025641,61075af85969d97b256603cc,687ed1b7e638a4cbf2f02089,688068a1beb8f1fd6b81b00c,,,,,,,,,,,,,11,1,,./stim/wavs/cuban_match_interrogative-total-yn_Mariano-habla-del-tiempo.wav,,,,,,,,,,,,,,,,,,,,,,257.8628,260.3269,0,0,1.9519,,0,13,13,10,1,1,cuban,,,,,,,,,,,,,,,,,,,,,,,,,,,,,,,,,,,,,,,,,,,,,,,,,,,,,,,,
,,,,,,,,,61075af85969d97b256603cc,Spanish,13 or older,"no, only English or Spanish",no,2025-07-23_00h45.01.998,empathy_intonation_perc,2024.2.4,MacIntel,64.1025641,61075af85969d97b256603cc,687ed1b7e638a4cbf2f02089,688068a1beb8f1fd6b81b00c,,,,,,,,,,,,,81,0,,./stim/wavs/mexican_mismatch_declarative-broad-focus_La-maestra-vive-en-Paris.wav,,,,,,,,,,,,,,,,,,,,,,260.3274,262.9263,0,1,2.0643,,0,14,14,80,1,0,mexican,,,,,,,,,,,,,,,,,,,,,,,,,,,,,,,,,,,,,,,,,,,,,,,,,,,,,,,,
,,,,,,,,,61075af85969d97b256603cc,Spanish,13 or older,"no, only English or Spanish",no,2025-07-23_00h45.01.998,empathy_intonation_perc,2024.2.4,MacIntel,64.1025641,61075af85969d97b256603cc,687ed1b7e638a4cbf2f02089,688068a1beb8f1fd6b81b00c,,,,,,,,,,,,,68,0,,./stim/wavs/puertorican_match_declarative-broad-focus_Maria-bebe-el-vino.wav,,,,,,,,,,,,,,,,,,,,,,262.9272,265.4468,1,0,1.9818,,0,15,15,67,1,0,puertorican,,,,,,,,,,,,,,,,,,,,,,,,,,,,,,,,,,,,,,,,,,,,,,,,,,,,,,,,
,,,,,,,,,61075af85969d97b256603cc,Spanish,13 or older,"no, only English or Spanish",no,2025-07-23_00h45.01.998,empathy_intonation_perc,2024.2.4,MacIntel,64.1025641,61075af85969d97b256603cc,687ed1b7e638a4cbf2f02089,688068a1beb8f1fd6b81b00c,,,,,,,,,,,,,57,0,,./stim/wavs/mexican_match_declarative-broad-focus_Ana-lleva-el-abrigo.wav,,,,,,,,,,,,,,,,,,,,,,265.4475,267.5424,0,1,1.5737,,0,16,16,56,1,0,mexican,,,,,,,,,,,,,,,,,,,,,,,,,,,,,,,,,,,,,,,,,,,,,,,,,,,,,,,,
,,,,,,,,,61075af85969d97b256603cc,Spanish,13 or older,"no, only English or Spanish",no,2025-07-23_00h45.01.998,empathy_intonation_perc,2024.2.4,MacIntel,64.1025641,61075af85969d97b256603cc,687ed1b7e638a4cbf2f02089,688068a1beb8f1fd6b81b00c,,,,,,,,,,,,,41,1,,./stim/wavs/puertorican_mismatch_interrogative-total-yn_El-nino-oye-el-rio.wav,,,,,,,,,,,,,,,,,,,,,,267.5432,269.7772,0,0,1.7156,,0,17,17,40,1,1,puertorican,,,,,,,,,,,,,,,,,,,,,,,,,,,,,,,,,,,,,,,,,,,,,,,,,,,,,,,,
,,,,,,,,,61075af85969d97b256603cc,Spanish,13 or older,"no, only English or Spanish",no,2025-07-23_00h45.01.998,empathy_intonation_perc,2024.2.4,MacIntel,64.1025641,61075af85969d97b256603cc,687ed1b7e638a4cbf2f02089,688068a1beb8f1fd6b81b00c,,,,,,,,,,,,,53,0,,./stim/wavs/cuban_match_declarative-broad-focus_Manuela-vende-el-carro.wav,,,,,,,,,,,,,,,,,,,,,,269.778,272.1696,0,1,1.8646,,0,18,18,52,1,0,cuban,,,,,,,,,,,,,,,,,,,,,,,,,,,,,,,,,,,,,,,,,,,,,,,,,,,,,,,,
,,,,,,,,,61075af85969d97b256603cc,Spanish,13 or older,"no, only English or Spanish",no,2025-07-23_00h45.01.998,empathy_intonation_perc,2024.2.4,MacIntel,64.1025641,61075af85969d97b256603cc,687ed1b7e638a4cbf2f02089,688068a1beb8f1fd6b81b00c,,,,,,,,,,,,,67,0,,./stim/wavs/puertorican_match_declarative-broad-focus_Manuela-vende-el-carro.wav,,,,,,,,,,,,,,,,,,,,,,272.1704,274.2963,0,1,1.5952,,0,19,19,66,1,0,puertorican,,,,,,,,,,,,,,,,,,,,,,,,,,,,,,,,,,,,,,,,,,,,,,,,,,,,,,,,
,,,,,,,,,61075af85969d97b256603cc,Spanish,13 or older,"no, only English or Spanish",no,2025-07-23_00h45.01.998,empathy_intonation_perc,2024.2.4,MacIntel,64.1025641,61075af85969d97b256603cc,687ed1b7e638a4cbf2f02089,688068a1beb8f1fd6b81b00c,,,,,,,,,,,,,85,0,,./stim/wavs/puertorican_mismatch_declarative-broad-focus_El-hombre-mira-la-luna.wav,,,,,,,,,,,,,,,,,,,,,,274.297,276.5496,0,1,1.7365,,0,20,20,84,1,0,puertorican,,,,,,,,,,,,,,,,,,,,,,,,,,,,,,,,,,,,,,,,,,,,,,,,,,,,,,,,
,,,,,,,,,61075af85969d97b256603cc,Spanish,13 or older,"no, only English or Spanish",no,2025-07-23_00h45.01.998,empathy_intonation_perc,2024.2.4,MacIntel,64.1025641,61075af85969d97b256603cc,687ed1b7e638a4cbf2f02089,688068a1beb8f1fd6b81b00c,,,,,,,,,,,,,22,1,,./stim/wavs/puertorican_match_interrogative-total-yn_Emilio-ama-la-marcha.wav,,,,,,,,,,,,,,,,,,,,,,276.5503,278.7239,0,0,1.641,,0,21,21,21,1,1,puertorican,,,,,,,,,,,,,,,,,,,,,,,,,,,,,,,,,,,,,,,,,,,,,,,,,,,,,,,,
,,,,,,,,,61075af85969d97b256603cc,Spanish,13 or older,"no, only English or Spanish",no,2025-07-23_00h45.01.998,empathy_intonation_perc,2024.2.4,MacIntel,64.1025641,61075af85969d97b256603cc,687ed1b7e638a4cbf2f02089,688068a1beb8f1fd6b81b00c,,,,,,,,,,,,,4,1,,./stim/wavs/castilian_match_interrogative-total-yn_Maria-bebe-el-vino.wav,,,,,,,,,,,,,,,,,,,,,,278.725,280.9075,1,1,1.6663,,0,22,22,3,1,0,castilian,,,,,,,,,,,,,,,,,,,,,,,,,,,,,,,,,,,,,,,,,,,,,,,,,,,,,,,,
,,,,,,,,,61075af85969d97b256603cc,Spanish,13 or older,"no, only English or Spanish",no,2025-07-23_00h45.01.998,empathy_intonation_perc,2024.2.4,MacIntel,64.1025641,61075af85969d97b256603cc,687ed1b7e638a4cbf2f02089,688068a1beb8f1fd6b81b00c,,,,,,,,,,,,,76,0,,./stim/wavs/cuban_mismatch_declarative-broad-focus_La-nina-lava-el-plato.wav,,,,,,,,,,,,,,,,,,,,,,280.908,283.0642,0,1,1.626,,0,23,23,75,1,0,cuban,,,,,,,,,,,,,,,,,,,,,,,,,,,,,,,,,,,,,,,,,,,,,,,,,,,,,,,,
,,,,,,,,,61075af85969d97b256603cc,Spanish,13 or older,"no, only English or Spanish",no,2025-07-23_00h45.01.998,empathy_intonation_perc,2024.2.4,MacIntel,64.1025641,61075af85969d97b256603cc,687ed1b7e638a4cbf2f02089,688068a1beb8f1fd6b81b00c,,,,,,,,,,,,,55,0,,./stim/wavs/cuban_match_declarative-broad-focus_Mariano-habla-del-tiempo.wav,,,,,,,,,,,,,,,,,,,,,,283.0647,285.4299,0,1,1.8395,,0,24,24,54,1,0,cuban,,,,,,,,,,,,,,,,,,,,,,,,,,,,,,,,,,,,,,,,,,,,,,,,,,,,,,,,
,,,,,,,,,61075af85969d97b256603cc,Spanish,13 or older,"no, only English or Spanish",no,2025-07-23_00h45.01.998,empathy_intonation_perc,2024.2.4,MacIntel,64.1025641,61075af85969d97b256603cc,687ed1b7e638a4cbf2f02089,688068a1beb8f1fd6b81b00c,,,,,,,,,,,,,33,1,,./stim/wavs/cuban_mismatch_interrogative-total-yn_Mi-novio-viene-del-lago.wav,,,,,,,,,,,,,,,,,,,,,,285.4306,287.535,0,0,1.5853,,0,25,25,32,1,1,cuban,,,,,,,,,,,,,,,,,,,,,,,,,,,,,,,,,,,,,,,,,,,,,,,,,,,,,,,,
,,,,,,,,,61075af85969d97b256603cc,Spanish,13 or older,"no, only English or Spanish",no,2025-07-23_00h45.01.998,empathy_intonation_perc,2024.2.4,MacIntel,64.1025641,61075af85969d97b256603cc,687ed1b7e638a4cbf2f02089,688068a1beb8f1fd6b81b00c,,,,,,,,,,,,,54,0,,./stim/wavs/cuban_match_declarative-broad-focus_Maria-bebe-el-vino.wav,,,,,,,,,,,,,,,,,,,,,,287.5355,289.586,0,1,1.5215,,0,26,26,53,1,0,cuban,,,,,,,,,,,,,,,,,,,,,,,,,,,,,,,,,,,,,,,,,,,,,,,,,,,,,,,,
,,,,,,,,,61075af85969d97b256603cc,Spanish,13 or older,"no, only English or Spanish",no,2025-07-23_00h45.01.998,empathy_intonation_perc,2024.2.4,MacIntel,64.1025641,61075af85969d97b256603cc,687ed1b7e638a4cbf2f02089,688068a1beb8f1fd6b81b00c,,,,,,,,,,,,,59,0,,./stim/wavs/mexican_match_declarative-broad-focus_David-leia-el-libro.wav,,,,,,,,,,,,,,,,,,,,,,289.5866,291.7578,0,1,1.6386,,0,27,27,58,1,0,mexican,,,,,,,,,,,,,,,,,,,,,,,,,,,,,,,,,,,,,,,,,,,,,,,,,,,,,,,,
,,,,,,,,,61075af85969d97b256603cc,Spanish,13 or older,"no, only English or Spanish",no,2025-07-23_00h45.01.998,empathy_intonation_perc,2024.2.4,MacIntel,64.1025641,61075af85969d97b256603cc,687ed1b7e638a4cbf2f02089,688068a1beb8f1fd6b81b00c,,,,,,,,,,,,,63,0,,./stim/wavs/puertorican_match_declarative-broad-focus_Ana-lleva-el-abrigo.wav,,,,,,,,,,,,,,,,,,,,,,291.7586,293.6743,0,1,1.3896,,0,28,28,62,1,0,puertorican,,,,,,,,,,,,,,,,,,,,,,,,,,,,,,,,,,,,,,,,,,,,,,,,,,,,,,,,
,,,,,,,,,61075af85969d97b256603cc,Spanish,13 or older,"no, only English or Spanish",no,2025-07-23_00h45.01.998,empathy_intonation_perc,2024.2.4,MacIntel,64.1025641,61075af85969d97b256603cc,687ed1b7e638a4cbf2f02089,688068a1beb8f1fd6b81b00c,,,,,,,,,,,,,39,1,,./stim/wavs/mexican_mismatch_interrogative-total-yn_Mi-tia-odia-la-lluvia.wav,,,,,,,,,,,,,,,,,,,,,,293.675,296.0533,1,1,1.8525,,0,29,29,38,1,0,mexican,,,,,,,,,,,,,,,,,,,,,,,,,,,,,,,,,,,,,,,,,,,,,,,,,,,,,,,,
,,,,,,,,,61075af85969d97b256603cc,Spanish,13 or older,"no, only English or Spanish",no,2025-07-23_00h45.01.998,empathy_intonation_perc,2024.2.4,MacIntel,64.1025641,61075af85969d97b256603cc,687ed1b7e638a4cbf2f02089,688068a1beb8f1fd6b81b00c,,,,,,,,,,,,,42,1,,./stim/wavs/puertorican_mismatch_interrogative-total-yn_La-maestra-vive-en-Paris.wav,,,,,,,,,,,,,,,,,,,,,,296.0539,298.3731,0,0,1.7996,,0,30,30,41,1,1,puertorican,,,,,,,,,,,,,,,,,,,,,,,,,,,,,,,,,,,,,,,,,,,,,,,,,,,,,,,,
,,,,,,,,,61075af85969d97b256603cc,Spanish,13 or older,"no, only English or Spanish",no,2025-07-23_00h45.01.998,empathy_intonation_perc,2024.2.4,MacIntel,64.1025641,61075af85969d97b256603cc,687ed1b7e638a4cbf2f02089,688068a1beb8f1fd6b81b00c,,,,,,,,,,,,,32,1,,./stim/wavs/cuban_mismatch_interrogative-total-yn_Mi-madre-come-la-fruta.wav,,,,,,,,,,,,,,,,,,,,,,298.3739,300.5702,0,0,1.6778,,0,31,31,31,1,1,cuban,,,,,,,,,,,,,,,,,,,,,,,,,,,,,,,,,,,,,,,,,,,,,,,,,,,,,,,,
,,,,,,,,,61075af85969d97b256603cc,Spanish,13 or older,"no, only English or Spanish",no,2025-07-23_00h45.01.998,empathy_intonation_perc,2024.2.4,MacIntel,64.1025641,61075af85969d97b256603cc,687ed1b7e638a4cbf2f02089,688068a1beb8f1fd6b81b00c,,,,,,,,,,,,,24,1,,./stim/wavs/puertorican_match_interrogative-total-yn_Maria-bebe-el-vino.wav,,,,,,,,,,,,,,,,,,,,,,300.5707,302.6333,0,0,1.5454,,0,32,32,23,1,1,puertorican,,,,,,,,,,,,,,,,,,,,,,,,,,,,,,,,,,,,,,,,,,,,,,,,,,,,,,,,
,,,,,,,,,61075af85969d97b256603cc,Spanish,13 or older,"no, only English or Spanish",no,2025-07-23_00h45.01.998,empathy_intonation_perc,2024.2.4,MacIntel,64.1025641,61075af85969d97b256603cc,687ed1b7e638a4cbf2f02089,688068a1beb8f1fd6b81b00c,,,,,,,,,,,,,10,1,,./stim/wavs/cuban_match_interrogative-total-yn_Maria-bebe-el-vino.wav,,,,,,,,,,,,,,,,,,,,,,302.6344,304.8149,0,0,1.6569,,0,33,33,9,1,1,cuban,,,,,,,,,,,,,,,,,,,,,,,,,,,,,,,,,,,,,,,,,,,,,,,,,,,,,,,,
,,,,,,,,,61075af85969d97b256603cc,Spanish,13 or older,"no, only English or Spanish",no,2025-07-23_00h45.01.998,empathy_intonation_perc,2024.2.4,MacIntel,64.1025641,61075af85969d97b256603cc,687ed1b7e638a4cbf2f02089,688068a1beb8f1fd6b81b00c,,,,,,,,,,,,,5,1,,./stim/wavs/castilian_match_interrogative-total-yn_Mariano-habla-del-tiempo.wav,,,,,,,,,,,,,,,,,,,,,,304.8156,307.2269,1,1,1.8804,,0,34,34,4,1,0,castilian,,,,,,,,,,,,,,,,,,,,,,,,,,,,,,,,,,,,,,,,,,,,,,,,,,,,,,,,
,,,,,,,,,61075af85969d97b256603cc,Spanish,13 or older,"no, only English or Spanish",no,2025-07-23_00h45.01.998,empathy_intonation_perc,2024.2.4,MacIntel,64.1025641,61075af85969d97b256603cc,687ed1b7e638a4cbf2f02089,688068a1beb8f1fd6b81b00c,,,,,,,,,,,,,19,1,,./stim/wavs/puertorican_match_interrogative-total-yn_Ana-lleva-el-abrigo.wav,,,,,,,,,,,,,,,,,,,,,,307.2276,309.3102,0,0,1.5583,,0,35,35,18,1,1,puertorican,,,,,,,,,,,,,,,,,,,,,,,,,,,,,,,,,,,,,,,,,,,,,,,,,,,,,,,,
,,,,,,,,,61075af85969d97b256603cc,Spanish,13 or older,"no, only English or Spanish",no,2025-07-23_00h45.01.998,empathy_intonation_perc,2024.2.4,MacIntel,64.1025641,61075af85969d97b256603cc,687ed1b7e638a4cbf2f02089,688068a1beb8f1fd6b81b00c,,,,,,,,,,,,,52,0,,./stim/wavs/cuban_match_declarative-broad-focus_Daniel-iba-a-Bolivia.wav,,,,,,,,,,,,,,,,,,,,,,309.3109,311.5431,0,1,1.6979,,0,36,36,51,1,0,cuban,,,,,,,,,,,,,,,,,,,,,,,,,,,,,,,,,,,,,,,,,,,,,,,,,,,,,,,,
,,,,,,,,,61075af85969d97b256603cc,Spanish,13 or older,"no, only English or Spanish",no,2025-07-23_00h45.01.998,empathy_intonation_perc,2024.2.4,MacIntel,64.1025641,61075af85969d97b256603cc,687ed1b7e638a4cbf2f02089,688068a1beb8f1fd6b81b00c,,,,,,,,,,,,,8,1,,./stim/wavs/cuban_match_interrogative-total-yn_Daniel-iba-a-Bolivia.wav,,,,,,,,,,,,,,,,,,,,,,311.5439,313.9918,0,0,1.9249,,0,37,37,7,1,1,cuban,,,,,,,,,,,,,,,,,,,,,,,,,,,,,,,,,,,,,,,,,,,,,,,,,,,,,,,,
,,,,,,,,,61075af85969d97b256603cc,Spanish,13 or older,"no, only English or Spanish",no,2025-07-23_00h45.01.998,empathy_intonation_perc,2024.2.4,MacIntel,64.1025641,61075af85969d97b256603cc,687ed1b7e638a4cbf2f02089,688068a1beb8f1fd6b81b00c,,,,,,,,,,,,,6,1,,./stim/wavs/castilian_match_interrogative-total-yn_Marta-abre-el-regalo.wav,,,,,,,,,,,,,,,,,,,,,,313.9924,316.3089,1,1,1.7777,,0,38,38,5,1,0,castilian,,,,,,,,,,,,,,,,,,,,,,,,,,,,,,,,,,,,,,,,,,,,,,,,,,,,,,,,
,,,,,,,,,61075af85969d97b256603cc,Spanish,13 or older,"no, only English or Spanish",no,2025-07-23_00h45.01.998,empathy_intonation_perc,2024.2.4,MacIntel,64.1025641,61075af85969d97b256603cc,687ed1b7e638a4cbf2f02089,688068a1beb8f1fd6b81b00c,,,,,,,,,,,,,9,1,,./stim/wavs/cuban_match_interrogative-total-yn_Manuela-vende-el-carro.wav,,,,,,,,,,,,,,,,,,,,,,316.3095,318.3512,0,0,1.5118,,0,39,39,8,1,1,cuban,,,,,,,,,,,,,,,,,,,,,,,,,,,,,,,,,,,,,,,,,,,,,,,,,,,,,,,,
,,,,,,,,,61075af85969d97b256603cc,Spanish,13 or older,"no, only English or Spanish",no,2025-07-23_00h45.01.998,empathy_intonation_perc,2024.2.4,MacIntel,64.1025641,61075af85969d97b256603cc,687ed1b7e638a4cbf2f02089,688068a1beb8f1fd6b81b00c,,,,,,,,,,,,,65,0,,./stim/wavs/puertorican_match_declarative-broad-focus_David-leia-el-libro.wav,,,,,,,,,,,,,,,,,,,,,,318.3518,320.4546,0,1,1.5744,,0,40,40,64,1,0,puertorican,,,,,,,,,,,,,,,,,,,,,,,,,,,,,,,,,,,,,,,,,,,,,,,,,,,,,,,,
,,,,,,,,,61075af85969d97b256603cc,Spanish,13 or older,"no, only English or Spanish",no,2025-07-23_00h45.01.998,empathy_intonation_perc,2024.2.4,MacIntel,64.1025641,61075af85969d97b256603cc,687ed1b7e638a4cbf2f02089,688068a1beb8f1fd6b81b00c,,,,,,,,,,,,,87,0,,./stim/wavs/puertorican_mismatch_declarative-broad-focus_La-maestra-vive-en-Paris.wav,,,,,,,,,,,,,,,,,,,,,,320.4553,322.6204,0,1,1.6212,,0,41,41,86,1,0,puertorican,,,,,,,,,,,,,,,,,,,,,,,,,,,,,,,,,,,,,,,,,,,,,,,,,,,,,,,,
,,,,,,,,,61075af85969d97b256603cc,Spanish,13 or older,"no, only English or Spanish",no,2025-07-23_00h45.01.998,empathy_intonation_perc,2024.2.4,MacIntel,64.1025641,61075af85969d97b256603cc,687ed1b7e638a4cbf2f02089,688068a1beb8f1fd6b81b00c,,,,,,,,,,,,,48,0,,./stim/wavs/castilian_match_declarative-broad-focus_Maria-bebe-el-vino.wav,,,,,,,,,,,,,,,,,,,,,,322.6211,324.9384,0,1,1.7806,,0,42,42,47,1,0,castilian,,,,,,,,,,,,,,,,,,,,,,,,,,,,,,,,,,,,,,,,,,,,,,,,,,,,,,,,
,,,,,,,,,61075af85969d97b256603cc,Spanish,13 or older,"no, only English or Spanish",no,2025-07-23_00h45.01.998,empathy_intonation_perc,2024.2.4,MacIntel,64.1025641,61075af85969d97b256603cc,687ed1b7e638a4cbf2f02089,688068a1beb8f1fd6b81b00c,,,,,,,,,,,,,7,1,,./stim/wavs/cuban_match_interrogative-total-yn_Ana-lleva-el-abrigo.wav,,,,,,,,,,,,,,,,,,,,,,324.9392,326.885,0,0,1.4231,,0,43,43,6,1,1,cuban,,,,,,,,,,,,,,,,,,,,,,,,,,,,,,,,,,,,,,,,,,,,,,,,,,,,,,,,
,,,,,,,,,61075af85969d97b256603cc,Spanish,13 or older,"no, only English or Spanish",no,2025-07-23_00h45.01.998,empathy_intonation_perc,2024.2.4,MacIntel,64.1025641,61075af85969d97b256603cc,687ed1b7e638a4cbf2f02089,688068a1beb8f1fd6b81b00c,,,,,,,,,,,,,73,0,,./stim/wavs/castilian_mismatch_declarative-broad-focus_Mi-tia-odia-la-lluvia.wav,,,,,,,,,,,,,,,,,,,,,,326.8858,329.066,0,1,1.6632,,0,44,44,72,1,0,castilian,,,,,,,,,,,,,,,,,,,,,,,,,,,,,,,,,,,,,,,,,,,,,,,,,,,,,,,,
,,,,,,,,,61075af85969d97b256603cc,Spanish,13 or older,"no, only English or Spanish",no,2025-07-23_00h45.01.998,empathy_intonation_perc,2024.2.4,MacIntel,64.1025641,61075af85969d97b256603cc,687ed1b7e638a4cbf2f02089,688068a1beb8f1fd6b81b00c,,,,,,,,,,,,,28,1,,./stim/wavs/castilian_mismatch_interrogative-total-yn_Mi-novio-viene-del-lago.wav,,,,,,,,,,,,,,,,,,,,,,329.0666,331.5092,1,1,1.9045,,0,45,45,27,1,0,castilian,,,,,,,,,,,,,,,,,,,,,,,,,,,,,,,,,,,,,,,,,,,,,,,,,,,,,,,,
,,,,,,,,,61075af85969d97b256603cc,Spanish,13 or older,"no, only English or Spanish",no,2025-07-23_00h45.01.998,empathy_intonation_perc,2024.2.4,MacIntel,64.1025641,61075af85969d97b256603cc,687ed1b7e638a4cbf2f02089,688068a1beb8f1fd6b81b00c,,,,,,,,,,,,,2,1,,./stim/wavs/castilian_match_interrogative-total-yn_Emilio-ama-la-marcha.wav,,,,,,,,,,,,,,,,,,,,,,331.51,334.0843,1,1,2.032,,0,46,46,1,1,0,castilian,,,,,,,,,,,,,,,,,,,,,,,,,,,,,,,,,,,,,,,,,,,,,,,,,,,,,,,,
,,,,,,,,,61075af85969d97b256603cc,Spanish,13 or older,"no, only English or Spanish",no,2025-07-23_00h45.01.998,empathy_intonation_perc,2024.2.4,MacIntel,64.1025641,61075af85969d97b256603cc,687ed1b7e638a4cbf2f02089,688068a1beb8f1fd6b81b00c,,,,,,,,,,,,,27,1,,./stim/wavs/castilian_mismatch_interrogative-total-yn_Mi-madre-come-la-fruta.wav,,,,,,,,,,,,,,,,,,,,,,334.0848,336.3718,1,1,1.7553,,0,47,47,26,1,0,castilian,,,,,,,,,,,,,,,,,,,,,,,,,,,,,,,,,,,,,,,,,,,,,,,,,,,,,,,,
,,,,,,,,,61075af85969d97b256603cc,Spanish,13 or older,"no, only English or Spanish",no,2025-07-23_00h45.01.998,empathy_intonation_perc,2024.2.4,MacIntel,64.1025641,61075af85969d97b256603cc,687ed1b7e638a4cbf2f02089,688068a1beb8f1fd6b81b00c,,,,,,,,,,,,,50,0,,./stim/wavs/castilian_match_declarative-broad-focus_Marta-abre-el-regalo.wav,,,,,,,,,,,,,,,,,,,,,,336.3725,338.7844,0,1,1.8783,,0,48,48,49,1,0,castilian,,,,,,,,,,,,,,,,,,,,,,,,,,,,,,,,,,,,,,,,,,,,,,,,,,,,,,,,
,,,,,,,,,61075af85969d97b256603cc,Spanish,13 or older,"no, only English or Spanish",no,2025-07-23_00h45.01.998,empathy_intonation_perc,2024.2.4,MacIntel,64.1025641,61075af85969d97b256603cc,687ed1b7e638a4cbf2f02089,688068a1beb8f1fd6b81b00c,,,,,,,,,,,,,72,0,,./stim/wavs/castilian_mismatch_declarative-broad-focus_Mi-novio-viene-del-lago.wav,,,,,,,,,,,,,,,,,,,,,,338.7852,341.2043,0,1,1.8838,,0,49,49,71,1,0,castilian,,,,,,,,,,,,,,,,,,,,,,,,,,,,,,,,,,,,,,,,,,,,,,,,,,,,,,,,
,,,,,,,,,61075af85969d97b256603cc,Spanish,13 or older,"no, only English or Spanish",no,2025-07-23_00h45.01.998,empathy_intonation_perc,2024.2.4,MacIntel,64.1025641,61075af85969d97b256603cc,687ed1b7e638a4cbf2f02089,688068a1beb8f1fd6b81b00c,,,,,,,,,,,,,34,1,,./stim/wavs/cuban_mismatch_interrogative-total-yn_Mi-tia-odia-la-lluvia.wav,,,,,,,,,,,,,,,,,,,,,,341.205,343.2662,0,0,1.5269,,0,50,50,33,1,1,cuban,,,,,,,,,,,,,,,,,,,,,,,,,,,,,,,,,,,,,,,,,,,,,,,,,,,,,,,,
,,,,,,,,,61075af85969d97b256603cc,Spanish,13 or older,"no, only English or Spanish",no,2025-07-23_00h45.01.998,empathy_intonation_perc,2024.2.4,MacIntel,64.1025641,61075af85969d97b256603cc,687ed1b7e638a4cbf2f02089,688068a1beb8f1fd6b81b00c,,,,,,,,,,,,,25,1,,./stim/wavs/castilian_mismatch_interrogative-total-yn_La-maestra-vive-en-Paris.wav,,,,,,,,,,,,,,,,,,,,,,343.2669,345.8317,1,1,2.0369,,0,51,51,24,1,0,castilian,,,,,,,,,,,,,,,,,,,,,,,,,,,,,,,,,,,,,,,,,,,,,,,,,,,,,,,,
,,,,,,,,,61075af85969d97b256603cc,Spanish,13 or older,"no, only English or Spanish",no,2025-07-23_00h45.01.998,empathy_intonation_perc,2024.2.4,MacIntel,64.1025641,61075af85969d97b256603cc,687ed1b7e638a4cbf2f02089,688068a1beb8f1fd6b81b00c,,,,,,,,,,,,,3,1,,./stim/wavs/castilian_match_interrogative-total-yn_Manuela-vende-el-carro.wav,,,,,,,,,,,,,,,,,,,,,,345.8323,348.4411,1,1,2.0753,,0,52,52,2,1,0,castilian,,,,,,,,,,,,,,,,,,,,,,,,,,,,,,,,,,,,,,,,,,,,,,,,,,,,,,,,
,,,,,,,,,61075af85969d97b256603cc,Spanish,13 or older,"no, only English or Spanish",no,2025-07-23_00h45.01.998,empathy_intonation_perc,2024.2.4,MacIntel,64.1025641,61075af85969d97b256603cc,687ed1b7e638a4cbf2f02089,688068a1beb8f1fd6b81b00c,,,,,,,,,,,,,47,0,,./stim/wavs/castilian_match_declarative-broad-focus_Manuela-vende-el-carro.wav,,,,,,,,,,,,,,,,,,,,,,348.4415,351.0137,0,1,2.0269,,0,53,53,46,1,0,castilian,,,,,,,,,,,,,,,,,,,,,,,,,,,,,,,,,,,,,,,,,,,,,,,,,,,,,,,,
,,,,,,,,,61075af85969d97b256603cc,Spanish,13 or older,"no, only English or Spanish",no,2025-07-23_00h45.01.998,empathy_intonation_perc,2024.2.4,MacIntel,64.1025641,61075af85969d97b256603cc,687ed1b7e638a4cbf2f02089,688068a1beb8f1fd6b81b00c,,,,,,,,,,,,,78,0,,./stim/wavs/cuban_mismatch_declarative-broad-focus_Mi-tia-odia-la-lluvia.wav,,,,,,,,,,,,,,,,,,,,,,351.0142,353.416,0,1,1.8838,,0,54,54,77,1,0,cuban,,,,,,,,,,,,,,,,,,,,,,,,,,,,,,,,,,,,,,,,,,,,,,,,,,,,,,,,
,,,,,,,,,61075af85969d97b256603cc,Spanish,13 or older,"no, only English or Spanish",no,2025-07-23_00h45.01.998,empathy_intonation_perc,2024.2.4,MacIntel,64.1025641,61075af85969d97b256603cc,687ed1b7e638a4cbf2f02089,688068a1beb8f1fd6b81b00c,,,,,,,,,,,,,82,0,,./stim/wavs/mexican_mismatch_declarative-broad-focus_Mi-novio-viene-del-lago.wav,,,,,,,,,,,,,,,,,,,,,,353.4167,355.7136,0,1,1.7578,,0,55,55,81,1,0,mexican,,,,,,,,,,,,,,,,,,,,,,,,,,,,,,,,,,,,,,,,,,,,,,,,,,,,,,,,
,,,,,,,,,61075af85969d97b256603cc,Spanish,13 or older,"no, only English or Spanish",no,2025-07-23_00h45.01.998,empathy_intonation_perc,2024.2.4,MacIntel,64.1025641,61075af85969d97b256603cc,687ed1b7e638a4cbf2f02089,688068a1beb8f1fd6b81b00c,,,,,,,,,,,,,29,1,,./stim/wavs/castilian_mismatch_interrogative-total-yn_Mi-tia-odia-la-lluvia.wav,,,,,,,,,,,,,,,,,,,,,,355.7142,358.0112,1,1,1.7658,,0,56,56,28,1,0,castilian,,,,,,,,,,,,,,,,,,,,,,,,,,,,,,,,,,,,,,,,,,,,,,,,,,,,,,,,
,,,,,,,,,61075af85969d97b256603cc,Spanish,13 or older,"no, only English or Spanish",no,2025-07-23_00h45.01.998,empathy_intonation_perc,2024.2.4,MacIntel,64.1025641,61075af85969d97b256603cc,687ed1b7e638a4cbf2f02089,688068a1beb8f1fd6b81b00c,,,,,,,,,,,,,88,0,,./stim/wavs/puertorican_mismatch_declarative-broad-focus_La-nina-lava-el-plato.wav,,,,,,,,,,,,,,,,,,,,,,358.0122,360.1108,0,1,1.5739,,0,57,57,87,1,0,puertorican,,,,,,,,,,,,,,,,,,,,,,,,,,,,,,,,,,,,,,,,,,,,,,,,,,,,,,,,
,,,,,,,,,61075af85969d97b256603cc,Spanish,13 or older,"no, only English or Spanish",no,2025-07-23_00h45.01.998,empathy_intonation_perc,2024.2.4,MacIntel,64.1025641,61075af85969d97b256603cc,687ed1b7e638a4cbf2f02089,688068a1beb8f1fd6b81b00c,,,,,,,,,,,,,77,0,,./stim/wavs/cuban_mismatch_declarative-broad-focus_Mi-novio-viene-del-lago.wav,,,,,,,,,,,,,,,,,,,,,,360.1113,362.3158,0,1,1.6831,,0,58,58,76,1,0,cuban,,,,,,,,,,,,,,,,,,,,,,,,,,,,,,,,,,,,,,,,,,,,,,,,,,,,,,,,
,,,,,,,,,61075af85969d97b256603cc,Spanish,13 or older,"no, only English or Spanish",no,2025-07-23_00h45.01.998,empathy_intonation_perc,2024.2.4,MacIntel,64.1025641,61075af85969d97b256603cc,687ed1b7e638a4cbf2f02089,688068a1beb8f1fd6b81b00c,,,,,,,,,,,,,21,1,,./stim/wavs/puertorican_match_interrogative-total-yn_David-leia-el-libro.wav,,,,,,,,,,,,,,,,,,,,,,362.3165,364.3797,0,0,1.5295,,0,59,59,20,1,1,puertorican,,,,,,,,,,,,,,,,,,,,,,,,,,,,,,,,,,,,,,,,,,,,,,,,,,,,,,,,
,,,,,,,,,61075af85969d97b256603cc,Spanish,13 or older,"no, only English or Spanish",no,2025-07-23_00h45.01.998,empathy_intonation_perc,2024.2.4,MacIntel,64.1025641,61075af85969d97b256603cc,687ed1b7e638a4cbf2f02089,688068a1beb8f1fd6b81b00c,,,,,,,,,,,,,43,1,,./stim/wavs/puertorican_mismatch_interrogative-total-yn_La-nina-lava-el-plato.wav,,,,,,,,,,,,,,,,,,,,,,364.3806,366.2675,0,0,1.3664,,0,60,60,42,1,1,puertorican,,,,,,,,,,,,,,,,,,,,,,,,,,,,,,,,,,,,,,,,,,,,,,,,,,,,,,,,
,,,,,,,,,61075af85969d97b256603cc,Spanish,13 or older,"no, only English or Spanish",no,2025-07-23_00h45.01.998,empathy_intonation_perc,2024.2.4,MacIntel,64.1025641,61075af85969d97b256603cc,687ed1b7e638a4cbf2f02089,688068a1beb8f1fd6b81b00c,,,,,,,,,,,,,71,0,,./stim/wavs/castilian_mismatch_declarative-broad-focus_La-nina-lava-el-plato.wav,,,,,,,,,,,,,,,,,,,,,,366.2682,368.9658,0,1,2.1653,,0,61,61,70,1,0,castilian,,,,,,,,,,,,,,,,,,,,,,,,,,,,,,,,,,,,,,,,,,,,,,,,,,,,,,,,
,,,,,,,,,61075af85969d97b256603cc,Spanish,13 or older,"no, only English or Spanish",no,2025-07-23_00h45.01.998,empathy_intonation_perc,2024.2.4,MacIntel,64.1025641,61075af85969d97b256603cc,687ed1b7e638a4cbf2f02089,688068a1beb8f1fd6b81b00c,,,,,,,,,,,,,30,1,,./stim/wavs/cuban_mismatch_interrogative-total-yn_El-hombre-mira-la-luna.wav,,,,,,,,,,,,,,,,,,,,,,368.9664,370.9414,0,0,1.4412,,0,62,62,29,1,1,cuban,,,,,,,,,,,,,,,,,,,,,,,,,,,,,,,,,,,,,,,,,,,,,,,,,,,,,,,,
,,,,,,,,,61075af85969d97b256603cc,Spanish,13 or older,"no, only English or Spanish",no,2025-07-23_00h45.01.998,empathy_intonation_perc,2024.2.4,MacIntel,64.1025641,61075af85969d97b256603cc,687ed1b7e638a4cbf2f02089,688068a1beb8f1fd6b81b00c,,,,,,,,,,,,,40,1,,./stim/wavs/puertorican_mismatch_interrogative-total-yn_El-hombre-mira-la-luna.wav,,,,,,,,,,,,,,,,,,,,,,370.9419,373.0229,0,0,1.5466,,0,63,63,39,1,1,puertorican,,,,,,,,,,,,,,,,,,,,,,,,,,,,,,,,,,,,,,,,,,,,,,,,,,,,,,,,
,,,,,,,,,61075af85969d97b256603cc,Spanish,13 or older,"no, only English or Spanish",no,2025-07-23_00h45.01.998,empathy_intonation_perc,2024.2.4,MacIntel,64.1025641,61075af85969d97b256603cc,687ed1b7e638a4cbf2f02089,688068a1beb8f1fd6b81b00c,,,,,,,,,,,,,36,1,,./stim/wavs/mexican_mismatch_interrogative-total-yn_El-nino-oye-el-rio.wav,,,,,,,,,,,,,,,,,,,,,,373.0237,375.2673,1,1,1.7081,,0,64,64,35,1,0,mexican,,,,,,,,,,,,,,,,,,,,,,,,,,,,,,,,,,,,,,,,,,,,,,,,,,,,,,,,
,,,,,,,,,61075af85969d97b256603cc,Spanish,13 or older,"no, only English or Spanish",no,2025-07-23_00h45.01.998,empathy_intonation_perc,2024.2.4,MacIntel,64.1025641,61075af85969d97b256603cc,687ed1b7e638a4cbf2f02089,688068a1beb8f1fd6b81b00c,,,,,,,,,,,,,38,1,,./stim/wavs/mexican_mismatch_interrogative-total-yn_Mi-novio-viene-del-lago.wav,,,,,,,,,,,,,,,,,,,,,,375.2679,377.5629,1,1,1.7646,,0,65,65,37,1,0,mexican,,,,,,,,,,,,,,,,,,,,,,,,,,,,,,,,,,,,,,,,,,,,,,,,,,,,,,,,
,,,,,,,,,61075af85969d97b256603cc,Spanish,13 or older,"no, only English or Spanish",no,2025-07-23_00h45.01.998,empathy_intonation_perc,2024.2.4,MacIntel,64.1025641,61075af85969d97b256603cc,687ed1b7e638a4cbf2f02089,688068a1beb8f1fd6b81b00c,,,,,,,,,,,,,51,0,,./stim/wavs/cuban_match_declarative-broad-focus_Ana-lleva-el-abrigo.wav,,,,,,,,,,,,,,,,,,,,,,377.5635,379.6857,0,1,1.5912,,0,66,66,50,1,0,cuban,,,,,,,,,,,,,,,,,,,,,,,,,,,,,,,,,,,,,,,,,,,,,,,,,,,,,,,,
,,,,,,,,,61075af85969d97b256603cc,Spanish,13 or older,"no, only English or Spanish",no,2025-07-23_00h45.01.998,empathy_intonation_perc,2024.2.4,MacIntel,64.1025641,61075af85969d97b256603cc,687ed1b7e638a4cbf2f02089,688068a1beb8f1fd6b81b00c,,,,,,,,,,,,,18,1,,./stim/wavs/mexican_match_interrogative-total-yn_Marta-abre-el-regalo.wav,,,,,,,,,,,,,,,,,,,,,,379.6864,381.7645,1,1,1.5581,,0,67,67,17,1,0,mexican,,,,,,,,,,,,,,,,,,,,,,,,,,,,,,,,,,,,,,,,,,,,,,,,,,,,,,,,
,,,,,,,,,61075af85969d97b256603cc,Spanish,13 or older,"no, only English or Spanish",no,2025-07-23_00h45.01.998,empathy_intonation_perc,2024.2.4,MacIntel,64.1025641,61075af85969d97b256603cc,687ed1b7e638a4cbf2f02089,688068a1beb8f1fd6b81b00c,,,,,,,,,,,,,45,0,,./stim/wavs/castilian_match_declarative-broad-focus_David-leia-el-libro.wav,,,,,,,,,,,,,,,,,,,,,,381.7651,384.0458,0,1,1.7539,,0,68,68,44,1,0,castilian,,,,,,,,,,,,,,,,,,,,,,,,,,,,,,,,,,,,,,,,,,,,,,,,,,,,,,,,
,,,,,,,,,61075af85969d97b256603cc,Spanish,13 or older,"no, only English or Spanish",no,2025-07-23_00h45.01.998,empathy_intonation_perc,2024.2.4,MacIntel,64.1025641,61075af85969d97b256603cc,687ed1b7e638a4cbf2f02089,688068a1beb8f1fd6b81b00c,,,,,,,,,,,,,12,1,,./stim/wavs/cuban_match_interrogative-total-yn_Marta-abre-el-regalo.wav,,,,,,,,,,,,,,,,,,,,,,384.0465,386.2888,0,0,1.7099,,0,69,69,11,1,1,cuban,,,,,,,,,,,,,,,,,,,,,,,,,,,,,,,,,,,,,,,,,,,,,,,,,,,,,,,,
,,,,,,,,,61075af85969d97b256603cc,Spanish,13 or older,"no, only English or Spanish",no,2025-07-23_00h45.01.998,empathy_intonation_perc,2024.2.4,MacIntel,64.1025641,61075af85969d97b256603cc,687ed1b7e638a4cbf2f02089,688068a1beb8f1fd6b81b00c,,,,,,,,,,,,,58,0,,./stim/wavs/mexican_match_declarative-broad-focus_Daniel-iba-a-Bolivia.wav,,,,,,,,,,,,,,,,,,,,,,386.2897,388.3828,0,1,1.5755,,0,70,70,57,1,0,mexican,,,,,,,,,,,,,,,,,,,,,,,,,,,,,,,,,,,,,,,,,,,,,,,,,,,,,,,,
,,,,,,,,,61075af85969d97b256603cc,Spanish,13 or older,"no, only English or Spanish",no,2025-07-23_00h45.01.998,empathy_intonation_perc,2024.2.4,MacIntel,64.1025641,61075af85969d97b256603cc,687ed1b7e638a4cbf2f02089,688068a1beb8f1fd6b81b00c,,,,,,,,,,,,,20,1,,./stim/wavs/puertorican_match_interrogative-total-yn_Daniel-iba-a-Bolivia.wav,,,,,,,,,,,,,,,,,,,,,,388.3833,390.8122,0,0,1.9162,,0,71,71,19,1,1,puertorican,,,,,,,,,,,,,,,,,,,,,,,,,,,,,,,,,,,,,,,,,,,,,,,,,,,,,,,,
,,,,,,,,,61075af85969d97b256603cc,Spanish,13 or older,"no, only English or Spanish",no,2025-07-23_00h45.01.998,empathy_intonation_perc,2024.2.4,MacIntel,64.1025641,61075af85969d97b256603cc,687ed1b7e638a4cbf2f02089,688068a1beb8f1fd6b81b00c,,,,,,,,,,,,,35,1,,./stim/wavs/mexican_mismatch_interrogative-total-yn_El-hombre-mira-la-luna.wav,,,,,,,,,,,,,,,,,,,,,,390.8132,393.0148,1,1,1.6826,,0,72,72,34,1,0,mexican,,,,,,,,,,,,,,,,,,,,,,,,,,,,,,,,,,,,,,,,,,,,,,,,,,,,,,,,
,,,,,,,,,61075af85969d97b256603cc,Spanish,13 or older,"no, only English or Spanish",no,2025-07-23_00h45.01.998,empathy_intonation_perc,2024.2.4,MacIntel,64.1025641,61075af85969d97b256603cc,687ed1b7e638a4cbf2f02089,688068a1beb8f1fd6b81b00c,,,,,,,,,,,,,46,0,,./stim/wavs/castilian_match_declarative-broad-focus_Emilio-ama-la-marcha.wav,,,,,,,,,,,,,,,,,,,,,,393.0152,395.5736,0,1,2.0229,,0,73,73,45,1,0,castilian,,,,,,,,,,,,,,,,,,,,,,,,,,,,,,,,,,,,,,,,,,,,,,,,,,,,,,,,
,,,,,,,,,61075af85969d97b256603cc,Spanish,13 or older,"no, only English or Spanish",no,2025-07-23_00h45.01.998,empathy_intonation_perc,2024.2.4,MacIntel,64.1025641,61075af85969d97b256603cc,687ed1b7e638a4cbf2f02089,688068a1beb8f1fd6b81b00c,,,,,,,,,,,,,61,0,,./stim/wavs/mexican_match_declarative-broad-focus_Mariano-habla-del-tiempo.wav,,,,,,,,,,,,,,,,,,,,,,395.5742,397.7864,0,1,1.6691,,0,74,74,60,1,0,mexican,,,,,,,,,,,,,,,,,,,,,,,,,,,,,,,,,,,,,,,,,,,,,,,,,,,,,,,,
,,,,,,,,,61075af85969d97b256603cc,Spanish,13 or older,"no, only English or Spanish",no,2025-07-23_00h45.01.998,empathy_intonation_perc,2024.2.4,MacIntel,64.1025641,61075af85969d97b256603cc,687ed1b7e638a4cbf2f02089,688068a1beb8f1fd6b81b00c,,,,,,,,,,,,,79,0,,./stim/wavs/mexican_mismatch_declarative-broad-focus_El-bebe-comia-muy-bien.wav,,,,,,,,,,,,,,,,,,,,,,397.7872,400.268,0,1,1.9425,,0,75,75,78,1,0,mexican,,,,,,,,,,,,,,,,,,,,,,,,,,,,,,,,,,,,,,,,,,,,,,,,,,,,,,,,
,,,,,,,,,61075af85969d97b256603cc,Spanish,13 or older,"no, only English or Spanish",no,2025-07-23_00h45.01.998,empathy_intonation_perc,2024.2.4,MacIntel,64.1025641,61075af85969d97b256603cc,687ed1b7e638a4cbf2f02089,688068a1beb8f1fd6b81b00c,,,,,,,,,,,,,64,0,,./stim/wavs/puertorican_match_declarative-broad-focus_Daniel-iba-a-Bolivia.wav,,,,,,,,,,,,,,,,,,,,,,400.2687,402.2881,0,1,1.4731,,0,76,76,63,1,0,puertorican,,,,,,,,,,,,,,,,,,,,,,,,,,,,,,,,,,,,,,,,,,,,,,,,,,,,,,,,
,,,,,,,,,61075af85969d97b256603cc,Spanish,13 or older,"no, only English or Spanish",no,2025-07-23_00h45.01.998,empathy_intonation_perc,2024.2.4,MacIntel,64.1025641,61075af85969d97b256603cc,687ed1b7e638a4cbf2f02089,688068a1beb8f1fd6b81b00c,,,,,,,,,,,,,14,1,,./stim/wavs/mexican_match_interrogative-total-yn_Daniel-iba-a-Bolivia.wav,,,,,,,,,,,,,,,,,,,,,,402.2886,404.4498,1,1,1.635,,0,77,77,13,1,0,mexican,,,,,,,,,,,,,,,,,,,,,,,,,,,,,,,,,,,,,,,,,,,,,,,,,,,,,,,,
,,,,,,,,,61075af85969d97b256603cc,Spanish,13 or older,"no, only English or Spanish",no,2025-07-23_00h45.01.998,empathy_intonation_perc,2024.2.4,MacIntel,64.1025641,61075af85969d97b256603cc,687ed1b7e638a4cbf2f02089,688068a1beb8f1fd6b81b00c,,,,,,,,,,,,,23,1,,./stim/wavs/puertorican_match_interrogative-total-yn_Manuela-vende-el-carro.wav,,,,,,,,,,,,,,,,,,,,,,404.4505,406.4699,0,0,1.4849,,0,78,78,22,1,1,puertorican,,,,,,,,,,,,,,,,,,,,,,,,,,,,,,,,,,,,,,,,,,,,,,,,,,,,,,,,
,,,,,,,,,61075af85969d97b256603cc,Spanish,13 or older,"no, only English or Spanish",no,2025-07-23_00h45.01.998,empathy_intonation_perc,2024.2.4,MacIntel,64.1025641,61075af85969d97b256603cc,687ed1b7e638a4cbf2f02089,688068a1beb8f1fd6b81b00c,,,,,,,,,,,,,56,0,,./stim/wavs/cuban_match_declarative-broad-focus_Marta-abre-el-regalo.wav,,,,,,,,,,,,,,,,,,,,,,406.4708,408.7976,0,1,1.7767,,0,79,79,55,1,0,cuban,,,,,,,,,,,,,,,,,,,,,,,,,,,,,,,,,,,,,,,,,,,,,,,,,,,,,,,,
,,,,,,,,,61075af85969d97b256603cc,Spanish,13 or older,"no, only English or Spanish",no,2025-07-23_00h45.01.998,empathy_intonation_perc,2024.2.4,MacIntel,64.1025641,61075af85969d97b256603cc,687ed1b7e638a4cbf2f02089,688068a1beb8f1fd6b81b00c,,,,,,,,,,,,,69,0,,./stim/wavs/castilian_mismatch_declarative-broad-focus_El-nino-oye-el-rio.wav,,,,,,,,,,,,,,,,,,,,,,408.7984,411.297,0,1,1.9684,,0,80,80,68,1,0,castilian,,,,,,,,,,,,,,,,,,,,,,,,,,,,,,,,,,,,,,,,,,,,,,,,,,,,,,,,
,,,,,,,,,61075af85969d97b256603cc,Spanish,13 or older,"no, only English or Spanish",no,2025-07-23_00h45.01.998,empathy_intonation_perc,2024.2.4,MacIntel,64.1025641,61075af85969d97b256603cc,687ed1b7e638a4cbf2f02089,688068a1beb8f1fd6b81b00c,,,,,,,,,,,,,74,0,,./stim/wavs/cuban_mismatch_declarative-broad-focus_El-bebe-comia-muy-bien.wav,,,,,,,,,,,,,,,,,,,,,,411.2976,413.6774,0,1,1.852,,0,81,81,73,1,0,cuban,,,,,,,,,,,,,,,,,,,,,,,,,,,,,,,,,,,,,,,,,,,,,,,,,,,,,,,,
,,,,,,,,,61075af85969d97b256603cc,Spanish,13 or older,"no, only English or Spanish",no,2025-07-23_00h45.01.998,empathy_intonation_perc,2024.2.4,MacIntel,64.1025641,61075af85969d97b256603cc,687ed1b7e638a4cbf2f02089,688068a1beb8f1fd6b81b00c,,,,,,,,,,,,,31,1,,./stim/wavs/cuban_mismatch_interrogative-total-yn_El-nino-oye-el-rio.wav,,,,,,,,,,,,,,,,,,,,,,413.6779,415.5254,0,0,1.3047,,0,82,82,30,1,1,cuban,,,,,,,,,,,,,,,,,,,,,,,,,,,,,,,,,,,,,,,,,,,,,,,,,,,,,,,,
,,,,,,,,,61075af85969d97b256603cc,Spanish,13 or older,"no, only English or Spanish",no,2025-07-23_00h45.01.998,empathy_intonation_perc,2024.2.4,MacIntel,64.1025641,61075af85969d97b256603cc,687ed1b7e638a4cbf2f02089,688068a1beb8f1fd6b81b00c,,,,,,,,,,,,,84,0,,./stim/wavs/puertorican_mismatch_declarative-broad-focus_El-bebe-comia-muy-bien.wav,,,,,,,,,,,,,,,,,,,,,,415.5262,417.4991,0,1,1.4471,,0,83,83,83,1,0,puertorican,,,,,,,,,,,,,,,,,,,,,,,,,,,,,,,,,,,,,,,,,,,,,,,,,,,,,,,,
,,,,,,,,,61075af85969d97b256603cc,Spanish,13 or older,"no, only English or Spanish",no,2025-07-23_00h45.01.998,empathy_intonation_perc,2024.2.4,MacIntel,64.1025641,61075af85969d97b256603cc,687ed1b7e638a4cbf2f02089,688068a1beb8f1fd6b81b00c,,,,,,,,,,,,,44,1,,./stim/wavs/puertorican_mismatch_interrogative-total-yn_Mi-madre-come-la-fruta.wav,,,,,,,,,,,,,,,,,,,,,,417.4998,419.6532,0,0,1.6307,,0,84,84,43,1,1,puertorican,,,,,,,,,,,,,,,,,,,,,,,,,,,,,,,,,,,,,,,,,,,,,,,,,,,,,,,,
,,,,,,,,,61075af85969d97b256603cc,Spanish,13 or older,"no, only English or Spanish",no,2025-07-23_00h45.01.998,empathy_intonation_perc,2024.2.4,MacIntel,64.1025641,61075af85969d97b256603cc,687ed1b7e638a4cbf2f02089,688068a1beb8f1fd6b81b00c,,,,,,,,,,,,,83,0,,./stim/wavs/mexican_mismatch_declarative-broad-focus_Mi-tia-odia-la-lluvia.wav,,,,,,,,,,,,,,,,,,,,,,419.654,421.6192,0,1,1.4157,,0,85,85,82,1,0,mexican,,,,,,,,,,,,,,,,,,,,,,,,,,,,,,,,,,,,,,,,,,,,,,,,,,,,,,,,
,,,,,,,,,61075af85969d97b256603cc,Spanish,13 or older,"no, only English or Spanish",no,2025-07-23_00h45.01.998,empathy_intonation_perc,2024.2.4,MacIntel,64.1025641,61075af85969d97b256603cc,687ed1b7e638a4cbf2f02089,688068a1beb8f1fd6b81b00c,,,,,,,,,,,,,1,1,,./stim/wavs/castilian_match_interrogative-total-yn_David-leia-el-libro.wav,,,,,,,,,,,,,,,,,,,,,,421.6197,423.8474,1,1,1.7165,,0,86,86,0,1,0,castilian,,,,,,,,,,,,,,,,,,,,,,,,,,,,,,,,,,,,,,,,,,,,,,,,,,,,,,,,
,,,,,,,,,61075af85969d97b256603cc,Spanish,13 or older,"no, only English or Spanish",no,2025-07-23_00h45.01.998,empathy_intonation_perc,2024.2.4,MacIntel,64.1025641,61075af85969d97b256603cc,687ed1b7e638a4cbf2f02089,688068a1beb8f1fd6b81b00c,,,,,,,,,,,,,66,0,,./stim/wavs/puertorican_match_declarative-broad-focus_Emilio-ama-la-marcha.wav,,,,,,,,,,,,,,,,,,,,,,423.8481,425.9353,0,1,1.5674,,0,87,87,65,1,0,puertorican,,,,,,,,,,,,,,,,,,,,,,,,,,,,,,,,,,,,,,,,,,,,,,,,,,,,,,,,
,,,,,,,"Great! Now we will move on. The next task consists of about 60 trials, in each of which you will see a string of letters. 
  
  Your task is to decide whether this is a real Spanish word or not.", (press the spacebar to continue),61075af85969d97b256603cc,Spanish,13 or older,"no, only English or Spanish",no,2025-07-23_00h45.01.998,empathy_intonation_perc,2024.2.4,MacIntel,64.1025641,61075af85969d97b256603cc,687ed1b7e638a4cbf2f02089,688068a1beb8f1fd6b81b00c,,,,,,,,,,,,,,,,,,,,,,,,,,,,,,,,,,,,,,,,,,,,,,,,,,,425.9443,431.9322,0,0,0,0,1,,,,,,,,,,,,,,,,,,,,,,,,,,,,,,,,,,,,,,,,,,,,,,,,,
,,,,,,,"If you think it is an existing Spanish word, you type '1' (for 'REAL'), and if you think it is not an existing Spanish word, you type '0' (for 'FAKE').", (press the spacebar to continue),61075af85969d97b256603cc,Spanish,13 or older,"no, only English or Spanish",no,2025-07-23_00h45.01.998,empathy_intonation_perc,2024.2.4,MacIntel,64.1025641,61075af85969d97b256603cc,687ed1b7e638a4cbf2f02089,688068a1beb8f1fd6b81b00c,,,,,,,,,,,,,,,,,,,,,,,,,,,,,,,,,,,,,,,,,,,,,,,,,,,431.9344,434.4532,0,1,1,1,1,,,,,,,,,,,,,,,,,,,,,,,,,,,,,,,,,,,,,,,,,,,,,,,,,
,,,,,,,"If you are sure that the word exists, even though you don’t know its exact meaning, you may still respond '1' (REAL). 
  
  But if you are not sure if it is an existing word, you should respond '0' (FAKE).
  
  Let's do a practice round...", (press the spacebar to continue),61075af85969d97b256603cc,Spanish,13 or older,"no, only English or Spanish",no,2025-07-23_00h45.01.998,empathy_intonation_perc,2024.2.4,MacIntel,64.1025641,61075af85969d97b256603cc,687ed1b7e638a4cbf2f02089,688068a1beb8f1fd6b81b00c,,,,,,,,,,,,,,,,,,,,,,,,,,,,,,,,,,,,,,,,,,,,,,,,,,,434.4554,439.121,0,2,2,2,1,,,,,,,,,,,,,,,,,,,,,,,,,,,,,,,,,,,,,,,,,,,,,,,,,
,,,,,,,,,61075af85969d97b256603cc,Spanish,13 or older,"no, only English or Spanish",no,2025-07-23_00h45.01.998,empathy_intonation_perc,2024.2.4,MacIntel,64.1025641,61075af85969d97b256603cc,687ed1b7e638a4cbf2f02089,688068a1beb8f1fd6b81b00c,,,,,,,,,,,,,,0,,,,,,,,,,,,,,,,,,,,,,,,,,,,,,,,,,,,,,,,,,,,439.1292,443.8802,0,1,4.2043,,443.8806,444.8769,0,0,0,0,1,0,depiste,REAL,FAKE,,,,,,,,,,,,,,,,,,,,,,,,,,,,,,,,
,,,,,,,,,61075af85969d97b256603cc,Spanish,13 or older,"no, only English or Spanish",no,2025-07-23_00h45.01.998,empathy_intonation_perc,2024.2.4,MacIntel,64.1025641,61075af85969d97b256603cc,687ed1b7e638a4cbf2f02089,688068a1beb8f1fd6b81b00c,,,,,,,,,,,,,,1,,,,,,,,,,,,,,,,,,,,,,,,,,,,,,,,,,,,,,,,,,,,444.8787,446.9197,1,1,1.5102,,446.9198,447.9152,0,1,1,1,1,0,sí,REAL,FAKE,,,,,,,,,,,,,,,,,,,,,,,,,,,,,,,,
,,,,,,,,,61075af85969d97b256603cc,Spanish,13 or older,"no, only English or Spanish",no,2025-07-23_00h45.01.998,empathy_intonation_perc,2024.2.4,MacIntel,64.1025641,61075af85969d97b256603cc,687ed1b7e638a4cbf2f02089,688068a1beb8f1fd6b81b00c,,,,,,,,,,,,,,0,,,,,,,,,,,,,,,,,,,,,,,,,,,,,,,,,,,,,,,,,,,,447.9167,451.6655,0,1,3.2022,,451.6656,452.6627,0,2,2,2,1,0,coné,REAL,FAKE,,,,,,,,,,,,,,,,,,,,,,,,,,,,,,,,
,,,,,,,,,61075af85969d97b256603cc,Spanish,13 or older,"no, only English or Spanish",no,2025-07-23_00h45.01.998,empathy_intonation_perc,2024.2.4,MacIntel,64.1025641,61075af85969d97b256603cc,687ed1b7e638a4cbf2f02089,688068a1beb8f1fd6b81b00c,,,,,,,,,,,,,,0,,,,,,,,,,,,,,,,,,,,,,,,,,,,,,,,,,,,,,,,,,,,452.664,455.1769,0,1,1.944,,455.1769,456.1691,0,3,3,3,1,0,calpar,REAL,FAKE,,,,,,,,,,,,,,,,,,,,,,,,,,,,,,,,
,,,,,,,,,61075af85969d97b256603cc,Spanish,13 or older,"no, only English or Spanish",no,2025-07-23_00h45.01.998,empathy_intonation_perc,2024.2.4,MacIntel,64.1025641,61075af85969d97b256603cc,687ed1b7e638a4cbf2f02089,688068a1beb8f1fd6b81b00c,,,,,,,,,,,,,,0,,,,,,,,,,,,,,,,,,,,,,,,,,,,,,,,,,,,,,,,,,,,456.1704,457.9802,0,1,1.2711,,457.9803,458.9785,0,4,4,4,1,0,joten,REAL,FAKE,,,,,,,,,,,,,,,,,,,,,,,,,,,,,,,,
,,,,,,,,,61075af85969d97b256603cc,Spanish,13 or older,"no, only English or Spanish",no,2025-07-23_00h45.01.998,empathy_intonation_perc,2024.2.4,MacIntel,64.1025641,61075af85969d97b256603cc,687ed1b7e638a4cbf2f02089,688068a1beb8f1fd6b81b00c,,,,,,,,,,,,,,1,,,,,,,,,,,,,,,,,,,,,,,,,,,,,,,,,,,,,,,,,,,,458.9798,462.2889,1,1,2.7689,,462.289,463.2675,0,5,5,5,1,0,sacapuntas,REAL,FAKE,,,,,,,,,,,,,,,,,,,,,,,,,,,,,,,,
,,,,,,,,,61075af85969d97b256603cc,Spanish,13 or older,"no, only English or Spanish",no,2025-07-23_00h45.01.998,empathy_intonation_perc,2024.2.4,MacIntel,64.1025641,61075af85969d97b256603cc,687ed1b7e638a4cbf2f02089,688068a1beb8f1fd6b81b00c,,,,,,,,,,,,,,0,,,,,,,,,,,,,,,,,,,,,,,,,,,,,,,,,,,,,,,,,,,,463.2691,466.3452,1,0,2.5391,,466.3462,467.3345,0,6,6,6,1,0,priba,REAL,FAKE,,,,,,,,,,,,,,,,,,,,,,,,,,,,,,,,
,,,,,,,,,61075af85969d97b256603cc,Spanish,13 or older,"no, only English or Spanish",no,2025-07-23_00h45.01.998,empathy_intonation_perc,2024.2.4,MacIntel,64.1025641,61075af85969d97b256603cc,687ed1b7e638a4cbf2f02089,688068a1beb8f1fd6b81b00c,,,,,,,,,,,,,,0,,,,,,,,,,,,,,,,,,,,,,,,,,,,,,,,,,,,,,,,,,,,467.3361,470.8041,1,0,2.9282,,470.8042,471.7935,0,7,7,7,1,0,pelasula,REAL,FAKE,,,,,,,,,,,,,,,,,,,,,,,,,,,,,,,,
,,,,,,,,,61075af85969d97b256603cc,Spanish,13 or older,"no, only English or Spanish",no,2025-07-23_00h45.01.998,empathy_intonation_perc,2024.2.4,MacIntel,64.1025641,61075af85969d97b256603cc,687ed1b7e638a4cbf2f02089,688068a1beb8f1fd6b81b00c,,,,,,,,,,,,,,1,,,,,,,,,,,,,,,,,,,,,,,,,,,,,,,,,,,,,,,,,,,,471.7949,473.3855,1,1,1.071,,473.3865,474.3791,0,8,8,8,1,0,bien,REAL,FAKE,,,,,,,,,,,,,,,,,,,,,,,,,,,,,,,,
,,,,,,,,,61075af85969d97b256603cc,Spanish,13 or older,"no, only English or Spanish",no,2025-07-23_00h45.01.998,empathy_intonation_perc,2024.2.4,MacIntel,64.1025641,61075af85969d97b256603cc,687ed1b7e638a4cbf2f02089,688068a1beb8f1fd6b81b00c,,,,,,,,,,,,,,1,,,,,,,,,,,,,,,,,,,,,,,,,,,,,,,,,,,,,,,,,,,,474.3805,476.1119,1,1,1.2097,,476.1119,477.1009,0,9,9,9,1,0,casa,REAL,FAKE,,,,,,,,,,,,,,,,,,,,,,,,,,,,,,,,
,,,,,,,,,61075af85969d97b256603cc,Spanish,13 or older,"no, only English or Spanish",no,2025-07-23_00h45.01.998,empathy_intonation_perc,2024.2.4,MacIntel,64.1025641,61075af85969d97b256603cc,687ed1b7e638a4cbf2f02089,688068a1beb8f1fd6b81b00c,,,,,,,,,,,,,,0,,,,,,,,,,,,,,,,,,,,,,,,,,,,,,,,,,,,,,,,,,,,477.1023,478.8423,1,0,1.2019,,478.8433,479.8634,0,10,10,10,1,0,lejo,REAL,FAKE,,,,,,,,,,,,,,,,,,,,,,,,,,,,,,,,
,,,,,,,,,61075af85969d97b256603cc,Spanish,13 or older,"no, only English or Spanish",no,2025-07-23_00h45.01.998,empathy_intonation_perc,2024.2.4,MacIntel,64.1025641,61075af85969d97b256603cc,687ed1b7e638a4cbf2f02089,688068a1beb8f1fd6b81b00c,,,,,,,,,,,,,,0,,,,,,,,,,,,,,,,,,,,,,,,,,,,,,,,,,,,,,,,,,,,479.8648,483.9098,0,1,3.5118,,483.9107,484.9088,0,11,11,11,1,0,pretantas,REAL,FAKE,,,,,,,,,,,,,,,,,,,,,,,,,,,,,,,,
,,,,,,,,,61075af85969d97b256603cc,Spanish,13 or older,"no, only English or Spanish",no,2025-07-23_00h45.01.998,empathy_intonation_perc,2024.2.4,MacIntel,64.1025641,61075af85969d97b256603cc,687ed1b7e638a4cbf2f02089,688068a1beb8f1fd6b81b00c,,,,,,,,,,,,,,,,,,,,,,,,,,,,,,,,,,,,,,,,,,,,,,,,,,,,,,,,,,,,,,,,,,,,,,,,,,,484.9092,486.9278,,,,,,,,,,,,,,,,,,,,,,,,,,,,,,
,,,,,,,,,61075af85969d97b256603cc,Spanish,13 or older,"no, only English or Spanish",no,2025-07-23_00h45.01.998,empathy_intonation_perc,2024.2.4,MacIntel,64.1025641,61075af85969d97b256603cc,687ed1b7e638a4cbf2f02089,688068a1beb8f1fd6b81b00c,,,,,,,,,,,,,,1,,,,,,,,,,,,,,,,,,,,,,,,,,,,,,,,,,,,,,,,,,,,,,,,,,,,,,,,,31,pandilla,,,,,486.9406,489.4754,1,1,2.0033,,0,0,0,30,1,REAL,FAKE,,,,,,,,,,,,,,,,,
,,,,,,,,,61075af85969d97b256603cc,Spanish,13 or older,"no, only English or Spanish",no,2025-07-23_00h45.01.998,empathy_intonation_perc,2024.2.4,MacIntel,64.1025641,61075af85969d97b256603cc,687ed1b7e638a4cbf2f02089,688068a1beb8f1fd6b81b00c,,,,,,,,,,,,,,1,,,,,,,,,,,,,,,,,,,,,,,,,,,,,,,,,,,,,,,,,,,,,,,,,,,,,,,,,11,cenefa,,,,,489.4767,491.7122,0,0,1.6591,,0,1,1,10,1,REAL,FAKE,,,,,,,,,,,,,,,,,
,,,,,,,,,61075af85969d97b256603cc,Spanish,13 or older,"no, only English or Spanish",no,2025-07-23_00h45.01.998,empathy_intonation_perc,2024.2.4,MacIntel,64.1025641,61075af85969d97b256603cc,687ed1b7e638a4cbf2f02089,688068a1beb8f1fd6b81b00c,,,,,,,,,,,,,,1,,,,,,,,,,,,,,,,,,,,,,,,,,,,,,,,,,,,,,,,,,,,,,,,,,,,,,,,,65,bizcocho,,,,,491.7133,493.583,0,0,1.311,,0,2,2,64,1,REAL,FAKE,,,,,,,,,,,,,,,,,
,,,,,,,,,61075af85969d97b256603cc,Spanish,13 or older,"no, only English or Spanish",no,2025-07-23_00h45.01.998,empathy_intonation_perc,2024.2.4,MacIntel,64.1025641,61075af85969d97b256603cc,687ed1b7e638a4cbf2f02089,688068a1beb8f1fd6b81b00c,,,,,,,,,,,,,,1,,,,,,,,,,,,,,,,,,,,,,,,,,,,,,,,,,,,,,,,,,,,,,,,,,,,,,,,,44,cuchara,,,,,493.5843,496.939,1,1,2.8368,,0,3,3,43,1,REAL,FAKE,,,,,,,,,,,,,,,,,
,,,,,,,,,61075af85969d97b256603cc,Spanish,13 or older,"no, only English or Spanish",no,2025-07-23_00h45.01.998,empathy_intonation_perc,2024.2.4,MacIntel,64.1025641,61075af85969d97b256603cc,687ed1b7e638a4cbf2f02089,688068a1beb8f1fd6b81b00c,,,,,,,,,,,,,,1,,,,,,,,,,,,,,,,,,,,,,,,,,,,,,,,,,,,,,,,,,,,,,,,,,,,,,,,,7,pésimo,,,,,496.9403,499.1574,1,1,1.6531,,0,4,4,6,1,REAL,FAKE,,,,,,,,,,,,,,,,,
,,,,,,,,,61075af85969d97b256603cc,Spanish,13 or older,"no, only English or Spanish",no,2025-07-23_00h45.01.998,empathy_intonation_perc,2024.2.4,MacIntel,64.1025641,61075af85969d97b256603cc,687ed1b7e638a4cbf2f02089,688068a1beb8f1fd6b81b00c,,,,,,,,,,,,,,1,,,,,,,,,,,,,,,,,,,,,,,,,,,,,,,,,,,,,,,,,,,,,,,,,,,,,,,,,22,lacayo,,,,,499.1584,501.6668,0,0,1.987,,0,5,5,21,1,REAL,FAKE,,,,,,,,,,,,,,,,,
,,,,,,,,,61075af85969d97b256603cc,Spanish,13 or older,"no, only English or Spanish",no,2025-07-23_00h45.01.998,empathy_intonation_perc,2024.2.4,MacIntel,64.1025641,61075af85969d97b256603cc,687ed1b7e638a4cbf2f02089,688068a1beb8f1fd6b81b00c,,,,,,,,,,,,,,1,,,,,,,,,,,,,,,,,,,,,,,,,,,,,,,,,,,,,,,,,,,,,,,,,,,,,,,,,13,helar,,,,,501.6678,503.4507,0,0,1.2479,,0,6,6,12,1,REAL,FAKE,,,,,,,,,,,,,,,,,
,,,,,,,,,61075af85969d97b256603cc,Spanish,13 or older,"no, only English or Spanish",no,2025-07-23_00h45.01.998,empathy_intonation_perc,2024.2.4,MacIntel,64.1025641,61075af85969d97b256603cc,687ed1b7e638a4cbf2f02089,688068a1beb8f1fd6b81b00c,,,,,,,,,,,,,,1,,,,,,,,,,,,,,,,,,,,,,,,,,,,,,,,,,,,,,,,,,,,,,,,,,,,,,,,,78,frondoso,,,,,503.4519,505.0805,0,0,1.084,,0,7,7,77,1,REAL,FAKE,,,,,,,,,,,,,,,,,
,,,,,,,,,61075af85969d97b256603cc,Spanish,13 or older,"no, only English or Spanish",no,2025-07-23_00h45.01.998,empathy_intonation_perc,2024.2.4,MacIntel,64.1025641,61075af85969d97b256603cc,687ed1b7e638a4cbf2f02089,688068a1beb8f1fd6b81b00c,,,,,,,,,,,,,,0,,,,,,,,,,,,,,,,,,,,,,,,,,,,,,,,,,,,,,,,,,,,,,,,,,,,,,,,,17,floroso,,,,,505.0819,506.7675,0,1,1.1523,,0,8,8,16,1,REAL,FAKE,,,,,,,,,,,,,,,,,
,,,,,,,,,61075af85969d97b256603cc,Spanish,13 or older,"no, only English or Spanish",no,2025-07-23_00h45.01.998,empathy_intonation_perc,2024.2.4,MacIntel,64.1025641,61075af85969d97b256603cc,687ed1b7e638a4cbf2f02089,688068a1beb8f1fd6b81b00c,,,,,,,,,,,,,,0,,,,,,,,,,,,,,,,,,,,,,,,,,,,,,,,,,,,,,,,,,,,,,,,,,,,,,,,,84,escuto,,,,,506.7685,508.7765,1,0,1.4685,,0,9,9,83,1,REAL,FAKE,,,,,,,,,,,,,,,,,
,,,,,,,,,61075af85969d97b256603cc,Spanish,13 or older,"no, only English or Spanish",no,2025-07-23_00h45.01.998,empathy_intonation_perc,2024.2.4,MacIntel,64.1025641,61075af85969d97b256603cc,687ed1b7e638a4cbf2f02089,688068a1beb8f1fd6b81b00c,,,,,,,,,,,,,,1,,,,,,,,,,,,,,,,,,,,,,,,,,,,,,,,,,,,,,,,,,,,,,,,,,,,,,,,,26,secuestro,,,,,508.7779,510.6602,0,0,1.3484,,0,10,10,25,1,REAL,FAKE,,,,,,,,,,,,,,,,,
,,,,,,,,,61075af85969d97b256603cc,Spanish,13 or older,"no, only English or Spanish",no,2025-07-23_00h45.01.998,empathy_intonation_perc,2024.2.4,MacIntel,64.1025641,61075af85969d97b256603cc,687ed1b7e638a4cbf2f02089,688068a1beb8f1fd6b81b00c,,,,,,,,,,,,,,0,,,,,,,,,,,,,,,,,,,,,,,,,,,,,,,,,,,,,,,,,,,,,,,,,,,,,,,,,8,cadeña,,,,,510.6615,512.8465,1,0,1.668,,0,11,11,7,1,REAL,FAKE,,,,,,,,,,,,,,,,,
,,,,,,,,,61075af85969d97b256603cc,Spanish,13 or older,"no, only English or Spanish",no,2025-07-23_00h45.01.998,empathy_intonation_perc,2024.2.4,MacIntel,64.1025641,61075af85969d97b256603cc,687ed1b7e638a4cbf2f02089,688068a1beb8f1fd6b81b00c,,,,,,,,,,,,,,1,,,,,,,,,,,,,,,,,,,,,,,,,,,,,,,,,,,,,,,,,,,,,,,,,,,,,,,,,20,ávido,,,,,512.8477,514.8585,1,1,1.4571,,0,12,12,19,1,REAL,FAKE,,,,,,,,,,,,,,,,,
,,,,,,,,,61075af85969d97b256603cc,Spanish,13 or older,"no, only English or Spanish",no,2025-07-23_00h45.01.998,empathy_intonation_perc,2024.2.4,MacIntel,64.1025641,61075af85969d97b256603cc,687ed1b7e638a4cbf2f02089,688068a1beb8f1fd6b81b00c,,,,,,,,,,,,,,1,,,,,,,,,,,,,,,,,,,,,,,,,,,,,,,,,,,,,,,,,,,,,,,,,,,,,,,,,52,camisa,,,,,514.8593,516.7127,1,1,1.3119,,0,13,13,51,1,REAL,FAKE,,,,,,,,,,,,,,,,,
,,,,,,,,,61075af85969d97b256603cc,Spanish,13 or older,"no, only English or Spanish",no,2025-07-23_00h45.01.998,empathy_intonation_perc,2024.2.4,MacIntel,64.1025641,61075af85969d97b256603cc,687ed1b7e638a4cbf2f02089,688068a1beb8f1fd6b81b00c,,,,,,,,,,,,,,1,,,,,,,,,,,,,,,,,,,,,,,,,,,,,,,,,,,,,,,,,,,,,,,,,,,,,,,,,60,matar,,,,,516.7138,518.8379,0,0,1.5643,,0,14,14,59,1,REAL,FAKE,,,,,,,,,,,,,,,,,
,,,,,,,,,61075af85969d97b256603cc,Spanish,13 or older,"no, only English or Spanish",no,2025-07-23_00h45.01.998,empathy_intonation_perc,2024.2.4,MacIntel,64.1025641,61075af85969d97b256603cc,687ed1b7e638a4cbf2f02089,688068a1beb8f1fd6b81b00c,,,,,,,,,,,,,,1,,,,,,,,,,,,,,,,,,,,,,,,,,,,,,,,,,,,,,,,,,,,,,,,,,,,,,,,,59,besar,,,,,518.8392,520.665,1,1,1.2781,,0,15,15,58,1,REAL,FAKE,,,,,,,,,,,,,,,,,
,,,,,,,,,61075af85969d97b256603cc,Spanish,13 or older,"no, only English or Spanish",no,2025-07-23_00h45.01.998,empathy_intonation_perc,2024.2.4,MacIntel,64.1025641,61075af85969d97b256603cc,687ed1b7e638a4cbf2f02089,688068a1beb8f1fd6b81b00c,,,,,,,,,,,,,,0,,,,,,,,,,,,,,,,,,,,,,,,,,,,,,,,,,,,,,,,,,,,,,,,,,,,,,,,,42,cadallo,,,,,520.6663,523.5064,1,0,2.322,,0,16,16,41,1,REAL,FAKE,,,,,,,,,,,,,,,,,
,,,,,,,,,61075af85969d97b256603cc,Spanish,13 or older,"no, only English or Spanish",no,2025-07-23_00h45.01.998,empathy_intonation_perc,2024.2.4,MacIntel,64.1025641,61075af85969d97b256603cc,687ed1b7e638a4cbf2f02089,688068a1beb8f1fd6b81b00c,,,,,,,,,,,,,,1,,,,,,,,,,,,,,,,,,,,,,,,,,,,,,,,,,,,,,,,,,,,,,,,,,,,,,,,,85,laúd,,,,,523.5077,525.1612,0,0,1.1213,,0,17,17,84,1,REAL,FAKE,,,,,,,,,,,,,,,,,
,,,,,,,,,61075af85969d97b256603cc,Spanish,13 or older,"no, only English or Spanish",no,2025-07-23_00h45.01.998,empathy_intonation_perc,2024.2.4,MacIntel,64.1025641,61075af85969d97b256603cc,687ed1b7e638a4cbf2f02089,688068a1beb8f1fd6b81b00c,,,,,,,,,,,,,,0,,,,,,,,,,,,,,,,,,,,,,,,,,,,,,,,,,,,,,,,,,,,,,,,,,,,,,,,,72,pemición,,,,,525.1627,528.0943,1,0,2.3957,,0,18,18,71,1,REAL,FAKE,,,,,,,,,,,,,,,,,
,,,,,,,,,61075af85969d97b256603cc,Spanish,13 or older,"no, only English or Spanish",no,2025-07-23_00h45.01.998,empathy_intonation_perc,2024.2.4,MacIntel,64.1025641,61075af85969d97b256603cc,687ed1b7e638a4cbf2f02089,688068a1beb8f1fd6b81b00c,,,,,,,,,,,,,,1,,,,,,,,,,,,,,,,,,,,,,,,,,,,,,,,,,,,,,,,,,,,,,,,,,,,,,,,,28,merodear,,,,,528.0954,530.4658,0,0,1.8501,,0,19,19,27,1,REAL,FAKE,,,,,,,,,,,,,,,,,
,,,,,,,,,61075af85969d97b256603cc,Spanish,13 or older,"no, only English or Spanish",no,2025-07-23_00h45.01.998,empathy_intonation_perc,2024.2.4,MacIntel,64.1025641,61075af85969d97b256603cc,687ed1b7e638a4cbf2f02089,688068a1beb8f1fd6b81b00c,,,,,,,,,,,,,,1,,,,,,,,,,,,,,,,,,,,,,,,,,,,,,,,,,,,,,,,,,,,,,,,,,,,,,,,,67,cabello,,,,,530.4668,534.8125,0,0,3.8007,,0,20,20,66,1,REAL,FAKE,,,,,,,,,,,,,,,,,
,,,,,,,,,61075af85969d97b256603cc,Spanish,13 or older,"no, only English or Spanish",no,2025-07-23_00h45.01.998,empathy_intonation_perc,2024.2.4,MacIntel,64.1025641,61075af85969d97b256603cc,687ed1b7e638a4cbf2f02089,688068a1beb8f1fd6b81b00c,,,,,,,,,,,,,,0,,,,,,,,,,,,,,,,,,,,,,,,,,,,,,,,,,,,,,,,,,,,,,,,,,,,,,,,,16,abracer,,,,,534.8141,537.9488,1,0,2.6195,,0,21,21,15,1,REAL,FAKE,,,,,,,,,,,,,,,,,
,,,,,,,,,61075af85969d97b256603cc,Spanish,13 or older,"no, only English or Spanish",no,2025-07-23_00h45.01.998,empathy_intonation_perc,2024.2.4,MacIntel,64.1025641,61075af85969d97b256603cc,687ed1b7e638a4cbf2f02089,688068a1beb8f1fd6b81b00c,,,,,,,,,,,,,,0,,,,,,,,,,,,,,,,,,,,,,,,,,,,,,,,,,,,,,,,,,,,,,,,,,,,,,,,,21,capillo,,,,,537.9499,540.6535,0,1,2.1657,,0,22,22,20,1,REAL,FAKE,,,,,,,,,,,,,,,,,
,,,,,,,,,61075af85969d97b256603cc,Spanish,13 or older,"no, only English or Spanish",no,2025-07-23_00h45.01.998,empathy_intonation_perc,2024.2.4,MacIntel,64.1025641,61075af85969d97b256603cc,687ed1b7e638a4cbf2f02089,688068a1beb8f1fd6b81b00c,,,,,,,,,,,,,,1,,,,,,,,,,,,,,,,,,,,,,,,,,,,,,,,,,,,,,,,,,,,,,,,,,,,,,,,,46,martillo,,,,,540.6548,542.4182,0,0,1.2104,,0,23,23,45,1,REAL,FAKE,,,,,,,,,,,,,,,,,
,,,,,,,,,61075af85969d97b256603cc,Spanish,13 or older,"no, only English or Spanish",no,2025-07-23_00h45.01.998,empathy_intonation_perc,2024.2.4,MacIntel,64.1025641,61075af85969d97b256603cc,687ed1b7e638a4cbf2f02089,688068a1beb8f1fd6b81b00c,,,,,,,,,,,,,,1,,,,,,,,,,,,,,,,,,,,,,,,,,,,,,,,,,,,,,,,,,,,,,,,,,,,,,,,,86,barato,,,,,542.4194,544.3444,1,1,1.3886,,0,24,24,85,1,REAL,FAKE,,,,,,,,,,,,,,,,,
,,,,,,,,,61075af85969d97b256603cc,Spanish,13 or older,"no, only English or Spanish",no,2025-07-23_00h45.01.998,empathy_intonation_perc,2024.2.4,MacIntel,64.1025641,61075af85969d97b256603cc,687ed1b7e638a4cbf2f02089,688068a1beb8f1fd6b81b00c,,,,,,,,,,,,,,1,,,,,,,,,,,,,,,,,,,,,,,,,,,,,,,,,,,,,,,,,,,,,,,,,,,,,,,,,90,clavel,,,,,544.3453,545.8332,0,0,0.9521,,0,25,25,89,1,REAL,FAKE,,,,,,,,,,,,,,,,,
,,,,,,,,,61075af85969d97b256603cc,Spanish,13 or older,"no, only English or Spanish",no,2025-07-23_00h45.01.998,empathy_intonation_perc,2024.2.4,MacIntel,64.1025641,61075af85969d97b256603cc,687ed1b7e638a4cbf2f02089,688068a1beb8f1fd6b81b00c,,,,,,,,,,,,,,1,,,,,,,,,,,,,,,,,,,,,,,,,,,,,,,,,,,,,,,,,,,,,,,,,,,,,,,,,41,rebuscar,,,,,545.8342,547.947,1,1,1.5929,,0,26,26,40,1,REAL,FAKE,,,,,,,,,,,,,,,,,
,,,,,,,,,61075af85969d97b256603cc,Spanish,13 or older,"no, only English or Spanish",no,2025-07-23_00h45.01.998,empathy_intonation_perc,2024.2.4,MacIntel,64.1025641,61075af85969d97b256603cc,687ed1b7e638a4cbf2f02089,688068a1beb8f1fd6b81b00c,,,,,,,,,,,,,,1,,,,,,,,,,,,,,,,,,,,,,,,,,,,,,,,,,,,,,,,,,,,,,,,,,,,,,,,,15,regar,,,,,547.948,549.7024,1,1,1.2075,,0,27,27,14,1,REAL,FAKE,,,,,,,,,,,,,,,,,
,,,,,,,,,61075af85969d97b256603cc,Spanish,13 or older,"no, only English or Spanish",no,2025-07-23_00h45.01.998,empathy_intonation_perc,2024.2.4,MacIntel,64.1025641,61075af85969d97b256603cc,687ed1b7e638a4cbf2f02089,688068a1beb8f1fd6b81b00c,,,,,,,,,,,,,,1,,,,,,,,,,,,,,,,,,,,,,,,,,,,,,,,,,,,,,,,,,,,,,,,,,,,,,,,,73,hervidor,,,,,549.7036,552.5792,1,1,2.3333,,0,28,28,72,1,REAL,FAKE,,,,,,,,,,,,,,,,,
,,,,,,,,,61075af85969d97b256603cc,Spanish,13 or older,"no, only English or Spanish",no,2025-07-23_00h45.01.998,empathy_intonation_perc,2024.2.4,MacIntel,64.1025641,61075af85969d97b256603cc,687ed1b7e638a4cbf2f02089,688068a1beb8f1fd6b81b00c,,,,,,,,,,,,,,0,,,,,,,,,,,,,,,,,,,,,,,,,,,,,,,,,,,,,,,,,,,,,,,,,,,,,,,,,70,temblo,,,,,552.5803,554.4972,0,1,1.3506,,0,29,29,69,1,REAL,FAKE,,,,,,,,,,,,,,,,,
,,,,,,,,,61075af85969d97b256603cc,Spanish,13 or older,"no, only English or Spanish",no,2025-07-23_00h45.01.998,empathy_intonation_perc,2024.2.4,MacIntel,64.1025641,61075af85969d97b256603cc,687ed1b7e638a4cbf2f02089,688068a1beb8f1fd6b81b00c,,,,,,,,,,,,,,1,,,,,,,,,,,,,,,,,,,,,,,,,,,,,,,,,,,,,,,,,,,,,,,,,,,,,,,,,45,jilguero,,,,,554.4984,555.8911,0,0,0.8308,,0,30,30,44,1,REAL,FAKE,,,,,,,,,,,,,,,,,
,,,,,,,,,61075af85969d97b256603cc,Spanish,13 or older,"no, only English or Spanish",no,2025-07-23_00h45.01.998,empathy_intonation_perc,2024.2.4,MacIntel,64.1025641,61075af85969d97b256603cc,687ed1b7e638a4cbf2f02089,688068a1beb8f1fd6b81b00c,,,,,,,,,,,,,,0,,,,,,,,,,,,,,,,,,,,,,,,,,,,,,,,,,,,,,,,,,,,,,,,,,,,,,,,,50,flamida,,,,,555.8921,557.4979,0,1,1.0631,,0,31,31,49,1,REAL,FAKE,,,,,,,,,,,,,,,,,
,,,,,,,,,61075af85969d97b256603cc,Spanish,13 or older,"no, only English or Spanish",no,2025-07-23_00h45.01.998,empathy_intonation_perc,2024.2.4,MacIntel,64.1025641,61075af85969d97b256603cc,687ed1b7e638a4cbf2f02089,688068a1beb8f1fd6b81b00c,,,,,,,,,,,,,,0,,,,,,,,,,,,,,,,,,,,,,,,,,,,,,,,,,,,,,,,,,,,,,,,,,,,,,,,,79,tropaje,,,,,557.4993,559.5173,0,1,1.4898,,0,32,32,78,1,REAL,FAKE,,,,,,,,,,,,,,,,,
,,,,,,,,,61075af85969d97b256603cc,Spanish,13 or older,"no, only English or Spanish",no,2025-07-23_00h45.01.998,empathy_intonation_perc,2024.2.4,MacIntel,64.1025641,61075af85969d97b256603cc,687ed1b7e638a4cbf2f02089,688068a1beb8f1fd6b81b00c,,,,,,,,,,,,,,0,,,,,,,,,,,,,,,,,,,,,,,,,,,,,,,,,,,,,,,,,,,,,,,,,,,,,,,,,82,empirador,,,,,559.5185,561.8894,1,0,1.8334,,0,33,33,81,1,REAL,FAKE,,,,,,,,,,,,,,,,,
,,,,,,,,,61075af85969d97b256603cc,Spanish,13 or older,"no, only English or Spanish",no,2025-07-23_00h45.01.998,empathy_intonation_perc,2024.2.4,MacIntel,64.1025641,61075af85969d97b256603cc,687ed1b7e638a4cbf2f02089,688068a1beb8f1fd6b81b00c,,,,,,,,,,,,,,1,,,,,,,,,,,,,,,,,,,,,,,,,,,,,,,,,,,,,,,,,,,,,,,,,,,,,,,,,54,fomentar,,,,,561.8904,563.3301,0,0,0.888,,0,34,34,53,1,REAL,FAKE,,,,,,,,,,,,,,,,,
,,,,,,,,,61075af85969d97b256603cc,Spanish,13 or older,"no, only English or Spanish",no,2025-07-23_00h45.01.998,empathy_intonation_perc,2024.2.4,MacIntel,64.1025641,61075af85969d97b256603cc,687ed1b7e638a4cbf2f02089,688068a1beb8f1fd6b81b00c,,,,,,,,,,,,,,1,,,,,,,,,,,,,,,,,,,,,,,,,,,,,,,,,,,,,,,,,,,,,,,,,,,,,,,,,37,granuja,,,,,563.331,564.8492,0,0,0.9563,,0,35,35,36,1,REAL,FAKE,,,,,,,,,,,,,,,,,
,,,,,,,,,61075af85969d97b256603cc,Spanish,13 or older,"no, only English or Spanish",no,2025-07-23_00h45.01.998,empathy_intonation_perc,2024.2.4,MacIntel,64.1025641,61075af85969d97b256603cc,687ed1b7e638a4cbf2f02089,688068a1beb8f1fd6b81b00c,,,,,,,,,,,,,,1,,,,,,,,,,,,,,,,,,,,,,,,,,,,,,,,,,,,,,,,,,,,,,,,,,,,,,,,,77,tiburón,,,,,564.8506,566.262,0,0,0.8906,,0,36,36,76,1,REAL,FAKE,,,,,,,,,,,,,,,,,
,,,,,,,,,61075af85969d97b256603cc,Spanish,13 or older,"no, only English or Spanish",no,2025-07-23_00h45.01.998,empathy_intonation_perc,2024.2.4,MacIntel,64.1025641,61075af85969d97b256603cc,687ed1b7e638a4cbf2f02089,688068a1beb8f1fd6b81b00c,,,,,,,,,,,,,,1,,,,,,,,,,,,,,,,,,,,,,,,,,,,,,,,,,,,,,,,,,,,,,,,,,,,,,,,,68,alegre,,,,,566.2635,569.2875,1,1,2.4981,,0,37,37,67,1,REAL,FAKE,,,,,,,,,,,,,,,,,
,,,,,,,,,61075af85969d97b256603cc,Spanish,13 or older,"no, only English or Spanish",no,2025-07-23_00h45.01.998,empathy_intonation_perc,2024.2.4,MacIntel,64.1025641,61075af85969d97b256603cc,687ed1b7e638a4cbf2f02089,688068a1beb8f1fd6b81b00c,,,,,,,,,,,,,,0,,,,,,,,,,,,,,,,,,,,,,,,,,,,,,,,,,,,,,,,,,,,,,,,,,,,,,,,,19,brecedad,,,,,569.2888,572.2552,0,1,2.4169,,0,38,38,18,1,REAL,FAKE,,,,,,,,,,,,,,,,,
,,,,,,,,,61075af85969d97b256603cc,Spanish,13 or older,"no, only English or Spanish",no,2025-07-23_00h45.01.998,empathy_intonation_perc,2024.2.4,MacIntel,64.1025641,61075af85969d97b256603cc,687ed1b7e638a4cbf2f02089,688068a1beb8f1fd6b81b00c,,,,,,,,,,,,,,1,,,,,,,,,,,,,,,,,,,,,,,,,,,,,,,,,,,,,,,,,,,,,,,,,,,,,,,,,83,guante,,,,,572.2565,574.4629,0,0,1.6596,,0,39,39,82,1,REAL,FAKE,,,,,,,,,,,,,,,,,
,,,,,,,,,61075af85969d97b256603cc,Spanish,13 or older,"no, only English or Spanish",no,2025-07-23_00h45.01.998,empathy_intonation_perc,2024.2.4,MacIntel,64.1025641,61075af85969d97b256603cc,687ed1b7e638a4cbf2f02089,688068a1beb8f1fd6b81b00c,,,,,,,,,,,,,,0,,,,,,,,,,,,,,,,,,,,,,,,,,,,,,,,,,,,,,,,,,,,,,,,,,,,,,,,,35,rompido,,,,,574.4642,576.7912,1,0,1.7834,,0,40,40,34,1,REAL,FAKE,,,,,,,,,,,,,,,,,
,,,,,,,,,61075af85969d97b256603cc,Spanish,13 or older,"no, only English or Spanish",no,2025-07-23_00h45.01.998,empathy_intonation_perc,2024.2.4,MacIntel,64.1025641,61075af85969d97b256603cc,687ed1b7e638a4cbf2f02089,688068a1beb8f1fd6b81b00c,,,,,,,,,,,,,,1,,,,,,,,,,,,,,,,,,,,,,,,,,,,,,,,,,,,,,,,,,,,,,,,,,,,,,,,,81,pozo,,,,,576.7925,578.4611,0,0,1.129,,0,41,41,80,1,REAL,FAKE,,,,,,,,,,,,,,,,,
,,,,,,,,,61075af85969d97b256603cc,Spanish,13 or older,"no, only English or Spanish",no,2025-07-23_00h45.01.998,empathy_intonation_perc,2024.2.4,MacIntel,64.1025641,61075af85969d97b256603cc,687ed1b7e638a4cbf2f02089,688068a1beb8f1fd6b81b00c,,,,,,,,,,,,,,0,,,,,,,,,,,,,,,,,,,,,,,,,,,,,,,,,,,,,,,,,,,,,,,,,,,,,,,,,30,alardio,,,,,578.4621,579.932,0,1,0.9219,,0,42,42,29,1,REAL,FAKE,,,,,,,,,,,,,,,,,
,,,,,,,,,61075af85969d97b256603cc,Spanish,13 or older,"no, only English or Spanish",no,2025-07-23_00h45.01.998,empathy_intonation_perc,2024.2.4,MacIntel,64.1025641,61075af85969d97b256603cc,687ed1b7e638a4cbf2f02089,688068a1beb8f1fd6b81b00c,,,,,,,,,,,,,,0,,,,,,,,,,,,,,,,,,,,,,,,,,,,,,,,,,,,,,,,,,,,,,,,,,,,,,,,,47,cartinar,,,,,579.9333,581.1026,0,1,0.6544,,0,43,43,46,1,REAL,FAKE,,,,,,,,,,,,,,,,,
,,,,,,,,,61075af85969d97b256603cc,Spanish,13 or older,"no, only English or Spanish",no,2025-07-23_00h45.01.998,empathy_intonation_perc,2024.2.4,MacIntel,64.1025641,61075af85969d97b256603cc,687ed1b7e638a4cbf2f02089,688068a1beb8f1fd6b81b00c,,,,,,,,,,,,,,0,,,,,,,,,,,,,,,,,,,,,,,,,,,,,,,,,,,,,,,,,,,,,,,,,,,,,,,,,74,cintro,,,,,581.1038,583.581,0,1,1.9378,,0,44,44,73,1,REAL,FAKE,,,,,,,,,,,,,,,,,
,,,,,,,,,61075af85969d97b256603cc,Spanish,13 or older,"no, only English or Spanish",no,2025-07-23_00h45.01.998,empathy_intonation_perc,2024.2.4,MacIntel,64.1025641,61075af85969d97b256603cc,687ed1b7e638a4cbf2f02089,688068a1beb8f1fd6b81b00c,,,,,,,,,,,,,,0,,,,,,,,,,,,,,,,,,,,,,,,,,,,,,,,,,,,,,,,,,,,,,,,,,,,,,,,,23,lampera,,,,,583.5821,585.9245,1,0,1.7941,,0,45,45,22,1,REAL,FAKE,,,,,,,,,,,,,,,,,
,,,,,,,,,61075af85969d97b256603cc,Spanish,13 or older,"no, only English or Spanish",no,2025-07-23_00h45.01.998,empathy_intonation_perc,2024.2.4,MacIntel,64.1025641,61075af85969d97b256603cc,687ed1b7e638a4cbf2f02089,688068a1beb8f1fd6b81b00c,,,,,,,,,,,,,,0,,,,,,,,,,,,,,,,,,,,,,,,,,,,,,,,,,,,,,,,,,,,,,,,,,,,,,,,,32,fatacidad,,,,,585.9259,591.5568,0,1,5.092,,0,46,46,31,1,REAL,FAKE,,,,,,,,,,,,,,,,,
,,,,,,,,,61075af85969d97b256603cc,Spanish,13 or older,"no, only English or Spanish",no,2025-07-23_00h45.01.998,empathy_intonation_perc,2024.2.4,MacIntel,64.1025641,61075af85969d97b256603cc,687ed1b7e638a4cbf2f02089,688068a1beb8f1fd6b81b00c,,,,,,,,,,,,,,0,,,,,,,,,,,,,,,,,,,,,,,,,,,,,,,,,,,,,,,,,,,,,,,,,,,,,,,,,63,esposante,,,,,591.5581,593.1518,0,1,1.0454,,0,47,47,62,1,REAL,FAKE,,,,,,,,,,,,,,,,,
,,,,,,,,,61075af85969d97b256603cc,Spanish,13 or older,"no, only English or Spanish",no,2025-07-23_00h45.01.998,empathy_intonation_perc,2024.2.4,MacIntel,64.1025641,61075af85969d97b256603cc,687ed1b7e638a4cbf2f02089,688068a1beb8f1fd6b81b00c,,,,,,,,,,,,,,1,,,,,,,,,,,,,,,,,,,,,,,,,,,,,,,,,,,,,,,,,,,,,,,,,,,,,,,,,88,acantilado,,,,,593.153,594.7877,0,0,1.0983,,0,48,48,87,1,REAL,FAKE,,,,,,,,,,,,,,,,,
,,,,,,,,,61075af85969d97b256603cc,Spanish,13 or older,"no, only English or Spanish",no,2025-07-23_00h45.01.998,empathy_intonation_perc,2024.2.4,MacIntel,64.1025641,61075af85969d97b256603cc,687ed1b7e638a4cbf2f02089,688068a1beb8f1fd6b81b00c,,,,,,,,,,,,,,1,,,,,,,,,,,,,,,,,,,,,,,,,,,,,,,,,,,,,,,,,,,,,,,,,,,,,,,,,62,flaco,,,,,594.7891,597.1271,1,1,1.8116,,0,49,49,61,1,REAL,FAKE,,,,,,,,,,,,,,,,,
,,,,,,,,,61075af85969d97b256603cc,Spanish,13 or older,"no, only English or Spanish",no,2025-07-23_00h45.01.998,empathy_intonation_perc,2024.2.4,MacIntel,64.1025641,61075af85969d97b256603cc,687ed1b7e638a4cbf2f02089,688068a1beb8f1fd6b81b00c,,,,,,,,,,,,,,0,,,,,,,,,,,,,,,,,,,,,,,,,,,,,,,,,,,,,,,,,,,,,,,,,,,,,,,,,33,pauca,,,,,597.1285,599.6474,0,1,1.9769,,0,50,50,32,1,REAL,FAKE,,,,,,,,,,,,,,,,,
,,,,,,,,,61075af85969d97b256603cc,Spanish,13 or older,"no, only English or Spanish",no,2025-07-23_00h45.01.998,empathy_intonation_perc,2024.2.4,MacIntel,64.1025641,61075af85969d97b256603cc,687ed1b7e638a4cbf2f02089,688068a1beb8f1fd6b81b00c,,,,,,,,,,,,,,1,,,,,,,,,,,,,,,,,,,,,,,,,,,,,,,,,,,,,,,,,,,,,,,,,,,,,,,,,76,atar,,,,,599.6486,600.9022,0,0,0.6895,,0,51,51,75,1,REAL,FAKE,,,,,,,,,,,,,,,,,
,,,,,,,,,61075af85969d97b256603cc,Spanish,13 or older,"no, only English or Spanish",no,2025-07-23_00h45.01.998,empathy_intonation_perc,2024.2.4,MacIntel,64.1025641,61075af85969d97b256603cc,687ed1b7e638a4cbf2f02089,688068a1beb8f1fd6b81b00c,,,,,,,,,,,,,,1,,,,,,,,,,,,,,,,,,,,,,,,,,,,,,,,,,,,,,,,,,,,,,,,,,,,,,,,,36,loro,,,,,600.9036,602.3105,0,0,0.8613,,0,52,52,35,1,REAL,FAKE,,,,,,,,,,,,,,,,,
,,,,,,,,,61075af85969d97b256603cc,Spanish,13 or older,"no, only English or Spanish",no,2025-07-23_00h45.01.998,empathy_intonation_perc,2024.2.4,MacIntel,64.1025641,61075af85969d97b256603cc,687ed1b7e638a4cbf2f02089,688068a1beb8f1fd6b81b00c,,,,,,,,,,,,,,1,,,,,,,,,,,,,,,,,,,,,,,,,,,,,,,,,,,,,,,,,,,,,,,,,,,,,,,,,89,prisa,,,,,602.3119,603.8665,0,0,1.0239,,0,53,53,88,1,REAL,FAKE,,,,,,,,,,,,,,,,,
,,,,,,,,,61075af85969d97b256603cc,Spanish,13 or older,"no, only English or Spanish",no,2025-07-23_00h45.01.998,empathy_intonation_perc,2024.2.4,MacIntel,64.1025641,61075af85969d97b256603cc,687ed1b7e638a4cbf2f02089,688068a1beb8f1fd6b81b00c,,,,,,,,,,,,,,0,,,,,,,,,,,,,,,,,,,,,,,,,,,,,,,,,,,,,,,,,,,,,,,,,,,,,,,,,53,vegada,,,,,603.8675,605.8651,0,1,1.4379,,0,54,54,52,1,REAL,FAKE,,,,,,,,,,,,,,,,,
,,,,,,,,,61075af85969d97b256603cc,Spanish,13 or older,"no, only English or Spanish",no,2025-07-23_00h45.01.998,empathy_intonation_perc,2024.2.4,MacIntel,64.1025641,61075af85969d97b256603cc,687ed1b7e638a4cbf2f02089,688068a1beb8f1fd6b81b00c,,,,,,,,,,,,,,1,,,,,,,,,,,,,,,,,,,,,,,,,,,,,,,,,,,,,,,,,,,,,,,,,,,,,,,,,64,orgulloso,,,,,605.8663,607.8034,0,0,1.3949,,0,55,55,63,1,REAL,FAKE,,,,,,,,,,,,,,,,,
,,,,,,,,,61075af85969d97b256603cc,Spanish,13 or older,"no, only English or Spanish",no,2025-07-23_00h45.01.998,empathy_intonation_perc,2024.2.4,MacIntel,64.1025641,61075af85969d97b256603cc,687ed1b7e638a4cbf2f02089,688068a1beb8f1fd6b81b00c,,,,,,,,,,,,,,1,,,,,,,,,,,,,,,,,,,,,,,,,,,,,,,,,,,,,,,,,,,,,,,,,,,,,,,,,39,torpe,,,,,607.8044,609.3128,0,0,0.9731,,0,56,56,38,1,REAL,FAKE,,,,,,,,,,,,,,,,,
,,,,,,,,,61075af85969d97b256603cc,Spanish,13 or older,"no, only English or Spanish",no,2025-07-23_00h45.01.998,empathy_intonation_perc,2024.2.4,MacIntel,64.1025641,61075af85969d97b256603cc,687ed1b7e638a4cbf2f02089,688068a1beb8f1fd6b81b00c,,,,,,,,,,,,,,1,,,,,,,,,,,,,,,,,,,,,,,,,,,,,,,,,,,,,,,,,,,,,,,,,,,,,,,,,48,ladrón,,,,,609.3139,610.5701,0,0,0.7128,,0,57,57,47,1,REAL,FAKE,,,,,,,,,,,,,,,,,
,,,,,,,,,61075af85969d97b256603cc,Spanish,13 or older,"no, only English or Spanish",no,2025-07-23_00h45.01.998,empathy_intonation_perc,2024.2.4,MacIntel,64.1025641,61075af85969d97b256603cc,687ed1b7e638a4cbf2f02089,688068a1beb8f1fd6b81b00c,,,,,,,,,,,,,,1,,,,,,,,,,,,,,,,,,,,,,,,,,,,,,,,,,,,,,,,,,,,,,,,,,,,,,,,,55,nevar,,,,,610.571,612.9875,1,1,1.8816,,0,58,58,54,1,REAL,FAKE,,,,,,,,,,,,,,,,,
,,,,,,,,,61075af85969d97b256603cc,Spanish,13 or older,"no, only English or Spanish",no,2025-07-23_00h45.01.998,empathy_intonation_perc,2024.2.4,MacIntel,64.1025641,61075af85969d97b256603cc,687ed1b7e638a4cbf2f02089,688068a1beb8f1fd6b81b00c,,,,,,,,,,,,,,1,,,,,,,,,,,,,,,,,,,,,,,,,,,,,,,,,,,,,,,,,,,,,,,,,,,,,,,,,5,zapato,,,,,612.9886,614.6979,1,1,1.1737,,0,59,59,4,1,REAL,FAKE,,,,,,,,,,,,,,,,,
,,,,,,,,,61075af85969d97b256603cc,Spanish,13 or older,"no, only English or Spanish",no,2025-07-23_00h45.01.998,empathy_intonation_perc,2024.2.4,MacIntel,64.1025641,61075af85969d97b256603cc,687ed1b7e638a4cbf2f02089,688068a1beb8f1fd6b81b00c,,,,,,,,,,,,,,0,,,,,,,,,,,,,,,,,,,,,,,,,,,,,,,,,,,,,,,,,,,,,,,,,,,,,,,,,10,antar,,,,,614.6988,616.5034,1,0,1.2448,,0,60,60,9,1,REAL,FAKE,,,,,,,,,,,,,,,,,
,,,,,,,,,61075af85969d97b256603cc,Spanish,13 or older,"no, only English or Spanish",no,2025-07-23_00h45.01.998,empathy_intonation_perc,2024.2.4,MacIntel,64.1025641,61075af85969d97b256603cc,687ed1b7e638a4cbf2f02089,688068a1beb8f1fd6b81b00c,,,,,,,,,,,,,,1,,,,,,,,,,,,,,,,,,,,,,,,,,,,,,,,,,,,,,,,,,,,,,,,,,,,,,,,,61,seda,,,,,616.5047,618.1629,0,0,1.1289,,0,61,61,60,1,REAL,FAKE,,,,,,,,,,,,,,,,,
,,,,,,,,,61075af85969d97b256603cc,Spanish,13 or older,"no, only English or Spanish",no,2025-07-23_00h45.01.998,empathy_intonation_perc,2024.2.4,MacIntel,64.1025641,61075af85969d97b256603cc,687ed1b7e638a4cbf2f02089,688068a1beb8f1fd6b81b00c,,,,,,,,,,,,,,1,,,,,,,,,,,,,,,,,,,,,,,,,,,,,,,,,,,,,,,,,,,,,,,,,,,,,,,,,71,polvoriento,,,,,618.1639,619.8443,0,0,1.1449,,0,62,62,70,1,REAL,FAKE,,,,,,,,,,,,,,,,,
,,,,,,,,,61075af85969d97b256603cc,Spanish,13 or older,"no, only English or Spanish",no,2025-07-23_00h45.01.998,empathy_intonation_perc,2024.2.4,MacIntel,64.1025641,61075af85969d97b256603cc,687ed1b7e638a4cbf2f02089,688068a1beb8f1fd6b81b00c,,,,,,,,,,,,,,1,,,,,,,,,,,,,,,,,,,,,,,,,,,,,,,,,,,,,,,,,,,,,,,,,,,,,,,,,9,hacha,,,,,619.8458,621.4982,0,0,1.1285,,0,63,63,8,1,REAL,FAKE,,,,,,,,,,,,,,,,,
,,,,,,,,,61075af85969d97b256603cc,Spanish,13 or older,"no, only English or Spanish",no,2025-07-23_00h45.01.998,empathy_intonation_perc,2024.2.4,MacIntel,64.1025641,61075af85969d97b256603cc,687ed1b7e638a4cbf2f02089,688068a1beb8f1fd6b81b00c,,,,,,,,,,,,,,1,,,,,,,,,,,,,,,,,,,,,,,,,,,,,,,,,,,,,,,,,,,,,,,,,,,,,,,,,57,tacaño,,,,,621.4994,623.7399,1,1,1.7238,,0,64,64,56,1,REAL,FAKE,,,,,,,,,,,,,,,,,
,,,,,,,,,61075af85969d97b256603cc,Spanish,13 or older,"no, only English or Spanish",no,2025-07-23_00h45.01.998,empathy_intonation_perc,2024.2.4,MacIntel,64.1025641,61075af85969d97b256603cc,687ed1b7e638a4cbf2f02089,688068a1beb8f1fd6b81b00c,,,,,,,,,,,,,,1,,,,,,,,,,,,,,,,,,,,,,,,,,,,,,,,,,,,,,,,,,,,,,,,,,,,,,,,,34,aviso,,,,,623.7411,625.406,1,1,1.1306,,0,65,65,33,1,REAL,FAKE,,,,,,,,,,,,,,,,,
,,,,,,,,,61075af85969d97b256603cc,Spanish,13 or older,"no, only English or Spanish",no,2025-07-23_00h45.01.998,empathy_intonation_perc,2024.2.4,MacIntel,64.1025641,61075af85969d97b256603cc,687ed1b7e638a4cbf2f02089,688068a1beb8f1fd6b81b00c,,,,,,,,,,,,,,1,,,,,,,,,,,,,,,,,,,,,,,,,,,,,,,,,,,,,,,,,,,,,,,,,,,,,,,,,14,yunque,,,,,625.4072,627.1278,0,0,1.1984,,0,66,66,13,1,REAL,FAKE,,,,,,,,,,,,,,,,,
,,,,,,,,,61075af85969d97b256603cc,Spanish,13 or older,"no, only English or Spanish",no,2025-07-23_00h45.01.998,empathy_intonation_perc,2024.2.4,MacIntel,64.1025641,61075af85969d97b256603cc,687ed1b7e638a4cbf2f02089,688068a1beb8f1fd6b81b00c,,,,,,,,,,,,,,1,,,,,,,,,,,,,,,,,,,,,,,,,,,,,,,,,,,,,,,,,,,,,,,,,,,,,,,,,69,engatusar,,,,,627.1291,629.048,0,0,1.3995,,0,67,67,68,1,REAL,FAKE,,,,,,,,,,,,,,,,,
,,,,,,,,,61075af85969d97b256603cc,Spanish,13 or older,"no, only English or Spanish",no,2025-07-23_00h45.01.998,empathy_intonation_perc,2024.2.4,MacIntel,64.1025641,61075af85969d97b256603cc,687ed1b7e638a4cbf2f02089,688068a1beb8f1fd6b81b00c,,,,,,,,,,,,,,0,,,,,,,,,,,,,,,,,,,,,,,,,,,,,,,,,,,,,,,,,,,,,,,,,,,,,,,,,1,terzo,,,,,629.0493,630.694,0,1,1.1099,,0,68,68,0,1,REAL,FAKE,,,,,,,,,,,,,,,,,
,,,,,,,,,61075af85969d97b256603cc,Spanish,13 or older,"no, only English or Spanish",no,2025-07-23_00h45.01.998,empathy_intonation_perc,2024.2.4,MacIntel,64.1025641,61075af85969d97b256603cc,687ed1b7e638a4cbf2f02089,688068a1beb8f1fd6b81b00c,,,,,,,,,,,,,,0,,,,,,,,,,,,,,,,,,,,,,,,,,,,,,,,,,,,,,,,,,,,,,,,,,,,,,,,,4,batillón,,,,,630.6952,631.9624,0,1,0.7431,,0,69,69,3,1,REAL,FAKE,,,,,,,,,,,,,,,,,
,,,,,,,,,61075af85969d97b256603cc,Spanish,13 or older,"no, only English or Spanish",no,2025-07-23_00h45.01.998,empathy_intonation_perc,2024.2.4,MacIntel,64.1025641,61075af85969d97b256603cc,687ed1b7e638a4cbf2f02089,688068a1beb8f1fd6b81b00c,,,,,,,,,,,,,,1,,,,,,,,,,,,,,,,,,,,,,,,,,,,,,,,,,,,,,,,,,,,,,,,,,,,,,,,,40,alfombra,,,,,631.9637,634.0908,0,0,1.5882,,0,70,70,39,1,REAL,FAKE,,,,,,,,,,,,,,,,,
,,,,,,,,,61075af85969d97b256603cc,Spanish,13 or older,"no, only English or Spanish",no,2025-07-23_00h45.01.998,empathy_intonation_perc,2024.2.4,MacIntel,64.1025641,61075af85969d97b256603cc,687ed1b7e638a4cbf2f02089,688068a1beb8f1fd6b81b00c,,,,,,,,,,,,,,1,,,,,,,,,,,,,,,,,,,,,,,,,,,,,,,,,,,,,,,,,,,,,,,,,,,,,,,,,25,bisagra,,,,,634.0922,637.3048,1,1,2.6904,,0,71,71,24,1,REAL,FAKE,,,,,,,,,,,,,,,,,
,,,,,,,,,61075af85969d97b256603cc,Spanish,13 or older,"no, only English or Spanish",no,2025-07-23_00h45.01.998,empathy_intonation_perc,2024.2.4,MacIntel,64.1025641,61075af85969d97b256603cc,687ed1b7e638a4cbf2f02089,688068a1beb8f1fd6b81b00c,,,,,,,,,,,,,,0,,,,,,,,,,,,,,,,,,,,,,,,,,,,,,,,,,,,,,,,,,,,,,,,,,,,,,,,,66,hacido,,,,,637.3056,639.0235,1,0,1.2031,,0,72,72,65,1,REAL,FAKE,,,,,,,,,,,,,,,,,
,,,,,,,,,61075af85969d97b256603cc,Spanish,13 or older,"no, only English or Spanish",no,2025-07-23_00h45.01.998,empathy_intonation_perc,2024.2.4,MacIntel,64.1025641,61075af85969d97b256603cc,687ed1b7e638a4cbf2f02089,688068a1beb8f1fd6b81b00c,,,,,,,,,,,,,,1,,,,,,,,,,,,,,,,,,,,,,,,,,,,,,,,,,,,,,,,,,,,,,,,,,,,,,,,,6,tergiversar,,,,,639.0244,640.2148,0,0,0.6452,,0,73,73,5,1,REAL,FAKE,,,,,,,,,,,,,,,,,
,,,,,,,,,61075af85969d97b256603cc,Spanish,13 or older,"no, only English or Spanish",no,2025-07-23_00h45.01.998,empathy_intonation_perc,2024.2.4,MacIntel,64.1025641,61075af85969d97b256603cc,687ed1b7e638a4cbf2f02089,688068a1beb8f1fd6b81b00c,,,,,,,,,,,,,,1,,,,,,,,,,,,,,,,,,,,,,,,,,,,,,,,,,,,,,,,,,,,,,,,,,,,,,,,,80,hormiga,,,,,640.2157,642.2407,0,0,1.4883,,0,74,74,79,1,REAL,FAKE,,,,,,,,,,,,,,,,,
,,,,,,,,,61075af85969d97b256603cc,Spanish,13 or older,"no, only English or Spanish",no,2025-07-23_00h45.01.998,empathy_intonation_perc,2024.2.4,MacIntel,64.1025641,61075af85969d97b256603cc,687ed1b7e638a4cbf2f02089,688068a1beb8f1fd6b81b00c,,,,,,,,,,,,,,1,,,,,,,,,,,,,,,,,,,,,,,,,,,,,,,,,,,,,,,,,,,,,,,,,,,,,,,,,3,pulmones,,,,,642.2418,643.5399,0,0,0.7544,,0,75,75,2,1,REAL,FAKE,,,,,,,,,,,,,,,,,
,,,,,,,,,61075af85969d97b256603cc,Spanish,13 or older,"no, only English or Spanish",no,2025-07-23_00h45.01.998,empathy_intonation_perc,2024.2.4,MacIntel,64.1025641,61075af85969d97b256603cc,687ed1b7e638a4cbf2f02089,688068a1beb8f1fd6b81b00c,,,,,,,,,,,,,,1,,,,,,,,,,,,,,,,,,,,,,,,,,,,,,,,,,,,,,,,,,,,,,,,,,,,,,,,,75,yacer,,,,,643.5413,645.4904,1,1,1.3877,,0,76,76,74,1,REAL,FAKE,,,,,,,,,,,,,,,,,
,,,,,,,,,61075af85969d97b256603cc,Spanish,13 or older,"no, only English or Spanish",no,2025-07-23_00h45.01.998,empathy_intonation_perc,2024.2.4,MacIntel,64.1025641,61075af85969d97b256603cc,687ed1b7e638a4cbf2f02089,688068a1beb8f1fd6b81b00c,,,,,,,,,,,,,,1,,,,,,,,,,,,,,,,,,,,,,,,,,,,,,,,,,,,,,,,,,,,,,,,,,,,,,,,,91,click the 1 key.,,,,,645.4919,647.8465,1,1,1.7906,,0,77,77,90,1,REAL,FAKE,,,,,,,,,,,,,,,,,
,,,,,,,,,61075af85969d97b256603cc,Spanish,13 or older,"no, only English or Spanish",no,2025-07-23_00h45.01.998,empathy_intonation_perc,2024.2.4,MacIntel,64.1025641,61075af85969d97b256603cc,687ed1b7e638a4cbf2f02089,688068a1beb8f1fd6b81b00c,,,,,,,,,,,,,,1,,,,,,,,,,,,,,,,,,,,,,,,,,,,,,,,,,,,,,,,,,,,,,,,,,,,,,,,,56,musgo,,,,,647.8473,649.604,0,0,1.2239,,0,78,78,55,1,REAL,FAKE,,,,,,,,,,,,,,,,,
,,,,,,,,,61075af85969d97b256603cc,Spanish,13 or older,"no, only English or Spanish",no,2025-07-23_00h45.01.998,empathy_intonation_perc,2024.2.4,MacIntel,64.1025641,61075af85969d97b256603cc,687ed1b7e638a4cbf2f02089,688068a1beb8f1fd6b81b00c,,,,,,,,,,,,,,0,,,,,,,,,,,,,,,,,,,,,,,,,,,,,,,,,,,,,,,,,,,,,,,,,,,,,,,,,92,click the 0 key.,,,,,649.6054,651.297,0,1,1.1462,,0,79,79,91,1,REAL,FAKE,,,,,,,,,,,,,,,,,
,,,,,,,,,61075af85969d97b256603cc,Spanish,13 or older,"no, only English or Spanish",no,2025-07-23_00h45.01.998,empathy_intonation_perc,2024.2.4,MacIntel,64.1025641,61075af85969d97b256603cc,687ed1b7e638a4cbf2f02089,688068a1beb8f1fd6b81b00c,,,,,,,,,,,,,,1,,,,,,,,,,,,,,,,,,,,,,,,,,,,,,,,,,,,,,,,,,,,,,,,,,,,,,,,,51,candado,,,,,651.2982,653.4219,0,0,1.6063,,0,80,80,50,1,REAL,FAKE,,,,,,,,,,,,,,,,,
,,,,,,,,,61075af85969d97b256603cc,Spanish,13 or older,"no, only English or Spanish",no,2025-07-23_00h45.01.998,empathy_intonation_perc,2024.2.4,MacIntel,64.1025641,61075af85969d97b256603cc,687ed1b7e638a4cbf2f02089,688068a1beb8f1fd6b81b00c,,,,,,,,,,,,,,1,,,,,,,,,,,,,,,,,,,,,,,,,,,,,,,,,,,,,,,,,,,,,,,,,,,,,,,,,49,ganar,,,,,653.4229,659.1563,0,0,5.1919,,0,81,81,48,1,REAL,FAKE,,,,,,,,,,,,,,,,,
,,,,,,,,,61075af85969d97b256603cc,Spanish,13 or older,"no, only English or Spanish",no,2025-07-23_00h45.01.998,empathy_intonation_perc,2024.2.4,MacIntel,64.1025641,61075af85969d97b256603cc,687ed1b7e638a4cbf2f02089,688068a1beb8f1fd6b81b00c,,,,,,,,,,,,,,1,,,,,,,,,,,,,,,,,,,,,,,,,,,,,,,,,,,,,,,,,,,,,,,,,,,,,,,,,43,canela,,,,,659.1572,661.8322,1,1,2.12,,0,82,82,42,1,REAL,FAKE,,,,,,,,,,,,,,,,,
,,,,,,,,,61075af85969d97b256603cc,Spanish,13 or older,"no, only English or Spanish",no,2025-07-23_00h45.01.998,empathy_intonation_perc,2024.2.4,MacIntel,64.1025641,61075af85969d97b256603cc,687ed1b7e638a4cbf2f02089,688068a1beb8f1fd6b81b00c,,,,,,,,,,,,,,0,,,,,,,,,,,,,,,,,,,,,,,,,,,,,,,,,,,,,,,,,,,,,,,,,,,,,,,,,18,arsa,,,,,661.8335,663.7389,0,1,1.3702,,0,83,83,17,1,REAL,FAKE,,,,,,,,,,,,,,,,,
,,,,,,,,,61075af85969d97b256603cc,Spanish,13 or older,"no, only English or Spanish",no,2025-07-23_00h45.01.998,empathy_intonation_perc,2024.2.4,MacIntel,64.1025641,61075af85969d97b256603cc,687ed1b7e638a4cbf2f02089,688068a1beb8f1fd6b81b00c,,,,,,,,,,,,,,0,,,,,,,,,,,,,,,,,,,,,,,,,,,,,,,,,,,,,,,,,,,,,,,,,,,,,,,,,29,decar,,,,,663.7399,665.3933,1,0,1.1241,,0,84,84,28,1,REAL,FAKE,,,,,,,,,,,,,,,,,
,,,,,,,,,61075af85969d97b256603cc,Spanish,13 or older,"no, only English or Spanish",no,2025-07-23_00h45.01.998,empathy_intonation_perc,2024.2.4,MacIntel,64.1025641,61075af85969d97b256603cc,687ed1b7e638a4cbf2f02089,688068a1beb8f1fd6b81b00c,,,,,,,,,,,,,,0,,,,,,,,,,,,,,,,,,,,,,,,,,,,,,,,,,,,,,,,,,,,,,,,,,,,,,,,,87,grodo,,,,,665.3944,668.2352,0,1,2.3003,,0,85,85,86,1,REAL,FAKE,,,,,,,,,,,,,,,,,
,,,,,,,,,61075af85969d97b256603cc,Spanish,13 or older,"no, only English or Spanish",no,2025-07-23_00h45.01.998,empathy_intonation_perc,2024.2.4,MacIntel,64.1025641,61075af85969d97b256603cc,687ed1b7e638a4cbf2f02089,688068a1beb8f1fd6b81b00c,,,,,,,,,,,,,,1,,,,,,,,,,,,,,,,,,,,,,,,,,,,,,,,,,,,,,,,,,,,,,,,,,,,,,,,,38,estornudar,,,,,668.2362,671.6048,1,1,2.8131,,0,86,86,37,1,REAL,FAKE,,,,,,,,,,,,,,,,,
,,,,,,,,,61075af85969d97b256603cc,Spanish,13 or older,"no, only English or Spanish",no,2025-07-23_00h45.01.998,empathy_intonation_perc,2024.2.4,MacIntel,64.1025641,61075af85969d97b256603cc,687ed1b7e638a4cbf2f02089,688068a1beb8f1fd6b81b00c,,,,,,,,,,,,,,1,,,,,,,,,,,,,,,,,,,,,,,,,,,,,,,,,,,,,,,,,,,,,,,,,,,,,,,,,2,pellizcar,,,,,671.6059,673.363,0,0,1.2021,,0,87,87,1,1,REAL,FAKE,,,,,,,,,,,,,,,,,
,,,,,,,,,61075af85969d97b256603cc,Spanish,13 or older,"no, only English or Spanish",no,2025-07-23_00h45.01.998,empathy_intonation_perc,2024.2.4,MacIntel,64.1025641,61075af85969d97b256603cc,687ed1b7e638a4cbf2f02089,688068a1beb8f1fd6b81b00c,,,,,,,,,,,,,,0,,,,,,,,,,,,,,,,,,,,,,,,,,,,,,,,,,,,,,,,,,,,,,,,,,,,,,,,,58,plaudir,,,,,673.3642,674.9031,0,1,1.02,,0,88,88,57,1,REAL,FAKE,,,,,,,,,,,,,,,,,
,,,,,,,,,61075af85969d97b256603cc,Spanish,13 or older,"no, only English or Spanish",no,2025-07-23_00h45.01.998,empathy_intonation_perc,2024.2.4,MacIntel,64.1025641,61075af85969d97b256603cc,687ed1b7e638a4cbf2f02089,688068a1beb8f1fd6b81b00c,,,,,,,,,,,,,,0,,,,,,,,,,,,,,,,,,,,,,,,,,,,,,,,,,,,,,,,,,,,,,,,,,,,,,,,,27,acutación,,,,,674.9043,676.5063,1,0,1.0841,,0,89,89,26,1,REAL,FAKE,,,,,,,,,,,,,,,,,
,,,,,,,,,61075af85969d97b256603cc,Spanish,13 or older,"no, only English or Spanish",no,2025-07-23_00h45.01.998,empathy_intonation_perc,2024.2.4,MacIntel,64.1025641,61075af85969d97b256603cc,687ed1b7e638a4cbf2f02089,688068a1beb8f1fd6b81b00c,,,,,,,,,,,,,,1,,,,,,,,,,,,,,,,,,,,,,,,,,,,,,,,,,,,,,,,,,,,,,,,,,,,,,,,,12,asesinato,,,,,676.5072,678.4394,0,0,1.38,,0,90,90,11,1,REAL,FAKE,,,,,,,,,,,,,,,,,
,,,,,,,,,61075af85969d97b256603cc,Spanish,13 or older,"no, only English or Spanish",no,2025-07-23_00h45.01.998,empathy_intonation_perc,2024.2.4,MacIntel,64.1025641,61075af85969d97b256603cc,687ed1b7e638a4cbf2f02089,688068a1beb8f1fd6b81b00c,,,,,,,,,,,,,,1,,,,,,,,,,,,,,,,,,,,,,,,,,,,,,,,,,,,,,,,,,,,,,,,,,,,,,,,,24,látigo,,,,,678.4404,681.9854,0,0,3.0164,,0,91,91,23,1,REAL,FAKE,,,,,,,,,,,,,,,,,
,,,,,,,,,61075af85969d97b256603cc,Spanish,13 or older,"no, only English or Spanish",no,2025-07-23_00h45.01.998,empathy_intonation_perc,2024.2.4,MacIntel,64.1025641,61075af85969d97b256603cc,687ed1b7e638a4cbf2f02089,688068a1beb8f1fd6b81b00c,,,,,,,,,,,,,,,,,,,,,,,,,,,,,,,,,,,,,,,,,,,,,,,,,,,,,,,,,,,,,,,,,,,,,,,,,,,,,,,,,,,,,,,,,,681.9861,687.8273,,,,,,,,,,,,,,,
,,,,,,,,,61075af85969d97b256603cc,Spanish,13 or older,"no, only English or Spanish",no,2025-07-23_00h45.01.998,empathy_intonation_perc,2024.2.4,MacIntel,64.1025641,61075af85969d97b256603cc,687ed1b7e638a4cbf2f02089,688068a1beb8f1fd6b81b00c,,,,,,,,,,,,,1,,,,,,,,,,,,,,,,,,,,,,,,,,,,,,,,,,,,,,,,,,,,,,,,,,,,,,,,,,,,,,,,,,,,,,,,,,,,,,,687.8414,693.1898,strongly agree,0,0,0,0,1,I can easily tell if someone else wants to enter a conversation.,1,0,1,0,,
,,,,,,,,,61075af85969d97b256603cc,Spanish,13 or older,"no, only English or Spanish",no,2025-07-23_00h45.01.998,empathy_intonation_perc,2024.2.4,MacIntel,64.1025641,61075af85969d97b256603cc,687ed1b7e638a4cbf2f02089,688068a1beb8f1fd6b81b00c,,,,,,,,,,,,,2,,,,,,,,,,,,,,,,,,,,,,,,,,,,,,,,,,,,,,,,,,,,,,,,,,,,,,,,,,,,,,,,,,,,,,,,,,,,,,,693.1913,695.0385,strongly agree,0,1,1,1,1,I prefer animals to humans.,0,1,0,0,,
,,,,,,,,,61075af85969d97b256603cc,Spanish,13 or older,"no, only English or Spanish",no,2025-07-23_00h45.01.998,empathy_intonation_perc,2024.2.4,MacIntel,64.1025641,61075af85969d97b256603cc,687ed1b7e638a4cbf2f02089,688068a1beb8f1fd6b81b00c,,,,,,,,,,,,,3,,,,,,,,,,,,,,,,,,,,,,,,,,,,,,,,,,,,,,,,,,,,,,,,,,,,,,,,,,,,,,,,,,,,,,,,,,,,,,,695.0401,699.2326,slightly agree,0,2,2,2,1,I try to keep up with the current trends and fashions.,0,1,0,0,,
,,,,,,,,,61075af85969d97b256603cc,Spanish,13 or older,"no, only English or Spanish",no,2025-07-23_00h45.01.998,empathy_intonation_perc,2024.2.4,MacIntel,64.1025641,61075af85969d97b256603cc,687ed1b7e638a4cbf2f02089,688068a1beb8f1fd6b81b00c,,,,,,,,,,,,,4,,,,,,,,,,,,,,,,,,,,,,,,,,,,,,,,,,,,,,,,,,,,,,,,,,,,,,,,,,,,,,,,,,,,,,,,,,,,,,,699.2345,707.1504,slightly disagree,0,3,3,3,1,"I find it difficult to explain to others things that I understand easily,   when they don't understand it first time.",1,0,0,1,,
,,,,,,,,,61075af85969d97b256603cc,Spanish,13 or older,"no, only English or Spanish",no,2025-07-23_00h45.01.998,empathy_intonation_perc,2024.2.4,MacIntel,64.1025641,61075af85969d97b256603cc,687ed1b7e638a4cbf2f02089,688068a1beb8f1fd6b81b00c,,,,,,,,,,,,,5,,,,,,,,,,,,,,,,,,,,,,,,,,,,,,,,,,,,,,,,,,,,,,,,,,,,,,,,,,,,,,,,,,,,,,,,,,,,,,,707.152,709.815,slightly agree,0,4,4,4,1,I dream most nights.,0,1,0,0,,
,,,,,,,,,61075af85969d97b256603cc,Spanish,13 or older,"no, only English or Spanish",no,2025-07-23_00h45.01.998,empathy_intonation_perc,2024.2.4,MacIntel,64.1025641,61075af85969d97b256603cc,687ed1b7e638a4cbf2f02089,688068a1beb8f1fd6b81b00c,,,,,,,,,,,,,6,,,,,,,,,,,,,,,,,,,,,,,,,,,,,,,,,,,,,,,,,,,,,,,,,,,,,,,,,,,,,,,,,,,,,,,,,,,,,,,709.8166,712.1674,strongly agree,0,5,5,5,1,I really enjoy caring for other people.,1,0,1,0,,
,,,,,,,,,61075af85969d97b256603cc,Spanish,13 or older,"no, only English or Spanish",no,2025-07-23_00h45.01.998,empathy_intonation_perc,2024.2.4,MacIntel,64.1025641,61075af85969d97b256603cc,687ed1b7e638a4cbf2f02089,688068a1beb8f1fd6b81b00c,,,,,,,,,,,,,7,,,,,,,,,,,,,,,,,,,,,,,,,,,,,,,,,,,,,,,,,,,,,,,,,,,,,,,,,,,,,,,,,,,,,,,,,,,,,,,712.169,717.1205,slightly disagree,0,6,6,6,1,I try to solve my own problems rather than discussing them with others.,0,1,0,0,,
,,,,,,,,,61075af85969d97b256603cc,Spanish,13 or older,"no, only English or Spanish",no,2025-07-23_00h45.01.998,empathy_intonation_perc,2024.2.4,MacIntel,64.1025641,61075af85969d97b256603cc,687ed1b7e638a4cbf2f02089,688068a1beb8f1fd6b81b00c,,,,,,,,,,,,,8,,,,,,,,,,,,,,,,,,,,,,,,,,,,,,,,,,,,,,,,,,,,,,,,,,,,,,,,,,,,,,,,,,,,,,,,,,,,,,,717.1223,725.3312,slightly disagree,0,7,7,7,1,I find it hard to know what to do in a social situation.,1,0,0,1,,
,,,,,,,,,61075af85969d97b256603cc,Spanish,13 or older,"no, only English or Spanish",no,2025-07-23_00h45.01.998,empathy_intonation_perc,2024.2.4,MacIntel,64.1025641,61075af85969d97b256603cc,687ed1b7e638a4cbf2f02089,688068a1beb8f1fd6b81b00c,,,,,,,,,,,,,9,,,,,,,,,,,,,,,,,,,,,,,,,,,,,,,,,,,,,,,,,,,,,,,,,,,,,,,,,,,,,,,,,,,,,,,,,,,,,,,725.3326,730.1346,slightly disagree,0,8,8,8,1,I am at my best first thing in the morning.,0,1,0,0,,
