instructions_exposure.started,instructions_exposure.stopped,instructions_exposure_loop.thisRepN,instructions_exposure_loop.thisTrialN,instructions_exposure_loop.thisN,instructions_exposure_loop.thisIndex,instructions_exposure_loop.ran,instructions_text,continue_text,participant_id,"What variety of Spanish are you most familiar with? (e.g., Peruvian, Spanish, Mexican)",At what age did you begin learning Spanish?,Are you proficient in any languages other than English/Spanish?,"Are you familiar with Caribbean (e.g., Caribbean, Puerto Rican) or Galician Spanish?",date,expName,psychopyVersion,OS,frameRate,id,study_id,session,trial_exposure.started,trial_exposure.stopped,key_resp_exposure.keys,key_resp_exposure.corr,key_resp_exposure.rt,key_resp_exposure.duration,key_resp.keys,exposure_loop.thisRepN,exposure_loop.thisTrialN,exposure_loop.thisN,exposure_loop.thisIndex,exposure_loop.ran,item_num,correct_response,question,path,duration,instructions_2afc.started,instructions_2afc.stopped,instructions_2afc_loop.thisRepN,instructions_2afc_loop.thisTrialN,instructions_2afc_loop.thisN,instructions_2afc_loop.thisIndex,instructions_2afc_loop.ran,practice_2afc.started,practice_2afc.stopped,key_resp_2afc_practice.keys,key_resp_2afc_practice.corr,key_resp_2afc_practice.rt,key_resp_2afc_practice.duration,trials_2afc_practice_loop.thisRepN,trials_2afc_practice_loop.thisTrialN,trials_2afc_practice_loop.thisN,trials_2afc_practice_loop.thisIndex,trials_2afc_practice_loop.ran,check_2afc.started,check_2afc.stopped,trial_2afc.started,trial_2afc.stopped,key_resp_2afc_trial.keys,key_resp_2afc_trial.corr,key_resp_2afc_trial.rt,key_resp_2afc_trial.duration,trials_2afc_loop.thisRepN,trials_2afc_loop.thisTrialN,trials_2afc_loop.thisN,trials_2afc_loop.thisIndex,trials_2afc_loop.ran,target,variety,instructions_lextale.started,instructions_lextale.stopped,instructions_lextale_loop.thisRepN,instructions_lextale_loop.thisTrialN,instructions_lextale_loop.thisN,instructions_lextale_loop.thisIndex,instructions_lextale_loop.ran,practice_lextale.started,practice_lextale.stopped,key_resp_lextale_practice.keys,key_resp_lextale_practice.corr,key_resp_lextale_practice.rt,key_resp_lextale_practice.duration,practice_feedback_lextale.started,practice_feedback_lextale.stopped,trials_lextale_practice_loop.thisRepN,trials_lextale_practice_loop.thisTrialN,trials_lextale_practice_loop.thisN,trials_lextale_practice_loop.thisIndex,trials_lextale_practice_loop.ran,stim,word,prac_button_real,prac_button_false,check_lextale.started,check_lextale.stopped,trial_lextale.started,trial_lextale.stopped,key_resp_lextale_trial.keys,key_resp_lextale_trial.corr,key_resp_lextale_trial.rt,key_resp_lextale_trial.duration,trials_lextale_loop.thisRepN,trials_lextale_loop.thisTrialN,trials_lextale_loop.thisN,trials_lextale_loop.thisIndex,trials_lextale_loop.ran,button_real,button_false,instructions_eq.started,instructions_eq.stopped,trial_eq.started,trial_eq.stopped,slider_eq_trial.response,trials_eq_loop.thisRepN,trials_eq_loop.thisTrialN,trials_eq_loop.thisN,trials_eq_loop.thisIndex,trials_eq_loop.ran,item,is_test_item,is_distractor,is_agree_score,is_disagree_score,end_exp.started,end_exp.stopped
0.0351,3.3183,0,0,0,0,1,"In the following task, you are going to hear a series of conversations.", (press the space bar to continue),610acd05a1f63b626b20ee3a,Spanish,13 or older,"no, only English or Spanish",no,2025-08-15_09h58.46.843,empathy_intonation_perc,2024.2.4,MacIntel,59.84082341,610acd05a1f63b626b20ee3a,689ed6d1281858f68c932c05,689f3bd689e93f4eae3dae5f,,,,,,,,,,,,,,,,,,,,,,,,,,,,,,,,,,,,,,,,,,,,,,,,,,,,,,,,,,,,,,,,,,,,,,,,,,,,,,,,,,,,,,,,,,,,,,,,,,,,,,,,,,
3.3194,4.5544,0,1,1,1,1,It is okay if you don't not 100% understand them!, (press the space bar to continue),610acd05a1f63b626b20ee3a,Spanish,13 or older,"no, only English or Spanish",no,2025-08-15_09h58.46.843,empathy_intonation_perc,2024.2.4,MacIntel,59.84082341,610acd05a1f63b626b20ee3a,689ed6d1281858f68c932c05,689f3bd689e93f4eae3dae5f,,,,,,,,,,,,,,,,,,,,,,,,,,,,,,,,,,,,,,,,,,,,,,,,,,,,,,,,,,,,,,,,,,,,,,,,,,,,,,,,,,,,,,,,,,,,,,,,,,,,,,,,,,
4.558,6.5769,0,2,2,2,1,"After, you will read a sentence about the conversation and decide if it's true or false.", (press the space bar to continue),610acd05a1f63b626b20ee3a,Spanish,13 or older,"no, only English or Spanish",no,2025-08-15_09h58.46.843,empathy_intonation_perc,2024.2.4,MacIntel,59.84082341,610acd05a1f63b626b20ee3a,689ed6d1281858f68c932c05,689f3bd689e93f4eae3dae5f,,,,,,,,,,,,,,,,,,,,,,,,,,,,,,,,,,,,,,,,,,,,,,,,,,,,,,,,,,,,,,,,,,,,,,,,,,,,,,,,,,,,,,,,,,,,,,,,,,,,,,,,,,
6.579,12.2905,0,3,3,3,1,"If it's true, press '1' (True) and if it's false press '0' (False).", (press the space bar to continue),610acd05a1f63b626b20ee3a,Spanish,13 or older,"no, only English or Spanish",no,2025-08-15_09h58.46.843,empathy_intonation_perc,2024.2.4,MacIntel,59.84082341,610acd05a1f63b626b20ee3a,689ed6d1281858f68c932c05,689f3bd689e93f4eae3dae5f,,,,,,,,,,,,,,,,,,,,,,,,,,,,,,,,,,,,,,,,,,,,,,,,,,,,,,,,,,,,,,,,,,,,,,,,,,,,,,,,,,,,,,,,,,,,,,,,,,,,,,,,,,
,,,,,,,,,610acd05a1f63b626b20ee3a,Spanish,13 or older,"no, only English or Spanish",no,2025-08-15_09h58.46.843,empathy_intonation_perc,2024.2.4,MacIntel,59.84082341,610acd05a1f63b626b20ee3a,689ed6d1281858f68c932c05,689f3bd689e93f4eae3dae5f,12.3035,52.0997,0,1,3.7655,,,0,0,0,2,1,3,0,The mom already has rice.,./stim/exposure_wavs/pr_stimuli_convo.wav,36,,,,,,,,,,,,,,,,,,,,,,,,,,,,,,,,,,,,,,,,,,,,,,,,,,,,,,,,,,,,,,,,,,,,,,,,,,,,,,,,,,,,,,,,,
,,,,,,,,,610acd05a1f63b626b20ee3a,Spanish,13 or older,"no, only English or Spanish",no,2025-08-15_09h58.46.843,empathy_intonation_perc,2024.2.4,MacIntel,59.84082341,610acd05a1f63b626b20ee3a,689ed6d1281858f68c932c05,689f3bd689e93f4eae3dae5f,52.1021,101.9647,0,0,2.8346,,,0,1,1,0,1,1,1,The son asked the mom if Aunt Marina is okay.,./stim/exposure_wavs/ga_stimuli_convo.wav,47,,,,,,,,,,,,,,,,,,,,,,,,,,,,,,,,,,,,,,,,,,,,,,,,,,,,,,,,,,,,,,,,,,,,,,,,,,,,,,,,,,,,,,,,,
,,,,,,,,,610acd05a1f63b626b20ee3a,Spanish,13 or older,"no, only English or Spanish",no,2025-08-15_09h58.46.843,empathy_intonation_perc,2024.2.4,MacIntel,59.84082341,610acd05a1f63b626b20ee3a,689ed6d1281858f68c932c05,689f3bd689e93f4eae3dae5f,101.9674,165.5352,0,0,3.5567,,,0,2,2,1,1,2,1,The mom asked the daughter if she already went to the supermarket.,./stim/exposure_wavs/dr_stimuli_convo.wav,60,,,,,,,,,,,,,,,,,,,,,,,,,,,,,,,,,,,,,,,,,,,,,,,,,,,,,,,,,,,,,,,,,,,,,,,,,,,,,,,,,,,,,,,,,
,,,,,,,"In the following task you are going to hear a series of utterances. 

  You will decide if the utterances sound like questions or not using your keyboard.", (press the spacebar to continue),610acd05a1f63b626b20ee3a,Spanish,13 or older,"no, only English or Spanish",no,2025-08-15_09h58.46.843,empathy_intonation_perc,2024.2.4,MacIntel,59.84082341,610acd05a1f63b626b20ee3a,689ed6d1281858f68c932c05,689f3bd689e93f4eae3dae5f,,,,,,,,,,,,,,,,,,165.542,169.7969,0,0,0,0,1,,,,,,,,,,,,,,,,,,,,,,,,,,,,,,,,,,,,,,,,,,,,,,,,,,,,,,,,,,,,,,,,,,,,,,,,,,,,,,,,,,
,,,,,,,"If you believe the utterance is a question, type '1' (for 'yes') and if you do not 
  believe it is a question type '0' (for 'no').

  Let's practice a bit...", (press the spacebar to continue),610acd05a1f63b626b20ee3a,Spanish,13 or older,"no, only English or Spanish",no,2025-08-15_09h58.46.843,empathy_intonation_perc,2024.2.4,MacIntel,59.84082341,610acd05a1f63b626b20ee3a,689ed6d1281858f68c932c05,689f3bd689e93f4eae3dae5f,,,,,,,,,,,,,,,,,,169.799,177.1663,0,1,1,1,1,,,,,,,,,,,,,,,,,,,,,,,,,,,,,,,,,,,,,,,,,,,,,,,,,,,,,,,,,,,,,,,,,,,,,,,,,,,,,,,,,,
,,,,,,,,,610acd05a1f63b626b20ee3a,Spanish,13 or older,"no, only English or Spanish",no,2025-08-15_09h58.46.843,empathy_intonation_perc,2024.2.4,MacIntel,59.84082341,610acd05a1f63b626b20ee3a,689ed6d1281858f68c932c05,689f3bd689e93f4eae3dae5f,,,,,,,,,,,,,,0,,./stim/wavs/andalusian_statement_filler_Alberto-nunca-se-afeita.wav,,,,,,,,,177.1742,180.5907,0,1,2.8979,,0,0,0,5,1,,,,,,,,,,,,,,,,,,,,,,,,,,,,,,,,,,,,,,,,,,,,,,,,,,,,,,,,,,,,,,,,,,,,,,,
,,,,,,,,,610acd05a1f63b626b20ee3a,Spanish,13 or older,"no, only English or Spanish",no,2025-08-15_09h58.46.843,empathy_intonation_perc,2024.2.4,MacIntel,59.84082341,610acd05a1f63b626b20ee3a,689ed6d1281858f68c932c05,689f3bd689e93f4eae3dae5f,,,,,,,,,,,,,,1,,./stim/wavs/argentine_question_filler_Mi-vecino-habla-mucho.wav,,,,,,,,,180.5912,183.6325,1,1,2.5231,,0,1,1,1,1,,,,,,,,,,,,,,,,,,,,,,,,,,,,,,,,,,,,,,,,,,,,,,,,,,,,,,,,,,,,,,,,,,,,,,,
,,,,,,,,,610acd05a1f63b626b20ee3a,Spanish,13 or older,"no, only English or Spanish",no,2025-08-15_09h58.46.843,empathy_intonation_perc,2024.2.4,MacIntel,59.84082341,610acd05a1f63b626b20ee3a,689ed6d1281858f68c932c05,689f3bd689e93f4eae3dae5f,,,,,,,,,,,,,,0,,./stim/wavs/cuban_statement_filler_Cocinabas-por-la-noche.wav,,,,,,,,,183.6335,186.2895,0,1,2.1386,,0,2,2,4,1,,,,,,,,,,,,,,,,,,,,,,,,,,,,,,,,,,,,,,,,,,,,,,,,,,,,,,,,,,,,,,,,,,,,,,,
,,,,,,,,,610acd05a1f63b626b20ee3a,Spanish,13 or older,"no, only English or Spanish",no,2025-08-15_09h58.46.843,empathy_intonation_perc,2024.2.4,MacIntel,59.84082341,610acd05a1f63b626b20ee3a,689ed6d1281858f68c932c05,689f3bd689e93f4eae3dae5f,,,,,,,,,,,,,,1,,./stim/wavs/chilean_question_filler_Mi-padre-cantaba-bien.wav,,,,,,,,,186.2904,188.898,0,0,2.095,,0,3,3,2,1,,,,,,,,,,,,,,,,,,,,,,,,,,,,,,,,,,,,,,,,,,,,,,,,,,,,,,,,,,,,,,,,,,,,,,,
,,,,,,,,,610acd05a1f63b626b20ee3a,Spanish,13 or older,"no, only English or Spanish",no,2025-08-15_09h58.46.843,empathy_intonation_perc,2024.2.4,MacIntel,59.84082341,610acd05a1f63b626b20ee3a,689ed6d1281858f68c932c05,689f3bd689e93f4eae3dae5f,,,,,,,,,,,,,,0,,./stim/wavs/peruvian_statement_filler_El-nino-habla-con-su-madre.wav,,,,,,,,,188.8985,192.037,0,1,2.6072,,0,4,4,6,1,,,,,,,,,,,,,,,,,,,,,,,,,,,,,,,,,,,,,,,,,,,,,,,,,,,,,,,,,,,,,,,,,,,,,,,
,,,,,,,,,610acd05a1f63b626b20ee3a,Spanish,13 or older,"no, only English or Spanish",no,2025-08-15_09h58.46.843,empathy_intonation_perc,2024.2.4,MacIntel,59.84082341,610acd05a1f63b626b20ee3a,689ed6d1281858f68c932c05,689f3bd689e93f4eae3dae5f,,,,,,,,,,,,,,1,,./stim/wavs/castilian_question_filler_Mi-esposo-conoce-al-chico.wav,,,,,,,,,192.0379,195.1637,1,1,2.6071,,0,5,5,0,1,,,,,,,,,,,,,,,,,,,,,,,,,,,,,,,,,,,,,,,,,,,,,,,,,,,,,,,,,,,,,,,,,,,,,,,
,,,,,,,,,610acd05a1f63b626b20ee3a,Spanish,13 or older,"no, only English or Spanish",no,2025-08-15_09h58.46.843,empathy_intonation_perc,2024.2.4,MacIntel,59.84082341,610acd05a1f63b626b20ee3a,689ed6d1281858f68c932c05,689f3bd689e93f4eae3dae5f,,,,,,,,,,,,,,1,,./stim/wavs/mexican_question_filler_Felipe-no-tiene-contrasena.wav,,,,,,,,,195.1647,197.8883,1,1,2.2061,,0,6,6,3,1,,,,,,,,,,,,,,,,,,,,,,,,,,,,,,,,,,,,,,,,,,,,,,,,,,,,,,,,,,,,,,,,,,,,,,,
,,,,,,,,,610acd05a1f63b626b20ee3a,Spanish,13 or older,"no, only English or Spanish",no,2025-08-15_09h58.46.843,empathy_intonation_perc,2024.2.4,MacIntel,59.84082341,610acd05a1f63b626b20ee3a,689ed6d1281858f68c932c05,689f3bd689e93f4eae3dae5f,,,,,,,,,,,,,,0,,./stim/wavs/puertorican_statement_filler_La-nina-pinta-con-su-amiga.wav,,,,,,,,,197.8891,200.7277,0,1,2.3162,,0,7,7,7,1,,,,,,,,,,,,,,,,,,,,,,,,,,,,,,,,,,,,,,,,,,,,,,,,,,,,,,,,,,,,,,,,,,,,,,,
,,,,,,,,,610acd05a1f63b626b20ee3a,Spanish,13 or older,"no, only English or Spanish",no,2025-08-15_09h58.46.843,empathy_intonation_perc,2024.2.4,MacIntel,59.84082341,610acd05a1f63b626b20ee3a,689ed6d1281858f68c932c05,689f3bd689e93f4eae3dae5f,,,,,,,,,,,,,,,,,,,,,,,,,,,,,,,,,,,,200.7289,203.0022,,,,,,,,,,,,,,,,,,,,,,,,,,,,,,,,,,,,,,,,,,,,,,,,,,,,,,,,,,,,,,,,,,,,,
,,,,,,,,,610acd05a1f63b626b20ee3a,Spanish,13 or older,"no, only English or Spanish",no,2025-08-15_09h58.46.843,empathy_intonation_perc,2024.2.4,MacIntel,59.84082341,610acd05a1f63b626b20ee3a,689ed6d1281858f68c932c05,689f3bd689e93f4eae3dae5f,,,,,,,,,,,,,8,1,,./stim/wavs/cuban_match_interrogative-total-yn_Daniel-iba-a-Bolivia.wav,,,,,,,,,,,,,,,,,,,,,,203.013,206.0423,0,0,2.5141,,0,0,0,7,1,1,cuban,,,,,,,,,,,,,,,,,,,,,,,,,,,,,,,,,,,,,,,,,,,,,,,,,,,,,,,,
,,,,,,,,,610acd05a1f63b626b20ee3a,Spanish,13 or older,"no, only English or Spanish",no,2025-08-15_09h58.46.843,empathy_intonation_perc,2024.2.4,MacIntel,59.84082341,610acd05a1f63b626b20ee3a,689ed6d1281858f68c932c05,689f3bd689e93f4eae3dae5f,,,,,,,,,,,,,45,0,,./stim/wavs/castilian_match_declarative-broad-focus_David-leia-el-libro.wav,,,,,,,,,,,,,,,,,,,,,,206.0432,208.3646,0,1,1.7986,,0,1,1,44,1,0,castilian,,,,,,,,,,,,,,,,,,,,,,,,,,,,,,,,,,,,,,,,,,,,,,,,,,,,,,,,
,,,,,,,,,610acd05a1f63b626b20ee3a,Spanish,13 or older,"no, only English or Spanish",no,2025-08-15_09h58.46.843,empathy_intonation_perc,2024.2.4,MacIntel,59.84082341,610acd05a1f63b626b20ee3a,689ed6d1281858f68c932c05,689f3bd689e93f4eae3dae5f,,,,,,,,,,,,,23,1,,./stim/wavs/puertorican_match_interrogative-total-yn_Manuela-vende-el-carro.wav,,,,,,,,,,,,,,,,,,,,,,208.3654,211.0058,1,1,2.1206,,0,2,2,22,1,1,puertorican,,,,,,,,,,,,,,,,,,,,,,,,,,,,,,,,,,,,,,,,,,,,,,,,,,,,,,,,
,,,,,,,,,610acd05a1f63b626b20ee3a,Spanish,13 or older,"no, only English or Spanish",no,2025-08-15_09h58.46.843,empathy_intonation_perc,2024.2.4,MacIntel,59.84082341,610acd05a1f63b626b20ee3a,689ed6d1281858f68c932c05,689f3bd689e93f4eae3dae5f,,,,,,,,,,,,,47,0,,./stim/wavs/castilian_match_declarative-broad-focus_Manuela-vende-el-carro.wav,,,,,,,,,,,,,,,,,,,,,,211.0067,213.3461,0,1,1.8052,,0,3,3,46,1,0,castilian,,,,,,,,,,,,,,,,,,,,,,,,,,,,,,,,,,,,,,,,,,,,,,,,,,,,,,,,
,,,,,,,,,610acd05a1f63b626b20ee3a,Spanish,13 or older,"no, only English or Spanish",no,2025-08-15_09h58.46.843,empathy_intonation_perc,2024.2.4,MacIntel,59.84082341,610acd05a1f63b626b20ee3a,689ed6d1281858f68c932c05,689f3bd689e93f4eae3dae5f,,,,,,,,,,,,,10,1,,./stim/wavs/cuban_match_interrogative-total-yn_Maria-bebe-el-vino.wav,,,,,,,,,,,,,,,,,,,,,,213.3468,215.7853,0,0,1.9305,,0,4,4,9,1,1,cuban,,,,,,,,,,,,,,,,,,,,,,,,,,,,,,,,,,,,,,,,,,,,,,,,,,,,,,,,
,,,,,,,,,610acd05a1f63b626b20ee3a,Spanish,13 or older,"no, only English or Spanish",no,2025-08-15_09h58.46.843,empathy_intonation_perc,2024.2.4,MacIntel,59.84082341,610acd05a1f63b626b20ee3a,689ed6d1281858f68c932c05,689f3bd689e93f4eae3dae5f,,,,,,,,,,,,,73,0,,./stim/wavs/castilian_mismatch_declarative-broad-focus_Mi-tia-odia-la-lluvia.wav,,,,,,,,,,,,,,,,,,,,,,215.7865,218.091,0,1,1.7861,,0,5,5,72,1,0,castilian,,,,,,,,,,,,,,,,,,,,,,,,,,,,,,,,,,,,,,,,,,,,,,,,,,,,,,,,
,,,,,,,,,610acd05a1f63b626b20ee3a,Spanish,13 or older,"no, only English or Spanish",no,2025-08-15_09h58.46.843,empathy_intonation_perc,2024.2.4,MacIntel,59.84082341,610acd05a1f63b626b20ee3a,689ed6d1281858f68c932c05,689f3bd689e93f4eae3dae5f,,,,,,,,,,,,,72,0,,./stim/wavs/castilian_mismatch_declarative-broad-focus_Mi-novio-viene-del-lago.wav,,,,,,,,,,,,,,,,,,,,,,218.092,220.5494,0,1,1.938,,0,6,6,71,1,0,castilian,,,,,,,,,,,,,,,,,,,,,,,,,,,,,,,,,,,,,,,,,,,,,,,,,,,,,,,,
,,,,,,,,,610acd05a1f63b626b20ee3a,Spanish,13 or older,"no, only English or Spanish",no,2025-08-15_09h58.46.843,empathy_intonation_perc,2024.2.4,MacIntel,59.84082341,610acd05a1f63b626b20ee3a,689ed6d1281858f68c932c05,689f3bd689e93f4eae3dae5f,,,,,,,,,,,,,43,1,,./stim/wavs/puertorican_mismatch_interrogative-total-yn_La-nina-lava-el-plato.wav,,,,,,,,,,,,,,,,,,,,,,220.55,222.8547,1,1,1.7713,,0,7,7,42,1,1,puertorican,,,,,,,,,,,,,,,,,,,,,,,,,,,,,,,,,,,,,,,,,,,,,,,,,,,,,,,,
,,,,,,,,,610acd05a1f63b626b20ee3a,Spanish,13 or older,"no, only English or Spanish",no,2025-08-15_09h58.46.843,empathy_intonation_perc,2024.2.4,MacIntel,59.84082341,610acd05a1f63b626b20ee3a,689ed6d1281858f68c932c05,689f3bd689e93f4eae3dae5f,,,,,,,,,,,,,31,1,,./stim/wavs/cuban_mismatch_interrogative-total-yn_El-nino-oye-el-rio.wav,,,,,,,,,,,,,,,,,,,,,,222.8556,224.7767,0,0,1.412,,0,8,8,30,1,1,cuban,,,,,,,,,,,,,,,,,,,,,,,,,,,,,,,,,,,,,,,,,,,,,,,,,,,,,,,,
,,,,,,,,,610acd05a1f63b626b20ee3a,Spanish,13 or older,"no, only English or Spanish",no,2025-08-15_09h58.46.843,empathy_intonation_perc,2024.2.4,MacIntel,59.84082341,610acd05a1f63b626b20ee3a,689ed6d1281858f68c932c05,689f3bd689e93f4eae3dae5f,,,,,,,,,,,,,66,0,,./stim/wavs/puertorican_match_declarative-broad-focus_Emilio-ama-la-marcha.wav,,,,,,,,,,,,,,,,,,,,,,224.7771,226.9981,0,1,1.7018,,0,9,9,65,1,0,puertorican,,,,,,,,,,,,,,,,,,,,,,,,,,,,,,,,,,,,,,,,,,,,,,,,,,,,,,,,
,,,,,,,,,610acd05a1f63b626b20ee3a,Spanish,13 or older,"no, only English or Spanish",no,2025-08-15_09h58.46.843,empathy_intonation_perc,2024.2.4,MacIntel,59.84082341,610acd05a1f63b626b20ee3a,689ed6d1281858f68c932c05,689f3bd689e93f4eae3dae5f,,,,,,,,,,,,,68,0,,./stim/wavs/puertorican_match_declarative-broad-focus_Maria-bebe-el-vino.wav,,,,,,,,,,,,,,,,,,,,,,226.9994,229.2045,1,0,1.6893,,0,10,10,67,1,0,puertorican,,,,,,,,,,,,,,,,,,,,,,,,,,,,,,,,,,,,,,,,,,,,,,,,,,,,,,,,
,,,,,,,,,610acd05a1f63b626b20ee3a,Spanish,13 or older,"no, only English or Spanish",no,2025-08-15_09h58.46.843,empathy_intonation_perc,2024.2.4,MacIntel,59.84082341,610acd05a1f63b626b20ee3a,689ed6d1281858f68c932c05,689f3bd689e93f4eae3dae5f,,,,,,,,,,,,,63,0,,./stim/wavs/puertorican_match_declarative-broad-focus_Ana-lleva-el-abrigo.wav,,,,,,,,,,,,,,,,,,,,,,229.2053,231.2306,0,1,1.5183,,0,11,11,62,1,0,puertorican,,,,,,,,,,,,,,,,,,,,,,,,,,,,,,,,,,,,,,,,,,,,,,,,,,,,,,,,
,,,,,,,,,610acd05a1f63b626b20ee3a,Spanish,13 or older,"no, only English or Spanish",no,2025-08-15_09h58.46.843,empathy_intonation_perc,2024.2.4,MacIntel,59.84082341,610acd05a1f63b626b20ee3a,689ed6d1281858f68c932c05,689f3bd689e93f4eae3dae5f,,,,,,,,,,,,,88,0,,./stim/wavs/puertorican_mismatch_declarative-broad-focus_La-nina-lava-el-plato.wav,,,,,,,,,,,,,,,,,,,,,,231.2313,233.7326,0,1,1.9755,,0,12,12,87,1,0,puertorican,,,,,,,,,,,,,,,,,,,,,,,,,,,,,,,,,,,,,,,,,,,,,,,,,,,,,,,,
,,,,,,,,,610acd05a1f63b626b20ee3a,Spanish,13 or older,"no, only English or Spanish",no,2025-08-15_09h58.46.843,empathy_intonation_perc,2024.2.4,MacIntel,59.84082341,610acd05a1f63b626b20ee3a,689ed6d1281858f68c932c05,689f3bd689e93f4eae3dae5f,,,,,,,,,,,,,30,1,,./stim/wavs/cuban_mismatch_interrogative-total-yn_El-hombre-mira-la-luna.wav,,,,,,,,,,,,,,,,,,,,,,233.7332,236.1062,1,1,1.8588,,0,13,13,29,1,1,cuban,,,,,,,,,,,,,,,,,,,,,,,,,,,,,,,,,,,,,,,,,,,,,,,,,,,,,,,,
,,,,,,,,,610acd05a1f63b626b20ee3a,Spanish,13 or older,"no, only English or Spanish",no,2025-08-15_09h58.46.843,empathy_intonation_perc,2024.2.4,MacIntel,59.84082341,610acd05a1f63b626b20ee3a,689ed6d1281858f68c932c05,689f3bd689e93f4eae3dae5f,,,,,,,,,,,,,1,1,,./stim/wavs/castilian_match_interrogative-total-yn_David-leia-el-libro.wav,,,,,,,,,,,,,,,,,,,,,,236.1075,238.3967,1,1,1.7705,,0,14,14,0,1,0,castilian,,,,,,,,,,,,,,,,,,,,,,,,,,,,,,,,,,,,,,,,,,,,,,,,,,,,,,,,
,,,,,,,,,610acd05a1f63b626b20ee3a,Spanish,13 or older,"no, only English or Spanish",no,2025-08-15_09h58.46.843,empathy_intonation_perc,2024.2.4,MacIntel,59.84082341,610acd05a1f63b626b20ee3a,689ed6d1281858f68c932c05,689f3bd689e93f4eae3dae5f,,,,,,,,,,,,,54,0,,./stim/wavs/cuban_match_declarative-broad-focus_Maria-bebe-el-vino.wav,,,,,,,,,,,,,,,,,,,,,,238.3972,240.6353,0,1,1.7284,,0,15,15,53,1,0,cuban,,,,,,,,,,,,,,,,,,,,,,,,,,,,,,,,,,,,,,,,,,,,,,,,,,,,,,,,
,,,,,,,,,610acd05a1f63b626b20ee3a,Spanish,13 or older,"no, only English or Spanish",no,2025-08-15_09h58.46.843,empathy_intonation_perc,2024.2.4,MacIntel,59.84082341,610acd05a1f63b626b20ee3a,689ed6d1281858f68c932c05,689f3bd689e93f4eae3dae5f,,,,,,,,,,,,,24,1,,./stim/wavs/puertorican_match_interrogative-total-yn_Maria-bebe-el-vino.wav,,,,,,,,,,,,,,,,,,,,,,240.6358,242.7728,1,1,1.6225,,0,16,16,23,1,1,puertorican,,,,,,,,,,,,,,,,,,,,,,,,,,,,,,,,,,,,,,,,,,,,,,,,,,,,,,,,
,,,,,,,,,610acd05a1f63b626b20ee3a,Spanish,13 or older,"no, only English or Spanish",no,2025-08-15_09h58.46.843,empathy_intonation_perc,2024.2.4,MacIntel,59.84082341,610acd05a1f63b626b20ee3a,689ed6d1281858f68c932c05,689f3bd689e93f4eae3dae5f,,,,,,,,,,,,,16,1,,./stim/wavs/mexican_match_interrogative-total-yn_Emilio-ama-la-marcha.wav,,,,,,,,,,,,,,,,,,,,,,242.7733,244.9298,1,1,1.6442,,0,17,17,15,1,0,mexican,,,,,,,,,,,,,,,,,,,,,,,,,,,,,,,,,,,,,,,,,,,,,,,,,,,,,,,,
,,,,,,,,,610acd05a1f63b626b20ee3a,Spanish,13 or older,"no, only English or Spanish",no,2025-08-15_09h58.46.843,empathy_intonation_perc,2024.2.4,MacIntel,59.84082341,610acd05a1f63b626b20ee3a,689ed6d1281858f68c932c05,689f3bd689e93f4eae3dae5f,,,,,,,,,,,,,25,1,,./stim/wavs/castilian_mismatch_interrogative-total-yn_La-maestra-vive-en-Paris.wav,,,,,,,,,,,,,,,,,,,,,,244.9307,247.3193,1,1,1.86,,0,18,18,24,1,0,castilian,,,,,,,,,,,,,,,,,,,,,,,,,,,,,,,,,,,,,,,,,,,,,,,,,,,,,,,,
,,,,,,,,,610acd05a1f63b626b20ee3a,Spanish,13 or older,"no, only English or Spanish",no,2025-08-15_09h58.46.843,empathy_intonation_perc,2024.2.4,MacIntel,59.84082341,610acd05a1f63b626b20ee3a,689ed6d1281858f68c932c05,689f3bd689e93f4eae3dae5f,,,,,,,,,,,,,61,0,,./stim/wavs/mexican_match_declarative-broad-focus_Mariano-habla-del-tiempo.wav,,,,,,,,,,,,,,,,,,,,,,247.3209,249.794,0,1,1.9554,,0,19,19,60,1,0,mexican,,,,,,,,,,,,,,,,,,,,,,,,,,,,,,,,,,,,,,,,,,,,,,,,,,,,,,,,
,,,,,,,,,610acd05a1f63b626b20ee3a,Spanish,13 or older,"no, only English or Spanish",no,2025-08-15_09h58.46.843,empathy_intonation_perc,2024.2.4,MacIntel,59.84082341,610acd05a1f63b626b20ee3a,689ed6d1281858f68c932c05,689f3bd689e93f4eae3dae5f,,,,,,,,,,,,,35,1,,./stim/wavs/mexican_mismatch_interrogative-total-yn_El-hombre-mira-la-luna.wav,,,,,,,,,,,,,,,,,,,,,,249.7949,252.1642,0,0,1.8419,,0,20,20,34,1,0,mexican,,,,,,,,,,,,,,,,,,,,,,,,,,,,,,,,,,,,,,,,,,,,,,,,,,,,,,,,
,,,,,,,,,610acd05a1f63b626b20ee3a,Spanish,13 or older,"no, only English or Spanish",no,2025-08-15_09h58.46.843,empathy_intonation_perc,2024.2.4,MacIntel,59.84082341,610acd05a1f63b626b20ee3a,689ed6d1281858f68c932c05,689f3bd689e93f4eae3dae5f,,,,,,,,,,,,,48,0,,./stim/wavs/castilian_match_declarative-broad-focus_Maria-bebe-el-vino.wav,,,,,,,,,,,,,,,,,,,,,,252.1649,254.3373,0,1,1.6597,,0,21,21,47,1,0,castilian,,,,,,,,,,,,,,,,,,,,,,,,,,,,,,,,,,,,,,,,,,,,,,,,,,,,,,,,
,,,,,,,,,610acd05a1f63b626b20ee3a,Spanish,13 or older,"no, only English or Spanish",no,2025-08-15_09h58.46.843,empathy_intonation_perc,2024.2.4,MacIntel,59.84082341,610acd05a1f63b626b20ee3a,689ed6d1281858f68c932c05,689f3bd689e93f4eae3dae5f,,,,,,,,,,,,,12,1,,./stim/wavs/cuban_match_interrogative-total-yn_Marta-abre-el-regalo.wav,,,,,,,,,,,,,,,,,,,,,,254.338,257.0116,0,0,2.1559,,0,22,22,11,1,1,cuban,,,,,,,,,,,,,,,,,,,,,,,,,,,,,,,,,,,,,,,,,,,,,,,,,,,,,,,,
,,,,,,,,,610acd05a1f63b626b20ee3a,Spanish,13 or older,"no, only English or Spanish",no,2025-08-15_09h58.46.843,empathy_intonation_perc,2024.2.4,MacIntel,59.84082341,610acd05a1f63b626b20ee3a,689ed6d1281858f68c932c05,689f3bd689e93f4eae3dae5f,,,,,,,,,,,,,74,0,,./stim/wavs/cuban_mismatch_declarative-broad-focus_El-bebe-comia-muy-bien.wav,,,,,,,,,,,,,,,,,,,,,,257.0123,259.0674,0,1,1.537,,0,23,23,73,1,0,cuban,,,,,,,,,,,,,,,,,,,,,,,,,,,,,,,,,,,,,,,,,,,,,,,,,,,,,,,,
,,,,,,,,,610acd05a1f63b626b20ee3a,Spanish,13 or older,"no, only English or Spanish",no,2025-08-15_09h58.46.843,empathy_intonation_perc,2024.2.4,MacIntel,59.84082341,610acd05a1f63b626b20ee3a,689ed6d1281858f68c932c05,689f3bd689e93f4eae3dae5f,,,,,,,,,,,,,41,1,,./stim/wavs/puertorican_mismatch_interrogative-total-yn_El-nino-oye-el-rio.wav,,,,,,,,,,,,,,,,,,,,,,259.0683,262.2767,0,0,2.6957,,0,24,24,40,1,1,puertorican,,,,,,,,,,,,,,,,,,,,,,,,,,,,,,,,,,,,,,,,,,,,,,,,,,,,,,,,
,,,,,,,,,610acd05a1f63b626b20ee3a,Spanish,13 or older,"no, only English or Spanish",no,2025-08-15_09h58.46.843,empathy_intonation_perc,2024.2.4,MacIntel,59.84082341,610acd05a1f63b626b20ee3a,689ed6d1281858f68c932c05,689f3bd689e93f4eae3dae5f,,,,,,,,,,,,,51,0,,./stim/wavs/cuban_match_declarative-broad-focus_Ana-lleva-el-abrigo.wav,,,,,,,,,,,,,,,,,,,,,,262.2773,265.1336,0,1,2.3418,,0,25,25,50,1,0,cuban,,,,,,,,,,,,,,,,,,,,,,,,,,,,,,,,,,,,,,,,,,,,,,,,,,,,,,,,
,,,,,,,,,610acd05a1f63b626b20ee3a,Spanish,13 or older,"no, only English or Spanish",no,2025-08-15_09h58.46.843,empathy_intonation_perc,2024.2.4,MacIntel,59.84082341,610acd05a1f63b626b20ee3a,689ed6d1281858f68c932c05,689f3bd689e93f4eae3dae5f,,,,,,,,,,,,,26,1,,./stim/wavs/castilian_mismatch_interrogative-total-yn_La-nina-lava-el-plato.wav,,,,,,,,,,,,,,,,,,,,,,265.1344,267.4069,1,1,1.7383,,0,26,26,25,1,0,castilian,,,,,,,,,,,,,,,,,,,,,,,,,,,,,,,,,,,,,,,,,,,,,,,,,,,,,,,,
,,,,,,,,,610acd05a1f63b626b20ee3a,Spanish,13 or older,"no, only English or Spanish",no,2025-08-15_09h58.46.843,empathy_intonation_perc,2024.2.4,MacIntel,59.84082341,610acd05a1f63b626b20ee3a,689ed6d1281858f68c932c05,689f3bd689e93f4eae3dae5f,,,,,,,,,,,,,69,0,,./stim/wavs/castilian_mismatch_declarative-broad-focus_El-nino-oye-el-rio.wav,,,,,,,,,,,,,,,,,,,,,,267.4079,269.5776,0,1,1.6552,,0,27,27,68,1,0,castilian,,,,,,,,,,,,,,,,,,,,,,,,,,,,,,,,,,,,,,,,,,,,,,,,,,,,,,,,
,,,,,,,,,610acd05a1f63b626b20ee3a,Spanish,13 or older,"no, only English or Spanish",no,2025-08-15_09h58.46.843,empathy_intonation_perc,2024.2.4,MacIntel,59.84082341,610acd05a1f63b626b20ee3a,689ed6d1281858f68c932c05,689f3bd689e93f4eae3dae5f,,,,,,,,,,,,,86,0,,./stim/wavs/puertorican_mismatch_declarative-broad-focus_El-nino-oye-el-rio.wav,,,,,,,,,,,,,,,,,,,,,,269.5782,271.5341,0,1,1.4351,,0,28,28,85,1,0,puertorican,,,,,,,,,,,,,,,,,,,,,,,,,,,,,,,,,,,,,,,,,,,,,,,,,,,,,,,,
,,,,,,,,,610acd05a1f63b626b20ee3a,Spanish,13 or older,"no, only English or Spanish",no,2025-08-15_09h58.46.843,empathy_intonation_perc,2024.2.4,MacIntel,59.84082341,610acd05a1f63b626b20ee3a,689ed6d1281858f68c932c05,689f3bd689e93f4eae3dae5f,,,,,,,,,,,,,79,0,,./stim/wavs/mexican_mismatch_declarative-broad-focus_El-bebe-comia-muy-bien.wav,,,,,,,,,,,,,,,,,,,,,,271.5353,274.5086,0,1,2.4404,,0,29,29,78,1,0,mexican,,,,,,,,,,,,,,,,,,,,,,,,,,,,,,,,,,,,,,,,,,,,,,,,,,,,,,,,
,,,,,,,,,610acd05a1f63b626b20ee3a,Spanish,13 or older,"no, only English or Spanish",no,2025-08-15_09h58.46.843,empathy_intonation_perc,2024.2.4,MacIntel,59.84082341,610acd05a1f63b626b20ee3a,689ed6d1281858f68c932c05,689f3bd689e93f4eae3dae5f,,,,,,,,,,,,,4,1,,./stim/wavs/castilian_match_interrogative-total-yn_Maria-bebe-el-vino.wav,,,,,,,,,,,,,,,,,,,,,,274.5099,276.3792,1,1,1.359,,0,30,30,3,1,0,castilian,,,,,,,,,,,,,,,,,,,,,,,,,,,,,,,,,,,,,,,,,,,,,,,,,,,,,,,,
,,,,,,,,,610acd05a1f63b626b20ee3a,Spanish,13 or older,"no, only English or Spanish",no,2025-08-15_09h58.46.843,empathy_intonation_perc,2024.2.4,MacIntel,59.84082341,610acd05a1f63b626b20ee3a,689ed6d1281858f68c932c05,689f3bd689e93f4eae3dae5f,,,,,,,,,,,,,38,1,,./stim/wavs/mexican_mismatch_interrogative-total-yn_Mi-novio-viene-del-lago.wav,,,,,,,,,,,,,,,,,,,,,,276.3802,278.4177,1,1,1.5204,,0,31,31,37,1,0,mexican,,,,,,,,,,,,,,,,,,,,,,,,,,,,,,,,,,,,,,,,,,,,,,,,,,,,,,,,
,,,,,,,,,610acd05a1f63b626b20ee3a,Spanish,13 or older,"no, only English or Spanish",no,2025-08-15_09h58.46.843,empathy_intonation_perc,2024.2.4,MacIntel,59.84082341,610acd05a1f63b626b20ee3a,689ed6d1281858f68c932c05,689f3bd689e93f4eae3dae5f,,,,,,,,,,,,,40,1,,./stim/wavs/puertorican_mismatch_interrogative-total-yn_El-hombre-mira-la-luna.wav,,,,,,,,,,,,,,,,,,,,,,278.4189,280.5088,1,1,1.5729,,0,32,32,39,1,1,puertorican,,,,,,,,,,,,,,,,,,,,,,,,,,,,,,,,,,,,,,,,,,,,,,,,,,,,,,,,
,,,,,,,,,610acd05a1f63b626b20ee3a,Spanish,13 or older,"no, only English or Spanish",no,2025-08-15_09h58.46.843,empathy_intonation_perc,2024.2.4,MacIntel,59.84082341,610acd05a1f63b626b20ee3a,689ed6d1281858f68c932c05,689f3bd689e93f4eae3dae5f,,,,,,,,,,,,,62,0,,./stim/wavs/mexican_match_declarative-broad-focus_Marta-abre-el-regalo.wav,,,,,,,,,,,,,,,,,,,,,,280.5097,282.3966,0,1,1.3619,,0,33,33,61,1,0,mexican,,,,,,,,,,,,,,,,,,,,,,,,,,,,,,,,,,,,,,,,,,,,,,,,,,,,,,,,
,,,,,,,,,610acd05a1f63b626b20ee3a,Spanish,13 or older,"no, only English or Spanish",no,2025-08-15_09h58.46.843,empathy_intonation_perc,2024.2.4,MacIntel,59.84082341,610acd05a1f63b626b20ee3a,689ed6d1281858f68c932c05,689f3bd689e93f4eae3dae5f,,,,,,,,,,,,,6,1,,./stim/wavs/castilian_match_interrogative-total-yn_Marta-abre-el-regalo.wav,,,,,,,,,,,,,,,,,,,,,,282.3971,284.4689,1,1,1.5555,,0,34,34,5,1,0,castilian,,,,,,,,,,,,,,,,,,,,,,,,,,,,,,,,,,,,,,,,,,,,,,,,,,,,,,,,
,,,,,,,,,610acd05a1f63b626b20ee3a,Spanish,13 or older,"no, only English or Spanish",no,2025-08-15_09h58.46.843,empathy_intonation_perc,2024.2.4,MacIntel,59.84082341,610acd05a1f63b626b20ee3a,689ed6d1281858f68c932c05,689f3bd689e93f4eae3dae5f,,,,,,,,,,,,,27,1,,./stim/wavs/castilian_mismatch_interrogative-total-yn_Mi-madre-come-la-fruta.wav,,,,,,,,,,,,,,,,,,,,,,284.4698,286.6075,1,1,1.6074,,0,35,35,26,1,0,castilian,,,,,,,,,,,,,,,,,,,,,,,,,,,,,,,,,,,,,,,,,,,,,,,,,,,,,,,,
,,,,,,,,,610acd05a1f63b626b20ee3a,Spanish,13 or older,"no, only English or Spanish",no,2025-08-15_09h58.46.843,empathy_intonation_perc,2024.2.4,MacIntel,59.84082341,610acd05a1f63b626b20ee3a,689ed6d1281858f68c932c05,689f3bd689e93f4eae3dae5f,,,,,,,,,,,,,20,1,,./stim/wavs/puertorican_match_interrogative-total-yn_Daniel-iba-a-Bolivia.wav,,,,,,,,,,,,,,,,,,,,,,286.6088,290.2338,0,0,3.1074,,0,36,36,19,1,1,puertorican,,,,,,,,,,,,,,,,,,,,,,,,,,,,,,,,,,,,,,,,,,,,,,,,,,,,,,,,
,,,,,,,,,610acd05a1f63b626b20ee3a,Spanish,13 or older,"no, only English or Spanish",no,2025-08-15_09h58.46.843,empathy_intonation_perc,2024.2.4,MacIntel,59.84082341,610acd05a1f63b626b20ee3a,689ed6d1281858f68c932c05,689f3bd689e93f4eae3dae5f,,,,,,,,,,,,,59,0,,./stim/wavs/mexican_match_declarative-broad-focus_David-leia-el-libro.wav,,,,,,,,,,,,,,,,,,,,,,290.2347,292.4729,0,1,1.7274,,0,37,37,58,1,0,mexican,,,,,,,,,,,,,,,,,,,,,,,,,,,,,,,,,,,,,,,,,,,,,,,,,,,,,,,,
,,,,,,,,,610acd05a1f63b626b20ee3a,Spanish,13 or older,"no, only English or Spanish",no,2025-08-15_09h58.46.843,empathy_intonation_perc,2024.2.4,MacIntel,59.84082341,610acd05a1f63b626b20ee3a,689ed6d1281858f68c932c05,689f3bd689e93f4eae3dae5f,,,,,,,,,,,,,37,1,,./stim/wavs/mexican_mismatch_interrogative-total-yn_La-maestra-vive-en-Paris.wav,,,,,,,,,,,,,,,,,,,,,,292.4736,294.9119,1,1,1.9211,,0,38,38,36,1,0,mexican,,,,,,,,,,,,,,,,,,,,,,,,,,,,,,,,,,,,,,,,,,,,,,,,,,,,,,,,
,,,,,,,,,610acd05a1f63b626b20ee3a,Spanish,13 or older,"no, only English or Spanish",no,2025-08-15_09h58.46.843,empathy_intonation_perc,2024.2.4,MacIntel,59.84082341,610acd05a1f63b626b20ee3a,689ed6d1281858f68c932c05,689f3bd689e93f4eae3dae5f,,,,,,,,,,,,,60,0,,./stim/wavs/mexican_match_declarative-broad-focus_Emilio-ama-la-marcha.wav,,,,,,,,,,,,,,,,,,,,,,294.9124,297.6373,0,1,2.2154,,0,39,39,59,1,0,mexican,,,,,,,,,,,,,,,,,,,,,,,,,,,,,,,,,,,,,,,,,,,,,,,,,,,,,,,,
,,,,,,,,,610acd05a1f63b626b20ee3a,Spanish,13 or older,"no, only English or Spanish",no,2025-08-15_09h58.46.843,empathy_intonation_perc,2024.2.4,MacIntel,59.84082341,610acd05a1f63b626b20ee3a,689ed6d1281858f68c932c05,689f3bd689e93f4eae3dae5f,,,,,,,,,,,,,39,1,,./stim/wavs/mexican_mismatch_interrogative-total-yn_Mi-tia-odia-la-lluvia.wav,,,,,,,,,,,,,,,,,,,,,,297.6377,299.5909,1,1,1.4365,,0,40,40,38,1,0,mexican,,,,,,,,,,,,,,,,,,,,,,,,,,,,,,,,,,,,,,,,,,,,,,,,,,,,,,,,
,,,,,,,,,610acd05a1f63b626b20ee3a,Spanish,13 or older,"no, only English or Spanish",no,2025-08-15_09h58.46.843,empathy_intonation_perc,2024.2.4,MacIntel,59.84082341,610acd05a1f63b626b20ee3a,689ed6d1281858f68c932c05,689f3bd689e93f4eae3dae5f,,,,,,,,,,,,,50,0,,./stim/wavs/castilian_match_declarative-broad-focus_Marta-abre-el-regalo.wav,,,,,,,,,,,,,,,,,,,,,,299.5914,301.9152,0,1,1.8081,,0,41,41,49,1,0,castilian,,,,,,,,,,,,,,,,,,,,,,,,,,,,,,,,,,,,,,,,,,,,,,,,,,,,,,,,
,,,,,,,,,610acd05a1f63b626b20ee3a,Spanish,13 or older,"no, only English or Spanish",no,2025-08-15_09h58.46.843,empathy_intonation_perc,2024.2.4,MacIntel,59.84082341,610acd05a1f63b626b20ee3a,689ed6d1281858f68c932c05,689f3bd689e93f4eae3dae5f,,,,,,,,,,,,,75,0,,./stim/wavs/cuban_mismatch_declarative-broad-focus_El-hombre-mira-la-luna.wav,,,,,,,,,,,,,,,,,,,,,,301.9166,304.0209,0,1,1.5877,,0,42,42,74,1,0,cuban,,,,,,,,,,,,,,,,,,,,,,,,,,,,,,,,,,,,,,,,,,,,,,,,,,,,,,,,
,,,,,,,,,610acd05a1f63b626b20ee3a,Spanish,13 or older,"no, only English or Spanish",no,2025-08-15_09h58.46.843,empathy_intonation_perc,2024.2.4,MacIntel,59.84082341,610acd05a1f63b626b20ee3a,689ed6d1281858f68c932c05,689f3bd689e93f4eae3dae5f,,,,,,,,,,,,,64,0,,./stim/wavs/puertorican_match_declarative-broad-focus_Daniel-iba-a-Bolivia.wav,,,,,,,,,,,,,,,,,,,,,,304.0217,307.4634,0,1,2.924,,0,43,43,63,1,0,puertorican,,,,,,,,,,,,,,,,,,,,,,,,,,,,,,,,,,,,,,,,,,,,,,,,,,,,,,,,
,,,,,,,,,610acd05a1f63b626b20ee3a,Spanish,13 or older,"no, only English or Spanish",no,2025-08-15_09h58.46.843,empathy_intonation_perc,2024.2.4,MacIntel,59.84082341,610acd05a1f63b626b20ee3a,689ed6d1281858f68c932c05,689f3bd689e93f4eae3dae5f,,,,,,,,,,,,,34,1,,./stim/wavs/cuban_mismatch_interrogative-total-yn_Mi-tia-odia-la-lluvia.wav,,,,,,,,,,,,,,,,,,,,,,307.4647,311.3242,0,0,3.3296,,0,44,44,33,1,1,cuban,,,,,,,,,,,,,,,,,,,,,,,,,,,,,,,,,,,,,,,,,,,,,,,,,,,,,,,,
,,,,,,,,,610acd05a1f63b626b20ee3a,Spanish,13 or older,"no, only English or Spanish",no,2025-08-15_09h58.46.843,empathy_intonation_perc,2024.2.4,MacIntel,59.84082341,610acd05a1f63b626b20ee3a,689ed6d1281858f68c932c05,689f3bd689e93f4eae3dae5f,,,,,,,,,,,,,13,1,,./stim/wavs/mexican_match_interrogative-total-yn_Ana-lleva-el-abrigo.wav,,,,,,,,,,,,,,,,,,,,,,311.325,313.3619,1,1,1.5202,,0,45,45,12,1,0,mexican,,,,,,,,,,,,,,,,,,,,,,,,,,,,,,,,,,,,,,,,,,,,,,,,,,,,,,,,
,,,,,,,,,610acd05a1f63b626b20ee3a,Spanish,13 or older,"no, only English or Spanish",no,2025-08-15_09h58.46.843,empathy_intonation_perc,2024.2.4,MacIntel,59.84082341,610acd05a1f63b626b20ee3a,689ed6d1281858f68c932c05,689f3bd689e93f4eae3dae5f,,,,,,,,,,,,,53,0,,./stim/wavs/cuban_match_declarative-broad-focus_Manuela-vende-el-carro.wav,,,,,,,,,,,,,,,,,,,,,,313.363,315.6188,0,1,1.7357,,0,46,46,52,1,0,cuban,,,,,,,,,,,,,,,,,,,,,,,,,,,,,,,,,,,,,,,,,,,,,,,,,,,,,,,,
,,,,,,,,,610acd05a1f63b626b20ee3a,Spanish,13 or older,"no, only English or Spanish",no,2025-08-15_09h58.46.843,empathy_intonation_perc,2024.2.4,MacIntel,59.84082341,610acd05a1f63b626b20ee3a,689ed6d1281858f68c932c05,689f3bd689e93f4eae3dae5f,,,,,,,,,,,,,83,0,,./stim/wavs/mexican_mismatch_declarative-broad-focus_Mi-tia-odia-la-lluvia.wav,,,,,,,,,,,,,,,,,,,,,,315.6196,318.0576,0,1,1.9263,,0,47,47,82,1,0,mexican,,,,,,,,,,,,,,,,,,,,,,,,,,,,,,,,,,,,,,,,,,,,,,,,,,,,,,,,
,,,,,,,,,610acd05a1f63b626b20ee3a,Spanish,13 or older,"no, only English or Spanish",no,2025-08-15_09h58.46.843,empathy_intonation_perc,2024.2.4,MacIntel,59.84082341,610acd05a1f63b626b20ee3a,689ed6d1281858f68c932c05,689f3bd689e93f4eae3dae5f,,,,,,,,,,,,,85,0,,./stim/wavs/puertorican_mismatch_declarative-broad-focus_El-hombre-mira-la-luna.wav,,,,,,,,,,,,,,,,,,,,,,318.0584,320.0811,0,1,1.5036,,0,48,48,84,1,0,puertorican,,,,,,,,,,,,,,,,,,,,,,,,,,,,,,,,,,,,,,,,,,,,,,,,,,,,,,,,
,,,,,,,,,610acd05a1f63b626b20ee3a,Spanish,13 or older,"no, only English or Spanish",no,2025-08-15_09h58.46.843,empathy_intonation_perc,2024.2.4,MacIntel,59.84082341,610acd05a1f63b626b20ee3a,689ed6d1281858f68c932c05,689f3bd689e93f4eae3dae5f,,,,,,,,,,,,,80,0,,./stim/wavs/mexican_mismatch_declarative-broad-focus_El-hombre-mira-la-luna.wav,,,,,,,,,,,,,,,,,,,,,,320.0815,322.004,0,1,1.4121,,0,49,49,79,1,0,mexican,,,,,,,,,,,,,,,,,,,,,,,,,,,,,,,,,,,,,,,,,,,,,,,,,,,,,,,,
,,,,,,,,,610acd05a1f63b626b20ee3a,Spanish,13 or older,"no, only English or Spanish",no,2025-08-15_09h58.46.843,empathy_intonation_perc,2024.2.4,MacIntel,59.84082341,610acd05a1f63b626b20ee3a,689ed6d1281858f68c932c05,689f3bd689e93f4eae3dae5f,,,,,,,,,,,,,22,1,,./stim/wavs/puertorican_match_interrogative-total-yn_Emilio-ama-la-marcha.wav,,,,,,,,,,,,,,,,,,,,,,322.0047,323.9894,0,0,1.4616,,0,50,50,21,1,1,puertorican,,,,,,,,,,,,,,,,,,,,,,,,,,,,,,,,,,,,,,,,,,,,,,,,,,,,,,,,
,,,,,,,,,610acd05a1f63b626b20ee3a,Spanish,13 or older,"no, only English or Spanish",no,2025-08-15_09h58.46.843,empathy_intonation_perc,2024.2.4,MacIntel,59.84082341,610acd05a1f63b626b20ee3a,689ed6d1281858f68c932c05,689f3bd689e93f4eae3dae5f,,,,,,,,,,,,,81,0,,./stim/wavs/mexican_mismatch_declarative-broad-focus_La-maestra-vive-en-Paris.wav,,,,,,,,,,,,,,,,,,,,,,323.9899,326.213,0,1,1.7077,,0,51,51,80,1,0,mexican,,,,,,,,,,,,,,,,,,,,,,,,,,,,,,,,,,,,,,,,,,,,,,,,,,,,,,,,
,,,,,,,,,610acd05a1f63b626b20ee3a,Spanish,13 or older,"no, only English or Spanish",no,2025-08-15_09h58.46.843,empathy_intonation_perc,2024.2.4,MacIntel,59.84082341,610acd05a1f63b626b20ee3a,689ed6d1281858f68c932c05,689f3bd689e93f4eae3dae5f,,,,,,,,,,,,,32,1,,./stim/wavs/cuban_mismatch_interrogative-total-yn_Mi-madre-come-la-fruta.wav,,,,,,,,,,,,,,,,,,,,,,326.2135,329.8758,0,0,3.1477,,0,52,52,31,1,1,cuban,,,,,,,,,,,,,,,,,,,,,,,,,,,,,,,,,,,,,,,,,,,,,,,,,,,,,,,,
,,,,,,,,,610acd05a1f63b626b20ee3a,Spanish,13 or older,"no, only English or Spanish",no,2025-08-15_09h58.46.843,empathy_intonation_perc,2024.2.4,MacIntel,59.84082341,610acd05a1f63b626b20ee3a,689ed6d1281858f68c932c05,689f3bd689e93f4eae3dae5f,,,,,,,,,,,,,15,1,,./stim/wavs/mexican_match_interrogative-total-yn_David-leia-el-libro.wav,,,,,,,,,,,,,,,,,,,,,,329.8764,331.9941,1,1,1.5943,,0,53,53,14,1,0,mexican,,,,,,,,,,,,,,,,,,,,,,,,,,,,,,,,,,,,,,,,,,,,,,,,,,,,,,,,
,,,,,,,,,610acd05a1f63b626b20ee3a,Spanish,13 or older,"no, only English or Spanish",no,2025-08-15_09h58.46.843,empathy_intonation_perc,2024.2.4,MacIntel,59.84082341,610acd05a1f63b626b20ee3a,689ed6d1281858f68c932c05,689f3bd689e93f4eae3dae5f,,,,,,,,,,,,,52,0,,./stim/wavs/cuban_match_declarative-broad-focus_Daniel-iba-a-Bolivia.wav,,,,,,,,,,,,,,,,,,,,,,331.9945,334.253,0,1,1.7397,,0,54,54,51,1,0,cuban,,,,,,,,,,,,,,,,,,,,,,,,,,,,,,,,,,,,,,,,,,,,,,,,,,,,,,,,
,,,,,,,,,610acd05a1f63b626b20ee3a,Spanish,13 or older,"no, only English or Spanish",no,2025-08-15_09h58.46.843,empathy_intonation_perc,2024.2.4,MacIntel,59.84082341,610acd05a1f63b626b20ee3a,689ed6d1281858f68c932c05,689f3bd689e93f4eae3dae5f,,,,,,,,,,,,,3,1,,./stim/wavs/castilian_match_interrogative-total-yn_Manuela-vende-el-carro.wav,,,,,,,,,,,,,,,,,,,,,,334.2539,336.5589,1,1,1.7759,,0,55,55,2,1,0,castilian,,,,,,,,,,,,,,,,,,,,,,,,,,,,,,,,,,,,,,,,,,,,,,,,,,,,,,,,
,,,,,,,,,610acd05a1f63b626b20ee3a,Spanish,13 or older,"no, only English or Spanish",no,2025-08-15_09h58.46.843,empathy_intonation_perc,2024.2.4,MacIntel,59.84082341,610acd05a1f63b626b20ee3a,689ed6d1281858f68c932c05,689f3bd689e93f4eae3dae5f,,,,,,,,,,,,,44,1,,./stim/wavs/puertorican_mismatch_interrogative-total-yn_Mi-madre-come-la-fruta.wav,,,,,,,,,,,,,,,,,,,,,,336.5596,338.8139,0,0,1.7213,,0,56,56,43,1,1,puertorican,,,,,,,,,,,,,,,,,,,,,,,,,,,,,,,,,,,,,,,,,,,,,,,,,,,,,,,,
,,,,,,,,,610acd05a1f63b626b20ee3a,Spanish,13 or older,"no, only English or Spanish",no,2025-08-15_09h58.46.843,empathy_intonation_perc,2024.2.4,MacIntel,59.84082341,610acd05a1f63b626b20ee3a,689ed6d1281858f68c932c05,689f3bd689e93f4eae3dae5f,,,,,,,,,,,,,36,1,,./stim/wavs/mexican_mismatch_interrogative-total-yn_El-nino-oye-el-rio.wav,,,,,,,,,,,,,,,,,,,,,,338.8152,341.4044,1,1,2.0732,,0,57,57,35,1,0,mexican,,,,,,,,,,,,,,,,,,,,,,,,,,,,,,,,,,,,,,,,,,,,,,,,,,,,,,,,
,,,,,,,,,610acd05a1f63b626b20ee3a,Spanish,13 or older,"no, only English or Spanish",no,2025-08-15_09h58.46.843,empathy_intonation_perc,2024.2.4,MacIntel,59.84082341,610acd05a1f63b626b20ee3a,689ed6d1281858f68c932c05,689f3bd689e93f4eae3dae5f,,,,,,,,,,,,,19,1,,./stim/wavs/puertorican_match_interrogative-total-yn_Ana-lleva-el-abrigo.wav,,,,,,,,,,,,,,,,,,,,,,341.4052,343.7427,0,0,1.8265,,0,58,58,18,1,1,puertorican,,,,,,,,,,,,,,,,,,,,,,,,,,,,,,,,,,,,,,,,,,,,,,,,,,,,,,,,
,,,,,,,,,610acd05a1f63b626b20ee3a,Spanish,13 or older,"no, only English or Spanish",no,2025-08-15_09h58.46.843,empathy_intonation_perc,2024.2.4,MacIntel,59.84082341,610acd05a1f63b626b20ee3a,689ed6d1281858f68c932c05,689f3bd689e93f4eae3dae5f,,,,,,,,,,,,,21,1,,./stim/wavs/puertorican_match_interrogative-total-yn_David-leia-el-libro.wav,,,,,,,,,,,,,,,,,,,,,,343.7434,345.5139,0,0,1.2544,,0,59,59,20,1,1,puertorican,,,,,,,,,,,,,,,,,,,,,,,,,,,,,,,,,,,,,,,,,,,,,,,,,,,,,,,,
,,,,,,,,,610acd05a1f63b626b20ee3a,Spanish,13 or older,"no, only English or Spanish",no,2025-08-15_09h58.46.843,empathy_intonation_perc,2024.2.4,MacIntel,59.84082341,610acd05a1f63b626b20ee3a,689ed6d1281858f68c932c05,689f3bd689e93f4eae3dae5f,,,,,,,,,,,,,71,0,,./stim/wavs/castilian_mismatch_declarative-broad-focus_La-nina-lava-el-plato.wav,,,,,,,,,,,,,,,,,,,,,,345.5143,348.1219,0,1,2.0915,,0,60,60,70,1,0,castilian,,,,,,,,,,,,,,,,,,,,,,,,,,,,,,,,,,,,,,,,,,,,,,,,,,,,,,,,
,,,,,,,,,610acd05a1f63b626b20ee3a,Spanish,13 or older,"no, only English or Spanish",no,2025-08-15_09h58.46.843,empathy_intonation_perc,2024.2.4,MacIntel,59.84082341,610acd05a1f63b626b20ee3a,689ed6d1281858f68c932c05,689f3bd689e93f4eae3dae5f,,,,,,,,,,,,,77,0,,./stim/wavs/cuban_mismatch_declarative-broad-focus_Mi-novio-viene-del-lago.wav,,,,,,,,,,,,,,,,,,,,,,348.1227,350.5604,0,1,1.9221,,0,61,61,76,1,0,cuban,,,,,,,,,,,,,,,,,,,,,,,,,,,,,,,,,,,,,,,,,,,,,,,,,,,,,,,,
,,,,,,,,,610acd05a1f63b626b20ee3a,Spanish,13 or older,"no, only English or Spanish",no,2025-08-15_09h58.46.843,empathy_intonation_perc,2024.2.4,MacIntel,59.84082341,610acd05a1f63b626b20ee3a,689ed6d1281858f68c932c05,689f3bd689e93f4eae3dae5f,,,,,,,,,,,,,70,0,,./stim/wavs/castilian_mismatch_declarative-broad-focus_La-maestra-vive-en-Paris.wav,,,,,,,,,,,,,,,,,,,,,,350.5611,353.3523,0,1,2.2723,,0,62,62,69,1,0,castilian,,,,,,,,,,,,,,,,,,,,,,,,,,,,,,,,,,,,,,,,,,,,,,,,,,,,,,,,
,,,,,,,,,610acd05a1f63b626b20ee3a,Spanish,13 or older,"no, only English or Spanish",no,2025-08-15_09h58.46.843,empathy_intonation_perc,2024.2.4,MacIntel,59.84082341,610acd05a1f63b626b20ee3a,689ed6d1281858f68c932c05,689f3bd689e93f4eae3dae5f,,,,,,,,,,,,,65,0,,./stim/wavs/puertorican_match_declarative-broad-focus_David-leia-el-libro.wav,,,,,,,,,,,,,,,,,,,,,,353.3533,357.1805,0,1,3.3093,,0,63,63,64,1,0,puertorican,,,,,,,,,,,,,,,,,,,,,,,,,,,,,,,,,,,,,,,,,,,,,,,,,,,,,,,,
,,,,,,,,,610acd05a1f63b626b20ee3a,Spanish,13 or older,"no, only English or Spanish",no,2025-08-15_09h58.46.843,empathy_intonation_perc,2024.2.4,MacIntel,59.84082341,610acd05a1f63b626b20ee3a,689ed6d1281858f68c932c05,689f3bd689e93f4eae3dae5f,,,,,,,,,,,,,33,1,,./stim/wavs/cuban_mismatch_interrogative-total-yn_Mi-novio-viene-del-lago.wav,,,,,,,,,,,,,,,,,,,,,,357.1813,359.4854,0,0,1.791,,0,64,64,32,1,1,cuban,,,,,,,,,,,,,,,,,,,,,,,,,,,,,,,,,,,,,,,,,,,,,,,,,,,,,,,,
,,,,,,,,,610acd05a1f63b626b20ee3a,Spanish,13 or older,"no, only English or Spanish",no,2025-08-15_09h58.46.843,empathy_intonation_perc,2024.2.4,MacIntel,59.84082341,610acd05a1f63b626b20ee3a,689ed6d1281858f68c932c05,689f3bd689e93f4eae3dae5f,,,,,,,,,,,,,78,0,,./stim/wavs/cuban_mismatch_declarative-broad-focus_Mi-tia-odia-la-lluvia.wav,,,,,,,,,,,,,,,,,,,,,,359.4865,361.993,0,1,1.9918,,0,65,65,77,1,0,cuban,,,,,,,,,,,,,,,,,,,,,,,,,,,,,,,,,,,,,,,,,,,,,,,,,,,,,,,,
,,,,,,,,,610acd05a1f63b626b20ee3a,Spanish,13 or older,"no, only English or Spanish",no,2025-08-15_09h58.46.843,empathy_intonation_perc,2024.2.4,MacIntel,59.84082341,610acd05a1f63b626b20ee3a,689ed6d1281858f68c932c05,689f3bd689e93f4eae3dae5f,,,,,,,,,,,,,18,1,,./stim/wavs/mexican_match_interrogative-total-yn_Marta-abre-el-regalo.wav,,,,,,,,,,,,,,,,,,,,,,361.9938,363.932,1,1,1.4045,,0,66,66,17,1,0,mexican,,,,,,,,,,,,,,,,,,,,,,,,,,,,,,,,,,,,,,,,,,,,,,,,,,,,,,,,
,,,,,,,,,610acd05a1f63b626b20ee3a,Spanish,13 or older,"no, only English or Spanish",no,2025-08-15_09h58.46.843,empathy_intonation_perc,2024.2.4,MacIntel,59.84082341,610acd05a1f63b626b20ee3a,689ed6d1281858f68c932c05,689f3bd689e93f4eae3dae5f,,,,,,,,,,,,,11,1,,./stim/wavs/cuban_match_interrogative-total-yn_Mariano-habla-del-tiempo.wav,,,,,,,,,,,,,,,,,,,,,,363.9328,366.2206,0,0,1.7733,,0,67,67,10,1,1,cuban,,,,,,,,,,,,,,,,,,,,,,,,,,,,,,,,,,,,,,,,,,,,,,,,,,,,,,,,
,,,,,,,,,610acd05a1f63b626b20ee3a,Spanish,13 or older,"no, only English or Spanish",no,2025-08-15_09h58.46.843,empathy_intonation_perc,2024.2.4,MacIntel,59.84082341,610acd05a1f63b626b20ee3a,689ed6d1281858f68c932c05,689f3bd689e93f4eae3dae5f,,,,,,,,,,,,,7,1,,./stim/wavs/cuban_match_interrogative-total-yn_Ana-lleva-el-abrigo.wav,,,,,,,,,,,,,,,,,,,,,,366.2213,368.124,0,0,1.3901,,0,68,68,6,1,1,cuban,,,,,,,,,,,,,,,,,,,,,,,,,,,,,,,,,,,,,,,,,,,,,,,,,,,,,,,,
,,,,,,,,,610acd05a1f63b626b20ee3a,Spanish,13 or older,"no, only English or Spanish",no,2025-08-15_09h58.46.843,empathy_intonation_perc,2024.2.4,MacIntel,59.84082341,610acd05a1f63b626b20ee3a,689ed6d1281858f68c932c05,689f3bd689e93f4eae3dae5f,,,,,,,,,,,,,55,0,,./stim/wavs/cuban_match_declarative-broad-focus_Mariano-habla-del-tiempo.wav,,,,,,,,,,,,,,,,,,,,,,368.1245,370.7824,0,1,2.144,,0,69,69,54,1,0,cuban,,,,,,,,,,,,,,,,,,,,,,,,,,,,,,,,,,,,,,,,,,,,,,,,,,,,,,,,
,,,,,,,,,610acd05a1f63b626b20ee3a,Spanish,13 or older,"no, only English or Spanish",no,2025-08-15_09h58.46.843,empathy_intonation_perc,2024.2.4,MacIntel,59.84082341,610acd05a1f63b626b20ee3a,689ed6d1281858f68c932c05,689f3bd689e93f4eae3dae5f,,,,,,,,,,,,,29,1,,./stim/wavs/castilian_mismatch_interrogative-total-yn_Mi-tia-odia-la-lluvia.wav,,,,,,,,,,,,,,,,,,,,,,370.7829,372.8045,1,1,1.5047,,0,70,70,28,1,0,castilian,,,,,,,,,,,,,,,,,,,,,,,,,,,,,,,,,,,,,,,,,,,,,,,,,,,,,,,,
,,,,,,,,,610acd05a1f63b626b20ee3a,Spanish,13 or older,"no, only English or Spanish",no,2025-08-15_09h58.46.843,empathy_intonation_perc,2024.2.4,MacIntel,59.84082341,610acd05a1f63b626b20ee3a,689ed6d1281858f68c932c05,689f3bd689e93f4eae3dae5f,,,,,,,,,,,,,49,0,,./stim/wavs/castilian_match_declarative-broad-focus_Mariano-habla-del-tiempo.wav,,,,,,,,,,,,,,,,,,,,,,372.8056,375.1605,0,1,1.841,,0,71,71,48,1,0,castilian,,,,,,,,,,,,,,,,,,,,,,,,,,,,,,,,,,,,,,,,,,,,,,,,,,,,,,,,
,,,,,,,,,610acd05a1f63b626b20ee3a,Spanish,13 or older,"no, only English or Spanish",no,2025-08-15_09h58.46.843,empathy_intonation_perc,2024.2.4,MacIntel,59.84082341,610acd05a1f63b626b20ee3a,689ed6d1281858f68c932c05,689f3bd689e93f4eae3dae5f,,,,,,,,,,,,,82,0,,./stim/wavs/mexican_mismatch_declarative-broad-focus_Mi-novio-viene-del-lago.wav,,,,,,,,,,,,,,,,,,,,,,375.1617,377.2996,0,1,1.6238,,0,72,72,81,1,0,mexican,,,,,,,,,,,,,,,,,,,,,,,,,,,,,,,,,,,,,,,,,,,,,,,,,,,,,,,,
,,,,,,,,,610acd05a1f63b626b20ee3a,Spanish,13 or older,"no, only English or Spanish",no,2025-08-15_09h58.46.843,empathy_intonation_perc,2024.2.4,MacIntel,59.84082341,610acd05a1f63b626b20ee3a,689ed6d1281858f68c932c05,689f3bd689e93f4eae3dae5f,,,,,,,,,,,,,9,1,,./stim/wavs/cuban_match_interrogative-total-yn_Manuela-vende-el-carro.wav,,,,,,,,,,,,,,,,,,,,,,377.3008,379.2396,0,0,1.4209,,0,73,73,8,1,1,cuban,,,,,,,,,,,,,,,,,,,,,,,,,,,,,,,,,,,,,,,,,,,,,,,,,,,,,,,,
,,,,,,,,,610acd05a1f63b626b20ee3a,Spanish,13 or older,"no, only English or Spanish",no,2025-08-15_09h58.46.843,empathy_intonation_perc,2024.2.4,MacIntel,59.84082341,610acd05a1f63b626b20ee3a,689ed6d1281858f68c932c05,689f3bd689e93f4eae3dae5f,,,,,,,,,,,,,2,1,,./stim/wavs/castilian_match_interrogative-total-yn_Emilio-ama-la-marcha.wav,,,,,,,,,,,,,,,,,,,,,,379.2404,381.5794,1,1,1.8227,,0,74,74,1,1,0,castilian,,,,,,,,,,,,,,,,,,,,,,,,,,,,,,,,,,,,,,,,,,,,,,,,,,,,,,,,
,,,,,,,,,610acd05a1f63b626b20ee3a,Spanish,13 or older,"no, only English or Spanish",no,2025-08-15_09h58.46.843,empathy_intonation_perc,2024.2.4,MacIntel,59.84082341,610acd05a1f63b626b20ee3a,689ed6d1281858f68c932c05,689f3bd689e93f4eae3dae5f,,,,,,,,,,,,,67,0,,./stim/wavs/puertorican_match_declarative-broad-focus_Manuela-vende-el-carro.wav,,,,,,,,,,,,,,,,,,,,,,381.5801,383.8673,0,1,1.7736,,0,75,75,66,1,0,puertorican,,,,,,,,,,,,,,,,,,,,,,,,,,,,,,,,,,,,,,,,,,,,,,,,,,,,,,,,
,,,,,,,,,610acd05a1f63b626b20ee3a,Spanish,13 or older,"no, only English or Spanish",no,2025-08-15_09h58.46.843,empathy_intonation_perc,2024.2.4,MacIntel,59.84082341,610acd05a1f63b626b20ee3a,689ed6d1281858f68c932c05,689f3bd689e93f4eae3dae5f,,,,,,,,,,,,,17,1,,./stim/wavs/mexican_match_interrogative-total-yn_Mariano-habla-del-tiempo.wav,,,,,,,,,,,,,,,,,,,,,,383.868,385.9562,1,1,1.575,,0,76,76,16,1,0,mexican,,,,,,,,,,,,,,,,,,,,,,,,,,,,,,,,,,,,,,,,,,,,,,,,,,,,,,,,
,,,,,,,,,610acd05a1f63b626b20ee3a,Spanish,13 or older,"no, only English or Spanish",no,2025-08-15_09h58.46.843,empathy_intonation_perc,2024.2.4,MacIntel,59.84082341,610acd05a1f63b626b20ee3a,689ed6d1281858f68c932c05,689f3bd689e93f4eae3dae5f,,,,,,,,,,,,,84,0,,./stim/wavs/puertorican_mismatch_declarative-broad-focus_El-bebe-comia-muy-bien.wav,,,,,,,,,,,,,,,,,,,,,,385.9566,388.1456,0,1,1.6755,,0,77,77,83,1,0,puertorican,,,,,,,,,,,,,,,,,,,,,,,,,,,,,,,,,,,,,,,,,,,,,,,,,,,,,,,,
,,,,,,,,,610acd05a1f63b626b20ee3a,Spanish,13 or older,"no, only English or Spanish",no,2025-08-15_09h58.46.843,empathy_intonation_perc,2024.2.4,MacIntel,59.84082341,610acd05a1f63b626b20ee3a,689ed6d1281858f68c932c05,689f3bd689e93f4eae3dae5f,,,,,,,,,,,,,14,1,,./stim/wavs/mexican_match_interrogative-total-yn_Daniel-iba-a-Bolivia.wav,,,,,,,,,,,,,,,,,,,,,,388.1461,390.4002,1,1,1.7253,,0,78,78,13,1,0,mexican,,,,,,,,,,,,,,,,,,,,,,,,,,,,,,,,,,,,,,,,,,,,,,,,,,,,,,,,
,,,,,,,,,610acd05a1f63b626b20ee3a,Spanish,13 or older,"no, only English or Spanish",no,2025-08-15_09h58.46.843,empathy_intonation_perc,2024.2.4,MacIntel,59.84082341,610acd05a1f63b626b20ee3a,689ed6d1281858f68c932c05,689f3bd689e93f4eae3dae5f,,,,,,,,,,,,,46,0,,./stim/wavs/castilian_match_declarative-broad-focus_Emilio-ama-la-marcha.wav,,,,,,,,,,,,,,,,,,,,,,390.4007,392.6073,0,1,1.6953,,0,79,79,45,1,0,castilian,,,,,,,,,,,,,,,,,,,,,,,,,,,,,,,,,,,,,,,,,,,,,,,,,,,,,,,,
,,,,,,,,,610acd05a1f63b626b20ee3a,Spanish,13 or older,"no, only English or Spanish",no,2025-08-15_09h58.46.843,empathy_intonation_perc,2024.2.4,MacIntel,59.84082341,610acd05a1f63b626b20ee3a,689ed6d1281858f68c932c05,689f3bd689e93f4eae3dae5f,,,,,,,,,,,,,57,0,,./stim/wavs/mexican_match_declarative-broad-focus_Ana-lleva-el-abrigo.wav,,,,,,,,,,,,,,,,,,,,,,392.6085,394.7121,0,1,1.5818,,0,80,80,56,1,0,mexican,,,,,,,,,,,,,,,,,,,,,,,,,,,,,,,,,,,,,,,,,,,,,,,,,,,,,,,,
,,,,,,,,,610acd05a1f63b626b20ee3a,Spanish,13 or older,"no, only English or Spanish",no,2025-08-15_09h58.46.843,empathy_intonation_perc,2024.2.4,MacIntel,59.84082341,610acd05a1f63b626b20ee3a,689ed6d1281858f68c932c05,689f3bd689e93f4eae3dae5f,,,,,,,,,,,,,58,0,,./stim/wavs/mexican_match_declarative-broad-focus_Daniel-iba-a-Bolivia.wav,,,,,,,,,,,,,,,,,,,,,,394.713,397.9884,0,1,2.7632,,0,81,81,57,1,0,mexican,,,,,,,,,,,,,,,,,,,,,,,,,,,,,,,,,,,,,,,,,,,,,,,,,,,,,,,,
,,,,,,,,,610acd05a1f63b626b20ee3a,Spanish,13 or older,"no, only English or Spanish",no,2025-08-15_09h58.46.843,empathy_intonation_perc,2024.2.4,MacIntel,59.84082341,610acd05a1f63b626b20ee3a,689ed6d1281858f68c932c05,689f3bd689e93f4eae3dae5f,,,,,,,,,,,,,28,1,,./stim/wavs/castilian_mismatch_interrogative-total-yn_Mi-novio-viene-del-lago.wav,,,,,,,,,,,,,,,,,,,,,,397.9896,400.4463,1,1,1.9377,,0,82,82,27,1,0,castilian,,,,,,,,,,,,,,,,,,,,,,,,,,,,,,,,,,,,,,,,,,,,,,,,,,,,,,,,
,,,,,,,,,610acd05a1f63b626b20ee3a,Spanish,13 or older,"no, only English or Spanish",no,2025-08-15_09h58.46.843,empathy_intonation_perc,2024.2.4,MacIntel,59.84082341,610acd05a1f63b626b20ee3a,689ed6d1281858f68c932c05,689f3bd689e93f4eae3dae5f,,,,,,,,,,,,,76,0,,./stim/wavs/cuban_mismatch_declarative-broad-focus_La-nina-lava-el-plato.wav,,,,,,,,,,,,,,,,,,,,,,400.4468,402.5506,0,1,1.5711,,0,83,83,75,1,0,cuban,,,,,,,,,,,,,,,,,,,,,,,,,,,,,,,,,,,,,,,,,,,,,,,,,,,,,,,,
,,,,,,,,,610acd05a1f63b626b20ee3a,Spanish,13 or older,"no, only English or Spanish",no,2025-08-15_09h58.46.843,empathy_intonation_perc,2024.2.4,MacIntel,59.84082341,610acd05a1f63b626b20ee3a,689ed6d1281858f68c932c05,689f3bd689e93f4eae3dae5f,,,,,,,,,,,,,87,0,,./stim/wavs/puertorican_mismatch_declarative-broad-focus_La-maestra-vive-en-Paris.wav,,,,,,,,,,,,,,,,,,,,,,402.5521,404.9389,0,1,1.8718,,0,84,84,86,1,0,puertorican,,,,,,,,,,,,,,,,,,,,,,,,,,,,,,,,,,,,,,,,,,,,,,,,,,,,,,,,
,,,,,,,,,610acd05a1f63b626b20ee3a,Spanish,13 or older,"no, only English or Spanish",no,2025-08-15_09h58.46.843,empathy_intonation_perc,2024.2.4,MacIntel,59.84082341,610acd05a1f63b626b20ee3a,689ed6d1281858f68c932c05,689f3bd689e93f4eae3dae5f,,,,,,,,,,,,,56,0,,./stim/wavs/cuban_match_declarative-broad-focus_Marta-abre-el-regalo.wav,,,,,,,,,,,,,,,,,,,,,,404.9395,407.1619,0,1,1.7123,,0,85,85,55,1,0,cuban,,,,,,,,,,,,,,,,,,,,,,,,,,,,,,,,,,,,,,,,,,,,,,,,,,,,,,,,
,,,,,,,,,610acd05a1f63b626b20ee3a,Spanish,13 or older,"no, only English or Spanish",no,2025-08-15_09h58.46.843,empathy_intonation_perc,2024.2.4,MacIntel,59.84082341,610acd05a1f63b626b20ee3a,689ed6d1281858f68c932c05,689f3bd689e93f4eae3dae5f,,,,,,,,,,,,,5,1,,./stim/wavs/castilian_match_interrogative-total-yn_Mariano-habla-del-tiempo.wav,,,,,,,,,,,,,,,,,,,,,,407.1624,409.2366,1,1,1.5583,,0,86,86,4,1,0,castilian,,,,,,,,,,,,,,,,,,,,,,,,,,,,,,,,,,,,,,,,,,,,,,,,,,,,,,,,
,,,,,,,,,610acd05a1f63b626b20ee3a,Spanish,13 or older,"no, only English or Spanish",no,2025-08-15_09h58.46.843,empathy_intonation_perc,2024.2.4,MacIntel,59.84082341,610acd05a1f63b626b20ee3a,689ed6d1281858f68c932c05,689f3bd689e93f4eae3dae5f,,,,,,,,,,,,,42,1,,./stim/wavs/puertorican_mismatch_interrogative-total-yn_La-maestra-vive-en-Paris.wav,,,,,,,,,,,,,,,,,,,,,,409.2375,412.0588,0,0,2.2965,,0,87,87,41,1,1,puertorican,,,,,,,,,,,,,,,,,,,,,,,,,,,,,,,,,,,,,,,,,,,,,,,,,,,,,,,,
,,,,,,,"Great! Now we will move on. The next task consists of about 60 trials, in each of which you will see a string of letters. 
  
  Your task is to decide whether this is a real Spanish word or not.", (press the spacebar to continue),610acd05a1f63b626b20ee3a,Spanish,13 or older,"no, only English or Spanish",no,2025-08-15_09h58.46.843,empathy_intonation_perc,2024.2.4,MacIntel,59.84082341,610acd05a1f63b626b20ee3a,689ed6d1281858f68c932c05,689f3bd689e93f4eae3dae5f,,,,,,,,,,,,,,,,,,,,,,,,,,,,,,,,,,,,,,,,,,,,,,,,,,,412.0655,417.4415,0,0,0,0,1,,,,,,,,,,,,,,,,,,,,,,,,,,,,,,,,,,,,,,,,,,,,,,,,,
,,,,,,,"If you think it is an existing Spanish word, you type '1' (for 'REAL'), and if you think it is not an existing Spanish word, you type '0' (for 'FAKE').", (press the spacebar to continue),610acd05a1f63b626b20ee3a,Spanish,13 or older,"no, only English or Spanish",no,2025-08-15_09h58.46.843,empathy_intonation_perc,2024.2.4,MacIntel,59.84082341,610acd05a1f63b626b20ee3a,689ed6d1281858f68c932c05,689f3bd689e93f4eae3dae5f,,,,,,,,,,,,,,,,,,,,,,,,,,,,,,,,,,,,,,,,,,,,,,,,,,,417.4438,430.2252,0,1,1,1,1,,,,,,,,,,,,,,,,,,,,,,,,,,,,,,,,,,,,,,,,,,,,,,,,,
,,,,,,,"If you are sure that the word exists, even though you don’t know its exact meaning, you may still respond '1' (REAL). 
  
  But if you are not sure if it is an existing word, you should respond '0' (FAKE).
  
  Let's do a practice round...", (press the spacebar to continue),610acd05a1f63b626b20ee3a,Spanish,13 or older,"no, only English or Spanish",no,2025-08-15_09h58.46.843,empathy_intonation_perc,2024.2.4,MacIntel,59.84082341,610acd05a1f63b626b20ee3a,689ed6d1281858f68c932c05,689f3bd689e93f4eae3dae5f,,,,,,,,,,,,,,,,,,,,,,,,,,,,,,,,,,,,,,,,,,,,,,,,,,,430.2275,436.6088,0,2,2,2,1,,,,,,,,,,,,,,,,,,,,,,,,,,,,,,,,,,,,,,,,,,,,,,,,,
,,,,,,,,,610acd05a1f63b626b20ee3a,Spanish,13 or older,"no, only English or Spanish",no,2025-08-15_09h58.46.843,empathy_intonation_perc,2024.2.4,MacIntel,59.84082341,610acd05a1f63b626b20ee3a,689ed6d1281858f68c932c05,689f3bd689e93f4eae3dae5f,,,,,,,,,,,,,,0,,,,,,,,,,,,,,,,,,,,,,,,,,,,,,,,,,,,,,,,,,,,436.6139,438.597,1,0,1.4571,,438.5975,439.6001,0,0,0,0,1,0,depiste,REAL,FAKE,,,,,,,,,,,,,,,,,,,,,,,,,,,,,,,,
,,,,,,,,,610acd05a1f63b626b20ee3a,Spanish,13 or older,"no, only English or Spanish",no,2025-08-15_09h58.46.843,empathy_intonation_perc,2024.2.4,MacIntel,59.84082341,610acd05a1f63b626b20ee3a,689ed6d1281858f68c932c05,689f3bd689e93f4eae3dae5f,,,,,,,,,,,,,,1,,,,,,,,,,,,,,,,,,,,,,,,,,,,,,,,,,,,,,,,,,,,439.6018,440.8363,1,1,0.7008,,440.8374,441.8396,0,1,1,1,1,0,sí,REAL,FAKE,,,,,,,,,,,,,,,,,,,,,,,,,,,,,,,,
,,,,,,,,,610acd05a1f63b626b20ee3a,Spanish,13 or older,"no, only English or Spanish",no,2025-08-15_09h58.46.843,empathy_intonation_perc,2024.2.4,MacIntel,59.84082341,610acd05a1f63b626b20ee3a,689ed6d1281858f68c932c05,689f3bd689e93f4eae3dae5f,,,,,,,,,,,,,,0,,,,,,,,,,,,,,,,,,,,,,,,,,,,,,,,,,,,,,,,,,,,441.8423,443.9106,0,1,1.5523,,443.9106,444.9138,0,2,2,2,1,0,coné,REAL,FAKE,,,,,,,,,,,,,,,,,,,,,,,,,,,,,,,,
,,,,,,,,,610acd05a1f63b626b20ee3a,Spanish,13 or older,"no, only English or Spanish",no,2025-08-15_09h58.46.843,empathy_intonation_perc,2024.2.4,MacIntel,59.84082341,610acd05a1f63b626b20ee3a,689ed6d1281858f68c932c05,689f3bd689e93f4eae3dae5f,,,,,,,,,,,,,,0,,,,,,,,,,,,,,,,,,,,,,,,,,,,,,,,,,,,,,,,,,,,444.9158,446.6022,1,0,1.1692,,446.6039,447.6044,0,3,3,3,1,0,calpar,REAL,FAKE,,,,,,,,,,,,,,,,,,,,,,,,,,,,,,,,
,,,,,,,,,610acd05a1f63b626b20ee3a,Spanish,13 or older,"no, only English or Spanish",no,2025-08-15_09h58.46.843,empathy_intonation_perc,2024.2.4,MacIntel,59.84082341,610acd05a1f63b626b20ee3a,689ed6d1281858f68c932c05,689f3bd689e93f4eae3dae5f,,,,,,,,,,,,,,0,,,,,,,,,,,,,,,,,,,,,,,,,,,,,,,,,,,,,,,,,,,,447.6064,449.0253,0,1,0.9019,,449.0266,450.0273,0,4,4,4,1,0,joten,REAL,FAKE,,,,,,,,,,,,,,,,,,,,,,,,,,,,,,,,
,,,,,,,,,610acd05a1f63b626b20ee3a,Spanish,13 or older,"no, only English or Spanish",no,2025-08-15_09h58.46.843,empathy_intonation_perc,2024.2.4,MacIntel,59.84082341,610acd05a1f63b626b20ee3a,689ed6d1281858f68c932c05,689f3bd689e93f4eae3dae5f,,,,,,,,,,,,,,1,,,,,,,,,,,,,,,,,,,,,,,,,,,,,,,,,,,,,,,,,,,,450.0296,452.1174,0,0,1.5737,,452.1186,453.1194,0,5,5,5,1,0,sacapuntas,REAL,FAKE,,,,,,,,,,,,,,,,,,,,,,,,,,,,,,,,
,,,,,,,,,610acd05a1f63b626b20ee3a,Spanish,13 or older,"no, only English or Spanish",no,2025-08-15_09h58.46.843,empathy_intonation_perc,2024.2.4,MacIntel,59.84082341,610acd05a1f63b626b20ee3a,689ed6d1281858f68c932c05,689f3bd689e93f4eae3dae5f,,,,,,,,,,,,,,0,,,,,,,,,,,,,,,,,,,,,,,,,,,,,,,,,,,,,,,,,,,,453.1215,455.076,0,1,1.4326,,455.0783,456.077,0,6,6,6,1,0,priba,REAL,FAKE,,,,,,,,,,,,,,,,,,,,,,,,,,,,,,,,
,,,,,,,,,610acd05a1f63b626b20ee3a,Spanish,13 or older,"no, only English or Spanish",no,2025-08-15_09h58.46.843,empathy_intonation_perc,2024.2.4,MacIntel,59.84082341,610acd05a1f63b626b20ee3a,689ed6d1281858f68c932c05,689f3bd689e93f4eae3dae5f,,,,,,,,,,,,,,0,,,,,,,,,,,,,,,,,,,,,,,,,,,,,,,,,,,,,,,,,,,,456.0791,458.2314,1,0,1.6358,,458.2324,459.2343,0,7,7,7,1,0,pelasula,REAL,FAKE,,,,,,,,,,,,,,,,,,,,,,,,,,,,,,,,
,,,,,,,,,610acd05a1f63b626b20ee3a,Spanish,13 or older,"no, only English or Spanish",no,2025-08-15_09h58.46.843,empathy_intonation_perc,2024.2.4,MacIntel,59.84082341,610acd05a1f63b626b20ee3a,689ed6d1281858f68c932c05,689f3bd689e93f4eae3dae5f,,,,,,,,,,,,,,1,,,,,,,,,,,,,,,,,,,,,,,,,,,,,,,,,,,,,,,,,,,,459.2365,460.4565,1,1,0.6999,,460.4573,461.458,0,8,8,8,1,0,bien,REAL,FAKE,,,,,,,,,,,,,,,,,,,,,,,,,,,,,,,,
,,,,,,,,,610acd05a1f63b626b20ee3a,Spanish,13 or older,"no, only English or Spanish",no,2025-08-15_09h58.46.843,empathy_intonation_perc,2024.2.4,MacIntel,59.84082341,610acd05a1f63b626b20ee3a,689ed6d1281858f68c932c05,689f3bd689e93f4eae3dae5f,,,,,,,,,,,,,,1,,,,,,,,,,,,,,,,,,,,,,,,,,,,,,,,,,,,,,,,,,,,461.4599,462.6767,1,1,0.7004,,462.6768,463.6657,0,9,9,9,1,0,casa,REAL,FAKE,,,,,,,,,,,,,,,,,,,,,,,,,,,,,,,,
,,,,,,,,,610acd05a1f63b626b20ee3a,Spanish,13 or older,"no, only English or Spanish",no,2025-08-15_09h58.46.843,empathy_intonation_perc,2024.2.4,MacIntel,59.84082341,610acd05a1f63b626b20ee3a,689ed6d1281858f68c932c05,689f3bd689e93f4eae3dae5f,,,,,,,,,,,,,,0,,,,,,,,,,,,,,,,,,,,,,,,,,,,,,,,,,,,,,,,,,,,463.6678,465.6533,1,0,1.452,,465.6547,466.6566,0,10,10,10,1,0,lejo,REAL,FAKE,,,,,,,,,,,,,,,,,,,,,,,,,,,,,,,,
,,,,,,,,,610acd05a1f63b626b20ee3a,Spanish,13 or older,"no, only English or Spanish",no,2025-08-15_09h58.46.843,empathy_intonation_perc,2024.2.4,MacIntel,59.84082341,610acd05a1f63b626b20ee3a,689ed6d1281858f68c932c05,689f3bd689e93f4eae3dae5f,,,,,,,,,,,,,,0,,,,,,,,,,,,,,,,,,,,,,,,,,,,,,,,,,,,,,,,,,,,466.6589,469.499,1,0,2.3216,,469.4992,470.4993,0,11,11,11,1,0,pretantas,REAL,FAKE,,,,,,,,,,,,,,,,,,,,,,,,,,,,,,,,
,,,,,,,,,610acd05a1f63b626b20ee3a,Spanish,13 or older,"no, only English or Spanish",no,2025-08-15_09h58.46.843,empathy_intonation_perc,2024.2.4,MacIntel,59.84082341,610acd05a1f63b626b20ee3a,689ed6d1281858f68c932c05,689f3bd689e93f4eae3dae5f,,,,,,,,,,,,,,,,,,,,,,,,,,,,,,,,,,,,,,,,,,,,,,,,,,,,,,,,,,,,,,,,,,,,,,,,,,,470.501,471.1663,,,,,,,,,,,,,,,,,,,,,,,,,,,,,,
,,,,,,,,,610acd05a1f63b626b20ee3a,Spanish,13 or older,"no, only English or Spanish",no,2025-08-15_09h58.46.843,empathy_intonation_perc,2024.2.4,MacIntel,59.84082341,610acd05a1f63b626b20ee3a,689ed6d1281858f68c932c05,689f3bd689e93f4eae3dae5f,,,,,,,,,,,,,,1,,,,,,,,,,,,,,,,,,,,,,,,,,,,,,,,,,,,,,,,,,,,,,,,,,,,,,,,,15,regar,,,,,471.1779,473.0731,1,1,1.3681,,0,0,0,14,1,REAL,FAKE,,,,,,,,,,,,,,,,,
,,,,,,,,,610acd05a1f63b626b20ee3a,Spanish,13 or older,"no, only English or Spanish",no,2025-08-15_09h58.46.843,empathy_intonation_perc,2024.2.4,MacIntel,59.84082341,610acd05a1f63b626b20ee3a,689ed6d1281858f68c932c05,689f3bd689e93f4eae3dae5f,,,,,,,,,,,,,,1,,,,,,,,,,,,,,,,,,,,,,,,,,,,,,,,,,,,,,,,,,,,,,,,,,,,,,,,,6,tergiversar,,,,,473.0747,474.6445,0,0,1.0377,,0,1,1,5,1,REAL,FAKE,,,,,,,,,,,,,,,,,
,,,,,,,,,610acd05a1f63b626b20ee3a,Spanish,13 or older,"no, only English or Spanish",no,2025-08-15_09h58.46.843,empathy_intonation_perc,2024.2.4,MacIntel,59.84082341,610acd05a1f63b626b20ee3a,689ed6d1281858f68c932c05,689f3bd689e93f4eae3dae5f,,,,,,,,,,,,,,1,,,,,,,,,,,,,,,,,,,,,,,,,,,,,,,,,,,,,,,,,,,,,,,,,,,,,,,,,43,canela,,,,,474.6464,476.0969,1,1,0.9167,,0,2,2,42,1,REAL,FAKE,,,,,,,,,,,,,,,,,
,,,,,,,,,610acd05a1f63b626b20ee3a,Spanish,13 or older,"no, only English or Spanish",no,2025-08-15_09h58.46.843,empathy_intonation_perc,2024.2.4,MacIntel,59.84082341,610acd05a1f63b626b20ee3a,689ed6d1281858f68c932c05,689f3bd689e93f4eae3dae5f,,,,,,,,,,,,,,1,,,,,,,,,,,,,,,,,,,,,,,,,,,,,,,,,,,,,,,,,,,,,,,,,,,,,,,,,69,engatusar,,,,,476.0987,478.4537,0,0,1.8357,,0,3,3,68,1,REAL,FAKE,,,,,,,,,,,,,,,,,
,,,,,,,,,610acd05a1f63b626b20ee3a,Spanish,13 or older,"no, only English or Spanish",no,2025-08-15_09h58.46.843,empathy_intonation_perc,2024.2.4,MacIntel,59.84082341,610acd05a1f63b626b20ee3a,689ed6d1281858f68c932c05,689f3bd689e93f4eae3dae5f,,,,,,,,,,,,,,1,,,,,,,,,,,,,,,,,,,,,,,,,,,,,,,,,,,,,,,,,,,,,,,,,,,,,,,,,25,bisagra,,,,,478.4553,480.8107,0,0,1.8402,,0,4,4,24,1,REAL,FAKE,,,,,,,,,,,,,,,,,
,,,,,,,,,610acd05a1f63b626b20ee3a,Spanish,13 or older,"no, only English or Spanish",no,2025-08-15_09h58.46.843,empathy_intonation_perc,2024.2.4,MacIntel,59.84082341,610acd05a1f63b626b20ee3a,689ed6d1281858f68c932c05,689f3bd689e93f4eae3dae5f,,,,,,,,,,,,,,1,,,,,,,,,,,,,,,,,,,,,,,,,,,,,,,,,,,,,,,,,,,,,,,,,,,,,,,,,75,yacer,,,,,480.8124,483.0494,0,0,1.7191,,0,5,5,74,1,REAL,FAKE,,,,,,,,,,,,,,,,,
,,,,,,,,,610acd05a1f63b626b20ee3a,Spanish,13 or older,"no, only English or Spanish",no,2025-08-15_09h58.46.843,empathy_intonation_perc,2024.2.4,MacIntel,59.84082341,610acd05a1f63b626b20ee3a,689ed6d1281858f68c932c05,689f3bd689e93f4eae3dae5f,,,,,,,,,,,,,,1,,,,,,,,,,,,,,,,,,,,,,,,,,,,,,,,,,,,,,,,,,,,,,,,,,,,,,,,,5,zapato,,,,,483.0518,484.251,1,1,0.6685,,0,6,6,4,1,REAL,FAKE,,,,,,,,,,,,,,,,,
,,,,,,,,,610acd05a1f63b626b20ee3a,Spanish,13 or older,"no, only English or Spanish",no,2025-08-15_09h58.46.843,empathy_intonation_perc,2024.2.4,MacIntel,59.84082341,610acd05a1f63b626b20ee3a,689ed6d1281858f68c932c05,689f3bd689e93f4eae3dae5f,,,,,,,,,,,,,,1,,,,,,,,,,,,,,,,,,,,,,,,,,,,,,,,,,,,,,,,,,,,,,,,,,,,,,,,,31,pandilla,,,,,484.2528,485.6225,1,1,0.8566,,0,7,7,30,1,REAL,FAKE,,,,,,,,,,,,,,,,,
,,,,,,,,,610acd05a1f63b626b20ee3a,Spanish,13 or older,"no, only English or Spanish",no,2025-08-15_09h58.46.843,empathy_intonation_perc,2024.2.4,MacIntel,59.84082341,610acd05a1f63b626b20ee3a,689ed6d1281858f68c932c05,689f3bd689e93f4eae3dae5f,,,,,,,,,,,,,,1,,,,,,,,,,,,,,,,,,,,,,,,,,,,,,,,,,,,,,,,,,,,,,,,,,,,,,,,,46,martillo,,,,,485.6242,487.2951,0,0,1.1502,,0,8,8,45,1,REAL,FAKE,,,,,,,,,,,,,,,,,
,,,,,,,,,610acd05a1f63b626b20ee3a,Spanish,13 or older,"no, only English or Spanish",no,2025-08-15_09h58.46.843,empathy_intonation_perc,2024.2.4,MacIntel,59.84082341,610acd05a1f63b626b20ee3a,689ed6d1281858f68c932c05,689f3bd689e93f4eae3dae5f,,,,,,,,,,,,,,0,,,,,,,,,,,,,,,,,,,,,,,,,,,,,,,,,,,,,,,,,,,,,,,,,,,,,,,,,1,terzo,,,,,487.2972,489.298,0,1,1.4848,,0,9,9,0,1,REAL,FAKE,,,,,,,,,,,,,,,,,
,,,,,,,,,610acd05a1f63b626b20ee3a,Spanish,13 or older,"no, only English or Spanish",no,2025-08-15_09h58.46.843,empathy_intonation_perc,2024.2.4,MacIntel,59.84082341,610acd05a1f63b626b20ee3a,689ed6d1281858f68c932c05,689f3bd689e93f4eae3dae5f,,,,,,,,,,,,,,1,,,,,,,,,,,,,,,,,,,,,,,,,,,,,,,,,,,,,,,,,,,,,,,,,,,,,,,,,52,camisa,,,,,489.3007,490.6374,1,1,0.8147,,0,10,10,51,1,REAL,FAKE,,,,,,,,,,,,,,,,,
,,,,,,,,,610acd05a1f63b626b20ee3a,Spanish,13 or older,"no, only English or Spanish",no,2025-08-15_09h58.46.843,empathy_intonation_perc,2024.2.4,MacIntel,59.84082341,610acd05a1f63b626b20ee3a,689ed6d1281858f68c932c05,689f3bd689e93f4eae3dae5f,,,,,,,,,,,,,,1,,,,,,,,,,,,,,,,,,,,,,,,,,,,,,,,,,,,,,,,,,,,,,,,,,,,,,,,,41,rebuscar,,,,,490.6393,492.2569,0,0,1.0835,,0,11,11,40,1,REAL,FAKE,,,,,,,,,,,,,,,,,
,,,,,,,,,610acd05a1f63b626b20ee3a,Spanish,13 or older,"no, only English or Spanish",no,2025-08-15_09h58.46.843,empathy_intonation_perc,2024.2.4,MacIntel,59.84082341,610acd05a1f63b626b20ee3a,689ed6d1281858f68c932c05,689f3bd689e93f4eae3dae5f,,,,,,,,,,,,,,0,,,,,,,,,,,,,,,,,,,,,,,,,,,,,,,,,,,,,,,,,,,,,,,,,,,,,,,,,33,pauca,,,,,492.259,494.7459,0,1,1.9723,,0,12,12,32,1,REAL,FAKE,,,,,,,,,,,,,,,,,
,,,,,,,,,610acd05a1f63b626b20ee3a,Spanish,13 or older,"no, only English or Spanish",no,2025-08-15_09h58.46.843,empathy_intonation_perc,2024.2.4,MacIntel,59.84082341,610acd05a1f63b626b20ee3a,689ed6d1281858f68c932c05,689f3bd689e93f4eae3dae5f,,,,,,,,,,,,,,0,,,,,,,,,,,,,,,,,,,,,,,,,,,,,,,,,,,,,,,,,,,,,,,,,,,,,,,,,79,tropaje,,,,,494.7487,497.9067,0,1,2.6367,,0,13,13,78,1,REAL,FAKE,,,,,,,,,,,,,,,,,
,,,,,,,,,610acd05a1f63b626b20ee3a,Spanish,13 or older,"no, only English or Spanish",no,2025-08-15_09h58.46.843,empathy_intonation_perc,2024.2.4,MacIntel,59.84082341,610acd05a1f63b626b20ee3a,689ed6d1281858f68c932c05,689f3bd689e93f4eae3dae5f,,,,,,,,,,,,,,1,,,,,,,,,,,,,,,,,,,,,,,,,,,,,,,,,,,,,,,,,,,,,,,,,,,,,,,,,44,cuchara,,,,,497.9086,499.4417,1,1,0.9995,,0,14,14,43,1,REAL,FAKE,,,,,,,,,,,,,,,,,
,,,,,,,,,610acd05a1f63b626b20ee3a,Spanish,13 or older,"no, only English or Spanish",no,2025-08-15_09h58.46.843,empathy_intonation_perc,2024.2.4,MacIntel,59.84082341,610acd05a1f63b626b20ee3a,689ed6d1281858f68c932c05,689f3bd689e93f4eae3dae5f,,,,,,,,,,,,,,1,,,,,,,,,,,,,,,,,,,,,,,,,,,,,,,,,,,,,,,,,,,,,,,,,,,,,,,,,55,nevar,,,,,499.4447,501.5158,0,0,1.5554,,0,15,15,54,1,REAL,FAKE,,,,,,,,,,,,,,,,,
,,,,,,,,,610acd05a1f63b626b20ee3a,Spanish,13 or older,"no, only English or Spanish",no,2025-08-15_09h58.46.843,empathy_intonation_perc,2024.2.4,MacIntel,59.84082341,610acd05a1f63b626b20ee3a,689ed6d1281858f68c932c05,689f3bd689e93f4eae3dae5f,,,,,,,,,,,,,,1,,,,,,,,,,,,,,,,,,,,,,,,,,,,,,,,,,,,,,,,,,,,,,,,,,,,,,,,,28,merodear,,,,,501.5179,503.4213,0,0,1.3878,,0,16,16,27,1,REAL,FAKE,,,,,,,,,,,,,,,,,
,,,,,,,,,610acd05a1f63b626b20ee3a,Spanish,13 or older,"no, only English or Spanish",no,2025-08-15_09h58.46.843,empathy_intonation_perc,2024.2.4,MacIntel,59.84082341,610acd05a1f63b626b20ee3a,689ed6d1281858f68c932c05,689f3bd689e93f4eae3dae5f,,,,,,,,,,,,,,1,,,,,,,,,,,,,,,,,,,,,,,,,,,,,,,,,,,,,,,,,,,,,,,,,,,,,,,,,62,flaco,,,,,503.4232,504.9905,1,1,1.048,,0,17,17,61,1,REAL,FAKE,,,,,,,,,,,,,,,,,
,,,,,,,,,610acd05a1f63b626b20ee3a,Spanish,13 or older,"no, only English or Spanish",no,2025-08-15_09h58.46.843,empathy_intonation_perc,2024.2.4,MacIntel,59.84082341,610acd05a1f63b626b20ee3a,689ed6d1281858f68c932c05,689f3bd689e93f4eae3dae5f,,,,,,,,,,,,,,0,,,,,,,,,,,,,,,,,,,,,,,,,,,,,,,,,,,,,,,,,,,,,,,,,,,,,,,,,27,acutación,,,,,504.9928,507.9656,0,1,2.4518,,0,18,18,26,1,REAL,FAKE,,,,,,,,,,,,,,,,,
,,,,,,,,,610acd05a1f63b626b20ee3a,Spanish,13 or older,"no, only English or Spanish",no,2025-08-15_09h58.46.843,empathy_intonation_perc,2024.2.4,MacIntel,59.84082341,610acd05a1f63b626b20ee3a,689ed6d1281858f68c932c05,689f3bd689e93f4eae3dae5f,,,,,,,,,,,,,,0,,,,,,,,,,,,,,,,,,,,,,,,,,,,,,,,,,,,,,,,,,,,,,,,,,,,,,,,,35,rompido,,,,,507.9674,510.0223,1,0,1.5383,,0,19,19,34,1,REAL,FAKE,,,,,,,,,,,,,,,,,
,,,,,,,,,610acd05a1f63b626b20ee3a,Spanish,13 or older,"no, only English or Spanish",no,2025-08-15_09h58.46.843,empathy_intonation_perc,2024.2.4,MacIntel,59.84082341,610acd05a1f63b626b20ee3a,689ed6d1281858f68c932c05,689f3bd689e93f4eae3dae5f,,,,,,,,,,,,,,1,,,,,,,,,,,,,,,,,,,,,,,,,,,,,,,,,,,,,,,,,,,,,,,,,,,,,,,,,86,barato,,,,,510.0242,512.4111,1,1,1.876,,0,20,20,85,1,REAL,FAKE,,,,,,,,,,,,,,,,,
,,,,,,,,,610acd05a1f63b626b20ee3a,Spanish,13 or older,"no, only English or Spanish",no,2025-08-15_09h58.46.843,empathy_intonation_perc,2024.2.4,MacIntel,59.84082341,610acd05a1f63b626b20ee3a,689ed6d1281858f68c932c05,689f3bd689e93f4eae3dae5f,,,,,,,,,,,,,,0,,,,,,,,,,,,,,,,,,,,,,,,,,,,,,,,,,,,,,,,,,,,,,,,,,,,,,,,,4,batillón,,,,,512.4144,514.6319,1,0,1.6851,,0,21,21,3,1,REAL,FAKE,,,,,,,,,,,,,,,,,
,,,,,,,,,610acd05a1f63b626b20ee3a,Spanish,13 or older,"no, only English or Spanish",no,2025-08-15_09h58.46.843,empathy_intonation_perc,2024.2.4,MacIntel,59.84082341,610acd05a1f63b626b20ee3a,689ed6d1281858f68c932c05,689f3bd689e93f4eae3dae5f,,,,,,,,,,,,,,1,,,,,,,,,,,,,,,,,,,,,,,,,,,,,,,,,,,,,,,,,,,,,,,,,,,,,,,,,14,yunque,,,,,514.6337,516.0368,0,0,0.8802,,0,22,22,13,1,REAL,FAKE,,,,,,,,,,,,,,,,,
,,,,,,,,,610acd05a1f63b626b20ee3a,Spanish,13 or older,"no, only English or Spanish",no,2025-08-15_09h58.46.843,empathy_intonation_perc,2024.2.4,MacIntel,59.84082341,610acd05a1f63b626b20ee3a,689ed6d1281858f68c932c05,689f3bd689e93f4eae3dae5f,,,,,,,,,,,,,,1,,,,,,,,,,,,,,,,,,,,,,,,,,,,,,,,,,,,,,,,,,,,,,,,,,,,,,,,,88,acantilado,,,,,516.0391,519.0438,0,0,2.4896,,0,23,23,87,1,REAL,FAKE,,,,,,,,,,,,,,,,,
,,,,,,,,,610acd05a1f63b626b20ee3a,Spanish,13 or older,"no, only English or Spanish",no,2025-08-15_09h58.46.843,empathy_intonation_perc,2024.2.4,MacIntel,59.84082341,610acd05a1f63b626b20ee3a,689ed6d1281858f68c932c05,689f3bd689e93f4eae3dae5f,,,,,,,,,,,,,,0,,,,,,,,,,,,,,,,,,,,,,,,,,,,,,,,,,,,,,,,,,,,,,,,,,,,,,,,,19,brecedad,,,,,519.0466,521.0692,0,1,1.5061,,0,24,24,18,1,REAL,FAKE,,,,,,,,,,,,,,,,,
,,,,,,,,,610acd05a1f63b626b20ee3a,Spanish,13 or older,"no, only English or Spanish",no,2025-08-15_09h58.46.843,empathy_intonation_perc,2024.2.4,MacIntel,59.84082341,610acd05a1f63b626b20ee3a,689ed6d1281858f68c932c05,689f3bd689e93f4eae3dae5f,,,,,,,,,,,,,,1,,,,,,,,,,,,,,,,,,,,,,,,,,,,,,,,,,,,,,,,,,,,,,,,,,,,,,,,,68,alegre,,,,,521.071,522.3875,1,1,0.7974,,0,25,25,67,1,REAL,FAKE,,,,,,,,,,,,,,,,,
,,,,,,,,,610acd05a1f63b626b20ee3a,Spanish,13 or older,"no, only English or Spanish",no,2025-08-15_09h58.46.843,empathy_intonation_perc,2024.2.4,MacIntel,59.84082341,610acd05a1f63b626b20ee3a,689ed6d1281858f68c932c05,689f3bd689e93f4eae3dae5f,,,,,,,,,,,,,,1,,,,,,,,,,,,,,,,,,,,,,,,,,,,,,,,,,,,,,,,,,,,,,,,,,,,,,,,,81,pozo,,,,,522.3907,524.6633,1,1,1.7516,,0,26,26,80,1,REAL,FAKE,,,,,,,,,,,,,,,,,
,,,,,,,,,610acd05a1f63b626b20ee3a,Spanish,13 or older,"no, only English or Spanish",no,2025-08-15_09h58.46.843,empathy_intonation_perc,2024.2.4,MacIntel,59.84082341,610acd05a1f63b626b20ee3a,689ed6d1281858f68c932c05,689f3bd689e93f4eae3dae5f,,,,,,,,,,,,,,1,,,,,,,,,,,,,,,,,,,,,,,,,,,,,,,,,,,,,,,,,,,,,,,,,,,,,,,,,77,tiburón,,,,,524.6642,525.9149,0,0,0.7122,,0,27,27,76,1,REAL,FAKE,,,,,,,,,,,,,,,,,
,,,,,,,,,610acd05a1f63b626b20ee3a,Spanish,13 or older,"no, only English or Spanish",no,2025-08-15_09h58.46.843,empathy_intonation_perc,2024.2.4,MacIntel,59.84082341,610acd05a1f63b626b20ee3a,689ed6d1281858f68c932c05,689f3bd689e93f4eae3dae5f,,,,,,,,,,,,,,0,,,,,,,,,,,,,,,,,,,,,,,,,,,,,,,,,,,,,,,,,,,,,,,,,,,,,,,,,72,pemición,,,,,525.9169,528.003,0,1,1.5585,,0,28,28,71,1,REAL,FAKE,,,,,,,,,,,,,,,,,
,,,,,,,,,610acd05a1f63b626b20ee3a,Spanish,13 or older,"no, only English or Spanish",no,2025-08-15_09h58.46.843,empathy_intonation_perc,2024.2.4,MacIntel,59.84082341,610acd05a1f63b626b20ee3a,689ed6d1281858f68c932c05,689f3bd689e93f4eae3dae5f,,,,,,,,,,,,,,1,,,,,,,,,,,,,,,,,,,,,,,,,,,,,,,,,,,,,,,,,,,,,,,,,,,,,,,,,51,candado,,,,,528.0056,529.5568,1,1,1.0337,,0,29,29,50,1,REAL,FAKE,,,,,,,,,,,,,,,,,
,,,,,,,,,610acd05a1f63b626b20ee3a,Spanish,13 or older,"no, only English or Spanish",no,2025-08-15_09h58.46.843,empathy_intonation_perc,2024.2.4,MacIntel,59.84082341,610acd05a1f63b626b20ee3a,689ed6d1281858f68c932c05,689f3bd689e93f4eae3dae5f,,,,,,,,,,,,,,1,,,,,,,,,,,,,,,,,,,,,,,,,,,,,,,,,,,,,,,,,,,,,,,,,,,,,,,,,2,pellizcar,,,,,529.5594,530.6765,0,0,0.5823,,0,30,30,1,1,REAL,FAKE,,,,,,,,,,,,,,,,,
,,,,,,,,,610acd05a1f63b626b20ee3a,Spanish,13 or older,"no, only English or Spanish",no,2025-08-15_09h58.46.843,empathy_intonation_perc,2024.2.4,MacIntel,59.84082341,610acd05a1f63b626b20ee3a,689ed6d1281858f68c932c05,689f3bd689e93f4eae3dae5f,,,,,,,,,,,,,,0,,,,,,,,,,,,,,,,,,,,,,,,,,,,,,,,,,,,,,,,,,,,,,,,,,,,,,,,,42,cadallo,,,,,530.6784,532.5492,0,1,1.3487,,0,31,31,41,1,REAL,FAKE,,,,,,,,,,,,,,,,,
,,,,,,,,,610acd05a1f63b626b20ee3a,Spanish,13 or older,"no, only English or Spanish",no,2025-08-15_09h58.46.843,empathy_intonation_perc,2024.2.4,MacIntel,59.84082341,610acd05a1f63b626b20ee3a,689ed6d1281858f68c932c05,689f3bd689e93f4eae3dae5f,,,,,,,,,,,,,,0,,,,,,,,,,,,,,,,,,,,,,,,,,,,,,,,,,,,,,,,,,,,,,,,,,,,,,,,,50,flamida,,,,,532.5513,534.5541,1,0,1.4719,,0,32,32,49,1,REAL,FAKE,,,,,,,,,,,,,,,,,
,,,,,,,,,610acd05a1f63b626b20ee3a,Spanish,13 or older,"no, only English or Spanish",no,2025-08-15_09h58.46.843,empathy_intonation_perc,2024.2.4,MacIntel,59.84082341,610acd05a1f63b626b20ee3a,689ed6d1281858f68c932c05,689f3bd689e93f4eae3dae5f,,,,,,,,,,,,,,0,,,,,,,,,,,,,,,,,,,,,,,,,,,,,,,,,,,,,,,,,,,,,,,,,,,,,,,,,63,esposante,,,,,534.5562,537.3603,1,0,2.2691,,0,33,33,62,1,REAL,FAKE,,,,,,,,,,,,,,,,,
,,,,,,,,,610acd05a1f63b626b20ee3a,Spanish,13 or older,"no, only English or Spanish",no,2025-08-15_09h58.46.843,empathy_intonation_perc,2024.2.4,MacIntel,59.84082341,610acd05a1f63b626b20ee3a,689ed6d1281858f68c932c05,689f3bd689e93f4eae3dae5f,,,,,,,,,,,,,,1,,,,,,,,,,,,,,,,,,,,,,,,,,,,,,,,,,,,,,,,,,,,,,,,,,,,,,,,,65,bizcocho,,,,,537.3635,538.4969,0,0,0.6164,,0,34,34,64,1,REAL,FAKE,,,,,,,,,,,,,,,,,
,,,,,,,,,610acd05a1f63b626b20ee3a,Spanish,13 or older,"no, only English or Spanish",no,2025-08-15_09h58.46.843,empathy_intonation_perc,2024.2.4,MacIntel,59.84082341,610acd05a1f63b626b20ee3a,689ed6d1281858f68c932c05,689f3bd689e93f4eae3dae5f,,,,,,,,,,,,,,1,,,,,,,,,,,,,,,,,,,,,,,,,,,,,,,,,,,,,,,,,,,,,,,,,,,,,,,,,11,cenefa,,,,,538.4985,540.7029,1,1,1.6877,,0,35,35,10,1,REAL,FAKE,,,,,,,,,,,,,,,,,
,,,,,,,,,610acd05a1f63b626b20ee3a,Spanish,13 or older,"no, only English or Spanish",no,2025-08-15_09h58.46.843,empathy_intonation_perc,2024.2.4,MacIntel,59.84082341,610acd05a1f63b626b20ee3a,689ed6d1281858f68c932c05,689f3bd689e93f4eae3dae5f,,,,,,,,,,,,,,1,,,,,,,,,,,,,,,,,,,,,,,,,,,,,,,,,,,,,,,,,,,,,,,,,,,,,,,,,73,hervidor,,,,,540.7049,543.1917,0,0,1.9731,,0,36,36,72,1,REAL,FAKE,,,,,,,,,,,,,,,,,
,,,,,,,,,610acd05a1f63b626b20ee3a,Spanish,13 or older,"no, only English or Spanish",no,2025-08-15_09h58.46.843,empathy_intonation_perc,2024.2.4,MacIntel,59.84082341,610acd05a1f63b626b20ee3a,689ed6d1281858f68c932c05,689f3bd689e93f4eae3dae5f,,,,,,,,,,,,,,0,,,,,,,,,,,,,,,,,,,,,,,,,,,,,,,,,,,,,,,,,,,,,,,,,,,,,,,,,32,fatacidad,,,,,543.1937,545.8166,1,0,2.1037,,0,37,37,31,1,REAL,FAKE,,,,,,,,,,,,,,,,,
,,,,,,,,,610acd05a1f63b626b20ee3a,Spanish,13 or older,"no, only English or Spanish",no,2025-08-15_09h58.46.843,empathy_intonation_perc,2024.2.4,MacIntel,59.84082341,610acd05a1f63b626b20ee3a,689ed6d1281858f68c932c05,689f3bd689e93f4eae3dae5f,,,,,,,,,,,,,,1,,,,,,,,,,,,,,,,,,,,,,,,,,,,,,,,,,,,,,,,,,,,,,,,,,,,,,,,,54,fomentar,,,,,545.8184,547.1866,0,0,0.8536,,0,38,38,53,1,REAL,FAKE,,,,,,,,,,,,,,,,,
,,,,,,,,,610acd05a1f63b626b20ee3a,Spanish,13 or older,"no, only English or Spanish",no,2025-08-15_09h58.46.843,empathy_intonation_perc,2024.2.4,MacIntel,59.84082341,610acd05a1f63b626b20ee3a,689ed6d1281858f68c932c05,689f3bd689e93f4eae3dae5f,,,,,,,,,,,,,,1,,,,,,,,,,,,,,,,,,,,,,,,,,,,,,,,,,,,,,,,,,,,,,,,,,,,,,,,,24,látigo,,,,,547.1888,548.992,1,1,1.2829,,0,39,39,23,1,REAL,FAKE,,,,,,,,,,,,,,,,,
,,,,,,,,,610acd05a1f63b626b20ee3a,Spanish,13 or older,"no, only English or Spanish",no,2025-08-15_09h58.46.843,empathy_intonation_perc,2024.2.4,MacIntel,59.84082341,610acd05a1f63b626b20ee3a,689ed6d1281858f68c932c05,689f3bd689e93f4eae3dae5f,,,,,,,,,,,,,,0,,,,,,,,,,,,,,,,,,,,,,,,,,,,,,,,,,,,,,,,,,,,,,,,,,,,,,,,,84,escuto,,,,,548.9941,551.5819,1,0,2.074,,0,40,40,83,1,REAL,FAKE,,,,,,,,,,,,,,,,,
,,,,,,,,,610acd05a1f63b626b20ee3a,Spanish,13 or older,"no, only English or Spanish",no,2025-08-15_09h58.46.843,empathy_intonation_perc,2024.2.4,MacIntel,59.84082341,610acd05a1f63b626b20ee3a,689ed6d1281858f68c932c05,689f3bd689e93f4eae3dae5f,,,,,,,,,,,,,,1,,,,,,,,,,,,,,,,,,,,,,,,,,,,,,,,,,,,,,,,,,,,,,,,,,,,,,,,,90,clavel,,,,,551.5839,552.9188,0,0,0.8046,,0,41,41,89,1,REAL,FAKE,,,,,,,,,,,,,,,,,
,,,,,,,,,610acd05a1f63b626b20ee3a,Spanish,13 or older,"no, only English or Spanish",no,2025-08-15_09h58.46.843,empathy_intonation_perc,2024.2.4,MacIntel,59.84082341,610acd05a1f63b626b20ee3a,689ed6d1281858f68c932c05,689f3bd689e93f4eae3dae5f,,,,,,,,,,,,,,1,,,,,,,,,,,,,,,,,,,,,,,,,,,,,,,,,,,,,,,,,,,,,,,,,,,,,,,,,3,pulmones,,,,,552.921,554.9582,1,1,1.5174,,0,42,42,2,1,REAL,FAKE,,,,,,,,,,,,,,,,,
,,,,,,,,,610acd05a1f63b626b20ee3a,Spanish,13 or older,"no, only English or Spanish",no,2025-08-15_09h58.46.843,empathy_intonation_perc,2024.2.4,MacIntel,59.84082341,610acd05a1f63b626b20ee3a,689ed6d1281858f68c932c05,689f3bd689e93f4eae3dae5f,,,,,,,,,,,,,,0,,,,,,,,,,,,,,,,,,,,,,,,,,,,,,,,,,,,,,,,,,,,,,,,,,,,,,,,,74,cintro,,,,,554.9601,557.8141,0,1,2.3262,,0,43,43,73,1,REAL,FAKE,,,,,,,,,,,,,,,,,
,,,,,,,,,610acd05a1f63b626b20ee3a,Spanish,13 or older,"no, only English or Spanish",no,2025-08-15_09h58.46.843,empathy_intonation_perc,2024.2.4,MacIntel,59.84082341,610acd05a1f63b626b20ee3a,689ed6d1281858f68c932c05,689f3bd689e93f4eae3dae5f,,,,,,,,,,,,,,1,,,,,,,,,,,,,,,,,,,,,,,,,,,,,,,,,,,,,,,,,,,,,,,,,,,,,,,,,49,ganar,,,,,557.8159,559.3876,1,1,1.0483,,0,44,44,48,1,REAL,FAKE,,,,,,,,,,,,,,,,,
,,,,,,,,,610acd05a1f63b626b20ee3a,Spanish,13 or older,"no, only English or Spanish",no,2025-08-15_09h58.46.843,empathy_intonation_perc,2024.2.4,MacIntel,59.84082341,610acd05a1f63b626b20ee3a,689ed6d1281858f68c932c05,689f3bd689e93f4eae3dae5f,,,,,,,,,,,,,,1,,,,,,,,,,,,,,,,,,,,,,,,,,,,,,,,,,,,,,,,,,,,,,,,,,,,,,,,,71,polvoriento,,,,,559.3895,560.9582,0,0,1.033,,0,45,45,70,1,REAL,FAKE,,,,,,,,,,,,,,,,,
,,,,,,,,,610acd05a1f63b626b20ee3a,Spanish,13 or older,"no, only English or Spanish",no,2025-08-15_09h58.46.843,empathy_intonation_perc,2024.2.4,MacIntel,59.84082341,610acd05a1f63b626b20ee3a,689ed6d1281858f68c932c05,689f3bd689e93f4eae3dae5f,,,,,,,,,,,,,,0,,,,,,,,,,,,,,,,,,,,,,,,,,,,,,,,,,,,,,,,,,,,,,,,,,,,,,,,,92,click the 0 key.,,,,,560.9601,563.0458,0,1,1.5736,,0,46,46,91,1,REAL,FAKE,,,,,,,,,,,,,,,,,
,,,,,,,,,610acd05a1f63b626b20ee3a,Spanish,13 or older,"no, only English or Spanish",no,2025-08-15_09h58.46.843,empathy_intonation_perc,2024.2.4,MacIntel,59.84082341,610acd05a1f63b626b20ee3a,689ed6d1281858f68c932c05,689f3bd689e93f4eae3dae5f,,,,,,,,,,,,,,1,,,,,,,,,,,,,,,,,,,,,,,,,,,,,,,,,,,,,,,,,,,,,,,,,,,,,,,,,80,hormiga,,,,,563.0475,565.2196,0,0,1.6569,,0,47,47,79,1,REAL,FAKE,,,,,,,,,,,,,,,,,
,,,,,,,,,610acd05a1f63b626b20ee3a,Spanish,13 or older,"no, only English or Spanish",no,2025-08-15_09h58.46.843,empathy_intonation_perc,2024.2.4,MacIntel,59.84082341,610acd05a1f63b626b20ee3a,689ed6d1281858f68c932c05,689f3bd689e93f4eae3dae5f,,,,,,,,,,,,,,0,,,,,,,,,,,,,,,,,,,,,,,,,,,,,,,,,,,,,,,,,,,,,,,,,,,,,,,,,30,alardio,,,,,565.2214,567.2237,1,0,1.4877,,0,48,48,29,1,REAL,FAKE,,,,,,,,,,,,,,,,,
,,,,,,,,,610acd05a1f63b626b20ee3a,Spanish,13 or older,"no, only English or Spanish",no,2025-08-15_09h58.46.843,empathy_intonation_perc,2024.2.4,MacIntel,59.84082341,610acd05a1f63b626b20ee3a,689ed6d1281858f68c932c05,689f3bd689e93f4eae3dae5f,,,,,,,,,,,,,,1,,,,,,,,,,,,,,,,,,,,,,,,,,,,,,,,,,,,,,,,,,,,,,,,,,,,,,,,,45,jilguero,,,,,567.2255,568.827,0,0,1.0845,,0,49,49,44,1,REAL,FAKE,,,,,,,,,,,,,,,,,
,,,,,,,,,610acd05a1f63b626b20ee3a,Spanish,13 or older,"no, only English or Spanish",no,2025-08-15_09h58.46.843,empathy_intonation_perc,2024.2.4,MacIntel,59.84082341,610acd05a1f63b626b20ee3a,689ed6d1281858f68c932c05,689f3bd689e93f4eae3dae5f,,,,,,,,,,,,,,1,,,,,,,,,,,,,,,,,,,,,,,,,,,,,,,,,,,,,,,,,,,,,,,,,,,,,,,,,67,cabello,,,,,568.8297,570.4998,1,1,1.1524,,0,50,50,66,1,REAL,FAKE,,,,,,,,,,,,,,,,,
,,,,,,,,,610acd05a1f63b626b20ee3a,Spanish,13 or older,"no, only English or Spanish",no,2025-08-15_09h58.46.843,empathy_intonation_perc,2024.2.4,MacIntel,59.84082341,610acd05a1f63b626b20ee3a,689ed6d1281858f68c932c05,689f3bd689e93f4eae3dae5f,,,,,,,,,,,,,,0,,,,,,,,,,,,,,,,,,,,,,,,,,,,,,,,,,,,,,,,,,,,,,,,,,,,,,,,,16,abracer,,,,,570.5015,572.0706,0,1,1.0564,,0,51,51,15,1,REAL,FAKE,,,,,,,,,,,,,,,,,
,,,,,,,,,610acd05a1f63b626b20ee3a,Spanish,13 or older,"no, only English or Spanish",no,2025-08-15_09h58.46.843,empathy_intonation_perc,2024.2.4,MacIntel,59.84082341,610acd05a1f63b626b20ee3a,689ed6d1281858f68c932c05,689f3bd689e93f4eae3dae5f,,,,,,,,,,,,,,1,,,,,,,,,,,,,,,,,,,,,,,,,,,,,,,,,,,,,,,,,,,,,,,,,,,,,,,,,60,matar,,,,,572.0726,573.8601,1,1,1.2592,,0,52,52,59,1,REAL,FAKE,,,,,,,,,,,,,,,,,
,,,,,,,,,610acd05a1f63b626b20ee3a,Spanish,13 or older,"no, only English or Spanish",no,2025-08-15_09h58.46.843,empathy_intonation_perc,2024.2.4,MacIntel,59.84082341,610acd05a1f63b626b20ee3a,689ed6d1281858f68c932c05,689f3bd689e93f4eae3dae5f,,,,,,,,,,,,,,1,,,,,,,,,,,,,,,,,,,,,,,,,,,,,,,,,,,,,,,,,,,,,,,,,,,,,,,,,37,granuja,,,,,573.8619,575.7965,1,1,1.4013,,0,53,53,36,1,REAL,FAKE,,,,,,,,,,,,,,,,,
,,,,,,,,,610acd05a1f63b626b20ee3a,Spanish,13 or older,"no, only English or Spanish",no,2025-08-15_09h58.46.843,empathy_intonation_perc,2024.2.4,MacIntel,59.84082341,610acd05a1f63b626b20ee3a,689ed6d1281858f68c932c05,689f3bd689e93f4eae3dae5f,,,,,,,,,,,,,,0,,,,,,,,,,,,,,,,,,,,,,,,,,,,,,,,,,,,,,,,,,,,,,,,,,,,,,,,,87,grodo,,,,,575.8003,577.149,0,1,0.8357,,0,54,54,86,1,REAL,FAKE,,,,,,,,,,,,,,,,,
,,,,,,,,,610acd05a1f63b626b20ee3a,Spanish,13 or older,"no, only English or Spanish",no,2025-08-15_09h58.46.843,empathy_intonation_perc,2024.2.4,MacIntel,59.84082341,610acd05a1f63b626b20ee3a,689ed6d1281858f68c932c05,689f3bd689e93f4eae3dae5f,,,,,,,,,,,,,,0,,,,,,,,,,,,,,,,,,,,,,,,,,,,,,,,,,,,,,,,,,,,,,,,,,,,,,,,,53,vegada,,,,,577.1509,580.2074,0,1,2.5371,,0,55,55,52,1,REAL,FAKE,,,,,,,,,,,,,,,,,
,,,,,,,,,610acd05a1f63b626b20ee3a,Spanish,13 or older,"no, only English or Spanish",no,2025-08-15_09h58.46.843,empathy_intonation_perc,2024.2.4,MacIntel,59.84082341,610acd05a1f63b626b20ee3a,689ed6d1281858f68c932c05,689f3bd689e93f4eae3dae5f,,,,,,,,,,,,,,0,,,,,,,,,,,,,,,,,,,,,,,,,,,,,,,,,,,,,,,,,,,,,,,,,,,,,,,,,23,lampera,,,,,580.2102,582.4142,1,0,1.6908,,0,56,56,22,1,REAL,FAKE,,,,,,,,,,,,,,,,,
,,,,,,,,,610acd05a1f63b626b20ee3a,Spanish,13 or older,"no, only English or Spanish",no,2025-08-15_09h58.46.843,empathy_intonation_perc,2024.2.4,MacIntel,59.84082341,610acd05a1f63b626b20ee3a,689ed6d1281858f68c932c05,689f3bd689e93f4eae3dae5f,,,,,,,,,,,,,,0,,,,,,,,,,,,,,,,,,,,,,,,,,,,,,,,,,,,,,,,,,,,,,,,,,,,,,,,,47,cartinar,,,,,582.4174,584.0862,1,0,1.1528,,0,57,57,46,1,REAL,FAKE,,,,,,,,,,,,,,,,,
,,,,,,,,,610acd05a1f63b626b20ee3a,Spanish,13 or older,"no, only English or Spanish",no,2025-08-15_09h58.46.843,empathy_intonation_perc,2024.2.4,MacIntel,59.84082341,610acd05a1f63b626b20ee3a,689ed6d1281858f68c932c05,689f3bd689e93f4eae3dae5f,,,,,,,,,,,,,,1,,,,,,,,,,,,,,,,,,,,,,,,,,,,,,,,,,,,,,,,,,,,,,,,,,,,,,,,,61,seda,,,,,584.0877,585.8558,1,1,1.2484,,0,58,58,60,1,REAL,FAKE,,,,,,,,,,,,,,,,,
,,,,,,,,,610acd05a1f63b626b20ee3a,Spanish,13 or older,"no, only English or Spanish",no,2025-08-15_09h58.46.843,empathy_intonation_perc,2024.2.4,MacIntel,59.84082341,610acd05a1f63b626b20ee3a,689ed6d1281858f68c932c05,689f3bd689e93f4eae3dae5f,,,,,,,,,,,,,,0,,,,,,,,,,,,,,,,,,,,,,,,,,,,,,,,,,,,,,,,,,,,,,,,,,,,,,,,,70,temblo,,,,,585.8576,587.1105,0,1,0.7416,,0,59,59,69,1,REAL,FAKE,,,,,,,,,,,,,,,,,
,,,,,,,,,610acd05a1f63b626b20ee3a,Spanish,13 or older,"no, only English or Spanish",no,2025-08-15_09h58.46.843,empathy_intonation_perc,2024.2.4,MacIntel,59.84082341,610acd05a1f63b626b20ee3a,689ed6d1281858f68c932c05,689f3bd689e93f4eae3dae5f,,,,,,,,,,,,,,1,,,,,,,,,,,,,,,,,,,,,,,,,,,,,,,,,,,,,,,,,,,,,,,,,,,,,,,,,91,click the 1 key.,,,,,587.1117,588.4471,1,1,0.7963,,0,60,60,90,1,REAL,FAKE,,,,,,,,,,,,,,,,,
,,,,,,,,,610acd05a1f63b626b20ee3a,Spanish,13 or older,"no, only English or Spanish",no,2025-08-15_09h58.46.843,empathy_intonation_perc,2024.2.4,MacIntel,59.84082341,610acd05a1f63b626b20ee3a,689ed6d1281858f68c932c05,689f3bd689e93f4eae3dae5f,,,,,,,,,,,,,,1,,,,,,,,,,,,,,,,,,,,,,,,,,,,,,,,,,,,,,,,,,,,,,,,,,,,,,,,,48,ladrón,,,,,588.4488,590.7544,0,0,1.7778,,0,61,61,47,1,REAL,FAKE,,,,,,,,,,,,,,,,,
,,,,,,,,,610acd05a1f63b626b20ee3a,Spanish,13 or older,"no, only English or Spanish",no,2025-08-15_09h58.46.843,empathy_intonation_perc,2024.2.4,MacIntel,59.84082341,610acd05a1f63b626b20ee3a,689ed6d1281858f68c932c05,689f3bd689e93f4eae3dae5f,,,,,,,,,,,,,,1,,,,,,,,,,,,,,,,,,,,,,,,,,,,,,,,,,,,,,,,,,,,,,,,,,,,,,,,,76,atar,,,,,590.7568,593.3095,0,0,2.019,,0,62,62,75,1,REAL,FAKE,,,,,,,,,,,,,,,,,
,,,,,,,,,610acd05a1f63b626b20ee3a,Spanish,13 or older,"no, only English or Spanish",no,2025-08-15_09h58.46.843,empathy_intonation_perc,2024.2.4,MacIntel,59.84082341,610acd05a1f63b626b20ee3a,689ed6d1281858f68c932c05,689f3bd689e93f4eae3dae5f,,,,,,,,,,,,,,0,,,,,,,,,,,,,,,,,,,,,,,,,,,,,,,,,,,,,,,,,,,,,,,,,,,,,,,,,8,cadeña,,,,,593.3113,595.3987,1,0,1.5738,,0,63,63,7,1,REAL,FAKE,,,,,,,,,,,,,,,,,
,,,,,,,,,610acd05a1f63b626b20ee3a,Spanish,13 or older,"no, only English or Spanish",no,2025-08-15_09h58.46.843,empathy_intonation_perc,2024.2.4,MacIntel,59.84082341,610acd05a1f63b626b20ee3a,689ed6d1281858f68c932c05,689f3bd689e93f4eae3dae5f,,,,,,,,,,,,,,1,,,,,,,,,,,,,,,,,,,,,,,,,,,,,,,,,,,,,,,,,,,,,,,,,,,,,,,,,7,pésimo,,,,,595.4006,597.6713,1,1,1.7578,,0,64,64,6,1,REAL,FAKE,,,,,,,,,,,,,,,,,
,,,,,,,,,610acd05a1f63b626b20ee3a,Spanish,13 or older,"no, only English or Spanish",no,2025-08-15_09h58.46.843,empathy_intonation_perc,2024.2.4,MacIntel,59.84082341,610acd05a1f63b626b20ee3a,689ed6d1281858f68c932c05,689f3bd689e93f4eae3dae5f,,,,,,,,,,,,,,1,,,,,,,,,,,,,,,,,,,,,,,,,,,,,,,,,,,,,,,,,,,,,,,,,,,,,,,,,59,besar,,,,,597.6726,599.0416,1,1,0.8413,,0,65,65,58,1,REAL,FAKE,,,,,,,,,,,,,,,,,
,,,,,,,,,610acd05a1f63b626b20ee3a,Spanish,13 or older,"no, only English or Spanish",no,2025-08-15_09h58.46.843,empathy_intonation_perc,2024.2.4,MacIntel,59.84082341,610acd05a1f63b626b20ee3a,689ed6d1281858f68c932c05,689f3bd689e93f4eae3dae5f,,,,,,,,,,,,,,0,,,,,,,,,,,,,,,,,,,,,,,,,,,,,,,,,,,,,,,,,,,,,,,,,,,,,,,,,66,hacido,,,,,599.0437,600.5631,1,0,1.0017,,0,66,66,65,1,REAL,FAKE,,,,,,,,,,,,,,,,,
,,,,,,,,,610acd05a1f63b626b20ee3a,Spanish,13 or older,"no, only English or Spanish",no,2025-08-15_09h58.46.843,empathy_intonation_perc,2024.2.4,MacIntel,59.84082341,610acd05a1f63b626b20ee3a,689ed6d1281858f68c932c05,689f3bd689e93f4eae3dae5f,,,,,,,,,,,,,,1,,,,,,,,,,,,,,,,,,,,,,,,,,,,,,,,,,,,,,,,,,,,,,,,,,,,,,,,,13,helar,,,,,600.5646,603.4038,1,1,2.3061,,0,67,67,12,1,REAL,FAKE,,,,,,,,,,,,,,,,,
,,,,,,,,,610acd05a1f63b626b20ee3a,Spanish,13 or older,"no, only English or Spanish",no,2025-08-15_09h58.46.843,empathy_intonation_perc,2024.2.4,MacIntel,59.84082341,610acd05a1f63b626b20ee3a,689ed6d1281858f68c932c05,689f3bd689e93f4eae3dae5f,,,,,,,,,,,,,,1,,,,,,,,,,,,,,,,,,,,,,,,,,,,,,,,,,,,,,,,,,,,,,,,,,,,,,,,,38,estornudar,,,,,603.4061,605.3752,0,0,1.4533,,0,68,68,37,1,REAL,FAKE,,,,,,,,,,,,,,,,,
,,,,,,,,,610acd05a1f63b626b20ee3a,Spanish,13 or older,"no, only English or Spanish",no,2025-08-15_09h58.46.843,empathy_intonation_perc,2024.2.4,MacIntel,59.84082341,610acd05a1f63b626b20ee3a,689ed6d1281858f68c932c05,689f3bd689e93f4eae3dae5f,,,,,,,,,,,,,,1,,,,,,,,,,,,,,,,,,,,,,,,,,,,,,,,,,,,,,,,,,,,,,,,,,,,,,,,,89,prisa,,,,,605.3776,607.3643,0,0,1.468,,0,69,69,88,1,REAL,FAKE,,,,,,,,,,,,,,,,,
,,,,,,,,,610acd05a1f63b626b20ee3a,Spanish,13 or older,"no, only English or Spanish",no,2025-08-15_09h58.46.843,empathy_intonation_perc,2024.2.4,MacIntel,59.84082341,610acd05a1f63b626b20ee3a,689ed6d1281858f68c932c05,689f3bd689e93f4eae3dae5f,,,,,,,,,,,,,,1,,,,,,,,,,,,,,,,,,,,,,,,,,,,,,,,,,,,,,,,,,,,,,,,,,,,,,,,,78,frondoso,,,,,607.3664,608.7699,0,0,0.8852,,0,70,70,77,1,REAL,FAKE,,,,,,,,,,,,,,,,,
,,,,,,,,,610acd05a1f63b626b20ee3a,Spanish,13 or older,"no, only English or Spanish",no,2025-08-15_09h58.46.843,empathy_intonation_perc,2024.2.4,MacIntel,59.84082341,610acd05a1f63b626b20ee3a,689ed6d1281858f68c932c05,689f3bd689e93f4eae3dae5f,,,,,,,,,,,,,,1,,,,,,,,,,,,,,,,,,,,,,,,,,,,,,,,,,,,,,,,,,,,,,,,,,,,,,,,,57,tacaño,,,,,608.7721,611.5937,0,0,2.2864,,0,71,71,56,1,REAL,FAKE,,,,,,,,,,,,,,,,,
,,,,,,,,,610acd05a1f63b626b20ee3a,Spanish,13 or older,"no, only English or Spanish",no,2025-08-15_09h58.46.843,empathy_intonation_perc,2024.2.4,MacIntel,59.84082341,610acd05a1f63b626b20ee3a,689ed6d1281858f68c932c05,689f3bd689e93f4eae3dae5f,,,,,,,,,,,,,,0,,,,,,,,,,,,,,,,,,,,,,,,,,,,,,,,,,,,,,,,,,,,,,,,,,,,,,,,,29,decar,,,,,611.5958,613.5804,1,0,1.467,,0,72,72,28,1,REAL,FAKE,,,,,,,,,,,,,,,,,
,,,,,,,,,610acd05a1f63b626b20ee3a,Spanish,13 or older,"no, only English or Spanish",no,2025-08-15_09h58.46.843,empathy_intonation_perc,2024.2.4,MacIntel,59.84082341,610acd05a1f63b626b20ee3a,689ed6d1281858f68c932c05,689f3bd689e93f4eae3dae5f,,,,,,,,,,,,,,1,,,,,,,,,,,,,,,,,,,,,,,,,,,,,,,,,,,,,,,,,,,,,,,,,,,,,,,,,56,musgo,,,,,613.5819,615.1683,0,0,1.0513,,0,73,73,55,1,REAL,FAKE,,,,,,,,,,,,,,,,,
,,,,,,,,,610acd05a1f63b626b20ee3a,Spanish,13 or older,"no, only English or Spanish",no,2025-08-15_09h58.46.843,empathy_intonation_perc,2024.2.4,MacIntel,59.84082341,610acd05a1f63b626b20ee3a,689ed6d1281858f68c932c05,689f3bd689e93f4eae3dae5f,,,,,,,,,,,,,,1,,,,,,,,,,,,,,,,,,,,,,,,,,,,,,,,,,,,,,,,,,,,,,,,,,,,,,,,,9,hacha,,,,,615.1701,616.5556,1,1,0.8713,,0,74,74,8,1,REAL,FAKE,,,,,,,,,,,,,,,,,
,,,,,,,,,610acd05a1f63b626b20ee3a,Spanish,13 or older,"no, only English or Spanish",no,2025-08-15_09h58.46.843,empathy_intonation_perc,2024.2.4,MacIntel,59.84082341,610acd05a1f63b626b20ee3a,689ed6d1281858f68c932c05,689f3bd689e93f4eae3dae5f,,,,,,,,,,,,,,0,,,,,,,,,,,,,,,,,,,,,,,,,,,,,,,,,,,,,,,,,,,,,,,,,,,,,,,,,58,plaudir,,,,,616.5574,617.9759,0,1,0.8979,,0,75,75,57,1,REAL,FAKE,,,,,,,,,,,,,,,,,
,,,,,,,,,610acd05a1f63b626b20ee3a,Spanish,13 or older,"no, only English or Spanish",no,2025-08-15_09h58.46.843,empathy_intonation_perc,2024.2.4,MacIntel,59.84082341,610acd05a1f63b626b20ee3a,689ed6d1281858f68c932c05,689f3bd689e93f4eae3dae5f,,,,,,,,,,,,,,1,,,,,,,,,,,,,,,,,,,,,,,,,,,,,,,,,,,,,,,,,,,,,,,,,,,,,,,,,39,torpe,,,,,617.9779,619.3297,0,0,0.8321,,0,76,76,38,1,REAL,FAKE,,,,,,,,,,,,,,,,,
,,,,,,,,,610acd05a1f63b626b20ee3a,Spanish,13 or older,"no, only English or Spanish",no,2025-08-15_09h58.46.843,empathy_intonation_perc,2024.2.4,MacIntel,59.84082341,610acd05a1f63b626b20ee3a,689ed6d1281858f68c932c05,689f3bd689e93f4eae3dae5f,,,,,,,,,,,,,,1,,,,,,,,,,,,,,,,,,,,,,,,,,,,,,,,,,,,,,,,,,,,,,,,,,,,,,,,,36,loro,,,,,619.3319,621.1527,1,1,1.3014,,0,77,77,35,1,REAL,FAKE,,,,,,,,,,,,,,,,,
,,,,,,,,,610acd05a1f63b626b20ee3a,Spanish,13 or older,"no, only English or Spanish",no,2025-08-15_09h58.46.843,empathy_intonation_perc,2024.2.4,MacIntel,59.84082341,610acd05a1f63b626b20ee3a,689ed6d1281858f68c932c05,689f3bd689e93f4eae3dae5f,,,,,,,,,,,,,,0,,,,,,,,,,,,,,,,,,,,,,,,,,,,,,,,,,,,,,,,,,,,,,,,,,,,,,,,,10,antar,,,,,621.1548,622.8724,0,1,1.1848,,0,78,78,9,1,REAL,FAKE,,,,,,,,,,,,,,,,,
,,,,,,,,,610acd05a1f63b626b20ee3a,Spanish,13 or older,"no, only English or Spanish",no,2025-08-15_09h58.46.843,empathy_intonation_perc,2024.2.4,MacIntel,59.84082341,610acd05a1f63b626b20ee3a,689ed6d1281858f68c932c05,689f3bd689e93f4eae3dae5f,,,,,,,,,,,,,,0,,,,,,,,,,,,,,,,,,,,,,,,,,,,,,,,,,,,,,,,,,,,,,,,,,,,,,,,,17,floroso,,,,,622.874,624.3273,0,1,0.9362,,0,79,79,16,1,REAL,FAKE,,,,,,,,,,,,,,,,,
,,,,,,,,,610acd05a1f63b626b20ee3a,Spanish,13 or older,"no, only English or Spanish",no,2025-08-15_09h58.46.843,empathy_intonation_perc,2024.2.4,MacIntel,59.84082341,610acd05a1f63b626b20ee3a,689ed6d1281858f68c932c05,689f3bd689e93f4eae3dae5f,,,,,,,,,,,,,,1,,,,,,,,,,,,,,,,,,,,,,,,,,,,,,,,,,,,,,,,,,,,,,,,,,,,,,,,,12,asesinato,,,,,624.3288,627.3539,0,0,2.4868,,0,80,80,11,1,REAL,FAKE,,,,,,,,,,,,,,,,,
,,,,,,,,,610acd05a1f63b626b20ee3a,Spanish,13 or older,"no, only English or Spanish",no,2025-08-15_09h58.46.843,empathy_intonation_perc,2024.2.4,MacIntel,59.84082341,610acd05a1f63b626b20ee3a,689ed6d1281858f68c932c05,689f3bd689e93f4eae3dae5f,,,,,,,,,,,,,,1,,,,,,,,,,,,,,,,,,,,,,,,,,,,,,,,,,,,,,,,,,,,,,,,,,,,,,,,,20,ávido,,,,,627.3557,630.208,1,1,2.3239,,0,81,81,19,1,REAL,FAKE,,,,,,,,,,,,,,,,,
,,,,,,,,,610acd05a1f63b626b20ee3a,Spanish,13 or older,"no, only English or Spanish",no,2025-08-15_09h58.46.843,empathy_intonation_perc,2024.2.4,MacIntel,59.84082341,610acd05a1f63b626b20ee3a,689ed6d1281858f68c932c05,689f3bd689e93f4eae3dae5f,,,,,,,,,,,,,,0,,,,,,,,,,,,,,,,,,,,,,,,,,,,,,,,,,,,,,,,,,,,,,,,,,,,,,,,,21,capillo,,,,,630.2101,633.1852,1,0,2.4549,,0,82,82,20,1,REAL,FAKE,,,,,,,,,,,,,,,,,
,,,,,,,,,610acd05a1f63b626b20ee3a,Spanish,13 or older,"no, only English or Spanish",no,2025-08-15_09h58.46.843,empathy_intonation_perc,2024.2.4,MacIntel,59.84082341,610acd05a1f63b626b20ee3a,689ed6d1281858f68c932c05,689f3bd689e93f4eae3dae5f,,,,,,,,,,,,,,1,,,,,,,,,,,,,,,,,,,,,,,,,,,,,,,,,,,,,,,,,,,,,,,,,,,,,,,,,40,alfombra,,,,,633.1876,634.7377,1,1,1.0148,,0,83,83,39,1,REAL,FAKE,,,,,,,,,,,,,,,,,
,,,,,,,,,610acd05a1f63b626b20ee3a,Spanish,13 or older,"no, only English or Spanish",no,2025-08-15_09h58.46.843,empathy_intonation_perc,2024.2.4,MacIntel,59.84082341,610acd05a1f63b626b20ee3a,689ed6d1281858f68c932c05,689f3bd689e93f4eae3dae5f,,,,,,,,,,,,,,0,,,,,,,,,,,,,,,,,,,,,,,,,,,,,,,,,,,,,,,,,,,,,,,,,,,,,,,,,18,arsa,,,,,634.7399,636.1398,0,1,0.8909,,0,84,84,17,1,REAL,FAKE,,,,,,,,,,,,,,,,,
,,,,,,,,,610acd05a1f63b626b20ee3a,Spanish,13 or older,"no, only English or Spanish",no,2025-08-15_09h58.46.843,empathy_intonation_perc,2024.2.4,MacIntel,59.84082341,610acd05a1f63b626b20ee3a,689ed6d1281858f68c932c05,689f3bd689e93f4eae3dae5f,,,,,,,,,,,,,,1,,,,,,,,,,,,,,,,,,,,,,,,,,,,,,,,,,,,,,,,,,,,,,,,,,,,,,,,,26,secuestro,,,,,636.1417,638.2817,1,1,1.6195,,0,85,85,25,1,REAL,FAKE,,,,,,,,,,,,,,,,,
,,,,,,,,,610acd05a1f63b626b20ee3a,Spanish,13 or older,"no, only English or Spanish",no,2025-08-15_09h58.46.843,empathy_intonation_perc,2024.2.4,MacIntel,59.84082341,610acd05a1f63b626b20ee3a,689ed6d1281858f68c932c05,689f3bd689e93f4eae3dae5f,,,,,,,,,,,,,,0,,,,,,,,,,,,,,,,,,,,,,,,,,,,,,,,,,,,,,,,,,,,,,,,,,,,,,,,,82,empirador,,,,,638.2835,640.1016,1,0,1.3055,,0,86,86,81,1,REAL,FAKE,,,,,,,,,,,,,,,,,
,,,,,,,,,610acd05a1f63b626b20ee3a,Spanish,13 or older,"no, only English or Spanish",no,2025-08-15_09h58.46.843,empathy_intonation_perc,2024.2.4,MacIntel,59.84082341,610acd05a1f63b626b20ee3a,689ed6d1281858f68c932c05,689f3bd689e93f4eae3dae5f,,,,,,,,,,,,,,1,,,,,,,,,,,,,,,,,,,,,,,,,,,,,,,,,,,,,,,,,,,,,,,,,,,,,,,,,34,aviso,,,,,640.1039,642.2242,1,1,1.601,,0,87,87,33,1,REAL,FAKE,,,,,,,,,,,,,,,,,
,,,,,,,,,610acd05a1f63b626b20ee3a,Spanish,13 or older,"no, only English or Spanish",no,2025-08-15_09h58.46.843,empathy_intonation_perc,2024.2.4,MacIntel,59.84082341,610acd05a1f63b626b20ee3a,689ed6d1281858f68c932c05,689f3bd689e93f4eae3dae5f,,,,,,,,,,,,,,1,,,,,,,,,,,,,,,,,,,,,,,,,,,,,,,,,,,,,,,,,,,,,,,,,,,,,,,,,22,lacayo,,,,,642.226,643.4617,0,0,0.7152,,0,88,88,21,1,REAL,FAKE,,,,,,,,,,,,,,,,,
,,,,,,,,,610acd05a1f63b626b20ee3a,Spanish,13 or older,"no, only English or Spanish",no,2025-08-15_09h58.46.843,empathy_intonation_perc,2024.2.4,MacIntel,59.84082341,610acd05a1f63b626b20ee3a,689ed6d1281858f68c932c05,689f3bd689e93f4eae3dae5f,,,,,,,,,,,,,,1,,,,,,,,,,,,,,,,,,,,,,,,,,,,,,,,,,,,,,,,,,,,,,,,,,,,,,,,,64,orgulloso,,,,,643.4636,645.3145,1,1,1.3323,,0,89,89,63,1,REAL,FAKE,,,,,,,,,,,,,,,,,
,,,,,,,,,610acd05a1f63b626b20ee3a,Spanish,13 or older,"no, only English or Spanish",no,2025-08-15_09h58.46.843,empathy_intonation_perc,2024.2.4,MacIntel,59.84082341,610acd05a1f63b626b20ee3a,689ed6d1281858f68c932c05,689f3bd689e93f4eae3dae5f,,,,,,,,,,,,,,1,,,,,,,,,,,,,,,,,,,,,,,,,,,,,,,,,,,,,,,,,,,,,,,,,,,,,,,,,83,guante,,,,,645.3174,647.7569,1,1,1.921,,0,90,90,82,1,REAL,FAKE,,,,,,,,,,,,,,,,,
,,,,,,,,,610acd05a1f63b626b20ee3a,Spanish,13 or older,"no, only English or Spanish",no,2025-08-15_09h58.46.843,empathy_intonation_perc,2024.2.4,MacIntel,59.84082341,610acd05a1f63b626b20ee3a,689ed6d1281858f68c932c05,689f3bd689e93f4eae3dae5f,,,,,,,,,,,,,,1,,,,,,,,,,,,,,,,,,,,,,,,,,,,,,,,,,,,,,,,,,,,,,,,,,,,,,,,,85,laúd,,,,,647.7592,648.9595,0,0,0.6841,,0,91,91,84,1,REAL,FAKE,,,,,,,,,,,,,,,,,
,,,,,,,,,610acd05a1f63b626b20ee3a,Spanish,13 or older,"no, only English or Spanish",no,2025-08-15_09h58.46.843,empathy_intonation_perc,2024.2.4,MacIntel,59.84082341,610acd05a1f63b626b20ee3a,689ed6d1281858f68c932c05,689f3bd689e93f4eae3dae5f,,,,,,,,,,,,,,,,,,,,,,,,,,,,,,,,,,,,,,,,,,,,,,,,,,,,,,,,,,,,,,,,,,,,,,,,,,,,,,,,,,,,,,,,,,648.9608,654.1907,,,,,,,,,,,,,,,
,,,,,,,,,610acd05a1f63b626b20ee3a,Spanish,13 or older,"no, only English or Spanish",no,2025-08-15_09h58.46.843,empathy_intonation_perc,2024.2.4,MacIntel,59.84082341,610acd05a1f63b626b20ee3a,689ed6d1281858f68c932c05,689f3bd689e93f4eae3dae5f,,,,,,,,,,,,,1,,,,,,,,,,,,,,,,,,,,,,,,,,,,,,,,,,,,,,,,,,,,,,,,,,,,,,,,,,,,,,,,,,,,,,,,,,,,,,,654.2032,659.103,slightly agree,0,0,0,0,1,I can easily tell if someone else wants to enter a conversation.,1,0,1,0,,
,,,,,,,,,610acd05a1f63b626b20ee3a,Spanish,13 or older,"no, only English or Spanish",no,2025-08-15_09h58.46.843,empathy_intonation_perc,2024.2.4,MacIntel,59.84082341,610acd05a1f63b626b20ee3a,689ed6d1281858f68c932c05,689f3bd689e93f4eae3dae5f,,,,,,,,,,,,,2,,,,,,,,,,,,,,,,,,,,,,,,,,,,,,,,,,,,,,,,,,,,,,,,,,,,,,,,,,,,,,,,,,,,,,,,,,,,,,,659.1063,661.8941,strongly agree,0,1,1,1,1,I prefer animals to humans.,0,1,0,0,,
,,,,,,,,,610acd05a1f63b626b20ee3a,Spanish,13 or older,"no, only English or Spanish",no,2025-08-15_09h58.46.843,empathy_intonation_perc,2024.2.4,MacIntel,59.84082341,610acd05a1f63b626b20ee3a,689ed6d1281858f68c932c05,689f3bd689e93f4eae3dae5f,,,,,,,,,,,,,3,,,,,,,,,,,,,,,,,,,,,,,,,,,,,,,,,,,,,,,,,,,,,,,,,,,,,,,,,,,,,,,,,,,,,,,,,,,,,,,661.8973,664.1823,slightly disagree,0,2,2,2,1,I try to keep up with the current trends and fashions.,0,1,0,0,,
,,,,,,,,,610acd05a1f63b626b20ee3a,Spanish,13 or older,"no, only English or Spanish",no,2025-08-15_09h58.46.843,empathy_intonation_perc,2024.2.4,MacIntel,59.84082341,610acd05a1f63b626b20ee3a,689ed6d1281858f68c932c05,689f3bd689e93f4eae3dae5f,,,,,,,,,,,,,4,,,,,,,,,,,,,,,,,,,,,,,,,,,,,,,,,,,,,,,,,,,,,,,,,,,,,,,,,,,,,,,,,,,,,,,,,,,,,,,664.1862,671.5684,slightly disagree,0,3,3,3,1,"I find it difficult to explain to others things that I understand easily,   when they don't understand it first time.",1,0,0,1,,
,,,,,,,,,610acd05a1f63b626b20ee3a,Spanish,13 or older,"no, only English or Spanish",no,2025-08-15_09h58.46.843,empathy_intonation_perc,2024.2.4,MacIntel,59.84082341,610acd05a1f63b626b20ee3a,689ed6d1281858f68c932c05,689f3bd689e93f4eae3dae5f,,,,,,,,,,,,,5,,,,,,,,,,,,,,,,,,,,,,,,,,,,,,,,,,,,,,,,,,,,,,,,,,,,,,,,,,,,,,,,,,,,,,,,,,,,,,,671.5719,673.9269,slightly agree,0,4,4,4,1,I dream most nights.,0,1,0,0,,
,,,,,,,,,610acd05a1f63b626b20ee3a,Spanish,13 or older,"no, only English or Spanish",no,2025-08-15_09h58.46.843,empathy_intonation_perc,2024.2.4,MacIntel,59.84082341,610acd05a1f63b626b20ee3a,689ed6d1281858f68c932c05,689f3bd689e93f4eae3dae5f,,,,,,,,,,,,,6,,,,,,,,,,,,,,,,,,,,,,,,,,,,,,,,,,,,,,,,,,,,,,,,,,,,,,,,,,,,,,,,,,,,,,,,,,,,,,,673.9285,676.6483,strongly agree,0,5,5,5,1,I really enjoy caring for other people.,1,0,1,0,,
,,,,,,,,,610acd05a1f63b626b20ee3a,Spanish,13 or older,"no, only English or Spanish",no,2025-08-15_09h58.46.843,empathy_intonation_perc,2024.2.4,MacIntel,59.84082341,610acd05a1f63b626b20ee3a,689ed6d1281858f68c932c05,689f3bd689e93f4eae3dae5f,,,,,,,,,,,,,7,,,,,,,,,,,,,,,,,,,,,,,,,,,,,,,,,,,,,,,,,,,,,,,,,,,,,,,,,,,,,,,,,,,,,,,,,,,,,,,676.653,681.0273,slightly disagree,0,6,6,6,1,I try to solve my own problems rather than discussing them with others.,0,1,0,0,,
,,,,,,,,,610acd05a1f63b626b20ee3a,Spanish,13 or older,"no, only English or Spanish",no,2025-08-15_09h58.46.843,empathy_intonation_perc,2024.2.4,MacIntel,59.84082341,610acd05a1f63b626b20ee3a,689ed6d1281858f68c932c05,689f3bd689e93f4eae3dae5f,,,,,,,,,,,,,8,,,,,,,,,,,,,,,,,,,,,,,,,,,,,,,,,,,,,,,,,,,,,,,,,,,,,,,,,,,,,,,,,,,,,,,,,,,,,,,681.0292,685.2223,strongly agree,0,7,7,7,1,I find it hard to know what to do in a social situation.,1,0,0,1,,
