instructions_exposure.started,instructions_exposure.stopped,instructions_exposure_loop.thisRepN,instructions_exposure_loop.thisTrialN,instructions_exposure_loop.thisN,instructions_exposure_loop.thisIndex,instructions_exposure_loop.ran,instructions_text,continue_text,participant_id,"What variety of Spanish are you most familiar with? (e.g., Peruvian, Spanish, Mexican)",At what age did you begin learning Spanish?,Are you proficient in any languages other than English/Spanish?,"Are you familiar with Caribbean (e.g., Caribbean, Puerto Rican) or Galician Spanish?",date,expName,psychopyVersion,OS,frameRate,id,study_id,session,trial_exposure.started,trial_exposure.stopped,key_resp_exposure.keys,key_resp_exposure.corr,key_resp_exposure.rt,key_resp_exposure.duration,key_resp.keys,exposure_loop.thisRepN,exposure_loop.thisTrialN,exposure_loop.thisN,exposure_loop.thisIndex,exposure_loop.ran,item_num,correct_response,question,path,duration,instructions_2afc.started,instructions_2afc.stopped,instructions_2afc_loop.thisRepN,instructions_2afc_loop.thisTrialN,instructions_2afc_loop.thisN,instructions_2afc_loop.thisIndex,instructions_2afc_loop.ran,practice_2afc.started,practice_2afc.stopped,key_resp_2afc_practice.keys,key_resp_2afc_practice.corr,key_resp_2afc_practice.rt,key_resp_2afc_practice.duration,trials_2afc_practice_loop.thisRepN,trials_2afc_practice_loop.thisTrialN,trials_2afc_practice_loop.thisN,trials_2afc_practice_loop.thisIndex,trials_2afc_practice_loop.ran,check_2afc.started,check_2afc.stopped,trial_2afc.started,trial_2afc.stopped,key_resp_2afc_trial.keys,key_resp_2afc_trial.corr,key_resp_2afc_trial.rt,key_resp_2afc_trial.duration,trials_2afc_loop.thisRepN,trials_2afc_loop.thisTrialN,trials_2afc_loop.thisN,trials_2afc_loop.thisIndex,trials_2afc_loop.ran,target,variety,instructions_lextale.started,instructions_lextale.stopped,instructions_lextale_loop.thisRepN,instructions_lextale_loop.thisTrialN,instructions_lextale_loop.thisN,instructions_lextale_loop.thisIndex,instructions_lextale_loop.ran,practice_lextale.started,practice_lextale.stopped,key_resp_lextale_practice.keys,key_resp_lextale_practice.corr,key_resp_lextale_practice.rt,key_resp_lextale_practice.duration,practice_feedback_lextale.started,practice_feedback_lextale.stopped,trials_lextale_practice_loop.thisRepN,trials_lextale_practice_loop.thisTrialN,trials_lextale_practice_loop.thisN,trials_lextale_practice_loop.thisIndex,trials_lextale_practice_loop.ran,stim,word,prac_button_real,prac_button_false,check_lextale.started,check_lextale.stopped,trial_lextale.started,trial_lextale.stopped,key_resp_lextale_trial.keys,key_resp_lextale_trial.corr,key_resp_lextale_trial.rt,key_resp_lextale_trial.duration,trials_lextale_loop.thisRepN,trials_lextale_loop.thisTrialN,trials_lextale_loop.thisN,trials_lextale_loop.thisIndex,trials_lextale_loop.ran,button_real,button_false,instructions_eq.started,instructions_eq.stopped,trial_eq.started,trial_eq.stopped,slider_eq_trial.response,trials_eq_loop.thisRepN,trials_eq_loop.thisTrialN,trials_eq_loop.thisN,trials_eq_loop.thisIndex,trials_eq_loop.ran,item,is_test_item,is_distractor,is_agree_score,is_disagree_score,end_exp.started,end_exp.stopped
0.0101,20.7743,0,0,0,0,1,"In the following task, you are going to hear a series of conversations.", (press the space bar to continue),6150e088de5e18243a46222c,Castellano,13 or older,"no, only English or Spanish",no,2025-08-12_14h18.06.972,empathy_intonation_perc,2024.2.4,Win32,144.9275362,6150e088de5e18243a46222c,687ed1b7e638a4cbf2f02089,689b84d8bc9bc270ae50e56c,,,,,,,,,,,,,,,,,,,,,,,,,,,,,,,,,,,,,,,,,,,,,,,,,,,,,,,,,,,,,,,,,,,,,,,,,,,,,,,,,,,,,,,,,,,,,,,,,,,,,,,,,,
20.7746,23.2395,0,1,1,1,1,It is okay if you don't not 100% understand them!, (press the space bar to continue),6150e088de5e18243a46222c,Castellano,13 or older,"no, only English or Spanish",no,2025-08-12_14h18.06.972,empathy_intonation_perc,2024.2.4,Win32,144.9275362,6150e088de5e18243a46222c,687ed1b7e638a4cbf2f02089,689b84d8bc9bc270ae50e56c,,,,,,,,,,,,,,,,,,,,,,,,,,,,,,,,,,,,,,,,,,,,,,,,,,,,,,,,,,,,,,,,,,,,,,,,,,,,,,,,,,,,,,,,,,,,,,,,,,,,,,,,,,
23.2403,24.4431,0,2,2,2,1,"After, you will read a sentence about the conversation and decide if it's true or false.", (press the space bar to continue),6150e088de5e18243a46222c,Castellano,13 or older,"no, only English or Spanish",no,2025-08-12_14h18.06.972,empathy_intonation_perc,2024.2.4,Win32,144.9275362,6150e088de5e18243a46222c,687ed1b7e638a4cbf2f02089,689b84d8bc9bc270ae50e56c,,,,,,,,,,,,,,,,,,,,,,,,,,,,,,,,,,,,,,,,,,,,,,,,,,,,,,,,,,,,,,,,,,,,,,,,,,,,,,,,,,,,,,,,,,,,,,,,,,,,,,,,,,
24.4441,27.0936,0,3,3,3,1,"If it's true, press '1' (True) and if it's false press '0' (False).", (press the space bar to continue),6150e088de5e18243a46222c,Castellano,13 or older,"no, only English or Spanish",no,2025-08-12_14h18.06.972,empathy_intonation_perc,2024.2.4,Win32,144.9275362,6150e088de5e18243a46222c,687ed1b7e638a4cbf2f02089,689b84d8bc9bc270ae50e56c,,,,,,,,,,,,,,,,,,,,,,,,,,,,,,,,,,,,,,,,,,,,,,,,,,,,,,,,,,,,,,,,,,,,,,,,,,,,,,,,,,,,,,,,,,,,,,,,,,,,,,,,,,
,,,,,,,,,6150e088de5e18243a46222c,Castellano,13 or older,"no, only English or Spanish",no,2025-08-12_14h18.06.972,empathy_intonation_perc,2024.2.4,Win32,144.9275362,6150e088de5e18243a46222c,687ed1b7e638a4cbf2f02089,689b84d8bc9bc270ae50e56c,27.0979,67.2544,0,1,4.1326,,,0,0,0,2,1,3,0,The mom already has rice.,./stim/exposure_wavs/pr_stimuli_convo.wav,36,,,,,,,,,,,,,,,,,,,,,,,,,,,,,,,,,,,,,,,,,,,,,,,,,,,,,,,,,,,,,,,,,,,,,,,,,,,,,,,,,,,,,,,,,
,,,,,,,,,6150e088de5e18243a46222c,Castellano,13 or older,"no, only English or Spanish",no,2025-08-12_14h18.06.972,empathy_intonation_perc,2024.2.4,Win32,144.9275362,6150e088de5e18243a46222c,687ed1b7e638a4cbf2f02089,689b84d8bc9bc270ae50e56c,67.2562,130.6303,1,1,3.3634,,,0,1,1,1,1,2,1,The mom asked the daughter if she already went to the supermarket.,./stim/exposure_wavs/dr_stimuli_convo.wav,60,,,,,,,,,,,,,,,,,,,,,,,,,,,,,,,,,,,,,,,,,,,,,,,,,,,,,,,,,,,,,,,,,,,,,,,,,,,,,,,,,,,,,,,,,
,,,,,,,,,6150e088de5e18243a46222c,Castellano,13 or older,"no, only English or Spanish",no,2025-08-12_14h18.06.972,empathy_intonation_perc,2024.2.4,Win32,144.9275362,6150e088de5e18243a46222c,687ed1b7e638a4cbf2f02089,689b84d8bc9bc270ae50e56c,130.6313,180.9991,0,0,3.359,,,0,2,2,0,1,1,1,The son asked the mom if Aunt Marina is okay.,./stim/exposure_wavs/ga_stimuli_convo.wav,47,,,,,,,,,,,,,,,,,,,,,,,,,,,,,,,,,,,,,,,,,,,,,,,,,,,,,,,,,,,,,,,,,,,,,,,,,,,,,,,,,,,,,,,,,
,,,,,,,"In the following task you are going to hear a series of utterances. 

  You will decide if the utterances sound like questions or not using your keyboard.", (press the spacebar to continue),6150e088de5e18243a46222c,Castellano,13 or older,"no, only English or Spanish",no,2025-08-12_14h18.06.972,empathy_intonation_perc,2024.2.4,Win32,144.9275362,6150e088de5e18243a46222c,687ed1b7e638a4cbf2f02089,689b84d8bc9bc270ae50e56c,,,,,,,,,,,,,,,,,,181.002,183.9854,0,0,0,0,1,,,,,,,,,,,,,,,,,,,,,,,,,,,,,,,,,,,,,,,,,,,,,,,,,,,,,,,,,,,,,,,,,,,,,,,,,,,,,,,,,,
,,,,,,,"If you believe the utterance is a question, type '1' (for 'yes') and if you do not 
  believe it is a question type '0' (for 'no').

  Let's practice a bit...", (press the spacebar to continue),6150e088de5e18243a46222c,Castellano,13 or older,"no, only English or Spanish",no,2025-08-12_14h18.06.972,empathy_intonation_perc,2024.2.4,Win32,144.9275362,6150e088de5e18243a46222c,687ed1b7e638a4cbf2f02089,689b84d8bc9bc270ae50e56c,,,,,,,,,,,,,,,,,,183.9863,187.1451,0,1,1,1,1,,,,,,,,,,,,,,,,,,,,,,,,,,,,,,,,,,,,,,,,,,,,,,,,,,,,,,,,,,,,,,,,,,,,,,,,,,,,,,,,,,
,,,,,,,,,6150e088de5e18243a46222c,Castellano,13 or older,"no, only English or Spanish",no,2025-08-12_14h18.06.972,empathy_intonation_perc,2024.2.4,Win32,144.9275362,6150e088de5e18243a46222c,687ed1b7e638a4cbf2f02089,689b84d8bc9bc270ae50e56c,,,,,,,,,,,,,,0,,./stim/wavs/andalusian_statement_filler_Alberto-nunca-se-afeita.wav,,,,,,,,,187.1488,190.7912,0,1,3.1366,,0,0,0,5,1,,,,,,,,,,,,,,,,,,,,,,,,,,,,,,,,,,,,,,,,,,,,,,,,,,,,,,,,,,,,,,,,,,,,,,,
,,,,,,,,,6150e088de5e18243a46222c,Castellano,13 or older,"no, only English or Spanish",no,2025-08-12_14h18.06.972,empathy_intonation_perc,2024.2.4,Win32,144.9275362,6150e088de5e18243a46222c,687ed1b7e638a4cbf2f02089,689b84d8bc9bc270ae50e56c,,,,,,,,,,,,,,1,,./stim/wavs/argentine_question_filler_Mi-vecino-habla-mucho.wav,,,,,,,,,190.7914,192.9993,1,1,1.6975,,0,1,1,1,1,,,,,,,,,,,,,,,,,,,,,,,,,,,,,,,,,,,,,,,,,,,,,,,,,,,,,,,,,,,,,,,,,,,,,,,
,,,,,,,,,6150e088de5e18243a46222c,Castellano,13 or older,"no, only English or Spanish",no,2025-08-12_14h18.06.972,empathy_intonation_perc,2024.2.4,Win32,144.9275362,6150e088de5e18243a46222c,687ed1b7e638a4cbf2f02089,689b84d8bc9bc270ae50e56c,,,,,,,,,,,,,,1,,./stim/wavs/castilian_question_filler_Mi-esposo-conoce-al-chico.wav,,,,,,,,,192.9996,195.3952,1,1,1.8832,,0,2,2,0,1,,,,,,,,,,,,,,,,,,,,,,,,,,,,,,,,,,,,,,,,,,,,,,,,,,,,,,,,,,,,,,,,,,,,,,,
,,,,,,,,,6150e088de5e18243a46222c,Castellano,13 or older,"no, only English or Spanish",no,2025-08-12_14h18.06.972,empathy_intonation_perc,2024.2.4,Win32,144.9275362,6150e088de5e18243a46222c,687ed1b7e638a4cbf2f02089,689b84d8bc9bc270ae50e56c,,,,,,,,,,,,,,0,,./stim/wavs/cuban_statement_filler_Cocinabas-por-la-noche.wav,,,,,,,,,195.3956,197.6799,0,1,1.7752,,0,3,3,4,1,,,,,,,,,,,,,,,,,,,,,,,,,,,,,,,,,,,,,,,,,,,,,,,,,,,,,,,,,,,,,,,,,,,,,,,
,,,,,,,,,6150e088de5e18243a46222c,Castellano,13 or older,"no, only English or Spanish",no,2025-08-12_14h18.06.972,empathy_intonation_perc,2024.2.4,Win32,144.9275362,6150e088de5e18243a46222c,687ed1b7e638a4cbf2f02089,689b84d8bc9bc270ae50e56c,,,,,,,,,,,,,,1,,./stim/wavs/mexican_question_filler_Felipe-no-tiene-contrasena.wav,,,,,,,,,197.6802,199.9855,1,1,1.7926,,0,4,4,3,1,,,,,,,,,,,,,,,,,,,,,,,,,,,,,,,,,,,,,,,,,,,,,,,,,,,,,,,,,,,,,,,,,,,,,,,
,,,,,,,,,6150e088de5e18243a46222c,Castellano,13 or older,"no, only English or Spanish",no,2025-08-12_14h18.06.972,empathy_intonation_perc,2024.2.4,Win32,144.9275362,6150e088de5e18243a46222c,687ed1b7e638a4cbf2f02089,689b84d8bc9bc270ae50e56c,,,,,,,,,,,,,,0,,./stim/wavs/puertorican_statement_filler_La-nina-pinta-con-su-amiga.wav,,,,,,,,,199.9858,202.4301,0,1,1.9303,,0,5,5,7,1,,,,,,,,,,,,,,,,,,,,,,,,,,,,,,,,,,,,,,,,,,,,,,,,,,,,,,,,,,,,,,,,,,,,,,,
,,,,,,,,,6150e088de5e18243a46222c,Castellano,13 or older,"no, only English or Spanish",no,2025-08-12_14h18.06.972,empathy_intonation_perc,2024.2.4,Win32,144.9275362,6150e088de5e18243a46222c,687ed1b7e638a4cbf2f02089,689b84d8bc9bc270ae50e56c,,,,,,,,,,,,,,0,,./stim/wavs/peruvian_statement_filler_El-nino-habla-con-su-madre.wav,,,,,,,,,202.4305,205.069,0,1,2.1258,,0,6,6,6,1,,,,,,,,,,,,,,,,,,,,,,,,,,,,,,,,,,,,,,,,,,,,,,,,,,,,,,,,,,,,,,,,,,,,,,,
,,,,,,,,,6150e088de5e18243a46222c,Castellano,13 or older,"no, only English or Spanish",no,2025-08-12_14h18.06.972,empathy_intonation_perc,2024.2.4,Win32,144.9275362,6150e088de5e18243a46222c,687ed1b7e638a4cbf2f02089,689b84d8bc9bc270ae50e56c,,,,,,,,,,,,,,1,,./stim/wavs/chilean_question_filler_Mi-padre-cantaba-bien.wav,,,,,,,,,205.0692,207.2426,0,0,1.6638,,0,7,7,2,1,,,,,,,,,,,,,,,,,,,,,,,,,,,,,,,,,,,,,,,,,,,,,,,,,,,,,,,,,,,,,,,,,,,,,,,
,,,,,,,,,6150e088de5e18243a46222c,Castellano,13 or older,"no, only English or Spanish",no,2025-08-12_14h18.06.972,empathy_intonation_perc,2024.2.4,Win32,144.9275362,6150e088de5e18243a46222c,687ed1b7e638a4cbf2f02089,689b84d8bc9bc270ae50e56c,,,,,,,,,,,,,,,,,,,,,,,,,,,,,,,,,,,,207.2428,249.7713,,,,,,,,,,,,,,,,,,,,,,,,,,,,,,,,,,,,,,,,,,,,,,,,,,,,,,,,,,,,,,,,,,,,,
,,,,,,,,,6150e088de5e18243a46222c,Castellano,13 or older,"no, only English or Spanish",no,2025-08-12_14h18.06.972,empathy_intonation_perc,2024.2.4,Win32,144.9275362,6150e088de5e18243a46222c,687ed1b7e638a4cbf2f02089,689b84d8bc9bc270ae50e56c,,,,,,,,,,,,,88,0,,./stim/wavs/puertorican_mismatch_declarative-broad-focus_La-nina-lava-el-plato.wav,,,,,,,,,,,,,,,,,,,,,,249.7826,251.8477,0,1,1.5591,,0,0,0,87,1,0,puertorican,,,,,,,,,,,,,,,,,,,,,,,,,,,,,,,,,,,,,,,,,,,,,,,,,,,,,,,,
,,,,,,,,,6150e088de5e18243a46222c,Castellano,13 or older,"no, only English or Spanish",no,2025-08-12_14h18.06.972,empathy_intonation_perc,2024.2.4,Win32,144.9275362,6150e088de5e18243a46222c,687ed1b7e638a4cbf2f02089,689b84d8bc9bc270ae50e56c,,,,,,,,,,,,,13,1,,./stim/wavs/mexican_match_interrogative-total-yn_Ana-lleva-el-abrigo.wav,,,,,,,,,,,,,,,,,,,,,,251.8481,253.8199,1,1,1.4591,,0,1,1,12,1,0,mexican,,,,,,,,,,,,,,,,,,,,,,,,,,,,,,,,,,,,,,,,,,,,,,,,,,,,,,,,
,,,,,,,,,6150e088de5e18243a46222c,Castellano,13 or older,"no, only English or Spanish",no,2025-08-12_14h18.06.972,empathy_intonation_perc,2024.2.4,Win32,144.9275362,6150e088de5e18243a46222c,687ed1b7e638a4cbf2f02089,689b84d8bc9bc270ae50e56c,,,,,,,,,,,,,70,0,,./stim/wavs/castilian_mismatch_declarative-broad-focus_La-maestra-vive-en-Paris.wav,,,,,,,,,,,,,,,,,,,,,,253.8202,256.1118,0,1,1.7837,,0,2,2,69,1,0,castilian,,,,,,,,,,,,,,,,,,,,,,,,,,,,,,,,,,,,,,,,,,,,,,,,,,,,,,,,
,,,,,,,,,6150e088de5e18243a46222c,Castellano,13 or older,"no, only English or Spanish",no,2025-08-12_14h18.06.972,empathy_intonation_perc,2024.2.4,Win32,144.9275362,6150e088de5e18243a46222c,687ed1b7e638a4cbf2f02089,689b84d8bc9bc270ae50e56c,,,,,,,,,,,,,50,0,,./stim/wavs/castilian_match_declarative-broad-focus_Marta-abre-el-regalo.wav,,,,,,,,,,,,,,,,,,,,,,256.1122,258.3549,0,1,1.7351,,0,3,3,49,1,0,castilian,,,,,,,,,,,,,,,,,,,,,,,,,,,,,,,,,,,,,,,,,,,,,,,,,,,,,,,,
,,,,,,,,,6150e088de5e18243a46222c,Castellano,13 or older,"no, only English or Spanish",no,2025-08-12_14h18.06.972,empathy_intonation_perc,2024.2.4,Win32,144.9275362,6150e088de5e18243a46222c,687ed1b7e638a4cbf2f02089,689b84d8bc9bc270ae50e56c,,,,,,,,,,,,,80,0,,./stim/wavs/mexican_mismatch_declarative-broad-focus_El-hombre-mira-la-luna.wav,,,,,,,,,,,,,,,,,,,,,,258.3551,260.5978,0,1,1.73,,0,4,4,79,1,0,mexican,,,,,,,,,,,,,,,,,,,,,,,,,,,,,,,,,,,,,,,,,,,,,,,,,,,,,,,,
,,,,,,,,,6150e088de5e18243a46222c,Castellano,13 or older,"no, only English or Spanish",no,2025-08-12_14h18.06.972,empathy_intonation_perc,2024.2.4,Win32,144.9275362,6150e088de5e18243a46222c,687ed1b7e638a4cbf2f02089,689b84d8bc9bc270ae50e56c,,,,,,,,,,,,,45,0,,./stim/wavs/castilian_match_declarative-broad-focus_David-leia-el-libro.wav,,,,,,,,,,,,,,,,,,,,,,260.5981,262.8478,0,1,1.7385,,0,5,5,44,1,0,castilian,,,,,,,,,,,,,,,,,,,,,,,,,,,,,,,,,,,,,,,,,,,,,,,,,,,,,,,,
,,,,,,,,,6150e088de5e18243a46222c,Castellano,13 or older,"no, only English or Spanish",no,2025-08-12_14h18.06.972,empathy_intonation_perc,2024.2.4,Win32,144.9275362,6150e088de5e18243a46222c,687ed1b7e638a4cbf2f02089,689b84d8bc9bc270ae50e56c,,,,,,,,,,,,,64,0,,./stim/wavs/puertorican_match_declarative-broad-focus_Daniel-iba-a-Bolivia.wav,,,,,,,,,,,,,,,,,,,,,,262.848,265.0284,0,1,1.6717,,0,6,6,63,1,0,puertorican,,,,,,,,,,,,,,,,,,,,,,,,,,,,,,,,,,,,,,,,,,,,,,,,,,,,,,,,
,,,,,,,,,6150e088de5e18243a46222c,Castellano,13 or older,"no, only English or Spanish",no,2025-08-12_14h18.06.972,empathy_intonation_perc,2024.2.4,Win32,144.9275362,6150e088de5e18243a46222c,687ed1b7e638a4cbf2f02089,689b84d8bc9bc270ae50e56c,,,,,,,,,,,,,59,0,,./stim/wavs/mexican_match_declarative-broad-focus_David-leia-el-libro.wav,,,,,,,,,,,,,,,,,,,,,,265.0287,267.2378,0,1,1.7012,,0,7,7,58,1,0,mexican,,,,,,,,,,,,,,,,,,,,,,,,,,,,,,,,,,,,,,,,,,,,,,,,,,,,,,,,
,,,,,,,,,6150e088de5e18243a46222c,Castellano,13 or older,"no, only English or Spanish",no,2025-08-12_14h18.06.972,empathy_intonation_perc,2024.2.4,Win32,144.9275362,6150e088de5e18243a46222c,687ed1b7e638a4cbf2f02089,689b84d8bc9bc270ae50e56c,,,,,,,,,,,,,20,1,,./stim/wavs/puertorican_match_interrogative-total-yn_Daniel-iba-a-Bolivia.wav,,,,,,,,,,,,,,,,,,,,,,267.2379,269.3756,0,0,1.6294,,0,8,8,19,1,1,puertorican,,,,,,,,,,,,,,,,,,,,,,,,,,,,,,,,,,,,,,,,,,,,,,,,,,,,,,,,
,,,,,,,,,6150e088de5e18243a46222c,Castellano,13 or older,"no, only English or Spanish",no,2025-08-12_14h18.06.972,empathy_intonation_perc,2024.2.4,Win32,144.9275362,6150e088de5e18243a46222c,687ed1b7e638a4cbf2f02089,689b84d8bc9bc270ae50e56c,,,,,,,,,,,,,53,0,,./stim/wavs/cuban_match_declarative-broad-focus_Manuela-vende-el-carro.wav,,,,,,,,,,,,,,,,,,,,,,269.3759,271.9313,0,1,2.0426,,0,9,9,52,1,0,cuban,,,,,,,,,,,,,,,,,,,,,,,,,,,,,,,,,,,,,,,,,,,,,,,,,,,,,,,,
,,,,,,,,,6150e088de5e18243a46222c,Castellano,13 or older,"no, only English or Spanish",no,2025-08-12_14h18.06.972,empathy_intonation_perc,2024.2.4,Win32,144.9275362,6150e088de5e18243a46222c,687ed1b7e638a4cbf2f02089,689b84d8bc9bc270ae50e56c,,,,,,,,,,,,,37,1,,./stim/wavs/mexican_mismatch_interrogative-total-yn_La-maestra-vive-en-Paris.wav,,,,,,,,,,,,,,,,,,,,,,271.9316,274.1327,1,1,1.6886,,0,10,10,36,1,0,mexican,,,,,,,,,,,,,,,,,,,,,,,,,,,,,,,,,,,,,,,,,,,,,,,,,,,,,,,,
,,,,,,,,,6150e088de5e18243a46222c,Castellano,13 or older,"no, only English or Spanish",no,2025-08-12_14h18.06.972,empathy_intonation_perc,2024.2.4,Win32,144.9275362,6150e088de5e18243a46222c,687ed1b7e638a4cbf2f02089,689b84d8bc9bc270ae50e56c,,,,,,,,,,,,,62,0,,./stim/wavs/mexican_match_declarative-broad-focus_Marta-abre-el-regalo.wav,,,,,,,,,,,,,,,,,,,,,,274.1329,276.1744,0,1,1.5324,,0,11,11,61,1,0,mexican,,,,,,,,,,,,,,,,,,,,,,,,,,,,,,,,,,,,,,,,,,,,,,,,,,,,,,,,
,,,,,,,,,6150e088de5e18243a46222c,Castellano,13 or older,"no, only English or Spanish",no,2025-08-12_14h18.06.972,empathy_intonation_perc,2024.2.4,Win32,144.9275362,6150e088de5e18243a46222c,687ed1b7e638a4cbf2f02089,689b84d8bc9bc270ae50e56c,,,,,,,,,,,,,77,0,,./stim/wavs/cuban_mismatch_declarative-broad-focus_Mi-novio-viene-del-lago.wav,,,,,,,,,,,,,,,,,,,,,,276.1746,278.6675,1,0,1.9835,,0,12,12,76,1,0,cuban,,,,,,,,,,,,,,,,,,,,,,,,,,,,,,,,,,,,,,,,,,,,,,,,,,,,,,,,
,,,,,,,,,6150e088de5e18243a46222c,Castellano,13 or older,"no, only English or Spanish",no,2025-08-12_14h18.06.972,empathy_intonation_perc,2024.2.4,Win32,144.9275362,6150e088de5e18243a46222c,687ed1b7e638a4cbf2f02089,689b84d8bc9bc270ae50e56c,,,,,,,,,,,,,17,1,,./stim/wavs/mexican_match_interrogative-total-yn_Mariano-habla-del-tiempo.wav,,,,,,,,,,,,,,,,,,,,,,278.6678,280.7856,1,1,1.6041,,0,13,13,16,1,0,mexican,,,,,,,,,,,,,,,,,,,,,,,,,,,,,,,,,,,,,,,,,,,,,,,,,,,,,,,,
,,,,,,,,,6150e088de5e18243a46222c,Castellano,13 or older,"no, only English or Spanish",no,2025-08-12_14h18.06.972,empathy_intonation_perc,2024.2.4,Win32,144.9275362,6150e088de5e18243a46222c,687ed1b7e638a4cbf2f02089,689b84d8bc9bc270ae50e56c,,,,,,,,,,,,,18,1,,./stim/wavs/mexican_match_interrogative-total-yn_Marta-abre-el-regalo.wav,,,,,,,,,,,,,,,,,,,,,,280.7858,282.737,1,1,1.4377,,0,14,14,17,1,0,mexican,,,,,,,,,,,,,,,,,,,,,,,,,,,,,,,,,,,,,,,,,,,,,,,,,,,,,,,,
,,,,,,,,,6150e088de5e18243a46222c,Castellano,13 or older,"no, only English or Spanish",no,2025-08-12_14h18.06.972,empathy_intonation_perc,2024.2.4,Win32,144.9275362,6150e088de5e18243a46222c,687ed1b7e638a4cbf2f02089,689b84d8bc9bc270ae50e56c,,,,,,,,,,,,,47,0,,./stim/wavs/castilian_match_declarative-broad-focus_Manuela-vende-el-carro.wav,,,,,,,,,,,,,,,,,,,,,,282.7372,285.626,0,1,2.3788,,0,15,15,46,1,0,castilian,,,,,,,,,,,,,,,,,,,,,,,,,,,,,,,,,,,,,,,,,,,,,,,,,,,,,,,,
,,,,,,,,,6150e088de5e18243a46222c,Castellano,13 or older,"no, only English or Spanish",no,2025-08-12_14h18.06.972,empathy_intonation_perc,2024.2.4,Win32,144.9275362,6150e088de5e18243a46222c,687ed1b7e638a4cbf2f02089,689b84d8bc9bc270ae50e56c,,,,,,,,,,,,,61,0,,./stim/wavs/mexican_match_declarative-broad-focus_Mariano-habla-del-tiempo.wav,,,,,,,,,,,,,,,,,,,,,,285.6262,287.9246,0,1,1.7867,,0,16,16,60,1,0,mexican,,,,,,,,,,,,,,,,,,,,,,,,,,,,,,,,,,,,,,,,,,,,,,,,,,,,,,,,
,,,,,,,,,6150e088de5e18243a46222c,Castellano,13 or older,"no, only English or Spanish",no,2025-08-12_14h18.06.972,empathy_intonation_perc,2024.2.4,Win32,144.9275362,6150e088de5e18243a46222c,687ed1b7e638a4cbf2f02089,689b84d8bc9bc270ae50e56c,,,,,,,,,,,,,15,1,,./stim/wavs/mexican_match_interrogative-total-yn_David-leia-el-libro.wav,,,,,,,,,,,,,,,,,,,,,,287.9249,290.0636,1,1,1.6302,,0,17,17,14,1,0,mexican,,,,,,,,,,,,,,,,,,,,,,,,,,,,,,,,,,,,,,,,,,,,,,,,,,,,,,,,
,,,,,,,,,6150e088de5e18243a46222c,Castellano,13 or older,"no, only English or Spanish",no,2025-08-12_14h18.06.972,empathy_intonation_perc,2024.2.4,Win32,144.9275362,6150e088de5e18243a46222c,687ed1b7e638a4cbf2f02089,689b84d8bc9bc270ae50e56c,,,,,,,,,,,,,31,1,,./stim/wavs/cuban_mismatch_interrogative-total-yn_El-nino-oye-el-rio.wav,,,,,,,,,,,,,,,,,,,,,,290.0639,292.4317,0,0,1.8629,,0,18,18,30,1,1,cuban,,,,,,,,,,,,,,,,,,,,,,,,,,,,,,,,,,,,,,,,,,,,,,,,,,,,,,,,
,,,,,,,,,6150e088de5e18243a46222c,Castellano,13 or older,"no, only English or Spanish",no,2025-08-12_14h18.06.972,empathy_intonation_perc,2024.2.4,Win32,144.9275362,6150e088de5e18243a46222c,687ed1b7e638a4cbf2f02089,689b84d8bc9bc270ae50e56c,,,,,,,,,,,,,10,1,,./stim/wavs/cuban_match_interrogative-total-yn_Maria-bebe-el-vino.wav,,,,,,,,,,,,,,,,,,,,,,292.4318,294.89,0,0,1.9501,,0,19,19,9,1,1,cuban,,,,,,,,,,,,,,,,,,,,,,,,,,,,,,,,,,,,,,,,,,,,,,,,,,,,,,,,
,,,,,,,,,6150e088de5e18243a46222c,Castellano,13 or older,"no, only English or Spanish",no,2025-08-12_14h18.06.972,empathy_intonation_perc,2024.2.4,Win32,144.9275362,6150e088de5e18243a46222c,687ed1b7e638a4cbf2f02089,689b84d8bc9bc270ae50e56c,,,,,,,,,,,,,46,0,,./stim/wavs/castilian_match_declarative-broad-focus_Emilio-ama-la-marcha.wav,,,,,,,,,,,,,,,,,,,,,,294.8903,297.265,0,1,1.8643,,0,20,20,45,1,0,castilian,,,,,,,,,,,,,,,,,,,,,,,,,,,,,,,,,,,,,,,,,,,,,,,,,,,,,,,,
,,,,,,,,,6150e088de5e18243a46222c,Castellano,13 or older,"no, only English or Spanish",no,2025-08-12_14h18.06.972,empathy_intonation_perc,2024.2.4,Win32,144.9275362,6150e088de5e18243a46222c,687ed1b7e638a4cbf2f02089,689b84d8bc9bc270ae50e56c,,,,,,,,,,,,,4,1,,./stim/wavs/castilian_match_interrogative-total-yn_Maria-bebe-el-vino.wav,,,,,,,,,,,,,,,,,,,,,,297.2653,299.4456,1,1,1.6713,,0,21,21,3,1,0,castilian,,,,,,,,,,,,,,,,,,,,,,,,,,,,,,,,,,,,,,,,,,,,,,,,,,,,,,,,
,,,,,,,,,6150e088de5e18243a46222c,Castellano,13 or older,"no, only English or Spanish",no,2025-08-12_14h18.06.972,empathy_intonation_perc,2024.2.4,Win32,144.9275362,6150e088de5e18243a46222c,687ed1b7e638a4cbf2f02089,689b84d8bc9bc270ae50e56c,,,,,,,,,,,,,28,1,,./stim/wavs/castilian_mismatch_interrogative-total-yn_Mi-novio-viene-del-lago.wav,,,,,,,,,,,,,,,,,,,,,,299.4458,301.8763,0,0,1.9195,,0,22,22,27,1,0,castilian,,,,,,,,,,,,,,,,,,,,,,,,,,,,,,,,,,,,,,,,,,,,,,,,,,,,,,,,
,,,,,,,,,6150e088de5e18243a46222c,Castellano,13 or older,"no, only English or Spanish",no,2025-08-12_14h18.06.972,empathy_intonation_perc,2024.2.4,Win32,144.9275362,6150e088de5e18243a46222c,687ed1b7e638a4cbf2f02089,689b84d8bc9bc270ae50e56c,,,,,,,,,,,,,69,0,,./stim/wavs/castilian_mismatch_declarative-broad-focus_El-nino-oye-el-rio.wav,,,,,,,,,,,,,,,,,,,,,,301.8765,304.2304,0,1,1.841,,0,23,23,68,1,0,castilian,,,,,,,,,,,,,,,,,,,,,,,,,,,,,,,,,,,,,,,,,,,,,,,,,,,,,,,,
,,,,,,,,,6150e088de5e18243a46222c,Castellano,13 or older,"no, only English or Spanish",no,2025-08-12_14h18.06.972,empathy_intonation_perc,2024.2.4,Win32,144.9275362,6150e088de5e18243a46222c,687ed1b7e638a4cbf2f02089,689b84d8bc9bc270ae50e56c,,,,,,,,,,,,,14,1,,./stim/wavs/mexican_match_interrogative-total-yn_Daniel-iba-a-Bolivia.wav,,,,,,,,,,,,,,,,,,,,,,304.2306,306.3624,1,1,1.6217,,0,24,24,13,1,0,mexican,,,,,,,,,,,,,,,,,,,,,,,,,,,,,,,,,,,,,,,,,,,,,,,,,,,,,,,,
,,,,,,,,,6150e088de5e18243a46222c,Castellano,13 or older,"no, only English or Spanish",no,2025-08-12_14h18.06.972,empathy_intonation_perc,2024.2.4,Win32,144.9275362,6150e088de5e18243a46222c,687ed1b7e638a4cbf2f02089,689b84d8bc9bc270ae50e56c,,,,,,,,,,,,,85,0,,./stim/wavs/puertorican_mismatch_declarative-broad-focus_El-hombre-mira-la-luna.wav,,,,,,,,,,,,,,,,,,,,,,306.3626,308.5777,0,1,1.7045,,0,25,25,84,1,0,puertorican,,,,,,,,,,,,,,,,,,,,,,,,,,,,,,,,,,,,,,,,,,,,,,,,,,,,,,,,
,,,,,,,,,6150e088de5e18243a46222c,Castellano,13 or older,"no, only English or Spanish",no,2025-08-12_14h18.06.972,empathy_intonation_perc,2024.2.4,Win32,144.9275362,6150e088de5e18243a46222c,687ed1b7e638a4cbf2f02089,689b84d8bc9bc270ae50e56c,,,,,,,,,,,,,72,0,,./stim/wavs/castilian_mismatch_declarative-broad-focus_Mi-novio-viene-del-lago.wav,,,,,,,,,,,,,,,,,,,,,,308.578,311.4806,0,1,2.3921,,0,26,26,71,1,0,castilian,,,,,,,,,,,,,,,,,,,,,,,,,,,,,,,,,,,,,,,,,,,,,,,,,,,,,,,,
,,,,,,,,,6150e088de5e18243a46222c,Castellano,13 or older,"no, only English or Spanish",no,2025-08-12_14h18.06.972,empathy_intonation_perc,2024.2.4,Win32,144.9275362,6150e088de5e18243a46222c,687ed1b7e638a4cbf2f02089,689b84d8bc9bc270ae50e56c,,,,,,,,,,,,,3,1,,./stim/wavs/castilian_match_interrogative-total-yn_Manuela-vende-el-carro.wav,,,,,,,,,,,,,,,,,,,,,,311.4809,313.7097,1,1,1.7172,,0,27,27,2,1,0,castilian,,,,,,,,,,,,,,,,,,,,,,,,,,,,,,,,,,,,,,,,,,,,,,,,,,,,,,,,
,,,,,,,,,6150e088de5e18243a46222c,Castellano,13 or older,"no, only English or Spanish",no,2025-08-12_14h18.06.972,empathy_intonation_perc,2024.2.4,Win32,144.9275362,6150e088de5e18243a46222c,687ed1b7e638a4cbf2f02089,689b84d8bc9bc270ae50e56c,,,,,,,,,,,,,56,0,,./stim/wavs/cuban_match_declarative-broad-focus_Marta-abre-el-regalo.wav,,,,,,,,,,,,,,,,,,,,,,313.7101,315.9043,0,1,1.6813,,0,28,28,55,1,0,cuban,,,,,,,,,,,,,,,,,,,,,,,,,,,,,,,,,,,,,,,,,,,,,,,,,,,,,,,,
,,,,,,,,,6150e088de5e18243a46222c,Castellano,13 or older,"no, only English or Spanish",no,2025-08-12_14h18.06.972,empathy_intonation_perc,2024.2.4,Win32,144.9275362,6150e088de5e18243a46222c,687ed1b7e638a4cbf2f02089,689b84d8bc9bc270ae50e56c,,,,,,,,,,,,,66,0,,./stim/wavs/puertorican_match_declarative-broad-focus_Emilio-ama-la-marcha.wav,,,,,,,,,,,,,,,,,,,,,,315.9045,318.0501,0,1,1.6375,,0,29,29,65,1,0,puertorican,,,,,,,,,,,,,,,,,,,,,,,,,,,,,,,,,,,,,,,,,,,,,,,,,,,,,,,,
,,,,,,,,,6150e088de5e18243a46222c,Castellano,13 or older,"no, only English or Spanish",no,2025-08-12_14h18.06.972,empathy_intonation_perc,2024.2.4,Win32,144.9275362,6150e088de5e18243a46222c,687ed1b7e638a4cbf2f02089,689b84d8bc9bc270ae50e56c,,,,,,,,,,,,,60,0,,./stim/wavs/mexican_match_declarative-broad-focus_Emilio-ama-la-marcha.wav,,,,,,,,,,,,,,,,,,,,,,318.0504,320.3071,0,1,1.7465,,0,30,30,59,1,0,mexican,,,,,,,,,,,,,,,,,,,,,,,,,,,,,,,,,,,,,,,,,,,,,,,,,,,,,,,,
,,,,,,,,,6150e088de5e18243a46222c,Castellano,13 or older,"no, only English or Spanish",no,2025-08-12_14h18.06.972,empathy_intonation_perc,2024.2.4,Win32,144.9275362,6150e088de5e18243a46222c,687ed1b7e638a4cbf2f02089,689b84d8bc9bc270ae50e56c,,,,,,,,,,,,,2,1,,./stim/wavs/castilian_match_interrogative-total-yn_Emilio-ama-la-marcha.wav,,,,,,,,,,,,,,,,,,,,,,320.3074,322.5225,1,1,1.7045,,0,31,31,1,1,0,castilian,,,,,,,,,,,,,,,,,,,,,,,,,,,,,,,,,,,,,,,,,,,,,,,,,,,,,,,,
,,,,,,,,,6150e088de5e18243a46222c,Castellano,13 or older,"no, only English or Spanish",no,2025-08-12_14h18.06.972,empathy_intonation_perc,2024.2.4,Win32,144.9275362,6150e088de5e18243a46222c,687ed1b7e638a4cbf2f02089,689b84d8bc9bc270ae50e56c,,,,,,,,,,,,,42,1,,./stim/wavs/puertorican_mismatch_interrogative-total-yn_La-maestra-vive-en-Paris.wav,,,,,,,,,,,,,,,,,,,,,,322.5226,325.2448,0,0,2.2139,,0,32,32,41,1,1,puertorican,,,,,,,,,,,,,,,,,,,,,,,,,,,,,,,,,,,,,,,,,,,,,,,,,,,,,,,,
,,,,,,,,,6150e088de5e18243a46222c,Castellano,13 or older,"no, only English or Spanish",no,2025-08-12_14h18.06.972,empathy_intonation_perc,2024.2.4,Win32,144.9275362,6150e088de5e18243a46222c,687ed1b7e638a4cbf2f02089,689b84d8bc9bc270ae50e56c,,,,,,,,,,,,,40,1,,./stim/wavs/puertorican_mismatch_interrogative-total-yn_El-hombre-mira-la-luna.wav,,,,,,,,,,,,,,,,,,,,,,325.245,327.21,1,1,1.4519,,0,33,33,39,1,1,puertorican,,,,,,,,,,,,,,,,,,,,,,,,,,,,,,,,,,,,,,,,,,,,,,,,,,,,,,,,
,,,,,,,,,6150e088de5e18243a46222c,Castellano,13 or older,"no, only English or Spanish",no,2025-08-12_14h18.06.972,empathy_intonation_perc,2024.2.4,Win32,144.9275362,6150e088de5e18243a46222c,687ed1b7e638a4cbf2f02089,689b84d8bc9bc270ae50e56c,,,,,,,,,,,,,83,0,,./stim/wavs/mexican_mismatch_declarative-broad-focus_Mi-tia-odia-la-lluvia.wav,,,,,,,,,,,,,,,,,,,,,,327.2103,329.3289,0,1,1.6174,,0,34,34,82,1,0,mexican,,,,,,,,,,,,,,,,,,,,,,,,,,,,,,,,,,,,,,,,,,,,,,,,,,,,,,,,
,,,,,,,,,6150e088de5e18243a46222c,Castellano,13 or older,"no, only English or Spanish",no,2025-08-12_14h18.06.972,empathy_intonation_perc,2024.2.4,Win32,144.9275362,6150e088de5e18243a46222c,687ed1b7e638a4cbf2f02089,689b84d8bc9bc270ae50e56c,,,,,,,,,,,,,21,1,,./stim/wavs/puertorican_match_interrogative-total-yn_David-leia-el-libro.wav,,,,,,,,,,,,,,,,,,,,,,329.3291,331.3906,0,0,1.5533,,0,35,35,20,1,1,puertorican,,,,,,,,,,,,,,,,,,,,,,,,,,,,,,,,,,,,,,,,,,,,,,,,,,,,,,,,
,,,,,,,,,6150e088de5e18243a46222c,Castellano,13 or older,"no, only English or Spanish",no,2025-08-12_14h18.06.972,empathy_intonation_perc,2024.2.4,Win32,144.9275362,6150e088de5e18243a46222c,687ed1b7e638a4cbf2f02089,689b84d8bc9bc270ae50e56c,,,,,,,,,,,,,63,0,,./stim/wavs/puertorican_match_declarative-broad-focus_Ana-lleva-el-abrigo.wav,,,,,,,,,,,,,,,,,,,,,,331.3909,333.592,0,1,1.6881,,0,36,36,62,1,0,puertorican,,,,,,,,,,,,,,,,,,,,,,,,,,,,,,,,,,,,,,,,,,,,,,,,,,,,,,,,
,,,,,,,,,6150e088de5e18243a46222c,Castellano,13 or older,"no, only English or Spanish",no,2025-08-12_14h18.06.972,empathy_intonation_perc,2024.2.4,Win32,144.9275362,6150e088de5e18243a46222c,687ed1b7e638a4cbf2f02089,689b84d8bc9bc270ae50e56c,,,,,,,,,,,,,49,0,,./stim/wavs/castilian_match_declarative-broad-focus_Mariano-habla-del-tiempo.wav,,,,,,,,,,,,,,,,,,,,,,333.5923,336.2935,0,1,2.189,,0,37,37,48,1,0,castilian,,,,,,,,,,,,,,,,,,,,,,,,,,,,,,,,,,,,,,,,,,,,,,,,,,,,,,,,
,,,,,,,,,6150e088de5e18243a46222c,Castellano,13 or older,"no, only English or Spanish",no,2025-08-12_14h18.06.972,empathy_intonation_perc,2024.2.4,Win32,144.9275362,6150e088de5e18243a46222c,687ed1b7e638a4cbf2f02089,689b84d8bc9bc270ae50e56c,,,,,,,,,,,,,5,1,,./stim/wavs/castilian_match_interrogative-total-yn_Mariano-habla-del-tiempo.wav,,,,,,,,,,,,,,,,,,,,,,336.2937,339.6894,1,1,2.8879,,0,38,38,4,1,0,castilian,,,,,,,,,,,,,,,,,,,,,,,,,,,,,,,,,,,,,,,,,,,,,,,,,,,,,,,,
,,,,,,,,,6150e088de5e18243a46222c,Castellano,13 or older,"no, only English or Spanish",no,2025-08-12_14h18.06.972,empathy_intonation_perc,2024.2.4,Win32,144.9275362,6150e088de5e18243a46222c,687ed1b7e638a4cbf2f02089,689b84d8bc9bc270ae50e56c,,,,,,,,,,,,,27,1,,./stim/wavs/castilian_mismatch_interrogative-total-yn_Mi-madre-come-la-fruta.wav,,,,,,,,,,,,,,,,,,,,,,339.6896,341.9325,1,1,1.7301,,0,39,39,26,1,0,castilian,,,,,,,,,,,,,,,,,,,,,,,,,,,,,,,,,,,,,,,,,,,,,,,,,,,,,,,,
,,,,,,,,,6150e088de5e18243a46222c,Castellano,13 or older,"no, only English or Spanish",no,2025-08-12_14h18.06.972,empathy_intonation_perc,2024.2.4,Win32,144.9275362,6150e088de5e18243a46222c,687ed1b7e638a4cbf2f02089,689b84d8bc9bc270ae50e56c,,,,,,,,,,,,,57,0,,./stim/wavs/mexican_match_declarative-broad-focus_Ana-lleva-el-abrigo.wav,,,,,,,,,,,,,,,,,,,,,,341.9327,343.9395,0,1,1.4955,,0,40,40,56,1,0,mexican,,,,,,,,,,,,,,,,,,,,,,,,,,,,,,,,,,,,,,,,,,,,,,,,,,,,,,,,
,,,,,,,,,6150e088de5e18243a46222c,Castellano,13 or older,"no, only English or Spanish",no,2025-08-12_14h18.06.972,empathy_intonation_perc,2024.2.4,Win32,144.9275362,6150e088de5e18243a46222c,687ed1b7e638a4cbf2f02089,689b84d8bc9bc270ae50e56c,,,,,,,,,,,,,7,1,,./stim/wavs/cuban_match_interrogative-total-yn_Ana-lleva-el-abrigo.wav,,,,,,,,,,,,,,,,,,,,,,343.9397,345.8354,1,1,1.3856,,0,41,41,6,1,1,cuban,,,,,,,,,,,,,,,,,,,,,,,,,,,,,,,,,,,,,,,,,,,,,,,,,,,,,,,,
,,,,,,,,,6150e088de5e18243a46222c,Castellano,13 or older,"no, only English or Spanish",no,2025-08-12_14h18.06.972,empathy_intonation_perc,2024.2.4,Win32,144.9275362,6150e088de5e18243a46222c,687ed1b7e638a4cbf2f02089,689b84d8bc9bc270ae50e56c,,,,,,,,,,,,,36,1,,./stim/wavs/mexican_mismatch_interrogative-total-yn_El-nino-oye-el-rio.wav,,,,,,,,,,,,,,,,,,,,,,345.8356,347.9743,1,1,1.6266,,0,42,42,35,1,0,mexican,,,,,,,,,,,,,,,,,,,,,,,,,,,,,,,,,,,,,,,,,,,,,,,,,,,,,,,,
,,,,,,,,,6150e088de5e18243a46222c,Castellano,13 or older,"no, only English or Spanish",no,2025-08-12_14h18.06.972,empathy_intonation_perc,2024.2.4,Win32,144.9275362,6150e088de5e18243a46222c,687ed1b7e638a4cbf2f02089,689b84d8bc9bc270ae50e56c,,,,,,,,,,,,,68,0,,./stim/wavs/puertorican_match_declarative-broad-focus_Maria-bebe-el-vino.wav,,,,,,,,,,,,,,,,,,,,,,347.9745,350.2868,0,1,1.803,,0,43,43,67,1,0,puertorican,,,,,,,,,,,,,,,,,,,,,,,,,,,,,,,,,,,,,,,,,,,,,,,,,,,,,,,,
,,,,,,,,,6150e088de5e18243a46222c,Castellano,13 or older,"no, only English or Spanish",no,2025-08-12_14h18.06.972,empathy_intonation_perc,2024.2.4,Win32,144.9275362,6150e088de5e18243a46222c,687ed1b7e638a4cbf2f02089,689b84d8bc9bc270ae50e56c,,,,,,,,,,,,,82,0,,./stim/wavs/mexican_mismatch_declarative-broad-focus_Mi-novio-viene-del-lago.wav,,,,,,,,,,,,,,,,,,,,,,350.287,352.3632,0,1,1.5641,,0,44,44,81,1,0,mexican,,,,,,,,,,,,,,,,,,,,,,,,,,,,,,,,,,,,,,,,,,,,,,,,,,,,,,,,
,,,,,,,,,6150e088de5e18243a46222c,Castellano,13 or older,"no, only English or Spanish",no,2025-08-12_14h18.06.972,empathy_intonation_perc,2024.2.4,Win32,144.9275362,6150e088de5e18243a46222c,687ed1b7e638a4cbf2f02089,689b84d8bc9bc270ae50e56c,,,,,,,,,,,,,84,0,,./stim/wavs/puertorican_mismatch_declarative-broad-focus_El-bebe-comia-muy-bien.wav,,,,,,,,,,,,,,,,,,,,,,352.3635,354.364,0,1,1.4929,,0,45,45,83,1,0,puertorican,,,,,,,,,,,,,,,,,,,,,,,,,,,,,,,,,,,,,,,,,,,,,,,,,,,,,,,,
,,,,,,,,,6150e088de5e18243a46222c,Castellano,13 or older,"no, only English or Spanish",no,2025-08-12_14h18.06.972,empathy_intonation_perc,2024.2.4,Win32,144.9275362,6150e088de5e18243a46222c,687ed1b7e638a4cbf2f02089,689b84d8bc9bc270ae50e56c,,,,,,,,,,,,,79,0,,./stim/wavs/mexican_mismatch_declarative-broad-focus_El-bebe-comia-muy-bien.wav,,,,,,,,,,,,,,,,,,,,,,354.3641,356.655,0,1,1.7806,,0,46,46,78,1,0,mexican,,,,,,,,,,,,,,,,,,,,,,,,,,,,,,,,,,,,,,,,,,,,,,,,,,,,,,,,
,,,,,,,,,6150e088de5e18243a46222c,Castellano,13 or older,"no, only English or Spanish",no,2025-08-12_14h18.06.972,empathy_intonation_perc,2024.2.4,Win32,144.9275362,6150e088de5e18243a46222c,687ed1b7e638a4cbf2f02089,689b84d8bc9bc270ae50e56c,,,,,,,,,,,,,30,1,,./stim/wavs/cuban_mismatch_interrogative-total-yn_El-hombre-mira-la-luna.wav,,,,,,,,,,,,,,,,,,,,,,356.6552,358.9675,0,0,1.7993,,0,47,47,29,1,1,cuban,,,,,,,,,,,,,,,,,,,,,,,,,,,,,,,,,,,,,,,,,,,,,,,,,,,,,,,,
,,,,,,,,,6150e088de5e18243a46222c,Castellano,13 or older,"no, only English or Spanish",no,2025-08-12_14h18.06.972,empathy_intonation_perc,2024.2.4,Win32,144.9275362,6150e088de5e18243a46222c,687ed1b7e638a4cbf2f02089,689b84d8bc9bc270ae50e56c,,,,,,,,,,,,,32,1,,./stim/wavs/cuban_mismatch_interrogative-total-yn_Mi-madre-come-la-fruta.wav,,,,,,,,,,,,,,,,,,,,,,358.9677,361.2319,0,0,1.7564,,0,48,48,31,1,1,cuban,,,,,,,,,,,,,,,,,,,,,,,,,,,,,,,,,,,,,,,,,,,,,,,,,,,,,,,,
,,,,,,,,,6150e088de5e18243a46222c,Castellano,13 or older,"no, only English or Spanish",no,2025-08-12_14h18.06.972,empathy_intonation_perc,2024.2.4,Win32,144.9275362,6150e088de5e18243a46222c,687ed1b7e638a4cbf2f02089,689b84d8bc9bc270ae50e56c,,,,,,,,,,,,,44,1,,./stim/wavs/puertorican_mismatch_interrogative-total-yn_Mi-madre-come-la-fruta.wav,,,,,,,,,,,,,,,,,,,,,,361.2322,363.176,1,1,1.4333,,0,49,49,43,1,1,puertorican,,,,,,,,,,,,,,,,,,,,,,,,,,,,,,,,,,,,,,,,,,,,,,,,,,,,,,,,
,,,,,,,,,6150e088de5e18243a46222c,Castellano,13 or older,"no, only English or Spanish",no,2025-08-12_14h18.06.972,empathy_intonation_perc,2024.2.4,Win32,144.9275362,6150e088de5e18243a46222c,687ed1b7e638a4cbf2f02089,689b84d8bc9bc270ae50e56c,,,,,,,,,,,,,65,0,,./stim/wavs/puertorican_match_declarative-broad-focus_David-leia-el-libro.wav,,,,,,,,,,,,,,,,,,,,,,363.1764,365.0579,0,1,1.3706,,0,50,50,64,1,0,puertorican,,,,,,,,,,,,,,,,,,,,,,,,,,,,,,,,,,,,,,,,,,,,,,,,,,,,,,,,
,,,,,,,,,6150e088de5e18243a46222c,Castellano,13 or older,"no, only English or Spanish",no,2025-08-12_14h18.06.972,empathy_intonation_perc,2024.2.4,Win32,144.9275362,6150e088de5e18243a46222c,687ed1b7e638a4cbf2f02089,689b84d8bc9bc270ae50e56c,,,,,,,,,,,,,81,0,,./stim/wavs/mexican_mismatch_declarative-broad-focus_La-maestra-vive-en-Paris.wav,,,,,,,,,,,,,,,,,,,,,,365.0581,367.4747,0,1,1.9046,,0,51,51,80,1,0,mexican,,,,,,,,,,,,,,,,,,,,,,,,,,,,,,,,,,,,,,,,,,,,,,,,,,,,,,,,
,,,,,,,,,6150e088de5e18243a46222c,Castellano,13 or older,"no, only English or Spanish",no,2025-08-12_14h18.06.972,empathy_intonation_perc,2024.2.4,Win32,144.9275362,6150e088de5e18243a46222c,687ed1b7e638a4cbf2f02089,689b84d8bc9bc270ae50e56c,,,,,,,,,,,,,48,0,,./stim/wavs/castilian_match_declarative-broad-focus_Maria-bebe-el-vino.wav,,,,,,,,,,,,,,,,,,,,,,367.4748,369.558,0,1,1.5745,,0,52,52,47,1,0,castilian,,,,,,,,,,,,,,,,,,,,,,,,,,,,,,,,,,,,,,,,,,,,,,,,,,,,,,,,
,,,,,,,,,6150e088de5e18243a46222c,Castellano,13 or older,"no, only English or Spanish",no,2025-08-12_14h18.06.972,empathy_intonation_perc,2024.2.4,Win32,144.9275362,6150e088de5e18243a46222c,687ed1b7e638a4cbf2f02089,689b84d8bc9bc270ae50e56c,,,,,,,,,,,,,19,1,,./stim/wavs/puertorican_match_interrogative-total-yn_Ana-lleva-el-abrigo.wav,,,,,,,,,,,,,,,,,,,,,,369.5582,371.5094,0,0,1.4381,,0,53,53,18,1,1,puertorican,,,,,,,,,,,,,,,,,,,,,,,,,,,,,,,,,,,,,,,,,,,,,,,,,,,,,,,,
,,,,,,,,,6150e088de5e18243a46222c,Castellano,13 or older,"no, only English or Spanish",no,2025-08-12_14h18.06.972,empathy_intonation_perc,2024.2.4,Win32,144.9275362,6150e088de5e18243a46222c,687ed1b7e638a4cbf2f02089,689b84d8bc9bc270ae50e56c,,,,,,,,,,,,,39,1,,./stim/wavs/mexican_mismatch_interrogative-total-yn_Mi-tia-odia-la-lluvia.wav,,,,,,,,,,,,,,,,,,,,,,371.5097,373.4955,1,1,1.4738,,0,54,54,38,1,0,mexican,,,,,,,,,,,,,,,,,,,,,,,,,,,,,,,,,,,,,,,,,,,,,,,,,,,,,,,,
,,,,,,,,,6150e088de5e18243a46222c,Castellano,13 or older,"no, only English or Spanish",no,2025-08-12_14h18.06.972,empathy_intonation_perc,2024.2.4,Win32,144.9275362,6150e088de5e18243a46222c,687ed1b7e638a4cbf2f02089,689b84d8bc9bc270ae50e56c,,,,,,,,,,,,,23,1,,./stim/wavs/puertorican_match_interrogative-total-yn_Manuela-vende-el-carro.wav,,,,,,,,,,,,,,,,,,,,,,373.4957,375.5025,0,0,1.4985,,0,55,55,22,1,1,puertorican,,,,,,,,,,,,,,,,,,,,,,,,,,,,,,,,,,,,,,,,,,,,,,,,,,,,,,,,
,,,,,,,,,6150e088de5e18243a46222c,Castellano,13 or older,"no, only English or Spanish",no,2025-08-12_14h18.06.972,empathy_intonation_perc,2024.2.4,Win32,144.9275362,6150e088de5e18243a46222c,687ed1b7e638a4cbf2f02089,689b84d8bc9bc270ae50e56c,,,,,,,,,,,,,43,1,,./stim/wavs/puertorican_mismatch_interrogative-total-yn_La-nina-lava-el-plato.wav,,,,,,,,,,,,,,,,,,,,,,375.5027,377.8706,0,0,1.8549,,0,56,56,42,1,1,puertorican,,,,,,,,,,,,,,,,,,,,,,,,,,,,,,,,,,,,,,,,,,,,,,,,,,,,,,,,
,,,,,,,,,6150e088de5e18243a46222c,Castellano,13 or older,"no, only English or Spanish",no,2025-08-12_14h18.06.972,empathy_intonation_perc,2024.2.4,Win32,144.9275362,6150e088de5e18243a46222c,687ed1b7e638a4cbf2f02089,689b84d8bc9bc270ae50e56c,,,,,,,,,,,,,12,1,,./stim/wavs/cuban_match_interrogative-total-yn_Marta-abre-el-regalo.wav,,,,,,,,,,,,,,,,,,,,,,377.8708,380.0859,0,0,1.7022,,0,57,57,11,1,1,cuban,,,,,,,,,,,,,,,,,,,,,,,,,,,,,,,,,,,,,,,,,,,,,,,,,,,,,,,,
,,,,,,,,,6150e088de5e18243a46222c,Castellano,13 or older,"no, only English or Spanish",no,2025-08-12_14h18.06.972,empathy_intonation_perc,2024.2.4,Win32,144.9275362,6150e088de5e18243a46222c,687ed1b7e638a4cbf2f02089,689b84d8bc9bc270ae50e56c,,,,,,,,,,,,,11,1,,./stim/wavs/cuban_match_interrogative-total-yn_Mariano-habla-del-tiempo.wav,,,,,,,,,,,,,,,,,,,,,,380.0861,382.086,0,0,1.4879,,0,58,58,10,1,1,cuban,,,,,,,,,,,,,,,,,,,,,,,,,,,,,,,,,,,,,,,,,,,,,,,,,,,,,,,,
,,,,,,,,,6150e088de5e18243a46222c,Castellano,13 or older,"no, only English or Spanish",no,2025-08-12_14h18.06.972,empathy_intonation_perc,2024.2.4,Win32,144.9275362,6150e088de5e18243a46222c,687ed1b7e638a4cbf2f02089,689b84d8bc9bc270ae50e56c,,,,,,,,,,,,,71,0,,./stim/wavs/castilian_mismatch_declarative-broad-focus_La-nina-lava-el-plato.wav,,,,,,,,,,,,,,,,,,,,,,382.0863,384.3638,0,1,1.7666,,0,59,59,70,1,0,castilian,,,,,,,,,,,,,,,,,,,,,,,,,,,,,,,,,,,,,,,,,,,,,,,,,,,,,,,,
,,,,,,,,,6150e088de5e18243a46222c,Castellano,13 or older,"no, only English or Spanish",no,2025-08-12_14h18.06.972,empathy_intonation_perc,2024.2.4,Win32,144.9275362,6150e088de5e18243a46222c,687ed1b7e638a4cbf2f02089,689b84d8bc9bc270ae50e56c,,,,,,,,,,,,,1,1,,./stim/wavs/castilian_match_interrogative-total-yn_David-leia-el-libro.wav,,,,,,,,,,,,,,,,,,,,,,384.364,386.7666,1,1,1.8896,,0,60,60,0,1,0,castilian,,,,,,,,,,,,,,,,,,,,,,,,,,,,,,,,,,,,,,,,,,,,,,,,,,,,,,,,
,,,,,,,,,6150e088de5e18243a46222c,Castellano,13 or older,"no, only English or Spanish",no,2025-08-12_14h18.06.972,empathy_intonation_perc,2024.2.4,Win32,144.9275362,6150e088de5e18243a46222c,687ed1b7e638a4cbf2f02089,689b84d8bc9bc270ae50e56c,,,,,,,,,,,,,25,1,,./stim/wavs/castilian_mismatch_interrogative-total-yn_La-maestra-vive-en-Paris.wav,,,,,,,,,,,,,,,,,,,,,,386.7669,389.3223,1,1,2.0439,,0,61,61,24,1,0,castilian,,,,,,,,,,,,,,,,,,,,,,,,,,,,,,,,,,,,,,,,,,,,,,,,,,,,,,,,
,,,,,,,,,6150e088de5e18243a46222c,Castellano,13 or older,"no, only English or Spanish",no,2025-08-12_14h18.06.972,empathy_intonation_perc,2024.2.4,Win32,144.9275362,6150e088de5e18243a46222c,687ed1b7e638a4cbf2f02089,689b84d8bc9bc270ae50e56c,,,,,,,,,,,,,67,0,,./stim/wavs/puertorican_match_declarative-broad-focus_Manuela-vende-el-carro.wav,,,,,,,,,,,,,,,,,,,,,,389.3225,391.4334,0,1,1.5979,,0,62,62,66,1,0,puertorican,,,,,,,,,,,,,,,,,,,,,,,,,,,,,,,,,,,,,,,,,,,,,,,,,,,,,,,,
,,,,,,,,,6150e088de5e18243a46222c,Castellano,13 or older,"no, only English or Spanish",no,2025-08-12_14h18.06.972,empathy_intonation_perc,2024.2.4,Win32,144.9275362,6150e088de5e18243a46222c,687ed1b7e638a4cbf2f02089,689b84d8bc9bc270ae50e56c,,,,,,,,,,,,,26,1,,./stim/wavs/castilian_mismatch_interrogative-total-yn_La-nina-lava-el-plato.wav,,,,,,,,,,,,,,,,,,,,,,391.4336,393.5792,1,1,1.6327,,0,63,63,25,1,0,castilian,,,,,,,,,,,,,,,,,,,,,,,,,,,,,,,,,,,,,,,,,,,,,,,,,,,,,,,,
,,,,,,,,,6150e088de5e18243a46222c,Castellano,13 or older,"no, only English or Spanish",no,2025-08-12_14h18.06.972,empathy_intonation_perc,2024.2.4,Win32,144.9275362,6150e088de5e18243a46222c,687ed1b7e638a4cbf2f02089,689b84d8bc9bc270ae50e56c,,,,,,,,,,,,,76,0,,./stim/wavs/cuban_mismatch_declarative-broad-focus_La-nina-lava-el-plato.wav,,,,,,,,,,,,,,,,,,,,,,393.5795,395.7806,0,1,1.6921,,0,64,64,75,1,0,cuban,,,,,,,,,,,,,,,,,,,,,,,,,,,,,,,,,,,,,,,,,,,,,,,,,,,,,,,,
,,,,,,,,,6150e088de5e18243a46222c,Castellano,13 or older,"no, only English or Spanish",no,2025-08-12_14h18.06.972,empathy_intonation_perc,2024.2.4,Win32,144.9275362,6150e088de5e18243a46222c,687ed1b7e638a4cbf2f02089,689b84d8bc9bc270ae50e56c,,,,,,,,,,,,,75,0,,./stim/wavs/cuban_mismatch_declarative-broad-focus_El-hombre-mira-la-luna.wav,,,,,,,,,,,,,,,,,,,,,,395.7809,397.6487,0,1,1.3596,,0,65,65,74,1,0,cuban,,,,,,,,,,,,,,,,,,,,,,,,,,,,,,,,,,,,,,,,,,,,,,,,,,,,,,,,
,,,,,,,,,6150e088de5e18243a46222c,Castellano,13 or older,"no, only English or Spanish",no,2025-08-12_14h18.06.972,empathy_intonation_perc,2024.2.4,Win32,144.9275362,6150e088de5e18243a46222c,687ed1b7e638a4cbf2f02089,689b84d8bc9bc270ae50e56c,,,,,,,,,,,,,74,0,,./stim/wavs/cuban_mismatch_declarative-broad-focus_El-bebe-comia-muy-bien.wav,,,,,,,,,,,,,,,,,,,,,,397.6489,399.7877,0,1,1.6274,,0,66,66,73,1,0,cuban,,,,,,,,,,,,,,,,,,,,,,,,,,,,,,,,,,,,,,,,,,,,,,,,,,,,,,,,
,,,,,,,,,6150e088de5e18243a46222c,Castellano,13 or older,"no, only English or Spanish",no,2025-08-12_14h18.06.972,empathy_intonation_perc,2024.2.4,Win32,144.9275362,6150e088de5e18243a46222c,687ed1b7e638a4cbf2f02089,689b84d8bc9bc270ae50e56c,,,,,,,,,,,,,9,1,,./stim/wavs/cuban_match_interrogative-total-yn_Manuela-vende-el-carro.wav,,,,,,,,,,,,,,,,,,,,,,399.7879,401.8017,0,0,1.5033,,0,67,67,8,1,1,cuban,,,,,,,,,,,,,,,,,,,,,,,,,,,,,,,,,,,,,,,,,,,,,,,,,,,,,,,,
,,,,,,,,,6150e088de5e18243a46222c,Castellano,13 or older,"no, only English or Spanish",no,2025-08-12_14h18.06.972,empathy_intonation_perc,2024.2.4,Win32,144.9275362,6150e088de5e18243a46222c,687ed1b7e638a4cbf2f02089,689b84d8bc9bc270ae50e56c,,,,,,,,,,,,,55,0,,./stim/wavs/cuban_match_declarative-broad-focus_Mariano-habla-del-tiempo.wav,,,,,,,,,,,,,,,,,,,,,,401.8019,404.0724,0,1,1.7616,,0,68,68,54,1,0,cuban,,,,,,,,,,,,,,,,,,,,,,,,,,,,,,,,,,,,,,,,,,,,,,,,,,,,,,,,
,,,,,,,,,6150e088de5e18243a46222c,Castellano,13 or older,"no, only English or Spanish",no,2025-08-12_14h18.06.972,empathy_intonation_perc,2024.2.4,Win32,144.9275362,6150e088de5e18243a46222c,687ed1b7e638a4cbf2f02089,689b84d8bc9bc270ae50e56c,,,,,,,,,,,,,38,1,,./stim/wavs/mexican_mismatch_interrogative-total-yn_Mi-novio-viene-del-lago.wav,,,,,,,,,,,,,,,,,,,,,,404.0727,406.1635,1,1,1.5827,,0,69,69,37,1,0,mexican,,,,,,,,,,,,,,,,,,,,,,,,,,,,,,,,,,,,,,,,,,,,,,,,,,,,,,,,
,,,,,,,,,6150e088de5e18243a46222c,Castellano,13 or older,"no, only English or Spanish",no,2025-08-12_14h18.06.972,empathy_intonation_perc,2024.2.4,Win32,144.9275362,6150e088de5e18243a46222c,687ed1b7e638a4cbf2f02089,689b84d8bc9bc270ae50e56c,,,,,,,,,,,,,8,1,,./stim/wavs/cuban_match_interrogative-total-yn_Daniel-iba-a-Bolivia.wav,,,,,,,,,,,,,,,,,,,,,,406.1637,408.2953,0,0,1.6242,,0,70,70,7,1,1,cuban,,,,,,,,,,,,,,,,,,,,,,,,,,,,,,,,,,,,,,,,,,,,,,,,,,,,,,,,
,,,,,,,,,6150e088de5e18243a46222c,Castellano,13 or older,"no, only English or Spanish",no,2025-08-12_14h18.06.972,empathy_intonation_perc,2024.2.4,Win32,144.9275362,6150e088de5e18243a46222c,687ed1b7e638a4cbf2f02089,689b84d8bc9bc270ae50e56c,,,,,,,,,,,,,34,1,,./stim/wavs/cuban_mismatch_interrogative-total-yn_Mi-tia-odia-la-lluvia.wav,,,,,,,,,,,,,,,,,,,,,,408.2954,410.3782,0,0,1.5742,,0,71,71,33,1,1,cuban,,,,,,,,,,,,,,,,,,,,,,,,,,,,,,,,,,,,,,,,,,,,,,,,,,,,,,,,
,,,,,,,,,6150e088de5e18243a46222c,Castellano,13 or older,"no, only English or Spanish",no,2025-08-12_14h18.06.972,empathy_intonation_perc,2024.2.4,Win32,144.9275362,6150e088de5e18243a46222c,687ed1b7e638a4cbf2f02089,689b84d8bc9bc270ae50e56c,,,,,,,,,,,,,29,1,,./stim/wavs/castilian_mismatch_interrogative-total-yn_Mi-tia-odia-la-lluvia.wav,,,,,,,,,,,,,,,,,,,,,,410.3785,412.8366,0,0,1.9469,,0,72,72,28,1,0,castilian,,,,,,,,,,,,,,,,,,,,,,,,,,,,,,,,,,,,,,,,,,,,,,,,,,,,,,,,
,,,,,,,,,6150e088de5e18243a46222c,Castellano,13 or older,"no, only English or Spanish",no,2025-08-12_14h18.06.972,empathy_intonation_perc,2024.2.4,Win32,144.9275362,6150e088de5e18243a46222c,687ed1b7e638a4cbf2f02089,689b84d8bc9bc270ae50e56c,,,,,,,,,,,,,78,0,,./stim/wavs/cuban_mismatch_declarative-broad-focus_Mi-tia-odia-la-lluvia.wav,,,,,,,,,,,,,,,,,,,,,,412.8369,415.1152,0,1,1.7704,,0,73,73,77,1,0,cuban,,,,,,,,,,,,,,,,,,,,,,,,,,,,,,,,,,,,,,,,,,,,,,,,,,,,,,,,
,,,,,,,,,6150e088de5e18243a46222c,Castellano,13 or older,"no, only English or Spanish",no,2025-08-12_14h18.06.972,empathy_intonation_perc,2024.2.4,Win32,144.9275362,6150e088de5e18243a46222c,687ed1b7e638a4cbf2f02089,689b84d8bc9bc270ae50e56c,,,,,,,,,,,,,73,0,,./stim/wavs/castilian_mismatch_declarative-broad-focus_Mi-tia-odia-la-lluvia.wav,,,,,,,,,,,,,,,,,,,,,,415.1155,417.5797,0,1,1.9535,,0,74,74,72,1,0,castilian,,,,,,,,,,,,,,,,,,,,,,,,,,,,,,,,,,,,,,,,,,,,,,,,,,,,,,,,
,,,,,,,,,6150e088de5e18243a46222c,Castellano,13 or older,"no, only English or Spanish",no,2025-08-12_14h18.06.972,empathy_intonation_perc,2024.2.4,Win32,144.9275362,6150e088de5e18243a46222c,687ed1b7e638a4cbf2f02089,689b84d8bc9bc270ae50e56c,,,,,,,,,,,,,24,1,,./stim/wavs/puertorican_match_interrogative-total-yn_Maria-bebe-el-vino.wav,,,,,,,,,,,,,,,,,,,,,,417.58,419.67,0,0,1.58,,0,75,75,23,1,1,puertorican,,,,,,,,,,,,,,,,,,,,,,,,,,,,,,,,,,,,,,,,,,,,,,,,,,,,,,,,
,,,,,,,,,6150e088de5e18243a46222c,Castellano,13 or older,"no, only English or Spanish",no,2025-08-12_14h18.06.972,empathy_intonation_perc,2024.2.4,Win32,144.9275362,6150e088de5e18243a46222c,687ed1b7e638a4cbf2f02089,689b84d8bc9bc270ae50e56c,,,,,,,,,,,,,22,1,,./stim/wavs/puertorican_match_interrogative-total-yn_Emilio-ama-la-marcha.wav,,,,,,,,,,,,,,,,,,,,,,419.6702,421.9338,0,0,1.7546,,0,76,76,21,1,1,puertorican,,,,,,,,,,,,,,,,,,,,,,,,,,,,,,,,,,,,,,,,,,,,,,,,,,,,,,,,
,,,,,,,,,6150e088de5e18243a46222c,Castellano,13 or older,"no, only English or Spanish",no,2025-08-12_14h18.06.972,empathy_intonation_perc,2024.2.4,Win32,144.9275362,6150e088de5e18243a46222c,687ed1b7e638a4cbf2f02089,689b84d8bc9bc270ae50e56c,,,,,,,,,,,,,6,1,,./stim/wavs/castilian_match_interrogative-total-yn_Marta-abre-el-regalo.wav,,,,,,,,,,,,,,,,,,,,,,421.9341,424.3438,1,1,1.9007,,0,77,77,5,1,0,castilian,,,,,,,,,,,,,,,,,,,,,,,,,,,,,,,,,,,,,,,,,,,,,,,,,,,,,,,,
,,,,,,,,,6150e088de5e18243a46222c,Castellano,13 or older,"no, only English or Spanish",no,2025-08-12_14h18.06.972,empathy_intonation_perc,2024.2.4,Win32,144.9275362,6150e088de5e18243a46222c,687ed1b7e638a4cbf2f02089,689b84d8bc9bc270ae50e56c,,,,,,,,,,,,,41,1,,./stim/wavs/puertorican_mismatch_interrogative-total-yn_El-nino-oye-el-rio.wav,,,,,,,,,,,,,,,,,,,,,,424.344,426.6493,0,0,1.7934,,0,78,78,40,1,1,puertorican,,,,,,,,,,,,,,,,,,,,,,,,,,,,,,,,,,,,,,,,,,,,,,,,,,,,,,,,
,,,,,,,,,6150e088de5e18243a46222c,Castellano,13 or older,"no, only English or Spanish",no,2025-08-12_14h18.06.972,empathy_intonation_perc,2024.2.4,Win32,144.9275362,6150e088de5e18243a46222c,687ed1b7e638a4cbf2f02089,689b84d8bc9bc270ae50e56c,,,,,,,,,,,,,58,0,,./stim/wavs/mexican_match_declarative-broad-focus_Daniel-iba-a-Bolivia.wav,,,,,,,,,,,,,,,,,,,,,,426.6495,428.7743,0,1,1.6143,,0,79,79,57,1,0,mexican,,,,,,,,,,,,,,,,,,,,,,,,,,,,,,,,,,,,,,,,,,,,,,,,,,,,,,,,
,,,,,,,,,6150e088de5e18243a46222c,Castellano,13 or older,"no, only English or Spanish",no,2025-08-12_14h18.06.972,empathy_intonation_perc,2024.2.4,Win32,144.9275362,6150e088de5e18243a46222c,687ed1b7e638a4cbf2f02089,689b84d8bc9bc270ae50e56c,,,,,,,,,,,,,33,1,,./stim/wavs/cuban_mismatch_interrogative-total-yn_Mi-novio-viene-del-lago.wav,,,,,,,,,,,,,,,,,,,,,,428.7745,430.9133,0,0,1.6278,,0,80,80,32,1,1,cuban,,,,,,,,,,,,,,,,,,,,,,,,,,,,,,,,,,,,,,,,,,,,,,,,,,,,,,,,
,,,,,,,,,6150e088de5e18243a46222c,Castellano,13 or older,"no, only English or Spanish",no,2025-08-12_14h18.06.972,empathy_intonation_perc,2024.2.4,Win32,144.9275362,6150e088de5e18243a46222c,687ed1b7e638a4cbf2f02089,689b84d8bc9bc270ae50e56c,,,,,,,,,,,,,16,1,,./stim/wavs/mexican_match_interrogative-total-yn_Emilio-ama-la-marcha.wav,,,,,,,,,,,,,,,,,,,,,,430.9136,433.0521,1,1,1.6281,,0,81,81,15,1,0,mexican,,,,,,,,,,,,,,,,,,,,,,,,,,,,,,,,,,,,,,,,,,,,,,,,,,,,,,,,
,,,,,,,,,6150e088de5e18243a46222c,Castellano,13 or older,"no, only English or Spanish",no,2025-08-12_14h18.06.972,empathy_intonation_perc,2024.2.4,Win32,144.9275362,6150e088de5e18243a46222c,687ed1b7e638a4cbf2f02089,689b84d8bc9bc270ae50e56c,,,,,,,,,,,,,87,0,,./stim/wavs/puertorican_mismatch_declarative-broad-focus_La-maestra-vive-en-Paris.wav,,,,,,,,,,,,,,,,,,,,,,433.0523,435.2675,0,1,1.7047,,0,82,82,86,1,0,puertorican,,,,,,,,,,,,,,,,,,,,,,,,,,,,,,,,,,,,,,,,,,,,,,,,,,,,,,,,
,,,,,,,,,6150e088de5e18243a46222c,Castellano,13 or older,"no, only English or Spanish",no,2025-08-12_14h18.06.972,empathy_intonation_perc,2024.2.4,Win32,144.9275362,6150e088de5e18243a46222c,687ed1b7e638a4cbf2f02089,689b84d8bc9bc270ae50e56c,,,,,,,,,,,,,51,0,,./stim/wavs/cuban_match_declarative-broad-focus_Ana-lleva-el-abrigo.wav,,,,,,,,,,,,,,,,,,,,,,435.2677,437.3161,0,1,1.5371,,0,83,83,50,1,0,cuban,,,,,,,,,,,,,,,,,,,,,,,,,,,,,,,,,,,,,,,,,,,,,,,,,,,,,,,,
,,,,,,,,,6150e088de5e18243a46222c,Castellano,13 or older,"no, only English or Spanish",no,2025-08-12_14h18.06.972,empathy_intonation_perc,2024.2.4,Win32,144.9275362,6150e088de5e18243a46222c,687ed1b7e638a4cbf2f02089,689b84d8bc9bc270ae50e56c,,,,,,,,,,,,,54,0,,./stim/wavs/cuban_match_declarative-broad-focus_Maria-bebe-el-vino.wav,,,,,,,,,,,,,,,,,,,,,,437.3164,439.4204,0,1,1.591,,0,84,84,53,1,0,cuban,,,,,,,,,,,,,,,,,,,,,,,,,,,,,,,,,,,,,,,,,,,,,,,,,,,,,,,,
,,,,,,,,,6150e088de5e18243a46222c,Castellano,13 or older,"no, only English or Spanish",no,2025-08-12_14h18.06.972,empathy_intonation_perc,2024.2.4,Win32,144.9275362,6150e088de5e18243a46222c,687ed1b7e638a4cbf2f02089,689b84d8bc9bc270ae50e56c,,,,,,,,,,,,,86,0,,./stim/wavs/puertorican_mismatch_declarative-broad-focus_El-nino-oye-el-rio.wav,,,,,,,,,,,,,,,,,,,,,,439.4206,441.3303,0,1,1.4017,,0,85,85,85,1,0,puertorican,,,,,,,,,,,,,,,,,,,,,,,,,,,,,,,,,,,,,,,,,,,,,,,,,,,,,,,,
,,,,,,,,,6150e088de5e18243a46222c,Castellano,13 or older,"no, only English or Spanish",no,2025-08-12_14h18.06.972,empathy_intonation_perc,2024.2.4,Win32,144.9275362,6150e088de5e18243a46222c,687ed1b7e638a4cbf2f02089,689b84d8bc9bc270ae50e56c,,,,,,,,,,,,,52,0,,./stim/wavs/cuban_match_declarative-broad-focus_Daniel-iba-a-Bolivia.wav,,,,,,,,,,,,,,,,,,,,,,441.3305,443.8371,0,1,1.9958,,0,86,86,51,1,0,cuban,,,,,,,,,,,,,,,,,,,,,,,,,,,,,,,,,,,,,,,,,,,,,,,,,,,,,,,,
,,,,,,,,,6150e088de5e18243a46222c,Castellano,13 or older,"no, only English or Spanish",no,2025-08-12_14h18.06.972,empathy_intonation_perc,2024.2.4,Win32,144.9275362,6150e088de5e18243a46222c,687ed1b7e638a4cbf2f02089,689b84d8bc9bc270ae50e56c,,,,,,,,,,,,,35,1,,./stim/wavs/mexican_mismatch_interrogative-total-yn_El-hombre-mira-la-luna.wav,,,,,,,,,,,,,,,,,,,,,,443.8373,445.9621,1,1,1.6139,,0,87,87,34,1,0,mexican,,,,,,,,,,,,,,,,,,,,,,,,,,,,,,,,,,,,,,,,,,,,,,,,,,,,,,,,
,,,,,,,"Great! Now we will move on. The next task consists of about 60 trials, in each of which you will see a string of letters. 
  
  Your task is to decide whether this is a real Spanish word or not.", (press the spacebar to continue),6150e088de5e18243a46222c,Castellano,13 or older,"no, only English or Spanish",no,2025-08-12_14h18.06.972,empathy_intonation_perc,2024.2.4,Win32,144.9275362,6150e088de5e18243a46222c,687ed1b7e638a4cbf2f02089,689b84d8bc9bc270ae50e56c,,,,,,,,,,,,,,,,,,,,,,,,,,,,,,,,,,,,,,,,,,,,,,,,,,,445.965,501.7413,0,0,0,0,1,,,,,,,,,,,,,,,,,,,,,,,,,,,,,,,,,,,,,,,,,,,,,,,,,
,,,,,,,"If you think it is an existing Spanish word, you type '1' (for 'REAL'), and if you think it is not an existing Spanish word, you type '0' (for 'FAKE').", (press the spacebar to continue),6150e088de5e18243a46222c,Castellano,13 or older,"no, only English or Spanish",no,2025-08-12_14h18.06.972,empathy_intonation_perc,2024.2.4,Win32,144.9275362,6150e088de5e18243a46222c,687ed1b7e638a4cbf2f02089,689b84d8bc9bc270ae50e56c,,,,,,,,,,,,,,,,,,,,,,,,,,,,,,,,,,,,,,,,,,,,,,,,,,,501.7425,505.4632,0,1,1,1,1,,,,,,,,,,,,,,,,,,,,,,,,,,,,,,,,,,,,,,,,,,,,,,,,,
,,,,,,,"If you are sure that the word exists, even though you don’t know its exact meaning, you may still respond '1' (REAL). 
  
  But if you are not sure if it is an existing word, you should respond '0' (FAKE).
  
  Let's do a practice round...", (press the spacebar to continue),6150e088de5e18243a46222c,Castellano,13 or older,"no, only English or Spanish",no,2025-08-12_14h18.06.972,empathy_intonation_perc,2024.2.4,Win32,144.9275362,6150e088de5e18243a46222c,687ed1b7e638a4cbf2f02089,689b84d8bc9bc270ae50e56c,,,,,,,,,,,,,,,,,,,,,,,,,,,,,,,,,,,,,,,,,,,,,,,,,,,505.4641,509.8662,0,2,2,2,1,,,,,,,,,,,,,,,,,,,,,,,,,,,,,,,,,,,,,,,,,,,,,,,,,
,,,,,,,,,6150e088de5e18243a46222c,Castellano,13 or older,"no, only English or Spanish",no,2025-08-12_14h18.06.972,empathy_intonation_perc,2024.2.4,Win32,144.9275362,6150e088de5e18243a46222c,687ed1b7e638a4cbf2f02089,689b84d8bc9bc270ae50e56c,,,,,,,,,,,,,,0,,,,,,,,,,,,,,,,,,,,,,,,,,,,,,,,,,,,,,,,,,,,509.8702,511.9289,0,1,1.5439,,511.929,512.9287,0,0,0,0,1,0,depiste,REAL,FAKE,,,,,,,,,,,,,,,,,,,,,,,,,,,,,,,,
,,,,,,,,,6150e088de5e18243a46222c,Castellano,13 or older,"no, only English or Spanish",no,2025-08-12_14h18.06.972,empathy_intonation_perc,2024.2.4,Win32,144.9275362,6150e088de5e18243a46222c,687ed1b7e638a4cbf2f02089,689b84d8bc9bc270ae50e56c,,,,,,,,,,,,,,1,,,,,,,,,,,,,,,,,,,,,,,,,,,,,,,,,,,,,,,,,,,,512.9296,514.0328,1,1,0.5863,,514.0328,515.0328,0,1,1,1,1,0,sí,REAL,FAKE,,,,,,,,,,,,,,,,,,,,,,,,,,,,,,,,
,,,,,,,,,6150e088de5e18243a46222c,Castellano,13 or older,"no, only English or Spanish",no,2025-08-12_14h18.06.972,empathy_intonation_perc,2024.2.4,Win32,144.9275362,6150e088de5e18243a46222c,687ed1b7e638a4cbf2f02089,689b84d8bc9bc270ae50e56c,,,,,,,,,,,,,,0,,,,,,,,,,,,,,,,,,,,,,,,,,,,,,,,,,,,,,,,,,,,515.0335,516.7069,1,0,1.159,,516.7075,517.7065,0,2,2,2,1,0,coné,REAL,FAKE,,,,,,,,,,,,,,,,,,,,,,,,,,,,,,,,
,,,,,,,,,6150e088de5e18243a46222c,Castellano,13 or older,"no, only English or Spanish",no,2025-08-12_14h18.06.972,empathy_intonation_perc,2024.2.4,Win32,144.9275362,6150e088de5e18243a46222c,687ed1b7e638a4cbf2f02089,689b84d8bc9bc270ae50e56c,,,,,,,,,,,,,,0,,,,,,,,,,,,,,,,,,,,,,,,,,,,,,,,,,,,,,,,,,,,517.7069,518.8808,1,0,0.6594,,518.8808,519.8801,0,3,3,3,1,0,calpar,REAL,FAKE,,,,,,,,,,,,,,,,,,,,,,,,,,,,,,,,
,,,,,,,,,6150e088de5e18243a46222c,Castellano,13 or older,"no, only English or Spanish",no,2025-08-12_14h18.06.972,empathy_intonation_perc,2024.2.4,Win32,144.9275362,6150e088de5e18243a46222c,687ed1b7e638a4cbf2f02089,689b84d8bc9bc270ae50e56c,,,,,,,,,,,,,,0,,,,,,,,,,,,,,,,,,,,,,,,,,,,,,,,,,,,,,,,,,,,519.8806,521.0329,0,1,0.6327,,521.0332,522.0329,0,4,4,4,1,0,joten,REAL,FAKE,,,,,,,,,,,,,,,,,,,,,,,,,,,,,,,,
,,,,,,,,,6150e088de5e18243a46222c,Castellano,13 or older,"no, only English or Spanish",no,2025-08-12_14h18.06.972,empathy_intonation_perc,2024.2.4,Win32,144.9275362,6150e088de5e18243a46222c,687ed1b7e638a4cbf2f02089,689b84d8bc9bc270ae50e56c,,,,,,,,,,,,,,1,,,,,,,,,,,,,,,,,,,,,,,,,,,,,,,,,,,,,,,,,,,,522.0336,523.401,1,1,0.8508,,523.401,524.401,0,5,5,5,1,0,sacapuntas,REAL,FAKE,,,,,,,,,,,,,,,,,,,,,,,,,,,,,,,,
,,,,,,,,,6150e088de5e18243a46222c,Castellano,13 or older,"no, only English or Spanish",no,2025-08-12_14h18.06.972,empathy_intonation_perc,2024.2.4,Win32,144.9275362,6150e088de5e18243a46222c,687ed1b7e638a4cbf2f02089,689b84d8bc9bc270ae50e56c,,,,,,,,,,,,,,0,,,,,,,,,,,,,,,,,,,,,,,,,,,,,,,,,,,,,,,,,,,,524.4016,525.6094,0,1,0.6886,,525.6094,526.6094,0,6,6,6,1,0,priba,REAL,FAKE,,,,,,,,,,,,,,,,,,,,,,,,,,,,,,,,
,,,,,,,,,6150e088de5e18243a46222c,Castellano,13 or older,"no, only English or Spanish",no,2025-08-12_14h18.06.972,empathy_intonation_perc,2024.2.4,Win32,144.9275362,6150e088de5e18243a46222c,687ed1b7e638a4cbf2f02089,689b84d8bc9bc270ae50e56c,,,,,,,,,,,,,,0,,,,,,,,,,,,,,,,,,,,,,,,,,,,,,,,,,,,,,,,,,,,526.6097,527.9706,1,0,0.8458,,527.971,528.9706,0,7,7,7,1,0,pelasula,REAL,FAKE,,,,,,,,,,,,,,,,,,,,,,,,,,,,,,,,
,,,,,,,,,6150e088de5e18243a46222c,Castellano,13 or older,"no, only English or Spanish",no,2025-08-12_14h18.06.972,empathy_intonation_perc,2024.2.4,Win32,144.9275362,6150e088de5e18243a46222c,687ed1b7e638a4cbf2f02089,689b84d8bc9bc270ae50e56c,,,,,,,,,,,,,,1,,,,,,,,,,,,,,,,,,,,,,,,,,,,,,,,,,,,,,,,,,,,528.971,530.0267,1,1,0.5478,,530.027,531.0261,0,8,8,8,1,0,bien,REAL,FAKE,,,,,,,,,,,,,,,,,,,,,,,,,,,,,,,,
,,,,,,,,,6150e088de5e18243a46222c,Castellano,13 or older,"no, only English or Spanish",no,2025-08-12_14h18.06.972,empathy_intonation_perc,2024.2.4,Win32,144.9275362,6150e088de5e18243a46222c,687ed1b7e638a4cbf2f02089,689b84d8bc9bc270ae50e56c,,,,,,,,,,,,,,1,,,,,,,,,,,,,,,,,,,,,,,,,,,,,,,,,,,,,,,,,,,,531.0266,532.1025,1,1,0.559,,532.1026,533.1025,0,9,9,9,1,0,casa,REAL,FAKE,,,,,,,,,,,,,,,,,,,,,,,,,,,,,,,,
,,,,,,,,,6150e088de5e18243a46222c,Castellano,13 or older,"no, only English or Spanish",no,2025-08-12_14h18.06.972,empathy_intonation_perc,2024.2.4,Win32,144.9275362,6150e088de5e18243a46222c,687ed1b7e638a4cbf2f02089,689b84d8bc9bc270ae50e56c,,,,,,,,,,,,,,0,,,,,,,,,,,,,,,,,,,,,,,,,,,,,,,,,,,,,,,,,,,,533.1029,534.2761,0,1,0.6534,,534.2762,535.2762,0,10,10,10,1,0,lejo,REAL,FAKE,,,,,,,,,,,,,,,,,,,,,,,,,,,,,,,,
,,,,,,,,,6150e088de5e18243a46222c,Castellano,13 or older,"no, only English or Spanish",no,2025-08-12_14h18.06.972,empathy_intonation_perc,2024.2.4,Win32,144.9275362,6150e088de5e18243a46222c,687ed1b7e638a4cbf2f02089,689b84d8bc9bc270ae50e56c,,,,,,,,,,,,,,0,,,,,,,,,,,,,,,,,,,,,,,,,,,,,,,,,,,,,,,,,,,,535.2766,536.4853,0,1,0.694,,536.4853,537.4846,0,11,11,11,1,0,pretantas,REAL,FAKE,,,,,,,,,,,,,,,,,,,,,,,,,,,,,,,,
,,,,,,,,,6150e088de5e18243a46222c,Castellano,13 or older,"no, only English or Spanish",no,2025-08-12_14h18.06.972,empathy_intonation_perc,2024.2.4,Win32,144.9275362,6150e088de5e18243a46222c,687ed1b7e638a4cbf2f02089,689b84d8bc9bc270ae50e56c,,,,,,,,,,,,,,,,,,,,,,,,,,,,,,,,,,,,,,,,,,,,,,,,,,,,,,,,,,,,,,,,,,,,,,,,,,,537.4847,560.3115,,,,,,,,,,,,,,,,,,,,,,,,,,,,,,
,,,,,,,,,6150e088de5e18243a46222c,Castellano,13 or older,"no, only English or Spanish",no,2025-08-12_14h18.06.972,empathy_intonation_perc,2024.2.4,Win32,144.9275362,6150e088de5e18243a46222c,687ed1b7e638a4cbf2f02089,689b84d8bc9bc270ae50e56c,,,,,,,,,,,,,,1,,,,,,,,,,,,,,,,,,,,,,,,,,,,,,,,,,,,,,,,,,,,,,,,,,,,,,,,,55,nevar,,,,,560.3194,561.6865,1,1,0.8484,,0,0,0,54,1,REAL,FAKE,,,,,,,,,,,,,,,,,
,,,,,,,,,6150e088de5e18243a46222c,Castellano,13 or older,"no, only English or Spanish",no,2025-08-12_14h18.06.972,empathy_intonation_perc,2024.2.4,Win32,144.9275362,6150e088de5e18243a46222c,687ed1b7e638a4cbf2f02089,689b84d8bc9bc270ae50e56c,,,,,,,,,,,,,,1,,,,,,,,,,,,,,,,,,,,,,,,,,,,,,,,,,,,,,,,,,,,,,,,,,,,,,,,,83,guante,,,,,561.687,562.985,0,0,0.7796,,0,1,1,82,1,REAL,FAKE,,,,,,,,,,,,,,,,,
,,,,,,,,,6150e088de5e18243a46222c,Castellano,13 or older,"no, only English or Spanish",no,2025-08-12_14h18.06.972,empathy_intonation_perc,2024.2.4,Win32,144.9275362,6150e088de5e18243a46222c,687ed1b7e638a4cbf2f02089,689b84d8bc9bc270ae50e56c,,,,,,,,,,,,,,1,,,,,,,,,,,,,,,,,,,,,,,,,,,,,,,,,,,,,,,,,,,,,,,,,,,,,,,,,90,clavel,,,,,562.9855,564.235,0,0,0.7299,,0,2,2,89,1,REAL,FAKE,,,,,,,,,,,,,,,,,
,,,,,,,,,6150e088de5e18243a46222c,Castellano,13 or older,"no, only English or Spanish",no,2025-08-12_14h18.06.972,empathy_intonation_perc,2024.2.4,Win32,144.9275362,6150e088de5e18243a46222c,687ed1b7e638a4cbf2f02089,689b84d8bc9bc270ae50e56c,,,,,,,,,,,,,,1,,,,,,,,,,,,,,,,,,,,,,,,,,,,,,,,,,,,,,,,,,,,,,,,,,,,,,,,,36,loro,,,,,564.2354,565.617,1,1,0.8651,,0,3,3,35,1,REAL,FAKE,,,,,,,,,,,,,,,,,
,,,,,,,,,6150e088de5e18243a46222c,Castellano,13 or older,"no, only English or Spanish",no,2025-08-12_14h18.06.972,empathy_intonation_perc,2024.2.4,Win32,144.9275362,6150e088de5e18243a46222c,687ed1b7e638a4cbf2f02089,689b84d8bc9bc270ae50e56c,,,,,,,,,,,,,,1,,,,,,,,,,,,,,,,,,,,,,,,,,,,,,,,,,,,,,,,,,,,,,,,,,,,,,,,,22,lacayo,,,,,565.6174,566.7142,0,0,0.581,,0,4,4,21,1,REAL,FAKE,,,,,,,,,,,,,,,,,
,,,,,,,,,6150e088de5e18243a46222c,Castellano,13 or older,"no, only English or Spanish",no,2025-08-12_14h18.06.972,empathy_intonation_perc,2024.2.4,Win32,144.9275362,6150e088de5e18243a46222c,687ed1b7e638a4cbf2f02089,689b84d8bc9bc270ae50e56c,,,,,,,,,,,,,,0,,,,,,,,,,,,,,,,,,,,,,,,,,,,,,,,,,,,,,,,,,,,,,,,,,,,,,,,,79,tropaje,,,,,566.7146,568.2421,0,1,1.0109,,0,5,5,78,1,REAL,FAKE,,,,,,,,,,,,,,,,,
,,,,,,,,,6150e088de5e18243a46222c,Castellano,13 or older,"no, only English or Spanish",no,2025-08-12_14h18.06.972,empathy_intonation_perc,2024.2.4,Win32,144.9275362,6150e088de5e18243a46222c,687ed1b7e638a4cbf2f02089,689b84d8bc9bc270ae50e56c,,,,,,,,,,,,,,0,,,,,,,,,,,,,,,,,,,,,,,,,,,,,,,,,,,,,,,,,,,,,,,,,,,,,,,,,82,empirador,,,,,568.2425,569.7073,1,0,0.946,,0,6,6,81,1,REAL,FAKE,,,,,,,,,,,,,,,,,
,,,,,,,,,6150e088de5e18243a46222c,Castellano,13 or older,"no, only English or Spanish",no,2025-08-12_14h18.06.972,empathy_intonation_perc,2024.2.4,Win32,144.9275362,6150e088de5e18243a46222c,687ed1b7e638a4cbf2f02089,689b84d8bc9bc270ae50e56c,,,,,,,,,,,,,,0,,,,,,,,,,,,,,,,,,,,,,,,,,,,,,,,,,,,,,,,,,,,,,,,,,,,,,,,,32,fatacidad,,,,,569.7077,571.0268,0,1,0.8029,,0,7,7,31,1,REAL,FAKE,,,,,,,,,,,,,,,,,
,,,,,,,,,6150e088de5e18243a46222c,Castellano,13 or older,"no, only English or Spanish",no,2025-08-12_14h18.06.972,empathy_intonation_perc,2024.2.4,Win32,144.9275362,6150e088de5e18243a46222c,687ed1b7e638a4cbf2f02089,689b84d8bc9bc270ae50e56c,,,,,,,,,,,,,,1,,,,,,,,,,,,,,,,,,,,,,,,,,,,,,,,,,,,,,,,,,,,,,,,,,,,,,,,,2,pellizcar,,,,,571.0273,572.3949,1,1,0.8514,,0,8,8,1,1,REAL,FAKE,,,,,,,,,,,,,,,,,
,,,,,,,,,6150e088de5e18243a46222c,Castellano,13 or older,"no, only English or Spanish",no,2025-08-12_14h18.06.972,empathy_intonation_perc,2024.2.4,Win32,144.9275362,6150e088de5e18243a46222c,687ed1b7e638a4cbf2f02089,689b84d8bc9bc270ae50e56c,,,,,,,,,,,,,,1,,,,,,,,,,,,,,,,,,,,,,,,,,,,,,,,,,,,,,,,,,,,,,,,,,,,,,,,,81,pozo,,,,,572.3954,573.506,0,0,0.5951,,0,9,9,80,1,REAL,FAKE,,,,,,,,,,,,,,,,,
,,,,,,,,,6150e088de5e18243a46222c,Castellano,13 or older,"no, only English or Spanish",no,2025-08-12_14h18.06.972,empathy_intonation_perc,2024.2.4,Win32,144.9275362,6150e088de5e18243a46222c,687ed1b7e638a4cbf2f02089,689b84d8bc9bc270ae50e56c,,,,,,,,,,,,,,0,,,,,,,,,,,,,,,,,,,,,,,,,,,,,,,,,,,,,,,,,,,,,,,,,,,,,,,,,19,brecedad,,,,,573.5065,574.5546,0,1,0.5331,,0,10,10,18,1,REAL,FAKE,,,,,,,,,,,,,,,,,
,,,,,,,,,6150e088de5e18243a46222c,Castellano,13 or older,"no, only English or Spanish",no,2025-08-12_14h18.06.972,empathy_intonation_perc,2024.2.4,Win32,144.9275362,6150e088de5e18243a46222c,687ed1b7e638a4cbf2f02089,689b84d8bc9bc270ae50e56c,,,,,,,,,,,,,,1,,,,,,,,,,,,,,,,,,,,,,,,,,,,,,,,,,,,,,,,,,,,,,,,,,,,,,,,,73,hervidor,,,,,574.5551,576.013,0,0,0.9383,,0,11,11,72,1,REAL,FAKE,,,,,,,,,,,,,,,,,
,,,,,,,,,6150e088de5e18243a46222c,Castellano,13 or older,"no, only English or Spanish",no,2025-08-12_14h18.06.972,empathy_intonation_perc,2024.2.4,Win32,144.9275362,6150e088de5e18243a46222c,687ed1b7e638a4cbf2f02089,689b84d8bc9bc270ae50e56c,,,,,,,,,,,,,,0,,,,,,,,,,,,,,,,,,,,,,,,,,,,,,,,,,,,,,,,,,,,,,,,,,,,,,,,,63,esposante,,,,,576.0134,577.4228,1,0,0.8895,,0,12,12,62,1,REAL,FAKE,,,,,,,,,,,,,,,,,
,,,,,,,,,6150e088de5e18243a46222c,Castellano,13 or older,"no, only English or Spanish",no,2025-08-12_14h18.06.972,empathy_intonation_perc,2024.2.4,Win32,144.9275362,6150e088de5e18243a46222c,687ed1b7e638a4cbf2f02089,689b84d8bc9bc270ae50e56c,,,,,,,,,,,,,,1,,,,,,,,,,,,,,,,,,,,,,,,,,,,,,,,,,,,,,,,,,,,,,,,,,,,,,,,,91,click the 1 key.,,,,,577.4233,579.2912,1,1,1.3533,,0,13,13,90,1,REAL,FAKE,,,,,,,,,,,,,,,,,
,,,,,,,,,6150e088de5e18243a46222c,Castellano,13 or older,"no, only English or Spanish",no,2025-08-12_14h18.06.972,empathy_intonation_perc,2024.2.4,Win32,144.9275362,6150e088de5e18243a46222c,687ed1b7e638a4cbf2f02089,689b84d8bc9bc270ae50e56c,,,,,,,,,,,,,,0,,,,,,,,,,,,,,,,,,,,,,,,,,,,,,,,,,,,,,,,,,,,,,,,,,,,,,,,,16,abracer,,,,,579.2917,581.9228,0,1,2.115,,0,14,14,15,1,REAL,FAKE,,,,,,,,,,,,,,,,,
,,,,,,,,,6150e088de5e18243a46222c,Castellano,13 or older,"no, only English or Spanish",no,2025-08-12_14h18.06.972,empathy_intonation_perc,2024.2.4,Win32,144.9275362,6150e088de5e18243a46222c,687ed1b7e638a4cbf2f02089,689b84d8bc9bc270ae50e56c,,,,,,,,,,,,,,1,,,,,,,,,,,,,,,,,,,,,,,,,,,,,,,,,,,,,,,,,,,,,,,,,,,,,,,,,62,flaco,,,,,581.9232,584.118,0,0,1.6799,,0,15,15,61,1,REAL,FAKE,,,,,,,,,,,,,,,,,
,,,,,,,,,6150e088de5e18243a46222c,Castellano,13 or older,"no, only English or Spanish",no,2025-08-12_14h18.06.972,empathy_intonation_perc,2024.2.4,Win32,144.9275362,6150e088de5e18243a46222c,687ed1b7e638a4cbf2f02089,689b84d8bc9bc270ae50e56c,,,,,,,,,,,,,,0,,,,,,,,,,,,,,,,,,,,,,,,,,,,,,,,,,,,,,,,,,,,,,,,,,,,,,,,,30,alardio,,,,,584.1185,585.194,0,1,0.5615,,0,16,16,29,1,REAL,FAKE,,,,,,,,,,,,,,,,,
,,,,,,,,,6150e088de5e18243a46222c,Castellano,13 or older,"no, only English or Spanish",no,2025-08-12_14h18.06.972,empathy_intonation_perc,2024.2.4,Win32,144.9275362,6150e088de5e18243a46222c,687ed1b7e638a4cbf2f02089,689b84d8bc9bc270ae50e56c,,,,,,,,,,,,,,1,,,,,,,,,,,,,,,,,,,,,,,,,,,,,,,,,,,,,,,,,,,,,,,,,,,,,,,,,39,torpe,,,,,585.1943,586.4439,0,0,0.7341,,0,17,17,38,1,REAL,FAKE,,,,,,,,,,,,,,,,,
,,,,,,,,,6150e088de5e18243a46222c,Castellano,13 or older,"no, only English or Spanish",no,2025-08-12_14h18.06.972,empathy_intonation_perc,2024.2.4,Win32,144.9275362,6150e088de5e18243a46222c,687ed1b7e638a4cbf2f02089,689b84d8bc9bc270ae50e56c,,,,,,,,,,,,,,1,,,,,,,,,,,,,,,,,,,,,,,,,,,,,,,,,,,,,,,,,,,,,,,,,,,,,,,,,12,asesinato,,,,,586.4443,588.0896,0,0,1.125,,0,18,18,11,1,REAL,FAKE,,,,,,,,,,,,,,,,,
,,,,,,,,,6150e088de5e18243a46222c,Castellano,13 or older,"no, only English or Spanish",no,2025-08-12_14h18.06.972,empathy_intonation_perc,2024.2.4,Win32,144.9275362,6150e088de5e18243a46222c,687ed1b7e638a4cbf2f02089,689b84d8bc9bc270ae50e56c,,,,,,,,,,,,,,1,,,,,,,,,,,,,,,,,,,,,,,,,,,,,,,,,,,,,,,,,,,,,,,,,,,,,,,,,25,bisagra,,,,,588.0901,589.166,0,0,0.5599,,0,19,19,24,1,REAL,FAKE,,,,,,,,,,,,,,,,,
,,,,,,,,,6150e088de5e18243a46222c,Castellano,13 or older,"no, only English or Spanish",no,2025-08-12_14h18.06.972,empathy_intonation_perc,2024.2.4,Win32,144.9275362,6150e088de5e18243a46222c,687ed1b7e638a4cbf2f02089,689b84d8bc9bc270ae50e56c,,,,,,,,,,,,,,0,,,,,,,,,,,,,,,,,,,,,,,,,,,,,,,,,,,,,,,,,,,,,,,,,,,,,,,,,70,temblo,,,,,589.1664,591.048,0,1,1.3653,,0,20,20,69,1,REAL,FAKE,,,,,,,,,,,,,,,,,
,,,,,,,,,6150e088de5e18243a46222c,Castellano,13 or older,"no, only English or Spanish",no,2025-08-12_14h18.06.972,empathy_intonation_perc,2024.2.4,Win32,144.9275362,6150e088de5e18243a46222c,687ed1b7e638a4cbf2f02089,689b84d8bc9bc270ae50e56c,,,,,,,,,,,,,,0,,,,,,,,,,,,,,,,,,,,,,,,,,,,,,,,,,,,,,,,,,,,,,,,,,,,,,,,,1,terzo,,,,,591.0483,592.1244,0,1,0.5599,,0,21,21,0,1,REAL,FAKE,,,,,,,,,,,,,,,,,
,,,,,,,,,6150e088de5e18243a46222c,Castellano,13 or older,"no, only English or Spanish",no,2025-08-12_14h18.06.972,empathy_intonation_perc,2024.2.4,Win32,144.9275362,6150e088de5e18243a46222c,687ed1b7e638a4cbf2f02089,689b84d8bc9bc270ae50e56c,,,,,,,,,,,,,,0,,,,,,,,,,,,,,,,,,,,,,,,,,,,,,,,,,,,,,,,,,,,,,,,,,,,,,,,,35,rompido,,,,,592.1247,593.6037,1,0,0.9592,,0,22,22,34,1,REAL,FAKE,,,,,,,,,,,,,,,,,
,,,,,,,,,6150e088de5e18243a46222c,Castellano,13 or older,"no, only English or Spanish",no,2025-08-12_14h18.06.972,empathy_intonation_perc,2024.2.4,Win32,144.9275362,6150e088de5e18243a46222c,687ed1b7e638a4cbf2f02089,689b84d8bc9bc270ae50e56c,,,,,,,,,,,,,,1,,,,,,,,,,,,,,,,,,,,,,,,,,,,,,,,,,,,,,,,,,,,,,,,,,,,,,,,,6,tergiversar,,,,,593.604,594.812,0,0,0.6882,,0,23,23,5,1,REAL,FAKE,,,,,,,,,,,,,,,,,
,,,,,,,,,6150e088de5e18243a46222c,Castellano,13 or older,"no, only English or Spanish",no,2025-08-12_14h18.06.972,empathy_intonation_perc,2024.2.4,Win32,144.9275362,6150e088de5e18243a46222c,687ed1b7e638a4cbf2f02089,689b84d8bc9bc270ae50e56c,,,,,,,,,,,,,,0,,,,,,,,,,,,,,,,,,,,,,,,,,,,,,,,,,,,,,,,,,,,,,,,,,,,,,,,,29,decar,,,,,594.8125,596.9023,0,1,1.5705,,0,24,24,28,1,REAL,FAKE,,,,,,,,,,,,,,,,,
,,,,,,,,,6150e088de5e18243a46222c,Castellano,13 or older,"no, only English or Spanish",no,2025-08-12_14h18.06.972,empathy_intonation_perc,2024.2.4,Win32,144.9275362,6150e088de5e18243a46222c,687ed1b7e638a4cbf2f02089,689b84d8bc9bc270ae50e56c,,,,,,,,,,,,,,0,,,,,,,,,,,,,,,,,,,,,,,,,,,,,,,,,,,,,,,,,,,,,,,,,,,,,,,,,53,vegada,,,,,596.9027,598.0481,0,1,0.629,,0,25,25,52,1,REAL,FAKE,,,,,,,,,,,,,,,,,
,,,,,,,,,6150e088de5e18243a46222c,Castellano,13 or older,"no, only English or Spanish",no,2025-08-12_14h18.06.972,empathy_intonation_perc,2024.2.4,Win32,144.9275362,6150e088de5e18243a46222c,687ed1b7e638a4cbf2f02089,689b84d8bc9bc270ae50e56c,,,,,,,,,,,,,,1,,,,,,,,,,,,,,,,,,,,,,,,,,,,,,,,,,,,,,,,,,,,,,,,,,,,,,,,,56,musgo,,,,,598.0485,599.1036,0,0,0.5359,,0,26,26,55,1,REAL,FAKE,,,,,,,,,,,,,,,,,
,,,,,,,,,6150e088de5e18243a46222c,Castellano,13 or older,"no, only English or Spanish",no,2025-08-12_14h18.06.972,empathy_intonation_perc,2024.2.4,Win32,144.9275362,6150e088de5e18243a46222c,687ed1b7e638a4cbf2f02089,689b84d8bc9bc270ae50e56c,,,,,,,,,,,,,,1,,,,,,,,,,,,,,,,,,,,,,,,,,,,,,,,,,,,,,,,,,,,,,,,,,,,,,,,,15,regar,,,,,599.1041,600.2912,1,1,0.6703,,0,27,27,14,1,REAL,FAKE,,,,,,,,,,,,,,,,,
,,,,,,,,,6150e088de5e18243a46222c,Castellano,13 or older,"no, only English or Spanish",no,2025-08-12_14h18.06.972,empathy_intonation_perc,2024.2.4,Win32,144.9275362,6150e088de5e18243a46222c,687ed1b7e638a4cbf2f02089,689b84d8bc9bc270ae50e56c,,,,,,,,,,,,,,0,,,,,,,,,,,,,,,,,,,,,,,,,,,,,,,,,,,,,,,,,,,,,,,,,,,,,,,,,66,hacido,,,,,600.2916,601.5691,1,0,0.759,,0,28,28,65,1,REAL,FAKE,,,,,,,,,,,,,,,,,
,,,,,,,,,6150e088de5e18243a46222c,Castellano,13 or older,"no, only English or Spanish",no,2025-08-12_14h18.06.972,empathy_intonation_perc,2024.2.4,Win32,144.9275362,6150e088de5e18243a46222c,687ed1b7e638a4cbf2f02089,689b84d8bc9bc270ae50e56c,,,,,,,,,,,,,,1,,,,,,,,,,,,,,,,,,,,,,,,,,,,,,,,,,,,,,,,,,,,,,,,,,,,,,,,,60,matar,,,,,601.5695,602.7565,1,1,0.6712,,0,29,29,59,1,REAL,FAKE,,,,,,,,,,,,,,,,,
,,,,,,,,,6150e088de5e18243a46222c,Castellano,13 or older,"no, only English or Spanish",no,2025-08-12_14h18.06.972,empathy_intonation_perc,2024.2.4,Win32,144.9275362,6150e088de5e18243a46222c,687ed1b7e638a4cbf2f02089,689b84d8bc9bc270ae50e56c,,,,,,,,,,,,,,0,,,,,,,,,,,,,,,,,,,,,,,,,,,,,,,,,,,,,,,,,,,,,,,,,,,,,,,,,58,plaudir,,,,,602.757,603.826,0,1,0.5497,,0,30,30,57,1,REAL,FAKE,,,,,,,,,,,,,,,,,
,,,,,,,,,6150e088de5e18243a46222c,Castellano,13 or older,"no, only English or Spanish",no,2025-08-12_14h18.06.972,empathy_intonation_perc,2024.2.4,Win32,144.9275362,6150e088de5e18243a46222c,687ed1b7e638a4cbf2f02089,689b84d8bc9bc270ae50e56c,,,,,,,,,,,,,,1,,,,,,,,,,,,,,,,,,,,,,,,,,,,,,,,,,,,,,,,,,,,,,,,,,,,,,,,,20,ávido,,,,,603.8266,605.3122,0,0,0.9661,,0,31,31,19,1,REAL,FAKE,,,,,,,,,,,,,,,,,
,,,,,,,,,6150e088de5e18243a46222c,Castellano,13 or older,"no, only English or Spanish",no,2025-08-12_14h18.06.972,empathy_intonation_perc,2024.2.4,Win32,144.9275362,6150e088de5e18243a46222c,687ed1b7e638a4cbf2f02089,689b84d8bc9bc270ae50e56c,,,,,,,,,,,,,,1,,,,,,,,,,,,,,,,,,,,,,,,,,,,,,,,,,,,,,,,,,,,,,,,,,,,,,,,,43,canela,,,,,605.3126,606.5066,0,0,0.6787,,0,32,32,42,1,REAL,FAKE,,,,,,,,,,,,,,,,,
,,,,,,,,,6150e088de5e18243a46222c,Castellano,13 or older,"no, only English or Spanish",no,2025-08-12_14h18.06.972,empathy_intonation_perc,2024.2.4,Win32,144.9275362,6150e088de5e18243a46222c,687ed1b7e638a4cbf2f02089,689b84d8bc9bc270ae50e56c,,,,,,,,,,,,,,1,,,,,,,,,,,,,,,,,,,,,,,,,,,,,,,,,,,,,,,,,,,,,,,,,,,,,,,,,54,fomentar,,,,,606.5069,607.7011,0,0,0.6744,,0,33,33,53,1,REAL,FAKE,,,,,,,,,,,,,,,,,
,,,,,,,,,6150e088de5e18243a46222c,Castellano,13 or older,"no, only English or Spanish",no,2025-08-12_14h18.06.972,empathy_intonation_perc,2024.2.4,Win32,144.9275362,6150e088de5e18243a46222c,687ed1b7e638a4cbf2f02089,689b84d8bc9bc270ae50e56c,,,,,,,,,,,,,,1,,,,,,,,,,,,,,,,,,,,,,,,,,,,,,,,,,,,,,,,,,,,,,,,,,,,,,,,,86,barato,,,,,607.7015,608.7636,0,0,0.5425,,0,34,34,85,1,REAL,FAKE,,,,,,,,,,,,,,,,,
,,,,,,,,,6150e088de5e18243a46222c,Castellano,13 or older,"no, only English or Spanish",no,2025-08-12_14h18.06.972,empathy_intonation_perc,2024.2.4,Win32,144.9275362,6150e088de5e18243a46222c,687ed1b7e638a4cbf2f02089,689b84d8bc9bc270ae50e56c,,,,,,,,,,,,,,1,,,,,,,,,,,,,,,,,,,,,,,,,,,,,,,,,,,,,,,,,,,,,,,,,,,,,,,,,44,cuchara,,,,,608.764,609.8608,0,0,0.5774,,0,35,35,43,1,REAL,FAKE,,,,,,,,,,,,,,,,,
,,,,,,,,,6150e088de5e18243a46222c,Castellano,13 or older,"no, only English or Spanish",no,2025-08-12_14h18.06.972,empathy_intonation_perc,2024.2.4,Win32,144.9275362,6150e088de5e18243a46222c,687ed1b7e638a4cbf2f02089,689b84d8bc9bc270ae50e56c,,,,,,,,,,,,,,1,,,,,,,,,,,,,,,,,,,,,,,,,,,,,,,,,,,,,,,,,,,,,,,,,,,,,,,,,46,martillo,,,,,609.8613,610.9719,1,1,0.5911,,0,36,36,45,1,REAL,FAKE,,,,,,,,,,,,,,,,,
,,,,,,,,,6150e088de5e18243a46222c,Castellano,13 or older,"no, only English or Spanish",no,2025-08-12_14h18.06.972,empathy_intonation_perc,2024.2.4,Win32,144.9275362,6150e088de5e18243a46222c,687ed1b7e638a4cbf2f02089,689b84d8bc9bc270ae50e56c,,,,,,,,,,,,,,0,,,,,,,,,,,,,,,,,,,,,,,,,,,,,,,,,,,,,,,,,,,,,,,,,,,,,,,,,8,cadeña,,,,,610.9726,612.5901,0,1,1.1,,0,37,37,7,1,REAL,FAKE,,,,,,,,,,,,,,,,,
,,,,,,,,,6150e088de5e18243a46222c,Castellano,13 or older,"no, only English or Spanish",no,2025-08-12_14h18.06.972,empathy_intonation_perc,2024.2.4,Win32,144.9275362,6150e088de5e18243a46222c,687ed1b7e638a4cbf2f02089,689b84d8bc9bc270ae50e56c,,,,,,,,,,,,,,0,,,,,,,,,,,,,,,,,,,,,,,,,,,,,,,,,,,,,,,,,,,,,,,,,,,,,,,,,47,cartinar,,,,,612.5904,613.7852,1,0,0.6799,,0,38,38,46,1,REAL,FAKE,,,,,,,,,,,,,,,,,
,,,,,,,,,6150e088de5e18243a46222c,Castellano,13 or older,"no, only English or Spanish",no,2025-08-12_14h18.06.972,empathy_intonation_perc,2024.2.4,Win32,144.9275362,6150e088de5e18243a46222c,687ed1b7e638a4cbf2f02089,689b84d8bc9bc270ae50e56c,,,,,,,,,,,,,,1,,,,,,,,,,,,,,,,,,,,,,,,,,,,,,,,,,,,,,,,,,,,,,,,,,,,,,,,,14,yunque,,,,,613.7858,614.8401,0,0,0.5394,,0,39,39,13,1,REAL,FAKE,,,,,,,,,,,,,,,,,
,,,,,,,,,6150e088de5e18243a46222c,Castellano,13 or older,"no, only English or Spanish",no,2025-08-12_14h18.06.972,empathy_intonation_perc,2024.2.4,Win32,144.9275362,6150e088de5e18243a46222c,687ed1b7e638a4cbf2f02089,689b84d8bc9bc270ae50e56c,,,,,,,,,,,,,,1,,,,,,,,,,,,,,,,,,,,,,,,,,,,,,,,,,,,,,,,,,,,,,,,,,,,,,,,,26,secuestro,,,,,614.8405,617.0138,1,1,1.6535,,0,40,40,25,1,REAL,FAKE,,,,,,,,,,,,,,,,,
,,,,,,,,,6150e088de5e18243a46222c,Castellano,13 or older,"no, only English or Spanish",no,2025-08-12_14h18.06.972,empathy_intonation_perc,2024.2.4,Win32,144.9275362,6150e088de5e18243a46222c,687ed1b7e638a4cbf2f02089,689b84d8bc9bc270ae50e56c,,,,,,,,,,,,,,1,,,,,,,,,,,,,,,,,,,,,,,,,,,,,,,,,,,,,,,,,,,,,,,,,,,,,,,,,40,alfombra,,,,,617.0142,618.111,0,0,0.5777,,0,41,41,39,1,REAL,FAKE,,,,,,,,,,,,,,,,,
,,,,,,,,,6150e088de5e18243a46222c,Castellano,13 or older,"no, only English or Spanish",no,2025-08-12_14h18.06.972,empathy_intonation_perc,2024.2.4,Win32,144.9275362,6150e088de5e18243a46222c,687ed1b7e638a4cbf2f02089,689b84d8bc9bc270ae50e56c,,,,,,,,,,,,,,1,,,,,,,,,,,,,,,,,,,,,,,,,,,,,,,,,,,,,,,,,,,,,,,,,,,,,,,,,24,látigo,,,,,618.1113,619.4513,0,0,0.8196,,0,42,42,23,1,REAL,FAKE,,,,,,,,,,,,,,,,,
,,,,,,,,,6150e088de5e18243a46222c,Castellano,13 or older,"no, only English or Spanish",no,2025-08-12_14h18.06.972,empathy_intonation_perc,2024.2.4,Win32,144.9275362,6150e088de5e18243a46222c,687ed1b7e638a4cbf2f02089,689b84d8bc9bc270ae50e56c,,,,,,,,,,,,,,0,,,,,,,,,,,,,,,,,,,,,,,,,,,,,,,,,,,,,,,,,,,,,,,,,,,,,,,,,18,arsa,,,,,619.4518,620.8887,0,1,0.9215,,0,43,43,17,1,REAL,FAKE,,,,,,,,,,,,,,,,,
,,,,,,,,,6150e088de5e18243a46222c,Castellano,13 or older,"no, only English or Spanish",no,2025-08-12_14h18.06.972,empathy_intonation_perc,2024.2.4,Win32,144.9275362,6150e088de5e18243a46222c,687ed1b7e638a4cbf2f02089,689b84d8bc9bc270ae50e56c,,,,,,,,,,,,,,0,,,,,,,,,,,,,,,,,,,,,,,,,,,,,,,,,,,,,,,,,,,,,,,,,,,,,,,,,21,capillo,,,,,620.8891,621.9999,1,0,0.5912,,0,44,44,20,1,REAL,FAKE,,,,,,,,,,,,,,,,,
,,,,,,,,,6150e088de5e18243a46222c,Castellano,13 or older,"no, only English or Spanish",no,2025-08-12_14h18.06.972,empathy_intonation_perc,2024.2.4,Win32,144.9275362,6150e088de5e18243a46222c,687ed1b7e638a4cbf2f02089,689b84d8bc9bc270ae50e56c,,,,,,,,,,,,,,0,,,,,,,,,,,,,,,,,,,,,,,,,,,,,,,,,,,,,,,,,,,,,,,,,,,,,,,,,87,grodo,,,,,622.0004,623.111,0,1,0.5924,,0,45,45,86,1,REAL,FAKE,,,,,,,,,,,,,,,,,
,,,,,,,,,6150e088de5e18243a46222c,Castellano,13 or older,"no, only English or Spanish",no,2025-08-12_14h18.06.972,empathy_intonation_perc,2024.2.4,Win32,144.9275362,6150e088de5e18243a46222c,687ed1b7e638a4cbf2f02089,689b84d8bc9bc270ae50e56c,,,,,,,,,,,,,,1,,,,,,,,,,,,,,,,,,,,,,,,,,,,,,,,,,,,,,,,,,,,,,,,,,,,,,,,,69,engatusar,,,,,623.1115,624.7299,0,0,1.1028,,0,46,46,68,1,REAL,FAKE,,,,,,,,,,,,,,,,,
,,,,,,,,,6150e088de5e18243a46222c,Castellano,13 or older,"no, only English or Spanish",no,2025-08-12_14h18.06.972,empathy_intonation_perc,2024.2.4,Win32,144.9275362,6150e088de5e18243a46222c,687ed1b7e638a4cbf2f02089,689b84d8bc9bc270ae50e56c,,,,,,,,,,,,,,1,,,,,,,,,,,,,,,,,,,,,,,,,,,,,,,,,,,,,,,,,,,,,,,,,,,,,,,,,5,zapato,,,,,624.7304,626.0973,1,1,0.8483,,0,47,47,4,1,REAL,FAKE,,,,,,,,,,,,,,,,,
,,,,,,,,,6150e088de5e18243a46222c,Castellano,13 or older,"no, only English or Spanish",no,2025-08-12_14h18.06.972,empathy_intonation_perc,2024.2.4,Win32,144.9275362,6150e088de5e18243a46222c,687ed1b7e638a4cbf2f02089,689b84d8bc9bc270ae50e56c,,,,,,,,,,,,,,1,,,,,,,,,,,,,,,,,,,,,,,,,,,,,,,,,,,,,,,,,,,,,,,,,,,,,,,,,38,estornudar,,,,,626.0977,627.3264,0,0,0.7109,,0,48,48,37,1,REAL,FAKE,,,,,,,,,,,,,,,,,
,,,,,,,,,6150e088de5e18243a46222c,Castellano,13 or older,"no, only English or Spanish",no,2025-08-12_14h18.06.972,empathy_intonation_perc,2024.2.4,Win32,144.9275362,6150e088de5e18243a46222c,687ed1b7e638a4cbf2f02089,689b84d8bc9bc270ae50e56c,,,,,,,,,,,,,,1,,,,,,,,,,,,,,,,,,,,,,,,,,,,,,,,,,,,,,,,,,,,,,,,,,,,,,,,,61,seda,,,,,627.3269,628.5556,0,0,0.7119,,0,49,49,60,1,REAL,FAKE,,,,,,,,,,,,,,,,,
,,,,,,,,,6150e088de5e18243a46222c,Castellano,13 or older,"no, only English or Spanish",no,2025-08-12_14h18.06.972,empathy_intonation_perc,2024.2.4,Win32,144.9275362,6150e088de5e18243a46222c,687ed1b7e638a4cbf2f02089,689b84d8bc9bc270ae50e56c,,,,,,,,,,,,,,1,,,,,,,,,,,,,,,,,,,,,,,,,,,,,,,,,,,,,,,,,,,,,,,,,,,,,,,,,71,polvoriento,,,,,628.556,629.7223,0,0,0.6496,,0,50,50,70,1,REAL,FAKE,,,,,,,,,,,,,,,,,
,,,,,,,,,6150e088de5e18243a46222c,Castellano,13 or older,"no, only English or Spanish",no,2025-08-12_14h18.06.972,empathy_intonation_perc,2024.2.4,Win32,144.9275362,6150e088de5e18243a46222c,687ed1b7e638a4cbf2f02089,689b84d8bc9bc270ae50e56c,,,,,,,,,,,,,,1,,,,,,,,,,,,,,,,,,,,,,,,,,,,,,,,,,,,,,,,,,,,,,,,,,,,,,,,,85,laúd,,,,,629.723,630.7645,0,0,0.5272,,0,51,51,84,1,REAL,FAKE,,,,,,,,,,,,,,,,,
,,,,,,,,,6150e088de5e18243a46222c,Castellano,13 or older,"no, only English or Spanish",no,2025-08-12_14h18.06.972,empathy_intonation_perc,2024.2.4,Win32,144.9275362,6150e088de5e18243a46222c,687ed1b7e638a4cbf2f02089,689b84d8bc9bc270ae50e56c,,,,,,,,,,,,,,1,,,,,,,,,,,,,,,,,,,,,,,,,,,,,,,,,,,,,,,,,,,,,,,,,,,,,,,,,80,hormiga,,,,,630.765,631.7592,0,0,0.48,,0,52,52,79,1,REAL,FAKE,,,,,,,,,,,,,,,,,
,,,,,,,,,6150e088de5e18243a46222c,Castellano,13 or older,"no, only English or Spanish",no,2025-08-12_14h18.06.972,empathy_intonation_perc,2024.2.4,Win32,144.9275362,6150e088de5e18243a46222c,687ed1b7e638a4cbf2f02089,689b84d8bc9bc270ae50e56c,,,,,,,,,,,,,,1,,,,,,,,,,,,,,,,,,,,,,,,,,,,,,,,,,,,,,,,,,,,,,,,,,,,,,,,,68,alegre,,,,,631.7596,633.0973,0,0,0.8214,,0,53,53,67,1,REAL,FAKE,,,,,,,,,,,,,,,,,
,,,,,,,,,6150e088de5e18243a46222c,Castellano,13 or older,"no, only English or Spanish",no,2025-08-12_14h18.06.972,empathy_intonation_perc,2024.2.4,Win32,144.9275362,6150e088de5e18243a46222c,687ed1b7e638a4cbf2f02089,689b84d8bc9bc270ae50e56c,,,,,,,,,,,,,,1,,,,,,,,,,,,,,,,,,,,,,,,,,,,,,,,,,,,,,,,,,,,,,,,,,,,,,,,,57,tacaño,,,,,633.0978,634.6253,0,0,1.0081,,0,54,54,56,1,REAL,FAKE,,,,,,,,,,,,,,,,,
,,,,,,,,,6150e088de5e18243a46222c,Castellano,13 or older,"no, only English or Spanish",no,2025-08-12_14h18.06.972,empathy_intonation_perc,2024.2.4,Win32,144.9275362,6150e088de5e18243a46222c,687ed1b7e638a4cbf2f02089,689b84d8bc9bc270ae50e56c,,,,,,,,,,,,,,0,,,,,,,,,,,,,,,,,,,,,,,,,,,,,,,,,,,,,,,,,,,,,,,,,,,,,,,,,10,antar,,,,,634.6257,635.9238,1,0,0.779,,0,55,55,9,1,REAL,FAKE,,,,,,,,,,,,,,,,,
,,,,,,,,,6150e088de5e18243a46222c,Castellano,13 or older,"no, only English or Spanish",no,2025-08-12_14h18.06.972,empathy_intonation_perc,2024.2.4,Win32,144.9275362,6150e088de5e18243a46222c,687ed1b7e638a4cbf2f02089,689b84d8bc9bc270ae50e56c,,,,,,,,,,,,,,0,,,,,,,,,,,,,,,,,,,,,,,,,,,,,,,,,,,,,,,,,,,,,,,,,,,,,,,,,17,floroso,,,,,635.9243,637.1391,0,1,0.6973,,0,56,56,16,1,REAL,FAKE,,,,,,,,,,,,,,,,,
,,,,,,,,,6150e088de5e18243a46222c,Castellano,13 or older,"no, only English or Spanish",no,2025-08-12_14h18.06.972,empathy_intonation_perc,2024.2.4,Win32,144.9275362,6150e088de5e18243a46222c,687ed1b7e638a4cbf2f02089,689b84d8bc9bc270ae50e56c,,,,,,,,,,,,,,0,,,,,,,,,,,,,,,,,,,,,,,,,,,,,,,,,,,,,,,,,,,,,,,,,,,,,,,,,27,acutación,,,,,637.1396,638.9654,0,1,1.31,,0,57,57,26,1,REAL,FAKE,,,,,,,,,,,,,,,,,
,,,,,,,,,6150e088de5e18243a46222c,Castellano,13 or older,"no, only English or Spanish",no,2025-08-12_14h18.06.972,empathy_intonation_perc,2024.2.4,Win32,144.9275362,6150e088de5e18243a46222c,687ed1b7e638a4cbf2f02089,689b84d8bc9bc270ae50e56c,,,,,,,,,,,,,,0,,,,,,,,,,,,,,,,,,,,,,,,,,,,,,,,,,,,,,,,,,,,,,,,,,,,,,,,,72,pemición,,,,,638.9659,640.542,1,0,1.0563,,0,58,58,71,1,REAL,FAKE,,,,,,,,,,,,,,,,,
,,,,,,,,,6150e088de5e18243a46222c,Castellano,13 or older,"no, only English or Spanish",no,2025-08-12_14h18.06.972,empathy_intonation_perc,2024.2.4,Win32,144.9275362,6150e088de5e18243a46222c,687ed1b7e638a4cbf2f02089,689b84d8bc9bc270ae50e56c,,,,,,,,,,,,,,1,,,,,,,,,,,,,,,,,,,,,,,,,,,,,,,,,,,,,,,,,,,,,,,,,,,,,,,,,41,rebuscar,,,,,640.5424,641.8128,1,1,0.7508,,0,59,59,40,1,REAL,FAKE,,,,,,,,,,,,,,,,,
,,,,,,,,,6150e088de5e18243a46222c,Castellano,13 or older,"no, only English or Spanish",no,2025-08-12_14h18.06.972,empathy_intonation_perc,2024.2.4,Win32,144.9275362,6150e088de5e18243a46222c,687ed1b7e638a4cbf2f02089,689b84d8bc9bc270ae50e56c,,,,,,,,,,,,,,0,,,,,,,,,,,,,,,,,,,,,,,,,,,,,,,,,,,,,,,,,,,,,,,,,,,,,,,,,84,escuto,,,,,641.8133,643.035,0,1,0.706,,0,60,60,83,1,REAL,FAKE,,,,,,,,,,,,,,,,,
,,,,,,,,,6150e088de5e18243a46222c,Castellano,13 or older,"no, only English or Spanish",no,2025-08-12_14h18.06.972,empathy_intonation_perc,2024.2.4,Win32,144.9275362,6150e088de5e18243a46222c,687ed1b7e638a4cbf2f02089,689b84d8bc9bc270ae50e56c,,,,,,,,,,,,,,1,,,,,,,,,,,,,,,,,,,,,,,,,,,,,,,,,,,,,,,,,,,,,,,,,,,,,,,,,64,orgulloso,,,,,643.0354,644.2433,0,0,0.6908,,0,61,61,63,1,REAL,FAKE,,,,,,,,,,,,,,,,,
,,,,,,,,,6150e088de5e18243a46222c,Castellano,13 or older,"no, only English or Spanish",no,2025-08-12_14h18.06.972,empathy_intonation_perc,2024.2.4,Win32,144.9275362,6150e088de5e18243a46222c,687ed1b7e638a4cbf2f02089,689b84d8bc9bc270ae50e56c,,,,,,,,,,,,,,1,,,,,,,,,,,,,,,,,,,,,,,,,,,,,,,,,,,,,,,,,,,,,,,,,,,,,,,,,48,ladrón,,,,,644.2439,645.7018,0,0,0.9374,,0,62,62,47,1,REAL,FAKE,,,,,,,,,,,,,,,,,
,,,,,,,,,6150e088de5e18243a46222c,Castellano,13 or older,"no, only English or Spanish",no,2025-08-12_14h18.06.972,empathy_intonation_perc,2024.2.4,Win32,144.9275362,6150e088de5e18243a46222c,687ed1b7e638a4cbf2f02089,689b84d8bc9bc270ae50e56c,,,,,,,,,,,,,,1,,,,,,,,,,,,,,,,,,,,,,,,,,,,,,,,,,,,,,,,,,,,,,,,,,,,,,,,,11,cenefa,,,,,645.7022,646.7583,0,0,0.5413,,0,63,63,10,1,REAL,FAKE,,,,,,,,,,,,,,,,,
,,,,,,,,,6150e088de5e18243a46222c,Castellano,13 or older,"no, only English or Spanish",no,2025-08-12_14h18.06.972,empathy_intonation_perc,2024.2.4,Win32,144.9275362,6150e088de5e18243a46222c,687ed1b7e638a4cbf2f02089,689b84d8bc9bc270ae50e56c,,,,,,,,,,,,,,1,,,,,,,,,,,,,,,,,,,,,,,,,,,,,,,,,,,,,,,,,,,,,,,,,,,,,,,,,77,tiburón,,,,,646.7589,647.9795,0,0,0.7024,,0,64,64,76,1,REAL,FAKE,,,,,,,,,,,,,,,,,
,,,,,,,,,6150e088de5e18243a46222c,Castellano,13 or older,"no, only English or Spanish",no,2025-08-12_14h18.06.972,empathy_intonation_perc,2024.2.4,Win32,144.9275362,6150e088de5e18243a46222c,687ed1b7e638a4cbf2f02089,689b84d8bc9bc270ae50e56c,,,,,,,,,,,,,,0,,,,,,,,,,,,,,,,,,,,,,,,,,,,,,,,,,,,,,,,,,,,,,,,,,,,,,,,,33,pauca,,,,,647.98,648.9796,0,1,0.4821,,0,65,65,32,1,REAL,FAKE,,,,,,,,,,,,,,,,,
,,,,,,,,,6150e088de5e18243a46222c,Castellano,13 or older,"no, only English or Spanish",no,2025-08-12_14h18.06.972,empathy_intonation_perc,2024.2.4,Win32,144.9275362,6150e088de5e18243a46222c,687ed1b7e638a4cbf2f02089,689b84d8bc9bc270ae50e56c,,,,,,,,,,,,,,1,,,,,,,,,,,,,,,,,,,,,,,,,,,,,,,,,,,,,,,,,,,,,,,,,,,,,,,,,34,aviso,,,,,648.98,650.5838,1,1,1.0871,,0,66,66,33,1,REAL,FAKE,,,,,,,,,,,,,,,,,
,,,,,,,,,6150e088de5e18243a46222c,Castellano,13 or older,"no, only English or Spanish",no,2025-08-12_14h18.06.972,empathy_intonation_perc,2024.2.4,Win32,144.9275362,6150e088de5e18243a46222c,687ed1b7e638a4cbf2f02089,689b84d8bc9bc270ae50e56c,,,,,,,,,,,,,,1,,,,,,,,,,,,,,,,,,,,,,,,,,,,,,,,,,,,,,,,,,,,,,,,,,,,,,,,,51,candado,,,,,650.5842,652.0491,0,0,0.9459,,0,67,67,50,1,REAL,FAKE,,,,,,,,,,,,,,,,,
,,,,,,,,,6150e088de5e18243a46222c,Castellano,13 or older,"no, only English or Spanish",no,2025-08-12_14h18.06.972,empathy_intonation_perc,2024.2.4,Win32,144.9275362,6150e088de5e18243a46222c,687ed1b7e638a4cbf2f02089,689b84d8bc9bc270ae50e56c,,,,,,,,,,,,,,1,,,,,,,,,,,,,,,,,,,,,,,,,,,,,,,,,,,,,,,,,,,,,,,,,,,,,,,,,67,cabello,,,,,652.0496,653.3129,1,1,0.7475,,0,68,68,66,1,REAL,FAKE,,,,,,,,,,,,,,,,,
,,,,,,,,,6150e088de5e18243a46222c,Castellano,13 or older,"no, only English or Spanish",no,2025-08-12_14h18.06.972,empathy_intonation_perc,2024.2.4,Win32,144.9275362,6150e088de5e18243a46222c,687ed1b7e638a4cbf2f02089,689b84d8bc9bc270ae50e56c,,,,,,,,,,,,,,1,,,,,,,,,,,,,,,,,,,,,,,,,,,,,,,,,,,,,,,,,,,,,,,,,,,,,,,,,3,pulmones,,,,,653.3133,655.2714,1,1,1.4384,,0,69,69,2,1,REAL,FAKE,,,,,,,,,,,,,,,,,
,,,,,,,,,6150e088de5e18243a46222c,Castellano,13 or older,"no, only English or Spanish",no,2025-08-12_14h18.06.972,empathy_intonation_perc,2024.2.4,Win32,144.9275362,6150e088de5e18243a46222c,687ed1b7e638a4cbf2f02089,689b84d8bc9bc270ae50e56c,,,,,,,,,,,,,,1,,,,,,,,,,,,,,,,,,,,,,,,,,,,,,,,,,,,,,,,,,,,,,,,,,,,,,,,,78,frondoso,,,,,655.2718,656.32,0,0,0.5321,,0,70,70,77,1,REAL,FAKE,,,,,,,,,,,,,,,,,
,,,,,,,,,6150e088de5e18243a46222c,Castellano,13 or older,"no, only English or Spanish",no,2025-08-12_14h18.06.972,empathy_intonation_perc,2024.2.4,Win32,144.9275362,6150e088de5e18243a46222c,687ed1b7e638a4cbf2f02089,689b84d8bc9bc270ae50e56c,,,,,,,,,,,,,,1,,,,,,,,,,,,,,,,,,,,,,,,,,,,,,,,,,,,,,,,,,,,,,,,,,,,,,,,,52,camisa,,,,,656.3203,657.5492,1,1,0.71,,0,71,71,51,1,REAL,FAKE,,,,,,,,,,,,,,,,,
,,,,,,,,,6150e088de5e18243a46222c,Castellano,13 or older,"no, only English or Spanish",no,2025-08-12_14h18.06.972,empathy_intonation_perc,2024.2.4,Win32,144.9275362,6150e088de5e18243a46222c,687ed1b7e638a4cbf2f02089,689b84d8bc9bc270ae50e56c,,,,,,,,,,,,,,1,,,,,,,,,,,,,,,,,,,,,,,,,,,,,,,,,,,,,,,,,,,,,,,,,,,,,,,,,45,jilguero,,,,,657.5496,658.9729,0,0,0.9062,,0,72,72,44,1,REAL,FAKE,,,,,,,,,,,,,,,,,
,,,,,,,,,6150e088de5e18243a46222c,Castellano,13 or older,"no, only English or Spanish",no,2025-08-12_14h18.06.972,empathy_intonation_perc,2024.2.4,Win32,144.9275362,6150e088de5e18243a46222c,687ed1b7e638a4cbf2f02089,689b84d8bc9bc270ae50e56c,,,,,,,,,,,,,,1,,,,,,,,,,,,,,,,,,,,,,,,,,,,,,,,,,,,,,,,,,,,,,,,,,,,,,,,,88,acantilado,,,,,658.9732,660.202,1,1,0.7091,,0,73,73,87,1,REAL,FAKE,,,,,,,,,,,,,,,,,
,,,,,,,,,6150e088de5e18243a46222c,Castellano,13 or older,"no, only English or Spanish",no,2025-08-12_14h18.06.972,empathy_intonation_perc,2024.2.4,Win32,144.9275362,6150e088de5e18243a46222c,687ed1b7e638a4cbf2f02089,689b84d8bc9bc270ae50e56c,,,,,,,,,,,,,,1,,,,,,,,,,,,,,,,,,,,,,,,,,,,,,,,,,,,,,,,,,,,,,,,,,,,,,,,,49,ganar,,,,,660.2025,661.6187,0,0,0.8967,,0,74,74,48,1,REAL,FAKE,,,,,,,,,,,,,,,,,
,,,,,,,,,6150e088de5e18243a46222c,Castellano,13 or older,"no, only English or Spanish",no,2025-08-12_14h18.06.972,empathy_intonation_perc,2024.2.4,Win32,144.9275362,6150e088de5e18243a46222c,687ed1b7e638a4cbf2f02089,689b84d8bc9bc270ae50e56c,,,,,,,,,,,,,,1,,,,,,,,,,,,,,,,,,,,,,,,,,,,,,,,,,,,,,,,,,,,,,,,,,,,,,,,,31,pandilla,,,,,661.6191,662.7854,1,1,0.6508,,0,75,75,30,1,REAL,FAKE,,,,,,,,,,,,,,,,,
,,,,,,,,,6150e088de5e18243a46222c,Castellano,13 or older,"no, only English or Spanish",no,2025-08-12_14h18.06.972,empathy_intonation_perc,2024.2.4,Win32,144.9275362,6150e088de5e18243a46222c,687ed1b7e638a4cbf2f02089,689b84d8bc9bc270ae50e56c,,,,,,,,,,,,,,0,,,,,,,,,,,,,,,,,,,,,,,,,,,,,,,,,,,,,,,,,,,,,,,,,,,,,,,,,42,cadallo,,,,,662.7858,664.3618,0,1,1.0563,,0,76,76,41,1,REAL,FAKE,,,,,,,,,,,,,,,,,
,,,,,,,,,6150e088de5e18243a46222c,Castellano,13 or older,"no, only English or Spanish",no,2025-08-12_14h18.06.972,empathy_intonation_perc,2024.2.4,Win32,144.9275362,6150e088de5e18243a46222c,687ed1b7e638a4cbf2f02089,689b84d8bc9bc270ae50e56c,,,,,,,,,,,,,,1,,,,,,,,,,,,,,,,,,,,,,,,,,,,,,,,,,,,,,,,,,,,,,,,,,,,,,,,,9,hacha,,,,,664.3622,665.7925,1,1,0.9149,,0,77,77,8,1,REAL,FAKE,,,,,,,,,,,,,,,,,
,,,,,,,,,6150e088de5e18243a46222c,Castellano,13 or older,"no, only English or Spanish",no,2025-08-12_14h18.06.972,empathy_intonation_perc,2024.2.4,Win32,144.9275362,6150e088de5e18243a46222c,687ed1b7e638a4cbf2f02089,689b84d8bc9bc270ae50e56c,,,,,,,,,,,,,,0,,,,,,,,,,,,,,,,,,,,,,,,,,,,,,,,,,,,,,,,,,,,,,,,,,,,,,,,,74,cintro,,,,,665.7929,667.5632,0,1,1.2528,,0,78,78,73,1,REAL,FAKE,,,,,,,,,,,,,,,,,
,,,,,,,,,6150e088de5e18243a46222c,Castellano,13 or older,"no, only English or Spanish",no,2025-08-12_14h18.06.972,empathy_intonation_perc,2024.2.4,Win32,144.9275362,6150e088de5e18243a46222c,687ed1b7e638a4cbf2f02089,689b84d8bc9bc270ae50e56c,,,,,,,,,,,,,,1,,,,,,,,,,,,,,,,,,,,,,,,,,,,,,,,,,,,,,,,,,,,,,,,,,,,,,,,,65,bizcocho,,,,,667.5636,669.3618,1,1,1.2817,,0,79,79,64,1,REAL,FAKE,,,,,,,,,,,,,,,,,
,,,,,,,,,6150e088de5e18243a46222c,Castellano,13 or older,"no, only English or Spanish",no,2025-08-12_14h18.06.972,empathy_intonation_perc,2024.2.4,Win32,144.9275362,6150e088de5e18243a46222c,687ed1b7e638a4cbf2f02089,689b84d8bc9bc270ae50e56c,,,,,,,,,,,,,,1,,,,,,,,,,,,,,,,,,,,,,,,,,,,,,,,,,,,,,,,,,,,,,,,,,,,,,,,,28,merodear,,,,,669.3622,671.0911,0,0,1.2169,,0,80,80,27,1,REAL,FAKE,,,,,,,,,,,,,,,,,
,,,,,,,,,6150e088de5e18243a46222c,Castellano,13 or older,"no, only English or Spanish",no,2025-08-12_14h18.06.972,empathy_intonation_perc,2024.2.4,Win32,144.9275362,6150e088de5e18243a46222c,687ed1b7e638a4cbf2f02089,689b84d8bc9bc270ae50e56c,,,,,,,,,,,,,,1,,,,,,,,,,,,,,,,,,,,,,,,,,,,,,,,,,,,,,,,,,,,,,,,,,,,,,,,,37,granuja,,,,,671.0914,672.2231,1,1,0.616,,0,81,81,36,1,REAL,FAKE,,,,,,,,,,,,,,,,,
,,,,,,,,,6150e088de5e18243a46222c,Castellano,13 or older,"no, only English or Spanish",no,2025-08-12_14h18.06.972,empathy_intonation_perc,2024.2.4,Win32,144.9275362,6150e088de5e18243a46222c,687ed1b7e638a4cbf2f02089,689b84d8bc9bc270ae50e56c,,,,,,,,,,,,,,1,,,,,,,,,,,,,,,,,,,,,,,,,,,,,,,,,,,,,,,,,,,,,,,,,,,,,,,,,13,helar,,,,,672.2236,674.1683,0,0,1.43,,0,82,82,12,1,REAL,FAKE,,,,,,,,,,,,,,,,,
,,,,,,,,,6150e088de5e18243a46222c,Castellano,13 or older,"no, only English or Spanish",no,2025-08-12_14h18.06.972,empathy_intonation_perc,2024.2.4,Win32,144.9275362,6150e088de5e18243a46222c,687ed1b7e638a4cbf2f02089,689b84d8bc9bc270ae50e56c,,,,,,,,,,,,,,1,,,,,,,,,,,,,,,,,,,,,,,,,,,,,,,,,,,,,,,,,,,,,,,,,,,,,,,,,76,atar,,,,,674.1686,675.4523,1,1,0.7653,,0,83,83,75,1,REAL,FAKE,,,,,,,,,,,,,,,,,
,,,,,,,,,6150e088de5e18243a46222c,Castellano,13 or older,"no, only English or Spanish",no,2025-08-12_14h18.06.972,empathy_intonation_perc,2024.2.4,Win32,144.9275362,6150e088de5e18243a46222c,687ed1b7e638a4cbf2f02089,689b84d8bc9bc270ae50e56c,,,,,,,,,,,,,,0,,,,,,,,,,,,,,,,,,,,,,,,,,,,,,,,,,,,,,,,,,,,,,,,,,,,,,,,,23,lampera,,,,,675.4527,676.737,1,0,0.7659,,0,84,84,22,1,REAL,FAKE,,,,,,,,,,,,,,,,,
,,,,,,,,,6150e088de5e18243a46222c,Castellano,13 or older,"no, only English or Spanish",no,2025-08-12_14h18.06.972,empathy_intonation_perc,2024.2.4,Win32,144.9275362,6150e088de5e18243a46222c,687ed1b7e638a4cbf2f02089,689b84d8bc9bc270ae50e56c,,,,,,,,,,,,,,0,,,,,,,,,,,,,,,,,,,,,,,,,,,,,,,,,,,,,,,,,,,,,,,,,,,,,,,,,92,click the 0 key.,,,,,676.7375,678.2579,0,1,1.0027,,0,85,85,91,1,REAL,FAKE,,,,,,,,,,,,,,,,,
,,,,,,,,,6150e088de5e18243a46222c,Castellano,13 or older,"no, only English or Spanish",no,2025-08-12_14h18.06.972,empathy_intonation_perc,2024.2.4,Win32,144.9275362,6150e088de5e18243a46222c,687ed1b7e638a4cbf2f02089,689b84d8bc9bc270ae50e56c,,,,,,,,,,,,,,1,,,,,,,,,,,,,,,,,,,,,,,,,,,,,,,,,,,,,,,,,,,,,,,,,,,,,,,,,75,yacer,,,,,678.2583,679.3968,0,0,0.6208,,0,86,86,74,1,REAL,FAKE,,,,,,,,,,,,,,,,,
,,,,,,,,,6150e088de5e18243a46222c,Castellano,13 or older,"no, only English or Spanish",no,2025-08-12_14h18.06.972,empathy_intonation_perc,2024.2.4,Win32,144.9275362,6150e088de5e18243a46222c,687ed1b7e638a4cbf2f02089,689b84d8bc9bc270ae50e56c,,,,,,,,,,,,,,0,,,,,,,,,,,,,,,,,,,,,,,,,,,,,,,,,,,,,,,,,,,,,,,,,,,,,,,,,50,flamida,,,,,679.3971,680.7379,0,1,0.8258,,0,87,87,49,1,REAL,FAKE,,,,,,,,,,,,,,,,,
,,,,,,,,,6150e088de5e18243a46222c,Castellano,13 or older,"no, only English or Spanish",no,2025-08-12_14h18.06.972,empathy_intonation_perc,2024.2.4,Win32,144.9275362,6150e088de5e18243a46222c,687ed1b7e638a4cbf2f02089,689b84d8bc9bc270ae50e56c,,,,,,,,,,,,,,0,,,,,,,,,,,,,,,,,,,,,,,,,,,,,,,,,,,,,,,,,,,,,,,,,,,,,,,,,4,batillón,,,,,680.7382,681.9941,1,0,0.7385,,0,88,88,3,1,REAL,FAKE,,,,,,,,,,,,,,,,,
,,,,,,,,,6150e088de5e18243a46222c,Castellano,13 or older,"no, only English or Spanish",no,2025-08-12_14h18.06.972,empathy_intonation_perc,2024.2.4,Win32,144.9275362,6150e088de5e18243a46222c,687ed1b7e638a4cbf2f02089,689b84d8bc9bc270ae50e56c,,,,,,,,,,,,,,1,,,,,,,,,,,,,,,,,,,,,,,,,,,,,,,,,,,,,,,,,,,,,,,,,,,,,,,,,7,pésimo,,,,,681.9944,683.4947,1,1,0.9845,,0,89,89,6,1,REAL,FAKE,,,,,,,,,,,,,,,,,
,,,,,,,,,6150e088de5e18243a46222c,Castellano,13 or older,"no, only English or Spanish",no,2025-08-12_14h18.06.972,empathy_intonation_perc,2024.2.4,Win32,144.9275362,6150e088de5e18243a46222c,687ed1b7e638a4cbf2f02089,689b84d8bc9bc270ae50e56c,,,,,,,,,,,,,,1,,,,,,,,,,,,,,,,,,,,,,,,,,,,,,,,,,,,,,,,,,,,,,,,,,,,,,,,,89,prisa,,,,,683.4951,684.7028,0,0,0.6927,,0,90,90,88,1,REAL,FAKE,,,,,,,,,,,,,,,,,
,,,,,,,,,6150e088de5e18243a46222c,Castellano,13 or older,"no, only English or Spanish",no,2025-08-12_14h18.06.972,empathy_intonation_perc,2024.2.4,Win32,144.9275362,6150e088de5e18243a46222c,687ed1b7e638a4cbf2f02089,689b84d8bc9bc270ae50e56c,,,,,,,,,,,,,,1,,,,,,,,,,,,,,,,,,,,,,,,,,,,,,,,,,,,,,,,,,,,,,,,,,,,,,,,,59,besar,,,,,684.7031,687.2588,1,1,2.0412,,0,91,91,58,1,REAL,FAKE,,,,,,,,,,,,,,,,,
,,,,,,,,,6150e088de5e18243a46222c,Castellano,13 or older,"no, only English or Spanish",no,2025-08-12_14h18.06.972,empathy_intonation_perc,2024.2.4,Win32,144.9275362,6150e088de5e18243a46222c,687ed1b7e638a4cbf2f02089,689b84d8bc9bc270ae50e56c,,,,,,,,,,,,,,,,,,,,,,,,,,,,,,,,,,,,,,,,,,,,,,,,,,,,,,,,,,,,,,,,,,,,,,,,,,,,,,,,,,,,,,,,,,687.259,692.6687,,,,,,,,,,,,,,,
,,,,,,,,,6150e088de5e18243a46222c,Castellano,13 or older,"no, only English or Spanish",no,2025-08-12_14h18.06.972,empathy_intonation_perc,2024.2.4,Win32,144.9275362,6150e088de5e18243a46222c,687ed1b7e638a4cbf2f02089,689b84d8bc9bc270ae50e56c,,,,,,,,,,,,,1,,,,,,,,,,,,,,,,,,,,,,,,,,,,,,,,,,,,,,,,,,,,,,,,,,,,,,,,,,,,,,,,,,,,,,,,,,,,,,,692.6765,696.0013,slightly agree,0,0,0,0,1,I can easily tell if someone else wants to enter a conversation.,1,0,1,0,,
,,,,,,,,,6150e088de5e18243a46222c,Castellano,13 or older,"no, only English or Spanish",no,2025-08-12_14h18.06.972,empathy_intonation_perc,2024.2.4,Win32,144.9275362,6150e088de5e18243a46222c,687ed1b7e638a4cbf2f02089,689b84d8bc9bc270ae50e56c,,,,,,,,,,,,,2,,,,,,,,,,,,,,,,,,,,,,,,,,,,,,,,,,,,,,,,,,,,,,,,,,,,,,,,,,,,,,,,,,,,,,,,,,,,,,,696.0022,697.9319,slightly agree,0,1,1,1,1,I prefer animals to humans.,0,1,0,0,,
,,,,,,,,,6150e088de5e18243a46222c,Castellano,13 or older,"no, only English or Spanish",no,2025-08-12_14h18.06.972,empathy_intonation_perc,2024.2.4,Win32,144.9275362,6150e088de5e18243a46222c,687ed1b7e638a4cbf2f02089,689b84d8bc9bc270ae50e56c,,,,,,,,,,,,,3,,,,,,,,,,,,,,,,,,,,,,,,,,,,,,,,,,,,,,,,,,,,,,,,,,,,,,,,,,,,,,,,,,,,,,,,,,,,,,,697.9326,699.9319,slightly disagree,0,2,2,2,1,I try to keep up with the current trends and fashions.,0,1,0,0,,
,,,,,,,,,6150e088de5e18243a46222c,Castellano,13 or older,"no, only English or Spanish",no,2025-08-12_14h18.06.972,empathy_intonation_perc,2024.2.4,Win32,144.9275362,6150e088de5e18243a46222c,687ed1b7e638a4cbf2f02089,689b84d8bc9bc270ae50e56c,,,,,,,,,,,,,4,,,,,,,,,,,,,,,,,,,,,,,,,,,,,,,,,,,,,,,,,,,,,,,,,,,,,,,,,,,,,,,,,,,,,,,,,,,,,,,699.9327,702.8208,slightly agree,0,3,3,3,1,"I find it difficult to explain to others things that I understand easily,   when they don't understand it first time.",1,0,0,1,,
,,,,,,,,,6150e088de5e18243a46222c,Castellano,13 or older,"no, only English or Spanish",no,2025-08-12_14h18.06.972,empathy_intonation_perc,2024.2.4,Win32,144.9275362,6150e088de5e18243a46222c,687ed1b7e638a4cbf2f02089,689b84d8bc9bc270ae50e56c,,,,,,,,,,,,,5,,,,,,,,,,,,,,,,,,,,,,,,,,,,,,,,,,,,,,,,,,,,,,,,,,,,,,,,,,,,,,,,,,,,,,,,,,,,,,,702.8212,704.9814,slightly agree,0,4,4,4,1,I dream most nights.,0,1,0,0,,
,,,,,,,,,6150e088de5e18243a46222c,Castellano,13 or older,"no, only English or Spanish",no,2025-08-12_14h18.06.972,empathy_intonation_perc,2024.2.4,Win32,144.9275362,6150e088de5e18243a46222c,687ed1b7e638a4cbf2f02089,689b84d8bc9bc270ae50e56c,,,,,,,,,,,,,6,,,,,,,,,,,,,,,,,,,,,,,,,,,,,,,,,,,,,,,,,,,,,,,,,,,,,,,,,,,,,,,,,,,,,,,,,,,,,,,704.9819,706.3764,strongly agree,0,5,5,5,1,I really enjoy caring for other people.,1,0,1,0,,
,,,,,,,,,6150e088de5e18243a46222c,Castellano,13 or older,"no, only English or Spanish",no,2025-08-12_14h18.06.972,empathy_intonation_perc,2024.2.4,Win32,144.9275362,6150e088de5e18243a46222c,687ed1b7e638a4cbf2f02089,689b84d8bc9bc270ae50e56c,,,,,,,,,,,,,7,,,,,,,,,,,,,,,,,,,,,,,,,,,,,,,,,,,,,,,,,,,,,,,,,,,,,,,,,,,,,,,,,,,,,,,,,,,,,,,706.3771,708.7792,strongly agree,0,6,6,6,1,I try to solve my own problems rather than discussing them with others.,0,1,0,0,,
,,,,,,,,,6150e088de5e18243a46222c,Castellano,13 or older,"no, only English or Spanish",no,2025-08-12_14h18.06.972,empathy_intonation_perc,2024.2.4,Win32,144.9275362,6150e088de5e18243a46222c,687ed1b7e638a4cbf2f02089,689b84d8bc9bc270ae50e56c,,,,,,,,,,,,,8,,,,,,,,,,,,,,,,,,,,,,,,,,,,,,,,,,,,,,,,,,,,,,,,,,,,,,,,,,,,,,,,,,,,,,,,,,,,,,,708.7798,712.0086,slightly disagree,0,7,7,7,1,I find it hard to know what to do in a social situation.,1,0,0,1,,
