instructions_exposure.started,instructions_exposure.stopped,instructions_exposure_loop.thisRepN,instructions_exposure_loop.thisTrialN,instructions_exposure_loop.thisN,instructions_exposure_loop.thisIndex,instructions_exposure_loop.ran,instructions_text,continue_text,participant_id,"What variety of Spanish are you most familiar with? (e.g., Peruvian, Spanish, Mexican)",At what age did you begin learning Spanish?,Are you proficient in any languages other than English/Spanish?,"Are you familiar with Caribbean (e.g., Caribbean, Puerto Rican) or Galician Spanish?",date,expName,psychopyVersion,OS,frameRate,id,study_id,session,trial_exposure.started,trial_exposure.stopped,key_resp_exposure.keys,key_resp_exposure.corr,key_resp_exposure.rt,key_resp_exposure.duration,key_resp.keys,exposure_loop.thisRepN,exposure_loop.thisTrialN,exposure_loop.thisN,exposure_loop.thisIndex,exposure_loop.ran,item_num,correct_response,question,path,duration,instructions_2afc.started,instructions_2afc.stopped,instructions_2afc_loop.thisRepN,instructions_2afc_loop.thisTrialN,instructions_2afc_loop.thisN,instructions_2afc_loop.thisIndex,instructions_2afc_loop.ran,practice_2afc.started,practice_2afc.stopped,key_resp_2afc_practice.keys,key_resp_2afc_practice.corr,key_resp_2afc_practice.rt,key_resp_2afc_practice.duration,trials_2afc_practice_loop.thisRepN,trials_2afc_practice_loop.thisTrialN,trials_2afc_practice_loop.thisN,trials_2afc_practice_loop.thisIndex,trials_2afc_practice_loop.ran,check_2afc.started,check_2afc.stopped,trial_2afc.started,trial_2afc.stopped,key_resp_2afc_trial.keys,key_resp_2afc_trial.corr,key_resp_2afc_trial.rt,key_resp_2afc_trial.duration,trials_2afc_loop.thisRepN,trials_2afc_loop.thisTrialN,trials_2afc_loop.thisN,trials_2afc_loop.thisIndex,trials_2afc_loop.ran,target,variety,instructions_lextale.started,instructions_lextale.stopped,instructions_lextale_loop.thisRepN,instructions_lextale_loop.thisTrialN,instructions_lextale_loop.thisN,instructions_lextale_loop.thisIndex,instructions_lextale_loop.ran,practice_lextale.started,practice_lextale.stopped,key_resp_lextale_practice.keys,key_resp_lextale_practice.corr,key_resp_lextale_practice.rt,key_resp_lextale_practice.duration,practice_feedback_lextale.started,practice_feedback_lextale.stopped,trials_lextale_practice_loop.thisRepN,trials_lextale_practice_loop.thisTrialN,trials_lextale_practice_loop.thisN,trials_lextale_practice_loop.thisIndex,trials_lextale_practice_loop.ran,stim,word,prac_button_real,prac_button_false,check_lextale.started,check_lextale.stopped,trial_lextale.started,trial_lextale.stopped,key_resp_lextale_trial.keys,key_resp_lextale_trial.corr,key_resp_lextale_trial.rt,key_resp_lextale_trial.duration,trials_lextale_loop.thisRepN,trials_lextale_loop.thisTrialN,trials_lextale_loop.thisN,trials_lextale_loop.thisIndex,trials_lextale_loop.ran,button_real,button_false,instructions_eq.started,instructions_eq.stopped,trial_eq.started,trial_eq.stopped,slider_eq_trial.response,trials_eq_loop.thisRepN,trials_eq_loop.thisTrialN,trials_eq_loop.thisN,trials_eq_loop.thisIndex,trials_eq_loop.ran,item,is_test_item,is_distractor,is_agree_score,is_disagree_score,end_exp.started,end_exp.stopped
0.0711,88.6555,0,0,0,0,1,"In the following task, you are going to hear a series of conversations.", (press the space bar to continue),615e1782e969d4939045c54f,Mexican,13 or older,"no, only English or Spanish",no,2025-07-23_00h43.20.244,empathy_intonation_perc,2024.2.4,Win32,38.75968992,615e1782e969d4939045c54f,687ed1b7e638a4cbf2f02089,68809200c1faba141b73a9bf,,,,,,,,,,,,,,,,,,,,,,,,,,,,,,,,,,,,,,,,,,,,,,,,,,,,,,,,,,,,,,,,,,,,,,,,,,,,,,,,,,,,,,,,,,,,,,,,,,,,,,,,,,
88.6611,98.7955,0,1,1,1,1,It is okay if you don't not 100% understand them!, (press the space bar to continue),615e1782e969d4939045c54f,Mexican,13 or older,"no, only English or Spanish",no,2025-07-23_00h43.20.244,empathy_intonation_perc,2024.2.4,Win32,38.75968992,615e1782e969d4939045c54f,687ed1b7e638a4cbf2f02089,68809200c1faba141b73a9bf,,,,,,,,,,,,,,,,,,,,,,,,,,,,,,,,,,,,,,,,,,,,,,,,,,,,,,,,,,,,,,,,,,,,,,,,,,,,,,,,,,,,,,,,,,,,,,,,,,,,,,,,,,
98.7985,104.0948,0,2,2,2,1,"After, you will read a sentence about the conversation and decide if it's true or false.", (press the space bar to continue),615e1782e969d4939045c54f,Mexican,13 or older,"no, only English or Spanish",no,2025-07-23_00h43.20.244,empathy_intonation_perc,2024.2.4,Win32,38.75968992,615e1782e969d4939045c54f,687ed1b7e638a4cbf2f02089,68809200c1faba141b73a9bf,,,,,,,,,,,,,,,,,,,,,,,,,,,,,,,,,,,,,,,,,,,,,,,,,,,,,,,,,,,,,,,,,,,,,,,,,,,,,,,,,,,,,,,,,,,,,,,,,,,,,,,,,,
104.0992,107.6966,0,3,3,3,1,"If it's true, press '1' (True) and if it's false press '0' (False).", (press the space bar to continue),615e1782e969d4939045c54f,Mexican,13 or older,"no, only English or Spanish",no,2025-07-23_00h43.20.244,empathy_intonation_perc,2024.2.4,Win32,38.75968992,615e1782e969d4939045c54f,687ed1b7e638a4cbf2f02089,68809200c1faba141b73a9bf,,,,,,,,,,,,,,,,,,,,,,,,,,,,,,,,,,,,,,,,,,,,,,,,,,,,,,,,,,,,,,,,,,,,,,,,,,,,,,,,,,,,,,,,,,,,,,,,,,,,,,,,,,
,,,,,,,,,615e1782e969d4939045c54f,Mexican,13 or older,"no, only English or Spanish",no,2025-07-23_00h43.20.244,empathy_intonation_perc,2024.2.4,Win32,38.75968992,615e1782e969d4939045c54f,687ed1b7e638a4cbf2f02089,68809200c1faba141b73a9bf,107.7305,180.1267,1,1,12.3166,0.002,,0,0,0,1,1,2,1,The mom asked the daughter if she already went to the supermarket.,./stim/exposure_wavs/dr_stimuli_convo.wav,60,,,,,,,,,,,,,,,,,,,,,,,,,,,,,,,,,,,,,,,,,,,,,,,,,,,,,,,,,,,,,,,,,,,,,,,,,,,,,,,,,,,,,,,,,
,,,,,,,,,615e1782e969d4939045c54f,Mexican,13 or older,"no, only English or Spanish",no,2025-07-23_00h43.20.244,empathy_intonation_perc,2024.2.4,Win32,38.75968992,615e1782e969d4939045c54f,687ed1b7e638a4cbf2f02089,68809200c1faba141b73a9bf,180.1319,432.8444,0,0,205.6522,0.0009,,0,1,1,0,1,1,1,The son asked the mom if Aunt Marina is okay.,./stim/exposure_wavs/ga_stimuli_convo.wav,47,,,,,,,,,,,,,,,,,,,,,,,,,,,,,,,,,,,,,,,,,,,,,,,,,,,,,,,,,,,,,,,,,,,,,,,,,,,,,,,,,,,,,,,,,
,,,,,,,,,615e1782e969d4939045c54f,Mexican,13 or older,"no, only English or Spanish",no,2025-07-23_00h43.20.244,empathy_intonation_perc,2024.2.4,Win32,38.75968992,615e1782e969d4939045c54f,687ed1b7e638a4cbf2f02089,68809200c1faba141b73a9bf,432.8459,561.103,1,0,92.2068,0.0009,,0,2,2,2,1,3,0,The mom already has rice.,./stim/exposure_wavs/pr_stimuli_convo.wav,36,,,,,,,,,,,,,,,,,,,,,,,,,,,,,,,,,,,,,,,,,,,,,,,,,,,,,,,,,,,,,,,,,,,,,,,,,,,,,,,,,,,,,,,,,
,,,,,,,"In the following task you are going to hear a series of utterances. 

  You will decide if the utterances sound like questions or not using your keyboard.", (press the spacebar to continue),615e1782e969d4939045c54f,Mexican,13 or older,"no, only English or Spanish",no,2025-07-23_00h43.20.244,empathy_intonation_perc,2024.2.4,Win32,38.75968992,615e1782e969d4939045c54f,687ed1b7e638a4cbf2f02089,68809200c1faba141b73a9bf,,,,,,,,,,,,,,,,,,561.1224,613.7357,0,0,0,0,1,,,,,,,,,,,,,,,,,,,,,,,,,,,,,,,,,,,,,,,,,,,,,,,,,,,,,,,,,,,,,,,,,,,,,,,,,,,,,,,,,,
,,,,,,,"If you believe the utterance is a question, type '1' (for 'yes') and if you do not 
  believe it is a question type '0' (for 'no').

  Let's practice a bit...", (press the spacebar to continue),615e1782e969d4939045c54f,Mexican,13 or older,"no, only English or Spanish",no,2025-07-23_00h43.20.244,empathy_intonation_perc,2024.2.4,Win32,38.75968992,615e1782e969d4939045c54f,687ed1b7e638a4cbf2f02089,68809200c1faba141b73a9bf,,,,,,,,,,,,,,,,,,613.7398,621.2972,0,1,1,1,1,,,,,,,,,,,,,,,,,,,,,,,,,,,,,,,,,,,,,,,,,,,,,,,,,,,,,,,,,,,,,,,,,,,,,,,,,,,,,,,,,,
,,,,,,,,,615e1782e969d4939045c54f,Mexican,13 or older,"no, only English or Spanish",no,2025-07-23_00h43.20.244,empathy_intonation_perc,2024.2.4,Win32,38.75968992,615e1782e969d4939045c54f,687ed1b7e638a4cbf2f02089,68809200c1faba141b73a9bf,,,,,,,,,,,,,,0,,./stim/wavs/peruvian_statement_filler_El-nino-habla-con-su-madre.wav,,,,,,,,,621.3177,630.5662,0,1,8.7246,0.003,0,0,0,6,1,,,,,,,,,,,,,,,,,,,,,,,,,,,,,,,,,,,,,,,,,,,,,,,,,,,,,,,,,,,,,,,,,,,,,,,
,,,,,,,,,615e1782e969d4939045c54f,Mexican,13 or older,"no, only English or Spanish",no,2025-07-23_00h43.20.244,empathy_intonation_perc,2024.2.4,Win32,38.75968992,615e1782e969d4939045c54f,687ed1b7e638a4cbf2f02089,68809200c1faba141b73a9bf,,,,,,,,,,,,,,0,,./stim/wavs/puertorican_statement_filler_La-nina-pinta-con-su-amiga.wav,,,,,,,,,630.5698,650.0334,1,0,18.9386,0.0058,0,1,1,7,1,,,,,,,,,,,,,,,,,,,,,,,,,,,,,,,,,,,,,,,,,,,,,,,,,,,,,,,,,,,,,,,,,,,,,,,
,,,,,,,,,615e1782e969d4939045c54f,Mexican,13 or older,"no, only English or Spanish",no,2025-07-23_00h43.20.244,empathy_intonation_perc,2024.2.4,Win32,38.75968992,615e1782e969d4939045c54f,687ed1b7e638a4cbf2f02089,68809200c1faba141b73a9bf,,,,,,,,,,,,,,1,,./stim/wavs/mexican_question_filler_Felipe-no-tiene-contrasena.wav,,,,,,,,,650.035,695.114,0,0,44.559,0.0007,0,2,2,3,1,,,,,,,,,,,,,,,,,,,,,,,,,,,,,,,,,,,,,,,,,,,,,,,,,,,,,,,,,,,,,,,,,,,,,,,
,,,,,,,,,615e1782e969d4939045c54f,Mexican,13 or older,"no, only English or Spanish",no,2025-07-23_00h43.20.244,empathy_intonation_perc,2024.2.4,Win32,38.75968992,615e1782e969d4939045c54f,687ed1b7e638a4cbf2f02089,68809200c1faba141b73a9bf,,,,,,,,,,,,,,1,,./stim/wavs/castilian_question_filler_Mi-esposo-conoce-al-chico.wav,,,,,,,,,695.1158,705.5169,0,0,9.8797,0.0056,0,3,3,0,1,,,,,,,,,,,,,,,,,,,,,,,,,,,,,,,,,,,,,,,,,,,,,,,,,,,,,,,,,,,,,,,,,,,,,,,
,,,,,,,,,615e1782e969d4939045c54f,Mexican,13 or older,"no, only English or Spanish",no,2025-07-23_00h43.20.244,empathy_intonation_perc,2024.2.4,Win32,38.75968992,615e1782e969d4939045c54f,687ed1b7e638a4cbf2f02089,68809200c1faba141b73a9bf,,,,,,,,,,,,,,1,,./stim/wavs/argentine_question_filler_Mi-vecino-habla-mucho.wav,,,,,,,,,705.5192,767.1747,1,1,61.1386,0.0019,0,4,4,1,1,,,,,,,,,,,,,,,,,,,,,,,,,,,,,,,,,,,,,,,,,,,,,,,,,,,,,,,,,,,,,,,,,,,,,,,
,,,,,,,,,615e1782e969d4939045c54f,Mexican,13 or older,"no, only English or Spanish",no,2025-07-23_00h43.20.244,empathy_intonation_perc,2024.2.4,Win32,38.75968992,615e1782e969d4939045c54f,687ed1b7e638a4cbf2f02089,68809200c1faba141b73a9bf,,,,,,,,,,,,,,0,,./stim/wavs/andalusian_statement_filler_Alberto-nunca-se-afeita.wav,,,,,,,,,767.1774,948.3996,1,0,180.6998,0.0007,0,5,5,5,1,,,,,,,,,,,,,,,,,,,,,,,,,,,,,,,,,,,,,,,,,,,,,,,,,,,,,,,,,,,,,,,,,,,,,,,
,,,,,,,,,615e1782e969d4939045c54f,Mexican,13 or older,"no, only English or Spanish",no,2025-07-23_00h43.20.244,empathy_intonation_perc,2024.2.4,Win32,38.75968992,615e1782e969d4939045c54f,687ed1b7e638a4cbf2f02089,68809200c1faba141b73a9bf,,,,,,,,,,,,,,1,,./stim/wavs/chilean_question_filler_Mi-padre-cantaba-bien.wav,,,,,,,,,948.4015,973.4637,1,1,24.5404,0.004,0,6,6,2,1,,,,,,,,,,,,,,,,,,,,,,,,,,,,,,,,,,,,,,,,,,,,,,,,,,,,,,,,,,,,,,,,,,,,,,,
,,,,,,,,,615e1782e969d4939045c54f,Mexican,13 or older,"no, only English or Spanish",no,2025-07-23_00h43.20.244,empathy_intonation_perc,2024.2.4,Win32,38.75968992,615e1782e969d4939045c54f,687ed1b7e638a4cbf2f02089,68809200c1faba141b73a9bf,,,,,,,,,,,,,,0,,./stim/wavs/cuban_statement_filler_Cocinabas-por-la-noche.wav,,,,,,,,,973.4655,978.6271,0,1,4.6226,0.0006,0,7,7,4,1,,,,,,,,,,,,,,,,,,,,,,,,,,,,,,,,,,,,,,,,,,,,,,,,,,,,,,,,,,,,,,,,,,,,,,,
,,,,,,,,,615e1782e969d4939045c54f,Mexican,13 or older,"no, only English or Spanish",no,2025-07-23_00h43.20.244,empathy_intonation_perc,2024.2.4,Win32,38.75968992,615e1782e969d4939045c54f,687ed1b7e638a4cbf2f02089,68809200c1faba141b73a9bf,,,,,,,,,,,,,,,,,,,,,,,,,,,,,,,,,,,,978.6276,988.7814,,,,,,,,,,,,,,,,,,,,,,,,,,,,,,,,,,,,,,,,,,,,,,,,,,,,,,,,,,,,,,,,,,,,,
,,,,,,,,,615e1782e969d4939045c54f,Mexican,13 or older,"no, only English or Spanish",no,2025-07-23_00h43.20.244,empathy_intonation_perc,2024.2.4,Win32,38.75968992,615e1782e969d4939045c54f,687ed1b7e638a4cbf2f02089,68809200c1faba141b73a9bf,,,,,,,,,,,,,5,1,,./stim/wavs/castilian_match_interrogative-total-yn_Mariano-habla-del-tiempo.wav,,,,,,,,,,,,,,,,,,,,,,988.8322,995.0284,1,1,5.6778,0.0012,0,0,0,4,1,0,castilian,,,,,,,,,,,,,,,,,,,,,,,,,,,,,,,,,,,,,,,,,,,,,,,,,,,,,,,,
,,,,,,,,,615e1782e969d4939045c54f,Mexican,13 or older,"no, only English or Spanish",no,2025-07-23_00h43.20.244,empathy_intonation_perc,2024.2.4,Win32,38.75968992,615e1782e969d4939045c54f,687ed1b7e638a4cbf2f02089,68809200c1faba141b73a9bf,,,,,,,,,,,,,59,0,,./stim/wavs/mexican_match_declarative-broad-focus_David-leia-el-libro.wav,,,,,,,,,,,,,,,,,,,,,,995.0322,998.6305,0,1,3.0728,0.0006,0,1,1,58,1,0,mexican,,,,,,,,,,,,,,,,,,,,,,,,,,,,,,,,,,,,,,,,,,,,,,,,,,,,,,,,
,,,,,,,,,615e1782e969d4939045c54f,Mexican,13 or older,"no, only English or Spanish",no,2025-07-23_00h43.20.244,empathy_intonation_perc,2024.2.4,Win32,38.75968992,615e1782e969d4939045c54f,687ed1b7e638a4cbf2f02089,68809200c1faba141b73a9bf,,,,,,,,,,,,,21,1,,./stim/wavs/puertorican_match_interrogative-total-yn_David-leia-el-libro.wav,,,,,,,,,,,,,,,,,,,,,,998.6319,1002.2303,1,1,3.0742,0.0019,0,2,2,20,1,1,puertorican,,,,,,,,,,,,,,,,,,,,,,,,,,,,,,,,,,,,,,,,,,,,,,,,,,,,,,,,
,,,,,,,,,615e1782e969d4939045c54f,Mexican,13 or older,"no, only English or Spanish",no,2025-07-23_00h43.20.244,empathy_intonation_perc,2024.2.4,Win32,38.75968992,615e1782e969d4939045c54f,687ed1b7e638a4cbf2f02089,68809200c1faba141b73a9bf,,,,,,,,,,,,,32,1,,./stim/wavs/cuban_mismatch_interrogative-total-yn_Mi-madre-come-la-fruta.wav,,,,,,,,,,,,,,,,,,,,,,1002.2321,1008.7123,1,1,5.9535,0.0036,0,3,3,31,1,1,cuban,,,,,,,,,,,,,,,,,,,,,,,,,,,,,,,,,,,,,,,,,,,,,,,,,,,,,,,,
,,,,,,,,,615e1782e969d4939045c54f,Mexican,13 or older,"no, only English or Spanish",no,2025-07-23_00h43.20.244,empathy_intonation_perc,2024.2.4,Win32,38.75968992,615e1782e969d4939045c54f,687ed1b7e638a4cbf2f02089,68809200c1faba141b73a9bf,,,,,,,,,,,,,42,1,,./stim/wavs/puertorican_mismatch_interrogative-total-yn_La-maestra-vive-en-Paris.wav,,,,,,,,,,,,,,,,,,,,,,1008.7139,1013.9304,1,1,4.6722,0.0027,0,4,4,41,1,1,puertorican,,,,,,,,,,,,,,,,,,,,,,,,,,,,,,,,,,,,,,,,,,,,,,,,,,,,,,,,
,,,,,,,,,615e1782e969d4939045c54f,Mexican,13 or older,"no, only English or Spanish",no,2025-07-23_00h43.20.244,empathy_intonation_perc,2024.2.4,Win32,38.75968992,615e1782e969d4939045c54f,687ed1b7e638a4cbf2f02089,68809200c1faba141b73a9bf,,,,,,,,,,,,,75,0,,./stim/wavs/cuban_mismatch_declarative-broad-focus_El-hombre-mira-la-luna.wav,,,,,,,,,,,,,,,,,,,,,,1013.9321,1019.1911,0,1,4.7379,0.0008,0,5,5,74,1,0,cuban,,,,,,,,,,,,,,,,,,,,,,,,,,,,,,,,,,,,,,,,,,,,,,,,,,,,,,,,
,,,,,,,,,615e1782e969d4939045c54f,Mexican,13 or older,"no, only English or Spanish",no,2025-07-23_00h43.20.244,empathy_intonation_perc,2024.2.4,Win32,38.75968992,615e1782e969d4939045c54f,687ed1b7e638a4cbf2f02089,68809200c1faba141b73a9bf,,,,,,,,,,,,,86,0,,./stim/wavs/puertorican_mismatch_declarative-broad-focus_El-nino-oye-el-rio.wav,,,,,,,,,,,,,,,,,,,,,,1019.1941,1024.4003,1,0,4.6779,0.0032,0,6,6,85,1,0,puertorican,,,,,,,,,,,,,,,,,,,,,,,,,,,,,,,,,,,,,,,,,,,,,,,,,,,,,,,,
,,,,,,,,,615e1782e969d4939045c54f,Mexican,13 or older,"no, only English or Spanish",no,2025-07-23_00h43.20.244,empathy_intonation_perc,2024.2.4,Win32,38.75968992,615e1782e969d4939045c54f,687ed1b7e638a4cbf2f02089,68809200c1faba141b73a9bf,,,,,,,,,,,,,49,0,,./stim/wavs/castilian_match_declarative-broad-focus_Mariano-habla-del-tiempo.wav,,,,,,,,,,,,,,,,,,,,,,1024.4018,1028.9314,0,1,4.0001,0.0089,0,7,7,48,1,0,castilian,,,,,,,,,,,,,,,,,,,,,,,,,,,,,,,,,,,,,,,,,,,,,,,,,,,,,,,,
,,,,,,,,,615e1782e969d4939045c54f,Mexican,13 or older,"no, only English or Spanish",no,2025-07-23_00h43.20.244,empathy_intonation_perc,2024.2.4,Win32,38.75968992,615e1782e969d4939045c54f,687ed1b7e638a4cbf2f02089,68809200c1faba141b73a9bf,,,,,,,,,,,,,15,1,,./stim/wavs/mexican_match_interrogative-total-yn_David-leia-el-libro.wav,,,,,,,,,,,,,,,,,,,,,,1028.9332,1034.8255,0,0,5.3577,0.0013,0,8,8,14,1,0,mexican,,,,,,,,,,,,,,,,,,,,,,,,,,,,,,,,,,,,,,,,,,,,,,,,,,,,,,,,
,,,,,,,,,615e1782e969d4939045c54f,Mexican,13 or older,"no, only English or Spanish",no,2025-07-23_00h43.20.244,empathy_intonation_perc,2024.2.4,Win32,38.75968992,615e1782e969d4939045c54f,687ed1b7e638a4cbf2f02089,68809200c1faba141b73a9bf,,,,,,,,,,,,,88,0,,./stim/wavs/puertorican_mismatch_declarative-broad-focus_La-nina-lava-el-plato.wav,,,,,,,,,,,,,,,,,,,,,,1034.8265,1042.8154,1,0,7.4488,0.0009,0,9,9,87,1,0,puertorican,,,,,,,,,,,,,,,,,,,,,,,,,,,,,,,,,,,,,,,,,,,,,,,,,,,,,,,,
,,,,,,,,,615e1782e969d4939045c54f,Mexican,13 or older,"no, only English or Spanish",no,2025-07-23_00h43.20.244,empathy_intonation_perc,2024.2.4,Win32,38.75968992,615e1782e969d4939045c54f,687ed1b7e638a4cbf2f02089,68809200c1faba141b73a9bf,,,,,,,,,,,,,72,0,,./stim/wavs/castilian_mismatch_declarative-broad-focus_Mi-novio-viene-del-lago.wav,,,,,,,,,,,,,,,,,,,,,,1042.8168,1051.242,1,0,7.9012,0.0009,0,10,10,71,1,0,castilian,,,,,,,,,,,,,,,,,,,,,,,,,,,,,,,,,,,,,,,,,,,,,,,,,,,,,,,,
,,,,,,,,,615e1782e969d4939045c54f,Mexican,13 or older,"no, only English or Spanish",no,2025-07-23_00h43.20.244,empathy_intonation_perc,2024.2.4,Win32,38.75968992,615e1782e969d4939045c54f,687ed1b7e638a4cbf2f02089,68809200c1faba141b73a9bf,,,,,,,,,,,,,3,1,,./stim/wavs/castilian_match_interrogative-total-yn_Manuela-vende-el-carro.wav,,,,,,,,,,,,,,,,,,,,,,1051.2438,1055.349,1,1,3.5862,0.001,0,11,11,2,1,0,castilian,,,,,,,,,,,,,,,,,,,,,,,,,,,,,,,,,,,,,,,,,,,,,,,,,,,,,,,,
,,,,,,,,,615e1782e969d4939045c54f,Mexican,13 or older,"no, only English or Spanish",no,2025-07-23_00h43.20.244,empathy_intonation_perc,2024.2.4,Win32,38.75968992,615e1782e969d4939045c54f,687ed1b7e638a4cbf2f02089,68809200c1faba141b73a9bf,,,,,,,,,,,,,31,1,,./stim/wavs/cuban_mismatch_interrogative-total-yn_El-nino-oye-el-rio.wav,,,,,,,,,,,,,,,,,,,,,,1055.3524,1060.0412,0,0,4.1772,0.0008,0,12,12,30,1,1,cuban,,,,,,,,,,,,,,,,,,,,,,,,,,,,,,,,,,,,,,,,,,,,,,,,,,,,,,,,
,,,,,,,,,615e1782e969d4939045c54f,Mexican,13 or older,"no, only English or Spanish",no,2025-07-23_00h43.20.244,empathy_intonation_perc,2024.2.4,Win32,38.75968992,615e1782e969d4939045c54f,687ed1b7e638a4cbf2f02089,68809200c1faba141b73a9bf,,,,,,,,,,,,,29,1,,./stim/wavs/castilian_mismatch_interrogative-total-yn_Mi-tia-odia-la-lluvia.wav,,,,,,,,,,,,,,,,,,,,,,1060.0428,1063.8884,1,1,3.3221,0.0009,0,13,13,28,1,0,castilian,,,,,,,,,,,,,,,,,,,,,,,,,,,,,,,,,,,,,,,,,,,,,,,,,,,,,,,,
,,,,,,,,,615e1782e969d4939045c54f,Mexican,13 or older,"no, only English or Spanish",no,2025-07-23_00h43.20.244,empathy_intonation_perc,2024.2.4,Win32,38.75968992,615e1782e969d4939045c54f,687ed1b7e638a4cbf2f02089,68809200c1faba141b73a9bf,,,,,,,,,,,,,39,1,,./stim/wavs/mexican_mismatch_interrogative-total-yn_Mi-tia-odia-la-lluvia.wav,,,,,,,,,,,,,,,,,,,,,,1063.8915,1067.1768,1,1,2.7411,0.0011,0,14,14,38,1,0,mexican,,,,,,,,,,,,,,,,,,,,,,,,,,,,,,,,,,,,,,,,,,,,,,,,,,,,,,,,
,,,,,,,,,615e1782e969d4939045c54f,Mexican,13 or older,"no, only English or Spanish",no,2025-07-23_00h43.20.244,empathy_intonation_perc,2024.2.4,Win32,38.75968992,615e1782e969d4939045c54f,687ed1b7e638a4cbf2f02089,68809200c1faba141b73a9bf,,,,,,,,,,,,,77,0,,./stim/wavs/cuban_mismatch_declarative-broad-focus_Mi-novio-viene-del-lago.wav,,,,,,,,,,,,,,,,,,,,,,1067.18,1088.957,0,1,21.2539,0.0012,0,15,15,76,1,0,cuban,,,,,,,,,,,,,,,,,,,,,,,,,,,,,,,,,,,,,,,,,,,,,,,,,,,,,,,,
,,,,,,,,,615e1782e969d4939045c54f,Mexican,13 or older,"no, only English or Spanish",no,2025-07-23_00h43.20.244,empathy_intonation_perc,2024.2.4,Win32,38.75968992,615e1782e969d4939045c54f,687ed1b7e638a4cbf2f02089,68809200c1faba141b73a9bf,,,,,,,,,,,,,73,0,,./stim/wavs/castilian_mismatch_declarative-broad-focus_Mi-tia-odia-la-lluvia.wav,,,,,,,,,,,,,,,,,,,,,,1088.9598,1093.8719,0,1,4.3844,0.0009,0,16,16,72,1,0,castilian,,,,,,,,,,,,,,,,,,,,,,,,,,,,,,,,,,,,,,,,,,,,,,,,,,,,,,,,
,,,,,,,,,615e1782e969d4939045c54f,Mexican,13 or older,"no, only English or Spanish",no,2025-07-23_00h43.20.244,empathy_intonation_perc,2024.2.4,Win32,38.75968992,615e1782e969d4939045c54f,687ed1b7e638a4cbf2f02089,68809200c1faba141b73a9bf,,,,,,,,,,,,,70,0,,./stim/wavs/castilian_mismatch_declarative-broad-focus_La-maestra-vive-en-Paris.wav,,,,,,,,,,,,,,,,,,,,,,1093.8732,1101.5616,1,0,7.1622,0.0044,0,17,17,69,1,0,castilian,,,,,,,,,,,,,,,,,,,,,,,,,,,,,,,,,,,,,,,,,,,,,,,,,,,,,,,,
,,,,,,,,,615e1782e969d4939045c54f,Mexican,13 or older,"no, only English or Spanish",no,2025-07-23_00h43.20.244,empathy_intonation_perc,2024.2.4,Win32,38.75968992,615e1782e969d4939045c54f,687ed1b7e638a4cbf2f02089,68809200c1faba141b73a9bf,,,,,,,,,,,,,35,1,,./stim/wavs/mexican_mismatch_interrogative-total-yn_El-hombre-mira-la-luna.wav,,,,,,,,,,,,,,,,,,,,,,1101.5636,1104.7572,1,1,2.6782,0.0006,0,18,18,34,1,0,mexican,,,,,,,,,,,,,,,,,,,,,,,,,,,,,,,,,,,,,,,,,,,,,,,,,,,,,,,,
,,,,,,,,,615e1782e969d4939045c54f,Mexican,13 or older,"no, only English or Spanish",no,2025-07-23_00h43.20.244,empathy_intonation_perc,2024.2.4,Win32,38.75968992,615e1782e969d4939045c54f,687ed1b7e638a4cbf2f02089,68809200c1faba141b73a9bf,,,,,,,,,,,,,78,0,,./stim/wavs/cuban_mismatch_declarative-broad-focus_Mi-tia-odia-la-lluvia.wav,,,,,,,,,,,,,,,,,,,,,,1104.7609,1112.1764,0,1,6.8918,0.0029,0,19,19,77,1,0,cuban,,,,,,,,,,,,,,,,,,,,,,,,,,,,,,,,,,,,,,,,,,,,,,,,,,,,,,,,
,,,,,,,,,615e1782e969d4939045c54f,Mexican,13 or older,"no, only English or Spanish",no,2025-07-23_00h43.20.244,empathy_intonation_perc,2024.2.4,Win32,38.75968992,615e1782e969d4939045c54f,687ed1b7e638a4cbf2f02089,68809200c1faba141b73a9bf,,,,,,,,,,,,,30,1,,./stim/wavs/cuban_mismatch_interrogative-total-yn_El-hombre-mira-la-luna.wav,,,,,,,,,,,,,,,,,,,,,,1112.1813,1116.0727,0,0,3.3607,0.0009,0,20,20,29,1,1,cuban,,,,,,,,,,,,,,,,,,,,,,,,,,,,,,,,,,,,,,,,,,,,,,,,,,,,,,,,
,,,,,,,,,615e1782e969d4939045c54f,Mexican,13 or older,"no, only English or Spanish",no,2025-07-23_00h43.20.244,empathy_intonation_perc,2024.2.4,Win32,38.75968992,615e1782e969d4939045c54f,687ed1b7e638a4cbf2f02089,68809200c1faba141b73a9bf,,,,,,,,,,,,,26,1,,./stim/wavs/castilian_mismatch_interrogative-total-yn_La-nina-lava-el-plato.wav,,,,,,,,,,,,,,,,,,,,,,1116.0747,1122.8042,1,1,6.2189,0.0038,0,21,21,25,1,0,castilian,,,,,,,,,,,,,,,,,,,,,,,,,,,,,,,,,,,,,,,,,,,,,,,,,,,,,,,,
,,,,,,,,,615e1782e969d4939045c54f,Mexican,13 or older,"no, only English or Spanish",no,2025-07-23_00h43.20.244,empathy_intonation_perc,2024.2.4,Win32,38.75968992,615e1782e969d4939045c54f,687ed1b7e638a4cbf2f02089,68809200c1faba141b73a9bf,,,,,,,,,,,,,52,0,,./stim/wavs/cuban_match_declarative-broad-focus_Daniel-iba-a-Bolivia.wav,,,,,,,,,,,,,,,,,,,,,,1122.8061,1126.6203,1,0,3.2912,0.002,0,22,22,51,1,0,cuban,,,,,,,,,,,,,,,,,,,,,,,,,,,,,,,,,,,,,,,,,,,,,,,,,,,,,,,,
,,,,,,,,,615e1782e969d4939045c54f,Mexican,13 or older,"no, only English or Spanish",no,2025-07-23_00h43.20.244,empathy_intonation_perc,2024.2.4,Win32,38.75968992,615e1782e969d4939045c54f,687ed1b7e638a4cbf2f02089,68809200c1faba141b73a9bf,,,,,,,,,,,,,34,1,,./stim/wavs/cuban_mismatch_interrogative-total-yn_Mi-tia-odia-la-lluvia.wav,,,,,,,,,,,,,,,,,,,,,,1126.6225,1130.606,1,1,3.4656,0.0008,0,23,23,33,1,1,cuban,,,,,,,,,,,,,,,,,,,,,,,,,,,,,,,,,,,,,,,,,,,,,,,,,,,,,,,,
,,,,,,,,,615e1782e969d4939045c54f,Mexican,13 or older,"no, only English or Spanish",no,2025-07-23_00h43.20.244,empathy_intonation_perc,2024.2.4,Win32,38.75968992,615e1782e969d4939045c54f,687ed1b7e638a4cbf2f02089,68809200c1faba141b73a9bf,,,,,,,,,,,,,83,0,,./stim/wavs/mexican_mismatch_declarative-broad-focus_Mi-tia-odia-la-lluvia.wav,,,,,,,,,,,,,,,,,,,,,,1130.6077,1134.088,1,0,2.955,0.0026,0,24,24,82,1,0,mexican,,,,,,,,,,,,,,,,,,,,,,,,,,,,,,,,,,,,,,,,,,,,,,,,,,,,,,,,
,,,,,,,,,615e1782e969d4939045c54f,Mexican,13 or older,"no, only English or Spanish",no,2025-07-23_00h43.20.244,empathy_intonation_perc,2024.2.4,Win32,38.75968992,615e1782e969d4939045c54f,687ed1b7e638a4cbf2f02089,68809200c1faba141b73a9bf,,,,,,,,,,,,,4,1,,./stim/wavs/castilian_match_interrogative-total-yn_Maria-bebe-el-vino.wav,,,,,,,,,,,,,,,,,,,,,,1134.0902,1137.82,1,1,3.201,0.0008,0,25,25,3,1,0,castilian,,,,,,,,,,,,,,,,,,,,,,,,,,,,,,,,,,,,,,,,,,,,,,,,,,,,,,,,
,,,,,,,,,615e1782e969d4939045c54f,Mexican,13 or older,"no, only English or Spanish",no,2025-07-23_00h43.20.244,empathy_intonation_perc,2024.2.4,Win32,38.75968992,615e1782e969d4939045c54f,687ed1b7e638a4cbf2f02089,68809200c1faba141b73a9bf,,,,,,,,,,,,,41,1,,./stim/wavs/puertorican_mismatch_interrogative-total-yn_El-nino-oye-el-rio.wav,,,,,,,,,,,,,,,,,,,,,,1137.8215,1142.9105,0,0,4.5551,0.0043,0,26,26,40,1,1,puertorican,,,,,,,,,,,,,,,,,,,,,,,,,,,,,,,,,,,,,,,,,,,,,,,,,,,,,,,,
,,,,,,,,,615e1782e969d4939045c54f,Mexican,13 or older,"no, only English or Spanish",no,2025-07-23_00h43.20.244,empathy_intonation_perc,2024.2.4,Win32,38.75968992,615e1782e969d4939045c54f,687ed1b7e638a4cbf2f02089,68809200c1faba141b73a9bf,,,,,,,,,,,,,8,1,,./stim/wavs/cuban_match_interrogative-total-yn_Daniel-iba-a-Bolivia.wav,,,,,,,,,,,,,,,,,,,,,,1142.912,1147.6415,0,0,4.2112,,0,27,27,7,1,1,cuban,,,,,,,,,,,,,,,,,,,,,,,,,,,,,,,,,,,,,,,,,,,,,,,,,,,,,,,,
,,,,,,,,,615e1782e969d4939045c54f,Mexican,13 or older,"no, only English or Spanish",no,2025-07-23_00h43.20.244,empathy_intonation_perc,2024.2.4,Win32,38.75968992,615e1782e969d4939045c54f,687ed1b7e638a4cbf2f02089,68809200c1faba141b73a9bf,,,,,,,,,,,,,82,0,,./stim/wavs/mexican_mismatch_declarative-broad-focus_Mi-novio-viene-del-lago.wav,,,,,,,,,,,,,,,,,,,,,,1147.6429,1153.5551,0,1,5.3876,0.0007,0,28,28,81,1,0,mexican,,,,,,,,,,,,,,,,,,,,,,,,,,,,,,,,,,,,,,,,,,,,,,,,,,,,,,,,
,,,,,,,,,615e1782e969d4939045c54f,Mexican,13 or older,"no, only English or Spanish",no,2025-07-23_00h43.20.244,empathy_intonation_perc,2024.2.4,Win32,38.75968992,615e1782e969d4939045c54f,687ed1b7e638a4cbf2f02089,68809200c1faba141b73a9bf,,,,,,,,,,,,,67,0,,./stim/wavs/puertorican_match_declarative-broad-focus_Manuela-vende-el-carro.wav,,,,,,,,,,,,,,,,,,,,,,1153.5567,1157.9909,0,1,3.9011,0.0008,0,29,29,66,1,0,puertorican,,,,,,,,,,,,,,,,,,,,,,,,,,,,,,,,,,,,,,,,,,,,,,,,,,,,,,,,
,,,,,,,,,615e1782e969d4939045c54f,Mexican,13 or older,"no, only English or Spanish",no,2025-07-23_00h43.20.244,empathy_intonation_perc,2024.2.4,Win32,38.75968992,615e1782e969d4939045c54f,687ed1b7e638a4cbf2f02089,68809200c1faba141b73a9bf,,,,,,,,,,,,,37,1,,./stim/wavs/mexican_mismatch_interrogative-total-yn_La-maestra-vive-en-Paris.wav,,,,,,,,,,,,,,,,,,,,,,1157.9955,1161.7735,1,1,3.2527,0.003,0,30,30,36,1,0,mexican,,,,,,,,,,,,,,,,,,,,,,,,,,,,,,,,,,,,,,,,,,,,,,,,,,,,,,,,
,,,,,,,,,615e1782e969d4939045c54f,Mexican,13 or older,"no, only English or Spanish",no,2025-07-23_00h43.20.244,empathy_intonation_perc,2024.2.4,Win32,38.75968992,615e1782e969d4939045c54f,687ed1b7e638a4cbf2f02089,68809200c1faba141b73a9bf,,,,,,,,,,,,,79,0,,./stim/wavs/mexican_mismatch_declarative-broad-focus_El-bebe-comia-muy-bien.wav,,,,,,,,,,,,,,,,,,,,,,1161.7756,1166.4227,0,1,4.1317,0.0012,0,31,31,78,1,0,mexican,,,,,,,,,,,,,,,,,,,,,,,,,,,,,,,,,,,,,,,,,,,,,,,,,,,,,,,,
,,,,,,,,,615e1782e969d4939045c54f,Mexican,13 or older,"no, only English or Spanish",no,2025-07-23_00h43.20.244,empathy_intonation_perc,2024.2.4,Win32,38.75968992,615e1782e969d4939045c54f,687ed1b7e638a4cbf2f02089,68809200c1faba141b73a9bf,,,,,,,,,,,,,13,1,,./stim/wavs/mexican_match_interrogative-total-yn_Ana-lleva-el-abrigo.wav,,,,,,,,,,,,,,,,,,,,,,1166.4241,1169.8335,0,0,2.8807,0.0006,0,32,32,12,1,0,mexican,,,,,,,,,,,,,,,,,,,,,,,,,,,,,,,,,,,,,,,,,,,,,,,,,,,,,,,,
,,,,,,,,,615e1782e969d4939045c54f,Mexican,13 or older,"no, only English or Spanish",no,2025-07-23_00h43.20.244,empathy_intonation_perc,2024.2.4,Win32,38.75968992,615e1782e969d4939045c54f,687ed1b7e638a4cbf2f02089,68809200c1faba141b73a9bf,,,,,,,,,,,,,47,0,,./stim/wavs/castilian_match_declarative-broad-focus_Manuela-vende-el-carro.wav,,,,,,,,,,,,,,,,,,,,,,1169.8362,1173.8435,0,1,3.4838,0.0035,0,33,33,46,1,0,castilian,,,,,,,,,,,,,,,,,,,,,,,,,,,,,,,,,,,,,,,,,,,,,,,,,,,,,,,,
,,,,,,,,,615e1782e969d4939045c54f,Mexican,13 or older,"no, only English or Spanish",no,2025-07-23_00h43.20.244,empathy_intonation_perc,2024.2.4,Win32,38.75968992,615e1782e969d4939045c54f,687ed1b7e638a4cbf2f02089,68809200c1faba141b73a9bf,,,,,,,,,,,,,62,0,,./stim/wavs/mexican_match_declarative-broad-focus_Marta-abre-el-regalo.wav,,,,,,,,,,,,,,,,,,,,,,1173.8452,1177.3338,0,1,2.9742,0.0035,0,34,34,61,1,0,mexican,,,,,,,,,,,,,,,,,,,,,,,,,,,,,,,,,,,,,,,,,,,,,,,,,,,,,,,,
,,,,,,,,,615e1782e969d4939045c54f,Mexican,13 or older,"no, only English or Spanish",no,2025-07-23_00h43.20.244,empathy_intonation_perc,2024.2.4,Win32,38.75968992,615e1782e969d4939045c54f,687ed1b7e638a4cbf2f02089,68809200c1faba141b73a9bf,,,,,,,,,,,,,45,0,,./stim/wavs/castilian_match_declarative-broad-focus_David-leia-el-libro.wav,,,,,,,,,,,,,,,,,,,,,,1177.3364,1181.5484,0,1,3.6884,0.001,0,35,35,44,1,0,castilian,,,,,,,,,,,,,,,,,,,,,,,,,,,,,,,,,,,,,,,,,,,,,,,,,,,,,,,,
,,,,,,,,,615e1782e969d4939045c54f,Mexican,13 or older,"no, only English or Spanish",no,2025-07-23_00h43.20.244,empathy_intonation_perc,2024.2.4,Win32,38.75968992,615e1782e969d4939045c54f,687ed1b7e638a4cbf2f02089,68809200c1faba141b73a9bf,,,,,,,,,,,,,33,1,,./stim/wavs/cuban_mismatch_interrogative-total-yn_Mi-novio-viene-del-lago.wav,,,,,,,,,,,,,,,,,,,,,,1181.553,1188.3552,0,0,6.2744,0.0009,0,36,36,32,1,1,cuban,,,,,,,,,,,,,,,,,,,,,,,,,,,,,,,,,,,,,,,,,,,,,,,,,,,,,,,,
,,,,,,,,,615e1782e969d4939045c54f,Mexican,13 or older,"no, only English or Spanish",no,2025-07-23_00h43.20.244,empathy_intonation_perc,2024.2.4,Win32,38.75968992,615e1782e969d4939045c54f,687ed1b7e638a4cbf2f02089,68809200c1faba141b73a9bf,,,,,,,,,,,,,1,1,,./stim/wavs/castilian_match_interrogative-total-yn_David-leia-el-libro.wav,,,,,,,,,,,,,,,,,,,,,,1188.3568,1192.3327,1,1,3.4474,0.0009,0,37,37,0,1,0,castilian,,,,,,,,,,,,,,,,,,,,,,,,,,,,,,,,,,,,,,,,,,,,,,,,,,,,,,,,
,,,,,,,,,615e1782e969d4939045c54f,Mexican,13 or older,"no, only English or Spanish",no,2025-07-23_00h43.20.244,empathy_intonation_perc,2024.2.4,Win32,38.75968992,615e1782e969d4939045c54f,687ed1b7e638a4cbf2f02089,68809200c1faba141b73a9bf,,,,,,,,,,,,,18,1,,./stim/wavs/mexican_match_interrogative-total-yn_Marta-abre-el-regalo.wav,,,,,,,,,,,,,,,,,,,,,,1192.337,1195.6442,1,1,2.7704,0.0011,0,38,38,17,1,0,mexican,,,,,,,,,,,,,,,,,,,,,,,,,,,,,,,,,,,,,,,,,,,,,,,,,,,,,,,,
,,,,,,,,,615e1782e969d4939045c54f,Mexican,13 or older,"no, only English or Spanish",no,2025-07-23_00h43.20.244,empathy_intonation_perc,2024.2.4,Win32,38.75968992,615e1782e969d4939045c54f,687ed1b7e638a4cbf2f02089,68809200c1faba141b73a9bf,,,,,,,,,,,,,63,0,,./stim/wavs/puertorican_match_declarative-broad-focus_Ana-lleva-el-abrigo.wav,,,,,,,,,,,,,,,,,,,,,,1195.6472,1199.1063,0,1,2.9498,0.0014,0,39,39,62,1,0,puertorican,,,,,,,,,,,,,,,,,,,,,,,,,,,,,,,,,,,,,,,,,,,,,,,,,,,,,,,,
,,,,,,,,,615e1782e969d4939045c54f,Mexican,13 or older,"no, only English or Spanish",no,2025-07-23_00h43.20.244,empathy_intonation_perc,2024.2.4,Win32,38.75968992,615e1782e969d4939045c54f,687ed1b7e638a4cbf2f02089,68809200c1faba141b73a9bf,,,,,,,,,,,,,55,0,,./stim/wavs/cuban_match_declarative-broad-focus_Mariano-habla-del-tiempo.wav,,,,,,,,,,,,,,,,,,,,,,1199.1079,1202.9144,0,1,3.2882,0.0012,0,40,40,54,1,0,cuban,,,,,,,,,,,,,,,,,,,,,,,,,,,,,,,,,,,,,,,,,,,,,,,,,,,,,,,,
,,,,,,,,,615e1782e969d4939045c54f,Mexican,13 or older,"no, only English or Spanish",no,2025-07-23_00h43.20.244,empathy_intonation_perc,2024.2.4,Win32,38.75968992,615e1782e969d4939045c54f,687ed1b7e638a4cbf2f02089,68809200c1faba141b73a9bf,,,,,,,,,,,,,16,1,,./stim/wavs/mexican_match_interrogative-total-yn_Emilio-ama-la-marcha.wav,,,,,,,,,,,,,,,,,,,,,,1202.9172,1206.2531,1,1,2.8042,0.0009,0,41,41,15,1,0,mexican,,,,,,,,,,,,,,,,,,,,,,,,,,,,,,,,,,,,,,,,,,,,,,,,,,,,,,,,
,,,,,,,,,615e1782e969d4939045c54f,Mexican,13 or older,"no, only English or Spanish",no,2025-07-23_00h43.20.244,empathy_intonation_perc,2024.2.4,Win32,38.75968992,615e1782e969d4939045c54f,687ed1b7e638a4cbf2f02089,68809200c1faba141b73a9bf,,,,,,,,,,,,,46,0,,./stim/wavs/castilian_match_declarative-broad-focus_Emilio-ama-la-marcha.wav,,,,,,,,,,,,,,,,,,,,,,1206.2551,1209.7158,0,1,2.9456,,0,42,42,45,1,0,castilian,,,,,,,,,,,,,,,,,,,,,,,,,,,,,,,,,,,,,,,,,,,,,,,,,,,,,,,,
,,,,,,,,,615e1782e969d4939045c54f,Mexican,13 or older,"no, only English or Spanish",no,2025-07-23_00h43.20.244,empathy_intonation_perc,2024.2.4,Win32,38.75968992,615e1782e969d4939045c54f,687ed1b7e638a4cbf2f02089,68809200c1faba141b73a9bf,,,,,,,,,,,,,60,0,,./stim/wavs/mexican_match_declarative-broad-focus_Emilio-ama-la-marcha.wav,,,,,,,,,,,,,,,,,,,,,,1209.7187,1213.2675,0,1,3.023,0.0066,0,43,43,59,1,0,mexican,,,,,,,,,,,,,,,,,,,,,,,,,,,,,,,,,,,,,,,,,,,,,,,,,,,,,,,,
,,,,,,,,,615e1782e969d4939045c54f,Mexican,13 or older,"no, only English or Spanish",no,2025-07-23_00h43.20.244,empathy_intonation_perc,2024.2.4,Win32,38.75968992,615e1782e969d4939045c54f,687ed1b7e638a4cbf2f02089,68809200c1faba141b73a9bf,,,,,,,,,,,,,56,0,,./stim/wavs/cuban_match_declarative-broad-focus_Marta-abre-el-regalo.wav,,,,,,,,,,,,,,,,,,,,,,1213.2709,1218.8799,0,1,5.0825,0.0008,0,44,44,55,1,0,cuban,,,,,,,,,,,,,,,,,,,,,,,,,,,,,,,,,,,,,,,,,,,,,,,,,,,,,,,,
,,,,,,,,,615e1782e969d4939045c54f,Mexican,13 or older,"no, only English or Spanish",no,2025-07-23_00h43.20.244,empathy_intonation_perc,2024.2.4,Win32,38.75968992,615e1782e969d4939045c54f,687ed1b7e638a4cbf2f02089,68809200c1faba141b73a9bf,,,,,,,,,,,,,74,0,,./stim/wavs/cuban_mismatch_declarative-broad-focus_El-bebe-comia-muy-bien.wav,,,,,,,,,,,,,,,,,,,,,,1218.8822,1222.3866,0,1,2.9843,0.0009,0,45,45,73,1,0,cuban,,,,,,,,,,,,,,,,,,,,,,,,,,,,,,,,,,,,,,,,,,,,,,,,,,,,,,,,
,,,,,,,,,615e1782e969d4939045c54f,Mexican,13 or older,"no, only English or Spanish",no,2025-07-23_00h43.20.244,empathy_intonation_perc,2024.2.4,Win32,38.75968992,615e1782e969d4939045c54f,687ed1b7e638a4cbf2f02089,68809200c1faba141b73a9bf,,,,,,,,,,,,,87,0,,./stim/wavs/puertorican_mismatch_declarative-broad-focus_La-maestra-vive-en-Paris.wav,,,,,,,,,,,,,,,,,,,,,,1222.39,1228.085,0,1,5.1255,0.0028,0,46,46,86,1,0,puertorican,,,,,,,,,,,,,,,,,,,,,,,,,,,,,,,,,,,,,,,,,,,,,,,,,,,,,,,,
,,,,,,,,,615e1782e969d4939045c54f,Mexican,13 or older,"no, only English or Spanish",no,2025-07-23_00h43.20.244,empathy_intonation_perc,2024.2.4,Win32,38.75968992,615e1782e969d4939045c54f,687ed1b7e638a4cbf2f02089,68809200c1faba141b73a9bf,,,,,,,,,,,,,64,0,,./stim/wavs/puertorican_match_declarative-broad-focus_Daniel-iba-a-Bolivia.wav,,,,,,,,,,,,,,,,,,,,,,1228.0866,1232.0335,0,1,3.4241,0.0014,0,47,47,63,1,0,puertorican,,,,,,,,,,,,,,,,,,,,,,,,,,,,,,,,,,,,,,,,,,,,,,,,,,,,,,,,
,,,,,,,,,615e1782e969d4939045c54f,Mexican,13 or older,"no, only English or Spanish",no,2025-07-23_00h43.20.244,empathy_intonation_perc,2024.2.4,Win32,38.75968992,615e1782e969d4939045c54f,687ed1b7e638a4cbf2f02089,68809200c1faba141b73a9bf,,,,,,,,,,,,,71,0,,./stim/wavs/castilian_mismatch_declarative-broad-focus_La-nina-lava-el-plato.wav,,,,,,,,,,,,,,,,,,,,,,1232.035,1237.9173,1,0,5.352,0.0013,0,48,48,70,1,0,castilian,,,,,,,,,,,,,,,,,,,,,,,,,,,,,,,,,,,,,,,,,,,,,,,,,,,,,,,,
,,,,,,,,,615e1782e969d4939045c54f,Mexican,13 or older,"no, only English or Spanish",no,2025-07-23_00h43.20.244,empathy_intonation_perc,2024.2.4,Win32,38.75968992,615e1782e969d4939045c54f,687ed1b7e638a4cbf2f02089,68809200c1faba141b73a9bf,,,,,,,,,,,,,2,1,,./stim/wavs/castilian_match_interrogative-total-yn_Emilio-ama-la-marcha.wav,,,,,,,,,,,,,,,,,,,,,,1237.9202,1244.3331,1,1,5.8864,0.0005,0,49,49,1,1,0,castilian,,,,,,,,,,,,,,,,,,,,,,,,,,,,,,,,,,,,,,,,,,,,,,,,,,,,,,,,
,,,,,,,,,615e1782e969d4939045c54f,Mexican,13 or older,"no, only English or Spanish",no,2025-07-23_00h43.20.244,empathy_intonation_perc,2024.2.4,Win32,38.75968992,615e1782e969d4939045c54f,687ed1b7e638a4cbf2f02089,68809200c1faba141b73a9bf,,,,,,,,,,,,,80,0,,./stim/wavs/mexican_mismatch_declarative-broad-focus_El-hombre-mira-la-luna.wav,,,,,,,,,,,,,,,,,,,,,,1244.3345,1248.6616,0,1,3.8056,0.0009,0,50,50,79,1,0,mexican,,,,,,,,,,,,,,,,,,,,,,,,,,,,,,,,,,,,,,,,,,,,,,,,,,,,,,,,
,,,,,,,,,615e1782e969d4939045c54f,Mexican,13 or older,"no, only English or Spanish",no,2025-07-23_00h43.20.244,empathy_intonation_perc,2024.2.4,Win32,38.75968992,615e1782e969d4939045c54f,687ed1b7e638a4cbf2f02089,68809200c1faba141b73a9bf,,,,,,,,,,,,,43,1,,./stim/wavs/puertorican_mismatch_interrogative-total-yn_La-nina-lava-el-plato.wav,,,,,,,,,,,,,,,,,,,,,,1248.6633,1251.8523,0,0,2.6734,0.0043,0,51,51,42,1,1,puertorican,,,,,,,,,,,,,,,,,,,,,,,,,,,,,,,,,,,,,,,,,,,,,,,,,,,,,,,,
,,,,,,,,,615e1782e969d4939045c54f,Mexican,13 or older,"no, only English or Spanish",no,2025-07-23_00h43.20.244,empathy_intonation_perc,2024.2.4,Win32,38.75968992,615e1782e969d4939045c54f,687ed1b7e638a4cbf2f02089,68809200c1faba141b73a9bf,,,,,,,,,,,,,11,1,,./stim/wavs/cuban_match_interrogative-total-yn_Mariano-habla-del-tiempo.wav,,,,,,,,,,,,,,,,,,,,,,1251.8539,1255.6152,0,0,3.2456,0.0017,0,52,52,10,1,1,cuban,,,,,,,,,,,,,,,,,,,,,,,,,,,,,,,,,,,,,,,,,,,,,,,,,,,,,,,,
,,,,,,,,,615e1782e969d4939045c54f,Mexican,13 or older,"no, only English or Spanish",no,2025-07-23_00h43.20.244,empathy_intonation_perc,2024.2.4,Win32,38.75968992,615e1782e969d4939045c54f,687ed1b7e638a4cbf2f02089,68809200c1faba141b73a9bf,,,,,,,,,,,,,50,0,,./stim/wavs/castilian_match_declarative-broad-focus_Marta-abre-el-regalo.wav,,,,,,,,,,,,,,,,,,,,,,1255.6163,1261.053,0,1,4.8988,0.0119,0,53,53,49,1,0,castilian,,,,,,,,,,,,,,,,,,,,,,,,,,,,,,,,,,,,,,,,,,,,,,,,,,,,,,,,
,,,,,,,,,615e1782e969d4939045c54f,Mexican,13 or older,"no, only English or Spanish",no,2025-07-23_00h43.20.244,empathy_intonation_perc,2024.2.4,Win32,38.75968992,615e1782e969d4939045c54f,687ed1b7e638a4cbf2f02089,68809200c1faba141b73a9bf,,,,,,,,,,,,,54,0,,./stim/wavs/cuban_match_declarative-broad-focus_Maria-bebe-el-vino.wav,,,,,,,,,,,,,,,,,,,,,,1261.0544,1264.4698,0,1,2.9013,0.0008,0,54,54,53,1,0,cuban,,,,,,,,,,,,,,,,,,,,,,,,,,,,,,,,,,,,,,,,,,,,,,,,,,,,,,,,
,,,,,,,,,615e1782e969d4939045c54f,Mexican,13 or older,"no, only English or Spanish",no,2025-07-23_00h43.20.244,empathy_intonation_perc,2024.2.4,Win32,38.75968992,615e1782e969d4939045c54f,687ed1b7e638a4cbf2f02089,68809200c1faba141b73a9bf,,,,,,,,,,,,,24,1,,./stim/wavs/puertorican_match_interrogative-total-yn_Maria-bebe-el-vino.wav,,,,,,,,,,,,,,,,,,,,,,1264.471,1267.7472,1,1,2.7623,0.0015,0,55,55,23,1,1,puertorican,,,,,,,,,,,,,,,,,,,,,,,,,,,,,,,,,,,,,,,,,,,,,,,,,,,,,,,,
,,,,,,,,,615e1782e969d4939045c54f,Mexican,13 or older,"no, only English or Spanish",no,2025-07-23_00h43.20.244,empathy_intonation_perc,2024.2.4,Win32,38.75968992,615e1782e969d4939045c54f,687ed1b7e638a4cbf2f02089,68809200c1faba141b73a9bf,,,,,,,,,,,,,44,1,,./stim/wavs/puertorican_mismatch_interrogative-total-yn_Mi-madre-come-la-fruta.wav,,,,,,,,,,,,,,,,,,,,,,1267.7505,1271.6311,0,0,3.3629,0.0008,0,56,56,43,1,1,puertorican,,,,,,,,,,,,,,,,,,,,,,,,,,,,,,,,,,,,,,,,,,,,,,,,,,,,,,,,
,,,,,,,,,615e1782e969d4939045c54f,Mexican,13 or older,"no, only English or Spanish",no,2025-07-23_00h43.20.244,empathy_intonation_perc,2024.2.4,Win32,38.75968992,615e1782e969d4939045c54f,687ed1b7e638a4cbf2f02089,68809200c1faba141b73a9bf,,,,,,,,,,,,,76,0,,./stim/wavs/cuban_mismatch_declarative-broad-focus_La-nina-lava-el-plato.wav,,,,,,,,,,,,,,,,,,,,,,1271.632,1275.7819,0,1,3.6241,0.0024,0,57,57,75,1,0,cuban,,,,,,,,,,,,,,,,,,,,,,,,,,,,,,,,,,,,,,,,,,,,,,,,,,,,,,,,
,,,,,,,,,615e1782e969d4939045c54f,Mexican,13 or older,"no, only English or Spanish",no,2025-07-23_00h43.20.244,empathy_intonation_perc,2024.2.4,Win32,38.75968992,615e1782e969d4939045c54f,687ed1b7e638a4cbf2f02089,68809200c1faba141b73a9bf,,,,,,,,,,,,,66,0,,./stim/wavs/puertorican_match_declarative-broad-focus_Emilio-ama-la-marcha.wav,,,,,,,,,,,,,,,,,,,,,,1275.783,1279.6786,0,1,3.3704,,0,58,58,65,1,0,puertorican,,,,,,,,,,,,,,,,,,,,,,,,,,,,,,,,,,,,,,,,,,,,,,,,,,,,,,,,
,,,,,,,,,615e1782e969d4939045c54f,Mexican,13 or older,"no, only English or Spanish",no,2025-07-23_00h43.20.244,empathy_intonation_perc,2024.2.4,Win32,38.75968992,615e1782e969d4939045c54f,687ed1b7e638a4cbf2f02089,68809200c1faba141b73a9bf,,,,,,,,,,,,,69,0,,./stim/wavs/castilian_mismatch_declarative-broad-focus_El-nino-oye-el-rio.wav,,,,,,,,,,,,,,,,,,,,,,1279.6812,1283.0563,0,1,2.867,0.0009,0,59,59,68,1,0,castilian,,,,,,,,,,,,,,,,,,,,,,,,,,,,,,,,,,,,,,,,,,,,,,,,,,,,,,,,
,,,,,,,,,615e1782e969d4939045c54f,Mexican,13 or older,"no, only English or Spanish",no,2025-07-23_00h43.20.244,empathy_intonation_perc,2024.2.4,Win32,38.75968992,615e1782e969d4939045c54f,687ed1b7e638a4cbf2f02089,68809200c1faba141b73a9bf,,,,,,,,,,,,,9,1,,./stim/wavs/cuban_match_interrogative-total-yn_Manuela-vende-el-carro.wav,,,,,,,,,,,,,,,,,,,,,,1283.0611,1288.2848,0,0,4.6975,0.0024,0,60,60,8,1,1,cuban,,,,,,,,,,,,,,,,,,,,,,,,,,,,,,,,,,,,,,,,,,,,,,,,,,,,,,,,
,,,,,,,,,615e1782e969d4939045c54f,Mexican,13 or older,"no, only English or Spanish",no,2025-07-23_00h43.20.244,empathy_intonation_perc,2024.2.4,Win32,38.75968992,615e1782e969d4939045c54f,687ed1b7e638a4cbf2f02089,68809200c1faba141b73a9bf,,,,,,,,,,,,,17,1,,./stim/wavs/mexican_match_interrogative-total-yn_Mariano-habla-del-tiempo.wav,,,,,,,,,,,,,,,,,,,,,,1288.2862,1292.2665,1,1,3.4632,0.0007,0,61,61,16,1,0,mexican,,,,,,,,,,,,,,,,,,,,,,,,,,,,,,,,,,,,,,,,,,,,,,,,,,,,,,,,
,,,,,,,,,615e1782e969d4939045c54f,Mexican,13 or older,"no, only English or Spanish",no,2025-07-23_00h43.20.244,empathy_intonation_perc,2024.2.4,Win32,38.75968992,615e1782e969d4939045c54f,687ed1b7e638a4cbf2f02089,68809200c1faba141b73a9bf,,,,,,,,,,,,,22,1,,./stim/wavs/puertorican_match_interrogative-total-yn_Emilio-ama-la-marcha.wav,,,,,,,,,,,,,,,,,,,,,,1292.27,1295.9652,1,1,3.1665,0.0016,0,62,62,21,1,1,puertorican,,,,,,,,,,,,,,,,,,,,,,,,,,,,,,,,,,,,,,,,,,,,,,,,,,,,,,,,
,,,,,,,,,615e1782e969d4939045c54f,Mexican,13 or older,"no, only English or Spanish",no,2025-07-23_00h43.20.244,empathy_intonation_perc,2024.2.4,Win32,38.75968992,615e1782e969d4939045c54f,687ed1b7e638a4cbf2f02089,68809200c1faba141b73a9bf,,,,,,,,,,,,,27,1,,./stim/wavs/castilian_mismatch_interrogative-total-yn_Mi-madre-come-la-fruta.wav,,,,,,,,,,,,,,,,,,,,,,1295.9685,1299.8942,1,1,3.3999,,0,63,63,26,1,0,castilian,,,,,,,,,,,,,,,,,,,,,,,,,,,,,,,,,,,,,,,,,,,,,,,,,,,,,,,,
,,,,,,,,,615e1782e969d4939045c54f,Mexican,13 or older,"no, only English or Spanish",no,2025-07-23_00h43.20.244,empathy_intonation_perc,2024.2.4,Win32,38.75968992,615e1782e969d4939045c54f,687ed1b7e638a4cbf2f02089,68809200c1faba141b73a9bf,,,,,,,,,,,,,53,0,,./stim/wavs/cuban_match_declarative-broad-focus_Manuela-vende-el-carro.wav,,,,,,,,,,,,,,,,,,,,,,1299.8963,1308.6945,0,1,8.2726,0.0009,0,64,64,52,1,0,cuban,,,,,,,,,,,,,,,,,,,,,,,,,,,,,,,,,,,,,,,,,,,,,,,,,,,,,,,,
,,,,,,,,,615e1782e969d4939045c54f,Mexican,13 or older,"no, only English or Spanish",no,2025-07-23_00h43.20.244,empathy_intonation_perc,2024.2.4,Win32,38.75968992,615e1782e969d4939045c54f,687ed1b7e638a4cbf2f02089,68809200c1faba141b73a9bf,,,,,,,,,,,,,51,0,,./stim/wavs/cuban_match_declarative-broad-focus_Ana-lleva-el-abrigo.wav,,,,,,,,,,,,,,,,,,,,,,1308.6955,1312.1296,0,1,2.9073,0.0017,0,65,65,50,1,0,cuban,,,,,,,,,,,,,,,,,,,,,,,,,,,,,,,,,,,,,,,,,,,,,,,,,,,,,,,,
,,,,,,,,,615e1782e969d4939045c54f,Mexican,13 or older,"no, only English or Spanish",no,2025-07-23_00h43.20.244,empathy_intonation_perc,2024.2.4,Win32,38.75968992,615e1782e969d4939045c54f,687ed1b7e638a4cbf2f02089,68809200c1faba141b73a9bf,,,,,,,,,,,,,20,1,,./stim/wavs/puertorican_match_interrogative-total-yn_Daniel-iba-a-Bolivia.wav,,,,,,,,,,,,,,,,,,,,,,1312.1307,1315.9269,0,0,3.2664,0.001,0,66,66,19,1,1,puertorican,,,,,,,,,,,,,,,,,,,,,,,,,,,,,,,,,,,,,,,,,,,,,,,,,,,,,,,,
,,,,,,,,,615e1782e969d4939045c54f,Mexican,13 or older,"no, only English or Spanish",no,2025-07-23_00h43.20.244,empathy_intonation_perc,2024.2.4,Win32,38.75968992,615e1782e969d4939045c54f,687ed1b7e638a4cbf2f02089,68809200c1faba141b73a9bf,,,,,,,,,,,,,6,1,,./stim/wavs/castilian_match_interrogative-total-yn_Marta-abre-el-regalo.wav,,,,,,,,,,,,,,,,,,,,,,1315.931,1319.2252,1,1,2.7404,0.0007,0,67,67,5,1,0,castilian,,,,,,,,,,,,,,,,,,,,,,,,,,,,,,,,,,,,,,,,,,,,,,,,,,,,,,,,
,,,,,,,,,615e1782e969d4939045c54f,Mexican,13 or older,"no, only English or Spanish",no,2025-07-23_00h43.20.244,empathy_intonation_perc,2024.2.4,Win32,38.75968992,615e1782e969d4939045c54f,687ed1b7e638a4cbf2f02089,68809200c1faba141b73a9bf,,,,,,,,,,,,,40,1,,./stim/wavs/puertorican_mismatch_interrogative-total-yn_El-hombre-mira-la-luna.wav,,,,,,,,,,,,,,,,,,,,,,1319.2276,1323.4793,0,0,3.7228,0.0008,0,68,68,39,1,1,puertorican,,,,,,,,,,,,,,,,,,,,,,,,,,,,,,,,,,,,,,,,,,,,,,,,,,,,,,,,
,,,,,,,,,615e1782e969d4939045c54f,Mexican,13 or older,"no, only English or Spanish",no,2025-07-23_00h43.20.244,empathy_intonation_perc,2024.2.4,Win32,38.75968992,615e1782e969d4939045c54f,687ed1b7e638a4cbf2f02089,68809200c1faba141b73a9bf,,,,,,,,,,,,,14,1,,./stim/wavs/mexican_match_interrogative-total-yn_Daniel-iba-a-Bolivia.wav,,,,,,,,,,,,,,,,,,,,,,1323.4844,1327.1194,1,1,3.1006,,0,69,69,13,1,0,mexican,,,,,,,,,,,,,,,,,,,,,,,,,,,,,,,,,,,,,,,,,,,,,,,,,,,,,,,,
,,,,,,,,,615e1782e969d4939045c54f,Mexican,13 or older,"no, only English or Spanish",no,2025-07-23_00h43.20.244,empathy_intonation_perc,2024.2.4,Win32,38.75968992,615e1782e969d4939045c54f,687ed1b7e638a4cbf2f02089,68809200c1faba141b73a9bf,,,,,,,,,,,,,61,0,,./stim/wavs/mexican_match_declarative-broad-focus_Mariano-habla-del-tiempo.wav,,,,,,,,,,,,,,,,,,,,,,1327.1205,1331.5962,0,1,3.9638,0.0008,0,70,70,60,1,0,mexican,,,,,,,,,,,,,,,,,,,,,,,,,,,,,,,,,,,,,,,,,,,,,,,,,,,,,,,,
,,,,,,,,,615e1782e969d4939045c54f,Mexican,13 or older,"no, only English or Spanish",no,2025-07-23_00h43.20.244,empathy_intonation_perc,2024.2.4,Win32,38.75968992,615e1782e969d4939045c54f,687ed1b7e638a4cbf2f02089,68809200c1faba141b73a9bf,,,,,,,,,,,,,7,1,,./stim/wavs/cuban_match_interrogative-total-yn_Ana-lleva-el-abrigo.wav,,,,,,,,,,,,,,,,,,,,,,1331.5981,1335.025,0,0,2.9023,0.0029,0,71,71,6,1,1,cuban,,,,,,,,,,,,,,,,,,,,,,,,,,,,,,,,,,,,,,,,,,,,,,,,,,,,,,,,
,,,,,,,,,615e1782e969d4939045c54f,Mexican,13 or older,"no, only English or Spanish",no,2025-07-23_00h43.20.244,empathy_intonation_perc,2024.2.4,Win32,38.75968992,615e1782e969d4939045c54f,687ed1b7e638a4cbf2f02089,68809200c1faba141b73a9bf,,,,,,,,,,,,,58,0,,./stim/wavs/mexican_match_declarative-broad-focus_Daniel-iba-a-Bolivia.wav,,,,,,,,,,,,,,,,,,,,,,1335.026,1338.7749,0,1,3.2164,0.0007,0,72,72,57,1,0,mexican,,,,,,,,,,,,,,,,,,,,,,,,,,,,,,,,,,,,,,,,,,,,,,,,,,,,,,,,
,,,,,,,,,615e1782e969d4939045c54f,Mexican,13 or older,"no, only English or Spanish",no,2025-07-23_00h43.20.244,empathy_intonation_perc,2024.2.4,Win32,38.75968992,615e1782e969d4939045c54f,687ed1b7e638a4cbf2f02089,68809200c1faba141b73a9bf,,,,,,,,,,,,,23,1,,./stim/wavs/puertorican_match_interrogative-total-yn_Manuela-vende-el-carro.wav,,,,,,,,,,,,,,,,,,,,,,1338.7765,1342.1612,0,0,2.8126,0.0015,0,73,73,22,1,1,puertorican,,,,,,,,,,,,,,,,,,,,,,,,,,,,,,,,,,,,,,,,,,,,,,,,,,,,,,,,
,,,,,,,,,615e1782e969d4939045c54f,Mexican,13 or older,"no, only English or Spanish",no,2025-07-23_00h43.20.244,empathy_intonation_perc,2024.2.4,Win32,38.75968992,615e1782e969d4939045c54f,687ed1b7e638a4cbf2f02089,68809200c1faba141b73a9bf,,,,,,,,,,,,,12,1,,./stim/wavs/cuban_match_interrogative-total-yn_Marta-abre-el-regalo.wav,,,,,,,,,,,,,,,,,,,,,,1342.1633,1345.2945,0,0,2.6076,0.0027,0,74,74,11,1,1,cuban,,,,,,,,,,,,,,,,,,,,,,,,,,,,,,,,,,,,,,,,,,,,,,,,,,,,,,,,
,,,,,,,,,615e1782e969d4939045c54f,Mexican,13 or older,"no, only English or Spanish",no,2025-07-23_00h43.20.244,empathy_intonation_perc,2024.2.4,Win32,38.75968992,615e1782e969d4939045c54f,687ed1b7e638a4cbf2f02089,68809200c1faba141b73a9bf,,,,,,,,,,,,,10,1,,./stim/wavs/cuban_match_interrogative-total-yn_Maria-bebe-el-vino.wav,,,,,,,,,,,,,,,,,,,,,,1345.2968,1348.8073,0,0,2.9889,0.0014,0,75,75,9,1,1,cuban,,,,,,,,,,,,,,,,,,,,,,,,,,,,,,,,,,,,,,,,,,,,,,,,,,,,,,,,
,,,,,,,,,615e1782e969d4939045c54f,Mexican,13 or older,"no, only English or Spanish",no,2025-07-23_00h43.20.244,empathy_intonation_perc,2024.2.4,Win32,38.75968992,615e1782e969d4939045c54f,687ed1b7e638a4cbf2f02089,68809200c1faba141b73a9bf,,,,,,,,,,,,,65,0,,./stim/wavs/puertorican_match_declarative-broad-focus_David-leia-el-libro.wav,,,,,,,,,,,,,,,,,,,,,,1348.8095,1352.3305,0,1,2.9917,0.0056,0,76,76,64,1,0,puertorican,,,,,,,,,,,,,,,,,,,,,,,,,,,,,,,,,,,,,,,,,,,,,,,,,,,,,,,,
,,,,,,,,,615e1782e969d4939045c54f,Mexican,13 or older,"no, only English or Spanish",no,2025-07-23_00h43.20.244,empathy_intonation_perc,2024.2.4,Win32,38.75968992,615e1782e969d4939045c54f,687ed1b7e638a4cbf2f02089,68809200c1faba141b73a9bf,,,,,,,,,,,,,84,0,,./stim/wavs/puertorican_mismatch_declarative-broad-focus_El-bebe-comia-muy-bien.wav,,,,,,,,,,,,,,,,,,,,,,1352.3322,1356.0786,0,1,3.2276,0.001,0,77,77,83,1,0,puertorican,,,,,,,,,,,,,,,,,,,,,,,,,,,,,,,,,,,,,,,,,,,,,,,,,,,,,,,,
,,,,,,,,,615e1782e969d4939045c54f,Mexican,13 or older,"no, only English or Spanish",no,2025-07-23_00h43.20.244,empathy_intonation_perc,2024.2.4,Win32,38.75968992,615e1782e969d4939045c54f,687ed1b7e638a4cbf2f02089,68809200c1faba141b73a9bf,,,,,,,,,,,,,85,0,,./stim/wavs/puertorican_mismatch_declarative-broad-focus_El-hombre-mira-la-luna.wav,,,,,,,,,,,,,,,,,,,,,,1356.0798,1359.7785,0,1,3.0513,,0,78,78,84,1,0,puertorican,,,,,,,,,,,,,,,,,,,,,,,,,,,,,,,,,,,,,,,,,,,,,,,,,,,,,,,,
,,,,,,,,,615e1782e969d4939045c54f,Mexican,13 or older,"no, only English or Spanish",no,2025-07-23_00h43.20.244,empathy_intonation_perc,2024.2.4,Win32,38.75968992,615e1782e969d4939045c54f,687ed1b7e638a4cbf2f02089,68809200c1faba141b73a9bf,,,,,,,,,,,,,28,1,,./stim/wavs/castilian_mismatch_interrogative-total-yn_Mi-novio-viene-del-lago.wav,,,,,,,,,,,,,,,,,,,,,,1359.7825,1363.8048,1,1,3.503,0.0017,0,79,79,27,1,0,castilian,,,,,,,,,,,,,,,,,,,,,,,,,,,,,,,,,,,,,,,,,,,,,,,,,,,,,,,,
,,,,,,,,,615e1782e969d4939045c54f,Mexican,13 or older,"no, only English or Spanish",no,2025-07-23_00h43.20.244,empathy_intonation_perc,2024.2.4,Win32,38.75968992,615e1782e969d4939045c54f,687ed1b7e638a4cbf2f02089,68809200c1faba141b73a9bf,,,,,,,,,,,,,38,1,,./stim/wavs/mexican_mismatch_interrogative-total-yn_Mi-novio-viene-del-lago.wav,,,,,,,,,,,,,,,,,,,,,,1363.8066,1372.5264,0,0,8.0728,0.0009,0,80,80,37,1,0,mexican,,,,,,,,,,,,,,,,,,,,,,,,,,,,,,,,,,,,,,,,,,,,,,,,,,,,,,,,
,,,,,,,,,615e1782e969d4939045c54f,Mexican,13 or older,"no, only English or Spanish",no,2025-07-23_00h43.20.244,empathy_intonation_perc,2024.2.4,Win32,38.75968992,615e1782e969d4939045c54f,687ed1b7e638a4cbf2f02089,68809200c1faba141b73a9bf,,,,,,,,,,,,,81,0,,./stim/wavs/mexican_mismatch_declarative-broad-focus_La-maestra-vive-en-Paris.wav,,,,,,,,,,,,,,,,,,,,,,1372.5278,1377.6268,0,1,4.5734,0.0008,0,81,81,80,1,0,mexican,,,,,,,,,,,,,,,,,,,,,,,,,,,,,,,,,,,,,,,,,,,,,,,,,,,,,,,,
,,,,,,,,,615e1782e969d4939045c54f,Mexican,13 or older,"no, only English or Spanish",no,2025-07-23_00h43.20.244,empathy_intonation_perc,2024.2.4,Win32,38.75968992,615e1782e969d4939045c54f,687ed1b7e638a4cbf2f02089,68809200c1faba141b73a9bf,,,,,,,,,,,,,25,1,,./stim/wavs/castilian_mismatch_interrogative-total-yn_La-maestra-vive-en-Paris.wav,,,,,,,,,,,,,,,,,,,,,,1377.6283,1382.0285,1,1,3.8824,,0,82,82,24,1,0,castilian,,,,,,,,,,,,,,,,,,,,,,,,,,,,,,,,,,,,,,,,,,,,,,,,,,,,,,,,
,,,,,,,,,615e1782e969d4939045c54f,Mexican,13 or older,"no, only English or Spanish",no,2025-07-23_00h43.20.244,empathy_intonation_perc,2024.2.4,Win32,38.75968992,615e1782e969d4939045c54f,687ed1b7e638a4cbf2f02089,68809200c1faba141b73a9bf,,,,,,,,,,,,,68,0,,./stim/wavs/puertorican_match_declarative-broad-focus_Maria-bebe-el-vino.wav,,,,,,,,,,,,,,,,,,,,,,1382.0317,1387.3809,0,1,4.8074,0.0068,0,83,83,67,1,0,puertorican,,,,,,,,,,,,,,,,,,,,,,,,,,,,,,,,,,,,,,,,,,,,,,,,,,,,,,,,
,,,,,,,,,615e1782e969d4939045c54f,Mexican,13 or older,"no, only English or Spanish",no,2025-07-23_00h43.20.244,empathy_intonation_perc,2024.2.4,Win32,38.75968992,615e1782e969d4939045c54f,687ed1b7e638a4cbf2f02089,68809200c1faba141b73a9bf,,,,,,,,,,,,,36,1,,./stim/wavs/mexican_mismatch_interrogative-total-yn_El-nino-oye-el-rio.wav,,,,,,,,,,,,,,,,,,,,,,1387.3828,1391.2918,1,1,3.3963,0.0011,0,84,84,35,1,0,mexican,,,,,,,,,,,,,,,,,,,,,,,,,,,,,,,,,,,,,,,,,,,,,,,,,,,,,,,,
,,,,,,,,,615e1782e969d4939045c54f,Mexican,13 or older,"no, only English or Spanish",no,2025-07-23_00h43.20.244,empathy_intonation_perc,2024.2.4,Win32,38.75968992,615e1782e969d4939045c54f,687ed1b7e638a4cbf2f02089,68809200c1faba141b73a9bf,,,,,,,,,,,,,48,0,,./stim/wavs/castilian_match_declarative-broad-focus_Maria-bebe-el-vino.wav,,,,,,,,,,,,,,,,,,,,,,1391.2927,1395.2749,0,1,3.4551,0.0008,0,85,85,47,1,0,castilian,,,,,,,,,,,,,,,,,,,,,,,,,,,,,,,,,,,,,,,,,,,,,,,,,,,,,,,,
,,,,,,,,,615e1782e969d4939045c54f,Mexican,13 or older,"no, only English or Spanish",no,2025-07-23_00h43.20.244,empathy_intonation_perc,2024.2.4,Win32,38.75968992,615e1782e969d4939045c54f,687ed1b7e638a4cbf2f02089,68809200c1faba141b73a9bf,,,,,,,,,,,,,57,0,,./stim/wavs/mexican_match_declarative-broad-focus_Ana-lleva-el-abrigo.wav,,,,,,,,,,,,,,,,,,,,,,1395.2768,1398.5045,0,1,2.7042,0.0012,0,86,86,56,1,0,mexican,,,,,,,,,,,,,,,,,,,,,,,,,,,,,,,,,,,,,,,,,,,,,,,,,,,,,,,,
,,,,,,,,,615e1782e969d4939045c54f,Mexican,13 or older,"no, only English or Spanish",no,2025-07-23_00h43.20.244,empathy_intonation_perc,2024.2.4,Win32,38.75968992,615e1782e969d4939045c54f,687ed1b7e638a4cbf2f02089,68809200c1faba141b73a9bf,,,,,,,,,,,,,19,1,,./stim/wavs/puertorican_match_interrogative-total-yn_Ana-lleva-el-abrigo.wav,,,,,,,,,,,,,,,,,,,,,,1398.506,1401.2421,1,1,2.2199,0.0061,0,87,87,18,1,1,puertorican,,,,,,,,,,,,,,,,,,,,,,,,,,,,,,,,,,,,,,,,,,,,,,,,,,,,,,,,
,,,,,,,"Great! Now we will move on. The next task consists of about 60 trials, in each of which you will see a string of letters. 
  
  Your task is to decide whether this is a real Spanish word or not.", (press the spacebar to continue),615e1782e969d4939045c54f,Mexican,13 or older,"no, only English or Spanish",no,2025-07-23_00h43.20.244,empathy_intonation_perc,2024.2.4,Win32,38.75968992,615e1782e969d4939045c54f,687ed1b7e638a4cbf2f02089,68809200c1faba141b73a9bf,,,,,,,,,,,,,,,,,,,,,,,,,,,,,,,,,,,,,,,,,,,,,,,,,,,1401.2631,1429.945,0,0,0,0,1,,,,,,,,,,,,,,,,,,,,,,,,,,,,,,,,,,,,,,,,,,,,,,,,,
,,,,,,,"If you think it is an existing Spanish word, you type '1' (for 'REAL'), and if you think it is not an existing Spanish word, you type '0' (for 'FAKE').", (press the spacebar to continue),615e1782e969d4939045c54f,Mexican,13 or older,"no, only English or Spanish",no,2025-07-23_00h43.20.244,empathy_intonation_perc,2024.2.4,Win32,38.75968992,615e1782e969d4939045c54f,687ed1b7e638a4cbf2f02089,68809200c1faba141b73a9bf,,,,,,,,,,,,,,,,,,,,,,,,,,,,,,,,,,,,,,,,,,,,,,,,,,,1429.9533,1439.1037,0,1,1,1,1,,,,,,,,,,,,,,,,,,,,,,,,,,,,,,,,,,,,,,,,,,,,,,,,,
,,,,,,,"If you are sure that the word exists, even though you don’t know its exact meaning, you may still respond '1' (REAL). 
  
  But if you are not sure if it is an existing word, you should respond '0' (FAKE).
  
  Let's do a practice round...", (press the spacebar to continue),615e1782e969d4939045c54f,Mexican,13 or older,"no, only English or Spanish",no,2025-07-23_00h43.20.244,empathy_intonation_perc,2024.2.4,Win32,38.75968992,615e1782e969d4939045c54f,687ed1b7e638a4cbf2f02089,68809200c1faba141b73a9bf,,,,,,,,,,,,,,,,,,,,,,,,,,,,,,,,,,,,,,,,,,,,,,,,,,,1439.1097,1448.1852,0,2,2,2,1,,,,,,,,,,,,,,,,,,,,,,,,,,,,,,,,,,,,,,,,,,,,,,,,,
,,,,,,,,,615e1782e969d4939045c54f,Mexican,13 or older,"no, only English or Spanish",no,2025-07-23_00h43.20.244,empathy_intonation_perc,2024.2.4,Win32,38.75968992,615e1782e969d4939045c54f,687ed1b7e638a4cbf2f02089,68809200c1faba141b73a9bf,,,,,,,,,,,,,,0,,,,,,,,,,,,,,,,,,,,,,,,,,,,,,,,,,,,,,,,,,,,1448.1964,1452.037,1,0,3.2307,0.0068,1452.0375,1453.0359,0,0,0,0,1,0,depiste,REAL,FAKE,,,,,,,,,,,,,,,,,,,,,,,,,,,,,,,,
,,,,,,,,,615e1782e969d4939045c54f,Mexican,13 or older,"no, only English or Spanish",no,2025-07-23_00h43.20.244,empathy_intonation_perc,2024.2.4,Win32,38.75968992,615e1782e969d4939045c54f,687ed1b7e638a4cbf2f02089,68809200c1faba141b73a9bf,,,,,,,,,,,,,,1,,,,,,,,,,,,,,,,,,,,,,,,,,,,,,,,,,,,,,,,,,,,1453.039,1455.9523,1,1,2.3835,0.0019,1455.9558,1456.9516,0,1,1,1,1,0,sí,REAL,FAKE,,,,,,,,,,,,,,,,,,,,,,,,,,,,,,,,
,,,,,,,,,615e1782e969d4939045c54f,Mexican,13 or older,"no, only English or Spanish",no,2025-07-23_00h43.20.244,empathy_intonation_perc,2024.2.4,Win32,38.75968992,615e1782e969d4939045c54f,687ed1b7e638a4cbf2f02089,68809200c1faba141b73a9bf,,,,,,,,,,,,,,0,,,,,,,,,,,,,,,,,,,,,,,,,,,,,,,,,,,,,,,,,,,,1456.9544,1461.6346,1,0,4.146,0.0018,1461.6376,1462.6336,0,2,2,2,1,0,coné,REAL,FAKE,,,,,,,,,,,,,,,,,,,,,,,,,,,,,,,,
,,,,,,,,,615e1782e969d4939045c54f,Mexican,13 or older,"no, only English or Spanish",no,2025-07-23_00h43.20.244,empathy_intonation_perc,2024.2.4,Win32,38.75968992,615e1782e969d4939045c54f,687ed1b7e638a4cbf2f02089,68809200c1faba141b73a9bf,,,,,,,,,,,,,,0,,,,,,,,,,,,,,,,,,,,,,,,,,,,,,,,,,,,,,,,,,,,1462.6369,1465.0495,1,0,1.8775,0.0005,1465.0498,1466.0519,0,3,3,3,1,0,calpar,REAL,FAKE,,,,,,,,,,,,,,,,,,,,,,,,,,,,,,,,
,,,,,,,,,615e1782e969d4939045c54f,Mexican,13 or older,"no, only English or Spanish",no,2025-07-23_00h43.20.244,empathy_intonation_perc,2024.2.4,Win32,38.75968992,615e1782e969d4939045c54f,687ed1b7e638a4cbf2f02089,68809200c1faba141b73a9bf,,,,,,,,,,,,,,0,,,,,,,,,,,,,,,,,,,,,,,,,,,,,,,,,,,,,,,,,,,,1466.0546,1468.2169,1,0,1.6288,0.0027,1468.2171,1469.2161,0,4,4,4,1,0,joten,REAL,FAKE,,,,,,,,,,,,,,,,,,,,,,,,,,,,,,,,
,,,,,,,,,615e1782e969d4939045c54f,Mexican,13 or older,"no, only English or Spanish",no,2025-07-23_00h43.20.244,empathy_intonation_perc,2024.2.4,Win32,38.75968992,615e1782e969d4939045c54f,687ed1b7e638a4cbf2f02089,68809200c1faba141b73a9bf,,,,,,,,,,,,,,1,,,,,,,,,,,,,,,,,,,,,,,,,,,,,,,,,,,,,,,,,,,,1469.2191,1471.4721,1,1,1.7119,0.0008,1471.4742,1472.4661,0,5,5,5,1,0,sacapuntas,REAL,FAKE,,,,,,,,,,,,,,,,,,,,,,,,,,,,,,,,
,,,,,,,,,615e1782e969d4939045c54f,Mexican,13 or older,"no, only English or Spanish",no,2025-07-23_00h43.20.244,empathy_intonation_perc,2024.2.4,Win32,38.75968992,615e1782e969d4939045c54f,687ed1b7e638a4cbf2f02089,68809200c1faba141b73a9bf,,,,,,,,,,,,,,0,,,,,,,,,,,,,,,,,,,,,,,,,,,,,,,,,,,,,,,,,,,,1472.469,1474.7693,0,1,1.7774,0.001,1474.7694,1475.7655,0,6,6,6,1,0,priba,REAL,FAKE,,,,,,,,,,,,,,,,,,,,,,,,,,,,,,,,
,,,,,,,,,615e1782e969d4939045c54f,Mexican,13 or older,"no, only English or Spanish",no,2025-07-23_00h43.20.244,empathy_intonation_perc,2024.2.4,Win32,38.75968992,615e1782e969d4939045c54f,687ed1b7e638a4cbf2f02089,68809200c1faba141b73a9bf,,,,,,,,,,,,,,0,,,,,,,,,,,,,,,,,,,,,,,,,,,,,,,,,,,,,,,,,,,,1475.7685,1478.3361,0,1,2.0341,0.0019,1478.3362,1479.3347,0,7,7,7,1,0,pelasula,REAL,FAKE,,,,,,,,,,,,,,,,,,,,,,,,,,,,,,,,
,,,,,,,,,615e1782e969d4939045c54f,Mexican,13 or older,"no, only English or Spanish",no,2025-07-23_00h43.20.244,empathy_intonation_perc,2024.2.4,Win32,38.75968992,615e1782e969d4939045c54f,687ed1b7e638a4cbf2f02089,68809200c1faba141b73a9bf,,,,,,,,,,,,,,1,,,,,,,,,,,,,,,,,,,,,,,,,,,,,,,,,,,,,,,,,,,,1479.3375,1481.4825,1,1,1.6044,0.0006,1481.4827,1482.4821,0,8,8,8,1,0,bien,REAL,FAKE,,,,,,,,,,,,,,,,,,,,,,,,,,,,,,,,
,,,,,,,,,615e1782e969d4939045c54f,Mexican,13 or older,"no, only English or Spanish",no,2025-07-23_00h43.20.244,empathy_intonation_perc,2024.2.4,Win32,38.75968992,615e1782e969d4939045c54f,687ed1b7e638a4cbf2f02089,68809200c1faba141b73a9bf,,,,,,,,,,,,,,1,,,,,,,,,,,,,,,,,,,,,,,,,,,,,,,,,,,,,,,,,,,,1482.485,1484.4324,1,1,1.4212,0.0009,1484.4324,1485.435,0,9,9,9,1,0,casa,REAL,FAKE,,,,,,,,,,,,,,,,,,,,,,,,,,,,,,,,
,,,,,,,,,615e1782e969d4939045c54f,Mexican,13 or older,"no, only English or Spanish",no,2025-07-23_00h43.20.244,empathy_intonation_perc,2024.2.4,Win32,38.75968992,615e1782e969d4939045c54f,687ed1b7e638a4cbf2f02089,68809200c1faba141b73a9bf,,,,,,,,,,,,,,0,,,,,,,,,,,,,,,,,,,,,,,,,,,,,,,,,,,,,,,,,,,,1485.4377,1487.3487,1,0,1.3744,0.0018,1487.3512,1488.3489,0,10,10,10,1,0,lejo,REAL,FAKE,,,,,,,,,,,,,,,,,,,,,,,,,,,,,,,,
,,,,,,,,,615e1782e969d4939045c54f,Mexican,13 or older,"no, only English or Spanish",no,2025-07-23_00h43.20.244,empathy_intonation_perc,2024.2.4,Win32,38.75968992,615e1782e969d4939045c54f,687ed1b7e638a4cbf2f02089,68809200c1faba141b73a9bf,,,,,,,,,,,,,,0,,,,,,,,,,,,,,,,,,,,,,,,,,,,,,,,,,,,,,,,,,,,1488.3519,1491.7355,1,0,2.8709,,1491.7355,1492.7339,0,11,11,11,1,0,pretantas,REAL,FAKE,,,,,,,,,,,,,,,,,,,,,,,,,,,,,,,,
,,,,,,,,,615e1782e969d4939045c54f,Mexican,13 or older,"no, only English or Spanish",no,2025-07-23_00h43.20.244,empathy_intonation_perc,2024.2.4,Win32,38.75968992,615e1782e969d4939045c54f,687ed1b7e638a4cbf2f02089,68809200c1faba141b73a9bf,,,,,,,,,,,,,,,,,,,,,,,,,,,,,,,,,,,,,,,,,,,,,,,,,,,,,,,,,,,,,,,,,,,,,,,,,,,1492.7343,1501.1336,,,,,,,,,,,,,,,,,,,,,,,,,,,,,,
,,,,,,,,,615e1782e969d4939045c54f,Mexican,13 or older,"no, only English or Spanish",no,2025-07-23_00h43.20.244,empathy_intonation_perc,2024.2.4,Win32,38.75968992,615e1782e969d4939045c54f,687ed1b7e638a4cbf2f02089,68809200c1faba141b73a9bf,,,,,,,,,,,,,,1,,,,,,,,,,,,,,,,,,,,,,,,,,,,,,,,,,,,,,,,,,,,,,,,,,,,,,,,,45,jilguero,,,,,1501.163,1504.6011,0,0,2.9086,0.001,0,0,0,44,1,REAL,FAKE,,,,,,,,,,,,,,,,,
,,,,,,,,,615e1782e969d4939045c54f,Mexican,13 or older,"no, only English or Spanish",no,2025-07-23_00h43.20.244,empathy_intonation_perc,2024.2.4,Win32,38.75968992,615e1782e969d4939045c54f,687ed1b7e638a4cbf2f02089,68809200c1faba141b73a9bf,,,,,,,,,,,,,,1,,,,,,,,,,,,,,,,,,,,,,,,,,,,,,,,,,,,,,,,,,,,,,,,,,,,,,,,,46,martillo,,,,,1504.6042,1506.5833,1,1,1.4496,0.0012,0,1,1,45,1,REAL,FAKE,,,,,,,,,,,,,,,,,
,,,,,,,,,615e1782e969d4939045c54f,Mexican,13 or older,"no, only English or Spanish",no,2025-07-23_00h43.20.244,empathy_intonation_perc,2024.2.4,Win32,38.75968992,615e1782e969d4939045c54f,687ed1b7e638a4cbf2f02089,68809200c1faba141b73a9bf,,,,,,,,,,,,,,1,,,,,,,,,,,,,,,,,,,,,,,,,,,,,,,,,,,,,,,,,,,,,,,,,,,,,,,,,64,orgulloso,,,,,1506.5886,1511.6685,0,0,4.5523,0.0012,0,2,2,63,1,REAL,FAKE,,,,,,,,,,,,,,,,,
,,,,,,,,,615e1782e969d4939045c54f,Mexican,13 or older,"no, only English or Spanish",no,2025-07-23_00h43.20.244,empathy_intonation_perc,2024.2.4,Win32,38.75968992,615e1782e969d4939045c54f,687ed1b7e638a4cbf2f02089,68809200c1faba141b73a9bf,,,,,,,,,,,,,,1,,,,,,,,,,,,,,,,,,,,,,,,,,,,,,,,,,,,,,,,,,,,,,,,,,,,,,,,,49,ganar,,,,,1511.6709,1513.6499,0,0,1.4419,0.0027,0,3,3,48,1,REAL,FAKE,,,,,,,,,,,,,,,,,
,,,,,,,,,615e1782e969d4939045c54f,Mexican,13 or older,"no, only English or Spanish",no,2025-07-23_00h43.20.244,empathy_intonation_perc,2024.2.4,Win32,38.75968992,615e1782e969d4939045c54f,687ed1b7e638a4cbf2f02089,68809200c1faba141b73a9bf,,,,,,,,,,,,,,1,,,,,,,,,,,,,,,,,,,,,,,,,,,,,,,,,,,,,,,,,,,,,,,,,,,,,,,,,14,yunque,,,,,1513.6519,1515.6327,0,0,1.4514,0.0031,0,4,4,13,1,REAL,FAKE,,,,,,,,,,,,,,,,,
,,,,,,,,,615e1782e969d4939045c54f,Mexican,13 or older,"no, only English or Spanish",no,2025-07-23_00h43.20.244,empathy_intonation_perc,2024.2.4,Win32,38.75968992,615e1782e969d4939045c54f,687ed1b7e638a4cbf2f02089,68809200c1faba141b73a9bf,,,,,,,,,,,,,,1,,,,,,,,,,,,,,,,,,,,,,,,,,,,,,,,,,,,,,,,,,,,,,,,,,,,,,,,,51,candado,,,,,1515.6347,1517.5143,1,1,1.345,0.0027,0,5,5,50,1,REAL,FAKE,,,,,,,,,,,,,,,,,
,,,,,,,,,615e1782e969d4939045c54f,Mexican,13 or older,"no, only English or Spanish",no,2025-07-23_00h43.20.244,empathy_intonation_perc,2024.2.4,Win32,38.75968992,615e1782e969d4939045c54f,687ed1b7e638a4cbf2f02089,68809200c1faba141b73a9bf,,,,,,,,,,,,,,1,,,,,,,,,,,,,,,,,,,,,,,,,,,,,,,,,,,,,,,,,,,,,,,,,,,,,,,,,52,camisa,,,,,1517.5167,1519.3331,1,1,1.2857,0.0005,0,6,6,51,1,REAL,FAKE,,,,,,,,,,,,,,,,,
,,,,,,,,,615e1782e969d4939045c54f,Mexican,13 or older,"no, only English or Spanish",no,2025-07-23_00h43.20.244,empathy_intonation_perc,2024.2.4,Win32,38.75968992,615e1782e969d4939045c54f,687ed1b7e638a4cbf2f02089,68809200c1faba141b73a9bf,,,,,,,,,,,,,,1,,,,,,,,,,,,,,,,,,,,,,,,,,,,,,,,,,,,,,,,,,,,,,,,,,,,,,,,,81,pozo,,,,,1519.3367,1521.5154,1,1,1.646,0.0056,0,7,7,80,1,REAL,FAKE,,,,,,,,,,,,,,,,,
,,,,,,,,,615e1782e969d4939045c54f,Mexican,13 or older,"no, only English or Spanish",no,2025-07-23_00h43.20.244,empathy_intonation_perc,2024.2.4,Win32,38.75968992,615e1782e969d4939045c54f,687ed1b7e638a4cbf2f02089,68809200c1faba141b73a9bf,,,,,,,,,,,,,,1,,,,,,,,,,,,,,,,,,,,,,,,,,,,,,,,,,,,,,,,,,,,,,,,,,,,,,,,,20,ávido,,,,,1521.5191,1523.4344,1,1,1.3848,0.0008,0,8,8,19,1,REAL,FAKE,,,,,,,,,,,,,,,,,
,,,,,,,,,615e1782e969d4939045c54f,Mexican,13 or older,"no, only English or Spanish",no,2025-07-23_00h43.20.244,empathy_intonation_perc,2024.2.4,Win32,38.75968992,615e1782e969d4939045c54f,687ed1b7e638a4cbf2f02089,68809200c1faba141b73a9bf,,,,,,,,,,,,,,1,,,,,,,,,,,,,,,,,,,,,,,,,,,,,,,,,,,,,,,,,,,,,,,,,,,,,,,,,57,tacaño,,,,,1523.4372,1527.1154,1,1,3.1489,0.0008,0,9,9,56,1,REAL,FAKE,,,,,,,,,,,,,,,,,
,,,,,,,,,615e1782e969d4939045c54f,Mexican,13 or older,"no, only English or Spanish",no,2025-07-23_00h43.20.244,empathy_intonation_perc,2024.2.4,Win32,38.75968992,615e1782e969d4939045c54f,687ed1b7e638a4cbf2f02089,68809200c1faba141b73a9bf,,,,,,,,,,,,,,0,,,,,,,,,,,,,,,,,,,,,,,,,,,,,,,,,,,,,,,,,,,,,,,,,,,,,,,,,72,pemición,,,,,1527.1188,1533.6653,0,1,6.0073,0.0007,0,10,10,71,1,REAL,FAKE,,,,,,,,,,,,,,,,,
,,,,,,,,,615e1782e969d4939045c54f,Mexican,13 or older,"no, only English or Spanish",no,2025-07-23_00h43.20.244,empathy_intonation_perc,2024.2.4,Win32,38.75968992,615e1782e969d4939045c54f,687ed1b7e638a4cbf2f02089,68809200c1faba141b73a9bf,,,,,,,,,,,,,,0,,,,,,,,,,,,,,,,,,,,,,,,,,,,,,,,,,,,,,,,,,,,,,,,,,,,,,,,,17,floroso,,,,,1533.6677,1537.882,1,0,3.6811,,0,11,11,16,1,REAL,FAKE,,,,,,,,,,,,,,,,,
,,,,,,,,,615e1782e969d4939045c54f,Mexican,13 or older,"no, only English or Spanish",no,2025-07-23_00h43.20.244,empathy_intonation_perc,2024.2.4,Win32,38.75968992,615e1782e969d4939045c54f,687ed1b7e638a4cbf2f02089,68809200c1faba141b73a9bf,,,,,,,,,,,,,,1,,,,,,,,,,,,,,,,,,,,,,,,,,,,,,,,,,,,,,,,,,,,,,,,,,,,,,,,,3,pulmones,,,,,1537.8839,1546.5825,0,0,8.1663,0.001,0,12,12,2,1,REAL,FAKE,,,,,,,,,,,,,,,,,
,,,,,,,,,615e1782e969d4939045c54f,Mexican,13 or older,"no, only English or Spanish",no,2025-07-23_00h43.20.244,empathy_intonation_perc,2024.2.4,Win32,38.75968992,615e1782e969d4939045c54f,687ed1b7e638a4cbf2f02089,68809200c1faba141b73a9bf,,,,,,,,,,,,,,0,,,,,,,,,,,,,,,,,,,,,,,,,,,,,,,,,,,,,,,,,,,,,,,,,,,,,,,,,18,arsa,,,,,1546.5845,1556.229,0,1,9.1127,0.0012,0,13,13,17,1,REAL,FAKE,,,,,,,,,,,,,,,,,
,,,,,,,,,615e1782e969d4939045c54f,Mexican,13 or older,"no, only English or Spanish",no,2025-07-23_00h43.20.244,empathy_intonation_perc,2024.2.4,Win32,38.75968992,615e1782e969d4939045c54f,687ed1b7e638a4cbf2f02089,68809200c1faba141b73a9bf,,,,,,,,,,,,,,0,,,,,,,,,,,,,,,,,,,,,,,,,,,,,,,,,,,,,,,,,,,,,,,,,,,,,,,,,19,brecedad,,,,,1556.231,1558.2819,1,0,1.5087,0.0065,0,14,14,18,1,REAL,FAKE,,,,,,,,,,,,,,,,,
,,,,,,,,,615e1782e969d4939045c54f,Mexican,13 or older,"no, only English or Spanish",no,2025-07-23_00h43.20.244,empathy_intonation_perc,2024.2.4,Win32,38.75968992,615e1782e969d4939045c54f,687ed1b7e638a4cbf2f02089,68809200c1faba141b73a9bf,,,,,,,,,,,,,,1,,,,,,,,,,,,,,,,,,,,,,,,,,,,,,,,,,,,,,,,,,,,,,,,,,,,,,,,,83,guante,,,,,1558.2837,1560.415,1,1,1.5898,0.0007,0,15,15,82,1,REAL,FAKE,,,,,,,,,,,,,,,,,
,,,,,,,,,615e1782e969d4939045c54f,Mexican,13 or older,"no, only English or Spanish",no,2025-07-23_00h43.20.244,empathy_intonation_perc,2024.2.4,Win32,38.75968992,615e1782e969d4939045c54f,687ed1b7e638a4cbf2f02089,68809200c1faba141b73a9bf,,,,,,,,,,,,,,1,,,,,,,,,,,,,,,,,,,,,,,,,,,,,,,,,,,,,,,,,,,,,,,,,,,,,,,,,9,hacha,,,,,1560.4171,1563.413,1,1,2.4582,0.001,0,16,16,8,1,REAL,FAKE,,,,,,,,,,,,,,,,,
,,,,,,,,,615e1782e969d4939045c54f,Mexican,13 or older,"no, only English or Spanish",no,2025-07-23_00h43.20.244,empathy_intonation_perc,2024.2.4,Win32,38.75968992,615e1782e969d4939045c54f,687ed1b7e638a4cbf2f02089,68809200c1faba141b73a9bf,,,,,,,,,,,,,,1,,,,,,,,,,,,,,,,,,,,,,,,,,,,,,,,,,,,,,,,,,,,,,,,,,,,,,,,,31,pandilla,,,,,1563.4152,1566.462,0,0,2.5102,0.0008,0,17,17,30,1,REAL,FAKE,,,,,,,,,,,,,,,,,
,,,,,,,,,615e1782e969d4939045c54f,Mexican,13 or older,"no, only English or Spanish",no,2025-07-23_00h43.20.244,empathy_intonation_perc,2024.2.4,Win32,38.75968992,615e1782e969d4939045c54f,687ed1b7e638a4cbf2f02089,68809200c1faba141b73a9bf,,,,,,,,,,,,,,1,,,,,,,,,,,,,,,,,,,,,,,,,,,,,,,,,,,,,,,,,,,,,,,,,,,,,,,,,60,matar,,,,,1566.464,1568.5824,1,1,1.5801,0.0008,0,18,18,59,1,REAL,FAKE,,,,,,,,,,,,,,,,,
,,,,,,,,,615e1782e969d4939045c54f,Mexican,13 or older,"no, only English or Spanish",no,2025-07-23_00h43.20.244,empathy_intonation_perc,2024.2.4,Win32,38.75968992,615e1782e969d4939045c54f,687ed1b7e638a4cbf2f02089,68809200c1faba141b73a9bf,,,,,,,,,,,,,,1,,,,,,,,,,,,,,,,,,,,,,,,,,,,,,,,,,,,,,,,,,,,,,,,,,,,,,,,,25,bisagra,,,,,1568.5849,1573.5134,0,0,4.398,0.0006,0,19,19,24,1,REAL,FAKE,,,,,,,,,,,,,,,,,
,,,,,,,,,615e1782e969d4939045c54f,Mexican,13 or older,"no, only English or Spanish",no,2025-07-23_00h43.20.244,empathy_intonation_perc,2024.2.4,Win32,38.75968992,615e1782e969d4939045c54f,687ed1b7e638a4cbf2f02089,68809200c1faba141b73a9bf,,,,,,,,,,,,,,0,,,,,,,,,,,,,,,,,,,,,,,,,,,,,,,,,,,,,,,,,,,,,,,,,,,,,,,,,70,temblo,,,,,1573.516,1576.0315,1,0,1.9793,0.0052,0,20,20,69,1,REAL,FAKE,,,,,,,,,,,,,,,,,
,,,,,,,,,615e1782e969d4939045c54f,Mexican,13 or older,"no, only English or Spanish",no,2025-07-23_00h43.20.244,empathy_intonation_perc,2024.2.4,Win32,38.75968992,615e1782e969d4939045c54f,687ed1b7e638a4cbf2f02089,68809200c1faba141b73a9bf,,,,,,,,,,,,,,1,,,,,,,,,,,,,,,,,,,,,,,,,,,,,,,,,,,,,,,,,,,,,,,,,,,,,,,,,5,zapato,,,,,1576.0341,1578.1274,0,0,1.5549,0.0037,0,21,21,4,1,REAL,FAKE,,,,,,,,,,,,,,,,,
,,,,,,,,,615e1782e969d4939045c54f,Mexican,13 or older,"no, only English or Spanish",no,2025-07-23_00h43.20.244,empathy_intonation_perc,2024.2.4,Win32,38.75968992,615e1782e969d4939045c54f,687ed1b7e638a4cbf2f02089,68809200c1faba141b73a9bf,,,,,,,,,,,,,,1,,,,,,,,,,,,,,,,,,,,,,,,,,,,,,,,,,,,,,,,,,,,,,,,,,,,,,,,,67,cabello,,,,,1578.1322,1583.681,1,1,5.0111,0.0006,0,22,22,66,1,REAL,FAKE,,,,,,,,,,,,,,,,,
,,,,,,,,,615e1782e969d4939045c54f,Mexican,13 or older,"no, only English or Spanish",no,2025-07-23_00h43.20.244,empathy_intonation_perc,2024.2.4,Win32,38.75968992,615e1782e969d4939045c54f,687ed1b7e638a4cbf2f02089,68809200c1faba141b73a9bf,,,,,,,,,,,,,,1,,,,,,,,,,,,,,,,,,,,,,,,,,,,,,,,,,,,,,,,,,,,,,,,,,,,,,,,,26,secuestro,,,,,1583.6836,1585.9136,1,1,1.6964,,0,23,23,25,1,REAL,FAKE,,,,,,,,,,,,,,,,,
,,,,,,,,,615e1782e969d4939045c54f,Mexican,13 or older,"no, only English or Spanish",no,2025-07-23_00h43.20.244,empathy_intonation_perc,2024.2.4,Win32,38.75968992,615e1782e969d4939045c54f,687ed1b7e638a4cbf2f02089,68809200c1faba141b73a9bf,,,,,,,,,,,,,,0,,,,,,,,,,,,,,,,,,,,,,,,,,,,,,,,,,,,,,,,,,,,,,,,,,,,,,,,,53,vegada,,,,,1585.9153,1587.896,1,0,1.4446,0.0011,0,24,24,52,1,REAL,FAKE,,,,,,,,,,,,,,,,,
,,,,,,,,,615e1782e969d4939045c54f,Mexican,13 or older,"no, only English or Spanish",no,2025-07-23_00h43.20.244,empathy_intonation_perc,2024.2.4,Win32,38.75968992,615e1782e969d4939045c54f,687ed1b7e638a4cbf2f02089,68809200c1faba141b73a9bf,,,,,,,,,,,,,,0,,,,,,,,,,,,,,,,,,,,,,,,,,,,,,,,,,,,,,,,,,,,,,,,,,,,,,,,,35,rompido,,,,,1587.8983,1589.9787,1,0,1.5425,0.0013,0,25,25,34,1,REAL,FAKE,,,,,,,,,,,,,,,,,
,,,,,,,,,615e1782e969d4939045c54f,Mexican,13 or older,"no, only English or Spanish",no,2025-07-23_00h43.20.244,empathy_intonation_perc,2024.2.4,Win32,38.75968992,615e1782e969d4939045c54f,687ed1b7e638a4cbf2f02089,68809200c1faba141b73a9bf,,,,,,,,,,,,,,0,,,,,,,,,,,,,,,,,,,,,,,,,,,,,,,,,,,,,,,,,,,,,,,,,,,,,,,,,82,empirador,,,,,1589.9812,1593.0788,1,0,2.5586,0.0048,0,26,26,81,1,REAL,FAKE,,,,,,,,,,,,,,,,,
,,,,,,,,,615e1782e969d4939045c54f,Mexican,13 or older,"no, only English or Spanish",no,2025-07-23_00h43.20.244,empathy_intonation_perc,2024.2.4,Win32,38.75968992,615e1782e969d4939045c54f,687ed1b7e638a4cbf2f02089,68809200c1faba141b73a9bf,,,,,,,,,,,,,,0,,,,,,,,,,,,,,,,,,,,,,,,,,,,,,,,,,,,,,,,,,,,,,,,,,,,,,,,,23,lampera,,,,,1593.081,1595.4285,0,1,1.8119,0.0024,0,27,27,22,1,REAL,FAKE,,,,,,,,,,,,,,,,,
,,,,,,,,,615e1782e969d4939045c54f,Mexican,13 or older,"no, only English or Spanish",no,2025-07-23_00h43.20.244,empathy_intonation_perc,2024.2.4,Win32,38.75968992,615e1782e969d4939045c54f,687ed1b7e638a4cbf2f02089,68809200c1faba141b73a9bf,,,,,,,,,,,,,,1,,,,,,,,,,,,,,,,,,,,,,,,,,,,,,,,,,,,,,,,,,,,,,,,,,,,,,,,,80,hormiga,,,,,1595.4305,1598.4271,1,1,2.4602,0.0008,0,28,28,79,1,REAL,FAKE,,,,,,,,,,,,,,,,,
,,,,,,,,,615e1782e969d4939045c54f,Mexican,13 or older,"no, only English or Spanish",no,2025-07-23_00h43.20.244,empathy_intonation_perc,2024.2.4,Win32,38.75968992,615e1782e969d4939045c54f,687ed1b7e638a4cbf2f02089,68809200c1faba141b73a9bf,,,,,,,,,,,,,,1,,,,,,,,,,,,,,,,,,,,,,,,,,,,,,,,,,,,,,,,,,,,,,,,,,,,,,,,,28,merodear,,,,,1598.429,1600.5834,0,0,1.6193,0.0009,0,29,29,27,1,REAL,FAKE,,,,,,,,,,,,,,,,,
,,,,,,,,,615e1782e969d4939045c54f,Mexican,13 or older,"no, only English or Spanish",no,2025-07-23_00h43.20.244,empathy_intonation_perc,2024.2.4,Win32,38.75968992,615e1782e969d4939045c54f,687ed1b7e638a4cbf2f02089,68809200c1faba141b73a9bf,,,,,,,,,,,,,,1,,,,,,,,,,,,,,,,,,,,,,,,,,,,,,,,,,,,,,,,,,,,,,,,,,,,,,,,,48,ladrón,,,,,1600.5863,1603.1808,0,0,2.0679,0.0006,0,30,30,47,1,REAL,FAKE,,,,,,,,,,,,,,,,,
,,,,,,,,,615e1782e969d4939045c54f,Mexican,13 or older,"no, only English or Spanish",no,2025-07-23_00h43.20.244,empathy_intonation_perc,2024.2.4,Win32,38.75968992,615e1782e969d4939045c54f,687ed1b7e638a4cbf2f02089,68809200c1faba141b73a9bf,,,,,,,,,,,,,,1,,,,,,,,,,,,,,,,,,,,,,,,,,,,,,,,,,,,,,,,,,,,,,,,,,,,,,,,,24,látigo,,,,,1603.1837,1605.9816,0,0,2.2535,0.0006,0,31,31,23,1,REAL,FAKE,,,,,,,,,,,,,,,,,
,,,,,,,,,615e1782e969d4939045c54f,Mexican,13 or older,"no, only English or Spanish",no,2025-07-23_00h43.20.244,empathy_intonation_perc,2024.2.4,Win32,38.75968992,615e1782e969d4939045c54f,687ed1b7e638a4cbf2f02089,68809200c1faba141b73a9bf,,,,,,,,,,,,,,0,,,,,,,,,,,,,,,,,,,,,,,,,,,,,,,,,,,,,,,,,,,,,,,,,,,,,,,,,32,fatacidad,,,,,1605.9842,1609.0255,1,0,2.514,0.0012,0,32,32,31,1,REAL,FAKE,,,,,,,,,,,,,,,,,
,,,,,,,,,615e1782e969d4939045c54f,Mexican,13 or older,"no, only English or Spanish",no,2025-07-23_00h43.20.244,empathy_intonation_perc,2024.2.4,Win32,38.75968992,615e1782e969d4939045c54f,687ed1b7e638a4cbf2f02089,68809200c1faba141b73a9bf,,,,,,,,,,,,,,0,,,,,,,,,,,,,,,,,,,,,,,,,,,,,,,,,,,,,,,,,,,,,,,,,,,,,,,,,1,terzo,,,,,1609.0296,1610.9421,1,0,1.3758,0.0012,0,33,33,0,1,REAL,FAKE,,,,,,,,,,,,,,,,,
,,,,,,,,,615e1782e969d4939045c54f,Mexican,13 or older,"no, only English or Spanish",no,2025-07-23_00h43.20.244,empathy_intonation_perc,2024.2.4,Win32,38.75968992,615e1782e969d4939045c54f,687ed1b7e638a4cbf2f02089,68809200c1faba141b73a9bf,,,,,,,,,,,,,,0,,,,,,,,,,,,,,,,,,,,,,,,,,,,,,,,,,,,,,,,,,,,,,,,,,,,,,,,,63,esposante,,,,,1610.9457,1612.8945,1,0,1.4115,0.001,0,34,34,62,1,REAL,FAKE,,,,,,,,,,,,,,,,,
,,,,,,,,,615e1782e969d4939045c54f,Mexican,13 or older,"no, only English or Spanish",no,2025-07-23_00h43.20.244,empathy_intonation_perc,2024.2.4,Win32,38.75968992,615e1782e969d4939045c54f,687ed1b7e638a4cbf2f02089,68809200c1faba141b73a9bf,,,,,,,,,,,,,,1,,,,,,,,,,,,,,,,,,,,,,,,,,,,,,,,,,,,,,,,,,,,,,,,,,,,,,,,,22,lacayo,,,,,1612.8967,1614.6621,0,0,1.2303,0.0034,0,35,35,21,1,REAL,FAKE,,,,,,,,,,,,,,,,,
,,,,,,,,,615e1782e969d4939045c54f,Mexican,13 or older,"no, only English or Spanish",no,2025-07-23_00h43.20.244,empathy_intonation_perc,2024.2.4,Win32,38.75968992,615e1782e969d4939045c54f,687ed1b7e638a4cbf2f02089,68809200c1faba141b73a9bf,,,,,,,,,,,,,,1,,,,,,,,,,,,,,,,,,,,,,,,,,,,,,,,,,,,,,,,,,,,,,,,,,,,,,,,,55,nevar,,,,,1614.6662,1707.7933,1,1,92.6048,,0,36,36,54,1,REAL,FAKE,,,,,,,,,,,,,,,,,
,,,,,,,,,615e1782e969d4939045c54f,Mexican,13 or older,"no, only English or Spanish",no,2025-07-23_00h43.20.244,empathy_intonation_perc,2024.2.4,Win32,38.75968992,615e1782e969d4939045c54f,687ed1b7e638a4cbf2f02089,68809200c1faba141b73a9bf,,,,,,,,,,,,,,1,,,,,,,,,,,,,,,,,,,,,,,,,,,,,,,,,,,,,,,,,,,,,,,,,,,,,,,,,11,cenefa,,,,,1707.7979,1714.6367,0,0,6.3025,0.0011,0,37,37,10,1,REAL,FAKE,,,,,,,,,,,,,,,,,
,,,,,,,,,615e1782e969d4939045c54f,Mexican,13 or older,"no, only English or Spanish",no,2025-07-23_00h43.20.244,empathy_intonation_perc,2024.2.4,Win32,38.75968992,615e1782e969d4939045c54f,687ed1b7e638a4cbf2f02089,68809200c1faba141b73a9bf,,,,,,,,,,,,,,1,,,,,,,,,,,,,,,,,,,,,,,,,,,,,,,,,,,,,,,,,,,,,,,,,,,,,,,,,34,aviso,,,,,1714.6383,1716.7555,1,1,1.598,0.0008,0,38,38,33,1,REAL,FAKE,,,,,,,,,,,,,,,,,
,,,,,,,,,615e1782e969d4939045c54f,Mexican,13 or older,"no, only English or Spanish",no,2025-07-23_00h43.20.244,empathy_intonation_perc,2024.2.4,Win32,38.75968992,615e1782e969d4939045c54f,687ed1b7e638a4cbf2f02089,68809200c1faba141b73a9bf,,,,,,,,,,,,,,1,,,,,,,,,,,,,,,,,,,,,,,,,,,,,,,,,,,,,,,,,,,,,,,,,,,,,,,,,44,cuchara,,,,,1716.7573,1719.7048,1,1,2.4136,,0,39,39,43,1,REAL,FAKE,,,,,,,,,,,,,,,,,
,,,,,,,,,615e1782e969d4939045c54f,Mexican,13 or older,"no, only English or Spanish",no,2025-07-23_00h43.20.244,empathy_intonation_perc,2024.2.4,Win32,38.75968992,615e1782e969d4939045c54f,687ed1b7e638a4cbf2f02089,68809200c1faba141b73a9bf,,,,,,,,,,,,,,1,,,,,,,,,,,,,,,,,,,,,,,,,,,,,,,,,,,,,,,,,,,,,,,,,,,,,,,,,69,engatusar,,,,,1719.7067,1723.1897,0,0,2.9491,0.0007,0,40,40,68,1,REAL,FAKE,,,,,,,,,,,,,,,,,
,,,,,,,,,615e1782e969d4939045c54f,Mexican,13 or older,"no, only English or Spanish",no,2025-07-23_00h43.20.244,empathy_intonation_perc,2024.2.4,Win32,38.75968992,615e1782e969d4939045c54f,687ed1b7e638a4cbf2f02089,68809200c1faba141b73a9bf,,,,,,,,,,,,,,1,,,,,,,,,,,,,,,,,,,,,,,,,,,,,,,,,,,,,,,,,,,,,,,,,,,,,,,,,65,bizcocho,,,,,1723.1928,1729.0569,0,0,5.3376,0.0007,0,41,41,64,1,REAL,FAKE,,,,,,,,,,,,,,,,,
,,,,,,,,,615e1782e969d4939045c54f,Mexican,13 or older,"no, only English or Spanish",no,2025-07-23_00h43.20.244,empathy_intonation_perc,2024.2.4,Win32,38.75968992,615e1782e969d4939045c54f,687ed1b7e638a4cbf2f02089,68809200c1faba141b73a9bf,,,,,,,,,,,,,,1,,,,,,,,,,,,,,,,,,,,,,,,,,,,,,,,,,,,,,,,,,,,,,,,,,,,,,,,,71,polvoriento,,,,,1729.0606,1731.0379,0,0,1.4428,0.0009,0,42,42,70,1,REAL,FAKE,,,,,,,,,,,,,,,,,
,,,,,,,,,615e1782e969d4939045c54f,Mexican,13 or older,"no, only English or Spanish",no,2025-07-23_00h43.20.244,empathy_intonation_perc,2024.2.4,Win32,38.75968992,615e1782e969d4939045c54f,687ed1b7e638a4cbf2f02089,68809200c1faba141b73a9bf,,,,,,,,,,,,,,1,,,,,,,,,,,,,,,,,,,,,,,,,,,,,,,,,,,,,,,,,,,,,,,,,,,,,,,,,43,canela,,,,,1731.0404,1733.6877,1,1,2.117,0.0039,0,43,43,42,1,REAL,FAKE,,,,,,,,,,,,,,,,,
,,,,,,,,,615e1782e969d4939045c54f,Mexican,13 or older,"no, only English or Spanish",no,2025-07-23_00h43.20.244,empathy_intonation_perc,2024.2.4,Win32,38.75968992,615e1782e969d4939045c54f,687ed1b7e638a4cbf2f02089,68809200c1faba141b73a9bf,,,,,,,,,,,,,,0,,,,,,,,,,,,,,,,,,,,,,,,,,,,,,,,,,,,,,,,,,,,,,,,,,,,,,,,,42,cadallo,,,,,1733.69,1735.5544,1,0,1.3208,0.0008,0,44,44,41,1,REAL,FAKE,,,,,,,,,,,,,,,,,
,,,,,,,,,615e1782e969d4939045c54f,Mexican,13 or older,"no, only English or Spanish",no,2025-07-23_00h43.20.244,empathy_intonation_perc,2024.2.4,Win32,38.75968992,615e1782e969d4939045c54f,687ed1b7e638a4cbf2f02089,68809200c1faba141b73a9bf,,,,,,,,,,,,,,0,,,,,,,,,,,,,,,,,,,,,,,,,,,,,,,,,,,,,,,,,,,,,,,,,,,,,,,,,30,alardio,,,,,1735.5567,1737.7207,0,1,1.6309,0.0005,0,45,45,29,1,REAL,FAKE,,,,,,,,,,,,,,,,,
,,,,,,,,,615e1782e969d4939045c54f,Mexican,13 or older,"no, only English or Spanish",no,2025-07-23_00h43.20.244,empathy_intonation_perc,2024.2.4,Win32,38.75968992,615e1782e969d4939045c54f,687ed1b7e638a4cbf2f02089,68809200c1faba141b73a9bf,,,,,,,,,,,,,,1,,,,,,,,,,,,,,,,,,,,,,,,,,,,,,,,,,,,,,,,,,,,,,,,,,,,,,,,,13,helar,,,,,1737.7233,1741.3361,0,0,3.0829,0.0008,0,46,46,12,1,REAL,FAKE,,,,,,,,,,,,,,,,,
,,,,,,,,,615e1782e969d4939045c54f,Mexican,13 or older,"no, only English or Spanish",no,2025-07-23_00h43.20.244,empathy_intonation_perc,2024.2.4,Win32,38.75968992,615e1782e969d4939045c54f,687ed1b7e638a4cbf2f02089,68809200c1faba141b73a9bf,,,,,,,,,,,,,,0,,,,,,,,,,,,,,,,,,,,,,,,,,,,,,,,,,,,,,,,,,,,,,,,,,,,,,,,,47,cartinar,,,,,1741.3383,1744.2701,1,0,2.3968,0.0008,0,47,47,46,1,REAL,FAKE,,,,,,,,,,,,,,,,,
,,,,,,,,,615e1782e969d4939045c54f,Mexican,13 or older,"no, only English or Spanish",no,2025-07-23_00h43.20.244,empathy_intonation_perc,2024.2.4,Win32,38.75968992,615e1782e969d4939045c54f,687ed1b7e638a4cbf2f02089,68809200c1faba141b73a9bf,,,,,,,,,,,,,,0,,,,,,,,,,,,,,,,,,,,,,,,,,,,,,,,,,,,,,,,,,,,,,,,,,,,,,,,,16,abracer,,,,,1744.2724,1781.7186,0,1,36.9144,,0,48,48,15,1,REAL,FAKE,,,,,,,,,,,,,,,,,
,,,,,,,,,615e1782e969d4939045c54f,Mexican,13 or older,"no, only English or Spanish",no,2025-07-23_00h43.20.244,empathy_intonation_perc,2024.2.4,Win32,38.75968992,615e1782e969d4939045c54f,687ed1b7e638a4cbf2f02089,68809200c1faba141b73a9bf,,,,,,,,,,,,,,1,,,,,,,,,,,,,,,,,,,,,,,,,,,,,,,,,,,,,,,,,,,,,,,,,,,,,,,,,76,atar,,,,,1781.7212,1801.2492,1,1,18.9878,0.0035,0,49,49,75,1,REAL,FAKE,,,,,,,,,,,,,,,,,
,,,,,,,,,615e1782e969d4939045c54f,Mexican,13 or older,"no, only English or Spanish",no,2025-07-23_00h43.20.244,empathy_intonation_perc,2024.2.4,Win32,38.75968992,615e1782e969d4939045c54f,687ed1b7e638a4cbf2f02089,68809200c1faba141b73a9bf,,,,,,,,,,,,,,0,,,,,,,,,,,,,,,,,,,,,,,,,,,,,,,,,,,,,,,,,,,,,,,,,,,,,,,,,21,capillo,,,,,1801.2519,1846.1278,0,1,44.3347,0.001,0,50,50,20,1,REAL,FAKE,,,,,,,,,,,,,,,,,
,,,,,,,,,615e1782e969d4939045c54f,Mexican,13 or older,"no, only English or Spanish",no,2025-07-23_00h43.20.244,empathy_intonation_perc,2024.2.4,Win32,38.75968992,615e1782e969d4939045c54f,687ed1b7e638a4cbf2f02089,68809200c1faba141b73a9bf,,,,,,,,,,,,,,0,,,,,,,,,,,,,,,,,,,,,,,,,,,,,,,,,,,,,,,,,,,,,,,,,,,,,,,,,87,grodo,,,,,1846.1306,1874.5975,0,1,27.9401,0.001,0,51,51,86,1,REAL,FAKE,,,,,,,,,,,,,,,,,
,,,,,,,,,615e1782e969d4939045c54f,Mexican,13 or older,"no, only English or Spanish",no,2025-07-23_00h43.20.244,empathy_intonation_perc,2024.2.4,Win32,38.75968992,615e1782e969d4939045c54f,687ed1b7e638a4cbf2f02089,68809200c1faba141b73a9bf,,,,,,,,,,,,,,1,,,,,,,,,,,,,,,,,,,,,,,,,,,,,,,,,,,,,,,,,,,,,,,,,,,,,,,,,77,tiburón,,,,,1874.6003,1892.9621,1,1,17.8212,0.0011,0,52,52,76,1,REAL,FAKE,,,,,,,,,,,,,,,,,
,,,,,,,,,615e1782e969d4939045c54f,Mexican,13 or older,"no, only English or Spanish",no,2025-07-23_00h43.20.244,empathy_intonation_perc,2024.2.4,Win32,38.75968992,615e1782e969d4939045c54f,687ed1b7e638a4cbf2f02089,68809200c1faba141b73a9bf,,,,,,,,,,,,,,0,,,,,,,,,,,,,,,,,,,,,,,,,,,,,,,,,,,,,,,,,,,,,,,,,,,,,,,,,29,decar,,,,,1892.9656,1907.0511,0,1,13.5542,0.0013,0,53,53,28,1,REAL,FAKE,,,,,,,,,,,,,,,,,
,,,,,,,,,615e1782e969d4939045c54f,Mexican,13 or older,"no, only English or Spanish",no,2025-07-23_00h43.20.244,empathy_intonation_perc,2024.2.4,Win32,38.75968992,615e1782e969d4939045c54f,687ed1b7e638a4cbf2f02089,68809200c1faba141b73a9bf,,,,,,,,,,,,,,1,,,,,,,,,,,,,,,,,,,,,,,,,,,,,,,,,,,,,,,,,,,,,,,,,,,,,,,,,75,yacer,,,,,1907.0539,1978.2882,0,0,70.7054,0.0017,0,54,54,74,1,REAL,FAKE,,,,,,,,,,,,,,,,,
,,,,,,,,,615e1782e969d4939045c54f,Mexican,13 or older,"no, only English or Spanish",no,2025-07-23_00h43.20.244,empathy_intonation_perc,2024.2.4,Win32,38.75968992,615e1782e969d4939045c54f,687ed1b7e638a4cbf2f02089,68809200c1faba141b73a9bf,,,,,,,,,,,,,,0,,,,,,,,,,,,,,,,,,,,,,,,,,,,,,,,,,,,,,,,,,,,,,,,,,,,,,,,,33,pauca,,,,,1978.2926,1984.8231,0,1,6.0046,0.0007,0,55,55,32,1,REAL,FAKE,,,,,,,,,,,,,,,,,
,,,,,,,,,615e1782e969d4939045c54f,Mexican,13 or older,"no, only English or Spanish",no,2025-07-23_00h43.20.244,empathy_intonation_perc,2024.2.4,Win32,38.75968992,615e1782e969d4939045c54f,687ed1b7e638a4cbf2f02089,68809200c1faba141b73a9bf,,,,,,,,,,,,,,0,,,,,,,,,,,,,,,,,,,,,,,,,,,,,,,,,,,,,,,,,,,,,,,,,,,,,,,,,79,tropaje,,,,,1984.8254,2026.6213,1,0,41.2611,0.0008,0,56,56,78,1,REAL,FAKE,,,,,,,,,,,,,,,,,
,,,,,,,,,615e1782e969d4939045c54f,Mexican,13 or older,"no, only English or Spanish",no,2025-07-23_00h43.20.244,empathy_intonation_perc,2024.2.4,Win32,38.75968992,615e1782e969d4939045c54f,687ed1b7e638a4cbf2f02089,68809200c1faba141b73a9bf,,,,,,,,,,,,,,1,,,,,,,,,,,,,,,,,,,,,,,,,,,,,,,,,,,,,,,,,,,,,,,,,,,,,,,,,6,tergiversar,,,,,2026.6234,2049.0532,0,0,21.8865,0.0009,0,57,57,5,1,REAL,FAKE,,,,,,,,,,,,,,,,,
,,,,,,,,,615e1782e969d4939045c54f,Mexican,13 or older,"no, only English or Spanish",no,2025-07-23_00h43.20.244,empathy_intonation_perc,2024.2.4,Win32,38.75968992,615e1782e969d4939045c54f,687ed1b7e638a4cbf2f02089,68809200c1faba141b73a9bf,,,,,,,,,,,,,,0,,,,,,,,,,,,,,,,,,,,,,,,,,,,,,,,,,,,,,,,,,,,,,,,,,,,,,,,,4,batillón,,,,,2049.0558,2051.8355,1,0,2.2392,0.0008,0,58,58,3,1,REAL,FAKE,,,,,,,,,,,,,,,,,
,,,,,,,,,615e1782e969d4939045c54f,Mexican,13 or older,"no, only English or Spanish",no,2025-07-23_00h43.20.244,empathy_intonation_perc,2024.2.4,Win32,38.75968992,615e1782e969d4939045c54f,687ed1b7e638a4cbf2f02089,68809200c1faba141b73a9bf,,,,,,,,,,,,,,0,,,,,,,,,,,,,,,,,,,,,,,,,,,,,,,,,,,,,,,,,,,,,,,,,,,,,,,,,27,acutación,,,,,2051.8377,2054.4201,1,0,2.0378,0.0009,0,59,59,26,1,REAL,FAKE,,,,,,,,,,,,,,,,,
,,,,,,,,,615e1782e969d4939045c54f,Mexican,13 or older,"no, only English or Spanish",no,2025-07-23_00h43.20.244,empathy_intonation_perc,2024.2.4,Win32,38.75968992,615e1782e969d4939045c54f,687ed1b7e638a4cbf2f02089,68809200c1faba141b73a9bf,,,,,,,,,,,,,,0,,,,,,,,,,,,,,,,,,,,,,,,,,,,,,,,,,,,,,,,,,,,,,,,,,,,,,,,,66,hacido,,,,,2054.4225,2061.6184,1,0,6.6592,0.0052,0,60,60,65,1,REAL,FAKE,,,,,,,,,,,,,,,,,
,,,,,,,,,615e1782e969d4939045c54f,Mexican,13 or older,"no, only English or Spanish",no,2025-07-23_00h43.20.244,empathy_intonation_perc,2024.2.4,Win32,38.75968992,615e1782e969d4939045c54f,687ed1b7e638a4cbf2f02089,68809200c1faba141b73a9bf,,,,,,,,,,,,,,1,,,,,,,,,,,,,,,,,,,,,,,,,,,,,,,,,,,,,,,,,,,,,,,,,,,,,,,,,86,barato,,,,,2061.6203,2107.4331,1,1,45.2714,0.001,0,61,61,85,1,REAL,FAKE,,,,,,,,,,,,,,,,,
,,,,,,,,,615e1782e969d4939045c54f,Mexican,13 or older,"no, only English or Spanish",no,2025-07-23_00h43.20.244,empathy_intonation_perc,2024.2.4,Win32,38.75968992,615e1782e969d4939045c54f,687ed1b7e638a4cbf2f02089,68809200c1faba141b73a9bf,,,,,,,,,,,,,,0,,,,,,,,,,,,,,,,,,,,,,,,,,,,,,,,,,,,,,,,,,,,,,,,,,,,,,,,,92,click the 0 key.,,,,,2107.4358,2110.1495,0,1,2.1748,0.0045,0,62,62,91,1,REAL,FAKE,,,,,,,,,,,,,,,,,
,,,,,,,,,615e1782e969d4939045c54f,Mexican,13 or older,"no, only English or Spanish",no,2025-07-23_00h43.20.244,empathy_intonation_perc,2024.2.4,Win32,38.75968992,615e1782e969d4939045c54f,687ed1b7e638a4cbf2f02089,68809200c1faba141b73a9bf,,,,,,,,,,,,,,1,,,,,,,,,,,,,,,,,,,,,,,,,,,,,,,,,,,,,,,,,,,,,,,,,,,,,,,,,41,rebuscar,,,,,2110.1529,2133.2163,0,0,22.5317,0.0012,0,63,63,40,1,REAL,FAKE,,,,,,,,,,,,,,,,,
,,,,,,,,,615e1782e969d4939045c54f,Mexican,13 or older,"no, only English or Spanish",no,2025-07-23_00h43.20.244,empathy_intonation_perc,2024.2.4,Win32,38.75968992,615e1782e969d4939045c54f,687ed1b7e638a4cbf2f02089,68809200c1faba141b73a9bf,,,,,,,,,,,,,,1,,,,,,,,,,,,,,,,,,,,,,,,,,,,,,,,,,,,,,,,,,,,,,,,,,,,,,,,,90,clavel,,,,,2133.2185,2139.1634,0,0,5.4017,0.0007,0,64,64,89,1,REAL,FAKE,,,,,,,,,,,,,,,,,
,,,,,,,,,615e1782e969d4939045c54f,Mexican,13 or older,"no, only English or Spanish",no,2025-07-23_00h43.20.244,empathy_intonation_perc,2024.2.4,Win32,38.75968992,615e1782e969d4939045c54f,687ed1b7e638a4cbf2f02089,68809200c1faba141b73a9bf,,,,,,,,,,,,,,1,,,,,,,,,,,,,,,,,,,,,,,,,,,,,,,,,,,,,,,,,,,,,,,,,,,,,,,,,89,prisa,,,,,2139.1653,2165.3144,1,1,25.6125,0.0019,0,65,65,88,1,REAL,FAKE,,,,,,,,,,,,,,,,,
,,,,,,,,,615e1782e969d4939045c54f,Mexican,13 or older,"no, only English or Spanish",no,2025-07-23_00h43.20.244,empathy_intonation_perc,2024.2.4,Win32,38.75968992,615e1782e969d4939045c54f,687ed1b7e638a4cbf2f02089,68809200c1faba141b73a9bf,,,,,,,,,,,,,,0,,,,,,,,,,,,,,,,,,,,,,,,,,,,,,,,,,,,,,,,,,,,,,,,,,,,,,,,,58,plaudir,,,,,2165.3161,2174.111,0,1,8.2575,0.0011,0,66,66,57,1,REAL,FAKE,,,,,,,,,,,,,,,,,
,,,,,,,,,615e1782e969d4939045c54f,Mexican,13 or older,"no, only English or Spanish",no,2025-07-23_00h43.20.244,empathy_intonation_perc,2024.2.4,Win32,38.75968992,615e1782e969d4939045c54f,687ed1b7e638a4cbf2f02089,68809200c1faba141b73a9bf,,,,,,,,,,,,,,1,,,,,,,,,,,,,,,,,,,,,,,,,,,,,,,,,,,,,,,,,,,,,,,,,,,,,,,,,61,seda,,,,,2174.113,2181.8614,1,1,7.2089,0.0035,0,67,67,60,1,REAL,FAKE,,,,,,,,,,,,,,,,,
,,,,,,,,,615e1782e969d4939045c54f,Mexican,13 or older,"no, only English or Spanish",no,2025-07-23_00h43.20.244,empathy_intonation_perc,2024.2.4,Win32,38.75968992,615e1782e969d4939045c54f,687ed1b7e638a4cbf2f02089,68809200c1faba141b73a9bf,,,,,,,,,,,,,,1,,,,,,,,,,,,,,,,,,,,,,,,,,,,,,,,,,,,,,,,,,,,,,,,,,,,,,,,,59,besar,,,,,2181.8633,2189.1634,1,1,6.7686,,0,68,68,58,1,REAL,FAKE,,,,,,,,,,,,,,,,,
,,,,,,,,,615e1782e969d4939045c54f,Mexican,13 or older,"no, only English or Spanish",no,2025-07-23_00h43.20.244,empathy_intonation_perc,2024.2.4,Win32,38.75968992,615e1782e969d4939045c54f,687ed1b7e638a4cbf2f02089,68809200c1faba141b73a9bf,,,,,,,,,,,,,,1,,,,,,,,,,,,,,,,,,,,,,,,,,,,,,,,,,,,,,,,,,,,,,,,,,,,,,,,,91,click the 1 key.,,,,,2189.1663,2191.1305,1,1,1.4321,0.0011,0,69,69,90,1,REAL,FAKE,,,,,,,,,,,,,,,,,
,,,,,,,,,615e1782e969d4939045c54f,Mexican,13 or older,"no, only English or Spanish",no,2025-07-23_00h43.20.244,empathy_intonation_perc,2024.2.4,Win32,38.75968992,615e1782e969d4939045c54f,687ed1b7e638a4cbf2f02089,68809200c1faba141b73a9bf,,,,,,,,,,,,,,1,,,,,,,,,,,,,,,,,,,,,,,,,,,,,,,,,,,,,,,,,,,,,,,,,,,,,,,,,38,estornudar,,,,,2191.1325,2273.0903,1,1,81.4227,0.0009,0,70,70,37,1,REAL,FAKE,,,,,,,,,,,,,,,,,
,,,,,,,,,615e1782e969d4939045c54f,Mexican,13 or older,"no, only English or Spanish",no,2025-07-23_00h43.20.244,empathy_intonation_perc,2024.2.4,Win32,38.75968992,615e1782e969d4939045c54f,687ed1b7e638a4cbf2f02089,68809200c1faba141b73a9bf,,,,,,,,,,,,,,1,,,,,,,,,,,,,,,,,,,,,,,,,,,,,,,,,,,,,,,,,,,,,,,,,,,,,,,,,54,fomentar,,,,,2273.0933,2293.2771,1,1,19.646,0.0009,0,71,71,53,1,REAL,FAKE,,,,,,,,,,,,,,,,,
,,,,,,,,,615e1782e969d4939045c54f,Mexican,13 or older,"no, only English or Spanish",no,2025-07-23_00h43.20.244,empathy_intonation_perc,2024.2.4,Win32,38.75968992,615e1782e969d4939045c54f,687ed1b7e638a4cbf2f02089,68809200c1faba141b73a9bf,,,,,,,,,,,,,,1,,,,,,,,,,,,,,,,,,,,,,,,,,,,,,,,,,,,,,,,,,,,,,,,,,,,,,,,,7,pésimo,,,,,2293.2797,2309.1091,1,1,15.3008,0.0007,0,72,72,6,1,REAL,FAKE,,,,,,,,,,,,,,,,,
,,,,,,,,,615e1782e969d4939045c54f,Mexican,13 or older,"no, only English or Spanish",no,2025-07-23_00h43.20.244,empathy_intonation_perc,2024.2.4,Win32,38.75968992,615e1782e969d4939045c54f,687ed1b7e638a4cbf2f02089,68809200c1faba141b73a9bf,,,,,,,,,,,,,,1,,,,,,,,,,,,,,,,,,,,,,,,,,,,,,,,,,,,,,,,,,,,,,,,,,,,,,,,,40,alfombra,,,,,2309.1122,2311.3536,1,1,1.7101,,0,73,73,39,1,REAL,FAKE,,,,,,,,,,,,,,,,,
,,,,,,,,,615e1782e969d4939045c54f,Mexican,13 or older,"no, only English or Spanish",no,2025-07-23_00h43.20.244,empathy_intonation_perc,2024.2.4,Win32,38.75968992,615e1782e969d4939045c54f,687ed1b7e638a4cbf2f02089,68809200c1faba141b73a9bf,,,,,,,,,,,,,,0,,,,,,,,,,,,,,,,,,,,,,,,,,,,,,,,,,,,,,,,,,,,,,,,,,,,,,,,,84,escuto,,,,,2311.3582,2313.2185,1,0,1.3267,0.0013,0,74,74,83,1,REAL,FAKE,,,,,,,,,,,,,,,,,
,,,,,,,,,615e1782e969d4939045c54f,Mexican,13 or older,"no, only English or Spanish",no,2025-07-23_00h43.20.244,empathy_intonation_perc,2024.2.4,Win32,38.75968992,615e1782e969d4939045c54f,687ed1b7e638a4cbf2f02089,68809200c1faba141b73a9bf,,,,,,,,,,,,,,1,,,,,,,,,,,,,,,,,,,,,,,,,,,,,,,,,,,,,,,,,,,,,,,,,,,,,,,,,2,pellizcar,,,,,2313.2208,2315.7727,0,0,2.0281,0.0011,0,75,75,1,1,REAL,FAKE,,,,,,,,,,,,,,,,,
,,,,,,,,,615e1782e969d4939045c54f,Mexican,13 or older,"no, only English or Spanish",no,2025-07-23_00h43.20.244,empathy_intonation_perc,2024.2.4,Win32,38.75968992,615e1782e969d4939045c54f,687ed1b7e638a4cbf2f02089,68809200c1faba141b73a9bf,,,,,,,,,,,,,,1,,,,,,,,,,,,,,,,,,,,,,,,,,,,,,,,,,,,,,,,,,,,,,,,,,,,,,,,,68,alegre,,,,,2315.7754,2318.5542,0,0,2.24,0.0008,0,76,76,67,1,REAL,FAKE,,,,,,,,,,,,,,,,,
,,,,,,,,,615e1782e969d4939045c54f,Mexican,13 or older,"no, only English or Spanish",no,2025-07-23_00h43.20.244,empathy_intonation_perc,2024.2.4,Win32,38.75968992,615e1782e969d4939045c54f,687ed1b7e638a4cbf2f02089,68809200c1faba141b73a9bf,,,,,,,,,,,,,,1,,,,,,,,,,,,,,,,,,,,,,,,,,,,,,,,,,,,,,,,,,,,,,,,,,,,,,,,,78,frondoso,,,,,2318.5567,2320.7882,0,0,1.6983,0.0014,0,77,77,77,1,REAL,FAKE,,,,,,,,,,,,,,,,,
,,,,,,,,,615e1782e969d4939045c54f,Mexican,13 or older,"no, only English or Spanish",no,2025-07-23_00h43.20.244,empathy_intonation_perc,2024.2.4,Win32,38.75968992,615e1782e969d4939045c54f,687ed1b7e638a4cbf2f02089,68809200c1faba141b73a9bf,,,,,,,,,,,,,,0,,,,,,,,,,,,,,,,,,,,,,,,,,,,,,,,,,,,,,,,,,,,,,,,,,,,,,,,,8,cadeña,,,,,2320.791,2322.835,1,0,1.506,0.0019,0,78,78,7,1,REAL,FAKE,,,,,,,,,,,,,,,,,
,,,,,,,,,615e1782e969d4939045c54f,Mexican,13 or older,"no, only English or Spanish",no,2025-07-23_00h43.20.244,empathy_intonation_perc,2024.2.4,Win32,38.75968992,615e1782e969d4939045c54f,687ed1b7e638a4cbf2f02089,68809200c1faba141b73a9bf,,,,,,,,,,,,,,1,,,,,,,,,,,,,,,,,,,,,,,,,,,,,,,,,,,,,,,,,,,,,,,,,,,,,,,,,88,acantilado,,,,,2322.8392,2324.7683,1,1,1.3937,0.0026,0,79,79,87,1,REAL,FAKE,,,,,,,,,,,,,,,,,
,,,,,,,,,615e1782e969d4939045c54f,Mexican,13 or older,"no, only English or Spanish",no,2025-07-23_00h43.20.244,empathy_intonation_perc,2024.2.4,Win32,38.75968992,615e1782e969d4939045c54f,687ed1b7e638a4cbf2f02089,68809200c1faba141b73a9bf,,,,,,,,,,,,,,1,,,,,,,,,,,,,,,,,,,,,,,,,,,,,,,,,,,,,,,,,,,,,,,,,,,,,,,,,37,granuja,,,,,2324.7748,2327.0225,0,0,1.7229,0.0015,0,80,80,36,1,REAL,FAKE,,,,,,,,,,,,,,,,,
,,,,,,,,,615e1782e969d4939045c54f,Mexican,13 or older,"no, only English or Spanish",no,2025-07-23_00h43.20.244,empathy_intonation_perc,2024.2.4,Win32,38.75968992,615e1782e969d4939045c54f,687ed1b7e638a4cbf2f02089,68809200c1faba141b73a9bf,,,,,,,,,,,,,,0,,,,,,,,,,,,,,,,,,,,,,,,,,,,,,,,,,,,,,,,,,,,,,,,,,,,,,,,,10,antar,,,,,2327.0253,2329.6355,0,1,2.0813,0.003,0,81,81,9,1,REAL,FAKE,,,,,,,,,,,,,,,,,
,,,,,,,,,615e1782e969d4939045c54f,Mexican,13 or older,"no, only English or Spanish",no,2025-07-23_00h43.20.244,empathy_intonation_perc,2024.2.4,Win32,38.75968992,615e1782e969d4939045c54f,687ed1b7e638a4cbf2f02089,68809200c1faba141b73a9bf,,,,,,,,,,,,,,0,,,,,,,,,,,,,,,,,,,,,,,,,,,,,,,,,,,,,,,,,,,,,,,,,,,,,,,,,74,cintro,,,,,2329.6391,2331.4872,0,1,1.3112,0.0009,0,82,82,73,1,REAL,FAKE,,,,,,,,,,,,,,,,,
,,,,,,,,,615e1782e969d4939045c54f,Mexican,13 or older,"no, only English or Spanish",no,2025-07-23_00h43.20.244,empathy_intonation_perc,2024.2.4,Win32,38.75968992,615e1782e969d4939045c54f,687ed1b7e638a4cbf2f02089,68809200c1faba141b73a9bf,,,,,,,,,,,,,,0,,,,,,,,,,,,,,,,,,,,,,,,,,,,,,,,,,,,,,,,,,,,,,,,,,,,,,,,,50,flamida,,,,,2331.4893,2333.1345,1,0,1.114,0.0014,0,83,83,49,1,REAL,FAKE,,,,,,,,,,,,,,,,,
,,,,,,,,,615e1782e969d4939045c54f,Mexican,13 or older,"no, only English or Spanish",no,2025-07-23_00h43.20.244,empathy_intonation_perc,2024.2.4,Win32,38.75968992,615e1782e969d4939045c54f,687ed1b7e638a4cbf2f02089,68809200c1faba141b73a9bf,,,,,,,,,,,,,,1,,,,,,,,,,,,,,,,,,,,,,,,,,,,,,,,,,,,,,,,,,,,,,,,,,,,,,,,,73,hervidor,,,,,2333.1373,2335.434,1,1,1.7588,0.0013,0,84,84,72,1,REAL,FAKE,,,,,,,,,,,,,,,,,
,,,,,,,,,615e1782e969d4939045c54f,Mexican,13 or older,"no, only English or Spanish",no,2025-07-23_00h43.20.244,empathy_intonation_perc,2024.2.4,Win32,38.75968992,615e1782e969d4939045c54f,687ed1b7e638a4cbf2f02089,68809200c1faba141b73a9bf,,,,,,,,,,,,,,1,,,,,,,,,,,,,,,,,,,,,,,,,,,,,,,,,,,,,,,,,,,,,,,,,,,,,,,,,56,musgo,,,,,2335.4384,2337.2035,1,1,1.244,,0,85,85,55,1,REAL,FAKE,,,,,,,,,,,,,,,,,
,,,,,,,,,615e1782e969d4939045c54f,Mexican,13 or older,"no, only English or Spanish",no,2025-07-23_00h43.20.244,empathy_intonation_perc,2024.2.4,Win32,38.75968992,615e1782e969d4939045c54f,687ed1b7e638a4cbf2f02089,68809200c1faba141b73a9bf,,,,,,,,,,,,,,1,,,,,,,,,,,,,,,,,,,,,,,,,,,,,,,,,,,,,,,,,,,,,,,,,,,,,,,,,36,loro,,,,,2337.2073,2338.9339,0,0,1.2028,0.0011,0,86,86,35,1,REAL,FAKE,,,,,,,,,,,,,,,,,
,,,,,,,,,615e1782e969d4939045c54f,Mexican,13 or older,"no, only English or Spanish",no,2025-07-23_00h43.20.244,empathy_intonation_perc,2024.2.4,Win32,38.75968992,615e1782e969d4939045c54f,687ed1b7e638a4cbf2f02089,68809200c1faba141b73a9bf,,,,,,,,,,,,,,1,,,,,,,,,,,,,,,,,,,,,,,,,,,,,,,,,,,,,,,,,,,,,,,,,,,,,,,,,15,regar,,,,,2338.9389,2341.8342,0,0,2.3662,0.0009,0,87,87,14,1,REAL,FAKE,,,,,,,,,,,,,,,,,
,,,,,,,,,615e1782e969d4939045c54f,Mexican,13 or older,"no, only English or Spanish",no,2025-07-23_00h43.20.244,empathy_intonation_perc,2024.2.4,Win32,38.75968992,615e1782e969d4939045c54f,687ed1b7e638a4cbf2f02089,68809200c1faba141b73a9bf,,,,,,,,,,,,,,1,,,,,,,,,,,,,,,,,,,,,,,,,,,,,,,,,,,,,,,,,,,,,,,,,,,,,,,,,39,torpe,,,,,2341.8374,2344.5516,1,1,2.1798,0.0011,0,88,88,38,1,REAL,FAKE,,,,,,,,,,,,,,,,,
,,,,,,,,,615e1782e969d4939045c54f,Mexican,13 or older,"no, only English or Spanish",no,2025-07-23_00h43.20.244,empathy_intonation_perc,2024.2.4,Win32,38.75968992,615e1782e969d4939045c54f,687ed1b7e638a4cbf2f02089,68809200c1faba141b73a9bf,,,,,,,,,,,,,,1,,,,,,,,,,,,,,,,,,,,,,,,,,,,,,,,,,,,,,,,,,,,,,,,,,,,,,,,,85,laúd,,,,,2344.5563,2346.4506,1,1,1.3612,0.001,0,89,89,84,1,REAL,FAKE,,,,,,,,,,,,,,,,,
,,,,,,,,,615e1782e969d4939045c54f,Mexican,13 or older,"no, only English or Spanish",no,2025-07-23_00h43.20.244,empathy_intonation_perc,2024.2.4,Win32,38.75968992,615e1782e969d4939045c54f,687ed1b7e638a4cbf2f02089,68809200c1faba141b73a9bf,,,,,,,,,,,,,,1,,,,,,,,,,,,,,,,,,,,,,,,,,,,,,,,,,,,,,,,,,,,,,,,,,,,,,,,,62,flaco,,,,,2346.4541,2348.4215,1,1,1.4386,0.0034,0,90,90,61,1,REAL,FAKE,,,,,,,,,,,,,,,,,
,,,,,,,,,615e1782e969d4939045c54f,Mexican,13 or older,"no, only English or Spanish",no,2025-07-23_00h43.20.244,empathy_intonation_perc,2024.2.4,Win32,38.75968992,615e1782e969d4939045c54f,687ed1b7e638a4cbf2f02089,68809200c1faba141b73a9bf,,,,,,,,,,,,,,1,,,,,,,,,,,,,,,,,,,,,,,,,,,,,,,,,,,,,,,,,,,,,,,,,,,,,,,,,12,asesinato,,,,,2348.4231,2350.8502,1,1,1.8929,0.0009,0,91,91,11,1,REAL,FAKE,,,,,,,,,,,,,,,,,
,,,,,,,,,615e1782e969d4939045c54f,Mexican,13 or older,"no, only English or Spanish",no,2025-07-23_00h43.20.244,empathy_intonation_perc,2024.2.4,Win32,38.75968992,615e1782e969d4939045c54f,687ed1b7e638a4cbf2f02089,68809200c1faba141b73a9bf,,,,,,,,,,,,,,,,,,,,,,,,,,,,,,,,,,,,,,,,,,,,,,,,,,,,,,,,,,,,,,,,,,,,,,,,,,,,,,,,,,,,,,,,,,2350.8521,2454.5453,,,,,,,,,,,,,,,
,,,,,,,,,615e1782e969d4939045c54f,Mexican,13 or older,"no, only English or Spanish",no,2025-07-23_00h43.20.244,empathy_intonation_perc,2024.2.4,Win32,38.75968992,615e1782e969d4939045c54f,687ed1b7e638a4cbf2f02089,68809200c1faba141b73a9bf,,,,,,,,,,,,,1,,,,,,,,,,,,,,,,,,,,,,,,,,,,,,,,,,,,,,,,,,,,,,,,,,,,,,,,,,,,,,,,,,,,,,,,,,,,,,,2454.5906,2463.6359,strongly disagree,0,0,0,0,1,I can easily tell if someone else wants to enter a conversation.,1,0,1,0,,
,,,,,,,,,615e1782e969d4939045c54f,Mexican,13 or older,"no, only English or Spanish",no,2025-07-23_00h43.20.244,empathy_intonation_perc,2024.2.4,Win32,38.75968992,615e1782e969d4939045c54f,687ed1b7e638a4cbf2f02089,68809200c1faba141b73a9bf,,,,,,,,,,,,,2,,,,,,,,,,,,,,,,,,,,,,,,,,,,,,,,,,,,,,,,,,,,,,,,,,,,,,,,,,,,,,,,,,,,,,,,,,,,,,,2463.64,2617.4548,slightly disagree,0,1,1,1,1,I prefer animals to humans.,0,1,0,0,,
,,,,,,,,,615e1782e969d4939045c54f,Mexican,13 or older,"no, only English or Spanish",no,2025-07-23_00h43.20.244,empathy_intonation_perc,2024.2.4,Win32,38.75968992,615e1782e969d4939045c54f,687ed1b7e638a4cbf2f02089,68809200c1faba141b73a9bf,,,,,,,,,,,,,3,,,,,,,,,,,,,,,,,,,,,,,,,,,,,,,,,,,,,,,,,,,,,,,,,,,,,,,,,,,,,,,,,,,,,,,,,,,,,,,2617.4574,2622.0313,slightly agree,0,2,2,2,1,I try to keep up with the current trends and fashions.,0,1,0,0,,
,,,,,,,,,615e1782e969d4939045c54f,Mexican,13 or older,"no, only English or Spanish",no,2025-07-23_00h43.20.244,empathy_intonation_perc,2024.2.4,Win32,38.75968992,615e1782e969d4939045c54f,687ed1b7e638a4cbf2f02089,68809200c1faba141b73a9bf,,,,,,,,,,,,,4,,,,,,,,,,,,,,,,,,,,,,,,,,,,,,,,,,,,,,,,,,,,,,,,,,,,,,,,,,,,,,,,,,,,,,,,,,,,,,,2622.0391,2630.7419,slightly agree,0,3,3,3,1,"I find it difficult to explain to others things that I understand easily,   when they don't understand it first time.",1,0,0,1,,
,,,,,,,,,615e1782e969d4939045c54f,Mexican,13 or older,"no, only English or Spanish",no,2025-07-23_00h43.20.244,empathy_intonation_perc,2024.2.4,Win32,38.75968992,615e1782e969d4939045c54f,687ed1b7e638a4cbf2f02089,68809200c1faba141b73a9bf,,,,,,,,,,,,,5,,,,,,,,,,,,,,,,,,,,,,,,,,,,,,,,,,,,,,,,,,,,,,,,,,,,,,,,,,,,,,,,,,,,,,,,,,,,,,,2630.7451,2634.2874,slightly agree,0,4,4,4,1,I dream most nights.,0,1,0,0,,
,,,,,,,,,615e1782e969d4939045c54f,Mexican,13 or older,"no, only English or Spanish",no,2025-07-23_00h43.20.244,empathy_intonation_perc,2024.2.4,Win32,38.75968992,615e1782e969d4939045c54f,687ed1b7e638a4cbf2f02089,68809200c1faba141b73a9bf,,,,,,,,,,,,,6,,,,,,,,,,,,,,,,,,,,,,,,,,,,,,,,,,,,,,,,,,,,,,,,,,,,,,,,,,,,,,,,,,,,,,,,,,,,,,,2634.291,2637.972,slightly agree,0,5,5,5,1,I really enjoy caring for other people.,1,0,1,0,,
