instructions_exposure.started,instructions_exposure.stopped,instructions_exposure_loop.thisRepN,instructions_exposure_loop.thisTrialN,instructions_exposure_loop.thisN,instructions_exposure_loop.thisIndex,instructions_exposure_loop.ran,instructions_text,continue_text,participant_id,"What variety of Spanish are you most familiar with? (e.g., Peruvian, Spanish, Mexican)",At what age did you begin learning Spanish?,Are you proficient in any languages other than English/Spanish?,"Are you familiar with Caribbean (e.g., Caribbean, Puerto Rican) or Galician Spanish?",date,expName,psychopyVersion,OS,frameRate,id,study_id,session,trial_exposure.started,trial_exposure.stopped,key_resp_exposure.keys,key_resp_exposure.corr,key_resp_exposure.rt,key_resp_exposure.duration,key_resp.keys,exposure_loop.thisRepN,exposure_loop.thisTrialN,exposure_loop.thisN,exposure_loop.thisIndex,exposure_loop.ran,item_num,correct_response,question,path,duration,instructions_2afc.started,instructions_2afc.stopped,instructions_2afc_loop.thisRepN,instructions_2afc_loop.thisTrialN,instructions_2afc_loop.thisN,instructions_2afc_loop.thisIndex,instructions_2afc_loop.ran,practice_2afc.started,practice_2afc.stopped,key_resp_2afc_practice.keys,key_resp_2afc_practice.corr,key_resp_2afc_practice.rt,key_resp_2afc_practice.duration,trials_2afc_practice_loop.thisRepN,trials_2afc_practice_loop.thisTrialN,trials_2afc_practice_loop.thisN,trials_2afc_practice_loop.thisIndex,trials_2afc_practice_loop.ran,check_2afc.started,check_2afc.stopped,trial_2afc.started,trial_2afc.stopped,key_resp_2afc_trial.keys,key_resp_2afc_trial.corr,key_resp_2afc_trial.rt,key_resp_2afc_trial.duration,trials_2afc_loop.thisRepN,trials_2afc_loop.thisTrialN,trials_2afc_loop.thisN,trials_2afc_loop.thisIndex,trials_2afc_loop.ran,target,variety,instructions_lextale.started,instructions_lextale.stopped,instructions_lextale_loop.thisRepN,instructions_lextale_loop.thisTrialN,instructions_lextale_loop.thisN,instructions_lextale_loop.thisIndex,instructions_lextale_loop.ran,practice_lextale.started,practice_lextale.stopped,key_resp_lextale_practice.keys,key_resp_lextale_practice.corr,key_resp_lextale_practice.rt,key_resp_lextale_practice.duration,practice_feedback_lextale.started,practice_feedback_lextale.stopped,trials_lextale_practice_loop.thisRepN,trials_lextale_practice_loop.thisTrialN,trials_lextale_practice_loop.thisN,trials_lextale_practice_loop.thisIndex,trials_lextale_practice_loop.ran,stim,word,prac_button_real,prac_button_false,check_lextale.started,check_lextale.stopped,trial_lextale.started,trial_lextale.stopped,key_resp_lextale_trial.keys,key_resp_lextale_trial.corr,key_resp_lextale_trial.rt,key_resp_lextale_trial.duration,trials_lextale_loop.thisRepN,trials_lextale_loop.thisTrialN,trials_lextale_loop.thisN,trials_lextale_loop.thisIndex,trials_lextale_loop.ran,button_real,button_false,instructions_eq.started,instructions_eq.stopped,trial_eq.started,trial_eq.stopped,slider_eq_trial.response,trials_eq_loop.thisRepN,trials_eq_loop.thisTrialN,trials_eq_loop.thisN,trials_eq_loop.thisIndex,trials_eq_loop.ran,item,is_test_item,is_distractor,is_agree_score,is_disagree_score,end_exp.started,end_exp.stopped
0.016,29.7572,0,0,0,0,1,"In the following task, you are going to hear a series of conversations.", (press the space bar to continue),6163fbf78813617495ee7a9b,Spanish/ Caribbean,13 or older,"no, only English or Spanish",yes,2025-07-23_09h13.20.127,empathy_intonation_perc,2024.2.4,MacIntel,57.80346821,6163fbf78813617495ee7a9b,687ed1b7e638a4cbf2f02089,6880d91486d276e58b1b9d0c,,,,,,,,,,,,,,,,,,,,,,,,,,,,,,,,,,,,,,,,,,,,,,,,,,,,,,,,,,,,,,,,,,,,,,,,,,,,,,,,,,,,,,,,,,,,,,,,,,,,,,,,,,
29.759,34.9864,0,1,1,1,1,It is okay if you don't not 100% understand them!, (press the space bar to continue),6163fbf78813617495ee7a9b,Spanish/ Caribbean,13 or older,"no, only English or Spanish",yes,2025-07-23_09h13.20.127,empathy_intonation_perc,2024.2.4,MacIntel,57.80346821,6163fbf78813617495ee7a9b,687ed1b7e638a4cbf2f02089,6880d91486d276e58b1b9d0c,,,,,,,,,,,,,,,,,,,,,,,,,,,,,,,,,,,,,,,,,,,,,,,,,,,,,,,,,,,,,,,,,,,,,,,,,,,,,,,,,,,,,,,,,,,,,,,,,,,,,,,,,,
34.9881,37.2518,0,2,2,2,1,"After, you will read a sentence about the conversation and decide if it's true or false.", (press the space bar to continue),6163fbf78813617495ee7a9b,Spanish/ Caribbean,13 or older,"no, only English or Spanish",yes,2025-07-23_09h13.20.127,empathy_intonation_perc,2024.2.4,MacIntel,57.80346821,6163fbf78813617495ee7a9b,687ed1b7e638a4cbf2f02089,6880d91486d276e58b1b9d0c,,,,,,,,,,,,,,,,,,,,,,,,,,,,,,,,,,,,,,,,,,,,,,,,,,,,,,,,,,,,,,,,,,,,,,,,,,,,,,,,,,,,,,,,,,,,,,,,,,,,,,,,,,
37.2531,42.4185,0,3,3,3,1,"If it's true, press '1' (True) and if it's false press '0' (False).", (press the space bar to continue),6163fbf78813617495ee7a9b,Spanish/ Caribbean,13 or older,"no, only English or Spanish",yes,2025-07-23_09h13.20.127,empathy_intonation_perc,2024.2.4,MacIntel,57.80346821,6163fbf78813617495ee7a9b,687ed1b7e638a4cbf2f02089,6880d91486d276e58b1b9d0c,,,,,,,,,,,,,,,,,,,,,,,,,,,,,,,,,,,,,,,,,,,,,,,,,,,,,,,,,,,,,,,,,,,,,,,,,,,,,,,,,,,,,,,,,,,,,,,,,,,,,,,,,,
,,,,,,,,,6163fbf78813617495ee7a9b,Spanish/ Caribbean,13 or older,"no, only English or Spanish",yes,2025-07-23_09h13.20.127,empathy_intonation_perc,2024.2.4,MacIntel,57.80346821,6163fbf78813617495ee7a9b,687ed1b7e638a4cbf2f02089,6880d91486d276e58b1b9d0c,42.43,85.3849,1,0,6.8715,,,0,0,0,2,1,3,0,The mom already has rice.,./stim/exposure_wavs/pr_stimuli_convo.wav,36,,,,,,,,,,,,,,,,,,,,,,,,,,,,,,,,,,,,,,,,,,,,,,,,,,,,,,,,,,,,,,,,,,,,,,,,,,,,,,,,,,,,,,,,,
,,,,,,,,,6163fbf78813617495ee7a9b,Spanish/ Caribbean,13 or older,"no, only English or Spanish",yes,2025-07-23_09h13.20.127,empathy_intonation_perc,2024.2.4,MacIntel,57.80346821,6163fbf78813617495ee7a9b,687ed1b7e638a4cbf2f02089,6880d91486d276e58b1b9d0c,85.3864,151.3664,1,1,5.9343,,,0,1,1,1,1,2,1,The mom asked the daughter if she already went to the supermarket.,./stim/exposure_wavs/dr_stimuli_convo.wav,60,,,,,,,,,,,,,,,,,,,,,,,,,,,,,,,,,,,,,,,,,,,,,,,,,,,,,,,,,,,,,,,,,,,,,,,,,,,,,,,,,,,,,,,,,
,,,,,,,,,6163fbf78813617495ee7a9b,Spanish/ Caribbean,13 or older,"no, only English or Spanish",yes,2025-07-23_09h13.20.127,empathy_intonation_perc,2024.2.4,MacIntel,57.80346821,6163fbf78813617495ee7a9b,687ed1b7e638a4cbf2f02089,6880d91486d276e58b1b9d0c,151.3676,203.6656,0,0,5.2596,,,0,2,2,0,1,1,1,The son asked the mom if Aunt Marina is okay.,./stim/exposure_wavs/ga_stimuli_convo.wav,47,,,,,,,,,,,,,,,,,,,,,,,,,,,,,,,,,,,,,,,,,,,,,,,,,,,,,,,,,,,,,,,,,,,,,,,,,,,,,,,,,,,,,,,,,
,,,,,,,"In the following task you are going to hear a series of utterances. 

  You will decide if the utterances sound like questions or not using your keyboard.", (press the spacebar to continue),6163fbf78813617495ee7a9b,Spanish/ Caribbean,13 or older,"no, only English or Spanish",yes,2025-07-23_09h13.20.127,empathy_intonation_perc,2024.2.4,MacIntel,57.80346821,6163fbf78813617495ee7a9b,687ed1b7e638a4cbf2f02089,6880d91486d276e58b1b9d0c,,,,,,,,,,,,,,,,,,203.6702,209.0157,0,0,0,0,1,,,,,,,,,,,,,,,,,,,,,,,,,,,,,,,,,,,,,,,,,,,,,,,,,,,,,,,,,,,,,,,,,,,,,,,,,,,,,,,,,,
,,,,,,,"If you believe the utterance is a question, type '1' (for 'yes') and if you do not 
  believe it is a question type '0' (for 'no').

  Let's practice a bit...", (press the spacebar to continue),6163fbf78813617495ee7a9b,Spanish/ Caribbean,13 or older,"no, only English or Spanish",yes,2025-07-23_09h13.20.127,empathy_intonation_perc,2024.2.4,MacIntel,57.80346821,6163fbf78813617495ee7a9b,687ed1b7e638a4cbf2f02089,6880d91486d276e58b1b9d0c,,,,,,,,,,,,,,,,,,209.0174,324.9805,0,1,1,1,1,,,,,,,,,,,,,,,,,,,,,,,,,,,,,,,,,,,,,,,,,,,,,,,,,,,,,,,,,,,,,,,,,,,,,,,,,,,,,,,,,,
,,,,,,,,,6163fbf78813617495ee7a9b,Spanish/ Caribbean,13 or older,"no, only English or Spanish",yes,2025-07-23_09h13.20.127,empathy_intonation_perc,2024.2.4,MacIntel,57.80346821,6163fbf78813617495ee7a9b,687ed1b7e638a4cbf2f02089,6880d91486d276e58b1b9d0c,,,,,,,,,,,,,,0,,./stim/wavs/andalusian_statement_filler_Alberto-nunca-se-afeita.wav,,,,,,,,,324.9861,328.8982,0,1,3.3838,,0,0,0,5,1,,,,,,,,,,,,,,,,,,,,,,,,,,,,,,,,,,,,,,,,,,,,,,,,,,,,,,,,,,,,,,,,,,,,,,,
,,,,,,,,,6163fbf78813617495ee7a9b,Spanish/ Caribbean,13 or older,"no, only English or Spanish",yes,2025-07-23_09h13.20.127,empathy_intonation_perc,2024.2.4,MacIntel,57.80346821,6163fbf78813617495ee7a9b,687ed1b7e638a4cbf2f02089,6880d91486d276e58b1b9d0c,,,,,,,,,,,,,,0,,./stim/wavs/cuban_statement_filler_Cocinabas-por-la-noche.wav,,,,,,,,,328.8992,332.2971,0,1,2.87,,0,1,1,4,1,,,,,,,,,,,,,,,,,,,,,,,,,,,,,,,,,,,,,,,,,,,,,,,,,,,,,,,,,,,,,,,,,,,,,,,
,,,,,,,,,6163fbf78813617495ee7a9b,Spanish/ Caribbean,13 or older,"no, only English or Spanish",yes,2025-07-23_09h13.20.127,empathy_intonation_perc,2024.2.4,MacIntel,57.80346821,6163fbf78813617495ee7a9b,687ed1b7e638a4cbf2f02089,6880d91486d276e58b1b9d0c,,,,,,,,,,,,,,1,,./stim/wavs/mexican_question_filler_Felipe-no-tiene-contrasena.wav,,,,,,,,,332.2976,335.1977,1,1,2.3667,,0,2,2,3,1,,,,,,,,,,,,,,,,,,,,,,,,,,,,,,,,,,,,,,,,,,,,,,,,,,,,,,,,,,,,,,,,,,,,,,,
,,,,,,,,,6163fbf78813617495ee7a9b,Spanish/ Caribbean,13 or older,"no, only English or Spanish",yes,2025-07-23_09h13.20.127,empathy_intonation_perc,2024.2.4,MacIntel,57.80346821,6163fbf78813617495ee7a9b,687ed1b7e638a4cbf2f02089,6880d91486d276e58b1b9d0c,,,,,,,,,,,,,,0,,./stim/wavs/puertorican_statement_filler_La-nina-pinta-con-su-amiga.wav,,,,,,,,,335.1983,338.0981,0,1,2.3649,,0,3,3,7,1,,,,,,,,,,,,,,,,,,,,,,,,,,,,,,,,,,,,,,,,,,,,,,,,,,,,,,,,,,,,,,,,,,,,,,,
,,,,,,,,,6163fbf78813617495ee7a9b,Spanish/ Caribbean,13 or older,"no, only English or Spanish",yes,2025-07-23_09h13.20.127,empathy_intonation_perc,2024.2.4,MacIntel,57.80346821,6163fbf78813617495ee7a9b,687ed1b7e638a4cbf2f02089,6880d91486d276e58b1b9d0c,,,,,,,,,,,,,,1,,./stim/wavs/chilean_question_filler_Mi-padre-cantaba-bien.wav,,,,,,,,,338.0988,340.1304,1,1,1.5015,,0,4,4,2,1,,,,,,,,,,,,,,,,,,,,,,,,,,,,,,,,,,,,,,,,,,,,,,,,,,,,,,,,,,,,,,,,,,,,,,,
,,,,,,,,,6163fbf78813617495ee7a9b,Spanish/ Caribbean,13 or older,"no, only English or Spanish",yes,2025-07-23_09h13.20.127,empathy_intonation_perc,2024.2.4,MacIntel,57.80346821,6163fbf78813617495ee7a9b,687ed1b7e638a4cbf2f02089,6880d91486d276e58b1b9d0c,,,,,,,,,,,,,,1,,./stim/wavs/argentine_question_filler_Mi-vecino-habla-mucho.wav,,,,,,,,,340.1308,343.1978,1,1,2.5489,,0,5,5,1,1,,,,,,,,,,,,,,,,,,,,,,,,,,,,,,,,,,,,,,,,,,,,,,,,,,,,,,,,,,,,,,,,,,,,,,,
,,,,,,,,,6163fbf78813617495ee7a9b,Spanish/ Caribbean,13 or older,"no, only English or Spanish",yes,2025-07-23_09h13.20.127,empathy_intonation_perc,2024.2.4,MacIntel,57.80346821,6163fbf78813617495ee7a9b,687ed1b7e638a4cbf2f02089,6880d91486d276e58b1b9d0c,,,,,,,,,,,,,,0,,./stim/wavs/peruvian_statement_filler_El-nino-habla-con-su-madre.wav,,,,,,,,,343.1982,346.7143,0,1,2.9838,,0,6,6,6,1,,,,,,,,,,,,,,,,,,,,,,,,,,,,,,,,,,,,,,,,,,,,,,,,,,,,,,,,,,,,,,,,,,,,,,,
,,,,,,,,,6163fbf78813617495ee7a9b,Spanish/ Caribbean,13 or older,"no, only English or Spanish",yes,2025-07-23_09h13.20.127,empathy_intonation_perc,2024.2.4,MacIntel,57.80346821,6163fbf78813617495ee7a9b,687ed1b7e638a4cbf2f02089,6880d91486d276e58b1b9d0c,,,,,,,,,,,,,,1,,./stim/wavs/castilian_question_filler_Mi-esposo-conoce-al-chico.wav,,,,,,,,,346.7148,349.5974,1,1,2.3496,,0,7,7,0,1,,,,,,,,,,,,,,,,,,,,,,,,,,,,,,,,,,,,,,,,,,,,,,,,,,,,,,,,,,,,,,,,,,,,,,,
,,,,,,,,,6163fbf78813617495ee7a9b,Spanish/ Caribbean,13 or older,"no, only English or Spanish",yes,2025-07-23_09h13.20.127,empathy_intonation_perc,2024.2.4,MacIntel,57.80346821,6163fbf78813617495ee7a9b,687ed1b7e638a4cbf2f02089,6880d91486d276e58b1b9d0c,,,,,,,,,,,,,,,,,,,,,,,,,,,,,,,,,,,,349.5979,352.8806,,,,,,,,,,,,,,,,,,,,,,,,,,,,,,,,,,,,,,,,,,,,,,,,,,,,,,,,,,,,,,,,,,,,,
,,,,,,,,,6163fbf78813617495ee7a9b,Spanish/ Caribbean,13 or older,"no, only English or Spanish",yes,2025-07-23_09h13.20.127,empathy_intonation_perc,2024.2.4,MacIntel,57.80346821,6163fbf78813617495ee7a9b,687ed1b7e638a4cbf2f02089,6880d91486d276e58b1b9d0c,,,,,,,,,,,,,33,1,,./stim/wavs/cuban_mismatch_interrogative-total-yn_Mi-novio-viene-del-lago.wav,,,,,,,,,,,,,,,,,,,,,,352.89,355.4473,1,1,2.0418,,0,0,0,32,1,1,cuban,,,,,,,,,,,,,,,,,,,,,,,,,,,,,,,,,,,,,,,,,,,,,,,,,,,,,,,,
,,,,,,,,,6163fbf78813617495ee7a9b,Spanish/ Caribbean,13 or older,"no, only English or Spanish",yes,2025-07-23_09h13.20.127,empathy_intonation_perc,2024.2.4,MacIntel,57.80346821,6163fbf78813617495ee7a9b,687ed1b7e638a4cbf2f02089,6880d91486d276e58b1b9d0c,,,,,,,,,,,,,75,0,,./stim/wavs/cuban_mismatch_declarative-broad-focus_El-hombre-mira-la-luna.wav,,,,,,,,,,,,,,,,,,,,,,355.4481,357.5644,0,1,1.5833,,0,1,1,74,1,0,cuban,,,,,,,,,,,,,,,,,,,,,,,,,,,,,,,,,,,,,,,,,,,,,,,,,,,,,,,,
,,,,,,,,,6163fbf78813617495ee7a9b,Spanish/ Caribbean,13 or older,"no, only English or Spanish",yes,2025-07-23_09h13.20.127,empathy_intonation_perc,2024.2.4,MacIntel,57.80346821,6163fbf78813617495ee7a9b,687ed1b7e638a4cbf2f02089,6880d91486d276e58b1b9d0c,,,,,,,,,,,,,25,1,,./stim/wavs/castilian_mismatch_interrogative-total-yn_La-maestra-vive-en-Paris.wav,,,,,,,,,,,,,,,,,,,,,,357.5649,359.9803,1,1,1.8826,,0,2,2,24,1,0,castilian,,,,,,,,,,,,,,,,,,,,,,,,,,,,,,,,,,,,,,,,,,,,,,,,,,,,,,,,
,,,,,,,,,6163fbf78813617495ee7a9b,Spanish/ Caribbean,13 or older,"no, only English or Spanish",yes,2025-07-23_09h13.20.127,empathy_intonation_perc,2024.2.4,MacIntel,57.80346821,6163fbf78813617495ee7a9b,687ed1b7e638a4cbf2f02089,6880d91486d276e58b1b9d0c,,,,,,,,,,,,,37,1,,./stim/wavs/mexican_mismatch_interrogative-total-yn_La-maestra-vive-en-Paris.wav,,,,,,,,,,,,,,,,,,,,,,359.9809,362.0968,1,1,1.5829,,0,3,3,36,1,0,mexican,,,,,,,,,,,,,,,,,,,,,,,,,,,,,,,,,,,,,,,,,,,,,,,,,,,,,,,,
,,,,,,,,,6163fbf78813617495ee7a9b,Spanish/ Caribbean,13 or older,"no, only English or Spanish",yes,2025-07-23_09h13.20.127,empathy_intonation_perc,2024.2.4,MacIntel,57.80346821,6163fbf78813617495ee7a9b,687ed1b7e638a4cbf2f02089,6880d91486d276e58b1b9d0c,,,,,,,,,,,,,55,0,,./stim/wavs/cuban_match_declarative-broad-focus_Mariano-habla-del-tiempo.wav,,,,,,,,,,,,,,,,,,,,,,362.0975,365.0633,0,1,2.4322,,0,4,4,54,1,0,cuban,,,,,,,,,,,,,,,,,,,,,,,,,,,,,,,,,,,,,,,,,,,,,,,,,,,,,,,,
,,,,,,,,,6163fbf78813617495ee7a9b,Spanish/ Caribbean,13 or older,"no, only English or Spanish",yes,2025-07-23_09h13.20.127,empathy_intonation_perc,2024.2.4,MacIntel,57.80346821,6163fbf78813617495ee7a9b,687ed1b7e638a4cbf2f02089,6880d91486d276e58b1b9d0c,,,,,,,,,,,,,2,1,,./stim/wavs/castilian_match_interrogative-total-yn_Emilio-ama-la-marcha.wav,,,,,,,,,,,,,,,,,,,,,,365.0638,367.3806,1,1,1.783,,0,5,5,1,1,0,castilian,,,,,,,,,,,,,,,,,,,,,,,,,,,,,,,,,,,,,,,,,,,,,,,,,,,,,,,,
,,,,,,,,,6163fbf78813617495ee7a9b,Spanish/ Caribbean,13 or older,"no, only English or Spanish",yes,2025-07-23_09h13.20.127,empathy_intonation_perc,2024.2.4,MacIntel,57.80346821,6163fbf78813617495ee7a9b,687ed1b7e638a4cbf2f02089,6880d91486d276e58b1b9d0c,,,,,,,,,,,,,31,1,,./stim/wavs/cuban_mismatch_interrogative-total-yn_El-nino-oye-el-rio.wav,,,,,,,,,,,,,,,,,,,,,,367.3812,369.7143,0,0,1.8164,,0,6,6,30,1,1,cuban,,,,,,,,,,,,,,,,,,,,,,,,,,,,,,,,,,,,,,,,,,,,,,,,,,,,,,,,
,,,,,,,,,6163fbf78813617495ee7a9b,Spanish/ Caribbean,13 or older,"no, only English or Spanish",yes,2025-07-23_09h13.20.127,empathy_intonation_perc,2024.2.4,MacIntel,57.80346821,6163fbf78813617495ee7a9b,687ed1b7e638a4cbf2f02089,6880d91486d276e58b1b9d0c,,,,,,,,,,,,,9,1,,./stim/wavs/cuban_match_interrogative-total-yn_Manuela-vende-el-carro.wav,,,,,,,,,,,,,,,,,,,,,,369.7147,373.2131,0,0,2.9664,,0,7,7,8,1,1,cuban,,,,,,,,,,,,,,,,,,,,,,,,,,,,,,,,,,,,,,,,,,,,,,,,,,,,,,,,
,,,,,,,,,6163fbf78813617495ee7a9b,Spanish/ Caribbean,13 or older,"no, only English or Spanish",yes,2025-07-23_09h13.20.127,empathy_intonation_perc,2024.2.4,MacIntel,57.80346821,6163fbf78813617495ee7a9b,687ed1b7e638a4cbf2f02089,6880d91486d276e58b1b9d0c,,,,,,,,,,,,,18,1,,./stim/wavs/mexican_match_interrogative-total-yn_Marta-abre-el-regalo.wav,,,,,,,,,,,,,,,,,,,,,,373.2135,375.2644,1,1,1.5164,,0,8,8,17,1,0,mexican,,,,,,,,,,,,,,,,,,,,,,,,,,,,,,,,,,,,,,,,,,,,,,,,,,,,,,,,
,,,,,,,,,6163fbf78813617495ee7a9b,Spanish/ Caribbean,13 or older,"no, only English or Spanish",yes,2025-07-23_09h13.20.127,empathy_intonation_perc,2024.2.4,MacIntel,57.80346821,6163fbf78813617495ee7a9b,687ed1b7e638a4cbf2f02089,6880d91486d276e58b1b9d0c,,,,,,,,,,,,,10,1,,./stim/wavs/cuban_match_interrogative-total-yn_Maria-bebe-el-vino.wav,,,,,,,,,,,,,,,,,,,,,,375.2651,377.831,0,0,2.0327,,0,9,9,9,1,1,cuban,,,,,,,,,,,,,,,,,,,,,,,,,,,,,,,,,,,,,,,,,,,,,,,,,,,,,,,,
,,,,,,,,,6163fbf78813617495ee7a9b,Spanish/ Caribbean,13 or older,"no, only English or Spanish",yes,2025-07-23_09h13.20.127,empathy_intonation_perc,2024.2.4,MacIntel,57.80346821,6163fbf78813617495ee7a9b,687ed1b7e638a4cbf2f02089,6880d91486d276e58b1b9d0c,,,,,,,,,,,,,67,0,,./stim/wavs/puertorican_match_declarative-broad-focus_Manuela-vende-el-carro.wav,,,,,,,,,,,,,,,,,,,,,,377.8316,380.4809,0,1,2.1157,,0,10,10,66,1,0,puertorican,,,,,,,,,,,,,,,,,,,,,,,,,,,,,,,,,,,,,,,,,,,,,,,,,,,,,,,,
,,,,,,,,,6163fbf78813617495ee7a9b,Spanish/ Caribbean,13 or older,"no, only English or Spanish",yes,2025-07-23_09h13.20.127,empathy_intonation_perc,2024.2.4,MacIntel,57.80346821,6163fbf78813617495ee7a9b,687ed1b7e638a4cbf2f02089,6880d91486d276e58b1b9d0c,,,,,,,,,,,,,58,0,,./stim/wavs/mexican_match_declarative-broad-focus_Daniel-iba-a-Bolivia.wav,,,,,,,,,,,,,,,,,,,,,,380.4815,383.813,0,1,2.7936,,0,11,11,57,1,0,mexican,,,,,,,,,,,,,,,,,,,,,,,,,,,,,,,,,,,,,,,,,,,,,,,,,,,,,,,,
,,,,,,,,,6163fbf78813617495ee7a9b,Spanish/ Caribbean,13 or older,"no, only English or Spanish",yes,2025-07-23_09h13.20.127,empathy_intonation_perc,2024.2.4,MacIntel,57.80346821,6163fbf78813617495ee7a9b,687ed1b7e638a4cbf2f02089,6880d91486d276e58b1b9d0c,,,,,,,,,,,,,78,0,,./stim/wavs/cuban_mismatch_declarative-broad-focus_Mi-tia-odia-la-lluvia.wav,,,,,,,,,,,,,,,,,,,,,,383.8132,386.6304,0,1,2.2863,,0,12,12,77,1,0,cuban,,,,,,,,,,,,,,,,,,,,,,,,,,,,,,,,,,,,,,,,,,,,,,,,,,,,,,,,
,,,,,,,,,6163fbf78813617495ee7a9b,Spanish/ Caribbean,13 or older,"no, only English or Spanish",yes,2025-07-23_09h13.20.127,empathy_intonation_perc,2024.2.4,MacIntel,57.80346821,6163fbf78813617495ee7a9b,687ed1b7e638a4cbf2f02089,6880d91486d276e58b1b9d0c,,,,,,,,,,,,,16,1,,./stim/wavs/mexican_match_interrogative-total-yn_Emilio-ama-la-marcha.wav,,,,,,,,,,,,,,,,,,,,,,386.6309,388.9302,1,1,1.7639,,0,13,13,15,1,0,mexican,,,,,,,,,,,,,,,,,,,,,,,,,,,,,,,,,,,,,,,,,,,,,,,,,,,,,,,,
,,,,,,,,,6163fbf78813617495ee7a9b,Spanish/ Caribbean,13 or older,"no, only English or Spanish",yes,2025-07-23_09h13.20.127,empathy_intonation_perc,2024.2.4,MacIntel,57.80346821,6163fbf78813617495ee7a9b,687ed1b7e638a4cbf2f02089,6880d91486d276e58b1b9d0c,,,,,,,,,,,,,59,0,,./stim/wavs/mexican_match_declarative-broad-focus_David-leia-el-libro.wav,,,,,,,,,,,,,,,,,,,,,,388.9306,391.3462,0,1,1.8858,,0,14,14,58,1,0,mexican,,,,,,,,,,,,,,,,,,,,,,,,,,,,,,,,,,,,,,,,,,,,,,,,,,,,,,,,
,,,,,,,,,6163fbf78813617495ee7a9b,Spanish/ Caribbean,13 or older,"no, only English or Spanish",yes,2025-07-23_09h13.20.127,empathy_intonation_perc,2024.2.4,MacIntel,57.80346821,6163fbf78813617495ee7a9b,687ed1b7e638a4cbf2f02089,6880d91486d276e58b1b9d0c,,,,,,,,,,,,,6,1,,./stim/wavs/castilian_match_interrogative-total-yn_Marta-abre-el-regalo.wav,,,,,,,,,,,,,,,,,,,,,,391.3468,393.8639,1,1,1.9996,,0,15,15,5,1,0,castilian,,,,,,,,,,,,,,,,,,,,,,,,,,,,,,,,,,,,,,,,,,,,,,,,,,,,,,,,
,,,,,,,,,6163fbf78813617495ee7a9b,Spanish/ Caribbean,13 or older,"no, only English or Spanish",yes,2025-07-23_09h13.20.127,empathy_intonation_perc,2024.2.4,MacIntel,57.80346821,6163fbf78813617495ee7a9b,687ed1b7e638a4cbf2f02089,6880d91486d276e58b1b9d0c,,,,,,,,,,,,,50,0,,./stim/wavs/castilian_match_declarative-broad-focus_Marta-abre-el-regalo.wav,,,,,,,,,,,,,,,,,,,,,,393.8642,400.8635,1,0,6.4657,,0,16,16,49,1,0,castilian,,,,,,,,,,,,,,,,,,,,,,,,,,,,,,,,,,,,,,,,,,,,,,,,,,,,,,,,
,,,,,,,,,6163fbf78813617495ee7a9b,Spanish/ Caribbean,13 or older,"no, only English or Spanish",yes,2025-07-23_09h13.20.127,empathy_intonation_perc,2024.2.4,MacIntel,57.80346821,6163fbf78813617495ee7a9b,687ed1b7e638a4cbf2f02089,6880d91486d276e58b1b9d0c,,,,,,,,,,,,,39,1,,./stim/wavs/mexican_mismatch_interrogative-total-yn_Mi-tia-odia-la-lluvia.wav,,,,,,,,,,,,,,,,,,,,,,400.8642,403.0805,1,1,1.6825,,0,17,17,38,1,0,mexican,,,,,,,,,,,,,,,,,,,,,,,,,,,,,,,,,,,,,,,,,,,,,,,,,,,,,,,,
,,,,,,,,,6163fbf78813617495ee7a9b,Spanish/ Caribbean,13 or older,"no, only English or Spanish",yes,2025-07-23_09h13.20.127,empathy_intonation_perc,2024.2.4,MacIntel,57.80346821,6163fbf78813617495ee7a9b,687ed1b7e638a4cbf2f02089,6880d91486d276e58b1b9d0c,,,,,,,,,,,,,61,0,,./stim/wavs/mexican_match_declarative-broad-focus_Mariano-habla-del-tiempo.wav,,,,,,,,,,,,,,,,,,,,,,403.0812,405.3464,0,1,1.7332,,0,18,18,60,1,0,mexican,,,,,,,,,,,,,,,,,,,,,,,,,,,,,,,,,,,,,,,,,,,,,,,,,,,,,,,,
,,,,,,,,,6163fbf78813617495ee7a9b,Spanish/ Caribbean,13 or older,"no, only English or Spanish",yes,2025-07-23_09h13.20.127,empathy_intonation_perc,2024.2.4,MacIntel,57.80346821,6163fbf78813617495ee7a9b,687ed1b7e638a4cbf2f02089,6880d91486d276e58b1b9d0c,,,,,,,,,,,,,15,1,,./stim/wavs/mexican_match_interrogative-total-yn_David-leia-el-libro.wav,,,,,,,,,,,,,,,,,,,,,,405.3469,407.7799,1,1,1.8996,,0,19,19,14,1,0,mexican,,,,,,,,,,,,,,,,,,,,,,,,,,,,,,,,,,,,,,,,,,,,,,,,,,,,,,,,
,,,,,,,,,6163fbf78813617495ee7a9b,Spanish/ Caribbean,13 or older,"no, only English or Spanish",yes,2025-07-23_09h13.20.127,empathy_intonation_perc,2024.2.4,MacIntel,57.80346821,6163fbf78813617495ee7a9b,687ed1b7e638a4cbf2f02089,6880d91486d276e58b1b9d0c,,,,,,,,,,,,,62,0,,./stim/wavs/mexican_match_declarative-broad-focus_Marta-abre-el-regalo.wav,,,,,,,,,,,,,,,,,,,,,,407.7807,410.2299,0,1,1.9154,,0,20,20,61,1,0,mexican,,,,,,,,,,,,,,,,,,,,,,,,,,,,,,,,,,,,,,,,,,,,,,,,,,,,,,,,
,,,,,,,,,6163fbf78813617495ee7a9b,Spanish/ Caribbean,13 or older,"no, only English or Spanish",yes,2025-07-23_09h13.20.127,empathy_intonation_perc,2024.2.4,MacIntel,57.80346821,6163fbf78813617495ee7a9b,687ed1b7e638a4cbf2f02089,6880d91486d276e58b1b9d0c,,,,,,,,,,,,,86,0,,./stim/wavs/puertorican_mismatch_declarative-broad-focus_El-nino-oye-el-rio.wav,,,,,,,,,,,,,,,,,,,,,,410.2304,412.8631,0,1,2.1001,,0,21,21,85,1,0,puertorican,,,,,,,,,,,,,,,,,,,,,,,,,,,,,,,,,,,,,,,,,,,,,,,,,,,,,,,,
,,,,,,,,,6163fbf78813617495ee7a9b,Spanish/ Caribbean,13 or older,"no, only English or Spanish",yes,2025-07-23_09h13.20.127,empathy_intonation_perc,2024.2.4,MacIntel,57.80346821,6163fbf78813617495ee7a9b,687ed1b7e638a4cbf2f02089,6880d91486d276e58b1b9d0c,,,,,,,,,,,,,41,1,,./stim/wavs/puertorican_mismatch_interrogative-total-yn_El-nino-oye-el-rio.wav,,,,,,,,,,,,,,,,,,,,,,412.8636,415.5626,0,0,2.1829,,0,22,22,40,1,1,puertorican,,,,,,,,,,,,,,,,,,,,,,,,,,,,,,,,,,,,,,,,,,,,,,,,,,,,,,,,
,,,,,,,,,6163fbf78813617495ee7a9b,Spanish/ Caribbean,13 or older,"no, only English or Spanish",yes,2025-07-23_09h13.20.127,empathy_intonation_perc,2024.2.4,MacIntel,57.80346821,6163fbf78813617495ee7a9b,687ed1b7e638a4cbf2f02089,6880d91486d276e58b1b9d0c,,,,,,,,,,,,,83,0,,./stim/wavs/mexican_mismatch_declarative-broad-focus_Mi-tia-odia-la-lluvia.wav,,,,,,,,,,,,,,,,,,,,,,415.5629,417.6134,0,1,1.5333,,0,23,23,82,1,0,mexican,,,,,,,,,,,,,,,,,,,,,,,,,,,,,,,,,,,,,,,,,,,,,,,,,,,,,,,,
,,,,,,,,,6163fbf78813617495ee7a9b,Spanish/ Caribbean,13 or older,"no, only English or Spanish",yes,2025-07-23_09h13.20.127,empathy_intonation_perc,2024.2.4,MacIntel,57.80346821,6163fbf78813617495ee7a9b,687ed1b7e638a4cbf2f02089,6880d91486d276e58b1b9d0c,,,,,,,,,,,,,85,0,,./stim/wavs/puertorican_mismatch_declarative-broad-focus_El-hombre-mira-la-luna.wav,,,,,,,,,,,,,,,,,,,,,,417.6139,420.6135,0,1,2.4664,,0,24,24,84,1,0,puertorican,,,,,,,,,,,,,,,,,,,,,,,,,,,,,,,,,,,,,,,,,,,,,,,,,,,,,,,,
,,,,,,,,,6163fbf78813617495ee7a9b,Spanish/ Caribbean,13 or older,"no, only English or Spanish",yes,2025-07-23_09h13.20.127,empathy_intonation_perc,2024.2.4,MacIntel,57.80346821,6163fbf78813617495ee7a9b,687ed1b7e638a4cbf2f02089,6880d91486d276e58b1b9d0c,,,,,,,,,,,,,45,0,,./stim/wavs/castilian_match_declarative-broad-focus_David-leia-el-libro.wav,,,,,,,,,,,,,,,,,,,,,,420.6141,423.3461,0,1,2.199,,0,25,25,44,1,0,castilian,,,,,,,,,,,,,,,,,,,,,,,,,,,,,,,,,,,,,,,,,,,,,,,,,,,,,,,,
,,,,,,,,,6163fbf78813617495ee7a9b,Spanish/ Caribbean,13 or older,"no, only English or Spanish",yes,2025-07-23_09h13.20.127,empathy_intonation_perc,2024.2.4,MacIntel,57.80346821,6163fbf78813617495ee7a9b,687ed1b7e638a4cbf2f02089,6880d91486d276e58b1b9d0c,,,,,,,,,,,,,47,0,,./stim/wavs/castilian_match_declarative-broad-focus_Manuela-vende-el-carro.wav,,,,,,,,,,,,,,,,,,,,,,423.3468,426.6793,0,1,2.7997,,0,26,26,46,1,0,castilian,,,,,,,,,,,,,,,,,,,,,,,,,,,,,,,,,,,,,,,,,,,,,,,,,,,,,,,,
,,,,,,,,,6163fbf78813617495ee7a9b,Spanish/ Caribbean,13 or older,"no, only English or Spanish",yes,2025-07-23_09h13.20.127,empathy_intonation_perc,2024.2.4,MacIntel,57.80346821,6163fbf78813617495ee7a9b,687ed1b7e638a4cbf2f02089,6880d91486d276e58b1b9d0c,,,,,,,,,,,,,65,0,,./stim/wavs/puertorican_match_declarative-broad-focus_David-leia-el-libro.wav,,,,,,,,,,,,,,,,,,,,,,426.68,428.746,0,1,1.5331,,0,27,27,64,1,0,puertorican,,,,,,,,,,,,,,,,,,,,,,,,,,,,,,,,,,,,,,,,,,,,,,,,,,,,,,,,
,,,,,,,,,6163fbf78813617495ee7a9b,Spanish/ Caribbean,13 or older,"no, only English or Spanish",yes,2025-07-23_09h13.20.127,empathy_intonation_perc,2024.2.4,MacIntel,57.80346821,6163fbf78813617495ee7a9b,687ed1b7e638a4cbf2f02089,6880d91486d276e58b1b9d0c,,,,,,,,,,,,,14,1,,./stim/wavs/mexican_match_interrogative-total-yn_Daniel-iba-a-Bolivia.wav,,,,,,,,,,,,,,,,,,,,,,428.7467,431.2635,1,1,1.9837,,0,28,28,13,1,0,mexican,,,,,,,,,,,,,,,,,,,,,,,,,,,,,,,,,,,,,,,,,,,,,,,,,,,,,,,,
,,,,,,,,,6163fbf78813617495ee7a9b,Spanish/ Caribbean,13 or older,"no, only English or Spanish",yes,2025-07-23_09h13.20.127,empathy_intonation_perc,2024.2.4,MacIntel,57.80346821,6163fbf78813617495ee7a9b,687ed1b7e638a4cbf2f02089,6880d91486d276e58b1b9d0c,,,,,,,,,,,,,1,1,,./stim/wavs/castilian_match_interrogative-total-yn_David-leia-el-libro.wav,,,,,,,,,,,,,,,,,,,,,,431.2643,433.5123,1,1,1.7153,,0,29,29,0,1,0,castilian,,,,,,,,,,,,,,,,,,,,,,,,,,,,,,,,,,,,,,,,,,,,,,,,,,,,,,,,
,,,,,,,,,6163fbf78813617495ee7a9b,Spanish/ Caribbean,13 or older,"no, only English or Spanish",yes,2025-07-23_09h13.20.127,empathy_intonation_perc,2024.2.4,MacIntel,57.80346821,6163fbf78813617495ee7a9b,687ed1b7e638a4cbf2f02089,6880d91486d276e58b1b9d0c,,,,,,,,,,,,,82,0,,./stim/wavs/mexican_mismatch_declarative-broad-focus_Mi-novio-viene-del-lago.wav,,,,,,,,,,,,,,,,,,,,,,433.5126,435.4797,0,1,1.4489,,0,30,30,81,1,0,mexican,,,,,,,,,,,,,,,,,,,,,,,,,,,,,,,,,,,,,,,,,,,,,,,,,,,,,,,,
,,,,,,,,,6163fbf78813617495ee7a9b,Spanish/ Caribbean,13 or older,"no, only English or Spanish",yes,2025-07-23_09h13.20.127,empathy_intonation_perc,2024.2.4,MacIntel,57.80346821,6163fbf78813617495ee7a9b,687ed1b7e638a4cbf2f02089,6880d91486d276e58b1b9d0c,,,,,,,,,,,,,26,1,,./stim/wavs/castilian_mismatch_interrogative-total-yn_La-nina-lava-el-plato.wav,,,,,,,,,,,,,,,,,,,,,,435.4804,438.3961,1,1,2.3828,,0,31,31,25,1,0,castilian,,,,,,,,,,,,,,,,,,,,,,,,,,,,,,,,,,,,,,,,,,,,,,,,,,,,,,,,
,,,,,,,,,6163fbf78813617495ee7a9b,Spanish/ Caribbean,13 or older,"no, only English or Spanish",yes,2025-07-23_09h13.20.127,empathy_intonation_perc,2024.2.4,MacIntel,57.80346821,6163fbf78813617495ee7a9b,687ed1b7e638a4cbf2f02089,6880d91486d276e58b1b9d0c,,,,,,,,,,,,,22,1,,./stim/wavs/puertorican_match_interrogative-total-yn_Emilio-ama-la-marcha.wav,,,,,,,,,,,,,,,,,,,,,,438.3966,441.0123,1,1,2.1011,,0,32,32,21,1,1,puertorican,,,,,,,,,,,,,,,,,,,,,,,,,,,,,,,,,,,,,,,,,,,,,,,,,,,,,,,,
,,,,,,,,,6163fbf78813617495ee7a9b,Spanish/ Caribbean,13 or older,"no, only English or Spanish",yes,2025-07-23_09h13.20.127,empathy_intonation_perc,2024.2.4,MacIntel,57.80346821,6163fbf78813617495ee7a9b,687ed1b7e638a4cbf2f02089,6880d91486d276e58b1b9d0c,,,,,,,,,,,,,24,1,,./stim/wavs/puertorican_match_interrogative-total-yn_Maria-bebe-el-vino.wav,,,,,,,,,,,,,,,,,,,,,,441.0127,442.8125,1,1,1.2831,,0,33,33,23,1,1,puertorican,,,,,,,,,,,,,,,,,,,,,,,,,,,,,,,,,,,,,,,,,,,,,,,,,,,,,,,,
,,,,,,,,,6163fbf78813617495ee7a9b,Spanish/ Caribbean,13 or older,"no, only English or Spanish",yes,2025-07-23_09h13.20.127,empathy_intonation_perc,2024.2.4,MacIntel,57.80346821,6163fbf78813617495ee7a9b,687ed1b7e638a4cbf2f02089,6880d91486d276e58b1b9d0c,,,,,,,,,,,,,3,1,,./stim/wavs/castilian_match_interrogative-total-yn_Manuela-vende-el-carro.wav,,,,,,,,,,,,,,,,,,,,,,442.8129,445.0955,1,1,1.75,,0,34,34,2,1,0,castilian,,,,,,,,,,,,,,,,,,,,,,,,,,,,,,,,,,,,,,,,,,,,,,,,,,,,,,,,
,,,,,,,,,6163fbf78813617495ee7a9b,Spanish/ Caribbean,13 or older,"no, only English or Spanish",yes,2025-07-23_09h13.20.127,empathy_intonation_perc,2024.2.4,MacIntel,57.80346821,6163fbf78813617495ee7a9b,687ed1b7e638a4cbf2f02089,6880d91486d276e58b1b9d0c,,,,,,,,,,,,,74,0,,./stim/wavs/cuban_mismatch_declarative-broad-focus_El-bebe-comia-muy-bien.wav,,,,,,,,,,,,,,,,,,,,,,445.0962,447.3625,0,1,1.7352,,0,35,35,73,1,0,cuban,,,,,,,,,,,,,,,,,,,,,,,,,,,,,,,,,,,,,,,,,,,,,,,,,,,,,,,,
,,,,,,,,,6163fbf78813617495ee7a9b,Spanish/ Caribbean,13 or older,"no, only English or Spanish",yes,2025-07-23_09h13.20.127,empathy_intonation_perc,2024.2.4,MacIntel,57.80346821,6163fbf78813617495ee7a9b,687ed1b7e638a4cbf2f02089,6880d91486d276e58b1b9d0c,,,,,,,,,,,,,4,1,,./stim/wavs/castilian_match_interrogative-total-yn_Maria-bebe-el-vino.wav,,,,,,,,,,,,,,,,,,,,,,447.3631,449.4625,1,1,1.5661,,0,36,36,3,1,0,castilian,,,,,,,,,,,,,,,,,,,,,,,,,,,,,,,,,,,,,,,,,,,,,,,,,,,,,,,,
,,,,,,,,,6163fbf78813617495ee7a9b,Spanish/ Caribbean,13 or older,"no, only English or Spanish",yes,2025-07-23_09h13.20.127,empathy_intonation_perc,2024.2.4,MacIntel,57.80346821,6163fbf78813617495ee7a9b,687ed1b7e638a4cbf2f02089,6880d91486d276e58b1b9d0c,,,,,,,,,,,,,51,0,,./stim/wavs/cuban_match_declarative-broad-focus_Ana-lleva-el-abrigo.wav,,,,,,,,,,,,,,,,,,,,,,449.4629,452.6291,0,1,2.6328,,0,37,37,50,1,0,cuban,,,,,,,,,,,,,,,,,,,,,,,,,,,,,,,,,,,,,,,,,,,,,,,,,,,,,,,,
,,,,,,,,,6163fbf78813617495ee7a9b,Spanish/ Caribbean,13 or older,"no, only English or Spanish",yes,2025-07-23_09h13.20.127,empathy_intonation_perc,2024.2.4,MacIntel,57.80346821,6163fbf78813617495ee7a9b,687ed1b7e638a4cbf2f02089,6880d91486d276e58b1b9d0c,,,,,,,,,,,,,87,0,,./stim/wavs/puertorican_mismatch_declarative-broad-focus_La-maestra-vive-en-Paris.wav,,,,,,,,,,,,,,,,,,,,,,452.6298,455.7461,0,1,2.5999,,0,38,38,86,1,0,puertorican,,,,,,,,,,,,,,,,,,,,,,,,,,,,,,,,,,,,,,,,,,,,,,,,,,,,,,,,
,,,,,,,,,6163fbf78813617495ee7a9b,Spanish/ Caribbean,13 or older,"no, only English or Spanish",yes,2025-07-23_09h13.20.127,empathy_intonation_perc,2024.2.4,MacIntel,57.80346821,6163fbf78813617495ee7a9b,687ed1b7e638a4cbf2f02089,6880d91486d276e58b1b9d0c,,,,,,,,,,,,,43,1,,./stim/wavs/puertorican_mismatch_interrogative-total-yn_La-nina-lava-el-plato.wav,,,,,,,,,,,,,,,,,,,,,,455.7465,458.0953,1,1,1.8167,,0,39,39,42,1,1,puertorican,,,,,,,,,,,,,,,,,,,,,,,,,,,,,,,,,,,,,,,,,,,,,,,,,,,,,,,,
,,,,,,,,,6163fbf78813617495ee7a9b,Spanish/ Caribbean,13 or older,"no, only English or Spanish",yes,2025-07-23_09h13.20.127,empathy_intonation_perc,2024.2.4,MacIntel,57.80346821,6163fbf78813617495ee7a9b,687ed1b7e638a4cbf2f02089,6880d91486d276e58b1b9d0c,,,,,,,,,,,,,80,0,,./stim/wavs/mexican_mismatch_declarative-broad-focus_El-hombre-mira-la-luna.wav,,,,,,,,,,,,,,,,,,,,,,458.0959,462.0131,0,1,3.3819,,0,40,40,79,1,0,mexican,,,,,,,,,,,,,,,,,,,,,,,,,,,,,,,,,,,,,,,,,,,,,,,,,,,,,,,,
,,,,,,,,,6163fbf78813617495ee7a9b,Spanish/ Caribbean,13 or older,"no, only English or Spanish",yes,2025-07-23_09h13.20.127,empathy_intonation_perc,2024.2.4,MacIntel,57.80346821,6163fbf78813617495ee7a9b,687ed1b7e638a4cbf2f02089,6880d91486d276e58b1b9d0c,,,,,,,,,,,,,76,0,,./stim/wavs/cuban_mismatch_declarative-broad-focus_La-nina-lava-el-plato.wav,,,,,,,,,,,,,,,,,,,,,,462.0136,464.6958,0,1,2.1508,,0,41,41,75,1,0,cuban,,,,,,,,,,,,,,,,,,,,,,,,,,,,,,,,,,,,,,,,,,,,,,,,,,,,,,,,
,,,,,,,,,6163fbf78813617495ee7a9b,Spanish/ Caribbean,13 or older,"no, only English or Spanish",yes,2025-07-23_09h13.20.127,empathy_intonation_perc,2024.2.4,MacIntel,57.80346821,6163fbf78813617495ee7a9b,687ed1b7e638a4cbf2f02089,6880d91486d276e58b1b9d0c,,,,,,,,,,,,,35,1,,./stim/wavs/mexican_mismatch_interrogative-total-yn_El-hombre-mira-la-luna.wav,,,,,,,,,,,,,,,,,,,,,,464.6964,466.9961,1,1,1.783,,0,42,42,34,1,0,mexican,,,,,,,,,,,,,,,,,,,,,,,,,,,,,,,,,,,,,,,,,,,,,,,,,,,,,,,,
,,,,,,,,,6163fbf78813617495ee7a9b,Spanish/ Caribbean,13 or older,"no, only English or Spanish",yes,2025-07-23_09h13.20.127,empathy_intonation_perc,2024.2.4,MacIntel,57.80346821,6163fbf78813617495ee7a9b,687ed1b7e638a4cbf2f02089,6880d91486d276e58b1b9d0c,,,,,,,,,,,,,69,0,,./stim/wavs/castilian_mismatch_declarative-broad-focus_El-nino-oye-el-rio.wav,,,,,,,,,,,,,,,,,,,,,,466.9965,471.8137,0,1,4.2862,,0,43,43,68,1,0,castilian,,,,,,,,,,,,,,,,,,,,,,,,,,,,,,,,,,,,,,,,,,,,,,,,,,,,,,,,
,,,,,,,,,6163fbf78813617495ee7a9b,Spanish/ Caribbean,13 or older,"no, only English or Spanish",yes,2025-07-23_09h13.20.127,empathy_intonation_perc,2024.2.4,MacIntel,57.80346821,6163fbf78813617495ee7a9b,687ed1b7e638a4cbf2f02089,6880d91486d276e58b1b9d0c,,,,,,,,,,,,,27,1,,./stim/wavs/castilian_mismatch_interrogative-total-yn_Mi-madre-come-la-fruta.wav,,,,,,,,,,,,,,,,,,,,,,471.8145,474.5461,1,1,2.1987,,0,44,44,26,1,0,castilian,,,,,,,,,,,,,,,,,,,,,,,,,,,,,,,,,,,,,,,,,,,,,,,,,,,,,,,,
,,,,,,,,,6163fbf78813617495ee7a9b,Spanish/ Caribbean,13 or older,"no, only English or Spanish",yes,2025-07-23_09h13.20.127,empathy_intonation_perc,2024.2.4,MacIntel,57.80346821,6163fbf78813617495ee7a9b,687ed1b7e638a4cbf2f02089,6880d91486d276e58b1b9d0c,,,,,,,,,,,,,73,0,,./stim/wavs/castilian_mismatch_declarative-broad-focus_Mi-tia-odia-la-lluvia.wav,,,,,,,,,,,,,,,,,,,,,,474.5465,478.3795,0,1,3.3005,,0,45,45,72,1,0,castilian,,,,,,,,,,,,,,,,,,,,,,,,,,,,,,,,,,,,,,,,,,,,,,,,,,,,,,,,
,,,,,,,,,6163fbf78813617495ee7a9b,Spanish/ Caribbean,13 or older,"no, only English or Spanish",yes,2025-07-23_09h13.20.127,empathy_intonation_perc,2024.2.4,MacIntel,57.80346821,6163fbf78813617495ee7a9b,687ed1b7e638a4cbf2f02089,6880d91486d276e58b1b9d0c,,,,,,,,,,,,,36,1,,./stim/wavs/mexican_mismatch_interrogative-total-yn_El-nino-oye-el-rio.wav,,,,,,,,,,,,,,,,,,,,,,478.3801,481.2955,1,1,2.3817,,0,46,46,35,1,0,mexican,,,,,,,,,,,,,,,,,,,,,,,,,,,,,,,,,,,,,,,,,,,,,,,,,,,,,,,,
,,,,,,,,,6163fbf78813617495ee7a9b,Spanish/ Caribbean,13 or older,"no, only English or Spanish",yes,2025-07-23_09h13.20.127,empathy_intonation_perc,2024.2.4,MacIntel,57.80346821,6163fbf78813617495ee7a9b,687ed1b7e638a4cbf2f02089,6880d91486d276e58b1b9d0c,,,,,,,,,,,,,77,0,,./stim/wavs/cuban_mismatch_declarative-broad-focus_Mi-novio-viene-del-lago.wav,,,,,,,,,,,,,,,,,,,,,,481.2959,483.9786,0,1,2.1502,,0,47,47,76,1,0,cuban,,,,,,,,,,,,,,,,,,,,,,,,,,,,,,,,,,,,,,,,,,,,,,,,,,,,,,,,
,,,,,,,,,6163fbf78813617495ee7a9b,Spanish/ Caribbean,13 or older,"no, only English or Spanish",yes,2025-07-23_09h13.20.127,empathy_intonation_perc,2024.2.4,MacIntel,57.80346821,6163fbf78813617495ee7a9b,687ed1b7e638a4cbf2f02089,6880d91486d276e58b1b9d0c,,,,,,,,,,,,,38,1,,./stim/wavs/mexican_mismatch_interrogative-total-yn_Mi-novio-viene-del-lago.wav,,,,,,,,,,,,,,,,,,,,,,483.9792,486.3963,1,1,1.902,,0,48,48,37,1,0,mexican,,,,,,,,,,,,,,,,,,,,,,,,,,,,,,,,,,,,,,,,,,,,,,,,,,,,,,,,
,,,,,,,,,6163fbf78813617495ee7a9b,Spanish/ Caribbean,13 or older,"no, only English or Spanish",yes,2025-07-23_09h13.20.127,empathy_intonation_perc,2024.2.4,MacIntel,57.80346821,6163fbf78813617495ee7a9b,687ed1b7e638a4cbf2f02089,6880d91486d276e58b1b9d0c,,,,,,,,,,,,,32,1,,./stim/wavs/cuban_mismatch_interrogative-total-yn_Mi-madre-come-la-fruta.wav,,,,,,,,,,,,,,,,,,,,,,486.3966,489.5787,0,0,2.6501,,0,49,49,31,1,1,cuban,,,,,,,,,,,,,,,,,,,,,,,,,,,,,,,,,,,,,,,,,,,,,,,,,,,,,,,,
,,,,,,,,,6163fbf78813617495ee7a9b,Spanish/ Caribbean,13 or older,"no, only English or Spanish",yes,2025-07-23_09h13.20.127,empathy_intonation_perc,2024.2.4,MacIntel,57.80346821,6163fbf78813617495ee7a9b,687ed1b7e638a4cbf2f02089,6880d91486d276e58b1b9d0c,,,,,,,,,,,,,28,1,,./stim/wavs/castilian_mismatch_interrogative-total-yn_Mi-novio-viene-del-lago.wav,,,,,,,,,,,,,,,,,,,,,,489.5794,491.9461,1,1,1.8322,,0,50,50,27,1,0,castilian,,,,,,,,,,,,,,,,,,,,,,,,,,,,,,,,,,,,,,,,,,,,,,,,,,,,,,,,
,,,,,,,,,6163fbf78813617495ee7a9b,Spanish/ Caribbean,13 or older,"no, only English or Spanish",yes,2025-07-23_09h13.20.127,empathy_intonation_perc,2024.2.4,MacIntel,57.80346821,6163fbf78813617495ee7a9b,687ed1b7e638a4cbf2f02089,6880d91486d276e58b1b9d0c,,,,,,,,,,,,,12,1,,./stim/wavs/cuban_match_interrogative-total-yn_Marta-abre-el-regalo.wav,,,,,,,,,,,,,,,,,,,,,,491.9468,495.179,1,1,2.6991,,0,51,51,11,1,1,cuban,,,,,,,,,,,,,,,,,,,,,,,,,,,,,,,,,,,,,,,,,,,,,,,,,,,,,,,,
,,,,,,,,,6163fbf78813617495ee7a9b,Spanish/ Caribbean,13 or older,"no, only English or Spanish",yes,2025-07-23_09h13.20.127,empathy_intonation_perc,2024.2.4,MacIntel,57.80346821,6163fbf78813617495ee7a9b,687ed1b7e638a4cbf2f02089,6880d91486d276e58b1b9d0c,,,,,,,,,,,,,40,1,,./stim/wavs/puertorican_mismatch_interrogative-total-yn_El-hombre-mira-la-luna.wav,,,,,,,,,,,,,,,,,,,,,,495.1795,497.2626,1,1,1.551,,0,52,52,39,1,1,puertorican,,,,,,,,,,,,,,,,,,,,,,,,,,,,,,,,,,,,,,,,,,,,,,,,,,,,,,,,
,,,,,,,,,6163fbf78813617495ee7a9b,Spanish/ Caribbean,13 or older,"no, only English or Spanish",yes,2025-07-23_09h13.20.127,empathy_intonation_perc,2024.2.4,MacIntel,57.80346821,6163fbf78813617495ee7a9b,687ed1b7e638a4cbf2f02089,6880d91486d276e58b1b9d0c,,,,,,,,,,,,,11,1,,./stim/wavs/cuban_match_interrogative-total-yn_Mariano-habla-del-tiempo.wav,,,,,,,,,,,,,,,,,,,,,,497.263,500.3122,0,0,2.5162,,0,53,53,10,1,1,cuban,,,,,,,,,,,,,,,,,,,,,,,,,,,,,,,,,,,,,,,,,,,,,,,,,,,,,,,,
,,,,,,,,,6163fbf78813617495ee7a9b,Spanish/ Caribbean,13 or older,"no, only English or Spanish",yes,2025-07-23_09h13.20.127,empathy_intonation_perc,2024.2.4,MacIntel,57.80346821,6163fbf78813617495ee7a9b,687ed1b7e638a4cbf2f02089,6880d91486d276e58b1b9d0c,,,,,,,,,,,,,70,0,,./stim/wavs/castilian_mismatch_declarative-broad-focus_La-maestra-vive-en-Paris.wav,,,,,,,,,,,,,,,,,,,,,,500.3128,503.8126,0,1,2.9661,,0,54,54,69,1,0,castilian,,,,,,,,,,,,,,,,,,,,,,,,,,,,,,,,,,,,,,,,,,,,,,,,,,,,,,,,
,,,,,,,,,6163fbf78813617495ee7a9b,Spanish/ Caribbean,13 or older,"no, only English or Spanish",yes,2025-07-23_09h13.20.127,empathy_intonation_perc,2024.2.4,MacIntel,57.80346821,6163fbf78813617495ee7a9b,687ed1b7e638a4cbf2f02089,6880d91486d276e58b1b9d0c,,,,,,,,,,,,,8,1,,./stim/wavs/cuban_match_interrogative-total-yn_Daniel-iba-a-Bolivia.wav,,,,,,,,,,,,,,,,,,,,,,503.8134,508.0454,0,0,3.7004,,0,55,55,7,1,1,cuban,,,,,,,,,,,,,,,,,,,,,,,,,,,,,,,,,,,,,,,,,,,,,,,,,,,,,,,,
,,,,,,,,,6163fbf78813617495ee7a9b,Spanish/ Caribbean,13 or older,"no, only English or Spanish",yes,2025-07-23_09h13.20.127,empathy_intonation_perc,2024.2.4,MacIntel,57.80346821,6163fbf78813617495ee7a9b,687ed1b7e638a4cbf2f02089,6880d91486d276e58b1b9d0c,,,,,,,,,,,,,42,1,,./stim/wavs/puertorican_mismatch_interrogative-total-yn_La-maestra-vive-en-Paris.wav,,,,,,,,,,,,,,,,,,,,,,508.0461,513.4951,0,0,4.9168,,0,56,56,41,1,1,puertorican,,,,,,,,,,,,,,,,,,,,,,,,,,,,,,,,,,,,,,,,,,,,,,,,,,,,,,,,
,,,,,,,,,6163fbf78813617495ee7a9b,Spanish/ Caribbean,13 or older,"no, only English or Spanish",yes,2025-07-23_09h13.20.127,empathy_intonation_perc,2024.2.4,MacIntel,57.80346821,6163fbf78813617495ee7a9b,687ed1b7e638a4cbf2f02089,6880d91486d276e58b1b9d0c,,,,,,,,,,,,,5,1,,./stim/wavs/castilian_match_interrogative-total-yn_Mariano-habla-del-tiempo.wav,,,,,,,,,,,,,,,,,,,,,,513.4956,515.9448,1,1,1.9148,,0,57,57,4,1,0,castilian,,,,,,,,,,,,,,,,,,,,,,,,,,,,,,,,,,,,,,,,,,,,,,,,,,,,,,,,
,,,,,,,,,6163fbf78813617495ee7a9b,Spanish/ Caribbean,13 or older,"no, only English or Spanish",yes,2025-07-23_09h13.20.127,empathy_intonation_perc,2024.2.4,MacIntel,57.80346821,6163fbf78813617495ee7a9b,687ed1b7e638a4cbf2f02089,6880d91486d276e58b1b9d0c,,,,,,,,,,,,,84,0,,./stim/wavs/puertorican_mismatch_declarative-broad-focus_El-bebe-comia-muy-bien.wav,,,,,,,,,,,,,,,,,,,,,,515.9453,518.6612,0,1,2.2001,,0,58,58,83,1,0,puertorican,,,,,,,,,,,,,,,,,,,,,,,,,,,,,,,,,,,,,,,,,,,,,,,,,,,,,,,,
,,,,,,,,,6163fbf78813617495ee7a9b,Spanish/ Caribbean,13 or older,"no, only English or Spanish",yes,2025-07-23_09h13.20.127,empathy_intonation_perc,2024.2.4,MacIntel,57.80346821,6163fbf78813617495ee7a9b,687ed1b7e638a4cbf2f02089,6880d91486d276e58b1b9d0c,,,,,,,,,,,,,44,1,,./stim/wavs/puertorican_mismatch_interrogative-total-yn_Mi-madre-come-la-fruta.wav,,,,,,,,,,,,,,,,,,,,,,518.6616,521.0785,0,0,1.8825,,0,59,59,43,1,1,puertorican,,,,,,,,,,,,,,,,,,,,,,,,,,,,,,,,,,,,,,,,,,,,,,,,,,,,,,,,
,,,,,,,,,6163fbf78813617495ee7a9b,Spanish/ Caribbean,13 or older,"no, only English or Spanish",yes,2025-07-23_09h13.20.127,empathy_intonation_perc,2024.2.4,MacIntel,57.80346821,6163fbf78813617495ee7a9b,687ed1b7e638a4cbf2f02089,6880d91486d276e58b1b9d0c,,,,,,,,,,,,,29,1,,./stim/wavs/castilian_mismatch_interrogative-total-yn_Mi-tia-odia-la-lluvia.wav,,,,,,,,,,,,,,,,,,,,,,521.0791,524.2279,1,1,2.6166,,0,60,60,28,1,0,castilian,,,,,,,,,,,,,,,,,,,,,,,,,,,,,,,,,,,,,,,,,,,,,,,,,,,,,,,,
,,,,,,,,,6163fbf78813617495ee7a9b,Spanish/ Caribbean,13 or older,"no, only English or Spanish",yes,2025-07-23_09h13.20.127,empathy_intonation_perc,2024.2.4,MacIntel,57.80346821,6163fbf78813617495ee7a9b,687ed1b7e638a4cbf2f02089,6880d91486d276e58b1b9d0c,,,,,,,,,,,,,13,1,,./stim/wavs/mexican_match_interrogative-total-yn_Ana-lleva-el-abrigo.wav,,,,,,,,,,,,,,,,,,,,,,524.2283,541.8782,0,0,17.132,,0,61,61,12,1,0,mexican,,,,,,,,,,,,,,,,,,,,,,,,,,,,,,,,,,,,,,,,,,,,,,,,,,,,,,,,
,,,,,,,,,6163fbf78813617495ee7a9b,Spanish/ Caribbean,13 or older,"no, only English or Spanish",yes,2025-07-23_09h13.20.127,empathy_intonation_perc,2024.2.4,MacIntel,57.80346821,6163fbf78813617495ee7a9b,687ed1b7e638a4cbf2f02089,6880d91486d276e58b1b9d0c,,,,,,,,,,,,,68,0,,./stim/wavs/puertorican_match_declarative-broad-focus_Maria-bebe-el-vino.wav,,,,,,,,,,,,,,,,,,,,,,541.8785,544.0781,0,1,1.6671,,0,62,62,67,1,0,puertorican,,,,,,,,,,,,,,,,,,,,,,,,,,,,,,,,,,,,,,,,,,,,,,,,,,,,,,,,
,,,,,,,,,6163fbf78813617495ee7a9b,Spanish/ Caribbean,13 or older,"no, only English or Spanish",yes,2025-07-23_09h13.20.127,empathy_intonation_perc,2024.2.4,MacIntel,57.80346821,6163fbf78813617495ee7a9b,687ed1b7e638a4cbf2f02089,6880d91486d276e58b1b9d0c,,,,,,,,,,,,,81,0,,./stim/wavs/mexican_mismatch_declarative-broad-focus_La-maestra-vive-en-Paris.wav,,,,,,,,,,,,,,,,,,,,,,544.0785,546.5109,0,1,1.8995,,0,63,63,80,1,0,mexican,,,,,,,,,,,,,,,,,,,,,,,,,,,,,,,,,,,,,,,,,,,,,,,,,,,,,,,,
,,,,,,,,,6163fbf78813617495ee7a9b,Spanish/ Caribbean,13 or older,"no, only English or Spanish",yes,2025-07-23_09h13.20.127,empathy_intonation_perc,2024.2.4,MacIntel,57.80346821,6163fbf78813617495ee7a9b,687ed1b7e638a4cbf2f02089,6880d91486d276e58b1b9d0c,,,,,,,,,,,,,63,0,,./stim/wavs/puertorican_match_declarative-broad-focus_Ana-lleva-el-abrigo.wav,,,,,,,,,,,,,,,,,,,,,,546.5112,549.2284,0,1,2.1831,,0,64,64,62,1,0,puertorican,,,,,,,,,,,,,,,,,,,,,,,,,,,,,,,,,,,,,,,,,,,,,,,,,,,,,,,,
,,,,,,,,,6163fbf78813617495ee7a9b,Spanish/ Caribbean,13 or older,"no, only English or Spanish",yes,2025-07-23_09h13.20.127,empathy_intonation_perc,2024.2.4,MacIntel,57.80346821,6163fbf78813617495ee7a9b,687ed1b7e638a4cbf2f02089,6880d91486d276e58b1b9d0c,,,,,,,,,,,,,7,1,,./stim/wavs/cuban_match_interrogative-total-yn_Ana-lleva-el-abrigo.wav,,,,,,,,,,,,,,,,,,,,,,549.2291,552.4611,1,1,2.6997,,0,65,65,6,1,1,cuban,,,,,,,,,,,,,,,,,,,,,,,,,,,,,,,,,,,,,,,,,,,,,,,,,,,,,,,,
,,,,,,,,,6163fbf78813617495ee7a9b,Spanish/ Caribbean,13 or older,"no, only English or Spanish",yes,2025-07-23_09h13.20.127,empathy_intonation_perc,2024.2.4,MacIntel,57.80346821,6163fbf78813617495ee7a9b,687ed1b7e638a4cbf2f02089,6880d91486d276e58b1b9d0c,,,,,,,,,,,,,23,1,,./stim/wavs/puertorican_match_interrogative-total-yn_Manuela-vende-el-carro.wav,,,,,,,,,,,,,,,,,,,,,,552.4615,555.0609,1,1,2.0667,,0,66,66,22,1,1,puertorican,,,,,,,,,,,,,,,,,,,,,,,,,,,,,,,,,,,,,,,,,,,,,,,,,,,,,,,,
,,,,,,,,,6163fbf78813617495ee7a9b,Spanish/ Caribbean,13 or older,"no, only English or Spanish",yes,2025-07-23_09h13.20.127,empathy_intonation_perc,2024.2.4,MacIntel,57.80346821,6163fbf78813617495ee7a9b,687ed1b7e638a4cbf2f02089,6880d91486d276e58b1b9d0c,,,,,,,,,,,,,48,0,,./stim/wavs/castilian_match_declarative-broad-focus_Maria-bebe-el-vino.wav,,,,,,,,,,,,,,,,,,,,,,555.0615,557.9444,0,1,2.366,,0,67,67,47,1,0,castilian,,,,,,,,,,,,,,,,,,,,,,,,,,,,,,,,,,,,,,,,,,,,,,,,,,,,,,,,
,,,,,,,,,6163fbf78813617495ee7a9b,Spanish/ Caribbean,13 or older,"no, only English or Spanish",yes,2025-07-23_09h13.20.127,empathy_intonation_perc,2024.2.4,MacIntel,57.80346821,6163fbf78813617495ee7a9b,687ed1b7e638a4cbf2f02089,6880d91486d276e58b1b9d0c,,,,,,,,,,,,,53,0,,./stim/wavs/cuban_match_declarative-broad-focus_Manuela-vende-el-carro.wav,,,,,,,,,,,,,,,,,,,,,,557.9449,564.045,0,1,5.583,,0,68,68,52,1,0,cuban,,,,,,,,,,,,,,,,,,,,,,,,,,,,,,,,,,,,,,,,,,,,,,,,,,,,,,,,
,,,,,,,,,6163fbf78813617495ee7a9b,Spanish/ Caribbean,13 or older,"no, only English or Spanish",yes,2025-07-23_09h13.20.127,empathy_intonation_perc,2024.2.4,MacIntel,57.80346821,6163fbf78813617495ee7a9b,687ed1b7e638a4cbf2f02089,6880d91486d276e58b1b9d0c,,,,,,,,,,,,,60,0,,./stim/wavs/mexican_match_declarative-broad-focus_Emilio-ama-la-marcha.wav,,,,,,,,,,,,,,,,,,,,,,564.0454,567.594,0,1,3.0174,,0,69,69,59,1,0,mexican,,,,,,,,,,,,,,,,,,,,,,,,,,,,,,,,,,,,,,,,,,,,,,,,,,,,,,,,
,,,,,,,,,6163fbf78813617495ee7a9b,Spanish/ Caribbean,13 or older,"no, only English or Spanish",yes,2025-07-23_09h13.20.127,empathy_intonation_perc,2024.2.4,MacIntel,57.80346821,6163fbf78813617495ee7a9b,687ed1b7e638a4cbf2f02089,6880d91486d276e58b1b9d0c,,,,,,,,,,,,,56,0,,./stim/wavs/cuban_match_declarative-broad-focus_Marta-abre-el-regalo.wav,,,,,,,,,,,,,,,,,,,,,,567.5948,569.8777,0,1,1.7681,,0,70,70,55,1,0,cuban,,,,,,,,,,,,,,,,,,,,,,,,,,,,,,,,,,,,,,,,,,,,,,,,,,,,,,,,
,,,,,,,,,6163fbf78813617495ee7a9b,Spanish/ Caribbean,13 or older,"no, only English or Spanish",yes,2025-07-23_09h13.20.127,empathy_intonation_perc,2024.2.4,MacIntel,57.80346821,6163fbf78813617495ee7a9b,687ed1b7e638a4cbf2f02089,6880d91486d276e58b1b9d0c,,,,,,,,,,,,,64,0,,./stim/wavs/puertorican_match_declarative-broad-focus_Daniel-iba-a-Bolivia.wav,,,,,,,,,,,,,,,,,,,,,,569.8782,574.2279,0,1,3.8176,,0,71,71,63,1,0,puertorican,,,,,,,,,,,,,,,,,,,,,,,,,,,,,,,,,,,,,,,,,,,,,,,,,,,,,,,,
,,,,,,,,,6163fbf78813617495ee7a9b,Spanish/ Caribbean,13 or older,"no, only English or Spanish",yes,2025-07-23_09h13.20.127,empathy_intonation_perc,2024.2.4,MacIntel,57.80346821,6163fbf78813617495ee7a9b,687ed1b7e638a4cbf2f02089,6880d91486d276e58b1b9d0c,,,,,,,,,,,,,72,0,,./stim/wavs/castilian_mismatch_declarative-broad-focus_Mi-novio-viene-del-lago.wav,,,,,,,,,,,,,,,,,,,,,,574.2284,576.6607,0,1,1.915,,0,72,72,71,1,0,castilian,,,,,,,,,,,,,,,,,,,,,,,,,,,,,,,,,,,,,,,,,,,,,,,,,,,,,,,,
,,,,,,,,,6163fbf78813617495ee7a9b,Spanish/ Caribbean,13 or older,"no, only English or Spanish",yes,2025-07-23_09h13.20.127,empathy_intonation_perc,2024.2.4,MacIntel,57.80346821,6163fbf78813617495ee7a9b,687ed1b7e638a4cbf2f02089,6880d91486d276e58b1b9d0c,,,,,,,,,,,,,49,0,,./stim/wavs/castilian_match_declarative-broad-focus_Mariano-habla-del-tiempo.wav,,,,,,,,,,,,,,,,,,,,,,576.6613,579.2611,0,1,2.068,,0,73,73,48,1,0,castilian,,,,,,,,,,,,,,,,,,,,,,,,,,,,,,,,,,,,,,,,,,,,,,,,,,,,,,,,
,,,,,,,,,6163fbf78813617495ee7a9b,Spanish/ Caribbean,13 or older,"no, only English or Spanish",yes,2025-07-23_09h13.20.127,empathy_intonation_perc,2024.2.4,MacIntel,57.80346821,6163fbf78813617495ee7a9b,687ed1b7e638a4cbf2f02089,6880d91486d276e58b1b9d0c,,,,,,,,,,,,,17,1,,./stim/wavs/mexican_match_interrogative-total-yn_Mariano-habla-del-tiempo.wav,,,,,,,,,,,,,,,,,,,,,,579.2616,581.394,0,0,1.6165,,0,74,74,16,1,0,mexican,,,,,,,,,,,,,,,,,,,,,,,,,,,,,,,,,,,,,,,,,,,,,,,,,,,,,,,,
,,,,,,,,,6163fbf78813617495ee7a9b,Spanish/ Caribbean,13 or older,"no, only English or Spanish",yes,2025-07-23_09h13.20.127,empathy_intonation_perc,2024.2.4,MacIntel,57.80346821,6163fbf78813617495ee7a9b,687ed1b7e638a4cbf2f02089,6880d91486d276e58b1b9d0c,,,,,,,,,,,,,79,0,,./stim/wavs/mexican_mismatch_declarative-broad-focus_El-bebe-comia-muy-bien.wav,,,,,,,,,,,,,,,,,,,,,,581.3945,584.9604,0,1,3.0332,,0,75,75,78,1,0,mexican,,,,,,,,,,,,,,,,,,,,,,,,,,,,,,,,,,,,,,,,,,,,,,,,,,,,,,,,
,,,,,,,,,6163fbf78813617495ee7a9b,Spanish/ Caribbean,13 or older,"no, only English or Spanish",yes,2025-07-23_09h13.20.127,empathy_intonation_perc,2024.2.4,MacIntel,57.80346821,6163fbf78813617495ee7a9b,687ed1b7e638a4cbf2f02089,6880d91486d276e58b1b9d0c,,,,,,,,,,,,,30,1,,./stim/wavs/cuban_mismatch_interrogative-total-yn_El-hombre-mira-la-luna.wav,,,,,,,,,,,,,,,,,,,,,,584.9608,587.394,1,1,1.9166,,0,76,76,29,1,1,cuban,,,,,,,,,,,,,,,,,,,,,,,,,,,,,,,,,,,,,,,,,,,,,,,,,,,,,,,,
,,,,,,,,,6163fbf78813617495ee7a9b,Spanish/ Caribbean,13 or older,"no, only English or Spanish",yes,2025-07-23_09h13.20.127,empathy_intonation_perc,2024.2.4,MacIntel,57.80346821,6163fbf78813617495ee7a9b,687ed1b7e638a4cbf2f02089,6880d91486d276e58b1b9d0c,,,,,,,,,,,,,52,0,,./stim/wavs/cuban_match_declarative-broad-focus_Daniel-iba-a-Bolivia.wav,,,,,,,,,,,,,,,,,,,,,,587.3945,589.8768,0,1,1.95,,0,77,77,51,1,0,cuban,,,,,,,,,,,,,,,,,,,,,,,,,,,,,,,,,,,,,,,,,,,,,,,,,,,,,,,,
,,,,,,,,,6163fbf78813617495ee7a9b,Spanish/ Caribbean,13 or older,"no, only English or Spanish",yes,2025-07-23_09h13.20.127,empathy_intonation_perc,2024.2.4,MacIntel,57.80346821,6163fbf78813617495ee7a9b,687ed1b7e638a4cbf2f02089,6880d91486d276e58b1b9d0c,,,,,,,,,,,,,54,0,,./stim/wavs/cuban_match_declarative-broad-focus_Maria-bebe-el-vino.wav,,,,,,,,,,,,,,,,,,,,,,589.8773,592.5438,0,1,2.1497,,0,78,78,53,1,0,cuban,,,,,,,,,,,,,,,,,,,,,,,,,,,,,,,,,,,,,,,,,,,,,,,,,,,,,,,,
,,,,,,,,,6163fbf78813617495ee7a9b,Spanish/ Caribbean,13 or older,"no, only English or Spanish",yes,2025-07-23_09h13.20.127,empathy_intonation_perc,2024.2.4,MacIntel,57.80346821,6163fbf78813617495ee7a9b,687ed1b7e638a4cbf2f02089,6880d91486d276e58b1b9d0c,,,,,,,,,,,,,21,1,,./stim/wavs/puertorican_match_interrogative-total-yn_David-leia-el-libro.wav,,,,,,,,,,,,,,,,,,,,,,592.5444,596.1105,0,0,3.0335,,0,79,79,20,1,1,puertorican,,,,,,,,,,,,,,,,,,,,,,,,,,,,,,,,,,,,,,,,,,,,,,,,,,,,,,,,
,,,,,,,,,6163fbf78813617495ee7a9b,Spanish/ Caribbean,13 or older,"no, only English or Spanish",yes,2025-07-23_09h13.20.127,empathy_intonation_perc,2024.2.4,MacIntel,57.80346821,6163fbf78813617495ee7a9b,687ed1b7e638a4cbf2f02089,6880d91486d276e58b1b9d0c,,,,,,,,,,,,,34,1,,./stim/wavs/cuban_mismatch_interrogative-total-yn_Mi-tia-odia-la-lluvia.wav,,,,,,,,,,,,,,,,,,,,,,596.111,598.577,1,1,1.9336,,0,80,80,33,1,1,cuban,,,,,,,,,,,,,,,,,,,,,,,,,,,,,,,,,,,,,,,,,,,,,,,,,,,,,,,,
,,,,,,,,,6163fbf78813617495ee7a9b,Spanish/ Caribbean,13 or older,"no, only English or Spanish",yes,2025-07-23_09h13.20.127,empathy_intonation_perc,2024.2.4,MacIntel,57.80346821,6163fbf78813617495ee7a9b,687ed1b7e638a4cbf2f02089,6880d91486d276e58b1b9d0c,,,,,,,,,,,,,88,0,,./stim/wavs/puertorican_mismatch_declarative-broad-focus_La-nina-lava-el-plato.wav,,,,,,,,,,,,,,,,,,,,,,598.5776,604.1936,0,1,5.101,,0,81,81,87,1,0,puertorican,,,,,,,,,,,,,,,,,,,,,,,,,,,,,,,,,,,,,,,,,,,,,,,,,,,,,,,,
,,,,,,,,,6163fbf78813617495ee7a9b,Spanish/ Caribbean,13 or older,"no, only English or Spanish",yes,2025-07-23_09h13.20.127,empathy_intonation_perc,2024.2.4,MacIntel,57.80346821,6163fbf78813617495ee7a9b,687ed1b7e638a4cbf2f02089,6880d91486d276e58b1b9d0c,,,,,,,,,,,,,19,1,,./stim/wavs/puertorican_match_interrogative-total-yn_Ana-lleva-el-abrigo.wav,,,,,,,,,,,,,,,,,,,,,,604.1941,607.86,1,1,3.1488,,0,82,82,18,1,1,puertorican,,,,,,,,,,,,,,,,,,,,,,,,,,,,,,,,,,,,,,,,,,,,,,,,,,,,,,,,
,,,,,,,,,6163fbf78813617495ee7a9b,Spanish/ Caribbean,13 or older,"no, only English or Spanish",yes,2025-07-23_09h13.20.127,empathy_intonation_perc,2024.2.4,MacIntel,57.80346821,6163fbf78813617495ee7a9b,687ed1b7e638a4cbf2f02089,6880d91486d276e58b1b9d0c,,,,,,,,,,,,,20,1,,./stim/wavs/puertorican_match_interrogative-total-yn_Daniel-iba-a-Bolivia.wav,,,,,,,,,,,,,,,,,,,,,,607.8605,611.0111,0,0,2.6167,,0,83,83,19,1,1,puertorican,,,,,,,,,,,,,,,,,,,,,,,,,,,,,,,,,,,,,,,,,,,,,,,,,,,,,,,,
,,,,,,,,,6163fbf78813617495ee7a9b,Spanish/ Caribbean,13 or older,"no, only English or Spanish",yes,2025-07-23_09h13.20.127,empathy_intonation_perc,2024.2.4,MacIntel,57.80346821,6163fbf78813617495ee7a9b,687ed1b7e638a4cbf2f02089,6880d91486d276e58b1b9d0c,,,,,,,,,,,,,66,0,,./stim/wavs/puertorican_match_declarative-broad-focus_Emilio-ama-la-marcha.wav,,,,,,,,,,,,,,,,,,,,,,611.0116,614.0598,0,1,2.5165,,0,84,84,65,1,0,puertorican,,,,,,,,,,,,,,,,,,,,,,,,,,,,,,,,,,,,,,,,,,,,,,,,,,,,,,,,
,,,,,,,,,6163fbf78813617495ee7a9b,Spanish/ Caribbean,13 or older,"no, only English or Spanish",yes,2025-07-23_09h13.20.127,empathy_intonation_perc,2024.2.4,MacIntel,57.80346821,6163fbf78813617495ee7a9b,687ed1b7e638a4cbf2f02089,6880d91486d276e58b1b9d0c,,,,,,,,,,,,,71,0,,./stim/wavs/castilian_mismatch_declarative-broad-focus_La-nina-lava-el-plato.wav,,,,,,,,,,,,,,,,,,,,,,614.0602,616.4444,0,1,1.8678,,0,85,85,70,1,0,castilian,,,,,,,,,,,,,,,,,,,,,,,,,,,,,,,,,,,,,,,,,,,,,,,,,,,,,,,,
,,,,,,,,,6163fbf78813617495ee7a9b,Spanish/ Caribbean,13 or older,"no, only English or Spanish",yes,2025-07-23_09h13.20.127,empathy_intonation_perc,2024.2.4,MacIntel,57.80346821,6163fbf78813617495ee7a9b,687ed1b7e638a4cbf2f02089,6880d91486d276e58b1b9d0c,,,,,,,,,,,,,46,0,,./stim/wavs/castilian_match_declarative-broad-focus_Emilio-ama-la-marcha.wav,,,,,,,,,,,,,,,,,,,,,,616.445,618.8265,0,1,1.8491,,0,86,86,45,1,0,castilian,,,,,,,,,,,,,,,,,,,,,,,,,,,,,,,,,,,,,,,,,,,,,,,,,,,,,,,,
,,,,,,,,,6163fbf78813617495ee7a9b,Spanish/ Caribbean,13 or older,"no, only English or Spanish",yes,2025-07-23_09h13.20.127,empathy_intonation_perc,2024.2.4,MacIntel,57.80346821,6163fbf78813617495ee7a9b,687ed1b7e638a4cbf2f02089,6880d91486d276e58b1b9d0c,,,,,,,,,,,,,57,0,,./stim/wavs/mexican_match_declarative-broad-focus_Ana-lleva-el-abrigo.wav,,,,,,,,,,,,,,,,,,,,,,618.8269,620.9104,0,1,1.5675,,0,87,87,56,1,0,mexican,,,,,,,,,,,,,,,,,,,,,,,,,,,,,,,,,,,,,,,,,,,,,,,,,,,,,,,,
,,,,,,,"Great! Now we will move on. The next task consists of about 60 trials, in each of which you will see a string of letters. 
  
  Your task is to decide whether this is a real Spanish word or not.", (press the spacebar to continue),6163fbf78813617495ee7a9b,Spanish/ Caribbean,13 or older,"no, only English or Spanish",yes,2025-07-23_09h13.20.127,empathy_intonation_perc,2024.2.4,MacIntel,57.80346821,6163fbf78813617495ee7a9b,687ed1b7e638a4cbf2f02089,6880d91486d276e58b1b9d0c,,,,,,,,,,,,,,,,,,,,,,,,,,,,,,,,,,,,,,,,,,,,,,,,,,,620.9171,648.3599,0,0,0,0,1,,,,,,,,,,,,,,,,,,,,,,,,,,,,,,,,,,,,,,,,,,,,,,,,,
,,,,,,,"If you think it is an existing Spanish word, you type '1' (for 'REAL'), and if you think it is not an existing Spanish word, you type '0' (for 'FAKE').", (press the spacebar to continue),6163fbf78813617495ee7a9b,Spanish/ Caribbean,13 or older,"no, only English or Spanish",yes,2025-07-23_09h13.20.127,empathy_intonation_perc,2024.2.4,MacIntel,57.80346821,6163fbf78813617495ee7a9b,687ed1b7e638a4cbf2f02089,6880d91486d276e58b1b9d0c,,,,,,,,,,,,,,,,,,,,,,,,,,,,,,,,,,,,,,,,,,,,,,,,,,,648.3609,652.1102,0,1,1,1,1,,,,,,,,,,,,,,,,,,,,,,,,,,,,,,,,,,,,,,,,,,,,,,,,,
,,,,,,,"If you are sure that the word exists, even though you don’t know its exact meaning, you may still respond '1' (REAL). 
  
  But if you are not sure if it is an existing word, you should respond '0' (FAKE).
  
  Let's do a practice round...", (press the spacebar to continue),6163fbf78813617495ee7a9b,Spanish/ Caribbean,13 or older,"no, only English or Spanish",yes,2025-07-23_09h13.20.127,empathy_intonation_perc,2024.2.4,MacIntel,57.80346821,6163fbf78813617495ee7a9b,687ed1b7e638a4cbf2f02089,6880d91486d276e58b1b9d0c,,,,,,,,,,,,,,,,,,,,,,,,,,,,,,,,,,,,,,,,,,,,,,,,,,,652.112,658.7938,0,2,2,2,1,,,,,,,,,,,,,,,,,,,,,,,,,,,,,,,,,,,,,,,,,,,,,,,,,
,,,,,,,,,6163fbf78813617495ee7a9b,Spanish/ Caribbean,13 or older,"no, only English or Spanish",yes,2025-07-23_09h13.20.127,empathy_intonation_perc,2024.2.4,MacIntel,57.80346821,6163fbf78813617495ee7a9b,687ed1b7e638a4cbf2f02089,6880d91486d276e58b1b9d0c,,,,,,,,,,,,,,0,,,,,,,,,,,,,,,,,,,,,,,,,,,,,,,,,,,,,,,,,,,,658.8008,665.077,0,1,5.7443,,665.0775,666.0773,0,0,0,0,1,0,depiste,REAL,FAKE,,,,,,,,,,,,,,,,,,,,,,,,,,,,,,,,
,,,,,,,,,6163fbf78813617495ee7a9b,Spanish/ Caribbean,13 or older,"no, only English or Spanish",yes,2025-07-23_09h13.20.127,empathy_intonation_perc,2024.2.4,MacIntel,57.80346821,6163fbf78813617495ee7a9b,687ed1b7e638a4cbf2f02089,6880d91486d276e58b1b9d0c,,,,,,,,,,,,,,1,,,,,,,,,,,,,,,,,,,,,,,,,,,,,,,,,,,,,,,,,,,,666.0788,667.7097,1,1,1.0952,,667.7098,668.7104,0,1,1,1,1,0,sí,REAL,FAKE,,,,,,,,,,,,,,,,,,,,,,,,,,,,,,,,
,,,,,,,,,6163fbf78813617495ee7a9b,Spanish/ Caribbean,13 or older,"no, only English or Spanish",yes,2025-07-23_09h13.20.127,empathy_intonation_perc,2024.2.4,MacIntel,57.80346821,6163fbf78813617495ee7a9b,687ed1b7e638a4cbf2f02089,6880d91486d276e58b1b9d0c,,,,,,,,,,,,,,0,,,,,,,,,,,,,,,,,,,,,,,,,,,,,,,,,,,,,,,,,,,,668.7117,671.5933,0,1,2.3445,,671.5934,672.5934,0,2,2,2,1,0,coné,REAL,FAKE,,,,,,,,,,,,,,,,,,,,,,,,,,,,,,,,
,,,,,,,,,6163fbf78813617495ee7a9b,Spanish/ Caribbean,13 or older,"no, only English or Spanish",yes,2025-07-23_09h13.20.127,empathy_intonation_perc,2024.2.4,MacIntel,57.80346821,6163fbf78813617495ee7a9b,687ed1b7e638a4cbf2f02089,6880d91486d276e58b1b9d0c,,,,,,,,,,,,,,0,,,,,,,,,,,,,,,,,,,,,,,,,,,,,,,,,,,,,,,,,,,,672.5945,675.0437,0,1,1.9123,,675.0437,676.0427,0,3,3,3,1,0,calpar,REAL,FAKE,,,,,,,,,,,,,,,,,,,,,,,,,,,,,,,,
,,,,,,,,,6163fbf78813617495ee7a9b,Spanish/ Caribbean,13 or older,"no, only English or Spanish",yes,2025-07-23_09h13.20.127,empathy_intonation_perc,2024.2.4,MacIntel,57.80346821,6163fbf78813617495ee7a9b,687ed1b7e638a4cbf2f02089,6880d91486d276e58b1b9d0c,,,,,,,,,,,,,,0,,,,,,,,,,,,,,,,,,,,,,,,,,,,,,,,,,,,,,,,,,,,676.0441,680.6932,0,1,4.1133,,680.6933,681.6926,0,4,4,4,1,0,joten,REAL,FAKE,,,,,,,,,,,,,,,,,,,,,,,,,,,,,,,,
,,,,,,,,,6163fbf78813617495ee7a9b,Spanish/ Caribbean,13 or older,"no, only English or Spanish",yes,2025-07-23_09h13.20.127,empathy_intonation_perc,2024.2.4,MacIntel,57.80346821,6163fbf78813617495ee7a9b,687ed1b7e638a4cbf2f02089,6880d91486d276e58b1b9d0c,,,,,,,,,,,,,,1,,,,,,,,,,,,,,,,,,,,,,,,,,,,,,,,,,,,,,,,,,,,681.6937,685.0424,0,0,2.8137,,685.0433,686.0424,0,5,5,5,1,0,sacapuntas,REAL,FAKE,,,,,,,,,,,,,,,,,,,,,,,,,,,,,,,,
,,,,,,,,,6163fbf78813617495ee7a9b,Spanish/ Caribbean,13 or older,"no, only English or Spanish",yes,2025-07-23_09h13.20.127,empathy_intonation_perc,2024.2.4,MacIntel,57.80346821,6163fbf78813617495ee7a9b,687ed1b7e638a4cbf2f02089,6880d91486d276e58b1b9d0c,,,,,,,,,,,,,,0,,,,,,,,,,,,,,,,,,,,,,,,,,,,,,,,,,,,,,,,,,,,686.0437,688.2427,0,1,1.6774,,688.2433,689.2426,0,6,6,6,1,0,priba,REAL,FAKE,,,,,,,,,,,,,,,,,,,,,,,,,,,,,,,,
,,,,,,,,,6163fbf78813617495ee7a9b,Spanish/ Caribbean,13 or older,"no, only English or Spanish",yes,2025-07-23_09h13.20.127,empathy_intonation_perc,2024.2.4,MacIntel,57.80346821,6163fbf78813617495ee7a9b,687ed1b7e638a4cbf2f02089,6880d91486d276e58b1b9d0c,,,,,,,,,,,,,,0,,,,,,,,,,,,,,,,,,,,,,,,,,,,,,,,,,,,,,,,,,,,689.2437,691.4258,1,0,1.6465,,691.4264,692.4268,0,7,7,7,1,0,pelasula,REAL,FAKE,,,,,,,,,,,,,,,,,,,,,,,,,,,,,,,,
,,,,,,,,,6163fbf78813617495ee7a9b,Spanish/ Caribbean,13 or older,"no, only English or Spanish",yes,2025-07-23_09h13.20.127,empathy_intonation_perc,2024.2.4,MacIntel,57.80346821,6163fbf78813617495ee7a9b,687ed1b7e638a4cbf2f02089,6880d91486d276e58b1b9d0c,,,,,,,,,,,,,,1,,,,,,,,,,,,,,,,,,,,,,,,,,,,,,,,,,,,,,,,,,,,692.428,693.7921,1,1,0.8286,,693.7925,694.7934,0,8,8,8,1,0,bien,REAL,FAKE,,,,,,,,,,,,,,,,,,,,,,,,,,,,,,,,
,,,,,,,,,6163fbf78813617495ee7a9b,Spanish/ Caribbean,13 or older,"no, only English or Spanish",yes,2025-07-23_09h13.20.127,empathy_intonation_perc,2024.2.4,MacIntel,57.80346821,6163fbf78813617495ee7a9b,687ed1b7e638a4cbf2f02089,6880d91486d276e58b1b9d0c,,,,,,,,,,,,,,1,,,,,,,,,,,,,,,,,,,,,,,,,,,,,,,,,,,,,,,,,,,,694.7946,695.992,1,1,0.6629,,695.9921,696.9929,0,9,9,9,1,0,casa,REAL,FAKE,,,,,,,,,,,,,,,,,,,,,,,,,,,,,,,,
,,,,,,,,,6163fbf78813617495ee7a9b,Spanish/ Caribbean,13 or older,"no, only English or Spanish",yes,2025-07-23_09h13.20.127,empathy_intonation_perc,2024.2.4,MacIntel,57.80346821,6163fbf78813617495ee7a9b,687ed1b7e638a4cbf2f02089,6880d91486d276e58b1b9d0c,,,,,,,,,,,,,,0,,,,,,,,,,,,,,,,,,,,,,,,,,,,,,,,,,,,,,,,,,,,696.9938,698.4927,0,1,0.9619,,698.4927,699.4922,0,10,10,10,1,0,lejo,REAL,FAKE,,,,,,,,,,,,,,,,,,,,,,,,,,,,,,,,
,,,,,,,,,6163fbf78813617495ee7a9b,Spanish/ Caribbean,13 or older,"no, only English or Spanish",yes,2025-07-23_09h13.20.127,empathy_intonation_perc,2024.2.4,MacIntel,57.80346821,6163fbf78813617495ee7a9b,687ed1b7e638a4cbf2f02089,6880d91486d276e58b1b9d0c,,,,,,,,,,,,,,0,,,,,,,,,,,,,,,,,,,,,,,,,,,,,,,,,,,,,,,,,,,,699.4934,701.5429,0,1,1.5132,,701.5429,702.5427,0,11,11,11,1,0,pretantas,REAL,FAKE,,,,,,,,,,,,,,,,,,,,,,,,,,,,,,,,
,,,,,,,,,6163fbf78813617495ee7a9b,Spanish/ Caribbean,13 or older,"no, only English or Spanish",yes,2025-07-23_09h13.20.127,empathy_intonation_perc,2024.2.4,MacIntel,57.80346821,6163fbf78813617495ee7a9b,687ed1b7e638a4cbf2f02089,6880d91486d276e58b1b9d0c,,,,,,,,,,,,,,,,,,,,,,,,,,,,,,,,,,,,,,,,,,,,,,,,,,,,,,,,,,,,,,,,,,,,,,,,,,,702.5429,704.5089,,,,,,,,,,,,,,,,,,,,,,,,,,,,,,
,,,,,,,,,6163fbf78813617495ee7a9b,Spanish/ Caribbean,13 or older,"no, only English or Spanish",yes,2025-07-23_09h13.20.127,empathy_intonation_perc,2024.2.4,MacIntel,57.80346821,6163fbf78813617495ee7a9b,687ed1b7e638a4cbf2f02089,6880d91486d276e58b1b9d0c,,,,,,,,,,,,,,0,,,,,,,,,,,,,,,,,,,,,,,,,,,,,,,,,,,,,,,,,,,,,,,,,,,,,,,,,47,cartinar,,,,,704.5172,707.959,0,1,2.9126,,0,0,0,46,1,REAL,FAKE,,,,,,,,,,,,,,,,,
,,,,,,,,,6163fbf78813617495ee7a9b,Spanish/ Caribbean,13 or older,"no, only English or Spanish",yes,2025-07-23_09h13.20.127,empathy_intonation_perc,2024.2.4,MacIntel,57.80346821,6163fbf78813617495ee7a9b,687ed1b7e638a4cbf2f02089,6880d91486d276e58b1b9d0c,,,,,,,,,,,,,,1,,,,,,,,,,,,,,,,,,,,,,,,,,,,,,,,,,,,,,,,,,,,,,,,,,,,,,,,,37,granuja,,,,,707.9601,714.1751,0,0,5.6784,,0,1,1,36,1,REAL,FAKE,,,,,,,,,,,,,,,,,
,,,,,,,,,6163fbf78813617495ee7a9b,Spanish/ Caribbean,13 or older,"no, only English or Spanish",yes,2025-07-23_09h13.20.127,empathy_intonation_perc,2024.2.4,MacIntel,57.80346821,6163fbf78813617495ee7a9b,687ed1b7e638a4cbf2f02089,6880d91486d276e58b1b9d0c,,,,,,,,,,,,,,1,,,,,,,,,,,,,,,,,,,,,,,,,,,,,,,,,,,,,,,,,,,,,,,,,,,,,,,,,45,jilguero,,,,,714.1759,715.7254,0,0,1.0286,,0,2,2,44,1,REAL,FAKE,,,,,,,,,,,,,,,,,
,,,,,,,,,6163fbf78813617495ee7a9b,Spanish/ Caribbean,13 or older,"no, only English or Spanish",yes,2025-07-23_09h13.20.127,empathy_intonation_perc,2024.2.4,MacIntel,57.80346821,6163fbf78813617495ee7a9b,687ed1b7e638a4cbf2f02089,6880d91486d276e58b1b9d0c,,,,,,,,,,,,,,0,,,,,,,,,,,,,,,,,,,,,,,,,,,,,,,,,,,,,,,,,,,,,,,,,,,,,,,,,4,batillón,,,,,715.7264,718.4597,0,1,2.2116,,0,3,3,3,1,REAL,FAKE,,,,,,,,,,,,,,,,,
,,,,,,,,,6163fbf78813617495ee7a9b,Spanish/ Caribbean,13 or older,"no, only English or Spanish",yes,2025-07-23_09h13.20.127,empathy_intonation_perc,2024.2.4,MacIntel,57.80346821,6163fbf78813617495ee7a9b,687ed1b7e638a4cbf2f02089,6880d91486d276e58b1b9d0c,,,,,,,,,,,,,,1,,,,,,,,,,,,,,,,,,,,,,,,,,,,,,,,,,,,,,,,,,,,,,,,,,,,,,,,,60,matar,,,,,718.4608,719.8927,0,0,0.8947,,0,4,4,59,1,REAL,FAKE,,,,,,,,,,,,,,,,,
,,,,,,,,,6163fbf78813617495ee7a9b,Spanish/ Caribbean,13 or older,"no, only English or Spanish",yes,2025-07-23_09h13.20.127,empathy_intonation_perc,2024.2.4,MacIntel,57.80346821,6163fbf78813617495ee7a9b,687ed1b7e638a4cbf2f02089,6880d91486d276e58b1b9d0c,,,,,,,,,,,,,,1,,,,,,,,,,,,,,,,,,,,,,,,,,,,,,,,,,,,,,,,,,,,,,,,,,,,,,,,,20,ávido,,,,,719.8939,721.1583,0,0,0.7295,,0,5,5,19,1,REAL,FAKE,,,,,,,,,,,,,,,,,
,,,,,,,,,6163fbf78813617495ee7a9b,Spanish/ Caribbean,13 or older,"no, only English or Spanish",yes,2025-07-23_09h13.20.127,empathy_intonation_perc,2024.2.4,MacIntel,57.80346821,6163fbf78813617495ee7a9b,687ed1b7e638a4cbf2f02089,6880d91486d276e58b1b9d0c,,,,,,,,,,,,,,0,,,,,,,,,,,,,,,,,,,,,,,,,,,,,,,,,,,,,,,,,,,,,,,,,,,,,,,,,87,grodo,,,,,721.159,722.6758,0,1,0.9967,,0,6,6,86,1,REAL,FAKE,,,,,,,,,,,,,,,,,
,,,,,,,,,6163fbf78813617495ee7a9b,Spanish/ Caribbean,13 or older,"no, only English or Spanish",yes,2025-07-23_09h13.20.127,empathy_intonation_perc,2024.2.4,MacIntel,57.80346821,6163fbf78813617495ee7a9b,687ed1b7e638a4cbf2f02089,6880d91486d276e58b1b9d0c,,,,,,,,,,,,,,1,,,,,,,,,,,,,,,,,,,,,,,,,,,,,,,,,,,,,,,,,,,,,,,,,,,,,,,,,7,pésimo,,,,,722.6767,724.8918,1,1,1.6802,,0,7,7,6,1,REAL,FAKE,,,,,,,,,,,,,,,,,
,,,,,,,,,6163fbf78813617495ee7a9b,Spanish/ Caribbean,13 or older,"no, only English or Spanish",yes,2025-07-23_09h13.20.127,empathy_intonation_perc,2024.2.4,MacIntel,57.80346821,6163fbf78813617495ee7a9b,687ed1b7e638a4cbf2f02089,6880d91486d276e58b1b9d0c,,,,,,,,,,,,,,0,,,,,,,,,,,,,,,,,,,,,,,,,,,,,,,,,,,,,,,,,,,,,,,,,,,,,,,,,74,cintro,,,,,724.8925,726.1918,0,1,0.7793,,0,8,8,73,1,REAL,FAKE,,,,,,,,,,,,,,,,,
,,,,,,,,,6163fbf78813617495ee7a9b,Spanish/ Caribbean,13 or older,"no, only English or Spanish",yes,2025-07-23_09h13.20.127,empathy_intonation_perc,2024.2.4,MacIntel,57.80346821,6163fbf78813617495ee7a9b,687ed1b7e638a4cbf2f02089,6880d91486d276e58b1b9d0c,,,,,,,,,,,,,,0,,,,,,,,,,,,,,,,,,,,,,,,,,,,,,,,,,,,,,,,,,,,,,,,,,,,,,,,,58,plaudir,,,,,726.1925,727.5762,0,1,0.845,,0,9,9,57,1,REAL,FAKE,,,,,,,,,,,,,,,,,
,,,,,,,,,6163fbf78813617495ee7a9b,Spanish/ Caribbean,13 or older,"no, only English or Spanish",yes,2025-07-23_09h13.20.127,empathy_intonation_perc,2024.2.4,MacIntel,57.80346821,6163fbf78813617495ee7a9b,687ed1b7e638a4cbf2f02089,6880d91486d276e58b1b9d0c,,,,,,,,,,,,,,0,,,,,,,,,,,,,,,,,,,,,,,,,,,,,,,,,,,,,,,,,,,,,,,,,,,,,,,,,50,flamida,,,,,727.5773,728.9093,0,1,0.7942,,0,10,10,49,1,REAL,FAKE,,,,,,,,,,,,,,,,,
,,,,,,,,,6163fbf78813617495ee7a9b,Spanish/ Caribbean,13 or older,"no, only English or Spanish",yes,2025-07-23_09h13.20.127,empathy_intonation_perc,2024.2.4,MacIntel,57.80346821,6163fbf78813617495ee7a9b,687ed1b7e638a4cbf2f02089,6880d91486d276e58b1b9d0c,,,,,,,,,,,,,,0,,,,,,,,,,,,,,,,,,,,,,,,,,,,,,,,,,,,,,,,,,,,,,,,,,,,,,,,,32,fatacidad,,,,,728.9104,730.325,0,1,0.8804,,0,11,11,31,1,REAL,FAKE,,,,,,,,,,,,,,,,,
,,,,,,,,,6163fbf78813617495ee7a9b,Spanish/ Caribbean,13 or older,"no, only English or Spanish",yes,2025-07-23_09h13.20.127,empathy_intonation_perc,2024.2.4,MacIntel,57.80346821,6163fbf78813617495ee7a9b,687ed1b7e638a4cbf2f02089,6880d91486d276e58b1b9d0c,,,,,,,,,,,,,,0,,,,,,,,,,,,,,,,,,,,,,,,,,,,,,,,,,,,,,,,,,,,,,,,,,,,,,,,,17,floroso,,,,,730.3257,732.4586,0,1,1.5952,,0,12,12,16,1,REAL,FAKE,,,,,,,,,,,,,,,,,
,,,,,,,,,6163fbf78813617495ee7a9b,Spanish/ Caribbean,13 or older,"no, only English or Spanish",yes,2025-07-23_09h13.20.127,empathy_intonation_perc,2024.2.4,MacIntel,57.80346821,6163fbf78813617495ee7a9b,687ed1b7e638a4cbf2f02089,6880d91486d276e58b1b9d0c,,,,,,,,,,,,,,1,,,,,,,,,,,,,,,,,,,,,,,,,,,,,,,,,,,,,,,,,,,,,,,,,,,,,,,,,26,secuestro,,,,,732.4593,735.0587,1,1,2.0618,,0,13,13,25,1,REAL,FAKE,,,,,,,,,,,,,,,,,
,,,,,,,,,6163fbf78813617495ee7a9b,Spanish/ Caribbean,13 or older,"no, only English or Spanish",yes,2025-07-23_09h13.20.127,empathy_intonation_perc,2024.2.4,MacIntel,57.80346821,6163fbf78813617495ee7a9b,687ed1b7e638a4cbf2f02089,6880d91486d276e58b1b9d0c,,,,,,,,,,,,,,0,,,,,,,,,,,,,,,,,,,,,,,,,,,,,,,,,,,,,,,,,,,,,,,,,,,,,,,,,23,lampera,,,,,735.0595,740.4086,0,1,4.8291,,0,14,14,22,1,REAL,FAKE,,,,,,,,,,,,,,,,,
,,,,,,,,,6163fbf78813617495ee7a9b,Spanish/ Caribbean,13 or older,"no, only English or Spanish",yes,2025-07-23_09h13.20.127,empathy_intonation_perc,2024.2.4,MacIntel,57.80346821,6163fbf78813617495ee7a9b,687ed1b7e638a4cbf2f02089,6880d91486d276e58b1b9d0c,,,,,,,,,,,,,,1,,,,,,,,,,,,,,,,,,,,,,,,,,,,,,,,,,,,,,,,,,,,,,,,,,,,,,,,,5,zapato,,,,,740.4095,741.9084,1,1,0.963,,0,15,15,4,1,REAL,FAKE,,,,,,,,,,,,,,,,,
,,,,,,,,,6163fbf78813617495ee7a9b,Spanish/ Caribbean,13 or older,"no, only English or Spanish",yes,2025-07-23_09h13.20.127,empathy_intonation_perc,2024.2.4,MacIntel,57.80346821,6163fbf78813617495ee7a9b,687ed1b7e638a4cbf2f02089,6880d91486d276e58b1b9d0c,,,,,,,,,,,,,,0,,,,,,,,,,,,,,,,,,,,,,,,,,,,,,,,,,,,,,,,,,,,,,,,,,,,,,,,,27,acutación,,,,,741.909,747.3925,1,0,4.9452,,0,16,16,26,1,REAL,FAKE,,,,,,,,,,,,,,,,,
,,,,,,,,,6163fbf78813617495ee7a9b,Spanish/ Caribbean,13 or older,"no, only English or Spanish",yes,2025-07-23_09h13.20.127,empathy_intonation_perc,2024.2.4,MacIntel,57.80346821,6163fbf78813617495ee7a9b,687ed1b7e638a4cbf2f02089,6880d91486d276e58b1b9d0c,,,,,,,,,,,,,,0,,,,,,,,,,,,,,,,,,,,,,,,,,,,,,,,,,,,,,,,,,,,,,,,,,,,,,,,,16,abracer,,,,,747.3937,749.2581,0,1,1.3288,,0,17,17,15,1,REAL,FAKE,,,,,,,,,,,,,,,,,
,,,,,,,,,6163fbf78813617495ee7a9b,Spanish/ Caribbean,13 or older,"no, only English or Spanish",yes,2025-07-23_09h13.20.127,empathy_intonation_perc,2024.2.4,MacIntel,57.80346821,6163fbf78813617495ee7a9b,687ed1b7e638a4cbf2f02089,6880d91486d276e58b1b9d0c,,,,,,,,,,,,,,1,,,,,,,,,,,,,,,,,,,,,,,,,,,,,,,,,,,,,,,,,,,,,,,,,,,,,,,,,3,pulmones,,,,,749.2588,750.5757,0,0,0.7953,,0,18,18,2,1,REAL,FAKE,,,,,,,,,,,,,,,,,
,,,,,,,,,6163fbf78813617495ee7a9b,Spanish/ Caribbean,13 or older,"no, only English or Spanish",yes,2025-07-23_09h13.20.127,empathy_intonation_perc,2024.2.4,MacIntel,57.80346821,6163fbf78813617495ee7a9b,687ed1b7e638a4cbf2f02089,6880d91486d276e58b1b9d0c,,,,,,,,,,,,,,1,,,,,,,,,,,,,,,,,,,,,,,,,,,,,,,,,,,,,,,,,,,,,,,,,,,,,,,,,28,merodear,,,,,750.5765,751.8426,0,0,0.7289,,0,19,19,27,1,REAL,FAKE,,,,,,,,,,,,,,,,,
,,,,,,,,,6163fbf78813617495ee7a9b,Spanish/ Caribbean,13 or older,"no, only English or Spanish",yes,2025-07-23_09h13.20.127,empathy_intonation_perc,2024.2.4,MacIntel,57.80346821,6163fbf78813617495ee7a9b,687ed1b7e638a4cbf2f02089,6880d91486d276e58b1b9d0c,,,,,,,,,,,,,,1,,,,,,,,,,,,,,,,,,,,,,,,,,,,,,,,,,,,,,,,,,,,,,,,,,,,,,,,,91,click the 1 key.,,,,,751.8439,753.5749,1,1,1.1953,,0,20,20,90,1,REAL,FAKE,,,,,,,,,,,,,,,,,
,,,,,,,,,6163fbf78813617495ee7a9b,Spanish/ Caribbean,13 or older,"no, only English or Spanish",yes,2025-07-23_09h13.20.127,empathy_intonation_perc,2024.2.4,MacIntel,57.80346821,6163fbf78813617495ee7a9b,687ed1b7e638a4cbf2f02089,6880d91486d276e58b1b9d0c,,,,,,,,,,,,,,1,,,,,,,,,,,,,,,,,,,,,,,,,,,,,,,,,,,,,,,,,,,,,,,,,,,,,,,,,40,alfombra,,,,,753.5757,756.0913,0,0,1.9792,,0,21,21,39,1,REAL,FAKE,,,,,,,,,,,,,,,,,
,,,,,,,,,6163fbf78813617495ee7a9b,Spanish/ Caribbean,13 or older,"no, only English or Spanish",yes,2025-07-23_09h13.20.127,empathy_intonation_perc,2024.2.4,MacIntel,57.80346821,6163fbf78813617495ee7a9b,687ed1b7e638a4cbf2f02089,6880d91486d276e58b1b9d0c,,,,,,,,,,,,,,1,,,,,,,,,,,,,,,,,,,,,,,,,,,,,,,,,,,,,,,,,,,,,,,,,,,,,,,,,73,hervidor,,,,,756.092,757.3918,0,0,0.7782,,0,22,22,72,1,REAL,FAKE,,,,,,,,,,,,,,,,,
,,,,,,,,,6163fbf78813617495ee7a9b,Spanish/ Caribbean,13 or older,"no, only English or Spanish",yes,2025-07-23_09h13.20.127,empathy_intonation_perc,2024.2.4,MacIntel,57.80346821,6163fbf78813617495ee7a9b,687ed1b7e638a4cbf2f02089,6880d91486d276e58b1b9d0c,,,,,,,,,,,,,,1,,,,,,,,,,,,,,,,,,,,,,,,,,,,,,,,,,,,,,,,,,,,,,,,,,,,,,,,,52,camisa,,,,,757.3927,758.8247,1,1,0.9127,,0,23,23,51,1,REAL,FAKE,,,,,,,,,,,,,,,,,
,,,,,,,,,6163fbf78813617495ee7a9b,Spanish/ Caribbean,13 or older,"no, only English or Spanish",yes,2025-07-23_09h13.20.127,empathy_intonation_perc,2024.2.4,MacIntel,57.80346821,6163fbf78813617495ee7a9b,687ed1b7e638a4cbf2f02089,6880d91486d276e58b1b9d0c,,,,,,,,,,,,,,0,,,,,,,,,,,,,,,,,,,,,,,,,,,,,,,,,,,,,,,,,,,,,,,,,,,,,,,,,21,capillo,,,,,758.8255,760.3088,0,1,0.9615,,0,24,24,20,1,REAL,FAKE,,,,,,,,,,,,,,,,,
,,,,,,,,,6163fbf78813617495ee7a9b,Spanish/ Caribbean,13 or older,"no, only English or Spanish",yes,2025-07-23_09h13.20.127,empathy_intonation_perc,2024.2.4,MacIntel,57.80346821,6163fbf78813617495ee7a9b,687ed1b7e638a4cbf2f02089,6880d91486d276e58b1b9d0c,,,,,,,,,,,,,,1,,,,,,,,,,,,,,,,,,,,,,,,,,,,,,,,,,,,,,,,,,,,,,,,,,,,,,,,,34,aviso,,,,,760.3098,762.5257,1,1,1.6779,,0,25,25,33,1,REAL,FAKE,,,,,,,,,,,,,,,,,
,,,,,,,,,6163fbf78813617495ee7a9b,Spanish/ Caribbean,13 or older,"no, only English or Spanish",yes,2025-07-23_09h13.20.127,empathy_intonation_perc,2024.2.4,MacIntel,57.80346821,6163fbf78813617495ee7a9b,687ed1b7e638a4cbf2f02089,6880d91486d276e58b1b9d0c,,,,,,,,,,,,,,0,,,,,,,,,,,,,,,,,,,,,,,,,,,,,,,,,,,,,,,,,,,,,,,,,,,,,,,,,33,pauca,,,,,762.5267,763.7079,0,1,0.6449,,0,26,26,32,1,REAL,FAKE,,,,,,,,,,,,,,,,,
,,,,,,,,,6163fbf78813617495ee7a9b,Spanish/ Caribbean,13 or older,"no, only English or Spanish",yes,2025-07-23_09h13.20.127,empathy_intonation_perc,2024.2.4,MacIntel,57.80346821,6163fbf78813617495ee7a9b,687ed1b7e638a4cbf2f02089,6880d91486d276e58b1b9d0c,,,,,,,,,,,,,,1,,,,,,,,,,,,,,,,,,,,,,,,,,,,,,,,,,,,,,,,,,,,,,,,,,,,,,,,,77,tiburón,,,,,763.7091,764.8579,0,0,0.6306,,0,27,27,76,1,REAL,FAKE,,,,,,,,,,,,,,,,,
,,,,,,,,,6163fbf78813617495ee7a9b,Spanish/ Caribbean,13 or older,"no, only English or Spanish",yes,2025-07-23_09h13.20.127,empathy_intonation_perc,2024.2.4,MacIntel,57.80346821,6163fbf78813617495ee7a9b,687ed1b7e638a4cbf2f02089,6880d91486d276e58b1b9d0c,,,,,,,,,,,,,,0,,,,,,,,,,,,,,,,,,,,,,,,,,,,,,,,,,,,,,,,,,,,,,,,,,,,,,,,,92,click the 0 key.,,,,,764.859,766.3923,0,1,1.0119,,0,28,28,91,1,REAL,FAKE,,,,,,,,,,,,,,,,,
,,,,,,,,,6163fbf78813617495ee7a9b,Spanish/ Caribbean,13 or older,"no, only English or Spanish",yes,2025-07-23_09h13.20.127,empathy_intonation_perc,2024.2.4,MacIntel,57.80346821,6163fbf78813617495ee7a9b,687ed1b7e638a4cbf2f02089,6880d91486d276e58b1b9d0c,,,,,,,,,,,,,,1,,,,,,,,,,,,,,,,,,,,,,,,,,,,,,,,,,,,,,,,,,,,,,,,,,,,,,,,,67,cabello,,,,,766.3935,769.0751,1,1,2.1455,,0,29,29,66,1,REAL,FAKE,,,,,,,,,,,,,,,,,
,,,,,,,,,6163fbf78813617495ee7a9b,Spanish/ Caribbean,13 or older,"no, only English or Spanish",yes,2025-07-23_09h13.20.127,empathy_intonation_perc,2024.2.4,MacIntel,57.80346821,6163fbf78813617495ee7a9b,687ed1b7e638a4cbf2f02089,6880d91486d276e58b1b9d0c,,,,,,,,,,,,,,0,,,,,,,,,,,,,,,,,,,,,,,,,,,,,,,,,,,,,,,,,,,,,,,,,,,,,,,,,1,terzo,,,,,769.0758,770.2924,0,1,0.6959,,0,30,30,0,1,REAL,FAKE,,,,,,,,,,,,,,,,,
,,,,,,,,,6163fbf78813617495ee7a9b,Spanish/ Caribbean,13 or older,"no, only English or Spanish",yes,2025-07-23_09h13.20.127,empathy_intonation_perc,2024.2.4,MacIntel,57.80346821,6163fbf78813617495ee7a9b,687ed1b7e638a4cbf2f02089,6880d91486d276e58b1b9d0c,,,,,,,,,,,,,,1,,,,,,,,,,,,,,,,,,,,,,,,,,,,,,,,,,,,,,,,,,,,,,,,,,,,,,,,,65,bizcocho,,,,,770.2936,772.1744,0,0,1.3458,,0,31,31,64,1,REAL,FAKE,,,,,,,,,,,,,,,,,
,,,,,,,,,6163fbf78813617495ee7a9b,Spanish/ Caribbean,13 or older,"no, only English or Spanish",yes,2025-07-23_09h13.20.127,empathy_intonation_perc,2024.2.4,MacIntel,57.80346821,6163fbf78813617495ee7a9b,687ed1b7e638a4cbf2f02089,6880d91486d276e58b1b9d0c,,,,,,,,,,,,,,1,,,,,,,,,,,,,,,,,,,,,,,,,,,,,,,,,,,,,,,,,,,,,,,,,,,,,,,,,36,loro,,,,,772.1753,773.4247,0,0,0.7285,,0,32,32,35,1,REAL,FAKE,,,,,,,,,,,,,,,,,
,,,,,,,,,6163fbf78813617495ee7a9b,Spanish/ Caribbean,13 or older,"no, only English or Spanish",yes,2025-07-23_09h13.20.127,empathy_intonation_perc,2024.2.4,MacIntel,57.80346821,6163fbf78813617495ee7a9b,687ed1b7e638a4cbf2f02089,6880d91486d276e58b1b9d0c,,,,,,,,,,,,,,1,,,,,,,,,,,,,,,,,,,,,,,,,,,,,,,,,,,,,,,,,,,,,,,,,,,,,,,,,14,yunque,,,,,773.4257,776.3917,1,1,2.4283,,0,33,33,13,1,REAL,FAKE,,,,,,,,,,,,,,,,,
,,,,,,,,,6163fbf78813617495ee7a9b,Spanish/ Caribbean,13 or older,"no, only English or Spanish",yes,2025-07-23_09h13.20.127,empathy_intonation_perc,2024.2.4,MacIntel,57.80346821,6163fbf78813617495ee7a9b,687ed1b7e638a4cbf2f02089,6880d91486d276e58b1b9d0c,,,,,,,,,,,,,,0,,,,,,,,,,,,,,,,,,,,,,,,,,,,,,,,,,,,,,,,,,,,,,,,,,,,,,,,,35,rompido,,,,,776.3928,778.0916,0,1,1.1639,,0,34,34,34,1,REAL,FAKE,,,,,,,,,,,,,,,,,
,,,,,,,,,6163fbf78813617495ee7a9b,Spanish/ Caribbean,13 or older,"no, only English or Spanish",yes,2025-07-23_09h13.20.127,empathy_intonation_perc,2024.2.4,MacIntel,57.80346821,6163fbf78813617495ee7a9b,687ed1b7e638a4cbf2f02089,6880d91486d276e58b1b9d0c,,,,,,,,,,,,,,0,,,,,,,,,,,,,,,,,,,,,,,,,,,,,,,,,,,,,,,,,,,,,,,,,,,,,,,,,72,pemición,,,,,778.0924,780.541,0,1,1.9127,,0,35,35,71,1,REAL,FAKE,,,,,,,,,,,,,,,,,
,,,,,,,,,6163fbf78813617495ee7a9b,Spanish/ Caribbean,13 or older,"no, only English or Spanish",yes,2025-07-23_09h13.20.127,empathy_intonation_perc,2024.2.4,MacIntel,57.80346821,6163fbf78813617495ee7a9b,687ed1b7e638a4cbf2f02089,6880d91486d276e58b1b9d0c,,,,,,,,,,,,,,1,,,,,,,,,,,,,,,,,,,,,,,,,,,,,,,,,,,,,,,,,,,,,,,,,,,,,,,,,64,orgulloso,,,,,780.5418,781.8583,0,0,0.7954,,0,36,36,63,1,REAL,FAKE,,,,,,,,,,,,,,,,,
,,,,,,,,,6163fbf78813617495ee7a9b,Spanish/ Caribbean,13 or older,"no, only English or Spanish",yes,2025-07-23_09h13.20.127,empathy_intonation_perc,2024.2.4,MacIntel,57.80346821,6163fbf78813617495ee7a9b,687ed1b7e638a4cbf2f02089,6880d91486d276e58b1b9d0c,,,,,,,,,,,,,,1,,,,,,,,,,,,,,,,,,,,,,,,,,,,,,,,,,,,,,,,,,,,,,,,,,,,,,,,,43,canela,,,,,781.859,783.2577,0,0,0.8618,,0,37,37,42,1,REAL,FAKE,,,,,,,,,,,,,,,,,
,,,,,,,,,6163fbf78813617495ee7a9b,Spanish/ Caribbean,13 or older,"no, only English or Spanish",yes,2025-07-23_09h13.20.127,empathy_intonation_perc,2024.2.4,MacIntel,57.80346821,6163fbf78813617495ee7a9b,687ed1b7e638a4cbf2f02089,6880d91486d276e58b1b9d0c,,,,,,,,,,,,,,1,,,,,,,,,,,,,,,,,,,,,,,,,,,,,,,,,,,,,,,,,,,,,,,,,,,,,,,,,11,cenefa,,,,,783.2585,784.441,0,0,0.6629,,0,38,38,10,1,REAL,FAKE,,,,,,,,,,,,,,,,,
,,,,,,,,,6163fbf78813617495ee7a9b,Spanish/ Caribbean,13 or older,"no, only English or Spanish",yes,2025-07-23_09h13.20.127,empathy_intonation_perc,2024.2.4,MacIntel,57.80346821,6163fbf78813617495ee7a9b,687ed1b7e638a4cbf2f02089,6880d91486d276e58b1b9d0c,,,,,,,,,,,,,,1,,,,,,,,,,,,,,,,,,,,,,,,,,,,,,,,,,,,,,,,,,,,,,,,,,,,,,,,,81,pozo,,,,,784.4422,785.9242,0,0,0.9618,,0,39,39,80,1,REAL,FAKE,,,,,,,,,,,,,,,,,
,,,,,,,,,6163fbf78813617495ee7a9b,Spanish/ Caribbean,13 or older,"no, only English or Spanish",yes,2025-07-23_09h13.20.127,empathy_intonation_perc,2024.2.4,MacIntel,57.80346821,6163fbf78813617495ee7a9b,687ed1b7e638a4cbf2f02089,6880d91486d276e58b1b9d0c,,,,,,,,,,,,,,0,,,,,,,,,,,,,,,,,,,,,,,,,,,,,,,,,,,,,,,,,,,,,,,,,,,,,,,,,53,vegada,,,,,785.925,787.3909,0,1,0.9289,,0,40,40,52,1,REAL,FAKE,,,,,,,,,,,,,,,,,
,,,,,,,,,6163fbf78813617495ee7a9b,Spanish/ Caribbean,13 or older,"no, only English or Spanish",yes,2025-07-23_09h13.20.127,empathy_intonation_perc,2024.2.4,MacIntel,57.80346821,6163fbf78813617495ee7a9b,687ed1b7e638a4cbf2f02089,6880d91486d276e58b1b9d0c,,,,,,,,,,,,,,1,,,,,,,,,,,,,,,,,,,,,,,,,,,,,,,,,,,,,,,,,,,,,,,,,,,,,,,,,85,laúd,,,,,787.3918,790.7909,0,0,2.8799,,0,41,41,84,1,REAL,FAKE,,,,,,,,,,,,,,,,,
,,,,,,,,,6163fbf78813617495ee7a9b,Spanish/ Caribbean,13 or older,"no, only English or Spanish",yes,2025-07-23_09h13.20.127,empathy_intonation_perc,2024.2.4,MacIntel,57.80346821,6163fbf78813617495ee7a9b,687ed1b7e638a4cbf2f02089,6880d91486d276e58b1b9d0c,,,,,,,,,,,,,,1,,,,,,,,,,,,,,,,,,,,,,,,,,,,,,,,,,,,,,,,,,,,,,,,,,,,,,,,,54,fomentar,,,,,790.7916,792.9083,0,0,1.5794,,0,42,42,53,1,REAL,FAKE,,,,,,,,,,,,,,,,,
,,,,,,,,,6163fbf78813617495ee7a9b,Spanish/ Caribbean,13 or older,"no, only English or Spanish",yes,2025-07-23_09h13.20.127,empathy_intonation_perc,2024.2.4,MacIntel,57.80346821,6163fbf78813617495ee7a9b,687ed1b7e638a4cbf2f02089,6880d91486d276e58b1b9d0c,,,,,,,,,,,,,,1,,,,,,,,,,,,,,,,,,,,,,,,,,,,,,,,,,,,,,,,,,,,,,,,,,,,,,,,,55,nevar,,,,,792.9091,794.4082,0,0,0.9624,,0,43,43,54,1,REAL,FAKE,,,,,,,,,,,,,,,,,
,,,,,,,,,6163fbf78813617495ee7a9b,Spanish/ Caribbean,13 or older,"no, only English or Spanish",yes,2025-07-23_09h13.20.127,empathy_intonation_perc,2024.2.4,MacIntel,57.80346821,6163fbf78813617495ee7a9b,687ed1b7e638a4cbf2f02089,6880d91486d276e58b1b9d0c,,,,,,,,,,,,,,1,,,,,,,,,,,,,,,,,,,,,,,,,,,,,,,,,,,,,,,,,,,,,,,,,,,,,,,,,76,atar,,,,,794.4088,795.9415,0,0,0.9946,,0,44,44,75,1,REAL,FAKE,,,,,,,,,,,,,,,,,
,,,,,,,,,6163fbf78813617495ee7a9b,Spanish/ Caribbean,13 or older,"no, only English or Spanish",yes,2025-07-23_09h13.20.127,empathy_intonation_perc,2024.2.4,MacIntel,57.80346821,6163fbf78813617495ee7a9b,687ed1b7e638a4cbf2f02089,6880d91486d276e58b1b9d0c,,,,,,,,,,,,,,1,,,,,,,,,,,,,,,,,,,,,,,,,,,,,,,,,,,,,,,,,,,,,,,,,,,,,,,,,83,guante,,,,,795.9425,797.7413,0,0,1.2617,,0,45,45,82,1,REAL,FAKE,,,,,,,,,,,,,,,,,
,,,,,,,,,6163fbf78813617495ee7a9b,Spanish/ Caribbean,13 or older,"no, only English or Spanish",yes,2025-07-23_09h13.20.127,empathy_intonation_perc,2024.2.4,MacIntel,57.80346821,6163fbf78813617495ee7a9b,687ed1b7e638a4cbf2f02089,6880d91486d276e58b1b9d0c,,,,,,,,,,,,,,1,,,,,,,,,,,,,,,,,,,,,,,,,,,,,,,,,,,,,,,,,,,,,,,,,,,,,,,,,2,pellizcar,,,,,797.7421,802.2409,0,0,3.9798,,0,46,46,1,1,REAL,FAKE,,,,,,,,,,,,,,,,,
,,,,,,,,,6163fbf78813617495ee7a9b,Spanish/ Caribbean,13 or older,"no, only English or Spanish",yes,2025-07-23_09h13.20.127,empathy_intonation_perc,2024.2.4,MacIntel,57.80346821,6163fbf78813617495ee7a9b,687ed1b7e638a4cbf2f02089,6880d91486d276e58b1b9d0c,,,,,,,,,,,,,,1,,,,,,,,,,,,,,,,,,,,,,,,,,,,,,,,,,,,,,,,,,,,,,,,,,,,,,,,,89,prisa,,,,,802.2418,808.0079,0,0,5.228,,0,47,47,88,1,REAL,FAKE,,,,,,,,,,,,,,,,,
,,,,,,,,,6163fbf78813617495ee7a9b,Spanish/ Caribbean,13 or older,"no, only English or Spanish",yes,2025-07-23_09h13.20.127,empathy_intonation_perc,2024.2.4,MacIntel,57.80346821,6163fbf78813617495ee7a9b,687ed1b7e638a4cbf2f02089,6880d91486d276e58b1b9d0c,,,,,,,,,,,,,,1,,,,,,,,,,,,,,,,,,,,,,,,,,,,,,,,,,,,,,,,,,,,,,,,,,,,,,,,,78,frondoso,,,,,808.0091,809.6079,0,0,1.0764,,0,48,48,77,1,REAL,FAKE,,,,,,,,,,,,,,,,,
,,,,,,,,,6163fbf78813617495ee7a9b,Spanish/ Caribbean,13 or older,"no, only English or Spanish",yes,2025-07-23_09h13.20.127,empathy_intonation_perc,2024.2.4,MacIntel,57.80346821,6163fbf78813617495ee7a9b,687ed1b7e638a4cbf2f02089,6880d91486d276e58b1b9d0c,,,,,,,,,,,,,,0,,,,,,,,,,,,,,,,,,,,,,,,,,,,,,,,,,,,,,,,,,,,,,,,,,,,,,,,,66,hacido,,,,,809.6085,810.8904,0,1,0.7351,,0,49,49,65,1,REAL,FAKE,,,,,,,,,,,,,,,,,
,,,,,,,,,6163fbf78813617495ee7a9b,Spanish/ Caribbean,13 or older,"no, only English or Spanish",yes,2025-07-23_09h13.20.127,empathy_intonation_perc,2024.2.4,MacIntel,57.80346821,6163fbf78813617495ee7a9b,687ed1b7e638a4cbf2f02089,6880d91486d276e58b1b9d0c,,,,,,,,,,,,,,1,,,,,,,,,,,,,,,,,,,,,,,,,,,,,,,,,,,,,,,,,,,,,,,,,,,,,,,,,13,helar,,,,,810.8911,812.1081,0,0,0.6901,,0,50,50,12,1,REAL,FAKE,,,,,,,,,,,,,,,,,
,,,,,,,,,6163fbf78813617495ee7a9b,Spanish/ Caribbean,13 or older,"no, only English or Spanish",yes,2025-07-23_09h13.20.127,empathy_intonation_perc,2024.2.4,MacIntel,57.80346821,6163fbf78813617495ee7a9b,687ed1b7e638a4cbf2f02089,6880d91486d276e58b1b9d0c,,,,,,,,,,,,,,0,,,,,,,,,,,,,,,,,,,,,,,,,,,,,,,,,,,,,,,,,,,,,,,,,,,,,,,,,82,empirador,,,,,812.1089,814.1916,0,1,1.5357,,0,51,51,81,1,REAL,FAKE,,,,,,,,,,,,,,,,,
,,,,,,,,,6163fbf78813617495ee7a9b,Spanish/ Caribbean,13 or older,"no, only English or Spanish",yes,2025-07-23_09h13.20.127,empathy_intonation_perc,2024.2.4,MacIntel,57.80346821,6163fbf78813617495ee7a9b,687ed1b7e638a4cbf2f02089,6880d91486d276e58b1b9d0c,,,,,,,,,,,,,,1,,,,,,,,,,,,,,,,,,,,,,,,,,,,,,,,,,,,,,,,,,,,,,,,,,,,,,,,,24,látigo,,,,,814.1927,815.5906,0,0,0.8622,,0,52,52,23,1,REAL,FAKE,,,,,,,,,,,,,,,,,
,,,,,,,,,6163fbf78813617495ee7a9b,Spanish/ Caribbean,13 or older,"no, only English or Spanish",yes,2025-07-23_09h13.20.127,empathy_intonation_perc,2024.2.4,MacIntel,57.80346821,6163fbf78813617495ee7a9b,687ed1b7e638a4cbf2f02089,6880d91486d276e58b1b9d0c,,,,,,,,,,,,,,1,,,,,,,,,,,,,,,,,,,,,,,,,,,,,,,,,,,,,,,,,,,,,,,,,,,,,,,,,25,bisagra,,,,,815.5914,816.8078,0,0,0.6788,,0,53,53,24,1,REAL,FAKE,,,,,,,,,,,,,,,,,
,,,,,,,,,6163fbf78813617495ee7a9b,Spanish/ Caribbean,13 or older,"no, only English or Spanish",yes,2025-07-23_09h13.20.127,empathy_intonation_perc,2024.2.4,MacIntel,57.80346821,6163fbf78813617495ee7a9b,687ed1b7e638a4cbf2f02089,6880d91486d276e58b1b9d0c,,,,,,,,,,,,,,1,,,,,,,,,,,,,,,,,,,,,,,,,,,,,,,,,,,,,,,,,,,,,,,,,,,,,,,,,46,martillo,,,,,816.8088,818.4407,0,0,1.0953,,0,54,54,45,1,REAL,FAKE,,,,,,,,,,,,,,,,,
,,,,,,,,,6163fbf78813617495ee7a9b,Spanish/ Caribbean,13 or older,"no, only English or Spanish",yes,2025-07-23_09h13.20.127,empathy_intonation_perc,2024.2.4,MacIntel,57.80346821,6163fbf78813617495ee7a9b,687ed1b7e638a4cbf2f02089,6880d91486d276e58b1b9d0c,,,,,,,,,,,,,,1,,,,,,,,,,,,,,,,,,,,,,,,,,,,,,,,,,,,,,,,,,,,,,,,,,,,,,,,,90,clavel,,,,,818.4418,823.2249,1,1,4.2618,,0,55,55,89,1,REAL,FAKE,,,,,,,,,,,,,,,,,
,,,,,,,,,6163fbf78813617495ee7a9b,Spanish/ Caribbean,13 or older,"no, only English or Spanish",yes,2025-07-23_09h13.20.127,empathy_intonation_perc,2024.2.4,MacIntel,57.80346821,6163fbf78813617495ee7a9b,687ed1b7e638a4cbf2f02089,6880d91486d276e58b1b9d0c,,,,,,,,,,,,,,0,,,,,,,,,,,,,,,,,,,,,,,,,,,,,,,,,,,,,,,,,,,,,,,,,,,,,,,,,8,cadeña,,,,,823.2261,824.841,0,1,1.0783,,0,56,56,7,1,REAL,FAKE,,,,,,,,,,,,,,,,,
,,,,,,,,,6163fbf78813617495ee7a9b,Spanish/ Caribbean,13 or older,"no, only English or Spanish",yes,2025-07-23_09h13.20.127,empathy_intonation_perc,2024.2.4,MacIntel,57.80346821,6163fbf78813617495ee7a9b,687ed1b7e638a4cbf2f02089,6880d91486d276e58b1b9d0c,,,,,,,,,,,,,,1,,,,,,,,,,,,,,,,,,,,,,,,,,,,,,,,,,,,,,,,,,,,,,,,,,,,,,,,,51,candado,,,,,824.8418,830.2738,0,0,4.8951,,0,57,57,50,1,REAL,FAKE,,,,,,,,,,,,,,,,,
,,,,,,,,,6163fbf78813617495ee7a9b,Spanish/ Caribbean,13 or older,"no, only English or Spanish",yes,2025-07-23_09h13.20.127,empathy_intonation_perc,2024.2.4,MacIntel,57.80346821,6163fbf78813617495ee7a9b,687ed1b7e638a4cbf2f02089,6880d91486d276e58b1b9d0c,,,,,,,,,,,,,,0,,,,,,,,,,,,,,,,,,,,,,,,,,,,,,,,,,,,,,,,,,,,,,,,,,,,,,,,,42,cadallo,,,,,830.275,831.5909,0,1,0.7791,,0,58,58,41,1,REAL,FAKE,,,,,,,,,,,,,,,,,
,,,,,,,,,6163fbf78813617495ee7a9b,Spanish/ Caribbean,13 or older,"no, only English or Spanish",yes,2025-07-23_09h13.20.127,empathy_intonation_perc,2024.2.4,MacIntel,57.80346821,6163fbf78813617495ee7a9b,687ed1b7e638a4cbf2f02089,6880d91486d276e58b1b9d0c,,,,,,,,,,,,,,1,,,,,,,,,,,,,,,,,,,,,,,,,,,,,,,,,,,,,,,,,,,,,,,,,,,,,,,,,49,ganar,,,,,831.5917,833.508,0,0,1.3789,,0,59,59,48,1,REAL,FAKE,,,,,,,,,,,,,,,,,
,,,,,,,,,6163fbf78813617495ee7a9b,Spanish/ Caribbean,13 or older,"no, only English or Spanish",yes,2025-07-23_09h13.20.127,empathy_intonation_perc,2024.2.4,MacIntel,57.80346821,6163fbf78813617495ee7a9b,687ed1b7e638a4cbf2f02089,6880d91486d276e58b1b9d0c,,,,,,,,,,,,,,1,,,,,,,,,,,,,,,,,,,,,,,,,,,,,,,,,,,,,,,,,,,,,,,,,,,,,,,,,44,cuchara,,,,,833.509,834.7735,0,0,0.7291,,0,60,60,43,1,REAL,FAKE,,,,,,,,,,,,,,,,,
,,,,,,,,,6163fbf78813617495ee7a9b,Spanish/ Caribbean,13 or older,"no, only English or Spanish",yes,2025-07-23_09h13.20.127,empathy_intonation_perc,2024.2.4,MacIntel,57.80346821,6163fbf78813617495ee7a9b,687ed1b7e638a4cbf2f02089,6880d91486d276e58b1b9d0c,,,,,,,,,,,,,,1,,,,,,,,,,,,,,,,,,,,,,,,,,,,,,,,,,,,,,,,,,,,,,,,,,,,,,,,,41,rebuscar,,,,,834.7743,836.1409,0,0,0.8467,,0,61,61,40,1,REAL,FAKE,,,,,,,,,,,,,,,,,
,,,,,,,,,6163fbf78813617495ee7a9b,Spanish/ Caribbean,13 or older,"no, only English or Spanish",yes,2025-07-23_09h13.20.127,empathy_intonation_perc,2024.2.4,MacIntel,57.80346821,6163fbf78813617495ee7a9b,687ed1b7e638a4cbf2f02089,6880d91486d276e58b1b9d0c,,,,,,,,,,,,,,0,,,,,,,,,,,,,,,,,,,,,,,,,,,,,,,,,,,,,,,,,,,,,,,,,,,,,,,,,63,esposante,,,,,836.1417,837.6902,0,1,1.0156,,0,62,62,62,1,REAL,FAKE,,,,,,,,,,,,,,,,,
,,,,,,,,,6163fbf78813617495ee7a9b,Spanish/ Caribbean,13 or older,"no, only English or Spanish",yes,2025-07-23_09h13.20.127,empathy_intonation_perc,2024.2.4,MacIntel,57.80346821,6163fbf78813617495ee7a9b,687ed1b7e638a4cbf2f02089,6880d91486d276e58b1b9d0c,,,,,,,,,,,,,,1,,,,,,,,,,,,,,,,,,,,,,,,,,,,,,,,,,,,,,,,,,,,,,,,,,,,,,,,,9,hacha,,,,,837.6908,842.49,1,1,4.2792,,0,63,63,8,1,REAL,FAKE,,,,,,,,,,,,,,,,,
,,,,,,,,,6163fbf78813617495ee7a9b,Spanish/ Caribbean,13 or older,"no, only English or Spanish",yes,2025-07-23_09h13.20.127,empathy_intonation_perc,2024.2.4,MacIntel,57.80346821,6163fbf78813617495ee7a9b,687ed1b7e638a4cbf2f02089,6880d91486d276e58b1b9d0c,,,,,,,,,,,,,,1,,,,,,,,,,,,,,,,,,,,,,,,,,,,,,,,,,,,,,,,,,,,,,,,,,,,,,,,,80,hormiga,,,,,842.4908,843.7576,0,0,0.7463,,0,64,64,79,1,REAL,FAKE,,,,,,,,,,,,,,,,,
,,,,,,,,,6163fbf78813617495ee7a9b,Spanish/ Caribbean,13 or older,"no, only English or Spanish",yes,2025-07-23_09h13.20.127,empathy_intonation_perc,2024.2.4,MacIntel,57.80346821,6163fbf78813617495ee7a9b,687ed1b7e638a4cbf2f02089,6880d91486d276e58b1b9d0c,,,,,,,,,,,,,,1,,,,,,,,,,,,,,,,,,,,,,,,,,,,,,,,,,,,,,,,,,,,,,,,,,,,,,,,,56,musgo,,,,,843.7584,845.2068,0,0,0.9112,,0,65,65,55,1,REAL,FAKE,,,,,,,,,,,,,,,,,
,,,,,,,,,6163fbf78813617495ee7a9b,Spanish/ Caribbean,13 or older,"no, only English or Spanish",yes,2025-07-23_09h13.20.127,empathy_intonation_perc,2024.2.4,MacIntel,57.80346821,6163fbf78813617495ee7a9b,687ed1b7e638a4cbf2f02089,6880d91486d276e58b1b9d0c,,,,,,,,,,,,,,1,,,,,,,,,,,,,,,,,,,,,,,,,,,,,,,,,,,,,,,,,,,,,,,,,,,,,,,,,12,asesinato,,,,,845.2077,846.5244,0,0,0.7951,,0,66,66,11,1,REAL,FAKE,,,,,,,,,,,,,,,,,
,,,,,,,,,6163fbf78813617495ee7a9b,Spanish/ Caribbean,13 or older,"no, only English or Spanish",yes,2025-07-23_09h13.20.127,empathy_intonation_perc,2024.2.4,MacIntel,57.80346821,6163fbf78813617495ee7a9b,687ed1b7e638a4cbf2f02089,6880d91486d276e58b1b9d0c,,,,,,,,,,,,,,1,,,,,,,,,,,,,,,,,,,,,,,,,,,,,,,,,,,,,,,,,,,,,,,,,,,,,,,,,22,lacayo,,,,,846.5255,847.8566,0,0,0.7962,,0,67,67,21,1,REAL,FAKE,,,,,,,,,,,,,,,,,
,,,,,,,,,6163fbf78813617495ee7a9b,Spanish/ Caribbean,13 or older,"no, only English or Spanish",yes,2025-07-23_09h13.20.127,empathy_intonation_perc,2024.2.4,MacIntel,57.80346821,6163fbf78813617495ee7a9b,687ed1b7e638a4cbf2f02089,6880d91486d276e58b1b9d0c,,,,,,,,,,,,,,1,,,,,,,,,,,,,,,,,,,,,,,,,,,,,,,,,,,,,,,,,,,,,,,,,,,,,,,,,88,acantilado,,,,,847.8574,849.1907,0,0,0.7947,,0,68,68,87,1,REAL,FAKE,,,,,,,,,,,,,,,,,
,,,,,,,,,6163fbf78813617495ee7a9b,Spanish/ Caribbean,13 or older,"no, only English or Spanish",yes,2025-07-23_09h13.20.127,empathy_intonation_perc,2024.2.4,MacIntel,57.80346821,6163fbf78813617495ee7a9b,687ed1b7e638a4cbf2f02089,6880d91486d276e58b1b9d0c,,,,,,,,,,,,,,0,,,,,,,,,,,,,,,,,,,,,,,,,,,,,,,,,,,,,,,,,,,,,,,,,,,,,,,,,10,antar,,,,,849.1915,850.5739,0,1,0.8447,,0,69,69,9,1,REAL,FAKE,,,,,,,,,,,,,,,,,
,,,,,,,,,6163fbf78813617495ee7a9b,Spanish/ Caribbean,13 or older,"no, only English or Spanish",yes,2025-07-23_09h13.20.127,empathy_intonation_perc,2024.2.4,MacIntel,57.80346821,6163fbf78813617495ee7a9b,687ed1b7e638a4cbf2f02089,6880d91486d276e58b1b9d0c,,,,,,,,,,,,,,1,,,,,,,,,,,,,,,,,,,,,,,,,,,,,,,,,,,,,,,,,,,,,,,,,,,,,,,,,68,alegre,,,,,850.5749,853.5075,1,1,2.3973,,0,70,70,67,1,REAL,FAKE,,,,,,,,,,,,,,,,,
,,,,,,,,,6163fbf78813617495ee7a9b,Spanish/ Caribbean,13 or older,"no, only English or Spanish",yes,2025-07-23_09h13.20.127,empathy_intonation_perc,2024.2.4,MacIntel,57.80346821,6163fbf78813617495ee7a9b,687ed1b7e638a4cbf2f02089,6880d91486d276e58b1b9d0c,,,,,,,,,,,,,,1,,,,,,,,,,,,,,,,,,,,,,,,,,,,,,,,,,,,,,,,,,,,,,,,,,,,,,,,,6,tergiversar,,,,,853.5083,855.0572,0,0,1.01,,0,71,71,5,1,REAL,FAKE,,,,,,,,,,,,,,,,,
,,,,,,,,,6163fbf78813617495ee7a9b,Spanish/ Caribbean,13 or older,"no, only English or Spanish",yes,2025-07-23_09h13.20.127,empathy_intonation_perc,2024.2.4,MacIntel,57.80346821,6163fbf78813617495ee7a9b,687ed1b7e638a4cbf2f02089,6880d91486d276e58b1b9d0c,,,,,,,,,,,,,,1,,,,,,,,,,,,,,,,,,,,,,,,,,,,,,,,,,,,,,,,,,,,,,,,,,,,,,,,,48,ladrón,,,,,855.0578,856.5065,0,0,0.9117,,0,72,72,47,1,REAL,FAKE,,,,,,,,,,,,,,,,,
,,,,,,,,,6163fbf78813617495ee7a9b,Spanish/ Caribbean,13 or older,"no, only English or Spanish",yes,2025-07-23_09h13.20.127,empathy_intonation_perc,2024.2.4,MacIntel,57.80346821,6163fbf78813617495ee7a9b,687ed1b7e638a4cbf2f02089,6880d91486d276e58b1b9d0c,,,,,,,,,,,,,,1,,,,,,,,,,,,,,,,,,,,,,,,,,,,,,,,,,,,,,,,,,,,,,,,,,,,,,,,,86,barato,,,,,856.5072,858.7236,0,0,1.6971,,0,73,73,85,1,REAL,FAKE,,,,,,,,,,,,,,,,,
,,,,,,,,,6163fbf78813617495ee7a9b,Spanish/ Caribbean,13 or older,"no, only English or Spanish",yes,2025-07-23_09h13.20.127,empathy_intonation_perc,2024.2.4,MacIntel,57.80346821,6163fbf78813617495ee7a9b,687ed1b7e638a4cbf2f02089,6880d91486d276e58b1b9d0c,,,,,,,,,,,,,,1,,,,,,,,,,,,,,,,,,,,,,,,,,,,,,,,,,,,,,,,,,,,,,,,,,,,,,,,,62,flaco,,,,,858.7245,861.1909,0,0,1.9288,,0,74,74,61,1,REAL,FAKE,,,,,,,,,,,,,,,,,
,,,,,,,,,6163fbf78813617495ee7a9b,Spanish/ Caribbean,13 or older,"no, only English or Spanish",yes,2025-07-23_09h13.20.127,empathy_intonation_perc,2024.2.4,MacIntel,57.80346821,6163fbf78813617495ee7a9b,687ed1b7e638a4cbf2f02089,6880d91486d276e58b1b9d0c,,,,,,,,,,,,,,1,,,,,,,,,,,,,,,,,,,,,,,,,,,,,,,,,,,,,,,,,,,,,,,,,,,,,,,,,31,pandilla,,,,,861.192,863.9564,0,0,2.2298,,0,75,75,30,1,REAL,FAKE,,,,,,,,,,,,,,,,,
,,,,,,,,,6163fbf78813617495ee7a9b,Spanish/ Caribbean,13 or older,"no, only English or Spanish",yes,2025-07-23_09h13.20.127,empathy_intonation_perc,2024.2.4,MacIntel,57.80346821,6163fbf78813617495ee7a9b,687ed1b7e638a4cbf2f02089,6880d91486d276e58b1b9d0c,,,,,,,,,,,,,,1,,,,,,,,,,,,,,,,,,,,,,,,,,,,,,,,,,,,,,,,,,,,,,,,,,,,,,,,,75,yacer,,,,,863.957,873.4737,0,0,8.9812,,0,76,76,74,1,REAL,FAKE,,,,,,,,,,,,,,,,,
,,,,,,,,,6163fbf78813617495ee7a9b,Spanish/ Caribbean,13 or older,"no, only English or Spanish",yes,2025-07-23_09h13.20.127,empathy_intonation_perc,2024.2.4,MacIntel,57.80346821,6163fbf78813617495ee7a9b,687ed1b7e638a4cbf2f02089,6880d91486d276e58b1b9d0c,,,,,,,,,,,,,,0,,,,,,,,,,,,,,,,,,,,,,,,,,,,,,,,,,,,,,,,,,,,,,,,,,,,,,,,,29,decar,,,,,873.4744,876.4562,0,1,2.4473,,0,77,77,28,1,REAL,FAKE,,,,,,,,,,,,,,,,,
,,,,,,,,,6163fbf78813617495ee7a9b,Spanish/ Caribbean,13 or older,"no, only English or Spanish",yes,2025-07-23_09h13.20.127,empathy_intonation_perc,2024.2.4,MacIntel,57.80346821,6163fbf78813617495ee7a9b,687ed1b7e638a4cbf2f02089,6880d91486d276e58b1b9d0c,,,,,,,,,,,,,,1,,,,,,,,,,,,,,,,,,,,,,,,,,,,,,,,,,,,,,,,,,,,,,,,,,,,,,,,,57,tacaño,,,,,876.4568,889.5562,0,0,12.5778,,0,78,78,56,1,REAL,FAKE,,,,,,,,,,,,,,,,,
,,,,,,,,,6163fbf78813617495ee7a9b,Spanish/ Caribbean,13 or older,"no, only English or Spanish",yes,2025-07-23_09h13.20.127,empathy_intonation_perc,2024.2.4,MacIntel,57.80346821,6163fbf78813617495ee7a9b,687ed1b7e638a4cbf2f02089,6880d91486d276e58b1b9d0c,,,,,,,,,,,,,,0,,,,,,,,,,,,,,,,,,,,,,,,,,,,,,,,,,,,,,,,,,,,,,,,,,,,,,,,,30,alardio,,,,,889.5569,896.323,0,1,6.2447,,0,79,79,29,1,REAL,FAKE,,,,,,,,,,,,,,,,,
,,,,,,,,,6163fbf78813617495ee7a9b,Spanish/ Caribbean,13 or older,"no, only English or Spanish",yes,2025-07-23_09h13.20.127,empathy_intonation_perc,2024.2.4,MacIntel,57.80346821,6163fbf78813617495ee7a9b,687ed1b7e638a4cbf2f02089,6880d91486d276e58b1b9d0c,,,,,,,,,,,,,,0,,,,,,,,,,,,,,,,,,,,,,,,,,,,,,,,,,,,,,,,,,,,,,,,,,,,,,,,,84,escuto,,,,,896.3242,901.5733,0,1,4.7109,,0,80,80,83,1,REAL,FAKE,,,,,,,,,,,,,,,,,
,,,,,,,,,6163fbf78813617495ee7a9b,Spanish/ Caribbean,13 or older,"no, only English or Spanish",yes,2025-07-23_09h13.20.127,empathy_intonation_perc,2024.2.4,MacIntel,57.80346821,6163fbf78813617495ee7a9b,687ed1b7e638a4cbf2f02089,6880d91486d276e58b1b9d0c,,,,,,,,,,,,,,0,,,,,,,,,,,,,,,,,,,,,,,,,,,,,,,,,,,,,,,,,,,,,,,,,,,,,,,,,19,brecedad,,,,,901.5741,913.8735,0,1,11.7605,,0,81,81,18,1,REAL,FAKE,,,,,,,,,,,,,,,,,
,,,,,,,,,6163fbf78813617495ee7a9b,Spanish/ Caribbean,13 or older,"no, only English or Spanish",yes,2025-07-23_09h13.20.127,empathy_intonation_perc,2024.2.4,MacIntel,57.80346821,6163fbf78813617495ee7a9b,687ed1b7e638a4cbf2f02089,6880d91486d276e58b1b9d0c,,,,,,,,,,,,,,0,,,,,,,,,,,,,,,,,,,,,,,,,,,,,,,,,,,,,,,,,,,,,,,,,,,,,,,,,18,arsa,,,,,913.8745,915.3227,0,1,0.9037,,0,82,82,17,1,REAL,FAKE,,,,,,,,,,,,,,,,,
,,,,,,,,,6163fbf78813617495ee7a9b,Spanish/ Caribbean,13 or older,"no, only English or Spanish",yes,2025-07-23_09h13.20.127,empathy_intonation_perc,2024.2.4,MacIntel,57.80346821,6163fbf78813617495ee7a9b,687ed1b7e638a4cbf2f02089,6880d91486d276e58b1b9d0c,,,,,,,,,,,,,,1,,,,,,,,,,,,,,,,,,,,,,,,,,,,,,,,,,,,,,,,,,,,,,,,,,,,,,,,,59,besar,,,,,915.3237,918.4222,1,1,2.5786,,0,83,83,58,1,REAL,FAKE,,,,,,,,,,,,,,,,,
,,,,,,,,,6163fbf78813617495ee7a9b,Spanish/ Caribbean,13 or older,"no, only English or Spanish",yes,2025-07-23_09h13.20.127,empathy_intonation_perc,2024.2.4,MacIntel,57.80346821,6163fbf78813617495ee7a9b,687ed1b7e638a4cbf2f02089,6880d91486d276e58b1b9d0c,,,,,,,,,,,,,,0,,,,,,,,,,,,,,,,,,,,,,,,,,,,,,,,,,,,,,,,,,,,,,,,,,,,,,,,,70,temblo,,,,,918.4229,919.9058,0,1,0.9623,,0,84,84,69,1,REAL,FAKE,,,,,,,,,,,,,,,,,
,,,,,,,,,6163fbf78813617495ee7a9b,Spanish/ Caribbean,13 or older,"no, only English or Spanish",yes,2025-07-23_09h13.20.127,empathy_intonation_perc,2024.2.4,MacIntel,57.80346821,6163fbf78813617495ee7a9b,687ed1b7e638a4cbf2f02089,6880d91486d276e58b1b9d0c,,,,,,,,,,,,,,0,,,,,,,,,,,,,,,,,,,,,,,,,,,,,,,,,,,,,,,,,,,,,,,,,,,,,,,,,79,tropaje,,,,,919.9069,921.3558,0,1,0.9115,,0,85,85,78,1,REAL,FAKE,,,,,,,,,,,,,,,,,
,,,,,,,,,6163fbf78813617495ee7a9b,Spanish/ Caribbean,13 or older,"no, only English or Spanish",yes,2025-07-23_09h13.20.127,empathy_intonation_perc,2024.2.4,MacIntel,57.80346821,6163fbf78813617495ee7a9b,687ed1b7e638a4cbf2f02089,6880d91486d276e58b1b9d0c,,,,,,,,,,,,,,1,,,,,,,,,,,,,,,,,,,,,,,,,,,,,,,,,,,,,,,,,,,,,,,,,,,,,,,,,38,estornudar,,,,,921.3569,925.0733,0,0,3.1801,,0,86,86,37,1,REAL,FAKE,,,,,,,,,,,,,,,,,
,,,,,,,,,6163fbf78813617495ee7a9b,Spanish/ Caribbean,13 or older,"no, only English or Spanish",yes,2025-07-23_09h13.20.127,empathy_intonation_perc,2024.2.4,MacIntel,57.80346821,6163fbf78813617495ee7a9b,687ed1b7e638a4cbf2f02089,6880d91486d276e58b1b9d0c,,,,,,,,,,,,,,1,,,,,,,,,,,,,,,,,,,,,,,,,,,,,,,,,,,,,,,,,,,,,,,,,,,,,,,,,39,torpe,,,,,925.0745,926.2388,0,0,0.6296,,0,87,87,38,1,REAL,FAKE,,,,,,,,,,,,,,,,,
,,,,,,,,,6163fbf78813617495ee7a9b,Spanish/ Caribbean,13 or older,"no, only English or Spanish",yes,2025-07-23_09h13.20.127,empathy_intonation_perc,2024.2.4,MacIntel,57.80346821,6163fbf78813617495ee7a9b,687ed1b7e638a4cbf2f02089,6880d91486d276e58b1b9d0c,,,,,,,,,,,,,,1,,,,,,,,,,,,,,,,,,,,,,,,,,,,,,,,,,,,,,,,,,,,,,,,,,,,,,,,,15,regar,,,,,926.2395,927.4558,1,1,0.6801,,0,88,88,14,1,REAL,FAKE,,,,,,,,,,,,,,,,,
,,,,,,,,,6163fbf78813617495ee7a9b,Spanish/ Caribbean,13 or older,"no, only English or Spanish",yes,2025-07-23_09h13.20.127,empathy_intonation_perc,2024.2.4,MacIntel,57.80346821,6163fbf78813617495ee7a9b,687ed1b7e638a4cbf2f02089,6880d91486d276e58b1b9d0c,,,,,,,,,,,,,,1,,,,,,,,,,,,,,,,,,,,,,,,,,,,,,,,,,,,,,,,,,,,,,,,,,,,,,,,,71,polvoriento,,,,,927.4568,928.639,0,0,0.6454,,0,89,89,70,1,REAL,FAKE,,,,,,,,,,,,,,,,,
,,,,,,,,,6163fbf78813617495ee7a9b,Spanish/ Caribbean,13 or older,"no, only English or Spanish",yes,2025-07-23_09h13.20.127,empathy_intonation_perc,2024.2.4,MacIntel,57.80346821,6163fbf78813617495ee7a9b,687ed1b7e638a4cbf2f02089,6880d91486d276e58b1b9d0c,,,,,,,,,,,,,,1,,,,,,,,,,,,,,,,,,,,,,,,,,,,,,,,,,,,,,,,,,,,,,,,,,,,,,,,,61,seda,,,,,928.6397,929.8893,0,0,0.7128,,0,90,90,60,1,REAL,FAKE,,,,,,,,,,,,,,,,,
,,,,,,,,,6163fbf78813617495ee7a9b,Spanish/ Caribbean,13 or older,"no, only English or Spanish",yes,2025-07-23_09h13.20.127,empathy_intonation_perc,2024.2.4,MacIntel,57.80346821,6163fbf78813617495ee7a9b,687ed1b7e638a4cbf2f02089,6880d91486d276e58b1b9d0c,,,,,,,,,,,,,,1,,,,,,,,,,,,,,,,,,,,,,,,,,,,,,,,,,,,,,,,,,,,,,,,,,,,,,,,,69,engatusar,,,,,929.8901,931.4726,0,0,1.0442,,0,91,91,68,1,REAL,FAKE,,,,,,,,,,,,,,,,,
,,,,,,,,,6163fbf78813617495ee7a9b,Spanish/ Caribbean,13 or older,"no, only English or Spanish",yes,2025-07-23_09h13.20.127,empathy_intonation_perc,2024.2.4,MacIntel,57.80346821,6163fbf78813617495ee7a9b,687ed1b7e638a4cbf2f02089,6880d91486d276e58b1b9d0c,,,,,,,,,,,,,,,,,,,,,,,,,,,,,,,,,,,,,,,,,,,,,,,,,,,,,,,,,,,,,,,,,,,,,,,,,,,,,,,,,,,,,,,,,,931.4731,937.5057,,,,,,,,,,,,,,,
,,,,,,,,,6163fbf78813617495ee7a9b,Spanish/ Caribbean,13 or older,"no, only English or Spanish",yes,2025-07-23_09h13.20.127,empathy_intonation_perc,2024.2.4,MacIntel,57.80346821,6163fbf78813617495ee7a9b,687ed1b7e638a4cbf2f02089,6880d91486d276e58b1b9d0c,,,,,,,,,,,,,1,,,,,,,,,,,,,,,,,,,,,,,,,,,,,,,,,,,,,,,,,,,,,,,,,,,,,,,,,,,,,,,,,,,,,,,,,,,,,,,937.5181,943.6563,slightly agree,0,0,0,0,1,I can easily tell if someone else wants to enter a conversation.,1,0,1,0,,
,,,,,,,,,6163fbf78813617495ee7a9b,Spanish/ Caribbean,13 or older,"no, only English or Spanish",yes,2025-07-23_09h13.20.127,empathy_intonation_perc,2024.2.4,MacIntel,57.80346821,6163fbf78813617495ee7a9b,687ed1b7e638a4cbf2f02089,6880d91486d276e58b1b9d0c,,,,,,,,,,,,,2,,,,,,,,,,,,,,,,,,,,,,,,,,,,,,,,,,,,,,,,,,,,,,,,,,,,,,,,,,,,,,,,,,,,,,,,,,,,,,,943.658,949.7404,slightly disagree,0,1,1,1,1,I prefer animals to humans.,0,1,0,0,,
