instructions_exposure.started,instructions_exposure.stopped,instructions_exposure_loop.thisRepN,instructions_exposure_loop.thisTrialN,instructions_exposure_loop.thisN,instructions_exposure_loop.thisIndex,instructions_exposure_loop.ran,instructions_text,continue_text,participant_id,"What variety of Spanish are you most familiar with? (e.g., Peruvian, Spanish, Mexican)",At what age did you begin learning Spanish?,Are you proficient in any languages other than English/Spanish?,"Are you familiar with Caribbean (e.g., Caribbean, Puerto Rican) or Galician Spanish?",date,expName,psychopyVersion,OS,frameRate,id,study_id,session,trial_exposure.started,trial_exposure.stopped,key_resp_exposure.keys,key_resp_exposure.corr,key_resp_exposure.rt,key_resp_exposure.duration,key_resp.keys,exposure_loop.thisRepN,exposure_loop.thisTrialN,exposure_loop.thisN,exposure_loop.thisIndex,exposure_loop.ran,item_num,correct_response,question,path,duration,instructions_2afc.started,instructions_2afc.stopped,instructions_2afc_loop.thisRepN,instructions_2afc_loop.thisTrialN,instructions_2afc_loop.thisN,instructions_2afc_loop.thisIndex,instructions_2afc_loop.ran,practice_2afc.started,practice_2afc.stopped,key_resp_2afc_practice.keys,key_resp_2afc_practice.corr,key_resp_2afc_practice.rt,key_resp_2afc_practice.duration,trials_2afc_practice_loop.thisRepN,trials_2afc_practice_loop.thisTrialN,trials_2afc_practice_loop.thisN,trials_2afc_practice_loop.thisIndex,trials_2afc_practice_loop.ran,check_2afc.started,check_2afc.stopped,trial_2afc.started,trial_2afc.stopped,key_resp_2afc_trial.keys,key_resp_2afc_trial.corr,key_resp_2afc_trial.rt,key_resp_2afc_trial.duration,trials_2afc_loop.thisRepN,trials_2afc_loop.thisTrialN,trials_2afc_loop.thisN,trials_2afc_loop.thisIndex,trials_2afc_loop.ran,target,variety,instructions_lextale.started,instructions_lextale.stopped,instructions_lextale_loop.thisRepN,instructions_lextale_loop.thisTrialN,instructions_lextale_loop.thisN,instructions_lextale_loop.thisIndex,instructions_lextale_loop.ran,practice_lextale.started,practice_lextale.stopped,key_resp_lextale_practice.keys,key_resp_lextale_practice.corr,key_resp_lextale_practice.rt,key_resp_lextale_practice.duration,practice_feedback_lextale.started,practice_feedback_lextale.stopped,trials_lextale_practice_loop.thisRepN,trials_lextale_practice_loop.thisTrialN,trials_lextale_practice_loop.thisN,trials_lextale_practice_loop.thisIndex,trials_lextale_practice_loop.ran,stim,word,prac_button_real,prac_button_false,check_lextale.started,check_lextale.stopped,trial_lextale.started,trial_lextale.stopped,key_resp_lextale_trial.keys,key_resp_lextale_trial.corr,key_resp_lextale_trial.rt,key_resp_lextale_trial.duration,trials_lextale_loop.thisRepN,trials_lextale_loop.thisTrialN,trials_lextale_loop.thisN,trials_lextale_loop.thisIndex,trials_lextale_loop.ran,button_real,button_false,instructions_eq.started,instructions_eq.stopped,trial_eq.started,trial_eq.stopped,slider_eq_trial.response,trials_eq_loop.thisRepN,trials_eq_loop.thisTrialN,trials_eq_loop.thisN,trials_eq_loop.thisIndex,trials_eq_loop.ran,item,is_test_item,is_distractor,is_agree_score,is_disagree_score,end_exp.started,end_exp.stopped
0.0154,2.2284,0,0,0,0,1,"In the following task, you are going to hear a series of conversations.", (press the space bar to continue),628d14b52b5bd1d83ed1f7d2,Puerto Rican,13 or older,"no, only English or Spanish",yes,2025-07-23_05h26.28.908,empathy_intonation_perc,2024.2.4,Win32,60.24096386,628d14b52b5bd1d83ed1f7d2,687ed1b7e638a4cbf2f02089,6880aa736ea8bf4d9a5302d3,,,,,,,,,,,,,,,,,,,,,,,,,,,,,,,,,,,,,,,,,,,,,,,,,,,,,,,,,,,,,,,,,,,,,,,,,,,,,,,,,,,,,,,,,,,,,,,,,,,,,,,,,,
2.2295,4.4111,0,1,1,1,1,It is okay if you don't not 100% understand them!, (press the space bar to continue),628d14b52b5bd1d83ed1f7d2,Puerto Rican,13 or older,"no, only English or Spanish",yes,2025-07-23_05h26.28.908,empathy_intonation_perc,2024.2.4,Win32,60.24096386,628d14b52b5bd1d83ed1f7d2,687ed1b7e638a4cbf2f02089,6880aa736ea8bf4d9a5302d3,,,,,,,,,,,,,,,,,,,,,,,,,,,,,,,,,,,,,,,,,,,,,,,,,,,,,,,,,,,,,,,,,,,,,,,,,,,,,,,,,,,,,,,,,,,,,,,,,,,,,,,,,,
4.4139,7.127,0,2,2,2,1,"After, you will read a sentence about the conversation and decide if it's true or false.", (press the space bar to continue),628d14b52b5bd1d83ed1f7d2,Puerto Rican,13 or older,"no, only English or Spanish",yes,2025-07-23_05h26.28.908,empathy_intonation_perc,2024.2.4,Win32,60.24096386,628d14b52b5bd1d83ed1f7d2,687ed1b7e638a4cbf2f02089,6880aa736ea8bf4d9a5302d3,,,,,,,,,,,,,,,,,,,,,,,,,,,,,,,,,,,,,,,,,,,,,,,,,,,,,,,,,,,,,,,,,,,,,,,,,,,,,,,,,,,,,,,,,,,,,,,,,,,,,,,,,,
7.1307,9.7942,0,3,3,3,1,"If it's true, press '1' (True) and if it's false press '0' (False).", (press the space bar to continue),628d14b52b5bd1d83ed1f7d2,Puerto Rican,13 or older,"no, only English or Spanish",yes,2025-07-23_05h26.28.908,empathy_intonation_perc,2024.2.4,Win32,60.24096386,628d14b52b5bd1d83ed1f7d2,687ed1b7e638a4cbf2f02089,6880aa736ea8bf4d9a5302d3,,,,,,,,,,,,,,,,,,,,,,,,,,,,,,,,,,,,,,,,,,,,,,,,,,,,,,,,,,,,,,,,,,,,,,,,,,,,,,,,,,,,,,,,,,,,,,,,,,,,,,,,,,
,,,,,,,,,628d14b52b5bd1d83ed1f7d2,Puerto Rican,13 or older,"no, only English or Spanish",yes,2025-07-23_05h26.28.908,empathy_intonation_perc,2024.2.4,Win32,60.24096386,628d14b52b5bd1d83ed1f7d2,687ed1b7e638a4cbf2f02089,6880aa736ea8bf4d9a5302d3,9.807,61.3249,1,0,15.4617,,,0,0,0,2,1,3,0,The mom already has rice.,./stim/exposure_wavs/pr_stimuli_convo.wav,36,,,,,,,,,,,,,,,,,,,,,,,,,,,,,,,,,,,,,,,,,,,,,,,,,,,,,,,,,,,,,,,,,,,,,,,,,,,,,,,,,,,,,,,,,
,,,,,,,,,628d14b52b5bd1d83ed1f7d2,Puerto Rican,13 or older,"no, only English or Spanish",yes,2025-07-23_05h26.28.908,empathy_intonation_perc,2024.2.4,Win32,60.24096386,628d14b52b5bd1d83ed1f7d2,687ed1b7e638a4cbf2f02089,6880aa736ea8bf4d9a5302d3,61.3301,124.9042,1,1,3.5454,,,0,1,1,1,1,2,1,The mom asked the daughter if she already went to the supermarket.,./stim/exposure_wavs/dr_stimuli_convo.wav,60,,,,,,,,,,,,,,,,,,,,,,,,,,,,,,,,,,,,,,,,,,,,,,,,,,,,,,,,,,,,,,,,,,,,,,,,,,,,,,,,,,,,,,,,,
,,,,,,,,,628d14b52b5bd1d83ed1f7d2,Puerto Rican,13 or older,"no, only English or Spanish",yes,2025-07-23_05h26.28.908,empathy_intonation_perc,2024.2.4,Win32,60.24096386,628d14b52b5bd1d83ed1f7d2,687ed1b7e638a4cbf2f02089,6880aa736ea8bf4d9a5302d3,124.9066,178.4998,0,0,6.5523,,,0,2,2,0,1,1,1,The son asked the mom if Aunt Marina is okay.,./stim/exposure_wavs/ga_stimuli_convo.wav,47,,,,,,,,,,,,,,,,,,,,,,,,,,,,,,,,,,,,,,,,,,,,,,,,,,,,,,,,,,,,,,,,,,,,,,,,,,,,,,,,,,,,,,,,,
,,,,,,,"In the following task you are going to hear a series of utterances. 

  You will decide if the utterances sound like questions or not using your keyboard.", (press the spacebar to continue),628d14b52b5bd1d83ed1f7d2,Puerto Rican,13 or older,"no, only English or Spanish",yes,2025-07-23_05h26.28.908,empathy_intonation_perc,2024.2.4,Win32,60.24096386,628d14b52b5bd1d83ed1f7d2,687ed1b7e638a4cbf2f02089,6880aa736ea8bf4d9a5302d3,,,,,,,,,,,,,,,,,,178.5081,191.4501,0,0,0,0,1,,,,,,,,,,,,,,,,,,,,,,,,,,,,,,,,,,,,,,,,,,,,,,,,,,,,,,,,,,,,,,,,,,,,,,,,,,,,,,,,,,
,,,,,,,"If you believe the utterance is a question, type '1' (for 'yes') and if you do not 
  believe it is a question type '0' (for 'no').

  Let's practice a bit...", (press the spacebar to continue),628d14b52b5bd1d83ed1f7d2,Puerto Rican,13 or older,"no, only English or Spanish",yes,2025-07-23_05h26.28.908,empathy_intonation_perc,2024.2.4,Win32,60.24096386,628d14b52b5bd1d83ed1f7d2,687ed1b7e638a4cbf2f02089,6880aa736ea8bf4d9a5302d3,,,,,,,,,,,,,,,,,,191.4529,196.0329,0,1,1,1,1,,,,,,,,,,,,,,,,,,,,,,,,,,,,,,,,,,,,,,,,,,,,,,,,,,,,,,,,,,,,,,,,,,,,,,,,,,,,,,,,,,
,,,,,,,,,628d14b52b5bd1d83ed1f7d2,Puerto Rican,13 or older,"no, only English or Spanish",yes,2025-07-23_05h26.28.908,empathy_intonation_perc,2024.2.4,Win32,60.24096386,628d14b52b5bd1d83ed1f7d2,687ed1b7e638a4cbf2f02089,6880aa736ea8bf4d9a5302d3,,,,,,,,,,,,,,0,,./stim/wavs/cuban_statement_filler_Cocinabas-por-la-noche.wav,,,,,,,,,196.0432,199.4325,0,1,2.8667,,0,0,0,4,1,,,,,,,,,,,,,,,,,,,,,,,,,,,,,,,,,,,,,,,,,,,,,,,,,,,,,,,,,,,,,,,,,,,,,,,
,,,,,,,,,628d14b52b5bd1d83ed1f7d2,Puerto Rican,13 or older,"no, only English or Spanish",yes,2025-07-23_05h26.28.908,empathy_intonation_perc,2024.2.4,Win32,60.24096386,628d14b52b5bd1d83ed1f7d2,687ed1b7e638a4cbf2f02089,6880aa736ea8bf4d9a5302d3,,,,,,,,,,,,,,0,,./stim/wavs/andalusian_statement_filler_Alberto-nunca-se-afeita.wav,,,,,,,,,199.4333,202.4028,1,0,2.45,,0,1,1,5,1,,,,,,,,,,,,,,,,,,,,,,,,,,,,,,,,,,,,,,,,,,,,,,,,,,,,,,,,,,,,,,,,,,,,,,,
,,,,,,,,,628d14b52b5bd1d83ed1f7d2,Puerto Rican,13 or older,"no, only English or Spanish",yes,2025-07-23_05h26.28.908,empathy_intonation_perc,2024.2.4,Win32,60.24096386,628d14b52b5bd1d83ed1f7d2,687ed1b7e638a4cbf2f02089,6880aa736ea8bf4d9a5302d3,,,,,,,,,,,,,,0,,./stim/wavs/puertorican_statement_filler_La-nina-pinta-con-su-amiga.wav,,,,,,,,,202.4037,205.4151,0,1,2.4884,,0,2,2,7,1,,,,,,,,,,,,,,,,,,,,,,,,,,,,,,,,,,,,,,,,,,,,,,,,,,,,,,,,,,,,,,,,,,,,,,,
,,,,,,,,,628d14b52b5bd1d83ed1f7d2,Puerto Rican,13 or older,"no, only English or Spanish",yes,2025-07-23_05h26.28.908,empathy_intonation_perc,2024.2.4,Win32,60.24096386,628d14b52b5bd1d83ed1f7d2,687ed1b7e638a4cbf2f02089,6880aa736ea8bf4d9a5302d3,,,,,,,,,,,,,,0,,./stim/wavs/peruvian_statement_filler_El-nino-habla-con-su-madre.wav,,,,,,,,,205.4167,209.4313,0,1,3.4936,,0,3,3,6,1,,,,,,,,,,,,,,,,,,,,,,,,,,,,,,,,,,,,,,,,,,,,,,,,,,,,,,,,,,,,,,,,,,,,,,,
,,,,,,,,,628d14b52b5bd1d83ed1f7d2,Puerto Rican,13 or older,"no, only English or Spanish",yes,2025-07-23_05h26.28.908,empathy_intonation_perc,2024.2.4,Win32,60.24096386,628d14b52b5bd1d83ed1f7d2,687ed1b7e638a4cbf2f02089,6880aa736ea8bf4d9a5302d3,,,,,,,,,,,,,,1,,./stim/wavs/castilian_question_filler_Mi-esposo-conoce-al-chico.wav,,,,,,,,,209.4327,215.3143,1,1,5.3503,,0,4,4,0,1,,,,,,,,,,,,,,,,,,,,,,,,,,,,,,,,,,,,,,,,,,,,,,,,,,,,,,,,,,,,,,,,,,,,,,,
,,,,,,,,,628d14b52b5bd1d83ed1f7d2,Puerto Rican,13 or older,"no, only English or Spanish",yes,2025-07-23_05h26.28.908,empathy_intonation_perc,2024.2.4,Win32,60.24096386,628d14b52b5bd1d83ed1f7d2,687ed1b7e638a4cbf2f02089,6880aa736ea8bf4d9a5302d3,,,,,,,,,,,,,,1,,./stim/wavs/chilean_question_filler_Mi-padre-cantaba-bien.wav,,,,,,,,,215.3158,217.8144,1,1,1.9771,,0,5,5,2,1,,,,,,,,,,,,,,,,,,,,,,,,,,,,,,,,,,,,,,,,,,,,,,,,,,,,,,,,,,,,,,,,,,,,,,,
,,,,,,,,,628d14b52b5bd1d83ed1f7d2,Puerto Rican,13 or older,"no, only English or Spanish",yes,2025-07-23_05h26.28.908,empathy_intonation_perc,2024.2.4,Win32,60.24096386,628d14b52b5bd1d83ed1f7d2,687ed1b7e638a4cbf2f02089,6880aa736ea8bf4d9a5302d3,,,,,,,,,,,,,,1,,./stim/wavs/argentine_question_filler_Mi-vecino-habla-mucho.wav,,,,,,,,,217.8153,221.2676,1,1,2.9182,,0,6,6,1,1,,,,,,,,,,,,,,,,,,,,,,,,,,,,,,,,,,,,,,,,,,,,,,,,,,,,,,,,,,,,,,,,,,,,,,,
,,,,,,,,,628d14b52b5bd1d83ed1f7d2,Puerto Rican,13 or older,"no, only English or Spanish",yes,2025-07-23_05h26.28.908,empathy_intonation_perc,2024.2.4,Win32,60.24096386,628d14b52b5bd1d83ed1f7d2,687ed1b7e638a4cbf2f02089,6880aa736ea8bf4d9a5302d3,,,,,,,,,,,,,,1,,./stim/wavs/mexican_question_filler_Felipe-no-tiene-contrasena.wav,,,,,,,,,221.2683,224.397,1,1,2.6043,,0,7,7,3,1,,,,,,,,,,,,,,,,,,,,,,,,,,,,,,,,,,,,,,,,,,,,,,,,,,,,,,,,,,,,,,,,,,,,,,,
,,,,,,,,,628d14b52b5bd1d83ed1f7d2,Puerto Rican,13 or older,"no, only English or Spanish",yes,2025-07-23_05h26.28.908,empathy_intonation_perc,2024.2.4,Win32,60.24096386,628d14b52b5bd1d83ed1f7d2,687ed1b7e638a4cbf2f02089,6880aa736ea8bf4d9a5302d3,,,,,,,,,,,,,,,,,,,,,,,,,,,,,,,,,,,,224.3978,229.5639,,,,,,,,,,,,,,,,,,,,,,,,,,,,,,,,,,,,,,,,,,,,,,,,,,,,,,,,,,,,,,,,,,,,,
,,,,,,,,,628d14b52b5bd1d83ed1f7d2,Puerto Rican,13 or older,"no, only English or Spanish",yes,2025-07-23_05h26.28.908,empathy_intonation_perc,2024.2.4,Win32,60.24096386,628d14b52b5bd1d83ed1f7d2,687ed1b7e638a4cbf2f02089,6880aa736ea8bf4d9a5302d3,,,,,,,,,,,,,40,1,,./stim/wavs/puertorican_mismatch_interrogative-total-yn_El-hombre-mira-la-luna.wav,,,,,,,,,,,,,,,,,,,,,,229.5791,232.0134,1,1,1.9015,,0,0,0,39,1,1,puertorican,,,,,,,,,,,,,,,,,,,,,,,,,,,,,,,,,,,,,,,,,,,,,,,,,,,,,,,,
,,,,,,,,,628d14b52b5bd1d83ed1f7d2,Puerto Rican,13 or older,"no, only English or Spanish",yes,2025-07-23_05h26.28.908,empathy_intonation_perc,2024.2.4,Win32,60.24096386,628d14b52b5bd1d83ed1f7d2,687ed1b7e638a4cbf2f02089,6880aa736ea8bf4d9a5302d3,,,,,,,,,,,,,4,1,,./stim/wavs/castilian_match_interrogative-total-yn_Maria-bebe-el-vino.wav,,,,,,,,,,,,,,,,,,,,,,232.0147,234.513,1,1,1.9663,,0,1,1,3,1,0,castilian,,,,,,,,,,,,,,,,,,,,,,,,,,,,,,,,,,,,,,,,,,,,,,,,,,,,,,,,
,,,,,,,,,628d14b52b5bd1d83ed1f7d2,Puerto Rican,13 or older,"no, only English or Spanish",yes,2025-07-23_05h26.28.908,empathy_intonation_perc,2024.2.4,Win32,60.24096386,628d14b52b5bd1d83ed1f7d2,687ed1b7e638a4cbf2f02089,6880aa736ea8bf4d9a5302d3,,,,,,,,,,,,,37,1,,./stim/wavs/mexican_mismatch_interrogative-total-yn_La-maestra-vive-en-Paris.wav,,,,,,,,,,,,,,,,,,,,,,234.5141,238.8628,0,0,3.8205,,0,2,2,36,1,0,mexican,,,,,,,,,,,,,,,,,,,,,,,,,,,,,,,,,,,,,,,,,,,,,,,,,,,,,,,,
,,,,,,,,,628d14b52b5bd1d83ed1f7d2,Puerto Rican,13 or older,"no, only English or Spanish",yes,2025-07-23_05h26.28.908,empathy_intonation_perc,2024.2.4,Win32,60.24096386,628d14b52b5bd1d83ed1f7d2,687ed1b7e638a4cbf2f02089,6880aa736ea8bf4d9a5302d3,,,,,,,,,,,,,80,0,,./stim/wavs/mexican_mismatch_declarative-broad-focus_El-hombre-mira-la-luna.wav,,,,,,,,,,,,,,,,,,,,,,238.8637,241.1791,0,1,1.7868,,0,3,3,79,1,0,mexican,,,,,,,,,,,,,,,,,,,,,,,,,,,,,,,,,,,,,,,,,,,,,,,,,,,,,,,,
,,,,,,,,,628d14b52b5bd1d83ed1f7d2,Puerto Rican,13 or older,"no, only English or Spanish",yes,2025-07-23_05h26.28.908,empathy_intonation_perc,2024.2.4,Win32,60.24096386,628d14b52b5bd1d83ed1f7d2,687ed1b7e638a4cbf2f02089,6880aa736ea8bf4d9a5302d3,,,,,,,,,,,,,27,1,,./stim/wavs/castilian_mismatch_interrogative-total-yn_Mi-madre-come-la-fruta.wav,,,,,,,,,,,,,,,,,,,,,,241.1803,245.3623,0,0,3.6506,,0,4,4,26,1,0,castilian,,,,,,,,,,,,,,,,,,,,,,,,,,,,,,,,,,,,,,,,,,,,,,,,,,,,,,,,
,,,,,,,,,628d14b52b5bd1d83ed1f7d2,Puerto Rican,13 or older,"no, only English or Spanish",yes,2025-07-23_05h26.28.908,empathy_intonation_perc,2024.2.4,Win32,60.24096386,628d14b52b5bd1d83ed1f7d2,687ed1b7e638a4cbf2f02089,6880aa736ea8bf4d9a5302d3,,,,,,,,,,,,,9,1,,./stim/wavs/cuban_match_interrogative-total-yn_Manuela-vende-el-carro.wav,,,,,,,,,,,,,,,,,,,,,,245.3633,248.5121,0,0,2.6406,,0,5,5,8,1,1,cuban,,,,,,,,,,,,,,,,,,,,,,,,,,,,,,,,,,,,,,,,,,,,,,,,,,,,,,,,
,,,,,,,,,628d14b52b5bd1d83ed1f7d2,Puerto Rican,13 or older,"no, only English or Spanish",yes,2025-07-23_05h26.28.908,empathy_intonation_perc,2024.2.4,Win32,60.24096386,628d14b52b5bd1d83ed1f7d2,687ed1b7e638a4cbf2f02089,6880aa736ea8bf4d9a5302d3,,,,,,,,,,,,,81,0,,./stim/wavs/mexican_mismatch_declarative-broad-focus_La-maestra-vive-en-Paris.wav,,,,,,,,,,,,,,,,,,,,,,248.5135,250.7783,0,1,1.7432,,0,6,6,80,1,0,mexican,,,,,,,,,,,,,,,,,,,,,,,,,,,,,,,,,,,,,,,,,,,,,,,,,,,,,,,,
,,,,,,,,,628d14b52b5bd1d83ed1f7d2,Puerto Rican,13 or older,"no, only English or Spanish",yes,2025-07-23_05h26.28.908,empathy_intonation_perc,2024.2.4,Win32,60.24096386,628d14b52b5bd1d83ed1f7d2,687ed1b7e638a4cbf2f02089,6880aa736ea8bf4d9a5302d3,,,,,,,,,,,,,65,0,,./stim/wavs/puertorican_match_declarative-broad-focus_David-leia-el-libro.wav,,,,,,,,,,,,,,,,,,,,,,250.7796,252.8955,0,1,1.5896,,0,7,7,64,1,0,puertorican,,,,,,,,,,,,,,,,,,,,,,,,,,,,,,,,,,,,,,,,,,,,,,,,,,,,,,,,
,,,,,,,,,628d14b52b5bd1d83ed1f7d2,Puerto Rican,13 or older,"no, only English or Spanish",yes,2025-07-23_05h26.28.908,empathy_intonation_perc,2024.2.4,Win32,60.24096386,628d14b52b5bd1d83ed1f7d2,687ed1b7e638a4cbf2f02089,6880aa736ea8bf4d9a5302d3,,,,,,,,,,,,,23,1,,./stim/wavs/puertorican_match_interrogative-total-yn_Manuela-vende-el-carro.wav,,,,,,,,,,,,,,,,,,,,,,252.8968,254.8612,1,1,1.4452,,0,8,8,22,1,1,puertorican,,,,,,,,,,,,,,,,,,,,,,,,,,,,,,,,,,,,,,,,,,,,,,,,,,,,,,,,
,,,,,,,,,628d14b52b5bd1d83ed1f7d2,Puerto Rican,13 or older,"no, only English or Spanish",yes,2025-07-23_05h26.28.908,empathy_intonation_perc,2024.2.4,Win32,60.24096386,628d14b52b5bd1d83ed1f7d2,687ed1b7e638a4cbf2f02089,6880aa736ea8bf4d9a5302d3,,,,,,,,,,,,,3,1,,./stim/wavs/castilian_match_interrogative-total-yn_Manuela-vende-el-carro.wav,,,,,,,,,,,,,,,,,,,,,,254.8624,258.4117,1,1,3.0174,,0,9,9,2,1,0,castilian,,,,,,,,,,,,,,,,,,,,,,,,,,,,,,,,,,,,,,,,,,,,,,,,,,,,,,,,
,,,,,,,,,628d14b52b5bd1d83ed1f7d2,Puerto Rican,13 or older,"no, only English or Spanish",yes,2025-07-23_05h26.28.908,empathy_intonation_perc,2024.2.4,Win32,60.24096386,628d14b52b5bd1d83ed1f7d2,687ed1b7e638a4cbf2f02089,6880aa736ea8bf4d9a5302d3,,,,,,,,,,,,,17,1,,./stim/wavs/mexican_match_interrogative-total-yn_Mariano-habla-del-tiempo.wav,,,,,,,,,,,,,,,,,,,,,,258.4127,264.9445,1,1,5.9997,,0,10,10,16,1,0,mexican,,,,,,,,,,,,,,,,,,,,,,,,,,,,,,,,,,,,,,,,,,,,,,,,,,,,,,,,
,,,,,,,,,628d14b52b5bd1d83ed1f7d2,Puerto Rican,13 or older,"no, only English or Spanish",yes,2025-07-23_05h26.28.908,empathy_intonation_perc,2024.2.4,Win32,60.24096386,628d14b52b5bd1d83ed1f7d2,687ed1b7e638a4cbf2f02089,6880aa736ea8bf4d9a5302d3,,,,,,,,,,,,,39,1,,./stim/wavs/mexican_mismatch_interrogative-total-yn_Mi-tia-odia-la-lluvia.wav,,,,,,,,,,,,,,,,,,,,,,264.9455,267.0984,1,1,1.6163,,0,11,11,38,1,0,mexican,,,,,,,,,,,,,,,,,,,,,,,,,,,,,,,,,,,,,,,,,,,,,,,,,,,,,,,,
,,,,,,,,,628d14b52b5bd1d83ed1f7d2,Puerto Rican,13 or older,"no, only English or Spanish",yes,2025-07-23_05h26.28.908,empathy_intonation_perc,2024.2.4,Win32,60.24096386,628d14b52b5bd1d83ed1f7d2,687ed1b7e638a4cbf2f02089,6880aa736ea8bf4d9a5302d3,,,,,,,,,,,,,31,1,,./stim/wavs/cuban_mismatch_interrogative-total-yn_El-nino-oye-el-rio.wav,,,,,,,,,,,,,,,,,,,,,,267.0992,269.0276,0,0,1.4059,,0,12,12,30,1,1,cuban,,,,,,,,,,,,,,,,,,,,,,,,,,,,,,,,,,,,,,,,,,,,,,,,,,,,,,,,
,,,,,,,,,628d14b52b5bd1d83ed1f7d2,Puerto Rican,13 or older,"no, only English or Spanish",yes,2025-07-23_05h26.28.908,empathy_intonation_perc,2024.2.4,Win32,60.24096386,628d14b52b5bd1d83ed1f7d2,687ed1b7e638a4cbf2f02089,6880aa736ea8bf4d9a5302d3,,,,,,,,,,,,,20,1,,./stim/wavs/puertorican_match_interrogative-total-yn_Daniel-iba-a-Bolivia.wav,,,,,,,,,,,,,,,,,,,,,,269.0289,271.9442,1,1,2.3936,,0,13,13,19,1,1,puertorican,,,,,,,,,,,,,,,,,,,,,,,,,,,,,,,,,,,,,,,,,,,,,,,,,,,,,,,,
,,,,,,,,,628d14b52b5bd1d83ed1f7d2,Puerto Rican,13 or older,"no, only English or Spanish",yes,2025-07-23_05h26.28.908,empathy_intonation_perc,2024.2.4,Win32,60.24096386,628d14b52b5bd1d83ed1f7d2,687ed1b7e638a4cbf2f02089,6880aa736ea8bf4d9a5302d3,,,,,,,,,,,,,6,1,,./stim/wavs/castilian_match_interrogative-total-yn_Marta-abre-el-regalo.wav,,,,,,,,,,,,,,,,,,,,,,271.9452,277.2278,1,1,4.7519,,0,14,14,5,1,0,castilian,,,,,,,,,,,,,,,,,,,,,,,,,,,,,,,,,,,,,,,,,,,,,,,,,,,,,,,,
,,,,,,,,,628d14b52b5bd1d83ed1f7d2,Puerto Rican,13 or older,"no, only English or Spanish",yes,2025-07-23_05h26.28.908,empathy_intonation_perc,2024.2.4,Win32,60.24096386,628d14b52b5bd1d83ed1f7d2,687ed1b7e638a4cbf2f02089,6880aa736ea8bf4d9a5302d3,,,,,,,,,,,,,84,0,,./stim/wavs/puertorican_mismatch_declarative-broad-focus_El-bebe-comia-muy-bien.wav,,,,,,,,,,,,,,,,,,,,,,277.229,279.21,0,1,1.4556,,0,15,15,83,1,0,puertorican,,,,,,,,,,,,,,,,,,,,,,,,,,,,,,,,,,,,,,,,,,,,,,,,,,,,,,,,
,,,,,,,,,628d14b52b5bd1d83ed1f7d2,Puerto Rican,13 or older,"no, only English or Spanish",yes,2025-07-23_05h26.28.908,empathy_intonation_perc,2024.2.4,Win32,60.24096386,628d14b52b5bd1d83ed1f7d2,687ed1b7e638a4cbf2f02089,6880aa736ea8bf4d9a5302d3,,,,,,,,,,,,,59,0,,./stim/wavs/mexican_match_declarative-broad-focus_David-leia-el-libro.wav,,,,,,,,,,,,,,,,,,,,,,279.2111,281.3099,0,1,1.5668,,0,16,16,58,1,0,mexican,,,,,,,,,,,,,,,,,,,,,,,,,,,,,,,,,,,,,,,,,,,,,,,,,,,,,,,,
,,,,,,,,,628d14b52b5bd1d83ed1f7d2,Puerto Rican,13 or older,"no, only English or Spanish",yes,2025-07-23_05h26.28.908,empathy_intonation_perc,2024.2.4,Win32,60.24096386,628d14b52b5bd1d83ed1f7d2,687ed1b7e638a4cbf2f02089,6880aa736ea8bf4d9a5302d3,,,,,,,,,,,,,54,0,,./stim/wavs/cuban_match_declarative-broad-focus_Maria-bebe-el-vino.wav,,,,,,,,,,,,,,,,,,,,,,281.3109,287.3426,0,1,5.5097,,0,17,17,53,1,0,cuban,,,,,,,,,,,,,,,,,,,,,,,,,,,,,,,,,,,,,,,,,,,,,,,,,,,,,,,,
,,,,,,,,,628d14b52b5bd1d83ed1f7d2,Puerto Rican,13 or older,"no, only English or Spanish",yes,2025-07-23_05h26.28.908,empathy_intonation_perc,2024.2.4,Win32,60.24096386,628d14b52b5bd1d83ed1f7d2,687ed1b7e638a4cbf2f02089,6880aa736ea8bf4d9a5302d3,,,,,,,,,,,,,73,0,,./stim/wavs/castilian_mismatch_declarative-broad-focus_Mi-tia-odia-la-lluvia.wav,,,,,,,,,,,,,,,,,,,,,,287.3437,290.7598,0,1,2.8677,,0,18,18,72,1,0,castilian,,,,,,,,,,,,,,,,,,,,,,,,,,,,,,,,,,,,,,,,,,,,,,,,,,,,,,,,
,,,,,,,,,628d14b52b5bd1d83ed1f7d2,Puerto Rican,13 or older,"no, only English or Spanish",yes,2025-07-23_05h26.28.908,empathy_intonation_perc,2024.2.4,Win32,60.24096386,628d14b52b5bd1d83ed1f7d2,687ed1b7e638a4cbf2f02089,6880aa736ea8bf4d9a5302d3,,,,,,,,,,,,,69,0,,./stim/wavs/castilian_mismatch_declarative-broad-focus_El-nino-oye-el-rio.wav,,,,,,,,,,,,,,,,,,,,,,290.7609,293.2599,0,1,1.9709,,0,19,19,68,1,0,castilian,,,,,,,,,,,,,,,,,,,,,,,,,,,,,,,,,,,,,,,,,,,,,,,,,,,,,,,,
,,,,,,,,,628d14b52b5bd1d83ed1f7d2,Puerto Rican,13 or older,"no, only English or Spanish",yes,2025-07-23_05h26.28.908,empathy_intonation_perc,2024.2.4,Win32,60.24096386,628d14b52b5bd1d83ed1f7d2,687ed1b7e638a4cbf2f02089,6880aa736ea8bf4d9a5302d3,,,,,,,,,,,,,36,1,,./stim/wavs/mexican_mismatch_interrogative-total-yn_El-nino-oye-el-rio.wav,,,,,,,,,,,,,,,,,,,,,,293.261,299.109,1,1,5.3282,,0,20,20,35,1,0,mexican,,,,,,,,,,,,,,,,,,,,,,,,,,,,,,,,,,,,,,,,,,,,,,,,,,,,,,,,
,,,,,,,,,628d14b52b5bd1d83ed1f7d2,Puerto Rican,13 or older,"no, only English or Spanish",yes,2025-07-23_05h26.28.908,empathy_intonation_perc,2024.2.4,Win32,60.24096386,628d14b52b5bd1d83ed1f7d2,687ed1b7e638a4cbf2f02089,6880aa736ea8bf4d9a5302d3,,,,,,,,,,,,,21,1,,./stim/wavs/puertorican_match_interrogative-total-yn_David-leia-el-libro.wav,,,,,,,,,,,,,,,,,,,,,,299.1101,301.3587,1,1,1.7172,,0,21,21,20,1,1,puertorican,,,,,,,,,,,,,,,,,,,,,,,,,,,,,,,,,,,,,,,,,,,,,,,,,,,,,,,,
,,,,,,,,,628d14b52b5bd1d83ed1f7d2,Puerto Rican,13 or older,"no, only English or Spanish",yes,2025-07-23_05h26.28.908,empathy_intonation_perc,2024.2.4,Win32,60.24096386,628d14b52b5bd1d83ed1f7d2,687ed1b7e638a4cbf2f02089,6880aa736ea8bf4d9a5302d3,,,,,,,,,,,,,47,0,,./stim/wavs/castilian_match_declarative-broad-focus_Manuela-vende-el-carro.wav,,,,,,,,,,,,,,,,,,,,,,301.36,303.9256,0,1,2.0404,,0,22,22,46,1,0,castilian,,,,,,,,,,,,,,,,,,,,,,,,,,,,,,,,,,,,,,,,,,,,,,,,,,,,,,,,
,,,,,,,,,628d14b52b5bd1d83ed1f7d2,Puerto Rican,13 or older,"no, only English or Spanish",yes,2025-07-23_05h26.28.908,empathy_intonation_perc,2024.2.4,Win32,60.24096386,628d14b52b5bd1d83ed1f7d2,687ed1b7e638a4cbf2f02089,6880aa736ea8bf4d9a5302d3,,,,,,,,,,,,,33,1,,./stim/wavs/cuban_mismatch_interrogative-total-yn_Mi-novio-viene-del-lago.wav,,,,,,,,,,,,,,,,,,,,,,303.9268,306.9755,1,1,2.5186,,0,23,23,32,1,1,cuban,,,,,,,,,,,,,,,,,,,,,,,,,,,,,,,,,,,,,,,,,,,,,,,,,,,,,,,,
,,,,,,,,,628d14b52b5bd1d83ed1f7d2,Puerto Rican,13 or older,"no, only English or Spanish",yes,2025-07-23_05h26.28.908,empathy_intonation_perc,2024.2.4,Win32,60.24096386,628d14b52b5bd1d83ed1f7d2,687ed1b7e638a4cbf2f02089,6880aa736ea8bf4d9a5302d3,,,,,,,,,,,,,76,0,,./stim/wavs/cuban_mismatch_declarative-broad-focus_La-nina-lava-el-plato.wav,,,,,,,,,,,,,,,,,,,,,,306.9767,309.109,0,1,1.613,,0,24,24,75,1,0,cuban,,,,,,,,,,,,,,,,,,,,,,,,,,,,,,,,,,,,,,,,,,,,,,,,,,,,,,,,
,,,,,,,,,628d14b52b5bd1d83ed1f7d2,Puerto Rican,13 or older,"no, only English or Spanish",yes,2025-07-23_05h26.28.908,empathy_intonation_perc,2024.2.4,Win32,60.24096386,628d14b52b5bd1d83ed1f7d2,687ed1b7e638a4cbf2f02089,6880aa736ea8bf4d9a5302d3,,,,,,,,,,,,,87,0,,./stim/wavs/puertorican_mismatch_declarative-broad-focus_La-maestra-vive-en-Paris.wav,,,,,,,,,,,,,,,,,,,,,,309.1096,311.4082,0,1,1.7713,,0,25,25,86,1,0,puertorican,,,,,,,,,,,,,,,,,,,,,,,,,,,,,,,,,,,,,,,,,,,,,,,,,,,,,,,,
,,,,,,,,,628d14b52b5bd1d83ed1f7d2,Puerto Rican,13 or older,"no, only English or Spanish",yes,2025-07-23_05h26.28.908,empathy_intonation_perc,2024.2.4,Win32,60.24096386,628d14b52b5bd1d83ed1f7d2,687ed1b7e638a4cbf2f02089,6880aa736ea8bf4d9a5302d3,,,,,,,,,,,,,72,0,,./stim/wavs/castilian_mismatch_declarative-broad-focus_Mi-novio-viene-del-lago.wav,,,,,,,,,,,,,,,,,,,,,,311.4096,313.8412,0,1,1.9006,,0,26,26,71,1,0,castilian,,,,,,,,,,,,,,,,,,,,,,,,,,,,,,,,,,,,,,,,,,,,,,,,,,,,,,,,
,,,,,,,,,628d14b52b5bd1d83ed1f7d2,Puerto Rican,13 or older,"no, only English or Spanish",yes,2025-07-23_05h26.28.908,empathy_intonation_perc,2024.2.4,Win32,60.24096386,628d14b52b5bd1d83ed1f7d2,687ed1b7e638a4cbf2f02089,6880aa736ea8bf4d9a5302d3,,,,,,,,,,,,,53,0,,./stim/wavs/cuban_match_declarative-broad-focus_Manuela-vende-el-carro.wav,,,,,,,,,,,,,,,,,,,,,,313.8421,316.9413,0,1,2.5771,,0,27,27,52,1,0,cuban,,,,,,,,,,,,,,,,,,,,,,,,,,,,,,,,,,,,,,,,,,,,,,,,,,,,,,,,
,,,,,,,,,628d14b52b5bd1d83ed1f7d2,Puerto Rican,13 or older,"no, only English or Spanish",yes,2025-07-23_05h26.28.908,empathy_intonation_perc,2024.2.4,Win32,60.24096386,628d14b52b5bd1d83ed1f7d2,687ed1b7e638a4cbf2f02089,6880aa736ea8bf4d9a5302d3,,,,,,,,,,,,,42,1,,./stim/wavs/puertorican_mismatch_interrogative-total-yn_La-maestra-vive-en-Paris.wav,,,,,,,,,,,,,,,,,,,,,,316.9425,319.8408,0,0,2.367,,0,28,28,41,1,1,puertorican,,,,,,,,,,,,,,,,,,,,,,,,,,,,,,,,,,,,,,,,,,,,,,,,,,,,,,,,
,,,,,,,,,628d14b52b5bd1d83ed1f7d2,Puerto Rican,13 or older,"no, only English or Spanish",yes,2025-07-23_05h26.28.908,empathy_intonation_perc,2024.2.4,Win32,60.24096386,628d14b52b5bd1d83ed1f7d2,687ed1b7e638a4cbf2f02089,6880aa736ea8bf4d9a5302d3,,,,,,,,,,,,,83,0,,./stim/wavs/mexican_mismatch_declarative-broad-focus_Mi-tia-odia-la-lluvia.wav,,,,,,,,,,,,,,,,,,,,,,319.8419,322.3414,0,1,1.9712,,0,29,29,82,1,0,mexican,,,,,,,,,,,,,,,,,,,,,,,,,,,,,,,,,,,,,,,,,,,,,,,,,,,,,,,,
,,,,,,,,,628d14b52b5bd1d83ed1f7d2,Puerto Rican,13 or older,"no, only English or Spanish",yes,2025-07-23_05h26.28.908,empathy_intonation_perc,2024.2.4,Win32,60.24096386,628d14b52b5bd1d83ed1f7d2,687ed1b7e638a4cbf2f02089,6880aa736ea8bf4d9a5302d3,,,,,,,,,,,,,16,1,,./stim/wavs/mexican_match_interrogative-total-yn_Emilio-ama-la-marcha.wav,,,,,,,,,,,,,,,,,,,,,,322.3426,324.8579,1,1,1.9825,,0,30,30,15,1,0,mexican,,,,,,,,,,,,,,,,,,,,,,,,,,,,,,,,,,,,,,,,,,,,,,,,,,,,,,,,
,,,,,,,,,628d14b52b5bd1d83ed1f7d2,Puerto Rican,13 or older,"no, only English or Spanish",yes,2025-07-23_05h26.28.908,empathy_intonation_perc,2024.2.4,Win32,60.24096386,628d14b52b5bd1d83ed1f7d2,687ed1b7e638a4cbf2f02089,6880aa736ea8bf4d9a5302d3,,,,,,,,,,,,,44,1,,./stim/wavs/puertorican_mismatch_interrogative-total-yn_Mi-madre-come-la-fruta.wav,,,,,,,,,,,,,,,,,,,,,,324.8586,327.6571,0,0,2.2718,,0,31,31,43,1,1,puertorican,,,,,,,,,,,,,,,,,,,,,,,,,,,,,,,,,,,,,,,,,,,,,,,,,,,,,,,,
,,,,,,,,,628d14b52b5bd1d83ed1f7d2,Puerto Rican,13 or older,"no, only English or Spanish",yes,2025-07-23_05h26.28.908,empathy_intonation_perc,2024.2.4,Win32,60.24096386,628d14b52b5bd1d83ed1f7d2,687ed1b7e638a4cbf2f02089,6880aa736ea8bf4d9a5302d3,,,,,,,,,,,,,1,1,,./stim/wavs/castilian_match_interrogative-total-yn_David-leia-el-libro.wav,,,,,,,,,,,,,,,,,,,,,,327.6581,329.9412,1,1,1.7594,,0,32,32,0,1,0,castilian,,,,,,,,,,,,,,,,,,,,,,,,,,,,,,,,,,,,,,,,,,,,,,,,,,,,,,,,
,,,,,,,,,628d14b52b5bd1d83ed1f7d2,Puerto Rican,13 or older,"no, only English or Spanish",yes,2025-07-23_05h26.28.908,empathy_intonation_perc,2024.2.4,Win32,60.24096386,628d14b52b5bd1d83ed1f7d2,687ed1b7e638a4cbf2f02089,6880aa736ea8bf4d9a5302d3,,,,,,,,,,,,,11,1,,./stim/wavs/cuban_match_interrogative-total-yn_Mariano-habla-del-tiempo.wav,,,,,,,,,,,,,,,,,,,,,,329.9423,333.5239,0,0,3.0542,,0,33,33,10,1,1,cuban,,,,,,,,,,,,,,,,,,,,,,,,,,,,,,,,,,,,,,,,,,,,,,,,,,,,,,,,
,,,,,,,,,628d14b52b5bd1d83ed1f7d2,Puerto Rican,13 or older,"no, only English or Spanish",yes,2025-07-23_05h26.28.908,empathy_intonation_perc,2024.2.4,Win32,60.24096386,628d14b52b5bd1d83ed1f7d2,687ed1b7e638a4cbf2f02089,6880aa736ea8bf4d9a5302d3,,,,,,,,,,,,,71,0,,./stim/wavs/castilian_mismatch_declarative-broad-focus_La-nina-lava-el-plato.wav,,,,,,,,,,,,,,,,,,,,,,333.5252,336.0732,0,1,2.0021,,0,34,34,70,1,0,castilian,,,,,,,,,,,,,,,,,,,,,,,,,,,,,,,,,,,,,,,,,,,,,,,,,,,,,,,,
,,,,,,,,,628d14b52b5bd1d83ed1f7d2,Puerto Rican,13 or older,"no, only English or Spanish",yes,2025-07-23_05h26.28.908,empathy_intonation_perc,2024.2.4,Win32,60.24096386,628d14b52b5bd1d83ed1f7d2,687ed1b7e638a4cbf2f02089,6880aa736ea8bf4d9a5302d3,,,,,,,,,,,,,75,0,,./stim/wavs/cuban_mismatch_declarative-broad-focus_El-hombre-mira-la-luna.wav,,,,,,,,,,,,,,,,,,,,,,336.0743,340.2895,0,1,3.6857,,0,35,35,74,1,0,cuban,,,,,,,,,,,,,,,,,,,,,,,,,,,,,,,,,,,,,,,,,,,,,,,,,,,,,,,,
,,,,,,,,,628d14b52b5bd1d83ed1f7d2,Puerto Rican,13 or older,"no, only English or Spanish",yes,2025-07-23_05h26.28.908,empathy_intonation_perc,2024.2.4,Win32,60.24096386,628d14b52b5bd1d83ed1f7d2,687ed1b7e638a4cbf2f02089,6880aa736ea8bf4d9a5302d3,,,,,,,,,,,,,15,1,,./stim/wavs/mexican_match_interrogative-total-yn_David-leia-el-libro.wav,,,,,,,,,,,,,,,,,,,,,,340.2912,342.5065,1,1,1.6923,,0,36,36,14,1,0,mexican,,,,,,,,,,,,,,,,,,,,,,,,,,,,,,,,,,,,,,,,,,,,,,,,,,,,,,,,
,,,,,,,,,628d14b52b5bd1d83ed1f7d2,Puerto Rican,13 or older,"no, only English or Spanish",yes,2025-07-23_05h26.28.908,empathy_intonation_perc,2024.2.4,Win32,60.24096386,628d14b52b5bd1d83ed1f7d2,687ed1b7e638a4cbf2f02089,6880aa736ea8bf4d9a5302d3,,,,,,,,,,,,,14,1,,./stim/wavs/mexican_match_interrogative-total-yn_Daniel-iba-a-Bolivia.wav,,,,,,,,,,,,,,,,,,,,,,342.5075,344.9228,1,1,1.875,,0,37,37,13,1,0,mexican,,,,,,,,,,,,,,,,,,,,,,,,,,,,,,,,,,,,,,,,,,,,,,,,,,,,,,,,
,,,,,,,,,628d14b52b5bd1d83ed1f7d2,Puerto Rican,13 or older,"no, only English or Spanish",yes,2025-07-23_05h26.28.908,empathy_intonation_perc,2024.2.4,Win32,60.24096386,628d14b52b5bd1d83ed1f7d2,687ed1b7e638a4cbf2f02089,6880aa736ea8bf4d9a5302d3,,,,,,,,,,,,,64,0,,./stim/wavs/puertorican_match_declarative-broad-focus_Daniel-iba-a-Bolivia.wav,,,,,,,,,,,,,,,,,,,,,,344.9245,349.1059,0,1,3.6392,,0,38,38,63,1,0,puertorican,,,,,,,,,,,,,,,,,,,,,,,,,,,,,,,,,,,,,,,,,,,,,,,,,,,,,,,,
,,,,,,,,,628d14b52b5bd1d83ed1f7d2,Puerto Rican,13 or older,"no, only English or Spanish",yes,2025-07-23_05h26.28.908,empathy_intonation_perc,2024.2.4,Win32,60.24096386,628d14b52b5bd1d83ed1f7d2,687ed1b7e638a4cbf2f02089,6880aa736ea8bf4d9a5302d3,,,,,,,,,,,,,22,1,,./stim/wavs/puertorican_match_interrogative-total-yn_Emilio-ama-la-marcha.wav,,,,,,,,,,,,,,,,,,,,,,349.1074,351.9558,1,1,2.3167,,0,39,39,21,1,1,puertorican,,,,,,,,,,,,,,,,,,,,,,,,,,,,,,,,,,,,,,,,,,,,,,,,,,,,,,,,
,,,,,,,,,628d14b52b5bd1d83ed1f7d2,Puerto Rican,13 or older,"no, only English or Spanish",yes,2025-07-23_05h26.28.908,empathy_intonation_perc,2024.2.4,Win32,60.24096386,628d14b52b5bd1d83ed1f7d2,687ed1b7e638a4cbf2f02089,6880aa736ea8bf4d9a5302d3,,,,,,,,,,,,,62,0,,./stim/wavs/mexican_match_declarative-broad-focus_Marta-abre-el-regalo.wav,,,,,,,,,,,,,,,,,,,,,,351.9568,355.1888,0,1,2.6889,,0,40,40,61,1,0,mexican,,,,,,,,,,,,,,,,,,,,,,,,,,,,,,,,,,,,,,,,,,,,,,,,,,,,,,,,
,,,,,,,,,628d14b52b5bd1d83ed1f7d2,Puerto Rican,13 or older,"no, only English or Spanish",yes,2025-07-23_05h26.28.908,empathy_intonation_perc,2024.2.4,Win32,60.24096386,628d14b52b5bd1d83ed1f7d2,687ed1b7e638a4cbf2f02089,6880aa736ea8bf4d9a5302d3,,,,,,,,,,,,,48,0,,./stim/wavs/castilian_match_declarative-broad-focus_Maria-bebe-el-vino.wav,,,,,,,,,,,,,,,,,,,,,,355.1903,358.2886,0,1,2.5735,,0,41,41,47,1,0,castilian,,,,,,,,,,,,,,,,,,,,,,,,,,,,,,,,,,,,,,,,,,,,,,,,,,,,,,,,
,,,,,,,,,628d14b52b5bd1d83ed1f7d2,Puerto Rican,13 or older,"no, only English or Spanish",yes,2025-07-23_05h26.28.908,empathy_intonation_perc,2024.2.4,Win32,60.24096386,628d14b52b5bd1d83ed1f7d2,687ed1b7e638a4cbf2f02089,6880aa736ea8bf4d9a5302d3,,,,,,,,,,,,,41,1,,./stim/wavs/puertorican_mismatch_interrogative-total-yn_El-nino-oye-el-rio.wav,,,,,,,,,,,,,,,,,,,,,,358.2897,364.0051,0,0,5.1837,,0,42,42,40,1,1,puertorican,,,,,,,,,,,,,,,,,,,,,,,,,,,,,,,,,,,,,,,,,,,,,,,,,,,,,,,,
,,,,,,,,,628d14b52b5bd1d83ed1f7d2,Puerto Rican,13 or older,"no, only English or Spanish",yes,2025-07-23_05h26.28.908,empathy_intonation_perc,2024.2.4,Win32,60.24096386,628d14b52b5bd1d83ed1f7d2,687ed1b7e638a4cbf2f02089,6880aa736ea8bf4d9a5302d3,,,,,,,,,,,,,67,0,,./stim/wavs/puertorican_match_declarative-broad-focus_Manuela-vende-el-carro.wav,,,,,,,,,,,,,,,,,,,,,,364.0062,367.6385,0,1,3.1082,,0,43,43,66,1,0,puertorican,,,,,,,,,,,,,,,,,,,,,,,,,,,,,,,,,,,,,,,,,,,,,,,,,,,,,,,,
,,,,,,,,,628d14b52b5bd1d83ed1f7d2,Puerto Rican,13 or older,"no, only English or Spanish",yes,2025-07-23_05h26.28.908,empathy_intonation_perc,2024.2.4,Win32,60.24096386,628d14b52b5bd1d83ed1f7d2,687ed1b7e638a4cbf2f02089,6880aa736ea8bf4d9a5302d3,,,,,,,,,,,,,26,1,,./stim/wavs/castilian_mismatch_interrogative-total-yn_La-nina-lava-el-plato.wav,,,,,,,,,,,,,,,,,,,,,,367.6397,370.454,1,1,2.2939,,0,44,44,25,1,0,castilian,,,,,,,,,,,,,,,,,,,,,,,,,,,,,,,,,,,,,,,,,,,,,,,,,,,,,,,,
,,,,,,,,,628d14b52b5bd1d83ed1f7d2,Puerto Rican,13 or older,"no, only English or Spanish",yes,2025-07-23_05h26.28.908,empathy_intonation_perc,2024.2.4,Win32,60.24096386,628d14b52b5bd1d83ed1f7d2,687ed1b7e638a4cbf2f02089,6880aa736ea8bf4d9a5302d3,,,,,,,,,,,,,85,0,,./stim/wavs/puertorican_mismatch_declarative-broad-focus_El-hombre-mira-la-luna.wav,,,,,,,,,,,,,,,,,,,,,,370.4552,372.9711,0,1,1.9936,,0,45,45,84,1,0,puertorican,,,,,,,,,,,,,,,,,,,,,,,,,,,,,,,,,,,,,,,,,,,,,,,,,,,,,,,,
,,,,,,,,,628d14b52b5bd1d83ed1f7d2,Puerto Rican,13 or older,"no, only English or Spanish",yes,2025-07-23_05h26.28.908,empathy_intonation_perc,2024.2.4,Win32,60.24096386,628d14b52b5bd1d83ed1f7d2,687ed1b7e638a4cbf2f02089,6880aa736ea8bf4d9a5302d3,,,,,,,,,,,,,7,1,,./stim/wavs/cuban_match_interrogative-total-yn_Ana-lleva-el-abrigo.wav,,,,,,,,,,,,,,,,,,,,,,372.9724,376.1543,0,0,2.659,,0,46,46,6,1,1,cuban,,,,,,,,,,,,,,,,,,,,,,,,,,,,,,,,,,,,,,,,,,,,,,,,,,,,,,,,
,,,,,,,,,628d14b52b5bd1d83ed1f7d2,Puerto Rican,13 or older,"no, only English or Spanish",yes,2025-07-23_05h26.28.908,empathy_intonation_perc,2024.2.4,Win32,60.24096386,628d14b52b5bd1d83ed1f7d2,687ed1b7e638a4cbf2f02089,6880aa736ea8bf4d9a5302d3,,,,,,,,,,,,,51,0,,./stim/wavs/cuban_match_declarative-broad-focus_Ana-lleva-el-abrigo.wav,,,,,,,,,,,,,,,,,,,,,,376.1555,378.2872,0,1,1.602,,0,47,47,50,1,0,cuban,,,,,,,,,,,,,,,,,,,,,,,,,,,,,,,,,,,,,,,,,,,,,,,,,,,,,,,,
,,,,,,,,,628d14b52b5bd1d83ed1f7d2,Puerto Rican,13 or older,"no, only English or Spanish",yes,2025-07-23_05h26.28.908,empathy_intonation_perc,2024.2.4,Win32,60.24096386,628d14b52b5bd1d83ed1f7d2,687ed1b7e638a4cbf2f02089,6880aa736ea8bf4d9a5302d3,,,,,,,,,,,,,19,1,,./stim/wavs/puertorican_match_interrogative-total-yn_Ana-lleva-el-abrigo.wav,,,,,,,,,,,,,,,,,,,,,,378.2884,380.4541,1,1,1.6418,,0,48,48,18,1,1,puertorican,,,,,,,,,,,,,,,,,,,,,,,,,,,,,,,,,,,,,,,,,,,,,,,,,,,,,,,,
,,,,,,,,,628d14b52b5bd1d83ed1f7d2,Puerto Rican,13 or older,"no, only English or Spanish",yes,2025-07-23_05h26.28.908,empathy_intonation_perc,2024.2.4,Win32,60.24096386,628d14b52b5bd1d83ed1f7d2,687ed1b7e638a4cbf2f02089,6880aa736ea8bf4d9a5302d3,,,,,,,,,,,,,38,1,,./stim/wavs/mexican_mismatch_interrogative-total-yn_Mi-novio-viene-del-lago.wav,,,,,,,,,,,,,,,,,,,,,,380.455,382.6899,1,1,1.7154,,0,49,49,37,1,0,mexican,,,,,,,,,,,,,,,,,,,,,,,,,,,,,,,,,,,,,,,,,,,,,,,,,,,,,,,,
,,,,,,,,,628d14b52b5bd1d83ed1f7d2,Puerto Rican,13 or older,"no, only English or Spanish",yes,2025-07-23_05h26.28.908,empathy_intonation_perc,2024.2.4,Win32,60.24096386,628d14b52b5bd1d83ed1f7d2,687ed1b7e638a4cbf2f02089,6880aa736ea8bf4d9a5302d3,,,,,,,,,,,,,30,1,,./stim/wavs/cuban_mismatch_interrogative-total-yn_El-hombre-mira-la-luna.wav,,,,,,,,,,,,,,,,,,,,,,382.6906,385.0535,1,1,1.8444,,0,50,50,29,1,1,cuban,,,,,,,,,,,,,,,,,,,,,,,,,,,,,,,,,,,,,,,,,,,,,,,,,,,,,,,,
,,,,,,,,,628d14b52b5bd1d83ed1f7d2,Puerto Rican,13 or older,"no, only English or Spanish",yes,2025-07-23_05h26.28.908,empathy_intonation_perc,2024.2.4,Win32,60.24096386,628d14b52b5bd1d83ed1f7d2,687ed1b7e638a4cbf2f02089,6880aa736ea8bf4d9a5302d3,,,,,,,,,,,,,2,1,,./stim/wavs/castilian_match_interrogative-total-yn_Emilio-ama-la-marcha.wav,,,,,,,,,,,,,,,,,,,,,,385.055,387.4373,1,1,1.8502,,0,51,51,1,1,0,castilian,,,,,,,,,,,,,,,,,,,,,,,,,,,,,,,,,,,,,,,,,,,,,,,,,,,,,,,,
,,,,,,,,,628d14b52b5bd1d83ed1f7d2,Puerto Rican,13 or older,"no, only English or Spanish",yes,2025-07-23_05h26.28.908,empathy_intonation_perc,2024.2.4,Win32,60.24096386,628d14b52b5bd1d83ed1f7d2,687ed1b7e638a4cbf2f02089,6880aa736ea8bf4d9a5302d3,,,,,,,,,,,,,18,1,,./stim/wavs/mexican_match_interrogative-total-yn_Marta-abre-el-regalo.wav,,,,,,,,,,,,,,,,,,,,,,387.4384,389.5873,1,1,1.6171,,0,52,52,17,1,0,mexican,,,,,,,,,,,,,,,,,,,,,,,,,,,,,,,,,,,,,,,,,,,,,,,,,,,,,,,,
,,,,,,,,,628d14b52b5bd1d83ed1f7d2,Puerto Rican,13 or older,"no, only English or Spanish",yes,2025-07-23_05h26.28.908,empathy_intonation_perc,2024.2.4,Win32,60.24096386,628d14b52b5bd1d83ed1f7d2,687ed1b7e638a4cbf2f02089,6880aa736ea8bf4d9a5302d3,,,,,,,,,,,,,68,0,,./stim/wavs/puertorican_match_declarative-broad-focus_Maria-bebe-el-vino.wav,,,,,,,,,,,,,,,,,,,,,,389.588,392.3201,1,0,2.2002,,0,53,53,67,1,0,puertorican,,,,,,,,,,,,,,,,,,,,,,,,,,,,,,,,,,,,,,,,,,,,,,,,,,,,,,,,
,,,,,,,,,628d14b52b5bd1d83ed1f7d2,Puerto Rican,13 or older,"no, only English or Spanish",yes,2025-07-23_05h26.28.908,empathy_intonation_perc,2024.2.4,Win32,60.24096386,628d14b52b5bd1d83ed1f7d2,687ed1b7e638a4cbf2f02089,6880aa736ea8bf4d9a5302d3,,,,,,,,,,,,,35,1,,./stim/wavs/mexican_mismatch_interrogative-total-yn_El-hombre-mira-la-luna.wav,,,,,,,,,,,,,,,,,,,,,,392.321,394.4368,1,1,1.5887,,0,54,54,34,1,0,mexican,,,,,,,,,,,,,,,,,,,,,,,,,,,,,,,,,,,,,,,,,,,,,,,,,,,,,,,,
,,,,,,,,,628d14b52b5bd1d83ed1f7d2,Puerto Rican,13 or older,"no, only English or Spanish",yes,2025-07-23_05h26.28.908,empathy_intonation_perc,2024.2.4,Win32,60.24096386,628d14b52b5bd1d83ed1f7d2,687ed1b7e638a4cbf2f02089,6880aa736ea8bf4d9a5302d3,,,,,,,,,,,,,63,0,,./stim/wavs/puertorican_match_declarative-broad-focus_Ana-lleva-el-abrigo.wav,,,,,,,,,,,,,,,,,,,,,,394.438,396.5199,0,1,1.5685,,0,55,55,62,1,0,puertorican,,,,,,,,,,,,,,,,,,,,,,,,,,,,,,,,,,,,,,,,,,,,,,,,,,,,,,,,
,,,,,,,,,628d14b52b5bd1d83ed1f7d2,Puerto Rican,13 or older,"no, only English or Spanish",yes,2025-07-23_05h26.28.908,empathy_intonation_perc,2024.2.4,Win32,60.24096386,628d14b52b5bd1d83ed1f7d2,687ed1b7e638a4cbf2f02089,6880aa736ea8bf4d9a5302d3,,,,,,,,,,,,,24,1,,./stim/wavs/puertorican_match_interrogative-total-yn_Maria-bebe-el-vino.wav,,,,,,,,,,,,,,,,,,,,,,396.5208,398.3899,1,1,1.3485,,0,56,56,23,1,1,puertorican,,,,,,,,,,,,,,,,,,,,,,,,,,,,,,,,,,,,,,,,,,,,,,,,,,,,,,,,
,,,,,,,,,628d14b52b5bd1d83ed1f7d2,Puerto Rican,13 or older,"no, only English or Spanish",yes,2025-07-23_05h26.28.908,empathy_intonation_perc,2024.2.4,Win32,60.24096386,628d14b52b5bd1d83ed1f7d2,687ed1b7e638a4cbf2f02089,6880aa736ea8bf4d9a5302d3,,,,,,,,,,,,,82,0,,./stim/wavs/mexican_mismatch_declarative-broad-focus_Mi-novio-viene-del-lago.wav,,,,,,,,,,,,,,,,,,,,,,398.3905,403.6522,0,1,4.7333,,0,57,57,81,1,0,mexican,,,,,,,,,,,,,,,,,,,,,,,,,,,,,,,,,,,,,,,,,,,,,,,,,,,,,,,,
,,,,,,,,,628d14b52b5bd1d83ed1f7d2,Puerto Rican,13 or older,"no, only English or Spanish",yes,2025-07-23_05h26.28.908,empathy_intonation_perc,2024.2.4,Win32,60.24096386,628d14b52b5bd1d83ed1f7d2,687ed1b7e638a4cbf2f02089,6880aa736ea8bf4d9a5302d3,,,,,,,,,,,,,32,1,,./stim/wavs/cuban_mismatch_interrogative-total-yn_Mi-madre-come-la-fruta.wav,,,,,,,,,,,,,,,,,,,,,,403.6535,405.986,1,1,1.8015,,0,58,58,31,1,1,cuban,,,,,,,,,,,,,,,,,,,,,,,,,,,,,,,,,,,,,,,,,,,,,,,,,,,,,,,,
,,,,,,,,,628d14b52b5bd1d83ed1f7d2,Puerto Rican,13 or older,"no, only English or Spanish",yes,2025-07-23_05h26.28.908,empathy_intonation_perc,2024.2.4,Win32,60.24096386,628d14b52b5bd1d83ed1f7d2,687ed1b7e638a4cbf2f02089,6880aa736ea8bf4d9a5302d3,,,,,,,,,,,,,50,0,,./stim/wavs/castilian_match_declarative-broad-focus_Marta-abre-el-regalo.wav,,,,,,,,,,,,,,,,,,,,,,405.9872,408.2856,0,1,1.7728,,0,59,59,49,1,0,castilian,,,,,,,,,,,,,,,,,,,,,,,,,,,,,,,,,,,,,,,,,,,,,,,,,,,,,,,,
,,,,,,,,,628d14b52b5bd1d83ed1f7d2,Puerto Rican,13 or older,"no, only English or Spanish",yes,2025-07-23_05h26.28.908,empathy_intonation_perc,2024.2.4,Win32,60.24096386,628d14b52b5bd1d83ed1f7d2,687ed1b7e638a4cbf2f02089,6880aa736ea8bf4d9a5302d3,,,,,,,,,,,,,61,0,,./stim/wavs/mexican_match_declarative-broad-focus_Mariano-habla-del-tiempo.wav,,,,,,,,,,,,,,,,,,,,,,408.2866,410.4688,0,1,1.651,,0,60,60,60,1,0,mexican,,,,,,,,,,,,,,,,,,,,,,,,,,,,,,,,,,,,,,,,,,,,,,,,,,,,,,,,
,,,,,,,,,628d14b52b5bd1d83ed1f7d2,Puerto Rican,13 or older,"no, only English or Spanish",yes,2025-07-23_05h26.28.908,empathy_intonation_perc,2024.2.4,Win32,60.24096386,628d14b52b5bd1d83ed1f7d2,687ed1b7e638a4cbf2f02089,6880aa736ea8bf4d9a5302d3,,,,,,,,,,,,,78,0,,./stim/wavs/cuban_mismatch_declarative-broad-focus_Mi-tia-odia-la-lluvia.wav,,,,,,,,,,,,,,,,,,,,,,410.4701,414.4193,0,1,3.4203,,0,61,61,77,1,0,cuban,,,,,,,,,,,,,,,,,,,,,,,,,,,,,,,,,,,,,,,,,,,,,,,,,,,,,,,,
,,,,,,,,,628d14b52b5bd1d83ed1f7d2,Puerto Rican,13 or older,"no, only English or Spanish",yes,2025-07-23_05h26.28.908,empathy_intonation_perc,2024.2.4,Win32,60.24096386,628d14b52b5bd1d83ed1f7d2,687ed1b7e638a4cbf2f02089,6880aa736ea8bf4d9a5302d3,,,,,,,,,,,,,58,0,,./stim/wavs/mexican_match_declarative-broad-focus_Daniel-iba-a-Bolivia.wav,,,,,,,,,,,,,,,,,,,,,,414.4203,416.4515,0,1,1.5086,,0,62,62,57,1,0,mexican,,,,,,,,,,,,,,,,,,,,,,,,,,,,,,,,,,,,,,,,,,,,,,,,,,,,,,,,
,,,,,,,,,628d14b52b5bd1d83ed1f7d2,Puerto Rican,13 or older,"no, only English or Spanish",yes,2025-07-23_05h26.28.908,empathy_intonation_perc,2024.2.4,Win32,60.24096386,628d14b52b5bd1d83ed1f7d2,687ed1b7e638a4cbf2f02089,6880aa736ea8bf4d9a5302d3,,,,,,,,,,,,,29,1,,./stim/wavs/castilian_mismatch_interrogative-total-yn_Mi-tia-odia-la-lluvia.wav,,,,,,,,,,,,,,,,,,,,,,416.453,418.7353,1,1,1.7549,,0,63,63,28,1,0,castilian,,,,,,,,,,,,,,,,,,,,,,,,,,,,,,,,,,,,,,,,,,,,,,,,,,,,,,,,
,,,,,,,,,628d14b52b5bd1d83ed1f7d2,Puerto Rican,13 or older,"no, only English or Spanish",yes,2025-07-23_05h26.28.908,empathy_intonation_perc,2024.2.4,Win32,60.24096386,628d14b52b5bd1d83ed1f7d2,687ed1b7e638a4cbf2f02089,6880aa736ea8bf4d9a5302d3,,,,,,,,,,,,,13,1,,./stim/wavs/mexican_match_interrogative-total-yn_Ana-lleva-el-abrigo.wav,,,,,,,,,,,,,,,,,,,,,,418.7364,420.785,1,1,1.5218,,0,64,64,12,1,0,mexican,,,,,,,,,,,,,,,,,,,,,,,,,,,,,,,,,,,,,,,,,,,,,,,,,,,,,,,,
,,,,,,,,,628d14b52b5bd1d83ed1f7d2,Puerto Rican,13 or older,"no, only English or Spanish",yes,2025-07-23_05h26.28.908,empathy_intonation_perc,2024.2.4,Win32,60.24096386,628d14b52b5bd1d83ed1f7d2,687ed1b7e638a4cbf2f02089,6880aa736ea8bf4d9a5302d3,,,,,,,,,,,,,25,1,,./stim/wavs/castilian_mismatch_interrogative-total-yn_La-maestra-vive-en-Paris.wav,,,,,,,,,,,,,,,,,,,,,,420.7862,423.4513,1,1,2.1384,,0,65,65,24,1,0,castilian,,,,,,,,,,,,,,,,,,,,,,,,,,,,,,,,,,,,,,,,,,,,,,,,,,,,,,,,
,,,,,,,,,628d14b52b5bd1d83ed1f7d2,Puerto Rican,13 or older,"no, only English or Spanish",yes,2025-07-23_05h26.28.908,empathy_intonation_perc,2024.2.4,Win32,60.24096386,628d14b52b5bd1d83ed1f7d2,687ed1b7e638a4cbf2f02089,6880aa736ea8bf4d9a5302d3,,,,,,,,,,,,,57,0,,./stim/wavs/mexican_match_declarative-broad-focus_Ana-lleva-el-abrigo.wav,,,,,,,,,,,,,,,,,,,,,,423.4526,425.3182,0,1,1.326,,0,66,66,56,1,0,mexican,,,,,,,,,,,,,,,,,,,,,,,,,,,,,,,,,,,,,,,,,,,,,,,,,,,,,,,,
,,,,,,,,,628d14b52b5bd1d83ed1f7d2,Puerto Rican,13 or older,"no, only English or Spanish",yes,2025-07-23_05h26.28.908,empathy_intonation_perc,2024.2.4,Win32,60.24096386,628d14b52b5bd1d83ed1f7d2,687ed1b7e638a4cbf2f02089,6880aa736ea8bf4d9a5302d3,,,,,,,,,,,,,43,1,,./stim/wavs/puertorican_mismatch_interrogative-total-yn_La-nina-lava-el-plato.wav,,,,,,,,,,,,,,,,,,,,,,425.3194,427.6509,1,1,1.8074,,0,67,67,42,1,1,puertorican,,,,,,,,,,,,,,,,,,,,,,,,,,,,,,,,,,,,,,,,,,,,,,,,,,,,,,,,
,,,,,,,,,628d14b52b5bd1d83ed1f7d2,Puerto Rican,13 or older,"no, only English or Spanish",yes,2025-07-23_05h26.28.908,empathy_intonation_perc,2024.2.4,Win32,60.24096386,628d14b52b5bd1d83ed1f7d2,687ed1b7e638a4cbf2f02089,6880aa736ea8bf4d9a5302d3,,,,,,,,,,,,,45,0,,./stim/wavs/castilian_match_declarative-broad-focus_David-leia-el-libro.wav,,,,,,,,,,,,,,,,,,,,,,427.6522,430.3842,0,1,2.1997,,0,68,68,44,1,0,castilian,,,,,,,,,,,,,,,,,,,,,,,,,,,,,,,,,,,,,,,,,,,,,,,,,,,,,,,,
,,,,,,,,,628d14b52b5bd1d83ed1f7d2,Puerto Rican,13 or older,"no, only English or Spanish",yes,2025-07-23_05h26.28.908,empathy_intonation_perc,2024.2.4,Win32,60.24096386,628d14b52b5bd1d83ed1f7d2,687ed1b7e638a4cbf2f02089,6880aa736ea8bf4d9a5302d3,,,,,,,,,,,,,52,0,,./stim/wavs/cuban_match_declarative-broad-focus_Daniel-iba-a-Bolivia.wav,,,,,,,,,,,,,,,,,,,,,,430.3855,433.6174,0,1,2.7005,,0,69,69,51,1,0,cuban,,,,,,,,,,,,,,,,,,,,,,,,,,,,,,,,,,,,,,,,,,,,,,,,,,,,,,,,
,,,,,,,,,628d14b52b5bd1d83ed1f7d2,Puerto Rican,13 or older,"no, only English or Spanish",yes,2025-07-23_05h26.28.908,empathy_intonation_perc,2024.2.4,Win32,60.24096386,628d14b52b5bd1d83ed1f7d2,687ed1b7e638a4cbf2f02089,6880aa736ea8bf4d9a5302d3,,,,,,,,,,,,,10,1,,./stim/wavs/cuban_match_interrogative-total-yn_Maria-bebe-el-vino.wav,,,,,,,,,,,,,,,,,,,,,,433.6186,435.8672,0,0,1.7172,,0,70,70,9,1,1,cuban,,,,,,,,,,,,,,,,,,,,,,,,,,,,,,,,,,,,,,,,,,,,,,,,,,,,,,,,
,,,,,,,,,628d14b52b5bd1d83ed1f7d2,Puerto Rican,13 or older,"no, only English or Spanish",yes,2025-07-23_05h26.28.908,empathy_intonation_perc,2024.2.4,Win32,60.24096386,628d14b52b5bd1d83ed1f7d2,687ed1b7e638a4cbf2f02089,6880aa736ea8bf4d9a5302d3,,,,,,,,,,,,,66,0,,./stim/wavs/puertorican_match_declarative-broad-focus_Emilio-ama-la-marcha.wav,,,,,,,,,,,,,,,,,,,,,,435.8683,437.9338,0,1,1.5334,,0,71,71,65,1,0,puertorican,,,,,,,,,,,,,,,,,,,,,,,,,,,,,,,,,,,,,,,,,,,,,,,,,,,,,,,,
,,,,,,,,,628d14b52b5bd1d83ed1f7d2,Puerto Rican,13 or older,"no, only English or Spanish",yes,2025-07-23_05h26.28.908,empathy_intonation_perc,2024.2.4,Win32,60.24096386,628d14b52b5bd1d83ed1f7d2,687ed1b7e638a4cbf2f02089,6880aa736ea8bf4d9a5302d3,,,,,,,,,,,,,60,0,,./stim/wavs/mexican_match_declarative-broad-focus_Emilio-ama-la-marcha.wav,,,,,,,,,,,,,,,,,,,,,,437.9354,440.0507,0,1,1.5892,,0,72,72,59,1,0,mexican,,,,,,,,,,,,,,,,,,,,,,,,,,,,,,,,,,,,,,,,,,,,,,,,,,,,,,,,
,,,,,,,,,628d14b52b5bd1d83ed1f7d2,Puerto Rican,13 or older,"no, only English or Spanish",yes,2025-07-23_05h26.28.908,empathy_intonation_perc,2024.2.4,Win32,60.24096386,628d14b52b5bd1d83ed1f7d2,687ed1b7e638a4cbf2f02089,6880aa736ea8bf4d9a5302d3,,,,,,,,,,,,,34,1,,./stim/wavs/cuban_mismatch_interrogative-total-yn_Mi-tia-odia-la-lluvia.wav,,,,,,,,,,,,,,,,,,,,,,440.0518,444.9665,0,0,4.394,,0,73,73,33,1,1,cuban,,,,,,,,,,,,,,,,,,,,,,,,,,,,,,,,,,,,,,,,,,,,,,,,,,,,,,,,
,,,,,,,,,628d14b52b5bd1d83ed1f7d2,Puerto Rican,13 or older,"no, only English or Spanish",yes,2025-07-23_05h26.28.908,empathy_intonation_perc,2024.2.4,Win32,60.24096386,628d14b52b5bd1d83ed1f7d2,687ed1b7e638a4cbf2f02089,6880aa736ea8bf4d9a5302d3,,,,,,,,,,,,,79,0,,./stim/wavs/mexican_mismatch_declarative-broad-focus_El-bebe-comia-muy-bien.wav,,,,,,,,,,,,,,,,,,,,,,444.9677,447.3334,0,1,1.8409,,0,74,74,78,1,0,mexican,,,,,,,,,,,,,,,,,,,,,,,,,,,,,,,,,,,,,,,,,,,,,,,,,,,,,,,,
,,,,,,,,,628d14b52b5bd1d83ed1f7d2,Puerto Rican,13 or older,"no, only English or Spanish",yes,2025-07-23_05h26.28.908,empathy_intonation_perc,2024.2.4,Win32,60.24096386,628d14b52b5bd1d83ed1f7d2,687ed1b7e638a4cbf2f02089,6880aa736ea8bf4d9a5302d3,,,,,,,,,,,,,88,0,,./stim/wavs/puertorican_mismatch_declarative-broad-focus_La-nina-lava-el-plato.wav,,,,,,,,,,,,,,,,,,,,,,447.3346,450.7494,0,1,2.8851,,0,75,75,87,1,0,puertorican,,,,,,,,,,,,,,,,,,,,,,,,,,,,,,,,,,,,,,,,,,,,,,,,,,,,,,,,
,,,,,,,,,628d14b52b5bd1d83ed1f7d2,Puerto Rican,13 or older,"no, only English or Spanish",yes,2025-07-23_05h26.28.908,empathy_intonation_perc,2024.2.4,Win32,60.24096386,628d14b52b5bd1d83ed1f7d2,687ed1b7e638a4cbf2f02089,6880aa736ea8bf4d9a5302d3,,,,,,,,,,,,,8,1,,./stim/wavs/cuban_match_interrogative-total-yn_Daniel-iba-a-Bolivia.wav,,,,,,,,,,,,,,,,,,,,,,450.751,452.9201,1,1,1.6481,,0,76,76,7,1,1,cuban,,,,,,,,,,,,,,,,,,,,,,,,,,,,,,,,,,,,,,,,,,,,,,,,,,,,,,,,
,,,,,,,,,628d14b52b5bd1d83ed1f7d2,Puerto Rican,13 or older,"no, only English or Spanish",yes,2025-07-23_05h26.28.908,empathy_intonation_perc,2024.2.4,Win32,60.24096386,628d14b52b5bd1d83ed1f7d2,687ed1b7e638a4cbf2f02089,6880aa736ea8bf4d9a5302d3,,,,,,,,,,,,,28,1,,./stim/wavs/castilian_mismatch_interrogative-total-yn_Mi-novio-viene-del-lago.wav,,,,,,,,,,,,,,,,,,,,,,452.9207,455.2993,1,1,1.85,,0,77,77,27,1,0,castilian,,,,,,,,,,,,,,,,,,,,,,,,,,,,,,,,,,,,,,,,,,,,,,,,,,,,,,,,
,,,,,,,,,628d14b52b5bd1d83ed1f7d2,Puerto Rican,13 or older,"no, only English or Spanish",yes,2025-07-23_05h26.28.908,empathy_intonation_perc,2024.2.4,Win32,60.24096386,628d14b52b5bd1d83ed1f7d2,687ed1b7e638a4cbf2f02089,6880aa736ea8bf4d9a5302d3,,,,,,,,,,,,,46,0,,./stim/wavs/castilian_match_declarative-broad-focus_Emilio-ama-la-marcha.wav,,,,,,,,,,,,,,,,,,,,,,455.3004,457.9822,0,1,2.1505,,0,78,78,45,1,0,castilian,,,,,,,,,,,,,,,,,,,,,,,,,,,,,,,,,,,,,,,,,,,,,,,,,,,,,,,,
,,,,,,,,,628d14b52b5bd1d83ed1f7d2,Puerto Rican,13 or older,"no, only English or Spanish",yes,2025-07-23_05h26.28.908,empathy_intonation_perc,2024.2.4,Win32,60.24096386,628d14b52b5bd1d83ed1f7d2,687ed1b7e638a4cbf2f02089,6880aa736ea8bf4d9a5302d3,,,,,,,,,,,,,74,0,,./stim/wavs/cuban_mismatch_declarative-broad-focus_El-bebe-comia-muy-bien.wav,,,,,,,,,,,,,,,,,,,,,,457.9834,459.9657,0,1,1.4504,,0,79,79,73,1,0,cuban,,,,,,,,,,,,,,,,,,,,,,,,,,,,,,,,,,,,,,,,,,,,,,,,,,,,,,,,
,,,,,,,,,628d14b52b5bd1d83ed1f7d2,Puerto Rican,13 or older,"no, only English or Spanish",yes,2025-07-23_05h26.28.908,empathy_intonation_perc,2024.2.4,Win32,60.24096386,628d14b52b5bd1d83ed1f7d2,687ed1b7e638a4cbf2f02089,6880aa736ea8bf4d9a5302d3,,,,,,,,,,,,,86,0,,./stim/wavs/puertorican_mismatch_declarative-broad-focus_El-nino-oye-el-rio.wav,,,,,,,,,,,,,,,,,,,,,,459.9666,461.9996,0,1,1.518,,0,80,80,85,1,0,puertorican,,,,,,,,,,,,,,,,,,,,,,,,,,,,,,,,,,,,,,,,,,,,,,,,,,,,,,,,
,,,,,,,,,628d14b52b5bd1d83ed1f7d2,Puerto Rican,13 or older,"no, only English or Spanish",yes,2025-07-23_05h26.28.908,empathy_intonation_perc,2024.2.4,Win32,60.24096386,628d14b52b5bd1d83ed1f7d2,687ed1b7e638a4cbf2f02089,6880aa736ea8bf4d9a5302d3,,,,,,,,,,,,,55,0,,./stim/wavs/cuban_match_declarative-broad-focus_Mariano-habla-del-tiempo.wav,,,,,,,,,,,,,,,,,,,,,,462.0007,465.9495,0,1,3.4216,,0,81,81,54,1,0,cuban,,,,,,,,,,,,,,,,,,,,,,,,,,,,,,,,,,,,,,,,,,,,,,,,,,,,,,,,
,,,,,,,,,628d14b52b5bd1d83ed1f7d2,Puerto Rican,13 or older,"no, only English or Spanish",yes,2025-07-23_05h26.28.908,empathy_intonation_perc,2024.2.4,Win32,60.24096386,628d14b52b5bd1d83ed1f7d2,687ed1b7e638a4cbf2f02089,6880aa736ea8bf4d9a5302d3,,,,,,,,,,,,,12,1,,./stim/wavs/cuban_match_interrogative-total-yn_Marta-abre-el-regalo.wav,,,,,,,,,,,,,,,,,,,,,,465.9506,468.2482,1,1,1.775,,0,82,82,11,1,1,cuban,,,,,,,,,,,,,,,,,,,,,,,,,,,,,,,,,,,,,,,,,,,,,,,,,,,,,,,,
,,,,,,,,,628d14b52b5bd1d83ed1f7d2,Puerto Rican,13 or older,"no, only English or Spanish",yes,2025-07-23_05h26.28.908,empathy_intonation_perc,2024.2.4,Win32,60.24096386,628d14b52b5bd1d83ed1f7d2,687ed1b7e638a4cbf2f02089,6880aa736ea8bf4d9a5302d3,,,,,,,,,,,,,56,0,,./stim/wavs/cuban_match_declarative-broad-focus_Marta-abre-el-regalo.wav,,,,,,,,,,,,,,,,,,,,,,468.2498,470.448,0,1,1.6765,,0,83,83,55,1,0,cuban,,,,,,,,,,,,,,,,,,,,,,,,,,,,,,,,,,,,,,,,,,,,,,,,,,,,,,,,
,,,,,,,,,628d14b52b5bd1d83ed1f7d2,Puerto Rican,13 or older,"no, only English or Spanish",yes,2025-07-23_05h26.28.908,empathy_intonation_perc,2024.2.4,Win32,60.24096386,628d14b52b5bd1d83ed1f7d2,687ed1b7e638a4cbf2f02089,6880aa736ea8bf4d9a5302d3,,,,,,,,,,,,,70,0,,./stim/wavs/castilian_mismatch_declarative-broad-focus_La-maestra-vive-en-Paris.wav,,,,,,,,,,,,,,,,,,,,,,470.4496,472.8983,0,1,1.917,,0,84,84,69,1,0,castilian,,,,,,,,,,,,,,,,,,,,,,,,,,,,,,,,,,,,,,,,,,,,,,,,,,,,,,,,
,,,,,,,,,628d14b52b5bd1d83ed1f7d2,Puerto Rican,13 or older,"no, only English or Spanish",yes,2025-07-23_05h26.28.908,empathy_intonation_perc,2024.2.4,Win32,60.24096386,628d14b52b5bd1d83ed1f7d2,687ed1b7e638a4cbf2f02089,6880aa736ea8bf4d9a5302d3,,,,,,,,,,,,,49,0,,./stim/wavs/castilian_match_declarative-broad-focus_Mariano-habla-del-tiempo.wav,,,,,,,,,,,,,,,,,,,,,,472.8993,475.3148,0,1,1.8858,,0,85,85,48,1,0,castilian,,,,,,,,,,,,,,,,,,,,,,,,,,,,,,,,,,,,,,,,,,,,,,,,,,,,,,,,
,,,,,,,,,628d14b52b5bd1d83ed1f7d2,Puerto Rican,13 or older,"no, only English or Spanish",yes,2025-07-23_05h26.28.908,empathy_intonation_perc,2024.2.4,Win32,60.24096386,628d14b52b5bd1d83ed1f7d2,687ed1b7e638a4cbf2f02089,6880aa736ea8bf4d9a5302d3,,,,,,,,,,,,,77,0,,./stim/wavs/cuban_mismatch_declarative-broad-focus_Mi-novio-viene-del-lago.wav,,,,,,,,,,,,,,,,,,,,,,475.3158,477.418,0,1,1.5819,,0,86,86,76,1,0,cuban,,,,,,,,,,,,,,,,,,,,,,,,,,,,,,,,,,,,,,,,,,,,,,,,,,,,,,,,
,,,,,,,,,628d14b52b5bd1d83ed1f7d2,Puerto Rican,13 or older,"no, only English or Spanish",yes,2025-07-23_05h26.28.908,empathy_intonation_perc,2024.2.4,Win32,60.24096386,628d14b52b5bd1d83ed1f7d2,687ed1b7e638a4cbf2f02089,6880aa736ea8bf4d9a5302d3,,,,,,,,,,,,,5,1,,./stim/wavs/castilian_match_interrogative-total-yn_Mariano-habla-del-tiempo.wav,,,,,,,,,,,,,,,,,,,,,,477.4186,479.8482,1,1,1.9014,,0,87,87,4,1,0,castilian,,,,,,,,,,,,,,,,,,,,,,,,,,,,,,,,,,,,,,,,,,,,,,,,,,,,,,,,
,,,,,,,"Great! Now we will move on. The next task consists of about 60 trials, in each of which you will see a string of letters. 
  
  Your task is to decide whether this is a real Spanish word or not.", (press the spacebar to continue),628d14b52b5bd1d83ed1f7d2,Puerto Rican,13 or older,"no, only English or Spanish",yes,2025-07-23_05h26.28.908,empathy_intonation_perc,2024.2.4,Win32,60.24096386,628d14b52b5bd1d83ed1f7d2,687ed1b7e638a4cbf2f02089,6880aa736ea8bf4d9a5302d3,,,,,,,,,,,,,,,,,,,,,,,,,,,,,,,,,,,,,,,,,,,,,,,,,,,479.8583,484.4149,0,0,0,0,1,,,,,,,,,,,,,,,,,,,,,,,,,,,,,,,,,,,,,,,,,,,,,,,,,
,,,,,,,"If you think it is an existing Spanish word, you type '1' (for 'REAL'), and if you think it is not an existing Spanish word, you type '0' (for 'FAKE').", (press the spacebar to continue),628d14b52b5bd1d83ed1f7d2,Puerto Rican,13 or older,"no, only English or Spanish",yes,2025-07-23_05h26.28.908,empathy_intonation_perc,2024.2.4,Win32,60.24096386,628d14b52b5bd1d83ed1f7d2,687ed1b7e638a4cbf2f02089,6880aa736ea8bf4d9a5302d3,,,,,,,,,,,,,,,,,,,,,,,,,,,,,,,,,,,,,,,,,,,,,,,,,,,484.4177,486.7309,0,1,1,1,1,,,,,,,,,,,,,,,,,,,,,,,,,,,,,,,,,,,,,,,,,,,,,,,,,
,,,,,,,"If you are sure that the word exists, even though you don’t know its exact meaning, you may still respond '1' (REAL). 
  
  But if you are not sure if it is an existing word, you should respond '0' (FAKE).
  
  Let's do a practice round...", (press the spacebar to continue),628d14b52b5bd1d83ed1f7d2,Puerto Rican,13 or older,"no, only English or Spanish",yes,2025-07-23_05h26.28.908,empathy_intonation_perc,2024.2.4,Win32,60.24096386,628d14b52b5bd1d83ed1f7d2,687ed1b7e638a4cbf2f02089,6880aa736ea8bf4d9a5302d3,,,,,,,,,,,,,,,,,,,,,,,,,,,,,,,,,,,,,,,,,,,,,,,,,,,486.7339,493.4471,0,2,2,2,1,,,,,,,,,,,,,,,,,,,,,,,,,,,,,,,,,,,,,,,,,,,,,,,,,
,,,,,,,,,628d14b52b5bd1d83ed1f7d2,Puerto Rican,13 or older,"no, only English or Spanish",yes,2025-07-23_05h26.28.908,empathy_intonation_perc,2024.2.4,Win32,60.24096386,628d14b52b5bd1d83ed1f7d2,687ed1b7e638a4cbf2f02089,6880aa736ea8bf4d9a5302d3,,,,,,,,,,,,,,0,,,,,,,,,,,,,,,,,,,,,,,,,,,,,,,,,,,,,,,,,,,,493.4559,495.502,0,1,1.5169,,495.5022,496.4973,0,0,0,0,1,0,depiste,REAL,FAKE,,,,,,,,,,,,,,,,,,,,,,,,,,,,,,,,
,,,,,,,,,628d14b52b5bd1d83ed1f7d2,Puerto Rican,13 or older,"no, only English or Spanish",yes,2025-07-23_05h26.28.908,empathy_intonation_perc,2024.2.4,Win32,60.24096386,628d14b52b5bd1d83ed1f7d2,687ed1b7e638a4cbf2f02089,6880aa736ea8bf4d9a5302d3,,,,,,,,,,,,,,1,,,,,,,,,,,,,,,,,,,,,,,,,,,,,,,,,,,,,,,,,,,,496.4993,497.9132,1,1,0.8924,,497.9133,498.9135,0,1,1,1,1,0,sí,REAL,FAKE,,,,,,,,,,,,,,,,,,,,,,,,,,,,,,,,
,,,,,,,,,628d14b52b5bd1d83ed1f7d2,Puerto Rican,13 or older,"no, only English or Spanish",yes,2025-07-23_05h26.28.908,empathy_intonation_perc,2024.2.4,Win32,60.24096386,628d14b52b5bd1d83ed1f7d2,687ed1b7e638a4cbf2f02089,6880aa736ea8bf4d9a5302d3,,,,,,,,,,,,,,0,,,,,,,,,,,,,,,,,,,,,,,,,,,,,,,,,,,,,,,,,,,,498.9153,500.4798,0,1,1.0428,,500.48,501.4798,0,2,2,2,1,0,coné,REAL,FAKE,,,,,,,,,,,,,,,,,,,,,,,,,,,,,,,,
,,,,,,,,,628d14b52b5bd1d83ed1f7d2,Puerto Rican,13 or older,"no, only English or Spanish",yes,2025-07-23_05h26.28.908,empathy_intonation_perc,2024.2.4,Win32,60.24096386,628d14b52b5bd1d83ed1f7d2,687ed1b7e638a4cbf2f02089,6880aa736ea8bf4d9a5302d3,,,,,,,,,,,,,,0,,,,,,,,,,,,,,,,,,,,,,,,,,,,,,,,,,,,,,,,,,,,501.4811,502.8464,0,1,0.8168,,502.8466,503.8465,0,3,3,3,1,0,calpar,REAL,FAKE,,,,,,,,,,,,,,,,,,,,,,,,,,,,,,,,
,,,,,,,,,628d14b52b5bd1d83ed1f7d2,Puerto Rican,13 or older,"no, only English or Spanish",yes,2025-07-23_05h26.28.908,empathy_intonation_perc,2024.2.4,Win32,60.24096386,628d14b52b5bd1d83ed1f7d2,687ed1b7e638a4cbf2f02089,6880aa736ea8bf4d9a5302d3,,,,,,,,,,,,,,0,,,,,,,,,,,,,,,,,,,,,,,,,,,,,,,,,,,,,,,,,,,,503.8484,505.1629,0,1,0.7765,,505.1631,506.1627,0,4,4,4,1,0,joten,REAL,FAKE,,,,,,,,,,,,,,,,,,,,,,,,,,,,,,,,
,,,,,,,,,628d14b52b5bd1d83ed1f7d2,Puerto Rican,13 or older,"no, only English or Spanish",yes,2025-07-23_05h26.28.908,empathy_intonation_perc,2024.2.4,Win32,60.24096386,628d14b52b5bd1d83ed1f7d2,687ed1b7e638a4cbf2f02089,6880aa736ea8bf4d9a5302d3,,,,,,,,,,,,,,1,,,,,,,,,,,,,,,,,,,,,,,,,,,,,,,,,,,,,,,,,,,,506.1644,508.1127,1,1,1.4066,,508.1129,509.1125,0,5,5,5,1,0,sacapuntas,REAL,FAKE,,,,,,,,,,,,,,,,,,,,,,,,,,,,,,,,
,,,,,,,,,628d14b52b5bd1d83ed1f7d2,Puerto Rican,13 or older,"no, only English or Spanish",yes,2025-07-23_05h26.28.908,empathy_intonation_perc,2024.2.4,Win32,60.24096386,628d14b52b5bd1d83ed1f7d2,687ed1b7e638a4cbf2f02089,6880aa736ea8bf4d9a5302d3,,,,,,,,,,,,,,0,,,,,,,,,,,,,,,,,,,,,,,,,,,,,,,,,,,,,,,,,,,,509.1147,510.4126,0,1,0.7517,,510.4128,511.4129,0,6,6,6,1,0,priba,REAL,FAKE,,,,,,,,,,,,,,,,,,,,,,,,,,,,,,,,
,,,,,,,,,628d14b52b5bd1d83ed1f7d2,Puerto Rican,13 or older,"no, only English or Spanish",yes,2025-07-23_05h26.28.908,empathy_intonation_perc,2024.2.4,Win32,60.24096386,628d14b52b5bd1d83ed1f7d2,687ed1b7e638a4cbf2f02089,6880aa736ea8bf4d9a5302d3,,,,,,,,,,,,,,0,,,,,,,,,,,,,,,,,,,,,,,,,,,,,,,,,,,,,,,,,,,,511.4142,513.0121,0,1,1.0601,,513.0123,514.0126,0,7,7,7,1,0,pelasula,REAL,FAKE,,,,,,,,,,,,,,,,,,,,,,,,,,,,,,,,
,,,,,,,,,628d14b52b5bd1d83ed1f7d2,Puerto Rican,13 or older,"no, only English or Spanish",yes,2025-07-23_05h26.28.908,empathy_intonation_perc,2024.2.4,Win32,60.24096386,628d14b52b5bd1d83ed1f7d2,687ed1b7e638a4cbf2f02089,6880aa736ea8bf4d9a5302d3,,,,,,,,,,,,,,1,,,,,,,,,,,,,,,,,,,,,,,,,,,,,,,,,,,,,,,,,,,,514.0144,515.2953,1,1,0.7447,,515.2955,516.2961,0,8,8,8,1,0,bien,REAL,FAKE,,,,,,,,,,,,,,,,,,,,,,,,,,,,,,,,
,,,,,,,,,628d14b52b5bd1d83ed1f7d2,Puerto Rican,13 or older,"no, only English or Spanish",yes,2025-07-23_05h26.28.908,empathy_intonation_perc,2024.2.4,Win32,60.24096386,628d14b52b5bd1d83ed1f7d2,687ed1b7e638a4cbf2f02089,6880aa736ea8bf4d9a5302d3,,,,,,,,,,,,,,1,,,,,,,,,,,,,,,,,,,,,,,,,,,,,,,,,,,,,,,,,,,,516.2973,517.4318,1,1,0.5983,,517.4318,518.4287,0,9,9,9,1,0,casa,REAL,FAKE,,,,,,,,,,,,,,,,,,,,,,,,,,,,,,,,
,,,,,,,,,628d14b52b5bd1d83ed1f7d2,Puerto Rican,13 or older,"no, only English or Spanish",yes,2025-07-23_05h26.28.908,empathy_intonation_perc,2024.2.4,Win32,60.24096386,628d14b52b5bd1d83ed1f7d2,687ed1b7e638a4cbf2f02089,6880aa736ea8bf4d9a5302d3,,,,,,,,,,,,,,0,,,,,,,,,,,,,,,,,,,,,,,,,,,,,,,,,,,,,,,,,,,,518.4304,520.0293,1,0,1.0517,,520.031,521.0287,0,10,10,10,1,0,lejo,REAL,FAKE,,,,,,,,,,,,,,,,,,,,,,,,,,,,,,,,
,,,,,,,,,628d14b52b5bd1d83ed1f7d2,Puerto Rican,13 or older,"no, only English or Spanish",yes,2025-07-23_05h26.28.908,empathy_intonation_perc,2024.2.4,Win32,60.24096386,628d14b52b5bd1d83ed1f7d2,687ed1b7e638a4cbf2f02089,6880aa736ea8bf4d9a5302d3,,,,,,,,,,,,,,0,,,,,,,,,,,,,,,,,,,,,,,,,,,,,,,,,,,,,,,,,,,,521.0302,522.4991,0,1,0.933,,522.4999,523.495,0,11,11,11,1,0,pretantas,REAL,FAKE,,,,,,,,,,,,,,,,,,,,,,,,,,,,,,,,
,,,,,,,,,628d14b52b5bd1d83ed1f7d2,Puerto Rican,13 or older,"no, only English or Spanish",yes,2025-07-23_05h26.28.908,empathy_intonation_perc,2024.2.4,Win32,60.24096386,628d14b52b5bd1d83ed1f7d2,687ed1b7e638a4cbf2f02089,6880aa736ea8bf4d9a5302d3,,,,,,,,,,,,,,,,,,,,,,,,,,,,,,,,,,,,,,,,,,,,,,,,,,,,,,,,,,,,,,,,,,,,,,,,,,,523.4958,525.1629,,,,,,,,,,,,,,,,,,,,,,,,,,,,,,
,,,,,,,,,628d14b52b5bd1d83ed1f7d2,Puerto Rican,13 or older,"no, only English or Spanish",yes,2025-07-23_05h26.28.908,empathy_intonation_perc,2024.2.4,Win32,60.24096386,628d14b52b5bd1d83ed1f7d2,687ed1b7e638a4cbf2f02089,6880aa736ea8bf4d9a5302d3,,,,,,,,,,,,,,1,,,,,,,,,,,,,,,,,,,,,,,,,,,,,,,,,,,,,,,,,,,,,,,,,,,,,,,,,45,jilguero,,,,,525.1756,526.6292,0,0,0.9232,,0,0,0,44,1,REAL,FAKE,,,,,,,,,,,,,,,,,
,,,,,,,,,628d14b52b5bd1d83ed1f7d2,Puerto Rican,13 or older,"no, only English or Spanish",yes,2025-07-23_05h26.28.908,empathy_intonation_perc,2024.2.4,Win32,60.24096386,628d14b52b5bd1d83ed1f7d2,687ed1b7e638a4cbf2f02089,6880aa736ea8bf4d9a5302d3,,,,,,,,,,,,,,1,,,,,,,,,,,,,,,,,,,,,,,,,,,,,,,,,,,,,,,,,,,,,,,,,,,,,,,,,78,frondoso,,,,,526.6305,528.1473,0,0,0.9817,,0,1,1,77,1,REAL,FAKE,,,,,,,,,,,,,,,,,
,,,,,,,,,628d14b52b5bd1d83ed1f7d2,Puerto Rican,13 or older,"no, only English or Spanish",yes,2025-07-23_05h26.28.908,empathy_intonation_perc,2024.2.4,Win32,60.24096386,628d14b52b5bd1d83ed1f7d2,687ed1b7e638a4cbf2f02089,6880aa736ea8bf4d9a5302d3,,,,,,,,,,,,,,1,,,,,,,,,,,,,,,,,,,,,,,,,,,,,,,,,,,,,,,,,,,,,,,,,,,,,,,,,68,alegre,,,,,528.1487,530.3786,0,0,1.6904,,0,2,2,67,1,REAL,FAKE,,,,,,,,,,,,,,,,,
,,,,,,,,,628d14b52b5bd1d83ed1f7d2,Puerto Rican,13 or older,"no, only English or Spanish",yes,2025-07-23_05h26.28.908,empathy_intonation_perc,2024.2.4,Win32,60.24096386,628d14b52b5bd1d83ed1f7d2,687ed1b7e638a4cbf2f02089,6880aa736ea8bf4d9a5302d3,,,,,,,,,,,,,,1,,,,,,,,,,,,,,,,,,,,,,,,,,,,,,,,,,,,,,,,,,,,,,,,,,,,,,,,,91,click the 1 key.,,,,,530.3806,531.6952,1,1,0.767,,0,3,3,90,1,REAL,FAKE,,,,,,,,,,,,,,,,,
,,,,,,,,,628d14b52b5bd1d83ed1f7d2,Puerto Rican,13 or older,"no, only English or Spanish",yes,2025-07-23_05h26.28.908,empathy_intonation_perc,2024.2.4,Win32,60.24096386,628d14b52b5bd1d83ed1f7d2,687ed1b7e638a4cbf2f02089,6880aa736ea8bf4d9a5302d3,,,,,,,,,,,,,,1,,,,,,,,,,,,,,,,,,,,,,,,,,,,,,,,,,,,,,,,,,,,,,,,,,,,,,,,,51,candado,,,,,531.6962,534.4448,1,1,2.2127,,0,4,4,50,1,REAL,FAKE,,,,,,,,,,,,,,,,,
,,,,,,,,,628d14b52b5bd1d83ed1f7d2,Puerto Rican,13 or older,"no, only English or Spanish",yes,2025-07-23_05h26.28.908,empathy_intonation_perc,2024.2.4,Win32,60.24096386,628d14b52b5bd1d83ed1f7d2,687ed1b7e638a4cbf2f02089,6880aa736ea8bf4d9a5302d3,,,,,,,,,,,,,,1,,,,,,,,,,,,,,,,,,,,,,,,,,,,,,,,,,,,,,,,,,,,,,,,,,,,,,,,,24,látigo,,,,,534.4466,536.5446,1,1,1.5562,,0,5,5,23,1,REAL,FAKE,,,,,,,,,,,,,,,,,
,,,,,,,,,628d14b52b5bd1d83ed1f7d2,Puerto Rican,13 or older,"no, only English or Spanish",yes,2025-07-23_05h26.28.908,empathy_intonation_perc,2024.2.4,Win32,60.24096386,628d14b52b5bd1d83ed1f7d2,687ed1b7e638a4cbf2f02089,6880aa736ea8bf4d9a5302d3,,,,,,,,,,,,,,0,,,,,,,,,,,,,,,,,,,,,,,,,,,,,,,,,,,,,,,,,,,,,,,,,,,,,,,,,23,lampera,,,,,536.5464,538.415,1,0,1.333,,0,6,6,22,1,REAL,FAKE,,,,,,,,,,,,,,,,,
,,,,,,,,,628d14b52b5bd1d83ed1f7d2,Puerto Rican,13 or older,"no, only English or Spanish",yes,2025-07-23_05h26.28.908,empathy_intonation_perc,2024.2.4,Win32,60.24096386,628d14b52b5bd1d83ed1f7d2,687ed1b7e638a4cbf2f02089,6880aa736ea8bf4d9a5302d3,,,,,,,,,,,,,,0,,,,,,,,,,,,,,,,,,,,,,,,,,,,,,,,,,,,,,,,,,,,,,,,,,,,,,,,,32,fatacidad,,,,,538.4162,539.7603,0,1,0.8092,,0,7,7,31,1,REAL,FAKE,,,,,,,,,,,,,,,,,
,,,,,,,,,628d14b52b5bd1d83ed1f7d2,Puerto Rican,13 or older,"no, only English or Spanish",yes,2025-07-23_05h26.28.908,empathy_intonation_perc,2024.2.4,Win32,60.24096386,628d14b52b5bd1d83ed1f7d2,687ed1b7e638a4cbf2f02089,6880aa736ea8bf4d9a5302d3,,,,,,,,,,,,,,1,,,,,,,,,,,,,,,,,,,,,,,,,,,,,,,,,,,,,,,,,,,,,,,,,,,,,,,,,89,prisa,,,,,539.7622,541.228,0,0,0.9298,,0,8,8,88,1,REAL,FAKE,,,,,,,,,,,,,,,,,
,,,,,,,,,628d14b52b5bd1d83ed1f7d2,Puerto Rican,13 or older,"no, only English or Spanish",yes,2025-07-23_05h26.28.908,empathy_intonation_perc,2024.2.4,Win32,60.24096386,628d14b52b5bd1d83ed1f7d2,687ed1b7e638a4cbf2f02089,6880aa736ea8bf4d9a5302d3,,,,,,,,,,,,,,1,,,,,,,,,,,,,,,,,,,,,,,,,,,,,,,,,,,,,,,,,,,,,,,,,,,,,,,,,46,martillo,,,,,541.2289,543.1946,1,1,1.4406,,0,9,9,45,1,REAL,FAKE,,,,,,,,,,,,,,,,,
,,,,,,,,,628d14b52b5bd1d83ed1f7d2,Puerto Rican,13 or older,"no, only English or Spanish",yes,2025-07-23_05h26.28.908,empathy_intonation_perc,2024.2.4,Win32,60.24096386,628d14b52b5bd1d83ed1f7d2,687ed1b7e638a4cbf2f02089,6880aa736ea8bf4d9a5302d3,,,,,,,,,,,,,,1,,,,,,,,,,,,,,,,,,,,,,,,,,,,,,,,,,,,,,,,,,,,,,,,,,,,,,,,,2,pellizcar,,,,,543.1963,544.4607,0,0,0.7259,,0,10,10,1,1,REAL,FAKE,,,,,,,,,,,,,,,,,
,,,,,,,,,628d14b52b5bd1d83ed1f7d2,Puerto Rican,13 or older,"no, only English or Spanish",yes,2025-07-23_05h26.28.908,empathy_intonation_perc,2024.2.4,Win32,60.24096386,628d14b52b5bd1d83ed1f7d2,687ed1b7e638a4cbf2f02089,6880aa736ea8bf4d9a5302d3,,,,,,,,,,,,,,1,,,,,,,,,,,,,,,,,,,,,,,,,,,,,,,,,,,,,,,,,,,,,,,,,,,,,,,,,9,hacha,,,,,544.4623,545.9441,0,0,0.934,,0,11,11,8,1,REAL,FAKE,,,,,,,,,,,,,,,,,
,,,,,,,,,628d14b52b5bd1d83ed1f7d2,Puerto Rican,13 or older,"no, only English or Spanish",yes,2025-07-23_05h26.28.908,empathy_intonation_perc,2024.2.4,Win32,60.24096386,628d14b52b5bd1d83ed1f7d2,687ed1b7e638a4cbf2f02089,6880aa736ea8bf4d9a5302d3,,,,,,,,,,,,,,0,,,,,,,,,,,,,,,,,,,,,,,,,,,,,,,,,,,,,,,,,,,,,,,,,,,,,,,,,30,alardio,,,,,545.9455,547.3986,0,1,0.9174,,0,12,12,29,1,REAL,FAKE,,,,,,,,,,,,,,,,,
,,,,,,,,,628d14b52b5bd1d83ed1f7d2,Puerto Rican,13 or older,"no, only English or Spanish",yes,2025-07-23_05h26.28.908,empathy_intonation_perc,2024.2.4,Win32,60.24096386,628d14b52b5bd1d83ed1f7d2,687ed1b7e638a4cbf2f02089,6880aa736ea8bf4d9a5302d3,,,,,,,,,,,,,,0,,,,,,,,,,,,,,,,,,,,,,,,,,,,,,,,,,,,,,,,,,,,,,,,,,,,,,,,,72,pemición,,,,,547.4003,549.0274,0,1,1.091,,0,13,13,71,1,REAL,FAKE,,,,,,,,,,,,,,,,,
,,,,,,,,,628d14b52b5bd1d83ed1f7d2,Puerto Rican,13 or older,"no, only English or Spanish",yes,2025-07-23_05h26.28.908,empathy_intonation_perc,2024.2.4,Win32,60.24096386,628d14b52b5bd1d83ed1f7d2,687ed1b7e638a4cbf2f02089,6880aa736ea8bf4d9a5302d3,,,,,,,,,,,,,,1,,,,,,,,,,,,,,,,,,,,,,,,,,,,,,,,,,,,,,,,,,,,,,,,,,,,,,,,,15,regar,,,,,549.0289,551.3435,0,0,1.7743,,0,14,14,14,1,REAL,FAKE,,,,,,,,,,,,,,,,,
,,,,,,,,,628d14b52b5bd1d83ed1f7d2,Puerto Rican,13 or older,"no, only English or Spanish",yes,2025-07-23_05h26.28.908,empathy_intonation_perc,2024.2.4,Win32,60.24096386,628d14b52b5bd1d83ed1f7d2,687ed1b7e638a4cbf2f02089,6880aa736ea8bf4d9a5302d3,,,,,,,,,,,,,,1,,,,,,,,,,,,,,,,,,,,,,,,,,,,,,,,,,,,,,,,,,,,,,,,,,,,,,,,,43,canela,,,,,551.3452,552.6268,1,1,0.7547,,0,15,15,42,1,REAL,FAKE,,,,,,,,,,,,,,,,,
,,,,,,,,,628d14b52b5bd1d83ed1f7d2,Puerto Rican,13 or older,"no, only English or Spanish",yes,2025-07-23_05h26.28.908,empathy_intonation_perc,2024.2.4,Win32,60.24096386,628d14b52b5bd1d83ed1f7d2,687ed1b7e638a4cbf2f02089,6880aa736ea8bf4d9a5302d3,,,,,,,,,,,,,,1,,,,,,,,,,,,,,,,,,,,,,,,,,,,,,,,,,,,,,,,,,,,,,,,,,,,,,,,,65,bizcocho,,,,,552.6287,553.8606,0,0,0.6881,,0,16,16,64,1,REAL,FAKE,,,,,,,,,,,,,,,,,
,,,,,,,,,628d14b52b5bd1d83ed1f7d2,Puerto Rican,13 or older,"no, only English or Spanish",yes,2025-07-23_05h26.28.908,empathy_intonation_perc,2024.2.4,Win32,60.24096386,628d14b52b5bd1d83ed1f7d2,687ed1b7e638a4cbf2f02089,6880aa736ea8bf4d9a5302d3,,,,,,,,,,,,,,1,,,,,,,,,,,,,,,,,,,,,,,,,,,,,,,,,,,,,,,,,,,,,,,,,,,,,,,,,39,torpe,,,,,553.8616,555.9266,0,0,1.5172,,0,17,17,38,1,REAL,FAKE,,,,,,,,,,,,,,,,,
,,,,,,,,,628d14b52b5bd1d83ed1f7d2,Puerto Rican,13 or older,"no, only English or Spanish",yes,2025-07-23_05h26.28.908,empathy_intonation_perc,2024.2.4,Win32,60.24096386,628d14b52b5bd1d83ed1f7d2,687ed1b7e638a4cbf2f02089,6880aa736ea8bf4d9a5302d3,,,,,,,,,,,,,,1,,,,,,,,,,,,,,,,,,,,,,,,,,,,,,,,,,,,,,,,,,,,,,,,,,,,,,,,,64,orgulloso,,,,,555.9285,557.9269,0,0,1.4524,,0,18,18,63,1,REAL,FAKE,,,,,,,,,,,,,,,,,
,,,,,,,,,628d14b52b5bd1d83ed1f7d2,Puerto Rican,13 or older,"no, only English or Spanish",yes,2025-07-23_05h26.28.908,empathy_intonation_perc,2024.2.4,Win32,60.24096386,628d14b52b5bd1d83ed1f7d2,687ed1b7e638a4cbf2f02089,6880aa736ea8bf4d9a5302d3,,,,,,,,,,,,,,1,,,,,,,,,,,,,,,,,,,,,,,,,,,,,,,,,,,,,,,,,,,,,,,,,,,,,,,,,49,ganar,,,,,557.9287,560.1264,0,0,1.6584,,0,19,19,48,1,REAL,FAKE,,,,,,,,,,,,,,,,,
,,,,,,,,,628d14b52b5bd1d83ed1f7d2,Puerto Rican,13 or older,"no, only English or Spanish",yes,2025-07-23_05h26.28.908,empathy_intonation_perc,2024.2.4,Win32,60.24096386,628d14b52b5bd1d83ed1f7d2,687ed1b7e638a4cbf2f02089,6880aa736ea8bf4d9a5302d3,,,,,,,,,,,,,,1,,,,,,,,,,,,,,,,,,,,,,,,,,,,,,,,,,,,,,,,,,,,,,,,,,,,,,,,,36,loro,,,,,560.1282,561.5095,0,0,0.8522,,0,20,20,35,1,REAL,FAKE,,,,,,,,,,,,,,,,,
,,,,,,,,,628d14b52b5bd1d83ed1f7d2,Puerto Rican,13 or older,"no, only English or Spanish",yes,2025-07-23_05h26.28.908,empathy_intonation_perc,2024.2.4,Win32,60.24096386,628d14b52b5bd1d83ed1f7d2,687ed1b7e638a4cbf2f02089,6880aa736ea8bf4d9a5302d3,,,,,,,,,,,,,,1,,,,,,,,,,,,,,,,,,,,,,,,,,,,,,,,,,,,,,,,,,,,,,,,,,,,,,,,,25,bisagra,,,,,561.5114,562.9471,0,0,0.9002,,0,21,21,24,1,REAL,FAKE,,,,,,,,,,,,,,,,,
,,,,,,,,,628d14b52b5bd1d83ed1f7d2,Puerto Rican,13 or older,"no, only English or Spanish",yes,2025-07-23_05h26.28.908,empathy_intonation_perc,2024.2.4,Win32,60.24096386,628d14b52b5bd1d83ed1f7d2,687ed1b7e638a4cbf2f02089,6880aa736ea8bf4d9a5302d3,,,,,,,,,,,,,,1,,,,,,,,,,,,,,,,,,,,,,,,,,,,,,,,,,,,,,,,,,,,,,,,,,,,,,,,,3,pulmones,,,,,562.948,565.2452,1,1,1.7647,,0,22,22,2,1,REAL,FAKE,,,,,,,,,,,,,,,,,
,,,,,,,,,628d14b52b5bd1d83ed1f7d2,Puerto Rican,13 or older,"no, only English or Spanish",yes,2025-07-23_05h26.28.908,empathy_intonation_perc,2024.2.4,Win32,60.24096386,628d14b52b5bd1d83ed1f7d2,687ed1b7e638a4cbf2f02089,6880aa736ea8bf4d9a5302d3,,,,,,,,,,,,,,0,,,,,,,,,,,,,,,,,,,,,,,,,,,,,,,,,,,,,,,,,,,,,,,,,,,,,,,,,4,batillón,,,,,565.2466,566.6091,1,0,0.8173,,0,23,23,3,1,REAL,FAKE,,,,,,,,,,,,,,,,,
,,,,,,,,,628d14b52b5bd1d83ed1f7d2,Puerto Rican,13 or older,"no, only English or Spanish",yes,2025-07-23_05h26.28.908,empathy_intonation_perc,2024.2.4,Win32,60.24096386,628d14b52b5bd1d83ed1f7d2,687ed1b7e638a4cbf2f02089,6880aa736ea8bf4d9a5302d3,,,,,,,,,,,,,,1,,,,,,,,,,,,,,,,,,,,,,,,,,,,,,,,,,,,,,,,,,,,,,,,,,,,,,,,,56,musgo,,,,,566.6106,567.8094,0,0,0.6528,,0,24,24,55,1,REAL,FAKE,,,,,,,,,,,,,,,,,
,,,,,,,,,628d14b52b5bd1d83ed1f7d2,Puerto Rican,13 or older,"no, only English or Spanish",yes,2025-07-23_05h26.28.908,empathy_intonation_perc,2024.2.4,Win32,60.24096386,628d14b52b5bd1d83ed1f7d2,687ed1b7e638a4cbf2f02089,6880aa736ea8bf4d9a5302d3,,,,,,,,,,,,,,0,,,,,,,,,,,,,,,,,,,,,,,,,,,,,,,,,,,,,,,,,,,,,,,,,,,,,,,,,92,click the 0 key.,,,,,567.8111,569.4584,0,1,1.1111,,0,25,25,91,1,REAL,FAKE,,,,,,,,,,,,,,,,,
,,,,,,,,,628d14b52b5bd1d83ed1f7d2,Puerto Rican,13 or older,"no, only English or Spanish",yes,2025-07-23_05h26.28.908,empathy_intonation_perc,2024.2.4,Win32,60.24096386,628d14b52b5bd1d83ed1f7d2,687ed1b7e638a4cbf2f02089,6880aa736ea8bf4d9a5302d3,,,,,,,,,,,,,,1,,,,,,,,,,,,,,,,,,,,,,,,,,,,,,,,,,,,,,,,,,,,,,,,,,,,,,,,,57,tacaño,,,,,569.4607,571.4087,0,0,1.4095,,0,26,26,56,1,REAL,FAKE,,,,,,,,,,,,,,,,,
,,,,,,,,,628d14b52b5bd1d83ed1f7d2,Puerto Rican,13 or older,"no, only English or Spanish",yes,2025-07-23_05h26.28.908,empathy_intonation_perc,2024.2.4,Win32,60.24096386,628d14b52b5bd1d83ed1f7d2,687ed1b7e638a4cbf2f02089,6880aa736ea8bf4d9a5302d3,,,,,,,,,,,,,,1,,,,,,,,,,,,,,,,,,,,,,,,,,,,,,,,,,,,,,,,,,,,,,,,,,,,,,,,,77,tiburón,,,,,571.4106,573.4747,0,0,1.5239,,0,27,27,76,1,REAL,FAKE,,,,,,,,,,,,,,,,,
,,,,,,,,,628d14b52b5bd1d83ed1f7d2,Puerto Rican,13 or older,"no, only English or Spanish",yes,2025-07-23_05h26.28.908,empathy_intonation_perc,2024.2.4,Win32,60.24096386,628d14b52b5bd1d83ed1f7d2,687ed1b7e638a4cbf2f02089,6880aa736ea8bf4d9a5302d3,,,,,,,,,,,,,,0,,,,,,,,,,,,,,,,,,,,,,,,,,,,,,,,,,,,,,,,,,,,,,,,,,,,,,,,,35,rompido,,,,,573.4765,575.2298,1,0,1.2171,,0,28,28,34,1,REAL,FAKE,,,,,,,,,,,,,,,,,
,,,,,,,,,628d14b52b5bd1d83ed1f7d2,Puerto Rican,13 or older,"no, only English or Spanish",yes,2025-07-23_05h26.28.908,empathy_intonation_perc,2024.2.4,Win32,60.24096386,628d14b52b5bd1d83ed1f7d2,687ed1b7e638a4cbf2f02089,6880aa736ea8bf4d9a5302d3,,,,,,,,,,,,,,1,,,,,,,,,,,,,,,,,,,,,,,,,,,,,,,,,,,,,,,,,,,,,,,,,,,,,,,,,83,guante,,,,,575.2308,576.6417,0,0,0.8706,,0,29,29,82,1,REAL,FAKE,,,,,,,,,,,,,,,,,
,,,,,,,,,628d14b52b5bd1d83ed1f7d2,Puerto Rican,13 or older,"no, only English or Spanish",yes,2025-07-23_05h26.28.908,empathy_intonation_perc,2024.2.4,Win32,60.24096386,628d14b52b5bd1d83ed1f7d2,687ed1b7e638a4cbf2f02089,6880aa736ea8bf4d9a5302d3,,,,,,,,,,,,,,1,,,,,,,,,,,,,,,,,,,,,,,,,,,,,,,,,,,,,,,,,,,,,,,,,,,,,,,,,61,seda,,,,,576.6433,578.1956,0,0,1.0161,,0,30,30,60,1,REAL,FAKE,,,,,,,,,,,,,,,,,
,,,,,,,,,628d14b52b5bd1d83ed1f7d2,Puerto Rican,13 or older,"no, only English or Spanish",yes,2025-07-23_05h26.28.908,empathy_intonation_perc,2024.2.4,Win32,60.24096386,628d14b52b5bd1d83ed1f7d2,687ed1b7e638a4cbf2f02089,6880aa736ea8bf4d9a5302d3,,,,,,,,,,,,,,0,,,,,,,,,,,,,,,,,,,,,,,,,,,,,,,,,,,,,,,,,,,,,,,,,,,,,,,,,79,tropaje,,,,,578.1968,580.1086,0,1,1.3669,,0,31,31,78,1,REAL,FAKE,,,,,,,,,,,,,,,,,
,,,,,,,,,628d14b52b5bd1d83ed1f7d2,Puerto Rican,13 or older,"no, only English or Spanish",yes,2025-07-23_05h26.28.908,empathy_intonation_perc,2024.2.4,Win32,60.24096386,628d14b52b5bd1d83ed1f7d2,687ed1b7e638a4cbf2f02089,6880aa736ea8bf4d9a5302d3,,,,,,,,,,,,,,1,,,,,,,,,,,,,,,,,,,,,,,,,,,,,,,,,,,,,,,,,,,,,,,,,,,,,,,,,67,cabello,,,,,580.1098,581.3615,1,1,0.7161,,0,32,32,66,1,REAL,FAKE,,,,,,,,,,,,,,,,,
,,,,,,,,,628d14b52b5bd1d83ed1f7d2,Puerto Rican,13 or older,"no, only English or Spanish",yes,2025-07-23_05h26.28.908,empathy_intonation_perc,2024.2.4,Win32,60.24096386,628d14b52b5bd1d83ed1f7d2,687ed1b7e638a4cbf2f02089,6880aa736ea8bf4d9a5302d3,,,,,,,,,,,,,,0,,,,,,,,,,,,,,,,,,,,,,,,,,,,,,,,,,,,,,,,,,,,,,,,,,,,,,,,,19,brecedad,,,,,581.3626,582.5747,0,1,0.6669,,0,33,33,18,1,REAL,FAKE,,,,,,,,,,,,,,,,,
,,,,,,,,,628d14b52b5bd1d83ed1f7d2,Puerto Rican,13 or older,"no, only English or Spanish",yes,2025-07-23_05h26.28.908,empathy_intonation_perc,2024.2.4,Win32,60.24096386,628d14b52b5bd1d83ed1f7d2,687ed1b7e638a4cbf2f02089,6880aa736ea8bf4d9a5302d3,,,,,,,,,,,,,,1,,,,,,,,,,,,,,,,,,,,,,,,,,,,,,,,,,,,,,,,,,,,,,,,,,,,,,,,,88,acantilado,,,,,582.576,583.9247,0,0,0.8002,,0,34,34,87,1,REAL,FAKE,,,,,,,,,,,,,,,,,
,,,,,,,,,628d14b52b5bd1d83ed1f7d2,Puerto Rican,13 or older,"no, only English or Spanish",yes,2025-07-23_05h26.28.908,empathy_intonation_perc,2024.2.4,Win32,60.24096386,628d14b52b5bd1d83ed1f7d2,687ed1b7e638a4cbf2f02089,6880aa736ea8bf4d9a5302d3,,,,,,,,,,,,,,1,,,,,,,,,,,,,,,,,,,,,,,,,,,,,,,,,,,,,,,,,,,,,,,,,,,,,,,,,41,rebuscar,,,,,583.9261,585.458,1,1,1.0043,,0,35,35,40,1,REAL,FAKE,,,,,,,,,,,,,,,,,
,,,,,,,,,628d14b52b5bd1d83ed1f7d2,Puerto Rican,13 or older,"no, only English or Spanish",yes,2025-07-23_05h26.28.908,empathy_intonation_perc,2024.2.4,Win32,60.24096386,628d14b52b5bd1d83ed1f7d2,687ed1b7e638a4cbf2f02089,6880aa736ea8bf4d9a5302d3,,,,,,,,,,,,,,1,,,,,,,,,,,,,,,,,,,,,,,,,,,,,,,,,,,,,,,,,,,,,,,,,,,,,,,,,52,camisa,,,,,585.4595,586.8747,1,1,0.8671,,0,36,36,51,1,REAL,FAKE,,,,,,,,,,,,,,,,,
,,,,,,,,,628d14b52b5bd1d83ed1f7d2,Puerto Rican,13 or older,"no, only English or Spanish",yes,2025-07-23_05h26.28.908,empathy_intonation_perc,2024.2.4,Win32,60.24096386,628d14b52b5bd1d83ed1f7d2,687ed1b7e638a4cbf2f02089,6880aa736ea8bf4d9a5302d3,,,,,,,,,,,,,,0,,,,,,,,,,,,,,,,,,,,,,,,,,,,,,,,,,,,,,,,,,,,,,,,,,,,,,,,,53,vegada,,,,,586.8769,588.3083,0,1,0.8919,,0,37,37,52,1,REAL,FAKE,,,,,,,,,,,,,,,,,
,,,,,,,,,628d14b52b5bd1d83ed1f7d2,Puerto Rican,13 or older,"no, only English or Spanish",yes,2025-07-23_05h26.28.908,empathy_intonation_perc,2024.2.4,Win32,60.24096386,628d14b52b5bd1d83ed1f7d2,687ed1b7e638a4cbf2f02089,6880aa736ea8bf4d9a5302d3,,,,,,,,,,,,,,1,,,,,,,,,,,,,,,,,,,,,,,,,,,,,,,,,,,,,,,,,,,,,,,,,,,,,,,,,73,hervidor,,,,,588.31,589.6741,0,0,0.8275,,0,38,38,72,1,REAL,FAKE,,,,,,,,,,,,,,,,,
,,,,,,,,,628d14b52b5bd1d83ed1f7d2,Puerto Rican,13 or older,"no, only English or Spanish",yes,2025-07-23_05h26.28.908,empathy_intonation_perc,2024.2.4,Win32,60.24096386,628d14b52b5bd1d83ed1f7d2,687ed1b7e638a4cbf2f02089,6880aa736ea8bf4d9a5302d3,,,,,,,,,,,,,,1,,,,,,,,,,,,,,,,,,,,,,,,,,,,,,,,,,,,,,,,,,,,,,,,,,,,,,,,,20,ávido,,,,,589.676,592.3576,0,0,2.1537,,0,39,39,19,1,REAL,FAKE,,,,,,,,,,,,,,,,,
,,,,,,,,,628d14b52b5bd1d83ed1f7d2,Puerto Rican,13 or older,"no, only English or Spanish",yes,2025-07-23_05h26.28.908,empathy_intonation_perc,2024.2.4,Win32,60.24096386,628d14b52b5bd1d83ed1f7d2,687ed1b7e638a4cbf2f02089,6880aa736ea8bf4d9a5302d3,,,,,,,,,,,,,,1,,,,,,,,,,,,,,,,,,,,,,,,,,,,,,,,,,,,,,,,,,,,,,,,,,,,,,,,,11,cenefa,,,,,592.3593,593.624,0,0,0.7171,,0,40,40,10,1,REAL,FAKE,,,,,,,,,,,,,,,,,
,,,,,,,,,628d14b52b5bd1d83ed1f7d2,Puerto Rican,13 or older,"no, only English or Spanish",yes,2025-07-23_05h26.28.908,empathy_intonation_perc,2024.2.4,Win32,60.24096386,628d14b52b5bd1d83ed1f7d2,687ed1b7e638a4cbf2f02089,6880aa736ea8bf4d9a5302d3,,,,,,,,,,,,,,1,,,,,,,,,,,,,,,,,,,,,,,,,,,,,,,,,,,,,,,,,,,,,,,,,,,,,,,,,6,tergiversar,,,,,593.626,594.8246,0,0,0.6628,,0,41,41,5,1,REAL,FAKE,,,,,,,,,,,,,,,,,
,,,,,,,,,628d14b52b5bd1d83ed1f7d2,Puerto Rican,13 or older,"no, only English or Spanish",yes,2025-07-23_05h26.28.908,empathy_intonation_perc,2024.2.4,Win32,60.24096386,628d14b52b5bd1d83ed1f7d2,687ed1b7e638a4cbf2f02089,6880aa736ea8bf4d9a5302d3,,,,,,,,,,,,,,1,,,,,,,,,,,,,,,,,,,,,,,,,,,,,,,,,,,,,,,,,,,,,,,,,,,,,,,,,26,secuestro,,,,,594.8258,597.9738,1,1,2.6077,,0,42,42,25,1,REAL,FAKE,,,,,,,,,,,,,,,,,
,,,,,,,,,628d14b52b5bd1d83ed1f7d2,Puerto Rican,13 or older,"no, only English or Spanish",yes,2025-07-23_05h26.28.908,empathy_intonation_perc,2024.2.4,Win32,60.24096386,628d14b52b5bd1d83ed1f7d2,687ed1b7e638a4cbf2f02089,6880aa736ea8bf4d9a5302d3,,,,,,,,,,,,,,1,,,,,,,,,,,,,,,,,,,,,,,,,,,,,,,,,,,,,,,,,,,,,,,,,,,,,,,,,81,pozo,,,,,597.9757,599.9233,0,0,1.4099,,0,43,43,80,1,REAL,FAKE,,,,,,,,,,,,,,,,,
,,,,,,,,,628d14b52b5bd1d83ed1f7d2,Puerto Rican,13 or older,"no, only English or Spanish",yes,2025-07-23_05h26.28.908,empathy_intonation_perc,2024.2.4,Win32,60.24096386,628d14b52b5bd1d83ed1f7d2,687ed1b7e638a4cbf2f02089,6880aa736ea8bf4d9a5302d3,,,,,,,,,,,,,,0,,,,,,,,,,,,,,,,,,,,,,,,,,,,,,,,,,,,,,,,,,,,,,,,,,,,,,,,,42,cadallo,,,,,599.9254,602.7902,0,1,2.3163,,0,44,44,41,1,REAL,FAKE,,,,,,,,,,,,,,,,,
,,,,,,,,,628d14b52b5bd1d83ed1f7d2,Puerto Rican,13 or older,"no, only English or Spanish",yes,2025-07-23_05h26.28.908,empathy_intonation_perc,2024.2.4,Win32,60.24096386,628d14b52b5bd1d83ed1f7d2,687ed1b7e638a4cbf2f02089,6880aa736ea8bf4d9a5302d3,,,,,,,,,,,,,,0,,,,,,,,,,,,,,,,,,,,,,,,,,,,,,,,,,,,,,,,,,,,,,,,,,,,,,,,,18,arsa,,,,,602.7919,604.0899,0,1,0.7505,,0,45,45,17,1,REAL,FAKE,,,,,,,,,,,,,,,,,
,,,,,,,,,628d14b52b5bd1d83ed1f7d2,Puerto Rican,13 or older,"no, only English or Spanish",yes,2025-07-23_05h26.28.908,empathy_intonation_perc,2024.2.4,Win32,60.24096386,628d14b52b5bd1d83ed1f7d2,687ed1b7e638a4cbf2f02089,6880aa736ea8bf4d9a5302d3,,,,,,,,,,,,,,1,,,,,,,,,,,,,,,,,,,,,,,,,,,,,,,,,,,,,,,,,,,,,,,,,,,,,,,,,60,matar,,,,,604.0915,606.2404,0,0,1.6071,,0,46,46,59,1,REAL,FAKE,,,,,,,,,,,,,,,,,
,,,,,,,,,628d14b52b5bd1d83ed1f7d2,Puerto Rican,13 or older,"no, only English or Spanish",yes,2025-07-23_05h26.28.908,empathy_intonation_perc,2024.2.4,Win32,60.24096386,628d14b52b5bd1d83ed1f7d2,687ed1b7e638a4cbf2f02089,6880aa736ea8bf4d9a5302d3,,,,,,,,,,,,,,0,,,,,,,,,,,,,,,,,,,,,,,,,,,,,,,,,,,,,,,,,,,,,,,,,,,,,,,,,17,floroso,,,,,606.242,607.8734,0,1,1.0835,,0,47,47,16,1,REAL,FAKE,,,,,,,,,,,,,,,,,
,,,,,,,,,628d14b52b5bd1d83ed1f7d2,Puerto Rican,13 or older,"no, only English or Spanish",yes,2025-07-23_05h26.28.908,empathy_intonation_perc,2024.2.4,Win32,60.24096386,628d14b52b5bd1d83ed1f7d2,687ed1b7e638a4cbf2f02089,6880aa736ea8bf4d9a5302d3,,,,,,,,,,,,,,1,,,,,,,,,,,,,,,,,,,,,,,,,,,,,,,,,,,,,,,,,,,,,,,,,,,,,,,,,69,engatusar,,,,,607.8749,609.5735,0,0,1.1512,,0,48,48,68,1,REAL,FAKE,,,,,,,,,,,,,,,,,
,,,,,,,,,628d14b52b5bd1d83ed1f7d2,Puerto Rican,13 or older,"no, only English or Spanish",yes,2025-07-23_05h26.28.908,empathy_intonation_perc,2024.2.4,Win32,60.24096386,628d14b52b5bd1d83ed1f7d2,687ed1b7e638a4cbf2f02089,6880aa736ea8bf4d9a5302d3,,,,,,,,,,,,,,1,,,,,,,,,,,,,,,,,,,,,,,,,,,,,,,,,,,,,,,,,,,,,,,,,,,,,,,,,76,atar,,,,,609.5752,610.9566,0,0,0.835,,0,49,49,75,1,REAL,FAKE,,,,,,,,,,,,,,,,,
,,,,,,,,,628d14b52b5bd1d83ed1f7d2,Puerto Rican,13 or older,"no, only English or Spanish",yes,2025-07-23_05h26.28.908,empathy_intonation_perc,2024.2.4,Win32,60.24096386,628d14b52b5bd1d83ed1f7d2,687ed1b7e638a4cbf2f02089,6880aa736ea8bf4d9a5302d3,,,,,,,,,,,,,,1,,,,,,,,,,,,,,,,,,,,,,,,,,,,,,,,,,,,,,,,,,,,,,,,,,,,,,,,,54,fomentar,,,,,610.958,612.3232,0,0,0.8216,,0,50,50,53,1,REAL,FAKE,,,,,,,,,,,,,,,,,
,,,,,,,,,628d14b52b5bd1d83ed1f7d2,Puerto Rican,13 or older,"no, only English or Spanish",yes,2025-07-23_05h26.28.908,empathy_intonation_perc,2024.2.4,Win32,60.24096386,628d14b52b5bd1d83ed1f7d2,687ed1b7e638a4cbf2f02089,6880aa736ea8bf4d9a5302d3,,,,,,,,,,,,,,1,,,,,,,,,,,,,,,,,,,,,,,,,,,,,,,,,,,,,,,,,,,,,,,,,,,,,,,,,62,flaco,,,,,612.325,613.6275,1,1,0.7671,,0,51,51,61,1,REAL,FAKE,,,,,,,,,,,,,,,,,
,,,,,,,,,628d14b52b5bd1d83ed1f7d2,Puerto Rican,13 or older,"no, only English or Spanish",yes,2025-07-23_05h26.28.908,empathy_intonation_perc,2024.2.4,Win32,60.24096386,628d14b52b5bd1d83ed1f7d2,687ed1b7e638a4cbf2f02089,6880aa736ea8bf4d9a5302d3,,,,,,,,,,,,,,0,,,,,,,,,,,,,,,,,,,,,,,,,,,,,,,,,,,,,,,,,,,,,,,,,,,,,,,,,47,cartinar,,,,,613.6287,614.9732,0,1,0.8003,,0,52,52,46,1,REAL,FAKE,,,,,,,,,,,,,,,,,
,,,,,,,,,628d14b52b5bd1d83ed1f7d2,Puerto Rican,13 or older,"no, only English or Spanish",yes,2025-07-23_05h26.28.908,empathy_intonation_perc,2024.2.4,Win32,60.24096386,628d14b52b5bd1d83ed1f7d2,687ed1b7e638a4cbf2f02089,6880aa736ea8bf4d9a5302d3,,,,,,,,,,,,,,0,,,,,,,,,,,,,,,,,,,,,,,,,,,,,,,,,,,,,,,,,,,,,,,,,,,,,,,,,74,cintro,,,,,614.9744,617.689,0,1,2.1671,,0,53,53,73,1,REAL,FAKE,,,,,,,,,,,,,,,,,
,,,,,,,,,628d14b52b5bd1d83ed1f7d2,Puerto Rican,13 or older,"no, only English or Spanish",yes,2025-07-23_05h26.28.908,empathy_intonation_perc,2024.2.4,Win32,60.24096386,628d14b52b5bd1d83ed1f7d2,687ed1b7e638a4cbf2f02089,6880aa736ea8bf4d9a5302d3,,,,,,,,,,,,,,0,,,,,,,,,,,,,,,,,,,,,,,,,,,,,,,,,,,,,,,,,,,,,,,,,,,,,,,,,27,acutación,,,,,617.6908,619.2893,0,1,1.0504,,0,54,54,26,1,REAL,FAKE,,,,,,,,,,,,,,,,,
,,,,,,,,,628d14b52b5bd1d83ed1f7d2,Puerto Rican,13 or older,"no, only English or Spanish",yes,2025-07-23_05h26.28.908,empathy_intonation_perc,2024.2.4,Win32,60.24096386,628d14b52b5bd1d83ed1f7d2,687ed1b7e638a4cbf2f02089,6880aa736ea8bf4d9a5302d3,,,,,,,,,,,,,,0,,,,,,,,,,,,,,,,,,,,,,,,,,,,,,,,,,,,,,,,,,,,,,,,,,,,,,,,,29,decar,,,,,619.2909,621.5556,0,1,1.7355,,0,55,55,28,1,REAL,FAKE,,,,,,,,,,,,,,,,,
,,,,,,,,,628d14b52b5bd1d83ed1f7d2,Puerto Rican,13 or older,"no, only English or Spanish",yes,2025-07-23_05h26.28.908,empathy_intonation_perc,2024.2.4,Win32,60.24096386,628d14b52b5bd1d83ed1f7d2,687ed1b7e638a4cbf2f02089,6880aa736ea8bf4d9a5302d3,,,,,,,,,,,,,,1,,,,,,,,,,,,,,,,,,,,,,,,,,,,,,,,,,,,,,,,,,,,,,,,,,,,,,,,,7,pésimo,,,,,621.5575,623.1726,1,1,1.0896,,0,56,56,6,1,REAL,FAKE,,,,,,,,,,,,,,,,,
,,,,,,,,,628d14b52b5bd1d83ed1f7d2,Puerto Rican,13 or older,"no, only English or Spanish",yes,2025-07-23_05h26.28.908,empathy_intonation_perc,2024.2.4,Win32,60.24096386,628d14b52b5bd1d83ed1f7d2,687ed1b7e638a4cbf2f02089,6880aa736ea8bf4d9a5302d3,,,,,,,,,,,,,,1,,,,,,,,,,,,,,,,,,,,,,,,,,,,,,,,,,,,,,,,,,,,,,,,,,,,,,,,,71,polvoriento,,,,,623.1744,624.489,0,0,0.7691,,0,57,57,70,1,REAL,FAKE,,,,,,,,,,,,,,,,,
,,,,,,,,,628d14b52b5bd1d83ed1f7d2,Puerto Rican,13 or older,"no, only English or Spanish",yes,2025-07-23_05h26.28.908,empathy_intonation_perc,2024.2.4,Win32,60.24096386,628d14b52b5bd1d83ed1f7d2,687ed1b7e638a4cbf2f02089,6880aa736ea8bf4d9a5302d3,,,,,,,,,,,,,,0,,,,,,,,,,,,,,,,,,,,,,,,,,,,,,,,,,,,,,,,,,,,,,,,,,,,,,,,,21,capillo,,,,,624.4909,626.7059,1,0,1.6734,,0,58,58,20,1,REAL,FAKE,,,,,,,,,,,,,,,,,
,,,,,,,,,628d14b52b5bd1d83ed1f7d2,Puerto Rican,13 or older,"no, only English or Spanish",yes,2025-07-23_05h26.28.908,empathy_intonation_perc,2024.2.4,Win32,60.24096386,628d14b52b5bd1d83ed1f7d2,687ed1b7e638a4cbf2f02089,6880aa736ea8bf4d9a5302d3,,,,,,,,,,,,,,0,,,,,,,,,,,,,,,,,,,,,,,,,,,,,,,,,,,,,,,,,,,,,,,,,,,,,,,,,1,terzo,,,,,626.7074,627.8053,0,1,0.5671,,0,59,59,0,1,REAL,FAKE,,,,,,,,,,,,,,,,,
,,,,,,,,,628d14b52b5bd1d83ed1f7d2,Puerto Rican,13 or older,"no, only English or Spanish",yes,2025-07-23_05h26.28.908,empathy_intonation_perc,2024.2.4,Win32,60.24096386,628d14b52b5bd1d83ed1f7d2,687ed1b7e638a4cbf2f02089,6880aa736ea8bf4d9a5302d3,,,,,,,,,,,,,,1,,,,,,,,,,,,,,,,,,,,,,,,,,,,,,,,,,,,,,,,,,,,,,,,,,,,,,,,,14,yunque,,,,,627.8068,629.0057,0,0,0.6529,,0,60,60,13,1,REAL,FAKE,,,,,,,,,,,,,,,,,
,,,,,,,,,628d14b52b5bd1d83ed1f7d2,Puerto Rican,13 or older,"no, only English or Spanish",yes,2025-07-23_05h26.28.908,empathy_intonation_perc,2024.2.4,Win32,60.24096386,628d14b52b5bd1d83ed1f7d2,687ed1b7e638a4cbf2f02089,6880aa736ea8bf4d9a5302d3,,,,,,,,,,,,,,0,,,,,,,,,,,,,,,,,,,,,,,,,,,,,,,,,,,,,,,,,,,,,,,,,,,,,,,,,63,esposante,,,,,629.0073,631.7385,0,1,2.1839,,0,61,61,62,1,REAL,FAKE,,,,,,,,,,,,,,,,,
,,,,,,,,,628d14b52b5bd1d83ed1f7d2,Puerto Rican,13 or older,"no, only English or Spanish",yes,2025-07-23_05h26.28.908,empathy_intonation_perc,2024.2.4,Win32,60.24096386,628d14b52b5bd1d83ed1f7d2,687ed1b7e638a4cbf2f02089,6880aa736ea8bf4d9a5302d3,,,,,,,,,,,,,,1,,,,,,,,,,,,,,,,,,,,,,,,,,,,,,,,,,,,,,,,,,,,,,,,,,,,,,,,,12,asesinato,,,,,631.7402,633.3888,0,0,1.1058,,0,62,62,11,1,REAL,FAKE,,,,,,,,,,,,,,,,,
,,,,,,,,,628d14b52b5bd1d83ed1f7d2,Puerto Rican,13 or older,"no, only English or Spanish",yes,2025-07-23_05h26.28.908,empathy_intonation_perc,2024.2.4,Win32,60.24096386,628d14b52b5bd1d83ed1f7d2,687ed1b7e638a4cbf2f02089,6880aa736ea8bf4d9a5302d3,,,,,,,,,,,,,,0,,,,,,,,,,,,,,,,,,,,,,,,,,,,,,,,,,,,,,,,,,,,,,,,,,,,,,,,,33,pauca,,,,,633.3905,634.5886,0,1,0.6504,,0,63,63,32,1,REAL,FAKE,,,,,,,,,,,,,,,,,
,,,,,,,,,628d14b52b5bd1d83ed1f7d2,Puerto Rican,13 or older,"no, only English or Spanish",yes,2025-07-23_05h26.28.908,empathy_intonation_perc,2024.2.4,Win32,60.24096386,628d14b52b5bd1d83ed1f7d2,687ed1b7e638a4cbf2f02089,6880aa736ea8bf4d9a5302d3,,,,,,,,,,,,,,1,,,,,,,,,,,,,,,,,,,,,,,,,,,,,,,,,,,,,,,,,,,,,,,,,,,,,,,,,59,besar,,,,,634.5899,635.9053,0,0,0.7698,,0,64,64,58,1,REAL,FAKE,,,,,,,,,,,,,,,,,
,,,,,,,,,628d14b52b5bd1d83ed1f7d2,Puerto Rican,13 or older,"no, only English or Spanish",yes,2025-07-23_05h26.28.908,empathy_intonation_perc,2024.2.4,Win32,60.24096386,628d14b52b5bd1d83ed1f7d2,687ed1b7e638a4cbf2f02089,6880aa736ea8bf4d9a5302d3,,,,,,,,,,,,,,0,,,,,,,,,,,,,,,,,,,,,,,,,,,,,,,,,,,,,,,,,,,,,,,,,,,,,,,,,87,grodo,,,,,635.9072,637.1045,0,1,0.6609,,0,65,65,86,1,REAL,FAKE,,,,,,,,,,,,,,,,,
,,,,,,,,,628d14b52b5bd1d83ed1f7d2,Puerto Rican,13 or older,"no, only English or Spanish",yes,2025-07-23_05h26.28.908,empathy_intonation_perc,2024.2.4,Win32,60.24096386,628d14b52b5bd1d83ed1f7d2,687ed1b7e638a4cbf2f02089,6880aa736ea8bf4d9a5302d3,,,,,,,,,,,,,,1,,,,,,,,,,,,,,,,,,,,,,,,,,,,,,,,,,,,,,,,,,,,,,,,,,,,,,,,,40,alfombra,,,,,637.1061,638.3725,0,0,0.7201,,0,66,66,39,1,REAL,FAKE,,,,,,,,,,,,,,,,,
,,,,,,,,,628d14b52b5bd1d83ed1f7d2,Puerto Rican,13 or older,"no, only English or Spanish",yes,2025-07-23_05h26.28.908,empathy_intonation_perc,2024.2.4,Win32,60.24096386,628d14b52b5bd1d83ed1f7d2,687ed1b7e638a4cbf2f02089,6880aa736ea8bf4d9a5302d3,,,,,,,,,,,,,,0,,,,,,,,,,,,,,,,,,,,,,,,,,,,,,,,,,,,,,,,,,,,,,,,,,,,,,,,,66,hacido,,,,,638.3738,639.8714,1,0,0.9593,,0,67,67,65,1,REAL,FAKE,,,,,,,,,,,,,,,,,
,,,,,,,,,628d14b52b5bd1d83ed1f7d2,Puerto Rican,13 or older,"no, only English or Spanish",yes,2025-07-23_05h26.28.908,empathy_intonation_perc,2024.2.4,Win32,60.24096386,628d14b52b5bd1d83ed1f7d2,687ed1b7e638a4cbf2f02089,6880aa736ea8bf4d9a5302d3,,,,,,,,,,,,,,0,,,,,,,,,,,,,,,,,,,,,,,,,,,,,,,,,,,,,,,,,,,,,,,,,,,,,,,,,16,abracer,,,,,639.8731,641.2549,0,1,0.8412,,0,68,68,15,1,REAL,FAKE,,,,,,,,,,,,,,,,,
,,,,,,,,,628d14b52b5bd1d83ed1f7d2,Puerto Rican,13 or older,"no, only English or Spanish",yes,2025-07-23_05h26.28.908,empathy_intonation_perc,2024.2.4,Win32,60.24096386,628d14b52b5bd1d83ed1f7d2,687ed1b7e638a4cbf2f02089,6880aa736ea8bf4d9a5302d3,,,,,,,,,,,,,,1,,,,,,,,,,,,,,,,,,,,,,,,,,,,,,,,,,,,,,,,,,,,,,,,,,,,,,,,,44,cuchara,,,,,641.2567,644.0542,0,0,2.2541,,0,69,69,43,1,REAL,FAKE,,,,,,,,,,,,,,,,,
,,,,,,,,,628d14b52b5bd1d83ed1f7d2,Puerto Rican,13 or older,"no, only English or Spanish",yes,2025-07-23_05h26.28.908,empathy_intonation_perc,2024.2.4,Win32,60.24096386,628d14b52b5bd1d83ed1f7d2,687ed1b7e638a4cbf2f02089,6880aa736ea8bf4d9a5302d3,,,,,,,,,,,,,,1,,,,,,,,,,,,,,,,,,,,,,,,,,,,,,,,,,,,,,,,,,,,,,,,,,,,,,,,,48,ladrón,,,,,644.056,645.5258,0,0,0.9338,,0,70,70,47,1,REAL,FAKE,,,,,,,,,,,,,,,,,
,,,,,,,,,628d14b52b5bd1d83ed1f7d2,Puerto Rican,13 or older,"no, only English or Spanish",yes,2025-07-23_05h26.28.908,empathy_intonation_perc,2024.2.4,Win32,60.24096386,628d14b52b5bd1d83ed1f7d2,687ed1b7e638a4cbf2f02089,6880aa736ea8bf4d9a5302d3,,,,,,,,,,,,,,0,,,,,,,,,,,,,,,,,,,,,,,,,,,,,,,,,,,,,,,,,,,,,,,,,,,,,,,,,82,empirador,,,,,645.5268,647.2371,0,1,1.1675,,0,71,71,81,1,REAL,FAKE,,,,,,,,,,,,,,,,,
,,,,,,,,,628d14b52b5bd1d83ed1f7d2,Puerto Rican,13 or older,"no, only English or Spanish",yes,2025-07-23_05h26.28.908,empathy_intonation_perc,2024.2.4,Win32,60.24096386,628d14b52b5bd1d83ed1f7d2,687ed1b7e638a4cbf2f02089,6880aa736ea8bf4d9a5302d3,,,,,,,,,,,,,,1,,,,,,,,,,,,,,,,,,,,,,,,,,,,,,,,,,,,,,,,,,,,,,,,,,,,,,,,,86,barato,,,,,647.2391,648.5404,0,0,0.7655,,0,72,72,85,1,REAL,FAKE,,,,,,,,,,,,,,,,,
,,,,,,,,,628d14b52b5bd1d83ed1f7d2,Puerto Rican,13 or older,"no, only English or Spanish",yes,2025-07-23_05h26.28.908,empathy_intonation_perc,2024.2.4,Win32,60.24096386,628d14b52b5bd1d83ed1f7d2,687ed1b7e638a4cbf2f02089,6880aa736ea8bf4d9a5302d3,,,,,,,,,,,,,,1,,,,,,,,,,,,,,,,,,,,,,,,,,,,,,,,,,,,,,,,,,,,,,,,,,,,,,,,,85,laúd,,,,,648.542,649.7372,0,0,0.658,,0,73,73,84,1,REAL,FAKE,,,,,,,,,,,,,,,,,
,,,,,,,,,628d14b52b5bd1d83ed1f7d2,Puerto Rican,13 or older,"no, only English or Spanish",yes,2025-07-23_05h26.28.908,empathy_intonation_perc,2024.2.4,Win32,60.24096386,628d14b52b5bd1d83ed1f7d2,687ed1b7e638a4cbf2f02089,6880aa736ea8bf4d9a5302d3,,,,,,,,,,,,,,0,,,,,,,,,,,,,,,,,,,,,,,,,,,,,,,,,,,,,,,,,,,,,,,,,,,,,,,,,8,cadeña,,,,,649.7392,652.1877,0,1,1.9014,,0,74,74,7,1,REAL,FAKE,,,,,,,,,,,,,,,,,
,,,,,,,,,628d14b52b5bd1d83ed1f7d2,Puerto Rican,13 or older,"no, only English or Spanish",yes,2025-07-23_05h26.28.908,empathy_intonation_perc,2024.2.4,Win32,60.24096386,628d14b52b5bd1d83ed1f7d2,687ed1b7e638a4cbf2f02089,6880aa736ea8bf4d9a5302d3,,,,,,,,,,,,,,0,,,,,,,,,,,,,,,,,,,,,,,,,,,,,,,,,,,,,,,,,,,,,,,,,,,,,,,,,84,escuto,,,,,652.1895,653.7211,0,1,0.9864,,0,75,75,83,1,REAL,FAKE,,,,,,,,,,,,,,,,,
,,,,,,,,,628d14b52b5bd1d83ed1f7d2,Puerto Rican,13 or older,"no, only English or Spanish",yes,2025-07-23_05h26.28.908,empathy_intonation_perc,2024.2.4,Win32,60.24096386,628d14b52b5bd1d83ed1f7d2,687ed1b7e638a4cbf2f02089,6880aa736ea8bf4d9a5302d3,,,,,,,,,,,,,,0,,,,,,,,,,,,,,,,,,,,,,,,,,,,,,,,,,,,,,,,,,,,,,,,,,,,,,,,,70,temblo,,,,,653.7223,655.0373,0,1,0.7724,,0,76,76,69,1,REAL,FAKE,,,,,,,,,,,,,,,,,
,,,,,,,,,628d14b52b5bd1d83ed1f7d2,Puerto Rican,13 or older,"no, only English or Spanish",yes,2025-07-23_05h26.28.908,empathy_intonation_perc,2024.2.4,Win32,60.24096386,628d14b52b5bd1d83ed1f7d2,687ed1b7e638a4cbf2f02089,6880aa736ea8bf4d9a5302d3,,,,,,,,,,,,,,1,,,,,,,,,,,,,,,,,,,,,,,,,,,,,,,,,,,,,,,,,,,,,,,,,,,,,,,,,37,granuja,,,,,655.039,656.637,0,0,1.0551,,0,77,77,36,1,REAL,FAKE,,,,,,,,,,,,,,,,,
,,,,,,,,,628d14b52b5bd1d83ed1f7d2,Puerto Rican,13 or older,"no, only English or Spanish",yes,2025-07-23_05h26.28.908,empathy_intonation_perc,2024.2.4,Win32,60.24096386,628d14b52b5bd1d83ed1f7d2,687ed1b7e638a4cbf2f02089,6880aa736ea8bf4d9a5302d3,,,,,,,,,,,,,,1,,,,,,,,,,,,,,,,,,,,,,,,,,,,,,,,,,,,,,,,,,,,,,,,,,,,,,,,,75,yacer,,,,,656.6388,657.7533,0,0,0.5681,,0,78,78,74,1,REAL,FAKE,,,,,,,,,,,,,,,,,
,,,,,,,,,628d14b52b5bd1d83ed1f7d2,Puerto Rican,13 or older,"no, only English or Spanish",yes,2025-07-23_05h26.28.908,empathy_intonation_perc,2024.2.4,Win32,60.24096386,628d14b52b5bd1d83ed1f7d2,687ed1b7e638a4cbf2f02089,6880aa736ea8bf4d9a5302d3,,,,,,,,,,,,,,0,,,,,,,,,,,,,,,,,,,,,,,,,,,,,,,,,,,,,,,,,,,,,,,,,,,,,,,,,50,flamida,,,,,657.7551,659.6534,0,1,1.3597,,0,79,79,49,1,REAL,FAKE,,,,,,,,,,,,,,,,,
,,,,,,,,,628d14b52b5bd1d83ed1f7d2,Puerto Rican,13 or older,"no, only English or Spanish",yes,2025-07-23_05h26.28.908,empathy_intonation_perc,2024.2.4,Win32,60.24096386,628d14b52b5bd1d83ed1f7d2,687ed1b7e638a4cbf2f02089,6880aa736ea8bf4d9a5302d3,,,,,,,,,,,,,,1,,,,,,,,,,,,,,,,,,,,,,,,,,,,,,,,,,,,,,,,,,,,,,,,,,,,,,,,,34,aviso,,,,,659.6551,661.0365,1,1,0.8368,,0,80,80,33,1,REAL,FAKE,,,,,,,,,,,,,,,,,
,,,,,,,,,628d14b52b5bd1d83ed1f7d2,Puerto Rican,13 or older,"no, only English or Spanish",yes,2025-07-23_05h26.28.908,empathy_intonation_perc,2024.2.4,Win32,60.24096386,628d14b52b5bd1d83ed1f7d2,687ed1b7e638a4cbf2f02089,6880aa736ea8bf4d9a5302d3,,,,,,,,,,,,,,1,,,,,,,,,,,,,,,,,,,,,,,,,,,,,,,,,,,,,,,,,,,,,,,,,,,,,,,,,22,lacayo,,,,,661.0382,662.2377,0,0,0.6519,,0,81,81,21,1,REAL,FAKE,,,,,,,,,,,,,,,,,
,,,,,,,,,628d14b52b5bd1d83ed1f7d2,Puerto Rican,13 or older,"no, only English or Spanish",yes,2025-07-23_05h26.28.908,empathy_intonation_perc,2024.2.4,Win32,60.24096386,628d14b52b5bd1d83ed1f7d2,687ed1b7e638a4cbf2f02089,6880aa736ea8bf4d9a5302d3,,,,,,,,,,,,,,1,,,,,,,,,,,,,,,,,,,,,,,,,,,,,,,,,,,,,,,,,,,,,,,,,,,,,,,,,31,pandilla,,,,,662.2389,663.8702,0,0,1.0903,,0,82,82,30,1,REAL,FAKE,,,,,,,,,,,,,,,,,
,,,,,,,,,628d14b52b5bd1d83ed1f7d2,Puerto Rican,13 or older,"no, only English or Spanish",yes,2025-07-23_05h26.28.908,empathy_intonation_perc,2024.2.4,Win32,60.24096386,628d14b52b5bd1d83ed1f7d2,687ed1b7e638a4cbf2f02089,6880aa736ea8bf4d9a5302d3,,,,,,,,,,,,,,1,,,,,,,,,,,,,,,,,,,,,,,,,,,,,,,,,,,,,,,,,,,,,,,,,,,,,,,,,38,estornudar,,,,,663.8718,665.0696,0,0,0.6767,,0,83,83,37,1,REAL,FAKE,,,,,,,,,,,,,,,,,
,,,,,,,,,628d14b52b5bd1d83ed1f7d2,Puerto Rican,13 or older,"no, only English or Spanish",yes,2025-07-23_05h26.28.908,empathy_intonation_perc,2024.2.4,Win32,60.24096386,628d14b52b5bd1d83ed1f7d2,687ed1b7e638a4cbf2f02089,6880aa736ea8bf4d9a5302d3,,,,,,,,,,,,,,1,,,,,,,,,,,,,,,,,,,,,,,,,,,,,,,,,,,,,,,,,,,,,,,,,,,,,,,,,80,hormiga,,,,,665.0714,666.3531,0,0,0.7351,,0,84,84,79,1,REAL,FAKE,,,,,,,,,,,,,,,,,
,,,,,,,,,628d14b52b5bd1d83ed1f7d2,Puerto Rican,13 or older,"no, only English or Spanish",yes,2025-07-23_05h26.28.908,empathy_intonation_perc,2024.2.4,Win32,60.24096386,628d14b52b5bd1d83ed1f7d2,687ed1b7e638a4cbf2f02089,6880aa736ea8bf4d9a5302d3,,,,,,,,,,,,,,1,,,,,,,,,,,,,,,,,,,,,,,,,,,,,,,,,,,,,,,,,,,,,,,,,,,,,,,,,13,helar,,,,,666.355,667.5025,0,0,0.6104,,0,85,85,12,1,REAL,FAKE,,,,,,,,,,,,,,,,,
,,,,,,,,,628d14b52b5bd1d83ed1f7d2,Puerto Rican,13 or older,"no, only English or Spanish",yes,2025-07-23_05h26.28.908,empathy_intonation_perc,2024.2.4,Win32,60.24096386,628d14b52b5bd1d83ed1f7d2,687ed1b7e638a4cbf2f02089,6880aa736ea8bf4d9a5302d3,,,,,,,,,,,,,,1,,,,,,,,,,,,,,,,,,,,,,,,,,,,,,,,,,,,,,,,,,,,,,,,,,,,,,,,,5,zapato,,,,,667.5041,668.7029,1,1,0.6507,,0,86,86,4,1,REAL,FAKE,,,,,,,,,,,,,,,,,
,,,,,,,,,628d14b52b5bd1d83ed1f7d2,Puerto Rican,13 or older,"no, only English or Spanish",yes,2025-07-23_05h26.28.908,empathy_intonation_perc,2024.2.4,Win32,60.24096386,628d14b52b5bd1d83ed1f7d2,687ed1b7e638a4cbf2f02089,6880aa736ea8bf4d9a5302d3,,,,,,,,,,,,,,0,,,,,,,,,,,,,,,,,,,,,,,,,,,,,,,,,,,,,,,,,,,,,,,,,,,,,,,,,58,plaudir,,,,,668.7043,670.0371,0,1,0.7892,,0,87,87,57,1,REAL,FAKE,,,,,,,,,,,,,,,,,
,,,,,,,,,628d14b52b5bd1d83ed1f7d2,Puerto Rican,13 or older,"no, only English or Spanish",yes,2025-07-23_05h26.28.908,empathy_intonation_perc,2024.2.4,Win32,60.24096386,628d14b52b5bd1d83ed1f7d2,687ed1b7e638a4cbf2f02089,6880aa736ea8bf4d9a5302d3,,,,,,,,,,,,,,1,,,,,,,,,,,,,,,,,,,,,,,,,,,,,,,,,,,,,,,,,,,,,,,,,,,,,,,,,55,nevar,,,,,670.0381,671.4367,0,0,0.88,,0,88,88,54,1,REAL,FAKE,,,,,,,,,,,,,,,,,
,,,,,,,,,628d14b52b5bd1d83ed1f7d2,Puerto Rican,13 or older,"no, only English or Spanish",yes,2025-07-23_05h26.28.908,empathy_intonation_perc,2024.2.4,Win32,60.24096386,628d14b52b5bd1d83ed1f7d2,687ed1b7e638a4cbf2f02089,6880aa736ea8bf4d9a5302d3,,,,,,,,,,,,,,1,,,,,,,,,,,,,,,,,,,,,,,,,,,,,,,,,,,,,,,,,,,,,,,,,,,,,,,,,28,merodear,,,,,671.4377,672.7696,0,0,0.7841,,0,89,89,27,1,REAL,FAKE,,,,,,,,,,,,,,,,,
,,,,,,,,,628d14b52b5bd1d83ed1f7d2,Puerto Rican,13 or older,"no, only English or Spanish",yes,2025-07-23_05h26.28.908,empathy_intonation_perc,2024.2.4,Win32,60.24096386,628d14b52b5bd1d83ed1f7d2,687ed1b7e638a4cbf2f02089,6880aa736ea8bf4d9a5302d3,,,,,,,,,,,,,,1,,,,,,,,,,,,,,,,,,,,,,,,,,,,,,,,,,,,,,,,,,,,,,,,,,,,,,,,,90,clavel,,,,,672.7709,674.4565,0,0,1.1497,,0,90,90,89,1,REAL,FAKE,,,,,,,,,,,,,,,,,
,,,,,,,,,628d14b52b5bd1d83ed1f7d2,Puerto Rican,13 or older,"no, only English or Spanish",yes,2025-07-23_05h26.28.908,empathy_intonation_perc,2024.2.4,Win32,60.24096386,628d14b52b5bd1d83ed1f7d2,687ed1b7e638a4cbf2f02089,6880aa736ea8bf4d9a5302d3,,,,,,,,,,,,,,0,,,,,,,,,,,,,,,,,,,,,,,,,,,,,,,,,,,,,,,,,,,,,,,,,,,,,,,,,10,antar,,,,,674.4574,676.2361,1,0,1.2337,,0,91,91,9,1,REAL,FAKE,,,,,,,,,,,,,,,,,
,,,,,,,,,628d14b52b5bd1d83ed1f7d2,Puerto Rican,13 or older,"no, only English or Spanish",yes,2025-07-23_05h26.28.908,empathy_intonation_perc,2024.2.4,Win32,60.24096386,628d14b52b5bd1d83ed1f7d2,687ed1b7e638a4cbf2f02089,6880aa736ea8bf4d9a5302d3,,,,,,,,,,,,,,,,,,,,,,,,,,,,,,,,,,,,,,,,,,,,,,,,,,,,,,,,,,,,,,,,,,,,,,,,,,,,,,,,,,,,,,,,,,676.2368,682.12,,,,,,,,,,,,,,,
,,,,,,,,,628d14b52b5bd1d83ed1f7d2,Puerto Rican,13 or older,"no, only English or Spanish",yes,2025-07-23_05h26.28.908,empathy_intonation_perc,2024.2.4,Win32,60.24096386,628d14b52b5bd1d83ed1f7d2,687ed1b7e638a4cbf2f02089,6880aa736ea8bf4d9a5302d3,,,,,,,,,,,,,1,,,,,,,,,,,,,,,,,,,,,,,,,,,,,,,,,,,,,,,,,,,,,,,,,,,,,,,,,,,,,,,,,,,,,,,,,,,,,,,682.1365,686.8515,strongly agree,0,0,0,0,1,I can easily tell if someone else wants to enter a conversation.,1,0,1,0,,
,,,,,,,,,628d14b52b5bd1d83ed1f7d2,Puerto Rican,13 or older,"no, only English or Spanish",yes,2025-07-23_05h26.28.908,empathy_intonation_perc,2024.2.4,Win32,60.24096386,628d14b52b5bd1d83ed1f7d2,687ed1b7e638a4cbf2f02089,6880aa736ea8bf4d9a5302d3,,,,,,,,,,,,,2,,,,,,,,,,,,,,,,,,,,,,,,,,,,,,,,,,,,,,,,,,,,,,,,,,,,,,,,,,,,,,,,,,,,,,,,,,,,,,,686.8531,689.6013,strongly disagree,0,1,1,1,1,I prefer animals to humans.,0,1,0,0,,
,,,,,,,,,628d14b52b5bd1d83ed1f7d2,Puerto Rican,13 or older,"no, only English or Spanish",yes,2025-07-23_05h26.28.908,empathy_intonation_perc,2024.2.4,Win32,60.24096386,628d14b52b5bd1d83ed1f7d2,687ed1b7e638a4cbf2f02089,6880aa736ea8bf4d9a5302d3,,,,,,,,,,,,,3,,,,,,,,,,,,,,,,,,,,,,,,,,,,,,,,,,,,,,,,,,,,,,,,,,,,,,,,,,,,,,,,,,,,,,,,,,,,,,,689.603,692.0842,slightly disagree,0,2,2,2,1,I try to keep up with the current trends and fashions.,0,1,0,0,,
,,,,,,,,,628d14b52b5bd1d83ed1f7d2,Puerto Rican,13 or older,"no, only English or Spanish",yes,2025-07-23_05h26.28.908,empathy_intonation_perc,2024.2.4,Win32,60.24096386,628d14b52b5bd1d83ed1f7d2,687ed1b7e638a4cbf2f02089,6880aa736ea8bf4d9a5302d3,,,,,,,,,,,,,4,,,,,,,,,,,,,,,,,,,,,,,,,,,,,,,,,,,,,,,,,,,,,,,,,,,,,,,,,,,,,,,,,,,,,,,,,,,,,,,692.0864,696.8007,strongly disagree,0,3,3,3,1,"I find it difficult to explain to others things that I understand easily,   when they don't understand it first time.",1,0,0,1,,
,,,,,,,,,628d14b52b5bd1d83ed1f7d2,Puerto Rican,13 or older,"no, only English or Spanish",yes,2025-07-23_05h26.28.908,empathy_intonation_perc,2024.2.4,Win32,60.24096386,628d14b52b5bd1d83ed1f7d2,687ed1b7e638a4cbf2f02089,6880aa736ea8bf4d9a5302d3,,,,,,,,,,,,,5,,,,,,,,,,,,,,,,,,,,,,,,,,,,,,,,,,,,,,,,,,,,,,,,,,,,,,,,,,,,,,,,,,,,,,,,,,,,,,,696.8017,700.1006,slightly agree,0,4,4,4,1,I dream most nights.,0,1,0,0,,
,,,,,,,,,628d14b52b5bd1d83ed1f7d2,Puerto Rican,13 or older,"no, only English or Spanish",yes,2025-07-23_05h26.28.908,empathy_intonation_perc,2024.2.4,Win32,60.24096386,628d14b52b5bd1d83ed1f7d2,687ed1b7e638a4cbf2f02089,6880aa736ea8bf4d9a5302d3,,,,,,,,,,,,,6,,,,,,,,,,,,,,,,,,,,,,,,,,,,,,,,,,,,,,,,,,,,,,,,,,,,,,,,,,,,,,,,,,,,,,,,,,,,,,,700.1016,701.8005,slightly disagree,0,5,5,5,1,I really enjoy caring for other people.,1,0,1,0,,
,,,,,,,,,628d14b52b5bd1d83ed1f7d2,Puerto Rican,13 or older,"no, only English or Spanish",yes,2025-07-23_05h26.28.908,empathy_intonation_perc,2024.2.4,Win32,60.24096386,628d14b52b5bd1d83ed1f7d2,687ed1b7e638a4cbf2f02089,6880aa736ea8bf4d9a5302d3,,,,,,,,,,,,,7,,,,,,,,,,,,,,,,,,,,,,,,,,,,,,,,,,,,,,,,,,,,,,,,,,,,,,,,,,,,,,,,,,,,,,,,,,,,,,,701.8016,704.1337,strongly agree,0,6,6,6,1,I try to solve my own problems rather than discussing them with others.,0,1,0,0,,
