instructions_exposure.started,instructions_exposure.stopped,instructions_exposure_loop.thisRepN,instructions_exposure_loop.thisTrialN,instructions_exposure_loop.thisN,instructions_exposure_loop.thisIndex,instructions_exposure_loop.ran,instructions_text,continue_text,participant_id,"What variety of Spanish are you most familiar with? (e.g., Peruvian, Spanish, Mexican)",At what age did you begin learning Spanish?,Are you proficient in any languages other than English/Spanish?,"Are you familiar with Caribbean (e.g., Caribbean, Puerto Rican) or Galician Spanish?",date,expName,psychopyVersion,OS,frameRate,id,study_id,session,trial_exposure.started,trial_exposure.stopped,key_resp_exposure.keys,key_resp_exposure.corr,key_resp_exposure.rt,key_resp_exposure.duration,key_resp.keys,exposure_loop.thisRepN,exposure_loop.thisTrialN,exposure_loop.thisN,exposure_loop.thisIndex,exposure_loop.ran,item_num,correct_response,question,path,duration,instructions_2afc.started,instructions_2afc.stopped,instructions_2afc_loop.thisRepN,instructions_2afc_loop.thisTrialN,instructions_2afc_loop.thisN,instructions_2afc_loop.thisIndex,instructions_2afc_loop.ran,practice_2afc.started,practice_2afc.stopped,key_resp_2afc_practice.keys,key_resp_2afc_practice.corr,key_resp_2afc_practice.rt,key_resp_2afc_practice.duration,trials_2afc_practice_loop.thisRepN,trials_2afc_practice_loop.thisTrialN,trials_2afc_practice_loop.thisN,trials_2afc_practice_loop.thisIndex,trials_2afc_practice_loop.ran,check_2afc.started,check_2afc.stopped,trial_2afc.started,trial_2afc.stopped,key_resp_2afc_trial.keys,key_resp_2afc_trial.corr,key_resp_2afc_trial.rt,key_resp_2afc_trial.duration,trials_2afc_loop.thisRepN,trials_2afc_loop.thisTrialN,trials_2afc_loop.thisN,trials_2afc_loop.thisIndex,trials_2afc_loop.ran,target,variety,instructions_lextale.started,instructions_lextale.stopped,instructions_lextale_loop.thisRepN,instructions_lextale_loop.thisTrialN,instructions_lextale_loop.thisN,instructions_lextale_loop.thisIndex,instructions_lextale_loop.ran,practice_lextale.started,practice_lextale.stopped,key_resp_lextale_practice.keys,key_resp_lextale_practice.corr,key_resp_lextale_practice.rt,key_resp_lextale_practice.duration,practice_feedback_lextale.started,practice_feedback_lextale.stopped,trials_lextale_practice_loop.thisRepN,trials_lextale_practice_loop.thisTrialN,trials_lextale_practice_loop.thisN,trials_lextale_practice_loop.thisIndex,trials_lextale_practice_loop.ran,stim,word,prac_button_real,prac_button_false,check_lextale.started,check_lextale.stopped,trial_lextale.started,trial_lextale.stopped,key_resp_lextale_trial.keys,key_resp_lextale_trial.corr,key_resp_lextale_trial.rt,key_resp_lextale_trial.duration,trials_lextale_loop.thisRepN,trials_lextale_loop.thisTrialN,trials_lextale_loop.thisN,trials_lextale_loop.thisIndex,trials_lextale_loop.ran,button_real,button_false,instructions_eq.started,instructions_eq.stopped,trial_eq.started,trial_eq.stopped,slider_eq_trial.response,trials_eq_loop.thisRepN,trials_eq_loop.thisTrialN,trials_eq_loop.thisN,trials_eq_loop.thisIndex,trials_eq_loop.ran,item,is_test_item,is_distractor,is_agree_score,is_disagree_score,end_exp.started,end_exp.stopped
0.015,2.0718,0,0,0,0,1,"In the following task, you are going to hear a series of conversations.", (press the space bar to continue),62ac8c4bf1245233d71d0fd6,Mexican,13 or older,"yes, I am fluent in another language",no,2026-01-21_11h17.16.244,empathy_intonation_perc,2024.2.4,Win32,59.88023952,62ac8c4bf1245233d71d0fd6,6967d75d9f4867d525f9ffbe,6970fbf02b4a100513373f88,,,,,,,,,,,,,,,,,,,,,,,,,,,,,,,,,,,,,,,,,,,,,,,,,,,,,,,,,,,,,,,,,,,,,,,,,,,,,,,,,,,,,,,,,,,,,,,,,,,,,,,,,,
2.0726,2.9552,0,1,1,1,1,It is okay if you don't not 100% understand them!, (press the space bar to continue),62ac8c4bf1245233d71d0fd6,Mexican,13 or older,"yes, I am fluent in another language",no,2026-01-21_11h17.16.244,empathy_intonation_perc,2024.2.4,Win32,59.88023952,62ac8c4bf1245233d71d0fd6,6967d75d9f4867d525f9ffbe,6970fbf02b4a100513373f88,,,,,,,,,,,,,,,,,,,,,,,,,,,,,,,,,,,,,,,,,,,,,,,,,,,,,,,,,,,,,,,,,,,,,,,,,,,,,,,,,,,,,,,,,,,,,,,,,,,,,,,,,,
2.9573,4.3391,0,2,2,2,1,"After, you will read a sentence about the conversation and decide if it's true or false.", (press the space bar to continue),62ac8c4bf1245233d71d0fd6,Mexican,13 or older,"yes, I am fluent in another language",no,2026-01-21_11h17.16.244,empathy_intonation_perc,2024.2.4,Win32,59.88023952,62ac8c4bf1245233d71d0fd6,6967d75d9f4867d525f9ffbe,6970fbf02b4a100513373f88,,,,,,,,,,,,,,,,,,,,,,,,,,,,,,,,,,,,,,,,,,,,,,,,,,,,,,,,,,,,,,,,,,,,,,,,,,,,,,,,,,,,,,,,,,,,,,,,,,,,,,,,,,
4.3404,5.0722,0,3,3,3,1,"If it's true, press '1' (True) and if it's false press '0' (False).", (press the space bar to continue),62ac8c4bf1245233d71d0fd6,Mexican,13 or older,"yes, I am fluent in another language",no,2026-01-21_11h17.16.244,empathy_intonation_perc,2024.2.4,Win32,59.88023952,62ac8c4bf1245233d71d0fd6,6967d75d9f4867d525f9ffbe,6970fbf02b4a100513373f88,,,,,,,,,,,,,,,,,,,,,,,,,,,,,,,,,,,,,,,,,,,,,,,,,,,,,,,,,,,,,,,,,,,,,,,,,,,,,,,,,,,,,,,,,,,,,,,,,,,,,,,,,,
,,,,,,,,,62ac8c4bf1245233d71d0fd6,Mexican,13 or older,"yes, I am fluent in another language",no,2026-01-21_11h17.16.244,empathy_intonation_perc,2024.2.4,Win32,59.88023952,62ac8c4bf1245233d71d0fd6,6967d75d9f4867d525f9ffbe,6970fbf02b4a100513373f88,5.0768,70.0709,1,1,4.9511,,,0,0,0,1,1,2,1,The mom asked the daughter if she already went to the supermarket.,./stim/exposure_wavs/dr_stimuli_convo.wav,60,,,,,,,,,,,,,,,,,,,,,,,,,,,,,,,,,,,,,,,,,,,,,,,,,,,,,,,,,,,,,,,,,,,,,,,,,,,,,,,,,,,,,,,,,
,,,,,,,,,62ac8c4bf1245233d71d0fd6,Mexican,13 or older,"yes, I am fluent in another language",no,2026-01-21_11h17.16.244,empathy_intonation_perc,2024.2.4,Win32,59.88023952,62ac8c4bf1245233d71d0fd6,6967d75d9f4867d525f9ffbe,6970fbf02b4a100513373f88,70.0723,110.5209,0,1,4.4308,,,0,1,1,2,1,3,0,The mom already has rice.,./stim/exposure_wavs/pr_stimuli_convo.wav,36,,,,,,,,,,,,,,,,,,,,,,,,,,,,,,,,,,,,,,,,,,,,,,,,,,,,,,,,,,,,,,,,,,,,,,,,,,,,,,,,,,,,,,,,,
,,,,,,,,,62ac8c4bf1245233d71d0fd6,Mexican,13 or older,"yes, I am fluent in another language",no,2026-01-21_11h17.16.244,empathy_intonation_perc,2024.2.4,Win32,59.88023952,62ac8c4bf1245233d71d0fd6,6967d75d9f4867d525f9ffbe,6970fbf02b4a100513373f88,110.5223,160.7711,0,0,3.2228,,,0,2,2,0,1,1,1,The son asked the mom if Aunt Marina is okay.,./stim/exposure_wavs/ga_stimuli_convo.wav,47,,,,,,,,,,,,,,,,,,,,,,,,,,,,,,,,,,,,,,,,,,,,,,,,,,,,,,,,,,,,,,,,,,,,,,,,,,,,,,,,,,,,,,,,,
,,,,,,,"In the following task you are going to hear a series of utterances. 

  You will decide if the utterances sound like questions or not using your keyboard.", (press the spacebar to continue),62ac8c4bf1245233d71d0fd6,Mexican,13 or older,"yes, I am fluent in another language",no,2026-01-21_11h17.16.244,empathy_intonation_perc,2024.2.4,Win32,59.88023952,62ac8c4bf1245233d71d0fd6,6967d75d9f4867d525f9ffbe,6970fbf02b4a100513373f88,,,,,,,,,,,,,,,,,,160.7747,164.771,0,0,0,0,1,,,,,,,,,,,,,,,,,,,,,,,,,,,,,,,,,,,,,,,,,,,,,,,,,,,,,,,,,,,,,,,,,,,,,,,,,,,,,,,,,,
,,,,,,,"If you believe the utterance is a question, type '1' (for 'yes') and if you do not 
  believe it is a question type '0' (for 'no').

  Let's practice a bit...", (press the spacebar to continue),62ac8c4bf1245233d71d0fd6,Mexican,13 or older,"yes, I am fluent in another language",no,2026-01-21_11h17.16.244,empathy_intonation_perc,2024.2.4,Win32,59.88023952,62ac8c4bf1245233d71d0fd6,6967d75d9f4867d525f9ffbe,6970fbf02b4a100513373f88,,,,,,,,,,,,,,,,,,164.772,166.6708,0,1,1,1,1,,,,,,,,,,,,,,,,,,,,,,,,,,,,,,,,,,,,,,,,,,,,,,,,,,,,,,,,,,,,,,,,,,,,,,,,,,,,,,,,,,
,,,,,,,,,62ac8c4bf1245233d71d0fd6,Mexican,13 or older,"yes, I am fluent in another language",no,2026-01-21_11h17.16.244,empathy_intonation_perc,2024.2.4,Win32,59.88023952,62ac8c4bf1245233d71d0fd6,6967d75d9f4867d525f9ffbe,6970fbf02b4a100513373f88,,,,,,,,,,,,,,1,,./stim/wavs/mexican_question_filler_Felipe-no-tiene-contrasena.wav,,,,,,,,,166.6745,170.7545,1,1,3.5508,,0,0,0,3,1,,,,,,,,,,,,,,,,,,,,,,,,,,,,,,,,,,,,,,,,,,,,,,,,,,,,,,,,,,,,,,,,,,,,,,,
,,,,,,,,,62ac8c4bf1245233d71d0fd6,Mexican,13 or older,"yes, I am fluent in another language",no,2026-01-21_11h17.16.244,empathy_intonation_perc,2024.2.4,Win32,59.88023952,62ac8c4bf1245233d71d0fd6,6967d75d9f4867d525f9ffbe,6970fbf02b4a100513373f88,,,,,,,,,,,,,,0,,./stim/wavs/puertorican_statement_filler_La-nina-pinta-con-su-amiga.wav,,,,,,,,,170.755,173.3383,0,1,2.0547,,0,1,1,7,1,,,,,,,,,,,,,,,,,,,,,,,,,,,,,,,,,,,,,,,,,,,,,,,,,,,,,,,,,,,,,,,,,,,,,,,
,,,,,,,,,62ac8c4bf1245233d71d0fd6,Mexican,13 or older,"yes, I am fluent in another language",no,2026-01-21_11h17.16.244,empathy_intonation_perc,2024.2.4,Win32,59.88023952,62ac8c4bf1245233d71d0fd6,6967d75d9f4867d525f9ffbe,6970fbf02b4a100513373f88,,,,,,,,,,,,,,0,,./stim/wavs/peruvian_statement_filler_El-nino-habla-con-su-madre.wav,,,,,,,,,173.3388,176.2212,0,1,2.3603,,0,2,2,6,1,,,,,,,,,,,,,,,,,,,,,,,,,,,,,,,,,,,,,,,,,,,,,,,,,,,,,,,,,,,,,,,,,,,,,,,
,,,,,,,,,62ac8c4bf1245233d71d0fd6,Mexican,13 or older,"yes, I am fluent in another language",no,2026-01-21_11h17.16.244,empathy_intonation_perc,2024.2.4,Win32,59.88023952,62ac8c4bf1245233d71d0fd6,6967d75d9f4867d525f9ffbe,6970fbf02b4a100513373f88,,,,,,,,,,,,,,1,,./stim/wavs/argentine_question_filler_Mi-vecino-habla-mucho.wav,,,,,,,,,176.2215,178.4715,1,1,1.7169,,0,3,3,1,1,,,,,,,,,,,,,,,,,,,,,,,,,,,,,,,,,,,,,,,,,,,,,,,,,,,,,,,,,,,,,,,,,,,,,,,
,,,,,,,,,62ac8c4bf1245233d71d0fd6,Mexican,13 or older,"yes, I am fluent in another language",no,2026-01-21_11h17.16.244,empathy_intonation_perc,2024.2.4,Win32,59.88023952,62ac8c4bf1245233d71d0fd6,6967d75d9f4867d525f9ffbe,6970fbf02b4a100513373f88,,,,,,,,,,,,,,0,,./stim/wavs/andalusian_statement_filler_Alberto-nunca-se-afeita.wav,,,,,,,,,178.4718,181.3043,0,1,2.3018,,0,4,4,5,1,,,,,,,,,,,,,,,,,,,,,,,,,,,,,,,,,,,,,,,,,,,,,,,,,,,,,,,,,,,,,,,,,,,,,,,
,,,,,,,,,62ac8c4bf1245233d71d0fd6,Mexican,13 or older,"yes, I am fluent in another language",no,2026-01-21_11h17.16.244,empathy_intonation_perc,2024.2.4,Win32,59.88023952,62ac8c4bf1245233d71d0fd6,6967d75d9f4867d525f9ffbe,6970fbf02b4a100513373f88,,,,,,,,,,,,,,1,,./stim/wavs/castilian_question_filler_Mi-esposo-conoce-al-chico.wav,,,,,,,,,181.3045,197.4878,1,1,15.6546,,0,5,5,0,1,,,,,,,,,,,,,,,,,,,,,,,,,,,,,,,,,,,,,,,,,,,,,,,,,,,,,,,,,,,,,,,,,,,,,,,
,,,,,,,,,62ac8c4bf1245233d71d0fd6,Mexican,13 or older,"yes, I am fluent in another language",no,2026-01-21_11h17.16.244,empathy_intonation_perc,2024.2.4,Win32,59.88023952,62ac8c4bf1245233d71d0fd6,6967d75d9f4867d525f9ffbe,6970fbf02b4a100513373f88,,,,,,,,,,,,,,0,,./stim/wavs/cuban_statement_filler_Cocinabas-por-la-noche.wav,,,,,,,,,197.4884,202.5049,1,0,4.4853,,0,6,6,4,1,,,,,,,,,,,,,,,,,,,,,,,,,,,,,,,,,,,,,,,,,,,,,,,,,,,,,,,,,,,,,,,,,,,,,,,
,,,,,,,,,62ac8c4bf1245233d71d0fd6,Mexican,13 or older,"yes, I am fluent in another language",no,2026-01-21_11h17.16.244,empathy_intonation_perc,2024.2.4,Win32,59.88023952,62ac8c4bf1245233d71d0fd6,6967d75d9f4867d525f9ffbe,6970fbf02b4a100513373f88,,,,,,,,,,,,,,1,,./stim/wavs/chilean_question_filler_Mi-padre-cantaba-bien.wav,,,,,,,,,202.5057,205.5876,1,1,2.5581,,0,7,7,2,1,,,,,,,,,,,,,,,,,,,,,,,,,,,,,,,,,,,,,,,,,,,,,,,,,,,,,,,,,,,,,,,,,,,,,,,
,,,,,,,,,62ac8c4bf1245233d71d0fd6,Mexican,13 or older,"yes, I am fluent in another language",no,2026-01-21_11h17.16.244,empathy_intonation_perc,2024.2.4,Win32,59.88023952,62ac8c4bf1245233d71d0fd6,6967d75d9f4867d525f9ffbe,6970fbf02b4a100513373f88,,,,,,,,,,,,,,,,,,,,,,,,,,,,,,,,,,,,205.5879,208.7547,,,,,,,,,,,,,,,,,,,,,,,,,,,,,,,,,,,,,,,,,,,,,,,,,,,,,,,,,,,,,,,,,,,,,
,,,,,,,,,62ac8c4bf1245233d71d0fd6,Mexican,13 or older,"yes, I am fluent in another language",no,2026-01-21_11h17.16.244,empathy_intonation_perc,2024.2.4,Win32,59.88023952,62ac8c4bf1245233d71d0fd6,6967d75d9f4867d525f9ffbe,6970fbf02b4a100513373f88,,,,,,,,,,,,,73,0,,./stim/wavs/castilian_mismatch_declarative-broad-focus_Mi-tia-odia-la-lluvia.wav,,,,,,,,,,,,,,,,,,,,,,208.7599,211.1542,0,1,1.8672,,0,0,0,72,1,0,castilian,,,,,,,,,,,,,,,,,,,,,,,,,,,,,,,,,,,,,,,,,,,,,,,,,,,,,,,,
,,,,,,,,,62ac8c4bf1245233d71d0fd6,Mexican,13 or older,"yes, I am fluent in another language",no,2026-01-21_11h17.16.244,empathy_intonation_perc,2024.2.4,Win32,59.88023952,62ac8c4bf1245233d71d0fd6,6967d75d9f4867d525f9ffbe,6970fbf02b4a100513373f88,,,,,,,,,,,,,69,0,,./stim/wavs/castilian_mismatch_declarative-broad-focus_El-nino-oye-el-rio.wav,,,,,,,,,,,,,,,,,,,,,,211.1546,213.471,0,1,1.7885,,0,1,1,68,1,0,castilian,,,,,,,,,,,,,,,,,,,,,,,,,,,,,,,,,,,,,,,,,,,,,,,,,,,,,,,,
,,,,,,,,,62ac8c4bf1245233d71d0fd6,Mexican,13 or older,"yes, I am fluent in another language",no,2026-01-21_11h17.16.244,empathy_intonation_perc,2024.2.4,Win32,59.88023952,62ac8c4bf1245233d71d0fd6,6967d75d9f4867d525f9ffbe,6970fbf02b4a100513373f88,,,,,,,,,,,,,29,1,,./stim/wavs/castilian_mismatch_interrogative-total-yn_Mi-tia-odia-la-lluvia.wav,,,,,,,,,,,,,,,,,,,,,,213.4714,215.7546,1,1,1.7505,,0,2,2,28,1,0,castilian,,,,,,,,,,,,,,,,,,,,,,,,,,,,,,,,,,,,,,,,,,,,,,,,,,,,,,,,
,,,,,,,,,62ac8c4bf1245233d71d0fd6,Mexican,13 or older,"yes, I am fluent in another language",no,2026-01-21_11h17.16.244,empathy_intonation_perc,2024.2.4,Win32,59.88023952,62ac8c4bf1245233d71d0fd6,6967d75d9f4867d525f9ffbe,6970fbf02b4a100513373f88,,,,,,,,,,,,,85,0,,./stim/wavs/puertorican_mismatch_declarative-broad-focus_El-hombre-mira-la-luna.wav,,,,,,,,,,,,,,,,,,,,,,215.7549,217.9047,0,1,1.6175,,0,3,3,84,1,0,puertorican,,,,,,,,,,,,,,,,,,,,,,,,,,,,,,,,,,,,,,,,,,,,,,,,,,,,,,,,
,,,,,,,,,62ac8c4bf1245233d71d0fd6,Mexican,13 or older,"yes, I am fluent in another language",no,2026-01-21_11h17.16.244,empathy_intonation_perc,2024.2.4,Win32,59.88023952,62ac8c4bf1245233d71d0fd6,6967d75d9f4867d525f9ffbe,6970fbf02b4a100513373f88,,,,,,,,,,,,,50,0,,./stim/wavs/castilian_match_declarative-broad-focus_Marta-abre-el-regalo.wav,,,,,,,,,,,,,,,,,,,,,,217.905,220.1878,0,1,1.7595,,0,4,4,49,1,0,castilian,,,,,,,,,,,,,,,,,,,,,,,,,,,,,,,,,,,,,,,,,,,,,,,,,,,,,,,,
,,,,,,,,,62ac8c4bf1245233d71d0fd6,Mexican,13 or older,"yes, I am fluent in another language",no,2026-01-21_11h17.16.244,empathy_intonation_perc,2024.2.4,Win32,59.88023952,62ac8c4bf1245233d71d0fd6,6967d75d9f4867d525f9ffbe,6970fbf02b4a100513373f88,,,,,,,,,,,,,74,0,,./stim/wavs/cuban_mismatch_declarative-broad-focus_El-bebe-comia-muy-bien.wav,,,,,,,,,,,,,,,,,,,,,,220.188,222.0875,0,1,1.3676,,0,5,5,73,1,0,cuban,,,,,,,,,,,,,,,,,,,,,,,,,,,,,,,,,,,,,,,,,,,,,,,,,,,,,,,,
,,,,,,,,,62ac8c4bf1245233d71d0fd6,Mexican,13 or older,"yes, I am fluent in another language",no,2026-01-21_11h17.16.244,empathy_intonation_perc,2024.2.4,Win32,59.88023952,62ac8c4bf1245233d71d0fd6,6967d75d9f4867d525f9ffbe,6970fbf02b4a100513373f88,,,,,,,,,,,,,5,1,,./stim/wavs/castilian_match_interrogative-total-yn_Mariano-habla-del-tiempo.wav,,,,,,,,,,,,,,,,,,,,,,222.0879,224.5043,1,1,1.8868,,0,6,6,4,1,0,castilian,,,,,,,,,,,,,,,,,,,,,,,,,,,,,,,,,,,,,,,,,,,,,,,,,,,,,,,,
,,,,,,,,,62ac8c4bf1245233d71d0fd6,Mexican,13 or older,"yes, I am fluent in another language",no,2026-01-21_11h17.16.244,empathy_intonation_perc,2024.2.4,Win32,59.88023952,62ac8c4bf1245233d71d0fd6,6967d75d9f4867d525f9ffbe,6970fbf02b4a100513373f88,,,,,,,,,,,,,81,0,,./stim/wavs/mexican_mismatch_declarative-broad-focus_La-maestra-vive-en-Paris.wav,,,,,,,,,,,,,,,,,,,,,,224.5046,226.821,0,1,1.8012,,0,7,7,80,1,0,mexican,,,,,,,,,,,,,,,,,,,,,,,,,,,,,,,,,,,,,,,,,,,,,,,,,,,,,,,,
,,,,,,,,,62ac8c4bf1245233d71d0fd6,Mexican,13 or older,"yes, I am fluent in another language",no,2026-01-21_11h17.16.244,empathy_intonation_perc,2024.2.4,Win32,59.88023952,62ac8c4bf1245233d71d0fd6,6967d75d9f4867d525f9ffbe,6970fbf02b4a100513373f88,,,,,,,,,,,,,59,0,,./stim/wavs/mexican_match_declarative-broad-focus_David-leia-el-libro.wav,,,,,,,,,,,,,,,,,,,,,,226.8213,228.721,0,1,1.3762,,0,8,8,58,1,0,mexican,,,,,,,,,,,,,,,,,,,,,,,,,,,,,,,,,,,,,,,,,,,,,,,,,,,,,,,,
,,,,,,,,,62ac8c4bf1245233d71d0fd6,Mexican,13 or older,"yes, I am fluent in another language",no,2026-01-21_11h17.16.244,empathy_intonation_perc,2024.2.4,Win32,59.88023952,62ac8c4bf1245233d71d0fd6,6967d75d9f4867d525f9ffbe,6970fbf02b4a100513373f88,,,,,,,,,,,,,67,0,,./stim/wavs/puertorican_match_declarative-broad-focus_Manuela-vende-el-carro.wav,,,,,,,,,,,,,,,,,,,,,,228.7215,231.2708,0,1,2.0223,,0,9,9,66,1,0,puertorican,,,,,,,,,,,,,,,,,,,,,,,,,,,,,,,,,,,,,,,,,,,,,,,,,,,,,,,,
,,,,,,,,,62ac8c4bf1245233d71d0fd6,Mexican,13 or older,"yes, I am fluent in another language",no,2026-01-21_11h17.16.244,empathy_intonation_perc,2024.2.4,Win32,59.88023952,62ac8c4bf1245233d71d0fd6,6967d75d9f4867d525f9ffbe,6970fbf02b4a100513373f88,,,,,,,,,,,,,41,1,,./stim/wavs/puertorican_mismatch_interrogative-total-yn_El-nino-oye-el-rio.wav,,,,,,,,,,,,,,,,,,,,,,231.2711,234.5714,1,1,2.7758,,0,10,10,40,1,1,puertorican,,,,,,,,,,,,,,,,,,,,,,,,,,,,,,,,,,,,,,,,,,,,,,,,,,,,,,,,
,,,,,,,,,62ac8c4bf1245233d71d0fd6,Mexican,13 or older,"yes, I am fluent in another language",no,2026-01-21_11h17.16.244,empathy_intonation_perc,2024.2.4,Win32,59.88023952,62ac8c4bf1245233d71d0fd6,6967d75d9f4867d525f9ffbe,6970fbf02b4a100513373f88,,,,,,,,,,,,,60,0,,./stim/wavs/mexican_match_declarative-broad-focus_Emilio-ama-la-marcha.wav,,,,,,,,,,,,,,,,,,,,,,234.5717,236.7708,0,1,1.6763,,0,11,11,59,1,0,mexican,,,,,,,,,,,,,,,,,,,,,,,,,,,,,,,,,,,,,,,,,,,,,,,,,,,,,,,,
,,,,,,,,,62ac8c4bf1245233d71d0fd6,Mexican,13 or older,"yes, I am fluent in another language",no,2026-01-21_11h17.16.244,empathy_intonation_perc,2024.2.4,Win32,59.88023952,62ac8c4bf1245233d71d0fd6,6967d75d9f4867d525f9ffbe,6970fbf02b4a100513373f88,,,,,,,,,,,,,87,0,,./stim/wavs/puertorican_mismatch_declarative-broad-focus_La-maestra-vive-en-Paris.wav,,,,,,,,,,,,,,,,,,,,,,236.7711,238.9878,0,1,1.6857,,0,12,12,86,1,0,puertorican,,,,,,,,,,,,,,,,,,,,,,,,,,,,,,,,,,,,,,,,,,,,,,,,,,,,,,,,
,,,,,,,,,62ac8c4bf1245233d71d0fd6,Mexican,13 or older,"yes, I am fluent in another language",no,2026-01-21_11h17.16.244,empathy_intonation_perc,2024.2.4,Win32,59.88023952,62ac8c4bf1245233d71d0fd6,6967d75d9f4867d525f9ffbe,6970fbf02b4a100513373f88,,,,,,,,,,,,,39,1,,./stim/wavs/mexican_mismatch_interrogative-total-yn_Mi-tia-odia-la-lluvia.wav,,,,,,,,,,,,,,,,,,,,,,238.9879,241.6544,1,1,2.1326,,0,13,13,38,1,0,mexican,,,,,,,,,,,,,,,,,,,,,,,,,,,,,,,,,,,,,,,,,,,,,,,,,,,,,,,,
,,,,,,,,,62ac8c4bf1245233d71d0fd6,Mexican,13 or older,"yes, I am fluent in another language",no,2026-01-21_11h17.16.244,empathy_intonation_perc,2024.2.4,Win32,59.88023952,62ac8c4bf1245233d71d0fd6,6967d75d9f4867d525f9ffbe,6970fbf02b4a100513373f88,,,,,,,,,,,,,32,1,,./stim/wavs/cuban_mismatch_interrogative-total-yn_Mi-madre-come-la-fruta.wav,,,,,,,,,,,,,,,,,,,,,,241.6547,244.0709,0,0,1.8844,,0,14,14,31,1,1,cuban,,,,,,,,,,,,,,,,,,,,,,,,,,,,,,,,,,,,,,,,,,,,,,,,,,,,,,,,
,,,,,,,,,62ac8c4bf1245233d71d0fd6,Mexican,13 or older,"yes, I am fluent in another language",no,2026-01-21_11h17.16.244,empathy_intonation_perc,2024.2.4,Win32,59.88023952,62ac8c4bf1245233d71d0fd6,6967d75d9f4867d525f9ffbe,6970fbf02b4a100513373f88,,,,,,,,,,,,,79,0,,./stim/wavs/mexican_mismatch_declarative-broad-focus_El-bebe-comia-muy-bien.wav,,,,,,,,,,,,,,,,,,,,,,244.0713,246.8714,0,1,2.2659,,0,15,15,78,1,0,mexican,,,,,,,,,,,,,,,,,,,,,,,,,,,,,,,,,,,,,,,,,,,,,,,,,,,,,,,,
,,,,,,,,,62ac8c4bf1245233d71d0fd6,Mexican,13 or older,"yes, I am fluent in another language",no,2026-01-21_11h17.16.244,empathy_intonation_perc,2024.2.4,Win32,59.88023952,62ac8c4bf1245233d71d0fd6,6967d75d9f4867d525f9ffbe,6970fbf02b4a100513373f88,,,,,,,,,,,,,53,0,,./stim/wavs/cuban_match_declarative-broad-focus_Manuela-vende-el-carro.wav,,,,,,,,,,,,,,,,,,,,,,246.8718,250.5886,0,1,3.19,,0,16,16,52,1,0,cuban,,,,,,,,,,,,,,,,,,,,,,,,,,,,,,,,,,,,,,,,,,,,,,,,,,,,,,,,
,,,,,,,,,62ac8c4bf1245233d71d0fd6,Mexican,13 or older,"yes, I am fluent in another language",no,2026-01-21_11h17.16.244,empathy_intonation_perc,2024.2.4,Win32,59.88023952,62ac8c4bf1245233d71d0fd6,6967d75d9f4867d525f9ffbe,6970fbf02b4a100513373f88,,,,,,,,,,,,,23,1,,./stim/wavs/puertorican_match_interrogative-total-yn_Manuela-vende-el-carro.wav,,,,,,,,,,,,,,,,,,,,,,250.5895,252.6037,1,1,1.4932,,0,17,17,22,1,1,puertorican,,,,,,,,,,,,,,,,,,,,,,,,,,,,,,,,,,,,,,,,,,,,,,,,,,,,,,,,
,,,,,,,,,62ac8c4bf1245233d71d0fd6,Mexican,13 or older,"yes, I am fluent in another language",no,2026-01-21_11h17.16.244,empathy_intonation_perc,2024.2.4,Win32,59.88023952,62ac8c4bf1245233d71d0fd6,6967d75d9f4867d525f9ffbe,6970fbf02b4a100513373f88,,,,,,,,,,,,,56,0,,./stim/wavs/cuban_match_declarative-broad-focus_Marta-abre-el-regalo.wav,,,,,,,,,,,,,,,,,,,,,,252.6051,255.3544,0,1,2.241,,0,18,18,55,1,0,cuban,,,,,,,,,,,,,,,,,,,,,,,,,,,,,,,,,,,,,,,,,,,,,,,,,,,,,,,,
,,,,,,,,,62ac8c4bf1245233d71d0fd6,Mexican,13 or older,"yes, I am fluent in another language",no,2026-01-21_11h17.16.244,empathy_intonation_perc,2024.2.4,Win32,59.88023952,62ac8c4bf1245233d71d0fd6,6967d75d9f4867d525f9ffbe,6970fbf02b4a100513373f88,,,,,,,,,,,,,65,0,,./stim/wavs/puertorican_match_declarative-broad-focus_David-leia-el-libro.wav,,,,,,,,,,,,,,,,,,,,,,255.3547,257.8878,0,1,2.0045,,0,19,19,64,1,0,puertorican,,,,,,,,,,,,,,,,,,,,,,,,,,,,,,,,,,,,,,,,,,,,,,,,,,,,,,,,
,,,,,,,,,62ac8c4bf1245233d71d0fd6,Mexican,13 or older,"yes, I am fluent in another language",no,2026-01-21_11h17.16.244,empathy_intonation_perc,2024.2.4,Win32,59.88023952,62ac8c4bf1245233d71d0fd6,6967d75d9f4867d525f9ffbe,6970fbf02b4a100513373f88,,,,,,,,,,,,,42,1,,./stim/wavs/puertorican_mismatch_interrogative-total-yn_La-maestra-vive-en-Paris.wav,,,,,,,,,,,,,,,,,,,,,,257.8881,260.9373,0,0,2.5202,,0,20,20,41,1,1,puertorican,,,,,,,,,,,,,,,,,,,,,,,,,,,,,,,,,,,,,,,,,,,,,,,,,,,,,,,,
,,,,,,,,,62ac8c4bf1245233d71d0fd6,Mexican,13 or older,"yes, I am fluent in another language",no,2026-01-21_11h17.16.244,empathy_intonation_perc,2024.2.4,Win32,59.88023952,62ac8c4bf1245233d71d0fd6,6967d75d9f4867d525f9ffbe,6970fbf02b4a100513373f88,,,,,,,,,,,,,80,0,,./stim/wavs/mexican_mismatch_declarative-broad-focus_El-hombre-mira-la-luna.wav,,,,,,,,,,,,,,,,,,,,,,260.9376,264.1377,0,1,2.6708,,0,21,21,79,1,0,mexican,,,,,,,,,,,,,,,,,,,,,,,,,,,,,,,,,,,,,,,,,,,,,,,,,,,,,,,,
,,,,,,,,,62ac8c4bf1245233d71d0fd6,Mexican,13 or older,"yes, I am fluent in another language",no,2026-01-21_11h17.16.244,empathy_intonation_perc,2024.2.4,Win32,59.88023952,62ac8c4bf1245233d71d0fd6,6967d75d9f4867d525f9ffbe,6970fbf02b4a100513373f88,,,,,,,,,,,,,37,1,,./stim/wavs/mexican_mismatch_interrogative-total-yn_La-maestra-vive-en-Paris.wav,,,,,,,,,,,,,,,,,,,,,,264.1379,266.8878,1,1,2.2223,,0,22,22,36,1,0,mexican,,,,,,,,,,,,,,,,,,,,,,,,,,,,,,,,,,,,,,,,,,,,,,,,,,,,,,,,
,,,,,,,,,62ac8c4bf1245233d71d0fd6,Mexican,13 or older,"yes, I am fluent in another language",no,2026-01-21_11h17.16.244,empathy_intonation_perc,2024.2.4,Win32,59.88023952,62ac8c4bf1245233d71d0fd6,6967d75d9f4867d525f9ffbe,6970fbf02b4a100513373f88,,,,,,,,,,,,,70,0,,./stim/wavs/castilian_mismatch_declarative-broad-focus_La-maestra-vive-en-Paris.wav,,,,,,,,,,,,,,,,,,,,,,266.888,271.0543,0,1,3.6352,,0,23,23,69,1,0,castilian,,,,,,,,,,,,,,,,,,,,,,,,,,,,,,,,,,,,,,,,,,,,,,,,,,,,,,,,
,,,,,,,,,62ac8c4bf1245233d71d0fd6,Mexican,13 or older,"yes, I am fluent in another language",no,2026-01-21_11h17.16.244,empathy_intonation_perc,2024.2.4,Win32,59.88023952,62ac8c4bf1245233d71d0fd6,6967d75d9f4867d525f9ffbe,6970fbf02b4a100513373f88,,,,,,,,,,,,,11,1,,./stim/wavs/cuban_match_interrogative-total-yn_Mariano-habla-del-tiempo.wav,,,,,,,,,,,,,,,,,,,,,,271.0546,274.6377,1,1,3.0579,,0,24,24,10,1,1,cuban,,,,,,,,,,,,,,,,,,,,,,,,,,,,,,,,,,,,,,,,,,,,,,,,,,,,,,,,
,,,,,,,,,62ac8c4bf1245233d71d0fd6,Mexican,13 or older,"yes, I am fluent in another language",no,2026-01-21_11h17.16.244,empathy_intonation_perc,2024.2.4,Win32,59.88023952,62ac8c4bf1245233d71d0fd6,6967d75d9f4867d525f9ffbe,6970fbf02b4a100513373f88,,,,,,,,,,,,,17,1,,./stim/wavs/mexican_match_interrogative-total-yn_Mariano-habla-del-tiempo.wav,,,,,,,,,,,,,,,,,,,,,,274.6379,276.8374,1,1,1.6677,,0,25,25,16,1,0,mexican,,,,,,,,,,,,,,,,,,,,,,,,,,,,,,,,,,,,,,,,,,,,,,,,,,,,,,,,
,,,,,,,,,62ac8c4bf1245233d71d0fd6,Mexican,13 or older,"yes, I am fluent in another language",no,2026-01-21_11h17.16.244,empathy_intonation_perc,2024.2.4,Win32,59.88023952,62ac8c4bf1245233d71d0fd6,6967d75d9f4867d525f9ffbe,6970fbf02b4a100513373f88,,,,,,,,,,,,,31,1,,./stim/wavs/cuban_mismatch_interrogative-total-yn_El-nino-oye-el-rio.wav,,,,,,,,,,,,,,,,,,,,,,276.8376,279.2547,1,1,1.8866,,0,26,26,30,1,1,cuban,,,,,,,,,,,,,,,,,,,,,,,,,,,,,,,,,,,,,,,,,,,,,,,,,,,,,,,,
,,,,,,,,,62ac8c4bf1245233d71d0fd6,Mexican,13 or older,"yes, I am fluent in another language",no,2026-01-21_11h17.16.244,empathy_intonation_perc,2024.2.4,Win32,59.88023952,62ac8c4bf1245233d71d0fd6,6967d75d9f4867d525f9ffbe,6970fbf02b4a100513373f88,,,,,,,,,,,,,4,1,,./stim/wavs/castilian_match_interrogative-total-yn_Maria-bebe-el-vino.wav,,,,,,,,,,,,,,,,,,,,,,279.255,281.3875,1,1,1.6103,,0,27,27,3,1,0,castilian,,,,,,,,,,,,,,,,,,,,,,,,,,,,,,,,,,,,,,,,,,,,,,,,,,,,,,,,
,,,,,,,,,62ac8c4bf1245233d71d0fd6,Mexican,13 or older,"yes, I am fluent in another language",no,2026-01-21_11h17.16.244,empathy_intonation_perc,2024.2.4,Win32,59.88023952,62ac8c4bf1245233d71d0fd6,6967d75d9f4867d525f9ffbe,6970fbf02b4a100513373f88,,,,,,,,,,,,,54,0,,./stim/wavs/cuban_match_declarative-broad-focus_Maria-bebe-el-vino.wav,,,,,,,,,,,,,,,,,,,,,,281.3878,283.7547,0,1,1.8378,,0,28,28,53,1,0,cuban,,,,,,,,,,,,,,,,,,,,,,,,,,,,,,,,,,,,,,,,,,,,,,,,,,,,,,,,
,,,,,,,,,62ac8c4bf1245233d71d0fd6,Mexican,13 or older,"yes, I am fluent in another language",no,2026-01-21_11h17.16.244,empathy_intonation_perc,2024.2.4,Win32,59.88023952,62ac8c4bf1245233d71d0fd6,6967d75d9f4867d525f9ffbe,6970fbf02b4a100513373f88,,,,,,,,,,,,,55,0,,./stim/wavs/cuban_match_declarative-broad-focus_Mariano-habla-del-tiempo.wav,,,,,,,,,,,,,,,,,,,,,,283.755,286.0042,0,1,1.7261,,0,29,29,54,1,0,cuban,,,,,,,,,,,,,,,,,,,,,,,,,,,,,,,,,,,,,,,,,,,,,,,,,,,,,,,,
,,,,,,,,,62ac8c4bf1245233d71d0fd6,Mexican,13 or older,"yes, I am fluent in another language",no,2026-01-21_11h17.16.244,empathy_intonation_perc,2024.2.4,Win32,59.88023952,62ac8c4bf1245233d71d0fd6,6967d75d9f4867d525f9ffbe,6970fbf02b4a100513373f88,,,,,,,,,,,,,44,1,,./stim/wavs/puertorican_mismatch_interrogative-total-yn_Mi-madre-come-la-fruta.wav,,,,,,,,,,,,,,,,,,,,,,286.0045,288.1711,0,0,1.6366,,0,30,30,43,1,1,puertorican,,,,,,,,,,,,,,,,,,,,,,,,,,,,,,,,,,,,,,,,,,,,,,,,,,,,,,,,
,,,,,,,,,62ac8c4bf1245233d71d0fd6,Mexican,13 or older,"yes, I am fluent in another language",no,2026-01-21_11h17.16.244,empathy_intonation_perc,2024.2.4,Win32,59.88023952,62ac8c4bf1245233d71d0fd6,6967d75d9f4867d525f9ffbe,6970fbf02b4a100513373f88,,,,,,,,,,,,,21,1,,./stim/wavs/puertorican_match_interrogative-total-yn_David-leia-el-libro.wav,,,,,,,,,,,,,,,,,,,,,,288.1713,290.504,1,1,1.7999,,0,31,31,20,1,1,puertorican,,,,,,,,,,,,,,,,,,,,,,,,,,,,,,,,,,,,,,,,,,,,,,,,,,,,,,,,
,,,,,,,,,62ac8c4bf1245233d71d0fd6,Mexican,13 or older,"yes, I am fluent in another language",no,2026-01-21_11h17.16.244,empathy_intonation_perc,2024.2.4,Win32,59.88023952,62ac8c4bf1245233d71d0fd6,6967d75d9f4867d525f9ffbe,6970fbf02b4a100513373f88,,,,,,,,,,,,,64,0,,./stim/wavs/puertorican_match_declarative-broad-focus_Daniel-iba-a-Bolivia.wav,,,,,,,,,,,,,,,,,,,,,,290.5044,292.5708,0,1,1.5541,,0,32,32,63,1,0,puertorican,,,,,,,,,,,,,,,,,,,,,,,,,,,,,,,,,,,,,,,,,,,,,,,,,,,,,,,,
,,,,,,,,,62ac8c4bf1245233d71d0fd6,Mexican,13 or older,"yes, I am fluent in another language",no,2026-01-21_11h17.16.244,empathy_intonation_perc,2024.2.4,Win32,59.88023952,62ac8c4bf1245233d71d0fd6,6967d75d9f4867d525f9ffbe,6970fbf02b4a100513373f88,,,,,,,,,,,,,78,0,,./stim/wavs/cuban_mismatch_declarative-broad-focus_Mi-tia-odia-la-lluvia.wav,,,,,,,,,,,,,,,,,,,,,,292.5713,294.7377,0,1,1.6487,,0,33,33,77,1,0,cuban,,,,,,,,,,,,,,,,,,,,,,,,,,,,,,,,,,,,,,,,,,,,,,,,,,,,,,,,
,,,,,,,,,62ac8c4bf1245233d71d0fd6,Mexican,13 or older,"yes, I am fluent in another language",no,2026-01-21_11h17.16.244,empathy_intonation_perc,2024.2.4,Win32,59.88023952,62ac8c4bf1245233d71d0fd6,6967d75d9f4867d525f9ffbe,6970fbf02b4a100513373f88,,,,,,,,,,,,,77,0,,./stim/wavs/cuban_mismatch_declarative-broad-focus_Mi-novio-viene-del-lago.wav,,,,,,,,,,,,,,,,,,,,,,294.7379,297.1874,0,1,1.9163,,0,34,34,76,1,0,cuban,,,,,,,,,,,,,,,,,,,,,,,,,,,,,,,,,,,,,,,,,,,,,,,,,,,,,,,,
,,,,,,,,,62ac8c4bf1245233d71d0fd6,Mexican,13 or older,"yes, I am fluent in another language",no,2026-01-21_11h17.16.244,empathy_intonation_perc,2024.2.4,Win32,59.88023952,62ac8c4bf1245233d71d0fd6,6967d75d9f4867d525f9ffbe,6970fbf02b4a100513373f88,,,,,,,,,,,,,28,1,,./stim/wavs/castilian_mismatch_interrogative-total-yn_Mi-novio-viene-del-lago.wav,,,,,,,,,,,,,,,,,,,,,,297.1879,299.4377,1,1,1.7161,,0,35,35,27,1,0,castilian,,,,,,,,,,,,,,,,,,,,,,,,,,,,,,,,,,,,,,,,,,,,,,,,,,,,,,,,
,,,,,,,,,62ac8c4bf1245233d71d0fd6,Mexican,13 or older,"yes, I am fluent in another language",no,2026-01-21_11h17.16.244,empathy_intonation_perc,2024.2.4,Win32,59.88023952,62ac8c4bf1245233d71d0fd6,6967d75d9f4867d525f9ffbe,6970fbf02b4a100513373f88,,,,,,,,,,,,,27,1,,./stim/wavs/castilian_mismatch_interrogative-total-yn_Mi-madre-come-la-fruta.wav,,,,,,,,,,,,,,,,,,,,,,299.4383,301.8379,1,1,1.8664,,0,36,36,26,1,0,castilian,,,,,,,,,,,,,,,,,,,,,,,,,,,,,,,,,,,,,,,,,,,,,,,,,,,,,,,,
,,,,,,,,,62ac8c4bf1245233d71d0fd6,Mexican,13 or older,"yes, I am fluent in another language",no,2026-01-21_11h17.16.244,empathy_intonation_perc,2024.2.4,Win32,59.88023952,62ac8c4bf1245233d71d0fd6,6967d75d9f4867d525f9ffbe,6970fbf02b4a100513373f88,,,,,,,,,,,,,25,1,,./stim/wavs/castilian_mismatch_interrogative-total-yn_La-maestra-vive-en-Paris.wav,,,,,,,,,,,,,,,,,,,,,,301.8385,304.1046,1,1,1.7369,,0,37,37,24,1,0,castilian,,,,,,,,,,,,,,,,,,,,,,,,,,,,,,,,,,,,,,,,,,,,,,,,,,,,,,,,
,,,,,,,,,62ac8c4bf1245233d71d0fd6,Mexican,13 or older,"yes, I am fluent in another language",no,2026-01-21_11h17.16.244,empathy_intonation_perc,2024.2.4,Win32,59.88023952,62ac8c4bf1245233d71d0fd6,6967d75d9f4867d525f9ffbe,6970fbf02b4a100513373f88,,,,,,,,,,,,,1,1,,./stim/wavs/castilian_match_interrogative-total-yn_David-leia-el-libro.wav,,,,,,,,,,,,,,,,,,,,,,304.105,306.2876,1,1,1.6543,,0,38,38,0,1,0,castilian,,,,,,,,,,,,,,,,,,,,,,,,,,,,,,,,,,,,,,,,,,,,,,,,,,,,,,,,
,,,,,,,,,62ac8c4bf1245233d71d0fd6,Mexican,13 or older,"yes, I am fluent in another language",no,2026-01-21_11h17.16.244,empathy_intonation_perc,2024.2.4,Win32,59.88023952,62ac8c4bf1245233d71d0fd6,6967d75d9f4867d525f9ffbe,6970fbf02b4a100513373f88,,,,,,,,,,,,,15,1,,./stim/wavs/mexican_match_interrogative-total-yn_David-leia-el-libro.wav,,,,,,,,,,,,,,,,,,,,,,306.2879,308.4881,1,1,1.6715,,0,39,39,14,1,0,mexican,,,,,,,,,,,,,,,,,,,,,,,,,,,,,,,,,,,,,,,,,,,,,,,,,,,,,,,,
,,,,,,,,,62ac8c4bf1245233d71d0fd6,Mexican,13 or older,"yes, I am fluent in another language",no,2026-01-21_11h17.16.244,empathy_intonation_perc,2024.2.4,Win32,59.88023952,62ac8c4bf1245233d71d0fd6,6967d75d9f4867d525f9ffbe,6970fbf02b4a100513373f88,,,,,,,,,,,,,72,0,,./stim/wavs/castilian_mismatch_declarative-broad-focus_Mi-novio-viene-del-lago.wav,,,,,,,,,,,,,,,,,,,,,,308.4884,310.871,0,1,1.8554,,0,40,40,71,1,0,castilian,,,,,,,,,,,,,,,,,,,,,,,,,,,,,,,,,,,,,,,,,,,,,,,,,,,,,,,,
,,,,,,,,,62ac8c4bf1245233d71d0fd6,Mexican,13 or older,"yes, I am fluent in another language",no,2026-01-21_11h17.16.244,empathy_intonation_perc,2024.2.4,Win32,59.88023952,62ac8c4bf1245233d71d0fd6,6967d75d9f4867d525f9ffbe,6970fbf02b4a100513373f88,,,,,,,,,,,,,63,0,,./stim/wavs/puertorican_match_declarative-broad-focus_Ana-lleva-el-abrigo.wav,,,,,,,,,,,,,,,,,,,,,,310.8712,313.004,0,1,1.6252,,0,41,41,62,1,0,puertorican,,,,,,,,,,,,,,,,,,,,,,,,,,,,,,,,,,,,,,,,,,,,,,,,,,,,,,,,
,,,,,,,,,62ac8c4bf1245233d71d0fd6,Mexican,13 or older,"yes, I am fluent in another language",no,2026-01-21_11h17.16.244,empathy_intonation_perc,2024.2.4,Win32,59.88023952,62ac8c4bf1245233d71d0fd6,6967d75d9f4867d525f9ffbe,6970fbf02b4a100513373f88,,,,,,,,,,,,,36,1,,./stim/wavs/mexican_mismatch_interrogative-total-yn_El-nino-oye-el-rio.wav,,,,,,,,,,,,,,,,,,,,,,313.0043,315.3711,1,1,1.8596,,0,42,42,35,1,0,mexican,,,,,,,,,,,,,,,,,,,,,,,,,,,,,,,,,,,,,,,,,,,,,,,,,,,,,,,,
,,,,,,,,,62ac8c4bf1245233d71d0fd6,Mexican,13 or older,"yes, I am fluent in another language",no,2026-01-21_11h17.16.244,empathy_intonation_perc,2024.2.4,Win32,59.88023952,62ac8c4bf1245233d71d0fd6,6967d75d9f4867d525f9ffbe,6970fbf02b4a100513373f88,,,,,,,,,,,,,35,1,,./stim/wavs/mexican_mismatch_interrogative-total-yn_El-hombre-mira-la-luna.wav,,,,,,,,,,,,,,,,,,,,,,315.3715,318.1876,1,1,2.2857,,0,43,43,34,1,0,mexican,,,,,,,,,,,,,,,,,,,,,,,,,,,,,,,,,,,,,,,,,,,,,,,,,,,,,,,,
,,,,,,,,,62ac8c4bf1245233d71d0fd6,Mexican,13 or older,"yes, I am fluent in another language",no,2026-01-21_11h17.16.244,empathy_intonation_perc,2024.2.4,Win32,59.88023952,62ac8c4bf1245233d71d0fd6,6967d75d9f4867d525f9ffbe,6970fbf02b4a100513373f88,,,,,,,,,,,,,12,1,,./stim/wavs/cuban_match_interrogative-total-yn_Marta-abre-el-regalo.wav,,,,,,,,,,,,,,,,,,,,,,318.1878,321.8875,0,0,3.1896,,0,44,44,11,1,1,cuban,,,,,,,,,,,,,,,,,,,,,,,,,,,,,,,,,,,,,,,,,,,,,,,,,,,,,,,,
,,,,,,,,,62ac8c4bf1245233d71d0fd6,Mexican,13 or older,"yes, I am fluent in another language",no,2026-01-21_11h17.16.244,empathy_intonation_perc,2024.2.4,Win32,59.88023952,62ac8c4bf1245233d71d0fd6,6967d75d9f4867d525f9ffbe,6970fbf02b4a100513373f88,,,,,,,,,,,,,61,0,,./stim/wavs/mexican_match_declarative-broad-focus_Mariano-habla-del-tiempo.wav,,,,,,,,,,,,,,,,,,,,,,321.8882,324.1375,0,1,1.7272,,0,45,45,60,1,0,mexican,,,,,,,,,,,,,,,,,,,,,,,,,,,,,,,,,,,,,,,,,,,,,,,,,,,,,,,,
,,,,,,,,,62ac8c4bf1245233d71d0fd6,Mexican,13 or older,"yes, I am fluent in another language",no,2026-01-21_11h17.16.244,empathy_intonation_perc,2024.2.4,Win32,59.88023952,62ac8c4bf1245233d71d0fd6,6967d75d9f4867d525f9ffbe,6970fbf02b4a100513373f88,,,,,,,,,,,,,47,0,,./stim/wavs/castilian_match_declarative-broad-focus_Manuela-vende-el-carro.wav,,,,,,,,,,,,,,,,,,,,,,324.1377,327.5041,0,1,2.8309,,0,46,46,46,1,0,castilian,,,,,,,,,,,,,,,,,,,,,,,,,,,,,,,,,,,,,,,,,,,,,,,,,,,,,,,,
,,,,,,,,,62ac8c4bf1245233d71d0fd6,Mexican,13 or older,"yes, I am fluent in another language",no,2026-01-21_11h17.16.244,empathy_intonation_perc,2024.2.4,Win32,59.88023952,62ac8c4bf1245233d71d0fd6,6967d75d9f4867d525f9ffbe,6970fbf02b4a100513373f88,,,,,,,,,,,,,58,0,,./stim/wavs/mexican_match_declarative-broad-focus_Daniel-iba-a-Bolivia.wav,,,,,,,,,,,,,,,,,,,,,,327.5046,330.9208,0,1,2.8868,,0,47,47,57,1,0,mexican,,,,,,,,,,,,,,,,,,,,,,,,,,,,,,,,,,,,,,,,,,,,,,,,,,,,,,,,
,,,,,,,,,62ac8c4bf1245233d71d0fd6,Mexican,13 or older,"yes, I am fluent in another language",no,2026-01-21_11h17.16.244,empathy_intonation_perc,2024.2.4,Win32,59.88023952,62ac8c4bf1245233d71d0fd6,6967d75d9f4867d525f9ffbe,6970fbf02b4a100513373f88,,,,,,,,,,,,,13,1,,./stim/wavs/mexican_match_interrogative-total-yn_Ana-lleva-el-abrigo.wav,,,,,,,,,,,,,,,,,,,,,,330.9212,333.4713,1,1,2.0339,,0,48,48,12,1,0,mexican,,,,,,,,,,,,,,,,,,,,,,,,,,,,,,,,,,,,,,,,,,,,,,,,,,,,,,,,
,,,,,,,,,62ac8c4bf1245233d71d0fd6,Mexican,13 or older,"yes, I am fluent in another language",no,2026-01-21_11h17.16.244,empathy_intonation_perc,2024.2.4,Win32,59.88023952,62ac8c4bf1245233d71d0fd6,6967d75d9f4867d525f9ffbe,6970fbf02b4a100513373f88,,,,,,,,,,,,,86,0,,./stim/wavs/puertorican_mismatch_declarative-broad-focus_El-nino-oye-el-rio.wav,,,,,,,,,,,,,,,,,,,,,,333.4716,335.7045,0,1,1.7007,,0,49,49,85,1,0,puertorican,,,,,,,,,,,,,,,,,,,,,,,,,,,,,,,,,,,,,,,,,,,,,,,,,,,,,,,,
,,,,,,,,,62ac8c4bf1245233d71d0fd6,Mexican,13 or older,"yes, I am fluent in another language",no,2026-01-21_11h17.16.244,empathy_intonation_perc,2024.2.4,Win32,59.88023952,62ac8c4bf1245233d71d0fd6,6967d75d9f4867d525f9ffbe,6970fbf02b4a100513373f88,,,,,,,,,,,,,6,1,,./stim/wavs/castilian_match_interrogative-total-yn_Marta-abre-el-regalo.wav,,,,,,,,,,,,,,,,,,,,,,335.7048,338.1543,1,1,1.9274,,0,50,50,5,1,0,castilian,,,,,,,,,,,,,,,,,,,,,,,,,,,,,,,,,,,,,,,,,,,,,,,,,,,,,,,,
,,,,,,,,,62ac8c4bf1245233d71d0fd6,Mexican,13 or older,"yes, I am fluent in another language",no,2026-01-21_11h17.16.244,empathy_intonation_perc,2024.2.4,Win32,59.88023952,62ac8c4bf1245233d71d0fd6,6967d75d9f4867d525f9ffbe,6970fbf02b4a100513373f88,,,,,,,,,,,,,46,0,,./stim/wavs/castilian_match_declarative-broad-focus_Emilio-ama-la-marcha.wav,,,,,,,,,,,,,,,,,,,,,,338.1548,340.3544,0,1,1.6735,,0,51,51,45,1,0,castilian,,,,,,,,,,,,,,,,,,,,,,,,,,,,,,,,,,,,,,,,,,,,,,,,,,,,,,,,
,,,,,,,,,62ac8c4bf1245233d71d0fd6,Mexican,13 or older,"yes, I am fluent in another language",no,2026-01-21_11h17.16.244,empathy_intonation_perc,2024.2.4,Win32,59.88023952,62ac8c4bf1245233d71d0fd6,6967d75d9f4867d525f9ffbe,6970fbf02b4a100513373f88,,,,,,,,,,,,,33,1,,./stim/wavs/cuban_mismatch_interrogative-total-yn_Mi-novio-viene-del-lago.wav,,,,,,,,,,,,,,,,,,,,,,340.3547,343.7378,0,0,2.8558,,0,52,52,32,1,1,cuban,,,,,,,,,,,,,,,,,,,,,,,,,,,,,,,,,,,,,,,,,,,,,,,,,,,,,,,,
,,,,,,,,,62ac8c4bf1245233d71d0fd6,Mexican,13 or older,"yes, I am fluent in another language",no,2026-01-21_11h17.16.244,empathy_intonation_perc,2024.2.4,Win32,59.88023952,62ac8c4bf1245233d71d0fd6,6967d75d9f4867d525f9ffbe,6970fbf02b4a100513373f88,,,,,,,,,,,,,18,1,,./stim/wavs/mexican_match_interrogative-total-yn_Marta-abre-el-regalo.wav,,,,,,,,,,,,,,,,,,,,,,343.7381,346.0543,1,1,1.788,,0,53,53,17,1,0,mexican,,,,,,,,,,,,,,,,,,,,,,,,,,,,,,,,,,,,,,,,,,,,,,,,,,,,,,,,
,,,,,,,,,62ac8c4bf1245233d71d0fd6,Mexican,13 or older,"yes, I am fluent in another language",no,2026-01-21_11h17.16.244,empathy_intonation_perc,2024.2.4,Win32,59.88023952,62ac8c4bf1245233d71d0fd6,6967d75d9f4867d525f9ffbe,6970fbf02b4a100513373f88,,,,,,,,,,,,,57,0,,./stim/wavs/mexican_match_declarative-broad-focus_Ana-lleva-el-abrigo.wav,,,,,,,,,,,,,,,,,,,,,,346.0552,348.1042,0,1,1.517,,0,54,54,56,1,0,mexican,,,,,,,,,,,,,,,,,,,,,,,,,,,,,,,,,,,,,,,,,,,,,,,,,,,,,,,,
,,,,,,,,,62ac8c4bf1245233d71d0fd6,Mexican,13 or older,"yes, I am fluent in another language",no,2026-01-21_11h17.16.244,empathy_intonation_perc,2024.2.4,Win32,59.88023952,62ac8c4bf1245233d71d0fd6,6967d75d9f4867d525f9ffbe,6970fbf02b4a100513373f88,,,,,,,,,,,,,76,0,,./stim/wavs/cuban_mismatch_declarative-broad-focus_La-nina-lava-el-plato.wav,,,,,,,,,,,,,,,,,,,,,,348.1048,350.1546,0,1,1.5411,,0,55,55,75,1,0,cuban,,,,,,,,,,,,,,,,,,,,,,,,,,,,,,,,,,,,,,,,,,,,,,,,,,,,,,,,
,,,,,,,,,62ac8c4bf1245233d71d0fd6,Mexican,13 or older,"yes, I am fluent in another language",no,2026-01-21_11h17.16.244,empathy_intonation_perc,2024.2.4,Win32,59.88023952,62ac8c4bf1245233d71d0fd6,6967d75d9f4867d525f9ffbe,6970fbf02b4a100513373f88,,,,,,,,,,,,,84,0,,./stim/wavs/puertorican_mismatch_declarative-broad-focus_El-bebe-comia-muy-bien.wav,,,,,,,,,,,,,,,,,,,,,,350.1555,352.3213,0,1,1.6358,,0,56,56,83,1,0,puertorican,,,,,,,,,,,,,,,,,,,,,,,,,,,,,,,,,,,,,,,,,,,,,,,,,,,,,,,,
,,,,,,,,,62ac8c4bf1245233d71d0fd6,Mexican,13 or older,"yes, I am fluent in another language",no,2026-01-21_11h17.16.244,empathy_intonation_perc,2024.2.4,Win32,59.88023952,62ac8c4bf1245233d71d0fd6,6967d75d9f4867d525f9ffbe,6970fbf02b4a100513373f88,,,,,,,,,,,,,43,1,,./stim/wavs/puertorican_mismatch_interrogative-total-yn_La-nina-lava-el-plato.wav,,,,,,,,,,,,,,,,,,,,,,352.3216,354.1545,1,1,1.3106,,0,57,57,42,1,1,puertorican,,,,,,,,,,,,,,,,,,,,,,,,,,,,,,,,,,,,,,,,,,,,,,,,,,,,,,,,
,,,,,,,,,62ac8c4bf1245233d71d0fd6,Mexican,13 or older,"yes, I am fluent in another language",no,2026-01-21_11h17.16.244,empathy_intonation_perc,2024.2.4,Win32,59.88023952,62ac8c4bf1245233d71d0fd6,6967d75d9f4867d525f9ffbe,6970fbf02b4a100513373f88,,,,,,,,,,,,,19,1,,./stim/wavs/puertorican_match_interrogative-total-yn_Ana-lleva-el-abrigo.wav,,,,,,,,,,,,,,,,,,,,,,354.1548,356.0045,1,1,1.3168,,0,58,58,18,1,1,puertorican,,,,,,,,,,,,,,,,,,,,,,,,,,,,,,,,,,,,,,,,,,,,,,,,,,,,,,,,
,,,,,,,,,62ac8c4bf1245233d71d0fd6,Mexican,13 or older,"yes, I am fluent in another language",no,2026-01-21_11h17.16.244,empathy_intonation_perc,2024.2.4,Win32,59.88023952,62ac8c4bf1245233d71d0fd6,6967d75d9f4867d525f9ffbe,6970fbf02b4a100513373f88,,,,,,,,,,,,,24,1,,./stim/wavs/puertorican_match_interrogative-total-yn_Maria-bebe-el-vino.wav,,,,,,,,,,,,,,,,,,,,,,356.0048,357.788,1,1,1.2576,,0,59,59,23,1,1,puertorican,,,,,,,,,,,,,,,,,,,,,,,,,,,,,,,,,,,,,,,,,,,,,,,,,,,,,,,,
,,,,,,,,,62ac8c4bf1245233d71d0fd6,Mexican,13 or older,"yes, I am fluent in another language",no,2026-01-21_11h17.16.244,empathy_intonation_perc,2024.2.4,Win32,59.88023952,62ac8c4bf1245233d71d0fd6,6967d75d9f4867d525f9ffbe,6970fbf02b4a100513373f88,,,,,,,,,,,,,30,1,,./stim/wavs/cuban_mismatch_interrogative-total-yn_El-hombre-mira-la-luna.wav,,,,,,,,,,,,,,,,,,,,,,357.7882,360.7377,1,1,2.4179,,0,60,60,29,1,1,cuban,,,,,,,,,,,,,,,,,,,,,,,,,,,,,,,,,,,,,,,,,,,,,,,,,,,,,,,,
,,,,,,,,,62ac8c4bf1245233d71d0fd6,Mexican,13 or older,"yes, I am fluent in another language",no,2026-01-21_11h17.16.244,empathy_intonation_perc,2024.2.4,Win32,59.88023952,62ac8c4bf1245233d71d0fd6,6967d75d9f4867d525f9ffbe,6970fbf02b4a100513373f88,,,,,,,,,,,,,3,1,,./stim/wavs/castilian_match_interrogative-total-yn_Manuela-vende-el-carro.wav,,,,,,,,,,,,,,,,,,,,,,360.738,362.9045,1,1,1.6339,,0,61,61,2,1,0,castilian,,,,,,,,,,,,,,,,,,,,,,,,,,,,,,,,,,,,,,,,,,,,,,,,,,,,,,,,
,,,,,,,,,62ac8c4bf1245233d71d0fd6,Mexican,13 or older,"yes, I am fluent in another language",no,2026-01-21_11h17.16.244,empathy_intonation_perc,2024.2.4,Win32,59.88023952,62ac8c4bf1245233d71d0fd6,6967d75d9f4867d525f9ffbe,6970fbf02b4a100513373f88,,,,,,,,,,,,,40,1,,./stim/wavs/puertorican_mismatch_interrogative-total-yn_El-hombre-mira-la-luna.wav,,,,,,,,,,,,,,,,,,,,,,362.9048,364.7875,1,1,1.3518,,0,62,62,39,1,1,puertorican,,,,,,,,,,,,,,,,,,,,,,,,,,,,,,,,,,,,,,,,,,,,,,,,,,,,,,,,
,,,,,,,,,62ac8c4bf1245233d71d0fd6,Mexican,13 or older,"yes, I am fluent in another language",no,2026-01-21_11h17.16.244,empathy_intonation_perc,2024.2.4,Win32,59.88023952,62ac8c4bf1245233d71d0fd6,6967d75d9f4867d525f9ffbe,6970fbf02b4a100513373f88,,,,,,,,,,,,,26,1,,./stim/wavs/castilian_mismatch_interrogative-total-yn_La-nina-lava-el-plato.wav,,,,,,,,,,,,,,,,,,,,,,364.7878,366.9211,1,1,1.6036,,0,63,63,25,1,0,castilian,,,,,,,,,,,,,,,,,,,,,,,,,,,,,,,,,,,,,,,,,,,,,,,,,,,,,,,,
,,,,,,,,,62ac8c4bf1245233d71d0fd6,Mexican,13 or older,"yes, I am fluent in another language",no,2026-01-21_11h17.16.244,empathy_intonation_perc,2024.2.4,Win32,59.88023952,62ac8c4bf1245233d71d0fd6,6967d75d9f4867d525f9ffbe,6970fbf02b4a100513373f88,,,,,,,,,,,,,71,0,,./stim/wavs/castilian_mismatch_declarative-broad-focus_La-nina-lava-el-plato.wav,,,,,,,,,,,,,,,,,,,,,,366.9213,369.1211,0,1,1.6784,,0,64,64,70,1,0,castilian,,,,,,,,,,,,,,,,,,,,,,,,,,,,,,,,,,,,,,,,,,,,,,,,,,,,,,,,
,,,,,,,,,62ac8c4bf1245233d71d0fd6,Mexican,13 or older,"yes, I am fluent in another language",no,2026-01-21_11h17.16.244,empathy_intonation_perc,2024.2.4,Win32,59.88023952,62ac8c4bf1245233d71d0fd6,6967d75d9f4867d525f9ffbe,6970fbf02b4a100513373f88,,,,,,,,,,,,,7,1,,./stim/wavs/cuban_match_interrogative-total-yn_Ana-lleva-el-abrigo.wav,,,,,,,,,,,,,,,,,,,,,,369.1215,371.5043,0,0,1.8558,,0,65,65,6,1,1,cuban,,,,,,,,,,,,,,,,,,,,,,,,,,,,,,,,,,,,,,,,,,,,,,,,,,,,,,,,
,,,,,,,,,62ac8c4bf1245233d71d0fd6,Mexican,13 or older,"yes, I am fluent in another language",no,2026-01-21_11h17.16.244,empathy_intonation_perc,2024.2.4,Win32,59.88023952,62ac8c4bf1245233d71d0fd6,6967d75d9f4867d525f9ffbe,6970fbf02b4a100513373f88,,,,,,,,,,,,,66,0,,./stim/wavs/puertorican_match_declarative-broad-focus_Emilio-ama-la-marcha.wav,,,,,,,,,,,,,,,,,,,,,,371.5045,373.6211,0,1,1.5915,,0,66,66,65,1,0,puertorican,,,,,,,,,,,,,,,,,,,,,,,,,,,,,,,,,,,,,,,,,,,,,,,,,,,,,,,,
,,,,,,,,,62ac8c4bf1245233d71d0fd6,Mexican,13 or older,"yes, I am fluent in another language",no,2026-01-21_11h17.16.244,empathy_intonation_perc,2024.2.4,Win32,59.88023952,62ac8c4bf1245233d71d0fd6,6967d75d9f4867d525f9ffbe,6970fbf02b4a100513373f88,,,,,,,,,,,,,48,0,,./stim/wavs/castilian_match_declarative-broad-focus_Maria-bebe-el-vino.wav,,,,,,,,,,,,,,,,,,,,,,373.6213,375.7378,0,1,1.5952,,0,67,67,47,1,0,castilian,,,,,,,,,,,,,,,,,,,,,,,,,,,,,,,,,,,,,,,,,,,,,,,,,,,,,,,,
,,,,,,,,,62ac8c4bf1245233d71d0fd6,Mexican,13 or older,"yes, I am fluent in another language",no,2026-01-21_11h17.16.244,empathy_intonation_perc,2024.2.4,Win32,59.88023952,62ac8c4bf1245233d71d0fd6,6967d75d9f4867d525f9ffbe,6970fbf02b4a100513373f88,,,,,,,,,,,,,34,1,,./stim/wavs/cuban_mismatch_interrogative-total-yn_Mi-tia-odia-la-lluvia.wav,,,,,,,,,,,,,,,,,,,,,,375.738,378.0376,1,1,1.7733,,0,68,68,33,1,1,cuban,,,,,,,,,,,,,,,,,,,,,,,,,,,,,,,,,,,,,,,,,,,,,,,,,,,,,,,,
,,,,,,,,,62ac8c4bf1245233d71d0fd6,Mexican,13 or older,"yes, I am fluent in another language",no,2026-01-21_11h17.16.244,empathy_intonation_perc,2024.2.4,Win32,59.88023952,62ac8c4bf1245233d71d0fd6,6967d75d9f4867d525f9ffbe,6970fbf02b4a100513373f88,,,,,,,,,,,,,16,1,,./stim/wavs/mexican_match_interrogative-total-yn_Emilio-ama-la-marcha.wav,,,,,,,,,,,,,,,,,,,,,,378.0379,380.2046,1,1,1.6367,,0,69,69,15,1,0,mexican,,,,,,,,,,,,,,,,,,,,,,,,,,,,,,,,,,,,,,,,,,,,,,,,,,,,,,,,
,,,,,,,,,62ac8c4bf1245233d71d0fd6,Mexican,13 or older,"yes, I am fluent in another language",no,2026-01-21_11h17.16.244,empathy_intonation_perc,2024.2.4,Win32,59.88023952,62ac8c4bf1245233d71d0fd6,6967d75d9f4867d525f9ffbe,6970fbf02b4a100513373f88,,,,,,,,,,,,,52,0,,./stim/wavs/cuban_match_declarative-broad-focus_Daniel-iba-a-Bolivia.wav,,,,,,,,,,,,,,,,,,,,,,380.2048,383.1211,0,1,2.3873,,0,70,70,51,1,0,cuban,,,,,,,,,,,,,,,,,,,,,,,,,,,,,,,,,,,,,,,,,,,,,,,,,,,,,,,,
,,,,,,,,,62ac8c4bf1245233d71d0fd6,Mexican,13 or older,"yes, I am fluent in another language",no,2026-01-21_11h17.16.244,empathy_intonation_perc,2024.2.4,Win32,59.88023952,62ac8c4bf1245233d71d0fd6,6967d75d9f4867d525f9ffbe,6970fbf02b4a100513373f88,,,,,,,,,,,,,82,0,,./stim/wavs/mexican_mismatch_declarative-broad-focus_Mi-novio-viene-del-lago.wav,,,,,,,,,,,,,,,,,,,,,,383.1216,385.2544,0,1,1.6031,,0,71,71,81,1,0,mexican,,,,,,,,,,,,,,,,,,,,,,,,,,,,,,,,,,,,,,,,,,,,,,,,,,,,,,,,
,,,,,,,,,62ac8c4bf1245233d71d0fd6,Mexican,13 or older,"yes, I am fluent in another language",no,2026-01-21_11h17.16.244,empathy_intonation_perc,2024.2.4,Win32,59.88023952,62ac8c4bf1245233d71d0fd6,6967d75d9f4867d525f9ffbe,6970fbf02b4a100513373f88,,,,,,,,,,,,,88,0,,./stim/wavs/puertorican_mismatch_declarative-broad-focus_La-nina-lava-el-plato.wav,,,,,,,,,,,,,,,,,,,,,,385.255,387.1045,0,1,1.3341,,0,72,72,87,1,0,puertorican,,,,,,,,,,,,,,,,,,,,,,,,,,,,,,,,,,,,,,,,,,,,,,,,,,,,,,,,
,,,,,,,,,62ac8c4bf1245233d71d0fd6,Mexican,13 or older,"yes, I am fluent in another language",no,2026-01-21_11h17.16.244,empathy_intonation_perc,2024.2.4,Win32,59.88023952,62ac8c4bf1245233d71d0fd6,6967d75d9f4867d525f9ffbe,6970fbf02b4a100513373f88,,,,,,,,,,,,,38,1,,./stim/wavs/mexican_mismatch_interrogative-total-yn_Mi-novio-viene-del-lago.wav,,,,,,,,,,,,,,,,,,,,,,387.1049,389.3208,1,1,1.6957,,0,73,73,37,1,0,mexican,,,,,,,,,,,,,,,,,,,,,,,,,,,,,,,,,,,,,,,,,,,,,,,,,,,,,,,,
,,,,,,,,,62ac8c4bf1245233d71d0fd6,Mexican,13 or older,"yes, I am fluent in another language",no,2026-01-21_11h17.16.244,empathy_intonation_perc,2024.2.4,Win32,59.88023952,62ac8c4bf1245233d71d0fd6,6967d75d9f4867d525f9ffbe,6970fbf02b4a100513373f88,,,,,,,,,,,,,20,1,,./stim/wavs/puertorican_match_interrogative-total-yn_Daniel-iba-a-Bolivia.wav,,,,,,,,,,,,,,,,,,,,,,389.3211,391.4379,1,1,1.6047,,0,74,74,19,1,1,puertorican,,,,,,,,,,,,,,,,,,,,,,,,,,,,,,,,,,,,,,,,,,,,,,,,,,,,,,,,
,,,,,,,,,62ac8c4bf1245233d71d0fd6,Mexican,13 or older,"yes, I am fluent in another language",no,2026-01-21_11h17.16.244,empathy_intonation_perc,2024.2.4,Win32,59.88023952,62ac8c4bf1245233d71d0fd6,6967d75d9f4867d525f9ffbe,6970fbf02b4a100513373f88,,,,,,,,,,,,,75,0,,./stim/wavs/cuban_mismatch_declarative-broad-focus_El-hombre-mira-la-luna.wav,,,,,,,,,,,,,,,,,,,,,,391.4382,394.3546,0,1,2.3808,,0,75,75,74,1,0,cuban,,,,,,,,,,,,,,,,,,,,,,,,,,,,,,,,,,,,,,,,,,,,,,,,,,,,,,,,
,,,,,,,,,62ac8c4bf1245233d71d0fd6,Mexican,13 or older,"yes, I am fluent in another language",no,2026-01-21_11h17.16.244,empathy_intonation_perc,2024.2.4,Win32,59.88023952,62ac8c4bf1245233d71d0fd6,6967d75d9f4867d525f9ffbe,6970fbf02b4a100513373f88,,,,,,,,,,,,,51,0,,./stim/wavs/cuban_match_declarative-broad-focus_Ana-lleva-el-abrigo.wav,,,,,,,,,,,,,,,,,,,,,,394.3549,396.271,0,1,1.3837,,0,76,76,50,1,0,cuban,,,,,,,,,,,,,,,,,,,,,,,,,,,,,,,,,,,,,,,,,,,,,,,,,,,,,,,,
,,,,,,,,,62ac8c4bf1245233d71d0fd6,Mexican,13 or older,"yes, I am fluent in another language",no,2026-01-21_11h17.16.244,empathy_intonation_perc,2024.2.4,Win32,59.88023952,62ac8c4bf1245233d71d0fd6,6967d75d9f4867d525f9ffbe,6970fbf02b4a100513373f88,,,,,,,,,,,,,9,1,,./stim/wavs/cuban_match_interrogative-total-yn_Manuela-vende-el-carro.wav,,,,,,,,,,,,,,,,,,,,,,396.2715,398.3382,0,0,1.5361,,0,77,77,8,1,1,cuban,,,,,,,,,,,,,,,,,,,,,,,,,,,,,,,,,,,,,,,,,,,,,,,,,,,,,,,,
,,,,,,,,,62ac8c4bf1245233d71d0fd6,Mexican,13 or older,"yes, I am fluent in another language",no,2026-01-21_11h17.16.244,empathy_intonation_perc,2024.2.4,Win32,59.88023952,62ac8c4bf1245233d71d0fd6,6967d75d9f4867d525f9ffbe,6970fbf02b4a100513373f88,,,,,,,,,,,,,45,0,,./stim/wavs/castilian_match_declarative-broad-focus_David-leia-el-libro.wav,,,,,,,,,,,,,,,,,,,,,,398.3387,400.6384,0,1,1.767,,0,78,78,44,1,0,castilian,,,,,,,,,,,,,,,,,,,,,,,,,,,,,,,,,,,,,,,,,,,,,,,,,,,,,,,,
,,,,,,,,,62ac8c4bf1245233d71d0fd6,Mexican,13 or older,"yes, I am fluent in another language",no,2026-01-21_11h17.16.244,empathy_intonation_perc,2024.2.4,Win32,59.88023952,62ac8c4bf1245233d71d0fd6,6967d75d9f4867d525f9ffbe,6970fbf02b4a100513373f88,,,,,,,,,,,,,2,1,,./stim/wavs/castilian_match_interrogative-total-yn_Emilio-ama-la-marcha.wav,,,,,,,,,,,,,,,,,,,,,,400.6389,402.8545,1,1,1.6883,,0,79,79,1,1,0,castilian,,,,,,,,,,,,,,,,,,,,,,,,,,,,,,,,,,,,,,,,,,,,,,,,,,,,,,,,
,,,,,,,,,62ac8c4bf1245233d71d0fd6,Mexican,13 or older,"yes, I am fluent in another language",no,2026-01-21_11h17.16.244,empathy_intonation_perc,2024.2.4,Win32,59.88023952,62ac8c4bf1245233d71d0fd6,6967d75d9f4867d525f9ffbe,6970fbf02b4a100513373f88,,,,,,,,,,,,,83,0,,./stim/wavs/mexican_mismatch_declarative-broad-focus_Mi-tia-odia-la-lluvia.wav,,,,,,,,,,,,,,,,,,,,,,402.8548,405.0876,0,1,1.7184,,0,80,80,82,1,0,mexican,,,,,,,,,,,,,,,,,,,,,,,,,,,,,,,,,,,,,,,,,,,,,,,,,,,,,,,,
,,,,,,,,,62ac8c4bf1245233d71d0fd6,Mexican,13 or older,"yes, I am fluent in another language",no,2026-01-21_11h17.16.244,empathy_intonation_perc,2024.2.4,Win32,59.88023952,62ac8c4bf1245233d71d0fd6,6967d75d9f4867d525f9ffbe,6970fbf02b4a100513373f88,,,,,,,,,,,,,14,1,,./stim/wavs/mexican_match_interrogative-total-yn_Daniel-iba-a-Bolivia.wav,,,,,,,,,,,,,,,,,,,,,,405.0879,407.4212,1,1,1.8172,,0,81,81,13,1,0,mexican,,,,,,,,,,,,,,,,,,,,,,,,,,,,,,,,,,,,,,,,,,,,,,,,,,,,,,,,
,,,,,,,,,62ac8c4bf1245233d71d0fd6,Mexican,13 or older,"yes, I am fluent in another language",no,2026-01-21_11h17.16.244,empathy_intonation_perc,2024.2.4,Win32,59.88023952,62ac8c4bf1245233d71d0fd6,6967d75d9f4867d525f9ffbe,6970fbf02b4a100513373f88,,,,,,,,,,,,,62,0,,./stim/wavs/mexican_match_declarative-broad-focus_Marta-abre-el-regalo.wav,,,,,,,,,,,,,,,,,,,,,,407.4215,409.3374,0,1,1.3946,,0,82,82,61,1,0,mexican,,,,,,,,,,,,,,,,,,,,,,,,,,,,,,,,,,,,,,,,,,,,,,,,,,,,,,,,
,,,,,,,,,62ac8c4bf1245233d71d0fd6,Mexican,13 or older,"yes, I am fluent in another language",no,2026-01-21_11h17.16.244,empathy_intonation_perc,2024.2.4,Win32,59.88023952,62ac8c4bf1245233d71d0fd6,6967d75d9f4867d525f9ffbe,6970fbf02b4a100513373f88,,,,,,,,,,,,,68,0,,./stim/wavs/puertorican_match_declarative-broad-focus_Maria-bebe-el-vino.wav,,,,,,,,,,,,,,,,,,,,,,409.3376,411.5377,0,1,1.6705,,0,83,83,67,1,0,puertorican,,,,,,,,,,,,,,,,,,,,,,,,,,,,,,,,,,,,,,,,,,,,,,,,,,,,,,,,
,,,,,,,,,62ac8c4bf1245233d71d0fd6,Mexican,13 or older,"yes, I am fluent in another language",no,2026-01-21_11h17.16.244,empathy_intonation_perc,2024.2.4,Win32,59.88023952,62ac8c4bf1245233d71d0fd6,6967d75d9f4867d525f9ffbe,6970fbf02b4a100513373f88,,,,,,,,,,,,,8,1,,./stim/wavs/cuban_match_interrogative-total-yn_Daniel-iba-a-Bolivia.wav,,,,,,,,,,,,,,,,,,,,,,411.5381,414.3209,1,1,2.2615,,0,84,84,7,1,1,cuban,,,,,,,,,,,,,,,,,,,,,,,,,,,,,,,,,,,,,,,,,,,,,,,,,,,,,,,,
,,,,,,,,,62ac8c4bf1245233d71d0fd6,Mexican,13 or older,"yes, I am fluent in another language",no,2026-01-21_11h17.16.244,empathy_intonation_perc,2024.2.4,Win32,59.88023952,62ac8c4bf1245233d71d0fd6,6967d75d9f4867d525f9ffbe,6970fbf02b4a100513373f88,,,,,,,,,,,,,49,0,,./stim/wavs/castilian_match_declarative-broad-focus_Mariano-habla-del-tiempo.wav,,,,,,,,,,,,,,,,,,,,,,414.3214,416.7045,0,1,1.8536,,0,85,85,48,1,0,castilian,,,,,,,,,,,,,,,,,,,,,,,,,,,,,,,,,,,,,,,,,,,,,,,,,,,,,,,,
,,,,,,,,,62ac8c4bf1245233d71d0fd6,Mexican,13 or older,"yes, I am fluent in another language",no,2026-01-21_11h17.16.244,empathy_intonation_perc,2024.2.4,Win32,59.88023952,62ac8c4bf1245233d71d0fd6,6967d75d9f4867d525f9ffbe,6970fbf02b4a100513373f88,,,,,,,,,,,,,10,1,,./stim/wavs/cuban_match_interrogative-total-yn_Maria-bebe-el-vino.wav,,,,,,,,,,,,,,,,,,,,,,416.7048,419.1376,0,0,1.8993,,0,86,86,9,1,1,cuban,,,,,,,,,,,,,,,,,,,,,,,,,,,,,,,,,,,,,,,,,,,,,,,,,,,,,,,,
,,,,,,,,,62ac8c4bf1245233d71d0fd6,Mexican,13 or older,"yes, I am fluent in another language",no,2026-01-21_11h17.16.244,empathy_intonation_perc,2024.2.4,Win32,59.88023952,62ac8c4bf1245233d71d0fd6,6967d75d9f4867d525f9ffbe,6970fbf02b4a100513373f88,,,,,,,,,,,,,22,1,,./stim/wavs/puertorican_match_interrogative-total-yn_Emilio-ama-la-marcha.wav,,,,,,,,,,,,,,,,,,,,,,419.1378,421.1044,0,0,1.4321,,0,87,87,21,1,1,puertorican,,,,,,,,,,,,,,,,,,,,,,,,,,,,,,,,,,,,,,,,,,,,,,,,,,,,,,,,
,,,,,,,"Great! Now we will move on. The next task consists of about 60 trials, in each of which you will see a string of letters. 
  
  Your task is to decide whether this is a real Spanish word or not.", (press the spacebar to continue),62ac8c4bf1245233d71d0fd6,Mexican,13 or older,"yes, I am fluent in another language",no,2026-01-21_11h17.16.244,empathy_intonation_perc,2024.2.4,Win32,59.88023952,62ac8c4bf1245233d71d0fd6,6967d75d9f4867d525f9ffbe,6970fbf02b4a100513373f88,,,,,,,,,,,,,,,,,,,,,,,,,,,,,,,,,,,,,,,,,,,,,,,,,,,421.1083,427.5212,0,0,0,0,1,,,,,,,,,,,,,,,,,,,,,,,,,,,,,,,,,,,,,,,,,,,,,,,,,
,,,,,,,"If you think it is an existing Spanish word, you type '1' (for 'REAL'), and if you think it is not an existing Spanish word, you type '0' (for 'FAKE').", (press the spacebar to continue),62ac8c4bf1245233d71d0fd6,Mexican,13 or older,"yes, I am fluent in another language",no,2026-01-21_11h17.16.244,empathy_intonation_perc,2024.2.4,Win32,59.88023952,62ac8c4bf1245233d71d0fd6,6967d75d9f4867d525f9ffbe,6970fbf02b4a100513373f88,,,,,,,,,,,,,,,,,,,,,,,,,,,,,,,,,,,,,,,,,,,,,,,,,,,427.5227,429.6377,0,1,1,1,1,,,,,,,,,,,,,,,,,,,,,,,,,,,,,,,,,,,,,,,,,,,,,,,,,
,,,,,,,"If you are sure that the word exists, even though you don’t know its exact meaning, you may still respond '1' (REAL). 
  
  But if you are not sure if it is an existing word, you should respond '0' (FAKE).
  
  Let's do a practice round...", (press the spacebar to continue),62ac8c4bf1245233d71d0fd6,Mexican,13 or older,"yes, I am fluent in another language",no,2026-01-21_11h17.16.244,empathy_intonation_perc,2024.2.4,Win32,59.88023952,62ac8c4bf1245233d71d0fd6,6967d75d9f4867d525f9ffbe,6970fbf02b4a100513373f88,,,,,,,,,,,,,,,,,,,,,,,,,,,,,,,,,,,,,,,,,,,,,,,,,,,429.6388,433.4043,0,2,2,2,1,,,,,,,,,,,,,,,,,,,,,,,,,,,,,,,,,,,,,,,,,,,,,,,,,
,,,,,,,,,62ac8c4bf1245233d71d0fd6,Mexican,13 or older,"yes, I am fluent in another language",no,2026-01-21_11h17.16.244,empathy_intonation_perc,2024.2.4,Win32,59.88023952,62ac8c4bf1245233d71d0fd6,6967d75d9f4867d525f9ffbe,6970fbf02b4a100513373f88,,,,,,,,,,,,,,0,,,,,,,,,,,,,,,,,,,,,,,,,,,,,,,,,,,,,,,,,,,,433.4084,435.4044,0,1,1.47,,435.4045,436.4041,0,0,0,0,1,0,depiste,REAL,FAKE,,,,,,,,,,,,,,,,,,,,,,,,,,,,,,,,
,,,,,,,,,62ac8c4bf1245233d71d0fd6,Mexican,13 or older,"yes, I am fluent in another language",no,2026-01-21_11h17.16.244,empathy_intonation_perc,2024.2.4,Win32,59.88023952,62ac8c4bf1245233d71d0fd6,6967d75d9f4867d525f9ffbe,6970fbf02b4a100513373f88,,,,,,,,,,,,,,1,,,,,,,,,,,,,,,,,,,,,,,,,,,,,,,,,,,,,,,,,,,,436.4048,437.6883,1,1,0.7499,,437.6883,438.6879,0,1,1,1,1,0,sí,REAL,FAKE,,,,,,,,,,,,,,,,,,,,,,,,,,,,,,,,
,,,,,,,,,62ac8c4bf1245233d71d0fd6,Mexican,13 or older,"yes, I am fluent in another language",no,2026-01-21_11h17.16.244,empathy_intonation_perc,2024.2.4,Win32,59.88023952,62ac8c4bf1245233d71d0fd6,6967d75d9f4867d525f9ffbe,6970fbf02b4a100513373f88,,,,,,,,,,,,,,0,,,,,,,,,,,,,,,,,,,,,,,,,,,,,,,,,,,,,,,,,,,,438.6889,440.0539,0,1,0.8348,,440.054,441.0544,0,2,2,2,1,0,coné,REAL,FAKE,,,,,,,,,,,,,,,,,,,,,,,,,,,,,,,,
,,,,,,,,,62ac8c4bf1245233d71d0fd6,Mexican,13 or older,"yes, I am fluent in another language",no,2026-01-21_11h17.16.244,empathy_intonation_perc,2024.2.4,Win32,59.88023952,62ac8c4bf1245233d71d0fd6,6967d75d9f4867d525f9ffbe,6970fbf02b4a100513373f88,,,,,,,,,,,,,,0,,,,,,,,,,,,,,,,,,,,,,,,,,,,,,,,,,,,,,,,,,,,441.0551,442.5711,1,0,0.981,,442.5721,443.5709,0,3,3,3,1,0,calpar,REAL,FAKE,,,,,,,,,,,,,,,,,,,,,,,,,,,,,,,,
,,,,,,,,,62ac8c4bf1245233d71d0fd6,Mexican,13 or older,"yes, I am fluent in another language",no,2026-01-21_11h17.16.244,empathy_intonation_perc,2024.2.4,Win32,59.88023952,62ac8c4bf1245233d71d0fd6,6967d75d9f4867d525f9ffbe,6970fbf02b4a100513373f88,,,,,,,,,,,,,,0,,,,,,,,,,,,,,,,,,,,,,,,,,,,,,,,,,,,,,,,,,,,443.5719,445.2876,0,1,1.2013,,445.2882,446.2879,0,4,4,4,1,0,joten,REAL,FAKE,,,,,,,,,,,,,,,,,,,,,,,,,,,,,,,,
,,,,,,,,,62ac8c4bf1245233d71d0fd6,Mexican,13 or older,"yes, I am fluent in another language",no,2026-01-21_11h17.16.244,empathy_intonation_perc,2024.2.4,Win32,59.88023952,62ac8c4bf1245233d71d0fd6,6967d75d9f4867d525f9ffbe,6970fbf02b4a100513373f88,,,,,,,,,,,,,,1,,,,,,,,,,,,,,,,,,,,,,,,,,,,,,,,,,,,,,,,,,,,446.2893,447.8046,1,1,0.9859,,447.8048,448.8055,0,5,5,5,1,0,sacapuntas,REAL,FAKE,,,,,,,,,,,,,,,,,,,,,,,,,,,,,,,,
,,,,,,,,,62ac8c4bf1245233d71d0fd6,Mexican,13 or older,"yes, I am fluent in another language",no,2026-01-21_11h17.16.244,empathy_intonation_perc,2024.2.4,Win32,59.88023952,62ac8c4bf1245233d71d0fd6,6967d75d9f4867d525f9ffbe,6970fbf02b4a100513373f88,,,,,,,,,,,,,,0,,,,,,,,,,,,,,,,,,,,,,,,,,,,,,,,,,,,,,,,,,,,448.8065,450.2215,0,1,0.8879,,450.2216,451.2215,0,6,6,6,1,0,priba,REAL,FAKE,,,,,,,,,,,,,,,,,,,,,,,,,,,,,,,,
,,,,,,,,,62ac8c4bf1245233d71d0fd6,Mexican,13 or older,"yes, I am fluent in another language",no,2026-01-21_11h17.16.244,empathy_intonation_perc,2024.2.4,Win32,59.88023952,62ac8c4bf1245233d71d0fd6,6967d75d9f4867d525f9ffbe,6970fbf02b4a100513373f88,,,,,,,,,,,,,,0,,,,,,,,,,,,,,,,,,,,,,,,,,,,,,,,,,,,,,,,,,,,451.2221,452.5382,0,1,0.7912,,452.5382,453.5374,0,7,7,7,1,0,pelasula,REAL,FAKE,,,,,,,,,,,,,,,,,,,,,,,,,,,,,,,,
,,,,,,,,,62ac8c4bf1245233d71d0fd6,Mexican,13 or older,"yes, I am fluent in another language",no,2026-01-21_11h17.16.244,empathy_intonation_perc,2024.2.4,Win32,59.88023952,62ac8c4bf1245233d71d0fd6,6967d75d9f4867d525f9ffbe,6970fbf02b4a100513373f88,,,,,,,,,,,,,,1,,,,,,,,,,,,,,,,,,,,,,,,,,,,,,,,,,,,,,,,,,,,453.538,454.7543,1,1,0.7077,,454.7544,455.7543,0,8,8,8,1,0,bien,REAL,FAKE,,,,,,,,,,,,,,,,,,,,,,,,,,,,,,,,
,,,,,,,,,62ac8c4bf1245233d71d0fd6,Mexican,13 or older,"yes, I am fluent in another language",no,2026-01-21_11h17.16.244,empathy_intonation_perc,2024.2.4,Win32,59.88023952,62ac8c4bf1245233d71d0fd6,6967d75d9f4867d525f9ffbe,6970fbf02b4a100513373f88,,,,,,,,,,,,,,1,,,,,,,,,,,,,,,,,,,,,,,,,,,,,,,,,,,,,,,,,,,,455.7551,457.1543,1,1,0.8908,,457.1543,458.1545,0,9,9,9,1,0,casa,REAL,FAKE,,,,,,,,,,,,,,,,,,,,,,,,,,,,,,,,
,,,,,,,,,62ac8c4bf1245233d71d0fd6,Mexican,13 or older,"yes, I am fluent in another language",no,2026-01-21_11h17.16.244,empathy_intonation_perc,2024.2.4,Win32,59.88023952,62ac8c4bf1245233d71d0fd6,6967d75d9f4867d525f9ffbe,6970fbf02b4a100513373f88,,,,,,,,,,,,,,0,,,,,,,,,,,,,,,,,,,,,,,,,,,,,,,,,,,,,,,,,,,,458.1552,460.3709,0,1,1.684,,460.3709,461.3713,0,10,10,10,1,0,lejo,REAL,FAKE,,,,,,,,,,,,,,,,,,,,,,,,,,,,,,,,
,,,,,,,,,62ac8c4bf1245233d71d0fd6,Mexican,13 or older,"yes, I am fluent in another language",no,2026-01-21_11h17.16.244,empathy_intonation_perc,2024.2.4,Win32,59.88023952,62ac8c4bf1245233d71d0fd6,6967d75d9f4867d525f9ffbe,6970fbf02b4a100513373f88,,,,,,,,,,,,,,0,,,,,,,,,,,,,,,,,,,,,,,,,,,,,,,,,,,,,,,,,,,,461.3719,462.7711,0,1,0.8734,,462.7711,463.767,0,11,11,11,1,0,pretantas,REAL,FAKE,,,,,,,,,,,,,,,,,,,,,,,,,,,,,,,,
,,,,,,,,,62ac8c4bf1245233d71d0fd6,Mexican,13 or older,"yes, I am fluent in another language",no,2026-01-21_11h17.16.244,empathy_intonation_perc,2024.2.4,Win32,59.88023952,62ac8c4bf1245233d71d0fd6,6967d75d9f4867d525f9ffbe,6970fbf02b4a100513373f88,,,,,,,,,,,,,,,,,,,,,,,,,,,,,,,,,,,,,,,,,,,,,,,,,,,,,,,,,,,,,,,,,,,,,,,,,,,463.7679,466.7885,,,,,,,,,,,,,,,,,,,,,,,,,,,,,,
,,,,,,,,,62ac8c4bf1245233d71d0fd6,Mexican,13 or older,"yes, I am fluent in another language",no,2026-01-21_11h17.16.244,empathy_intonation_perc,2024.2.4,Win32,59.88023952,62ac8c4bf1245233d71d0fd6,6967d75d9f4867d525f9ffbe,6970fbf02b4a100513373f88,,,,,,,,,,,,,,1,,,,,,,,,,,,,,,,,,,,,,,,,,,,,,,,,,,,,,,,,,,,,,,,,,,,,,,,,90,clavel,,,,,466.7931,468.0542,0,0,0.7379,,0,0,0,89,1,REAL,FAKE,,,,,,,,,,,,,,,,,
,,,,,,,,,62ac8c4bf1245233d71d0fd6,Mexican,13 or older,"yes, I am fluent in another language",no,2026-01-21_11h17.16.244,empathy_intonation_perc,2024.2.4,Win32,59.88023952,62ac8c4bf1245233d71d0fd6,6967d75d9f4867d525f9ffbe,6970fbf02b4a100513373f88,,,,,,,,,,,,,,1,,,,,,,,,,,,,,,,,,,,,,,,,,,,,,,,,,,,,,,,,,,,,,,,,,,,,,,,,91,click the 1 key.,,,,,468.0553,469.7881,1,1,1.1994,,0,1,1,90,1,REAL,FAKE,,,,,,,,,,,,,,,,,
,,,,,,,,,62ac8c4bf1245233d71d0fd6,Mexican,13 or older,"yes, I am fluent in another language",no,2026-01-21_11h17.16.244,empathy_intonation_perc,2024.2.4,Win32,59.88023952,62ac8c4bf1245233d71d0fd6,6967d75d9f4867d525f9ffbe,6970fbf02b4a100513373f88,,,,,,,,,,,,,,0,,,,,,,,,,,,,,,,,,,,,,,,,,,,,,,,,,,,,,,,,,,,,,,,,,,,,,,,,27,acutación,,,,,469.7888,473.6706,1,0,3.3471,,0,2,2,26,1,REAL,FAKE,,,,,,,,,,,,,,,,,
,,,,,,,,,62ac8c4bf1245233d71d0fd6,Mexican,13 or older,"yes, I am fluent in another language",no,2026-01-21_11h17.16.244,empathy_intonation_perc,2024.2.4,Win32,59.88023952,62ac8c4bf1245233d71d0fd6,6967d75d9f4867d525f9ffbe,6970fbf02b4a100513373f88,,,,,,,,,,,,,,1,,,,,,,,,,,,,,,,,,,,,,,,,,,,,,,,,,,,,,,,,,,,,,,,,,,,,,,,,81,pozo,,,,,473.6714,475.7043,0,0,1.5146,,0,3,3,80,1,REAL,FAKE,,,,,,,,,,,,,,,,,
,,,,,,,,,62ac8c4bf1245233d71d0fd6,Mexican,13 or older,"yes, I am fluent in another language",no,2026-01-21_11h17.16.244,empathy_intonation_perc,2024.2.4,Win32,59.88023952,62ac8c4bf1245233d71d0fd6,6967d75d9f4867d525f9ffbe,6970fbf02b4a100513373f88,,,,,,,,,,,,,,0,,,,,,,,,,,,,,,,,,,,,,,,,,,,,,,,,,,,,,,,,,,,,,,,,,,,,,,,,35,rompido,,,,,475.705,477.1211,1,0,0.8852,,0,4,4,34,1,REAL,FAKE,,,,,,,,,,,,,,,,,
,,,,,,,,,62ac8c4bf1245233d71d0fd6,Mexican,13 or older,"yes, I am fluent in another language",no,2026-01-21_11h17.16.244,empathy_intonation_perc,2024.2.4,Win32,59.88023952,62ac8c4bf1245233d71d0fd6,6967d75d9f4867d525f9ffbe,6970fbf02b4a100513373f88,,,,,,,,,,,,,,0,,,,,,,,,,,,,,,,,,,,,,,,,,,,,,,,,,,,,,,,,,,,,,,,,,,,,,,,,19,brecedad,,,,,477.1216,478.4878,0,1,0.8361,,0,5,5,18,1,REAL,FAKE,,,,,,,,,,,,,,,,,
,,,,,,,,,62ac8c4bf1245233d71d0fd6,Mexican,13 or older,"yes, I am fluent in another language",no,2026-01-21_11h17.16.244,empathy_intonation_perc,2024.2.4,Win32,59.88023952,62ac8c4bf1245233d71d0fd6,6967d75d9f4867d525f9ffbe,6970fbf02b4a100513373f88,,,,,,,,,,,,,,1,,,,,,,,,,,,,,,,,,,,,,,,,,,,,,,,,,,,,,,,,,,,,,,,,,,,,,,,,5,zapato,,,,,478.4884,479.7044,1,1,0.6853,,0,6,6,4,1,REAL,FAKE,,,,,,,,,,,,,,,,,
,,,,,,,,,62ac8c4bf1245233d71d0fd6,Mexican,13 or older,"yes, I am fluent in another language",no,2026-01-21_11h17.16.244,empathy_intonation_perc,2024.2.4,Win32,59.88023952,62ac8c4bf1245233d71d0fd6,6967d75d9f4867d525f9ffbe,6970fbf02b4a100513373f88,,,,,,,,,,,,,,1,,,,,,,,,,,,,,,,,,,,,,,,,,,,,,,,,,,,,,,,,,,,,,,,,,,,,,,,,2,pellizcar,,,,,479.705,481.5043,0,0,1.2652,,0,7,7,1,1,REAL,FAKE,,,,,,,,,,,,,,,,,
,,,,,,,,,62ac8c4bf1245233d71d0fd6,Mexican,13 or older,"yes, I am fluent in another language",no,2026-01-21_11h17.16.244,empathy_intonation_perc,2024.2.4,Win32,59.88023952,62ac8c4bf1245233d71d0fd6,6967d75d9f4867d525f9ffbe,6970fbf02b4a100513373f88,,,,,,,,,,,,,,1,,,,,,,,,,,,,,,,,,,,,,,,,,,,,,,,,,,,,,,,,,,,,,,,,,,,,,,,,26,secuestro,,,,,481.5048,482.9377,1,1,0.9222,,0,8,8,25,1,REAL,FAKE,,,,,,,,,,,,,,,,,
,,,,,,,,,62ac8c4bf1245233d71d0fd6,Mexican,13 or older,"yes, I am fluent in another language",no,2026-01-21_11h17.16.244,empathy_intonation_perc,2024.2.4,Win32,59.88023952,62ac8c4bf1245233d71d0fd6,6967d75d9f4867d525f9ffbe,6970fbf02b4a100513373f88,,,,,,,,,,,,,,0,,,,,,,,,,,,,,,,,,,,,,,,,,,,,,,,,,,,,,,,,,,,,,,,,,,,,,,,,16,abracer,,,,,482.9382,484.4542,0,1,0.9781,,0,9,9,15,1,REAL,FAKE,,,,,,,,,,,,,,,,,
,,,,,,,,,62ac8c4bf1245233d71d0fd6,Mexican,13 or older,"yes, I am fluent in another language",no,2026-01-21_11h17.16.244,empathy_intonation_perc,2024.2.4,Win32,59.88023952,62ac8c4bf1245233d71d0fd6,6967d75d9f4867d525f9ffbe,6970fbf02b4a100513373f88,,,,,,,,,,,,,,1,,,,,,,,,,,,,,,,,,,,,,,,,,,,,,,,,,,,,,,,,,,,,,,,,,,,,,,,,57,tacaño,,,,,484.4549,486.4543,1,1,1.4673,,0,10,10,56,1,REAL,FAKE,,,,,,,,,,,,,,,,,
,,,,,,,,,62ac8c4bf1245233d71d0fd6,Mexican,13 or older,"yes, I am fluent in another language",no,2026-01-21_11h17.16.244,empathy_intonation_perc,2024.2.4,Win32,59.88023952,62ac8c4bf1245233d71d0fd6,6967d75d9f4867d525f9ffbe,6970fbf02b4a100513373f88,,,,,,,,,,,,,,0,,,,,,,,,,,,,,,,,,,,,,,,,,,,,,,,,,,,,,,,,,,,,,,,,,,,,,,,,32,fatacidad,,,,,486.4548,488.071,0,1,1.084,,0,11,11,31,1,REAL,FAKE,,,,,,,,,,,,,,,,,
,,,,,,,,,62ac8c4bf1245233d71d0fd6,Mexican,13 or older,"yes, I am fluent in another language",no,2026-01-21_11h17.16.244,empathy_intonation_perc,2024.2.4,Win32,59.88023952,62ac8c4bf1245233d71d0fd6,6967d75d9f4867d525f9ffbe,6970fbf02b4a100513373f88,,,,,,,,,,,,,,0,,,,,,,,,,,,,,,,,,,,,,,,,,,,,,,,,,,,,,,,,,,,,,,,,,,,,,,,,66,hacido,,,,,488.0715,490.3206,1,0,1.7172,,0,12,12,65,1,REAL,FAKE,,,,,,,,,,,,,,,,,
,,,,,,,,,62ac8c4bf1245233d71d0fd6,Mexican,13 or older,"yes, I am fluent in another language",no,2026-01-21_11h17.16.244,empathy_intonation_perc,2024.2.4,Win32,59.88023952,62ac8c4bf1245233d71d0fd6,6967d75d9f4867d525f9ffbe,6970fbf02b4a100513373f88,,,,,,,,,,,,,,1,,,,,,,,,,,,,,,,,,,,,,,,,,,,,,,,,,,,,,,,,,,,,,,,,,,,,,,,,40,alfombra,,,,,490.3212,493.4713,1,1,2.6047,,0,13,13,39,1,REAL,FAKE,,,,,,,,,,,,,,,,,
,,,,,,,,,62ac8c4bf1245233d71d0fd6,Mexican,13 or older,"yes, I am fluent in another language",no,2026-01-21_11h17.16.244,empathy_intonation_perc,2024.2.4,Win32,59.88023952,62ac8c4bf1245233d71d0fd6,6967d75d9f4867d525f9ffbe,6970fbf02b4a100513373f88,,,,,,,,,,,,,,1,,,,,,,,,,,,,,,,,,,,,,,,,,,,,,,,,,,,,,,,,,,,,,,,,,,,,,,,,7,pésimo,,,,,493.4722,494.8877,1,1,0.8838,,0,14,14,6,1,REAL,FAKE,,,,,,,,,,,,,,,,,
,,,,,,,,,62ac8c4bf1245233d71d0fd6,Mexican,13 or older,"yes, I am fluent in another language",no,2026-01-21_11h17.16.244,empathy_intonation_perc,2024.2.4,Win32,59.88023952,62ac8c4bf1245233d71d0fd6,6967d75d9f4867d525f9ffbe,6970fbf02b4a100513373f88,,,,,,,,,,,,,,1,,,,,,,,,,,,,,,,,,,,,,,,,,,,,,,,,,,,,,,,,,,,,,,,,,,,,,,,,3,pulmones,,,,,494.8896,496.2712,1,1,0.8508,,0,15,15,2,1,REAL,FAKE,,,,,,,,,,,,,,,,,
,,,,,,,,,62ac8c4bf1245233d71d0fd6,Mexican,13 or older,"yes, I am fluent in another language",no,2026-01-21_11h17.16.244,empathy_intonation_perc,2024.2.4,Win32,59.88023952,62ac8c4bf1245233d71d0fd6,6967d75d9f4867d525f9ffbe,6970fbf02b4a100513373f88,,,,,,,,,,,,,,1,,,,,,,,,,,,,,,,,,,,,,,,,,,,,,,,,,,,,,,,,,,,,,,,,,,,,,,,,80,hormiga,,,,,496.2719,497.5545,1,1,0.7493,,0,16,16,79,1,REAL,FAKE,,,,,,,,,,,,,,,,,
,,,,,,,,,62ac8c4bf1245233d71d0fd6,Mexican,13 or older,"yes, I am fluent in another language",no,2026-01-21_11h17.16.244,empathy_intonation_perc,2024.2.4,Win32,59.88023952,62ac8c4bf1245233d71d0fd6,6967d75d9f4867d525f9ffbe,6970fbf02b4a100513373f88,,,,,,,,,,,,,,1,,,,,,,,,,,,,,,,,,,,,,,,,,,,,,,,,,,,,,,,,,,,,,,,,,,,,,,,,61,seda,,,,,497.5556,498.9552,0,0,0.874,,0,17,17,60,1,REAL,FAKE,,,,,,,,,,,,,,,,,
,,,,,,,,,62ac8c4bf1245233d71d0fd6,Mexican,13 or older,"yes, I am fluent in another language",no,2026-01-21_11h17.16.244,empathy_intonation_perc,2024.2.4,Win32,59.88023952,62ac8c4bf1245233d71d0fd6,6967d75d9f4867d525f9ffbe,6970fbf02b4a100513373f88,,,,,,,,,,,,,,0,,,,,,,,,,,,,,,,,,,,,,,,,,,,,,,,,,,,,,,,,,,,,,,,,,,,,,,,,4,batillón,,,,,498.9558,500.4878,1,0,1.0008,,0,18,18,3,1,REAL,FAKE,,,,,,,,,,,,,,,,,
,,,,,,,,,62ac8c4bf1245233d71d0fd6,Mexican,13 or older,"yes, I am fluent in another language",no,2026-01-21_11h17.16.244,empathy_intonation_perc,2024.2.4,Win32,59.88023952,62ac8c4bf1245233d71d0fd6,6967d75d9f4867d525f9ffbe,6970fbf02b4a100513373f88,,,,,,,,,,,,,,1,,,,,,,,,,,,,,,,,,,,,,,,,,,,,,,,,,,,,,,,,,,,,,,,,,,,,,,,,6,tergiversar,,,,,500.4883,501.838,0,0,0.8145,,0,19,19,5,1,REAL,FAKE,,,,,,,,,,,,,,,,,
,,,,,,,,,62ac8c4bf1245233d71d0fd6,Mexican,13 or older,"yes, I am fluent in another language",no,2026-01-21_11h17.16.244,empathy_intonation_perc,2024.2.4,Win32,59.88023952,62ac8c4bf1245233d71d0fd6,6967d75d9f4867d525f9ffbe,6970fbf02b4a100513373f88,,,,,,,,,,,,,,1,,,,,,,,,,,,,,,,,,,,,,,,,,,,,,,,,,,,,,,,,,,,,,,,,,,,,,,,,85,laúd,,,,,501.8388,503.1043,0,0,0.7305,,0,20,20,84,1,REAL,FAKE,,,,,,,,,,,,,,,,,
,,,,,,,,,62ac8c4bf1245233d71d0fd6,Mexican,13 or older,"yes, I am fluent in another language",no,2026-01-21_11h17.16.244,empathy_intonation_perc,2024.2.4,Win32,59.88023952,62ac8c4bf1245233d71d0fd6,6967d75d9f4867d525f9ffbe,6970fbf02b4a100513373f88,,,,,,,,,,,,,,1,,,,,,,,,,,,,,,,,,,,,,,,,,,,,,,,,,,,,,,,,,,,,,,,,,,,,,,,,37,granuja,,,,,503.1048,504.7211,0,0,1.0934,,0,21,21,36,1,REAL,FAKE,,,,,,,,,,,,,,,,,
,,,,,,,,,62ac8c4bf1245233d71d0fd6,Mexican,13 or older,"yes, I am fluent in another language",no,2026-01-21_11h17.16.244,empathy_intonation_perc,2024.2.4,Win32,59.88023952,62ac8c4bf1245233d71d0fd6,6967d75d9f4867d525f9ffbe,6970fbf02b4a100513373f88,,,,,,,,,,,,,,0,,,,,,,,,,,,,,,,,,,,,,,,,,,,,,,,,,,,,,,,,,,,,,,,,,,,,,,,,92,click the 0 key.,,,,,504.7217,505.9874,0,1,0.7396,,0,22,22,91,1,REAL,FAKE,,,,,,,,,,,,,,,,,
,,,,,,,,,62ac8c4bf1245233d71d0fd6,Mexican,13 or older,"yes, I am fluent in another language",no,2026-01-21_11h17.16.244,empathy_intonation_perc,2024.2.4,Win32,59.88023952,62ac8c4bf1245233d71d0fd6,6967d75d9f4867d525f9ffbe,6970fbf02b4a100513373f88,,,,,,,,,,,,,,0,,,,,,,,,,,,,,,,,,,,,,,,,,,,,,,,,,,,,,,,,,,,,,,,,,,,,,,,,50,flamida,,,,,505.9879,507.4877,0,1,0.9806,,0,23,23,49,1,REAL,FAKE,,,,,,,,,,,,,,,,,
,,,,,,,,,62ac8c4bf1245233d71d0fd6,Mexican,13 or older,"yes, I am fluent in another language",no,2026-01-21_11h17.16.244,empathy_intonation_perc,2024.2.4,Win32,59.88023952,62ac8c4bf1245233d71d0fd6,6967d75d9f4867d525f9ffbe,6970fbf02b4a100513373f88,,,,,,,,,,,,,,1,,,,,,,,,,,,,,,,,,,,,,,,,,,,,,,,,,,,,,,,,,,,,,,,,,,,,,,,,43,canela,,,,,507.4882,508.6541,1,1,0.653,,0,24,24,42,1,REAL,FAKE,,,,,,,,,,,,,,,,,
,,,,,,,,,62ac8c4bf1245233d71d0fd6,Mexican,13 or older,"yes, I am fluent in another language",no,2026-01-21_11h17.16.244,empathy_intonation_perc,2024.2.4,Win32,59.88023952,62ac8c4bf1245233d71d0fd6,6967d75d9f4867d525f9ffbe,6970fbf02b4a100513373f88,,,,,,,,,,,,,,1,,,,,,,,,,,,,,,,,,,,,,,,,,,,,,,,,,,,,,,,,,,,,,,,,,,,,,,,,62,flaco,,,,,508.6547,510.1714,1,1,0.9999,,0,25,25,61,1,REAL,FAKE,,,,,,,,,,,,,,,,,
,,,,,,,,,62ac8c4bf1245233d71d0fd6,Mexican,13 or older,"yes, I am fluent in another language",no,2026-01-21_11h17.16.244,empathy_intonation_perc,2024.2.4,Win32,59.88023952,62ac8c4bf1245233d71d0fd6,6967d75d9f4867d525f9ffbe,6970fbf02b4a100513373f88,,,,,,,,,,,,,,1,,,,,,,,,,,,,,,,,,,,,,,,,,,,,,,,,,,,,,,,,,,,,,,,,,,,,,,,,83,guante,,,,,510.172,511.6713,1,1,0.9695,,0,26,26,82,1,REAL,FAKE,,,,,,,,,,,,,,,,,
,,,,,,,,,62ac8c4bf1245233d71d0fd6,Mexican,13 or older,"yes, I am fluent in another language",no,2026-01-21_11h17.16.244,empathy_intonation_perc,2024.2.4,Win32,59.88023952,62ac8c4bf1245233d71d0fd6,6967d75d9f4867d525f9ffbe,6970fbf02b4a100513373f88,,,,,,,,,,,,,,0,,,,,,,,,,,,,,,,,,,,,,,,,,,,,,,,,,,,,,,,,,,,,,,,,,,,,,,,,72,pemición,,,,,511.6719,512.9209,0,1,0.7161,,0,27,27,71,1,REAL,FAKE,,,,,,,,,,,,,,,,,
,,,,,,,,,62ac8c4bf1245233d71d0fd6,Mexican,13 or older,"yes, I am fluent in another language",no,2026-01-21_11h17.16.244,empathy_intonation_perc,2024.2.4,Win32,59.88023952,62ac8c4bf1245233d71d0fd6,6967d75d9f4867d525f9ffbe,6970fbf02b4a100513373f88,,,,,,,,,,,,,,1,,,,,,,,,,,,,,,,,,,,,,,,,,,,,,,,,,,,,,,,,,,,,,,,,,,,,,,,,65,bizcocho,,,,,512.9216,514.1043,0,0,0.6519,,0,28,28,64,1,REAL,FAKE,,,,,,,,,,,,,,,,,
,,,,,,,,,62ac8c4bf1245233d71d0fd6,Mexican,13 or older,"yes, I am fluent in another language",no,2026-01-21_11h17.16.244,empathy_intonation_perc,2024.2.4,Win32,59.88023952,62ac8c4bf1245233d71d0fd6,6967d75d9f4867d525f9ffbe,6970fbf02b4a100513373f88,,,,,,,,,,,,,,1,,,,,,,,,,,,,,,,,,,,,,,,,,,,,,,,,,,,,,,,,,,,,,,,,,,,,,,,,34,aviso,,,,,514.1048,515.3708,1,1,0.7339,,0,29,29,33,1,REAL,FAKE,,,,,,,,,,,,,,,,,
,,,,,,,,,62ac8c4bf1245233d71d0fd6,Mexican,13 or older,"yes, I am fluent in another language",no,2026-01-21_11h17.16.244,empathy_intonation_perc,2024.2.4,Win32,59.88023952,62ac8c4bf1245233d71d0fd6,6967d75d9f4867d525f9ffbe,6970fbf02b4a100513373f88,,,,,,,,,,,,,,0,,,,,,,,,,,,,,,,,,,,,,,,,,,,,,,,,,,,,,,,,,,,,,,,,,,,,,,,,42,cadallo,,,,,515.3714,516.7879,0,1,0.9064,,0,30,30,41,1,REAL,FAKE,,,,,,,,,,,,,,,,,
,,,,,,,,,62ac8c4bf1245233d71d0fd6,Mexican,13 or older,"yes, I am fluent in another language",no,2026-01-21_11h17.16.244,empathy_intonation_perc,2024.2.4,Win32,59.88023952,62ac8c4bf1245233d71d0fd6,6967d75d9f4867d525f9ffbe,6970fbf02b4a100513373f88,,,,,,,,,,,,,,0,,,,,,,,,,,,,,,,,,,,,,,,,,,,,,,,,,,,,,,,,,,,,,,,,,,,,,,,,70,temblo,,,,,516.7884,518.1377,0,1,0.8159,,0,31,31,69,1,REAL,FAKE,,,,,,,,,,,,,,,,,
,,,,,,,,,62ac8c4bf1245233d71d0fd6,Mexican,13 or older,"yes, I am fluent in another language",no,2026-01-21_11h17.16.244,empathy_intonation_perc,2024.2.4,Win32,59.88023952,62ac8c4bf1245233d71d0fd6,6967d75d9f4867d525f9ffbe,6970fbf02b4a100513373f88,,,,,,,,,,,,,,1,,,,,,,,,,,,,,,,,,,,,,,,,,,,,,,,,,,,,,,,,,,,,,,,,,,,,,,,,48,ladrón,,,,,518.1383,519.404,1,1,0.7389,,0,32,32,47,1,REAL,FAKE,,,,,,,,,,,,,,,,,
,,,,,,,,,62ac8c4bf1245233d71d0fd6,Mexican,13 or older,"yes, I am fluent in another language",no,2026-01-21_11h17.16.244,empathy_intonation_perc,2024.2.4,Win32,59.88023952,62ac8c4bf1245233d71d0fd6,6967d75d9f4867d525f9ffbe,6970fbf02b4a100513373f88,,,,,,,,,,,,,,1,,,,,,,,,,,,,,,,,,,,,,,,,,,,,,,,,,,,,,,,,,,,,,,,,,,,,,,,,88,acantilado,,,,,519.4047,521.6377,1,1,1.7049,,0,33,33,87,1,REAL,FAKE,,,,,,,,,,,,,,,,,
,,,,,,,,,62ac8c4bf1245233d71d0fd6,Mexican,13 or older,"yes, I am fluent in another language",no,2026-01-21_11h17.16.244,empathy_intonation_perc,2024.2.4,Win32,59.88023952,62ac8c4bf1245233d71d0fd6,6967d75d9f4867d525f9ffbe,6970fbf02b4a100513373f88,,,,,,,,,,,,,,0,,,,,,,,,,,,,,,,,,,,,,,,,,,,,,,,,,,,,,,,,,,,,,,,,,,,,,,,,18,arsa,,,,,521.6383,523.121,0,1,0.9611,,0,34,34,17,1,REAL,FAKE,,,,,,,,,,,,,,,,,
,,,,,,,,,62ac8c4bf1245233d71d0fd6,Mexican,13 or older,"yes, I am fluent in another language",no,2026-01-21_11h17.16.244,empathy_intonation_perc,2024.2.4,Win32,59.88023952,62ac8c4bf1245233d71d0fd6,6967d75d9f4867d525f9ffbe,6970fbf02b4a100513373f88,,,,,,,,,,,,,,0,,,,,,,,,,,,,,,,,,,,,,,,,,,,,,,,,,,,,,,,,,,,,,,,,,,,,,,,,10,antar,,,,,523.1217,525.5206,0,1,1.877,,0,35,35,9,1,REAL,FAKE,,,,,,,,,,,,,,,,,
,,,,,,,,,62ac8c4bf1245233d71d0fd6,Mexican,13 or older,"yes, I am fluent in another language",no,2026-01-21_11h17.16.244,empathy_intonation_perc,2024.2.4,Win32,59.88023952,62ac8c4bf1245233d71d0fd6,6967d75d9f4867d525f9ffbe,6970fbf02b4a100513373f88,,,,,,,,,,,,,,1,,,,,,,,,,,,,,,,,,,,,,,,,,,,,,,,,,,,,,,,,,,,,,,,,,,,,,,,,52,camisa,,,,,525.5211,526.7045,1,1,0.6655,,0,36,36,51,1,REAL,FAKE,,,,,,,,,,,,,,,,,
,,,,,,,,,62ac8c4bf1245233d71d0fd6,Mexican,13 or older,"yes, I am fluent in another language",no,2026-01-21_11h17.16.244,empathy_intonation_perc,2024.2.4,Win32,59.88023952,62ac8c4bf1245233d71d0fd6,6967d75d9f4867d525f9ffbe,6970fbf02b4a100513373f88,,,,,,,,,,,,,,0,,,,,,,,,,,,,,,,,,,,,,,,,,,,,,,,,,,,,,,,,,,,,,,,,,,,,,,,,53,vegada,,,,,526.7051,528.0381,0,1,0.8057,,0,37,37,52,1,REAL,FAKE,,,,,,,,,,,,,,,,,
,,,,,,,,,62ac8c4bf1245233d71d0fd6,Mexican,13 or older,"yes, I am fluent in another language",no,2026-01-21_11h17.16.244,empathy_intonation_perc,2024.2.4,Win32,59.88023952,62ac8c4bf1245233d71d0fd6,6967d75d9f4867d525f9ffbe,6970fbf02b4a100513373f88,,,,,,,,,,,,,,1,,,,,,,,,,,,,,,,,,,,,,,,,,,,,,,,,,,,,,,,,,,,,,,,,,,,,,,,,39,torpe,,,,,528.0386,529.4544,1,1,0.8849,,0,38,38,38,1,REAL,FAKE,,,,,,,,,,,,,,,,,
,,,,,,,,,62ac8c4bf1245233d71d0fd6,Mexican,13 or older,"yes, I am fluent in another language",no,2026-01-21_11h17.16.244,empathy_intonation_perc,2024.2.4,Win32,59.88023952,62ac8c4bf1245233d71d0fd6,6967d75d9f4867d525f9ffbe,6970fbf02b4a100513373f88,,,,,,,,,,,,,,0,,,,,,,,,,,,,,,,,,,,,,,,,,,,,,,,,,,,,,,,,,,,,,,,,,,,,,,,,87,grodo,,,,,529.4551,530.7207,0,1,0.7309,,0,39,39,86,1,REAL,FAKE,,,,,,,,,,,,,,,,,
,,,,,,,,,62ac8c4bf1245233d71d0fd6,Mexican,13 or older,"yes, I am fluent in another language",no,2026-01-21_11h17.16.244,empathy_intonation_perc,2024.2.4,Win32,59.88023952,62ac8c4bf1245233d71d0fd6,6967d75d9f4867d525f9ffbe,6970fbf02b4a100513373f88,,,,,,,,,,,,,,1,,,,,,,,,,,,,,,,,,,,,,,,,,,,,,,,,,,,,,,,,,,,,,,,,,,,,,,,,59,besar,,,,,530.7215,532.0042,1,1,0.7619,,0,40,40,58,1,REAL,FAKE,,,,,,,,,,,,,,,,,
,,,,,,,,,62ac8c4bf1245233d71d0fd6,Mexican,13 or older,"yes, I am fluent in another language",no,2026-01-21_11h17.16.244,empathy_intonation_perc,2024.2.4,Win32,59.88023952,62ac8c4bf1245233d71d0fd6,6967d75d9f4867d525f9ffbe,6970fbf02b4a100513373f88,,,,,,,,,,,,,,1,,,,,,,,,,,,,,,,,,,,,,,,,,,,,,,,,,,,,,,,,,,,,,,,,,,,,,,,,60,matar,,,,,532.0048,533.1878,1,1,0.6536,,0,41,41,59,1,REAL,FAKE,,,,,,,,,,,,,,,,,
,,,,,,,,,62ac8c4bf1245233d71d0fd6,Mexican,13 or older,"yes, I am fluent in another language",no,2026-01-21_11h17.16.244,empathy_intonation_perc,2024.2.4,Win32,59.88023952,62ac8c4bf1245233d71d0fd6,6967d75d9f4867d525f9ffbe,6970fbf02b4a100513373f88,,,,,,,,,,,,,,1,,,,,,,,,,,,,,,,,,,,,,,,,,,,,,,,,,,,,,,,,,,,,,,,,,,,,,,,,51,candado,,,,,533.1883,534.5708,0,0,0.8475,,0,42,42,50,1,REAL,FAKE,,,,,,,,,,,,,,,,,
,,,,,,,,,62ac8c4bf1245233d71d0fd6,Mexican,13 or older,"yes, I am fluent in another language",no,2026-01-21_11h17.16.244,empathy_intonation_perc,2024.2.4,Win32,59.88023952,62ac8c4bf1245233d71d0fd6,6967d75d9f4867d525f9ffbe,6970fbf02b4a100513373f88,,,,,,,,,,,,,,1,,,,,,,,,,,,,,,,,,,,,,,,,,,,,,,,,,,,,,,,,,,,,,,,,,,,,,,,,75,yacer,,,,,534.5714,535.904,0,0,0.799,,0,43,43,74,1,REAL,FAKE,,,,,,,,,,,,,,,,,
,,,,,,,,,62ac8c4bf1245233d71d0fd6,Mexican,13 or older,"yes, I am fluent in another language",no,2026-01-21_11h17.16.244,empathy_intonation_perc,2024.2.4,Win32,59.88023952,62ac8c4bf1245233d71d0fd6,6967d75d9f4867d525f9ffbe,6970fbf02b4a100513373f88,,,,,,,,,,,,,,1,,,,,,,,,,,,,,,,,,,,,,,,,,,,,,,,,,,,,,,,,,,,,,,,,,,,,,,,,13,helar,,,,,535.9047,537.5212,1,1,1.099,,0,44,44,12,1,REAL,FAKE,,,,,,,,,,,,,,,,,
,,,,,,,,,62ac8c4bf1245233d71d0fd6,Mexican,13 or older,"yes, I am fluent in another language",no,2026-01-21_11h17.16.244,empathy_intonation_perc,2024.2.4,Win32,59.88023952,62ac8c4bf1245233d71d0fd6,6967d75d9f4867d525f9ffbe,6970fbf02b4a100513373f88,,,,,,,,,,,,,,0,,,,,,,,,,,,,,,,,,,,,,,,,,,,,,,,,,,,,,,,,,,,,,,,,,,,,,,,,79,tropaje,,,,,537.522,538.805,0,1,0.7573,,0,45,45,78,1,REAL,FAKE,,,,,,,,,,,,,,,,,
,,,,,,,,,62ac8c4bf1245233d71d0fd6,Mexican,13 or older,"yes, I am fluent in another language",no,2026-01-21_11h17.16.244,empathy_intonation_perc,2024.2.4,Win32,59.88023952,62ac8c4bf1245233d71d0fd6,6967d75d9f4867d525f9ffbe,6970fbf02b4a100513373f88,,,,,,,,,,,,,,1,,,,,,,,,,,,,,,,,,,,,,,,,,,,,,,,,,,,,,,,,,,,,,,,,,,,,,,,,67,cabello,,,,,538.8063,540.2711,1,1,0.9339,,0,46,46,66,1,REAL,FAKE,,,,,,,,,,,,,,,,,
,,,,,,,,,62ac8c4bf1245233d71d0fd6,Mexican,13 or older,"yes, I am fluent in another language",no,2026-01-21_11h17.16.244,empathy_intonation_perc,2024.2.4,Win32,59.88023952,62ac8c4bf1245233d71d0fd6,6967d75d9f4867d525f9ffbe,6970fbf02b4a100513373f88,,,,,,,,,,,,,,0,,,,,,,,,,,,,,,,,,,,,,,,,,,,,,,,,,,,,,,,,,,,,,,,,,,,,,,,,17,floroso,,,,,540.2717,542.521,1,0,1.7234,,0,47,47,16,1,REAL,FAKE,,,,,,,,,,,,,,,,,
,,,,,,,,,62ac8c4bf1245233d71d0fd6,Mexican,13 or older,"yes, I am fluent in another language",no,2026-01-21_11h17.16.244,empathy_intonation_perc,2024.2.4,Win32,59.88023952,62ac8c4bf1245233d71d0fd6,6967d75d9f4867d525f9ffbe,6970fbf02b4a100513373f88,,,,,,,,,,,,,,1,,,,,,,,,,,,,,,,,,,,,,,,,,,,,,,,,,,,,,,,,,,,,,,,,,,,,,,,,15,regar,,,,,542.522,544.1376,1,1,1.0902,,0,48,48,14,1,REAL,FAKE,,,,,,,,,,,,,,,,,
,,,,,,,,,62ac8c4bf1245233d71d0fd6,Mexican,13 or older,"yes, I am fluent in another language",no,2026-01-21_11h17.16.244,empathy_intonation_perc,2024.2.4,Win32,59.88023952,62ac8c4bf1245233d71d0fd6,6967d75d9f4867d525f9ffbe,6970fbf02b4a100513373f88,,,,,,,,,,,,,,1,,,,,,,,,,,,,,,,,,,,,,,,,,,,,,,,,,,,,,,,,,,,,,,,,,,,,,,,,68,alegre,,,,,544.1392,546.5379,1,1,1.8721,,0,49,49,67,1,REAL,FAKE,,,,,,,,,,,,,,,,,
,,,,,,,,,62ac8c4bf1245233d71d0fd6,Mexican,13 or older,"yes, I am fluent in another language",no,2026-01-21_11h17.16.244,empathy_intonation_perc,2024.2.4,Win32,59.88023952,62ac8c4bf1245233d71d0fd6,6967d75d9f4867d525f9ffbe,6970fbf02b4a100513373f88,,,,,,,,,,,,,,1,,,,,,,,,,,,,,,,,,,,,,,,,,,,,,,,,,,,,,,,,,,,,,,,,,,,,,,,,12,asesinato,,,,,546.5392,549.5881,1,1,2.5224,,0,50,50,11,1,REAL,FAKE,,,,,,,,,,,,,,,,,
,,,,,,,,,62ac8c4bf1245233d71d0fd6,Mexican,13 or older,"yes, I am fluent in another language",no,2026-01-21_11h17.16.244,empathy_intonation_perc,2024.2.4,Win32,59.88023952,62ac8c4bf1245233d71d0fd6,6967d75d9f4867d525f9ffbe,6970fbf02b4a100513373f88,,,,,,,,,,,,,,1,,,,,,,,,,,,,,,,,,,,,,,,,,,,,,,,,,,,,,,,,,,,,,,,,,,,,,,,,49,ganar,,,,,549.5887,550.8046,1,1,0.6825,,0,51,51,48,1,REAL,FAKE,,,,,,,,,,,,,,,,,
,,,,,,,,,62ac8c4bf1245233d71d0fd6,Mexican,13 or older,"yes, I am fluent in another language",no,2026-01-21_11h17.16.244,empathy_intonation_perc,2024.2.4,Win32,59.88023952,62ac8c4bf1245233d71d0fd6,6967d75d9f4867d525f9ffbe,6970fbf02b4a100513373f88,,,,,,,,,,,,,,1,,,,,,,,,,,,,,,,,,,,,,,,,,,,,,,,,,,,,,,,,,,,,,,,,,,,,,,,,36,loro,,,,,550.8054,552.5043,0,0,1.1687,,0,52,52,35,1,REAL,FAKE,,,,,,,,,,,,,,,,,
,,,,,,,,,62ac8c4bf1245233d71d0fd6,Mexican,13 or older,"yes, I am fluent in another language",no,2026-01-21_11h17.16.244,empathy_intonation_perc,2024.2.4,Win32,59.88023952,62ac8c4bf1245233d71d0fd6,6967d75d9f4867d525f9ffbe,6970fbf02b4a100513373f88,,,,,,,,,,,,,,1,,,,,,,,,,,,,,,,,,,,,,,,,,,,,,,,,,,,,,,,,,,,,,,,,,,,,,,,,56,musgo,,,,,552.505,554.1708,0,0,1.1419,,0,53,53,55,1,REAL,FAKE,,,,,,,,,,,,,,,,,
,,,,,,,,,62ac8c4bf1245233d71d0fd6,Mexican,13 or older,"yes, I am fluent in another language",no,2026-01-21_11h17.16.244,empathy_intonation_perc,2024.2.4,Win32,59.88023952,62ac8c4bf1245233d71d0fd6,6967d75d9f4867d525f9ffbe,6970fbf02b4a100513373f88,,,,,,,,,,,,,,0,,,,,,,,,,,,,,,,,,,,,,,,,,,,,,,,,,,,,,,,,,,,,,,,,,,,,,,,,21,capillo,,,,,554.1714,555.5212,0,1,0.8178,,0,54,54,20,1,REAL,FAKE,,,,,,,,,,,,,,,,,
,,,,,,,,,62ac8c4bf1245233d71d0fd6,Mexican,13 or older,"yes, I am fluent in another language",no,2026-01-21_11h17.16.244,empathy_intonation_perc,2024.2.4,Win32,59.88023952,62ac8c4bf1245233d71d0fd6,6967d75d9f4867d525f9ffbe,6970fbf02b4a100513373f88,,,,,,,,,,,,,,1,,,,,,,,,,,,,,,,,,,,,,,,,,,,,,,,,,,,,,,,,,,,,,,,,,,,,,,,,77,tiburón,,,,,555.5218,556.788,1,1,0.7332,,0,55,55,76,1,REAL,FAKE,,,,,,,,,,,,,,,,,
,,,,,,,,,62ac8c4bf1245233d71d0fd6,Mexican,13 or older,"yes, I am fluent in another language",no,2026-01-21_11h17.16.244,empathy_intonation_perc,2024.2.4,Win32,59.88023952,62ac8c4bf1245233d71d0fd6,6967d75d9f4867d525f9ffbe,6970fbf02b4a100513373f88,,,,,,,,,,,,,,0,,,,,,,,,,,,,,,,,,,,,,,,,,,,,,,,,,,,,,,,,,,,,,,,,,,,,,,,,47,cartinar,,,,,556.7886,558.1374,0,1,0.824,,0,56,56,46,1,REAL,FAKE,,,,,,,,,,,,,,,,,
,,,,,,,,,62ac8c4bf1245233d71d0fd6,Mexican,13 or older,"yes, I am fluent in another language",no,2026-01-21_11h17.16.244,empathy_intonation_perc,2024.2.4,Win32,59.88023952,62ac8c4bf1245233d71d0fd6,6967d75d9f4867d525f9ffbe,6970fbf02b4a100513373f88,,,,,,,,,,,,,,0,,,,,,,,,,,,,,,,,,,,,,,,,,,,,,,,,,,,,,,,,,,,,,,,,,,,,,,,,23,lampera,,,,,558.1381,559.6878,0,1,1.0305,,0,57,57,22,1,REAL,FAKE,,,,,,,,,,,,,,,,,
,,,,,,,,,62ac8c4bf1245233d71d0fd6,Mexican,13 or older,"yes, I am fluent in another language",no,2026-01-21_11h17.16.244,empathy_intonation_perc,2024.2.4,Win32,59.88023952,62ac8c4bf1245233d71d0fd6,6967d75d9f4867d525f9ffbe,6970fbf02b4a100513373f88,,,,,,,,,,,,,,0,,,,,,,,,,,,,,,,,,,,,,,,,,,,,,,,,,,,,,,,,,,,,,,,,,,,,,,,,30,alardio,,,,,559.6883,560.9547,0,1,0.7582,,0,58,58,29,1,REAL,FAKE,,,,,,,,,,,,,,,,,
,,,,,,,,,62ac8c4bf1245233d71d0fd6,Mexican,13 or older,"yes, I am fluent in another language",no,2026-01-21_11h17.16.244,empathy_intonation_perc,2024.2.4,Win32,59.88023952,62ac8c4bf1245233d71d0fd6,6967d75d9f4867d525f9ffbe,6970fbf02b4a100513373f88,,,,,,,,,,,,,,1,,,,,,,,,,,,,,,,,,,,,,,,,,,,,,,,,,,,,,,,,,,,,,,,,,,,,,,,,55,nevar,,,,,560.9554,562.1882,1,1,0.7002,,0,59,59,54,1,REAL,FAKE,,,,,,,,,,,,,,,,,
,,,,,,,,,62ac8c4bf1245233d71d0fd6,Mexican,13 or older,"yes, I am fluent in another language",no,2026-01-21_11h17.16.244,empathy_intonation_perc,2024.2.4,Win32,59.88023952,62ac8c4bf1245233d71d0fd6,6967d75d9f4867d525f9ffbe,6970fbf02b4a100513373f88,,,,,,,,,,,,,,1,,,,,,,,,,,,,,,,,,,,,,,,,,,,,,,,,,,,,,,,,,,,,,,,,,,,,,,,,24,látigo,,,,,562.189,563.6712,0,0,0.948,,0,60,60,23,1,REAL,FAKE,,,,,,,,,,,,,,,,,
,,,,,,,,,62ac8c4bf1245233d71d0fd6,Mexican,13 or older,"yes, I am fluent in another language",no,2026-01-21_11h17.16.244,empathy_intonation_perc,2024.2.4,Win32,59.88023952,62ac8c4bf1245233d71d0fd6,6967d75d9f4867d525f9ffbe,6970fbf02b4a100513373f88,,,,,,,,,,,,,,1,,,,,,,,,,,,,,,,,,,,,,,,,,,,,,,,,,,,,,,,,,,,,,,,,,,,,,,,,86,barato,,,,,563.6718,564.9207,1,1,0.7141,,0,61,61,85,1,REAL,FAKE,,,,,,,,,,,,,,,,,
,,,,,,,,,62ac8c4bf1245233d71d0fd6,Mexican,13 or older,"yes, I am fluent in another language",no,2026-01-21_11h17.16.244,empathy_intonation_perc,2024.2.4,Win32,59.88023952,62ac8c4bf1245233d71d0fd6,6967d75d9f4867d525f9ffbe,6970fbf02b4a100513373f88,,,,,,,,,,,,,,1,,,,,,,,,,,,,,,,,,,,,,,,,,,,,,,,,,,,,,,,,,,,,,,,,,,,,,,,,22,lacayo,,,,,564.9212,566.6714,0,0,1.2315,,0,62,62,21,1,REAL,FAKE,,,,,,,,,,,,,,,,,
,,,,,,,,,62ac8c4bf1245233d71d0fd6,Mexican,13 or older,"yes, I am fluent in another language",no,2026-01-21_11h17.16.244,empathy_intonation_perc,2024.2.4,Win32,59.88023952,62ac8c4bf1245233d71d0fd6,6967d75d9f4867d525f9ffbe,6970fbf02b4a100513373f88,,,,,,,,,,,,,,1,,,,,,,,,,,,,,,,,,,,,,,,,,,,,,,,,,,,,,,,,,,,,,,,,,,,,,,,,31,pandilla,,,,,566.672,568.0879,0,0,0.8837,,0,63,63,30,1,REAL,FAKE,,,,,,,,,,,,,,,,,
,,,,,,,,,62ac8c4bf1245233d71d0fd6,Mexican,13 or older,"yes, I am fluent in another language",no,2026-01-21_11h17.16.244,empathy_intonation_perc,2024.2.4,Win32,59.88023952,62ac8c4bf1245233d71d0fd6,6967d75d9f4867d525f9ffbe,6970fbf02b4a100513373f88,,,,,,,,,,,,,,1,,,,,,,,,,,,,,,,,,,,,,,,,,,,,,,,,,,,,,,,,,,,,,,,,,,,,,,,,11,cenefa,,,,,568.0884,569.3541,0,0,0.7417,,0,64,64,10,1,REAL,FAKE,,,,,,,,,,,,,,,,,
,,,,,,,,,62ac8c4bf1245233d71d0fd6,Mexican,13 or older,"yes, I am fluent in another language",no,2026-01-21_11h17.16.244,empathy_intonation_perc,2024.2.4,Win32,59.88023952,62ac8c4bf1245233d71d0fd6,6967d75d9f4867d525f9ffbe,6970fbf02b4a100513373f88,,,,,,,,,,,,,,0,,,,,,,,,,,,,,,,,,,,,,,,,,,,,,,,,,,,,,,,,,,,,,,,,,,,,,,,,58,plaudir,,,,,569.3547,571.9207,0,1,2.0495,,0,65,65,57,1,REAL,FAKE,,,,,,,,,,,,,,,,,
,,,,,,,,,62ac8c4bf1245233d71d0fd6,Mexican,13 or older,"yes, I am fluent in another language",no,2026-01-21_11h17.16.244,empathy_intonation_perc,2024.2.4,Win32,59.88023952,62ac8c4bf1245233d71d0fd6,6967d75d9f4867d525f9ffbe,6970fbf02b4a100513373f88,,,,,,,,,,,,,,1,,,,,,,,,,,,,,,,,,,,,,,,,,,,,,,,,,,,,,,,,,,,,,,,,,,,,,,,,89,prisa,,,,,571.9215,573.1876,1,1,0.7395,,0,66,66,88,1,REAL,FAKE,,,,,,,,,,,,,,,,,
,,,,,,,,,62ac8c4bf1245233d71d0fd6,Mexican,13 or older,"yes, I am fluent in another language",no,2026-01-21_11h17.16.244,empathy_intonation_perc,2024.2.4,Win32,59.88023952,62ac8c4bf1245233d71d0fd6,6967d75d9f4867d525f9ffbe,6970fbf02b4a100513373f88,,,,,,,,,,,,,,1,,,,,,,,,,,,,,,,,,,,,,,,,,,,,,,,,,,,,,,,,,,,,,,,,,,,,,,,,28,merodear,,,,,573.188,574.5044,0,0,0.7861,,0,67,67,27,1,REAL,FAKE,,,,,,,,,,,,,,,,,
,,,,,,,,,62ac8c4bf1245233d71d0fd6,Mexican,13 or older,"yes, I am fluent in another language",no,2026-01-21_11h17.16.244,empathy_intonation_perc,2024.2.4,Win32,59.88023952,62ac8c4bf1245233d71d0fd6,6967d75d9f4867d525f9ffbe,6970fbf02b4a100513373f88,,,,,,,,,,,,,,0,,,,,,,,,,,,,,,,,,,,,,,,,,,,,,,,,,,,,,,,,,,,,,,,,,,,,,,,,84,escuto,,,,,574.505,576.1878,0,1,1.1505,,0,68,68,83,1,REAL,FAKE,,,,,,,,,,,,,,,,,
,,,,,,,,,62ac8c4bf1245233d71d0fd6,Mexican,13 or older,"yes, I am fluent in another language",no,2026-01-21_11h17.16.244,empathy_intonation_perc,2024.2.4,Win32,59.88023952,62ac8c4bf1245233d71d0fd6,6967d75d9f4867d525f9ffbe,6970fbf02b4a100513373f88,,,,,,,,,,,,,,1,,,,,,,,,,,,,,,,,,,,,,,,,,,,,,,,,,,,,,,,,,,,,,,,,,,,,,,,,44,cuchara,,,,,576.1883,577.4382,1,1,0.7217,,0,69,69,43,1,REAL,FAKE,,,,,,,,,,,,,,,,,
,,,,,,,,,62ac8c4bf1245233d71d0fd6,Mexican,13 or older,"yes, I am fluent in another language",no,2026-01-21_11h17.16.244,empathy_intonation_perc,2024.2.4,Win32,59.88023952,62ac8c4bf1245233d71d0fd6,6967d75d9f4867d525f9ffbe,6970fbf02b4a100513373f88,,,,,,,,,,,,,,1,,,,,,,,,,,,,,,,,,,,,,,,,,,,,,,,,,,,,,,,,,,,,,,,,,,,,,,,,64,orgulloso,,,,,577.4388,578.7211,1,1,0.7465,,0,70,70,63,1,REAL,FAKE,,,,,,,,,,,,,,,,,
,,,,,,,,,62ac8c4bf1245233d71d0fd6,Mexican,13 or older,"yes, I am fluent in another language",no,2026-01-21_11h17.16.244,empathy_intonation_perc,2024.2.4,Win32,59.88023952,62ac8c4bf1245233d71d0fd6,6967d75d9f4867d525f9ffbe,6970fbf02b4a100513373f88,,,,,,,,,,,,,,0,,,,,,,,,,,,,,,,,,,,,,,,,,,,,,,,,,,,,,,,,,,,,,,,,,,,,,,,,29,decar,,,,,578.7216,580.2544,0,1,1.0009,,0,71,71,28,1,REAL,FAKE,,,,,,,,,,,,,,,,,
,,,,,,,,,62ac8c4bf1245233d71d0fd6,Mexican,13 or older,"yes, I am fluent in another language",no,2026-01-21_11h17.16.244,empathy_intonation_perc,2024.2.4,Win32,59.88023952,62ac8c4bf1245233d71d0fd6,6967d75d9f4867d525f9ffbe,6970fbf02b4a100513373f88,,,,,,,,,,,,,,1,,,,,,,,,,,,,,,,,,,,,,,,,,,,,,,,,,,,,,,,,,,,,,,,,,,,,,,,,76,atar,,,,,580.2549,581.4376,0,0,0.652,,0,72,72,75,1,REAL,FAKE,,,,,,,,,,,,,,,,,
,,,,,,,,,62ac8c4bf1245233d71d0fd6,Mexican,13 or older,"yes, I am fluent in another language",no,2026-01-21_11h17.16.244,empathy_intonation_perc,2024.2.4,Win32,59.88023952,62ac8c4bf1245233d71d0fd6,6967d75d9f4867d525f9ffbe,6970fbf02b4a100513373f88,,,,,,,,,,,,,,0,,,,,,,,,,,,,,,,,,,,,,,,,,,,,,,,,,,,,,,,,,,,,,,,,,,,,,,,,63,esposante,,,,,581.4381,583.0712,0,1,1.0952,,0,73,73,62,1,REAL,FAKE,,,,,,,,,,,,,,,,,
,,,,,,,,,62ac8c4bf1245233d71d0fd6,Mexican,13 or older,"yes, I am fluent in another language",no,2026-01-21_11h17.16.244,empathy_intonation_perc,2024.2.4,Win32,59.88023952,62ac8c4bf1245233d71d0fd6,6967d75d9f4867d525f9ffbe,6970fbf02b4a100513373f88,,,,,,,,,,,,,,1,,,,,,,,,,,,,,,,,,,,,,,,,,,,,,,,,,,,,,,,,,,,,,,,,,,,,,,,,20,ávido,,,,,583.0717,584.3208,0,0,0.7161,,0,74,74,19,1,REAL,FAKE,,,,,,,,,,,,,,,,,
,,,,,,,,,62ac8c4bf1245233d71d0fd6,Mexican,13 or older,"yes, I am fluent in another language",no,2026-01-21_11h17.16.244,empathy_intonation_perc,2024.2.4,Win32,59.88023952,62ac8c4bf1245233d71d0fd6,6967d75d9f4867d525f9ffbe,6970fbf02b4a100513373f88,,,,,,,,,,,,,,0,,,,,,,,,,,,,,,,,,,,,,,,,,,,,,,,,,,,,,,,,,,,,,,,,,,,,,,,,74,cintro,,,,,584.3213,585.6873,0,1,0.8271,,0,75,75,73,1,REAL,FAKE,,,,,,,,,,,,,,,,,
,,,,,,,,,62ac8c4bf1245233d71d0fd6,Mexican,13 or older,"yes, I am fluent in another language",no,2026-01-21_11h17.16.244,empathy_intonation_perc,2024.2.4,Win32,59.88023952,62ac8c4bf1245233d71d0fd6,6967d75d9f4867d525f9ffbe,6970fbf02b4a100513373f88,,,,,,,,,,,,,,1,,,,,,,,,,,,,,,,,,,,,,,,,,,,,,,,,,,,,,,,,,,,,,,,,,,,,,,,,25,bisagra,,,,,585.6877,586.8877,0,0,0.6682,,0,76,76,24,1,REAL,FAKE,,,,,,,,,,,,,,,,,
,,,,,,,,,62ac8c4bf1245233d71d0fd6,Mexican,13 or older,"yes, I am fluent in another language",no,2026-01-21_11h17.16.244,empathy_intonation_perc,2024.2.4,Win32,59.88023952,62ac8c4bf1245233d71d0fd6,6967d75d9f4867d525f9ffbe,6970fbf02b4a100513373f88,,,,,,,,,,,,,,1,,,,,,,,,,,,,,,,,,,,,,,,,,,,,,,,,,,,,,,,,,,,,,,,,,,,,,,,,78,frondoso,,,,,586.8884,588.3544,0,0,0.9321,,0,77,77,77,1,REAL,FAKE,,,,,,,,,,,,,,,,,
,,,,,,,,,62ac8c4bf1245233d71d0fd6,Mexican,13 or older,"yes, I am fluent in another language",no,2026-01-21_11h17.16.244,empathy_intonation_perc,2024.2.4,Win32,59.88023952,62ac8c4bf1245233d71d0fd6,6967d75d9f4867d525f9ffbe,6970fbf02b4a100513373f88,,,,,,,,,,,,,,1,,,,,,,,,,,,,,,,,,,,,,,,,,,,,,,,,,,,,,,,,,,,,,,,,,,,,,,,,45,jilguero,,,,,588.3551,589.6545,0,0,0.7637,,0,78,78,44,1,REAL,FAKE,,,,,,,,,,,,,,,,,
,,,,,,,,,62ac8c4bf1245233d71d0fd6,Mexican,13 or older,"yes, I am fluent in another language",no,2026-01-21_11h17.16.244,empathy_intonation_perc,2024.2.4,Win32,59.88023952,62ac8c4bf1245233d71d0fd6,6967d75d9f4867d525f9ffbe,6970fbf02b4a100513373f88,,,,,,,,,,,,,,0,,,,,,,,,,,,,,,,,,,,,,,,,,,,,,,,,,,,,,,,,,,,,,,,,,,,,,,,,82,empirador,,,,,589.6553,591.2042,1,0,1.0148,,0,79,79,81,1,REAL,FAKE,,,,,,,,,,,,,,,,,
,,,,,,,,,62ac8c4bf1245233d71d0fd6,Mexican,13 or older,"yes, I am fluent in another language",no,2026-01-21_11h17.16.244,empathy_intonation_perc,2024.2.4,Win32,59.88023952,62ac8c4bf1245233d71d0fd6,6967d75d9f4867d525f9ffbe,6970fbf02b4a100513373f88,,,,,,,,,,,,,,1,,,,,,,,,,,,,,,,,,,,,,,,,,,,,,,,,,,,,,,,,,,,,,,,,,,,,,,,,71,polvoriento,,,,,591.2048,592.571,0,0,0.8389,,0,80,80,70,1,REAL,FAKE,,,,,,,,,,,,,,,,,
,,,,,,,,,62ac8c4bf1245233d71d0fd6,Mexican,13 or older,"yes, I am fluent in another language",no,2026-01-21_11h17.16.244,empathy_intonation_perc,2024.2.4,Win32,59.88023952,62ac8c4bf1245233d71d0fd6,6967d75d9f4867d525f9ffbe,6970fbf02b4a100513373f88,,,,,,,,,,,,,,0,,,,,,,,,,,,,,,,,,,,,,,,,,,,,,,,,,,,,,,,,,,,,,,,,,,,,,,,,33,pauca,,,,,592.5723,593.8876,0,1,0.7846,,0,81,81,32,1,REAL,FAKE,,,,,,,,,,,,,,,,,
,,,,,,,,,62ac8c4bf1245233d71d0fd6,Mexican,13 or older,"yes, I am fluent in another language",no,2026-01-21_11h17.16.244,empathy_intonation_perc,2024.2.4,Win32,59.88023952,62ac8c4bf1245233d71d0fd6,6967d75d9f4867d525f9ffbe,6970fbf02b4a100513373f88,,,,,,,,,,,,,,1,,,,,,,,,,,,,,,,,,,,,,,,,,,,,,,,,,,,,,,,,,,,,,,,,,,,,,,,,54,fomentar,,,,,593.8893,595.0877,0,0,0.6847,,0,82,82,53,1,REAL,FAKE,,,,,,,,,,,,,,,,,
,,,,,,,,,62ac8c4bf1245233d71d0fd6,Mexican,13 or older,"yes, I am fluent in another language",no,2026-01-21_11h17.16.244,empathy_intonation_perc,2024.2.4,Win32,59.88023952,62ac8c4bf1245233d71d0fd6,6967d75d9f4867d525f9ffbe,6970fbf02b4a100513373f88,,,,,,,,,,,,,,1,,,,,,,,,,,,,,,,,,,,,,,,,,,,,,,,,,,,,,,,,,,,,,,,,,,,,,,,,9,hacha,,,,,595.0885,596.6548,1,1,1.0476,,0,83,83,8,1,REAL,FAKE,,,,,,,,,,,,,,,,,
,,,,,,,,,62ac8c4bf1245233d71d0fd6,Mexican,13 or older,"yes, I am fluent in another language",no,2026-01-21_11h17.16.244,empathy_intonation_perc,2024.2.4,Win32,59.88023952,62ac8c4bf1245233d71d0fd6,6967d75d9f4867d525f9ffbe,6970fbf02b4a100513373f88,,,,,,,,,,,,,,1,,,,,,,,,,,,,,,,,,,,,,,,,,,,,,,,,,,,,,,,,,,,,,,,,,,,,,,,,14,yunque,,,,,596.6562,598.0716,0,0,0.8862,,0,84,84,13,1,REAL,FAKE,,,,,,,,,,,,,,,,,
,,,,,,,,,62ac8c4bf1245233d71d0fd6,Mexican,13 or older,"yes, I am fluent in another language",no,2026-01-21_11h17.16.244,empathy_intonation_perc,2024.2.4,Win32,59.88023952,62ac8c4bf1245233d71d0fd6,6967d75d9f4867d525f9ffbe,6970fbf02b4a100513373f88,,,,,,,,,,,,,,1,,,,,,,,,,,,,,,,,,,,,,,,,,,,,,,,,,,,,,,,,,,,,,,,,,,,,,,,,69,engatusar,,,,,598.0724,599.3382,0,0,0.7414,,0,85,85,68,1,REAL,FAKE,,,,,,,,,,,,,,,,,
,,,,,,,,,62ac8c4bf1245233d71d0fd6,Mexican,13 or older,"yes, I am fluent in another language",no,2026-01-21_11h17.16.244,empathy_intonation_perc,2024.2.4,Win32,59.88023952,62ac8c4bf1245233d71d0fd6,6967d75d9f4867d525f9ffbe,6970fbf02b4a100513373f88,,,,,,,,,,,,,,1,,,,,,,,,,,,,,,,,,,,,,,,,,,,,,,,,,,,,,,,,,,,,,,,,,,,,,,,,73,hervidor,,,,,599.339,600.5882,0,0,0.7157,,0,86,86,72,1,REAL,FAKE,,,,,,,,,,,,,,,,,
,,,,,,,,,62ac8c4bf1245233d71d0fd6,Mexican,13 or older,"yes, I am fluent in another language",no,2026-01-21_11h17.16.244,empathy_intonation_perc,2024.2.4,Win32,59.88023952,62ac8c4bf1245233d71d0fd6,6967d75d9f4867d525f9ffbe,6970fbf02b4a100513373f88,,,,,,,,,,,,,,1,,,,,,,,,,,,,,,,,,,,,,,,,,,,,,,,,,,,,,,,,,,,,,,,,,,,,,,,,46,martillo,,,,,600.5889,601.7878,0,0,0.6655,,0,87,87,45,1,REAL,FAKE,,,,,,,,,,,,,,,,,
,,,,,,,,,62ac8c4bf1245233d71d0fd6,Mexican,13 or older,"yes, I am fluent in another language",no,2026-01-21_11h17.16.244,empathy_intonation_perc,2024.2.4,Win32,59.88023952,62ac8c4bf1245233d71d0fd6,6967d75d9f4867d525f9ffbe,6970fbf02b4a100513373f88,,,,,,,,,,,,,,1,,,,,,,,,,,,,,,,,,,,,,,,,,,,,,,,,,,,,,,,,,,,,,,,,,,,,,,,,41,rebuscar,,,,,601.7886,602.9876,0,0,0.6727,,0,88,88,40,1,REAL,FAKE,,,,,,,,,,,,,,,,,
,,,,,,,,,62ac8c4bf1245233d71d0fd6,Mexican,13 or older,"yes, I am fluent in another language",no,2026-01-21_11h17.16.244,empathy_intonation_perc,2024.2.4,Win32,59.88023952,62ac8c4bf1245233d71d0fd6,6967d75d9f4867d525f9ffbe,6970fbf02b4a100513373f88,,,,,,,,,,,,,,1,,,,,,,,,,,,,,,,,,,,,,,,,,,,,,,,,,,,,,,,,,,,,,,,,,,,,,,,,38,estornudar,,,,,602.9883,604.7212,1,1,1.2152,,0,89,89,37,1,REAL,FAKE,,,,,,,,,,,,,,,,,
,,,,,,,,,62ac8c4bf1245233d71d0fd6,Mexican,13 or older,"yes, I am fluent in another language",no,2026-01-21_11h17.16.244,empathy_intonation_perc,2024.2.4,Win32,59.88023952,62ac8c4bf1245233d71d0fd6,6967d75d9f4867d525f9ffbe,6970fbf02b4a100513373f88,,,,,,,,,,,,,,0,,,,,,,,,,,,,,,,,,,,,,,,,,,,,,,,,,,,,,,,,,,,,,,,,,,,,,,,,1,terzo,,,,,604.7217,606.6046,0,1,1.356,,0,90,90,0,1,REAL,FAKE,,,,,,,,,,,,,,,,,
,,,,,,,,,62ac8c4bf1245233d71d0fd6,Mexican,13 or older,"yes, I am fluent in another language",no,2026-01-21_11h17.16.244,empathy_intonation_perc,2024.2.4,Win32,59.88023952,62ac8c4bf1245233d71d0fd6,6967d75d9f4867d525f9ffbe,6970fbf02b4a100513373f88,,,,,,,,,,,,,,0,,,,,,,,,,,,,,,,,,,,,,,,,,,,,,,,,,,,,,,,,,,,,,,,,,,,,,,,,8,cadeña,,,,,606.6057,608.1545,0,1,1.025,,0,91,91,7,1,REAL,FAKE,,,,,,,,,,,,,,,,,
,,,,,,,,,62ac8c4bf1245233d71d0fd6,Mexican,13 or older,"yes, I am fluent in another language",no,2026-01-21_11h17.16.244,empathy_intonation_perc,2024.2.4,Win32,59.88023952,62ac8c4bf1245233d71d0fd6,6967d75d9f4867d525f9ffbe,6970fbf02b4a100513373f88,,,,,,,,,,,,,,,,,,,,,,,,,,,,,,,,,,,,,,,,,,,,,,,,,,,,,,,,,,,,,,,,,,,,,,,,,,,,,,,,,,,,,,,,,,608.1547,613.3218,,,,,,,,,,,,,,,
,,,,,,,,,62ac8c4bf1245233d71d0fd6,Mexican,13 or older,"yes, I am fluent in another language",no,2026-01-21_11h17.16.244,empathy_intonation_perc,2024.2.4,Win32,59.88023952,62ac8c4bf1245233d71d0fd6,6967d75d9f4867d525f9ffbe,6970fbf02b4a100513373f88,,,,,,,,,,,,,1,,,,,,,,,,,,,,,,,,,,,,,,,,,,,,,,,,,,,,,,,,,,,,,,,,,,,,,,,,,,,,,,,,,,,,,,,,,,,,,613.327,617.3714,strongly agree,0,0,0,0,1,I can easily tell if someone else wants to enter a conversation.,1,0,1,0,,
,,,,,,,,,62ac8c4bf1245233d71d0fd6,Mexican,13 or older,"yes, I am fluent in another language",no,2026-01-21_11h17.16.244,empathy_intonation_perc,2024.2.4,Win32,59.88023952,62ac8c4bf1245233d71d0fd6,6967d75d9f4867d525f9ffbe,6970fbf02b4a100513373f88,,,,,,,,,,,,,2,,,,,,,,,,,,,,,,,,,,,,,,,,,,,,,,,,,,,,,,,,,,,,,,,,,,,,,,,,,,,,,,,,,,,,,,,,,,,,,617.3721,619.254,strongly disagree,0,1,1,1,1,I prefer animals to humans.,0,1,0,0,,
,,,,,,,,,62ac8c4bf1245233d71d0fd6,Mexican,13 or older,"yes, I am fluent in another language",no,2026-01-21_11h17.16.244,empathy_intonation_perc,2024.2.4,Win32,59.88023952,62ac8c4bf1245233d71d0fd6,6967d75d9f4867d525f9ffbe,6970fbf02b4a100513373f88,,,,,,,,,,,,,3,,,,,,,,,,,,,,,,,,,,,,,,,,,,,,,,,,,,,,,,,,,,,,,,,,,,,,,,,,,,,,,,,,,,,,,,,,,,,,,619.2547,621.2211,slightly disagree,0,2,2,2,1,I try to keep up with the current trends and fashions.,0,1,0,0,,
,,,,,,,,,62ac8c4bf1245233d71d0fd6,Mexican,13 or older,"yes, I am fluent in another language",no,2026-01-21_11h17.16.244,empathy_intonation_perc,2024.2.4,Win32,59.88023952,62ac8c4bf1245233d71d0fd6,6967d75d9f4867d525f9ffbe,6970fbf02b4a100513373f88,,,,,,,,,,,,,4,,,,,,,,,,,,,,,,,,,,,,,,,,,,,,,,,,,,,,,,,,,,,,,,,,,,,,,,,,,,,,,,,,,,,,,,,,,,,,,621.2221,625.1711,slightly agree,0,3,3,3,1,"I find it difficult to explain to others things that I understand easily,   when they don't understand it first time.",1,0,0,1,,
,,,,,,,,,62ac8c4bf1245233d71d0fd6,Mexican,13 or older,"yes, I am fluent in another language",no,2026-01-21_11h17.16.244,empathy_intonation_perc,2024.2.4,Win32,59.88023952,62ac8c4bf1245233d71d0fd6,6967d75d9f4867d525f9ffbe,6970fbf02b4a100513373f88,,,,,,,,,,,,,5,,,,,,,,,,,,,,,,,,,,,,,,,,,,,,,,,,,,,,,,,,,,,,,,,,,,,,,,,,,,,,,,,,,,,,,,,,,,,,,625.1716,626.9049,slightly agree,0,4,4,4,1,I dream most nights.,0,1,0,0,,
