instructions_exposure.started,instructions_exposure.stopped,instructions_exposure_loop.thisRepN,instructions_exposure_loop.thisTrialN,instructions_exposure_loop.thisN,instructions_exposure_loop.thisIndex,instructions_exposure_loop.ran,instructions_text,continue_text,participant_id,"What variety of Spanish are you most familiar with? (e.g., Peruvian, Spanish, Mexican)",At what age did you begin learning Spanish?,Are you proficient in any languages other than English/Spanish?,"Are you familiar with Caribbean (e.g., Caribbean, Puerto Rican) or Galician Spanish?",date,expName,psychopyVersion,OS,frameRate,id,study_id,session,trial_exposure.started,trial_exposure.stopped,key_resp_exposure.keys,key_resp_exposure.corr,key_resp_exposure.rt,key_resp_exposure.duration,key_resp.keys,exposure_loop.thisRepN,exposure_loop.thisTrialN,exposure_loop.thisN,exposure_loop.thisIndex,exposure_loop.ran,item_num,correct_response,question,path,duration,instructions_2afc.started,instructions_2afc.stopped,instructions_2afc_loop.thisRepN,instructions_2afc_loop.thisTrialN,instructions_2afc_loop.thisN,instructions_2afc_loop.thisIndex,instructions_2afc_loop.ran,practice_2afc.started,practice_2afc.stopped,key_resp_2afc_practice.keys,key_resp_2afc_practice.corr,key_resp_2afc_practice.rt,key_resp_2afc_practice.duration,trials_2afc_practice_loop.thisRepN,trials_2afc_practice_loop.thisTrialN,trials_2afc_practice_loop.thisN,trials_2afc_practice_loop.thisIndex,trials_2afc_practice_loop.ran,check_2afc.started,check_2afc.stopped,trial_2afc.started,trial_2afc.stopped,key_resp_2afc_trial.keys,key_resp_2afc_trial.corr,key_resp_2afc_trial.rt,key_resp_2afc_trial.duration,trials_2afc_loop.thisRepN,trials_2afc_loop.thisTrialN,trials_2afc_loop.thisN,trials_2afc_loop.thisIndex,trials_2afc_loop.ran,target,variety,instructions_lextale.started,instructions_lextale.stopped,instructions_lextale_loop.thisRepN,instructions_lextale_loop.thisTrialN,instructions_lextale_loop.thisN,instructions_lextale_loop.thisIndex,instructions_lextale_loop.ran,practice_lextale.started,practice_lextale.stopped,key_resp_lextale_practice.keys,key_resp_lextale_practice.corr,key_resp_lextale_practice.rt,key_resp_lextale_practice.duration,practice_feedback_lextale.started,practice_feedback_lextale.stopped,trials_lextale_practice_loop.thisRepN,trials_lextale_practice_loop.thisTrialN,trials_lextale_practice_loop.thisN,trials_lextale_practice_loop.thisIndex,trials_lextale_practice_loop.ran,stim,word,prac_button_real,prac_button_false,check_lextale.started,check_lextale.stopped,trial_lextale.started,trial_lextale.stopped,key_resp_lextale_trial.keys,key_resp_lextale_trial.corr,key_resp_lextale_trial.rt,key_resp_lextale_trial.duration,trials_lextale_loop.thisRepN,trials_lextale_loop.thisTrialN,trials_lextale_loop.thisN,trials_lextale_loop.thisIndex,trials_lextale_loop.ran,button_real,button_false,instructions_eq.started,instructions_eq.stopped,trial_eq.started,trial_eq.stopped,slider_eq_trial.response,trials_eq_loop.thisRepN,trials_eq_loop.thisTrialN,trials_eq_loop.thisN,trials_eq_loop.thisIndex,trials_eq_loop.ran,item,is_test_item,is_distractor,is_agree_score,is_disagree_score,end_exp.started,end_exp.stopped
0.0091,12.5241,0,0,0,0,1,"In the following task, you are going to hear a series of conversations.", (press the space bar to continue),6361560a2e3e691ad312fed2,Mexican,13 or older,"no, only English or Spanish",no,2025-08-15_17h12.37.032,empathy_intonation_perc,2024.2.4,MacIntel,59.88023952,6361560a2e3e691ad312fed2,689ed6d1281858f68c932c05,689fa2985e74aa363496be53,,,,,,,,,,,,,,,,,,,,,,,,,,,,,,,,,,,,,,,,,,,,,,,,,,,,,,,,,,,,,,,,,,,,,,,,,,,,,,,,,,,,,,,,,,,,,,,,,,,,,,,,,,
12.5247,38.9416,0,1,1,1,1,It is okay if you don't not 100% understand them!, (press the space bar to continue),6361560a2e3e691ad312fed2,Mexican,13 or older,"no, only English or Spanish",no,2025-08-15_17h12.37.032,empathy_intonation_perc,2024.2.4,MacIntel,59.88023952,6361560a2e3e691ad312fed2,689ed6d1281858f68c932c05,689fa2985e74aa363496be53,,,,,,,,,,,,,,,,,,,,,,,,,,,,,,,,,,,,,,,,,,,,,,,,,,,,,,,,,,,,,,,,,,,,,,,,,,,,,,,,,,,,,,,,,,,,,,,,,,,,,,,,,,
38.9431,80.7914,0,2,2,2,1,"After, you will read a sentence about the conversation and decide if it's true or false.", (press the space bar to continue),6361560a2e3e691ad312fed2,Mexican,13 or older,"no, only English or Spanish",no,2025-08-15_17h12.37.032,empathy_intonation_perc,2024.2.4,MacIntel,59.88023952,6361560a2e3e691ad312fed2,689ed6d1281858f68c932c05,689fa2985e74aa363496be53,,,,,,,,,,,,,,,,,,,,,,,,,,,,,,,,,,,,,,,,,,,,,,,,,,,,,,,,,,,,,,,,,,,,,,,,,,,,,,,,,,,,,,,,,,,,,,,,,,,,,,,,,,
80.7929,81.958,0,3,3,3,1,"If it's true, press '1' (True) and if it's false press '0' (False).", (press the space bar to continue),6361560a2e3e691ad312fed2,Mexican,13 or older,"no, only English or Spanish",no,2025-08-15_17h12.37.032,empathy_intonation_perc,2024.2.4,MacIntel,59.88023952,6361560a2e3e691ad312fed2,689ed6d1281858f68c932c05,689fa2985e74aa363496be53,,,,,,,,,,,,,,,,,,,,,,,,,,,,,,,,,,,,,,,,,,,,,,,,,,,,,,,,,,,,,,,,,,,,,,,,,,,,,,,,,,,,,,,,,,,,,,,,,,,,,,,,,,
,,,,,,,,,6361560a2e3e691ad312fed2,Mexican,13 or older,"no, only English or Spanish",no,2025-08-15_17h12.37.032,empathy_intonation_perc,2024.2.4,MacIntel,59.88023952,6361560a2e3e691ad312fed2,689ed6d1281858f68c932c05,689fa2985e74aa363496be53,81.969,139.0926,0,0,10.0555,,,0,0,0,0,1,1,1,The son asked the mom if Aunt Marina is okay.,./stim/exposure_wavs/ga_stimuli_convo.wav,47,,,,,,,,,,,,,,,,,,,,,,,,,,,,,,,,,,,,,,,,,,,,,,,,,,,,,,,,,,,,,,,,,,,,,,,,,,,,,,,,,,,,,,,,,
,,,,,,,,,6361560a2e3e691ad312fed2,Mexican,13 or older,"no, only English or Spanish",no,2025-08-15_17h12.37.032,empathy_intonation_perc,2024.2.4,MacIntel,59.88023952,6361560a2e3e691ad312fed2,689ed6d1281858f68c932c05,689fa2985e74aa363496be53,139.0944,178.4093,1,0,3.2581,,,0,1,1,2,1,3,0,The mom already has rice.,./stim/exposure_wavs/pr_stimuli_convo.wav,36,,,,,,,,,,,,,,,,,,,,,,,,,,,,,,,,,,,,,,,,,,,,,,,,,,,,,,,,,,,,,,,,,,,,,,,,,,,,,,,,,,,,,,,,,
,,,,,,,,,6361560a2e3e691ad312fed2,Mexican,13 or older,"no, only English or Spanish",no,2025-08-15_17h12.37.032,empathy_intonation_perc,2024.2.4,MacIntel,59.88023952,6361560a2e3e691ad312fed2,689ed6d1281858f68c932c05,689fa2985e74aa363496be53,178.4105,242.16,1,1,3.7184,,,0,2,2,1,1,2,1,The mom asked the daughter if she already went to the supermarket.,./stim/exposure_wavs/dr_stimuli_convo.wav,60,,,,,,,,,,,,,,,,,,,,,,,,,,,,,,,,,,,,,,,,,,,,,,,,,,,,,,,,,,,,,,,,,,,,,,,,,,,,,,,,,,,,,,,,,
,,,,,,,"In the following task you are going to hear a series of utterances. 

  You will decide if the utterances sound like questions or not using your keyboard.", (press the spacebar to continue),6361560a2e3e691ad312fed2,Mexican,13 or older,"no, only English or Spanish",no,2025-08-15_17h12.37.032,empathy_intonation_perc,2024.2.4,MacIntel,59.88023952,6361560a2e3e691ad312fed2,689ed6d1281858f68c932c05,689fa2985e74aa363496be53,,,,,,,,,,,,,,,,,,242.1639,251.3771,0,0,0,0,1,,,,,,,,,,,,,,,,,,,,,,,,,,,,,,,,,,,,,,,,,,,,,,,,,,,,,,,,,,,,,,,,,,,,,,,,,,,,,,,,,,
,,,,,,,"If you believe the utterance is a question, type '1' (for 'yes') and if you do not 
  believe it is a question type '0' (for 'no').

  Let's practice a bit...", (press the spacebar to continue),6361560a2e3e691ad312fed2,Mexican,13 or older,"no, only English or Spanish",no,2025-08-15_17h12.37.032,empathy_intonation_perc,2024.2.4,MacIntel,59.88023952,6361560a2e3e691ad312fed2,689ed6d1281858f68c932c05,689fa2985e74aa363496be53,,,,,,,,,,,,,,,,,,251.3781,255.0605,0,1,1,1,1,,,,,,,,,,,,,,,,,,,,,,,,,,,,,,,,,,,,,,,,,,,,,,,,,,,,,,,,,,,,,,,,,,,,,,,,,,,,,,,,,,
,,,,,,,,,6361560a2e3e691ad312fed2,Mexican,13 or older,"no, only English or Spanish",no,2025-08-15_17h12.37.032,empathy_intonation_perc,2024.2.4,MacIntel,59.88023952,6361560a2e3e691ad312fed2,689ed6d1281858f68c932c05,689fa2985e74aa363496be53,,,,,,,,,,,,,,1,,./stim/wavs/argentine_question_filler_Mi-vecino-habla-mucho.wav,,,,,,,,,255.0668,259.4937,0,0,3.9015,,0,0,0,1,1,,,,,,,,,,,,,,,,,,,,,,,,,,,,,,,,,,,,,,,,,,,,,,,,,,,,,,,,,,,,,,,,,,,,,,,
,,,,,,,,,6361560a2e3e691ad312fed2,Mexican,13 or older,"no, only English or Spanish",no,2025-08-15_17h12.37.032,empathy_intonation_perc,2024.2.4,MacIntel,59.88023952,6361560a2e3e691ad312fed2,689ed6d1281858f68c932c05,689fa2985e74aa363496be53,,,,,,,,,,,,,,0,,./stim/wavs/puertorican_statement_filler_La-nina-pinta-con-su-amiga.wav,,,,,,,,,259.4942,262.1932,0,1,2.1656,,0,1,1,7,1,,,,,,,,,,,,,,,,,,,,,,,,,,,,,,,,,,,,,,,,,,,,,,,,,,,,,,,,,,,,,,,,,,,,,,,
,,,,,,,,,6361560a2e3e691ad312fed2,Mexican,13 or older,"no, only English or Spanish",no,2025-08-15_17h12.37.032,empathy_intonation_perc,2024.2.4,MacIntel,59.88023952,6361560a2e3e691ad312fed2,689ed6d1281858f68c932c05,689fa2985e74aa363496be53,,,,,,,,,,,,,,0,,./stim/wavs/andalusian_statement_filler_Alberto-nunca-se-afeita.wav,,,,,,,,,262.1938,264.5102,0,1,1.8089,,0,2,2,5,1,,,,,,,,,,,,,,,,,,,,,,,,,,,,,,,,,,,,,,,,,,,,,,,,,,,,,,,,,,,,,,,,,,,,,,,
,,,,,,,,,6361560a2e3e691ad312fed2,Mexican,13 or older,"no, only English or Spanish",no,2025-08-15_17h12.37.032,empathy_intonation_perc,2024.2.4,MacIntel,59.88023952,6361560a2e3e691ad312fed2,689ed6d1281858f68c932c05,689fa2985e74aa363496be53,,,,,,,,,,,,,,1,,./stim/wavs/castilian_question_filler_Mi-esposo-conoce-al-chico.wav,,,,,,,,,264.5107,267.7106,1,1,2.667900002,,0,3,3,0,1,,,,,,,,,,,,,,,,,,,,,,,,,,,,,,,,,,,,,,,,,,,,,,,,,,,,,,,,,,,,,,,,,,,,,,,
,,,,,,,,,6361560a2e3e691ad312fed2,Mexican,13 or older,"no, only English or Spanish",no,2025-08-15_17h12.37.032,empathy_intonation_perc,2024.2.4,MacIntel,59.88023952,6361560a2e3e691ad312fed2,689ed6d1281858f68c932c05,689fa2985e74aa363496be53,,,,,,,,,,,,,,0,,./stim/wavs/cuban_statement_filler_Cocinabas-por-la-noche.wav,,,,,,,,,267.7113,270.544,0,1,2.2999,,0,4,4,4,1,,,,,,,,,,,,,,,,,,,,,,,,,,,,,,,,,,,,,,,,,,,,,,,,,,,,,,,,,,,,,,,,,,,,,,,
,,,,,,,,,6361560a2e3e691ad312fed2,Mexican,13 or older,"no, only English or Spanish",no,2025-08-15_17h12.37.032,empathy_intonation_perc,2024.2.4,MacIntel,59.88023952,6361560a2e3e691ad312fed2,689ed6d1281858f68c932c05,689fa2985e74aa363496be53,,,,,,,,,,,,,,1,,./stim/wavs/mexican_question_filler_Felipe-no-tiene-contrasena.wav,,,,,,,,,270.5448,273.1431,1,1,2.068,,0,5,5,3,1,,,,,,,,,,,,,,,,,,,,,,,,,,,,,,,,,,,,,,,,,,,,,,,,,,,,,,,,,,,,,,,,,,,,,,,
,,,,,,,,,6361560a2e3e691ad312fed2,Mexican,13 or older,"no, only English or Spanish",no,2025-08-15_17h12.37.032,empathy_intonation_perc,2024.2.4,MacIntel,59.88023952,6361560a2e3e691ad312fed2,689ed6d1281858f68c932c05,689fa2985e74aa363496be53,,,,,,,,,,,,,,0,,./stim/wavs/peruvian_statement_filler_El-nino-habla-con-su-madre.wav,,,,,,,,,273.1436,276.0603,0,1,2.3999,,0,6,6,6,1,,,,,,,,,,,,,,,,,,,,,,,,,,,,,,,,,,,,,,,,,,,,,,,,,,,,,,,,,,,,,,,,,,,,,,,
,,,,,,,,,6361560a2e3e691ad312fed2,Mexican,13 or older,"no, only English or Spanish",no,2025-08-15_17h12.37.032,empathy_intonation_perc,2024.2.4,MacIntel,59.88023952,6361560a2e3e691ad312fed2,689ed6d1281858f68c932c05,689fa2985e74aa363496be53,,,,,,,,,,,,,,1,,./stim/wavs/chilean_question_filler_Mi-padre-cantaba-bien.wav,,,,,,,,,276.0606,278.5607,1,1,1.987799999,,0,7,7,2,1,,,,,,,,,,,,,,,,,,,,,,,,,,,,,,,,,,,,,,,,,,,,,,,,,,,,,,,,,,,,,,,,,,,,,,,
,,,,,,,,,6361560a2e3e691ad312fed2,Mexican,13 or older,"no, only English or Spanish",no,2025-08-15_17h12.37.032,empathy_intonation_perc,2024.2.4,MacIntel,59.88023952,6361560a2e3e691ad312fed2,689ed6d1281858f68c932c05,689fa2985e74aa363496be53,,,,,,,,,,,,,,,,,,,,,,,,,,,,,,,,,,,,278.5614,281.6114,,,,,,,,,,,,,,,,,,,,,,,,,,,,,,,,,,,,,,,,,,,,,,,,,,,,,,,,,,,,,,,,,,,,,
,,,,,,,,,6361560a2e3e691ad312fed2,Mexican,13 or older,"no, only English or Spanish",no,2025-08-15_17h12.37.032,empathy_intonation_perc,2024.2.4,MacIntel,59.88023952,6361560a2e3e691ad312fed2,689ed6d1281858f68c932c05,689fa2985e74aa363496be53,,,,,,,,,,,,,10,1,,./stim/wavs/cuban_match_interrogative-total-yn_Maria-bebe-el-vino.wav,,,,,,,,,,,,,,,,,,,,,,281.621,284.8113,0,0,2.665900002,,0,0,0,9,1,1,cuban,,,,,,,,,,,,,,,,,,,,,,,,,,,,,,,,,,,,,,,,,,,,,,,,,,,,,,,,
,,,,,,,,,6361560a2e3e691ad312fed2,Mexican,13 or older,"no, only English or Spanish",no,2025-08-15_17h12.37.032,empathy_intonation_perc,2024.2.4,MacIntel,59.88023952,6361560a2e3e691ad312fed2,689ed6d1281858f68c932c05,689fa2985e74aa363496be53,,,,,,,,,,,,,67,0,,./stim/wavs/puertorican_match_declarative-broad-focus_Manuela-vende-el-carro.wav,,,,,,,,,,,,,,,,,,,,,,284.8121,288.5775,1,0,3.2374,,0,1,1,66,1,0,puertorican,,,,,,,,,,,,,,,,,,,,,,,,,,,,,,,,,,,,,,,,,,,,,,,,,,,,,,,,
,,,,,,,,,6361560a2e3e691ad312fed2,Mexican,13 or older,"no, only English or Spanish",no,2025-08-15_17h12.37.032,empathy_intonation_perc,2024.2.4,MacIntel,59.88023952,6361560a2e3e691ad312fed2,689ed6d1281858f68c932c05,689fa2985e74aa363496be53,,,,,,,,,,,,,75,0,,./stim/wavs/cuban_mismatch_declarative-broad-focus_El-hombre-mira-la-luna.wav,,,,,,,,,,,,,,,,,,,,,,288.5782,292.3109,0,1,3.200800001,,0,2,2,74,1,0,cuban,,,,,,,,,,,,,,,,,,,,,,,,,,,,,,,,,,,,,,,,,,,,,,,,,,,,,,,,
,,,,,,,,,6361560a2e3e691ad312fed2,Mexican,13 or older,"no, only English or Spanish",no,2025-08-15_17h12.37.032,empathy_intonation_perc,2024.2.4,MacIntel,59.88023952,6361560a2e3e691ad312fed2,689ed6d1281858f68c932c05,689fa2985e74aa363496be53,,,,,,,,,,,,,82,0,,./stim/wavs/mexican_mismatch_declarative-broad-focus_Mi-novio-viene-del-lago.wav,,,,,,,,,,,,,,,,,,,,,,292.3116,294.811,0,1,1.967400002,,0,3,3,81,1,0,mexican,,,,,,,,,,,,,,,,,,,,,,,,,,,,,,,,,,,,,,,,,,,,,,,,,,,,,,,,
,,,,,,,,,6361560a2e3e691ad312fed2,Mexican,13 or older,"no, only English or Spanish",no,2025-08-15_17h12.37.032,empathy_intonation_perc,2024.2.4,MacIntel,59.88023952,6361560a2e3e691ad312fed2,689ed6d1281858f68c932c05,689fa2985e74aa363496be53,,,,,,,,,,,,,45,0,,./stim/wavs/castilian_match_declarative-broad-focus_David-leia-el-libro.wav,,,,,,,,,,,,,,,,,,,,,,294.8116,297.461,1,0,2.1265,,0,4,4,44,1,0,castilian,,,,,,,,,,,,,,,,,,,,,,,,,,,,,,,,,,,,,,,,,,,,,,,,,,,,,,,,
,,,,,,,,,6361560a2e3e691ad312fed2,Mexican,13 or older,"no, only English or Spanish",no,2025-08-15_17h12.37.032,empathy_intonation_perc,2024.2.4,MacIntel,59.88023952,6361560a2e3e691ad312fed2,689ed6d1281858f68c932c05,689fa2985e74aa363496be53,,,,,,,,,,,,,40,1,,./stim/wavs/puertorican_mismatch_interrogative-total-yn_El-hombre-mira-la-luna.wav,,,,,,,,,,,,,,,,,,,,,,297.4617,300.3772,0,0,2.3859,,0,5,5,39,1,1,puertorican,,,,,,,,,,,,,,,,,,,,,,,,,,,,,,,,,,,,,,,,,,,,,,,,,,,,,,,,
,,,,,,,,,6361560a2e3e691ad312fed2,Mexican,13 or older,"no, only English or Spanish",no,2025-08-15_17h12.37.032,empathy_intonation_perc,2024.2.4,MacIntel,59.88023952,6361560a2e3e691ad312fed2,689ed6d1281858f68c932c05,689fa2985e74aa363496be53,,,,,,,,,,,,,22,1,,./stim/wavs/puertorican_match_interrogative-total-yn_Emilio-ama-la-marcha.wav,,,,,,,,,,,,,,,,,,,,,,300.3776,302.7278,0,0,1.8425,,0,6,6,21,1,1,puertorican,,,,,,,,,,,,,,,,,,,,,,,,,,,,,,,,,,,,,,,,,,,,,,,,,,,,,,,,
,,,,,,,,,6361560a2e3e691ad312fed2,Mexican,13 or older,"no, only English or Spanish",no,2025-08-15_17h12.37.032,empathy_intonation_perc,2024.2.4,MacIntel,59.88023952,6361560a2e3e691ad312fed2,689ed6d1281858f68c932c05,689fa2985e74aa363496be53,,,,,,,,,,,,,74,0,,./stim/wavs/cuban_mismatch_declarative-broad-focus_El-bebe-comia-muy-bien.wav,,,,,,,,,,,,,,,,,,,,,,302.7286,306.1277,0,1,2.8671,,0,7,7,73,1,0,cuban,,,,,,,,,,,,,,,,,,,,,,,,,,,,,,,,,,,,,,,,,,,,,,,,,,,,,,,,
,,,,,,,,,6361560a2e3e691ad312fed2,Mexican,13 or older,"no, only English or Spanish",no,2025-08-15_17h12.37.032,empathy_intonation_perc,2024.2.4,MacIntel,59.88023952,6361560a2e3e691ad312fed2,689ed6d1281858f68c932c05,689fa2985e74aa363496be53,,,,,,,,,,,,,51,0,,./stim/wavs/cuban_match_declarative-broad-focus_Ana-lleva-el-abrigo.wav,,,,,,,,,,,,,,,,,,,,,,306.1282,309.8947,1,0,3.233300001,,0,8,8,50,1,0,cuban,,,,,,,,,,,,,,,,,,,,,,,,,,,,,,,,,,,,,,,,,,,,,,,,,,,,,,,,
,,,,,,,,,6361560a2e3e691ad312fed2,Mexican,13 or older,"no, only English or Spanish",no,2025-08-15_17h12.37.032,empathy_intonation_perc,2024.2.4,MacIntel,59.88023952,6361560a2e3e691ad312fed2,689ed6d1281858f68c932c05,689fa2985e74aa363496be53,,,,,,,,,,,,,12,1,,./stim/wavs/cuban_match_interrogative-total-yn_Marta-abre-el-regalo.wav,,,,,,,,,,,,,,,,,,,,,,309.8956,317.1777,0,0,6.760299999,,0,9,9,11,1,1,cuban,,,,,,,,,,,,,,,,,,,,,,,,,,,,,,,,,,,,,,,,,,,,,,,,,,,,,,,,
,,,,,,,,,6361560a2e3e691ad312fed2,Mexican,13 or older,"no, only English or Spanish",no,2025-08-15_17h12.37.032,empathy_intonation_perc,2024.2.4,MacIntel,59.88023952,6361560a2e3e691ad312fed2,689ed6d1281858f68c932c05,689fa2985e74aa363496be53,,,,,,,,,,,,,83,0,,./stim/wavs/mexican_mismatch_declarative-broad-focus_Mi-tia-odia-la-lluvia.wav,,,,,,,,,,,,,,,,,,,,,,317.1783,320.9276,0,1,3.2265,,0,10,10,82,1,0,mexican,,,,,,,,,,,,,,,,,,,,,,,,,,,,,,,,,,,,,,,,,,,,,,,,,,,,,,,,
,,,,,,,,,6361560a2e3e691ad312fed2,Mexican,13 or older,"no, only English or Spanish",no,2025-08-15_17h12.37.032,empathy_intonation_perc,2024.2.4,MacIntel,59.88023952,6361560a2e3e691ad312fed2,689ed6d1281858f68c932c05,689fa2985e74aa363496be53,,,,,,,,,,,,,8,1,,./stim/wavs/cuban_match_interrogative-total-yn_Daniel-iba-a-Bolivia.wav,,,,,,,,,,,,,,,,,,,,,,320.928,323.8777,1,1,2.4281,,0,11,11,7,1,1,cuban,,,,,,,,,,,,,,,,,,,,,,,,,,,,,,,,,,,,,,,,,,,,,,,,,,,,,,,,
,,,,,,,,,6361560a2e3e691ad312fed2,Mexican,13 or older,"no, only English or Spanish",no,2025-08-15_17h12.37.032,empathy_intonation_perc,2024.2.4,MacIntel,59.88023952,6361560a2e3e691ad312fed2,689ed6d1281858f68c932c05,689fa2985e74aa363496be53,,,,,,,,,,,,,24,1,,./stim/wavs/puertorican_match_interrogative-total-yn_Maria-bebe-el-vino.wav,,,,,,,,,,,,,,,,,,,,,,323.878,328.4118,1,1,4.016200001,,0,12,12,23,1,1,puertorican,,,,,,,,,,,,,,,,,,,,,,,,,,,,,,,,,,,,,,,,,,,,,,,,,,,,,,,,
,,,,,,,,,6361560a2e3e691ad312fed2,Mexican,13 or older,"no, only English or Spanish",no,2025-08-15_17h12.37.032,empathy_intonation_perc,2024.2.4,MacIntel,59.88023952,6361560a2e3e691ad312fed2,689ed6d1281858f68c932c05,689fa2985e74aa363496be53,,,,,,,,,,,,,81,0,,./stim/wavs/mexican_mismatch_declarative-broad-focus_La-maestra-vive-en-Paris.wav,,,,,,,,,,,,,,,,,,,,,,328.413,331.7611,0,1,2.8284,,0,13,13,80,1,0,mexican,,,,,,,,,,,,,,,,,,,,,,,,,,,,,,,,,,,,,,,,,,,,,,,,,,,,,,,,
,,,,,,,,,6361560a2e3e691ad312fed2,Mexican,13 or older,"no, only English or Spanish",no,2025-08-15_17h12.37.032,empathy_intonation_perc,2024.2.4,MacIntel,59.88023952,6361560a2e3e691ad312fed2,689ed6d1281858f68c932c05,689fa2985e74aa363496be53,,,,,,,,,,,,,46,0,,./stim/wavs/castilian_match_declarative-broad-focus_Emilio-ama-la-marcha.wav,,,,,,,,,,,,,,,,,,,,,,331.7615,335.6616,0,1,3.3674,,0,14,14,45,1,0,castilian,,,,,,,,,,,,,,,,,,,,,,,,,,,,,,,,,,,,,,,,,,,,,,,,,,,,,,,,
,,,,,,,,,6361560a2e3e691ad312fed2,Mexican,13 or older,"no, only English or Spanish",no,2025-08-15_17h12.37.032,empathy_intonation_perc,2024.2.4,MacIntel,59.88023952,6361560a2e3e691ad312fed2,689ed6d1281858f68c932c05,689fa2985e74aa363496be53,,,,,,,,,,,,,57,0,,./stim/wavs/mexican_match_declarative-broad-focus_Ana-lleva-el-abrigo.wav,,,,,,,,,,,,,,,,,,,,,,335.6623,338.3618,1,0,2.1694,,0,15,15,56,1,0,mexican,,,,,,,,,,,,,,,,,,,,,,,,,,,,,,,,,,,,,,,,,,,,,,,,,,,,,,,,
,,,,,,,,,6361560a2e3e691ad312fed2,Mexican,13 or older,"no, only English or Spanish",no,2025-08-15_17h12.37.032,empathy_intonation_perc,2024.2.4,MacIntel,59.88023952,6361560a2e3e691ad312fed2,689ed6d1281858f68c932c05,689fa2985e74aa363496be53,,,,,,,,,,,,,33,1,,./stim/wavs/cuban_mismatch_interrogative-total-yn_Mi-novio-viene-del-lago.wav,,,,,,,,,,,,,,,,,,,,,,338.3629,344.3782,0,0,5.488299999,,0,16,16,32,1,1,cuban,,,,,,,,,,,,,,,,,,,,,,,,,,,,,,,,,,,,,,,,,,,,,,,,,,,,,,,,
,,,,,,,,,6361560a2e3e691ad312fed2,Mexican,13 or older,"no, only English or Spanish",no,2025-08-15_17h12.37.032,empathy_intonation_perc,2024.2.4,MacIntel,59.88023952,6361560a2e3e691ad312fed2,689ed6d1281858f68c932c05,689fa2985e74aa363496be53,,,,,,,,,,,,,68,0,,./stim/wavs/puertorican_match_declarative-broad-focus_Maria-bebe-el-vino.wav,,,,,,,,,,,,,,,,,,,,,,344.379,353.7117,0,1,8.813300001,,0,17,17,67,1,0,puertorican,,,,,,,,,,,,,,,,,,,,,,,,,,,,,,,,,,,,,,,,,,,,,,,,,,,,,,,,
,,,,,,,,,6361560a2e3e691ad312fed2,Mexican,13 or older,"no, only English or Spanish",no,2025-08-15_17h12.37.032,empathy_intonation_perc,2024.2.4,MacIntel,59.88023952,6361560a2e3e691ad312fed2,689ed6d1281858f68c932c05,689fa2985e74aa363496be53,,,,,,,,,,,,,11,1,,./stim/wavs/cuban_match_interrogative-total-yn_Mariano-habla-del-tiempo.wav,,,,,,,,,,,,,,,,,,,,,,353.7127,359.5281,0,0,5.287700001,,0,18,18,10,1,1,cuban,,,,,,,,,,,,,,,,,,,,,,,,,,,,,,,,,,,,,,,,,,,,,,,,,,,,,,,,
,,,,,,,,,6361560a2e3e691ad312fed2,Mexican,13 or older,"no, only English or Spanish",no,2025-08-15_17h12.37.032,empathy_intonation_perc,2024.2.4,MacIntel,59.88023952,6361560a2e3e691ad312fed2,689ed6d1281858f68c932c05,689fa2985e74aa363496be53,,,,,,,,,,,,,13,1,,./stim/wavs/mexican_match_interrogative-total-yn_Ana-lleva-el-abrigo.wav,,,,,,,,,,,,,,,,,,,,,,359.5286,362.1787,0,0,2.129800001,,0,19,19,12,1,0,mexican,,,,,,,,,,,,,,,,,,,,,,,,,,,,,,,,,,,,,,,,,,,,,,,,,,,,,,,,
,,,,,,,,,6361560a2e3e691ad312fed2,Mexican,13 or older,"no, only English or Spanish",no,2025-08-15_17h12.37.032,empathy_intonation_perc,2024.2.4,MacIntel,59.88023952,6361560a2e3e691ad312fed2,689ed6d1281858f68c932c05,689fa2985e74aa363496be53,,,,,,,,,,,,,59,0,,./stim/wavs/mexican_match_declarative-broad-focus_David-leia-el-libro.wav,,,,,,,,,,,,,,,,,,,,,,362.1795,364.4621,0,1,1.750699999,,0,20,20,58,1,0,mexican,,,,,,,,,,,,,,,,,,,,,,,,,,,,,,,,,,,,,,,,,,,,,,,,,,,,,,,,
,,,,,,,,,6361560a2e3e691ad312fed2,Mexican,13 or older,"no, only English or Spanish",no,2025-08-15_17h12.37.032,empathy_intonation_perc,2024.2.4,MacIntel,59.88023952,6361560a2e3e691ad312fed2,689ed6d1281858f68c932c05,689fa2985e74aa363496be53,,,,,,,,,,,,,23,1,,./stim/wavs/puertorican_match_interrogative-total-yn_Manuela-vende-el-carro.wav,,,,,,,,,,,,,,,,,,,,,,364.4629,367.3451,1,1,2.3531,,0,21,21,22,1,1,puertorican,,,,,,,,,,,,,,,,,,,,,,,,,,,,,,,,,,,,,,,,,,,,,,,,,,,,,,,,
,,,,,,,,,6361560a2e3e691ad312fed2,Mexican,13 or older,"no, only English or Spanish",no,2025-08-15_17h12.37.032,empathy_intonation_perc,2024.2.4,MacIntel,59.88023952,6361560a2e3e691ad312fed2,689ed6d1281858f68c932c05,689fa2985e74aa363496be53,,,,,,,,,,,,,61,0,,./stim/wavs/mexican_match_declarative-broad-focus_Mariano-habla-del-tiempo.wav,,,,,,,,,,,,,,,,,,,,,,367.3456,369.9452,1,0,2.0705,,0,22,22,60,1,0,mexican,,,,,,,,,,,,,,,,,,,,,,,,,,,,,,,,,,,,,,,,,,,,,,,,,,,,,,,,
,,,,,,,,,6361560a2e3e691ad312fed2,Mexican,13 or older,"no, only English or Spanish",no,2025-08-15_17h12.37.032,empathy_intonation_perc,2024.2.4,MacIntel,59.88023952,6361560a2e3e691ad312fed2,689ed6d1281858f68c932c05,689fa2985e74aa363496be53,,,,,,,,,,,,,3,1,,./stim/wavs/castilian_match_interrogative-total-yn_Manuela-vende-el-carro.wav,,,,,,,,,,,,,,,,,,,,,,369.9458,373.662,1,1,3.1839,,0,23,23,2,1,0,castilian,,,,,,,,,,,,,,,,,,,,,,,,,,,,,,,,,,,,,,,,,,,,,,,,,,,,,,,,
,,,,,,,,,6361560a2e3e691ad312fed2,Mexican,13 or older,"no, only English or Spanish",no,2025-08-15_17h12.37.032,empathy_intonation_perc,2024.2.4,MacIntel,59.88023952,6361560a2e3e691ad312fed2,689ed6d1281858f68c932c05,689fa2985e74aa363496be53,,,,,,,,,,,,,9,1,,./stim/wavs/cuban_match_interrogative-total-yn_Manuela-vende-el-carro.wav,,,,,,,,,,,,,,,,,,,,,,373.6627,377.4617,0,0,3.276300001,,0,24,24,8,1,1,cuban,,,,,,,,,,,,,,,,,,,,,,,,,,,,,,,,,,,,,,,,,,,,,,,,,,,,,,,,
,,,,,,,,,6361560a2e3e691ad312fed2,Mexican,13 or older,"no, only English or Spanish",no,2025-08-15_17h12.37.032,empathy_intonation_perc,2024.2.4,MacIntel,59.88023952,6361560a2e3e691ad312fed2,689ed6d1281858f68c932c05,689fa2985e74aa363496be53,,,,,,,,,,,,,69,0,,./stim/wavs/castilian_mismatch_declarative-broad-focus_El-nino-oye-el-rio.wav,,,,,,,,,,,,,,,,,,,,,,377.462,380.9287,0,1,2.9364,,0,25,25,68,1,0,castilian,,,,,,,,,,,,,,,,,,,,,,,,,,,,,,,,,,,,,,,,,,,,,,,,,,,,,,,,
,,,,,,,,,6361560a2e3e691ad312fed2,Mexican,13 or older,"no, only English or Spanish",no,2025-08-15_17h12.37.032,empathy_intonation_perc,2024.2.4,MacIntel,59.88023952,6361560a2e3e691ad312fed2,689ed6d1281858f68c932c05,689fa2985e74aa363496be53,,,,,,,,,,,,,27,1,,./stim/wavs/castilian_mismatch_interrogative-total-yn_Mi-madre-come-la-fruta.wav,,,,,,,,,,,,,,,,,,,,,,380.9294,383.5786,1,1,2.120700001,,0,26,26,26,1,0,castilian,,,,,,,,,,,,,,,,,,,,,,,,,,,,,,,,,,,,,,,,,,,,,,,,,,,,,,,,
,,,,,,,,,6361560a2e3e691ad312fed2,Mexican,13 or older,"no, only English or Spanish",no,2025-08-15_17h12.37.032,empathy_intonation_perc,2024.2.4,MacIntel,59.88023952,6361560a2e3e691ad312fed2,689ed6d1281858f68c932c05,689fa2985e74aa363496be53,,,,,,,,,,,,,26,1,,./stim/wavs/castilian_mismatch_interrogative-total-yn_La-nina-lava-el-plato.wav,,,,,,,,,,,,,,,,,,,,,,383.5792,386.8283,1,1,2.727,,0,27,27,25,1,0,castilian,,,,,,,,,,,,,,,,,,,,,,,,,,,,,,,,,,,,,,,,,,,,,,,,,,,,,,,,
,,,,,,,,,6361560a2e3e691ad312fed2,Mexican,13 or older,"no, only English or Spanish",no,2025-08-15_17h12.37.032,empathy_intonation_perc,2024.2.4,MacIntel,59.88023952,6361560a2e3e691ad312fed2,689ed6d1281858f68c932c05,689fa2985e74aa363496be53,,,,,,,,,,,,,5,1,,./stim/wavs/castilian_match_interrogative-total-yn_Mariano-habla-del-tiempo.wav,,,,,,,,,,,,,,,,,,,,,,386.8294,389.6123,0,0,2.2516,,0,28,28,4,1,0,castilian,,,,,,,,,,,,,,,,,,,,,,,,,,,,,,,,,,,,,,,,,,,,,,,,,,,,,,,,
,,,,,,,,,6361560a2e3e691ad312fed2,Mexican,13 or older,"no, only English or Spanish",no,2025-08-15_17h12.37.032,empathy_intonation_perc,2024.2.4,MacIntel,59.88023952,6361560a2e3e691ad312fed2,689ed6d1281858f68c932c05,689fa2985e74aa363496be53,,,,,,,,,,,,,62,0,,./stim/wavs/mexican_match_declarative-broad-focus_Marta-abre-el-regalo.wav,,,,,,,,,,,,,,,,,,,,,,389.6131,391.7948,0,1,1.6499,,0,29,29,61,1,0,mexican,,,,,,,,,,,,,,,,,,,,,,,,,,,,,,,,,,,,,,,,,,,,,,,,,,,,,,,,
,,,,,,,,,6361560a2e3e691ad312fed2,Mexican,13 or older,"no, only English or Spanish",no,2025-08-15_17h12.37.032,empathy_intonation_perc,2024.2.4,MacIntel,59.88023952,6361560a2e3e691ad312fed2,689ed6d1281858f68c932c05,689fa2985e74aa363496be53,,,,,,,,,,,,,80,0,,./stim/wavs/mexican_mismatch_declarative-broad-focus_El-hombre-mira-la-luna.wav,,,,,,,,,,,,,,,,,,,,,,391.7954,393.9958,1,0,1.683799999,,0,30,30,79,1,0,mexican,,,,,,,,,,,,,,,,,,,,,,,,,,,,,,,,,,,,,,,,,,,,,,,,,,,,,,,,
,,,,,,,,,6361560a2e3e691ad312fed2,Mexican,13 or older,"no, only English or Spanish",no,2025-08-15_17h12.37.032,empathy_intonation_perc,2024.2.4,MacIntel,59.88023952,6361560a2e3e691ad312fed2,689ed6d1281858f68c932c05,689fa2985e74aa363496be53,,,,,,,,,,,,,54,0,,./stim/wavs/cuban_match_declarative-broad-focus_Maria-bebe-el-vino.wav,,,,,,,,,,,,,,,,,,,,,,393.9967,398.1619,0,1,3.6365,,0,31,31,53,1,0,cuban,,,,,,,,,,,,,,,,,,,,,,,,,,,,,,,,,,,,,,,,,,,,,,,,,,,,,,,,
,,,,,,,,,6361560a2e3e691ad312fed2,Mexican,13 or older,"no, only English or Spanish",no,2025-08-15_17h12.37.032,empathy_intonation_perc,2024.2.4,MacIntel,59.88023952,6361560a2e3e691ad312fed2,689ed6d1281858f68c932c05,689fa2985e74aa363496be53,,,,,,,,,,,,,66,0,,./stim/wavs/puertorican_match_declarative-broad-focus_Emilio-ama-la-marcha.wav,,,,,,,,,,,,,,,,,,,,,,398.1623,401.0456,0,1,2.3676,,0,32,32,65,1,0,puertorican,,,,,,,,,,,,,,,,,,,,,,,,,,,,,,,,,,,,,,,,,,,,,,,,,,,,,,,,
,,,,,,,,,6361560a2e3e691ad312fed2,Mexican,13 or older,"no, only English or Spanish",no,2025-08-15_17h12.37.032,empathy_intonation_perc,2024.2.4,MacIntel,59.88023952,6361560a2e3e691ad312fed2,689ed6d1281858f68c932c05,689fa2985e74aa363496be53,,,,,,,,,,,,,88,0,,./stim/wavs/puertorican_mismatch_declarative-broad-focus_La-nina-lava-el-plato.wav,,,,,,,,,,,,,,,,,,,,,,401.0467,403.9626,1,0,2.383200001,,0,33,33,87,1,0,puertorican,,,,,,,,,,,,,,,,,,,,,,,,,,,,,,,,,,,,,,,,,,,,,,,,,,,,,,,,
,,,,,,,,,6361560a2e3e691ad312fed2,Mexican,13 or older,"no, only English or Spanish",no,2025-08-15_17h12.37.032,empathy_intonation_perc,2024.2.4,MacIntel,59.88023952,6361560a2e3e691ad312fed2,689ed6d1281858f68c932c05,689fa2985e74aa363496be53,,,,,,,,,,,,,72,0,,./stim/wavs/castilian_mismatch_declarative-broad-focus_Mi-novio-viene-del-lago.wav,,,,,,,,,,,,,,,,,,,,,,403.9634,406.4625,1,0,1.9799,,0,34,34,71,1,0,castilian,,,,,,,,,,,,,,,,,,,,,,,,,,,,,,,,,,,,,,,,,,,,,,,,,,,,,,,,
,,,,,,,,,6361560a2e3e691ad312fed2,Mexican,13 or older,"no, only English or Spanish",no,2025-08-15_17h12.37.032,empathy_intonation_perc,2024.2.4,MacIntel,59.88023952,6361560a2e3e691ad312fed2,689ed6d1281858f68c932c05,689fa2985e74aa363496be53,,,,,,,,,,,,,37,1,,./stim/wavs/mexican_mismatch_interrogative-total-yn_La-maestra-vive-en-Paris.wav,,,,,,,,,,,,,,,,,,,,,,406.4631,410.1121,1,1,3.116799999,,0,35,35,36,1,0,mexican,,,,,,,,,,,,,,,,,,,,,,,,,,,,,,,,,,,,,,,,,,,,,,,,,,,,,,,,
,,,,,,,,,6361560a2e3e691ad312fed2,Mexican,13 or older,"no, only English or Spanish",no,2025-08-15_17h12.37.032,empathy_intonation_perc,2024.2.4,MacIntel,59.88023952,6361560a2e3e691ad312fed2,689ed6d1281858f68c932c05,689fa2985e74aa363496be53,,,,,,,,,,,,,71,0,,./stim/wavs/castilian_mismatch_declarative-broad-focus_La-nina-lava-el-plato.wav,,,,,,,,,,,,,,,,,,,,,,410.1127,413.246,0,1,2.600400002,,0,36,36,70,1,0,castilian,,,,,,,,,,,,,,,,,,,,,,,,,,,,,,,,,,,,,,,,,,,,,,,,,,,,,,,,
,,,,,,,,,6361560a2e3e691ad312fed2,Mexican,13 or older,"no, only English or Spanish",no,2025-08-15_17h12.37.032,empathy_intonation_perc,2024.2.4,MacIntel,59.88023952,6361560a2e3e691ad312fed2,689ed6d1281858f68c932c05,689fa2985e74aa363496be53,,,,,,,,,,,,,30,1,,./stim/wavs/cuban_mismatch_interrogative-total-yn_El-hombre-mira-la-luna.wav,,,,,,,,,,,,,,,,,,,,,,413.2465,415.5288,1,1,1.7574,,0,37,37,29,1,1,cuban,,,,,,,,,,,,,,,,,,,,,,,,,,,,,,,,,,,,,,,,,,,,,,,,,,,,,,,,
,,,,,,,,,6361560a2e3e691ad312fed2,Mexican,13 or older,"no, only English or Spanish",no,2025-08-15_17h12.37.032,empathy_intonation_perc,2024.2.4,MacIntel,59.88023952,6361560a2e3e691ad312fed2,689ed6d1281858f68c932c05,689fa2985e74aa363496be53,,,,,,,,,,,,,70,0,,./stim/wavs/castilian_mismatch_declarative-broad-focus_La-maestra-vive-en-Paris.wav,,,,,,,,,,,,,,,,,,,,,,415.5292,418.8959,0,1,2.8505,,0,38,38,69,1,0,castilian,,,,,,,,,,,,,,,,,,,,,,,,,,,,,,,,,,,,,,,,,,,,,,,,,,,,,,,,
,,,,,,,,,6361560a2e3e691ad312fed2,Mexican,13 or older,"no, only English or Spanish",no,2025-08-15_17h12.37.032,empathy_intonation_perc,2024.2.4,MacIntel,59.88023952,6361560a2e3e691ad312fed2,689ed6d1281858f68c932c05,689fa2985e74aa363496be53,,,,,,,,,,,,,29,1,,./stim/wavs/castilian_mismatch_interrogative-total-yn_Mi-tia-odia-la-lluvia.wav,,,,,,,,,,,,,,,,,,,,,,418.8965,421.9793,1,1,2.5615,,0,39,39,28,1,0,castilian,,,,,,,,,,,,,,,,,,,,,,,,,,,,,,,,,,,,,,,,,,,,,,,,,,,,,,,,
,,,,,,,,,6361560a2e3e691ad312fed2,Mexican,13 or older,"no, only English or Spanish",no,2025-08-15_17h12.37.032,empathy_intonation_perc,2024.2.4,MacIntel,59.88023952,6361560a2e3e691ad312fed2,689ed6d1281858f68c932c05,689fa2985e74aa363496be53,,,,,,,,,,,,,16,1,,./stim/wavs/mexican_match_interrogative-total-yn_Emilio-ama-la-marcha.wav,,,,,,,,,,,,,,,,,,,,,,421.9801,425.1294,0,0,2.62,,0,40,40,15,1,0,mexican,,,,,,,,,,,,,,,,,,,,,,,,,,,,,,,,,,,,,,,,,,,,,,,,,,,,,,,,
,,,,,,,,,6361560a2e3e691ad312fed2,Mexican,13 or older,"no, only English or Spanish",no,2025-08-15_17h12.37.032,empathy_intonation_perc,2024.2.4,MacIntel,59.88023952,6361560a2e3e691ad312fed2,689ed6d1281858f68c932c05,689fa2985e74aa363496be53,,,,,,,,,,,,,20,1,,./stim/wavs/puertorican_match_interrogative-total-yn_Daniel-iba-a-Bolivia.wav,,,,,,,,,,,,,,,,,,,,,,425.1302,428.3127,1,1,2.6615,,0,41,41,19,1,1,puertorican,,,,,,,,,,,,,,,,,,,,,,,,,,,,,,,,,,,,,,,,,,,,,,,,,,,,,,,,
,,,,,,,,,6361560a2e3e691ad312fed2,Mexican,13 or older,"no, only English or Spanish",no,2025-08-15_17h12.37.032,empathy_intonation_perc,2024.2.4,MacIntel,59.88023952,6361560a2e3e691ad312fed2,689ed6d1281858f68c932c05,689fa2985e74aa363496be53,,,,,,,,,,,,,63,0,,./stim/wavs/puertorican_match_declarative-broad-focus_Ana-lleva-el-abrigo.wav,,,,,,,,,,,,,,,,,,,,,,428.3133,431.5795,0,1,2.7335,,0,42,42,62,1,0,puertorican,,,,,,,,,,,,,,,,,,,,,,,,,,,,,,,,,,,,,,,,,,,,,,,,,,,,,,,,
,,,,,,,,,6361560a2e3e691ad312fed2,Mexican,13 or older,"no, only English or Spanish",no,2025-08-15_17h12.37.032,empathy_intonation_perc,2024.2.4,MacIntel,59.88023952,6361560a2e3e691ad312fed2,689ed6d1281858f68c932c05,689fa2985e74aa363496be53,,,,,,,,,,,,,55,0,,./stim/wavs/cuban_match_declarative-broad-focus_Mariano-habla-del-tiempo.wav,,,,,,,,,,,,,,,,,,,,,,431.5803,434.7794,0,1,2.677700001,,0,43,43,54,1,0,cuban,,,,,,,,,,,,,,,,,,,,,,,,,,,,,,,,,,,,,,,,,,,,,,,,,,,,,,,,
,,,,,,,,,6361560a2e3e691ad312fed2,Mexican,13 or older,"no, only English or Spanish",no,2025-08-15_17h12.37.032,empathy_intonation_perc,2024.2.4,MacIntel,59.88023952,6361560a2e3e691ad312fed2,689ed6d1281858f68c932c05,689fa2985e74aa363496be53,,,,,,,,,,,,,21,1,,./stim/wavs/puertorican_match_interrogative-total-yn_David-leia-el-libro.wav,,,,,,,,,,,,,,,,,,,,,,434.78,438.18,0,0,2.8795,,0,44,44,20,1,1,puertorican,,,,,,,,,,,,,,,,,,,,,,,,,,,,,,,,,,,,,,,,,,,,,,,,,,,,,,,,
,,,,,,,,,6361560a2e3e691ad312fed2,Mexican,13 or older,"no, only English or Spanish",no,2025-08-15_17h12.37.032,empathy_intonation_perc,2024.2.4,MacIntel,59.88023952,6361560a2e3e691ad312fed2,689ed6d1281858f68c932c05,689fa2985e74aa363496be53,,,,,,,,,,,,,39,1,,./stim/wavs/mexican_mismatch_interrogative-total-yn_Mi-tia-odia-la-lluvia.wav,,,,,,,,,,,,,,,,,,,,,,438.1805,441.0959,0,0,2.387200001,,0,45,45,38,1,0,mexican,,,,,,,,,,,,,,,,,,,,,,,,,,,,,,,,,,,,,,,,,,,,,,,,,,,,,,,,
,,,,,,,,,6361560a2e3e691ad312fed2,Mexican,13 or older,"no, only English or Spanish",no,2025-08-15_17h12.37.032,empathy_intonation_perc,2024.2.4,MacIntel,59.88023952,6361560a2e3e691ad312fed2,689ed6d1281858f68c932c05,689fa2985e74aa363496be53,,,,,,,,,,,,,65,0,,./stim/wavs/puertorican_match_declarative-broad-focus_David-leia-el-libro.wav,,,,,,,,,,,,,,,,,,,,,,441.0963,443.3629,0,1,1.733799999,,0,46,46,64,1,0,puertorican,,,,,,,,,,,,,,,,,,,,,,,,,,,,,,,,,,,,,,,,,,,,,,,,,,,,,,,,
,,,,,,,,,6361560a2e3e691ad312fed2,Mexican,13 or older,"no, only English or Spanish",no,2025-08-15_17h12.37.032,empathy_intonation_perc,2024.2.4,MacIntel,59.88023952,6361560a2e3e691ad312fed2,689ed6d1281858f68c932c05,689fa2985e74aa363496be53,,,,,,,,,,,,,36,1,,./stim/wavs/mexican_mismatch_interrogative-total-yn_El-nino-oye-el-rio.wav,,,,,,,,,,,,,,,,,,,,,,443.3635,446.2125,1,1,2.3256,,0,47,47,35,1,0,mexican,,,,,,,,,,,,,,,,,,,,,,,,,,,,,,,,,,,,,,,,,,,,,,,,,,,,,,,,
,,,,,,,,,6361560a2e3e691ad312fed2,Mexican,13 or older,"no, only English or Spanish",no,2025-08-15_17h12.37.032,empathy_intonation_perc,2024.2.4,MacIntel,59.88023952,6361560a2e3e691ad312fed2,689ed6d1281858f68c932c05,689fa2985e74aa363496be53,,,,,,,,,,,,,77,0,,./stim/wavs/cuban_mismatch_declarative-broad-focus_Mi-novio-viene-del-lago.wav,,,,,,,,,,,,,,,,,,,,,,446.2128,450.4297,0,1,3.7004,,0,48,48,76,1,0,cuban,,,,,,,,,,,,,,,,,,,,,,,,,,,,,,,,,,,,,,,,,,,,,,,,,,,,,,,,
,,,,,,,,,6361560a2e3e691ad312fed2,Mexican,13 or older,"no, only English or Spanish",no,2025-08-15_17h12.37.032,empathy_intonation_perc,2024.2.4,MacIntel,59.88023952,6361560a2e3e691ad312fed2,689ed6d1281858f68c932c05,689fa2985e74aa363496be53,,,,,,,,,,,,,85,0,,./stim/wavs/puertorican_mismatch_declarative-broad-focus_El-hombre-mira-la-luna.wav,,,,,,,,,,,,,,,,,,,,,,450.4303,454.1964,0,1,3.2356,,0,49,49,84,1,0,puertorican,,,,,,,,,,,,,,,,,,,,,,,,,,,,,,,,,,,,,,,,,,,,,,,,,,,,,,,,
,,,,,,,,,6361560a2e3e691ad312fed2,Mexican,13 or older,"no, only English or Spanish",no,2025-08-15_17h12.37.032,empathy_intonation_perc,2024.2.4,MacIntel,59.88023952,6361560a2e3e691ad312fed2,689ed6d1281858f68c932c05,689fa2985e74aa363496be53,,,,,,,,,,,,,6,1,,./stim/wavs/castilian_match_interrogative-total-yn_Marta-abre-el-regalo.wav,,,,,,,,,,,,,,,,,,,,,,454.1973,457.3294,1,1,2.603200001,,0,50,50,5,1,0,castilian,,,,,,,,,,,,,,,,,,,,,,,,,,,,,,,,,,,,,,,,,,,,,,,,,,,,,,,,
,,,,,,,,,6361560a2e3e691ad312fed2,Mexican,13 or older,"no, only English or Spanish",no,2025-08-15_17h12.37.032,empathy_intonation_perc,2024.2.4,MacIntel,59.88023952,6361560a2e3e691ad312fed2,689ed6d1281858f68c932c05,689fa2985e74aa363496be53,,,,,,,,,,,,,35,1,,./stim/wavs/mexican_mismatch_interrogative-total-yn_El-hombre-mira-la-luna.wav,,,,,,,,,,,,,,,,,,,,,,457.3297,461.58,0,0,3.722199999,0.001300001,0,51,51,34,1,0,mexican,,,,,,,,,,,,,,,,,,,,,,,,,,,,,,,,,,,,,,,,,,,,,,,,,,,,,,,,
,,,,,,,,,6361560a2e3e691ad312fed2,Mexican,13 or older,"no, only English or Spanish",no,2025-08-15_17h12.37.032,empathy_intonation_perc,2024.2.4,MacIntel,59.88023952,6361560a2e3e691ad312fed2,689ed6d1281858f68c932c05,689fa2985e74aa363496be53,,,,,,,,,,,,,7,1,,./stim/wavs/cuban_match_interrogative-total-yn_Ana-lleva-el-abrigo.wav,,,,,,,,,,,,,,,,,,,,,,461.5808,464.4295,1,1,2.3229,,0,52,52,6,1,1,cuban,,,,,,,,,,,,,,,,,,,,,,,,,,,,,,,,,,,,,,,,,,,,,,,,,,,,,,,,
,,,,,,,,,6361560a2e3e691ad312fed2,Mexican,13 or older,"no, only English or Spanish",no,2025-08-15_17h12.37.032,empathy_intonation_perc,2024.2.4,MacIntel,59.88023952,6361560a2e3e691ad312fed2,689ed6d1281858f68c932c05,689fa2985e74aa363496be53,,,,,,,,,,,,,60,0,,./stim/wavs/mexican_match_declarative-broad-focus_Emilio-ama-la-marcha.wav,,,,,,,,,,,,,,,,,,,,,,464.4297,467.7966,0,1,2.8501,,0,53,53,59,1,0,mexican,,,,,,,,,,,,,,,,,,,,,,,,,,,,,,,,,,,,,,,,,,,,,,,,,,,,,,,,
,,,,,,,,,6361560a2e3e691ad312fed2,Mexican,13 or older,"no, only English or Spanish",no,2025-08-15_17h12.37.032,empathy_intonation_perc,2024.2.4,MacIntel,59.88023952,6361560a2e3e691ad312fed2,689ed6d1281858f68c932c05,689fa2985e74aa363496be53,,,,,,,,,,,,,2,1,,./stim/wavs/castilian_match_interrogative-total-yn_Emilio-ama-la-marcha.wav,,,,,,,,,,,,,,,,,,,,,,467.7973,471.4469,0,0,3.1176,,0,54,54,1,1,0,castilian,,,,,,,,,,,,,,,,,,,,,,,,,,,,,,,,,,,,,,,,,,,,,,,,,,,,,,,,
,,,,,,,,,6361560a2e3e691ad312fed2,Mexican,13 or older,"no, only English or Spanish",no,2025-08-15_17h12.37.032,empathy_intonation_perc,2024.2.4,MacIntel,59.88023952,6361560a2e3e691ad312fed2,689ed6d1281858f68c932c05,689fa2985e74aa363496be53,,,,,,,,,,,,,52,0,,./stim/wavs/cuban_match_declarative-broad-focus_Daniel-iba-a-Bolivia.wav,,,,,,,,,,,,,,,,,,,,,,471.4478,473.1636,0,1,1.1945,,0,55,55,51,1,0,cuban,,,,,,,,,,,,,,,,,,,,,,,,,,,,,,,,,,,,,,,,,,,,,,,,,,,,,,,,
,,,,,,,,,6361560a2e3e691ad312fed2,Mexican,13 or older,"no, only English or Spanish",no,2025-08-15_17h12.37.032,empathy_intonation_perc,2024.2.4,MacIntel,59.88023952,6361560a2e3e691ad312fed2,689ed6d1281858f68c932c05,689fa2985e74aa363496be53,,,,,,,,,,,,,41,1,,./stim/wavs/puertorican_mismatch_interrogative-total-yn_El-nino-oye-el-rio.wav,,,,,,,,,,,,,,,,,,,,,,473.1647,478.4466,0,0,4.7536,,0,56,56,40,1,1,puertorican,,,,,,,,,,,,,,,,,,,,,,,,,,,,,,,,,,,,,,,,,,,,,,,,,,,,,,,,
,,,,,,,,,6361560a2e3e691ad312fed2,Mexican,13 or older,"no, only English or Spanish",no,2025-08-15_17h12.37.032,empathy_intonation_perc,2024.2.4,MacIntel,59.88023952,6361560a2e3e691ad312fed2,689ed6d1281858f68c932c05,689fa2985e74aa363496be53,,,,,,,,,,,,,53,0,,./stim/wavs/cuban_match_declarative-broad-focus_Manuela-vende-el-carro.wav,,,,,,,,,,,,,,,,,,,,,,478.4477,481.4136,0,1,2.4449,,0,57,57,52,1,0,cuban,,,,,,,,,,,,,,,,,,,,,,,,,,,,,,,,,,,,,,,,,,,,,,,,,,,,,,,,
,,,,,,,,,6361560a2e3e691ad312fed2,Mexican,13 or older,"no, only English or Spanish",no,2025-08-15_17h12.37.032,empathy_intonation_perc,2024.2.4,MacIntel,59.88023952,6361560a2e3e691ad312fed2,689ed6d1281858f68c932c05,689fa2985e74aa363496be53,,,,,,,,,,,,,15,1,,./stim/wavs/mexican_match_interrogative-total-yn_David-leia-el-libro.wav,,,,,,,,,,,,,,,,,,,,,,481.4144,484.4965,0,0,2.5501,,0,58,58,14,1,0,mexican,,,,,,,,,,,,,,,,,,,,,,,,,,,,,,,,,,,,,,,,,,,,,,,,,,,,,,,,
,,,,,,,,,6361560a2e3e691ad312fed2,Mexican,13 or older,"no, only English or Spanish",no,2025-08-15_17h12.37.032,empathy_intonation_perc,2024.2.4,MacIntel,59.88023952,6361560a2e3e691ad312fed2,689ed6d1281858f68c932c05,689fa2985e74aa363496be53,,,,,,,,,,,,,50,0,,./stim/wavs/castilian_match_declarative-broad-focus_Marta-abre-el-regalo.wav,,,,,,,,,,,,,,,,,,,,,,484.4969,489.1966,0,1,4.167300001,,0,59,59,49,1,0,castilian,,,,,,,,,,,,,,,,,,,,,,,,,,,,,,,,,,,,,,,,,,,,,,,,,,,,,,,,
,,,,,,,,,6361560a2e3e691ad312fed2,Mexican,13 or older,"no, only English or Spanish",no,2025-08-15_17h12.37.032,empathy_intonation_perc,2024.2.4,MacIntel,59.88023952,6361560a2e3e691ad312fed2,689ed6d1281858f68c932c05,689fa2985e74aa363496be53,,,,,,,,,,,,,49,0,,./stim/wavs/castilian_match_declarative-broad-focus_Mariano-habla-del-tiempo.wav,,,,,,,,,,,,,,,,,,,,,,489.197,493.3138,0,1,3.5841,,0,60,60,48,1,0,castilian,,,,,,,,,,,,,,,,,,,,,,,,,,,,,,,,,,,,,,,,,,,,,,,,,,,,,,,,
,,,,,,,,,6361560a2e3e691ad312fed2,Mexican,13 or older,"no, only English or Spanish",no,2025-08-15_17h12.37.032,empathy_intonation_perc,2024.2.4,MacIntel,59.88023952,6361560a2e3e691ad312fed2,689ed6d1281858f68c932c05,689fa2985e74aa363496be53,,,,,,,,,,,,,84,0,,./stim/wavs/puertorican_mismatch_declarative-broad-focus_El-bebe-comia-muy-bien.wav,,,,,,,,,,,,,,,,,,,,,,493.3145,496.2637,0,1,2.4195,,0,61,61,83,1,0,puertorican,,,,,,,,,,,,,,,,,,,,,,,,,,,,,,,,,,,,,,,,,,,,,,,,,,,,,,,,
,,,,,,,,,6361560a2e3e691ad312fed2,Mexican,13 or older,"no, only English or Spanish",no,2025-08-15_17h12.37.032,empathy_intonation_perc,2024.2.4,MacIntel,59.88023952,6361560a2e3e691ad312fed2,689ed6d1281858f68c932c05,689fa2985e74aa363496be53,,,,,,,,,,,,,58,0,,./stim/wavs/mexican_match_declarative-broad-focus_Daniel-iba-a-Bolivia.wav,,,,,,,,,,,,,,,,,,,,,,496.2645,499.0136,1,0,2.226,,0,62,62,57,1,0,mexican,,,,,,,,,,,,,,,,,,,,,,,,,,,,,,,,,,,,,,,,,,,,,,,,,,,,,,,,
,,,,,,,,,6361560a2e3e691ad312fed2,Mexican,13 or older,"no, only English or Spanish",no,2025-08-15_17h12.37.032,empathy_intonation_perc,2024.2.4,MacIntel,59.88023952,6361560a2e3e691ad312fed2,689ed6d1281858f68c932c05,689fa2985e74aa363496be53,,,,,,,,,,,,,1,1,,./stim/wavs/castilian_match_interrogative-total-yn_David-leia-el-libro.wav,,,,,,,,,,,,,,,,,,,,,,499.0143,501.6804,1,1,2.134299999,,0,63,63,0,1,0,castilian,,,,,,,,,,,,,,,,,,,,,,,,,,,,,,,,,,,,,,,,,,,,,,,,,,,,,,,,
,,,,,,,,,6361560a2e3e691ad312fed2,Mexican,13 or older,"no, only English or Spanish",no,2025-08-15_17h12.37.032,empathy_intonation_perc,2024.2.4,MacIntel,59.88023952,6361560a2e3e691ad312fed2,689ed6d1281858f68c932c05,689fa2985e74aa363496be53,,,,,,,,,,,,,43,1,,./stim/wavs/puertorican_mismatch_interrogative-total-yn_La-nina-lava-el-plato.wav,,,,,,,,,,,,,,,,,,,,,,501.6811,505.1138,0,0,2.910900002,,0,64,64,42,1,1,puertorican,,,,,,,,,,,,,,,,,,,,,,,,,,,,,,,,,,,,,,,,,,,,,,,,,,,,,,,,
,,,,,,,,,6361560a2e3e691ad312fed2,Mexican,13 or older,"no, only English or Spanish",no,2025-08-15_17h12.37.032,empathy_intonation_perc,2024.2.4,MacIntel,59.88023952,6361560a2e3e691ad312fed2,689ed6d1281858f68c932c05,689fa2985e74aa363496be53,,,,,,,,,,,,,4,1,,./stim/wavs/castilian_match_interrogative-total-yn_Maria-bebe-el-vino.wav,,,,,,,,,,,,,,,,,,,,,,505.1147,510.2458,0,0,4.6084,,0,65,65,3,1,0,castilian,,,,,,,,,,,,,,,,,,,,,,,,,,,,,,,,,,,,,,,,,,,,,,,,,,,,,,,,
,,,,,,,,,6361560a2e3e691ad312fed2,Mexican,13 or older,"no, only English or Spanish",no,2025-08-15_17h12.37.032,empathy_intonation_perc,2024.2.4,MacIntel,59.88023952,6361560a2e3e691ad312fed2,689ed6d1281858f68c932c05,689fa2985e74aa363496be53,,,,,,,,,,,,,14,1,,./stim/wavs/mexican_match_interrogative-total-yn_Daniel-iba-a-Bolivia.wav,,,,,,,,,,,,,,,,,,,,,,510.2461,514.3635,0,0,3.6011,,0,66,66,13,1,0,mexican,,,,,,,,,,,,,,,,,,,,,,,,,,,,,,,,,,,,,,,,,,,,,,,,,,,,,,,,
,,,,,,,,,6361560a2e3e691ad312fed2,Mexican,13 or older,"no, only English or Spanish",no,2025-08-15_17h12.37.032,empathy_intonation_perc,2024.2.4,MacIntel,59.88023952,6361560a2e3e691ad312fed2,689ed6d1281858f68c932c05,689fa2985e74aa363496be53,,,,,,,,,,,,,34,1,,./stim/wavs/cuban_mismatch_interrogative-total-yn_Mi-tia-odia-la-lluvia.wav,,,,,,,,,,,,,,,,,,,,,,514.364,518.5141,0,0,3.634,,0,67,67,33,1,1,cuban,,,,,,,,,,,,,,,,,,,,,,,,,,,,,,,,,,,,,,,,,,,,,,,,,,,,,,,,
,,,,,,,,,6361560a2e3e691ad312fed2,Mexican,13 or older,"no, only English or Spanish",no,2025-08-15_17h12.37.032,empathy_intonation_perc,2024.2.4,MacIntel,59.88023952,6361560a2e3e691ad312fed2,689ed6d1281858f68c932c05,689fa2985e74aa363496be53,,,,,,,,,,,,,87,0,,./stim/wavs/puertorican_mismatch_declarative-broad-focus_La-maestra-vive-en-Paris.wav,,,,,,,,,,,,,,,,,,,,,,518.515,523.4971,1,0,4.4525,,0,68,68,86,1,0,puertorican,,,,,,,,,,,,,,,,,,,,,,,,,,,,,,,,,,,,,,,,,,,,,,,,,,,,,,,,
,,,,,,,,,6361560a2e3e691ad312fed2,Mexican,13 or older,"no, only English or Spanish",no,2025-08-15_17h12.37.032,empathy_intonation_perc,2024.2.4,MacIntel,59.88023952,6361560a2e3e691ad312fed2,689ed6d1281858f68c932c05,689fa2985e74aa363496be53,,,,,,,,,,,,,25,1,,./stim/wavs/castilian_mismatch_interrogative-total-yn_La-maestra-vive-en-Paris.wav,,,,,,,,,,,,,,,,,,,,,,523.498,526.6139,1,1,2.585,,0,69,69,24,1,0,castilian,,,,,,,,,,,,,,,,,,,,,,,,,,,,,,,,,,,,,,,,,,,,,,,,,,,,,,,,
,,,,,,,,,6361560a2e3e691ad312fed2,Mexican,13 or older,"no, only English or Spanish",no,2025-08-15_17h12.37.032,empathy_intonation_perc,2024.2.4,MacIntel,59.88023952,6361560a2e3e691ad312fed2,689ed6d1281858f68c932c05,689fa2985e74aa363496be53,,,,,,,,,,,,,48,0,,./stim/wavs/castilian_match_declarative-broad-focus_Maria-bebe-el-vino.wav,,,,,,,,,,,,,,,,,,,,,,526.6147,530.6627,0,1,3.5169,,0,70,70,47,1,0,castilian,,,,,,,,,,,,,,,,,,,,,,,,,,,,,,,,,,,,,,,,,,,,,,,,,,,,,,,,
,,,,,,,,,6361560a2e3e691ad312fed2,Mexican,13 or older,"no, only English or Spanish",no,2025-08-15_17h12.37.032,empathy_intonation_perc,2024.2.4,MacIntel,59.88023952,6361560a2e3e691ad312fed2,689ed6d1281858f68c932c05,689fa2985e74aa363496be53,,,,,,,,,,,,,42,1,,./stim/wavs/puertorican_mismatch_interrogative-total-yn_La-maestra-vive-en-Paris.wav,,,,,,,,,,,,,,,,,,,,,,530.663,535.4315,1,1,4.261700001,,0,71,71,41,1,1,puertorican,,,,,,,,,,,,,,,,,,,,,,,,,,,,,,,,,,,,,,,,,,,,,,,,,,,,,,,,
,,,,,,,,,6361560a2e3e691ad312fed2,Mexican,13 or older,"no, only English or Spanish",no,2025-08-15_17h12.37.032,empathy_intonation_perc,2024.2.4,MacIntel,59.88023952,6361560a2e3e691ad312fed2,689ed6d1281858f68c932c05,689fa2985e74aa363496be53,,,,,,,,,,,,,17,1,,./stim/wavs/mexican_match_interrogative-total-yn_Mariano-habla-del-tiempo.wav,,,,,,,,,,,,,,,,,,,,,,535.4329,537.9808,1,1,2.018,,0,72,72,16,1,0,mexican,,,,,,,,,,,,,,,,,,,,,,,,,,,,,,,,,,,,,,,,,,,,,,,,,,,,,,,,
,,,,,,,,,6361560a2e3e691ad312fed2,Mexican,13 or older,"no, only English or Spanish",no,2025-08-15_17h12.37.032,empathy_intonation_perc,2024.2.4,MacIntel,59.88023952,6361560a2e3e691ad312fed2,689ed6d1281858f68c932c05,689fa2985e74aa363496be53,,,,,,,,,,,,,28,1,,./stim/wavs/castilian_mismatch_interrogative-total-yn_Mi-novio-viene-del-lago.wav,,,,,,,,,,,,,,,,,,,,,,537.9812,540.9964,1,1,2.481599998,,0,73,73,27,1,0,castilian,,,,,,,,,,,,,,,,,,,,,,,,,,,,,,,,,,,,,,,,,,,,,,,,,,,,,,,,
,,,,,,,,,6361560a2e3e691ad312fed2,Mexican,13 or older,"no, only English or Spanish",no,2025-08-15_17h12.37.032,empathy_intonation_perc,2024.2.4,MacIntel,59.88023952,6361560a2e3e691ad312fed2,689ed6d1281858f68c932c05,689fa2985e74aa363496be53,,,,,,,,,,,,,18,1,,./stim/wavs/mexican_match_interrogative-total-yn_Marta-abre-el-regalo.wav,,,,,,,,,,,,,,,,,,,,,,540.9968,543.8472,0,0,2.3336,,0,74,74,17,1,0,mexican,,,,,,,,,,,,,,,,,,,,,,,,,,,,,,,,,,,,,,,,,,,,,,,,,,,,,,,,
,,,,,,,,,6361560a2e3e691ad312fed2,Mexican,13 or older,"no, only English or Spanish",no,2025-08-15_17h12.37.032,empathy_intonation_perc,2024.2.4,MacIntel,59.88023952,6361560a2e3e691ad312fed2,689ed6d1281858f68c932c05,689fa2985e74aa363496be53,,,,,,,,,,,,,47,0,,./stim/wavs/castilian_match_declarative-broad-focus_Manuela-vende-el-carro.wav,,,,,,,,,,,,,,,,,,,,,,543.8475,547.2971,0,1,2.932,,0,75,75,46,1,0,castilian,,,,,,,,,,,,,,,,,,,,,,,,,,,,,,,,,,,,,,,,,,,,,,,,,,,,,,,,
,,,,,,,,,6361560a2e3e691ad312fed2,Mexican,13 or older,"no, only English or Spanish",no,2025-08-15_17h12.37.032,empathy_intonation_perc,2024.2.4,MacIntel,59.88023952,6361560a2e3e691ad312fed2,689ed6d1281858f68c932c05,689fa2985e74aa363496be53,,,,,,,,,,,,,79,0,,./stim/wavs/mexican_mismatch_declarative-broad-focus_El-bebe-comia-muy-bien.wav,,,,,,,,,,,,,,,,,,,,,,547.2975,551.3477,1,0,3.5341,,0,76,76,78,1,0,mexican,,,,,,,,,,,,,,,,,,,,,,,,,,,,,,,,,,,,,,,,,,,,,,,,,,,,,,,,
,,,,,,,,,6361560a2e3e691ad312fed2,Mexican,13 or older,"no, only English or Spanish",no,2025-08-15_17h12.37.032,empathy_intonation_perc,2024.2.4,MacIntel,59.88023952,6361560a2e3e691ad312fed2,689ed6d1281858f68c932c05,689fa2985e74aa363496be53,,,,,,,,,,,,,64,0,,./stim/wavs/puertorican_match_declarative-broad-focus_Daniel-iba-a-Bolivia.wav,,,,,,,,,,,,,,,,,,,,,,551.3486,555.5476,0,1,3.6664,,0,77,77,63,1,0,puertorican,,,,,,,,,,,,,,,,,,,,,,,,,,,,,,,,,,,,,,,,,,,,,,,,,,,,,,,,
,,,,,,,,,6361560a2e3e691ad312fed2,Mexican,13 or older,"no, only English or Spanish",no,2025-08-15_17h12.37.032,empathy_intonation_perc,2024.2.4,MacIntel,59.88023952,6361560a2e3e691ad312fed2,689ed6d1281858f68c932c05,689fa2985e74aa363496be53,,,,,,,,,,,,,86,0,,./stim/wavs/puertorican_mismatch_declarative-broad-focus_El-nino-oye-el-rio.wav,,,,,,,,,,,,,,,,,,,,,,555.5485,558.8635,0,1,2.7816,,0,78,78,85,1,0,puertorican,,,,,,,,,,,,,,,,,,,,,,,,,,,,,,,,,,,,,,,,,,,,,,,,,,,,,,,,
,,,,,,,,,6361560a2e3e691ad312fed2,Mexican,13 or older,"no, only English or Spanish",no,2025-08-15_17h12.37.032,empathy_intonation_perc,2024.2.4,MacIntel,59.88023952,6361560a2e3e691ad312fed2,689ed6d1281858f68c932c05,689fa2985e74aa363496be53,,,,,,,,,,,,,78,0,,./stim/wavs/cuban_mismatch_declarative-broad-focus_Mi-tia-odia-la-lluvia.wav,,,,,,,,,,,,,,,,,,,,,,558.864,562.664,0,1,3.284299999,,0,79,79,77,1,0,cuban,,,,,,,,,,,,,,,,,,,,,,,,,,,,,,,,,,,,,,,,,,,,,,,,,,,,,,,,
,,,,,,,,,6361560a2e3e691ad312fed2,Mexican,13 or older,"no, only English or Spanish",no,2025-08-15_17h12.37.032,empathy_intonation_perc,2024.2.4,MacIntel,59.88023952,6361560a2e3e691ad312fed2,689ed6d1281858f68c932c05,689fa2985e74aa363496be53,,,,,,,,,,,,,76,0,,./stim/wavs/cuban_mismatch_declarative-broad-focus_La-nina-lava-el-plato.wav,,,,,,,,,,,,,,,,,,,,,,562.6644,566.2807,0,1,3.0805,,0,80,80,75,1,0,cuban,,,,,,,,,,,,,,,,,,,,,,,,,,,,,,,,,,,,,,,,,,,,,,,,,,,,,,,,
,,,,,,,,,6361560a2e3e691ad312fed2,Mexican,13 or older,"no, only English or Spanish",no,2025-08-15_17h12.37.032,empathy_intonation_perc,2024.2.4,MacIntel,59.88023952,6361560a2e3e691ad312fed2,689ed6d1281858f68c932c05,689fa2985e74aa363496be53,,,,,,,,,,,,,31,1,,./stim/wavs/cuban_mismatch_interrogative-total-yn_El-nino-oye-el-rio.wav,,,,,,,,,,,,,,,,,,,,,,566.2811,569.2646,0,0,2.4551,,0,81,81,30,1,1,cuban,,,,,,,,,,,,,,,,,,,,,,,,,,,,,,,,,,,,,,,,,,,,,,,,,,,,,,,,
,,,,,,,,,6361560a2e3e691ad312fed2,Mexican,13 or older,"no, only English or Spanish",no,2025-08-15_17h12.37.032,empathy_intonation_perc,2024.2.4,MacIntel,59.88023952,6361560a2e3e691ad312fed2,689ed6d1281858f68c932c05,689fa2985e74aa363496be53,,,,,,,,,,,,,32,1,,./stim/wavs/cuban_mismatch_interrogative-total-yn_Mi-madre-come-la-fruta.wav,,,,,,,,,,,,,,,,,,,,,,569.2655,572.848,1,1,3.0501,,0,82,82,31,1,1,cuban,,,,,,,,,,,,,,,,,,,,,,,,,,,,,,,,,,,,,,,,,,,,,,,,,,,,,,,,
,,,,,,,,,6361560a2e3e691ad312fed2,Mexican,13 or older,"no, only English or Spanish",no,2025-08-15_17h12.37.032,empathy_intonation_perc,2024.2.4,MacIntel,59.88023952,6361560a2e3e691ad312fed2,689ed6d1281858f68c932c05,689fa2985e74aa363496be53,,,,,,,,,,,,,56,0,,./stim/wavs/cuban_match_declarative-broad-focus_Marta-abre-el-regalo.wav,,,,,,,,,,,,,,,,,,,,,,572.8486,575.5313,1,0,2.1501,,0,83,83,55,1,0,cuban,,,,,,,,,,,,,,,,,,,,,,,,,,,,,,,,,,,,,,,,,,,,,,,,,,,,,,,,
,,,,,,,,,6361560a2e3e691ad312fed2,Mexican,13 or older,"no, only English or Spanish",no,2025-08-15_17h12.37.032,empathy_intonation_perc,2024.2.4,MacIntel,59.88023952,6361560a2e3e691ad312fed2,689ed6d1281858f68c932c05,689fa2985e74aa363496be53,,,,,,,,,,,,,73,0,,./stim/wavs/castilian_mismatch_declarative-broad-focus_Mi-tia-odia-la-lluvia.wav,,,,,,,,,,,,,,,,,,,,,,575.532,579.9804,0,1,3.9179,,0,84,84,72,1,0,castilian,,,,,,,,,,,,,,,,,,,,,,,,,,,,,,,,,,,,,,,,,,,,,,,,,,,,,,,,
,,,,,,,,,6361560a2e3e691ad312fed2,Mexican,13 or older,"no, only English or Spanish",no,2025-08-15_17h12.37.032,empathy_intonation_perc,2024.2.4,MacIntel,59.88023952,6361560a2e3e691ad312fed2,689ed6d1281858f68c932c05,689fa2985e74aa363496be53,,,,,,,,,,,,,44,1,,./stim/wavs/puertorican_mismatch_interrogative-total-yn_Mi-madre-come-la-fruta.wav,,,,,,,,,,,,,,,,,,,,,,579.981,585.2808,0,0,4.783300001,,0,85,85,43,1,1,puertorican,,,,,,,,,,,,,,,,,,,,,,,,,,,,,,,,,,,,,,,,,,,,,,,,,,,,,,,,
,,,,,,,,,6361560a2e3e691ad312fed2,Mexican,13 or older,"no, only English or Spanish",no,2025-08-15_17h12.37.032,empathy_intonation_perc,2024.2.4,MacIntel,59.88023952,6361560a2e3e691ad312fed2,689ed6d1281858f68c932c05,689fa2985e74aa363496be53,,,,,,,,,,,,,38,1,,./stim/wavs/mexican_mismatch_interrogative-total-yn_Mi-novio-viene-del-lago.wav,,,,,,,,,,,,,,,,,,,,,,585.2816,591.9649,0,0,6.150300001,,0,86,86,37,1,0,mexican,,,,,,,,,,,,,,,,,,,,,,,,,,,,,,,,,,,,,,,,,,,,,,,,,,,,,,,,
,,,,,,,,,6361560a2e3e691ad312fed2,Mexican,13 or older,"no, only English or Spanish",no,2025-08-15_17h12.37.032,empathy_intonation_perc,2024.2.4,MacIntel,59.88023952,6361560a2e3e691ad312fed2,689ed6d1281858f68c932c05,689fa2985e74aa363496be53,,,,,,,,,,,,,19,1,,./stim/wavs/puertorican_match_interrogative-total-yn_Ana-lleva-el-abrigo.wav,,,,,,,,,,,,,,,,,,,,,,591.9656,594.6311,1,1,2.133200001,,0,87,87,18,1,1,puertorican,,,,,,,,,,,,,,,,,,,,,,,,,,,,,,,,,,,,,,,,,,,,,,,,,,,,,,,,
,,,,,,,"Great! Now we will move on. The next task consists of about 60 trials, in each of which you will see a string of letters. 
  
  Your task is to decide whether this is a real Spanish word or not.", (press the spacebar to continue),6361560a2e3e691ad312fed2,Mexican,13 or older,"no, only English or Spanish",no,2025-08-15_17h12.37.032,empathy_intonation_perc,2024.2.4,MacIntel,59.88023952,6361560a2e3e691ad312fed2,689ed6d1281858f68c932c05,689fa2985e74aa363496be53,,,,,,,,,,,,,,,,,,,,,,,,,,,,,,,,,,,,,,,,,,,,,,,,,,,594.6372,599.7478,0,0,0,0,1,,,,,,,,,,,,,,,,,,,,,,,,,,,,,,,,,,,,,,,,,,,,,,,,,
,,,,,,,"If you think it is an existing Spanish word, you type '1' (for 'REAL'), and if you think it is not an existing Spanish word, you type '0' (for 'FAKE').", (press the spacebar to continue),6361560a2e3e691ad312fed2,Mexican,13 or older,"no, only English or Spanish",no,2025-08-15_17h12.37.032,empathy_intonation_perc,2024.2.4,MacIntel,59.88023952,6361560a2e3e691ad312fed2,689ed6d1281858f68c932c05,689fa2985e74aa363496be53,,,,,,,,,,,,,,,,,,,,,,,,,,,,,,,,,,,,,,,,,,,,,,,,,,,599.7486,601.748,0,1,1,1,1,,,,,,,,,,,,,,,,,,,,,,,,,,,,,,,,,,,,,,,,,,,,,,,,,
,,,,,,,"If you are sure that the word exists, even though you don’t know its exact meaning, you may still respond '1' (REAL). 
  
  But if you are not sure if it is an existing word, you should respond '0' (FAKE).
  
  Let's do a practice round...", (press the spacebar to continue),6361560a2e3e691ad312fed2,Mexican,13 or older,"no, only English or Spanish",no,2025-08-15_17h12.37.032,empathy_intonation_perc,2024.2.4,MacIntel,59.88023952,6361560a2e3e691ad312fed2,689ed6d1281858f68c932c05,689fa2985e74aa363496be53,,,,,,,,,,,,,,,,,,,,,,,,,,,,,,,,,,,,,,,,,,,,,,,,,,,601.7489,605.8155,0,2,2,2,1,,,,,,,,,,,,,,,,,,,,,,,,,,,,,,,,,,,,,,,,,,,,,,,,,
,,,,,,,,,6361560a2e3e691ad312fed2,Mexican,13 or older,"no, only English or Spanish",no,2025-08-15_17h12.37.032,empathy_intonation_perc,2024.2.4,MacIntel,59.88023952,6361560a2e3e691ad312fed2,689ed6d1281858f68c932c05,689fa2985e74aa363496be53,,,,,,,,,,,,,,0,,,,,,,,,,,,,,,,,,,,,,,,,,,,,,,,,,,,,,,,,,,,605.8202,607.9164,1,0,1.5681,,607.9166,608.9158,0,0,0,0,1,0,depiste,REAL,FAKE,,,,,,,,,,,,,,,,,,,,,,,,,,,,,,,,
,,,,,,,,,6361560a2e3e691ad312fed2,Mexican,13 or older,"no, only English or Spanish",no,2025-08-15_17h12.37.032,empathy_intonation_perc,2024.2.4,MacIntel,59.88023952,6361560a2e3e691ad312fed2,689ed6d1281858f68c932c05,689fa2985e74aa363496be53,,,,,,,,,,,,,,1,,,,,,,,,,,,,,,,,,,,,,,,,,,,,,,,,,,,,,,,,,,,608.9175,610.8141,1,1,1.3545,,610.8144,611.8149,0,1,1,1,1,0,sí,REAL,FAKE,,,,,,,,,,,,,,,,,,,,,,,,,,,,,,,,
,,,,,,,,,6361560a2e3e691ad312fed2,Mexican,13 or older,"no, only English or Spanish",no,2025-08-15_17h12.37.032,empathy_intonation_perc,2024.2.4,MacIntel,59.88023952,6361560a2e3e691ad312fed2,689ed6d1281858f68c932c05,689fa2985e74aa363496be53,,,,,,,,,,,,,,0,,,,,,,,,,,,,,,,,,,,,,,,,,,,,,,,,,,,,,,,,,,,611.8161,613.465,1,0,1.117,,613.4661,614.4657,0,2,2,2,1,0,coné,REAL,FAKE,,,,,,,,,,,,,,,,,,,,,,,,,,,,,,,,
,,,,,,,,,6361560a2e3e691ad312fed2,Mexican,13 or older,"no, only English or Spanish",no,2025-08-15_17h12.37.032,empathy_intonation_perc,2024.2.4,MacIntel,59.88023952,6361560a2e3e691ad312fed2,689ed6d1281858f68c932c05,689fa2985e74aa363496be53,,,,,,,,,,,,,,0,,,,,,,,,,,,,,,,,,,,,,,,,,,,,,,,,,,,,,,,,,,,614.4675,616.0148,0,1,1.0219,,616.0152,617.0152,0,3,3,3,1,0,calpar,REAL,FAKE,,,,,,,,,,,,,,,,,,,,,,,,,,,,,,,,
,,,,,,,,,6361560a2e3e691ad312fed2,Mexican,13 or older,"no, only English or Spanish",no,2025-08-15_17h12.37.032,empathy_intonation_perc,2024.2.4,MacIntel,59.88023952,6361560a2e3e691ad312fed2,689ed6d1281858f68c932c05,689fa2985e74aa363496be53,,,,,,,,,,,,,,0,,,,,,,,,,,,,,,,,,,,,,,,,,,,,,,,,,,,,,,,,,,,617.0168,618.2814,0,1,0.723199999,,618.2814,619.2817,0,4,4,4,1,0,joten,REAL,FAKE,,,,,,,,,,,,,,,,,,,,,,,,,,,,,,,,
,,,,,,,,,6361560a2e3e691ad312fed2,Mexican,13 or older,"no, only English or Spanish",no,2025-08-15_17h12.37.032,empathy_intonation_perc,2024.2.4,MacIntel,59.88023952,6361560a2e3e691ad312fed2,689ed6d1281858f68c932c05,689fa2985e74aa363496be53,,,,,,,,,,,,,,1,,,,,,,,,,,,,,,,,,,,,,,,,,,,,,,,,,,,,,,,,,,,619.2823,620.7316,0,0,0.911699999,,620.7321,621.7313,0,5,5,5,1,0,sacapuntas,REAL,FAKE,,,,,,,,,,,,,,,,,,,,,,,,,,,,,,,,
,,,,,,,,,6361560a2e3e691ad312fed2,Mexican,13 or older,"no, only English or Spanish",no,2025-08-15_17h12.37.032,empathy_intonation_perc,2024.2.4,MacIntel,59.88023952,6361560a2e3e691ad312fed2,689ed6d1281858f68c932c05,689fa2985e74aa363496be53,,,,,,,,,,,,,,0,,,,,,,,,,,,,,,,,,,,,,,,,,,,,,,,,,,,,,,,,,,,621.7326,623.0315,0,1,0.7694,,623.0319,624.0321,0,6,6,6,1,0,priba,REAL,FAKE,,,,,,,,,,,,,,,,,,,,,,,,,,,,,,,,
,,,,,,,,,6361560a2e3e691ad312fed2,Mexican,13 or older,"no, only English or Spanish",no,2025-08-15_17h12.37.032,empathy_intonation_perc,2024.2.4,MacIntel,59.88023952,6361560a2e3e691ad312fed2,689ed6d1281858f68c932c05,689fa2985e74aa363496be53,,,,,,,,,,,,,,0,,,,,,,,,,,,,,,,,,,,,,,,,,,,,,,,,,,,,,,,,,,,624.0335,625.6651,0,1,1.096800001,,625.6652,626.6644,0,7,7,7,1,0,pelasula,REAL,FAKE,,,,,,,,,,,,,,,,,,,,,,,,,,,,,,,,
,,,,,,,,,6361560a2e3e691ad312fed2,Mexican,13 or older,"no, only English or Spanish",no,2025-08-15_17h12.37.032,empathy_intonation_perc,2024.2.4,MacIntel,59.88023952,6361560a2e3e691ad312fed2,689ed6d1281858f68c932c05,689fa2985e74aa363496be53,,,,,,,,,,,,,,1,,,,,,,,,,,,,,,,,,,,,,,,,,,,,,,,,,,,,,,,,,,,626.6656,627.8483,1,1,0.656799999,,627.8483,628.8488,0,8,8,8,1,0,bien,REAL,FAKE,,,,,,,,,,,,,,,,,,,,,,,,,,,,,,,,
,,,,,,,,,6361560a2e3e691ad312fed2,Mexican,13 or older,"no, only English or Spanish",no,2025-08-15_17h12.37.032,empathy_intonation_perc,2024.2.4,MacIntel,59.88023952,6361560a2e3e691ad312fed2,689ed6d1281858f68c932c05,689fa2985e74aa363496be53,,,,,,,,,,,,,,1,,,,,,,,,,,,,,,,,,,,,,,,,,,,,,,,,,,,,,,,,,,,628.8503,630.0485,1,1,0.6641,,630.0486,631.0483,0,9,9,9,1,0,casa,REAL,FAKE,,,,,,,,,,,,,,,,,,,,,,,,,,,,,,,,
,,,,,,,,,6361560a2e3e691ad312fed2,Mexican,13 or older,"no, only English or Spanish",no,2025-08-15_17h12.37.032,empathy_intonation_perc,2024.2.4,MacIntel,59.88023952,6361560a2e3e691ad312fed2,689ed6d1281858f68c932c05,689fa2985e74aa363496be53,,,,,,,,,,,,,,0,,,,,,,,,,,,,,,,,,,,,,,,,,,,,,,,,,,,,,,,,,,,631.0489,632.3819,0,1,0.789200001,,632.3819,633.3817,0,10,10,10,1,0,lejo,REAL,FAKE,,,,,,,,,,,,,,,,,,,,,,,,,,,,,,,,
,,,,,,,,,6361560a2e3e691ad312fed2,Mexican,13 or older,"no, only English or Spanish",no,2025-08-15_17h12.37.032,empathy_intonation_perc,2024.2.4,MacIntel,59.88023952,6361560a2e3e691ad312fed2,689ed6d1281858f68c932c05,689fa2985e74aa363496be53,,,,,,,,,,,,,,0,,,,,,,,,,,,,,,,,,,,,,,,,,,,,,,,,,,,,,,,,,,,633.3854,634.6818,1,0,0.7561,,634.6824,635.6819,0,11,11,11,1,0,pretantas,REAL,FAKE,,,,,,,,,,,,,,,,,,,,,,,,,,,,,,,,
,,,,,,,,,6361560a2e3e691ad312fed2,Mexican,13 or older,"no, only English or Spanish",no,2025-08-15_17h12.37.032,empathy_intonation_perc,2024.2.4,MacIntel,59.88023952,6361560a2e3e691ad312fed2,689ed6d1281858f68c932c05,689fa2985e74aa363496be53,,,,,,,,,,,,,,,,,,,,,,,,,,,,,,,,,,,,,,,,,,,,,,,,,,,,,,,,,,,,,,,,,,,,,,,,,,,635.6828,636.8492,,,,,,,,,,,,,,,,,,,,,,,,,,,,,,
,,,,,,,,,6361560a2e3e691ad312fed2,Mexican,13 or older,"no, only English or Spanish",no,2025-08-15_17h12.37.032,empathy_intonation_perc,2024.2.4,MacIntel,59.88023952,6361560a2e3e691ad312fed2,689ed6d1281858f68c932c05,689fa2985e74aa363496be53,,,,,,,,,,,,,,1,,,,,,,,,,,,,,,,,,,,,,,,,,,,,,,,,,,,,,,,,,,,,,,,,,,,,,,,,12,asesinato,,,,,636.859,638.1652,1,1,0.788800001,,0,0,0,11,1,REAL,FAKE,,,,,,,,,,,,,,,,,
,,,,,,,,,6361560a2e3e691ad312fed2,Mexican,13 or older,"no, only English or Spanish",no,2025-08-15_17h12.37.032,empathy_intonation_perc,2024.2.4,MacIntel,59.88023952,6361560a2e3e691ad312fed2,689ed6d1281858f68c932c05,689fa2985e74aa363496be53,,,,,,,,,,,,,,1,,,,,,,,,,,,,,,,,,,,,,,,,,,,,,,,,,,,,,,,,,,,,,,,,,,,,,,,,81,pozo,,,,,638.1658,639.5311,0,0,0.8445,,0,1,1,80,1,REAL,FAKE,,,,,,,,,,,,,,,,,
,,,,,,,,,6361560a2e3e691ad312fed2,Mexican,13 or older,"no, only English or Spanish",no,2025-08-15_17h12.37.032,empathy_intonation_perc,2024.2.4,MacIntel,59.88023952,6361560a2e3e691ad312fed2,689ed6d1281858f68c932c05,689fa2985e74aa363496be53,,,,,,,,,,,,,,1,,,,,,,,,,,,,,,,,,,,,,,,,,,,,,,,,,,,,,,,,,,,,,,,,,,,,,,,,59,besar,,,,,639.532,640.8485,1,1,0.796300001,,0,2,2,58,1,REAL,FAKE,,,,,,,,,,,,,,,,,
,,,,,,,,,6361560a2e3e691ad312fed2,Mexican,13 or older,"no, only English or Spanish",no,2025-08-15_17h12.37.032,empathy_intonation_perc,2024.2.4,MacIntel,59.88023952,6361560a2e3e691ad312fed2,689ed6d1281858f68c932c05,689fa2985e74aa363496be53,,,,,,,,,,,,,,1,,,,,,,,,,,,,,,,,,,,,,,,,,,,,,,,,,,,,,,,,,,,,,,,,,,,,,,,,7,pésimo,,,,,640.8496,642.3981,1,1,1.004,,0,3,3,6,1,REAL,FAKE,,,,,,,,,,,,,,,,,
,,,,,,,,,6361560a2e3e691ad312fed2,Mexican,13 or older,"no, only English or Spanish",no,2025-08-15_17h12.37.032,empathy_intonation_perc,2024.2.4,MacIntel,59.88023952,6361560a2e3e691ad312fed2,689ed6d1281858f68c932c05,689fa2985e74aa363496be53,,,,,,,,,,,,,,1,,,,,,,,,,,,,,,,,,,,,,,,,,,,,,,,,,,,,,,,,,,,,,,,,,,,,,,,,57,tacaño,,,,,642.3996,643.8154,1,1,0.8895,,0,4,4,56,1,REAL,FAKE,,,,,,,,,,,,,,,,,
,,,,,,,,,6361560a2e3e691ad312fed2,Mexican,13 or older,"no, only English or Spanish",no,2025-08-15_17h12.37.032,empathy_intonation_perc,2024.2.4,MacIntel,59.88023952,6361560a2e3e691ad312fed2,689ed6d1281858f68c932c05,689fa2985e74aa363496be53,,,,,,,,,,,,,,1,,,,,,,,,,,,,,,,,,,,,,,,,,,,,,,,,,,,,,,,,,,,,,,,,,,,,,,,,89,prisa,,,,,643.8165,645.1821,0,0,0.8305,,0,5,5,88,1,REAL,FAKE,,,,,,,,,,,,,,,,,
,,,,,,,,,6361560a2e3e691ad312fed2,Mexican,13 or older,"no, only English or Spanish",no,2025-08-15_17h12.37.032,empathy_intonation_perc,2024.2.4,MacIntel,59.88023952,6361560a2e3e691ad312fed2,689ed6d1281858f68c932c05,689fa2985e74aa363496be53,,,,,,,,,,,,,,0,,,,,,,,,,,,,,,,,,,,,,,,,,,,,,,,,,,,,,,,,,,,,,,,,,,,,,,,,19,brecedad,,,,,645.1836,646.5822,0,1,0.8621,,0,6,6,18,1,REAL,FAKE,,,,,,,,,,,,,,,,,
,,,,,,,,,6361560a2e3e691ad312fed2,Mexican,13 or older,"no, only English or Spanish",no,2025-08-15_17h12.37.032,empathy_intonation_perc,2024.2.4,MacIntel,59.88023952,6361560a2e3e691ad312fed2,689ed6d1281858f68c932c05,689fa2985e74aa363496be53,,,,,,,,,,,,,,1,,,,,,,,,,,,,,,,,,,,,,,,,,,,,,,,,,,,,,,,,,,,,,,,,,,,,,,,,5,zapato,,,,,646.5835,647.9821,1,1,0.87,,0,7,7,4,1,REAL,FAKE,,,,,,,,,,,,,,,,,
,,,,,,,,,6361560a2e3e691ad312fed2,Mexican,13 or older,"no, only English or Spanish",no,2025-08-15_17h12.37.032,empathy_intonation_perc,2024.2.4,MacIntel,59.88023952,6361560a2e3e691ad312fed2,689ed6d1281858f68c932c05,689fa2985e74aa363496be53,,,,,,,,,,,,,,1,,,,,,,,,,,,,,,,,,,,,,,,,,,,,,,,,,,,,,,,,,,,,,,,,,,,,,,,,2,pellizcar,,,,,647.9832,649.5154,0,0,0.9954,,0,8,8,1,1,REAL,FAKE,,,,,,,,,,,,,,,,,
,,,,,,,,,6361560a2e3e691ad312fed2,Mexican,13 or older,"no, only English or Spanish",no,2025-08-15_17h12.37.032,empathy_intonation_perc,2024.2.4,MacIntel,59.88023952,6361560a2e3e691ad312fed2,689ed6d1281858f68c932c05,689fa2985e74aa363496be53,,,,,,,,,,,,,,0,,,,,,,,,,,,,,,,,,,,,,,,,,,,,,,,,,,,,,,,,,,,,,,,,,,,,,,,,27,acutación,,,,,649.5169,651.3314,0,1,1.273299999,,0,9,9,26,1,REAL,FAKE,,,,,,,,,,,,,,,,,
,,,,,,,,,6361560a2e3e691ad312fed2,Mexican,13 or older,"no, only English or Spanish",no,2025-08-15_17h12.37.032,empathy_intonation_perc,2024.2.4,MacIntel,59.88023952,6361560a2e3e691ad312fed2,689ed6d1281858f68c932c05,689fa2985e74aa363496be53,,,,,,,,,,,,,,0,,,,,,,,,,,,,,,,,,,,,,,,,,,,,,,,,,,,,,,,,,,,,,,,,,,,,,,,,50,flamida,,,,,651.3322,652.5666,0,1,0.7171,,0,10,10,49,1,REAL,FAKE,,,,,,,,,,,,,,,,,
,,,,,,,,,6361560a2e3e691ad312fed2,Mexican,13 or older,"no, only English or Spanish",no,2025-08-15_17h12.37.032,empathy_intonation_perc,2024.2.4,MacIntel,59.88023952,6361560a2e3e691ad312fed2,689ed6d1281858f68c932c05,689fa2985e74aa363496be53,,,,,,,,,,,,,,1,,,,,,,,,,,,,,,,,,,,,,,,,,,,,,,,,,,,,,,,,,,,,,,,,,,,,,,,,49,ganar,,,,,652.5677,654.0152,1,1,0.907299999,,0,11,11,48,1,REAL,FAKE,,,,,,,,,,,,,,,,,
,,,,,,,,,6361560a2e3e691ad312fed2,Mexican,13 or older,"no, only English or Spanish",no,2025-08-15_17h12.37.032,empathy_intonation_perc,2024.2.4,MacIntel,59.88023952,6361560a2e3e691ad312fed2,689ed6d1281858f68c932c05,689fa2985e74aa363496be53,,,,,,,,,,,,,,1,,,,,,,,,,,,,,,,,,,,,,,,,,,,,,,,,,,,,,,,,,,,,,,,,,,,,,,,,68,alegre,,,,,654.0157,655.1976,0,0,0.6405,,0,12,12,67,1,REAL,FAKE,,,,,,,,,,,,,,,,,
,,,,,,,,,6361560a2e3e691ad312fed2,Mexican,13 or older,"no, only English or Spanish",no,2025-08-15_17h12.37.032,empathy_intonation_perc,2024.2.4,MacIntel,59.88023952,6361560a2e3e691ad312fed2,689ed6d1281858f68c932c05,689fa2985e74aa363496be53,,,,,,,,,,,,,,0,,,,,,,,,,,,,,,,,,,,,,,,,,,,,,,,,,,,,,,,,,,,,,,,,,,,,,,,,82,empirador,,,,,655.1985,656.5145,0,1,0.7881,,0,13,13,81,1,REAL,FAKE,,,,,,,,,,,,,,,,,
,,,,,,,,,6361560a2e3e691ad312fed2,Mexican,13 or older,"no, only English or Spanish",no,2025-08-15_17h12.37.032,empathy_intonation_perc,2024.2.4,MacIntel,59.88023952,6361560a2e3e691ad312fed2,689ed6d1281858f68c932c05,689fa2985e74aa363496be53,,,,,,,,,,,,,,1,,,,,,,,,,,,,,,,,,,,,,,,,,,,,,,,,,,,,,,,,,,,,,,,,,,,,,,,,80,hormiga,,,,,656.5156,657.7153,0,0,0.687699999,,0,14,14,79,1,REAL,FAKE,,,,,,,,,,,,,,,,,
,,,,,,,,,6361560a2e3e691ad312fed2,Mexican,13 or older,"no, only English or Spanish",no,2025-08-15_17h12.37.032,empathy_intonation_perc,2024.2.4,MacIntel,59.88023952,6361560a2e3e691ad312fed2,689ed6d1281858f68c932c05,689fa2985e74aa363496be53,,,,,,,,,,,,,,1,,,,,,,,,,,,,,,,,,,,,,,,,,,,,,,,,,,,,,,,,,,,,,,,,,,,,,,,,78,frondoso,,,,,657.716,659.2481,0,0,0.9926,,0,15,15,77,1,REAL,FAKE,,,,,,,,,,,,,,,,,
,,,,,,,,,6361560a2e3e691ad312fed2,Mexican,13 or older,"no, only English or Spanish",no,2025-08-15_17h12.37.032,empathy_intonation_perc,2024.2.4,MacIntel,59.88023952,6361560a2e3e691ad312fed2,689ed6d1281858f68c932c05,689fa2985e74aa363496be53,,,,,,,,,,,,,,1,,,,,,,,,,,,,,,,,,,,,,,,,,,,,,,,,,,,,,,,,,,,,,,,,,,,,,,,,77,tiburón,,,,,659.2489,660.5323,0,0,0.776199999,,0,16,16,76,1,REAL,FAKE,,,,,,,,,,,,,,,,,
,,,,,,,,,6361560a2e3e691ad312fed2,Mexican,13 or older,"no, only English or Spanish",no,2025-08-15_17h12.37.032,empathy_intonation_perc,2024.2.4,MacIntel,59.88023952,6361560a2e3e691ad312fed2,689ed6d1281858f68c932c05,689fa2985e74aa363496be53,,,,,,,,,,,,,,0,,,,,,,,,,,,,,,,,,,,,,,,,,,,,,,,,,,,,,,,,,,,,,,,,,,,,,,,,23,lampera,,,,,660.5333,661.6825,0,1,0.6244,,0,17,17,22,1,REAL,FAKE,,,,,,,,,,,,,,,,,
,,,,,,,,,6361560a2e3e691ad312fed2,Mexican,13 or older,"no, only English or Spanish",no,2025-08-15_17h12.37.032,empathy_intonation_perc,2024.2.4,MacIntel,59.88023952,6361560a2e3e691ad312fed2,689ed6d1281858f68c932c05,689fa2985e74aa363496be53,,,,,,,,,,,,,,0,,,,,,,,,,,,,,,,,,,,,,,,,,,,,,,,,,,,,,,,,,,,,,,,,,,,,,,,,63,esposante,,,,,661.6837,663.0156,1,0,0.796,,0,18,18,62,1,REAL,FAKE,,,,,,,,,,,,,,,,,
,,,,,,,,,6361560a2e3e691ad312fed2,Mexican,13 or older,"no, only English or Spanish",no,2025-08-15_17h12.37.032,empathy_intonation_perc,2024.2.4,MacIntel,59.88023952,6361560a2e3e691ad312fed2,689ed6d1281858f68c932c05,689fa2985e74aa363496be53,,,,,,,,,,,,,,1,,,,,,,,,,,,,,,,,,,,,,,,,,,,,,,,,,,,,,,,,,,,,,,,,,,,,,,,,62,flaco,,,,,663.0166,664.4157,1,1,0.855799999,,0,19,19,61,1,REAL,FAKE,,,,,,,,,,,,,,,,,
,,,,,,,,,6361560a2e3e691ad312fed2,Mexican,13 or older,"no, only English or Spanish",no,2025-08-15_17h12.37.032,empathy_intonation_perc,2024.2.4,MacIntel,59.88023952,6361560a2e3e691ad312fed2,689ed6d1281858f68c932c05,689fa2985e74aa363496be53,,,,,,,,,,,,,,1,,,,,,,,,,,,,,,,,,,,,,,,,,,,,,,,,,,,,,,,,,,,,,,,,,,,,,,,,67,cabello,,,,,664.417,665.732,1,1,0.780099998,,0,20,20,66,1,REAL,FAKE,,,,,,,,,,,,,,,,,
,,,,,,,,,6361560a2e3e691ad312fed2,Mexican,13 or older,"no, only English or Spanish",no,2025-08-15_17h12.37.032,empathy_intonation_perc,2024.2.4,MacIntel,59.88023952,6361560a2e3e691ad312fed2,689ed6d1281858f68c932c05,689fa2985e74aa363496be53,,,,,,,,,,,,,,1,,,,,,,,,,,,,,,,,,,,,,,,,,,,,,,,,,,,,,,,,,,,,,,,,,,,,,,,,36,loro,,,,,665.7329,667.0657,0,0,0.789299999,,0,21,21,35,1,REAL,FAKE,,,,,,,,,,,,,,,,,
,,,,,,,,,6361560a2e3e691ad312fed2,Mexican,13 or older,"no, only English or Spanish",no,2025-08-15_17h12.37.032,empathy_intonation_perc,2024.2.4,MacIntel,59.88023952,6361560a2e3e691ad312fed2,689ed6d1281858f68c932c05,689fa2985e74aa363496be53,,,,,,,,,,,,,,1,,,,,,,,,,,,,,,,,,,,,,,,,,,,,,,,,,,,,,,,,,,,,,,,,,,,,,,,,91,click the 1 key.,,,,,667.0668,668.9647,1,1,1.355900002,,0,22,22,90,1,REAL,FAKE,,,,,,,,,,,,,,,,,
,,,,,,,,,6361560a2e3e691ad312fed2,Mexican,13 or older,"no, only English or Spanish",no,2025-08-15_17h12.37.032,empathy_intonation_perc,2024.2.4,MacIntel,59.88023952,6361560a2e3e691ad312fed2,689ed6d1281858f68c932c05,689fa2985e74aa363496be53,,,,,,,,,,,,,,1,,,,,,,,,,,,,,,,,,,,,,,,,,,,,,,,,,,,,,,,,,,,,,,,,,,,,,,,,85,laúd,,,,,668.9673,670.449,0,0,0.953700001,,0,23,23,84,1,REAL,FAKE,,,,,,,,,,,,,,,,,
,,,,,,,,,6361560a2e3e691ad312fed2,Mexican,13 or older,"no, only English or Spanish",no,2025-08-15_17h12.37.032,empathy_intonation_perc,2024.2.4,MacIntel,59.88023952,6361560a2e3e691ad312fed2,689ed6d1281858f68c932c05,689fa2985e74aa363496be53,,,,,,,,,,,,,,1,,,,,,,,,,,,,,,,,,,,,,,,,,,,,,,,,,,,,,,,,,,,,,,,,,,,,,,,,75,yacer,,,,,670.4502,671.6315,0,0,0.654200001,,0,24,24,74,1,REAL,FAKE,,,,,,,,,,,,,,,,,
,,,,,,,,,6361560a2e3e691ad312fed2,Mexican,13 or older,"no, only English or Spanish",no,2025-08-15_17h12.37.032,empathy_intonation_perc,2024.2.4,MacIntel,59.88023952,6361560a2e3e691ad312fed2,689ed6d1281858f68c932c05,689fa2985e74aa363496be53,,,,,,,,,,,,,,0,,,,,,,,,,,,,,,,,,,,,,,,,,,,,,,,,,,,,,,,,,,,,,,,,,,,,,,,,30,alardio,,,,,671.6326,673.099,0,1,0.929299999,,0,25,25,29,1,REAL,FAKE,,,,,,,,,,,,,,,,,
,,,,,,,,,6361560a2e3e691ad312fed2,Mexican,13 or older,"no, only English or Spanish",no,2025-08-15_17h12.37.032,empathy_intonation_perc,2024.2.4,MacIntel,59.88023952,6361560a2e3e691ad312fed2,689ed6d1281858f68c932c05,689fa2985e74aa363496be53,,,,,,,,,,,,,,1,,,,,,,,,,,,,,,,,,,,,,,,,,,,,,,,,,,,,,,,,,,,,,,,,,,,,,,,,24,látigo,,,,,673.1001,674.3824,0,0,0.7379,,0,26,26,23,1,REAL,FAKE,,,,,,,,,,,,,,,,,
,,,,,,,,,6361560a2e3e691ad312fed2,Mexican,13 or older,"no, only English or Spanish",no,2025-08-15_17h12.37.032,empathy_intonation_perc,2024.2.4,MacIntel,59.88023952,6361560a2e3e691ad312fed2,689ed6d1281858f68c932c05,689fa2985e74aa363496be53,,,,,,,,,,,,,,0,,,,,,,,,,,,,,,,,,,,,,,,,,,,,,,,,,,,,,,,,,,,,,,,,,,,,,,,,17,floroso,,,,,674.3837,675.6486,0,1,0.7205,,0,27,27,16,1,REAL,FAKE,,,,,,,,,,,,,,,,,
,,,,,,,,,6361560a2e3e691ad312fed2,Mexican,13 or older,"no, only English or Spanish",no,2025-08-15_17h12.37.032,empathy_intonation_perc,2024.2.4,MacIntel,59.88023952,6361560a2e3e691ad312fed2,689ed6d1281858f68c932c05,689fa2985e74aa363496be53,,,,,,,,,,,,,,0,,,,,,,,,,,,,,,,,,,,,,,,,,,,,,,,,,,,,,,,,,,,,,,,,,,,,,,,,35,rompido,,,,,675.6505,676.9489,1,0,0.759799999,,0,28,28,34,1,REAL,FAKE,,,,,,,,,,,,,,,,,
,,,,,,,,,6361560a2e3e691ad312fed2,Mexican,13 or older,"no, only English or Spanish",no,2025-08-15_17h12.37.032,empathy_intonation_perc,2024.2.4,MacIntel,59.88023952,6361560a2e3e691ad312fed2,689ed6d1281858f68c932c05,689fa2985e74aa363496be53,,,,,,,,,,,,,,1,,,,,,,,,,,,,,,,,,,,,,,,,,,,,,,,,,,,,,,,,,,,,,,,,,,,,,,,,44,cuchara,,,,,676.9495,678.2983,0,0,0.822299999,,0,29,29,43,1,REAL,FAKE,,,,,,,,,,,,,,,,,
,,,,,,,,,6361560a2e3e691ad312fed2,Mexican,13 or older,"no, only English or Spanish",no,2025-08-15_17h12.37.032,empathy_intonation_perc,2024.2.4,MacIntel,59.88023952,6361560a2e3e691ad312fed2,689ed6d1281858f68c932c05,689fa2985e74aa363496be53,,,,,,,,,,,,,,0,,,,,,,,,,,,,,,,,,,,,,,,,,,,,,,,,,,,,,,,,,,,,,,,,,,,,,,,,84,escuto,,,,,678.2992,679.5989,0,1,0.770299999,,0,30,30,83,1,REAL,FAKE,,,,,,,,,,,,,,,,,
,,,,,,,,,6361560a2e3e691ad312fed2,Mexican,13 or older,"no, only English or Spanish",no,2025-08-15_17h12.37.032,empathy_intonation_perc,2024.2.4,MacIntel,59.88023952,6361560a2e3e691ad312fed2,689ed6d1281858f68c932c05,689fa2985e74aa363496be53,,,,,,,,,,,,,,0,,,,,,,,,,,,,,,,,,,,,,,,,,,,,,,,,,,,,,,,,,,,,,,,,,,,,,,,,33,pauca,,,,,679.5996,680.8489,0,1,0.7069,,0,31,31,32,1,REAL,FAKE,,,,,,,,,,,,,,,,,
,,,,,,,,,6361560a2e3e691ad312fed2,Mexican,13 or older,"no, only English or Spanish",no,2025-08-15_17h12.37.032,empathy_intonation_perc,2024.2.4,MacIntel,59.88023952,6361560a2e3e691ad312fed2,689ed6d1281858f68c932c05,689fa2985e74aa363496be53,,,,,,,,,,,,,,1,,,,,,,,,,,,,,,,,,,,,,,,,,,,,,,,,,,,,,,,,,,,,,,,,,,,,,,,,45,jilguero,,,,,680.8498,681.9327,0,0,0.5561,,0,32,32,44,1,REAL,FAKE,,,,,,,,,,,,,,,,,
,,,,,,,,,6361560a2e3e691ad312fed2,Mexican,13 or older,"no, only English or Spanish",no,2025-08-15_17h12.37.032,empathy_intonation_perc,2024.2.4,MacIntel,59.88023952,6361560a2e3e691ad312fed2,689ed6d1281858f68c932c05,689fa2985e74aa363496be53,,,,,,,,,,,,,,0,,,,,,,,,,,,,,,,,,,,,,,,,,,,,,,,,,,,,,,,,,,,,,,,,,,,,,,,,10,antar,,,,,681.9342,683.1993,1,0,0.729299999,,0,33,33,9,1,REAL,FAKE,,,,,,,,,,,,,,,,,
,,,,,,,,,6361560a2e3e691ad312fed2,Mexican,13 or older,"no, only English or Spanish",no,2025-08-15_17h12.37.032,empathy_intonation_perc,2024.2.4,MacIntel,59.88023952,6361560a2e3e691ad312fed2,689ed6d1281858f68c932c05,689fa2985e74aa363496be53,,,,,,,,,,,,,,1,,,,,,,,,,,,,,,,,,,,,,,,,,,,,,,,,,,,,,,,,,,,,,,,,,,,,,,,,73,hervidor,,,,,683.2007,684.5156,0,0,0.776300001,,0,34,34,72,1,REAL,FAKE,,,,,,,,,,,,,,,,,
,,,,,,,,,6361560a2e3e691ad312fed2,Mexican,13 or older,"no, only English or Spanish",no,2025-08-15_17h12.37.032,empathy_intonation_perc,2024.2.4,MacIntel,59.88023952,6361560a2e3e691ad312fed2,689ed6d1281858f68c932c05,689fa2985e74aa363496be53,,,,,,,,,,,,,,1,,,,,,,,,,,,,,,,,,,,,,,,,,,,,,,,,,,,,,,,,,,,,,,,,,,,,,,,,56,musgo,,,,,684.5163,685.6815,0,0,0.629200001,,0,35,35,55,1,REAL,FAKE,,,,,,,,,,,,,,,,,
,,,,,,,,,6361560a2e3e691ad312fed2,Mexican,13 or older,"no, only English or Spanish",no,2025-08-15_17h12.37.032,empathy_intonation_perc,2024.2.4,MacIntel,59.88023952,6361560a2e3e691ad312fed2,689ed6d1281858f68c932c05,689fa2985e74aa363496be53,,,,,,,,,,,,,,0,,,,,,,,,,,,,,,,,,,,,,,,,,,,,,,,,,,,,,,,,,,,,,,,,,,,,,,,,21,capillo,,,,,685.6826,686.8994,0,1,0.707599998,,0,36,36,20,1,REAL,FAKE,,,,,,,,,,,,,,,,,
,,,,,,,,,6361560a2e3e691ad312fed2,Mexican,13 or older,"no, only English or Spanish",no,2025-08-15_17h12.37.032,empathy_intonation_perc,2024.2.4,MacIntel,59.88023952,6361560a2e3e691ad312fed2,689ed6d1281858f68c932c05,689fa2985e74aa363496be53,,,,,,,,,,,,,,0,,,,,,,,,,,,,,,,,,,,,,,,,,,,,,,,,,,,,,,,,,,,,,,,,,,,,,,,,87,grodo,,,,,686.9005,687.9489,0,1,0.524,,0,37,37,86,1,REAL,FAKE,,,,,,,,,,,,,,,,,
,,,,,,,,,6361560a2e3e691ad312fed2,Mexican,13 or older,"no, only English or Spanish",no,2025-08-15_17h12.37.032,empathy_intonation_perc,2024.2.4,MacIntel,59.88023952,6361560a2e3e691ad312fed2,689ed6d1281858f68c932c05,689fa2985e74aa363496be53,,,,,,,,,,,,,,1,,,,,,,,,,,,,,,,,,,,,,,,,,,,,,,,,,,,,,,,,,,,,,,,,,,,,,,,,88,acantilado,,,,,687.9501,689.1827,0,0,0.696700001,,0,38,38,87,1,REAL,FAKE,,,,,,,,,,,,,,,,,
,,,,,,,,,6361560a2e3e691ad312fed2,Mexican,13 or older,"no, only English or Spanish",no,2025-08-15_17h12.37.032,empathy_intonation_perc,2024.2.4,MacIntel,59.88023952,6361560a2e3e691ad312fed2,689ed6d1281858f68c932c05,689fa2985e74aa363496be53,,,,,,,,,,,,,,1,,,,,,,,,,,,,,,,,,,,,,,,,,,,,,,,,,,,,,,,,,,,,,,,,,,,,,,,,41,rebuscar,,,,,689.184,690.7823,1,1,1.059,,0,39,39,40,1,REAL,FAKE,,,,,,,,,,,,,,,,,
,,,,,,,,,6361560a2e3e691ad312fed2,Mexican,13 or older,"no, only English or Spanish",no,2025-08-15_17h12.37.032,empathy_intonation_perc,2024.2.4,MacIntel,59.88023952,6361560a2e3e691ad312fed2,689ed6d1281858f68c932c05,689fa2985e74aa363496be53,,,,,,,,,,,,,,1,,,,,,,,,,,,,,,,,,,,,,,,,,,,,,,,,,,,,,,,,,,,,,,,,,,,,,,,,54,fomentar,,,,,690.7832,692.0824,1,1,0.7636,,0,40,40,53,1,REAL,FAKE,,,,,,,,,,,,,,,,,
,,,,,,,,,6361560a2e3e691ad312fed2,Mexican,13 or older,"no, only English or Spanish",no,2025-08-15_17h12.37.032,empathy_intonation_perc,2024.2.4,MacIntel,59.88023952,6361560a2e3e691ad312fed2,689ed6d1281858f68c932c05,689fa2985e74aa363496be53,,,,,,,,,,,,,,0,,,,,,,,,,,,,,,,,,,,,,,,,,,,,,,,,,,,,,,,,,,,,,,,,,,,,,,,,92,click the 0 key.,,,,,692.0835,693.2813,0,1,0.6556,,0,41,41,91,1,REAL,FAKE,,,,,,,,,,,,,,,,,
,,,,,,,,,6361560a2e3e691ad312fed2,Mexican,13 or older,"no, only English or Spanish",no,2025-08-15_17h12.37.032,empathy_intonation_perc,2024.2.4,MacIntel,59.88023952,6361560a2e3e691ad312fed2,689ed6d1281858f68c932c05,689fa2985e74aa363496be53,,,,,,,,,,,,,,0,,,,,,,,,,,,,,,,,,,,,,,,,,,,,,,,,,,,,,,,,,,,,,,,,,,,,,,,,8,cadeña,,,,,693.2818,694.6985,1,0,0.8825,,0,42,42,7,1,REAL,FAKE,,,,,,,,,,,,,,,,,
,,,,,,,,,6361560a2e3e691ad312fed2,Mexican,13 or older,"no, only English or Spanish",no,2025-08-15_17h12.37.032,empathy_intonation_perc,2024.2.4,MacIntel,59.88023952,6361560a2e3e691ad312fed2,689ed6d1281858f68c932c05,689fa2985e74aa363496be53,,,,,,,,,,,,,,0,,,,,,,,,,,,,,,,,,,,,,,,,,,,,,,,,,,,,,,,,,,,,,,,,,,,,,,,,16,abracer,,,,,694.6993,696.0323,0,1,0.807,,0,43,43,15,1,REAL,FAKE,,,,,,,,,,,,,,,,,
,,,,,,,,,6361560a2e3e691ad312fed2,Mexican,13 or older,"no, only English or Spanish",no,2025-08-15_17h12.37.032,empathy_intonation_perc,2024.2.4,MacIntel,59.88023952,6361560a2e3e691ad312fed2,689ed6d1281858f68c932c05,689fa2985e74aa363496be53,,,,,,,,,,,,,,1,,,,,,,,,,,,,,,,,,,,,,,,,,,,,,,,,,,,,,,,,,,,,,,,,,,,,,,,,71,polvoriento,,,,,696.0327,697.3327,0,0,0.776400002,,0,44,44,70,1,REAL,FAKE,,,,,,,,,,,,,,,,,
,,,,,,,,,6361560a2e3e691ad312fed2,Mexican,13 or older,"no, only English or Spanish",no,2025-08-15_17h12.37.032,empathy_intonation_perc,2024.2.4,MacIntel,59.88023952,6361560a2e3e691ad312fed2,689ed6d1281858f68c932c05,689fa2985e74aa363496be53,,,,,,,,,,,,,,1,,,,,,,,,,,,,,,,,,,,,,,,,,,,,,,,,,,,,,,,,,,,,,,,,,,,,,,,,6,tergiversar,,,,,697.334,699.2658,0,0,1.394,,0,45,45,5,1,REAL,FAKE,,,,,,,,,,,,,,,,,
,,,,,,,,,6361560a2e3e691ad312fed2,Mexican,13 or older,"no, only English or Spanish",no,2025-08-15_17h12.37.032,empathy_intonation_perc,2024.2.4,MacIntel,59.88023952,6361560a2e3e691ad312fed2,689ed6d1281858f68c932c05,689fa2985e74aa363496be53,,,,,,,,,,,,,,0,,,,,,,,,,,,,,,,,,,,,,,,,,,,,,,,,,,,,,,,,,,,,,,,,,,,,,,,,58,plaudir,,,,,699.2666,700.615,0,1,0.827700001,,0,46,46,57,1,REAL,FAKE,,,,,,,,,,,,,,,,,
,,,,,,,,,6361560a2e3e691ad312fed2,Mexican,13 or older,"no, only English or Spanish",no,2025-08-15_17h12.37.032,empathy_intonation_perc,2024.2.4,MacIntel,59.88023952,6361560a2e3e691ad312fed2,689ed6d1281858f68c932c05,689fa2985e74aa363496be53,,,,,,,,,,,,,,1,,,,,,,,,,,,,,,,,,,,,,,,,,,,,,,,,,,,,,,,,,,,,,,,,,,,,,,,,48,ladrón,,,,,700.6173,701.9827,1,1,0.836800001,,0,47,47,47,1,REAL,FAKE,,,,,,,,,,,,,,,,,
,,,,,,,,,6361560a2e3e691ad312fed2,Mexican,13 or older,"no, only English or Spanish",no,2025-08-15_17h12.37.032,empathy_intonation_perc,2024.2.4,MacIntel,59.88023952,6361560a2e3e691ad312fed2,689ed6d1281858f68c932c05,689fa2985e74aa363496be53,,,,,,,,,,,,,,1,,,,,,,,,,,,,,,,,,,,,,,,,,,,,,,,,,,,,,,,,,,,,,,,,,,,,,,,,11,cenefa,,,,,701.9836,703.4148,1,1,0.898800001,,0,48,48,10,1,REAL,FAKE,,,,,,,,,,,,,,,,,
,,,,,,,,,6361560a2e3e691ad312fed2,Mexican,13 or older,"no, only English or Spanish",no,2025-08-15_17h12.37.032,empathy_intonation_perc,2024.2.4,MacIntel,59.88023952,6361560a2e3e691ad312fed2,689ed6d1281858f68c932c05,689fa2985e74aa363496be53,,,,,,,,,,,,,,1,,,,,,,,,,,,,,,,,,,,,,,,,,,,,,,,,,,,,,,,,,,,,,,,,,,,,,,,,28,merodear,,,,,703.4157,704.7316,0,0,0.7935,,0,49,49,27,1,REAL,FAKE,,,,,,,,,,,,,,,,,
,,,,,,,,,6361560a2e3e691ad312fed2,Mexican,13 or older,"no, only English or Spanish",no,2025-08-15_17h12.37.032,empathy_intonation_perc,2024.2.4,MacIntel,59.88023952,6361560a2e3e691ad312fed2,689ed6d1281858f68c932c05,689fa2985e74aa363496be53,,,,,,,,,,,,,,1,,,,,,,,,,,,,,,,,,,,,,,,,,,,,,,,,,,,,,,,,,,,,,,,,,,,,,,,,31,pandilla,,,,,704.7325,706.0661,1,1,0.8056,,0,50,50,30,1,REAL,FAKE,,,,,,,,,,,,,,,,,
,,,,,,,,,6361560a2e3e691ad312fed2,Mexican,13 or older,"no, only English or Spanish",no,2025-08-15_17h12.37.032,empathy_intonation_perc,2024.2.4,MacIntel,59.88023952,6361560a2e3e691ad312fed2,689ed6d1281858f68c932c05,689fa2985e74aa363496be53,,,,,,,,,,,,,,0,,,,,,,,,,,,,,,,,,,,,,,,,,,,,,,,,,,,,,,,,,,,,,,,,,,,,,,,,32,fatacidad,,,,,706.0673,707.6662,0,1,1.0696,,0,51,51,31,1,REAL,FAKE,,,,,,,,,,,,,,,,,
,,,,,,,,,6361560a2e3e691ad312fed2,Mexican,13 or older,"no, only English or Spanish",no,2025-08-15_17h12.37.032,empathy_intonation_perc,2024.2.4,MacIntel,59.88023952,6361560a2e3e691ad312fed2,689ed6d1281858f68c932c05,689fa2985e74aa363496be53,,,,,,,,,,,,,,1,,,,,,,,,,,,,,,,,,,,,,,,,,,,,,,,,,,,,,,,,,,,,,,,,,,,,,,,,14,yunque,,,,,707.6673,708.9162,0,0,0.7065,,0,52,52,13,1,REAL,FAKE,,,,,,,,,,,,,,,,,
,,,,,,,,,6361560a2e3e691ad312fed2,Mexican,13 or older,"no, only English or Spanish",no,2025-08-15_17h12.37.032,empathy_intonation_perc,2024.2.4,MacIntel,59.88023952,6361560a2e3e691ad312fed2,689ed6d1281858f68c932c05,689fa2985e74aa363496be53,,,,,,,,,,,,,,1,,,,,,,,,,,,,,,,,,,,,,,,,,,,,,,,,,,,,,,,,,,,,,,,,,,,,,,,,25,bisagra,,,,,708.9173,710.3498,0,0,0.8974,,0,53,53,24,1,REAL,FAKE,,,,,,,,,,,,,,,,,
,,,,,,,,,6361560a2e3e691ad312fed2,Mexican,13 or older,"no, only English or Spanish",no,2025-08-15_17h12.37.032,empathy_intonation_perc,2024.2.4,MacIntel,59.88023952,6361560a2e3e691ad312fed2,689ed6d1281858f68c932c05,689fa2985e74aa363496be53,,,,,,,,,,,,,,1,,,,,,,,,,,,,,,,,,,,,,,,,,,,,,,,,,,,,,,,,,,,,,,,,,,,,,,,,20,ávido,,,,,710.3513,711.5162,1,1,0.623,,0,54,54,19,1,REAL,FAKE,,,,,,,,,,,,,,,,,
,,,,,,,,,6361560a2e3e691ad312fed2,Mexican,13 or older,"no, only English or Spanish",no,2025-08-15_17h12.37.032,empathy_intonation_perc,2024.2.4,MacIntel,59.88023952,6361560a2e3e691ad312fed2,689ed6d1281858f68c932c05,689fa2985e74aa363496be53,,,,,,,,,,,,,,0,,,,,,,,,,,,,,,,,,,,,,,,,,,,,,,,,,,,,,,,,,,,,,,,,,,,,,,,,53,vegada,,,,,711.5171,712.8996,1,0,0.8449,,0,55,55,52,1,REAL,FAKE,,,,,,,,,,,,,,,,,
,,,,,,,,,6361560a2e3e691ad312fed2,Mexican,13 or older,"no, only English or Spanish",no,2025-08-15_17h12.37.032,empathy_intonation_perc,2024.2.4,MacIntel,59.88023952,6361560a2e3e691ad312fed2,689ed6d1281858f68c932c05,689fa2985e74aa363496be53,,,,,,,,,,,,,,1,,,,,,,,,,,,,,,,,,,,,,,,,,,,,,,,,,,,,,,,,,,,,,,,,,,,,,,,,34,aviso,,,,,712.9006,714.1829,1,1,0.738699999,,0,56,56,33,1,REAL,FAKE,,,,,,,,,,,,,,,,,
,,,,,,,,,6361560a2e3e691ad312fed2,Mexican,13 or older,"no, only English or Spanish",no,2025-08-15_17h12.37.032,empathy_intonation_perc,2024.2.4,MacIntel,59.88023952,6361560a2e3e691ad312fed2,689ed6d1281858f68c932c05,689fa2985e74aa363496be53,,,,,,,,,,,,,,0,,,,,,,,,,,,,,,,,,,,,,,,,,,,,,,,,,,,,,,,,,,,,,,,,,,,,,,,,18,arsa,,,,,714.184,715.6154,0,1,0.894099998,,0,57,57,17,1,REAL,FAKE,,,,,,,,,,,,,,,,,
,,,,,,,,,6361560a2e3e691ad312fed2,Mexican,13 or older,"no, only English or Spanish",no,2025-08-15_17h12.37.032,empathy_intonation_perc,2024.2.4,MacIntel,59.88023952,6361560a2e3e691ad312fed2,689ed6d1281858f68c932c05,689fa2985e74aa363496be53,,,,,,,,,,,,,,0,,,,,,,,,,,,,,,,,,,,,,,,,,,,,,,,,,,,,,,,,,,,,,,,,,,,,,,,,1,terzo,,,,,715.6166,716.7163,0,1,0.5734,,0,58,58,0,1,REAL,FAKE,,,,,,,,,,,,,,,,,
,,,,,,,,,6361560a2e3e691ad312fed2,Mexican,13 or older,"no, only English or Spanish",no,2025-08-15_17h12.37.032,empathy_intonation_perc,2024.2.4,MacIntel,59.88023952,6361560a2e3e691ad312fed2,689ed6d1281858f68c932c05,689fa2985e74aa363496be53,,,,,,,,,,,,,,1,,,,,,,,,,,,,,,,,,,,,,,,,,,,,,,,,,,,,,,,,,,,,,,,,,,,,,,,,39,torpe,,,,,716.7172,717.9319,0,0,0.6799,,0,59,59,38,1,REAL,FAKE,,,,,,,,,,,,,,,,,
,,,,,,,,,6361560a2e3e691ad312fed2,Mexican,13 or older,"no, only English or Spanish",no,2025-08-15_17h12.37.032,empathy_intonation_perc,2024.2.4,MacIntel,59.88023952,6361560a2e3e691ad312fed2,689ed6d1281858f68c932c05,689fa2985e74aa363496be53,,,,,,,,,,,,,,1,,,,,,,,,,,,,,,,,,,,,,,,,,,,,,,,,,,,,,,,,,,,,,,,,,,,,,,,,83,guante,,,,,717.9329,719.2997,0,0,0.8439,,0,60,60,82,1,REAL,FAKE,,,,,,,,,,,,,,,,,
,,,,,,,,,6361560a2e3e691ad312fed2,Mexican,13 or older,"no, only English or Spanish",no,2025-08-15_17h12.37.032,empathy_intonation_perc,2024.2.4,MacIntel,59.88023952,6361560a2e3e691ad312fed2,689ed6d1281858f68c932c05,689fa2985e74aa363496be53,,,,,,,,,,,,,,1,,,,,,,,,,,,,,,,,,,,,,,,,,,,,,,,,,,,,,,,,,,,,,,,,,,,,,,,,86,barato,,,,,719.3012,720.5987,1,1,0.7559,,0,61,61,85,1,REAL,FAKE,,,,,,,,,,,,,,,,,
,,,,,,,,,6361560a2e3e691ad312fed2,Mexican,13 or older,"no, only English or Spanish",no,2025-08-15_17h12.37.032,empathy_intonation_perc,2024.2.4,MacIntel,59.88023952,6361560a2e3e691ad312fed2,689ed6d1281858f68c932c05,689fa2985e74aa363496be53,,,,,,,,,,,,,,0,,,,,,,,,,,,,,,,,,,,,,,,,,,,,,,,,,,,,,,,,,,,,,,,,,,,,,,,,4,batillón,,,,,720.5997,721.9988,0,1,0.8719,,0,62,62,3,1,REAL,FAKE,,,,,,,,,,,,,,,,,
,,,,,,,,,6361560a2e3e691ad312fed2,Mexican,13 or older,"no, only English or Spanish",no,2025-08-15_17h12.37.032,empathy_intonation_perc,2024.2.4,MacIntel,59.88023952,6361560a2e3e691ad312fed2,689ed6d1281858f68c932c05,689fa2985e74aa363496be53,,,,,,,,,,,,,,1,,,,,,,,,,,,,,,,,,,,,,,,,,,,,,,,,,,,,,,,,,,,,,,,,,,,,,,,,69,engatusar,,,,,721.9997,723.5661,0,0,1.0376,,0,63,63,68,1,REAL,FAKE,,,,,,,,,,,,,,,,,
,,,,,,,,,6361560a2e3e691ad312fed2,Mexican,13 or older,"no, only English or Spanish",no,2025-08-15_17h12.37.032,empathy_intonation_perc,2024.2.4,MacIntel,59.88023952,6361560a2e3e691ad312fed2,689ed6d1281858f68c932c05,689fa2985e74aa363496be53,,,,,,,,,,,,,,1,,,,,,,,,,,,,,,,,,,,,,,,,,,,,,,,,,,,,,,,,,,,,,,,,,,,,,,,,60,matar,,,,,723.5668,724.9163,0,0,0.816799999,,0,64,64,59,1,REAL,FAKE,,,,,,,,,,,,,,,,,
,,,,,,,,,6361560a2e3e691ad312fed2,Mexican,13 or older,"no, only English or Spanish",no,2025-08-15_17h12.37.032,empathy_intonation_perc,2024.2.4,MacIntel,59.88023952,6361560a2e3e691ad312fed2,689ed6d1281858f68c932c05,689fa2985e74aa363496be53,,,,,,,,,,,,,,0,,,,,,,,,,,,,,,,,,,,,,,,,,,,,,,,,,,,,,,,,,,,,,,,,,,,,,,,,72,pemición,,,,,724.9173,726.5653,0,1,1.121699999,,0,65,65,71,1,REAL,FAKE,,,,,,,,,,,,,,,,,
,,,,,,,,,6361560a2e3e691ad312fed2,Mexican,13 or older,"no, only English or Spanish",no,2025-08-15_17h12.37.032,empathy_intonation_perc,2024.2.4,MacIntel,59.88023952,6361560a2e3e691ad312fed2,689ed6d1281858f68c932c05,689fa2985e74aa363496be53,,,,,,,,,,,,,,1,,,,,,,,,,,,,,,,,,,,,,,,,,,,,,,,,,,,,,,,,,,,,,,,,,,,,,,,,26,secuestro,,,,,726.566,727.9826,1,1,0.894299999,,0,66,66,25,1,REAL,FAKE,,,,,,,,,,,,,,,,,
,,,,,,,,,6361560a2e3e691ad312fed2,Mexican,13 or older,"no, only English or Spanish",no,2025-08-15_17h12.37.032,empathy_intonation_perc,2024.2.4,MacIntel,59.88023952,6361560a2e3e691ad312fed2,689ed6d1281858f68c932c05,689fa2985e74aa363496be53,,,,,,,,,,,,,,1,,,,,,,,,,,,,,,,,,,,,,,,,,,,,,,,,,,,,,,,,,,,,,,,,,,,,,,,,64,orgulloso,,,,,727.9838,729.4164,1,1,0.908,,0,67,67,63,1,REAL,FAKE,,,,,,,,,,,,,,,,,
,,,,,,,,,6361560a2e3e691ad312fed2,Mexican,13 or older,"no, only English or Spanish",no,2025-08-15_17h12.37.032,empathy_intonation_perc,2024.2.4,MacIntel,59.88023952,6361560a2e3e691ad312fed2,689ed6d1281858f68c932c05,689fa2985e74aa363496be53,,,,,,,,,,,,,,0,,,,,,,,,,,,,,,,,,,,,,,,,,,,,,,,,,,,,,,,,,,,,,,,,,,,,,,,,66,hacido,,,,,729.4171,730.7829,1,0,0.828300001,,0,68,68,65,1,REAL,FAKE,,,,,,,,,,,,,,,,,
,,,,,,,,,6361560a2e3e691ad312fed2,Mexican,13 or older,"no, only English or Spanish",no,2025-08-15_17h12.37.032,empathy_intonation_perc,2024.2.4,MacIntel,59.88023952,6361560a2e3e691ad312fed2,689ed6d1281858f68c932c05,689fa2985e74aa363496be53,,,,,,,,,,,,,,0,,,,,,,,,,,,,,,,,,,,,,,,,,,,,,,,,,,,,,,,,,,,,,,,,,,,,,,,,79,tropaje,,,,,730.7837,732.05,0,1,0.7394,,0,69,69,78,1,REAL,FAKE,,,,,,,,,,,,,,,,,
,,,,,,,,,6361560a2e3e691ad312fed2,Mexican,13 or older,"no, only English or Spanish",no,2025-08-15_17h12.37.032,empathy_intonation_perc,2024.2.4,MacIntel,59.88023952,6361560a2e3e691ad312fed2,689ed6d1281858f68c932c05,689fa2985e74aa363496be53,,,,,,,,,,,,,,1,,,,,,,,,,,,,,,,,,,,,,,,,,,,,,,,,,,,,,,,,,,,,,,,,,,,,,,,,40,alfombra,,,,,732.0513,733.2332,0,0,0.6461,,0,70,70,39,1,REAL,FAKE,,,,,,,,,,,,,,,,,
,,,,,,,,,6361560a2e3e691ad312fed2,Mexican,13 or older,"no, only English or Spanish",no,2025-08-15_17h12.37.032,empathy_intonation_perc,2024.2.4,MacIntel,59.88023952,6361560a2e3e691ad312fed2,689ed6d1281858f68c932c05,689fa2985e74aa363496be53,,,,,,,,,,,,,,1,,,,,,,,,,,,,,,,,,,,,,,,,,,,,,,,,,,,,,,,,,,,,,,,,,,,,,,,,15,regar,,,,,733.2341,734.6665,1,1,0.894799999,,0,71,71,14,1,REAL,FAKE,,,,,,,,,,,,,,,,,
,,,,,,,,,6361560a2e3e691ad312fed2,Mexican,13 or older,"no, only English or Spanish",no,2025-08-15_17h12.37.032,empathy_intonation_perc,2024.2.4,MacIntel,59.88023952,6361560a2e3e691ad312fed2,689ed6d1281858f68c932c05,689fa2985e74aa363496be53,,,,,,,,,,,,,,1,,,,,,,,,,,,,,,,,,,,,,,,,,,,,,,,,,,,,,,,,,,,,,,,,,,,,,,,,38,estornudar,,,,,734.6676,736.2167,0,0,1.012199999,,0,72,72,37,1,REAL,FAKE,,,,,,,,,,,,,,,,,
,,,,,,,,,6361560a2e3e691ad312fed2,Mexican,13 or older,"no, only English or Spanish",no,2025-08-15_17h12.37.032,empathy_intonation_perc,2024.2.4,MacIntel,59.88023952,6361560a2e3e691ad312fed2,689ed6d1281858f68c932c05,689fa2985e74aa363496be53,,,,,,,,,,,,,,1,,,,,,,,,,,,,,,,,,,,,,,,,,,,,,,,,,,,,,,,,,,,,,,,,,,,,,,,,76,atar,,,,,736.2181,737.6663,0,0,0.915,,0,73,73,75,1,REAL,FAKE,,,,,,,,,,,,,,,,,
,,,,,,,,,6361560a2e3e691ad312fed2,Mexican,13 or older,"no, only English or Spanish",no,2025-08-15_17h12.37.032,empathy_intonation_perc,2024.2.4,MacIntel,59.88023952,6361560a2e3e691ad312fed2,689ed6d1281858f68c932c05,689fa2985e74aa363496be53,,,,,,,,,,,,,,1,,,,,,,,,,,,,,,,,,,,,,,,,,,,,,,,,,,,,,,,,,,,,,,,,,,,,,,,,46,martillo,,,,,737.6669,738.7819,0,0,0.5844,,0,74,74,45,1,REAL,FAKE,,,,,,,,,,,,,,,,,
,,,,,,,,,6361560a2e3e691ad312fed2,Mexican,13 or older,"no, only English or Spanish",no,2025-08-15_17h12.37.032,empathy_intonation_perc,2024.2.4,MacIntel,59.88023952,6361560a2e3e691ad312fed2,689ed6d1281858f68c932c05,689fa2985e74aa363496be53,,,,,,,,,,,,,,1,,,,,,,,,,,,,,,,,,,,,,,,,,,,,,,,,,,,,,,,,,,,,,,,,,,,,,,,,43,canela,,,,,738.7824,739.8489,0,0,0.5329,,0,75,75,42,1,REAL,FAKE,,,,,,,,,,,,,,,,,
,,,,,,,,,6361560a2e3e691ad312fed2,Mexican,13 or older,"no, only English or Spanish",no,2025-08-15_17h12.37.032,empathy_intonation_perc,2024.2.4,MacIntel,59.88023952,6361560a2e3e691ad312fed2,689ed6d1281858f68c932c05,689fa2985e74aa363496be53,,,,,,,,,,,,,,0,,,,,,,,,,,,,,,,,,,,,,,,,,,,,,,,,,,,,,,,,,,,,,,,,,,,,,,,,70,temblo,,,,,739.8497,741.0156,0,1,0.626800001,,0,76,76,69,1,REAL,FAKE,,,,,,,,,,,,,,,,,
,,,,,,,,,6361560a2e3e691ad312fed2,Mexican,13 or older,"no, only English or Spanish",no,2025-08-15_17h12.37.032,empathy_intonation_perc,2024.2.4,MacIntel,59.88023952,6361560a2e3e691ad312fed2,689ed6d1281858f68c932c05,689fa2985e74aa363496be53,,,,,,,,,,,,,,1,,,,,,,,,,,,,,,,,,,,,,,,,,,,,,,,,,,,,,,,,,,,,,,,,,,,,,,,,61,seda,,,,,741.0167,742.1356,1,1,0.608200001,,0,77,77,60,1,REAL,FAKE,,,,,,,,,,,,,,,,,
,,,,,,,,,6361560a2e3e691ad312fed2,Mexican,13 or older,"no, only English or Spanish",no,2025-08-15_17h12.37.032,empathy_intonation_perc,2024.2.4,MacIntel,59.88023952,6361560a2e3e691ad312fed2,689ed6d1281858f68c932c05,689fa2985e74aa363496be53,,,,,,,,,,,,,,1,,,,,,,,,,,,,,,,,,,,,,,,,,,,,,,,,,,,,,,,,,,,,,,,,,,,,,,,,55,nevar,,,,,742.1371,743.5997,1,1,0.9306,,0,78,78,54,1,REAL,FAKE,,,,,,,,,,,,,,,,,
,,,,,,,,,6361560a2e3e691ad312fed2,Mexican,13 or older,"no, only English or Spanish",no,2025-08-15_17h12.37.032,empathy_intonation_perc,2024.2.4,MacIntel,59.88023952,6361560a2e3e691ad312fed2,689ed6d1281858f68c932c05,689fa2985e74aa363496be53,,,,,,,,,,,,,,1,,,,,,,,,,,,,,,,,,,,,,,,,,,,,,,,,,,,,,,,,,,,,,,,,,,,,,,,,13,helar,,,,,743.6011,744.9667,1,1,0.8265,,0,79,79,12,1,REAL,FAKE,,,,,,,,,,,,,,,,,
,,,,,,,,,6361560a2e3e691ad312fed2,Mexican,13 or older,"no, only English or Spanish",no,2025-08-15_17h12.37.032,empathy_intonation_perc,2024.2.4,MacIntel,59.88023952,6361560a2e3e691ad312fed2,689ed6d1281858f68c932c05,689fa2985e74aa363496be53,,,,,,,,,,,,,,0,,,,,,,,,,,,,,,,,,,,,,,,,,,,,,,,,,,,,,,,,,,,,,,,,,,,,,,,,47,cartinar,,,,,744.9677,746.6163,0,1,1.113400002,,0,80,80,46,1,REAL,FAKE,,,,,,,,,,,,,,,,,
,,,,,,,,,6361560a2e3e691ad312fed2,Mexican,13 or older,"no, only English or Spanish",no,2025-08-15_17h12.37.032,empathy_intonation_perc,2024.2.4,MacIntel,59.88023952,6361560a2e3e691ad312fed2,689ed6d1281858f68c932c05,689fa2985e74aa363496be53,,,,,,,,,,,,,,1,,,,,,,,,,,,,,,,,,,,,,,,,,,,,,,,,,,,,,,,,,,,,,,,,,,,,,,,,52,camisa,,,,,746.6167,747.9504,1,1,0.8165,,0,81,81,51,1,REAL,FAKE,,,,,,,,,,,,,,,,,
,,,,,,,,,6361560a2e3e691ad312fed2,Mexican,13 or older,"no, only English or Spanish",no,2025-08-15_17h12.37.032,empathy_intonation_perc,2024.2.4,MacIntel,59.88023952,6361560a2e3e691ad312fed2,689ed6d1281858f68c932c05,689fa2985e74aa363496be53,,,,,,,,,,,,,,1,,,,,,,,,,,,,,,,,,,,,,,,,,,,,,,,,,,,,,,,,,,,,,,,,,,,,,,,,37,granuja,,,,,747.9515,749.2334,1,1,0.745900002,,0,82,82,36,1,REAL,FAKE,,,,,,,,,,,,,,,,,
,,,,,,,,,6361560a2e3e691ad312fed2,Mexican,13 or older,"no, only English or Spanish",no,2025-08-15_17h12.37.032,empathy_intonation_perc,2024.2.4,MacIntel,59.88023952,6361560a2e3e691ad312fed2,689ed6d1281858f68c932c05,689fa2985e74aa363496be53,,,,,,,,,,,,,,0,,,,,,,,,,,,,,,,,,,,,,,,,,,,,,,,,,,,,,,,,,,,,,,,,,,,,,,,,42,cadallo,,,,,749.2343,750.5334,1,0,0.7661,,0,83,83,41,1,REAL,FAKE,,,,,,,,,,,,,,,,,
,,,,,,,,,6361560a2e3e691ad312fed2,Mexican,13 or older,"no, only English or Spanish",no,2025-08-15_17h12.37.032,empathy_intonation_perc,2024.2.4,MacIntel,59.88023952,6361560a2e3e691ad312fed2,689ed6d1281858f68c932c05,689fa2985e74aa363496be53,,,,,,,,,,,,,,1,,,,,,,,,,,,,,,,,,,,,,,,,,,,,,,,,,,,,,,,,,,,,,,,,,,,,,,,,22,lacayo,,,,,750.5344,751.7168,0,0,0.656200001,,0,84,84,21,1,REAL,FAKE,,,,,,,,,,,,,,,,,
,,,,,,,,,6361560a2e3e691ad312fed2,Mexican,13 or older,"no, only English or Spanish",no,2025-08-15_17h12.37.032,empathy_intonation_perc,2024.2.4,MacIntel,59.88023952,6361560a2e3e691ad312fed2,689ed6d1281858f68c932c05,689fa2985e74aa363496be53,,,,,,,,,,,,,,0,,,,,,,,,,,,,,,,,,,,,,,,,,,,,,,,,,,,,,,,,,,,,,,,,,,,,,,,,74,cintro,,,,,751.7181,753.0325,1,0,0.7805,,0,85,85,73,1,REAL,FAKE,,,,,,,,,,,,,,,,,
,,,,,,,,,6361560a2e3e691ad312fed2,Mexican,13 or older,"no, only English or Spanish",no,2025-08-15_17h12.37.032,empathy_intonation_perc,2024.2.4,MacIntel,59.88023952,6361560a2e3e691ad312fed2,689ed6d1281858f68c932c05,689fa2985e74aa363496be53,,,,,,,,,,,,,,0,,,,,,,,,,,,,,,,,,,,,,,,,,,,,,,,,,,,,,,,,,,,,,,,,,,,,,,,,29,decar,,,,,753.0335,754.6824,1,0,1.116900002,,0,86,86,28,1,REAL,FAKE,,,,,,,,,,,,,,,,,
,,,,,,,,,6361560a2e3e691ad312fed2,Mexican,13 or older,"no, only English or Spanish",no,2025-08-15_17h12.37.032,empathy_intonation_perc,2024.2.4,MacIntel,59.88023952,6361560a2e3e691ad312fed2,689ed6d1281858f68c932c05,689fa2985e74aa363496be53,,,,,,,,,,,,,,1,,,,,,,,,,,,,,,,,,,,,,,,,,,,,,,,,,,,,,,,,,,,,,,,,,,,,,,,,9,hacha,,,,,754.6838,755.9166,0,0,0.7195,,0,87,87,8,1,REAL,FAKE,,,,,,,,,,,,,,,,,
,,,,,,,,,6361560a2e3e691ad312fed2,Mexican,13 or older,"no, only English or Spanish",no,2025-08-15_17h12.37.032,empathy_intonation_perc,2024.2.4,MacIntel,59.88023952,6361560a2e3e691ad312fed2,689ed6d1281858f68c932c05,689fa2985e74aa363496be53,,,,,,,,,,,,,,1,,,,,,,,,,,,,,,,,,,,,,,,,,,,,,,,,,,,,,,,,,,,,,,,,,,,,,,,,65,bizcocho,,,,,755.9172,757.1834,0,0,0.730199999,,0,88,88,64,1,REAL,FAKE,,,,,,,,,,,,,,,,,
,,,,,,,,,6361560a2e3e691ad312fed2,Mexican,13 or older,"no, only English or Spanish",no,2025-08-15_17h12.37.032,empathy_intonation_perc,2024.2.4,MacIntel,59.88023952,6361560a2e3e691ad312fed2,689ed6d1281858f68c932c05,689fa2985e74aa363496be53,,,,,,,,,,,,,,1,,,,,,,,,,,,,,,,,,,,,,,,,,,,,,,,,,,,,,,,,,,,,,,,,,,,,,,,,51,candado,,,,,757.1844,758.999,1,1,1.277599998,,0,89,89,50,1,REAL,FAKE,,,,,,,,,,,,,,,,,
,,,,,,,,,6361560a2e3e691ad312fed2,Mexican,13 or older,"no, only English or Spanish",no,2025-08-15_17h12.37.032,empathy_intonation_perc,2024.2.4,MacIntel,59.88023952,6361560a2e3e691ad312fed2,689ed6d1281858f68c932c05,689fa2985e74aa363496be53,,,,,,,,,,,,,,1,,,,,,,,,,,,,,,,,,,,,,,,,,,,,,,,,,,,,,,,,,,,,,,,,,,,,,,,,3,pulmones,,,,,758.9997,760.1998,0,0,0.6621,,0,90,90,2,1,REAL,FAKE,,,,,,,,,,,,,,,,,
,,,,,,,,,6361560a2e3e691ad312fed2,Mexican,13 or older,"no, only English or Spanish",no,2025-08-15_17h12.37.032,empathy_intonation_perc,2024.2.4,MacIntel,59.88023952,6361560a2e3e691ad312fed2,689ed6d1281858f68c932c05,689fa2985e74aa363496be53,,,,,,,,,,,,,,1,,,,,,,,,,,,,,,,,,,,,,,,,,,,,,,,,,,,,,,,,,,,,,,,,,,,,,,,,90,clavel,,,,,760.2003,761.2502,0,0,0.5206,,0,91,91,89,1,REAL,FAKE,,,,,,,,,,,,,,,,,
,,,,,,,,,6361560a2e3e691ad312fed2,Mexican,13 or older,"no, only English or Spanish",no,2025-08-15_17h12.37.032,empathy_intonation_perc,2024.2.4,MacIntel,59.88023952,6361560a2e3e691ad312fed2,689ed6d1281858f68c932c05,689fa2985e74aa363496be53,,,,,,,,,,,,,,,,,,,,,,,,,,,,,,,,,,,,,,,,,,,,,,,,,,,,,,,,,,,,,,,,,,,,,,,,,,,,,,,,,,,,,,,,,,761.2507,781.6497,,,,,,,,,,,,,,,
,,,,,,,,,6361560a2e3e691ad312fed2,Mexican,13 or older,"no, only English or Spanish",no,2025-08-15_17h12.37.032,empathy_intonation_perc,2024.2.4,MacIntel,59.88023952,6361560a2e3e691ad312fed2,689ed6d1281858f68c932c05,689fa2985e74aa363496be53,,,,,,,,,,,,,1,,,,,,,,,,,,,,,,,,,,,,,,,,,,,,,,,,,,,,,,,,,,,,,,,,,,,,,,,,,,,,,,,,,,,,,,,,,,,,,781.662,786.3843,slightly agree,0,0,0,0,1,I can easily tell if someone else wants to enter a conversation.,1,0,1,0,,
,,,,,,,,,6361560a2e3e691ad312fed2,Mexican,13 or older,"no, only English or Spanish",no,2025-08-15_17h12.37.032,empathy_intonation_perc,2024.2.4,MacIntel,59.88023952,6361560a2e3e691ad312fed2,689ed6d1281858f68c932c05,689fa2985e74aa363496be53,,,,,,,,,,,,,2,,,,,,,,,,,,,,,,,,,,,,,,,,,,,,,,,,,,,,,,,,,,,,,,,,,,,,,,,,,,,,,,,,,,,,,,,,,,,,,786.385,789.5668,strongly disagree,0,1,1,1,1,I prefer animals to humans.,0,1,0,0,,
,,,,,,,,,6361560a2e3e691ad312fed2,Mexican,13 or older,"no, only English or Spanish",no,2025-08-15_17h12.37.032,empathy_intonation_perc,2024.2.4,MacIntel,59.88023952,6361560a2e3e691ad312fed2,689ed6d1281858f68c932c05,689fa2985e74aa363496be53,,,,,,,,,,,,,3,,,,,,,,,,,,,,,,,,,,,,,,,,,,,,,,,,,,,,,,,,,,,,,,,,,,,,,,,,,,,,,,,,,,,,,,,,,,,,,789.5677,792.517,strongly agree,0,2,2,2,1,I try to keep up with the current trends and fashions.,0,1,0,0,,
,,,,,,,,,6361560a2e3e691ad312fed2,Mexican,13 or older,"no, only English or Spanish",no,2025-08-15_17h12.37.032,empathy_intonation_perc,2024.2.4,MacIntel,59.88023952,6361560a2e3e691ad312fed2,689ed6d1281858f68c932c05,689fa2985e74aa363496be53,,,,,,,,,,,,,4,,,,,,,,,,,,,,,,,,,,,,,,,,,,,,,,,,,,,,,,,,,,,,,,,,,,,,,,,,,,,,,,,,,,,,,,,,,,,,,792.518,796.8503,slightly agree,0,3,3,3,1,"I find it difficult to explain to others things that I understand easily,   when they don't understand it first time.",1,0,0,1,,
,,,,,,,,,6361560a2e3e691ad312fed2,Mexican,13 or older,"no, only English or Spanish",no,2025-08-15_17h12.37.032,empathy_intonation_perc,2024.2.4,MacIntel,59.88023952,6361560a2e3e691ad312fed2,689ed6d1281858f68c932c05,689fa2985e74aa363496be53,,,,,,,,,,,,,5,,,,,,,,,,,,,,,,,,,,,,,,,,,,,,,,,,,,,,,,,,,,,,,,,,,,,,,,,,,,,,,,,,,,,,,,,,,,,,,796.8511,799.4843,slightly agree,0,4,4,4,1,I dream most nights.,0,1,0,0,,
,,,,,,,,,6361560a2e3e691ad312fed2,Mexican,13 or older,"no, only English or Spanish",no,2025-08-15_17h12.37.032,empathy_intonation_perc,2024.2.4,MacIntel,59.88023952,6361560a2e3e691ad312fed2,689ed6d1281858f68c932c05,689fa2985e74aa363496be53,,,,,,,,,,,,,6,,,,,,,,,,,,,,,,,,,,,,,,,,,,,,,,,,,,,,,,,,,,,,,,,,,,,,,,,,,,,,,,,,,,,,,,,,,,,,,799.4851,801.6161,strongly agree,0,5,5,5,1,I really enjoy caring for other people.,1,0,1,0,,
,,,,,,,,,6361560a2e3e691ad312fed2,Mexican,13 or older,"no, only English or Spanish",no,2025-08-15_17h12.37.032,empathy_intonation_perc,2024.2.4,MacIntel,59.88023952,6361560a2e3e691ad312fed2,689ed6d1281858f68c932c05,689fa2985e74aa363496be53,,,,,,,,,,,,,7,,,,,,,,,,,,,,,,,,,,,,,,,,,,,,,,,,,,,,,,,,,,,,,,,,,,,,,,,,,,,,,,,,,,,,,,,,,,,,,801.6171,810.1338,slightly agree,0,6,6,6,1,I try to solve my own problems rather than discussing them with others.,0,1,0,0,,
