instructions_exposure.started,instructions_exposure.stopped,instructions_exposure_loop.thisRepN,instructions_exposure_loop.thisTrialN,instructions_exposure_loop.thisN,instructions_exposure_loop.thisIndex,instructions_exposure_loop.ran,instructions_text,continue_text,participant_id,"What variety of Spanish are you most familiar with? (e.g., Peruvian, Spanish, Mexican)",At what age did you begin learning Spanish?,Are you proficient in any languages other than English/Spanish?,"Are you familiar with Caribbean (e.g., Caribbean, Puerto Rican) or Galician Spanish?",date,expName,psychopyVersion,OS,frameRate,id,study_id,session,trial_exposure.started,trial_exposure.stopped,key_resp_exposure.keys,key_resp_exposure.corr,key_resp_exposure.rt,key_resp_exposure.duration,key_resp.keys,exposure_loop.thisRepN,exposure_loop.thisTrialN,exposure_loop.thisN,exposure_loop.thisIndex,exposure_loop.ran,item_num,correct_response,question,path,duration,instructions_2afc.started,instructions_2afc.stopped,instructions_2afc_loop.thisRepN,instructions_2afc_loop.thisTrialN,instructions_2afc_loop.thisN,instructions_2afc_loop.thisIndex,instructions_2afc_loop.ran,practice_2afc.started,practice_2afc.stopped,key_resp_2afc_practice.keys,key_resp_2afc_practice.corr,key_resp_2afc_practice.rt,key_resp_2afc_practice.duration,trials_2afc_practice_loop.thisRepN,trials_2afc_practice_loop.thisTrialN,trials_2afc_practice_loop.thisN,trials_2afc_practice_loop.thisIndex,trials_2afc_practice_loop.ran,check_2afc.started,check_2afc.stopped,trial_2afc.started,trial_2afc.stopped,key_resp_2afc_trial.keys,key_resp_2afc_trial.corr,key_resp_2afc_trial.rt,key_resp_2afc_trial.duration,trials_2afc_loop.thisRepN,trials_2afc_loop.thisTrialN,trials_2afc_loop.thisN,trials_2afc_loop.thisIndex,trials_2afc_loop.ran,target,variety,instructions_lextale.started,instructions_lextale.stopped,instructions_lextale_loop.thisRepN,instructions_lextale_loop.thisTrialN,instructions_lextale_loop.thisN,instructions_lextale_loop.thisIndex,instructions_lextale_loop.ran,practice_lextale.started,practice_lextale.stopped,key_resp_lextale_practice.keys,key_resp_lextale_practice.corr,key_resp_lextale_practice.rt,key_resp_lextale_practice.duration,practice_feedback_lextale.started,practice_feedback_lextale.stopped,trials_lextale_practice_loop.thisRepN,trials_lextale_practice_loop.thisTrialN,trials_lextale_practice_loop.thisN,trials_lextale_practice_loop.thisIndex,trials_lextale_practice_loop.ran,stim,word,prac_button_real,prac_button_false,check_lextale.started,check_lextale.stopped,trial_lextale.started,trial_lextale.stopped,key_resp_lextale_trial.keys,key_resp_lextale_trial.corr,key_resp_lextale_trial.rt,key_resp_lextale_trial.duration,trials_lextale_loop.thisRepN,trials_lextale_loop.thisTrialN,trials_lextale_loop.thisN,trials_lextale_loop.thisIndex,trials_lextale_loop.ran,button_real,button_false,instructions_eq.started,instructions_eq.stopped,trial_eq.started,trial_eq.stopped,slider_eq_trial.response,trials_eq_loop.thisRepN,trials_eq_loop.thisTrialN,trials_eq_loop.thisN,trials_eq_loop.thisIndex,trials_eq_loop.ran,item,is_test_item,is_distractor,is_agree_score,is_disagree_score,end_exp.started,end_exp.stopped
0.0362,259.1456,0,0,0,0,1,"In the following task, you are going to hear a series of conversations.", (press the space bar to continue),636ac3f10d9f3b6a0eb54eeb,Spanish,13 or older,"no, only English or Spanish",no,2025-08-15_09h23.54.300,empathy_intonation_perc,2024.2.4,Win32,60.24096386,636ac3f10d9f3b6a0eb54eeb,689ed6d1281858f68c932c05,689f405740fec32ea728e72b,,,,,,,,,,,,,,,,,,,,,,,,,,,,,,,,,,,,,,,,,,,,,,,,,,,,,,,,,,,,,,,,,,,,,,,,,,,,,,,,,,,,,,,,,,,,,,,,,,,,,,,,,,
259.1468,266.1337,0,1,1,1,1,It is okay if you don't not 100% understand them!, (press the space bar to continue),636ac3f10d9f3b6a0eb54eeb,Spanish,13 or older,"no, only English or Spanish",no,2025-08-15_09h23.54.300,empathy_intonation_perc,2024.2.4,Win32,60.24096386,636ac3f10d9f3b6a0eb54eeb,689ed6d1281858f68c932c05,689f405740fec32ea728e72b,,,,,,,,,,,,,,,,,,,,,,,,,,,,,,,,,,,,,,,,,,,,,,,,,,,,,,,,,,,,,,,,,,,,,,,,,,,,,,,,,,,,,,,,,,,,,,,,,,,,,,,,,,
266.1378,270.0248,0,2,2,2,1,"After, you will read a sentence about the conversation and decide if it's true or false.", (press the space bar to continue),636ac3f10d9f3b6a0eb54eeb,Spanish,13 or older,"no, only English or Spanish",no,2025-08-15_09h23.54.300,empathy_intonation_perc,2024.2.4,Win32,60.24096386,636ac3f10d9f3b6a0eb54eeb,689ed6d1281858f68c932c05,689f405740fec32ea728e72b,,,,,,,,,,,,,,,,,,,,,,,,,,,,,,,,,,,,,,,,,,,,,,,,,,,,,,,,,,,,,,,,,,,,,,,,,,,,,,,,,,,,,,,,,,,,,,,,,,,,,,,,,,
270.0298,274.3841,0,3,3,3,1,"If it's true, press '1' (True) and if it's false press '0' (False).", (press the space bar to continue),636ac3f10d9f3b6a0eb54eeb,Spanish,13 or older,"no, only English or Spanish",no,2025-08-15_09h23.54.300,empathy_intonation_perc,2024.2.4,Win32,60.24096386,636ac3f10d9f3b6a0eb54eeb,689ed6d1281858f68c932c05,689f405740fec32ea728e72b,,,,,,,,,,,,,,,,,,,,,,,,,,,,,,,,,,,,,,,,,,,,,,,,,,,,,,,,,,,,,,,,,,,,,,,,,,,,,,,,,,,,,,,,,,,,,,,,,,,,,,,,,,
,,,,,,,,,636ac3f10d9f3b6a0eb54eeb,Spanish,13 or older,"no, only English or Spanish",no,2025-08-15_09h23.54.300,empathy_intonation_perc,2024.2.4,Win32,60.24096386,636ac3f10d9f3b6a0eb54eeb,689ed6d1281858f68c932c05,689f405740fec32ea728e72b,274.4086,338.8498,1,1,4.3605,,,0,0,0,1,1,2,1,The mom asked the daughter if she already went to the supermarket.,./stim/exposure_wavs/dr_stimuli_convo.wav,60,,,,,,,,,,,,,,,,,,,,,,,,,,,,,,,,,,,,,,,,,,,,,,,,,,,,,,,,,,,,,,,,,,,,,,,,,,,,,,,,,,,,,,,,,
,,,,,,,,,636ac3f10d9f3b6a0eb54eeb,Spanish,13 or older,"no, only English or Spanish",no,2025-08-15_09h23.54.300,empathy_intonation_perc,2024.2.4,Win32,60.24096386,636ac3f10d9f3b6a0eb54eeb,689ed6d1281858f68c932c05,689f405740fec32ea728e72b,338.854,390.6475,1,1,4.7409,,,0,1,1,0,1,1,1,The son asked the mom if Aunt Marina is okay.,./stim/exposure_wavs/ga_stimuli_convo.wav,47,,,,,,,,,,,,,,,,,,,,,,,,,,,,,,,,,,,,,,,,,,,,,,,,,,,,,,,,,,,,,,,,,,,,,,,,,,,,,,,,,,,,,,,,,
,,,,,,,,,636ac3f10d9f3b6a0eb54eeb,Spanish,13 or older,"no, only English or Spanish",no,2025-08-15_09h23.54.300,empathy_intonation_perc,2024.2.4,Win32,60.24096386,636ac3f10d9f3b6a0eb54eeb,689ed6d1281858f68c932c05,689f405740fec32ea728e72b,390.6516,431.966,1,0,5.2795,,,0,2,2,2,1,3,0,The mom already has rice.,./stim/exposure_wavs/pr_stimuli_convo.wav,36,,,,,,,,,,,,,,,,,,,,,,,,,,,,,,,,,,,,,,,,,,,,,,,,,,,,,,,,,,,,,,,,,,,,,,,,,,,,,,,,,,,,,,,,,
,,,,,,,"In the following task you are going to hear a series of utterances. 

  You will decide if the utterances sound like questions or not using your keyboard.", (press the spacebar to continue),636ac3f10d9f3b6a0eb54eeb,Spanish,13 or older,"no, only English or Spanish",no,2025-08-15_09h23.54.300,empathy_intonation_perc,2024.2.4,Win32,60.24096386,636ac3f10d9f3b6a0eb54eeb,689ed6d1281858f68c932c05,689f405740fec32ea728e72b,,,,,,,,,,,,,,,,,,431.9768,487.4681,0,0,0,0,1,,,,,,,,,,,,,,,,,,,,,,,,,,,,,,,,,,,,,,,,,,,,,,,,,,,,,,,,,,,,,,,,,,,,,,,,,,,,,,,,,,
,,,,,,,"If you believe the utterance is a question, type '1' (for 'yes') and if you do not 
  believe it is a question type '0' (for 'no').

  Let's practice a bit...", (press the spacebar to continue),636ac3f10d9f3b6a0eb54eeb,Spanish,13 or older,"no, only English or Spanish",no,2025-08-15_09h23.54.300,empathy_intonation_perc,2024.2.4,Win32,60.24096386,636ac3f10d9f3b6a0eb54eeb,689ed6d1281858f68c932c05,689f405740fec32ea728e72b,,,,,,,,,,,,,,,,,,487.4719,495.9333,0,1,1,1,1,,,,,,,,,,,,,,,,,,,,,,,,,,,,,,,,,,,,,,,,,,,,,,,,,,,,,,,,,,,,,,,,,,,,,,,,,,,,,,,,,,
,,,,,,,,,636ac3f10d9f3b6a0eb54eeb,Spanish,13 or older,"no, only English or Spanish",no,2025-08-15_09h23.54.300,empathy_intonation_perc,2024.2.4,Win32,60.24096386,636ac3f10d9f3b6a0eb54eeb,689ed6d1281858f68c932c05,689f405740fec32ea728e72b,,,,,,,,,,,,,,0,,./stim/wavs/andalusian_statement_filler_Alberto-nunca-se-afeita.wav,,,,,,,,,495.9473,498.6165,1,0,2.1351,,0,0,0,5,1,,,,,,,,,,,,,,,,,,,,,,,,,,,,,,,,,,,,,,,,,,,,,,,,,,,,,,,,,,,,,,,,,,,,,,,
,,,,,,,,,636ac3f10d9f3b6a0eb54eeb,Spanish,13 or older,"no, only English or Spanish",no,2025-08-15_09h23.54.300,empathy_intonation_perc,2024.2.4,Win32,60.24096386,636ac3f10d9f3b6a0eb54eeb,689ed6d1281858f68c932c05,689f405740fec32ea728e72b,,,,,,,,,,,,,,1,,./stim/wavs/chilean_question_filler_Mi-padre-cantaba-bien.wav,,,,,,,,,498.6184,500.041,1,1,0.9023,,0,1,1,2,1,,,,,,,,,,,,,,,,,,,,,,,,,,,,,,,,,,,,,,,,,,,,,,,,,,,,,,,,,,,,,,,,,,,,,,,
,,,,,,,,,636ac3f10d9f3b6a0eb54eeb,Spanish,13 or older,"no, only English or Spanish",no,2025-08-15_09h23.54.300,empathy_intonation_perc,2024.2.4,Win32,60.24096386,636ac3f10d9f3b6a0eb54eeb,689ed6d1281858f68c932c05,689f405740fec32ea728e72b,,,,,,,,,,,,,,0,,./stim/wavs/cuban_statement_filler_Cocinabas-por-la-noche.wav,,,,,,,,,500.0422,501.6847,1,0,1.1232,,0,2,2,4,1,,,,,,,,,,,,,,,,,,,,,,,,,,,,,,,,,,,,,,,,,,,,,,,,,,,,,,,,,,,,,,,,,,,,,,,
,,,,,,,,,636ac3f10d9f3b6a0eb54eeb,Spanish,13 or older,"no, only English or Spanish",no,2025-08-15_09h23.54.300,empathy_intonation_perc,2024.2.4,Win32,60.24096386,636ac3f10d9f3b6a0eb54eeb,689ed6d1281858f68c932c05,689f405740fec32ea728e72b,,,,,,,,,,,,,,1,,./stim/wavs/mexican_question_filler_Felipe-no-tiene-contrasena.wav,,,,,,,,,501.6865,505.822,1,1,3.6131,,0,3,3,3,1,,,,,,,,,,,,,,,,,,,,,,,,,,,,,,,,,,,,,,,,,,,,,,,,,,,,,,,,,,,,,,,,,,,,,,,
,,,,,,,,,636ac3f10d9f3b6a0eb54eeb,Spanish,13 or older,"no, only English or Spanish",no,2025-08-15_09h23.54.300,empathy_intonation_perc,2024.2.4,Win32,60.24096386,636ac3f10d9f3b6a0eb54eeb,689ed6d1281858f68c932c05,689f405740fec32ea728e72b,,,,,,,,,,,,,,0,,./stim/wavs/peruvian_statement_filler_El-nino-habla-con-su-madre.wav,,,,,,,,,505.8231,508.5139,0,1,2.1548,,0,4,4,6,1,,,,,,,,,,,,,,,,,,,,,,,,,,,,,,,,,,,,,,,,,,,,,,,,,,,,,,,,,,,,,,,,,,,,,,,
,,,,,,,,,636ac3f10d9f3b6a0eb54eeb,Spanish,13 or older,"no, only English or Spanish",no,2025-08-15_09h23.54.300,empathy_intonation_perc,2024.2.4,Win32,60.24096386,636ac3f10d9f3b6a0eb54eeb,689ed6d1281858f68c932c05,689f405740fec32ea728e72b,,,,,,,,,,,,,,0,,./stim/wavs/puertorican_statement_filler_La-nina-pinta-con-su-amiga.wav,,,,,,,,,508.5166,511.2482,0,1,2.2041,,0,5,5,7,1,,,,,,,,,,,,,,,,,,,,,,,,,,,,,,,,,,,,,,,,,,,,,,,,,,,,,,,,,,,,,,,,,,,,,,,
,,,,,,,,,636ac3f10d9f3b6a0eb54eeb,Spanish,13 or older,"no, only English or Spanish",no,2025-08-15_09h23.54.300,empathy_intonation_perc,2024.2.4,Win32,60.24096386,636ac3f10d9f3b6a0eb54eeb,689ed6d1281858f68c932c05,689f405740fec32ea728e72b,,,,,,,,,,,,,,1,,./stim/wavs/castilian_question_filler_Mi-esposo-conoce-al-chico.wav,,,,,,,,,511.2498,513.6804,1,1,1.9165,,0,6,6,0,1,,,,,,,,,,,,,,,,,,,,,,,,,,,,,,,,,,,,,,,,,,,,,,,,,,,,,,,,,,,,,,,,,,,,,,,
,,,,,,,,,636ac3f10d9f3b6a0eb54eeb,Spanish,13 or older,"no, only English or Spanish",no,2025-08-15_09h23.54.300,empathy_intonation_perc,2024.2.4,Win32,60.24096386,636ac3f10d9f3b6a0eb54eeb,689ed6d1281858f68c932c05,689f405740fec32ea728e72b,,,,,,,,,,,,,,1,,./stim/wavs/argentine_question_filler_Mi-vecino-habla-mucho.wav,,,,,,,,,513.6819,515.616,1,1,1.4018,,0,7,7,1,1,,,,,,,,,,,,,,,,,,,,,,,,,,,,,,,,,,,,,,,,,,,,,,,,,,,,,,,,,,,,,,,,,,,,,,,
,,,,,,,,,636ac3f10d9f3b6a0eb54eeb,Spanish,13 or older,"no, only English or Spanish",no,2025-08-15_09h23.54.300,empathy_intonation_perc,2024.2.4,Win32,60.24096386,636ac3f10d9f3b6a0eb54eeb,689ed6d1281858f68c932c05,689f405740fec32ea728e72b,,,,,,,,,,,,,,,,,,,,,,,,,,,,,,,,,,,,515.617,518.4377,,,,,,,,,,,,,,,,,,,,,,,,,,,,,,,,,,,,,,,,,,,,,,,,,,,,,,,,,,,,,,,,,,,,,
,,,,,,,,,636ac3f10d9f3b6a0eb54eeb,Spanish,13 or older,"no, only English or Spanish",no,2025-08-15_09h23.54.300,empathy_intonation_perc,2024.2.4,Win32,60.24096386,636ac3f10d9f3b6a0eb54eeb,689ed6d1281858f68c932c05,689f405740fec32ea728e72b,,,,,,,,,,,,,29,1,,./stim/wavs/castilian_mismatch_interrogative-total-yn_Mi-tia-odia-la-lluvia.wav,,,,,,,,,,,,,,,,,,,,,,518.4602,521.9085,1,1,2.9051,,0,0,0,28,1,0,castilian,,,,,,,,,,,,,,,,,,,,,,,,,,,,,,,,,,,,,,,,,,,,,,,,,,,,,,,,
,,,,,,,,,636ac3f10d9f3b6a0eb54eeb,Spanish,13 or older,"no, only English or Spanish",no,2025-08-15_09h23.54.300,empathy_intonation_perc,2024.2.4,Win32,60.24096386,636ac3f10d9f3b6a0eb54eeb,689ed6d1281858f68c932c05,689f405740fec32ea728e72b,,,,,,,,,,,,,36,1,,./stim/wavs/mexican_mismatch_interrogative-total-yn_El-nino-oye-el-rio.wav,,,,,,,,,,,,,,,,,,,,,,521.9094,524.9958,1,1,2.5424,,0,1,1,35,1,0,mexican,,,,,,,,,,,,,,,,,,,,,,,,,,,,,,,,,,,,,,,,,,,,,,,,,,,,,,,,
,,,,,,,,,636ac3f10d9f3b6a0eb54eeb,Spanish,13 or older,"no, only English or Spanish",no,2025-08-15_09h23.54.300,empathy_intonation_perc,2024.2.4,Win32,60.24096386,636ac3f10d9f3b6a0eb54eeb,689ed6d1281858f68c932c05,689f405740fec32ea728e72b,,,,,,,,,,,,,57,0,,./stim/wavs/mexican_match_declarative-broad-focus_Ana-lleva-el-abrigo.wav,,,,,,,,,,,,,,,,,,,,,,524.9981,528.1103,1,0,2.5914,,0,2,2,56,1,0,mexican,,,,,,,,,,,,,,,,,,,,,,,,,,,,,,,,,,,,,,,,,,,,,,,,,,,,,,,,
,,,,,,,,,636ac3f10d9f3b6a0eb54eeb,Spanish,13 or older,"no, only English or Spanish",no,2025-08-15_09h23.54.300,empathy_intonation_perc,2024.2.4,Win32,60.24096386,636ac3f10d9f3b6a0eb54eeb,689ed6d1281858f68c932c05,689f405740fec32ea728e72b,,,,,,,,,,,,,18,1,,./stim/wavs/mexican_match_interrogative-total-yn_Marta-abre-el-regalo.wav,,,,,,,,,,,,,,,,,,,,,,528.1118,530.8661,1,1,2.2223,,0,3,3,17,1,0,mexican,,,,,,,,,,,,,,,,,,,,,,,,,,,,,,,,,,,,,,,,,,,,,,,,,,,,,,,,
,,,,,,,,,636ac3f10d9f3b6a0eb54eeb,Spanish,13 or older,"no, only English or Spanish",no,2025-08-15_09h23.54.300,empathy_intonation_perc,2024.2.4,Win32,60.24096386,636ac3f10d9f3b6a0eb54eeb,689ed6d1281858f68c932c05,689f405740fec32ea728e72b,,,,,,,,,,,,,81,0,,./stim/wavs/mexican_mismatch_declarative-broad-focus_La-maestra-vive-en-Paris.wav,,,,,,,,,,,,,,,,,,,,,,530.868,533.4686,0,1,2.0603,,0,4,4,80,1,0,mexican,,,,,,,,,,,,,,,,,,,,,,,,,,,,,,,,,,,,,,,,,,,,,,,,,,,,,,,,
,,,,,,,,,636ac3f10d9f3b6a0eb54eeb,Spanish,13 or older,"no, only English or Spanish",no,2025-08-15_09h23.54.300,empathy_intonation_perc,2024.2.4,Win32,60.24096386,636ac3f10d9f3b6a0eb54eeb,689ed6d1281858f68c932c05,689f405740fec32ea728e72b,,,,,,,,,,,,,4,1,,./stim/wavs/castilian_match_interrogative-total-yn_Maria-bebe-el-vino.wav,,,,,,,,,,,,,,,,,,,,,,533.4697,537.2674,0,0,3.2815,,0,5,5,3,1,0,castilian,,,,,,,,,,,,,,,,,,,,,,,,,,,,,,,,,,,,,,,,,,,,,,,,,,,,,,,,
,,,,,,,,,636ac3f10d9f3b6a0eb54eeb,Spanish,13 or older,"no, only English or Spanish",no,2025-08-15_09h23.54.300,empathy_intonation_perc,2024.2.4,Win32,60.24096386,636ac3f10d9f3b6a0eb54eeb,689ed6d1281858f68c932c05,689f405740fec32ea728e72b,,,,,,,,,,,,,51,0,,./stim/wavs/cuban_match_declarative-broad-focus_Ana-lleva-el-abrigo.wav,,,,,,,,,,,,,,,,,,,,,,537.2687,540.3536,0,1,2.5532,,0,6,6,50,1,0,cuban,,,,,,,,,,,,,,,,,,,,,,,,,,,,,,,,,,,,,,,,,,,,,,,,,,,,,,,,
,,,,,,,,,636ac3f10d9f3b6a0eb54eeb,Spanish,13 or older,"no, only English or Spanish",no,2025-08-15_09h23.54.300,empathy_intonation_perc,2024.2.4,Win32,60.24096386,636ac3f10d9f3b6a0eb54eeb,689ed6d1281858f68c932c05,689f405740fec32ea728e72b,,,,,,,,,,,,,31,1,,./stim/wavs/cuban_mismatch_interrogative-total-yn_El-nino-oye-el-rio.wav,,,,,,,,,,,,,,,,,,,,,,540.3546,543.1673,0,0,2.2834,,0,7,7,30,1,1,cuban,,,,,,,,,,,,,,,,,,,,,,,,,,,,,,,,,,,,,,,,,,,,,,,,,,,,,,,,
,,,,,,,,,636ac3f10d9f3b6a0eb54eeb,Spanish,13 or older,"no, only English or Spanish",no,2025-08-15_09h23.54.300,empathy_intonation_perc,2024.2.4,Win32,60.24096386,636ac3f10d9f3b6a0eb54eeb,689ed6d1281858f68c932c05,689f405740fec32ea728e72b,,,,,,,,,,,,,58,0,,./stim/wavs/mexican_match_declarative-broad-focus_Daniel-iba-a-Bolivia.wav,,,,,,,,,,,,,,,,,,,,,,543.1687,546.0345,0,1,2.3304,,0,8,8,57,1,0,mexican,,,,,,,,,,,,,,,,,,,,,,,,,,,,,,,,,,,,,,,,,,,,,,,,,,,,,,,,
,,,,,,,,,636ac3f10d9f3b6a0eb54eeb,Spanish,13 or older,"no, only English or Spanish",no,2025-08-15_09h23.54.300,empathy_intonation_perc,2024.2.4,Win32,60.24096386,636ac3f10d9f3b6a0eb54eeb,689ed6d1281858f68c932c05,689f405740fec32ea728e72b,,,,,,,,,,,,,53,0,,./stim/wavs/cuban_match_declarative-broad-focus_Manuela-vende-el-carro.wav,,,,,,,,,,,,,,,,,,,,,,546.0359,548.4175,0,1,1.845,,0,9,9,52,1,0,cuban,,,,,,,,,,,,,,,,,,,,,,,,,,,,,,,,,,,,,,,,,,,,,,,,,,,,,,,,
,,,,,,,,,636ac3f10d9f3b6a0eb54eeb,Spanish,13 or older,"no, only English or Spanish",no,2025-08-15_09h23.54.300,empathy_intonation_perc,2024.2.4,Win32,60.24096386,636ac3f10d9f3b6a0eb54eeb,689ed6d1281858f68c932c05,689f405740fec32ea728e72b,,,,,,,,,,,,,83,0,,./stim/wavs/mexican_mismatch_declarative-broad-focus_Mi-tia-odia-la-lluvia.wav,,,,,,,,,,,,,,,,,,,,,,548.4186,550.7043,0,1,1.7517,,0,10,10,82,1,0,mexican,,,,,,,,,,,,,,,,,,,,,,,,,,,,,,,,,,,,,,,,,,,,,,,,,,,,,,,,
,,,,,,,,,636ac3f10d9f3b6a0eb54eeb,Spanish,13 or older,"no, only English or Spanish",no,2025-08-15_09h23.54.300,empathy_intonation_perc,2024.2.4,Win32,60.24096386,636ac3f10d9f3b6a0eb54eeb,689ed6d1281858f68c932c05,689f405740fec32ea728e72b,,,,,,,,,,,,,75,0,,./stim/wavs/cuban_mismatch_declarative-broad-focus_El-hombre-mira-la-luna.wav,,,,,,,,,,,,,,,,,,,,,,550.7055,552.6045,1,0,1.3724,,0,11,11,74,1,0,cuban,,,,,,,,,,,,,,,,,,,,,,,,,,,,,,,,,,,,,,,,,,,,,,,,,,,,,,,,
,,,,,,,,,636ac3f10d9f3b6a0eb54eeb,Spanish,13 or older,"no, only English or Spanish",no,2025-08-15_09h23.54.300,empathy_intonation_perc,2024.2.4,Win32,60.24096386,636ac3f10d9f3b6a0eb54eeb,689ed6d1281858f68c932c05,689f405740fec32ea728e72b,,,,,,,,,,,,,88,0,,./stim/wavs/puertorican_mismatch_declarative-broad-focus_La-nina-lava-el-plato.wav,,,,,,,,,,,,,,,,,,,,,,552.6056,554.921,1,0,1.7893,,0,12,12,87,1,0,puertorican,,,,,,,,,,,,,,,,,,,,,,,,,,,,,,,,,,,,,,,,,,,,,,,,,,,,,,,,
,,,,,,,,,636ac3f10d9f3b6a0eb54eeb,Spanish,13 or older,"no, only English or Spanish",no,2025-08-15_09h23.54.300,empathy_intonation_perc,2024.2.4,Win32,60.24096386,636ac3f10d9f3b6a0eb54eeb,689ed6d1281858f68c932c05,689f405740fec32ea728e72b,,,,,,,,,,,,,17,1,,./stim/wavs/mexican_match_interrogative-total-yn_Mariano-habla-del-tiempo.wav,,,,,,,,,,,,,,,,,,,,,,554.922,557.4806,1,1,2.0261,,0,13,13,16,1,0,mexican,,,,,,,,,,,,,,,,,,,,,,,,,,,,,,,,,,,,,,,,,,,,,,,,,,,,,,,,
,,,,,,,,,636ac3f10d9f3b6a0eb54eeb,Spanish,13 or older,"no, only English or Spanish",no,2025-08-15_09h23.54.300,empathy_intonation_perc,2024.2.4,Win32,60.24096386,636ac3f10d9f3b6a0eb54eeb,689ed6d1281858f68c932c05,689f405740fec32ea728e72b,,,,,,,,,,,,,62,0,,./stim/wavs/mexican_match_declarative-broad-focus_Marta-abre-el-regalo.wav,,,,,,,,,,,,,,,,,,,,,,557.4816,560.2142,1,0,2.2014,,0,14,14,61,1,0,mexican,,,,,,,,,,,,,,,,,,,,,,,,,,,,,,,,,,,,,,,,,,,,,,,,,,,,,,,,
,,,,,,,,,636ac3f10d9f3b6a0eb54eeb,Spanish,13 or older,"no, only English or Spanish",no,2025-08-15_09h23.54.300,empathy_intonation_perc,2024.2.4,Win32,60.24096386,636ac3f10d9f3b6a0eb54eeb,689ed6d1281858f68c932c05,689f405740fec32ea728e72b,,,,,,,,,,,,,42,1,,./stim/wavs/puertorican_mismatch_interrogative-total-yn_La-maestra-vive-en-Paris.wav,,,,,,,,,,,,,,,,,,,,,,560.2169,561.8981,1,1,1.1665,,0,15,15,41,1,1,puertorican,,,,,,,,,,,,,,,,,,,,,,,,,,,,,,,,,,,,,,,,,,,,,,,,,,,,,,,,
,,,,,,,,,636ac3f10d9f3b6a0eb54eeb,Spanish,13 or older,"no, only English or Spanish",no,2025-08-15_09h23.54.300,empathy_intonation_perc,2024.2.4,Win32,60.24096386,636ac3f10d9f3b6a0eb54eeb,689ed6d1281858f68c932c05,689f405740fec32ea728e72b,,,,,,,,,,,,,47,0,,./stim/wavs/castilian_match_declarative-broad-focus_Manuela-vende-el-carro.wav,,,,,,,,,,,,,,,,,,,,,,561.9001,564.3826,1,0,1.9522,,0,16,16,46,1,0,castilian,,,,,,,,,,,,,,,,,,,,,,,,,,,,,,,,,,,,,,,,,,,,,,,,,,,,,,,,
,,,,,,,,,636ac3f10d9f3b6a0eb54eeb,Spanish,13 or older,"no, only English or Spanish",no,2025-08-15_09h23.54.300,empathy_intonation_perc,2024.2.4,Win32,60.24096386,636ac3f10d9f3b6a0eb54eeb,689ed6d1281858f68c932c05,689f405740fec32ea728e72b,,,,,,,,,,,,,1,1,,./stim/wavs/castilian_match_interrogative-total-yn_David-leia-el-libro.wav,,,,,,,,,,,,,,,,,,,,,,564.3844,566.7639,1,1,1.8512,,0,17,17,0,1,0,castilian,,,,,,,,,,,,,,,,,,,,,,,,,,,,,,,,,,,,,,,,,,,,,,,,,,,,,,,,
,,,,,,,,,636ac3f10d9f3b6a0eb54eeb,Spanish,13 or older,"no, only English or Spanish",no,2025-08-15_09h23.54.300,empathy_intonation_perc,2024.2.4,Win32,60.24096386,636ac3f10d9f3b6a0eb54eeb,689ed6d1281858f68c932c05,689f405740fec32ea728e72b,,,,,,,,,,,,,67,0,,./stim/wavs/puertorican_match_declarative-broad-focus_Manuela-vende-el-carro.wav,,,,,,,,,,,,,,,,,,,,,,566.7655,569.4375,1,0,2.143,,0,18,18,66,1,0,puertorican,,,,,,,,,,,,,,,,,,,,,,,,,,,,,,,,,,,,,,,,,,,,,,,,,,,,,,,,
,,,,,,,,,636ac3f10d9f3b6a0eb54eeb,Spanish,13 or older,"no, only English or Spanish",no,2025-08-15_09h23.54.300,empathy_intonation_perc,2024.2.4,Win32,60.24096386,636ac3f10d9f3b6a0eb54eeb,689ed6d1281858f68c932c05,689f405740fec32ea728e72b,,,,,,,,,,,,,10,1,,./stim/wavs/cuban_match_interrogative-total-yn_Maria-bebe-el-vino.wav,,,,,,,,,,,,,,,,,,,,,,569.4388,571.9381,1,1,1.9801,,0,19,19,9,1,1,cuban,,,,,,,,,,,,,,,,,,,,,,,,,,,,,,,,,,,,,,,,,,,,,,,,,,,,,,,,
,,,,,,,,,636ac3f10d9f3b6a0eb54eeb,Spanish,13 or older,"no, only English or Spanish",no,2025-08-15_09h23.54.300,empathy_intonation_perc,2024.2.4,Win32,60.24096386,636ac3f10d9f3b6a0eb54eeb,689ed6d1281858f68c932c05,689f405740fec32ea728e72b,,,,,,,,,,,,,68,0,,./stim/wavs/puertorican_match_declarative-broad-focus_Maria-bebe-el-vino.wav,,,,,,,,,,,,,,,,,,,,,,571.9396,574.4321,1,0,1.9673,,0,20,20,67,1,0,puertorican,,,,,,,,,,,,,,,,,,,,,,,,,,,,,,,,,,,,,,,,,,,,,,,,,,,,,,,,
,,,,,,,,,636ac3f10d9f3b6a0eb54eeb,Spanish,13 or older,"no, only English or Spanish",no,2025-08-15_09h23.54.300,empathy_intonation_perc,2024.2.4,Win32,60.24096386,636ac3f10d9f3b6a0eb54eeb,689ed6d1281858f68c932c05,689f405740fec32ea728e72b,,,,,,,,,,,,,79,0,,./stim/wavs/mexican_mismatch_declarative-broad-focus_El-bebe-comia-muy-bien.wav,,,,,,,,,,,,,,,,,,,,,,574.4335,577.1464,1,0,2.1908,,0,21,21,78,1,0,mexican,,,,,,,,,,,,,,,,,,,,,,,,,,,,,,,,,,,,,,,,,,,,,,,,,,,,,,,,
,,,,,,,,,636ac3f10d9f3b6a0eb54eeb,Spanish,13 or older,"no, only English or Spanish",no,2025-08-15_09h23.54.300,empathy_intonation_perc,2024.2.4,Win32,60.24096386,636ac3f10d9f3b6a0eb54eeb,689ed6d1281858f68c932c05,689f405740fec32ea728e72b,,,,,,,,,,,,,54,0,,./stim/wavs/cuban_match_declarative-broad-focus_Maria-bebe-el-vino.wav,,,,,,,,,,,,,,,,,,,,,,577.1473,579.6662,1,0,1.9859,,0,22,22,53,1,0,cuban,,,,,,,,,,,,,,,,,,,,,,,,,,,,,,,,,,,,,,,,,,,,,,,,,,,,,,,,
,,,,,,,,,636ac3f10d9f3b6a0eb54eeb,Spanish,13 or older,"no, only English or Spanish",no,2025-08-15_09h23.54.300,empathy_intonation_perc,2024.2.4,Win32,60.24096386,636ac3f10d9f3b6a0eb54eeb,689ed6d1281858f68c932c05,689f405740fec32ea728e72b,,,,,,,,,,,,,73,0,,./stim/wavs/castilian_mismatch_declarative-broad-focus_Mi-tia-odia-la-lluvia.wav,,,,,,,,,,,,,,,,,,,,,,579.6676,582.2354,1,0,2.0402,,0,23,23,72,1,0,castilian,,,,,,,,,,,,,,,,,,,,,,,,,,,,,,,,,,,,,,,,,,,,,,,,,,,,,,,,
,,,,,,,,,636ac3f10d9f3b6a0eb54eeb,Spanish,13 or older,"no, only English or Spanish",no,2025-08-15_09h23.54.300,empathy_intonation_perc,2024.2.4,Win32,60.24096386,636ac3f10d9f3b6a0eb54eeb,689ed6d1281858f68c932c05,689f405740fec32ea728e72b,,,,,,,,,,,,,38,1,,./stim/wavs/mexican_mismatch_interrogative-total-yn_Mi-novio-viene-del-lago.wav,,,,,,,,,,,,,,,,,,,,,,582.2367,584.7842,1,1,2.0203,,0,24,24,37,1,0,mexican,,,,,,,,,,,,,,,,,,,,,,,,,,,,,,,,,,,,,,,,,,,,,,,,,,,,,,,,
,,,,,,,,,636ac3f10d9f3b6a0eb54eeb,Spanish,13 or older,"no, only English or Spanish",no,2025-08-15_09h23.54.300,empathy_intonation_perc,2024.2.4,Win32,60.24096386,636ac3f10d9f3b6a0eb54eeb,689ed6d1281858f68c932c05,689f405740fec32ea728e72b,,,,,,,,,,,,,44,1,,./stim/wavs/puertorican_mismatch_interrogative-total-yn_Mi-madre-come-la-fruta.wav,,,,,,,,,,,,,,,,,,,,,,584.7863,587.4974,1,1,2.1889,,0,25,25,43,1,1,puertorican,,,,,,,,,,,,,,,,,,,,,,,,,,,,,,,,,,,,,,,,,,,,,,,,,,,,,,,,
,,,,,,,,,636ac3f10d9f3b6a0eb54eeb,Spanish,13 or older,"no, only English or Spanish",no,2025-08-15_09h23.54.300,empathy_intonation_perc,2024.2.4,Win32,60.24096386,636ac3f10d9f3b6a0eb54eeb,689ed6d1281858f68c932c05,689f405740fec32ea728e72b,,,,,,,,,,,,,48,0,,./stim/wavs/castilian_match_declarative-broad-focus_Maria-bebe-el-vino.wav,,,,,,,,,,,,,,,,,,,,,,587.4982,590.0175,1,0,2.0012,,0,26,26,47,1,0,castilian,,,,,,,,,,,,,,,,,,,,,,,,,,,,,,,,,,,,,,,,,,,,,,,,,,,,,,,,
,,,,,,,,,636ac3f10d9f3b6a0eb54eeb,Spanish,13 or older,"no, only English or Spanish",no,2025-08-15_09h23.54.300,empathy_intonation_perc,2024.2.4,Win32,60.24096386,636ac3f10d9f3b6a0eb54eeb,689ed6d1281858f68c932c05,689f405740fec32ea728e72b,,,,,,,,,,,,,77,0,,./stim/wavs/cuban_mismatch_declarative-broad-focus_Mi-novio-viene-del-lago.wav,,,,,,,,,,,,,,,,,,,,,,590.0184,592.4734,1,0,1.9343,,0,27,27,76,1,0,cuban,,,,,,,,,,,,,,,,,,,,,,,,,,,,,,,,,,,,,,,,,,,,,,,,,,,,,,,,
,,,,,,,,,636ac3f10d9f3b6a0eb54eeb,Spanish,13 or older,"no, only English or Spanish",no,2025-08-15_09h23.54.300,empathy_intonation_perc,2024.2.4,Win32,60.24096386,636ac3f10d9f3b6a0eb54eeb,689ed6d1281858f68c932c05,689f405740fec32ea728e72b,,,,,,,,,,,,,72,0,,./stim/wavs/castilian_mismatch_declarative-broad-focus_Mi-novio-viene-del-lago.wav,,,,,,,,,,,,,,,,,,,,,,592.4747,595.7284,1,0,2.7179,,0,28,28,71,1,0,castilian,,,,,,,,,,,,,,,,,,,,,,,,,,,,,,,,,,,,,,,,,,,,,,,,,,,,,,,,
,,,,,,,,,636ac3f10d9f3b6a0eb54eeb,Spanish,13 or older,"no, only English or Spanish",no,2025-08-15_09h23.54.300,empathy_intonation_perc,2024.2.4,Win32,60.24096386,636ac3f10d9f3b6a0eb54eeb,689ed6d1281858f68c932c05,689f405740fec32ea728e72b,,,,,,,,,,,,,9,1,,./stim/wavs/cuban_match_interrogative-total-yn_Manuela-vende-el-carro.wav,,,,,,,,,,,,,,,,,,,,,,595.7295,598.8974,0,0,2.6498,,0,29,29,8,1,1,cuban,,,,,,,,,,,,,,,,,,,,,,,,,,,,,,,,,,,,,,,,,,,,,,,,,,,,,,,,
,,,,,,,,,636ac3f10d9f3b6a0eb54eeb,Spanish,13 or older,"no, only English or Spanish",no,2025-08-15_09h23.54.300,empathy_intonation_perc,2024.2.4,Win32,60.24096386,636ac3f10d9f3b6a0eb54eeb,689ed6d1281858f68c932c05,689f405740fec32ea728e72b,,,,,,,,,,,,,76,0,,./stim/wavs/cuban_mismatch_declarative-broad-focus_La-nina-lava-el-plato.wav,,,,,,,,,,,,,,,,,,,,,,598.8981,601.6016,0,1,2.1793,,0,30,30,75,1,0,cuban,,,,,,,,,,,,,,,,,,,,,,,,,,,,,,,,,,,,,,,,,,,,,,,,,,,,,,,,
,,,,,,,,,636ac3f10d9f3b6a0eb54eeb,Spanish,13 or older,"no, only English or Spanish",no,2025-08-15_09h23.54.300,empathy_intonation_perc,2024.2.4,Win32,60.24096386,636ac3f10d9f3b6a0eb54eeb,689ed6d1281858f68c932c05,689f405740fec32ea728e72b,,,,,,,,,,,,,39,1,,./stim/wavs/mexican_mismatch_interrogative-total-yn_Mi-tia-odia-la-lluvia.wav,,,,,,,,,,,,,,,,,,,,,,601.6028,604.3383,1,1,2.2007,,0,31,31,38,1,0,mexican,,,,,,,,,,,,,,,,,,,,,,,,,,,,,,,,,,,,,,,,,,,,,,,,,,,,,,,,
,,,,,,,,,636ac3f10d9f3b6a0eb54eeb,Spanish,13 or older,"no, only English or Spanish",no,2025-08-15_09h23.54.300,empathy_intonation_perc,2024.2.4,Win32,60.24096386,636ac3f10d9f3b6a0eb54eeb,689ed6d1281858f68c932c05,689f405740fec32ea728e72b,,,,,,,,,,,,,21,1,,./stim/wavs/puertorican_match_interrogative-total-yn_David-leia-el-libro.wav,,,,,,,,,,,,,,,,,,,,,,604.3392,607.1865,1,1,2.3179,,0,32,32,20,1,1,puertorican,,,,,,,,,,,,,,,,,,,,,,,,,,,,,,,,,,,,,,,,,,,,,,,,,,,,,,,,
,,,,,,,,,636ac3f10d9f3b6a0eb54eeb,Spanish,13 or older,"no, only English or Spanish",no,2025-08-15_09h23.54.300,empathy_intonation_perc,2024.2.4,Win32,60.24096386,636ac3f10d9f3b6a0eb54eeb,689ed6d1281858f68c932c05,689f405740fec32ea728e72b,,,,,,,,,,,,,71,0,,./stim/wavs/castilian_mismatch_declarative-broad-focus_La-nina-lava-el-plato.wav,,,,,,,,,,,,,,,,,,,,,,607.1877,610.0572,1,0,2.3542,,0,33,33,70,1,0,castilian,,,,,,,,,,,,,,,,,,,,,,,,,,,,,,,,,,,,,,,,,,,,,,,,,,,,,,,,
,,,,,,,,,636ac3f10d9f3b6a0eb54eeb,Spanish,13 or older,"no, only English or Spanish",no,2025-08-15_09h23.54.300,empathy_intonation_perc,2024.2.4,Win32,60.24096386,636ac3f10d9f3b6a0eb54eeb,689ed6d1281858f68c932c05,689f405740fec32ea728e72b,,,,,,,,,,,,,78,0,,./stim/wavs/cuban_mismatch_declarative-broad-focus_Mi-tia-odia-la-lluvia.wav,,,,,,,,,,,,,,,,,,,,,,610.0585,612.6353,0,1,2.0504,,0,34,34,77,1,0,cuban,,,,,,,,,,,,,,,,,,,,,,,,,,,,,,,,,,,,,,,,,,,,,,,,,,,,,,,,
,,,,,,,,,636ac3f10d9f3b6a0eb54eeb,Spanish,13 or older,"no, only English or Spanish",no,2025-08-15_09h23.54.300,empathy_intonation_perc,2024.2.4,Win32,60.24096386,636ac3f10d9f3b6a0eb54eeb,689ed6d1281858f68c932c05,689f405740fec32ea728e72b,,,,,,,,,,,,,30,1,,./stim/wavs/cuban_mismatch_interrogative-total-yn_El-hombre-mira-la-luna.wav,,,,,,,,,,,,,,,,,,,,,,612.6372,614.6051,1,1,1.4394,,0,35,35,29,1,1,cuban,,,,,,,,,,,,,,,,,,,,,,,,,,,,,,,,,,,,,,,,,,,,,,,,,,,,,,,,
,,,,,,,,,636ac3f10d9f3b6a0eb54eeb,Spanish,13 or older,"no, only English or Spanish",no,2025-08-15_09h23.54.300,empathy_intonation_perc,2024.2.4,Win32,60.24096386,636ac3f10d9f3b6a0eb54eeb,689ed6d1281858f68c932c05,689f405740fec32ea728e72b,,,,,,,,,,,,,41,1,,./stim/wavs/puertorican_mismatch_interrogative-total-yn_El-nino-oye-el-rio.wav,,,,,,,,,,,,,,,,,,,,,,614.6062,617.538,0,0,2.4044,,0,36,36,40,1,1,puertorican,,,,,,,,,,,,,,,,,,,,,,,,,,,,,,,,,,,,,,,,,,,,,,,,,,,,,,,,
,,,,,,,,,636ac3f10d9f3b6a0eb54eeb,Spanish,13 or older,"no, only English or Spanish",no,2025-08-15_09h23.54.300,empathy_intonation_perc,2024.2.4,Win32,60.24096386,636ac3f10d9f3b6a0eb54eeb,689ed6d1281858f68c932c05,689f405740fec32ea728e72b,,,,,,,,,,,,,26,1,,./stim/wavs/castilian_mismatch_interrogative-total-yn_La-nina-lava-el-plato.wav,,,,,,,,,,,,,,,,,,,,,,617.5388,620.2407,0,0,2.1689,,0,37,37,25,1,0,castilian,,,,,,,,,,,,,,,,,,,,,,,,,,,,,,,,,,,,,,,,,,,,,,,,,,,,,,,,
,,,,,,,,,636ac3f10d9f3b6a0eb54eeb,Spanish,13 or older,"no, only English or Spanish",no,2025-08-15_09h23.54.300,empathy_intonation_perc,2024.2.4,Win32,60.24096386,636ac3f10d9f3b6a0eb54eeb,689ed6d1281858f68c932c05,689f405740fec32ea728e72b,,,,,,,,,,,,,64,0,,./stim/wavs/puertorican_match_declarative-broad-focus_Daniel-iba-a-Bolivia.wav,,,,,,,,,,,,,,,,,,,,,,620.2423,623.0432,1,0,2.2783,,0,38,38,63,1,0,puertorican,,,,,,,,,,,,,,,,,,,,,,,,,,,,,,,,,,,,,,,,,,,,,,,,,,,,,,,,
,,,,,,,,,636ac3f10d9f3b6a0eb54eeb,Spanish,13 or older,"no, only English or Spanish",no,2025-08-15_09h23.54.300,empathy_intonation_perc,2024.2.4,Win32,60.24096386,636ac3f10d9f3b6a0eb54eeb,689ed6d1281858f68c932c05,689f405740fec32ea728e72b,,,,,,,,,,,,,8,1,,./stim/wavs/cuban_match_interrogative-total-yn_Daniel-iba-a-Bolivia.wav,,,,,,,,,,,,,,,,,,,,,,623.0447,626.2434,1,1,2.6686,,0,39,39,7,1,1,cuban,,,,,,,,,,,,,,,,,,,,,,,,,,,,,,,,,,,,,,,,,,,,,,,,,,,,,,,,
,,,,,,,,,636ac3f10d9f3b6a0eb54eeb,Spanish,13 or older,"no, only English or Spanish",no,2025-08-15_09h23.54.300,empathy_intonation_perc,2024.2.4,Win32,60.24096386,636ac3f10d9f3b6a0eb54eeb,689ed6d1281858f68c932c05,689f405740fec32ea728e72b,,,,,,,,,,,,,49,0,,./stim/wavs/castilian_match_declarative-broad-focus_Mariano-habla-del-tiempo.wav,,,,,,,,,,,,,,,,,,,,,,626.2445,630.1313,0,1,3.3511,,0,40,40,48,1,0,castilian,,,,,,,,,,,,,,,,,,,,,,,,,,,,,,,,,,,,,,,,,,,,,,,,,,,,,,,,
,,,,,,,,,636ac3f10d9f3b6a0eb54eeb,Spanish,13 or older,"no, only English or Spanish",no,2025-08-15_09h23.54.300,empathy_intonation_perc,2024.2.4,Win32,60.24096386,636ac3f10d9f3b6a0eb54eeb,689ed6d1281858f68c932c05,689f405740fec32ea728e72b,,,,,,,,,,,,,5,1,,./stim/wavs/castilian_match_interrogative-total-yn_Mariano-habla-del-tiempo.wav,,,,,,,,,,,,,,,,,,,,,,630.1321,632.8322,1,1,2.1716,,0,41,41,4,1,0,castilian,,,,,,,,,,,,,,,,,,,,,,,,,,,,,,,,,,,,,,,,,,,,,,,,,,,,,,,,
,,,,,,,,,636ac3f10d9f3b6a0eb54eeb,Spanish,13 or older,"no, only English or Spanish",no,2025-08-15_09h23.54.300,empathy_intonation_perc,2024.2.4,Win32,60.24096386,636ac3f10d9f3b6a0eb54eeb,689ed6d1281858f68c932c05,689f405740fec32ea728e72b,,,,,,,,,,,,,87,0,,./stim/wavs/puertorican_mismatch_declarative-broad-focus_La-maestra-vive-en-Paris.wav,,,,,,,,,,,,,,,,,,,,,,632.8339,636.546,0,1,3.1816,,0,42,42,86,1,0,puertorican,,,,,,,,,,,,,,,,,,,,,,,,,,,,,,,,,,,,,,,,,,,,,,,,,,,,,,,,
,,,,,,,,,636ac3f10d9f3b6a0eb54eeb,Spanish,13 or older,"no, only English or Spanish",no,2025-08-15_09h23.54.300,empathy_intonation_perc,2024.2.4,Win32,60.24096386,636ac3f10d9f3b6a0eb54eeb,689ed6d1281858f68c932c05,689f405740fec32ea728e72b,,,,,,,,,,,,,20,1,,./stim/wavs/puertorican_match_interrogative-total-yn_Daniel-iba-a-Bolivia.wav,,,,,,,,,,,,,,,,,,,,,,636.5475,638.7819,1,1,1.7038,,0,43,43,19,1,1,puertorican,,,,,,,,,,,,,,,,,,,,,,,,,,,,,,,,,,,,,,,,,,,,,,,,,,,,,,,,
,,,,,,,,,636ac3f10d9f3b6a0eb54eeb,Spanish,13 or older,"no, only English or Spanish",no,2025-08-15_09h23.54.300,empathy_intonation_perc,2024.2.4,Win32,60.24096386,636ac3f10d9f3b6a0eb54eeb,689ed6d1281858f68c932c05,689f405740fec32ea728e72b,,,,,,,,,,,,,19,1,,./stim/wavs/puertorican_match_interrogative-total-yn_Ana-lleva-el-abrigo.wav,,,,,,,,,,,,,,,,,,,,,,638.7829,641.3728,1,1,2.0641,,0,44,44,18,1,1,puertorican,,,,,,,,,,,,,,,,,,,,,,,,,,,,,,,,,,,,,,,,,,,,,,,,,,,,,,,,
,,,,,,,,,636ac3f10d9f3b6a0eb54eeb,Spanish,13 or older,"no, only English or Spanish",no,2025-08-15_09h23.54.300,empathy_intonation_perc,2024.2.4,Win32,60.24096386,636ac3f10d9f3b6a0eb54eeb,689ed6d1281858f68c932c05,689f405740fec32ea728e72b,,,,,,,,,,,,,14,1,,./stim/wavs/mexican_match_interrogative-total-yn_Daniel-iba-a-Bolivia.wav,,,,,,,,,,,,,,,,,,,,,,641.3739,644.4648,1,1,2.566,,0,45,45,13,1,0,mexican,,,,,,,,,,,,,,,,,,,,,,,,,,,,,,,,,,,,,,,,,,,,,,,,,,,,,,,,
,,,,,,,,,636ac3f10d9f3b6a0eb54eeb,Spanish,13 or older,"no, only English or Spanish",no,2025-08-15_09h23.54.300,empathy_intonation_perc,2024.2.4,Win32,60.24096386,636ac3f10d9f3b6a0eb54eeb,689ed6d1281858f68c932c05,689f405740fec32ea728e72b,,,,,,,,,,,,,74,0,,./stim/wavs/cuban_mismatch_declarative-broad-focus_El-bebe-comia-muy-bien.wav,,,,,,,,,,,,,,,,,,,,,,644.4664,646.898,1,0,1.8997,,0,46,46,73,1,0,cuban,,,,,,,,,,,,,,,,,,,,,,,,,,,,,,,,,,,,,,,,,,,,,,,,,,,,,,,,
,,,,,,,,,636ac3f10d9f3b6a0eb54eeb,Spanish,13 or older,"no, only English or Spanish",no,2025-08-15_09h23.54.300,empathy_intonation_perc,2024.2.4,Win32,60.24096386,636ac3f10d9f3b6a0eb54eeb,689ed6d1281858f68c932c05,689f405740fec32ea728e72b,,,,,,,,,,,,,65,0,,./stim/wavs/puertorican_match_declarative-broad-focus_David-leia-el-libro.wav,,,,,,,,,,,,,,,,,,,,,,646.8989,649.9662,1,0,2.5422,,0,47,47,64,1,0,puertorican,,,,,,,,,,,,,,,,,,,,,,,,,,,,,,,,,,,,,,,,,,,,,,,,,,,,,,,,
,,,,,,,,,636ac3f10d9f3b6a0eb54eeb,Spanish,13 or older,"no, only English or Spanish",no,2025-08-15_09h23.54.300,empathy_intonation_perc,2024.2.4,Win32,60.24096386,636ac3f10d9f3b6a0eb54eeb,689ed6d1281858f68c932c05,689f405740fec32ea728e72b,,,,,,,,,,,,,6,1,,./stim/wavs/castilian_match_interrogative-total-yn_Marta-abre-el-regalo.wav,,,,,,,,,,,,,,,,,,,,,,649.968,652.4783,1,1,1.986,,0,48,48,5,1,0,castilian,,,,,,,,,,,,,,,,,,,,,,,,,,,,,,,,,,,,,,,,,,,,,,,,,,,,,,,,
,,,,,,,,,636ac3f10d9f3b6a0eb54eeb,Spanish,13 or older,"no, only English or Spanish",no,2025-08-15_09h23.54.300,empathy_intonation_perc,2024.2.4,Win32,60.24096386,636ac3f10d9f3b6a0eb54eeb,689ed6d1281858f68c932c05,689f405740fec32ea728e72b,,,,,,,,,,,,,32,1,,./stim/wavs/cuban_mismatch_interrogative-total-yn_Mi-madre-come-la-fruta.wav,,,,,,,,,,,,,,,,,,,,,,652.4792,655.4818,1,1,2.4838,,0,49,49,31,1,1,cuban,,,,,,,,,,,,,,,,,,,,,,,,,,,,,,,,,,,,,,,,,,,,,,,,,,,,,,,,
,,,,,,,,,636ac3f10d9f3b6a0eb54eeb,Spanish,13 or older,"no, only English or Spanish",no,2025-08-15_09h23.54.300,empathy_intonation_perc,2024.2.4,Win32,60.24096386,636ac3f10d9f3b6a0eb54eeb,689ed6d1281858f68c932c05,689f405740fec32ea728e72b,,,,,,,,,,,,,25,1,,./stim/wavs/castilian_mismatch_interrogative-total-yn_La-maestra-vive-en-Paris.wav,,,,,,,,,,,,,,,,,,,,,,655.4831,658.6159,1,1,2.6064,,0,50,50,24,1,0,castilian,,,,,,,,,,,,,,,,,,,,,,,,,,,,,,,,,,,,,,,,,,,,,,,,,,,,,,,,
,,,,,,,,,636ac3f10d9f3b6a0eb54eeb,Spanish,13 or older,"no, only English or Spanish",no,2025-08-15_09h23.54.300,empathy_intonation_perc,2024.2.4,Win32,60.24096386,636ac3f10d9f3b6a0eb54eeb,689ed6d1281858f68c932c05,689f405740fec32ea728e72b,,,,,,,,,,,,,82,0,,./stim/wavs/mexican_mismatch_declarative-broad-focus_Mi-novio-viene-del-lago.wav,,,,,,,,,,,,,,,,,,,,,,658.6166,660.8926,1,0,1.7473,,0,51,51,81,1,0,mexican,,,,,,,,,,,,,,,,,,,,,,,,,,,,,,,,,,,,,,,,,,,,,,,,,,,,,,,,
,,,,,,,,,636ac3f10d9f3b6a0eb54eeb,Spanish,13 or older,"no, only English or Spanish",no,2025-08-15_09h23.54.300,empathy_intonation_perc,2024.2.4,Win32,60.24096386,636ac3f10d9f3b6a0eb54eeb,689ed6d1281858f68c932c05,689f405740fec32ea728e72b,,,,,,,,,,,,,60,0,,./stim/wavs/mexican_match_declarative-broad-focus_Emilio-ama-la-marcha.wav,,,,,,,,,,,,,,,,,,,,,,660.8938,663.1826,1,0,1.7537,,0,52,52,59,1,0,mexican,,,,,,,,,,,,,,,,,,,,,,,,,,,,,,,,,,,,,,,,,,,,,,,,,,,,,,,,
,,,,,,,,,636ac3f10d9f3b6a0eb54eeb,Spanish,13 or older,"no, only English or Spanish",no,2025-08-15_09h23.54.300,empathy_intonation_perc,2024.2.4,Win32,60.24096386,636ac3f10d9f3b6a0eb54eeb,689ed6d1281858f68c932c05,689f405740fec32ea728e72b,,,,,,,,,,,,,52,0,,./stim/wavs/cuban_match_declarative-broad-focus_Daniel-iba-a-Bolivia.wav,,,,,,,,,,,,,,,,,,,,,,663.184,666.2822,0,1,2.5724,,0,53,53,51,1,0,cuban,,,,,,,,,,,,,,,,,,,,,,,,,,,,,,,,,,,,,,,,,,,,,,,,,,,,,,,,
,,,,,,,,,636ac3f10d9f3b6a0eb54eeb,Spanish,13 or older,"no, only English or Spanish",no,2025-08-15_09h23.54.300,empathy_intonation_perc,2024.2.4,Win32,60.24096386,636ac3f10d9f3b6a0eb54eeb,689ed6d1281858f68c932c05,689f405740fec32ea728e72b,,,,,,,,,,,,,40,1,,./stim/wavs/puertorican_mismatch_interrogative-total-yn_El-hombre-mira-la-luna.wav,,,,,,,,,,,,,,,,,,,,,,666.2833,669.1292,1,1,2.3205,,0,54,54,39,1,1,puertorican,,,,,,,,,,,,,,,,,,,,,,,,,,,,,,,,,,,,,,,,,,,,,,,,,,,,,,,,
,,,,,,,,,636ac3f10d9f3b6a0eb54eeb,Spanish,13 or older,"no, only English or Spanish",no,2025-08-15_09h23.54.300,empathy_intonation_perc,2024.2.4,Win32,60.24096386,636ac3f10d9f3b6a0eb54eeb,689ed6d1281858f68c932c05,689f405740fec32ea728e72b,,,,,,,,,,,,,28,1,,./stim/wavs/castilian_mismatch_interrogative-total-yn_Mi-novio-viene-del-lago.wav,,,,,,,,,,,,,,,,,,,,,,669.1307,671.8986,1,1,2.2345,,0,55,55,27,1,0,castilian,,,,,,,,,,,,,,,,,,,,,,,,,,,,,,,,,,,,,,,,,,,,,,,,,,,,,,,,
,,,,,,,,,636ac3f10d9f3b6a0eb54eeb,Spanish,13 or older,"no, only English or Spanish",no,2025-08-15_09h23.54.300,empathy_intonation_perc,2024.2.4,Win32,60.24096386,636ac3f10d9f3b6a0eb54eeb,689ed6d1281858f68c932c05,689f405740fec32ea728e72b,,,,,,,,,,,,,86,0,,./stim/wavs/puertorican_mismatch_declarative-broad-focus_El-nino-oye-el-rio.wav,,,,,,,,,,,,,,,,,,,,,,671.8996,674.7241,0,1,2.293,,0,56,56,85,1,0,puertorican,,,,,,,,,,,,,,,,,,,,,,,,,,,,,,,,,,,,,,,,,,,,,,,,,,,,,,,,
,,,,,,,,,636ac3f10d9f3b6a0eb54eeb,Spanish,13 or older,"no, only English or Spanish",no,2025-08-15_09h23.54.300,empathy_intonation_perc,2024.2.4,Win32,60.24096386,636ac3f10d9f3b6a0eb54eeb,689ed6d1281858f68c932c05,689f405740fec32ea728e72b,,,,,,,,,,,,,22,1,,./stim/wavs/puertorican_match_interrogative-total-yn_Emilio-ama-la-marcha.wav,,,,,,,,,,,,,,,,,,,,,,674.7253,677.1982,1,1,1.9552,,0,57,57,21,1,1,puertorican,,,,,,,,,,,,,,,,,,,,,,,,,,,,,,,,,,,,,,,,,,,,,,,,,,,,,,,,
,,,,,,,,,636ac3f10d9f3b6a0eb54eeb,Spanish,13 or older,"no, only English or Spanish",no,2025-08-15_09h23.54.300,empathy_intonation_perc,2024.2.4,Win32,60.24096386,636ac3f10d9f3b6a0eb54eeb,689ed6d1281858f68c932c05,689f405740fec32ea728e72b,,,,,,,,,,,,,85,0,,./stim/wavs/puertorican_mismatch_declarative-broad-focus_El-hombre-mira-la-luna.wav,,,,,,,,,,,,,,,,,,,,,,677.1994,679.8113,1,0,2.0802,,0,58,58,84,1,0,puertorican,,,,,,,,,,,,,,,,,,,,,,,,,,,,,,,,,,,,,,,,,,,,,,,,,,,,,,,,
,,,,,,,,,636ac3f10d9f3b6a0eb54eeb,Spanish,13 or older,"no, only English or Spanish",no,2025-08-15_09h23.54.300,empathy_intonation_perc,2024.2.4,Win32,60.24096386,636ac3f10d9f3b6a0eb54eeb,689ed6d1281858f68c932c05,689f405740fec32ea728e72b,,,,,,,,,,,,,34,1,,./stim/wavs/cuban_mismatch_interrogative-total-yn_Mi-tia-odia-la-lluvia.wav,,,,,,,,,,,,,,,,,,,,,,679.8128,682.2495,1,1,1.9163,,0,59,59,33,1,1,cuban,,,,,,,,,,,,,,,,,,,,,,,,,,,,,,,,,,,,,,,,,,,,,,,,,,,,,,,,
,,,,,,,,,636ac3f10d9f3b6a0eb54eeb,Spanish,13 or older,"no, only English or Spanish",no,2025-08-15_09h23.54.300,empathy_intonation_perc,2024.2.4,Win32,60.24096386,636ac3f10d9f3b6a0eb54eeb,689ed6d1281858f68c932c05,689f405740fec32ea728e72b,,,,,,,,,,,,,55,0,,./stim/wavs/cuban_match_declarative-broad-focus_Mariano-habla-del-tiempo.wav,,,,,,,,,,,,,,,,,,,,,,682.2511,684.3484,0,1,1.5764,,0,60,60,54,1,0,cuban,,,,,,,,,,,,,,,,,,,,,,,,,,,,,,,,,,,,,,,,,,,,,,,,,,,,,,,,
,,,,,,,,,636ac3f10d9f3b6a0eb54eeb,Spanish,13 or older,"no, only English or Spanish",no,2025-08-15_09h23.54.300,empathy_intonation_perc,2024.2.4,Win32,60.24096386,636ac3f10d9f3b6a0eb54eeb,689ed6d1281858f68c932c05,689f405740fec32ea728e72b,,,,,,,,,,,,,45,0,,./stim/wavs/castilian_match_declarative-broad-focus_David-leia-el-libro.wav,,,,,,,,,,,,,,,,,,,,,,684.3492,686.7488,1,0,1.8687,,0,61,61,44,1,0,castilian,,,,,,,,,,,,,,,,,,,,,,,,,,,,,,,,,,,,,,,,,,,,,,,,,,,,,,,,
,,,,,,,,,636ac3f10d9f3b6a0eb54eeb,Spanish,13 or older,"no, only English or Spanish",no,2025-08-15_09h23.54.300,empathy_intonation_perc,2024.2.4,Win32,60.24096386,636ac3f10d9f3b6a0eb54eeb,689ed6d1281858f68c932c05,689f405740fec32ea728e72b,,,,,,,,,,,,,24,1,,./stim/wavs/puertorican_match_interrogative-total-yn_Maria-bebe-el-vino.wav,,,,,,,,,,,,,,,,,,,,,,686.7499,689.132,1,1,1.8512,,0,62,62,23,1,1,puertorican,,,,,,,,,,,,,,,,,,,,,,,,,,,,,,,,,,,,,,,,,,,,,,,,,,,,,,,,
,,,,,,,,,636ac3f10d9f3b6a0eb54eeb,Spanish,13 or older,"no, only English or Spanish",no,2025-08-15_09h23.54.300,empathy_intonation_perc,2024.2.4,Win32,60.24096386,636ac3f10d9f3b6a0eb54eeb,689ed6d1281858f68c932c05,689f405740fec32ea728e72b,,,,,,,,,,,,,84,0,,./stim/wavs/puertorican_mismatch_declarative-broad-focus_El-bebe-comia-muy-bien.wav,,,,,,,,,,,,,,,,,,,,,,689.1334,691.4166,1,0,1.7516,,0,63,63,83,1,0,puertorican,,,,,,,,,,,,,,,,,,,,,,,,,,,,,,,,,,,,,,,,,,,,,,,,,,,,,,,,
,,,,,,,,,636ac3f10d9f3b6a0eb54eeb,Spanish,13 or older,"no, only English or Spanish",no,2025-08-15_09h23.54.300,empathy_intonation_perc,2024.2.4,Win32,60.24096386,636ac3f10d9f3b6a0eb54eeb,689ed6d1281858f68c932c05,689f405740fec32ea728e72b,,,,,,,,,,,,,23,1,,./stim/wavs/puertorican_match_interrogative-total-yn_Manuela-vende-el-carro.wav,,,,,,,,,,,,,,,,,,,,,,691.4177,693.7781,1,1,1.83,,0,64,64,22,1,1,puertorican,,,,,,,,,,,,,,,,,,,,,,,,,,,,,,,,,,,,,,,,,,,,,,,,,,,,,,,,
,,,,,,,,,636ac3f10d9f3b6a0eb54eeb,Spanish,13 or older,"no, only English or Spanish",no,2025-08-15_09h23.54.300,empathy_intonation_perc,2024.2.4,Win32,60.24096386,636ac3f10d9f3b6a0eb54eeb,689ed6d1281858f68c932c05,689f405740fec32ea728e72b,,,,,,,,,,,,,16,1,,./stim/wavs/mexican_match_interrogative-total-yn_Emilio-ama-la-marcha.wav,,,,,,,,,,,,,,,,,,,,,,693.7802,696.2679,0,0,1.9521,,0,65,65,15,1,0,mexican,,,,,,,,,,,,,,,,,,,,,,,,,,,,,,,,,,,,,,,,,,,,,,,,,,,,,,,,
,,,,,,,,,636ac3f10d9f3b6a0eb54eeb,Spanish,13 or older,"no, only English or Spanish",no,2025-08-15_09h23.54.300,empathy_intonation_perc,2024.2.4,Win32,60.24096386,636ac3f10d9f3b6a0eb54eeb,689ed6d1281858f68c932c05,689f405740fec32ea728e72b,,,,,,,,,,,,,15,1,,./stim/wavs/mexican_match_interrogative-total-yn_David-leia-el-libro.wav,,,,,,,,,,,,,,,,,,,,,,696.2689,699.0167,1,1,2.2174,,0,66,66,14,1,0,mexican,,,,,,,,,,,,,,,,,,,,,,,,,,,,,,,,,,,,,,,,,,,,,,,,,,,,,,,,
,,,,,,,,,636ac3f10d9f3b6a0eb54eeb,Spanish,13 or older,"no, only English or Spanish",no,2025-08-15_09h23.54.300,empathy_intonation_perc,2024.2.4,Win32,60.24096386,636ac3f10d9f3b6a0eb54eeb,689ed6d1281858f68c932c05,689f405740fec32ea728e72b,,,,,,,,,,,,,33,1,,./stim/wavs/cuban_mismatch_interrogative-total-yn_Mi-novio-viene-del-lago.wav,,,,,,,,,,,,,,,,,,,,,,699.018,701.6627,0,0,2.1147,,0,67,67,32,1,1,cuban,,,,,,,,,,,,,,,,,,,,,,,,,,,,,,,,,,,,,,,,,,,,,,,,,,,,,,,,
,,,,,,,,,636ac3f10d9f3b6a0eb54eeb,Spanish,13 or older,"no, only English or Spanish",no,2025-08-15_09h23.54.300,empathy_intonation_perc,2024.2.4,Win32,60.24096386,636ac3f10d9f3b6a0eb54eeb,689ed6d1281858f68c932c05,689f405740fec32ea728e72b,,,,,,,,,,,,,50,0,,./stim/wavs/castilian_match_declarative-broad-focus_Marta-abre-el-regalo.wav,,,,,,,,,,,,,,,,,,,,,,701.6638,704.2992,1,0,2.1174,,0,68,68,49,1,0,castilian,,,,,,,,,,,,,,,,,,,,,,,,,,,,,,,,,,,,,,,,,,,,,,,,,,,,,,,,
,,,,,,,,,636ac3f10d9f3b6a0eb54eeb,Spanish,13 or older,"no, only English or Spanish",no,2025-08-15_09h23.54.300,empathy_intonation_perc,2024.2.4,Win32,60.24096386,636ac3f10d9f3b6a0eb54eeb,689ed6d1281858f68c932c05,689f405740fec32ea728e72b,,,,,,,,,,,,,2,1,,./stim/wavs/castilian_match_interrogative-total-yn_Emilio-ama-la-marcha.wav,,,,,,,,,,,,,,,,,,,,,,704.3008,705.85,0,0,1.0248,,0,69,69,1,1,0,castilian,,,,,,,,,,,,,,,,,,,,,,,,,,,,,,,,,,,,,,,,,,,,,,,,,,,,,,,,
,,,,,,,,,636ac3f10d9f3b6a0eb54eeb,Spanish,13 or older,"no, only English or Spanish",no,2025-08-15_09h23.54.300,empathy_intonation_perc,2024.2.4,Win32,60.24096386,636ac3f10d9f3b6a0eb54eeb,689ed6d1281858f68c932c05,689f405740fec32ea728e72b,,,,,,,,,,,,,7,1,,./stim/wavs/cuban_match_interrogative-total-yn_Ana-lleva-el-abrigo.wav,,,,,,,,,,,,,,,,,,,,,,705.8517,707.6805,1,1,1.2986,,0,70,70,6,1,1,cuban,,,,,,,,,,,,,,,,,,,,,,,,,,,,,,,,,,,,,,,,,,,,,,,,,,,,,,,,
,,,,,,,,,636ac3f10d9f3b6a0eb54eeb,Spanish,13 or older,"no, only English or Spanish",no,2025-08-15_09h23.54.300,empathy_intonation_perc,2024.2.4,Win32,60.24096386,636ac3f10d9f3b6a0eb54eeb,689ed6d1281858f68c932c05,689f405740fec32ea728e72b,,,,,,,,,,,,,70,0,,./stim/wavs/castilian_mismatch_declarative-broad-focus_La-maestra-vive-en-Paris.wav,,,,,,,,,,,,,,,,,,,,,,707.6818,710.7852,1,0,2.5726,,0,71,71,69,1,0,castilian,,,,,,,,,,,,,,,,,,,,,,,,,,,,,,,,,,,,,,,,,,,,,,,,,,,,,,,,
,,,,,,,,,636ac3f10d9f3b6a0eb54eeb,Spanish,13 or older,"no, only English or Spanish",no,2025-08-15_09h23.54.300,empathy_intonation_perc,2024.2.4,Win32,60.24096386,636ac3f10d9f3b6a0eb54eeb,689ed6d1281858f68c932c05,689f405740fec32ea728e72b,,,,,,,,,,,,,11,1,,./stim/wavs/cuban_match_interrogative-total-yn_Mariano-habla-del-tiempo.wav,,,,,,,,,,,,,,,,,,,,,,710.7871,713.3305,1,1,2.0221,,0,72,72,10,1,1,cuban,,,,,,,,,,,,,,,,,,,,,,,,,,,,,,,,,,,,,,,,,,,,,,,,,,,,,,,,
,,,,,,,,,636ac3f10d9f3b6a0eb54eeb,Spanish,13 or older,"no, only English or Spanish",no,2025-08-15_09h23.54.300,empathy_intonation_perc,2024.2.4,Win32,60.24096386,636ac3f10d9f3b6a0eb54eeb,689ed6d1281858f68c932c05,689f405740fec32ea728e72b,,,,,,,,,,,,,35,1,,./stim/wavs/mexican_mismatch_interrogative-total-yn_El-hombre-mira-la-luna.wav,,,,,,,,,,,,,,,,,,,,,,713.3315,715.6165,1,1,1.7673,,0,73,73,34,1,0,mexican,,,,,,,,,,,,,,,,,,,,,,,,,,,,,,,,,,,,,,,,,,,,,,,,,,,,,,,,
,,,,,,,,,636ac3f10d9f3b6a0eb54eeb,Spanish,13 or older,"no, only English or Spanish",no,2025-08-15_09h23.54.300,empathy_intonation_perc,2024.2.4,Win32,60.24096386,636ac3f10d9f3b6a0eb54eeb,689ed6d1281858f68c932c05,689f405740fec32ea728e72b,,,,,,,,,,,,,66,0,,./stim/wavs/puertorican_match_declarative-broad-focus_Emilio-ama-la-marcha.wav,,,,,,,,,,,,,,,,,,,,,,715.6181,718.0967,1,0,1.9484,,0,74,74,65,1,0,puertorican,,,,,,,,,,,,,,,,,,,,,,,,,,,,,,,,,,,,,,,,,,,,,,,,,,,,,,,,
,,,,,,,,,636ac3f10d9f3b6a0eb54eeb,Spanish,13 or older,"no, only English or Spanish",no,2025-08-15_09h23.54.300,empathy_intonation_perc,2024.2.4,Win32,60.24096386,636ac3f10d9f3b6a0eb54eeb,689ed6d1281858f68c932c05,689f405740fec32ea728e72b,,,,,,,,,,,,,61,0,,./stim/wavs/mexican_match_declarative-broad-focus_Mariano-habla-del-tiempo.wav,,,,,,,,,,,,,,,,,,,,,,718.0983,720.4817,1,0,1.851,,0,75,75,60,1,0,mexican,,,,,,,,,,,,,,,,,,,,,,,,,,,,,,,,,,,,,,,,,,,,,,,,,,,,,,,,
,,,,,,,,,636ac3f10d9f3b6a0eb54eeb,Spanish,13 or older,"no, only English or Spanish",no,2025-08-15_09h23.54.300,empathy_intonation_perc,2024.2.4,Win32,60.24096386,636ac3f10d9f3b6a0eb54eeb,689ed6d1281858f68c932c05,689f405740fec32ea728e72b,,,,,,,,,,,,,59,0,,./stim/wavs/mexican_match_declarative-broad-focus_David-leia-el-libro.wav,,,,,,,,,,,,,,,,,,,,,,720.4833,722.4984,1,0,1.4899,,0,76,76,58,1,0,mexican,,,,,,,,,,,,,,,,,,,,,,,,,,,,,,,,,,,,,,,,,,,,,,,,,,,,,,,,
,,,,,,,,,636ac3f10d9f3b6a0eb54eeb,Spanish,13 or older,"no, only English or Spanish",no,2025-08-15_09h23.54.300,empathy_intonation_perc,2024.2.4,Win32,60.24096386,636ac3f10d9f3b6a0eb54eeb,689ed6d1281858f68c932c05,689f405740fec32ea728e72b,,,,,,,,,,,,,13,1,,./stim/wavs/mexican_match_interrogative-total-yn_Ana-lleva-el-abrigo.wav,,,,,,,,,,,,,,,,,,,,,,722.4995,725.0676,1,1,2.0409,,0,77,77,12,1,0,mexican,,,,,,,,,,,,,,,,,,,,,,,,,,,,,,,,,,,,,,,,,,,,,,,,,,,,,,,,
,,,,,,,,,636ac3f10d9f3b6a0eb54eeb,Spanish,13 or older,"no, only English or Spanish",no,2025-08-15_09h23.54.300,empathy_intonation_perc,2024.2.4,Win32,60.24096386,636ac3f10d9f3b6a0eb54eeb,689ed6d1281858f68c932c05,689f405740fec32ea728e72b,,,,,,,,,,,,,12,1,,./stim/wavs/cuban_match_interrogative-total-yn_Marta-abre-el-regalo.wav,,,,,,,,,,,,,,,,,,,,,,725.0686,728.5491,1,1,2.9538,,0,78,78,11,1,1,cuban,,,,,,,,,,,,,,,,,,,,,,,,,,,,,,,,,,,,,,,,,,,,,,,,,,,,,,,,
,,,,,,,,,636ac3f10d9f3b6a0eb54eeb,Spanish,13 or older,"no, only English or Spanish",no,2025-08-15_09h23.54.300,empathy_intonation_perc,2024.2.4,Win32,60.24096386,636ac3f10d9f3b6a0eb54eeb,689ed6d1281858f68c932c05,689f405740fec32ea728e72b,,,,,,,,,,,,,46,0,,./stim/wavs/castilian_match_declarative-broad-focus_Emilio-ama-la-marcha.wav,,,,,,,,,,,,,,,,,,,,,,728.5501,733.6188,1,0,4.5368,,0,79,79,45,1,0,castilian,,,,,,,,,,,,,,,,,,,,,,,,,,,,,,,,,,,,,,,,,,,,,,,,,,,,,,,,
,,,,,,,,,636ac3f10d9f3b6a0eb54eeb,Spanish,13 or older,"no, only English or Spanish",no,2025-08-15_09h23.54.300,empathy_intonation_perc,2024.2.4,Win32,60.24096386,636ac3f10d9f3b6a0eb54eeb,689ed6d1281858f68c932c05,689f405740fec32ea728e72b,,,,,,,,,,,,,3,1,,./stim/wavs/castilian_match_interrogative-total-yn_Manuela-vende-el-carro.wav,,,,,,,,,,,,,,,,,,,,,,733.6201,736.8469,1,1,2.7046,,0,80,80,2,1,0,castilian,,,,,,,,,,,,,,,,,,,,,,,,,,,,,,,,,,,,,,,,,,,,,,,,,,,,,,,,
,,,,,,,,,636ac3f10d9f3b6a0eb54eeb,Spanish,13 or older,"no, only English or Spanish",no,2025-08-15_09h23.54.300,empathy_intonation_perc,2024.2.4,Win32,60.24096386,636ac3f10d9f3b6a0eb54eeb,689ed6d1281858f68c932c05,689f405740fec32ea728e72b,,,,,,,,,,,,,63,0,,./stim/wavs/puertorican_match_declarative-broad-focus_Ana-lleva-el-abrigo.wav,,,,,,,,,,,,,,,,,,,,,,736.8484,738.8483,0,1,1.4682,,0,81,81,62,1,0,puertorican,,,,,,,,,,,,,,,,,,,,,,,,,,,,,,,,,,,,,,,,,,,,,,,,,,,,,,,,
,,,,,,,,,636ac3f10d9f3b6a0eb54eeb,Spanish,13 or older,"no, only English or Spanish",no,2025-08-15_09h23.54.300,empathy_intonation_perc,2024.2.4,Win32,60.24096386,636ac3f10d9f3b6a0eb54eeb,689ed6d1281858f68c932c05,689f405740fec32ea728e72b,,,,,,,,,,,,,43,1,,./stim/wavs/puertorican_mismatch_interrogative-total-yn_La-nina-lava-el-plato.wav,,,,,,,,,,,,,,,,,,,,,,738.8496,741.0148,0,0,1.6325,,0,82,82,42,1,1,puertorican,,,,,,,,,,,,,,,,,,,,,,,,,,,,,,,,,,,,,,,,,,,,,,,,,,,,,,,,
,,,,,,,,,636ac3f10d9f3b6a0eb54eeb,Spanish,13 or older,"no, only English or Spanish",no,2025-08-15_09h23.54.300,empathy_intonation_perc,2024.2.4,Win32,60.24096386,636ac3f10d9f3b6a0eb54eeb,689ed6d1281858f68c932c05,689f405740fec32ea728e72b,,,,,,,,,,,,,80,0,,./stim/wavs/mexican_mismatch_declarative-broad-focus_El-hombre-mira-la-luna.wav,,,,,,,,,,,,,,,,,,,,,,741.0164,741.8166,0,1,0.2676,,0,83,83,79,1,0,mexican,,,,,,,,,,,,,,,,,,,,,,,,,,,,,,,,,,,,,,,,,,,,,,,,,,,,,,,,
,,,,,,,,,636ac3f10d9f3b6a0eb54eeb,Spanish,13 or older,"no, only English or Spanish",no,2025-08-15_09h23.54.300,empathy_intonation_perc,2024.2.4,Win32,60.24096386,636ac3f10d9f3b6a0eb54eeb,689ed6d1281858f68c932c05,689f405740fec32ea728e72b,,,,,,,,,,,,,69,0,,./stim/wavs/castilian_mismatch_declarative-broad-focus_El-nino-oye-el-rio.wav,,,,,,,,,,,,,,,,,,,,,,741.8178,744.6487,0,1,2.3037,,0,84,84,68,1,0,castilian,,,,,,,,,,,,,,,,,,,,,,,,,,,,,,,,,,,,,,,,,,,,,,,,,,,,,,,,
,,,,,,,,,636ac3f10d9f3b6a0eb54eeb,Spanish,13 or older,"no, only English or Spanish",no,2025-08-15_09h23.54.300,empathy_intonation_perc,2024.2.4,Win32,60.24096386,636ac3f10d9f3b6a0eb54eeb,689ed6d1281858f68c932c05,689f405740fec32ea728e72b,,,,,,,,,,,,,27,1,,./stim/wavs/castilian_mismatch_interrogative-total-yn_Mi-madre-come-la-fruta.wav,,,,,,,,,,,,,,,,,,,,,,744.6503,748.0307,1,1,2.8498,,0,85,85,26,1,0,castilian,,,,,,,,,,,,,,,,,,,,,,,,,,,,,,,,,,,,,,,,,,,,,,,,,,,,,,,,
,,,,,,,,,636ac3f10d9f3b6a0eb54eeb,Spanish,13 or older,"no, only English or Spanish",no,2025-08-15_09h23.54.300,empathy_intonation_perc,2024.2.4,Win32,60.24096386,636ac3f10d9f3b6a0eb54eeb,689ed6d1281858f68c932c05,689f405740fec32ea728e72b,,,,,,,,,,,,,37,1,,./stim/wavs/mexican_mismatch_interrogative-total-yn_La-maestra-vive-en-Paris.wav,,,,,,,,,,,,,,,,,,,,,,748.0321,752.465,0,0,3.9062,,0,86,86,36,1,0,mexican,,,,,,,,,,,,,,,,,,,,,,,,,,,,,,,,,,,,,,,,,,,,,,,,,,,,,,,,
,,,,,,,,,636ac3f10d9f3b6a0eb54eeb,Spanish,13 or older,"no, only English or Spanish",no,2025-08-15_09h23.54.300,empathy_intonation_perc,2024.2.4,Win32,60.24096386,636ac3f10d9f3b6a0eb54eeb,689ed6d1281858f68c932c05,689f405740fec32ea728e72b,,,,,,,,,,,,,56,0,,./stim/wavs/cuban_match_declarative-broad-focus_Marta-abre-el-regalo.wav,,,,,,,,,,,,,,,,,,,,,,752.467,755.6329,1,0,2.651,,0,87,87,55,1,0,cuban,,,,,,,,,,,,,,,,,,,,,,,,,,,,,,,,,,,,,,,,,,,,,,,,,,,,,,,,
,,,,,,,"Great! Now we will move on. The next task consists of about 60 trials, in each of which you will see a string of letters. 
  
  Your task is to decide whether this is a real Spanish word or not.", (press the spacebar to continue),636ac3f10d9f3b6a0eb54eeb,Spanish,13 or older,"no, only English or Spanish",no,2025-08-15_09h23.54.300,empathy_intonation_perc,2024.2.4,Win32,60.24096386,636ac3f10d9f3b6a0eb54eeb,689ed6d1281858f68c932c05,689f405740fec32ea728e72b,,,,,,,,,,,,,,,,,,,,,,,,,,,,,,,,,,,,,,,,,,,,,,,,,,,755.6461,758.877,0,0,0,0,1,,,,,,,,,,,,,,,,,,,,,,,,,,,,,,,,,,,,,,,,,,,,,,,,,
,,,,,,,"If you think it is an existing Spanish word, you type '1' (for 'REAL'), and if you think it is not an existing Spanish word, you type '0' (for 'FAKE').", (press the spacebar to continue),636ac3f10d9f3b6a0eb54eeb,Spanish,13 or older,"no, only English or Spanish",no,2025-08-15_09h23.54.300,empathy_intonation_perc,2024.2.4,Win32,60.24096386,636ac3f10d9f3b6a0eb54eeb,689ed6d1281858f68c932c05,689f405740fec32ea728e72b,,,,,,,,,,,,,,,,,,,,,,,,,,,,,,,,,,,,,,,,,,,,,,,,,,,758.8816,763.8497,0,1,1,1,1,,,,,,,,,,,,,,,,,,,,,,,,,,,,,,,,,,,,,,,,,,,,,,,,,
,,,,,,,"If you are sure that the word exists, even though you don’t know its exact meaning, you may still respond '1' (REAL). 
  
  But if you are not sure if it is an existing word, you should respond '0' (FAKE).
  
  Let's do a practice round...", (press the spacebar to continue),636ac3f10d9f3b6a0eb54eeb,Spanish,13 or older,"no, only English or Spanish",no,2025-08-15_09h23.54.300,empathy_intonation_perc,2024.2.4,Win32,60.24096386,636ac3f10d9f3b6a0eb54eeb,689ed6d1281858f68c932c05,689f405740fec32ea728e72b,,,,,,,,,,,,,,,,,,,,,,,,,,,,,,,,,,,,,,,,,,,,,,,,,,,763.8546,793.4573,0,2,2,2,1,,,,,,,,,,,,,,,,,,,,,,,,,,,,,,,,,,,,,,,,,,,,,,,,,
,,,,,,,,,636ac3f10d9f3b6a0eb54eeb,Spanish,13 or older,"no, only English or Spanish",no,2025-08-15_09h23.54.300,empathy_intonation_perc,2024.2.4,Win32,60.24096386,636ac3f10d9f3b6a0eb54eeb,689ed6d1281858f68c932c05,689f405740fec32ea728e72b,,,,,,,,,,,,,,0,,,,,,,,,,,,,,,,,,,,,,,,,,,,,,,,,,,,,,,,,,,,793.4708,796.1866,1,0,2.1831,,796.1872,797.1763,0,0,0,0,1,0,depiste,REAL,FAKE,,,,,,,,,,,,,,,,,,,,,,,,,,,,,,,,
,,,,,,,,,636ac3f10d9f3b6a0eb54eeb,Spanish,13 or older,"no, only English or Spanish",no,2025-08-15_09h23.54.300,empathy_intonation_perc,2024.2.4,Win32,60.24096386,636ac3f10d9f3b6a0eb54eeb,689ed6d1281858f68c932c05,689f405740fec32ea728e72b,,,,,,,,,,,,,,1,,,,,,,,,,,,,,,,,,,,,,,,,,,,,,,,,,,,,,,,,,,,797.1795,804.511,0,0,6.7959,,804.5112,805.5153,0,1,1,1,1,0,sí,REAL,FAKE,,,,,,,,,,,,,,,,,,,,,,,,,,,,,,,,
,,,,,,,,,636ac3f10d9f3b6a0eb54eeb,Spanish,13 or older,"no, only English or Spanish",no,2025-08-15_09h23.54.300,empathy_intonation_perc,2024.2.4,Win32,60.24096386,636ac3f10d9f3b6a0eb54eeb,689ed6d1281858f68c932c05,689f405740fec32ea728e72b,,,,,,,,,,,,,,0,,,,,,,,,,,,,,,,,,,,,,,,,,,,,,,,,,,,,,,,,,,,805.519,807.6862,1,0,1.6343,,807.6864,808.6861,0,2,2,2,1,0,coné,REAL,FAKE,,,,,,,,,,,,,,,,,,,,,,,,,,,,,,,,
,,,,,,,,,636ac3f10d9f3b6a0eb54eeb,Spanish,13 or older,"no, only English or Spanish",no,2025-08-15_09h23.54.300,empathy_intonation_perc,2024.2.4,Win32,60.24096386,636ac3f10d9f3b6a0eb54eeb,689ed6d1281858f68c932c05,689f405740fec32ea728e72b,,,,,,,,,,,,,,0,,,,,,,,,,,,,,,,,,,,,,,,,,,,,,,,,,,,,,,,,,,,808.6881,813.4362,0,1,4.2084,,813.4378,814.4401,0,3,3,3,1,0,calpar,REAL,FAKE,,,,,,,,,,,,,,,,,,,,,,,,,,,,,,,,
,,,,,,,,,636ac3f10d9f3b6a0eb54eeb,Spanish,13 or older,"no, only English or Spanish",no,2025-08-15_09h23.54.300,empathy_intonation_perc,2024.2.4,Win32,60.24096386,636ac3f10d9f3b6a0eb54eeb,689ed6d1281858f68c932c05,689f405740fec32ea728e72b,,,,,,,,,,,,,,0,,,,,,,,,,,,,,,,,,,,,,,,,,,,,,,,,,,,,,,,,,,,814.4426,816.4577,0,1,1.4826,,816.4579,817.4533,0,4,4,4,1,0,joten,REAL,FAKE,,,,,,,,,,,,,,,,,,,,,,,,,,,,,,,,
,,,,,,,,,636ac3f10d9f3b6a0eb54eeb,Spanish,13 or older,"no, only English or Spanish",no,2025-08-15_09h23.54.300,empathy_intonation_perc,2024.2.4,Win32,60.24096386,636ac3f10d9f3b6a0eb54eeb,689ed6d1281858f68c932c05,689f405740fec32ea728e72b,,,,,,,,,,,,,,1,,,,,,,,,,,,,,,,,,,,,,,,,,,,,,,,,,,,,,,,,,,,817.4554,821.3733,0,0,3.3798,,821.3751,822.3697,0,5,5,5,1,0,sacapuntas,REAL,FAKE,,,,,,,,,,,,,,,,,,,,,,,,,,,,,,,,
,,,,,,,,,636ac3f10d9f3b6a0eb54eeb,Spanish,13 or older,"no, only English or Spanish",no,2025-08-15_09h23.54.300,empathy_intonation_perc,2024.2.4,Win32,60.24096386,636ac3f10d9f3b6a0eb54eeb,689ed6d1281858f68c932c05,689f405740fec32ea728e72b,,,,,,,,,,,,,,0,,,,,,,,,,,,,,,,,,,,,,,,,,,,,,,,,,,,,,,,,,,,822.3723,823.9026,1,0,0.9919,,823.9029,824.9029,0,6,6,6,1,0,priba,REAL,FAKE,,,,,,,,,,,,,,,,,,,,,,,,,,,,,,,,
,,,,,,,,,636ac3f10d9f3b6a0eb54eeb,Spanish,13 or older,"no, only English or Spanish",no,2025-08-15_09h23.54.300,empathy_intonation_perc,2024.2.4,Win32,60.24096386,636ac3f10d9f3b6a0eb54eeb,689ed6d1281858f68c932c05,689f405740fec32ea728e72b,,,,,,,,,,,,,,0,,,,,,,,,,,,,,,,,,,,,,,,,,,,,,,,,,,,,,,,,,,,824.905,829.0026,0,1,3.5663,,829.0042,829.9967,0,7,7,7,1,0,pelasula,REAL,FAKE,,,,,,,,,,,,,,,,,,,,,,,,,,,,,,,,
,,,,,,,,,636ac3f10d9f3b6a0eb54eeb,Spanish,13 or older,"no, only English or Spanish",no,2025-08-15_09h23.54.300,empathy_intonation_perc,2024.2.4,Win32,60.24096386,636ac3f10d9f3b6a0eb54eeb,689ed6d1281858f68c932c05,689f405740fec32ea728e72b,,,,,,,,,,,,,,1,,,,,,,,,,,,,,,,,,,,,,,,,,,,,,,,,,,,,,,,,,,,829.9989,832.3143,0,0,1.7826,,832.3154,833.3029,0,8,8,8,1,0,bien,REAL,FAKE,,,,,,,,,,,,,,,,,,,,,,,,,,,,,,,,
,,,,,,,,,636ac3f10d9f3b6a0eb54eeb,Spanish,13 or older,"no, only English or Spanish",no,2025-08-15_09h23.54.300,empathy_intonation_perc,2024.2.4,Win32,60.24096386,636ac3f10d9f3b6a0eb54eeb,689ed6d1281858f68c932c05,689f405740fec32ea728e72b,,,,,,,,,,,,,,1,,,,,,,,,,,,,,,,,,,,,,,,,,,,,,,,,,,,,,,,,,,,833.3049,834.3553,1,1,0.5325,,834.3566,835.3529,0,9,9,9,1,0,casa,REAL,FAKE,,,,,,,,,,,,,,,,,,,,,,,,,,,,,,,,
,,,,,,,,,636ac3f10d9f3b6a0eb54eeb,Spanish,13 or older,"no, only English or Spanish",no,2025-08-15_09h23.54.300,empathy_intonation_perc,2024.2.4,Win32,60.24096386,636ac3f10d9f3b6a0eb54eeb,689ed6d1281858f68c932c05,689f405740fec32ea728e72b,,,,,,,,,,,,,,0,,,,,,,,,,,,,,,,,,,,,,,,,,,,,,,,,,,,,,,,,,,,835.3551,836.5218,1,0,0.6303,,836.523,837.5199,0,10,10,10,1,0,lejo,REAL,FAKE,,,,,,,,,,,,,,,,,,,,,,,,,,,,,,,,
,,,,,,,,,636ac3f10d9f3b6a0eb54eeb,Spanish,13 or older,"no, only English or Spanish",no,2025-08-15_09h23.54.300,empathy_intonation_perc,2024.2.4,Win32,60.24096386,636ac3f10d9f3b6a0eb54eeb,689ed6d1281858f68c932c05,689f405740fec32ea728e72b,,,,,,,,,,,,,,0,,,,,,,,,,,,,,,,,,,,,,,,,,,,,,,,,,,,,,,,,,,,837.523,838.4393,0,1,0.3824,,838.4405,839.4362,0,11,11,11,1,0,pretantas,REAL,FAKE,,,,,,,,,,,,,,,,,,,,,,,,,,,,,,,,
,,,,,,,,,636ac3f10d9f3b6a0eb54eeb,Spanish,13 or older,"no, only English or Spanish",no,2025-08-15_09h23.54.300,empathy_intonation_perc,2024.2.4,Win32,60.24096386,636ac3f10d9f3b6a0eb54eeb,689ed6d1281858f68c932c05,689f405740fec32ea728e72b,,,,,,,,,,,,,,,,,,,,,,,,,,,,,,,,,,,,,,,,,,,,,,,,,,,,,,,,,,,,,,,,,,,,,,,,,,,839.437,841.8687,,,,,,,,,,,,,,,,,,,,,,,,,,,,,,
,,,,,,,,,636ac3f10d9f3b6a0eb54eeb,Spanish,13 or older,"no, only English or Spanish",no,2025-08-15_09h23.54.300,empathy_intonation_perc,2024.2.4,Win32,60.24096386,636ac3f10d9f3b6a0eb54eeb,689ed6d1281858f68c932c05,689f405740fec32ea728e72b,,,,,,,,,,,,,,1,,,,,,,,,,,,,,,,,,,,,,,,,,,,,,,,,,,,,,,,,,,,,,,,,,,,,,,,,56,musgo,,,,,841.8849,843.4913,0,0,1.0757,,0,0,0,55,1,REAL,FAKE,,,,,,,,,,,,,,,,,
,,,,,,,,,636ac3f10d9f3b6a0eb54eeb,Spanish,13 or older,"no, only English or Spanish",no,2025-08-15_09h23.54.300,empathy_intonation_perc,2024.2.4,Win32,60.24096386,636ac3f10d9f3b6a0eb54eeb,689ed6d1281858f68c932c05,689f405740fec32ea728e72b,,,,,,,,,,,,,,1,,,,,,,,,,,,,,,,,,,,,,,,,,,,,,,,,,,,,,,,,,,,,,,,,,,,,,,,,67,cabello,,,,,843.4943,847.4343,0,0,3.4186,,0,1,1,66,1,REAL,FAKE,,,,,,,,,,,,,,,,,
,,,,,,,,,636ac3f10d9f3b6a0eb54eeb,Spanish,13 or older,"no, only English or Spanish",no,2025-08-15_09h23.54.300,empathy_intonation_perc,2024.2.4,Win32,60.24096386,636ac3f10d9f3b6a0eb54eeb,689ed6d1281858f68c932c05,689f405740fec32ea728e72b,,,,,,,,,,,,,,0,,,,,,,,,,,,,,,,,,,,,,,,,,,,,,,,,,,,,,,,,,,,,,,,,,,,,,,,,72,pemición,,,,,847.4372,849.3072,1,0,1.3386,,0,2,2,71,1,REAL,FAKE,,,,,,,,,,,,,,,,,
,,,,,,,,,636ac3f10d9f3b6a0eb54eeb,Spanish,13 or older,"no, only English or Spanish",no,2025-08-15_09h23.54.300,empathy_intonation_perc,2024.2.4,Win32,60.24096386,636ac3f10d9f3b6a0eb54eeb,689ed6d1281858f68c932c05,689f405740fec32ea728e72b,,,,,,,,,,,,,,0,,,,,,,,,,,,,,,,,,,,,,,,,,,,,,,,,,,,,,,,,,,,,,,,,,,,,,,,,23,lampera,,,,,849.3091,851.3063,1,0,1.4638,,0,3,3,22,1,REAL,FAKE,,,,,,,,,,,,,,,,,
,,,,,,,,,636ac3f10d9f3b6a0eb54eeb,Spanish,13 or older,"no, only English or Spanish",no,2025-08-15_09h23.54.300,empathy_intonation_perc,2024.2.4,Win32,60.24096386,636ac3f10d9f3b6a0eb54eeb,689ed6d1281858f68c932c05,689f405740fec32ea728e72b,,,,,,,,,,,,,,0,,,,,,,,,,,,,,,,,,,,,,,,,,,,,,,,,,,,,,,,,,,,,,,,,,,,,,,,,29,decar,,,,,851.3085,854.8362,1,0,2.993,,0,4,4,28,1,REAL,FAKE,,,,,,,,,,,,,,,,,
,,,,,,,,,636ac3f10d9f3b6a0eb54eeb,Spanish,13 or older,"no, only English or Spanish",no,2025-08-15_09h23.54.300,empathy_intonation_perc,2024.2.4,Win32,60.24096386,636ac3f10d9f3b6a0eb54eeb,689ed6d1281858f68c932c05,689f405740fec32ea728e72b,,,,,,,,,,,,,,1,,,,,,,,,,,,,,,,,,,,,,,,,,,,,,,,,,,,,,,,,,,,,,,,,,,,,,,,,36,loro,,,,,854.8382,857.2933,0,0,1.9166,,0,5,5,35,1,REAL,FAKE,,,,,,,,,,,,,,,,,
,,,,,,,,,636ac3f10d9f3b6a0eb54eeb,Spanish,13 or older,"no, only English or Spanish",no,2025-08-15_09h23.54.300,empathy_intonation_perc,2024.2.4,Win32,60.24096386,636ac3f10d9f3b6a0eb54eeb,689ed6d1281858f68c932c05,689f405740fec32ea728e72b,,,,,,,,,,,,,,1,,,,,,,,,,,,,,,,,,,,,,,,,,,,,,,,,,,,,,,,,,,,,,,,,,,,,,,,,91,click the 1 key.,,,,,857.2959,863.1249,1,1,5.3006,,0,6,6,90,1,REAL,FAKE,,,,,,,,,,,,,,,,,
,,,,,,,,,636ac3f10d9f3b6a0eb54eeb,Spanish,13 or older,"no, only English or Spanish",no,2025-08-15_09h23.54.300,empathy_intonation_perc,2024.2.4,Win32,60.24096386,636ac3f10d9f3b6a0eb54eeb,689ed6d1281858f68c932c05,689f405740fec32ea728e72b,,,,,,,,,,,,,,1,,,,,,,,,,,,,,,,,,,,,,,,,,,,,,,,,,,,,,,,,,,,,,,,,,,,,,,,,31,pandilla,,,,,863.127,864.2697,1,1,0.6111,,0,7,7,30,1,REAL,FAKE,,,,,,,,,,,,,,,,,
,,,,,,,,,636ac3f10d9f3b6a0eb54eeb,Spanish,13 or older,"no, only English or Spanish",no,2025-08-15_09h23.54.300,empathy_intonation_perc,2024.2.4,Win32,60.24096386,636ac3f10d9f3b6a0eb54eeb,689ed6d1281858f68c932c05,689f405740fec32ea728e72b,,,,,,,,,,,,,,0,,,,,,,,,,,,,,,,,,,,,,,,,,,,,,,,,,,,,,,,,,,,,,,,,,,,,,,,,33,pauca,,,,,864.2723,866.7528,0,1,1.9464,,0,8,8,32,1,REAL,FAKE,,,,,,,,,,,,,,,,,
,,,,,,,,,636ac3f10d9f3b6a0eb54eeb,Spanish,13 or older,"no, only English or Spanish",no,2025-08-15_09h23.54.300,empathy_intonation_perc,2024.2.4,Win32,60.24096386,636ac3f10d9f3b6a0eb54eeb,689ed6d1281858f68c932c05,689f405740fec32ea728e72b,,,,,,,,,,,,,,1,,,,,,,,,,,,,,,,,,,,,,,,,,,,,,,,,,,,,,,,,,,,,,,,,,,,,,,,,89,prisa,,,,,866.7549,868.3709,1,1,1.0804,,0,9,9,88,1,REAL,FAKE,,,,,,,,,,,,,,,,,
,,,,,,,,,636ac3f10d9f3b6a0eb54eeb,Spanish,13 or older,"no, only English or Spanish",no,2025-08-15_09h23.54.300,empathy_intonation_perc,2024.2.4,Win32,60.24096386,636ac3f10d9f3b6a0eb54eeb,689ed6d1281858f68c932c05,689f405740fec32ea728e72b,,,,,,,,,,,,,,0,,,,,,,,,,,,,,,,,,,,,,,,,,,,,,,,,,,,,,,,,,,,,,,,,,,,,,,,,27,acutación,,,,,868.3733,871.9212,0,1,3.0149,,0,10,10,26,1,REAL,FAKE,,,,,,,,,,,,,,,,,
,,,,,,,,,636ac3f10d9f3b6a0eb54eeb,Spanish,13 or older,"no, only English or Spanish",no,2025-08-15_09h23.54.300,empathy_intonation_perc,2024.2.4,Win32,60.24096386,636ac3f10d9f3b6a0eb54eeb,689ed6d1281858f68c932c05,689f405740fec32ea728e72b,,,,,,,,,,,,,,1,,,,,,,,,,,,,,,,,,,,,,,,,,,,,,,,,,,,,,,,,,,,,,,,,,,,,,,,,39,torpe,,,,,871.9233,874.0564,1,1,1.5969,,0,11,11,38,1,REAL,FAKE,,,,,,,,,,,,,,,,,
,,,,,,,,,636ac3f10d9f3b6a0eb54eeb,Spanish,13 or older,"no, only English or Spanish",no,2025-08-15_09h23.54.300,empathy_intonation_perc,2024.2.4,Win32,60.24096386,636ac3f10d9f3b6a0eb54eeb,689ed6d1281858f68c932c05,689f405740fec32ea728e72b,,,,,,,,,,,,,,1,,,,,,,,,,,,,,,,,,,,,,,,,,,,,,,,,,,,,,,,,,,,,,,,,,,,,,,,,46,martillo,,,,,874.0588,876.8193,0,0,2.2286,,0,12,12,45,1,REAL,FAKE,,,,,,,,,,,,,,,,,
,,,,,,,,,636ac3f10d9f3b6a0eb54eeb,Spanish,13 or older,"no, only English or Spanish",no,2025-08-15_09h23.54.300,empathy_intonation_perc,2024.2.4,Win32,60.24096386,636ac3f10d9f3b6a0eb54eeb,689ed6d1281858f68c932c05,689f405740fec32ea728e72b,,,,,,,,,,,,,,0,,,,,,,,,,,,,,,,,,,,,,,,,,,,,,,,,,,,,,,,,,,,,,,,,,,,,,,,,74,cintro,,,,,876.8213,878.9378,1,0,1.5988,,0,13,13,73,1,REAL,FAKE,,,,,,,,,,,,,,,,,
,,,,,,,,,636ac3f10d9f3b6a0eb54eeb,Spanish,13 or older,"no, only English or Spanish",no,2025-08-15_09h23.54.300,empathy_intonation_perc,2024.2.4,Win32,60.24096386,636ac3f10d9f3b6a0eb54eeb,689ed6d1281858f68c932c05,689f405740fec32ea728e72b,,,,,,,,,,,,,,1,,,,,,,,,,,,,,,,,,,,,,,,,,,,,,,,,,,,,,,,,,,,,,,,,,,,,,,,,73,hervidor,,,,,878.9403,881.788,0,0,2.3149,,0,14,14,72,1,REAL,FAKE,,,,,,,,,,,,,,,,,
,,,,,,,,,636ac3f10d9f3b6a0eb54eeb,Spanish,13 or older,"no, only English or Spanish",no,2025-08-15_09h23.54.300,empathy_intonation_perc,2024.2.4,Win32,60.24096386,636ac3f10d9f3b6a0eb54eeb,689ed6d1281858f68c932c05,689f405740fec32ea728e72b,,,,,,,,,,,,,,1,,,,,,,,,,,,,,,,,,,,,,,,,,,,,,,,,,,,,,,,,,,,,,,,,,,,,,,,,20,ávido,,,,,881.7906,883.0365,1,1,0.7082,,0,15,15,19,1,REAL,FAKE,,,,,,,,,,,,,,,,,
,,,,,,,,,636ac3f10d9f3b6a0eb54eeb,Spanish,13 or older,"no, only English or Spanish",no,2025-08-15_09h23.54.300,empathy_intonation_perc,2024.2.4,Win32,60.24096386,636ac3f10d9f3b6a0eb54eeb,689ed6d1281858f68c932c05,689f405740fec32ea728e72b,,,,,,,,,,,,,,0,,,,,,,,,,,,,,,,,,,,,,,,,,,,,,,,,,,,,,,,,,,,,,,,,,,,,,,,,53,vegada,,,,,883.0391,885.2363,1,0,1.6633,,0,16,16,52,1,REAL,FAKE,,,,,,,,,,,,,,,,,
,,,,,,,,,636ac3f10d9f3b6a0eb54eeb,Spanish,13 or older,"no, only English or Spanish",no,2025-08-15_09h23.54.300,empathy_intonation_perc,2024.2.4,Win32,60.24096386,636ac3f10d9f3b6a0eb54eeb,689ed6d1281858f68c932c05,689f405740fec32ea728e72b,,,,,,,,,,,,,,1,,,,,,,,,,,,,,,,,,,,,,,,,,,,,,,,,,,,,,,,,,,,,,,,,,,,,,,,,5,zapato,,,,,885.2397,886.2534,0,0,0.4917,,0,17,17,4,1,REAL,FAKE,,,,,,,,,,,,,,,,,
,,,,,,,,,636ac3f10d9f3b6a0eb54eeb,Spanish,13 or older,"no, only English or Spanish",no,2025-08-15_09h23.54.300,empathy_intonation_perc,2024.2.4,Win32,60.24096386,636ac3f10d9f3b6a0eb54eeb,689ed6d1281858f68c932c05,689f405740fec32ea728e72b,,,,,,,,,,,,,,1,,,,,,,,,,,,,,,,,,,,,,,,,,,,,,,,,,,,,,,,,,,,,,,,,,,,,,,,,52,camisa,,,,,886.2559,890.6027,0,0,3.8142,,0,18,18,51,1,REAL,FAKE,,,,,,,,,,,,,,,,,
,,,,,,,,,636ac3f10d9f3b6a0eb54eeb,Spanish,13 or older,"no, only English or Spanish",no,2025-08-15_09h23.54.300,empathy_intonation_perc,2024.2.4,Win32,60.24096386,636ac3f10d9f3b6a0eb54eeb,689ed6d1281858f68c932c05,689f405740fec32ea728e72b,,,,,,,,,,,,,,0,,,,,,,,,,,,,,,,,,,,,,,,,,,,,,,,,,,,,,,,,,,,,,,,,,,,,,,,,32,fatacidad,,,,,890.6046,892.0415,1,0,0.8975,,0,19,19,31,1,REAL,FAKE,,,,,,,,,,,,,,,,,
,,,,,,,,,636ac3f10d9f3b6a0eb54eeb,Spanish,13 or older,"no, only English or Spanish",no,2025-08-15_09h23.54.300,empathy_intonation_perc,2024.2.4,Win32,60.24096386,636ac3f10d9f3b6a0eb54eeb,689ed6d1281858f68c932c05,689f405740fec32ea728e72b,,,,,,,,,,,,,,1,,,,,,,,,,,,,,,,,,,,,,,,,,,,,,,,,,,,,,,,,,,,,,,,,,,,,,,,,13,helar,,,,,892.0433,893.8584,1,1,1.2876,,0,20,20,12,1,REAL,FAKE,,,,,,,,,,,,,,,,,
,,,,,,,,,636ac3f10d9f3b6a0eb54eeb,Spanish,13 or older,"no, only English or Spanish",no,2025-08-15_09h23.54.300,empathy_intonation_perc,2024.2.4,Win32,60.24096386,636ac3f10d9f3b6a0eb54eeb,689ed6d1281858f68c932c05,689f405740fec32ea728e72b,,,,,,,,,,,,,,1,,,,,,,,,,,,,,,,,,,,,,,,,,,,,,,,,,,,,,,,,,,,,,,,,,,,,,,,,69,engatusar,,,,,893.8602,897.2205,1,1,2.8311,,0,21,21,68,1,REAL,FAKE,,,,,,,,,,,,,,,,,
,,,,,,,,,636ac3f10d9f3b6a0eb54eeb,Spanish,13 or older,"no, only English or Spanish",no,2025-08-15_09h23.54.300,empathy_intonation_perc,2024.2.4,Win32,60.24096386,636ac3f10d9f3b6a0eb54eeb,689ed6d1281858f68c932c05,689f405740fec32ea728e72b,,,,,,,,,,,,,,1,,,,,,,,,,,,,,,,,,,,,,,,,,,,,,,,,,,,,,,,,,,,,,,,,,,,,,,,,38,estornudar,,,,,897.2225,898.7034,0,0,0.9423,,0,22,22,37,1,REAL,FAKE,,,,,,,,,,,,,,,,,
,,,,,,,,,636ac3f10d9f3b6a0eb54eeb,Spanish,13 or older,"no, only English or Spanish",no,2025-08-15_09h23.54.300,empathy_intonation_perc,2024.2.4,Win32,60.24096386,636ac3f10d9f3b6a0eb54eeb,689ed6d1281858f68c932c05,689f405740fec32ea728e72b,,,,,,,,,,,,,,0,,,,,,,,,,,,,,,,,,,,,,,,,,,,,,,,,,,,,,,,,,,,,,,,,,,,,,,,,17,floroso,,,,,898.7058,901.7227,1,0,2.5004,,0,23,23,16,1,REAL,FAKE,,,,,,,,,,,,,,,,,
,,,,,,,,,636ac3f10d9f3b6a0eb54eeb,Spanish,13 or older,"no, only English or Spanish",no,2025-08-15_09h23.54.300,empathy_intonation_perc,2024.2.4,Win32,60.24096386,636ac3f10d9f3b6a0eb54eeb,689ed6d1281858f68c932c05,689f405740fec32ea728e72b,,,,,,,,,,,,,,1,,,,,,,,,,,,,,,,,,,,,,,,,,,,,,,,,,,,,,,,,,,,,,,,,,,,,,,,,54,fomentar,,,,,901.7243,904.1071,0,0,1.847,,0,24,24,53,1,REAL,FAKE,,,,,,,,,,,,,,,,,
,,,,,,,,,636ac3f10d9f3b6a0eb54eeb,Spanish,13 or older,"no, only English or Spanish",no,2025-08-15_09h23.54.300,empathy_intonation_perc,2024.2.4,Win32,60.24096386,636ac3f10d9f3b6a0eb54eeb,689ed6d1281858f68c932c05,689f405740fec32ea728e72b,,,,,,,,,,,,,,1,,,,,,,,,,,,,,,,,,,,,,,,,,,,,,,,,,,,,,,,,,,,,,,,,,,,,,,,,85,laúd,,,,,904.11,905.0067,1,1,0.3645,,0,25,25,84,1,REAL,FAKE,,,,,,,,,,,,,,,,,
,,,,,,,,,636ac3f10d9f3b6a0eb54eeb,Spanish,13 or older,"no, only English or Spanish",no,2025-08-15_09h23.54.300,empathy_intonation_perc,2024.2.4,Win32,60.24096386,636ac3f10d9f3b6a0eb54eeb,689ed6d1281858f68c932c05,689f405740fec32ea728e72b,,,,,,,,,,,,,,1,,,,,,,,,,,,,,,,,,,,,,,,,,,,,,,,,,,,,,,,,,,,,,,,,,,,,,,,,83,guante,,,,,905.0086,907.0902,1,1,1.5483,,0,26,26,82,1,REAL,FAKE,,,,,,,,,,,,,,,,,
,,,,,,,,,636ac3f10d9f3b6a0eb54eeb,Spanish,13 or older,"no, only English or Spanish",no,2025-08-15_09h23.54.300,empathy_intonation_perc,2024.2.4,Win32,60.24096386,636ac3f10d9f3b6a0eb54eeb,689ed6d1281858f68c932c05,689f405740fec32ea728e72b,,,,,,,,,,,,,,1,,,,,,,,,,,,,,,,,,,,,,,,,,,,,,,,,,,,,,,,,,,,,,,,,,,,,,,,,64,orgulloso,,,,,907.0922,909.1044,1,1,1.4812,,0,27,27,63,1,REAL,FAKE,,,,,,,,,,,,,,,,,
,,,,,,,,,636ac3f10d9f3b6a0eb54eeb,Spanish,13 or older,"no, only English or Spanish",no,2025-08-15_09h23.54.300,empathy_intonation_perc,2024.2.4,Win32,60.24096386,636ac3f10d9f3b6a0eb54eeb,689ed6d1281858f68c932c05,689f405740fec32ea728e72b,,,,,,,,,,,,,,0,,,,,,,,,,,,,,,,,,,,,,,,,,,,,,,,,,,,,,,,,,,,,,,,,,,,,,,,,63,esposante,,,,,909.106,910.0198,1,0,0.3814,,0,28,28,62,1,REAL,FAKE,,,,,,,,,,,,,,,,,
,,,,,,,,,636ac3f10d9f3b6a0eb54eeb,Spanish,13 or older,"no, only English or Spanish",no,2025-08-15_09h23.54.300,empathy_intonation_perc,2024.2.4,Win32,60.24096386,636ac3f10d9f3b6a0eb54eeb,689ed6d1281858f68c932c05,689f405740fec32ea728e72b,,,,,,,,,,,,,,1,,,,,,,,,,,,,,,,,,,,,,,,,,,,,,,,,,,,,,,,,,,,,,,,,,,,,,,,,77,tiburón,,,,,910.0217,910.7231,0,0,0.1842,,0,29,29,76,1,REAL,FAKE,,,,,,,,,,,,,,,,,
,,,,,,,,,636ac3f10d9f3b6a0eb54eeb,Spanish,13 or older,"no, only English or Spanish",no,2025-08-15_09h23.54.300,empathy_intonation_perc,2024.2.4,Win32,60.24096386,636ac3f10d9f3b6a0eb54eeb,689ed6d1281858f68c932c05,689f405740fec32ea728e72b,,,,,,,,,,,,,,0,,,,,,,,,,,,,,,,,,,,,,,,,,,,,,,,,,,,,,,,,,,,,,,,,,,,,,,,,42,cadallo,,,,,910.7248,915.8088,1,0,4.5559,,0,30,30,41,1,REAL,FAKE,,,,,,,,,,,,,,,,,
,,,,,,,,,636ac3f10d9f3b6a0eb54eeb,Spanish,13 or older,"no, only English or Spanish",no,2025-08-15_09h23.54.300,empathy_intonation_perc,2024.2.4,Win32,60.24096386,636ac3f10d9f3b6a0eb54eeb,689ed6d1281858f68c932c05,689f405740fec32ea728e72b,,,,,,,,,,,,,,1,,,,,,,,,,,,,,,,,,,,,,,,,,,,,,,,,,,,,,,,,,,,,,,,,,,,,,,,,90,clavel,,,,,915.8106,917.4397,0,0,1.1018,,0,31,31,89,1,REAL,FAKE,,,,,,,,,,,,,,,,,
,,,,,,,,,636ac3f10d9f3b6a0eb54eeb,Spanish,13 or older,"no, only English or Spanish",no,2025-08-15_09h23.54.300,empathy_intonation_perc,2024.2.4,Win32,60.24096386,636ac3f10d9f3b6a0eb54eeb,689ed6d1281858f68c932c05,689f405740fec32ea728e72b,,,,,,,,,,,,,,1,,,,,,,,,,,,,,,,,,,,,,,,,,,,,,,,,,,,,,,,,,,,,,,,,,,,,,,,,60,matar,,,,,917.4416,918.6045,1,1,0.6335,,0,32,32,59,1,REAL,FAKE,,,,,,,,,,,,,,,,,
,,,,,,,,,636ac3f10d9f3b6a0eb54eeb,Spanish,13 or older,"no, only English or Spanish",no,2025-08-15_09h23.54.300,empathy_intonation_perc,2024.2.4,Win32,60.24096386,636ac3f10d9f3b6a0eb54eeb,689ed6d1281858f68c932c05,689f405740fec32ea728e72b,,,,,,,,,,,,,,1,,,,,,,,,,,,,,,,,,,,,,,,,,,,,,,,,,,,,,,,,,,,,,,,,,,,,,,,,41,rebuscar,,,,,918.6066,919.8728,0,0,0.7488,,0,33,33,40,1,REAL,FAKE,,,,,,,,,,,,,,,,,
,,,,,,,,,636ac3f10d9f3b6a0eb54eeb,Spanish,13 or older,"no, only English or Spanish",no,2025-08-15_09h23.54.300,empathy_intonation_perc,2024.2.4,Win32,60.24096386,636ac3f10d9f3b6a0eb54eeb,689ed6d1281858f68c932c05,689f405740fec32ea728e72b,,,,,,,,,,,,,,1,,,,,,,,,,,,,,,,,,,,,,,,,,,,,,,,,,,,,,,,,,,,,,,,,,,,,,,,,45,jilguero,,,,,919.8747,920.9066,1,1,0.5022,,0,34,34,44,1,REAL,FAKE,,,,,,,,,,,,,,,,,
,,,,,,,,,636ac3f10d9f3b6a0eb54eeb,Spanish,13 or older,"no, only English or Spanish",no,2025-08-15_09h23.54.300,empathy_intonation_perc,2024.2.4,Win32,60.24096386,636ac3f10d9f3b6a0eb54eeb,689ed6d1281858f68c932c05,689f405740fec32ea728e72b,,,,,,,,,,,,,,0,,,,,,,,,,,,,,,,,,,,,,,,,,,,,,,,,,,,,,,,,,,,,,,,,,,,,,,,,16,abracer,,,,,920.9086,922.7235,1,0,1.2829,,0,35,35,15,1,REAL,FAKE,,,,,,,,,,,,,,,,,
,,,,,,,,,636ac3f10d9f3b6a0eb54eeb,Spanish,13 or older,"no, only English or Spanish",no,2025-08-15_09h23.54.300,empathy_intonation_perc,2024.2.4,Win32,60.24096386,636ac3f10d9f3b6a0eb54eeb,689ed6d1281858f68c932c05,689f405740fec32ea728e72b,,,,,,,,,,,,,,0,,,,,,,,,,,,,,,,,,,,,,,,,,,,,,,,,,,,,,,,,,,,,,,,,,,,,,,,,87,grodo,,,,,922.7251,924.52,1,0,1.2594,,0,36,36,86,1,REAL,FAKE,,,,,,,,,,,,,,,,,
,,,,,,,,,636ac3f10d9f3b6a0eb54eeb,Spanish,13 or older,"no, only English or Spanish",no,2025-08-15_09h23.54.300,empathy_intonation_perc,2024.2.4,Win32,60.24096386,636ac3f10d9f3b6a0eb54eeb,689ed6d1281858f68c932c05,689f405740fec32ea728e72b,,,,,,,,,,,,,,0,,,,,,,,,,,,,,,,,,,,,,,,,,,,,,,,,,,,,,,,,,,,,,,,,,,,,,,,,79,tropaje,,,,,924.5226,926.4588,1,0,1.4026,,0,37,37,78,1,REAL,FAKE,,,,,,,,,,,,,,,,,
,,,,,,,,,636ac3f10d9f3b6a0eb54eeb,Spanish,13 or older,"no, only English or Spanish",no,2025-08-15_09h23.54.300,empathy_intonation_perc,2024.2.4,Win32,60.24096386,636ac3f10d9f3b6a0eb54eeb,689ed6d1281858f68c932c05,689f405740fec32ea728e72b,,,,,,,,,,,,,,1,,,,,,,,,,,,,,,,,,,,,,,,,,,,,,,,,,,,,,,,,,,,,,,,,,,,,,,,,76,atar,,,,,926.4608,927.2706,0,0,0.2814,,0,38,38,75,1,REAL,FAKE,,,,,,,,,,,,,,,,,
,,,,,,,,,636ac3f10d9f3b6a0eb54eeb,Spanish,13 or older,"no, only English or Spanish",no,2025-08-15_09h23.54.300,empathy_intonation_perc,2024.2.4,Win32,60.24096386,636ac3f10d9f3b6a0eb54eeb,689ed6d1281858f68c932c05,689f405740fec32ea728e72b,,,,,,,,,,,,,,1,,,,,,,,,,,,,,,,,,,,,,,,,,,,,,,,,,,,,,,,,,,,,,,,,,,,,,,,,11,cenefa,,,,,927.2727,928.004,1,1,0.1937,,0,39,39,10,1,REAL,FAKE,,,,,,,,,,,,,,,,,
,,,,,,,,,636ac3f10d9f3b6a0eb54eeb,Spanish,13 or older,"no, only English or Spanish",no,2025-08-15_09h23.54.300,empathy_intonation_perc,2024.2.4,Win32,60.24096386,636ac3f10d9f3b6a0eb54eeb,689ed6d1281858f68c932c05,689f405740fec32ea728e72b,,,,,,,,,,,,,,0,,,,,,,,,,,,,,,,,,,,,,,,,,,,,,,,,,,,,,,,,,,,,,,,,,,,,,,,,84,escuto,,,,,928.0071,929.0539,0,1,0.5123,,0,40,40,83,1,REAL,FAKE,,,,,,,,,,,,,,,,,
,,,,,,,,,636ac3f10d9f3b6a0eb54eeb,Spanish,13 or older,"no, only English or Spanish",no,2025-08-15_09h23.54.300,empathy_intonation_perc,2024.2.4,Win32,60.24096386,636ac3f10d9f3b6a0eb54eeb,689ed6d1281858f68c932c05,689f405740fec32ea728e72b,,,,,,,,,,,,,,1,,,,,,,,,,,,,,,,,,,,,,,,,,,,,,,,,,,,,,,,,,,,,,,,,,,,,,,,,65,bizcocho,,,,,929.0564,929.9201,1,1,0.3266,,0,41,41,64,1,REAL,FAKE,,,,,,,,,,,,,,,,,
,,,,,,,,,636ac3f10d9f3b6a0eb54eeb,Spanish,13 or older,"no, only English or Spanish",no,2025-08-15_09h23.54.300,empathy_intonation_perc,2024.2.4,Win32,60.24096386,636ac3f10d9f3b6a0eb54eeb,689ed6d1281858f68c932c05,689f405740fec32ea728e72b,,,,,,,,,,,,,,1,,,,,,,,,,,,,,,,,,,,,,,,,,,,,,,,,,,,,,,,,,,,,,,,,,,,,,,,,57,tacaño,,,,,929.9228,931.5035,1,1,1.0432,,0,42,42,56,1,REAL,FAKE,,,,,,,,,,,,,,,,,
,,,,,,,,,636ac3f10d9f3b6a0eb54eeb,Spanish,13 or older,"no, only English or Spanish",no,2025-08-15_09h23.54.300,empathy_intonation_perc,2024.2.4,Win32,60.24096386,636ac3f10d9f3b6a0eb54eeb,689ed6d1281858f68c932c05,689f405740fec32ea728e72b,,,,,,,,,,,,,,1,,,,,,,,,,,,,,,,,,,,,,,,,,,,,,,,,,,,,,,,,,,,,,,,,,,,,,,,,34,aviso,,,,,931.5062,933.0532,0,0,1.0104,,0,43,43,33,1,REAL,FAKE,,,,,,,,,,,,,,,,,
,,,,,,,,,636ac3f10d9f3b6a0eb54eeb,Spanish,13 or older,"no, only English or Spanish",no,2025-08-15_09h23.54.300,empathy_intonation_perc,2024.2.4,Win32,60.24096386,636ac3f10d9f3b6a0eb54eeb,689ed6d1281858f68c932c05,689f405740fec32ea728e72b,,,,,,,,,,,,,,1,,,,,,,,,,,,,,,,,,,,,,,,,,,,,,,,,,,,,,,,,,,,,,,,,,,,,,,,,7,pésimo,,,,,933.0552,933.9216,1,1,0.3475,,0,44,44,6,1,REAL,FAKE,,,,,,,,,,,,,,,,,
,,,,,,,,,636ac3f10d9f3b6a0eb54eeb,Spanish,13 or older,"no, only English or Spanish",no,2025-08-15_09h23.54.300,empathy_intonation_perc,2024.2.4,Win32,60.24096386,636ac3f10d9f3b6a0eb54eeb,689ed6d1281858f68c932c05,689f405740fec32ea728e72b,,,,,,,,,,,,,,1,,,,,,,,,,,,,,,,,,,,,,,,,,,,,,,,,,,,,,,,,,,,,,,,,,,,,,,,,12,asesinato,,,,,933.9233,935.0243,0,0,0.5657,,0,45,45,11,1,REAL,FAKE,,,,,,,,,,,,,,,,,
,,,,,,,,,636ac3f10d9f3b6a0eb54eeb,Spanish,13 or older,"no, only English or Spanish",no,2025-08-15_09h23.54.300,empathy_intonation_perc,2024.2.4,Win32,60.24096386,636ac3f10d9f3b6a0eb54eeb,689ed6d1281858f68c932c05,689f405740fec32ea728e72b,,,,,,,,,,,,,,1,,,,,,,,,,,,,,,,,,,,,,,,,,,,,,,,,,,,,,,,,,,,,,,,,,,,,,,,,48,ladrón,,,,,935.026,935.9388,0,0,0.3794,,0,46,46,47,1,REAL,FAKE,,,,,,,,,,,,,,,,,
,,,,,,,,,636ac3f10d9f3b6a0eb54eeb,Spanish,13 or older,"no, only English or Spanish",no,2025-08-15_09h23.54.300,empathy_intonation_perc,2024.2.4,Win32,60.24096386,636ac3f10d9f3b6a0eb54eeb,689ed6d1281858f68c932c05,689f405740fec32ea728e72b,,,,,,,,,,,,,,0,,,,,,,,,,,,,,,,,,,,,,,,,,,,,,,,,,,,,,,,,,,,,,,,,,,,,,,,,30,alardio,,,,,935.9409,936.755,1,0,0.2862,,0,47,47,29,1,REAL,FAKE,,,,,,,,,,,,,,,,,
,,,,,,,,,636ac3f10d9f3b6a0eb54eeb,Spanish,13 or older,"no, only English or Spanish",no,2025-08-15_09h23.54.300,empathy_intonation_perc,2024.2.4,Win32,60.24096386,636ac3f10d9f3b6a0eb54eeb,689ed6d1281858f68c932c05,689f405740fec32ea728e72b,,,,,,,,,,,,,,1,,,,,,,,,,,,,,,,,,,,,,,,,,,,,,,,,,,,,,,,,,,,,,,,,,,,,,,,,71,polvoriento,,,,,936.7567,937.8068,0,0,0.5151,,0,48,48,70,1,REAL,FAKE,,,,,,,,,,,,,,,,,
,,,,,,,,,636ac3f10d9f3b6a0eb54eeb,Spanish,13 or older,"no, only English or Spanish",no,2025-08-15_09h23.54.300,empathy_intonation_perc,2024.2.4,Win32,60.24096386,636ac3f10d9f3b6a0eb54eeb,689ed6d1281858f68c932c05,689f405740fec32ea728e72b,,,,,,,,,,,,,,1,,,,,,,,,,,,,,,,,,,,,,,,,,,,,,,,,,,,,,,,,,,,,,,,,,,,,,,,,3,pulmones,,,,,937.8087,938.7573,1,1,0.4207,,0,49,49,2,1,REAL,FAKE,,,,,,,,,,,,,,,,,
,,,,,,,,,636ac3f10d9f3b6a0eb54eeb,Spanish,13 or older,"no, only English or Spanish",no,2025-08-15_09h23.54.300,empathy_intonation_perc,2024.2.4,Win32,60.24096386,636ac3f10d9f3b6a0eb54eeb,689ed6d1281858f68c932c05,689f405740fec32ea728e72b,,,,,,,,,,,,,,1,,,,,,,,,,,,,,,,,,,,,,,,,,,,,,,,,,,,,,,,,,,,,,,,,,,,,,,,,55,nevar,,,,,938.7602,939.7729,1,1,0.4818,,0,50,50,54,1,REAL,FAKE,,,,,,,,,,,,,,,,,
,,,,,,,,,636ac3f10d9f3b6a0eb54eeb,Spanish,13 or older,"no, only English or Spanish",no,2025-08-15_09h23.54.300,empathy_intonation_perc,2024.2.4,Win32,60.24096386,636ac3f10d9f3b6a0eb54eeb,689ed6d1281858f68c932c05,689f405740fec32ea728e72b,,,,,,,,,,,,,,1,,,,,,,,,,,,,,,,,,,,,,,,,,,,,,,,,,,,,,,,,,,,,,,,,,,,,,,,,25,bisagra,,,,,939.775,940.707,0,0,0.3991,,0,51,51,24,1,REAL,FAKE,,,,,,,,,,,,,,,,,
,,,,,,,,,636ac3f10d9f3b6a0eb54eeb,Spanish,13 or older,"no, only English or Spanish",no,2025-08-15_09h23.54.300,empathy_intonation_perc,2024.2.4,Win32,60.24096386,636ac3f10d9f3b6a0eb54eeb,689ed6d1281858f68c932c05,689f405740fec32ea728e72b,,,,,,,,,,,,,,0,,,,,,,,,,,,,,,,,,,,,,,,,,,,,,,,,,,,,,,,,,,,,,,,,,,,,,,,,47,cartinar,,,,,940.7101,941.8198,0,1,0.5803,,0,52,52,46,1,REAL,FAKE,,,,,,,,,,,,,,,,,
,,,,,,,,,636ac3f10d9f3b6a0eb54eeb,Spanish,13 or older,"no, only English or Spanish",no,2025-08-15_09h23.54.300,empathy_intonation_perc,2024.2.4,Win32,60.24096386,636ac3f10d9f3b6a0eb54eeb,689ed6d1281858f68c932c05,689f405740fec32ea728e72b,,,,,,,,,,,,,,0,,,,,,,,,,,,,,,,,,,,,,,,,,,,,,,,,,,,,,,,,,,,,,,,,,,,,,,,,1,terzo,,,,,941.8227,942.7883,1,0,0.4291,,0,53,53,0,1,REAL,FAKE,,,,,,,,,,,,,,,,,
,,,,,,,,,636ac3f10d9f3b6a0eb54eeb,Spanish,13 or older,"no, only English or Spanish",no,2025-08-15_09h23.54.300,empathy_intonation_perc,2024.2.4,Win32,60.24096386,636ac3f10d9f3b6a0eb54eeb,689ed6d1281858f68c932c05,689f405740fec32ea728e72b,,,,,,,,,,,,,,1,,,,,,,,,,,,,,,,,,,,,,,,,,,,,,,,,,,,,,,,,,,,,,,,,,,,,,,,,22,lacayo,,,,,942.7902,943.7536,0,0,0.4301,,0,54,54,21,1,REAL,FAKE,,,,,,,,,,,,,,,,,
,,,,,,,,,636ac3f10d9f3b6a0eb54eeb,Spanish,13 or older,"no, only English or Spanish",no,2025-08-15_09h23.54.300,empathy_intonation_perc,2024.2.4,Win32,60.24096386,636ac3f10d9f3b6a0eb54eeb,689ed6d1281858f68c932c05,689f405740fec32ea728e72b,,,,,,,,,,,,,,0,,,,,,,,,,,,,,,,,,,,,,,,,,,,,,,,,,,,,,,,,,,,,,,,,,,,,,,,,82,empirador,,,,,943.7561,944.8531,0,1,0.5593,,0,55,55,81,1,REAL,FAKE,,,,,,,,,,,,,,,,,
,,,,,,,,,636ac3f10d9f3b6a0eb54eeb,Spanish,13 or older,"no, only English or Spanish",no,2025-08-15_09h23.54.300,empathy_intonation_perc,2024.2.4,Win32,60.24096386,636ac3f10d9f3b6a0eb54eeb,689ed6d1281858f68c932c05,689f405740fec32ea728e72b,,,,,,,,,,,,,,1,,,,,,,,,,,,,,,,,,,,,,,,,,,,,,,,,,,,,,,,,,,,,,,,,,,,,,,,,44,cuchara,,,,,944.8551,945.8367,1,1,0.4625,,0,56,56,43,1,REAL,FAKE,,,,,,,,,,,,,,,,,
,,,,,,,,,636ac3f10d9f3b6a0eb54eeb,Spanish,13 or older,"no, only English or Spanish",no,2025-08-15_09h23.54.300,empathy_intonation_perc,2024.2.4,Win32,60.24096386,636ac3f10d9f3b6a0eb54eeb,689ed6d1281858f68c932c05,689f405740fec32ea728e72b,,,,,,,,,,,,,,1,,,,,,,,,,,,,,,,,,,,,,,,,,,,,,,,,,,,,,,,,,,,,,,,,,,,,,,,,40,alfombra,,,,,945.8387,946.8703,0,0,0.4939,,0,57,57,39,1,REAL,FAKE,,,,,,,,,,,,,,,,,
,,,,,,,,,636ac3f10d9f3b6a0eb54eeb,Spanish,13 or older,"no, only English or Spanish",no,2025-08-15_09h23.54.300,empathy_intonation_perc,2024.2.4,Win32,60.24096386,636ac3f10d9f3b6a0eb54eeb,689ed6d1281858f68c932c05,689f405740fec32ea728e72b,,,,,,,,,,,,,,1,,,,,,,,,,,,,,,,,,,,,,,,,,,,,,,,,,,,,,,,,,,,,,,,,,,,,,,,,78,frondoso,,,,,946.8728,948.0907,1,1,0.7023,,0,58,58,77,1,REAL,FAKE,,,,,,,,,,,,,,,,,
,,,,,,,,,636ac3f10d9f3b6a0eb54eeb,Spanish,13 or older,"no, only English or Spanish",no,2025-08-15_09h23.54.300,empathy_intonation_perc,2024.2.4,Win32,60.24096386,636ac3f10d9f3b6a0eb54eeb,689ed6d1281858f68c932c05,689f405740fec32ea728e72b,,,,,,,,,,,,,,1,,,,,,,,,,,,,,,,,,,,,,,,,,,,,,,,,,,,,,,,,,,,,,,,,,,,,,,,,59,besar,,,,,948.0923,949.3382,1,1,0.7166,,0,59,59,58,1,REAL,FAKE,,,,,,,,,,,,,,,,,
,,,,,,,,,636ac3f10d9f3b6a0eb54eeb,Spanish,13 or older,"no, only English or Spanish",no,2025-08-15_09h23.54.300,empathy_intonation_perc,2024.2.4,Win32,60.24096386,636ac3f10d9f3b6a0eb54eeb,689ed6d1281858f68c932c05,689f405740fec32ea728e72b,,,,,,,,,,,,,,1,,,,,,,,,,,,,,,,,,,,,,,,,,,,,,,,,,,,,,,,,,,,,,,,,,,,,,,,,15,regar,,,,,949.3399,950.3204,0,0,0.4625,,0,60,60,14,1,REAL,FAKE,,,,,,,,,,,,,,,,,
,,,,,,,,,636ac3f10d9f3b6a0eb54eeb,Spanish,13 or older,"no, only English or Spanish",no,2025-08-15_09h23.54.300,empathy_intonation_perc,2024.2.4,Win32,60.24096386,636ac3f10d9f3b6a0eb54eeb,689ed6d1281858f68c932c05,689f405740fec32ea728e72b,,,,,,,,,,,,,,0,,,,,,,,,,,,,,,,,,,,,,,,,,,,,,,,,,,,,,,,,,,,,,,,,,,,,,,,,70,temblo,,,,,950.3222,951.6699,1,0,0.8154,,0,61,61,69,1,REAL,FAKE,,,,,,,,,,,,,,,,,
,,,,,,,,,636ac3f10d9f3b6a0eb54eeb,Spanish,13 or older,"no, only English or Spanish",no,2025-08-15_09h23.54.300,empathy_intonation_perc,2024.2.4,Win32,60.24096386,636ac3f10d9f3b6a0eb54eeb,689ed6d1281858f68c932c05,689f405740fec32ea728e72b,,,,,,,,,,,,,,0,,,,,,,,,,,,,,,,,,,,,,,,,,,,,,,,,,,,,,,,,,,,,,,,,,,,,,,,,92,click the 0 key.,,,,,951.6717,953.2367,0,1,1.0244,,0,62,62,91,1,REAL,FAKE,,,,,,,,,,,,,,,,,
,,,,,,,,,636ac3f10d9f3b6a0eb54eeb,Spanish,13 or older,"no, only English or Spanish",no,2025-08-15_09h23.54.300,empathy_intonation_perc,2024.2.4,Win32,60.24096386,636ac3f10d9f3b6a0eb54eeb,689ed6d1281858f68c932c05,689f405740fec32ea728e72b,,,,,,,,,,,,,,1,,,,,,,,,,,,,,,,,,,,,,,,,,,,,,,,,,,,,,,,,,,,,,,,,,,,,,,,,68,alegre,,,,,953.239,954.8919,1,1,1.1205,,0,63,63,67,1,REAL,FAKE,,,,,,,,,,,,,,,,,
,,,,,,,,,636ac3f10d9f3b6a0eb54eeb,Spanish,13 or older,"no, only English or Spanish",no,2025-08-15_09h23.54.300,empathy_intonation_perc,2024.2.4,Win32,60.24096386,636ac3f10d9f3b6a0eb54eeb,689ed6d1281858f68c932c05,689f405740fec32ea728e72b,,,,,,,,,,,,,,0,,,,,,,,,,,,,,,,,,,,,,,,,,,,,,,,,,,,,,,,,,,,,,,,,,,,,,,,,18,arsa,,,,,954.8936,955.7715,0,1,0.348,,0,64,64,17,1,REAL,FAKE,,,,,,,,,,,,,,,,,
,,,,,,,,,636ac3f10d9f3b6a0eb54eeb,Spanish,13 or older,"no, only English or Spanish",no,2025-08-15_09h23.54.300,empathy_intonation_perc,2024.2.4,Win32,60.24096386,636ac3f10d9f3b6a0eb54eeb,689ed6d1281858f68c932c05,689f405740fec32ea728e72b,,,,,,,,,,,,,,1,,,,,,,,,,,,,,,,,,,,,,,,,,,,,,,,,,,,,,,,,,,,,,,,,,,,,,,,,28,merodear,,,,,955.7742,956.8198,1,1,0.5125,,0,65,65,27,1,REAL,FAKE,,,,,,,,,,,,,,,,,
,,,,,,,,,636ac3f10d9f3b6a0eb54eeb,Spanish,13 or older,"no, only English or Spanish",no,2025-08-15_09h23.54.300,empathy_intonation_perc,2024.2.4,Win32,60.24096386,636ac3f10d9f3b6a0eb54eeb,689ed6d1281858f68c932c05,689f405740fec32ea728e72b,,,,,,,,,,,,,,0,,,,,,,,,,,,,,,,,,,,,,,,,,,,,,,,,,,,,,,,,,,,,,,,,,,,,,,,,66,hacido,,,,,956.8221,957.6533,0,1,0.2933,,0,66,66,65,1,REAL,FAKE,,,,,,,,,,,,,,,,,
,,,,,,,,,636ac3f10d9f3b6a0eb54eeb,Spanish,13 or older,"no, only English or Spanish",no,2025-08-15_09h23.54.300,empathy_intonation_perc,2024.2.4,Win32,60.24096386,636ac3f10d9f3b6a0eb54eeb,689ed6d1281858f68c932c05,689f405740fec32ea728e72b,,,,,,,,,,,,,,0,,,,,,,,,,,,,,,,,,,,,,,,,,,,,,,,,,,,,,,,,,,,,,,,,,,,,,,,,58,plaudir,,,,,957.6553,958.5372,1,0,0.3483,,0,67,67,57,1,REAL,FAKE,,,,,,,,,,,,,,,,,
,,,,,,,,,636ac3f10d9f3b6a0eb54eeb,Spanish,13 or older,"no, only English or Spanish",no,2025-08-15_09h23.54.300,empathy_intonation_perc,2024.2.4,Win32,60.24096386,636ac3f10d9f3b6a0eb54eeb,689ed6d1281858f68c932c05,689f405740fec32ea728e72b,,,,,,,,,,,,,,1,,,,,,,,,,,,,,,,,,,,,,,,,,,,,,,,,,,,,,,,,,,,,,,,,,,,,,,,,9,hacha,,,,,958.5399,959.3041,0,0,0.2307,,0,68,68,8,1,REAL,FAKE,,,,,,,,,,,,,,,,,
,,,,,,,,,636ac3f10d9f3b6a0eb54eeb,Spanish,13 or older,"no, only English or Spanish",no,2025-08-15_09h23.54.300,empathy_intonation_perc,2024.2.4,Win32,60.24096386,636ac3f10d9f3b6a0eb54eeb,689ed6d1281858f68c932c05,689f405740fec32ea728e72b,,,,,,,,,,,,,,0,,,,,,,,,,,,,,,,,,,,,,,,,,,,,,,,,,,,,,,,,,,,,,,,,,,,,,,,,35,rompido,,,,,959.3064,960.2085,0,1,0.3662,,0,69,69,34,1,REAL,FAKE,,,,,,,,,,,,,,,,,
,,,,,,,,,636ac3f10d9f3b6a0eb54eeb,Spanish,13 or older,"no, only English or Spanish",no,2025-08-15_09h23.54.300,empathy_intonation_perc,2024.2.4,Win32,60.24096386,636ac3f10d9f3b6a0eb54eeb,689ed6d1281858f68c932c05,689f405740fec32ea728e72b,,,,,,,,,,,,,,1,,,,,,,,,,,,,,,,,,,,,,,,,,,,,,,,,,,,,,,,,,,,,,,,,,,,,,,,,37,granuja,,,,,960.2105,961.1197,1,1,0.3781,,0,70,70,36,1,REAL,FAKE,,,,,,,,,,,,,,,,,
,,,,,,,,,636ac3f10d9f3b6a0eb54eeb,Spanish,13 or older,"no, only English or Spanish",no,2025-08-15_09h23.54.300,empathy_intonation_perc,2024.2.4,Win32,60.24096386,636ac3f10d9f3b6a0eb54eeb,689ed6d1281858f68c932c05,689f405740fec32ea728e72b,,,,,,,,,,,,,,1,,,,,,,,,,,,,,,,,,,,,,,,,,,,,,,,,,,,,,,,,,,,,,,,,,,,,,,,,2,pellizcar,,,,,961.122,962.1536,0,0,0.5123,,0,71,71,1,1,REAL,FAKE,,,,,,,,,,,,,,,,,
,,,,,,,,,636ac3f10d9f3b6a0eb54eeb,Spanish,13 or older,"no, only English or Spanish",no,2025-08-15_09h23.54.300,empathy_intonation_perc,2024.2.4,Win32,60.24096386,636ac3f10d9f3b6a0eb54eeb,689ed6d1281858f68c932c05,689f405740fec32ea728e72b,,,,,,,,,,,,,,1,,,,,,,,,,,,,,,,,,,,,,,,,,,,,,,,,,,,,,,,,,,,,,,,,,,,,,,,,14,yunque,,,,,962.1565,963.0533,0,0,0.3802,,0,72,72,13,1,REAL,FAKE,,,,,,,,,,,,,,,,,
,,,,,,,,,636ac3f10d9f3b6a0eb54eeb,Spanish,13 or older,"no, only English or Spanish",no,2025-08-15_09h23.54.300,empathy_intonation_perc,2024.2.4,Win32,60.24096386,636ac3f10d9f3b6a0eb54eeb,689ed6d1281858f68c932c05,689f405740fec32ea728e72b,,,,,,,,,,,,,,0,,,,,,,,,,,,,,,,,,,,,,,,,,,,,,,,,,,,,,,,,,,,,,,,,,,,,,,,,8,cadeña,,,,,963.0561,963.922,1,0,0.3331,,0,73,73,7,1,REAL,FAKE,,,,,,,,,,,,,,,,,
,,,,,,,,,636ac3f10d9f3b6a0eb54eeb,Spanish,13 or older,"no, only English or Spanish",no,2025-08-15_09h23.54.300,empathy_intonation_perc,2024.2.4,Win32,60.24096386,636ac3f10d9f3b6a0eb54eeb,689ed6d1281858f68c932c05,689f405740fec32ea728e72b,,,,,,,,,,,,,,1,,,,,,,,,,,,,,,,,,,,,,,,,,,,,,,,,,,,,,,,,,,,,,,,,,,,,,,,,81,pozo,,,,,963.9237,964.9201,1,1,0.4606,,0,74,74,80,1,REAL,FAKE,,,,,,,,,,,,,,,,,
,,,,,,,,,636ac3f10d9f3b6a0eb54eeb,Spanish,13 or older,"no, only English or Spanish",no,2025-08-15_09h23.54.300,empathy_intonation_perc,2024.2.4,Win32,60.24096386,636ac3f10d9f3b6a0eb54eeb,689ed6d1281858f68c932c05,689f405740fec32ea728e72b,,,,,,,,,,,,,,1,,,,,,,,,,,,,,,,,,,,,,,,,,,,,,,,,,,,,,,,,,,,,,,,,,,,,,,,,80,hormiga,,,,,964.9229,965.8742,0,0,0.4196,,0,75,75,79,1,REAL,FAKE,,,,,,,,,,,,,,,,,
,,,,,,,,,636ac3f10d9f3b6a0eb54eeb,Spanish,13 or older,"no, only English or Spanish",no,2025-08-15_09h23.54.300,empathy_intonation_perc,2024.2.4,Win32,60.24096386,636ac3f10d9f3b6a0eb54eeb,689ed6d1281858f68c932c05,689f405740fec32ea728e72b,,,,,,,,,,,,,,1,,,,,,,,,,,,,,,,,,,,,,,,,,,,,,,,,,,,,,,,,,,,,,,,,,,,,,,,,43,canela,,,,,965.8758,966.874,0,0,0.4637,,0,76,76,42,1,REAL,FAKE,,,,,,,,,,,,,,,,,
,,,,,,,,,636ac3f10d9f3b6a0eb54eeb,Spanish,13 or older,"no, only English or Spanish",no,2025-08-15_09h23.54.300,empathy_intonation_perc,2024.2.4,Win32,60.24096386,636ac3f10d9f3b6a0eb54eeb,689ed6d1281858f68c932c05,689f405740fec32ea728e72b,,,,,,,,,,,,,,1,,,,,,,,,,,,,,,,,,,,,,,,,,,,,,,,,,,,,,,,,,,,,,,,,,,,,,,,,62,flaco,,,,,966.8763,967.7711,1,1,0.3647,,0,77,77,61,1,REAL,FAKE,,,,,,,,,,,,,,,,,
,,,,,,,,,636ac3f10d9f3b6a0eb54eeb,Spanish,13 or older,"no, only English or Spanish",no,2025-08-15_09h23.54.300,empathy_intonation_perc,2024.2.4,Win32,60.24096386,636ac3f10d9f3b6a0eb54eeb,689ed6d1281858f68c932c05,689f405740fec32ea728e72b,,,,,,,,,,,,,,1,,,,,,,,,,,,,,,,,,,,,,,,,,,,,,,,,,,,,,,,,,,,,,,,,,,,,,,,,61,seda,,,,,967.7729,968.6416,0,0,0.3327,,0,78,78,60,1,REAL,FAKE,,,,,,,,,,,,,,,,,
,,,,,,,,,636ac3f10d9f3b6a0eb54eeb,Spanish,13 or older,"no, only English or Spanish",no,2025-08-15_09h23.54.300,empathy_intonation_perc,2024.2.4,Win32,60.24096386,636ac3f10d9f3b6a0eb54eeb,689ed6d1281858f68c932c05,689f405740fec32ea728e72b,,,,,,,,,,,,,,1,,,,,,,,,,,,,,,,,,,,,,,,,,,,,,,,,,,,,,,,,,,,,,,,,,,,,,,,,75,yacer,,,,,968.6432,969.5707,0,0,0.3975,,0,79,79,74,1,REAL,FAKE,,,,,,,,,,,,,,,,,
,,,,,,,,,636ac3f10d9f3b6a0eb54eeb,Spanish,13 or older,"no, only English or Spanish",no,2025-08-15_09h23.54.300,empathy_intonation_perc,2024.2.4,Win32,60.24096386,636ac3f10d9f3b6a0eb54eeb,689ed6d1281858f68c932c05,689f405740fec32ea728e72b,,,,,,,,,,,,,,1,,,,,,,,,,,,,,,,,,,,,,,,,,,,,,,,,,,,,,,,,,,,,,,,,,,,,,,,,26,secuestro,,,,,969.5726,970.5228,1,1,0.434,,0,80,80,25,1,REAL,FAKE,,,,,,,,,,,,,,,,,
,,,,,,,,,636ac3f10d9f3b6a0eb54eeb,Spanish,13 or older,"no, only English or Spanish",no,2025-08-15_09h23.54.300,empathy_intonation_perc,2024.2.4,Win32,60.24096386,636ac3f10d9f3b6a0eb54eeb,689ed6d1281858f68c932c05,689f405740fec32ea728e72b,,,,,,,,,,,,,,1,,,,,,,,,,,,,,,,,,,,,,,,,,,,,,,,,,,,,,,,,,,,,,,,,,,,,,,,,88,acantilado,,,,,970.5253,971.5389,1,1,0.4822,,0,81,81,87,1,REAL,FAKE,,,,,,,,,,,,,,,,,
,,,,,,,,,636ac3f10d9f3b6a0eb54eeb,Spanish,13 or older,"no, only English or Spanish",no,2025-08-15_09h23.54.300,empathy_intonation_perc,2024.2.4,Win32,60.24096386,636ac3f10d9f3b6a0eb54eeb,689ed6d1281858f68c932c05,689f405740fec32ea728e72b,,,,,,,,,,,,,,1,,,,,,,,,,,,,,,,,,,,,,,,,,,,,,,,,,,,,,,,,,,,,,,,,,,,,,,,,6,tergiversar,,,,,971.5414,972.4369,0,0,0.3568,,0,82,82,5,1,REAL,FAKE,,,,,,,,,,,,,,,,,
,,,,,,,,,636ac3f10d9f3b6a0eb54eeb,Spanish,13 or older,"no, only English or Spanish",no,2025-08-15_09h23.54.300,empathy_intonation_perc,2024.2.4,Win32,60.24096386,636ac3f10d9f3b6a0eb54eeb,689ed6d1281858f68c932c05,689f405740fec32ea728e72b,,,,,,,,,,,,,,1,,,,,,,,,,,,,,,,,,,,,,,,,,,,,,,,,,,,,,,,,,,,,,,,,,,,,,,,,49,ganar,,,,,972.4394,973.3073,1,1,0.3354,,0,83,83,48,1,REAL,FAKE,,,,,,,,,,,,,,,,,
,,,,,,,,,636ac3f10d9f3b6a0eb54eeb,Spanish,13 or older,"no, only English or Spanish",no,2025-08-15_09h23.54.300,empathy_intonation_perc,2024.2.4,Win32,60.24096386,636ac3f10d9f3b6a0eb54eeb,689ed6d1281858f68c932c05,689f405740fec32ea728e72b,,,,,,,,,,,,,,1,,,,,,,,,,,,,,,,,,,,,,,,,,,,,,,,,,,,,,,,,,,,,,,,,,,,,,,,,86,barato,,,,,973.3092,974.2206,0,0,0.3797,,0,84,84,85,1,REAL,FAKE,,,,,,,,,,,,,,,,,
,,,,,,,,,636ac3f10d9f3b6a0eb54eeb,Spanish,13 or older,"no, only English or Spanish",no,2025-08-15_09h23.54.300,empathy_intonation_perc,2024.2.4,Win32,60.24096386,636ac3f10d9f3b6a0eb54eeb,689ed6d1281858f68c932c05,689f405740fec32ea728e72b,,,,,,,,,,,,,,0,,,,,,,,,,,,,,,,,,,,,,,,,,,,,,,,,,,,,,,,,,,,,,,,,,,,,,,,,10,antar,,,,,974.223,975.0744,0,1,0.3158,,0,85,85,9,1,REAL,FAKE,,,,,,,,,,,,,,,,,
,,,,,,,,,636ac3f10d9f3b6a0eb54eeb,Spanish,13 or older,"no, only English or Spanish",no,2025-08-15_09h23.54.300,empathy_intonation_perc,2024.2.4,Win32,60.24096386,636ac3f10d9f3b6a0eb54eeb,689ed6d1281858f68c932c05,689f405740fec32ea728e72b,,,,,,,,,,,,,,1,,,,,,,,,,,,,,,,,,,,,,,,,,,,,,,,,,,,,,,,,,,,,,,,,,,,,,,,,51,candado,,,,,975.0762,976.054,0,0,0.4477,,0,86,86,50,1,REAL,FAKE,,,,,,,,,,,,,,,,,
,,,,,,,,,636ac3f10d9f3b6a0eb54eeb,Spanish,13 or older,"no, only English or Spanish",no,2025-08-15_09h23.54.300,empathy_intonation_perc,2024.2.4,Win32,60.24096386,636ac3f10d9f3b6a0eb54eeb,689ed6d1281858f68c932c05,689f405740fec32ea728e72b,,,,,,,,,,,,,,0,,,,,,,,,,,,,,,,,,,,,,,,,,,,,,,,,,,,,,,,,,,,,,,,,,,,,,,,,21,capillo,,,,,976.0572,977.1869,1,0,0.5956,,0,87,87,20,1,REAL,FAKE,,,,,,,,,,,,,,,,,
,,,,,,,,,636ac3f10d9f3b6a0eb54eeb,Spanish,13 or older,"no, only English or Spanish",no,2025-08-15_09h23.54.300,empathy_intonation_perc,2024.2.4,Win32,60.24096386,636ac3f10d9f3b6a0eb54eeb,689ed6d1281858f68c932c05,689f405740fec32ea728e72b,,,,,,,,,,,,,,1,,,,,,,,,,,,,,,,,,,,,,,,,,,,,,,,,,,,,,,,,,,,,,,,,,,,,,,,,24,látigo,,,,,977.1895,978.0037,1,1,0.2816,,0,88,88,23,1,REAL,FAKE,,,,,,,,,,,,,,,,,
,,,,,,,,,636ac3f10d9f3b6a0eb54eeb,Spanish,13 or older,"no, only English or Spanish",no,2025-08-15_09h23.54.300,empathy_intonation_perc,2024.2.4,Win32,60.24096386,636ac3f10d9f3b6a0eb54eeb,689ed6d1281858f68c932c05,689f405740fec32ea728e72b,,,,,,,,,,,,,,0,,,,,,,,,,,,,,,,,,,,,,,,,,,,,,,,,,,,,,,,,,,,,,,,,,,,,,,,,50,flamida,,,,,978.0067,979.0579,1,0,0.5152,,0,89,89,49,1,REAL,FAKE,,,,,,,,,,,,,,,,,
,,,,,,,,,636ac3f10d9f3b6a0eb54eeb,Spanish,13 or older,"no, only English or Spanish",no,2025-08-15_09h23.54.300,empathy_intonation_perc,2024.2.4,Win32,60.24096386,636ac3f10d9f3b6a0eb54eeb,689ed6d1281858f68c932c05,689f405740fec32ea728e72b,,,,,,,,,,,,,,0,,,,,,,,,,,,,,,,,,,,,,,,,,,,,,,,,,,,,,,,,,,,,,,,,,,,,,,,,19,brecedad,,,,,979.0599,980.0047,1,0,0.4139,,0,90,90,18,1,REAL,FAKE,,,,,,,,,,,,,,,,,
,,,,,,,,,636ac3f10d9f3b6a0eb54eeb,Spanish,13 or older,"no, only English or Spanish",no,2025-08-15_09h23.54.300,empathy_intonation_perc,2024.2.4,Win32,60.24096386,636ac3f10d9f3b6a0eb54eeb,689ed6d1281858f68c932c05,689f405740fec32ea728e72b,,,,,,,,,,,,,,0,,,,,,,,,,,,,,,,,,,,,,,,,,,,,,,,,,,,,,,,,,,,,,,,,,,,,,,,,4,batillón,,,,,980.0068,980.9081,0,1,0.3697,,0,91,91,3,1,REAL,FAKE,,,,,,,,,,,,,,,,,
,,,,,,,,,636ac3f10d9f3b6a0eb54eeb,Spanish,13 or older,"no, only English or Spanish",no,2025-08-15_09h23.54.300,empathy_intonation_perc,2024.2.4,Win32,60.24096386,636ac3f10d9f3b6a0eb54eeb,689ed6d1281858f68c932c05,689f405740fec32ea728e72b,,,,,,,,,,,,,,,,,,,,,,,,,,,,,,,,,,,,,,,,,,,,,,,,,,,,,,,,,,,,,,,,,,,,,,,,,,,,,,,,,,,,,,,,,,980.9091,983.8575,,,,,,,,,,,,,,,
,,,,,,,,,636ac3f10d9f3b6a0eb54eeb,Spanish,13 or older,"no, only English or Spanish",no,2025-08-15_09h23.54.300,empathy_intonation_perc,2024.2.4,Win32,60.24096386,636ac3f10d9f3b6a0eb54eeb,689ed6d1281858f68c932c05,689f405740fec32ea728e72b,,,,,,,,,,,,,1,,,,,,,,,,,,,,,,,,,,,,,,,,,,,,,,,,,,,,,,,,,,,,,,,,,,,,,,,,,,,,,,,,,,,,,,,,,,,,,983.8752,994.4642,strongly agree,0,0,0,0,1,I can easily tell if someone else wants to enter a conversation.,1,0,1,0,,
,,,,,,,,,636ac3f10d9f3b6a0eb54eeb,Spanish,13 or older,"no, only English or Spanish",no,2025-08-15_09h23.54.300,empathy_intonation_perc,2024.2.4,Win32,60.24096386,636ac3f10d9f3b6a0eb54eeb,689ed6d1281858f68c932c05,689f405740fec32ea728e72b,,,,,,,,,,,,,2,,,,,,,,,,,,,,,,,,,,,,,,,,,,,,,,,,,,,,,,,,,,,,,,,,,,,,,,,,,,,,,,,,,,,,,,,,,,,,,994.4674,1001.323,strongly disagree,0,1,1,1,1,I prefer animals to humans.,0,1,0,0,,
,,,,,,,,,636ac3f10d9f3b6a0eb54eeb,Spanish,13 or older,"no, only English or Spanish",no,2025-08-15_09h23.54.300,empathy_intonation_perc,2024.2.4,Win32,60.24096386,636ac3f10d9f3b6a0eb54eeb,689ed6d1281858f68c932c05,689f405740fec32ea728e72b,,,,,,,,,,,,,3,,,,,,,,,,,,,,,,,,,,,,,,,,,,,,,,,,,,,,,,,,,,,,,,,,,,,,,,,,,,,,,,,,,,,,,,,,,,,,,1001.3267,1013.6264,strongly agree,0,2,2,2,1,I try to keep up with the current trends and fashions.,0,1,0,0,,
,,,,,,,,,636ac3f10d9f3b6a0eb54eeb,Spanish,13 or older,"no, only English or Spanish",no,2025-08-15_09h23.54.300,empathy_intonation_perc,2024.2.4,Win32,60.24096386,636ac3f10d9f3b6a0eb54eeb,689ed6d1281858f68c932c05,689f405740fec32ea728e72b,,,,,,,,,,,,,4,,,,,,,,,,,,,,,,,,,,,,,,,,,,,,,,,,,,,,,,,,,,,,,,,,,,,,,,,,,,,,,,,,,,,,,,,,,,,,,1013.6304,1021.8602,strongly disagree,0,3,3,3,1,"I find it difficult to explain to others things that I understand easily,   when they don't understand it first time.",1,0,0,1,,
,,,,,,,,,636ac3f10d9f3b6a0eb54eeb,Spanish,13 or older,"no, only English or Spanish",no,2025-08-15_09h23.54.300,empathy_intonation_perc,2024.2.4,Win32,60.24096386,636ac3f10d9f3b6a0eb54eeb,689ed6d1281858f68c932c05,689f405740fec32ea728e72b,,,,,,,,,,,,,5,,,,,,,,,,,,,,,,,,,,,,,,,,,,,,,,,,,,,,,,,,,,,,,,,,,,,,,,,,,,,,,,,,,,,,,,,,,,,,,1021.8635,1026.8889,slightly disagree,0,4,4,4,1,I dream most nights.,0,1,0,0,,
,,,,,,,,,636ac3f10d9f3b6a0eb54eeb,Spanish,13 or older,"no, only English or Spanish",no,2025-08-15_09h23.54.300,empathy_intonation_perc,2024.2.4,Win32,60.24096386,636ac3f10d9f3b6a0eb54eeb,689ed6d1281858f68c932c05,689f405740fec32ea728e72b,,,,,,,,,,,,,6,,,,,,,,,,,,,,,,,,,,,,,,,,,,,,,,,,,,,,,,,,,,,,,,,,,,,,,,,,,,,,,,,,,,,,,,,,,,,,,1026.8916,1031.842,strongly agree,0,5,5,5,1,I really enjoy caring for other people.,1,0,1,0,,
,,,,,,,,,636ac3f10d9f3b6a0eb54eeb,Spanish,13 or older,"no, only English or Spanish",no,2025-08-15_09h23.54.300,empathy_intonation_perc,2024.2.4,Win32,60.24096386,636ac3f10d9f3b6a0eb54eeb,689ed6d1281858f68c932c05,689f405740fec32ea728e72b,,,,,,,,,,,,,7,,,,,,,,,,,,,,,,,,,,,,,,,,,,,,,,,,,,,,,,,,,,,,,,,,,,,,,,,,,,,,,,,,,,,,,,,,,,,,,1031.846,1033.3703,strongly agree,0,6,6,6,1,I try to solve my own problems rather than discussing them with others.,0,1,0,0,,
,,,,,,,,,636ac3f10d9f3b6a0eb54eeb,Spanish,13 or older,"no, only English or Spanish",no,2025-08-15_09h23.54.300,empathy_intonation_perc,2024.2.4,Win32,60.24096386,636ac3f10d9f3b6a0eb54eeb,689ed6d1281858f68c932c05,689f405740fec32ea728e72b,,,,,,,,,,,,,8,,,,,,,,,,,,,,,,,,,,,,,,,,,,,,,,,,,,,,,,,,,,,,,,,,,,,,,,,,,,,,,,,,,,,,,,,,,,,,,1033.3741,1034.1027,slightly disagree,0,7,7,7,1,I find it hard to know what to do in a social situation.,1,0,0,1,,
,,,,,,,,,636ac3f10d9f3b6a0eb54eeb,Spanish,13 or older,"no, only English or Spanish",no,2025-08-15_09h23.54.300,empathy_intonation_perc,2024.2.4,Win32,60.24096386,636ac3f10d9f3b6a0eb54eeb,689ed6d1281858f68c932c05,689f405740fec32ea728e72b,,,,,,,,,,,,,9,,,,,,,,,,,,,,,,,,,,,,,,,,,,,,,,,,,,,,,,,,,,,,,,,,,,,,,,,,,,,,,,,,,,,,,,,,,,,,,1034.1056,1035.4096,strongly agree,0,8,8,8,1,I am at my best first thing in the morning.,0,1,0,0,,
