instructions_exposure.started,instructions_exposure.stopped,instructions_exposure_loop.thisRepN,instructions_exposure_loop.thisTrialN,instructions_exposure_loop.thisN,instructions_exposure_loop.thisIndex,instructions_exposure_loop.ran,instructions_text,continue_text,participant_id,"What variety of Spanish are you most familiar with? (e.g., Peruvian, Spanish, Mexican)",At what age did you begin learning Spanish?,Are you proficient in any languages other than English/Spanish?,"Are you familiar with Caribbean (e.g., Caribbean, Puerto Rican) or Galician Spanish?",date,expName,psychopyVersion,OS,frameRate,id,study_id,session,trial_exposure.started,trial_exposure.stopped,key_resp_exposure.keys,key_resp_exposure.corr,key_resp_exposure.rt,key_resp_exposure.duration,key_resp.keys,exposure_loop.thisRepN,exposure_loop.thisTrialN,exposure_loop.thisN,exposure_loop.thisIndex,exposure_loop.ran,item_num,correct_response,question,path,duration,instructions_2afc.started,instructions_2afc.stopped,instructions_2afc_loop.thisRepN,instructions_2afc_loop.thisTrialN,instructions_2afc_loop.thisN,instructions_2afc_loop.thisIndex,instructions_2afc_loop.ran,practice_2afc.started,practice_2afc.stopped,key_resp_2afc_practice.keys,key_resp_2afc_practice.corr,key_resp_2afc_practice.rt,key_resp_2afc_practice.duration,trials_2afc_practice_loop.thisRepN,trials_2afc_practice_loop.thisTrialN,trials_2afc_practice_loop.thisN,trials_2afc_practice_loop.thisIndex,trials_2afc_practice_loop.ran,check_2afc.started,check_2afc.stopped,trial_2afc.started,trial_2afc.stopped,key_resp_2afc_trial.keys,key_resp_2afc_trial.corr,key_resp_2afc_trial.rt,key_resp_2afc_trial.duration,trials_2afc_loop.thisRepN,trials_2afc_loop.thisTrialN,trials_2afc_loop.thisN,trials_2afc_loop.thisIndex,trials_2afc_loop.ran,target,variety,instructions_lextale.started,instructions_lextale.stopped,instructions_lextale_loop.thisRepN,instructions_lextale_loop.thisTrialN,instructions_lextale_loop.thisN,instructions_lextale_loop.thisIndex,instructions_lextale_loop.ran,practice_lextale.started,practice_lextale.stopped,key_resp_lextale_practice.keys,key_resp_lextale_practice.corr,key_resp_lextale_practice.rt,key_resp_lextale_practice.duration,practice_feedback_lextale.started,practice_feedback_lextale.stopped,trials_lextale_practice_loop.thisRepN,trials_lextale_practice_loop.thisTrialN,trials_lextale_practice_loop.thisN,trials_lextale_practice_loop.thisIndex,trials_lextale_practice_loop.ran,stim,word,prac_button_real,prac_button_false,check_lextale.started,check_lextale.stopped,trial_lextale.started,trial_lextale.stopped,key_resp_lextale_trial.keys,key_resp_lextale_trial.corr,key_resp_lextale_trial.rt,key_resp_lextale_trial.duration,trials_lextale_loop.thisRepN,trials_lextale_loop.thisTrialN,trials_lextale_loop.thisN,trials_lextale_loop.thisIndex,trials_lextale_loop.ran,button_real,button_false,instructions_eq.started,instructions_eq.stopped,trial_eq.started,trial_eq.stopped,slider_eq_trial.response,trials_eq_loop.thisRepN,trials_eq_loop.thisTrialN,trials_eq_loop.thisN,trials_eq_loop.thisIndex,trials_eq_loop.ran,item,is_test_item,is_distractor,is_agree_score,is_disagree_score,end_exp.started,end_exp.stopped
0.0143,5.0659,0,0,0,0,1,"In the following task, you are going to hear a series of conversations.", (press the space bar to continue),63d13e9a41e1c279a151bd4b,Spanish,younger than 13,"no, only English or Spanish",no,2025-07-23_07h15.42.713,empathy_intonation_perc,2024.2.4,Win32,60.60606061,63d13e9a41e1c279a151bd4b,687ed1b7e638a4cbf2f02089,6880c42edab76013a83c9671,,,,,,,,,,,,,,,,,,,,,,,,,,,,,,,,,,,,,,,,,,,,,,,,,,,,,,,,,,,,,,,,,,,,,,,,,,,,,,,,,,,,,,,,,,,,,,,,,,,,,,,,,,
5.0662,6.4001,0,1,1,1,1,It is okay if you don't not 100% understand them!, (press the space bar to continue),63d13e9a41e1c279a151bd4b,Spanish,younger than 13,"no, only English or Spanish",no,2025-07-23_07h15.42.713,empathy_intonation_perc,2024.2.4,Win32,60.60606061,63d13e9a41e1c279a151bd4b,687ed1b7e638a4cbf2f02089,6880c42edab76013a83c9671,,,,,,,,,,,,,,,,,,,,,,,,,,,,,,,,,,,,,,,,,,,,,,,,,,,,,,,,,,,,,,,,,,,,,,,,,,,,,,,,,,,,,,,,,,,,,,,,,,,,,,,,,,
6.401,7.7837,0,2,2,2,1,"After, you will read a sentence about the conversation and decide if it's true or false.", (press the space bar to continue),63d13e9a41e1c279a151bd4b,Spanish,younger than 13,"no, only English or Spanish",no,2025-07-23_07h15.42.713,empathy_intonation_perc,2024.2.4,Win32,60.60606061,63d13e9a41e1c279a151bd4b,687ed1b7e638a4cbf2f02089,6880c42edab76013a83c9671,,,,,,,,,,,,,,,,,,,,,,,,,,,,,,,,,,,,,,,,,,,,,,,,,,,,,,,,,,,,,,,,,,,,,,,,,,,,,,,,,,,,,,,,,,,,,,,,,,,,,,,,,,
7.7846,8.3455,0,3,3,3,1,"If it's true, press '1' (True) and if it's false press '0' (False).", (press the space bar to continue),63d13e9a41e1c279a151bd4b,Spanish,younger than 13,"no, only English or Spanish",no,2025-07-23_07h15.42.713,empathy_intonation_perc,2024.2.4,Win32,60.60606061,63d13e9a41e1c279a151bd4b,687ed1b7e638a4cbf2f02089,6880c42edab76013a83c9671,,,,,,,,,,,,,,,,,,,,,,,,,,,,,,,,,,,,,,,,,,,,,,,,,,,,,,,,,,,,,,,,,,,,,,,,,,,,,,,,,,,,,,,,,,,,,,,,,,,,,,,,,,
,,,,,,,,,63d13e9a41e1c279a151bd4b,Spanish,younger than 13,"no, only English or Spanish",no,2025-07-23_07h15.42.713,empathy_intonation_perc,2024.2.4,Win32,60.60606061,63d13e9a41e1c279a151bd4b,687ed1b7e638a4cbf2f02089,6880c42edab76013a83c9671,8.3503,69.3283,1,1,13.9334,,,0,0,0,0,1,1,1,The son asked the mom if Aunt Marina is okay.,./stim/exposure_wavs/ga_stimuli_convo.wav,47,,,,,,,,,,,,,,,,,,,,,,,,,,,,,,,,,,,,,,,,,,,,,,,,,,,,,,,,,,,,,,,,,,,,,,,,,,,,,,,,,,,,,,,,,
,,,,,,,,,63d13e9a41e1c279a151bd4b,Spanish,younger than 13,"no, only English or Spanish",no,2025-07-23_07h15.42.713,empathy_intonation_perc,2024.2.4,Win32,60.60606061,63d13e9a41e1c279a151bd4b,687ed1b7e638a4cbf2f02089,6880c42edab76013a83c9671,69.3299,122.264,1,0,16.8989,,,0,1,1,2,1,3,0,The mom already has rice.,./stim/exposure_wavs/pr_stimuli_convo.wav,36,,,,,,,,,,,,,,,,,,,,,,,,,,,,,,,,,,,,,,,,,,,,,,,,,,,,,,,,,,,,,,,,,,,,,,,,,,,,,,,,,,,,,,,,,
,,,,,,,,,63d13e9a41e1c279a151bd4b,Spanish,younger than 13,"no, only English or Spanish",no,2025-07-23_07h15.42.713,empathy_intonation_perc,2024.2.4,Win32,60.60606061,63d13e9a41e1c279a151bd4b,687ed1b7e638a4cbf2f02089,6880c42edab76013a83c9671,122.2656,184.1737,0,0,1.8798,,,0,2,2,1,1,2,1,The mom asked the daughter if she already went to the supermarket.,./stim/exposure_wavs/dr_stimuli_convo.wav,60,,,,,,,,,,,,,,,,,,,,,,,,,,,,,,,,,,,,,,,,,,,,,,,,,,,,,,,,,,,,,,,,,,,,,,,,,,,,,,,,,,,,,,,,,
,,,,,,,"In the following task you are going to hear a series of utterances. 

  You will decide if the utterances sound like questions or not using your keyboard.", (press the spacebar to continue),63d13e9a41e1c279a151bd4b,Spanish,younger than 13,"no, only English or Spanish",no,2025-07-23_07h15.42.713,empathy_intonation_perc,2024.2.4,Win32,60.60606061,63d13e9a41e1c279a151bd4b,687ed1b7e638a4cbf2f02089,6880c42edab76013a83c9671,,,,,,,,,,,,,,,,,,184.1781,188.7419,0,0,0,0,1,,,,,,,,,,,,,,,,,,,,,,,,,,,,,,,,,,,,,,,,,,,,,,,,,,,,,,,,,,,,,,,,,,,,,,,,,,,,,,,,,,
,,,,,,,"If you believe the utterance is a question, type '1' (for 'yes') and if you do not 
  believe it is a question type '0' (for 'no').

  Let's practice a bit...", (press the spacebar to continue),63d13e9a41e1c279a151bd4b,Spanish,younger than 13,"no, only English or Spanish",no,2025-07-23_07h15.42.713,empathy_intonation_perc,2024.2.4,Win32,60.60606061,63d13e9a41e1c279a151bd4b,687ed1b7e638a4cbf2f02089,6880c42edab76013a83c9671,,,,,,,,,,,,,,,,,,188.7435,190.2073,0,1,1,1,1,,,,,,,,,,,,,,,,,,,,,,,,,,,,,,,,,,,,,,,,,,,,,,,,,,,,,,,,,,,,,,,,,,,,,,,,,,,,,,,,,,
,,,,,,,,,63d13e9a41e1c279a151bd4b,Spanish,younger than 13,"no, only English or Spanish",no,2025-07-23_07h15.42.713,empathy_intonation_perc,2024.2.4,Win32,60.60606061,63d13e9a41e1c279a151bd4b,687ed1b7e638a4cbf2f02089,6880c42edab76013a83c9671,,,,,,,,,,,,,,0,,./stim/wavs/puertorican_statement_filler_La-nina-pinta-con-su-amiga.wav,,,,,,,,,190.2113,196.3082,0,1,5.5678,,0,0,0,7,1,,,,,,,,,,,,,,,,,,,,,,,,,,,,,,,,,,,,,,,,,,,,,,,,,,,,,,,,,,,,,,,,,,,,,,,
,,,,,,,,,63d13e9a41e1c279a151bd4b,Spanish,younger than 13,"no, only English or Spanish",no,2025-07-23_07h15.42.713,empathy_intonation_perc,2024.2.4,Win32,60.60606061,63d13e9a41e1c279a151bd4b,687ed1b7e638a4cbf2f02089,6880c42edab76013a83c9671,,,,,,,,,,,,,,0,,./stim/wavs/cuban_statement_filler_Cocinabas-por-la-noche.wav,,,,,,,,,196.3089,204.6232,1,0,7.7852,,0,1,1,4,1,,,,,,,,,,,,,,,,,,,,,,,,,,,,,,,,,,,,,,,,,,,,,,,,,,,,,,,,,,,,,,,,,,,,,,,
,,,,,,,,,63d13e9a41e1c279a151bd4b,Spanish,younger than 13,"no, only English or Spanish",no,2025-07-23_07h15.42.713,empathy_intonation_perc,2024.2.4,Win32,60.60606061,63d13e9a41e1c279a151bd4b,687ed1b7e638a4cbf2f02089,6880c42edab76013a83c9671,,,,,,,,,,,,,,1,,./stim/wavs/chilean_question_filler_Mi-padre-cantaba-bien.wav,,,,,,,,,204.6241,205.4235,1,1,0.2722,,0,2,2,2,1,,,,,,,,,,,,,,,,,,,,,,,,,,,,,,,,,,,,,,,,,,,,,,,,,,,,,,,,,,,,,,,,,,,,,,,
,,,,,,,,,63d13e9a41e1c279a151bd4b,Spanish,younger than 13,"no, only English or Spanish",no,2025-07-23_07h15.42.713,empathy_intonation_perc,2024.2.4,Win32,60.60606061,63d13e9a41e1c279a151bd4b,687ed1b7e638a4cbf2f02089,6880c42edab76013a83c9671,,,,,,,,,,,,,,0,,./stim/wavs/peruvian_statement_filler_El-nino-habla-con-su-madre.wav,,,,,,,,,205.4245,239.056,0,1,33.1079,,0,3,3,6,1,,,,,,,,,,,,,,,,,,,,,,,,,,,,,,,,,,,,,,,,,,,,,,,,,,,,,,,,,,,,,,,,,,,,,,,
,,,,,,,,,63d13e9a41e1c279a151bd4b,Spanish,younger than 13,"no, only English or Spanish",no,2025-07-23_07h15.42.713,empathy_intonation_perc,2024.2.4,Win32,60.60606061,63d13e9a41e1c279a151bd4b,687ed1b7e638a4cbf2f02089,6880c42edab76013a83c9671,,,,,,,,,,,,,,1,,./stim/wavs/mexican_question_filler_Felipe-no-tiene-contrasena.wav,,,,,,,,,239.0568,249.2557,0,0,9.6741,,0,4,4,3,1,,,,,,,,,,,,,,,,,,,,,,,,,,,,,,,,,,,,,,,,,,,,,,,,,,,,,,,,,,,,,,,,,,,,,,,
,,,,,,,,,63d13e9a41e1c279a151bd4b,Spanish,younger than 13,"no, only English or Spanish",no,2025-07-23_07h15.42.713,empathy_intonation_perc,2024.2.4,Win32,60.60606061,63d13e9a41e1c279a151bd4b,687ed1b7e638a4cbf2f02089,6880c42edab76013a83c9671,,,,,,,,,,,,,,0,,./stim/wavs/andalusian_statement_filler_Alberto-nunca-se-afeita.wav,,,,,,,,,249.2569,259.5224,1,0,9.7349,,0,5,5,5,1,,,,,,,,,,,,,,,,,,,,,,,,,,,,,,,,,,,,,,,,,,,,,,,,,,,,,,,,,,,,,,,,,,,,,,,
,,,,,,,,,63d13e9a41e1c279a151bd4b,Spanish,younger than 13,"no, only English or Spanish",no,2025-07-23_07h15.42.713,empathy_intonation_perc,2024.2.4,Win32,60.60606061,63d13e9a41e1c279a151bd4b,687ed1b7e638a4cbf2f02089,6880c42edab76013a83c9671,,,,,,,,,,,,,,1,,./stim/wavs/argentine_question_filler_Mi-vecino-habla-mucho.wav,,,,,,,,,259.5232,276.7558,1,1,16.6998,,0,6,6,1,1,,,,,,,,,,,,,,,,,,,,,,,,,,,,,,,,,,,,,,,,,,,,,,,,,,,,,,,,,,,,,,,,,,,,,,,
,,,,,,,,,63d13e9a41e1c279a151bd4b,Spanish,younger than 13,"no, only English or Spanish",no,2025-07-23_07h15.42.713,empathy_intonation_perc,2024.2.4,Win32,60.60606061,63d13e9a41e1c279a151bd4b,687ed1b7e638a4cbf2f02089,6880c42edab76013a83c9671,,,,,,,,,,,,,,1,,./stim/wavs/castilian_question_filler_Mi-esposo-conoce-al-chico.wav,,,,,,,,,276.7563,287.8053,0,0,10.5163,,0,7,7,0,1,,,,,,,,,,,,,,,,,,,,,,,,,,,,,,,,,,,,,,,,,,,,,,,,,,,,,,,,,,,,,,,,,,,,,,,
,,,,,,,,,63d13e9a41e1c279a151bd4b,Spanish,younger than 13,"no, only English or Spanish",no,2025-07-23_07h15.42.713,empathy_intonation_perc,2024.2.4,Win32,60.60606061,63d13e9a41e1c279a151bd4b,687ed1b7e638a4cbf2f02089,6880c42edab76013a83c9671,,,,,,,,,,,,,,,,,,,,,,,,,,,,,,,,,,,,287.8058,293.7724,,,,,,,,,,,,,,,,,,,,,,,,,,,,,,,,,,,,,,,,,,,,,,,,,,,,,,,,,,,,,,,,,,,,,
,,,,,,,,,63d13e9a41e1c279a151bd4b,Spanish,younger than 13,"no, only English or Spanish",no,2025-07-23_07h15.42.713,empathy_intonation_perc,2024.2.4,Win32,60.60606061,63d13e9a41e1c279a151bd4b,687ed1b7e638a4cbf2f02089,6880c42edab76013a83c9671,,,,,,,,,,,,,31,1,,./stim/wavs/cuban_mismatch_interrogative-total-yn_El-nino-oye-el-rio.wav,,,,,,,,,,,,,,,,,,,,,,293.7793,300.5051,1,1,6.2099,,0,0,0,30,1,1,cuban,,,,,,,,,,,,,,,,,,,,,,,,,,,,,,,,,,,,,,,,,,,,,,,,,,,,,,,,
,,,,,,,,,63d13e9a41e1c279a151bd4b,Spanish,younger than 13,"no, only English or Spanish",no,2025-07-23_07h15.42.713,empathy_intonation_perc,2024.2.4,Win32,60.60606061,63d13e9a41e1c279a151bd4b,687ed1b7e638a4cbf2f02089,6880c42edab76013a83c9671,,,,,,,,,,,,,7,1,,./stim/wavs/cuban_match_interrogative-total-yn_Ana-lleva-el-abrigo.wav,,,,,,,,,,,,,,,,,,,,,,300.5056,308.0879,0,0,7.0501,,0,1,1,6,1,1,cuban,,,,,,,,,,,,,,,,,,,,,,,,,,,,,,,,,,,,,,,,,,,,,,,,,,,,,,,,
,,,,,,,,,63d13e9a41e1c279a151bd4b,Spanish,younger than 13,"no, only English or Spanish",no,2025-07-23_07h15.42.713,empathy_intonation_perc,2024.2.4,Win32,60.60606061,63d13e9a41e1c279a151bd4b,687ed1b7e638a4cbf2f02089,6880c42edab76013a83c9671,,,,,,,,,,,,,19,1,,./stim/wavs/puertorican_match_interrogative-total-yn_Ana-lleva-el-abrigo.wav,,,,,,,,,,,,,,,,,,,,,,308.0887,309.288,0,0,0.6676,,0,2,2,18,1,1,puertorican,,,,,,,,,,,,,,,,,,,,,,,,,,,,,,,,,,,,,,,,,,,,,,,,,,,,,,,,
,,,,,,,,,63d13e9a41e1c279a151bd4b,Spanish,younger than 13,"no, only English or Spanish",no,2025-07-23_07h15.42.713,empathy_intonation_perc,2024.2.4,Win32,60.60606061,63d13e9a41e1c279a151bd4b,687ed1b7e638a4cbf2f02089,6880c42edab76013a83c9671,,,,,,,,,,,,,75,0,,./stim/wavs/cuban_mismatch_declarative-broad-focus_El-hombre-mira-la-luna.wav,,,,,,,,,,,,,,,,,,,,,,309.2887,317.7715,0,1,7.9498,,0,3,3,74,1,0,cuban,,,,,,,,,,,,,,,,,,,,,,,,,,,,,,,,,,,,,,,,,,,,,,,,,,,,,,,,
,,,,,,,,,63d13e9a41e1c279a151bd4b,Spanish,younger than 13,"no, only English or Spanish",no,2025-07-23_07h15.42.713,empathy_intonation_perc,2024.2.4,Win32,60.60606061,63d13e9a41e1c279a151bd4b,687ed1b7e638a4cbf2f02089,6880c42edab76013a83c9671,,,,,,,,,,,,,21,1,,./stim/wavs/puertorican_match_interrogative-total-yn_David-leia-el-libro.wav,,,,,,,,,,,,,,,,,,,,,,317.772,325.2045,0,0,6.9038,,0,4,4,20,1,1,puertorican,,,,,,,,,,,,,,,,,,,,,,,,,,,,,,,,,,,,,,,,,,,,,,,,,,,,,,,,
,,,,,,,,,63d13e9a41e1c279a151bd4b,Spanish,younger than 13,"no, only English or Spanish",no,2025-07-23_07h15.42.713,empathy_intonation_perc,2024.2.4,Win32,60.60606061,63d13e9a41e1c279a151bd4b,687ed1b7e638a4cbf2f02089,6880c42edab76013a83c9671,,,,,,,,,,,,,33,1,,./stim/wavs/cuban_mismatch_interrogative-total-yn_Mi-novio-viene-del-lago.wav,,,,,,,,,,,,,,,,,,,,,,325.2048,335.1377,0,0,9.4184,,0,5,5,32,1,1,cuban,,,,,,,,,,,,,,,,,,,,,,,,,,,,,,,,,,,,,,,,,,,,,,,,,,,,,,,,
,,,,,,,,,63d13e9a41e1c279a151bd4b,Spanish,younger than 13,"no, only English or Spanish",no,2025-07-23_07h15.42.713,empathy_intonation_perc,2024.2.4,Win32,60.60606061,63d13e9a41e1c279a151bd4b,687ed1b7e638a4cbf2f02089,6880c42edab76013a83c9671,,,,,,,,,,,,,73,0,,./stim/wavs/castilian_mismatch_declarative-broad-focus_Mi-tia-odia-la-lluvia.wav,,,,,,,,,,,,,,,,,,,,,,335.1381,342.6209,0,1,6.9501,,0,6,6,72,1,0,castilian,,,,,,,,,,,,,,,,,,,,,,,,,,,,,,,,,,,,,,,,,,,,,,,,,,,,,,,,
,,,,,,,,,63d13e9a41e1c279a151bd4b,Spanish,younger than 13,"no, only English or Spanish",no,2025-07-23_07h15.42.713,empathy_intonation_perc,2024.2.4,Win32,60.60606061,63d13e9a41e1c279a151bd4b,687ed1b7e638a4cbf2f02089,6880c42edab76013a83c9671,,,,,,,,,,,,,83,0,,./stim/wavs/mexican_mismatch_declarative-broad-focus_Mi-tia-odia-la-lluvia.wav,,,,,,,,,,,,,,,,,,,,,,342.6213,352.7758,0,1,9.6329,,0,7,7,82,1,0,mexican,,,,,,,,,,,,,,,,,,,,,,,,,,,,,,,,,,,,,,,,,,,,,,,,,,,,,,,,
,,,,,,,,,63d13e9a41e1c279a151bd4b,Spanish,younger than 13,"no, only English or Spanish",no,2025-07-23_07h15.42.713,empathy_intonation_perc,2024.2.4,Win32,60.60606061,63d13e9a41e1c279a151bd4b,687ed1b7e638a4cbf2f02089,6880c42edab76013a83c9671,,,,,,,,,,,,,23,1,,./stim/wavs/puertorican_match_interrogative-total-yn_Manuela-vende-el-carro.wav,,,,,,,,,,,,,,,,,,,,,,352.7762,355.7866,1,1,2.4674,,0,8,8,22,1,1,puertorican,,,,,,,,,,,,,,,,,,,,,,,,,,,,,,,,,,,,,,,,,,,,,,,,,,,,,,,,
,,,,,,,,,63d13e9a41e1c279a151bd4b,Spanish,younger than 13,"no, only English or Spanish",no,2025-07-23_07h15.42.713,empathy_intonation_perc,2024.2.4,Win32,60.60606061,63d13e9a41e1c279a151bd4b,687ed1b7e638a4cbf2f02089,6880c42edab76013a83c9671,,,,,,,,,,,,,82,0,,./stim/wavs/mexican_mismatch_declarative-broad-focus_Mi-novio-viene-del-lago.wav,,,,,,,,,,,,,,,,,,,,,,355.7874,361.6697,1,0,5.3504,,0,9,9,81,1,0,mexican,,,,,,,,,,,,,,,,,,,,,,,,,,,,,,,,,,,,,,,,,,,,,,,,,,,,,,,,
,,,,,,,,,63d13e9a41e1c279a151bd4b,Spanish,younger than 13,"no, only English or Spanish",no,2025-07-23_07h15.42.713,empathy_intonation_perc,2024.2.4,Win32,60.60606061,63d13e9a41e1c279a151bd4b,687ed1b7e638a4cbf2f02089,6880c42edab76013a83c9671,,,,,,,,,,,,,71,0,,./stim/wavs/castilian_mismatch_declarative-broad-focus_La-nina-lava-el-plato.wav,,,,,,,,,,,,,,,,,,,,,,361.6708,373.5062,1,0,11.3141,,0,10,10,70,1,0,castilian,,,,,,,,,,,,,,,,,,,,,,,,,,,,,,,,,,,,,,,,,,,,,,,,,,,,,,,,
,,,,,,,,,63d13e9a41e1c279a151bd4b,Spanish,younger than 13,"no, only English or Spanish",no,2025-07-23_07h15.42.713,empathy_intonation_perc,2024.2.4,Win32,60.60606061,63d13e9a41e1c279a151bd4b,687ed1b7e638a4cbf2f02089,6880c42edab76013a83c9671,,,,,,,,,,,,,26,1,,./stim/wavs/castilian_mismatch_interrogative-total-yn_La-nina-lava-el-plato.wav,,,,,,,,,,,,,,,,,,,,,,373.5066,381.4353,1,1,7.406,,0,11,11,25,1,0,castilian,,,,,,,,,,,,,,,,,,,,,,,,,,,,,,,,,,,,,,,,,,,,,,,,,,,,,,,,
,,,,,,,,,63d13e9a41e1c279a151bd4b,Spanish,younger than 13,"no, only English or Spanish",no,2025-07-23_07h15.42.713,empathy_intonation_perc,2024.2.4,Win32,60.60606061,63d13e9a41e1c279a151bd4b,687ed1b7e638a4cbf2f02089,6880c42edab76013a83c9671,,,,,,,,,,,,,6,1,,./stim/wavs/castilian_match_interrogative-total-yn_Marta-abre-el-regalo.wav,,,,,,,,,,,,,,,,,,,,,,381.4368,395.0195,1,1,13.0696,,0,12,12,5,1,0,castilian,,,,,,,,,,,,,,,,,,,,,,,,,,,,,,,,,,,,,,,,,,,,,,,,,,,,,,,,
,,,,,,,,,63d13e9a41e1c279a151bd4b,Spanish,younger than 13,"no, only English or Spanish",no,2025-07-23_07h15.42.713,empathy_intonation_perc,2024.2.4,Win32,60.60606061,63d13e9a41e1c279a151bd4b,687ed1b7e638a4cbf2f02089,6880c42edab76013a83c9671,,,,,,,,,,,,,34,1,,./stim/wavs/cuban_mismatch_interrogative-total-yn_Mi-tia-odia-la-lluvia.wav,,,,,,,,,,,,,,,,,,,,,,395.02,401.6018,1,1,6.0482,,0,13,13,33,1,1,cuban,,,,,,,,,,,,,,,,,,,,,,,,,,,,,,,,,,,,,,,,,,,,,,,,,,,,,,,,
,,,,,,,,,63d13e9a41e1c279a151bd4b,Spanish,younger than 13,"no, only English or Spanish",no,2025-07-23_07h15.42.713,empathy_intonation_perc,2024.2.4,Win32,60.60606061,63d13e9a41e1c279a151bd4b,687ed1b7e638a4cbf2f02089,6880c42edab76013a83c9671,,,,,,,,,,,,,2,1,,./stim/wavs/castilian_match_interrogative-total-yn_Emilio-ama-la-marcha.wav,,,,,,,,,,,,,,,,,,,,,,401.603,411.4017,0,0,9.267,,0,14,14,1,1,0,castilian,,,,,,,,,,,,,,,,,,,,,,,,,,,,,,,,,,,,,,,,,,,,,,,,,,,,,,,,
,,,,,,,,,63d13e9a41e1c279a151bd4b,Spanish,younger than 13,"no, only English or Spanish",no,2025-07-23_07h15.42.713,empathy_intonation_perc,2024.2.4,Win32,60.60606061,63d13e9a41e1c279a151bd4b,687ed1b7e638a4cbf2f02089,6880c42edab76013a83c9671,,,,,,,,,,,,,62,0,,./stim/wavs/mexican_match_declarative-broad-focus_Marta-abre-el-regalo.wav,,,,,,,,,,,,,,,,,,,,,,411.4029,418.902,0,1,6.9675,,0,15,15,61,1,0,mexican,,,,,,,,,,,,,,,,,,,,,,,,,,,,,,,,,,,,,,,,,,,,,,,,,,,,,,,,
,,,,,,,,,63d13e9a41e1c279a151bd4b,Spanish,younger than 13,"no, only English or Spanish",no,2025-07-23_07h15.42.713,empathy_intonation_perc,2024.2.4,Win32,60.60606061,63d13e9a41e1c279a151bd4b,687ed1b7e638a4cbf2f02089,6880c42edab76013a83c9671,,,,,,,,,,,,,67,0,,./stim/wavs/puertorican_match_declarative-broad-focus_Manuela-vende-el-carro.wav,,,,,,,,,,,,,,,,,,,,,,418.9026,423.7348,0,1,4.3031,,0,16,16,66,1,0,puertorican,,,,,,,,,,,,,,,,,,,,,,,,,,,,,,,,,,,,,,,,,,,,,,,,,,,,,,,,
,,,,,,,,,63d13e9a41e1c279a151bd4b,Spanish,younger than 13,"no, only English or Spanish",no,2025-07-23_07h15.42.713,empathy_intonation_perc,2024.2.4,Win32,60.60606061,63d13e9a41e1c279a151bd4b,687ed1b7e638a4cbf2f02089,6880c42edab76013a83c9671,,,,,,,,,,,,,8,1,,./stim/wavs/cuban_match_interrogative-total-yn_Daniel-iba-a-Bolivia.wav,,,,,,,,,,,,,,,,,,,,,,423.7361,428.9183,0,0,4.6497,,0,17,17,7,1,1,cuban,,,,,,,,,,,,,,,,,,,,,,,,,,,,,,,,,,,,,,,,,,,,,,,,,,,,,,,,
,,,,,,,,,63d13e9a41e1c279a151bd4b,Spanish,younger than 13,"no, only English or Spanish",no,2025-07-23_07h15.42.713,empathy_intonation_perc,2024.2.4,Win32,60.60606061,63d13e9a41e1c279a151bd4b,687ed1b7e638a4cbf2f02089,6880c42edab76013a83c9671,,,,,,,,,,,,,59,0,,./stim/wavs/mexican_match_declarative-broad-focus_David-leia-el-libro.wav,,,,,,,,,,,,,,,,,,,,,,428.919,443.5517,0,1,14.1015,,0,18,18,58,1,0,mexican,,,,,,,,,,,,,,,,,,,,,,,,,,,,,,,,,,,,,,,,,,,,,,,,,,,,,,,,
,,,,,,,,,63d13e9a41e1c279a151bd4b,Spanish,younger than 13,"no, only English or Spanish",no,2025-07-23_07h15.42.713,empathy_intonation_perc,2024.2.4,Win32,60.60606061,63d13e9a41e1c279a151bd4b,687ed1b7e638a4cbf2f02089,6880c42edab76013a83c9671,,,,,,,,,,,,,38,1,,./stim/wavs/mexican_mismatch_interrogative-total-yn_Mi-novio-viene-del-lago.wav,,,,,,,,,,,,,,,,,,,,,,443.5521,453.1683,0,0,9.0834,,0,19,19,37,1,0,mexican,,,,,,,,,,,,,,,,,,,,,,,,,,,,,,,,,,,,,,,,,,,,,,,,,,,,,,,,
,,,,,,,,,63d13e9a41e1c279a151bd4b,Spanish,younger than 13,"no, only English or Spanish",no,2025-07-23_07h15.42.713,empathy_intonation_perc,2024.2.4,Win32,60.60606061,63d13e9a41e1c279a151bd4b,687ed1b7e638a4cbf2f02089,6880c42edab76013a83c9671,,,,,,,,,,,,,48,0,,./stim/wavs/castilian_match_declarative-broad-focus_Maria-bebe-el-vino.wav,,,,,,,,,,,,,,,,,,,,,,453.1687,457.2182,1,0,3.524,,0,20,20,47,1,0,castilian,,,,,,,,,,,,,,,,,,,,,,,,,,,,,,,,,,,,,,,,,,,,,,,,,,,,,,,,
,,,,,,,,,63d13e9a41e1c279a151bd4b,Spanish,younger than 13,"no, only English or Spanish",no,2025-07-23_07h15.42.713,empathy_intonation_perc,2024.2.4,Win32,60.60606061,63d13e9a41e1c279a151bd4b,687ed1b7e638a4cbf2f02089,6880c42edab76013a83c9671,,,,,,,,,,,,,50,0,,./stim/wavs/castilian_match_declarative-broad-focus_Marta-abre-el-regalo.wav,,,,,,,,,,,,,,,,,,,,,,457.2187,470.8511,1,0,13.1009,,0,21,21,49,1,0,castilian,,,,,,,,,,,,,,,,,,,,,,,,,,,,,,,,,,,,,,,,,,,,,,,,,,,,,,,,
,,,,,,,,,63d13e9a41e1c279a151bd4b,Spanish,younger than 13,"no, only English or Spanish",no,2025-07-23_07h15.42.713,empathy_intonation_perc,2024.2.4,Win32,60.60606061,63d13e9a41e1c279a151bd4b,687ed1b7e638a4cbf2f02089,6880c42edab76013a83c9671,,,,,,,,,,,,,64,0,,./stim/wavs/puertorican_match_declarative-broad-focus_Daniel-iba-a-Bolivia.wav,,,,,,,,,,,,,,,,,,,,,,470.8514,480.5169,1,0,9.1331,,0,22,22,63,1,0,puertorican,,,,,,,,,,,,,,,,,,,,,,,,,,,,,,,,,,,,,,,,,,,,,,,,,,,,,,,,
,,,,,,,,,63d13e9a41e1c279a151bd4b,Spanish,younger than 13,"no, only English or Spanish",no,2025-07-23_07h15.42.713,empathy_intonation_perc,2024.2.4,Win32,60.60606061,63d13e9a41e1c279a151bd4b,687ed1b7e638a4cbf2f02089,6880c42edab76013a83c9671,,,,,,,,,,,,,15,1,,./stim/wavs/mexican_match_interrogative-total-yn_David-leia-el-libro.wav,,,,,,,,,,,,,,,,,,,,,,480.518,486.3002,1,1,5.2499,,0,23,23,14,1,0,mexican,,,,,,,,,,,,,,,,,,,,,,,,,,,,,,,,,,,,,,,,,,,,,,,,,,,,,,,,
,,,,,,,,,63d13e9a41e1c279a151bd4b,Spanish,younger than 13,"no, only English or Spanish",no,2025-07-23_07h15.42.713,empathy_intonation_perc,2024.2.4,Win32,60.60606061,63d13e9a41e1c279a151bd4b,687ed1b7e638a4cbf2f02089,6880c42edab76013a83c9671,,,,,,,,,,,,,10,1,,./stim/wavs/cuban_match_interrogative-total-yn_Maria-bebe-el-vino.wav,,,,,,,,,,,,,,,,,,,,,,486.3011,492.9998,1,1,6.1673,,0,24,24,9,1,1,cuban,,,,,,,,,,,,,,,,,,,,,,,,,,,,,,,,,,,,,,,,,,,,,,,,,,,,,,,,
,,,,,,,,,63d13e9a41e1c279a151bd4b,Spanish,younger than 13,"no, only English or Spanish",no,2025-07-23_07h15.42.713,empathy_intonation_perc,2024.2.4,Win32,60.60606061,63d13e9a41e1c279a151bd4b,687ed1b7e638a4cbf2f02089,6880c42edab76013a83c9671,,,,,,,,,,,,,49,0,,./stim/wavs/castilian_match_declarative-broad-focus_Mariano-habla-del-tiempo.wav,,,,,,,,,,,,,,,,,,,,,,493.0006,502.5004,1,0,8.9759,,0,25,25,48,1,0,castilian,,,,,,,,,,,,,,,,,,,,,,,,,,,,,,,,,,,,,,,,,,,,,,,,,,,,,,,,
,,,,,,,,,63d13e9a41e1c279a151bd4b,Spanish,younger than 13,"no, only English or Spanish",no,2025-07-23_07h15.42.713,empathy_intonation_perc,2024.2.4,Win32,60.60606061,63d13e9a41e1c279a151bd4b,687ed1b7e638a4cbf2f02089,6880c42edab76013a83c9671,,,,,,,,,,,,,54,0,,./stim/wavs/cuban_match_declarative-broad-focus_Maria-bebe-el-vino.wav,,,,,,,,,,,,,,,,,,,,,,502.5006,507.6668,1,0,4.6456,,0,26,26,53,1,0,cuban,,,,,,,,,,,,,,,,,,,,,,,,,,,,,,,,,,,,,,,,,,,,,,,,,,,,,,,,
,,,,,,,,,63d13e9a41e1c279a151bd4b,Spanish,younger than 13,"no, only English or Spanish",no,2025-07-23_07h15.42.713,empathy_intonation_perc,2024.2.4,Win32,60.60606061,63d13e9a41e1c279a151bd4b,687ed1b7e638a4cbf2f02089,6880c42edab76013a83c9671,,,,,,,,,,,,,87,0,,./stim/wavs/puertorican_mismatch_declarative-broad-focus_La-maestra-vive-en-Paris.wav,,,,,,,,,,,,,,,,,,,,,,507.6675,514.4001,1,0,6.2025,,0,27,27,86,1,0,puertorican,,,,,,,,,,,,,,,,,,,,,,,,,,,,,,,,,,,,,,,,,,,,,,,,,,,,,,,,
,,,,,,,,,63d13e9a41e1c279a151bd4b,Spanish,younger than 13,"no, only English or Spanish",no,2025-07-23_07h15.42.713,empathy_intonation_perc,2024.2.4,Win32,60.60606061,63d13e9a41e1c279a151bd4b,687ed1b7e638a4cbf2f02089,6880c42edab76013a83c9671,,,,,,,,,,,,,76,0,,./stim/wavs/cuban_mismatch_declarative-broad-focus_La-nina-lava-el-plato.wav,,,,,,,,,,,,,,,,,,,,,,514.4004,518.5486,1,0,3.6263,,0,28,28,75,1,0,cuban,,,,,,,,,,,,,,,,,,,,,,,,,,,,,,,,,,,,,,,,,,,,,,,,,,,,,,,,
,,,,,,,,,63d13e9a41e1c279a151bd4b,Spanish,younger than 13,"no, only English or Spanish",no,2025-07-23_07h15.42.713,empathy_intonation_perc,2024.2.4,Win32,60.60606061,63d13e9a41e1c279a151bd4b,687ed1b7e638a4cbf2f02089,6880c42edab76013a83c9671,,,,,,,,,,,,,84,0,,./stim/wavs/puertorican_mismatch_declarative-broad-focus_El-bebe-comia-muy-bien.wav,,,,,,,,,,,,,,,,,,,,,,518.5499,521.8659,1,0,2.7985,,0,29,29,83,1,0,puertorican,,,,,,,,,,,,,,,,,,,,,,,,,,,,,,,,,,,,,,,,,,,,,,,,,,,,,,,,
,,,,,,,,,63d13e9a41e1c279a151bd4b,Spanish,younger than 13,"no, only English or Spanish",no,2025-07-23_07h15.42.713,empathy_intonation_perc,2024.2.4,Win32,60.60606061,63d13e9a41e1c279a151bd4b,687ed1b7e638a4cbf2f02089,6880c42edab76013a83c9671,,,,,,,,,,,,,68,0,,./stim/wavs/puertorican_match_declarative-broad-focus_Maria-bebe-el-vino.wav,,,,,,,,,,,,,,,,,,,,,,521.867,530.3827,1,0,7.9959,,0,30,30,67,1,0,puertorican,,,,,,,,,,,,,,,,,,,,,,,,,,,,,,,,,,,,,,,,,,,,,,,,,,,,,,,,
,,,,,,,,,63d13e9a41e1c279a151bd4b,Spanish,younger than 13,"no, only English or Spanish",no,2025-07-23_07h15.42.713,empathy_intonation_perc,2024.2.4,Win32,60.60606061,63d13e9a41e1c279a151bd4b,687ed1b7e638a4cbf2f02089,6880c42edab76013a83c9671,,,,,,,,,,,,,1,1,,./stim/wavs/castilian_match_interrogative-total-yn_David-leia-el-libro.wav,,,,,,,,,,,,,,,,,,,,,,530.3832,539.0827,0,0,8.1665,,0,31,31,0,1,0,castilian,,,,,,,,,,,,,,,,,,,,,,,,,,,,,,,,,,,,,,,,,,,,,,,,,,,,,,,,
,,,,,,,,,63d13e9a41e1c279a151bd4b,Spanish,younger than 13,"no, only English or Spanish",no,2025-07-23_07h15.42.713,empathy_intonation_perc,2024.2.4,Win32,60.60606061,63d13e9a41e1c279a151bd4b,687ed1b7e638a4cbf2f02089,6880c42edab76013a83c9671,,,,,,,,,,,,,27,1,,./stim/wavs/castilian_mismatch_interrogative-total-yn_Mi-madre-come-la-fruta.wav,,,,,,,,,,,,,,,,,,,,,,539.0832,542.6668,0,0,3.0627,,0,32,32,26,1,0,castilian,,,,,,,,,,,,,,,,,,,,,,,,,,,,,,,,,,,,,,,,,,,,,,,,,,,,,,,,
,,,,,,,,,63d13e9a41e1c279a151bd4b,Spanish,younger than 13,"no, only English or Spanish",no,2025-07-23_07h15.42.713,empathy_intonation_perc,2024.2.4,Win32,60.60606061,63d13e9a41e1c279a151bd4b,687ed1b7e638a4cbf2f02089,6880c42edab76013a83c9671,,,,,,,,,,,,,88,0,,./stim/wavs/puertorican_mismatch_declarative-broad-focus_La-nina-lava-el-plato.wav,,,,,,,,,,,,,,,,,,,,,,542.6673,551.8646,0,1,8.6764,,0,33,33,87,1,0,puertorican,,,,,,,,,,,,,,,,,,,,,,,,,,,,,,,,,,,,,,,,,,,,,,,,,,,,,,,,
,,,,,,,,,63d13e9a41e1c279a151bd4b,Spanish,younger than 13,"no, only English or Spanish",no,2025-07-23_07h15.42.713,empathy_intonation_perc,2024.2.4,Win32,60.60606061,63d13e9a41e1c279a151bd4b,687ed1b7e638a4cbf2f02089,6880c42edab76013a83c9671,,,,,,,,,,,,,14,1,,./stim/wavs/mexican_match_interrogative-total-yn_Daniel-iba-a-Bolivia.wav,,,,,,,,,,,,,,,,,,,,,,551.8658,559.215,0,0,6.8215,,0,34,34,13,1,0,mexican,,,,,,,,,,,,,,,,,,,,,,,,,,,,,,,,,,,,,,,,,,,,,,,,,,,,,,,,
,,,,,,,,,63d13e9a41e1c279a151bd4b,Spanish,younger than 13,"no, only English or Spanish",no,2025-07-23_07h15.42.713,empathy_intonation_perc,2024.2.4,Win32,60.60606061,63d13e9a41e1c279a151bd4b,687ed1b7e638a4cbf2f02089,6880c42edab76013a83c9671,,,,,,,,,,,,,56,0,,./stim/wavs/cuban_match_declarative-broad-focus_Marta-abre-el-regalo.wav,,,,,,,,,,,,,,,,,,,,,,559.2158,573.6648,0,1,13.9201,,0,35,35,55,1,0,cuban,,,,,,,,,,,,,,,,,,,,,,,,,,,,,,,,,,,,,,,,,,,,,,,,,,,,,,,,
,,,,,,,,,63d13e9a41e1c279a151bd4b,Spanish,younger than 13,"no, only English or Spanish",no,2025-07-23_07h15.42.713,empathy_intonation_perc,2024.2.4,Win32,60.60606061,63d13e9a41e1c279a151bd4b,687ed1b7e638a4cbf2f02089,6880c42edab76013a83c9671,,,,,,,,,,,,,20,1,,./stim/wavs/puertorican_match_interrogative-total-yn_Daniel-iba-a-Bolivia.wav,,,,,,,,,,,,,,,,,,,,,,573.6655,584.2318,0,0,10.0335,,0,36,36,19,1,1,puertorican,,,,,,,,,,,,,,,,,,,,,,,,,,,,,,,,,,,,,,,,,,,,,,,,,,,,,,,,
,,,,,,,,,63d13e9a41e1c279a151bd4b,Spanish,younger than 13,"no, only English or Spanish",no,2025-07-23_07h15.42.713,empathy_intonation_perc,2024.2.4,Win32,60.60606061,63d13e9a41e1c279a151bd4b,687ed1b7e638a4cbf2f02089,6880c42edab76013a83c9671,,,,,,,,,,,,,35,1,,./stim/wavs/mexican_mismatch_interrogative-total-yn_El-hombre-mira-la-luna.wav,,,,,,,,,,,,,,,,,,,,,,584.2321,591.2195,0,0,6.4501,,0,37,37,34,1,0,mexican,,,,,,,,,,,,,,,,,,,,,,,,,,,,,,,,,,,,,,,,,,,,,,,,,,,,,,,,
,,,,,,,,,63d13e9a41e1c279a151bd4b,Spanish,younger than 13,"no, only English or Spanish",no,2025-07-23_07h15.42.713,empathy_intonation_perc,2024.2.4,Win32,60.60606061,63d13e9a41e1c279a151bd4b,687ed1b7e638a4cbf2f02089,6880c42edab76013a83c9671,,,,,,,,,,,,,9,1,,./stim/wavs/cuban_match_interrogative-total-yn_Manuela-vende-el-carro.wav,,,,,,,,,,,,,,,,,,,,,,591.2199,596.565,1,1,4.8161,,0,38,38,8,1,1,cuban,,,,,,,,,,,,,,,,,,,,,,,,,,,,,,,,,,,,,,,,,,,,,,,,,,,,,,,,
,,,,,,,,,63d13e9a41e1c279a151bd4b,Spanish,younger than 13,"no, only English or Spanish",no,2025-07-23_07h15.42.713,empathy_intonation_perc,2024.2.4,Win32,60.60606061,63d13e9a41e1c279a151bd4b,687ed1b7e638a4cbf2f02089,6880c42edab76013a83c9671,,,,,,,,,,,,,24,1,,./stim/wavs/puertorican_match_interrogative-total-yn_Maria-bebe-el-vino.wav,,,,,,,,,,,,,,,,,,,,,,596.5654,602.8313,1,1,5.7361,,0,39,39,23,1,1,puertorican,,,,,,,,,,,,,,,,,,,,,,,,,,,,,,,,,,,,,,,,,,,,,,,,,,,,,,,,
,,,,,,,,,63d13e9a41e1c279a151bd4b,Spanish,younger than 13,"no, only English or Spanish",no,2025-07-23_07h15.42.713,empathy_intonation_perc,2024.2.4,Win32,60.60606061,63d13e9a41e1c279a151bd4b,687ed1b7e638a4cbf2f02089,6880c42edab76013a83c9671,,,,,,,,,,,,,44,1,,./stim/wavs/puertorican_mismatch_interrogative-total-yn_Mi-madre-come-la-fruta.wav,,,,,,,,,,,,,,,,,,,,,,602.8317,621.2308,1,1,17.8713,,0,40,40,43,1,1,puertorican,,,,,,,,,,,,,,,,,,,,,,,,,,,,,,,,,,,,,,,,,,,,,,,,,,,,,,,,
,,,,,,,,,63d13e9a41e1c279a151bd4b,Spanish,younger than 13,"no, only English or Spanish",no,2025-07-23_07h15.42.713,empathy_intonation_perc,2024.2.4,Win32,60.60606061,63d13e9a41e1c279a151bd4b,687ed1b7e638a4cbf2f02089,6880c42edab76013a83c9671,,,,,,,,,,,,,37,1,,./stim/wavs/mexican_mismatch_interrogative-total-yn_La-maestra-vive-en-Paris.wav,,,,,,,,,,,,,,,,,,,,,,621.2311,629.1806,1,1,7.4198,,0,41,41,36,1,0,mexican,,,,,,,,,,,,,,,,,,,,,,,,,,,,,,,,,,,,,,,,,,,,,,,,,,,,,,,,
,,,,,,,,,63d13e9a41e1c279a151bd4b,Spanish,younger than 13,"no, only English or Spanish",no,2025-07-23_07h15.42.713,empathy_intonation_perc,2024.2.4,Win32,60.60606061,63d13e9a41e1c279a151bd4b,687ed1b7e638a4cbf2f02089,6880c42edab76013a83c9671,,,,,,,,,,,,,72,0,,./stim/wavs/castilian_mismatch_declarative-broad-focus_Mi-novio-viene-del-lago.wav,,,,,,,,,,,,,,,,,,,,,,629.1811,638.5638,1,0,8.8508,,0,42,42,71,1,0,castilian,,,,,,,,,,,,,,,,,,,,,,,,,,,,,,,,,,,,,,,,,,,,,,,,,,,,,,,,
,,,,,,,,,63d13e9a41e1c279a151bd4b,Spanish,younger than 13,"no, only English or Spanish",no,2025-07-23_07h15.42.713,empathy_intonation_perc,2024.2.4,Win32,60.60606061,63d13e9a41e1c279a151bd4b,687ed1b7e638a4cbf2f02089,6880c42edab76013a83c9671,,,,,,,,,,,,,74,0,,./stim/wavs/cuban_mismatch_declarative-broad-focus_El-bebe-comia-muy-bien.wav,,,,,,,,,,,,,,,,,,,,,,638.5641,640.6125,0,1,1.5266,,0,43,43,73,1,0,cuban,,,,,,,,,,,,,,,,,,,,,,,,,,,,,,,,,,,,,,,,,,,,,,,,,,,,,,,,
,,,,,,,,,63d13e9a41e1c279a151bd4b,Spanish,younger than 13,"no, only English or Spanish",no,2025-07-23_07h15.42.713,empathy_intonation_perc,2024.2.4,Win32,60.60606061,63d13e9a41e1c279a151bd4b,687ed1b7e638a4cbf2f02089,6880c42edab76013a83c9671,,,,,,,,,,,,,32,1,,./stim/wavs/cuban_mismatch_interrogative-total-yn_Mi-madre-come-la-fruta.wav,,,,,,,,,,,,,,,,,,,,,,640.6136,645.0798,0,0,3.9413,,0,44,44,31,1,1,cuban,,,,,,,,,,,,,,,,,,,,,,,,,,,,,,,,,,,,,,,,,,,,,,,,,,,,,,,,
,,,,,,,,,63d13e9a41e1c279a151bd4b,Spanish,younger than 13,"no, only English or Spanish",no,2025-07-23_07h15.42.713,empathy_intonation_perc,2024.2.4,Win32,60.60606061,63d13e9a41e1c279a151bd4b,687ed1b7e638a4cbf2f02089,6880c42edab76013a83c9671,,,,,,,,,,,,,66,0,,./stim/wavs/puertorican_match_declarative-broad-focus_Emilio-ama-la-marcha.wav,,,,,,,,,,,,,,,,,,,,,,645.0809,651.4634,0,1,5.8497,,0,45,45,65,1,0,puertorican,,,,,,,,,,,,,,,,,,,,,,,,,,,,,,,,,,,,,,,,,,,,,,,,,,,,,,,,
,,,,,,,,,63d13e9a41e1c279a151bd4b,Spanish,younger than 13,"no, only English or Spanish",no,2025-07-23_07h15.42.713,empathy_intonation_perc,2024.2.4,Win32,60.60606061,63d13e9a41e1c279a151bd4b,687ed1b7e638a4cbf2f02089,6880c42edab76013a83c9671,,,,,,,,,,,,,3,1,,./stim/wavs/castilian_match_interrogative-total-yn_Manuela-vende-el-carro.wav,,,,,,,,,,,,,,,,,,,,,,651.4638,656.8634,0,0,4.874,,0,46,46,2,1,0,castilian,,,,,,,,,,,,,,,,,,,,,,,,,,,,,,,,,,,,,,,,,,,,,,,,,,,,,,,,
,,,,,,,,,63d13e9a41e1c279a151bd4b,Spanish,younger than 13,"no, only English or Spanish",no,2025-07-23_07h15.42.713,empathy_intonation_perc,2024.2.4,Win32,60.60606061,63d13e9a41e1c279a151bd4b,687ed1b7e638a4cbf2f02089,6880c42edab76013a83c9671,,,,,,,,,,,,,61,0,,./stim/wavs/mexican_match_declarative-broad-focus_Mariano-habla-del-tiempo.wav,,,,,,,,,,,,,,,,,,,,,,656.8638,662.0137,0,1,4.617,,0,47,47,60,1,0,mexican,,,,,,,,,,,,,,,,,,,,,,,,,,,,,,,,,,,,,,,,,,,,,,,,,,,,,,,,
,,,,,,,,,63d13e9a41e1c279a151bd4b,Spanish,younger than 13,"no, only English or Spanish",no,2025-07-23_07h15.42.713,empathy_intonation_perc,2024.2.4,Win32,60.60606061,63d13e9a41e1c279a151bd4b,687ed1b7e638a4cbf2f02089,6880c42edab76013a83c9671,,,,,,,,,,,,,69,0,,./stim/wavs/castilian_mismatch_declarative-broad-focus_El-nino-oye-el-rio.wav,,,,,,,,,,,,,,,,,,,,,,662.0143,665.9458,0,1,3.4057,,0,48,48,68,1,0,castilian,,,,,,,,,,,,,,,,,,,,,,,,,,,,,,,,,,,,,,,,,,,,,,,,,,,,,,,,
,,,,,,,,,63d13e9a41e1c279a151bd4b,Spanish,younger than 13,"no, only English or Spanish",no,2025-07-23_07h15.42.713,empathy_intonation_perc,2024.2.4,Win32,60.60606061,63d13e9a41e1c279a151bd4b,687ed1b7e638a4cbf2f02089,6880c42edab76013a83c9671,,,,,,,,,,,,,77,0,,./stim/wavs/cuban_mismatch_declarative-broad-focus_Mi-novio-viene-del-lago.wav,,,,,,,,,,,,,,,,,,,,,,665.9467,670.9957,0,1,4.5184,,0,49,49,76,1,0,cuban,,,,,,,,,,,,,,,,,,,,,,,,,,,,,,,,,,,,,,,,,,,,,,,,,,,,,,,,
,,,,,,,,,63d13e9a41e1c279a151bd4b,Spanish,younger than 13,"no, only English or Spanish",no,2025-07-23_07h15.42.713,empathy_intonation_perc,2024.2.4,Win32,60.60606061,63d13e9a41e1c279a151bd4b,687ed1b7e638a4cbf2f02089,6880c42edab76013a83c9671,,,,,,,,,,,,,4,1,,./stim/wavs/castilian_match_interrogative-total-yn_Maria-bebe-el-vino.wav,,,,,,,,,,,,,,,,,,,,,,670.9968,674.5961,0,0,3.0669,,0,50,50,3,1,0,castilian,,,,,,,,,,,,,,,,,,,,,,,,,,,,,,,,,,,,,,,,,,,,,,,,,,,,,,,,
,,,,,,,,,63d13e9a41e1c279a151bd4b,Spanish,younger than 13,"no, only English or Spanish",no,2025-07-23_07h15.42.713,empathy_intonation_perc,2024.2.4,Win32,60.60606061,63d13e9a41e1c279a151bd4b,687ed1b7e638a4cbf2f02089,6880c42edab76013a83c9671,,,,,,,,,,,,,80,0,,./stim/wavs/mexican_mismatch_declarative-broad-focus_El-hombre-mira-la-luna.wav,,,,,,,,,,,,,,,,,,,,,,674.5965,677.6125,0,1,2.4926,,0,51,51,79,1,0,mexican,,,,,,,,,,,,,,,,,,,,,,,,,,,,,,,,,,,,,,,,,,,,,,,,,,,,,,,,
,,,,,,,,,63d13e9a41e1c279a151bd4b,Spanish,younger than 13,"no, only English or Spanish",no,2025-07-23_07h15.42.713,empathy_intonation_perc,2024.2.4,Win32,60.60606061,63d13e9a41e1c279a151bd4b,687ed1b7e638a4cbf2f02089,6880c42edab76013a83c9671,,,,,,,,,,,,,55,0,,./stim/wavs/cuban_match_declarative-broad-focus_Mariano-habla-del-tiempo.wav,,,,,,,,,,,,,,,,,,,,,,677.613,681.3959,1,0,3.2563,,0,52,52,54,1,0,cuban,,,,,,,,,,,,,,,,,,,,,,,,,,,,,,,,,,,,,,,,,,,,,,,,,,,,,,,,
,,,,,,,,,63d13e9a41e1c279a151bd4b,Spanish,younger than 13,"no, only English or Spanish",no,2025-07-23_07h15.42.713,empathy_intonation_perc,2024.2.4,Win32,60.60606061,63d13e9a41e1c279a151bd4b,687ed1b7e638a4cbf2f02089,6880c42edab76013a83c9671,,,,,,,,,,,,,52,0,,./stim/wavs/cuban_match_declarative-broad-focus_Daniel-iba-a-Bolivia.wav,,,,,,,,,,,,,,,,,,,,,,681.3963,684.296,1,0,2.3686,,0,53,53,51,1,0,cuban,,,,,,,,,,,,,,,,,,,,,,,,,,,,,,,,,,,,,,,,,,,,,,,,,,,,,,,,
,,,,,,,,,63d13e9a41e1c279a151bd4b,Spanish,younger than 13,"no, only English or Spanish",no,2025-07-23_07h15.42.713,empathy_intonation_perc,2024.2.4,Win32,60.60606061,63d13e9a41e1c279a151bd4b,687ed1b7e638a4cbf2f02089,6880c42edab76013a83c9671,,,,,,,,,,,,,25,1,,./stim/wavs/castilian_mismatch_interrogative-total-yn_La-maestra-vive-en-Paris.wav,,,,,,,,,,,,,,,,,,,,,,684.2963,694.8506,1,1,10.0331,,0,54,54,24,1,0,castilian,,,,,,,,,,,,,,,,,,,,,,,,,,,,,,,,,,,,,,,,,,,,,,,,,,,,,,,,
,,,,,,,,,63d13e9a41e1c279a151bd4b,Spanish,younger than 13,"no, only English or Spanish",no,2025-07-23_07h15.42.713,empathy_intonation_perc,2024.2.4,Win32,60.60606061,63d13e9a41e1c279a151bd4b,687ed1b7e638a4cbf2f02089,6880c42edab76013a83c9671,,,,,,,,,,,,,40,1,,./stim/wavs/puertorican_mismatch_interrogative-total-yn_El-hombre-mira-la-luna.wav,,,,,,,,,,,,,,,,,,,,,,694.851,705.2116,1,1,9.8348,,0,55,55,39,1,1,puertorican,,,,,,,,,,,,,,,,,,,,,,,,,,,,,,,,,,,,,,,,,,,,,,,,,,,,,,,,
,,,,,,,,,63d13e9a41e1c279a151bd4b,Spanish,younger than 13,"no, only English or Spanish",no,2025-07-23_07h15.42.713,empathy_intonation_perc,2024.2.4,Win32,60.60606061,63d13e9a41e1c279a151bd4b,687ed1b7e638a4cbf2f02089,6880c42edab76013a83c9671,,,,,,,,,,,,,51,0,,./stim/wavs/cuban_match_declarative-broad-focus_Ana-lleva-el-abrigo.wav,,,,,,,,,,,,,,,,,,,,,,705.2125,721.0782,1,0,15.3384,,0,56,56,50,1,0,cuban,,,,,,,,,,,,,,,,,,,,,,,,,,,,,,,,,,,,,,,,,,,,,,,,,,,,,,,,
,,,,,,,,,63d13e9a41e1c279a151bd4b,Spanish,younger than 13,"no, only English or Spanish",no,2025-07-23_07h15.42.713,empathy_intonation_perc,2024.2.4,Win32,60.60606061,63d13e9a41e1c279a151bd4b,687ed1b7e638a4cbf2f02089,6880c42edab76013a83c9671,,,,,,,,,,,,,70,0,,./stim/wavs/castilian_mismatch_declarative-broad-focus_La-maestra-vive-en-Paris.wav,,,,,,,,,,,,,,,,,,,,,,721.0787,723.6106,0,1,1.9885,,0,57,57,69,1,0,castilian,,,,,,,,,,,,,,,,,,,,,,,,,,,,,,,,,,,,,,,,,,,,,,,,,,,,,,,,
,,,,,,,,,63d13e9a41e1c279a151bd4b,Spanish,younger than 13,"no, only English or Spanish",no,2025-07-23_07h15.42.713,empathy_intonation_perc,2024.2.4,Win32,60.60606061,63d13e9a41e1c279a151bd4b,687ed1b7e638a4cbf2f02089,6880c42edab76013a83c9671,,,,,,,,,,,,,29,1,,./stim/wavs/castilian_mismatch_interrogative-total-yn_Mi-tia-odia-la-lluvia.wav,,,,,,,,,,,,,,,,,,,,,,723.6117,729.2283,0,0,5.0842,,0,58,58,28,1,0,castilian,,,,,,,,,,,,,,,,,,,,,,,,,,,,,,,,,,,,,,,,,,,,,,,,,,,,,,,,
,,,,,,,,,63d13e9a41e1c279a151bd4b,Spanish,younger than 13,"no, only English or Spanish",no,2025-07-23_07h15.42.713,empathy_intonation_perc,2024.2.4,Win32,60.60606061,63d13e9a41e1c279a151bd4b,687ed1b7e638a4cbf2f02089,6880c42edab76013a83c9671,,,,,,,,,,,,,58,0,,./stim/wavs/mexican_match_declarative-broad-focus_Daniel-iba-a-Bolivia.wav,,,,,,,,,,,,,,,,,,,,,,729.2288,736.578,0,1,6.8165,,0,59,59,57,1,0,mexican,,,,,,,,,,,,,,,,,,,,,,,,,,,,,,,,,,,,,,,,,,,,,,,,,,,,,,,,
,,,,,,,,,63d13e9a41e1c279a151bd4b,Spanish,younger than 13,"no, only English or Spanish",no,2025-07-23_07h15.42.713,empathy_intonation_perc,2024.2.4,Win32,60.60606061,63d13e9a41e1c279a151bd4b,687ed1b7e638a4cbf2f02089,6880c42edab76013a83c9671,,,,,,,,,,,,,65,0,,./stim/wavs/puertorican_match_declarative-broad-focus_David-leia-el-libro.wav,,,,,,,,,,,,,,,,,,,,,,736.5783,747.2279,0,1,10.1191,,0,60,60,64,1,0,puertorican,,,,,,,,,,,,,,,,,,,,,,,,,,,,,,,,,,,,,,,,,,,,,,,,,,,,,,,,
,,,,,,,,,63d13e9a41e1c279a151bd4b,Spanish,younger than 13,"no, only English or Spanish",no,2025-07-23_07h15.42.713,empathy_intonation_perc,2024.2.4,Win32,60.60606061,63d13e9a41e1c279a151bd4b,687ed1b7e638a4cbf2f02089,6880c42edab76013a83c9671,,,,,,,,,,,,,85,0,,./stim/wavs/puertorican_mismatch_declarative-broad-focus_El-hombre-mira-la-luna.wav,,,,,,,,,,,,,,,,,,,,,,747.2283,757.4108,0,1,9.6505,,0,61,61,84,1,0,puertorican,,,,,,,,,,,,,,,,,,,,,,,,,,,,,,,,,,,,,,,,,,,,,,,,,,,,,,,,
,,,,,,,,,63d13e9a41e1c279a151bd4b,Spanish,younger than 13,"no, only English or Spanish",no,2025-07-23_07h15.42.713,empathy_intonation_perc,2024.2.4,Win32,60.60606061,63d13e9a41e1c279a151bd4b,687ed1b7e638a4cbf2f02089,6880c42edab76013a83c9671,,,,,,,,,,,,,13,1,,./stim/wavs/mexican_match_interrogative-total-yn_Ana-lleva-el-abrigo.wav,,,,,,,,,,,,,,,,,,,,,,757.4113,764.4935,0,0,6.5566,,0,62,62,12,1,0,mexican,,,,,,,,,,,,,,,,,,,,,,,,,,,,,,,,,,,,,,,,,,,,,,,,,,,,,,,,
,,,,,,,,,63d13e9a41e1c279a151bd4b,Spanish,younger than 13,"no, only English or Spanish",no,2025-07-23_07h15.42.713,empathy_intonation_perc,2024.2.4,Win32,60.60606061,63d13e9a41e1c279a151bd4b,687ed1b7e638a4cbf2f02089,6880c42edab76013a83c9671,,,,,,,,,,,,,12,1,,./stim/wavs/cuban_match_interrogative-total-yn_Marta-abre-el-regalo.wav,,,,,,,,,,,,,,,,,,,,,,764.4943,774.9595,0,0,9.9587,,0,63,63,11,1,1,cuban,,,,,,,,,,,,,,,,,,,,,,,,,,,,,,,,,,,,,,,,,,,,,,,,,,,,,,,,
,,,,,,,,,63d13e9a41e1c279a151bd4b,Spanish,younger than 13,"no, only English or Spanish",no,2025-07-23_07h15.42.713,empathy_intonation_perc,2024.2.4,Win32,60.60606061,63d13e9a41e1c279a151bd4b,687ed1b7e638a4cbf2f02089,6880c42edab76013a83c9671,,,,,,,,,,,,,5,1,,./stim/wavs/castilian_match_interrogative-total-yn_Mariano-habla-del-tiempo.wav,,,,,,,,,,,,,,,,,,,,,,774.9607,789.9434,0,0,14.4503,,0,64,64,4,1,0,castilian,,,,,,,,,,,,,,,,,,,,,,,,,,,,,,,,,,,,,,,,,,,,,,,,,,,,,,,,
,,,,,,,,,63d13e9a41e1c279a151bd4b,Spanish,younger than 13,"no, only English or Spanish",no,2025-07-23_07h15.42.713,empathy_intonation_perc,2024.2.4,Win32,60.60606061,63d13e9a41e1c279a151bd4b,687ed1b7e638a4cbf2f02089,6880c42edab76013a83c9671,,,,,,,,,,,,,16,1,,./stim/wavs/mexican_match_interrogative-total-yn_Emilio-ama-la-marcha.wav,,,,,,,,,,,,,,,,,,,,,,789.9442,790.7934,0,0,0.325,,0,65,65,15,1,0,mexican,,,,,,,,,,,,,,,,,,,,,,,,,,,,,,,,,,,,,,,,,,,,,,,,,,,,,,,,
,,,,,,,,,63d13e9a41e1c279a151bd4b,Spanish,younger than 13,"no, only English or Spanish",no,2025-07-23_07h15.42.713,empathy_intonation_perc,2024.2.4,Win32,60.60606061,63d13e9a41e1c279a151bd4b,687ed1b7e638a4cbf2f02089,6880c42edab76013a83c9671,,,,,,,,,,,,,57,0,,./stim/wavs/mexican_match_declarative-broad-focus_Ana-lleva-el-abrigo.wav,,,,,,,,,,,,,,,,,,,,,,790.794,793.014,1,0,1.6988,,0,66,66,56,1,0,mexican,,,,,,,,,,,,,,,,,,,,,,,,,,,,,,,,,,,,,,,,,,,,,,,,,,,,,,,,
,,,,,,,,,63d13e9a41e1c279a151bd4b,Spanish,younger than 13,"no, only English or Spanish",no,2025-07-23_07h15.42.713,empathy_intonation_perc,2024.2.4,Win32,60.60606061,63d13e9a41e1c279a151bd4b,687ed1b7e638a4cbf2f02089,6880c42edab76013a83c9671,,,,,,,,,,,,,42,1,,./stim/wavs/puertorican_mismatch_interrogative-total-yn_La-maestra-vive-en-Paris.wav,,,,,,,,,,,,,,,,,,,,,,793.0143,797.5264,1,1,3.9836,,0,67,67,41,1,1,puertorican,,,,,,,,,,,,,,,,,,,,,,,,,,,,,,,,,,,,,,,,,,,,,,,,,,,,,,,,
,,,,,,,,,63d13e9a41e1c279a151bd4b,Spanish,younger than 13,"no, only English or Spanish",no,2025-07-23_07h15.42.713,empathy_intonation_perc,2024.2.4,Win32,60.60606061,63d13e9a41e1c279a151bd4b,687ed1b7e638a4cbf2f02089,6880c42edab76013a83c9671,,,,,,,,,,,,,46,0,,./stim/wavs/castilian_match_declarative-broad-focus_Emilio-ama-la-marcha.wav,,,,,,,,,,,,,,,,,,,,,,797.5271,801.2594,1,0,3.2055,,0,68,68,45,1,0,castilian,,,,,,,,,,,,,,,,,,,,,,,,,,,,,,,,,,,,,,,,,,,,,,,,,,,,,,,,
,,,,,,,,,63d13e9a41e1c279a151bd4b,Spanish,younger than 13,"no, only English or Spanish",no,2025-07-23_07h15.42.713,empathy_intonation_perc,2024.2.4,Win32,60.60606061,63d13e9a41e1c279a151bd4b,687ed1b7e638a4cbf2f02089,6880c42edab76013a83c9671,,,,,,,,,,,,,78,0,,./stim/wavs/cuban_mismatch_declarative-broad-focus_Mi-tia-odia-la-lluvia.wav,,,,,,,,,,,,,,,,,,,,,,801.2602,810.493,1,0,8.6999,,0,69,69,77,1,0,cuban,,,,,,,,,,,,,,,,,,,,,,,,,,,,,,,,,,,,,,,,,,,,,,,,,,,,,,,,
,,,,,,,,,63d13e9a41e1c279a151bd4b,Spanish,younger than 13,"no, only English or Spanish",no,2025-07-23_07h15.42.713,empathy_intonation_perc,2024.2.4,Win32,60.60606061,63d13e9a41e1c279a151bd4b,687ed1b7e638a4cbf2f02089,6880c42edab76013a83c9671,,,,,,,,,,,,,43,1,,./stim/wavs/puertorican_mismatch_interrogative-total-yn_La-nina-lava-el-plato.wav,,,,,,,,,,,,,,,,,,,,,,810.4933,817.0759,1,1,6.0496,,0,70,70,42,1,1,puertorican,,,,,,,,,,,,,,,,,,,,,,,,,,,,,,,,,,,,,,,,,,,,,,,,,,,,,,,,
,,,,,,,,,63d13e9a41e1c279a151bd4b,Spanish,younger than 13,"no, only English or Spanish",no,2025-07-23_07h15.42.713,empathy_intonation_perc,2024.2.4,Win32,60.60606061,63d13e9a41e1c279a151bd4b,687ed1b7e638a4cbf2f02089,6880c42edab76013a83c9671,,,,,,,,,,,,,18,1,,./stim/wavs/mexican_match_interrogative-total-yn_Marta-abre-el-regalo.wav,,,,,,,,,,,,,,,,,,,,,,817.0766,823.2589,1,1,5.6506,,0,71,71,17,1,0,mexican,,,,,,,,,,,,,,,,,,,,,,,,,,,,,,,,,,,,,,,,,,,,,,,,,,,,,,,,
,,,,,,,,,63d13e9a41e1c279a151bd4b,Spanish,younger than 13,"no, only English or Spanish",no,2025-07-23_07h15.42.713,empathy_intonation_perc,2024.2.4,Win32,60.60606061,63d13e9a41e1c279a151bd4b,687ed1b7e638a4cbf2f02089,6880c42edab76013a83c9671,,,,,,,,,,,,,86,0,,./stim/wavs/puertorican_mismatch_declarative-broad-focus_El-nino-oye-el-rio.wav,,,,,,,,,,,,,,,,,,,,,,823.2597,830.6637,1,0,6.8828,,0,72,72,85,1,0,puertorican,,,,,,,,,,,,,,,,,,,,,,,,,,,,,,,,,,,,,,,,,,,,,,,,,,,,,,,,
,,,,,,,,,63d13e9a41e1c279a151bd4b,Spanish,younger than 13,"no, only English or Spanish",no,2025-07-23_07h15.42.713,empathy_intonation_perc,2024.2.4,Win32,60.60606061,63d13e9a41e1c279a151bd4b,687ed1b7e638a4cbf2f02089,6880c42edab76013a83c9671,,,,,,,,,,,,,30,1,,./stim/wavs/cuban_mismatch_interrogative-total-yn_El-hombre-mira-la-luna.wav,,,,,,,,,,,,,,,,,,,,,,830.6641,836.7089,1,1,5.5177,,0,73,73,29,1,1,cuban,,,,,,,,,,,,,,,,,,,,,,,,,,,,,,,,,,,,,,,,,,,,,,,,,,,,,,,,
,,,,,,,,,63d13e9a41e1c279a151bd4b,Spanish,younger than 13,"no, only English or Spanish",no,2025-07-23_07h15.42.713,empathy_intonation_perc,2024.2.4,Win32,60.60606061,63d13e9a41e1c279a151bd4b,687ed1b7e638a4cbf2f02089,6880c42edab76013a83c9671,,,,,,,,,,,,,36,1,,./stim/wavs/mexican_mismatch_interrogative-total-yn_El-nino-oye-el-rio.wav,,,,,,,,,,,,,,,,,,,,,,836.7093,849.9756,1,1,12.7307,,0,74,74,35,1,0,mexican,,,,,,,,,,,,,,,,,,,,,,,,,,,,,,,,,,,,,,,,,,,,,,,,,,,,,,,,
,,,,,,,,,63d13e9a41e1c279a151bd4b,Spanish,younger than 13,"no, only English or Spanish",no,2025-07-23_07h15.42.713,empathy_intonation_perc,2024.2.4,Win32,60.60606061,63d13e9a41e1c279a151bd4b,687ed1b7e638a4cbf2f02089,6880c42edab76013a83c9671,,,,,,,,,,,,,79,0,,./stim/wavs/mexican_mismatch_declarative-broad-focus_El-bebe-comia-muy-bien.wav,,,,,,,,,,,,,,,,,,,,,,849.976,865.4742,1,0,14.967,,0,75,75,78,1,0,mexican,,,,,,,,,,,,,,,,,,,,,,,,,,,,,,,,,,,,,,,,,,,,,,,,,,,,,,,,
,,,,,,,,,63d13e9a41e1c279a151bd4b,Spanish,younger than 13,"no, only English or Spanish",no,2025-07-23_07h15.42.713,empathy_intonation_perc,2024.2.4,Win32,60.60606061,63d13e9a41e1c279a151bd4b,687ed1b7e638a4cbf2f02089,6880c42edab76013a83c9671,,,,,,,,,,,,,53,0,,./stim/wavs/cuban_match_declarative-broad-focus_Manuela-vende-el-carro.wav,,,,,,,,,,,,,,,,,,,,,,865.4745,879.6571,1,0,13.6529,,0,76,76,52,1,0,cuban,,,,,,,,,,,,,,,,,,,,,,,,,,,,,,,,,,,,,,,,,,,,,,,,,,,,,,,,
,,,,,,,,,63d13e9a41e1c279a151bd4b,Spanish,younger than 13,"no, only English or Spanish",no,2025-07-23_07h15.42.713,empathy_intonation_perc,2024.2.4,Win32,60.60606061,63d13e9a41e1c279a151bd4b,687ed1b7e638a4cbf2f02089,6880c42edab76013a83c9671,,,,,,,,,,,,,39,1,,./stim/wavs/mexican_mismatch_interrogative-total-yn_Mi-tia-odia-la-lluvia.wav,,,,,,,,,,,,,,,,,,,,,,879.6575,892.9902,1,1,12.8,,0,77,77,38,1,0,mexican,,,,,,,,,,,,,,,,,,,,,,,,,,,,,,,,,,,,,,,,,,,,,,,,,,,,,,,,
,,,,,,,,,63d13e9a41e1c279a151bd4b,Spanish,younger than 13,"no, only English or Spanish",no,2025-07-23_07h15.42.713,empathy_intonation_perc,2024.2.4,Win32,60.60606061,63d13e9a41e1c279a151bd4b,687ed1b7e638a4cbf2f02089,6880c42edab76013a83c9671,,,,,,,,,,,,,17,1,,./stim/wavs/mexican_match_interrogative-total-yn_Mariano-habla-del-tiempo.wav,,,,,,,,,,,,,,,,,,,,,,892.9906,894.5898,0,0,1.0755,,0,78,78,16,1,0,mexican,,,,,,,,,,,,,,,,,,,,,,,,,,,,,,,,,,,,,,,,,,,,,,,,,,,,,,,,
,,,,,,,,,63d13e9a41e1c279a151bd4b,Spanish,younger than 13,"no, only English or Spanish",no,2025-07-23_07h15.42.713,empathy_intonation_perc,2024.2.4,Win32,60.60606061,63d13e9a41e1c279a151bd4b,687ed1b7e638a4cbf2f02089,6880c42edab76013a83c9671,,,,,,,,,,,,,81,0,,./stim/wavs/mexican_mismatch_declarative-broad-focus_La-maestra-vive-en-Paris.wav,,,,,,,,,,,,,,,,,,,,,,894.5902,907.756,0,1,12.6403,,0,79,79,80,1,0,mexican,,,,,,,,,,,,,,,,,,,,,,,,,,,,,,,,,,,,,,,,,,,,,,,,,,,,,,,,
,,,,,,,,,63d13e9a41e1c279a151bd4b,Spanish,younger than 13,"no, only English or Spanish",no,2025-07-23_07h15.42.713,empathy_intonation_perc,2024.2.4,Win32,60.60606061,63d13e9a41e1c279a151bd4b,687ed1b7e638a4cbf2f02089,6880c42edab76013a83c9671,,,,,,,,,,,,,11,1,,./stim/wavs/cuban_match_interrogative-total-yn_Mariano-habla-del-tiempo.wav,,,,,,,,,,,,,,,,,,,,,,907.7564,912.8394,0,0,4.5586,,0,80,80,10,1,1,cuban,,,,,,,,,,,,,,,,,,,,,,,,,,,,,,,,,,,,,,,,,,,,,,,,,,,,,,,,
,,,,,,,,,63d13e9a41e1c279a151bd4b,Spanish,younger than 13,"no, only English or Spanish",no,2025-07-23_07h15.42.713,empathy_intonation_perc,2024.2.4,Win32,60.60606061,63d13e9a41e1c279a151bd4b,687ed1b7e638a4cbf2f02089,6880c42edab76013a83c9671,,,,,,,,,,,,,60,0,,./stim/wavs/mexican_match_declarative-broad-focus_Emilio-ama-la-marcha.wav,,,,,,,,,,,,,,,,,,,,,,912.84,939.6722,0,1,26.3008,,0,81,81,59,1,0,mexican,,,,,,,,,,,,,,,,,,,,,,,,,,,,,,,,,,,,,,,,,,,,,,,,,,,,,,,,
,,,,,,,,,63d13e9a41e1c279a151bd4b,Spanish,younger than 13,"no, only English or Spanish",no,2025-07-23_07h15.42.713,empathy_intonation_perc,2024.2.4,Win32,60.60606061,63d13e9a41e1c279a151bd4b,687ed1b7e638a4cbf2f02089,6880c42edab76013a83c9671,,,,,,,,,,,,,45,0,,./stim/wavs/castilian_match_declarative-broad-focus_David-leia-el-libro.wav,,,,,,,,,,,,,,,,,,,,,,939.6726,958.7383,0,1,18.5388,,0,82,82,44,1,0,castilian,,,,,,,,,,,,,,,,,,,,,,,,,,,,,,,,,,,,,,,,,,,,,,,,,,,,,,,,
,,,,,,,,,63d13e9a41e1c279a151bd4b,Spanish,younger than 13,"no, only English or Spanish",no,2025-07-23_07h15.42.713,empathy_intonation_perc,2024.2.4,Win32,60.60606061,63d13e9a41e1c279a151bd4b,687ed1b7e638a4cbf2f02089,6880c42edab76013a83c9671,,,,,,,,,,,,,47,0,,./stim/wavs/castilian_match_declarative-broad-focus_Manuela-vende-el-carro.wav,,,,,,,,,,,,,,,,,,,,,,958.7388,960.4386,0,1,1.1728,,0,83,83,46,1,0,castilian,,,,,,,,,,,,,,,,,,,,,,,,,,,,,,,,,,,,,,,,,,,,,,,,,,,,,,,,
,,,,,,,,,63d13e9a41e1c279a151bd4b,Spanish,younger than 13,"no, only English or Spanish",no,2025-07-23_07h15.42.713,empathy_intonation_perc,2024.2.4,Win32,60.60606061,63d13e9a41e1c279a151bd4b,687ed1b7e638a4cbf2f02089,6880c42edab76013a83c9671,,,,,,,,,,,,,63,0,,./stim/wavs/puertorican_match_declarative-broad-focus_Ana-lleva-el-abrigo.wav,,,,,,,,,,,,,,,,,,,,,,960.439,961.4382,1,0,0.4733,,0,84,84,62,1,0,puertorican,,,,,,,,,,,,,,,,,,,,,,,,,,,,,,,,,,,,,,,,,,,,,,,,,,,,,,,,
,,,,,,,,,63d13e9a41e1c279a151bd4b,Spanish,younger than 13,"no, only English or Spanish",no,2025-07-23_07h15.42.713,empathy_intonation_perc,2024.2.4,Win32,60.60606061,63d13e9a41e1c279a151bd4b,687ed1b7e638a4cbf2f02089,6880c42edab76013a83c9671,,,,,,,,,,,,,41,1,,./stim/wavs/puertorican_mismatch_interrogative-total-yn_El-nino-oye-el-rio.wav,,,,,,,,,,,,,,,,,,,,,,961.4385,962.705,0,0,0.7347,,0,85,85,40,1,1,puertorican,,,,,,,,,,,,,,,,,,,,,,,,,,,,,,,,,,,,,,,,,,,,,,,,,,,,,,,,
,,,,,,,,,63d13e9a41e1c279a151bd4b,Spanish,younger than 13,"no, only English or Spanish",no,2025-07-23_07h15.42.713,empathy_intonation_perc,2024.2.4,Win32,60.60606061,63d13e9a41e1c279a151bd4b,687ed1b7e638a4cbf2f02089,6880c42edab76013a83c9671,,,,,,,,,,,,,28,1,,./stim/wavs/castilian_mismatch_interrogative-total-yn_Mi-novio-viene-del-lago.wav,,,,,,,,,,,,,,,,,,,,,,962.7053,963.2886,0,0,0.0587,,0,86,86,27,1,0,castilian,,,,,,,,,,,,,,,,,,,,,,,,,,,,,,,,,,,,,,,,,,,,,,,,,,,,,,,,
,,,,,,,,,63d13e9a41e1c279a151bd4b,Spanish,younger than 13,"no, only English or Spanish",no,2025-07-23_07h15.42.713,empathy_intonation_perc,2024.2.4,Win32,60.60606061,63d13e9a41e1c279a151bd4b,687ed1b7e638a4cbf2f02089,6880c42edab76013a83c9671,,,,,,,,,,,,,22,1,,./stim/wavs/puertorican_match_interrogative-total-yn_Emilio-ama-la-marcha.wav,,,,,,,,,,,,,,,,,,,,,,963.2889,964.905,1,1,1.0848,,0,87,87,21,1,1,puertorican,,,,,,,,,,,,,,,,,,,,,,,,,,,,,,,,,,,,,,,,,,,,,,,,,,,,,,,,
,,,,,,,"Great! Now we will move on. The next task consists of about 60 trials, in each of which you will see a string of letters. 
  
  Your task is to decide whether this is a real Spanish word or not.", (press the spacebar to continue),63d13e9a41e1c279a151bd4b,Spanish,younger than 13,"no, only English or Spanish",no,2025-07-23_07h15.42.713,empathy_intonation_perc,2024.2.4,Win32,60.60606061,63d13e9a41e1c279a151bd4b,687ed1b7e638a4cbf2f02089,6880c42edab76013a83c9671,,,,,,,,,,,,,,,,,,,,,,,,,,,,,,,,,,,,,,,,,,,,,,,,,,,964.9116,970.0549,0,0,0,0,1,,,,,,,,,,,,,,,,,,,,,,,,,,,,,,,,,,,,,,,,,,,,,,,,,
,,,,,,,"If you think it is an existing Spanish word, you type '1' (for 'REAL'), and if you think it is not an existing Spanish word, you type '0' (for 'FAKE').", (press the spacebar to continue),63d13e9a41e1c279a151bd4b,Spanish,younger than 13,"no, only English or Spanish",no,2025-07-23_07h15.42.713,empathy_intonation_perc,2024.2.4,Win32,60.60606061,63d13e9a41e1c279a151bd4b,687ed1b7e638a4cbf2f02089,6880c42edab76013a83c9671,,,,,,,,,,,,,,,,,,,,,,,,,,,,,,,,,,,,,,,,,,,,,,,,,,,970.0576,971.5215,0,1,1,1,1,,,,,,,,,,,,,,,,,,,,,,,,,,,,,,,,,,,,,,,,,,,,,,,,,
,,,,,,,"If you are sure that the word exists, even though you don’t know its exact meaning, you may still respond '1' (REAL). 
  
  But if you are not sure if it is an existing word, you should respond '0' (FAKE).
  
  Let's do a practice round...", (press the spacebar to continue),63d13e9a41e1c279a151bd4b,Spanish,younger than 13,"no, only English or Spanish",no,2025-07-23_07h15.42.713,empathy_intonation_perc,2024.2.4,Win32,60.60606061,63d13e9a41e1c279a151bd4b,687ed1b7e638a4cbf2f02089,6880c42edab76013a83c9671,,,,,,,,,,,,,,,,,,,,,,,,,,,,,,,,,,,,,,,,,,,,,,,,,,,971.5229,973.4217,0,2,2,2,1,,,,,,,,,,,,,,,,,,,,,,,,,,,,,,,,,,,,,,,,,,,,,,,,,
,,,,,,,,,63d13e9a41e1c279a151bd4b,Spanish,younger than 13,"no, only English or Spanish",no,2025-07-23_07h15.42.713,empathy_intonation_perc,2024.2.4,Win32,60.60606061,63d13e9a41e1c279a151bd4b,687ed1b7e638a4cbf2f02089,6880c42edab76013a83c9671,,,,,,,,,,,,,,0,,,,,,,,,,,,,,,,,,,,,,,,,,,,,,,,,,,,,,,,,,,,973.4267,974.1553,1,0,0.199,,974.1554,975.155,0,0,0,0,1,0,depiste,REAL,FAKE,,,,,,,,,,,,,,,,,,,,,,,,,,,,,,,,
,,,,,,,,,63d13e9a41e1c279a151bd4b,Spanish,younger than 13,"no, only English or Spanish",no,2025-07-23_07h15.42.713,empathy_intonation_perc,2024.2.4,Win32,60.60606061,63d13e9a41e1c279a151bd4b,687ed1b7e638a4cbf2f02089,6880c42edab76013a83c9671,,,,,,,,,,,,,,1,,,,,,,,,,,,,,,,,,,,,,,,,,,,,,,,,,,,,,,,,,,,975.1673,976.7045,1,1,1.0141,,976.7049,977.7046,0,1,1,1,1,0,sí,REAL,FAKE,,,,,,,,,,,,,,,,,,,,,,,,,,,,,,,,
,,,,,,,,,63d13e9a41e1c279a151bd4b,Spanish,younger than 13,"no, only English or Spanish",no,2025-07-23_07h15.42.713,empathy_intonation_perc,2024.2.4,Win32,60.60606061,63d13e9a41e1c279a151bd4b,687ed1b7e638a4cbf2f02089,6880c42edab76013a83c9671,,,,,,,,,,,,,,0,,,,,,,,,,,,,,,,,,,,,,,,,,,,,,,,,,,,,,,,,,,,977.7062,978.9878,1,0,0.7491,,978.9884,979.9878,0,2,2,2,1,0,coné,REAL,FAKE,,,,,,,,,,,,,,,,,,,,,,,,,,,,,,,,
,,,,,,,,,63d13e9a41e1c279a151bd4b,Spanish,younger than 13,"no, only English or Spanish",no,2025-07-23_07h15.42.713,empathy_intonation_perc,2024.2.4,Win32,60.60606061,63d13e9a41e1c279a151bd4b,687ed1b7e638a4cbf2f02089,6880c42edab76013a83c9671,,,,,,,,,,,,,,0,,,,,,,,,,,,,,,,,,,,,,,,,,,,,,,,,,,,,,,,,,,,979.9884,981.0891,0,1,0.5531,,981.0895,982.088,0,3,3,3,1,0,calpar,REAL,FAKE,,,,,,,,,,,,,,,,,,,,,,,,,,,,,,,,
,,,,,,,,,63d13e9a41e1c279a151bd4b,Spanish,younger than 13,"no, only English or Spanish",no,2025-07-23_07h15.42.713,empathy_intonation_perc,2024.2.4,Win32,60.60606061,63d13e9a41e1c279a151bd4b,687ed1b7e638a4cbf2f02089,6880c42edab76013a83c9671,,,,,,,,,,,,,,0,,,,,,,,,,,,,,,,,,,,,,,,,,,,,,,,,,,,,,,,,,,,982.089,983.3046,0,1,0.6817,,983.3047,984.3044,0,4,4,4,1,0,joten,REAL,FAKE,,,,,,,,,,,,,,,,,,,,,,,,,,,,,,,,
,,,,,,,,,63d13e9a41e1c279a151bd4b,Spanish,younger than 13,"no, only English or Spanish",no,2025-07-23_07h15.42.713,empathy_intonation_perc,2024.2.4,Win32,60.60606061,63d13e9a41e1c279a151bd4b,687ed1b7e638a4cbf2f02089,6880c42edab76013a83c9671,,,,,,,,,,,,,,1,,,,,,,,,,,,,,,,,,,,,,,,,,,,,,,,,,,,,,,,,,,,984.3052,985.188,0,0,0.3525,,985.1885,986.1879,0,5,5,5,1,0,sacapuntas,REAL,FAKE,,,,,,,,,,,,,,,,,,,,,,,,,,,,,,,,
,,,,,,,,,63d13e9a41e1c279a151bd4b,Spanish,younger than 13,"no, only English or Spanish",no,2025-07-23_07h15.42.713,empathy_intonation_perc,2024.2.4,Win32,60.60606061,63d13e9a41e1c279a151bd4b,687ed1b7e638a4cbf2f02089,6880c42edab76013a83c9671,,,,,,,,,,,,,,0,,,,,,,,,,,,,,,,,,,,,,,,,,,,,,,,,,,,,,,,,,,,986.1889,986.9547,1,0,0.2474,,986.9547,987.9544,0,6,6,6,1,0,priba,REAL,FAKE,,,,,,,,,,,,,,,,,,,,,,,,,,,,,,,,
,,,,,,,,,63d13e9a41e1c279a151bd4b,Spanish,younger than 13,"no, only English or Spanish",no,2025-07-23_07h15.42.713,empathy_intonation_perc,2024.2.4,Win32,60.60606061,63d13e9a41e1c279a151bd4b,687ed1b7e638a4cbf2f02089,6880c42edab76013a83c9671,,,,,,,,,,,,,,0,,,,,,,,,,,,,,,,,,,,,,,,,,,,,,,,,,,,,,,,,,,,987.9553,988.4877,1,0,0.0017,,988.4878,989.4878,0,7,7,7,1,0,pelasula,REAL,FAKE,,,,,,,,,,,,,,,,,,,,,,,,,,,,,,,,
,,,,,,,,,63d13e9a41e1c279a151bd4b,Spanish,younger than 13,"no, only English or Spanish",no,2025-07-23_07h15.42.713,empathy_intonation_perc,2024.2.4,Win32,60.60606061,63d13e9a41e1c279a151bd4b,687ed1b7e638a4cbf2f02089,6880c42edab76013a83c9671,,,,,,,,,,,,,,1,,,,,,,,,,,,,,,,,,,,,,,,,,,,,,,,,,,,,,,,,,,,989.4886,990.1211,0,0,0.0999,,990.1212,991.1211,0,8,8,8,1,0,bien,REAL,FAKE,,,,,,,,,,,,,,,,,,,,,,,,,,,,,,,,
,,,,,,,,,63d13e9a41e1c279a151bd4b,Spanish,younger than 13,"no, only English or Spanish",no,2025-07-23_07h15.42.713,empathy_intonation_perc,2024.2.4,Win32,60.60606061,63d13e9a41e1c279a151bd4b,687ed1b7e638a4cbf2f02089,6880c42edab76013a83c9671,,,,,,,,,,,,,,1,,,,,,,,,,,,,,,,,,,,,,,,,,,,,,,,,,,,,,,,,,,,991.1216,992.2712,1,1,0.6201,,992.2719,993.271,0,9,9,9,1,0,casa,REAL,FAKE,,,,,,,,,,,,,,,,,,,,,,,,,,,,,,,,
,,,,,,,,,63d13e9a41e1c279a151bd4b,Spanish,younger than 13,"no, only English or Spanish",no,2025-07-23_07h15.42.713,empathy_intonation_perc,2024.2.4,Win32,60.60606061,63d13e9a41e1c279a151bd4b,687ed1b7e638a4cbf2f02089,6880c42edab76013a83c9671,,,,,,,,,,,,,,0,,,,,,,,,,,,,,,,,,,,,,,,,,,,,,,,,,,,,,,,,,,,993.2716,994.5375,0,1,0.7362,,994.5375,995.5377,0,10,10,10,1,0,lejo,REAL,FAKE,,,,,,,,,,,,,,,,,,,,,,,,,,,,,,,,
,,,,,,,,,63d13e9a41e1c279a151bd4b,Spanish,younger than 13,"no, only English or Spanish",no,2025-07-23_07h15.42.713,empathy_intonation_perc,2024.2.4,Win32,60.60606061,63d13e9a41e1c279a151bd4b,687ed1b7e638a4cbf2f02089,6880c42edab76013a83c9671,,,,,,,,,,,,,,0,,,,,,,,,,,,,,,,,,,,,,,,,,,,,,,,,,,,,,,,,,,,995.5384,996.7543,0,1,0.69,,996.7543,997.7543,0,11,11,11,1,0,pretantas,REAL,FAKE,,,,,,,,,,,,,,,,,,,,,,,,,,,,,,,,
,,,,,,,,,63d13e9a41e1c279a151bd4b,Spanish,younger than 13,"no, only English or Spanish",no,2025-07-23_07h15.42.713,empathy_intonation_perc,2024.2.4,Win32,60.60606061,63d13e9a41e1c279a151bd4b,687ed1b7e638a4cbf2f02089,6880c42edab76013a83c9671,,,,,,,,,,,,,,,,,,,,,,,,,,,,,,,,,,,,,,,,,,,,,,,,,,,,,,,,,,,,,,,,,,,,,,,,,,,997.7545,998.9709,,,,,,,,,,,,,,,,,,,,,,,,,,,,,,
,,,,,,,,,63d13e9a41e1c279a151bd4b,Spanish,younger than 13,"no, only English or Spanish",no,2025-07-23_07h15.42.713,empathy_intonation_perc,2024.2.4,Win32,60.60606061,63d13e9a41e1c279a151bd4b,687ed1b7e638a4cbf2f02089,6880c42edab76013a83c9671,,,,,,,,,,,,,,1,,,,,,,,,,,,,,,,,,,,,,,,,,,,,,,,,,,,,,,,,,,,,,,,,,,,,,,,,37,granuja,,,,,998.9776,1000.0206,0,0,0.5148,,0,0,0,36,1,REAL,FAKE,,,,,,,,,,,,,,,,,
,,,,,,,,,63d13e9a41e1c279a151bd4b,Spanish,younger than 13,"no, only English or Spanish",no,2025-07-23_07h15.42.713,empathy_intonation_perc,2024.2.4,Win32,60.60606061,63d13e9a41e1c279a151bd4b,687ed1b7e638a4cbf2f02089,6880c42edab76013a83c9671,,,,,,,,,,,,,,1,,,,,,,,,,,,,,,,,,,,,,,,,,,,,,,,,,,,,,,,,,,,,,,,,,,,,,,,,40,alfombra,,,,,1000.0213,1000.821,1,1,0.2758,,0,1,1,39,1,REAL,FAKE,,,,,,,,,,,,,,,,,
,,,,,,,,,63d13e9a41e1c279a151bd4b,Spanish,younger than 13,"no, only English or Spanish",no,2025-07-23_07h15.42.713,empathy_intonation_perc,2024.2.4,Win32,60.60606061,63d13e9a41e1c279a151bd4b,687ed1b7e638a4cbf2f02089,6880c42edab76013a83c9671,,,,,,,,,,,,,,0,,,,,,,,,,,,,,,,,,,,,,,,,,,,,,,,,,,,,,,,,,,,,,,,,,,,,,,,,19,brecedad,,,,,1000.8216,1001.3873,0,1,0.0361,,0,2,2,18,1,REAL,FAKE,,,,,,,,,,,,,,,,,
,,,,,,,,,63d13e9a41e1c279a151bd4b,Spanish,younger than 13,"no, only English or Spanish",no,2025-07-23_07h15.42.713,empathy_intonation_perc,2024.2.4,Win32,60.60606061,63d13e9a41e1c279a151bd4b,687ed1b7e638a4cbf2f02089,6880c42edab76013a83c9671,,,,,,,,,,,,,,0,,,,,,,,,,,,,,,,,,,,,,,,,,,,,,,,,,,,,,,,,,,,,,,,,,,,,,,,,10,antar,,,,,1001.3878,1001.9874,0,1,0.0696,,0,3,3,9,1,REAL,FAKE,,,,,,,,,,,,,,,,,
,,,,,,,,,63d13e9a41e1c279a151bd4b,Spanish,younger than 13,"no, only English or Spanish",no,2025-07-23_07h15.42.713,empathy_intonation_perc,2024.2.4,Win32,60.60606061,63d13e9a41e1c279a151bd4b,687ed1b7e638a4cbf2f02089,6880c42edab76013a83c9671,,,,,,,,,,,,,,1,,,,,,,,,,,,,,,,,,,,,,,,,,,,,,,,,,,,,,,,,,,,,,,,,,,,,,,,,60,matar,,,,,1001.988,1002.5373,1,1,0.0169,,0,4,4,59,1,REAL,FAKE,,,,,,,,,,,,,,,,,
,,,,,,,,,63d13e9a41e1c279a151bd4b,Spanish,younger than 13,"no, only English or Spanish",no,2025-07-23_07h15.42.713,empathy_intonation_perc,2024.2.4,Win32,60.60606061,63d13e9a41e1c279a151bd4b,687ed1b7e638a4cbf2f02089,6880c42edab76013a83c9671,,,,,,,,,,,,,,0,,,,,,,,,,,,,,,,,,,,,,,,,,,,,,,,,,,,,,,,,,,,,,,,,,,,,,,,,92,click the 0 key.,,,,,1002.538,1003.3873,1,0,0.3199,,0,5,5,91,1,REAL,FAKE,,,,,,,,,,,,,,,,,
,,,,,,,,,63d13e9a41e1c279a151bd4b,Spanish,younger than 13,"no, only English or Spanish",no,2025-07-23_07h15.42.713,empathy_intonation_perc,2024.2.4,Win32,60.60606061,63d13e9a41e1c279a151bd4b,687ed1b7e638a4cbf2f02089,6880c42edab76013a83c9671,,,,,,,,,,,,,,1,,,,,,,,,,,,,,,,,,,,,,,,,,,,,,,,,,,,,,,,,,,,,,,,,,,,,,,,,46,martillo,,,,,1003.388,1004.0875,0,0,0.1644,,0,6,6,45,1,REAL,FAKE,,,,,,,,,,,,,,,,,
,,,,,,,,,63d13e9a41e1c279a151bd4b,Spanish,younger than 13,"no, only English or Spanish",no,2025-07-23_07h15.42.713,empathy_intonation_perc,2024.2.4,Win32,60.60606061,63d13e9a41e1c279a151bd4b,687ed1b7e638a4cbf2f02089,6880c42edab76013a83c9671,,,,,,,,,,,,,,0,,,,,,,,,,,,,,,,,,,,,,,,,,,,,,,,,,,,,,,,,,,,,,,,,,,,,,,,,23,lampera,,,,,1004.0882,1004.7873,1,0,0.1657,,0,7,7,22,1,REAL,FAKE,,,,,,,,,,,,,,,,,
,,,,,,,,,63d13e9a41e1c279a151bd4b,Spanish,younger than 13,"no, only English or Spanish",no,2025-07-23_07h15.42.713,empathy_intonation_perc,2024.2.4,Win32,60.60606061,63d13e9a41e1c279a151bd4b,687ed1b7e638a4cbf2f02089,6880c42edab76013a83c9671,,,,,,,,,,,,,,1,,,,,,,,,,,,,,,,,,,,,,,,,,,,,,,,,,,,,,,,,,,,,,,,,,,,,,,,,11,cenefa,,,,,1004.788,1005.6373,0,0,0.3145,,0,8,8,10,1,REAL,FAKE,,,,,,,,,,,,,,,,,
,,,,,,,,,63d13e9a41e1c279a151bd4b,Spanish,younger than 13,"no, only English or Spanish",no,2025-07-23_07h15.42.713,empathy_intonation_perc,2024.2.4,Win32,60.60606061,63d13e9a41e1c279a151bd4b,687ed1b7e638a4cbf2f02089,6880c42edab76013a83c9671,,,,,,,,,,,,,,1,,,,,,,,,,,,,,,,,,,,,,,,,,,,,,,,,,,,,,,,,,,,,,,,,,,,,,,,,20,ávido,,,,,1005.6384,1006.4205,0,0,0.248,,0,9,9,19,1,REAL,FAKE,,,,,,,,,,,,,,,,,
,,,,,,,,,63d13e9a41e1c279a151bd4b,Spanish,younger than 13,"no, only English or Spanish",no,2025-07-23_07h15.42.713,empathy_intonation_perc,2024.2.4,Win32,60.60606061,63d13e9a41e1c279a151bd4b,687ed1b7e638a4cbf2f02089,6880c42edab76013a83c9671,,,,,,,,,,,,,,1,,,,,,,,,,,,,,,,,,,,,,,,,,,,,,,,,,,,,,,,,,,,,,,,,,,,,,,,,55,nevar,,,,,1006.4211,1007.2208,0,0,0.2648,,0,10,10,54,1,REAL,FAKE,,,,,,,,,,,,,,,,,
,,,,,,,,,63d13e9a41e1c279a151bd4b,Spanish,younger than 13,"no, only English or Spanish",no,2025-07-23_07h15.42.713,empathy_intonation_perc,2024.2.4,Win32,60.60606061,63d13e9a41e1c279a151bd4b,687ed1b7e638a4cbf2f02089,6880c42edab76013a83c9671,,,,,,,,,,,,,,0,,,,,,,,,,,,,,,,,,,,,,,,,,,,,,,,,,,,,,,,,,,,,,,,,,,,,,,,,70,temblo,,,,,1007.2217,1007.7538,1,0,0.0004,,0,11,11,69,1,REAL,FAKE,,,,,,,,,,,,,,,,,
,,,,,,,,,63d13e9a41e1c279a151bd4b,Spanish,younger than 13,"no, only English or Spanish",no,2025-07-23_07h15.42.713,empathy_intonation_perc,2024.2.4,Win32,60.60606061,63d13e9a41e1c279a151bd4b,687ed1b7e638a4cbf2f02089,6880c42edab76013a83c9671,,,,,,,,,,,,,,1,,,,,,,,,,,,,,,,,,,,,,,,,,,,,,,,,,,,,,,,,,,,,,,,,,,,,,,,,15,regar,,,,,1007.7543,1008.6209,1,1,0.3426,,0,12,12,14,1,REAL,FAKE,,,,,,,,,,,,,,,,,
,,,,,,,,,63d13e9a41e1c279a151bd4b,Spanish,younger than 13,"no, only English or Spanish",no,2025-07-23_07h15.42.713,empathy_intonation_perc,2024.2.4,Win32,60.60606061,63d13e9a41e1c279a151bd4b,687ed1b7e638a4cbf2f02089,6880c42edab76013a83c9671,,,,,,,,,,,,,,1,,,,,,,,,,,,,,,,,,,,,,,,,,,,,,,,,,,,,,,,,,,,,,,,,,,,,,,,,65,bizcocho,,,,,1008.6222,1009.5705,1,1,0.4141,,0,13,13,64,1,REAL,FAKE,,,,,,,,,,,,,,,,,
,,,,,,,,,63d13e9a41e1c279a151bd4b,Spanish,younger than 13,"no, only English or Spanish",no,2025-07-23_07h15.42.713,empathy_intonation_perc,2024.2.4,Win32,60.60606061,63d13e9a41e1c279a151bd4b,687ed1b7e638a4cbf2f02089,6880c42edab76013a83c9671,,,,,,,,,,,,,,1,,,,,,,,,,,,,,,,,,,,,,,,,,,,,,,,,,,,,,,,,,,,,,,,,,,,,,,,,49,ganar,,,,,1009.5713,1010.3373,1,1,0.2336,,0,14,14,48,1,REAL,FAKE,,,,,,,,,,,,,,,,,
,,,,,,,,,63d13e9a41e1c279a151bd4b,Spanish,younger than 13,"no, only English or Spanish",no,2025-07-23_07h15.42.713,empathy_intonation_perc,2024.2.4,Win32,60.60606061,63d13e9a41e1c279a151bd4b,687ed1b7e638a4cbf2f02089,6880c42edab76013a83c9671,,,,,,,,,,,,,,1,,,,,,,,,,,,,,,,,,,,,,,,,,,,,,,,,,,,,,,,,,,,,,,,,,,,,,,,,13,helar,,,,,1010.3379,1011.1705,0,0,0.3072,,0,15,15,12,1,REAL,FAKE,,,,,,,,,,,,,,,,,
,,,,,,,,,63d13e9a41e1c279a151bd4b,Spanish,younger than 13,"no, only English or Spanish",no,2025-07-23_07h15.42.713,empathy_intonation_perc,2024.2.4,Win32,60.60606061,63d13e9a41e1c279a151bd4b,687ed1b7e638a4cbf2f02089,6880c42edab76013a83c9671,,,,,,,,,,,,,,1,,,,,,,,,,,,,,,,,,,,,,,,,,,,,,,,,,,,,,,,,,,,,,,,,,,,,,,,,31,pandilla,,,,,1011.1713,1011.7037,1,1,0.0194,,0,16,16,30,1,REAL,FAKE,,,,,,,,,,,,,,,,,
,,,,,,,,,63d13e9a41e1c279a151bd4b,Spanish,younger than 13,"no, only English or Spanish",no,2025-07-23_07h15.42.713,empathy_intonation_perc,2024.2.4,Win32,60.60606061,63d13e9a41e1c279a151bd4b,687ed1b7e638a4cbf2f02089,6880c42edab76013a83c9671,,,,,,,,,,,,,,1,,,,,,,,,,,,,,,,,,,,,,,,,,,,,,,,,,,,,,,,,,,,,,,,,,,,,,,,,24,látigo,,,,,1011.7043,1012.4707,1,1,0.2481,,0,17,17,23,1,REAL,FAKE,,,,,,,,,,,,,,,,,
,,,,,,,,,63d13e9a41e1c279a151bd4b,Spanish,younger than 13,"no, only English or Spanish",no,2025-07-23_07h15.42.713,empathy_intonation_perc,2024.2.4,Win32,60.60606061,63d13e9a41e1c279a151bd4b,687ed1b7e638a4cbf2f02089,6880c42edab76013a83c9671,,,,,,,,,,,,,,0,,,,,,,,,,,,,,,,,,,,,,,,,,,,,,,,,,,,,,,,,,,,,,,,,,,,,,,,,63,esposante,,,,,1012.4716,1013.2537,0,1,0.2507,,0,18,18,62,1,REAL,FAKE,,,,,,,,,,,,,,,,,
,,,,,,,,,63d13e9a41e1c279a151bd4b,Spanish,younger than 13,"no, only English or Spanish",no,2025-07-23_07h15.42.713,empathy_intonation_perc,2024.2.4,Win32,60.60606061,63d13e9a41e1c279a151bd4b,687ed1b7e638a4cbf2f02089,6880c42edab76013a83c9671,,,,,,,,,,,,,,1,,,,,,,,,,,,,,,,,,,,,,,,,,,,,,,,,,,,,,,,,,,,,,,,,,,,,,,,,68,alegre,,,,,1013.2543,1013.8871,1,1,0.1021,,0,19,19,67,1,REAL,FAKE,,,,,,,,,,,,,,,,,
,,,,,,,,,63d13e9a41e1c279a151bd4b,Spanish,younger than 13,"no, only English or Spanish",no,2025-07-23_07h15.42.713,empathy_intonation_perc,2024.2.4,Win32,60.60606061,63d13e9a41e1c279a151bd4b,687ed1b7e638a4cbf2f02089,6880c42edab76013a83c9671,,,,,,,,,,,,,,1,,,,,,,,,,,,,,,,,,,,,,,,,,,,,,,,,,,,,,,,,,,,,,,,,,,,,,,,,89,prisa,,,,,1013.8878,1014.6706,1,1,0.2471,,0,20,20,88,1,REAL,FAKE,,,,,,,,,,,,,,,,,
,,,,,,,,,63d13e9a41e1c279a151bd4b,Spanish,younger than 13,"no, only English or Spanish",no,2025-07-23_07h15.42.713,empathy_intonation_perc,2024.2.4,Win32,60.60606061,63d13e9a41e1c279a151bd4b,687ed1b7e638a4cbf2f02089,6880c42edab76013a83c9671,,,,,,,,,,,,,,1,,,,,,,,,,,,,,,,,,,,,,,,,,,,,,,,,,,,,,,,,,,,,,,,,,,,,,,,,76,atar,,,,,1014.6715,1015.4536,1,1,0.2528,,0,21,21,75,1,REAL,FAKE,,,,,,,,,,,,,,,,,
,,,,,,,,,63d13e9a41e1c279a151bd4b,Spanish,younger than 13,"no, only English or Spanish",no,2025-07-23_07h15.42.713,empathy_intonation_perc,2024.2.4,Win32,60.60606061,63d13e9a41e1c279a151bd4b,687ed1b7e638a4cbf2f02089,6880c42edab76013a83c9671,,,,,,,,,,,,,,1,,,,,,,,,,,,,,,,,,,,,,,,,,,,,,,,,,,,,,,,,,,,,,,,,,,,,,,,,2,pellizcar,,,,,1015.4543,1016.3037,0,0,0.3138,,0,22,22,1,1,REAL,FAKE,,,,,,,,,,,,,,,,,
,,,,,,,,,63d13e9a41e1c279a151bd4b,Spanish,younger than 13,"no, only English or Spanish",no,2025-07-23_07h15.42.713,empathy_intonation_perc,2024.2.4,Win32,60.60606061,63d13e9a41e1c279a151bd4b,687ed1b7e638a4cbf2f02089,6880c42edab76013a83c9671,,,,,,,,,,,,,,0,,,,,,,,,,,,,,,,,,,,,,,,,,,,,,,,,,,,,,,,,,,,,,,,,,,,,,,,,16,abracer,,,,,1016.3044,1016.9538,1,0,0.1178,,0,23,23,15,1,REAL,FAKE,,,,,,,,,,,,,,,,,
,,,,,,,,,63d13e9a41e1c279a151bd4b,Spanish,younger than 13,"no, only English or Spanish",no,2025-07-23_07h15.42.713,empathy_intonation_perc,2024.2.4,Win32,60.60606061,63d13e9a41e1c279a151bd4b,687ed1b7e638a4cbf2f02089,6880c42edab76013a83c9671,,,,,,,,,,,,,,0,,,,,,,,,,,,,,,,,,,,,,,,,,,,,,,,,,,,,,,,,,,,,,,,,,,,,,,,,72,pemición,,,,,1016.9548,1017.687,1,0,0.197,,0,24,24,71,1,REAL,FAKE,,,,,,,,,,,,,,,,,
,,,,,,,,,63d13e9a41e1c279a151bd4b,Spanish,younger than 13,"no, only English or Spanish",no,2025-07-23_07h15.42.713,empathy_intonation_perc,2024.2.4,Win32,60.60606061,63d13e9a41e1c279a151bd4b,687ed1b7e638a4cbf2f02089,6880c42edab76013a83c9671,,,,,,,,,,,,,,1,,,,,,,,,,,,,,,,,,,,,,,,,,,,,,,,,,,,,,,,,,,,,,,,,,,,,,,,,12,asesinato,,,,,1017.6878,1018.4873,1,1,0.2663,,0,25,25,11,1,REAL,FAKE,,,,,,,,,,,,,,,,,
,,,,,,,,,63d13e9a41e1c279a151bd4b,Spanish,younger than 13,"no, only English or Spanish",no,2025-07-23_07h15.42.713,empathy_intonation_perc,2024.2.4,Win32,60.60606061,63d13e9a41e1c279a151bd4b,687ed1b7e638a4cbf2f02089,6880c42edab76013a83c9671,,,,,,,,,,,,,,1,,,,,,,,,,,,,,,,,,,,,,,,,,,,,,,,,,,,,,,,,,,,,,,,,,,,,,,,,91,click the 1 key.,,,,,1018.4885,1020.5705,1,1,1.547,,0,26,26,90,1,REAL,FAKE,,,,,,,,,,,,,,,,,
,,,,,,,,,63d13e9a41e1c279a151bd4b,Spanish,younger than 13,"no, only English or Spanish",no,2025-07-23_07h15.42.713,empathy_intonation_perc,2024.2.4,Win32,60.60606061,63d13e9a41e1c279a151bd4b,687ed1b7e638a4cbf2f02089,6880c42edab76013a83c9671,,,,,,,,,,,,,,0,,,,,,,,,,,,,,,,,,,,,,,,,,,,,,,,,,,,,,,,,,,,,,,,,,,,,,,,,30,alardio,,,,,1020.5715,1021.7367,0,1,0.6302,,0,27,27,29,1,REAL,FAKE,,,,,,,,,,,,,,,,,
,,,,,,,,,63d13e9a41e1c279a151bd4b,Spanish,younger than 13,"no, only English or Spanish",no,2025-07-23_07h15.42.713,empathy_intonation_perc,2024.2.4,Win32,60.60606061,63d13e9a41e1c279a151bd4b,687ed1b7e638a4cbf2f02089,6880c42edab76013a83c9671,,,,,,,,,,,,,,1,,,,,,,,,,,,,,,,,,,,,,,,,,,,,,,,,,,,,,,,,,,,,,,,,,,,,,,,,14,yunque,,,,,1021.7373,1022.5536,0,0,0.2832,,0,28,28,13,1,REAL,FAKE,,,,,,,,,,,,,,,,,
,,,,,,,,,63d13e9a41e1c279a151bd4b,Spanish,younger than 13,"no, only English or Spanish",no,2025-07-23_07h15.42.713,empathy_intonation_perc,2024.2.4,Win32,60.60606061,63d13e9a41e1c279a151bd4b,687ed1b7e638a4cbf2f02089,6880c42edab76013a83c9671,,,,,,,,,,,,,,1,,,,,,,,,,,,,,,,,,,,,,,,,,,,,,,,,,,,,,,,,,,,,,,,,,,,,,,,,71,polvoriento,,,,,1022.5542,1023.1204,1,1,0.0308,,0,29,29,70,1,REAL,FAKE,,,,,,,,,,,,,,,,,
,,,,,,,,,63d13e9a41e1c279a151bd4b,Spanish,younger than 13,"no, only English or Spanish",no,2025-07-23_07h15.42.713,empathy_intonation_perc,2024.2.4,Win32,60.60606061,63d13e9a41e1c279a151bd4b,687ed1b7e638a4cbf2f02089,6880c42edab76013a83c9671,,,,,,,,,,,,,,1,,,,,,,,,,,,,,,,,,,,,,,,,,,,,,,,,,,,,,,,,,,,,,,,,,,,,,,,,62,flaco,,,,,1023.1214,1023.6535,0,0,0.0062,,0,30,30,61,1,REAL,FAKE,,,,,,,,,,,,,,,,,
,,,,,,,,,63d13e9a41e1c279a151bd4b,Spanish,younger than 13,"no, only English or Spanish",no,2025-07-23_07h15.42.713,empathy_intonation_perc,2024.2.4,Win32,60.60606061,63d13e9a41e1c279a151bd4b,687ed1b7e638a4cbf2f02089,6880c42edab76013a83c9671,,,,,,,,,,,,,,0,,,,,,,,,,,,,,,,,,,,,,,,,,,,,,,,,,,,,,,,,,,,,,,,,,,,,,,,,50,flamida,,,,,1023.6542,1024.4201,0,1,0.2539,,0,31,31,49,1,REAL,FAKE,,,,,,,,,,,,,,,,,
,,,,,,,,,63d13e9a41e1c279a151bd4b,Spanish,younger than 13,"no, only English or Spanish",no,2025-07-23_07h15.42.713,empathy_intonation_perc,2024.2.4,Win32,60.60606061,63d13e9a41e1c279a151bd4b,687ed1b7e638a4cbf2f02089,6880c42edab76013a83c9671,,,,,,,,,,,,,,1,,,,,,,,,,,,,,,,,,,,,,,,,,,,,,,,,,,,,,,,,,,,,,,,,,,,,,,,,52,camisa,,,,,1024.421,1025.3868,0,0,0.4334,,0,32,32,51,1,REAL,FAKE,,,,,,,,,,,,,,,,,
,,,,,,,,,63d13e9a41e1c279a151bd4b,Spanish,younger than 13,"no, only English or Spanish",no,2025-07-23_07h15.42.713,empathy_intonation_perc,2024.2.4,Win32,60.60606061,63d13e9a41e1c279a151bd4b,687ed1b7e638a4cbf2f02089,6880c42edab76013a83c9671,,,,,,,,,,,,,,1,,,,,,,,,,,,,,,,,,,,,,,,,,,,,,,,,,,,,,,,,,,,,,,,,,,,,,,,,57,tacaño,,,,,1025.3877,1026.1365,0,0,0.2149,,0,33,33,56,1,REAL,FAKE,,,,,,,,,,,,,,,,,
,,,,,,,,,63d13e9a41e1c279a151bd4b,Spanish,younger than 13,"no, only English or Spanish",no,2025-07-23_07h15.42.713,empathy_intonation_perc,2024.2.4,Win32,60.60606061,63d13e9a41e1c279a151bd4b,687ed1b7e638a4cbf2f02089,6880c42edab76013a83c9671,,,,,,,,,,,,,,0,,,,,,,,,,,,,,,,,,,,,,,,,,,,,,,,,,,,,,,,,,,,,,,,,,,,,,,,,84,escuto,,,,,1026.1374,1027.0704,0,1,0.4092,,0,34,34,83,1,REAL,FAKE,,,,,,,,,,,,,,,,,
,,,,,,,,,63d13e9a41e1c279a151bd4b,Spanish,younger than 13,"no, only English or Spanish",no,2025-07-23_07h15.42.713,empathy_intonation_perc,2024.2.4,Win32,60.60606061,63d13e9a41e1c279a151bd4b,687ed1b7e638a4cbf2f02089,6880c42edab76013a83c9671,,,,,,,,,,,,,,1,,,,,,,,,,,,,,,,,,,,,,,,,,,,,,,,,,,,,,,,,,,,,,,,,,,,,,,,,78,frondoso,,,,,1027.0718,1028.0703,0,0,0.4666,,0,35,35,77,1,REAL,FAKE,,,,,,,,,,,,,,,,,
,,,,,,,,,63d13e9a41e1c279a151bd4b,Spanish,younger than 13,"no, only English or Spanish",no,2025-07-23_07h15.42.713,empathy_intonation_perc,2024.2.4,Win32,60.60606061,63d13e9a41e1c279a151bd4b,687ed1b7e638a4cbf2f02089,6880c42edab76013a83c9671,,,,,,,,,,,,,,1,,,,,,,,,,,,,,,,,,,,,,,,,,,,,,,,,,,,,,,,,,,,,,,,,,,,,,,,,64,orgulloso,,,,,1028.0721,1028.92,0,0,0.3145,,0,36,36,63,1,REAL,FAKE,,,,,,,,,,,,,,,,,
,,,,,,,,,63d13e9a41e1c279a151bd4b,Spanish,younger than 13,"no, only English or Spanish",no,2025-07-23_07h15.42.713,empathy_intonation_perc,2024.2.4,Win32,60.60606061,63d13e9a41e1c279a151bd4b,687ed1b7e638a4cbf2f02089,6880c42edab76013a83c9671,,,,,,,,,,,,,,1,,,,,,,,,,,,,,,,,,,,,,,,,,,,,,,,,,,,,,,,,,,,,,,,,,,,,,,,,56,musgo,,,,,1028.9205,1029.7534,1,1,0.3086,,0,37,37,55,1,REAL,FAKE,,,,,,,,,,,,,,,,,
,,,,,,,,,63d13e9a41e1c279a151bd4b,Spanish,younger than 13,"no, only English or Spanish",no,2025-07-23_07h15.42.713,empathy_intonation_perc,2024.2.4,Win32,60.60606061,63d13e9a41e1c279a151bd4b,687ed1b7e638a4cbf2f02089,6880c42edab76013a83c9671,,,,,,,,,,,,,,0,,,,,,,,,,,,,,,,,,,,,,,,,,,,,,,,,,,,,,,,,,,,,,,,,,,,,,,,,18,arsa,,,,,1029.7541,1030.5368,1,0,0.2494,,0,38,38,17,1,REAL,FAKE,,,,,,,,,,,,,,,,,
,,,,,,,,,63d13e9a41e1c279a151bd4b,Spanish,younger than 13,"no, only English or Spanish",no,2025-07-23_07h15.42.713,empathy_intonation_perc,2024.2.4,Win32,60.60606061,63d13e9a41e1c279a151bd4b,687ed1b7e638a4cbf2f02089,6880c42edab76013a83c9671,,,,,,,,,,,,,,0,,,,,,,,,,,,,,,,,,,,,,,,,,,,,,,,,,,,,,,,,,,,,,,,,,,,,,,,,66,hacido,,,,,1030.5373,1031.5035,1,0,0.4334,,0,39,39,65,1,REAL,FAKE,,,,,,,,,,,,,,,,,
,,,,,,,,,63d13e9a41e1c279a151bd4b,Spanish,younger than 13,"no, only English or Spanish",no,2025-07-23_07h15.42.713,empathy_intonation_perc,2024.2.4,Win32,60.60606061,63d13e9a41e1c279a151bd4b,687ed1b7e638a4cbf2f02089,6880c42edab76013a83c9671,,,,,,,,,,,,,,1,,,,,,,,,,,,,,,,,,,,,,,,,,,,,,,,,,,,,,,,,,,,,,,,,,,,,,,,,61,seda,,,,,1031.504,1032.4031,1,1,0.3906,,0,40,40,60,1,REAL,FAKE,,,,,,,,,,,,,,,,,
,,,,,,,,,63d13e9a41e1c279a151bd4b,Spanish,younger than 13,"no, only English or Spanish",no,2025-07-23_07h15.42.713,empathy_intonation_perc,2024.2.4,Win32,60.60606061,63d13e9a41e1c279a151bd4b,687ed1b7e638a4cbf2f02089,6880c42edab76013a83c9671,,,,,,,,,,,,,,1,,,,,,,,,,,,,,,,,,,,,,,,,,,,,,,,,,,,,,,,,,,,,,,,,,,,,,,,,39,torpe,,,,,1032.4039,1033.4865,1,1,0.5469,,0,41,41,38,1,REAL,FAKE,,,,,,,,,,,,,,,,,
,,,,,,,,,63d13e9a41e1c279a151bd4b,Spanish,younger than 13,"no, only English or Spanish",no,2025-07-23_07h15.42.713,empathy_intonation_perc,2024.2.4,Win32,60.60606061,63d13e9a41e1c279a151bd4b,687ed1b7e638a4cbf2f02089,6880c42edab76013a83c9671,,,,,,,,,,,,,,0,,,,,,,,,,,,,,,,,,,,,,,,,,,,,,,,,,,,,,,,,,,,,,,,,,,,,,,,,42,cadallo,,,,,1033.4872,1034.3035,1,0,0.2827,,0,42,42,41,1,REAL,FAKE,,,,,,,,,,,,,,,,,
,,,,,,,,,63d13e9a41e1c279a151bd4b,Spanish,younger than 13,"no, only English or Spanish",no,2025-07-23_07h15.42.713,empathy_intonation_perc,2024.2.4,Win32,60.60606061,63d13e9a41e1c279a151bd4b,687ed1b7e638a4cbf2f02089,6880c42edab76013a83c9671,,,,,,,,,,,,,,1,,,,,,,,,,,,,,,,,,,,,,,,,,,,,,,,,,,,,,,,,,,,,,,,,,,,,,,,,77,tiburón,,,,,1034.3045,1035.2699,0,0,0.4308,,0,43,43,76,1,REAL,FAKE,,,,,,,,,,,,,,,,,
,,,,,,,,,63d13e9a41e1c279a151bd4b,Spanish,younger than 13,"no, only English or Spanish",no,2025-07-23_07h15.42.713,empathy_intonation_perc,2024.2.4,Win32,60.60606061,63d13e9a41e1c279a151bd4b,687ed1b7e638a4cbf2f02089,6880c42edab76013a83c9671,,,,,,,,,,,,,,1,,,,,,,,,,,,,,,,,,,,,,,,,,,,,,,,,,,,,,,,,,,,,,,,,,,,,,,,,6,tergiversar,,,,,1035.2706,1036.1036,0,0,0.2964,,0,44,44,5,1,REAL,FAKE,,,,,,,,,,,,,,,,,
,,,,,,,,,63d13e9a41e1c279a151bd4b,Spanish,younger than 13,"no, only English or Spanish",no,2025-07-23_07h15.42.713,empathy_intonation_perc,2024.2.4,Win32,60.60606061,63d13e9a41e1c279a151bd4b,687ed1b7e638a4cbf2f02089,6880c42edab76013a83c9671,,,,,,,,,,,,,,1,,,,,,,,,,,,,,,,,,,,,,,,,,,,,,,,,,,,,,,,,,,,,,,,,,,,,,,,,5,zapato,,,,,1036.1044,1037.0863,1,1,0.4576,,0,45,45,4,1,REAL,FAKE,,,,,,,,,,,,,,,,,
,,,,,,,,,63d13e9a41e1c279a151bd4b,Spanish,younger than 13,"no, only English or Spanish",no,2025-07-23_07h15.42.713,empathy_intonation_perc,2024.2.4,Win32,60.60606061,63d13e9a41e1c279a151bd4b,687ed1b7e638a4cbf2f02089,6880c42edab76013a83c9671,,,,,,,,,,,,,,1,,,,,,,,,,,,,,,,,,,,,,,,,,,,,,,,,,,,,,,,,,,,,,,,,,,,,,,,,9,hacha,,,,,1037.0869,1037.887,0,0,0.2755,,0,46,46,8,1,REAL,FAKE,,,,,,,,,,,,,,,,,
,,,,,,,,,63d13e9a41e1c279a151bd4b,Spanish,younger than 13,"no, only English or Spanish",no,2025-07-23_07h15.42.713,empathy_intonation_perc,2024.2.4,Win32,60.60606061,63d13e9a41e1c279a151bd4b,687ed1b7e638a4cbf2f02089,6880c42edab76013a83c9671,,,,,,,,,,,,,,0,,,,,,,,,,,,,,,,,,,,,,,,,,,,,,,,,,,,,,,,,,,,,,,,,,,,,,,,,33,pauca,,,,,1037.8878,1038.8867,0,1,0.4709,,0,47,47,32,1,REAL,FAKE,,,,,,,,,,,,,,,,,
,,,,,,,,,63d13e9a41e1c279a151bd4b,Spanish,younger than 13,"no, only English or Spanish",no,2025-07-23_07h15.42.713,empathy_intonation_perc,2024.2.4,Win32,60.60606061,63d13e9a41e1c279a151bd4b,687ed1b7e638a4cbf2f02089,6880c42edab76013a83c9671,,,,,,,,,,,,,,1,,,,,,,,,,,,,,,,,,,,,,,,,,,,,,,,,,,,,,,,,,,,,,,,,,,,,,,,,3,pulmones,,,,,1038.8876,1039.7365,0,0,0.3248,,0,48,48,2,1,REAL,FAKE,,,,,,,,,,,,,,,,,
,,,,,,,,,63d13e9a41e1c279a151bd4b,Spanish,younger than 13,"no, only English or Spanish",no,2025-07-23_07h15.42.713,empathy_intonation_perc,2024.2.4,Win32,60.60606061,63d13e9a41e1c279a151bd4b,687ed1b7e638a4cbf2f02089,6880c42edab76013a83c9671,,,,,,,,,,,,,,0,,,,,,,,,,,,,,,,,,,,,,,,,,,,,,,,,,,,,,,,,,,,,,,,,,,,,,,,,29,decar,,,,,1039.7374,1040.3534,0,1,0.0876,,0,49,49,28,1,REAL,FAKE,,,,,,,,,,,,,,,,,
,,,,,,,,,63d13e9a41e1c279a151bd4b,Spanish,younger than 13,"no, only English or Spanish",no,2025-07-23_07h15.42.713,empathy_intonation_perc,2024.2.4,Win32,60.60606061,63d13e9a41e1c279a151bd4b,687ed1b7e638a4cbf2f02089,6880c42edab76013a83c9671,,,,,,,,,,,,,,1,,,,,,,,,,,,,,,,,,,,,,,,,,,,,,,,,,,,,,,,,,,,,,,,,,,,,,,,,36,loro,,,,,1040.3546,1041.1864,0,0,0.3045,,0,50,50,35,1,REAL,FAKE,,,,,,,,,,,,,,,,,
,,,,,,,,,63d13e9a41e1c279a151bd4b,Spanish,younger than 13,"no, only English or Spanish",no,2025-07-23_07h15.42.713,empathy_intonation_perc,2024.2.4,Win32,60.60606061,63d13e9a41e1c279a151bd4b,687ed1b7e638a4cbf2f02089,6880c42edab76013a83c9671,,,,,,,,,,,,,,1,,,,,,,,,,,,,,,,,,,,,,,,,,,,,,,,,,,,,,,,,,,,,,,,,,,,,,,,,48,ladrón,,,,,1041.1872,1041.753,1,1,0.0388,,0,51,51,47,1,REAL,FAKE,,,,,,,,,,,,,,,,,
,,,,,,,,,63d13e9a41e1c279a151bd4b,Spanish,younger than 13,"no, only English or Spanish",no,2025-07-23_07h15.42.713,empathy_intonation_perc,2024.2.4,Win32,60.60606061,63d13e9a41e1c279a151bd4b,687ed1b7e638a4cbf2f02089,6880c42edab76013a83c9671,,,,,,,,,,,,,,0,,,,,,,,,,,,,,,,,,,,,,,,,,,,,,,,,,,,,,,,,,,,,,,,,,,,,,,,,17,floroso,,,,,1041.7538,1042.3364,0,1,0.0493,,0,52,52,16,1,REAL,FAKE,,,,,,,,,,,,,,,,,
,,,,,,,,,63d13e9a41e1c279a151bd4b,Spanish,younger than 13,"no, only English or Spanish",no,2025-07-23_07h15.42.713,empathy_intonation_perc,2024.2.4,Win32,60.60606061,63d13e9a41e1c279a151bd4b,687ed1b7e638a4cbf2f02089,6880c42edab76013a83c9671,,,,,,,,,,,,,,0,,,,,,,,,,,,,,,,,,,,,,,,,,,,,,,,,,,,,,,,,,,,,,,,,,,,,,,,,74,cintro,,,,,1042.3371,1042.8862,1,0,0.0146,,0,53,53,73,1,REAL,FAKE,,,,,,,,,,,,,,,,,
,,,,,,,,,63d13e9a41e1c279a151bd4b,Spanish,younger than 13,"no, only English or Spanish",no,2025-07-23_07h15.42.713,empathy_intonation_perc,2024.2.4,Win32,60.60606061,63d13e9a41e1c279a151bd4b,687ed1b7e638a4cbf2f02089,6880c42edab76013a83c9671,,,,,,,,,,,,,,1,,,,,,,,,,,,,,,,,,,,,,,,,,,,,,,,,,,,,,,,,,,,,,,,,,,,,,,,,80,hormiga,,,,,1042.8868,1043.5362,1,1,0.1139,,0,54,54,79,1,REAL,FAKE,,,,,,,,,,,,,,,,,
,,,,,,,,,63d13e9a41e1c279a151bd4b,Spanish,younger than 13,"no, only English or Spanish",no,2025-07-23_07h15.42.713,empathy_intonation_perc,2024.2.4,Win32,60.60606061,63d13e9a41e1c279a151bd4b,687ed1b7e638a4cbf2f02089,6880c42edab76013a83c9671,,,,,,,,,,,,,,0,,,,,,,,,,,,,,,,,,,,,,,,,,,,,,,,,,,,,,,,,,,,,,,,,,,,,,,,,32,fatacidad,,,,,1043.5369,1044.2366,1,0,0.1842,,0,55,55,31,1,REAL,FAKE,,,,,,,,,,,,,,,,,
,,,,,,,,,63d13e9a41e1c279a151bd4b,Spanish,younger than 13,"no, only English or Spanish",no,2025-07-23_07h15.42.713,empathy_intonation_perc,2024.2.4,Win32,60.60606061,63d13e9a41e1c279a151bd4b,687ed1b7e638a4cbf2f02089,6880c42edab76013a83c9671,,,,,,,,,,,,,,1,,,,,,,,,,,,,,,,,,,,,,,,,,,,,,,,,,,,,,,,,,,,,,,,,,,,,,,,,59,besar,,,,,1044.2373,1045.1198,0,0,0.3484,,0,56,56,58,1,REAL,FAKE,,,,,,,,,,,,,,,,,
,,,,,,,,,63d13e9a41e1c279a151bd4b,Spanish,younger than 13,"no, only English or Spanish",no,2025-07-23_07h15.42.713,empathy_intonation_perc,2024.2.4,Win32,60.60606061,63d13e9a41e1c279a151bd4b,687ed1b7e638a4cbf2f02089,6880c42edab76013a83c9671,,,,,,,,,,,,,,1,,,,,,,,,,,,,,,,,,,,,,,,,,,,,,,,,,,,,,,,,,,,,,,,,,,,,,,,,86,barato,,,,,1045.1207,1045.803,1,1,0.1512,,0,57,57,85,1,REAL,FAKE,,,,,,,,,,,,,,,,,
,,,,,,,,,63d13e9a41e1c279a151bd4b,Spanish,younger than 13,"no, only English or Spanish",no,2025-07-23_07h15.42.713,empathy_intonation_perc,2024.2.4,Win32,60.60606061,63d13e9a41e1c279a151bd4b,687ed1b7e638a4cbf2f02089,6880c42edab76013a83c9671,,,,,,,,,,,,,,1,,,,,,,,,,,,,,,,,,,,,,,,,,,,,,,,,,,,,,,,,,,,,,,,,,,,,,,,,81,pozo,,,,,1045.8035,1046.8029,1,1,0.4705,,0,58,58,80,1,REAL,FAKE,,,,,,,,,,,,,,,,,
,,,,,,,,,63d13e9a41e1c279a151bd4b,Spanish,younger than 13,"no, only English or Spanish",no,2025-07-23_07h15.42.713,empathy_intonation_perc,2024.2.4,Win32,60.60606061,63d13e9a41e1c279a151bd4b,687ed1b7e638a4cbf2f02089,6880c42edab76013a83c9671,,,,,,,,,,,,,,1,,,,,,,,,,,,,,,,,,,,,,,,,,,,,,,,,,,,,,,,,,,,,,,,,,,,,,,,,25,bisagra,,,,,1046.8035,1047.6864,1,1,0.3512,,0,59,59,24,1,REAL,FAKE,,,,,,,,,,,,,,,,,
,,,,,,,,,63d13e9a41e1c279a151bd4b,Spanish,younger than 13,"no, only English or Spanish",no,2025-07-23_07h15.42.713,empathy_intonation_perc,2024.2.4,Win32,60.60606061,63d13e9a41e1c279a151bd4b,687ed1b7e638a4cbf2f02089,6880c42edab76013a83c9671,,,,,,,,,,,,,,0,,,,,,,,,,,,,,,,,,,,,,,,,,,,,,,,,,,,,,,,,,,,,,,,,,,,,,,,,35,rompido,,,,,1047.6873,1048.3697,0,1,0.1547,,0,60,60,34,1,REAL,FAKE,,,,,,,,,,,,,,,,,
,,,,,,,,,63d13e9a41e1c279a151bd4b,Spanish,younger than 13,"no, only English or Spanish",no,2025-07-23_07h15.42.713,empathy_intonation_perc,2024.2.4,Win32,60.60606061,63d13e9a41e1c279a151bd4b,687ed1b7e638a4cbf2f02089,6880c42edab76013a83c9671,,,,,,,,,,,,,,0,,,,,,,,,,,,,,,,,,,,,,,,,,,,,,,,,,,,,,,,,,,,,,,,,,,,,,,,,79,tropaje,,,,,1048.3704,1049.1865,1,0,0.2808,,0,61,61,78,1,REAL,FAKE,,,,,,,,,,,,,,,,,
,,,,,,,,,63d13e9a41e1c279a151bd4b,Spanish,younger than 13,"no, only English or Spanish",no,2025-07-23_07h15.42.713,empathy_intonation_perc,2024.2.4,Win32,60.60606061,63d13e9a41e1c279a151bd4b,687ed1b7e638a4cbf2f02089,6880c42edab76013a83c9671,,,,,,,,,,,,,,1,,,,,,,,,,,,,,,,,,,,,,,,,,,,,,,,,,,,,,,,,,,,,,,,,,,,,,,,,7,pésimo,,,,,1049.1872,1050.053,0,0,0.3309,,0,62,62,6,1,REAL,FAKE,,,,,,,,,,,,,,,,,
,,,,,,,,,63d13e9a41e1c279a151bd4b,Spanish,younger than 13,"no, only English or Spanish",no,2025-07-23_07h15.42.713,empathy_intonation_perc,2024.2.4,Win32,60.60606061,63d13e9a41e1c279a151bd4b,687ed1b7e638a4cbf2f02089,6880c42edab76013a83c9671,,,,,,,,,,,,,,1,,,,,,,,,,,,,,,,,,,,,,,,,,,,,,,,,,,,,,,,,,,,,,,,,,,,,,,,,83,guante,,,,,1050.0536,1050.7532,0,0,0.1675,,0,63,63,82,1,REAL,FAKE,,,,,,,,,,,,,,,,,
,,,,,,,,,63d13e9a41e1c279a151bd4b,Spanish,younger than 13,"no, only English or Spanish",no,2025-07-23_07h15.42.713,empathy_intonation_perc,2024.2.4,Win32,60.60606061,63d13e9a41e1c279a151bd4b,687ed1b7e638a4cbf2f02089,6880c42edab76013a83c9671,,,,,,,,,,,,,,1,,,,,,,,,,,,,,,,,,,,,,,,,,,,,,,,,,,,,,,,,,,,,,,,,,,,,,,,,90,clavel,,,,,1050.7539,1051.4031,1,1,0.1178,,0,64,64,89,1,REAL,FAKE,,,,,,,,,,,,,,,,,
,,,,,,,,,63d13e9a41e1c279a151bd4b,Spanish,younger than 13,"no, only English or Spanish",no,2025-07-23_07h15.42.713,empathy_intonation_perc,2024.2.4,Win32,60.60606061,63d13e9a41e1c279a151bd4b,687ed1b7e638a4cbf2f02089,6880c42edab76013a83c9671,,,,,,,,,,,,,,0,,,,,,,,,,,,,,,,,,,,,,,,,,,,,,,,,,,,,,,,,,,,,,,,,,,,,,,,,1,terzo,,,,,1051.4042,1051.9695,1,0,0.0408,,0,65,65,0,1,REAL,FAKE,,,,,,,,,,,,,,,,,
,,,,,,,,,63d13e9a41e1c279a151bd4b,Spanish,younger than 13,"no, only English or Spanish",no,2025-07-23_07h15.42.713,empathy_intonation_perc,2024.2.4,Win32,60.60606061,63d13e9a41e1c279a151bd4b,687ed1b7e638a4cbf2f02089,6880c42edab76013a83c9671,,,,,,,,,,,,,,1,,,,,,,,,,,,,,,,,,,,,,,,,,,,,,,,,,,,,,,,,,,,,,,,,,,,,,,,,75,yacer,,,,,1051.9704,1052.5694,1,1,0.0729,,0,66,66,74,1,REAL,FAKE,,,,,,,,,,,,,,,,,
,,,,,,,,,63d13e9a41e1c279a151bd4b,Spanish,younger than 13,"no, only English or Spanish",no,2025-07-23_07h15.42.713,empathy_intonation_perc,2024.2.4,Win32,60.60606061,63d13e9a41e1c279a151bd4b,687ed1b7e638a4cbf2f02089,6880c42edab76013a83c9671,,,,,,,,,,,,,,1,,,,,,,,,,,,,,,,,,,,,,,,,,,,,,,,,,,,,,,,,,,,,,,,,,,,,,,,,69,engatusar,,,,,1052.5699,1053.1364,0,0,0.0486,,0,67,67,68,1,REAL,FAKE,,,,,,,,,,,,,,,,,
,,,,,,,,,63d13e9a41e1c279a151bd4b,Spanish,younger than 13,"no, only English or Spanish",no,2025-07-23_07h15.42.713,empathy_intonation_perc,2024.2.4,Win32,60.60606061,63d13e9a41e1c279a151bd4b,687ed1b7e638a4cbf2f02089,6880c42edab76013a83c9671,,,,,,,,,,,,,,1,,,,,,,,,,,,,,,,,,,,,,,,,,,,,,,,,,,,,,,,,,,,,,,,,,,,,,,,,54,fomentar,,,,,1053.1371,1053.7695,1,1,0.0973,,0,68,68,53,1,REAL,FAKE,,,,,,,,,,,,,,,,,
,,,,,,,,,63d13e9a41e1c279a151bd4b,Spanish,younger than 13,"no, only English or Spanish",no,2025-07-23_07h15.42.713,empathy_intonation_perc,2024.2.4,Win32,60.60606061,63d13e9a41e1c279a151bd4b,687ed1b7e638a4cbf2f02089,6880c42edab76013a83c9671,,,,,,,,,,,,,,1,,,,,,,,,,,,,,,,,,,,,,,,,,,,,,,,,,,,,,,,,,,,,,,,,,,,,,,,,38,estornudar,,,,,1053.77,1054.3029,1,1,0.0158,,0,69,69,37,1,REAL,FAKE,,,,,,,,,,,,,,,,,
,,,,,,,,,63d13e9a41e1c279a151bd4b,Spanish,younger than 13,"no, only English or Spanish",no,2025-07-23_07h15.42.713,empathy_intonation_perc,2024.2.4,Win32,60.60606061,63d13e9a41e1c279a151bd4b,687ed1b7e638a4cbf2f02089,6880c42edab76013a83c9671,,,,,,,,,,,,,,0,,,,,,,,,,,,,,,,,,,,,,,,,,,,,,,,,,,,,,,,,,,,,,,,,,,,,,,,,53,vegada,,,,,1054.3039,1054.8695,0,1,0.0313,,0,70,70,52,1,REAL,FAKE,,,,,,,,,,,,,,,,,
,,,,,,,,,63d13e9a41e1c279a151bd4b,Spanish,younger than 13,"no, only English or Spanish",no,2025-07-23_07h15.42.713,empathy_intonation_perc,2024.2.4,Win32,60.60606061,63d13e9a41e1c279a151bd4b,687ed1b7e638a4cbf2f02089,6880c42edab76013a83c9671,,,,,,,,,,,,,,0,,,,,,,,,,,,,,,,,,,,,,,,,,,,,,,,,,,,,,,,,,,,,,,,,,,,,,,,,47,cartinar,,,,,1054.8702,1055.436,1,0,0.0382,,0,71,71,46,1,REAL,FAKE,,,,,,,,,,,,,,,,,
,,,,,,,,,63d13e9a41e1c279a151bd4b,Spanish,younger than 13,"no, only English or Spanish",no,2025-07-23_07h15.42.713,empathy_intonation_perc,2024.2.4,Win32,60.60606061,63d13e9a41e1c279a151bd4b,687ed1b7e638a4cbf2f02089,6880c42edab76013a83c9671,,,,,,,,,,,,,,0,,,,,,,,,,,,,,,,,,,,,,,,,,,,,,,,,,,,,,,,,,,,,,,,,,,,,,,,,87,grodo,,,,,1055.437,1055.9695,1,0,0.0003,,0,72,72,86,1,REAL,FAKE,,,,,,,,,,,,,,,,,
,,,,,,,,,63d13e9a41e1c279a151bd4b,Spanish,younger than 13,"no, only English or Spanish",no,2025-07-23_07h15.42.713,empathy_intonation_perc,2024.2.4,Win32,60.60606061,63d13e9a41e1c279a151bd4b,687ed1b7e638a4cbf2f02089,6880c42edab76013a83c9671,,,,,,,,,,,,,,0,,,,,,,,,,,,,,,,,,,,,,,,,,,,,,,,,,,,,,,,,,,,,,,,,,,,,,,,,82,empirador,,,,,1055.9702,1056.5194,0,1,0.0164,,0,73,73,81,1,REAL,FAKE,,,,,,,,,,,,,,,,,
,,,,,,,,,63d13e9a41e1c279a151bd4b,Spanish,younger than 13,"no, only English or Spanish",no,2025-07-23_07h15.42.713,empathy_intonation_perc,2024.2.4,Win32,60.60606061,63d13e9a41e1c279a151bd4b,687ed1b7e638a4cbf2f02089,6880c42edab76013a83c9671,,,,,,,,,,,,,,1,,,,,,,,,,,,,,,,,,,,,,,,,,,,,,,,,,,,,,,,,,,,,,,,,,,,,,,,,44,cuchara,,,,,1056.5201,1057.2027,0,0,0.154,,0,74,74,43,1,REAL,FAKE,,,,,,,,,,,,,,,,,
,,,,,,,,,63d13e9a41e1c279a151bd4b,Spanish,younger than 13,"no, only English or Spanish",no,2025-07-23_07h15.42.713,empathy_intonation_perc,2024.2.4,Win32,60.60606061,63d13e9a41e1c279a151bd4b,687ed1b7e638a4cbf2f02089,6880c42edab76013a83c9671,,,,,,,,,,,,,,1,,,,,,,,,,,,,,,,,,,,,,,,,,,,,,,,,,,,,,,,,,,,,,,,,,,,,,,,,26,secuestro,,,,,1057.2035,1058.2696,0,0,0.5314,,0,75,75,25,1,REAL,FAKE,,,,,,,,,,,,,,,,,
,,,,,,,,,63d13e9a41e1c279a151bd4b,Spanish,younger than 13,"no, only English or Spanish",no,2025-07-23_07h15.42.713,empathy_intonation_perc,2024.2.4,Win32,60.60606061,63d13e9a41e1c279a151bd4b,687ed1b7e638a4cbf2f02089,6880c42edab76013a83c9671,,,,,,,,,,,,,,0,,,,,,,,,,,,,,,,,,,,,,,,,,,,,,,,,,,,,,,,,,,,,,,,,,,,,,,,,21,capillo,,,,,1058.2705,1058.9193,0,1,0.1235,,0,76,76,20,1,REAL,FAKE,,,,,,,,,,,,,,,,,
,,,,,,,,,63d13e9a41e1c279a151bd4b,Spanish,younger than 13,"no, only English or Spanish",no,2025-07-23_07h15.42.713,empathy_intonation_perc,2024.2.4,Win32,60.60606061,63d13e9a41e1c279a151bd4b,687ed1b7e638a4cbf2f02089,6880c42edab76013a83c9671,,,,,,,,,,,,,,1,,,,,,,,,,,,,,,,,,,,,,,,,,,,,,,,,,,,,,,,,,,,,,,,,,,,,,,,,73,hervidor,,,,,1058.9199,1059.4692,0,0,0.0147,,0,77,77,72,1,REAL,FAKE,,,,,,,,,,,,,,,,,
,,,,,,,,,63d13e9a41e1c279a151bd4b,Spanish,younger than 13,"no, only English or Spanish",no,2025-07-23_07h15.42.713,empathy_intonation_perc,2024.2.4,Win32,60.60606061,63d13e9a41e1c279a151bd4b,687ed1b7e638a4cbf2f02089,6880c42edab76013a83c9671,,,,,,,,,,,,,,1,,,,,,,,,,,,,,,,,,,,,,,,,,,,,,,,,,,,,,,,,,,,,,,,,,,,,,,,,51,candado,,,,,1059.4698,1060.5194,1,1,0.5219,,0,78,78,50,1,REAL,FAKE,,,,,,,,,,,,,,,,,
,,,,,,,,,63d13e9a41e1c279a151bd4b,Spanish,younger than 13,"no, only English or Spanish",no,2025-07-23_07h15.42.713,empathy_intonation_perc,2024.2.4,Win32,60.60606061,63d13e9a41e1c279a151bd4b,687ed1b7e638a4cbf2f02089,6880c42edab76013a83c9671,,,,,,,,,,,,,,1,,,,,,,,,,,,,,,,,,,,,,,,,,,,,,,,,,,,,,,,,,,,,,,,,,,,,,,,,22,lacayo,,,,,1060.5199,1061.0529,1,1,0.0003,,0,79,79,21,1,REAL,FAKE,,,,,,,,,,,,,,,,,
,,,,,,,,,63d13e9a41e1c279a151bd4b,Spanish,younger than 13,"no, only English or Spanish",no,2025-07-23_07h15.42.713,empathy_intonation_perc,2024.2.4,Win32,60.60606061,63d13e9a41e1c279a151bd4b,687ed1b7e638a4cbf2f02089,6880c42edab76013a83c9671,,,,,,,,,,,,,,1,,,,,,,,,,,,,,,,,,,,,,,,,,,,,,,,,,,,,,,,,,,,,,,,,,,,,,,,,41,rebuscar,,,,,1061.0536,1061.6695,1,1,0.086,,0,80,80,40,1,REAL,FAKE,,,,,,,,,,,,,,,,,
,,,,,,,,,63d13e9a41e1c279a151bd4b,Spanish,younger than 13,"no, only English or Spanish",no,2025-07-23_07h15.42.713,empathy_intonation_perc,2024.2.4,Win32,60.60606061,63d13e9a41e1c279a151bd4b,687ed1b7e638a4cbf2f02089,6880c42edab76013a83c9671,,,,,,,,,,,,,,1,,,,,,,,,,,,,,,,,,,,,,,,,,,,,,,,,,,,,,,,,,,,,,,,,,,,,,,,,28,merodear,,,,,1061.6703,1062.3359,1,1,0.1362,,0,81,81,27,1,REAL,FAKE,,,,,,,,,,,,,,,,,
,,,,,,,,,63d13e9a41e1c279a151bd4b,Spanish,younger than 13,"no, only English or Spanish",no,2025-07-23_07h15.42.713,empathy_intonation_perc,2024.2.4,Win32,60.60606061,63d13e9a41e1c279a151bd4b,687ed1b7e638a4cbf2f02089,6880c42edab76013a83c9671,,,,,,,,,,,,,,1,,,,,,,,,,,,,,,,,,,,,,,,,,,,,,,,,,,,,,,,,,,,,,,,,,,,,,,,,34,aviso,,,,,1062.3365,1063.019,1,1,0.157,,0,82,82,33,1,REAL,FAKE,,,,,,,,,,,,,,,,,
,,,,,,,,,63d13e9a41e1c279a151bd4b,Spanish,younger than 13,"no, only English or Spanish",no,2025-07-23_07h15.42.713,empathy_intonation_perc,2024.2.4,Win32,60.60606061,63d13e9a41e1c279a151bd4b,687ed1b7e638a4cbf2f02089,6880c42edab76013a83c9671,,,,,,,,,,,,,,0,,,,,,,,,,,,,,,,,,,,,,,,,,,,,,,,,,,,,,,,,,,,,,,,,,,,,,,,,27,acutación,,,,,1063.0195,1063.7693,0,1,0.2409,,0,83,83,26,1,REAL,FAKE,,,,,,,,,,,,,,,,,
,,,,,,,,,63d13e9a41e1c279a151bd4b,Spanish,younger than 13,"no, only English or Spanish",no,2025-07-23_07h15.42.713,empathy_intonation_perc,2024.2.4,Win32,60.60606061,63d13e9a41e1c279a151bd4b,687ed1b7e638a4cbf2f02089,6880c42edab76013a83c9671,,,,,,,,,,,,,,1,,,,,,,,,,,,,,,,,,,,,,,,,,,,,,,,,,,,,,,,,,,,,,,,,,,,,,,,,85,laúd,,,,,1063.7701,1064.3026,1,1,0.0005,,0,84,84,84,1,REAL,FAKE,,,,,,,,,,,,,,,,,
,,,,,,,,,63d13e9a41e1c279a151bd4b,Spanish,younger than 13,"no, only English or Spanish",no,2025-07-23_07h15.42.713,empathy_intonation_perc,2024.2.4,Win32,60.60606061,63d13e9a41e1c279a151bd4b,687ed1b7e638a4cbf2f02089,6880c42edab76013a83c9671,,,,,,,,,,,,,,0,,,,,,,,,,,,,,,,,,,,,,,,,,,,,,,,,,,,,,,,,,,,,,,,,,,,,,,,,58,plaudir,,,,,1064.3033,1065.069,1,0,0.2413,,0,85,85,57,1,REAL,FAKE,,,,,,,,,,,,,,,,,
,,,,,,,,,63d13e9a41e1c279a151bd4b,Spanish,younger than 13,"no, only English or Spanish",no,2025-07-23_07h15.42.713,empathy_intonation_perc,2024.2.4,Win32,60.60606061,63d13e9a41e1c279a151bd4b,687ed1b7e638a4cbf2f02089,6880c42edab76013a83c9671,,,,,,,,,,,,,,1,,,,,,,,,,,,,,,,,,,,,,,,,,,,,,,,,,,,,,,,,,,,,,,,,,,,,,,,,67,cabello,,,,,1065.0696,1065.8193,1,1,0.2165,,0,86,86,66,1,REAL,FAKE,,,,,,,,,,,,,,,,,
,,,,,,,,,63d13e9a41e1c279a151bd4b,Spanish,younger than 13,"no, only English or Spanish",no,2025-07-23_07h15.42.713,empathy_intonation_perc,2024.2.4,Win32,60.60606061,63d13e9a41e1c279a151bd4b,687ed1b7e638a4cbf2f02089,6880c42edab76013a83c9671,,,,,,,,,,,,,,1,,,,,,,,,,,,,,,,,,,,,,,,,,,,,,,,,,,,,,,,,,,,,,,,,,,,,,,,,88,acantilado,,,,,1065.8198,1066.6025,1,1,0.2474,,0,87,87,87,1,REAL,FAKE,,,,,,,,,,,,,,,,,
,,,,,,,,,63d13e9a41e1c279a151bd4b,Spanish,younger than 13,"no, only English or Spanish",no,2025-07-23_07h15.42.713,empathy_intonation_perc,2024.2.4,Win32,60.60606061,63d13e9a41e1c279a151bd4b,687ed1b7e638a4cbf2f02089,6880c42edab76013a83c9671,,,,,,,,,,,,,,0,,,,,,,,,,,,,,,,,,,,,,,,,,,,,,,,,,,,,,,,,,,,,,,,,,,,,,,,,8,cadeña,,,,,1066.6032,1067.2694,1,0,0.1318,,0,88,88,7,1,REAL,FAKE,,,,,,,,,,,,,,,,,
,,,,,,,,,63d13e9a41e1c279a151bd4b,Spanish,younger than 13,"no, only English or Spanish",no,2025-07-23_07h15.42.713,empathy_intonation_perc,2024.2.4,Win32,60.60606061,63d13e9a41e1c279a151bd4b,687ed1b7e638a4cbf2f02089,6880c42edab76013a83c9671,,,,,,,,,,,,,,1,,,,,,,,,,,,,,,,,,,,,,,,,,,,,,,,,,,,,,,,,,,,,,,,,,,,,,,,,43,canela,,,,,1067.2701,1068.0524,0,0,0.255,,0,89,89,42,1,REAL,FAKE,,,,,,,,,,,,,,,,,
,,,,,,,,,63d13e9a41e1c279a151bd4b,Spanish,younger than 13,"no, only English or Spanish",no,2025-07-23_07h15.42.713,empathy_intonation_perc,2024.2.4,Win32,60.60606061,63d13e9a41e1c279a151bd4b,687ed1b7e638a4cbf2f02089,6880c42edab76013a83c9671,,,,,,,,,,,,,,1,,,,,,,,,,,,,,,,,,,,,,,,,,,,,,,,,,,,,,,,,,,,,,,,,,,,,,,,,45,jilguero,,,,,1068.0531,1068.6357,0,0,0.0553,,0,90,90,44,1,REAL,FAKE,,,,,,,,,,,,,,,,,
,,,,,,,,,63d13e9a41e1c279a151bd4b,Spanish,younger than 13,"no, only English or Spanish",no,2025-07-23_07h15.42.713,empathy_intonation_perc,2024.2.4,Win32,60.60606061,63d13e9a41e1c279a151bd4b,687ed1b7e638a4cbf2f02089,6880c42edab76013a83c9671,,,,,,,,,,,,,,0,,,,,,,,,,,,,,,,,,,,,,,,,,,,,,,,,,,,,,,,,,,,,,,,,,,,,,,,,4,batillón,,,,,1068.6362,1069.2693,0,1,0.104,,0,91,91,3,1,REAL,FAKE,,,,,,,,,,,,,,,,,
,,,,,,,,,63d13e9a41e1c279a151bd4b,Spanish,younger than 13,"no, only English or Spanish",no,2025-07-23_07h15.42.713,empathy_intonation_perc,2024.2.4,Win32,60.60606061,63d13e9a41e1c279a151bd4b,687ed1b7e638a4cbf2f02089,6880c42edab76013a83c9671,,,,,,,,,,,,,,,,,,,,,,,,,,,,,,,,,,,,,,,,,,,,,,,,,,,,,,,,,,,,,,,,,,,,,,,,,,,,,,,,,,,,,,,,,,1069.2697,1072.086,,,,,,,,,,,,,,,
,,,,,,,,,63d13e9a41e1c279a151bd4b,Spanish,younger than 13,"no, only English or Spanish",no,2025-07-23_07h15.42.713,empathy_intonation_perc,2024.2.4,Win32,60.60606061,63d13e9a41e1c279a151bd4b,687ed1b7e638a4cbf2f02089,6880c42edab76013a83c9671,,,,,,,,,,,,,1,,,,,,,,,,,,,,,,,,,,,,,,,,,,,,,,,,,,,,,,,,,,,,,,,,,,,,,,,,,,,,,,,,,,,,,,,,,,,,,1072.0917,1076.2859,slightly agree,0,0,0,0,1,I can easily tell if someone else wants to enter a conversation.,1,0,1,0,,
,,,,,,,,,63d13e9a41e1c279a151bd4b,Spanish,younger than 13,"no, only English or Spanish",no,2025-07-23_07h15.42.713,empathy_intonation_perc,2024.2.4,Win32,60.60606061,63d13e9a41e1c279a151bd4b,687ed1b7e638a4cbf2f02089,6880c42edab76013a83c9671,,,,,,,,,,,,,2,,,,,,,,,,,,,,,,,,,,,,,,,,,,,,,,,,,,,,,,,,,,,,,,,,,,,,,,,,,,,,,,,,,,,,,,,,,,,,,1076.2882,1079.2025,strongly agree,0,1,1,1,1,I prefer animals to humans.,0,1,0,0,,
,,,,,,,,,63d13e9a41e1c279a151bd4b,Spanish,younger than 13,"no, only English or Spanish",no,2025-07-23_07h15.42.713,empathy_intonation_perc,2024.2.4,Win32,60.60606061,63d13e9a41e1c279a151bd4b,687ed1b7e638a4cbf2f02089,6880c42edab76013a83c9671,,,,,,,,,,,,,3,,,,,,,,,,,,,,,,,,,,,,,,,,,,,,,,,,,,,,,,,,,,,,,,,,,,,,,,,,,,,,,,,,,,,,,,,,,,,,,1079.2038,1080.2853,strongly agree,0,2,2,2,1,I try to keep up with the current trends and fashions.,0,1,0,0,,
,,,,,,,,,63d13e9a41e1c279a151bd4b,Spanish,younger than 13,"no, only English or Spanish",no,2025-07-23_07h15.42.713,empathy_intonation_perc,2024.2.4,Win32,60.60606061,63d13e9a41e1c279a151bd4b,687ed1b7e638a4cbf2f02089,6880c42edab76013a83c9671,,,,,,,,,,,,,4,,,,,,,,,,,,,,,,,,,,,,,,,,,,,,,,,,,,,,,,,,,,,,,,,,,,,,,,,,,,,,,,,,,,,,,,,,,,,,,1080.2873,1081.4687,slightly agree,0,3,3,3,1,"I find it difficult to explain to others things that I understand easily,   when they don't understand it first time.",1,0,0,1,,
,,,,,,,,,63d13e9a41e1c279a151bd4b,Spanish,younger than 13,"no, only English or Spanish",no,2025-07-23_07h15.42.713,empathy_intonation_perc,2024.2.4,Win32,60.60606061,63d13e9a41e1c279a151bd4b,687ed1b7e638a4cbf2f02089,6880c42edab76013a83c9671,,,,,,,,,,,,,5,,,,,,,,,,,,,,,,,,,,,,,,,,,,,,,,,,,,,,,,,,,,,,,,,,,,,,,,,,,,,,,,,,,,,,,,,,,,,,,1081.4696,1082.5022,slightly agree,0,4,4,4,1,I dream most nights.,0,1,0,0,,
,,,,,,,,,63d13e9a41e1c279a151bd4b,Spanish,younger than 13,"no, only English or Spanish",no,2025-07-23_07h15.42.713,empathy_intonation_perc,2024.2.4,Win32,60.60606061,63d13e9a41e1c279a151bd4b,687ed1b7e638a4cbf2f02089,6880c42edab76013a83c9671,,,,,,,,,,,,,6,,,,,,,,,,,,,,,,,,,,,,,,,,,,,,,,,,,,,,,,,,,,,,,,,,,,,,,,,,,,,,,,,,,,,,,,,,,,,,,1082.5036,1083.6853,slightly agree,0,5,5,5,1,I really enjoy caring for other people.,1,0,1,0,,
,,,,,,,,,63d13e9a41e1c279a151bd4b,Spanish,younger than 13,"no, only English or Spanish",no,2025-07-23_07h15.42.713,empathy_intonation_perc,2024.2.4,Win32,60.60606061,63d13e9a41e1c279a151bd4b,687ed1b7e638a4cbf2f02089,6880c42edab76013a83c9671,,,,,,,,,,,,,7,,,,,,,,,,,,,,,,,,,,,,,,,,,,,,,,,,,,,,,,,,,,,,,,,,,,,,,,,,,,,,,,,,,,,,,,,,,,,,,1083.6866,1084.4687,slightly agree,0,6,6,6,1,I try to solve my own problems rather than discussing them with others.,0,1,0,0,,
