instructions_exposure.started,instructions_exposure.stopped,instructions_exposure_loop.thisRepN,instructions_exposure_loop.thisTrialN,instructions_exposure_loop.thisN,instructions_exposure_loop.thisIndex,instructions_exposure_loop.ran,instructions_text,continue_text,participant_id,"What variety of Spanish are you most familiar with? (e.g., Peruvian, Spanish, Mexican)",At what age did you begin learning Spanish?,Are you proficient in any languages other than English/Spanish?,"Are you familiar with Caribbean (e.g., Caribbean, Puerto Rican) or Galician Spanish?",date,expName,psychopyVersion,OS,frameRate,id,study_id,session,trial_exposure.started,trial_exposure.stopped,key_resp_exposure.keys,key_resp_exposure.corr,key_resp_exposure.rt,key_resp_exposure.duration,key_resp.keys,exposure_loop.thisRepN,exposure_loop.thisTrialN,exposure_loop.thisN,exposure_loop.thisIndex,exposure_loop.ran,item_num,correct_response,question,path,duration,instructions_2afc.started,instructions_2afc.stopped,instructions_2afc_loop.thisRepN,instructions_2afc_loop.thisTrialN,instructions_2afc_loop.thisN,instructions_2afc_loop.thisIndex,instructions_2afc_loop.ran,practice_2afc.started,practice_2afc.stopped,key_resp_2afc_practice.keys,key_resp_2afc_practice.corr,key_resp_2afc_practice.rt,key_resp_2afc_practice.duration,trials_2afc_practice_loop.thisRepN,trials_2afc_practice_loop.thisTrialN,trials_2afc_practice_loop.thisN,trials_2afc_practice_loop.thisIndex,trials_2afc_practice_loop.ran,check_2afc.started,check_2afc.stopped,trial_2afc.started,trial_2afc.stopped,key_resp_2afc_trial.keys,key_resp_2afc_trial.corr,key_resp_2afc_trial.rt,key_resp_2afc_trial.duration,trials_2afc_loop.thisRepN,trials_2afc_loop.thisTrialN,trials_2afc_loop.thisN,trials_2afc_loop.thisIndex,trials_2afc_loop.ran,target,variety,instructions_lextale.started,instructions_lextale.stopped,instructions_lextale_loop.thisRepN,instructions_lextale_loop.thisTrialN,instructions_lextale_loop.thisN,instructions_lextale_loop.thisIndex,instructions_lextale_loop.ran,practice_lextale.started,practice_lextale.stopped,key_resp_lextale_practice.keys,key_resp_lextale_practice.corr,key_resp_lextale_practice.rt,key_resp_lextale_practice.duration,practice_feedback_lextale.started,practice_feedback_lextale.stopped,trials_lextale_practice_loop.thisRepN,trials_lextale_practice_loop.thisTrialN,trials_lextale_practice_loop.thisN,trials_lextale_practice_loop.thisIndex,trials_lextale_practice_loop.ran,stim,word,prac_button_real,prac_button_false,check_lextale.started,check_lextale.stopped,trial_lextale.started,trial_lextale.stopped,key_resp_lextale_trial.keys,key_resp_lextale_trial.corr,key_resp_lextale_trial.rt,key_resp_lextale_trial.duration,trials_lextale_loop.thisRepN,trials_lextale_loop.thisTrialN,trials_lextale_loop.thisN,trials_lextale_loop.thisIndex,trials_lextale_loop.ran,button_real,button_false,instructions_eq.started,instructions_eq.stopped,trial_eq.started,trial_eq.stopped,slider_eq_trial.response,trials_eq_loop.thisRepN,trials_eq_loop.thisTrialN,trials_eq_loop.thisN,trials_eq_loop.thisIndex,trials_eq_loop.ran,item,is_test_item,is_distractor,is_agree_score,is_disagree_score,end_exp.started,end_exp.stopped
0.011,11.5782,0,0,0,0,1,"In the following task, you are going to hear a series of conversations.", (press the space bar to continue),63e548215b42b3f3aa069dc2,Spanish,13 or older,"no, only English or Spanish",no,2025-08-15_21h49.34.313,empathy_intonation_perc,2024.2.4,Win32,59.88023952,63e548215b42b3f3aa069dc2,689ed6d1281858f68c932c05,689fe388da58f5c6e8da757c,,,,,,,,,,,,,,,,,,,,,,,,,,,,,,,,,,,,,,,,,,,,,,,,,,,,,,,,,,,,,,,,,,,,,,,,,,,,,,,,,,,,,,,,,,,,,,,,,,,,,,,,,,
11.5785,14.1944,0,1,1,1,1,It is okay if you don't not 100% understand them!, (press the space bar to continue),63e548215b42b3f3aa069dc2,Spanish,13 or older,"no, only English or Spanish",no,2025-08-15_21h49.34.313,empathy_intonation_perc,2024.2.4,Win32,59.88023952,63e548215b42b3f3aa069dc2,689ed6d1281858f68c932c05,689fe388da58f5c6e8da757c,,,,,,,,,,,,,,,,,,,,,,,,,,,,,,,,,,,,,,,,,,,,,,,,,,,,,,,,,,,,,,,,,,,,,,,,,,,,,,,,,,,,,,,,,,,,,,,,,,,,,,,,,,
14.1956,785.0772,0,2,2,2,1,"After, you will read a sentence about the conversation and decide if it's true or false.", (press the space bar to continue),63e548215b42b3f3aa069dc2,Spanish,13 or older,"no, only English or Spanish",no,2025-08-15_21h49.34.313,empathy_intonation_perc,2024.2.4,Win32,59.88023952,63e548215b42b3f3aa069dc2,689ed6d1281858f68c932c05,689fe388da58f5c6e8da757c,,,,,,,,,,,,,,,,,,,,,,,,,,,,,,,,,,,,,,,,,,,,,,,,,,,,,,,,,,,,,,,,,,,,,,,,,,,,,,,,,,,,,,,,,,,,,,,,,,,,,,,,,,
785.0791,788.6604,0,3,3,3,1,"If it's true, press '1' (True) and if it's false press '0' (False).", (press the space bar to continue),63e548215b42b3f3aa069dc2,Spanish,13 or older,"no, only English or Spanish",no,2025-08-15_21h49.34.313,empathy_intonation_perc,2024.2.4,Win32,59.88023952,63e548215b42b3f3aa069dc2,689ed6d1281858f68c932c05,689fe388da58f5c6e8da757c,,,,,,,,,,,,,,,,,,,,,,,,,,,,,,,,,,,,,,,,,,,,,,,,,,,,,,,,,,,,,,,,,,,,,,,,,,,,,,,,,,,,,,,,,,,,,,,,,,,,,,,,,,
,,,,,,,,,63e548215b42b3f3aa069dc2,Spanish,13 or older,"no, only English or Spanish",no,2025-08-15_21h49.34.313,empathy_intonation_perc,2024.2.4,Win32,59.88023952,63e548215b42b3f3aa069dc2,689ed6d1281858f68c932c05,689fe388da58f5c6e8da757c,788.6683,868.411,0,0,19.7099,,,0,0,0,1,1,2,1,The mom asked the daughter if she already went to the supermarket.,./stim/exposure_wavs/dr_stimuli_convo.wav,60,,,,,,,,,,,,,,,,,,,,,,,,,,,,,,,,,,,,,,,,,,,,,,,,,,,,,,,,,,,,,,,,,,,,,,,,,,,,,,,,,,,,,,,,,
,,,,,,,,,63e548215b42b3f3aa069dc2,Spanish,13 or older,"no, only English or Spanish",no,2025-08-15_21h49.34.313,empathy_intonation_perc,2024.2.4,Win32,59.88023952,63e548215b42b3f3aa069dc2,689ed6d1281858f68c932c05,689fe388da58f5c6e8da757c,868.4121,939.2101,1,1,23.7575,,,0,1,1,0,1,1,1,The son asked the mom if Aunt Marina is okay.,./stim/exposure_wavs/ga_stimuli_convo.wav,47,,,,,,,,,,,,,,,,,,,,,,,,,,,,,,,,,,,,,,,,,,,,,,,,,,,,,,,,,,,,,,,,,,,,,,,,,,,,,,,,,,,,,,,,,
,,,,,,,,,63e548215b42b3f3aa069dc2,Spanish,13 or older,"no, only English or Spanish",no,2025-08-15_21h49.34.313,empathy_intonation_perc,2024.2.4,Win32,59.88023952,63e548215b42b3f3aa069dc2,689ed6d1281858f68c932c05,689fe388da58f5c6e8da757c,939.2111,980.1433,0,1,4.8891,,,0,2,2,2,1,3,0,The mom already has rice.,./stim/exposure_wavs/pr_stimuli_convo.wav,36,,,,,,,,,,,,,,,,,,,,,,,,,,,,,,,,,,,,,,,,,,,,,,,,,,,,,,,,,,,,,,,,,,,,,,,,,,,,,,,,,,,,,,,,,
,,,,,,,"In the following task you are going to hear a series of utterances. 

  You will decide if the utterances sound like questions or not using your keyboard.", (press the spacebar to continue),63e548215b42b3f3aa069dc2,Spanish,13 or older,"no, only English or Spanish",no,2025-08-15_21h49.34.313,empathy_intonation_perc,2024.2.4,Win32,59.88023952,63e548215b42b3f3aa069dc2,689ed6d1281858f68c932c05,689fe388da58f5c6e8da757c,,,,,,,,,,,,,,,,,,980.1462,1071.91,0,0,0,0,1,,,,,,,,,,,,,,,,,,,,,,,,,,,,,,,,,,,,,,,,,,,,,,,,,,,,,,,,,,,,,,,,,,,,,,,,,,,,,,,,,,
,,,,,,,"If you believe the utterance is a question, type '1' (for 'yes') and if you do not 
  believe it is a question type '0' (for 'no').

  Let's practice a bit...", (press the spacebar to continue),63e548215b42b3f3aa069dc2,Spanish,13 or older,"no, only English or Spanish",no,2025-08-15_21h49.34.313,empathy_intonation_perc,2024.2.4,Win32,59.88023952,63e548215b42b3f3aa069dc2,689ed6d1281858f68c932c05,689fe388da58f5c6e8da757c,,,,,,,,,,,,,,,,,,1071.911,1086.1433,0,1,1,1,1,,,,,,,,,,,,,,,,,,,,,,,,,,,,,,,,,,,,,,,,,,,,,,,,,,,,,,,,,,,,,,,,,,,,,,,,,,,,,,,,,,
,,,,,,,,,63e548215b42b3f3aa069dc2,Spanish,13 or older,"no, only English or Spanish",no,2025-08-15_21h49.34.313,empathy_intonation_perc,2024.2.4,Win32,59.88023952,63e548215b42b3f3aa069dc2,689ed6d1281858f68c932c05,689fe388da58f5c6e8da757c,,,,,,,,,,,,,,0,,./stim/wavs/puertorican_statement_filler_La-nina-pinta-con-su-amiga.wav,,,,,,,,,1086.1472,1089.0935,1,0,2.4192,,0,0,0,7,1,,,,,,,,,,,,,,,,,,,,,,,,,,,,,,,,,,,,,,,,,,,,,,,,,,,,,,,,,,,,,,,,,,,,,,,
,,,,,,,,,63e548215b42b3f3aa069dc2,Spanish,13 or older,"no, only English or Spanish",no,2025-08-15_21h49.34.313,empathy_intonation_perc,2024.2.4,Win32,59.88023952,63e548215b42b3f3aa069dc2,689ed6d1281858f68c932c05,689fe388da58f5c6e8da757c,,,,,,,,,,,,,,1,,./stim/wavs/argentine_question_filler_Mi-vecino-habla-mucho.wav,,,,,,,,,1089.0938,1091.2766,0,0,1.6381,,0,1,1,1,1,,,,,,,,,,,,,,,,,,,,,,,,,,,,,,,,,,,,,,,,,,,,,,,,,,,,,,,,,,,,,,,,,,,,,,,
,,,,,,,,,63e548215b42b3f3aa069dc2,Spanish,13 or older,"no, only English or Spanish",no,2025-08-15_21h49.34.313,empathy_intonation_perc,2024.2.4,Win32,59.88023952,63e548215b42b3f3aa069dc2,689ed6d1281858f68c932c05,689fe388da58f5c6e8da757c,,,,,,,,,,,,,,0,,./stim/wavs/peruvian_statement_filler_El-nino-habla-con-su-madre.wav,,,,,,,,,1091.2768,1094.4932,0,1,2.6838,,0,2,2,6,1,,,,,,,,,,,,,,,,,,,,,,,,,,,,,,,,,,,,,,,,,,,,,,,,,,,,,,,,,,,,,,,,,,,,,,,
,,,,,,,,,63e548215b42b3f3aa069dc2,Spanish,13 or older,"no, only English or Spanish",no,2025-08-15_21h49.34.313,empathy_intonation_perc,2024.2.4,Win32,59.88023952,63e548215b42b3f3aa069dc2,689ed6d1281858f68c932c05,689fe388da58f5c6e8da757c,,,,,,,,,,,,,,1,,./stim/wavs/castilian_question_filler_Mi-esposo-conoce-al-chico.wav,,,,,,,,,1094.4935,1097.0434,1,1,2.048,,0,3,3,0,1,,,,,,,,,,,,,,,,,,,,,,,,,,,,,,,,,,,,,,,,,,,,,,,,,,,,,,,,,,,,,,,,,,,,,,,
,,,,,,,,,63e548215b42b3f3aa069dc2,Spanish,13 or older,"no, only English or Spanish",no,2025-08-15_21h49.34.313,empathy_intonation_perc,2024.2.4,Win32,59.88023952,63e548215b42b3f3aa069dc2,689ed6d1281858f68c932c05,689fe388da58f5c6e8da757c,,,,,,,,,,,,,,1,,./stim/wavs/mexican_question_filler_Felipe-no-tiene-contrasena.wav,,,,,,,,,1097.0437,1099.4937,1,1,1.9166,,0,4,4,3,1,,,,,,,,,,,,,,,,,,,,,,,,,,,,,,,,,,,,,,,,,,,,,,,,,,,,,,,,,,,,,,,,,,,,,,,
,,,,,,,,,63e548215b42b3f3aa069dc2,Spanish,13 or older,"no, only English or Spanish",no,2025-08-15_21h49.34.313,empathy_intonation_perc,2024.2.4,Win32,59.88023952,63e548215b42b3f3aa069dc2,689ed6d1281858f68c932c05,689fe388da58f5c6e8da757c,,,,,,,,,,,,,,0,,./stim/wavs/cuban_statement_filler_Cocinabas-por-la-noche.wav,,,,,,,,,1099.494,1101.8098,0,1,1.789,,0,5,5,4,1,,,,,,,,,,,,,,,,,,,,,,,,,,,,,,,,,,,,,,,,,,,,,,,,,,,,,,,,,,,,,,,,,,,,,,,
,,,,,,,,,63e548215b42b3f3aa069dc2,Spanish,13 or older,"no, only English or Spanish",no,2025-08-15_21h49.34.313,empathy_intonation_perc,2024.2.4,Win32,59.88023952,63e548215b42b3f3aa069dc2,689ed6d1281858f68c932c05,689fe388da58f5c6e8da757c,,,,,,,,,,,,,,1,,./stim/wavs/chilean_question_filler_Mi-padre-cantaba-bien.wav,,,,,,,,,1101.8102,1104.0599,1,1,1.7213,,0,6,6,2,1,,,,,,,,,,,,,,,,,,,,,,,,,,,,,,,,,,,,,,,,,,,,,,,,,,,,,,,,,,,,,,,,,,,,,,,
,,,,,,,,,63e548215b42b3f3aa069dc2,Spanish,13 or older,"no, only English or Spanish",no,2025-08-15_21h49.34.313,empathy_intonation_perc,2024.2.4,Win32,59.88023952,63e548215b42b3f3aa069dc2,689ed6d1281858f68c932c05,689fe388da58f5c6e8da757c,,,,,,,,,,,,,,0,,./stim/wavs/andalusian_statement_filler_Alberto-nunca-se-afeita.wav,,,,,,,,,1104.0602,1106.4765,0,1,1.8906,,0,7,7,5,1,,,,,,,,,,,,,,,,,,,,,,,,,,,,,,,,,,,,,,,,,,,,,,,,,,,,,,,,,,,,,,,,,,,,,,,
,,,,,,,,,63e548215b42b3f3aa069dc2,Spanish,13 or older,"no, only English or Spanish",no,2025-08-15_21h49.34.313,empathy_intonation_perc,2024.2.4,Win32,59.88023952,63e548215b42b3f3aa069dc2,689ed6d1281858f68c932c05,689fe388da58f5c6e8da757c,,,,,,,,,,,,,,,,,,,,,,,,,,,,,,,,,,,,1106.4767,1234.9099,,,,,,,,,,,,,,,,,,,,,,,,,,,,,,,,,,,,,,,,,,,,,,,,,,,,,,,,,,,,,,,,,,,,,
,,,,,,,,,63e548215b42b3f3aa069dc2,Spanish,13 or older,"no, only English or Spanish",no,2025-08-15_21h49.34.313,empathy_intonation_perc,2024.2.4,Win32,59.88023952,63e548215b42b3f3aa069dc2,689ed6d1281858f68c932c05,689fe388da58f5c6e8da757c,,,,,,,,,,,,,64,0,,./stim/wavs/puertorican_match_declarative-broad-focus_Daniel-iba-a-Bolivia.wav,,,,,,,,,,,,,,,,,,,,,,1234.9154,1237.7099,0,1,2.2739,,0,0,0,63,1,0,puertorican,,,,,,,,,,,,,,,,,,,,,,,,,,,,,,,,,,,,,,,,,,,,,,,,,,,,,,,,
,,,,,,,,,63e548215b42b3f3aa069dc2,Spanish,13 or older,"no, only English or Spanish",no,2025-08-15_21h49.34.313,empathy_intonation_perc,2024.2.4,Win32,59.88023952,63e548215b42b3f3aa069dc2,689ed6d1281858f68c932c05,689fe388da58f5c6e8da757c,,,,,,,,,,,,,66,0,,./stim/wavs/puertorican_match_declarative-broad-focus_Emilio-ama-la-marcha.wav,,,,,,,,,,,,,,,,,,,,,,1237.7104,1240.5597,0,1,2.3313,,0,1,1,65,1,0,puertorican,,,,,,,,,,,,,,,,,,,,,,,,,,,,,,,,,,,,,,,,,,,,,,,,,,,,,,,,
,,,,,,,,,63e548215b42b3f3aa069dc2,Spanish,13 or older,"no, only English or Spanish",no,2025-08-15_21h49.34.313,empathy_intonation_perc,2024.2.4,Win32,59.88023952,63e548215b42b3f3aa069dc2,689ed6d1281858f68c932c05,689fe388da58f5c6e8da757c,,,,,,,,,,,,,50,0,,./stim/wavs/castilian_match_declarative-broad-focus_Marta-abre-el-regalo.wav,,,,,,,,,,,,,,,,,,,,,,1240.56,1243.4098,0,1,2.3246,,0,2,2,49,1,0,castilian,,,,,,,,,,,,,,,,,,,,,,,,,,,,,,,,,,,,,,,,,,,,,,,,,,,,,,,,
,,,,,,,,,63e548215b42b3f3aa069dc2,Spanish,13 or older,"no, only English or Spanish",no,2025-08-15_21h49.34.313,empathy_intonation_perc,2024.2.4,Win32,59.88023952,63e548215b42b3f3aa069dc2,689ed6d1281858f68c932c05,689fe388da58f5c6e8da757c,,,,,,,,,,,,,16,1,,./stim/wavs/mexican_match_interrogative-total-yn_Emilio-ama-la-marcha.wav,,,,,,,,,,,,,,,,,,,,,,1243.41,1245.6764,1,1,1.7303,,0,3,3,15,1,0,mexican,,,,,,,,,,,,,,,,,,,,,,,,,,,,,,,,,,,,,,,,,,,,,,,,,,,,,,,,
,,,,,,,,,63e548215b42b3f3aa069dc2,Spanish,13 or older,"no, only English or Spanish",no,2025-08-15_21h49.34.313,empathy_intonation_perc,2024.2.4,Win32,59.88023952,63e548215b42b3f3aa069dc2,689ed6d1281858f68c932c05,689fe388da58f5c6e8da757c,,,,,,,,,,,,,54,0,,./stim/wavs/cuban_match_declarative-broad-focus_Maria-bebe-el-vino.wav,,,,,,,,,,,,,,,,,,,,,,1245.6767,1248.5097,1,0,2.3118,,0,4,4,53,1,0,cuban,,,,,,,,,,,,,,,,,,,,,,,,,,,,,,,,,,,,,,,,,,,,,,,,,,,,,,,,
,,,,,,,,,63e548215b42b3f3aa069dc2,Spanish,13 or older,"no, only English or Spanish",no,2025-08-15_21h49.34.313,empathy_intonation_perc,2024.2.4,Win32,59.88023952,63e548215b42b3f3aa069dc2,689ed6d1281858f68c932c05,689fe388da58f5c6e8da757c,,,,,,,,,,,,,81,0,,./stim/wavs/mexican_mismatch_declarative-broad-focus_La-maestra-vive-en-Paris.wav,,,,,,,,,,,,,,,,,,,,,,1248.5099,1250.8597,0,1,1.8143,,0,5,5,80,1,0,mexican,,,,,,,,,,,,,,,,,,,,,,,,,,,,,,,,,,,,,,,,,,,,,,,,,,,,,,,,
,,,,,,,,,63e548215b42b3f3aa069dc2,Spanish,13 or older,"no, only English or Spanish",no,2025-08-15_21h49.34.313,empathy_intonation_perc,2024.2.4,Win32,59.88023952,63e548215b42b3f3aa069dc2,689ed6d1281858f68c932c05,689fe388da58f5c6e8da757c,,,,,,,,,,,,,40,1,,./stim/wavs/puertorican_mismatch_interrogative-total-yn_El-hombre-mira-la-luna.wav,,,,,,,,,,,,,,,,,,,,,,1250.86,1253.0097,1,1,1.6295,,0,6,6,39,1,1,puertorican,,,,,,,,,,,,,,,,,,,,,,,,,,,,,,,,,,,,,,,,,,,,,,,,,,,,,,,,
,,,,,,,,,63e548215b42b3f3aa069dc2,Spanish,13 or older,"no, only English or Spanish",no,2025-08-15_21h49.34.313,empathy_intonation_perc,2024.2.4,Win32,59.88023952,63e548215b42b3f3aa069dc2,689ed6d1281858f68c932c05,689fe388da58f5c6e8da757c,,,,,,,,,,,,,35,1,,./stim/wavs/mexican_mismatch_interrogative-total-yn_El-hombre-mira-la-luna.wav,,,,,,,,,,,,,,,,,,,,,,1253.01,1255.1101,1,1,1.5829,,0,7,7,34,1,0,mexican,,,,,,,,,,,,,,,,,,,,,,,,,,,,,,,,,,,,,,,,,,,,,,,,,,,,,,,,
,,,,,,,,,63e548215b42b3f3aa069dc2,Spanish,13 or older,"no, only English or Spanish",no,2025-08-15_21h49.34.313,empathy_intonation_perc,2024.2.4,Win32,59.88023952,63e548215b42b3f3aa069dc2,689ed6d1281858f68c932c05,689fe388da58f5c6e8da757c,,,,,,,,,,,,,57,0,,./stim/wavs/mexican_match_declarative-broad-focus_Ana-lleva-el-abrigo.wav,,,,,,,,,,,,,,,,,,,,,,1255.1103,1257.8265,0,1,2.1989,,0,8,8,56,1,0,mexican,,,,,,,,,,,,,,,,,,,,,,,,,,,,,,,,,,,,,,,,,,,,,,,,,,,,,,,,
,,,,,,,,,63e548215b42b3f3aa069dc2,Spanish,13 or older,"no, only English or Spanish",no,2025-08-15_21h49.34.313,empathy_intonation_perc,2024.2.4,Win32,59.88023952,63e548215b42b3f3aa069dc2,689ed6d1281858f68c932c05,689fe388da58f5c6e8da757c,,,,,,,,,,,,,19,1,,./stim/wavs/puertorican_match_interrogative-total-yn_Ana-lleva-el-abrigo.wav,,,,,,,,,,,,,,,,,,,,,,1257.8267,1260.043,1,1,1.6969,,0,9,9,18,1,1,puertorican,,,,,,,,,,,,,,,,,,,,,,,,,,,,,,,,,,,,,,,,,,,,,,,,,,,,,,,,
,,,,,,,,,63e548215b42b3f3aa069dc2,Spanish,13 or older,"no, only English or Spanish",no,2025-08-15_21h49.34.313,empathy_intonation_perc,2024.2.4,Win32,59.88023952,63e548215b42b3f3aa069dc2,689ed6d1281858f68c932c05,689fe388da58f5c6e8da757c,,,,,,,,,,,,,38,1,,./stim/wavs/mexican_mismatch_interrogative-total-yn_Mi-novio-viene-del-lago.wav,,,,,,,,,,,,,,,,,,,,,,1260.0434,1262.3763,1,1,1.8135,,0,10,10,37,1,0,mexican,,,,,,,,,,,,,,,,,,,,,,,,,,,,,,,,,,,,,,,,,,,,,,,,,,,,,,,,
,,,,,,,,,63e548215b42b3f3aa069dc2,Spanish,13 or older,"no, only English or Spanish",no,2025-08-15_21h49.34.313,empathy_intonation_perc,2024.2.4,Win32,59.88023952,63e548215b42b3f3aa069dc2,689ed6d1281858f68c932c05,689fe388da58f5c6e8da757c,,,,,,,,,,,,,14,1,,./stim/wavs/mexican_match_interrogative-total-yn_Daniel-iba-a-Bolivia.wav,,,,,,,,,,,,,,,,,,,,,,1262.3766,1265.3764,1,1,2.471,,0,11,11,13,1,0,mexican,,,,,,,,,,,,,,,,,,,,,,,,,,,,,,,,,,,,,,,,,,,,,,,,,,,,,,,,
,,,,,,,,,63e548215b42b3f3aa069dc2,Spanish,13 or older,"no, only English or Spanish",no,2025-08-15_21h49.34.313,empathy_intonation_perc,2024.2.4,Win32,59.88023952,63e548215b42b3f3aa069dc2,689ed6d1281858f68c932c05,689fe388da58f5c6e8da757c,,,,,,,,,,,,,3,1,,./stim/wavs/castilian_match_interrogative-total-yn_Manuela-vende-el-carro.wav,,,,,,,,,,,,,,,,,,,,,,1265.3767,1268.3602,1,1,2.4502,,0,12,12,2,1,0,castilian,,,,,,,,,,,,,,,,,,,,,,,,,,,,,,,,,,,,,,,,,,,,,,,,,,,,,,,,
,,,,,,,,,63e548215b42b3f3aa069dc2,Spanish,13 or older,"no, only English or Spanish",no,2025-08-15_21h49.34.313,empathy_intonation_perc,2024.2.4,Win32,59.88023952,63e548215b42b3f3aa069dc2,689ed6d1281858f68c932c05,689fe388da58f5c6e8da757c,,,,,,,,,,,,,61,0,,./stim/wavs/mexican_match_declarative-broad-focus_Mariano-habla-del-tiempo.wav,,,,,,,,,,,,,,,,,,,,,,1268.3606,1270.5763,0,1,1.6837,,0,13,13,60,1,0,mexican,,,,,,,,,,,,,,,,,,,,,,,,,,,,,,,,,,,,,,,,,,,,,,,,,,,,,,,,
,,,,,,,,,63e548215b42b3f3aa069dc2,Spanish,13 or older,"no, only English or Spanish",no,2025-08-15_21h49.34.313,empathy_intonation_perc,2024.2.4,Win32,59.88023952,63e548215b42b3f3aa069dc2,689ed6d1281858f68c932c05,689fe388da58f5c6e8da757c,,,,,,,,,,,,,34,1,,./stim/wavs/cuban_mismatch_interrogative-total-yn_Mi-tia-odia-la-lluvia.wav,,,,,,,,,,,,,,,,,,,,,,1270.5765,1273.2763,0,0,2.1589,,0,14,14,33,1,1,cuban,,,,,,,,,,,,,,,,,,,,,,,,,,,,,,,,,,,,,,,,,,,,,,,,,,,,,,,,
,,,,,,,,,63e548215b42b3f3aa069dc2,Spanish,13 or older,"no, only English or Spanish",no,2025-08-15_21h49.34.313,empathy_intonation_perc,2024.2.4,Win32,59.88023952,63e548215b42b3f3aa069dc2,689ed6d1281858f68c932c05,689fe388da58f5c6e8da757c,,,,,,,,,,,,,23,1,,./stim/wavs/puertorican_match_interrogative-total-yn_Manuela-vende-el-carro.wav,,,,,,,,,,,,,,,,,,,,,,1273.2766,1276.1604,0,0,2.3666,,0,15,15,22,1,1,puertorican,,,,,,,,,,,,,,,,,,,,,,,,,,,,,,,,,,,,,,,,,,,,,,,,,,,,,,,,
,,,,,,,,,63e548215b42b3f3aa069dc2,Spanish,13 or older,"no, only English or Spanish",no,2025-08-15_21h49.34.313,empathy_intonation_perc,2024.2.4,Win32,59.88023952,63e548215b42b3f3aa069dc2,689ed6d1281858f68c932c05,689fe388da58f5c6e8da757c,,,,,,,,,,,,,51,0,,./stim/wavs/cuban_match_declarative-broad-focus_Ana-lleva-el-abrigo.wav,,,,,,,,,,,,,,,,,,,,,,1276.1607,1278.5601,0,1,1.883,,0,16,16,50,1,0,cuban,,,,,,,,,,,,,,,,,,,,,,,,,,,,,,,,,,,,,,,,,,,,,,,,,,,,,,,,
,,,,,,,,,63e548215b42b3f3aa069dc2,Spanish,13 or older,"no, only English or Spanish",no,2025-08-15_21h49.34.313,empathy_intonation_perc,2024.2.4,Win32,59.88023952,63e548215b42b3f3aa069dc2,689ed6d1281858f68c932c05,689fe388da58f5c6e8da757c,,,,,,,,,,,,,2,1,,./stim/wavs/castilian_match_interrogative-total-yn_Emilio-ama-la-marcha.wav,,,,,,,,,,,,,,,,,,,,,,1278.5605,1281.2263,1,1,2.1348,,0,17,17,1,1,0,castilian,,,,,,,,,,,,,,,,,,,,,,,,,,,,,,,,,,,,,,,,,,,,,,,,,,,,,,,,
,,,,,,,,,63e548215b42b3f3aa069dc2,Spanish,13 or older,"no, only English or Spanish",no,2025-08-15_21h49.34.313,empathy_intonation_perc,2024.2.4,Win32,59.88023952,63e548215b42b3f3aa069dc2,689ed6d1281858f68c932c05,689fe388da58f5c6e8da757c,,,,,,,,,,,,,44,1,,./stim/wavs/puertorican_mismatch_interrogative-total-yn_Mi-madre-come-la-fruta.wav,,,,,,,,,,,,,,,,,,,,,,1281.2266,1283.5764,1,1,1.8374,,0,18,18,43,1,1,puertorican,,,,,,,,,,,,,,,,,,,,,,,,,,,,,,,,,,,,,,,,,,,,,,,,,,,,,,,,
,,,,,,,,,63e548215b42b3f3aa069dc2,Spanish,13 or older,"no, only English or Spanish",no,2025-08-15_21h49.34.313,empathy_intonation_perc,2024.2.4,Win32,59.88023952,63e548215b42b3f3aa069dc2,689ed6d1281858f68c932c05,689fe388da58f5c6e8da757c,,,,,,,,,,,,,6,1,,./stim/wavs/castilian_match_interrogative-total-yn_Marta-abre-el-regalo.wav,,,,,,,,,,,,,,,,,,,,,,1283.5767,1286.7596,1,1,2.647,,0,19,19,5,1,0,castilian,,,,,,,,,,,,,,,,,,,,,,,,,,,,,,,,,,,,,,,,,,,,,,,,,,,,,,,,
,,,,,,,,,63e548215b42b3f3aa069dc2,Spanish,13 or older,"no, only English or Spanish",no,2025-08-15_21h49.34.313,empathy_intonation_perc,2024.2.4,Win32,59.88023952,63e548215b42b3f3aa069dc2,689ed6d1281858f68c932c05,689fe388da58f5c6e8da757c,,,,,,,,,,,,,72,0,,./stim/wavs/castilian_mismatch_declarative-broad-focus_Mi-novio-viene-del-lago.wav,,,,,,,,,,,,,,,,,,,,,,1286.76,1289.2762,0,1,1.9871,,0,20,20,71,1,0,castilian,,,,,,,,,,,,,,,,,,,,,,,,,,,,,,,,,,,,,,,,,,,,,,,,,,,,,,,,
,,,,,,,,,63e548215b42b3f3aa069dc2,Spanish,13 or older,"no, only English or Spanish",no,2025-08-15_21h49.34.313,empathy_intonation_perc,2024.2.4,Win32,59.88023952,63e548215b42b3f3aa069dc2,689ed6d1281858f68c932c05,689fe388da58f5c6e8da757c,,,,,,,,,,,,,78,0,,./stim/wavs/cuban_mismatch_declarative-broad-focus_Mi-tia-odia-la-lluvia.wav,,,,,,,,,,,,,,,,,,,,,,1289.2766,1291.8929,0,1,2.0964,,0,21,21,77,1,0,cuban,,,,,,,,,,,,,,,,,,,,,,,,,,,,,,,,,,,,,,,,,,,,,,,,,,,,,,,,
,,,,,,,,,63e548215b42b3f3aa069dc2,Spanish,13 or older,"no, only English or Spanish",no,2025-08-15_21h49.34.313,empathy_intonation_perc,2024.2.4,Win32,59.88023952,63e548215b42b3f3aa069dc2,689ed6d1281858f68c932c05,689fe388da58f5c6e8da757c,,,,,,,,,,,,,31,1,,./stim/wavs/cuban_mismatch_interrogative-total-yn_El-nino-oye-el-rio.wav,,,,,,,,,,,,,,,,,,,,,,1291.8932,1295.4095,1,1,2.9985,,0,22,22,30,1,1,cuban,,,,,,,,,,,,,,,,,,,,,,,,,,,,,,,,,,,,,,,,,,,,,,,,,,,,,,,,
,,,,,,,,,63e548215b42b3f3aa069dc2,Spanish,13 or older,"no, only English or Spanish",no,2025-08-15_21h49.34.313,empathy_intonation_perc,2024.2.4,Win32,59.88023952,63e548215b42b3f3aa069dc2,689ed6d1281858f68c932c05,689fe388da58f5c6e8da757c,,,,,,,,,,,,,49,0,,./stim/wavs/castilian_match_declarative-broad-focus_Mariano-habla-del-tiempo.wav,,,,,,,,,,,,,,,,,,,,,,1295.4098,1298.643,0,1,2.7211,,0,23,23,48,1,0,castilian,,,,,,,,,,,,,,,,,,,,,,,,,,,,,,,,,,,,,,,,,,,,,,,,,,,,,,,,
,,,,,,,,,63e548215b42b3f3aa069dc2,Spanish,13 or older,"no, only English or Spanish",no,2025-08-15_21h49.34.313,empathy_intonation_perc,2024.2.4,Win32,59.88023952,63e548215b42b3f3aa069dc2,689ed6d1281858f68c932c05,689fe388da58f5c6e8da757c,,,,,,,,,,,,,79,0,,./stim/wavs/mexican_mismatch_declarative-broad-focus_El-bebe-comia-muy-bien.wav,,,,,,,,,,,,,,,,,,,,,,1298.6433,1301.2097,0,1,2.0236,,0,24,24,78,1,0,mexican,,,,,,,,,,,,,,,,,,,,,,,,,,,,,,,,,,,,,,,,,,,,,,,,,,,,,,,,
,,,,,,,,,63e548215b42b3f3aa069dc2,Spanish,13 or older,"no, only English or Spanish",no,2025-08-15_21h49.34.313,empathy_intonation_perc,2024.2.4,Win32,59.88023952,63e548215b42b3f3aa069dc2,689ed6d1281858f68c932c05,689fe388da58f5c6e8da757c,,,,,,,,,,,,,82,0,,./stim/wavs/mexican_mismatch_declarative-broad-focus_Mi-novio-viene-del-lago.wav,,,,,,,,,,,,,,,,,,,,,,1301.21,1303.8429,0,1,2.1141,,0,25,25,81,1,0,mexican,,,,,,,,,,,,,,,,,,,,,,,,,,,,,,,,,,,,,,,,,,,,,,,,,,,,,,,,
,,,,,,,,,63e548215b42b3f3aa069dc2,Spanish,13 or older,"no, only English or Spanish",no,2025-08-15_21h49.34.313,empathy_intonation_perc,2024.2.4,Win32,59.88023952,63e548215b42b3f3aa069dc2,689ed6d1281858f68c932c05,689fe388da58f5c6e8da757c,,,,,,,,,,,,,30,1,,./stim/wavs/cuban_mismatch_interrogative-total-yn_El-hombre-mira-la-luna.wav,,,,,,,,,,,,,,,,,,,,,,1303.8432,1308.0096,0,0,3.6468,,0,26,26,29,1,1,cuban,,,,,,,,,,,,,,,,,,,,,,,,,,,,,,,,,,,,,,,,,,,,,,,,,,,,,,,,
,,,,,,,,,63e548215b42b3f3aa069dc2,Spanish,13 or older,"no, only English or Spanish",no,2025-08-15_21h49.34.313,empathy_intonation_perc,2024.2.4,Win32,59.88023952,63e548215b42b3f3aa069dc2,689ed6d1281858f68c932c05,689fe388da58f5c6e8da757c,,,,,,,,,,,,,15,1,,./stim/wavs/mexican_match_interrogative-total-yn_David-leia-el-libro.wav,,,,,,,,,,,,,,,,,,,,,,1308.0099,1310.543,1,1,2.0072,,0,27,27,14,1,0,mexican,,,,,,,,,,,,,,,,,,,,,,,,,,,,,,,,,,,,,,,,,,,,,,,,,,,,,,,,
,,,,,,,,,63e548215b42b3f3aa069dc2,Spanish,13 or older,"no, only English or Spanish",no,2025-08-15_21h49.34.313,empathy_intonation_perc,2024.2.4,Win32,59.88023952,63e548215b42b3f3aa069dc2,689ed6d1281858f68c932c05,689fe388da58f5c6e8da757c,,,,,,,,,,,,,58,0,,./stim/wavs/mexican_match_declarative-broad-focus_Daniel-iba-a-Bolivia.wav,,,,,,,,,,,,,,,,,,,,,,1310.5432,1313.6431,0,1,2.5792,,0,28,28,57,1,0,mexican,,,,,,,,,,,,,,,,,,,,,,,,,,,,,,,,,,,,,,,,,,,,,,,,,,,,,,,,
,,,,,,,,,63e548215b42b3f3aa069dc2,Spanish,13 or older,"no, only English or Spanish",no,2025-08-15_21h49.34.313,empathy_intonation_perc,2024.2.4,Win32,59.88023952,63e548215b42b3f3aa069dc2,689ed6d1281858f68c932c05,689fe388da58f5c6e8da757c,,,,,,,,,,,,,20,1,,./stim/wavs/puertorican_match_interrogative-total-yn_Daniel-iba-a-Bolivia.wav,,,,,,,,,,,,,,,,,,,,,,1313.6434,1342.7935,0,0,28.6168,,0,29,29,19,1,1,puertorican,,,,,,,,,,,,,,,,,,,,,,,,,,,,,,,,,,,,,,,,,,,,,,,,,,,,,,,,
,,,,,,,,,63e548215b42b3f3aa069dc2,Spanish,13 or older,"no, only English or Spanish",no,2025-08-15_21h49.34.313,empathy_intonation_perc,2024.2.4,Win32,59.88023952,63e548215b42b3f3aa069dc2,689ed6d1281858f68c932c05,689fe388da58f5c6e8da757c,,,,,,,,,,,,,76,0,,./stim/wavs/cuban_mismatch_declarative-broad-focus_La-nina-lava-el-plato.wav,,,,,,,,,,,,,,,,,,,,,,1342.7937,1369.8763,0,1,26.5657,,0,30,30,75,1,0,cuban,,,,,,,,,,,,,,,,,,,,,,,,,,,,,,,,,,,,,,,,,,,,,,,,,,,,,,,,
,,,,,,,,,63e548215b42b3f3aa069dc2,Spanish,13 or older,"no, only English or Spanish",no,2025-08-15_21h49.34.313,empathy_intonation_perc,2024.2.4,Win32,59.88023952,63e548215b42b3f3aa069dc2,689ed6d1281858f68c932c05,689fe388da58f5c6e8da757c,,,,,,,,,,,,,45,0,,./stim/wavs/castilian_match_declarative-broad-focus_David-leia-el-libro.wav,,,,,,,,,,,,,,,,,,,,,,1369.8765,1394.7763,1,0,24.3585,,0,31,31,44,1,0,castilian,,,,,,,,,,,,,,,,,,,,,,,,,,,,,,,,,,,,,,,,,,,,,,,,,,,,,,,,
,,,,,,,,,63e548215b42b3f3aa069dc2,Spanish,13 or older,"no, only English or Spanish",no,2025-08-15_21h49.34.313,empathy_intonation_perc,2024.2.4,Win32,59.88023952,63e548215b42b3f3aa069dc2,689ed6d1281858f68c932c05,689fe388da58f5c6e8da757c,,,,,,,,,,,,,25,1,,./stim/wavs/castilian_mismatch_interrogative-total-yn_La-maestra-vive-en-Paris.wav,,,,,,,,,,,,,,,,,,,,,,1394.7767,1406.2929,0,0,10.9736,,0,32,32,24,1,0,castilian,,,,,,,,,,,,,,,,,,,,,,,,,,,,,,,,,,,,,,,,,,,,,,,,,,,,,,,,
,,,,,,,,,63e548215b42b3f3aa069dc2,Spanish,13 or older,"no, only English or Spanish",no,2025-08-15_21h49.34.313,empathy_intonation_perc,2024.2.4,Win32,59.88023952,63e548215b42b3f3aa069dc2,689ed6d1281858f68c932c05,689fe388da58f5c6e8da757c,,,,,,,,,,,,,86,0,,./stim/wavs/puertorican_mismatch_declarative-broad-focus_El-nino-oye-el-rio.wav,,,,,,,,,,,,,,,,,,,,,,1406.2933,1426.0595,1,0,19.2302,,0,33,33,85,1,0,puertorican,,,,,,,,,,,,,,,,,,,,,,,,,,,,,,,,,,,,,,,,,,,,,,,,,,,,,,,,
,,,,,,,,,63e548215b42b3f3aa069dc2,Spanish,13 or older,"no, only English or Spanish",no,2025-08-15_21h49.34.313,empathy_intonation_perc,2024.2.4,Win32,59.88023952,63e548215b42b3f3aa069dc2,689ed6d1281858f68c932c05,689fe388da58f5c6e8da757c,,,,,,,,,,,,,67,0,,./stim/wavs/puertorican_match_declarative-broad-focus_Manuela-vende-el-carro.wav,,,,,,,,,,,,,,,,,,,,,,1426.0598,1437.3928,0,1,10.8138,,0,34,34,66,1,0,puertorican,,,,,,,,,,,,,,,,,,,,,,,,,,,,,,,,,,,,,,,,,,,,,,,,,,,,,,,,
,,,,,,,,,63e548215b42b3f3aa069dc2,Spanish,13 or older,"no, only English or Spanish",no,2025-08-15_21h49.34.313,empathy_intonation_perc,2024.2.4,Win32,59.88023952,63e548215b42b3f3aa069dc2,689ed6d1281858f68c932c05,689fe388da58f5c6e8da757c,,,,,,,,,,,,,37,1,,./stim/wavs/mexican_mismatch_interrogative-total-yn_La-maestra-vive-en-Paris.wav,,,,,,,,,,,,,,,,,,,,,,1437.3931,1443.9261,1,1,6.025,,0,35,35,36,1,0,mexican,,,,,,,,,,,,,,,,,,,,,,,,,,,,,,,,,,,,,,,,,,,,,,,,,,,,,,,,
,,,,,,,,,63e548215b42b3f3aa069dc2,Spanish,13 or older,"no, only English or Spanish",no,2025-08-15_21h49.34.313,empathy_intonation_perc,2024.2.4,Win32,59.88023952,63e548215b42b3f3aa069dc2,689ed6d1281858f68c932c05,689fe388da58f5c6e8da757c,,,,,,,,,,,,,8,1,,./stim/wavs/cuban_match_interrogative-total-yn_Daniel-iba-a-Bolivia.wav,,,,,,,,,,,,,,,,,,,,,,1443.9265,1463.8428,1,1,19.3884,,0,36,36,7,1,1,cuban,,,,,,,,,,,,,,,,,,,,,,,,,,,,,,,,,,,,,,,,,,,,,,,,,,,,,,,,
,,,,,,,,,63e548215b42b3f3aa069dc2,Spanish,13 or older,"no, only English or Spanish",no,2025-08-15_21h49.34.313,empathy_intonation_perc,2024.2.4,Win32,59.88023952,63e548215b42b3f3aa069dc2,689ed6d1281858f68c932c05,689fe388da58f5c6e8da757c,,,,,,,,,,,,,70,0,,./stim/wavs/castilian_mismatch_declarative-broad-focus_La-maestra-vive-en-Paris.wav,,,,,,,,,,,,,,,,,,,,,,1463.8431,1508.076,1,0,43.6843,,0,37,37,69,1,0,castilian,,,,,,,,,,,,,,,,,,,,,,,,,,,,,,,,,,,,,,,,,,,,,,,,,,,,,,,,
,,,,,,,,,63e548215b42b3f3aa069dc2,Spanish,13 or older,"no, only English or Spanish",no,2025-08-15_21h49.34.313,empathy_intonation_perc,2024.2.4,Win32,59.88023952,63e548215b42b3f3aa069dc2,689ed6d1281858f68c932c05,689fe388da58f5c6e8da757c,,,,,,,,,,,,,68,0,,./stim/wavs/puertorican_match_declarative-broad-focus_Maria-bebe-el-vino.wav,,,,,,,,,,,,,,,,,,,,,,1508.0764,1540.3595,1,0,31.7658,,0,38,38,67,1,0,puertorican,,,,,,,,,,,,,,,,,,,,,,,,,,,,,,,,,,,,,,,,,,,,,,,,,,,,,,,,
,,,,,,,,,63e548215b42b3f3aa069dc2,Spanish,13 or older,"no, only English or Spanish",no,2025-08-15_21h49.34.313,empathy_intonation_perc,2024.2.4,Win32,59.88023952,63e548215b42b3f3aa069dc2,689ed6d1281858f68c932c05,689fe388da58f5c6e8da757c,,,,,,,,,,,,,7,1,,./stim/wavs/cuban_match_interrogative-total-yn_Ana-lleva-el-abrigo.wav,,,,,,,,,,,,,,,,,,,,,,1540.3598,1547.51,0,0,6.6332,,0,39,39,6,1,1,cuban,,,,,,,,,,,,,,,,,,,,,,,,,,,,,,,,,,,,,,,,,,,,,,,,,,,,,,,,
,,,,,,,,,63e548215b42b3f3aa069dc2,Spanish,13 or older,"no, only English or Spanish",no,2025-08-15_21h49.34.313,empathy_intonation_perc,2024.2.4,Win32,59.88023952,63e548215b42b3f3aa069dc2,689ed6d1281858f68c932c05,689fe388da58f5c6e8da757c,,,,,,,,,,,,,18,1,,./stim/wavs/mexican_match_interrogative-total-yn_Marta-abre-el-regalo.wav,,,,,,,,,,,,,,,,,,,,,,1547.5103,1555.226,0,0,7.1732,,0,40,40,17,1,0,mexican,,,,,,,,,,,,,,,,,,,,,,,,,,,,,,,,,,,,,,,,,,,,,,,,,,,,,,,,
,,,,,,,,,63e548215b42b3f3aa069dc2,Spanish,13 or older,"no, only English or Spanish",no,2025-08-15_21h49.34.313,empathy_intonation_perc,2024.2.4,Win32,59.88023952,63e548215b42b3f3aa069dc2,689ed6d1281858f68c932c05,689fe388da58f5c6e8da757c,,,,,,,,,,,,,24,1,,./stim/wavs/puertorican_match_interrogative-total-yn_Maria-bebe-el-vino.wav,,,,,,,,,,,,,,,,,,,,,,1555.2262,1568.5094,0,0,12.751,,0,41,41,23,1,1,puertorican,,,,,,,,,,,,,,,,,,,,,,,,,,,,,,,,,,,,,,,,,,,,,,,,,,,,,,,,
,,,,,,,,,63e548215b42b3f3aa069dc2,Spanish,13 or older,"no, only English or Spanish",no,2025-08-15_21h49.34.313,empathy_intonation_perc,2024.2.4,Win32,59.88023952,63e548215b42b3f3aa069dc2,689ed6d1281858f68c932c05,689fe388da58f5c6e8da757c,,,,,,,,,,,,,41,1,,./stim/wavs/puertorican_mismatch_interrogative-total-yn_El-nino-oye-el-rio.wav,,,,,,,,,,,,,,,,,,,,,,1568.5097,1581.7262,0,0,12.6858,,0,42,42,40,1,1,puertorican,,,,,,,,,,,,,,,,,,,,,,,,,,,,,,,,,,,,,,,,,,,,,,,,,,,,,,,,
,,,,,,,,,63e548215b42b3f3aa069dc2,Spanish,13 or older,"no, only English or Spanish",no,2025-08-15_21h49.34.313,empathy_intonation_perc,2024.2.4,Win32,59.88023952,63e548215b42b3f3aa069dc2,689ed6d1281858f68c932c05,689fe388da58f5c6e8da757c,,,,,,,,,,,,,75,0,,./stim/wavs/cuban_mismatch_declarative-broad-focus_El-hombre-mira-la-luna.wav,,,,,,,,,,,,,,,,,,,,,,1581.7265,1587.576,0,1,5.3067,,0,43,43,74,1,0,cuban,,,,,,,,,,,,,,,,,,,,,,,,,,,,,,,,,,,,,,,,,,,,,,,,,,,,,,,,
,,,,,,,,,63e548215b42b3f3aa069dc2,Spanish,13 or older,"no, only English or Spanish",no,2025-08-15_21h49.34.313,empathy_intonation_perc,2024.2.4,Win32,59.88023952,63e548215b42b3f3aa069dc2,689ed6d1281858f68c932c05,689fe388da58f5c6e8da757c,,,,,,,,,,,,,62,0,,./stim/wavs/mexican_match_declarative-broad-focus_Marta-abre-el-regalo.wav,,,,,,,,,,,,,,,,,,,,,,1587.5762,1594.5927,0,1,6.4719,,0,44,44,61,1,0,mexican,,,,,,,,,,,,,,,,,,,,,,,,,,,,,,,,,,,,,,,,,,,,,,,,,,,,,,,,
,,,,,,,,,63e548215b42b3f3aa069dc2,Spanish,13 or older,"no, only English or Spanish",no,2025-08-15_21h49.34.313,empathy_intonation_perc,2024.2.4,Win32,59.88023952,63e548215b42b3f3aa069dc2,689ed6d1281858f68c932c05,689fe388da58f5c6e8da757c,,,,,,,,,,,,,43,1,,./stim/wavs/puertorican_mismatch_interrogative-total-yn_La-nina-lava-el-plato.wav,,,,,,,,,,,,,,,,,,,,,,1594.593,1601.9594,0,0,6.8455,,0,45,45,42,1,1,puertorican,,,,,,,,,,,,,,,,,,,,,,,,,,,,,,,,,,,,,,,,,,,,,,,,,,,,,,,,
,,,,,,,,,63e548215b42b3f3aa069dc2,Spanish,13 or older,"no, only English or Spanish",no,2025-08-15_21h49.34.313,empathy_intonation_perc,2024.2.4,Win32,59.88023952,63e548215b42b3f3aa069dc2,689ed6d1281858f68c932c05,689fe388da58f5c6e8da757c,,,,,,,,,,,,,80,0,,./stim/wavs/mexican_mismatch_declarative-broad-focus_El-hombre-mira-la-luna.wav,,,,,,,,,,,,,,,,,,,,,,1601.9597,1609.4259,0,1,6.9431,,0,46,46,79,1,0,mexican,,,,,,,,,,,,,,,,,,,,,,,,,,,,,,,,,,,,,,,,,,,,,,,,,,,,,,,,
,,,,,,,,,63e548215b42b3f3aa069dc2,Spanish,13 or older,"no, only English or Spanish",no,2025-08-15_21h49.34.313,empathy_intonation_perc,2024.2.4,Win32,59.88023952,63e548215b42b3f3aa069dc2,689ed6d1281858f68c932c05,689fe388da58f5c6e8da757c,,,,,,,,,,,,,27,1,,./stim/wavs/castilian_mismatch_interrogative-total-yn_Mi-madre-come-la-fruta.wav,,,,,,,,,,,,,,,,,,,,,,1609.4262,1683.9759,1,1,74.0168,,0,47,47,26,1,0,castilian,,,,,,,,,,,,,,,,,,,,,,,,,,,,,,,,,,,,,,,,,,,,,,,,,,,,,,,,
,,,,,,,,,63e548215b42b3f3aa069dc2,Spanish,13 or older,"no, only English or Spanish",no,2025-08-15_21h49.34.313,empathy_intonation_perc,2024.2.4,Win32,59.88023952,63e548215b42b3f3aa069dc2,689ed6d1281858f68c932c05,689fe388da58f5c6e8da757c,,,,,,,,,,,,,60,0,,./stim/wavs/mexican_match_declarative-broad-focus_Emilio-ama-la-marcha.wav,,,,,,,,,,,,,,,,,,,,,,1683.9763,1692.4927,0,1,7.9829,,0,48,48,59,1,0,mexican,,,,,,,,,,,,,,,,,,,,,,,,,,,,,,,,,,,,,,,,,,,,,,,,,,,,,,,,
,,,,,,,,,63e548215b42b3f3aa069dc2,Spanish,13 or older,"no, only English or Spanish",no,2025-08-15_21h49.34.313,empathy_intonation_perc,2024.2.4,Win32,59.88023952,63e548215b42b3f3aa069dc2,689ed6d1281858f68c932c05,689fe388da58f5c6e8da757c,,,,,,,,,,,,,12,1,,./stim/wavs/cuban_match_interrogative-total-yn_Marta-abre-el-regalo.wav,,,,,,,,,,,,,,,,,,,,,,1692.493,1703.0091,0,0,9.9758,,0,49,49,11,1,1,cuban,,,,,,,,,,,,,,,,,,,,,,,,,,,,,,,,,,,,,,,,,,,,,,,,,,,,,,,,
,,,,,,,,,63e548215b42b3f3aa069dc2,Spanish,13 or older,"no, only English or Spanish",no,2025-08-15_21h49.34.313,empathy_intonation_perc,2024.2.4,Win32,59.88023952,63e548215b42b3f3aa069dc2,689ed6d1281858f68c932c05,689fe388da58f5c6e8da757c,,,,,,,,,,,,,4,1,,./stim/wavs/castilian_match_interrogative-total-yn_Maria-bebe-el-vino.wav,,,,,,,,,,,,,,,,,,,,,,1703.0094,1718.1924,0,0,14.6738,,0,50,50,3,1,0,castilian,,,,,,,,,,,,,,,,,,,,,,,,,,,,,,,,,,,,,,,,,,,,,,,,,,,,,,,,
,,,,,,,,,63e548215b42b3f3aa069dc2,Spanish,13 or older,"no, only English or Spanish",no,2025-08-15_21h49.34.313,empathy_intonation_perc,2024.2.4,Win32,59.88023952,63e548215b42b3f3aa069dc2,689ed6d1281858f68c932c05,689fe388da58f5c6e8da757c,,,,,,,,,,,,,17,1,,./stim/wavs/mexican_match_interrogative-total-yn_Mariano-habla-del-tiempo.wav,,,,,,,,,,,,,,,,,,,,,,1718.1927,1743.7762,0,0,25.0825,,0,51,51,16,1,0,mexican,,,,,,,,,,,,,,,,,,,,,,,,,,,,,,,,,,,,,,,,,,,,,,,,,,,,,,,,
,,,,,,,,,63e548215b42b3f3aa069dc2,Spanish,13 or older,"no, only English or Spanish",no,2025-08-15_21h49.34.313,empathy_intonation_perc,2024.2.4,Win32,59.88023952,63e548215b42b3f3aa069dc2,689ed6d1281858f68c932c05,689fe388da58f5c6e8da757c,,,,,,,,,,,,,46,0,,./stim/wavs/castilian_match_declarative-broad-focus_Emilio-ama-la-marcha.wav,,,,,,,,,,,,,,,,,,,,,,1743.7764,1750.559,0,1,6.2487,,0,52,52,45,1,0,castilian,,,,,,,,,,,,,,,,,,,,,,,,,,,,,,,,,,,,,,,,,,,,,,,,,,,,,,,,
,,,,,,,,,63e548215b42b3f3aa069dc2,Spanish,13 or older,"no, only English or Spanish",no,2025-08-15_21h49.34.313,empathy_intonation_perc,2024.2.4,Win32,59.88023952,63e548215b42b3f3aa069dc2,689ed6d1281858f68c932c05,689fe388da58f5c6e8da757c,,,,,,,,,,,,,74,0,,./stim/wavs/cuban_mismatch_declarative-broad-focus_El-bebe-comia-muy-bien.wav,,,,,,,,,,,,,,,,,,,,,,1750.5593,1759.4424,0,1,8.358,,0,53,53,73,1,0,cuban,,,,,,,,,,,,,,,,,,,,,,,,,,,,,,,,,,,,,,,,,,,,,,,,,,,,,,,,
,,,,,,,,,63e548215b42b3f3aa069dc2,Spanish,13 or older,"no, only English or Spanish",no,2025-08-15_21h49.34.313,empathy_intonation_perc,2024.2.4,Win32,59.88023952,63e548215b42b3f3aa069dc2,689ed6d1281858f68c932c05,689fe388da58f5c6e8da757c,,,,,,,,,,,,,28,1,,./stim/wavs/castilian_mismatch_interrogative-total-yn_Mi-novio-viene-del-lago.wav,,,,,,,,,,,,,,,,,,,,,,1759.4428,1775.0597,1,1,15.1,,0,54,54,27,1,0,castilian,,,,,,,,,,,,,,,,,,,,,,,,,,,,,,,,,,,,,,,,,,,,,,,,,,,,,,,,
,,,,,,,,,63e548215b42b3f3aa069dc2,Spanish,13 or older,"no, only English or Spanish",no,2025-08-15_21h49.34.313,empathy_intonation_perc,2024.2.4,Win32,59.88023952,63e548215b42b3f3aa069dc2,689ed6d1281858f68c932c05,689fe388da58f5c6e8da757c,,,,,,,,,,,,,36,1,,./stim/wavs/mexican_mismatch_interrogative-total-yn_El-nino-oye-el-rio.wav,,,,,,,,,,,,,,,,,,,,,,1775.0601,1781.8431,0,0,6.2502,,0,55,55,35,1,0,mexican,,,,,,,,,,,,,,,,,,,,,,,,,,,,,,,,,,,,,,,,,,,,,,,,,,,,,,,,
,,,,,,,,,63e548215b42b3f3aa069dc2,Spanish,13 or older,"no, only English or Spanish",no,2025-08-15_21h49.34.313,empathy_intonation_perc,2024.2.4,Win32,59.88023952,63e548215b42b3f3aa069dc2,689ed6d1281858f68c932c05,689fe388da58f5c6e8da757c,,,,,,,,,,,,,9,1,,./stim/wavs/cuban_match_interrogative-total-yn_Manuela-vende-el-carro.wav,,,,,,,,,,,,,,,,,,,,,,1781.8434,1788.4258,0,0,6.0639,,0,56,56,8,1,1,cuban,,,,,,,,,,,,,,,,,,,,,,,,,,,,,,,,,,,,,,,,,,,,,,,,,,,,,,,,
,,,,,,,,,63e548215b42b3f3aa069dc2,Spanish,13 or older,"no, only English or Spanish",no,2025-08-15_21h49.34.313,empathy_intonation_perc,2024.2.4,Win32,59.88023952,63e548215b42b3f3aa069dc2,689ed6d1281858f68c932c05,689fe388da58f5c6e8da757c,,,,,,,,,,,,,10,1,,./stim/wavs/cuban_match_interrogative-total-yn_Maria-bebe-el-vino.wav,,,,,,,,,,,,,,,,,,,,,,1788.4262,1795.709,0,0,6.7642,,0,57,57,9,1,1,cuban,,,,,,,,,,,,,,,,,,,,,,,,,,,,,,,,,,,,,,,,,,,,,,,,,,,,,,,,
,,,,,,,,,63e548215b42b3f3aa069dc2,Spanish,13 or older,"no, only English or Spanish",no,2025-08-15_21h49.34.313,empathy_intonation_perc,2024.2.4,Win32,59.88023952,63e548215b42b3f3aa069dc2,689ed6d1281858f68c932c05,689fe388da58f5c6e8da757c,,,,,,,,,,,,,71,0,,./stim/wavs/castilian_mismatch_declarative-broad-focus_La-nina-lava-el-plato.wav,,,,,,,,,,,,,,,,,,,,,,1795.7093,1801.9256,0,1,5.6916,,0,58,58,70,1,0,castilian,,,,,,,,,,,,,,,,,,,,,,,,,,,,,,,,,,,,,,,,,,,,,,,,,,,,,,,,
,,,,,,,,,63e548215b42b3f3aa069dc2,Spanish,13 or older,"no, only English or Spanish",no,2025-08-15_21h49.34.313,empathy_intonation_perc,2024.2.4,Win32,59.88023952,63e548215b42b3f3aa069dc2,689ed6d1281858f68c932c05,689fe388da58f5c6e8da757c,,,,,,,,,,,,,63,0,,./stim/wavs/puertorican_match_declarative-broad-focus_Ana-lleva-el-abrigo.wav,,,,,,,,,,,,,,,,,,,,,,1801.926,1808.6757,0,1,6.219,,0,59,59,62,1,0,puertorican,,,,,,,,,,,,,,,,,,,,,,,,,,,,,,,,,,,,,,,,,,,,,,,,,,,,,,,,
,,,,,,,,,63e548215b42b3f3aa069dc2,Spanish,13 or older,"no, only English or Spanish",no,2025-08-15_21h49.34.313,empathy_intonation_perc,2024.2.4,Win32,59.88023952,63e548215b42b3f3aa069dc2,689ed6d1281858f68c932c05,689fe388da58f5c6e8da757c,,,,,,,,,,,,,55,0,,./stim/wavs/cuban_match_declarative-broad-focus_Mariano-habla-del-tiempo.wav,,,,,,,,,,,,,,,,,,,,,,1808.676,1816.6426,0,1,7.4411,,0,60,60,54,1,0,cuban,,,,,,,,,,,,,,,,,,,,,,,,,,,,,,,,,,,,,,,,,,,,,,,,,,,,,,,,
,,,,,,,,,63e548215b42b3f3aa069dc2,Spanish,13 or older,"no, only English or Spanish",no,2025-08-15_21h49.34.313,empathy_intonation_perc,2024.2.4,Win32,59.88023952,63e548215b42b3f3aa069dc2,689ed6d1281858f68c932c05,689fe388da58f5c6e8da757c,,,,,,,,,,,,,88,0,,./stim/wavs/puertorican_mismatch_declarative-broad-focus_La-nina-lava-el-plato.wav,,,,,,,,,,,,,,,,,,,,,,1816.6429,1823.3095,0,1,6.1494,,0,61,61,87,1,0,puertorican,,,,,,,,,,,,,,,,,,,,,,,,,,,,,,,,,,,,,,,,,,,,,,,,,,,,,,,,
,,,,,,,,,63e548215b42b3f3aa069dc2,Spanish,13 or older,"no, only English or Spanish",no,2025-08-15_21h49.34.313,empathy_intonation_perc,2024.2.4,Win32,59.88023952,63e548215b42b3f3aa069dc2,689ed6d1281858f68c932c05,689fe388da58f5c6e8da757c,,,,,,,,,,,,,1,1,,./stim/wavs/castilian_match_interrogative-total-yn_David-leia-el-libro.wav,,,,,,,,,,,,,,,,,,,,,,1823.3097,1832.2756,1,1,8.4429,,0,62,62,0,1,0,castilian,,,,,,,,,,,,,,,,,,,,,,,,,,,,,,,,,,,,,,,,,,,,,,,,,,,,,,,,
,,,,,,,,,63e548215b42b3f3aa069dc2,Spanish,13 or older,"no, only English or Spanish",no,2025-08-15_21h49.34.313,empathy_intonation_perc,2024.2.4,Win32,59.88023952,63e548215b42b3f3aa069dc2,689ed6d1281858f68c932c05,689fe388da58f5c6e8da757c,,,,,,,,,,,,,53,0,,./stim/wavs/cuban_match_declarative-broad-focus_Manuela-vende-el-carro.wav,,,,,,,,,,,,,,,,,,,,,,1832.276,1840.4923,0,1,7.6974,,0,63,63,52,1,0,cuban,,,,,,,,,,,,,,,,,,,,,,,,,,,,,,,,,,,,,,,,,,,,,,,,,,,,,,,,
,,,,,,,,,63e548215b42b3f3aa069dc2,Spanish,13 or older,"no, only English or Spanish",no,2025-08-15_21h49.34.313,empathy_intonation_perc,2024.2.4,Win32,59.88023952,63e548215b42b3f3aa069dc2,689ed6d1281858f68c932c05,689fe388da58f5c6e8da757c,,,,,,,,,,,,,13,1,,./stim/wavs/mexican_match_interrogative-total-yn_Ana-lleva-el-abrigo.wav,,,,,,,,,,,,,,,,,,,,,,1840.4927,1850.709,0,0,9.6877,,0,64,64,12,1,0,mexican,,,,,,,,,,,,,,,,,,,,,,,,,,,,,,,,,,,,,,,,,,,,,,,,,,,,,,,,
,,,,,,,,,63e548215b42b3f3aa069dc2,Spanish,13 or older,"no, only English or Spanish",no,2025-08-15_21h49.34.313,empathy_intonation_perc,2024.2.4,Win32,59.88023952,63e548215b42b3f3aa069dc2,689ed6d1281858f68c932c05,689fe388da58f5c6e8da757c,,,,,,,,,,,,,83,0,,./stim/wavs/mexican_mismatch_declarative-broad-focus_Mi-tia-odia-la-lluvia.wav,,,,,,,,,,,,,,,,,,,,,,1850.7093,1860.2757,0,1,9.0448,,0,65,65,82,1,0,mexican,,,,,,,,,,,,,,,,,,,,,,,,,,,,,,,,,,,,,,,,,,,,,,,,,,,,,,,,
,,,,,,,,,63e548215b42b3f3aa069dc2,Spanish,13 or older,"no, only English or Spanish",no,2025-08-15_21h49.34.313,empathy_intonation_perc,2024.2.4,Win32,59.88023952,63e548215b42b3f3aa069dc2,689ed6d1281858f68c932c05,689fe388da58f5c6e8da757c,,,,,,,,,,,,,11,1,,./stim/wavs/cuban_match_interrogative-total-yn_Mariano-habla-del-tiempo.wav,,,,,,,,,,,,,,,,,,,,,,1860.276,1868.309,0,0,7.5126,,0,66,66,10,1,1,cuban,,,,,,,,,,,,,,,,,,,,,,,,,,,,,,,,,,,,,,,,,,,,,,,,,,,,,,,,
,,,,,,,,,63e548215b42b3f3aa069dc2,Spanish,13 or older,"no, only English or Spanish",no,2025-08-15_21h49.34.313,empathy_intonation_perc,2024.2.4,Win32,59.88023952,63e548215b42b3f3aa069dc2,689ed6d1281858f68c932c05,689fe388da58f5c6e8da757c,,,,,,,,,,,,,48,0,,./stim/wavs/castilian_match_declarative-broad-focus_Maria-bebe-el-vino.wav,,,,,,,,,,,,,,,,,,,,,,1868.3092,1874.2923,0,1,5.4582,,0,67,67,47,1,0,castilian,,,,,,,,,,,,,,,,,,,,,,,,,,,,,,,,,,,,,,,,,,,,,,,,,,,,,,,,
,,,,,,,,,63e548215b42b3f3aa069dc2,Spanish,13 or older,"no, only English or Spanish",no,2025-08-15_21h49.34.313,empathy_intonation_perc,2024.2.4,Win32,59.88023952,63e548215b42b3f3aa069dc2,689ed6d1281858f68c932c05,689fe388da58f5c6e8da757c,,,,,,,,,,,,,69,0,,./stim/wavs/castilian_mismatch_declarative-broad-focus_El-nino-oye-el-rio.wav,,,,,,,,,,,,,,,,,,,,,,1874.2926,1883.1757,0,1,8.3581,,0,68,68,68,1,0,castilian,,,,,,,,,,,,,,,,,,,,,,,,,,,,,,,,,,,,,,,,,,,,,,,,,,,,,,,,
,,,,,,,,,63e548215b42b3f3aa069dc2,Spanish,13 or older,"no, only English or Spanish",no,2025-08-15_21h49.34.313,empathy_intonation_perc,2024.2.4,Win32,59.88023952,63e548215b42b3f3aa069dc2,689ed6d1281858f68c932c05,689fe388da58f5c6e8da757c,,,,,,,,,,,,,87,0,,./stim/wavs/puertorican_mismatch_declarative-broad-focus_La-maestra-vive-en-Paris.wav,,,,,,,,,,,,,,,,,,,,,,1883.176,1888.759,0,1,5.0443,,0,69,69,86,1,0,puertorican,,,,,,,,,,,,,,,,,,,,,,,,,,,,,,,,,,,,,,,,,,,,,,,,,,,,,,,,
,,,,,,,,,63e548215b42b3f3aa069dc2,Spanish,13 or older,"no, only English or Spanish",no,2025-08-15_21h49.34.313,empathy_intonation_perc,2024.2.4,Win32,59.88023952,63e548215b42b3f3aa069dc2,689ed6d1281858f68c932c05,689fe388da58f5c6e8da757c,,,,,,,,,,,,,77,0,,./stim/wavs/cuban_mismatch_declarative-broad-focus_Mi-novio-viene-del-lago.wav,,,,,,,,,,,,,,,,,,,,,,1888.7592,1900.9261,0,1,11.6496,,0,70,70,76,1,0,cuban,,,,,,,,,,,,,,,,,,,,,,,,,,,,,,,,,,,,,,,,,,,,,,,,,,,,,,,,
,,,,,,,,,63e548215b42b3f3aa069dc2,Spanish,13 or older,"no, only English or Spanish",no,2025-08-15_21h49.34.313,empathy_intonation_perc,2024.2.4,Win32,59.88023952,63e548215b42b3f3aa069dc2,689ed6d1281858f68c932c05,689fe388da58f5c6e8da757c,,,,,,,,,,,,,29,1,,./stim/wavs/castilian_mismatch_interrogative-total-yn_Mi-tia-odia-la-lluvia.wav,,,,,,,,,,,,,,,,,,,,,,1900.9264,1906.5422,1,1,5.0673,,0,71,71,28,1,0,castilian,,,,,,,,,,,,,,,,,,,,,,,,,,,,,,,,,,,,,,,,,,,,,,,,,,,,,,,,
,,,,,,,,,63e548215b42b3f3aa069dc2,Spanish,13 or older,"no, only English or Spanish",no,2025-08-15_21h49.34.313,empathy_intonation_perc,2024.2.4,Win32,59.88023952,63e548215b42b3f3aa069dc2,689ed6d1281858f68c932c05,689fe388da58f5c6e8da757c,,,,,,,,,,,,,22,1,,./stim/wavs/puertorican_match_interrogative-total-yn_Emilio-ama-la-marcha.wav,,,,,,,,,,,,,,,,,,,,,,1906.5426,1916.5422,0,0,9.4751,,0,72,72,21,1,1,puertorican,,,,,,,,,,,,,,,,,,,,,,,,,,,,,,,,,,,,,,,,,,,,,,,,,,,,,,,,
,,,,,,,,,63e548215b42b3f3aa069dc2,Spanish,13 or older,"no, only English or Spanish",no,2025-08-15_21h49.34.313,empathy_intonation_perc,2024.2.4,Win32,59.88023952,63e548215b42b3f3aa069dc2,689ed6d1281858f68c932c05,689fe388da58f5c6e8da757c,,,,,,,,,,,,,84,0,,./stim/wavs/puertorican_mismatch_declarative-broad-focus_El-bebe-comia-muy-bien.wav,,,,,,,,,,,,,,,,,,,,,,1916.5425,1924.2923,1,0,7.2277,,0,73,73,83,1,0,puertorican,,,,,,,,,,,,,,,,,,,,,,,,,,,,,,,,,,,,,,,,,,,,,,,,,,,,,,,,
,,,,,,,,,63e548215b42b3f3aa069dc2,Spanish,13 or older,"no, only English or Spanish",no,2025-08-15_21h49.34.313,empathy_intonation_perc,2024.2.4,Win32,59.88023952,63e548215b42b3f3aa069dc2,689ed6d1281858f68c932c05,689fe388da58f5c6e8da757c,,,,,,,,,,,,,52,0,,./stim/wavs/cuban_match_declarative-broad-focus_Daniel-iba-a-Bolivia.wav,,,,,,,,,,,,,,,,,,,,,,1924.2926,1932.0255,0,1,7.2117,,0,74,74,51,1,0,cuban,,,,,,,,,,,,,,,,,,,,,,,,,,,,,,,,,,,,,,,,,,,,,,,,,,,,,,,,
,,,,,,,,,63e548215b42b3f3aa069dc2,Spanish,13 or older,"no, only English or Spanish",no,2025-08-15_21h49.34.313,empathy_intonation_perc,2024.2.4,Win32,59.88023952,63e548215b42b3f3aa069dc2,689ed6d1281858f68c932c05,689fe388da58f5c6e8da757c,,,,,,,,,,,,,21,1,,./stim/wavs/puertorican_match_interrogative-total-yn_David-leia-el-libro.wav,,,,,,,,,,,,,,,,,,,,,,1932.0258,1939.6089,0,0,7.0588,,0,75,75,20,1,1,puertorican,,,,,,,,,,,,,,,,,,,,,,,,,,,,,,,,,,,,,,,,,,,,,,,,,,,,,,,,
,,,,,,,,,63e548215b42b3f3aa069dc2,Spanish,13 or older,"no, only English or Spanish",no,2025-08-15_21h49.34.313,empathy_intonation_perc,2024.2.4,Win32,59.88023952,63e548215b42b3f3aa069dc2,689ed6d1281858f68c932c05,689fe388da58f5c6e8da757c,,,,,,,,,,,,,65,0,,./stim/wavs/puertorican_match_declarative-broad-focus_David-leia-el-libro.wav,,,,,,,,,,,,,,,,,,,,,,1939.6093,1946.5256,0,1,6.3911,,0,76,76,64,1,0,puertorican,,,,,,,,,,,,,,,,,,,,,,,,,,,,,,,,,,,,,,,,,,,,,,,,,,,,,,,,
,,,,,,,,,63e548215b42b3f3aa069dc2,Spanish,13 or older,"no, only English or Spanish",no,2025-08-15_21h49.34.313,empathy_intonation_perc,2024.2.4,Win32,59.88023952,63e548215b42b3f3aa069dc2,689ed6d1281858f68c932c05,689fe388da58f5c6e8da757c,,,,,,,,,,,,,47,0,,./stim/wavs/castilian_match_declarative-broad-focus_Manuela-vende-el-carro.wav,,,,,,,,,,,,,,,,,,,,,,1946.5259,1953.3756,0,1,6.3217,,0,77,77,46,1,0,castilian,,,,,,,,,,,,,,,,,,,,,,,,,,,,,,,,,,,,,,,,,,,,,,,,,,,,,,,,
,,,,,,,,,63e548215b42b3f3aa069dc2,Spanish,13 or older,"no, only English or Spanish",no,2025-08-15_21h49.34.313,empathy_intonation_perc,2024.2.4,Win32,59.88023952,63e548215b42b3f3aa069dc2,689ed6d1281858f68c932c05,689fe388da58f5c6e8da757c,,,,,,,,,,,,,59,0,,./stim/wavs/mexican_match_declarative-broad-focus_David-leia-el-libro.wav,,,,,,,,,,,,,,,,,,,,,,1953.376,1963.4923,0,1,9.5907,,0,78,78,58,1,0,mexican,,,,,,,,,,,,,,,,,,,,,,,,,,,,,,,,,,,,,,,,,,,,,,,,,,,,,,,,
,,,,,,,,,63e548215b42b3f3aa069dc2,Spanish,13 or older,"no, only English or Spanish",no,2025-08-15_21h49.34.313,empathy_intonation_perc,2024.2.4,Win32,59.88023952,63e548215b42b3f3aa069dc2,689ed6d1281858f68c932c05,689fe388da58f5c6e8da757c,,,,,,,,,,,,,5,1,,./stim/wavs/castilian_match_interrogative-total-yn_Mariano-habla-del-tiempo.wav,,,,,,,,,,,,,,,,,,,,,,1963.4927,1981.8589,0,0,17.8373,,0,79,79,4,1,0,castilian,,,,,,,,,,,,,,,,,,,,,,,,,,,,,,,,,,,,,,,,,,,,,,,,,,,,,,,,
,,,,,,,,,63e548215b42b3f3aa069dc2,Spanish,13 or older,"no, only English or Spanish",no,2025-08-15_21h49.34.313,empathy_intonation_perc,2024.2.4,Win32,59.88023952,63e548215b42b3f3aa069dc2,689ed6d1281858f68c932c05,689fe388da58f5c6e8da757c,,,,,,,,,,,,,42,1,,./stim/wavs/puertorican_mismatch_interrogative-total-yn_La-maestra-vive-en-Paris.wav,,,,,,,,,,,,,,,,,,,,,,1981.8592,1989.5422,0,0,7.1517,,0,80,80,41,1,1,puertorican,,,,,,,,,,,,,,,,,,,,,,,,,,,,,,,,,,,,,,,,,,,,,,,,,,,,,,,,
,,,,,,,,,63e548215b42b3f3aa069dc2,Spanish,13 or older,"no, only English or Spanish",no,2025-08-15_21h49.34.313,empathy_intonation_perc,2024.2.4,Win32,59.88023952,63e548215b42b3f3aa069dc2,689ed6d1281858f68c932c05,689fe388da58f5c6e8da757c,,,,,,,,,,,,,73,0,,./stim/wavs/castilian_mismatch_declarative-broad-focus_Mi-tia-odia-la-lluvia.wav,,,,,,,,,,,,,,,,,,,,,,1989.5425,1996.3088,0,1,6.2482,,0,81,81,72,1,0,castilian,,,,,,,,,,,,,,,,,,,,,,,,,,,,,,,,,,,,,,,,,,,,,,,,,,,,,,,,
,,,,,,,,,63e548215b42b3f3aa069dc2,Spanish,13 or older,"no, only English or Spanish",no,2025-08-15_21h49.34.313,empathy_intonation_perc,2024.2.4,Win32,59.88023952,63e548215b42b3f3aa069dc2,689ed6d1281858f68c932c05,689fe388da58f5c6e8da757c,,,,,,,,,,,,,33,1,,./stim/wavs/cuban_mismatch_interrogative-total-yn_Mi-novio-viene-del-lago.wav,,,,,,,,,,,,,,,,,,,,,,1996.3091,2003.2754,0,0,6.4428,,0,82,82,32,1,1,cuban,,,,,,,,,,,,,,,,,,,,,,,,,,,,,,,,,,,,,,,,,,,,,,,,,,,,,,,,
,,,,,,,,,63e548215b42b3f3aa069dc2,Spanish,13 or older,"no, only English or Spanish",no,2025-08-15_21h49.34.313,empathy_intonation_perc,2024.2.4,Win32,59.88023952,63e548215b42b3f3aa069dc2,689ed6d1281858f68c932c05,689fe388da58f5c6e8da757c,,,,,,,,,,,,,26,1,,./stim/wavs/castilian_mismatch_interrogative-total-yn_La-nina-lava-el-plato.wav,,,,,,,,,,,,,,,,,,,,,,2003.2757,2008.5755,1,1,4.7784,,0,83,83,25,1,0,castilian,,,,,,,,,,,,,,,,,,,,,,,,,,,,,,,,,,,,,,,,,,,,,,,,,,,,,,,,
,,,,,,,,,63e548215b42b3f3aa069dc2,Spanish,13 or older,"no, only English or Spanish",no,2025-08-15_21h49.34.313,empathy_intonation_perc,2024.2.4,Win32,59.88023952,63e548215b42b3f3aa069dc2,689ed6d1281858f68c932c05,689fe388da58f5c6e8da757c,,,,,,,,,,,,,39,1,,./stim/wavs/mexican_mismatch_interrogative-total-yn_Mi-tia-odia-la-lluvia.wav,,,,,,,,,,,,,,,,,,,,,,2008.5758,2014.0088,1,1,4.9086,,0,84,84,38,1,0,mexican,,,,,,,,,,,,,,,,,,,,,,,,,,,,,,,,,,,,,,,,,,,,,,,,,,,,,,,,
,,,,,,,,,63e548215b42b3f3aa069dc2,Spanish,13 or older,"no, only English or Spanish",no,2025-08-15_21h49.34.313,empathy_intonation_perc,2024.2.4,Win32,59.88023952,63e548215b42b3f3aa069dc2,689ed6d1281858f68c932c05,689fe388da58f5c6e8da757c,,,,,,,,,,,,,32,1,,./stim/wavs/cuban_mismatch_interrogative-total-yn_Mi-madre-come-la-fruta.wav,,,,,,,,,,,,,,,,,,,,,,2014.0091,2020.9755,0,0,6.4251,,0,85,85,31,1,1,cuban,,,,,,,,,,,,,,,,,,,,,,,,,,,,,,,,,,,,,,,,,,,,,,,,,,,,,,,,
,,,,,,,,,63e548215b42b3f3aa069dc2,Spanish,13 or older,"no, only English or Spanish",no,2025-08-15_21h49.34.313,empathy_intonation_perc,2024.2.4,Win32,59.88023952,63e548215b42b3f3aa069dc2,689ed6d1281858f68c932c05,689fe388da58f5c6e8da757c,,,,,,,,,,,,,56,0,,./stim/wavs/cuban_match_declarative-broad-focus_Marta-abre-el-regalo.wav,,,,,,,,,,,,,,,,,,,,,,2020.9758,2027.4921,0,1,5.9824,,0,86,86,55,1,0,cuban,,,,,,,,,,,,,,,,,,,,,,,,,,,,,,,,,,,,,,,,,,,,,,,,,,,,,,,,
,,,,,,,,,63e548215b42b3f3aa069dc2,Spanish,13 or older,"no, only English or Spanish",no,2025-08-15_21h49.34.313,empathy_intonation_perc,2024.2.4,Win32,59.88023952,63e548215b42b3f3aa069dc2,689ed6d1281858f68c932c05,689fe388da58f5c6e8da757c,,,,,,,,,,,,,85,0,,./stim/wavs/puertorican_mismatch_declarative-broad-focus_El-hombre-mira-la-luna.wav,,,,,,,,,,,,,,,,,,,,,,2027.4925,2036.0754,0,1,8.0479,,0,87,87,84,1,0,puertorican,,,,,,,,,,,,,,,,,,,,,,,,,,,,,,,,,,,,,,,,,,,,,,,,,,,,,,,,
,,,,,,,"Great! Now we will move on. The next task consists of about 60 trials, in each of which you will see a string of letters. 
  
  Your task is to decide whether this is a real Spanish word or not.", (press the spacebar to continue),63e548215b42b3f3aa069dc2,Spanish,13 or older,"no, only English or Spanish",no,2025-08-15_21h49.34.313,empathy_intonation_perc,2024.2.4,Win32,59.88023952,63e548215b42b3f3aa069dc2,689ed6d1281858f68c932c05,689fe388da58f5c6e8da757c,,,,,,,,,,,,,,,,,,,,,,,,,,,,,,,,,,,,,,,,,,,,,,,,,,,2036.0803,2075.2756,0,0,0,0,1,,,,,,,,,,,,,,,,,,,,,,,,,,,,,,,,,,,,,,,,,,,,,,,,,
,,,,,,,"If you think it is an existing Spanish word, you type '1' (for 'REAL'), and if you think it is not an existing Spanish word, you type '0' (for 'FAKE').", (press the spacebar to continue),63e548215b42b3f3aa069dc2,Spanish,13 or older,"no, only English or Spanish",no,2025-08-15_21h49.34.313,empathy_intonation_perc,2024.2.4,Win32,59.88023952,63e548215b42b3f3aa069dc2,689ed6d1281858f68c932c05,689fe388da58f5c6e8da757c,,,,,,,,,,,,,,,,,,,,,,,,,,,,,,,,,,,,,,,,,,,,,,,,,,,2075.2767,2081.5087,0,1,1,1,1,,,,,,,,,,,,,,,,,,,,,,,,,,,,,,,,,,,,,,,,,,,,,,,,,
,,,,,,,"If you are sure that the word exists, even though you don’t know its exact meaning, you may still respond '1' (REAL). 
  
  But if you are not sure if it is an existing word, you should respond '0' (FAKE).
  
  Let's do a practice round...", (press the spacebar to continue),63e548215b42b3f3aa069dc2,Spanish,13 or older,"no, only English or Spanish",no,2025-08-15_21h49.34.313,empathy_intonation_perc,2024.2.4,Win32,59.88023952,63e548215b42b3f3aa069dc2,689ed6d1281858f68c932c05,689fe388da58f5c6e8da757c,,,,,,,,,,,,,,,,,,,,,,,,,,,,,,,,,,,,,,,,,,,,,,,,,,,2081.5098,2089.2421,0,2,2,2,1,,,,,,,,,,,,,,,,,,,,,,,,,,,,,,,,,,,,,,,,,,,,,,,,,
,,,,,,,,,63e548215b42b3f3aa069dc2,Spanish,13 or older,"no, only English or Spanish",no,2025-08-15_21h49.34.313,empathy_intonation_perc,2024.2.4,Win32,59.88023952,63e548215b42b3f3aa069dc2,689ed6d1281858f68c932c05,689fe388da58f5c6e8da757c,,,,,,,,,,,,,,0,,,,,,,,,,,,,,,,,,,,,,,,,,,,,,,,,,,,,,,,,,,,2089.2449,2097.6589,1,0,7.8775,,2097.659,2098.659,0,0,0,0,1,0,depiste,REAL,FAKE,,,,,,,,,,,,,,,,,,,,,,,,,,,,,,,,
,,,,,,,,,63e548215b42b3f3aa069dc2,Spanish,13 or older,"no, only English or Spanish",no,2025-08-15_21h49.34.313,empathy_intonation_perc,2024.2.4,Win32,59.88023952,63e548215b42b3f3aa069dc2,689ed6d1281858f68c932c05,689fe388da58f5c6e8da757c,,,,,,,,,,,,,,1,,,,,,,,,,,,,,,,,,,,,,,,,,,,,,,,,,,,,,,,,,,,2098.6598,2101.0753,1,1,1.8821,,2101.0758,2102.0754,0,1,1,1,1,0,sí,REAL,FAKE,,,,,,,,,,,,,,,,,,,,,,,,,,,,,,,,
,,,,,,,,,63e548215b42b3f3aa069dc2,Spanish,13 or older,"no, only English or Spanish",no,2025-08-15_21h49.34.313,empathy_intonation_perc,2024.2.4,Win32,59.88023952,63e548215b42b3f3aa069dc2,689ed6d1281858f68c932c05,689fe388da58f5c6e8da757c,,,,,,,,,,,,,,0,,,,,,,,,,,,,,,,,,,,,,,,,,,,,,,,,,,,,,,,,,,,2102.076,2117.0588,1,0,14.4437,,2117.0592,2118.0589,0,2,2,2,1,0,coné,REAL,FAKE,,,,,,,,,,,,,,,,,,,,,,,,,,,,,,,,
,,,,,,,,,63e548215b42b3f3aa069dc2,Spanish,13 or older,"no, only English or Spanish",no,2025-08-15_21h49.34.313,empathy_intonation_perc,2024.2.4,Win32,59.88023952,63e548215b42b3f3aa069dc2,689ed6d1281858f68c932c05,689fe388da58f5c6e8da757c,,,,,,,,,,,,,,0,,,,,,,,,,,,,,,,,,,,,,,,,,,,,,,,,,,,,,,,,,,,2118.0594,2129.5087,0,1,10.9025,,2129.509,2130.5089,0,3,3,3,1,0,calpar,REAL,FAKE,,,,,,,,,,,,,,,,,,,,,,,,,,,,,,,,
,,,,,,,,,63e548215b42b3f3aa069dc2,Spanish,13 or older,"no, only English or Spanish",no,2025-08-15_21h49.34.313,empathy_intonation_perc,2024.2.4,Win32,59.88023952,63e548215b42b3f3aa069dc2,689ed6d1281858f68c932c05,689fe388da58f5c6e8da757c,,,,,,,,,,,,,,0,,,,,,,,,,,,,,,,,,,,,,,,,,,,,,,,,,,,,,,,,,,,2130.5096,2132.5086,0,1,1.4582,,2132.5087,2133.5087,0,4,4,4,1,0,joten,REAL,FAKE,,,,,,,,,,,,,,,,,,,,,,,,,,,,,,,,
,,,,,,,,,63e548215b42b3f3aa069dc2,Spanish,13 or older,"no, only English or Spanish",no,2025-08-15_21h49.34.313,empathy_intonation_perc,2024.2.4,Win32,59.88023952,63e548215b42b3f3aa069dc2,689ed6d1281858f68c932c05,689fe388da58f5c6e8da757c,,,,,,,,,,,,,,1,,,,,,,,,,,,,,,,,,,,,,,,,,,,,,,,,,,,,,,,,,,,2133.5091,2135.2086,1,1,1.1554,,2135.2087,2136.2085,0,5,5,5,1,0,sacapuntas,REAL,FAKE,,,,,,,,,,,,,,,,,,,,,,,,,,,,,,,,
,,,,,,,,,63e548215b42b3f3aa069dc2,Spanish,13 or older,"no, only English or Spanish",no,2025-08-15_21h49.34.313,empathy_intonation_perc,2024.2.4,Win32,59.88023952,63e548215b42b3f3aa069dc2,689ed6d1281858f68c932c05,689fe388da58f5c6e8da757c,,,,,,,,,,,,,,0,,,,,,,,,,,,,,,,,,,,,,,,,,,,,,,,,,,,,,,,,,,,2136.2093,2137.942,0,1,1.1883,,2137.9421,2138.942,0,6,6,6,1,0,priba,REAL,FAKE,,,,,,,,,,,,,,,,,,,,,,,,,,,,,,,,
,,,,,,,,,63e548215b42b3f3aa069dc2,Spanish,13 or older,"no, only English or Spanish",no,2025-08-15_21h49.34.313,empathy_intonation_perc,2024.2.4,Win32,59.88023952,63e548215b42b3f3aa069dc2,689ed6d1281858f68c932c05,689fe388da58f5c6e8da757c,,,,,,,,,,,,,,0,,,,,,,,,,,,,,,,,,,,,,,,,,,,,,,,,,,,,,,,,,,,2138.9425,2140.3919,1,0,0.9053,,2140.3923,2141.3921,0,7,7,7,1,0,pelasula,REAL,FAKE,,,,,,,,,,,,,,,,,,,,,,,,,,,,,,,,
,,,,,,,,,63e548215b42b3f3aa069dc2,Spanish,13 or older,"no, only English or Spanish",no,2025-08-15_21h49.34.313,empathy_intonation_perc,2024.2.4,Win32,59.88023952,63e548215b42b3f3aa069dc2,689ed6d1281858f68c932c05,689fe388da58f5c6e8da757c,,,,,,,,,,,,,,1,,,,,,,,,,,,,,,,,,,,,,,,,,,,,,,,,,,,,,,,,,,,2141.3926,2144.8419,1,1,2.9031,,2144.8423,2145.8419,0,8,8,8,1,0,bien,REAL,FAKE,,,,,,,,,,,,,,,,,,,,,,,,,,,,,,,,
,,,,,,,,,63e548215b42b3f3aa069dc2,Spanish,13 or older,"no, only English or Spanish",no,2025-08-15_21h49.34.313,empathy_intonation_perc,2024.2.4,Win32,59.88023952,63e548215b42b3f3aa069dc2,689ed6d1281858f68c932c05,689fe388da58f5c6e8da757c,,,,,,,,,,,,,,1,,,,,,,,,,,,,,,,,,,,,,,,,,,,,,,,,,,,,,,,,,,,2145.8424,2147.7754,1,1,1.3981,,2147.7754,2148.7752,0,9,9,9,1,0,casa,REAL,FAKE,,,,,,,,,,,,,,,,,,,,,,,,,,,,,,,,
,,,,,,,,,63e548215b42b3f3aa069dc2,Spanish,13 or older,"no, only English or Spanish",no,2025-08-15_21h49.34.313,empathy_intonation_perc,2024.2.4,Win32,59.88023952,63e548215b42b3f3aa069dc2,689ed6d1281858f68c932c05,689fe388da58f5c6e8da757c,,,,,,,,,,,,,,0,,,,,,,,,,,,,,,,,,,,,,,,,,,,,,,,,,,,,,,,,,,,2148.7758,2153.2922,0,1,3.9997,,2153.2923,2154.2921,0,10,10,10,1,0,lejo,REAL,FAKE,,,,,,,,,,,,,,,,,,,,,,,,,,,,,,,,
,,,,,,,,,63e548215b42b3f3aa069dc2,Spanish,13 or older,"no, only English or Spanish",no,2025-08-15_21h49.34.313,empathy_intonation_perc,2024.2.4,Win32,59.88023952,63e548215b42b3f3aa069dc2,689ed6d1281858f68c932c05,689fe388da58f5c6e8da757c,,,,,,,,,,,,,,0,,,,,,,,,,,,,,,,,,,,,,,,,,,,,,,,,,,,,,,,,,,,2154.2927,2159.9752,0,1,5.1495,,2159.9753,2160.9753,0,11,11,11,1,0,pretantas,REAL,FAKE,,,,,,,,,,,,,,,,,,,,,,,,,,,,,,,,
,,,,,,,,,63e548215b42b3f3aa069dc2,Spanish,13 or older,"no, only English or Spanish",no,2025-08-15_21h49.34.313,empathy_intonation_perc,2024.2.4,Win32,59.88023952,63e548215b42b3f3aa069dc2,689ed6d1281858f68c932c05,689fe388da58f5c6e8da757c,,,,,,,,,,,,,,,,,,,,,,,,,,,,,,,,,,,,,,,,,,,,,,,,,,,,,,,,,,,,,,,,,,,,,,,,,,,2160.9756,2164.5756,,,,,,,,,,,,,,,,,,,,,,,,,,,,,,
,,,,,,,,,63e548215b42b3f3aa069dc2,Spanish,13 or older,"no, only English or Spanish",no,2025-08-15_21h49.34.313,empathy_intonation_perc,2024.2.4,Win32,59.88023952,63e548215b42b3f3aa069dc2,689ed6d1281858f68c932c05,689fe388da58f5c6e8da757c,,,,,,,,,,,,,,0,,,,,,,,,,,,,,,,,,,,,,,,,,,,,,,,,,,,,,,,,,,,,,,,,,,,,,,,,18,arsa,,,,,2164.5802,2169.5259,0,1,4.4169,,0,0,0,17,1,REAL,FAKE,,,,,,,,,,,,,,,,,
,,,,,,,,,63e548215b42b3f3aa069dc2,Spanish,13 or older,"no, only English or Spanish",no,2025-08-15_21h49.34.313,empathy_intonation_perc,2024.2.4,Win32,59.88023952,63e548215b42b3f3aa069dc2,689ed6d1281858f68c932c05,689fe388da58f5c6e8da757c,,,,,,,,,,,,,,1,,,,,,,,,,,,,,,,,,,,,,,,,,,,,,,,,,,,,,,,,,,,,,,,,,,,,,,,,78,frondoso,,,,,2169.5264,2172.1253,1,1,2.0652,,0,1,1,77,1,REAL,FAKE,,,,,,,,,,,,,,,,,
,,,,,,,,,63e548215b42b3f3aa069dc2,Spanish,13 or older,"no, only English or Spanish",no,2025-08-15_21h49.34.313,empathy_intonation_perc,2024.2.4,Win32,59.88023952,63e548215b42b3f3aa069dc2,689ed6d1281858f68c932c05,689fe388da58f5c6e8da757c,,,,,,,,,,,,,,1,,,,,,,,,,,,,,,,,,,,,,,,,,,,,,,,,,,,,,,,,,,,,,,,,,,,,,,,,39,torpe,,,,,2172.1258,2175.8753,0,0,3.2073,,0,2,2,38,1,REAL,FAKE,,,,,,,,,,,,,,,,,
,,,,,,,,,63e548215b42b3f3aa069dc2,Spanish,13 or older,"no, only English or Spanish",no,2025-08-15_21h49.34.313,empathy_intonation_perc,2024.2.4,Win32,59.88023952,63e548215b42b3f3aa069dc2,689ed6d1281858f68c932c05,689fe388da58f5c6e8da757c,,,,,,,,,,,,,,0,,,,,,,,,,,,,,,,,,,,,,,,,,,,,,,,,,,,,,,,,,,,,,,,,,,,,,,,,50,flamida,,,,,2175.8758,2180.4752,0,1,4.0653,,0,3,3,49,1,REAL,FAKE,,,,,,,,,,,,,,,,,
,,,,,,,,,63e548215b42b3f3aa069dc2,Spanish,13 or older,"no, only English or Spanish",no,2025-08-15_21h49.34.313,empathy_intonation_perc,2024.2.4,Win32,59.88023952,63e548215b42b3f3aa069dc2,689ed6d1281858f68c932c05,689fe388da58f5c6e8da757c,,,,,,,,,,,,,,1,,,,,,,,,,,,,,,,,,,,,,,,,,,,,,,,,,,,,,,,,,,,,,,,,,,,,,,,,28,merodear,,,,,2180.4758,2183.892,1,1,2.8774,,0,4,4,27,1,REAL,FAKE,,,,,,,,,,,,,,,,,
,,,,,,,,,63e548215b42b3f3aa069dc2,Spanish,13 or older,"no, only English or Spanish",no,2025-08-15_21h49.34.313,empathy_intonation_perc,2024.2.4,Win32,59.88023952,63e548215b42b3f3aa069dc2,689ed6d1281858f68c932c05,689fe388da58f5c6e8da757c,,,,,,,,,,,,,,0,,,,,,,,,,,,,,,,,,,,,,,,,,,,,,,,,,,,,,,,,,,,,,,,,,,,,,,,,82,empirador,,,,,2183.8926,2188.1085,1,0,3.683,,0,5,5,81,1,REAL,FAKE,,,,,,,,,,,,,,,,,
,,,,,,,,,63e548215b42b3f3aa069dc2,Spanish,13 or older,"no, only English or Spanish",no,2025-08-15_21h49.34.313,empathy_intonation_perc,2024.2.4,Win32,59.88023952,63e548215b42b3f3aa069dc2,689ed6d1281858f68c932c05,689fe388da58f5c6e8da757c,,,,,,,,,,,,,,1,,,,,,,,,,,,,,,,,,,,,,,,,,,,,,,,,,,,,,,,,,,,,,,,,,,,,,,,,37,granuja,,,,,2188.1091,2193.8586,0,0,5.2031,,0,6,6,36,1,REAL,FAKE,,,,,,,,,,,,,,,,,
,,,,,,,,,63e548215b42b3f3aa069dc2,Spanish,13 or older,"no, only English or Spanish",no,2025-08-15_21h49.34.313,empathy_intonation_perc,2024.2.4,Win32,59.88023952,63e548215b42b3f3aa069dc2,689ed6d1281858f68c932c05,689fe388da58f5c6e8da757c,,,,,,,,,,,,,,1,,,,,,,,,,,,,,,,,,,,,,,,,,,,,,,,,,,,,,,,,,,,,,,,,,,,,,,,,55,nevar,,,,,2193.8594,2198.7086,1,1,4.3164,,0,7,7,54,1,REAL,FAKE,,,,,,,,,,,,,,,,,
,,,,,,,,,63e548215b42b3f3aa069dc2,Spanish,13 or older,"no, only English or Spanish",no,2025-08-15_21h49.34.313,empathy_intonation_perc,2024.2.4,Win32,59.88023952,63e548215b42b3f3aa069dc2,689ed6d1281858f68c932c05,689fe388da58f5c6e8da757c,,,,,,,,,,,,,,1,,,,,,,,,,,,,,,,,,,,,,,,,,,,,,,,,,,,,,,,,,,,,,,,,,,,,,,,,71,polvoriento,,,,,2198.7091,2203.3252,0,0,4.0782,,0,8,8,70,1,REAL,FAKE,,,,,,,,,,,,,,,,,
,,,,,,,,,63e548215b42b3f3aa069dc2,Spanish,13 or older,"no, only English or Spanish",no,2025-08-15_21h49.34.313,empathy_intonation_perc,2024.2.4,Win32,59.88023952,63e548215b42b3f3aa069dc2,689ed6d1281858f68c932c05,689fe388da58f5c6e8da757c,,,,,,,,,,,,,,1,,,,,,,,,,,,,,,,,,,,,,,,,,,,,,,,,,,,,,,,,,,,,,,,,,,,,,,,,45,jilguero,,,,,2203.3258,2205.3752,0,0,1.5015,,0,9,9,44,1,REAL,FAKE,,,,,,,,,,,,,,,,,
,,,,,,,,,63e548215b42b3f3aa069dc2,Spanish,13 or older,"no, only English or Spanish",no,2025-08-15_21h49.34.313,empathy_intonation_perc,2024.2.4,Win32,59.88023952,63e548215b42b3f3aa069dc2,689ed6d1281858f68c932c05,689fe388da58f5c6e8da757c,,,,,,,,,,,,,,1,,,,,,,,,,,,,,,,,,,,,,,,,,,,,,,,,,,,,,,,,,,,,,,,,,,,,,,,,46,martillo,,,,,2205.3756,2209.8918,1,1,3.9993,,0,10,10,45,1,REAL,FAKE,,,,,,,,,,,,,,,,,
,,,,,,,,,63e548215b42b3f3aa069dc2,Spanish,13 or older,"no, only English or Spanish",no,2025-08-15_21h49.34.313,empathy_intonation_perc,2024.2.4,Win32,59.88023952,63e548215b42b3f3aa069dc2,689ed6d1281858f68c932c05,689fe388da58f5c6e8da757c,,,,,,,,,,,,,,0,,,,,,,,,,,,,,,,,,,,,,,,,,,,,,,,,,,,,,,,,,,,,,,,,,,,,,,,,58,plaudir,,,,,2209.8923,2214.0419,0,1,3.615,,0,11,11,57,1,REAL,FAKE,,,,,,,,,,,,,,,,,
,,,,,,,,,63e548215b42b3f3aa069dc2,Spanish,13 or older,"no, only English or Spanish",no,2025-08-15_21h49.34.313,empathy_intonation_perc,2024.2.4,Win32,59.88023952,63e548215b42b3f3aa069dc2,689ed6d1281858f68c932c05,689fe388da58f5c6e8da757c,,,,,,,,,,,,,,1,,,,,,,,,,,,,,,,,,,,,,,,,,,,,,,,,,,,,,,,,,,,,,,,,,,,,,,,,40,alfombra,,,,,2214.0423,2218.0419,0,0,3.4611,,0,12,12,39,1,REAL,FAKE,,,,,,,,,,,,,,,,,
,,,,,,,,,63e548215b42b3f3aa069dc2,Spanish,13 or older,"no, only English or Spanish",no,2025-08-15_21h49.34.313,empathy_intonation_perc,2024.2.4,Win32,59.88023952,63e548215b42b3f3aa069dc2,689ed6d1281858f68c932c05,689fe388da58f5c6e8da757c,,,,,,,,,,,,,,1,,,,,,,,,,,,,,,,,,,,,,,,,,,,,,,,,,,,,,,,,,,,,,,,,,,,,,,,,13,helar,,,,,2218.0424,2223.9252,1,1,5.3383,,0,13,13,12,1,REAL,FAKE,,,,,,,,,,,,,,,,,
,,,,,,,,,63e548215b42b3f3aa069dc2,Spanish,13 or older,"no, only English or Spanish",no,2025-08-15_21h49.34.313,empathy_intonation_perc,2024.2.4,Win32,59.88023952,63e548215b42b3f3aa069dc2,689ed6d1281858f68c932c05,689fe388da58f5c6e8da757c,,,,,,,,,,,,,,1,,,,,,,,,,,,,,,,,,,,,,,,,,,,,,,,,,,,,,,,,,,,,,,,,,,,,,,,,73,hervidor,,,,,2223.9257,2226.1585,0,0,1.6977,,0,14,14,72,1,REAL,FAKE,,,,,,,,,,,,,,,,,
,,,,,,,,,63e548215b42b3f3aa069dc2,Spanish,13 or older,"no, only English or Spanish",no,2025-08-15_21h49.34.313,empathy_intonation_perc,2024.2.4,Win32,59.88023952,63e548215b42b3f3aa069dc2,689ed6d1281858f68c932c05,689fe388da58f5c6e8da757c,,,,,,,,,,,,,,0,,,,,,,,,,,,,,,,,,,,,,,,,,,,,,,,,,,,,,,,,,,,,,,,,,,,,,,,,8,cadeña,,,,,2226.1593,2230.0586,1,0,3.3646,,0,15,15,7,1,REAL,FAKE,,,,,,,,,,,,,,,,,
,,,,,,,,,63e548215b42b3f3aa069dc2,Spanish,13 or older,"no, only English or Spanish",no,2025-08-15_21h49.34.313,empathy_intonation_perc,2024.2.4,Win32,59.88023952,63e548215b42b3f3aa069dc2,689ed6d1281858f68c932c05,689fe388da58f5c6e8da757c,,,,,,,,,,,,,,0,,,,,,,,,,,,,,,,,,,,,,,,,,,,,,,,,,,,,,,,,,,,,,,,,,,,,,,,,30,alardio,,,,,2230.0591,2235.4252,0,1,4.8238,,0,16,16,29,1,REAL,FAKE,,,,,,,,,,,,,,,,,
,,,,,,,,,63e548215b42b3f3aa069dc2,Spanish,13 or older,"no, only English or Spanish",no,2025-08-15_21h49.34.313,empathy_intonation_perc,2024.2.4,Win32,59.88023952,63e548215b42b3f3aa069dc2,689ed6d1281858f68c932c05,689fe388da58f5c6e8da757c,,,,,,,,,,,,,,0,,,,,,,,,,,,,,,,,,,,,,,,,,,,,,,,,,,,,,,,,,,,,,,,,,,,,,,,,1,terzo,,,,,2235.4259,2255.5421,0,1,19.5835,,0,17,17,0,1,REAL,FAKE,,,,,,,,,,,,,,,,,
,,,,,,,,,63e548215b42b3f3aa069dc2,Spanish,13 or older,"no, only English or Spanish",no,2025-08-15_21h49.34.313,empathy_intonation_perc,2024.2.4,Win32,59.88023952,63e548215b42b3f3aa069dc2,689ed6d1281858f68c932c05,689fe388da58f5c6e8da757c,,,,,,,,,,,,,,1,,,,,,,,,,,,,,,,,,,,,,,,,,,,,,,,,,,,,,,,,,,,,,,,,,,,,,,,,89,prisa,,,,,2255.5428,2267.4919,1,1,11.405,,0,18,18,88,1,REAL,FAKE,,,,,,,,,,,,,,,,,
,,,,,,,,,63e548215b42b3f3aa069dc2,Spanish,13 or older,"no, only English or Spanish",no,2025-08-15_21h49.34.313,empathy_intonation_perc,2024.2.4,Win32,59.88023952,63e548215b42b3f3aa069dc2,689ed6d1281858f68c932c05,689fe388da58f5c6e8da757c,,,,,,,,,,,,,,1,,,,,,,,,,,,,,,,,,,,,,,,,,,,,,,,,,,,,,,,,,,,,,,,,,,,,,,,,31,pandilla,,,,,2267.4926,2271.4085,1,1,3.3778,,0,19,19,30,1,REAL,FAKE,,,,,,,,,,,,,,,,,
,,,,,,,,,63e548215b42b3f3aa069dc2,Spanish,13 or older,"no, only English or Spanish",no,2025-08-15_21h49.34.313,empathy_intonation_perc,2024.2.4,Win32,59.88023952,63e548215b42b3f3aa069dc2,689ed6d1281858f68c932c05,689fe388da58f5c6e8da757c,,,,,,,,,,,,,,0,,,,,,,,,,,,,,,,,,,,,,,,,,,,,,,,,,,,,,,,,,,,,,,,,,,,,,,,,23,lampera,,,,,2271.409,2273.9252,1,0,1.9791,,0,20,20,22,1,REAL,FAKE,,,,,,,,,,,,,,,,,
,,,,,,,,,63e548215b42b3f3aa069dc2,Spanish,13 or older,"no, only English or Spanish",no,2025-08-15_21h49.34.313,empathy_intonation_perc,2024.2.4,Win32,59.88023952,63e548215b42b3f3aa069dc2,689ed6d1281858f68c932c05,689fe388da58f5c6e8da757c,,,,,,,,,,,,,,1,,,,,,,,,,,,,,,,,,,,,,,,,,,,,,,,,,,,,,,,,,,,,,,,,,,,,,,,,44,cuchara,,,,,2273.9257,2276.4252,0,0,1.9514,,0,21,21,43,1,REAL,FAKE,,,,,,,,,,,,,,,,,
,,,,,,,,,63e548215b42b3f3aa069dc2,Spanish,13 or older,"no, only English or Spanish",no,2025-08-15_21h49.34.313,empathy_intonation_perc,2024.2.4,Win32,59.88023952,63e548215b42b3f3aa069dc2,689ed6d1281858f68c932c05,689fe388da58f5c6e8da757c,,,,,,,,,,,,,,1,,,,,,,,,,,,,,,,,,,,,,,,,,,,,,,,,,,,,,,,,,,,,,,,,,,,,,,,,36,loro,,,,,2276.4256,2280.3918,0,0,3.4205,,0,22,22,35,1,REAL,FAKE,,,,,,,,,,,,,,,,,
,,,,,,,,,63e548215b42b3f3aa069dc2,Spanish,13 or older,"no, only English or Spanish",no,2025-08-15_21h49.34.313,empathy_intonation_perc,2024.2.4,Win32,59.88023952,63e548215b42b3f3aa069dc2,689ed6d1281858f68c932c05,689fe388da58f5c6e8da757c,,,,,,,,,,,,,,1,,,,,,,,,,,,,,,,,,,,,,,,,,,,,,,,,,,,,,,,,,,,,,,,,,,,,,,,,52,camisa,,,,,2280.3922,2287.4585,0,0,6.53,,0,23,23,51,1,REAL,FAKE,,,,,,,,,,,,,,,,,
,,,,,,,,,63e548215b42b3f3aa069dc2,Spanish,13 or older,"no, only English or Spanish",no,2025-08-15_21h49.34.313,empathy_intonation_perc,2024.2.4,Win32,59.88023952,63e548215b42b3f3aa069dc2,689ed6d1281858f68c932c05,689fe388da58f5c6e8da757c,,,,,,,,,,,,,,1,,,,,,,,,,,,,,,,,,,,,,,,,,,,,,,,,,,,,,,,,,,,,,,,,,,,,,,,,51,candado,,,,,2287.459,2290.9923,0,0,3.0003,,0,24,24,50,1,REAL,FAKE,,,,,,,,,,,,,,,,,
,,,,,,,,,63e548215b42b3f3aa069dc2,Spanish,13 or older,"no, only English or Spanish",no,2025-08-15_21h49.34.313,empathy_intonation_perc,2024.2.4,Win32,59.88023952,63e548215b42b3f3aa069dc2,689ed6d1281858f68c932c05,689fe388da58f5c6e8da757c,,,,,,,,,,,,,,0,,,,,,,,,,,,,,,,,,,,,,,,,,,,,,,,,,,,,,,,,,,,,,,,,,,,,,,,,87,grodo,,,,,2290.993,2294.1751,1,0,2.636,,0,25,25,86,1,REAL,FAKE,,,,,,,,,,,,,,,,,
,,,,,,,,,63e548215b42b3f3aa069dc2,Spanish,13 or older,"no, only English or Spanish",no,2025-08-15_21h49.34.313,empathy_intonation_perc,2024.2.4,Win32,59.88023952,63e548215b42b3f3aa069dc2,689ed6d1281858f68c932c05,689fe388da58f5c6e8da757c,,,,,,,,,,,,,,1,,,,,,,,,,,,,,,,,,,,,,,,,,,,,,,,,,,,,,,,,,,,,,,,,,,,,,,,,25,bisagra,,,,,2294.1756,2295.5418,0,0,0.8258,,0,26,26,24,1,REAL,FAKE,,,,,,,,,,,,,,,,,
,,,,,,,,,63e548215b42b3f3aa069dc2,Spanish,13 or older,"no, only English or Spanish",no,2025-08-15_21h49.34.313,empathy_intonation_perc,2024.2.4,Win32,59.88023952,63e548215b42b3f3aa069dc2,689ed6d1281858f68c932c05,689fe388da58f5c6e8da757c,,,,,,,,,,,,,,0,,,,,,,,,,,,,,,,,,,,,,,,,,,,,,,,,,,,,,,,,,,,,,,,,,,,,,,,,84,escuto,,,,,2295.5424,2297.1919,1,0,1.1063,,0,27,27,83,1,REAL,FAKE,,,,,,,,,,,,,,,,,
,,,,,,,,,63e548215b42b3f3aa069dc2,Spanish,13 or older,"no, only English or Spanish",no,2025-08-15_21h49.34.313,empathy_intonation_perc,2024.2.4,Win32,59.88023952,63e548215b42b3f3aa069dc2,689ed6d1281858f68c932c05,689fe388da58f5c6e8da757c,,,,,,,,,,,,,,0,,,,,,,,,,,,,,,,,,,,,,,,,,,,,,,,,,,,,,,,,,,,,,,,,,,,,,,,,47,cartinar,,,,,2297.1924,2298.6251,0,1,0.887,,0,28,28,46,1,REAL,FAKE,,,,,,,,,,,,,,,,,
,,,,,,,,,63e548215b42b3f3aa069dc2,Spanish,13 or older,"no, only English or Spanish",no,2025-08-15_21h49.34.313,empathy_intonation_perc,2024.2.4,Win32,59.88023952,63e548215b42b3f3aa069dc2,689ed6d1281858f68c932c05,689fe388da58f5c6e8da757c,,,,,,,,,,,,,,0,,,,,,,,,,,,,,,,,,,,,,,,,,,,,,,,,,,,,,,,,,,,,,,,,,,,,,,,,66,hacido,,,,,2298.6256,2300.0919,1,0,0.9238,,0,29,29,65,1,REAL,FAKE,,,,,,,,,,,,,,,,,
,,,,,,,,,63e548215b42b3f3aa069dc2,Spanish,13 or older,"no, only English or Spanish",no,2025-08-15_21h49.34.313,empathy_intonation_perc,2024.2.4,Win32,59.88023952,63e548215b42b3f3aa069dc2,689ed6d1281858f68c932c05,689fe388da58f5c6e8da757c,,,,,,,,,,,,,,0,,,,,,,,,,,,,,,,,,,,,,,,,,,,,,,,,,,,,,,,,,,,,,,,,,,,,,,,,33,pauca,,,,,2300.0924,2301.4918,0,1,0.8534,,0,30,30,32,1,REAL,FAKE,,,,,,,,,,,,,,,,,
,,,,,,,,,63e548215b42b3f3aa069dc2,Spanish,13 or older,"no, only English or Spanish",no,2025-08-15_21h49.34.313,empathy_intonation_perc,2024.2.4,Win32,59.88023952,63e548215b42b3f3aa069dc2,689ed6d1281858f68c932c05,689fe388da58f5c6e8da757c,,,,,,,,,,,,,,1,,,,,,,,,,,,,,,,,,,,,,,,,,,,,,,,,,,,,,,,,,,,,,,,,,,,,,,,,64,orgulloso,,,,,2301.4923,2303.2419,0,0,1.2063,,0,31,31,63,1,REAL,FAKE,,,,,,,,,,,,,,,,,
,,,,,,,,,63e548215b42b3f3aa069dc2,Spanish,13 or older,"no, only English or Spanish",no,2025-08-15_21h49.34.313,empathy_intonation_perc,2024.2.4,Win32,59.88023952,63e548215b42b3f3aa069dc2,689ed6d1281858f68c932c05,689fe388da58f5c6e8da757c,,,,,,,,,,,,,,1,,,,,,,,,,,,,,,,,,,,,,,,,,,,,,,,,,,,,,,,,,,,,,,,,,,,,,,,,88,acantilado,,,,,2303.2424,2305.3751,0,0,1.5993,,0,32,32,87,1,REAL,FAKE,,,,,,,,,,,,,,,,,
,,,,,,,,,63e548215b42b3f3aa069dc2,Spanish,13 or older,"no, only English or Spanish",no,2025-08-15_21h49.34.313,empathy_intonation_perc,2024.2.4,Win32,59.88023952,63e548215b42b3f3aa069dc2,689ed6d1281858f68c932c05,689fe388da58f5c6e8da757c,,,,,,,,,,,,,,0,,,,,,,,,,,,,,,,,,,,,,,,,,,,,,,,,,,,,,,,,,,,,,,,,,,,,,,,,27,acutación,,,,,2305.3759,2309.6585,1,0,3.7429,,0,33,33,26,1,REAL,FAKE,,,,,,,,,,,,,,,,,
,,,,,,,,,63e548215b42b3f3aa069dc2,Spanish,13 or older,"no, only English or Spanish",no,2025-08-15_21h49.34.313,empathy_intonation_perc,2024.2.4,Win32,59.88023952,63e548215b42b3f3aa069dc2,689ed6d1281858f68c932c05,689fe388da58f5c6e8da757c,,,,,,,,,,,,,,1,,,,,,,,,,,,,,,,,,,,,,,,,,,,,,,,,,,,,,,,,,,,,,,,,,,,,,,,,80,hormiga,,,,,2309.6589,2311.7085,1,1,1.5008,,0,34,34,79,1,REAL,FAKE,,,,,,,,,,,,,,,,,
,,,,,,,,,63e548215b42b3f3aa069dc2,Spanish,13 or older,"no, only English or Spanish",no,2025-08-15_21h49.34.313,empathy_intonation_perc,2024.2.4,Win32,59.88023952,63e548215b42b3f3aa069dc2,689ed6d1281858f68c932c05,689fe388da58f5c6e8da757c,,,,,,,,,,,,,,1,,,,,,,,,,,,,,,,,,,,,,,,,,,,,,,,,,,,,,,,,,,,,,,,,,,,,,,,,34,aviso,,,,,2311.7091,2313.5585,1,1,1.3008,,0,35,35,33,1,REAL,FAKE,,,,,,,,,,,,,,,,,
,,,,,,,,,63e548215b42b3f3aa069dc2,Spanish,13 or older,"no, only English or Spanish",no,2025-08-15_21h49.34.313,empathy_intonation_perc,2024.2.4,Win32,59.88023952,63e548215b42b3f3aa069dc2,689ed6d1281858f68c932c05,689fe388da58f5c6e8da757c,,,,,,,,,,,,,,0,,,,,,,,,,,,,,,,,,,,,,,,,,,,,,,,,,,,,,,,,,,,,,,,,,,,,,,,,35,rompido,,,,,2313.559,2314.9752,0,1,0.8717,,0,36,36,34,1,REAL,FAKE,,,,,,,,,,,,,,,,,
,,,,,,,,,63e548215b42b3f3aa069dc2,Spanish,13 or older,"no, only English or Spanish",no,2025-08-15_21h49.34.313,empathy_intonation_perc,2024.2.4,Win32,59.88023952,63e548215b42b3f3aa069dc2,689ed6d1281858f68c932c05,689fe388da58f5c6e8da757c,,,,,,,,,,,,,,1,,,,,,,,,,,,,,,,,,,,,,,,,,,,,,,,,,,,,,,,,,,,,,,,,,,,,,,,,75,yacer,,,,,2314.9756,2316.5922,0,0,1.1,,0,37,37,74,1,REAL,FAKE,,,,,,,,,,,,,,,,,
,,,,,,,,,63e548215b42b3f3aa069dc2,Spanish,13 or older,"no, only English or Spanish",no,2025-08-15_21h49.34.313,empathy_intonation_perc,2024.2.4,Win32,59.88023952,63e548215b42b3f3aa069dc2,689ed6d1281858f68c932c05,689fe388da58f5c6e8da757c,,,,,,,,,,,,,,0,,,,,,,,,,,,,,,,,,,,,,,,,,,,,,,,,,,,,,,,,,,,,,,,,,,,,,,,,17,floroso,,,,,2316.5927,2339.675,1,0,22.5457,,0,38,38,16,1,REAL,FAKE,,,,,,,,,,,,,,,,,
,,,,,,,,,63e548215b42b3f3aa069dc2,Spanish,13 or older,"no, only English or Spanish",no,2025-08-15_21h49.34.313,empathy_intonation_perc,2024.2.4,Win32,59.88023952,63e548215b42b3f3aa069dc2,689ed6d1281858f68c932c05,689fe388da58f5c6e8da757c,,,,,,,,,,,,,,1,,,,,,,,,,,,,,,,,,,,,,,,,,,,,,,,,,,,,,,,,,,,,,,,,,,,,,,,,22,lacayo,,,,,2339.6756,2345.2421,0,0,5.0332,,0,39,39,21,1,REAL,FAKE,,,,,,,,,,,,,,,,,
,,,,,,,,,63e548215b42b3f3aa069dc2,Spanish,13 or older,"no, only English or Spanish",no,2025-08-15_21h49.34.313,empathy_intonation_perc,2024.2.4,Win32,59.88023952,63e548215b42b3f3aa069dc2,689ed6d1281858f68c932c05,689fe388da58f5c6e8da757c,,,,,,,,,,,,,,0,,,,,,,,,,,,,,,,,,,,,,,,,,,,,,,,,,,,,,,,,,,,,,,,,,,,,,,,,53,vegada,,,,,2345.2426,2352.2417,0,1,6.4518,,0,40,40,52,1,REAL,FAKE,,,,,,,,,,,,,,,,,
,,,,,,,,,63e548215b42b3f3aa069dc2,Spanish,13 or older,"no, only English or Spanish",no,2025-08-15_21h49.34.313,empathy_intonation_perc,2024.2.4,Win32,59.88023952,63e548215b42b3f3aa069dc2,689ed6d1281858f68c932c05,689fe388da58f5c6e8da757c,,,,,,,,,,,,,,1,,,,,,,,,,,,,,,,,,,,,,,,,,,,,,,,,,,,,,,,,,,,,,,,,,,,,,,,,11,cenefa,,,,,2352.2423,2356.7423,1,1,3.9836,,0,41,41,10,1,REAL,FAKE,,,,,,,,,,,,,,,,,
,,,,,,,,,63e548215b42b3f3aa069dc2,Spanish,13 or older,"no, only English or Spanish",no,2025-08-15_21h49.34.313,empathy_intonation_perc,2024.2.4,Win32,59.88023952,63e548215b42b3f3aa069dc2,689ed6d1281858f68c932c05,689fe388da58f5c6e8da757c,,,,,,,,,,,,,,1,,,,,,,,,,,,,,,,,,,,,,,,,,,,,,,,,,,,,,,,,,,,,,,,,,,,,,,,,2,pellizcar,,,,,2356.7431,2360.7755,1,1,3.5001,,0,42,42,1,1,REAL,FAKE,,,,,,,,,,,,,,,,,
,,,,,,,,,63e548215b42b3f3aa069dc2,Spanish,13 or older,"no, only English or Spanish",no,2025-08-15_21h49.34.313,empathy_intonation_perc,2024.2.4,Win32,59.88023952,63e548215b42b3f3aa069dc2,689ed6d1281858f68c932c05,689fe388da58f5c6e8da757c,,,,,,,,,,,,,,1,,,,,,,,,,,,,,,,,,,,,,,,,,,,,,,,,,,,,,,,,,,,,,,,,,,,,,,,,61,seda,,,,,2360.7759,2364.6923,1,1,3.3838,,0,43,43,60,1,REAL,FAKE,,,,,,,,,,,,,,,,,
,,,,,,,,,63e548215b42b3f3aa069dc2,Spanish,13 or older,"no, only English or Spanish",no,2025-08-15_21h49.34.313,empathy_intonation_perc,2024.2.4,Win32,59.88023952,63e548215b42b3f3aa069dc2,689ed6d1281858f68c932c05,689fe388da58f5c6e8da757c,,,,,,,,,,,,,,1,,,,,,,,,,,,,,,,,,,,,,,,,,,,,,,,,,,,,,,,,,,,,,,,,,,,,,,,,9,hacha,,,,,2364.6929,2369.0086,1,1,3.779,,0,44,44,8,1,REAL,FAKE,,,,,,,,,,,,,,,,,
,,,,,,,,,63e548215b42b3f3aa069dc2,Spanish,13 or older,"no, only English or Spanish",no,2025-08-15_21h49.34.313,empathy_intonation_perc,2024.2.4,Win32,59.88023952,63e548215b42b3f3aa069dc2,689ed6d1281858f68c932c05,689fe388da58f5c6e8da757c,,,,,,,,,,,,,,1,,,,,,,,,,,,,,,,,,,,,,,,,,,,,,,,,,,,,,,,,,,,,,,,,,,,,,,,,90,clavel,,,,,2369.0091,2373.1418,0,0,3.5945,,0,45,45,89,1,REAL,FAKE,,,,,,,,,,,,,,,,,
,,,,,,,,,63e548215b42b3f3aa069dc2,Spanish,13 or older,"no, only English or Spanish",no,2025-08-15_21h49.34.313,empathy_intonation_perc,2024.2.4,Win32,59.88023952,63e548215b42b3f3aa069dc2,689ed6d1281858f68c932c05,689fe388da58f5c6e8da757c,,,,,,,,,,,,,,1,,,,,,,,,,,,,,,,,,,,,,,,,,,,,,,,,,,,,,,,,,,,,,,,,,,,,,,,,43,canela,,,,,2373.1424,2378.3917,0,0,4.7143,,0,46,46,42,1,REAL,FAKE,,,,,,,,,,,,,,,,,
,,,,,,,,,63e548215b42b3f3aa069dc2,Spanish,13 or older,"no, only English or Spanish",no,2025-08-15_21h49.34.313,empathy_intonation_perc,2024.2.4,Win32,59.88023952,63e548215b42b3f3aa069dc2,689ed6d1281858f68c932c05,689fe388da58f5c6e8da757c,,,,,,,,,,,,,,1,,,,,,,,,,,,,,,,,,,,,,,,,,,,,,,,,,,,,,,,,,,,,,,,,,,,,,,,,12,asesinato,,,,,2378.3922,2380.9417,1,1,2.0023,,0,47,47,11,1,REAL,FAKE,,,,,,,,,,,,,,,,,
,,,,,,,,,63e548215b42b3f3aa069dc2,Spanish,13 or older,"no, only English or Spanish",no,2025-08-15_21h49.34.313,empathy_intonation_perc,2024.2.4,Win32,59.88023952,63e548215b42b3f3aa069dc2,689ed6d1281858f68c932c05,689fe388da58f5c6e8da757c,,,,,,,,,,,,,,1,,,,,,,,,,,,,,,,,,,,,,,,,,,,,,,,,,,,,,,,,,,,,,,,,,,,,,,,,67,cabello,,,,,2380.9423,2385.375,1,1,3.8861,,0,48,48,66,1,REAL,FAKE,,,,,,,,,,,,,,,,,
,,,,,,,,,63e548215b42b3f3aa069dc2,Spanish,13 or older,"no, only English or Spanish",no,2025-08-15_21h49.34.313,empathy_intonation_perc,2024.2.4,Win32,59.88023952,63e548215b42b3f3aa069dc2,689ed6d1281858f68c932c05,689fe388da58f5c6e8da757c,,,,,,,,,,,,,,0,,,,,,,,,,,,,,,,,,,,,,,,,,,,,,,,,,,,,,,,,,,,,,,,,,,,,,,,,72,pemición,,,,,2385.3754,2390.1083,0,1,4.2137,,0,49,49,71,1,REAL,FAKE,,,,,,,,,,,,,,,,,
,,,,,,,,,63e548215b42b3f3aa069dc2,Spanish,13 or older,"no, only English or Spanish",no,2025-08-15_21h49.34.313,empathy_intonation_perc,2024.2.4,Win32,59.88023952,63e548215b42b3f3aa069dc2,689ed6d1281858f68c932c05,689fe388da58f5c6e8da757c,,,,,,,,,,,,,,1,,,,,,,,,,,,,,,,,,,,,,,,,,,,,,,,,,,,,,,,,,,,,,,,,,,,,,,,,59,besar,,,,,2390.1089,2393.9421,1,1,3.3003,,0,50,50,58,1,REAL,FAKE,,,,,,,,,,,,,,,,,
,,,,,,,,,63e548215b42b3f3aa069dc2,Spanish,13 or older,"no, only English or Spanish",no,2025-08-15_21h49.34.313,empathy_intonation_perc,2024.2.4,Win32,59.88023952,63e548215b42b3f3aa069dc2,689ed6d1281858f68c932c05,689fe388da58f5c6e8da757c,,,,,,,,,,,,,,0,,,,,,,,,,,,,,,,,,,,,,,,,,,,,,,,,,,,,,,,,,,,,,,,,,,,,,,,,79,tropaje,,,,,2393.9427,2397.6085,1,0,3.1193,,0,51,51,78,1,REAL,FAKE,,,,,,,,,,,,,,,,,
,,,,,,,,,63e548215b42b3f3aa069dc2,Spanish,13 or older,"no, only English or Spanish",no,2025-08-15_21h49.34.313,empathy_intonation_perc,2024.2.4,Win32,59.88023952,63e548215b42b3f3aa069dc2,689ed6d1281858f68c932c05,689fe388da58f5c6e8da757c,,,,,,,,,,,,,,1,,,,,,,,,,,,,,,,,,,,,,,,,,,,,,,,,,,,,,,,,,,,,,,,,,,,,,,,,3,pulmones,,,,,2397.6091,2401.8588,1,1,3.7169,,0,52,52,2,1,REAL,FAKE,,,,,,,,,,,,,,,,,
,,,,,,,,,63e548215b42b3f3aa069dc2,Spanish,13 or older,"no, only English or Spanish",no,2025-08-15_21h49.34.313,empathy_intonation_perc,2024.2.4,Win32,59.88023952,63e548215b42b3f3aa069dc2,689ed6d1281858f68c932c05,689fe388da58f5c6e8da757c,,,,,,,,,,,,,,1,,,,,,,,,,,,,,,,,,,,,,,,,,,,,,,,,,,,,,,,,,,,,,,,,,,,,,,,,68,alegre,,,,,2401.8594,2405.1419,1,1,2.7388,,0,53,53,67,1,REAL,FAKE,,,,,,,,,,,,,,,,,
,,,,,,,,,63e548215b42b3f3aa069dc2,Spanish,13 or older,"no, only English or Spanish",no,2025-08-15_21h49.34.313,empathy_intonation_perc,2024.2.4,Win32,59.88023952,63e548215b42b3f3aa069dc2,689ed6d1281858f68c932c05,689fe388da58f5c6e8da757c,,,,,,,,,,,,,,1,,,,,,,,,,,,,,,,,,,,,,,,,,,,,,,,,,,,,,,,,,,,,,,,,,,,,,,,,77,tiburón,,,,,2405.1424,2408.7252,1,1,3.0474,,0,54,54,76,1,REAL,FAKE,,,,,,,,,,,,,,,,,
,,,,,,,,,63e548215b42b3f3aa069dc2,Spanish,13 or older,"no, only English or Spanish",no,2025-08-15_21h49.34.313,empathy_intonation_perc,2024.2.4,Win32,59.88023952,63e548215b42b3f3aa069dc2,689ed6d1281858f68c932c05,689fe388da58f5c6e8da757c,,,,,,,,,,,,,,1,,,,,,,,,,,,,,,,,,,,,,,,,,,,,,,,,,,,,,,,,,,,,,,,,,,,,,,,,83,guante,,,,,2408.7257,2412.925,1,1,3.6653,,0,55,55,82,1,REAL,FAKE,,,,,,,,,,,,,,,,,
,,,,,,,,,63e548215b42b3f3aa069dc2,Spanish,13 or older,"no, only English or Spanish",no,2025-08-15_21h49.34.313,empathy_intonation_perc,2024.2.4,Win32,59.88023952,63e548215b42b3f3aa069dc2,689ed6d1281858f68c932c05,689fe388da58f5c6e8da757c,,,,,,,,,,,,,,1,,,,,,,,,,,,,,,,,,,,,,,,,,,,,,,,,,,,,,,,,,,,,,,,,,,,,,,,,62,flaco,,,,,2412.9256,2415.475,1,1,2.0004,,0,56,56,61,1,REAL,FAKE,,,,,,,,,,,,,,,,,
,,,,,,,,,63e548215b42b3f3aa069dc2,Spanish,13 or older,"no, only English or Spanish",no,2025-08-15_21h49.34.313,empathy_intonation_perc,2024.2.4,Win32,59.88023952,63e548215b42b3f3aa069dc2,689ed6d1281858f68c932c05,689fe388da58f5c6e8da757c,,,,,,,,,,,,,,0,,,,,,,,,,,,,,,,,,,,,,,,,,,,,,,,,,,,,,,,,,,,,,,,,,,,,,,,,70,temblo,,,,,2415.4755,2419.4417,1,0,3.4199,,0,57,57,69,1,REAL,FAKE,,,,,,,,,,,,,,,,,
,,,,,,,,,63e548215b42b3f3aa069dc2,Spanish,13 or older,"no, only English or Spanish",no,2025-08-15_21h49.34.313,empathy_intonation_perc,2024.2.4,Win32,59.88023952,63e548215b42b3f3aa069dc2,689ed6d1281858f68c932c05,689fe388da58f5c6e8da757c,,,,,,,,,,,,,,1,,,,,,,,,,,,,,,,,,,,,,,,,,,,,,,,,,,,,,,,,,,,,,,,,,,,,,,,,5,zapato,,,,,2419.4421,2421.7585,1,1,1.7805,,0,58,58,4,1,REAL,FAKE,,,,,,,,,,,,,,,,,
,,,,,,,,,63e548215b42b3f3aa069dc2,Spanish,13 or older,"no, only English or Spanish",no,2025-08-15_21h49.34.313,empathy_intonation_perc,2024.2.4,Win32,59.88023952,63e548215b42b3f3aa069dc2,689ed6d1281858f68c932c05,689fe388da58f5c6e8da757c,,,,,,,,,,,,,,0,,,,,,,,,,,,,,,,,,,,,,,,,,,,,,,,,,,,,,,,,,,,,,,,,,,,,,,,,74,cintro,,,,,2421.7591,2465.225,1,0,42.9205,,0,59,59,73,1,REAL,FAKE,,,,,,,,,,,,,,,,,
,,,,,,,,,63e548215b42b3f3aa069dc2,Spanish,13 or older,"no, only English or Spanish",no,2025-08-15_21h49.34.313,empathy_intonation_perc,2024.2.4,Win32,59.88023952,63e548215b42b3f3aa069dc2,689ed6d1281858f68c932c05,689fe388da58f5c6e8da757c,,,,,,,,,,,,,,0,,,,,,,,,,,,,,,,,,,,,,,,,,,,,,,,,,,,,,,,,,,,,,,,,,,,,,,,,21,capillo,,,,,2465.2255,2478.0084,1,0,12.2461,,0,60,60,20,1,REAL,FAKE,,,,,,,,,,,,,,,,,
,,,,,,,,,63e548215b42b3f3aa069dc2,Spanish,13 or older,"no, only English or Spanish",no,2025-08-15_21h49.34.313,empathy_intonation_perc,2024.2.4,Win32,59.88023952,63e548215b42b3f3aa069dc2,689ed6d1281858f68c932c05,689fe388da58f5c6e8da757c,,,,,,,,,,,,,,1,,,,,,,,,,,,,,,,,,,,,,,,,,,,,,,,,,,,,,,,,,,,,,,,,,,,,,,,,81,pozo,,,,,2478.009,2486.292,0,0,7.7502,,0,61,61,80,1,REAL,FAKE,,,,,,,,,,,,,,,,,
,,,,,,,,,63e548215b42b3f3aa069dc2,Spanish,13 or older,"no, only English or Spanish",no,2025-08-15_21h49.34.313,empathy_intonation_perc,2024.2.4,Win32,59.88023952,63e548215b42b3f3aa069dc2,689ed6d1281858f68c932c05,689fe388da58f5c6e8da757c,,,,,,,,,,,,,,1,,,,,,,,,,,,,,,,,,,,,,,,,,,,,,,,,,,,,,,,,,,,,,,,,,,,,,,,,65,bizcocho,,,,,2486.2926,2497.2916,1,1,10.4567,,0,62,62,64,1,REAL,FAKE,,,,,,,,,,,,,,,,,
,,,,,,,,,63e548215b42b3f3aa069dc2,Spanish,13 or older,"no, only English or Spanish",no,2025-08-15_21h49.34.313,empathy_intonation_perc,2024.2.4,Win32,59.88023952,63e548215b42b3f3aa069dc2,689ed6d1281858f68c932c05,689fe388da58f5c6e8da757c,,,,,,,,,,,,,,0,,,,,,,,,,,,,,,,,,,,,,,,,,,,,,,,,,,,,,,,,,,,,,,,,,,,,,,,,42,cadallo,,,,,2497.2922,2508.7587,1,0,10.9501,,0,63,63,41,1,REAL,FAKE,,,,,,,,,,,,,,,,,
,,,,,,,,,63e548215b42b3f3aa069dc2,Spanish,13 or older,"no, only English or Spanish",no,2025-08-15_21h49.34.313,empathy_intonation_perc,2024.2.4,Win32,59.88023952,63e548215b42b3f3aa069dc2,689ed6d1281858f68c932c05,689fe388da58f5c6e8da757c,,,,,,,,,,,,,,1,,,,,,,,,,,,,,,,,,,,,,,,,,,,,,,,,,,,,,,,,,,,,,,,,,,,,,,,,57,tacaño,,,,,2508.7591,2512.3582,1,1,3.052,,0,64,64,56,1,REAL,FAKE,,,,,,,,,,,,,,,,,
,,,,,,,,,63e548215b42b3f3aa069dc2,Spanish,13 or older,"no, only English or Spanish",no,2025-08-15_21h49.34.313,empathy_intonation_perc,2024.2.4,Win32,59.88023952,63e548215b42b3f3aa069dc2,689ed6d1281858f68c932c05,689fe388da58f5c6e8da757c,,,,,,,,,,,,,,0,,,,,,,,,,,,,,,,,,,,,,,,,,,,,,,,,,,,,,,,,,,,,,,,,,,,,,,,,29,decar,,,,,2512.3588,2514.5915,0,1,1.6852,,0,65,65,28,1,REAL,FAKE,,,,,,,,,,,,,,,,,
,,,,,,,,,63e548215b42b3f3aa069dc2,Spanish,13 or older,"no, only English or Spanish",no,2025-08-15_21h49.34.313,empathy_intonation_perc,2024.2.4,Win32,59.88023952,63e548215b42b3f3aa069dc2,689ed6d1281858f68c932c05,689fe388da58f5c6e8da757c,,,,,,,,,,,,,,1,,,,,,,,,,,,,,,,,,,,,,,,,,,,,,,,,,,,,,,,,,,,,,,,,,,,,,,,,69,engatusar,,,,,2514.592,2516.5418,0,0,1.4149,,0,66,66,68,1,REAL,FAKE,,,,,,,,,,,,,,,,,
,,,,,,,,,63e548215b42b3f3aa069dc2,Spanish,13 or older,"no, only English or Spanish",no,2025-08-15_21h49.34.313,empathy_intonation_perc,2024.2.4,Win32,59.88023952,63e548215b42b3f3aa069dc2,689ed6d1281858f68c932c05,689fe388da58f5c6e8da757c,,,,,,,,,,,,,,1,,,,,,,,,,,,,,,,,,,,,,,,,,,,,,,,,,,,,,,,,,,,,,,,,,,,,,,,,6,tergiversar,,,,,2516.5423,2518.7582,0,0,1.6729,,0,67,67,5,1,REAL,FAKE,,,,,,,,,,,,,,,,,
,,,,,,,,,63e548215b42b3f3aa069dc2,Spanish,13 or older,"no, only English or Spanish",no,2025-08-15_21h49.34.313,empathy_intonation_perc,2024.2.4,Win32,59.88023952,63e548215b42b3f3aa069dc2,689ed6d1281858f68c932c05,689fe388da58f5c6e8da757c,,,,,,,,,,,,,,0,,,,,,,,,,,,,,,,,,,,,,,,,,,,,,,,,,,,,,,,,,,,,,,,,,,,,,,,,19,brecedad,,,,,2518.7587,2521.7581,1,0,2.4769,,0,68,68,18,1,REAL,FAKE,,,,,,,,,,,,,,,,,
,,,,,,,,,63e548215b42b3f3aa069dc2,Spanish,13 or older,"no, only English or Spanish",no,2025-08-15_21h49.34.313,empathy_intonation_perc,2024.2.4,Win32,59.88023952,63e548215b42b3f3aa069dc2,689ed6d1281858f68c932c05,689fe388da58f5c6e8da757c,,,,,,,,,,,,,,1,,,,,,,,,,,,,,,,,,,,,,,,,,,,,,,,,,,,,,,,,,,,,,,,,,,,,,,,,41,rebuscar,,,,,2521.7587,2523.4086,0,0,1.1168,,0,69,69,40,1,REAL,FAKE,,,,,,,,,,,,,,,,,
,,,,,,,,,63e548215b42b3f3aa069dc2,Spanish,13 or older,"no, only English or Spanish",no,2025-08-15_21h49.34.313,empathy_intonation_perc,2024.2.4,Win32,59.88023952,63e548215b42b3f3aa069dc2,689ed6d1281858f68c932c05,689fe388da58f5c6e8da757c,,,,,,,,,,,,,,1,,,,,,,,,,,,,,,,,,,,,,,,,,,,,,,,,,,,,,,,,,,,,,,,,,,,,,,,,24,látigo,,,,,2523.4093,2525.7082,1,1,1.7614,,0,70,70,23,1,REAL,FAKE,,,,,,,,,,,,,,,,,
,,,,,,,,,63e548215b42b3f3aa069dc2,Spanish,13 or older,"no, only English or Spanish",no,2025-08-15_21h49.34.313,empathy_intonation_perc,2024.2.4,Win32,59.88023952,63e548215b42b3f3aa069dc2,689ed6d1281858f68c932c05,689fe388da58f5c6e8da757c,,,,,,,,,,,,,,1,,,,,,,,,,,,,,,,,,,,,,,,,,,,,,,,,,,,,,,,,,,,,,,,,,,,,,,,,76,atar,,,,,2525.7086,2530.7749,1,1,4.5252,,0,71,71,75,1,REAL,FAKE,,,,,,,,,,,,,,,,,
,,,,,,,,,63e548215b42b3f3aa069dc2,Spanish,13 or older,"no, only English or Spanish",no,2025-08-15_21h49.34.313,empathy_intonation_perc,2024.2.4,Win32,59.88023952,63e548215b42b3f3aa069dc2,689ed6d1281858f68c932c05,689fe388da58f5c6e8da757c,,,,,,,,,,,,,,0,,,,,,,,,,,,,,,,,,,,,,,,,,,,,,,,,,,,,,,,,,,,,,,,,,,,,,,,,16,abracer,,,,,2530.7753,2532.5749,0,1,1.2589,,0,72,72,15,1,REAL,FAKE,,,,,,,,,,,,,,,,,
,,,,,,,,,63e548215b42b3f3aa069dc2,Spanish,13 or older,"no, only English or Spanish",no,2025-08-15_21h49.34.313,empathy_intonation_perc,2024.2.4,Win32,59.88023952,63e548215b42b3f3aa069dc2,689ed6d1281858f68c932c05,689fe388da58f5c6e8da757c,,,,,,,,,,,,,,1,,,,,,,,,,,,,,,,,,,,,,,,,,,,,,,,,,,,,,,,,,,,,,,,,,,,,,,,,56,musgo,,,,,2532.5754,2533.9915,1,1,0.8883,,0,73,73,55,1,REAL,FAKE,,,,,,,,,,,,,,,,,
,,,,,,,,,63e548215b42b3f3aa069dc2,Spanish,13 or older,"no, only English or Spanish",no,2025-08-15_21h49.34.313,empathy_intonation_perc,2024.2.4,Win32,59.88023952,63e548215b42b3f3aa069dc2,689ed6d1281858f68c932c05,689fe388da58f5c6e8da757c,,,,,,,,,,,,,,1,,,,,,,,,,,,,,,,,,,,,,,,,,,,,,,,,,,,,,,,,,,,,,,,,,,,,,,,,85,laúd,,,,,2533.9922,2535.7915,1,1,1.265,,0,74,74,84,1,REAL,FAKE,,,,,,,,,,,,,,,,,
,,,,,,,,,63e548215b42b3f3aa069dc2,Spanish,13 or older,"no, only English or Spanish",no,2025-08-15_21h49.34.313,empathy_intonation_perc,2024.2.4,Win32,59.88023952,63e548215b42b3f3aa069dc2,689ed6d1281858f68c932c05,689fe388da58f5c6e8da757c,,,,,,,,,,,,,,0,,,,,,,,,,,,,,,,,,,,,,,,,,,,,,,,,,,,,,,,,,,,,,,,,,,,,,,,,4,batillón,,,,,2535.792,2537.0083,1,0,0.6989,,0,75,75,3,1,REAL,FAKE,,,,,,,,,,,,,,,,,
,,,,,,,,,63e548215b42b3f3aa069dc2,Spanish,13 or older,"no, only English or Spanish",no,2025-08-15_21h49.34.313,empathy_intonation_perc,2024.2.4,Win32,59.88023952,63e548215b42b3f3aa069dc2,689ed6d1281858f68c932c05,689fe388da58f5c6e8da757c,,,,,,,,,,,,,,1,,,,,,,,,,,,,,,,,,,,,,,,,,,,,,,,,,,,,,,,,,,,,,,,,,,,,,,,,38,estornudar,,,,,2537.0088,2538.8248,1,1,1.2815,,0,76,76,37,1,REAL,FAKE,,,,,,,,,,,,,,,,,
,,,,,,,,,63e548215b42b3f3aa069dc2,Spanish,13 or older,"no, only English or Spanish",no,2025-08-15_21h49.34.313,empathy_intonation_perc,2024.2.4,Win32,59.88023952,63e548215b42b3f3aa069dc2,689ed6d1281858f68c932c05,689fe388da58f5c6e8da757c,,,,,,,,,,,,,,0,,,,,,,,,,,,,,,,,,,,,,,,,,,,,,,,,,,,,,,,,,,,,,,,,,,,,,,,,63,esposante,,,,,2538.8254,2540.2086,1,0,0.8501,,0,77,77,62,1,REAL,FAKE,,,,,,,,,,,,,,,,,
,,,,,,,,,63e548215b42b3f3aa069dc2,Spanish,13 or older,"no, only English or Spanish",no,2025-08-15_21h49.34.313,empathy_intonation_perc,2024.2.4,Win32,59.88023952,63e548215b42b3f3aa069dc2,689ed6d1281858f68c932c05,689fe388da58f5c6e8da757c,,,,,,,,,,,,,,0,,,,,,,,,,,,,,,,,,,,,,,,,,,,,,,,,,,,,,,,,,,,,,,,,,,,,,,,,92,click the 0 key.,,,,,2540.2091,2542.3582,0,1,1.6073,,0,78,78,91,1,REAL,FAKE,,,,,,,,,,,,,,,,,
,,,,,,,,,63e548215b42b3f3aa069dc2,Spanish,13 or older,"no, only English or Spanish",no,2025-08-15_21h49.34.313,empathy_intonation_perc,2024.2.4,Win32,59.88023952,63e548215b42b3f3aa069dc2,689ed6d1281858f68c932c05,689fe388da58f5c6e8da757c,,,,,,,,,,,,,,1,,,,,,,,,,,,,,,,,,,,,,,,,,,,,,,,,,,,,,,,,,,,,,,,,,,,,,,,,54,fomentar,,,,,2542.3587,2544.1416,1,1,1.2356,,0,79,79,53,1,REAL,FAKE,,,,,,,,,,,,,,,,,
,,,,,,,,,63e548215b42b3f3aa069dc2,Spanish,13 or older,"no, only English or Spanish",no,2025-08-15_21h49.34.313,empathy_intonation_perc,2024.2.4,Win32,59.88023952,63e548215b42b3f3aa069dc2,689ed6d1281858f68c932c05,689fe388da58f5c6e8da757c,,,,,,,,,,,,,,1,,,,,,,,,,,,,,,,,,,,,,,,,,,,,,,,,,,,,,,,,,,,,,,,,,,,,,,,,20,ávido,,,,,2544.1421,2545.3082,1,1,0.6333,,0,80,80,19,1,REAL,FAKE,,,,,,,,,,,,,,,,,
,,,,,,,,,63e548215b42b3f3aa069dc2,Spanish,13 or older,"no, only English or Spanish",no,2025-08-15_21h49.34.313,empathy_intonation_perc,2024.2.4,Win32,59.88023952,63e548215b42b3f3aa069dc2,689ed6d1281858f68c932c05,689fe388da58f5c6e8da757c,,,,,,,,,,,,,,1,,,,,,,,,,,,,,,,,,,,,,,,,,,,,,,,,,,,,,,,,,,,,,,,,,,,,,,,,14,yunque,,,,,2545.3087,2547.2249,0,0,1.3806,,0,81,81,13,1,REAL,FAKE,,,,,,,,,,,,,,,,,
,,,,,,,,,63e548215b42b3f3aa069dc2,Spanish,13 or older,"no, only English or Spanish",no,2025-08-15_21h49.34.313,empathy_intonation_perc,2024.2.4,Win32,59.88023952,63e548215b42b3f3aa069dc2,689ed6d1281858f68c932c05,689fe388da58f5c6e8da757c,,,,,,,,,,,,,,1,,,,,,,,,,,,,,,,,,,,,,,,,,,,,,,,,,,,,,,,,,,,,,,,,,,,,,,,,15,regar,,,,,2547.2255,2549.8248,1,1,2.0539,,0,82,82,14,1,REAL,FAKE,,,,,,,,,,,,,,,,,
,,,,,,,,,63e548215b42b3f3aa069dc2,Spanish,13 or older,"no, only English or Spanish",no,2025-08-15_21h49.34.313,empathy_intonation_perc,2024.2.4,Win32,59.88023952,63e548215b42b3f3aa069dc2,689ed6d1281858f68c932c05,689fe388da58f5c6e8da757c,,,,,,,,,,,,,,1,,,,,,,,,,,,,,,,,,,,,,,,,,,,,,,,,,,,,,,,,,,,,,,,,,,,,,,,,26,secuestro,,,,,2549.8253,2551.5582,1,1,1.1879,,0,83,83,25,1,REAL,FAKE,,,,,,,,,,,,,,,,,
,,,,,,,,,63e548215b42b3f3aa069dc2,Spanish,13 or older,"no, only English or Spanish",no,2025-08-15_21h49.34.313,empathy_intonation_perc,2024.2.4,Win32,59.88023952,63e548215b42b3f3aa069dc2,689ed6d1281858f68c932c05,689fe388da58f5c6e8da757c,,,,,,,,,,,,,,0,,,,,,,,,,,,,,,,,,,,,,,,,,,,,,,,,,,,,,,,,,,,,,,,,,,,,,,,,10,antar,,,,,2551.5587,2553.1915,1,0,1.0838,,0,84,84,9,1,REAL,FAKE,,,,,,,,,,,,,,,,,
,,,,,,,,,63e548215b42b3f3aa069dc2,Spanish,13 or older,"no, only English or Spanish",no,2025-08-15_21h49.34.313,empathy_intonation_perc,2024.2.4,Win32,59.88023952,63e548215b42b3f3aa069dc2,689ed6d1281858f68c932c05,689fe388da58f5c6e8da757c,,,,,,,,,,,,,,1,,,,,,,,,,,,,,,,,,,,,,,,,,,,,,,,,,,,,,,,,,,,,,,,,,,,,,,,,48,ladrón,,,,,2553.192,2554.6249,1,1,0.8963,,0,85,85,47,1,REAL,FAKE,,,,,,,,,,,,,,,,,
,,,,,,,,,63e548215b42b3f3aa069dc2,Spanish,13 or older,"no, only English or Spanish",no,2025-08-15_21h49.34.313,empathy_intonation_perc,2024.2.4,Win32,59.88023952,63e548215b42b3f3aa069dc2,689ed6d1281858f68c932c05,689fe388da58f5c6e8da757c,,,,,,,,,,,,,,1,,,,,,,,,,,,,,,,,,,,,,,,,,,,,,,,,,,,,,,,,,,,,,,,,,,,,,,,,60,matar,,,,,2554.6254,2556.6582,1,1,1.5116,,0,86,86,59,1,REAL,FAKE,,,,,,,,,,,,,,,,,
,,,,,,,,,63e548215b42b3f3aa069dc2,Spanish,13 or older,"no, only English or Spanish",no,2025-08-15_21h49.34.313,empathy_intonation_perc,2024.2.4,Win32,59.88023952,63e548215b42b3f3aa069dc2,689ed6d1281858f68c932c05,689fe388da58f5c6e8da757c,,,,,,,,,,,,,,1,,,,,,,,,,,,,,,,,,,,,,,,,,,,,,,,,,,,,,,,,,,,,,,,,,,,,,,,,86,barato,,,,,2556.6588,2558.1915,1,1,0.9897,,0,87,87,85,1,REAL,FAKE,,,,,,,,,,,,,,,,,
,,,,,,,,,63e548215b42b3f3aa069dc2,Spanish,13 or older,"no, only English or Spanish",no,2025-08-15_21h49.34.313,empathy_intonation_perc,2024.2.4,Win32,59.88023952,63e548215b42b3f3aa069dc2,689ed6d1281858f68c932c05,689fe388da58f5c6e8da757c,,,,,,,,,,,,,,1,,,,,,,,,,,,,,,,,,,,,,,,,,,,,,,,,,,,,,,,,,,,,,,,,,,,,,,,,91,click the 1 key.,,,,,2558.1922,2560.292,1,1,1.5836,,0,88,88,90,1,REAL,FAKE,,,,,,,,,,,,,,,,,
,,,,,,,,,63e548215b42b3f3aa069dc2,Spanish,13 or older,"no, only English or Spanish",no,2025-08-15_21h49.34.313,empathy_intonation_perc,2024.2.4,Win32,59.88023952,63e548215b42b3f3aa069dc2,689ed6d1281858f68c932c05,689fe388da58f5c6e8da757c,,,,,,,,,,,,,,1,,,,,,,,,,,,,,,,,,,,,,,,,,,,,,,,,,,,,,,,,,,,,,,,,,,,,,,,,7,pésimo,,,,,2560.2925,2561.9415,0,0,1.1134,,0,89,89,6,1,REAL,FAKE,,,,,,,,,,,,,,,,,
,,,,,,,,,63e548215b42b3f3aa069dc2,Spanish,13 or older,"no, only English or Spanish",no,2025-08-15_21h49.34.313,empathy_intonation_perc,2024.2.4,Win32,59.88023952,63e548215b42b3f3aa069dc2,689ed6d1281858f68c932c05,689fe388da58f5c6e8da757c,,,,,,,,,,,,,,0,,,,,,,,,,,,,,,,,,,,,,,,,,,,,,,,,,,,,,,,,,,,,,,,,,,,,,,,,32,fatacidad,,,,,2561.942,2563.5081,0,1,1.0235,,0,90,90,31,1,REAL,FAKE,,,,,,,,,,,,,,,,,
,,,,,,,,,63e548215b42b3f3aa069dc2,Spanish,13 or older,"no, only English or Spanish",no,2025-08-15_21h49.34.313,empathy_intonation_perc,2024.2.4,Win32,59.88023952,63e548215b42b3f3aa069dc2,689ed6d1281858f68c932c05,689fe388da58f5c6e8da757c,,,,,,,,,,,,,,1,,,,,,,,,,,,,,,,,,,,,,,,,,,,,,,,,,,,,,,,,,,,,,,,,,,,,,,,,49,ganar,,,,,2563.5086,2564.7915,1,1,0.7349,,0,91,91,48,1,REAL,FAKE,,,,,,,,,,,,,,,,,
,,,,,,,,,63e548215b42b3f3aa069dc2,Spanish,13 or older,"no, only English or Spanish",no,2025-08-15_21h49.34.313,empathy_intonation_perc,2024.2.4,Win32,59.88023952,63e548215b42b3f3aa069dc2,689ed6d1281858f68c932c05,689fe388da58f5c6e8da757c,,,,,,,,,,,,,,,,,,,,,,,,,,,,,,,,,,,,,,,,,,,,,,,,,,,,,,,,,,,,,,,,,,,,,,,,,,,,,,,,,,,,,,,,,,2564.7918,2573.7583,,,,,,,,,,,,,,,
,,,,,,,,,63e548215b42b3f3aa069dc2,Spanish,13 or older,"no, only English or Spanish",no,2025-08-15_21h49.34.313,empathy_intonation_perc,2024.2.4,Win32,59.88023952,63e548215b42b3f3aa069dc2,689ed6d1281858f68c932c05,689fe388da58f5c6e8da757c,,,,,,,,,,,,,1,,,,,,,,,,,,,,,,,,,,,,,,,,,,,,,,,,,,,,,,,,,,,,,,,,,,,,,,,,,,,,,,,,,,,,,,,,,,,,,2573.7634,2578.0083,slightly agree,0,0,0,0,1,I can easily tell if someone else wants to enter a conversation.,1,0,1,0,,
,,,,,,,,,63e548215b42b3f3aa069dc2,Spanish,13 or older,"no, only English or Spanish",no,2025-08-15_21h49.34.313,empathy_intonation_perc,2024.2.4,Win32,59.88023952,63e548215b42b3f3aa069dc2,689ed6d1281858f68c932c05,689fe388da58f5c6e8da757c,,,,,,,,,,,,,2,,,,,,,,,,,,,,,,,,,,,,,,,,,,,,,,,,,,,,,,,,,,,,,,,,,,,,,,,,,,,,,,,,,,,,,,,,,,,,,2578.0093,2580.8581,slightly agree,0,1,1,1,1,I prefer animals to humans.,0,1,0,0,,
,,,,,,,,,63e548215b42b3f3aa069dc2,Spanish,13 or older,"no, only English or Spanish",no,2025-08-15_21h49.34.313,empathy_intonation_perc,2024.2.4,Win32,59.88023952,63e548215b42b3f3aa069dc2,689ed6d1281858f68c932c05,689fe388da58f5c6e8da757c,,,,,,,,,,,,,3,,,,,,,,,,,,,,,,,,,,,,,,,,,,,,,,,,,,,,,,,,,,,,,,,,,,,,,,,,,,,,,,,,,,,,,,,,,,,,,2580.859,2583.7582,slightly disagree,0,2,2,2,1,I try to keep up with the current trends and fashions.,0,1,0,0,,
,,,,,,,,,63e548215b42b3f3aa069dc2,Spanish,13 or older,"no, only English or Spanish",no,2025-08-15_21h49.34.313,empathy_intonation_perc,2024.2.4,Win32,59.88023952,63e548215b42b3f3aa069dc2,689ed6d1281858f68c932c05,689fe388da58f5c6e8da757c,,,,,,,,,,,,,4,,,,,,,,,,,,,,,,,,,,,,,,,,,,,,,,,,,,,,,,,,,,,,,,,,,,,,,,,,,,,,,,,,,,,,,,,,,,,,,2583.7593,2589.4414,slightly agree,0,3,3,3,1,"I find it difficult to explain to others things that I understand easily,   when they don't understand it first time.",1,0,0,1,,
,,,,,,,,,63e548215b42b3f3aa069dc2,Spanish,13 or older,"no, only English or Spanish",no,2025-08-15_21h49.34.313,empathy_intonation_perc,2024.2.4,Win32,59.88023952,63e548215b42b3f3aa069dc2,689ed6d1281858f68c932c05,689fe388da58f5c6e8da757c,,,,,,,,,,,,,5,,,,,,,,,,,,,,,,,,,,,,,,,,,,,,,,,,,,,,,,,,,,,,,,,,,,,,,,,,,,,,,,,,,,,,,,,,,,,,,2589.4421,2591.3414,slightly agree,0,4,4,4,1,I dream most nights.,0,1,0,0,,
,,,,,,,,,63e548215b42b3f3aa069dc2,Spanish,13 or older,"no, only English or Spanish",no,2025-08-15_21h49.34.313,empathy_intonation_perc,2024.2.4,Win32,59.88023952,63e548215b42b3f3aa069dc2,689ed6d1281858f68c932c05,689fe388da58f5c6e8da757c,,,,,,,,,,,,,6,,,,,,,,,,,,,,,,,,,,,,,,,,,,,,,,,,,,,,,,,,,,,,,,,,,,,,,,,,,,,,,,,,,,,,,,,,,,,,,2591.3423,2593.825,slightly agree,0,5,5,5,1,I really enjoy caring for other people.,1,0,1,0,,
,,,,,,,,,63e548215b42b3f3aa069dc2,Spanish,13 or older,"no, only English or Spanish",no,2025-08-15_21h49.34.313,empathy_intonation_perc,2024.2.4,Win32,59.88023952,63e548215b42b3f3aa069dc2,689ed6d1281858f68c932c05,689fe388da58f5c6e8da757c,,,,,,,,,,,,,7,,,,,,,,,,,,,,,,,,,,,,,,,,,,,,,,,,,,,,,,,,,,,,,,,,,,,,,,,,,,,,,,,,,,,,,,,,,,,,,2593.8258,2597.8748,strongly agree,0,6,6,6,1,I try to solve my own problems rather than discussing them with others.,0,1,0,0,,
,,,,,,,,,63e548215b42b3f3aa069dc2,Spanish,13 or older,"no, only English or Spanish",no,2025-08-15_21h49.34.313,empathy_intonation_perc,2024.2.4,Win32,59.88023952,63e548215b42b3f3aa069dc2,689ed6d1281858f68c932c05,689fe388da58f5c6e8da757c,,,,,,,,,,,,,8,,,,,,,,,,,,,,,,,,,,,,,,,,,,,,,,,,,,,,,,,,,,,,,,,,,,,,,,,,,,,,,,,,,,,,,,,,,,,,,2597.8757,2601.5748,slightly disagree,0,7,7,7,1,I find it hard to know what to do in a social situation.,1,0,0,1,,
,,,,,,,,,63e548215b42b3f3aa069dc2,Spanish,13 or older,"no, only English or Spanish",no,2025-08-15_21h49.34.313,empathy_intonation_perc,2024.2.4,Win32,59.88023952,63e548215b42b3f3aa069dc2,689ed6d1281858f68c932c05,689fe388da58f5c6e8da757c,,,,,,,,,,,,,9,,,,,,,,,,,,,,,,,,,,,,,,,,,,,,,,,,,,,,,,,,,,,,,,,,,,,,,,,,,,,,,,,,,,,,,,,,,,,,,2601.5756,2604.8248,slightly agree,0,8,8,8,1,I am at my best first thing in the morning.,0,1,0,0,,
