instructions_exposure.started,instructions_exposure.stopped,instructions_exposure_loop.thisRepN,instructions_exposure_loop.thisTrialN,instructions_exposure_loop.thisN,instructions_exposure_loop.thisIndex,instructions_exposure_loop.ran,instructions_text,continue_text,participant_id,"What variety of Spanish are you most familiar with? (e.g., Peruvian, Spanish, Mexican)",At what age did you begin learning Spanish?,Are you proficient in any languages other than English/Spanish?,"Are you familiar with Caribbean (e.g., Caribbean, Puerto Rican) or Galician Spanish?",date,expName,psychopyVersion,OS,frameRate,id,study_id,session,trial_exposure.started,trial_exposure.stopped,key_resp_exposure.keys,key_resp_exposure.corr,key_resp_exposure.rt,key_resp_exposure.duration,key_resp.keys,exposure_loop.thisRepN,exposure_loop.thisTrialN,exposure_loop.thisN,exposure_loop.thisIndex,exposure_loop.ran,item_num,correct_response,question,path,duration,instructions_2afc.started,instructions_2afc.stopped,instructions_2afc_loop.thisRepN,instructions_2afc_loop.thisTrialN,instructions_2afc_loop.thisN,instructions_2afc_loop.thisIndex,instructions_2afc_loop.ran,practice_2afc.started,practice_2afc.stopped,key_resp_2afc_practice.keys,key_resp_2afc_practice.corr,key_resp_2afc_practice.rt,key_resp_2afc_practice.duration,trials_2afc_practice_loop.thisRepN,trials_2afc_practice_loop.thisTrialN,trials_2afc_practice_loop.thisN,trials_2afc_practice_loop.thisIndex,trials_2afc_practice_loop.ran,check_2afc.started,check_2afc.stopped,trial_2afc.started,trial_2afc.stopped,key_resp_2afc_trial.keys,key_resp_2afc_trial.corr,key_resp_2afc_trial.rt,key_resp_2afc_trial.duration,trials_2afc_loop.thisRepN,trials_2afc_loop.thisTrialN,trials_2afc_loop.thisN,trials_2afc_loop.thisIndex,trials_2afc_loop.ran,target,variety,instructions_lextale.started,instructions_lextale.stopped,instructions_lextale_loop.thisRepN,instructions_lextale_loop.thisTrialN,instructions_lextale_loop.thisN,instructions_lextale_loop.thisIndex,instructions_lextale_loop.ran,practice_lextale.started,practice_lextale.stopped,key_resp_lextale_practice.keys,key_resp_lextale_practice.corr,key_resp_lextale_practice.rt,key_resp_lextale_practice.duration,practice_feedback_lextale.started,practice_feedback_lextale.stopped,trials_lextale_practice_loop.thisRepN,trials_lextale_practice_loop.thisTrialN,trials_lextale_practice_loop.thisN,trials_lextale_practice_loop.thisIndex,trials_lextale_practice_loop.ran,stim,word,prac_button_real,prac_button_false,check_lextale.started,check_lextale.stopped,trial_lextale.started,trial_lextale.stopped,key_resp_lextale_trial.keys,key_resp_lextale_trial.corr,key_resp_lextale_trial.rt,key_resp_lextale_trial.duration,trials_lextale_loop.thisRepN,trials_lextale_loop.thisTrialN,trials_lextale_loop.thisN,trials_lextale_loop.thisIndex,trials_lextale_loop.ran,button_real,button_false,instructions_eq.started,instructions_eq.stopped,trial_eq.started,trial_eq.stopped,slider_eq_trial.response,trials_eq_loop.thisRepN,trials_eq_loop.thisTrialN,trials_eq_loop.thisN,trials_eq_loop.thisIndex,trials_eq_loop.ran,item,is_test_item,is_distractor,is_agree_score,is_disagree_score,end_exp.started,end_exp.stopped
0.009,2.02,0,0,0,0,1,"In the following task, you are going to hear a series of conversations.", (press the space bar to continue),63e54336ed7afb1425f7888f,Spanish,13 or older,"no, only English or Spanish",no,2025-07-22_23h31.14.752,empathy_intonation_perc,2024.2.4,Win32,60.0240096,63e54336ed7afb1425f7888f,687ed1b7e638a4cbf2f02089,6880575fc555eae6537a4a8d,,,,,,,,,,,,,,,,,,,,,,,,,,,,,,,,,,,,,,,,,,,,,,,,,,,,,,,,,,,,,,,,,,,,,,,,,,,,,,,,,,,,,,,,,,,,,,,,,,,,,,,,,,
2.02,3.087,0,1,1,1,1,It is okay if you don't not 100% understand them!, (press the space bar to continue),63e54336ed7afb1425f7888f,Spanish,13 or older,"no, only English or Spanish",no,2025-07-22_23h31.14.752,empathy_intonation_perc,2024.2.4,Win32,60.0240096,63e54336ed7afb1425f7888f,687ed1b7e638a4cbf2f02089,6880575fc555eae6537a4a8d,,,,,,,,,,,,,,,,,,,,,,,,,,,,,,,,,,,,,,,,,,,,,,,,,,,,,,,,,,,,,,,,,,,,,,,,,,,,,,,,,,,,,,,,,,,,,,,,,,,,,,,,,,
3.089,4.402,0,2,2,2,1,"After, you will read a sentence about the conversation and decide if it's true or false.", (press the space bar to continue),63e54336ed7afb1425f7888f,Spanish,13 or older,"no, only English or Spanish",no,2025-07-22_23h31.14.752,empathy_intonation_perc,2024.2.4,Win32,60.0240096,63e54336ed7afb1425f7888f,687ed1b7e638a4cbf2f02089,6880575fc555eae6537a4a8d,,,,,,,,,,,,,,,,,,,,,,,,,,,,,,,,,,,,,,,,,,,,,,,,,,,,,,,,,,,,,,,,,,,,,,,,,,,,,,,,,,,,,,,,,,,,,,,,,,,,,,,,,,
4.403,6.107,0,3,3,3,1,"If it's true, press '1' (True) and if it's false press '0' (False).", (press the space bar to continue),63e54336ed7afb1425f7888f,Spanish,13 or older,"no, only English or Spanish",no,2025-07-22_23h31.14.752,empathy_intonation_perc,2024.2.4,Win32,60.0240096,63e54336ed7afb1425f7888f,687ed1b7e638a4cbf2f02089,6880575fc555eae6537a4a8d,,,,,,,,,,,,,,,,,,,,,,,,,,,,,,,,,,,,,,,,,,,,,,,,,,,,,,,,,,,,,,,,,,,,,,,,,,,,,,,,,,,,,,,,,,,,,,,,,,,,,,,,,,
,,,,,,,,,63e54336ed7afb1425f7888f,Spanish,13 or older,"no, only English or Spanish",no,2025-07-22_23h31.14.752,empathy_intonation_perc,2024.2.4,Win32,60.0240096,63e54336ed7afb1425f7888f,687ed1b7e638a4cbf2f02089,6880575fc555eae6537a4a8d,6.111,57.959,1,1,4.805,,,0,0,0,0,1,1,1,The son asked the mom if Aunt Marina is okay.,./stim/exposure_wavs/ga_stimuli_convo.wav,47,,,,,,,,,,,,,,,,,,,,,,,,,,,,,,,,,,,,,,,,,,,,,,,,,,,,,,,,,,,,,,,,,,,,,,,,,,,,,,,,,,,,,,,,,
,,,,,,,,,63e54336ed7afb1425f7888f,Spanish,13 or older,"no, only English or Spanish",no,2025-07-22_23h31.14.752,empathy_intonation_perc,2024.2.4,Win32,60.0240096,63e54336ed7afb1425f7888f,687ed1b7e638a4cbf2f02089,6880575fc555eae6537a4a8d,57.96,97.225,0,1,3.216,,,0,1,1,2,1,3,0,The mom already has rice.,./stim/exposure_wavs/pr_stimuli_convo.wav,36,,,,,,,,,,,,,,,,,,,,,,,,,,,,,,,,,,,,,,,,,,,,,,,,,,,,,,,,,,,,,,,,,,,,,,,,,,,,,,,,,,,,,,,,,
,,,,,,,,,63e54336ed7afb1425f7888f,Spanish,13 or older,"no, only English or Spanish",no,2025-07-22_23h31.14.752,empathy_intonation_perc,2024.2.4,Win32,60.0240096,63e54336ed7afb1425f7888f,687ed1b7e638a4cbf2f02089,6880575fc555eae6537a4a8d,97.226,160.645,1,1,3.39,,,0,2,2,1,1,2,1,The mom asked the daughter if she already went to the supermarket.,./stim/exposure_wavs/dr_stimuli_convo.wav,60,,,,,,,,,,,,,,,,,,,,,,,,,,,,,,,,,,,,,,,,,,,,,,,,,,,,,,,,,,,,,,,,,,,,,,,,,,,,,,,,,,,,,,,,,
,,,,,,,"In the following task you are going to hear a series of utterances. 

  You will decide if the utterances sound like questions or not using your keyboard.", (press the spacebar to continue),63e54336ed7afb1425f7888f,Spanish,13 or older,"no, only English or Spanish",no,2025-07-22_23h31.14.752,empathy_intonation_perc,2024.2.4,Win32,60.0240096,63e54336ed7afb1425f7888f,687ed1b7e638a4cbf2f02089,6880575fc555eae6537a4a8d,,,,,,,,,,,,,,,,,,160.651,163.428,0,0,0,0,1,,,,,,,,,,,,,,,,,,,,,,,,,,,,,,,,,,,,,,,,,,,,,,,,,,,,,,,,,,,,,,,,,,,,,,,,,,,,,,,,,,
,,,,,,,"If you believe the utterance is a question, type '1' (for 'yes') and if you do not 
  believe it is a question type '0' (for 'no').

  Let's practice a bit...", (press the spacebar to continue),63e54336ed7afb1425f7888f,Spanish,13 or older,"no, only English or Spanish",no,2025-07-22_23h31.14.752,empathy_intonation_perc,2024.2.4,Win32,60.0240096,63e54336ed7afb1425f7888f,687ed1b7e638a4cbf2f02089,6880575fc555eae6537a4a8d,,,,,,,,,,,,,,,,,,163.43,164.826,0,1,1,1,1,,,,,,,,,,,,,,,,,,,,,,,,,,,,,,,,,,,,,,,,,,,,,,,,,,,,,,,,,,,,,,,,,,,,,,,,,,,,,,,,,,
,,,,,,,,,63e54336ed7afb1425f7888f,Spanish,13 or older,"no, only English or Spanish",no,2025-07-22_23h31.14.752,empathy_intonation_perc,2024.2.4,Win32,60.0240096,63e54336ed7afb1425f7888f,687ed1b7e638a4cbf2f02089,6880575fc555eae6537a4a8d,,,,,,,,,,,,,,1,,./stim/wavs/mexican_question_filler_Felipe-no-tiene-contrasena.wav,,,,,,,,,164.831,167.645,1,1,2.286,,0,0,0,3,1,,,,,,,,,,,,,,,,,,,,,,,,,,,,,,,,,,,,,,,,,,,,,,,,,,,,,,,,,,,,,,,,,,,,,,,
,,,,,,,,,63e54336ed7afb1425f7888f,Spanish,13 or older,"no, only English or Spanish",no,2025-07-22_23h31.14.752,empathy_intonation_perc,2024.2.4,Win32,60.0240096,63e54336ed7afb1425f7888f,687ed1b7e638a4cbf2f02089,6880575fc555eae6537a4a8d,,,,,,,,,,,,,,0,,./stim/wavs/cuban_statement_filler_Cocinabas-por-la-noche.wav,,,,,,,,,167.645,170.095,0,1,1.921,,0,1,1,4,1,,,,,,,,,,,,,,,,,,,,,,,,,,,,,,,,,,,,,,,,,,,,,,,,,,,,,,,,,,,,,,,,,,,,,,,
,,,,,,,,,63e54336ed7afb1425f7888f,Spanish,13 or older,"no, only English or Spanish",no,2025-07-22_23h31.14.752,empathy_intonation_perc,2024.2.4,Win32,60.0240096,63e54336ed7afb1425f7888f,687ed1b7e638a4cbf2f02089,6880575fc555eae6537a4a8d,,,,,,,,,,,,,,0,,./stim/wavs/peruvian_statement_filler_El-nino-habla-con-su-madre.wav,,,,,,,,,170.096,173.095,0,1,2.484,,0,2,2,6,1,,,,,,,,,,,,,,,,,,,,,,,,,,,,,,,,,,,,,,,,,,,,,,,,,,,,,,,,,,,,,,,,,,,,,,,
,,,,,,,,,63e54336ed7afb1425f7888f,Spanish,13 or older,"no, only English or Spanish",no,2025-07-22_23h31.14.752,empathy_intonation_perc,2024.2.4,Win32,60.0240096,63e54336ed7afb1425f7888f,687ed1b7e638a4cbf2f02089,6880575fc555eae6537a4a8d,,,,,,,,,,,,,,1,,./stim/wavs/argentine_question_filler_Mi-vecino-habla-mucho.wav,,,,,,,,,173.096,174.995,1,1,1.372,,0,3,3,1,1,,,,,,,,,,,,,,,,,,,,,,,,,,,,,,,,,,,,,,,,,,,,,,,,,,,,,,,,,,,,,,,,,,,,,,,
,,,,,,,,,63e54336ed7afb1425f7888f,Spanish,13 or older,"no, only English or Spanish",no,2025-07-22_23h31.14.752,empathy_intonation_perc,2024.2.4,Win32,60.0240096,63e54336ed7afb1425f7888f,687ed1b7e638a4cbf2f02089,6880575fc555eae6537a4a8d,,,,,,,,,,,,,,1,,./stim/wavs/castilian_question_filler_Mi-esposo-conoce-al-chico.wav,,,,,,,,,174.996,178.526,1,1,3.026,,0,4,4,0,1,,,,,,,,,,,,,,,,,,,,,,,,,,,,,,,,,,,,,,,,,,,,,,,,,,,,,,,,,,,,,,,,,,,,,,,
,,,,,,,,,63e54336ed7afb1425f7888f,Spanish,13 or older,"no, only English or Spanish",no,2025-07-22_23h31.14.752,empathy_intonation_perc,2024.2.4,Win32,60.0240096,63e54336ed7afb1425f7888f,687ed1b7e638a4cbf2f02089,6880575fc555eae6537a4a8d,,,,,,,,,,,,,,1,,./stim/wavs/chilean_question_filler_Mi-padre-cantaba-bien.wav,,,,,,,,,178.526,181.024,1,1,1.974,,0,5,5,2,1,,,,,,,,,,,,,,,,,,,,,,,,,,,,,,,,,,,,,,,,,,,,,,,,,,,,,,,,,,,,,,,,,,,,,,,
,,,,,,,,,63e54336ed7afb1425f7888f,Spanish,13 or older,"no, only English or Spanish",no,2025-07-22_23h31.14.752,empathy_intonation_perc,2024.2.4,Win32,60.0240096,63e54336ed7afb1425f7888f,687ed1b7e638a4cbf2f02089,6880575fc555eae6537a4a8d,,,,,,,,,,,,,,0,,./stim/wavs/puertorican_statement_filler_La-nina-pinta-con-su-amiga.wav,,,,,,,,,181.025,183.525,0,1,1.985,,0,6,6,7,1,,,,,,,,,,,,,,,,,,,,,,,,,,,,,,,,,,,,,,,,,,,,,,,,,,,,,,,,,,,,,,,,,,,,,,,
,,,,,,,,,63e54336ed7afb1425f7888f,Spanish,13 or older,"no, only English or Spanish",no,2025-07-22_23h31.14.752,empathy_intonation_perc,2024.2.4,Win32,60.0240096,63e54336ed7afb1425f7888f,687ed1b7e638a4cbf2f02089,6880575fc555eae6537a4a8d,,,,,,,,,,,,,,0,,./stim/wavs/andalusian_statement_filler_Alberto-nunca-se-afeita.wav,,,,,,,,,183.525,185.908,0,1,1.853,,0,7,7,5,1,,,,,,,,,,,,,,,,,,,,,,,,,,,,,,,,,,,,,,,,,,,,,,,,,,,,,,,,,,,,,,,,,,,,,,,
,,,,,,,,,63e54336ed7afb1425f7888f,Spanish,13 or older,"no, only English or Spanish",no,2025-07-22_23h31.14.752,empathy_intonation_perc,2024.2.4,Win32,60.0240096,63e54336ed7afb1425f7888f,687ed1b7e638a4cbf2f02089,6880575fc555eae6537a4a8d,,,,,,,,,,,,,,,,,,,,,,,,,,,,,,,,,,,,185.908,187.809,,,,,,,,,,,,,,,,,,,,,,,,,,,,,,,,,,,,,,,,,,,,,,,,,,,,,,,,,,,,,,,,,,,,,
,,,,,,,,,63e54336ed7afb1425f7888f,Spanish,13 or older,"no, only English or Spanish",no,2025-07-22_23h31.14.752,empathy_intonation_perc,2024.2.4,Win32,60.0240096,63e54336ed7afb1425f7888f,687ed1b7e638a4cbf2f02089,6880575fc555eae6537a4a8d,,,,,,,,,,,,,68,0,,./stim/wavs/puertorican_match_declarative-broad-focus_Maria-bebe-el-vino.wav,,,,,,,,,,,,,,,,,,,,,,187.814,189.925,0,1,1.589,,0,0,0,67,1,0,puertorican,,,,,,,,,,,,,,,,,,,,,,,,,,,,,,,,,,,,,,,,,,,,,,,,,,,,,,,,
,,,,,,,,,63e54336ed7afb1425f7888f,Spanish,13 or older,"no, only English or Spanish",no,2025-07-22_23h31.14.752,empathy_intonation_perc,2024.2.4,Win32,60.0240096,63e54336ed7afb1425f7888f,687ed1b7e638a4cbf2f02089,6880575fc555eae6537a4a8d,,,,,,,,,,,,,60,0,,./stim/wavs/mexican_match_declarative-broad-focus_Emilio-ama-la-marcha.wav,,,,,,,,,,,,,,,,,,,,,,189.925,192.077,0,1,1.635,,0,1,1,59,1,0,mexican,,,,,,,,,,,,,,,,,,,,,,,,,,,,,,,,,,,,,,,,,,,,,,,,,,,,,,,,
,,,,,,,,,63e54336ed7afb1425f7888f,Spanish,13 or older,"no, only English or Spanish",no,2025-07-22_23h31.14.752,empathy_intonation_perc,2024.2.4,Win32,60.0240096,63e54336ed7afb1425f7888f,687ed1b7e638a4cbf2f02089,6880575fc555eae6537a4a8d,,,,,,,,,,,,,79,0,,./stim/wavs/mexican_mismatch_declarative-broad-focus_El-bebe-comia-muy-bien.wav,,,,,,,,,,,,,,,,,,,,,,192.078,194.143,0,1,1.545,,0,2,2,78,1,0,mexican,,,,,,,,,,,,,,,,,,,,,,,,,,,,,,,,,,,,,,,,,,,,,,,,,,,,,,,,
,,,,,,,,,63e54336ed7afb1425f7888f,Spanish,13 or older,"no, only English or Spanish",no,2025-07-22_23h31.14.752,empathy_intonation_perc,2024.2.4,Win32,60.0240096,63e54336ed7afb1425f7888f,687ed1b7e638a4cbf2f02089,6880575fc555eae6537a4a8d,,,,,,,,,,,,,62,0,,./stim/wavs/mexican_match_declarative-broad-focus_Marta-abre-el-regalo.wav,,,,,,,,,,,,,,,,,,,,,,194.145,196.194,0,1,1.517,,0,3,3,61,1,0,mexican,,,,,,,,,,,,,,,,,,,,,,,,,,,,,,,,,,,,,,,,,,,,,,,,,,,,,,,,
,,,,,,,,,63e54336ed7afb1425f7888f,Spanish,13 or older,"no, only English or Spanish",no,2025-07-22_23h31.14.752,empathy_intonation_perc,2024.2.4,Win32,60.0240096,63e54336ed7afb1425f7888f,687ed1b7e638a4cbf2f02089,6880575fc555eae6537a4a8d,,,,,,,,,,,,,56,0,,./stim/wavs/cuban_match_declarative-broad-focus_Marta-abre-el-regalo.wav,,,,,,,,,,,,,,,,,,,,,,196.194,198.26,0,1,1.562,,0,4,4,55,1,0,cuban,,,,,,,,,,,,,,,,,,,,,,,,,,,,,,,,,,,,,,,,,,,,,,,,,,,,,,,,
,,,,,,,,,63e54336ed7afb1425f7888f,Spanish,13 or older,"no, only English or Spanish",no,2025-07-22_23h31.14.752,empathy_intonation_perc,2024.2.4,Win32,60.0240096,63e54336ed7afb1425f7888f,687ed1b7e638a4cbf2f02089,6880575fc555eae6537a4a8d,,,,,,,,,,,,,7,1,,./stim/wavs/cuban_match_interrogative-total-yn_Ana-lleva-el-abrigo.wav,,,,,,,,,,,,,,,,,,,,,,198.26,200.293,0,0,1.525,,0,5,5,6,1,1,cuban,,,,,,,,,,,,,,,,,,,,,,,,,,,,,,,,,,,,,,,,,,,,,,,,,,,,,,,,
,,,,,,,,,63e54336ed7afb1425f7888f,Spanish,13 or older,"no, only English or Spanish",no,2025-07-22_23h31.14.752,empathy_intonation_perc,2024.2.4,Win32,60.0240096,63e54336ed7afb1425f7888f,687ed1b7e638a4cbf2f02089,6880575fc555eae6537a4a8d,,,,,,,,,,,,,51,0,,./stim/wavs/cuban_match_declarative-broad-focus_Ana-lleva-el-abrigo.wav,,,,,,,,,,,,,,,,,,,,,,200.294,202.343,0,1,1.52,,0,6,6,50,1,0,cuban,,,,,,,,,,,,,,,,,,,,,,,,,,,,,,,,,,,,,,,,,,,,,,,,,,,,,,,,
,,,,,,,,,63e54336ed7afb1425f7888f,Spanish,13 or older,"no, only English or Spanish",no,2025-07-22_23h31.14.752,empathy_intonation_perc,2024.2.4,Win32,60.0240096,63e54336ed7afb1425f7888f,687ed1b7e638a4cbf2f02089,6880575fc555eae6537a4a8d,,,,,,,,,,,,,46,0,,./stim/wavs/castilian_match_declarative-broad-focus_Emilio-ama-la-marcha.wav,,,,,,,,,,,,,,,,,,,,,,202.343,204.777,0,1,1.92,,0,7,7,45,1,0,castilian,,,,,,,,,,,,,,,,,,,,,,,,,,,,,,,,,,,,,,,,,,,,,,,,,,,,,,,,
,,,,,,,,,63e54336ed7afb1425f7888f,Spanish,13 or older,"no, only English or Spanish",no,2025-07-22_23h31.14.752,empathy_intonation_perc,2024.2.4,Win32,60.0240096,63e54336ed7afb1425f7888f,687ed1b7e638a4cbf2f02089,6880575fc555eae6537a4a8d,,,,,,,,,,,,,24,1,,./stim/wavs/puertorican_match_interrogative-total-yn_Maria-bebe-el-vino.wav,,,,,,,,,,,,,,,,,,,,,,204.778,206.994,0,0,1.688,,0,8,8,23,1,1,puertorican,,,,,,,,,,,,,,,,,,,,,,,,,,,,,,,,,,,,,,,,,,,,,,,,,,,,,,,,
,,,,,,,,,63e54336ed7afb1425f7888f,Spanish,13 or older,"no, only English or Spanish",no,2025-07-22_23h31.14.752,empathy_intonation_perc,2024.2.4,Win32,60.0240096,63e54336ed7afb1425f7888f,687ed1b7e638a4cbf2f02089,6880575fc555eae6537a4a8d,,,,,,,,,,,,,86,0,,./stim/wavs/puertorican_mismatch_declarative-broad-focus_El-nino-oye-el-rio.wav,,,,,,,,,,,,,,,,,,,,,,206.994,209.244,1,0,1.717,,0,9,9,85,1,0,puertorican,,,,,,,,,,,,,,,,,,,,,,,,,,,,,,,,,,,,,,,,,,,,,,,,,,,,,,,,
,,,,,,,,,63e54336ed7afb1425f7888f,Spanish,13 or older,"no, only English or Spanish",no,2025-07-22_23h31.14.752,empathy_intonation_perc,2024.2.4,Win32,60.0240096,63e54336ed7afb1425f7888f,687ed1b7e638a4cbf2f02089,6880575fc555eae6537a4a8d,,,,,,,,,,,,,34,1,,./stim/wavs/cuban_mismatch_interrogative-total-yn_Mi-tia-odia-la-lluvia.wav,,,,,,,,,,,,,,,,,,,,,,209.244,211.827,1,1,2.075,,0,10,10,33,1,1,cuban,,,,,,,,,,,,,,,,,,,,,,,,,,,,,,,,,,,,,,,,,,,,,,,,,,,,,,,,
,,,,,,,,,63e54336ed7afb1425f7888f,Spanish,13 or older,"no, only English or Spanish",no,2025-07-22_23h31.14.752,empathy_intonation_perc,2024.2.4,Win32,60.0240096,63e54336ed7afb1425f7888f,687ed1b7e638a4cbf2f02089,6880575fc555eae6537a4a8d,,,,,,,,,,,,,67,0,,./stim/wavs/puertorican_match_declarative-broad-focus_Manuela-vende-el-carro.wav,,,,,,,,,,,,,,,,,,,,,,211.828,213.844,0,1,1.484,,0,11,11,66,1,0,puertorican,,,,,,,,,,,,,,,,,,,,,,,,,,,,,,,,,,,,,,,,,,,,,,,,,,,,,,,,
,,,,,,,,,63e54336ed7afb1425f7888f,Spanish,13 or older,"no, only English or Spanish",no,2025-07-22_23h31.14.752,empathy_intonation_perc,2024.2.4,Win32,60.0240096,63e54336ed7afb1425f7888f,687ed1b7e638a4cbf2f02089,6880575fc555eae6537a4a8d,,,,,,,,,,,,,39,1,,./stim/wavs/mexican_mismatch_interrogative-total-yn_Mi-tia-odia-la-lluvia.wav,,,,,,,,,,,,,,,,,,,,,,213.844,216.011,1,1,1.66,,0,12,12,38,1,0,mexican,,,,,,,,,,,,,,,,,,,,,,,,,,,,,,,,,,,,,,,,,,,,,,,,,,,,,,,,
,,,,,,,,,63e54336ed7afb1425f7888f,Spanish,13 or older,"no, only English or Spanish",no,2025-07-22_23h31.14.752,empathy_intonation_perc,2024.2.4,Win32,60.0240096,63e54336ed7afb1425f7888f,687ed1b7e638a4cbf2f02089,6880575fc555eae6537a4a8d,,,,,,,,,,,,,71,0,,./stim/wavs/castilian_mismatch_declarative-broad-focus_La-nina-lava-el-plato.wav,,,,,,,,,,,,,,,,,,,,,,216.012,218.211,1,0,1.676,,0,13,13,70,1,0,castilian,,,,,,,,,,,,,,,,,,,,,,,,,,,,,,,,,,,,,,,,,,,,,,,,,,,,,,,,
,,,,,,,,,63e54336ed7afb1425f7888f,Spanish,13 or older,"no, only English or Spanish",no,2025-07-22_23h31.14.752,empathy_intonation_perc,2024.2.4,Win32,60.0240096,63e54336ed7afb1425f7888f,687ed1b7e638a4cbf2f02089,6880575fc555eae6537a4a8d,,,,,,,,,,,,,40,1,,./stim/wavs/puertorican_mismatch_interrogative-total-yn_El-hombre-mira-la-luna.wav,,,,,,,,,,,,,,,,,,,,,,218.211,220.461,1,1,1.726,,0,14,14,39,1,1,puertorican,,,,,,,,,,,,,,,,,,,,,,,,,,,,,,,,,,,,,,,,,,,,,,,,,,,,,,,,
,,,,,,,,,63e54336ed7afb1425f7888f,Spanish,13 or older,"no, only English or Spanish",no,2025-07-22_23h31.14.752,empathy_intonation_perc,2024.2.4,Win32,60.0240096,63e54336ed7afb1425f7888f,687ed1b7e638a4cbf2f02089,6880575fc555eae6537a4a8d,,,,,,,,,,,,,14,1,,./stim/wavs/mexican_match_interrogative-total-yn_Daniel-iba-a-Bolivia.wav,,,,,,,,,,,,,,,,,,,,,,220.461,222.562,1,1,1.576,,0,15,15,13,1,0,mexican,,,,,,,,,,,,,,,,,,,,,,,,,,,,,,,,,,,,,,,,,,,,,,,,,,,,,,,,
,,,,,,,,,63e54336ed7afb1425f7888f,Spanish,13 or older,"no, only English or Spanish",no,2025-07-22_23h31.14.752,empathy_intonation_perc,2024.2.4,Win32,60.0240096,63e54336ed7afb1425f7888f,687ed1b7e638a4cbf2f02089,6880575fc555eae6537a4a8d,,,,,,,,,,,,,3,1,,./stim/wavs/castilian_match_interrogative-total-yn_Manuela-vende-el-carro.wav,,,,,,,,,,,,,,,,,,,,,,222.563,224.713,1,1,1.644,,0,16,16,2,1,0,castilian,,,,,,,,,,,,,,,,,,,,,,,,,,,,,,,,,,,,,,,,,,,,,,,,,,,,,,,,
,,,,,,,,,63e54336ed7afb1425f7888f,Spanish,13 or older,"no, only English or Spanish",no,2025-07-22_23h31.14.752,empathy_intonation_perc,2024.2.4,Win32,60.0240096,63e54336ed7afb1425f7888f,687ed1b7e638a4cbf2f02089,6880575fc555eae6537a4a8d,,,,,,,,,,,,,11,1,,./stim/wavs/cuban_match_interrogative-total-yn_Mariano-habla-del-tiempo.wav,,,,,,,,,,,,,,,,,,,,,,224.715,226.93,0,0,1.693,,0,17,17,10,1,1,cuban,,,,,,,,,,,,,,,,,,,,,,,,,,,,,,,,,,,,,,,,,,,,,,,,,,,,,,,,
,,,,,,,,,63e54336ed7afb1425f7888f,Spanish,13 or older,"no, only English or Spanish",no,2025-07-22_23h31.14.752,empathy_intonation_perc,2024.2.4,Win32,60.0240096,63e54336ed7afb1425f7888f,687ed1b7e638a4cbf2f02089,6880575fc555eae6537a4a8d,,,,,,,,,,,,,72,0,,./stim/wavs/castilian_mismatch_declarative-broad-focus_Mi-novio-viene-del-lago.wav,,,,,,,,,,,,,,,,,,,,,,226.931,229.346,1,0,1.881,,0,18,18,71,1,0,castilian,,,,,,,,,,,,,,,,,,,,,,,,,,,,,,,,,,,,,,,,,,,,,,,,,,,,,,,,
,,,,,,,,,63e54336ed7afb1425f7888f,Spanish,13 or older,"no, only English or Spanish",no,2025-07-22_23h31.14.752,empathy_intonation_perc,2024.2.4,Win32,60.0240096,63e54336ed7afb1425f7888f,687ed1b7e638a4cbf2f02089,6880575fc555eae6537a4a8d,,,,,,,,,,,,,77,0,,./stim/wavs/cuban_mismatch_declarative-broad-focus_Mi-novio-viene-del-lago.wav,,,,,,,,,,,,,,,,,,,,,,229.346,231.63,0,1,1.771,,0,19,19,76,1,0,cuban,,,,,,,,,,,,,,,,,,,,,,,,,,,,,,,,,,,,,,,,,,,,,,,,,,,,,,,,
,,,,,,,,,63e54336ed7afb1425f7888f,Spanish,13 or older,"no, only English or Spanish",no,2025-07-22_23h31.14.752,empathy_intonation_perc,2024.2.4,Win32,60.0240096,63e54336ed7afb1425f7888f,687ed1b7e638a4cbf2f02089,6880575fc555eae6537a4a8d,,,,,,,,,,,,,5,1,,./stim/wavs/castilian_match_interrogative-total-yn_Mariano-habla-del-tiempo.wav,,,,,,,,,,,,,,,,,,,,,,231.631,233.68,1,1,1.53,,0,20,20,4,1,0,castilian,,,,,,,,,,,,,,,,,,,,,,,,,,,,,,,,,,,,,,,,,,,,,,,,,,,,,,,,
,,,,,,,,,63e54336ed7afb1425f7888f,Spanish,13 or older,"no, only English or Spanish",no,2025-07-22_23h31.14.752,empathy_intonation_perc,2024.2.4,Win32,60.0240096,63e54336ed7afb1425f7888f,687ed1b7e638a4cbf2f02089,6880575fc555eae6537a4a8d,,,,,,,,,,,,,55,0,,./stim/wavs/cuban_match_declarative-broad-focus_Mariano-habla-del-tiempo.wav,,,,,,,,,,,,,,,,,,,,,,233.68,236.096,0,1,1.9,,0,21,21,54,1,0,cuban,,,,,,,,,,,,,,,,,,,,,,,,,,,,,,,,,,,,,,,,,,,,,,,,,,,,,,,,
,,,,,,,,,63e54336ed7afb1425f7888f,Spanish,13 or older,"no, only English or Spanish",no,2025-07-22_23h31.14.752,empathy_intonation_perc,2024.2.4,Win32,60.0240096,63e54336ed7afb1425f7888f,687ed1b7e638a4cbf2f02089,6880575fc555eae6537a4a8d,,,,,,,,,,,,,80,0,,./stim/wavs/mexican_mismatch_declarative-broad-focus_El-hombre-mira-la-luna.wav,,,,,,,,,,,,,,,,,,,,,,236.097,238.513,0,1,1.884,,0,22,22,79,1,0,mexican,,,,,,,,,,,,,,,,,,,,,,,,,,,,,,,,,,,,,,,,,,,,,,,,,,,,,,,,
,,,,,,,,,63e54336ed7afb1425f7888f,Spanish,13 or older,"no, only English or Spanish",no,2025-07-22_23h31.14.752,empathy_intonation_perc,2024.2.4,Win32,60.0240096,63e54336ed7afb1425f7888f,687ed1b7e638a4cbf2f02089,6880575fc555eae6537a4a8d,,,,,,,,,,,,,87,0,,./stim/wavs/puertorican_mismatch_declarative-broad-focus_La-maestra-vive-en-Paris.wav,,,,,,,,,,,,,,,,,,,,,,238.513,240.629,0,1,1.61,,0,23,23,86,1,0,puertorican,,,,,,,,,,,,,,,,,,,,,,,,,,,,,,,,,,,,,,,,,,,,,,,,,,,,,,,,
,,,,,,,,,63e54336ed7afb1425f7888f,Spanish,13 or older,"no, only English or Spanish",no,2025-07-22_23h31.14.752,empathy_intonation_perc,2024.2.4,Win32,60.0240096,63e54336ed7afb1425f7888f,687ed1b7e638a4cbf2f02089,6880575fc555eae6537a4a8d,,,,,,,,,,,,,84,0,,./stim/wavs/puertorican_mismatch_declarative-broad-focus_El-bebe-comia-muy-bien.wav,,,,,,,,,,,,,,,,,,,,,,240.63,242.647,0,1,1.501,,0,24,24,83,1,0,puertorican,,,,,,,,,,,,,,,,,,,,,,,,,,,,,,,,,,,,,,,,,,,,,,,,,,,,,,,,
,,,,,,,,,63e54336ed7afb1425f7888f,Spanish,13 or older,"no, only English or Spanish",no,2025-07-22_23h31.14.752,empathy_intonation_perc,2024.2.4,Win32,60.0240096,63e54336ed7afb1425f7888f,687ed1b7e638a4cbf2f02089,6880575fc555eae6537a4a8d,,,,,,,,,,,,,58,0,,./stim/wavs/mexican_match_declarative-broad-focus_Daniel-iba-a-Bolivia.wav,,,,,,,,,,,,,,,,,,,,,,242.647,245.08,0,1,1.905,,0,25,25,57,1,0,mexican,,,,,,,,,,,,,,,,,,,,,,,,,,,,,,,,,,,,,,,,,,,,,,,,,,,,,,,,
,,,,,,,,,63e54336ed7afb1425f7888f,Spanish,13 or older,"no, only English or Spanish",no,2025-07-22_23h31.14.752,empathy_intonation_perc,2024.2.4,Win32,60.0240096,63e54336ed7afb1425f7888f,687ed1b7e638a4cbf2f02089,6880575fc555eae6537a4a8d,,,,,,,,,,,,,43,1,,./stim/wavs/puertorican_mismatch_interrogative-total-yn_La-nina-lava-el-plato.wav,,,,,,,,,,,,,,,,,,,,,,245.081,247.214,0,0,1.605,,0,26,26,42,1,1,puertorican,,,,,,,,,,,,,,,,,,,,,,,,,,,,,,,,,,,,,,,,,,,,,,,,,,,,,,,,
,,,,,,,,,63e54336ed7afb1425f7888f,Spanish,13 or older,"no, only English or Spanish",no,2025-07-22_23h31.14.752,empathy_intonation_perc,2024.2.4,Win32,60.0240096,63e54336ed7afb1425f7888f,687ed1b7e638a4cbf2f02089,6880575fc555eae6537a4a8d,,,,,,,,,,,,,69,0,,./stim/wavs/castilian_mismatch_declarative-broad-focus_El-nino-oye-el-rio.wav,,,,,,,,,,,,,,,,,,,,,,247.214,249.313,1,0,1.571,,0,27,27,68,1,0,castilian,,,,,,,,,,,,,,,,,,,,,,,,,,,,,,,,,,,,,,,,,,,,,,,,,,,,,,,,
,,,,,,,,,63e54336ed7afb1425f7888f,Spanish,13 or older,"no, only English or Spanish",no,2025-07-22_23h31.14.752,empathy_intonation_perc,2024.2.4,Win32,60.0240096,63e54336ed7afb1425f7888f,687ed1b7e638a4cbf2f02089,6880575fc555eae6537a4a8d,,,,,,,,,,,,,81,0,,./stim/wavs/mexican_mismatch_declarative-broad-focus_La-maestra-vive-en-Paris.wav,,,,,,,,,,,,,,,,,,,,,,249.314,251.281,0,1,1.464,,0,28,28,80,1,0,mexican,,,,,,,,,,,,,,,,,,,,,,,,,,,,,,,,,,,,,,,,,,,,,,,,,,,,,,,,
,,,,,,,,,63e54336ed7afb1425f7888f,Spanish,13 or older,"no, only English or Spanish",no,2025-07-22_23h31.14.752,empathy_intonation_perc,2024.2.4,Win32,60.0240096,63e54336ed7afb1425f7888f,687ed1b7e638a4cbf2f02089,6880575fc555eae6537a4a8d,,,,,,,,,,,,,66,0,,./stim/wavs/puertorican_match_declarative-broad-focus_Emilio-ama-la-marcha.wav,,,,,,,,,,,,,,,,,,,,,,251.281,253.18,0,1,1.366,,0,29,29,65,1,0,puertorican,,,,,,,,,,,,,,,,,,,,,,,,,,,,,,,,,,,,,,,,,,,,,,,,,,,,,,,,
,,,,,,,,,63e54336ed7afb1425f7888f,Spanish,13 or older,"no, only English or Spanish",no,2025-07-22_23h31.14.752,empathy_intonation_perc,2024.2.4,Win32,60.0240096,63e54336ed7afb1425f7888f,687ed1b7e638a4cbf2f02089,6880575fc555eae6537a4a8d,,,,,,,,,,,,,33,1,,./stim/wavs/cuban_mismatch_interrogative-total-yn_Mi-novio-viene-del-lago.wav,,,,,,,,,,,,,,,,,,,,,,253.181,255.181,0,0,1.482,,0,30,30,32,1,1,cuban,,,,,,,,,,,,,,,,,,,,,,,,,,,,,,,,,,,,,,,,,,,,,,,,,,,,,,,,
,,,,,,,,,63e54336ed7afb1425f7888f,Spanish,13 or older,"no, only English or Spanish",no,2025-07-22_23h31.14.752,empathy_intonation_perc,2024.2.4,Win32,60.0240096,63e54336ed7afb1425f7888f,687ed1b7e638a4cbf2f02089,6880575fc555eae6537a4a8d,,,,,,,,,,,,,59,0,,./stim/wavs/mexican_match_declarative-broad-focus_David-leia-el-libro.wav,,,,,,,,,,,,,,,,,,,,,,255.182,257.082,0,1,1.388,,0,31,31,58,1,0,mexican,,,,,,,,,,,,,,,,,,,,,,,,,,,,,,,,,,,,,,,,,,,,,,,,,,,,,,,,
,,,,,,,,,63e54336ed7afb1425f7888f,Spanish,13 or older,"no, only English or Spanish",no,2025-07-22_23h31.14.752,empathy_intonation_perc,2024.2.4,Win32,60.0240096,63e54336ed7afb1425f7888f,687ed1b7e638a4cbf2f02089,6880575fc555eae6537a4a8d,,,,,,,,,,,,,23,1,,./stim/wavs/puertorican_match_interrogative-total-yn_Manuela-vende-el-carro.wav,,,,,,,,,,,,,,,,,,,,,,257.083,259.116,0,0,1.512,,0,32,32,22,1,1,puertorican,,,,,,,,,,,,,,,,,,,,,,,,,,,,,,,,,,,,,,,,,,,,,,,,,,,,,,,,
,,,,,,,,,63e54336ed7afb1425f7888f,Spanish,13 or older,"no, only English or Spanish",no,2025-07-22_23h31.14.752,empathy_intonation_perc,2024.2.4,Win32,60.0240096,63e54336ed7afb1425f7888f,687ed1b7e638a4cbf2f02089,6880575fc555eae6537a4a8d,,,,,,,,,,,,,15,1,,./stim/wavs/mexican_match_interrogative-total-yn_David-leia-el-libro.wav,,,,,,,,,,,,,,,,,,,,,,259.117,261.283,1,1,1.634,,0,33,33,14,1,0,mexican,,,,,,,,,,,,,,,,,,,,,,,,,,,,,,,,,,,,,,,,,,,,,,,,,,,,,,,,
,,,,,,,,,63e54336ed7afb1425f7888f,Spanish,13 or older,"no, only English or Spanish",no,2025-07-22_23h31.14.752,empathy_intonation_perc,2024.2.4,Win32,60.0240096,63e54336ed7afb1425f7888f,687ed1b7e638a4cbf2f02089,6880575fc555eae6537a4a8d,,,,,,,,,,,,,52,0,,./stim/wavs/cuban_match_declarative-broad-focus_Daniel-iba-a-Bolivia.wav,,,,,,,,,,,,,,,,,,,,,,261.284,263.582,0,1,1.772,,0,34,34,51,1,0,cuban,,,,,,,,,,,,,,,,,,,,,,,,,,,,,,,,,,,,,,,,,,,,,,,,,,,,,,,,
,,,,,,,,,63e54336ed7afb1425f7888f,Spanish,13 or older,"no, only English or Spanish",no,2025-07-22_23h31.14.752,empathy_intonation_perc,2024.2.4,Win32,60.0240096,63e54336ed7afb1425f7888f,687ed1b7e638a4cbf2f02089,6880575fc555eae6537a4a8d,,,,,,,,,,,,,49,0,,./stim/wavs/castilian_match_declarative-broad-focus_Mariano-habla-del-tiempo.wav,,,,,,,,,,,,,,,,,,,,,,263.583,265.55,0,1,1.457,,0,35,35,48,1,0,castilian,,,,,,,,,,,,,,,,,,,,,,,,,,,,,,,,,,,,,,,,,,,,,,,,,,,,,,,,
,,,,,,,,,63e54336ed7afb1425f7888f,Spanish,13 or older,"no, only English or Spanish",no,2025-07-22_23h31.14.752,empathy_intonation_perc,2024.2.4,Win32,60.0240096,63e54336ed7afb1425f7888f,687ed1b7e638a4cbf2f02089,6880575fc555eae6537a4a8d,,,,,,,,,,,,,10,1,,./stim/wavs/cuban_match_interrogative-total-yn_Maria-bebe-el-vino.wav,,,,,,,,,,,,,,,,,,,,,,265.55,267.582,0,0,1.506,,0,36,36,9,1,1,cuban,,,,,,,,,,,,,,,,,,,,,,,,,,,,,,,,,,,,,,,,,,,,,,,,,,,,,,,,
,,,,,,,,,63e54336ed7afb1425f7888f,Spanish,13 or older,"no, only English or Spanish",no,2025-07-22_23h31.14.752,empathy_intonation_perc,2024.2.4,Win32,60.0240096,63e54336ed7afb1425f7888f,687ed1b7e638a4cbf2f02089,6880575fc555eae6537a4a8d,,,,,,,,,,,,,29,1,,./stim/wavs/castilian_mismatch_interrogative-total-yn_Mi-tia-odia-la-lluvia.wav,,,,,,,,,,,,,,,,,,,,,,267.583,269.582,1,1,1.483,,0,37,37,28,1,0,castilian,,,,,,,,,,,,,,,,,,,,,,,,,,,,,,,,,,,,,,,,,,,,,,,,,,,,,,,,
,,,,,,,,,63e54336ed7afb1425f7888f,Spanish,13 or older,"no, only English or Spanish",no,2025-07-22_23h31.14.752,empathy_intonation_perc,2024.2.4,Win32,60.0240096,63e54336ed7afb1425f7888f,687ed1b7e638a4cbf2f02089,6880575fc555eae6537a4a8d,,,,,,,,,,,,,32,1,,./stim/wavs/cuban_mismatch_interrogative-total-yn_Mi-madre-come-la-fruta.wav,,,,,,,,,,,,,,,,,,,,,,269.583,271.565,0,0,1.463,,0,38,38,31,1,1,cuban,,,,,,,,,,,,,,,,,,,,,,,,,,,,,,,,,,,,,,,,,,,,,,,,,,,,,,,,
,,,,,,,,,63e54336ed7afb1425f7888f,Spanish,13 or older,"no, only English or Spanish",no,2025-07-22_23h31.14.752,empathy_intonation_perc,2024.2.4,Win32,60.0240096,63e54336ed7afb1425f7888f,687ed1b7e638a4cbf2f02089,6880575fc555eae6537a4a8d,,,,,,,,,,,,,12,1,,./stim/wavs/cuban_match_interrogative-total-yn_Marta-abre-el-regalo.wav,,,,,,,,,,,,,,,,,,,,,,271.565,273.466,0,0,1.394,,0,39,39,11,1,1,cuban,,,,,,,,,,,,,,,,,,,,,,,,,,,,,,,,,,,,,,,,,,,,,,,,,,,,,,,,
,,,,,,,,,63e54336ed7afb1425f7888f,Spanish,13 or older,"no, only English or Spanish",no,2025-07-22_23h31.14.752,empathy_intonation_perc,2024.2.4,Win32,60.0240096,63e54336ed7afb1425f7888f,687ed1b7e638a4cbf2f02089,6880575fc555eae6537a4a8d,,,,,,,,,,,,,27,1,,./stim/wavs/castilian_mismatch_interrogative-total-yn_Mi-madre-come-la-fruta.wav,,,,,,,,,,,,,,,,,,,,,,273.467,275.866,0,0,1.868,,0,40,40,26,1,0,castilian,,,,,,,,,,,,,,,,,,,,,,,,,,,,,,,,,,,,,,,,,,,,,,,,,,,,,,,,
,,,,,,,,,63e54336ed7afb1425f7888f,Spanish,13 or older,"no, only English or Spanish",no,2025-07-22_23h31.14.752,empathy_intonation_perc,2024.2.4,Win32,60.0240096,63e54336ed7afb1425f7888f,687ed1b7e638a4cbf2f02089,6880575fc555eae6537a4a8d,,,,,,,,,,,,,17,1,,./stim/wavs/mexican_match_interrogative-total-yn_Mariano-habla-del-tiempo.wav,,,,,,,,,,,,,,,,,,,,,,275.866,278.066,1,1,1.694,,0,41,41,16,1,0,mexican,,,,,,,,,,,,,,,,,,,,,,,,,,,,,,,,,,,,,,,,,,,,,,,,,,,,,,,,
,,,,,,,,,63e54336ed7afb1425f7888f,Spanish,13 or older,"no, only English or Spanish",no,2025-07-22_23h31.14.752,empathy_intonation_perc,2024.2.4,Win32,60.0240096,63e54336ed7afb1425f7888f,687ed1b7e638a4cbf2f02089,6880575fc555eae6537a4a8d,,,,,,,,,,,,,35,1,,./stim/wavs/mexican_mismatch_interrogative-total-yn_El-hombre-mira-la-luna.wav,,,,,,,,,,,,,,,,,,,,,,278.066,280.049,1,1,1.454,,0,42,42,34,1,0,mexican,,,,,,,,,,,,,,,,,,,,,,,,,,,,,,,,,,,,,,,,,,,,,,,,,,,,,,,,
,,,,,,,,,63e54336ed7afb1425f7888f,Spanish,13 or older,"no, only English or Spanish",no,2025-07-22_23h31.14.752,empathy_intonation_perc,2024.2.4,Win32,60.0240096,63e54336ed7afb1425f7888f,687ed1b7e638a4cbf2f02089,6880575fc555eae6537a4a8d,,,,,,,,,,,,,83,0,,./stim/wavs/mexican_mismatch_declarative-broad-focus_Mi-tia-odia-la-lluvia.wav,,,,,,,,,,,,,,,,,,,,,,280.049,282.149,0,1,1.597,,0,43,43,82,1,0,mexican,,,,,,,,,,,,,,,,,,,,,,,,,,,,,,,,,,,,,,,,,,,,,,,,,,,,,,,,
,,,,,,,,,63e54336ed7afb1425f7888f,Spanish,13 or older,"no, only English or Spanish",no,2025-07-22_23h31.14.752,empathy_intonation_perc,2024.2.4,Win32,60.0240096,63e54336ed7afb1425f7888f,687ed1b7e638a4cbf2f02089,6880575fc555eae6537a4a8d,,,,,,,,,,,,,45,0,,./stim/wavs/castilian_match_declarative-broad-focus_David-leia-el-libro.wav,,,,,,,,,,,,,,,,,,,,,,282.149,288.818,0,1,6.14,,0,44,44,44,1,0,castilian,,,,,,,,,,,,,,,,,,,,,,,,,,,,,,,,,,,,,,,,,,,,,,,,,,,,,,,,
,,,,,,,,,63e54336ed7afb1425f7888f,Spanish,13 or older,"no, only English or Spanish",no,2025-07-22_23h31.14.752,empathy_intonation_perc,2024.2.4,Win32,60.0240096,63e54336ed7afb1425f7888f,687ed1b7e638a4cbf2f02089,6880575fc555eae6537a4a8d,,,,,,,,,,,,,75,0,,./stim/wavs/cuban_mismatch_declarative-broad-focus_El-hombre-mira-la-luna.wav,,,,,,,,,,,,,,,,,,,,,,288.818,291.219,0,1,1.887,,0,45,45,74,1,0,cuban,,,,,,,,,,,,,,,,,,,,,,,,,,,,,,,,,,,,,,,,,,,,,,,,,,,,,,,,
,,,,,,,,,63e54336ed7afb1425f7888f,Spanish,13 or older,"no, only English or Spanish",no,2025-07-22_23h31.14.752,empathy_intonation_perc,2024.2.4,Win32,60.0240096,63e54336ed7afb1425f7888f,687ed1b7e638a4cbf2f02089,6880575fc555eae6537a4a8d,,,,,,,,,,,,,44,1,,./stim/wavs/puertorican_mismatch_interrogative-total-yn_Mi-madre-come-la-fruta.wav,,,,,,,,,,,,,,,,,,,,,,291.22,293.402,1,1,1.654,,0,46,46,43,1,1,puertorican,,,,,,,,,,,,,,,,,,,,,,,,,,,,,,,,,,,,,,,,,,,,,,,,,,,,,,,,
,,,,,,,,,63e54336ed7afb1425f7888f,Spanish,13 or older,"no, only English or Spanish",no,2025-07-22_23h31.14.752,empathy_intonation_perc,2024.2.4,Win32,60.0240096,63e54336ed7afb1425f7888f,687ed1b7e638a4cbf2f02089,6880575fc555eae6537a4a8d,,,,,,,,,,,,,8,1,,./stim/wavs/cuban_match_interrogative-total-yn_Daniel-iba-a-Bolivia.wav,,,,,,,,,,,,,,,,,,,,,,293.403,295.819,1,1,1.914,,0,47,47,7,1,1,cuban,,,,,,,,,,,,,,,,,,,,,,,,,,,,,,,,,,,,,,,,,,,,,,,,,,,,,,,,
,,,,,,,,,63e54336ed7afb1425f7888f,Spanish,13 or older,"no, only English or Spanish",no,2025-07-22_23h31.14.752,empathy_intonation_perc,2024.2.4,Win32,60.0240096,63e54336ed7afb1425f7888f,687ed1b7e638a4cbf2f02089,6880575fc555eae6537a4a8d,,,,,,,,,,,,,13,1,,./stim/wavs/mexican_match_interrogative-total-yn_Ana-lleva-el-abrigo.wav,,,,,,,,,,,,,,,,,,,,,,295.819,298.352,1,1,2.017,,0,48,48,12,1,0,mexican,,,,,,,,,,,,,,,,,,,,,,,,,,,,,,,,,,,,,,,,,,,,,,,,,,,,,,,,
,,,,,,,,,63e54336ed7afb1425f7888f,Spanish,13 or older,"no, only English or Spanish",no,2025-07-22_23h31.14.752,empathy_intonation_perc,2024.2.4,Win32,60.0240096,63e54336ed7afb1425f7888f,687ed1b7e638a4cbf2f02089,6880575fc555eae6537a4a8d,,,,,,,,,,,,,20,1,,./stim/wavs/puertorican_match_interrogative-total-yn_Daniel-iba-a-Bolivia.wav,,,,,,,,,,,,,,,,,,,,,,298.352,300.969,0,0,2.09,,0,49,49,19,1,1,puertorican,,,,,,,,,,,,,,,,,,,,,,,,,,,,,,,,,,,,,,,,,,,,,,,,,,,,,,,,
,,,,,,,,,63e54336ed7afb1425f7888f,Spanish,13 or older,"no, only English or Spanish",no,2025-07-22_23h31.14.752,empathy_intonation_perc,2024.2.4,Win32,60.0240096,63e54336ed7afb1425f7888f,687ed1b7e638a4cbf2f02089,6880575fc555eae6537a4a8d,,,,,,,,,,,,,47,0,,./stim/wavs/castilian_match_declarative-broad-focus_Manuela-vende-el-carro.wav,,,,,,,,,,,,,,,,,,,,,,300.969,303.419,0,1,1.942,,0,50,50,46,1,0,castilian,,,,,,,,,,,,,,,,,,,,,,,,,,,,,,,,,,,,,,,,,,,,,,,,,,,,,,,,
,,,,,,,,,63e54336ed7afb1425f7888f,Spanish,13 or older,"no, only English or Spanish",no,2025-07-22_23h31.14.752,empathy_intonation_perc,2024.2.4,Win32,60.0240096,63e54336ed7afb1425f7888f,687ed1b7e638a4cbf2f02089,6880575fc555eae6537a4a8d,,,,,,,,,,,,,26,1,,./stim/wavs/castilian_mismatch_interrogative-total-yn_La-nina-lava-el-plato.wav,,,,,,,,,,,,,,,,,,,,,,303.42,305.62,1,1,1.669,,0,51,51,25,1,0,castilian,,,,,,,,,,,,,,,,,,,,,,,,,,,,,,,,,,,,,,,,,,,,,,,,,,,,,,,,
,,,,,,,,,63e54336ed7afb1425f7888f,Spanish,13 or older,"no, only English or Spanish",no,2025-07-22_23h31.14.752,empathy_intonation_perc,2024.2.4,Win32,60.0240096,63e54336ed7afb1425f7888f,687ed1b7e638a4cbf2f02089,6880575fc555eae6537a4a8d,,,,,,,,,,,,,74,0,,./stim/wavs/cuban_mismatch_declarative-broad-focus_El-bebe-comia-muy-bien.wav,,,,,,,,,,,,,,,,,,,,,,305.62,307.92,0,1,1.776,,0,52,52,73,1,0,cuban,,,,,,,,,,,,,,,,,,,,,,,,,,,,,,,,,,,,,,,,,,,,,,,,,,,,,,,,
,,,,,,,,,63e54336ed7afb1425f7888f,Spanish,13 or older,"no, only English or Spanish",no,2025-07-22_23h31.14.752,empathy_intonation_perc,2024.2.4,Win32,60.0240096,63e54336ed7afb1425f7888f,687ed1b7e638a4cbf2f02089,6880575fc555eae6537a4a8d,,,,,,,,,,,,,63,0,,./stim/wavs/puertorican_match_declarative-broad-focus_Ana-lleva-el-abrigo.wav,,,,,,,,,,,,,,,,,,,,,,307.92,310.035,0,1,1.592,,0,53,53,62,1,0,puertorican,,,,,,,,,,,,,,,,,,,,,,,,,,,,,,,,,,,,,,,,,,,,,,,,,,,,,,,,
,,,,,,,,,63e54336ed7afb1425f7888f,Spanish,13 or older,"no, only English or Spanish",no,2025-07-22_23h31.14.752,empathy_intonation_perc,2024.2.4,Win32,60.0240096,63e54336ed7afb1425f7888f,687ed1b7e638a4cbf2f02089,6880575fc555eae6537a4a8d,,,,,,,,,,,,,78,0,,./stim/wavs/cuban_mismatch_declarative-broad-focus_Mi-tia-odia-la-lluvia.wav,,,,,,,,,,,,,,,,,,,,,,310.036,312.286,0,1,1.735,,0,54,54,77,1,0,cuban,,,,,,,,,,,,,,,,,,,,,,,,,,,,,,,,,,,,,,,,,,,,,,,,,,,,,,,,
,,,,,,,,,63e54336ed7afb1425f7888f,Spanish,13 or older,"no, only English or Spanish",no,2025-07-22_23h31.14.752,empathy_intonation_perc,2024.2.4,Win32,60.0240096,63e54336ed7afb1425f7888f,687ed1b7e638a4cbf2f02089,6880575fc555eae6537a4a8d,,,,,,,,,,,,,76,0,,./stim/wavs/cuban_mismatch_declarative-broad-focus_La-nina-lava-el-plato.wav,,,,,,,,,,,,,,,,,,,,,,312.286,314.535,0,1,1.725,,0,55,55,75,1,0,cuban,,,,,,,,,,,,,,,,,,,,,,,,,,,,,,,,,,,,,,,,,,,,,,,,,,,,,,,,
,,,,,,,,,63e54336ed7afb1425f7888f,Spanish,13 or older,"no, only English or Spanish",no,2025-07-22_23h31.14.752,empathy_intonation_perc,2024.2.4,Win32,60.0240096,63e54336ed7afb1425f7888f,687ed1b7e638a4cbf2f02089,6880575fc555eae6537a4a8d,,,,,,,,,,,,,64,0,,./stim/wavs/puertorican_match_declarative-broad-focus_Daniel-iba-a-Bolivia.wav,,,,,,,,,,,,,,,,,,,,,,314.536,316.403,0,1,1.334,,0,56,56,63,1,0,puertorican,,,,,,,,,,,,,,,,,,,,,,,,,,,,,,,,,,,,,,,,,,,,,,,,,,,,,,,,
,,,,,,,,,63e54336ed7afb1425f7888f,Spanish,13 or older,"no, only English or Spanish",no,2025-07-22_23h31.14.752,empathy_intonation_perc,2024.2.4,Win32,60.0240096,63e54336ed7afb1425f7888f,687ed1b7e638a4cbf2f02089,6880575fc555eae6537a4a8d,,,,,,,,,,,,,31,1,,./stim/wavs/cuban_mismatch_interrogative-total-yn_El-nino-oye-el-rio.wav,,,,,,,,,,,,,,,,,,,,,,316.403,318.152,1,1,1.218,,0,57,57,30,1,1,cuban,,,,,,,,,,,,,,,,,,,,,,,,,,,,,,,,,,,,,,,,,,,,,,,,,,,,,,,,
,,,,,,,,,63e54336ed7afb1425f7888f,Spanish,13 or older,"no, only English or Spanish",no,2025-07-22_23h31.14.752,empathy_intonation_perc,2024.2.4,Win32,60.0240096,63e54336ed7afb1425f7888f,687ed1b7e638a4cbf2f02089,6880575fc555eae6537a4a8d,,,,,,,,,,,,,37,1,,./stim/wavs/mexican_mismatch_interrogative-total-yn_La-maestra-vive-en-Paris.wav,,,,,,,,,,,,,,,,,,,,,,318.153,320.251,1,1,1.577,,0,58,58,36,1,0,mexican,,,,,,,,,,,,,,,,,,,,,,,,,,,,,,,,,,,,,,,,,,,,,,,,,,,,,,,,
,,,,,,,,,63e54336ed7afb1425f7888f,Spanish,13 or older,"no, only English or Spanish",no,2025-07-22_23h31.14.752,empathy_intonation_perc,2024.2.4,Win32,60.0240096,63e54336ed7afb1425f7888f,687ed1b7e638a4cbf2f02089,6880575fc555eae6537a4a8d,,,,,,,,,,,,,53,0,,./stim/wavs/cuban_match_declarative-broad-focus_Manuela-vende-el-carro.wav,,,,,,,,,,,,,,,,,,,,,,320.252,322.435,0,1,1.676,,0,59,59,52,1,0,cuban,,,,,,,,,,,,,,,,,,,,,,,,,,,,,,,,,,,,,,,,,,,,,,,,,,,,,,,,
,,,,,,,,,63e54336ed7afb1425f7888f,Spanish,13 or older,"no, only English or Spanish",no,2025-07-22_23h31.14.752,empathy_intonation_perc,2024.2.4,Win32,60.0240096,63e54336ed7afb1425f7888f,687ed1b7e638a4cbf2f02089,6880575fc555eae6537a4a8d,,,,,,,,,,,,,70,0,,./stim/wavs/castilian_mismatch_declarative-broad-focus_La-maestra-vive-en-Paris.wav,,,,,,,,,,,,,,,,,,,,,,322.435,328.953,0,1,5.999,,0,60,60,69,1,0,castilian,,,,,,,,,,,,,,,,,,,,,,,,,,,,,,,,,,,,,,,,,,,,,,,,,,,,,,,,
,,,,,,,,,63e54336ed7afb1425f7888f,Spanish,13 or older,"no, only English or Spanish",no,2025-07-22_23h31.14.752,empathy_intonation_perc,2024.2.4,Win32,60.0240096,63e54336ed7afb1425f7888f,687ed1b7e638a4cbf2f02089,6880575fc555eae6537a4a8d,,,,,,,,,,,,,82,0,,./stim/wavs/mexican_mismatch_declarative-broad-focus_Mi-novio-viene-del-lago.wav,,,,,,,,,,,,,,,,,,,,,,328.955,330.952,0,1,1.48,,0,61,61,81,1,0,mexican,,,,,,,,,,,,,,,,,,,,,,,,,,,,,,,,,,,,,,,,,,,,,,,,,,,,,,,,
,,,,,,,,,63e54336ed7afb1425f7888f,Spanish,13 or older,"no, only English or Spanish",no,2025-07-22_23h31.14.752,empathy_intonation_perc,2024.2.4,Win32,60.0240096,63e54336ed7afb1425f7888f,687ed1b7e638a4cbf2f02089,6880575fc555eae6537a4a8d,,,,,,,,,,,,,1,1,,./stim/wavs/castilian_match_interrogative-total-yn_David-leia-el-libro.wav,,,,,,,,,,,,,,,,,,,,,,330.953,333.719,1,1,2.233,,0,62,62,0,1,0,castilian,,,,,,,,,,,,,,,,,,,,,,,,,,,,,,,,,,,,,,,,,,,,,,,,,,,,,,,,
,,,,,,,,,63e54336ed7afb1425f7888f,Spanish,13 or older,"no, only English or Spanish",no,2025-07-22_23h31.14.752,empathy_intonation_perc,2024.2.4,Win32,60.0240096,63e54336ed7afb1425f7888f,687ed1b7e638a4cbf2f02089,6880575fc555eae6537a4a8d,,,,,,,,,,,,,48,0,,./stim/wavs/castilian_match_declarative-broad-focus_Maria-bebe-el-vino.wav,,,,,,,,,,,,,,,,,,,,,,333.72,336.372,0,1,2.137,,0,63,63,47,1,0,castilian,,,,,,,,,,,,,,,,,,,,,,,,,,,,,,,,,,,,,,,,,,,,,,,,,,,,,,,,
,,,,,,,,,63e54336ed7afb1425f7888f,Spanish,13 or older,"no, only English or Spanish",no,2025-07-22_23h31.14.752,empathy_intonation_perc,2024.2.4,Win32,60.0240096,63e54336ed7afb1425f7888f,687ed1b7e638a4cbf2f02089,6880575fc555eae6537a4a8d,,,,,,,,,,,,,85,0,,./stim/wavs/puertorican_mismatch_declarative-broad-focus_El-hombre-mira-la-luna.wav,,,,,,,,,,,,,,,,,,,,,,336.372,338.938,0,1,2.036,,0,64,64,84,1,0,puertorican,,,,,,,,,,,,,,,,,,,,,,,,,,,,,,,,,,,,,,,,,,,,,,,,,,,,,,,,
,,,,,,,,,63e54336ed7afb1425f7888f,Spanish,13 or older,"no, only English or Spanish",no,2025-07-22_23h31.14.752,empathy_intonation_perc,2024.2.4,Win32,60.0240096,63e54336ed7afb1425f7888f,687ed1b7e638a4cbf2f02089,6880575fc555eae6537a4a8d,,,,,,,,,,,,,50,0,,./stim/wavs/castilian_match_declarative-broad-focus_Marta-abre-el-regalo.wav,,,,,,,,,,,,,,,,,,,,,,338.939,341.039,0,1,1.593,,0,65,65,49,1,0,castilian,,,,,,,,,,,,,,,,,,,,,,,,,,,,,,,,,,,,,,,,,,,,,,,,,,,,,,,,
,,,,,,,,,63e54336ed7afb1425f7888f,Spanish,13 or older,"no, only English or Spanish",no,2025-07-22_23h31.14.752,empathy_intonation_perc,2024.2.4,Win32,60.0240096,63e54336ed7afb1425f7888f,687ed1b7e638a4cbf2f02089,6880575fc555eae6537a4a8d,,,,,,,,,,,,,2,1,,./stim/wavs/castilian_match_interrogative-total-yn_Emilio-ama-la-marcha.wav,,,,,,,,,,,,,,,,,,,,,,341.039,343.173,1,1,1.617,,0,66,66,1,1,0,castilian,,,,,,,,,,,,,,,,,,,,,,,,,,,,,,,,,,,,,,,,,,,,,,,,,,,,,,,,
,,,,,,,,,63e54336ed7afb1425f7888f,Spanish,13 or older,"no, only English or Spanish",no,2025-07-22_23h31.14.752,empathy_intonation_perc,2024.2.4,Win32,60.0240096,63e54336ed7afb1425f7888f,687ed1b7e638a4cbf2f02089,6880575fc555eae6537a4a8d,,,,,,,,,,,,,65,0,,./stim/wavs/puertorican_match_declarative-broad-focus_David-leia-el-libro.wav,,,,,,,,,,,,,,,,,,,,,,343.173,345.072,0,1,1.38,,0,67,67,64,1,0,puertorican,,,,,,,,,,,,,,,,,,,,,,,,,,,,,,,,,,,,,,,,,,,,,,,,,,,,,,,,
,,,,,,,,,63e54336ed7afb1425f7888f,Spanish,13 or older,"no, only English or Spanish",no,2025-07-22_23h31.14.752,empathy_intonation_perc,2024.2.4,Win32,60.0240096,63e54336ed7afb1425f7888f,687ed1b7e638a4cbf2f02089,6880575fc555eae6537a4a8d,,,,,,,,,,,,,30,1,,./stim/wavs/cuban_mismatch_interrogative-total-yn_El-hombre-mira-la-luna.wav,,,,,,,,,,,,,,,,,,,,,,345.072,346.956,0,0,1.379,,0,68,68,29,1,1,cuban,,,,,,,,,,,,,,,,,,,,,,,,,,,,,,,,,,,,,,,,,,,,,,,,,,,,,,,,
,,,,,,,,,63e54336ed7afb1425f7888f,Spanish,13 or older,"no, only English or Spanish",no,2025-07-22_23h31.14.752,empathy_intonation_perc,2024.2.4,Win32,60.0240096,63e54336ed7afb1425f7888f,687ed1b7e638a4cbf2f02089,6880575fc555eae6537a4a8d,,,,,,,,,,,,,22,1,,./stim/wavs/puertorican_match_interrogative-total-yn_Emilio-ama-la-marcha.wav,,,,,,,,,,,,,,,,,,,,,,346.956,349.072,0,0,1.609,,0,69,69,21,1,1,puertorican,,,,,,,,,,,,,,,,,,,,,,,,,,,,,,,,,,,,,,,,,,,,,,,,,,,,,,,,
,,,,,,,,,63e54336ed7afb1425f7888f,Spanish,13 or older,"no, only English or Spanish",no,2025-07-22_23h31.14.752,empathy_intonation_perc,2024.2.4,Win32,60.0240096,63e54336ed7afb1425f7888f,687ed1b7e638a4cbf2f02089,6880575fc555eae6537a4a8d,,,,,,,,,,,,,41,1,,./stim/wavs/puertorican_mismatch_interrogative-total-yn_El-nino-oye-el-rio.wav,,,,,,,,,,,,,,,,,,,,,,349.073,351.239,0,0,1.664,,0,70,70,40,1,1,puertorican,,,,,,,,,,,,,,,,,,,,,,,,,,,,,,,,,,,,,,,,,,,,,,,,,,,,,,,,
,,,,,,,,,63e54336ed7afb1425f7888f,Spanish,13 or older,"no, only English or Spanish",no,2025-07-22_23h31.14.752,empathy_intonation_perc,2024.2.4,Win32,60.0240096,63e54336ed7afb1425f7888f,687ed1b7e638a4cbf2f02089,6880575fc555eae6537a4a8d,,,,,,,,,,,,,38,1,,./stim/wavs/mexican_mismatch_interrogative-total-yn_Mi-novio-viene-del-lago.wav,,,,,,,,,,,,,,,,,,,,,,351.24,353.172,1,1,1.416,,0,71,71,37,1,0,mexican,,,,,,,,,,,,,,,,,,,,,,,,,,,,,,,,,,,,,,,,,,,,,,,,,,,,,,,,
,,,,,,,,,63e54336ed7afb1425f7888f,Spanish,13 or older,"no, only English or Spanish",no,2025-07-22_23h31.14.752,empathy_intonation_perc,2024.2.4,Win32,60.0240096,63e54336ed7afb1425f7888f,687ed1b7e638a4cbf2f02089,6880575fc555eae6537a4a8d,,,,,,,,,,,,,6,1,,./stim/wavs/castilian_match_interrogative-total-yn_Marta-abre-el-regalo.wav,,,,,,,,,,,,,,,,,,,,,,353.174,355.49,1,1,1.811,,0,72,72,5,1,0,castilian,,,,,,,,,,,,,,,,,,,,,,,,,,,,,,,,,,,,,,,,,,,,,,,,,,,,,,,,
,,,,,,,,,63e54336ed7afb1425f7888f,Spanish,13 or older,"no, only English or Spanish",no,2025-07-22_23h31.14.752,empathy_intonation_perc,2024.2.4,Win32,60.0240096,63e54336ed7afb1425f7888f,687ed1b7e638a4cbf2f02089,6880575fc555eae6537a4a8d,,,,,,,,,,,,,19,1,,./stim/wavs/puertorican_match_interrogative-total-yn_Ana-lleva-el-abrigo.wav,,,,,,,,,,,,,,,,,,,,,,355.49,357.257,1,1,1.239,,0,73,73,18,1,1,puertorican,,,,,,,,,,,,,,,,,,,,,,,,,,,,,,,,,,,,,,,,,,,,,,,,,,,,,,,,
,,,,,,,,,63e54336ed7afb1425f7888f,Spanish,13 or older,"no, only English or Spanish",no,2025-07-22_23h31.14.752,empathy_intonation_perc,2024.2.4,Win32,60.0240096,63e54336ed7afb1425f7888f,687ed1b7e638a4cbf2f02089,6880575fc555eae6537a4a8d,,,,,,,,,,,,,18,1,,./stim/wavs/mexican_match_interrogative-total-yn_Marta-abre-el-regalo.wav,,,,,,,,,,,,,,,,,,,,,,357.258,359.257,1,1,1.479,,0,74,74,17,1,0,mexican,,,,,,,,,,,,,,,,,,,,,,,,,,,,,,,,,,,,,,,,,,,,,,,,,,,,,,,,
,,,,,,,,,63e54336ed7afb1425f7888f,Spanish,13 or older,"no, only English or Spanish",no,2025-07-22_23h31.14.752,empathy_intonation_perc,2024.2.4,Win32,60.0240096,63e54336ed7afb1425f7888f,687ed1b7e638a4cbf2f02089,6880575fc555eae6537a4a8d,,,,,,,,,,,,,54,0,,./stim/wavs/cuban_match_declarative-broad-focus_Maria-bebe-el-vino.wav,,,,,,,,,,,,,,,,,,,,,,359.257,361.24,0,1,1.472,,0,75,75,53,1,0,cuban,,,,,,,,,,,,,,,,,,,,,,,,,,,,,,,,,,,,,,,,,,,,,,,,,,,,,,,,
,,,,,,,,,63e54336ed7afb1425f7888f,Spanish,13 or older,"no, only English or Spanish",no,2025-07-22_23h31.14.752,empathy_intonation_perc,2024.2.4,Win32,60.0240096,63e54336ed7afb1425f7888f,687ed1b7e638a4cbf2f02089,6880575fc555eae6537a4a8d,,,,,,,,,,,,,25,1,,./stim/wavs/castilian_mismatch_interrogative-total-yn_La-maestra-vive-en-Paris.wav,,,,,,,,,,,,,,,,,,,,,,361.24,363.673,1,1,1.92,,0,76,76,24,1,0,castilian,,,,,,,,,,,,,,,,,,,,,,,,,,,,,,,,,,,,,,,,,,,,,,,,,,,,,,,,
,,,,,,,,,63e54336ed7afb1425f7888f,Spanish,13 or older,"no, only English or Spanish",no,2025-07-22_23h31.14.752,empathy_intonation_perc,2024.2.4,Win32,60.0240096,63e54336ed7afb1425f7888f,687ed1b7e638a4cbf2f02089,6880575fc555eae6537a4a8d,,,,,,,,,,,,,57,0,,./stim/wavs/mexican_match_declarative-broad-focus_Ana-lleva-el-abrigo.wav,,,,,,,,,,,,,,,,,,,,,,363.673,365.606,0,1,1.426,,0,77,77,56,1,0,mexican,,,,,,,,,,,,,,,,,,,,,,,,,,,,,,,,,,,,,,,,,,,,,,,,,,,,,,,,
,,,,,,,,,63e54336ed7afb1425f7888f,Spanish,13 or older,"no, only English or Spanish",no,2025-07-22_23h31.14.752,empathy_intonation_perc,2024.2.4,Win32,60.0240096,63e54336ed7afb1425f7888f,687ed1b7e638a4cbf2f02089,6880575fc555eae6537a4a8d,,,,,,,,,,,,,28,1,,./stim/wavs/castilian_mismatch_interrogative-total-yn_Mi-novio-viene-del-lago.wav,,,,,,,,,,,,,,,,,,,,,,365.607,367.791,1,1,1.661,,0,78,78,27,1,0,castilian,,,,,,,,,,,,,,,,,,,,,,,,,,,,,,,,,,,,,,,,,,,,,,,,,,,,,,,,
,,,,,,,,,63e54336ed7afb1425f7888f,Spanish,13 or older,"no, only English or Spanish",no,2025-07-22_23h31.14.752,empathy_intonation_perc,2024.2.4,Win32,60.0240096,63e54336ed7afb1425f7888f,687ed1b7e638a4cbf2f02089,6880575fc555eae6537a4a8d,,,,,,,,,,,,,36,1,,./stim/wavs/mexican_mismatch_interrogative-total-yn_El-nino-oye-el-rio.wav,,,,,,,,,,,,,,,,,,,,,,367.791,369.792,1,1,1.497,,0,79,79,35,1,0,mexican,,,,,,,,,,,,,,,,,,,,,,,,,,,,,,,,,,,,,,,,,,,,,,,,,,,,,,,,
,,,,,,,,,63e54336ed7afb1425f7888f,Spanish,13 or older,"no, only English or Spanish",no,2025-07-22_23h31.14.752,empathy_intonation_perc,2024.2.4,Win32,60.0240096,63e54336ed7afb1425f7888f,687ed1b7e638a4cbf2f02089,6880575fc555eae6537a4a8d,,,,,,,,,,,,,61,0,,./stim/wavs/mexican_match_declarative-broad-focus_Mariano-habla-del-tiempo.wav,,,,,,,,,,,,,,,,,,,,,,369.793,371.792,0,1,1.489,,0,80,80,60,1,0,mexican,,,,,,,,,,,,,,,,,,,,,,,,,,,,,,,,,,,,,,,,,,,,,,,,,,,,,,,,
,,,,,,,,,63e54336ed7afb1425f7888f,Spanish,13 or older,"no, only English or Spanish",no,2025-07-22_23h31.14.752,empathy_intonation_perc,2024.2.4,Win32,60.0240096,63e54336ed7afb1425f7888f,687ed1b7e638a4cbf2f02089,6880575fc555eae6537a4a8d,,,,,,,,,,,,,42,1,,./stim/wavs/puertorican_mismatch_interrogative-total-yn_La-maestra-vive-en-Paris.wav,,,,,,,,,,,,,,,,,,,,,,371.792,373.975,0,0,1.659,,0,81,81,41,1,1,puertorican,,,,,,,,,,,,,,,,,,,,,,,,,,,,,,,,,,,,,,,,,,,,,,,,,,,,,,,,
,,,,,,,,,63e54336ed7afb1425f7888f,Spanish,13 or older,"no, only English or Spanish",no,2025-07-22_23h31.14.752,empathy_intonation_perc,2024.2.4,Win32,60.0240096,63e54336ed7afb1425f7888f,687ed1b7e638a4cbf2f02089,6880575fc555eae6537a4a8d,,,,,,,,,,,,,21,1,,./stim/wavs/puertorican_match_interrogative-total-yn_David-leia-el-libro.wav,,,,,,,,,,,,,,,,,,,,,,373.976,384.059,0,0,9.575,,0,82,82,20,1,1,puertorican,,,,,,,,,,,,,,,,,,,,,,,,,,,,,,,,,,,,,,,,,,,,,,,,,,,,,,,,
,,,,,,,,,63e54336ed7afb1425f7888f,Spanish,13 or older,"no, only English or Spanish",no,2025-07-22_23h31.14.752,empathy_intonation_perc,2024.2.4,Win32,60.0240096,63e54336ed7afb1425f7888f,687ed1b7e638a4cbf2f02089,6880575fc555eae6537a4a8d,,,,,,,,,,,,,16,1,,./stim/wavs/mexican_match_interrogative-total-yn_Emilio-ama-la-marcha.wav,,,,,,,,,,,,,,,,,,,,,,384.06,387.726,1,1,3.134,,0,83,83,15,1,0,mexican,,,,,,,,,,,,,,,,,,,,,,,,,,,,,,,,,,,,,,,,,,,,,,,,,,,,,,,,
,,,,,,,,,63e54336ed7afb1425f7888f,Spanish,13 or older,"no, only English or Spanish",no,2025-07-22_23h31.14.752,empathy_intonation_perc,2024.2.4,Win32,60.0240096,63e54336ed7afb1425f7888f,687ed1b7e638a4cbf2f02089,6880575fc555eae6537a4a8d,,,,,,,,,,,,,9,1,,./stim/wavs/cuban_match_interrogative-total-yn_Manuela-vende-el-carro.wav,,,,,,,,,,,,,,,,,,,,,,387.726,396.473,0,0,8.231,,0,84,84,8,1,1,cuban,,,,,,,,,,,,,,,,,,,,,,,,,,,,,,,,,,,,,,,,,,,,,,,,,,,,,,,,
,,,,,,,,,63e54336ed7afb1425f7888f,Spanish,13 or older,"no, only English or Spanish",no,2025-07-22_23h31.14.752,empathy_intonation_perc,2024.2.4,Win32,60.0240096,63e54336ed7afb1425f7888f,687ed1b7e638a4cbf2f02089,6880575fc555eae6537a4a8d,,,,,,,,,,,,,4,1,,./stim/wavs/castilian_match_interrogative-total-yn_Maria-bebe-el-vino.wav,,,,,,,,,,,,,,,,,,,,,,396.474,398.499,1,1,1.466,,0,85,85,3,1,0,castilian,,,,,,,,,,,,,,,,,,,,,,,,,,,,,,,,,,,,,,,,,,,,,,,,,,,,,,,,
,,,,,,,,,63e54336ed7afb1425f7888f,Spanish,13 or older,"no, only English or Spanish",no,2025-07-22_23h31.14.752,empathy_intonation_perc,2024.2.4,Win32,60.0240096,63e54336ed7afb1425f7888f,687ed1b7e638a4cbf2f02089,6880575fc555eae6537a4a8d,,,,,,,,,,,,,88,0,,./stim/wavs/puertorican_mismatch_declarative-broad-focus_La-nina-lava-el-plato.wav,,,,,,,,,,,,,,,,,,,,,,398.499,400.461,0,1,1.442,,0,86,86,87,1,0,puertorican,,,,,,,,,,,,,,,,,,,,,,,,,,,,,,,,,,,,,,,,,,,,,,,,,,,,,,,,
,,,,,,,,,63e54336ed7afb1425f7888f,Spanish,13 or older,"no, only English or Spanish",no,2025-07-22_23h31.14.752,empathy_intonation_perc,2024.2.4,Win32,60.0240096,63e54336ed7afb1425f7888f,687ed1b7e638a4cbf2f02089,6880575fc555eae6537a4a8d,,,,,,,,,,,,,73,0,,./stim/wavs/castilian_mismatch_declarative-broad-focus_Mi-tia-odia-la-lluvia.wav,,,,,,,,,,,,,,,,,,,,,,400.461,402.495,0,1,1.522,,0,87,87,72,1,0,castilian,,,,,,,,,,,,,,,,,,,,,,,,,,,,,,,,,,,,,,,,,,,,,,,,,,,,,,,,
,,,,,,,"Great! Now we will move on. The next task consists of about 60 trials, in each of which you will see a string of letters. 
  
  Your task is to decide whether this is a real Spanish word or not.", (press the spacebar to continue),63e54336ed7afb1425f7888f,Spanish,13 or older,"no, only English or Spanish",no,2025-07-22_23h31.14.752,empathy_intonation_perc,2024.2.4,Win32,60.0240096,63e54336ed7afb1425f7888f,687ed1b7e638a4cbf2f02089,6880575fc555eae6537a4a8d,,,,,,,,,,,,,,,,,,,,,,,,,,,,,,,,,,,,,,,,,,,,,,,,,,,402.504,407.595,0,0,0,0,1,,,,,,,,,,,,,,,,,,,,,,,,,,,,,,,,,,,,,,,,,,,,,,,,,
,,,,,,,"If you think it is an existing Spanish word, you type '1' (for 'REAL'), and if you think it is not an existing Spanish word, you type '0' (for 'FAKE').", (press the spacebar to continue),63e54336ed7afb1425f7888f,Spanish,13 or older,"no, only English or Spanish",no,2025-07-22_23h31.14.752,empathy_intonation_perc,2024.2.4,Win32,60.0240096,63e54336ed7afb1425f7888f,687ed1b7e638a4cbf2f02089,6880575fc555eae6537a4a8d,,,,,,,,,,,,,,,,,,,,,,,,,,,,,,,,,,,,,,,,,,,,,,,,,,,407.597,409.096,0,1,1,1,1,,,,,,,,,,,,,,,,,,,,,,,,,,,,,,,,,,,,,,,,,,,,,,,,,
,,,,,,,"If you are sure that the word exists, even though you don’t know its exact meaning, you may still respond '1' (REAL). 
  
  But if you are not sure if it is an existing word, you should respond '0' (FAKE).
  
  Let's do a practice round...", (press the spacebar to continue),63e54336ed7afb1425f7888f,Spanish,13 or older,"no, only English or Spanish",no,2025-07-22_23h31.14.752,empathy_intonation_perc,2024.2.4,Win32,60.0240096,63e54336ed7afb1425f7888f,687ed1b7e638a4cbf2f02089,6880575fc555eae6537a4a8d,,,,,,,,,,,,,,,,,,,,,,,,,,,,,,,,,,,,,,,,,,,,,,,,,,,409.097,411.396,0,2,2,2,1,,,,,,,,,,,,,,,,,,,,,,,,,,,,,,,,,,,,,,,,,,,,,,,,,
,,,,,,,,,63e54336ed7afb1425f7888f,Spanish,13 or older,"no, only English or Spanish",no,2025-07-22_23h31.14.752,empathy_intonation_perc,2024.2.4,Win32,60.0240096,63e54336ed7afb1425f7888f,687ed1b7e638a4cbf2f02089,6880575fc555eae6537a4a8d,,,,,,,,,,,,,,0,,,,,,,,,,,,,,,,,,,,,,,,,,,,,,,,,,,,,,,,,,,,411.399,415.146,1,0,3.214,,415.146,415.862,0,0,0,0,1,0,depiste,REAL,FAKE,,,,,,,,,,,,,,,,,,,,,,,,,,,,,,,,
,,,,,,,,,63e54336ed7afb1425f7888f,Spanish,13 or older,"no, only English or Spanish",no,2025-07-22_23h31.14.752,empathy_intonation_perc,2024.2.4,Win32,60.0240096,63e54336ed7afb1425f7888f,687ed1b7e638a4cbf2f02089,6880575fc555eae6537a4a8d,,,,,,,,,,,,,,1,,,,,,,,,,,,,,,,,,,,,,,,,,,,,,,,,,,,,,,,,,,,415.863,416.963,1,1,0.591,,416.963,417.496,0,1,1,1,1,0,sí,REAL,FAKE,,,,,,,,,,,,,,,,,,,,,,,,,,,,,,,,
,,,,,,,,,63e54336ed7afb1425f7888f,Spanish,13 or older,"no, only English or Spanish",no,2025-07-22_23h31.14.752,empathy_intonation_perc,2024.2.4,Win32,60.0240096,63e54336ed7afb1425f7888f,687ed1b7e638a4cbf2f02089,6880575fc555eae6537a4a8d,,,,,,,,,,,,,,0,,,,,,,,,,,,,,,,,,,,,,,,,,,,,,,,,,,,,,,,,,,,417.497,419.129,1,0,1.111,,419.13,419.513,0,2,2,2,1,0,coné,REAL,FAKE,,,,,,,,,,,,,,,,,,,,,,,,,,,,,,,,
,,,,,,,,,63e54336ed7afb1425f7888f,Spanish,13 or older,"no, only English or Spanish",no,2025-07-22_23h31.14.752,empathy_intonation_perc,2024.2.4,Win32,60.0240096,63e54336ed7afb1425f7888f,687ed1b7e638a4cbf2f02089,6880575fc555eae6537a4a8d,,,,,,,,,,,,,,0,,,,,,,,,,,,,,,,,,,,,,,,,,,,,,,,,,,,,,,,,,,,419.513,420.746,1,0,0.702,,420.746,421.196,0,3,3,3,1,0,calpar,REAL,FAKE,,,,,,,,,,,,,,,,,,,,,,,,,,,,,,,,
,,,,,,,,,63e54336ed7afb1425f7888f,Spanish,13 or older,"no, only English or Spanish",no,2025-07-22_23h31.14.752,empathy_intonation_perc,2024.2.4,Win32,60.0240096,63e54336ed7afb1425f7888f,687ed1b7e638a4cbf2f02089,6880575fc555eae6537a4a8d,,,,,,,,,,,,,,0,,,,,,,,,,,,,,,,,,,,,,,,,,,,,,,,,,,,,,,,,,,,421.196,422.646,1,0,0.911,,422.646,423.112,0,4,4,4,1,0,joten,REAL,FAKE,,,,,,,,,,,,,,,,,,,,,,,,,,,,,,,,
,,,,,,,,,63e54336ed7afb1425f7888f,Spanish,13 or older,"no, only English or Spanish",no,2025-07-22_23h31.14.752,empathy_intonation_perc,2024.2.4,Win32,60.0240096,63e54336ed7afb1425f7888f,687ed1b7e638a4cbf2f02089,6880575fc555eae6537a4a8d,,,,,,,,,,,,,,1,,,,,,,,,,,,,,,,,,,,,,,,,,,,,,,,,,,,,,,,,,,,423.115,425.413,1,1,1.781,,425.414,425.78,0,5,5,5,1,0,sacapuntas,REAL,FAKE,,,,,,,,,,,,,,,,,,,,,,,,,,,,,,,,
,,,,,,,,,63e54336ed7afb1425f7888f,Spanish,13 or older,"no, only English or Spanish",no,2025-07-22_23h31.14.752,empathy_intonation_perc,2024.2.4,Win32,60.0240096,63e54336ed7afb1425f7888f,687ed1b7e638a4cbf2f02089,6880575fc555eae6537a4a8d,,,,,,,,,,,,,,0,,,,,,,,,,,,,,,,,,,,,,,,,,,,,,,,,,,,,,,,,,,,425.78,427.068,1,0,0.76,,427.069,427.499,0,6,6,6,1,0,priba,REAL,FAKE,,,,,,,,,,,,,,,,,,,,,,,,,,,,,,,,
,,,,,,,,,63e54336ed7afb1425f7888f,Spanish,13 or older,"no, only English or Spanish",no,2025-07-22_23h31.14.752,empathy_intonation_perc,2024.2.4,Win32,60.0240096,63e54336ed7afb1425f7888f,687ed1b7e638a4cbf2f02089,6880575fc555eae6537a4a8d,,,,,,,,,,,,,,0,,,,,,,,,,,,,,,,,,,,,,,,,,,,,,,,,,,,,,,,,,,,427.5,429.098,1,0,1.057,,429.098,429.515,0,7,7,7,1,0,pelasula,REAL,FAKE,,,,,,,,,,,,,,,,,,,,,,,,,,,,,,,,
,,,,,,,,,63e54336ed7afb1425f7888f,Spanish,13 or older,"no, only English or Spanish",no,2025-07-22_23h31.14.752,empathy_intonation_perc,2024.2.4,Win32,60.0240096,63e54336ed7afb1425f7888f,687ed1b7e638a4cbf2f02089,6880575fc555eae6537a4a8d,,,,,,,,,,,,,,1,,,,,,,,,,,,,,,,,,,,,,,,,,,,,,,,,,,,,,,,,,,,429.516,430.648,1,1,0.605,,430.649,430.999,0,8,8,8,1,0,bien,REAL,FAKE,,,,,,,,,,,,,,,,,,,,,,,,,,,,,,,,
,,,,,,,,,63e54336ed7afb1425f7888f,Spanish,13 or older,"no, only English or Spanish",no,2025-07-22_23h31.14.752,empathy_intonation_perc,2024.2.4,Win32,60.0240096,63e54336ed7afb1425f7888f,687ed1b7e638a4cbf2f02089,6880575fc555eae6537a4a8d,,,,,,,,,,,,,,1,,,,,,,,,,,,,,,,,,,,,,,,,,,,,,,,,,,,,,,,,,,,431,432.117,1,1,0.589,,432.117,432.45,0,9,9,9,1,0,casa,REAL,FAKE,,,,,,,,,,,,,,,,,,,,,,,,,,,,,,,,
,,,,,,,,,63e54336ed7afb1425f7888f,Spanish,13 or older,"no, only English or Spanish",no,2025-07-22_23h31.14.752,empathy_intonation_perc,2024.2.4,Win32,60.0240096,63e54336ed7afb1425f7888f,687ed1b7e638a4cbf2f02089,6880575fc555eae6537a4a8d,,,,,,,,,,,,,,0,,,,,,,,,,,,,,,,,,,,,,,,,,,,,,,,,,,,,,,,,,,,432.45,433.484,0,1,0.505,,433.484,433.9,0,10,10,10,1,0,lejo,REAL,FAKE,,,,,,,,,,,,,,,,,,,,,,,,,,,,,,,,
,,,,,,,,,63e54336ed7afb1425f7888f,Spanish,13 or older,"no, only English or Spanish",no,2025-07-22_23h31.14.752,empathy_intonation_perc,2024.2.4,Win32,60.0240096,63e54336ed7afb1425f7888f,687ed1b7e638a4cbf2f02089,6880575fc555eae6537a4a8d,,,,,,,,,,,,,,0,,,,,,,,,,,,,,,,,,,,,,,,,,,,,,,,,,,,,,,,,,,,433.901,435.466,0,1,1.029,,435.466,435.817,0,11,11,11,1,0,pretantas,REAL,FAKE,,,,,,,,,,,,,,,,,,,,,,,,,,,,,,,,
,,,,,,,,,63e54336ed7afb1425f7888f,Spanish,13 or older,"no, only English or Spanish",no,2025-07-22_23h31.14.752,empathy_intonation_perc,2024.2.4,Win32,60.0240096,63e54336ed7afb1425f7888f,687ed1b7e638a4cbf2f02089,6880575fc555eae6537a4a8d,,,,,,,,,,,,,,,,,,,,,,,,,,,,,,,,,,,,,,,,,,,,,,,,,,,,,,,,,,,,,,,,,,,,,,,,,,,435.817,437.2,,,,,,,,,,,,,,,,,,,,,,,,,,,,,,
,,,,,,,,,63e54336ed7afb1425f7888f,Spanish,13 or older,"no, only English or Spanish",no,2025-07-22_23h31.14.752,empathy_intonation_perc,2024.2.4,Win32,60.0240096,63e54336ed7afb1425f7888f,687ed1b7e638a4cbf2f02089,6880575fc555eae6537a4a8d,,,,,,,,,,,,,,1,,,,,,,,,,,,,,,,,,,,,,,,,,,,,,,,,,,,,,,,,,,,,,,,,,,,,,,,,62,flaco,,,,,437.208,439.435,1,1,1.692,,0,0,0,61,1,REAL,FAKE,,,,,,,,,,,,,,,,,
,,,,,,,,,63e54336ed7afb1425f7888f,Spanish,13 or older,"no, only English or Spanish",no,2025-07-22_23h31.14.752,empathy_intonation_perc,2024.2.4,Win32,60.0240096,63e54336ed7afb1425f7888f,687ed1b7e638a4cbf2f02089,6880575fc555eae6537a4a8d,,,,,,,,,,,,,,0,,,,,,,,,,,,,,,,,,,,,,,,,,,,,,,,,,,,,,,,,,,,,,,,,,,,,,,,,30,alardio,,,,,439.436,441.017,0,1,1.043,,0,1,1,29,1,REAL,FAKE,,,,,,,,,,,,,,,,,
,,,,,,,,,63e54336ed7afb1425f7888f,Spanish,13 or older,"no, only English or Spanish",no,2025-07-22_23h31.14.752,empathy_intonation_perc,2024.2.4,Win32,60.0240096,63e54336ed7afb1425f7888f,687ed1b7e638a4cbf2f02089,6880575fc555eae6537a4a8d,,,,,,,,,,,,,,0,,,,,,,,,,,,,,,,,,,,,,,,,,,,,,,,,,,,,,,,,,,,,,,,,,,,,,,,,29,decar,,,,,441.017,442.45,1,0,0.897,,0,2,2,28,1,REAL,FAKE,,,,,,,,,,,,,,,,,
,,,,,,,,,63e54336ed7afb1425f7888f,Spanish,13 or older,"no, only English or Spanish",no,2025-07-22_23h31.14.752,empathy_intonation_perc,2024.2.4,Win32,60.0240096,63e54336ed7afb1425f7888f,687ed1b7e638a4cbf2f02089,6880575fc555eae6537a4a8d,,,,,,,,,,,,,,1,,,,,,,,,,,,,,,,,,,,,,,,,,,,,,,,,,,,,,,,,,,,,,,,,,,,,,,,,38,estornudar,,,,,442.45,444.634,0,0,1.648,,0,3,3,37,1,REAL,FAKE,,,,,,,,,,,,,,,,,
,,,,,,,,,63e54336ed7afb1425f7888f,Spanish,13 or older,"no, only English or Spanish",no,2025-07-22_23h31.14.752,empathy_intonation_perc,2024.2.4,Win32,60.0240096,63e54336ed7afb1425f7888f,687ed1b7e638a4cbf2f02089,6880575fc555eae6537a4a8d,,,,,,,,,,,,,,1,,,,,,,,,,,,,,,,,,,,,,,,,,,,,,,,,,,,,,,,,,,,,,,,,,,,,,,,,80,hormiga,,,,,444.634,446.367,0,0,1.204,,0,4,4,79,1,REAL,FAKE,,,,,,,,,,,,,,,,,
,,,,,,,,,63e54336ed7afb1425f7888f,Spanish,13 or older,"no, only English or Spanish",no,2025-07-22_23h31.14.752,empathy_intonation_perc,2024.2.4,Win32,60.0240096,63e54336ed7afb1425f7888f,687ed1b7e638a4cbf2f02089,6880575fc555eae6537a4a8d,,,,,,,,,,,,,,1,,,,,,,,,,,,,,,,,,,,,,,,,,,,,,,,,,,,,,,,,,,,,,,,,,,,,,,,,76,atar,,,,,446.368,447.668,0,0,0.762,,0,5,5,75,1,REAL,FAKE,,,,,,,,,,,,,,,,,
,,,,,,,,,63e54336ed7afb1425f7888f,Spanish,13 or older,"no, only English or Spanish",no,2025-07-22_23h31.14.752,empathy_intonation_perc,2024.2.4,Win32,60.0240096,63e54336ed7afb1425f7888f,687ed1b7e638a4cbf2f02089,6880575fc555eae6537a4a8d,,,,,,,,,,,,,,1,,,,,,,,,,,,,,,,,,,,,,,,,,,,,,,,,,,,,,,,,,,,,,,,,,,,,,,,,39,torpe,,,,,447.669,449.368,0,0,1.174,,0,6,6,38,1,REAL,FAKE,,,,,,,,,,,,,,,,,
,,,,,,,,,63e54336ed7afb1425f7888f,Spanish,13 or older,"no, only English or Spanish",no,2025-07-22_23h31.14.752,empathy_intonation_perc,2024.2.4,Win32,60.0240096,63e54336ed7afb1425f7888f,687ed1b7e638a4cbf2f02089,6880575fc555eae6537a4a8d,,,,,,,,,,,,,,0,,,,,,,,,,,,,,,,,,,,,,,,,,,,,,,,,,,,,,,,,,,,,,,,,,,,,,,,,21,capillo,,,,,449.368,450.917,1,0,1.013,,0,7,7,20,1,REAL,FAKE,,,,,,,,,,,,,,,,,
,,,,,,,,,63e54336ed7afb1425f7888f,Spanish,13 or older,"no, only English or Spanish",no,2025-07-22_23h31.14.752,empathy_intonation_perc,2024.2.4,Win32,60.0240096,63e54336ed7afb1425f7888f,687ed1b7e638a4cbf2f02089,6880575fc555eae6537a4a8d,,,,,,,,,,,,,,1,,,,,,,,,,,,,,,,,,,,,,,,,,,,,,,,,,,,,,,,,,,,,,,,,,,,,,,,,81,pozo,,,,,450.918,452.2,0,0,0.765,,0,8,8,80,1,REAL,FAKE,,,,,,,,,,,,,,,,,
,,,,,,,,,63e54336ed7afb1425f7888f,Spanish,13 or older,"no, only English or Spanish",no,2025-07-22_23h31.14.752,empathy_intonation_perc,2024.2.4,Win32,60.0240096,63e54336ed7afb1425f7888f,687ed1b7e638a4cbf2f02089,6880575fc555eae6537a4a8d,,,,,,,,,,,,,,0,,,,,,,,,,,,,,,,,,,,,,,,,,,,,,,,,,,,,,,,,,,,,,,,,,,,,,,,,17,floroso,,,,,452.201,453.55,0,1,0.83,,0,9,9,16,1,REAL,FAKE,,,,,,,,,,,,,,,,,
,,,,,,,,,63e54336ed7afb1425f7888f,Spanish,13 or older,"no, only English or Spanish",no,2025-07-22_23h31.14.752,empathy_intonation_perc,2024.2.4,Win32,60.0240096,63e54336ed7afb1425f7888f,687ed1b7e638a4cbf2f02089,6880575fc555eae6537a4a8d,,,,,,,,,,,,,,0,,,,,,,,,,,,,,,,,,,,,,,,,,,,,,,,,,,,,,,,,,,,,,,,,,,,,,,,,18,arsa,,,,,453.551,455.085,0,1,1.018,,0,10,10,17,1,REAL,FAKE,,,,,,,,,,,,,,,,,
,,,,,,,,,63e54336ed7afb1425f7888f,Spanish,13 or older,"no, only English or Spanish",no,2025-07-22_23h31.14.752,empathy_intonation_perc,2024.2.4,Win32,60.0240096,63e54336ed7afb1425f7888f,687ed1b7e638a4cbf2f02089,6880575fc555eae6537a4a8d,,,,,,,,,,,,,,1,,,,,,,,,,,,,,,,,,,,,,,,,,,,,,,,,,,,,,,,,,,,,,,,,,,,,,,,,89,prisa,,,,,455.086,456.335,0,0,0.714,,0,11,11,88,1,REAL,FAKE,,,,,,,,,,,,,,,,,
,,,,,,,,,63e54336ed7afb1425f7888f,Spanish,13 or older,"no, only English or Spanish",no,2025-07-22_23h31.14.752,empathy_intonation_perc,2024.2.4,Win32,60.0240096,63e54336ed7afb1425f7888f,687ed1b7e638a4cbf2f02089,6880575fc555eae6537a4a8d,,,,,,,,,,,,,,1,,,,,,,,,,,,,,,,,,,,,,,,,,,,,,,,,,,,,,,,,,,,,,,,,,,,,,,,,3,pulmones,,,,,456.336,458.017,0,0,1.147,,0,12,12,2,1,REAL,FAKE,,,,,,,,,,,,,,,,,
,,,,,,,,,63e54336ed7afb1425f7888f,Spanish,13 or older,"no, only English or Spanish",no,2025-07-22_23h31.14.752,empathy_intonation_perc,2024.2.4,Win32,60.0240096,63e54336ed7afb1425f7888f,687ed1b7e638a4cbf2f02089,6880575fc555eae6537a4a8d,,,,,,,,,,,,,,1,,,,,,,,,,,,,,,,,,,,,,,,,,,,,,,,,,,,,,,,,,,,,,,,,,,,,,,,,67,cabello,,,,,458.018,459.401,1,1,0.841,,0,13,13,66,1,REAL,FAKE,,,,,,,,,,,,,,,,,
,,,,,,,,,63e54336ed7afb1425f7888f,Spanish,13 or older,"no, only English or Spanish",no,2025-07-22_23h31.14.752,empathy_intonation_perc,2024.2.4,Win32,60.0240096,63e54336ed7afb1425f7888f,687ed1b7e638a4cbf2f02089,6880575fc555eae6537a4a8d,,,,,,,,,,,,,,1,,,,,,,,,,,,,,,,,,,,,,,,,,,,,,,,,,,,,,,,,,,,,,,,,,,,,,,,,6,tergiversar,,,,,459.402,460.651,0,0,0.706,,0,14,14,5,1,REAL,FAKE,,,,,,,,,,,,,,,,,
,,,,,,,,,63e54336ed7afb1425f7888f,Spanish,13 or older,"no, only English or Spanish",no,2025-07-22_23h31.14.752,empathy_intonation_perc,2024.2.4,Win32,60.0240096,63e54336ed7afb1425f7888f,687ed1b7e638a4cbf2f02089,6880575fc555eae6537a4a8d,,,,,,,,,,,,,,1,,,,,,,,,,,,,,,,,,,,,,,,,,,,,,,,,,,,,,,,,,,,,,,,,,,,,,,,,57,tacaño,,,,,460.652,461.834,0,0,0.653,,0,15,15,56,1,REAL,FAKE,,,,,,,,,,,,,,,,,
,,,,,,,,,63e54336ed7afb1425f7888f,Spanish,13 or older,"no, only English or Spanish",no,2025-07-22_23h31.14.752,empathy_intonation_perc,2024.2.4,Win32,60.0240096,63e54336ed7afb1425f7888f,687ed1b7e638a4cbf2f02089,6880575fc555eae6537a4a8d,,,,,,,,,,,,,,0,,,,,,,,,,,,,,,,,,,,,,,,,,,,,,,,,,,,,,,,,,,,,,,,,,,,,,,,,33,pauca,,,,,461.835,463.101,0,1,0.742,,0,16,16,32,1,REAL,FAKE,,,,,,,,,,,,,,,,,
,,,,,,,,,63e54336ed7afb1425f7888f,Spanish,13 or older,"no, only English or Spanish",no,2025-07-22_23h31.14.752,empathy_intonation_perc,2024.2.4,Win32,60.0240096,63e54336ed7afb1425f7888f,687ed1b7e638a4cbf2f02089,6880575fc555eae6537a4a8d,,,,,,,,,,,,,,1,,,,,,,,,,,,,,,,,,,,,,,,,,,,,,,,,,,,,,,,,,,,,,,,,,,,,,,,,59,besar,,,,,463.102,464.918,1,1,1.303,,0,17,17,58,1,REAL,FAKE,,,,,,,,,,,,,,,,,
,,,,,,,,,63e54336ed7afb1425f7888f,Spanish,13 or older,"no, only English or Spanish",no,2025-07-22_23h31.14.752,empathy_intonation_perc,2024.2.4,Win32,60.0240096,63e54336ed7afb1425f7888f,687ed1b7e638a4cbf2f02089,6880575fc555eae6537a4a8d,,,,,,,,,,,,,,1,,,,,,,,,,,,,,,,,,,,,,,,,,,,,,,,,,,,,,,,,,,,,,,,,,,,,,,,,44,cuchara,,,,,464.918,466.517,0,0,1.065,,0,18,18,43,1,REAL,FAKE,,,,,,,,,,,,,,,,,
,,,,,,,,,63e54336ed7afb1425f7888f,Spanish,13 or older,"no, only English or Spanish",no,2025-07-22_23h31.14.752,empathy_intonation_perc,2024.2.4,Win32,60.0240096,63e54336ed7afb1425f7888f,687ed1b7e638a4cbf2f02089,6880575fc555eae6537a4a8d,,,,,,,,,,,,,,1,,,,,,,,,,,,,,,,,,,,,,,,,,,,,,,,,,,,,,,,,,,,,,,,,,,,,,,,,77,tiburón,,,,,466.518,467.784,1,1,0.758,,0,19,19,76,1,REAL,FAKE,,,,,,,,,,,,,,,,,
,,,,,,,,,63e54336ed7afb1425f7888f,Spanish,13 or older,"no, only English or Spanish",no,2025-07-22_23h31.14.752,empathy_intonation_perc,2024.2.4,Win32,60.0240096,63e54336ed7afb1425f7888f,687ed1b7e638a4cbf2f02089,6880575fc555eae6537a4a8d,,,,,,,,,,,,,,1,,,,,,,,,,,,,,,,,,,,,,,,,,,,,,,,,,,,,,,,,,,,,,,,,,,,,,,,,55,nevar,,,,,467.786,469.517,0,0,1.212,,0,20,20,54,1,REAL,FAKE,,,,,,,,,,,,,,,,,
,,,,,,,,,63e54336ed7afb1425f7888f,Spanish,13 or older,"no, only English or Spanish",no,2025-07-22_23h31.14.752,empathy_intonation_perc,2024.2.4,Win32,60.0240096,63e54336ed7afb1425f7888f,687ed1b7e638a4cbf2f02089,6880575fc555eae6537a4a8d,,,,,,,,,,,,,,1,,,,,,,,,,,,,,,,,,,,,,,,,,,,,,,,,,,,,,,,,,,,,,,,,,,,,,,,,15,regar,,,,,469.518,473.534,0,0,3.498,,0,21,21,14,1,REAL,FAKE,,,,,,,,,,,,,,,,,
,,,,,,,,,63e54336ed7afb1425f7888f,Spanish,13 or older,"no, only English or Spanish",no,2025-07-22_23h31.14.752,empathy_intonation_perc,2024.2.4,Win32,60.0240096,63e54336ed7afb1425f7888f,687ed1b7e638a4cbf2f02089,6880575fc555eae6537a4a8d,,,,,,,,,,,,,,1,,,,,,,,,,,,,,,,,,,,,,,,,,,,,,,,,,,,,,,,,,,,,,,,,,,,,,,,,31,pandilla,,,,,473.535,474.767,0,0,0.69,,0,22,22,30,1,REAL,FAKE,,,,,,,,,,,,,,,,,
,,,,,,,,,63e54336ed7afb1425f7888f,Spanish,13 or older,"no, only English or Spanish",no,2025-07-22_23h31.14.752,empathy_intonation_perc,2024.2.4,Win32,60.0240096,63e54336ed7afb1425f7888f,687ed1b7e638a4cbf2f02089,6880575fc555eae6537a4a8d,,,,,,,,,,,,,,1,,,,,,,,,,,,,,,,,,,,,,,,,,,,,,,,,,,,,,,,,,,,,,,,,,,,,,,,,36,loro,,,,,474.768,479.651,0,0,4.357,,0,23,23,35,1,REAL,FAKE,,,,,,,,,,,,,,,,,
,,,,,,,,,63e54336ed7afb1425f7888f,Spanish,13 or older,"no, only English or Spanish",no,2025-07-22_23h31.14.752,empathy_intonation_perc,2024.2.4,Win32,60.0240096,63e54336ed7afb1425f7888f,687ed1b7e638a4cbf2f02089,6880575fc555eae6537a4a8d,,,,,,,,,,,,,,1,,,,,,,,,,,,,,,,,,,,,,,,,,,,,,,,,,,,,,,,,,,,,,,,,,,,,,,,,78,frondoso,,,,,479.652,481.817,0,0,1.639,,0,24,24,77,1,REAL,FAKE,,,,,,,,,,,,,,,,,
,,,,,,,,,63e54336ed7afb1425f7888f,Spanish,13 or older,"no, only English or Spanish",no,2025-07-22_23h31.14.752,empathy_intonation_perc,2024.2.4,Win32,60.0240096,63e54336ed7afb1425f7888f,687ed1b7e638a4cbf2f02089,6880575fc555eae6537a4a8d,,,,,,,,,,,,,,1,,,,,,,,,,,,,,,,,,,,,,,,,,,,,,,,,,,,,,,,,,,,,,,,,,,,,,,,,40,alfombra,,,,,481.819,483.086,0,0,0.736,,0,25,25,39,1,REAL,FAKE,,,,,,,,,,,,,,,,,
,,,,,,,,,63e54336ed7afb1425f7888f,Spanish,13 or older,"no, only English or Spanish",no,2025-07-22_23h31.14.752,empathy_intonation_perc,2024.2.4,Win32,60.0240096,63e54336ed7afb1425f7888f,687ed1b7e638a4cbf2f02089,6880575fc555eae6537a4a8d,,,,,,,,,,,,,,0,,,,,,,,,,,,,,,,,,,,,,,,,,,,,,,,,,,,,,,,,,,,,,,,,,,,,,,,,10,antar,,,,,483.086,484.518,0,1,0.903,,0,26,26,9,1,REAL,FAKE,,,,,,,,,,,,,,,,,
,,,,,,,,,63e54336ed7afb1425f7888f,Spanish,13 or older,"no, only English or Spanish",no,2025-07-22_23h31.14.752,empathy_intonation_perc,2024.2.4,Win32,60.0240096,63e54336ed7afb1425f7888f,687ed1b7e638a4cbf2f02089,6880575fc555eae6537a4a8d,,,,,,,,,,,,,,1,,,,,,,,,,,,,,,,,,,,,,,,,,,,,,,,,,,,,,,,,,,,,,,,,,,,,,,,,86,barato,,,,,484.519,485.785,0,0,0.741,,0,27,27,85,1,REAL,FAKE,,,,,,,,,,,,,,,,,
,,,,,,,,,63e54336ed7afb1425f7888f,Spanish,13 or older,"no, only English or Spanish",no,2025-07-22_23h31.14.752,empathy_intonation_perc,2024.2.4,Win32,60.0240096,63e54336ed7afb1425f7888f,687ed1b7e638a4cbf2f02089,6880575fc555eae6537a4a8d,,,,,,,,,,,,,,1,,,,,,,,,,,,,,,,,,,,,,,,,,,,,,,,,,,,,,,,,,,,,,,,,,,,,,,,,49,ganar,,,,,485.785,487.102,0,0,0.79,,0,28,28,48,1,REAL,FAKE,,,,,,,,,,,,,,,,,
,,,,,,,,,63e54336ed7afb1425f7888f,Spanish,13 or older,"no, only English or Spanish",no,2025-07-22_23h31.14.752,empathy_intonation_perc,2024.2.4,Win32,60.0240096,63e54336ed7afb1425f7888f,687ed1b7e638a4cbf2f02089,6880575fc555eae6537a4a8d,,,,,,,,,,,,,,1,,,,,,,,,,,,,,,,,,,,,,,,,,,,,,,,,,,,,,,,,,,,,,,,,,,,,,,,,85,laúd,,,,,487.103,489.002,0,0,1.367,,0,29,29,84,1,REAL,FAKE,,,,,,,,,,,,,,,,,
,,,,,,,,,63e54336ed7afb1425f7888f,Spanish,13 or older,"no, only English or Spanish",no,2025-07-22_23h31.14.752,empathy_intonation_perc,2024.2.4,Win32,60.0240096,63e54336ed7afb1425f7888f,687ed1b7e638a4cbf2f02089,6880575fc555eae6537a4a8d,,,,,,,,,,,,,,1,,,,,,,,,,,,,,,,,,,,,,,,,,,,,,,,,,,,,,,,,,,,,,,,,,,,,,,,,46,martillo,,,,,489.004,490.652,0,0,1.115,,0,30,30,45,1,REAL,FAKE,,,,,,,,,,,,,,,,,
,,,,,,,,,63e54336ed7afb1425f7888f,Spanish,13 or older,"no, only English or Spanish",no,2025-07-22_23h31.14.752,empathy_intonation_perc,2024.2.4,Win32,60.0240096,63e54336ed7afb1425f7888f,687ed1b7e638a4cbf2f02089,6880575fc555eae6537a4a8d,,,,,,,,,,,,,,1,,,,,,,,,,,,,,,,,,,,,,,,,,,,,,,,,,,,,,,,,,,,,,,,,,,,,,,,,45,jilguero,,,,,490.652,491.802,0,0,0.617,,0,31,31,44,1,REAL,FAKE,,,,,,,,,,,,,,,,,
,,,,,,,,,63e54336ed7afb1425f7888f,Spanish,13 or older,"no, only English or Spanish",no,2025-07-22_23h31.14.752,empathy_intonation_perc,2024.2.4,Win32,60.0240096,63e54336ed7afb1425f7888f,687ed1b7e638a4cbf2f02089,6880575fc555eae6537a4a8d,,,,,,,,,,,,,,1,,,,,,,,,,,,,,,,,,,,,,,,,,,,,,,,,,,,,,,,,,,,,,,,,,,,,,,,,13,helar,,,,,491.802,492.952,0,0,0.617,,0,32,32,12,1,REAL,FAKE,,,,,,,,,,,,,,,,,
,,,,,,,,,63e54336ed7afb1425f7888f,Spanish,13 or older,"no, only English or Spanish",no,2025-07-22_23h31.14.752,empathy_intonation_perc,2024.2.4,Win32,60.0240096,63e54336ed7afb1425f7888f,687ed1b7e638a4cbf2f02089,6880575fc555eae6537a4a8d,,,,,,,,,,,,,,1,,,,,,,,,,,,,,,,,,,,,,,,,,,,,,,,,,,,,,,,,,,,,,,,,,,,,,,,,43,canela,,,,,492.953,494.202,0,0,0.73,,0,33,33,42,1,REAL,FAKE,,,,,,,,,,,,,,,,,
,,,,,,,,,63e54336ed7afb1425f7888f,Spanish,13 or older,"no, only English or Spanish",no,2025-07-22_23h31.14.752,empathy_intonation_perc,2024.2.4,Win32,60.0240096,63e54336ed7afb1425f7888f,687ed1b7e638a4cbf2f02089,6880575fc555eae6537a4a8d,,,,,,,,,,,,,,0,,,,,,,,,,,,,,,,,,,,,,,,,,,,,,,,,,,,,,,,,,,,,,,,,,,,,,,,,63,esposante,,,,,494.202,495.501,0,1,0.762,,0,34,34,62,1,REAL,FAKE,,,,,,,,,,,,,,,,,
,,,,,,,,,63e54336ed7afb1425f7888f,Spanish,13 or older,"no, only English or Spanish",no,2025-07-22_23h31.14.752,empathy_intonation_perc,2024.2.4,Win32,60.0240096,63e54336ed7afb1425f7888f,687ed1b7e638a4cbf2f02089,6880575fc555eae6537a4a8d,,,,,,,,,,,,,,1,,,,,,,,,,,,,,,,,,,,,,,,,,,,,,,,,,,,,,,,,,,,,,,,,,,,,,,,,88,acantilado,,,,,495.502,496.751,0,0,0.717,,0,35,35,87,1,REAL,FAKE,,,,,,,,,,,,,,,,,
,,,,,,,,,63e54336ed7afb1425f7888f,Spanish,13 or older,"no, only English or Spanish",no,2025-07-22_23h31.14.752,empathy_intonation_perc,2024.2.4,Win32,60.0240096,63e54336ed7afb1425f7888f,687ed1b7e638a4cbf2f02089,6880575fc555eae6537a4a8d,,,,,,,,,,,,,,1,,,,,,,,,,,,,,,,,,,,,,,,,,,,,,,,,,,,,,,,,,,,,,,,,,,,,,,,,51,candado,,,,,496.752,498.851,0,0,1.569,,0,36,36,50,1,REAL,FAKE,,,,,,,,,,,,,,,,,
,,,,,,,,,63e54336ed7afb1425f7888f,Spanish,13 or older,"no, only English or Spanish",no,2025-07-22_23h31.14.752,empathy_intonation_perc,2024.2.4,Win32,60.0240096,63e54336ed7afb1425f7888f,687ed1b7e638a4cbf2f02089,6880575fc555eae6537a4a8d,,,,,,,,,,,,,,1,,,,,,,,,,,,,,,,,,,,,,,,,,,,,,,,,,,,,,,,,,,,,,,,,,,,,,,,,48,ladrón,,,,,498.851,500.101,0,0,0.729,,0,37,37,47,1,REAL,FAKE,,,,,,,,,,,,,,,,,
,,,,,,,,,63e54336ed7afb1425f7888f,Spanish,13 or older,"no, only English or Spanish",no,2025-07-22_23h31.14.752,empathy_intonation_perc,2024.2.4,Win32,60.0240096,63e54336ed7afb1425f7888f,687ed1b7e638a4cbf2f02089,6880575fc555eae6537a4a8d,,,,,,,,,,,,,,0,,,,,,,,,,,,,,,,,,,,,,,,,,,,,,,,,,,,,,,,,,,,,,,,,,,,,,,,,74,cintro,,,,,500.103,501.285,0,1,0.65,,0,38,38,73,1,REAL,FAKE,,,,,,,,,,,,,,,,,
,,,,,,,,,63e54336ed7afb1425f7888f,Spanish,13 or older,"no, only English or Spanish",no,2025-07-22_23h31.14.752,empathy_intonation_perc,2024.2.4,Win32,60.0240096,63e54336ed7afb1425f7888f,687ed1b7e638a4cbf2f02089,6880575fc555eae6537a4a8d,,,,,,,,,,,,,,1,,,,,,,,,,,,,,,,,,,,,,,,,,,,,,,,,,,,,,,,,,,,,,,,,,,,,,,,,37,granuja,,,,,501.286,502.836,0,0,1.025,,0,39,39,36,1,REAL,FAKE,,,,,,,,,,,,,,,,,
,,,,,,,,,63e54336ed7afb1425f7888f,Spanish,13 or older,"no, only English or Spanish",no,2025-07-22_23h31.14.752,empathy_intonation_perc,2024.2.4,Win32,60.0240096,63e54336ed7afb1425f7888f,687ed1b7e638a4cbf2f02089,6880575fc555eae6537a4a8d,,,,,,,,,,,,,,1,,,,,,,,,,,,,,,,,,,,,,,,,,,,,,,,,,,,,,,,,,,,,,,,,,,,,,,,,60,matar,,,,,502.836,503.953,1,1,0.604,,0,40,40,59,1,REAL,FAKE,,,,,,,,,,,,,,,,,
,,,,,,,,,63e54336ed7afb1425f7888f,Spanish,13 or older,"no, only English or Spanish",no,2025-07-22_23h31.14.752,empathy_intonation_perc,2024.2.4,Win32,60.0240096,63e54336ed7afb1425f7888f,687ed1b7e638a4cbf2f02089,6880575fc555eae6537a4a8d,,,,,,,,,,,,,,1,,,,,,,,,,,,,,,,,,,,,,,,,,,,,,,,,,,,,,,,,,,,,,,,,,,,,,,,,7,pésimo,,,,,503.953,505.136,0,0,0.651,,0,41,41,6,1,REAL,FAKE,,,,,,,,,,,,,,,,,
,,,,,,,,,63e54336ed7afb1425f7888f,Spanish,13 or older,"no, only English or Spanish",no,2025-07-22_23h31.14.752,empathy_intonation_perc,2024.2.4,Win32,60.0240096,63e54336ed7afb1425f7888f,687ed1b7e638a4cbf2f02089,6880575fc555eae6537a4a8d,,,,,,,,,,,,,,1,,,,,,,,,,,,,,,,,,,,,,,,,,,,,,,,,,,,,,,,,,,,,,,,,,,,,,,,,9,hacha,,,,,505.136,506.486,0,0,0.828,,0,42,42,8,1,REAL,FAKE,,,,,,,,,,,,,,,,,
,,,,,,,,,63e54336ed7afb1425f7888f,Spanish,13 or older,"no, only English or Spanish",no,2025-07-22_23h31.14.752,empathy_intonation_perc,2024.2.4,Win32,60.0240096,63e54336ed7afb1425f7888f,687ed1b7e638a4cbf2f02089,6880575fc555eae6537a4a8d,,,,,,,,,,,,,,1,,,,,,,,,,,,,,,,,,,,,,,,,,,,,,,,,,,,,,,,,,,,,,,,,,,,,,,,,34,aviso,,,,,506.486,507.704,0,0,0.703,,0,43,43,33,1,REAL,FAKE,,,,,,,,,,,,,,,,,
,,,,,,,,,63e54336ed7afb1425f7888f,Spanish,13 or older,"no, only English or Spanish",no,2025-07-22_23h31.14.752,empathy_intonation_perc,2024.2.4,Win32,60.0240096,63e54336ed7afb1425f7888f,687ed1b7e638a4cbf2f02089,6880575fc555eae6537a4a8d,,,,,,,,,,,,,,1,,,,,,,,,,,,,,,,,,,,,,,,,,,,,,,,,,,,,,,,,,,,,,,,,,,,,,,,,54,fomentar,,,,,507.704,509.354,1,1,1.111,,0,44,44,53,1,REAL,FAKE,,,,,,,,,,,,,,,,,
,,,,,,,,,63e54336ed7afb1425f7888f,Spanish,13 or older,"no, only English or Spanish",no,2025-07-22_23h31.14.752,empathy_intonation_perc,2024.2.4,Win32,60.0240096,63e54336ed7afb1425f7888f,687ed1b7e638a4cbf2f02089,6880575fc555eae6537a4a8d,,,,,,,,,,,,,,1,,,,,,,,,,,,,,,,,,,,,,,,,,,,,,,,,,,,,,,,,,,,,,,,,,,,,,,,,90,clavel,,,,,509.355,511.587,0,0,1.689,,0,45,45,89,1,REAL,FAKE,,,,,,,,,,,,,,,,,
,,,,,,,,,63e54336ed7afb1425f7888f,Spanish,13 or older,"no, only English or Spanish",no,2025-07-22_23h31.14.752,empathy_intonation_perc,2024.2.4,Win32,60.0240096,63e54336ed7afb1425f7888f,687ed1b7e638a4cbf2f02089,6880575fc555eae6537a4a8d,,,,,,,,,,,,,,1,,,,,,,,,,,,,,,,,,,,,,,,,,,,,,,,,,,,,,,,,,,,,,,,,,,,,,,,,75,yacer,,,,,511.588,514.637,0,0,2.517,,0,46,46,74,1,REAL,FAKE,,,,,,,,,,,,,,,,,
,,,,,,,,,63e54336ed7afb1425f7888f,Spanish,13 or older,"no, only English or Spanish",no,2025-07-22_23h31.14.752,empathy_intonation_perc,2024.2.4,Win32,60.0240096,63e54336ed7afb1425f7888f,687ed1b7e638a4cbf2f02089,6880575fc555eae6537a4a8d,,,,,,,,,,,,,,0,,,,,,,,,,,,,,,,,,,,,,,,,,,,,,,,,,,,,,,,,,,,,,,,,,,,,,,,,66,hacido,,,,,514.638,516.187,1,0,1.031,,0,47,47,65,1,REAL,FAKE,,,,,,,,,,,,,,,,,
,,,,,,,,,63e54336ed7afb1425f7888f,Spanish,13 or older,"no, only English or Spanish",no,2025-07-22_23h31.14.752,empathy_intonation_perc,2024.2.4,Win32,60.0240096,63e54336ed7afb1425f7888f,687ed1b7e638a4cbf2f02089,6880575fc555eae6537a4a8d,,,,,,,,,,,,,,1,,,,,,,,,,,,,,,,,,,,,,,,,,,,,,,,,,,,,,,,,,,,,,,,,,,,,,,,,71,polvoriento,,,,,516.188,517.304,0,0,0.606,,0,48,48,70,1,REAL,FAKE,,,,,,,,,,,,,,,,,
,,,,,,,,,63e54336ed7afb1425f7888f,Spanish,13 or older,"no, only English or Spanish",no,2025-07-22_23h31.14.752,empathy_intonation_perc,2024.2.4,Win32,60.0240096,63e54336ed7afb1425f7888f,687ed1b7e638a4cbf2f02089,6880575fc555eae6537a4a8d,,,,,,,,,,,,,,0,,,,,,,,,,,,,,,,,,,,,,,,,,,,,,,,,,,,,,,,,,,,,,,,,,,,,,,,,72,pemición,,,,,517.304,518.821,0,1,0.978,,0,49,49,71,1,REAL,FAKE,,,,,,,,,,,,,,,,,
,,,,,,,,,63e54336ed7afb1425f7888f,Spanish,13 or older,"no, only English or Spanish",no,2025-07-22_23h31.14.752,empathy_intonation_perc,2024.2.4,Win32,60.0240096,63e54336ed7afb1425f7888f,687ed1b7e638a4cbf2f02089,6880575fc555eae6537a4a8d,,,,,,,,,,,,,,0,,,,,,,,,,,,,,,,,,,,,,,,,,,,,,,,,,,,,,,,,,,,,,,,,,,,,,,,,82,empirador,,,,,518.821,520.737,0,1,1.407,,0,50,50,81,1,REAL,FAKE,,,,,,,,,,,,,,,,,
,,,,,,,,,63e54336ed7afb1425f7888f,Spanish,13 or older,"no, only English or Spanish",no,2025-07-22_23h31.14.752,empathy_intonation_perc,2024.2.4,Win32,60.0240096,63e54336ed7afb1425f7888f,687ed1b7e638a4cbf2f02089,6880575fc555eae6537a4a8d,,,,,,,,,,,,,,0,,,,,,,,,,,,,,,,,,,,,,,,,,,,,,,,,,,,,,,,,,,,,,,,,,,,,,,,,87,grodo,,,,,520.737,522.038,0,1,0.755,,0,51,51,86,1,REAL,FAKE,,,,,,,,,,,,,,,,,
,,,,,,,,,63e54336ed7afb1425f7888f,Spanish,13 or older,"no, only English or Spanish",no,2025-07-22_23h31.14.752,empathy_intonation_perc,2024.2.4,Win32,60.0240096,63e54336ed7afb1425f7888f,687ed1b7e638a4cbf2f02089,6880575fc555eae6537a4a8d,,,,,,,,,,,,,,1,,,,,,,,,,,,,,,,,,,,,,,,,,,,,,,,,,,,,,,,,,,,,,,,,,,,,,,,,73,hervidor,,,,,522.04,523.721,0,0,1.156,,0,52,52,72,1,REAL,FAKE,,,,,,,,,,,,,,,,,
,,,,,,,,,63e54336ed7afb1425f7888f,Spanish,13 or older,"no, only English or Spanish",no,2025-07-22_23h31.14.752,empathy_intonation_perc,2024.2.4,Win32,60.0240096,63e54336ed7afb1425f7888f,687ed1b7e638a4cbf2f02089,6880575fc555eae6537a4a8d,,,,,,,,,,,,,,1,,,,,,,,,,,,,,,,,,,,,,,,,,,,,,,,,,,,,,,,,,,,,,,,,,,,,,,,,12,asesinato,,,,,523.722,525.404,1,1,1.156,,0,53,53,11,1,REAL,FAKE,,,,,,,,,,,,,,,,,
,,,,,,,,,63e54336ed7afb1425f7888f,Spanish,13 or older,"no, only English or Spanish",no,2025-07-22_23h31.14.752,empathy_intonation_perc,2024.2.4,Win32,60.0240096,63e54336ed7afb1425f7888f,687ed1b7e638a4cbf2f02089,6880575fc555eae6537a4a8d,,,,,,,,,,,,,,0,,,,,,,,,,,,,,,,,,,,,,,,,,,,,,,,,,,,,,,,,,,,,,,,,,,,,,,,,79,tropaje,,,,,525.405,526.704,0,1,0.763,,0,54,54,78,1,REAL,FAKE,,,,,,,,,,,,,,,,,
,,,,,,,,,63e54336ed7afb1425f7888f,Spanish,13 or older,"no, only English or Spanish",no,2025-07-22_23h31.14.752,empathy_intonation_perc,2024.2.4,Win32,60.0240096,63e54336ed7afb1425f7888f,687ed1b7e638a4cbf2f02089,6880575fc555eae6537a4a8d,,,,,,,,,,,,,,1,,,,,,,,,,,,,,,,,,,,,,,,,,,,,,,,,,,,,,,,,,,,,,,,,,,,,,,,,83,guante,,,,,526.705,527.971,0,0,0.748,,0,55,55,82,1,REAL,FAKE,,,,,,,,,,,,,,,,,
,,,,,,,,,63e54336ed7afb1425f7888f,Spanish,13 or older,"no, only English or Spanish",no,2025-07-22_23h31.14.752,empathy_intonation_perc,2024.2.4,Win32,60.0240096,63e54336ed7afb1425f7888f,687ed1b7e638a4cbf2f02089,6880575fc555eae6537a4a8d,,,,,,,,,,,,,,0,,,,,,,,,,,,,,,,,,,,,,,,,,,,,,,,,,,,,,,,,,,,,,,,,,,,,,,,,70,temblo,,,,,527.971,529.388,0,1,0.874,,0,56,56,69,1,REAL,FAKE,,,,,,,,,,,,,,,,,
,,,,,,,,,63e54336ed7afb1425f7888f,Spanish,13 or older,"no, only English or Spanish",no,2025-07-22_23h31.14.752,empathy_intonation_perc,2024.2.4,Win32,60.0240096,63e54336ed7afb1425f7888f,687ed1b7e638a4cbf2f02089,6880575fc555eae6537a4a8d,,,,,,,,,,,,,,0,,,,,,,,,,,,,,,,,,,,,,,,,,,,,,,,,,,,,,,,,,,,,,,,,,,,,,,,,32,fatacidad,,,,,529.388,530.787,0,1,0.87,,0,57,57,31,1,REAL,FAKE,,,,,,,,,,,,,,,,,
,,,,,,,,,63e54336ed7afb1425f7888f,Spanish,13 or older,"no, only English or Spanish",no,2025-07-22_23h31.14.752,empathy_intonation_perc,2024.2.4,Win32,60.0240096,63e54336ed7afb1425f7888f,687ed1b7e638a4cbf2f02089,6880575fc555eae6537a4a8d,,,,,,,,,,,,,,1,,,,,,,,,,,,,,,,,,,,,,,,,,,,,,,,,,,,,,,,,,,,,,,,,,,,,,,,,24,látigo,,,,,530.787,532.037,0,0,0.725,,0,58,58,23,1,REAL,FAKE,,,,,,,,,,,,,,,,,
,,,,,,,,,63e54336ed7afb1425f7888f,Spanish,13 or older,"no, only English or Spanish",no,2025-07-22_23h31.14.752,empathy_intonation_perc,2024.2.4,Win32,60.0240096,63e54336ed7afb1425f7888f,687ed1b7e638a4cbf2f02089,6880575fc555eae6537a4a8d,,,,,,,,,,,,,,1,,,,,,,,,,,,,,,,,,,,,,,,,,,,,,,,,,,,,,,,,,,,,,,,,,,,,,,,,14,yunque,,,,,532.037,533.219,0,0,0.67,,0,59,59,13,1,REAL,FAKE,,,,,,,,,,,,,,,,,
,,,,,,,,,63e54336ed7afb1425f7888f,Spanish,13 or older,"no, only English or Spanish",no,2025-07-22_23h31.14.752,empathy_intonation_perc,2024.2.4,Win32,60.0240096,63e54336ed7afb1425f7888f,687ed1b7e638a4cbf2f02089,6880575fc555eae6537a4a8d,,,,,,,,,,,,,,0,,,,,,,,,,,,,,,,,,,,,,,,,,,,,,,,,,,,,,,,,,,,,,,,,,,,,,,,,92,click the 0 key.,,,,,533.22,534.671,0,1,0.94,,0,60,60,91,1,REAL,FAKE,,,,,,,,,,,,,,,,,
,,,,,,,,,63e54336ed7afb1425f7888f,Spanish,13 or older,"no, only English or Spanish",no,2025-07-22_23h31.14.752,empathy_intonation_perc,2024.2.4,Win32,60.0240096,63e54336ed7afb1425f7888f,687ed1b7e638a4cbf2f02089,6880575fc555eae6537a4a8d,,,,,,,,,,,,,,0,,,,,,,,,,,,,,,,,,,,,,,,,,,,,,,,,,,,,,,,,,,,,,,,,,,,,,,,,58,plaudir,,,,,534.671,536.254,0,1,1.043,,0,61,61,57,1,REAL,FAKE,,,,,,,,,,,,,,,,,
,,,,,,,,,63e54336ed7afb1425f7888f,Spanish,13 or older,"no, only English or Spanish",no,2025-07-22_23h31.14.752,empathy_intonation_perc,2024.2.4,Win32,60.0240096,63e54336ed7afb1425f7888f,687ed1b7e638a4cbf2f02089,6880575fc555eae6537a4a8d,,,,,,,,,,,,,,1,,,,,,,,,,,,,,,,,,,,,,,,,,,,,,,,,,,,,,,,,,,,,,,,,,,,,,,,,25,bisagra,,,,,536.254,537.723,0,0,0.944,,0,62,62,24,1,REAL,FAKE,,,,,,,,,,,,,,,,,
,,,,,,,,,63e54336ed7afb1425f7888f,Spanish,13 or older,"no, only English or Spanish",no,2025-07-22_23h31.14.752,empathy_intonation_perc,2024.2.4,Win32,60.0240096,63e54336ed7afb1425f7888f,687ed1b7e638a4cbf2f02089,6880575fc555eae6537a4a8d,,,,,,,,,,,,,,0,,,,,,,,,,,,,,,,,,,,,,,,,,,,,,,,,,,,,,,,,,,,,,,,,,,,,,,,,16,abracer,,,,,537.724,539.174,1,0,0.939,,0,63,63,15,1,REAL,FAKE,,,,,,,,,,,,,,,,,
,,,,,,,,,63e54336ed7afb1425f7888f,Spanish,13 or older,"no, only English or Spanish",no,2025-07-22_23h31.14.752,empathy_intonation_perc,2024.2.4,Win32,60.0240096,63e54336ed7afb1425f7888f,687ed1b7e638a4cbf2f02089,6880575fc555eae6537a4a8d,,,,,,,,,,,,,,1,,,,,,,,,,,,,,,,,,,,,,,,,,,,,,,,,,,,,,,,,,,,,,,,,,,,,,,,,41,rebuscar,,,,,539.174,540.524,1,1,0.817,,0,64,64,40,1,REAL,FAKE,,,,,,,,,,,,,,,,,
,,,,,,,,,63e54336ed7afb1425f7888f,Spanish,13 or older,"no, only English or Spanish",no,2025-07-22_23h31.14.752,empathy_intonation_perc,2024.2.4,Win32,60.0240096,63e54336ed7afb1425f7888f,687ed1b7e638a4cbf2f02089,6880575fc555eae6537a4a8d,,,,,,,,,,,,,,0,,,,,,,,,,,,,,,,,,,,,,,,,,,,,,,,,,,,,,,,,,,,,,,,,,,,,,,,,4,batillón,,,,,540.525,556.648,0,1,15.593,,0,65,65,3,1,REAL,FAKE,,,,,,,,,,,,,,,,,
,,,,,,,,,63e54336ed7afb1425f7888f,Spanish,13 or older,"no, only English or Spanish",no,2025-07-22_23h31.14.752,empathy_intonation_perc,2024.2.4,Win32,60.0240096,63e54336ed7afb1425f7888f,687ed1b7e638a4cbf2f02089,6880575fc555eae6537a4a8d,,,,,,,,,,,,,,1,,,,,,,,,,,,,,,,,,,,,,,,,,,,,,,,,,,,,,,,,,,,,,,,,,,,,,,,,11,cenefa,,,,,556.651,557.899,0,0,0.733,,0,66,66,10,1,REAL,FAKE,,,,,,,,,,,,,,,,,
,,,,,,,,,63e54336ed7afb1425f7888f,Spanish,13 or older,"no, only English or Spanish",no,2025-07-22_23h31.14.752,empathy_intonation_perc,2024.2.4,Win32,60.0240096,63e54336ed7afb1425f7888f,687ed1b7e638a4cbf2f02089,6880575fc555eae6537a4a8d,,,,,,,,,,,,,,0,,,,,,,,,,,,,,,,,,,,,,,,,,,,,,,,,,,,,,,,,,,,,,,,,,,,,,,,,27,acutación,,,,,557.9,560.465,0,1,2.055,,0,67,67,26,1,REAL,FAKE,,,,,,,,,,,,,,,,,
,,,,,,,,,63e54336ed7afb1425f7888f,Spanish,13 or older,"no, only English or Spanish",no,2025-07-22_23h31.14.752,empathy_intonation_perc,2024.2.4,Win32,60.0240096,63e54336ed7afb1425f7888f,687ed1b7e638a4cbf2f02089,6880575fc555eae6537a4a8d,,,,,,,,,,,,,,0,,,,,,,,,,,,,,,,,,,,,,,,,,,,,,,,,,,,,,,,,,,,,,,,,,,,,,,,,1,terzo,,,,,560.466,561.996,0,1,1.021,,0,68,68,0,1,REAL,FAKE,,,,,,,,,,,,,,,,,
,,,,,,,,,63e54336ed7afb1425f7888f,Spanish,13 or older,"no, only English or Spanish",no,2025-07-22_23h31.14.752,empathy_intonation_perc,2024.2.4,Win32,60.0240096,63e54336ed7afb1425f7888f,687ed1b7e638a4cbf2f02089,6880575fc555eae6537a4a8d,,,,,,,,,,,,,,0,,,,,,,,,,,,,,,,,,,,,,,,,,,,,,,,,,,,,,,,,,,,,,,,,,,,,,,,,35,rompido,,,,,561.997,563.456,1,0,0.948,,0,69,69,34,1,REAL,FAKE,,,,,,,,,,,,,,,,,
,,,,,,,,,63e54336ed7afb1425f7888f,Spanish,13 or older,"no, only English or Spanish",no,2025-07-22_23h31.14.752,empathy_intonation_perc,2024.2.4,Win32,60.0240096,63e54336ed7afb1425f7888f,687ed1b7e638a4cbf2f02089,6880575fc555eae6537a4a8d,,,,,,,,,,,,,,0,,,,,,,,,,,,,,,,,,,,,,,,,,,,,,,,,,,,,,,,,,,,,,,,,,,,,,,,,23,lampera,,,,,563.457,564.769,1,0,0.795,,0,70,70,22,1,REAL,FAKE,,,,,,,,,,,,,,,,,
,,,,,,,,,63e54336ed7afb1425f7888f,Spanish,13 or older,"no, only English or Spanish",no,2025-07-22_23h31.14.752,empathy_intonation_perc,2024.2.4,Win32,60.0240096,63e54336ed7afb1425f7888f,687ed1b7e638a4cbf2f02089,6880575fc555eae6537a4a8d,,,,,,,,,,,,,,1,,,,,,,,,,,,,,,,,,,,,,,,,,,,,,,,,,,,,,,,,,,,,,,,,,,,,,,,,68,alegre,,,,,564.771,566.021,1,1,0.736,,0,71,71,67,1,REAL,FAKE,,,,,,,,,,,,,,,,,
,,,,,,,,,63e54336ed7afb1425f7888f,Spanish,13 or older,"no, only English or Spanish",no,2025-07-22_23h31.14.752,empathy_intonation_perc,2024.2.4,Win32,60.0240096,63e54336ed7afb1425f7888f,687ed1b7e638a4cbf2f02089,6880575fc555eae6537a4a8d,,,,,,,,,,,,,,1,,,,,,,,,,,,,,,,,,,,,,,,,,,,,,,,,,,,,,,,,,,,,,,,,,,,,,,,,61,seda,,,,,566.022,567.238,0,0,0.704,,0,72,72,60,1,REAL,FAKE,,,,,,,,,,,,,,,,,
,,,,,,,,,63e54336ed7afb1425f7888f,Spanish,13 or older,"no, only English or Spanish",no,2025-07-22_23h31.14.752,empathy_intonation_perc,2024.2.4,Win32,60.0240096,63e54336ed7afb1425f7888f,687ed1b7e638a4cbf2f02089,6880575fc555eae6537a4a8d,,,,,,,,,,,,,,0,,,,,,,,,,,,,,,,,,,,,,,,,,,,,,,,,,,,,,,,,,,,,,,,,,,,,,,,,84,escuto,,,,,567.239,568.65,0,1,0.901,,0,73,73,83,1,REAL,FAKE,,,,,,,,,,,,,,,,,
,,,,,,,,,63e54336ed7afb1425f7888f,Spanish,13 or older,"no, only English or Spanish",no,2025-07-22_23h31.14.752,empathy_intonation_perc,2024.2.4,Win32,60.0240096,63e54336ed7afb1425f7888f,687ed1b7e638a4cbf2f02089,6880575fc555eae6537a4a8d,,,,,,,,,,,,,,1,,,,,,,,,,,,,,,,,,,,,,,,,,,,,,,,,,,,,,,,,,,,,,,,,,,,,,,,,64,orgulloso,,,,,568.65,575.798,1,1,6.631,,0,74,74,63,1,REAL,FAKE,,,,,,,,,,,,,,,,,
,,,,,,,,,63e54336ed7afb1425f7888f,Spanish,13 or older,"no, only English or Spanish",no,2025-07-22_23h31.14.752,empathy_intonation_perc,2024.2.4,Win32,60.0240096,63e54336ed7afb1425f7888f,687ed1b7e638a4cbf2f02089,6880575fc555eae6537a4a8d,,,,,,,,,,,,,,1,,,,,,,,,,,,,,,,,,,,,,,,,,,,,,,,,,,,,,,,,,,,,,,,,,,,,,,,,22,lacayo,,,,,575.799,599.454,0,0,23.133,,0,75,75,21,1,REAL,FAKE,,,,,,,,,,,,,,,,,
,,,,,,,,,63e54336ed7afb1425f7888f,Spanish,13 or older,"no, only English or Spanish",no,2025-07-22_23h31.14.752,empathy_intonation_perc,2024.2.4,Win32,60.0240096,63e54336ed7afb1425f7888f,687ed1b7e638a4cbf2f02089,6880575fc555eae6537a4a8d,,,,,,,,,,,,,,1,,,,,,,,,,,,,,,,,,,,,,,,,,,,,,,,,,,,,,,,,,,,,,,,,,,,,,,,,5,zapato,,,,,599.457,600.859,1,1,0.878,,0,76,76,4,1,REAL,FAKE,,,,,,,,,,,,,,,,,
,,,,,,,,,63e54336ed7afb1425f7888f,Spanish,13 or older,"no, only English or Spanish",no,2025-07-22_23h31.14.752,empathy_intonation_perc,2024.2.4,Win32,60.0240096,63e54336ed7afb1425f7888f,687ed1b7e638a4cbf2f02089,6880575fc555eae6537a4a8d,,,,,,,,,,,,,,1,,,,,,,,,,,,,,,,,,,,,,,,,,,,,,,,,,,,,,,,,,,,,,,,,,,,,,,,,65,bizcocho,,,,,600.86,603.383,0,0,2.002,,0,77,77,64,1,REAL,FAKE,,,,,,,,,,,,,,,,,
,,,,,,,,,63e54336ed7afb1425f7888f,Spanish,13 or older,"no, only English or Spanish",no,2025-07-22_23h31.14.752,empathy_intonation_perc,2024.2.4,Win32,60.0240096,63e54336ed7afb1425f7888f,687ed1b7e638a4cbf2f02089,6880575fc555eae6537a4a8d,,,,,,,,,,,,,,0,,,,,,,,,,,,,,,,,,,,,,,,,,,,,,,,,,,,,,,,,,,,,,,,,,,,,,,,,53,vegada,,,,,603.383,604.849,0,1,0.944,,0,78,78,52,1,REAL,FAKE,,,,,,,,,,,,,,,,,
,,,,,,,,,63e54336ed7afb1425f7888f,Spanish,13 or older,"no, only English or Spanish",no,2025-07-22_23h31.14.752,empathy_intonation_perc,2024.2.4,Win32,60.0240096,63e54336ed7afb1425f7888f,687ed1b7e638a4cbf2f02089,6880575fc555eae6537a4a8d,,,,,,,,,,,,,,1,,,,,,,,,,,,,,,,,,,,,,,,,,,,,,,,,,,,,,,,,,,,,,,,,,,,,,,,,56,musgo,,,,,604.85,606.275,0,0,0.907,,0,79,79,55,1,REAL,FAKE,,,,,,,,,,,,,,,,,
,,,,,,,,,63e54336ed7afb1425f7888f,Spanish,13 or older,"no, only English or Spanish",no,2025-07-22_23h31.14.752,empathy_intonation_perc,2024.2.4,Win32,60.0240096,63e54336ed7afb1425f7888f,687ed1b7e638a4cbf2f02089,6880575fc555eae6537a4a8d,,,,,,,,,,,,,,0,,,,,,,,,,,,,,,,,,,,,,,,,,,,,,,,,,,,,,,,,,,,,,,,,,,,,,,,,8,cadeña,,,,,606.275,608.918,1,0,2.133,,0,80,80,7,1,REAL,FAKE,,,,,,,,,,,,,,,,,
,,,,,,,,,63e54336ed7afb1425f7888f,Spanish,13 or older,"no, only English or Spanish",no,2025-07-22_23h31.14.752,empathy_intonation_perc,2024.2.4,Win32,60.0240096,63e54336ed7afb1425f7888f,687ed1b7e638a4cbf2f02089,6880575fc555eae6537a4a8d,,,,,,,,,,,,,,1,,,,,,,,,,,,,,,,,,,,,,,,,,,,,,,,,,,,,,,,,,,,,,,,,,,,,,,,,26,secuestro,,,,,608.919,610.072,0,0,0.643,,0,81,81,25,1,REAL,FAKE,,,,,,,,,,,,,,,,,
,,,,,,,,,63e54336ed7afb1425f7888f,Spanish,13 or older,"no, only English or Spanish",no,2025-07-22_23h31.14.752,empathy_intonation_perc,2024.2.4,Win32,60.0240096,63e54336ed7afb1425f7888f,687ed1b7e638a4cbf2f02089,6880575fc555eae6537a4a8d,,,,,,,,,,,,,,1,,,,,,,,,,,,,,,,,,,,,,,,,,,,,,,,,,,,,,,,,,,,,,,,,,,,,,,,,52,camisa,,,,,610.072,611.567,1,1,0.984,,0,82,82,51,1,REAL,FAKE,,,,,,,,,,,,,,,,,
,,,,,,,,,63e54336ed7afb1425f7888f,Spanish,13 or older,"no, only English or Spanish",no,2025-07-22_23h31.14.752,empathy_intonation_perc,2024.2.4,Win32,60.0240096,63e54336ed7afb1425f7888f,687ed1b7e638a4cbf2f02089,6880575fc555eae6537a4a8d,,,,,,,,,,,,,,1,,,,,,,,,,,,,,,,,,,,,,,,,,,,,,,,,,,,,,,,,,,,,,,,,,,,,,,,,91,click the 1 key.,,,,,611.567,612.77,1,1,0.681,,0,83,83,90,1,REAL,FAKE,,,,,,,,,,,,,,,,,
,,,,,,,,,63e54336ed7afb1425f7888f,Spanish,13 or older,"no, only English or Spanish",no,2025-07-22_23h31.14.752,empathy_intonation_perc,2024.2.4,Win32,60.0240096,63e54336ed7afb1425f7888f,687ed1b7e638a4cbf2f02089,6880575fc555eae6537a4a8d,,,,,,,,,,,,,,1,,,,,,,,,,,,,,,,,,,,,,,,,,,,,,,,,,,,,,,,,,,,,,,,,,,,,,,,,28,merodear,,,,,612.771,614.112,0,0,0.827,,0,84,84,27,1,REAL,FAKE,,,,,,,,,,,,,,,,,
,,,,,,,,,63e54336ed7afb1425f7888f,Spanish,13 or older,"no, only English or Spanish",no,2025-07-22_23h31.14.752,empathy_intonation_perc,2024.2.4,Win32,60.0240096,63e54336ed7afb1425f7888f,687ed1b7e638a4cbf2f02089,6880575fc555eae6537a4a8d,,,,,,,,,,,,,,1,,,,,,,,,,,,,,,,,,,,,,,,,,,,,,,,,,,,,,,,,,,,,,,,,,,,,,,,,69,engatusar,,,,,614.113,615.225,0,0,0.594,,0,85,85,68,1,REAL,FAKE,,,,,,,,,,,,,,,,,
,,,,,,,,,63e54336ed7afb1425f7888f,Spanish,13 or older,"no, only English or Spanish",no,2025-07-22_23h31.14.752,empathy_intonation_perc,2024.2.4,Win32,60.0240096,63e54336ed7afb1425f7888f,687ed1b7e638a4cbf2f02089,6880575fc555eae6537a4a8d,,,,,,,,,,,,,,1,,,,,,,,,,,,,,,,,,,,,,,,,,,,,,,,,,,,,,,,,,,,,,,,,,,,,,,,,20,ávido,,,,,615.225,616.553,1,1,0.805,,0,86,86,19,1,REAL,FAKE,,,,,,,,,,,,,,,,,
,,,,,,,,,63e54336ed7afb1425f7888f,Spanish,13 or older,"no, only English or Spanish",no,2025-07-22_23h31.14.752,empathy_intonation_perc,2024.2.4,Win32,60.0240096,63e54336ed7afb1425f7888f,687ed1b7e638a4cbf2f02089,6880575fc555eae6537a4a8d,,,,,,,,,,,,,,0,,,,,,,,,,,,,,,,,,,,,,,,,,,,,,,,,,,,,,,,,,,,,,,,,,,,,,,,,50,flamida,,,,,616.554,617.832,0,1,0.766,,0,87,87,49,1,REAL,FAKE,,,,,,,,,,,,,,,,,
,,,,,,,,,63e54336ed7afb1425f7888f,Spanish,13 or older,"no, only English or Spanish",no,2025-07-22_23h31.14.752,empathy_intonation_perc,2024.2.4,Win32,60.0240096,63e54336ed7afb1425f7888f,687ed1b7e638a4cbf2f02089,6880575fc555eae6537a4a8d,,,,,,,,,,,,,,0,,,,,,,,,,,,,,,,,,,,,,,,,,,,,,,,,,,,,,,,,,,,,,,,,,,,,,,,,47,cartinar,,,,,617.833,619.202,1,0,0.857,,0,88,88,46,1,REAL,FAKE,,,,,,,,,,,,,,,,,
,,,,,,,,,63e54336ed7afb1425f7888f,Spanish,13 or older,"no, only English or Spanish",no,2025-07-22_23h31.14.752,empathy_intonation_perc,2024.2.4,Win32,60.0240096,63e54336ed7afb1425f7888f,687ed1b7e638a4cbf2f02089,6880575fc555eae6537a4a8d,,,,,,,,,,,,,,0,,,,,,,,,,,,,,,,,,,,,,,,,,,,,,,,,,,,,,,,,,,,,,,,,,,,,,,,,19,brecedad,,,,,619.203,620.697,0,1,0.984,,0,89,89,18,1,REAL,FAKE,,,,,,,,,,,,,,,,,
,,,,,,,,,63e54336ed7afb1425f7888f,Spanish,13 or older,"no, only English or Spanish",no,2025-07-22_23h31.14.752,empathy_intonation_perc,2024.2.4,Win32,60.0240096,63e54336ed7afb1425f7888f,687ed1b7e638a4cbf2f02089,6880575fc555eae6537a4a8d,,,,,,,,,,,,,,0,,,,,,,,,,,,,,,,,,,,,,,,,,,,,,,,,,,,,,,,,,,,,,,,,,,,,,,,,42,cadallo,,,,,620.699,621.844,0,1,0.618,,0,90,90,41,1,REAL,FAKE,,,,,,,,,,,,,,,,,
,,,,,,,,,63e54336ed7afb1425f7888f,Spanish,13 or older,"no, only English or Spanish",no,2025-07-22_23h31.14.752,empathy_intonation_perc,2024.2.4,Win32,60.0240096,63e54336ed7afb1425f7888f,687ed1b7e638a4cbf2f02089,6880575fc555eae6537a4a8d,,,,,,,,,,,,,,1,,,,,,,,,,,,,,,,,,,,,,,,,,,,,,,,,,,,,,,,,,,,,,,,,,,,,,,,,2,pellizcar,,,,,621.845,622.929,0,0,0.565,,0,91,91,1,1,REAL,FAKE,,,,,,,,,,,,,,,,,
,,,,,,,,,63e54336ed7afb1425f7888f,Spanish,13 or older,"no, only English or Spanish",no,2025-07-22_23h31.14.752,empathy_intonation_perc,2024.2.4,Win32,60.0240096,63e54336ed7afb1425f7888f,687ed1b7e638a4cbf2f02089,6880575fc555eae6537a4a8d,,,,,,,,,,,,,,,,,,,,,,,,,,,,,,,,,,,,,,,,,,,,,,,,,,,,,,,,,,,,,,,,,,,,,,,,,,,,,,,,,,,,,,,,,,622.929,626.656,,,,,,,,,,,,,,,
,,,,,,,,,63e54336ed7afb1425f7888f,Spanish,13 or older,"no, only English or Spanish",no,2025-07-22_23h31.14.752,empathy_intonation_perc,2024.2.4,Win32,60.0240096,63e54336ed7afb1425f7888f,687ed1b7e638a4cbf2f02089,6880575fc555eae6537a4a8d,,,,,,,,,,,,,1,,,,,,,,,,,,,,,,,,,,,,,,,,,,,,,,,,,,,,,,,,,,,,,,,,,,,,,,,,,,,,,,,,,,,,,,,,,,,,,626.665,634.159,slightly agree,0,0,0,0,1,I can easily tell if someone else wants to enter a conversation.,1,0,1,0,,
,,,,,,,,,63e54336ed7afb1425f7888f,Spanish,13 or older,"no, only English or Spanish",no,2025-07-22_23h31.14.752,empathy_intonation_perc,2024.2.4,Win32,60.0240096,63e54336ed7afb1425f7888f,687ed1b7e638a4cbf2f02089,6880575fc555eae6537a4a8d,,,,,,,,,,,,,2,,,,,,,,,,,,,,,,,,,,,,,,,,,,,,,,,,,,,,,,,,,,,,,,,,,,,,,,,,,,,,,,,,,,,,,,,,,,,,,634.16,668.058,slightly agree,0,1,1,1,1,I prefer animals to humans.,0,1,0,0,,
,,,,,,,,,63e54336ed7afb1425f7888f,Spanish,13 or older,"no, only English or Spanish",no,2025-07-22_23h31.14.752,empathy_intonation_perc,2024.2.4,Win32,60.0240096,63e54336ed7afb1425f7888f,687ed1b7e638a4cbf2f02089,6880575fc555eae6537a4a8d,,,,,,,,,,,,,3,,,,,,,,,,,,,,,,,,,,,,,,,,,,,,,,,,,,,,,,,,,,,,,,,,,,,,,,,,,,,,,,,,,,,,,,,,,,,,,668.059,670.234,strongly disagree,0,2,2,2,1,I try to keep up with the current trends and fashions.,0,1,0,0,,
,,,,,,,,,63e54336ed7afb1425f7888f,Spanish,13 or older,"no, only English or Spanish",no,2025-07-22_23h31.14.752,empathy_intonation_perc,2024.2.4,Win32,60.0240096,63e54336ed7afb1425f7888f,687ed1b7e638a4cbf2f02089,6880575fc555eae6537a4a8d,,,,,,,,,,,,,4,,,,,,,,,,,,,,,,,,,,,,,,,,,,,,,,,,,,,,,,,,,,,,,,,,,,,,,,,,,,,,,,,,,,,,,,,,,,,,,670.234,673.863,slightly agree,0,3,3,3,1,"I find it difficult to explain to others things that I understand easily,   when they don't understand it first time.",1,0,0,1,,
,,,,,,,,,63e54336ed7afb1425f7888f,Spanish,13 or older,"no, only English or Spanish",no,2025-07-22_23h31.14.752,empathy_intonation_perc,2024.2.4,Win32,60.0240096,63e54336ed7afb1425f7888f,687ed1b7e638a4cbf2f02089,6880575fc555eae6537a4a8d,,,,,,,,,,,,,5,,,,,,,,,,,,,,,,,,,,,,,,,,,,,,,,,,,,,,,,,,,,,,,,,,,,,,,,,,,,,,,,,,,,,,,,,,,,,,,673.864,675.873,strongly disagree,0,4,4,4,1,I dream most nights.,0,1,0,0,,
,,,,,,,,,63e54336ed7afb1425f7888f,Spanish,13 or older,"no, only English or Spanish",no,2025-07-22_23h31.14.752,empathy_intonation_perc,2024.2.4,Win32,60.0240096,63e54336ed7afb1425f7888f,687ed1b7e638a4cbf2f02089,6880575fc555eae6537a4a8d,,,,,,,,,,,,,6,,,,,,,,,,,,,,,,,,,,,,,,,,,,,,,,,,,,,,,,,,,,,,,,,,,,,,,,,,,,,,,,,,,,,,,,,,,,,,,675.874,678.508,slightly agree,0,5,5,5,1,I really enjoy caring for other people.,1,0,1,0,,
,,,,,,,,,63e54336ed7afb1425f7888f,Spanish,13 or older,"no, only English or Spanish",no,2025-07-22_23h31.14.752,empathy_intonation_perc,2024.2.4,Win32,60.0240096,63e54336ed7afb1425f7888f,687ed1b7e638a4cbf2f02089,6880575fc555eae6537a4a8d,,,,,,,,,,,,,7,,,,,,,,,,,,,,,,,,,,,,,,,,,,,,,,,,,,,,,,,,,,,,,,,,,,,,,,,,,,,,,,,,,,,,,,,,,,,,,678.509,685.573,slightly disagree,0,6,6,6,1,I try to solve my own problems rather than discussing them with others.,0,1,0,0,,
,,,,,,,,,63e54336ed7afb1425f7888f,Spanish,13 or older,"no, only English or Spanish",no,2025-07-22_23h31.14.752,empathy_intonation_perc,2024.2.4,Win32,60.0240096,63e54336ed7afb1425f7888f,687ed1b7e638a4cbf2f02089,6880575fc555eae6537a4a8d,,,,,,,,,,,,,8,,,,,,,,,,,,,,,,,,,,,,,,,,,,,,,,,,,,,,,,,,,,,,,,,,,,,,,,,,,,,,,,,,,,,,,,,,,,,,,685.574,717.824,slightly agree,0,7,7,7,1,I find it hard to know what to do in a social situation.,1,0,0,1,,
,,,,,,,,,63e54336ed7afb1425f7888f,Spanish,13 or older,"no, only English or Spanish",no,2025-07-22_23h31.14.752,empathy_intonation_perc,2024.2.4,Win32,60.0240096,63e54336ed7afb1425f7888f,687ed1b7e638a4cbf2f02089,6880575fc555eae6537a4a8d,,,,,,,,,,,,,9,,,,,,,,,,,,,,,,,,,,,,,,,,,,,,,,,,,,,,,,,,,,,,,,,,,,,,,,,,,,,,,,,,,,,,,,,,,,,,,717.825,719.583,strongly disagree,0,8,8,8,1,I am at my best first thing in the morning.,0,1,0,0,,
,,,,,,,,,63e54336ed7afb1425f7888f,Spanish,13 or older,"no, only English or Spanish",no,2025-07-22_23h31.14.752,empathy_intonation_perc,2024.2.4,Win32,60.0240096,63e54336ed7afb1425f7888f,687ed1b7e638a4cbf2f02089,6880575fc555eae6537a4a8d,,,,,,,,,,,,,10,,,,,,,,,,,,,,,,,,,,,,,,,,,,,,,,,,,,,,,,,,,,,,,,,,,,,,,,,,,,,,,,,,,,,,,,,,,,,,,719.585,722.413,slightly agree,0,9,9,9,1,People often tell me that I went too far in driving my point home in a discussion.,1,0,0,1,,
,,,,,,,,,63e54336ed7afb1425f7888f,Spanish,13 or older,"no, only English or Spanish",no,2025-07-22_23h31.14.752,empathy_intonation_perc,2024.2.4,Win32,60.0240096,63e54336ed7afb1425f7888f,687ed1b7e638a4cbf2f02089,6880575fc555eae6537a4a8d,,,,,,,,,,,,,11,,,,,,,,,,,,,,,,,,,,,,,,,,,,,,,,,,,,,,,,,,,,,,,,,,,,,,,,,,,,,,,,,,,,,,,,,,,,,,,722.414,733.566,slightly agree,0,10,10,10,1,It doesn't bother me too much if I am late meeting a friend.,1,0,0,1,,
,,,,,,,,,63e54336ed7afb1425f7888f,Spanish,13 or older,"no, only English or Spanish",no,2025-07-22_23h31.14.752,empathy_intonation_perc,2024.2.4,Win32,60.0240096,63e54336ed7afb1425f7888f,687ed1b7e638a4cbf2f02089,6880575fc555eae6537a4a8d,,,,,,,,,,,,,12,,,,,,,,,,,,,,,,,,,,,,,,,,,,,,,,,,,,,,,,,,,,,,,,,,,,,,,,,,,,,,,,,,,,,,,,,,,,,,,733.568,735.611,strongly disagree,0,11,11,11,1,"Friendships and relationships are just too difficult, so I tend not to 
  bother with them.",1,0,0,1,,
