instructions_exposure.started,instructions_exposure.stopped,instructions_exposure_loop.thisRepN,instructions_exposure_loop.thisTrialN,instructions_exposure_loop.thisN,instructions_exposure_loop.thisIndex,instructions_exposure_loop.ran,instructions_text,continue_text,participant_id,"What variety of Spanish are you most familiar with? (e.g., Peruvian, Spanish, Mexican)",At what age did you begin learning Spanish?,Are you proficient in any languages other than English/Spanish?,"Are you familiar with Caribbean (e.g., Caribbean, Puerto Rican) or Galician Spanish?",date,expName,psychopyVersion,OS,frameRate,id,study_id,session,trial_exposure.started,trial_exposure.stopped,key_resp_exposure.keys,key_resp_exposure.corr,key_resp_exposure.rt,key_resp_exposure.duration,key_resp.keys,exposure_loop.thisRepN,exposure_loop.thisTrialN,exposure_loop.thisN,exposure_loop.thisIndex,exposure_loop.ran,item_num,correct_response,question,path,duration,instructions_2afc.started,instructions_2afc.stopped,instructions_2afc_loop.thisRepN,instructions_2afc_loop.thisTrialN,instructions_2afc_loop.thisN,instructions_2afc_loop.thisIndex,instructions_2afc_loop.ran,practice_2afc.started,practice_2afc.stopped,key_resp_2afc_practice.keys,key_resp_2afc_practice.corr,key_resp_2afc_practice.rt,key_resp_2afc_practice.duration,trials_2afc_practice_loop.thisRepN,trials_2afc_practice_loop.thisTrialN,trials_2afc_practice_loop.thisN,trials_2afc_practice_loop.thisIndex,trials_2afc_practice_loop.ran,check_2afc.started,check_2afc.stopped,trial_2afc.started,trial_2afc.stopped,key_resp_2afc_trial.keys,key_resp_2afc_trial.corr,key_resp_2afc_trial.rt,key_resp_2afc_trial.duration,trials_2afc_loop.thisRepN,trials_2afc_loop.thisTrialN,trials_2afc_loop.thisN,trials_2afc_loop.thisIndex,trials_2afc_loop.ran,target,variety,instructions_lextale.started,instructions_lextale.stopped,instructions_lextale_loop.thisRepN,instructions_lextale_loop.thisTrialN,instructions_lextale_loop.thisN,instructions_lextale_loop.thisIndex,instructions_lextale_loop.ran,practice_lextale.started,practice_lextale.stopped,key_resp_lextale_practice.keys,key_resp_lextale_practice.corr,key_resp_lextale_practice.rt,key_resp_lextale_practice.duration,practice_feedback_lextale.started,practice_feedback_lextale.stopped,trials_lextale_practice_loop.thisRepN,trials_lextale_practice_loop.thisTrialN,trials_lextale_practice_loop.thisN,trials_lextale_practice_loop.thisIndex,trials_lextale_practice_loop.ran,stim,word,prac_button_real,prac_button_false,check_lextale.started,check_lextale.stopped,trial_lextale.started,trial_lextale.stopped,key_resp_lextale_trial.keys,key_resp_lextale_trial.corr,key_resp_lextale_trial.rt,key_resp_lextale_trial.duration,trials_lextale_loop.thisRepN,trials_lextale_loop.thisTrialN,trials_lextale_loop.thisN,trials_lextale_loop.thisIndex,trials_lextale_loop.ran,button_real,button_false,instructions_eq.started,instructions_eq.stopped,trial_eq.started,trial_eq.stopped,slider_eq_trial.response,trials_eq_loop.thisRepN,trials_eq_loop.thisTrialN,trials_eq_loop.thisN,trials_eq_loop.thisIndex,trials_eq_loop.ran,item,is_test_item,is_distractor,is_agree_score,is_disagree_score,end_exp.started,end_exp.stopped
0.0137,2.7904,0,0,0,0,1,"In the following task, you are going to hear a series of conversations.", (press the space bar to continue),63e51e55974365f1e43df265,Spanish,13 or older,"no, only English or Spanish",yes,2025-07-22_21h25.12.042,empathy_intonation_perc,2024.2.4,MacIntel,59.88023952,63e51e55974365f1e43df265,687ed1b7e638a4cbf2f02089,688039cb0d12e540289dbf81,,,,,,,,,,,,,,,,,,,,,,,,,,,,,,,,,,,,,,,,,,,,,,,,,,,,,,,,,,,,,,,,,,,,,,,,,,,,,,,,,,,,,,,,,,,,,,,,,,,,,,,,,,
2.7909,3.1067,0,1,1,1,1,It is okay if you don't not 100% understand them!, (press the space bar to continue),63e51e55974365f1e43df265,Spanish,13 or older,"no, only English or Spanish",yes,2025-07-22_21h25.12.042,empathy_intonation_perc,2024.2.4,MacIntel,59.88023952,63e51e55974365f1e43df265,687ed1b7e638a4cbf2f02089,688039cb0d12e540289dbf81,,,,,,,,,,,,,,,,,,,,,,,,,,,,,,,,,,,,,,,,,,,,,,,,,,,,,,,,,,,,,,,,,,,,,,,,,,,,,,,,,,,,,,,,,,,,,,,,,,,,,,,,,,
3.1076,3.3565,0,2,2,2,1,"After, you will read a sentence about the conversation and decide if it's true or false.", (press the space bar to continue),63e51e55974365f1e43df265,Spanish,13 or older,"no, only English or Spanish",yes,2025-07-22_21h25.12.042,empathy_intonation_perc,2024.2.4,MacIntel,59.88023952,63e51e55974365f1e43df265,687ed1b7e638a4cbf2f02089,688039cb0d12e540289dbf81,,,,,,,,,,,,,,,,,,,,,,,,,,,,,,,,,,,,,,,,,,,,,,,,,,,,,,,,,,,,,,,,,,,,,,,,,,,,,,,,,,,,,,,,,,,,,,,,,,,,,,,,,,
3.3573,3.5556,0,3,3,3,1,"If it's true, press '1' (True) and if it's false press '0' (False).", (press the space bar to continue),63e51e55974365f1e43df265,Spanish,13 or older,"no, only English or Spanish",yes,2025-07-22_21h25.12.042,empathy_intonation_perc,2024.2.4,MacIntel,59.88023952,63e51e55974365f1e43df265,687ed1b7e638a4cbf2f02089,688039cb0d12e540289dbf81,,,,,,,,,,,,,,,,,,,,,,,,,,,,,,,,,,,,,,,,,,,,,,,,,,,,,,,,,,,,,,,,,,,,,,,,,,,,,,,,,,,,,,,,,,,,,,,,,,,,,,,,,,
,,,,,,,,,63e51e55974365f1e43df265,Spanish,13 or older,"no, only English or Spanish",yes,2025-07-22_21h25.12.042,empathy_intonation_perc,2024.2.4,MacIntel,59.88023952,63e51e55974365f1e43df265,687ed1b7e638a4cbf2f02089,688039cb0d12e540289dbf81,3.5636,60.64,0,0,1.6353,,,0,0,0,0,1,1,1,The son asked the mom if Aunt Marina is okay.,./stim/exposure_wavs/ga_stimuli_convo.wav,47,,,,,,,,,,,,,,,,,,,,,,,,,,,,,,,,,,,,,,,,,,,,,,,,,,,,,,,,,,,,,,,,,,,,,,,,,,,,,,,,,,,,,,,,,
,,,,,,,,,63e51e55974365f1e43df265,Spanish,13 or older,"no, only English or Spanish",yes,2025-07-22_21h25.12.042,empathy_intonation_perc,2024.2.4,MacIntel,59.88023952,63e51e55974365f1e43df265,687ed1b7e638a4cbf2f02089,688039cb0d12e540289dbf81,60.6417,104.7899,1,0,0.3782,,,0,1,1,2,1,3,0,The mom already has rice.,./stim/exposure_wavs/pr_stimuli_convo.wav,36,,,,,,,,,,,,,,,,,,,,,,,,,,,,,,,,,,,,,,,,,,,,,,,,,,,,,,,,,,,,,,,,,,,,,,,,,,,,,,,,,,,,,,,,,
,,,,,,,,,63e51e55974365f1e43df265,Spanish,13 or older,"no, only English or Spanish",yes,2025-07-22_21h25.12.042,empathy_intonation_perc,2024.2.4,MacIntel,59.88023952,63e51e55974365f1e43df265,687ed1b7e638a4cbf2f02089,688039cb0d12e540289dbf81,104.7979,652.7019,1,1,487.8715,,,0,2,2,1,1,2,1,The mom asked the daughter if she already went to the supermarket.,./stim/exposure_wavs/dr_stimuli_convo.wav,60,,,,,,,,,,,,,,,,,,,,,,,,,,,,,,,,,,,,,,,,,,,,,,,,,,,,,,,,,,,,,,,,,,,,,,,,,,,,,,,,,,,,,,,,,
,,,,,,,"In the following task you are going to hear a series of utterances. 

  You will decide if the utterances sound like questions or not using your keyboard.", (press the spacebar to continue),63e51e55974365f1e43df265,Spanish,13 or older,"no, only English or Spanish",yes,2025-07-22_21h25.12.042,empathy_intonation_perc,2024.2.4,MacIntel,59.88023952,63e51e55974365f1e43df265,687ed1b7e638a4cbf2f02089,688039cb0d12e540289dbf81,,,,,,,,,,,,,,,,,,652.7203,654.6806,0,0,0,0,1,,,,,,,,,,,,,,,,,,,,,,,,,,,,,,,,,,,,,,,,,,,,,,,,,,,,,,,,,,,,,,,,,,,,,,,,,,,,,,,,,,
,,,,,,,"If you believe the utterance is a question, type '1' (for 'yes') and if you do not 
  believe it is a question type '0' (for 'no').

  Let's practice a bit...", (press the spacebar to continue),63e51e55974365f1e43df265,Spanish,13 or older,"no, only English or Spanish",yes,2025-07-22_21h25.12.042,empathy_intonation_perc,2024.2.4,MacIntel,59.88023952,63e51e55974365f1e43df265,687ed1b7e638a4cbf2f02089,688039cb0d12e540289dbf81,,,,,,,,,,,,,,,,,,654.6821,656.497,0,1,1,1,1,,,,,,,,,,,,,,,,,,,,,,,,,,,,,,,,,,,,,,,,,,,,,,,,,,,,,,,,,,,,,,,,,,,,,,,,,,,,,,,,,,
,,,,,,,,,63e51e55974365f1e43df265,Spanish,13 or older,"no, only English or Spanish",yes,2025-07-22_21h25.12.042,empathy_intonation_perc,2024.2.4,MacIntel,59.88023952,63e51e55974365f1e43df265,687ed1b7e638a4cbf2f02089,688039cb0d12e540289dbf81,,,,,,,,,,,,,,1,,./stim/wavs/mexican_question_filler_Felipe-no-tiene-contrasena.wav,,,,,,,,,656.5042,658.8003,1,1,1.7807,,0,0,0,3,1,,,,,,,,,,,,,,,,,,,,,,,,,,,,,,,,,,,,,,,,,,,,,,,,,,,,,,,,,,,,,,,,,,,,,,,
,,,,,,,,,63e51e55974365f1e43df265,Spanish,13 or older,"no, only English or Spanish",yes,2025-07-22_21h25.12.042,empathy_intonation_perc,2024.2.4,MacIntel,59.88023952,63e51e55974365f1e43df265,687ed1b7e638a4cbf2f02089,688039cb0d12e540289dbf81,,,,,,,,,,,,,,0,,./stim/wavs/cuban_statement_filler_Cocinabas-por-la-noche.wav,,,,,,,,,658.8009,660.7971,0,1,1.4696,,0,1,1,4,1,,,,,,,,,,,,,,,,,,,,,,,,,,,,,,,,,,,,,,,,,,,,,,,,,,,,,,,,,,,,,,,,,,,,,,,
,,,,,,,,,63e51e55974365f1e43df265,Spanish,13 or older,"no, only English or Spanish",yes,2025-07-22_21h25.12.042,empathy_intonation_perc,2024.2.4,MacIntel,59.88023952,63e51e55974365f1e43df265,687ed1b7e638a4cbf2f02089,688039cb0d12e540289dbf81,,,,,,,,,,,,,,0,,./stim/wavs/peruvian_statement_filler_El-nino-habla-con-su-madre.wav,,,,,,,,,660.7974,662.9804,0,1,1.6718,,0,2,2,6,1,,,,,,,,,,,,,,,,,,,,,,,,,,,,,,,,,,,,,,,,,,,,,,,,,,,,,,,,,,,,,,,,,,,,,,,
,,,,,,,,,63e51e55974365f1e43df265,Spanish,13 or older,"no, only English or Spanish",yes,2025-07-22_21h25.12.042,empathy_intonation_perc,2024.2.4,MacIntel,59.88023952,63e51e55974365f1e43df265,687ed1b7e638a4cbf2f02089,688039cb0d12e540289dbf81,,,,,,,,,,,,,,1,,./stim/wavs/castilian_question_filler_Mi-esposo-conoce-al-chico.wav,,,,,,,,,662.9808,663.8639,1,1,0.3513,,0,3,3,0,1,,,,,,,,,,,,,,,,,,,,,,,,,,,,,,,,,,,,,,,,,,,,,,,,,,,,,,,,,,,,,,,,,,,,,,,
,,,,,,,,,63e51e55974365f1e43df265,Spanish,13 or older,"no, only English or Spanish",yes,2025-07-22_21h25.12.042,empathy_intonation_perc,2024.2.4,MacIntel,59.88023952,63e51e55974365f1e43df265,687ed1b7e638a4cbf2f02089,688039cb0d12e540289dbf81,,,,,,,,,,,,,,1,,./stim/wavs/argentine_question_filler_Mi-vecino-habla-mucho.wav,,,,,,,,,663.8642,664.4637,0,0,0.0697,,0,4,4,1,1,,,,,,,,,,,,,,,,,,,,,,,,,,,,,,,,,,,,,,,,,,,,,,,,,,,,,,,,,,,,,,,,,,,,,,,
,,,,,,,,,63e51e55974365f1e43df265,Spanish,13 or older,"no, only English or Spanish",yes,2025-07-22_21h25.12.042,empathy_intonation_perc,2024.2.4,MacIntel,59.88023952,63e51e55974365f1e43df265,687ed1b7e638a4cbf2f02089,688039cb0d12e540289dbf81,,,,,,,,,,,,,,1,,./stim/wavs/chilean_question_filler_Mi-padre-cantaba-bien.wav,,,,,,,,,664.4641,665.0305,0,0,0.0336,,0,5,5,2,1,,,,,,,,,,,,,,,,,,,,,,,,,,,,,,,,,,,,,,,,,,,,,,,,,,,,,,,,,,,,,,,,,,,,,,,
,,,,,,,,,63e51e55974365f1e43df265,Spanish,13 or older,"no, only English or Spanish",yes,2025-07-22_21h25.12.042,empathy_intonation_perc,2024.2.4,MacIntel,59.88023952,63e51e55974365f1e43df265,687ed1b7e638a4cbf2f02089,688039cb0d12e540289dbf81,,,,,,,,,,,,,,0,,./stim/wavs/puertorican_statement_filler_La-nina-pinta-con-su-amiga.wav,,,,,,,,,665.0311,665.5637,1,0,0.0008,,0,6,6,7,1,,,,,,,,,,,,,,,,,,,,,,,,,,,,,,,,,,,,,,,,,,,,,,,,,,,,,,,,,,,,,,,,,,,,,,,
,,,,,,,,,63e51e55974365f1e43df265,Spanish,13 or older,"no, only English or Spanish",yes,2025-07-22_21h25.12.042,empathy_intonation_perc,2024.2.4,MacIntel,59.88023952,63e51e55974365f1e43df265,687ed1b7e638a4cbf2f02089,688039cb0d12e540289dbf81,,,,,,,,,,,,,,0,,./stim/wavs/andalusian_statement_filler_Alberto-nunca-se-afeita.wav,,,,,,,,,665.5641,666.2305,1,0,0.1383,,0,7,7,5,1,,,,,,,,,,,,,,,,,,,,,,,,,,,,,,,,,,,,,,,,,,,,,,,,,,,,,,,,,,,,,,,,,,,,,,,
,,,,,,,,,63e51e55974365f1e43df265,Spanish,13 or older,"no, only English or Spanish",yes,2025-07-22_21h25.12.042,empathy_intonation_perc,2024.2.4,MacIntel,59.88023952,63e51e55974365f1e43df265,687ed1b7e638a4cbf2f02089,688039cb0d12e540289dbf81,,,,,,,,,,,,,,,,,,,,,,,,,,,,,,,,,,,,666.2307,667.2806,,,,,,,,,,,,,,,,,,,,,,,,,,,,,,,,,,,,,,,,,,,,,,,,,,,,,,,,,,,,,,,,,,,,,
,,,,,,,,,63e51e55974365f1e43df265,Spanish,13 or older,"no, only English or Spanish",yes,2025-07-22_21h25.12.042,empathy_intonation_perc,2024.2.4,MacIntel,59.88023952,63e51e55974365f1e43df265,687ed1b7e638a4cbf2f02089,688039cb0d12e540289dbf81,,,,,,,,,,,,,88,0,,./stim/wavs/puertorican_mismatch_declarative-broad-focus_La-nina-lava-el-plato.wav,,,,,,,,,,,,,,,,,,,,,,667.2951,667.9139,0,1,0.1007,,0,0,0,87,1,0,puertorican,,,,,,,,,,,,,,,,,,,,,,,,,,,,,,,,,,,,,,,,,,,,,,,,,,,,,,,,
,,,,,,,,,63e51e55974365f1e43df265,Spanish,13 or older,"no, only English or Spanish",yes,2025-07-22_21h25.12.042,empathy_intonation_perc,2024.2.4,MacIntel,59.88023952,63e51e55974365f1e43df265,687ed1b7e638a4cbf2f02089,688039cb0d12e540289dbf81,,,,,,,,,,,,,26,1,,./stim/wavs/castilian_mismatch_interrogative-total-yn_La-nina-lava-el-plato.wav,,,,,,,,,,,,,,,,,,,,,,667.9143,668.5644,1,1,0.1312,,0,1,1,25,1,0,castilian,,,,,,,,,,,,,,,,,,,,,,,,,,,,,,,,,,,,,,,,,,,,,,,,,,,,,,,,
,,,,,,,,,63e51e55974365f1e43df265,Spanish,13 or older,"no, only English or Spanish",yes,2025-07-22_21h25.12.042,empathy_intonation_perc,2024.2.4,MacIntel,59.88023952,63e51e55974365f1e43df265,687ed1b7e638a4cbf2f02089,688039cb0d12e540289dbf81,,,,,,,,,,,,,61,0,,./stim/wavs/mexican_match_declarative-broad-focus_Mariano-habla-del-tiempo.wav,,,,,,,,,,,,,,,,,,,,,,668.565,669.0961,0,1,0.0009,,0,2,2,60,1,0,mexican,,,,,,,,,,,,,,,,,,,,,,,,,,,,,,,,,,,,,,,,,,,,,,,,,,,,,,,,
,,,,,,,,,63e51e55974365f1e43df265,Spanish,13 or older,"no, only English or Spanish",yes,2025-07-22_21h25.12.042,empathy_intonation_perc,2024.2.4,MacIntel,59.88023952,63e51e55974365f1e43df265,687ed1b7e638a4cbf2f02089,688039cb0d12e540289dbf81,,,,,,,,,,,,,42,1,,./stim/wavs/puertorican_mismatch_interrogative-total-yn_La-maestra-vive-en-Paris.wav,,,,,,,,,,,,,,,,,,,,,,669.0964,669.6471,0,0,0.0323,,0,3,3,41,1,1,puertorican,,,,,,,,,,,,,,,,,,,,,,,,,,,,,,,,,,,,,,,,,,,,,,,,,,,,,,,,
,,,,,,,,,63e51e55974365f1e43df265,Spanish,13 or older,"no, only English or Spanish",yes,2025-07-22_21h25.12.042,empathy_intonation_perc,2024.2.4,MacIntel,59.88023952,63e51e55974365f1e43df265,687ed1b7e638a4cbf2f02089,688039cb0d12e540289dbf81,,,,,,,,,,,,,16,1,,./stim/wavs/mexican_match_interrogative-total-yn_Emilio-ama-la-marcha.wav,,,,,,,,,,,,,,,,,,,,,,669.6473,670.2974,1,1,0.1295,,0,4,4,15,1,0,mexican,,,,,,,,,,,,,,,,,,,,,,,,,,,,,,,,,,,,,,,,,,,,,,,,,,,,,,,,
,,,,,,,,,63e51e55974365f1e43df265,Spanish,13 or older,"no, only English or Spanish",yes,2025-07-22_21h25.12.042,empathy_intonation_perc,2024.2.4,MacIntel,59.88023952,63e51e55974365f1e43df265,687ed1b7e638a4cbf2f02089,688039cb0d12e540289dbf81,,,,,,,,,,,,,8,1,,./stim/wavs/cuban_match_interrogative-total-yn_Daniel-iba-a-Bolivia.wav,,,,,,,,,,,,,,,,,,,,,,670.2981,670.9136,1,1,0.0849,,0,5,5,7,1,1,cuban,,,,,,,,,,,,,,,,,,,,,,,,,,,,,,,,,,,,,,,,,,,,,,,,,,,,,,,,
,,,,,,,,,63e51e55974365f1e43df265,Spanish,13 or older,"no, only English or Spanish",yes,2025-07-22_21h25.12.042,empathy_intonation_perc,2024.2.4,MacIntel,59.88023952,63e51e55974365f1e43df265,687ed1b7e638a4cbf2f02089,688039cb0d12e540289dbf81,,,,,,,,,,,,,58,0,,./stim/wavs/mexican_match_declarative-broad-focus_Daniel-iba-a-Bolivia.wav,,,,,,,,,,,,,,,,,,,,,,670.914,671.4471,0,1,0.003,,0,6,6,57,1,0,mexican,,,,,,,,,,,,,,,,,,,,,,,,,,,,,,,,,,,,,,,,,,,,,,,,,,,,,,,,
,,,,,,,,,63e51e55974365f1e43df265,Spanish,13 or older,"no, only English or Spanish",yes,2025-07-22_21h25.12.042,empathy_intonation_perc,2024.2.4,MacIntel,59.88023952,63e51e55974365f1e43df265,687ed1b7e638a4cbf2f02089,688039cb0d12e540289dbf81,,,,,,,,,,,,,38,1,,./stim/wavs/mexican_mismatch_interrogative-total-yn_Mi-novio-viene-del-lago.wav,,,,,,,,,,,,,,,,,,,,,,671.4474,672.0463,1,1,0.0695,,0,7,7,37,1,0,mexican,,,,,,,,,,,,,,,,,,,,,,,,,,,,,,,,,,,,,,,,,,,,,,,,,,,,,,,,
,,,,,,,,,63e51e55974365f1e43df265,Spanish,13 or older,"no, only English or Spanish",yes,2025-07-22_21h25.12.042,empathy_intonation_perc,2024.2.4,MacIntel,59.88023952,63e51e55974365f1e43df265,687ed1b7e638a4cbf2f02089,688039cb0d12e540289dbf81,,,,,,,,,,,,,4,1,,./stim/wavs/castilian_match_interrogative-total-yn_Maria-bebe-el-vino.wav,,,,,,,,,,,,,,,,,,,,,,672.0467,672.6304,1,1,0.0686,,0,8,8,3,1,0,castilian,,,,,,,,,,,,,,,,,,,,,,,,,,,,,,,,,,,,,,,,,,,,,,,,,,,,,,,,
,,,,,,,,,63e51e55974365f1e43df265,Spanish,13 or older,"no, only English or Spanish",yes,2025-07-22_21h25.12.042,empathy_intonation_perc,2024.2.4,MacIntel,59.88023952,63e51e55974365f1e43df265,687ed1b7e638a4cbf2f02089,688039cb0d12e540289dbf81,,,,,,,,,,,,,39,1,,./stim/wavs/mexican_mismatch_interrogative-total-yn_Mi-tia-odia-la-lluvia.wav,,,,,,,,,,,,,,,,,,,,,,672.6307,673.2138,1,1,0.052,,0,9,9,38,1,0,mexican,,,,,,,,,,,,,,,,,,,,,,,,,,,,,,,,,,,,,,,,,,,,,,,,,,,,,,,,
,,,,,,,,,63e51e55974365f1e43df265,Spanish,13 or older,"no, only English or Spanish",yes,2025-07-22_21h25.12.042,empathy_intonation_perc,2024.2.4,MacIntel,59.88023952,63e51e55974365f1e43df265,687ed1b7e638a4cbf2f02089,688039cb0d12e540289dbf81,,,,,,,,,,,,,31,1,,./stim/wavs/cuban_mismatch_interrogative-total-yn_El-nino-oye-el-rio.wav,,,,,,,,,,,,,,,,,,,,,,673.2141,673.8297,1,1,0.0877,,0,10,10,30,1,1,cuban,,,,,,,,,,,,,,,,,,,,,,,,,,,,,,,,,,,,,,,,,,,,,,,,,,,,,,,,
,,,,,,,,,63e51e55974365f1e43df265,Spanish,13 or older,"no, only English or Spanish",yes,2025-07-22_21h25.12.042,empathy_intonation_perc,2024.2.4,MacIntel,59.88023952,63e51e55974365f1e43df265,687ed1b7e638a4cbf2f02089,688039cb0d12e540289dbf81,,,,,,,,,,,,,77,0,,./stim/wavs/cuban_mismatch_declarative-broad-focus_Mi-novio-viene-del-lago.wav,,,,,,,,,,,,,,,,,,,,,,673.8305,674.4805,1,0,0.135,,0,11,11,76,1,0,cuban,,,,,,,,,,,,,,,,,,,,,,,,,,,,,,,,,,,,,,,,,,,,,,,,,,,,,,,,
,,,,,,,,,63e51e55974365f1e43df265,Spanish,13 or older,"no, only English or Spanish",yes,2025-07-22_21h25.12.042,empathy_intonation_perc,2024.2.4,MacIntel,59.88023952,63e51e55974365f1e43df265,687ed1b7e638a4cbf2f02089,688039cb0d12e540289dbf81,,,,,,,,,,,,,10,1,,./stim/wavs/cuban_match_interrogative-total-yn_Maria-bebe-el-vino.wav,,,,,,,,,,,,,,,,,,,,,,674.4809,675.1304,0,0,0.1183,,0,12,12,9,1,1,cuban,,,,,,,,,,,,,,,,,,,,,,,,,,,,,,,,,,,,,,,,,,,,,,,,,,,,,,,,
,,,,,,,,,63e51e55974365f1e43df265,Spanish,13 or older,"no, only English or Spanish",yes,2025-07-22_21h25.12.042,empathy_intonation_perc,2024.2.4,MacIntel,59.88023952,63e51e55974365f1e43df265,687ed1b7e638a4cbf2f02089,688039cb0d12e540289dbf81,,,,,,,,,,,,,78,0,,./stim/wavs/cuban_mismatch_declarative-broad-focus_Mi-tia-odia-la-lluvia.wav,,,,,,,,,,,,,,,,,,,,,,675.1307,675.8472,1,0,0.1859,,0,13,13,77,1,0,cuban,,,,,,,,,,,,,,,,,,,,,,,,,,,,,,,,,,,,,,,,,,,,,,,,,,,,,,,,
,,,,,,,,,63e51e55974365f1e43df265,Spanish,13 or older,"no, only English or Spanish",yes,2025-07-22_21h25.12.042,empathy_intonation_perc,2024.2.4,MacIntel,59.88023952,63e51e55974365f1e43df265,687ed1b7e638a4cbf2f02089,688039cb0d12e540289dbf81,,,,,,,,,,,,,64,0,,./stim/wavs/puertorican_match_declarative-broad-focus_Daniel-iba-a-Bolivia.wav,,,,,,,,,,,,,,,,,,,,,,675.8475,678.6638,1,0,2.283,,0,14,14,63,1,0,puertorican,,,,,,,,,,,,,,,,,,,,,,,,,,,,,,,,,,,,,,,,,,,,,,,,,,,,,,,,
,,,,,,,,,63e51e55974365f1e43df265,Spanish,13 or older,"no, only English or Spanish",yes,2025-07-22_21h25.12.042,empathy_intonation_perc,2024.2.4,MacIntel,59.88023952,63e51e55974365f1e43df265,687ed1b7e638a4cbf2f02089,688039cb0d12e540289dbf81,,,,,,,,,,,,,24,1,,./stim/wavs/puertorican_match_interrogative-total-yn_Maria-bebe-el-vino.wav,,,,,,,,,,,,,,,,,,,,,,678.6641,679.2638,0,0,0.068,,0,15,15,23,1,1,puertorican,,,,,,,,,,,,,,,,,,,,,,,,,,,,,,,,,,,,,,,,,,,,,,,,,,,,,,,,
,,,,,,,,,63e51e55974365f1e43df265,Spanish,13 or older,"no, only English or Spanish",yes,2025-07-22_21h25.12.042,empathy_intonation_perc,2024.2.4,MacIntel,59.88023952,63e51e55974365f1e43df265,687ed1b7e638a4cbf2f02089,688039cb0d12e540289dbf81,,,,,,,,,,,,,11,1,,./stim/wavs/cuban_match_interrogative-total-yn_Mariano-habla-del-tiempo.wav,,,,,,,,,,,,,,,,,,,,,,679.2641,680.4628,1,1,0.6691,,0,16,16,10,1,1,cuban,,,,,,,,,,,,,,,,,,,,,,,,,,,,,,,,,,,,,,,,,,,,,,,,,,,,,,,,
,,,,,,,,,63e51e55974365f1e43df265,Spanish,13 or older,"no, only English or Spanish",yes,2025-07-22_21h25.12.042,empathy_intonation_perc,2024.2.4,MacIntel,59.88023952,63e51e55974365f1e43df265,687ed1b7e638a4cbf2f02089,688039cb0d12e540289dbf81,,,,,,,,,,,,,65,0,,./stim/wavs/puertorican_match_declarative-broad-focus_David-leia-el-libro.wav,,,,,,,,,,,,,,,,,,,,,,680.4632,681.0305,1,0,0.0566,,0,17,17,64,1,0,puertorican,,,,,,,,,,,,,,,,,,,,,,,,,,,,,,,,,,,,,,,,,,,,,,,,,,,,,,,,
,,,,,,,,,63e51e55974365f1e43df265,Spanish,13 or older,"no, only English or Spanish",yes,2025-07-22_21h25.12.042,empathy_intonation_perc,2024.2.4,MacIntel,59.88023952,63e51e55974365f1e43df265,687ed1b7e638a4cbf2f02089,688039cb0d12e540289dbf81,,,,,,,,,,,,,76,0,,./stim/wavs/cuban_mismatch_declarative-broad-focus_La-nina-lava-el-plato.wav,,,,,,,,,,,,,,,,,,,,,,681.0308,681.6626,1,0,0.1031,,0,18,18,75,1,0,cuban,,,,,,,,,,,,,,,,,,,,,,,,,,,,,,,,,,,,,,,,,,,,,,,,,,,,,,,,
,,,,,,,,,63e51e55974365f1e43df265,Spanish,13 or older,"no, only English or Spanish",yes,2025-07-22_21h25.12.042,empathy_intonation_perc,2024.2.4,MacIntel,59.88023952,63e51e55974365f1e43df265,687ed1b7e638a4cbf2f02089,688039cb0d12e540289dbf81,,,,,,,,,,,,,28,1,,./stim/wavs/castilian_mismatch_interrogative-total-yn_Mi-novio-viene-del-lago.wav,,,,,,,,,,,,,,,,,,,,,,681.663,682.2127,0,0,0.0353,,0,19,19,27,1,0,castilian,,,,,,,,,,,,,,,,,,,,,,,,,,,,,,,,,,,,,,,,,,,,,,,,,,,,,,,,
,,,,,,,,,63e51e55974365f1e43df265,Spanish,13 or older,"no, only English or Spanish",yes,2025-07-22_21h25.12.042,empathy_intonation_perc,2024.2.4,MacIntel,59.88023952,63e51e55974365f1e43df265,687ed1b7e638a4cbf2f02089,688039cb0d12e540289dbf81,,,,,,,,,,,,,62,0,,./stim/wavs/mexican_match_declarative-broad-focus_Marta-abre-el-regalo.wav,,,,,,,,,,,,,,,,,,,,,,682.213,682.7806,1,0,0.0476,,0,20,20,61,1,0,mexican,,,,,,,,,,,,,,,,,,,,,,,,,,,,,,,,,,,,,,,,,,,,,,,,,,,,,,,,
,,,,,,,,,63e51e55974365f1e43df265,Spanish,13 or older,"no, only English or Spanish",yes,2025-07-22_21h25.12.042,empathy_intonation_perc,2024.2.4,MacIntel,59.88023952,63e51e55974365f1e43df265,687ed1b7e638a4cbf2f02089,688039cb0d12e540289dbf81,,,,,,,,,,,,,45,0,,./stim/wavs/castilian_match_declarative-broad-focus_David-leia-el-libro.wav,,,,,,,,,,,,,,,,,,,,,,682.7812,683.3794,0,1,0.0669,,0,21,21,44,1,0,castilian,,,,,,,,,,,,,,,,,,,,,,,,,,,,,,,,,,,,,,,,,,,,,,,,,,,,,,,,
,,,,,,,,,63e51e55974365f1e43df265,Spanish,13 or older,"no, only English or Spanish",yes,2025-07-22_21h25.12.042,empathy_intonation_perc,2024.2.4,MacIntel,59.88023952,63e51e55974365f1e43df265,687ed1b7e638a4cbf2f02089,688039cb0d12e540289dbf81,,,,,,,,,,,,,5,1,,./stim/wavs/castilian_match_interrogative-total-yn_Mariano-habla-del-tiempo.wav,,,,,,,,,,,,,,,,,,,,,,683.3796,686.8637,1,1,2.9669,,0,22,22,4,1,0,castilian,,,,,,,,,,,,,,,,,,,,,,,,,,,,,,,,,,,,,,,,,,,,,,,,,,,,,,,,
,,,,,,,,,63e51e55974365f1e43df265,Spanish,13 or older,"no, only English or Spanish",yes,2025-07-22_21h25.12.042,empathy_intonation_perc,2024.2.4,MacIntel,59.88023952,63e51e55974365f1e43df265,687ed1b7e638a4cbf2f02089,688039cb0d12e540289dbf81,,,,,,,,,,,,,35,1,,./stim/wavs/mexican_mismatch_interrogative-total-yn_El-hombre-mira-la-luna.wav,,,,,,,,,,,,,,,,,,,,,,686.864,687.396,1,1,0.0005,,0,23,23,34,1,0,mexican,,,,,,,,,,,,,,,,,,,,,,,,,,,,,,,,,,,,,,,,,,,,,,,,,,,,,,,,
,,,,,,,,,63e51e55974365f1e43df265,Spanish,13 or older,"no, only English or Spanish",yes,2025-07-22_21h25.12.042,empathy_intonation_perc,2024.2.4,MacIntel,59.88023952,63e51e55974365f1e43df265,687ed1b7e638a4cbf2f02089,688039cb0d12e540289dbf81,,,,,,,,,,,,,74,0,,./stim/wavs/cuban_mismatch_declarative-broad-focus_El-bebe-comia-muy-bien.wav,,,,,,,,,,,,,,,,,,,,,,687.3963,687.9966,1,0,0.0967,,0,24,24,73,1,0,cuban,,,,,,,,,,,,,,,,,,,,,,,,,,,,,,,,,,,,,,,,,,,,,,,,,,,,,,,,
,,,,,,,,,63e51e55974365f1e43df265,Spanish,13 or older,"no, only English or Spanish",yes,2025-07-22_21h25.12.042,empathy_intonation_perc,2024.2.4,MacIntel,59.88023952,63e51e55974365f1e43df265,687ed1b7e638a4cbf2f02089,688039cb0d12e540289dbf81,,,,,,,,,,,,,21,1,,./stim/wavs/puertorican_match_interrogative-total-yn_David-leia-el-libro.wav,,,,,,,,,,,,,,,,,,,,,,687.9973,688.5471,0,0,0.0173,,0,25,25,20,1,1,puertorican,,,,,,,,,,,,,,,,,,,,,,,,,,,,,,,,,,,,,,,,,,,,,,,,,,,,,,,,
,,,,,,,,,63e51e55974365f1e43df265,Spanish,13 or older,"no, only English or Spanish",yes,2025-07-22_21h25.12.042,empathy_intonation_perc,2024.2.4,MacIntel,59.88023952,63e51e55974365f1e43df265,687ed1b7e638a4cbf2f02089,688039cb0d12e540289dbf81,,,,,,,,,,,,,81,0,,./stim/wavs/mexican_mismatch_declarative-broad-focus_La-maestra-vive-en-Paris.wav,,,,,,,,,,,,,,,,,,,,,,688.5474,689.2138,0,1,0.1347,,0,26,26,80,1,0,mexican,,,,,,,,,,,,,,,,,,,,,,,,,,,,,,,,,,,,,,,,,,,,,,,,,,,,,,,,
,,,,,,,,,63e51e55974365f1e43df265,Spanish,13 or older,"no, only English or Spanish",yes,2025-07-22_21h25.12.042,empathy_intonation_perc,2024.2.4,MacIntel,59.88023952,63e51e55974365f1e43df265,687ed1b7e638a4cbf2f02089,688039cb0d12e540289dbf81,,,,,,,,,,,,,48,0,,./stim/wavs/castilian_match_declarative-broad-focus_Maria-bebe-el-vino.wav,,,,,,,,,,,,,,,,,,,,,,689.2142,689.7971,1,0,0.0612,,0,27,27,47,1,0,castilian,,,,,,,,,,,,,,,,,,,,,,,,,,,,,,,,,,,,,,,,,,,,,,,,,,,,,,,,
,,,,,,,,,63e51e55974365f1e43df265,Spanish,13 or older,"no, only English or Spanish",yes,2025-07-22_21h25.12.042,empathy_intonation_perc,2024.2.4,MacIntel,59.88023952,63e51e55974365f1e43df265,687ed1b7e638a4cbf2f02089,688039cb0d12e540289dbf81,,,,,,,,,,,,,63,0,,./stim/wavs/puertorican_match_declarative-broad-focus_Ana-lleva-el-abrigo.wav,,,,,,,,,,,,,,,,,,,,,,689.7974,690.4637,0,1,0.1341,,0,28,28,62,1,0,puertorican,,,,,,,,,,,,,,,,,,,,,,,,,,,,,,,,,,,,,,,,,,,,,,,,,,,,,,,,
,,,,,,,,,63e51e55974365f1e43df265,Spanish,13 or older,"no, only English or Spanish",yes,2025-07-22_21h25.12.042,empathy_intonation_perc,2024.2.4,MacIntel,59.88023952,63e51e55974365f1e43df265,687ed1b7e638a4cbf2f02089,688039cb0d12e540289dbf81,,,,,,,,,,,,,3,1,,./stim/wavs/castilian_match_interrogative-total-yn_Manuela-vende-el-carro.wav,,,,,,,,,,,,,,,,,,,,,,690.464,691.0804,0,0,0.0885,,0,29,29,2,1,0,castilian,,,,,,,,,,,,,,,,,,,,,,,,,,,,,,,,,,,,,,,,,,,,,,,,,,,,,,,,
,,,,,,,,,63e51e55974365f1e43df265,Spanish,13 or older,"no, only English or Spanish",yes,2025-07-22_21h25.12.042,empathy_intonation_perc,2024.2.4,MacIntel,59.88023952,63e51e55974365f1e43df265,687ed1b7e638a4cbf2f02089,688039cb0d12e540289dbf81,,,,,,,,,,,,,13,1,,./stim/wavs/mexican_match_interrogative-total-yn_Ana-lleva-el-abrigo.wav,,,,,,,,,,,,,,,,,,,,,,691.0808,691.7637,1,1,0.1499,,0,30,30,12,1,0,mexican,,,,,,,,,,,,,,,,,,,,,,,,,,,,,,,,,,,,,,,,,,,,,,,,,,,,,,,,
,,,,,,,,,63e51e55974365f1e43df265,Spanish,13 or older,"no, only English or Spanish",yes,2025-07-22_21h25.12.042,empathy_intonation_perc,2024.2.4,MacIntel,59.88023952,63e51e55974365f1e43df265,687ed1b7e638a4cbf2f02089,688039cb0d12e540289dbf81,,,,,,,,,,,,,46,0,,./stim/wavs/castilian_match_declarative-broad-focus_Emilio-ama-la-marcha.wav,,,,,,,,,,,,,,,,,,,,,,691.764,692.3804,0,1,0.0922,,0,31,31,45,1,0,castilian,,,,,,,,,,,,,,,,,,,,,,,,,,,,,,,,,,,,,,,,,,,,,,,,,,,,,,,,
,,,,,,,,,63e51e55974365f1e43df265,Spanish,13 or older,"no, only English or Spanish",yes,2025-07-22_21h25.12.042,empathy_intonation_perc,2024.2.4,MacIntel,59.88023952,63e51e55974365f1e43df265,687ed1b7e638a4cbf2f02089,688039cb0d12e540289dbf81,,,,,,,,,,,,,2,1,,./stim/wavs/castilian_match_interrogative-total-yn_Emilio-ama-la-marcha.wav,,,,,,,,,,,,,,,,,,,,,,692.3807,693.0971,0,0,0.1861,,0,32,32,1,1,0,castilian,,,,,,,,,,,,,,,,,,,,,,,,,,,,,,,,,,,,,,,,,,,,,,,,,,,,,,,,
,,,,,,,,,63e51e55974365f1e43df265,Spanish,13 or older,"no, only English or Spanish",yes,2025-07-22_21h25.12.042,empathy_intonation_perc,2024.2.4,MacIntel,59.88023952,63e51e55974365f1e43df265,687ed1b7e638a4cbf2f02089,688039cb0d12e540289dbf81,,,,,,,,,,,,,36,1,,./stim/wavs/mexican_mismatch_interrogative-total-yn_El-nino-oye-el-rio.wav,,,,,,,,,,,,,,,,,,,,,,693.0974,693.697,1,1,0.0678,,0,33,33,35,1,0,mexican,,,,,,,,,,,,,,,,,,,,,,,,,,,,,,,,,,,,,,,,,,,,,,,,,,,,,,,,
,,,,,,,,,63e51e55974365f1e43df265,Spanish,13 or older,"no, only English or Spanish",yes,2025-07-22_21h25.12.042,empathy_intonation_perc,2024.2.4,MacIntel,59.88023952,63e51e55974365f1e43df265,687ed1b7e638a4cbf2f02089,688039cb0d12e540289dbf81,,,,,,,,,,,,,86,0,,./stim/wavs/puertorican_mismatch_declarative-broad-focus_El-nino-oye-el-rio.wav,,,,,,,,,,,,,,,,,,,,,,693.6973,694.297,0,1,0.0691,,0,34,34,85,1,0,puertorican,,,,,,,,,,,,,,,,,,,,,,,,,,,,,,,,,,,,,,,,,,,,,,,,,,,,,,,,
,,,,,,,,,63e51e55974365f1e43df265,Spanish,13 or older,"no, only English or Spanish",yes,2025-07-22_21h25.12.042,empathy_intonation_perc,2024.2.4,MacIntel,59.88023952,63e51e55974365f1e43df265,687ed1b7e638a4cbf2f02089,688039cb0d12e540289dbf81,,,,,,,,,,,,,27,1,,./stim/wavs/castilian_mismatch_interrogative-total-yn_Mi-madre-come-la-fruta.wav,,,,,,,,,,,,,,,,,,,,,,694.2973,694.8294,0,0,0.0208,,0,35,35,26,1,0,castilian,,,,,,,,,,,,,,,,,,,,,,,,,,,,,,,,,,,,,,,,,,,,,,,,,,,,,,,,
,,,,,,,,,63e51e55974365f1e43df265,Spanish,13 or older,"no, only English or Spanish",yes,2025-07-22_21h25.12.042,empathy_intonation_perc,2024.2.4,MacIntel,59.88023952,63e51e55974365f1e43df265,687ed1b7e638a4cbf2f02089,688039cb0d12e540289dbf81,,,,,,,,,,,,,87,0,,./stim/wavs/puertorican_mismatch_declarative-broad-focus_La-maestra-vive-en-Paris.wav,,,,,,,,,,,,,,,,,,,,,,694.8299,695.347,1,0,0.0057,,0,36,36,86,1,0,puertorican,,,,,,,,,,,,,,,,,,,,,,,,,,,,,,,,,,,,,,,,,,,,,,,,,,,,,,,,
,,,,,,,,,63e51e55974365f1e43df265,Spanish,13 or older,"no, only English or Spanish",yes,2025-07-22_21h25.12.042,empathy_intonation_perc,2024.2.4,MacIntel,59.88023952,63e51e55974365f1e43df265,687ed1b7e638a4cbf2f02089,688039cb0d12e540289dbf81,,,,,,,,,,,,,22,1,,./stim/wavs/puertorican_match_interrogative-total-yn_Emilio-ama-la-marcha.wav,,,,,,,,,,,,,,,,,,,,,,695.3475,695.9971,1,1,0.1168,,0,37,37,21,1,1,puertorican,,,,,,,,,,,,,,,,,,,,,,,,,,,,,,,,,,,,,,,,,,,,,,,,,,,,,,,,
,,,,,,,,,63e51e55974365f1e43df265,Spanish,13 or older,"no, only English or Spanish",yes,2025-07-22_21h25.12.042,empathy_intonation_perc,2024.2.4,MacIntel,59.88023952,63e51e55974365f1e43df265,687ed1b7e638a4cbf2f02089,688039cb0d12e540289dbf81,,,,,,,,,,,,,59,0,,./stim/wavs/mexican_match_declarative-broad-focus_David-leia-el-libro.wav,,,,,,,,,,,,,,,,,,,,,,695.9974,696.5637,0,1,0.0372,,0,38,38,58,1,0,mexican,,,,,,,,,,,,,,,,,,,,,,,,,,,,,,,,,,,,,,,,,,,,,,,,,,,,,,,,
,,,,,,,,,63e51e55974365f1e43df265,Spanish,13 or older,"no, only English or Spanish",yes,2025-07-22_21h25.12.042,empathy_intonation_perc,2024.2.4,MacIntel,59.88023952,63e51e55974365f1e43df265,687ed1b7e638a4cbf2f02089,688039cb0d12e540289dbf81,,,,,,,,,,,,,34,1,,./stim/wavs/cuban_mismatch_interrogative-total-yn_Mi-tia-odia-la-lluvia.wav,,,,,,,,,,,,,,,,,,,,,,696.564,697.1304,0,0,0.0341,,0,39,39,33,1,1,cuban,,,,,,,,,,,,,,,,,,,,,,,,,,,,,,,,,,,,,,,,,,,,,,,,,,,,,,,,
,,,,,,,,,63e51e55974365f1e43df265,Spanish,13 or older,"no, only English or Spanish",yes,2025-07-22_21h25.12.042,empathy_intonation_perc,2024.2.4,MacIntel,59.88023952,63e51e55974365f1e43df265,687ed1b7e638a4cbf2f02089,688039cb0d12e540289dbf81,,,,,,,,,,,,,20,1,,./stim/wavs/puertorican_match_interrogative-total-yn_Daniel-iba-a-Bolivia.wav,,,,,,,,,,,,,,,,,,,,,,697.1308,697.6641,0,0,0.013,,0,40,40,19,1,1,puertorican,,,,,,,,,,,,,,,,,,,,,,,,,,,,,,,,,,,,,,,,,,,,,,,,,,,,,,,,
,,,,,,,,,63e51e55974365f1e43df265,Spanish,13 or older,"no, only English or Spanish",yes,2025-07-22_21h25.12.042,empathy_intonation_perc,2024.2.4,MacIntel,59.88023952,63e51e55974365f1e43df265,687ed1b7e638a4cbf2f02089,688039cb0d12e540289dbf81,,,,,,,,,,,,,50,0,,./stim/wavs/castilian_match_declarative-broad-focus_Marta-abre-el-regalo.wav,,,,,,,,,,,,,,,,,,,,,,697.6648,698.214,0,1,0.0318,,0,41,41,49,1,0,castilian,,,,,,,,,,,,,,,,,,,,,,,,,,,,,,,,,,,,,,,,,,,,,,,,,,,,,,,,
,,,,,,,,,63e51e55974365f1e43df265,Spanish,13 or older,"no, only English or Spanish",yes,2025-07-22_21h25.12.042,empathy_intonation_perc,2024.2.4,MacIntel,59.88023952,63e51e55974365f1e43df265,687ed1b7e638a4cbf2f02089,688039cb0d12e540289dbf81,,,,,,,,,,,,,68,0,,./stim/wavs/puertorican_match_declarative-broad-focus_Maria-bebe-el-vino.wav,,,,,,,,,,,,,,,,,,,,,,698.2148,698.7804,0,1,0.0333,,0,42,42,67,1,0,puertorican,,,,,,,,,,,,,,,,,,,,,,,,,,,,,,,,,,,,,,,,,,,,,,,,,,,,,,,,
,,,,,,,,,63e51e55974365f1e43df265,Spanish,13 or older,"no, only English or Spanish",yes,2025-07-22_21h25.12.042,empathy_intonation_perc,2024.2.4,MacIntel,59.88023952,63e51e55974365f1e43df265,687ed1b7e638a4cbf2f02089,688039cb0d12e540289dbf81,,,,,,,,,,,,,82,0,,./stim/wavs/mexican_mismatch_declarative-broad-focus_Mi-novio-viene-del-lago.wav,,,,,,,,,,,,,,,,,,,,,,698.7807,699.3304,0,1,0.0224,,0,43,43,81,1,0,mexican,,,,,,,,,,,,,,,,,,,,,,,,,,,,,,,,,,,,,,,,,,,,,,,,,,,,,,,,
,,,,,,,,,63e51e55974365f1e43df265,Spanish,13 or older,"no, only English or Spanish",yes,2025-07-22_21h25.12.042,empathy_intonation_perc,2024.2.4,MacIntel,59.88023952,63e51e55974365f1e43df265,687ed1b7e638a4cbf2f02089,688039cb0d12e540289dbf81,,,,,,,,,,,,,7,1,,./stim/wavs/cuban_match_interrogative-total-yn_Ana-lleva-el-abrigo.wav,,,,,,,,,,,,,,,,,,,,,,699.3306,699.9138,0,0,0.0502,,0,44,44,6,1,1,cuban,,,,,,,,,,,,,,,,,,,,,,,,,,,,,,,,,,,,,,,,,,,,,,,,,,,,,,,,
,,,,,,,,,63e51e55974365f1e43df265,Spanish,13 or older,"no, only English or Spanish",yes,2025-07-22_21h25.12.042,empathy_intonation_perc,2024.2.4,MacIntel,59.88023952,63e51e55974365f1e43df265,687ed1b7e638a4cbf2f02089,688039cb0d12e540289dbf81,,,,,,,,,,,,,6,1,,./stim/wavs/castilian_match_interrogative-total-yn_Marta-abre-el-regalo.wav,,,,,,,,,,,,,,,,,,,,,,699.914,700.4794,0,0,0.0347,,0,45,45,5,1,0,castilian,,,,,,,,,,,,,,,,,,,,,,,,,,,,,,,,,,,,,,,,,,,,,,,,,,,,,,,,
,,,,,,,,,63e51e55974365f1e43df265,Spanish,13 or older,"no, only English or Spanish",yes,2025-07-22_21h25.12.042,empathy_intonation_perc,2024.2.4,MacIntel,59.88023952,63e51e55974365f1e43df265,687ed1b7e638a4cbf2f02089,688039cb0d12e540289dbf81,,,,,,,,,,,,,67,0,,./stim/wavs/puertorican_match_declarative-broad-focus_Manuela-vende-el-carro.wav,,,,,,,,,,,,,,,,,,,,,,700.4796,701.0804,0,1,0.0872,,0,46,46,66,1,0,puertorican,,,,,,,,,,,,,,,,,,,,,,,,,,,,,,,,,,,,,,,,,,,,,,,,,,,,,,,,
,,,,,,,,,63e51e55974365f1e43df265,Spanish,13 or older,"no, only English or Spanish",yes,2025-07-22_21h25.12.042,empathy_intonation_perc,2024.2.4,MacIntel,59.88023952,63e51e55974365f1e43df265,687ed1b7e638a4cbf2f02089,688039cb0d12e540289dbf81,,,,,,,,,,,,,19,1,,./stim/wavs/puertorican_match_interrogative-total-yn_Ana-lleva-el-abrigo.wav,,,,,,,,,,,,,,,,,,,,,,701.0809,701.7138,0,0,0.1014,,0,47,47,18,1,1,puertorican,,,,,,,,,,,,,,,,,,,,,,,,,,,,,,,,,,,,,,,,,,,,,,,,,,,,,,,,
,,,,,,,,,63e51e55974365f1e43df265,Spanish,13 or older,"no, only English or Spanish",yes,2025-07-22_21h25.12.042,empathy_intonation_perc,2024.2.4,MacIntel,59.88023952,63e51e55974365f1e43df265,687ed1b7e638a4cbf2f02089,688039cb0d12e540289dbf81,,,,,,,,,,,,,83,0,,./stim/wavs/mexican_mismatch_declarative-broad-focus_Mi-tia-odia-la-lluvia.wav,,,,,,,,,,,,,,,,,,,,,,701.7141,702.3294,0,1,0.0866,,0,48,48,82,1,0,mexican,,,,,,,,,,,,,,,,,,,,,,,,,,,,,,,,,,,,,,,,,,,,,,,,,,,,,,,,
,,,,,,,,,63e51e55974365f1e43df265,Spanish,13 or older,"no, only English or Spanish",yes,2025-07-22_21h25.12.042,empathy_intonation_perc,2024.2.4,MacIntel,59.88023952,63e51e55974365f1e43df265,687ed1b7e638a4cbf2f02089,688039cb0d12e540289dbf81,,,,,,,,,,,,,57,0,,./stim/wavs/mexican_match_declarative-broad-focus_Ana-lleva-el-abrigo.wav,,,,,,,,,,,,,,,,,,,,,,702.3297,702.8805,1,0,0.0186,,0,49,49,56,1,0,mexican,,,,,,,,,,,,,,,,,,,,,,,,,,,,,,,,,,,,,,,,,,,,,,,,,,,,,,,,
,,,,,,,,,63e51e55974365f1e43df265,Spanish,13 or older,"no, only English or Spanish",yes,2025-07-22_21h25.12.042,empathy_intonation_perc,2024.2.4,MacIntel,59.88023952,63e51e55974365f1e43df265,687ed1b7e638a4cbf2f02089,688039cb0d12e540289dbf81,,,,,,,,,,,,,71,0,,./stim/wavs/castilian_mismatch_declarative-broad-focus_La-nina-lava-el-plato.wav,,,,,,,,,,,,,,,,,,,,,,702.8809,703.4805,0,1,0.068,,0,50,50,70,1,0,castilian,,,,,,,,,,,,,,,,,,,,,,,,,,,,,,,,,,,,,,,,,,,,,,,,,,,,,,,,
,,,,,,,,,63e51e55974365f1e43df265,Spanish,13 or older,"no, only English or Spanish",yes,2025-07-22_21h25.12.042,empathy_intonation_perc,2024.2.4,MacIntel,59.88023952,63e51e55974365f1e43df265,687ed1b7e638a4cbf2f02089,688039cb0d12e540289dbf81,,,,,,,,,,,,,56,0,,./stim/wavs/cuban_match_declarative-broad-focus_Marta-abre-el-regalo.wav,,,,,,,,,,,,,,,,,,,,,,703.4808,704.0804,0,1,0.0777,,0,51,51,55,1,0,cuban,,,,,,,,,,,,,,,,,,,,,,,,,,,,,,,,,,,,,,,,,,,,,,,,,,,,,,,,
,,,,,,,,,63e51e55974365f1e43df265,Spanish,13 or older,"no, only English or Spanish",yes,2025-07-22_21h25.12.042,empathy_intonation_perc,2024.2.4,MacIntel,59.88023952,63e51e55974365f1e43df265,687ed1b7e638a4cbf2f02089,688039cb0d12e540289dbf81,,,,,,,,,,,,,41,1,,./stim/wavs/puertorican_mismatch_interrogative-total-yn_El-nino-oye-el-rio.wav,,,,,,,,,,,,,,,,,,,,,,704.0807,704.7477,0,0,0.1623,,0,52,52,40,1,1,puertorican,,,,,,,,,,,,,,,,,,,,,,,,,,,,,,,,,,,,,,,,,,,,,,,,,,,,,,,,
,,,,,,,,,63e51e55974365f1e43df265,Spanish,13 or older,"no, only English or Spanish",yes,2025-07-22_21h25.12.042,empathy_intonation_perc,2024.2.4,MacIntel,59.88023952,63e51e55974365f1e43df265,687ed1b7e638a4cbf2f02089,688039cb0d12e540289dbf81,,,,,,,,,,,,,43,1,,./stim/wavs/puertorican_mismatch_interrogative-total-yn_La-nina-lava-el-plato.wav,,,,,,,,,,,,,,,,,,,,,,704.7483,705.3628,0,0,0.0888,,0,53,53,42,1,1,puertorican,,,,,,,,,,,,,,,,,,,,,,,,,,,,,,,,,,,,,,,,,,,,,,,,,,,,,,,,
,,,,,,,,,63e51e55974365f1e43df265,Spanish,13 or older,"no, only English or Spanish",yes,2025-07-22_21h25.12.042,empathy_intonation_perc,2024.2.4,MacIntel,59.88023952,63e51e55974365f1e43df265,687ed1b7e638a4cbf2f02089,688039cb0d12e540289dbf81,,,,,,,,,,,,,30,1,,./stim/wavs/cuban_mismatch_interrogative-total-yn_El-hombre-mira-la-luna.wav,,,,,,,,,,,,,,,,,,,,,,705.363,705.9472,0,0,0.0727,,0,54,54,29,1,1,cuban,,,,,,,,,,,,,,,,,,,,,,,,,,,,,,,,,,,,,,,,,,,,,,,,,,,,,,,,
,,,,,,,,,63e51e55974365f1e43df265,Spanish,13 or older,"no, only English or Spanish",yes,2025-07-22_21h25.12.042,empathy_intonation_perc,2024.2.4,MacIntel,59.88023952,63e51e55974365f1e43df265,687ed1b7e638a4cbf2f02089,688039cb0d12e540289dbf81,,,,,,,,,,,,,32,1,,./stim/wavs/cuban_mismatch_interrogative-total-yn_Mi-madre-come-la-fruta.wav,,,,,,,,,,,,,,,,,,,,,,705.9477,706.5305,0,0,0.0494,,0,55,55,31,1,1,cuban,,,,,,,,,,,,,,,,,,,,,,,,,,,,,,,,,,,,,,,,,,,,,,,,,,,,,,,,
,,,,,,,,,63e51e55974365f1e43df265,Spanish,13 or older,"no, only English or Spanish",yes,2025-07-22_21h25.12.042,empathy_intonation_perc,2024.2.4,MacIntel,59.88023952,63e51e55974365f1e43df265,687ed1b7e638a4cbf2f02089,688039cb0d12e540289dbf81,,,,,,,,,,,,,73,0,,./stim/wavs/castilian_mismatch_declarative-broad-focus_Mi-tia-odia-la-lluvia.wav,,,,,,,,,,,,,,,,,,,,,,706.5309,707.0638,1,0,0.0028,,0,56,56,72,1,0,castilian,,,,,,,,,,,,,,,,,,,,,,,,,,,,,,,,,,,,,,,,,,,,,,,,,,,,,,,,
,,,,,,,,,63e51e55974365f1e43df265,Spanish,13 or older,"no, only English or Spanish",yes,2025-07-22_21h25.12.042,empathy_intonation_perc,2024.2.4,MacIntel,59.88023952,63e51e55974365f1e43df265,687ed1b7e638a4cbf2f02089,688039cb0d12e540289dbf81,,,,,,,,,,,,,14,1,,./stim/wavs/mexican_match_interrogative-total-yn_Daniel-iba-a-Bolivia.wav,,,,,,,,,,,,,,,,,,,,,,707.0642,707.698,1,1,0.1145,,0,57,57,13,1,0,mexican,,,,,,,,,,,,,,,,,,,,,,,,,,,,,,,,,,,,,,,,,,,,,,,,,,,,,,,,
,,,,,,,,,63e51e55974365f1e43df265,Spanish,13 or older,"no, only English or Spanish",yes,2025-07-22_21h25.12.042,empathy_intonation_perc,2024.2.4,MacIntel,59.88023952,63e51e55974365f1e43df265,687ed1b7e638a4cbf2f02089,688039cb0d12e540289dbf81,,,,,,,,,,,,,15,1,,./stim/wavs/mexican_match_interrogative-total-yn_David-leia-el-libro.wav,,,,,,,,,,,,,,,,,,,,,,707.6985,708.3972,1,1,0.171,,0,58,58,14,1,0,mexican,,,,,,,,,,,,,,,,,,,,,,,,,,,,,,,,,,,,,,,,,,,,,,,,,,,,,,,,
,,,,,,,,,63e51e55974365f1e43df265,Spanish,13 or older,"no, only English or Spanish",yes,2025-07-22_21h25.12.042,empathy_intonation_perc,2024.2.4,MacIntel,59.88023952,63e51e55974365f1e43df265,687ed1b7e638a4cbf2f02089,688039cb0d12e540289dbf81,,,,,,,,,,,,,9,1,,./stim/wavs/cuban_match_interrogative-total-yn_Manuela-vende-el-carro.wav,,,,,,,,,,,,,,,,,,,,,,708.3974,708.9293,0,0,0.0005,,0,59,59,8,1,1,cuban,,,,,,,,,,,,,,,,,,,,,,,,,,,,,,,,,,,,,,,,,,,,,,,,,,,,,,,,
,,,,,,,,,63e51e55974365f1e43df265,Spanish,13 or older,"no, only English or Spanish",yes,2025-07-22_21h25.12.042,empathy_intonation_perc,2024.2.4,MacIntel,59.88023952,63e51e55974365f1e43df265,687ed1b7e638a4cbf2f02089,688039cb0d12e540289dbf81,,,,,,,,,,,,,54,0,,./stim/wavs/cuban_match_declarative-broad-focus_Maria-bebe-el-vino.wav,,,,,,,,,,,,,,,,,,,,,,708.9297,709.6794,1,0,0.2187,,0,60,60,53,1,0,cuban,,,,,,,,,,,,,,,,,,,,,,,,,,,,,,,,,,,,,,,,,,,,,,,,,,,,,,,,
,,,,,,,,,63e51e55974365f1e43df265,Spanish,13 or older,"no, only English or Spanish",yes,2025-07-22_21h25.12.042,empathy_intonation_perc,2024.2.4,MacIntel,59.88023952,63e51e55974365f1e43df265,687ed1b7e638a4cbf2f02089,688039cb0d12e540289dbf81,,,,,,,,,,,,,47,0,,./stim/wavs/castilian_match_declarative-broad-focus_Manuela-vende-el-carro.wav,,,,,,,,,,,,,,,,,,,,,,709.6797,710.3637,1,0,0.1673,,0,61,61,46,1,0,castilian,,,,,,,,,,,,,,,,,,,,,,,,,,,,,,,,,,,,,,,,,,,,,,,,,,,,,,,,
,,,,,,,,,63e51e55974365f1e43df265,Spanish,13 or older,"no, only English or Spanish",yes,2025-07-22_21h25.12.042,empathy_intonation_perc,2024.2.4,MacIntel,59.88023952,63e51e55974365f1e43df265,687ed1b7e638a4cbf2f02089,688039cb0d12e540289dbf81,,,,,,,,,,,,,79,0,,./stim/wavs/mexican_mismatch_declarative-broad-focus_El-bebe-comia-muy-bien.wav,,,,,,,,,,,,,,,,,,,,,,710.364,710.9297,1,0,0.0451,,0,62,62,78,1,0,mexican,,,,,,,,,,,,,,,,,,,,,,,,,,,,,,,,,,,,,,,,,,,,,,,,,,,,,,,,
,,,,,,,,,63e51e55974365f1e43df265,Spanish,13 or older,"no, only English or Spanish",yes,2025-07-22_21h25.12.042,empathy_intonation_perc,2024.2.4,MacIntel,59.88023952,63e51e55974365f1e43df265,687ed1b7e638a4cbf2f02089,688039cb0d12e540289dbf81,,,,,,,,,,,,,49,0,,./stim/wavs/castilian_match_declarative-broad-focus_Mariano-habla-del-tiempo.wav,,,,,,,,,,,,,,,,,,,,,,710.93,711.597,1,0,0.1348,,0,63,63,48,1,0,castilian,,,,,,,,,,,,,,,,,,,,,,,,,,,,,,,,,,,,,,,,,,,,,,,,,,,,,,,,
,,,,,,,,,63e51e55974365f1e43df265,Spanish,13 or older,"no, only English or Spanish",yes,2025-07-22_21h25.12.042,empathy_intonation_perc,2024.2.4,MacIntel,59.88023952,63e51e55974365f1e43df265,687ed1b7e638a4cbf2f02089,688039cb0d12e540289dbf81,,,,,,,,,,,,,75,0,,./stim/wavs/cuban_mismatch_declarative-broad-focus_El-hombre-mira-la-luna.wav,,,,,,,,,,,,,,,,,,,,,,711.5974,712.1305,1,0,9.99999E-05,,0,64,64,74,1,0,cuban,,,,,,,,,,,,,,,,,,,,,,,,,,,,,,,,,,,,,,,,,,,,,,,,,,,,,,,,
,,,,,,,,,63e51e55974365f1e43df265,Spanish,13 or older,"no, only English or Spanish",yes,2025-07-22_21h25.12.042,empathy_intonation_perc,2024.2.4,MacIntel,59.88023952,63e51e55974365f1e43df265,687ed1b7e638a4cbf2f02089,688039cb0d12e540289dbf81,,,,,,,,,,,,,53,0,,./stim/wavs/cuban_match_declarative-broad-focus_Manuela-vende-el-carro.wav,,,,,,,,,,,,,,,,,,,,,,712.1308,717.5971,0,1,4.938,,0,65,65,52,1,0,cuban,,,,,,,,,,,,,,,,,,,,,,,,,,,,,,,,,,,,,,,,,,,,,,,,,,,,,,,,
,,,,,,,,,63e51e55974365f1e43df265,Spanish,13 or older,"no, only English or Spanish",yes,2025-07-22_21h25.12.042,empathy_intonation_perc,2024.2.4,MacIntel,59.88023952,63e51e55974365f1e43df265,687ed1b7e638a4cbf2f02089,688039cb0d12e540289dbf81,,,,,,,,,,,,,72,0,,./stim/wavs/castilian_mismatch_declarative-broad-focus_Mi-novio-viene-del-lago.wav,,,,,,,,,,,,,,,,,,,,,,717.5978,718.1627,1,0,0.0347,,0,66,66,71,1,0,castilian,,,,,,,,,,,,,,,,,,,,,,,,,,,,,,,,,,,,,,,,,,,,,,,,,,,,,,,,
,,,,,,,,,63e51e55974365f1e43df265,Spanish,13 or older,"no, only English or Spanish",yes,2025-07-22_21h25.12.042,empathy_intonation_perc,2024.2.4,MacIntel,59.88023952,63e51e55974365f1e43df265,687ed1b7e638a4cbf2f02089,688039cb0d12e540289dbf81,,,,,,,,,,,,,40,1,,./stim/wavs/puertorican_mismatch_interrogative-total-yn_El-hombre-mira-la-luna.wav,,,,,,,,,,,,,,,,,,,,,,718.163,718.7637,1,1,0.0867,,0,67,67,39,1,1,puertorican,,,,,,,,,,,,,,,,,,,,,,,,,,,,,,,,,,,,,,,,,,,,,,,,,,,,,,,,
,,,,,,,,,63e51e55974365f1e43df265,Spanish,13 or older,"no, only English or Spanish",yes,2025-07-22_21h25.12.042,empathy_intonation_perc,2024.2.4,MacIntel,59.88023952,63e51e55974365f1e43df265,687ed1b7e638a4cbf2f02089,688039cb0d12e540289dbf81,,,,,,,,,,,,,18,1,,./stim/wavs/mexican_match_interrogative-total-yn_Marta-abre-el-regalo.wav,,,,,,,,,,,,,,,,,,,,,,718.764,719.2961,0,0,0.0071,,0,68,68,17,1,0,mexican,,,,,,,,,,,,,,,,,,,,,,,,,,,,,,,,,,,,,,,,,,,,,,,,,,,,,,,,
,,,,,,,,,63e51e55974365f1e43df265,Spanish,13 or older,"no, only English or Spanish",yes,2025-07-22_21h25.12.042,empathy_intonation_perc,2024.2.4,MacIntel,59.88023952,63e51e55974365f1e43df265,687ed1b7e638a4cbf2f02089,688039cb0d12e540289dbf81,,,,,,,,,,,,,25,1,,./stim/wavs/castilian_mismatch_interrogative-total-yn_La-maestra-vive-en-Paris.wav,,,,,,,,,,,,,,,,,,,,,,719.2965,719.8795,0,0,0.0707,,0,69,69,24,1,0,castilian,,,,,,,,,,,,,,,,,,,,,,,,,,,,,,,,,,,,,,,,,,,,,,,,,,,,,,,,
,,,,,,,,,63e51e55974365f1e43df265,Spanish,13 or older,"no, only English or Spanish",yes,2025-07-22_21h25.12.042,empathy_intonation_perc,2024.2.4,MacIntel,59.88023952,63e51e55974365f1e43df265,687ed1b7e638a4cbf2f02089,688039cb0d12e540289dbf81,,,,,,,,,,,,,51,0,,./stim/wavs/cuban_match_declarative-broad-focus_Ana-lleva-el-abrigo.wav,,,,,,,,,,,,,,,,,,,,,,719.8799,732.4629,0,1,12.0577,,0,70,70,50,1,0,cuban,,,,,,,,,,,,,,,,,,,,,,,,,,,,,,,,,,,,,,,,,,,,,,,,,,,,,,,,
,,,,,,,,,63e51e55974365f1e43df265,Spanish,13 or older,"no, only English or Spanish",yes,2025-07-22_21h25.12.042,empathy_intonation_perc,2024.2.4,MacIntel,59.88023952,63e51e55974365f1e43df265,687ed1b7e638a4cbf2f02089,688039cb0d12e540289dbf81,,,,,,,,,,,,,69,0,,./stim/wavs/castilian_mismatch_declarative-broad-focus_El-nino-oye-el-rio.wav,,,,,,,,,,,,,,,,,,,,,,732.4636,733.547,0,1,0.5755,,0,71,71,68,1,0,castilian,,,,,,,,,,,,,,,,,,,,,,,,,,,,,,,,,,,,,,,,,,,,,,,,,,,,,,,,
,,,,,,,,,63e51e55974365f1e43df265,Spanish,13 or older,"no, only English or Spanish",yes,2025-07-22_21h25.12.042,empathy_intonation_perc,2024.2.4,MacIntel,59.88023952,63e51e55974365f1e43df265,687ed1b7e638a4cbf2f02089,688039cb0d12e540289dbf81,,,,,,,,,,,,,70,0,,./stim/wavs/castilian_mismatch_declarative-broad-focus_La-maestra-vive-en-Paris.wav,,,,,,,,,,,,,,,,,,,,,,733.5475,734.2796,1,0,0.2016,,0,72,72,69,1,0,castilian,,,,,,,,,,,,,,,,,,,,,,,,,,,,,,,,,,,,,,,,,,,,,,,,,,,,,,,,
,,,,,,,,,63e51e55974365f1e43df265,Spanish,13 or older,"no, only English or Spanish",yes,2025-07-22_21h25.12.042,empathy_intonation_perc,2024.2.4,MacIntel,59.88023952,63e51e55974365f1e43df265,687ed1b7e638a4cbf2f02089,688039cb0d12e540289dbf81,,,,,,,,,,,,,1,1,,./stim/wavs/castilian_match_interrogative-total-yn_David-leia-el-libro.wav,,,,,,,,,,,,,,,,,,,,,,734.2801,735.2305,0,0,0.4384,,0,73,73,0,1,0,castilian,,,,,,,,,,,,,,,,,,,,,,,,,,,,,,,,,,,,,,,,,,,,,,,,,,,,,,,,
,,,,,,,,,63e51e55974365f1e43df265,Spanish,13 or older,"no, only English or Spanish",yes,2025-07-22_21h25.12.042,empathy_intonation_perc,2024.2.4,MacIntel,59.88023952,63e51e55974365f1e43df265,687ed1b7e638a4cbf2f02089,688039cb0d12e540289dbf81,,,,,,,,,,,,,23,1,,./stim/wavs/puertorican_match_interrogative-total-yn_Manuela-vende-el-carro.wav,,,,,,,,,,,,,,,,,,,,,,735.2308,735.847,0,0,0.0861,,0,74,74,22,1,1,puertorican,,,,,,,,,,,,,,,,,,,,,,,,,,,,,,,,,,,,,,,,,,,,,,,,,,,,,,,,
,,,,,,,,,63e51e55974365f1e43df265,Spanish,13 or older,"no, only English or Spanish",yes,2025-07-22_21h25.12.042,empathy_intonation_perc,2024.2.4,MacIntel,59.88023952,63e51e55974365f1e43df265,687ed1b7e638a4cbf2f02089,688039cb0d12e540289dbf81,,,,,,,,,,,,,29,1,,./stim/wavs/castilian_mismatch_interrogative-total-yn_Mi-tia-odia-la-lluvia.wav,,,,,,,,,,,,,,,,,,,,,,735.8474,736.4971,0,0,0.1167,,0,75,75,28,1,0,castilian,,,,,,,,,,,,,,,,,,,,,,,,,,,,,,,,,,,,,,,,,,,,,,,,,,,,,,,,
,,,,,,,,,63e51e55974365f1e43df265,Spanish,13 or older,"no, only English or Spanish",yes,2025-07-22_21h25.12.042,empathy_intonation_perc,2024.2.4,MacIntel,59.88023952,63e51e55974365f1e43df265,687ed1b7e638a4cbf2f02089,688039cb0d12e540289dbf81,,,,,,,,,,,,,44,1,,./stim/wavs/puertorican_mismatch_interrogative-total-yn_Mi-madre-come-la-fruta.wav,,,,,,,,,,,,,,,,,,,,,,736.4975,737.064,1,1,0.045,,0,76,76,43,1,1,puertorican,,,,,,,,,,,,,,,,,,,,,,,,,,,,,,,,,,,,,,,,,,,,,,,,,,,,,,,,
,,,,,,,,,63e51e55974365f1e43df265,Spanish,13 or older,"no, only English or Spanish",yes,2025-07-22_21h25.12.042,empathy_intonation_perc,2024.2.4,MacIntel,59.88023952,63e51e55974365f1e43df265,687ed1b7e638a4cbf2f02089,688039cb0d12e540289dbf81,,,,,,,,,,,,,55,0,,./stim/wavs/cuban_match_declarative-broad-focus_Mariano-habla-del-tiempo.wav,,,,,,,,,,,,,,,,,,,,,,737.0648,737.696,1,0,0.1129,,0,77,77,54,1,0,cuban,,,,,,,,,,,,,,,,,,,,,,,,,,,,,,,,,,,,,,,,,,,,,,,,,,,,,,,,
,,,,,,,,,63e51e55974365f1e43df265,Spanish,13 or older,"no, only English or Spanish",yes,2025-07-22_21h25.12.042,empathy_intonation_perc,2024.2.4,MacIntel,59.88023952,63e51e55974365f1e43df265,687ed1b7e638a4cbf2f02089,688039cb0d12e540289dbf81,,,,,,,,,,,,,37,1,,./stim/wavs/mexican_mismatch_interrogative-total-yn_La-maestra-vive-en-Paris.wav,,,,,,,,,,,,,,,,,,,,,,737.6963,738.347,0,0,0.1285,,0,78,78,36,1,0,mexican,,,,,,,,,,,,,,,,,,,,,,,,,,,,,,,,,,,,,,,,,,,,,,,,,,,,,,,,
,,,,,,,,,63e51e55974365f1e43df265,Spanish,13 or older,"no, only English or Spanish",yes,2025-07-22_21h25.12.042,empathy_intonation_perc,2024.2.4,MacIntel,59.88023952,63e51e55974365f1e43df265,687ed1b7e638a4cbf2f02089,688039cb0d12e540289dbf81,,,,,,,,,,,,,60,0,,./stim/wavs/mexican_match_declarative-broad-focus_Emilio-ama-la-marcha.wav,,,,,,,,,,,,,,,,,,,,,,738.3473,738.9961,1,0,0.1281,,0,79,79,59,1,0,mexican,,,,,,,,,,,,,,,,,,,,,,,,,,,,,,,,,,,,,,,,,,,,,,,,,,,,,,,,
,,,,,,,,,63e51e55974365f1e43df265,Spanish,13 or older,"no, only English or Spanish",yes,2025-07-22_21h25.12.042,empathy_intonation_perc,2024.2.4,MacIntel,59.88023952,63e51e55974365f1e43df265,687ed1b7e638a4cbf2f02089,688039cb0d12e540289dbf81,,,,,,,,,,,,,66,0,,./stim/wavs/puertorican_match_declarative-broad-focus_Emilio-ama-la-marcha.wav,,,,,,,,,,,,,,,,,,,,,,738.9963,739.5641,1,0,0.0648,,0,80,80,65,1,0,puertorican,,,,,,,,,,,,,,,,,,,,,,,,,,,,,,,,,,,,,,,,,,,,,,,,,,,,,,,,
,,,,,,,,,63e51e55974365f1e43df265,Spanish,13 or older,"no, only English or Spanish",yes,2025-07-22_21h25.12.042,empathy_intonation_perc,2024.2.4,MacIntel,59.88023952,63e51e55974365f1e43df265,687ed1b7e638a4cbf2f02089,688039cb0d12e540289dbf81,,,,,,,,,,,,,12,1,,./stim/wavs/cuban_match_interrogative-total-yn_Marta-abre-el-regalo.wav,,,,,,,,,,,,,,,,,,,,,,739.5649,740.1628,1,1,0.0682,,0,81,81,11,1,1,cuban,,,,,,,,,,,,,,,,,,,,,,,,,,,,,,,,,,,,,,,,,,,,,,,,,,,,,,,,
,,,,,,,,,63e51e55974365f1e43df265,Spanish,13 or older,"no, only English or Spanish",yes,2025-07-22_21h25.12.042,empathy_intonation_perc,2024.2.4,MacIntel,59.88023952,63e51e55974365f1e43df265,687ed1b7e638a4cbf2f02089,688039cb0d12e540289dbf81,,,,,,,,,,,,,80,0,,./stim/wavs/mexican_mismatch_declarative-broad-focus_El-hombre-mira-la-luna.wav,,,,,,,,,,,,,,,,,,,,,,740.1633,740.781,1,0,0.1136,,0,82,82,79,1,0,mexican,,,,,,,,,,,,,,,,,,,,,,,,,,,,,,,,,,,,,,,,,,,,,,,,,,,,,,,,
,,,,,,,,,63e51e55974365f1e43df265,Spanish,13 or older,"no, only English or Spanish",yes,2025-07-22_21h25.12.042,empathy_intonation_perc,2024.2.4,MacIntel,59.88023952,63e51e55974365f1e43df265,687ed1b7e638a4cbf2f02089,688039cb0d12e540289dbf81,,,,,,,,,,,,,33,1,,./stim/wavs/cuban_mismatch_interrogative-total-yn_Mi-novio-viene-del-lago.wav,,,,,,,,,,,,,,,,,,,,,,740.7817,741.4293,1,1,0.1158,,0,83,83,32,1,1,cuban,,,,,,,,,,,,,,,,,,,,,,,,,,,,,,,,,,,,,,,,,,,,,,,,,,,,,,,,
,,,,,,,,,63e51e55974365f1e43df265,Spanish,13 or older,"no, only English or Spanish",yes,2025-07-22_21h25.12.042,empathy_intonation_perc,2024.2.4,MacIntel,59.88023952,63e51e55974365f1e43df265,687ed1b7e638a4cbf2f02089,688039cb0d12e540289dbf81,,,,,,,,,,,,,84,0,,./stim/wavs/puertorican_mismatch_declarative-broad-focus_El-bebe-comia-muy-bien.wav,,,,,,,,,,,,,,,,,,,,,,741.4296,742.1294,0,1,0.1849,,0,84,84,83,1,0,puertorican,,,,,,,,,,,,,,,,,,,,,,,,,,,,,,,,,,,,,,,,,,,,,,,,,,,,,,,,
,,,,,,,,,63e51e55974365f1e43df265,Spanish,13 or older,"no, only English or Spanish",yes,2025-07-22_21h25.12.042,empathy_intonation_perc,2024.2.4,MacIntel,59.88023952,63e51e55974365f1e43df265,687ed1b7e638a4cbf2f02089,688039cb0d12e540289dbf81,,,,,,,,,,,,,52,0,,./stim/wavs/cuban_match_declarative-broad-focus_Daniel-iba-a-Bolivia.wav,,,,,,,,,,,,,,,,,,,,,,742.1297,742.7468,1,0,0.0996,,0,85,85,51,1,0,cuban,,,,,,,,,,,,,,,,,,,,,,,,,,,,,,,,,,,,,,,,,,,,,,,,,,,,,,,,
,,,,,,,,,63e51e55974365f1e43df265,Spanish,13 or older,"no, only English or Spanish",yes,2025-07-22_21h25.12.042,empathy_intonation_perc,2024.2.4,MacIntel,59.88023952,63e51e55974365f1e43df265,687ed1b7e638a4cbf2f02089,688039cb0d12e540289dbf81,,,,,,,,,,,,,85,0,,./stim/wavs/puertorican_mismatch_declarative-broad-focus_El-hombre-mira-la-luna.wav,,,,,,,,,,,,,,,,,,,,,,742.7471,743.297,0,1,0.0377,,0,86,86,84,1,0,puertorican,,,,,,,,,,,,,,,,,,,,,,,,,,,,,,,,,,,,,,,,,,,,,,,,,,,,,,,,
,,,,,,,,,63e51e55974365f1e43df265,Spanish,13 or older,"no, only English or Spanish",yes,2025-07-22_21h25.12.042,empathy_intonation_perc,2024.2.4,MacIntel,59.88023952,63e51e55974365f1e43df265,687ed1b7e638a4cbf2f02089,688039cb0d12e540289dbf81,,,,,,,,,,,,,17,1,,./stim/wavs/mexican_match_interrogative-total-yn_Mariano-habla-del-tiempo.wav,,,,,,,,,,,,,,,,,,,,,,743.2973,743.9138,0,0,0.1012,,0,87,87,16,1,0,mexican,,,,,,,,,,,,,,,,,,,,,,,,,,,,,,,,,,,,,,,,,,,,,,,,,,,,,,,,
,,,,,,,"Great! Now we will move on. The next task consists of about 60 trials, in each of which you will see a string of letters. 
  
  Your task is to decide whether this is a real Spanish word or not.", (press the spacebar to continue),63e51e55974365f1e43df265,Spanish,13 or older,"no, only English or Spanish",yes,2025-07-22_21h25.12.042,empathy_intonation_perc,2024.2.4,MacIntel,59.88023952,63e51e55974365f1e43df265,687ed1b7e638a4cbf2f02089,688039cb0d12e540289dbf81,,,,,,,,,,,,,,,,,,,,,,,,,,,,,,,,,,,,,,,,,,,,,,,,,,,743.9201,746.7972,0,0,0,0,1,,,,,,,,,,,,,,,,,,,,,,,,,,,,,,,,,,,,,,,,,,,,,,,,,
,,,,,,,"If you think it is an existing Spanish word, you type '1' (for 'REAL'), and if you think it is not an existing Spanish word, you type '0' (for 'FAKE').", (press the spacebar to continue),63e51e55974365f1e43df265,Spanish,13 or older,"no, only English or Spanish",yes,2025-07-22_21h25.12.042,empathy_intonation_perc,2024.2.4,MacIntel,59.88023952,63e51e55974365f1e43df265,687ed1b7e638a4cbf2f02089,688039cb0d12e540289dbf81,,,,,,,,,,,,,,,,,,,,,,,,,,,,,,,,,,,,,,,,,,,,,,,,,,,746.8017,746.9293,0,1,1,1,1,,,,,,,,,,,,,,,,,,,,,,,,,,,,,,,,,,,,,,,,,,,,,,,,,
,,,,,,,"If you are sure that the word exists, even though you don’t know its exact meaning, you may still respond '1' (REAL). 
  
  But if you are not sure if it is an existing word, you should respond '0' (FAKE).
  
  Let's do a practice round...", (press the spacebar to continue),63e51e55974365f1e43df265,Spanish,13 or older,"no, only English or Spanish",yes,2025-07-22_21h25.12.042,empathy_intonation_perc,2024.2.4,MacIntel,59.88023952,63e51e55974365f1e43df265,687ed1b7e638a4cbf2f02089,688039cb0d12e540289dbf81,,,,,,,,,,,,,,,,,,,,,,,,,,,,,,,,,,,,,,,,,,,,,,,,,,,746.9302,747.4972,0,2,2,2,1,,,,,,,,,,,,,,,,,,,,,,,,,,,,,,,,,,,,,,,,,,,,,,,,,
,,,,,,,,,63e51e55974365f1e43df265,Spanish,13 or older,"no, only English or Spanish",yes,2025-07-22_21h25.12.042,empathy_intonation_perc,2024.2.4,MacIntel,59.88023952,63e51e55974365f1e43df265,687ed1b7e638a4cbf2f02089,688039cb0d12e540289dbf81,,,,,,,,,,,,,,0,,,,,,,,,,,,,,,,,,,,,,,,,,,,,,,,,,,,,,,,,,,,747.5022,749.4639,1,0,1.4293,,749.4641,750.4643,0,0,0,0,1,0,depiste,REAL,FAKE,,,,,,,,,,,,,,,,,,,,,,,,,,,,,,,,
,,,,,,,,,63e51e55974365f1e43df265,Spanish,13 or older,"no, only English or Spanish",yes,2025-07-22_21h25.12.042,empathy_intonation_perc,2024.2.4,MacIntel,59.88023952,63e51e55974365f1e43df265,687ed1b7e638a4cbf2f02089,688039cb0d12e540289dbf81,,,,,,,,,,,,,,1,,,,,,,,,,,,,,,,,,,,,,,,,,,,,,,,,,,,,,,,,,,,750.4657,751.7803,1,1,0.7854,,751.7807,752.7804,0,1,1,1,1,0,sí,REAL,FAKE,,,,,,,,,,,,,,,,,,,,,,,,,,,,,,,,
,,,,,,,,,63e51e55974365f1e43df265,Spanish,13 or older,"no, only English or Spanish",yes,2025-07-22_21h25.12.042,empathy_intonation_perc,2024.2.4,MacIntel,59.88023952,63e51e55974365f1e43df265,687ed1b7e638a4cbf2f02089,688039cb0d12e540289dbf81,,,,,,,,,,,,,,0,,,,,,,,,,,,,,,,,,,,,,,,,,,,,,,,,,,,,,,,,,,,752.7816,753.8462,1,0,0.5332,,753.8465,754.8474,0,2,2,2,1,0,coné,REAL,FAKE,,,,,,,,,,,,,,,,,,,,,,,,,,,,,,,,
,,,,,,,,,63e51e55974365f1e43df265,Spanish,13 or older,"no, only English or Spanish",yes,2025-07-22_21h25.12.042,empathy_intonation_perc,2024.2.4,MacIntel,59.88023952,63e51e55974365f1e43df265,687ed1b7e638a4cbf2f02089,688039cb0d12e540289dbf81,,,,,,,,,,,,,,0,,,,,,,,,,,,,,,,,,,,,,,,,,,,,,,,,,,,,,,,,,,,754.8486,756.0304,0,1,0.647,,756.0308,757.0297,0,3,3,3,1,0,calpar,REAL,FAKE,,,,,,,,,,,,,,,,,,,,,,,,,,,,,,,,
,,,,,,,,,63e51e55974365f1e43df265,Spanish,13 or older,"no, only English or Spanish",yes,2025-07-22_21h25.12.042,empathy_intonation_perc,2024.2.4,MacIntel,59.88023952,63e51e55974365f1e43df265,687ed1b7e638a4cbf2f02089,688039cb0d12e540289dbf81,,,,,,,,,,,,,,0,,,,,,,,,,,,,,,,,,,,,,,,,,,,,,,,,,,,,,,,,,,,757.0307,758.1833,0,1,0.6284,,758.1833,759.1799,0,4,4,4,1,0,joten,REAL,FAKE,,,,,,,,,,,,,,,,,,,,,,,,,,,,,,,,
,,,,,,,,,63e51e55974365f1e43df265,Spanish,13 or older,"no, only English or Spanish",yes,2025-07-22_21h25.12.042,empathy_intonation_perc,2024.2.4,MacIntel,59.88023952,63e51e55974365f1e43df265,687ed1b7e638a4cbf2f02089,688039cb0d12e540289dbf81,,,,,,,,,,,,,,1,,,,,,,,,,,,,,,,,,,,,,,,,,,,,,,,,,,,,,,,,,,,759.1811,760.2806,0,0,0.5668,,760.281,761.2803,0,5,5,5,1,0,sacapuntas,REAL,FAKE,,,,,,,,,,,,,,,,,,,,,,,,,,,,,,,,
,,,,,,,,,63e51e55974365f1e43df265,Spanish,13 or older,"no, only English or Spanish",yes,2025-07-22_21h25.12.042,empathy_intonation_perc,2024.2.4,MacIntel,59.88023952,63e51e55974365f1e43df265,687ed1b7e638a4cbf2f02089,688039cb0d12e540289dbf81,,,,,,,,,,,,,,0,,,,,,,,,,,,,,,,,,,,,,,,,,,,,,,,,,,,,,,,,,,,761.281,762.4628,1,0,0.6452,,762.4628,763.4626,0,6,6,6,1,0,priba,REAL,FAKE,,,,,,,,,,,,,,,,,,,,,,,,,,,,,,,,
,,,,,,,,,63e51e55974365f1e43df265,Spanish,13 or older,"no, only English or Spanish",yes,2025-07-22_21h25.12.042,empathy_intonation_perc,2024.2.4,MacIntel,59.88023952,63e51e55974365f1e43df265,687ed1b7e638a4cbf2f02089,688039cb0d12e540289dbf81,,,,,,,,,,,,,,0,,,,,,,,,,,,,,,,,,,,,,,,,,,,,,,,,,,,,,,,,,,,763.4632,767.4295,1,0,3.4328,,767.4295,768.4297,0,7,7,7,1,0,pelasula,REAL,FAKE,,,,,,,,,,,,,,,,,,,,,,,,,,,,,,,,
,,,,,,,,,63e51e55974365f1e43df265,Spanish,13 or older,"no, only English or Spanish",yes,2025-07-22_21h25.12.042,empathy_intonation_perc,2024.2.4,MacIntel,59.88023952,63e51e55974365f1e43df265,687ed1b7e638a4cbf2f02089,688039cb0d12e540289dbf81,,,,,,,,,,,,,,1,,,,,,,,,,,,,,,,,,,,,,,,,,,,,,,,,,,,,,,,,,,,768.4308,768.997,0,0,0.0432,,768.9971,769.9972,0,8,8,8,1,0,bien,REAL,FAKE,,,,,,,,,,,,,,,,,,,,,,,,,,,,,,,,
,,,,,,,,,63e51e55974365f1e43df265,Spanish,13 or older,"no, only English or Spanish",yes,2025-07-22_21h25.12.042,empathy_intonation_perc,2024.2.4,MacIntel,59.88023952,63e51e55974365f1e43df265,687ed1b7e638a4cbf2f02089,688039cb0d12e540289dbf81,,,,,,,,,,,,,,1,,,,,,,,,,,,,,,,,,,,,,,,,,,,,,,,,,,,,,,,,,,,769.9983,770.6304,0,0,0.0943,,770.6304,771.6303,0,9,9,9,1,0,casa,REAL,FAKE,,,,,,,,,,,,,,,,,,,,,,,,,,,,,,,,
,,,,,,,,,63e51e55974365f1e43df265,Spanish,13 or older,"no, only English or Spanish",yes,2025-07-22_21h25.12.042,empathy_intonation_perc,2024.2.4,MacIntel,59.88023952,63e51e55974365f1e43df265,687ed1b7e638a4cbf2f02089,688039cb0d12e540289dbf81,,,,,,,,,,,,,,0,,,,,,,,,,,,,,,,,,,,,,,,,,,,,,,,,,,,,,,,,,,,771.6309,772.297,1,0,0.1336,,772.297,773.2974,0,10,10,10,1,0,lejo,REAL,FAKE,,,,,,,,,,,,,,,,,,,,,,,,,,,,,,,,
,,,,,,,,,63e51e55974365f1e43df265,Spanish,13 or older,"no, only English or Spanish",yes,2025-07-22_21h25.12.042,empathy_intonation_perc,2024.2.4,MacIntel,59.88023952,63e51e55974365f1e43df265,687ed1b7e638a4cbf2f02089,688039cb0d12e540289dbf81,,,,,,,,,,,,,,0,,,,,,,,,,,,,,,,,,,,,,,,,,,,,,,,,,,,,,,,,,,,773.2985,773.8467,1,0,0.0142,,773.8467,774.8471,0,11,11,11,1,0,pretantas,REAL,FAKE,,,,,,,,,,,,,,,,,,,,,,,,,,,,,,,,
,,,,,,,,,63e51e55974365f1e43df265,Spanish,13 or older,"no, only English or Spanish",yes,2025-07-22_21h25.12.042,empathy_intonation_perc,2024.2.4,MacIntel,59.88023952,63e51e55974365f1e43df265,687ed1b7e638a4cbf2f02089,688039cb0d12e540289dbf81,,,,,,,,,,,,,,,,,,,,,,,,,,,,,,,,,,,,,,,,,,,,,,,,,,,,,,,,,,,,,,,,,,,,,,,,,,,774.8472,781.7297,,,,,,,,,,,,,,,,,,,,,,,,,,,,,,
,,,,,,,,,63e51e55974365f1e43df265,Spanish,13 or older,"no, only English or Spanish",yes,2025-07-22_21h25.12.042,empathy_intonation_perc,2024.2.4,MacIntel,59.88023952,63e51e55974365f1e43df265,687ed1b7e638a4cbf2f02089,688039cb0d12e540289dbf81,,,,,,,,,,,,,,0,,,,,,,,,,,,,,,,,,,,,,,,,,,,,,,,,,,,,,,,,,,,,,,,,,,,,,,,,23,lampera,,,,,781.7408,782.7296,1,0,0.4664,,0,0,0,22,1,REAL,FAKE,,,,,,,,,,,,,,,,,
,,,,,,,,,63e51e55974365f1e43df265,Spanish,13 or older,"no, only English or Spanish",yes,2025-07-22_21h25.12.042,empathy_intonation_perc,2024.2.4,MacIntel,59.88023952,63e51e55974365f1e43df265,687ed1b7e638a4cbf2f02089,688039cb0d12e540289dbf81,,,,,,,,,,,,,,0,,,,,,,,,,,,,,,,,,,,,,,,,,,,,,,,,,,,,,,,,,,,,,,,,,,,,,,,,82,empirador,,,,,782.7301,783.397,0,1,0.148,,0,1,1,81,1,REAL,FAKE,,,,,,,,,,,,,,,,,
,,,,,,,,,63e51e55974365f1e43df265,Spanish,13 or older,"no, only English or Spanish",yes,2025-07-22_21h25.12.042,empathy_intonation_perc,2024.2.4,MacIntel,59.88023952,63e51e55974365f1e43df265,687ed1b7e638a4cbf2f02089,688039cb0d12e540289dbf81,,,,,,,,,,,,,,1,,,,,,,,,,,,,,,,,,,,,,,,,,,,,,,,,,,,,,,,,,,,,,,,,,,,,,,,,75,yacer,,,,,783.3976,784.0471,0,0,0.1156,,0,2,2,74,1,REAL,FAKE,,,,,,,,,,,,,,,,,
,,,,,,,,,63e51e55974365f1e43df265,Spanish,13 or older,"no, only English or Spanish",yes,2025-07-22_21h25.12.042,empathy_intonation_perc,2024.2.4,MacIntel,59.88023952,63e51e55974365f1e43df265,687ed1b7e638a4cbf2f02089,688039cb0d12e540289dbf81,,,,,,,,,,,,,,1,,,,,,,,,,,,,,,,,,,,,,,,,,,,,,,,,,,,,,,,,,,,,,,,,,,,,,,,,28,merodear,,,,,784.0478,784.5961,1,1,0.0126,,0,3,3,27,1,REAL,FAKE,,,,,,,,,,,,,,,,,
,,,,,,,,,63e51e55974365f1e43df265,Spanish,13 or older,"no, only English or Spanish",yes,2025-07-22_21h25.12.042,empathy_intonation_perc,2024.2.4,MacIntel,59.88023952,63e51e55974365f1e43df265,687ed1b7e638a4cbf2f02089,688039cb0d12e540289dbf81,,,,,,,,,,,,,,1,,,,,,,,,,,,,,,,,,,,,,,,,,,,,,,,,,,,,,,,,,,,,,,,,,,,,,,,,62,flaco,,,,,784.5965,785.1309,0,0,0.013,,0,4,4,61,1,REAL,FAKE,,,,,,,,,,,,,,,,,
,,,,,,,,,63e51e55974365f1e43df265,Spanish,13 or older,"no, only English or Spanish",yes,2025-07-22_21h25.12.042,empathy_intonation_perc,2024.2.4,MacIntel,59.88023952,63e51e55974365f1e43df265,687ed1b7e638a4cbf2f02089,688039cb0d12e540289dbf81,,,,,,,,,,,,,,1,,,,,,,,,,,,,,,,,,,,,,,,,,,,,,,,,,,,,,,,,,,,,,,,,,,,,,,,,68,alegre,,,,,785.1317,785.7462,1,1,0.0857,,0,5,5,67,1,REAL,FAKE,,,,,,,,,,,,,,,,,
,,,,,,,,,63e51e55974365f1e43df265,Spanish,13 or older,"no, only English or Spanish",yes,2025-07-22_21h25.12.042,empathy_intonation_perc,2024.2.4,MacIntel,59.88023952,63e51e55974365f1e43df265,687ed1b7e638a4cbf2f02089,688039cb0d12e540289dbf81,,,,,,,,,,,,,,1,,,,,,,,,,,,,,,,,,,,,,,,,,,,,,,,,,,,,,,,,,,,,,,,,,,,,,,,,9,hacha,,,,,785.7469,786.5803,1,1,0.3209,,0,6,6,8,1,REAL,FAKE,,,,,,,,,,,,,,,,,
,,,,,,,,,63e51e55974365f1e43df265,Spanish,13 or older,"no, only English or Spanish",yes,2025-07-22_21h25.12.042,empathy_intonation_perc,2024.2.4,MacIntel,59.88023952,63e51e55974365f1e43df265,687ed1b7e638a4cbf2f02089,688039cb0d12e540289dbf81,,,,,,,,,,,,,,1,,,,,,,,,,,,,,,,,,,,,,,,,,,,,,,,,,,,,,,,,,,,,,,,,,,,,,,,,51,candado,,,,,786.5808,787.3804,1,1,0.2758,,0,7,7,50,1,REAL,FAKE,,,,,,,,,,,,,,,,,
,,,,,,,,,63e51e55974365f1e43df265,Spanish,13 or older,"no, only English or Spanish",yes,2025-07-22_21h25.12.042,empathy_intonation_perc,2024.2.4,MacIntel,59.88023952,63e51e55974365f1e43df265,687ed1b7e638a4cbf2f02089,688039cb0d12e540289dbf81,,,,,,,,,,,,,,0,,,,,,,,,,,,,,,,,,,,,,,,,,,,,,,,,,,,,,,,,,,,,,,,,,,,,,,,,66,hacido,,,,,787.3816,788.097,0,1,0.1859,,0,8,8,65,1,REAL,FAKE,,,,,,,,,,,,,,,,,
,,,,,,,,,63e51e55974365f1e43df265,Spanish,13 or older,"no, only English or Spanish",yes,2025-07-22_21h25.12.042,empathy_intonation_perc,2024.2.4,MacIntel,59.88023952,63e51e55974365f1e43df265,687ed1b7e638a4cbf2f02089,688039cb0d12e540289dbf81,,,,,,,,,,,,,,1,,,,,,,,,,,,,,,,,,,,,,,,,,,,,,,,,,,,,,,,,,,,,,,,,,,,,,,,,15,regar,,,,,788.0976,788.8803,1,1,0.2624,,0,9,9,14,1,REAL,FAKE,,,,,,,,,,,,,,,,,
,,,,,,,,,63e51e55974365f1e43df265,Spanish,13 or older,"no, only English or Spanish",yes,2025-07-22_21h25.12.042,empathy_intonation_perc,2024.2.4,MacIntel,59.88023952,63e51e55974365f1e43df265,687ed1b7e638a4cbf2f02089,688039cb0d12e540289dbf81,,,,,,,,,,,,,,1,,,,,,,,,,,,,,,,,,,,,,,,,,,,,,,,,,,,,,,,,,,,,,,,,,,,,,,,,12,asesinato,,,,,788.881,789.5798,0,0,0.1622,,0,10,10,11,1,REAL,FAKE,,,,,,,,,,,,,,,,,
,,,,,,,,,63e51e55974365f1e43df265,Spanish,13 or older,"no, only English or Spanish",yes,2025-07-22_21h25.12.042,empathy_intonation_perc,2024.2.4,MacIntel,59.88023952,63e51e55974365f1e43df265,687ed1b7e638a4cbf2f02089,688039cb0d12e540289dbf81,,,,,,,,,,,,,,0,,,,,,,,,,,,,,,,,,,,,,,,,,,,,,,,,,,,,,,,,,,,,,,,,,,,,,,,,87,grodo,,,,,789.5804,790.2971,1,0,0.1994,,0,11,11,86,1,REAL,FAKE,,,,,,,,,,,,,,,,,
,,,,,,,,,63e51e55974365f1e43df265,Spanish,13 or older,"no, only English or Spanish",yes,2025-07-22_21h25.12.042,empathy_intonation_perc,2024.2.4,MacIntel,59.88023952,63e51e55974365f1e43df265,687ed1b7e638a4cbf2f02089,688039cb0d12e540289dbf81,,,,,,,,,,,,,,1,,,,,,,,,,,,,,,,,,,,,,,,,,,,,,,,,,,,,,,,,,,,,,,,,,,,,,,,,13,helar,,,,,790.2976,791.0804,0,0,0.2508,,0,12,12,12,1,REAL,FAKE,,,,,,,,,,,,,,,,,
,,,,,,,,,63e51e55974365f1e43df265,Spanish,13 or older,"no, only English or Spanish",yes,2025-07-22_21h25.12.042,empathy_intonation_perc,2024.2.4,MacIntel,59.88023952,63e51e55974365f1e43df265,687ed1b7e638a4cbf2f02089,688039cb0d12e540289dbf81,,,,,,,,,,,,,,0,,,,,,,,,,,,,,,,,,,,,,,,,,,,,,,,,,,,,,,,,,,,,,,,,,,,,,,,,74,cintro,,,,,791.081,791.7959,1,0,0.1851,,0,13,13,73,1,REAL,FAKE,,,,,,,,,,,,,,,,,
,,,,,,,,,63e51e55974365f1e43df265,Spanish,13 or older,"no, only English or Spanish",yes,2025-07-22_21h25.12.042,empathy_intonation_perc,2024.2.4,MacIntel,59.88023952,63e51e55974365f1e43df265,687ed1b7e638a4cbf2f02089,688039cb0d12e540289dbf81,,,,,,,,,,,,,,1,,,,,,,,,,,,,,,,,,,,,,,,,,,,,,,,,,,,,,,,,,,,,,,,,,,,,,,,,2,pellizcar,,,,,791.7966,792.4971,0,0,0.1866,,0,14,14,1,1,REAL,FAKE,,,,,,,,,,,,,,,,,
,,,,,,,,,63e51e55974365f1e43df265,Spanish,13 or older,"no, only English or Spanish",yes,2025-07-22_21h25.12.042,empathy_intonation_perc,2024.2.4,MacIntel,59.88023952,63e51e55974365f1e43df265,687ed1b7e638a4cbf2f02089,688039cb0d12e540289dbf81,,,,,,,,,,,,,,1,,,,,,,,,,,,,,,,,,,,,,,,,,,,,,,,,,,,,,,,,,,,,,,,,,,,,,,,,6,tergiversar,,,,,792.4978,793.2303,1,1,0.2021,,0,15,15,5,1,REAL,FAKE,,,,,,,,,,,,,,,,,
,,,,,,,,,63e51e55974365f1e43df265,Spanish,13 or older,"no, only English or Spanish",yes,2025-07-22_21h25.12.042,empathy_intonation_perc,2024.2.4,MacIntel,59.88023952,63e51e55974365f1e43df265,687ed1b7e638a4cbf2f02089,688039cb0d12e540289dbf81,,,,,,,,,,,,,,0,,,,,,,,,,,,,,,,,,,,,,,,,,,,,,,,,,,,,,,,,,,,,,,,,,,,,,,,,1,terzo,,,,,793.2309,793.9471,0,1,0.1802,,0,16,16,0,1,REAL,FAKE,,,,,,,,,,,,,,,,,
,,,,,,,,,63e51e55974365f1e43df265,Spanish,13 or older,"no, only English or Spanish",yes,2025-07-22_21h25.12.042,empathy_intonation_perc,2024.2.4,MacIntel,59.88023952,63e51e55974365f1e43df265,687ed1b7e638a4cbf2f02089,688039cb0d12e540289dbf81,,,,,,,,,,,,,,1,,,,,,,,,,,,,,,,,,,,,,,,,,,,,,,,,,,,,,,,,,,,,,,,,,,,,,,,,59,besar,,,,,793.948,794.6638,0,0,0.1816,,0,17,17,58,1,REAL,FAKE,,,,,,,,,,,,,,,,,
,,,,,,,,,63e51e55974365f1e43df265,Spanish,13 or older,"no, only English or Spanish",yes,2025-07-22_21h25.12.042,empathy_intonation_perc,2024.2.4,MacIntel,59.88023952,63e51e55974365f1e43df265,687ed1b7e638a4cbf2f02089,688039cb0d12e540289dbf81,,,,,,,,,,,,,,1,,,,,,,,,,,,,,,,,,,,,,,,,,,,,,,,,,,,,,,,,,,,,,,,,,,,,,,,,88,acantilado,,,,,794.6645,795.5306,1,1,0.3446,,0,18,18,87,1,REAL,FAKE,,,,,,,,,,,,,,,,,
,,,,,,,,,63e51e55974365f1e43df265,Spanish,13 or older,"no, only English or Spanish",yes,2025-07-22_21h25.12.042,empathy_intonation_perc,2024.2.4,MacIntel,59.88023952,63e51e55974365f1e43df265,687ed1b7e638a4cbf2f02089,688039cb0d12e540289dbf81,,,,,,,,,,,,,,1,,,,,,,,,,,,,,,,,,,,,,,,,,,,,,,,,,,,,,,,,,,,,,,,,,,,,,,,,25,bisagra,,,,,795.5318,796.247,1,1,0.1819,,0,19,19,24,1,REAL,FAKE,,,,,,,,,,,,,,,,,
,,,,,,,,,63e51e55974365f1e43df265,Spanish,13 or older,"no, only English or Spanish",yes,2025-07-22_21h25.12.042,empathy_intonation_perc,2024.2.4,MacIntel,59.88023952,63e51e55974365f1e43df265,687ed1b7e638a4cbf2f02089,688039cb0d12e540289dbf81,,,,,,,,,,,,,,1,,,,,,,,,,,,,,,,,,,,,,,,,,,,,,,,,,,,,,,,,,,,,,,,,,,,,,,,,61,seda,,,,,796.2477,796.9129,1,1,0.1328,,0,20,20,60,1,REAL,FAKE,,,,,,,,,,,,,,,,,
,,,,,,,,,63e51e55974365f1e43df265,Spanish,13 or older,"no, only English or Spanish",yes,2025-07-22_21h25.12.042,empathy_intonation_perc,2024.2.4,MacIntel,59.88023952,63e51e55974365f1e43df265,687ed1b7e638a4cbf2f02089,688039cb0d12e540289dbf81,,,,,,,,,,,,,,0,,,,,,,,,,,,,,,,,,,,,,,,,,,,,,,,,,,,,,,,,,,,,,,,,,,,,,,,,33,pauca,,,,,796.9134,797.5638,1,0,0.114,,0,21,21,32,1,REAL,FAKE,,,,,,,,,,,,,,,,,
,,,,,,,,,63e51e55974365f1e43df265,Spanish,13 or older,"no, only English or Spanish",yes,2025-07-22_21h25.12.042,empathy_intonation_perc,2024.2.4,MacIntel,59.88023952,63e51e55974365f1e43df265,687ed1b7e638a4cbf2f02089,688039cb0d12e540289dbf81,,,,,,,,,,,,,,1,,,,,,,,,,,,,,,,,,,,,,,,,,,,,,,,,,,,,,,,,,,,,,,,,,,,,,,,,60,matar,,,,,797.5644,798.1636,0,0,0.0633,,0,22,22,59,1,REAL,FAKE,,,,,,,,,,,,,,,,,
,,,,,,,,,63e51e55974365f1e43df265,Spanish,13 or older,"no, only English or Spanish",yes,2025-07-22_21h25.12.042,empathy_intonation_perc,2024.2.4,MacIntel,59.88023952,63e51e55974365f1e43df265,687ed1b7e638a4cbf2f02089,688039cb0d12e540289dbf81,,,,,,,,,,,,,,0,,,,,,,,,,,,,,,,,,,,,,,,,,,,,,,,,,,,,,,,,,,,,,,,,,,,,,,,,32,fatacidad,,,,,798.1642,799.3305,1,0,0.6329,,0,23,23,31,1,REAL,FAKE,,,,,,,,,,,,,,,,,
,,,,,,,,,63e51e55974365f1e43df265,Spanish,13 or older,"no, only English or Spanish",yes,2025-07-22_21h25.12.042,empathy_intonation_perc,2024.2.4,MacIntel,59.88023952,63e51e55974365f1e43df265,687ed1b7e638a4cbf2f02089,688039cb0d12e540289dbf81,,,,,,,,,,,,,,1,,,,,,,,,,,,,,,,,,,,,,,,,,,,,,,,,,,,,,,,,,,,,,,,,,,,,,,,,71,polvoriento,,,,,799.3312,800.0464,1,1,0.1813,,0,24,24,70,1,REAL,FAKE,,,,,,,,,,,,,,,,,
,,,,,,,,,63e51e55974365f1e43df265,Spanish,13 or older,"no, only English or Spanish",yes,2025-07-22_21h25.12.042,empathy_intonation_perc,2024.2.4,MacIntel,59.88023952,63e51e55974365f1e43df265,687ed1b7e638a4cbf2f02089,688039cb0d12e540289dbf81,,,,,,,,,,,,,,0,,,,,,,,,,,,,,,,,,,,,,,,,,,,,,,,,,,,,,,,,,,,,,,,,,,,,,,,,27,acutación,,,,,800.0471,800.6805,0,1,0.1021,,0,25,25,26,1,REAL,FAKE,,,,,,,,,,,,,,,,,
,,,,,,,,,63e51e55974365f1e43df265,Spanish,13 or older,"no, only English or Spanish",yes,2025-07-22_21h25.12.042,empathy_intonation_perc,2024.2.4,MacIntel,59.88023952,63e51e55974365f1e43df265,687ed1b7e638a4cbf2f02089,688039cb0d12e540289dbf81,,,,,,,,,,,,,,1,,,,,,,,,,,,,,,,,,,,,,,,,,,,,,,,,,,,,,,,,,,,,,,,,,,,,,,,,91,click the 1 key.,,,,,800.6812,801.3139,0,0,0.1005,,0,26,26,90,1,REAL,FAKE,,,,,,,,,,,,,,,,,
,,,,,,,,,63e51e55974365f1e43df265,Spanish,13 or older,"no, only English or Spanish",yes,2025-07-22_21h25.12.042,empathy_intonation_perc,2024.2.4,MacIntel,59.88023952,63e51e55974365f1e43df265,687ed1b7e638a4cbf2f02089,688039cb0d12e540289dbf81,,,,,,,,,,,,,,1,,,,,,,,,,,,,,,,,,,,,,,,,,,,,,,,,,,,,,,,,,,,,,,,,,,,,,,,,57,tacaño,,,,,801.3146,801.9304,1,1,0.0825,,0,27,27,56,1,REAL,FAKE,,,,,,,,,,,,,,,,,
,,,,,,,,,63e51e55974365f1e43df265,Spanish,13 or older,"no, only English or Spanish",yes,2025-07-22_21h25.12.042,empathy_intonation_perc,2024.2.4,MacIntel,59.88023952,63e51e55974365f1e43df265,687ed1b7e638a4cbf2f02089,688039cb0d12e540289dbf81,,,,,,,,,,,,,,1,,,,,,,,,,,,,,,,,,,,,,,,,,,,,,,,,,,,,,,,,,,,,,,,,,,,,,,,,78,frondoso,,,,,801.9311,802.6963,0,0,0.2377,,0,28,28,77,1,REAL,FAKE,,,,,,,,,,,,,,,,,
,,,,,,,,,63e51e55974365f1e43df265,Spanish,13 or older,"no, only English or Spanish",yes,2025-07-22_21h25.12.042,empathy_intonation_perc,2024.2.4,MacIntel,59.88023952,63e51e55974365f1e43df265,687ed1b7e638a4cbf2f02089,688039cb0d12e540289dbf81,,,,,,,,,,,,,,1,,,,,,,,,,,,,,,,,,,,,,,,,,,,,,,,,,,,,,,,,,,,,,,,,,,,,,,,,77,tiburón,,,,,802.6969,803.4299,1,1,0.2171,,0,29,29,76,1,REAL,FAKE,,,,,,,,,,,,,,,,,
,,,,,,,,,63e51e55974365f1e43df265,Spanish,13 or older,"no, only English or Spanish",yes,2025-07-22_21h25.12.042,empathy_intonation_perc,2024.2.4,MacIntel,59.88023952,63e51e55974365f1e43df265,687ed1b7e638a4cbf2f02089,688039cb0d12e540289dbf81,,,,,,,,,,,,,,0,,,,,,,,,,,,,,,,,,,,,,,,,,,,,,,,,,,,,,,,,,,,,,,,,,,,,,,,,42,cadallo,,,,,803.4306,804.1304,0,1,0.188,,0,30,30,41,1,REAL,FAKE,,,,,,,,,,,,,,,,,
,,,,,,,,,63e51e55974365f1e43df265,Spanish,13 or older,"no, only English or Spanish",yes,2025-07-22_21h25.12.042,empathy_intonation_perc,2024.2.4,MacIntel,59.88023952,63e51e55974365f1e43df265,687ed1b7e638a4cbf2f02089,688039cb0d12e540289dbf81,,,,,,,,,,,,,,1,,,,,,,,,,,,,,,,,,,,,,,,,,,,,,,,,,,,,,,,,,,,,,,,,,,,,,,,,56,musgo,,,,,804.1312,804.8805,0,0,0.2156,,0,31,31,55,1,REAL,FAKE,,,,,,,,,,,,,,,,,
,,,,,,,,,63e51e55974365f1e43df265,Spanish,13 or older,"no, only English or Spanish",yes,2025-07-22_21h25.12.042,empathy_intonation_perc,2024.2.4,MacIntel,59.88023952,63e51e55974365f1e43df265,687ed1b7e638a4cbf2f02089,688039cb0d12e540289dbf81,,,,,,,,,,,,,,1,,,,,,,,,,,,,,,,,,,,,,,,,,,,,,,,,,,,,,,,,,,,,,,,,,,,,,,,,89,prisa,,,,,804.8809,805.6126,1,1,0.2107,,0,32,32,88,1,REAL,FAKE,,,,,,,,,,,,,,,,,
,,,,,,,,,63e51e55974365f1e43df265,Spanish,13 or older,"no, only English or Spanish",yes,2025-07-22_21h25.12.042,empathy_intonation_perc,2024.2.4,MacIntel,59.88023952,63e51e55974365f1e43df265,687ed1b7e638a4cbf2f02089,688039cb0d12e540289dbf81,,,,,,,,,,,,,,1,,,,,,,,,,,,,,,,,,,,,,,,,,,,,,,,,,,,,,,,,,,,,,,,,,,,,,,,,5,zapato,,,,,805.6131,806.2961,0,0,0.1653,,0,33,33,4,1,REAL,FAKE,,,,,,,,,,,,,,,,,
,,,,,,,,,63e51e55974365f1e43df265,Spanish,13 or older,"no, only English or Spanish",yes,2025-07-22_21h25.12.042,empathy_intonation_perc,2024.2.4,MacIntel,59.88023952,63e51e55974365f1e43df265,687ed1b7e638a4cbf2f02089,688039cb0d12e540289dbf81,,,,,,,,,,,,,,0,,,,,,,,,,,,,,,,,,,,,,,,,,,,,,,,,,,,,,,,,,,,,,,,,,,,,,,,,35,rompido,,,,,806.2966,806.9971,0,1,0.183,,0,34,34,34,1,REAL,FAKE,,,,,,,,,,,,,,,,,
,,,,,,,,,63e51e55974365f1e43df265,Spanish,13 or older,"no, only English or Spanish",yes,2025-07-22_21h25.12.042,empathy_intonation_perc,2024.2.4,MacIntel,59.88023952,63e51e55974365f1e43df265,687ed1b7e638a4cbf2f02089,688039cb0d12e540289dbf81,,,,,,,,,,,,,,1,,,,,,,,,,,,,,,,,,,,,,,,,,,,,,,,,,,,,,,,,,,,,,,,,,,,,,,,,85,laúd,,,,,806.9977,807.6471,0,0,0.1211,,0,35,35,84,1,REAL,FAKE,,,,,,,,,,,,,,,,,
,,,,,,,,,63e51e55974365f1e43df265,Spanish,13 or older,"no, only English or Spanish",yes,2025-07-22_21h25.12.042,empathy_intonation_perc,2024.2.4,MacIntel,59.88023952,63e51e55974365f1e43df265,687ed1b7e638a4cbf2f02089,688039cb0d12e540289dbf81,,,,,,,,,,,,,,1,,,,,,,,,,,,,,,,,,,,,,,,,,,,,,,,,,,,,,,,,,,,,,,,,,,,,,,,,37,granuja,,,,,807.6476,808.2631,0,0,0.0837,,0,36,36,36,1,REAL,FAKE,,,,,,,,,,,,,,,,,
,,,,,,,,,63e51e55974365f1e43df265,Spanish,13 or older,"no, only English or Spanish",yes,2025-07-22_21h25.12.042,empathy_intonation_perc,2024.2.4,MacIntel,59.88023952,63e51e55974365f1e43df265,687ed1b7e638a4cbf2f02089,688039cb0d12e540289dbf81,,,,,,,,,,,,,,1,,,,,,,,,,,,,,,,,,,,,,,,,,,,,,,,,,,,,,,,,,,,,,,,,,,,,,,,,7,pésimo,,,,,808.2637,809.0304,1,1,0.2464,,0,37,37,6,1,REAL,FAKE,,,,,,,,,,,,,,,,,
,,,,,,,,,63e51e55974365f1e43df265,Spanish,13 or older,"no, only English or Spanish",yes,2025-07-22_21h25.12.042,empathy_intonation_perc,2024.2.4,MacIntel,59.88023952,63e51e55974365f1e43df265,687ed1b7e638a4cbf2f02089,688039cb0d12e540289dbf81,,,,,,,,,,,,,,1,,,,,,,,,,,,,,,,,,,,,,,,,,,,,,,,,,,,,,,,,,,,,,,,,,,,,,,,,45,jilguero,,,,,809.031,809.6137,0,0,0.0467,,0,38,38,44,1,REAL,FAKE,,,,,,,,,,,,,,,,,
,,,,,,,,,63e51e55974365f1e43df265,Spanish,13 or older,"no, only English or Spanish",yes,2025-07-22_21h25.12.042,empathy_intonation_perc,2024.2.4,MacIntel,59.88023952,63e51e55974365f1e43df265,687ed1b7e638a4cbf2f02089,688039cb0d12e540289dbf81,,,,,,,,,,,,,,0,,,,,,,,,,,,,,,,,,,,,,,,,,,,,,,,,,,,,,,,,,,,,,,,,,,,,,,,,4,batillón,,,,,809.6142,810.4128,0,1,0.2666,,0,39,39,3,1,REAL,FAKE,,,,,,,,,,,,,,,,,
,,,,,,,,,63e51e55974365f1e43df265,Spanish,13 or older,"no, only English or Spanish",yes,2025-07-22_21h25.12.042,empathy_intonation_perc,2024.2.4,MacIntel,59.88023952,63e51e55974365f1e43df265,687ed1b7e638a4cbf2f02089,688039cb0d12e540289dbf81,,,,,,,,,,,,,,1,,,,,,,,,,,,,,,,,,,,,,,,,,,,,,,,,,,,,,,,,,,,,,,,,,,,,,,,,38,estornudar,,,,,810.4134,811.5802,0,0,0.6493,,0,40,40,37,1,REAL,FAKE,,,,,,,,,,,,,,,,,
,,,,,,,,,63e51e55974365f1e43df265,Spanish,13 or older,"no, only English or Spanish",yes,2025-07-22_21h25.12.042,empathy_intonation_perc,2024.2.4,MacIntel,59.88023952,63e51e55974365f1e43df265,687ed1b7e638a4cbf2f02089,688039cb0d12e540289dbf81,,,,,,,,,,,,,,1,,,,,,,,,,,,,,,,,,,,,,,,,,,,,,,,,,,,,,,,,,,,,,,,,,,,,,,,,36,loro,,,,,811.581,812.2304,1,1,0.1169,,0,41,41,35,1,REAL,FAKE,,,,,,,,,,,,,,,,,
,,,,,,,,,63e51e55974365f1e43df265,Spanish,13 or older,"no, only English or Spanish",yes,2025-07-22_21h25.12.042,empathy_intonation_perc,2024.2.4,MacIntel,59.88023952,63e51e55974365f1e43df265,687ed1b7e638a4cbf2f02089,688039cb0d12e540289dbf81,,,,,,,,,,,,,,0,,,,,,,,,,,,,,,,,,,,,,,,,,,,,,,,,,,,,,,,,,,,,,,,,,,,,,,,,53,vegada,,,,,812.2309,813.3471,1,0,0.5809,,0,42,42,52,1,REAL,FAKE,,,,,,,,,,,,,,,,,
,,,,,,,,,63e51e55974365f1e43df265,Spanish,13 or older,"no, only English or Spanish",yes,2025-07-22_21h25.12.042,empathy_intonation_perc,2024.2.4,MacIntel,59.88023952,63e51e55974365f1e43df265,687ed1b7e638a4cbf2f02089,688039cb0d12e540289dbf81,,,,,,,,,,,,,,0,,,,,,,,,,,,,,,,,,,,,,,,,,,,,,,,,,,,,,,,,,,,,,,,,,,,,,,,,79,tropaje,,,,,813.3477,813.947,0,1,0.0598,,0,43,43,78,1,REAL,FAKE,,,,,,,,,,,,,,,,,
,,,,,,,,,63e51e55974365f1e43df265,Spanish,13 or older,"no, only English or Spanish",yes,2025-07-22_21h25.12.042,empathy_intonation_perc,2024.2.4,MacIntel,59.88023952,63e51e55974365f1e43df265,687ed1b7e638a4cbf2f02089,688039cb0d12e540289dbf81,,,,,,,,,,,,,,1,,,,,,,,,,,,,,,,,,,,,,,,,,,,,,,,,,,,,,,,,,,,,,,,,,,,,,,,,43,canela,,,,,813.9475,825.1971,1,1,10.7279,,0,44,44,42,1,REAL,FAKE,,,,,,,,,,,,,,,,,
,,,,,,,,,63e51e55974365f1e43df265,Spanish,13 or older,"no, only English or Spanish",yes,2025-07-22_21h25.12.042,empathy_intonation_perc,2024.2.4,MacIntel,59.88023952,63e51e55974365f1e43df265,687ed1b7e638a4cbf2f02089,688039cb0d12e540289dbf81,,,,,,,,,,,,,,0,,,,,,,,,,,,,,,,,,,,,,,,,,,,,,,,,,,,,,,,,,,,,,,,,,,,,,,,,92,click the 0 key.,,,,,825.1986,825.7637,1,0,0.0303,,0,45,45,91,1,REAL,FAKE,,,,,,,,,,,,,,,,,
,,,,,,,,,63e51e55974365f1e43df265,Spanish,13 or older,"no, only English or Spanish",yes,2025-07-22_21h25.12.042,empathy_intonation_perc,2024.2.4,MacIntel,59.88023952,63e51e55974365f1e43df265,687ed1b7e638a4cbf2f02089,688039cb0d12e540289dbf81,,,,,,,,,,,,,,1,,,,,,,,,,,,,,,,,,,,,,,,,,,,,,,,,,,,,,,,,,,,,,,,,,,,,,,,,40,alfombra,,,,,825.7643,826.3631,1,1,0.0656,,0,46,46,39,1,REAL,FAKE,,,,,,,,,,,,,,,,,
,,,,,,,,,63e51e55974365f1e43df265,Spanish,13 or older,"no, only English or Spanish",yes,2025-07-22_21h25.12.042,empathy_intonation_perc,2024.2.4,MacIntel,59.88023952,63e51e55974365f1e43df265,687ed1b7e638a4cbf2f02089,688039cb0d12e540289dbf81,,,,,,,,,,,,,,1,,,,,,,,,,,,,,,,,,,,,,,,,,,,,,,,,,,,,,,,,,,,,,,,,,,,,,,,,34,aviso,,,,,826.364,827.3842,0,0,0.5004,,0,47,47,33,1,REAL,FAKE,,,,,,,,,,,,,,,,,
,,,,,,,,,63e51e55974365f1e43df265,Spanish,13 or older,"no, only English or Spanish",yes,2025-07-22_21h25.12.042,empathy_intonation_perc,2024.2.4,MacIntel,59.88023952,63e51e55974365f1e43df265,687ed1b7e638a4cbf2f02089,688039cb0d12e540289dbf81,,,,,,,,,,,,,,0,,,,,,,,,,,,,,,,,,,,,,,,,,,,,,,,,,,,,,,,,,,,,,,,,,,,,,,,,19,brecedad,,,,,827.3848,827.946,0,1,0.0322,,0,48,48,18,1,REAL,FAKE,,,,,,,,,,,,,,,,,
,,,,,,,,,63e51e55974365f1e43df265,Spanish,13 or older,"no, only English or Spanish",yes,2025-07-22_21h25.12.042,empathy_intonation_perc,2024.2.4,MacIntel,59.88023952,63e51e55974365f1e43df265,687ed1b7e638a4cbf2f02089,688039cb0d12e540289dbf81,,,,,,,,,,,,,,1,,,,,,,,,,,,,,,,,,,,,,,,,,,,,,,,,,,,,,,,,,,,,,,,,,,,,,,,,46,martillo,,,,,827.9465,828.5471,1,1,0.0827,,0,49,49,45,1,REAL,FAKE,,,,,,,,,,,,,,,,,
,,,,,,,,,63e51e55974365f1e43df265,Spanish,13 or older,"no, only English or Spanish",yes,2025-07-22_21h25.12.042,empathy_intonation_perc,2024.2.4,MacIntel,59.88023952,63e51e55974365f1e43df265,687ed1b7e638a4cbf2f02089,688039cb0d12e540289dbf81,,,,,,,,,,,,,,1,,,,,,,,,,,,,,,,,,,,,,,,,,,,,,,,,,,,,,,,,,,,,,,,,,,,,,,,,20,ávido,,,,,828.5478,829.196,1,1,0.1133,,0,50,50,19,1,REAL,FAKE,,,,,,,,,,,,,,,,,
,,,,,,,,,63e51e55974365f1e43df265,Spanish,13 or older,"no, only English or Spanish",yes,2025-07-22_21h25.12.042,empathy_intonation_perc,2024.2.4,MacIntel,59.88023952,63e51e55974365f1e43df265,687ed1b7e638a4cbf2f02089,688039cb0d12e540289dbf81,,,,,,,,,,,,,,1,,,,,,,,,,,,,,,,,,,,,,,,,,,,,,,,,,,,,,,,,,,,,,,,,,,,,,,,,67,cabello,,,,,829.1965,829.7627,0,0,0.0305,,0,51,51,66,1,REAL,FAKE,,,,,,,,,,,,,,,,,
,,,,,,,,,63e51e55974365f1e43df265,Spanish,13 or older,"no, only English or Spanish",yes,2025-07-22_21h25.12.042,empathy_intonation_perc,2024.2.4,MacIntel,59.88023952,63e51e55974365f1e43df265,687ed1b7e638a4cbf2f02089,688039cb0d12e540289dbf81,,,,,,,,,,,,,,0,,,,,,,,,,,,,,,,,,,,,,,,,,,,,,,,,,,,,,,,,,,,,,,,,,,,,,,,,10,antar,,,,,829.7633,830.3802,0,1,0.088,,0,52,52,9,1,REAL,FAKE,,,,,,,,,,,,,,,,,
,,,,,,,,,63e51e55974365f1e43df265,Spanish,13 or older,"no, only English or Spanish",yes,2025-07-22_21h25.12.042,empathy_intonation_perc,2024.2.4,MacIntel,59.88023952,63e51e55974365f1e43df265,687ed1b7e638a4cbf2f02089,688039cb0d12e540289dbf81,,,,,,,,,,,,,,0,,,,,,,,,,,,,,,,,,,,,,,,,,,,,,,,,,,,,,,,,,,,,,,,,,,,,,,,,8,cadeña,,,,,830.381,830.9969,0,1,0.0976,,0,53,53,7,1,REAL,FAKE,,,,,,,,,,,,,,,,,
,,,,,,,,,63e51e55974365f1e43df265,Spanish,13 or older,"no, only English or Spanish",yes,2025-07-22_21h25.12.042,empathy_intonation_perc,2024.2.4,MacIntel,59.88023952,63e51e55974365f1e43df265,687ed1b7e638a4cbf2f02089,688039cb0d12e540289dbf81,,,,,,,,,,,,,,0,,,,,,,,,,,,,,,,,,,,,,,,,,,,,,,,,,,,,,,,,,,,,,,,,,,,,,,,,21,capillo,,,,,830.9976,839.4969,1,0,7.9788,,0,54,54,20,1,REAL,FAKE,,,,,,,,,,,,,,,,,
,,,,,,,,,63e51e55974365f1e43df265,Spanish,13 or older,"no, only English or Spanish",yes,2025-07-22_21h25.12.042,empathy_intonation_perc,2024.2.4,MacIntel,59.88023952,63e51e55974365f1e43df265,687ed1b7e638a4cbf2f02089,688039cb0d12e540289dbf81,,,,,,,,,,,,,,1,,,,,,,,,,,,,,,,,,,,,,,,,,,,,,,,,,,,,,,,,,,,,,,,,,,,,,,,,90,clavel,,,,,839.4977,840.0469,1,1,0.0126,,0,55,55,89,1,REAL,FAKE,,,,,,,,,,,,,,,,,
,,,,,,,,,63e51e55974365f1e43df265,Spanish,13 or older,"no, only English or Spanish",yes,2025-07-22_21h25.12.042,empathy_intonation_perc,2024.2.4,MacIntel,59.88023952,63e51e55974365f1e43df265,687ed1b7e638a4cbf2f02089,688039cb0d12e540289dbf81,,,,,,,,,,,,,,1,,,,,,,,,,,,,,,,,,,,,,,,,,,,,,,,,,,,,,,,,,,,,,,,,,,,,,,,,24,látigo,,,,,840.0474,840.6303,0,0,0.0494,,0,56,56,23,1,REAL,FAKE,,,,,,,,,,,,,,,,,
,,,,,,,,,63e51e55974365f1e43df265,Spanish,13 or older,"no, only English or Spanish",yes,2025-07-22_21h25.12.042,empathy_intonation_perc,2024.2.4,MacIntel,59.88023952,63e51e55974365f1e43df265,687ed1b7e638a4cbf2f02089,688039cb0d12e540289dbf81,,,,,,,,,,,,,,1,,,,,,,,,,,,,,,,,,,,,,,,,,,,,,,,,,,,,,,,,,,,,,,,,,,,,,,,,86,barato,,,,,840.6309,841.1974,0,0,0.0446,,0,57,57,85,1,REAL,FAKE,,,,,,,,,,,,,,,,,
,,,,,,,,,63e51e55974365f1e43df265,Spanish,13 or older,"no, only English or Spanish",yes,2025-07-22_21h25.12.042,empathy_intonation_perc,2024.2.4,MacIntel,59.88023952,63e51e55974365f1e43df265,687ed1b7e638a4cbf2f02089,688039cb0d12e540289dbf81,,,,,,,,,,,,,,0,,,,,,,,,,,,,,,,,,,,,,,,,,,,,,,,,,,,,,,,,,,,,,,,,,,,,,,,,84,escuto,,,,,841.198,841.7303,1,0,0.0004,,0,58,58,83,1,REAL,FAKE,,,,,,,,,,,,,,,,,
,,,,,,,,,63e51e55974365f1e43df265,Spanish,13 or older,"no, only English or Spanish",yes,2025-07-22_21h25.12.042,empathy_intonation_perc,2024.2.4,MacIntel,59.88023952,63e51e55974365f1e43df265,687ed1b7e638a4cbf2f02089,688039cb0d12e540289dbf81,,,,,,,,,,,,,,1,,,,,,,,,,,,,,,,,,,,,,,,,,,,,,,,,,,,,,,,,,,,,,,,,,,,,,,,,55,nevar,,,,,841.7308,842.2635,1,1,0.0235,,0,59,59,54,1,REAL,FAKE,,,,,,,,,,,,,,,,,
,,,,,,,,,63e51e55974365f1e43df265,Spanish,13 or older,"no, only English or Spanish",yes,2025-07-22_21h25.12.042,empathy_intonation_perc,2024.2.4,MacIntel,59.88023952,63e51e55974365f1e43df265,687ed1b7e638a4cbf2f02089,688039cb0d12e540289dbf81,,,,,,,,,,,,,,1,,,,,,,,,,,,,,,,,,,,,,,,,,,,,,,,,,,,,,,,,,,,,,,,,,,,,,,,,54,fomentar,,,,,842.2643,842.8322,0,0,0.0474,,0,60,60,53,1,REAL,FAKE,,,,,,,,,,,,,,,,,
,,,,,,,,,63e51e55974365f1e43df265,Spanish,13 or older,"no, only English or Spanish",yes,2025-07-22_21h25.12.042,empathy_intonation_perc,2024.2.4,MacIntel,59.88023952,63e51e55974365f1e43df265,687ed1b7e638a4cbf2f02089,688039cb0d12e540289dbf81,,,,,,,,,,,,,,0,,,,,,,,,,,,,,,,,,,,,,,,,,,,,,,,,,,,,,,,,,,,,,,,,,,,,,,,,63,esposante,,,,,842.8328,843.4303,0,1,0.0788,,0,61,61,62,1,REAL,FAKE,,,,,,,,,,,,,,,,,
,,,,,,,,,63e51e55974365f1e43df265,Spanish,13 or older,"no, only English or Spanish",yes,2025-07-22_21h25.12.042,empathy_intonation_perc,2024.2.4,MacIntel,59.88023952,63e51e55974365f1e43df265,687ed1b7e638a4cbf2f02089,688039cb0d12e540289dbf81,,,,,,,,,,,,,,0,,,,,,,,,,,,,,,,,,,,,,,,,,,,,,,,,,,,,,,,,,,,,,,,,,,,,,,,,70,temblo,,,,,843.4309,844.0302,0,1,0.0651,,0,62,62,69,1,REAL,FAKE,,,,,,,,,,,,,,,,,
,,,,,,,,,63e51e55974365f1e43df265,Spanish,13 or older,"no, only English or Spanish",yes,2025-07-22_21h25.12.042,empathy_intonation_perc,2024.2.4,MacIntel,59.88023952,63e51e55974365f1e43df265,687ed1b7e638a4cbf2f02089,688039cb0d12e540289dbf81,,,,,,,,,,,,,,0,,,,,,,,,,,,,,,,,,,,,,,,,,,,,,,,,,,,,,,,,,,,,,,,,,,,,,,,,16,abracer,,,,,844.0307,844.6636,1,0,0.0982,,0,63,63,15,1,REAL,FAKE,,,,,,,,,,,,,,,,,
,,,,,,,,,63e51e55974365f1e43df265,Spanish,13 or older,"no, only English or Spanish",yes,2025-07-22_21h25.12.042,empathy_intonation_perc,2024.2.4,MacIntel,59.88023952,63e51e55974365f1e43df265,687ed1b7e638a4cbf2f02089,688039cb0d12e540289dbf81,,,,,,,,,,,,,,1,,,,,,,,,,,,,,,,,,,,,,,,,,,,,,,,,,,,,,,,,,,,,,,,,,,,,,,,,39,torpe,,,,,844.6642,845.2637,0,0,0.0768,,0,64,64,38,1,REAL,FAKE,,,,,,,,,,,,,,,,,
,,,,,,,,,63e51e55974365f1e43df265,Spanish,13 or older,"no, only English or Spanish",yes,2025-07-22_21h25.12.042,empathy_intonation_perc,2024.2.4,MacIntel,59.88023952,63e51e55974365f1e43df265,687ed1b7e638a4cbf2f02089,688039cb0d12e540289dbf81,,,,,,,,,,,,,,1,,,,,,,,,,,,,,,,,,,,,,,,,,,,,,,,,,,,,,,,,,,,,,,,,,,,,,,,,64,orgulloso,,,,,845.2642,846.1134,1,1,0.3265,,0,65,65,63,1,REAL,FAKE,,,,,,,,,,,,,,,,,
,,,,,,,,,63e51e55974365f1e43df265,Spanish,13 or older,"no, only English or Spanish",yes,2025-07-22_21h25.12.042,empathy_intonation_perc,2024.2.4,MacIntel,59.88023952,63e51e55974365f1e43df265,687ed1b7e638a4cbf2f02089,688039cb0d12e540289dbf81,,,,,,,,,,,,,,1,,,,,,,,,,,,,,,,,,,,,,,,,,,,,,,,,,,,,,,,,,,,,,,,,,,,,,,,,48,ladrón,,,,,846.114,846.6469,1,1,0.0003,,0,66,66,47,1,REAL,FAKE,,,,,,,,,,,,,,,,,
,,,,,,,,,63e51e55974365f1e43df265,Spanish,13 or older,"no, only English or Spanish",yes,2025-07-22_21h25.12.042,empathy_intonation_perc,2024.2.4,MacIntel,59.88023952,63e51e55974365f1e43df265,687ed1b7e638a4cbf2f02089,688039cb0d12e540289dbf81,,,,,,,,,,,,,,1,,,,,,,,,,,,,,,,,,,,,,,,,,,,,,,,,,,,,,,,,,,,,,,,,,,,,,,,,81,pozo,,,,,846.6473,847.1969,1,1,0.0158,,0,67,67,80,1,REAL,FAKE,,,,,,,,,,,,,,,,,
,,,,,,,,,63e51e55974365f1e43df265,Spanish,13 or older,"no, only English or Spanish",yes,2025-07-22_21h25.12.042,empathy_intonation_perc,2024.2.4,MacIntel,59.88023952,63e51e55974365f1e43df265,687ed1b7e638a4cbf2f02089,688039cb0d12e540289dbf81,,,,,,,,,,,,,,0,,,,,,,,,,,,,,,,,,,,,,,,,,,,,,,,,,,,,,,,,,,,,,,,,,,,,,,,,17,floroso,,,,,847.1974,847.7294,1,0,0.0012,,0,68,68,16,1,REAL,FAKE,,,,,,,,,,,,,,,,,
,,,,,,,,,63e51e55974365f1e43df265,Spanish,13 or older,"no, only English or Spanish",yes,2025-07-22_21h25.12.042,empathy_intonation_perc,2024.2.4,MacIntel,59.88023952,63e51e55974365f1e43df265,687ed1b7e638a4cbf2f02089,688039cb0d12e540289dbf81,,,,,,,,,,,,,,1,,,,,,,,,,,,,,,,,,,,,,,,,,,,,,,,,,,,,,,,,,,,,,,,,,,,,,,,,44,cuchara,,,,,847.7298,848.247,1,1,0.0029,,0,69,69,43,1,REAL,FAKE,,,,,,,,,,,,,,,,,
,,,,,,,,,63e51e55974365f1e43df265,Spanish,13 or older,"no, only English or Spanish",yes,2025-07-22_21h25.12.042,empathy_intonation_perc,2024.2.4,MacIntel,59.88023952,63e51e55974365f1e43df265,687ed1b7e638a4cbf2f02089,688039cb0d12e540289dbf81,,,,,,,,,,,,,,0,,,,,,,,,,,,,,,,,,,,,,,,,,,,,,,,,,,,,,,,,,,,,,,,,,,,,,,,,58,plaudir,,,,,848.2475,849.2636,0,1,0.4973,,0,70,70,57,1,REAL,FAKE,,,,,,,,,,,,,,,,,
,,,,,,,,,63e51e55974365f1e43df265,Spanish,13 or older,"no, only English or Spanish",yes,2025-07-22_21h25.12.042,empathy_intonation_perc,2024.2.4,MacIntel,59.88023952,63e51e55974365f1e43df265,687ed1b7e638a4cbf2f02089,688039cb0d12e540289dbf81,,,,,,,,,,,,,,1,,,,,,,,,,,,,,,,,,,,,,,,,,,,,,,,,,,,,,,,,,,,,,,,,,,,,,,,,73,hervidor,,,,,849.2643,849.7969,1,1,0.0056,,0,71,71,72,1,REAL,FAKE,,,,,,,,,,,,,,,,,
,,,,,,,,,63e51e55974365f1e43df265,Spanish,13 or older,"no, only English or Spanish",yes,2025-07-22_21h25.12.042,empathy_intonation_perc,2024.2.4,MacIntel,59.88023952,63e51e55974365f1e43df265,687ed1b7e638a4cbf2f02089,688039cb0d12e540289dbf81,,,,,,,,,,,,,,1,,,,,,,,,,,,,,,,,,,,,,,,,,,,,,,,,,,,,,,,,,,,,,,,,,,,,,,,,52,camisa,,,,,849.7973,850.4303,1,1,0.103,,0,72,72,51,1,REAL,FAKE,,,,,,,,,,,,,,,,,
,,,,,,,,,63e51e55974365f1e43df265,Spanish,13 or older,"no, only English or Spanish",yes,2025-07-22_21h25.12.042,empathy_intonation_perc,2024.2.4,MacIntel,59.88023952,63e51e55974365f1e43df265,687ed1b7e638a4cbf2f02089,688039cb0d12e540289dbf81,,,,,,,,,,,,,,1,,,,,,,,,,,,,,,,,,,,,,,,,,,,,,,,,,,,,,,,,,,,,,,,,,,,,,,,,41,rebuscar,,,,,850.4307,850.9635,0,0,0.0013,,0,73,73,40,1,REAL,FAKE,,,,,,,,,,,,,,,,,
,,,,,,,,,63e51e55974365f1e43df265,Spanish,13 or older,"no, only English or Spanish",yes,2025-07-22_21h25.12.042,empathy_intonation_perc,2024.2.4,MacIntel,59.88023952,63e51e55974365f1e43df265,687ed1b7e638a4cbf2f02089,688039cb0d12e540289dbf81,,,,,,,,,,,,,,1,,,,,,,,,,,,,,,,,,,,,,,,,,,,,,,,,,,,,,,,,,,,,,,,,,,,,,,,,65,bizcocho,,,,,850.9641,851.5799,0,0,0.085,,0,74,74,64,1,REAL,FAKE,,,,,,,,,,,,,,,,,
,,,,,,,,,63e51e55974365f1e43df265,Spanish,13 or older,"no, only English or Spanish",yes,2025-07-22_21h25.12.042,empathy_intonation_perc,2024.2.4,MacIntel,59.88023952,63e51e55974365f1e43df265,687ed1b7e638a4cbf2f02089,688039cb0d12e540289dbf81,,,,,,,,,,,,,,1,,,,,,,,,,,,,,,,,,,,,,,,,,,,,,,,,,,,,,,,,,,,,,,,,,,,,,,,,3,pulmones,,,,,851.5805,852.0969,1,1,0.0002,,0,75,75,2,1,REAL,FAKE,,,,,,,,,,,,,,,,,
,,,,,,,,,63e51e55974365f1e43df265,Spanish,13 or older,"no, only English or Spanish",yes,2025-07-22_21h25.12.042,empathy_intonation_perc,2024.2.4,MacIntel,59.88023952,63e51e55974365f1e43df265,687ed1b7e638a4cbf2f02089,688039cb0d12e540289dbf81,,,,,,,,,,,,,,1,,,,,,,,,,,,,,,,,,,,,,,,,,,,,,,,,,,,,,,,,,,,,,,,,,,,,,,,,83,guante,,,,,852.0974,852.6969,1,1,0.0703,,0,76,76,82,1,REAL,FAKE,,,,,,,,,,,,,,,,,
,,,,,,,,,63e51e55974365f1e43df265,Spanish,13 or older,"no, only English or Spanish",yes,2025-07-22_21h25.12.042,empathy_intonation_perc,2024.2.4,MacIntel,59.88023952,63e51e55974365f1e43df265,687ed1b7e638a4cbf2f02089,688039cb0d12e540289dbf81,,,,,,,,,,,,,,0,,,,,,,,,,,,,,,,,,,,,,,,,,,,,,,,,,,,,,,,,,,,,,,,,,,,,,,,,50,flamida,,,,,852.6973,853.3301,1,0,0.0997,,0,77,77,49,1,REAL,FAKE,,,,,,,,,,,,,,,,,
,,,,,,,,,63e51e55974365f1e43df265,Spanish,13 or older,"no, only English or Spanish",yes,2025-07-22_21h25.12.042,empathy_intonation_perc,2024.2.4,MacIntel,59.88023952,63e51e55974365f1e43df265,687ed1b7e638a4cbf2f02089,688039cb0d12e540289dbf81,,,,,,,,,,,,,,1,,,,,,,,,,,,,,,,,,,,,,,,,,,,,,,,,,,,,,,,,,,,,,,,,,,,,,,,,49,ganar,,,,,853.3306,853.9636,1,1,0.1235,,0,78,78,48,1,REAL,FAKE,,,,,,,,,,,,,,,,,
,,,,,,,,,63e51e55974365f1e43df265,Spanish,13 or older,"no, only English or Spanish",yes,2025-07-22_21h25.12.042,empathy_intonation_perc,2024.2.4,MacIntel,59.88023952,63e51e55974365f1e43df265,687ed1b7e638a4cbf2f02089,688039cb0d12e540289dbf81,,,,,,,,,,,,,,0,,,,,,,,,,,,,,,,,,,,,,,,,,,,,,,,,,,,,,,,,,,,,,,,,,,,,,,,,72,pemición,,,,,853.9648,854.5802,1,0,0.0859,,0,79,79,71,1,REAL,FAKE,,,,,,,,,,,,,,,,,
,,,,,,,,,63e51e55974365f1e43df265,Spanish,13 or older,"no, only English or Spanish",yes,2025-07-22_21h25.12.042,empathy_intonation_perc,2024.2.4,MacIntel,59.88023952,63e51e55974365f1e43df265,687ed1b7e638a4cbf2f02089,688039cb0d12e540289dbf81,,,,,,,,,,,,,,0,,,,,,,,,,,,,,,,,,,,,,,,,,,,,,,,,,,,,,,,,,,,,,,,,,,,,,,,,47,cartinar,,,,,854.5806,855.2136,1,0,0.099,,0,80,80,46,1,REAL,FAKE,,,,,,,,,,,,,,,,,
,,,,,,,,,63e51e55974365f1e43df265,Spanish,13 or older,"no, only English or Spanish",yes,2025-07-22_21h25.12.042,empathy_intonation_perc,2024.2.4,MacIntel,59.88023952,63e51e55974365f1e43df265,687ed1b7e638a4cbf2f02089,688039cb0d12e540289dbf81,,,,,,,,,,,,,,1,,,,,,,,,,,,,,,,,,,,,,,,,,,,,,,,,,,,,,,,,,,,,,,,,,,,,,,,,31,pandilla,,,,,855.214,855.7798,1,1,0.0425,,0,81,81,30,1,REAL,FAKE,,,,,,,,,,,,,,,,,
,,,,,,,,,63e51e55974365f1e43df265,Spanish,13 or older,"no, only English or Spanish",yes,2025-07-22_21h25.12.042,empathy_intonation_perc,2024.2.4,MacIntel,59.88023952,63e51e55974365f1e43df265,687ed1b7e638a4cbf2f02089,688039cb0d12e540289dbf81,,,,,,,,,,,,,,1,,,,,,,,,,,,,,,,,,,,,,,,,,,,,,,,,,,,,,,,,,,,,,,,,,,,,,,,,22,lacayo,,,,,855.7804,856.397,1,1,0.0985,,0,82,82,21,1,REAL,FAKE,,,,,,,,,,,,,,,,,
,,,,,,,,,63e51e55974365f1e43df265,Spanish,13 or older,"no, only English or Spanish",yes,2025-07-22_21h25.12.042,empathy_intonation_perc,2024.2.4,MacIntel,59.88023952,63e51e55974365f1e43df265,687ed1b7e638a4cbf2f02089,688039cb0d12e540289dbf81,,,,,,,,,,,,,,1,,,,,,,,,,,,,,,,,,,,,,,,,,,,,,,,,,,,,,,,,,,,,,,,,,,,,,,,,80,hormiga,,,,,856.3976,856.9803,1,1,0.0543,,0,83,83,79,1,REAL,FAKE,,,,,,,,,,,,,,,,,
,,,,,,,,,63e51e55974365f1e43df265,Spanish,13 or older,"no, only English or Spanish",yes,2025-07-22_21h25.12.042,empathy_intonation_perc,2024.2.4,MacIntel,59.88023952,63e51e55974365f1e43df265,687ed1b7e638a4cbf2f02089,688039cb0d12e540289dbf81,,,,,,,,,,,,,,0,,,,,,,,,,,,,,,,,,,,,,,,,,,,,,,,,,,,,,,,,,,,,,,,,,,,,,,,,18,arsa,,,,,856.9808,857.5475,1,0,0.0433,,0,84,84,17,1,REAL,FAKE,,,,,,,,,,,,,,,,,
,,,,,,,,,63e51e55974365f1e43df265,Spanish,13 or older,"no, only English or Spanish",yes,2025-07-22_21h25.12.042,empathy_intonation_perc,2024.2.4,MacIntel,59.88023952,63e51e55974365f1e43df265,687ed1b7e638a4cbf2f02089,688039cb0d12e540289dbf81,,,,,,,,,,,,,,1,,,,,,,,,,,,,,,,,,,,,,,,,,,,,,,,,,,,,,,,,,,,,,,,,,,,,,,,,26,secuestro,,,,,857.5486,858.1803,1,1,0.1067,,0,85,85,25,1,REAL,FAKE,,,,,,,,,,,,,,,,,
,,,,,,,,,63e51e55974365f1e43df265,Spanish,13 or older,"no, only English or Spanish",yes,2025-07-22_21h25.12.042,empathy_intonation_perc,2024.2.4,MacIntel,59.88023952,63e51e55974365f1e43df265,687ed1b7e638a4cbf2f02089,688039cb0d12e540289dbf81,,,,,,,,,,,,,,1,,,,,,,,,,,,,,,,,,,,,,,,,,,,,,,,,,,,,,,,,,,,,,,,,,,,,,,,,69,engatusar,,,,,858.1808,858.7637,0,0,0.0504,,0,86,86,68,1,REAL,FAKE,,,,,,,,,,,,,,,,,
,,,,,,,,,63e51e55974365f1e43df265,Spanish,13 or older,"no, only English or Spanish",yes,2025-07-22_21h25.12.042,empathy_intonation_perc,2024.2.4,MacIntel,59.88023952,63e51e55974365f1e43df265,687ed1b7e638a4cbf2f02089,688039cb0d12e540289dbf81,,,,,,,,,,,,,,1,,,,,,,,,,,,,,,,,,,,,,,,,,,,,,,,,,,,,,,,,,,,,,,,,,,,,,,,,11,cenefa,,,,,858.7642,859.447,1,1,0.1537,,0,87,87,10,1,REAL,FAKE,,,,,,,,,,,,,,,,,
,,,,,,,,,63e51e55974365f1e43df265,Spanish,13 or older,"no, only English or Spanish",yes,2025-07-22_21h25.12.042,empathy_intonation_perc,2024.2.4,MacIntel,59.88023952,63e51e55974365f1e43df265,687ed1b7e638a4cbf2f02089,688039cb0d12e540289dbf81,,,,,,,,,,,,,,0,,,,,,,,,,,,,,,,,,,,,,,,,,,,,,,,,,,,,,,,,,,,,,,,,,,,,,,,,29,decar,,,,,859.4476,860.0134,1,0,0.0345,,0,88,88,28,1,REAL,FAKE,,,,,,,,,,,,,,,,,
,,,,,,,,,63e51e55974365f1e43df265,Spanish,13 or older,"no, only English or Spanish",yes,2025-07-22_21h25.12.042,empathy_intonation_perc,2024.2.4,MacIntel,59.88023952,63e51e55974365f1e43df265,687ed1b7e638a4cbf2f02089,688039cb0d12e540289dbf81,,,,,,,,,,,,,,1,,,,,,,,,,,,,,,,,,,,,,,,,,,,,,,,,,,,,,,,,,,,,,,,,,,,,,,,,76,atar,,,,,860.0141,860.6634,0,0,0.1281,,0,89,89,75,1,REAL,FAKE,,,,,,,,,,,,,,,,,
,,,,,,,,,63e51e55974365f1e43df265,Spanish,13 or older,"no, only English or Spanish",yes,2025-07-22_21h25.12.042,empathy_intonation_perc,2024.2.4,MacIntel,59.88023952,63e51e55974365f1e43df265,687ed1b7e638a4cbf2f02089,688039cb0d12e540289dbf81,,,,,,,,,,,,,,0,,,,,,,,,,,,,,,,,,,,,,,,,,,,,,,,,,,,,,,,,,,,,,,,,,,,,,,,,30,alardio,,,,,860.6646,861.2136,0,1,0.0293,,0,90,90,29,1,REAL,FAKE,,,,,,,,,,,,,,,,,
,,,,,,,,,63e51e55974365f1e43df265,Spanish,13 or older,"no, only English or Spanish",yes,2025-07-22_21h25.12.042,empathy_intonation_perc,2024.2.4,MacIntel,59.88023952,63e51e55974365f1e43df265,687ed1b7e638a4cbf2f02089,688039cb0d12e540289dbf81,,,,,,,,,,,,,,1,,,,,,,,,,,,,,,,,,,,,,,,,,,,,,,,,,,,,,,,,,,,,,,,,,,,,,,,,14,yunque,,,,,861.2142,861.7802,0,0,0.0335,,0,91,91,13,1,REAL,FAKE,,,,,,,,,,,,,,,,,
,,,,,,,,,63e51e55974365f1e43df265,Spanish,13 or older,"no, only English or Spanish",yes,2025-07-22_21h25.12.042,empathy_intonation_perc,2024.2.4,MacIntel,59.88023952,63e51e55974365f1e43df265,687ed1b7e638a4cbf2f02089,688039cb0d12e540289dbf81,,,,,,,,,,,,,,,,,,,,,,,,,,,,,,,,,,,,,,,,,,,,,,,,,,,,,,,,,,,,,,,,,,,,,,,,,,,,,,,,,,,,,,,,,,861.7805,862.781,,,,,,,,,,,,,,,
,,,,,,,,,63e51e55974365f1e43df265,Spanish,13 or older,"no, only English or Spanish",yes,2025-07-22_21h25.12.042,empathy_intonation_perc,2024.2.4,MacIntel,59.88023952,63e51e55974365f1e43df265,687ed1b7e638a4cbf2f02089,688039cb0d12e540289dbf81,,,,,,,,,,,,,1,,,,,,,,,,,,,,,,,,,,,,,,,,,,,,,,,,,,,,,,,,,,,,,,,,,,,,,,,,,,,,,,,,,,,,,,,,,,,,,862.7937,866.5472,slightly disagree,0,0,0,0,1,I can easily tell if someone else wants to enter a conversation.,1,0,1,0,,
,,,,,,,,,63e51e55974365f1e43df265,Spanish,13 or older,"no, only English or Spanish",yes,2025-07-22_21h25.12.042,empathy_intonation_perc,2024.2.4,MacIntel,59.88023952,63e51e55974365f1e43df265,687ed1b7e638a4cbf2f02089,688039cb0d12e540289dbf81,,,,,,,,,,,,,2,,,,,,,,,,,,,,,,,,,,,,,,,,,,,,,,,,,,,,,,,,,,,,,,,,,,,,,,,,,,,,,,,,,,,,,,,,,,,,,866.5478,868.247,slightly agree,0,1,1,1,1,I prefer animals to humans.,0,1,0,0,,
,,,,,,,,,63e51e55974365f1e43df265,Spanish,13 or older,"no, only English or Spanish",yes,2025-07-22_21h25.12.042,empathy_intonation_perc,2024.2.4,MacIntel,59.88023952,63e51e55974365f1e43df265,687ed1b7e638a4cbf2f02089,688039cb0d12e540289dbf81,,,,,,,,,,,,,3,,,,,,,,,,,,,,,,,,,,,,,,,,,,,,,,,,,,,,,,,,,,,,,,,,,,,,,,,,,,,,,,,,,,,,,,,,,,,,,868.2477,868.4969,slightly agree,0,2,2,2,1,I try to keep up with the current trends and fashions.,0,1,0,0,,
,,,,,,,,,63e51e55974365f1e43df265,Spanish,13 or older,"no, only English or Spanish",yes,2025-07-22_21h25.12.042,empathy_intonation_perc,2024.2.4,MacIntel,59.88023952,63e51e55974365f1e43df265,687ed1b7e638a4cbf2f02089,688039cb0d12e540289dbf81,,,,,,,,,,,,,4,,,,,,,,,,,,,,,,,,,,,,,,,,,,,,,,,,,,,,,,,,,,,,,,,,,,,,,,,,,,,,,,,,,,,,,,,,,,,,,868.4976,868.6467,slightly agree,0,3,3,3,1,"I find it difficult to explain to others things that I understand easily,   when they don't understand it first time.",1,0,0,1,,
,,,,,,,,,63e51e55974365f1e43df265,Spanish,13 or older,"no, only English or Spanish",yes,2025-07-22_21h25.12.042,empathy_intonation_perc,2024.2.4,MacIntel,59.88023952,63e51e55974365f1e43df265,687ed1b7e638a4cbf2f02089,688039cb0d12e540289dbf81,,,,,,,,,,,,,5,,,,,,,,,,,,,,,,,,,,,,,,,,,,,,,,,,,,,,,,,,,,,,,,,,,,,,,,,,,,,,,,,,,,,,,,,,,,,,,868.6473,868.7968,slightly agree,0,4,4,4,1,I dream most nights.,0,1,0,0,,
,,,,,,,,,63e51e55974365f1e43df265,Spanish,13 or older,"no, only English or Spanish",yes,2025-07-22_21h25.12.042,empathy_intonation_perc,2024.2.4,MacIntel,59.88023952,63e51e55974365f1e43df265,687ed1b7e638a4cbf2f02089,688039cb0d12e540289dbf81,,,,,,,,,,,,,6,,,,,,,,,,,,,,,,,,,,,,,,,,,,,,,,,,,,,,,,,,,,,,,,,,,,,,,,,,,,,,,,,,,,,,,,,,,,,,,868.7974,869.4136,strongly agree,0,5,5,5,1,I really enjoy caring for other people.,1,0,1,0,,
,,,,,,,,,63e51e55974365f1e43df265,Spanish,13 or older,"no, only English or Spanish",yes,2025-07-22_21h25.12.042,empathy_intonation_perc,2024.2.4,MacIntel,59.88023952,63e51e55974365f1e43df265,687ed1b7e638a4cbf2f02089,688039cb0d12e540289dbf81,,,,,,,,,,,,,7,,,,,,,,,,,,,,,,,,,,,,,,,,,,,,,,,,,,,,,,,,,,,,,,,,,,,,,,,,,,,,,,,,,,,,,,,,,,,,,869.4143,869.5802,strongly agree,0,6,6,6,1,I try to solve my own problems rather than discussing them with others.,0,1,0,0,,
,,,,,,,,,63e51e55974365f1e43df265,Spanish,13 or older,"no, only English or Spanish",yes,2025-07-22_21h25.12.042,empathy_intonation_perc,2024.2.4,MacIntel,59.88023952,63e51e55974365f1e43df265,687ed1b7e638a4cbf2f02089,688039cb0d12e540289dbf81,,,,,,,,,,,,,8,,,,,,,,,,,,,,,,,,,,,,,,,,,,,,,,,,,,,,,,,,,,,,,,,,,,,,,,,,,,,,,,,,,,,,,,,,,,,,,869.5809,869.7629,strongly agree,0,7,7,7,1,I find it hard to know what to do in a social situation.,1,0,0,1,,
