instructions_exposure.started,instructions_exposure.stopped,instructions_exposure_loop.thisRepN,instructions_exposure_loop.thisTrialN,instructions_exposure_loop.thisN,instructions_exposure_loop.thisIndex,instructions_exposure_loop.ran,instructions_text,continue_text,participant_id,"What variety of Spanish are you most familiar with? (e.g., Peruvian, Spanish, Mexican)",At what age did you begin learning Spanish?,Are you proficient in any languages other than English/Spanish?,"Are you familiar with Caribbean (e.g., Caribbean, Puerto Rican) or Galician Spanish?",date,expName,psychopyVersion,OS,frameRate,id,study_id,session,trial_exposure.started,trial_exposure.stopped,key_resp_exposure.keys,key_resp_exposure.corr,key_resp_exposure.rt,key_resp_exposure.duration,key_resp.keys,exposure_loop.thisRepN,exposure_loop.thisTrialN,exposure_loop.thisN,exposure_loop.thisIndex,exposure_loop.ran,item_num,correct_response,question,path,duration,instructions_2afc.started,instructions_2afc.stopped,instructions_2afc_loop.thisRepN,instructions_2afc_loop.thisTrialN,instructions_2afc_loop.thisN,instructions_2afc_loop.thisIndex,instructions_2afc_loop.ran,practice_2afc.started,practice_2afc.stopped,key_resp_2afc_practice.keys,key_resp_2afc_practice.corr,key_resp_2afc_practice.rt,key_resp_2afc_practice.duration,trials_2afc_practice_loop.thisRepN,trials_2afc_practice_loop.thisTrialN,trials_2afc_practice_loop.thisN,trials_2afc_practice_loop.thisIndex,trials_2afc_practice_loop.ran,check_2afc.started,check_2afc.stopped,trial_2afc.started,trial_2afc.stopped,key_resp_2afc_trial.keys,key_resp_2afc_trial.corr,key_resp_2afc_trial.rt,key_resp_2afc_trial.duration,trials_2afc_loop.thisRepN,trials_2afc_loop.thisTrialN,trials_2afc_loop.thisN,trials_2afc_loop.thisIndex,trials_2afc_loop.ran,target,variety,instructions_lextale.started,instructions_lextale.stopped,instructions_lextale_loop.thisRepN,instructions_lextale_loop.thisTrialN,instructions_lextale_loop.thisN,instructions_lextale_loop.thisIndex,instructions_lextale_loop.ran,practice_lextale.started,practice_lextale.stopped,key_resp_lextale_practice.keys,key_resp_lextale_practice.corr,key_resp_lextale_practice.rt,key_resp_lextale_practice.duration,practice_feedback_lextale.started,practice_feedback_lextale.stopped,trials_lextale_practice_loop.thisRepN,trials_lextale_practice_loop.thisTrialN,trials_lextale_practice_loop.thisN,trials_lextale_practice_loop.thisIndex,trials_lextale_practice_loop.ran,stim,word,prac_button_real,prac_button_false,check_lextale.started,check_lextale.stopped,trial_lextale.started,trial_lextale.stopped,key_resp_lextale_trial.keys,key_resp_lextale_trial.corr,key_resp_lextale_trial.rt,key_resp_lextale_trial.duration,trials_lextale_loop.thisRepN,trials_lextale_loop.thisTrialN,trials_lextale_loop.thisN,trials_lextale_loop.thisIndex,trials_lextale_loop.ran,button_real,button_false,instructions_eq.started,instructions_eq.stopped,trial_eq.started,trial_eq.stopped,slider_eq_trial.response,trials_eq_loop.thisRepN,trials_eq_loop.thisTrialN,trials_eq_loop.thisN,trials_eq_loop.thisIndex,trials_eq_loop.ran,item,is_test_item,is_distractor,is_agree_score,is_disagree_score,end_exp.started,end_exp.stopped
0.0114,2.4672,0,0,0,0,1,"In the following task, you are going to hear a series of conversations.", (press the space bar to continue),641386b1cb9a9c1e3569d4ee,Mexican,13 or older,"no, only English or Spanish",no,2025-07-23_08h29.55.133,empathy_intonation_perc,2024.2.4,Win32,60.24096386,641386b1cb9a9c1e3569d4ee,687ed1b7e638a4cbf2f02089,6880d581a35ced1ac5fff088,,,,,,,,,,,,,,,,,,,,,,,,,,,,,,,,,,,,,,,,,,,,,,,,,,,,,,,,,,,,,,,,,,,,,,,,,,,,,,,,,,,,,,,,,,,,,,,,,,,,,,,,,,
2.4678,4.3292,0,1,1,1,1,It is okay if you don't not 100% understand them!, (press the space bar to continue),641386b1cb9a9c1e3569d4ee,Mexican,13 or older,"no, only English or Spanish",no,2025-07-23_08h29.55.133,empathy_intonation_perc,2024.2.4,Win32,60.24096386,641386b1cb9a9c1e3569d4ee,687ed1b7e638a4cbf2f02089,6880d581a35ced1ac5fff088,,,,,,,,,,,,,,,,,,,,,,,,,,,,,,,,,,,,,,,,,,,,,,,,,,,,,,,,,,,,,,,,,,,,,,,,,,,,,,,,,,,,,,,,,,,,,,,,,,,,,,,,,,
4.3306,6.2232,0,2,2,2,1,"After, you will read a sentence about the conversation and decide if it's true or false.", (press the space bar to continue),641386b1cb9a9c1e3569d4ee,Mexican,13 or older,"no, only English or Spanish",no,2025-07-23_08h29.55.133,empathy_intonation_perc,2024.2.4,Win32,60.24096386,641386b1cb9a9c1e3569d4ee,687ed1b7e638a4cbf2f02089,6880d581a35ced1ac5fff088,,,,,,,,,,,,,,,,,,,,,,,,,,,,,,,,,,,,,,,,,,,,,,,,,,,,,,,,,,,,,,,,,,,,,,,,,,,,,,,,,,,,,,,,,,,,,,,,,,,,,,,,,,
6.2246,9.316,0,3,3,3,1,"If it's true, press '1' (True) and if it's false press '0' (False).", (press the space bar to continue),641386b1cb9a9c1e3569d4ee,Mexican,13 or older,"no, only English or Spanish",no,2025-07-23_08h29.55.133,empathy_intonation_perc,2024.2.4,Win32,60.24096386,641386b1cb9a9c1e3569d4ee,687ed1b7e638a4cbf2f02089,6880d581a35ced1ac5fff088,,,,,,,,,,,,,,,,,,,,,,,,,,,,,,,,,,,,,,,,,,,,,,,,,,,,,,,,,,,,,,,,,,,,,,,,,,,,,,,,,,,,,,,,,,,,,,,,,,,,,,,,,,
,,,,,,,,,641386b1cb9a9c1e3569d4ee,Mexican,13 or older,"no, only English or Spanish",no,2025-07-23_08h29.55.133,empathy_intonation_perc,2024.2.4,Win32,60.24096386,641386b1cb9a9c1e3569d4ee,687ed1b7e638a4cbf2f02089,6880d581a35ced1ac5fff088,9.3206,63.5164,0,0,7.1501,,,0,0,0,0,1,1,1,The son asked the mom if Aunt Marina is okay.,./stim/exposure_wavs/ga_stimuli_convo.wav,47,,,,,,,,,,,,,,,,,,,,,,,,,,,,,,,,,,,,,,,,,,,,,,,,,,,,,,,,,,,,,,,,,,,,,,,,,,,,,,,,,,,,,,,,,
,,,,,,,,,641386b1cb9a9c1e3569d4ee,Mexican,13 or older,"no, only English or Spanish",no,2025-07-23_08h29.55.133,empathy_intonation_perc,2024.2.4,Win32,60.24096386,641386b1cb9a9c1e3569d4ee,687ed1b7e638a4cbf2f02089,6880d581a35ced1ac5fff088,63.518,103.5318,1,0,3.9834,,,0,1,1,2,1,3,0,The mom already has rice.,./stim/exposure_wavs/pr_stimuli_convo.wav,36,,,,,,,,,,,,,,,,,,,,,,,,,,,,,,,,,,,,,,,,,,,,,,,,,,,,,,,,,,,,,,,,,,,,,,,,,,,,,,,,,,,,,,,,,
,,,,,,,,,641386b1cb9a9c1e3569d4ee,Mexican,13 or older,"no, only English or Spanish",no,2025-07-23_08h29.55.133,empathy_intonation_perc,2024.2.4,Win32,60.24096386,641386b1cb9a9c1e3569d4ee,687ed1b7e638a4cbf2f02089,6880d581a35ced1ac5fff088,103.5336,167.7315,1,1,4.1826,,,0,2,2,1,1,2,1,The mom asked the daughter if she already went to the supermarket.,./stim/exposure_wavs/dr_stimuli_convo.wav,60,,,,,,,,,,,,,,,,,,,,,,,,,,,,,,,,,,,,,,,,,,,,,,,,,,,,,,,,,,,,,,,,,,,,,,,,,,,,,,,,,,,,,,,,,
,,,,,,,"In the following task you are going to hear a series of utterances. 

  You will decide if the utterances sound like questions or not using your keyboard.", (press the spacebar to continue),641386b1cb9a9c1e3569d4ee,Mexican,13 or older,"no, only English or Spanish",no,2025-07-23_08h29.55.133,empathy_intonation_perc,2024.2.4,Win32,60.24096386,641386b1cb9a9c1e3569d4ee,687ed1b7e638a4cbf2f02089,6880d581a35ced1ac5fff088,,,,,,,,,,,,,,,,,,167.7344,172.234,0,0,0,0,1,,,,,,,,,,,,,,,,,,,,,,,,,,,,,,,,,,,,,,,,,,,,,,,,,,,,,,,,,,,,,,,,,,,,,,,,,,,,,,,,,,
,,,,,,,"If you believe the utterance is a question, type '1' (for 'yes') and if you do not 
  believe it is a question type '0' (for 'no').

  Let's practice a bit...", (press the spacebar to continue),641386b1cb9a9c1e3569d4ee,Mexican,13 or older,"no, only English or Spanish",no,2025-07-23_08h29.55.133,empathy_intonation_perc,2024.2.4,Win32,60.24096386,641386b1cb9a9c1e3569d4ee,687ed1b7e638a4cbf2f02089,6880d581a35ced1ac5fff088,,,,,,,,,,,,,,,,,,172.2353,177.9149,0,1,1,1,1,,,,,,,,,,,,,,,,,,,,,,,,,,,,,,,,,,,,,,,,,,,,,,,,,,,,,,,,,,,,,,,,,,,,,,,,,,,,,,,,,,
,,,,,,,,,641386b1cb9a9c1e3569d4ee,Mexican,13 or older,"no, only English or Spanish",no,2025-07-23_08h29.55.133,empathy_intonation_perc,2024.2.4,Win32,60.24096386,641386b1cb9a9c1e3569d4ee,687ed1b7e638a4cbf2f02089,6880d581a35ced1ac5fff088,,,,,,,,,,,,,,1,,./stim/wavs/chilean_question_filler_Mi-padre-cantaba-bien.wav,,,,,,,,,177.9181,181.1485,0,0,2.7002,,0,0,0,2,1,,,,,,,,,,,,,,,,,,,,,,,,,,,,,,,,,,,,,,,,,,,,,,,,,,,,,,,,,,,,,,,,,,,,,,,
,,,,,,,,,641386b1cb9a9c1e3569d4ee,Mexican,13 or older,"no, only English or Spanish",no,2025-07-23_08h29.55.133,empathy_intonation_perc,2024.2.4,Win32,60.24096386,641386b1cb9a9c1e3569d4ee,687ed1b7e638a4cbf2f02089,6880d581a35ced1ac5fff088,,,,,,,,,,,,,,1,,./stim/wavs/mexican_question_filler_Felipe-no-tiene-contrasena.wav,,,,,,,,,181.1488,184.6831,1,1,3.0185,,0,1,1,3,1,,,,,,,,,,,,,,,,,,,,,,,,,,,,,,,,,,,,,,,,,,,,,,,,,,,,,,,,,,,,,,,,,,,,,,,
,,,,,,,,,641386b1cb9a9c1e3569d4ee,Mexican,13 or older,"no, only English or Spanish",no,2025-07-23_08h29.55.133,empathy_intonation_perc,2024.2.4,Win32,60.24096386,641386b1cb9a9c1e3569d4ee,687ed1b7e638a4cbf2f02089,6880d581a35ced1ac5fff088,,,,,,,,,,,,,,1,,./stim/wavs/argentine_question_filler_Mi-vecino-habla-mucho.wav,,,,,,,,,184.6835,186.9827,1,1,1.7672,,0,2,2,1,1,,,,,,,,,,,,,,,,,,,,,,,,,,,,,,,,,,,,,,,,,,,,,,,,,,,,,,,,,,,,,,,,,,,,,,,
,,,,,,,,,641386b1cb9a9c1e3569d4ee,Mexican,13 or older,"no, only English or Spanish",no,2025-07-23_08h29.55.133,empathy_intonation_perc,2024.2.4,Win32,60.24096386,641386b1cb9a9c1e3569d4ee,687ed1b7e638a4cbf2f02089,6880d581a35ced1ac5fff088,,,,,,,,,,,,,,0,,./stim/wavs/andalusian_statement_filler_Alberto-nunca-se-afeita.wav,,,,,,,,,186.983,189.5325,0,1,2.0169,,0,3,3,5,1,,,,,,,,,,,,,,,,,,,,,,,,,,,,,,,,,,,,,,,,,,,,,,,,,,,,,,,,,,,,,,,,,,,,,,,
,,,,,,,,,641386b1cb9a9c1e3569d4ee,Mexican,13 or older,"no, only English or Spanish",no,2025-07-23_08h29.55.133,empathy_intonation_perc,2024.2.4,Win32,60.24096386,641386b1cb9a9c1e3569d4ee,687ed1b7e638a4cbf2f02089,6880d581a35ced1ac5fff088,,,,,,,,,,,,,,0,,./stim/wavs/peruvian_statement_filler_El-nino-habla-con-su-madre.wav,,,,,,,,,189.5329,192.7977,0,1,2.7325,,0,4,4,6,1,,,,,,,,,,,,,,,,,,,,,,,,,,,,,,,,,,,,,,,,,,,,,,,,,,,,,,,,,,,,,,,,,,,,,,,
,,,,,,,,,641386b1cb9a9c1e3569d4ee,Mexican,13 or older,"no, only English or Spanish",no,2025-07-23_08h29.55.133,empathy_intonation_perc,2024.2.4,Win32,60.24096386,641386b1cb9a9c1e3569d4ee,687ed1b7e638a4cbf2f02089,6880d581a35ced1ac5fff088,,,,,,,,,,,,,,0,,./stim/wavs/cuban_statement_filler_Cocinabas-por-la-noche.wav,,,,,,,,,192.7983,195.1653,0,1,1.851,,0,5,5,4,1,,,,,,,,,,,,,,,,,,,,,,,,,,,,,,,,,,,,,,,,,,,,,,,,,,,,,,,,,,,,,,,,,,,,,,,
,,,,,,,,,641386b1cb9a9c1e3569d4ee,Mexican,13 or older,"no, only English or Spanish",no,2025-07-23_08h29.55.133,empathy_intonation_perc,2024.2.4,Win32,60.24096386,641386b1cb9a9c1e3569d4ee,687ed1b7e638a4cbf2f02089,6880d581a35ced1ac5fff088,,,,,,,,,,,,,,0,,./stim/wavs/puertorican_statement_filler_La-nina-pinta-con-su-amiga.wav,,,,,,,,,195.1659,197.899,0,1,2.2008,,0,6,6,7,1,,,,,,,,,,,,,,,,,,,,,,,,,,,,,,,,,,,,,,,,,,,,,,,,,,,,,,,,,,,,,,,,,,,,,,,
,,,,,,,,,641386b1cb9a9c1e3569d4ee,Mexican,13 or older,"no, only English or Spanish",no,2025-07-23_08h29.55.133,empathy_intonation_perc,2024.2.4,Win32,60.24096386,641386b1cb9a9c1e3569d4ee,687ed1b7e638a4cbf2f02089,6880d581a35ced1ac5fff088,,,,,,,,,,,,,,1,,./stim/wavs/castilian_question_filler_Mi-esposo-conoce-al-chico.wav,,,,,,,,,197.8994,200.6155,1,1,2.1999,,0,7,7,0,1,,,,,,,,,,,,,,,,,,,,,,,,,,,,,,,,,,,,,,,,,,,,,,,,,,,,,,,,,,,,,,,,,,,,,,,
,,,,,,,,,641386b1cb9a9c1e3569d4ee,Mexican,13 or older,"no, only English or Spanish",no,2025-07-23_08h29.55.133,empathy_intonation_perc,2024.2.4,Win32,60.24096386,641386b1cb9a9c1e3569d4ee,687ed1b7e638a4cbf2f02089,6880d581a35ced1ac5fff088,,,,,,,,,,,,,,,,,,,,,,,,,,,,,,,,,,,,200.6157,204.1476,,,,,,,,,,,,,,,,,,,,,,,,,,,,,,,,,,,,,,,,,,,,,,,,,,,,,,,,,,,,,,,,,,,,,
,,,,,,,,,641386b1cb9a9c1e3569d4ee,Mexican,13 or older,"no, only English or Spanish",no,2025-07-23_08h29.55.133,empathy_intonation_perc,2024.2.4,Win32,60.24096386,641386b1cb9a9c1e3569d4ee,687ed1b7e638a4cbf2f02089,6880d581a35ced1ac5fff088,,,,,,,,,,,,,54,0,,./stim/wavs/cuban_match_declarative-broad-focus_Maria-bebe-el-vino.wav,,,,,,,,,,,,,,,,,,,,,,204.1527,207.1981,0,1,2.5151,,0,0,0,53,1,0,cuban,,,,,,,,,,,,,,,,,,,,,,,,,,,,,,,,,,,,,,,,,,,,,,,,,,,,,,,,
,,,,,,,,,641386b1cb9a9c1e3569d4ee,Mexican,13 or older,"no, only English or Spanish",no,2025-07-23_08h29.55.133,empathy_intonation_perc,2024.2.4,Win32,60.24096386,641386b1cb9a9c1e3569d4ee,687ed1b7e638a4cbf2f02089,6880d581a35ced1ac5fff088,,,,,,,,,,,,,44,1,,./stim/wavs/puertorican_mismatch_interrogative-total-yn_Mi-madre-come-la-fruta.wav,,,,,,,,,,,,,,,,,,,,,,207.1984,209.6316,0,0,1.8994,,0,1,1,43,1,1,puertorican,,,,,,,,,,,,,,,,,,,,,,,,,,,,,,,,,,,,,,,,,,,,,,,,,,,,,,,,
,,,,,,,,,641386b1cb9a9c1e3569d4ee,Mexican,13 or older,"no, only English or Spanish",no,2025-07-23_08h29.55.133,empathy_intonation_perc,2024.2.4,Win32,60.24096386,641386b1cb9a9c1e3569d4ee,687ed1b7e638a4cbf2f02089,6880d581a35ced1ac5fff088,,,,,,,,,,,,,1,1,,./stim/wavs/castilian_match_interrogative-total-yn_David-leia-el-libro.wav,,,,,,,,,,,,,,,,,,,,,,209.6318,212.3159,1,1,2.167,,0,2,2,0,1,0,castilian,,,,,,,,,,,,,,,,,,,,,,,,,,,,,,,,,,,,,,,,,,,,,,,,,,,,,,,,
,,,,,,,,,641386b1cb9a9c1e3569d4ee,Mexican,13 or older,"no, only English or Spanish",no,2025-07-23_08h29.55.133,empathy_intonation_perc,2024.2.4,Win32,60.24096386,641386b1cb9a9c1e3569d4ee,687ed1b7e638a4cbf2f02089,6880d581a35ced1ac5fff088,,,,,,,,,,,,,85,0,,./stim/wavs/puertorican_mismatch_declarative-broad-focus_El-hombre-mira-la-luna.wav,,,,,,,,,,,,,,,,,,,,,,212.3175,214.4149,0,1,1.5657,,0,3,3,84,1,0,puertorican,,,,,,,,,,,,,,,,,,,,,,,,,,,,,,,,,,,,,,,,,,,,,,,,,,,,,,,,
,,,,,,,,,641386b1cb9a9c1e3569d4ee,Mexican,13 or older,"no, only English or Spanish",no,2025-07-23_08h29.55.133,empathy_intonation_perc,2024.2.4,Win32,60.24096386,641386b1cb9a9c1e3569d4ee,687ed1b7e638a4cbf2f02089,6880d581a35ced1ac5fff088,,,,,,,,,,,,,19,1,,./stim/wavs/puertorican_match_interrogative-total-yn_Ana-lleva-el-abrigo.wav,,,,,,,,,,,,,,,,,,,,,,214.4152,216.6678,0,0,1.7196,,0,4,4,18,1,1,puertorican,,,,,,,,,,,,,,,,,,,,,,,,,,,,,,,,,,,,,,,,,,,,,,,,,,,,,,,,
,,,,,,,,,641386b1cb9a9c1e3569d4ee,Mexican,13 or older,"no, only English or Spanish",no,2025-07-23_08h29.55.133,empathy_intonation_perc,2024.2.4,Win32,60.24096386,641386b1cb9a9c1e3569d4ee,687ed1b7e638a4cbf2f02089,6880d581a35ced1ac5fff088,,,,,,,,,,,,,53,0,,./stim/wavs/cuban_match_declarative-broad-focus_Manuela-vende-el-carro.wav,,,,,,,,,,,,,,,,,,,,,,216.6682,219.2148,0,1,2.0156,,0,5,5,52,1,0,cuban,,,,,,,,,,,,,,,,,,,,,,,,,,,,,,,,,,,,,,,,,,,,,,,,,,,,,,,,
,,,,,,,,,641386b1cb9a9c1e3569d4ee,Mexican,13 or older,"no, only English or Spanish",no,2025-07-23_08h29.55.133,empathy_intonation_perc,2024.2.4,Win32,60.24096386,641386b1cb9a9c1e3569d4ee,687ed1b7e638a4cbf2f02089,6880d581a35ced1ac5fff088,,,,,,,,,,,,,46,0,,./stim/wavs/castilian_match_declarative-broad-focus_Emilio-ama-la-marcha.wav,,,,,,,,,,,,,,,,,,,,,,219.2151,221.5488,0,1,1.8007,,0,6,6,45,1,0,castilian,,,,,,,,,,,,,,,,,,,,,,,,,,,,,,,,,,,,,,,,,,,,,,,,,,,,,,,,
,,,,,,,,,641386b1cb9a9c1e3569d4ee,Mexican,13 or older,"no, only English or Spanish",no,2025-07-23_08h29.55.133,empathy_intonation_perc,2024.2.4,Win32,60.24096386,641386b1cb9a9c1e3569d4ee,687ed1b7e638a4cbf2f02089,6880d581a35ced1ac5fff088,,,,,,,,,,,,,25,1,,./stim/wavs/castilian_mismatch_interrogative-total-yn_La-maestra-vive-en-Paris.wav,,,,,,,,,,,,,,,,,,,,,,221.5491,224.2975,1,1,2.2153,,0,7,7,24,1,0,castilian,,,,,,,,,,,,,,,,,,,,,,,,,,,,,,,,,,,,,,,,,,,,,,,,,,,,,,,,
,,,,,,,,,641386b1cb9a9c1e3569d4ee,Mexican,13 or older,"no, only English or Spanish",no,2025-07-23_08h29.55.133,empathy_intonation_perc,2024.2.4,Win32,60.24096386,641386b1cb9a9c1e3569d4ee,687ed1b7e638a4cbf2f02089,6880d581a35ced1ac5fff088,,,,,,,,,,,,,40,1,,./stim/wavs/puertorican_mismatch_interrogative-total-yn_El-hombre-mira-la-luna.wav,,,,,,,,,,,,,,,,,,,,,,224.2979,226.5656,0,0,1.7342,,0,8,8,39,1,1,puertorican,,,,,,,,,,,,,,,,,,,,,,,,,,,,,,,,,,,,,,,,,,,,,,,,,,,,,,,,
,,,,,,,,,641386b1cb9a9c1e3569d4ee,Mexican,13 or older,"no, only English or Spanish",no,2025-07-23_08h29.55.133,empathy_intonation_perc,2024.2.4,Win32,60.24096386,641386b1cb9a9c1e3569d4ee,687ed1b7e638a4cbf2f02089,6880d581a35ced1ac5fff088,,,,,,,,,,,,,64,0,,./stim/wavs/puertorican_match_declarative-broad-focus_Daniel-iba-a-Bolivia.wav,,,,,,,,,,,,,,,,,,,,,,226.5666,228.6344,0,1,1.5524,,0,9,9,63,1,0,puertorican,,,,,,,,,,,,,,,,,,,,,,,,,,,,,,,,,,,,,,,,,,,,,,,,,,,,,,,,
,,,,,,,,,641386b1cb9a9c1e3569d4ee,Mexican,13 or older,"no, only English or Spanish",no,2025-07-23_08h29.55.133,empathy_intonation_perc,2024.2.4,Win32,60.24096386,641386b1cb9a9c1e3569d4ee,687ed1b7e638a4cbf2f02089,6880d581a35ced1ac5fff088,,,,,,,,,,,,,47,0,,./stim/wavs/castilian_match_declarative-broad-focus_Manuela-vende-el-carro.wav,,,,,,,,,,,,,,,,,,,,,,228.635,230.9988,0,1,1.8334,,0,10,10,46,1,0,castilian,,,,,,,,,,,,,,,,,,,,,,,,,,,,,,,,,,,,,,,,,,,,,,,,,,,,,,,,
,,,,,,,,,641386b1cb9a9c1e3569d4ee,Mexican,13 or older,"no, only English or Spanish",no,2025-07-23_08h29.55.133,empathy_intonation_perc,2024.2.4,Win32,60.24096386,641386b1cb9a9c1e3569d4ee,687ed1b7e638a4cbf2f02089,6880d581a35ced1ac5fff088,,,,,,,,,,,,,56,0,,./stim/wavs/cuban_match_declarative-broad-focus_Marta-abre-el-regalo.wav,,,,,,,,,,,,,,,,,,,,,,230.9991,233.3485,0,1,1.8326,,0,11,11,55,1,0,cuban,,,,,,,,,,,,,,,,,,,,,,,,,,,,,,,,,,,,,,,,,,,,,,,,,,,,,,,,
,,,,,,,,,641386b1cb9a9c1e3569d4ee,Mexican,13 or older,"no, only English or Spanish",no,2025-07-23_08h29.55.133,empathy_intonation_perc,2024.2.4,Win32,60.24096386,641386b1cb9a9c1e3569d4ee,687ed1b7e638a4cbf2f02089,6880d581a35ced1ac5fff088,,,,,,,,,,,,,48,0,,./stim/wavs/castilian_match_declarative-broad-focus_Maria-bebe-el-vino.wav,,,,,,,,,,,,,,,,,,,,,,233.3488,235.9818,0,1,2.0994,,0,12,12,47,1,0,castilian,,,,,,,,,,,,,,,,,,,,,,,,,,,,,,,,,,,,,,,,,,,,,,,,,,,,,,,,
,,,,,,,,,641386b1cb9a9c1e3569d4ee,Mexican,13 or older,"no, only English or Spanish",no,2025-07-23_08h29.55.133,empathy_intonation_perc,2024.2.4,Win32,60.24096386,641386b1cb9a9c1e3569d4ee,687ed1b7e638a4cbf2f02089,6880d581a35ced1ac5fff088,,,,,,,,,,,,,50,0,,./stim/wavs/castilian_match_declarative-broad-focus_Marta-abre-el-regalo.wav,,,,,,,,,,,,,,,,,,,,,,235.982,238.1825,0,1,1.6662,,0,13,13,49,1,0,castilian,,,,,,,,,,,,,,,,,,,,,,,,,,,,,,,,,,,,,,,,,,,,,,,,,,,,,,,,
,,,,,,,,,641386b1cb9a9c1e3569d4ee,Mexican,13 or older,"no, only English or Spanish",no,2025-07-23_08h29.55.133,empathy_intonation_perc,2024.2.4,Win32,60.24096386,641386b1cb9a9c1e3569d4ee,687ed1b7e638a4cbf2f02089,6880d581a35ced1ac5fff088,,,,,,,,,,,,,83,0,,./stim/wavs/mexican_mismatch_declarative-broad-focus_Mi-tia-odia-la-lluvia.wav,,,,,,,,,,,,,,,,,,,,,,238.1831,240.4648,0,1,1.75,,0,14,14,82,1,0,mexican,,,,,,,,,,,,,,,,,,,,,,,,,,,,,,,,,,,,,,,,,,,,,,,,,,,,,,,,
,,,,,,,,,641386b1cb9a9c1e3569d4ee,Mexican,13 or older,"no, only English or Spanish",no,2025-07-23_08h29.55.133,empathy_intonation_perc,2024.2.4,Win32,60.24096386,641386b1cb9a9c1e3569d4ee,687ed1b7e638a4cbf2f02089,6880d581a35ced1ac5fff088,,,,,,,,,,,,,67,0,,./stim/wavs/puertorican_match_declarative-broad-focus_Manuela-vende-el-carro.wav,,,,,,,,,,,,,,,,,,,,,,240.4653,242.5286,0,1,1.5384,,0,15,15,66,1,0,puertorican,,,,,,,,,,,,,,,,,,,,,,,,,,,,,,,,,,,,,,,,,,,,,,,,,,,,,,,,
,,,,,,,,,641386b1cb9a9c1e3569d4ee,Mexican,13 or older,"no, only English or Spanish",no,2025-07-23_08h29.55.133,empathy_intonation_perc,2024.2.4,Win32,60.24096386,641386b1cb9a9c1e3569d4ee,687ed1b7e638a4cbf2f02089,6880d581a35ced1ac5fff088,,,,,,,,,,,,,3,1,,./stim/wavs/castilian_match_interrogative-total-yn_Manuela-vende-el-carro.wav,,,,,,,,,,,,,,,,,,,,,,242.5292,245.2383,1,1,2.1832,,0,16,16,2,1,0,castilian,,,,,,,,,,,,,,,,,,,,,,,,,,,,,,,,,,,,,,,,,,,,,,,,,,,,,,,,
,,,,,,,,,641386b1cb9a9c1e3569d4ee,Mexican,13 or older,"no, only English or Spanish",no,2025-07-23_08h29.55.133,empathy_intonation_perc,2024.2.4,Win32,60.24096386,641386b1cb9a9c1e3569d4ee,687ed1b7e638a4cbf2f02089,6880d581a35ced1ac5fff088,,,,,,,,,,,,,52,0,,./stim/wavs/cuban_match_declarative-broad-focus_Daniel-iba-a-Bolivia.wav,,,,,,,,,,,,,,,,,,,,,,245.2391,247.6988,0,1,1.9343,,0,17,17,51,1,0,cuban,,,,,,,,,,,,,,,,,,,,,,,,,,,,,,,,,,,,,,,,,,,,,,,,,,,,,,,,
,,,,,,,,,641386b1cb9a9c1e3569d4ee,Mexican,13 or older,"no, only English or Spanish",no,2025-07-23_08h29.55.133,empathy_intonation_perc,2024.2.4,Win32,60.24096386,641386b1cb9a9c1e3569d4ee,687ed1b7e638a4cbf2f02089,6880d581a35ced1ac5fff088,,,,,,,,,,,,,82,0,,./stim/wavs/mexican_mismatch_declarative-broad-focus_Mi-novio-viene-del-lago.wav,,,,,,,,,,,,,,,,,,,,,,247.6991,249.849,0,1,1.6166,,0,18,18,81,1,0,mexican,,,,,,,,,,,,,,,,,,,,,,,,,,,,,,,,,,,,,,,,,,,,,,,,,,,,,,,,
,,,,,,,,,641386b1cb9a9c1e3569d4ee,Mexican,13 or older,"no, only English or Spanish",no,2025-07-23_08h29.55.133,empathy_intonation_perc,2024.2.4,Win32,60.24096386,641386b1cb9a9c1e3569d4ee,687ed1b7e638a4cbf2f02089,6880d581a35ced1ac5fff088,,,,,,,,,,,,,88,0,,./stim/wavs/puertorican_mismatch_declarative-broad-focus_La-nina-lava-el-plato.wav,,,,,,,,,,,,,,,,,,,,,,249.8495,252.0818,0,1,1.7004,,0,19,19,87,1,0,puertorican,,,,,,,,,,,,,,,,,,,,,,,,,,,,,,,,,,,,,,,,,,,,,,,,,,,,,,,,
,,,,,,,,,641386b1cb9a9c1e3569d4ee,Mexican,13 or older,"no, only English or Spanish",no,2025-07-23_08h29.55.133,empathy_intonation_perc,2024.2.4,Win32,60.24096386,641386b1cb9a9c1e3569d4ee,687ed1b7e638a4cbf2f02089,6880d581a35ced1ac5fff088,,,,,,,,,,,,,65,0,,./stim/wavs/puertorican_match_declarative-broad-focus_David-leia-el-libro.wav,,,,,,,,,,,,,,,,,,,,,,252.0822,254.283,0,1,1.685,,0,20,20,64,1,0,puertorican,,,,,,,,,,,,,,,,,,,,,,,,,,,,,,,,,,,,,,,,,,,,,,,,,,,,,,,,
,,,,,,,,,641386b1cb9a9c1e3569d4ee,Mexican,13 or older,"no, only English or Spanish",no,2025-07-23_08h29.55.133,empathy_intonation_perc,2024.2.4,Win32,60.24096386,641386b1cb9a9c1e3569d4ee,687ed1b7e638a4cbf2f02089,6880d581a35ced1ac5fff088,,,,,,,,,,,,,86,0,,./stim/wavs/puertorican_mismatch_declarative-broad-focus_El-nino-oye-el-rio.wav,,,,,,,,,,,,,,,,,,,,,,254.2833,256.2993,0,1,1.4834,,0,21,21,85,1,0,puertorican,,,,,,,,,,,,,,,,,,,,,,,,,,,,,,,,,,,,,,,,,,,,,,,,,,,,,,,,
,,,,,,,,,641386b1cb9a9c1e3569d4ee,Mexican,13 or older,"no, only English or Spanish",no,2025-07-23_08h29.55.133,empathy_intonation_perc,2024.2.4,Win32,60.24096386,641386b1cb9a9c1e3569d4ee,687ed1b7e638a4cbf2f02089,6880d581a35ced1ac5fff088,,,,,,,,,,,,,13,1,,./stim/wavs/mexican_match_interrogative-total-yn_Ana-lleva-el-abrigo.wav,,,,,,,,,,,,,,,,,,,,,,256.2997,259.1316,1,1,2.2982,,0,22,22,12,1,0,mexican,,,,,,,,,,,,,,,,,,,,,,,,,,,,,,,,,,,,,,,,,,,,,,,,,,,,,,,,
,,,,,,,,,641386b1cb9a9c1e3569d4ee,Mexican,13 or older,"no, only English or Spanish",no,2025-07-23_08h29.55.133,empathy_intonation_perc,2024.2.4,Win32,60.24096386,641386b1cb9a9c1e3569d4ee,687ed1b7e638a4cbf2f02089,6880d581a35ced1ac5fff088,,,,,,,,,,,,,21,1,,./stim/wavs/puertorican_match_interrogative-total-yn_David-leia-el-libro.wav,,,,,,,,,,,,,,,,,,,,,,259.132,261.3323,0,0,1.684,,0,23,23,20,1,1,puertorican,,,,,,,,,,,,,,,,,,,,,,,,,,,,,,,,,,,,,,,,,,,,,,,,,,,,,,,,
,,,,,,,,,641386b1cb9a9c1e3569d4ee,Mexican,13 or older,"no, only English or Spanish",no,2025-07-23_08h29.55.133,empathy_intonation_perc,2024.2.4,Win32,60.24096386,641386b1cb9a9c1e3569d4ee,687ed1b7e638a4cbf2f02089,6880d581a35ced1ac5fff088,,,,,,,,,,,,,20,1,,./stim/wavs/puertorican_match_interrogative-total-yn_Daniel-iba-a-Bolivia.wav,,,,,,,,,,,,,,,,,,,,,,261.3326,263.6814,0,0,1.8328,,0,24,24,19,1,1,puertorican,,,,,,,,,,,,,,,,,,,,,,,,,,,,,,,,,,,,,,,,,,,,,,,,,,,,,,,,
,,,,,,,,,641386b1cb9a9c1e3569d4ee,Mexican,13 or older,"no, only English or Spanish",no,2025-07-23_08h29.55.133,empathy_intonation_perc,2024.2.4,Win32,60.24096386,641386b1cb9a9c1e3569d4ee,687ed1b7e638a4cbf2f02089,6880d581a35ced1ac5fff088,,,,,,,,,,,,,37,1,,./stim/wavs/mexican_mismatch_interrogative-total-yn_La-maestra-vive-en-Paris.wav,,,,,,,,,,,,,,,,,,,,,,263.6818,266.1484,1,1,1.9493,,0,25,25,36,1,0,mexican,,,,,,,,,,,,,,,,,,,,,,,,,,,,,,,,,,,,,,,,,,,,,,,,,,,,,,,,
,,,,,,,,,641386b1cb9a9c1e3569d4ee,Mexican,13 or older,"no, only English or Spanish",no,2025-07-23_08h29.55.133,empathy_intonation_perc,2024.2.4,Win32,60.24096386,641386b1cb9a9c1e3569d4ee,687ed1b7e638a4cbf2f02089,6880d581a35ced1ac5fff088,,,,,,,,,,,,,62,0,,./stim/wavs/mexican_match_declarative-broad-focus_Marta-abre-el-regalo.wav,,,,,,,,,,,,,,,,,,,,,,266.1488,268.2325,0,1,1.55,,0,26,26,61,1,0,mexican,,,,,,,,,,,,,,,,,,,,,,,,,,,,,,,,,,,,,,,,,,,,,,,,,,,,,,,,
,,,,,,,,,641386b1cb9a9c1e3569d4ee,Mexican,13 or older,"no, only English or Spanish",no,2025-07-23_08h29.55.133,empathy_intonation_perc,2024.2.4,Win32,60.24096386,641386b1cb9a9c1e3569d4ee,687ed1b7e638a4cbf2f02089,6880d581a35ced1ac5fff088,,,,,,,,,,,,,78,0,,./stim/wavs/cuban_mismatch_declarative-broad-focus_Mi-tia-odia-la-lluvia.wav,,,,,,,,,,,,,,,,,,,,,,268.2332,270.565,0,1,1.8176,,0,27,27,77,1,0,cuban,,,,,,,,,,,,,,,,,,,,,,,,,,,,,,,,,,,,,,,,,,,,,,,,,,,,,,,,
,,,,,,,,,641386b1cb9a9c1e3569d4ee,Mexican,13 or older,"no, only English or Spanish",no,2025-07-23_08h29.55.133,empathy_intonation_perc,2024.2.4,Win32,60.24096386,641386b1cb9a9c1e3569d4ee,687ed1b7e638a4cbf2f02089,6880d581a35ced1ac5fff088,,,,,,,,,,,,,2,1,,./stim/wavs/castilian_match_interrogative-total-yn_Emilio-ama-la-marcha.wav,,,,,,,,,,,,,,,,,,,,,,270.5655,273.5323,1,1,2.4496,,0,28,28,1,1,0,castilian,,,,,,,,,,,,,,,,,,,,,,,,,,,,,,,,,,,,,,,,,,,,,,,,,,,,,,,,
,,,,,,,,,641386b1cb9a9c1e3569d4ee,Mexican,13 or older,"no, only English or Spanish",no,2025-07-23_08h29.55.133,empathy_intonation_perc,2024.2.4,Win32,60.24096386,641386b1cb9a9c1e3569d4ee,687ed1b7e638a4cbf2f02089,6880d581a35ced1ac5fff088,,,,,,,,,,,,,12,1,,./stim/wavs/cuban_match_interrogative-total-yn_Marta-abre-el-regalo.wav,,,,,,,,,,,,,,,,,,,,,,273.5326,275.8985,0,0,1.8335,,0,29,29,11,1,1,cuban,,,,,,,,,,,,,,,,,,,,,,,,,,,,,,,,,,,,,,,,,,,,,,,,,,,,,,,,
,,,,,,,,,641386b1cb9a9c1e3569d4ee,Mexican,13 or older,"no, only English or Spanish",no,2025-07-23_08h29.55.133,empathy_intonation_perc,2024.2.4,Win32,60.24096386,641386b1cb9a9c1e3569d4ee,687ed1b7e638a4cbf2f02089,6880d581a35ced1ac5fff088,,,,,,,,,,,,,77,0,,./stim/wavs/cuban_mismatch_declarative-broad-focus_Mi-novio-viene-del-lago.wav,,,,,,,,,,,,,,,,,,,,,,275.8991,278.2811,0,1,1.8483,,0,30,30,76,1,0,cuban,,,,,,,,,,,,,,,,,,,,,,,,,,,,,,,,,,,,,,,,,,,,,,,,,,,,,,,,
,,,,,,,,,641386b1cb9a9c1e3569d4ee,Mexican,13 or older,"no, only English or Spanish",no,2025-07-23_08h29.55.133,empathy_intonation_perc,2024.2.4,Win32,60.24096386,641386b1cb9a9c1e3569d4ee,687ed1b7e638a4cbf2f02089,6880d581a35ced1ac5fff088,,,,,,,,,,,,,41,1,,./stim/wavs/puertorican_mismatch_interrogative-total-yn_El-nino-oye-el-rio.wav,,,,,,,,,,,,,,,,,,,,,,278.2818,280.4425,0,0,1.6394,,0,31,31,40,1,1,puertorican,,,,,,,,,,,,,,,,,,,,,,,,,,,,,,,,,,,,,,,,,,,,,,,,,,,,,,,,
,,,,,,,,,641386b1cb9a9c1e3569d4ee,Mexican,13 or older,"no, only English or Spanish",no,2025-07-23_08h29.55.133,empathy_intonation_perc,2024.2.4,Win32,60.24096386,641386b1cb9a9c1e3569d4ee,687ed1b7e638a4cbf2f02089,6880d581a35ced1ac5fff088,,,,,,,,,,,,,66,0,,./stim/wavs/puertorican_match_declarative-broad-focus_Emilio-ama-la-marcha.wav,,,,,,,,,,,,,,,,,,,,,,280.4436,282.6027,0,1,1.63,,0,32,32,65,1,0,puertorican,,,,,,,,,,,,,,,,,,,,,,,,,,,,,,,,,,,,,,,,,,,,,,,,,,,,,,,,
,,,,,,,,,641386b1cb9a9c1e3569d4ee,Mexican,13 or older,"no, only English or Spanish",no,2025-07-23_08h29.55.133,empathy_intonation_perc,2024.2.4,Win32,60.24096386,641386b1cb9a9c1e3569d4ee,687ed1b7e638a4cbf2f02089,6880d581a35ced1ac5fff088,,,,,,,,,,,,,79,0,,./stim/wavs/mexican_mismatch_declarative-broad-focus_El-bebe-comia-muy-bien.wav,,,,,,,,,,,,,,,,,,,,,,282.6031,285.1484,0,1,2.0261,,0,33,33,78,1,0,mexican,,,,,,,,,,,,,,,,,,,,,,,,,,,,,,,,,,,,,,,,,,,,,,,,,,,,,,,,
,,,,,,,,,641386b1cb9a9c1e3569d4ee,Mexican,13 or older,"no, only English or Spanish",no,2025-07-23_08h29.55.133,empathy_intonation_perc,2024.2.4,Win32,60.24096386,641386b1cb9a9c1e3569d4ee,687ed1b7e638a4cbf2f02089,6880d581a35ced1ac5fff088,,,,,,,,,,,,,73,0,,./stim/wavs/castilian_mismatch_declarative-broad-focus_Mi-tia-odia-la-lluvia.wav,,,,,,,,,,,,,,,,,,,,,,285.1486,287.565,0,1,1.883,,0,34,34,72,1,0,castilian,,,,,,,,,,,,,,,,,,,,,,,,,,,,,,,,,,,,,,,,,,,,,,,,,,,,,,,,
,,,,,,,,,641386b1cb9a9c1e3569d4ee,Mexican,13 or older,"no, only English or Spanish",no,2025-07-23_08h29.55.133,empathy_intonation_perc,2024.2.4,Win32,60.24096386,641386b1cb9a9c1e3569d4ee,687ed1b7e638a4cbf2f02089,6880d581a35ced1ac5fff088,,,,,,,,,,,,,14,1,,./stim/wavs/mexican_match_interrogative-total-yn_Daniel-iba-a-Bolivia.wav,,,,,,,,,,,,,,,,,,,,,,287.5654,289.9492,1,1,1.8497,,0,35,35,13,1,0,mexican,,,,,,,,,,,,,,,,,,,,,,,,,,,,,,,,,,,,,,,,,,,,,,,,,,,,,,,,
,,,,,,,,,641386b1cb9a9c1e3569d4ee,Mexican,13 or older,"no, only English or Spanish",no,2025-07-23_08h29.55.133,empathy_intonation_perc,2024.2.4,Win32,60.24096386,641386b1cb9a9c1e3569d4ee,687ed1b7e638a4cbf2f02089,6880d581a35ced1ac5fff088,,,,,,,,,,,,,7,1,,./stim/wavs/cuban_match_interrogative-total-yn_Ana-lleva-el-abrigo.wav,,,,,,,,,,,,,,,,,,,,,,289.9495,291.9487,0,0,1.466,,0,36,36,6,1,1,cuban,,,,,,,,,,,,,,,,,,,,,,,,,,,,,,,,,,,,,,,,,,,,,,,,,,,,,,,,
,,,,,,,,,641386b1cb9a9c1e3569d4ee,Mexican,13 or older,"no, only English or Spanish",no,2025-07-23_08h29.55.133,empathy_intonation_perc,2024.2.4,Win32,60.24096386,641386b1cb9a9c1e3569d4ee,687ed1b7e638a4cbf2f02089,6880d581a35ced1ac5fff088,,,,,,,,,,,,,35,1,,./stim/wavs/mexican_mismatch_interrogative-total-yn_El-hombre-mira-la-luna.wav,,,,,,,,,,,,,,,,,,,,,,291.9493,294.1824,1,1,1.7002,,0,37,37,34,1,0,mexican,,,,,,,,,,,,,,,,,,,,,,,,,,,,,,,,,,,,,,,,,,,,,,,,,,,,,,,,
,,,,,,,,,641386b1cb9a9c1e3569d4ee,Mexican,13 or older,"no, only English or Spanish",no,2025-07-23_08h29.55.133,empathy_intonation_perc,2024.2.4,Win32,60.24096386,641386b1cb9a9c1e3569d4ee,687ed1b7e638a4cbf2f02089,6880d581a35ced1ac5fff088,,,,,,,,,,,,,59,0,,./stim/wavs/mexican_match_declarative-broad-focus_David-leia-el-libro.wav,,,,,,,,,,,,,,,,,,,,,,294.1828,296.6644,0,1,1.9386,,0,38,38,58,1,0,mexican,,,,,,,,,,,,,,,,,,,,,,,,,,,,,,,,,,,,,,,,,,,,,,,,,,,,,,,,
,,,,,,,,,641386b1cb9a9c1e3569d4ee,Mexican,13 or older,"no, only English or Spanish",no,2025-07-23_08h29.55.133,empathy_intonation_perc,2024.2.4,Win32,60.24096386,641386b1cb9a9c1e3569d4ee,687ed1b7e638a4cbf2f02089,6880d581a35ced1ac5fff088,,,,,,,,,,,,,34,1,,./stim/wavs/cuban_mismatch_interrogative-total-yn_Mi-tia-odia-la-lluvia.wav,,,,,,,,,,,,,,,,,,,,,,296.665,298.9833,1,1,1.7986,,0,39,39,33,1,1,cuban,,,,,,,,,,,,,,,,,,,,,,,,,,,,,,,,,,,,,,,,,,,,,,,,,,,,,,,,
,,,,,,,,,641386b1cb9a9c1e3569d4ee,Mexican,13 or older,"no, only English or Spanish",no,2025-07-23_08h29.55.133,empathy_intonation_perc,2024.2.4,Win32,60.24096386,641386b1cb9a9c1e3569d4ee,687ed1b7e638a4cbf2f02089,6880d581a35ced1ac5fff088,,,,,,,,,,,,,29,1,,./stim/wavs/castilian_mismatch_interrogative-total-yn_Mi-tia-odia-la-lluvia.wav,,,,,,,,,,,,,,,,,,,,,,298.9837,301.0857,1,1,1.5838,,0,40,40,28,1,0,castilian,,,,,,,,,,,,,,,,,,,,,,,,,,,,,,,,,,,,,,,,,,,,,,,,,,,,,,,,
,,,,,,,,,641386b1cb9a9c1e3569d4ee,Mexican,13 or older,"no, only English or Spanish",no,2025-07-23_08h29.55.133,empathy_intonation_perc,2024.2.4,Win32,60.24096386,641386b1cb9a9c1e3569d4ee,687ed1b7e638a4cbf2f02089,6880d581a35ced1ac5fff088,,,,,,,,,,,,,33,1,,./stim/wavs/cuban_mismatch_interrogative-total-yn_Mi-novio-viene-del-lago.wav,,,,,,,,,,,,,,,,,,,,,,301.0862,303.5149,0,0,1.9172,,0,41,41,32,1,1,cuban,,,,,,,,,,,,,,,,,,,,,,,,,,,,,,,,,,,,,,,,,,,,,,,,,,,,,,,,
,,,,,,,,,641386b1cb9a9c1e3569d4ee,Mexican,13 or older,"no, only English or Spanish",no,2025-07-23_08h29.55.133,empathy_intonation_perc,2024.2.4,Win32,60.24096386,641386b1cb9a9c1e3569d4ee,687ed1b7e638a4cbf2f02089,6880d581a35ced1ac5fff088,,,,,,,,,,,,,81,0,,./stim/wavs/mexican_mismatch_declarative-broad-focus_La-maestra-vive-en-Paris.wav,,,,,,,,,,,,,,,,,,,,,,303.5151,305.7487,0,1,1.7163,,0,42,42,80,1,0,mexican,,,,,,,,,,,,,,,,,,,,,,,,,,,,,,,,,,,,,,,,,,,,,,,,,,,,,,,,
,,,,,,,,,641386b1cb9a9c1e3569d4ee,Mexican,13 or older,"no, only English or Spanish",no,2025-07-23_08h29.55.133,empathy_intonation_perc,2024.2.4,Win32,60.24096386,641386b1cb9a9c1e3569d4ee,687ed1b7e638a4cbf2f02089,6880d581a35ced1ac5fff088,,,,,,,,,,,,,51,0,,./stim/wavs/cuban_match_declarative-broad-focus_Ana-lleva-el-abrigo.wav,,,,,,,,,,,,,,,,,,,,,,305.749,307.8988,0,1,1.6164,,0,43,43,50,1,0,cuban,,,,,,,,,,,,,,,,,,,,,,,,,,,,,,,,,,,,,,,,,,,,,,,,,,,,,,,,
,,,,,,,,,641386b1cb9a9c1e3569d4ee,Mexican,13 or older,"no, only English or Spanish",no,2025-07-23_08h29.55.133,empathy_intonation_perc,2024.2.4,Win32,60.24096386,641386b1cb9a9c1e3569d4ee,687ed1b7e638a4cbf2f02089,6880d581a35ced1ac5fff088,,,,,,,,,,,,,75,0,,./stim/wavs/cuban_mismatch_declarative-broad-focus_El-hombre-mira-la-luna.wav,,,,,,,,,,,,,,,,,,,,,,307.8991,309.9785,0,1,1.5639,,0,44,44,74,1,0,cuban,,,,,,,,,,,,,,,,,,,,,,,,,,,,,,,,,,,,,,,,,,,,,,,,,,,,,,,,
,,,,,,,,,641386b1cb9a9c1e3569d4ee,Mexican,13 or older,"no, only English or Spanish",no,2025-07-23_08h29.55.133,empathy_intonation_perc,2024.2.4,Win32,60.24096386,641386b1cb9a9c1e3569d4ee,687ed1b7e638a4cbf2f02089,6880d581a35ced1ac5fff088,,,,,,,,,,,,,32,1,,./stim/wavs/cuban_mismatch_interrogative-total-yn_Mi-madre-come-la-fruta.wav,,,,,,,,,,,,,,,,,,,,,,309.9793,312.3982,0,0,1.882,,0,45,45,31,1,1,cuban,,,,,,,,,,,,,,,,,,,,,,,,,,,,,,,,,,,,,,,,,,,,,,,,,,,,,,,,
,,,,,,,,,641386b1cb9a9c1e3569d4ee,Mexican,13 or older,"no, only English or Spanish",no,2025-07-23_08h29.55.133,empathy_intonation_perc,2024.2.4,Win32,60.24096386,641386b1cb9a9c1e3569d4ee,687ed1b7e638a4cbf2f02089,6880d581a35ced1ac5fff088,,,,,,,,,,,,,80,0,,./stim/wavs/mexican_mismatch_declarative-broad-focus_El-hombre-mira-la-luna.wav,,,,,,,,,,,,,,,,,,,,,,312.3986,314.4326,0,1,1.5135,,0,46,46,79,1,0,mexican,,,,,,,,,,,,,,,,,,,,,,,,,,,,,,,,,,,,,,,,,,,,,,,,,,,,,,,,
,,,,,,,,,641386b1cb9a9c1e3569d4ee,Mexican,13 or older,"no, only English or Spanish",no,2025-07-23_08h29.55.133,empathy_intonation_perc,2024.2.4,Win32,60.24096386,641386b1cb9a9c1e3569d4ee,687ed1b7e638a4cbf2f02089,6880d581a35ced1ac5fff088,,,,,,,,,,,,,4,1,,./stim/wavs/castilian_match_interrogative-total-yn_Maria-bebe-el-vino.wav,,,,,,,,,,,,,,,,,,,,,,314.433,316.4321,1,1,1.4669,,0,47,47,3,1,0,castilian,,,,,,,,,,,,,,,,,,,,,,,,,,,,,,,,,,,,,,,,,,,,,,,,,,,,,,,,
,,,,,,,,,641386b1cb9a9c1e3569d4ee,Mexican,13 or older,"no, only English or Spanish",no,2025-07-23_08h29.55.133,empathy_intonation_perc,2024.2.4,Win32,60.24096386,641386b1cb9a9c1e3569d4ee,687ed1b7e638a4cbf2f02089,6880d581a35ced1ac5fff088,,,,,,,,,,,,,23,1,,./stim/wavs/puertorican_match_interrogative-total-yn_Manuela-vende-el-carro.wav,,,,,,,,,,,,,,,,,,,,,,316.4326,318.6493,0,0,1.6841,,0,48,48,22,1,1,puertorican,,,,,,,,,,,,,,,,,,,,,,,,,,,,,,,,,,,,,,,,,,,,,,,,,,,,,,,,
,,,,,,,,,641386b1cb9a9c1e3569d4ee,Mexican,13 or older,"no, only English or Spanish",no,2025-07-23_08h29.55.133,empathy_intonation_perc,2024.2.4,Win32,60.24096386,641386b1cb9a9c1e3569d4ee,687ed1b7e638a4cbf2f02089,6880d581a35ced1ac5fff088,,,,,,,,,,,,,16,1,,./stim/wavs/mexican_match_interrogative-total-yn_Emilio-ama-la-marcha.wav,,,,,,,,,,,,,,,,,,,,,,318.6496,320.8317,1,1,1.6422,,0,49,49,15,1,0,mexican,,,,,,,,,,,,,,,,,,,,,,,,,,,,,,,,,,,,,,,,,,,,,,,,,,,,,,,,
,,,,,,,,,641386b1cb9a9c1e3569d4ee,Mexican,13 or older,"no, only English or Spanish",no,2025-07-23_08h29.55.133,empathy_intonation_perc,2024.2.4,Win32,60.24096386,641386b1cb9a9c1e3569d4ee,687ed1b7e638a4cbf2f02089,6880d581a35ced1ac5fff088,,,,,,,,,,,,,68,0,,./stim/wavs/puertorican_match_declarative-broad-focus_Maria-bebe-el-vino.wav,,,,,,,,,,,,,,,,,,,,,,320.8322,323.4983,1,0,2.1357,,0,50,50,67,1,0,puertorican,,,,,,,,,,,,,,,,,,,,,,,,,,,,,,,,,,,,,,,,,,,,,,,,,,,,,,,,
,,,,,,,,,641386b1cb9a9c1e3569d4ee,Mexican,13 or older,"no, only English or Spanish",no,2025-07-23_08h29.55.133,empathy_intonation_perc,2024.2.4,Win32,60.24096386,641386b1cb9a9c1e3569d4ee,687ed1b7e638a4cbf2f02089,6880d581a35ced1ac5fff088,,,,,,,,,,,,,58,0,,./stim/wavs/mexican_match_declarative-broad-focus_Daniel-iba-a-Bolivia.wav,,,,,,,,,,,,,,,,,,,,,,323.4986,325.7167,0,1,1.7016,,0,51,51,57,1,0,mexican,,,,,,,,,,,,,,,,,,,,,,,,,,,,,,,,,,,,,,,,,,,,,,,,,,,,,,,,
,,,,,,,,,641386b1cb9a9c1e3569d4ee,Mexican,13 or older,"no, only English or Spanish",no,2025-07-23_08h29.55.133,empathy_intonation_perc,2024.2.4,Win32,60.24096386,641386b1cb9a9c1e3569d4ee,687ed1b7e638a4cbf2f02089,6880d581a35ced1ac5fff088,,,,,,,,,,,,,38,1,,./stim/wavs/mexican_mismatch_interrogative-total-yn_Mi-novio-viene-del-lago.wav,,,,,,,,,,,,,,,,,,,,,,325.7176,328.0148,1,1,1.7827,,0,52,52,37,1,0,mexican,,,,,,,,,,,,,,,,,,,,,,,,,,,,,,,,,,,,,,,,,,,,,,,,,,,,,,,,
,,,,,,,,,641386b1cb9a9c1e3569d4ee,Mexican,13 or older,"no, only English or Spanish",no,2025-07-23_08h29.55.133,empathy_intonation_perc,2024.2.4,Win32,60.24096386,641386b1cb9a9c1e3569d4ee,687ed1b7e638a4cbf2f02089,6880d581a35ced1ac5fff088,,,,,,,,,,,,,8,1,,./stim/wavs/cuban_match_interrogative-total-yn_Daniel-iba-a-Bolivia.wav,,,,,,,,,,,,,,,,,,,,,,328.015,330.3153,0,0,1.783,,0,53,53,7,1,1,cuban,,,,,,,,,,,,,,,,,,,,,,,,,,,,,,,,,,,,,,,,,,,,,,,,,,,,,,,,
,,,,,,,,,641386b1cb9a9c1e3569d4ee,Mexican,13 or older,"no, only English or Spanish",no,2025-07-23_08h29.55.133,empathy_intonation_perc,2024.2.4,Win32,60.24096386,641386b1cb9a9c1e3569d4ee,687ed1b7e638a4cbf2f02089,6880d581a35ced1ac5fff088,,,,,,,,,,,,,9,1,,./stim/wavs/cuban_match_interrogative-total-yn_Manuela-vende-el-carro.wav,,,,,,,,,,,,,,,,,,,,,,330.3156,332.3984,0,0,1.5505,,0,54,54,8,1,1,cuban,,,,,,,,,,,,,,,,,,,,,,,,,,,,,,,,,,,,,,,,,,,,,,,,,,,,,,,,
,,,,,,,,,641386b1cb9a9c1e3569d4ee,Mexican,13 or older,"no, only English or Spanish",no,2025-07-23_08h29.55.133,empathy_intonation_perc,2024.2.4,Win32,60.24096386,641386b1cb9a9c1e3569d4ee,687ed1b7e638a4cbf2f02089,6880d581a35ced1ac5fff088,,,,,,,,,,,,,70,0,,./stim/wavs/castilian_mismatch_declarative-broad-focus_La-maestra-vive-en-Paris.wav,,,,,,,,,,,,,,,,,,,,,,332.3989,334.6824,0,1,1.7674,,0,55,55,69,1,0,castilian,,,,,,,,,,,,,,,,,,,,,,,,,,,,,,,,,,,,,,,,,,,,,,,,,,,,,,,,
,,,,,,,,,641386b1cb9a9c1e3569d4ee,Mexican,13 or older,"no, only English or Spanish",no,2025-07-23_08h29.55.133,empathy_intonation_perc,2024.2.4,Win32,60.24096386,641386b1cb9a9c1e3569d4ee,687ed1b7e638a4cbf2f02089,6880d581a35ced1ac5fff088,,,,,,,,,,,,,10,1,,./stim/wavs/cuban_match_interrogative-total-yn_Maria-bebe-el-vino.wav,,,,,,,,,,,,,,,,,,,,,,334.6826,336.7483,0,0,1.5501,,0,56,56,9,1,1,cuban,,,,,,,,,,,,,,,,,,,,,,,,,,,,,,,,,,,,,,,,,,,,,,,,,,,,,,,,
,,,,,,,,,641386b1cb9a9c1e3569d4ee,Mexican,13 or older,"no, only English or Spanish",no,2025-07-23_08h29.55.133,empathy_intonation_perc,2024.2.4,Win32,60.24096386,641386b1cb9a9c1e3569d4ee,687ed1b7e638a4cbf2f02089,6880d581a35ced1ac5fff088,,,,,,,,,,,,,63,0,,./stim/wavs/puertorican_match_declarative-broad-focus_Ana-lleva-el-abrigo.wav,,,,,,,,,,,,,,,,,,,,,,336.7487,338.8814,0,1,1.5993,,0,57,57,62,1,0,puertorican,,,,,,,,,,,,,,,,,,,,,,,,,,,,,,,,,,,,,,,,,,,,,,,,,,,,,,,,
,,,,,,,,,641386b1cb9a9c1e3569d4ee,Mexican,13 or older,"no, only English or Spanish",no,2025-07-23_08h29.55.133,empathy_intonation_perc,2024.2.4,Win32,60.24096386,641386b1cb9a9c1e3569d4ee,687ed1b7e638a4cbf2f02089,6880d581a35ced1ac5fff088,,,,,,,,,,,,,27,1,,./stim/wavs/castilian_mismatch_interrogative-total-yn_Mi-madre-come-la-fruta.wav,,,,,,,,,,,,,,,,,,,,,,338.8817,341.3828,1,1,1.9837,,0,58,58,26,1,0,castilian,,,,,,,,,,,,,,,,,,,,,,,,,,,,,,,,,,,,,,,,,,,,,,,,,,,,,,,,
,,,,,,,,,641386b1cb9a9c1e3569d4ee,Mexican,13 or older,"no, only English or Spanish",no,2025-07-23_08h29.55.133,empathy_intonation_perc,2024.2.4,Win32,60.24096386,641386b1cb9a9c1e3569d4ee,687ed1b7e638a4cbf2f02089,6880d581a35ced1ac5fff088,,,,,,,,,,,,,49,0,,./stim/wavs/castilian_match_declarative-broad-focus_Mariano-habla-del-tiempo.wav,,,,,,,,,,,,,,,,,,,,,,341.3833,343.9324,0,1,2.0179,,0,59,59,48,1,0,castilian,,,,,,,,,,,,,,,,,,,,,,,,,,,,,,,,,,,,,,,,,,,,,,,,,,,,,,,,
,,,,,,,,,641386b1cb9a9c1e3569d4ee,Mexican,13 or older,"no, only English or Spanish",no,2025-07-23_08h29.55.133,empathy_intonation_perc,2024.2.4,Win32,60.24096386,641386b1cb9a9c1e3569d4ee,687ed1b7e638a4cbf2f02089,6880d581a35ced1ac5fff088,,,,,,,,,,,,,11,1,,./stim/wavs/cuban_match_interrogative-total-yn_Mariano-habla-del-tiempo.wav,,,,,,,,,,,,,,,,,,,,,,343.9327,346.1986,0,0,1.7324,,0,60,60,10,1,1,cuban,,,,,,,,,,,,,,,,,,,,,,,,,,,,,,,,,,,,,,,,,,,,,,,,,,,,,,,,
,,,,,,,,,641386b1cb9a9c1e3569d4ee,Mexican,13 or older,"no, only English or Spanish",no,2025-07-23_08h29.55.133,empathy_intonation_perc,2024.2.4,Win32,60.24096386,641386b1cb9a9c1e3569d4ee,687ed1b7e638a4cbf2f02089,6880d581a35ced1ac5fff088,,,,,,,,,,,,,42,1,,./stim/wavs/puertorican_mismatch_interrogative-total-yn_La-maestra-vive-en-Paris.wav,,,,,,,,,,,,,,,,,,,,,,346.1989,348.8153,0,0,2.0828,,0,61,61,41,1,1,puertorican,,,,,,,,,,,,,,,,,,,,,,,,,,,,,,,,,,,,,,,,,,,,,,,,,,,,,,,,
,,,,,,,,,641386b1cb9a9c1e3569d4ee,Mexican,13 or older,"no, only English or Spanish",no,2025-07-23_08h29.55.133,empathy_intonation_perc,2024.2.4,Win32,60.24096386,641386b1cb9a9c1e3569d4ee,687ed1b7e638a4cbf2f02089,6880d581a35ced1ac5fff088,,,,,,,,,,,,,18,1,,./stim/wavs/mexican_match_interrogative-total-yn_Marta-abre-el-regalo.wav,,,,,,,,,,,,,,,,,,,,,,348.8156,351.048,0,0,1.7001,,0,62,62,17,1,0,mexican,,,,,,,,,,,,,,,,,,,,,,,,,,,,,,,,,,,,,,,,,,,,,,,,,,,,,,,,
,,,,,,,,,641386b1cb9a9c1e3569d4ee,Mexican,13 or older,"no, only English or Spanish",no,2025-07-23_08h29.55.133,empathy_intonation_perc,2024.2.4,Win32,60.24096386,641386b1cb9a9c1e3569d4ee,687ed1b7e638a4cbf2f02089,6880d581a35ced1ac5fff088,,,,,,,,,,,,,72,0,,./stim/wavs/castilian_mismatch_declarative-broad-focus_Mi-novio-viene-del-lago.wav,,,,,,,,,,,,,,,,,,,,,,351.0482,353.3147,0,1,1.7622,,0,63,63,71,1,0,castilian,,,,,,,,,,,,,,,,,,,,,,,,,,,,,,,,,,,,,,,,,,,,,,,,,,,,,,,,
,,,,,,,,,641386b1cb9a9c1e3569d4ee,Mexican,13 or older,"no, only English or Spanish",no,2025-07-23_08h29.55.133,empathy_intonation_perc,2024.2.4,Win32,60.24096386,641386b1cb9a9c1e3569d4ee,687ed1b7e638a4cbf2f02089,6880d581a35ced1ac5fff088,,,,,,,,,,,,,28,1,,./stim/wavs/castilian_mismatch_interrogative-total-yn_Mi-novio-viene-del-lago.wav,,,,,,,,,,,,,,,,,,,,,,353.3149,355.5824,1,1,1.7613,,0,64,64,27,1,0,castilian,,,,,,,,,,,,,,,,,,,,,,,,,,,,,,,,,,,,,,,,,,,,,,,,,,,,,,,,
,,,,,,,,,641386b1cb9a9c1e3569d4ee,Mexican,13 or older,"no, only English or Spanish",no,2025-07-23_08h29.55.133,empathy_intonation_perc,2024.2.4,Win32,60.24096386,641386b1cb9a9c1e3569d4ee,687ed1b7e638a4cbf2f02089,6880d581a35ced1ac5fff088,,,,,,,,,,,,,6,1,,./stim/wavs/castilian_match_interrogative-total-yn_Marta-abre-el-regalo.wav,,,,,,,,,,,,,,,,,,,,,,355.583,357.849,1,1,1.7349,,0,65,65,5,1,0,castilian,,,,,,,,,,,,,,,,,,,,,,,,,,,,,,,,,,,,,,,,,,,,,,,,,,,,,,,,
,,,,,,,,,641386b1cb9a9c1e3569d4ee,Mexican,13 or older,"no, only English or Spanish",no,2025-07-23_08h29.55.133,empathy_intonation_perc,2024.2.4,Win32,60.24096386,641386b1cb9a9c1e3569d4ee,687ed1b7e638a4cbf2f02089,6880d581a35ced1ac5fff088,,,,,,,,,,,,,87,0,,./stim/wavs/puertorican_mismatch_declarative-broad-focus_La-maestra-vive-en-Paris.wav,,,,,,,,,,,,,,,,,,,,,,357.8494,360.298,0,1,1.9161,,0,66,66,86,1,0,puertorican,,,,,,,,,,,,,,,,,,,,,,,,,,,,,,,,,,,,,,,,,,,,,,,,,,,,,,,,
,,,,,,,,,641386b1cb9a9c1e3569d4ee,Mexican,13 or older,"no, only English or Spanish",no,2025-07-23_08h29.55.133,empathy_intonation_perc,2024.2.4,Win32,60.24096386,641386b1cb9a9c1e3569d4ee,687ed1b7e638a4cbf2f02089,6880d581a35ced1ac5fff088,,,,,,,,,,,,,43,1,,./stim/wavs/puertorican_mismatch_interrogative-total-yn_La-nina-lava-el-plato.wav,,,,,,,,,,,,,,,,,,,,,,360.2983,362.2832,0,0,1.4509,,0,67,67,42,1,1,puertorican,,,,,,,,,,,,,,,,,,,,,,,,,,,,,,,,,,,,,,,,,,,,,,,,,,,,,,,,
,,,,,,,,,641386b1cb9a9c1e3569d4ee,Mexican,13 or older,"no, only English or Spanish",no,2025-07-23_08h29.55.133,empathy_intonation_perc,2024.2.4,Win32,60.24096386,641386b1cb9a9c1e3569d4ee,687ed1b7e638a4cbf2f02089,6880d581a35ced1ac5fff088,,,,,,,,,,,,,57,0,,./stim/wavs/mexican_match_declarative-broad-focus_Ana-lleva-el-abrigo.wav,,,,,,,,,,,,,,,,,,,,,,362.2841,364.332,0,1,1.5167,,0,68,68,56,1,0,mexican,,,,,,,,,,,,,,,,,,,,,,,,,,,,,,,,,,,,,,,,,,,,,,,,,,,,,,,,
,,,,,,,,,641386b1cb9a9c1e3569d4ee,Mexican,13 or older,"no, only English or Spanish",no,2025-07-23_08h29.55.133,empathy_intonation_perc,2024.2.4,Win32,60.24096386,641386b1cb9a9c1e3569d4ee,687ed1b7e638a4cbf2f02089,6880d581a35ced1ac5fff088,,,,,,,,,,,,,61,0,,./stim/wavs/mexican_match_declarative-broad-focus_Mariano-habla-del-tiempo.wav,,,,,,,,,,,,,,,,,,,,,,364.3324,366.7817,0,1,1.9165,,0,69,69,60,1,0,mexican,,,,,,,,,,,,,,,,,,,,,,,,,,,,,,,,,,,,,,,,,,,,,,,,,,,,,,,,
,,,,,,,,,641386b1cb9a9c1e3569d4ee,Mexican,13 or older,"no, only English or Spanish",no,2025-07-23_08h29.55.133,empathy_intonation_perc,2024.2.4,Win32,60.24096386,641386b1cb9a9c1e3569d4ee,687ed1b7e638a4cbf2f02089,6880d581a35ced1ac5fff088,,,,,,,,,,,,,24,1,,./stim/wavs/puertorican_match_interrogative-total-yn_Maria-bebe-el-vino.wav,,,,,,,,,,,,,,,,,,,,,,366.782,368.7985,0,0,1.5005,,0,70,70,23,1,1,puertorican,,,,,,,,,,,,,,,,,,,,,,,,,,,,,,,,,,,,,,,,,,,,,,,,,,,,,,,,
,,,,,,,,,641386b1cb9a9c1e3569d4ee,Mexican,13 or older,"no, only English or Spanish",no,2025-07-23_08h29.55.133,empathy_intonation_perc,2024.2.4,Win32,60.24096386,641386b1cb9a9c1e3569d4ee,687ed1b7e638a4cbf2f02089,6880d581a35ced1ac5fff088,,,,,,,,,,,,,5,1,,./stim/wavs/castilian_match_interrogative-total-yn_Mariano-habla-del-tiempo.wav,,,,,,,,,,,,,,,,,,,,,,368.7988,371.1114,1,1,1.7851,,0,71,71,4,1,0,castilian,,,,,,,,,,,,,,,,,,,,,,,,,,,,,,,,,,,,,,,,,,,,,,,,,,,,,,,,
,,,,,,,,,641386b1cb9a9c1e3569d4ee,Mexican,13 or older,"no, only English or Spanish",no,2025-07-23_08h29.55.133,empathy_intonation_perc,2024.2.4,Win32,60.24096386,641386b1cb9a9c1e3569d4ee,687ed1b7e638a4cbf2f02089,6880d581a35ced1ac5fff088,,,,,,,,,,,,,71,0,,./stim/wavs/castilian_mismatch_declarative-broad-focus_La-nina-lava-el-plato.wav,,,,,,,,,,,,,,,,,,,,,,371.112,373.6043,0,1,1.9611,,0,72,72,70,1,0,castilian,,,,,,,,,,,,,,,,,,,,,,,,,,,,,,,,,,,,,,,,,,,,,,,,,,,,,,,,
,,,,,,,,,641386b1cb9a9c1e3569d4ee,Mexican,13 or older,"no, only English or Spanish",no,2025-07-23_08h29.55.133,empathy_intonation_perc,2024.2.4,Win32,60.24096386,641386b1cb9a9c1e3569d4ee,687ed1b7e638a4cbf2f02089,6880d581a35ced1ac5fff088,,,,,,,,,,,,,22,1,,./stim/wavs/puertorican_match_interrogative-total-yn_Emilio-ama-la-marcha.wav,,,,,,,,,,,,,,,,,,,,,,373.6047,375.5992,0,0,1.4657,,0,73,73,21,1,1,puertorican,,,,,,,,,,,,,,,,,,,,,,,,,,,,,,,,,,,,,,,,,,,,,,,,,,,,,,,,
,,,,,,,,,641386b1cb9a9c1e3569d4ee,Mexican,13 or older,"no, only English or Spanish",no,2025-07-23_08h29.55.133,empathy_intonation_perc,2024.2.4,Win32,60.24096386,641386b1cb9a9c1e3569d4ee,687ed1b7e638a4cbf2f02089,6880d581a35ced1ac5fff088,,,,,,,,,,,,,36,1,,./stim/wavs/mexican_mismatch_interrogative-total-yn_El-nino-oye-el-rio.wav,,,,,,,,,,,,,,,,,,,,,,375.5996,377.9323,1,1,1.8003,,0,74,74,35,1,0,mexican,,,,,,,,,,,,,,,,,,,,,,,,,,,,,,,,,,,,,,,,,,,,,,,,,,,,,,,,
,,,,,,,,,641386b1cb9a9c1e3569d4ee,Mexican,13 or older,"no, only English or Spanish",no,2025-07-23_08h29.55.133,empathy_intonation_perc,2024.2.4,Win32,60.24096386,641386b1cb9a9c1e3569d4ee,687ed1b7e638a4cbf2f02089,6880d581a35ced1ac5fff088,,,,,,,,,,,,,45,0,,./stim/wavs/castilian_match_declarative-broad-focus_David-leia-el-libro.wav,,,,,,,,,,,,,,,,,,,,,,377.9326,380.4308,0,1,1.9663,,0,75,75,44,1,0,castilian,,,,,,,,,,,,,,,,,,,,,,,,,,,,,,,,,,,,,,,,,,,,,,,,,,,,,,,,
,,,,,,,,,641386b1cb9a9c1e3569d4ee,Mexican,13 or older,"no, only English or Spanish",no,2025-07-23_08h29.55.133,empathy_intonation_perc,2024.2.4,Win32,60.24096386,641386b1cb9a9c1e3569d4ee,687ed1b7e638a4cbf2f02089,6880d581a35ced1ac5fff088,,,,,,,,,,,,,30,1,,./stim/wavs/cuban_mismatch_interrogative-total-yn_El-hombre-mira-la-luna.wav,,,,,,,,,,,,,,,,,,,,,,380.4313,382.5466,0,0,1.5883,,0,76,76,29,1,1,cuban,,,,,,,,,,,,,,,,,,,,,,,,,,,,,,,,,,,,,,,,,,,,,,,,,,,,,,,,
,,,,,,,,,641386b1cb9a9c1e3569d4ee,Mexican,13 or older,"no, only English or Spanish",no,2025-07-23_08h29.55.133,empathy_intonation_perc,2024.2.4,Win32,60.24096386,641386b1cb9a9c1e3569d4ee,687ed1b7e638a4cbf2f02089,6880d581a35ced1ac5fff088,,,,,,,,,,,,,55,0,,./stim/wavs/cuban_match_declarative-broad-focus_Mariano-habla-del-tiempo.wav,,,,,,,,,,,,,,,,,,,,,,382.5469,384.9153,0,1,1.8483,,0,77,77,54,1,0,cuban,,,,,,,,,,,,,,,,,,,,,,,,,,,,,,,,,,,,,,,,,,,,,,,,,,,,,,,,
,,,,,,,,,641386b1cb9a9c1e3569d4ee,Mexican,13 or older,"no, only English or Spanish",no,2025-07-23_08h29.55.133,empathy_intonation_perc,2024.2.4,Win32,60.24096386,641386b1cb9a9c1e3569d4ee,687ed1b7e638a4cbf2f02089,6880d581a35ced1ac5fff088,,,,,,,,,,,,,15,1,,./stim/wavs/mexican_match_interrogative-total-yn_David-leia-el-libro.wav,,,,,,,,,,,,,,,,,,,,,,384.9157,387.3834,1,1,1.9463,,0,78,78,14,1,0,mexican,,,,,,,,,,,,,,,,,,,,,,,,,,,,,,,,,,,,,,,,,,,,,,,,,,,,,,,,
,,,,,,,,,641386b1cb9a9c1e3569d4ee,Mexican,13 or older,"no, only English or Spanish",no,2025-07-23_08h29.55.133,empathy_intonation_perc,2024.2.4,Win32,60.24096386,641386b1cb9a9c1e3569d4ee,687ed1b7e638a4cbf2f02089,6880d581a35ced1ac5fff088,,,,,,,,,,,,,26,1,,./stim/wavs/castilian_mismatch_interrogative-total-yn_La-nina-lava-el-plato.wav,,,,,,,,,,,,,,,,,,,,,,387.3839,389.9476,1,1,2.0326,,0,79,79,25,1,0,castilian,,,,,,,,,,,,,,,,,,,,,,,,,,,,,,,,,,,,,,,,,,,,,,,,,,,,,,,,
,,,,,,,,,641386b1cb9a9c1e3569d4ee,Mexican,13 or older,"no, only English or Spanish",no,2025-07-23_08h29.55.133,empathy_intonation_perc,2024.2.4,Win32,60.24096386,641386b1cb9a9c1e3569d4ee,687ed1b7e638a4cbf2f02089,6880d581a35ced1ac5fff088,,,,,,,,,,,,,74,0,,./stim/wavs/cuban_mismatch_declarative-broad-focus_El-bebe-comia-muy-bien.wav,,,,,,,,,,,,,,,,,,,,,,389.9479,392.4154,0,1,1.9505,,0,80,80,73,1,0,cuban,,,,,,,,,,,,,,,,,,,,,,,,,,,,,,,,,,,,,,,,,,,,,,,,,,,,,,,,
,,,,,,,,,641386b1cb9a9c1e3569d4ee,Mexican,13 or older,"no, only English or Spanish",no,2025-07-23_08h29.55.133,empathy_intonation_perc,2024.2.4,Win32,60.24096386,641386b1cb9a9c1e3569d4ee,687ed1b7e638a4cbf2f02089,6880d581a35ced1ac5fff088,,,,,,,,,,,,,17,1,,./stim/wavs/mexican_match_interrogative-total-yn_Mariano-habla-del-tiempo.wav,,,,,,,,,,,,,,,,,,,,,,392.4159,394.748,1,1,1.8001,,0,81,81,16,1,0,mexican,,,,,,,,,,,,,,,,,,,,,,,,,,,,,,,,,,,,,,,,,,,,,,,,,,,,,,,,
,,,,,,,,,641386b1cb9a9c1e3569d4ee,Mexican,13 or older,"no, only English or Spanish",no,2025-07-23_08h29.55.133,empathy_intonation_perc,2024.2.4,Win32,60.24096386,641386b1cb9a9c1e3569d4ee,687ed1b7e638a4cbf2f02089,6880d581a35ced1ac5fff088,,,,,,,,,,,,,69,0,,./stim/wavs/castilian_mismatch_declarative-broad-focus_El-nino-oye-el-rio.wav,,,,,,,,,,,,,,,,,,,,,,394.7483,397.2148,0,1,1.9338,,0,82,82,68,1,0,castilian,,,,,,,,,,,,,,,,,,,,,,,,,,,,,,,,,,,,,,,,,,,,,,,,,,,,,,,,
,,,,,,,,,641386b1cb9a9c1e3569d4ee,Mexican,13 or older,"no, only English or Spanish",no,2025-07-23_08h29.55.133,empathy_intonation_perc,2024.2.4,Win32,60.24096386,641386b1cb9a9c1e3569d4ee,687ed1b7e638a4cbf2f02089,6880d581a35ced1ac5fff088,,,,,,,,,,,,,60,0,,./stim/wavs/mexican_match_declarative-broad-focus_Emilio-ama-la-marcha.wav,,,,,,,,,,,,,,,,,,,,,,397.215,399.4989,0,1,1.7666,,0,83,83,59,1,0,mexican,,,,,,,,,,,,,,,,,,,,,,,,,,,,,,,,,,,,,,,,,,,,,,,,,,,,,,,,
,,,,,,,,,641386b1cb9a9c1e3569d4ee,Mexican,13 or older,"no, only English or Spanish",no,2025-07-23_08h29.55.133,empathy_intonation_perc,2024.2.4,Win32,60.24096386,641386b1cb9a9c1e3569d4ee,687ed1b7e638a4cbf2f02089,6880d581a35ced1ac5fff088,,,,,,,,,,,,,31,1,,./stim/wavs/cuban_mismatch_interrogative-total-yn_El-nino-oye-el-rio.wav,,,,,,,,,,,,,,,,,,,,,,399.4993,402.8252,0,0,2.8047,,0,84,84,30,1,1,cuban,,,,,,,,,,,,,,,,,,,,,,,,,,,,,,,,,,,,,,,,,,,,,,,,,,,,,,,,
,,,,,,,,,641386b1cb9a9c1e3569d4ee,Mexican,13 or older,"no, only English or Spanish",no,2025-07-23_08h29.55.133,empathy_intonation_perc,2024.2.4,Win32,60.24096386,641386b1cb9a9c1e3569d4ee,687ed1b7e638a4cbf2f02089,6880d581a35ced1ac5fff088,,,,,,,,,,,,,76,0,,./stim/wavs/cuban_mismatch_declarative-broad-focus_La-nina-lava-el-plato.wav,,,,,,,,,,,,,,,,,,,,,,402.8259,405.9659,0,1,2.6172,,0,85,85,75,1,0,cuban,,,,,,,,,,,,,,,,,,,,,,,,,,,,,,,,,,,,,,,,,,,,,,,,,,,,,,,,
,,,,,,,,,641386b1cb9a9c1e3569d4ee,Mexican,13 or older,"no, only English or Spanish",no,2025-07-23_08h29.55.133,empathy_intonation_perc,2024.2.4,Win32,60.24096386,641386b1cb9a9c1e3569d4ee,687ed1b7e638a4cbf2f02089,6880d581a35ced1ac5fff088,,,,,,,,,,,,,39,1,,./stim/wavs/mexican_mismatch_interrogative-total-yn_Mi-tia-odia-la-lluvia.wav,,,,,,,,,,,,,,,,,,,,,,405.9664,408.2167,1,1,1.7179,,0,86,86,38,1,0,mexican,,,,,,,,,,,,,,,,,,,,,,,,,,,,,,,,,,,,,,,,,,,,,,,,,,,,,,,,
,,,,,,,,,641386b1cb9a9c1e3569d4ee,Mexican,13 or older,"no, only English or Spanish",no,2025-07-23_08h29.55.133,empathy_intonation_perc,2024.2.4,Win32,60.24096386,641386b1cb9a9c1e3569d4ee,687ed1b7e638a4cbf2f02089,6880d581a35ced1ac5fff088,,,,,,,,,,,,,84,0,,./stim/wavs/puertorican_mismatch_declarative-broad-focus_El-bebe-comia-muy-bien.wav,,,,,,,,,,,,,,,,,,,,,,408.2175,410.8478,0,1,2.0989,,0,87,87,83,1,0,puertorican,,,,,,,,,,,,,,,,,,,,,,,,,,,,,,,,,,,,,,,,,,,,,,,,,,,,,,,,
,,,,,,,"Great! Now we will move on. The next task consists of about 60 trials, in each of which you will see a string of letters. 
  
  Your task is to decide whether this is a real Spanish word or not.", (press the spacebar to continue),641386b1cb9a9c1e3569d4ee,Mexican,13 or older,"no, only English or Spanish",no,2025-07-23_08h29.55.133,empathy_intonation_perc,2024.2.4,Win32,60.24096386,641386b1cb9a9c1e3569d4ee,687ed1b7e638a4cbf2f02089,6880d581a35ced1ac5fff088,,,,,,,,,,,,,,,,,,,,,,,,,,,,,,,,,,,,,,,,,,,,,,,,,,,410.8511,416.9656,0,0,0,0,1,,,,,,,,,,,,,,,,,,,,,,,,,,,,,,,,,,,,,,,,,,,,,,,,,
,,,,,,,"If you think it is an existing Spanish word, you type '1' (for 'REAL'), and if you think it is not an existing Spanish word, you type '0' (for 'FAKE').", (press the spacebar to continue),641386b1cb9a9c1e3569d4ee,Mexican,13 or older,"no, only English or Spanish",no,2025-07-23_08h29.55.133,empathy_intonation_perc,2024.2.4,Win32,60.24096386,641386b1cb9a9c1e3569d4ee,687ed1b7e638a4cbf2f02089,6880d581a35ced1ac5fff088,,,,,,,,,,,,,,,,,,,,,,,,,,,,,,,,,,,,,,,,,,,,,,,,,,,416.9674,421.8662,0,1,1,1,1,,,,,,,,,,,,,,,,,,,,,,,,,,,,,,,,,,,,,,,,,,,,,,,,,
,,,,,,,"If you are sure that the word exists, even though you don’t know its exact meaning, you may still respond '1' (REAL). 
  
  But if you are not sure if it is an existing word, you should respond '0' (FAKE).
  
  Let's do a practice round...", (press the spacebar to continue),641386b1cb9a9c1e3569d4ee,Mexican,13 or older,"no, only English or Spanish",no,2025-07-23_08h29.55.133,empathy_intonation_perc,2024.2.4,Win32,60.24096386,641386b1cb9a9c1e3569d4ee,687ed1b7e638a4cbf2f02089,6880d581a35ced1ac5fff088,,,,,,,,,,,,,,,,,,,,,,,,,,,,,,,,,,,,,,,,,,,,,,,,,,,421.8678,426.7154,0,2,2,2,1,,,,,,,,,,,,,,,,,,,,,,,,,,,,,,,,,,,,,,,,,,,,,,,,,
,,,,,,,,,641386b1cb9a9c1e3569d4ee,Mexican,13 or older,"no, only English or Spanish",no,2025-07-23_08h29.55.133,empathy_intonation_perc,2024.2.4,Win32,60.24096386,641386b1cb9a9c1e3569d4ee,687ed1b7e638a4cbf2f02089,6880d581a35ced1ac5fff088,,,,,,,,,,,,,,0,,,,,,,,,,,,,,,,,,,,,,,,,,,,,,,,,,,,,,,,,,,,426.7181,430.0152,1,0,2.7666,,430.0153,431.0147,0,0,0,0,1,0,depiste,REAL,FAKE,,,,,,,,,,,,,,,,,,,,,,,,,,,,,,,,
,,,,,,,,,641386b1cb9a9c1e3569d4ee,Mexican,13 or older,"no, only English or Spanish",no,2025-07-23_08h29.55.133,empathy_intonation_perc,2024.2.4,Win32,60.24096386,641386b1cb9a9c1e3569d4ee,687ed1b7e638a4cbf2f02089,6880d581a35ced1ac5fff088,,,,,,,,,,,,,,1,,,,,,,,,,,,,,,,,,,,,,,,,,,,,,,,,,,,,,,,,,,,431.0157,433.0825,1,1,1.5349,,433.0829,434.0818,0,1,1,1,1,0,sí,REAL,FAKE,,,,,,,,,,,,,,,,,,,,,,,,,,,,,,,,
,,,,,,,,,641386b1cb9a9c1e3569d4ee,Mexican,13 or older,"no, only English or Spanish",no,2025-07-23_08h29.55.133,empathy_intonation_perc,2024.2.4,Win32,60.24096386,641386b1cb9a9c1e3569d4ee,687ed1b7e638a4cbf2f02089,6880d581a35ced1ac5fff088,,,,,,,,,,,,,,0,,,,,,,,,,,,,,,,,,,,,,,,,,,,,,,,,,,,,,,,,,,,434.0829,435.4314,0,1,0.8163,,435.4314,436.4332,0,2,2,2,1,0,coné,REAL,FAKE,,,,,,,,,,,,,,,,,,,,,,,,,,,,,,,,
,,,,,,,,,641386b1cb9a9c1e3569d4ee,Mexican,13 or older,"no, only English or Spanish",no,2025-07-23_08h29.55.133,empathy_intonation_perc,2024.2.4,Win32,60.24096386,641386b1cb9a9c1e3569d4ee,687ed1b7e638a4cbf2f02089,6880d581a35ced1ac5fff088,,,,,,,,,,,,,,0,,,,,,,,,,,,,,,,,,,,,,,,,,,,,,,,,,,,,,,,,,,,436.4341,438.3983,0,1,1.4338,,438.3984,439.3982,0,3,3,3,1,0,calpar,REAL,FAKE,,,,,,,,,,,,,,,,,,,,,,,,,,,,,,,,
,,,,,,,,,641386b1cb9a9c1e3569d4ee,Mexican,13 or older,"no, only English or Spanish",no,2025-07-23_08h29.55.133,empathy_intonation_perc,2024.2.4,Win32,60.24096386,641386b1cb9a9c1e3569d4ee,687ed1b7e638a4cbf2f02089,6880d581a35ced1ac5fff088,,,,,,,,,,,,,,0,,,,,,,,,,,,,,,,,,,,,,,,,,,,,,,,,,,,,,,,,,,,439.3996,440.733,1,0,0.8015,,440.7334,441.7325,0,4,4,4,1,0,joten,REAL,FAKE,,,,,,,,,,,,,,,,,,,,,,,,,,,,,,,,
,,,,,,,,,641386b1cb9a9c1e3569d4ee,Mexican,13 or older,"no, only English or Spanish",no,2025-07-23_08h29.55.133,empathy_intonation_perc,2024.2.4,Win32,60.24096386,641386b1cb9a9c1e3569d4ee,687ed1b7e638a4cbf2f02089,6880d581a35ced1ac5fff088,,,,,,,,,,,,,,1,,,,,,,,,,,,,,,,,,,,,,,,,,,,,,,,,,,,,,,,,,,,441.7337,443.5653,1,1,1.3003,,443.5658,444.5653,0,5,5,5,1,0,sacapuntas,REAL,FAKE,,,,,,,,,,,,,,,,,,,,,,,,,,,,,,,,
,,,,,,,,,641386b1cb9a9c1e3569d4ee,Mexican,13 or older,"no, only English or Spanish",no,2025-07-23_08h29.55.133,empathy_intonation_perc,2024.2.4,Win32,60.24096386,641386b1cb9a9c1e3569d4ee,687ed1b7e638a4cbf2f02089,6880d581a35ced1ac5fff088,,,,,,,,,,,,,,0,,,,,,,,,,,,,,,,,,,,,,,,,,,,,,,,,,,,,,,,,,,,444.5666,445.8985,1,0,0.8166,,445.8989,446.899,0,6,6,6,1,0,priba,REAL,FAKE,,,,,,,,,,,,,,,,,,,,,,,,,,,,,,,,
,,,,,,,,,641386b1cb9a9c1e3569d4ee,Mexican,13 or older,"no, only English or Spanish",no,2025-07-23_08h29.55.133,empathy_intonation_perc,2024.2.4,Win32,60.24096386,641386b1cb9a9c1e3569d4ee,687ed1b7e638a4cbf2f02089,6880d581a35ced1ac5fff088,,,,,,,,,,,,,,0,,,,,,,,,,,,,,,,,,,,,,,,,,,,,,,,,,,,,,,,,,,,446.9001,448.1655,1,0,0.7338,,448.1656,449.1653,0,7,7,7,1,0,pelasula,REAL,FAKE,,,,,,,,,,,,,,,,,,,,,,,,,,,,,,,,
,,,,,,,,,641386b1cb9a9c1e3569d4ee,Mexican,13 or older,"no, only English or Spanish",no,2025-07-23_08h29.55.133,empathy_intonation_perc,2024.2.4,Win32,60.24096386,641386b1cb9a9c1e3569d4ee,687ed1b7e638a4cbf2f02089,6880d581a35ced1ac5fff088,,,,,,,,,,,,,,1,,,,,,,,,,,,,,,,,,,,,,,,,,,,,,,,,,,,,,,,,,,,449.167,450.4117,1,1,0.712,,450.4127,451.3998,0,8,8,8,1,0,bien,REAL,FAKE,,,,,,,,,,,,,,,,,,,,,,,,,,,,,,,,
,,,,,,,,,641386b1cb9a9c1e3569d4ee,Mexican,13 or older,"no, only English or Spanish",no,2025-07-23_08h29.55.133,empathy_intonation_perc,2024.2.4,Win32,60.24096386,641386b1cb9a9c1e3569d4ee,687ed1b7e638a4cbf2f02089,6880d581a35ced1ac5fff088,,,,,,,,,,,,,,1,,,,,,,,,,,,,,,,,,,,,,,,,,,,,,,,,,,,,,,,,,,,451.4014,452.7054,1,1,0.7666,,452.7055,453.703,0,9,9,9,1,0,casa,REAL,FAKE,,,,,,,,,,,,,,,,,,,,,,,,,,,,,,,,
,,,,,,,,,641386b1cb9a9c1e3569d4ee,Mexican,13 or older,"no, only English or Spanish",no,2025-07-23_08h29.55.133,empathy_intonation_perc,2024.2.4,Win32,60.24096386,641386b1cb9a9c1e3569d4ee,687ed1b7e638a4cbf2f02089,6880d581a35ced1ac5fff088,,,,,,,,,,,,,,0,,,,,,,,,,,,,,,,,,,,,,,,,,,,,,,,,,,,,,,,,,,,453.7043,455.3322,1,0,1.0831,,455.3328,456.3319,0,10,10,10,1,0,lejo,REAL,FAKE,,,,,,,,,,,,,,,,,,,,,,,,,,,,,,,,
,,,,,,,,,641386b1cb9a9c1e3569d4ee,Mexican,13 or older,"no, only English or Spanish",no,2025-07-23_08h29.55.133,empathy_intonation_perc,2024.2.4,Win32,60.24096386,641386b1cb9a9c1e3569d4ee,687ed1b7e638a4cbf2f02089,6880d581a35ced1ac5fff088,,,,,,,,,,,,,,0,,,,,,,,,,,,,,,,,,,,,,,,,,,,,,,,,,,,,,,,,,,,456.333,457.7991,1,0,0.9341,,457.7992,458.7989,0,11,11,11,1,0,pretantas,REAL,FAKE,,,,,,,,,,,,,,,,,,,,,,,,,,,,,,,,
,,,,,,,,,641386b1cb9a9c1e3569d4ee,Mexican,13 or older,"no, only English or Spanish",no,2025-07-23_08h29.55.133,empathy_intonation_perc,2024.2.4,Win32,60.24096386,641386b1cb9a9c1e3569d4ee,687ed1b7e638a4cbf2f02089,6880d581a35ced1ac5fff088,,,,,,,,,,,,,,,,,,,,,,,,,,,,,,,,,,,,,,,,,,,,,,,,,,,,,,,,,,,,,,,,,,,,,,,,,,,458.7992,460.4659,,,,,,,,,,,,,,,,,,,,,,,,,,,,,,
,,,,,,,,,641386b1cb9a9c1e3569d4ee,Mexican,13 or older,"no, only English or Spanish",no,2025-07-23_08h29.55.133,empathy_intonation_perc,2024.2.4,Win32,60.24096386,641386b1cb9a9c1e3569d4ee,687ed1b7e638a4cbf2f02089,6880d581a35ced1ac5fff088,,,,,,,,,,,,,,0,,,,,,,,,,,,,,,,,,,,,,,,,,,,,,,,,,,,,,,,,,,,,,,,,,,,,,,,,33,pauca,,,,,460.4712,462.2465,0,1,1.2197,,0,0,0,32,1,REAL,FAKE,,,,,,,,,,,,,,,,,
,,,,,,,,,641386b1cb9a9c1e3569d4ee,Mexican,13 or older,"no, only English or Spanish",no,2025-07-23_08h29.55.133,empathy_intonation_perc,2024.2.4,Win32,60.24096386,641386b1cb9a9c1e3569d4ee,687ed1b7e638a4cbf2f02089,6880d581a35ced1ac5fff088,,,,,,,,,,,,,,1,,,,,,,,,,,,,,,,,,,,,,,,,,,,,,,,,,,,,,,,,,,,,,,,,,,,,,,,,20,ávido,,,,,462.2483,463.5488,1,1,0.7667,,0,1,1,19,1,REAL,FAKE,,,,,,,,,,,,,,,,,
,,,,,,,,,641386b1cb9a9c1e3569d4ee,Mexican,13 or older,"no, only English or Spanish",no,2025-07-23_08h29.55.133,empathy_intonation_perc,2024.2.4,Win32,60.24096386,641386b1cb9a9c1e3569d4ee,687ed1b7e638a4cbf2f02089,6880d581a35ced1ac5fff088,,,,,,,,,,,,,,0,,,,,,,,,,,,,,,,,,,,,,,,,,,,,,,,,,,,,,,,,,,,,,,,,,,,,,,,,70,temblo,,,,,463.5497,464.7651,0,1,0.6834,,0,2,2,69,1,REAL,FAKE,,,,,,,,,,,,,,,,,
,,,,,,,,,641386b1cb9a9c1e3569d4ee,Mexican,13 or older,"no, only English or Spanish",no,2025-07-23_08h29.55.133,empathy_intonation_perc,2024.2.4,Win32,60.24096386,641386b1cb9a9c1e3569d4ee,687ed1b7e638a4cbf2f02089,6880d581a35ced1ac5fff088,,,,,,,,,,,,,,1,,,,,,,,,,,,,,,,,,,,,,,,,,,,,,,,,,,,,,,,,,,,,,,,,,,,,,,,,55,nevar,,,,,464.7658,465.6485,0,0,0.3504,,0,3,3,54,1,REAL,FAKE,,,,,,,,,,,,,,,,,
,,,,,,,,,641386b1cb9a9c1e3569d4ee,Mexican,13 or older,"no, only English or Spanish",no,2025-07-23_08h29.55.133,empathy_intonation_perc,2024.2.4,Win32,60.24096386,641386b1cb9a9c1e3569d4ee,687ed1b7e638a4cbf2f02089,6880d581a35ced1ac5fff088,,,,,,,,,,,,,,1,,,,,,,,,,,,,,,,,,,,,,,,,,,,,,,,,,,,,,,,,,,,,,,,,,,,,,,,,65,bizcocho,,,,,465.6497,466.6839,0,0,0.4995,,0,4,4,64,1,REAL,FAKE,,,,,,,,,,,,,,,,,
,,,,,,,,,641386b1cb9a9c1e3569d4ee,Mexican,13 or older,"no, only English or Spanish",no,2025-07-23_08h29.55.133,empathy_intonation_perc,2024.2.4,Win32,60.24096386,641386b1cb9a9c1e3569d4ee,687ed1b7e638a4cbf2f02089,6880d581a35ced1ac5fff088,,,,,,,,,,,,,,1,,,,,,,,,,,,,,,,,,,,,,,,,,,,,,,,,,,,,,,,,,,,,,,,,,,,,,,,,62,flaco,,,,,466.6846,467.5324,0,0,0.3178,,0,5,5,61,1,REAL,FAKE,,,,,,,,,,,,,,,,,
,,,,,,,,,641386b1cb9a9c1e3569d4ee,Mexican,13 or older,"no, only English or Spanish",no,2025-07-23_08h29.55.133,empathy_intonation_perc,2024.2.4,Win32,60.24096386,641386b1cb9a9c1e3569d4ee,687ed1b7e638a4cbf2f02089,6880d581a35ced1ac5fff088,,,,,,,,,,,,,,1,,,,,,,,,,,,,,,,,,,,,,,,,,,,,,,,,,,,,,,,,,,,,,,,,,,,,,,,,81,pozo,,,,,467.5329,468.5814,1,1,0.5168,,0,6,6,80,1,REAL,FAKE,,,,,,,,,,,,,,,,,
,,,,,,,,,641386b1cb9a9c1e3569d4ee,Mexican,13 or older,"no, only English or Spanish",no,2025-07-23_08h29.55.133,empathy_intonation_perc,2024.2.4,Win32,60.24096386,641386b1cb9a9c1e3569d4ee,687ed1b7e638a4cbf2f02089,6880d581a35ced1ac5fff088,,,,,,,,,,,,,,1,,,,,,,,,,,,,,,,,,,,,,,,,,,,,,,,,,,,,,,,,,,,,,,,,,,,,,,,,52,camisa,,,,,468.5818,469.8493,1,1,0.7517,,0,7,7,51,1,REAL,FAKE,,,,,,,,,,,,,,,,,
,,,,,,,,,641386b1cb9a9c1e3569d4ee,Mexican,13 or older,"no, only English or Spanish",no,2025-07-23_08h29.55.133,empathy_intonation_perc,2024.2.4,Win32,60.24096386,641386b1cb9a9c1e3569d4ee,687ed1b7e638a4cbf2f02089,6880d581a35ced1ac5fff088,,,,,,,,,,,,,,0,,,,,,,,,,,,,,,,,,,,,,,,,,,,,,,,,,,,,,,,,,,,,,,,,,,,,,,,,92,click the 0 key.,,,,,469.8502,470.6985,1,0,0.317,,0,8,8,91,1,REAL,FAKE,,,,,,,,,,,,,,,,,
,,,,,,,,,641386b1cb9a9c1e3569d4ee,Mexican,13 or older,"no, only English or Spanish",no,2025-07-23_08h29.55.133,empathy_intonation_perc,2024.2.4,Win32,60.24096386,641386b1cb9a9c1e3569d4ee,687ed1b7e638a4cbf2f02089,6880d581a35ced1ac5fff088,,,,,,,,,,,,,,1,,,,,,,,,,,,,,,,,,,,,,,,,,,,,,,,,,,,,,,,,,,,,,,,,,,,,,,,,3,pulmones,,,,,470.699,472.2662,1,1,1.0338,,0,9,9,2,1,REAL,FAKE,,,,,,,,,,,,,,,,,
,,,,,,,,,641386b1cb9a9c1e3569d4ee,Mexican,13 or older,"no, only English or Spanish",no,2025-07-23_08h29.55.133,empathy_intonation_perc,2024.2.4,Win32,60.24096386,641386b1cb9a9c1e3569d4ee,687ed1b7e638a4cbf2f02089,6880d581a35ced1ac5fff088,,,,,,,,,,,,,,1,,,,,,,,,,,,,,,,,,,,,,,,,,,,,,,,,,,,,,,,,,,,,,,,,,,,,,,,,25,bisagra,,,,,472.2671,473.2657,1,1,0.4492,,0,10,10,24,1,REAL,FAKE,,,,,,,,,,,,,,,,,
,,,,,,,,,641386b1cb9a9c1e3569d4ee,Mexican,13 or older,"no, only English or Spanish",no,2025-07-23_08h29.55.133,empathy_intonation_perc,2024.2.4,Win32,60.24096386,641386b1cb9a9c1e3569d4ee,687ed1b7e638a4cbf2f02089,6880d581a35ced1ac5fff088,,,,,,,,,,,,,,1,,,,,,,,,,,,,,,,,,,,,,,,,,,,,,,,,,,,,,,,,,,,,,,,,,,,,,,,,44,cuchara,,,,,473.2663,474.4147,1,1,0.616,,0,11,11,43,1,REAL,FAKE,,,,,,,,,,,,,,,,,
,,,,,,,,,641386b1cb9a9c1e3569d4ee,Mexican,13 or older,"no, only English or Spanish",no,2025-07-23_08h29.55.133,empathy_intonation_perc,2024.2.4,Win32,60.24096386,641386b1cb9a9c1e3569d4ee,687ed1b7e638a4cbf2f02089,6880d581a35ced1ac5fff088,,,,,,,,,,,,,,1,,,,,,,,,,,,,,,,,,,,,,,,,,,,,,,,,,,,,,,,,,,,,,,,,,,,,,,,,59,besar,,,,,474.4153,475.4658,1,1,0.518,,0,12,12,58,1,REAL,FAKE,,,,,,,,,,,,,,,,,
,,,,,,,,,641386b1cb9a9c1e3569d4ee,Mexican,13 or older,"no, only English or Spanish",no,2025-07-23_08h29.55.133,empathy_intonation_perc,2024.2.4,Win32,60.24096386,641386b1cb9a9c1e3569d4ee,687ed1b7e638a4cbf2f02089,6880d581a35ced1ac5fff088,,,,,,,,,,,,,,1,,,,,,,,,,,,,,,,,,,,,,,,,,,,,,,,,,,,,,,,,,,,,,,,,,,,,,,,,89,prisa,,,,,475.4672,476.6153,0,0,0.6172,,0,13,13,88,1,REAL,FAKE,,,,,,,,,,,,,,,,,
,,,,,,,,,641386b1cb9a9c1e3569d4ee,Mexican,13 or older,"no, only English or Spanish",no,2025-07-23_08h29.55.133,empathy_intonation_perc,2024.2.4,Win32,60.24096386,641386b1cb9a9c1e3569d4ee,687ed1b7e638a4cbf2f02089,6880d581a35ced1ac5fff088,,,,,,,,,,,,,,1,,,,,,,,,,,,,,,,,,,,,,,,,,,,,,,,,,,,,,,,,,,,,,,,,,,,,,,,,40,alfombra,,,,,476.6161,477.6819,0,0,0.5335,,0,14,14,39,1,REAL,FAKE,,,,,,,,,,,,,,,,,
,,,,,,,,,641386b1cb9a9c1e3569d4ee,Mexican,13 or older,"no, only English or Spanish",no,2025-07-23_08h29.55.133,empathy_intonation_perc,2024.2.4,Win32,60.24096386,641386b1cb9a9c1e3569d4ee,687ed1b7e638a4cbf2f02089,6880d581a35ced1ac5fff088,,,,,,,,,,,,,,1,,,,,,,,,,,,,,,,,,,,,,,,,,,,,,,,,,,,,,,,,,,,,,,,,,,,,,,,,2,pellizcar,,,,,477.6827,478.6663,0,0,0.4513,,0,15,15,1,1,REAL,FAKE,,,,,,,,,,,,,,,,,
,,,,,,,,,641386b1cb9a9c1e3569d4ee,Mexican,13 or older,"no, only English or Spanish",no,2025-07-23_08h29.55.133,empathy_intonation_perc,2024.2.4,Win32,60.24096386,641386b1cb9a9c1e3569d4ee,687ed1b7e638a4cbf2f02089,6880d581a35ced1ac5fff088,,,,,,,,,,,,,,1,,,,,,,,,,,,,,,,,,,,,,,,,,,,,,,,,,,,,,,,,,,,,,,,,,,,,,,,,67,cabello,,,,,478.6675,480.3323,1,1,1.1509,,0,16,16,66,1,REAL,FAKE,,,,,,,,,,,,,,,,,
,,,,,,,,,641386b1cb9a9c1e3569d4ee,Mexican,13 or older,"no, only English or Spanish",no,2025-07-23_08h29.55.133,empathy_intonation_perc,2024.2.4,Win32,60.24096386,641386b1cb9a9c1e3569d4ee,687ed1b7e638a4cbf2f02089,6880d581a35ced1ac5fff088,,,,,,,,,,,,,,1,,,,,,,,,,,,,,,,,,,,,,,,,,,,,,,,,,,,,,,,,,,,,,,,,,,,,,,,,61,seda,,,,,480.3329,481.2974,1,1,0.4329,,0,17,17,60,1,REAL,FAKE,,,,,,,,,,,,,,,,,
,,,,,,,,,641386b1cb9a9c1e3569d4ee,Mexican,13 or older,"no, only English or Spanish",no,2025-07-23_08h29.55.133,empathy_intonation_perc,2024.2.4,Win32,60.24096386,641386b1cb9a9c1e3569d4ee,687ed1b7e638a4cbf2f02089,6880d581a35ced1ac5fff088,,,,,,,,,,,,,,1,,,,,,,,,,,,,,,,,,,,,,,,,,,,,,,,,,,,,,,,,,,,,,,,,,,,,,,,,73,hervidor,,,,,481.2979,482.332,1,1,0.5176,,0,18,18,72,1,REAL,FAKE,,,,,,,,,,,,,,,,,
,,,,,,,,,641386b1cb9a9c1e3569d4ee,Mexican,13 or older,"no, only English or Spanish",no,2025-07-23_08h29.55.133,empathy_intonation_perc,2024.2.4,Win32,60.24096386,641386b1cb9a9c1e3569d4ee,687ed1b7e638a4cbf2f02089,6880d581a35ced1ac5fff088,,,,,,,,,,,,,,1,,,,,,,,,,,,,,,,,,,,,,,,,,,,,,,,,,,,,,,,,,,,,,,,,,,,,,,,,43,canela,,,,,482.3325,483.5154,1,1,0.6508,,0,19,19,42,1,REAL,FAKE,,,,,,,,,,,,,,,,,
,,,,,,,,,641386b1cb9a9c1e3569d4ee,Mexican,13 or older,"no, only English or Spanish",no,2025-07-23_08h29.55.133,empathy_intonation_perc,2024.2.4,Win32,60.24096386,641386b1cb9a9c1e3569d4ee,687ed1b7e638a4cbf2f02089,6880d581a35ced1ac5fff088,,,,,,,,,,,,,,1,,,,,,,,,,,,,,,,,,,,,,,,,,,,,,,,,,,,,,,,,,,,,,,,,,,,,,,,,36,loro,,,,,483.5161,484.698,0,0,0.6504,,0,20,20,35,1,REAL,FAKE,,,,,,,,,,,,,,,,,
,,,,,,,,,641386b1cb9a9c1e3569d4ee,Mexican,13 or older,"no, only English or Spanish",no,2025-07-23_08h29.55.133,empathy_intonation_perc,2024.2.4,Win32,60.24096386,641386b1cb9a9c1e3569d4ee,687ed1b7e638a4cbf2f02089,6880d581a35ced1ac5fff088,,,,,,,,,,,,,,0,,,,,,,,,,,,,,,,,,,,,,,,,,,,,,,,,,,,,,,,,,,,,,,,,,,,,,,,,32,fatacidad,,,,,484.6984,485.7488,0,1,0.4996,,0,21,21,31,1,REAL,FAKE,,,,,,,,,,,,,,,,,
,,,,,,,,,641386b1cb9a9c1e3569d4ee,Mexican,13 or older,"no, only English or Spanish",no,2025-07-23_08h29.55.133,empathy_intonation_perc,2024.2.4,Win32,60.24096386,641386b1cb9a9c1e3569d4ee,687ed1b7e638a4cbf2f02089,6880d581a35ced1ac5fff088,,,,,,,,,,,,,,0,,,,,,,,,,,,,,,,,,,,,,,,,,,,,,,,,,,,,,,,,,,,,,,,,,,,,,,,,87,grodo,,,,,485.7495,486.7985,0,1,0.5335,,0,22,22,86,1,REAL,FAKE,,,,,,,,,,,,,,,,,
,,,,,,,,,641386b1cb9a9c1e3569d4ee,Mexican,13 or older,"no, only English or Spanish",no,2025-07-23_08h29.55.133,empathy_intonation_perc,2024.2.4,Win32,60.24096386,641386b1cb9a9c1e3569d4ee,687ed1b7e638a4cbf2f02089,6880d581a35ced1ac5fff088,,,,,,,,,,,,,,1,,,,,,,,,,,,,,,,,,,,,,,,,,,,,,,,,,,,,,,,,,,,,,,,,,,,,,,,,57,tacaño,,,,,486.7995,487.8335,0,0,0.5174,,0,23,23,56,1,REAL,FAKE,,,,,,,,,,,,,,,,,
,,,,,,,,,641386b1cb9a9c1e3569d4ee,Mexican,13 or older,"no, only English or Spanish",no,2025-07-23_08h29.55.133,empathy_intonation_perc,2024.2.4,Win32,60.24096386,641386b1cb9a9c1e3569d4ee,687ed1b7e638a4cbf2f02089,6880d581a35ced1ac5fff088,,,,,,,,,,,,,,0,,,,,,,,,,,,,,,,,,,,,,,,,,,,,,,,,,,,,,,,,,,,,,,,,,,,,,,,,10,antar,,,,,487.8342,488.915,0,1,0.5501,,0,24,24,9,1,REAL,FAKE,,,,,,,,,,,,,,,,,
,,,,,,,,,641386b1cb9a9c1e3569d4ee,Mexican,13 or older,"no, only English or Spanish",no,2025-07-23_08h29.55.133,empathy_intonation_perc,2024.2.4,Win32,60.24096386,641386b1cb9a9c1e3569d4ee,687ed1b7e638a4cbf2f02089,6880d581a35ced1ac5fff088,,,,,,,,,,,,,,1,,,,,,,,,,,,,,,,,,,,,,,,,,,,,,,,,,,,,,,,,,,,,,,,,,,,,,,,,28,merodear,,,,,488.9156,489.9484,0,0,0.5171,,0,25,25,27,1,REAL,FAKE,,,,,,,,,,,,,,,,,
,,,,,,,,,641386b1cb9a9c1e3569d4ee,Mexican,13 or older,"no, only English or Spanish",no,2025-07-23_08h29.55.133,empathy_intonation_perc,2024.2.4,Win32,60.24096386,641386b1cb9a9c1e3569d4ee,687ed1b7e638a4cbf2f02089,6880d581a35ced1ac5fff088,,,,,,,,,,,,,,1,,,,,,,,,,,,,,,,,,,,,,,,,,,,,,,,,,,,,,,,,,,,,,,,,,,,,,,,,31,pandilla,,,,,489.9492,491.3167,0,0,0.8341,,0,26,26,30,1,REAL,FAKE,,,,,,,,,,,,,,,,,
,,,,,,,,,641386b1cb9a9c1e3569d4ee,Mexican,13 or older,"no, only English or Spanish",no,2025-07-23_08h29.55.133,empathy_intonation_perc,2024.2.4,Win32,60.24096386,641386b1cb9a9c1e3569d4ee,687ed1b7e638a4cbf2f02089,6880d581a35ced1ac5fff088,,,,,,,,,,,,,,1,,,,,,,,,,,,,,,,,,,,,,,,,,,,,,,,,,,,,,,,,,,,,,,,,,,,,,,,,78,frondoso,,,,,491.3177,492.3823,0,0,0.534,,0,27,27,77,1,REAL,FAKE,,,,,,,,,,,,,,,,,
,,,,,,,,,641386b1cb9a9c1e3569d4ee,Mexican,13 or older,"no, only English or Spanish",no,2025-07-23_08h29.55.133,empathy_intonation_perc,2024.2.4,Win32,60.24096386,641386b1cb9a9c1e3569d4ee,687ed1b7e638a4cbf2f02089,6880d581a35ced1ac5fff088,,,,,,,,,,,,,,0,,,,,,,,,,,,,,,,,,,,,,,,,,,,,,,,,,,,,,,,,,,,,,,,,,,,,,,,,82,empirador,,,,,492.3831,493.4492,0,1,0.5345,,0,28,28,81,1,REAL,FAKE,,,,,,,,,,,,,,,,,
,,,,,,,,,641386b1cb9a9c1e3569d4ee,Mexican,13 or older,"no, only English or Spanish",no,2025-07-23_08h29.55.133,empathy_intonation_perc,2024.2.4,Win32,60.24096386,641386b1cb9a9c1e3569d4ee,687ed1b7e638a4cbf2f02089,6880d581a35ced1ac5fff088,,,,,,,,,,,,,,0,,,,,,,,,,,,,,,,,,,,,,,,,,,,,,,,,,,,,,,,,,,,,,,,,,,,,,,,,4,batillón,,,,,493.4507,494.3652,1,0,0.3838,,0,29,29,3,1,REAL,FAKE,,,,,,,,,,,,,,,,,
,,,,,,,,,641386b1cb9a9c1e3569d4ee,Mexican,13 or older,"no, only English or Spanish",no,2025-07-23_08h29.55.133,empathy_intonation_perc,2024.2.4,Win32,60.24096386,641386b1cb9a9c1e3569d4ee,687ed1b7e638a4cbf2f02089,6880d581a35ced1ac5fff088,,,,,,,,,,,,,,1,,,,,,,,,,,,,,,,,,,,,,,,,,,,,,,,,,,,,,,,,,,,,,,,,,,,,,,,,38,estornudar,,,,,494.3657,495.7317,1,1,0.8336,,0,30,30,37,1,REAL,FAKE,,,,,,,,,,,,,,,,,
,,,,,,,,,641386b1cb9a9c1e3569d4ee,Mexican,13 or older,"no, only English or Spanish",no,2025-07-23_08h29.55.133,empathy_intonation_perc,2024.2.4,Win32,60.24096386,641386b1cb9a9c1e3569d4ee,687ed1b7e638a4cbf2f02089,6880d581a35ced1ac5fff088,,,,,,,,,,,,,,0,,,,,,,,,,,,,,,,,,,,,,,,,,,,,,,,,,,,,,,,,,,,,,,,,,,,,,,,,1,terzo,,,,,495.7323,497.3168,1,0,1.0504,,0,31,31,0,1,REAL,FAKE,,,,,,,,,,,,,,,,,
,,,,,,,,,641386b1cb9a9c1e3569d4ee,Mexican,13 or older,"no, only English or Spanish",no,2025-07-23_08h29.55.133,empathy_intonation_perc,2024.2.4,Win32,60.24096386,641386b1cb9a9c1e3569d4ee,687ed1b7e638a4cbf2f02089,6880d581a35ced1ac5fff088,,,,,,,,,,,,,,1,,,,,,,,,,,,,,,,,,,,,,,,,,,,,,,,,,,,,,,,,,,,,,,,,,,,,,,,,14,yunque,,,,,497.3177,498.3475,1,1,0.4972,,0,32,32,13,1,REAL,FAKE,,,,,,,,,,,,,,,,,
,,,,,,,,,641386b1cb9a9c1e3569d4ee,Mexican,13 or older,"no, only English or Spanish",no,2025-07-23_08h29.55.133,empathy_intonation_perc,2024.2.4,Win32,60.24096386,641386b1cb9a9c1e3569d4ee,687ed1b7e638a4cbf2f02089,6880d581a35ced1ac5fff088,,,,,,,,,,,,,,1,,,,,,,,,,,,,,,,,,,,,,,,,,,,,,,,,,,,,,,,,,,,,,,,,,,,,,,,,39,torpe,,,,,498.3483,499.3117,0,0,0.4238,,0,33,33,38,1,REAL,FAKE,,,,,,,,,,,,,,,,,
,,,,,,,,,641386b1cb9a9c1e3569d4ee,Mexican,13 or older,"no, only English or Spanish",no,2025-07-23_08h29.55.133,empathy_intonation_perc,2024.2.4,Win32,60.24096386,641386b1cb9a9c1e3569d4ee,687ed1b7e638a4cbf2f02089,6880d581a35ced1ac5fff088,,,,,,,,,,,,,,1,,,,,,,,,,,,,,,,,,,,,,,,,,,,,,,,,,,,,,,,,,,,,,,,,,,,,,,,,22,lacayo,,,,,499.3124,500.8433,0,0,0.9938,,0,34,34,21,1,REAL,FAKE,,,,,,,,,,,,,,,,,
,,,,,,,,,641386b1cb9a9c1e3569d4ee,Mexican,13 or older,"no, only English or Spanish",no,2025-07-23_08h29.55.133,empathy_intonation_perc,2024.2.4,Win32,60.24096386,641386b1cb9a9c1e3569d4ee,687ed1b7e638a4cbf2f02089,6880d581a35ced1ac5fff088,,,,,,,,,,,,,,1,,,,,,,,,,,,,,,,,,,,,,,,,,,,,,,,,,,,,,,,,,,,,,,,,,,,,,,,,90,clavel,,,,,500.8446,501.771,0,0,0.3881,,0,35,35,89,1,REAL,FAKE,,,,,,,,,,,,,,,,,
,,,,,,,,,641386b1cb9a9c1e3569d4ee,Mexican,13 or older,"no, only English or Spanish",no,2025-07-23_08h29.55.133,empathy_intonation_perc,2024.2.4,Win32,60.24096386,641386b1cb9a9c1e3569d4ee,687ed1b7e638a4cbf2f02089,6880d581a35ced1ac5fff088,,,,,,,,,,,,,,1,,,,,,,,,,,,,,,,,,,,,,,,,,,,,,,,,,,,,,,,,,,,,,,,,,,,,,,,,46,martillo,,,,,501.7715,503.3335,1,1,1.0168,,0,36,36,45,1,REAL,FAKE,,,,,,,,,,,,,,,,,
,,,,,,,,,641386b1cb9a9c1e3569d4ee,Mexican,13 or older,"no, only English or Spanish",no,2025-07-23_08h29.55.133,empathy_intonation_perc,2024.2.4,Win32,60.24096386,641386b1cb9a9c1e3569d4ee,687ed1b7e638a4cbf2f02089,6880d581a35ced1ac5fff088,,,,,,,,,,,,,,0,,,,,,,,,,,,,,,,,,,,,,,,,,,,,,,,,,,,,,,,,,,,,,,,,,,,,,,,,35,rompido,,,,,503.335,505.1154,1,0,1.2504,,0,37,37,34,1,REAL,FAKE,,,,,,,,,,,,,,,,,
,,,,,,,,,641386b1cb9a9c1e3569d4ee,Mexican,13 or older,"no, only English or Spanish",no,2025-07-23_08h29.55.133,empathy_intonation_perc,2024.2.4,Win32,60.24096386,641386b1cb9a9c1e3569d4ee,687ed1b7e638a4cbf2f02089,6880d581a35ced1ac5fff088,,,,,,,,,,,,,,1,,,,,,,,,,,,,,,,,,,,,,,,,,,,,,,,,,,,,,,,,,,,,,,,,,,,,,,,,34,aviso,,,,,505.1161,506.6253,1,1,0.9686,,0,38,38,33,1,REAL,FAKE,,,,,,,,,,,,,,,,,
,,,,,,,,,641386b1cb9a9c1e3569d4ee,Mexican,13 or older,"no, only English or Spanish",no,2025-07-23_08h29.55.133,empathy_intonation_perc,2024.2.4,Win32,60.24096386,641386b1cb9a9c1e3569d4ee,687ed1b7e638a4cbf2f02089,6880d581a35ced1ac5fff088,,,,,,,,,,,,,,1,,,,,,,,,,,,,,,,,,,,,,,,,,,,,,,,,,,,,,,,,,,,,,,,,,,,,,,,,51,candado,,,,,506.6273,509.8329,1,1,2.6672,,0,39,39,50,1,REAL,FAKE,,,,,,,,,,,,,,,,,
,,,,,,,,,641386b1cb9a9c1e3569d4ee,Mexican,13 or older,"no, only English or Spanish",no,2025-07-23_08h29.55.133,empathy_intonation_perc,2024.2.4,Win32,60.24096386,641386b1cb9a9c1e3569d4ee,687ed1b7e638a4cbf2f02089,6880d581a35ced1ac5fff088,,,,,,,,,,,,,,0,,,,,,,,,,,,,,,,,,,,,,,,,,,,,,,,,,,,,,,,,,,,,,,,,,,,,,,,,18,arsa,,,,,509.8336,510.9486,1,0,0.583,,0,40,40,17,1,REAL,FAKE,,,,,,,,,,,,,,,,,
,,,,,,,,,641386b1cb9a9c1e3569d4ee,Mexican,13 or older,"no, only English or Spanish",no,2025-07-23_08h29.55.133,empathy_intonation_perc,2024.2.4,Win32,60.24096386,641386b1cb9a9c1e3569d4ee,687ed1b7e638a4cbf2f02089,6880d581a35ced1ac5fff088,,,,,,,,,,,,,,1,,,,,,,,,,,,,,,,,,,,,,,,,,,,,,,,,,,,,,,,,,,,,,,,,,,,,,,,,48,ladrón,,,,,510.9493,511.8665,1,1,0.4013,,0,41,41,47,1,REAL,FAKE,,,,,,,,,,,,,,,,,
,,,,,,,,,641386b1cb9a9c1e3569d4ee,Mexican,13 or older,"no, only English or Spanish",no,2025-07-23_08h29.55.133,empathy_intonation_perc,2024.2.4,Win32,60.24096386,641386b1cb9a9c1e3569d4ee,687ed1b7e638a4cbf2f02089,6880d581a35ced1ac5fff088,,,,,,,,,,,,,,0,,,,,,,,,,,,,,,,,,,,,,,,,,,,,,,,,,,,,,,,,,,,,,,,,,,,,,,,,63,esposante,,,,,511.8683,513.1984,1,0,0.8005,,0,42,42,62,1,REAL,FAKE,,,,,,,,,,,,,,,,,
,,,,,,,,,641386b1cb9a9c1e3569d4ee,Mexican,13 or older,"no, only English or Spanish",no,2025-07-23_08h29.55.133,empathy_intonation_perc,2024.2.4,Win32,60.24096386,641386b1cb9a9c1e3569d4ee,687ed1b7e638a4cbf2f02089,6880d581a35ced1ac5fff088,,,,,,,,,,,,,,0,,,,,,,,,,,,,,,,,,,,,,,,,,,,,,,,,,,,,,,,,,,,,,,,,,,,,,,,,53,vegada,,,,,513.1991,514.1989,0,1,0.4672,,0,43,43,52,1,REAL,FAKE,,,,,,,,,,,,,,,,,
,,,,,,,,,641386b1cb9a9c1e3569d4ee,Mexican,13 or older,"no, only English or Spanish",no,2025-07-23_08h29.55.133,empathy_intonation_perc,2024.2.4,Win32,60.24096386,641386b1cb9a9c1e3569d4ee,687ed1b7e638a4cbf2f02089,6880d581a35ced1ac5fff088,,,,,,,,,,,,,,1,,,,,,,,,,,,,,,,,,,,,,,,,,,,,,,,,,,,,,,,,,,,,,,,,,,,,,,,,60,matar,,,,,514.1995,515.7169,0,0,0.9835,,0,44,44,59,1,REAL,FAKE,,,,,,,,,,,,,,,,,
,,,,,,,,,641386b1cb9a9c1e3569d4ee,Mexican,13 or older,"no, only English or Spanish",no,2025-07-23_08h29.55.133,empathy_intonation_perc,2024.2.4,Win32,60.24096386,641386b1cb9a9c1e3569d4ee,687ed1b7e638a4cbf2f02089,6880d581a35ced1ac5fff088,,,,,,,,,,,,,,0,,,,,,,,,,,,,,,,,,,,,,,,,,,,,,,,,,,,,,,,,,,,,,,,,,,,,,,,,19,brecedad,,,,,515.718,516.7469,1,0,0.4971,,0,45,45,18,1,REAL,FAKE,,,,,,,,,,,,,,,,,
,,,,,,,,,641386b1cb9a9c1e3569d4ee,Mexican,13 or older,"no, only English or Spanish",no,2025-07-23_08h29.55.133,empathy_intonation_perc,2024.2.4,Win32,60.24096386,641386b1cb9a9c1e3569d4ee,687ed1b7e638a4cbf2f02089,6880d581a35ced1ac5fff088,,,,,,,,,,,,,,1,,,,,,,,,,,,,,,,,,,,,,,,,,,,,,,,,,,,,,,,,,,,,,,,,,,,,,,,,83,guante,,,,,516.7478,517.9494,1,1,0.6676,,0,46,46,82,1,REAL,FAKE,,,,,,,,,,,,,,,,,
,,,,,,,,,641386b1cb9a9c1e3569d4ee,Mexican,13 or older,"no, only English or Spanish",no,2025-07-23_08h29.55.133,empathy_intonation_perc,2024.2.4,Win32,60.24096386,641386b1cb9a9c1e3569d4ee,687ed1b7e638a4cbf2f02089,6880d581a35ced1ac5fff088,,,,,,,,,,,,,,0,,,,,,,,,,,,,,,,,,,,,,,,,,,,,,,,,,,,,,,,,,,,,,,,,,,,,,,,,84,escuto,,,,,517.9504,518.9481,1,0,0.4653,,0,47,47,83,1,REAL,FAKE,,,,,,,,,,,,,,,,,
,,,,,,,,,641386b1cb9a9c1e3569d4ee,Mexican,13 or older,"no, only English or Spanish",no,2025-07-23_08h29.55.133,empathy_intonation_perc,2024.2.4,Win32,60.24096386,641386b1cb9a9c1e3569d4ee,687ed1b7e638a4cbf2f02089,6880d581a35ced1ac5fff088,,,,,,,,,,,,,,1,,,,,,,,,,,,,,,,,,,,,,,,,,,,,,,,,,,,,,,,,,,,,,,,,,,,,,,,,77,tiburón,,,,,518.949,520.1148,1,1,0.6322,,0,48,48,76,1,REAL,FAKE,,,,,,,,,,,,,,,,,
,,,,,,,,,641386b1cb9a9c1e3569d4ee,Mexican,13 or older,"no, only English or Spanish",no,2025-07-23_08h29.55.133,empathy_intonation_perc,2024.2.4,Win32,60.24096386,641386b1cb9a9c1e3569d4ee,687ed1b7e638a4cbf2f02089,6880d581a35ced1ac5fff088,,,,,,,,,,,,,,1,,,,,,,,,,,,,,,,,,,,,,,,,,,,,,,,,,,,,,,,,,,,,,,,,,,,,,,,,45,jilguero,,,,,520.1153,521.148,1,1,0.4982,,0,49,49,44,1,REAL,FAKE,,,,,,,,,,,,,,,,,
,,,,,,,,,641386b1cb9a9c1e3569d4ee,Mexican,13 or older,"no, only English or Spanish",no,2025-07-23_08h29.55.133,empathy_intonation_perc,2024.2.4,Win32,60.24096386,641386b1cb9a9c1e3569d4ee,687ed1b7e638a4cbf2f02089,6880d581a35ced1ac5fff088,,,,,,,,,,,,,,1,,,,,,,,,,,,,,,,,,,,,,,,,,,,,,,,,,,,,,,,,,,,,,,,,,,,,,,,,5,zapato,,,,,521.1488,522.4322,0,0,0.7495,,0,50,50,4,1,REAL,FAKE,,,,,,,,,,,,,,,,,
,,,,,,,,,641386b1cb9a9c1e3569d4ee,Mexican,13 or older,"no, only English or Spanish",no,2025-07-23_08h29.55.133,empathy_intonation_perc,2024.2.4,Win32,60.24096386,641386b1cb9a9c1e3569d4ee,687ed1b7e638a4cbf2f02089,6880d581a35ced1ac5fff088,,,,,,,,,,,,,,1,,,,,,,,,,,,,,,,,,,,,,,,,,,,,,,,,,,,,,,,,,,,,,,,,,,,,,,,,76,atar,,,,,522.4331,523.7146,1,1,0.7499,,0,51,51,75,1,REAL,FAKE,,,,,,,,,,,,,,,,,
,,,,,,,,,641386b1cb9a9c1e3569d4ee,Mexican,13 or older,"no, only English or Spanish",no,2025-07-23_08h29.55.133,empathy_intonation_perc,2024.2.4,Win32,60.24096386,641386b1cb9a9c1e3569d4ee,687ed1b7e638a4cbf2f02089,6880d581a35ced1ac5fff088,,,,,,,,,,,,,,0,,,,,,,,,,,,,,,,,,,,,,,,,,,,,,,,,,,,,,,,,,,,,,,,,,,,,,,,,27,acutación,,,,,523.7154,525.3649,1,0,1.1335,,0,52,52,26,1,REAL,FAKE,,,,,,,,,,,,,,,,,
,,,,,,,,,641386b1cb9a9c1e3569d4ee,Mexican,13 or older,"no, only English or Spanish",no,2025-07-23_08h29.55.133,empathy_intonation_perc,2024.2.4,Win32,60.24096386,641386b1cb9a9c1e3569d4ee,687ed1b7e638a4cbf2f02089,6880d581a35ced1ac5fff088,,,,,,,,,,,,,,1,,,,,,,,,,,,,,,,,,,,,,,,,,,,,,,,,,,,,,,,,,,,,,,,,,,,,,,,,75,yacer,,,,,525.3655,526.5311,1,1,0.633,,0,53,53,74,1,REAL,FAKE,,,,,,,,,,,,,,,,,
,,,,,,,,,641386b1cb9a9c1e3569d4ee,Mexican,13 or older,"no, only English or Spanish",no,2025-07-23_08h29.55.133,empathy_intonation_perc,2024.2.4,Win32,60.24096386,641386b1cb9a9c1e3569d4ee,687ed1b7e638a4cbf2f02089,6880d581a35ced1ac5fff088,,,,,,,,,,,,,,1,,,,,,,,,,,,,,,,,,,,,,,,,,,,,,,,,,,,,,,,,,,,,,,,,,,,,,,,,11,cenefa,,,,,526.5318,527.6981,1,1,0.6499,,0,54,54,10,1,REAL,FAKE,,,,,,,,,,,,,,,,,
,,,,,,,,,641386b1cb9a9c1e3569d4ee,Mexican,13 or older,"no, only English or Spanish",no,2025-07-23_08h29.55.133,empathy_intonation_perc,2024.2.4,Win32,60.24096386,641386b1cb9a9c1e3569d4ee,687ed1b7e638a4cbf2f02089,6880d581a35ced1ac5fff088,,,,,,,,,,,,,,0,,,,,,,,,,,,,,,,,,,,,,,,,,,,,,,,,,,,,,,,,,,,,,,,,,,,,,,,,30,alardio,,,,,527.6986,528.848,0,1,0.6332,,0,55,55,29,1,REAL,FAKE,,,,,,,,,,,,,,,,,
,,,,,,,,,641386b1cb9a9c1e3569d4ee,Mexican,13 or older,"no, only English or Spanish",no,2025-07-23_08h29.55.133,empathy_intonation_perc,2024.2.4,Win32,60.24096386,641386b1cb9a9c1e3569d4ee,687ed1b7e638a4cbf2f02089,6880d581a35ced1ac5fff088,,,,,,,,,,,,,,1,,,,,,,,,,,,,,,,,,,,,,,,,,,,,,,,,,,,,,,,,,,,,,,,,,,,,,,,,64,orgulloso,,,,,528.8487,530.0815,0,0,0.7002,,0,56,56,63,1,REAL,FAKE,,,,,,,,,,,,,,,,,
,,,,,,,,,641386b1cb9a9c1e3569d4ee,Mexican,13 or older,"no, only English or Spanish",no,2025-07-23_08h29.55.133,empathy_intonation_perc,2024.2.4,Win32,60.24096386,641386b1cb9a9c1e3569d4ee,687ed1b7e638a4cbf2f02089,6880d581a35ced1ac5fff088,,,,,,,,,,,,,,1,,,,,,,,,,,,,,,,,,,,,,,,,,,,,,,,,,,,,,,,,,,,,,,,,,,,,,,,,71,polvoriento,,,,,530.0821,531.4493,1,1,0.8512,,0,57,57,70,1,REAL,FAKE,,,,,,,,,,,,,,,,,
,,,,,,,,,641386b1cb9a9c1e3569d4ee,Mexican,13 or older,"no, only English or Spanish",no,2025-07-23_08h29.55.133,empathy_intonation_perc,2024.2.4,Win32,60.24096386,641386b1cb9a9c1e3569d4ee,687ed1b7e638a4cbf2f02089,6880d581a35ced1ac5fff088,,,,,,,,,,,,,,1,,,,,,,,,,,,,,,,,,,,,,,,,,,,,,,,,,,,,,,,,,,,,,,,,,,,,,,,,37,granuja,,,,,531.4502,533.2316,1,1,1.2502,,0,58,58,36,1,REAL,FAKE,,,,,,,,,,,,,,,,,
,,,,,,,,,641386b1cb9a9c1e3569d4ee,Mexican,13 or older,"no, only English or Spanish",no,2025-07-23_08h29.55.133,empathy_intonation_perc,2024.2.4,Win32,60.24096386,641386b1cb9a9c1e3569d4ee,687ed1b7e638a4cbf2f02089,6880d581a35ced1ac5fff088,,,,,,,,,,,,,,1,,,,,,,,,,,,,,,,,,,,,,,,,,,,,,,,,,,,,,,,,,,,,,,,,,,,,,,,,26,secuestro,,,,,533.2323,534.3489,1,1,0.5687,,0,59,59,25,1,REAL,FAKE,,,,,,,,,,,,,,,,,
,,,,,,,,,641386b1cb9a9c1e3569d4ee,Mexican,13 or older,"no, only English or Spanish",no,2025-07-23_08h29.55.133,empathy_intonation_perc,2024.2.4,Win32,60.24096386,641386b1cb9a9c1e3569d4ee,687ed1b7e638a4cbf2f02089,6880d581a35ced1ac5fff088,,,,,,,,,,,,,,0,,,,,,,,,,,,,,,,,,,,,,,,,,,,,,,,,,,,,,,,,,,,,,,,,,,,,,,,,17,floroso,,,,,534.3498,535.4319,1,0,0.5498,,0,60,60,16,1,REAL,FAKE,,,,,,,,,,,,,,,,,
,,,,,,,,,641386b1cb9a9c1e3569d4ee,Mexican,13 or older,"no, only English or Spanish",no,2025-07-23_08h29.55.133,empathy_intonation_perc,2024.2.4,Win32,60.24096386,641386b1cb9a9c1e3569d4ee,687ed1b7e638a4cbf2f02089,6880d581a35ced1ac5fff088,,,,,,,,,,,,,,0,,,,,,,,,,,,,,,,,,,,,,,,,,,,,,,,,,,,,,,,,,,,,,,,,,,,,,,,,21,capillo,,,,,535.4326,536.6152,1,0,0.6494,,0,61,61,20,1,REAL,FAKE,,,,,,,,,,,,,,,,,
,,,,,,,,,641386b1cb9a9c1e3569d4ee,Mexican,13 or older,"no, only English or Spanish",no,2025-07-23_08h29.55.133,empathy_intonation_perc,2024.2.4,Win32,60.24096386,641386b1cb9a9c1e3569d4ee,687ed1b7e638a4cbf2f02089,6880d581a35ced1ac5fff088,,,,,,,,,,,,,,1,,,,,,,,,,,,,,,,,,,,,,,,,,,,,,,,,,,,,,,,,,,,,,,,,,,,,,,,,15,regar,,,,,536.6162,537.6479,0,0,0.5,,0,62,62,14,1,REAL,FAKE,,,,,,,,,,,,,,,,,
,,,,,,,,,641386b1cb9a9c1e3569d4ee,Mexican,13 or older,"no, only English or Spanish",no,2025-07-23_08h29.55.133,empathy_intonation_perc,2024.2.4,Win32,60.24096386,641386b1cb9a9c1e3569d4ee,687ed1b7e638a4cbf2f02089,6880d581a35ced1ac5fff088,,,,,,,,,,,,,,1,,,,,,,,,,,,,,,,,,,,,,,,,,,,,,,,,,,,,,,,,,,,,,,,,,,,,,,,,49,ganar,,,,,537.6484,538.7483,0,0,0.5836,,0,63,63,48,1,REAL,FAKE,,,,,,,,,,,,,,,,,
,,,,,,,,,641386b1cb9a9c1e3569d4ee,Mexican,13 or older,"no, only English or Spanish",no,2025-07-23_08h29.55.133,empathy_intonation_perc,2024.2.4,Win32,60.24096386,641386b1cb9a9c1e3569d4ee,687ed1b7e638a4cbf2f02089,6880d581a35ced1ac5fff088,,,,,,,,,,,,,,0,,,,,,,,,,,,,,,,,,,,,,,,,,,,,,,,,,,,,,,,,,,,,,,,,,,,,,,,,29,decar,,,,,538.7488,539.9824,0,1,0.7171,,0,64,64,28,1,REAL,FAKE,,,,,,,,,,,,,,,,,
,,,,,,,,,641386b1cb9a9c1e3569d4ee,Mexican,13 or older,"no, only English or Spanish",no,2025-07-23_08h29.55.133,empathy_intonation_perc,2024.2.4,Win32,60.24096386,641386b1cb9a9c1e3569d4ee,687ed1b7e638a4cbf2f02089,6880d581a35ced1ac5fff088,,,,,,,,,,,,,,0,,,,,,,,,,,,,,,,,,,,,,,,,,,,,,,,,,,,,,,,,,,,,,,,,,,,,,,,,66,hacido,,,,,539.983,541.0659,1,0,0.5677,,0,65,65,65,1,REAL,FAKE,,,,,,,,,,,,,,,,,
,,,,,,,,,641386b1cb9a9c1e3569d4ee,Mexican,13 or older,"no, only English or Spanish",no,2025-07-23_08h29.55.133,empathy_intonation_perc,2024.2.4,Win32,60.24096386,641386b1cb9a9c1e3569d4ee,687ed1b7e638a4cbf2f02089,6880d581a35ced1ac5fff088,,,,,,,,,,,,,,1,,,,,,,,,,,,,,,,,,,,,,,,,,,,,,,,,,,,,,,,,,,,,,,,,,,,,,,,,69,engatusar,,,,,541.0666,542.1489,1,1,0.55,,0,66,66,68,1,REAL,FAKE,,,,,,,,,,,,,,,,,
,,,,,,,,,641386b1cb9a9c1e3569d4ee,Mexican,13 or older,"no, only English or Spanish",no,2025-07-23_08h29.55.133,empathy_intonation_perc,2024.2.4,Win32,60.24096386,641386b1cb9a9c1e3569d4ee,687ed1b7e638a4cbf2f02089,6880d581a35ced1ac5fff088,,,,,,,,,,,,,,1,,,,,,,,,,,,,,,,,,,,,,,,,,,,,,,,,,,,,,,,,,,,,,,,,,,,,,,,,91,click the 1 key.,,,,,542.15,543.8493,1,1,1.1674,,0,67,67,90,1,REAL,FAKE,,,,,,,,,,,,,,,,,
,,,,,,,,,641386b1cb9a9c1e3569d4ee,Mexican,13 or older,"no, only English or Spanish",no,2025-07-23_08h29.55.133,empathy_intonation_perc,2024.2.4,Win32,60.24096386,641386b1cb9a9c1e3569d4ee,687ed1b7e638a4cbf2f02089,6880d581a35ced1ac5fff088,,,,,,,,,,,,,,1,,,,,,,,,,,,,,,,,,,,,,,,,,,,,,,,,,,,,,,,,,,,,,,,,,,,,,,,,13,helar,,,,,543.8502,544.8815,1,1,0.5002,,0,68,68,12,1,REAL,FAKE,,,,,,,,,,,,,,,,,
,,,,,,,,,641386b1cb9a9c1e3569d4ee,Mexican,13 or older,"no, only English or Spanish",no,2025-07-23_08h29.55.133,empathy_intonation_perc,2024.2.4,Win32,60.24096386,641386b1cb9a9c1e3569d4ee,687ed1b7e638a4cbf2f02089,6880d581a35ced1ac5fff088,,,,,,,,,,,,,,1,,,,,,,,,,,,,,,,,,,,,,,,,,,,,,,,,,,,,,,,,,,,,,,,,,,,,,,,,7,pésimo,,,,,544.8821,545.8814,1,1,0.4833,,0,69,69,6,1,REAL,FAKE,,,,,,,,,,,,,,,,,
,,,,,,,,,641386b1cb9a9c1e3569d4ee,Mexican,13 or older,"no, only English or Spanish",no,2025-07-23_08h29.55.133,empathy_intonation_perc,2024.2.4,Win32,60.24096386,641386b1cb9a9c1e3569d4ee,687ed1b7e638a4cbf2f02089,6880d581a35ced1ac5fff088,,,,,,,,,,,,,,0,,,,,,,,,,,,,,,,,,,,,,,,,,,,,,,,,,,,,,,,,,,,,,,,,,,,,,,,,79,tropaje,,,,,545.8819,546.8326,1,0,0.4171,,0,70,70,78,1,REAL,FAKE,,,,,,,,,,,,,,,,,
,,,,,,,,,641386b1cb9a9c1e3569d4ee,Mexican,13 or older,"no, only English or Spanish",no,2025-07-23_08h29.55.133,empathy_intonation_perc,2024.2.4,Win32,60.24096386,641386b1cb9a9c1e3569d4ee,687ed1b7e638a4cbf2f02089,6880d581a35ced1ac5fff088,,,,,,,,,,,,,,1,,,,,,,,,,,,,,,,,,,,,,,,,,,,,,,,,,,,,,,,,,,,,,,,,,,,,,,,,88,acantilado,,,,,546.8333,547.8323,0,0,0.4673,,0,71,71,87,1,REAL,FAKE,,,,,,,,,,,,,,,,,
,,,,,,,,,641386b1cb9a9c1e3569d4ee,Mexican,13 or older,"no, only English or Spanish",no,2025-07-23_08h29.55.133,empathy_intonation_perc,2024.2.4,Win32,60.24096386,641386b1cb9a9c1e3569d4ee,687ed1b7e638a4cbf2f02089,6880d581a35ced1ac5fff088,,,,,,,,,,,,,,1,,,,,,,,,,,,,,,,,,,,,,,,,,,,,,,,,,,,,,,,,,,,,,,,,,,,,,,,,41,rebuscar,,,,,547.8332,548.8979,0,0,0.5331,,0,72,72,40,1,REAL,FAKE,,,,,,,,,,,,,,,,,
,,,,,,,,,641386b1cb9a9c1e3569d4ee,Mexican,13 or older,"no, only English or Spanish",no,2025-07-23_08h29.55.133,empathy_intonation_perc,2024.2.4,Win32,60.24096386,641386b1cb9a9c1e3569d4ee,687ed1b7e638a4cbf2f02089,6880d581a35ced1ac5fff088,,,,,,,,,,,,,,0,,,,,,,,,,,,,,,,,,,,,,,,,,,,,,,,,,,,,,,,,,,,,,,,,,,,,,,,,74,cintro,,,,,548.8987,549.9992,0,1,0.5678,,0,73,73,73,1,REAL,FAKE,,,,,,,,,,,,,,,,,
,,,,,,,,,641386b1cb9a9c1e3569d4ee,Mexican,13 or older,"no, only English or Spanish",no,2025-07-23_08h29.55.133,empathy_intonation_perc,2024.2.4,Win32,60.24096386,641386b1cb9a9c1e3569d4ee,687ed1b7e638a4cbf2f02089,6880d581a35ced1ac5fff088,,,,,,,,,,,,,,1,,,,,,,,,,,,,,,,,,,,,,,,,,,,,,,,,,,,,,,,,,,,,,,,,,,,,,,,,9,hacha,,,,,549.9997,550.9815,1,1,0.4499,,0,74,74,8,1,REAL,FAKE,,,,,,,,,,,,,,,,,
,,,,,,,,,641386b1cb9a9c1e3569d4ee,Mexican,13 or older,"no, only English or Spanish",no,2025-07-23_08h29.55.133,empathy_intonation_perc,2024.2.4,Win32,60.24096386,641386b1cb9a9c1e3569d4ee,687ed1b7e638a4cbf2f02089,6880d581a35ced1ac5fff088,,,,,,,,,,,,,,0,,,,,,,,,,,,,,,,,,,,,,,,,,,,,,,,,,,,,,,,,,,,,,,,,,,,,,,,,50,flamida,,,,,550.982,552.0493,1,0,0.5508,,0,75,75,49,1,REAL,FAKE,,,,,,,,,,,,,,,,,
,,,,,,,,,641386b1cb9a9c1e3569d4ee,Mexican,13 or older,"no, only English or Spanish",no,2025-07-23_08h29.55.133,empathy_intonation_perc,2024.2.4,Win32,60.24096386,641386b1cb9a9c1e3569d4ee,687ed1b7e638a4cbf2f02089,6880d581a35ced1ac5fff088,,,,,,,,,,,,,,0,,,,,,,,,,,,,,,,,,,,,,,,,,,,,,,,,,,,,,,,,,,,,,,,,,,,,,,,,23,lampera,,,,,552.0499,552.949,1,0,0.3835,,0,76,76,22,1,REAL,FAKE,,,,,,,,,,,,,,,,,
,,,,,,,,,641386b1cb9a9c1e3569d4ee,Mexican,13 or older,"no, only English or Spanish",no,2025-07-23_08h29.55.133,empathy_intonation_perc,2024.2.4,Win32,60.24096386,641386b1cb9a9c1e3569d4ee,687ed1b7e638a4cbf2f02089,6880d581a35ced1ac5fff088,,,,,,,,,,,,,,0,,,,,,,,,,,,,,,,,,,,,,,,,,,,,,,,,,,,,,,,,,,,,,,,,,,,,,,,,72,pemición,,,,,552.9498,554.5148,1,0,1.0319,,0,77,77,71,1,REAL,FAKE,,,,,,,,,,,,,,,,,
,,,,,,,,,641386b1cb9a9c1e3569d4ee,Mexican,13 or older,"no, only English or Spanish",no,2025-07-23_08h29.55.133,empathy_intonation_perc,2024.2.4,Win32,60.24096386,641386b1cb9a9c1e3569d4ee,687ed1b7e638a4cbf2f02089,6880d581a35ced1ac5fff088,,,,,,,,,,,,,,0,,,,,,,,,,,,,,,,,,,,,,,,,,,,,,,,,,,,,,,,,,,,,,,,,,,,,,,,,47,cartinar,,,,,554.5155,555.5319,0,1,0.5012,,0,78,78,46,1,REAL,FAKE,,,,,,,,,,,,,,,,,
,,,,,,,,,641386b1cb9a9c1e3569d4ee,Mexican,13 or older,"no, only English or Spanish",no,2025-07-23_08h29.55.133,empathy_intonation_perc,2024.2.4,Win32,60.24096386,641386b1cb9a9c1e3569d4ee,687ed1b7e638a4cbf2f02089,6880d581a35ced1ac5fff088,,,,,,,,,,,,,,0,,,,,,,,,,,,,,,,,,,,,,,,,,,,,,,,,,,,,,,,,,,,,,,,,,,,,,,,,16,abracer,,,,,555.5326,557.1322,0,1,1.0674,,0,79,79,15,1,REAL,FAKE,,,,,,,,,,,,,,,,,
,,,,,,,,,641386b1cb9a9c1e3569d4ee,Mexican,13 or older,"no, only English or Spanish",no,2025-07-23_08h29.55.133,empathy_intonation_perc,2024.2.4,Win32,60.24096386,641386b1cb9a9c1e3569d4ee,687ed1b7e638a4cbf2f02089,6880d581a35ced1ac5fff088,,,,,,,,,,,,,,1,,,,,,,,,,,,,,,,,,,,,,,,,,,,,,,,,,,,,,,,,,,,,,,,,,,,,,,,,6,tergiversar,,,,,557.1328,558.115,0,0,0.4669,,0,80,80,5,1,REAL,FAKE,,,,,,,,,,,,,,,,,
,,,,,,,,,641386b1cb9a9c1e3569d4ee,Mexican,13 or older,"no, only English or Spanish",no,2025-07-23_08h29.55.133,empathy_intonation_perc,2024.2.4,Win32,60.24096386,641386b1cb9a9c1e3569d4ee,687ed1b7e638a4cbf2f02089,6880d581a35ced1ac5fff088,,,,,,,,,,,,,,0,,,,,,,,,,,,,,,,,,,,,,,,,,,,,,,,,,,,,,,,,,,,,,,,,,,,,,,,,8,cadeña,,,,,558.1156,559.0324,1,0,0.3719,,0,81,81,7,1,REAL,FAKE,,,,,,,,,,,,,,,,,
,,,,,,,,,641386b1cb9a9c1e3569d4ee,Mexican,13 or older,"no, only English or Spanish",no,2025-07-23_08h29.55.133,empathy_intonation_perc,2024.2.4,Win32,60.24096386,641386b1cb9a9c1e3569d4ee,687ed1b7e638a4cbf2f02089,6880d581a35ced1ac5fff088,,,,,,,,,,,,,,1,,,,,,,,,,,,,,,,,,,,,,,,,,,,,,,,,,,,,,,,,,,,,,,,,,,,,,,,,86,barato,,,,,559.0339,560.0123,1,1,0.4452,,0,82,82,85,1,REAL,FAKE,,,,,,,,,,,,,,,,,
,,,,,,,,,641386b1cb9a9c1e3569d4ee,Mexican,13 or older,"no, only English or Spanish",no,2025-07-23_08h29.55.133,empathy_intonation_perc,2024.2.4,Win32,60.24096386,641386b1cb9a9c1e3569d4ee,687ed1b7e638a4cbf2f02089,6880d581a35ced1ac5fff088,,,,,,,,,,,,,,1,,,,,,,,,,,,,,,,,,,,,,,,,,,,,,,,,,,,,,,,,,,,,,,,,,,,,,,,,56,musgo,,,,,560.0133,560.9101,1,1,0.3566,,0,83,83,55,1,REAL,FAKE,,,,,,,,,,,,,,,,,
,,,,,,,,,641386b1cb9a9c1e3569d4ee,Mexican,13 or older,"no, only English or Spanish",no,2025-07-23_08h29.55.133,empathy_intonation_perc,2024.2.4,Win32,60.24096386,641386b1cb9a9c1e3569d4ee,687ed1b7e638a4cbf2f02089,6880d581a35ced1ac5fff088,,,,,,,,,,,,,,1,,,,,,,,,,,,,,,,,,,,,,,,,,,,,,,,,,,,,,,,,,,,,,,,,,,,,,,,,68,alegre,,,,,560.9108,561.8347,0,0,0.385,,0,84,84,67,1,REAL,FAKE,,,,,,,,,,,,,,,,,
,,,,,,,,,641386b1cb9a9c1e3569d4ee,Mexican,13 or older,"no, only English or Spanish",no,2025-07-23_08h29.55.133,empathy_intonation_perc,2024.2.4,Win32,60.24096386,641386b1cb9a9c1e3569d4ee,687ed1b7e638a4cbf2f02089,6880d581a35ced1ac5fff088,,,,,,,,,,,,,,1,,,,,,,,,,,,,,,,,,,,,,,,,,,,,,,,,,,,,,,,,,,,,,,,,,,,,,,,,80,hormiga,,,,,561.8355,562.7382,0,0,0.3662,,0,85,85,79,1,REAL,FAKE,,,,,,,,,,,,,,,,,
,,,,,,,,,641386b1cb9a9c1e3569d4ee,Mexican,13 or older,"no, only English or Spanish",no,2025-07-23_08h29.55.133,empathy_intonation_perc,2024.2.4,Win32,60.24096386,641386b1cb9a9c1e3569d4ee,687ed1b7e638a4cbf2f02089,6880d581a35ced1ac5fff088,,,,,,,,,,,,,,1,,,,,,,,,,,,,,,,,,,,,,,,,,,,,,,,,,,,,,,,,,,,,,,,,,,,,,,,,85,laúd,,,,,562.7398,563.5814,1,1,0.3176,,0,86,86,84,1,REAL,FAKE,,,,,,,,,,,,,,,,,
,,,,,,,,,641386b1cb9a9c1e3569d4ee,Mexican,13 or older,"no, only English or Spanish",no,2025-07-23_08h29.55.133,empathy_intonation_perc,2024.2.4,Win32,60.24096386,641386b1cb9a9c1e3569d4ee,687ed1b7e638a4cbf2f02089,6880d581a35ced1ac5fff088,,,,,,,,,,,,,,1,,,,,,,,,,,,,,,,,,,,,,,,,,,,,,,,,,,,,,,,,,,,,,,,,,,,,,,,,24,látigo,,,,,563.5823,564.6165,1,1,0.4995,,0,87,87,23,1,REAL,FAKE,,,,,,,,,,,,,,,,,
,,,,,,,,,641386b1cb9a9c1e3569d4ee,Mexican,13 or older,"no, only English or Spanish",no,2025-07-23_08h29.55.133,empathy_intonation_perc,2024.2.4,Win32,60.24096386,641386b1cb9a9c1e3569d4ee,687ed1b7e638a4cbf2f02089,6880d581a35ced1ac5fff088,,,,,,,,,,,,,,0,,,,,,,,,,,,,,,,,,,,,,,,,,,,,,,,,,,,,,,,,,,,,,,,,,,,,,,,,42,cadallo,,,,,564.6175,566.2656,1,0,1.1163,,0,88,88,41,1,REAL,FAKE,,,,,,,,,,,,,,,,,
,,,,,,,,,641386b1cb9a9c1e3569d4ee,Mexican,13 or older,"no, only English or Spanish",no,2025-07-23_08h29.55.133,empathy_intonation_perc,2024.2.4,Win32,60.24096386,641386b1cb9a9c1e3569d4ee,687ed1b7e638a4cbf2f02089,6880d581a35ced1ac5fff088,,,,,,,,,,,,,,1,,,,,,,,,,,,,,,,,,,,,,,,,,,,,,,,,,,,,,,,,,,,,,,,,,,,,,,,,12,asesinato,,,,,566.2666,567.1827,1,1,0.3848,,0,89,89,11,1,REAL,FAKE,,,,,,,,,,,,,,,,,
,,,,,,,,,641386b1cb9a9c1e3569d4ee,Mexican,13 or older,"no, only English or Spanish",no,2025-07-23_08h29.55.133,empathy_intonation_perc,2024.2.4,Win32,60.24096386,641386b1cb9a9c1e3569d4ee,687ed1b7e638a4cbf2f02089,6880d581a35ced1ac5fff088,,,,,,,,,,,,,,0,,,,,,,,,,,,,,,,,,,,,,,,,,,,,,,,,,,,,,,,,,,,,,,,,,,,,,,,,58,plaudir,,,,,567.1834,568.1152,0,1,0.4005,,0,90,90,57,1,REAL,FAKE,,,,,,,,,,,,,,,,,
,,,,,,,,,641386b1cb9a9c1e3569d4ee,Mexican,13 or older,"no, only English or Spanish",no,2025-07-23_08h29.55.133,empathy_intonation_perc,2024.2.4,Win32,60.24096386,641386b1cb9a9c1e3569d4ee,687ed1b7e638a4cbf2f02089,6880d581a35ced1ac5fff088,,,,,,,,,,,,,,1,,,,,,,,,,,,,,,,,,,,,,,,,,,,,,,,,,,,,,,,,,,,,,,,,,,,,,,,,54,fomentar,,,,,568.1159,569.0174,0,0,0.3858,,0,91,91,53,1,REAL,FAKE,,,,,,,,,,,,,,,,,
,,,,,,,,,641386b1cb9a9c1e3569d4ee,Mexican,13 or older,"no, only English or Spanish",no,2025-07-23_08h29.55.133,empathy_intonation_perc,2024.2.4,Win32,60.24096386,641386b1cb9a9c1e3569d4ee,687ed1b7e638a4cbf2f02089,6880d581a35ced1ac5fff088,,,,,,,,,,,,,,,,,,,,,,,,,,,,,,,,,,,,,,,,,,,,,,,,,,,,,,,,,,,,,,,,,,,,,,,,,,,,,,,,,,,,,,,,,,569.018,575.833,,,,,,,,,,,,,,,
,,,,,,,,,641386b1cb9a9c1e3569d4ee,Mexican,13 or older,"no, only English or Spanish",no,2025-07-23_08h29.55.133,empathy_intonation_perc,2024.2.4,Win32,60.24096386,641386b1cb9a9c1e3569d4ee,687ed1b7e638a4cbf2f02089,6880d581a35ced1ac5fff088,,,,,,,,,,,,,1,,,,,,,,,,,,,,,,,,,,,,,,,,,,,,,,,,,,,,,,,,,,,,,,,,,,,,,,,,,,,,,,,,,,,,,,,,,,,,,575.8403,580.3235,slightly agree,0,0,0,0,1,I can easily tell if someone else wants to enter a conversation.,1,0,1,0,,
,,,,,,,,,641386b1cb9a9c1e3569d4ee,Mexican,13 or older,"no, only English or Spanish",no,2025-07-23_08h29.55.133,empathy_intonation_perc,2024.2.4,Win32,60.24096386,641386b1cb9a9c1e3569d4ee,687ed1b7e638a4cbf2f02089,6880d581a35ced1ac5fff088,,,,,,,,,,,,,2,,,,,,,,,,,,,,,,,,,,,,,,,,,,,,,,,,,,,,,,,,,,,,,,,,,,,,,,,,,,,,,,,,,,,,,,,,,,,,,580.3244,583.0498,strongly agree,0,1,1,1,1,I prefer animals to humans.,0,1,0,0,,
,,,,,,,,,641386b1cb9a9c1e3569d4ee,Mexican,13 or older,"no, only English or Spanish",no,2025-07-23_08h29.55.133,empathy_intonation_perc,2024.2.4,Win32,60.24096386,641386b1cb9a9c1e3569d4ee,687ed1b7e638a4cbf2f02089,6880d581a35ced1ac5fff088,,,,,,,,,,,,,3,,,,,,,,,,,,,,,,,,,,,,,,,,,,,,,,,,,,,,,,,,,,,,,,,,,,,,,,,,,,,,,,,,,,,,,,,,,,,,,583.0508,585.2987,strongly disagree,0,2,2,2,1,I try to keep up with the current trends and fashions.,0,1,0,0,,
,,,,,,,,,641386b1cb9a9c1e3569d4ee,Mexican,13 or older,"no, only English or Spanish",no,2025-07-23_08h29.55.133,empathy_intonation_perc,2024.2.4,Win32,60.24096386,641386b1cb9a9c1e3569d4ee,687ed1b7e638a4cbf2f02089,6880d581a35ced1ac5fff088,,,,,,,,,,,,,4,,,,,,,,,,,,,,,,,,,,,,,,,,,,,,,,,,,,,,,,,,,,,,,,,,,,,,,,,,,,,,,,,,,,,,,,,,,,,,,585.3004,590.1494,slightly agree,0,3,3,3,1,"I find it difficult to explain to others things that I understand easily,   when they don't understand it first time.",1,0,0,1,,
,,,,,,,,,641386b1cb9a9c1e3569d4ee,Mexican,13 or older,"no, only English or Spanish",no,2025-07-23_08h29.55.133,empathy_intonation_perc,2024.2.4,Win32,60.24096386,641386b1cb9a9c1e3569d4ee,687ed1b7e638a4cbf2f02089,6880d581a35ced1ac5fff088,,,,,,,,,,,,,5,,,,,,,,,,,,,,,,,,,,,,,,,,,,,,,,,,,,,,,,,,,,,,,,,,,,,,,,,,,,,,,,,,,,,,,,,,,,,,,590.1502,592.3148,slightly agree,0,4,4,4,1,I dream most nights.,0,1,0,0,,
,,,,,,,,,641386b1cb9a9c1e3569d4ee,Mexican,13 or older,"no, only English or Spanish",no,2025-07-23_08h29.55.133,empathy_intonation_perc,2024.2.4,Win32,60.24096386,641386b1cb9a9c1e3569d4ee,687ed1b7e638a4cbf2f02089,6880d581a35ced1ac5fff088,,,,,,,,,,,,,6,,,,,,,,,,,,,,,,,,,,,,,,,,,,,,,,,,,,,,,,,,,,,,,,,,,,,,,,,,,,,,,,,,,,,,,,,,,,,,,592.3156,594.3482,slightly agree,0,5,5,5,1,I really enjoy caring for other people.,1,0,1,0,,
,,,,,,,,,641386b1cb9a9c1e3569d4ee,Mexican,13 or older,"no, only English or Spanish",no,2025-07-23_08h29.55.133,empathy_intonation_perc,2024.2.4,Win32,60.24096386,641386b1cb9a9c1e3569d4ee,687ed1b7e638a4cbf2f02089,6880d581a35ced1ac5fff088,,,,,,,,,,,,,7,,,,,,,,,,,,,,,,,,,,,,,,,,,,,,,,,,,,,,,,,,,,,,,,,,,,,,,,,,,,,,,,,,,,,,,,,,,,,,,594.3493,597.8659,strongly agree,0,6,6,6,1,I try to solve my own problems rather than discussing them with others.,0,1,0,0,,
,,,,,,,,,641386b1cb9a9c1e3569d4ee,Mexican,13 or older,"no, only English or Spanish",no,2025-07-23_08h29.55.133,empathy_intonation_perc,2024.2.4,Win32,60.24096386,641386b1cb9a9c1e3569d4ee,687ed1b7e638a4cbf2f02089,6880d581a35ced1ac5fff088,,,,,,,,,,,,,8,,,,,,,,,,,,,,,,,,,,,,,,,,,,,,,,,,,,,,,,,,,,,,,,,,,,,,,,,,,,,,,,,,,,,,,,,,,,,,,597.8669,598.2488,strongly agree,0,7,7,7,1,I find it hard to know what to do in a social situation.,1,0,0,1,,
,,,,,,,,,641386b1cb9a9c1e3569d4ee,Mexican,13 or older,"no, only English or Spanish",no,2025-07-23_08h29.55.133,empathy_intonation_perc,2024.2.4,Win32,60.24096386,641386b1cb9a9c1e3569d4ee,687ed1b7e638a4cbf2f02089,6880d581a35ced1ac5fff088,,,,,,,,,,,,,9,,,,,,,,,,,,,,,,,,,,,,,,,,,,,,,,,,,,,,,,,,,,,,,,,,,,,,,,,,,,,,,,,,,,,,,,,,,,,,,598.2499,599.9144,strongly agree,0,8,8,8,1,I am at my best first thing in the morning.,0,1,0,0,,
,,,,,,,,,641386b1cb9a9c1e3569d4ee,Mexican,13 or older,"no, only English or Spanish",no,2025-07-23_08h29.55.133,empathy_intonation_perc,2024.2.4,Win32,60.24096386,641386b1cb9a9c1e3569d4ee,687ed1b7e638a4cbf2f02089,6880d581a35ced1ac5fff088,,,,,,,,,,,,,10,,,,,,,,,,,,,,,,,,,,,,,,,,,,,,,,,,,,,,,,,,,,,,,,,,,,,,,,,,,,,,,,,,,,,,,,,,,,,,,599.9155,605.4147,slightly disagree,0,9,9,9,1,People often tell me that I went too far in driving my point home in a discussion.,1,0,0,1,,
