instructions_exposure.started,instructions_exposure.stopped,instructions_exposure_loop.thisRepN,instructions_exposure_loop.thisTrialN,instructions_exposure_loop.thisN,instructions_exposure_loop.thisIndex,instructions_exposure_loop.ran,instructions_text,continue_text,participant_id,"What variety of Spanish are you most familiar with? (e.g., Peruvian, Spanish, Mexican)",At what age did you begin learning Spanish?,Are you proficient in any languages other than English/Spanish?,"Are you familiar with Caribbean (e.g., Caribbean, Puerto Rican) or Galician Spanish?",date,expName,psychopyVersion,OS,frameRate,id,study_id,session,trial_exposure.started,trial_exposure.stopped,key_resp_exposure.keys,key_resp_exposure.corr,key_resp_exposure.rt,key_resp_exposure.duration,key_resp.keys,exposure_loop.thisRepN,exposure_loop.thisTrialN,exposure_loop.thisN,exposure_loop.thisIndex,exposure_loop.ran,item_num,correct_response,question,path,duration,instructions_2afc.started,instructions_2afc.stopped,instructions_2afc_loop.thisRepN,instructions_2afc_loop.thisTrialN,instructions_2afc_loop.thisN,instructions_2afc_loop.thisIndex,instructions_2afc_loop.ran,practice_2afc.started,practice_2afc.stopped,key_resp_2afc_practice.keys,key_resp_2afc_practice.corr,key_resp_2afc_practice.rt,key_resp_2afc_practice.duration,trials_2afc_practice_loop.thisRepN,trials_2afc_practice_loop.thisTrialN,trials_2afc_practice_loop.thisN,trials_2afc_practice_loop.thisIndex,trials_2afc_practice_loop.ran,check_2afc.started,check_2afc.stopped,trial_2afc.started,trial_2afc.stopped,key_resp_2afc_trial.keys,key_resp_2afc_trial.corr,key_resp_2afc_trial.rt,key_resp_2afc_trial.duration,trials_2afc_loop.thisRepN,trials_2afc_loop.thisTrialN,trials_2afc_loop.thisN,trials_2afc_loop.thisIndex,trials_2afc_loop.ran,target,variety,instructions_lextale.started,instructions_lextale.stopped,instructions_lextale_loop.thisRepN,instructions_lextale_loop.thisTrialN,instructions_lextale_loop.thisN,instructions_lextale_loop.thisIndex,instructions_lextale_loop.ran,practice_lextale.started,practice_lextale.stopped,key_resp_lextale_practice.keys,key_resp_lextale_practice.corr,key_resp_lextale_practice.rt,key_resp_lextale_practice.duration,practice_feedback_lextale.started,practice_feedback_lextale.stopped,trials_lextale_practice_loop.thisRepN,trials_lextale_practice_loop.thisTrialN,trials_lextale_practice_loop.thisN,trials_lextale_practice_loop.thisIndex,trials_lextale_practice_loop.ran,stim,word,prac_button_real,prac_button_false,check_lextale.started,check_lextale.stopped,trial_lextale.started,trial_lextale.stopped,key_resp_lextale_trial.keys,key_resp_lextale_trial.corr,key_resp_lextale_trial.rt,key_resp_lextale_trial.duration,trials_lextale_loop.thisRepN,trials_lextale_loop.thisTrialN,trials_lextale_loop.thisN,trials_lextale_loop.thisIndex,trials_lextale_loop.ran,button_real,button_false,instructions_eq.started,instructions_eq.stopped,trial_eq.started,trial_eq.stopped,slider_eq_trial.response,trials_eq_loop.thisRepN,trials_eq_loop.thisTrialN,trials_eq_loop.thisN,trials_eq_loop.thisIndex,trials_eq_loop.ran,item,is_test_item,is_distractor,is_agree_score,is_disagree_score,end_exp.started,end_exp.stopped
0.0526,2.9077,0,0,0,0,1,"In the following task, you are going to hear a series of conversations.", (press the space bar to continue),646a74a7aadc8d532a2f34dd,spanish,13 or older,click here to respond,no,2025-07-22_20h37.50.231,empathy_intonation_perc,2024.2.4,Linux x86_64,59.88023952,646a74a7aadc8d532a2f34dd,687ed1b7e638a4cbf2f02089,68802e95754069ae6a3e6146,,,,,,,,,,,,,,,,,,,,,,,,,,,,,,,,,,,,,,,,,,,,,,,,,,,,,,,,,,,,,,,,,,,,,,,,,,,,,,,,,,,,,,,,,,,,,,,,,,,,,,,,,,
2.9084,5.3915,0,1,1,1,1,It is okay if you don't not 100% understand them!, (press the space bar to continue),646a74a7aadc8d532a2f34dd,spanish,13 or older,click here to respond,no,2025-07-22_20h37.50.231,empathy_intonation_perc,2024.2.4,Linux x86_64,59.88023952,646a74a7aadc8d532a2f34dd,687ed1b7e638a4cbf2f02089,68802e95754069ae6a3e6146,,,,,,,,,,,,,,,,,,,,,,,,,,,,,,,,,,,,,,,,,,,,,,,,,,,,,,,,,,,,,,,,,,,,,,,,,,,,,,,,,,,,,,,,,,,,,,,,,,,,,,,,,,
5.3949,7.1227,0,2,2,2,1,"After, you will read a sentence about the conversation and decide if it's true or false.", (press the space bar to continue),646a74a7aadc8d532a2f34dd,spanish,13 or older,click here to respond,no,2025-07-22_20h37.50.231,empathy_intonation_perc,2024.2.4,Linux x86_64,59.88023952,646a74a7aadc8d532a2f34dd,687ed1b7e638a4cbf2f02089,68802e95754069ae6a3e6146,,,,,,,,,,,,,,,,,,,,,,,,,,,,,,,,,,,,,,,,,,,,,,,,,,,,,,,,,,,,,,,,,,,,,,,,,,,,,,,,,,,,,,,,,,,,,,,,,,,,,,,,,,
7.1267,9.2897,0,3,3,3,1,"If it's true, press '1' (True) and if it's false press '0' (False).", (press the space bar to continue),646a74a7aadc8d532a2f34dd,spanish,13 or older,click here to respond,no,2025-07-22_20h37.50.231,empathy_intonation_perc,2024.2.4,Linux x86_64,59.88023952,646a74a7aadc8d532a2f34dd,687ed1b7e638a4cbf2f02089,68802e95754069ae6a3e6146,,,,,,,,,,,,,,,,,,,,,,,,,,,,,,,,,,,,,,,,,,,,,,,,,,,,,,,,,,,,,,,,,,,,,,,,,,,,,,,,,,,,,,,,,,,,,,,,,,,,,,,,,,
,,,,,,,,,646a74a7aadc8d532a2f34dd,spanish,13 or older,click here to respond,no,2025-07-22_20h37.50.231,empathy_intonation_perc,2024.2.4,Linux x86_64,59.88023952,646a74a7aadc8d532a2f34dd,687ed1b7e638a4cbf2f02089,68802e95754069ae6a3e6146,9.3203,84.9097,1,1,15.5345,,,0,0,0,1,1,2,1,The mom asked the daughter if she already went to the supermarket.,./stim/exposure_wavs/dr_stimuli_convo.wav,60,,,,,,,,,,,,,,,,,,,,,,,,,,,,,,,,,,,,,,,,,,,,,,,,,,,,,,,,,,,,,,,,,,,,,,,,,,,,,,,,,,,,,,,,,
,,,,,,,,,646a74a7aadc8d532a2f34dd,spanish,13 or older,click here to respond,no,2025-07-22_20h37.50.231,empathy_intonation_perc,2024.2.4,Linux x86_64,59.88023952,646a74a7aadc8d532a2f34dd,687ed1b7e638a4cbf2f02089,68802e95754069ae6a3e6146,84.9148,182.599,0,0,50.6492,,,0,1,1,0,1,1,1,The son asked the mom if Aunt Marina is okay.,./stim/exposure_wavs/ga_stimuli_convo.wav,47,,,,,,,,,,,,,,,,,,,,,,,,,,,,,,,,,,,,,,,,,,,,,,,,,,,,,,,,,,,,,,,,,,,,,,,,,,,,,,,,,,,,,,,,,
,,,,,,,,,646a74a7aadc8d532a2f34dd,spanish,13 or older,click here to respond,no,2025-07-22_20h37.50.231,empathy_intonation_perc,2024.2.4,Linux x86_64,59.88023952,646a74a7aadc8d532a2f34dd,687ed1b7e638a4cbf2f02089,68802e95754069ae6a3e6146,182.6049,223.3324,1,0,4.6857,,,0,2,2,2,1,3,0,The mom already has rice.,./stim/exposure_wavs/pr_stimuli_convo.wav,36,,,,,,,,,,,,,,,,,,,,,,,,,,,,,,,,,,,,,,,,,,,,,,,,,,,,,,,,,,,,,,,,,,,,,,,,,,,,,,,,,,,,,,,,,
,,,,,,,"In the following task you are going to hear a series of utterances. 

  You will decide if the utterances sound like questions or not using your keyboard.", (press the spacebar to continue),646a74a7aadc8d532a2f34dd,spanish,13 or older,click here to respond,no,2025-07-22_20h37.50.231,empathy_intonation_perc,2024.2.4,Linux x86_64,59.88023952,646a74a7aadc8d532a2f34dd,687ed1b7e638a4cbf2f02089,68802e95754069ae6a3e6146,,,,,,,,,,,,,,,,,,223.3385,231.8806,0,0,0,0,1,,,,,,,,,,,,,,,,,,,,,,,,,,,,,,,,,,,,,,,,,,,,,,,,,,,,,,,,,,,,,,,,,,,,,,,,,,,,,,,,,,
,,,,,,,"If you believe the utterance is a question, type '1' (for 'yes') and if you do not 
  believe it is a question type '0' (for 'no').

  Let's practice a bit...", (press the spacebar to continue),646a74a7aadc8d532a2f34dd,spanish,13 or older,click here to respond,no,2025-07-22_20h37.50.231,empathy_intonation_perc,2024.2.4,Linux x86_64,59.88023952,646a74a7aadc8d532a2f34dd,687ed1b7e638a4cbf2f02089,68802e95754069ae6a3e6146,,,,,,,,,,,,,,,,,,231.8857,237.8964,0,1,1,1,1,,,,,,,,,,,,,,,,,,,,,,,,,,,,,,,,,,,,,,,,,,,,,,,,,,,,,,,,,,,,,,,,,,,,,,,,,,,,,,,,,,
,,,,,,,,,646a74a7aadc8d532a2f34dd,spanish,13 or older,click here to respond,no,2025-07-22_20h37.50.231,empathy_intonation_perc,2024.2.4,Linux x86_64,59.88023952,646a74a7aadc8d532a2f34dd,687ed1b7e638a4cbf2f02089,68802e95754069ae6a3e6146,,,,,,,,,,,,,,1,,./stim/wavs/argentine_question_filler_Mi-vecino-habla-mucho.wav,,,,,,,,,237.9225,240.1725,1,1,1.7319,,0,0,0,1,1,,,,,,,,,,,,,,,,,,,,,,,,,,,,,,,,,,,,,,,,,,,,,,,,,,,,,,,,,,,,,,,,,,,,,,,
,,,,,,,,,646a74a7aadc8d532a2f34dd,spanish,13 or older,click here to respond,no,2025-07-22_20h37.50.231,empathy_intonation_perc,2024.2.4,Linux x86_64,59.88023952,646a74a7aadc8d532a2f34dd,687ed1b7e638a4cbf2f02089,68802e95754069ae6a3e6146,,,,,,,,,,,,,,1,,./stim/wavs/castilian_question_filler_Mi-esposo-conoce-al-chico.wav,,,,,,,,,240.1749,243.0637,1,1,2.3678,,0,1,1,0,1,,,,,,,,,,,,,,,,,,,,,,,,,,,,,,,,,,,,,,,,,,,,,,,,,,,,,,,,,,,,,,,,,,,,,,,
,,,,,,,,,646a74a7aadc8d532a2f34dd,spanish,13 or older,click here to respond,no,2025-07-22_20h37.50.231,empathy_intonation_perc,2024.2.4,Linux x86_64,59.88023952,646a74a7aadc8d532a2f34dd,687ed1b7e638a4cbf2f02089,68802e95754069ae6a3e6146,,,,,,,,,,,,,,1,,./stim/wavs/chilean_question_filler_Mi-padre-cantaba-bien.wav,,,,,,,,,243.0661,248.2057,0,0,4.6125,,0,2,2,2,1,,,,,,,,,,,,,,,,,,,,,,,,,,,,,,,,,,,,,,,,,,,,,,,,,,,,,,,,,,,,,,,,,,,,,,,
,,,,,,,,,646a74a7aadc8d532a2f34dd,spanish,13 or older,click here to respond,no,2025-07-22_20h37.50.231,empathy_intonation_perc,2024.2.4,Linux x86_64,59.88023952,646a74a7aadc8d532a2f34dd,687ed1b7e638a4cbf2f02089,68802e95754069ae6a3e6146,,,,,,,,,,,,,,0,,./stim/wavs/cuban_statement_filler_Cocinabas-por-la-noche.wav,,,,,,,,,248.2075,250.6215,0,1,1.8844,,0,3,3,4,1,,,,,,,,,,,,,,,,,,,,,,,,,,,,,,,,,,,,,,,,,,,,,,,,,,,,,,,,,,,,,,,,,,,,,,,
,,,,,,,,,646a74a7aadc8d532a2f34dd,spanish,13 or older,click here to respond,no,2025-07-22_20h37.50.231,empathy_intonation_perc,2024.2.4,Linux x86_64,59.88023952,646a74a7aadc8d532a2f34dd,687ed1b7e638a4cbf2f02089,68802e95754069ae6a3e6146,,,,,,,,,,,,,,1,,./stim/wavs/mexican_question_filler_Felipe-no-tiene-contrasena.wav,,,,,,,,,250.6228,253.0968,1,1,1.9389,,0,4,4,3,1,,,,,,,,,,,,,,,,,,,,,,,,,,,,,,,,,,,,,,,,,,,,,,,,,,,,,,,,,,,,,,,,,,,,,,,
,,,,,,,,,646a74a7aadc8d532a2f34dd,spanish,13 or older,click here to respond,no,2025-07-22_20h37.50.231,empathy_intonation_perc,2024.2.4,Linux x86_64,59.88023952,646a74a7aadc8d532a2f34dd,687ed1b7e638a4cbf2f02089,68802e95754069ae6a3e6146,,,,,,,,,,,,,,0,,./stim/wavs/puertorican_statement_filler_La-nina-pinta-con-su-amiga.wav,,,,,,,,,253.0987,256.4634,0,1,2.8374,,0,5,5,7,1,,,,,,,,,,,,,,,,,,,,,,,,,,,,,,,,,,,,,,,,,,,,,,,,,,,,,,,,,,,,,,,,,,,,,,,
,,,,,,,,,646a74a7aadc8d532a2f34dd,spanish,13 or older,click here to respond,no,2025-07-22_20h37.50.231,empathy_intonation_perc,2024.2.4,Linux x86_64,59.88023952,646a74a7aadc8d532a2f34dd,687ed1b7e638a4cbf2f02089,68802e95754069ae6a3e6146,,,,,,,,,,,,,,0,,./stim/wavs/andalusian_statement_filler_Alberto-nunca-se-afeita.wav,,,,,,,,,256.4658,258.8804,0,1,1.8862,,0,6,6,5,1,,,,,,,,,,,,,,,,,,,,,,,,,,,,,,,,,,,,,,,,,,,,,,,,,,,,,,,,,,,,,,,,,,,,,,,
,,,,,,,,,646a74a7aadc8d532a2f34dd,spanish,13 or older,click here to respond,no,2025-07-22_20h37.50.231,empathy_intonation_perc,2024.2.4,Linux x86_64,59.88023952,646a74a7aadc8d532a2f34dd,687ed1b7e638a4cbf2f02089,68802e95754069ae6a3e6146,,,,,,,,,,,,,,0,,./stim/wavs/peruvian_statement_filler_El-nino-habla-con-su-madre.wav,,,,,,,,,258.883,261.915,0,1,2.5105,,0,7,7,6,1,,,,,,,,,,,,,,,,,,,,,,,,,,,,,,,,,,,,,,,,,,,,,,,,,,,,,,,,,,,,,,,,,,,,,,,
,,,,,,,,,646a74a7aadc8d532a2f34dd,spanish,13 or older,click here to respond,no,2025-07-22_20h37.50.231,empathy_intonation_perc,2024.2.4,Linux x86_64,59.88023952,646a74a7aadc8d532a2f34dd,687ed1b7e638a4cbf2f02089,68802e95754069ae6a3e6146,,,,,,,,,,,,,,,,,,,,,,,,,,,,,,,,,,,,261.9171,268.4817,,,,,,,,,,,,,,,,,,,,,,,,,,,,,,,,,,,,,,,,,,,,,,,,,,,,,,,,,,,,,,,,,,,,,
,,,,,,,,,646a74a7aadc8d532a2f34dd,spanish,13 or older,click here to respond,no,2025-07-22_20h37.50.231,empathy_intonation_perc,2024.2.4,Linux x86_64,59.88023952,646a74a7aadc8d532a2f34dd,687ed1b7e638a4cbf2f02089,68802e95754069ae6a3e6146,,,,,,,,,,,,,40,1,,./stim/wavs/puertorican_mismatch_interrogative-total-yn_El-hombre-mira-la-luna.wav,,,,,,,,,,,,,,,,,,,,,,268.5205,270.9009,0,0,1.8581,,0,0,0,39,1,1,puertorican,,,,,,,,,,,,,,,,,,,,,,,,,,,,,,,,,,,,,,,,,,,,,,,,,,,,,,,,
,,,,,,,,,646a74a7aadc8d532a2f34dd,spanish,13 or older,click here to respond,no,2025-07-22_20h37.50.231,empathy_intonation_perc,2024.2.4,Linux x86_64,59.88023952,646a74a7aadc8d532a2f34dd,687ed1b7e638a4cbf2f02089,68802e95754069ae6a3e6146,,,,,,,,,,,,,66,0,,./stim/wavs/puertorican_match_declarative-broad-focus_Emilio-ama-la-marcha.wav,,,,,,,,,,,,,,,,,,,,,,270.9028,273.1803,0,1,1.7533,,0,1,1,65,1,0,puertorican,,,,,,,,,,,,,,,,,,,,,,,,,,,,,,,,,,,,,,,,,,,,,,,,,,,,,,,,
,,,,,,,,,646a74a7aadc8d532a2f34dd,spanish,13 or older,click here to respond,no,2025-07-22_20h37.50.231,empathy_intonation_perc,2024.2.4,Linux x86_64,59.88023952,646a74a7aadc8d532a2f34dd,687ed1b7e638a4cbf2f02089,68802e95754069ae6a3e6146,,,,,,,,,,,,,22,1,,./stim/wavs/puertorican_match_interrogative-total-yn_Emilio-ama-la-marcha.wav,,,,,,,,,,,,,,,,,,,,,,273.1825,275.663,0,0,1.9548,,0,2,2,21,1,1,puertorican,,,,,,,,,,,,,,,,,,,,,,,,,,,,,,,,,,,,,,,,,,,,,,,,,,,,,,,,
,,,,,,,,,646a74a7aadc8d532a2f34dd,spanish,13 or older,click here to respond,no,2025-07-22_20h37.50.231,empathy_intonation_perc,2024.2.4,Linux x86_64,59.88023952,646a74a7aadc8d532a2f34dd,687ed1b7e638a4cbf2f02089,68802e95754069ae6a3e6146,,,,,,,,,,,,,3,1,,./stim/wavs/castilian_match_interrogative-total-yn_Manuela-vende-el-carro.wav,,,,,,,,,,,,,,,,,,,,,,275.6644,278.0967,1,1,1.9038,,0,3,3,2,1,0,castilian,,,,,,,,,,,,,,,,,,,,,,,,,,,,,,,,,,,,,,,,,,,,,,,,,,,,,,,,
,,,,,,,,,646a74a7aadc8d532a2f34dd,spanish,13 or older,click here to respond,no,2025-07-22_20h37.50.231,empathy_intonation_perc,2024.2.4,Linux x86_64,59.88023952,646a74a7aadc8d532a2f34dd,687ed1b7e638a4cbf2f02089,68802e95754069ae6a3e6146,,,,,,,,,,,,,46,0,,./stim/wavs/castilian_match_declarative-broad-focus_Emilio-ama-la-marcha.wav,,,,,,,,,,,,,,,,,,,,,,278.0978,280.4969,0,1,1.8659,,0,4,4,45,1,0,castilian,,,,,,,,,,,,,,,,,,,,,,,,,,,,,,,,,,,,,,,,,,,,,,,,,,,,,,,,
,,,,,,,,,646a74a7aadc8d532a2f34dd,spanish,13 or older,click here to respond,no,2025-07-22_20h37.50.231,empathy_intonation_perc,2024.2.4,Linux x86_64,59.88023952,646a74a7aadc8d532a2f34dd,687ed1b7e638a4cbf2f02089,68802e95754069ae6a3e6146,,,,,,,,,,,,,84,0,,./stim/wavs/puertorican_mismatch_declarative-broad-focus_El-bebe-comia-muy-bien.wav,,,,,,,,,,,,,,,,,,,,,,280.4988,282.5165,0,1,1.4943,,0,5,5,83,1,0,puertorican,,,,,,,,,,,,,,,,,,,,,,,,,,,,,,,,,,,,,,,,,,,,,,,,,,,,,,,,
,,,,,,,,,646a74a7aadc8d532a2f34dd,spanish,13 or older,click here to respond,no,2025-07-22_20h37.50.231,empathy_intonation_perc,2024.2.4,Linux x86_64,59.88023952,646a74a7aadc8d532a2f34dd,687ed1b7e638a4cbf2f02089,68802e95754069ae6a3e6146,,,,,,,,,,,,,1,1,,./stim/wavs/castilian_match_interrogative-total-yn_David-leia-el-libro.wav,,,,,,,,,,,,,,,,,,,,,,282.5186,284.864,1,1,1.8178,,0,6,6,0,1,0,castilian,,,,,,,,,,,,,,,,,,,,,,,,,,,,,,,,,,,,,,,,,,,,,,,,,,,,,,,,
,,,,,,,,,646a74a7aadc8d532a2f34dd,spanish,13 or older,click here to respond,no,2025-07-22_20h37.50.231,empathy_intonation_perc,2024.2.4,Linux x86_64,59.88023952,646a74a7aadc8d532a2f34dd,687ed1b7e638a4cbf2f02089,68802e95754069ae6a3e6146,,,,,,,,,,,,,58,0,,./stim/wavs/mexican_match_declarative-broad-focus_Daniel-iba-a-Bolivia.wav,,,,,,,,,,,,,,,,,,,,,,284.8666,286.9467,0,1,1.5488,,0,7,7,57,1,0,mexican,,,,,,,,,,,,,,,,,,,,,,,,,,,,,,,,,,,,,,,,,,,,,,,,,,,,,,,,
,,,,,,,,,646a74a7aadc8d532a2f34dd,spanish,13 or older,click here to respond,no,2025-07-22_20h37.50.231,empathy_intonation_perc,2024.2.4,Linux x86_64,59.88023952,646a74a7aadc8d532a2f34dd,687ed1b7e638a4cbf2f02089,68802e95754069ae6a3e6146,,,,,,,,,,,,,31,1,,./stim/wavs/cuban_mismatch_interrogative-total-yn_El-nino-oye-el-rio.wav,,,,,,,,,,,,,,,,,,,,,,286.9491,289.0139,0,0,1.5405,,0,8,8,30,1,1,cuban,,,,,,,,,,,,,,,,,,,,,,,,,,,,,,,,,,,,,,,,,,,,,,,,,,,,,,,,
,,,,,,,,,646a74a7aadc8d532a2f34dd,spanish,13 or older,click here to respond,no,2025-07-22_20h37.50.231,empathy_intonation_perc,2024.2.4,Linux x86_64,59.88023952,646a74a7aadc8d532a2f34dd,687ed1b7e638a4cbf2f02089,68802e95754069ae6a3e6146,,,,,,,,,,,,,27,1,,./stim/wavs/castilian_mismatch_interrogative-total-yn_Mi-madre-come-la-fruta.wav,,,,,,,,,,,,,,,,,,,,,,289.0161,291.4464,1,1,1.9044,,0,9,9,26,1,0,castilian,,,,,,,,,,,,,,,,,,,,,,,,,,,,,,,,,,,,,,,,,,,,,,,,,,,,,,,,
,,,,,,,,,646a74a7aadc8d532a2f34dd,spanish,13 or older,click here to respond,no,2025-07-22_20h37.50.231,empathy_intonation_perc,2024.2.4,Linux x86_64,59.88023952,646a74a7aadc8d532a2f34dd,687ed1b7e638a4cbf2f02089,68802e95754069ae6a3e6146,,,,,,,,,,,,,52,0,,./stim/wavs/cuban_match_declarative-broad-focus_Daniel-iba-a-Bolivia.wav,,,,,,,,,,,,,,,,,,,,,,291.4478,294.4299,0,1,2.4526,,0,10,10,51,1,0,cuban,,,,,,,,,,,,,,,,,,,,,,,,,,,,,,,,,,,,,,,,,,,,,,,,,,,,,,,,
,,,,,,,,,646a74a7aadc8d532a2f34dd,spanish,13 or older,click here to respond,no,2025-07-22_20h37.50.231,empathy_intonation_perc,2024.2.4,Linux x86_64,59.88023952,646a74a7aadc8d532a2f34dd,687ed1b7e638a4cbf2f02089,68802e95754069ae6a3e6146,,,,,,,,,,,,,14,1,,./stim/wavs/mexican_match_interrogative-total-yn_Daniel-iba-a-Bolivia.wav,,,,,,,,,,,,,,,,,,,,,,294.4317,296.7962,1,1,1.841,,0,11,11,13,1,0,mexican,,,,,,,,,,,,,,,,,,,,,,,,,,,,,,,,,,,,,,,,,,,,,,,,,,,,,,,,
,,,,,,,,,646a74a7aadc8d532a2f34dd,spanish,13 or older,click here to respond,no,2025-07-22_20h37.50.231,empathy_intonation_perc,2024.2.4,Linux x86_64,59.88023952,646a74a7aadc8d532a2f34dd,687ed1b7e638a4cbf2f02089,68802e95754069ae6a3e6146,,,,,,,,,,,,,88,0,,./stim/wavs/puertorican_mismatch_declarative-broad-focus_La-nina-lava-el-plato.wav,,,,,,,,,,,,,,,,,,,,,,296.7987,299.8129,0,1,2.4901,,0,12,12,87,1,0,puertorican,,,,,,,,,,,,,,,,,,,,,,,,,,,,,,,,,,,,,,,,,,,,,,,,,,,,,,,,
,,,,,,,,,646a74a7aadc8d532a2f34dd,spanish,13 or older,click here to respond,no,2025-07-22_20h37.50.231,empathy_intonation_perc,2024.2.4,Linux x86_64,59.88023952,646a74a7aadc8d532a2f34dd,687ed1b7e638a4cbf2f02089,68802e95754069ae6a3e6146,,,,,,,,,,,,,42,1,,./stim/wavs/puertorican_mismatch_interrogative-total-yn_La-maestra-vive-en-Paris.wav,,,,,,,,,,,,,,,,,,,,,,299.8154,302.3802,0,0,2.0424,,0,13,13,41,1,1,puertorican,,,,,,,,,,,,,,,,,,,,,,,,,,,,,,,,,,,,,,,,,,,,,,,,,,,,,,,,
,,,,,,,,,646a74a7aadc8d532a2f34dd,spanish,13 or older,click here to respond,no,2025-07-22_20h37.50.231,empathy_intonation_perc,2024.2.4,Linux x86_64,59.88023952,646a74a7aadc8d532a2f34dd,687ed1b7e638a4cbf2f02089,68802e95754069ae6a3e6146,,,,,,,,,,,,,12,1,,./stim/wavs/cuban_match_interrogative-total-yn_Marta-abre-el-regalo.wav,,,,,,,,,,,,,,,,,,,,,,302.382,304.981,0,0,2.0731,,0,14,14,11,1,1,cuban,,,,,,,,,,,,,,,,,,,,,,,,,,,,,,,,,,,,,,,,,,,,,,,,,,,,,,,,
,,,,,,,,,646a74a7aadc8d532a2f34dd,spanish,13 or older,click here to respond,no,2025-07-22_20h37.50.231,empathy_intonation_perc,2024.2.4,Linux x86_64,59.88023952,646a74a7aadc8d532a2f34dd,687ed1b7e638a4cbf2f02089,68802e95754069ae6a3e6146,,,,,,,,,,,,,50,0,,./stim/wavs/castilian_match_declarative-broad-focus_Marta-abre-el-regalo.wav,,,,,,,,,,,,,,,,,,,,,,304.9829,307.3329,0,1,1.8249,,0,15,15,49,1,0,castilian,,,,,,,,,,,,,,,,,,,,,,,,,,,,,,,,,,,,,,,,,,,,,,,,,,,,,,,,
,,,,,,,,,646a74a7aadc8d532a2f34dd,spanish,13 or older,click here to respond,no,2025-07-22_20h37.50.231,empathy_intonation_perc,2024.2.4,Linux x86_64,59.88023952,646a74a7aadc8d532a2f34dd,687ed1b7e638a4cbf2f02089,68802e95754069ae6a3e6146,,,,,,,,,,,,,19,1,,./stim/wavs/puertorican_match_interrogative-total-yn_Ana-lleva-el-abrigo.wav,,,,,,,,,,,,,,,,,,,,,,307.3357,309.6129,0,0,1.7545,,0,16,16,18,1,1,puertorican,,,,,,,,,,,,,,,,,,,,,,,,,,,,,,,,,,,,,,,,,,,,,,,,,,,,,,,,
,,,,,,,,,646a74a7aadc8d532a2f34dd,spanish,13 or older,click here to respond,no,2025-07-22_20h37.50.231,empathy_intonation_perc,2024.2.4,Linux x86_64,59.88023952,646a74a7aadc8d532a2f34dd,687ed1b7e638a4cbf2f02089,68802e95754069ae6a3e6146,,,,,,,,,,,,,13,1,,./stim/wavs/mexican_match_interrogative-total-yn_Ana-lleva-el-abrigo.wav,,,,,,,,,,,,,,,,,,,,,,309.6151,312.7474,1,1,2.6014,,0,17,17,12,1,0,mexican,,,,,,,,,,,,,,,,,,,,,,,,,,,,,,,,,,,,,,,,,,,,,,,,,,,,,,,,
,,,,,,,,,646a74a7aadc8d532a2f34dd,spanish,13 or older,click here to respond,no,2025-07-22_20h37.50.231,empathy_intonation_perc,2024.2.4,Linux x86_64,59.88023952,646a74a7aadc8d532a2f34dd,687ed1b7e638a4cbf2f02089,68802e95754069ae6a3e6146,,,,,,,,,,,,,72,0,,./stim/wavs/castilian_mismatch_declarative-broad-focus_Mi-novio-viene-del-lago.wav,,,,,,,,,,,,,,,,,,,,,,312.7484,315.3632,0,1,2.0716,,0,18,18,71,1,0,castilian,,,,,,,,,,,,,,,,,,,,,,,,,,,,,,,,,,,,,,,,,,,,,,,,,,,,,,,,
,,,,,,,,,646a74a7aadc8d532a2f34dd,spanish,13 or older,click here to respond,no,2025-07-22_20h37.50.231,empathy_intonation_perc,2024.2.4,Linux x86_64,59.88023952,646a74a7aadc8d532a2f34dd,687ed1b7e638a4cbf2f02089,68802e95754069ae6a3e6146,,,,,,,,,,,,,65,0,,./stim/wavs/puertorican_match_declarative-broad-focus_David-leia-el-libro.wav,,,,,,,,,,,,,,,,,,,,,,315.3644,317.6134,0,1,1.7211,,0,19,19,64,1,0,puertorican,,,,,,,,,,,,,,,,,,,,,,,,,,,,,,,,,,,,,,,,,,,,,,,,,,,,,,,,
,,,,,,,,,646a74a7aadc8d532a2f34dd,spanish,13 or older,click here to respond,no,2025-07-22_20h37.50.231,empathy_intonation_perc,2024.2.4,Linux x86_64,59.88023952,646a74a7aadc8d532a2f34dd,687ed1b7e638a4cbf2f02089,68802e95754069ae6a3e6146,,,,,,,,,,,,,2,1,,./stim/wavs/castilian_match_interrogative-total-yn_Emilio-ama-la-marcha.wav,,,,,,,,,,,,,,,,,,,,,,317.6148,319.9683,1,1,1.8221,,0,20,20,1,1,0,castilian,,,,,,,,,,,,,,,,,,,,,,,,,,,,,,,,,,,,,,,,,,,,,,,,,,,,,,,,
,,,,,,,,,646a74a7aadc8d532a2f34dd,spanish,13 or older,click here to respond,no,2025-07-22_20h37.50.231,empathy_intonation_perc,2024.2.4,Linux x86_64,59.88023952,646a74a7aadc8d532a2f34dd,687ed1b7e638a4cbf2f02089,68802e95754069ae6a3e6146,,,,,,,,,,,,,71,0,,./stim/wavs/castilian_mismatch_declarative-broad-focus_La-nina-lava-el-plato.wav,,,,,,,,,,,,,,,,,,,,,,319.9697,322.6965,0,1,2.2034,,0,21,21,70,1,0,castilian,,,,,,,,,,,,,,,,,,,,,,,,,,,,,,,,,,,,,,,,,,,,,,,,,,,,,,,,
,,,,,,,,,646a74a7aadc8d532a2f34dd,spanish,13 or older,click here to respond,no,2025-07-22_20h37.50.231,empathy_intonation_perc,2024.2.4,Linux x86_64,59.88023952,646a74a7aadc8d532a2f34dd,687ed1b7e638a4cbf2f02089,68802e95754069ae6a3e6146,,,,,,,,,,,,,4,1,,./stim/wavs/castilian_match_interrogative-total-yn_Maria-bebe-el-vino.wav,,,,,,,,,,,,,,,,,,,,,,322.7,324.7807,1,1,1.5572,,0,22,22,3,1,0,castilian,,,,,,,,,,,,,,,,,,,,,,,,,,,,,,,,,,,,,,,,,,,,,,,,,,,,,,,,
,,,,,,,,,646a74a7aadc8d532a2f34dd,spanish,13 or older,click here to respond,no,2025-07-22_20h37.50.231,empathy_intonation_perc,2024.2.4,Linux x86_64,59.88023952,646a74a7aadc8d532a2f34dd,687ed1b7e638a4cbf2f02089,68802e95754069ae6a3e6146,,,,,,,,,,,,,82,0,,./stim/wavs/mexican_mismatch_declarative-broad-focus_Mi-novio-viene-del-lago.wav,,,,,,,,,,,,,,,,,,,,,,324.783,326.8968,0,1,1.5847,,0,23,23,81,1,0,mexican,,,,,,,,,,,,,,,,,,,,,,,,,,,,,,,,,,,,,,,,,,,,,,,,,,,,,,,,
,,,,,,,,,646a74a7aadc8d532a2f34dd,spanish,13 or older,click here to respond,no,2025-07-22_20h37.50.231,empathy_intonation_perc,2024.2.4,Linux x86_64,59.88023952,646a74a7aadc8d532a2f34dd,687ed1b7e638a4cbf2f02089,68802e95754069ae6a3e6146,,,,,,,,,,,,,7,1,,./stim/wavs/cuban_match_interrogative-total-yn_Ana-lleva-el-abrigo.wav,,,,,,,,,,,,,,,,,,,,,,326.899,328.8304,0,0,1.404,,0,24,24,6,1,1,cuban,,,,,,,,,,,,,,,,,,,,,,,,,,,,,,,,,,,,,,,,,,,,,,,,,,,,,,,,
,,,,,,,,,646a74a7aadc8d532a2f34dd,spanish,13 or older,click here to respond,no,2025-07-22_20h37.50.231,empathy_intonation_perc,2024.2.4,Linux x86_64,59.88023952,646a74a7aadc8d532a2f34dd,687ed1b7e638a4cbf2f02089,68802e95754069ae6a3e6146,,,,,,,,,,,,,77,0,,./stim/wavs/cuban_mismatch_declarative-broad-focus_Mi-novio-viene-del-lago.wav,,,,,,,,,,,,,,,,,,,,,,328.832,331.2306,0,1,1.871,,0,25,25,76,1,0,cuban,,,,,,,,,,,,,,,,,,,,,,,,,,,,,,,,,,,,,,,,,,,,,,,,,,,,,,,,
,,,,,,,,,646a74a7aadc8d532a2f34dd,spanish,13 or older,click here to respond,no,2025-07-22_20h37.50.231,empathy_intonation_perc,2024.2.4,Linux x86_64,59.88023952,646a74a7aadc8d532a2f34dd,687ed1b7e638a4cbf2f02089,68802e95754069ae6a3e6146,,,,,,,,,,,,,10,1,,./stim/wavs/cuban_match_interrogative-total-yn_Maria-bebe-el-vino.wav,,,,,,,,,,,,,,,,,,,,,,331.2318,333.1968,0,0,1.4394,,0,26,26,9,1,1,cuban,,,,,,,,,,,,,,,,,,,,,,,,,,,,,,,,,,,,,,,,,,,,,,,,,,,,,,,,
,,,,,,,,,646a74a7aadc8d532a2f34dd,spanish,13 or older,click here to respond,no,2025-07-22_20h37.50.231,empathy_intonation_perc,2024.2.4,Linux x86_64,59.88023952,646a74a7aadc8d532a2f34dd,687ed1b7e638a4cbf2f02089,68802e95754069ae6a3e6146,,,,,,,,,,,,,51,0,,./stim/wavs/cuban_match_declarative-broad-focus_Ana-lleva-el-abrigo.wav,,,,,,,,,,,,,,,,,,,,,,333.1982,335.1644,0,1,1.4411,,0,27,27,50,1,0,cuban,,,,,,,,,,,,,,,,,,,,,,,,,,,,,,,,,,,,,,,,,,,,,,,,,,,,,,,,
,,,,,,,,,646a74a7aadc8d532a2f34dd,spanish,13 or older,click here to respond,no,2025-07-22_20h37.50.231,empathy_intonation_perc,2024.2.4,Linux x86_64,59.88023952,646a74a7aadc8d532a2f34dd,687ed1b7e638a4cbf2f02089,68802e95754069ae6a3e6146,,,,,,,,,,,,,25,1,,./stim/wavs/castilian_mismatch_interrogative-total-yn_La-maestra-vive-en-Paris.wav,,,,,,,,,,,,,,,,,,,,,,335.1667,337.8466,1,1,2.1519,,0,28,28,24,1,0,castilian,,,,,,,,,,,,,,,,,,,,,,,,,,,,,,,,,,,,,,,,,,,,,,,,,,,,,,,,
,,,,,,,,,646a74a7aadc8d532a2f34dd,spanish,13 or older,click here to respond,no,2025-07-22_20h37.50.231,empathy_intonation_perc,2024.2.4,Linux x86_64,59.88023952,646a74a7aadc8d532a2f34dd,687ed1b7e638a4cbf2f02089,68802e95754069ae6a3e6146,,,,,,,,,,,,,28,1,,./stim/wavs/castilian_mismatch_interrogative-total-yn_Mi-novio-viene-del-lago.wav,,,,,,,,,,,,,,,,,,,,,,337.8484,340.447,1,1,2.0706,,0,29,29,27,1,0,castilian,,,,,,,,,,,,,,,,,,,,,,,,,,,,,,,,,,,,,,,,,,,,,,,,,,,,,,,,
,,,,,,,,,646a74a7aadc8d532a2f34dd,spanish,13 or older,click here to respond,no,2025-07-22_20h37.50.231,empathy_intonation_perc,2024.2.4,Linux x86_64,59.88023952,646a74a7aadc8d532a2f34dd,687ed1b7e638a4cbf2f02089,68802e95754069ae6a3e6146,,,,,,,,,,,,,39,1,,./stim/wavs/mexican_mismatch_interrogative-total-yn_Mi-tia-odia-la-lluvia.wav,,,,,,,,,,,,,,,,,,,,,,340.4489,342.6137,1,1,1.6319,,0,30,30,38,1,0,mexican,,,,,,,,,,,,,,,,,,,,,,,,,,,,,,,,,,,,,,,,,,,,,,,,,,,,,,,,
,,,,,,,,,646a74a7aadc8d532a2f34dd,spanish,13 or older,click here to respond,no,2025-07-22_20h37.50.231,empathy_intonation_perc,2024.2.4,Linux x86_64,59.88023952,646a74a7aadc8d532a2f34dd,687ed1b7e638a4cbf2f02089,68802e95754069ae6a3e6146,,,,,,,,,,,,,43,1,,./stim/wavs/puertorican_mismatch_interrogative-total-yn_La-nina-lava-el-plato.wav,,,,,,,,,,,,,,,,,,,,,,342.6149,344.5813,0,0,1.4407,,0,31,31,42,1,1,puertorican,,,,,,,,,,,,,,,,,,,,,,,,,,,,,,,,,,,,,,,,,,,,,,,,,,,,,,,,
,,,,,,,,,646a74a7aadc8d532a2f34dd,spanish,13 or older,click here to respond,no,2025-07-22_20h37.50.231,empathy_intonation_perc,2024.2.4,Linux x86_64,59.88023952,646a74a7aadc8d532a2f34dd,687ed1b7e638a4cbf2f02089,68802e95754069ae6a3e6146,,,,,,,,,,,,,6,1,,./stim/wavs/castilian_match_interrogative-total-yn_Marta-abre-el-regalo.wav,,,,,,,,,,,,,,,,,,,,,,344.5822,346.7972,1,1,1.6882,,0,32,32,5,1,0,castilian,,,,,,,,,,,,,,,,,,,,,,,,,,,,,,,,,,,,,,,,,,,,,,,,,,,,,,,,
,,,,,,,,,646a74a7aadc8d532a2f34dd,spanish,13 or older,click here to respond,no,2025-07-22_20h37.50.231,empathy_intonation_perc,2024.2.4,Linux x86_64,59.88023952,646a74a7aadc8d532a2f34dd,687ed1b7e638a4cbf2f02089,68802e95754069ae6a3e6146,,,,,,,,,,,,,44,1,,./stim/wavs/puertorican_mismatch_interrogative-total-yn_Mi-madre-come-la-fruta.wav,,,,,,,,,,,,,,,,,,,,,,346.8002,349.547,0,0,2.2202,,0,33,33,43,1,1,puertorican,,,,,,,,,,,,,,,,,,,,,,,,,,,,,,,,,,,,,,,,,,,,,,,,,,,,,,,,
,,,,,,,,,646a74a7aadc8d532a2f34dd,spanish,13 or older,click here to respond,no,2025-07-22_20h37.50.231,empathy_intonation_perc,2024.2.4,Linux x86_64,59.88023952,646a74a7aadc8d532a2f34dd,687ed1b7e638a4cbf2f02089,68802e95754069ae6a3e6146,,,,,,,,,,,,,62,0,,./stim/wavs/mexican_match_declarative-broad-focus_Marta-abre-el-regalo.wav,,,,,,,,,,,,,,,,,,,,,,349.5494,352.4136,0,1,2.335,,0,34,34,61,1,0,mexican,,,,,,,,,,,,,,,,,,,,,,,,,,,,,,,,,,,,,,,,,,,,,,,,,,,,,,,,
,,,,,,,,,646a74a7aadc8d532a2f34dd,spanish,13 or older,click here to respond,no,2025-07-22_20h37.50.231,empathy_intonation_perc,2024.2.4,Linux x86_64,59.88023952,646a74a7aadc8d532a2f34dd,687ed1b7e638a4cbf2f02089,68802e95754069ae6a3e6146,,,,,,,,,,,,,8,1,,./stim/wavs/cuban_match_interrogative-total-yn_Daniel-iba-a-Bolivia.wav,,,,,,,,,,,,,,,,,,,,,,352.4146,354.6972,0,0,1.7527,,0,35,35,7,1,1,cuban,,,,,,,,,,,,,,,,,,,,,,,,,,,,,,,,,,,,,,,,,,,,,,,,,,,,,,,,
,,,,,,,,,646a74a7aadc8d532a2f34dd,spanish,13 or older,click here to respond,no,2025-07-22_20h37.50.231,empathy_intonation_perc,2024.2.4,Linux x86_64,59.88023952,646a74a7aadc8d532a2f34dd,687ed1b7e638a4cbf2f02089,68802e95754069ae6a3e6146,,,,,,,,,,,,,68,0,,./stim/wavs/puertorican_match_declarative-broad-focus_Maria-bebe-el-vino.wav,,,,,,,,,,,,,,,,,,,,,,354.6987,356.6628,0,1,1.4281,,0,36,36,67,1,0,puertorican,,,,,,,,,,,,,,,,,,,,,,,,,,,,,,,,,,,,,,,,,,,,,,,,,,,,,,,,
,,,,,,,,,646a74a7aadc8d532a2f34dd,spanish,13 or older,click here to respond,no,2025-07-22_20h37.50.231,empathy_intonation_perc,2024.2.4,Linux x86_64,59.88023952,646a74a7aadc8d532a2f34dd,687ed1b7e638a4cbf2f02089,68802e95754069ae6a3e6146,,,,,,,,,,,,,34,1,,./stim/wavs/cuban_mismatch_interrogative-total-yn_Mi-tia-odia-la-lluvia.wav,,,,,,,,,,,,,,,,,,,,,,356.6638,358.5809,0,0,1.3877,,0,37,37,33,1,1,cuban,,,,,,,,,,,,,,,,,,,,,,,,,,,,,,,,,,,,,,,,,,,,,,,,,,,,,,,,
,,,,,,,,,646a74a7aadc8d532a2f34dd,spanish,13 or older,click here to respond,no,2025-07-22_20h37.50.231,empathy_intonation_perc,2024.2.4,Linux x86_64,59.88023952,646a74a7aadc8d532a2f34dd,687ed1b7e638a4cbf2f02089,68802e95754069ae6a3e6146,,,,,,,,,,,,,20,1,,./stim/wavs/puertorican_match_interrogative-total-yn_Daniel-iba-a-Bolivia.wav,,,,,,,,,,,,,,,,,,,,,,358.5821,360.9309,0,0,1.8263,,0,38,38,19,1,1,puertorican,,,,,,,,,,,,,,,,,,,,,,,,,,,,,,,,,,,,,,,,,,,,,,,,,,,,,,,,
,,,,,,,,,646a74a7aadc8d532a2f34dd,spanish,13 or older,click here to respond,no,2025-07-22_20h37.50.231,empathy_intonation_perc,2024.2.4,Linux x86_64,59.88023952,646a74a7aadc8d532a2f34dd,687ed1b7e638a4cbf2f02089,68802e95754069ae6a3e6146,,,,,,,,,,,,,56,0,,./stim/wavs/cuban_match_declarative-broad-focus_Marta-abre-el-regalo.wav,,,,,,,,,,,,,,,,,,,,,,360.9333,363.3966,0,1,1.9338,,0,39,39,55,1,0,cuban,,,,,,,,,,,,,,,,,,,,,,,,,,,,,,,,,,,,,,,,,,,,,,,,,,,,,,,,
,,,,,,,,,646a74a7aadc8d532a2f34dd,spanish,13 or older,click here to respond,no,2025-07-22_20h37.50.231,empathy_intonation_perc,2024.2.4,Linux x86_64,59.88023952,646a74a7aadc8d532a2f34dd,687ed1b7e638a4cbf2f02089,68802e95754069ae6a3e6146,,,,,,,,,,,,,76,0,,./stim/wavs/cuban_mismatch_declarative-broad-focus_La-nina-lava-el-plato.wav,,,,,,,,,,,,,,,,,,,,,,363.3978,365.5306,0,1,1.6098,,0,40,40,75,1,0,cuban,,,,,,,,,,,,,,,,,,,,,,,,,,,,,,,,,,,,,,,,,,,,,,,,,,,,,,,,
,,,,,,,,,646a74a7aadc8d532a2f34dd,spanish,13 or older,click here to respond,no,2025-07-22_20h37.50.231,empathy_intonation_perc,2024.2.4,Linux x86_64,59.88023952,646a74a7aadc8d532a2f34dd,687ed1b7e638a4cbf2f02089,68802e95754069ae6a3e6146,,,,,,,,,,,,,26,1,,./stim/wavs/castilian_mismatch_interrogative-total-yn_La-nina-lava-el-plato.wav,,,,,,,,,,,,,,,,,,,,,,365.5325,367.5967,1,1,1.5371,,0,41,41,25,1,0,castilian,,,,,,,,,,,,,,,,,,,,,,,,,,,,,,,,,,,,,,,,,,,,,,,,,,,,,,,,
,,,,,,,,,646a74a7aadc8d532a2f34dd,spanish,13 or older,click here to respond,no,2025-07-22_20h37.50.231,empathy_intonation_perc,2024.2.4,Linux x86_64,59.88023952,646a74a7aadc8d532a2f34dd,687ed1b7e638a4cbf2f02089,68802e95754069ae6a3e6146,,,,,,,,,,,,,23,1,,./stim/wavs/puertorican_match_interrogative-total-yn_Manuela-vende-el-carro.wav,,,,,,,,,,,,,,,,,,,,,,367.5984,369.6637,0,0,1.5373,,0,42,42,22,1,1,puertorican,,,,,,,,,,,,,,,,,,,,,,,,,,,,,,,,,,,,,,,,,,,,,,,,,,,,,,,,
,,,,,,,,,646a74a7aadc8d532a2f34dd,spanish,13 or older,click here to respond,no,2025-07-22_20h37.50.231,empathy_intonation_perc,2024.2.4,Linux x86_64,59.88023952,646a74a7aadc8d532a2f34dd,687ed1b7e638a4cbf2f02089,68802e95754069ae6a3e6146,,,,,,,,,,,,,57,0,,./stim/wavs/mexican_match_declarative-broad-focus_Ana-lleva-el-abrigo.wav,,,,,,,,,,,,,,,,,,,,,,369.6654,371.5466,0,1,1.354,,0,43,43,56,1,0,mexican,,,,,,,,,,,,,,,,,,,,,,,,,,,,,,,,,,,,,,,,,,,,,,,,,,,,,,,,
,,,,,,,,,646a74a7aadc8d532a2f34dd,spanish,13 or older,click here to respond,no,2025-07-22_20h37.50.231,empathy_intonation_perc,2024.2.4,Linux x86_64,59.88023952,646a74a7aadc8d532a2f34dd,687ed1b7e638a4cbf2f02089,68802e95754069ae6a3e6146,,,,,,,,,,,,,83,0,,./stim/wavs/mexican_mismatch_declarative-broad-focus_Mi-tia-odia-la-lluvia.wav,,,,,,,,,,,,,,,,,,,,,,371.5494,373.4629,0,1,1.3844,,0,44,44,82,1,0,mexican,,,,,,,,,,,,,,,,,,,,,,,,,,,,,,,,,,,,,,,,,,,,,,,,,,,,,,,,
,,,,,,,,,646a74a7aadc8d532a2f34dd,spanish,13 or older,click here to respond,no,2025-07-22_20h37.50.231,empathy_intonation_perc,2024.2.4,Linux x86_64,59.88023952,646a74a7aadc8d532a2f34dd,687ed1b7e638a4cbf2f02089,68802e95754069ae6a3e6146,,,,,,,,,,,,,49,0,,./stim/wavs/castilian_match_declarative-broad-focus_Mariano-habla-del-tiempo.wav,,,,,,,,,,,,,,,,,,,,,,373.4634,375.9149,0,1,1.9426,,0,45,45,48,1,0,castilian,,,,,,,,,,,,,,,,,,,,,,,,,,,,,,,,,,,,,,,,,,,,,,,,,,,,,,,,
,,,,,,,,,646a74a7aadc8d532a2f34dd,spanish,13 or older,click here to respond,no,2025-07-22_20h37.50.231,empathy_intonation_perc,2024.2.4,Linux x86_64,59.88023952,646a74a7aadc8d532a2f34dd,687ed1b7e638a4cbf2f02089,68802e95754069ae6a3e6146,,,,,,,,,,,,,87,0,,./stim/wavs/puertorican_mismatch_declarative-broad-focus_La-maestra-vive-en-Paris.wav,,,,,,,,,,,,,,,,,,,,,,375.9177,378.5301,0,1,2.0873,,0,46,46,86,1,0,puertorican,,,,,,,,,,,,,,,,,,,,,,,,,,,,,,,,,,,,,,,,,,,,,,,,,,,,,,,,
,,,,,,,,,646a74a7aadc8d532a2f34dd,spanish,13 or older,click here to respond,no,2025-07-22_20h37.50.231,empathy_intonation_perc,2024.2.4,Linux x86_64,59.88023952,646a74a7aadc8d532a2f34dd,687ed1b7e638a4cbf2f02089,68802e95754069ae6a3e6146,,,,,,,,,,,,,67,0,,./stim/wavs/puertorican_match_declarative-broad-focus_Manuela-vende-el-carro.wav,,,,,,,,,,,,,,,,,,,,,,378.5315,381.4469,0,1,2.3873,,0,47,47,66,1,0,puertorican,,,,,,,,,,,,,,,,,,,,,,,,,,,,,,,,,,,,,,,,,,,,,,,,,,,,,,,,
,,,,,,,,,646a74a7aadc8d532a2f34dd,spanish,13 or older,click here to respond,no,2025-07-22_20h37.50.231,empathy_intonation_perc,2024.2.4,Linux x86_64,59.88023952,646a74a7aadc8d532a2f34dd,687ed1b7e638a4cbf2f02089,68802e95754069ae6a3e6146,,,,,,,,,,,,,53,0,,./stim/wavs/cuban_match_declarative-broad-focus_Manuela-vende-el-carro.wav,,,,,,,,,,,,,,,,,,,,,,381.4486,383.43,0,1,1.4498,,0,48,48,52,1,0,cuban,,,,,,,,,,,,,,,,,,,,,,,,,,,,,,,,,,,,,,,,,,,,,,,,,,,,,,,,
,,,,,,,,,646a74a7aadc8d532a2f34dd,spanish,13 or older,click here to respond,no,2025-07-22_20h37.50.231,empathy_intonation_perc,2024.2.4,Linux x86_64,59.88023952,646a74a7aadc8d532a2f34dd,687ed1b7e638a4cbf2f02089,68802e95754069ae6a3e6146,,,,,,,,,,,,,59,0,,./stim/wavs/mexican_match_declarative-broad-focus_David-leia-el-libro.wav,,,,,,,,,,,,,,,,,,,,,,383.4318,385.5632,0,1,1.602,,0,49,49,58,1,0,mexican,,,,,,,,,,,,,,,,,,,,,,,,,,,,,,,,,,,,,,,,,,,,,,,,,,,,,,,,
,,,,,,,,,646a74a7aadc8d532a2f34dd,spanish,13 or older,click here to respond,no,2025-07-22_20h37.50.231,empathy_intonation_perc,2024.2.4,Linux x86_64,59.88023952,646a74a7aadc8d532a2f34dd,687ed1b7e638a4cbf2f02089,68802e95754069ae6a3e6146,,,,,,,,,,,,,11,1,,./stim/wavs/cuban_match_interrogative-total-yn_Mariano-habla-del-tiempo.wav,,,,,,,,,,,,,,,,,,,,,,385.5657,387.8134,0,0,1.721,,0,50,50,10,1,1,cuban,,,,,,,,,,,,,,,,,,,,,,,,,,,,,,,,,,,,,,,,,,,,,,,,,,,,,,,,
,,,,,,,,,646a74a7aadc8d532a2f34dd,spanish,13 or older,click here to respond,no,2025-07-22_20h37.50.231,empathy_intonation_perc,2024.2.4,Linux x86_64,59.88023952,646a74a7aadc8d532a2f34dd,687ed1b7e638a4cbf2f02089,68802e95754069ae6a3e6146,,,,,,,,,,,,,69,0,,./stim/wavs/castilian_mismatch_declarative-broad-focus_El-nino-oye-el-rio.wav,,,,,,,,,,,,,,,,,,,,,,387.8171,389.9969,0,1,1.6537,,0,51,51,68,1,0,castilian,,,,,,,,,,,,,,,,,,,,,,,,,,,,,,,,,,,,,,,,,,,,,,,,,,,,,,,,
,,,,,,,,,646a74a7aadc8d532a2f34dd,spanish,13 or older,click here to respond,no,2025-07-22_20h37.50.231,empathy_intonation_perc,2024.2.4,Linux x86_64,59.88023952,646a74a7aadc8d532a2f34dd,687ed1b7e638a4cbf2f02089,68802e95754069ae6a3e6146,,,,,,,,,,,,,81,0,,./stim/wavs/mexican_mismatch_declarative-broad-focus_La-maestra-vive-en-Paris.wav,,,,,,,,,,,,,,,,,,,,,,389.998,392.2979,0,1,1.7775,,0,52,52,80,1,0,mexican,,,,,,,,,,,,,,,,,,,,,,,,,,,,,,,,,,,,,,,,,,,,,,,,,,,,,,,,
,,,,,,,,,646a74a7aadc8d532a2f34dd,spanish,13 or older,click here to respond,no,2025-07-22_20h37.50.231,empathy_intonation_perc,2024.2.4,Linux x86_64,59.88023952,646a74a7aadc8d532a2f34dd,687ed1b7e638a4cbf2f02089,68802e95754069ae6a3e6146,,,,,,,,,,,,,17,1,,./stim/wavs/mexican_match_interrogative-total-yn_Mariano-habla-del-tiempo.wav,,,,,,,,,,,,,,,,,,,,,,392.3,395.8641,1,1,3.0357,,0,53,53,16,1,0,mexican,,,,,,,,,,,,,,,,,,,,,,,,,,,,,,,,,,,,,,,,,,,,,,,,,,,,,,,,
,,,,,,,,,646a74a7aadc8d532a2f34dd,spanish,13 or older,click here to respond,no,2025-07-22_20h37.50.231,empathy_intonation_perc,2024.2.4,Linux x86_64,59.88023952,646a74a7aadc8d532a2f34dd,687ed1b7e638a4cbf2f02089,68802e95754069ae6a3e6146,,,,,,,,,,,,,86,0,,./stim/wavs/puertorican_mismatch_declarative-broad-focus_El-nino-oye-el-rio.wav,,,,,,,,,,,,,,,,,,,,,,395.8654,398.1154,0,1,1.7288,,0,54,54,85,1,0,puertorican,,,,,,,,,,,,,,,,,,,,,,,,,,,,,,,,,,,,,,,,,,,,,,,,,,,,,,,,
,,,,,,,,,646a74a7aadc8d532a2f34dd,spanish,13 or older,click here to respond,no,2025-07-22_20h37.50.231,empathy_intonation_perc,2024.2.4,Linux x86_64,59.88023952,646a74a7aadc8d532a2f34dd,687ed1b7e638a4cbf2f02089,68802e95754069ae6a3e6146,,,,,,,,,,,,,73,0,,./stim/wavs/castilian_mismatch_declarative-broad-focus_Mi-tia-odia-la-lluvia.wav,,,,,,,,,,,,,,,,,,,,,,398.1164,400.6801,0,1,2.0367,,0,55,55,72,1,0,castilian,,,,,,,,,,,,,,,,,,,,,,,,,,,,,,,,,,,,,,,,,,,,,,,,,,,,,,,,
,,,,,,,,,646a74a7aadc8d532a2f34dd,spanish,13 or older,click here to respond,no,2025-07-22_20h37.50.231,empathy_intonation_perc,2024.2.4,Linux x86_64,59.88023952,646a74a7aadc8d532a2f34dd,687ed1b7e638a4cbf2f02089,68802e95754069ae6a3e6146,,,,,,,,,,,,,9,1,,./stim/wavs/cuban_match_interrogative-total-yn_Manuela-vende-el-carro.wav,,,,,,,,,,,,,,,,,,,,,,400.6824,402.5804,0,0,1.368,,0,56,56,8,1,1,cuban,,,,,,,,,,,,,,,,,,,,,,,,,,,,,,,,,,,,,,,,,,,,,,,,,,,,,,,,
,,,,,,,,,646a74a7aadc8d532a2f34dd,spanish,13 or older,click here to respond,no,2025-07-22_20h37.50.231,empathy_intonation_perc,2024.2.4,Linux x86_64,59.88023952,646a74a7aadc8d532a2f34dd,687ed1b7e638a4cbf2f02089,68802e95754069ae6a3e6146,,,,,,,,,,,,,54,0,,./stim/wavs/cuban_match_declarative-broad-focus_Maria-bebe-el-vino.wav,,,,,,,,,,,,,,,,,,,,,,402.5817,404.497,0,1,1.3873,,0,57,57,53,1,0,cuban,,,,,,,,,,,,,,,,,,,,,,,,,,,,,,,,,,,,,,,,,,,,,,,,,,,,,,,,
,,,,,,,,,646a74a7aadc8d532a2f34dd,spanish,13 or older,click here to respond,no,2025-07-22_20h37.50.231,empathy_intonation_perc,2024.2.4,Linux x86_64,59.88023952,646a74a7aadc8d532a2f34dd,687ed1b7e638a4cbf2f02089,68802e95754069ae6a3e6146,,,,,,,,,,,,,37,1,,./stim/wavs/mexican_mismatch_interrogative-total-yn_La-maestra-vive-en-Paris.wav,,,,,,,,,,,,,,,,,,,,,,404.4981,407.5331,1,1,2.5129,,0,58,58,36,1,0,mexican,,,,,,,,,,,,,,,,,,,,,,,,,,,,,,,,,,,,,,,,,,,,,,,,,,,,,,,,
,,,,,,,,,646a74a7aadc8d532a2f34dd,spanish,13 or older,click here to respond,no,2025-07-22_20h37.50.231,empathy_intonation_perc,2024.2.4,Linux x86_64,59.88023952,646a74a7aadc8d532a2f34dd,687ed1b7e638a4cbf2f02089,68802e95754069ae6a3e6146,,,,,,,,,,,,,16,1,,./stim/wavs/mexican_match_interrogative-total-yn_Emilio-ama-la-marcha.wav,,,,,,,,,,,,,,,,,,,,,,407.5351,409.9469,1,1,1.8845,,0,59,59,15,1,0,mexican,,,,,,,,,,,,,,,,,,,,,,,,,,,,,,,,,,,,,,,,,,,,,,,,,,,,,,,,
,,,,,,,,,646a74a7aadc8d532a2f34dd,spanish,13 or older,click here to respond,no,2025-07-22_20h37.50.231,empathy_intonation_perc,2024.2.4,Linux x86_64,59.88023952,646a74a7aadc8d532a2f34dd,687ed1b7e638a4cbf2f02089,68802e95754069ae6a3e6146,,,,,,,,,,,,,75,0,,./stim/wavs/cuban_mismatch_declarative-broad-focus_El-hombre-mira-la-luna.wav,,,,,,,,,,,,,,,,,,,,,,409.9484,411.9478,0,1,1.4657,,0,60,60,74,1,0,cuban,,,,,,,,,,,,,,,,,,,,,,,,,,,,,,,,,,,,,,,,,,,,,,,,,,,,,,,,
,,,,,,,,,646a74a7aadc8d532a2f34dd,spanish,13 or older,click here to respond,no,2025-07-22_20h37.50.231,empathy_intonation_perc,2024.2.4,Linux x86_64,59.88023952,646a74a7aadc8d532a2f34dd,687ed1b7e638a4cbf2f02089,68802e95754069ae6a3e6146,,,,,,,,,,,,,18,1,,./stim/wavs/mexican_match_interrogative-total-yn_Marta-abre-el-regalo.wav,,,,,,,,,,,,,,,,,,,,,,411.9489,414.0138,1,1,1.5324,,0,61,61,17,1,0,mexican,,,,,,,,,,,,,,,,,,,,,,,,,,,,,,,,,,,,,,,,,,,,,,,,,,,,,,,,
,,,,,,,,,646a74a7aadc8d532a2f34dd,spanish,13 or older,click here to respond,no,2025-07-22_20h37.50.231,empathy_intonation_perc,2024.2.4,Linux x86_64,59.88023952,646a74a7aadc8d532a2f34dd,687ed1b7e638a4cbf2f02089,68802e95754069ae6a3e6146,,,,,,,,,,,,,5,1,,./stim/wavs/castilian_match_interrogative-total-yn_Mariano-habla-del-tiempo.wav,,,,,,,,,,,,,,,,,,,,,,414.0155,416.4473,1,1,1.901,,0,62,62,4,1,0,castilian,,,,,,,,,,,,,,,,,,,,,,,,,,,,,,,,,,,,,,,,,,,,,,,,,,,,,,,,
,,,,,,,,,646a74a7aadc8d532a2f34dd,spanish,13 or older,click here to respond,no,2025-07-22_20h37.50.231,empathy_intonation_perc,2024.2.4,Linux x86_64,59.88023952,646a74a7aadc8d532a2f34dd,687ed1b7e638a4cbf2f02089,68802e95754069ae6a3e6146,,,,,,,,,,,,,38,1,,./stim/wavs/mexican_mismatch_interrogative-total-yn_Mi-novio-viene-del-lago.wav,,,,,,,,,,,,,,,,,,,,,,416.4497,418.8968,1,1,1.9199,,0,63,63,37,1,0,mexican,,,,,,,,,,,,,,,,,,,,,,,,,,,,,,,,,,,,,,,,,,,,,,,,,,,,,,,,
,,,,,,,,,646a74a7aadc8d532a2f34dd,spanish,13 or older,click here to respond,no,2025-07-22_20h37.50.231,empathy_intonation_perc,2024.2.4,Linux x86_64,59.88023952,646a74a7aadc8d532a2f34dd,687ed1b7e638a4cbf2f02089,68802e95754069ae6a3e6146,,,,,,,,,,,,,41,1,,./stim/wavs/puertorican_mismatch_interrogative-total-yn_El-nino-oye-el-rio.wav,,,,,,,,,,,,,,,,,,,,,,418.8977,421.1153,0,0,1.6917,,0,64,64,40,1,1,puertorican,,,,,,,,,,,,,,,,,,,,,,,,,,,,,,,,,,,,,,,,,,,,,,,,,,,,,,,,
,,,,,,,,,646a74a7aadc8d532a2f34dd,spanish,13 or older,click here to respond,no,2025-07-22_20h37.50.231,empathy_intonation_perc,2024.2.4,Linux x86_64,59.88023952,646a74a7aadc8d532a2f34dd,687ed1b7e638a4cbf2f02089,68802e95754069ae6a3e6146,,,,,,,,,,,,,79,0,,./stim/wavs/mexican_mismatch_declarative-broad-focus_El-bebe-comia-muy-bien.wav,,,,,,,,,,,,,,,,,,,,,,421.117,423.5304,0,1,1.8854,,0,65,65,78,1,0,mexican,,,,,,,,,,,,,,,,,,,,,,,,,,,,,,,,,,,,,,,,,,,,,,,,,,,,,,,,
,,,,,,,,,646a74a7aadc8d532a2f34dd,spanish,13 or older,click here to respond,no,2025-07-22_20h37.50.231,empathy_intonation_perc,2024.2.4,Linux x86_64,59.88023952,646a74a7aadc8d532a2f34dd,687ed1b7e638a4cbf2f02089,68802e95754069ae6a3e6146,,,,,,,,,,,,,80,0,,./stim/wavs/mexican_mismatch_declarative-broad-focus_El-hombre-mira-la-luna.wav,,,,,,,,,,,,,,,,,,,,,,423.5332,426.0474,0,1,1.9897,,0,66,66,79,1,0,mexican,,,,,,,,,,,,,,,,,,,,,,,,,,,,,,,,,,,,,,,,,,,,,,,,,,,,,,,,
,,,,,,,,,646a74a7aadc8d532a2f34dd,spanish,13 or older,click here to respond,no,2025-07-22_20h37.50.231,empathy_intonation_perc,2024.2.4,Linux x86_64,59.88023952,646a74a7aadc8d532a2f34dd,687ed1b7e638a4cbf2f02089,68802e95754069ae6a3e6146,,,,,,,,,,,,,55,0,,./stim/wavs/cuban_match_declarative-broad-focus_Mariano-habla-del-tiempo.wav,,,,,,,,,,,,,,,,,,,,,,426.0492,428.4472,0,1,1.8704,,0,67,67,54,1,0,cuban,,,,,,,,,,,,,,,,,,,,,,,,,,,,,,,,,,,,,,,,,,,,,,,,,,,,,,,,
,,,,,,,,,646a74a7aadc8d532a2f34dd,spanish,13 or older,click here to respond,no,2025-07-22_20h37.50.231,empathy_intonation_perc,2024.2.4,Linux x86_64,59.88023952,646a74a7aadc8d532a2f34dd,687ed1b7e638a4cbf2f02089,68802e95754069ae6a3e6146,,,,,,,,,,,,,48,0,,./stim/wavs/castilian_match_declarative-broad-focus_Maria-bebe-el-vino.wav,,,,,,,,,,,,,,,,,,,,,,428.4481,430.5304,0,1,1.5511,,0,68,68,47,1,0,castilian,,,,,,,,,,,,,,,,,,,,,,,,,,,,,,,,,,,,,,,,,,,,,,,,,,,,,,,,
,,,,,,,,,646a74a7aadc8d532a2f34dd,spanish,13 or older,click here to respond,no,2025-07-22_20h37.50.231,empathy_intonation_perc,2024.2.4,Linux x86_64,59.88023952,646a74a7aadc8d532a2f34dd,687ed1b7e638a4cbf2f02089,68802e95754069ae6a3e6146,,,,,,,,,,,,,85,0,,./stim/wavs/puertorican_mismatch_declarative-broad-focus_El-hombre-mira-la-luna.wav,,,,,,,,,,,,,,,,,,,,,,430.5319,433.0657,0,1,2.0117,,0,69,69,84,1,0,puertorican,,,,,,,,,,,,,,,,,,,,,,,,,,,,,,,,,,,,,,,,,,,,,,,,,,,,,,,,
,,,,,,,,,646a74a7aadc8d532a2f34dd,spanish,13 or older,click here to respond,no,2025-07-22_20h37.50.231,empathy_intonation_perc,2024.2.4,Linux x86_64,59.88023952,646a74a7aadc8d532a2f34dd,687ed1b7e638a4cbf2f02089,68802e95754069ae6a3e6146,,,,,,,,,,,,,63,0,,./stim/wavs/puertorican_match_declarative-broad-focus_Ana-lleva-el-abrigo.wav,,,,,,,,,,,,,,,,,,,,,,433.0672,435.4808,0,1,1.8845,,0,70,70,62,1,0,puertorican,,,,,,,,,,,,,,,,,,,,,,,,,,,,,,,,,,,,,,,,,,,,,,,,,,,,,,,,
,,,,,,,,,646a74a7aadc8d532a2f34dd,spanish,13 or older,click here to respond,no,2025-07-22_20h37.50.231,empathy_intonation_perc,2024.2.4,Linux x86_64,59.88023952,646a74a7aadc8d532a2f34dd,687ed1b7e638a4cbf2f02089,68802e95754069ae6a3e6146,,,,,,,,,,,,,35,1,,./stim/wavs/mexican_mismatch_interrogative-total-yn_El-hombre-mira-la-luna.wav,,,,,,,,,,,,,,,,,,,,,,435.4822,437.8473,1,1,1.8357,,0,71,71,34,1,0,mexican,,,,,,,,,,,,,,,,,,,,,,,,,,,,,,,,,,,,,,,,,,,,,,,,,,,,,,,,
,,,,,,,,,646a74a7aadc8d532a2f34dd,spanish,13 or older,click here to respond,no,2025-07-22_20h37.50.231,empathy_intonation_perc,2024.2.4,Linux x86_64,59.88023952,646a74a7aadc8d532a2f34dd,687ed1b7e638a4cbf2f02089,68802e95754069ae6a3e6146,,,,,,,,,,,,,21,1,,./stim/wavs/puertorican_match_interrogative-total-yn_David-leia-el-libro.wav,,,,,,,,,,,,,,,,,,,,,,437.8503,440.0312,0,0,1.6496,,0,72,72,20,1,1,puertorican,,,,,,,,,,,,,,,,,,,,,,,,,,,,,,,,,,,,,,,,,,,,,,,,,,,,,,,,
,,,,,,,,,646a74a7aadc8d532a2f34dd,spanish,13 or older,click here to respond,no,2025-07-22_20h37.50.231,empathy_intonation_perc,2024.2.4,Linux x86_64,59.88023952,646a74a7aadc8d532a2f34dd,687ed1b7e638a4cbf2f02089,68802e95754069ae6a3e6146,,,,,,,,,,,,,29,1,,./stim/wavs/castilian_mismatch_interrogative-total-yn_Mi-tia-odia-la-lluvia.wav,,,,,,,,,,,,,,,,,,,,,,440.0324,442.2087,1,1,1.6514,,0,73,73,28,1,0,castilian,,,,,,,,,,,,,,,,,,,,,,,,,,,,,,,,,,,,,,,,,,,,,,,,,,,,,,,,
,,,,,,,,,646a74a7aadc8d532a2f34dd,spanish,13 or older,click here to respond,no,2025-07-22_20h37.50.231,empathy_intonation_perc,2024.2.4,Linux x86_64,59.88023952,646a74a7aadc8d532a2f34dd,687ed1b7e638a4cbf2f02089,68802e95754069ae6a3e6146,,,,,,,,,,,,,74,0,,./stim/wavs/cuban_mismatch_declarative-broad-focus_El-bebe-comia-muy-bien.wav,,,,,,,,,,,,,,,,,,,,,,442.21,444.3643,0,1,1.642,,0,74,74,73,1,0,cuban,,,,,,,,,,,,,,,,,,,,,,,,,,,,,,,,,,,,,,,,,,,,,,,,,,,,,,,,
,,,,,,,,,646a74a7aadc8d532a2f34dd,spanish,13 or older,click here to respond,no,2025-07-22_20h37.50.231,empathy_intonation_perc,2024.2.4,Linux x86_64,59.88023952,646a74a7aadc8d532a2f34dd,687ed1b7e638a4cbf2f02089,68802e95754069ae6a3e6146,,,,,,,,,,,,,47,0,,./stim/wavs/castilian_match_declarative-broad-focus_Manuela-vende-el-carro.wav,,,,,,,,,,,,,,,,,,,,,,444.3656,446.7169,0,1,1.8271,,0,75,75,46,1,0,castilian,,,,,,,,,,,,,,,,,,,,,,,,,,,,,,,,,,,,,,,,,,,,,,,,,,,,,,,,
,,,,,,,,,646a74a7aadc8d532a2f34dd,spanish,13 or older,click here to respond,no,2025-07-22_20h37.50.231,empathy_intonation_perc,2024.2.4,Linux x86_64,59.88023952,646a74a7aadc8d532a2f34dd,687ed1b7e638a4cbf2f02089,68802e95754069ae6a3e6146,,,,,,,,,,,,,78,0,,./stim/wavs/cuban_mismatch_declarative-broad-focus_Mi-tia-odia-la-lluvia.wav,,,,,,,,,,,,,,,,,,,,,,446.7203,449.1008,0,1,1.8597,,0,76,76,77,1,0,cuban,,,,,,,,,,,,,,,,,,,,,,,,,,,,,,,,,,,,,,,,,,,,,,,,,,,,,,,,
,,,,,,,,,646a74a7aadc8d532a2f34dd,spanish,13 or older,click here to respond,no,2025-07-22_20h37.50.231,empathy_intonation_perc,2024.2.4,Linux x86_64,59.88023952,646a74a7aadc8d532a2f34dd,687ed1b7e638a4cbf2f02089,68802e95754069ae6a3e6146,,,,,,,,,,,,,64,0,,./stim/wavs/puertorican_match_declarative-broad-focus_Daniel-iba-a-Bolivia.wav,,,,,,,,,,,,,,,,,,,,,,449.102,451.3298,0,1,1.6979,,0,77,77,63,1,0,puertorican,,,,,,,,,,,,,,,,,,,,,,,,,,,,,,,,,,,,,,,,,,,,,,,,,,,,,,,,
,,,,,,,,,646a74a7aadc8d532a2f34dd,spanish,13 or older,click here to respond,no,2025-07-22_20h37.50.231,empathy_intonation_perc,2024.2.4,Linux x86_64,59.88023952,646a74a7aadc8d532a2f34dd,687ed1b7e638a4cbf2f02089,68802e95754069ae6a3e6146,,,,,,,,,,,,,24,1,,./stim/wavs/puertorican_match_interrogative-total-yn_Maria-bebe-el-vino.wav,,,,,,,,,,,,,,,,,,,,,,451.3307,453.3968,1,1,1.5313,,0,78,78,23,1,1,puertorican,,,,,,,,,,,,,,,,,,,,,,,,,,,,,,,,,,,,,,,,,,,,,,,,,,,,,,,,
,,,,,,,,,646a74a7aadc8d532a2f34dd,spanish,13 or older,click here to respond,no,2025-07-22_20h37.50.231,empathy_intonation_perc,2024.2.4,Linux x86_64,59.88023952,646a74a7aadc8d532a2f34dd,687ed1b7e638a4cbf2f02089,68802e95754069ae6a3e6146,,,,,,,,,,,,,36,1,,./stim/wavs/mexican_mismatch_interrogative-total-yn_El-nino-oye-el-rio.wav,,,,,,,,,,,,,,,,,,,,,,453.3983,455.48,1,1,1.5534,,0,79,79,35,1,0,mexican,,,,,,,,,,,,,,,,,,,,,,,,,,,,,,,,,,,,,,,,,,,,,,,,,,,,,,,,
,,,,,,,,,646a74a7aadc8d532a2f34dd,spanish,13 or older,click here to respond,no,2025-07-22_20h37.50.231,empathy_intonation_perc,2024.2.4,Linux x86_64,59.88023952,646a74a7aadc8d532a2f34dd,687ed1b7e638a4cbf2f02089,68802e95754069ae6a3e6146,,,,,,,,,,,,,61,0,,./stim/wavs/mexican_match_declarative-broad-focus_Mariano-habla-del-tiempo.wav,,,,,,,,,,,,,,,,,,,,,,455.4812,457.5636,0,1,1.552,,0,80,80,60,1,0,mexican,,,,,,,,,,,,,,,,,,,,,,,,,,,,,,,,,,,,,,,,,,,,,,,,,,,,,,,,
,,,,,,,,,646a74a7aadc8d532a2f34dd,spanish,13 or older,click here to respond,no,2025-07-22_20h37.50.231,empathy_intonation_perc,2024.2.4,Linux x86_64,59.88023952,646a74a7aadc8d532a2f34dd,687ed1b7e638a4cbf2f02089,68802e95754069ae6a3e6146,,,,,,,,,,,,,30,1,,./stim/wavs/cuban_mismatch_interrogative-total-yn_El-hombre-mira-la-luna.wav,,,,,,,,,,,,,,,,,,,,,,457.5659,459.8138,0,0,1.7178,,0,81,81,29,1,1,cuban,,,,,,,,,,,,,,,,,,,,,,,,,,,,,,,,,,,,,,,,,,,,,,,,,,,,,,,,
,,,,,,,,,646a74a7aadc8d532a2f34dd,spanish,13 or older,click here to respond,no,2025-07-22_20h37.50.231,empathy_intonation_perc,2024.2.4,Linux x86_64,59.88023952,646a74a7aadc8d532a2f34dd,687ed1b7e638a4cbf2f02089,68802e95754069ae6a3e6146,,,,,,,,,,,,,33,1,,./stim/wavs/cuban_mismatch_interrogative-total-yn_Mi-novio-viene-del-lago.wav,,,,,,,,,,,,,,,,,,,,,,459.8162,461.7806,0,0,1.4318,,0,82,82,32,1,1,cuban,,,,,,,,,,,,,,,,,,,,,,,,,,,,,,,,,,,,,,,,,,,,,,,,,,,,,,,,
,,,,,,,,,646a74a7aadc8d532a2f34dd,spanish,13 or older,click here to respond,no,2025-07-22_20h37.50.231,empathy_intonation_perc,2024.2.4,Linux x86_64,59.88023952,646a74a7aadc8d532a2f34dd,687ed1b7e638a4cbf2f02089,68802e95754069ae6a3e6146,,,,,,,,,,,,,45,0,,./stim/wavs/castilian_match_declarative-broad-focus_David-leia-el-libro.wav,,,,,,,,,,,,,,,,,,,,,,461.782,464.0807,0,1,1.7676,,0,83,83,44,1,0,castilian,,,,,,,,,,,,,,,,,,,,,,,,,,,,,,,,,,,,,,,,,,,,,,,,,,,,,,,,
,,,,,,,,,646a74a7aadc8d532a2f34dd,spanish,13 or older,click here to respond,no,2025-07-22_20h37.50.231,empathy_intonation_perc,2024.2.4,Linux x86_64,59.88023952,646a74a7aadc8d532a2f34dd,687ed1b7e638a4cbf2f02089,68802e95754069ae6a3e6146,,,,,,,,,,,,,15,1,,./stim/wavs/mexican_match_interrogative-total-yn_David-leia-el-libro.wav,,,,,,,,,,,,,,,,,,,,,,464.0827,466.4309,1,1,1.8195,,0,84,84,14,1,0,mexican,,,,,,,,,,,,,,,,,,,,,,,,,,,,,,,,,,,,,,,,,,,,,,,,,,,,,,,,
,,,,,,,,,646a74a7aadc8d532a2f34dd,spanish,13 or older,click here to respond,no,2025-07-22_20h37.50.231,empathy_intonation_perc,2024.2.4,Linux x86_64,59.88023952,646a74a7aadc8d532a2f34dd,687ed1b7e638a4cbf2f02089,68802e95754069ae6a3e6146,,,,,,,,,,,,,70,0,,./stim/wavs/castilian_mismatch_declarative-broad-focus_La-maestra-vive-en-Paris.wav,,,,,,,,,,,,,,,,,,,,,,466.4325,468.7484,0,1,1.7901,,0,85,85,69,1,0,castilian,,,,,,,,,,,,,,,,,,,,,,,,,,,,,,,,,,,,,,,,,,,,,,,,,,,,,,,,
,,,,,,,,,646a74a7aadc8d532a2f34dd,spanish,13 or older,click here to respond,no,2025-07-22_20h37.50.231,empathy_intonation_perc,2024.2.4,Linux x86_64,59.88023952,646a74a7aadc8d532a2f34dd,687ed1b7e638a4cbf2f02089,68802e95754069ae6a3e6146,,,,,,,,,,,,,60,0,,./stim/wavs/mexican_match_declarative-broad-focus_Emilio-ama-la-marcha.wav,,,,,,,,,,,,,,,,,,,,,,468.7504,471.6802,0,1,2.4023,,0,86,86,59,1,0,mexican,,,,,,,,,,,,,,,,,,,,,,,,,,,,,,,,,,,,,,,,,,,,,,,,,,,,,,,,
,,,,,,,,,646a74a7aadc8d532a2f34dd,spanish,13 or older,click here to respond,no,2025-07-22_20h37.50.231,empathy_intonation_perc,2024.2.4,Linux x86_64,59.88023952,646a74a7aadc8d532a2f34dd,687ed1b7e638a4cbf2f02089,68802e95754069ae6a3e6146,,,,,,,,,,,,,32,1,,./stim/wavs/cuban_mismatch_interrogative-total-yn_Mi-madre-come-la-fruta.wav,,,,,,,,,,,,,,,,,,,,,,471.683,473.965,0,0,1.7487,,0,87,87,31,1,1,cuban,,,,,,,,,,,,,,,,,,,,,,,,,,,,,,,,,,,,,,,,,,,,,,,,,,,,,,,,
,,,,,,,"Great! Now we will move on. The next task consists of about 60 trials, in each of which you will see a string of letters. 
  
  Your task is to decide whether this is a real Spanish word or not.", (press the spacebar to continue),646a74a7aadc8d532a2f34dd,spanish,13 or older,click here to respond,no,2025-07-22_20h37.50.231,empathy_intonation_perc,2024.2.4,Linux x86_64,59.88023952,646a74a7aadc8d532a2f34dd,687ed1b7e638a4cbf2f02089,68802e95754069ae6a3e6146,,,,,,,,,,,,,,,,,,,,,,,,,,,,,,,,,,,,,,,,,,,,,,,,,,,473.9747,480.0322,0,0,0,0,1,,,,,,,,,,,,,,,,,,,,,,,,,,,,,,,,,,,,,,,,,,,,,,,,,
,,,,,,,"If you think it is an existing Spanish word, you type '1' (for 'REAL'), and if you think it is not an existing Spanish word, you type '0' (for 'FAKE').", (press the spacebar to continue),646a74a7aadc8d532a2f34dd,spanish,13 or older,click here to respond,no,2025-07-22_20h37.50.231,empathy_intonation_perc,2024.2.4,Linux x86_64,59.88023952,646a74a7aadc8d532a2f34dd,687ed1b7e638a4cbf2f02089,68802e95754069ae6a3e6146,,,,,,,,,,,,,,,,,,,,,,,,,,,,,,,,,,,,,,,,,,,,,,,,,,,480.0372,483.0969,0,1,1,1,1,,,,,,,,,,,,,,,,,,,,,,,,,,,,,,,,,,,,,,,,,,,,,,,,,
,,,,,,,"If you are sure that the word exists, even though you don’t know its exact meaning, you may still respond '1' (REAL). 
  
  But if you are not sure if it is an existing word, you should respond '0' (FAKE).
  
  Let's do a practice round...", (press the spacebar to continue),646a74a7aadc8d532a2f34dd,spanish,13 or older,click here to respond,no,2025-07-22_20h37.50.231,empathy_intonation_perc,2024.2.4,Linux x86_64,59.88023952,646a74a7aadc8d532a2f34dd,687ed1b7e638a4cbf2f02089,68802e95754069ae6a3e6146,,,,,,,,,,,,,,,,,,,,,,,,,,,,,,,,,,,,,,,,,,,,,,,,,,,483.1022,489.2136,0,2,2,2,1,,,,,,,,,,,,,,,,,,,,,,,,,,,,,,,,,,,,,,,,,,,,,,,,,
,,,,,,,,,646a74a7aadc8d532a2f34dd,spanish,13 or older,click here to respond,no,2025-07-22_20h37.50.231,empathy_intonation_perc,2024.2.4,Linux x86_64,59.88023952,646a74a7aadc8d532a2f34dd,687ed1b7e638a4cbf2f02089,68802e95754069ae6a3e6146,,,,,,,,,,,,,,0,,,,,,,,,,,,,,,,,,,,,,,,,,,,,,,,,,,,,,,,,,,,489.2319,493.2523,1,0,3.4842,,493.2534,494.2484,0,0,0,0,1,0,depiste,REAL,FAKE,,,,,,,,,,,,,,,,,,,,,,,,,,,,,,,,
,,,,,,,,,646a74a7aadc8d532a2f34dd,spanish,13 or older,click here to respond,no,2025-07-22_20h37.50.231,empathy_intonation_perc,2024.2.4,Linux x86_64,59.88023952,646a74a7aadc8d532a2f34dd,687ed1b7e638a4cbf2f02089,68802e95754069ae6a3e6146,,,,,,,,,,,,,,1,,,,,,,,,,,,,,,,,,,,,,,,,,,,,,,,,,,,,,,,,,,,494.2516,496.6985,1,1,1.9208,,496.7,497.6971,0,1,1,1,1,0,sí,REAL,FAKE,,,,,,,,,,,,,,,,,,,,,,,,,,,,,,,,
,,,,,,,,,646a74a7aadc8d532a2f34dd,spanish,13 or older,click here to respond,no,2025-07-22_20h37.50.231,empathy_intonation_perc,2024.2.4,Linux x86_64,59.88023952,646a74a7aadc8d532a2f34dd,687ed1b7e638a4cbf2f02089,68802e95754069ae6a3e6146,,,,,,,,,,,,,,0,,,,,,,,,,,,,,,,,,,,,,,,,,,,,,,,,,,,,,,,,,,,497.7012,500.4138,0,1,2.1759,,500.414,501.414,0,2,2,2,1,0,coné,REAL,FAKE,,,,,,,,,,,,,,,,,,,,,,,,,,,,,,,,
,,,,,,,,,646a74a7aadc8d532a2f34dd,spanish,13 or older,click here to respond,no,2025-07-22_20h37.50.231,empathy_intonation_perc,2024.2.4,Linux x86_64,59.88023952,646a74a7aadc8d532a2f34dd,687ed1b7e638a4cbf2f02089,68802e95754069ae6a3e6146,,,,,,,,,,,,,,0,,,,,,,,,,,,,,,,,,,,,,,,,,,,,,,,,,,,,,,,,,,,501.4159,503.0475,0,1,1.0954,,503.0477,504.0471,0,3,3,3,1,0,calpar,REAL,FAKE,,,,,,,,,,,,,,,,,,,,,,,,,,,,,,,,
,,,,,,,,,646a74a7aadc8d532a2f34dd,spanish,13 or older,click here to respond,no,2025-07-22_20h37.50.231,empathy_intonation_perc,2024.2.4,Linux x86_64,59.88023952,646a74a7aadc8d532a2f34dd,687ed1b7e638a4cbf2f02089,68802e95754069ae6a3e6146,,,,,,,,,,,,,,0,,,,,,,,,,,,,,,,,,,,,,,,,,,,,,,,,,,,,,,,,,,,504.0497,505.6803,1,0,1.0945,,505.682,506.6804,0,4,4,4,1,0,joten,REAL,FAKE,,,,,,,,,,,,,,,,,,,,,,,,,,,,,,,,
,,,,,,,,,646a74a7aadc8d532a2f34dd,spanish,13 or older,click here to respond,no,2025-07-22_20h37.50.231,empathy_intonation_perc,2024.2.4,Linux x86_64,59.88023952,646a74a7aadc8d532a2f34dd,687ed1b7e638a4cbf2f02089,68802e95754069ae6a3e6146,,,,,,,,,,,,,,1,,,,,,,,,,,,,,,,,,,,,,,,,,,,,,,,,,,,,,,,,,,,506.6836,508.497,0,0,1.277,,508.4974,509.4981,0,5,5,5,1,0,sacapuntas,REAL,FAKE,,,,,,,,,,,,,,,,,,,,,,,,,,,,,,,,
,,,,,,,,,646a74a7aadc8d532a2f34dd,spanish,13 or older,click here to respond,no,2025-07-22_20h37.50.231,empathy_intonation_perc,2024.2.4,Linux x86_64,59.88023952,646a74a7aadc8d532a2f34dd,687ed1b7e638a4cbf2f02089,68802e95754069ae6a3e6146,,,,,,,,,,,,,,0,,,,,,,,,,,,,,,,,,,,,,,,,,,,,,,,,,,,,,,,,,,,509.5019,511.2144,1,0,1.1861,,511.2146,512.2143,0,6,6,6,1,0,priba,REAL,FAKE,,,,,,,,,,,,,,,,,,,,,,,,,,,,,,,,
,,,,,,,,,646a74a7aadc8d532a2f34dd,spanish,13 or older,click here to respond,no,2025-07-22_20h37.50.231,empathy_intonation_perc,2024.2.4,Linux x86_64,59.88023952,646a74a7aadc8d532a2f34dd,687ed1b7e638a4cbf2f02089,68802e95754069ae6a3e6146,,,,,,,,,,,,,,0,,,,,,,,,,,,,,,,,,,,,,,,,,,,,,,,,,,,,,,,,,,,512.2182,514.5168,1,0,1.764,,514.5169,515.514,0,7,7,7,1,0,pelasula,REAL,FAKE,,,,,,,,,,,,,,,,,,,,,,,,,,,,,,,,
,,,,,,,,,646a74a7aadc8d532a2f34dd,spanish,13 or older,click here to respond,no,2025-07-22_20h37.50.231,empathy_intonation_perc,2024.2.4,Linux x86_64,59.88023952,646a74a7aadc8d532a2f34dd,687ed1b7e638a4cbf2f02089,68802e95754069ae6a3e6146,,,,,,,,,,,,,,1,,,,,,,,,,,,,,,,,,,,,,,,,,,,,,,,,,,,,,,,,,,,515.5182,517.2532,1,1,1.2009,,517.2551,518.2539,0,8,8,8,1,0,bien,REAL,FAKE,,,,,,,,,,,,,,,,,,,,,,,,,,,,,,,,
,,,,,,,,,646a74a7aadc8d532a2f34dd,spanish,13 or older,click here to respond,no,2025-07-22_20h37.50.231,empathy_intonation_perc,2024.2.4,Linux x86_64,59.88023952,646a74a7aadc8d532a2f34dd,687ed1b7e638a4cbf2f02089,68802e95754069ae6a3e6146,,,,,,,,,,,,,,1,,,,,,,,,,,,,,,,,,,,,,,,,,,,,,,,,,,,,,,,,,,,518.2574,519.7012,1,1,0.9135,,519.7014,520.7022,0,9,9,9,1,0,casa,REAL,FAKE,,,,,,,,,,,,,,,,,,,,,,,,,,,,,,,,
,,,,,,,,,646a74a7aadc8d532a2f34dd,spanish,13 or older,click here to respond,no,2025-07-22_20h37.50.231,empathy_intonation_perc,2024.2.4,Linux x86_64,59.88023952,646a74a7aadc8d532a2f34dd,687ed1b7e638a4cbf2f02089,68802e95754069ae6a3e6146,,,,,,,,,,,,,,0,,,,,,,,,,,,,,,,,,,,,,,,,,,,,,,,,,,,,,,,,,,,520.7051,522.4179,1,0,1.1817,,522.4208,523.4138,0,10,10,10,1,0,lejo,REAL,FAKE,,,,,,,,,,,,,,,,,,,,,,,,,,,,,,,,
,,,,,,,,,646a74a7aadc8d532a2f34dd,spanish,13 or older,click here to respond,no,2025-07-22_20h37.50.231,empathy_intonation_perc,2024.2.4,Linux x86_64,59.88023952,646a74a7aadc8d532a2f34dd,687ed1b7e638a4cbf2f02089,68802e95754069ae6a3e6146,,,,,,,,,,,,,,0,,,,,,,,,,,,,,,,,,,,,,,,,,,,,,,,,,,,,,,,,,,,523.4185,525.3394,0,1,1.3854,,525.3462,526.3305,0,11,11,11,1,0,pretantas,REAL,FAKE,,,,,,,,,,,,,,,,,,,,,,,,,,,,,,,,
,,,,,,,,,646a74a7aadc8d532a2f34dd,spanish,13 or older,click here to respond,no,2025-07-22_20h37.50.231,empathy_intonation_perc,2024.2.4,Linux x86_64,59.88023952,646a74a7aadc8d532a2f34dd,687ed1b7e638a4cbf2f02089,68802e95754069ae6a3e6146,,,,,,,,,,,,,,,,,,,,,,,,,,,,,,,,,,,,,,,,,,,,,,,,,,,,,,,,,,,,,,,,,,,,,,,,,,,526.3312,527.8304,,,,,,,,,,,,,,,,,,,,,,,,,,,,,,
,,,,,,,,,646a74a7aadc8d532a2f34dd,spanish,13 or older,click here to respond,no,2025-07-22_20h37.50.231,empathy_intonation_perc,2024.2.4,Linux x86_64,59.88023952,646a74a7aadc8d532a2f34dd,687ed1b7e638a4cbf2f02089,68802e95754069ae6a3e6146,,,,,,,,,,,,,,1,,,,,,,,,,,,,,,,,,,,,,,,,,,,,,,,,,,,,,,,,,,,,,,,,,,,,,,,,36,loro,,,,,527.8589,529.5972,0,0,1.2108,,0,0,0,35,1,REAL,FAKE,,,,,,,,,,,,,,,,,
,,,,,,,,,646a74a7aadc8d532a2f34dd,spanish,13 or older,click here to respond,no,2025-07-22_20h37.50.231,empathy_intonation_perc,2024.2.4,Linux x86_64,59.88023952,646a74a7aadc8d532a2f34dd,687ed1b7e638a4cbf2f02089,68802e95754069ae6a3e6146,,,,,,,,,,,,,,0,,,,,,,,,,,,,,,,,,,,,,,,,,,,,,,,,,,,,,,,,,,,,,,,,,,,,,,,,27,acutación,,,,,529.6015,532.0481,1,0,1.9166,,0,1,1,26,1,REAL,FAKE,,,,,,,,,,,,,,,,,
,,,,,,,,,646a74a7aadc8d532a2f34dd,spanish,13 or older,click here to respond,no,2025-07-22_20h37.50.231,empathy_intonation_perc,2024.2.4,Linux x86_64,59.88023952,646a74a7aadc8d532a2f34dd,687ed1b7e638a4cbf2f02089,68802e95754069ae6a3e6146,,,,,,,,,,,,,,1,,,,,,,,,,,,,,,,,,,,,,,,,,,,,,,,,,,,,,,,,,,,,,,,,,,,,,,,,46,martillo,,,,,532.0521,533.7316,1,1,1.1426,,0,2,2,45,1,REAL,FAKE,,,,,,,,,,,,,,,,,
,,,,,,,,,646a74a7aadc8d532a2f34dd,spanish,13 or older,click here to respond,no,2025-07-22_20h37.50.231,empathy_intonation_perc,2024.2.4,Linux x86_64,59.88023952,646a74a7aadc8d532a2f34dd,687ed1b7e638a4cbf2f02089,68802e95754069ae6a3e6146,,,,,,,,,,,,,,1,,,,,,,,,,,,,,,,,,,,,,,,,,,,,,,,,,,,,,,,,,,,,,,,,,,,,,,,,85,laúd,,,,,533.7336,535.2805,0,0,1.0057,,0,3,3,84,1,REAL,FAKE,,,,,,,,,,,,,,,,,
,,,,,,,,,646a74a7aadc8d532a2f34dd,spanish,13 or older,click here to respond,no,2025-07-22_20h37.50.231,empathy_intonation_perc,2024.2.4,Linux x86_64,59.88023952,646a74a7aadc8d532a2f34dd,687ed1b7e638a4cbf2f02089,68802e95754069ae6a3e6146,,,,,,,,,,,,,,1,,,,,,,,,,,,,,,,,,,,,,,,,,,,,,,,,,,,,,,,,,,,,,,,,,,,,,,,,3,pulmones,,,,,535.2833,536.9972,1,1,1.1826,,0,4,4,2,1,REAL,FAKE,,,,,,,,,,,,,,,,,
,,,,,,,,,646a74a7aadc8d532a2f34dd,spanish,13 or older,click here to respond,no,2025-07-22_20h37.50.231,empathy_intonation_perc,2024.2.4,Linux x86_64,59.88023952,646a74a7aadc8d532a2f34dd,687ed1b7e638a4cbf2f02089,68802e95754069ae6a3e6146,,,,,,,,,,,,,,1,,,,,,,,,,,,,,,,,,,,,,,,,,,,,,,,,,,,,,,,,,,,,,,,,,,,,,,,,55,nevar,,,,,537,539.2975,1,1,1.7685,,0,5,5,54,1,REAL,FAKE,,,,,,,,,,,,,,,,,
,,,,,,,,,646a74a7aadc8d532a2f34dd,spanish,13 or older,click here to respond,no,2025-07-22_20h37.50.231,empathy_intonation_perc,2024.2.4,Linux x86_64,59.88023952,646a74a7aadc8d532a2f34dd,687ed1b7e638a4cbf2f02089,68802e95754069ae6a3e6146,,,,,,,,,,,,,,1,,,,,,,,,,,,,,,,,,,,,,,,,,,,,,,,,,,,,,,,,,,,,,,,,,,,,,,,,61,seda,,,,,539.3002,541.3472,0,0,1.5127,,0,6,6,60,1,REAL,FAKE,,,,,,,,,,,,,,,,,
,,,,,,,,,646a74a7aadc8d532a2f34dd,spanish,13 or older,click here to respond,no,2025-07-22_20h37.50.231,empathy_intonation_perc,2024.2.4,Linux x86_64,59.88023952,646a74a7aadc8d532a2f34dd,687ed1b7e638a4cbf2f02089,68802e95754069ae6a3e6146,,,,,,,,,,,,,,1,,,,,,,,,,,,,,,,,,,,,,,,,,,,,,,,,,,,,,,,,,,,,,,,,,,,,,,,,52,camisa,,,,,541.3496,542.7488,1,1,0.8701,,0,7,7,51,1,REAL,FAKE,,,,,,,,,,,,,,,,,
,,,,,,,,,646a74a7aadc8d532a2f34dd,spanish,13 or older,click here to respond,no,2025-07-22_20h37.50.231,empathy_intonation_perc,2024.2.4,Linux x86_64,59.88023952,646a74a7aadc8d532a2f34dd,687ed1b7e638a4cbf2f02089,68802e95754069ae6a3e6146,,,,,,,,,,,,,,0,,,,,,,,,,,,,,,,,,,,,,,,,,,,,,,,,,,,,,,,,,,,,,,,,,,,,,,,,8,cadeña,,,,,542.7508,544.8138,1,0,1.5351,,0,8,8,7,1,REAL,FAKE,,,,,,,,,,,,,,,,,
,,,,,,,,,646a74a7aadc8d532a2f34dd,spanish,13 or older,click here to respond,no,2025-07-22_20h37.50.231,empathy_intonation_perc,2024.2.4,Linux x86_64,59.88023952,646a74a7aadc8d532a2f34dd,687ed1b7e638a4cbf2f02089,68802e95754069ae6a3e6146,,,,,,,,,,,,,,0,,,,,,,,,,,,,,,,,,,,,,,,,,,,,,,,,,,,,,,,,,,,,,,,,,,,,,,,,50,flamida,,,,,544.8168,546.2979,0,1,0.9556,,0,9,9,49,1,REAL,FAKE,,,,,,,,,,,,,,,,,
,,,,,,,,,646a74a7aadc8d532a2f34dd,spanish,13 or older,click here to respond,no,2025-07-22_20h37.50.231,empathy_intonation_perc,2024.2.4,Linux x86_64,59.88023952,646a74a7aadc8d532a2f34dd,687ed1b7e638a4cbf2f02089,68802e95754069ae6a3e6146,,,,,,,,,,,,,,0,,,,,,,,,,,,,,,,,,,,,,,,,,,,,,,,,,,,,,,,,,,,,,,,,,,,,,,,,33,pauca,,,,,546.3,547.9135,1,0,1.0829,,0,10,10,32,1,REAL,FAKE,,,,,,,,,,,,,,,,,
,,,,,,,,,646a74a7aadc8d532a2f34dd,spanish,13 or older,click here to respond,no,2025-07-22_20h37.50.231,empathy_intonation_perc,2024.2.4,Linux x86_64,59.88023952,646a74a7aadc8d532a2f34dd,687ed1b7e638a4cbf2f02089,68802e95754069ae6a3e6146,,,,,,,,,,,,,,0,,,,,,,,,,,,,,,,,,,,,,,,,,,,,,,,,,,,,,,,,,,,,,,,,,,,,,,,,42,cadallo,,,,,547.9174,549.8304,1,0,1.3789,,0,11,11,41,1,REAL,FAKE,,,,,,,,,,,,,,,,,
,,,,,,,,,646a74a7aadc8d532a2f34dd,spanish,13 or older,click here to respond,no,2025-07-22_20h37.50.231,empathy_intonation_perc,2024.2.4,Linux x86_64,59.88023952,646a74a7aadc8d532a2f34dd,687ed1b7e638a4cbf2f02089,68802e95754069ae6a3e6146,,,,,,,,,,,,,,0,,,,,,,,,,,,,,,,,,,,,,,,,,,,,,,,,,,,,,,,,,,,,,,,,,,,,,,,,23,lampera,,,,,549.8327,551.614,0,1,1.248,,0,12,12,22,1,REAL,FAKE,,,,,,,,,,,,,,,,,
,,,,,,,,,646a74a7aadc8d532a2f34dd,spanish,13 or older,click here to respond,no,2025-07-22_20h37.50.231,empathy_intonation_perc,2024.2.4,Linux x86_64,59.88023952,646a74a7aadc8d532a2f34dd,687ed1b7e638a4cbf2f02089,68802e95754069ae6a3e6146,,,,,,,,,,,,,,1,,,,,,,,,,,,,,,,,,,,,,,,,,,,,,,,,,,,,,,,,,,,,,,,,,,,,,,,,48,ladrón,,,,,551.6162,553.2117,0,0,1.0664,,0,13,13,47,1,REAL,FAKE,,,,,,,,,,,,,,,,,
,,,,,,,,,646a74a7aadc8d532a2f34dd,spanish,13 or older,click here to respond,no,2025-07-22_20h37.50.231,empathy_intonation_perc,2024.2.4,Linux x86_64,59.88023952,646a74a7aadc8d532a2f34dd,687ed1b7e638a4cbf2f02089,68802e95754069ae6a3e6146,,,,,,,,,,,,,,0,,,,,,,,,,,,,,,,,,,,,,,,,,,,,,,,,,,,,,,,,,,,,,,,,,,,,,,,,58,plaudir,,,,,553.2166,554.9656,1,0,1.2299,,0,14,14,57,1,REAL,FAKE,,,,,,,,,,,,,,,,,
,,,,,,,,,646a74a7aadc8d532a2f34dd,spanish,13 or older,click here to respond,no,2025-07-22_20h37.50.231,empathy_intonation_perc,2024.2.4,Linux x86_64,59.88023952,646a74a7aadc8d532a2f34dd,687ed1b7e638a4cbf2f02089,68802e95754069ae6a3e6146,,,,,,,,,,,,,,1,,,,,,,,,,,,,,,,,,,,,,,,,,,,,,,,,,,,,,,,,,,,,,,,,,,,,,,,,83,guante,,,,,554.9682,556.5641,0,0,1.0687,,0,15,15,82,1,REAL,FAKE,,,,,,,,,,,,,,,,,
,,,,,,,,,646a74a7aadc8d532a2f34dd,spanish,13 or older,click here to respond,no,2025-07-22_20h37.50.231,empathy_intonation_perc,2024.2.4,Linux x86_64,59.88023952,646a74a7aadc8d532a2f34dd,687ed1b7e638a4cbf2f02089,68802e95754069ae6a3e6146,,,,,,,,,,,,,,1,,,,,,,,,,,,,,,,,,,,,,,,,,,,,,,,,,,,,,,,,,,,,,,,,,,,,,,,,80,hormiga,,,,,556.5668,558.0833,0,0,0.9885,,0,16,16,79,1,REAL,FAKE,,,,,,,,,,,,,,,,,
,,,,,,,,,646a74a7aadc8d532a2f34dd,spanish,13 or older,click here to respond,no,2025-07-22_20h37.50.231,empathy_intonation_perc,2024.2.4,Linux x86_64,59.88023952,646a74a7aadc8d532a2f34dd,687ed1b7e638a4cbf2f02089,68802e95754069ae6a3e6146,,,,,,,,,,,,,,0,,,,,,,,,,,,,,,,,,,,,,,,,,,,,,,,,,,,,,,,,,,,,,,,,,,,,,,,,1,terzo,,,,,558.0856,559.4971,1,0,0.881,,0,17,17,0,1,REAL,FAKE,,,,,,,,,,,,,,,,,
,,,,,,,,,646a74a7aadc8d532a2f34dd,spanish,13 or older,click here to respond,no,2025-07-22_20h37.50.231,empathy_intonation_perc,2024.2.4,Linux x86_64,59.88023952,646a74a7aadc8d532a2f34dd,687ed1b7e638a4cbf2f02089,68802e95754069ae6a3e6146,,,,,,,,,,,,,,1,,,,,,,,,,,,,,,,,,,,,,,,,,,,,,,,,,,,,,,,,,,,,,,,,,,,,,,,,5,zapato,,,,,559.5008,561.1168,1,1,1.0889,,0,18,18,4,1,REAL,FAKE,,,,,,,,,,,,,,,,,
,,,,,,,,,646a74a7aadc8d532a2f34dd,spanish,13 or older,click here to respond,no,2025-07-22_20h37.50.231,empathy_intonation_perc,2024.2.4,Linux x86_64,59.88023952,646a74a7aadc8d532a2f34dd,687ed1b7e638a4cbf2f02089,68802e95754069ae6a3e6146,,,,,,,,,,,,,,0,,,,,,,,,,,,,,,,,,,,,,,,,,,,,,,,,,,,,,,,,,,,,,,,,,,,,,,,,79,tropaje,,,,,561.1193,562.5804,0,1,0.9393,,0,19,19,78,1,REAL,FAKE,,,,,,,,,,,,,,,,,
,,,,,,,,,646a74a7aadc8d532a2f34dd,spanish,13 or older,click here to respond,no,2025-07-22_20h37.50.231,empathy_intonation_perc,2024.2.4,Linux x86_64,59.88023952,646a74a7aadc8d532a2f34dd,687ed1b7e638a4cbf2f02089,68802e95754069ae6a3e6146,,,,,,,,,,,,,,0,,,,,,,,,,,,,,,,,,,,,,,,,,,,,,,,,,,,,,,,,,,,,,,,,,,,,,,,,82,empirador,,,,,562.5826,564.614,1,0,1.4958,,0,20,20,81,1,REAL,FAKE,,,,,,,,,,,,,,,,,
,,,,,,,,,646a74a7aadc8d532a2f34dd,spanish,13 or older,click here to respond,no,2025-07-22_20h37.50.231,empathy_intonation_perc,2024.2.4,Linux x86_64,59.88023952,646a74a7aadc8d532a2f34dd,687ed1b7e638a4cbf2f02089,68802e95754069ae6a3e6146,,,,,,,,,,,,,,0,,,,,,,,,,,,,,,,,,,,,,,,,,,,,,,,,,,,,,,,,,,,,,,,,,,,,,,,,4,batillón,,,,,564.6176,566.3328,1,0,1.1854,,0,21,21,3,1,REAL,FAKE,,,,,,,,,,,,,,,,,
,,,,,,,,,646a74a7aadc8d532a2f34dd,spanish,13 or older,click here to respond,no,2025-07-22_20h37.50.231,empathy_intonation_perc,2024.2.4,Linux x86_64,59.88023952,646a74a7aadc8d532a2f34dd,687ed1b7e638a4cbf2f02089,68802e95754069ae6a3e6146,,,,,,,,,,,,,,1,,,,,,,,,,,,,,,,,,,,,,,,,,,,,,,,,,,,,,,,,,,,,,,,,,,,,,,,,51,candado,,,,,566.335,568.3986,1,1,1.534,,0,22,22,50,1,REAL,FAKE,,,,,,,,,,,,,,,,,
,,,,,,,,,646a74a7aadc8d532a2f34dd,spanish,13 or older,click here to respond,no,2025-07-22_20h37.50.231,empathy_intonation_perc,2024.2.4,Linux x86_64,59.88023952,646a74a7aadc8d532a2f34dd,687ed1b7e638a4cbf2f02089,68802e95754069ae6a3e6146,,,,,,,,,,,,,,1,,,,,,,,,,,,,,,,,,,,,,,,,,,,,,,,,,,,,,,,,,,,,,,,,,,,,,,,,15,regar,,,,,568.4012,570.0638,0,0,1.1314,,0,23,23,14,1,REAL,FAKE,,,,,,,,,,,,,,,,,
,,,,,,,,,646a74a7aadc8d532a2f34dd,spanish,13 or older,click here to respond,no,2025-07-22_20h37.50.231,empathy_intonation_perc,2024.2.4,Linux x86_64,59.88023952,646a74a7aadc8d532a2f34dd,687ed1b7e638a4cbf2f02089,68802e95754069ae6a3e6146,,,,,,,,,,,,,,1,,,,,,,,,,,,,,,,,,,,,,,,,,,,,,,,,,,,,,,,,,,,,,,,,,,,,,,,,24,látigo,,,,,570.0664,571.7155,1,1,1.1211,,0,24,24,23,1,REAL,FAKE,,,,,,,,,,,,,,,,,
,,,,,,,,,646a74a7aadc8d532a2f34dd,spanish,13 or older,click here to respond,no,2025-07-22_20h37.50.231,empathy_intonation_perc,2024.2.4,Linux x86_64,59.88023952,646a74a7aadc8d532a2f34dd,687ed1b7e638a4cbf2f02089,68802e95754069ae6a3e6146,,,,,,,,,,,,,,0,,,,,,,,,,,,,,,,,,,,,,,,,,,,,,,,,,,,,,,,,,,,,,,,,,,,,,,,,87,grodo,,,,,571.7206,573.3475,0,1,1.0959,,0,25,25,86,1,REAL,FAKE,,,,,,,,,,,,,,,,,
,,,,,,,,,646a74a7aadc8d532a2f34dd,spanish,13 or older,click here to respond,no,2025-07-22_20h37.50.231,empathy_intonation_perc,2024.2.4,Linux x86_64,59.88023952,646a74a7aadc8d532a2f34dd,687ed1b7e638a4cbf2f02089,68802e95754069ae6a3e6146,,,,,,,,,,,,,,1,,,,,,,,,,,,,,,,,,,,,,,,,,,,,,,,,,,,,,,,,,,,,,,,,,,,,,,,,6,tergiversar,,,,,573.3497,575.1642,0,0,1.2867,,0,26,26,5,1,REAL,FAKE,,,,,,,,,,,,,,,,,
,,,,,,,,,646a74a7aadc8d532a2f34dd,spanish,13 or older,click here to respond,no,2025-07-22_20h37.50.231,empathy_intonation_perc,2024.2.4,Linux x86_64,59.88023952,646a74a7aadc8d532a2f34dd,687ed1b7e638a4cbf2f02089,68802e95754069ae6a3e6146,,,,,,,,,,,,,,1,,,,,,,,,,,,,,,,,,,,,,,,,,,,,,,,,,,,,,,,,,,,,,,,,,,,,,,,,81,pozo,,,,,575.167,576.6312,0,0,0.9296,,0,27,27,80,1,REAL,FAKE,,,,,,,,,,,,,,,,,
,,,,,,,,,646a74a7aadc8d532a2f34dd,spanish,13 or older,click here to respond,no,2025-07-22_20h37.50.231,empathy_intonation_perc,2024.2.4,Linux x86_64,59.88023952,646a74a7aadc8d532a2f34dd,687ed1b7e638a4cbf2f02089,68802e95754069ae6a3e6146,,,,,,,,,,,,,,1,,,,,,,,,,,,,,,,,,,,,,,,,,,,,,,,,,,,,,,,,,,,,,,,,,,,,,,,,25,bisagra,,,,,576.6333,578.0317,0,0,0.8677,,0,28,28,24,1,REAL,FAKE,,,,,,,,,,,,,,,,,
,,,,,,,,,646a74a7aadc8d532a2f34dd,spanish,13 or older,click here to respond,no,2025-07-22_20h37.50.231,empathy_intonation_perc,2024.2.4,Linux x86_64,59.88023952,646a74a7aadc8d532a2f34dd,687ed1b7e638a4cbf2f02089,68802e95754069ae6a3e6146,,,,,,,,,,,,,,0,,,,,,,,,,,,,,,,,,,,,,,,,,,,,,,,,,,,,,,,,,,,,,,,,,,,,,,,,53,vegada,,,,,578.0341,579.747,1,0,1.1806,,0,29,29,52,1,REAL,FAKE,,,,,,,,,,,,,,,,,
,,,,,,,,,646a74a7aadc8d532a2f34dd,spanish,13 or older,click here to respond,no,2025-07-22_20h37.50.231,empathy_intonation_perc,2024.2.4,Linux x86_64,59.88023952,646a74a7aadc8d532a2f34dd,687ed1b7e638a4cbf2f02089,68802e95754069ae6a3e6146,,,,,,,,,,,,,,0,,,,,,,,,,,,,,,,,,,,,,,,,,,,,,,,,,,,,,,,,,,,,,,,,,,,,,,,,47,cartinar,,,,,579.7488,581.414,1,0,1.1294,,0,30,30,46,1,REAL,FAKE,,,,,,,,,,,,,,,,,
,,,,,,,,,646a74a7aadc8d532a2f34dd,spanish,13 or older,click here to respond,no,2025-07-22_20h37.50.231,empathy_intonation_perc,2024.2.4,Linux x86_64,59.88023952,646a74a7aadc8d532a2f34dd,687ed1b7e638a4cbf2f02089,68802e95754069ae6a3e6146,,,,,,,,,,,,,,1,,,,,,,,,,,,,,,,,,,,,,,,,,,,,,,,,,,,,,,,,,,,,,,,,,,,,,,,,89,prisa,,,,,581.4161,582.8306,0,0,0.8846,,0,31,31,88,1,REAL,FAKE,,,,,,,,,,,,,,,,,
,,,,,,,,,646a74a7aadc8d532a2f34dd,spanish,13 or older,click here to respond,no,2025-07-22_20h37.50.231,empathy_intonation_perc,2024.2.4,Linux x86_64,59.88023952,646a74a7aadc8d532a2f34dd,687ed1b7e638a4cbf2f02089,68802e95754069ae6a3e6146,,,,,,,,,,,,,,1,,,,,,,,,,,,,,,,,,,,,,,,,,,,,,,,,,,,,,,,,,,,,,,,,,,,,,,,,88,acantilado,,,,,582.8344,585.7309,1,1,2.3658,,0,32,32,87,1,REAL,FAKE,,,,,,,,,,,,,,,,,
,,,,,,,,,646a74a7aadc8d532a2f34dd,spanish,13 or older,click here to respond,no,2025-07-22_20h37.50.231,empathy_intonation_perc,2024.2.4,Linux x86_64,59.88023952,646a74a7aadc8d532a2f34dd,687ed1b7e638a4cbf2f02089,68802e95754069ae6a3e6146,,,,,,,,,,,,,,1,,,,,,,,,,,,,,,,,,,,,,,,,,,,,,,,,,,,,,,,,,,,,,,,,,,,,,,,,91,click the 1 key.,,,,,585.7337,587.9652,1,1,1.7166,,0,33,33,90,1,REAL,FAKE,,,,,,,,,,,,,,,,,
,,,,,,,,,646a74a7aadc8d532a2f34dd,spanish,13 or older,click here to respond,no,2025-07-22_20h37.50.231,empathy_intonation_perc,2024.2.4,Linux x86_64,59.88023952,646a74a7aadc8d532a2f34dd,687ed1b7e638a4cbf2f02089,68802e95754069ae6a3e6146,,,,,,,,,,,,,,0,,,,,,,,,,,,,,,,,,,,,,,,,,,,,,,,,,,,,,,,,,,,,,,,,,,,,,,,,66,hacido,,,,,587.9679,590.4999,0,1,2.0066,,0,34,34,65,1,REAL,FAKE,,,,,,,,,,,,,,,,,
,,,,,,,,,646a74a7aadc8d532a2f34dd,spanish,13 or older,click here to respond,no,2025-07-22_20h37.50.231,empathy_intonation_perc,2024.2.4,Linux x86_64,59.88023952,646a74a7aadc8d532a2f34dd,687ed1b7e638a4cbf2f02089,68802e95754069ae6a3e6146,,,,,,,,,,,,,,0,,,,,,,,,,,,,,,,,,,,,,,,,,,,,,,,,,,,,,,,,,,,,,,,,,,,,,,,,30,alardio,,,,,590.5028,591.9174,0,1,0.8902,,0,35,35,29,1,REAL,FAKE,,,,,,,,,,,,,,,,,
,,,,,,,,,646a74a7aadc8d532a2f34dd,spanish,13 or older,click here to respond,no,2025-07-22_20h37.50.231,empathy_intonation_perc,2024.2.4,Linux x86_64,59.88023952,646a74a7aadc8d532a2f34dd,687ed1b7e638a4cbf2f02089,68802e95754069ae6a3e6146,,,,,,,,,,,,,,1,,,,,,,,,,,,,,,,,,,,,,,,,,,,,,,,,,,,,,,,,,,,,,,,,,,,,,,,,67,cabello,,,,,591.9192,593.3332,1,1,0.8851,,0,36,36,66,1,REAL,FAKE,,,,,,,,,,,,,,,,,
,,,,,,,,,646a74a7aadc8d532a2f34dd,spanish,13 or older,click here to respond,no,2025-07-22_20h37.50.231,empathy_intonation_perc,2024.2.4,Linux x86_64,59.88023952,646a74a7aadc8d532a2f34dd,687ed1b7e638a4cbf2f02089,68802e95754069ae6a3e6146,,,,,,,,,,,,,,1,,,,,,,,,,,,,,,,,,,,,,,,,,,,,,,,,,,,,,,,,,,,,,,,,,,,,,,,,12,asesinato,,,,,593.3361,595.6487,1,1,1.7771,,0,37,37,11,1,REAL,FAKE,,,,,,,,,,,,,,,,,
,,,,,,,,,646a74a7aadc8d532a2f34dd,spanish,13 or older,click here to respond,no,2025-07-22_20h37.50.231,empathy_intonation_perc,2024.2.4,Linux x86_64,59.88023952,646a74a7aadc8d532a2f34dd,687ed1b7e638a4cbf2f02089,68802e95754069ae6a3e6146,,,,,,,,,,,,,,1,,,,,,,,,,,,,,,,,,,,,,,,,,,,,,,,,,,,,,,,,,,,,,,,,,,,,,,,,77,tiburón,,,,,595.651,597.2321,0,0,1.0486,,0,38,38,76,1,REAL,FAKE,,,,,,,,,,,,,,,,,
,,,,,,,,,646a74a7aadc8d532a2f34dd,spanish,13 or older,click here to respond,no,2025-07-22_20h37.50.231,empathy_intonation_perc,2024.2.4,Linux x86_64,59.88023952,646a74a7aadc8d532a2f34dd,687ed1b7e638a4cbf2f02089,68802e95754069ae6a3e6146,,,,,,,,,,,,,,1,,,,,,,,,,,,,,,,,,,,,,,,,,,,,,,,,,,,,,,,,,,,,,,,,,,,,,,,,60,matar,,,,,597.2344,598.6821,0,0,0.9169,,0,39,39,59,1,REAL,FAKE,,,,,,,,,,,,,,,,,
,,,,,,,,,646a74a7aadc8d532a2f34dd,spanish,13 or older,click here to respond,no,2025-07-22_20h37.50.231,empathy_intonation_perc,2024.2.4,Linux x86_64,59.88023952,646a74a7aadc8d532a2f34dd,687ed1b7e638a4cbf2f02089,68802e95754069ae6a3e6146,,,,,,,,,,,,,,0,,,,,,,,,,,,,,,,,,,,,,,,,,,,,,,,,,,,,,,,,,,,,,,,,,,,,,,,,21,capillo,,,,,598.6847,600.0476,0,1,0.829,,0,40,40,20,1,REAL,FAKE,,,,,,,,,,,,,,,,,
,,,,,,,,,646a74a7aadc8d532a2f34dd,spanish,13 or older,click here to respond,no,2025-07-22_20h37.50.231,empathy_intonation_perc,2024.2.4,Linux x86_64,59.88023952,646a74a7aadc8d532a2f34dd,687ed1b7e638a4cbf2f02089,68802e95754069ae6a3e6146,,,,,,,,,,,,,,1,,,,,,,,,,,,,,,,,,,,,,,,,,,,,,,,,,,,,,,,,,,,,,,,,,,,,,,,,49,ganar,,,,,600.05,601.367,0,0,0.7874,,0,41,41,48,1,REAL,FAKE,,,,,,,,,,,,,,,,,
,,,,,,,,,646a74a7aadc8d532a2f34dd,spanish,13 or older,click here to respond,no,2025-07-22_20h37.50.231,empathy_intonation_perc,2024.2.4,Linux x86_64,59.88023952,646a74a7aadc8d532a2f34dd,687ed1b7e638a4cbf2f02089,68802e95754069ae6a3e6146,,,,,,,,,,,,,,0,,,,,,,,,,,,,,,,,,,,,,,,,,,,,,,,,,,,,,,,,,,,,,,,,,,,,,,,,32,fatacidad,,,,,601.3707,602.881,0,1,0.9818,,0,42,42,31,1,REAL,FAKE,,,,,,,,,,,,,,,,,
,,,,,,,,,646a74a7aadc8d532a2f34dd,spanish,13 or older,click here to respond,no,2025-07-22_20h37.50.231,empathy_intonation_perc,2024.2.4,Linux x86_64,59.88023952,646a74a7aadc8d532a2f34dd,687ed1b7e638a4cbf2f02089,68802e95754069ae6a3e6146,,,,,,,,,,,,,,0,,,,,,,,,,,,,,,,,,,,,,,,,,,,,,,,,,,,,,,,,,,,,,,,,,,,,,,,,17,floroso,,,,,602.885,605.4636,1,0,2.0475,,0,43,43,16,1,REAL,FAKE,,,,,,,,,,,,,,,,,
,,,,,,,,,646a74a7aadc8d532a2f34dd,spanish,13 or older,click here to respond,no,2025-07-22_20h37.50.231,empathy_intonation_perc,2024.2.4,Linux x86_64,59.88023952,646a74a7aadc8d532a2f34dd,687ed1b7e638a4cbf2f02089,68802e95754069ae6a3e6146,,,,,,,,,,,,,,1,,,,,,,,,,,,,,,,,,,,,,,,,,,,,,,,,,,,,,,,,,,,,,,,,,,,,,,,,75,yacer,,,,,605.4657,607.2153,1,1,1.2173,,0,44,44,74,1,REAL,FAKE,,,,,,,,,,,,,,,,,
,,,,,,,,,646a74a7aadc8d532a2f34dd,spanish,13 or older,click here to respond,no,2025-07-22_20h37.50.231,empathy_intonation_perc,2024.2.4,Linux x86_64,59.88023952,646a74a7aadc8d532a2f34dd,687ed1b7e638a4cbf2f02089,68802e95754069ae6a3e6146,,,,,,,,,,,,,,1,,,,,,,,,,,,,,,,,,,,,,,,,,,,,,,,,,,,,,,,,,,,,,,,,,,,,,,,,62,flaco,,,,,607.2178,608.9015,0,0,1.1591,,0,45,45,61,1,REAL,FAKE,,,,,,,,,,,,,,,,,
,,,,,,,,,646a74a7aadc8d532a2f34dd,spanish,13 or older,click here to respond,no,2025-07-22_20h37.50.231,empathy_intonation_perc,2024.2.4,Linux x86_64,59.88023952,646a74a7aadc8d532a2f34dd,687ed1b7e638a4cbf2f02089,68802e95754069ae6a3e6146,,,,,,,,,,,,,,1,,,,,,,,,,,,,,,,,,,,,,,,,,,,,,,,,,,,,,,,,,,,,,,,,,,,,,,,,86,barato,,,,,608.9036,610.2639,1,1,0.8297,,0,46,46,85,1,REAL,FAKE,,,,,,,,,,,,,,,,,
,,,,,,,,,646a74a7aadc8d532a2f34dd,spanish,13 or older,click here to respond,no,2025-07-22_20h37.50.231,empathy_intonation_perc,2024.2.4,Linux x86_64,59.88023952,646a74a7aadc8d532a2f34dd,687ed1b7e638a4cbf2f02089,68802e95754069ae6a3e6146,,,,,,,,,,,,,,0,,,,,,,,,,,,,,,,,,,,,,,,,,,,,,,,,,,,,,,,,,,,,,,,,,,,,,,,,63,esposante,,,,,610.2671,611.8807,1,0,1.0811,,0,47,47,62,1,REAL,FAKE,,,,,,,,,,,,,,,,,
,,,,,,,,,646a74a7aadc8d532a2f34dd,spanish,13 or older,click here to respond,no,2025-07-22_20h37.50.231,empathy_intonation_perc,2024.2.4,Linux x86_64,59.88023952,646a74a7aadc8d532a2f34dd,687ed1b7e638a4cbf2f02089,68802e95754069ae6a3e6146,,,,,,,,,,,,,,1,,,,,,,,,,,,,,,,,,,,,,,,,,,,,,,,,,,,,,,,,,,,,,,,,,,,,,,,,34,aviso,,,,,611.8831,613.7466,1,1,1.3358,,0,48,48,33,1,REAL,FAKE,,,,,,,,,,,,,,,,,
,,,,,,,,,646a74a7aadc8d532a2f34dd,spanish,13 or older,click here to respond,no,2025-07-22_20h37.50.231,empathy_intonation_perc,2024.2.4,Linux x86_64,59.88023952,646a74a7aadc8d532a2f34dd,687ed1b7e638a4cbf2f02089,68802e95754069ae6a3e6146,,,,,,,,,,,,,,1,,,,,,,,,,,,,,,,,,,,,,,,,,,,,,,,,,,,,,,,,,,,,,,,,,,,,,,,,26,secuestro,,,,,613.7473,615.6323,1,1,1.3616,,0,49,49,25,1,REAL,FAKE,,,,,,,,,,,,,,,,,
,,,,,,,,,646a74a7aadc8d532a2f34dd,spanish,13 or older,click here to respond,no,2025-07-22_20h37.50.231,empathy_intonation_perc,2024.2.4,Linux x86_64,59.88023952,646a74a7aadc8d532a2f34dd,687ed1b7e638a4cbf2f02089,68802e95754069ae6a3e6146,,,,,,,,,,,,,,1,,,,,,,,,,,,,,,,,,,,,,,,,,,,,,,,,,,,,,,,,,,,,,,,,,,,,,,,,28,merodear,,,,,615.6348,617.2309,0,0,1.0633,,0,50,50,27,1,REAL,FAKE,,,,,,,,,,,,,,,,,
,,,,,,,,,646a74a7aadc8d532a2f34dd,spanish,13 or older,click here to respond,no,2025-07-22_20h37.50.231,empathy_intonation_perc,2024.2.4,Linux x86_64,59.88023952,646a74a7aadc8d532a2f34dd,687ed1b7e638a4cbf2f02089,68802e95754069ae6a3e6146,,,,,,,,,,,,,,0,,,,,,,,,,,,,,,,,,,,,,,,,,,,,,,,,,,,,,,,,,,,,,,,,,,,,,,,,19,brecedad,,,,,617.2346,618.5974,0,1,0.8313,,0,51,51,18,1,REAL,FAKE,,,,,,,,,,,,,,,,,
,,,,,,,,,646a74a7aadc8d532a2f34dd,spanish,13 or older,click here to respond,no,2025-07-22_20h37.50.231,empathy_intonation_perc,2024.2.4,Linux x86_64,59.88023952,646a74a7aadc8d532a2f34dd,687ed1b7e638a4cbf2f02089,68802e95754069ae6a3e6146,,,,,,,,,,,,,,1,,,,,,,,,,,,,,,,,,,,,,,,,,,,,,,,,,,,,,,,,,,,,,,,,,,,,,,,,69,engatusar,,,,,618.601,620.1809,0,0,1.0469,,0,52,52,68,1,REAL,FAKE,,,,,,,,,,,,,,,,,
,,,,,,,,,646a74a7aadc8d532a2f34dd,spanish,13 or older,click here to respond,no,2025-07-22_20h37.50.231,empathy_intonation_perc,2024.2.4,Linux x86_64,59.88023952,646a74a7aadc8d532a2f34dd,687ed1b7e638a4cbf2f02089,68802e95754069ae6a3e6146,,,,,,,,,,,,,,1,,,,,,,,,,,,,,,,,,,,,,,,,,,,,,,,,,,,,,,,,,,,,,,,,,,,,,,,,73,hervidor,,,,,620.1837,621.7312,0,0,1.0111,,0,53,53,72,1,REAL,FAKE,,,,,,,,,,,,,,,,,
,,,,,,,,,646a74a7aadc8d532a2f34dd,spanish,13 or older,click here to respond,no,2025-07-22_20h37.50.231,empathy_intonation_perc,2024.2.4,Linux x86_64,59.88023952,646a74a7aadc8d532a2f34dd,687ed1b7e638a4cbf2f02089,68802e95754069ae6a3e6146,,,,,,,,,,,,,,1,,,,,,,,,,,,,,,,,,,,,,,,,,,,,,,,,,,,,,,,,,,,,,,,,,,,,,,,,44,cuchara,,,,,621.7341,623.0314,1,1,0.7613,,0,54,54,43,1,REAL,FAKE,,,,,,,,,,,,,,,,,
,,,,,,,,,646a74a7aadc8d532a2f34dd,spanish,13 or older,click here to respond,no,2025-07-22_20h37.50.231,empathy_intonation_perc,2024.2.4,Linux x86_64,59.88023952,646a74a7aadc8d532a2f34dd,687ed1b7e638a4cbf2f02089,68802e95754069ae6a3e6146,,,,,,,,,,,,,,1,,,,,,,,,,,,,,,,,,,,,,,,,,,,,,,,,,,,,,,,,,,,,,,,,,,,,,,,,13,helar,,,,,623.033,624.7496,1,1,1.1854,,0,55,55,12,1,REAL,FAKE,,,,,,,,,,,,,,,,,
,,,,,,,,,646a74a7aadc8d532a2f34dd,spanish,13 or older,click here to respond,no,2025-07-22_20h37.50.231,empathy_intonation_perc,2024.2.4,Linux x86_64,59.88023952,646a74a7aadc8d532a2f34dd,687ed1b7e638a4cbf2f02089,68802e95754069ae6a3e6146,,,,,,,,,,,,,,0,,,,,,,,,,,,,,,,,,,,,,,,,,,,,,,,,,,,,,,,,,,,,,,,,,,,,,,,,10,antar,,,,,624.7515,626.4672,1,0,1.1909,,0,56,56,9,1,REAL,FAKE,,,,,,,,,,,,,,,,,
,,,,,,,,,646a74a7aadc8d532a2f34dd,spanish,13 or older,click here to respond,no,2025-07-22_20h37.50.231,empathy_intonation_perc,2024.2.4,Linux x86_64,59.88023952,646a74a7aadc8d532a2f34dd,687ed1b7e638a4cbf2f02089,68802e95754069ae6a3e6146,,,,,,,,,,,,,,1,,,,,,,,,,,,,,,,,,,,,,,,,,,,,,,,,,,,,,,,,,,,,,,,,,,,,,,,,38,estornudar,,,,,626.469,628.4305,0,0,1.4315,,0,57,57,37,1,REAL,FAKE,,,,,,,,,,,,,,,,,
,,,,,,,,,646a74a7aadc8d532a2f34dd,spanish,13 or older,click here to respond,no,2025-07-22_20h37.50.231,empathy_intonation_perc,2024.2.4,Linux x86_64,59.88023952,646a74a7aadc8d532a2f34dd,687ed1b7e638a4cbf2f02089,68802e95754069ae6a3e6146,,,,,,,,,,,,,,1,,,,,,,,,,,,,,,,,,,,,,,,,,,,,,,,,,,,,,,,,,,,,,,,,,,,,,,,,54,fomentar,,,,,628.4334,629.9671,0,0,1.0024,,0,58,58,53,1,REAL,FAKE,,,,,,,,,,,,,,,,,
,,,,,,,,,646a74a7aadc8d532a2f34dd,spanish,13 or older,click here to respond,no,2025-07-22_20h37.50.231,empathy_intonation_perc,2024.2.4,Linux x86_64,59.88023952,646a74a7aadc8d532a2f34dd,687ed1b7e638a4cbf2f02089,68802e95754069ae6a3e6146,,,,,,,,,,,,,,0,,,,,,,,,,,,,,,,,,,,,,,,,,,,,,,,,,,,,,,,,,,,,,,,,,,,,,,,,92,click the 0 key.,,,,,629.9697,632.0671,0,1,1.5712,,0,59,59,91,1,REAL,FAKE,,,,,,,,,,,,,,,,,
,,,,,,,,,646a74a7aadc8d532a2f34dd,spanish,13 or older,click here to respond,no,2025-07-22_20h37.50.231,empathy_intonation_perc,2024.2.4,Linux x86_64,59.88023952,646a74a7aadc8d532a2f34dd,687ed1b7e638a4cbf2f02089,68802e95754069ae6a3e6146,,,,,,,,,,,,,,1,,,,,,,,,,,,,,,,,,,,,,,,,,,,,,,,,,,,,,,,,,,,,,,,,,,,,,,,,39,torpe,,,,,632.0695,633.7973,0,0,1.1992,,0,60,60,38,1,REAL,FAKE,,,,,,,,,,,,,,,,,
,,,,,,,,,646a74a7aadc8d532a2f34dd,spanish,13 or older,click here to respond,no,2025-07-22_20h37.50.231,empathy_intonation_perc,2024.2.4,Linux x86_64,59.88023952,646a74a7aadc8d532a2f34dd,687ed1b7e638a4cbf2f02089,68802e95754069ae6a3e6146,,,,,,,,,,,,,,1,,,,,,,,,,,,,,,,,,,,,,,,,,,,,,,,,,,,,,,,,,,,,,,,,,,,,,,,,76,atar,,,,,633.8007,635.0654,1,1,0.737,,0,61,61,75,1,REAL,FAKE,,,,,,,,,,,,,,,,,
,,,,,,,,,646a74a7aadc8d532a2f34dd,spanish,13 or older,click here to respond,no,2025-07-22_20h37.50.231,empathy_intonation_perc,2024.2.4,Linux x86_64,59.88023952,646a74a7aadc8d532a2f34dd,687ed1b7e638a4cbf2f02089,68802e95754069ae6a3e6146,,,,,,,,,,,,,,0,,,,,,,,,,,,,,,,,,,,,,,,,,,,,,,,,,,,,,,,,,,,,,,,,,,,,,,,,18,arsa,,,,,635.0675,636.4822,0,1,0.881,,0,62,62,17,1,REAL,FAKE,,,,,,,,,,,,,,,,,
,,,,,,,,,646a74a7aadc8d532a2f34dd,spanish,13 or older,click here to respond,no,2025-07-22_20h37.50.231,empathy_intonation_perc,2024.2.4,Linux x86_64,59.88023952,646a74a7aadc8d532a2f34dd,687ed1b7e638a4cbf2f02089,68802e95754069ae6a3e6146,,,,,,,,,,,,,,1,,,,,,,,,,,,,,,,,,,,,,,,,,,,,,,,,,,,,,,,,,,,,,,,,,,,,,,,,14,yunque,,,,,636.4851,637.7329,0,0,0.7209,,0,63,63,13,1,REAL,FAKE,,,,,,,,,,,,,,,,,
,,,,,,,,,646a74a7aadc8d532a2f34dd,spanish,13 or older,click here to respond,no,2025-07-22_20h37.50.231,empathy_intonation_perc,2024.2.4,Linux x86_64,59.88023952,646a74a7aadc8d532a2f34dd,687ed1b7e638a4cbf2f02089,68802e95754069ae6a3e6146,,,,,,,,,,,,,,0,,,,,,,,,,,,,,,,,,,,,,,,,,,,,,,,,,,,,,,,,,,,,,,,,,,,,,,,,35,rompido,,,,,637.7357,639.1473,0,1,0.8818,,0,64,64,34,1,REAL,FAKE,,,,,,,,,,,,,,,,,
,,,,,,,,,646a74a7aadc8d532a2f34dd,spanish,13 or older,click here to respond,no,2025-07-22_20h37.50.231,empathy_intonation_perc,2024.2.4,Linux x86_64,59.88023952,646a74a7aadc8d532a2f34dd,687ed1b7e638a4cbf2f02089,68802e95754069ae6a3e6146,,,,,,,,,,,,,,1,,,,,,,,,,,,,,,,,,,,,,,,,,,,,,,,,,,,,,,,,,,,,,,,,,,,,,,,,45,jilguero,,,,,639.1498,640.5978,1,1,0.9141,,0,65,65,44,1,REAL,FAKE,,,,,,,,,,,,,,,,,
,,,,,,,,,646a74a7aadc8d532a2f34dd,spanish,13 or older,click here to respond,no,2025-07-22_20h37.50.231,empathy_intonation_perc,2024.2.4,Linux x86_64,59.88023952,646a74a7aadc8d532a2f34dd,687ed1b7e638a4cbf2f02089,68802e95754069ae6a3e6146,,,,,,,,,,,,,,1,,,,,,,,,,,,,,,,,,,,,,,,,,,,,,,,,,,,,,,,,,,,,,,,,,,,,,,,,64,orgulloso,,,,,640.6007,641.9653,0,0,0.8353,,0,66,66,63,1,REAL,FAKE,,,,,,,,,,,,,,,,,
,,,,,,,,,646a74a7aadc8d532a2f34dd,spanish,13 or older,click here to respond,no,2025-07-22_20h37.50.231,empathy_intonation_perc,2024.2.4,Linux x86_64,59.88023952,646a74a7aadc8d532a2f34dd,687ed1b7e638a4cbf2f02089,68802e95754069ae6a3e6146,,,,,,,,,,,,,,1,,,,,,,,,,,,,,,,,,,,,,,,,,,,,,,,,,,,,,,,,,,,,,,,,,,,,,,,,71,polvoriento,,,,,641.9676,643.5639,0,0,1.0672,,0,67,67,70,1,REAL,FAKE,,,,,,,,,,,,,,,,,
,,,,,,,,,646a74a7aadc8d532a2f34dd,spanish,13 or older,click here to respond,no,2025-07-22_20h37.50.231,empathy_intonation_perc,2024.2.4,Linux x86_64,59.88023952,646a74a7aadc8d532a2f34dd,687ed1b7e638a4cbf2f02089,68802e95754069ae6a3e6146,,,,,,,,,,,,,,1,,,,,,,,,,,,,,,,,,,,,,,,,,,,,,,,,,,,,,,,,,,,,,,,,,,,,,,,,43,canela,,,,,643.5649,645.3139,0,0,1.2162,,0,68,68,42,1,REAL,FAKE,,,,,,,,,,,,,,,,,
,,,,,,,,,646a74a7aadc8d532a2f34dd,spanish,13 or older,click here to respond,no,2025-07-22_20h37.50.231,empathy_intonation_perc,2024.2.4,Linux x86_64,59.88023952,646a74a7aadc8d532a2f34dd,687ed1b7e638a4cbf2f02089,68802e95754069ae6a3e6146,,,,,,,,,,,,,,1,,,,,,,,,,,,,,,,,,,,,,,,,,,,,,,,,,,,,,,,,,,,,,,,,,,,,,,,,59,besar,,,,,645.3163,646.7992,0,0,0.9495,,0,69,69,58,1,REAL,FAKE,,,,,,,,,,,,,,,,,
,,,,,,,,,646a74a7aadc8d532a2f34dd,spanish,13 or older,click here to respond,no,2025-07-22_20h37.50.231,empathy_intonation_perc,2024.2.4,Linux x86_64,59.88023952,646a74a7aadc8d532a2f34dd,687ed1b7e638a4cbf2f02089,68802e95754069ae6a3e6146,,,,,,,,,,,,,,1,,,,,,,,,,,,,,,,,,,,,,,,,,,,,,,,,,,,,,,,,,,,,,,,,,,,,,,,,68,alegre,,,,,646.802,648.1173,1,1,0.7809,,0,70,70,67,1,REAL,FAKE,,,,,,,,,,,,,,,,,
,,,,,,,,,646a74a7aadc8d532a2f34dd,spanish,13 or older,click here to respond,no,2025-07-22_20h37.50.231,empathy_intonation_perc,2024.2.4,Linux x86_64,59.88023952,646a74a7aadc8d532a2f34dd,687ed1b7e638a4cbf2f02089,68802e95754069ae6a3e6146,,,,,,,,,,,,,,0,,,,,,,,,,,,,,,,,,,,,,,,,,,,,,,,,,,,,,,,,,,,,,,,,,,,,,,,,70,temblo,,,,,648.1199,649.5331,0,1,0.8888,,0,71,71,69,1,REAL,FAKE,,,,,,,,,,,,,,,,,
,,,,,,,,,646a74a7aadc8d532a2f34dd,spanish,13 or older,click here to respond,no,2025-07-22_20h37.50.231,empathy_intonation_perc,2024.2.4,Linux x86_64,59.88023952,646a74a7aadc8d532a2f34dd,687ed1b7e638a4cbf2f02089,68802e95754069ae6a3e6146,,,,,,,,,,,,,,1,,,,,,,,,,,,,,,,,,,,,,,,,,,,,,,,,,,,,,,,,,,,,,,,,,,,,,,,,37,granuja,,,,,649.5373,651.416,1,1,1.3492,,0,72,72,36,1,REAL,FAKE,,,,,,,,,,,,,,,,,
,,,,,,,,,646a74a7aadc8d532a2f34dd,spanish,13 or older,click here to respond,no,2025-07-22_20h37.50.231,empathy_intonation_perc,2024.2.4,Linux x86_64,59.88023952,646a74a7aadc8d532a2f34dd,687ed1b7e638a4cbf2f02089,68802e95754069ae6a3e6146,,,,,,,,,,,,,,1,,,,,,,,,,,,,,,,,,,,,,,,,,,,,,,,,,,,,,,,,,,,,,,,,,,,,,,,,78,frondoso,,,,,651.4195,652.6478,0,0,0.7008,,0,73,73,77,1,REAL,FAKE,,,,,,,,,,,,,,,,,
,,,,,,,,,646a74a7aadc8d532a2f34dd,spanish,13 or older,click here to respond,no,2025-07-22_20h37.50.231,empathy_intonation_perc,2024.2.4,Linux x86_64,59.88023952,646a74a7aadc8d532a2f34dd,687ed1b7e638a4cbf2f02089,68802e95754069ae6a3e6146,,,,,,,,,,,,,,0,,,,,,,,,,,,,,,,,,,,,,,,,,,,,,,,,,,,,,,,,,,,,,,,,,,,,,,,,74,cintro,,,,,652.6505,654.0643,1,0,0.8813,,0,74,74,73,1,REAL,FAKE,,,,,,,,,,,,,,,,,
,,,,,,,,,646a74a7aadc8d532a2f34dd,spanish,13 or older,click here to respond,no,2025-07-22_20h37.50.231,empathy_intonation_perc,2024.2.4,Linux x86_64,59.88023952,646a74a7aadc8d532a2f34dd,687ed1b7e638a4cbf2f02089,68802e95754069ae6a3e6146,,,,,,,,,,,,,,1,,,,,,,,,,,,,,,,,,,,,,,,,,,,,,,,,,,,,,,,,,,,,,,,,,,,,,,,,40,alfombra,,,,,654.0674,655.532,0,0,0.9347,,0,75,75,39,1,REAL,FAKE,,,,,,,,,,,,,,,,,
,,,,,,,,,646a74a7aadc8d532a2f34dd,spanish,13 or older,click here to respond,no,2025-07-22_20h37.50.231,empathy_intonation_perc,2024.2.4,Linux x86_64,59.88023952,646a74a7aadc8d532a2f34dd,687ed1b7e638a4cbf2f02089,68802e95754069ae6a3e6146,,,,,,,,,,,,,,1,,,,,,,,,,,,,,,,,,,,,,,,,,,,,,,,,,,,,,,,,,,,,,,,,,,,,,,,,65,bizcocho,,,,,655.5347,656.8143,0,0,0.7518,,0,76,76,64,1,REAL,FAKE,,,,,,,,,,,,,,,,,
,,,,,,,,,646a74a7aadc8d532a2f34dd,spanish,13 or older,click here to respond,no,2025-07-22_20h37.50.231,empathy_intonation_perc,2024.2.4,Linux x86_64,59.88023952,646a74a7aadc8d532a2f34dd,687ed1b7e638a4cbf2f02089,68802e95754069ae6a3e6146,,,,,,,,,,,,,,1,,,,,,,,,,,,,,,,,,,,,,,,,,,,,,,,,,,,,,,,,,,,,,,,,,,,,,,,,56,musgo,,,,,656.8167,657.997,0,0,0.647,,0,77,77,55,1,REAL,FAKE,,,,,,,,,,,,,,,,,
,,,,,,,,,646a74a7aadc8d532a2f34dd,spanish,13 or older,click here to respond,no,2025-07-22_20h37.50.231,empathy_intonation_perc,2024.2.4,Linux x86_64,59.88023952,646a74a7aadc8d532a2f34dd,687ed1b7e638a4cbf2f02089,68802e95754069ae6a3e6146,,,,,,,,,,,,,,1,,,,,,,,,,,,,,,,,,,,,,,,,,,,,,,,,,,,,,,,,,,,,,,,,,,,,,,,,31,pandilla,,,,,658.0014,659.2847,0,0,0.7575,,0,78,78,30,1,REAL,FAKE,,,,,,,,,,,,,,,,,
,,,,,,,,,646a74a7aadc8d532a2f34dd,spanish,13 or older,click here to respond,no,2025-07-22_20h37.50.231,empathy_intonation_perc,2024.2.4,Linux x86_64,59.88023952,646a74a7aadc8d532a2f34dd,687ed1b7e638a4cbf2f02089,68802e95754069ae6a3e6146,,,,,,,,,,,,,,1,,,,,,,,,,,,,,,,,,,,,,,,,,,,,,,,,,,,,,,,,,,,,,,,,,,,,,,,,57,tacaño,,,,,659.2875,660.8647,1,1,1.0466,,0,79,79,56,1,REAL,FAKE,,,,,,,,,,,,,,,,,
,,,,,,,,,646a74a7aadc8d532a2f34dd,spanish,13 or older,click here to respond,no,2025-07-22_20h37.50.231,empathy_intonation_perc,2024.2.4,Linux x86_64,59.88023952,646a74a7aadc8d532a2f34dd,687ed1b7e638a4cbf2f02089,68802e95754069ae6a3e6146,,,,,,,,,,,,,,1,,,,,,,,,,,,,,,,,,,,,,,,,,,,,,,,,,,,,,,,,,,,,,,,,,,,,,,,,22,lacayo,,,,,660.8665,662.6161,0,0,1.2137,,0,80,80,21,1,REAL,FAKE,,,,,,,,,,,,,,,,,
,,,,,,,,,646a74a7aadc8d532a2f34dd,spanish,13 or older,click here to respond,no,2025-07-22_20h37.50.231,empathy_intonation_perc,2024.2.4,Linux x86_64,59.88023952,646a74a7aadc8d532a2f34dd,687ed1b7e638a4cbf2f02089,68802e95754069ae6a3e6146,,,,,,,,,,,,,,1,,,,,,,,,,,,,,,,,,,,,,,,,,,,,,,,,,,,,,,,,,,,,,,,,,,,,,,,,2,pellizcar,,,,,662.6188,664.2142,0,0,1.0623,,0,81,81,1,1,REAL,FAKE,,,,,,,,,,,,,,,,,
,,,,,,,,,646a74a7aadc8d532a2f34dd,spanish,13 or older,click here to respond,no,2025-07-22_20h37.50.231,empathy_intonation_perc,2024.2.4,Linux x86_64,59.88023952,646a74a7aadc8d532a2f34dd,687ed1b7e638a4cbf2f02089,68802e95754069ae6a3e6146,,,,,,,,,,,,,,0,,,,,,,,,,,,,,,,,,,,,,,,,,,,,,,,,,,,,,,,,,,,,,,,,,,,,,,,,29,decar,,,,,664.2169,665.5,0,1,0.7559,,0,82,82,28,1,REAL,FAKE,,,,,,,,,,,,,,,,,
,,,,,,,,,646a74a7aadc8d532a2f34dd,spanish,13 or older,click here to respond,no,2025-07-22_20h37.50.231,empathy_intonation_perc,2024.2.4,Linux x86_64,59.88023952,646a74a7aadc8d532a2f34dd,687ed1b7e638a4cbf2f02089,68802e95754069ae6a3e6146,,,,,,,,,,,,,,1,,,,,,,,,,,,,,,,,,,,,,,,,,,,,,,,,,,,,,,,,,,,,,,,,,,,,,,,,11,cenefa,,,,,665.5024,666.6474,0,0,0.613,,0,83,83,10,1,REAL,FAKE,,,,,,,,,,,,,,,,,
,,,,,,,,,646a74a7aadc8d532a2f34dd,spanish,13 or older,click here to respond,no,2025-07-22_20h37.50.231,empathy_intonation_perc,2024.2.4,Linux x86_64,59.88023952,646a74a7aadc8d532a2f34dd,687ed1b7e638a4cbf2f02089,68802e95754069ae6a3e6146,,,,,,,,,,,,,,1,,,,,,,,,,,,,,,,,,,,,,,,,,,,,,,,,,,,,,,,,,,,,,,,,,,,,,,,,20,ávido,,,,,666.6504,668.8306,0,0,1.6502,,0,84,84,19,1,REAL,FAKE,,,,,,,,,,,,,,,,,
,,,,,,,,,646a74a7aadc8d532a2f34dd,spanish,13 or older,click here to respond,no,2025-07-22_20h37.50.231,empathy_intonation_perc,2024.2.4,Linux x86_64,59.88023952,646a74a7aadc8d532a2f34dd,687ed1b7e638a4cbf2f02089,68802e95754069ae6a3e6146,,,,,,,,,,,,,,0,,,,,,,,,,,,,,,,,,,,,,,,,,,,,,,,,,,,,,,,,,,,,,,,,,,,,,,,,84,escuto,,,,,668.8341,670.1314,1,0,0.7643,,0,85,85,83,1,REAL,FAKE,,,,,,,,,,,,,,,,,
,,,,,,,,,646a74a7aadc8d532a2f34dd,spanish,13 or older,click here to respond,no,2025-07-22_20h37.50.231,empathy_intonation_perc,2024.2.4,Linux x86_64,59.88023952,646a74a7aadc8d532a2f34dd,687ed1b7e638a4cbf2f02089,68802e95754069ae6a3e6146,,,,,,,,,,,,,,0,,,,,,,,,,,,,,,,,,,,,,,,,,,,,,,,,,,,,,,,,,,,,,,,,,,,,,,,,16,abracer,,,,,670.1348,671.4476,0,1,0.7823,,0,86,86,15,1,REAL,FAKE,,,,,,,,,,,,,,,,,
,,,,,,,,,646a74a7aadc8d532a2f34dd,spanish,13 or older,click here to respond,no,2025-07-22_20h37.50.231,empathy_intonation_perc,2024.2.4,Linux x86_64,59.88023952,646a74a7aadc8d532a2f34dd,687ed1b7e638a4cbf2f02089,68802e95754069ae6a3e6146,,,,,,,,,,,,,,1,,,,,,,,,,,,,,,,,,,,,,,,,,,,,,,,,,,,,,,,,,,,,,,,,,,,,,,,,90,clavel,,,,,671.4497,672.8146,0,0,0.8279,,0,87,87,89,1,REAL,FAKE,,,,,,,,,,,,,,,,,
,,,,,,,,,646a74a7aadc8d532a2f34dd,spanish,13 or older,click here to respond,no,2025-07-22_20h37.50.231,empathy_intonation_perc,2024.2.4,Linux x86_64,59.88023952,646a74a7aadc8d532a2f34dd,687ed1b7e638a4cbf2f02089,68802e95754069ae6a3e6146,,,,,,,,,,,,,,1,,,,,,,,,,,,,,,,,,,,,,,,,,,,,,,,,,,,,,,,,,,,,,,,,,,,,,,,,9,hacha,,,,,672.8175,674.1807,1,1,0.8276,,0,88,88,8,1,REAL,FAKE,,,,,,,,,,,,,,,,,
,,,,,,,,,646a74a7aadc8d532a2f34dd,spanish,13 or older,click here to respond,no,2025-07-22_20h37.50.231,empathy_intonation_perc,2024.2.4,Linux x86_64,59.88023952,646a74a7aadc8d532a2f34dd,687ed1b7e638a4cbf2f02089,68802e95754069ae6a3e6146,,,,,,,,,,,,,,1,,,,,,,,,,,,,,,,,,,,,,,,,,,,,,,,,,,,,,,,,,,,,,,,,,,,,,,,,7,pésimo,,,,,674.183,675.5972,1,1,0.8806,,0,89,89,6,1,REAL,FAKE,,,,,,,,,,,,,,,,,
,,,,,,,,,646a74a7aadc8d532a2f34dd,spanish,13 or older,click here to respond,no,2025-07-22_20h37.50.231,empathy_intonation_perc,2024.2.4,Linux x86_64,59.88023952,646a74a7aadc8d532a2f34dd,687ed1b7e638a4cbf2f02089,68802e95754069ae6a3e6146,,,,,,,,,,,,,,0,,,,,,,,,,,,,,,,,,,,,,,,,,,,,,,,,,,,,,,,,,,,,,,,,,,,,,,,,72,pemición,,,,,675.5994,677.414,1,0,1.2888,,0,90,90,71,1,REAL,FAKE,,,,,,,,,,,,,,,,,
,,,,,,,,,646a74a7aadc8d532a2f34dd,spanish,13 or older,click here to respond,no,2025-07-22_20h37.50.231,empathy_intonation_perc,2024.2.4,Linux x86_64,59.88023952,646a74a7aadc8d532a2f34dd,687ed1b7e638a4cbf2f02089,68802e95754069ae6a3e6146,,,,,,,,,,,,,,1,,,,,,,,,,,,,,,,,,,,,,,,,,,,,,,,,,,,,,,,,,,,,,,,,,,,,,,,,41,rebuscar,,,,,677.4172,679.9657,1,1,2.0176,,0,91,91,40,1,REAL,FAKE,,,,,,,,,,,,,,,,,
,,,,,,,,,646a74a7aadc8d532a2f34dd,spanish,13 or older,click here to respond,no,2025-07-22_20h37.50.231,empathy_intonation_perc,2024.2.4,Linux x86_64,59.88023952,646a74a7aadc8d532a2f34dd,687ed1b7e638a4cbf2f02089,68802e95754069ae6a3e6146,,,,,,,,,,,,,,,,,,,,,,,,,,,,,,,,,,,,,,,,,,,,,,,,,,,,,,,,,,,,,,,,,,,,,,,,,,,,,,,,,,,,,,,,,,679.9669,683.4998,,,,,,,,,,,,,,,
,,,,,,,,,646a74a7aadc8d532a2f34dd,spanish,13 or older,click here to respond,no,2025-07-22_20h37.50.231,empathy_intonation_perc,2024.2.4,Linux x86_64,59.88023952,646a74a7aadc8d532a2f34dd,687ed1b7e638a4cbf2f02089,68802e95754069ae6a3e6146,,,,,,,,,,,,,1,,,,,,,,,,,,,,,,,,,,,,,,,,,,,,,,,,,,,,,,,,,,,,,,,,,,,,,,,,,,,,,,,,,,,,,,,,,,,,,683.545,693.1487,slightly agree,0,0,0,0,1,I can easily tell if someone else wants to enter a conversation.,1,0,1,0,,
,,,,,,,,,646a74a7aadc8d532a2f34dd,spanish,13 or older,click here to respond,no,2025-07-22_20h37.50.231,empathy_intonation_perc,2024.2.4,Linux x86_64,59.88023952,646a74a7aadc8d532a2f34dd,687ed1b7e638a4cbf2f02089,68802e95754069ae6a3e6146,,,,,,,,,,,,,2,,,,,,,,,,,,,,,,,,,,,,,,,,,,,,,,,,,,,,,,,,,,,,,,,,,,,,,,,,,,,,,,,,,,,,,,,,,,,,,693.1526,696.2978,strongly agree,0,1,1,1,1,I prefer animals to humans.,0,1,0,0,,
,,,,,,,,,646a74a7aadc8d532a2f34dd,spanish,13 or older,click here to respond,no,2025-07-22_20h37.50.231,empathy_intonation_perc,2024.2.4,Linux x86_64,59.88023952,646a74a7aadc8d532a2f34dd,687ed1b7e638a4cbf2f02089,68802e95754069ae6a3e6146,,,,,,,,,,,,,3,,,,,,,,,,,,,,,,,,,,,,,,,,,,,,,,,,,,,,,,,,,,,,,,,,,,,,,,,,,,,,,,,,,,,,,,,,,,,,,696.3016,699.5472,slightly agree,0,2,2,2,1,I try to keep up with the current trends and fashions.,0,1,0,0,,
,,,,,,,,,646a74a7aadc8d532a2f34dd,spanish,13 or older,click here to respond,no,2025-07-22_20h37.50.231,empathy_intonation_perc,2024.2.4,Linux x86_64,59.88023952,646a74a7aadc8d532a2f34dd,687ed1b7e638a4cbf2f02089,68802e95754069ae6a3e6146,,,,,,,,,,,,,4,,,,,,,,,,,,,,,,,,,,,,,,,,,,,,,,,,,,,,,,,,,,,,,,,,,,,,,,,,,,,,,,,,,,,,,,,,,,,,,699.5533,704.181,slightly disagree,0,3,3,3,1,"I find it difficult to explain to others things that I understand easily,   when they don't understand it first time.",1,0,0,1,,
,,,,,,,,,646a74a7aadc8d532a2f34dd,spanish,13 or older,click here to respond,no,2025-07-22_20h37.50.231,empathy_intonation_perc,2024.2.4,Linux x86_64,59.88023952,646a74a7aadc8d532a2f34dd,687ed1b7e638a4cbf2f02089,68802e95754069ae6a3e6146,,,,,,,,,,,,,5,,,,,,,,,,,,,,,,,,,,,,,,,,,,,,,,,,,,,,,,,,,,,,,,,,,,,,,,,,,,,,,,,,,,,,,,,,,,,,,704.1856,706.664,strongly agree,0,4,4,4,1,I dream most nights.,0,1,0,0,,
,,,,,,,,,646a74a7aadc8d532a2f34dd,spanish,13 or older,click here to respond,no,2025-07-22_20h37.50.231,empathy_intonation_perc,2024.2.4,Linux x86_64,59.88023952,646a74a7aadc8d532a2f34dd,687ed1b7e638a4cbf2f02089,68802e95754069ae6a3e6146,,,,,,,,,,,,,6,,,,,,,,,,,,,,,,,,,,,,,,,,,,,,,,,,,,,,,,,,,,,,,,,,,,,,,,,,,,,,,,,,,,,,,,,,,,,,,706.6683,708.4647,strongly agree,0,5,5,5,1,I really enjoy caring for other people.,1,0,1,0,,
,,,,,,,,,646a74a7aadc8d532a2f34dd,spanish,13 or older,click here to respond,no,2025-07-22_20h37.50.231,empathy_intonation_perc,2024.2.4,Linux x86_64,59.88023952,646a74a7aadc8d532a2f34dd,687ed1b7e638a4cbf2f02089,68802e95754069ae6a3e6146,,,,,,,,,,,,,7,,,,,,,,,,,,,,,,,,,,,,,,,,,,,,,,,,,,,,,,,,,,,,,,,,,,,,,,,,,,,,,,,,,,,,,,,,,,,,,708.4696,712.083,slightly disagree,0,6,6,6,1,I try to solve my own problems rather than discussing them with others.,0,1,0,0,,
,,,,,,,,,646a74a7aadc8d532a2f34dd,spanish,13 or older,click here to respond,no,2025-07-22_20h37.50.231,empathy_intonation_perc,2024.2.4,Linux x86_64,59.88023952,646a74a7aadc8d532a2f34dd,687ed1b7e638a4cbf2f02089,68802e95754069ae6a3e6146,,,,,,,,,,,,,8,,,,,,,,,,,,,,,,,,,,,,,,,,,,,,,,,,,,,,,,,,,,,,,,,,,,,,,,,,,,,,,,,,,,,,,,,,,,,,,712.0871,717.549,strongly disagree,0,7,7,7,1,I find it hard to know what to do in a social situation.,1,0,0,1,,
,,,,,,,,,646a74a7aadc8d532a2f34dd,spanish,13 or older,click here to respond,no,2025-07-22_20h37.50.231,empathy_intonation_perc,2024.2.4,Linux x86_64,59.88023952,646a74a7aadc8d532a2f34dd,687ed1b7e638a4cbf2f02089,68802e95754069ae6a3e6146,,,,,,,,,,,,,9,,,,,,,,,,,,,,,,,,,,,,,,,,,,,,,,,,,,,,,,,,,,,,,,,,,,,,,,,,,,,,,,,,,,,,,,,,,,,,,717.553,721.9477,strongly disagree,0,8,8,8,1,I am at my best first thing in the morning.,0,1,0,0,,
,,,,,,,,,646a74a7aadc8d532a2f34dd,spanish,13 or older,click here to respond,no,2025-07-22_20h37.50.231,empathy_intonation_perc,2024.2.4,Linux x86_64,59.88023952,646a74a7aadc8d532a2f34dd,687ed1b7e638a4cbf2f02089,68802e95754069ae6a3e6146,,,,,,,,,,,,,10,,,,,,,,,,,,,,,,,,,,,,,,,,,,,,,,,,,,,,,,,,,,,,,,,,,,,,,,,,,,,,,,,,,,,,,,,,,,,,,721.9524,726.8813,slightly agree,0,9,9,9,1,People often tell me that I went too far in driving my point home in a discussion.,1,0,0,1,,
