instructions_exposure.started,instructions_exposure.stopped,instructions_exposure_loop.thisRepN,instructions_exposure_loop.thisTrialN,instructions_exposure_loop.thisN,instructions_exposure_loop.thisIndex,instructions_exposure_loop.ran,instructions_text,continue_text,participant_id,"What variety of Spanish are you most familiar with? (e.g., Peruvian, Spanish, Mexican)",At what age did you begin learning Spanish?,Are you proficient in any languages other than English/Spanish?,"Are you familiar with Caribbean (e.g., Caribbean, Puerto Rican) or Galician Spanish?",date,expName,psychopyVersion,OS,frameRate,id,study_id,session,trial_exposure.started,trial_exposure.stopped,key_resp_exposure.keys,key_resp_exposure.corr,key_resp.keys,key_resp.rt,key_resp.duration,exposure_loop.thisRepN,exposure_loop.thisTrialN,exposure_loop.thisN,exposure_loop.thisIndex,exposure_loop.ran,item_num,correct_response,question,path,duration,key_resp_exposure.rt,key_resp_exposure.duration,instructions_2afc.started,instructions_2afc.stopped,instructions_2afc_loop.thisRepN,instructions_2afc_loop.thisTrialN,instructions_2afc_loop.thisN,instructions_2afc_loop.thisIndex,instructions_2afc_loop.ran,practice_2afc.started,practice_2afc.stopped,key_resp_2afc_practice.keys,key_resp_2afc_practice.corr,key_resp_2afc_practice.rt,key_resp_2afc_practice.duration,trials_2afc_practice_loop.thisRepN,trials_2afc_practice_loop.thisTrialN,trials_2afc_practice_loop.thisN,trials_2afc_practice_loop.thisIndex,trials_2afc_practice_loop.ran,check_2afc.started,check_2afc.stopped,trial_2afc.started,trial_2afc.stopped,key_resp_2afc_trial.keys,key_resp_2afc_trial.corr,key_resp_2afc_trial.rt,key_resp_2afc_trial.duration,trials_2afc_loop.thisRepN,trials_2afc_loop.thisTrialN,trials_2afc_loop.thisN,trials_2afc_loop.thisIndex,trials_2afc_loop.ran,target,variety,instructions_lextale.started,instructions_lextale.stopped,instructions_lextale_loop.thisRepN,instructions_lextale_loop.thisTrialN,instructions_lextale_loop.thisN,instructions_lextale_loop.thisIndex,instructions_lextale_loop.ran,practice_lextale.started,practice_lextale.stopped,key_resp_lextale_practice.keys,key_resp_lextale_practice.corr,key_resp_lextale_practice.rt,key_resp_lextale_practice.duration,practice_feedback_lextale.started,practice_feedback_lextale.stopped,trials_lextale_practice_loop.thisRepN,trials_lextale_practice_loop.thisTrialN,trials_lextale_practice_loop.thisN,trials_lextale_practice_loop.thisIndex,trials_lextale_practice_loop.ran,stim,word,prac_button_real,prac_button_false,check_lextale.started,check_lextale.stopped,trial_lextale.started,trial_lextale.stopped,key_resp_lextale_trial.keys,key_resp_lextale_trial.corr,key_resp_lextale_trial.rt,key_resp_lextale_trial.duration,trials_lextale_loop.thisRepN,trials_lextale_loop.thisTrialN,trials_lextale_loop.thisN,trials_lextale_loop.thisIndex,trials_lextale_loop.ran,button_real,button_false,instructions_eq.started,instructions_eq.stopped,trial_eq.started,trial_eq.stopped,slider_eq_trial.response,trials_eq_loop.thisRepN,trials_eq_loop.thisTrialN,trials_eq_loop.thisN,trials_eq_loop.thisIndex,trials_eq_loop.ran,item,is_test_item,is_distractor,is_agree_score,is_disagree_score,end_exp.started,end_exp.stopped
0.007,1.175,0,0,0,0,1,"In the following task, you are going to hear a series of conversations.", (press the space bar to continue),6516d5862e627be30bea296f,Spanish,13 or older,"no, only English or Spanish",no,2025-07-23_08h04.27.707,empathy_intonation_perc,2024.2.4,Win32,31.70577045,6516d5862e627be30bea296f,687ed1b7e638a4cbf2f02089,6880cef4a01e479eda997fd4,,,,,,,,,,,,,,,,,,,,,,,,,,,,,,,,,,,,,,,,,,,,,,,,,,,,,,,,,,,,,,,,,,,,,,,,,,,,,,,,,,,,,,,,,,,,,,,,,,,,,,,,,,,,
1.175,1.425,0,1,1,1,1,It is okay if you don't not 100% understand them!, (press the space bar to continue),6516d5862e627be30bea296f,Spanish,13 or older,"no, only English or Spanish",no,2025-07-23_08h04.27.707,empathy_intonation_perc,2024.2.4,Win32,31.70577045,6516d5862e627be30bea296f,687ed1b7e638a4cbf2f02089,6880cef4a01e479eda997fd4,,,,,,,,,,,,,,,,,,,,,,,,,,,,,,,,,,,,,,,,,,,,,,,,,,,,,,,,,,,,,,,,,,,,,,,,,,,,,,,,,,,,,,,,,,,,,,,,,,,,,,,,,,,,
1.427,1.674,0,2,2,2,1,"After, you will read a sentence about the conversation and decide if it's true or false.", (press the space bar to continue),6516d5862e627be30bea296f,Spanish,13 or older,"no, only English or Spanish",no,2025-07-23_08h04.27.707,empathy_intonation_perc,2024.2.4,Win32,31.70577045,6516d5862e627be30bea296f,687ed1b7e638a4cbf2f02089,6880cef4a01e479eda997fd4,,,,,,,,,,,,,,,,,,,,,,,,,,,,,,,,,,,,,,,,,,,,,,,,,,,,,,,,,,,,,,,,,,,,,,,,,,,,,,,,,,,,,,,,,,,,,,,,,,,,,,,,,,,,
1.675,3.035,0,3,3,3,1,"If it's true, press '1' (True) and if it's false press '0' (False).", (press the space bar to continue),6516d5862e627be30bea296f,Spanish,13 or older,"no, only English or Spanish",no,2025-07-23_08h04.27.707,empathy_intonation_perc,2024.2.4,Win32,31.70577045,6516d5862e627be30bea296f,687ed1b7e638a4cbf2f02089,6880cef4a01e479eda997fd4,,,,,,,,,,,,,,,,,,,,,,,,,,,,,,,,,,,,,,,,,,,,,,,,,,,,,,,,,,,,,,,,,,,,,,,,,,,,,,,,,,,,,,,,,,,,,,,,,,,,,,,,,,,,
,,,,,,,,,6516d5862e627be30bea296f,Spanish,13 or older,"no, only English or Spanish",no,2025-07-23_08h04.27.707,empathy_intonation_perc,2024.2.4,Win32,31.70577045,6516d5862e627be30bea296f,687ed1b7e638a4cbf2f02089,6880cef4a01e479eda997fd4,3.04,10.933,,0,c,7.865,,0,0,0,1,1,2,1,The mom asked the daughter if she already went to the supermarket.,./stim/exposure_wavs/dr_stimuli_convo.wav,60,,,,,,,,,,,,,,,,,,,,,,,,,,,,,,,,,,,,,,,,,,,,,,,,,,,,,,,,,,,,,,,,,,,,,,,,,,,,,,,,,,,,,,,,,,,
,,,,,,,,,6516d5862e627be30bea296f,Spanish,13 or older,"no, only English or Spanish",no,2025-07-23_08h04.27.707,empathy_intonation_perc,2024.2.4,Win32,31.70577045,6516d5862e627be30bea296f,687ed1b7e638a4cbf2f02089,6880cef4a01e479eda997fd4,10.937,60.996,1,0,,,,0,1,1,2,1,3,0,The mom already has rice.,./stim/exposure_wavs/pr_stimuli_convo.wav,36,12.633,,,,,,,,,,,,,,,,,,,,,,,,,,,,,,,,,,,,,,,,,,,,,,,,,,,,,,,,,,,,,,,,,,,,,,,,,,,,,,,,,,,,,,,,,,
,,,,,,,,,6516d5862e627be30bea296f,Spanish,13 or older,"no, only English or Spanish",no,2025-07-23_08h04.27.707,empathy_intonation_perc,2024.2.4,Win32,31.70577045,6516d5862e627be30bea296f,687ed1b7e638a4cbf2f02089,6880cef4a01e479eda997fd4,61,115.543,1,1,,,,0,2,2,0,1,1,1,The son asked the mom if Aunt Marina is okay.,./stim/exposure_wavs/ga_stimuli_convo.wav,47,7.447,,,,,,,,,,,,,,,,,,,,,,,,,,,,,,,,,,,,,,,,,,,,,,,,,,,,,,,,,,,,,,,,,,,,,,,,,,,,,,,,,,,,,,,,,,
,,,,,,,"In the following task you are going to hear a series of utterances. 

  You will decide if the utterances sound like questions or not using your keyboard.", (press the spacebar to continue),6516d5862e627be30bea296f,Spanish,13 or older,"no, only English or Spanish",no,2025-07-23_08h04.27.707,empathy_intonation_perc,2024.2.4,Win32,31.70577045,6516d5862e627be30bea296f,687ed1b7e638a4cbf2f02089,6880cef4a01e479eda997fd4,,,,,,,,,,,,,,,,,,,,115.55,119.532,0,0,0,0,1,,,,,,,,,,,,,,,,,,,,,,,,,,,,,,,,,,,,,,,,,,,,,,,,,,,,,,,,,,,,,,,,,,,,,,,,,,,,,,,,,,
,,,,,,,"If you believe the utterance is a question, type '1' (for 'yes') and if you do not 
  believe it is a question type '0' (for 'no').

  Let's practice a bit...", (press the spacebar to continue),6516d5862e627be30bea296f,Spanish,13 or older,"no, only English or Spanish",no,2025-07-23_08h04.27.707,empathy_intonation_perc,2024.2.4,Win32,31.70577045,6516d5862e627be30bea296f,687ed1b7e638a4cbf2f02089,6880cef4a01e479eda997fd4,,,,,,,,,,,,,,,,,,,,119.534,123.222,0,1,1,1,1,,,,,,,,,,,,,,,,,,,,,,,,,,,,,,,,,,,,,,,,,,,,,,,,,,,,,,,,,,,,,,,,,,,,,,,,,,,,,,,,,,
,,,,,,,,,6516d5862e627be30bea296f,Spanish,13 or older,"no, only English or Spanish",no,2025-07-23_08h04.27.707,empathy_intonation_perc,2024.2.4,Win32,31.70577045,6516d5862e627be30bea296f,687ed1b7e638a4cbf2f02089,6880cef4a01e479eda997fd4,,,,,,,,,,,,,,1,,./stim/wavs/argentine_question_filler_Mi-vecino-habla-mucho.wav,,,,,,,,,,,123.228,126.479,1,1,2.711,,0,0,0,1,1,,,,,,,,,,,,,,,,,,,,,,,,,,,,,,,,,,,,,,,,,,,,,,,,,,,,,,,,,,,,,,,,,,,,,,,
,,,,,,,,,6516d5862e627be30bea296f,Spanish,13 or older,"no, only English or Spanish",no,2025-07-23_08h04.27.707,empathy_intonation_perc,2024.2.4,Win32,31.70577045,6516d5862e627be30bea296f,687ed1b7e638a4cbf2f02089,6880cef4a01e479eda997fd4,,,,,,,,,,,,,,0,,./stim/wavs/puertorican_statement_filler_La-nina-pinta-con-su-amiga.wav,,,,,,,,,,,126.483,131.06,0,1,4.052,,0,1,1,7,1,,,,,,,,,,,,,,,,,,,,,,,,,,,,,,,,,,,,,,,,,,,,,,,,,,,,,,,,,,,,,,,,,,,,,,,
,,,,,,,,,6516d5862e627be30bea296f,Spanish,13 or older,"no, only English or Spanish",no,2025-07-23_08h04.27.707,empathy_intonation_perc,2024.2.4,Win32,31.70577045,6516d5862e627be30bea296f,687ed1b7e638a4cbf2f02089,6880cef4a01e479eda997fd4,,,,,,,,,,,,,,0,,./stim/wavs/peruvian_statement_filler_El-nino-habla-con-su-madre.wav,,,,,,,,,,,131.06,134.658,0,1,3.06,,0,2,2,6,1,,,,,,,,,,,,,,,,,,,,,,,,,,,,,,,,,,,,,,,,,,,,,,,,,,,,,,,,,,,,,,,,,,,,,,,
,,,,,,,,,6516d5862e627be30bea296f,Spanish,13 or older,"no, only English or Spanish",no,2025-07-23_08h04.27.707,empathy_intonation_perc,2024.2.4,Win32,31.70577045,6516d5862e627be30bea296f,687ed1b7e638a4cbf2f02089,6880cef4a01e479eda997fd4,,,,,,,,,,,,,,1,,./stim/wavs/mexican_question_filler_Felipe-no-tiene-contrasena.wav,,,,,,,,,,,134.659,137.854,1,1,2.66,,0,3,3,3,1,,,,,,,,,,,,,,,,,,,,,,,,,,,,,,,,,,,,,,,,,,,,,,,,,,,,,,,,,,,,,,,,,,,,,,,
,,,,,,,,,6516d5862e627be30bea296f,Spanish,13 or older,"no, only English or Spanish",no,2025-07-23_08h04.27.707,empathy_intonation_perc,2024.2.4,Win32,31.70577045,6516d5862e627be30bea296f,687ed1b7e638a4cbf2f02089,6880cef4a01e479eda997fd4,,,,,,,,,,,,,,0,,./stim/wavs/andalusian_statement_filler_Alberto-nunca-se-afeita.wav,,,,,,,,,,,137.855,140.739,0,1,2.348,,0,4,4,5,1,,,,,,,,,,,,,,,,,,,,,,,,,,,,,,,,,,,,,,,,,,,,,,,,,,,,,,,,,,,,,,,,,,,,,,,
,,,,,,,,,6516d5862e627be30bea296f,Spanish,13 or older,"no, only English or Spanish",no,2025-07-23_08h04.27.707,empathy_intonation_perc,2024.2.4,Win32,31.70577045,6516d5862e627be30bea296f,687ed1b7e638a4cbf2f02089,6880cef4a01e479eda997fd4,,,,,,,,,,,,,,0,,./stim/wavs/cuban_statement_filler_Cocinabas-por-la-noche.wav,,,,,,,,,,,140.739,143.977,0,1,2.719,,0,5,5,4,1,,,,,,,,,,,,,,,,,,,,,,,,,,,,,,,,,,,,,,,,,,,,,,,,,,,,,,,,,,,,,,,,,,,,,,,
,,,,,,,,,6516d5862e627be30bea296f,Spanish,13 or older,"no, only English or Spanish",no,2025-07-23_08h04.27.707,empathy_intonation_perc,2024.2.4,Win32,31.70577045,6516d5862e627be30bea296f,687ed1b7e638a4cbf2f02089,6880cef4a01e479eda997fd4,,,,,,,,,,,,,,1,,./stim/wavs/chilean_question_filler_Mi-padre-cantaba-bien.wav,,,,,,,,,,,143.978,148.251,1,1,3.738,,0,6,6,2,1,,,,,,,,,,,,,,,,,,,,,,,,,,,,,,,,,,,,,,,,,,,,,,,,,,,,,,,,,,,,,,,,,,,,,,,
,,,,,,,,,6516d5862e627be30bea296f,Spanish,13 or older,"no, only English or Spanish",no,2025-07-23_08h04.27.707,empathy_intonation_perc,2024.2.4,Win32,31.70577045,6516d5862e627be30bea296f,687ed1b7e638a4cbf2f02089,6880cef4a01e479eda997fd4,,,,,,,,,,,,,,1,,./stim/wavs/castilian_question_filler_Mi-esposo-conoce-al-chico.wav,,,,,,,,,,,148.253,151.879,1,1,3.083,,0,7,7,0,1,,,,,,,,,,,,,,,,,,,,,,,,,,,,,,,,,,,,,,,,,,,,,,,,,,,,,,,,,,,,,,,,,,,,,,,
,,,,,,,,,6516d5862e627be30bea296f,Spanish,13 or older,"no, only English or Spanish",no,2025-07-23_08h04.27.707,empathy_intonation_perc,2024.2.4,Win32,31.70577045,6516d5862e627be30bea296f,687ed1b7e638a4cbf2f02089,6880cef4a01e479eda997fd4,,,,,,,,,,,,,,,,,,,,,,,,,,,,,,,,,,,,,,151.879,155.09,,,,,,,,,,,,,,,,,,,,,,,,,,,,,,,,,,,,,,,,,,,,,,,,,,,,,,,,,,,,,,,,,,,,,
,,,,,,,,,6516d5862e627be30bea296f,Spanish,13 or older,"no, only English or Spanish",no,2025-07-23_08h04.27.707,empathy_intonation_perc,2024.2.4,Win32,31.70577045,6516d5862e627be30bea296f,687ed1b7e638a4cbf2f02089,6880cef4a01e479eda997fd4,,,,,,,,,,,,,78,0,,./stim/wavs/cuban_mismatch_declarative-broad-focus_Mi-tia-odia-la-lluvia.wav,,,,,,,,,,,,,,,,,,,,,,,,155.099,158.11,0,1,2.473,,0,0,0,77,1,0,cuban,,,,,,,,,,,,,,,,,,,,,,,,,,,,,,,,,,,,,,,,,,,,,,,,,,,,,,,,
,,,,,,,,,6516d5862e627be30bea296f,Spanish,13 or older,"no, only English or Spanish",no,2025-07-23_08h04.27.707,empathy_intonation_perc,2024.2.4,Win32,31.70577045,6516d5862e627be30bea296f,687ed1b7e638a4cbf2f02089,6880cef4a01e479eda997fd4,,,,,,,,,,,,,48,0,,./stim/wavs/castilian_match_declarative-broad-focus_Maria-bebe-el-vino.wav,,,,,,,,,,,,,,,,,,,,,,,,158.111,160.838,0,1,2.2,,0,1,1,47,1,0,castilian,,,,,,,,,,,,,,,,,,,,,,,,,,,,,,,,,,,,,,,,,,,,,,,,,,,,,,,,
,,,,,,,,,6516d5862e627be30bea296f,Spanish,13 or older,"no, only English or Spanish",no,2025-07-23_08h04.27.707,empathy_intonation_perc,2024.2.4,Win32,31.70577045,6516d5862e627be30bea296f,687ed1b7e638a4cbf2f02089,6880cef4a01e479eda997fd4,,,,,,,,,,,,,49,0,,./stim/wavs/castilian_match_declarative-broad-focus_Mariano-habla-del-tiempo.wav,,,,,,,,,,,,,,,,,,,,,,,,160.838,164.095,0,1,2.712,,0,2,2,48,1,0,castilian,,,,,,,,,,,,,,,,,,,,,,,,,,,,,,,,,,,,,,,,,,,,,,,,,,,,,,,,
,,,,,,,,,6516d5862e627be30bea296f,Spanish,13 or older,"no, only English or Spanish",no,2025-07-23_08h04.27.707,empathy_intonation_perc,2024.2.4,Win32,31.70577045,6516d5862e627be30bea296f,687ed1b7e638a4cbf2f02089,6880cef4a01e479eda997fd4,,,,,,,,,,,,,10,1,,./stim/wavs/cuban_match_interrogative-total-yn_Maria-bebe-el-vino.wav,,,,,,,,,,,,,,,,,,,,,,,,164.096,167.284,0,0,2.64,,0,3,3,9,1,1,cuban,,,,,,,,,,,,,,,,,,,,,,,,,,,,,,,,,,,,,,,,,,,,,,,,,,,,,,,,
,,,,,,,,,6516d5862e627be30bea296f,Spanish,13 or older,"no, only English or Spanish",no,2025-07-23_08h04.27.707,empathy_intonation_perc,2024.2.4,Win32,31.70577045,6516d5862e627be30bea296f,687ed1b7e638a4cbf2f02089,6880cef4a01e479eda997fd4,,,,,,,,,,,,,56,0,,./stim/wavs/cuban_match_declarative-broad-focus_Marta-abre-el-regalo.wav,,,,,,,,,,,,,,,,,,,,,,,,167.284,169.903,0,1,2.093,,0,4,4,55,1,0,cuban,,,,,,,,,,,,,,,,,,,,,,,,,,,,,,,,,,,,,,,,,,,,,,,,,,,,,,,,
,,,,,,,,,6516d5862e627be30bea296f,Spanish,13 or older,"no, only English or Spanish",no,2025-07-23_08h04.27.707,empathy_intonation_perc,2024.2.4,Win32,31.70577045,6516d5862e627be30bea296f,687ed1b7e638a4cbf2f02089,6880cef4a01e479eda997fd4,,,,,,,,,,,,,53,0,,./stim/wavs/cuban_match_declarative-broad-focus_Manuela-vende-el-carro.wav,,,,,,,,,,,,,,,,,,,,,,,,169.904,172.618,0,1,2.176,,0,5,5,52,1,0,cuban,,,,,,,,,,,,,,,,,,,,,,,,,,,,,,,,,,,,,,,,,,,,,,,,,,,,,,,,
,,,,,,,,,6516d5862e627be30bea296f,Spanish,13 or older,"no, only English or Spanish",no,2025-07-23_08h04.27.707,empathy_intonation_perc,2024.2.4,Win32,31.70577045,6516d5862e627be30bea296f,687ed1b7e638a4cbf2f02089,6880cef4a01e479eda997fd4,,,,,,,,,,,,,58,0,,./stim/wavs/mexican_match_declarative-broad-focus_Daniel-iba-a-Bolivia.wav,,,,,,,,,,,,,,,,,,,,,,,,172.619,175.164,0,1,2.007,,0,6,6,57,1,0,mexican,,,,,,,,,,,,,,,,,,,,,,,,,,,,,,,,,,,,,,,,,,,,,,,,,,,,,,,,
,,,,,,,,,6516d5862e627be30bea296f,Spanish,13 or older,"no, only English or Spanish",no,2025-07-23_08h04.27.707,empathy_intonation_perc,2024.2.4,Win32,31.70577045,6516d5862e627be30bea296f,687ed1b7e638a4cbf2f02089,6880cef4a01e479eda997fd4,,,,,,,,,,,,,73,0,,./stim/wavs/castilian_mismatch_declarative-broad-focus_Mi-tia-odia-la-lluvia.wav,,,,,,,,,,,,,,,,,,,,,,,,175.165,177.764,0,1,2.063,,0,7,7,72,1,0,castilian,,,,,,,,,,,,,,,,,,,,,,,,,,,,,,,,,,,,,,,,,,,,,,,,,,,,,,,,
,,,,,,,,,6516d5862e627be30bea296f,Spanish,13 or older,"no, only English or Spanish",no,2025-07-23_08h04.27.707,empathy_intonation_perc,2024.2.4,Win32,31.70577045,6516d5862e627be30bea296f,687ed1b7e638a4cbf2f02089,6880cef4a01e479eda997fd4,,,,,,,,,,,,,11,1,,./stim/wavs/cuban_match_interrogative-total-yn_Mariano-habla-del-tiempo.wav,,,,,,,,,,,,,,,,,,,,,,,,177.766,182.888,0,0,4.58,,0,8,8,10,1,1,cuban,,,,,,,,,,,,,,,,,,,,,,,,,,,,,,,,,,,,,,,,,,,,,,,,,,,,,,,,
,,,,,,,,,6516d5862e627be30bea296f,Spanish,13 or older,"no, only English or Spanish",no,2025-07-23_08h04.27.707,empathy_intonation_perc,2024.2.4,Win32,31.70577045,6516d5862e627be30bea296f,687ed1b7e638a4cbf2f02089,6880cef4a01e479eda997fd4,,,,,,,,,,,,,7,1,,./stim/wavs/cuban_match_interrogative-total-yn_Ana-lleva-el-abrigo.wav,,,,,,,,,,,,,,,,,,,,,,,,182.889,188.574,0,0,5.152,,0,9,9,6,1,1,cuban,,,,,,,,,,,,,,,,,,,,,,,,,,,,,,,,,,,,,,,,,,,,,,,,,,,,,,,,
,,,,,,,,,6516d5862e627be30bea296f,Spanish,13 or older,"no, only English or Spanish",no,2025-07-23_08h04.27.707,empathy_intonation_perc,2024.2.4,Win32,31.70577045,6516d5862e627be30bea296f,687ed1b7e638a4cbf2f02089,6880cef4a01e479eda997fd4,,,,,,,,,,,,,1,1,,./stim/wavs/castilian_match_interrogative-total-yn_David-leia-el-libro.wav,,,,,,,,,,,,,,,,,,,,,,,,188.575,191.463,1,1,2.34,,0,10,10,0,1,0,castilian,,,,,,,,,,,,,,,,,,,,,,,,,,,,,,,,,,,,,,,,,,,,,,,,,,,,,,,,
,,,,,,,,,6516d5862e627be30bea296f,Spanish,13 or older,"no, only English or Spanish",no,2025-07-23_08h04.27.707,empathy_intonation_perc,2024.2.4,Win32,31.70577045,6516d5862e627be30bea296f,687ed1b7e638a4cbf2f02089,6880cef4a01e479eda997fd4,,,,,,,,,,,,,13,1,,./stim/wavs/mexican_match_interrogative-total-yn_Ana-lleva-el-abrigo.wav,,,,,,,,,,,,,,,,,,,,,,,,191.464,193.937,1,1,1.962,,0,11,11,12,1,0,mexican,,,,,,,,,,,,,,,,,,,,,,,,,,,,,,,,,,,,,,,,,,,,,,,,,,,,,,,,
,,,,,,,,,6516d5862e627be30bea296f,Spanish,13 or older,"no, only English or Spanish",no,2025-07-23_08h04.27.707,empathy_intonation_perc,2024.2.4,Win32,31.70577045,6516d5862e627be30bea296f,687ed1b7e638a4cbf2f02089,6880cef4a01e479eda997fd4,,,,,,,,,,,,,74,0,,./stim/wavs/cuban_mismatch_declarative-broad-focus_El-bebe-comia-muy-bien.wav,,,,,,,,,,,,,,,,,,,,,,,,193.937,196.59,0,1,2.105,,0,12,12,73,1,0,cuban,,,,,,,,,,,,,,,,,,,,,,,,,,,,,,,,,,,,,,,,,,,,,,,,,,,,,,,,
,,,,,,,,,6516d5862e627be30bea296f,Spanish,13 or older,"no, only English or Spanish",no,2025-07-23_08h04.27.707,empathy_intonation_perc,2024.2.4,Win32,31.70577045,6516d5862e627be30bea296f,687ed1b7e638a4cbf2f02089,6880cef4a01e479eda997fd4,,,,,,,,,,,,,83,0,,./stim/wavs/mexican_mismatch_declarative-broad-focus_Mi-tia-odia-la-lluvia.wav,,,,,,,,,,,,,,,,,,,,,,,,196.591,199.11,0,1,1.974,,0,13,13,82,1,0,mexican,,,,,,,,,,,,,,,,,,,,,,,,,,,,,,,,,,,,,,,,,,,,,,,,,,,,,,,,
,,,,,,,,,6516d5862e627be30bea296f,Spanish,13 or older,"no, only English or Spanish",no,2025-07-23_08h04.27.707,empathy_intonation_perc,2024.2.4,Win32,31.70577045,6516d5862e627be30bea296f,687ed1b7e638a4cbf2f02089,6880cef4a01e479eda997fd4,,,,,,,,,,,,,28,1,,./stim/wavs/castilian_mismatch_interrogative-total-yn_Mi-novio-viene-del-lago.wav,,,,,,,,,,,,,,,,,,,,,,,,199.11,203.542,1,1,3.916,,0,14,14,27,1,0,castilian,,,,,,,,,,,,,,,,,,,,,,,,,,,,,,,,,,,,,,,,,,,,,,,,,,,,,,,,
,,,,,,,,,6516d5862e627be30bea296f,Spanish,13 or older,"no, only English or Spanish",no,2025-07-23_08h04.27.707,empathy_intonation_perc,2024.2.4,Win32,31.70577045,6516d5862e627be30bea296f,687ed1b7e638a4cbf2f02089,6880cef4a01e479eda997fd4,,,,,,,,,,,,,3,1,,./stim/wavs/castilian_match_interrogative-total-yn_Manuela-vende-el-carro.wav,,,,,,,,,,,,,,,,,,,,,,,,203.542,207.835,1,1,3.747,,0,15,15,2,1,0,castilian,,,,,,,,,,,,,,,,,,,,,,,,,,,,,,,,,,,,,,,,,,,,,,,,,,,,,,,,
,,,,,,,,,6516d5862e627be30bea296f,Spanish,13 or older,"no, only English or Spanish",no,2025-07-23_08h04.27.707,empathy_intonation_perc,2024.2.4,Win32,31.70577045,6516d5862e627be30bea296f,687ed1b7e638a4cbf2f02089,6880cef4a01e479eda997fd4,,,,,,,,,,,,,45,0,,./stim/wavs/castilian_match_declarative-broad-focus_David-leia-el-libro.wav,,,,,,,,,,,,,,,,,,,,,,,,207.836,210.533,0,1,2.161,,0,16,16,44,1,0,castilian,,,,,,,,,,,,,,,,,,,,,,,,,,,,,,,,,,,,,,,,,,,,,,,,,,,,,,,,
,,,,,,,,,6516d5862e627be30bea296f,Spanish,13 or older,"no, only English or Spanish",no,2025-07-23_08h04.27.707,empathy_intonation_perc,2024.2.4,Win32,31.70577045,6516d5862e627be30bea296f,687ed1b7e638a4cbf2f02089,6880cef4a01e479eda997fd4,,,,,,,,,,,,,72,0,,./stim/wavs/castilian_mismatch_declarative-broad-focus_Mi-novio-viene-del-lago.wav,,,,,,,,,,,,,,,,,,,,,,,,210.534,213.533,0,1,2.445,,0,17,17,71,1,0,castilian,,,,,,,,,,,,,,,,,,,,,,,,,,,,,,,,,,,,,,,,,,,,,,,,,,,,,,,,
,,,,,,,,,6516d5862e627be30bea296f,Spanish,13 or older,"no, only English or Spanish",no,2025-07-23_08h04.27.707,empathy_intonation_perc,2024.2.4,Win32,31.70577045,6516d5862e627be30bea296f,687ed1b7e638a4cbf2f02089,6880cef4a01e479eda997fd4,,,,,,,,,,,,,15,1,,./stim/wavs/mexican_match_interrogative-total-yn_David-leia-el-libro.wav,,,,,,,,,,,,,,,,,,,,,,,,213.533,216.053,1,1,1.988,,0,18,18,14,1,0,mexican,,,,,,,,,,,,,,,,,,,,,,,,,,,,,,,,,,,,,,,,,,,,,,,,,,,,,,,,
,,,,,,,,,6516d5862e627be30bea296f,Spanish,13 or older,"no, only English or Spanish",no,2025-07-23_08h04.27.707,empathy_intonation_perc,2024.2.4,Win32,31.70577045,6516d5862e627be30bea296f,687ed1b7e638a4cbf2f02089,6880cef4a01e479eda997fd4,,,,,,,,,,,,,64,0,,./stim/wavs/puertorican_match_declarative-broad-focus_Daniel-iba-a-Bolivia.wav,,,,,,,,,,,,,,,,,,,,,,,,216.054,218.602,0,1,2.016,,0,19,19,63,1,0,puertorican,,,,,,,,,,,,,,,,,,,,,,,,,,,,,,,,,,,,,,,,,,,,,,,,,,,,,,,,
,,,,,,,,,6516d5862e627be30bea296f,Spanish,13 or older,"no, only English or Spanish",no,2025-07-23_08h04.27.707,empathy_intonation_perc,2024.2.4,Win32,31.70577045,6516d5862e627be30bea296f,687ed1b7e638a4cbf2f02089,6880cef4a01e479eda997fd4,,,,,,,,,,,,,38,1,,./stim/wavs/mexican_mismatch_interrogative-total-yn_Mi-novio-viene-del-lago.wav,,,,,,,,,,,,,,,,,,,,,,,,218.602,223.378,1,1,4.258,,0,20,20,37,1,0,mexican,,,,,,,,,,,,,,,,,,,,,,,,,,,,,,,,,,,,,,,,,,,,,,,,,,,,,,,,
,,,,,,,,,6516d5862e627be30bea296f,Spanish,13 or older,"no, only English or Spanish",no,2025-07-23_08h04.27.707,empathy_intonation_perc,2024.2.4,Win32,31.70577045,6516d5862e627be30bea296f,687ed1b7e638a4cbf2f02089,6880cef4a01e479eda997fd4,,,,,,,,,,,,,81,0,,./stim/wavs/mexican_mismatch_declarative-broad-focus_La-maestra-vive-en-Paris.wav,,,,,,,,,,,,,,,,,,,,,,,,223.379,225.943,0,1,2.038,,0,21,21,80,1,0,mexican,,,,,,,,,,,,,,,,,,,,,,,,,,,,,,,,,,,,,,,,,,,,,,,,,,,,,,,,
,,,,,,,,,6516d5862e627be30bea296f,Spanish,13 or older,"no, only English or Spanish",no,2025-07-23_08h04.27.707,empathy_intonation_perc,2024.2.4,Win32,31.70577045,6516d5862e627be30bea296f,687ed1b7e638a4cbf2f02089,6880cef4a01e479eda997fd4,,,,,,,,,,,,,34,1,,./stim/wavs/cuban_mismatch_interrogative-total-yn_Mi-tia-odia-la-lluvia.wav,,,,,,,,,,,,,,,,,,,,,,,,225.945,228.787,0,0,2.316,,0,22,22,33,1,1,cuban,,,,,,,,,,,,,,,,,,,,,,,,,,,,,,,,,,,,,,,,,,,,,,,,,,,,,,,,
,,,,,,,,,6516d5862e627be30bea296f,Spanish,13 or older,"no, only English or Spanish",no,2025-07-23_08h04.27.707,empathy_intonation_perc,2024.2.4,Win32,31.70577045,6516d5862e627be30bea296f,687ed1b7e638a4cbf2f02089,6880cef4a01e479eda997fd4,,,,,,,,,,,,,67,0,,./stim/wavs/puertorican_match_declarative-broad-focus_Manuela-vende-el-carro.wav,,,,,,,,,,,,,,,,,,,,,,,,228.787,231.291,0,1,1.974,,0,23,23,66,1,0,puertorican,,,,,,,,,,,,,,,,,,,,,,,,,,,,,,,,,,,,,,,,,,,,,,,,,,,,,,,,
,,,,,,,,,6516d5862e627be30bea296f,Spanish,13 or older,"no, only English or Spanish",no,2025-07-23_08h04.27.707,empathy_intonation_perc,2024.2.4,Win32,31.70577045,6516d5862e627be30bea296f,687ed1b7e638a4cbf2f02089,6880cef4a01e479eda997fd4,,,,,,,,,,,,,66,0,,./stim/wavs/puertorican_match_declarative-broad-focus_Emilio-ama-la-marcha.wav,,,,,,,,,,,,,,,,,,,,,,,,231.292,234.04,0,1,2.217,,0,24,24,65,1,0,puertorican,,,,,,,,,,,,,,,,,,,,,,,,,,,,,,,,,,,,,,,,,,,,,,,,,,,,,,,,
,,,,,,,,,6516d5862e627be30bea296f,Spanish,13 or older,"no, only English or Spanish",no,2025-07-23_08h04.27.707,empathy_intonation_perc,2024.2.4,Win32,31.70577045,6516d5862e627be30bea296f,687ed1b7e638a4cbf2f02089,6880cef4a01e479eda997fd4,,,,,,,,,,,,,54,0,,./stim/wavs/cuban_match_declarative-broad-focus_Maria-bebe-el-vino.wav,,,,,,,,,,,,,,,,,,,,,,,,234.041,236.422,0,1,1.851,,0,25,25,53,1,0,cuban,,,,,,,,,,,,,,,,,,,,,,,,,,,,,,,,,,,,,,,,,,,,,,,,,,,,,,,,
,,,,,,,,,6516d5862e627be30bea296f,Spanish,13 or older,"no, only English or Spanish",no,2025-07-23_08h04.27.707,empathy_intonation_perc,2024.2.4,Win32,31.70577045,6516d5862e627be30bea296f,687ed1b7e638a4cbf2f02089,6880cef4a01e479eda997fd4,,,,,,,,,,,,,62,0,,./stim/wavs/mexican_match_declarative-broad-focus_Marta-abre-el-regalo.wav,,,,,,,,,,,,,,,,,,,,,,,,236.422,238.745,0,1,1.783,,0,26,26,61,1,0,mexican,,,,,,,,,,,,,,,,,,,,,,,,,,,,,,,,,,,,,,,,,,,,,,,,,,,,,,,,
,,,,,,,,,6516d5862e627be30bea296f,Spanish,13 or older,"no, only English or Spanish",no,2025-07-23_08h04.27.707,empathy_intonation_perc,2024.2.4,Win32,31.70577045,6516d5862e627be30bea296f,687ed1b7e638a4cbf2f02089,6880cef4a01e479eda997fd4,,,,,,,,,,,,,61,0,,./stim/wavs/mexican_match_declarative-broad-focus_Mariano-habla-del-tiempo.wav,,,,,,,,,,,,,,,,,,,,,,,,238.745,241.206,0,1,1.915,,0,27,27,60,1,0,mexican,,,,,,,,,,,,,,,,,,,,,,,,,,,,,,,,,,,,,,,,,,,,,,,,,,,,,,,,
,,,,,,,,,6516d5862e627be30bea296f,Spanish,13 or older,"no, only English or Spanish",no,2025-07-23_08h04.27.707,empathy_intonation_perc,2024.2.4,Win32,31.70577045,6516d5862e627be30bea296f,687ed1b7e638a4cbf2f02089,6880cef4a01e479eda997fd4,,,,,,,,,,,,,23,1,,./stim/wavs/puertorican_match_interrogative-total-yn_Manuela-vende-el-carro.wav,,,,,,,,,,,,,,,,,,,,,,,,241.207,243.614,0,0,1.884,,0,28,28,22,1,1,puertorican,,,,,,,,,,,,,,,,,,,,,,,,,,,,,,,,,,,,,,,,,,,,,,,,,,,,,,,,
,,,,,,,,,6516d5862e627be30bea296f,Spanish,13 or older,"no, only English or Spanish",no,2025-07-23_08h04.27.707,empathy_intonation_perc,2024.2.4,Win32,31.70577045,6516d5862e627be30bea296f,687ed1b7e638a4cbf2f02089,6880cef4a01e479eda997fd4,,,,,,,,,,,,,70,0,,./stim/wavs/castilian_mismatch_declarative-broad-focus_La-maestra-vive-en-Paris.wav,,,,,,,,,,,,,,,,,,,,,,,,243.617,246.289,0,1,2.152,,0,29,29,69,1,0,castilian,,,,,,,,,,,,,,,,,,,,,,,,,,,,,,,,,,,,,,,,,,,,,,,,,,,,,,,,
,,,,,,,,,6516d5862e627be30bea296f,Spanish,13 or older,"no, only English or Spanish",no,2025-07-23_08h04.27.707,empathy_intonation_perc,2024.2.4,Win32,31.70577045,6516d5862e627be30bea296f,687ed1b7e638a4cbf2f02089,6880cef4a01e479eda997fd4,,,,,,,,,,,,,40,1,,./stim/wavs/puertorican_mismatch_interrogative-total-yn_El-hombre-mira-la-luna.wav,,,,,,,,,,,,,,,,,,,,,,,,246.289,249.24,0,0,2.407,,0,30,30,39,1,1,puertorican,,,,,,,,,,,,,,,,,,,,,,,,,,,,,,,,,,,,,,,,,,,,,,,,,,,,,,,,
,,,,,,,,,6516d5862e627be30bea296f,Spanish,13 or older,"no, only English or Spanish",no,2025-07-23_08h04.27.707,empathy_intonation_perc,2024.2.4,Win32,31.70577045,6516d5862e627be30bea296f,687ed1b7e638a4cbf2f02089,6880cef4a01e479eda997fd4,,,,,,,,,,,,,33,1,,./stim/wavs/cuban_mismatch_interrogative-total-yn_Mi-novio-viene-del-lago.wav,,,,,,,,,,,,,,,,,,,,,,,,249.241,252.052,0,0,2.258,,0,31,31,32,1,1,cuban,,,,,,,,,,,,,,,,,,,,,,,,,,,,,,,,,,,,,,,,,,,,,,,,,,,,,,,,
,,,,,,,,,6516d5862e627be30bea296f,Spanish,13 or older,"no, only English or Spanish",no,2025-07-23_08h04.27.707,empathy_intonation_perc,2024.2.4,Win32,31.70577045,6516d5862e627be30bea296f,687ed1b7e638a4cbf2f02089,6880cef4a01e479eda997fd4,,,,,,,,,,,,,71,0,,./stim/wavs/castilian_mismatch_declarative-broad-focus_La-nina-lava-el-plato.wav,,,,,,,,,,,,,,,,,,,,,,,,252.053,254.719,0,1,2.136,,0,32,32,70,1,0,castilian,,,,,,,,,,,,,,,,,,,,,,,,,,,,,,,,,,,,,,,,,,,,,,,,,,,,,,,,
,,,,,,,,,6516d5862e627be30bea296f,Spanish,13 or older,"no, only English or Spanish",no,2025-07-23_08h04.27.707,empathy_intonation_perc,2024.2.4,Win32,31.70577045,6516d5862e627be30bea296f,687ed1b7e638a4cbf2f02089,6880cef4a01e479eda997fd4,,,,,,,,,,,,,52,0,,./stim/wavs/cuban_match_declarative-broad-focus_Daniel-iba-a-Bolivia.wav,,,,,,,,,,,,,,,,,,,,,,,,254.719,257.308,0,1,2.057,,0,33,33,51,1,0,cuban,,,,,,,,,,,,,,,,,,,,,,,,,,,,,,,,,,,,,,,,,,,,,,,,,,,,,,,,
,,,,,,,,,6516d5862e627be30bea296f,Spanish,13 or older,"no, only English or Spanish",no,2025-07-23_08h04.27.707,empathy_intonation_perc,2024.2.4,Win32,31.70577045,6516d5862e627be30bea296f,687ed1b7e638a4cbf2f02089,6880cef4a01e479eda997fd4,,,,,,,,,,,,,65,0,,./stim/wavs/puertorican_match_declarative-broad-focus_David-leia-el-libro.wav,,,,,,,,,,,,,,,,,,,,,,,,257.309,259.818,0,1,1.978,,0,34,34,64,1,0,puertorican,,,,,,,,,,,,,,,,,,,,,,,,,,,,,,,,,,,,,,,,,,,,,,,,,,,,,,,,
,,,,,,,,,6516d5862e627be30bea296f,Spanish,13 or older,"no, only English or Spanish",no,2025-07-23_08h04.27.707,empathy_intonation_perc,2024.2.4,Win32,31.70577045,6516d5862e627be30bea296f,687ed1b7e638a4cbf2f02089,6880cef4a01e479eda997fd4,,,,,,,,,,,,,9,1,,./stim/wavs/cuban_match_interrogative-total-yn_Manuela-vende-el-carro.wav,,,,,,,,,,,,,,,,,,,,,,,,259.819,262.786,0,0,2.434,,0,35,35,8,1,1,cuban,,,,,,,,,,,,,,,,,,,,,,,,,,,,,,,,,,,,,,,,,,,,,,,,,,,,,,,,
,,,,,,,,,6516d5862e627be30bea296f,Spanish,13 or older,"no, only English or Spanish",no,2025-07-23_08h04.27.707,empathy_intonation_perc,2024.2.4,Win32,31.70577045,6516d5862e627be30bea296f,687ed1b7e638a4cbf2f02089,6880cef4a01e479eda997fd4,,,,,,,,,,,,,55,0,,./stim/wavs/cuban_match_declarative-broad-focus_Mariano-habla-del-tiempo.wav,,,,,,,,,,,,,,,,,,,,,,,,262.787,265.406,0,1,2.093,,0,36,36,54,1,0,cuban,,,,,,,,,,,,,,,,,,,,,,,,,,,,,,,,,,,,,,,,,,,,,,,,,,,,,,,,
,,,,,,,,,6516d5862e627be30bea296f,Spanish,13 or older,"no, only English or Spanish",no,2025-07-23_08h04.27.707,empathy_intonation_perc,2024.2.4,Win32,31.70577045,6516d5862e627be30bea296f,687ed1b7e638a4cbf2f02089,6880cef4a01e479eda997fd4,,,,,,,,,,,,,75,0,,./stim/wavs/cuban_mismatch_declarative-broad-focus_El-hombre-mira-la-luna.wav,,,,,,,,,,,,,,,,,,,,,,,,265.407,267.817,0,1,1.883,,0,37,37,74,1,0,cuban,,,,,,,,,,,,,,,,,,,,,,,,,,,,,,,,,,,,,,,,,,,,,,,,,,,,,,,,
,,,,,,,,,6516d5862e627be30bea296f,Spanish,13 or older,"no, only English or Spanish",no,2025-07-23_08h04.27.707,empathy_intonation_perc,2024.2.4,Win32,31.70577045,6516d5862e627be30bea296f,687ed1b7e638a4cbf2f02089,6880cef4a01e479eda997fd4,,,,,,,,,,,,,50,0,,./stim/wavs/castilian_match_declarative-broad-focus_Marta-abre-el-regalo.wav,,,,,,,,,,,,,,,,,,,,,,,,267.818,270.315,0,1,1.981,,0,38,38,49,1,0,castilian,,,,,,,,,,,,,,,,,,,,,,,,,,,,,,,,,,,,,,,,,,,,,,,,,,,,,,,,
,,,,,,,,,6516d5862e627be30bea296f,Spanish,13 or older,"no, only English or Spanish",no,2025-07-23_08h04.27.707,empathy_intonation_perc,2024.2.4,Win32,31.70577045,6516d5862e627be30bea296f,687ed1b7e638a4cbf2f02089,6880cef4a01e479eda997fd4,,,,,,,,,,,,,76,0,,./stim/wavs/cuban_mismatch_declarative-broad-focus_La-nina-lava-el-plato.wav,,,,,,,,,,,,,,,,,,,,,,,,270.315,272.707,0,1,1.865,,0,39,39,75,1,0,cuban,,,,,,,,,,,,,,,,,,,,,,,,,,,,,,,,,,,,,,,,,,,,,,,,,,,,,,,,
,,,,,,,,,6516d5862e627be30bea296f,Spanish,13 or older,"no, only English or Spanish",no,2025-07-23_08h04.27.707,empathy_intonation_perc,2024.2.4,Win32,31.70577045,6516d5862e627be30bea296f,687ed1b7e638a4cbf2f02089,6880cef4a01e479eda997fd4,,,,,,,,,,,,,32,1,,./stim/wavs/cuban_mismatch_interrogative-total-yn_Mi-madre-come-la-fruta.wav,,,,,,,,,,,,,,,,,,,,,,,,272.708,275.3,0,0,2.063,,0,40,40,31,1,1,cuban,,,,,,,,,,,,,,,,,,,,,,,,,,,,,,,,,,,,,,,,,,,,,,,,,,,,,,,,
,,,,,,,,,6516d5862e627be30bea296f,Spanish,13 or older,"no, only English or Spanish",no,2025-07-23_08h04.27.707,empathy_intonation_perc,2024.2.4,Win32,31.70577045,6516d5862e627be30bea296f,687ed1b7e638a4cbf2f02089,6880cef4a01e479eda997fd4,,,,,,,,,,,,,27,1,,./stim/wavs/castilian_mismatch_interrogative-total-yn_Mi-madre-come-la-fruta.wav,,,,,,,,,,,,,,,,,,,,,,,,275.302,277.96,0,0,2.131,,0,41,41,26,1,0,castilian,,,,,,,,,,,,,,,,,,,,,,,,,,,,,,,,,,,,,,,,,,,,,,,,,,,,,,,,
,,,,,,,,,6516d5862e627be30bea296f,Spanish,13 or older,"no, only English or Spanish",no,2025-07-23_08h04.27.707,empathy_intonation_perc,2024.2.4,Win32,31.70577045,6516d5862e627be30bea296f,687ed1b7e638a4cbf2f02089,6880cef4a01e479eda997fd4,,,,,,,,,,,,,79,0,,./stim/wavs/mexican_mismatch_declarative-broad-focus_El-bebe-comia-muy-bien.wav,,,,,,,,,,,,,,,,,,,,,,,,277.96,281.038,0,1,2.542,,0,42,42,78,1,0,mexican,,,,,,,,,,,,,,,,,,,,,,,,,,,,,,,,,,,,,,,,,,,,,,,,,,,,,,,,
,,,,,,,,,6516d5862e627be30bea296f,Spanish,13 or older,"no, only English or Spanish",no,2025-07-23_08h04.27.707,empathy_intonation_perc,2024.2.4,Win32,31.70577045,6516d5862e627be30bea296f,687ed1b7e638a4cbf2f02089,6880cef4a01e479eda997fd4,,,,,,,,,,,,,59,0,,./stim/wavs/mexican_match_declarative-broad-focus_David-leia-el-libro.wav,,,,,,,,,,,,,,,,,,,,,,,,281.039,283.893,0,1,2.328,,0,43,43,58,1,0,mexican,,,,,,,,,,,,,,,,,,,,,,,,,,,,,,,,,,,,,,,,,,,,,,,,,,,,,,,,
,,,,,,,,,6516d5862e627be30bea296f,Spanish,13 or older,"no, only English or Spanish",no,2025-07-23_08h04.27.707,empathy_intonation_perc,2024.2.4,Win32,31.70577045,6516d5862e627be30bea296f,687ed1b7e638a4cbf2f02089,6880cef4a01e479eda997fd4,,,,,,,,,,,,,68,0,,./stim/wavs/puertorican_match_declarative-broad-focus_Maria-bebe-el-vino.wav,,,,,,,,,,,,,,,,,,,,,,,,283.893,288.234,1,0,3.805,,0,44,44,67,1,0,puertorican,,,,,,,,,,,,,,,,,,,,,,,,,,,,,,,,,,,,,,,,,,,,,,,,,,,,,,,,
,,,,,,,,,6516d5862e627be30bea296f,Spanish,13 or older,"no, only English or Spanish",no,2025-07-23_08h04.27.707,empathy_intonation_perc,2024.2.4,Win32,31.70577045,6516d5862e627be30bea296f,687ed1b7e638a4cbf2f02089,6880cef4a01e479eda997fd4,,,,,,,,,,,,,80,0,,./stim/wavs/mexican_mismatch_declarative-broad-focus_El-hombre-mira-la-luna.wav,,,,,,,,,,,,,,,,,,,,,,,,288.234,290.903,0,1,2.141,,0,45,45,79,1,0,mexican,,,,,,,,,,,,,,,,,,,,,,,,,,,,,,,,,,,,,,,,,,,,,,,,,,,,,,,,
,,,,,,,,,6516d5862e627be30bea296f,Spanish,13 or older,"no, only English or Spanish",no,2025-07-23_08h04.27.707,empathy_intonation_perc,2024.2.4,Win32,31.70577045,6516d5862e627be30bea296f,687ed1b7e638a4cbf2f02089,6880cef4a01e479eda997fd4,,,,,,,,,,,,,16,1,,./stim/wavs/mexican_match_interrogative-total-yn_Emilio-ama-la-marcha.wav,,,,,,,,,,,,,,,,,,,,,,,,290.905,293.758,1,1,2.324,,0,46,46,15,1,0,mexican,,,,,,,,,,,,,,,,,,,,,,,,,,,,,,,,,,,,,,,,,,,,,,,,,,,,,,,,
,,,,,,,,,6516d5862e627be30bea296f,Spanish,13 or older,"no, only English or Spanish",no,2025-07-23_08h04.27.707,empathy_intonation_perc,2024.2.4,Win32,31.70577045,6516d5862e627be30bea296f,687ed1b7e638a4cbf2f02089,6880cef4a01e479eda997fd4,,,,,,,,,,,,,46,0,,./stim/wavs/castilian_match_declarative-broad-focus_Emilio-ama-la-marcha.wav,,,,,,,,,,,,,,,,,,,,,,,,293.758,297.143,0,1,2.854,,0,47,47,45,1,0,castilian,,,,,,,,,,,,,,,,,,,,,,,,,,,,,,,,,,,,,,,,,,,,,,,,,,,,,,,,
,,,,,,,,,6516d5862e627be30bea296f,Spanish,13 or older,"no, only English or Spanish",no,2025-07-23_08h04.27.707,empathy_intonation_perc,2024.2.4,Win32,31.70577045,6516d5862e627be30bea296f,687ed1b7e638a4cbf2f02089,6880cef4a01e479eda997fd4,,,,,,,,,,,,,82,0,,./stim/wavs/mexican_mismatch_declarative-broad-focus_Mi-novio-viene-del-lago.wav,,,,,,,,,,,,,,,,,,,,,,,,297.143,299.734,0,1,2.075,,0,48,48,81,1,0,mexican,,,,,,,,,,,,,,,,,,,,,,,,,,,,,,,,,,,,,,,,,,,,,,,,,,,,,,,,
,,,,,,,,,6516d5862e627be30bea296f,Spanish,13 or older,"no, only English or Spanish",no,2025-07-23_08h04.27.707,empathy_intonation_perc,2024.2.4,Win32,31.70577045,6516d5862e627be30bea296f,687ed1b7e638a4cbf2f02089,6880cef4a01e479eda997fd4,,,,,,,,,,,,,51,0,,./stim/wavs/cuban_match_declarative-broad-focus_Ana-lleva-el-abrigo.wav,,,,,,,,,,,,,,,,,,,,,,,,299.735,302.155,0,1,1.898,,0,49,49,50,1,0,cuban,,,,,,,,,,,,,,,,,,,,,,,,,,,,,,,,,,,,,,,,,,,,,,,,,,,,,,,,
,,,,,,,,,6516d5862e627be30bea296f,Spanish,13 or older,"no, only English or Spanish",no,2025-07-23_08h04.27.707,empathy_intonation_perc,2024.2.4,Win32,31.70577045,6516d5862e627be30bea296f,687ed1b7e638a4cbf2f02089,6880cef4a01e479eda997fd4,,,,,,,,,,,,,35,1,,./stim/wavs/mexican_mismatch_interrogative-total-yn_El-hombre-mira-la-luna.wav,,,,,,,,,,,,,,,,,,,,,,,,302.156,305.26,1,1,2.572,,0,50,50,34,1,0,mexican,,,,,,,,,,,,,,,,,,,,,,,,,,,,,,,,,,,,,,,,,,,,,,,,,,,,,,,,
,,,,,,,,,6516d5862e627be30bea296f,Spanish,13 or older,"no, only English or Spanish",no,2025-07-23_08h04.27.707,empathy_intonation_perc,2024.2.4,Win32,31.70577045,6516d5862e627be30bea296f,687ed1b7e638a4cbf2f02089,6880cef4a01e479eda997fd4,,,,,,,,,,,,,22,1,,./stim/wavs/puertorican_match_interrogative-total-yn_Emilio-ama-la-marcha.wav,,,,,,,,,,,,,,,,,,,,,,,,305.26,308.312,0,0,2.529,,0,51,51,21,1,1,puertorican,,,,,,,,,,,,,,,,,,,,,,,,,,,,,,,,,,,,,,,,,,,,,,,,,,,,,,,,
,,,,,,,,,6516d5862e627be30bea296f,Spanish,13 or older,"no, only English or Spanish",no,2025-07-23_08h04.27.707,empathy_intonation_perc,2024.2.4,Win32,31.70577045,6516d5862e627be30bea296f,687ed1b7e638a4cbf2f02089,6880cef4a01e479eda997fd4,,,,,,,,,,,,,21,1,,./stim/wavs/puertorican_match_interrogative-total-yn_David-leia-el-libro.wav,,,,,,,,,,,,,,,,,,,,,,,,308.313,310.663,0,0,1.82,,0,52,52,20,1,1,puertorican,,,,,,,,,,,,,,,,,,,,,,,,,,,,,,,,,,,,,,,,,,,,,,,,,,,,,,,,
,,,,,,,,,6516d5862e627be30bea296f,Spanish,13 or older,"no, only English or Spanish",no,2025-07-23_08h04.27.707,empathy_intonation_perc,2024.2.4,Win32,31.70577045,6516d5862e627be30bea296f,687ed1b7e638a4cbf2f02089,6880cef4a01e479eda997fd4,,,,,,,,,,,,,86,0,,./stim/wavs/puertorican_mismatch_declarative-broad-focus_El-nino-oye-el-rio.wav,,,,,,,,,,,,,,,,,,,,,,,,310.663,313.139,0,1,1.947,,0,53,53,85,1,0,puertorican,,,,,,,,,,,,,,,,,,,,,,,,,,,,,,,,,,,,,,,,,,,,,,,,,,,,,,,,
,,,,,,,,,6516d5862e627be30bea296f,Spanish,13 or older,"no, only English or Spanish",no,2025-07-23_08h04.27.707,empathy_intonation_perc,2024.2.4,Win32,31.70577045,6516d5862e627be30bea296f,687ed1b7e638a4cbf2f02089,6880cef4a01e479eda997fd4,,,,,,,,,,,,,44,1,,./stim/wavs/puertorican_mismatch_interrogative-total-yn_Mi-madre-come-la-fruta.wav,,,,,,,,,,,,,,,,,,,,,,,,313.14,315.593,0,0,1.922,,0,54,54,43,1,1,puertorican,,,,,,,,,,,,,,,,,,,,,,,,,,,,,,,,,,,,,,,,,,,,,,,,,,,,,,,,
,,,,,,,,,6516d5862e627be30bea296f,Spanish,13 or older,"no, only English or Spanish",no,2025-07-23_08h04.27.707,empathy_intonation_perc,2024.2.4,Win32,31.70577045,6516d5862e627be30bea296f,687ed1b7e638a4cbf2f02089,6880cef4a01e479eda997fd4,,,,,,,,,,,,,88,0,,./stim/wavs/puertorican_mismatch_declarative-broad-focus_La-nina-lava-el-plato.wav,,,,,,,,,,,,,,,,,,,,,,,,315.593,317.995,0,1,1.878,,0,55,55,87,1,0,puertorican,,,,,,,,,,,,,,,,,,,,,,,,,,,,,,,,,,,,,,,,,,,,,,,,,,,,,,,,
,,,,,,,,,6516d5862e627be30bea296f,Spanish,13 or older,"no, only English or Spanish",no,2025-07-23_08h04.27.707,empathy_intonation_perc,2024.2.4,Win32,31.70577045,6516d5862e627be30bea296f,687ed1b7e638a4cbf2f02089,6880cef4a01e479eda997fd4,,,,,,,,,,,,,41,1,,./stim/wavs/puertorican_mismatch_interrogative-total-yn_El-nino-oye-el-rio.wav,,,,,,,,,,,,,,,,,,,,,,,,317.996,320.603,0,0,2.078,,0,56,56,40,1,1,puertorican,,,,,,,,,,,,,,,,,,,,,,,,,,,,,,,,,,,,,,,,,,,,,,,,,,,,,,,,
,,,,,,,,,6516d5862e627be30bea296f,Spanish,13 or older,"no, only English or Spanish",no,2025-07-23_08h04.27.707,empathy_intonation_perc,2024.2.4,Win32,31.70577045,6516d5862e627be30bea296f,687ed1b7e638a4cbf2f02089,6880cef4a01e479eda997fd4,,,,,,,,,,,,,26,1,,./stim/wavs/castilian_mismatch_interrogative-total-yn_La-nina-lava-el-plato.wav,,,,,,,,,,,,,,,,,,,,,,,,320.603,323.675,1,1,2.547,,0,57,57,25,1,0,castilian,,,,,,,,,,,,,,,,,,,,,,,,,,,,,,,,,,,,,,,,,,,,,,,,,,,,,,,,
,,,,,,,,,6516d5862e627be30bea296f,Spanish,13 or older,"no, only English or Spanish",no,2025-07-23_08h04.27.707,empathy_intonation_perc,2024.2.4,Win32,31.70577045,6516d5862e627be30bea296f,687ed1b7e638a4cbf2f02089,6880cef4a01e479eda997fd4,,,,,,,,,,,,,60,0,,./stim/wavs/mexican_match_declarative-broad-focus_Emilio-ama-la-marcha.wav,,,,,,,,,,,,,,,,,,,,,,,,323.676,326.232,0,1,2.016,,0,58,58,59,1,0,mexican,,,,,,,,,,,,,,,,,,,,,,,,,,,,,,,,,,,,,,,,,,,,,,,,,,,,,,,,
,,,,,,,,,6516d5862e627be30bea296f,Spanish,13 or older,"no, only English or Spanish",no,2025-07-23_08h04.27.707,empathy_intonation_perc,2024.2.4,Win32,31.70577045,6516d5862e627be30bea296f,687ed1b7e638a4cbf2f02089,6880cef4a01e479eda997fd4,,,,,,,,,,,,,4,1,,./stim/wavs/castilian_match_interrogative-total-yn_Maria-bebe-el-vino.wav,,,,,,,,,,,,,,,,,,,,,,,,326.232,328.913,1,1,2.151,,0,59,59,3,1,0,castilian,,,,,,,,,,,,,,,,,,,,,,,,,,,,,,,,,,,,,,,,,,,,,,,,,,,,,,,,
,,,,,,,,,6516d5862e627be30bea296f,Spanish,13 or older,"no, only English or Spanish",no,2025-07-23_08h04.27.707,empathy_intonation_perc,2024.2.4,Win32,31.70577045,6516d5862e627be30bea296f,687ed1b7e638a4cbf2f02089,6880cef4a01e479eda997fd4,,,,,,,,,,,,,63,0,,./stim/wavs/puertorican_match_declarative-broad-focus_Ana-lleva-el-abrigo.wav,,,,,,,,,,,,,,,,,,,,,,,,328.914,331.251,0,1,1.808,,0,60,60,62,1,0,puertorican,,,,,,,,,,,,,,,,,,,,,,,,,,,,,,,,,,,,,,,,,,,,,,,,,,,,,,,,
,,,,,,,,,6516d5862e627be30bea296f,Spanish,13 or older,"no, only English or Spanish",no,2025-07-23_08h04.27.707,empathy_intonation_perc,2024.2.4,Win32,31.70577045,6516d5862e627be30bea296f,687ed1b7e638a4cbf2f02089,6880cef4a01e479eda997fd4,,,,,,,,,,,,,47,0,,./stim/wavs/castilian_match_declarative-broad-focus_Manuela-vende-el-carro.wav,,,,,,,,,,,,,,,,,,,,,,,,331.252,333.869,0,1,2.073,,0,61,61,46,1,0,castilian,,,,,,,,,,,,,,,,,,,,,,,,,,,,,,,,,,,,,,,,,,,,,,,,,,,,,,,,
,,,,,,,,,6516d5862e627be30bea296f,Spanish,13 or older,"no, only English or Spanish",no,2025-07-23_08h04.27.707,empathy_intonation_perc,2024.2.4,Win32,31.70577045,6516d5862e627be30bea296f,687ed1b7e638a4cbf2f02089,6880cef4a01e479eda997fd4,,,,,,,,,,,,,37,1,,./stim/wavs/mexican_mismatch_interrogative-total-yn_La-maestra-vive-en-Paris.wav,,,,,,,,,,,,,,,,,,,,,,,,333.869,336.77,1,1,2.382,,0,62,62,36,1,0,mexican,,,,,,,,,,,,,,,,,,,,,,,,,,,,,,,,,,,,,,,,,,,,,,,,,,,,,,,,
,,,,,,,,,6516d5862e627be30bea296f,Spanish,13 or older,"no, only English or Spanish",no,2025-07-23_08h04.27.707,empathy_intonation_perc,2024.2.4,Win32,31.70577045,6516d5862e627be30bea296f,687ed1b7e638a4cbf2f02089,6880cef4a01e479eda997fd4,,,,,,,,,,,,,8,1,,./stim/wavs/cuban_match_interrogative-total-yn_Daniel-iba-a-Bolivia.wav,,,,,,,,,,,,,,,,,,,,,,,,336.77,339.903,0,0,2.608,,0,63,63,7,1,1,cuban,,,,,,,,,,,,,,,,,,,,,,,,,,,,,,,,,,,,,,,,,,,,,,,,,,,,,,,,
,,,,,,,,,6516d5862e627be30bea296f,Spanish,13 or older,"no, only English or Spanish",no,2025-07-23_08h04.27.707,empathy_intonation_perc,2024.2.4,Win32,31.70577045,6516d5862e627be30bea296f,687ed1b7e638a4cbf2f02089,6880cef4a01e479eda997fd4,,,,,,,,,,,,,84,0,,./stim/wavs/puertorican_mismatch_declarative-broad-focus_El-bebe-comia-muy-bien.wav,,,,,,,,,,,,,,,,,,,,,,,,339.904,342.362,0,1,1.919,,0,64,64,83,1,0,puertorican,,,,,,,,,,,,,,,,,,,,,,,,,,,,,,,,,,,,,,,,,,,,,,,,,,,,,,,,
,,,,,,,,,6516d5862e627be30bea296f,Spanish,13 or older,"no, only English or Spanish",no,2025-07-23_08h04.27.707,empathy_intonation_perc,2024.2.4,Win32,31.70577045,6516d5862e627be30bea296f,687ed1b7e638a4cbf2f02089,6880cef4a01e479eda997fd4,,,,,,,,,,,,,5,1,,./stim/wavs/castilian_match_interrogative-total-yn_Mariano-habla-del-tiempo.wav,,,,,,,,,,,,,,,,,,,,,,,,342.364,345.881,1,1,2.999,,0,65,65,4,1,0,castilian,,,,,,,,,,,,,,,,,,,,,,,,,,,,,,,,,,,,,,,,,,,,,,,,,,,,,,,,
,,,,,,,,,6516d5862e627be30bea296f,Spanish,13 or older,"no, only English or Spanish",no,2025-07-23_08h04.27.707,empathy_intonation_perc,2024.2.4,Win32,31.70577045,6516d5862e627be30bea296f,687ed1b7e638a4cbf2f02089,6880cef4a01e479eda997fd4,,,,,,,,,,,,,39,1,,./stim/wavs/mexican_mismatch_interrogative-total-yn_Mi-tia-odia-la-lluvia.wav,,,,,,,,,,,,,,,,,,,,,,,,345.882,348.442,1,1,2.036,,0,66,66,38,1,0,mexican,,,,,,,,,,,,,,,,,,,,,,,,,,,,,,,,,,,,,,,,,,,,,,,,,,,,,,,,
,,,,,,,,,6516d5862e627be30bea296f,Spanish,13 or older,"no, only English or Spanish",no,2025-07-23_08h04.27.707,empathy_intonation_perc,2024.2.4,Win32,31.70577045,6516d5862e627be30bea296f,687ed1b7e638a4cbf2f02089,6880cef4a01e479eda997fd4,,,,,,,,,,,,,36,1,,./stim/wavs/mexican_mismatch_interrogative-total-yn_El-nino-oye-el-rio.wav,,,,,,,,,,,,,,,,,,,,,,,,348.443,350.807,1,1,1.833,,0,67,67,35,1,0,mexican,,,,,,,,,,,,,,,,,,,,,,,,,,,,,,,,,,,,,,,,,,,,,,,,,,,,,,,,
,,,,,,,,,6516d5862e627be30bea296f,Spanish,13 or older,"no, only English or Spanish",no,2025-07-23_08h04.27.707,empathy_intonation_perc,2024.2.4,Win32,31.70577045,6516d5862e627be30bea296f,687ed1b7e638a4cbf2f02089,6880cef4a01e479eda997fd4,,,,,,,,,,,,,42,1,,./stim/wavs/puertorican_mismatch_interrogative-total-yn_La-maestra-vive-en-Paris.wav,,,,,,,,,,,,,,,,,,,,,,,,350.807,353.554,0,0,2.214,,0,68,68,41,1,1,puertorican,,,,,,,,,,,,,,,,,,,,,,,,,,,,,,,,,,,,,,,,,,,,,,,,,,,,,,,,
,,,,,,,,,6516d5862e627be30bea296f,Spanish,13 or older,"no, only English or Spanish",no,2025-07-23_08h04.27.707,empathy_intonation_perc,2024.2.4,Win32,31.70577045,6516d5862e627be30bea296f,687ed1b7e638a4cbf2f02089,6880cef4a01e479eda997fd4,,,,,,,,,,,,,18,1,,./stim/wavs/mexican_match_interrogative-total-yn_Marta-abre-el-regalo.wav,,,,,,,,,,,,,,,,,,,,,,,,353.554,356.268,1,1,2.201,,0,69,69,17,1,0,mexican,,,,,,,,,,,,,,,,,,,,,,,,,,,,,,,,,,,,,,,,,,,,,,,,,,,,,,,,
,,,,,,,,,6516d5862e627be30bea296f,Spanish,13 or older,"no, only English or Spanish",no,2025-07-23_08h04.27.707,empathy_intonation_perc,2024.2.4,Win32,31.70577045,6516d5862e627be30bea296f,687ed1b7e638a4cbf2f02089,6880cef4a01e479eda997fd4,,,,,,,,,,,,,30,1,,./stim/wavs/cuban_mismatch_interrogative-total-yn_El-hombre-mira-la-luna.wav,,,,,,,,,,,,,,,,,,,,,,,,356.268,358.637,0,0,1.831,,0,70,70,29,1,1,cuban,,,,,,,,,,,,,,,,,,,,,,,,,,,,,,,,,,,,,,,,,,,,,,,,,,,,,,,,
,,,,,,,,,6516d5862e627be30bea296f,Spanish,13 or older,"no, only English or Spanish",no,2025-07-23_08h04.27.707,empathy_intonation_perc,2024.2.4,Win32,31.70577045,6516d5862e627be30bea296f,687ed1b7e638a4cbf2f02089,6880cef4a01e479eda997fd4,,,,,,,,,,,,,87,0,,./stim/wavs/puertorican_mismatch_declarative-broad-focus_La-maestra-vive-en-Paris.wav,,,,,,,,,,,,,,,,,,,,,,,,358.637,361.663,0,1,2.489,,0,71,71,86,1,0,puertorican,,,,,,,,,,,,,,,,,,,,,,,,,,,,,,,,,,,,,,,,,,,,,,,,,,,,,,,,
,,,,,,,,,6516d5862e627be30bea296f,Spanish,13 or older,"no, only English or Spanish",no,2025-07-23_08h04.27.707,empathy_intonation_perc,2024.2.4,Win32,31.70577045,6516d5862e627be30bea296f,687ed1b7e638a4cbf2f02089,6880cef4a01e479eda997fd4,,,,,,,,,,,,,24,1,,./stim/wavs/puertorican_match_interrogative-total-yn_Maria-bebe-el-vino.wav,,,,,,,,,,,,,,,,,,,,,,,,361.664,364.534,1,1,2.355,,0,72,72,23,1,1,puertorican,,,,,,,,,,,,,,,,,,,,,,,,,,,,,,,,,,,,,,,,,,,,,,,,,,,,,,,,
,,,,,,,,,6516d5862e627be30bea296f,Spanish,13 or older,"no, only English or Spanish",no,2025-07-23_08h04.27.707,empathy_intonation_perc,2024.2.4,Win32,31.70577045,6516d5862e627be30bea296f,687ed1b7e638a4cbf2f02089,6880cef4a01e479eda997fd4,,,,,,,,,,,,,25,1,,./stim/wavs/castilian_mismatch_interrogative-total-yn_La-maestra-vive-en-Paris.wav,,,,,,,,,,,,,,,,,,,,,,,,364.534,367.458,1,1,2.411,,0,73,73,24,1,0,castilian,,,,,,,,,,,,,,,,,,,,,,,,,,,,,,,,,,,,,,,,,,,,,,,,,,,,,,,,
,,,,,,,,,6516d5862e627be30bea296f,Spanish,13 or older,"no, only English or Spanish",no,2025-07-23_08h04.27.707,empathy_intonation_perc,2024.2.4,Win32,31.70577045,6516d5862e627be30bea296f,687ed1b7e638a4cbf2f02089,6880cef4a01e479eda997fd4,,,,,,,,,,,,,12,1,,./stim/wavs/cuban_match_interrogative-total-yn_Marta-abre-el-regalo.wav,,,,,,,,,,,,,,,,,,,,,,,,367.459,369.893,0,0,1.913,,0,74,74,11,1,1,cuban,,,,,,,,,,,,,,,,,,,,,,,,,,,,,,,,,,,,,,,,,,,,,,,,,,,,,,,,
,,,,,,,,,6516d5862e627be30bea296f,Spanish,13 or older,"no, only English or Spanish",no,2025-07-23_08h04.27.707,empathy_intonation_perc,2024.2.4,Win32,31.70577045,6516d5862e627be30bea296f,687ed1b7e638a4cbf2f02089,6880cef4a01e479eda997fd4,,,,,,,,,,,,,20,1,,./stim/wavs/puertorican_match_interrogative-total-yn_Daniel-iba-a-Bolivia.wav,,,,,,,,,,,,,,,,,,,,,,,,369.893,372.269,0,0,1.841,,0,75,75,19,1,1,puertorican,,,,,,,,,,,,,,,,,,,,,,,,,,,,,,,,,,,,,,,,,,,,,,,,,,,,,,,,
,,,,,,,,,6516d5862e627be30bea296f,Spanish,13 or older,"no, only English or Spanish",no,2025-07-23_08h04.27.707,empathy_intonation_perc,2024.2.4,Win32,31.70577045,6516d5862e627be30bea296f,687ed1b7e638a4cbf2f02089,6880cef4a01e479eda997fd4,,,,,,,,,,,,,69,0,,./stim/wavs/castilian_mismatch_declarative-broad-focus_El-nino-oye-el-rio.wav,,,,,,,,,,,,,,,,,,,,,,,,372.271,374.849,0,1,2.05,,0,76,76,68,1,0,castilian,,,,,,,,,,,,,,,,,,,,,,,,,,,,,,,,,,,,,,,,,,,,,,,,,,,,,,,,
,,,,,,,,,6516d5862e627be30bea296f,Spanish,13 or older,"no, only English or Spanish",no,2025-07-23_08h04.27.707,empathy_intonation_perc,2024.2.4,Win32,31.70577045,6516d5862e627be30bea296f,687ed1b7e638a4cbf2f02089,6880cef4a01e479eda997fd4,,,,,,,,,,,,,31,1,,./stim/wavs/cuban_mismatch_interrogative-total-yn_El-nino-oye-el-rio.wav,,,,,,,,,,,,,,,,,,,,,,,,374.85,377.033,0,0,1.648,,0,77,77,30,1,1,cuban,,,,,,,,,,,,,,,,,,,,,,,,,,,,,,,,,,,,,,,,,,,,,,,,,,,,,,,,
,,,,,,,,,6516d5862e627be30bea296f,Spanish,13 or older,"no, only English or Spanish",no,2025-07-23_08h04.27.707,empathy_intonation_perc,2024.2.4,Win32,31.70577045,6516d5862e627be30bea296f,687ed1b7e638a4cbf2f02089,6880cef4a01e479eda997fd4,,,,,,,,,,,,,85,0,,./stim/wavs/puertorican_mismatch_declarative-broad-focus_El-hombre-mira-la-luna.wav,,,,,,,,,,,,,,,,,,,,,,,,377.034,379.345,0,1,1.775,,0,78,78,84,1,0,puertorican,,,,,,,,,,,,,,,,,,,,,,,,,,,,,,,,,,,,,,,,,,,,,,,,,,,,,,,,
,,,,,,,,,6516d5862e627be30bea296f,Spanish,13 or older,"no, only English or Spanish",no,2025-07-23_08h04.27.707,empathy_intonation_perc,2024.2.4,Win32,31.70577045,6516d5862e627be30bea296f,687ed1b7e638a4cbf2f02089,6880cef4a01e479eda997fd4,,,,,,,,,,,,,14,1,,./stim/wavs/mexican_match_interrogative-total-yn_Daniel-iba-a-Bolivia.wav,,,,,,,,,,,,,,,,,,,,,,,,379.346,382.068,1,1,2.191,,0,79,79,13,1,0,mexican,,,,,,,,,,,,,,,,,,,,,,,,,,,,,,,,,,,,,,,,,,,,,,,,,,,,,,,,
,,,,,,,,,6516d5862e627be30bea296f,Spanish,13 or older,"no, only English or Spanish",no,2025-07-23_08h04.27.707,empathy_intonation_perc,2024.2.4,Win32,31.70577045,6516d5862e627be30bea296f,687ed1b7e638a4cbf2f02089,6880cef4a01e479eda997fd4,,,,,,,,,,,,,2,1,,./stim/wavs/castilian_match_interrogative-total-yn_Emilio-ama-la-marcha.wav,,,,,,,,,,,,,,,,,,,,,,,,382.068,384.905,1,1,2.309,,0,80,80,1,1,0,castilian,,,,,,,,,,,,,,,,,,,,,,,,,,,,,,,,,,,,,,,,,,,,,,,,,,,,,,,,
,,,,,,,,,6516d5862e627be30bea296f,Spanish,13 or older,"no, only English or Spanish",no,2025-07-23_08h04.27.707,empathy_intonation_perc,2024.2.4,Win32,31.70577045,6516d5862e627be30bea296f,687ed1b7e638a4cbf2f02089,6880cef4a01e479eda997fd4,,,,,,,,,,,,,29,1,,./stim/wavs/castilian_mismatch_interrogative-total-yn_Mi-tia-odia-la-lluvia.wav,,,,,,,,,,,,,,,,,,,,,,,,384.905,387.499,1,1,2.068,,0,81,81,28,1,0,castilian,,,,,,,,,,,,,,,,,,,,,,,,,,,,,,,,,,,,,,,,,,,,,,,,,,,,,,,,
,,,,,,,,,6516d5862e627be30bea296f,Spanish,13 or older,"no, only English or Spanish",no,2025-07-23_08h04.27.707,empathy_intonation_perc,2024.2.4,Win32,31.70577045,6516d5862e627be30bea296f,687ed1b7e638a4cbf2f02089,6880cef4a01e479eda997fd4,,,,,,,,,,,,,17,1,,./stim/wavs/mexican_match_interrogative-total-yn_Mariano-habla-del-tiempo.wav,,,,,,,,,,,,,,,,,,,,,,,,387.499,390.168,1,1,2.14,,0,82,82,16,1,0,mexican,,,,,,,,,,,,,,,,,,,,,,,,,,,,,,,,,,,,,,,,,,,,,,,,,,,,,,,,
,,,,,,,,,6516d5862e627be30bea296f,Spanish,13 or older,"no, only English or Spanish",no,2025-07-23_08h04.27.707,empathy_intonation_perc,2024.2.4,Win32,31.70577045,6516d5862e627be30bea296f,687ed1b7e638a4cbf2f02089,6880cef4a01e479eda997fd4,,,,,,,,,,,,,77,0,,./stim/wavs/cuban_mismatch_declarative-broad-focus_Mi-novio-viene-del-lago.wav,,,,,,,,,,,,,,,,,,,,,,,,390.169,392.956,0,1,2.258,,0,83,83,76,1,0,cuban,,,,,,,,,,,,,,,,,,,,,,,,,,,,,,,,,,,,,,,,,,,,,,,,,,,,,,,,
,,,,,,,,,6516d5862e627be30bea296f,Spanish,13 or older,"no, only English or Spanish",no,2025-07-23_08h04.27.707,empathy_intonation_perc,2024.2.4,Win32,31.70577045,6516d5862e627be30bea296f,687ed1b7e638a4cbf2f02089,6880cef4a01e479eda997fd4,,,,,,,,,,,,,19,1,,./stim/wavs/puertorican_match_interrogative-total-yn_Ana-lleva-el-abrigo.wav,,,,,,,,,,,,,,,,,,,,,,,,392.956,395.173,0,0,1.694,,0,84,84,18,1,1,puertorican,,,,,,,,,,,,,,,,,,,,,,,,,,,,,,,,,,,,,,,,,,,,,,,,,,,,,,,,
,,,,,,,,,6516d5862e627be30bea296f,Spanish,13 or older,"no, only English or Spanish",no,2025-07-23_08h04.27.707,empathy_intonation_perc,2024.2.4,Win32,31.70577045,6516d5862e627be30bea296f,687ed1b7e638a4cbf2f02089,6880cef4a01e479eda997fd4,,,,,,,,,,,,,57,0,,./stim/wavs/mexican_match_declarative-broad-focus_Ana-lleva-el-abrigo.wav,,,,,,,,,,,,,,,,,,,,,,,,395.173,397.438,0,1,1.742,,0,85,85,56,1,0,mexican,,,,,,,,,,,,,,,,,,,,,,,,,,,,,,,,,,,,,,,,,,,,,,,,,,,,,,,,
,,,,,,,,,6516d5862e627be30bea296f,Spanish,13 or older,"no, only English or Spanish",no,2025-07-23_08h04.27.707,empathy_intonation_perc,2024.2.4,Win32,31.70577045,6516d5862e627be30bea296f,687ed1b7e638a4cbf2f02089,6880cef4a01e479eda997fd4,,,,,,,,,,,,,43,1,,./stim/wavs/puertorican_mismatch_interrogative-total-yn_La-nina-lava-el-plato.wav,,,,,,,,,,,,,,,,,,,,,,,,397.439,399.904,0,0,1.925,,0,86,86,42,1,1,puertorican,,,,,,,,,,,,,,,,,,,,,,,,,,,,,,,,,,,,,,,,,,,,,,,,,,,,,,,,
,,,,,,,,,6516d5862e627be30bea296f,Spanish,13 or older,"no, only English or Spanish",no,2025-07-23_08h04.27.707,empathy_intonation_perc,2024.2.4,Win32,31.70577045,6516d5862e627be30bea296f,687ed1b7e638a4cbf2f02089,6880cef4a01e479eda997fd4,,,,,,,,,,,,,6,1,,./stim/wavs/castilian_match_interrogative-total-yn_Marta-abre-el-regalo.wav,,,,,,,,,,,,,,,,,,,,,,,,399.905,402.562,1,1,2.095,,0,87,87,5,1,0,castilian,,,,,,,,,,,,,,,,,,,,,,,,,,,,,,,,,,,,,,,,,,,,,,,,,,,,,,,,
,,,,,,,"Great! Now we will move on. The next task consists of about 60 trials, in each of which you will see a string of letters. 
  
  Your task is to decide whether this is a real Spanish word or not.", (press the spacebar to continue),6516d5862e627be30bea296f,Spanish,13 or older,"no, only English or Spanish",no,2025-07-23_08h04.27.707,empathy_intonation_perc,2024.2.4,Win32,31.70577045,6516d5862e627be30bea296f,687ed1b7e638a4cbf2f02089,6880cef4a01e479eda997fd4,,,,,,,,,,,,,,,,,,,,,,,,,,,,,,,,,,,,,,,,,,,,,,,,,,,,,402.572,408.107,0,0,0,0,1,,,,,,,,,,,,,,,,,,,,,,,,,,,,,,,,,,,,,,,,,,,,,,,,,
,,,,,,,"If you think it is an existing Spanish word, you type '1' (for 'REAL'), and if you think it is not an existing Spanish word, you type '0' (for 'FAKE').", (press the spacebar to continue),6516d5862e627be30bea296f,Spanish,13 or older,"no, only English or Spanish",no,2025-07-23_08h04.27.707,empathy_intonation_perc,2024.2.4,Win32,31.70577045,6516d5862e627be30bea296f,687ed1b7e638a4cbf2f02089,6880cef4a01e479eda997fd4,,,,,,,,,,,,,,,,,,,,,,,,,,,,,,,,,,,,,,,,,,,,,,,,,,,,,408.109,411.715,0,1,1,1,1,,,,,,,,,,,,,,,,,,,,,,,,,,,,,,,,,,,,,,,,,,,,,,,,,
,,,,,,,"If you are sure that the word exists, even though you don’t know its exact meaning, you may still respond '1' (REAL). 
  
  But if you are not sure if it is an existing word, you should respond '0' (FAKE).
  
  Let's do a practice round...", (press the spacebar to continue),6516d5862e627be30bea296f,Spanish,13 or older,"no, only English or Spanish",no,2025-07-23_08h04.27.707,empathy_intonation_perc,2024.2.4,Win32,31.70577045,6516d5862e627be30bea296f,687ed1b7e638a4cbf2f02089,6880cef4a01e479eda997fd4,,,,,,,,,,,,,,,,,,,,,,,,,,,,,,,,,,,,,,,,,,,,,,,,,,,,,411.718,413.557,0,2,2,2,1,,,,,,,,,,,,,,,,,,,,,,,,,,,,,,,,,,,,,,,,,,,,,,,,,
,,,,,,,,,6516d5862e627be30bea296f,Spanish,13 or older,"no, only English or Spanish",no,2025-07-23_08h04.27.707,empathy_intonation_perc,2024.2.4,Win32,31.70577045,6516d5862e627be30bea296f,687ed1b7e638a4cbf2f02089,6880cef4a01e479eda997fd4,,,,,,,,,,,,,,0,,,,,,,,,,,,,,,,,,,,,,,,,,,,,,,,,,,,,,,,,,,,,,413.562,415.735,1,0,1.637,,415.735,416.72,0,0,0,0,1,0,depiste,REAL,FAKE,,,,,,,,,,,,,,,,,,,,,,,,,,,,,,,,
,,,,,,,,,6516d5862e627be30bea296f,Spanish,13 or older,"no, only English or Spanish",no,2025-07-23_08h04.27.707,empathy_intonation_perc,2024.2.4,Win32,31.70577045,6516d5862e627be30bea296f,687ed1b7e638a4cbf2f02089,6880cef4a01e479eda997fd4,,,,,,,,,,,,,,1,,,,,,,,,,,,,,,,,,,,,,,,,,,,,,,,,,,,,,,,,,,,,,416.72,418.215,1,1,0.954,,418.216,419.21,0,1,1,1,1,0,sí,REAL,FAKE,,,,,,,,,,,,,,,,,,,,,,,,,,,,,,,,
,,,,,,,,,6516d5862e627be30bea296f,Spanish,13 or older,"no, only English or Spanish",no,2025-07-23_08h04.27.707,empathy_intonation_perc,2024.2.4,Win32,31.70577045,6516d5862e627be30bea296f,687ed1b7e638a4cbf2f02089,6880cef4a01e479eda997fd4,,,,,,,,,,,,,,0,,,,,,,,,,,,,,,,,,,,,,,,,,,,,,,,,,,,,,,,,,,,,,419.21,420.88,0,1,1.122,,420.88,421.885,0,2,2,2,1,0,coné,REAL,FAKE,,,,,,,,,,,,,,,,,,,,,,,,,,,,,,,,
,,,,,,,,,6516d5862e627be30bea296f,Spanish,13 or older,"no, only English or Spanish",no,2025-07-23_08h04.27.707,empathy_intonation_perc,2024.2.4,Win32,31.70577045,6516d5862e627be30bea296f,687ed1b7e638a4cbf2f02089,6880cef4a01e479eda997fd4,,,,,,,,,,,,,,0,,,,,,,,,,,,,,,,,,,,,,,,,,,,,,,,,,,,,,,,,,,,,,421.886,423.524,0,1,1.099,,423.525,424.533,0,3,3,3,1,0,calpar,REAL,FAKE,,,,,,,,,,,,,,,,,,,,,,,,,,,,,,,,
,,,,,,,,,6516d5862e627be30bea296f,Spanish,13 or older,"no, only English or Spanish",no,2025-07-23_08h04.27.707,empathy_intonation_perc,2024.2.4,Win32,31.70577045,6516d5862e627be30bea296f,687ed1b7e638a4cbf2f02089,6880cef4a01e479eda997fd4,,,,,,,,,,,,,,0,,,,,,,,,,,,,,,,,,,,,,,,,,,,,,,,,,,,,,,,,,,,,,424.535,428.282,0,1,3.219,,428.282,429.296,0,4,4,4,1,0,joten,REAL,FAKE,,,,,,,,,,,,,,,,,,,,,,,,,,,,,,,,
,,,,,,,,,6516d5862e627be30bea296f,Spanish,13 or older,"no, only English or Spanish",no,2025-07-23_08h04.27.707,empathy_intonation_perc,2024.2.4,Win32,31.70577045,6516d5862e627be30bea296f,687ed1b7e638a4cbf2f02089,6880cef4a01e479eda997fd4,,,,,,,,,,,,,,1,,,,,,,,,,,,,,,,,,,,,,,,,,,,,,,,,,,,,,,,,,,,,,429.297,431.208,1,1,1.337,,431.208,432.211,0,5,5,5,1,0,sacapuntas,REAL,FAKE,,,,,,,,,,,,,,,,,,,,,,,,,,,,,,,,
,,,,,,,,,6516d5862e627be30bea296f,Spanish,13 or older,"no, only English or Spanish",no,2025-07-23_08h04.27.707,empathy_intonation_perc,2024.2.4,Win32,31.70577045,6516d5862e627be30bea296f,687ed1b7e638a4cbf2f02089,6880cef4a01e479eda997fd4,,,,,,,,,,,,,,0,,,,,,,,,,,,,,,,,,,,,,,,,,,,,,,,,,,,,,,,,,,,,,432.212,434.343,0,1,1.596,,434.343,435.332,0,6,6,6,1,0,priba,REAL,FAKE,,,,,,,,,,,,,,,,,,,,,,,,,,,,,,,,
,,,,,,,,,6516d5862e627be30bea296f,Spanish,13 or older,"no, only English or Spanish",no,2025-07-23_08h04.27.707,empathy_intonation_perc,2024.2.4,Win32,31.70577045,6516d5862e627be30bea296f,687ed1b7e638a4cbf2f02089,6880cef4a01e479eda997fd4,,,,,,,,,,,,,,0,,,,,,,,,,,,,,,,,,,,,,,,,,,,,,,,,,,,,,,,,,,,,,435.334,437.056,1,0,1.183,,437.057,438.047,0,7,7,7,1,0,pelasula,REAL,FAKE,,,,,,,,,,,,,,,,,,,,,,,,,,,,,,,,
,,,,,,,,,6516d5862e627be30bea296f,Spanish,13 or older,"no, only English or Spanish",no,2025-07-23_08h04.27.707,empathy_intonation_perc,2024.2.4,Win32,31.70577045,6516d5862e627be30bea296f,687ed1b7e638a4cbf2f02089,6880cef4a01e479eda997fd4,,,,,,,,,,,,,,1,,,,,,,,,,,,,,,,,,,,,,,,,,,,,,,,,,,,,,,,,,,,,,438.048,439.493,0,0,0.906,,439.493,440.477,0,8,8,8,1,0,bien,REAL,FAKE,,,,,,,,,,,,,,,,,,,,,,,,,,,,,,,,
,,,,,,,,,6516d5862e627be30bea296f,Spanish,13 or older,"no, only English or Spanish",no,2025-07-23_08h04.27.707,empathy_intonation_perc,2024.2.4,Win32,31.70577045,6516d5862e627be30bea296f,687ed1b7e638a4cbf2f02089,6880cef4a01e479eda997fd4,,,,,,,,,,,,,,1,,,,,,,,,,,,,,,,,,,,,,,,,,,,,,,,,,,,,,,,,,,,,,440.478,441.949,1,1,0.926,,441.949,442.946,0,9,9,9,1,0,casa,REAL,FAKE,,,,,,,,,,,,,,,,,,,,,,,,,,,,,,,,
,,,,,,,,,6516d5862e627be30bea296f,Spanish,13 or older,"no, only English or Spanish",no,2025-07-23_08h04.27.707,empathy_intonation_perc,2024.2.4,Win32,31.70577045,6516d5862e627be30bea296f,687ed1b7e638a4cbf2f02089,6880cef4a01e479eda997fd4,,,,,,,,,,,,,,0,,,,,,,,,,,,,,,,,,,,,,,,,,,,,,,,,,,,,,,,,,,,,,442.946,444.682,1,0,1.208,,444.683,445.687,0,10,10,10,1,0,lejo,REAL,FAKE,,,,,,,,,,,,,,,,,,,,,,,,,,,,,,,,
,,,,,,,,,6516d5862e627be30bea296f,Spanish,13 or older,"no, only English or Spanish",no,2025-07-23_08h04.27.707,empathy_intonation_perc,2024.2.4,Win32,31.70577045,6516d5862e627be30bea296f,687ed1b7e638a4cbf2f02089,6880cef4a01e479eda997fd4,,,,,,,,,,,,,,0,,,,,,,,,,,,,,,,,,,,,,,,,,,,,,,,,,,,,,,,,,,,,,445.687,448.748,1,0,2.508,,448.748,449.743,0,11,11,11,1,0,pretantas,REAL,FAKE,,,,,,,,,,,,,,,,,,,,,,,,,,,,,,,,
,,,,,,,,,6516d5862e627be30bea296f,Spanish,13 or older,"no, only English or Spanish",no,2025-07-23_08h04.27.707,empathy_intonation_perc,2024.2.4,Win32,31.70577045,6516d5862e627be30bea296f,687ed1b7e638a4cbf2f02089,6880cef4a01e479eda997fd4,,,,,,,,,,,,,,,,,,,,,,,,,,,,,,,,,,,,,,,,,,,,,,,,,,,,,,,,,,,,,,,,,,,,,,,,,,,,,449.743,450.739,,,,,,,,,,,,,,,,,,,,,,,,,,,,,,
,,,,,,,,,6516d5862e627be30bea296f,Spanish,13 or older,"no, only English or Spanish",no,2025-07-23_08h04.27.707,empathy_intonation_perc,2024.2.4,Win32,31.70577045,6516d5862e627be30bea296f,687ed1b7e638a4cbf2f02089,6880cef4a01e479eda997fd4,,,,,,,,,,,,,,1,,,,,,,,,,,,,,,,,,,,,,,,,,,,,,,,,,,,,,,,,,,,,,,,,,,,,,,,,,,86,barato,,,,,450.75,453.033,0,0,1.718,,0,0,0,85,1,REAL,FAKE,,,,,,,,,,,,,,,,,
,,,,,,,,,6516d5862e627be30bea296f,Spanish,13 or older,"no, only English or Spanish",no,2025-07-23_08h04.27.707,empathy_intonation_perc,2024.2.4,Win32,31.70577045,6516d5862e627be30bea296f,687ed1b7e638a4cbf2f02089,6880cef4a01e479eda997fd4,,,,,,,,,,,,,,0,,,,,,,,,,,,,,,,,,,,,,,,,,,,,,,,,,,,,,,,,,,,,,,,,,,,,,,,,,,10,antar,,,,,453.034,455.994,1,0,2.387,,0,1,1,9,1,REAL,FAKE,,,,,,,,,,,,,,,,,
,,,,,,,,,6516d5862e627be30bea296f,Spanish,13 or older,"no, only English or Spanish",no,2025-07-23_08h04.27.707,empathy_intonation_perc,2024.2.4,Win32,31.70577045,6516d5862e627be30bea296f,687ed1b7e638a4cbf2f02089,6880cef4a01e479eda997fd4,,,,,,,,,,,,,,1,,,,,,,,,,,,,,,,,,,,,,,,,,,,,,,,,,,,,,,,,,,,,,,,,,,,,,,,,,,88,acantilado,,,,,455.995,459.845,0,0,3.306,,0,2,2,87,1,REAL,FAKE,,,,,,,,,,,,,,,,,
,,,,,,,,,6516d5862e627be30bea296f,Spanish,13 or older,"no, only English or Spanish",no,2025-07-23_08h04.27.707,empathy_intonation_perc,2024.2.4,Win32,31.70577045,6516d5862e627be30bea296f,687ed1b7e638a4cbf2f02089,6880cef4a01e479eda997fd4,,,,,,,,,,,,,,1,,,,,,,,,,,,,,,,,,,,,,,,,,,,,,,,,,,,,,,,,,,,,,,,,,,,,,,,,,,12,asesinato,,,,,459.846,461.571,0,0,1.179,,0,3,3,11,1,REAL,FAKE,,,,,,,,,,,,,,,,,
,,,,,,,,,6516d5862e627be30bea296f,Spanish,13 or older,"no, only English or Spanish",no,2025-07-23_08h04.27.707,empathy_intonation_perc,2024.2.4,Win32,31.70577045,6516d5862e627be30bea296f,687ed1b7e638a4cbf2f02089,6880cef4a01e479eda997fd4,,,,,,,,,,,,,,1,,,,,,,,,,,,,,,,,,,,,,,,,,,,,,,,,,,,,,,,,,,,,,,,,,,,,,,,,,,68,alegre,,,,,461.572,463.038,1,1,0.917,,0,4,4,67,1,REAL,FAKE,,,,,,,,,,,,,,,,,
,,,,,,,,,6516d5862e627be30bea296f,Spanish,13 or older,"no, only English or Spanish",no,2025-07-23_08h04.27.707,empathy_intonation_perc,2024.2.4,Win32,31.70577045,6516d5862e627be30bea296f,687ed1b7e638a4cbf2f02089,6880cef4a01e479eda997fd4,,,,,,,,,,,,,,1,,,,,,,,,,,,,,,,,,,,,,,,,,,,,,,,,,,,,,,,,,,,,,,,,,,,,,,,,,,48,ladrón,,,,,463.039,464.511,1,1,0.924,,0,5,5,47,1,REAL,FAKE,,,,,,,,,,,,,,,,,
,,,,,,,,,6516d5862e627be30bea296f,Spanish,13 or older,"no, only English or Spanish",no,2025-07-23_08h04.27.707,empathy_intonation_perc,2024.2.4,Win32,31.70577045,6516d5862e627be30bea296f,687ed1b7e638a4cbf2f02089,6880cef4a01e479eda997fd4,,,,,,,,,,,,,,1,,,,,,,,,,,,,,,,,,,,,,,,,,,,,,,,,,,,,,,,,,,,,,,,,,,,,,,,,,,38,estornudar,,,,,464.513,466.819,0,0,1.749,,0,6,6,37,1,REAL,FAKE,,,,,,,,,,,,,,,,,
,,,,,,,,,6516d5862e627be30bea296f,Spanish,13 or older,"no, only English or Spanish",no,2025-07-23_08h04.27.707,empathy_intonation_perc,2024.2.4,Win32,31.70577045,6516d5862e627be30bea296f,687ed1b7e638a4cbf2f02089,6880cef4a01e479eda997fd4,,,,,,,,,,,,,,0,,,,,,,,,,,,,,,,,,,,,,,,,,,,,,,,,,,,,,,,,,,,,,,,,,,,,,,,,,,35,rompido,,,,,466.823,469.217,0,1,1.848,,0,7,7,34,1,REAL,FAKE,,,,,,,,,,,,,,,,,
,,,,,,,,,6516d5862e627be30bea296f,Spanish,13 or older,"no, only English or Spanish",no,2025-07-23_08h04.27.707,empathy_intonation_perc,2024.2.4,Win32,31.70577045,6516d5862e627be30bea296f,687ed1b7e638a4cbf2f02089,6880cef4a01e479eda997fd4,,,,,,,,,,,,,,1,,,,,,,,,,,,,,,,,,,,,,,,,,,,,,,,,,,,,,,,,,,,,,,,,,,,,,,,,,,39,torpe,,,,,469.218,470.802,0,0,1.04,,0,8,8,38,1,REAL,FAKE,,,,,,,,,,,,,,,,,
,,,,,,,,,6516d5862e627be30bea296f,Spanish,13 or older,"no, only English or Spanish",no,2025-07-23_08h04.27.707,empathy_intonation_perc,2024.2.4,Win32,31.70577045,6516d5862e627be30bea296f,687ed1b7e638a4cbf2f02089,6880cef4a01e479eda997fd4,,,,,,,,,,,,,,0,,,,,,,,,,,,,,,,,,,,,,,,,,,,,,,,,,,,,,,,,,,,,,,,,,,,,,,,,,,21,capillo,,,,,470.803,473.349,0,1,2,,0,9,9,20,1,REAL,FAKE,,,,,,,,,,,,,,,,,
,,,,,,,,,6516d5862e627be30bea296f,Spanish,13 or older,"no, only English or Spanish",no,2025-07-23_08h04.27.707,empathy_intonation_perc,2024.2.4,Win32,31.70577045,6516d5862e627be30bea296f,687ed1b7e638a4cbf2f02089,6880cef4a01e479eda997fd4,,,,,,,,,,,,,,1,,,,,,,,,,,,,,,,,,,,,,,,,,,,,,,,,,,,,,,,,,,,,,,,,,,,,,,,,,,22,lacayo,,,,,473.35,475.642,1,1,1.692,,0,10,10,21,1,REAL,FAKE,,,,,,,,,,,,,,,,,
,,,,,,,,,6516d5862e627be30bea296f,Spanish,13 or older,"no, only English or Spanish",no,2025-07-23_08h04.27.707,empathy_intonation_perc,2024.2.4,Win32,31.70577045,6516d5862e627be30bea296f,687ed1b7e638a4cbf2f02089,6880cef4a01e479eda997fd4,,,,,,,,,,,,,,1,,,,,,,,,,,,,,,,,,,,,,,,,,,,,,,,,,,,,,,,,,,,,,,,,,,,,,,,,,,28,merodear,,,,,475.643,477.455,0,0,1.265,,0,11,11,27,1,REAL,FAKE,,,,,,,,,,,,,,,,,
,,,,,,,,,6516d5862e627be30bea296f,Spanish,13 or older,"no, only English or Spanish",no,2025-07-23_08h04.27.707,empathy_intonation_perc,2024.2.4,Win32,31.70577045,6516d5862e627be30bea296f,687ed1b7e638a4cbf2f02089,6880cef4a01e479eda997fd4,,,,,,,,,,,,,,1,,,,,,,,,,,,,,,,,,,,,,,,,,,,,,,,,,,,,,,,,,,,,,,,,,,,,,,,,,,44,cuchara,,,,,477.456,479.262,1,1,1.254,,0,12,12,43,1,REAL,FAKE,,,,,,,,,,,,,,,,,
,,,,,,,,,6516d5862e627be30bea296f,Spanish,13 or older,"no, only English or Spanish",no,2025-07-23_08h04.27.707,empathy_intonation_perc,2024.2.4,Win32,31.70577045,6516d5862e627be30bea296f,687ed1b7e638a4cbf2f02089,6880cef4a01e479eda997fd4,,,,,,,,,,,,,,0,,,,,,,,,,,,,,,,,,,,,,,,,,,,,,,,,,,,,,,,,,,,,,,,,,,,,,,,,,,84,escuto,,,,,479.263,480.808,1,0,1,,0,13,13,83,1,REAL,FAKE,,,,,,,,,,,,,,,,,
,,,,,,,,,6516d5862e627be30bea296f,Spanish,13 or older,"no, only English or Spanish",no,2025-07-23_08h04.27.707,empathy_intonation_perc,2024.2.4,Win32,31.70577045,6516d5862e627be30bea296f,687ed1b7e638a4cbf2f02089,6880cef4a01e479eda997fd4,,,,,,,,,,,,,,1,,,,,,,,,,,,,,,,,,,,,,,,,,,,,,,,,,,,,,,,,,,,,,,,,,,,,,,,,,,2,pellizcar,,,,,480.809,482.982,0,0,1.634,,0,14,14,1,1,REAL,FAKE,,,,,,,,,,,,,,,,,
,,,,,,,,,6516d5862e627be30bea296f,Spanish,13 or older,"no, only English or Spanish",no,2025-07-23_08h04.27.707,empathy_intonation_perc,2024.2.4,Win32,31.70577045,6516d5862e627be30bea296f,687ed1b7e638a4cbf2f02089,6880cef4a01e479eda997fd4,,,,,,,,,,,,,,1,,,,,,,,,,,,,,,,,,,,,,,,,,,,,,,,,,,,,,,,,,,,,,,,,,,,,,,,,,,40,alfombra,,,,,482.983,484.947,0,0,1.413,,0,15,15,39,1,REAL,FAKE,,,,,,,,,,,,,,,,,
,,,,,,,,,6516d5862e627be30bea296f,Spanish,13 or older,"no, only English or Spanish",no,2025-07-23_08h04.27.707,empathy_intonation_perc,2024.2.4,Win32,31.70577045,6516d5862e627be30bea296f,687ed1b7e638a4cbf2f02089,6880cef4a01e479eda997fd4,,,,,,,,,,,,,,1,,,,,,,,,,,,,,,,,,,,,,,,,,,,,,,,,,,,,,,,,,,,,,,,,,,,,,,,,,,78,frondoso,,,,,484.947,486.555,0,0,1.058,,0,16,16,77,1,REAL,FAKE,,,,,,,,,,,,,,,,,
,,,,,,,,,6516d5862e627be30bea296f,Spanish,13 or older,"no, only English or Spanish",no,2025-07-23_08h04.27.707,empathy_intonation_perc,2024.2.4,Win32,31.70577045,6516d5862e627be30bea296f,687ed1b7e638a4cbf2f02089,6880cef4a01e479eda997fd4,,,,,,,,,,,,,,1,,,,,,,,,,,,,,,,,,,,,,,,,,,,,,,,,,,,,,,,,,,,,,,,,,,,,,,,,,,37,granuja,,,,,486.557,489.5,0,0,2.401,,0,17,17,36,1,REAL,FAKE,,,,,,,,,,,,,,,,,
,,,,,,,,,6516d5862e627be30bea296f,Spanish,13 or older,"no, only English or Spanish",no,2025-07-23_08h04.27.707,empathy_intonation_perc,2024.2.4,Win32,31.70577045,6516d5862e627be30bea296f,687ed1b7e638a4cbf2f02089,6880cef4a01e479eda997fd4,,,,,,,,,,,,,,1,,,,,,,,,,,,,,,,,,,,,,,,,,,,,,,,,,,,,,,,,,,,,,,,,,,,,,,,,,,43,canela,,,,,489.5,490.907,1,1,0.862,,0,18,18,42,1,REAL,FAKE,,,,,,,,,,,,,,,,,
,,,,,,,,,6516d5862e627be30bea296f,Spanish,13 or older,"no, only English or Spanish",no,2025-07-23_08h04.27.707,empathy_intonation_perc,2024.2.4,Win32,31.70577045,6516d5862e627be30bea296f,687ed1b7e638a4cbf2f02089,6880cef4a01e479eda997fd4,,,,,,,,,,,,,,0,,,,,,,,,,,,,,,,,,,,,,,,,,,,,,,,,,,,,,,,,,,,,,,,,,,,,,,,,,,66,hacido,,,,,490.907,492.379,0,1,0.918,,0,19,19,65,1,REAL,FAKE,,,,,,,,,,,,,,,,,
,,,,,,,,,6516d5862e627be30bea296f,Spanish,13 or older,"no, only English or Spanish",no,2025-07-23_08h04.27.707,empathy_intonation_perc,2024.2.4,Win32,31.70577045,6516d5862e627be30bea296f,687ed1b7e638a4cbf2f02089,6880cef4a01e479eda997fd4,,,,,,,,,,,,,,1,,,,,,,,,,,,,,,,,,,,,,,,,,,,,,,,,,,,,,,,,,,,,,,,,,,,,,,,,,,77,tiburón,,,,,492.379,493.894,1,1,0.971,,0,20,20,76,1,REAL,FAKE,,,,,,,,,,,,,,,,,
,,,,,,,,,6516d5862e627be30bea296f,Spanish,13 or older,"no, only English or Spanish",no,2025-07-23_08h04.27.707,empathy_intonation_perc,2024.2.4,Win32,31.70577045,6516d5862e627be30bea296f,687ed1b7e638a4cbf2f02089,6880cef4a01e479eda997fd4,,,,,,,,,,,,,,0,,,,,,,,,,,,,,,,,,,,,,,,,,,,,,,,,,,,,,,,,,,,,,,,,,,,,,,,,,,23,lampera,,,,,493.895,495.413,1,0,0.973,,0,21,21,22,1,REAL,FAKE,,,,,,,,,,,,,,,,,
,,,,,,,,,6516d5862e627be30bea296f,Spanish,13 or older,"no, only English or Spanish",no,2025-07-23_08h04.27.707,empathy_intonation_perc,2024.2.4,Win32,31.70577045,6516d5862e627be30bea296f,687ed1b7e638a4cbf2f02089,6880cef4a01e479eda997fd4,,,,,,,,,,,,,,1,,,,,,,,,,,,,,,,,,,,,,,,,,,,,,,,,,,,,,,,,,,,,,,,,,,,,,,,,,,69,engatusar,,,,,495.414,497.446,0,0,1.484,,0,22,22,68,1,REAL,FAKE,,,,,,,,,,,,,,,,,
,,,,,,,,,6516d5862e627be30bea296f,Spanish,13 or older,"no, only English or Spanish",no,2025-07-23_08h04.27.707,empathy_intonation_perc,2024.2.4,Win32,31.70577045,6516d5862e627be30bea296f,687ed1b7e638a4cbf2f02089,6880cef4a01e479eda997fd4,,,,,,,,,,,,,,1,,,,,,,,,,,,,,,,,,,,,,,,,,,,,,,,,,,,,,,,,,,,,,,,,,,,,,,,,,,83,guante,,,,,497.447,499.078,0,0,1.082,,0,23,23,82,1,REAL,FAKE,,,,,,,,,,,,,,,,,
,,,,,,,,,6516d5862e627be30bea296f,Spanish,13 or older,"no, only English or Spanish",no,2025-07-23_08h04.27.707,empathy_intonation_perc,2024.2.4,Win32,31.70577045,6516d5862e627be30bea296f,687ed1b7e638a4cbf2f02089,6880cef4a01e479eda997fd4,,,,,,,,,,,,,,0,,,,,,,,,,,,,,,,,,,,,,,,,,,,,,,,,,,,,,,,,,,,,,,,,,,,,,,,,,,74,cintro,,,,,499.08,501.654,1,0,2.025,,0,24,24,73,1,REAL,FAKE,,,,,,,,,,,,,,,,,
,,,,,,,,,6516d5862e627be30bea296f,Spanish,13 or older,"no, only English or Spanish",no,2025-07-23_08h04.27.707,empathy_intonation_perc,2024.2.4,Win32,31.70577045,6516d5862e627be30bea296f,687ed1b7e638a4cbf2f02089,6880cef4a01e479eda997fd4,,,,,,,,,,,,,,1,,,,,,,,,,,,,,,,,,,,,,,,,,,,,,,,,,,,,,,,,,,,,,,,,,,,,,,,,,,64,orgulloso,,,,,501.657,503.052,0,0,0.86,,0,25,25,63,1,REAL,FAKE,,,,,,,,,,,,,,,,,
,,,,,,,,,6516d5862e627be30bea296f,Spanish,13 or older,"no, only English or Spanish",no,2025-07-23_08h04.27.707,empathy_intonation_perc,2024.2.4,Win32,31.70577045,6516d5862e627be30bea296f,687ed1b7e638a4cbf2f02089,6880cef4a01e479eda997fd4,,,,,,,,,,,,,,1,,,,,,,,,,,,,,,,,,,,,,,,,,,,,,,,,,,,,,,,,,,,,,,,,,,,,,,,,,,46,martillo,,,,,503.054,504.553,1,1,0.968,,0,26,26,45,1,REAL,FAKE,,,,,,,,,,,,,,,,,
,,,,,,,,,6516d5862e627be30bea296f,Spanish,13 or older,"no, only English or Spanish",no,2025-07-23_08h04.27.707,empathy_intonation_perc,2024.2.4,Win32,31.70577045,6516d5862e627be30bea296f,687ed1b7e638a4cbf2f02089,6880cef4a01e479eda997fd4,,,,,,,,,,,,,,0,,,,,,,,,,,,,,,,,,,,,,,,,,,,,,,,,,,,,,,,,,,,,,,,,,,,,,,,,,,33,pauca,,,,,504.554,506.362,0,1,1.272,,0,27,27,32,1,REAL,FAKE,,,,,,,,,,,,,,,,,
,,,,,,,,,6516d5862e627be30bea296f,Spanish,13 or older,"no, only English or Spanish",no,2025-07-23_08h04.27.707,empathy_intonation_perc,2024.2.4,Win32,31.70577045,6516d5862e627be30bea296f,687ed1b7e638a4cbf2f02089,6880cef4a01e479eda997fd4,,,,,,,,,,,,,,0,,,,,,,,,,,,,,,,,,,,,,,,,,,,,,,,,,,,,,,,,,,,,,,,,,,,,,,,,,,18,arsa,,,,,506.364,508.333,0,1,1.419,,0,28,28,17,1,REAL,FAKE,,,,,,,,,,,,,,,,,
,,,,,,,,,6516d5862e627be30bea296f,Spanish,13 or older,"no, only English or Spanish",no,2025-07-23_08h04.27.707,empathy_intonation_perc,2024.2.4,Win32,31.70577045,6516d5862e627be30bea296f,687ed1b7e638a4cbf2f02089,6880cef4a01e479eda997fd4,,,,,,,,,,,,,,0,,,,,,,,,,,,,,,,,,,,,,,,,,,,,,,,,,,,,,,,,,,,,,,,,,,,,,,,,,,47,cartinar,,,,,508.334,512.512,1,0,3.634,,0,29,29,46,1,REAL,FAKE,,,,,,,,,,,,,,,,,
,,,,,,,,,6516d5862e627be30bea296f,Spanish,13 or older,"no, only English or Spanish",no,2025-07-23_08h04.27.707,empathy_intonation_perc,2024.2.4,Win32,31.70577045,6516d5862e627be30bea296f,687ed1b7e638a4cbf2f02089,6880cef4a01e479eda997fd4,,,,,,,,,,,,,,0,,,,,,,,,,,,,,,,,,,,,,,,,,,,,,,,,,,,,,,,,,,,,,,,,,,,,,,,,,,4,batillón,,,,,512.513,514.591,0,1,1.534,,0,30,30,3,1,REAL,FAKE,,,,,,,,,,,,,,,,,
,,,,,,,,,6516d5862e627be30bea296f,Spanish,13 or older,"no, only English or Spanish",no,2025-07-23_08h04.27.707,empathy_intonation_perc,2024.2.4,Win32,31.70577045,6516d5862e627be30bea296f,687ed1b7e638a4cbf2f02089,6880cef4a01e479eda997fd4,,,,,,,,,,,,,,1,,,,,,,,,,,,,,,,,,,,,,,,,,,,,,,,,,,,,,,,,,,,,,,,,,,,,,,,,,,34,aviso,,,,,514.592,516.041,1,1,0.902,,0,31,31,33,1,REAL,FAKE,,,,,,,,,,,,,,,,,
,,,,,,,,,6516d5862e627be30bea296f,Spanish,13 or older,"no, only English or Spanish",no,2025-07-23_08h04.27.707,empathy_intonation_perc,2024.2.4,Win32,31.70577045,6516d5862e627be30bea296f,687ed1b7e638a4cbf2f02089,6880cef4a01e479eda997fd4,,,,,,,,,,,,,,1,,,,,,,,,,,,,,,,,,,,,,,,,,,,,,,,,,,,,,,,,,,,,,,,,,,,,,,,,,,62,flaco,,,,,516.041,517.373,1,1,0.799,,0,32,32,61,1,REAL,FAKE,,,,,,,,,,,,,,,,,
,,,,,,,,,6516d5862e627be30bea296f,Spanish,13 or older,"no, only English or Spanish",no,2025-07-23_08h04.27.707,empathy_intonation_perc,2024.2.4,Win32,31.70577045,6516d5862e627be30bea296f,687ed1b7e638a4cbf2f02089,6880cef4a01e479eda997fd4,,,,,,,,,,,,,,1,,,,,,,,,,,,,,,,,,,,,,,,,,,,,,,,,,,,,,,,,,,,,,,,,,,,,,,,,,,73,hervidor,,,,,517.373,518.981,0,0,1.083,,0,33,33,72,1,REAL,FAKE,,,,,,,,,,,,,,,,,
,,,,,,,,,6516d5862e627be30bea296f,Spanish,13 or older,"no, only English or Spanish",no,2025-07-23_08h04.27.707,empathy_intonation_perc,2024.2.4,Win32,31.70577045,6516d5862e627be30bea296f,687ed1b7e638a4cbf2f02089,6880cef4a01e479eda997fd4,,,,,,,,,,,,,,0,,,,,,,,,,,,,,,,,,,,,,,,,,,,,,,,,,,,,,,,,,,,,,,,,,,,,,,,,,,82,empirador,,,,,518.982,520.999,1,0,1.485,,0,34,34,81,1,REAL,FAKE,,,,,,,,,,,,,,,,,
,,,,,,,,,6516d5862e627be30bea296f,Spanish,13 or older,"no, only English or Spanish",no,2025-07-23_08h04.27.707,empathy_intonation_perc,2024.2.4,Win32,31.70577045,6516d5862e627be30bea296f,687ed1b7e638a4cbf2f02089,6880cef4a01e479eda997fd4,,,,,,,,,,,,,,1,,,,,,,,,,,,,,,,,,,,,,,,,,,,,,,,,,,,,,,,,,,,,,,,,,,,,,,,,,,31,pandilla,,,,,521,522.606,0,0,1.04,,0,35,35,30,1,REAL,FAKE,,,,,,,,,,,,,,,,,
,,,,,,,,,6516d5862e627be30bea296f,Spanish,13 or older,"no, only English or Spanish",no,2025-07-23_08h04.27.707,empathy_intonation_perc,2024.2.4,Win32,31.70577045,6516d5862e627be30bea296f,687ed1b7e638a4cbf2f02089,6880cef4a01e479eda997fd4,,,,,,,,,,,,,,1,,,,,,,,,,,,,,,,,,,,,,,,,,,,,,,,,,,,,,,,,,,,,,,,,,,,,,,,,,,3,pulmones,,,,,522.606,523.96,0,0,0.804,,0,36,36,2,1,REAL,FAKE,,,,,,,,,,,,,,,,,
,,,,,,,,,6516d5862e627be30bea296f,Spanish,13 or older,"no, only English or Spanish",no,2025-07-23_08h04.27.707,empathy_intonation_perc,2024.2.4,Win32,31.70577045,6516d5862e627be30bea296f,687ed1b7e638a4cbf2f02089,6880cef4a01e479eda997fd4,,,,,,,,,,,,,,0,,,,,,,,,,,,,,,,,,,,,,,,,,,,,,,,,,,,,,,,,,,,,,,,,,,,,,,,,,,1,terzo,,,,,523.961,525.281,0,1,0.782,,0,37,37,0,1,REAL,FAKE,,,,,,,,,,,,,,,,,
,,,,,,,,,6516d5862e627be30bea296f,Spanish,13 or older,"no, only English or Spanish",no,2025-07-23_08h04.27.707,empathy_intonation_perc,2024.2.4,Win32,31.70577045,6516d5862e627be30bea296f,687ed1b7e638a4cbf2f02089,6880cef4a01e479eda997fd4,,,,,,,,,,,,,,1,,,,,,,,,,,,,,,,,,,,,,,,,,,,,,,,,,,,,,,,,,,,,,,,,,,,,,,,,,,15,regar,,,,,525.282,527.214,0,0,1.37,,0,38,38,14,1,REAL,FAKE,,,,,,,,,,,,,,,,,
,,,,,,,,,6516d5862e627be30bea296f,Spanish,13 or older,"no, only English or Spanish",no,2025-07-23_08h04.27.707,empathy_intonation_perc,2024.2.4,Win32,31.70577045,6516d5862e627be30bea296f,687ed1b7e638a4cbf2f02089,6880cef4a01e479eda997fd4,,,,,,,,,,,,,,1,,,,,,,,,,,,,,,,,,,,,,,,,,,,,,,,,,,,,,,,,,,,,,,,,,,,,,,,,,,52,camisa,,,,,527.214,528.699,1,1,0.943,,0,39,39,51,1,REAL,FAKE,,,,,,,,,,,,,,,,,
,,,,,,,,,6516d5862e627be30bea296f,Spanish,13 or older,"no, only English or Spanish",no,2025-07-23_08h04.27.707,empathy_intonation_perc,2024.2.4,Win32,31.70577045,6516d5862e627be30bea296f,687ed1b7e638a4cbf2f02089,6880cef4a01e479eda997fd4,,,,,,,,,,,,,,1,,,,,,,,,,,,,,,,,,,,,,,,,,,,,,,,,,,,,,,,,,,,,,,,,,,,,,,,,,,60,matar,,,,,528.7,530.447,1,1,1.201,,0,40,40,59,1,REAL,FAKE,,,,,,,,,,,,,,,,,
,,,,,,,,,6516d5862e627be30bea296f,Spanish,13 or older,"no, only English or Spanish",no,2025-07-23_08h04.27.707,empathy_intonation_perc,2024.2.4,Win32,31.70577045,6516d5862e627be30bea296f,687ed1b7e638a4cbf2f02089,6880cef4a01e479eda997fd4,,,,,,,,,,,,,,1,,,,,,,,,,,,,,,,,,,,,,,,,,,,,,,,,,,,,,,,,,,,,,,,,,,,,,,,,,,7,pésimo,,,,,530.448,533.094,0,0,2.083,,0,41,41,6,1,REAL,FAKE,,,,,,,,,,,,,,,,,
,,,,,,,,,6516d5862e627be30bea296f,Spanish,13 or older,"no, only English or Spanish",no,2025-07-23_08h04.27.707,empathy_intonation_perc,2024.2.4,Win32,31.70577045,6516d5862e627be30bea296f,687ed1b7e638a4cbf2f02089,6880cef4a01e479eda997fd4,,,,,,,,,,,,,,1,,,,,,,,,,,,,,,,,,,,,,,,,,,,,,,,,,,,,,,,,,,,,,,,,,,,,,,,,,,24,látigo,,,,,533.099,535.19,0,0,1.547,,0,42,42,23,1,REAL,FAKE,,,,,,,,,,,,,,,,,
,,,,,,,,,6516d5862e627be30bea296f,Spanish,13 or older,"no, only English or Spanish",no,2025-07-23_08h04.27.707,empathy_intonation_perc,2024.2.4,Win32,31.70577045,6516d5862e627be30bea296f,687ed1b7e638a4cbf2f02089,6880cef4a01e479eda997fd4,,,,,,,,,,,,,,1,,,,,,,,,,,,,,,,,,,,,,,,,,,,,,,,,,,,,,,,,,,,,,,,,,,,,,,,,,,51,candado,,,,,535.191,537.028,1,1,1.3,,0,43,43,50,1,REAL,FAKE,,,,,,,,,,,,,,,,,
,,,,,,,,,6516d5862e627be30bea296f,Spanish,13 or older,"no, only English or Spanish",no,2025-07-23_08h04.27.707,empathy_intonation_perc,2024.2.4,Win32,31.70577045,6516d5862e627be30bea296f,687ed1b7e638a4cbf2f02089,6880cef4a01e479eda997fd4,,,,,,,,,,,,,,1,,,,,,,,,,,,,,,,,,,,,,,,,,,,,,,,,,,,,,,,,,,,,,,,,,,,,,,,,,,89,prisa,,,,,537.029,538.698,1,1,1.122,,0,44,44,88,1,REAL,FAKE,,,,,,,,,,,,,,,,,
,,,,,,,,,6516d5862e627be30bea296f,Spanish,13 or older,"no, only English or Spanish",no,2025-07-23_08h04.27.707,empathy_intonation_perc,2024.2.4,Win32,31.70577045,6516d5862e627be30bea296f,687ed1b7e638a4cbf2f02089,6880cef4a01e479eda997fd4,,,,,,,,,,,,,,0,,,,,,,,,,,,,,,,,,,,,,,,,,,,,,,,,,,,,,,,,,,,,,,,,,,,,,,,,,,30,alardio,,,,,538.699,540.912,0,1,1.606,,0,45,45,29,1,REAL,FAKE,,,,,,,,,,,,,,,,,
,,,,,,,,,6516d5862e627be30bea296f,Spanish,13 or older,"no, only English or Spanish",no,2025-07-23_08h04.27.707,empathy_intonation_perc,2024.2.4,Win32,31.70577045,6516d5862e627be30bea296f,687ed1b7e638a4cbf2f02089,6880cef4a01e479eda997fd4,,,,,,,,,,,,,,0,,,,,,,,,,,,,,,,,,,,,,,,,,,,,,,,,,,,,,,,,,,,,,,,,,,,,,,,,,,17,floroso,,,,,540.913,542.748,0,1,1.285,,0,46,46,16,1,REAL,FAKE,,,,,,,,,,,,,,,,,
,,,,,,,,,6516d5862e627be30bea296f,Spanish,13 or older,"no, only English or Spanish",no,2025-07-23_08h04.27.707,empathy_intonation_perc,2024.2.4,Win32,31.70577045,6516d5862e627be30bea296f,687ed1b7e638a4cbf2f02089,6880cef4a01e479eda997fd4,,,,,,,,,,,,,,0,,,,,,,,,,,,,,,,,,,,,,,,,,,,,,,,,,,,,,,,,,,,,,,,,,,,,,,,,,,16,abracer,,,,,542.75,544.764,1,0,1.487,,0,47,47,15,1,REAL,FAKE,,,,,,,,,,,,,,,,,
,,,,,,,,,6516d5862e627be30bea296f,Spanish,13 or older,"no, only English or Spanish",no,2025-07-23_08h04.27.707,empathy_intonation_perc,2024.2.4,Win32,31.70577045,6516d5862e627be30bea296f,687ed1b7e638a4cbf2f02089,6880cef4a01e479eda997fd4,,,,,,,,,,,,,,0,,,,,,,,,,,,,,,,,,,,,,,,,,,,,,,,,,,,,,,,,,,,,,,,,,,,,,,,,,,63,esposante,,,,,544.767,546.737,1,0,1.403,,0,48,48,62,1,REAL,FAKE,,,,,,,,,,,,,,,,,
,,,,,,,,,6516d5862e627be30bea296f,Spanish,13 or older,"no, only English or Spanish",no,2025-07-23_08h04.27.707,empathy_intonation_perc,2024.2.4,Win32,31.70577045,6516d5862e627be30bea296f,687ed1b7e638a4cbf2f02089,6880cef4a01e479eda997fd4,,,,,,,,,,,,,,1,,,,,,,,,,,,,,,,,,,,,,,,,,,,,,,,,,,,,,,,,,,,,,,,,,,,,,,,,,,80,hormiga,,,,,546.738,548.183,0,0,0.884,,0,49,49,79,1,REAL,FAKE,,,,,,,,,,,,,,,,,
,,,,,,,,,6516d5862e627be30bea296f,Spanish,13 or older,"no, only English or Spanish",no,2025-07-23_08h04.27.707,empathy_intonation_perc,2024.2.4,Win32,31.70577045,6516d5862e627be30bea296f,687ed1b7e638a4cbf2f02089,6880cef4a01e479eda997fd4,,,,,,,,,,,,,,1,,,,,,,,,,,,,,,,,,,,,,,,,,,,,,,,,,,,,,,,,,,,,,,,,,,,,,,,,,,45,jilguero,,,,,548.183,550.126,0,0,1.38,,0,50,50,44,1,REAL,FAKE,,,,,,,,,,,,,,,,,
,,,,,,,,,6516d5862e627be30bea296f,Spanish,13 or older,"no, only English or Spanish",no,2025-07-23_08h04.27.707,empathy_intonation_perc,2024.2.4,Win32,31.70577045,6516d5862e627be30bea296f,687ed1b7e638a4cbf2f02089,6880cef4a01e479eda997fd4,,,,,,,,,,,,,,1,,,,,,,,,,,,,,,,,,,,,,,,,,,,,,,,,,,,,,,,,,,,,,,,,,,,,,,,,,,67,cabello,,,,,550.127,551.52,1,1,0.845,,0,51,51,66,1,REAL,FAKE,,,,,,,,,,,,,,,,,
,,,,,,,,,6516d5862e627be30bea296f,Spanish,13 or older,"no, only English or Spanish",no,2025-07-23_08h04.27.707,empathy_intonation_perc,2024.2.4,Win32,31.70577045,6516d5862e627be30bea296f,687ed1b7e638a4cbf2f02089,6880cef4a01e479eda997fd4,,,,,,,,,,,,,,1,,,,,,,,,,,,,,,,,,,,,,,,,,,,,,,,,,,,,,,,,,,,,,,,,,,,,,,,,,,55,nevar,,,,,551.521,553.591,1,1,1.532,,0,52,52,54,1,REAL,FAKE,,,,,,,,,,,,,,,,,
,,,,,,,,,6516d5862e627be30bea296f,Spanish,13 or older,"no, only English or Spanish",no,2025-07-23_08h04.27.707,empathy_intonation_perc,2024.2.4,Win32,31.70577045,6516d5862e627be30bea296f,687ed1b7e638a4cbf2f02089,6880cef4a01e479eda997fd4,,,,,,,,,,,,,,1,,,,,,,,,,,,,,,,,,,,,,,,,,,,,,,,,,,,,,,,,,,,,,,,,,,,,,,,,,,20,ávido,,,,,553.592,555.108,0,0,0.963,,0,53,53,19,1,REAL,FAKE,,,,,,,,,,,,,,,,,
,,,,,,,,,6516d5862e627be30bea296f,Spanish,13 or older,"no, only English or Spanish",no,2025-07-23_08h04.27.707,empathy_intonation_perc,2024.2.4,Win32,31.70577045,6516d5862e627be30bea296f,687ed1b7e638a4cbf2f02089,6880cef4a01e479eda997fd4,,,,,,,,,,,,,,0,,,,,,,,,,,,,,,,,,,,,,,,,,,,,,,,,,,,,,,,,,,,,,,,,,,,,,,,,,,27,acutación,,,,,555.11,559.688,1,0,4.019,,0,54,54,26,1,REAL,FAKE,,,,,,,,,,,,,,,,,
,,,,,,,,,6516d5862e627be30bea296f,Spanish,13 or older,"no, only English or Spanish",no,2025-07-23_08h04.27.707,empathy_intonation_perc,2024.2.4,Win32,31.70577045,6516d5862e627be30bea296f,687ed1b7e638a4cbf2f02089,6880cef4a01e479eda997fd4,,,,,,,,,,,,,,0,,,,,,,,,,,,,,,,,,,,,,,,,,,,,,,,,,,,,,,,,,,,,,,,,,,,,,,,,,,87,grodo,,,,,559.689,561.102,0,1,0.852,,0,55,55,86,1,REAL,FAKE,,,,,,,,,,,,,,,,,
,,,,,,,,,6516d5862e627be30bea296f,Spanish,13 or older,"no, only English or Spanish",no,2025-07-23_08h04.27.707,empathy_intonation_perc,2024.2.4,Win32,31.70577045,6516d5862e627be30bea296f,687ed1b7e638a4cbf2f02089,6880cef4a01e479eda997fd4,,,,,,,,,,,,,,1,,,,,,,,,,,,,,,,,,,,,,,,,,,,,,,,,,,,,,,,,,,,,,,,,,,,,,,,,,,61,seda,,,,,561.103,563.649,1,1,2.017,,0,56,56,60,1,REAL,FAKE,,,,,,,,,,,,,,,,,
,,,,,,,,,6516d5862e627be30bea296f,Spanish,13 or older,"no, only English or Spanish",no,2025-07-23_08h04.27.707,empathy_intonation_perc,2024.2.4,Win32,31.70577045,6516d5862e627be30bea296f,687ed1b7e638a4cbf2f02089,6880cef4a01e479eda997fd4,,,,,,,,,,,,,,1,,,,,,,,,,,,,,,,,,,,,,,,,,,,,,,,,,,,,,,,,,,,,,,,,,,,,,,,,,,57,tacaño,,,,,563.65,565.135,0,0,0.928,,0,57,57,56,1,REAL,FAKE,,,,,,,,,,,,,,,,,
,,,,,,,,,6516d5862e627be30bea296f,Spanish,13 or older,"no, only English or Spanish",no,2025-07-23_08h04.27.707,empathy_intonation_perc,2024.2.4,Win32,31.70577045,6516d5862e627be30bea296f,687ed1b7e638a4cbf2f02089,6880cef4a01e479eda997fd4,,,,,,,,,,,,,,1,,,,,,,,,,,,,,,,,,,,,,,,,,,,,,,,,,,,,,,,,,,,,,,,,,,,,,,,,,,81,pozo,,,,,565.136,566.66,1,1,0.981,,0,58,58,80,1,REAL,FAKE,,,,,,,,,,,,,,,,,
,,,,,,,,,6516d5862e627be30bea296f,Spanish,13 or older,"no, only English or Spanish",no,2025-07-23_08h04.27.707,empathy_intonation_perc,2024.2.4,Win32,31.70577045,6516d5862e627be30bea296f,687ed1b7e638a4cbf2f02089,6880cef4a01e479eda997fd4,,,,,,,,,,,,,,0,,,,,,,,,,,,,,,,,,,,,,,,,,,,,,,,,,,,,,,,,,,,,,,,,,,,,,,,,,,53,vegada,,,,,566.664,568.522,0,1,1.297,,0,59,59,52,1,REAL,FAKE,,,,,,,,,,,,,,,,,
,,,,,,,,,6516d5862e627be30bea296f,Spanish,13 or older,"no, only English or Spanish",no,2025-07-23_08h04.27.707,empathy_intonation_perc,2024.2.4,Win32,31.70577045,6516d5862e627be30bea296f,687ed1b7e638a4cbf2f02089,6880cef4a01e479eda997fd4,,,,,,,,,,,,,,0,,,,,,,,,,,,,,,,,,,,,,,,,,,,,,,,,,,,,,,,,,,,,,,,,,,,,,,,,,,70,temblo,,,,,568.523,569.898,0,1,0.829,,0,60,60,69,1,REAL,FAKE,,,,,,,,,,,,,,,,,
,,,,,,,,,6516d5862e627be30bea296f,Spanish,13 or older,"no, only English or Spanish",no,2025-07-23_08h04.27.707,empathy_intonation_perc,2024.2.4,Win32,31.70577045,6516d5862e627be30bea296f,687ed1b7e638a4cbf2f02089,6880cef4a01e479eda997fd4,,,,,,,,,,,,,,1,,,,,,,,,,,,,,,,,,,,,,,,,,,,,,,,,,,,,,,,,,,,,,,,,,,,,,,,,,,14,yunque,,,,,569.9,574.804,0,0,4.36,,0,61,61,13,1,REAL,FAKE,,,,,,,,,,,,,,,,,
,,,,,,,,,6516d5862e627be30bea296f,Spanish,13 or older,"no, only English or Spanish",no,2025-07-23_08h04.27.707,empathy_intonation_perc,2024.2.4,Win32,31.70577045,6516d5862e627be30bea296f,687ed1b7e638a4cbf2f02089,6880cef4a01e479eda997fd4,,,,,,,,,,,,,,1,,,,,,,,,,,,,,,,,,,,,,,,,,,,,,,,,,,,,,,,,,,,,,,,,,,,,,,,,,,65,bizcocho,,,,,574.805,576.327,0,0,0.995,,0,62,62,64,1,REAL,FAKE,,,,,,,,,,,,,,,,,
,,,,,,,,,6516d5862e627be30bea296f,Spanish,13 or older,"no, only English or Spanish",no,2025-07-23_08h04.27.707,empathy_intonation_perc,2024.2.4,Win32,31.70577045,6516d5862e627be30bea296f,687ed1b7e638a4cbf2f02089,6880cef4a01e479eda997fd4,,,,,,,,,,,,,,1,,,,,,,,,,,,,,,,,,,,,,,,,,,,,,,,,,,,,,,,,,,,,,,,,,,,,,,,,,,41,rebuscar,,,,,576.329,578.017,1,1,1.149,,0,63,63,40,1,REAL,FAKE,,,,,,,,,,,,,,,,,
,,,,,,,,,6516d5862e627be30bea296f,Spanish,13 or older,"no, only English or Spanish",no,2025-07-23_08h04.27.707,empathy_intonation_perc,2024.2.4,Win32,31.70577045,6516d5862e627be30bea296f,687ed1b7e638a4cbf2f02089,6880cef4a01e479eda997fd4,,,,,,,,,,,,,,1,,,,,,,,,,,,,,,,,,,,,,,,,,,,,,,,,,,,,,,,,,,,,,,,,,,,,,,,,,,9,hacha,,,,,578.018,579.364,1,1,0.799,,0,64,64,8,1,REAL,FAKE,,,,,,,,,,,,,,,,,
,,,,,,,,,6516d5862e627be30bea296f,Spanish,13 or older,"no, only English or Spanish",no,2025-07-23_08h04.27.707,empathy_intonation_perc,2024.2.4,Win32,31.70577045,6516d5862e627be30bea296f,687ed1b7e638a4cbf2f02089,6880cef4a01e479eda997fd4,,,,,,,,,,,,,,1,,,,,,,,,,,,,,,,,,,,,,,,,,,,,,,,,,,,,,,,,,,,,,,,,,,,,,,,,,,76,atar,,,,,579.365,580.733,0,0,0.828,,0,65,65,75,1,REAL,FAKE,,,,,,,,,,,,,,,,,
,,,,,,,,,6516d5862e627be30bea296f,Spanish,13 or older,"no, only English or Spanish",no,2025-07-23_08h04.27.707,empathy_intonation_perc,2024.2.4,Win32,31.70577045,6516d5862e627be30bea296f,687ed1b7e638a4cbf2f02089,6880cef4a01e479eda997fd4,,,,,,,,,,,,,,1,,,,,,,,,,,,,,,,,,,,,,,,,,,,,,,,,,,,,,,,,,,,,,,,,,,,,,,,,,,25,bisagra,,,,,580.735,582.046,0,0,0.791,,0,66,66,24,1,REAL,FAKE,,,,,,,,,,,,,,,,,
,,,,,,,,,6516d5862e627be30bea296f,Spanish,13 or older,"no, only English or Spanish",no,2025-07-23_08h04.27.707,empathy_intonation_perc,2024.2.4,Win32,31.70577045,6516d5862e627be30bea296f,687ed1b7e638a4cbf2f02089,6880cef4a01e479eda997fd4,,,,,,,,,,,,,,1,,,,,,,,,,,,,,,,,,,,,,,,,,,,,,,,,,,,,,,,,,,,,,,,,,,,,,,,,,,26,secuestro,,,,,582.047,583.998,1,1,1.414,,0,67,67,25,1,REAL,FAKE,,,,,,,,,,,,,,,,,
,,,,,,,,,6516d5862e627be30bea296f,Spanish,13 or older,"no, only English or Spanish",no,2025-07-23_08h04.27.707,empathy_intonation_perc,2024.2.4,Win32,31.70577045,6516d5862e627be30bea296f,687ed1b7e638a4cbf2f02089,6880cef4a01e479eda997fd4,,,,,,,,,,,,,,0,,,,,,,,,,,,,,,,,,,,,,,,,,,,,,,,,,,,,,,,,,,,,,,,,,,,,,,,,,,8,cadeña,,,,,583.998,585.508,1,0,0.964,,0,68,68,7,1,REAL,FAKE,,,,,,,,,,,,,,,,,
,,,,,,,,,6516d5862e627be30bea296f,Spanish,13 or older,"no, only English or Spanish",no,2025-07-23_08h04.27.707,empathy_intonation_perc,2024.2.4,Win32,31.70577045,6516d5862e627be30bea296f,687ed1b7e638a4cbf2f02089,6880cef4a01e479eda997fd4,,,,,,,,,,,,,,1,,,,,,,,,,,,,,,,,,,,,,,,,,,,,,,,,,,,,,,,,,,,,,,,,,,,,,,,,,,91,click the 1 key.,,,,,585.509,587.325,1,1,1.284,,0,69,69,90,1,REAL,FAKE,,,,,,,,,,,,,,,,,
,,,,,,,,,6516d5862e627be30bea296f,Spanish,13 or older,"no, only English or Spanish",no,2025-07-23_08h04.27.707,empathy_intonation_perc,2024.2.4,Win32,31.70577045,6516d5862e627be30bea296f,687ed1b7e638a4cbf2f02089,6880cef4a01e479eda997fd4,,,,,,,,,,,,,,1,,,,,,,,,,,,,,,,,,,,,,,,,,,,,,,,,,,,,,,,,,,,,,,,,,,,,,,,,,,59,besar,,,,,587.326,589.089,1,1,1.217,,0,70,70,58,1,REAL,FAKE,,,,,,,,,,,,,,,,,
,,,,,,,,,6516d5862e627be30bea296f,Spanish,13 or older,"no, only English or Spanish",no,2025-07-23_08h04.27.707,empathy_intonation_perc,2024.2.4,Win32,31.70577045,6516d5862e627be30bea296f,687ed1b7e638a4cbf2f02089,6880cef4a01e479eda997fd4,,,,,,,,,,,,,,1,,,,,,,,,,,,,,,,,,,,,,,,,,,,,,,,,,,,,,,,,,,,,,,,,,,,,,,,,,,6,tergiversar,,,,,589.091,590.492,0,0,0.861,,0,71,71,5,1,REAL,FAKE,,,,,,,,,,,,,,,,,
,,,,,,,,,6516d5862e627be30bea296f,Spanish,13 or older,"no, only English or Spanish",no,2025-07-23_08h04.27.707,empathy_intonation_perc,2024.2.4,Win32,31.70577045,6516d5862e627be30bea296f,687ed1b7e638a4cbf2f02089,6880cef4a01e479eda997fd4,,,,,,,,,,,,,,0,,,,,,,,,,,,,,,,,,,,,,,,,,,,,,,,,,,,,,,,,,,,,,,,,,,,,,,,,,,72,pemición,,,,,590.493,591.852,0,1,0.799,,0,72,72,71,1,REAL,FAKE,,,,,,,,,,,,,,,,,
,,,,,,,,,6516d5862e627be30bea296f,Spanish,13 or older,"no, only English or Spanish",no,2025-07-23_08h04.27.707,empathy_intonation_perc,2024.2.4,Win32,31.70577045,6516d5862e627be30bea296f,687ed1b7e638a4cbf2f02089,6880cef4a01e479eda997fd4,,,,,,,,,,,,,,1,,,,,,,,,,,,,,,,,,,,,,,,,,,,,,,,,,,,,,,,,,,,,,,,,,,,,,,,,,,90,clavel,,,,,591.853,593.179,0,0,0.771,,0,73,73,89,1,REAL,FAKE,,,,,,,,,,,,,,,,,
,,,,,,,,,6516d5862e627be30bea296f,Spanish,13 or older,"no, only English or Spanish",no,2025-07-23_08h04.27.707,empathy_intonation_perc,2024.2.4,Win32,31.70577045,6516d5862e627be30bea296f,687ed1b7e638a4cbf2f02089,6880cef4a01e479eda997fd4,,,,,,,,,,,,,,0,,,,,,,,,,,,,,,,,,,,,,,,,,,,,,,,,,,,,,,,,,,,,,,,,,,,,,,,,,,42,cadallo,,,,,593.179,594.905,0,1,1.157,,0,74,74,41,1,REAL,FAKE,,,,,,,,,,,,,,,,,
,,,,,,,,,6516d5862e627be30bea296f,Spanish,13 or older,"no, only English or Spanish",no,2025-07-23_08h04.27.707,empathy_intonation_perc,2024.2.4,Win32,31.70577045,6516d5862e627be30bea296f,687ed1b7e638a4cbf2f02089,6880cef4a01e479eda997fd4,,,,,,,,,,,,,,1,,,,,,,,,,,,,,,,,,,,,,,,,,,,,,,,,,,,,,,,,,,,,,,,,,,,,,,,,,,49,ganar,,,,,594.907,596.38,0,0,0.935,,0,75,75,48,1,REAL,FAKE,,,,,,,,,,,,,,,,,
,,,,,,,,,6516d5862e627be30bea296f,Spanish,13 or older,"no, only English or Spanish",no,2025-07-23_08h04.27.707,empathy_intonation_perc,2024.2.4,Win32,31.70577045,6516d5862e627be30bea296f,687ed1b7e638a4cbf2f02089,6880cef4a01e479eda997fd4,,,,,,,,,,,,,,1,,,,,,,,,,,,,,,,,,,,,,,,,,,,,,,,,,,,,,,,,,,,,,,,,,,,,,,,,,,11,cenefa,,,,,596.38,597.703,0,0,0.754,,0,76,76,10,1,REAL,FAKE,,,,,,,,,,,,,,,,,
,,,,,,,,,6516d5862e627be30bea296f,Spanish,13 or older,"no, only English or Spanish",no,2025-07-23_08h04.27.707,empathy_intonation_perc,2024.2.4,Win32,31.70577045,6516d5862e627be30bea296f,687ed1b7e638a4cbf2f02089,6880cef4a01e479eda997fd4,,,,,,,,,,,,,,0,,,,,,,,,,,,,,,,,,,,,,,,,,,,,,,,,,,,,,,,,,,,,,,,,,,,,,,,,,,32,fatacidad,,,,,597.707,601.726,1,0,3.487,,0,77,77,31,1,REAL,FAKE,,,,,,,,,,,,,,,,,
,,,,,,,,,6516d5862e627be30bea296f,Spanish,13 or older,"no, only English or Spanish",no,2025-07-23_08h04.27.707,empathy_intonation_perc,2024.2.4,Win32,31.70577045,6516d5862e627be30bea296f,687ed1b7e638a4cbf2f02089,6880cef4a01e479eda997fd4,,,,,,,,,,,,,,1,,,,,,,,,,,,,,,,,,,,,,,,,,,,,,,,,,,,,,,,,,,,,,,,,,,,,,,,,,,54,fomentar,,,,,601.727,603.294,0,0,0.939,,0,78,78,53,1,REAL,FAKE,,,,,,,,,,,,,,,,,
,,,,,,,,,6516d5862e627be30bea296f,Spanish,13 or older,"no, only English or Spanish",no,2025-07-23_08h04.27.707,empathy_intonation_perc,2024.2.4,Win32,31.70577045,6516d5862e627be30bea296f,687ed1b7e638a4cbf2f02089,6880cef4a01e479eda997fd4,,,,,,,,,,,,,,0,,,,,,,,,,,,,,,,,,,,,,,,,,,,,,,,,,,,,,,,,,,,,,,,,,,,,,,,,,,50,flamida,,,,,603.295,605.081,1,0,1.219,,0,79,79,49,1,REAL,FAKE,,,,,,,,,,,,,,,,,
,,,,,,,,,6516d5862e627be30bea296f,Spanish,13 or older,"no, only English or Spanish",no,2025-07-23_08h04.27.707,empathy_intonation_perc,2024.2.4,Win32,31.70577045,6516d5862e627be30bea296f,687ed1b7e638a4cbf2f02089,6880cef4a01e479eda997fd4,,,,,,,,,,,,,,1,,,,,,,,,,,,,,,,,,,,,,,,,,,,,,,,,,,,,,,,,,,,,,,,,,,,,,,,,,,71,polvoriento,,,,,605.082,606.432,0,0,0.81,,0,80,80,70,1,REAL,FAKE,,,,,,,,,,,,,,,,,
,,,,,,,,,6516d5862e627be30bea296f,Spanish,13 or older,"no, only English or Spanish",no,2025-07-23_08h04.27.707,empathy_intonation_perc,2024.2.4,Win32,31.70577045,6516d5862e627be30bea296f,687ed1b7e638a4cbf2f02089,6880cef4a01e479eda997fd4,,,,,,,,,,,,,,0,,,,,,,,,,,,,,,,,,,,,,,,,,,,,,,,,,,,,,,,,,,,,,,,,,,,,,,,,,,79,tropaje,,,,,606.433,607.863,0,1,0.874,,0,81,81,78,1,REAL,FAKE,,,,,,,,,,,,,,,,,
,,,,,,,,,6516d5862e627be30bea296f,Spanish,13 or older,"no, only English or Spanish",no,2025-07-23_08h04.27.707,empathy_intonation_perc,2024.2.4,Win32,31.70577045,6516d5862e627be30bea296f,687ed1b7e638a4cbf2f02089,6880cef4a01e479eda997fd4,,,,,,,,,,,,,,0,,,,,,,,,,,,,,,,,,,,,,,,,,,,,,,,,,,,,,,,,,,,,,,,,,,,,,,,,,,19,brecedad,,,,,607.863,609.368,0,1,0.954,,0,82,82,18,1,REAL,FAKE,,,,,,,,,,,,,,,,,
,,,,,,,,,6516d5862e627be30bea296f,Spanish,13 or older,"no, only English or Spanish",no,2025-07-23_08h04.27.707,empathy_intonation_perc,2024.2.4,Win32,31.70577045,6516d5862e627be30bea296f,687ed1b7e638a4cbf2f02089,6880cef4a01e479eda997fd4,,,,,,,,,,,,,,0,,,,,,,,,,,,,,,,,,,,,,,,,,,,,,,,,,,,,,,,,,,,,,,,,,,,,,,,,,,92,click the 0 key.,,,,,609.369,610.888,0,1,0.989,,0,83,83,91,1,REAL,FAKE,,,,,,,,,,,,,,,,,
,,,,,,,,,6516d5862e627be30bea296f,Spanish,13 or older,"no, only English or Spanish",no,2025-07-23_08h04.27.707,empathy_intonation_perc,2024.2.4,Win32,31.70577045,6516d5862e627be30bea296f,687ed1b7e638a4cbf2f02089,6880cef4a01e479eda997fd4,,,,,,,,,,,,,,1,,,,,,,,,,,,,,,,,,,,,,,,,,,,,,,,,,,,,,,,,,,,,,,,,,,,,,,,,,,36,loro,,,,,610.889,612.271,0,0,0.836,,0,84,84,35,1,REAL,FAKE,,,,,,,,,,,,,,,,,
,,,,,,,,,6516d5862e627be30bea296f,Spanish,13 or older,"no, only English or Spanish",no,2025-07-23_08h04.27.707,empathy_intonation_perc,2024.2.4,Win32,31.70577045,6516d5862e627be30bea296f,687ed1b7e638a4cbf2f02089,6880cef4a01e479eda997fd4,,,,,,,,,,,,,,1,,,,,,,,,,,,,,,,,,,,,,,,,,,,,,,,,,,,,,,,,,,,,,,,,,,,,,,,,,,75,yacer,,,,,612.272,613.525,0,0,0.7,,0,85,85,74,1,REAL,FAKE,,,,,,,,,,,,,,,,,
,,,,,,,,,6516d5862e627be30bea296f,Spanish,13 or older,"no, only English or Spanish",no,2025-07-23_08h04.27.707,empathy_intonation_perc,2024.2.4,Win32,31.70577045,6516d5862e627be30bea296f,687ed1b7e638a4cbf2f02089,6880cef4a01e479eda997fd4,,,,,,,,,,,,,,1,,,,,,,,,,,,,,,,,,,,,,,,,,,,,,,,,,,,,,,,,,,,,,,,,,,,,,,,,,,13,helar,,,,,613.526,615.329,1,1,1.241,,0,86,86,12,1,REAL,FAKE,,,,,,,,,,,,,,,,,
,,,,,,,,,6516d5862e627be30bea296f,Spanish,13 or older,"no, only English or Spanish",no,2025-07-23_08h04.27.707,empathy_intonation_perc,2024.2.4,Win32,31.70577045,6516d5862e627be30bea296f,687ed1b7e638a4cbf2f02089,6880cef4a01e479eda997fd4,,,,,,,,,,,,,,1,,,,,,,,,,,,,,,,,,,,,,,,,,,,,,,,,,,,,,,,,,,,,,,,,,,,,,,,,,,56,musgo,,,,,615.33,616.972,0,0,1.083,,0,87,87,55,1,REAL,FAKE,,,,,,,,,,,,,,,,,
,,,,,,,,,6516d5862e627be30bea296f,Spanish,13 or older,"no, only English or Spanish",no,2025-07-23_08h04.27.707,empathy_intonation_perc,2024.2.4,Win32,31.70577045,6516d5862e627be30bea296f,687ed1b7e638a4cbf2f02089,6880cef4a01e479eda997fd4,,,,,,,,,,,,,,1,,,,,,,,,,,,,,,,,,,,,,,,,,,,,,,,,,,,,,,,,,,,,,,,,,,,,,,,,,,5,zapato,,,,,616.973,618.378,1,1,0.846,,0,88,88,4,1,REAL,FAKE,,,,,,,,,,,,,,,,,
,,,,,,,,,6516d5862e627be30bea296f,Spanish,13 or older,"no, only English or Spanish",no,2025-07-23_08h04.27.707,empathy_intonation_perc,2024.2.4,Win32,31.70577045,6516d5862e627be30bea296f,687ed1b7e638a4cbf2f02089,6880cef4a01e479eda997fd4,,,,,,,,,,,,,,1,,,,,,,,,,,,,,,,,,,,,,,,,,,,,,,,,,,,,,,,,,,,,,,,,,,,,,,,,,,85,laúd,,,,,618.379,619.824,0,0,0.897,,0,89,89,84,1,REAL,FAKE,,,,,,,,,,,,,,,,,
,,,,,,,,,6516d5862e627be30bea296f,Spanish,13 or older,"no, only English or Spanish",no,2025-07-23_08h04.27.707,empathy_intonation_perc,2024.2.4,Win32,31.70577045,6516d5862e627be30bea296f,687ed1b7e638a4cbf2f02089,6880cef4a01e479eda997fd4,,,,,,,,,,,,,,0,,,,,,,,,,,,,,,,,,,,,,,,,,,,,,,,,,,,,,,,,,,,,,,,,,,,,,,,,,,58,plaudir,,,,,619.825,621.331,0,1,0.966,,0,90,90,57,1,REAL,FAKE,,,,,,,,,,,,,,,,,
,,,,,,,,,6516d5862e627be30bea296f,Spanish,13 or older,"no, only English or Spanish",no,2025-07-23_08h04.27.707,empathy_intonation_perc,2024.2.4,Win32,31.70577045,6516d5862e627be30bea296f,687ed1b7e638a4cbf2f02089,6880cef4a01e479eda997fd4,,,,,,,,,,,,,,0,,,,,,,,,,,,,,,,,,,,,,,,,,,,,,,,,,,,,,,,,,,,,,,,,,,,,,,,,,,29,decar,,,,,621.332,622.898,0,1,1.019,,0,91,91,28,1,REAL,FAKE,,,,,,,,,,,,,,,,,
,,,,,,,,,6516d5862e627be30bea296f,Spanish,13 or older,"no, only English or Spanish",no,2025-07-23_08h04.27.707,empathy_intonation_perc,2024.2.4,Win32,31.70577045,6516d5862e627be30bea296f,687ed1b7e638a4cbf2f02089,6880cef4a01e479eda997fd4,,,,,,,,,,,,,,,,,,,,,,,,,,,,,,,,,,,,,,,,,,,,,,,,,,,,,,,,,,,,,,,,,,,,,,,,,,,,,,,,,,,,,,,,,,,,622.898,628.468,,,,,,,,,,,,,,,
,,,,,,,,,6516d5862e627be30bea296f,Spanish,13 or older,"no, only English or Spanish",no,2025-07-23_08h04.27.707,empathy_intonation_perc,2024.2.4,Win32,31.70577045,6516d5862e627be30bea296f,687ed1b7e638a4cbf2f02089,6880cef4a01e479eda997fd4,,,,,,,,,,,,,1,,,,,,,,,,,,,,,,,,,,,,,,,,,,,,,,,,,,,,,,,,,,,,,,,,,,,,,,,,,,,,,,,,,,,,,,,,,,,,,,,628.482,631.612,slightly agree,0,0,0,0,1,I can easily tell if someone else wants to enter a conversation.,1,0,1,0,,
,,,,,,,,,6516d5862e627be30bea296f,Spanish,13 or older,"no, only English or Spanish",no,2025-07-23_08h04.27.707,empathy_intonation_perc,2024.2.4,Win32,31.70577045,6516d5862e627be30bea296f,687ed1b7e638a4cbf2f02089,6880cef4a01e479eda997fd4,,,,,,,,,,,,,2,,,,,,,,,,,,,,,,,,,,,,,,,,,,,,,,,,,,,,,,,,,,,,,,,,,,,,,,,,,,,,,,,,,,,,,,,,,,,,,,,631.613,636.906,slightly disagree,0,1,1,1,1,I prefer animals to humans.,0,1,0,0,,
,,,,,,,,,6516d5862e627be30bea296f,Spanish,13 or older,"no, only English or Spanish",no,2025-07-23_08h04.27.707,empathy_intonation_perc,2024.2.4,Win32,31.70577045,6516d5862e627be30bea296f,687ed1b7e638a4cbf2f02089,6880cef4a01e479eda997fd4,,,,,,,,,,,,,3,,,,,,,,,,,,,,,,,,,,,,,,,,,,,,,,,,,,,,,,,,,,,,,,,,,,,,,,,,,,,,,,,,,,,,,,,,,,,,,,,636.907,639.173,strongly disagree,0,2,2,2,1,I try to keep up with the current trends and fashions.,0,1,0,0,,
,,,,,,,,,6516d5862e627be30bea296f,Spanish,13 or older,"no, only English or Spanish",no,2025-07-23_08h04.27.707,empathy_intonation_perc,2024.2.4,Win32,31.70577045,6516d5862e627be30bea296f,687ed1b7e638a4cbf2f02089,6880cef4a01e479eda997fd4,,,,,,,,,,,,,4,,,,,,,,,,,,,,,,,,,,,,,,,,,,,,,,,,,,,,,,,,,,,,,,,,,,,,,,,,,,,,,,,,,,,,,,,,,,,,,,,639.174,644.797,strongly disagree,0,3,3,3,1,"I find it difficult to explain to others things that I understand easily,   when they don't understand it first time.",1,0,0,1,,
,,,,,,,,,6516d5862e627be30bea296f,Spanish,13 or older,"no, only English or Spanish",no,2025-07-23_08h04.27.707,empathy_intonation_perc,2024.2.4,Win32,31.70577045,6516d5862e627be30bea296f,687ed1b7e638a4cbf2f02089,6880cef4a01e479eda997fd4,,,,,,,,,,,,,5,,,,,,,,,,,,,,,,,,,,,,,,,,,,,,,,,,,,,,,,,,,,,,,,,,,,,,,,,,,,,,,,,,,,,,,,,,,,,,,,,644.798,646.741,strongly disagree,0,4,4,4,1,I dream most nights.,0,1,0,0,,
,,,,,,,,,6516d5862e627be30bea296f,Spanish,13 or older,"no, only English or Spanish",no,2025-07-23_08h04.27.707,empathy_intonation_perc,2024.2.4,Win32,31.70577045,6516d5862e627be30bea296f,687ed1b7e638a4cbf2f02089,6880cef4a01e479eda997fd4,,,,,,,,,,,,,6,,,,,,,,,,,,,,,,,,,,,,,,,,,,,,,,,,,,,,,,,,,,,,,,,,,,,,,,,,,,,,,,,,,,,,,,,,,,,,,,,646.742,648.753,slightly agree,0,5,5,5,1,I really enjoy caring for other people.,1,0,1,0,,
,,,,,,,,,6516d5862e627be30bea296f,Spanish,13 or older,"no, only English or Spanish",no,2025-07-23_08h04.27.707,empathy_intonation_perc,2024.2.4,Win32,31.70577045,6516d5862e627be30bea296f,687ed1b7e638a4cbf2f02089,6880cef4a01e479eda997fd4,,,,,,,,,,,,,7,,,,,,,,,,,,,,,,,,,,,,,,,,,,,,,,,,,,,,,,,,,,,,,,,,,,,,,,,,,,,,,,,,,,,,,,,,,,,,,,,648.754,652.074,slightly disagree,0,6,6,6,1,I try to solve my own problems rather than discussing them with others.,0,1,0,0,,
,,,,,,,,,6516d5862e627be30bea296f,Spanish,13 or older,"no, only English or Spanish",no,2025-07-23_08h04.27.707,empathy_intonation_perc,2024.2.4,Win32,31.70577045,6516d5862e627be30bea296f,687ed1b7e638a4cbf2f02089,6880cef4a01e479eda997fd4,,,,,,,,,,,,,8,,,,,,,,,,,,,,,,,,,,,,,,,,,,,,,,,,,,,,,,,,,,,,,,,,,,,,,,,,,,,,,,,,,,,,,,,,,,,,,,,652.075,654.295,slightly agree,0,7,7,7,1,I find it hard to know what to do in a social situation.,1,0,0,1,,
,,,,,,,,,6516d5862e627be30bea296f,Spanish,13 or older,"no, only English or Spanish",no,2025-07-23_08h04.27.707,empathy_intonation_perc,2024.2.4,Win32,31.70577045,6516d5862e627be30bea296f,687ed1b7e638a4cbf2f02089,6880cef4a01e479eda997fd4,,,,,,,,,,,,,9,,,,,,,,,,,,,,,,,,,,,,,,,,,,,,,,,,,,,,,,,,,,,,,,,,,,,,,,,,,,,,,,,,,,,,,,,,,,,,,,,654.296,657.077,strongly disagree,0,8,8,8,1,I am at my best first thing in the morning.,0,1,0,0,,
,,,,,,,,,6516d5862e627be30bea296f,Spanish,13 or older,"no, only English or Spanish",no,2025-07-23_08h04.27.707,empathy_intonation_perc,2024.2.4,Win32,31.70577045,6516d5862e627be30bea296f,687ed1b7e638a4cbf2f02089,6880cef4a01e479eda997fd4,,,,,,,,,,,,,10,,,,,,,,,,,,,,,,,,,,,,,,,,,,,,,,,,,,,,,,,,,,,,,,,,,,,,,,,,,,,,,,,,,,,,,,,,,,,,,,,657.078,660.805,slightly disagree,0,9,9,9,1,People often tell me that I went too far in driving my point home in a discussion.,1,0,0,1,,
