instructions_exposure.started,instructions_exposure.stopped,instructions_exposure_loop.thisRepN,instructions_exposure_loop.thisTrialN,instructions_exposure_loop.thisN,instructions_exposure_loop.thisIndex,instructions_exposure_loop.ran,instructions_text,continue_text,participant_id,"What variety of Spanish are you most familiar with? (e.g., Peruvian, Spanish, Mexican)",At what age did you begin learning Spanish?,Are you proficient in any languages other than English/Spanish?,"Are you familiar with Caribbean (e.g., Caribbean, Puerto Rican) or Galician Spanish?",date,expName,psychopyVersion,OS,frameRate,id,study_id,session,trial_exposure.started,trial_exposure.stopped,key_resp_exposure.keys,key_resp_exposure.corr,key_resp_exposure.rt,key_resp_exposure.duration,key_resp.keys,exposure_loop.thisRepN,exposure_loop.thisTrialN,exposure_loop.thisN,exposure_loop.thisIndex,exposure_loop.ran,item_num,correct_response,question,path,duration,instructions_2afc.started,instructions_2afc.stopped,instructions_2afc_loop.thisRepN,instructions_2afc_loop.thisTrialN,instructions_2afc_loop.thisN,instructions_2afc_loop.thisIndex,instructions_2afc_loop.ran,practice_2afc.started,practice_2afc.stopped,key_resp_2afc_practice.keys,key_resp_2afc_practice.corr,key_resp_2afc_practice.rt,key_resp_2afc_practice.duration,trials_2afc_practice_loop.thisRepN,trials_2afc_practice_loop.thisTrialN,trials_2afc_practice_loop.thisN,trials_2afc_practice_loop.thisIndex,trials_2afc_practice_loop.ran,check_2afc.started,check_2afc.stopped,trial_2afc.started,trial_2afc.stopped,key_resp_2afc_trial.keys,key_resp_2afc_trial.corr,key_resp_2afc_trial.rt,key_resp_2afc_trial.duration,trials_2afc_loop.thisRepN,trials_2afc_loop.thisTrialN,trials_2afc_loop.thisN,trials_2afc_loop.thisIndex,trials_2afc_loop.ran,target,variety,instructions_lextale.started,instructions_lextale.stopped,instructions_lextale_loop.thisRepN,instructions_lextale_loop.thisTrialN,instructions_lextale_loop.thisN,instructions_lextale_loop.thisIndex,instructions_lextale_loop.ran,practice_lextale.started,practice_lextale.stopped,key_resp_lextale_practice.keys,key_resp_lextale_practice.corr,key_resp_lextale_practice.rt,key_resp_lextale_practice.duration,practice_feedback_lextale.started,practice_feedback_lextale.stopped,trials_lextale_practice_loop.thisRepN,trials_lextale_practice_loop.thisTrialN,trials_lextale_practice_loop.thisN,trials_lextale_practice_loop.thisIndex,trials_lextale_practice_loop.ran,stim,word,prac_button_real,prac_button_false,check_lextale.started,check_lextale.stopped,trial_lextale.started,trial_lextale.stopped,key_resp_lextale_trial.keys,key_resp_lextale_trial.corr,key_resp_lextale_trial.rt,key_resp_lextale_trial.duration,trials_lextale_loop.thisRepN,trials_lextale_loop.thisTrialN,trials_lextale_loop.thisN,trials_lextale_loop.thisIndex,trials_lextale_loop.ran,button_real,button_false,instructions_eq.started,instructions_eq.stopped,trial_eq.started,trial_eq.stopped,slider_eq_trial.response,trials_eq_loop.thisRepN,trials_eq_loop.thisTrialN,trials_eq_loop.thisN,trials_eq_loop.thisIndex,trials_eq_loop.ran,item,is_test_item,is_distractor,is_agree_score,is_disagree_score,end_exp.started,end_exp.stopped
0.0191,3.8862,0,0,0,0,1,"In the following task, you are going to hear a series of conversations.", (press the space bar to continue),651d623cbdcb675cb801bc79,Spanish,13 or older,"no, only English or Spanish",no,2025-07-23_08h43.28.390,empathy_intonation_perc,2024.2.4,Win32,59.88023952,651d623cbdcb675cb801bc79,687ed1b7e638a4cbf2f02089,6880d88e126716178738b784,,,,,,,,,,,,,,,,,,,,,,,,,,,,,,,,,,,,,,,,,,,,,,,,,,,,,,,,,,,,,,,,,,,,,,,,,,,,,,,,,,,,,,,,,,,,,,,,,,,,,,,,,,
3.8872,5.7359,0,1,1,1,1,It is okay if you don't not 100% understand them!, (press the space bar to continue),651d623cbdcb675cb801bc79,Spanish,13 or older,"no, only English or Spanish",no,2025-07-23_08h43.28.390,empathy_intonation_perc,2024.2.4,Win32,59.88023952,651d623cbdcb675cb801bc79,687ed1b7e638a4cbf2f02089,6880d88e126716178738b784,,,,,,,,,,,,,,,,,,,,,,,,,,,,,,,,,,,,,,,,,,,,,,,,,,,,,,,,,,,,,,,,,,,,,,,,,,,,,,,,,,,,,,,,,,,,,,,,,,,,,,,,,,
5.7373,7.4694,0,2,2,2,1,"After, you will read a sentence about the conversation and decide if it's true or false.", (press the space bar to continue),651d623cbdcb675cb801bc79,Spanish,13 or older,"no, only English or Spanish",no,2025-07-23_08h43.28.390,empathy_intonation_perc,2024.2.4,Win32,59.88023952,651d623cbdcb675cb801bc79,687ed1b7e638a4cbf2f02089,6880d88e126716178738b784,,,,,,,,,,,,,,,,,,,,,,,,,,,,,,,,,,,,,,,,,,,,,,,,,,,,,,,,,,,,,,,,,,,,,,,,,,,,,,,,,,,,,,,,,,,,,,,,,,,,,,,,,,
7.4709,25.6865,0,3,3,3,1,"If it's true, press '1' (True) and if it's false press '0' (False).", (press the space bar to continue),651d623cbdcb675cb801bc79,Spanish,13 or older,"no, only English or Spanish",no,2025-07-23_08h43.28.390,empathy_intonation_perc,2024.2.4,Win32,59.88023952,651d623cbdcb675cb801bc79,687ed1b7e638a4cbf2f02089,6880d88e126716178738b784,,,,,,,,,,,,,,,,,,,,,,,,,,,,,,,,,,,,,,,,,,,,,,,,,,,,,,,,,,,,,,,,,,,,,,,,,,,,,,,,,,,,,,,,,,,,,,,,,,,,,,,,,,
,,,,,,,,,651d623cbdcb675cb801bc79,Spanish,13 or older,"no, only English or Spanish",no,2025-07-23_08h43.28.390,empathy_intonation_perc,2024.2.4,Win32,59.88023952,651d623cbdcb675cb801bc79,687ed1b7e638a4cbf2f02089,6880d88e126716178738b784,25.6942,66.5048,1,0,4.7541,,,0,0,0,2,1,3,0,The mom already has rice.,./stim/exposure_wavs/pr_stimuli_convo.wav,36,,,,,,,,,,,,,,,,,,,,,,,,,,,,,,,,,,,,,,,,,,,,,,,,,,,,,,,,,,,,,,,,,,,,,,,,,,,,,,,,,,,,,,,,,
,,,,,,,,,651d623cbdcb675cb801bc79,Spanish,13 or older,"no, only English or Spanish",no,2025-07-23_08h43.28.390,empathy_intonation_perc,2024.2.4,Win32,59.88023952,651d623cbdcb675cb801bc79,687ed1b7e638a4cbf2f02089,6880d88e126716178738b784,66.507,117.2394,0,0,3.7135,,,0,1,1,0,1,1,1,The son asked the mom if Aunt Marina is okay.,./stim/exposure_wavs/ga_stimuli_convo.wav,47,,,,,,,,,,,,,,,,,,,,,,,,,,,,,,,,,,,,,,,,,,,,,,,,,,,,,,,,,,,,,,,,,,,,,,,,,,,,,,,,,,,,,,,,,
,,,,,,,,,651d623cbdcb675cb801bc79,Spanish,13 or older,"no, only English or Spanish",no,2025-07-23_08h43.28.390,empathy_intonation_perc,2024.2.4,Win32,59.88023952,651d623cbdcb675cb801bc79,687ed1b7e638a4cbf2f02089,6880d88e126716178738b784,117.2414,182.025,1,1,4.7608,,,0,2,2,1,1,2,1,The mom asked the daughter if she already went to the supermarket.,./stim/exposure_wavs/dr_stimuli_convo.wav,60,,,,,,,,,,,,,,,,,,,,,,,,,,,,,,,,,,,,,,,,,,,,,,,,,,,,,,,,,,,,,,,,,,,,,,,,,,,,,,,,,,,,,,,,,
,,,,,,,"In the following task you are going to hear a series of utterances. 

  You will decide if the utterances sound like questions or not using your keyboard.", (press the spacebar to continue),651d623cbdcb675cb801bc79,Spanish,13 or older,"no, only English or Spanish",no,2025-07-23_08h43.28.390,empathy_intonation_perc,2024.2.4,Win32,59.88023952,651d623cbdcb675cb801bc79,687ed1b7e638a4cbf2f02089,6880d88e126716178738b784,,,,,,,,,,,,,,,,,,182.0292,187.1086,0,0,0,0,1,,,,,,,,,,,,,,,,,,,,,,,,,,,,,,,,,,,,,,,,,,,,,,,,,,,,,,,,,,,,,,,,,,,,,,,,,,,,,,,,,,
,,,,,,,"If you believe the utterance is a question, type '1' (for 'yes') and if you do not 
  believe it is a question type '0' (for 'no').

  Let's practice a bit...", (press the spacebar to continue),651d623cbdcb675cb801bc79,Spanish,13 or older,"no, only English or Spanish",no,2025-07-23_08h43.28.390,empathy_intonation_perc,2024.2.4,Win32,59.88023952,651d623cbdcb675cb801bc79,687ed1b7e638a4cbf2f02089,6880d88e126716178738b784,,,,,,,,,,,,,,,,,,187.1102,189.642,0,1,1,1,1,,,,,,,,,,,,,,,,,,,,,,,,,,,,,,,,,,,,,,,,,,,,,,,,,,,,,,,,,,,,,,,,,,,,,,,,,,,,,,,,,,
,,,,,,,,,651d623cbdcb675cb801bc79,Spanish,13 or older,"no, only English or Spanish",no,2025-07-23_08h43.28.390,empathy_intonation_perc,2024.2.4,Win32,59.88023952,651d623cbdcb675cb801bc79,687ed1b7e638a4cbf2f02089,6880d88e126716178738b784,,,,,,,,,,,,,,0,,./stim/wavs/puertorican_statement_filler_La-nina-pinta-con-su-amiga.wav,,,,,,,,,189.6476,192.8087,0,1,2.6416,,0,0,0,7,1,,,,,,,,,,,,,,,,,,,,,,,,,,,,,,,,,,,,,,,,,,,,,,,,,,,,,,,,,,,,,,,,,,,,,,,
,,,,,,,,,651d623cbdcb675cb801bc79,Spanish,13 or older,"no, only English or Spanish",no,2025-07-23_08h43.28.390,empathy_intonation_perc,2024.2.4,Win32,59.88023952,651d623cbdcb675cb801bc79,687ed1b7e638a4cbf2f02089,6880d88e126716178738b784,,,,,,,,,,,,,,0,,./stim/wavs/cuban_statement_filler_Cocinabas-por-la-noche.wav,,,,,,,,,192.8093,197.3758,0,1,4.0346,,0,1,1,4,1,,,,,,,,,,,,,,,,,,,,,,,,,,,,,,,,,,,,,,,,,,,,,,,,,,,,,,,,,,,,,,,,,,,,,,,
,,,,,,,,,651d623cbdcb675cb801bc79,Spanish,13 or older,"no, only English or Spanish",no,2025-07-23_08h43.28.390,empathy_intonation_perc,2024.2.4,Win32,59.88023952,651d623cbdcb675cb801bc79,687ed1b7e638a4cbf2f02089,6880d88e126716178738b784,,,,,,,,,,,,,,1,,./stim/wavs/argentine_question_filler_Mi-vecino-habla-mucho.wav,,,,,,,,,197.3764,199.7254,1,1,1.8174,,0,2,2,1,1,,,,,,,,,,,,,,,,,,,,,,,,,,,,,,,,,,,,,,,,,,,,,,,,,,,,,,,,,,,,,,,,,,,,,,,
,,,,,,,,,651d623cbdcb675cb801bc79,Spanish,13 or older,"no, only English or Spanish",no,2025-07-23_08h43.28.390,empathy_intonation_perc,2024.2.4,Win32,59.88023952,651d623cbdcb675cb801bc79,687ed1b7e638a4cbf2f02089,6880d88e126716178738b784,,,,,,,,,,,,,,0,,./stim/wavs/peruvian_statement_filler_El-nino-habla-con-su-madre.wav,,,,,,,,,199.7259,202.5922,0,1,2.3428,,0,3,3,6,1,,,,,,,,,,,,,,,,,,,,,,,,,,,,,,,,,,,,,,,,,,,,,,,,,,,,,,,,,,,,,,,,,,,,,,,
,,,,,,,,,651d623cbdcb675cb801bc79,Spanish,13 or older,"no, only English or Spanish",no,2025-07-23_08h43.28.390,empathy_intonation_perc,2024.2.4,Win32,59.88023952,651d623cbdcb675cb801bc79,687ed1b7e638a4cbf2f02089,6880d88e126716178738b784,,,,,,,,,,,,,,1,,./stim/wavs/chilean_question_filler_Mi-padre-cantaba-bien.wav,,,,,,,,,202.5926,206.6592,1,1,3.5331,,0,4,4,2,1,,,,,,,,,,,,,,,,,,,,,,,,,,,,,,,,,,,,,,,,,,,,,,,,,,,,,,,,,,,,,,,,,,,,,,,
,,,,,,,,,651d623cbdcb675cb801bc79,Spanish,13 or older,"no, only English or Spanish",no,2025-07-23_08h43.28.390,empathy_intonation_perc,2024.2.4,Win32,59.88023952,651d623cbdcb675cb801bc79,687ed1b7e638a4cbf2f02089,6880d88e126716178738b784,,,,,,,,,,,,,,0,,./stim/wavs/andalusian_statement_filler_Alberto-nunca-se-afeita.wav,,,,,,,,,206.6599,209.0925,0,1,1.905,,0,5,5,5,1,,,,,,,,,,,,,,,,,,,,,,,,,,,,,,,,,,,,,,,,,,,,,,,,,,,,,,,,,,,,,,,,,,,,,,,
,,,,,,,,,651d623cbdcb675cb801bc79,Spanish,13 or older,"no, only English or Spanish",no,2025-07-23_08h43.28.390,empathy_intonation_perc,2024.2.4,Win32,59.88023952,651d623cbdcb675cb801bc79,687ed1b7e638a4cbf2f02089,6880d88e126716178738b784,,,,,,,,,,,,,,1,,./stim/wavs/castilian_question_filler_Mi-esposo-conoce-al-chico.wav,,,,,,,,,209.0929,211.5259,1,1,1.9113,,0,6,6,0,1,,,,,,,,,,,,,,,,,,,,,,,,,,,,,,,,,,,,,,,,,,,,,,,,,,,,,,,,,,,,,,,,,,,,,,,
,,,,,,,,,651d623cbdcb675cb801bc79,Spanish,13 or older,"no, only English or Spanish",no,2025-07-23_08h43.28.390,empathy_intonation_perc,2024.2.4,Win32,59.88023952,651d623cbdcb675cb801bc79,687ed1b7e638a4cbf2f02089,6880d88e126716178738b784,,,,,,,,,,,,,,1,,./stim/wavs/mexican_question_filler_Felipe-no-tiene-contrasena.wav,,,,,,,,,211.5263,213.7426,1,1,1.6936,,0,7,7,3,1,,,,,,,,,,,,,,,,,,,,,,,,,,,,,,,,,,,,,,,,,,,,,,,,,,,,,,,,,,,,,,,,,,,,,,,
,,,,,,,,,651d623cbdcb675cb801bc79,Spanish,13 or older,"no, only English or Spanish",no,2025-07-23_08h43.28.390,empathy_intonation_perc,2024.2.4,Win32,59.88023952,651d623cbdcb675cb801bc79,687ed1b7e638a4cbf2f02089,6880d88e126716178738b784,,,,,,,,,,,,,,,,,,,,,,,,,,,,,,,,,,,,213.7429,218.8596,,,,,,,,,,,,,,,,,,,,,,,,,,,,,,,,,,,,,,,,,,,,,,,,,,,,,,,,,,,,,,,,,,,,,
,,,,,,,,,651d623cbdcb675cb801bc79,Spanish,13 or older,"no, only English or Spanish",no,2025-07-23_08h43.28.390,empathy_intonation_perc,2024.2.4,Win32,59.88023952,651d623cbdcb675cb801bc79,687ed1b7e638a4cbf2f02089,6880d88e126716178738b784,,,,,,,,,,,,,74,0,,./stim/wavs/cuban_mismatch_declarative-broad-focus_El-bebe-comia-muy-bien.wav,,,,,,,,,,,,,,,,,,,,,,218.8692,221.0266,0,1,1.634,,0,0,0,73,1,0,cuban,,,,,,,,,,,,,,,,,,,,,,,,,,,,,,,,,,,,,,,,,,,,,,,,,,,,,,,,
,,,,,,,,,651d623cbdcb675cb801bc79,Spanish,13 or older,"no, only English or Spanish",no,2025-07-23_08h43.28.390,empathy_intonation_perc,2024.2.4,Win32,59.88023952,651d623cbdcb675cb801bc79,687ed1b7e638a4cbf2f02089,6880d88e126716178738b784,,,,,,,,,,,,,79,0,,./stim/wavs/mexican_mismatch_declarative-broad-focus_El-bebe-comia-muy-bien.wav,,,,,,,,,,,,,,,,,,,,,,221.0274,223.2429,1,0,1.6839,,0,1,1,78,1,0,mexican,,,,,,,,,,,,,,,,,,,,,,,,,,,,,,,,,,,,,,,,,,,,,,,,,,,,,,,,
,,,,,,,,,651d623cbdcb675cb801bc79,Spanish,13 or older,"no, only English or Spanish",no,2025-07-23_08h43.28.390,empathy_intonation_perc,2024.2.4,Win32,59.88023952,651d623cbdcb675cb801bc79,687ed1b7e638a4cbf2f02089,6880d88e126716178738b784,,,,,,,,,,,,,31,1,,./stim/wavs/cuban_mismatch_interrogative-total-yn_El-nino-oye-el-rio.wav,,,,,,,,,,,,,,,,,,,,,,223.2435,226.0598,0,0,2.2885,,0,2,2,30,1,1,cuban,,,,,,,,,,,,,,,,,,,,,,,,,,,,,,,,,,,,,,,,,,,,,,,,,,,,,,,,
,,,,,,,,,651d623cbdcb675cb801bc79,Spanish,13 or older,"no, only English or Spanish",no,2025-07-23_08h43.28.390,empathy_intonation_perc,2024.2.4,Win32,59.88023952,651d623cbdcb675cb801bc79,687ed1b7e638a4cbf2f02089,6880d88e126716178738b784,,,,,,,,,,,,,9,1,,./stim/wavs/cuban_match_interrogative-total-yn_Manuela-vende-el-carro.wav,,,,,,,,,,,,,,,,,,,,,,226.0601,228.3431,0,0,1.7517,,0,3,3,8,1,1,cuban,,,,,,,,,,,,,,,,,,,,,,,,,,,,,,,,,,,,,,,,,,,,,,,,,,,,,,,,
,,,,,,,,,651d623cbdcb675cb801bc79,Spanish,13 or older,"no, only English or Spanish",no,2025-07-23_08h43.28.390,empathy_intonation_perc,2024.2.4,Win32,59.88023952,651d623cbdcb675cb801bc79,687ed1b7e638a4cbf2f02089,6880d88e126716178738b784,,,,,,,,,,,,,6,1,,./stim/wavs/castilian_match_interrogative-total-yn_Marta-abre-el-regalo.wav,,,,,,,,,,,,,,,,,,,,,,228.3435,230.4932,1,1,1.617,,0,4,4,5,1,0,castilian,,,,,,,,,,,,,,,,,,,,,,,,,,,,,,,,,,,,,,,,,,,,,,,,,,,,,,,,
,,,,,,,,,651d623cbdcb675cb801bc79,Spanish,13 or older,"no, only English or Spanish",no,2025-07-23_08h43.28.390,empathy_intonation_perc,2024.2.4,Win32,59.88023952,651d623cbdcb675cb801bc79,687ed1b7e638a4cbf2f02089,6880d88e126716178738b784,,,,,,,,,,,,,13,1,,./stim/wavs/mexican_match_interrogative-total-yn_Ana-lleva-el-abrigo.wav,,,,,,,,,,,,,,,,,,,,,,230.4936,232.6601,1,1,1.6335,,0,5,5,12,1,0,mexican,,,,,,,,,,,,,,,,,,,,,,,,,,,,,,,,,,,,,,,,,,,,,,,,,,,,,,,,
,,,,,,,,,651d623cbdcb675cb801bc79,Spanish,13 or older,"no, only English or Spanish",no,2025-07-23_08h43.28.390,empathy_intonation_perc,2024.2.4,Win32,59.88023952,651d623cbdcb675cb801bc79,687ed1b7e638a4cbf2f02089,6880d88e126716178738b784,,,,,,,,,,,,,34,1,,./stim/wavs/cuban_mismatch_interrogative-total-yn_Mi-tia-odia-la-lluvia.wav,,,,,,,,,,,,,,,,,,,,,,232.6605,235.027,0,0,1.8393,,0,6,6,33,1,1,cuban,,,,,,,,,,,,,,,,,,,,,,,,,,,,,,,,,,,,,,,,,,,,,,,,,,,,,,,,
,,,,,,,,,651d623cbdcb675cb801bc79,Spanish,13 or older,"no, only English or Spanish",no,2025-07-23_08h43.28.390,empathy_intonation_perc,2024.2.4,Win32,59.88023952,651d623cbdcb675cb801bc79,687ed1b7e638a4cbf2f02089,6880d88e126716178738b784,,,,,,,,,,,,,27,1,,./stim/wavs/castilian_mismatch_interrogative-total-yn_Mi-madre-come-la-fruta.wav,,,,,,,,,,,,,,,,,,,,,,235.0274,237.1934,1,1,1.6332,,0,7,7,26,1,0,castilian,,,,,,,,,,,,,,,,,,,,,,,,,,,,,,,,,,,,,,,,,,,,,,,,,,,,,,,,
,,,,,,,,,651d623cbdcb675cb801bc79,Spanish,13 or older,"no, only English or Spanish",no,2025-07-23_08h43.28.390,empathy_intonation_perc,2024.2.4,Win32,59.88023952,651d623cbdcb675cb801bc79,687ed1b7e638a4cbf2f02089,6880d88e126716178738b784,,,,,,,,,,,,,65,0,,./stim/wavs/puertorican_match_declarative-broad-focus_David-leia-el-libro.wav,,,,,,,,,,,,,,,,,,,,,,237.1938,239.8435,0,1,2.1173,,0,8,8,64,1,0,puertorican,,,,,,,,,,,,,,,,,,,,,,,,,,,,,,,,,,,,,,,,,,,,,,,,,,,,,,,,
,,,,,,,,,651d623cbdcb675cb801bc79,Spanish,13 or older,"no, only English or Spanish",no,2025-07-23_08h43.28.390,empathy_intonation_perc,2024.2.4,Win32,59.88023952,651d623cbdcb675cb801bc79,687ed1b7e638a4cbf2f02089,6880d88e126716178738b784,,,,,,,,,,,,,69,0,,./stim/wavs/castilian_mismatch_declarative-broad-focus_El-nino-oye-el-rio.wav,,,,,,,,,,,,,,,,,,,,,,239.8439,242.2269,0,1,1.8562,,0,9,9,68,1,0,castilian,,,,,,,,,,,,,,,,,,,,,,,,,,,,,,,,,,,,,,,,,,,,,,,,,,,,,,,,
,,,,,,,,,651d623cbdcb675cb801bc79,Spanish,13 or older,"no, only English or Spanish",no,2025-07-23_08h43.28.390,empathy_intonation_perc,2024.2.4,Win32,59.88023952,651d623cbdcb675cb801bc79,687ed1b7e638a4cbf2f02089,6880d88e126716178738b784,,,,,,,,,,,,,70,0,,./stim/wavs/castilian_mismatch_declarative-broad-focus_La-maestra-vive-en-Paris.wav,,,,,,,,,,,,,,,,,,,,,,242.2273,244.7103,0,1,1.9607,,0,10,10,69,1,0,castilian,,,,,,,,,,,,,,,,,,,,,,,,,,,,,,,,,,,,,,,,,,,,,,,,,,,,,,,,
,,,,,,,,,651d623cbdcb675cb801bc79,Spanish,13 or older,"no, only English or Spanish",no,2025-07-23_08h43.28.390,empathy_intonation_perc,2024.2.4,Win32,59.88023952,651d623cbdcb675cb801bc79,687ed1b7e638a4cbf2f02089,6880d88e126716178738b784,,,,,,,,,,,,,36,1,,./stim/wavs/mexican_mismatch_interrogative-total-yn_El-nino-oye-el-rio.wav,,,,,,,,,,,,,,,,,,,,,,244.7107,246.6937,1,1,1.4604,,0,11,11,35,1,0,mexican,,,,,,,,,,,,,,,,,,,,,,,,,,,,,,,,,,,,,,,,,,,,,,,,,,,,,,,,
,,,,,,,,,651d623cbdcb675cb801bc79,Spanish,13 or older,"no, only English or Spanish",no,2025-07-23_08h43.28.390,empathy_intonation_perc,2024.2.4,Win32,59.88023952,651d623cbdcb675cb801bc79,687ed1b7e638a4cbf2f02089,6880d88e126716178738b784,,,,,,,,,,,,,22,1,,./stim/wavs/puertorican_match_interrogative-total-yn_Emilio-ama-la-marcha.wav,,,,,,,,,,,,,,,,,,,,,,246.6941,249.6939,0,0,2.4671,,0,12,12,21,1,1,puertorican,,,,,,,,,,,,,,,,,,,,,,,,,,,,,,,,,,,,,,,,,,,,,,,,,,,,,,,,
,,,,,,,,,651d623cbdcb675cb801bc79,Spanish,13 or older,"no, only English or Spanish",no,2025-07-23_08h43.28.390,empathy_intonation_perc,2024.2.4,Win32,59.88023952,651d623cbdcb675cb801bc79,687ed1b7e638a4cbf2f02089,6880d88e126716178738b784,,,,,,,,,,,,,76,0,,./stim/wavs/cuban_mismatch_declarative-broad-focus_La-nina-lava-el-plato.wav,,,,,,,,,,,,,,,,,,,,,,249.6942,251.9606,0,1,1.7415,,0,13,13,75,1,0,cuban,,,,,,,,,,,,,,,,,,,,,,,,,,,,,,,,,,,,,,,,,,,,,,,,,,,,,,,,
,,,,,,,,,651d623cbdcb675cb801bc79,Spanish,13 or older,"no, only English or Spanish",no,2025-07-23_08h43.28.390,empathy_intonation_perc,2024.2.4,Win32,59.88023952,651d623cbdcb675cb801bc79,687ed1b7e638a4cbf2f02089,6880d88e126716178738b784,,,,,,,,,,,,,55,0,,./stim/wavs/cuban_match_declarative-broad-focus_Mariano-habla-del-tiempo.wav,,,,,,,,,,,,,,,,,,,,,,251.9611,254.3106,0,1,1.8273,,0,14,14,54,1,0,cuban,,,,,,,,,,,,,,,,,,,,,,,,,,,,,,,,,,,,,,,,,,,,,,,,,,,,,,,,
,,,,,,,,,651d623cbdcb675cb801bc79,Spanish,13 or older,"no, only English or Spanish",no,2025-07-23_08h43.28.390,empathy_intonation_perc,2024.2.4,Win32,59.88023952,651d623cbdcb675cb801bc79,687ed1b7e638a4cbf2f02089,6880d88e126716178738b784,,,,,,,,,,,,,28,1,,./stim/wavs/castilian_mismatch_interrogative-total-yn_Mi-novio-viene-del-lago.wav,,,,,,,,,,,,,,,,,,,,,,254.3111,256.5607,1,1,1.7248,,0,15,15,27,1,0,castilian,,,,,,,,,,,,,,,,,,,,,,,,,,,,,,,,,,,,,,,,,,,,,,,,,,,,,,,,
,,,,,,,,,651d623cbdcb675cb801bc79,Spanish,13 or older,"no, only English or Spanish",no,2025-07-23_08h43.28.390,empathy_intonation_perc,2024.2.4,Win32,59.88023952,651d623cbdcb675cb801bc79,687ed1b7e638a4cbf2f02089,6880d88e126716178738b784,,,,,,,,,,,,,5,1,,./stim/wavs/castilian_match_interrogative-total-yn_Mariano-habla-del-tiempo.wav,,,,,,,,,,,,,,,,,,,,,,256.5611,259.0774,1,1,1.9947,,0,16,16,4,1,0,castilian,,,,,,,,,,,,,,,,,,,,,,,,,,,,,,,,,,,,,,,,,,,,,,,,,,,,,,,,
,,,,,,,,,651d623cbdcb675cb801bc79,Spanish,13 or older,"no, only English or Spanish",no,2025-07-23_08h43.28.390,empathy_intonation_perc,2024.2.4,Win32,59.88023952,651d623cbdcb675cb801bc79,687ed1b7e638a4cbf2f02089,6880d88e126716178738b784,,,,,,,,,,,,,81,0,,./stim/wavs/mexican_mismatch_declarative-broad-focus_La-maestra-vive-en-Paris.wav,,,,,,,,,,,,,,,,,,,,,,259.0778,261.7776,0,1,2.1732,,0,17,17,80,1,0,mexican,,,,,,,,,,,,,,,,,,,,,,,,,,,,,,,,,,,,,,,,,,,,,,,,,,,,,,,,
,,,,,,,,,651d623cbdcb675cb801bc79,Spanish,13 or older,"no, only English or Spanish",no,2025-07-23_08h43.28.390,empathy_intonation_perc,2024.2.4,Win32,59.88023952,651d623cbdcb675cb801bc79,687ed1b7e638a4cbf2f02089,6880d88e126716178738b784,,,,,,,,,,,,,61,0,,./stim/wavs/mexican_match_declarative-broad-focus_Mariano-habla-del-tiempo.wav,,,,,,,,,,,,,,,,,,,,,,261.7781,263.9943,0,1,1.6835,,0,18,18,60,1,0,mexican,,,,,,,,,,,,,,,,,,,,,,,,,,,,,,,,,,,,,,,,,,,,,,,,,,,,,,,,
,,,,,,,,,651d623cbdcb675cb801bc79,Spanish,13 or older,"no, only English or Spanish",no,2025-07-23_08h43.28.390,empathy_intonation_perc,2024.2.4,Win32,59.88023952,651d623cbdcb675cb801bc79,687ed1b7e638a4cbf2f02089,6880d88e126716178738b784,,,,,,,,,,,,,30,1,,./stim/wavs/cuban_mismatch_interrogative-total-yn_El-hombre-mira-la-luna.wav,,,,,,,,,,,,,,,,,,,,,,263.9947,266.4943,1,1,1.9774,,0,19,19,29,1,1,cuban,,,,,,,,,,,,,,,,,,,,,,,,,,,,,,,,,,,,,,,,,,,,,,,,,,,,,,,,
,,,,,,,,,651d623cbdcb675cb801bc79,Spanish,13 or older,"no, only English or Spanish",no,2025-07-23_08h43.28.390,empathy_intonation_perc,2024.2.4,Win32,59.88023952,651d623cbdcb675cb801bc79,687ed1b7e638a4cbf2f02089,6880d88e126716178738b784,,,,,,,,,,,,,40,1,,./stim/wavs/puertorican_mismatch_interrogative-total-yn_El-hombre-mira-la-luna.wav,,,,,,,,,,,,,,,,,,,,,,266.4947,268.4445,1,1,1.4169,,0,20,20,39,1,1,puertorican,,,,,,,,,,,,,,,,,,,,,,,,,,,,,,,,,,,,,,,,,,,,,,,,,,,,,,,,
,,,,,,,,,651d623cbdcb675cb801bc79,Spanish,13 or older,"no, only English or Spanish",no,2025-07-23_08h43.28.390,empathy_intonation_perc,2024.2.4,Win32,59.88023952,651d623cbdcb675cb801bc79,687ed1b7e638a4cbf2f02089,6880d88e126716178738b784,,,,,,,,,,,,,3,1,,./stim/wavs/castilian_match_interrogative-total-yn_Manuela-vende-el-carro.wav,,,,,,,,,,,,,,,,,,,,,,268.4449,270.9612,1,1,1.9913,,0,21,21,2,1,0,castilian,,,,,,,,,,,,,,,,,,,,,,,,,,,,,,,,,,,,,,,,,,,,,,,,,,,,,,,,
,,,,,,,,,651d623cbdcb675cb801bc79,Spanish,13 or older,"no, only English or Spanish",no,2025-07-23_08h43.28.390,empathy_intonation_perc,2024.2.4,Win32,59.88023952,651d623cbdcb675cb801bc79,687ed1b7e638a4cbf2f02089,6880d88e126716178738b784,,,,,,,,,,,,,83,0,,./stim/wavs/mexican_mismatch_declarative-broad-focus_Mi-tia-odia-la-lluvia.wav,,,,,,,,,,,,,,,,,,,,,,270.9616,273.0613,0,1,1.5778,,0,22,22,82,1,0,mexican,,,,,,,,,,,,,,,,,,,,,,,,,,,,,,,,,,,,,,,,,,,,,,,,,,,,,,,,
,,,,,,,,,651d623cbdcb675cb801bc79,Spanish,13 or older,"no, only English or Spanish",no,2025-07-23_08h43.28.390,empathy_intonation_perc,2024.2.4,Win32,59.88023952,651d623cbdcb675cb801bc79,687ed1b7e638a4cbf2f02089,6880d88e126716178738b784,,,,,,,,,,,,,26,1,,./stim/wavs/castilian_mismatch_interrogative-total-yn_La-nina-lava-el-plato.wav,,,,,,,,,,,,,,,,,,,,,,273.0617,275.1779,1,1,1.5837,,0,23,23,25,1,0,castilian,,,,,,,,,,,,,,,,,,,,,,,,,,,,,,,,,,,,,,,,,,,,,,,,,,,,,,,,
,,,,,,,,,651d623cbdcb675cb801bc79,Spanish,13 or older,"no, only English or Spanish",no,2025-07-23_08h43.28.390,empathy_intonation_perc,2024.2.4,Win32,59.88023952,651d623cbdcb675cb801bc79,687ed1b7e638a4cbf2f02089,6880d88e126716178738b784,,,,,,,,,,,,,48,0,,./stim/wavs/castilian_match_declarative-broad-focus_Maria-bebe-el-vino.wav,,,,,,,,,,,,,,,,,,,,,,275.1784,277.3113,1,0,1.6017,,0,24,24,47,1,0,castilian,,,,,,,,,,,,,,,,,,,,,,,,,,,,,,,,,,,,,,,,,,,,,,,,,,,,,,,,
,,,,,,,,,651d623cbdcb675cb801bc79,Spanish,13 or older,"no, only English or Spanish",no,2025-07-23_08h43.28.390,empathy_intonation_perc,2024.2.4,Win32,59.88023952,651d623cbdcb675cb801bc79,687ed1b7e638a4cbf2f02089,6880d88e126716178738b784,,,,,,,,,,,,,64,0,,./stim/wavs/puertorican_match_declarative-broad-focus_Daniel-iba-a-Bolivia.wav,,,,,,,,,,,,,,,,,,,,,,277.3118,280.0781,0,1,2.2445,,0,25,25,63,1,0,puertorican,,,,,,,,,,,,,,,,,,,,,,,,,,,,,,,,,,,,,,,,,,,,,,,,,,,,,,,,
,,,,,,,,,651d623cbdcb675cb801bc79,Spanish,13 or older,"no, only English or Spanish",no,2025-07-23_08h43.28.390,empathy_intonation_perc,2024.2.4,Win32,59.88023952,651d623cbdcb675cb801bc79,687ed1b7e638a4cbf2f02089,6880d88e126716178738b784,,,,,,,,,,,,,35,1,,./stim/wavs/mexican_mismatch_interrogative-total-yn_El-hombre-mira-la-luna.wav,,,,,,,,,,,,,,,,,,,,,,280.0784,282.0616,1,1,1.4534,,0,26,26,34,1,0,mexican,,,,,,,,,,,,,,,,,,,,,,,,,,,,,,,,,,,,,,,,,,,,,,,,,,,,,,,,
,,,,,,,,,651d623cbdcb675cb801bc79,Spanish,13 or older,"no, only English or Spanish",no,2025-07-23_08h43.28.390,empathy_intonation_perc,2024.2.4,Win32,59.88023952,651d623cbdcb675cb801bc79,687ed1b7e638a4cbf2f02089,6880d88e126716178738b784,,,,,,,,,,,,,14,1,,./stim/wavs/mexican_match_interrogative-total-yn_Daniel-iba-a-Bolivia.wav,,,,,,,,,,,,,,,,,,,,,,282.062,284.8453,0,0,2.2617,,0,27,27,13,1,0,mexican,,,,,,,,,,,,,,,,,,,,,,,,,,,,,,,,,,,,,,,,,,,,,,,,,,,,,,,,
,,,,,,,,,651d623cbdcb675cb801bc79,Spanish,13 or older,"no, only English or Spanish",no,2025-07-23_08h43.28.390,empathy_intonation_perc,2024.2.4,Win32,59.88023952,651d623cbdcb675cb801bc79,687ed1b7e638a4cbf2f02089,6880d88e126716178738b784,,,,,,,,,,,,,8,1,,./stim/wavs/cuban_match_interrogative-total-yn_Daniel-iba-a-Bolivia.wav,,,,,,,,,,,,,,,,,,,,,,284.8459,287.1787,0,0,1.8066,,0,28,28,7,1,1,cuban,,,,,,,,,,,,,,,,,,,,,,,,,,,,,,,,,,,,,,,,,,,,,,,,,,,,,,,,
,,,,,,,,,651d623cbdcb675cb801bc79,Spanish,13 or older,"no, only English or Spanish",no,2025-07-23_08h43.28.390,empathy_intonation_perc,2024.2.4,Win32,59.88023952,651d623cbdcb675cb801bc79,687ed1b7e638a4cbf2f02089,6880d88e126716178738b784,,,,,,,,,,,,,16,1,,./stim/wavs/mexican_match_interrogative-total-yn_Emilio-ama-la-marcha.wav,,,,,,,,,,,,,,,,,,,,,,287.1793,289.4618,1,1,1.7533,,0,29,29,15,1,0,mexican,,,,,,,,,,,,,,,,,,,,,,,,,,,,,,,,,,,,,,,,,,,,,,,,,,,,,,,,
,,,,,,,,,651d623cbdcb675cb801bc79,Spanish,13 or older,"no, only English or Spanish",no,2025-07-23_08h43.28.390,empathy_intonation_perc,2024.2.4,Win32,59.88023952,651d623cbdcb675cb801bc79,687ed1b7e638a4cbf2f02089,6880d88e126716178738b784,,,,,,,,,,,,,20,1,,./stim/wavs/puertorican_match_interrogative-total-yn_Daniel-iba-a-Bolivia.wav,,,,,,,,,,,,,,,,,,,,,,289.4621,291.7619,0,0,1.7732,,0,30,30,19,1,1,puertorican,,,,,,,,,,,,,,,,,,,,,,,,,,,,,,,,,,,,,,,,,,,,,,,,,,,,,,,,
,,,,,,,,,651d623cbdcb675cb801bc79,Spanish,13 or older,"no, only English or Spanish",no,2025-07-23_08h43.28.390,empathy_intonation_perc,2024.2.4,Win32,59.88023952,651d623cbdcb675cb801bc79,687ed1b7e638a4cbf2f02089,6880d88e126716178738b784,,,,,,,,,,,,,78,0,,./stim/wavs/cuban_mismatch_declarative-broad-focus_Mi-tia-odia-la-lluvia.wav,,,,,,,,,,,,,,,,,,,,,,291.7623,294.162,0,1,1.873,,0,31,31,77,1,0,cuban,,,,,,,,,,,,,,,,,,,,,,,,,,,,,,,,,,,,,,,,,,,,,,,,,,,,,,,,
,,,,,,,,,651d623cbdcb675cb801bc79,Spanish,13 or older,"no, only English or Spanish",no,2025-07-23_08h43.28.390,empathy_intonation_perc,2024.2.4,Win32,59.88023952,651d623cbdcb675cb801bc79,687ed1b7e638a4cbf2f02089,6880d88e126716178738b784,,,,,,,,,,,,,10,1,,./stim/wavs/cuban_match_interrogative-total-yn_Maria-bebe-el-vino.wav,,,,,,,,,,,,,,,,,,,,,,294.1623,296.2786,0,0,1.5855,,0,32,32,9,1,1,cuban,,,,,,,,,,,,,,,,,,,,,,,,,,,,,,,,,,,,,,,,,,,,,,,,,,,,,,,,
,,,,,,,,,651d623cbdcb675cb801bc79,Spanish,13 or older,"no, only English or Spanish",no,2025-07-23_08h43.28.390,empathy_intonation_perc,2024.2.4,Win32,59.88023952,651d623cbdcb675cb801bc79,687ed1b7e638a4cbf2f02089,6880d88e126716178738b784,,,,,,,,,,,,,77,0,,./stim/wavs/cuban_mismatch_declarative-broad-focus_Mi-novio-viene-del-lago.wav,,,,,,,,,,,,,,,,,,,,,,296.2794,298.6956,0,1,1.893,,0,33,33,76,1,0,cuban,,,,,,,,,,,,,,,,,,,,,,,,,,,,,,,,,,,,,,,,,,,,,,,,,,,,,,,,
,,,,,,,,,651d623cbdcb675cb801bc79,Spanish,13 or older,"no, only English or Spanish",no,2025-07-23_08h43.28.390,empathy_intonation_perc,2024.2.4,Win32,59.88023952,651d623cbdcb675cb801bc79,687ed1b7e638a4cbf2f02089,6880d88e126716178738b784,,,,,,,,,,,,,56,0,,./stim/wavs/cuban_match_declarative-broad-focus_Marta-abre-el-regalo.wav,,,,,,,,,,,,,,,,,,,,,,298.6962,300.9121,0,1,1.693,,0,34,34,55,1,0,cuban,,,,,,,,,,,,,,,,,,,,,,,,,,,,,,,,,,,,,,,,,,,,,,,,,,,,,,,,
,,,,,,,,,651d623cbdcb675cb801bc79,Spanish,13 or older,"no, only English or Spanish",no,2025-07-23_08h43.28.390,empathy_intonation_perc,2024.2.4,Win32,59.88023952,651d623cbdcb675cb801bc79,687ed1b7e638a4cbf2f02089,6880d88e126716178738b784,,,,,,,,,,,,,47,0,,./stim/wavs/castilian_match_declarative-broad-focus_Manuela-vende-el-carro.wav,,,,,,,,,,,,,,,,,,,,,,300.9125,303.3123,0,1,1.8752,,0,35,35,46,1,0,castilian,,,,,,,,,,,,,,,,,,,,,,,,,,,,,,,,,,,,,,,,,,,,,,,,,,,,,,,,
,,,,,,,,,651d623cbdcb675cb801bc79,Spanish,13 or older,"no, only English or Spanish",no,2025-07-23_08h43.28.390,empathy_intonation_perc,2024.2.4,Win32,59.88023952,651d623cbdcb675cb801bc79,687ed1b7e638a4cbf2f02089,6880d88e126716178738b784,,,,,,,,,,,,,66,0,,./stim/wavs/puertorican_match_declarative-broad-focus_Emilio-ama-la-marcha.wav,,,,,,,,,,,,,,,,,,,,,,303.3127,305.5623,0,1,1.7233,,0,36,36,65,1,0,puertorican,,,,,,,,,,,,,,,,,,,,,,,,,,,,,,,,,,,,,,,,,,,,,,,,,,,,,,,,
,,,,,,,,,651d623cbdcb675cb801bc79,Spanish,13 or older,"no, only English or Spanish",no,2025-07-23_08h43.28.390,empathy_intonation_perc,2024.2.4,Win32,59.88023952,651d623cbdcb675cb801bc79,687ed1b7e638a4cbf2f02089,6880d88e126716178738b784,,,,,,,,,,,,,38,1,,./stim/wavs/mexican_mismatch_interrogative-total-yn_Mi-novio-viene-del-lago.wav,,,,,,,,,,,,,,,,,,,,,,305.5627,307.6456,1,1,1.5611,,0,37,37,37,1,0,mexican,,,,,,,,,,,,,,,,,,,,,,,,,,,,,,,,,,,,,,,,,,,,,,,,,,,,,,,,
,,,,,,,,,651d623cbdcb675cb801bc79,Spanish,13 or older,"no, only English or Spanish",no,2025-07-23_08h43.28.390,empathy_intonation_perc,2024.2.4,Win32,59.88023952,651d623cbdcb675cb801bc79,687ed1b7e638a4cbf2f02089,6880d88e126716178738b784,,,,,,,,,,,,,72,0,,./stim/wavs/castilian_mismatch_declarative-broad-focus_Mi-novio-viene-del-lago.wav,,,,,,,,,,,,,,,,,,,,,,307.6462,309.6791,1,0,1.5097,,0,38,38,71,1,0,castilian,,,,,,,,,,,,,,,,,,,,,,,,,,,,,,,,,,,,,,,,,,,,,,,,,,,,,,,,
,,,,,,,,,651d623cbdcb675cb801bc79,Spanish,13 or older,"no, only English or Spanish",no,2025-07-23_08h43.28.390,empathy_intonation_perc,2024.2.4,Win32,59.88023952,651d623cbdcb675cb801bc79,687ed1b7e638a4cbf2f02089,6880d88e126716178738b784,,,,,,,,,,,,,88,0,,./stim/wavs/puertorican_mismatch_declarative-broad-focus_La-nina-lava-el-plato.wav,,,,,,,,,,,,,,,,,,,,,,309.6797,312.1625,0,1,1.9507,,0,39,39,87,1,0,puertorican,,,,,,,,,,,,,,,,,,,,,,,,,,,,,,,,,,,,,,,,,,,,,,,,,,,,,,,,
,,,,,,,,,651d623cbdcb675cb801bc79,Spanish,13 or older,"no, only English or Spanish",no,2025-07-23_08h43.28.390,empathy_intonation_perc,2024.2.4,Win32,59.88023952,651d623cbdcb675cb801bc79,687ed1b7e638a4cbf2f02089,6880d88e126716178738b784,,,,,,,,,,,,,60,0,,./stim/wavs/mexican_match_declarative-broad-focus_Emilio-ama-la-marcha.wav,,,,,,,,,,,,,,,,,,,,,,312.1628,314.3792,0,1,1.6885,,0,40,40,59,1,0,mexican,,,,,,,,,,,,,,,,,,,,,,,,,,,,,,,,,,,,,,,,,,,,,,,,,,,,,,,,
,,,,,,,,,651d623cbdcb675cb801bc79,Spanish,13 or older,"no, only English or Spanish",no,2025-07-23_08h43.28.390,empathy_intonation_perc,2024.2.4,Win32,59.88023952,651d623cbdcb675cb801bc79,687ed1b7e638a4cbf2f02089,6880d88e126716178738b784,,,,,,,,,,,,,75,0,,./stim/wavs/cuban_mismatch_declarative-broad-focus_El-hombre-mira-la-luna.wav,,,,,,,,,,,,,,,,,,,,,,314.3797,316.5627,0,1,1.6502,,0,41,41,74,1,0,cuban,,,,,,,,,,,,,,,,,,,,,,,,,,,,,,,,,,,,,,,,,,,,,,,,,,,,,,,,
,,,,,,,,,651d623cbdcb675cb801bc79,Spanish,13 or older,"no, only English or Spanish",no,2025-07-23_08h43.28.390,empathy_intonation_perc,2024.2.4,Win32,59.88023952,651d623cbdcb675cb801bc79,687ed1b7e638a4cbf2f02089,6880d88e126716178738b784,,,,,,,,,,,,,86,0,,./stim/wavs/puertorican_mismatch_declarative-broad-focus_El-nino-oye-el-rio.wav,,,,,,,,,,,,,,,,,,,,,,316.5632,318.5795,0,1,1.4894,,0,42,42,85,1,0,puertorican,,,,,,,,,,,,,,,,,,,,,,,,,,,,,,,,,,,,,,,,,,,,,,,,,,,,,,,,
,,,,,,,,,651d623cbdcb675cb801bc79,Spanish,13 or older,"no, only English or Spanish",no,2025-07-23_08h43.28.390,empathy_intonation_perc,2024.2.4,Win32,59.88023952,651d623cbdcb675cb801bc79,687ed1b7e638a4cbf2f02089,6880d88e126716178738b784,,,,,,,,,,,,,29,1,,./stim/wavs/castilian_mismatch_interrogative-total-yn_Mi-tia-odia-la-lluvia.wav,,,,,,,,,,,,,,,,,,,,,,318.5799,320.6628,1,1,1.5522,,0,43,43,28,1,0,castilian,,,,,,,,,,,,,,,,,,,,,,,,,,,,,,,,,,,,,,,,,,,,,,,,,,,,,,,,
,,,,,,,,,651d623cbdcb675cb801bc79,Spanish,13 or older,"no, only English or Spanish",no,2025-07-23_08h43.28.390,empathy_intonation_perc,2024.2.4,Win32,59.88023952,651d623cbdcb675cb801bc79,687ed1b7e638a4cbf2f02089,6880d88e126716178738b784,,,,,,,,,,,,,51,0,,./stim/wavs/cuban_match_declarative-broad-focus_Ana-lleva-el-abrigo.wav,,,,,,,,,,,,,,,,,,,,,,320.6631,322.7129,0,1,1.5246,,0,44,44,50,1,0,cuban,,,,,,,,,,,,,,,,,,,,,,,,,,,,,,,,,,,,,,,,,,,,,,,,,,,,,,,,
,,,,,,,,,651d623cbdcb675cb801bc79,Spanish,13 or older,"no, only English or Spanish",no,2025-07-23_08h43.28.390,empathy_intonation_perc,2024.2.4,Win32,59.88023952,651d623cbdcb675cb801bc79,687ed1b7e638a4cbf2f02089,6880d88e126716178738b784,,,,,,,,,,,,,7,1,,./stim/wavs/cuban_match_interrogative-total-yn_Ana-lleva-el-abrigo.wav,,,,,,,,,,,,,,,,,,,,,,322.7135,324.7799,0,0,1.5331,,0,45,45,6,1,1,cuban,,,,,,,,,,,,,,,,,,,,,,,,,,,,,,,,,,,,,,,,,,,,,,,,,,,,,,,,
,,,,,,,,,651d623cbdcb675cb801bc79,Spanish,13 or older,"no, only English or Spanish",no,2025-07-23_08h43.28.390,empathy_intonation_perc,2024.2.4,Win32,59.88023952,651d623cbdcb675cb801bc79,687ed1b7e638a4cbf2f02089,6880d88e126716178738b784,,,,,,,,,,,,,62,0,,./stim/wavs/mexican_match_declarative-broad-focus_Marta-abre-el-regalo.wav,,,,,,,,,,,,,,,,,,,,,,324.7805,326.9963,0,1,1.6841,,0,46,46,61,1,0,mexican,,,,,,,,,,,,,,,,,,,,,,,,,,,,,,,,,,,,,,,,,,,,,,,,,,,,,,,,
,,,,,,,,,651d623cbdcb675cb801bc79,Spanish,13 or older,"no, only English or Spanish",no,2025-07-23_08h43.28.390,empathy_intonation_perc,2024.2.4,Win32,59.88023952,651d623cbdcb675cb801bc79,687ed1b7e638a4cbf2f02089,6880d88e126716178738b784,,,,,,,,,,,,,59,0,,./stim/wavs/mexican_match_declarative-broad-focus_David-leia-el-libro.wav,,,,,,,,,,,,,,,,,,,,,,326.9967,328.9968,0,1,1.4672,,0,47,47,58,1,0,mexican,,,,,,,,,,,,,,,,,,,,,,,,,,,,,,,,,,,,,,,,,,,,,,,,,,,,,,,,
,,,,,,,,,651d623cbdcb675cb801bc79,Spanish,13 or older,"no, only English or Spanish",no,2025-07-23_08h43.28.390,empathy_intonation_perc,2024.2.4,Win32,59.88023952,651d623cbdcb675cb801bc79,687ed1b7e638a4cbf2f02089,6880d88e126716178738b784,,,,,,,,,,,,,17,1,,./stim/wavs/mexican_match_interrogative-total-yn_Mariano-habla-del-tiempo.wav,,,,,,,,,,,,,,,,,,,,,,328.9975,331.3132,1,1,1.7837,,0,48,48,16,1,0,mexican,,,,,,,,,,,,,,,,,,,,,,,,,,,,,,,,,,,,,,,,,,,,,,,,,,,,,,,,
,,,,,,,,,651d623cbdcb675cb801bc79,Spanish,13 or older,"no, only English or Spanish",no,2025-07-23_08h43.28.390,empathy_intonation_perc,2024.2.4,Win32,59.88023952,651d623cbdcb675cb801bc79,687ed1b7e638a4cbf2f02089,6880d88e126716178738b784,,,,,,,,,,,,,67,0,,./stim/wavs/puertorican_match_declarative-broad-focus_Manuela-vende-el-carro.wav,,,,,,,,,,,,,,,,,,,,,,331.3137,333.4632,0,1,1.6183,,0,49,49,66,1,0,puertorican,,,,,,,,,,,,,,,,,,,,,,,,,,,,,,,,,,,,,,,,,,,,,,,,,,,,,,,,
,,,,,,,,,651d623cbdcb675cb801bc79,Spanish,13 or older,"no, only English or Spanish",no,2025-07-23_08h43.28.390,empathy_intonation_perc,2024.2.4,Win32,59.88023952,651d623cbdcb675cb801bc79,687ed1b7e638a4cbf2f02089,6880d88e126716178738b784,,,,,,,,,,,,,85,0,,./stim/wavs/puertorican_mismatch_declarative-broad-focus_El-hombre-mira-la-luna.wav,,,,,,,,,,,,,,,,,,,,,,333.4636,335.5633,0,1,1.572,,0,50,50,84,1,0,puertorican,,,,,,,,,,,,,,,,,,,,,,,,,,,,,,,,,,,,,,,,,,,,,,,,,,,,,,,,
,,,,,,,,,651d623cbdcb675cb801bc79,Spanish,13 or older,"no, only English or Spanish",no,2025-07-23_08h43.28.390,empathy_intonation_perc,2024.2.4,Win32,59.88023952,651d623cbdcb675cb801bc79,687ed1b7e638a4cbf2f02089,6880d88e126716178738b784,,,,,,,,,,,,,49,0,,./stim/wavs/castilian_match_declarative-broad-focus_Mariano-habla-del-tiempo.wav,,,,,,,,,,,,,,,,,,,,,,335.5637,338.0134,0,1,1.9178,,0,51,51,48,1,0,castilian,,,,,,,,,,,,,,,,,,,,,,,,,,,,,,,,,,,,,,,,,,,,,,,,,,,,,,,,
,,,,,,,,,651d623cbdcb675cb801bc79,Spanish,13 or older,"no, only English or Spanish",no,2025-07-23_08h43.28.390,empathy_intonation_perc,2024.2.4,Win32,59.88023952,651d623cbdcb675cb801bc79,687ed1b7e638a4cbf2f02089,6880d88e126716178738b784,,,,,,,,,,,,,33,1,,./stim/wavs/cuban_mismatch_interrogative-total-yn_Mi-novio-viene-del-lago.wav,,,,,,,,,,,,,,,,,,,,,,338.0138,340.4967,0,0,1.9504,,0,52,52,32,1,1,cuban,,,,,,,,,,,,,,,,,,,,,,,,,,,,,,,,,,,,,,,,,,,,,,,,,,,,,,,,
,,,,,,,,,651d623cbdcb675cb801bc79,Spanish,13 or older,"no, only English or Spanish",no,2025-07-23_08h43.28.390,empathy_intonation_perc,2024.2.4,Win32,59.88023952,651d623cbdcb675cb801bc79,687ed1b7e638a4cbf2f02089,6880d88e126716178738b784,,,,,,,,,,,,,41,1,,./stim/wavs/puertorican_mismatch_interrogative-total-yn_El-nino-oye-el-rio.wav,,,,,,,,,,,,,,,,,,,,,,340.4972,342.7802,0,0,1.7546,,0,53,53,40,1,1,puertorican,,,,,,,,,,,,,,,,,,,,,,,,,,,,,,,,,,,,,,,,,,,,,,,,,,,,,,,,
,,,,,,,,,651d623cbdcb675cb801bc79,Spanish,13 or older,"no, only English or Spanish",no,2025-07-23_08h43.28.390,empathy_intonation_perc,2024.2.4,Win32,59.88023952,651d623cbdcb675cb801bc79,687ed1b7e638a4cbf2f02089,6880d88e126716178738b784,,,,,,,,,,,,,71,0,,./stim/wavs/castilian_mismatch_declarative-broad-focus_La-nina-lava-el-plato.wav,,,,,,,,,,,,,,,,,,,,,,342.7806,344.9637,1,0,1.6555,,0,54,54,70,1,0,castilian,,,,,,,,,,,,,,,,,,,,,,,,,,,,,,,,,,,,,,,,,,,,,,,,,,,,,,,,
,,,,,,,,,651d623cbdcb675cb801bc79,Spanish,13 or older,"no, only English or Spanish",no,2025-07-23_08h43.28.390,empathy_intonation_perc,2024.2.4,Win32,59.88023952,651d623cbdcb675cb801bc79,687ed1b7e638a4cbf2f02089,6880d88e126716178738b784,,,,,,,,,,,,,42,1,,./stim/wavs/puertorican_mismatch_interrogative-total-yn_La-maestra-vive-en-Paris.wav,,,,,,,,,,,,,,,,,,,,,,344.9641,347.3137,1,1,1.8239,,0,55,55,41,1,1,puertorican,,,,,,,,,,,,,,,,,,,,,,,,,,,,,,,,,,,,,,,,,,,,,,,,,,,,,,,,
,,,,,,,,,651d623cbdcb675cb801bc79,Spanish,13 or older,"no, only English or Spanish",no,2025-07-23_08h43.28.390,empathy_intonation_perc,2024.2.4,Win32,59.88023952,651d623cbdcb675cb801bc79,687ed1b7e638a4cbf2f02089,6880d88e126716178738b784,,,,,,,,,,,,,43,1,,./stim/wavs/puertorican_mismatch_interrogative-total-yn_La-nina-lava-el-plato.wav,,,,,,,,,,,,,,,,,,,,,,347.3141,349.6639,0,0,1.8177,,0,56,56,42,1,1,puertorican,,,,,,,,,,,,,,,,,,,,,,,,,,,,,,,,,,,,,,,,,,,,,,,,,,,,,,,,
,,,,,,,,,651d623cbdcb675cb801bc79,Spanish,13 or older,"no, only English or Spanish",no,2025-07-23_08h43.28.390,empathy_intonation_perc,2024.2.4,Win32,59.88023952,651d623cbdcb675cb801bc79,687ed1b7e638a4cbf2f02089,6880d88e126716178738b784,,,,,,,,,,,,,4,1,,./stim/wavs/castilian_match_interrogative-total-yn_Maria-bebe-el-vino.wav,,,,,,,,,,,,,,,,,,,,,,349.6642,352.0971,0,0,1.9001,,0,57,57,3,1,0,castilian,,,,,,,,,,,,,,,,,,,,,,,,,,,,,,,,,,,,,,,,,,,,,,,,,,,,,,,,
,,,,,,,,,651d623cbdcb675cb801bc79,Spanish,13 or older,"no, only English or Spanish",no,2025-07-23_08h43.28.390,empathy_intonation_perc,2024.2.4,Win32,59.88023952,651d623cbdcb675cb801bc79,687ed1b7e638a4cbf2f02089,6880d88e126716178738b784,,,,,,,,,,,,,80,0,,./stim/wavs/mexican_mismatch_declarative-broad-focus_El-hombre-mira-la-luna.wav,,,,,,,,,,,,,,,,,,,,,,352.0974,354.4305,0,1,1.8106,,0,58,58,79,1,0,mexican,,,,,,,,,,,,,,,,,,,,,,,,,,,,,,,,,,,,,,,,,,,,,,,,,,,,,,,,
,,,,,,,,,651d623cbdcb675cb801bc79,Spanish,13 or older,"no, only English or Spanish",no,2025-07-23_08h43.28.390,empathy_intonation_perc,2024.2.4,Win32,59.88023952,651d623cbdcb675cb801bc79,687ed1b7e638a4cbf2f02089,6880d88e126716178738b784,,,,,,,,,,,,,11,1,,./stim/wavs/cuban_match_interrogative-total-yn_Mariano-habla-del-tiempo.wav,,,,,,,,,,,,,,,,,,,,,,354.4309,356.5477,0,0,1.5832,,0,59,59,10,1,1,cuban,,,,,,,,,,,,,,,,,,,,,,,,,,,,,,,,,,,,,,,,,,,,,,,,,,,,,,,,
,,,,,,,,,651d623cbdcb675cb801bc79,Spanish,13 or older,"no, only English or Spanish",no,2025-07-23_08h43.28.390,empathy_intonation_perc,2024.2.4,Win32,59.88023952,651d623cbdcb675cb801bc79,687ed1b7e638a4cbf2f02089,6880d88e126716178738b784,,,,,,,,,,,,,53,0,,./stim/wavs/cuban_match_declarative-broad-focus_Manuela-vende-el-carro.wav,,,,,,,,,,,,,,,,,,,,,,356.5481,358.814,0,1,1.744,,0,60,60,52,1,0,cuban,,,,,,,,,,,,,,,,,,,,,,,,,,,,,,,,,,,,,,,,,,,,,,,,,,,,,,,,
,,,,,,,,,651d623cbdcb675cb801bc79,Spanish,13 or older,"no, only English or Spanish",no,2025-07-23_08h43.28.390,empathy_intonation_perc,2024.2.4,Win32,59.88023952,651d623cbdcb675cb801bc79,687ed1b7e638a4cbf2f02089,6880d88e126716178738b784,,,,,,,,,,,,,18,1,,./stim/wavs/mexican_match_interrogative-total-yn_Marta-abre-el-regalo.wav,,,,,,,,,,,,,,,,,,,,,,358.8144,360.6807,1,1,1.3335,,0,61,61,17,1,0,mexican,,,,,,,,,,,,,,,,,,,,,,,,,,,,,,,,,,,,,,,,,,,,,,,,,,,,,,,,
,,,,,,,,,651d623cbdcb675cb801bc79,Spanish,13 or older,"no, only English or Spanish",no,2025-07-23_08h43.28.390,empathy_intonation_perc,2024.2.4,Win32,59.88023952,651d623cbdcb675cb801bc79,687ed1b7e638a4cbf2f02089,6880d88e126716178738b784,,,,,,,,,,,,,37,1,,./stim/wavs/mexican_mismatch_interrogative-total-yn_La-maestra-vive-en-Paris.wav,,,,,,,,,,,,,,,,,,,,,,360.6811,363.2143,0,0,2.0038,,0,62,62,36,1,0,mexican,,,,,,,,,,,,,,,,,,,,,,,,,,,,,,,,,,,,,,,,,,,,,,,,,,,,,,,,
,,,,,,,,,651d623cbdcb675cb801bc79,Spanish,13 or older,"no, only English or Spanish",no,2025-07-23_08h43.28.390,empathy_intonation_perc,2024.2.4,Win32,59.88023952,651d623cbdcb675cb801bc79,687ed1b7e638a4cbf2f02089,6880d88e126716178738b784,,,,,,,,,,,,,57,0,,./stim/wavs/mexican_match_declarative-broad-focus_Ana-lleva-el-abrigo.wav,,,,,,,,,,,,,,,,,,,,,,363.2148,365.5643,0,1,1.8213,,0,63,63,56,1,0,mexican,,,,,,,,,,,,,,,,,,,,,,,,,,,,,,,,,,,,,,,,,,,,,,,,,,,,,,,,
,,,,,,,,,651d623cbdcb675cb801bc79,Spanish,13 or older,"no, only English or Spanish",no,2025-07-23_08h43.28.390,empathy_intonation_perc,2024.2.4,Win32,59.88023952,651d623cbdcb675cb801bc79,687ed1b7e638a4cbf2f02089,6880d88e126716178738b784,,,,,,,,,,,,,87,0,,./stim/wavs/puertorican_mismatch_declarative-broad-focus_La-maestra-vive-en-Paris.wav,,,,,,,,,,,,,,,,,,,,,,365.5647,368.0644,0,1,1.9674,,0,64,64,86,1,0,puertorican,,,,,,,,,,,,,,,,,,,,,,,,,,,,,,,,,,,,,,,,,,,,,,,,,,,,,,,,
,,,,,,,,,651d623cbdcb675cb801bc79,Spanish,13 or older,"no, only English or Spanish",no,2025-07-23_08h43.28.390,empathy_intonation_perc,2024.2.4,Win32,59.88023952,651d623cbdcb675cb801bc79,687ed1b7e638a4cbf2f02089,6880d88e126716178738b784,,,,,,,,,,,,,19,1,,./stim/wavs/puertorican_match_interrogative-total-yn_Ana-lleva-el-abrigo.wav,,,,,,,,,,,,,,,,,,,,,,368.0648,370.0644,1,1,1.4754,,0,65,65,18,1,1,puertorican,,,,,,,,,,,,,,,,,,,,,,,,,,,,,,,,,,,,,,,,,,,,,,,,,,,,,,,,
,,,,,,,,,651d623cbdcb675cb801bc79,Spanish,13 or older,"no, only English or Spanish",no,2025-07-23_08h43.28.390,empathy_intonation_perc,2024.2.4,Win32,59.88023952,651d623cbdcb675cb801bc79,687ed1b7e638a4cbf2f02089,6880d88e126716178738b784,,,,,,,,,,,,,25,1,,./stim/wavs/castilian_mismatch_interrogative-total-yn_La-maestra-vive-en-Paris.wav,,,,,,,,,,,,,,,,,,,,,,370.0648,372.4312,1,1,1.835,,0,66,66,24,1,0,castilian,,,,,,,,,,,,,,,,,,,,,,,,,,,,,,,,,,,,,,,,,,,,,,,,,,,,,,,,
,,,,,,,,,651d623cbdcb675cb801bc79,Spanish,13 or older,"no, only English or Spanish",no,2025-07-23_08h43.28.390,empathy_intonation_perc,2024.2.4,Win32,59.88023952,651d623cbdcb675cb801bc79,687ed1b7e638a4cbf2f02089,6880d88e126716178738b784,,,,,,,,,,,,,45,0,,./stim/wavs/castilian_match_declarative-broad-focus_David-leia-el-libro.wav,,,,,,,,,,,,,,,,,,,,,,372.4315,374.7979,0,1,1.8444,,0,67,67,44,1,0,castilian,,,,,,,,,,,,,,,,,,,,,,,,,,,,,,,,,,,,,,,,,,,,,,,,,,,,,,,,
,,,,,,,,,651d623cbdcb675cb801bc79,Spanish,13 or older,"no, only English or Spanish",no,2025-07-23_08h43.28.390,empathy_intonation_perc,2024.2.4,Win32,59.88023952,651d623cbdcb675cb801bc79,687ed1b7e638a4cbf2f02089,6880d88e126716178738b784,,,,,,,,,,,,,50,0,,./stim/wavs/castilian_match_declarative-broad-focus_Marta-abre-el-regalo.wav,,,,,,,,,,,,,,,,,,,,,,374.7984,376.3649,0,1,1.0447,,0,68,68,49,1,0,castilian,,,,,,,,,,,,,,,,,,,,,,,,,,,,,,,,,,,,,,,,,,,,,,,,,,,,,,,,
,,,,,,,,,651d623cbdcb675cb801bc79,Spanish,13 or older,"no, only English or Spanish",no,2025-07-23_08h43.28.390,empathy_intonation_perc,2024.2.4,Win32,59.88023952,651d623cbdcb675cb801bc79,687ed1b7e638a4cbf2f02089,6880d88e126716178738b784,,,,,,,,,,,,,39,1,,./stim/wavs/mexican_mismatch_interrogative-total-yn_Mi-tia-odia-la-lluvia.wav,,,,,,,,,,,,,,,,,,,,,,376.3654,379.0646,1,1,2.1747,,0,69,69,38,1,0,mexican,,,,,,,,,,,,,,,,,,,,,,,,,,,,,,,,,,,,,,,,,,,,,,,,,,,,,,,,
,,,,,,,,,651d623cbdcb675cb801bc79,Spanish,13 or older,"no, only English or Spanish",no,2025-07-23_08h43.28.390,empathy_intonation_perc,2024.2.4,Win32,59.88023952,651d623cbdcb675cb801bc79,687ed1b7e638a4cbf2f02089,6880d88e126716178738b784,,,,,,,,,,,,,44,1,,./stim/wavs/puertorican_mismatch_interrogative-total-yn_Mi-madre-come-la-fruta.wav,,,,,,,,,,,,,,,,,,,,,,379.0651,381.515,0,0,1.9176,,0,70,70,43,1,1,puertorican,,,,,,,,,,,,,,,,,,,,,,,,,,,,,,,,,,,,,,,,,,,,,,,,,,,,,,,,
,,,,,,,,,651d623cbdcb675cb801bc79,Spanish,13 or older,"no, only English or Spanish",no,2025-07-23_08h43.28.390,empathy_intonation_perc,2024.2.4,Win32,59.88023952,651d623cbdcb675cb801bc79,687ed1b7e638a4cbf2f02089,6880d88e126716178738b784,,,,,,,,,,,,,46,0,,./stim/wavs/castilian_match_declarative-broad-focus_Emilio-ama-la-marcha.wav,,,,,,,,,,,,,,,,,,,,,,381.5154,383.9815,0,1,1.9367,,0,71,71,45,1,0,castilian,,,,,,,,,,,,,,,,,,,,,,,,,,,,,,,,,,,,,,,,,,,,,,,,,,,,,,,,
,,,,,,,,,651d623cbdcb675cb801bc79,Spanish,13 or older,"no, only English or Spanish",no,2025-07-23_08h43.28.390,empathy_intonation_perc,2024.2.4,Win32,59.88023952,651d623cbdcb675cb801bc79,687ed1b7e638a4cbf2f02089,6880d88e126716178738b784,,,,,,,,,,,,,58,0,,./stim/wavs/mexican_match_declarative-broad-focus_Daniel-iba-a-Bolivia.wav,,,,,,,,,,,,,,,,,,,,,,383.982,386.5649,0,1,2.0504,,0,72,72,57,1,0,mexican,,,,,,,,,,,,,,,,,,,,,,,,,,,,,,,,,,,,,,,,,,,,,,,,,,,,,,,,
,,,,,,,,,651d623cbdcb675cb801bc79,Spanish,13 or older,"no, only English or Spanish",no,2025-07-23_08h43.28.390,empathy_intonation_perc,2024.2.4,Win32,59.88023952,651d623cbdcb675cb801bc79,687ed1b7e638a4cbf2f02089,6880d88e126716178738b784,,,,,,,,,,,,,54,0,,./stim/wavs/cuban_match_declarative-broad-focus_Maria-bebe-el-vino.wav,,,,,,,,,,,,,,,,,,,,,,386.5653,388.7651,0,1,1.6672,,0,73,73,53,1,0,cuban,,,,,,,,,,,,,,,,,,,,,,,,,,,,,,,,,,,,,,,,,,,,,,,,,,,,,,,,
,,,,,,,,,651d623cbdcb675cb801bc79,Spanish,13 or older,"no, only English or Spanish",no,2025-07-23_08h43.28.390,empathy_intonation_perc,2024.2.4,Win32,59.88023952,651d623cbdcb675cb801bc79,687ed1b7e638a4cbf2f02089,6880d88e126716178738b784,,,,,,,,,,,,,73,0,,./stim/wavs/castilian_mismatch_declarative-broad-focus_Mi-tia-odia-la-lluvia.wav,,,,,,,,,,,,,,,,,,,,,,388.7654,391.1651,0,1,1.8673,,0,74,74,72,1,0,castilian,,,,,,,,,,,,,,,,,,,,,,,,,,,,,,,,,,,,,,,,,,,,,,,,,,,,,,,,
,,,,,,,,,651d623cbdcb675cb801bc79,Spanish,13 or older,"no, only English or Spanish",no,2025-07-23_08h43.28.390,empathy_intonation_perc,2024.2.4,Win32,59.88023952,651d623cbdcb675cb801bc79,687ed1b7e638a4cbf2f02089,6880d88e126716178738b784,,,,,,,,,,,,,23,1,,./stim/wavs/puertorican_match_interrogative-total-yn_Manuela-vende-el-carro.wav,,,,,,,,,,,,,,,,,,,,,,391.1655,393.2151,0,0,1.5183,,0,75,75,22,1,1,puertorican,,,,,,,,,,,,,,,,,,,,,,,,,,,,,,,,,,,,,,,,,,,,,,,,,,,,,,,,
,,,,,,,,,651d623cbdcb675cb801bc79,Spanish,13 or older,"no, only English or Spanish",no,2025-07-23_08h43.28.390,empathy_intonation_perc,2024.2.4,Win32,59.88023952,651d623cbdcb675cb801bc79,687ed1b7e638a4cbf2f02089,6880d88e126716178738b784,,,,,,,,,,,,,84,0,,./stim/wavs/puertorican_mismatch_declarative-broad-focus_El-bebe-comia-muy-bien.wav,,,,,,,,,,,,,,,,,,,,,,393.2156,395.3155,0,1,1.5721,,0,76,76,83,1,0,puertorican,,,,,,,,,,,,,,,,,,,,,,,,,,,,,,,,,,,,,,,,,,,,,,,,,,,,,,,,
,,,,,,,,,651d623cbdcb675cb801bc79,Spanish,13 or older,"no, only English or Spanish",no,2025-07-23_08h43.28.390,empathy_intonation_perc,2024.2.4,Win32,59.88023952,651d623cbdcb675cb801bc79,687ed1b7e638a4cbf2f02089,6880d88e126716178738b784,,,,,,,,,,,,,2,1,,./stim/wavs/castilian_match_interrogative-total-yn_Emilio-ama-la-marcha.wav,,,,,,,,,,,,,,,,,,,,,,395.3159,397.5322,1,1,1.6834,,0,77,77,1,1,0,castilian,,,,,,,,,,,,,,,,,,,,,,,,,,,,,,,,,,,,,,,,,,,,,,,,,,,,,,,,
,,,,,,,,,651d623cbdcb675cb801bc79,Spanish,13 or older,"no, only English or Spanish",no,2025-07-23_08h43.28.390,empathy_intonation_perc,2024.2.4,Win32,59.88023952,651d623cbdcb675cb801bc79,687ed1b7e638a4cbf2f02089,6880d88e126716178738b784,,,,,,,,,,,,,24,1,,./stim/wavs/puertorican_match_interrogative-total-yn_Maria-bebe-el-vino.wav,,,,,,,,,,,,,,,,,,,,,,397.5326,399.5654,0,0,1.5115,,0,78,78,23,1,1,puertorican,,,,,,,,,,,,,,,,,,,,,,,,,,,,,,,,,,,,,,,,,,,,,,,,,,,,,,,,
,,,,,,,,,651d623cbdcb675cb801bc79,Spanish,13 or older,"no, only English or Spanish",no,2025-07-23_08h43.28.390,empathy_intonation_perc,2024.2.4,Win32,59.88023952,651d623cbdcb675cb801bc79,687ed1b7e638a4cbf2f02089,6880d88e126716178738b784,,,,,,,,,,,,,32,1,,./stim/wavs/cuban_mismatch_interrogative-total-yn_Mi-madre-come-la-fruta.wav,,,,,,,,,,,,,,,,,,,,,,399.5658,402.0822,0,0,1.9837,,0,79,79,31,1,1,cuban,,,,,,,,,,,,,,,,,,,,,,,,,,,,,,,,,,,,,,,,,,,,,,,,,,,,,,,,
,,,,,,,,,651d623cbdcb675cb801bc79,Spanish,13 or older,"no, only English or Spanish",no,2025-07-23_08h43.28.390,empathy_intonation_perc,2024.2.4,Win32,59.88023952,651d623cbdcb675cb801bc79,687ed1b7e638a4cbf2f02089,6880d88e126716178738b784,,,,,,,,,,,,,21,1,,./stim/wavs/puertorican_match_interrogative-total-yn_David-leia-el-libro.wav,,,,,,,,,,,,,,,,,,,,,,402.0828,404.0155,0,0,1.4014,,0,80,80,20,1,1,puertorican,,,,,,,,,,,,,,,,,,,,,,,,,,,,,,,,,,,,,,,,,,,,,,,,,,,,,,,,
,,,,,,,,,651d623cbdcb675cb801bc79,Spanish,13 or older,"no, only English or Spanish",no,2025-07-23_08h43.28.390,empathy_intonation_perc,2024.2.4,Win32,59.88023952,651d623cbdcb675cb801bc79,687ed1b7e638a4cbf2f02089,6880d88e126716178738b784,,,,,,,,,,,,,68,0,,./stim/wavs/puertorican_match_declarative-broad-focus_Maria-bebe-el-vino.wav,,,,,,,,,,,,,,,,,,,,,,404.0159,406.3824,0,1,1.8441,,0,81,81,67,1,0,puertorican,,,,,,,,,,,,,,,,,,,,,,,,,,,,,,,,,,,,,,,,,,,,,,,,,,,,,,,,
,,,,,,,,,651d623cbdcb675cb801bc79,Spanish,13 or older,"no, only English or Spanish",no,2025-07-23_08h43.28.390,empathy_intonation_perc,2024.2.4,Win32,59.88023952,651d623cbdcb675cb801bc79,687ed1b7e638a4cbf2f02089,6880d88e126716178738b784,,,,,,,,,,,,,15,1,,./stim/wavs/mexican_match_interrogative-total-yn_David-leia-el-libro.wav,,,,,,,,,,,,,,,,,,,,,,406.3829,409.1824,1,1,2.2691,,0,82,82,14,1,0,mexican,,,,,,,,,,,,,,,,,,,,,,,,,,,,,,,,,,,,,,,,,,,,,,,,,,,,,,,,
,,,,,,,,,651d623cbdcb675cb801bc79,Spanish,13 or older,"no, only English or Spanish",no,2025-07-23_08h43.28.390,empathy_intonation_perc,2024.2.4,Win32,59.88023952,651d623cbdcb675cb801bc79,687ed1b7e638a4cbf2f02089,6880d88e126716178738b784,,,,,,,,,,,,,1,1,,./stim/wavs/castilian_match_interrogative-total-yn_David-leia-el-libro.wav,,,,,,,,,,,,,,,,,,,,,,409.1828,411.0992,1,1,1.3881,,0,83,83,0,1,0,castilian,,,,,,,,,,,,,,,,,,,,,,,,,,,,,,,,,,,,,,,,,,,,,,,,,,,,,,,,
,,,,,,,,,651d623cbdcb675cb801bc79,Spanish,13 or older,"no, only English or Spanish",no,2025-07-23_08h43.28.390,empathy_intonation_perc,2024.2.4,Win32,59.88023952,651d623cbdcb675cb801bc79,687ed1b7e638a4cbf2f02089,6880d88e126716178738b784,,,,,,,,,,,,,12,1,,./stim/wavs/cuban_match_interrogative-total-yn_Marta-abre-el-regalo.wav,,,,,,,,,,,,,,,,,,,,,,411.0998,413.8492,0,0,2.2243,,0,84,84,11,1,1,cuban,,,,,,,,,,,,,,,,,,,,,,,,,,,,,,,,,,,,,,,,,,,,,,,,,,,,,,,,
,,,,,,,,,651d623cbdcb675cb801bc79,Spanish,13 or older,"no, only English or Spanish",no,2025-07-23_08h43.28.390,empathy_intonation_perc,2024.2.4,Win32,59.88023952,651d623cbdcb675cb801bc79,687ed1b7e638a4cbf2f02089,6880d88e126716178738b784,,,,,,,,,,,,,63,0,,./stim/wavs/puertorican_match_declarative-broad-focus_Ana-lleva-el-abrigo.wav,,,,,,,,,,,,,,,,,,,,,,413.8496,416.0494,0,1,1.6662,,0,85,85,62,1,0,puertorican,,,,,,,,,,,,,,,,,,,,,,,,,,,,,,,,,,,,,,,,,,,,,,,,,,,,,,,,
,,,,,,,,,651d623cbdcb675cb801bc79,Spanish,13 or older,"no, only English or Spanish",no,2025-07-23_08h43.28.390,empathy_intonation_perc,2024.2.4,Win32,59.88023952,651d623cbdcb675cb801bc79,687ed1b7e638a4cbf2f02089,6880d88e126716178738b784,,,,,,,,,,,,,52,0,,./stim/wavs/cuban_match_declarative-broad-focus_Daniel-iba-a-Bolivia.wav,,,,,,,,,,,,,,,,,,,,,,416.0498,418.7827,0,1,2.2019,,0,86,86,51,1,0,cuban,,,,,,,,,,,,,,,,,,,,,,,,,,,,,,,,,,,,,,,,,,,,,,,,,,,,,,,,
,,,,,,,,,651d623cbdcb675cb801bc79,Spanish,13 or older,"no, only English or Spanish",no,2025-07-23_08h43.28.390,empathy_intonation_perc,2024.2.4,Win32,59.88023952,651d623cbdcb675cb801bc79,687ed1b7e638a4cbf2f02089,6880d88e126716178738b784,,,,,,,,,,,,,82,0,,./stim/wavs/mexican_mismatch_declarative-broad-focus_Mi-novio-viene-del-lago.wav,,,,,,,,,,,,,,,,,,,,,,418.7831,420.8163,0,1,1.5007,,0,87,87,81,1,0,mexican,,,,,,,,,,,,,,,,,,,,,,,,,,,,,,,,,,,,,,,,,,,,,,,,,,,,,,,,
,,,,,,,"Great! Now we will move on. The next task consists of about 60 trials, in each of which you will see a string of letters. 
  
  Your task is to decide whether this is a real Spanish word or not.", (press the spacebar to continue),651d623cbdcb675cb801bc79,Spanish,13 or older,"no, only English or Spanish",no,2025-07-23_08h43.28.390,empathy_intonation_perc,2024.2.4,Win32,59.88023952,651d623cbdcb675cb801bc79,687ed1b7e638a4cbf2f02089,6880d88e126716178738b784,,,,,,,,,,,,,,,,,,,,,,,,,,,,,,,,,,,,,,,,,,,,,,,,,,,420.821,427.2499,0,0,0,0,1,,,,,,,,,,,,,,,,,,,,,,,,,,,,,,,,,,,,,,,,,,,,,,,,,
,,,,,,,"If you think it is an existing Spanish word, you type '1' (for 'REAL'), and if you think it is not an existing Spanish word, you type '0' (for 'FAKE').", (press the spacebar to continue),651d623cbdcb675cb801bc79,Spanish,13 or older,"no, only English or Spanish",no,2025-07-23_08h43.28.390,empathy_intonation_perc,2024.2.4,Win32,59.88023952,651d623cbdcb675cb801bc79,687ed1b7e638a4cbf2f02089,6880d88e126716178738b784,,,,,,,,,,,,,,,,,,,,,,,,,,,,,,,,,,,,,,,,,,,,,,,,,,,427.2516,428.783,0,1,1,1,1,,,,,,,,,,,,,,,,,,,,,,,,,,,,,,,,,,,,,,,,,,,,,,,,,
,,,,,,,"If you are sure that the word exists, even though you don’t know its exact meaning, you may still respond '1' (REAL). 
  
  But if you are not sure if it is an existing word, you should respond '0' (FAKE).
  
  Let's do a practice round...", (press the spacebar to continue),651d623cbdcb675cb801bc79,Spanish,13 or older,"no, only English or Spanish",no,2025-07-23_08h43.28.390,empathy_intonation_perc,2024.2.4,Win32,59.88023952,651d623cbdcb675cb801bc79,687ed1b7e638a4cbf2f02089,6880d88e126716178738b784,,,,,,,,,,,,,,,,,,,,,,,,,,,,,,,,,,,,,,,,,,,,,,,,,,,428.7847,435.5333,0,2,2,2,1,,,,,,,,,,,,,,,,,,,,,,,,,,,,,,,,,,,,,,,,,,,,,,,,,
,,,,,,,,,651d623cbdcb675cb801bc79,Spanish,13 or older,"no, only English or Spanish",no,2025-07-23_08h43.28.390,empathy_intonation_perc,2024.2.4,Win32,59.88023952,651d623cbdcb675cb801bc79,687ed1b7e638a4cbf2f02089,6880d88e126716178738b784,,,,,,,,,,,,,,0,,,,,,,,,,,,,,,,,,,,,,,,,,,,,,,,,,,,,,,,,,,,435.5379,437.7002,1,0,1.6304,,437.7003,438.7005,0,0,0,0,1,0,depiste,REAL,FAKE,,,,,,,,,,,,,,,,,,,,,,,,,,,,,,,,
,,,,,,,,,651d623cbdcb675cb801bc79,Spanish,13 or older,"no, only English or Spanish",no,2025-07-23_08h43.28.390,empathy_intonation_perc,2024.2.4,Win32,59.88023952,651d623cbdcb675cb801bc79,687ed1b7e638a4cbf2f02089,6880d88e126716178738b784,,,,,,,,,,,,,,1,,,,,,,,,,,,,,,,,,,,,,,,,,,,,,,,,,,,,,,,,,,,438.702,440.0501,1,1,0.8134,,440.0506,441.0501,0,1,1,1,1,0,sí,REAL,FAKE,,,,,,,,,,,,,,,,,,,,,,,,,,,,,,,,
,,,,,,,,,651d623cbdcb675cb801bc79,Spanish,13 or older,"no, only English or Spanish",no,2025-07-23_08h43.28.390,empathy_intonation_perc,2024.2.4,Win32,59.88023952,651d623cbdcb675cb801bc79,687ed1b7e638a4cbf2f02089,6880d88e126716178738b784,,,,,,,,,,,,,,0,,,,,,,,,,,,,,,,,,,,,,,,,,,,,,,,,,,,,,,,,,,,441.0513,442.317,0,1,0.741,,442.3171,443.3169,0,2,2,2,1,0,coné,REAL,FAKE,,,,,,,,,,,,,,,,,,,,,,,,,,,,,,,,
,,,,,,,,,651d623cbdcb675cb801bc79,Spanish,13 or older,"no, only English or Spanish",no,2025-07-23_08h43.28.390,empathy_intonation_perc,2024.2.4,Win32,59.88023952,651d623cbdcb675cb801bc79,687ed1b7e638a4cbf2f02089,6880d88e126716178738b784,,,,,,,,,,,,,,0,,,,,,,,,,,,,,,,,,,,,,,,,,,,,,,,,,,,,,,,,,,,443.3177,444.8337,0,1,0.9872,,444.8337,445.8339,0,3,3,3,1,0,calpar,REAL,FAKE,,,,,,,,,,,,,,,,,,,,,,,,,,,,,,,,
,,,,,,,,,651d623cbdcb675cb801bc79,Spanish,13 or older,"no, only English or Spanish",no,2025-07-23_08h43.28.390,empathy_intonation_perc,2024.2.4,Win32,59.88023952,651d623cbdcb675cb801bc79,687ed1b7e638a4cbf2f02089,6880d88e126716178738b784,,,,,,,,,,,,,,0,,,,,,,,,,,,,,,,,,,,,,,,,,,,,,,,,,,,,,,,,,,,445.8349,447.0337,0,1,0.6701,,447.0337,448.0337,0,4,4,4,1,0,joten,REAL,FAKE,,,,,,,,,,,,,,,,,,,,,,,,,,,,,,,,
,,,,,,,,,651d623cbdcb675cb801bc79,Spanish,13 or older,"no, only English or Spanish",no,2025-07-23_08h43.28.390,empathy_intonation_perc,2024.2.4,Win32,59.88023952,651d623cbdcb675cb801bc79,687ed1b7e638a4cbf2f02089,6880d88e126716178738b784,,,,,,,,,,,,,,1,,,,,,,,,,,,,,,,,,,,,,,,,,,,,,,,,,,,,,,,,,,,448.0344,449.9338,0,0,1.3741,,449.9343,450.934,0,5,5,5,1,0,sacapuntas,REAL,FAKE,,,,,,,,,,,,,,,,,,,,,,,,,,,,,,,,
,,,,,,,,,651d623cbdcb675cb801bc79,Spanish,13 or older,"no, only English or Spanish",no,2025-07-23_08h43.28.390,empathy_intonation_perc,2024.2.4,Win32,59.88023952,651d623cbdcb675cb801bc79,687ed1b7e638a4cbf2f02089,6880d88e126716178738b784,,,,,,,,,,,,,,0,,,,,,,,,,,,,,,,,,,,,,,,,,,,,,,,,,,,,,,,,,,,450.9354,452.4507,0,1,0.9854,,452.4514,453.4508,0,6,6,6,1,0,priba,REAL,FAKE,,,,,,,,,,,,,,,,,,,,,,,,,,,,,,,,
,,,,,,,,,651d623cbdcb675cb801bc79,Spanish,13 or older,"no, only English or Spanish",no,2025-07-23_08h43.28.390,empathy_intonation_perc,2024.2.4,Win32,59.88023952,651d623cbdcb675cb801bc79,687ed1b7e638a4cbf2f02089,6880d88e126716178738b784,,,,,,,,,,,,,,0,,,,,,,,,,,,,,,,,,,,,,,,,,,,,,,,,,,,,,,,,,,,453.4514,454.9005,1,0,0.9162,,454.9011,455.9006,0,7,7,7,1,0,pelasula,REAL,FAKE,,,,,,,,,,,,,,,,,,,,,,,,,,,,,,,,
,,,,,,,,,651d623cbdcb675cb801bc79,Spanish,13 or older,"no, only English or Spanish",no,2025-07-23_08h43.28.390,empathy_intonation_perc,2024.2.4,Win32,59.88023952,651d623cbdcb675cb801bc79,687ed1b7e638a4cbf2f02089,6880d88e126716178738b784,,,,,,,,,,,,,,1,,,,,,,,,,,,,,,,,,,,,,,,,,,,,,,,,,,,,,,,,,,,455.9014,457.0676,1,1,0.6298,,457.0683,458.0675,0,8,8,8,1,0,bien,REAL,FAKE,,,,,,,,,,,,,,,,,,,,,,,,,,,,,,,,
,,,,,,,,,651d623cbdcb675cb801bc79,Spanish,13 or older,"no, only English or Spanish",no,2025-07-23_08h43.28.390,empathy_intonation_perc,2024.2.4,Win32,59.88023952,651d623cbdcb675cb801bc79,687ed1b7e638a4cbf2f02089,6880d88e126716178738b784,,,,,,,,,,,,,,1,,,,,,,,,,,,,,,,,,,,,,,,,,,,,,,,,,,,,,,,,,,,458.0688,459.2676,1,1,0.664,,459.2677,460.2673,0,9,9,9,1,0,casa,REAL,FAKE,,,,,,,,,,,,,,,,,,,,,,,,,,,,,,,,
,,,,,,,,,651d623cbdcb675cb801bc79,Spanish,13 or older,"no, only English or Spanish",no,2025-07-23_08h43.28.390,empathy_intonation_perc,2024.2.4,Win32,59.88023952,651d623cbdcb675cb801bc79,687ed1b7e638a4cbf2f02089,6880d88e126716178738b784,,,,,,,,,,,,,,0,,,,,,,,,,,,,,,,,,,,,,,,,,,,,,,,,,,,,,,,,,,,460.2681,461.7007,0,1,0.8966,,461.7008,462.7008,0,10,10,10,1,0,lejo,REAL,FAKE,,,,,,,,,,,,,,,,,,,,,,,,,,,,,,,,
,,,,,,,,,651d623cbdcb675cb801bc79,Spanish,13 or older,"no, only English or Spanish",no,2025-07-23_08h43.28.390,empathy_intonation_perc,2024.2.4,Win32,59.88023952,651d623cbdcb675cb801bc79,687ed1b7e638a4cbf2f02089,6880d88e126716178738b784,,,,,,,,,,,,,,0,,,,,,,,,,,,,,,,,,,,,,,,,,,,,,,,,,,,,,,,,,,,462.7016,464.1009,0,1,0.8793,,464.1009,465.1012,0,11,11,11,1,0,pretantas,REAL,FAKE,,,,,,,,,,,,,,,,,,,,,,,,,,,,,,,,
,,,,,,,,,651d623cbdcb675cb801bc79,Spanish,13 or older,"no, only English or Spanish",no,2025-07-23_08h43.28.390,empathy_intonation_perc,2024.2.4,Win32,59.88023952,651d623cbdcb675cb801bc79,687ed1b7e638a4cbf2f02089,6880d88e126716178738b784,,,,,,,,,,,,,,,,,,,,,,,,,,,,,,,,,,,,,,,,,,,,,,,,,,,,,,,,,,,,,,,,,,,,,,,,,,,465.1016,466.2682,,,,,,,,,,,,,,,,,,,,,,,,,,,,,,
,,,,,,,,,651d623cbdcb675cb801bc79,Spanish,13 or older,"no, only English or Spanish",no,2025-07-23_08h43.28.390,empathy_intonation_perc,2024.2.4,Win32,59.88023952,651d623cbdcb675cb801bc79,687ed1b7e638a4cbf2f02089,6880d88e126716178738b784,,,,,,,,,,,,,,1,,,,,,,,,,,,,,,,,,,,,,,,,,,,,,,,,,,,,,,,,,,,,,,,,,,,,,,,,49,ganar,,,,,466.2756,467.1348,1,1,0.3329,,0,0,0,48,1,REAL,FAKE,,,,,,,,,,,,,,,,,
,,,,,,,,,651d623cbdcb675cb801bc79,Spanish,13 or older,"no, only English or Spanish",no,2025-07-23_08h43.28.390,empathy_intonation_perc,2024.2.4,Win32,59.88023952,651d623cbdcb675cb801bc79,687ed1b7e638a4cbf2f02089,6880d88e126716178738b784,,,,,,,,,,,,,,1,,,,,,,,,,,,,,,,,,,,,,,,,,,,,,,,,,,,,,,,,,,,,,,,,,,,,,,,,14,yunque,,,,,467.1359,468.801,1,1,1.1308,,0,1,1,13,1,REAL,FAKE,,,,,,,,,,,,,,,,,
,,,,,,,,,651d623cbdcb675cb801bc79,Spanish,13 or older,"no, only English or Spanish",no,2025-07-23_08h43.28.390,empathy_intonation_perc,2024.2.4,Win32,59.88023952,651d623cbdcb675cb801bc79,687ed1b7e638a4cbf2f02089,6880d88e126716178738b784,,,,,,,,,,,,,,0,,,,,,,,,,,,,,,,,,,,,,,,,,,,,,,,,,,,,,,,,,,,,,,,,,,,,,,,,82,empirador,,,,,468.8016,470.4681,1,0,1.1341,,0,2,2,81,1,REAL,FAKE,,,,,,,,,,,,,,,,,
,,,,,,,,,651d623cbdcb675cb801bc79,Spanish,13 or older,"no, only English or Spanish",no,2025-07-23_08h43.28.390,empathy_intonation_perc,2024.2.4,Win32,59.88023952,651d623cbdcb675cb801bc79,687ed1b7e638a4cbf2f02089,6880d88e126716178738b784,,,,,,,,,,,,,,1,,,,,,,,,,,,,,,,,,,,,,,,,,,,,,,,,,,,,,,,,,,,,,,,,,,,,,,,,56,musgo,,,,,470.4693,471.6677,0,0,0.6681,,0,3,3,55,1,REAL,FAKE,,,,,,,,,,,,,,,,,
,,,,,,,,,651d623cbdcb675cb801bc79,Spanish,13 or older,"no, only English or Spanish",no,2025-07-23_08h43.28.390,empathy_intonation_perc,2024.2.4,Win32,59.88023952,651d623cbdcb675cb801bc79,687ed1b7e638a4cbf2f02089,6880d88e126716178738b784,,,,,,,,,,,,,,1,,,,,,,,,,,,,,,,,,,,,,,,,,,,,,,,,,,,,,,,,,,,,,,,,,,,,,,,,12,asesinato,,,,,471.6685,473.6181,1,1,1.42,,0,4,4,11,1,REAL,FAKE,,,,,,,,,,,,,,,,,
,,,,,,,,,651d623cbdcb675cb801bc79,Spanish,13 or older,"no, only English or Spanish",no,2025-07-23_08h43.28.390,empathy_intonation_perc,2024.2.4,Win32,59.88023952,651d623cbdcb675cb801bc79,687ed1b7e638a4cbf2f02089,6880d88e126716178738b784,,,,,,,,,,,,,,1,,,,,,,,,,,,,,,,,,,,,,,,,,,,,,,,,,,,,,,,,,,,,,,,,,,,,,,,,85,laúd,,,,,473.6197,475.1349,0,0,0.9821,,0,5,5,84,1,REAL,FAKE,,,,,,,,,,,,,,,,,
,,,,,,,,,651d623cbdcb675cb801bc79,Spanish,13 or older,"no, only English or Spanish",no,2025-07-23_08h43.28.390,empathy_intonation_perc,2024.2.4,Win32,59.88023952,651d623cbdcb675cb801bc79,687ed1b7e638a4cbf2f02089,6880d88e126716178738b784,,,,,,,,,,,,,,1,,,,,,,,,,,,,,,,,,,,,,,,,,,,,,,,,,,,,,,,,,,,,,,,,,,,,,,,,81,pozo,,,,,475.1367,476.5179,0,0,0.8569,,0,6,6,80,1,REAL,FAKE,,,,,,,,,,,,,,,,,
,,,,,,,,,651d623cbdcb675cb801bc79,Spanish,13 or older,"no, only English or Spanish",no,2025-07-23_08h43.28.390,empathy_intonation_perc,2024.2.4,Win32,59.88023952,651d623cbdcb675cb801bc79,687ed1b7e638a4cbf2f02089,6880d88e126716178738b784,,,,,,,,,,,,,,1,,,,,,,,,,,,,,,,,,,,,,,,,,,,,,,,,,,,,,,,,,,,,,,,,,,,,,,,,75,yacer,,,,,476.5186,477.8013,0,0,0.7463,,0,7,7,74,1,REAL,FAKE,,,,,,,,,,,,,,,,,
,,,,,,,,,651d623cbdcb675cb801bc79,Spanish,13 or older,"no, only English or Spanish",no,2025-07-23_08h43.28.390,empathy_intonation_perc,2024.2.4,Win32,59.88023952,651d623cbdcb675cb801bc79,687ed1b7e638a4cbf2f02089,6880d88e126716178738b784,,,,,,,,,,,,,,1,,,,,,,,,,,,,,,,,,,,,,,,,,,,,,,,,,,,,,,,,,,,,,,,,,,,,,,,,26,secuestro,,,,,477.802,479.4515,0,0,1.1137,,0,8,8,25,1,REAL,FAKE,,,,,,,,,,,,,,,,,
,,,,,,,,,651d623cbdcb675cb801bc79,Spanish,13 or older,"no, only English or Spanish",no,2025-07-23_08h43.28.390,empathy_intonation_perc,2024.2.4,Win32,59.88023952,651d623cbdcb675cb801bc79,687ed1b7e638a4cbf2f02089,6880d88e126716178738b784,,,,,,,,,,,,,,1,,,,,,,,,,,,,,,,,,,,,,,,,,,,,,,,,,,,,,,,,,,,,,,,,,,,,,,,,86,barato,,,,,479.4522,481.285,1,1,1.2959,,0,9,9,85,1,REAL,FAKE,,,,,,,,,,,,,,,,,
,,,,,,,,,651d623cbdcb675cb801bc79,Spanish,13 or older,"no, only English or Spanish",no,2025-07-23_08h43.28.390,empathy_intonation_perc,2024.2.4,Win32,59.88023952,651d623cbdcb675cb801bc79,687ed1b7e638a4cbf2f02089,6880d88e126716178738b784,,,,,,,,,,,,,,1,,,,,,,,,,,,,,,,,,,,,,,,,,,,,,,,,,,,,,,,,,,,,,,,,,,,,,,,,24,látigo,,,,,481.2862,483.1515,1,1,1.3403,,0,10,10,23,1,REAL,FAKE,,,,,,,,,,,,,,,,,
,,,,,,,,,651d623cbdcb675cb801bc79,Spanish,13 or older,"no, only English or Spanish",no,2025-07-23_08h43.28.390,empathy_intonation_perc,2024.2.4,Win32,59.88023952,651d623cbdcb675cb801bc79,687ed1b7e638a4cbf2f02089,6880d88e126716178738b784,,,,,,,,,,,,,,1,,,,,,,,,,,,,,,,,,,,,,,,,,,,,,,,,,,,,,,,,,,,,,,,,,,,,,,,,40,alfombra,,,,,483.1522,484.4347,0,0,0.7465,,0,11,11,39,1,REAL,FAKE,,,,,,,,,,,,,,,,,
,,,,,,,,,651d623cbdcb675cb801bc79,Spanish,13 or older,"no, only English or Spanish",no,2025-07-23_08h43.28.390,empathy_intonation_perc,2024.2.4,Win32,59.88023952,651d623cbdcb675cb801bc79,687ed1b7e638a4cbf2f02089,6880d88e126716178738b784,,,,,,,,,,,,,,1,,,,,,,,,,,,,,,,,,,,,,,,,,,,,,,,,,,,,,,,,,,,,,,,,,,,,,,,,57,tacaño,,,,,484.4367,485.8683,0,0,0.9006,,0,12,12,56,1,REAL,FAKE,,,,,,,,,,,,,,,,,
,,,,,,,,,651d623cbdcb675cb801bc79,Spanish,13 or older,"no, only English or Spanish",no,2025-07-23_08h43.28.390,empathy_intonation_perc,2024.2.4,Win32,59.88023952,651d623cbdcb675cb801bc79,687ed1b7e638a4cbf2f02089,6880d88e126716178738b784,,,,,,,,,,,,,,0,,,,,,,,,,,,,,,,,,,,,,,,,,,,,,,,,,,,,,,,,,,,,,,,,,,,,,,,,72,pemición,,,,,485.8699,487.5182,0,1,1.1147,,0,13,13,71,1,REAL,FAKE,,,,,,,,,,,,,,,,,
,,,,,,,,,651d623cbdcb675cb801bc79,Spanish,13 or older,"no, only English or Spanish",no,2025-07-23_08h43.28.390,empathy_intonation_perc,2024.2.4,Win32,59.88023952,651d623cbdcb675cb801bc79,687ed1b7e638a4cbf2f02089,6880d88e126716178738b784,,,,,,,,,,,,,,1,,,,,,,,,,,,,,,,,,,,,,,,,,,,,,,,,,,,,,,,,,,,,,,,,,,,,,,,,6,tergiversar,,,,,487.5197,488.9686,0,0,0.9129,,0,14,14,5,1,REAL,FAKE,,,,,,,,,,,,,,,,,
,,,,,,,,,651d623cbdcb675cb801bc79,Spanish,13 or older,"no, only English or Spanish",no,2025-07-23_08h43.28.390,empathy_intonation_perc,2024.2.4,Win32,59.88023952,651d623cbdcb675cb801bc79,687ed1b7e638a4cbf2f02089,6880d88e126716178738b784,,,,,,,,,,,,,,1,,,,,,,,,,,,,,,,,,,,,,,,,,,,,,,,,,,,,,,,,,,,,,,,,,,,,,,,,78,frondoso,,,,,488.9696,490.5353,0,0,1.0318,,0,15,15,77,1,REAL,FAKE,,,,,,,,,,,,,,,,,
,,,,,,,,,651d623cbdcb675cb801bc79,Spanish,13 or older,"no, only English or Spanish",no,2025-07-23_08h43.28.390,empathy_intonation_perc,2024.2.4,Win32,59.88023952,651d623cbdcb675cb801bc79,687ed1b7e638a4cbf2f02089,6880d88e126716178738b784,,,,,,,,,,,,,,1,,,,,,,,,,,,,,,,,,,,,,,,,,,,,,,,,,,,,,,,,,,,,,,,,,,,,,,,,11,cenefa,,,,,490.5363,491.8685,0,0,0.8011,,0,16,16,10,1,REAL,FAKE,,,,,,,,,,,,,,,,,
,,,,,,,,,651d623cbdcb675cb801bc79,Spanish,13 or older,"no, only English or Spanish",no,2025-07-23_08h43.28.390,empathy_intonation_perc,2024.2.4,Win32,59.88023952,651d623cbdcb675cb801bc79,687ed1b7e638a4cbf2f02089,6880d88e126716178738b784,,,,,,,,,,,,,,0,,,,,,,,,,,,,,,,,,,,,,,,,,,,,,,,,,,,,,,,,,,,,,,,,,,,,,,,,4,batillón,,,,,491.8693,493.385,0,1,0.9805,,0,17,17,3,1,REAL,FAKE,,,,,,,,,,,,,,,,,
,,,,,,,,,651d623cbdcb675cb801bc79,Spanish,13 or older,"no, only English or Spanish",no,2025-07-23_08h43.28.390,empathy_intonation_perc,2024.2.4,Win32,59.88023952,651d623cbdcb675cb801bc79,687ed1b7e638a4cbf2f02089,6880d88e126716178738b784,,,,,,,,,,,,,,1,,,,,,,,,,,,,,,,,,,,,,,,,,,,,,,,,,,,,,,,,,,,,,,,,,,,,,,,,60,matar,,,,,493.3858,494.6854,1,1,0.7639,,0,18,18,59,1,REAL,FAKE,,,,,,,,,,,,,,,,,
,,,,,,,,,651d623cbdcb675cb801bc79,Spanish,13 or older,"no, only English or Spanish",no,2025-07-23_08h43.28.390,empathy_intonation_perc,2024.2.4,Win32,59.88023952,651d623cbdcb675cb801bc79,687ed1b7e638a4cbf2f02089,6880d88e126716178738b784,,,,,,,,,,,,,,0,,,,,,,,,,,,,,,,,,,,,,,,,,,,,,,,,,,,,,,,,,,,,,,,,,,,,,,,,79,tropaje,,,,,494.6866,496.4687,0,1,1.2507,,0,19,19,78,1,REAL,FAKE,,,,,,,,,,,,,,,,,
,,,,,,,,,651d623cbdcb675cb801bc79,Spanish,13 or older,"no, only English or Spanish",no,2025-07-23_08h43.28.390,empathy_intonation_perc,2024.2.4,Win32,59.88023952,651d623cbdcb675cb801bc79,687ed1b7e638a4cbf2f02089,6880d88e126716178738b784,,,,,,,,,,,,,,1,,,,,,,,,,,,,,,,,,,,,,,,,,,,,,,,,,,,,,,,,,,,,,,,,,,,,,,,,28,merodear,,,,,496.4695,497.9191,0,0,0.915,,0,20,20,27,1,REAL,FAKE,,,,,,,,,,,,,,,,,
,,,,,,,,,651d623cbdcb675cb801bc79,Spanish,13 or older,"no, only English or Spanish",no,2025-07-23_08h43.28.390,empathy_intonation_perc,2024.2.4,Win32,59.88023952,651d623cbdcb675cb801bc79,687ed1b7e638a4cbf2f02089,6880d88e126716178738b784,,,,,,,,,,,,,,0,,,,,,,,,,,,,,,,,,,,,,,,,,,,,,,,,,,,,,,,,,,,,,,,,,,,,,,,,18,arsa,,,,,497.9203,499.4019,0,1,0.9521,,0,21,21,17,1,REAL,FAKE,,,,,,,,,,,,,,,,,
,,,,,,,,,651d623cbdcb675cb801bc79,Spanish,13 or older,"no, only English or Spanish",no,2025-07-23_08h43.28.390,empathy_intonation_perc,2024.2.4,Win32,59.88023952,651d623cbdcb675cb801bc79,687ed1b7e638a4cbf2f02089,6880d88e126716178738b784,,,,,,,,,,,,,,1,,,,,,,,,,,,,,,,,,,,,,,,,,,,,,,,,,,,,,,,,,,,,,,,,,,,,,,,,68,alegre,,,,,499.4026,500.8522,1,1,0.9127,,0,22,22,67,1,REAL,FAKE,,,,,,,,,,,,,,,,,
,,,,,,,,,651d623cbdcb675cb801bc79,Spanish,13 or older,"no, only English or Spanish",no,2025-07-23_08h43.28.390,empathy_intonation_perc,2024.2.4,Win32,59.88023952,651d623cbdcb675cb801bc79,687ed1b7e638a4cbf2f02089,6880d88e126716178738b784,,,,,,,,,,,,,,0,,,,,,,,,,,,,,,,,,,,,,,,,,,,,,,,,,,,,,,,,,,,,,,,,,,,,,,,,70,temblo,,,,,500.8529,502.3354,1,0,0.9556,,0,23,23,69,1,REAL,FAKE,,,,,,,,,,,,,,,,,
,,,,,,,,,651d623cbdcb675cb801bc79,Spanish,13 or older,"no, only English or Spanish",no,2025-07-23_08h43.28.390,empathy_intonation_perc,2024.2.4,Win32,59.88023952,651d623cbdcb675cb801bc79,687ed1b7e638a4cbf2f02089,6880d88e126716178738b784,,,,,,,,,,,,,,1,,,,,,,,,,,,,,,,,,,,,,,,,,,,,,,,,,,,,,,,,,,,,,,,,,,,,,,,,46,martillo,,,,,502.3361,503.5688,0,0,0.7038,,0,24,24,45,1,REAL,FAKE,,,,,,,,,,,,,,,,,
,,,,,,,,,651d623cbdcb675cb801bc79,Spanish,13 or older,"no, only English or Spanish",no,2025-07-23_08h43.28.390,empathy_intonation_perc,2024.2.4,Win32,59.88023952,651d623cbdcb675cb801bc79,687ed1b7e638a4cbf2f02089,6880d88e126716178738b784,,,,,,,,,,,,,,1,,,,,,,,,,,,,,,,,,,,,,,,,,,,,,,,,,,,,,,,,,,,,,,,,,,,,,,,,64,orgulloso,,,,,503.5698,505.1192,0,0,1.0158,,0,25,25,63,1,REAL,FAKE,,,,,,,,,,,,,,,,,
,,,,,,,,,651d623cbdcb675cb801bc79,Spanish,13 or older,"no, only English or Spanish",no,2025-07-23_08h43.28.390,empathy_intonation_perc,2024.2.4,Win32,59.88023952,651d623cbdcb675cb801bc79,687ed1b7e638a4cbf2f02089,6880d88e126716178738b784,,,,,,,,,,,,,,1,,,,,,,,,,,,,,,,,,,,,,,,,,,,,,,,,,,,,,,,,,,,,,,,,,,,,,,,,9,hacha,,,,,505.1204,506.8356,0,0,1.1845,,0,26,26,8,1,REAL,FAKE,,,,,,,,,,,,,,,,,
,,,,,,,,,651d623cbdcb675cb801bc79,Spanish,13 or older,"no, only English or Spanish",no,2025-07-23_08h43.28.390,empathy_intonation_perc,2024.2.4,Win32,59.88023952,651d623cbdcb675cb801bc79,687ed1b7e638a4cbf2f02089,6880d88e126716178738b784,,,,,,,,,,,,,,0,,,,,,,,,,,,,,,,,,,,,,,,,,,,,,,,,,,,,,,,,,,,,,,,,,,,,,,,,27,acutación,,,,,506.8364,509.2859,0,1,1.9164,,0,27,27,26,1,REAL,FAKE,,,,,,,,,,,,,,,,,
,,,,,,,,,651d623cbdcb675cb801bc79,Spanish,13 or older,"no, only English or Spanish",no,2025-07-23_08h43.28.390,empathy_intonation_perc,2024.2.4,Win32,59.88023952,651d623cbdcb675cb801bc79,687ed1b7e638a4cbf2f02089,6880d88e126716178738b784,,,,,,,,,,,,,,0,,,,,,,,,,,,,,,,,,,,,,,,,,,,,,,,,,,,,,,,,,,,,,,,,,,,,,,,,19,brecedad,,,,,509.2867,510.619,0,1,0.8021,,0,28,28,18,1,REAL,FAKE,,,,,,,,,,,,,,,,,
,,,,,,,,,651d623cbdcb675cb801bc79,Spanish,13 or older,"no, only English or Spanish",no,2025-07-23_08h43.28.390,empathy_intonation_perc,2024.2.4,Win32,59.88023952,651d623cbdcb675cb801bc79,687ed1b7e638a4cbf2f02089,6880d88e126716178738b784,,,,,,,,,,,,,,0,,,,,,,,,,,,,,,,,,,,,,,,,,,,,,,,,,,,,,,,,,,,,,,,,,,,,,,,,21,capillo,,,,,510.6203,511.7024,1,0,0.5571,,0,29,29,20,1,REAL,FAKE,,,,,,,,,,,,,,,,,
,,,,,,,,,651d623cbdcb675cb801bc79,Spanish,13 or older,"no, only English or Spanish",no,2025-07-23_08h43.28.390,empathy_intonation_perc,2024.2.4,Win32,59.88023952,651d623cbdcb675cb801bc79,687ed1b7e638a4cbf2f02089,6880d88e126716178738b784,,,,,,,,,,,,,,1,,,,,,,,,,,,,,,,,,,,,,,,,,,,,,,,,,,,,,,,,,,,,,,,,,,,,,,,,5,zapato,,,,,511.7031,512.9693,1,1,0.7305,,0,30,30,4,1,REAL,FAKE,,,,,,,,,,,,,,,,,
,,,,,,,,,651d623cbdcb675cb801bc79,Spanish,13 or older,"no, only English or Spanish",no,2025-07-23_08h43.28.390,empathy_intonation_perc,2024.2.4,Win32,59.88023952,651d623cbdcb675cb801bc79,687ed1b7e638a4cbf2f02089,6880d88e126716178738b784,,,,,,,,,,,,,,0,,,,,,,,,,,,,,,,,,,,,,,,,,,,,,,,,,,,,,,,,,,,,,,,,,,,,,,,,84,escuto,,,,,512.9704,514.7863,1,0,1.2803,,0,31,31,83,1,REAL,FAKE,,,,,,,,,,,,,,,,,
,,,,,,,,,651d623cbdcb675cb801bc79,Spanish,13 or older,"no, only English or Spanish",no,2025-07-23_08h43.28.390,empathy_intonation_perc,2024.2.4,Win32,59.88023952,651d623cbdcb675cb801bc79,687ed1b7e638a4cbf2f02089,6880d88e126716178738b784,,,,,,,,,,,,,,0,,,,,,,,,,,,,,,,,,,,,,,,,,,,,,,,,,,,,,,,,,,,,,,,,,,,,,,,,32,fatacidad,,,,,514.7871,516.0525,0,1,0.734,,0,32,32,31,1,REAL,FAKE,,,,,,,,,,,,,,,,,
,,,,,,,,,651d623cbdcb675cb801bc79,Spanish,13 or older,"no, only English or Spanish",no,2025-07-23_08h43.28.390,empathy_intonation_perc,2024.2.4,Win32,59.88023952,651d623cbdcb675cb801bc79,687ed1b7e638a4cbf2f02089,6880d88e126716178738b784,,,,,,,,,,,,,,1,,,,,,,,,,,,,,,,,,,,,,,,,,,,,,,,,,,,,,,,,,,,,,,,,,,,,,,,,48,ladrón,,,,,516.0533,517.2861,0,0,0.6977,,0,33,33,47,1,REAL,FAKE,,,,,,,,,,,,,,,,,
,,,,,,,,,651d623cbdcb675cb801bc79,Spanish,13 or older,"no, only English or Spanish",no,2025-07-23_08h43.28.390,empathy_intonation_perc,2024.2.4,Win32,59.88023952,651d623cbdcb675cb801bc79,687ed1b7e638a4cbf2f02089,6880d88e126716178738b784,,,,,,,,,,,,,,1,,,,,,,,,,,,,,,,,,,,,,,,,,,,,,,,,,,,,,,,,,,,,,,,,,,,,,,,,83,guante,,,,,517.2872,519.086,0,0,1.274,,0,34,34,82,1,REAL,FAKE,,,,,,,,,,,,,,,,,
,,,,,,,,,651d623cbdcb675cb801bc79,Spanish,13 or older,"no, only English or Spanish",no,2025-07-23_08h43.28.390,empathy_intonation_perc,2024.2.4,Win32,59.88023952,651d623cbdcb675cb801bc79,687ed1b7e638a4cbf2f02089,6880d88e126716178738b784,,,,,,,,,,,,,,1,,,,,,,,,,,,,,,,,,,,,,,,,,,,,,,,,,,,,,,,,,,,,,,,,,,,,,,,,52,camisa,,,,,519.0868,520.736,0,0,1.1134,,0,35,35,51,1,REAL,FAKE,,,,,,,,,,,,,,,,,
,,,,,,,,,651d623cbdcb675cb801bc79,Spanish,13 or older,"no, only English or Spanish",no,2025-07-23_08h43.28.390,empathy_intonation_perc,2024.2.4,Win32,59.88023952,651d623cbdcb675cb801bc79,687ed1b7e638a4cbf2f02089,6880d88e126716178738b784,,,,,,,,,,,,,,1,,,,,,,,,,,,,,,,,,,,,,,,,,,,,,,,,,,,,,,,,,,,,,,,,,,,,,,,,36,loro,,,,,520.7371,522.1862,0,0,0.9143,,0,36,36,35,1,REAL,FAKE,,,,,,,,,,,,,,,,,
,,,,,,,,,651d623cbdcb675cb801bc79,Spanish,13 or older,"no, only English or Spanish",no,2025-07-23_08h43.28.390,empathy_intonation_perc,2024.2.4,Win32,59.88023952,651d623cbdcb675cb801bc79,687ed1b7e638a4cbf2f02089,6880d88e126716178738b784,,,,,,,,,,,,,,1,,,,,,,,,,,,,,,,,,,,,,,,,,,,,,,,,,,,,,,,,,,,,,,,,,,,,,,,,55,nevar,,,,,522.1874,523.3028,1,1,0.5815,,0,37,37,54,1,REAL,FAKE,,,,,,,,,,,,,,,,,
,,,,,,,,,651d623cbdcb675cb801bc79,Spanish,13 or older,"no, only English or Spanish",no,2025-07-23_08h43.28.390,empathy_intonation_perc,2024.2.4,Win32,59.88023952,651d623cbdcb675cb801bc79,687ed1b7e638a4cbf2f02089,6880d88e126716178738b784,,,,,,,,,,,,,,0,,,,,,,,,,,,,,,,,,,,,,,,,,,,,,,,,,,,,,,,,,,,,,,,,,,,,,,,,58,plaudir,,,,,523.3039,525.0363,0,1,1.197,,0,38,38,57,1,REAL,FAKE,,,,,,,,,,,,,,,,,
,,,,,,,,,651d623cbdcb675cb801bc79,Spanish,13 or older,"no, only English or Spanish",no,2025-07-23_08h43.28.390,empathy_intonation_perc,2024.2.4,Win32,59.88023952,651d623cbdcb675cb801bc79,687ed1b7e638a4cbf2f02089,6880d88e126716178738b784,,,,,,,,,,,,,,0,,,,,,,,,,,,,,,,,,,,,,,,,,,,,,,,,,,,,,,,,,,,,,,,,,,,,,,,,8,cadeña,,,,,525.037,526.453,1,0,0.8845,,0,39,39,7,1,REAL,FAKE,,,,,,,,,,,,,,,,,
,,,,,,,,,651d623cbdcb675cb801bc79,Spanish,13 or older,"no, only English or Spanish",no,2025-07-23_08h43.28.390,empathy_intonation_perc,2024.2.4,Win32,59.88023952,651d623cbdcb675cb801bc79,687ed1b7e638a4cbf2f02089,6880d88e126716178738b784,,,,,,,,,,,,,,1,,,,,,,,,,,,,,,,,,,,,,,,,,,,,,,,,,,,,,,,,,,,,,,,,,,,,,,,,13,helar,,,,,526.454,527.9863,0,0,1.0029,,0,40,40,12,1,REAL,FAKE,,,,,,,,,,,,,,,,,
,,,,,,,,,651d623cbdcb675cb801bc79,Spanish,13 or older,"no, only English or Spanish",no,2025-07-23_08h43.28.390,empathy_intonation_perc,2024.2.4,Win32,59.88023952,651d623cbdcb675cb801bc79,687ed1b7e638a4cbf2f02089,6880d88e126716178738b784,,,,,,,,,,,,,,0,,,,,,,,,,,,,,,,,,,,,,,,,,,,,,,,,,,,,,,,,,,,,,,,,,,,,,,,,50,flamida,,,,,527.987,529.4698,0,1,0.9489,,0,41,41,49,1,REAL,FAKE,,,,,,,,,,,,,,,,,
,,,,,,,,,651d623cbdcb675cb801bc79,Spanish,13 or older,"no, only English or Spanish",no,2025-07-23_08h43.28.390,empathy_intonation_perc,2024.2.4,Win32,59.88023952,651d623cbdcb675cb801bc79,687ed1b7e638a4cbf2f02089,6880d88e126716178738b784,,,,,,,,,,,,,,1,,,,,,,,,,,,,,,,,,,,,,,,,,,,,,,,,,,,,,,,,,,,,,,,,,,,,,,,,91,click the 1 key.,,,,,529.4713,531.1197,1,1,1.121,,0,42,42,90,1,REAL,FAKE,,,,,,,,,,,,,,,,,
,,,,,,,,,651d623cbdcb675cb801bc79,Spanish,13 or older,"no, only English or Spanish",no,2025-07-23_08h43.28.390,empathy_intonation_perc,2024.2.4,Win32,59.88023952,651d623cbdcb675cb801bc79,687ed1b7e638a4cbf2f02089,6880d88e126716178738b784,,,,,,,,,,,,,,1,,,,,,,,,,,,,,,,,,,,,,,,,,,,,,,,,,,,,,,,,,,,,,,,,,,,,,,,,62,flaco,,,,,531.1203,533.2697,0,0,1.6158,,0,43,43,61,1,REAL,FAKE,,,,,,,,,,,,,,,,,
,,,,,,,,,651d623cbdcb675cb801bc79,Spanish,13 or older,"no, only English or Spanish",no,2025-07-23_08h43.28.390,empathy_intonation_perc,2024.2.4,Win32,59.88023952,651d623cbdcb675cb801bc79,687ed1b7e638a4cbf2f02089,6880d88e126716178738b784,,,,,,,,,,,,,,0,,,,,,,,,,,,,,,,,,,,,,,,,,,,,,,,,,,,,,,,,,,,,,,,,,,,,,,,,29,decar,,,,,533.2707,535.5535,1,0,1.7461,,0,44,44,28,1,REAL,FAKE,,,,,,,,,,,,,,,,,
,,,,,,,,,651d623cbdcb675cb801bc79,Spanish,13 or older,"no, only English or Spanish",no,2025-07-23_08h43.28.390,empathy_intonation_perc,2024.2.4,Win32,59.88023952,651d623cbdcb675cb801bc79,687ed1b7e638a4cbf2f02089,6880d88e126716178738b784,,,,,,,,,,,,,,1,,,,,,,,,,,,,,,,,,,,,,,,,,,,,,,,,,,,,,,,,,,,,,,,,,,,,,,,,41,rebuscar,,,,,535.5546,536.9868,1,1,0.9021,,0,45,45,40,1,REAL,FAKE,,,,,,,,,,,,,,,,,
,,,,,,,,,651d623cbdcb675cb801bc79,Spanish,13 or older,"no, only English or Spanish",no,2025-07-23_08h43.28.390,empathy_intonation_perc,2024.2.4,Win32,59.88023952,651d623cbdcb675cb801bc79,687ed1b7e638a4cbf2f02089,6880d88e126716178738b784,,,,,,,,,,,,,,1,,,,,,,,,,,,,,,,,,,,,,,,,,,,,,,,,,,,,,,,,,,,,,,,,,,,,,,,,59,besar,,,,,536.9875,538.5201,1,1,0.9973,,0,46,46,58,1,REAL,FAKE,,,,,,,,,,,,,,,,,
,,,,,,,,,651d623cbdcb675cb801bc79,Spanish,13 or older,"no, only English or Spanish",no,2025-07-23_08h43.28.390,empathy_intonation_perc,2024.2.4,Win32,59.88023952,651d623cbdcb675cb801bc79,687ed1b7e638a4cbf2f02089,6880d88e126716178738b784,,,,,,,,,,,,,,1,,,,,,,,,,,,,,,,,,,,,,,,,,,,,,,,,,,,,,,,,,,,,,,,,,,,,,,,,31,pandilla,,,,,538.5213,539.6869,0,0,0.6313,,0,47,47,30,1,REAL,FAKE,,,,,,,,,,,,,,,,,
,,,,,,,,,651d623cbdcb675cb801bc79,Spanish,13 or older,"no, only English or Spanish",no,2025-07-23_08h43.28.390,empathy_intonation_perc,2024.2.4,Win32,59.88023952,651d623cbdcb675cb801bc79,687ed1b7e638a4cbf2f02089,6880d88e126716178738b784,,,,,,,,,,,,,,1,,,,,,,,,,,,,,,,,,,,,,,,,,,,,,,,,,,,,,,,,,,,,,,,,,,,,,,,,45,jilguero,,,,,539.6882,541.6869,0,0,1.4653,,0,48,48,44,1,REAL,FAKE,,,,,,,,,,,,,,,,,
,,,,,,,,,651d623cbdcb675cb801bc79,Spanish,13 or older,"no, only English or Spanish",no,2025-07-23_08h43.28.390,empathy_intonation_perc,2024.2.4,Win32,59.88023952,651d623cbdcb675cb801bc79,687ed1b7e638a4cbf2f02089,6880d88e126716178738b784,,,,,,,,,,,,,,1,,,,,,,,,,,,,,,,,,,,,,,,,,,,,,,,,,,,,,,,,,,,,,,,,,,,,,,,,44,cuchara,,,,,541.6879,543.1703,0,0,0.9525,,0,49,49,43,1,REAL,FAKE,,,,,,,,,,,,,,,,,
,,,,,,,,,651d623cbdcb675cb801bc79,Spanish,13 or older,"no, only English or Spanish",no,2025-07-23_08h43.28.390,empathy_intonation_perc,2024.2.4,Win32,59.88023952,651d623cbdcb675cb801bc79,687ed1b7e638a4cbf2f02089,6880d88e126716178738b784,,,,,,,,,,,,,,1,,,,,,,,,,,,,,,,,,,,,,,,,,,,,,,,,,,,,,,,,,,,,,,,,,,,,,,,,67,cabello,,,,,543.1715,544.5703,1,1,0.869,,0,50,50,66,1,REAL,FAKE,,,,,,,,,,,,,,,,,
,,,,,,,,,651d623cbdcb675cb801bc79,Spanish,13 or older,"no, only English or Spanish",no,2025-07-23_08h43.28.390,empathy_intonation_perc,2024.2.4,Win32,59.88023952,651d623cbdcb675cb801bc79,687ed1b7e638a4cbf2f02089,6880d88e126716178738b784,,,,,,,,,,,,,,1,,,,,,,,,,,,,,,,,,,,,,,,,,,,,,,,,,,,,,,,,,,,,,,,,,,,,,,,,20,ávido,,,,,544.5716,546.3702,0,0,1.2635,,0,51,51,19,1,REAL,FAKE,,,,,,,,,,,,,,,,,
,,,,,,,,,651d623cbdcb675cb801bc79,Spanish,13 or older,"no, only English or Spanish",no,2025-07-23_08h43.28.390,empathy_intonation_perc,2024.2.4,Win32,59.88023952,651d623cbdcb675cb801bc79,687ed1b7e638a4cbf2f02089,6880d88e126716178738b784,,,,,,,,,,,,,,1,,,,,,,,,,,,,,,,,,,,,,,,,,,,,,,,,,,,,,,,,,,,,,,,,,,,,,,,,89,prisa,,,,,546.371,547.8537,1,1,0.9492,,0,52,52,88,1,REAL,FAKE,,,,,,,,,,,,,,,,,
,,,,,,,,,651d623cbdcb675cb801bc79,Spanish,13 or older,"no, only English or Spanish",no,2025-07-23_08h43.28.390,empathy_intonation_perc,2024.2.4,Win32,59.88023952,651d623cbdcb675cb801bc79,687ed1b7e638a4cbf2f02089,6880d88e126716178738b784,,,,,,,,,,,,,,1,,,,,,,,,,,,,,,,,,,,,,,,,,,,,,,,,,,,,,,,,,,,,,,,,,,,,,,,,43,canela,,,,,547.8549,549.1536,0,0,0.7632,,0,53,53,42,1,REAL,FAKE,,,,,,,,,,,,,,,,,
,,,,,,,,,651d623cbdcb675cb801bc79,Spanish,13 or older,"no, only English or Spanish",no,2025-07-23_08h43.28.390,empathy_intonation_perc,2024.2.4,Win32,59.88023952,651d623cbdcb675cb801bc79,687ed1b7e638a4cbf2f02089,6880d88e126716178738b784,,,,,,,,,,,,,,1,,,,,,,,,,,,,,,,,,,,,,,,,,,,,,,,,,,,,,,,,,,,,,,,,,,,,,,,,69,engatusar,,,,,549.1546,550.4373,0,0,0.746,,0,54,54,68,1,REAL,FAKE,,,,,,,,,,,,,,,,,
,,,,,,,,,651d623cbdcb675cb801bc79,Spanish,13 or older,"no, only English or Spanish",no,2025-07-23_08h43.28.390,empathy_intonation_perc,2024.2.4,Win32,59.88023952,651d623cbdcb675cb801bc79,687ed1b7e638a4cbf2f02089,6880d88e126716178738b784,,,,,,,,,,,,,,0,,,,,,,,,,,,,,,,,,,,,,,,,,,,,,,,,,,,,,,,,,,,,,,,,,,,,,,,,35,rompido,,,,,550.438,551.8704,1,0,0.8981,,0,55,55,34,1,REAL,FAKE,,,,,,,,,,,,,,,,,
,,,,,,,,,651d623cbdcb675cb801bc79,Spanish,13 or older,"no, only English or Spanish",no,2025-07-23_08h43.28.390,empathy_intonation_perc,2024.2.4,Win32,59.88023952,651d623cbdcb675cb801bc79,687ed1b7e638a4cbf2f02089,6880d88e126716178738b784,,,,,,,,,,,,,,1,,,,,,,,,,,,,,,,,,,,,,,,,,,,,,,,,,,,,,,,,,,,,,,,,,,,,,,,,65,bizcocho,,,,,551.8713,553.154,0,0,0.7462,,0,56,56,64,1,REAL,FAKE,,,,,,,,,,,,,,,,,
,,,,,,,,,651d623cbdcb675cb801bc79,Spanish,13 or older,"no, only English or Spanish",no,2025-07-23_08h43.28.390,empathy_intonation_perc,2024.2.4,Win32,59.88023952,651d623cbdcb675cb801bc79,687ed1b7e638a4cbf2f02089,6880d88e126716178738b784,,,,,,,,,,,,,,1,,,,,,,,,,,,,,,,,,,,,,,,,,,,,,,,,,,,,,,,,,,,,,,,,,,,,,,,,90,clavel,,,,,553.1549,554.4372,0,0,0.7471,,0,57,57,89,1,REAL,FAKE,,,,,,,,,,,,,,,,,
,,,,,,,,,651d623cbdcb675cb801bc79,Spanish,13 or older,"no, only English or Spanish",no,2025-07-23_08h43.28.390,empathy_intonation_perc,2024.2.4,Win32,59.88023952,651d623cbdcb675cb801bc79,687ed1b7e638a4cbf2f02089,6880d88e126716178738b784,,,,,,,,,,,,,,1,,,,,,,,,,,,,,,,,,,,,,,,,,,,,,,,,,,,,,,,,,,,,,,,,,,,,,,,,38,estornudar,,,,,554.4378,556.1375,1,1,1.1638,,0,58,58,37,1,REAL,FAKE,,,,,,,,,,,,,,,,,
,,,,,,,,,651d623cbdcb675cb801bc79,Spanish,13 or older,"no, only English or Spanish",no,2025-07-23_08h43.28.390,empathy_intonation_perc,2024.2.4,Win32,59.88023952,651d623cbdcb675cb801bc79,687ed1b7e638a4cbf2f02089,6880d88e126716178738b784,,,,,,,,,,,,,,0,,,,,,,,,,,,,,,,,,,,,,,,,,,,,,,,,,,,,,,,,,,,,,,,,,,,,,,,,74,cintro,,,,,556.1387,557.3374,1,0,0.6632,,0,59,59,73,1,REAL,FAKE,,,,,,,,,,,,,,,,,
,,,,,,,,,651d623cbdcb675cb801bc79,Spanish,13 or older,"no, only English or Spanish",no,2025-07-23_08h43.28.390,empathy_intonation_perc,2024.2.4,Win32,59.88023952,651d623cbdcb675cb801bc79,687ed1b7e638a4cbf2f02089,6880d88e126716178738b784,,,,,,,,,,,,,,0,,,,,,,,,,,,,,,,,,,,,,,,,,,,,,,,,,,,,,,,,,,,,,,,,,,,,,,,,53,vegada,,,,,557.3385,558.6377,0,1,0.7663,,0,60,60,52,1,REAL,FAKE,,,,,,,,,,,,,,,,,
,,,,,,,,,651d623cbdcb675cb801bc79,Spanish,13 or older,"no, only English or Spanish",no,2025-07-23_08h43.28.390,empathy_intonation_perc,2024.2.4,Win32,59.88023952,651d623cbdcb675cb801bc79,687ed1b7e638a4cbf2f02089,6880d88e126716178738b784,,,,,,,,,,,,,,1,,,,,,,,,,,,,,,,,,,,,,,,,,,,,,,,,,,,,,,,,,,,,,,,,,,,,,,,,61,seda,,,,,558.6387,560.0042,0,0,0.8305,,0,61,61,60,1,REAL,FAKE,,,,,,,,,,,,,,,,,
,,,,,,,,,651d623cbdcb675cb801bc79,Spanish,13 or older,"no, only English or Spanish",no,2025-07-23_08h43.28.390,empathy_intonation_perc,2024.2.4,Win32,59.88023952,651d623cbdcb675cb801bc79,687ed1b7e638a4cbf2f02089,6880d88e126716178738b784,,,,,,,,,,,,,,0,,,,,,,,,,,,,,,,,,,,,,,,,,,,,,,,,,,,,,,,,,,,,,,,,,,,,,,,,87,grodo,,,,,560.005,561.2709,0,1,0.7319,,0,62,62,86,1,REAL,FAKE,,,,,,,,,,,,,,,,,
,,,,,,,,,651d623cbdcb675cb801bc79,Spanish,13 or older,"no, only English or Spanish",no,2025-07-23_08h43.28.390,empathy_intonation_perc,2024.2.4,Win32,59.88023952,651d623cbdcb675cb801bc79,687ed1b7e638a4cbf2f02089,6880d88e126716178738b784,,,,,,,,,,,,,,1,,,,,,,,,,,,,,,,,,,,,,,,,,,,,,,,,,,,,,,,,,,,,,,,,,,,,,,,,88,acantilado,,,,,561.2718,562.7041,1,1,0.9041,,0,63,63,87,1,REAL,FAKE,,,,,,,,,,,,,,,,,
,,,,,,,,,651d623cbdcb675cb801bc79,Spanish,13 or older,"no, only English or Spanish",no,2025-07-23_08h43.28.390,empathy_intonation_perc,2024.2.4,Win32,59.88023952,651d623cbdcb675cb801bc79,687ed1b7e638a4cbf2f02089,6880d88e126716178738b784,,,,,,,,,,,,,,0,,,,,,,,,,,,,,,,,,,,,,,,,,,,,,,,,,,,,,,,,,,,,,,,,,,,,,,,,42,cadallo,,,,,562.7048,564.0041,1,0,0.7679,,0,64,64,41,1,REAL,FAKE,,,,,,,,,,,,,,,,,
,,,,,,,,,651d623cbdcb675cb801bc79,Spanish,13 or older,"no, only English or Spanish",no,2025-07-23_08h43.28.390,empathy_intonation_perc,2024.2.4,Win32,59.88023952,651d623cbdcb675cb801bc79,687ed1b7e638a4cbf2f02089,6880d88e126716178738b784,,,,,,,,,,,,,,0,,,,,,,,,,,,,,,,,,,,,,,,,,,,,,,,,,,,,,,,,,,,,,,,,,,,,,,,,23,lampera,,,,,564.0049,565.4874,1,0,0.9559,,0,65,65,22,1,REAL,FAKE,,,,,,,,,,,,,,,,,
,,,,,,,,,651d623cbdcb675cb801bc79,Spanish,13 or older,"no, only English or Spanish",no,2025-07-23_08h43.28.390,empathy_intonation_perc,2024.2.4,Win32,59.88023952,651d623cbdcb675cb801bc79,687ed1b7e638a4cbf2f02089,6880d88e126716178738b784,,,,,,,,,,,,,,1,,,,,,,,,,,,,,,,,,,,,,,,,,,,,,,,,,,,,,,,,,,,,,,,,,,,,,,,,34,aviso,,,,,565.4882,567.2046,0,0,1.1846,,0,66,66,33,1,REAL,FAKE,,,,,,,,,,,,,,,,,
,,,,,,,,,651d623cbdcb675cb801bc79,Spanish,13 or older,"no, only English or Spanish",no,2025-07-23_08h43.28.390,empathy_intonation_perc,2024.2.4,Win32,59.88023952,651d623cbdcb675cb801bc79,687ed1b7e638a4cbf2f02089,6880d88e126716178738b784,,,,,,,,,,,,,,1,,,,,,,,,,,,,,,,,,,,,,,,,,,,,,,,,,,,,,,,,,,,,,,,,,,,,,,,,7,pésimo,,,,,567.2058,568.3376,0,0,0.6063,,0,67,67,6,1,REAL,FAKE,,,,,,,,,,,,,,,,,
,,,,,,,,,651d623cbdcb675cb801bc79,Spanish,13 or older,"no, only English or Spanish",no,2025-07-23_08h43.28.390,empathy_intonation_perc,2024.2.4,Win32,59.88023952,651d623cbdcb675cb801bc79,687ed1b7e638a4cbf2f02089,6880d88e126716178738b784,,,,,,,,,,,,,,1,,,,,,,,,,,,,,,,,,,,,,,,,,,,,,,,,,,,,,,,,,,,,,,,,,,,,,,,,71,polvoriento,,,,,568.3385,569.7543,0,0,0.8802,,0,68,68,70,1,REAL,FAKE,,,,,,,,,,,,,,,,,
,,,,,,,,,651d623cbdcb675cb801bc79,Spanish,13 or older,"no, only English or Spanish",no,2025-07-23_08h43.28.390,empathy_intonation_perc,2024.2.4,Win32,59.88023952,651d623cbdcb675cb801bc79,687ed1b7e638a4cbf2f02089,6880d88e126716178738b784,,,,,,,,,,,,,,1,,,,,,,,,,,,,,,,,,,,,,,,,,,,,,,,,,,,,,,,,,,,,,,,,,,,,,,,,2,pellizcar,,,,,569.755,571.1546,1,1,0.8639,,0,69,69,1,1,REAL,FAKE,,,,,,,,,,,,,,,,,
,,,,,,,,,651d623cbdcb675cb801bc79,Spanish,13 or older,"no, only English or Spanish",no,2025-07-23_08h43.28.390,empathy_intonation_perc,2024.2.4,Win32,59.88023952,651d623cbdcb675cb801bc79,687ed1b7e638a4cbf2f02089,6880d88e126716178738b784,,,,,,,,,,,,,,1,,,,,,,,,,,,,,,,,,,,,,,,,,,,,,,,,,,,,,,,,,,,,,,,,,,,,,,,,22,lacayo,,,,,571.1558,572.371,1,1,0.6799,,0,70,70,21,1,REAL,FAKE,,,,,,,,,,,,,,,,,
,,,,,,,,,651d623cbdcb675cb801bc79,Spanish,13 or older,"no, only English or Spanish",no,2025-07-23_08h43.28.390,empathy_intonation_perc,2024.2.4,Win32,59.88023952,651d623cbdcb675cb801bc79,687ed1b7e638a4cbf2f02089,6880d88e126716178738b784,,,,,,,,,,,,,,0,,,,,,,,,,,,,,,,,,,,,,,,,,,,,,,,,,,,,,,,,,,,,,,,,,,,,,,,,10,antar,,,,,572.3718,573.7045,1,0,0.8041,,0,71,71,9,1,REAL,FAKE,,,,,,,,,,,,,,,,,
,,,,,,,,,651d623cbdcb675cb801bc79,Spanish,13 or older,"no, only English or Spanish",no,2025-07-23_08h43.28.390,empathy_intonation_perc,2024.2.4,Win32,59.88023952,651d623cbdcb675cb801bc79,687ed1b7e638a4cbf2f02089,6880d88e126716178738b784,,,,,,,,,,,,,,0,,,,,,,,,,,,,,,,,,,,,,,,,,,,,,,,,,,,,,,,,,,,,,,,,,,,,,,,,63,esposante,,,,,573.7054,575.0047,0,1,0.7639,,0,72,72,62,1,REAL,FAKE,,,,,,,,,,,,,,,,,
,,,,,,,,,651d623cbdcb675cb801bc79,Spanish,13 or older,"no, only English or Spanish",no,2025-07-23_08h43.28.390,empathy_intonation_perc,2024.2.4,Win32,59.88023952,651d623cbdcb675cb801bc79,687ed1b7e638a4cbf2f02089,6880d88e126716178738b784,,,,,,,,,,,,,,0,,,,,,,,,,,,,,,,,,,,,,,,,,,,,,,,,,,,,,,,,,,,,,,,,,,,,,,,,47,cartinar,,,,,575.0054,576.2878,0,1,0.755,,0,73,73,46,1,REAL,FAKE,,,,,,,,,,,,,,,,,
,,,,,,,,,651d623cbdcb675cb801bc79,Spanish,13 or older,"no, only English or Spanish",no,2025-07-23_08h43.28.390,empathy_intonation_perc,2024.2.4,Win32,59.88023952,651d623cbdcb675cb801bc79,687ed1b7e638a4cbf2f02089,6880d88e126716178738b784,,,,,,,,,,,,,,1,,,,,,,,,,,,,,,,,,,,,,,,,,,,,,,,,,,,,,,,,,,,,,,,,,,,,,,,,51,candado,,,,,576.2885,577.8881,0,0,1.0634,,0,74,74,50,1,REAL,FAKE,,,,,,,,,,,,,,,,,
,,,,,,,,,651d623cbdcb675cb801bc79,Spanish,13 or older,"no, only English or Spanish",no,2025-07-23_08h43.28.390,empathy_intonation_perc,2024.2.4,Win32,59.88023952,651d623cbdcb675cb801bc79,687ed1b7e638a4cbf2f02089,6880d88e126716178738b784,,,,,,,,,,,,,,1,,,,,,,,,,,,,,,,,,,,,,,,,,,,,,,,,,,,,,,,,,,,,,,,,,,,,,,,,3,pulmones,,,,,577.8892,579.4713,1,1,1.0485,,0,75,75,2,1,REAL,FAKE,,,,,,,,,,,,,,,,,
,,,,,,,,,651d623cbdcb675cb801bc79,Spanish,13 or older,"no, only English or Spanish",no,2025-07-23_08h43.28.390,empathy_intonation_perc,2024.2.4,Win32,59.88023952,651d623cbdcb675cb801bc79,687ed1b7e638a4cbf2f02089,6880d88e126716178738b784,,,,,,,,,,,,,,1,,,,,,,,,,,,,,,,,,,,,,,,,,,,,,,,,,,,,,,,,,,,,,,,,,,,,,,,,76,atar,,,,,579.4721,580.9716,0,0,0.9633,,0,76,76,75,1,REAL,FAKE,,,,,,,,,,,,,,,,,
,,,,,,,,,651d623cbdcb675cb801bc79,Spanish,13 or older,"no, only English or Spanish",no,2025-07-23_08h43.28.390,empathy_intonation_perc,2024.2.4,Win32,59.88023952,651d623cbdcb675cb801bc79,687ed1b7e638a4cbf2f02089,6880d88e126716178738b784,,,,,,,,,,,,,,0,,,,,,,,,,,,,,,,,,,,,,,,,,,,,,,,,,,,,,,,,,,,,,,,,,,,,,,,,30,alardio,,,,,580.9725,582.6214,0,1,1.1237,,0,77,77,29,1,REAL,FAKE,,,,,,,,,,,,,,,,,
,,,,,,,,,651d623cbdcb675cb801bc79,Spanish,13 or older,"no, only English or Spanish",no,2025-07-23_08h43.28.390,empathy_intonation_perc,2024.2.4,Win32,59.88023952,651d623cbdcb675cb801bc79,687ed1b7e638a4cbf2f02089,6880d88e126716178738b784,,,,,,,,,,,,,,1,,,,,,,,,,,,,,,,,,,,,,,,,,,,,,,,,,,,,,,,,,,,,,,,,,,,,,,,,25,bisagra,,,,,582.622,583.9214,0,0,0.763,,0,78,78,24,1,REAL,FAKE,,,,,,,,,,,,,,,,,
,,,,,,,,,651d623cbdcb675cb801bc79,Spanish,13 or older,"no, only English or Spanish",no,2025-07-23_08h43.28.390,empathy_intonation_perc,2024.2.4,Win32,59.88023952,651d623cbdcb675cb801bc79,687ed1b7e638a4cbf2f02089,6880d88e126716178738b784,,,,,,,,,,,,,,0,,,,,,,,,,,,,,,,,,,,,,,,,,,,,,,,,,,,,,,,,,,,,,,,,,,,,,,,,92,click the 0 key.,,,,,583.9222,585.6049,0,1,1.158,,0,79,79,91,1,REAL,FAKE,,,,,,,,,,,,,,,,,
,,,,,,,,,651d623cbdcb675cb801bc79,Spanish,13 or older,"no, only English or Spanish",no,2025-07-23_08h43.28.390,empathy_intonation_perc,2024.2.4,Win32,59.88023952,651d623cbdcb675cb801bc79,687ed1b7e638a4cbf2f02089,6880d88e126716178738b784,,,,,,,,,,,,,,1,,,,,,,,,,,,,,,,,,,,,,,,,,,,,,,,,,,,,,,,,,,,,,,,,,,,,,,,,39,torpe,,,,,585.6057,586.8215,1,1,0.6832,,0,80,80,38,1,REAL,FAKE,,,,,,,,,,,,,,,,,
,,,,,,,,,651d623cbdcb675cb801bc79,Spanish,13 or older,"no, only English or Spanish",no,2025-07-23_08h43.28.390,empathy_intonation_perc,2024.2.4,Win32,59.88023952,651d623cbdcb675cb801bc79,687ed1b7e638a4cbf2f02089,6880d88e126716178738b784,,,,,,,,,,,,,,0,,,,,,,,,,,,,,,,,,,,,,,,,,,,,,,,,,,,,,,,,,,,,,,,,,,,,,,,,33,pauca,,,,,586.8222,588.005,1,0,0.6469,,0,81,81,32,1,REAL,FAKE,,,,,,,,,,,,,,,,,
,,,,,,,,,651d623cbdcb675cb801bc79,Spanish,13 or older,"no, only English or Spanish",no,2025-07-23_08h43.28.390,empathy_intonation_perc,2024.2.4,Win32,59.88023952,651d623cbdcb675cb801bc79,687ed1b7e638a4cbf2f02089,6880d88e126716178738b784,,,,,,,,,,,,,,0,,,,,,,,,,,,,,,,,,,,,,,,,,,,,,,,,,,,,,,,,,,,,,,,,,,,,,,,,1,terzo,,,,,588.0057,589.4383,0,1,0.9072,,0,82,82,0,1,REAL,FAKE,,,,,,,,,,,,,,,,,
,,,,,,,,,651d623cbdcb675cb801bc79,Spanish,13 or older,"no, only English or Spanish",no,2025-07-23_08h43.28.390,empathy_intonation_perc,2024.2.4,Win32,59.88023952,651d623cbdcb675cb801bc79,687ed1b7e638a4cbf2f02089,6880d88e126716178738b784,,,,,,,,,,,,,,0,,,,,,,,,,,,,,,,,,,,,,,,,,,,,,,,,,,,,,,,,,,,,,,,,,,,,,,,,16,abracer,,,,,589.439,591.1717,1,0,1.202,,0,83,83,15,1,REAL,FAKE,,,,,,,,,,,,,,,,,
,,,,,,,,,651d623cbdcb675cb801bc79,Spanish,13 or older,"no, only English or Spanish",no,2025-07-23_08h43.28.390,empathy_intonation_perc,2024.2.4,Win32,59.88023952,651d623cbdcb675cb801bc79,687ed1b7e638a4cbf2f02089,6880d88e126716178738b784,,,,,,,,,,,,,,1,,,,,,,,,,,,,,,,,,,,,,,,,,,,,,,,,,,,,,,,,,,,,,,,,,,,,,,,,54,fomentar,,,,,591.1724,592.4384,0,0,0.7394,,0,84,84,53,1,REAL,FAKE,,,,,,,,,,,,,,,,,
,,,,,,,,,651d623cbdcb675cb801bc79,Spanish,13 or older,"no, only English or Spanish",no,2025-07-23_08h43.28.390,empathy_intonation_perc,2024.2.4,Win32,59.88023952,651d623cbdcb675cb801bc79,687ed1b7e638a4cbf2f02089,6880d88e126716178738b784,,,,,,,,,,,,,,1,,,,,,,,,,,,,,,,,,,,,,,,,,,,,,,,,,,,,,,,,,,,,,,,,,,,,,,,,37,granuja,,,,,592.4391,593.8217,0,0,0.8488,,0,85,85,36,1,REAL,FAKE,,,,,,,,,,,,,,,,,
,,,,,,,,,651d623cbdcb675cb801bc79,Spanish,13 or older,"no, only English or Spanish",no,2025-07-23_08h43.28.390,empathy_intonation_perc,2024.2.4,Win32,59.88023952,651d623cbdcb675cb801bc79,687ed1b7e638a4cbf2f02089,6880d88e126716178738b784,,,,,,,,,,,,,,1,,,,,,,,,,,,,,,,,,,,,,,,,,,,,,,,,,,,,,,,,,,,,,,,,,,,,,,,,77,tiburón,,,,,593.8225,594.9885,0,0,0.6333,,0,86,86,76,1,REAL,FAKE,,,,,,,,,,,,,,,,,
,,,,,,,,,651d623cbdcb675cb801bc79,Spanish,13 or older,"no, only English or Spanish",no,2025-07-23_08h43.28.390,empathy_intonation_perc,2024.2.4,Win32,59.88023952,651d623cbdcb675cb801bc79,687ed1b7e638a4cbf2f02089,6880d88e126716178738b784,,,,,,,,,,,,,,1,,,,,,,,,,,,,,,,,,,,,,,,,,,,,,,,,,,,,,,,,,,,,,,,,,,,,,,,,80,hormiga,,,,,594.9891,596.4218,0,0,0.8973,,0,87,87,79,1,REAL,FAKE,,,,,,,,,,,,,,,,,
,,,,,,,,,651d623cbdcb675cb801bc79,Spanish,13 or older,"no, only English or Spanish",no,2025-07-23_08h43.28.390,empathy_intonation_perc,2024.2.4,Win32,59.88023952,651d623cbdcb675cb801bc79,687ed1b7e638a4cbf2f02089,6880d88e126716178738b784,,,,,,,,,,,,,,0,,,,,,,,,,,,,,,,,,,,,,,,,,,,,,,,,,,,,,,,,,,,,,,,,,,,,,,,,66,hacido,,,,,596.4226,597.4553,0,1,0.497,,0,88,88,65,1,REAL,FAKE,,,,,,,,,,,,,,,,,
,,,,,,,,,651d623cbdcb675cb801bc79,Spanish,13 or older,"no, only English or Spanish",no,2025-07-23_08h43.28.390,empathy_intonation_perc,2024.2.4,Win32,59.88023952,651d623cbdcb675cb801bc79,687ed1b7e638a4cbf2f02089,6880d88e126716178738b784,,,,,,,,,,,,,,1,,,,,,,,,,,,,,,,,,,,,,,,,,,,,,,,,,,,,,,,,,,,,,,,,,,,,,,,,73,hervidor,,,,,597.4558,598.7219,0,0,0.7365,,0,89,89,72,1,REAL,FAKE,,,,,,,,,,,,,,,,,
,,,,,,,,,651d623cbdcb675cb801bc79,Spanish,13 or older,"no, only English or Spanish",no,2025-07-23_08h43.28.390,empathy_intonation_perc,2024.2.4,Win32,59.88023952,651d623cbdcb675cb801bc79,687ed1b7e638a4cbf2f02089,6880d88e126716178738b784,,,,,,,,,,,,,,0,,,,,,,,,,,,,,,,,,,,,,,,,,,,,,,,,,,,,,,,,,,,,,,,,,,,,,,,,17,floroso,,,,,598.7226,599.8386,1,0,0.5891,,0,90,90,16,1,REAL,FAKE,,,,,,,,,,,,,,,,,
,,,,,,,,,651d623cbdcb675cb801bc79,Spanish,13 or older,"no, only English or Spanish",no,2025-07-23_08h43.28.390,empathy_intonation_perc,2024.2.4,Win32,59.88023952,651d623cbdcb675cb801bc79,687ed1b7e638a4cbf2f02089,6880d88e126716178738b784,,,,,,,,,,,,,,1,,,,,,,,,,,,,,,,,,,,,,,,,,,,,,,,,,,,,,,,,,,,,,,,,,,,,,,,,15,regar,,,,,599.8393,601.3554,0,0,0.985,,0,91,91,14,1,REAL,FAKE,,,,,,,,,,,,,,,,,
,,,,,,,,,651d623cbdcb675cb801bc79,Spanish,13 or older,"no, only English or Spanish",no,2025-07-23_08h43.28.390,empathy_intonation_perc,2024.2.4,Win32,59.88023952,651d623cbdcb675cb801bc79,687ed1b7e638a4cbf2f02089,6880d88e126716178738b784,,,,,,,,,,,,,,,,,,,,,,,,,,,,,,,,,,,,,,,,,,,,,,,,,,,,,,,,,,,,,,,,,,,,,,,,,,,,,,,,,,,,,,,,,,601.3558,608.5727,,,,,,,,,,,,,,,
,,,,,,,,,651d623cbdcb675cb801bc79,Spanish,13 or older,"no, only English or Spanish",no,2025-07-23_08h43.28.390,empathy_intonation_perc,2024.2.4,Win32,59.88023952,651d623cbdcb675cb801bc79,687ed1b7e638a4cbf2f02089,6880d88e126716178738b784,,,,,,,,,,,,,1,,,,,,,,,,,,,,,,,,,,,,,,,,,,,,,,,,,,,,,,,,,,,,,,,,,,,,,,,,,,,,,,,,,,,,,,,,,,,,,608.5813,614.7063,strongly agree,0,0,0,0,1,I can easily tell if someone else wants to enter a conversation.,1,0,1,0,,
,,,,,,,,,651d623cbdcb675cb801bc79,Spanish,13 or older,"no, only English or Spanish",no,2025-07-23_08h43.28.390,empathy_intonation_perc,2024.2.4,Win32,59.88023952,651d623cbdcb675cb801bc79,687ed1b7e638a4cbf2f02089,6880d88e126716178738b784,,,,,,,,,,,,,2,,,,,,,,,,,,,,,,,,,,,,,,,,,,,,,,,,,,,,,,,,,,,,,,,,,,,,,,,,,,,,,,,,,,,,,,,,,,,,,614.7082,617.7726,slightly agree,0,1,1,1,1,I prefer animals to humans.,0,1,0,0,,
,,,,,,,,,651d623cbdcb675cb801bc79,Spanish,13 or older,"no, only English or Spanish",no,2025-07-23_08h43.28.390,empathy_intonation_perc,2024.2.4,Win32,59.88023952,651d623cbdcb675cb801bc79,687ed1b7e638a4cbf2f02089,6880d88e126716178738b784,,,,,,,,,,,,,3,,,,,,,,,,,,,,,,,,,,,,,,,,,,,,,,,,,,,,,,,,,,,,,,,,,,,,,,,,,,,,,,,,,,,,,,,,,,,,,617.7747,620.9227,slightly agree,0,2,2,2,1,I try to keep up with the current trends and fashions.,0,1,0,0,,
,,,,,,,,,651d623cbdcb675cb801bc79,Spanish,13 or older,"no, only English or Spanish",no,2025-07-23_08h43.28.390,empathy_intonation_perc,2024.2.4,Win32,59.88023952,651d623cbdcb675cb801bc79,687ed1b7e638a4cbf2f02089,6880d88e126716178738b784,,,,,,,,,,,,,4,,,,,,,,,,,,,,,,,,,,,,,,,,,,,,,,,,,,,,,,,,,,,,,,,,,,,,,,,,,,,,,,,,,,,,,,,,,,,,,620.9245,626.8063,slightly disagree,0,3,3,3,1,"I find it difficult to explain to others things that I understand easily,   when they don't understand it first time.",1,0,0,1,,
,,,,,,,,,651d623cbdcb675cb801bc79,Spanish,13 or older,"no, only English or Spanish",no,2025-07-23_08h43.28.390,empathy_intonation_perc,2024.2.4,Win32,59.88023952,651d623cbdcb675cb801bc79,687ed1b7e638a4cbf2f02089,6880d88e126716178738b784,,,,,,,,,,,,,5,,,,,,,,,,,,,,,,,,,,,,,,,,,,,,,,,,,,,,,,,,,,,,,,,,,,,,,,,,,,,,,,,,,,,,,,,,,,,,,626.8073,628.6731,strongly agree,0,4,4,4,1,I dream most nights.,0,1,0,0,,
,,,,,,,,,651d623cbdcb675cb801bc79,Spanish,13 or older,"no, only English or Spanish",no,2025-07-23_08h43.28.390,empathy_intonation_perc,2024.2.4,Win32,59.88023952,651d623cbdcb675cb801bc79,687ed1b7e638a4cbf2f02089,6880d88e126716178738b784,,,,,,,,,,,,,6,,,,,,,,,,,,,,,,,,,,,,,,,,,,,,,,,,,,,,,,,,,,,,,,,,,,,,,,,,,,,,,,,,,,,,,,,,,,,,,628.675,630.423,strongly agree,0,5,5,5,1,I really enjoy caring for other people.,1,0,1,0,,
,,,,,,,,,651d623cbdcb675cb801bc79,Spanish,13 or older,"no, only English or Spanish",no,2025-07-23_08h43.28.390,empathy_intonation_perc,2024.2.4,Win32,59.88023952,651d623cbdcb675cb801bc79,687ed1b7e638a4cbf2f02089,6880d88e126716178738b784,,,,,,,,,,,,,7,,,,,,,,,,,,,,,,,,,,,,,,,,,,,,,,,,,,,,,,,,,,,,,,,,,,,,,,,,,,,,,,,,,,,,,,,,,,,,,630.4248,633.0732,strongly agree,0,6,6,6,1,I try to solve my own problems rather than discussing them with others.,0,1,0,0,,
,,,,,,,,,651d623cbdcb675cb801bc79,Spanish,13 or older,"no, only English or Spanish",no,2025-07-23_08h43.28.390,empathy_intonation_perc,2024.2.4,Win32,59.88023952,651d623cbdcb675cb801bc79,687ed1b7e638a4cbf2f02089,6880d88e126716178738b784,,,,,,,,,,,,,8,,,,,,,,,,,,,,,,,,,,,,,,,,,,,,,,,,,,,,,,,,,,,,,,,,,,,,,,,,,,,,,,,,,,,,,,,,,,,,,633.0752,636.5903,strongly disagree,0,7,7,7,1,I find it hard to know what to do in a social situation.,1,0,0,1,,
,,,,,,,,,651d623cbdcb675cb801bc79,Spanish,13 or older,"no, only English or Spanish",no,2025-07-23_08h43.28.390,empathy_intonation_perc,2024.2.4,Win32,59.88023952,651d623cbdcb675cb801bc79,687ed1b7e638a4cbf2f02089,6880d88e126716178738b784,,,,,,,,,,,,,9,,,,,,,,,,,,,,,,,,,,,,,,,,,,,,,,,,,,,,,,,,,,,,,,,,,,,,,,,,,,,,,,,,,,,,,,,,,,,,,636.5915,639.44,slightly disagree,0,8,8,8,1,I am at my best first thing in the morning.,0,1,0,0,,
,,,,,,,,,651d623cbdcb675cb801bc79,Spanish,13 or older,"no, only English or Spanish",no,2025-07-23_08h43.28.390,empathy_intonation_perc,2024.2.4,Win32,59.88023952,651d623cbdcb675cb801bc79,687ed1b7e638a4cbf2f02089,6880d88e126716178738b784,,,,,,,,,,,,,10,,,,,,,,,,,,,,,,,,,,,,,,,,,,,,,,,,,,,,,,,,,,,,,,,,,,,,,,,,,,,,,,,,,,,,,,,,,,,,,639.4415,643.4568,strongly disagree,0,9,9,9,1,People often tell me that I went too far in driving my point home in a discussion.,1,0,0,1,,
