instructions_exposure.started,instructions_exposure.stopped,instructions_exposure_loop.thisRepN,instructions_exposure_loop.thisTrialN,instructions_exposure_loop.thisN,instructions_exposure_loop.thisIndex,instructions_exposure_loop.ran,instructions_text,continue_text,participant_id,"What variety of Spanish are you most familiar with? (e.g., Peruvian, Spanish, Mexican)",At what age did you begin learning Spanish?,Are you proficient in any languages other than English/Spanish?,"Are you familiar with Caribbean (e.g., Caribbean, Puerto Rican) or Galician Spanish?",date,expName,psychopyVersion,OS,frameRate,id,study_id,session,trial_exposure.started,trial_exposure.stopped,key_resp_exposure.keys,key_resp_exposure.corr,key_resp_exposure.rt,key_resp_exposure.duration,key_resp.keys,exposure_loop.thisRepN,exposure_loop.thisTrialN,exposure_loop.thisN,exposure_loop.thisIndex,exposure_loop.ran,item_num,correct_response,question,path,duration,instructions_2afc.started,instructions_2afc.stopped,instructions_2afc_loop.thisRepN,instructions_2afc_loop.thisTrialN,instructions_2afc_loop.thisN,instructions_2afc_loop.thisIndex,instructions_2afc_loop.ran,practice_2afc.started,practice_2afc.stopped,key_resp_2afc_practice.keys,key_resp_2afc_practice.corr,key_resp_2afc_practice.rt,key_resp_2afc_practice.duration,trials_2afc_practice_loop.thisRepN,trials_2afc_practice_loop.thisTrialN,trials_2afc_practice_loop.thisN,trials_2afc_practice_loop.thisIndex,trials_2afc_practice_loop.ran,check_2afc.started,check_2afc.stopped,trial_2afc.started,trial_2afc.stopped,key_resp_2afc_trial.keys,key_resp_2afc_trial.corr,key_resp_2afc_trial.rt,key_resp_2afc_trial.duration,trials_2afc_loop.thisRepN,trials_2afc_loop.thisTrialN,trials_2afc_loop.thisN,trials_2afc_loop.thisIndex,trials_2afc_loop.ran,target,variety,instructions_lextale.started,instructions_lextale.stopped,instructions_lextale_loop.thisRepN,instructions_lextale_loop.thisTrialN,instructions_lextale_loop.thisN,instructions_lextale_loop.thisIndex,instructions_lextale_loop.ran,practice_lextale.started,practice_lextale.stopped,key_resp_lextale_practice.keys,key_resp_lextale_practice.corr,key_resp_lextale_practice.rt,key_resp_lextale_practice.duration,practice_feedback_lextale.started,practice_feedback_lextale.stopped,trials_lextale_practice_loop.thisRepN,trials_lextale_practice_loop.thisTrialN,trials_lextale_practice_loop.thisN,trials_lextale_practice_loop.thisIndex,trials_lextale_practice_loop.ran,stim,word,prac_button_real,prac_button_false,check_lextale.started,check_lextale.stopped,trial_lextale.started,trial_lextale.stopped,key_resp_lextale_trial.keys,key_resp_lextale_trial.corr,key_resp_lextale_trial.rt,key_resp_lextale_trial.duration,trials_lextale_loop.thisRepN,trials_lextale_loop.thisTrialN,trials_lextale_loop.thisN,trials_lextale_loop.thisIndex,trials_lextale_loop.ran,button_real,button_false,instructions_eq.started,instructions_eq.stopped,trial_eq.started,trial_eq.stopped,slider_eq_trial.response,trials_eq_loop.thisRepN,trials_eq_loop.thisTrialN,trials_eq_loop.thisN,trials_eq_loop.thisIndex,trials_eq_loop.ran,item,is_test_item,is_distractor,is_agree_score,is_disagree_score,end_exp.started,end_exp.stopped
0.0127,3.2614,0,0,0,0,1,"In the following task, you are going to hear a series of conversations.", (press the space bar to continue),653fb726d2b45b03e76d0c42,Mexican,13 or older,"no, only English or Spanish",yes,2025-08-12_14h49.06.548,empathy_intonation_perc,2024.2.4,MacIntel,58.82352941,653fb726d2b45b03e76d0c42,687ed1b7e638a4cbf2f02089,689b8c7f86da6a988eccd865,,,,,,,,,,,,,,,,,,,,,,,,,,,,,,,,,,,,,,,,,,,,,,,,,,,,,,,,,,,,,,,,,,,,,,,,,,,,,,,,,,,,,,,,,,,,,,,,,,,,,,,,,,
3.2617,5.3382,0,1,1,1,1,It is okay if you don't not 100% understand them!, (press the space bar to continue),653fb726d2b45b03e76d0c42,Mexican,13 or older,"no, only English or Spanish",yes,2025-08-12_14h49.06.548,empathy_intonation_perc,2024.2.4,MacIntel,58.82352941,653fb726d2b45b03e76d0c42,687ed1b7e638a4cbf2f02089,689b8c7f86da6a988eccd865,,,,,,,,,,,,,,,,,,,,,,,,,,,,,,,,,,,,,,,,,,,,,,,,,,,,,,,,,,,,,,,,,,,,,,,,,,,,,,,,,,,,,,,,,,,,,,,,,,,,,,,,,,
5.3389,7.941,0,2,2,2,1,"After, you will read a sentence about the conversation and decide if it's true or false.", (press the space bar to continue),653fb726d2b45b03e76d0c42,Mexican,13 or older,"no, only English or Spanish",yes,2025-08-12_14h49.06.548,empathy_intonation_perc,2024.2.4,MacIntel,58.82352941,653fb726d2b45b03e76d0c42,687ed1b7e638a4cbf2f02089,689b8c7f86da6a988eccd865,,,,,,,,,,,,,,,,,,,,,,,,,,,,,,,,,,,,,,,,,,,,,,,,,,,,,,,,,,,,,,,,,,,,,,,,,,,,,,,,,,,,,,,,,,,,,,,,,,,,,,,,,,
7.9418,11.1462,0,3,3,3,1,"If it's true, press '1' (True) and if it's false press '0' (False).", (press the space bar to continue),653fb726d2b45b03e76d0c42,Mexican,13 or older,"no, only English or Spanish",yes,2025-08-12_14h49.06.548,empathy_intonation_perc,2024.2.4,MacIntel,58.82352941,653fb726d2b45b03e76d0c42,687ed1b7e638a4cbf2f02089,689b8c7f86da6a988eccd865,,,,,,,,,,,,,,,,,,,,,,,,,,,,,,,,,,,,,,,,,,,,,,,,,,,,,,,,,,,,,,,,,,,,,,,,,,,,,,,,,,,,,,,,,,,,,,,,,,,,,,,,,,
,,,,,,,,,653fb726d2b45b03e76d0c42,Mexican,13 or older,"no, only English or Spanish",yes,2025-08-12_14h49.06.548,empathy_intonation_perc,2024.2.4,MacIntel,58.82352941,653fb726d2b45b03e76d0c42,687ed1b7e638a4cbf2f02089,689b8c7f86da6a988eccd865,11.1514,63.084,0,0,4.8581,,,0,0,0,0,1,1,1,The son asked the mom if Aunt Marina is okay.,./stim/exposure_wavs/ga_stimuli_convo.wav,47,,,,,,,,,,,,,,,,,,,,,,,,,,,,,,,,,,,,,,,,,,,,,,,,,,,,,,,,,,,,,,,,,,,,,,,,,,,,,,,,,,,,,,,,,
,,,,,,,,,653fb726d2b45b03e76d0c42,Mexican,13 or older,"no, only English or Spanish",yes,2025-08-12_14h49.06.548,empathy_intonation_perc,2024.2.4,MacIntel,58.82352941,653fb726d2b45b03e76d0c42,687ed1b7e638a4cbf2f02089,689b8c7f86da6a988eccd865,63.0852,127.0555,1,1,3.9255,,,0,1,1,1,1,2,1,The mom asked the daughter if she already went to the supermarket.,./stim/exposure_wavs/dr_stimuli_convo.wav,60,,,,,,,,,,,,,,,,,,,,,,,,,,,,,,,,,,,,,,,,,,,,,,,,,,,,,,,,,,,,,,,,,,,,,,,,,,,,,,,,,,,,,,,,,
,,,,,,,,,653fb726d2b45b03e76d0c42,Mexican,13 or older,"no, only English or Spanish",yes,2025-08-12_14h49.06.548,empathy_intonation_perc,2024.2.4,MacIntel,58.82352941,653fb726d2b45b03e76d0c42,687ed1b7e638a4cbf2f02089,689b8c7f86da6a988eccd865,127.0563,167.6604,1,0,4.5773,,,0,2,2,2,1,3,0,The mom already has rice.,./stim/exposure_wavs/pr_stimuli_convo.wav,36,,,,,,,,,,,,,,,,,,,,,,,,,,,,,,,,,,,,,,,,,,,,,,,,,,,,,,,,,,,,,,,,,,,,,,,,,,,,,,,,,,,,,,,,,
,,,,,,,"In the following task you are going to hear a series of utterances. 

  You will decide if the utterances sound like questions or not using your keyboard.", (press the spacebar to continue),653fb726d2b45b03e76d0c42,Mexican,13 or older,"no, only English or Spanish",yes,2025-08-12_14h49.06.548,empathy_intonation_perc,2024.2.4,MacIntel,58.82352941,653fb726d2b45b03e76d0c42,687ed1b7e638a4cbf2f02089,689b8c7f86da6a988eccd865,,,,,,,,,,,,,,,,,,167.664,171.7882,0,0,0,0,1,,,,,,,,,,,,,,,,,,,,,,,,,,,,,,,,,,,,,,,,,,,,,,,,,,,,,,,,,,,,,,,,,,,,,,,,,,,,,,,,,,
,,,,,,,"If you believe the utterance is a question, type '1' (for 'yes') and if you do not 
  believe it is a question type '0' (for 'no').

  Let's practice a bit...", (press the spacebar to continue),653fb726d2b45b03e76d0c42,Mexican,13 or older,"no, only English or Spanish",yes,2025-08-12_14h49.06.548,empathy_intonation_perc,2024.2.4,MacIntel,58.82352941,653fb726d2b45b03e76d0c42,687ed1b7e638a4cbf2f02089,689b8c7f86da6a988eccd865,,,,,,,,,,,,,,,,,,171.789,174.623,0,1,1,1,1,,,,,,,,,,,,,,,,,,,,,,,,,,,,,,,,,,,,,,,,,,,,,,,,,,,,,,,,,,,,,,,,,,,,,,,,,,,,,,,,,,
,,,,,,,,,653fb726d2b45b03e76d0c42,Mexican,13 or older,"no, only English or Spanish",yes,2025-08-12_14h49.06.548,empathy_intonation_perc,2024.2.4,MacIntel,58.82352941,653fb726d2b45b03e76d0c42,687ed1b7e638a4cbf2f02089,689b8c7f86da6a988eccd865,,,,,,,,,,,,,,1,,./stim/wavs/argentine_question_filler_Mi-vecino-habla-mucho.wav,,,,,,,,,174.6266,179.8424,1,1,4.6913,,0,0,0,1,1,,,,,,,,,,,,,,,,,,,,,,,,,,,,,,,,,,,,,,,,,,,,,,,,,,,,,,,,,,,,,,,,,,,,,,,
,,,,,,,,,653fb726d2b45b03e76d0c42,Mexican,13 or older,"no, only English or Spanish",yes,2025-08-12_14h49.06.548,empathy_intonation_perc,2024.2.4,MacIntel,58.82352941,653fb726d2b45b03e76d0c42,687ed1b7e638a4cbf2f02089,689b8c7f86da6a988eccd865,,,,,,,,,,,,,,0,,./stim/wavs/cuban_statement_filler_Cocinabas-por-la-noche.wav,,,,,,,,,179.8427,185.287,0,1,4.9045,,0,1,1,4,1,,,,,,,,,,,,,,,,,,,,,,,,,,,,,,,,,,,,,,,,,,,,,,,,,,,,,,,,,,,,,,,,,,,,,,,
,,,,,,,,,653fb726d2b45b03e76d0c42,Mexican,13 or older,"no, only English or Spanish",yes,2025-08-12_14h49.06.548,empathy_intonation_perc,2024.2.4,MacIntel,58.82352941,653fb726d2b45b03e76d0c42,687ed1b7e638a4cbf2f02089,689b8c7f86da6a988eccd865,,,,,,,,,,,,,,0,,./stim/wavs/peruvian_statement_filler_El-nino-habla-con-su-madre.wav,,,,,,,,,185.2872,189.1854,0,1,3.3773,,0,2,2,6,1,,,,,,,,,,,,,,,,,,,,,,,,,,,,,,,,,,,,,,,,,,,,,,,,,,,,,,,,,,,,,,,,,,,,,,,
,,,,,,,,,653fb726d2b45b03e76d0c42,Mexican,13 or older,"no, only English or Spanish",yes,2025-08-12_14h49.06.548,empathy_intonation_perc,2024.2.4,MacIntel,58.82352941,653fb726d2b45b03e76d0c42,687ed1b7e638a4cbf2f02089,689b8c7f86da6a988eccd865,,,,,,,,,,,,,,0,,./stim/wavs/puertorican_statement_filler_La-nina-pinta-con-su-amiga.wav,,,,,,,,,189.1856,193.0567,0,1,3.3479,,0,3,3,7,1,,,,,,,,,,,,,,,,,,,,,,,,,,,,,,,,,,,,,,,,,,,,,,,,,,,,,,,,,,,,,,,,,,,,,,,
,,,,,,,,,653fb726d2b45b03e76d0c42,Mexican,13 or older,"no, only English or Spanish",yes,2025-08-12_14h49.06.548,empathy_intonation_perc,2024.2.4,MacIntel,58.82352941,653fb726d2b45b03e76d0c42,687ed1b7e638a4cbf2f02089,689b8c7f86da6a988eccd865,,,,,,,,,,,,,,1,,./stim/wavs/chilean_question_filler_Mi-padre-cantaba-bien.wav,,,,,,,,,193.057,196.7456,1,1,3.1525,,0,4,4,2,1,,,,,,,,,,,,,,,,,,,,,,,,,,,,,,,,,,,,,,,,,,,,,,,,,,,,,,,,,,,,,,,,,,,,,,,
,,,,,,,,,653fb726d2b45b03e76d0c42,Mexican,13 or older,"no, only English or Spanish",yes,2025-08-12_14h49.06.548,empathy_intonation_perc,2024.2.4,MacIntel,58.82352941,653fb726d2b45b03e76d0c42,687ed1b7e638a4cbf2f02089,689b8c7f86da6a988eccd865,,,,,,,,,,,,,,1,,./stim/wavs/mexican_question_filler_Felipe-no-tiene-contrasena.wav,,,,,,,,,196.7458,200.4373,1,1,3.1559,,0,5,5,3,1,,,,,,,,,,,,,,,,,,,,,,,,,,,,,,,,,,,,,,,,,,,,,,,,,,,,,,,,,,,,,,,,,,,,,,,
,,,,,,,,,653fb726d2b45b03e76d0c42,Mexican,13 or older,"no, only English or Spanish",yes,2025-08-12_14h49.06.548,empathy_intonation_perc,2024.2.4,MacIntel,58.82352941,653fb726d2b45b03e76d0c42,687ed1b7e638a4cbf2f02089,689b8c7f86da6a988eccd865,,,,,,,,,,,,,,1,,./stim/wavs/castilian_question_filler_Mi-esposo-conoce-al-chico.wav,,,,,,,,,200.4376,203.882,1,1,2.9239,,0,6,6,0,1,,,,,,,,,,,,,,,,,,,,,,,,,,,,,,,,,,,,,,,,,,,,,,,,,,,,,,,,,,,,,,,,,,,,,,,
,,,,,,,,,653fb726d2b45b03e76d0c42,Mexican,13 or older,"no, only English or Spanish",yes,2025-08-12_14h49.06.548,empathy_intonation_perc,2024.2.4,MacIntel,58.82352941,653fb726d2b45b03e76d0c42,687ed1b7e638a4cbf2f02089,689b8c7f86da6a988eccd865,,,,,,,,,,,,,,0,,./stim/wavs/andalusian_statement_filler_Alberto-nunca-se-afeita.wav,,,,,,,,,203.8822,207.5576,0,1,3.1343,,0,7,7,5,1,,,,,,,,,,,,,,,,,,,,,,,,,,,,,,,,,,,,,,,,,,,,,,,,,,,,,,,,,,,,,,,,,,,,,,,
,,,,,,,,,653fb726d2b45b03e76d0c42,Mexican,13 or older,"no, only English or Spanish",yes,2025-08-12_14h49.06.548,empathy_intonation_perc,2024.2.4,MacIntel,58.82352941,653fb726d2b45b03e76d0c42,687ed1b7e638a4cbf2f02089,689b8c7f86da6a988eccd865,,,,,,,,,,,,,,,,,,,,,,,,,,,,,,,,,,,,207.5589,211.4323,,,,,,,,,,,,,,,,,,,,,,,,,,,,,,,,,,,,,,,,,,,,,,,,,,,,,,,,,,,,,,,,,,,,,
,,,,,,,,,653fb726d2b45b03e76d0c42,Mexican,13 or older,"no, only English or Spanish",yes,2025-08-12_14h49.06.548,empathy_intonation_perc,2024.2.4,MacIntel,58.82352941,653fb726d2b45b03e76d0c42,687ed1b7e638a4cbf2f02089,689b8c7f86da6a988eccd865,,,,,,,,,,,,,53,0,,./stim/wavs/cuban_match_declarative-broad-focus_Manuela-vende-el-carro.wav,,,,,,,,,,,,,,,,,,,,,,211.4385,215.0099,0,1,3.05,,0,0,0,52,1,0,cuban,,,,,,,,,,,,,,,,,,,,,,,,,,,,,,,,,,,,,,,,,,,,,,,,,,,,,,,,
,,,,,,,,,653fb726d2b45b03e76d0c42,Mexican,13 or older,"no, only English or Spanish",yes,2025-08-12_14h49.06.548,empathy_intonation_perc,2024.2.4,MacIntel,58.82352941,653fb726d2b45b03e76d0c42,687ed1b7e638a4cbf2f02089,689b8c7f86da6a988eccd865,,,,,,,,,,,,,42,1,,./stim/wavs/puertorican_mismatch_interrogative-total-yn_La-maestra-vive-en-Paris.wav,,,,,,,,,,,,,,,,,,,,,,215.0102,218.0093,0,0,2.4586,,0,1,1,41,1,1,puertorican,,,,,,,,,,,,,,,,,,,,,,,,,,,,,,,,,,,,,,,,,,,,,,,,,,,,,,,,
,,,,,,,,,653fb726d2b45b03e76d0c42,Mexican,13 or older,"no, only English or Spanish",yes,2025-08-12_14h49.06.548,empathy_intonation_perc,2024.2.4,MacIntel,58.82352941,653fb726d2b45b03e76d0c42,687ed1b7e638a4cbf2f02089,689b8c7f86da6a988eccd865,,,,,,,,,,,,,18,1,,./stim/wavs/mexican_match_interrogative-total-yn_Marta-abre-el-regalo.wav,,,,,,,,,,,,,,,,,,,,,,218.0095,220.9689,1,1,2.4207,,0,2,2,17,1,0,mexican,,,,,,,,,,,,,,,,,,,,,,,,,,,,,,,,,,,,,,,,,,,,,,,,,,,,,,,,
,,,,,,,,,653fb726d2b45b03e76d0c42,Mexican,13 or older,"no, only English or Spanish",yes,2025-08-12_14h49.06.548,empathy_intonation_perc,2024.2.4,MacIntel,58.82352941,653fb726d2b45b03e76d0c42,687ed1b7e638a4cbf2f02089,689b8c7f86da6a988eccd865,,,,,,,,,,,,,44,1,,./stim/wavs/puertorican_mismatch_interrogative-total-yn_Mi-madre-come-la-fruta.wav,,,,,,,,,,,,,,,,,,,,,,220.9691,224.7939,0,0,3.2814,,0,3,3,43,1,1,puertorican,,,,,,,,,,,,,,,,,,,,,,,,,,,,,,,,,,,,,,,,,,,,,,,,,,,,,,,,
,,,,,,,,,653fb726d2b45b03e76d0c42,Mexican,13 or older,"no, only English or Spanish",yes,2025-08-12_14h49.06.548,empathy_intonation_perc,2024.2.4,MacIntel,58.82352941,653fb726d2b45b03e76d0c42,687ed1b7e638a4cbf2f02089,689b8c7f86da6a988eccd865,,,,,,,,,,,,,11,1,,./stim/wavs/cuban_match_interrogative-total-yn_Mariano-habla-del-tiempo.wav,,,,,,,,,,,,,,,,,,,,,,224.7941,227.9029,0,0,2.581,,0,4,4,10,1,1,cuban,,,,,,,,,,,,,,,,,,,,,,,,,,,,,,,,,,,,,,,,,,,,,,,,,,,,,,,,
,,,,,,,,,653fb726d2b45b03e76d0c42,Mexican,13 or older,"no, only English or Spanish",yes,2025-08-12_14h49.06.548,empathy_intonation_perc,2024.2.4,MacIntel,58.82352941,653fb726d2b45b03e76d0c42,687ed1b7e638a4cbf2f02089,689b8c7f86da6a988eccd865,,,,,,,,,,,,,62,0,,./stim/wavs/mexican_match_declarative-broad-focus_Marta-abre-el-regalo.wav,,,,,,,,,,,,,,,,,,,,,,227.9032,230.4478,0,1,2.0078,,0,5,5,61,1,0,mexican,,,,,,,,,,,,,,,,,,,,,,,,,,,,,,,,,,,,,,,,,,,,,,,,,,,,,,,,
,,,,,,,,,653fb726d2b45b03e76d0c42,Mexican,13 or older,"no, only English or Spanish",yes,2025-08-12_14h49.06.548,empathy_intonation_perc,2024.2.4,MacIntel,58.82352941,653fb726d2b45b03e76d0c42,687ed1b7e638a4cbf2f02089,689b8c7f86da6a988eccd865,,,,,,,,,,,,,45,0,,./stim/wavs/castilian_match_declarative-broad-focus_David-leia-el-libro.wav,,,,,,,,,,,,,,,,,,,,,,230.4481,233.1103,0,1,2.1224,,0,6,6,44,1,0,castilian,,,,,,,,,,,,,,,,,,,,,,,,,,,,,,,,,,,,,,,,,,,,,,,,,,,,,,,,
,,,,,,,,,653fb726d2b45b03e76d0c42,Mexican,13 or older,"no, only English or Spanish",yes,2025-08-12_14h49.06.548,empathy_intonation_perc,2024.2.4,MacIntel,58.82352941,653fb726d2b45b03e76d0c42,687ed1b7e638a4cbf2f02089,689b8c7f86da6a988eccd865,,,,,,,,,,,,,77,0,,./stim/wavs/cuban_mismatch_declarative-broad-focus_Mi-novio-viene-del-lago.wav,,,,,,,,,,,,,,,,,,,,,,233.1105,235.7618,0,1,2.1125,,0,7,7,76,1,0,cuban,,,,,,,,,,,,,,,,,,,,,,,,,,,,,,,,,,,,,,,,,,,,,,,,,,,,,,,,
,,,,,,,,,653fb726d2b45b03e76d0c42,Mexican,13 or older,"no, only English or Spanish",yes,2025-08-12_14h49.06.548,empathy_intonation_perc,2024.2.4,MacIntel,58.82352941,653fb726d2b45b03e76d0c42,687ed1b7e638a4cbf2f02089,689b8c7f86da6a988eccd865,,,,,,,,,,,,,80,0,,./stim/wavs/mexican_mismatch_declarative-broad-focus_El-hombre-mira-la-luna.wav,,,,,,,,,,,,,,,,,,,,,,235.762,238.5076,0,1,2.2251,,0,8,8,79,1,0,mexican,,,,,,,,,,,,,,,,,,,,,,,,,,,,,,,,,,,,,,,,,,,,,,,,,,,,,,,,
,,,,,,,,,653fb726d2b45b03e76d0c42,Mexican,13 or older,"no, only English or Spanish",yes,2025-08-12_14h49.06.548,empathy_intonation_perc,2024.2.4,MacIntel,58.82352941,653fb726d2b45b03e76d0c42,687ed1b7e638a4cbf2f02089,689b8c7f86da6a988eccd865,,,,,,,,,,,,,14,1,,./stim/wavs/mexican_match_interrogative-total-yn_Daniel-iba-a-Bolivia.wav,,,,,,,,,,,,,,,,,,,,,,238.5079,241.2249,1,1,2.1737,,0,9,9,13,1,0,mexican,,,,,,,,,,,,,,,,,,,,,,,,,,,,,,,,,,,,,,,,,,,,,,,,,,,,,,,,
,,,,,,,,,653fb726d2b45b03e76d0c42,Mexican,13 or older,"no, only English or Spanish",yes,2025-08-12_14h49.06.548,empathy_intonation_perc,2024.2.4,MacIntel,58.82352941,653fb726d2b45b03e76d0c42,687ed1b7e638a4cbf2f02089,689b8c7f86da6a988eccd865,,,,,,,,,,,,,72,0,,./stim/wavs/castilian_mismatch_declarative-broad-focus_Mi-novio-viene-del-lago.wav,,,,,,,,,,,,,,,,,,,,,,241.2251,244.3311,0,1,2.5664,,0,10,10,71,1,0,castilian,,,,,,,,,,,,,,,,,,,,,,,,,,,,,,,,,,,,,,,,,,,,,,,,,,,,,,,,
,,,,,,,,,653fb726d2b45b03e76d0c42,Mexican,13 or older,"no, only English or Spanish",yes,2025-08-12_14h49.06.548,empathy_intonation_perc,2024.2.4,MacIntel,58.82352941,653fb726d2b45b03e76d0c42,687ed1b7e638a4cbf2f02089,689b8c7f86da6a988eccd865,,,,,,,,,,,,,79,0,,./stim/wavs/mexican_mismatch_declarative-broad-focus_El-bebe-comia-muy-bien.wav,,,,,,,,,,,,,,,,,,,,,,244.3314,248.9268,0,1,4.0742,,0,11,11,78,1,0,mexican,,,,,,,,,,,,,,,,,,,,,,,,,,,,,,,,,,,,,,,,,,,,,,,,,,,,,,,,
,,,,,,,,,653fb726d2b45b03e76d0c42,Mexican,13 or older,"no, only English or Spanish",yes,2025-08-12_14h49.06.548,empathy_intonation_perc,2024.2.4,MacIntel,58.82352941,653fb726d2b45b03e76d0c42,687ed1b7e638a4cbf2f02089,689b8c7f86da6a988eccd865,,,,,,,,,,,,,39,1,,./stim/wavs/mexican_mismatch_interrogative-total-yn_Mi-tia-odia-la-lluvia.wav,,,,,,,,,,,,,,,,,,,,,,248.9271,251.5271,1,1,2.0649,,0,12,12,38,1,0,mexican,,,,,,,,,,,,,,,,,,,,,,,,,,,,,,,,,,,,,,,,,,,,,,,,,,,,,,,,
,,,,,,,,,653fb726d2b45b03e76d0c42,Mexican,13 or older,"no, only English or Spanish",yes,2025-08-12_14h49.06.548,empathy_intonation_perc,2024.2.4,MacIntel,58.82352941,653fb726d2b45b03e76d0c42,687ed1b7e638a4cbf2f02089,689b8c7f86da6a988eccd865,,,,,,,,,,,,,66,0,,./stim/wavs/puertorican_match_declarative-broad-focus_Emilio-ama-la-marcha.wav,,,,,,,,,,,,,,,,,,,,,,251.5274,254.4257,0,1,2.3747,,0,13,13,65,1,0,puertorican,,,,,,,,,,,,,,,,,,,,,,,,,,,,,,,,,,,,,,,,,,,,,,,,,,,,,,,,
,,,,,,,,,653fb726d2b45b03e76d0c42,Mexican,13 or older,"no, only English or Spanish",yes,2025-08-12_14h49.06.548,empathy_intonation_perc,2024.2.4,MacIntel,58.82352941,653fb726d2b45b03e76d0c42,687ed1b7e638a4cbf2f02089,689b8c7f86da6a988eccd865,,,,,,,,,,,,,9,1,,./stim/wavs/cuban_match_interrogative-total-yn_Manuela-vende-el-carro.wav,,,,,,,,,,,,,,,,,,,,,,254.4259,256.9694,0,0,2.0229,,0,14,14,8,1,1,cuban,,,,,,,,,,,,,,,,,,,,,,,,,,,,,,,,,,,,,,,,,,,,,,,,,,,,,,,,
,,,,,,,,,653fb726d2b45b03e76d0c42,Mexican,13 or older,"no, only English or Spanish",yes,2025-08-12_14h49.06.548,empathy_intonation_perc,2024.2.4,MacIntel,58.82352941,653fb726d2b45b03e76d0c42,687ed1b7e638a4cbf2f02089,689b8c7f86da6a988eccd865,,,,,,,,,,,,,13,1,,./stim/wavs/mexican_match_interrogative-total-yn_Ana-lleva-el-abrigo.wav,,,,,,,,,,,,,,,,,,,,,,256.9698,260.2874,1,1,2.7899,,0,15,15,12,1,0,mexican,,,,,,,,,,,,,,,,,,,,,,,,,,,,,,,,,,,,,,,,,,,,,,,,,,,,,,,,
,,,,,,,,,653fb726d2b45b03e76d0c42,Mexican,13 or older,"no, only English or Spanish",yes,2025-08-12_14h49.06.548,empathy_intonation_perc,2024.2.4,MacIntel,58.82352941,653fb726d2b45b03e76d0c42,687ed1b7e638a4cbf2f02089,689b8c7f86da6a988eccd865,,,,,,,,,,,,,33,1,,./stim/wavs/cuban_mismatch_interrogative-total-yn_Mi-novio-viene-del-lago.wav,,,,,,,,,,,,,,,,,,,,,,260.2876,262.834,0,0,2.0159,,0,16,16,32,1,1,cuban,,,,,,,,,,,,,,,,,,,,,,,,,,,,,,,,,,,,,,,,,,,,,,,,,,,,,,,,
,,,,,,,,,653fb726d2b45b03e76d0c42,Mexican,13 or older,"no, only English or Spanish",yes,2025-08-12_14h49.06.548,empathy_intonation_perc,2024.2.4,MacIntel,58.82352941,653fb726d2b45b03e76d0c42,687ed1b7e638a4cbf2f02089,689b8c7f86da6a988eccd865,,,,,,,,,,,,,43,1,,./stim/wavs/puertorican_mismatch_interrogative-total-yn_La-nina-lava-el-plato.wav,,,,,,,,,,,,,,,,,,,,,,262.8342,265.6217,1,1,2.2633,,0,17,17,42,1,1,puertorican,,,,,,,,,,,,,,,,,,,,,,,,,,,,,,,,,,,,,,,,,,,,,,,,,,,,,,,,
,,,,,,,,,653fb726d2b45b03e76d0c42,Mexican,13 or older,"no, only English or Spanish",yes,2025-08-12_14h49.06.548,empathy_intonation_perc,2024.2.4,MacIntel,58.82352941,653fb726d2b45b03e76d0c42,687ed1b7e638a4cbf2f02089,689b8c7f86da6a988eccd865,,,,,,,,,,,,,56,0,,./stim/wavs/cuban_match_declarative-broad-focus_Marta-abre-el-regalo.wav,,,,,,,,,,,,,,,,,,,,,,265.622,268.4314,0,1,2.2694,,0,18,18,55,1,0,cuban,,,,,,,,,,,,,,,,,,,,,,,,,,,,,,,,,,,,,,,,,,,,,,,,,,,,,,,,
,,,,,,,,,653fb726d2b45b03e76d0c42,Mexican,13 or older,"no, only English or Spanish",yes,2025-08-12_14h49.06.548,empathy_intonation_perc,2024.2.4,MacIntel,58.82352941,653fb726d2b45b03e76d0c42,687ed1b7e638a4cbf2f02089,689b8c7f86da6a988eccd865,,,,,,,,,,,,,82,0,,./stim/wavs/mexican_mismatch_declarative-broad-focus_Mi-novio-viene-del-lago.wav,,,,,,,,,,,,,,,,,,,,,,268.4317,270.6763,0,1,1.7044,,0,19,19,81,1,0,mexican,,,,,,,,,,,,,,,,,,,,,,,,,,,,,,,,,,,,,,,,,,,,,,,,,,,,,,,,
,,,,,,,,,653fb726d2b45b03e76d0c42,Mexican,13 or older,"no, only English or Spanish",yes,2025-08-12_14h49.06.548,empathy_intonation_perc,2024.2.4,MacIntel,58.82352941,653fb726d2b45b03e76d0c42,687ed1b7e638a4cbf2f02089,689b8c7f86da6a988eccd865,,,,,,,,,,,,,54,0,,./stim/wavs/cuban_match_declarative-broad-focus_Maria-bebe-el-vino.wav,,,,,,,,,,,,,,,,,,,,,,270.6765,273.1398,0,1,1.9276,,0,20,20,53,1,0,cuban,,,,,,,,,,,,,,,,,,,,,,,,,,,,,,,,,,,,,,,,,,,,,,,,,,,,,,,,
,,,,,,,,,653fb726d2b45b03e76d0c42,Mexican,13 or older,"no, only English or Spanish",yes,2025-08-12_14h49.06.548,empathy_intonation_perc,2024.2.4,MacIntel,58.82352941,653fb726d2b45b03e76d0c42,687ed1b7e638a4cbf2f02089,689b8c7f86da6a988eccd865,,,,,,,,,,,,,52,0,,./stim/wavs/cuban_match_declarative-broad-focus_Daniel-iba-a-Bolivia.wav,,,,,,,,,,,,,,,,,,,,,,273.1401,275.6738,0,1,1.9972,,0,21,21,51,1,0,cuban,,,,,,,,,,,,,,,,,,,,,,,,,,,,,,,,,,,,,,,,,,,,,,,,,,,,,,,,
,,,,,,,,,653fb726d2b45b03e76d0c42,Mexican,13 or older,"no, only English or Spanish",yes,2025-08-12_14h49.06.548,empathy_intonation_perc,2024.2.4,MacIntel,58.82352941,653fb726d2b45b03e76d0c42,687ed1b7e638a4cbf2f02089,689b8c7f86da6a988eccd865,,,,,,,,,,,,,60,0,,./stim/wavs/mexican_match_declarative-broad-focus_Emilio-ama-la-marcha.wav,,,,,,,,,,,,,,,,,,,,,,275.6741,278.7457,1,0,2.5503,,0,22,22,59,1,0,mexican,,,,,,,,,,,,,,,,,,,,,,,,,,,,,,,,,,,,,,,,,,,,,,,,,,,,,,,,
,,,,,,,,,653fb726d2b45b03e76d0c42,Mexican,13 or older,"no, only English or Spanish",yes,2025-08-12_14h49.06.548,empathy_intonation_perc,2024.2.4,MacIntel,58.82352941,653fb726d2b45b03e76d0c42,687ed1b7e638a4cbf2f02089,689b8c7f86da6a988eccd865,,,,,,,,,,,,,10,1,,./stim/wavs/cuban_match_interrogative-total-yn_Maria-bebe-el-vino.wav,,,,,,,,,,,,,,,,,,,,,,278.7459,281.4182,0,0,2.1515,,0,23,23,9,1,1,cuban,,,,,,,,,,,,,,,,,,,,,,,,,,,,,,,,,,,,,,,,,,,,,,,,,,,,,,,,
,,,,,,,,,653fb726d2b45b03e76d0c42,Mexican,13 or older,"no, only English or Spanish",yes,2025-08-12_14h49.06.548,empathy_intonation_perc,2024.2.4,MacIntel,58.82352941,653fb726d2b45b03e76d0c42,687ed1b7e638a4cbf2f02089,689b8c7f86da6a988eccd865,,,,,,,,,,,,,59,0,,./stim/wavs/mexican_match_declarative-broad-focus_David-leia-el-libro.wav,,,,,,,,,,,,,,,,,,,,,,281.4184,283.9764,0,1,2.0178,,0,24,24,58,1,0,mexican,,,,,,,,,,,,,,,,,,,,,,,,,,,,,,,,,,,,,,,,,,,,,,,,,,,,,,,,
,,,,,,,,,653fb726d2b45b03e76d0c42,Mexican,13 or older,"no, only English or Spanish",yes,2025-08-12_14h49.06.548,empathy_intonation_perc,2024.2.4,MacIntel,58.82352941,653fb726d2b45b03e76d0c42,687ed1b7e638a4cbf2f02089,689b8c7f86da6a988eccd865,,,,,,,,,,,,,27,1,,./stim/wavs/castilian_mismatch_interrogative-total-yn_Mi-madre-come-la-fruta.wav,,,,,,,,,,,,,,,,,,,,,,283.9767,286.4937,1,1,1.9804,,0,25,25,26,1,0,castilian,,,,,,,,,,,,,,,,,,,,,,,,,,,,,,,,,,,,,,,,,,,,,,,,,,,,,,,,
,,,,,,,,,653fb726d2b45b03e76d0c42,Mexican,13 or older,"no, only English or Spanish",yes,2025-08-12_14h49.06.548,empathy_intonation_perc,2024.2.4,MacIntel,58.82352941,653fb726d2b45b03e76d0c42,687ed1b7e638a4cbf2f02089,689b8c7f86da6a988eccd865,,,,,,,,,,,,,55,0,,./stim/wavs/cuban_match_declarative-broad-focus_Mariano-habla-del-tiempo.wav,,,,,,,,,,,,,,,,,,,,,,286.494,289.1436,0,1,2.1281,,0,26,26,54,1,0,cuban,,,,,,,,,,,,,,,,,,,,,,,,,,,,,,,,,,,,,,,,,,,,,,,,,,,,,,,,
,,,,,,,,,653fb726d2b45b03e76d0c42,Mexican,13 or older,"no, only English or Spanish",yes,2025-08-12_14h49.06.548,empathy_intonation_perc,2024.2.4,MacIntel,58.82352941,653fb726d2b45b03e76d0c42,687ed1b7e638a4cbf2f02089,689b8c7f86da6a988eccd865,,,,,,,,,,,,,86,0,,./stim/wavs/puertorican_mismatch_declarative-broad-focus_El-nino-oye-el-rio.wav,,,,,,,,,,,,,,,,,,,,,,289.1439,292.3327,0,1,2.6515,,0,27,27,85,1,0,puertorican,,,,,,,,,,,,,,,,,,,,,,,,,,,,,,,,,,,,,,,,,,,,,,,,,,,,,,,,
,,,,,,,,,653fb726d2b45b03e76d0c42,Mexican,13 or older,"no, only English or Spanish",yes,2025-08-12_14h49.06.548,empathy_intonation_perc,2024.2.4,MacIntel,58.82352941,653fb726d2b45b03e76d0c42,687ed1b7e638a4cbf2f02089,689b8c7f86da6a988eccd865,,,,,,,,,,,,,63,0,,./stim/wavs/puertorican_match_declarative-broad-focus_Ana-lleva-el-abrigo.wav,,,,,,,,,,,,,,,,,,,,,,292.3329,294.709,0,1,1.8372,,0,28,28,62,1,0,puertorican,,,,,,,,,,,,,,,,,,,,,,,,,,,,,,,,,,,,,,,,,,,,,,,,,,,,,,,,
,,,,,,,,,653fb726d2b45b03e76d0c42,Mexican,13 or older,"no, only English or Spanish",yes,2025-08-12_14h49.06.548,empathy_intonation_perc,2024.2.4,MacIntel,58.82352941,653fb726d2b45b03e76d0c42,687ed1b7e638a4cbf2f02089,689b8c7f86da6a988eccd865,,,,,,,,,,,,,50,0,,./stim/wavs/castilian_match_declarative-broad-focus_Marta-abre-el-regalo.wav,,,,,,,,,,,,,,,,,,,,,,294.7093,297.2702,0,1,2.0188,,0,29,29,49,1,0,castilian,,,,,,,,,,,,,,,,,,,,,,,,,,,,,,,,,,,,,,,,,,,,,,,,,,,,,,,,
,,,,,,,,,653fb726d2b45b03e76d0c42,Mexican,13 or older,"no, only English or Spanish",yes,2025-08-12_14h49.06.548,empathy_intonation_perc,2024.2.4,MacIntel,58.82352941,653fb726d2b45b03e76d0c42,687ed1b7e638a4cbf2f02089,689b8c7f86da6a988eccd865,,,,,,,,,,,,,40,1,,./stim/wavs/puertorican_mismatch_interrogative-total-yn_El-hombre-mira-la-luna.wav,,,,,,,,,,,,,,,,,,,,,,297.2705,299.5581,1,1,1.7665,,0,30,30,39,1,1,puertorican,,,,,,,,,,,,,,,,,,,,,,,,,,,,,,,,,,,,,,,,,,,,,,,,,,,,,,,,
,,,,,,,,,653fb726d2b45b03e76d0c42,Mexican,13 or older,"no, only English or Spanish",yes,2025-08-12_14h49.06.548,empathy_intonation_perc,2024.2.4,MacIntel,58.82352941,653fb726d2b45b03e76d0c42,687ed1b7e638a4cbf2f02089,689b8c7f86da6a988eccd865,,,,,,,,,,,,,65,0,,./stim/wavs/puertorican_match_declarative-broad-focus_David-leia-el-libro.wav,,,,,,,,,,,,,,,,,,,,,,299.5585,301.8228,0,1,1.7376,,0,31,31,64,1,0,puertorican,,,,,,,,,,,,,,,,,,,,,,,,,,,,,,,,,,,,,,,,,,,,,,,,,,,,,,,,
,,,,,,,,,653fb726d2b45b03e76d0c42,Mexican,13 or older,"no, only English or Spanish",yes,2025-08-12_14h49.06.548,empathy_intonation_perc,2024.2.4,MacIntel,58.82352941,653fb726d2b45b03e76d0c42,687ed1b7e638a4cbf2f02089,689b8c7f86da6a988eccd865,,,,,,,,,,,,,17,1,,./stim/wavs/mexican_match_interrogative-total-yn_Mariano-habla-del-tiempo.wav,,,,,,,,,,,,,,,,,,,,,,301.8231,304.5326,1,1,2.1674,,0,32,32,16,1,0,mexican,,,,,,,,,,,,,,,,,,,,,,,,,,,,,,,,,,,,,,,,,,,,,,,,,,,,,,,,
,,,,,,,,,653fb726d2b45b03e76d0c42,Mexican,13 or older,"no, only English or Spanish",yes,2025-08-12_14h49.06.548,empathy_intonation_perc,2024.2.4,MacIntel,58.82352941,653fb726d2b45b03e76d0c42,687ed1b7e638a4cbf2f02089,689b8c7f86da6a988eccd865,,,,,,,,,,,,,8,1,,./stim/wavs/cuban_match_interrogative-total-yn_Daniel-iba-a-Bolivia.wav,,,,,,,,,,,,,,,,,,,,,,304.5329,307.4118,1,1,2.3403,,0,33,33,7,1,1,cuban,,,,,,,,,,,,,,,,,,,,,,,,,,,,,,,,,,,,,,,,,,,,,,,,,,,,,,,,
,,,,,,,,,653fb726d2b45b03e76d0c42,Mexican,13 or older,"no, only English or Spanish",yes,2025-08-12_14h49.06.548,empathy_intonation_perc,2024.2.4,MacIntel,58.82352941,653fb726d2b45b03e76d0c42,687ed1b7e638a4cbf2f02089,689b8c7f86da6a988eccd865,,,,,,,,,,,,,19,1,,./stim/wavs/puertorican_match_interrogative-total-yn_Ana-lleva-el-abrigo.wav,,,,,,,,,,,,,,,,,,,,,,307.4121,309.9131,0,0,1.9798,,0,34,34,18,1,1,puertorican,,,,,,,,,,,,,,,,,,,,,,,,,,,,,,,,,,,,,,,,,,,,,,,,,,,,,,,,
,,,,,,,,,653fb726d2b45b03e76d0c42,Mexican,13 or older,"no, only English or Spanish",yes,2025-08-12_14h49.06.548,empathy_intonation_perc,2024.2.4,MacIntel,58.82352941,653fb726d2b45b03e76d0c42,687ed1b7e638a4cbf2f02089,689b8c7f86da6a988eccd865,,,,,,,,,,,,,4,1,,./stim/wavs/castilian_match_interrogative-total-yn_Maria-bebe-el-vino.wav,,,,,,,,,,,,,,,,,,,,,,309.9134,312.335,1,1,1.8813,,0,35,35,3,1,0,castilian,,,,,,,,,,,,,,,,,,,,,,,,,,,,,,,,,,,,,,,,,,,,,,,,,,,,,,,,
,,,,,,,,,653fb726d2b45b03e76d0c42,Mexican,13 or older,"no, only English or Spanish",yes,2025-08-12_14h49.06.548,empathy_intonation_perc,2024.2.4,MacIntel,58.82352941,653fb726d2b45b03e76d0c42,687ed1b7e638a4cbf2f02089,689b8c7f86da6a988eccd865,,,,,,,,,,,,,46,0,,./stim/wavs/castilian_match_declarative-broad-focus_Emilio-ama-la-marcha.wav,,,,,,,,,,,,,,,,,,,,,,312.3355,315.1681,0,1,2.2928,,0,36,36,45,1,0,castilian,,,,,,,,,,,,,,,,,,,,,,,,,,,,,,,,,,,,,,,,,,,,,,,,,,,,,,,,
,,,,,,,,,653fb726d2b45b03e76d0c42,Mexican,13 or older,"no, only English or Spanish",yes,2025-08-12_14h49.06.548,empathy_intonation_perc,2024.2.4,MacIntel,58.82352941,653fb726d2b45b03e76d0c42,687ed1b7e638a4cbf2f02089,689b8c7f86da6a988eccd865,,,,,,,,,,,,,78,0,,./stim/wavs/cuban_mismatch_declarative-broad-focus_Mi-tia-odia-la-lluvia.wav,,,,,,,,,,,,,,,,,,,,,,315.1683,317.7512,0,1,2.0443,,0,37,37,77,1,0,cuban,,,,,,,,,,,,,,,,,,,,,,,,,,,,,,,,,,,,,,,,,,,,,,,,,,,,,,,,
,,,,,,,,,653fb726d2b45b03e76d0c42,Mexican,13 or older,"no, only English or Spanish",yes,2025-08-12_14h49.06.548,empathy_intonation_perc,2024.2.4,MacIntel,58.82352941,653fb726d2b45b03e76d0c42,687ed1b7e638a4cbf2f02089,689b8c7f86da6a988eccd865,,,,,,,,,,,,,29,1,,./stim/wavs/castilian_mismatch_interrogative-total-yn_Mi-tia-odia-la-lluvia.wav,,,,,,,,,,,,,,,,,,,,,,317.7514,320.2964,1,1,2.0171,,0,38,38,28,1,0,castilian,,,,,,,,,,,,,,,,,,,,,,,,,,,,,,,,,,,,,,,,,,,,,,,,,,,,,,,,
,,,,,,,,,653fb726d2b45b03e76d0c42,Mexican,13 or older,"no, only English or Spanish",yes,2025-08-12_14h49.06.548,empathy_intonation_perc,2024.2.4,MacIntel,58.82352941,653fb726d2b45b03e76d0c42,687ed1b7e638a4cbf2f02089,689b8c7f86da6a988eccd865,,,,,,,,,,,,,61,0,,./stim/wavs/mexican_match_declarative-broad-focus_Mariano-habla-del-tiempo.wav,,,,,,,,,,,,,,,,,,,,,,320.2966,323.1942,0,1,2.3626,,0,39,39,60,1,0,mexican,,,,,,,,,,,,,,,,,,,,,,,,,,,,,,,,,,,,,,,,,,,,,,,,,,,,,,,,
,,,,,,,,,653fb726d2b45b03e76d0c42,Mexican,13 or older,"no, only English or Spanish",yes,2025-08-12_14h49.06.548,empathy_intonation_perc,2024.2.4,MacIntel,58.82352941,653fb726d2b45b03e76d0c42,687ed1b7e638a4cbf2f02089,689b8c7f86da6a988eccd865,,,,,,,,,,,,,25,1,,./stim/wavs/castilian_mismatch_interrogative-total-yn_La-maestra-vive-en-Paris.wav,,,,,,,,,,,,,,,,,,,,,,323.1945,325.9254,1,1,2.1992,,0,40,40,24,1,0,castilian,,,,,,,,,,,,,,,,,,,,,,,,,,,,,,,,,,,,,,,,,,,,,,,,,,,,,,,,
,,,,,,,,,653fb726d2b45b03e76d0c42,Mexican,13 or older,"no, only English or Spanish",yes,2025-08-12_14h49.06.548,empathy_intonation_perc,2024.2.4,MacIntel,58.82352941,653fb726d2b45b03e76d0c42,687ed1b7e638a4cbf2f02089,689b8c7f86da6a988eccd865,,,,,,,,,,,,,67,0,,./stim/wavs/puertorican_match_declarative-broad-focus_Manuela-vende-el-carro.wav,,,,,,,,,,,,,,,,,,,,,,325.9257,328.5613,0,1,2.1153,,0,41,41,66,1,0,puertorican,,,,,,,,,,,,,,,,,,,,,,,,,,,,,,,,,,,,,,,,,,,,,,,,,,,,,,,,
,,,,,,,,,653fb726d2b45b03e76d0c42,Mexican,13 or older,"no, only English or Spanish",yes,2025-08-12_14h49.06.548,empathy_intonation_perc,2024.2.4,MacIntel,58.82352941,653fb726d2b45b03e76d0c42,687ed1b7e638a4cbf2f02089,689b8c7f86da6a988eccd865,,,,,,,,,,,,,16,1,,./stim/wavs/mexican_match_interrogative-total-yn_Emilio-ama-la-marcha.wav,,,,,,,,,,,,,,,,,,,,,,328.5615,331.0743,1,1,1.9764,,0,42,42,15,1,0,mexican,,,,,,,,,,,,,,,,,,,,,,,,,,,,,,,,,,,,,,,,,,,,,,,,,,,,,,,,
,,,,,,,,,653fb726d2b45b03e76d0c42,Mexican,13 or older,"no, only English or Spanish",yes,2025-08-12_14h49.06.548,empathy_intonation_perc,2024.2.4,MacIntel,58.82352941,653fb726d2b45b03e76d0c42,687ed1b7e638a4cbf2f02089,689b8c7f86da6a988eccd865,,,,,,,,,,,,,73,0,,./stim/wavs/castilian_mismatch_declarative-broad-focus_Mi-tia-odia-la-lluvia.wav,,,,,,,,,,,,,,,,,,,,,,331.0745,333.3992,0,1,1.7887,,0,43,43,72,1,0,castilian,,,,,,,,,,,,,,,,,,,,,,,,,,,,,,,,,,,,,,,,,,,,,,,,,,,,,,,,
,,,,,,,,,653fb726d2b45b03e76d0c42,Mexican,13 or older,"no, only English or Spanish",yes,2025-08-12_14h49.06.548,empathy_intonation_perc,2024.2.4,MacIntel,58.82352941,653fb726d2b45b03e76d0c42,687ed1b7e638a4cbf2f02089,689b8c7f86da6a988eccd865,,,,,,,,,,,,,23,1,,./stim/wavs/puertorican_match_interrogative-total-yn_Manuela-vende-el-carro.wav,,,,,,,,,,,,,,,,,,,,,,333.3994,336.3491,1,1,2.4116,,0,44,44,22,1,1,puertorican,,,,,,,,,,,,,,,,,,,,,,,,,,,,,,,,,,,,,,,,,,,,,,,,,,,,,,,,
,,,,,,,,,653fb726d2b45b03e76d0c42,Mexican,13 or older,"no, only English or Spanish",yes,2025-08-12_14h49.06.548,empathy_intonation_perc,2024.2.4,MacIntel,58.82352941,653fb726d2b45b03e76d0c42,687ed1b7e638a4cbf2f02089,689b8c7f86da6a988eccd865,,,,,,,,,,,,,1,1,,./stim/wavs/castilian_match_interrogative-total-yn_David-leia-el-libro.wav,,,,,,,,,,,,,,,,,,,,,,336.3493,338.8851,1,1,2.0121,,0,45,45,0,1,0,castilian,,,,,,,,,,,,,,,,,,,,,,,,,,,,,,,,,,,,,,,,,,,,,,,,,,,,,,,,
,,,,,,,,,653fb726d2b45b03e76d0c42,Mexican,13 or older,"no, only English or Spanish",yes,2025-08-12_14h49.06.548,empathy_intonation_perc,2024.2.4,MacIntel,58.82352941,653fb726d2b45b03e76d0c42,687ed1b7e638a4cbf2f02089,689b8c7f86da6a988eccd865,,,,,,,,,,,,,68,0,,./stim/wavs/puertorican_match_declarative-broad-focus_Maria-bebe-el-vino.wav,,,,,,,,,,,,,,,,,,,,,,338.8855,341.2252,1,0,1.7975,,0,46,46,67,1,0,puertorican,,,,,,,,,,,,,,,,,,,,,,,,,,,,,,,,,,,,,,,,,,,,,,,,,,,,,,,,
,,,,,,,,,653fb726d2b45b03e76d0c42,Mexican,13 or older,"no, only English or Spanish",yes,2025-08-12_14h49.06.548,empathy_intonation_perc,2024.2.4,MacIntel,58.82352941,653fb726d2b45b03e76d0c42,687ed1b7e638a4cbf2f02089,689b8c7f86da6a988eccd865,,,,,,,,,,,,,51,0,,./stim/wavs/cuban_match_declarative-broad-focus_Ana-lleva-el-abrigo.wav,,,,,,,,,,,,,,,,,,,,,,341.2255,343.4601,0,1,1.7136,,0,47,47,50,1,0,cuban,,,,,,,,,,,,,,,,,,,,,,,,,,,,,,,,,,,,,,,,,,,,,,,,,,,,,,,,
,,,,,,,,,653fb726d2b45b03e76d0c42,Mexican,13 or older,"no, only English or Spanish",yes,2025-08-12_14h49.06.548,empathy_intonation_perc,2024.2.4,MacIntel,58.82352941,653fb726d2b45b03e76d0c42,687ed1b7e638a4cbf2f02089,689b8c7f86da6a988eccd865,,,,,,,,,,,,,32,1,,./stim/wavs/cuban_mismatch_interrogative-total-yn_Mi-madre-come-la-fruta.wav,,,,,,,,,,,,,,,,,,,,,,343.4604,346.0961,0,0,2.0991,,0,48,48,31,1,1,cuban,,,,,,,,,,,,,,,,,,,,,,,,,,,,,,,,,,,,,,,,,,,,,,,,,,,,,,,,
,,,,,,,,,653fb726d2b45b03e76d0c42,Mexican,13 or older,"no, only English or Spanish",yes,2025-08-12_14h49.06.548,empathy_intonation_perc,2024.2.4,MacIntel,58.82352941,653fb726d2b45b03e76d0c42,687ed1b7e638a4cbf2f02089,689b8c7f86da6a988eccd865,,,,,,,,,,,,,74,0,,./stim/wavs/cuban_mismatch_declarative-broad-focus_El-bebe-comia-muy-bien.wav,,,,,,,,,,,,,,,,,,,,,,346.0963,348.7241,0,1,2.0898,,0,49,49,73,1,0,cuban,,,,,,,,,,,,,,,,,,,,,,,,,,,,,,,,,,,,,,,,,,,,,,,,,,,,,,,,
,,,,,,,,,653fb726d2b45b03e76d0c42,Mexican,13 or older,"no, only English or Spanish",yes,2025-08-12_14h49.06.548,empathy_intonation_perc,2024.2.4,MacIntel,58.82352941,653fb726d2b45b03e76d0c42,687ed1b7e638a4cbf2f02089,689b8c7f86da6a988eccd865,,,,,,,,,,,,,84,0,,./stim/wavs/puertorican_mismatch_declarative-broad-focus_El-bebe-comia-muy-bien.wav,,,,,,,,,,,,,,,,,,,,,,348.7243,351.2116,0,1,1.9481,,0,50,50,83,1,0,puertorican,,,,,,,,,,,,,,,,,,,,,,,,,,,,,,,,,,,,,,,,,,,,,,,,,,,,,,,,
,,,,,,,,,653fb726d2b45b03e76d0c42,Mexican,13 or older,"no, only English or Spanish",yes,2025-08-12_14h49.06.548,empathy_intonation_perc,2024.2.4,MacIntel,58.82352941,653fb726d2b45b03e76d0c42,687ed1b7e638a4cbf2f02089,689b8c7f86da6a988eccd865,,,,,,,,,,,,,48,0,,./stim/wavs/castilian_match_declarative-broad-focus_Maria-bebe-el-vino.wav,,,,,,,,,,,,,,,,,,,,,,351.212,354.1814,0,1,2.4408,,0,51,51,47,1,0,castilian,,,,,,,,,,,,,,,,,,,,,,,,,,,,,,,,,,,,,,,,,,,,,,,,,,,,,,,,
,,,,,,,,,653fb726d2b45b03e76d0c42,Mexican,13 or older,"no, only English or Spanish",yes,2025-08-12_14h49.06.548,empathy_intonation_perc,2024.2.4,MacIntel,58.82352941,653fb726d2b45b03e76d0c42,687ed1b7e638a4cbf2f02089,689b8c7f86da6a988eccd865,,,,,,,,,,,,,5,1,,./stim/wavs/castilian_match_interrogative-total-yn_Mariano-habla-del-tiempo.wav,,,,,,,,,,,,,,,,,,,,,,354.1816,356.5214,1,1,1.8187,,0,52,52,4,1,0,castilian,,,,,,,,,,,,,,,,,,,,,,,,,,,,,,,,,,,,,,,,,,,,,,,,,,,,,,,,
,,,,,,,,,653fb726d2b45b03e76d0c42,Mexican,13 or older,"no, only English or Spanish",yes,2025-08-12_14h49.06.548,empathy_intonation_perc,2024.2.4,MacIntel,58.82352941,653fb726d2b45b03e76d0c42,687ed1b7e638a4cbf2f02089,689b8c7f86da6a988eccd865,,,,,,,,,,,,,2,1,,./stim/wavs/castilian_match_interrogative-total-yn_Emilio-ama-la-marcha.wav,,,,,,,,,,,,,,,,,,,,,,356.5217,358.7246,1,1,1.6638,,0,53,53,1,1,0,castilian,,,,,,,,,,,,,,,,,,,,,,,,,,,,,,,,,,,,,,,,,,,,,,,,,,,,,,,,
,,,,,,,,,653fb726d2b45b03e76d0c42,Mexican,13 or older,"no, only English or Spanish",yes,2025-08-12_14h49.06.548,empathy_intonation_perc,2024.2.4,MacIntel,58.82352941,653fb726d2b45b03e76d0c42,687ed1b7e638a4cbf2f02089,689b8c7f86da6a988eccd865,,,,,,,,,,,,,88,0,,./stim/wavs/puertorican_mismatch_declarative-broad-focus_La-nina-lava-el-plato.wav,,,,,,,,,,,,,,,,,,,,,,358.7248,360.8711,0,1,1.6066,,0,54,54,87,1,0,puertorican,,,,,,,,,,,,,,,,,,,,,,,,,,,,,,,,,,,,,,,,,,,,,,,,,,,,,,,,
,,,,,,,,,653fb726d2b45b03e76d0c42,Mexican,13 or older,"no, only English or Spanish",yes,2025-08-12_14h49.06.548,empathy_intonation_perc,2024.2.4,MacIntel,58.82352941,653fb726d2b45b03e76d0c42,687ed1b7e638a4cbf2f02089,689b8c7f86da6a988eccd865,,,,,,,,,,,,,36,1,,./stim/wavs/mexican_mismatch_interrogative-total-yn_El-nino-oye-el-rio.wav,,,,,,,,,,,,,,,,,,,,,,360.8714,363.3931,1,1,1.9995,,0,55,55,35,1,0,mexican,,,,,,,,,,,,,,,,,,,,,,,,,,,,,,,,,,,,,,,,,,,,,,,,,,,,,,,,
,,,,,,,,,653fb726d2b45b03e76d0c42,Mexican,13 or older,"no, only English or Spanish",yes,2025-08-12_14h49.06.548,empathy_intonation_perc,2024.2.4,MacIntel,58.82352941,653fb726d2b45b03e76d0c42,687ed1b7e638a4cbf2f02089,689b8c7f86da6a988eccd865,,,,,,,,,,,,,81,0,,./stim/wavs/mexican_mismatch_declarative-broad-focus_La-maestra-vive-en-Paris.wav,,,,,,,,,,,,,,,,,,,,,,363.3934,365.7259,0,1,1.8077,,0,56,56,80,1,0,mexican,,,,,,,,,,,,,,,,,,,,,,,,,,,,,,,,,,,,,,,,,,,,,,,,,,,,,,,,
,,,,,,,,,653fb726d2b45b03e76d0c42,Mexican,13 or older,"no, only English or Spanish",yes,2025-08-12_14h49.06.548,empathy_intonation_perc,2024.2.4,MacIntel,58.82352941,653fb726d2b45b03e76d0c42,687ed1b7e638a4cbf2f02089,689b8c7f86da6a988eccd865,,,,,,,,,,,,,71,0,,./stim/wavs/castilian_mismatch_declarative-broad-focus_La-nina-lava-el-plato.wav,,,,,,,,,,,,,,,,,,,,,,365.726,368.5088,0,1,2.2568,,0,57,57,70,1,0,castilian,,,,,,,,,,,,,,,,,,,,,,,,,,,,,,,,,,,,,,,,,,,,,,,,,,,,,,,,
,,,,,,,,,653fb726d2b45b03e76d0c42,Mexican,13 or older,"no, only English or Spanish",yes,2025-08-12_14h49.06.548,empathy_intonation_perc,2024.2.4,MacIntel,58.82352941,653fb726d2b45b03e76d0c42,687ed1b7e638a4cbf2f02089,689b8c7f86da6a988eccd865,,,,,,,,,,,,,15,1,,./stim/wavs/mexican_match_interrogative-total-yn_David-leia-el-libro.wav,,,,,,,,,,,,,,,,,,,,,,368.5091,370.9637,1,1,1.9334,,0,58,58,14,1,0,mexican,,,,,,,,,,,,,,,,,,,,,,,,,,,,,,,,,,,,,,,,,,,,,,,,,,,,,,,,
,,,,,,,,,653fb726d2b45b03e76d0c42,Mexican,13 or older,"no, only English or Spanish",yes,2025-08-12_14h49.06.548,empathy_intonation_perc,2024.2.4,MacIntel,58.82352941,653fb726d2b45b03e76d0c42,687ed1b7e638a4cbf2f02089,689b8c7f86da6a988eccd865,,,,,,,,,,,,,83,0,,./stim/wavs/mexican_mismatch_declarative-broad-focus_Mi-tia-odia-la-lluvia.wav,,,,,,,,,,,,,,,,,,,,,,370.964,373.2328,0,1,1.7299,,0,59,59,82,1,0,mexican,,,,,,,,,,,,,,,,,,,,,,,,,,,,,,,,,,,,,,,,,,,,,,,,,,,,,,,,
,,,,,,,,,653fb726d2b45b03e76d0c42,Mexican,13 or older,"no, only English or Spanish",yes,2025-08-12_14h49.06.548,empathy_intonation_perc,2024.2.4,MacIntel,58.82352941,653fb726d2b45b03e76d0c42,687ed1b7e638a4cbf2f02089,689b8c7f86da6a988eccd865,,,,,,,,,,,,,12,1,,./stim/wavs/cuban_match_interrogative-total-yn_Marta-abre-el-regalo.wav,,,,,,,,,,,,,,,,,,,,,,373.2332,375.9539,1,1,2.1803,,0,60,60,11,1,1,cuban,,,,,,,,,,,,,,,,,,,,,,,,,,,,,,,,,,,,,,,,,,,,,,,,,,,,,,,,
,,,,,,,,,653fb726d2b45b03e76d0c42,Mexican,13 or older,"no, only English or Spanish",yes,2025-08-12_14h49.06.548,empathy_intonation_perc,2024.2.4,MacIntel,58.82352941,653fb726d2b45b03e76d0c42,687ed1b7e638a4cbf2f02089,689b8c7f86da6a988eccd865,,,,,,,,,,,,,87,0,,./stim/wavs/puertorican_mismatch_declarative-broad-focus_La-maestra-vive-en-Paris.wav,,,,,,,,,,,,,,,,,,,,,,375.9541,378.1972,0,1,1.7032,,0,61,61,86,1,0,puertorican,,,,,,,,,,,,,,,,,,,,,,,,,,,,,,,,,,,,,,,,,,,,,,,,,,,,,,,,
,,,,,,,,,653fb726d2b45b03e76d0c42,Mexican,13 or older,"no, only English or Spanish",yes,2025-08-12_14h49.06.548,empathy_intonation_perc,2024.2.4,MacIntel,58.82352941,653fb726d2b45b03e76d0c42,687ed1b7e638a4cbf2f02089,689b8c7f86da6a988eccd865,,,,,,,,,,,,,49,0,,./stim/wavs/castilian_match_declarative-broad-focus_Mariano-habla-del-tiempo.wav,,,,,,,,,,,,,,,,,,,,,,378.1974,381.1063,0,1,2.3859,,0,62,62,48,1,0,castilian,,,,,,,,,,,,,,,,,,,,,,,,,,,,,,,,,,,,,,,,,,,,,,,,,,,,,,,,
,,,,,,,,,653fb726d2b45b03e76d0c42,Mexican,13 or older,"no, only English or Spanish",yes,2025-08-12_14h49.06.548,empathy_intonation_perc,2024.2.4,MacIntel,58.82352941,653fb726d2b45b03e76d0c42,687ed1b7e638a4cbf2f02089,689b8c7f86da6a988eccd865,,,,,,,,,,,,,38,1,,./stim/wavs/mexican_mismatch_interrogative-total-yn_Mi-novio-viene-del-lago.wav,,,,,,,,,,,,,,,,,,,,,,381.1066,383.716,1,1,2.0744,,0,63,63,37,1,0,mexican,,,,,,,,,,,,,,,,,,,,,,,,,,,,,,,,,,,,,,,,,,,,,,,,,,,,,,,,
,,,,,,,,,653fb726d2b45b03e76d0c42,Mexican,13 or older,"no, only English or Spanish",yes,2025-08-12_14h49.06.548,empathy_intonation_perc,2024.2.4,MacIntel,58.82352941,653fb726d2b45b03e76d0c42,687ed1b7e638a4cbf2f02089,689b8c7f86da6a988eccd865,,,,,,,,,,,,,21,1,,./stim/wavs/puertorican_match_interrogative-total-yn_David-leia-el-libro.wav,,,,,,,,,,,,,,,,,,,,,,383.7162,385.922,0,0,1.6769,,0,64,64,20,1,1,puertorican,,,,,,,,,,,,,,,,,,,,,,,,,,,,,,,,,,,,,,,,,,,,,,,,,,,,,,,,
,,,,,,,,,653fb726d2b45b03e76d0c42,Mexican,13 or older,"no, only English or Spanish",yes,2025-08-12_14h49.06.548,empathy_intonation_perc,2024.2.4,MacIntel,58.82352941,653fb726d2b45b03e76d0c42,687ed1b7e638a4cbf2f02089,689b8c7f86da6a988eccd865,,,,,,,,,,,,,20,1,,./stim/wavs/puertorican_match_interrogative-total-yn_Daniel-iba-a-Bolivia.wav,,,,,,,,,,,,,,,,,,,,,,385.9224,388.1092,0,0,1.6492,,0,65,65,19,1,1,puertorican,,,,,,,,,,,,,,,,,,,,,,,,,,,,,,,,,,,,,,,,,,,,,,,,,,,,,,,,
,,,,,,,,,653fb726d2b45b03e76d0c42,Mexican,13 or older,"no, only English or Spanish",yes,2025-08-12_14h49.06.548,empathy_intonation_perc,2024.2.4,MacIntel,58.82352941,653fb726d2b45b03e76d0c42,687ed1b7e638a4cbf2f02089,689b8c7f86da6a988eccd865,,,,,,,,,,,,,24,1,,./stim/wavs/puertorican_match_interrogative-total-yn_Maria-bebe-el-vino.wav,,,,,,,,,,,,,,,,,,,,,,388.1095,390.4821,1,1,1.8332,,0,66,66,23,1,1,puertorican,,,,,,,,,,,,,,,,,,,,,,,,,,,,,,,,,,,,,,,,,,,,,,,,,,,,,,,,
,,,,,,,,,653fb726d2b45b03e76d0c42,Mexican,13 or older,"no, only English or Spanish",yes,2025-08-12_14h49.06.548,empathy_intonation_perc,2024.2.4,MacIntel,58.82352941,653fb726d2b45b03e76d0c42,687ed1b7e638a4cbf2f02089,689b8c7f86da6a988eccd865,,,,,,,,,,,,,3,1,,./stim/wavs/castilian_match_interrogative-total-yn_Manuela-vende-el-carro.wav,,,,,,,,,,,,,,,,,,,,,,390.4824,393.2743,1,1,2.2591,,0,67,67,2,1,0,castilian,,,,,,,,,,,,,,,,,,,,,,,,,,,,,,,,,,,,,,,,,,,,,,,,,,,,,,,,
,,,,,,,,,653fb726d2b45b03e76d0c42,Mexican,13 or older,"no, only English or Spanish",yes,2025-08-12_14h49.06.548,empathy_intonation_perc,2024.2.4,MacIntel,58.82352941,653fb726d2b45b03e76d0c42,687ed1b7e638a4cbf2f02089,689b8c7f86da6a988eccd865,,,,,,,,,,,,,85,0,,./stim/wavs/puertorican_mismatch_declarative-broad-focus_El-hombre-mira-la-luna.wav,,,,,,,,,,,,,,,,,,,,,,393.2746,395.3609,0,1,1.5525,,0,68,68,84,1,0,puertorican,,,,,,,,,,,,,,,,,,,,,,,,,,,,,,,,,,,,,,,,,,,,,,,,,,,,,,,,
,,,,,,,,,653fb726d2b45b03e76d0c42,Mexican,13 or older,"no, only English or Spanish",yes,2025-08-12_14h49.06.548,empathy_intonation_perc,2024.2.4,MacIntel,58.82352941,653fb726d2b45b03e76d0c42,687ed1b7e638a4cbf2f02089,689b8c7f86da6a988eccd865,,,,,,,,,,,,,30,1,,./stim/wavs/cuban_mismatch_interrogative-total-yn_El-hombre-mira-la-luna.wav,,,,,,,,,,,,,,,,,,,,,,395.3611,397.6309,1,1,1.7294,,0,69,69,29,1,1,cuban,,,,,,,,,,,,,,,,,,,,,,,,,,,,,,,,,,,,,,,,,,,,,,,,,,,,,,,,
,,,,,,,,,653fb726d2b45b03e76d0c42,Mexican,13 or older,"no, only English or Spanish",yes,2025-08-12_14h49.06.548,empathy_intonation_perc,2024.2.4,MacIntel,58.82352941,653fb726d2b45b03e76d0c42,687ed1b7e638a4cbf2f02089,689b8c7f86da6a988eccd865,,,,,,,,,,,,,7,1,,./stim/wavs/cuban_match_interrogative-total-yn_Ana-lleva-el-abrigo.wav,,,,,,,,,,,,,,,,,,,,,,397.6311,400.4554,0,0,2.2922,,0,70,70,6,1,1,cuban,,,,,,,,,,,,,,,,,,,,,,,,,,,,,,,,,,,,,,,,,,,,,,,,,,,,,,,,
,,,,,,,,,653fb726d2b45b03e76d0c42,Mexican,13 or older,"no, only English or Spanish",yes,2025-08-12_14h49.06.548,empathy_intonation_perc,2024.2.4,MacIntel,58.82352941,653fb726d2b45b03e76d0c42,687ed1b7e638a4cbf2f02089,689b8c7f86da6a988eccd865,,,,,,,,,,,,,64,0,,./stim/wavs/puertorican_match_declarative-broad-focus_Daniel-iba-a-Bolivia.wav,,,,,,,,,,,,,,,,,,,,,,400.4557,402.8454,0,1,1.8512,,0,71,71,63,1,0,puertorican,,,,,,,,,,,,,,,,,,,,,,,,,,,,,,,,,,,,,,,,,,,,,,,,,,,,,,,,
,,,,,,,,,653fb726d2b45b03e76d0c42,Mexican,13 or older,"no, only English or Spanish",yes,2025-08-12_14h49.06.548,empathy_intonation_perc,2024.2.4,MacIntel,58.82352941,653fb726d2b45b03e76d0c42,687ed1b7e638a4cbf2f02089,689b8c7f86da6a988eccd865,,,,,,,,,,,,,47,0,,./stim/wavs/castilian_match_declarative-broad-focus_Manuela-vende-el-carro.wav,,,,,,,,,,,,,,,,,,,,,,402.8457,405.1543,0,1,1.7728,,0,72,72,46,1,0,castilian,,,,,,,,,,,,,,,,,,,,,,,,,,,,,,,,,,,,,,,,,,,,,,,,,,,,,,,,
,,,,,,,,,653fb726d2b45b03e76d0c42,Mexican,13 or older,"no, only English or Spanish",yes,2025-08-12_14h49.06.548,empathy_intonation_perc,2024.2.4,MacIntel,58.82352941,653fb726d2b45b03e76d0c42,687ed1b7e638a4cbf2f02089,689b8c7f86da6a988eccd865,,,,,,,,,,,,,35,1,,./stim/wavs/mexican_mismatch_interrogative-total-yn_El-hombre-mira-la-luna.wav,,,,,,,,,,,,,,,,,,,,,,405.1545,407.6416,1,1,1.9618,,0,73,73,34,1,0,mexican,,,,,,,,,,,,,,,,,,,,,,,,,,,,,,,,,,,,,,,,,,,,,,,,,,,,,,,,
,,,,,,,,,653fb726d2b45b03e76d0c42,Mexican,13 or older,"no, only English or Spanish",yes,2025-08-12_14h49.06.548,empathy_intonation_perc,2024.2.4,MacIntel,58.82352941,653fb726d2b45b03e76d0c42,687ed1b7e638a4cbf2f02089,689b8c7f86da6a988eccd865,,,,,,,,,,,,,37,1,,./stim/wavs/mexican_mismatch_interrogative-total-yn_La-maestra-vive-en-Paris.wav,,,,,,,,,,,,,,,,,,,,,,407.6419,410.3521,1,1,2.1691,,0,74,74,36,1,0,mexican,,,,,,,,,,,,,,,,,,,,,,,,,,,,,,,,,,,,,,,,,,,,,,,,,,,,,,,,
,,,,,,,,,653fb726d2b45b03e76d0c42,Mexican,13 or older,"no, only English or Spanish",yes,2025-08-12_14h49.06.548,empathy_intonation_perc,2024.2.4,MacIntel,58.82352941,653fb726d2b45b03e76d0c42,687ed1b7e638a4cbf2f02089,689b8c7f86da6a988eccd865,,,,,,,,,,,,,28,1,,./stim/wavs/castilian_mismatch_interrogative-total-yn_Mi-novio-viene-del-lago.wav,,,,,,,,,,,,,,,,,,,,,,410.3523,413.1572,1,1,2.2645,,0,75,75,27,1,0,castilian,,,,,,,,,,,,,,,,,,,,,,,,,,,,,,,,,,,,,,,,,,,,,,,,,,,,,,,,
,,,,,,,,,653fb726d2b45b03e76d0c42,Mexican,13 or older,"no, only English or Spanish",yes,2025-08-12_14h49.06.548,empathy_intonation_perc,2024.2.4,MacIntel,58.82352941,653fb726d2b45b03e76d0c42,687ed1b7e638a4cbf2f02089,689b8c7f86da6a988eccd865,,,,,,,,,,,,,22,1,,./stim/wavs/puertorican_match_interrogative-total-yn_Emilio-ama-la-marcha.wav,,,,,,,,,,,,,,,,,,,,,,413.1574,416.0287,0,0,2.3313,,0,76,76,21,1,1,puertorican,,,,,,,,,,,,,,,,,,,,,,,,,,,,,,,,,,,,,,,,,,,,,,,,,,,,,,,,
,,,,,,,,,653fb726d2b45b03e76d0c42,Mexican,13 or older,"no, only English or Spanish",yes,2025-08-12_14h49.06.548,empathy_intonation_perc,2024.2.4,MacIntel,58.82352941,653fb726d2b45b03e76d0c42,687ed1b7e638a4cbf2f02089,689b8c7f86da6a988eccd865,,,,,,,,,,,,,26,1,,./stim/wavs/castilian_mismatch_interrogative-total-yn_La-nina-lava-el-plato.wav,,,,,,,,,,,,,,,,,,,,,,416.0289,418.4093,1,1,1.8423,,0,77,77,25,1,0,castilian,,,,,,,,,,,,,,,,,,,,,,,,,,,,,,,,,,,,,,,,,,,,,,,,,,,,,,,,
,,,,,,,,,653fb726d2b45b03e76d0c42,Mexican,13 or older,"no, only English or Spanish",yes,2025-08-12_14h49.06.548,empathy_intonation_perc,2024.2.4,MacIntel,58.82352941,653fb726d2b45b03e76d0c42,687ed1b7e638a4cbf2f02089,689b8c7f86da6a988eccd865,,,,,,,,,,,,,34,1,,./stim/wavs/cuban_mismatch_interrogative-total-yn_Mi-tia-odia-la-lluvia.wav,,,,,,,,,,,,,,,,,,,,,,418.4096,420.6559,0,0,1.7052,,0,78,78,33,1,1,cuban,,,,,,,,,,,,,,,,,,,,,,,,,,,,,,,,,,,,,,,,,,,,,,,,,,,,,,,,
,,,,,,,,,653fb726d2b45b03e76d0c42,Mexican,13 or older,"no, only English or Spanish",yes,2025-08-12_14h49.06.548,empathy_intonation_perc,2024.2.4,MacIntel,58.82352941,653fb726d2b45b03e76d0c42,687ed1b7e638a4cbf2f02089,689b8c7f86da6a988eccd865,,,,,,,,,,,,,58,0,,./stim/wavs/mexican_match_declarative-broad-focus_Daniel-iba-a-Bolivia.wav,,,,,,,,,,,,,,,,,,,,,,420.6561,422.7826,0,1,1.6052,,0,79,79,57,1,0,mexican,,,,,,,,,,,,,,,,,,,,,,,,,,,,,,,,,,,,,,,,,,,,,,,,,,,,,,,,
,,,,,,,,,653fb726d2b45b03e76d0c42,Mexican,13 or older,"no, only English or Spanish",yes,2025-08-12_14h49.06.548,empathy_intonation_perc,2024.2.4,MacIntel,58.82352941,653fb726d2b45b03e76d0c42,687ed1b7e638a4cbf2f02089,689b8c7f86da6a988eccd865,,,,,,,,,,,,,31,1,,./stim/wavs/cuban_mismatch_interrogative-total-yn_El-nino-oye-el-rio.wav,,,,,,,,,,,,,,,,,,,,,,422.783,425.3726,1,1,2.0678,,0,80,80,30,1,1,cuban,,,,,,,,,,,,,,,,,,,,,,,,,,,,,,,,,,,,,,,,,,,,,,,,,,,,,,,,
,,,,,,,,,653fb726d2b45b03e76d0c42,Mexican,13 or older,"no, only English or Spanish",yes,2025-08-12_14h49.06.548,empathy_intonation_perc,2024.2.4,MacIntel,58.82352941,653fb726d2b45b03e76d0c42,687ed1b7e638a4cbf2f02089,689b8c7f86da6a988eccd865,,,,,,,,,,,,,70,0,,./stim/wavs/castilian_mismatch_declarative-broad-focus_La-maestra-vive-en-Paris.wav,,,,,,,,,,,,,,,,,,,,,,425.3728,427.881,0,1,1.9747,,0,81,81,69,1,0,castilian,,,,,,,,,,,,,,,,,,,,,,,,,,,,,,,,,,,,,,,,,,,,,,,,,,,,,,,,
,,,,,,,,,653fb726d2b45b03e76d0c42,Mexican,13 or older,"no, only English or Spanish",yes,2025-08-12_14h49.06.548,empathy_intonation_perc,2024.2.4,MacIntel,58.82352941,653fb726d2b45b03e76d0c42,687ed1b7e638a4cbf2f02089,689b8c7f86da6a988eccd865,,,,,,,,,,,,,6,1,,./stim/wavs/castilian_match_interrogative-total-yn_Marta-abre-el-regalo.wav,,,,,,,,,,,,,,,,,,,,,,427.8812,430.6865,1,1,2.2839,,0,82,82,5,1,0,castilian,,,,,,,,,,,,,,,,,,,,,,,,,,,,,,,,,,,,,,,,,,,,,,,,,,,,,,,,
,,,,,,,,,653fb726d2b45b03e76d0c42,Mexican,13 or older,"no, only English or Spanish",yes,2025-08-12_14h49.06.548,empathy_intonation_perc,2024.2.4,MacIntel,58.82352941,653fb726d2b45b03e76d0c42,687ed1b7e638a4cbf2f02089,689b8c7f86da6a988eccd865,,,,,,,,,,,,,75,0,,./stim/wavs/cuban_mismatch_declarative-broad-focus_El-hombre-mira-la-luna.wav,,,,,,,,,,,,,,,,,,,,,,430.6866,432.8084,0,1,1.5822,,0,83,83,74,1,0,cuban,,,,,,,,,,,,,,,,,,,,,,,,,,,,,,,,,,,,,,,,,,,,,,,,,,,,,,,,
,,,,,,,,,653fb726d2b45b03e76d0c42,Mexican,13 or older,"no, only English or Spanish",yes,2025-08-12_14h49.06.548,empathy_intonation_perc,2024.2.4,MacIntel,58.82352941,653fb726d2b45b03e76d0c42,687ed1b7e638a4cbf2f02089,689b8c7f86da6a988eccd865,,,,,,,,,,,,,41,1,,./stim/wavs/puertorican_mismatch_interrogative-total-yn_El-nino-oye-el-rio.wav,,,,,,,,,,,,,,,,,,,,,,432.8087,435.0567,0,0,1.7108,,0,84,84,40,1,1,puertorican,,,,,,,,,,,,,,,,,,,,,,,,,,,,,,,,,,,,,,,,,,,,,,,,,,,,,,,,
,,,,,,,,,653fb726d2b45b03e76d0c42,Mexican,13 or older,"no, only English or Spanish",yes,2025-08-12_14h49.06.548,empathy_intonation_perc,2024.2.4,MacIntel,58.82352941,653fb726d2b45b03e76d0c42,687ed1b7e638a4cbf2f02089,689b8c7f86da6a988eccd865,,,,,,,,,,,,,69,0,,./stim/wavs/castilian_mismatch_declarative-broad-focus_El-nino-oye-el-rio.wav,,,,,,,,,,,,,,,,,,,,,,435.0569,437.3585,0,1,1.7638,,0,85,85,68,1,0,castilian,,,,,,,,,,,,,,,,,,,,,,,,,,,,,,,,,,,,,,,,,,,,,,,,,,,,,,,,
,,,,,,,,,653fb726d2b45b03e76d0c42,Mexican,13 or older,"no, only English or Spanish",yes,2025-08-12_14h49.06.548,empathy_intonation_perc,2024.2.4,MacIntel,58.82352941,653fb726d2b45b03e76d0c42,687ed1b7e638a4cbf2f02089,689b8c7f86da6a988eccd865,,,,,,,,,,,,,76,0,,./stim/wavs/cuban_mismatch_declarative-broad-focus_La-nina-lava-el-plato.wav,,,,,,,,,,,,,,,,,,,,,,437.3588,440.2552,0,1,2.3755,,0,86,86,75,1,0,cuban,,,,,,,,,,,,,,,,,,,,,,,,,,,,,,,,,,,,,,,,,,,,,,,,,,,,,,,,
,,,,,,,,,653fb726d2b45b03e76d0c42,Mexican,13 or older,"no, only English or Spanish",yes,2025-08-12_14h49.06.548,empathy_intonation_perc,2024.2.4,MacIntel,58.82352941,653fb726d2b45b03e76d0c42,687ed1b7e638a4cbf2f02089,689b8c7f86da6a988eccd865,,,,,,,,,,,,,57,0,,./stim/wavs/mexican_match_declarative-broad-focus_Ana-lleva-el-abrigo.wav,,,,,,,,,,,,,,,,,,,,,,440.2555,442.2973,0,1,1.508,,0,87,87,56,1,0,mexican,,,,,,,,,,,,,,,,,,,,,,,,,,,,,,,,,,,,,,,,,,,,,,,,,,,,,,,,
,,,,,,,"Great! Now we will move on. The next task consists of about 60 trials, in each of which you will see a string of letters. 
  
  Your task is to decide whether this is a real Spanish word or not.", (press the spacebar to continue),653fb726d2b45b03e76d0c42,Mexican,13 or older,"no, only English or Spanish",yes,2025-08-12_14h49.06.548,empathy_intonation_perc,2024.2.4,MacIntel,58.82352941,653fb726d2b45b03e76d0c42,687ed1b7e638a4cbf2f02089,689b8c7f86da6a988eccd865,,,,,,,,,,,,,,,,,,,,,,,,,,,,,,,,,,,,,,,,,,,,,,,,,,,442.302,448.1383,0,0,0,0,1,,,,,,,,,,,,,,,,,,,,,,,,,,,,,,,,,,,,,,,,,,,,,,,,,
,,,,,,,"If you think it is an existing Spanish word, you type '1' (for 'REAL'), and if you think it is not an existing Spanish word, you type '0' (for 'FAKE').", (press the spacebar to continue),653fb726d2b45b03e76d0c42,Mexican,13 or older,"no, only English or Spanish",yes,2025-08-12_14h49.06.548,empathy_intonation_perc,2024.2.4,MacIntel,58.82352941,653fb726d2b45b03e76d0c42,687ed1b7e638a4cbf2f02089,689b8c7f86da6a988eccd865,,,,,,,,,,,,,,,,,,,,,,,,,,,,,,,,,,,,,,,,,,,,,,,,,,,448.1391,452.6841,0,1,1,1,1,,,,,,,,,,,,,,,,,,,,,,,,,,,,,,,,,,,,,,,,,,,,,,,,,
,,,,,,,"If you are sure that the word exists, even though you don’t know its exact meaning, you may still respond '1' (REAL). 
  
  But if you are not sure if it is an existing word, you should respond '0' (FAKE).
  
  Let's do a practice round...", (press the spacebar to continue),653fb726d2b45b03e76d0c42,Mexican,13 or older,"no, only English or Spanish",yes,2025-08-12_14h49.06.548,empathy_intonation_perc,2024.2.4,MacIntel,58.82352941,653fb726d2b45b03e76d0c42,687ed1b7e638a4cbf2f02089,689b8c7f86da6a988eccd865,,,,,,,,,,,,,,,,,,,,,,,,,,,,,,,,,,,,,,,,,,,,,,,,,,,452.685,458.6792,0,2,2,2,1,,,,,,,,,,,,,,,,,,,,,,,,,,,,,,,,,,,,,,,,,,,,,,,,,
,,,,,,,,,653fb726d2b45b03e76d0c42,Mexican,13 or older,"no, only English or Spanish",yes,2025-08-12_14h49.06.548,empathy_intonation_perc,2024.2.4,MacIntel,58.82352941,653fb726d2b45b03e76d0c42,687ed1b7e638a4cbf2f02089,689b8c7f86da6a988eccd865,,,,,,,,,,,,,,0,,,,,,,,,,,,,,,,,,,,,,,,,,,,,,,,,,,,,,,,,,,,458.682,460.4485,0,1,1.2302,,460.4487,461.4534,0,0,0,0,1,0,depiste,REAL,FAKE,,,,,,,,,,,,,,,,,,,,,,,,,,,,,,,,
,,,,,,,,,653fb726d2b45b03e76d0c42,Mexican,13 or older,"no, only English or Spanish",yes,2025-08-12_14h49.06.548,empathy_intonation_perc,2024.2.4,MacIntel,58.82352941,653fb726d2b45b03e76d0c42,687ed1b7e638a4cbf2f02089,689b8c7f86da6a988eccd865,,,,,,,,,,,,,,1,,,,,,,,,,,,,,,,,,,,,,,,,,,,,,,,,,,,,,,,,,,,461.454,462.9781,1,1,1.0015,,462.9782,463.9725,0,1,1,1,1,0,sí,REAL,FAKE,,,,,,,,,,,,,,,,,,,,,,,,,,,,,,,,
,,,,,,,,,653fb726d2b45b03e76d0c42,Mexican,13 or older,"no, only English or Spanish",yes,2025-08-12_14h49.06.548,empathy_intonation_perc,2024.2.4,MacIntel,58.82352941,653fb726d2b45b03e76d0c42,687ed1b7e638a4cbf2f02089,689b8c7f86da6a988eccd865,,,,,,,,,,,,,,0,,,,,,,,,,,,,,,,,,,,,,,,,,,,,,,,,,,,,,,,,,,,463.973,465.5555,0,1,1.0464,,465.5555,466.5524,0,2,2,2,1,0,coné,REAL,FAKE,,,,,,,,,,,,,,,,,,,,,,,,,,,,,,,,
,,,,,,,,,653fb726d2b45b03e76d0c42,Mexican,13 or older,"no, only English or Spanish",yes,2025-08-12_14h49.06.548,empathy_intonation_perc,2024.2.4,MacIntel,58.82352941,653fb726d2b45b03e76d0c42,687ed1b7e638a4cbf2f02089,689b8c7f86da6a988eccd865,,,,,,,,,,,,,,0,,,,,,,,,,,,,,,,,,,,,,,,,,,,,,,,,,,,,,,,,,,,466.5528,467.9927,0,1,0.9003,,467.9927,468.9906,0,3,3,3,1,0,calpar,REAL,FAKE,,,,,,,,,,,,,,,,,,,,,,,,,,,,,,,,
,,,,,,,,,653fb726d2b45b03e76d0c42,Mexican,13 or older,"no, only English or Spanish",yes,2025-08-12_14h49.06.548,empathy_intonation_perc,2024.2.4,MacIntel,58.82352941,653fb726d2b45b03e76d0c42,687ed1b7e638a4cbf2f02089,689b8c7f86da6a988eccd865,,,,,,,,,,,,,,0,,,,,,,,,,,,,,,,,,,,,,,,,,,,,,,,,,,,,,,,,,,,468.991,470.3282,0,1,0.8071,,470.3283,471.3261,0,4,4,4,1,0,joten,REAL,FAKE,,,,,,,,,,,,,,,,,,,,,,,,,,,,,,,,
,,,,,,,,,653fb726d2b45b03e76d0c42,Mexican,13 or older,"no, only English or Spanish",yes,2025-08-12_14h49.06.548,empathy_intonation_perc,2024.2.4,MacIntel,58.82352941,653fb726d2b45b03e76d0c42,687ed1b7e638a4cbf2f02089,689b8c7f86da6a988eccd865,,,,,,,,,,,,,,1,,,,,,,,,,,,,,,,,,,,,,,,,,,,,,,,,,,,,,,,,,,,471.3265,472.6239,0,0,0.773,,472.6244,473.6251,0,5,5,5,1,0,sacapuntas,REAL,FAKE,,,,,,,,,,,,,,,,,,,,,,,,,,,,,,,,
,,,,,,,,,653fb726d2b45b03e76d0c42,Mexican,13 or older,"no, only English or Spanish",yes,2025-08-12_14h49.06.548,empathy_intonation_perc,2024.2.4,MacIntel,58.82352941,653fb726d2b45b03e76d0c42,687ed1b7e638a4cbf2f02089,689b8c7f86da6a988eccd865,,,,,,,,,,,,,,0,,,,,,,,,,,,,,,,,,,,,,,,,,,,,,,,,,,,,,,,,,,,473.6255,475.1864,0,1,1.0204,,475.1868,476.183,0,6,6,6,1,0,priba,REAL,FAKE,,,,,,,,,,,,,,,,,,,,,,,,,,,,,,,,
,,,,,,,,,653fb726d2b45b03e76d0c42,Mexican,13 or older,"no, only English or Spanish",yes,2025-08-12_14h49.06.548,empathy_intonation_perc,2024.2.4,MacIntel,58.82352941,653fb726d2b45b03e76d0c42,687ed1b7e638a4cbf2f02089,689b8c7f86da6a988eccd865,,,,,,,,,,,,,,0,,,,,,,,,,,,,,,,,,,,,,,,,,,,,,,,,,,,,,,,,,,,476.1835,477.9489,0,1,1.2236,,477.9489,478.9537,0,7,7,7,1,0,pelasula,REAL,FAKE,,,,,,,,,,,,,,,,,,,,,,,,,,,,,,,,
,,,,,,,,,653fb726d2b45b03e76d0c42,Mexican,13 or older,"no, only English or Spanish",yes,2025-08-12_14h49.06.548,empathy_intonation_perc,2024.2.4,MacIntel,58.82352941,653fb726d2b45b03e76d0c42,687ed1b7e638a4cbf2f02089,689b8c7f86da6a988eccd865,,,,,,,,,,,,,,1,,,,,,,,,,,,,,,,,,,,,,,,,,,,,,,,,,,,,,,,,,,,478.9542,480.2475,1,1,0.7672,,480.2476,481.2267,0,8,8,8,1,0,bien,REAL,FAKE,,,,,,,,,,,,,,,,,,,,,,,,,,,,,,,,
,,,,,,,,,653fb726d2b45b03e76d0c42,Mexican,13 or older,"no, only English or Spanish",yes,2025-08-12_14h49.06.548,empathy_intonation_perc,2024.2.4,MacIntel,58.82352941,653fb726d2b45b03e76d0c42,687ed1b7e638a4cbf2f02089,689b8c7f86da6a988eccd865,,,,,,,,,,,,,,1,,,,,,,,,,,,,,,,,,,,,,,,,,,,,,,,,,,,,,,,,,,,481.2272,482.5075,1,1,0.744,,482.5075,483.5024,0,9,9,9,1,0,casa,REAL,FAKE,,,,,,,,,,,,,,,,,,,,,,,,,,,,,,,,
,,,,,,,,,653fb726d2b45b03e76d0c42,Mexican,13 or older,"no, only English or Spanish",yes,2025-08-12_14h49.06.548,empathy_intonation_perc,2024.2.4,MacIntel,58.82352941,653fb726d2b45b03e76d0c42,687ed1b7e638a4cbf2f02089,689b8c7f86da6a988eccd865,,,,,,,,,,,,,,0,,,,,,,,,,,,,,,,,,,,,,,,,,,,,,,,,,,,,,,,,,,,483.5029,484.8355,0,1,0.7877,,484.8355,485.8118,0,10,10,10,1,0,lejo,REAL,FAKE,,,,,,,,,,,,,,,,,,,,,,,,,,,,,,,,
,,,,,,,,,653fb726d2b45b03e76d0c42,Mexican,13 or older,"no, only English or Spanish",yes,2025-08-12_14h49.06.548,empathy_intonation_perc,2024.2.4,MacIntel,58.82352941,653fb726d2b45b03e76d0c42,687ed1b7e638a4cbf2f02089,689b8c7f86da6a988eccd865,,,,,,,,,,,,,,0,,,,,,,,,,,,,,,,,,,,,,,,,,,,,,,,,,,,,,,,,,,,485.8123,487.0859,0,1,0.7497,,487.086,488.0902,0,11,11,11,1,0,pretantas,REAL,FAKE,,,,,,,,,,,,,,,,,,,,,,,,,,,,,,,,
,,,,,,,,,653fb726d2b45b03e76d0c42,Mexican,13 or older,"no, only English or Spanish",yes,2025-08-12_14h49.06.548,empathy_intonation_perc,2024.2.4,MacIntel,58.82352941,653fb726d2b45b03e76d0c42,687ed1b7e638a4cbf2f02089,689b8c7f86da6a988eccd865,,,,,,,,,,,,,,,,,,,,,,,,,,,,,,,,,,,,,,,,,,,,,,,,,,,,,,,,,,,,,,,,,,,,,,,,,,,488.0904,490.2028,,,,,,,,,,,,,,,,,,,,,,,,,,,,,,
,,,,,,,,,653fb726d2b45b03e76d0c42,Mexican,13 or older,"no, only English or Spanish",yes,2025-08-12_14h49.06.548,empathy_intonation_perc,2024.2.4,MacIntel,58.82352941,653fb726d2b45b03e76d0c42,687ed1b7e638a4cbf2f02089,689b8c7f86da6a988eccd865,,,,,,,,,,,,,,0,,,,,,,,,,,,,,,,,,,,,,,,,,,,,,,,,,,,,,,,,,,,,,,,,,,,,,,,,32,fatacidad,,,,,490.2082,491.7775,0,1,1.0436,,0,0,0,31,1,REAL,FAKE,,,,,,,,,,,,,,,,,
,,,,,,,,,653fb726d2b45b03e76d0c42,Mexican,13 or older,"no, only English or Spanish",yes,2025-08-12_14h49.06.548,empathy_intonation_perc,2024.2.4,MacIntel,58.82352941,653fb726d2b45b03e76d0c42,687ed1b7e638a4cbf2f02089,689b8c7f86da6a988eccd865,,,,,,,,,,,,,,0,,,,,,,,,,,,,,,,,,,,,,,,,,,,,,,,,,,,,,,,,,,,,,,,,,,,,,,,,50,flamida,,,,,491.778,493.2905,0,1,0.9711,,0,1,1,49,1,REAL,FAKE,,,,,,,,,,,,,,,,,
,,,,,,,,,653fb726d2b45b03e76d0c42,Mexican,13 or older,"no, only English or Spanish",yes,2025-08-12_14h49.06.548,empathy_intonation_perc,2024.2.4,MacIntel,58.82352941,653fb726d2b45b03e76d0c42,687ed1b7e638a4cbf2f02089,689b8c7f86da6a988eccd865,,,,,,,,,,,,,,1,,,,,,,,,,,,,,,,,,,,,,,,,,,,,,,,,,,,,,,,,,,,,,,,,,,,,,,,,49,ganar,,,,,493.2909,494.6855,1,1,0.8512,,0,2,2,48,1,REAL,FAKE,,,,,,,,,,,,,,,,,
,,,,,,,,,653fb726d2b45b03e76d0c42,Mexican,13 or older,"no, only English or Spanish",yes,2025-08-12_14h49.06.548,empathy_intonation_perc,2024.2.4,MacIntel,58.82352941,653fb726d2b45b03e76d0c42,687ed1b7e638a4cbf2f02089,689b8c7f86da6a988eccd865,,,,,,,,,,,,,,0,,,,,,,,,,,,,,,,,,,,,,,,,,,,,,,,,,,,,,,,,,,,,,,,,,,,,,,,,82,empirador,,,,,494.6861,496.356,1,0,1.1261,,0,3,3,81,1,REAL,FAKE,,,,,,,,,,,,,,,,,
,,,,,,,,,653fb726d2b45b03e76d0c42,Mexican,13 or older,"no, only English or Spanish",yes,2025-08-12_14h49.06.548,empathy_intonation_perc,2024.2.4,MacIntel,58.82352941,653fb726d2b45b03e76d0c42,687ed1b7e638a4cbf2f02089,689b8c7f86da6a988eccd865,,,,,,,,,,,,,,0,,,,,,,,,,,,,,,,,,,,,,,,,,,,,,,,,,,,,,,,,,,,,,,,,,,,,,,,,74,cintro,,,,,496.3564,497.8338,1,0,0.9364,,0,4,4,73,1,REAL,FAKE,,,,,,,,,,,,,,,,,
,,,,,,,,,653fb726d2b45b03e76d0c42,Mexican,13 or older,"no, only English or Spanish",yes,2025-08-12_14h49.06.548,empathy_intonation_perc,2024.2.4,MacIntel,58.82352941,653fb726d2b45b03e76d0c42,687ed1b7e638a4cbf2f02089,689b8c7f86da6a988eccd865,,,,,,,,,,,,,,1,,,,,,,,,,,,,,,,,,,,,,,,,,,,,,,,,,,,,,,,,,,,,,,,,,,,,,,,,48,ladrón,,,,,497.8344,499.3278,1,1,0.9532,,0,5,5,47,1,REAL,FAKE,,,,,,,,,,,,,,,,,
,,,,,,,,,653fb726d2b45b03e76d0c42,Mexican,13 or older,"no, only English or Spanish",yes,2025-08-12_14h49.06.548,empathy_intonation_perc,2024.2.4,MacIntel,58.82352941,653fb726d2b45b03e76d0c42,687ed1b7e638a4cbf2f02089,689b8c7f86da6a988eccd865,,,,,,,,,,,,,,0,,,,,,,,,,,,,,,,,,,,,,,,,,,,,,,,,,,,,,,,,,,,,,,,,,,,,,,,,66,hacido,,,,,499.3283,500.874,1,0,1.0211,,0,6,6,65,1,REAL,FAKE,,,,,,,,,,,,,,,,,
,,,,,,,,,653fb726d2b45b03e76d0c42,Mexican,13 or older,"no, only English or Spanish",yes,2025-08-12_14h49.06.548,empathy_intonation_perc,2024.2.4,MacIntel,58.82352941,653fb726d2b45b03e76d0c42,687ed1b7e638a4cbf2f02089,689b8c7f86da6a988eccd865,,,,,,,,,,,,,,1,,,,,,,,,,,,,,,,,,,,,,,,,,,,,,,,,,,,,,,,,,,,,,,,,,,,,,,,,67,cabello,,,,,500.8746,502.4521,1,1,1.0372,,0,7,7,66,1,REAL,FAKE,,,,,,,,,,,,,,,,,
,,,,,,,,,653fb726d2b45b03e76d0c42,Mexican,13 or older,"no, only English or Spanish",yes,2025-08-12_14h49.06.548,empathy_intonation_perc,2024.2.4,MacIntel,58.82352941,653fb726d2b45b03e76d0c42,687ed1b7e638a4cbf2f02089,689b8c7f86da6a988eccd865,,,,,,,,,,,,,,1,,,,,,,,,,,,,,,,,,,,,,,,,,,,,,,,,,,,,,,,,,,,,,,,,,,,,,,,,54,fomentar,,,,,502.4525,504.4534,0,0,1.4752,,0,8,8,53,1,REAL,FAKE,,,,,,,,,,,,,,,,,
,,,,,,,,,653fb726d2b45b03e76d0c42,Mexican,13 or older,"no, only English or Spanish",yes,2025-08-12_14h49.06.548,empathy_intonation_perc,2024.2.4,MacIntel,58.82352941,653fb726d2b45b03e76d0c42,687ed1b7e638a4cbf2f02089,689b8c7f86da6a988eccd865,,,,,,,,,,,,,,1,,,,,,,,,,,,,,,,,,,,,,,,,,,,,,,,,,,,,,,,,,,,,,,,,,,,,,,,,6,tergiversar,,,,,504.4539,505.812,0,0,0.8124,,0,9,9,5,1,REAL,FAKE,,,,,,,,,,,,,,,,,
,,,,,,,,,653fb726d2b45b03e76d0c42,Mexican,13 or older,"no, only English or Spanish",yes,2025-08-12_14h49.06.548,empathy_intonation_perc,2024.2.4,MacIntel,58.82352941,653fb726d2b45b03e76d0c42,687ed1b7e638a4cbf2f02089,689b8c7f86da6a988eccd865,,,,,,,,,,,,,,1,,,,,,,,,,,,,,,,,,,,,,,,,,,,,,,,,,,,,,,,,,,,,,,,,,,,,,,,,75,yacer,,,,,505.8125,507.1826,0,0,0.8444,,0,10,10,74,1,REAL,FAKE,,,,,,,,,,,,,,,,,
,,,,,,,,,653fb726d2b45b03e76d0c42,Mexican,13 or older,"no, only English or Spanish",yes,2025-08-12_14h49.06.548,empathy_intonation_perc,2024.2.4,MacIntel,58.82352941,653fb726d2b45b03e76d0c42,687ed1b7e638a4cbf2f02089,689b8c7f86da6a988eccd865,,,,,,,,,,,,,,0,,,,,,,,,,,,,,,,,,,,,,,,,,,,,,,,,,,,,,,,,,,,,,,,,,,,,,,,,87,grodo,,,,,507.1831,508.6185,0,1,0.8962,,0,11,11,86,1,REAL,FAKE,,,,,,,,,,,,,,,,,
,,,,,,,,,653fb726d2b45b03e76d0c42,Mexican,13 or older,"no, only English or Spanish",yes,2025-08-12_14h49.06.548,empathy_intonation_perc,2024.2.4,MacIntel,58.82352941,653fb726d2b45b03e76d0c42,687ed1b7e638a4cbf2f02089,689b8c7f86da6a988eccd865,,,,,,,,,,,,,,1,,,,,,,,,,,,,,,,,,,,,,,,,,,,,,,,,,,,,,,,,,,,,,,,,,,,,,,,,28,merodear,,,,,508.619,510.2438,0,0,1.0852,,0,12,12,27,1,REAL,FAKE,,,,,,,,,,,,,,,,,
,,,,,,,,,653fb726d2b45b03e76d0c42,Mexican,13 or older,"no, only English or Spanish",yes,2025-08-12_14h49.06.548,empathy_intonation_perc,2024.2.4,MacIntel,58.82352941,653fb726d2b45b03e76d0c42,687ed1b7e638a4cbf2f02089,689b8c7f86da6a988eccd865,,,,,,,,,,,,,,1,,,,,,,,,,,,,,,,,,,,,,,,,,,,,,,,,,,,,,,,,,,,,,,,,,,,,,,,,62,flaco,,,,,510.2443,511.6789,1,1,0.9026,,0,13,13,61,1,REAL,FAKE,,,,,,,,,,,,,,,,,
,,,,,,,,,653fb726d2b45b03e76d0c42,Mexican,13 or older,"no, only English or Spanish",yes,2025-08-12_14h49.06.548,empathy_intonation_perc,2024.2.4,MacIntel,58.82352941,653fb726d2b45b03e76d0c42,687ed1b7e638a4cbf2f02089,689b8c7f86da6a988eccd865,,,,,,,,,,,,,,1,,,,,,,,,,,,,,,,,,,,,,,,,,,,,,,,,,,,,,,,,,,,,,,,,,,,,,,,,14,yunque,,,,,511.6794,513.0433,0,0,0.8377,,0,14,14,13,1,REAL,FAKE,,,,,,,,,,,,,,,,,
,,,,,,,,,653fb726d2b45b03e76d0c42,Mexican,13 or older,"no, only English or Spanish",yes,2025-08-12_14h49.06.548,empathy_intonation_perc,2024.2.4,MacIntel,58.82352941,653fb726d2b45b03e76d0c42,687ed1b7e638a4cbf2f02089,689b8c7f86da6a988eccd865,,,,,,,,,,,,,,1,,,,,,,,,,,,,,,,,,,,,,,,,,,,,,,,,,,,,,,,,,,,,,,,,,,,,,,,,5,zapato,,,,,513.0438,514.4853,1,1,0.9019,,0,15,15,4,1,REAL,FAKE,,,,,,,,,,,,,,,,,
,,,,,,,,,653fb726d2b45b03e76d0c42,Mexican,13 or older,"no, only English or Spanish",yes,2025-08-12_14h49.06.548,empathy_intonation_perc,2024.2.4,MacIntel,58.82352941,653fb726d2b45b03e76d0c42,687ed1b7e638a4cbf2f02089,689b8c7f86da6a988eccd865,,,,,,,,,,,,,,1,,,,,,,,,,,,,,,,,,,,,,,,,,,,,,,,,,,,,,,,,,,,,,,,,,,,,,,,,64,orgulloso,,,,,514.4857,515.7953,0,0,0.7707,,0,16,16,63,1,REAL,FAKE,,,,,,,,,,,,,,,,,
,,,,,,,,,653fb726d2b45b03e76d0c42,Mexican,13 or older,"no, only English or Spanish",yes,2025-08-12_14h49.06.548,empathy_intonation_perc,2024.2.4,MacIntel,58.82352941,653fb726d2b45b03e76d0c42,687ed1b7e638a4cbf2f02089,689b8c7f86da6a988eccd865,,,,,,,,,,,,,,0,,,,,,,,,,,,,,,,,,,,,,,,,,,,,,,,,,,,,,,,,,,,,,,,,,,,,,,,,84,escuto,,,,,515.7957,517.8701,1,0,1.5526,,0,17,17,83,1,REAL,FAKE,,,,,,,,,,,,,,,,,
,,,,,,,,,653fb726d2b45b03e76d0c42,Mexican,13 or older,"no, only English or Spanish",yes,2025-08-12_14h49.06.548,empathy_intonation_perc,2024.2.4,MacIntel,58.82352941,653fb726d2b45b03e76d0c42,687ed1b7e638a4cbf2f02089,689b8c7f86da6a988eccd865,,,,,,,,,,,,,,0,,,,,,,,,,,,,,,,,,,,,,,,,,,,,,,,,,,,,,,,,,,,,,,,,,,,,,,,,58,plaudir,,,,,517.8705,519.4951,0,1,1.1007,,0,18,18,57,1,REAL,FAKE,,,,,,,,,,,,,,,,,
,,,,,,,,,653fb726d2b45b03e76d0c42,Mexican,13 or older,"no, only English or Spanish",yes,2025-08-12_14h49.06.548,empathy_intonation_perc,2024.2.4,MacIntel,58.82352941,653fb726d2b45b03e76d0c42,687ed1b7e638a4cbf2f02089,689b8c7f86da6a988eccd865,,,,,,,,,,,,,,1,,,,,,,,,,,,,,,,,,,,,,,,,,,,,,,,,,,,,,,,,,,,,,,,,,,,,,,,,44,cuchara,,,,,519.4957,520.9322,1,1,0.8969,,0,19,19,43,1,REAL,FAKE,,,,,,,,,,,,,,,,,
,,,,,,,,,653fb726d2b45b03e76d0c42,Mexican,13 or older,"no, only English or Spanish",yes,2025-08-12_14h49.06.548,empathy_intonation_perc,2024.2.4,MacIntel,58.82352941,653fb726d2b45b03e76d0c42,687ed1b7e638a4cbf2f02089,689b8c7f86da6a988eccd865,,,,,,,,,,,,,,0,,,,,,,,,,,,,,,,,,,,,,,,,,,,,,,,,,,,,,,,,,,,,,,,,,,,,,,,,18,arsa,,,,,520.9327,522.7929,0,1,1.3176,,0,20,20,17,1,REAL,FAKE,,,,,,,,,,,,,,,,,
,,,,,,,,,653fb726d2b45b03e76d0c42,Mexican,13 or older,"no, only English or Spanish",yes,2025-08-12_14h49.06.548,empathy_intonation_perc,2024.2.4,MacIntel,58.82352941,653fb726d2b45b03e76d0c42,687ed1b7e638a4cbf2f02089,689b8c7f86da6a988eccd865,,,,,,,,,,,,,,1,,,,,,,,,,,,,,,,,,,,,,,,,,,,,,,,,,,,,,,,,,,,,,,,,,,,,,,,,68,alegre,,,,,522.7933,524.6562,0,0,1.3247,,0,21,21,67,1,REAL,FAKE,,,,,,,,,,,,,,,,,
,,,,,,,,,653fb726d2b45b03e76d0c42,Mexican,13 or older,"no, only English or Spanish",yes,2025-08-12_14h49.06.548,empathy_intonation_perc,2024.2.4,MacIntel,58.82352941,653fb726d2b45b03e76d0c42,687ed1b7e638a4cbf2f02089,689b8c7f86da6a988eccd865,,,,,,,,,,,,,,1,,,,,,,,,,,,,,,,,,,,,,,,,,,,,,,,,,,,,,,,,,,,,,,,,,,,,,,,,60,matar,,,,,524.6566,526.4684,1,1,1.2728,,0,22,22,59,1,REAL,FAKE,,,,,,,,,,,,,,,,,
,,,,,,,,,653fb726d2b45b03e76d0c42,Mexican,13 or older,"no, only English or Spanish",yes,2025-08-12_14h49.06.548,empathy_intonation_perc,2024.2.4,MacIntel,58.82352941,653fb726d2b45b03e76d0c42,687ed1b7e638a4cbf2f02089,689b8c7f86da6a988eccd865,,,,,,,,,,,,,,0,,,,,,,,,,,,,,,,,,,,,,,,,,,,,,,,,,,,,,,,,,,,,,,,,,,,,,,,,16,abracer,,,,,526.4688,527.9244,1,0,0.9179,,0,23,23,15,1,REAL,FAKE,,,,,,,,,,,,,,,,,
,,,,,,,,,653fb726d2b45b03e76d0c42,Mexican,13 or older,"no, only English or Spanish",yes,2025-08-12_14h49.06.548,empathy_intonation_perc,2024.2.4,MacIntel,58.82352941,653fb726d2b45b03e76d0c42,687ed1b7e638a4cbf2f02089,689b8c7f86da6a988eccd865,,,,,,,,,,,,,,1,,,,,,,,,,,,,,,,,,,,,,,,,,,,,,,,,,,,,,,,,,,,,,,,,,,,,,,,,76,atar,,,,,527.9248,529.5597,0,0,1.0989,,0,24,24,75,1,REAL,FAKE,,,,,,,,,,,,,,,,,
,,,,,,,,,653fb726d2b45b03e76d0c42,Mexican,13 or older,"no, only English or Spanish",yes,2025-08-12_14h49.06.548,empathy_intonation_perc,2024.2.4,MacIntel,58.82352941,653fb726d2b45b03e76d0c42,687ed1b7e638a4cbf2f02089,689b8c7f86da6a988eccd865,,,,,,,,,,,,,,0,,,,,,,,,,,,,,,,,,,,,,,,,,,,,,,,,,,,,,,,,,,,,,,,,,,,,,,,,29,decar,,,,,529.5602,531.0616,0,1,0.9653,,0,25,25,28,1,REAL,FAKE,,,,,,,,,,,,,,,,,
,,,,,,,,,653fb726d2b45b03e76d0c42,Mexican,13 or older,"no, only English or Spanish",yes,2025-08-12_14h49.06.548,empathy_intonation_perc,2024.2.4,MacIntel,58.82352941,653fb726d2b45b03e76d0c42,687ed1b7e638a4cbf2f02089,689b8c7f86da6a988eccd865,,,,,,,,,,,,,,1,,,,,,,,,,,,,,,,,,,,,,,,,,,,,,,,,,,,,,,,,,,,,,,,,,,,,,,,,55,nevar,,,,,531.0622,532.5781,0,0,0.9803,,0,26,26,54,1,REAL,FAKE,,,,,,,,,,,,,,,,,
,,,,,,,,,653fb726d2b45b03e76d0c42,Mexican,13 or older,"no, only English or Spanish",yes,2025-08-12_14h49.06.548,empathy_intonation_perc,2024.2.4,MacIntel,58.82352941,653fb726d2b45b03e76d0c42,687ed1b7e638a4cbf2f02089,689b8c7f86da6a988eccd865,,,,,,,,,,,,,,1,,,,,,,,,,,,,,,,,,,,,,,,,,,,,,,,,,,,,,,,,,,,,,,,,,,,,,,,,31,pandilla,,,,,532.5787,534.3625,1,1,1.2508,,0,27,27,30,1,REAL,FAKE,,,,,,,,,,,,,,,,,
,,,,,,,,,653fb726d2b45b03e76d0c42,Mexican,13 or older,"no, only English or Spanish",yes,2025-08-12_14h49.06.548,empathy_intonation_perc,2024.2.4,MacIntel,58.82352941,653fb726d2b45b03e76d0c42,687ed1b7e638a4cbf2f02089,689b8c7f86da6a988eccd865,,,,,,,,,,,,,,1,,,,,,,,,,,,,,,,,,,,,,,,,,,,,,,,,,,,,,,,,,,,,,,,,,,,,,,,,38,estornudar,,,,,534.363,535.8694,0,0,0.9729,,0,28,28,37,1,REAL,FAKE,,,,,,,,,,,,,,,,,
,,,,,,,,,653fb726d2b45b03e76d0c42,Mexican,13 or older,"no, only English or Spanish",yes,2025-08-12_14h49.06.548,empathy_intonation_perc,2024.2.4,MacIntel,58.82352941,653fb726d2b45b03e76d0c42,687ed1b7e638a4cbf2f02089,689b8c7f86da6a988eccd865,,,,,,,,,,,,,,0,,,,,,,,,,,,,,,,,,,,,,,,,,,,,,,,,,,,,,,,,,,,,,,,,,,,,,,,,10,antar,,,,,535.8699,537.8915,0,1,1.4956,,0,29,29,9,1,REAL,FAKE,,,,,,,,,,,,,,,,,
,,,,,,,,,653fb726d2b45b03e76d0c42,Mexican,13 or older,"no, only English or Spanish",yes,2025-08-12_14h49.06.548,empathy_intonation_perc,2024.2.4,MacIntel,58.82352941,653fb726d2b45b03e76d0c42,687ed1b7e638a4cbf2f02089,689b8c7f86da6a988eccd865,,,,,,,,,,,,,,1,,,,,,,,,,,,,,,,,,,,,,,,,,,,,,,,,,,,,,,,,,,,,,,,,,,,,,,,,45,jilguero,,,,,537.8918,539.4116,0,0,0.9955,,0,30,30,44,1,REAL,FAKE,,,,,,,,,,,,,,,,,
,,,,,,,,,653fb726d2b45b03e76d0c42,Mexican,13 or older,"no, only English or Spanish",yes,2025-08-12_14h49.06.548,empathy_intonation_perc,2024.2.4,MacIntel,58.82352941,653fb726d2b45b03e76d0c42,687ed1b7e638a4cbf2f02089,689b8c7f86da6a988eccd865,,,,,,,,,,,,,,1,,,,,,,,,,,,,,,,,,,,,,,,,,,,,,,,,,,,,,,,,,,,,,,,,,,,,,,,,51,candado,,,,,539.412,541.1399,0,0,1.1874,,0,31,31,50,1,REAL,FAKE,,,,,,,,,,,,,,,,,
,,,,,,,,,653fb726d2b45b03e76d0c42,Mexican,13 or older,"no, only English or Spanish",yes,2025-08-12_14h49.06.548,empathy_intonation_perc,2024.2.4,MacIntel,58.82352941,653fb726d2b45b03e76d0c42,687ed1b7e638a4cbf2f02089,689b8c7f86da6a988eccd865,,,,,,,,,,,,,,1,,,,,,,,,,,,,,,,,,,,,,,,,,,,,,,,,,,,,,,,,,,,,,,,,,,,,,,,,36,loro,,,,,541.1402,542.3947,0,0,0.7312,,0,32,32,35,1,REAL,FAKE,,,,,,,,,,,,,,,,,
,,,,,,,,,653fb726d2b45b03e76d0c42,Mexican,13 or older,"no, only English or Spanish",yes,2025-08-12_14h49.06.548,empathy_intonation_perc,2024.2.4,MacIntel,58.82352941,653fb726d2b45b03e76d0c42,687ed1b7e638a4cbf2f02089,689b8c7f86da6a988eccd865,,,,,,,,,,,,,,1,,,,,,,,,,,,,,,,,,,,,,,,,,,,,,,,,,,,,,,,,,,,,,,,,,,,,,,,,59,besar,,,,,542.3953,543.5909,0,0,0.6604,,0,33,33,58,1,REAL,FAKE,,,,,,,,,,,,,,,,,
,,,,,,,,,653fb726d2b45b03e76d0c42,Mexican,13 or older,"no, only English or Spanish",yes,2025-08-12_14h49.06.548,empathy_intonation_perc,2024.2.4,MacIntel,58.82352941,653fb726d2b45b03e76d0c42,687ed1b7e638a4cbf2f02089,689b8c7f86da6a988eccd865,,,,,,,,,,,,,,1,,,,,,,,,,,,,,,,,,,,,,,,,,,,,,,,,,,,,,,,,,,,,,,,,,,,,,,,,61,seda,,,,,543.5914,544.97,0,0,0.8438,,0,34,34,60,1,REAL,FAKE,,,,,,,,,,,,,,,,,
,,,,,,,,,653fb726d2b45b03e76d0c42,Mexican,13 or older,"no, only English or Spanish",yes,2025-08-12_14h49.06.548,empathy_intonation_perc,2024.2.4,MacIntel,58.82352941,653fb726d2b45b03e76d0c42,687ed1b7e638a4cbf2f02089,689b8c7f86da6a988eccd865,,,,,,,,,,,,,,1,,,,,,,,,,,,,,,,,,,,,,,,,,,,,,,,,,,,,,,,,,,,,,,,,,,,,,,,,89,prisa,,,,,544.9706,546.4949,1,1,1.0023,,0,35,35,88,1,REAL,FAKE,,,,,,,,,,,,,,,,,
,,,,,,,,,653fb726d2b45b03e76d0c42,Mexican,13 or older,"no, only English or Spanish",yes,2025-08-12_14h49.06.548,empathy_intonation_perc,2024.2.4,MacIntel,58.82352941,653fb726d2b45b03e76d0c42,687ed1b7e638a4cbf2f02089,689b8c7f86da6a988eccd865,,,,,,,,,,,,,,1,,,,,,,,,,,,,,,,,,,,,,,,,,,,,,,,,,,,,,,,,,,,,,,,,,,,,,,,,56,musgo,,,,,546.4954,548.1959,0,0,1.1614,,0,36,36,55,1,REAL,FAKE,,,,,,,,,,,,,,,,,
,,,,,,,,,653fb726d2b45b03e76d0c42,Mexican,13 or older,"no, only English or Spanish",yes,2025-08-12_14h49.06.548,empathy_intonation_perc,2024.2.4,MacIntel,58.82352941,653fb726d2b45b03e76d0c42,687ed1b7e638a4cbf2f02089,689b8c7f86da6a988eccd865,,,,,,,,,,,,,,1,,,,,,,,,,,,,,,,,,,,,,,,,,,,,,,,,,,,,,,,,,,,,,,,,,,,,,,,,91,click the 1 key.,,,,,548.1964,549.6911,1,1,0.9564,,0,37,37,90,1,REAL,FAKE,,,,,,,,,,,,,,,,,
,,,,,,,,,653fb726d2b45b03e76d0c42,Mexican,13 or older,"no, only English or Spanish",yes,2025-08-12_14h49.06.548,empathy_intonation_perc,2024.2.4,MacIntel,58.82352941,653fb726d2b45b03e76d0c42,687ed1b7e638a4cbf2f02089,689b8c7f86da6a988eccd865,,,,,,,,,,,,,,1,,,,,,,,,,,,,,,,,,,,,,,,,,,,,,,,,,,,,,,,,,,,,,,,,,,,,,,,,26,secuestro,,,,,549.6917,551.4261,1,1,1.2096,,0,38,38,25,1,REAL,FAKE,,,,,,,,,,,,,,,,,
,,,,,,,,,653fb726d2b45b03e76d0c42,Mexican,13 or older,"no, only English or Spanish",yes,2025-08-12_14h49.06.548,empathy_intonation_perc,2024.2.4,MacIntel,58.82352941,653fb726d2b45b03e76d0c42,687ed1b7e638a4cbf2f02089,689b8c7f86da6a988eccd865,,,,,,,,,,,,,,1,,,,,,,,,,,,,,,,,,,,,,,,,,,,,,,,,,,,,,,,,,,,,,,,,,,,,,,,,71,polvoriento,,,,,551.4266,552.8815,0,0,0.9147,,0,39,39,70,1,REAL,FAKE,,,,,,,,,,,,,,,,,
,,,,,,,,,653fb726d2b45b03e76d0c42,Mexican,13 or older,"no, only English or Spanish",yes,2025-08-12_14h49.06.548,empathy_intonation_perc,2024.2.4,MacIntel,58.82352941,653fb726d2b45b03e76d0c42,687ed1b7e638a4cbf2f02089,689b8c7f86da6a988eccd865,,,,,,,,,,,,,,1,,,,,,,,,,,,,,,,,,,,,,,,,,,,,,,,,,,,,,,,,,,,,,,,,,,,,,,,,85,laúd,,,,,552.8819,554.3768,0,0,0.9579,,0,40,40,84,1,REAL,FAKE,,,,,,,,,,,,,,,,,
,,,,,,,,,653fb726d2b45b03e76d0c42,Mexican,13 or older,"no, only English or Spanish",yes,2025-08-12_14h49.06.548,empathy_intonation_perc,2024.2.4,MacIntel,58.82352941,653fb726d2b45b03e76d0c42,687ed1b7e638a4cbf2f02089,689b8c7f86da6a988eccd865,,,,,,,,,,,,,,1,,,,,,,,,,,,,,,,,,,,,,,,,,,,,,,,,,,,,,,,,,,,,,,,,,,,,,,,,43,canela,,,,,554.3771,556.2004,1,1,1.2816,,0,41,41,42,1,REAL,FAKE,,,,,,,,,,,,,,,,,
,,,,,,,,,653fb726d2b45b03e76d0c42,Mexican,13 or older,"no, only English or Spanish",yes,2025-08-12_14h49.06.548,empathy_intonation_perc,2024.2.4,MacIntel,58.82352941,653fb726d2b45b03e76d0c42,687ed1b7e638a4cbf2f02089,689b8c7f86da6a988eccd865,,,,,,,,,,,,,,1,,,,,,,,,,,,,,,,,,,,,,,,,,,,,,,,,,,,,,,,,,,,,,,,,,,,,,,,,69,engatusar,,,,,556.2009,557.5533,0,0,0.8175,,0,42,42,68,1,REAL,FAKE,,,,,,,,,,,,,,,,,
,,,,,,,,,653fb726d2b45b03e76d0c42,Mexican,13 or older,"no, only English or Spanish",yes,2025-08-12_14h49.06.548,empathy_intonation_perc,2024.2.4,MacIntel,58.82352941,653fb726d2b45b03e76d0c42,687ed1b7e638a4cbf2f02089,689b8c7f86da6a988eccd865,,,,,,,,,,,,,,0,,,,,,,,,,,,,,,,,,,,,,,,,,,,,,,,,,,,,,,,,,,,,,,,,,,,,,,,,1,terzo,,,,,557.5537,558.9124,0,1,0.816,,0,43,43,0,1,REAL,FAKE,,,,,,,,,,,,,,,,,
,,,,,,,,,653fb726d2b45b03e76d0c42,Mexican,13 or older,"no, only English or Spanish",yes,2025-08-12_14h49.06.548,empathy_intonation_perc,2024.2.4,MacIntel,58.82352941,653fb726d2b45b03e76d0c42,687ed1b7e638a4cbf2f02089,689b8c7f86da6a988eccd865,,,,,,,,,,,,,,1,,,,,,,,,,,,,,,,,,,,,,,,,,,,,,,,,,,,,,,,,,,,,,,,,,,,,,,,,22,lacayo,,,,,558.9128,560.3971,0,0,0.9593,,0,44,44,21,1,REAL,FAKE,,,,,,,,,,,,,,,,,
,,,,,,,,,653fb726d2b45b03e76d0c42,Mexican,13 or older,"no, only English or Spanish",yes,2025-08-12_14h49.06.548,empathy_intonation_perc,2024.2.4,MacIntel,58.82352941,653fb726d2b45b03e76d0c42,687ed1b7e638a4cbf2f02089,689b8c7f86da6a988eccd865,,,,,,,,,,,,,,0,,,,,,,,,,,,,,,,,,,,,,,,,,,,,,,,,,,,,,,,,,,,,,,,,,,,,,,,,21,capillo,,,,,560.3976,561.8971,1,0,0.9598,,0,45,45,20,1,REAL,FAKE,,,,,,,,,,,,,,,,,
,,,,,,,,,653fb726d2b45b03e76d0c42,Mexican,13 or older,"no, only English or Spanish",yes,2025-08-12_14h49.06.548,empathy_intonation_perc,2024.2.4,MacIntel,58.82352941,653fb726d2b45b03e76d0c42,687ed1b7e638a4cbf2f02089,689b8c7f86da6a988eccd865,,,,,,,,,,,,,,1,,,,,,,,,,,,,,,,,,,,,,,,,,,,,,,,,,,,,,,,,,,,,,,,,,,,,,,,,77,tiburón,,,,,561.8974,563.8058,1,1,1.369,,0,46,46,76,1,REAL,FAKE,,,,,,,,,,,,,,,,,
,,,,,,,,,653fb726d2b45b03e76d0c42,Mexican,13 or older,"no, only English or Spanish",yes,2025-08-12_14h49.06.548,empathy_intonation_perc,2024.2.4,MacIntel,58.82352941,653fb726d2b45b03e76d0c42,687ed1b7e638a4cbf2f02089,689b8c7f86da6a988eccd865,,,,,,,,,,,,,,1,,,,,,,,,,,,,,,,,,,,,,,,,,,,,,,,,,,,,,,,,,,,,,,,,,,,,,,,,37,granuja,,,,,563.8063,566.0109,1,1,1.6696,,0,47,47,36,1,REAL,FAKE,,,,,,,,,,,,,,,,,
,,,,,,,,,653fb726d2b45b03e76d0c42,Mexican,13 or older,"no, only English or Spanish",yes,2025-08-12_14h49.06.548,empathy_intonation_perc,2024.2.4,MacIntel,58.82352941,653fb726d2b45b03e76d0c42,687ed1b7e638a4cbf2f02089,689b8c7f86da6a988eccd865,,,,,,,,,,,,,,0,,,,,,,,,,,,,,,,,,,,,,,,,,,,,,,,,,,,,,,,,,,,,,,,,,,,,,,,,70,temblo,,,,,566.0115,567.8279,0,1,1.2888,,0,48,48,69,1,REAL,FAKE,,,,,,,,,,,,,,,,,
,,,,,,,,,653fb726d2b45b03e76d0c42,Mexican,13 or older,"no, only English or Spanish",yes,2025-08-12_14h49.06.548,empathy_intonation_perc,2024.2.4,MacIntel,58.82352941,653fb726d2b45b03e76d0c42,687ed1b7e638a4cbf2f02089,689b8c7f86da6a988eccd865,,,,,,,,,,,,,,0,,,,,,,,,,,,,,,,,,,,,,,,,,,,,,,,,,,,,,,,,,,,,,,,,,,,,,,,,17,floroso,,,,,567.8284,569.1814,0,1,0.8282,,0,49,49,16,1,REAL,FAKE,,,,,,,,,,,,,,,,,
,,,,,,,,,653fb726d2b45b03e76d0c42,Mexican,13 or older,"no, only English or Spanish",yes,2025-08-12_14h49.06.548,empathy_intonation_perc,2024.2.4,MacIntel,58.82352941,653fb726d2b45b03e76d0c42,687ed1b7e638a4cbf2f02089,689b8c7f86da6a988eccd865,,,,,,,,,,,,,,1,,,,,,,,,,,,,,,,,,,,,,,,,,,,,,,,,,,,,,,,,,,,,,,,,,,,,,,,,25,bisagra,,,,,569.1817,570.4502,0,0,0.7275,,0,50,50,24,1,REAL,FAKE,,,,,,,,,,,,,,,,,
,,,,,,,,,653fb726d2b45b03e76d0c42,Mexican,13 or older,"no, only English or Spanish",yes,2025-08-12_14h49.06.548,empathy_intonation_perc,2024.2.4,MacIntel,58.82352941,653fb726d2b45b03e76d0c42,687ed1b7e638a4cbf2f02089,689b8c7f86da6a988eccd865,,,,,,,,,,,,,,1,,,,,,,,,,,,,,,,,,,,,,,,,,,,,,,,,,,,,,,,,,,,,,,,,,,,,,,,,39,torpe,,,,,570.4507,571.9036,0,0,0.9134,,0,51,51,38,1,REAL,FAKE,,,,,,,,,,,,,,,,,
,,,,,,,,,653fb726d2b45b03e76d0c42,Mexican,13 or older,"no, only English or Spanish",yes,2025-08-12_14h49.06.548,empathy_intonation_perc,2024.2.4,MacIntel,58.82352941,653fb726d2b45b03e76d0c42,687ed1b7e638a4cbf2f02089,689b8c7f86da6a988eccd865,,,,,,,,,,,,,,1,,,,,,,,,,,,,,,,,,,,,,,,,,,,,,,,,,,,,,,,,,,,,,,,,,,,,,,,,12,asesinato,,,,,571.9041,573.2722,0,0,0.8309,,0,52,52,11,1,REAL,FAKE,,,,,,,,,,,,,,,,,
,,,,,,,,,653fb726d2b45b03e76d0c42,Mexican,13 or older,"no, only English or Spanish",yes,2025-08-12_14h49.06.548,empathy_intonation_perc,2024.2.4,MacIntel,58.82352941,653fb726d2b45b03e76d0c42,687ed1b7e638a4cbf2f02089,689b8c7f86da6a988eccd865,,,,,,,,,,,,,,0,,,,,,,,,,,,,,,,,,,,,,,,,,,,,,,,,,,,,,,,,,,,,,,,,,,,,,,,,19,brecedad,,,,,573.2728,574.5151,0,1,0.7015,,0,53,53,18,1,REAL,FAKE,,,,,,,,,,,,,,,,,
,,,,,,,,,653fb726d2b45b03e76d0c42,Mexican,13 or older,"no, only English or Spanish",yes,2025-08-12_14h49.06.548,empathy_intonation_perc,2024.2.4,MacIntel,58.82352941,653fb726d2b45b03e76d0c42,687ed1b7e638a4cbf2f02089,689b8c7f86da6a988eccd865,,,,,,,,,,,,,,1,,,,,,,,,,,,,,,,,,,,,,,,,,,,,,,,,,,,,,,,,,,,,,,,,,,,,,,,,40,alfombra,,,,,574.5156,575.8798,0,0,0.8366,,0,54,54,39,1,REAL,FAKE,,,,,,,,,,,,,,,,,
,,,,,,,,,653fb726d2b45b03e76d0c42,Mexican,13 or older,"no, only English or Spanish",yes,2025-08-12_14h49.06.548,empathy_intonation_perc,2024.2.4,MacIntel,58.82352941,653fb726d2b45b03e76d0c42,687ed1b7e638a4cbf2f02089,689b8c7f86da6a988eccd865,,,,,,,,,,,,,,0,,,,,,,,,,,,,,,,,,,,,,,,,,,,,,,,,,,,,,,,,,,,,,,,,,,,,,,,,8,cadeña,,,,,575.8802,577.9151,0,1,1.4933,,0,55,55,7,1,REAL,FAKE,,,,,,,,,,,,,,,,,
,,,,,,,,,653fb726d2b45b03e76d0c42,Mexican,13 or older,"no, only English or Spanish",yes,2025-08-12_14h49.06.548,empathy_intonation_perc,2024.2.4,MacIntel,58.82352941,653fb726d2b45b03e76d0c42,687ed1b7e638a4cbf2f02089,689b8c7f86da6a988eccd865,,,,,,,,,,,,,,0,,,,,,,,,,,,,,,,,,,,,,,,,,,,,,,,,,,,,,,,,,,,,,,,,,,,,,,,,53,vegada,,,,,577.9155,579.3558,0,1,0.9136,,0,56,56,52,1,REAL,FAKE,,,,,,,,,,,,,,,,,
,,,,,,,,,653fb726d2b45b03e76d0c42,Mexican,13 or older,"no, only English or Spanish",yes,2025-08-12_14h49.06.548,empathy_intonation_perc,2024.2.4,MacIntel,58.82352941,653fb726d2b45b03e76d0c42,687ed1b7e638a4cbf2f02089,689b8c7f86da6a988eccd865,,,,,,,,,,,,,,1,,,,,,,,,,,,,,,,,,,,,,,,,,,,,,,,,,,,,,,,,,,,,,,,,,,,,,,,,78,frondoso,,,,,579.3563,581.2464,0,0,1.3519,,0,57,57,77,1,REAL,FAKE,,,,,,,,,,,,,,,,,
,,,,,,,,,653fb726d2b45b03e76d0c42,Mexican,13 or older,"no, only English or Spanish",yes,2025-08-12_14h49.06.548,empathy_intonation_perc,2024.2.4,MacIntel,58.82352941,653fb726d2b45b03e76d0c42,687ed1b7e638a4cbf2f02089,689b8c7f86da6a988eccd865,,,,,,,,,,,,,,1,,,,,,,,,,,,,,,,,,,,,,,,,,,,,,,,,,,,,,,,,,,,,,,,,,,,,,,,,41,rebuscar,,,,,581.2469,582.5525,0,0,0.765,,0,58,58,40,1,REAL,FAKE,,,,,,,,,,,,,,,,,
,,,,,,,,,653fb726d2b45b03e76d0c42,Mexican,13 or older,"no, only English or Spanish",yes,2025-08-12_14h49.06.548,empathy_intonation_perc,2024.2.4,MacIntel,58.82352941,653fb726d2b45b03e76d0c42,687ed1b7e638a4cbf2f02089,689b8c7f86da6a988eccd865,,,,,,,,,,,,,,0,,,,,,,,,,,,,,,,,,,,,,,,,,,,,,,,,,,,,,,,,,,,,,,,,,,,,,,,,4,batillón,,,,,582.5529,584.5349,0,1,1.4464,,0,59,59,3,1,REAL,FAKE,,,,,,,,,,,,,,,,,
,,,,,,,,,653fb726d2b45b03e76d0c42,Mexican,13 or older,"no, only English or Spanish",yes,2025-08-12_14h49.06.548,empathy_intonation_perc,2024.2.4,MacIntel,58.82352941,653fb726d2b45b03e76d0c42,687ed1b7e638a4cbf2f02089,689b8c7f86da6a988eccd865,,,,,,,,,,,,,,1,,,,,,,,,,,,,,,,,,,,,,,,,,,,,,,,,,,,,,,,,,,,,,,,,,,,,,,,,11,cenefa,,,,,584.5355,585.7672,0,0,0.7095,,0,60,60,10,1,REAL,FAKE,,,,,,,,,,,,,,,,,
,,,,,,,,,653fb726d2b45b03e76d0c42,Mexican,13 or older,"no, only English or Spanish",yes,2025-08-12_14h49.06.548,empathy_intonation_perc,2024.2.4,MacIntel,58.82352941,653fb726d2b45b03e76d0c42,687ed1b7e638a4cbf2f02089,689b8c7f86da6a988eccd865,,,,,,,,,,,,,,1,,,,,,,,,,,,,,,,,,,,,,,,,,,,,,,,,,,,,,,,,,,,,,,,,,,,,,,,,81,pozo,,,,,585.7677,587.2782,0,0,0.9847,,0,61,61,80,1,REAL,FAKE,,,,,,,,,,,,,,,,,
,,,,,,,,,653fb726d2b45b03e76d0c42,Mexican,13 or older,"no, only English or Spanish",yes,2025-08-12_14h49.06.548,empathy_intonation_perc,2024.2.4,MacIntel,58.82352941,653fb726d2b45b03e76d0c42,687ed1b7e638a4cbf2f02089,689b8c7f86da6a988eccd865,,,,,,,,,,,,,,1,,,,,,,,,,,,,,,,,,,,,,,,,,,,,,,,,,,,,,,,,,,,,,,,,,,,,,,,,73,hervidor,,,,,587.2788,588.6071,0,0,0.783,,0,62,62,72,1,REAL,FAKE,,,,,,,,,,,,,,,,,
,,,,,,,,,653fb726d2b45b03e76d0c42,Mexican,13 or older,"no, only English or Spanish",yes,2025-08-12_14h49.06.548,empathy_intonation_perc,2024.2.4,MacIntel,58.82352941,653fb726d2b45b03e76d0c42,687ed1b7e638a4cbf2f02089,689b8c7f86da6a988eccd865,,,,,,,,,,,,,,1,,,,,,,,,,,,,,,,,,,,,,,,,,,,,,,,,,,,,,,,,,,,,,,,,,,,,,,,,46,martillo,,,,,588.6076,590.0522,0,0,0.9182,,0,63,63,45,1,REAL,FAKE,,,,,,,,,,,,,,,,,
,,,,,,,,,653fb726d2b45b03e76d0c42,Mexican,13 or older,"no, only English or Spanish",yes,2025-08-12_14h49.06.548,empathy_intonation_perc,2024.2.4,MacIntel,58.82352941,653fb726d2b45b03e76d0c42,687ed1b7e638a4cbf2f02089,689b8c7f86da6a988eccd865,,,,,,,,,,,,,,1,,,,,,,,,,,,,,,,,,,,,,,,,,,,,,,,,,,,,,,,,,,,,,,,,,,,,,,,,83,guante,,,,,590.0527,591.2636,0,0,0.6884,,0,64,64,82,1,REAL,FAKE,,,,,,,,,,,,,,,,,
,,,,,,,,,653fb726d2b45b03e76d0c42,Mexican,13 or older,"no, only English or Spanish",yes,2025-08-12_14h49.06.548,empathy_intonation_perc,2024.2.4,MacIntel,58.82352941,653fb726d2b45b03e76d0c42,687ed1b7e638a4cbf2f02089,689b8c7f86da6a988eccd865,,,,,,,,,,,,,,1,,,,,,,,,,,,,,,,,,,,,,,,,,,,,,,,,,,,,,,,,,,,,,,,,,,,,,,,,86,barato,,,,,591.264,592.5418,0,0,0.745,,0,65,65,85,1,REAL,FAKE,,,,,,,,,,,,,,,,,
,,,,,,,,,653fb726d2b45b03e76d0c42,Mexican,13 or older,"no, only English or Spanish",yes,2025-08-12_14h49.06.548,empathy_intonation_perc,2024.2.4,MacIntel,58.82352941,653fb726d2b45b03e76d0c42,687ed1b7e638a4cbf2f02089,689b8c7f86da6a988eccd865,,,,,,,,,,,,,,0,,,,,,,,,,,,,,,,,,,,,,,,,,,,,,,,,,,,,,,,,,,,,,,,,,,,,,,,,33,pauca,,,,,592.5422,593.8338,0,1,0.7502,,0,66,66,32,1,REAL,FAKE,,,,,,,,,,,,,,,,,
,,,,,,,,,653fb726d2b45b03e76d0c42,Mexican,13 or older,"no, only English or Spanish",yes,2025-08-12_14h49.06.548,empathy_intonation_perc,2024.2.4,MacIntel,58.82352941,653fb726d2b45b03e76d0c42,687ed1b7e638a4cbf2f02089,689b8c7f86da6a988eccd865,,,,,,,,,,,,,,0,,,,,,,,,,,,,,,,,,,,,,,,,,,,,,,,,,,,,,,,,,,,,,,,,,,,,,,,,35,rompido,,,,,593.8342,595.2577,0,1,0.8872,,0,67,67,34,1,REAL,FAKE,,,,,,,,,,,,,,,,,
,,,,,,,,,653fb726d2b45b03e76d0c42,Mexican,13 or older,"no, only English or Spanish",yes,2025-08-12_14h49.06.548,empathy_intonation_perc,2024.2.4,MacIntel,58.82352941,653fb726d2b45b03e76d0c42,687ed1b7e638a4cbf2f02089,689b8c7f86da6a988eccd865,,,,,,,,,,,,,,1,,,,,,,,,,,,,,,,,,,,,,,,,,,,,,,,,,,,,,,,,,,,,,,,,,,,,,,,,13,helar,,,,,595.2581,596.464,0,0,0.682,,0,68,68,12,1,REAL,FAKE,,,,,,,,,,,,,,,,,
,,,,,,,,,653fb726d2b45b03e76d0c42,Mexican,13 or older,"no, only English or Spanish",yes,2025-08-12_14h49.06.548,empathy_intonation_perc,2024.2.4,MacIntel,58.82352941,653fb726d2b45b03e76d0c42,687ed1b7e638a4cbf2f02089,689b8c7f86da6a988eccd865,,,,,,,,,,,,,,0,,,,,,,,,,,,,,,,,,,,,,,,,,,,,,,,,,,,,,,,,,,,,,,,,,,,,,,,,27,acutación,,,,,596.4644,597.9422,0,1,0.9351,,0,69,69,26,1,REAL,FAKE,,,,,,,,,,,,,,,,,
,,,,,,,,,653fb726d2b45b03e76d0c42,Mexican,13 or older,"no, only English or Spanish",yes,2025-08-12_14h49.06.548,empathy_intonation_perc,2024.2.4,MacIntel,58.82352941,653fb726d2b45b03e76d0c42,687ed1b7e638a4cbf2f02089,689b8c7f86da6a988eccd865,,,,,,,,,,,,,,1,,,,,,,,,,,,,,,,,,,,,,,,,,,,,,,,,,,,,,,,,,,,,,,,,,,,,,,,,90,clavel,,,,,597.9427,599.5082,0,0,1.0429,,0,70,70,89,1,REAL,FAKE,,,,,,,,,,,,,,,,,
,,,,,,,,,653fb726d2b45b03e76d0c42,Mexican,13 or older,"no, only English or Spanish",yes,2025-08-12_14h49.06.548,empathy_intonation_perc,2024.2.4,MacIntel,58.82352941,653fb726d2b45b03e76d0c42,687ed1b7e638a4cbf2f02089,689b8c7f86da6a988eccd865,,,,,,,,,,,,,,1,,,,,,,,,,,,,,,,,,,,,,,,,,,,,,,,,,,,,,,,,,,,,,,,,,,,,,,,,15,regar,,,,,599.5086,601.2809,0,0,1.2313,,0,71,71,14,1,REAL,FAKE,,,,,,,,,,,,,,,,,
,,,,,,,,,653fb726d2b45b03e76d0c42,Mexican,13 or older,"no, only English or Spanish",yes,2025-08-12_14h49.06.548,empathy_intonation_perc,2024.2.4,MacIntel,58.82352941,653fb726d2b45b03e76d0c42,687ed1b7e638a4cbf2f02089,689b8c7f86da6a988eccd865,,,,,,,,,,,,,,1,,,,,,,,,,,,,,,,,,,,,,,,,,,,,,,,,,,,,,,,,,,,,,,,,,,,,,,,,24,látigo,,,,,601.2814,603.2037,0,0,1.3992,,0,72,72,23,1,REAL,FAKE,,,,,,,,,,,,,,,,,
,,,,,,,,,653fb726d2b45b03e76d0c42,Mexican,13 or older,"no, only English or Spanish",yes,2025-08-12_14h49.06.548,empathy_intonation_perc,2024.2.4,MacIntel,58.82352941,653fb726d2b45b03e76d0c42,687ed1b7e638a4cbf2f02089,689b8c7f86da6a988eccd865,,,,,,,,,,,,,,1,,,,,,,,,,,,,,,,,,,,,,,,,,,,,,,,,,,,,,,,,,,,,,,,,,,,,,,,,7,pésimo,,,,,603.2042,605.9969,1,1,2.2541,,0,73,73,6,1,REAL,FAKE,,,,,,,,,,,,,,,,,
,,,,,,,,,653fb726d2b45b03e76d0c42,Mexican,13 or older,"no, only English or Spanish",yes,2025-08-12_14h49.06.548,empathy_intonation_perc,2024.2.4,MacIntel,58.82352941,653fb726d2b45b03e76d0c42,687ed1b7e638a4cbf2f02089,689b8c7f86da6a988eccd865,,,,,,,,,,,,,,1,,,,,,,,,,,,,,,,,,,,,,,,,,,,,,,,,,,,,,,,,,,,,,,,,,,,,,,,,9,hacha,,,,,605.9973,607.8697,1,1,1.3353,,0,74,74,8,1,REAL,FAKE,,,,,,,,,,,,,,,,,
,,,,,,,,,653fb726d2b45b03e76d0c42,Mexican,13 or older,"no, only English or Spanish",yes,2025-08-12_14h49.06.548,empathy_intonation_perc,2024.2.4,MacIntel,58.82352941,653fb726d2b45b03e76d0c42,687ed1b7e638a4cbf2f02089,689b8c7f86da6a988eccd865,,,,,,,,,,,,,,1,,,,,,,,,,,,,,,,,,,,,,,,,,,,,,,,,,,,,,,,,,,,,,,,,,,,,,,,,57,tacaño,,,,,607.8703,610.213,1,1,1.8064,,0,75,75,56,1,REAL,FAKE,,,,,,,,,,,,,,,,,
,,,,,,,,,653fb726d2b45b03e76d0c42,Mexican,13 or older,"no, only English or Spanish",yes,2025-08-12_14h49.06.548,empathy_intonation_perc,2024.2.4,MacIntel,58.82352941,653fb726d2b45b03e76d0c42,687ed1b7e638a4cbf2f02089,689b8c7f86da6a988eccd865,,,,,,,,,,,,,,1,,,,,,,,,,,,,,,,,,,,,,,,,,,,,,,,,,,,,,,,,,,,,,,,,,,,,,,,,2,pellizcar,,,,,610.2134,612.1772,0,0,1.4245,,0,76,76,1,1,REAL,FAKE,,,,,,,,,,,,,,,,,
,,,,,,,,,653fb726d2b45b03e76d0c42,Mexican,13 or older,"no, only English or Spanish",yes,2025-08-12_14h49.06.548,empathy_intonation_perc,2024.2.4,MacIntel,58.82352941,653fb726d2b45b03e76d0c42,687ed1b7e638a4cbf2f02089,689b8c7f86da6a988eccd865,,,,,,,,,,,,,,1,,,,,,,,,,,,,,,,,,,,,,,,,,,,,,,,,,,,,,,,,,,,,,,,,,,,,,,,,20,ávido,,,,,612.1775,614.2177,1,1,1.5052,,0,77,77,19,1,REAL,FAKE,,,,,,,,,,,,,,,,,
,,,,,,,,,653fb726d2b45b03e76d0c42,Mexican,13 or older,"no, only English or Spanish",yes,2025-08-12_14h49.06.548,empathy_intonation_perc,2024.2.4,MacIntel,58.82352941,653fb726d2b45b03e76d0c42,687ed1b7e638a4cbf2f02089,689b8c7f86da6a988eccd865,,,,,,,,,,,,,,1,,,,,,,,,,,,,,,,,,,,,,,,,,,,,,,,,,,,,,,,,,,,,,,,,,,,,,,,,65,bizcocho,,,,,614.2181,615.8196,0,0,1.0777,,0,78,78,64,1,REAL,FAKE,,,,,,,,,,,,,,,,,
,,,,,,,,,653fb726d2b45b03e76d0c42,Mexican,13 or older,"no, only English or Spanish",yes,2025-08-12_14h49.06.548,empathy_intonation_perc,2024.2.4,MacIntel,58.82352941,653fb726d2b45b03e76d0c42,687ed1b7e638a4cbf2f02089,689b8c7f86da6a988eccd865,,,,,,,,,,,,,,1,,,,,,,,,,,,,,,,,,,,,,,,,,,,,,,,,,,,,,,,,,,,,,,,,,,,,,,,,88,acantilado,,,,,615.82,618.7322,1,1,2.3671,,0,79,79,87,1,REAL,FAKE,,,,,,,,,,,,,,,,,
,,,,,,,,,653fb726d2b45b03e76d0c42,Mexican,13 or older,"no, only English or Spanish",yes,2025-08-12_14h49.06.548,empathy_intonation_perc,2024.2.4,MacIntel,58.82352941,653fb726d2b45b03e76d0c42,687ed1b7e638a4cbf2f02089,689b8c7f86da6a988eccd865,,,,,,,,,,,,,,1,,,,,,,,,,,,,,,,,,,,,,,,,,,,,,,,,,,,,,,,,,,,,,,,,,,,,,,,,3,pulmones,,,,,618.7327,621.1906,1,1,1.9338,,0,80,80,2,1,REAL,FAKE,,,,,,,,,,,,,,,,,
,,,,,,,,,653fb726d2b45b03e76d0c42,Mexican,13 or older,"no, only English or Spanish",yes,2025-08-12_14h49.06.548,empathy_intonation_perc,2024.2.4,MacIntel,58.82352941,653fb726d2b45b03e76d0c42,687ed1b7e638a4cbf2f02089,689b8c7f86da6a988eccd865,,,,,,,,,,,,,,0,,,,,,,,,,,,,,,,,,,,,,,,,,,,,,,,,,,,,,,,,,,,,,,,,,,,,,,,,79,tropaje,,,,,621.191,623.2924,1,0,1.5601,,0,81,81,78,1,REAL,FAKE,,,,,,,,,,,,,,,,,
,,,,,,,,,653fb726d2b45b03e76d0c42,Mexican,13 or older,"no, only English or Spanish",yes,2025-08-12_14h49.06.548,empathy_intonation_perc,2024.2.4,MacIntel,58.82352941,653fb726d2b45b03e76d0c42,687ed1b7e638a4cbf2f02089,689b8c7f86da6a988eccd865,,,,,,,,,,,,,,0,,,,,,,,,,,,,,,,,,,,,,,,,,,,,,,,,,,,,,,,,,,,,,,,,,,,,,,,,92,click the 0 key.,,,,,623.2928,625.4465,0,1,1.6235,,0,82,82,91,1,REAL,FAKE,,,,,,,,,,,,,,,,,
,,,,,,,,,653fb726d2b45b03e76d0c42,Mexican,13 or older,"no, only English or Spanish",yes,2025-08-12_14h49.06.548,empathy_intonation_perc,2024.2.4,MacIntel,58.82352941,653fb726d2b45b03e76d0c42,687ed1b7e638a4cbf2f02089,689b8c7f86da6a988eccd865,,,,,,,,,,,,,,0,,,,,,,,,,,,,,,,,,,,,,,,,,,,,,,,,,,,,,,,,,,,,,,,,,,,,,,,,72,pemición,,,,,625.4469,627.0394,0,1,1.0669,,0,83,83,71,1,REAL,FAKE,,,,,,,,,,,,,,,,,
,,,,,,,,,653fb726d2b45b03e76d0c42,Mexican,13 or older,"no, only English or Spanish",yes,2025-08-12_14h49.06.548,empathy_intonation_perc,2024.2.4,MacIntel,58.82352941,653fb726d2b45b03e76d0c42,687ed1b7e638a4cbf2f02089,689b8c7f86da6a988eccd865,,,,,,,,,,,,,,0,,,,,,,,,,,,,,,,,,,,,,,,,,,,,,,,,,,,,,,,,,,,,,,,,,,,,,,,,63,esposante,,,,,627.0399,628.6872,0,1,1.1217,,0,84,84,62,1,REAL,FAKE,,,,,,,,,,,,,,,,,
,,,,,,,,,653fb726d2b45b03e76d0c42,Mexican,13 or older,"no, only English or Spanish",yes,2025-08-12_14h49.06.548,empathy_intonation_perc,2024.2.4,MacIntel,58.82352941,653fb726d2b45b03e76d0c42,687ed1b7e638a4cbf2f02089,689b8c7f86da6a988eccd865,,,,,,,,,,,,,,0,,,,,,,,,,,,,,,,,,,,,,,,,,,,,,,,,,,,,,,,,,,,,,,,,,,,,,,,,23,lampera,,,,,628.6877,631.6216,1,0,2.4095,,0,85,85,22,1,REAL,FAKE,,,,,,,,,,,,,,,,,
,,,,,,,,,653fb726d2b45b03e76d0c42,Mexican,13 or older,"no, only English or Spanish",yes,2025-08-12_14h49.06.548,empathy_intonation_perc,2024.2.4,MacIntel,58.82352941,653fb726d2b45b03e76d0c42,687ed1b7e638a4cbf2f02089,689b8c7f86da6a988eccd865,,,,,,,,,,,,,,1,,,,,,,,,,,,,,,,,,,,,,,,,,,,,,,,,,,,,,,,,,,,,,,,,,,,,,,,,34,aviso,,,,,631.622,633.1988,0,0,1.0412,,0,86,86,33,1,REAL,FAKE,,,,,,,,,,,,,,,,,
,,,,,,,,,653fb726d2b45b03e76d0c42,Mexican,13 or older,"no, only English or Spanish",yes,2025-08-12_14h49.06.548,empathy_intonation_perc,2024.2.4,MacIntel,58.82352941,653fb726d2b45b03e76d0c42,687ed1b7e638a4cbf2f02089,689b8c7f86da6a988eccd865,,,,,,,,,,,,,,1,,,,,,,,,,,,,,,,,,,,,,,,,,,,,,,,,,,,,,,,,,,,,,,,,,,,,,,,,80,hormiga,,,,,633.1992,634.7155,0,0,0.9804,,0,87,87,79,1,REAL,FAKE,,,,,,,,,,,,,,,,,
,,,,,,,,,653fb726d2b45b03e76d0c42,Mexican,13 or older,"no, only English or Spanish",yes,2025-08-12_14h49.06.548,empathy_intonation_perc,2024.2.4,MacIntel,58.82352941,653fb726d2b45b03e76d0c42,687ed1b7e638a4cbf2f02089,689b8c7f86da6a988eccd865,,,,,,,,,,,,,,0,,,,,,,,,,,,,,,,,,,,,,,,,,,,,,,,,,,,,,,,,,,,,,,,,,,,,,,,,42,cadallo,,,,,634.716,636.3138,0,1,1.0682,,0,88,88,41,1,REAL,FAKE,,,,,,,,,,,,,,,,,
,,,,,,,,,653fb726d2b45b03e76d0c42,Mexican,13 or older,"no, only English or Spanish",yes,2025-08-12_14h49.06.548,empathy_intonation_perc,2024.2.4,MacIntel,58.82352941,653fb726d2b45b03e76d0c42,687ed1b7e638a4cbf2f02089,689b8c7f86da6a988eccd865,,,,,,,,,,,,,,0,,,,,,,,,,,,,,,,,,,,,,,,,,,,,,,,,,,,,,,,,,,,,,,,,,,,,,,,,30,alardio,,,,,636.3142,637.9384,0,1,1.0869,,0,89,89,29,1,REAL,FAKE,,,,,,,,,,,,,,,,,
,,,,,,,,,653fb726d2b45b03e76d0c42,Mexican,13 or older,"no, only English or Spanish",yes,2025-08-12_14h49.06.548,empathy_intonation_perc,2024.2.4,MacIntel,58.82352941,653fb726d2b45b03e76d0c42,687ed1b7e638a4cbf2f02089,689b8c7f86da6a988eccd865,,,,,,,,,,,,,,1,,,,,,,,,,,,,,,,,,,,,,,,,,,,,,,,,,,,,,,,,,,,,,,,,,,,,,,,,52,camisa,,,,,637.9388,639.4932,1,1,1.016,,0,90,90,51,1,REAL,FAKE,,,,,,,,,,,,,,,,,
,,,,,,,,,653fb726d2b45b03e76d0c42,Mexican,13 or older,"no, only English or Spanish",yes,2025-08-12_14h49.06.548,empathy_intonation_perc,2024.2.4,MacIntel,58.82352941,653fb726d2b45b03e76d0c42,687ed1b7e638a4cbf2f02089,689b8c7f86da6a988eccd865,,,,,,,,,,,,,,0,,,,,,,,,,,,,,,,,,,,,,,,,,,,,,,,,,,,,,,,,,,,,,,,,,,,,,,,,47,cartinar,,,,,639.4936,641.6691,0,1,1.64,,0,91,91,46,1,REAL,FAKE,,,,,,,,,,,,,,,,,
,,,,,,,,,653fb726d2b45b03e76d0c42,Mexican,13 or older,"no, only English or Spanish",yes,2025-08-12_14h49.06.548,empathy_intonation_perc,2024.2.4,MacIntel,58.82352941,653fb726d2b45b03e76d0c42,687ed1b7e638a4cbf2f02089,689b8c7f86da6a988eccd865,,,,,,,,,,,,,,,,,,,,,,,,,,,,,,,,,,,,,,,,,,,,,,,,,,,,,,,,,,,,,,,,,,,,,,,,,,,,,,,,,,,,,,,,,,641.6693,646.4338,,,,,,,,,,,,,,,
,,,,,,,,,653fb726d2b45b03e76d0c42,Mexican,13 or older,"no, only English or Spanish",yes,2025-08-12_14h49.06.548,empathy_intonation_perc,2024.2.4,MacIntel,58.82352941,653fb726d2b45b03e76d0c42,687ed1b7e638a4cbf2f02089,689b8c7f86da6a988eccd865,,,,,,,,,,,,,1,,,,,,,,,,,,,,,,,,,,,,,,,,,,,,,,,,,,,,,,,,,,,,,,,,,,,,,,,,,,,,,,,,,,,,,,,,,,,,,646.4402,650.0826,slightly disagree,0,0,0,0,1,I can easily tell if someone else wants to enter a conversation.,1,0,1,0,,
,,,,,,,,,653fb726d2b45b03e76d0c42,Mexican,13 or older,"no, only English or Spanish",yes,2025-08-12_14h49.06.548,empathy_intonation_perc,2024.2.4,MacIntel,58.82352941,653fb726d2b45b03e76d0c42,687ed1b7e638a4cbf2f02089,689b8c7f86da6a988eccd865,,,,,,,,,,,,,2,,,,,,,,,,,,,,,,,,,,,,,,,,,,,,,,,,,,,,,,,,,,,,,,,,,,,,,,,,,,,,,,,,,,,,,,,,,,,,,650.0831,655.0878,slightly agree,0,1,1,1,1,I prefer animals to humans.,0,1,0,0,,
,,,,,,,,,653fb726d2b45b03e76d0c42,Mexican,13 or older,"no, only English or Spanish",yes,2025-08-12_14h49.06.548,empathy_intonation_perc,2024.2.4,MacIntel,58.82352941,653fb726d2b45b03e76d0c42,687ed1b7e638a4cbf2f02089,689b8c7f86da6a988eccd865,,,,,,,,,,,,,3,,,,,,,,,,,,,,,,,,,,,,,,,,,,,,,,,,,,,,,,,,,,,,,,,,,,,,,,,,,,,,,,,,,,,,,,,,,,,,,655.0884,658.4766,slightly agree,0,2,2,2,1,I try to keep up with the current trends and fashions.,0,1,0,0,,
,,,,,,,,,653fb726d2b45b03e76d0c42,Mexican,13 or older,"no, only English or Spanish",yes,2025-08-12_14h49.06.548,empathy_intonation_perc,2024.2.4,MacIntel,58.82352941,653fb726d2b45b03e76d0c42,687ed1b7e638a4cbf2f02089,689b8c7f86da6a988eccd865,,,,,,,,,,,,,4,,,,,,,,,,,,,,,,,,,,,,,,,,,,,,,,,,,,,,,,,,,,,,,,,,,,,,,,,,,,,,,,,,,,,,,,,,,,,,,658.4773,667.6268,slightly disagree,0,3,3,3,1,"I find it difficult to explain to others things that I understand easily,   when they don't understand it first time.",1,0,0,1,,
,,,,,,,,,653fb726d2b45b03e76d0c42,Mexican,13 or older,"no, only English or Spanish",yes,2025-08-12_14h49.06.548,empathy_intonation_perc,2024.2.4,MacIntel,58.82352941,653fb726d2b45b03e76d0c42,687ed1b7e638a4cbf2f02089,689b8c7f86da6a988eccd865,,,,,,,,,,,,,5,,,,,,,,,,,,,,,,,,,,,,,,,,,,,,,,,,,,,,,,,,,,,,,,,,,,,,,,,,,,,,,,,,,,,,,,,,,,,,,667.6273,670.3146,strongly agree,0,4,4,4,1,I dream most nights.,0,1,0,0,,
,,,,,,,,,653fb726d2b45b03e76d0c42,Mexican,13 or older,"no, only English or Spanish",yes,2025-08-12_14h49.06.548,empathy_intonation_perc,2024.2.4,MacIntel,58.82352941,653fb726d2b45b03e76d0c42,687ed1b7e638a4cbf2f02089,689b8c7f86da6a988eccd865,,,,,,,,,,,,,6,,,,,,,,,,,,,,,,,,,,,,,,,,,,,,,,,,,,,,,,,,,,,,,,,,,,,,,,,,,,,,,,,,,,,,,,,,,,,,,670.3151,672.1001,strongly agree,0,5,5,5,1,I really enjoy caring for other people.,1,0,1,0,,
,,,,,,,,,653fb726d2b45b03e76d0c42,Mexican,13 or older,"no, only English or Spanish",yes,2025-08-12_14h49.06.548,empathy_intonation_perc,2024.2.4,MacIntel,58.82352941,653fb726d2b45b03e76d0c42,687ed1b7e638a4cbf2f02089,689b8c7f86da6a988eccd865,,,,,,,,,,,,,7,,,,,,,,,,,,,,,,,,,,,,,,,,,,,,,,,,,,,,,,,,,,,,,,,,,,,,,,,,,,,,,,,,,,,,,,,,,,,,,672.1007,674.6453,slightly disagree,0,6,6,6,1,I try to solve my own problems rather than discussing them with others.,0,1,0,0,,
,,,,,,,,,653fb726d2b45b03e76d0c42,Mexican,13 or older,"no, only English or Spanish",yes,2025-08-12_14h49.06.548,empathy_intonation_perc,2024.2.4,MacIntel,58.82352941,653fb726d2b45b03e76d0c42,687ed1b7e638a4cbf2f02089,689b8c7f86da6a988eccd865,,,,,,,,,,,,,8,,,,,,,,,,,,,,,,,,,,,,,,,,,,,,,,,,,,,,,,,,,,,,,,,,,,,,,,,,,,,,,,,,,,,,,,,,,,,,,674.6459,677.9949,strongly agree,0,7,7,7,1,I find it hard to know what to do in a social situation.,1,0,0,1,,
