instructions_exposure.started,instructions_exposure.stopped,instructions_exposure_loop.thisRepN,instructions_exposure_loop.thisTrialN,instructions_exposure_loop.thisN,instructions_exposure_loop.thisIndex,instructions_exposure_loop.ran,instructions_text,continue_text,participant_id,"What variety of Spanish are you most familiar with? (e.g., Peruvian, Spanish, Mexican)",At what age did you begin learning Spanish?,Are you proficient in any languages other than English/Spanish?,"Are you familiar with Caribbean (e.g., Caribbean, Puerto Rican) or Galician Spanish?",date,expName,psychopyVersion,OS,frameRate,id,study_id,session,trial_exposure.started,trial_exposure.stopped,key_resp_exposure.keys,key_resp_exposure.corr,key_resp_exposure.rt,key_resp_exposure.duration,key_resp.keys,exposure_loop.thisRepN,exposure_loop.thisTrialN,exposure_loop.thisN,exposure_loop.thisIndex,exposure_loop.ran,item_num,correct_response,question,path,duration,instructions_2afc.started,instructions_2afc.stopped,instructions_2afc_loop.thisRepN,instructions_2afc_loop.thisTrialN,instructions_2afc_loop.thisN,instructions_2afc_loop.thisIndex,instructions_2afc_loop.ran,practice_2afc.started,practice_2afc.stopped,key_resp_2afc_practice.keys,key_resp_2afc_practice.corr,key_resp_2afc_practice.rt,key_resp_2afc_practice.duration,trials_2afc_practice_loop.thisRepN,trials_2afc_practice_loop.thisTrialN,trials_2afc_practice_loop.thisN,trials_2afc_practice_loop.thisIndex,trials_2afc_practice_loop.ran,check_2afc.started,check_2afc.stopped,trial_2afc.started,trial_2afc.stopped,key_resp_2afc_trial.keys,key_resp_2afc_trial.corr,key_resp_2afc_trial.rt,key_resp_2afc_trial.duration,trials_2afc_loop.thisRepN,trials_2afc_loop.thisTrialN,trials_2afc_loop.thisN,trials_2afc_loop.thisIndex,trials_2afc_loop.ran,target,variety,instructions_lextale.started,instructions_lextale.stopped,instructions_lextale_loop.thisRepN,instructions_lextale_loop.thisTrialN,instructions_lextale_loop.thisN,instructions_lextale_loop.thisIndex,instructions_lextale_loop.ran,practice_lextale.started,practice_lextale.stopped,key_resp_lextale_practice.keys,key_resp_lextale_practice.corr,key_resp_lextale_practice.rt,key_resp_lextale_practice.duration,practice_feedback_lextale.started,practice_feedback_lextale.stopped,trials_lextale_practice_loop.thisRepN,trials_lextale_practice_loop.thisTrialN,trials_lextale_practice_loop.thisN,trials_lextale_practice_loop.thisIndex,trials_lextale_practice_loop.ran,stim,word,prac_button_real,prac_button_false,check_lextale.started,check_lextale.stopped,trial_lextale.started,trial_lextale.stopped,key_resp_lextale_trial.keys,key_resp_lextale_trial.corr,key_resp_lextale_trial.rt,key_resp_lextale_trial.duration,trials_lextale_loop.thisRepN,trials_lextale_loop.thisTrialN,trials_lextale_loop.thisN,trials_lextale_loop.thisIndex,trials_lextale_loop.ran,button_real,button_false,instructions_eq.started,instructions_eq.stopped,trial_eq.started,trial_eq.stopped,slider_eq_trial.response,trials_eq_loop.thisRepN,trials_eq_loop.thisTrialN,trials_eq_loop.thisN,trials_eq_loop.thisIndex,trials_eq_loop.ran,item,is_test_item,is_distractor,is_agree_score,is_disagree_score,end_exp.started,end_exp.stopped
0.004,2.048,0,0,0,0,1,"In the following task, you are going to hear a series of conversations.", (press the space bar to continue),654509bce930185adab23a1a,"mexican, puerto rican",13 or older,"no, only English or Spanish",yes,2025-07-23_07h59.46.476,empathy_intonation_perc,2024.2.4,Win32,144.092219,654509bce930185adab23a1a,687ed1b7e638a4cbf2f02089,6880ce819b6e21ce2f292a9e,,,,,,,,,,,,,,,,,,,,,,,,,,,,,,,,,,,,,,,,,,,,,,,,,,,,,,,,,,,,,,,,,,,,,,,,,,,,,,,,,,,,,,,,,,,,,,,,,,,,,,,,,,
2.048,3.79,0,1,1,1,1,It is okay if you don't not 100% understand them!, (press the space bar to continue),654509bce930185adab23a1a,"mexican, puerto rican",13 or older,"no, only English or Spanish",yes,2025-07-23_07h59.46.476,empathy_intonation_perc,2024.2.4,Win32,144.092219,654509bce930185adab23a1a,687ed1b7e638a4cbf2f02089,6880ce819b6e21ce2f292a9e,,,,,,,,,,,,,,,,,,,,,,,,,,,,,,,,,,,,,,,,,,,,,,,,,,,,,,,,,,,,,,,,,,,,,,,,,,,,,,,,,,,,,,,,,,,,,,,,,,,,,,,,,,
3.791,6.409,0,2,2,2,1,"After, you will read a sentence about the conversation and decide if it's true or false.", (press the space bar to continue),654509bce930185adab23a1a,"mexican, puerto rican",13 or older,"no, only English or Spanish",yes,2025-07-23_07h59.46.476,empathy_intonation_perc,2024.2.4,Win32,144.092219,654509bce930185adab23a1a,687ed1b7e638a4cbf2f02089,6880ce819b6e21ce2f292a9e,,,,,,,,,,,,,,,,,,,,,,,,,,,,,,,,,,,,,,,,,,,,,,,,,,,,,,,,,,,,,,,,,,,,,,,,,,,,,,,,,,,,,,,,,,,,,,,,,,,,,,,,,,
6.41,10.09,0,3,3,3,1,"If it's true, press '1' (True) and if it's false press '0' (False).", (press the space bar to continue),654509bce930185adab23a1a,"mexican, puerto rican",13 or older,"no, only English or Spanish",yes,2025-07-23_07h59.46.476,empathy_intonation_perc,2024.2.4,Win32,144.092219,654509bce930185adab23a1a,687ed1b7e638a4cbf2f02089,6880ce819b6e21ce2f292a9e,,,,,,,,,,,,,,,,,,,,,,,,,,,,,,,,,,,,,,,,,,,,,,,,,,,,,,,,,,,,,,,,,,,,,,,,,,,,,,,,,,,,,,,,,,,,,,,,,,,,,,,,,,
,,,,,,,,,654509bce930185adab23a1a,"mexican, puerto rican",13 or older,"no, only English or Spanish",yes,2025-07-23_07h59.46.476,empathy_intonation_perc,2024.2.4,Win32,144.092219,654509bce930185adab23a1a,687ed1b7e638a4cbf2f02089,6880ce819b6e21ce2f292a9e,10.092,49.501,1,0,3.386,,,0,0,0,2,1,3,0,The mom already has rice.,./stim/exposure_wavs/pr_stimuli_convo.wav,36,,,,,,,,,,,,,,,,,,,,,,,,,,,,,,,,,,,,,,,,,,,,,,,,,,,,,,,,,,,,,,,,,,,,,,,,,,,,,,,,,,,,,,,,,
,,,,,,,,,654509bce930185adab23a1a,"mexican, puerto rican",13 or older,"no, only English or Spanish",yes,2025-07-23_07h59.46.476,empathy_intonation_perc,2024.2.4,Win32,144.092219,654509bce930185adab23a1a,687ed1b7e638a4cbf2f02089,6880ce819b6e21ce2f292a9e,49.503,101.668,1,1,5.143,,,0,1,1,0,1,1,1,The son asked the mom if Aunt Marina is okay.,./stim/exposure_wavs/ga_stimuli_convo.wav,47,,,,,,,,,,,,,,,,,,,,,,,,,,,,,,,,,,,,,,,,,,,,,,,,,,,,,,,,,,,,,,,,,,,,,,,,,,,,,,,,,,,,,,,,,
,,,,,,,,,654509bce930185adab23a1a,"mexican, puerto rican",13 or older,"no, only English or Spanish",yes,2025-07-23_07h59.46.476,empathy_intonation_perc,2024.2.4,Win32,144.092219,654509bce930185adab23a1a,687ed1b7e638a4cbf2f02089,6880ce819b6e21ce2f292a9e,101.67,169.046,0,0,7.355,,,0,2,2,1,1,2,1,The mom asked the daughter if she already went to the supermarket.,./stim/exposure_wavs/dr_stimuli_convo.wav,60,,,,,,,,,,,,,,,,,,,,,,,,,,,,,,,,,,,,,,,,,,,,,,,,,,,,,,,,,,,,,,,,,,,,,,,,,,,,,,,,,,,,,,,,,
,,,,,,,"In the following task you are going to hear a series of utterances. 

  You will decide if the utterances sound like questions or not using your keyboard.", (press the spacebar to continue),654509bce930185adab23a1a,"mexican, puerto rican",13 or older,"no, only English or Spanish",yes,2025-07-23_07h59.46.476,empathy_intonation_perc,2024.2.4,Win32,144.092219,654509bce930185adab23a1a,687ed1b7e638a4cbf2f02089,6880ce819b6e21ce2f292a9e,,,,,,,,,,,,,,,,,,169.051,179.622,0,0,0,0,1,,,,,,,,,,,,,,,,,,,,,,,,,,,,,,,,,,,,,,,,,,,,,,,,,,,,,,,,,,,,,,,,,,,,,,,,,,,,,,,,,,
,,,,,,,"If you believe the utterance is a question, type '1' (for 'yes') and if you do not 
  believe it is a question type '0' (for 'no').

  Let's practice a bit...", (press the spacebar to continue),654509bce930185adab23a1a,"mexican, puerto rican",13 or older,"no, only English or Spanish",yes,2025-07-23_07h59.46.476,empathy_intonation_perc,2024.2.4,Win32,144.092219,654509bce930185adab23a1a,687ed1b7e638a4cbf2f02089,6880ce819b6e21ce2f292a9e,,,,,,,,,,,,,,,,,,179.623,183.935,0,1,1,1,1,,,,,,,,,,,,,,,,,,,,,,,,,,,,,,,,,,,,,,,,,,,,,,,,,,,,,,,,,,,,,,,,,,,,,,,,,,,,,,,,,,
,,,,,,,,,654509bce930185adab23a1a,"mexican, puerto rican",13 or older,"no, only English or Spanish",yes,2025-07-23_07h59.46.476,empathy_intonation_perc,2024.2.4,Win32,144.092219,654509bce930185adab23a1a,687ed1b7e638a4cbf2f02089,6880ce819b6e21ce2f292a9e,,,,,,,,,,,,,,0,,./stim/wavs/peruvian_statement_filler_El-nino-habla-con-su-madre.wav,,,,,,,,,183.938,188.401,0,1,3.952,,0,0,0,6,1,,,,,,,,,,,,,,,,,,,,,,,,,,,,,,,,,,,,,,,,,,,,,,,,,,,,,,,,,,,,,,,,,,,,,,,
,,,,,,,,,654509bce930185adab23a1a,"mexican, puerto rican",13 or older,"no, only English or Spanish",yes,2025-07-23_07h59.46.476,empathy_intonation_perc,2024.2.4,Win32,144.092219,654509bce930185adab23a1a,687ed1b7e638a4cbf2f02089,6880ce819b6e21ce2f292a9e,,,,,,,,,,,,,,1,,./stim/wavs/mexican_question_filler_Felipe-no-tiene-contrasena.wav,,,,,,,,,188.401,190.783,1,1,1.872,,0,1,1,3,1,,,,,,,,,,,,,,,,,,,,,,,,,,,,,,,,,,,,,,,,,,,,,,,,,,,,,,,,,,,,,,,,,,,,,,,
,,,,,,,,,654509bce930185adab23a1a,"mexican, puerto rican",13 or older,"no, only English or Spanish",yes,2025-07-23_07h59.46.476,empathy_intonation_perc,2024.2.4,Win32,144.092219,654509bce930185adab23a1a,687ed1b7e638a4cbf2f02089,6880ce819b6e21ce2f292a9e,,,,,,,,,,,,,,1,,./stim/wavs/castilian_question_filler_Mi-esposo-conoce-al-chico.wav,,,,,,,,,190.783,193.095,1,1,1.802,,0,2,2,0,1,,,,,,,,,,,,,,,,,,,,,,,,,,,,,,,,,,,,,,,,,,,,,,,,,,,,,,,,,,,,,,,,,,,,,,,
,,,,,,,,,654509bce930185adab23a1a,"mexican, puerto rican",13 or older,"no, only English or Spanish",yes,2025-07-23_07h59.46.476,empathy_intonation_perc,2024.2.4,Win32,144.092219,654509bce930185adab23a1a,687ed1b7e638a4cbf2f02089,6880ce819b6e21ce2f292a9e,,,,,,,,,,,,,,0,,./stim/wavs/andalusian_statement_filler_Alberto-nunca-se-afeita.wav,,,,,,,,,193.095,196.082,0,1,2.481,,0,3,3,5,1,,,,,,,,,,,,,,,,,,,,,,,,,,,,,,,,,,,,,,,,,,,,,,,,,,,,,,,,,,,,,,,,,,,,,,,
,,,,,,,,,654509bce930185adab23a1a,"mexican, puerto rican",13 or older,"no, only English or Spanish",yes,2025-07-23_07h59.46.476,empathy_intonation_perc,2024.2.4,Win32,144.092219,654509bce930185adab23a1a,687ed1b7e638a4cbf2f02089,6880ce819b6e21ce2f292a9e,,,,,,,,,,,,,,1,,./stim/wavs/chilean_question_filler_Mi-padre-cantaba-bien.wav,,,,,,,,,196.082,197.991,1,1,1.396,,0,4,4,2,1,,,,,,,,,,,,,,,,,,,,,,,,,,,,,,,,,,,,,,,,,,,,,,,,,,,,,,,,,,,,,,,,,,,,,,,
,,,,,,,,,654509bce930185adab23a1a,"mexican, puerto rican",13 or older,"no, only English or Spanish",yes,2025-07-23_07h59.46.476,empathy_intonation_perc,2024.2.4,Win32,144.092219,654509bce930185adab23a1a,687ed1b7e638a4cbf2f02089,6880ce819b6e21ce2f292a9e,,,,,,,,,,,,,,0,,./stim/wavs/puertorican_statement_filler_La-nina-pinta-con-su-amiga.wav,,,,,,,,,197.992,200.463,0,1,1.959,,0,5,5,7,1,,,,,,,,,,,,,,,,,,,,,,,,,,,,,,,,,,,,,,,,,,,,,,,,,,,,,,,,,,,,,,,,,,,,,,,
,,,,,,,,,654509bce930185adab23a1a,"mexican, puerto rican",13 or older,"no, only English or Spanish",yes,2025-07-23_07h59.46.476,empathy_intonation_perc,2024.2.4,Win32,144.092219,654509bce930185adab23a1a,687ed1b7e638a4cbf2f02089,6880ce819b6e21ce2f292a9e,,,,,,,,,,,,,,1,,./stim/wavs/argentine_question_filler_Mi-vecino-habla-mucho.wav,,,,,,,,,200.463,202.345,1,1,1.375,,0,6,6,1,1,,,,,,,,,,,,,,,,,,,,,,,,,,,,,,,,,,,,,,,,,,,,,,,,,,,,,,,,,,,,,,,,,,,,,,,
,,,,,,,,,654509bce930185adab23a1a,"mexican, puerto rican",13 or older,"no, only English or Spanish",yes,2025-07-23_07h59.46.476,empathy_intonation_perc,2024.2.4,Win32,144.092219,654509bce930185adab23a1a,687ed1b7e638a4cbf2f02089,6880ce819b6e21ce2f292a9e,,,,,,,,,,,,,,0,,./stim/wavs/cuban_statement_filler_Cocinabas-por-la-noche.wav,,,,,,,,,202.346,204.859,0,1,2,,0,7,7,4,1,,,,,,,,,,,,,,,,,,,,,,,,,,,,,,,,,,,,,,,,,,,,,,,,,,,,,,,,,,,,,,,,,,,,,,,
,,,,,,,,,654509bce930185adab23a1a,"mexican, puerto rican",13 or older,"no, only English or Spanish",yes,2025-07-23_07h59.46.476,empathy_intonation_perc,2024.2.4,Win32,144.092219,654509bce930185adab23a1a,687ed1b7e638a4cbf2f02089,6880ce819b6e21ce2f292a9e,,,,,,,,,,,,,,,,,,,,,,,,,,,,,,,,,,,,204.859,206.637,,,,,,,,,,,,,,,,,,,,,,,,,,,,,,,,,,,,,,,,,,,,,,,,,,,,,,,,,,,,,,,,,,,,,
,,,,,,,,,654509bce930185adab23a1a,"mexican, puerto rican",13 or older,"no, only English or Spanish",yes,2025-07-23_07h59.46.476,empathy_intonation_perc,2024.2.4,Win32,144.092219,654509bce930185adab23a1a,687ed1b7e638a4cbf2f02089,6880ce819b6e21ce2f292a9e,,,,,,,,,,,,,43,1,,./stim/wavs/puertorican_mismatch_interrogative-total-yn_La-nina-lava-el-plato.wav,,,,,,,,,,,,,,,,,,,,,,206.643,208.838,1,1,1.688,,0,0,0,42,1,1,puertorican,,,,,,,,,,,,,,,,,,,,,,,,,,,,,,,,,,,,,,,,,,,,,,,,,,,,,,,,
,,,,,,,,,654509bce930185adab23a1a,"mexican, puerto rican",13 or older,"no, only English or Spanish",yes,2025-07-23_07h59.46.476,empathy_intonation_perc,2024.2.4,Win32,144.092219,654509bce930185adab23a1a,687ed1b7e638a4cbf2f02089,6880ce819b6e21ce2f292a9e,,,,,,,,,,,,,6,1,,./stim/wavs/castilian_match_interrogative-total-yn_Marta-abre-el-regalo.wav,,,,,,,,,,,,,,,,,,,,,,208.839,210.95,1,1,1.606,,0,1,1,5,1,0,castilian,,,,,,,,,,,,,,,,,,,,,,,,,,,,,,,,,,,,,,,,,,,,,,,,,,,,,,,,
,,,,,,,,,654509bce930185adab23a1a,"mexican, puerto rican",13 or older,"no, only English or Spanish",yes,2025-07-23_07h59.46.476,empathy_intonation_perc,2024.2.4,Win32,144.092219,654509bce930185adab23a1a,687ed1b7e638a4cbf2f02089,6880ce819b6e21ce2f292a9e,,,,,,,,,,,,,20,1,,./stim/wavs/puertorican_match_interrogative-total-yn_Daniel-iba-a-Bolivia.wav,,,,,,,,,,,,,,,,,,,,,,210.95,212.963,1,1,1.501,,0,2,2,19,1,1,puertorican,,,,,,,,,,,,,,,,,,,,,,,,,,,,,,,,,,,,,,,,,,,,,,,,,,,,,,,,
,,,,,,,,,654509bce930185adab23a1a,"mexican, puerto rican",13 or older,"no, only English or Spanish",yes,2025-07-23_07h59.46.476,empathy_intonation_perc,2024.2.4,Win32,144.092219,654509bce930185adab23a1a,687ed1b7e638a4cbf2f02089,6880ce819b6e21ce2f292a9e,,,,,,,,,,,,,33,1,,./stim/wavs/cuban_mismatch_interrogative-total-yn_Mi-novio-viene-del-lago.wav,,,,,,,,,,,,,,,,,,,,,,212.964,215.866,0,0,2.399,,0,3,3,32,1,1,cuban,,,,,,,,,,,,,,,,,,,,,,,,,,,,,,,,,,,,,,,,,,,,,,,,,,,,,,,,
,,,,,,,,,654509bce930185adab23a1a,"mexican, puerto rican",13 or older,"no, only English or Spanish",yes,2025-07-23_07h59.46.476,empathy_intonation_perc,2024.2.4,Win32,144.092219,654509bce930185adab23a1a,687ed1b7e638a4cbf2f02089,6880ce819b6e21ce2f292a9e,,,,,,,,,,,,,46,0,,./stim/wavs/castilian_match_declarative-broad-focus_Emilio-ama-la-marcha.wav,,,,,,,,,,,,,,,,,,,,,,215.866,218.297,0,1,1.924,,0,4,4,45,1,0,castilian,,,,,,,,,,,,,,,,,,,,,,,,,,,,,,,,,,,,,,,,,,,,,,,,,,,,,,,,
,,,,,,,,,654509bce930185adab23a1a,"mexican, puerto rican",13 or older,"no, only English or Spanish",yes,2025-07-23_07h59.46.476,empathy_intonation_perc,2024.2.4,Win32,144.092219,654509bce930185adab23a1a,687ed1b7e638a4cbf2f02089,6880ce819b6e21ce2f292a9e,,,,,,,,,,,,,61,0,,./stim/wavs/mexican_match_declarative-broad-focus_Mariano-habla-del-tiempo.wav,,,,,,,,,,,,,,,,,,,,,,218.298,220.36,0,1,1.549,,0,5,5,60,1,0,mexican,,,,,,,,,,,,,,,,,,,,,,,,,,,,,,,,,,,,,,,,,,,,,,,,,,,,,,,,
,,,,,,,,,654509bce930185adab23a1a,"mexican, puerto rican",13 or older,"no, only English or Spanish",yes,2025-07-23_07h59.46.476,empathy_intonation_perc,2024.2.4,Win32,144.092219,654509bce930185adab23a1a,687ed1b7e638a4cbf2f02089,6880ce819b6e21ce2f292a9e,,,,,,,,,,,,,11,1,,./stim/wavs/cuban_match_interrogative-total-yn_Mariano-habla-del-tiempo.wav,,,,,,,,,,,,,,,,,,,,,,220.36,222.568,0,0,1.698,,0,6,6,10,1,1,cuban,,,,,,,,,,,,,,,,,,,,,,,,,,,,,,,,,,,,,,,,,,,,,,,,,,,,,,,,
,,,,,,,,,654509bce930185adab23a1a,"mexican, puerto rican",13 or older,"no, only English or Spanish",yes,2025-07-23_07h59.46.476,empathy_intonation_perc,2024.2.4,Win32,144.092219,654509bce930185adab23a1a,687ed1b7e638a4cbf2f02089,6880ce819b6e21ce2f292a9e,,,,,,,,,,,,,31,1,,./stim/wavs/cuban_mismatch_interrogative-total-yn_El-nino-oye-el-rio.wav,,,,,,,,,,,,,,,,,,,,,,222.569,224.873,0,0,1.792,,0,7,7,30,1,1,cuban,,,,,,,,,,,,,,,,,,,,,,,,,,,,,,,,,,,,,,,,,,,,,,,,,,,,,,,,
,,,,,,,,,654509bce930185adab23a1a,"mexican, puerto rican",13 or older,"no, only English or Spanish",yes,2025-07-23_07h59.46.476,empathy_intonation_perc,2024.2.4,Win32,144.092219,654509bce930185adab23a1a,687ed1b7e638a4cbf2f02089,6880ce819b6e21ce2f292a9e,,,,,,,,,,,,,82,0,,./stim/wavs/mexican_mismatch_declarative-broad-focus_Mi-novio-viene-del-lago.wav,,,,,,,,,,,,,,,,,,,,,,224.874,227.922,0,1,2.543,,0,8,8,81,1,0,mexican,,,,,,,,,,,,,,,,,,,,,,,,,,,,,,,,,,,,,,,,,,,,,,,,,,,,,,,,
,,,,,,,,,654509bce930185adab23a1a,"mexican, puerto rican",13 or older,"no, only English or Spanish",yes,2025-07-23_07h59.46.476,empathy_intonation_perc,2024.2.4,Win32,144.092219,654509bce930185adab23a1a,687ed1b7e638a4cbf2f02089,6880ce819b6e21ce2f292a9e,,,,,,,,,,,,,38,1,,./stim/wavs/mexican_mismatch_interrogative-total-yn_Mi-novio-viene-del-lago.wav,,,,,,,,,,,,,,,,,,,,,,227.923,229.985,0,0,1.549,,0,9,9,37,1,0,mexican,,,,,,,,,,,,,,,,,,,,,,,,,,,,,,,,,,,,,,,,,,,,,,,,,,,,,,,,
,,,,,,,,,654509bce930185adab23a1a,"mexican, puerto rican",13 or older,"no, only English or Spanish",yes,2025-07-23_07h59.46.476,empathy_intonation_perc,2024.2.4,Win32,144.092219,654509bce930185adab23a1a,687ed1b7e638a4cbf2f02089,6880ce819b6e21ce2f292a9e,,,,,,,,,,,,,19,1,,./stim/wavs/puertorican_match_interrogative-total-yn_Ana-lleva-el-abrigo.wav,,,,,,,,,,,,,,,,,,,,,,229.985,233.687,0,0,3.195,,0,10,10,18,1,1,puertorican,,,,,,,,,,,,,,,,,,,,,,,,,,,,,,,,,,,,,,,,,,,,,,,,,,,,,,,,
,,,,,,,,,654509bce930185adab23a1a,"mexican, puerto rican",13 or older,"no, only English or Spanish",yes,2025-07-23_07h59.46.476,empathy_intonation_perc,2024.2.4,Win32,144.092219,654509bce930185adab23a1a,687ed1b7e638a4cbf2f02089,6880ce819b6e21ce2f292a9e,,,,,,,,,,,,,25,1,,./stim/wavs/castilian_mismatch_interrogative-total-yn_La-maestra-vive-en-Paris.wav,,,,,,,,,,,,,,,,,,,,,,233.687,236.145,1,1,1.948,,0,11,11,24,1,0,castilian,,,,,,,,,,,,,,,,,,,,,,,,,,,,,,,,,,,,,,,,,,,,,,,,,,,,,,,,
,,,,,,,,,654509bce930185adab23a1a,"mexican, puerto rican",13 or older,"no, only English or Spanish",yes,2025-07-23_07h59.46.476,empathy_intonation_perc,2024.2.4,Win32,144.092219,654509bce930185adab23a1a,687ed1b7e638a4cbf2f02089,6880ce819b6e21ce2f292a9e,,,,,,,,,,,,,71,0,,./stim/wavs/castilian_mismatch_declarative-broad-focus_La-nina-lava-el-plato.wav,,,,,,,,,,,,,,,,,,,,,,236.145,239.173,1,0,2.522,,0,12,12,70,1,0,castilian,,,,,,,,,,,,,,,,,,,,,,,,,,,,,,,,,,,,,,,,,,,,,,,,,,,,,,,,
,,,,,,,,,654509bce930185adab23a1a,"mexican, puerto rican",13 or older,"no, only English or Spanish",yes,2025-07-23_07h59.46.476,empathy_intonation_perc,2024.2.4,Win32,144.092219,654509bce930185adab23a1a,687ed1b7e638a4cbf2f02089,6880ce819b6e21ce2f292a9e,,,,,,,,,,,,,17,1,,./stim/wavs/mexican_match_interrogative-total-yn_Mariano-habla-del-tiempo.wav,,,,,,,,,,,,,,,,,,,,,,239.173,241.367,1,1,1.688,,0,13,13,16,1,0,mexican,,,,,,,,,,,,,,,,,,,,,,,,,,,,,,,,,,,,,,,,,,,,,,,,,,,,,,,,
,,,,,,,,,654509bce930185adab23a1a,"mexican, puerto rican",13 or older,"no, only English or Spanish",yes,2025-07-23_07h59.46.476,empathy_intonation_perc,2024.2.4,Win32,144.092219,654509bce930185adab23a1a,687ed1b7e638a4cbf2f02089,6880ce819b6e21ce2f292a9e,,,,,,,,,,,,,60,0,,./stim/wavs/mexican_match_declarative-broad-focus_Emilio-ama-la-marcha.wav,,,,,,,,,,,,,,,,,,,,,,241.367,244.041,0,1,2.167,,0,14,14,59,1,0,mexican,,,,,,,,,,,,,,,,,,,,,,,,,,,,,,,,,,,,,,,,,,,,,,,,,,,,,,,,
,,,,,,,,,654509bce930185adab23a1a,"mexican, puerto rican",13 or older,"no, only English or Spanish",yes,2025-07-23_07h59.46.476,empathy_intonation_perc,2024.2.4,Win32,144.092219,654509bce930185adab23a1a,687ed1b7e638a4cbf2f02089,6880ce819b6e21ce2f292a9e,,,,,,,,,,,,,76,0,,./stim/wavs/cuban_mismatch_declarative-broad-focus_La-nina-lava-el-plato.wav,,,,,,,,,,,,,,,,,,,,,,244.041,246.062,0,1,1.516,,0,15,15,75,1,0,cuban,,,,,,,,,,,,,,,,,,,,,,,,,,,,,,,,,,,,,,,,,,,,,,,,,,,,,,,,
,,,,,,,,,654509bce930185adab23a1a,"mexican, puerto rican",13 or older,"no, only English or Spanish",yes,2025-07-23_07h59.46.476,empathy_intonation_perc,2024.2.4,Win32,144.092219,654509bce930185adab23a1a,687ed1b7e638a4cbf2f02089,6880ce819b6e21ce2f292a9e,,,,,,,,,,,,,37,1,,./stim/wavs/mexican_mismatch_interrogative-total-yn_La-maestra-vive-en-Paris.wav,,,,,,,,,,,,,,,,,,,,,,246.062,248.173,1,1,1.605,,0,16,16,36,1,0,mexican,,,,,,,,,,,,,,,,,,,,,,,,,,,,,,,,,,,,,,,,,,,,,,,,,,,,,,,,
,,,,,,,,,654509bce930185adab23a1a,"mexican, puerto rican",13 or older,"no, only English or Spanish",yes,2025-07-23_07h59.46.476,empathy_intonation_perc,2024.2.4,Win32,144.092219,654509bce930185adab23a1a,687ed1b7e638a4cbf2f02089,6880ce819b6e21ce2f292a9e,,,,,,,,,,,,,68,0,,./stim/wavs/puertorican_match_declarative-broad-focus_Maria-bebe-el-vino.wav,,,,,,,,,,,,,,,,,,,,,,248.174,250.243,0,1,1.556,,0,17,17,67,1,0,puertorican,,,,,,,,,,,,,,,,,,,,,,,,,,,,,,,,,,,,,,,,,,,,,,,,,,,,,,,,
,,,,,,,,,654509bce930185adab23a1a,"mexican, puerto rican",13 or older,"no, only English or Spanish",yes,2025-07-23_07h59.46.476,empathy_intonation_perc,2024.2.4,Win32,144.092219,654509bce930185adab23a1a,687ed1b7e638a4cbf2f02089,6880ce819b6e21ce2f292a9e,,,,,,,,,,,,,3,1,,./stim/wavs/castilian_match_interrogative-total-yn_Manuela-vende-el-carro.wav,,,,,,,,,,,,,,,,,,,,,,250.243,252.52,1,1,1.765,,0,18,18,2,1,0,castilian,,,,,,,,,,,,,,,,,,,,,,,,,,,,,,,,,,,,,,,,,,,,,,,,,,,,,,,,
,,,,,,,,,654509bce930185adab23a1a,"mexican, puerto rican",13 or older,"no, only English or Spanish",yes,2025-07-23_07h59.46.476,empathy_intonation_perc,2024.2.4,Win32,144.092219,654509bce930185adab23a1a,687ed1b7e638a4cbf2f02089,6880ce819b6e21ce2f292a9e,,,,,,,,,,,,,23,1,,./stim/wavs/puertorican_match_interrogative-total-yn_Manuela-vende-el-carro.wav,,,,,,,,,,,,,,,,,,,,,,252.521,254.402,1,1,1.377,,0,19,19,22,1,1,puertorican,,,,,,,,,,,,,,,,,,,,,,,,,,,,,,,,,,,,,,,,,,,,,,,,,,,,,,,,
,,,,,,,,,654509bce930185adab23a1a,"mexican, puerto rican",13 or older,"no, only English or Spanish",yes,2025-07-23_07h59.46.476,empathy_intonation_perc,2024.2.4,Win32,144.092219,654509bce930185adab23a1a,687ed1b7e638a4cbf2f02089,6880ce819b6e21ce2f292a9e,,,,,,,,,,,,,72,0,,./stim/wavs/castilian_mismatch_declarative-broad-focus_Mi-novio-viene-del-lago.wav,,,,,,,,,,,,,,,,,,,,,,254.403,257.243,0,1,2.333,,0,20,20,71,1,0,castilian,,,,,,,,,,,,,,,,,,,,,,,,,,,,,,,,,,,,,,,,,,,,,,,,,,,,,,,,
,,,,,,,,,654509bce930185adab23a1a,"mexican, puerto rican",13 or older,"no, only English or Spanish",yes,2025-07-23_07h59.46.476,empathy_intonation_perc,2024.2.4,Win32,144.092219,654509bce930185adab23a1a,687ed1b7e638a4cbf2f02089,6880ce819b6e21ce2f292a9e,,,,,,,,,,,,,41,1,,./stim/wavs/puertorican_mismatch_interrogative-total-yn_El-nino-oye-el-rio.wav,,,,,,,,,,,,,,,,,,,,,,257.244,259.236,0,0,1.479,,0,21,21,40,1,1,puertorican,,,,,,,,,,,,,,,,,,,,,,,,,,,,,,,,,,,,,,,,,,,,,,,,,,,,,,,,
,,,,,,,,,654509bce930185adab23a1a,"mexican, puerto rican",13 or older,"no, only English or Spanish",yes,2025-07-23_07h59.46.476,empathy_intonation_perc,2024.2.4,Win32,144.092219,654509bce930185adab23a1a,687ed1b7e638a4cbf2f02089,6880ce819b6e21ce2f292a9e,,,,,,,,,,,,,67,0,,./stim/wavs/puertorican_match_declarative-broad-focus_Manuela-vende-el-carro.wav,,,,,,,,,,,,,,,,,,,,,,259.236,261.556,1,0,1.812,,0,22,22,66,1,0,puertorican,,,,,,,,,,,,,,,,,,,,,,,,,,,,,,,,,,,,,,,,,,,,,,,,,,,,,,,,
,,,,,,,,,654509bce930185adab23a1a,"mexican, puerto rican",13 or older,"no, only English or Spanish",yes,2025-07-23_07h59.46.476,empathy_intonation_perc,2024.2.4,Win32,144.092219,654509bce930185adab23a1a,687ed1b7e638a4cbf2f02089,6880ce819b6e21ce2f292a9e,,,,,,,,,,,,,2,1,,./stim/wavs/castilian_match_interrogative-total-yn_Emilio-ama-la-marcha.wav,,,,,,,,,,,,,,,,,,,,,,261.557,264.062,1,1,1.994,,0,23,23,1,1,0,castilian,,,,,,,,,,,,,,,,,,,,,,,,,,,,,,,,,,,,,,,,,,,,,,,,,,,,,,,,
,,,,,,,,,654509bce930185adab23a1a,"mexican, puerto rican",13 or older,"no, only English or Spanish",yes,2025-07-23_07h59.46.476,empathy_intonation_perc,2024.2.4,Win32,144.092219,654509bce930185adab23a1a,687ed1b7e638a4cbf2f02089,6880ce819b6e21ce2f292a9e,,,,,,,,,,,,,50,0,,./stim/wavs/castilian_match_declarative-broad-focus_Marta-abre-el-regalo.wav,,,,,,,,,,,,,,,,,,,,,,264.063,266.549,1,0,1.972,,0,24,24,49,1,0,castilian,,,,,,,,,,,,,,,,,,,,,,,,,,,,,,,,,,,,,,,,,,,,,,,,,,,,,,,,
,,,,,,,,,654509bce930185adab23a1a,"mexican, puerto rican",13 or older,"no, only English or Spanish",yes,2025-07-23_07h59.46.476,empathy_intonation_perc,2024.2.4,Win32,144.092219,654509bce930185adab23a1a,687ed1b7e638a4cbf2f02089,6880ce819b6e21ce2f292a9e,,,,,,,,,,,,,75,0,,./stim/wavs/cuban_mismatch_declarative-broad-focus_El-hombre-mira-la-luna.wav,,,,,,,,,,,,,,,,,,,,,,266.549,269.618,1,0,2.563,,0,25,25,74,1,0,cuban,,,,,,,,,,,,,,,,,,,,,,,,,,,,,,,,,,,,,,,,,,,,,,,,,,,,,,,,
,,,,,,,,,654509bce930185adab23a1a,"mexican, puerto rican",13 or older,"no, only English or Spanish",yes,2025-07-23_07h59.46.476,empathy_intonation_perc,2024.2.4,Win32,144.092219,654509bce930185adab23a1a,687ed1b7e638a4cbf2f02089,6880ce819b6e21ce2f292a9e,,,,,,,,,,,,,14,1,,./stim/wavs/mexican_match_interrogative-total-yn_Daniel-iba-a-Bolivia.wav,,,,,,,,,,,,,,,,,,,,,,269.618,271.75,1,1,1.626,,0,26,26,13,1,0,mexican,,,,,,,,,,,,,,,,,,,,,,,,,,,,,,,,,,,,,,,,,,,,,,,,,,,,,,,,
,,,,,,,,,654509bce930185adab23a1a,"mexican, puerto rican",13 or older,"no, only English or Spanish",yes,2025-07-23_07h59.46.476,empathy_intonation_perc,2024.2.4,Win32,144.092219,654509bce930185adab23a1a,687ed1b7e638a4cbf2f02089,6880ce819b6e21ce2f292a9e,,,,,,,,,,,,,73,0,,./stim/wavs/castilian_mismatch_declarative-broad-focus_Mi-tia-odia-la-lluvia.wav,,,,,,,,,,,,,,,,,,,,,,271.75,274.944,0,1,2.688,,0,27,27,72,1,0,castilian,,,,,,,,,,,,,,,,,,,,,,,,,,,,,,,,,,,,,,,,,,,,,,,,,,,,,,,,
,,,,,,,,,654509bce930185adab23a1a,"mexican, puerto rican",13 or older,"no, only English or Spanish",yes,2025-07-23_07h59.46.476,empathy_intonation_perc,2024.2.4,Win32,144.092219,654509bce930185adab23a1a,687ed1b7e638a4cbf2f02089,6880ce819b6e21ce2f292a9e,,,,,,,,,,,,,42,1,,./stim/wavs/puertorican_mismatch_interrogative-total-yn_La-maestra-vive-en-Paris.wav,,,,,,,,,,,,,,,,,,,,,,274.945,278.612,1,1,3.163,,0,28,28,41,1,1,puertorican,,,,,,,,,,,,,,,,,,,,,,,,,,,,,,,,,,,,,,,,,,,,,,,,,,,,,,,,
,,,,,,,,,654509bce930185adab23a1a,"mexican, puerto rican",13 or older,"no, only English or Spanish",yes,2025-07-23_07h59.46.476,empathy_intonation_perc,2024.2.4,Win32,144.092219,654509bce930185adab23a1a,687ed1b7e638a4cbf2f02089,6880ce819b6e21ce2f292a9e,,,,,,,,,,,,,54,0,,./stim/wavs/cuban_match_declarative-broad-focus_Maria-bebe-el-vino.wav,,,,,,,,,,,,,,,,,,,,,,278.612,284.604,1,0,5.479,,0,29,29,53,1,0,cuban,,,,,,,,,,,,,,,,,,,,,,,,,,,,,,,,,,,,,,,,,,,,,,,,,,,,,,,,
,,,,,,,,,654509bce930185adab23a1a,"mexican, puerto rican",13 or older,"no, only English or Spanish",yes,2025-07-23_07h59.46.476,empathy_intonation_perc,2024.2.4,Win32,144.092219,654509bce930185adab23a1a,687ed1b7e638a4cbf2f02089,6880ce819b6e21ce2f292a9e,,,,,,,,,,,,,34,1,,./stim/wavs/cuban_mismatch_interrogative-total-yn_Mi-tia-odia-la-lluvia.wav,,,,,,,,,,,,,,,,,,,,,,284.605,287.897,1,1,2.785,,0,30,30,33,1,1,cuban,,,,,,,,,,,,,,,,,,,,,,,,,,,,,,,,,,,,,,,,,,,,,,,,,,,,,,,,
,,,,,,,,,654509bce930185adab23a1a,"mexican, puerto rican",13 or older,"no, only English or Spanish",yes,2025-07-23_07h59.46.476,empathy_intonation_perc,2024.2.4,Win32,144.092219,654509bce930185adab23a1a,687ed1b7e638a4cbf2f02089,6880ce819b6e21ce2f292a9e,,,,,,,,,,,,,79,0,,./stim/wavs/mexican_mismatch_declarative-broad-focus_El-bebe-comia-muy-bien.wav,,,,,,,,,,,,,,,,,,,,,,287.897,291.445,0,1,3.035,,0,31,31,78,1,0,mexican,,,,,,,,,,,,,,,,,,,,,,,,,,,,,,,,,,,,,,,,,,,,,,,,,,,,,,,,
,,,,,,,,,654509bce930185adab23a1a,"mexican, puerto rican",13 or older,"no, only English or Spanish",yes,2025-07-23_07h59.46.476,empathy_intonation_perc,2024.2.4,Win32,144.092219,654509bce930185adab23a1a,687ed1b7e638a4cbf2f02089,6880ce819b6e21ce2f292a9e,,,,,,,,,,,,,26,1,,./stim/wavs/castilian_mismatch_interrogative-total-yn_La-nina-lava-el-plato.wav,,,,,,,,,,,,,,,,,,,,,,291.446,295.306,1,1,3.35,,0,32,32,25,1,0,castilian,,,,,,,,,,,,,,,,,,,,,,,,,,,,,,,,,,,,,,,,,,,,,,,,,,,,,,,,
,,,,,,,,,654509bce930185adab23a1a,"mexican, puerto rican",13 or older,"no, only English or Spanish",yes,2025-07-23_07h59.46.476,empathy_intonation_perc,2024.2.4,Win32,144.092219,654509bce930185adab23a1a,687ed1b7e638a4cbf2f02089,6880ce819b6e21ce2f292a9e,,,,,,,,,,,,,86,0,,./stim/wavs/puertorican_mismatch_declarative-broad-focus_El-nino-oye-el-rio.wav,,,,,,,,,,,,,,,,,,,,,,295.307,298.55,0,1,2.729,,0,33,33,85,1,0,puertorican,,,,,,,,,,,,,,,,,,,,,,,,,,,,,,,,,,,,,,,,,,,,,,,,,,,,,,,,
,,,,,,,,,654509bce930185adab23a1a,"mexican, puerto rican",13 or older,"no, only English or Spanish",yes,2025-07-23_07h59.46.476,empathy_intonation_perc,2024.2.4,Win32,144.092219,654509bce930185adab23a1a,687ed1b7e638a4cbf2f02089,6880ce819b6e21ce2f292a9e,,,,,,,,,,,,,56,0,,./stim/wavs/cuban_match_declarative-broad-focus_Marta-abre-el-regalo.wav,,,,,,,,,,,,,,,,,,,,,,298.55,301.751,0,1,2.695,,0,34,34,55,1,0,cuban,,,,,,,,,,,,,,,,,,,,,,,,,,,,,,,,,,,,,,,,,,,,,,,,,,,,,,,,
,,,,,,,,,654509bce930185adab23a1a,"mexican, puerto rican",13 or older,"no, only English or Spanish",yes,2025-07-23_07h59.46.476,empathy_intonation_perc,2024.2.4,Win32,144.092219,654509bce930185adab23a1a,687ed1b7e638a4cbf2f02089,6880ce819b6e21ce2f292a9e,,,,,,,,,,,,,70,0,,./stim/wavs/castilian_mismatch_declarative-broad-focus_La-maestra-vive-en-Paris.wav,,,,,,,,,,,,,,,,,,,,,,301.751,304.695,1,0,2.441,,0,35,35,69,1,0,castilian,,,,,,,,,,,,,,,,,,,,,,,,,,,,,,,,,,,,,,,,,,,,,,,,,,,,,,,,
,,,,,,,,,654509bce930185adab23a1a,"mexican, puerto rican",13 or older,"no, only English or Spanish",yes,2025-07-23_07h59.46.476,empathy_intonation_perc,2024.2.4,Win32,144.092219,654509bce930185adab23a1a,687ed1b7e638a4cbf2f02089,6880ce819b6e21ce2f292a9e,,,,,,,,,,,,,63,0,,./stim/wavs/puertorican_match_declarative-broad-focus_Ana-lleva-el-abrigo.wav,,,,,,,,,,,,,,,,,,,,,,304.696,307.654,0,1,2.445,,0,36,36,62,1,0,puertorican,,,,,,,,,,,,,,,,,,,,,,,,,,,,,,,,,,,,,,,,,,,,,,,,,,,,,,,,
,,,,,,,,,654509bce930185adab23a1a,"mexican, puerto rican",13 or older,"no, only English or Spanish",yes,2025-07-23_07h59.46.476,empathy_intonation_perc,2024.2.4,Win32,144.092219,654509bce930185adab23a1a,687ed1b7e638a4cbf2f02089,6880ce819b6e21ce2f292a9e,,,,,,,,,,,,,59,0,,./stim/wavs/mexican_match_declarative-broad-focus_David-leia-el-libro.wav,,,,,,,,,,,,,,,,,,,,,,307.654,310.404,1,0,2.244,,0,37,37,58,1,0,mexican,,,,,,,,,,,,,,,,,,,,,,,,,,,,,,,,,,,,,,,,,,,,,,,,,,,,,,,,
,,,,,,,,,654509bce930185adab23a1a,"mexican, puerto rican",13 or older,"no, only English or Spanish",yes,2025-07-23_07h59.46.476,empathy_intonation_perc,2024.2.4,Win32,144.092219,654509bce930185adab23a1a,687ed1b7e638a4cbf2f02089,6880ce819b6e21ce2f292a9e,,,,,,,,,,,,,58,0,,./stim/wavs/mexican_match_declarative-broad-focus_Daniel-iba-a-Bolivia.wav,,,,,,,,,,,,,,,,,,,,,,310.404,312.474,1,0,1.564,,0,38,38,57,1,0,mexican,,,,,,,,,,,,,,,,,,,,,,,,,,,,,,,,,,,,,,,,,,,,,,,,,,,,,,,,
,,,,,,,,,654509bce930185adab23a1a,"mexican, puerto rican",13 or older,"no, only English or Spanish",yes,2025-07-23_07h59.46.476,empathy_intonation_perc,2024.2.4,Win32,144.092219,654509bce930185adab23a1a,687ed1b7e638a4cbf2f02089,6880ce819b6e21ce2f292a9e,,,,,,,,,,,,,77,0,,./stim/wavs/cuban_mismatch_declarative-broad-focus_Mi-novio-viene-del-lago.wav,,,,,,,,,,,,,,,,,,,,,,312.474,316.939,0,1,3.954,,0,39,39,76,1,0,cuban,,,,,,,,,,,,,,,,,,,,,,,,,,,,,,,,,,,,,,,,,,,,,,,,,,,,,,,,
,,,,,,,,,654509bce930185adab23a1a,"mexican, puerto rican",13 or older,"no, only English or Spanish",yes,2025-07-23_07h59.46.476,empathy_intonation_perc,2024.2.4,Win32,144.092219,654509bce930185adab23a1a,687ed1b7e638a4cbf2f02089,6880ce819b6e21ce2f292a9e,,,,,,,,,,,,,39,1,,./stim/wavs/mexican_mismatch_interrogative-total-yn_Mi-tia-odia-la-lluvia.wav,,,,,,,,,,,,,,,,,,,,,,316.939,320.099,1,1,2.653,,0,40,40,38,1,0,mexican,,,,,,,,,,,,,,,,,,,,,,,,,,,,,,,,,,,,,,,,,,,,,,,,,,,,,,,,
,,,,,,,,,654509bce930185adab23a1a,"mexican, puerto rican",13 or older,"no, only English or Spanish",yes,2025-07-23_07h59.46.476,empathy_intonation_perc,2024.2.4,Win32,144.092219,654509bce930185adab23a1a,687ed1b7e638a4cbf2f02089,6880ce819b6e21ce2f292a9e,,,,,,,,,,,,,53,0,,./stim/wavs/cuban_match_declarative-broad-focus_Manuela-vende-el-carro.wav,,,,,,,,,,,,,,,,,,,,,,320.099,323.814,1,0,3.208,,0,41,41,52,1,0,cuban,,,,,,,,,,,,,,,,,,,,,,,,,,,,,,,,,,,,,,,,,,,,,,,,,,,,,,,,
,,,,,,,,,654509bce930185adab23a1a,"mexican, puerto rican",13 or older,"no, only English or Spanish",yes,2025-07-23_07h59.46.476,empathy_intonation_perc,2024.2.4,Win32,144.092219,654509bce930185adab23a1a,687ed1b7e638a4cbf2f02089,6880ce819b6e21ce2f292a9e,,,,,,,,,,,,,5,1,,./stim/wavs/castilian_match_interrogative-total-yn_Mariano-habla-del-tiempo.wav,,,,,,,,,,,,,,,,,,,,,,323.814,326.127,1,1,1.807,,0,42,42,4,1,0,castilian,,,,,,,,,,,,,,,,,,,,,,,,,,,,,,,,,,,,,,,,,,,,,,,,,,,,,,,,
,,,,,,,,,654509bce930185adab23a1a,"mexican, puerto rican",13 or older,"no, only English or Spanish",yes,2025-07-23_07h59.46.476,empathy_intonation_perc,2024.2.4,Win32,144.092219,654509bce930185adab23a1a,687ed1b7e638a4cbf2f02089,6880ce819b6e21ce2f292a9e,,,,,,,,,,,,,21,1,,./stim/wavs/puertorican_match_interrogative-total-yn_David-leia-el-libro.wav,,,,,,,,,,,,,,,,,,,,,,326.127,328.196,1,1,1.563,,0,43,43,20,1,1,puertorican,,,,,,,,,,,,,,,,,,,,,,,,,,,,,,,,,,,,,,,,,,,,,,,,,,,,,,,,
,,,,,,,,,654509bce930185adab23a1a,"mexican, puerto rican",13 or older,"no, only English or Spanish",yes,2025-07-23_07h59.46.476,empathy_intonation_perc,2024.2.4,Win32,144.092219,654509bce930185adab23a1a,687ed1b7e638a4cbf2f02089,6880ce819b6e21ce2f292a9e,,,,,,,,,,,,,44,1,,./stim/wavs/puertorican_mismatch_interrogative-total-yn_Mi-madre-come-la-fruta.wav,,,,,,,,,,,,,,,,,,,,,,328.197,330.488,0,0,1.78,,0,44,44,43,1,1,puertorican,,,,,,,,,,,,,,,,,,,,,,,,,,,,,,,,,,,,,,,,,,,,,,,,,,,,,,,,
,,,,,,,,,654509bce930185adab23a1a,"mexican, puerto rican",13 or older,"no, only English or Spanish",yes,2025-07-23_07h59.46.476,empathy_intonation_perc,2024.2.4,Win32,144.092219,654509bce930185adab23a1a,687ed1b7e638a4cbf2f02089,6880ce819b6e21ce2f292a9e,,,,,,,,,,,,,36,1,,./stim/wavs/mexican_mismatch_interrogative-total-yn_El-nino-oye-el-rio.wav,,,,,,,,,,,,,,,,,,,,,,330.489,332.752,0,0,1.751,,0,45,45,35,1,0,mexican,,,,,,,,,,,,,,,,,,,,,,,,,,,,,,,,,,,,,,,,,,,,,,,,,,,,,,,,
,,,,,,,,,654509bce930185adab23a1a,"mexican, puerto rican",13 or older,"no, only English or Spanish",yes,2025-07-23_07h59.46.476,empathy_intonation_perc,2024.2.4,Win32,144.092219,654509bce930185adab23a1a,687ed1b7e638a4cbf2f02089,6880ce819b6e21ce2f292a9e,,,,,,,,,,,,,57,0,,./stim/wavs/mexican_match_declarative-broad-focus_Ana-lleva-el-abrigo.wav,,,,,,,,,,,,,,,,,,,,,,332.752,335.009,0,1,1.751,,0,46,46,56,1,0,mexican,,,,,,,,,,,,,,,,,,,,,,,,,,,,,,,,,,,,,,,,,,,,,,,,,,,,,,,,
,,,,,,,,,654509bce930185adab23a1a,"mexican, puerto rican",13 or older,"no, only English or Spanish",yes,2025-07-23_07h59.46.476,empathy_intonation_perc,2024.2.4,Win32,144.092219,654509bce930185adab23a1a,687ed1b7e638a4cbf2f02089,6880ce819b6e21ce2f292a9e,,,,,,,,,,,,,83,0,,./stim/wavs/mexican_mismatch_declarative-broad-focus_Mi-tia-odia-la-lluvia.wav,,,,,,,,,,,,,,,,,,,,,,335.01,337.356,1,0,1.833,,0,47,47,82,1,0,mexican,,,,,,,,,,,,,,,,,,,,,,,,,,,,,,,,,,,,,,,,,,,,,,,,,,,,,,,,
,,,,,,,,,654509bce930185adab23a1a,"mexican, puerto rican",13 or older,"no, only English or Spanish",yes,2025-07-23_07h59.46.476,empathy_intonation_perc,2024.2.4,Win32,144.092219,654509bce930185adab23a1a,687ed1b7e638a4cbf2f02089,6880ce819b6e21ce2f292a9e,,,,,,,,,,,,,81,0,,./stim/wavs/mexican_mismatch_declarative-broad-focus_La-maestra-vive-en-Paris.wav,,,,,,,,,,,,,,,,,,,,,,337.357,339.877,1,0,2.016,,0,48,48,80,1,0,mexican,,,,,,,,,,,,,,,,,,,,,,,,,,,,,,,,,,,,,,,,,,,,,,,,,,,,,,,,
,,,,,,,,,654509bce930185adab23a1a,"mexican, puerto rican",13 or older,"no, only English or Spanish",yes,2025-07-23_07h59.46.476,empathy_intonation_perc,2024.2.4,Win32,144.092219,654509bce930185adab23a1a,687ed1b7e638a4cbf2f02089,6880ce819b6e21ce2f292a9e,,,,,,,,,,,,,15,1,,./stim/wavs/mexican_match_interrogative-total-yn_David-leia-el-libro.wav,,,,,,,,,,,,,,,,,,,,,,339.877,342.398,1,1,2.007,,0,49,49,14,1,0,mexican,,,,,,,,,,,,,,,,,,,,,,,,,,,,,,,,,,,,,,,,,,,,,,,,,,,,,,,,
,,,,,,,,,654509bce930185adab23a1a,"mexican, puerto rican",13 or older,"no, only English or Spanish",yes,2025-07-23_07h59.46.476,empathy_intonation_perc,2024.2.4,Win32,144.092219,654509bce930185adab23a1a,687ed1b7e638a4cbf2f02089,6880ce819b6e21ce2f292a9e,,,,,,,,,,,,,62,0,,./stim/wavs/mexican_match_declarative-broad-focus_Marta-abre-el-regalo.wav,,,,,,,,,,,,,,,,,,,,,,342.399,345.53,0,1,2.619,,0,50,50,61,1,0,mexican,,,,,,,,,,,,,,,,,,,,,,,,,,,,,,,,,,,,,,,,,,,,,,,,,,,,,,,,
,,,,,,,,,654509bce930185adab23a1a,"mexican, puerto rican",13 or older,"no, only English or Spanish",yes,2025-07-23_07h59.46.476,empathy_intonation_perc,2024.2.4,Win32,144.092219,654509bce930185adab23a1a,687ed1b7e638a4cbf2f02089,6880ce819b6e21ce2f292a9e,,,,,,,,,,,,,35,1,,./stim/wavs/mexican_mismatch_interrogative-total-yn_El-hombre-mira-la-luna.wav,,,,,,,,,,,,,,,,,,,,,,345.53,347.926,1,1,1.882,,0,51,51,34,1,0,mexican,,,,,,,,,,,,,,,,,,,,,,,,,,,,,,,,,,,,,,,,,,,,,,,,,,,,,,,,
,,,,,,,,,654509bce930185adab23a1a,"mexican, puerto rican",13 or older,"no, only English or Spanish",yes,2025-07-23_07h59.46.476,empathy_intonation_perc,2024.2.4,Win32,144.092219,654509bce930185adab23a1a,687ed1b7e638a4cbf2f02089,6880ce819b6e21ce2f292a9e,,,,,,,,,,,,,85,0,,./stim/wavs/puertorican_mismatch_declarative-broad-focus_El-hombre-mira-la-luna.wav,,,,,,,,,,,,,,,,,,,,,,347.927,349.787,1,0,1.348,,0,52,52,84,1,0,puertorican,,,,,,,,,,,,,,,,,,,,,,,,,,,,,,,,,,,,,,,,,,,,,,,,,,,,,,,,
,,,,,,,,,654509bce930185adab23a1a,"mexican, puerto rican",13 or older,"no, only English or Spanish",yes,2025-07-23_07h59.46.476,empathy_intonation_perc,2024.2.4,Win32,144.092219,654509bce930185adab23a1a,687ed1b7e638a4cbf2f02089,6880ce819b6e21ce2f292a9e,,,,,,,,,,,,,7,1,,./stim/wavs/cuban_match_interrogative-total-yn_Ana-lleva-el-abrigo.wav,,,,,,,,,,,,,,,,,,,,,,349.787,352.378,1,1,2.084,,0,53,53,6,1,1,cuban,,,,,,,,,,,,,,,,,,,,,,,,,,,,,,,,,,,,,,,,,,,,,,,,,,,,,,,,
,,,,,,,,,654509bce930185adab23a1a,"mexican, puerto rican",13 or older,"no, only English or Spanish",yes,2025-07-23_07h59.46.476,empathy_intonation_perc,2024.2.4,Win32,144.092219,654509bce930185adab23a1a,687ed1b7e638a4cbf2f02089,6880ce819b6e21ce2f292a9e,,,,,,,,,,,,,78,0,,./stim/wavs/cuban_mismatch_declarative-broad-focus_Mi-tia-odia-la-lluvia.wav,,,,,,,,,,,,,,,,,,,,,,352.378,355.829,1,0,2.94,,0,54,54,77,1,0,cuban,,,,,,,,,,,,,,,,,,,,,,,,,,,,,,,,,,,,,,,,,,,,,,,,,,,,,,,,
,,,,,,,,,654509bce930185adab23a1a,"mexican, puerto rican",13 or older,"no, only English or Spanish",yes,2025-07-23_07h59.46.476,empathy_intonation_perc,2024.2.4,Win32,144.092219,654509bce930185adab23a1a,687ed1b7e638a4cbf2f02089,6880ce819b6e21ce2f292a9e,,,,,,,,,,,,,16,1,,./stim/wavs/mexican_match_interrogative-total-yn_Emilio-ama-la-marcha.wav,,,,,,,,,,,,,,,,,,,,,,355.829,359.447,0,0,3.111,,0,55,55,15,1,0,mexican,,,,,,,,,,,,,,,,,,,,,,,,,,,,,,,,,,,,,,,,,,,,,,,,,,,,,,,,
,,,,,,,,,654509bce930185adab23a1a,"mexican, puerto rican",13 or older,"no, only English or Spanish",yes,2025-07-23_07h59.46.476,empathy_intonation_perc,2024.2.4,Win32,144.092219,654509bce930185adab23a1a,687ed1b7e638a4cbf2f02089,6880ce819b6e21ce2f292a9e,,,,,,,,,,,,,12,1,,./stim/wavs/cuban_match_interrogative-total-yn_Marta-abre-el-regalo.wav,,,,,,,,,,,,,,,,,,,,,,359.448,362.024,0,0,2.071,,0,56,56,11,1,1,cuban,,,,,,,,,,,,,,,,,,,,,,,,,,,,,,,,,,,,,,,,,,,,,,,,,,,,,,,,
,,,,,,,,,654509bce930185adab23a1a,"mexican, puerto rican",13 or older,"no, only English or Spanish",yes,2025-07-23_07h59.46.476,empathy_intonation_perc,2024.2.4,Win32,144.092219,654509bce930185adab23a1a,687ed1b7e638a4cbf2f02089,6880ce819b6e21ce2f292a9e,,,,,,,,,,,,,66,0,,./stim/wavs/puertorican_match_declarative-broad-focus_Emilio-ama-la-marcha.wav,,,,,,,,,,,,,,,,,,,,,,362.025,366.774,0,1,4.239,,0,57,57,65,1,0,puertorican,,,,,,,,,,,,,,,,,,,,,,,,,,,,,,,,,,,,,,,,,,,,,,,,,,,,,,,,
,,,,,,,,,654509bce930185adab23a1a,"mexican, puerto rican",13 or older,"no, only English or Spanish",yes,2025-07-23_07h59.46.476,empathy_intonation_perc,2024.2.4,Win32,144.092219,654509bce930185adab23a1a,687ed1b7e638a4cbf2f02089,6880ce819b6e21ce2f292a9e,,,,,,,,,,,,,69,0,,./stim/wavs/castilian_mismatch_declarative-broad-focus_El-nino-oye-el-rio.wav,,,,,,,,,,,,,,,,,,,,,,366.775,369.163,1,0,1.875,,0,58,58,68,1,0,castilian,,,,,,,,,,,,,,,,,,,,,,,,,,,,,,,,,,,,,,,,,,,,,,,,,,,,,,,,
,,,,,,,,,654509bce930185adab23a1a,"mexican, puerto rican",13 or older,"no, only English or Spanish",yes,2025-07-23_07h59.46.476,empathy_intonation_perc,2024.2.4,Win32,144.092219,654509bce930185adab23a1a,687ed1b7e638a4cbf2f02089,6880ce819b6e21ce2f292a9e,,,,,,,,,,,,,52,0,,./stim/wavs/cuban_match_declarative-broad-focus_Daniel-iba-a-Bolivia.wav,,,,,,,,,,,,,,,,,,,,,,369.163,372.934,1,0,3.262,,0,59,59,51,1,0,cuban,,,,,,,,,,,,,,,,,,,,,,,,,,,,,,,,,,,,,,,,,,,,,,,,,,,,,,,,
,,,,,,,,,654509bce930185adab23a1a,"mexican, puerto rican",13 or older,"no, only English or Spanish",yes,2025-07-23_07h59.46.476,empathy_intonation_perc,2024.2.4,Win32,144.092219,654509bce930185adab23a1a,687ed1b7e638a4cbf2f02089,6880ce819b6e21ce2f292a9e,,,,,,,,,,,,,87,0,,./stim/wavs/puertorican_mismatch_declarative-broad-focus_La-maestra-vive-en-Paris.wav,,,,,,,,,,,,,,,,,,,,,,372.934,377.614,0,1,4.175,,0,60,60,86,1,0,puertorican,,,,,,,,,,,,,,,,,,,,,,,,,,,,,,,,,,,,,,,,,,,,,,,,,,,,,,,,
,,,,,,,,,654509bce930185adab23a1a,"mexican, puerto rican",13 or older,"no, only English or Spanish",yes,2025-07-23_07h59.46.476,empathy_intonation_perc,2024.2.4,Win32,144.092219,654509bce930185adab23a1a,687ed1b7e638a4cbf2f02089,6880ce819b6e21ce2f292a9e,,,,,,,,,,,,,13,1,,./stim/wavs/mexican_match_interrogative-total-yn_Ana-lleva-el-abrigo.wav,,,,,,,,,,,,,,,,,,,,,,377.615,380.399,1,1,2.279,,0,61,61,12,1,0,mexican,,,,,,,,,,,,,,,,,,,,,,,,,,,,,,,,,,,,,,,,,,,,,,,,,,,,,,,,
,,,,,,,,,654509bce930185adab23a1a,"mexican, puerto rican",13 or older,"no, only English or Spanish",yes,2025-07-23_07h59.46.476,empathy_intonation_perc,2024.2.4,Win32,144.092219,654509bce930185adab23a1a,687ed1b7e638a4cbf2f02089,6880ce819b6e21ce2f292a9e,,,,,,,,,,,,,22,1,,./stim/wavs/puertorican_match_interrogative-total-yn_Emilio-ama-la-marcha.wav,,,,,,,,,,,,,,,,,,,,,,380.4,385.086,0,0,4.181,,0,62,62,21,1,1,puertorican,,,,,,,,,,,,,,,,,,,,,,,,,,,,,,,,,,,,,,,,,,,,,,,,,,,,,,,,
,,,,,,,,,654509bce930185adab23a1a,"mexican, puerto rican",13 or older,"no, only English or Spanish",yes,2025-07-23_07h59.46.476,empathy_intonation_perc,2024.2.4,Win32,144.092219,654509bce930185adab23a1a,687ed1b7e638a4cbf2f02089,6880ce819b6e21ce2f292a9e,,,,,,,,,,,,,8,1,,./stim/wavs/cuban_match_interrogative-total-yn_Daniel-iba-a-Bolivia.wav,,,,,,,,,,,,,,,,,,,,,,385.087,388.92,0,0,3.326,,0,63,63,7,1,1,cuban,,,,,,,,,,,,,,,,,,,,,,,,,,,,,,,,,,,,,,,,,,,,,,,,,,,,,,,,
,,,,,,,,,654509bce930185adab23a1a,"mexican, puerto rican",13 or older,"no, only English or Spanish",yes,2025-07-23_07h59.46.476,empathy_intonation_perc,2024.2.4,Win32,144.092219,654509bce930185adab23a1a,687ed1b7e638a4cbf2f02089,6880ce819b6e21ce2f292a9e,,,,,,,,,,,,,74,0,,./stim/wavs/cuban_mismatch_declarative-broad-focus_El-bebe-comia-muy-bien.wav,,,,,,,,,,,,,,,,,,,,,,388.921,394.775,1,0,5.341,,0,64,64,73,1,0,cuban,,,,,,,,,,,,,,,,,,,,,,,,,,,,,,,,,,,,,,,,,,,,,,,,,,,,,,,,
,,,,,,,,,654509bce930185adab23a1a,"mexican, puerto rican",13 or older,"no, only English or Spanish",yes,2025-07-23_07h59.46.476,empathy_intonation_perc,2024.2.4,Win32,144.092219,654509bce930185adab23a1a,687ed1b7e638a4cbf2f02089,6880ce819b6e21ce2f292a9e,,,,,,,,,,,,,30,1,,./stim/wavs/cuban_mismatch_interrogative-total-yn_El-hombre-mira-la-luna.wav,,,,,,,,,,,,,,,,,,,,,,394.775,397.122,1,1,1.835,,0,65,65,29,1,1,cuban,,,,,,,,,,,,,,,,,,,,,,,,,,,,,,,,,,,,,,,,,,,,,,,,,,,,,,,,
,,,,,,,,,654509bce930185adab23a1a,"mexican, puerto rican",13 or older,"no, only English or Spanish",yes,2025-07-23_07h59.46.476,empathy_intonation_perc,2024.2.4,Win32,144.092219,654509bce930185adab23a1a,687ed1b7e638a4cbf2f02089,6880ce819b6e21ce2f292a9e,,,,,,,,,,,,,49,0,,./stim/wavs/castilian_match_declarative-broad-focus_Mariano-habla-del-tiempo.wav,,,,,,,,,,,,,,,,,,,,,,397.123,399.705,1,0,2.07,,0,66,66,48,1,0,castilian,,,,,,,,,,,,,,,,,,,,,,,,,,,,,,,,,,,,,,,,,,,,,,,,,,,,,,,,
,,,,,,,,,654509bce930185adab23a1a,"mexican, puerto rican",13 or older,"no, only English or Spanish",yes,2025-07-23_07h59.46.476,empathy_intonation_perc,2024.2.4,Win32,144.092219,654509bce930185adab23a1a,687ed1b7e638a4cbf2f02089,6880ce819b6e21ce2f292a9e,,,,,,,,,,,,,4,1,,./stim/wavs/castilian_match_interrogative-total-yn_Maria-bebe-el-vino.wav,,,,,,,,,,,,,,,,,,,,,,399.705,402.677,1,1,2.465,,0,67,67,3,1,0,castilian,,,,,,,,,,,,,,,,,,,,,,,,,,,,,,,,,,,,,,,,,,,,,,,,,,,,,,,,
,,,,,,,,,654509bce930185adab23a1a,"mexican, puerto rican",13 or older,"no, only English or Spanish",yes,2025-07-23_07h59.46.476,empathy_intonation_perc,2024.2.4,Win32,144.092219,654509bce930185adab23a1a,687ed1b7e638a4cbf2f02089,6880ce819b6e21ce2f292a9e,,,,,,,,,,,,,84,0,,./stim/wavs/puertorican_mismatch_declarative-broad-focus_El-bebe-comia-muy-bien.wav,,,,,,,,,,,,,,,,,,,,,,402.677,407.434,1,0,4.252,,0,68,68,83,1,0,puertorican,,,,,,,,,,,,,,,,,,,,,,,,,,,,,,,,,,,,,,,,,,,,,,,,,,,,,,,,
,,,,,,,,,654509bce930185adab23a1a,"mexican, puerto rican",13 or older,"no, only English or Spanish",yes,2025-07-23_07h59.46.476,empathy_intonation_perc,2024.2.4,Win32,144.092219,654509bce930185adab23a1a,687ed1b7e638a4cbf2f02089,6880ce819b6e21ce2f292a9e,,,,,,,,,,,,,80,0,,./stim/wavs/mexican_mismatch_declarative-broad-focus_El-hombre-mira-la-luna.wav,,,,,,,,,,,,,,,,,,,,,,407.435,409.983,1,0,2.042,,0,69,69,79,1,0,mexican,,,,,,,,,,,,,,,,,,,,,,,,,,,,,,,,,,,,,,,,,,,,,,,,,,,,,,,,
,,,,,,,,,654509bce930185adab23a1a,"mexican, puerto rican",13 or older,"no, only English or Spanish",yes,2025-07-23_07h59.46.476,empathy_intonation_perc,2024.2.4,Win32,144.092219,654509bce930185adab23a1a,687ed1b7e638a4cbf2f02089,6880ce819b6e21ce2f292a9e,,,,,,,,,,,,,10,1,,./stim/wavs/cuban_match_interrogative-total-yn_Maria-bebe-el-vino.wav,,,,,,,,,,,,,,,,,,,,,,409.984,414.233,1,1,3.74,,0,70,70,9,1,1,cuban,,,,,,,,,,,,,,,,,,,,,,,,,,,,,,,,,,,,,,,,,,,,,,,,,,,,,,,,
,,,,,,,,,654509bce930185adab23a1a,"mexican, puerto rican",13 or older,"no, only English or Spanish",yes,2025-07-23_07h59.46.476,empathy_intonation_perc,2024.2.4,Win32,144.092219,654509bce930185adab23a1a,687ed1b7e638a4cbf2f02089,6880ce819b6e21ce2f292a9e,,,,,,,,,,,,,32,1,,./stim/wavs/cuban_mismatch_interrogative-total-yn_Mi-madre-come-la-fruta.wav,,,,,,,,,,,,,,,,,,,,,,414.234,416.574,1,1,1.829,,0,71,71,31,1,1,cuban,,,,,,,,,,,,,,,,,,,,,,,,,,,,,,,,,,,,,,,,,,,,,,,,,,,,,,,,
,,,,,,,,,654509bce930185adab23a1a,"mexican, puerto rican",13 or older,"no, only English or Spanish",yes,2025-07-23_07h59.46.476,empathy_intonation_perc,2024.2.4,Win32,144.092219,654509bce930185adab23a1a,687ed1b7e638a4cbf2f02089,6880ce819b6e21ce2f292a9e,,,,,,,,,,,,,48,0,,./stim/wavs/castilian_match_declarative-broad-focus_Maria-bebe-el-vino.wav,,,,,,,,,,,,,,,,,,,,,,416.574,421.053,1,0,3.973,,0,72,72,47,1,0,castilian,,,,,,,,,,,,,,,,,,,,,,,,,,,,,,,,,,,,,,,,,,,,,,,,,,,,,,,,
,,,,,,,,,654509bce930185adab23a1a,"mexican, puerto rican",13 or older,"no, only English or Spanish",yes,2025-07-23_07h59.46.476,empathy_intonation_perc,2024.2.4,Win32,144.092219,654509bce930185adab23a1a,687ed1b7e638a4cbf2f02089,6880ce819b6e21ce2f292a9e,,,,,,,,,,,,,29,1,,./stim/wavs/castilian_mismatch_interrogative-total-yn_Mi-tia-odia-la-lluvia.wav,,,,,,,,,,,,,,,,,,,,,,421.053,424.574,1,1,3.015,,0,73,73,28,1,0,castilian,,,,,,,,,,,,,,,,,,,,,,,,,,,,,,,,,,,,,,,,,,,,,,,,,,,,,,,,
,,,,,,,,,654509bce930185adab23a1a,"mexican, puerto rican",13 or older,"no, only English or Spanish",yes,2025-07-23_07h59.46.476,empathy_intonation_perc,2024.2.4,Win32,144.092219,654509bce930185adab23a1a,687ed1b7e638a4cbf2f02089,6880ce819b6e21ce2f292a9e,,,,,,,,,,,,,47,0,,./stim/wavs/castilian_match_declarative-broad-focus_Manuela-vende-el-carro.wav,,,,,,,,,,,,,,,,,,,,,,424.574,426.886,0,1,1.808,,0,74,74,46,1,0,castilian,,,,,,,,,,,,,,,,,,,,,,,,,,,,,,,,,,,,,,,,,,,,,,,,,,,,,,,,
,,,,,,,,,654509bce930185adab23a1a,"mexican, puerto rican",13 or older,"no, only English or Spanish",yes,2025-07-23_07h59.46.476,empathy_intonation_perc,2024.2.4,Win32,144.092219,654509bce930185adab23a1a,687ed1b7e638a4cbf2f02089,6880ce819b6e21ce2f292a9e,,,,,,,,,,,,,28,1,,./stim/wavs/castilian_mismatch_interrogative-total-yn_Mi-novio-viene-del-lago.wav,,,,,,,,,,,,,,,,,,,,,,426.887,429.123,1,1,1.732,,0,75,75,27,1,0,castilian,,,,,,,,,,,,,,,,,,,,,,,,,,,,,,,,,,,,,,,,,,,,,,,,,,,,,,,,
,,,,,,,,,654509bce930185adab23a1a,"mexican, puerto rican",13 or older,"no, only English or Spanish",yes,2025-07-23_07h59.46.476,empathy_intonation_perc,2024.2.4,Win32,144.092219,654509bce930185adab23a1a,687ed1b7e638a4cbf2f02089,6880ce819b6e21ce2f292a9e,,,,,,,,,,,,,24,1,,./stim/wavs/puertorican_match_interrogative-total-yn_Maria-bebe-el-vino.wav,,,,,,,,,,,,,,,,,,,,,,429.123,431.324,1,1,1.695,,0,76,76,23,1,1,puertorican,,,,,,,,,,,,,,,,,,,,,,,,,,,,,,,,,,,,,,,,,,,,,,,,,,,,,,,,
,,,,,,,,,654509bce930185adab23a1a,"mexican, puerto rican",13 or older,"no, only English or Spanish",yes,2025-07-23_07h59.46.476,empathy_intonation_perc,2024.2.4,Win32,144.092219,654509bce930185adab23a1a,687ed1b7e638a4cbf2f02089,6880ce819b6e21ce2f292a9e,,,,,,,,,,,,,18,1,,./stim/wavs/mexican_match_interrogative-total-yn_Marta-abre-el-regalo.wav,,,,,,,,,,,,,,,,,,,,,,431.324,433.769,1,1,1.935,,0,77,77,17,1,0,mexican,,,,,,,,,,,,,,,,,,,,,,,,,,,,,,,,,,,,,,,,,,,,,,,,,,,,,,,,
,,,,,,,,,654509bce930185adab23a1a,"mexican, puerto rican",13 or older,"no, only English or Spanish",yes,2025-07-23_07h59.46.476,empathy_intonation_perc,2024.2.4,Win32,144.092219,654509bce930185adab23a1a,687ed1b7e638a4cbf2f02089,6880ce819b6e21ce2f292a9e,,,,,,,,,,,,,9,1,,./stim/wavs/cuban_match_interrogative-total-yn_Manuela-vende-el-carro.wav,,,,,,,,,,,,,,,,,,,,,,433.77,436.977,1,1,2.695,,0,78,78,8,1,1,cuban,,,,,,,,,,,,,,,,,,,,,,,,,,,,,,,,,,,,,,,,,,,,,,,,,,,,,,,,
,,,,,,,,,654509bce930185adab23a1a,"mexican, puerto rican",13 or older,"no, only English or Spanish",yes,2025-07-23_07h59.46.476,empathy_intonation_perc,2024.2.4,Win32,144.092219,654509bce930185adab23a1a,687ed1b7e638a4cbf2f02089,6880ce819b6e21ce2f292a9e,,,,,,,,,,,,,27,1,,./stim/wavs/castilian_mismatch_interrogative-total-yn_Mi-madre-come-la-fruta.wav,,,,,,,,,,,,,,,,,,,,,,436.977,441.512,0,0,4.027,,0,79,79,26,1,0,castilian,,,,,,,,,,,,,,,,,,,,,,,,,,,,,,,,,,,,,,,,,,,,,,,,,,,,,,,,
,,,,,,,,,654509bce930185adab23a1a,"mexican, puerto rican",13 or older,"no, only English or Spanish",yes,2025-07-23_07h59.46.476,empathy_intonation_perc,2024.2.4,Win32,144.092219,654509bce930185adab23a1a,687ed1b7e638a4cbf2f02089,6880ce819b6e21ce2f292a9e,,,,,,,,,,,,,55,0,,./stim/wavs/cuban_match_declarative-broad-focus_Mariano-habla-del-tiempo.wav,,,,,,,,,,,,,,,,,,,,,,441.513,446.192,1,0,4.167,,0,80,80,54,1,0,cuban,,,,,,,,,,,,,,,,,,,,,,,,,,,,,,,,,,,,,,,,,,,,,,,,,,,,,,,,
,,,,,,,,,654509bce930185adab23a1a,"mexican, puerto rican",13 or older,"no, only English or Spanish",yes,2025-07-23_07h59.46.476,empathy_intonation_perc,2024.2.4,Win32,144.092219,654509bce930185adab23a1a,687ed1b7e638a4cbf2f02089,6880ce819b6e21ce2f292a9e,,,,,,,,,,,,,1,1,,./stim/wavs/castilian_match_interrogative-total-yn_David-leia-el-libro.wav,,,,,,,,,,,,,,,,,,,,,,446.193,449.415,1,1,2.717,,0,81,81,0,1,0,castilian,,,,,,,,,,,,,,,,,,,,,,,,,,,,,,,,,,,,,,,,,,,,,,,,,,,,,,,,
,,,,,,,,,654509bce930185adab23a1a,"mexican, puerto rican",13 or older,"no, only English or Spanish",yes,2025-07-23_07h59.46.476,empathy_intonation_perc,2024.2.4,Win32,144.092219,654509bce930185adab23a1a,687ed1b7e638a4cbf2f02089,6880ce819b6e21ce2f292a9e,,,,,,,,,,,,,51,0,,./stim/wavs/cuban_match_declarative-broad-focus_Ana-lleva-el-abrigo.wav,,,,,,,,,,,,,,,,,,,,,,449.415,452.374,0,1,2.451,,0,82,82,50,1,0,cuban,,,,,,,,,,,,,,,,,,,,,,,,,,,,,,,,,,,,,,,,,,,,,,,,,,,,,,,,
,,,,,,,,,654509bce930185adab23a1a,"mexican, puerto rican",13 or older,"no, only English or Spanish",yes,2025-07-23_07h59.46.476,empathy_intonation_perc,2024.2.4,Win32,144.092219,654509bce930185adab23a1a,687ed1b7e638a4cbf2f02089,6880ce819b6e21ce2f292a9e,,,,,,,,,,,,,65,0,,./stim/wavs/puertorican_match_declarative-broad-focus_David-leia-el-libro.wav,,,,,,,,,,,,,,,,,,,,,,452.374,455.499,1,0,2.612,,0,83,83,64,1,0,puertorican,,,,,,,,,,,,,,,,,,,,,,,,,,,,,,,,,,,,,,,,,,,,,,,,,,,,,,,,
,,,,,,,,,654509bce930185adab23a1a,"mexican, puerto rican",13 or older,"no, only English or Spanish",yes,2025-07-23_07h59.46.476,empathy_intonation_perc,2024.2.4,Win32,144.092219,654509bce930185adab23a1a,687ed1b7e638a4cbf2f02089,6880ce819b6e21ce2f292a9e,,,,,,,,,,,,,40,1,,./stim/wavs/puertorican_mismatch_interrogative-total-yn_El-hombre-mira-la-luna.wav,,,,,,,,,,,,,,,,,,,,,,455.499,460.839,1,1,4.828,,0,84,84,39,1,1,puertorican,,,,,,,,,,,,,,,,,,,,,,,,,,,,,,,,,,,,,,,,,,,,,,,,,,,,,,,,
,,,,,,,,,654509bce930185adab23a1a,"mexican, puerto rican",13 or older,"no, only English or Spanish",yes,2025-07-23_07h59.46.476,empathy_intonation_perc,2024.2.4,Win32,144.092219,654509bce930185adab23a1a,687ed1b7e638a4cbf2f02089,6880ce819b6e21ce2f292a9e,,,,,,,,,,,,,64,0,,./stim/wavs/puertorican_match_declarative-broad-focus_Daniel-iba-a-Bolivia.wav,,,,,,,,,,,,,,,,,,,,,,460.84,463.506,0,1,2.152,,0,85,85,63,1,0,puertorican,,,,,,,,,,,,,,,,,,,,,,,,,,,,,,,,,,,,,,,,,,,,,,,,,,,,,,,,
,,,,,,,,,654509bce930185adab23a1a,"mexican, puerto rican",13 or older,"no, only English or Spanish",yes,2025-07-23_07h59.46.476,empathy_intonation_perc,2024.2.4,Win32,144.092219,654509bce930185adab23a1a,687ed1b7e638a4cbf2f02089,6880ce819b6e21ce2f292a9e,,,,,,,,,,,,,88,0,,./stim/wavs/puertorican_mismatch_declarative-broad-focus_La-nina-lava-el-plato.wav,,,,,,,,,,,,,,,,,,,,,,463.507,467.805,1,0,3.786,,0,86,86,87,1,0,puertorican,,,,,,,,,,,,,,,,,,,,,,,,,,,,,,,,,,,,,,,,,,,,,,,,,,,,,,,,
,,,,,,,,,654509bce930185adab23a1a,"mexican, puerto rican",13 or older,"no, only English or Spanish",yes,2025-07-23_07h59.46.476,empathy_intonation_perc,2024.2.4,Win32,144.092219,654509bce930185adab23a1a,687ed1b7e638a4cbf2f02089,6880ce819b6e21ce2f292a9e,,,,,,,,,,,,,45,0,,./stim/wavs/castilian_match_declarative-broad-focus_David-leia-el-libro.wav,,,,,,,,,,,,,,,,,,,,,,467.805,471.443,1,0,3.126,,0,87,87,44,1,0,castilian,,,,,,,,,,,,,,,,,,,,,,,,,,,,,,,,,,,,,,,,,,,,,,,,,,,,,,,,
,,,,,,,"Great! Now we will move on. The next task consists of about 60 trials, in each of which you will see a string of letters. 
  
  Your task is to decide whether this is a real Spanish word or not.", (press the spacebar to continue),654509bce930185adab23a1a,"mexican, puerto rican",13 or older,"no, only English or Spanish",yes,2025-07-23_07h59.46.476,empathy_intonation_perc,2024.2.4,Win32,144.092219,654509bce930185adab23a1a,687ed1b7e638a4cbf2f02089,6880ce819b6e21ce2f292a9e,,,,,,,,,,,,,,,,,,,,,,,,,,,,,,,,,,,,,,,,,,,,,,,,,,,471.448,519.696,0,0,0,0,1,,,,,,,,,,,,,,,,,,,,,,,,,,,,,,,,,,,,,,,,,,,,,,,,,
,,,,,,,"If you think it is an existing Spanish word, you type '1' (for 'REAL'), and if you think it is not an existing Spanish word, you type '0' (for 'FAKE').", (press the spacebar to continue),654509bce930185adab23a1a,"mexican, puerto rican",13 or older,"no, only English or Spanish",yes,2025-07-23_07h59.46.476,empathy_intonation_perc,2024.2.4,Win32,144.092219,654509bce930185adab23a1a,687ed1b7e638a4cbf2f02089,6880ce819b6e21ce2f292a9e,,,,,,,,,,,,,,,,,,,,,,,,,,,,,,,,,,,,,,,,,,,,,,,,,,,519.697,523.688,0,1,1,1,1,,,,,,,,,,,,,,,,,,,,,,,,,,,,,,,,,,,,,,,,,,,,,,,,,
,,,,,,,"If you are sure that the word exists, even though you don’t know its exact meaning, you may still respond '1' (REAL). 
  
  But if you are not sure if it is an existing word, you should respond '0' (FAKE).
  
  Let's do a practice round...", (press the spacebar to continue),654509bce930185adab23a1a,"mexican, puerto rican",13 or older,"no, only English or Spanish",yes,2025-07-23_07h59.46.476,empathy_intonation_perc,2024.2.4,Win32,144.092219,654509bce930185adab23a1a,687ed1b7e638a4cbf2f02089,6880ce819b6e21ce2f292a9e,,,,,,,,,,,,,,,,,,,,,,,,,,,,,,,,,,,,,,,,,,,,,,,,,,,523.689,527.035,0,2,2,2,1,,,,,,,,,,,,,,,,,,,,,,,,,,,,,,,,,,,,,,,,,,,,,,,,,
,,,,,,,,,654509bce930185adab23a1a,"mexican, puerto rican",13 or older,"no, only English or Spanish",yes,2025-07-23_07h59.46.476,empathy_intonation_perc,2024.2.4,Win32,144.092219,654509bce930185adab23a1a,687ed1b7e638a4cbf2f02089,6880ce819b6e21ce2f292a9e,,,,,,,,,,,,,,0,,,,,,,,,,,,,,,,,,,,,,,,,,,,,,,,,,,,,,,,,,,,527.039,530.077,1,0,2.514,,530.077,531.078,0,0,0,0,1,0,depiste,REAL,FAKE,,,,,,,,,,,,,,,,,,,,,,,,,,,,,,,,
,,,,,,,,,654509bce930185adab23a1a,"mexican, puerto rican",13 or older,"no, only English or Spanish",yes,2025-07-23_07h59.46.476,empathy_intonation_perc,2024.2.4,Win32,144.092219,654509bce930185adab23a1a,687ed1b7e638a4cbf2f02089,6880ce819b6e21ce2f292a9e,,,,,,,,,,,,,,1,,,,,,,,,,,,,,,,,,,,,,,,,,,,,,,,,,,,,,,,,,,,531.078,533.313,1,1,1.721,,533.314,534.313,0,1,1,1,1,0,sí,REAL,FAKE,,,,,,,,,,,,,,,,,,,,,,,,,,,,,,,,
,,,,,,,,,654509bce930185adab23a1a,"mexican, puerto rican",13 or older,"no, only English or Spanish",yes,2025-07-23_07h59.46.476,empathy_intonation_perc,2024.2.4,Win32,144.092219,654509bce930185adab23a1a,687ed1b7e638a4cbf2f02089,6880ce819b6e21ce2f292a9e,,,,,,,,,,,,,,0,,,,,,,,,,,,,,,,,,,,,,,,,,,,,,,,,,,,,,,,,,,,534.314,536.209,0,1,1.374,,536.209,537.209,0,2,2,2,1,0,coné,REAL,FAKE,,,,,,,,,,,,,,,,,,,,,,,,,,,,,,,,
,,,,,,,,,654509bce930185adab23a1a,"mexican, puerto rican",13 or older,"no, only English or Spanish",yes,2025-07-23_07h59.46.476,empathy_intonation_perc,2024.2.4,Win32,144.092219,654509bce930185adab23a1a,687ed1b7e638a4cbf2f02089,6880ce819b6e21ce2f292a9e,,,,,,,,,,,,,,0,,,,,,,,,,,,,,,,,,,,,,,,,,,,,,,,,,,,,,,,,,,,537.21,538.64,1,0,0.911,,538.641,539.64,0,3,3,3,1,0,calpar,REAL,FAKE,,,,,,,,,,,,,,,,,,,,,,,,,,,,,,,,
,,,,,,,,,654509bce930185adab23a1a,"mexican, puerto rican",13 or older,"no, only English or Spanish",yes,2025-07-23_07h59.46.476,empathy_intonation_perc,2024.2.4,Win32,144.092219,654509bce930185adab23a1a,687ed1b7e638a4cbf2f02089,6880ce819b6e21ce2f292a9e,,,,,,,,,,,,,,0,,,,,,,,,,,,,,,,,,,,,,,,,,,,,,,,,,,,,,,,,,,,539.641,541.147,0,1,0.986,,541.147,542.147,0,4,4,4,1,0,joten,REAL,FAKE,,,,,,,,,,,,,,,,,,,,,,,,,,,,,,,,
,,,,,,,,,654509bce930185adab23a1a,"mexican, puerto rican",13 or older,"no, only English or Spanish",yes,2025-07-23_07h59.46.476,empathy_intonation_perc,2024.2.4,Win32,144.092219,654509bce930185adab23a1a,687ed1b7e638a4cbf2f02089,6880ce819b6e21ce2f292a9e,,,,,,,,,,,,,,1,,,,,,,,,,,,,,,,,,,,,,,,,,,,,,,,,,,,,,,,,,,,542.147,543.431,0,0,0.772,,543.433,544.432,0,5,5,5,1,0,sacapuntas,REAL,FAKE,,,,,,,,,,,,,,,,,,,,,,,,,,,,,,,,
,,,,,,,,,654509bce930185adab23a1a,"mexican, puerto rican",13 or older,"no, only English or Spanish",yes,2025-07-23_07h59.46.476,empathy_intonation_perc,2024.2.4,Win32,144.092219,654509bce930185adab23a1a,687ed1b7e638a4cbf2f02089,6880ce819b6e21ce2f292a9e,,,,,,,,,,,,,,0,,,,,,,,,,,,,,,,,,,,,,,,,,,,,,,,,,,,,,,,,,,,544.432,546.251,1,0,1.295,,546.251,547.251,0,6,6,6,1,0,priba,REAL,FAKE,,,,,,,,,,,,,,,,,,,,,,,,,,,,,,,,
,,,,,,,,,654509bce930185adab23a1a,"mexican, puerto rican",13 or older,"no, only English or Spanish",yes,2025-07-23_07h59.46.476,empathy_intonation_perc,2024.2.4,Win32,144.092219,654509bce930185adab23a1a,687ed1b7e638a4cbf2f02089,6880ce819b6e21ce2f292a9e,,,,,,,,,,,,,,0,,,,,,,,,,,,,,,,,,,,,,,,,,,,,,,,,,,,,,,,,,,,547.252,548.543,0,1,0.765,,548.544,549.542,0,7,7,7,1,0,pelasula,REAL,FAKE,,,,,,,,,,,,,,,,,,,,,,,,,,,,,,,,
,,,,,,,,,654509bce930185adab23a1a,"mexican, puerto rican",13 or older,"no, only English or Spanish",yes,2025-07-23_07h59.46.476,empathy_intonation_perc,2024.2.4,Win32,144.092219,654509bce930185adab23a1a,687ed1b7e638a4cbf2f02089,6880ce819b6e21ce2f292a9e,,,,,,,,,,,,,,1,,,,,,,,,,,,,,,,,,,,,,,,,,,,,,,,,,,,,,,,,,,,549.543,550.73,1,1,0.67,,550.73,551.73,0,8,8,8,1,0,bien,REAL,FAKE,,,,,,,,,,,,,,,,,,,,,,,,,,,,,,,,
,,,,,,,,,654509bce930185adab23a1a,"mexican, puerto rican",13 or older,"no, only English or Spanish",yes,2025-07-23_07h59.46.476,empathy_intonation_perc,2024.2.4,Win32,144.092219,654509bce930185adab23a1a,687ed1b7e638a4cbf2f02089,6880ce819b6e21ce2f292a9e,,,,,,,,,,,,,,1,,,,,,,,,,,,,,,,,,,,,,,,,,,,,,,,,,,,,,,,,,,,551.731,552.814,1,1,0.569,,552.814,553.814,0,9,9,9,1,0,casa,REAL,FAKE,,,,,,,,,,,,,,,,,,,,,,,,,,,,,,,,
,,,,,,,,,654509bce930185adab23a1a,"mexican, puerto rican",13 or older,"no, only English or Spanish",yes,2025-07-23_07h59.46.476,empathy_intonation_perc,2024.2.4,Win32,144.092219,654509bce930185adab23a1a,687ed1b7e638a4cbf2f02089,6880ce819b6e21ce2f292a9e,,,,,,,,,,,,,,0,,,,,,,,,,,,,,,,,,,,,,,,,,,,,,,,,,,,,,,,,,,,553.814,554.98,1,0,0.645,,554.981,555.98,0,10,10,10,1,0,lejo,REAL,FAKE,,,,,,,,,,,,,,,,,,,,,,,,,,,,,,,,
,,,,,,,,,654509bce930185adab23a1a,"mexican, puerto rican",13 or older,"no, only English or Spanish",yes,2025-07-23_07h59.46.476,empathy_intonation_perc,2024.2.4,Win32,144.092219,654509bce930185adab23a1a,687ed1b7e638a4cbf2f02089,6880ce819b6e21ce2f292a9e,,,,,,,,,,,,,,0,,,,,,,,,,,,,,,,,,,,,,,,,,,,,,,,,,,,,,,,,,,,555.981,557.675,1,0,1.179,,557.675,558.676,0,11,11,11,1,0,pretantas,REAL,FAKE,,,,,,,,,,,,,,,,,,,,,,,,,,,,,,,,
,,,,,,,,,654509bce930185adab23a1a,"mexican, puerto rican",13 or older,"no, only English or Spanish",yes,2025-07-23_07h59.46.476,empathy_intonation_perc,2024.2.4,Win32,144.092219,654509bce930185adab23a1a,687ed1b7e638a4cbf2f02089,6880ce819b6e21ce2f292a9e,,,,,,,,,,,,,,,,,,,,,,,,,,,,,,,,,,,,,,,,,,,,,,,,,,,,,,,,,,,,,,,,,,,,,,,,,,,558.676,559.321,,,,,,,,,,,,,,,,,,,,,,,,,,,,,,
,,,,,,,,,654509bce930185adab23a1a,"mexican, puerto rican",13 or older,"no, only English or Spanish",yes,2025-07-23_07h59.46.476,empathy_intonation_perc,2024.2.4,Win32,144.092219,654509bce930185adab23a1a,687ed1b7e638a4cbf2f02089,6880ce819b6e21ce2f292a9e,,,,,,,,,,,,,,1,,,,,,,,,,,,,,,,,,,,,,,,,,,,,,,,,,,,,,,,,,,,,,,,,,,,,,,,,43,canela,,,,,559.327,560.905,1,1,1.062,,0,0,0,42,1,REAL,FAKE,,,,,,,,,,,,,,,,,
,,,,,,,,,654509bce930185adab23a1a,"mexican, puerto rican",13 or older,"no, only English or Spanish",yes,2025-07-23_07h59.46.476,empathy_intonation_perc,2024.2.4,Win32,144.092219,654509bce930185adab23a1a,687ed1b7e638a4cbf2f02089,6880ce819b6e21ce2f292a9e,,,,,,,,,,,,,,1,,,,,,,,,,,,,,,,,,,,,,,,,,,,,,,,,,,,,,,,,,,,,,,,,,,,,,,,,62,flaco,,,,,560.905,562.224,1,1,0.807,,0,1,1,61,1,REAL,FAKE,,,,,,,,,,,,,,,,,
,,,,,,,,,654509bce930185adab23a1a,"mexican, puerto rican",13 or older,"no, only English or Spanish",yes,2025-07-23_07h59.46.476,empathy_intonation_perc,2024.2.4,Win32,144.092219,654509bce930185adab23a1a,687ed1b7e638a4cbf2f02089,6880ce819b6e21ce2f292a9e,,,,,,,,,,,,,,0,,,,,,,,,,,,,,,,,,,,,,,,,,,,,,,,,,,,,,,,,,,,,,,,,,,,,,,,,33,pauca,,,,,562.225,563.467,0,1,0.725,,0,2,2,32,1,REAL,FAKE,,,,,,,,,,,,,,,,,
,,,,,,,,,654509bce930185adab23a1a,"mexican, puerto rican",13 or older,"no, only English or Spanish",yes,2025-07-23_07h59.46.476,empathy_intonation_perc,2024.2.4,Win32,144.092219,654509bce930185adab23a1a,687ed1b7e638a4cbf2f02089,6880ce819b6e21ce2f292a9e,,,,,,,,,,,,,,1,,,,,,,,,,,,,,,,,,,,,,,,,,,,,,,,,,,,,,,,,,,,,,,,,,,,,,,,,20,ávido,,,,,563.468,564.648,1,1,0.656,,0,3,3,19,1,REAL,FAKE,,,,,,,,,,,,,,,,,
,,,,,,,,,654509bce930185adab23a1a,"mexican, puerto rican",13 or older,"no, only English or Spanish",yes,2025-07-23_07h59.46.476,empathy_intonation_perc,2024.2.4,Win32,144.092219,654509bce930185adab23a1a,687ed1b7e638a4cbf2f02089,6880ce819b6e21ce2f292a9e,,,,,,,,,,,,,,1,,,,,,,,,,,,,,,,,,,,,,,,,,,,,,,,,,,,,,,,,,,,,,,,,,,,,,,,,13,helar,,,,,564.648,565.904,0,0,0.726,,0,4,4,12,1,REAL,FAKE,,,,,,,,,,,,,,,,,
,,,,,,,,,654509bce930185adab23a1a,"mexican, puerto rican",13 or older,"no, only English or Spanish",yes,2025-07-23_07h59.46.476,empathy_intonation_perc,2024.2.4,Win32,144.092219,654509bce930185adab23a1a,687ed1b7e638a4cbf2f02089,6880ce819b6e21ce2f292a9e,,,,,,,,,,,,,,0,,,,,,,,,,,,,,,,,,,,,,,,,,,,,,,,,,,,,,,,,,,,,,,,,,,,,,,,,63,esposante,,,,,565.905,567.14,1,0,0.714,,0,5,5,62,1,REAL,FAKE,,,,,,,,,,,,,,,,,
,,,,,,,,,654509bce930185adab23a1a,"mexican, puerto rican",13 or older,"no, only English or Spanish",yes,2025-07-23_07h59.46.476,empathy_intonation_perc,2024.2.4,Win32,144.092219,654509bce930185adab23a1a,687ed1b7e638a4cbf2f02089,6880ce819b6e21ce2f292a9e,,,,,,,,,,,,,,1,,,,,,,,,,,,,,,,,,,,,,,,,,,,,,,,,,,,,,,,,,,,,,,,,,,,,,,,,28,merodear,,,,,567.141,568.509,0,0,0.849,,0,6,6,27,1,REAL,FAKE,,,,,,,,,,,,,,,,,
,,,,,,,,,654509bce930185adab23a1a,"mexican, puerto rican",13 or older,"no, only English or Spanish",yes,2025-07-23_07h59.46.476,empathy_intonation_perc,2024.2.4,Win32,144.092219,654509bce930185adab23a1a,687ed1b7e638a4cbf2f02089,6880ce819b6e21ce2f292a9e,,,,,,,,,,,,,,0,,,,,,,,,,,,,,,,,,,,,,,,,,,,,,,,,,,,,,,,,,,,,,,,,,,,,,,,,84,escuto,,,,,568.51,570.058,1,0,1.027,,0,7,7,83,1,REAL,FAKE,,,,,,,,,,,,,,,,,
,,,,,,,,,654509bce930185adab23a1a,"mexican, puerto rican",13 or older,"no, only English or Spanish",yes,2025-07-23_07h59.46.476,empathy_intonation_perc,2024.2.4,Win32,144.092219,654509bce930185adab23a1a,687ed1b7e638a4cbf2f02089,6880ce819b6e21ce2f292a9e,,,,,,,,,,,,,,0,,,,,,,,,,,,,,,,,,,,,,,,,,,,,,,,,,,,,,,,,,,,,,,,,,,,,,,,,50,flamida,,,,,570.058,571.501,0,1,0.927,,0,8,8,49,1,REAL,FAKE,,,,,,,,,,,,,,,,,
,,,,,,,,,654509bce930185adab23a1a,"mexican, puerto rican",13 or older,"no, only English or Spanish",yes,2025-07-23_07h59.46.476,empathy_intonation_perc,2024.2.4,Win32,144.092219,654509bce930185adab23a1a,687ed1b7e638a4cbf2f02089,6880ce819b6e21ce2f292a9e,,,,,,,,,,,,,,1,,,,,,,,,,,,,,,,,,,,,,,,,,,,,,,,,,,,,,,,,,,,,,,,,,,,,,,,,73,hervidor,,,,,571.503,572.877,0,0,0.852,,0,9,9,72,1,REAL,FAKE,,,,,,,,,,,,,,,,,
,,,,,,,,,654509bce930185adab23a1a,"mexican, puerto rican",13 or older,"no, only English or Spanish",yes,2025-07-23_07h59.46.476,empathy_intonation_perc,2024.2.4,Win32,144.092219,654509bce930185adab23a1a,687ed1b7e638a4cbf2f02089,6880ce819b6e21ce2f292a9e,,,,,,,,,,,,,,1,,,,,,,,,,,,,,,,,,,,,,,,,,,,,,,,,,,,,,,,,,,,,,,,,,,,,,,,,25,bisagra,,,,,572.878,574.279,0,0,0.879,,0,10,10,24,1,REAL,FAKE,,,,,,,,,,,,,,,,,
,,,,,,,,,654509bce930185adab23a1a,"mexican, puerto rican",13 or older,"no, only English or Spanish",yes,2025-07-23_07h59.46.476,empathy_intonation_perc,2024.2.4,Win32,144.092219,654509bce930185adab23a1a,687ed1b7e638a4cbf2f02089,6880ce819b6e21ce2f292a9e,,,,,,,,,,,,,,1,,,,,,,,,,,,,,,,,,,,,,,,,,,,,,,,,,,,,,,,,,,,,,,,,,,,,,,,,12,asesinato,,,,,574.28,575.572,0,0,0.787,,0,11,11,11,1,REAL,FAKE,,,,,,,,,,,,,,,,,
,,,,,,,,,654509bce930185adab23a1a,"mexican, puerto rican",13 or older,"no, only English or Spanish",yes,2025-07-23_07h59.46.476,empathy_intonation_perc,2024.2.4,Win32,144.092219,654509bce930185adab23a1a,687ed1b7e638a4cbf2f02089,6880ce819b6e21ce2f292a9e,,,,,,,,,,,,,,0,,,,,,,,,,,,,,,,,,,,,,,,,,,,,,,,,,,,,,,,,,,,,,,,,,,,,,,,,42,cadallo,,,,,575.572,576.981,0,1,0.886,,0,12,12,41,1,REAL,FAKE,,,,,,,,,,,,,,,,,
,,,,,,,,,654509bce930185adab23a1a,"mexican, puerto rican",13 or older,"no, only English or Spanish",yes,2025-07-23_07h59.46.476,empathy_intonation_perc,2024.2.4,Win32,144.092219,654509bce930185adab23a1a,687ed1b7e638a4cbf2f02089,6880ce819b6e21ce2f292a9e,,,,,,,,,,,,,,0,,,,,,,,,,,,,,,,,,,,,,,,,,,,,,,,,,,,,,,,,,,,,,,,,,,,,,,,,79,tropaje,,,,,576.982,578.411,0,1,0.913,,0,13,13,78,1,REAL,FAKE,,,,,,,,,,,,,,,,,
,,,,,,,,,654509bce930185adab23a1a,"mexican, puerto rican",13 or older,"no, only English or Spanish",yes,2025-07-23_07h59.46.476,empathy_intonation_perc,2024.2.4,Win32,144.092219,654509bce930185adab23a1a,687ed1b7e638a4cbf2f02089,6880ce819b6e21ce2f292a9e,,,,,,,,,,,,,,1,,,,,,,,,,,,,,,,,,,,,,,,,,,,,,,,,,,,,,,,,,,,,,,,,,,,,,,,,7,pésimo,,,,,578.412,579.613,1,1,0.694,,0,14,14,6,1,REAL,FAKE,,,,,,,,,,,,,,,,,
,,,,,,,,,654509bce930185adab23a1a,"mexican, puerto rican",13 or older,"no, only English or Spanish",yes,2025-07-23_07h59.46.476,empathy_intonation_perc,2024.2.4,Win32,144.092219,654509bce930185adab23a1a,687ed1b7e638a4cbf2f02089,6880ce819b6e21ce2f292a9e,,,,,,,,,,,,,,0,,,,,,,,,,,,,,,,,,,,,,,,,,,,,,,,,,,,,,,,,,,,,,,,,,,,,,,,,82,empirador,,,,,579.614,580.919,1,0,0.782,,0,15,15,81,1,REAL,FAKE,,,,,,,,,,,,,,,,,
,,,,,,,,,654509bce930185adab23a1a,"mexican, puerto rican",13 or older,"no, only English or Spanish",yes,2025-07-23_07h59.46.476,empathy_intonation_perc,2024.2.4,Win32,144.092219,654509bce930185adab23a1a,687ed1b7e638a4cbf2f02089,6880ce819b6e21ce2f292a9e,,,,,,,,,,,,,,0,,,,,,,,,,,,,,,,,,,,,,,,,,,,,,,,,,,,,,,,,,,,,,,,,,,,,,,,,18,arsa,,,,,580.92,582.037,1,0,0.599,,0,16,16,17,1,REAL,FAKE,,,,,,,,,,,,,,,,,
,,,,,,,,,654509bce930185adab23a1a,"mexican, puerto rican",13 or older,"no, only English or Spanish",yes,2025-07-23_07h59.46.476,empathy_intonation_perc,2024.2.4,Win32,144.092219,654509bce930185adab23a1a,687ed1b7e638a4cbf2f02089,6880ce819b6e21ce2f292a9e,,,,,,,,,,,,,,0,,,,,,,,,,,,,,,,,,,,,,,,,,,,,,,,,,,,,,,,,,,,,,,,,,,,,,,,,19,brecedad,,,,,582.038,583.35,0,1,0.806,,0,17,17,18,1,REAL,FAKE,,,,,,,,,,,,,,,,,
,,,,,,,,,654509bce930185adab23a1a,"mexican, puerto rican",13 or older,"no, only English or Spanish",yes,2025-07-23_07h59.46.476,empathy_intonation_perc,2024.2.4,Win32,144.092219,654509bce930185adab23a1a,687ed1b7e638a4cbf2f02089,6880ce819b6e21ce2f292a9e,,,,,,,,,,,,,,1,,,,,,,,,,,,,,,,,,,,,,,,,,,,,,,,,,,,,,,,,,,,,,,,,,,,,,,,,2,pellizcar,,,,,583.35,584.634,0,0,0.765,,0,18,18,1,1,REAL,FAKE,,,,,,,,,,,,,,,,,
,,,,,,,,,654509bce930185adab23a1a,"mexican, puerto rican",13 or older,"no, only English or Spanish",yes,2025-07-23_07h59.46.476,empathy_intonation_perc,2024.2.4,Win32,144.092219,654509bce930185adab23a1a,687ed1b7e638a4cbf2f02089,6880ce819b6e21ce2f292a9e,,,,,,,,,,,,,,1,,,,,,,,,,,,,,,,,,,,,,,,,,,,,,,,,,,,,,,,,,,,,,,,,,,,,,,,,54,fomentar,,,,,584.635,585.808,0,0,0.646,,0,19,19,53,1,REAL,FAKE,,,,,,,,,,,,,,,,,
,,,,,,,,,654509bce930185adab23a1a,"mexican, puerto rican",13 or older,"no, only English or Spanish",yes,2025-07-23_07h59.46.476,empathy_intonation_perc,2024.2.4,Win32,144.092219,654509bce930185adab23a1a,687ed1b7e638a4cbf2f02089,6880ce819b6e21ce2f292a9e,,,,,,,,,,,,,,0,,,,,,,,,,,,,,,,,,,,,,,,,,,,,,,,,,,,,,,,,,,,,,,,,,,,,,,,,72,pemición,,,,,585.809,587.197,0,1,0.867,,0,20,20,71,1,REAL,FAKE,,,,,,,,,,,,,,,,,
,,,,,,,,,654509bce930185adab23a1a,"mexican, puerto rican",13 or older,"no, only English or Spanish",yes,2025-07-23_07h59.46.476,empathy_intonation_perc,2024.2.4,Win32,144.092219,654509bce930185adab23a1a,687ed1b7e638a4cbf2f02089,6880ce819b6e21ce2f292a9e,,,,,,,,,,,,,,1,,,,,,,,,,,,,,,,,,,,,,,,,,,,,,,,,,,,,,,,,,,,,,,,,,,,,,,,,11,cenefa,,,,,587.197,588.746,0,0,1.028,,0,21,21,10,1,REAL,FAKE,,,,,,,,,,,,,,,,,
,,,,,,,,,654509bce930185adab23a1a,"mexican, puerto rican",13 or older,"no, only English or Spanish",yes,2025-07-23_07h59.46.476,empathy_intonation_perc,2024.2.4,Win32,144.092219,654509bce930185adab23a1a,687ed1b7e638a4cbf2f02089,6880ce819b6e21ce2f292a9e,,,,,,,,,,,,,,1,,,,,,,,,,,,,,,,,,,,,,,,,,,,,,,,,,,,,,,,,,,,,,,,,,,,,,,,,48,ladrón,,,,,588.746,590.113,0,0,0.849,,0,22,22,47,1,REAL,FAKE,,,,,,,,,,,,,,,,,
,,,,,,,,,654509bce930185adab23a1a,"mexican, puerto rican",13 or older,"no, only English or Spanish",yes,2025-07-23_07h59.46.476,empathy_intonation_perc,2024.2.4,Win32,144.092219,654509bce930185adab23a1a,687ed1b7e638a4cbf2f02089,6880ce819b6e21ce2f292a9e,,,,,,,,,,,,,,0,,,,,,,,,,,,,,,,,,,,,,,,,,,,,,,,,,,,,,,,,,,,,,,,,,,,,,,,,74,cintro,,,,,590.114,591.217,1,0,0.595,,0,23,23,73,1,REAL,FAKE,,,,,,,,,,,,,,,,,
,,,,,,,,,654509bce930185adab23a1a,"mexican, puerto rican",13 or older,"no, only English or Spanish",yes,2025-07-23_07h59.46.476,empathy_intonation_perc,2024.2.4,Win32,144.092219,654509bce930185adab23a1a,687ed1b7e638a4cbf2f02089,6880ce819b6e21ce2f292a9e,,,,,,,,,,,,,,1,,,,,,,,,,,,,,,,,,,,,,,,,,,,,,,,,,,,,,,,,,,,,,,,,,,,,,,,,60,matar,,,,,591.218,592.537,1,1,0.802,,0,24,24,59,1,REAL,FAKE,,,,,,,,,,,,,,,,,
,,,,,,,,,654509bce930185adab23a1a,"mexican, puerto rican",13 or older,"no, only English or Spanish",yes,2025-07-23_07h59.46.476,empathy_intonation_perc,2024.2.4,Win32,144.092219,654509bce930185adab23a1a,687ed1b7e638a4cbf2f02089,6880ce819b6e21ce2f292a9e,,,,,,,,,,,,,,1,,,,,,,,,,,,,,,,,,,,,,,,,,,,,,,,,,,,,,,,,,,,,,,,,,,,,,,,,69,engatusar,,,,,592.538,593.822,0,0,0.762,,0,25,25,68,1,REAL,FAKE,,,,,,,,,,,,,,,,,
,,,,,,,,,654509bce930185adab23a1a,"mexican, puerto rican",13 or older,"no, only English or Spanish",yes,2025-07-23_07h59.46.476,empathy_intonation_perc,2024.2.4,Win32,144.092219,654509bce930185adab23a1a,687ed1b7e638a4cbf2f02089,6880ce819b6e21ce2f292a9e,,,,,,,,,,,,,,1,,,,,,,,,,,,,,,,,,,,,,,,,,,,,,,,,,,,,,,,,,,,,,,,,,,,,,,,,65,bizcocho,,,,,593.823,595.232,0,0,0.898,,0,26,26,64,1,REAL,FAKE,,,,,,,,,,,,,,,,,
,,,,,,,,,654509bce930185adab23a1a,"mexican, puerto rican",13 or older,"no, only English or Spanish",yes,2025-07-23_07h59.46.476,empathy_intonation_perc,2024.2.4,Win32,144.092219,654509bce930185adab23a1a,687ed1b7e638a4cbf2f02089,6880ce819b6e21ce2f292a9e,,,,,,,,,,,,,,0,,,,,,,,,,,,,,,,,,,,,,,,,,,,,,,,,,,,,,,,,,,,,,,,,,,,,,,,,70,temblo,,,,,595.233,597.558,1,0,1.809,,0,27,27,69,1,REAL,FAKE,,,,,,,,,,,,,,,,,
,,,,,,,,,654509bce930185adab23a1a,"mexican, puerto rican",13 or older,"no, only English or Spanish",yes,2025-07-23_07h59.46.476,empathy_intonation_perc,2024.2.4,Win32,144.092219,654509bce930185adab23a1a,687ed1b7e638a4cbf2f02089,6880ce819b6e21ce2f292a9e,,,,,,,,,,,,,,1,,,,,,,,,,,,,,,,,,,,,,,,,,,,,,,,,,,,,,,,,,,,,,,,,,,,,,,,,81,pozo,,,,,597.56,599.19,0,0,1.103,,0,28,28,80,1,REAL,FAKE,,,,,,,,,,,,,,,,,
,,,,,,,,,654509bce930185adab23a1a,"mexican, puerto rican",13 or older,"no, only English or Spanish",yes,2025-07-23_07h59.46.476,empathy_intonation_perc,2024.2.4,Win32,144.092219,654509bce930185adab23a1a,687ed1b7e638a4cbf2f02089,6880ce819b6e21ce2f292a9e,,,,,,,,,,,,,,1,,,,,,,,,,,,,,,,,,,,,,,,,,,,,,,,,,,,,,,,,,,,,,,,,,,,,,,,,75,yacer,,,,,599.191,600.614,1,1,0.904,,0,29,29,74,1,REAL,FAKE,,,,,,,,,,,,,,,,,
,,,,,,,,,654509bce930185adab23a1a,"mexican, puerto rican",13 or older,"no, only English or Spanish",yes,2025-07-23_07h59.46.476,empathy_intonation_perc,2024.2.4,Win32,144.092219,654509bce930185adab23a1a,687ed1b7e638a4cbf2f02089,6880ce819b6e21ce2f292a9e,,,,,,,,,,,,,,0,,,,,,,,,,,,,,,,,,,,,,,,,,,,,,,,,,,,,,,,,,,,,,,,,,,,,,,,,21,capillo,,,,,600.614,601.816,0,1,0.688,,0,30,30,20,1,REAL,FAKE,,,,,,,,,,,,,,,,,
,,,,,,,,,654509bce930185adab23a1a,"mexican, puerto rican",13 or older,"no, only English or Spanish",yes,2025-07-23_07h59.46.476,empathy_intonation_perc,2024.2.4,Win32,144.092219,654509bce930185adab23a1a,687ed1b7e638a4cbf2f02089,6880ce819b6e21ce2f292a9e,,,,,,,,,,,,,,1,,,,,,,,,,,,,,,,,,,,,,,,,,,,,,,,,,,,,,,,,,,,,,,,,,,,,,,,,91,click the 1 key.,,,,,601.817,604.121,1,1,1.786,,0,31,31,90,1,REAL,FAKE,,,,,,,,,,,,,,,,,
,,,,,,,,,654509bce930185adab23a1a,"mexican, puerto rican",13 or older,"no, only English or Spanish",yes,2025-07-23_07h59.46.476,empathy_intonation_perc,2024.2.4,Win32,144.092219,654509bce930185adab23a1a,687ed1b7e638a4cbf2f02089,6880ce819b6e21ce2f292a9e,,,,,,,,,,,,,,1,,,,,,,,,,,,,,,,,,,,,,,,,,,,,,,,,,,,,,,,,,,,,,,,,,,,,,,,,85,laúd,,,,,604.122,608.329,0,0,3.682,,0,32,32,84,1,REAL,FAKE,,,,,,,,,,,,,,,,,
,,,,,,,,,654509bce930185adab23a1a,"mexican, puerto rican",13 or older,"no, only English or Spanish",yes,2025-07-23_07h59.46.476,empathy_intonation_perc,2024.2.4,Win32,144.092219,654509bce930185adab23a1a,687ed1b7e638a4cbf2f02089,6880ce819b6e21ce2f292a9e,,,,,,,,,,,,,,1,,,,,,,,,,,,,,,,,,,,,,,,,,,,,,,,,,,,,,,,,,,,,,,,,,,,,,,,,57,tacaño,,,,,608.33,610.337,1,1,1.499,,0,33,33,56,1,REAL,FAKE,,,,,,,,,,,,,,,,,
,,,,,,,,,654509bce930185adab23a1a,"mexican, puerto rican",13 or older,"no, only English or Spanish",yes,2025-07-23_07h59.46.476,empathy_intonation_perc,2024.2.4,Win32,144.092219,654509bce930185adab23a1a,687ed1b7e638a4cbf2f02089,6880ce819b6e21ce2f292a9e,,,,,,,,,,,,,,0,,,,,,,,,,,,,,,,,,,,,,,,,,,,,,,,,,,,,,,,,,,,,,,,,,,,,,,,,23,lampera,,,,,610.337,611.808,1,0,0.945,,0,34,34,22,1,REAL,FAKE,,,,,,,,,,,,,,,,,
,,,,,,,,,654509bce930185adab23a1a,"mexican, puerto rican",13 or older,"no, only English or Spanish",yes,2025-07-23_07h59.46.476,empathy_intonation_perc,2024.2.4,Win32,144.092219,654509bce930185adab23a1a,687ed1b7e638a4cbf2f02089,6880ce819b6e21ce2f292a9e,,,,,,,,,,,,,,0,,,,,,,,,,,,,,,,,,,,,,,,,,,,,,,,,,,,,,,,,,,,,,,,,,,,,,,,,8,cadeña,,,,,611.809,614.26,1,0,1.933,,0,35,35,7,1,REAL,FAKE,,,,,,,,,,,,,,,,,
,,,,,,,,,654509bce930185adab23a1a,"mexican, puerto rican",13 or older,"no, only English or Spanish",yes,2025-07-23_07h59.46.476,empathy_intonation_perc,2024.2.4,Win32,144.092219,654509bce930185adab23a1a,687ed1b7e638a4cbf2f02089,6880ce819b6e21ce2f292a9e,,,,,,,,,,,,,,1,,,,,,,,,,,,,,,,,,,,,,,,,,,,,,,,,,,,,,,,,,,,,,,,,,,,,,,,,40,alfombra,,,,,614.26,616.308,0,0,1.529,,0,36,36,39,1,REAL,FAKE,,,,,,,,,,,,,,,,,
,,,,,,,,,654509bce930185adab23a1a,"mexican, puerto rican",13 or older,"no, only English or Spanish",yes,2025-07-23_07h59.46.476,empathy_intonation_perc,2024.2.4,Win32,144.092219,654509bce930185adab23a1a,687ed1b7e638a4cbf2f02089,6880ce819b6e21ce2f292a9e,,,,,,,,,,,,,,1,,,,,,,,,,,,,,,,,,,,,,,,,,,,,,,,,,,,,,,,,,,,,,,,,,,,,,,,,76,atar,,,,,616.309,617.844,0,0,1.014,,0,37,37,75,1,REAL,FAKE,,,,,,,,,,,,,,,,,
,,,,,,,,,654509bce930185adab23a1a,"mexican, puerto rican",13 or older,"no, only English or Spanish",yes,2025-07-23_07h59.46.476,empathy_intonation_perc,2024.2.4,Win32,144.092219,654509bce930185adab23a1a,687ed1b7e638a4cbf2f02089,6880ce819b6e21ce2f292a9e,,,,,,,,,,,,,,1,,,,,,,,,,,,,,,,,,,,,,,,,,,,,,,,,,,,,,,,,,,,,,,,,,,,,,,,,67,cabello,,,,,617.844,619.045,0,0,0.675,,0,38,38,66,1,REAL,FAKE,,,,,,,,,,,,,,,,,
,,,,,,,,,654509bce930185adab23a1a,"mexican, puerto rican",13 or older,"no, only English or Spanish",yes,2025-07-23_07h59.46.476,empathy_intonation_perc,2024.2.4,Win32,144.092219,654509bce930185adab23a1a,687ed1b7e638a4cbf2f02089,6880ce819b6e21ce2f292a9e,,,,,,,,,,,,,,1,,,,,,,,,,,,,,,,,,,,,,,,,,,,,,,,,,,,,,,,,,,,,,,,,,,,,,,,,80,hormiga,,,,,619.045,621.225,0,0,1.669,,0,39,39,79,1,REAL,FAKE,,,,,,,,,,,,,,,,,
,,,,,,,,,654509bce930185adab23a1a,"mexican, puerto rican",13 or older,"no, only English or Spanish",yes,2025-07-23_07h59.46.476,empathy_intonation_perc,2024.2.4,Win32,144.092219,654509bce930185adab23a1a,687ed1b7e638a4cbf2f02089,6880ce819b6e21ce2f292a9e,,,,,,,,,,,,,,1,,,,,,,,,,,,,,,,,,,,,,,,,,,,,,,,,,,,,,,,,,,,,,,,,,,,,,,,,41,rebuscar,,,,,621.226,622.795,0,0,1.048,,0,40,40,40,1,REAL,FAKE,,,,,,,,,,,,,,,,,
,,,,,,,,,654509bce930185adab23a1a,"mexican, puerto rican",13 or older,"no, only English or Spanish",yes,2025-07-23_07h59.46.476,empathy_intonation_perc,2024.2.4,Win32,144.092219,654509bce930185adab23a1a,687ed1b7e638a4cbf2f02089,6880ce819b6e21ce2f292a9e,,,,,,,,,,,,,,1,,,,,,,,,,,,,,,,,,,,,,,,,,,,,,,,,,,,,,,,,,,,,,,,,,,,,,,,,77,tiburón,,,,,622.796,624.697,0,0,1.384,,0,41,41,76,1,REAL,FAKE,,,,,,,,,,,,,,,,,
,,,,,,,,,654509bce930185adab23a1a,"mexican, puerto rican",13 or older,"no, only English or Spanish",yes,2025-07-23_07h59.46.476,empathy_intonation_perc,2024.2.4,Win32,144.092219,654509bce930185adab23a1a,687ed1b7e638a4cbf2f02089,6880ce819b6e21ce2f292a9e,,,,,,,,,,,,,,1,,,,,,,,,,,,,,,,,,,,,,,,,,,,,,,,,,,,,,,,,,,,,,,,,,,,,,,,,46,martillo,,,,,624.698,625.844,1,1,0.621,,0,42,42,45,1,REAL,FAKE,,,,,,,,,,,,,,,,,
,,,,,,,,,654509bce930185adab23a1a,"mexican, puerto rican",13 or older,"no, only English or Spanish",yes,2025-07-23_07h59.46.476,empathy_intonation_perc,2024.2.4,Win32,144.092219,654509bce930185adab23a1a,687ed1b7e638a4cbf2f02089,6880ce819b6e21ce2f292a9e,,,,,,,,,,,,,,1,,,,,,,,,,,,,,,,,,,,,,,,,,,,,,,,,,,,,,,,,,,,,,,,,,,,,,,,,90,clavel,,,,,625.844,627.35,0,0,0.984,,0,43,43,89,1,REAL,FAKE,,,,,,,,,,,,,,,,,
,,,,,,,,,654509bce930185adab23a1a,"mexican, puerto rican",13 or older,"no, only English or Spanish",yes,2025-07-23_07h59.46.476,empathy_intonation_perc,2024.2.4,Win32,144.092219,654509bce930185adab23a1a,687ed1b7e638a4cbf2f02089,6880ce819b6e21ce2f292a9e,,,,,,,,,,,,,,1,,,,,,,,,,,,,,,,,,,,,,,,,,,,,,,,,,,,,,,,,,,,,,,,,,,,,,,,,22,lacayo,,,,,627.351,628.552,1,1,0.684,,0,44,44,21,1,REAL,FAKE,,,,,,,,,,,,,,,,,
,,,,,,,,,654509bce930185adab23a1a,"mexican, puerto rican",13 or older,"no, only English or Spanish",yes,2025-07-23_07h59.46.476,empathy_intonation_perc,2024.2.4,Win32,144.092219,654509bce930185adab23a1a,687ed1b7e638a4cbf2f02089,6880ce819b6e21ce2f292a9e,,,,,,,,,,,,,,1,,,,,,,,,,,,,,,,,,,,,,,,,,,,,,,,,,,,,,,,,,,,,,,,,,,,,,,,,5,zapato,,,,,628.553,629.67,0,0,0.6,,0,45,45,4,1,REAL,FAKE,,,,,,,,,,,,,,,,,
,,,,,,,,,654509bce930185adab23a1a,"mexican, puerto rican",13 or older,"no, only English or Spanish",yes,2025-07-23_07h59.46.476,empathy_intonation_perc,2024.2.4,Win32,144.092219,654509bce930185adab23a1a,687ed1b7e638a4cbf2f02089,6880ce819b6e21ce2f292a9e,,,,,,,,,,,,,,1,,,,,,,,,,,,,,,,,,,,,,,,,,,,,,,,,,,,,,,,,,,,,,,,,,,,,,,,,31,pandilla,,,,,629.672,630.955,1,1,0.761,,0,46,46,30,1,REAL,FAKE,,,,,,,,,,,,,,,,,
,,,,,,,,,654509bce930185adab23a1a,"mexican, puerto rican",13 or older,"no, only English or Spanish",yes,2025-07-23_07h59.46.476,empathy_intonation_perc,2024.2.4,Win32,144.092219,654509bce930185adab23a1a,687ed1b7e638a4cbf2f02089,6880ce819b6e21ce2f292a9e,,,,,,,,,,,,,,1,,,,,,,,,,,,,,,,,,,,,,,,,,,,,,,,,,,,,,,,,,,,,,,,,,,,,,,,,64,orgulloso,,,,,630.956,632.254,0,0,0.779,,0,47,47,63,1,REAL,FAKE,,,,,,,,,,,,,,,,,
,,,,,,,,,654509bce930185adab23a1a,"mexican, puerto rican",13 or older,"no, only English or Spanish",yes,2025-07-23_07h59.46.476,empathy_intonation_perc,2024.2.4,Win32,144.092219,654509bce930185adab23a1a,687ed1b7e638a4cbf2f02089,6880ce819b6e21ce2f292a9e,,,,,,,,,,,,,,1,,,,,,,,,,,,,,,,,,,,,,,,,,,,,,,,,,,,,,,,,,,,,,,,,,,,,,,,,9,hacha,,,,,632.254,633.566,1,1,0.784,,0,48,48,8,1,REAL,FAKE,,,,,,,,,,,,,,,,,
,,,,,,,,,654509bce930185adab23a1a,"mexican, puerto rican",13 or older,"no, only English or Spanish",yes,2025-07-23_07h59.46.476,empathy_intonation_perc,2024.2.4,Win32,144.092219,654509bce930185adab23a1a,687ed1b7e638a4cbf2f02089,6880ce819b6e21ce2f292a9e,,,,,,,,,,,,,,1,,,,,,,,,,,,,,,,,,,,,,,,,,,,,,,,,,,,,,,,,,,,,,,,,,,,,,,,,37,granuja,,,,,633.567,634.712,0,0,0.628,,0,49,49,36,1,REAL,FAKE,,,,,,,,,,,,,,,,,
,,,,,,,,,654509bce930185adab23a1a,"mexican, puerto rican",13 or older,"no, only English or Spanish",yes,2025-07-23_07h59.46.476,empathy_intonation_perc,2024.2.4,Win32,144.092219,654509bce930185adab23a1a,687ed1b7e638a4cbf2f02089,6880ce819b6e21ce2f292a9e,,,,,,,,,,,,,,1,,,,,,,,,,,,,,,,,,,,,,,,,,,,,,,,,,,,,,,,,,,,,,,,,,,,,,,,,89,prisa,,,,,634.713,636.296,0,0,1.06,,0,50,50,88,1,REAL,FAKE,,,,,,,,,,,,,,,,,
,,,,,,,,,654509bce930185adab23a1a,"mexican, puerto rican",13 or older,"no, only English or Spanish",yes,2025-07-23_07h59.46.476,empathy_intonation_perc,2024.2.4,Win32,144.092219,654509bce930185adab23a1a,687ed1b7e638a4cbf2f02089,6880ce819b6e21ce2f292a9e,,,,,,,,,,,,,,1,,,,,,,,,,,,,,,,,,,,,,,,,,,,,,,,,,,,,,,,,,,,,,,,,,,,,,,,,44,cuchara,,,,,636.296,639.372,1,1,2.559,,0,51,51,43,1,REAL,FAKE,,,,,,,,,,,,,,,,,
,,,,,,,,,654509bce930185adab23a1a,"mexican, puerto rican",13 or older,"no, only English or Spanish",yes,2025-07-23_07h59.46.476,empathy_intonation_perc,2024.2.4,Win32,144.092219,654509bce930185adab23a1a,687ed1b7e638a4cbf2f02089,6880ce819b6e21ce2f292a9e,,,,,,,,,,,,,,1,,,,,,,,,,,,,,,,,,,,,,,,,,,,,,,,,,,,,,,,,,,,,,,,,,,,,,,,,24,látigo,,,,,639.373,640.629,1,1,0.747,,0,52,52,23,1,REAL,FAKE,,,,,,,,,,,,,,,,,
,,,,,,,,,654509bce930185adab23a1a,"mexican, puerto rican",13 or older,"no, only English or Spanish",yes,2025-07-23_07h59.46.476,empathy_intonation_perc,2024.2.4,Win32,144.092219,654509bce930185adab23a1a,687ed1b7e638a4cbf2f02089,6880ce819b6e21ce2f292a9e,,,,,,,,,,,,,,0,,,,,,,,,,,,,,,,,,,,,,,,,,,,,,,,,,,,,,,,,,,,,,,,,,,,,,,,,29,decar,,,,,640.63,642.059,0,1,0.914,,0,53,53,28,1,REAL,FAKE,,,,,,,,,,,,,,,,,
,,,,,,,,,654509bce930185adab23a1a,"mexican, puerto rican",13 or older,"no, only English or Spanish",yes,2025-07-23_07h59.46.476,empathy_intonation_perc,2024.2.4,Win32,144.092219,654509bce930185adab23a1a,687ed1b7e638a4cbf2f02089,6880ce819b6e21ce2f292a9e,,,,,,,,,,,,,,1,,,,,,,,,,,,,,,,,,,,,,,,,,,,,,,,,,,,,,,,,,,,,,,,,,,,,,,,,6,tergiversar,,,,,642.06,643.372,0,0,0.807,,0,54,54,5,1,REAL,FAKE,,,,,,,,,,,,,,,,,
,,,,,,,,,654509bce930185adab23a1a,"mexican, puerto rican",13 or older,"no, only English or Spanish",yes,2025-07-23_07h59.46.476,empathy_intonation_perc,2024.2.4,Win32,144.092219,654509bce930185adab23a1a,687ed1b7e638a4cbf2f02089,6880ce819b6e21ce2f292a9e,,,,,,,,,,,,,,0,,,,,,,,,,,,,,,,,,,,,,,,,,,,,,,,,,,,,,,,,,,,,,,,,,,,,,,,,16,abracer,,,,,643.373,644.768,0,1,0.88,,0,55,55,15,1,REAL,FAKE,,,,,,,,,,,,,,,,,
,,,,,,,,,654509bce930185adab23a1a,"mexican, puerto rican",13 or older,"no, only English or Spanish",yes,2025-07-23_07h59.46.476,empathy_intonation_perc,2024.2.4,Win32,144.092219,654509bce930185adab23a1a,687ed1b7e638a4cbf2f02089,6880ce819b6e21ce2f292a9e,,,,,,,,,,,,,,1,,,,,,,,,,,,,,,,,,,,,,,,,,,,,,,,,,,,,,,,,,,,,,,,,,,,,,,,,83,guante,,,,,644.769,646.212,1,1,0.938,,0,56,56,82,1,REAL,FAKE,,,,,,,,,,,,,,,,,
,,,,,,,,,654509bce930185adab23a1a,"mexican, puerto rican",13 or older,"no, only English or Spanish",yes,2025-07-23_07h59.46.476,empathy_intonation_perc,2024.2.4,Win32,144.092219,654509bce930185adab23a1a,687ed1b7e638a4cbf2f02089,6880ce819b6e21ce2f292a9e,,,,,,,,,,,,,,1,,,,,,,,,,,,,,,,,,,,,,,,,,,,,,,,,,,,,,,,,,,,,,,,,,,,,,,,,36,loro,,,,,646.213,648.373,0,0,1.633,,0,57,57,35,1,REAL,FAKE,,,,,,,,,,,,,,,,,
,,,,,,,,,654509bce930185adab23a1a,"mexican, puerto rican",13 or older,"no, only English or Spanish",yes,2025-07-23_07h59.46.476,empathy_intonation_perc,2024.2.4,Win32,144.092219,654509bce930185adab23a1a,687ed1b7e638a4cbf2f02089,6880ce819b6e21ce2f292a9e,,,,,,,,,,,,,,1,,,,,,,,,,,,,,,,,,,,,,,,,,,,,,,,,,,,,,,,,,,,,,,,,,,,,,,,,78,frondoso,,,,,648.373,649.685,0,0,0.784,,0,58,58,77,1,REAL,FAKE,,,,,,,,,,,,,,,,,
,,,,,,,,,654509bce930185adab23a1a,"mexican, puerto rican",13 or older,"no, only English or Spanish",yes,2025-07-23_07h59.46.476,empathy_intonation_perc,2024.2.4,Win32,144.092219,654509bce930185adab23a1a,687ed1b7e638a4cbf2f02089,6880ce819b6e21ce2f292a9e,,,,,,,,,,,,,,1,,,,,,,,,,,,,,,,,,,,,,,,,,,,,,,,,,,,,,,,,,,,,,,,,,,,,,,,,56,musgo,,,,,649.685,650.949,0,0,0.748,,0,59,59,55,1,REAL,FAKE,,,,,,,,,,,,,,,,,
,,,,,,,,,654509bce930185adab23a1a,"mexican, puerto rican",13 or older,"no, only English or Spanish",yes,2025-07-23_07h59.46.476,empathy_intonation_perc,2024.2.4,Win32,144.092219,654509bce930185adab23a1a,687ed1b7e638a4cbf2f02089,6880ce819b6e21ce2f292a9e,,,,,,,,,,,,,,1,,,,,,,,,,,,,,,,,,,,,,,,,,,,,,,,,,,,,,,,,,,,,,,,,,,,,,,,,26,secuestro,,,,,650.95,652.198,0,0,0.727,,0,60,60,25,1,REAL,FAKE,,,,,,,,,,,,,,,,,
,,,,,,,,,654509bce930185adab23a1a,"mexican, puerto rican",13 or older,"no, only English or Spanish",yes,2025-07-23_07h59.46.476,empathy_intonation_perc,2024.2.4,Win32,144.092219,654509bce930185adab23a1a,687ed1b7e638a4cbf2f02089,6880ce819b6e21ce2f292a9e,,,,,,,,,,,,,,1,,,,,,,,,,,,,,,,,,,,,,,,,,,,,,,,,,,,,,,,,,,,,,,,,,,,,,,,,61,seda,,,,,652.199,653.456,0,0,0.736,,0,61,61,60,1,REAL,FAKE,,,,,,,,,,,,,,,,,
,,,,,,,,,654509bce930185adab23a1a,"mexican, puerto rican",13 or older,"no, only English or Spanish",yes,2025-07-23_07h59.46.476,empathy_intonation_perc,2024.2.4,Win32,144.092219,654509bce930185adab23a1a,687ed1b7e638a4cbf2f02089,6880ce819b6e21ce2f292a9e,,,,,,,,,,,,,,1,,,,,,,,,,,,,,,,,,,,,,,,,,,,,,,,,,,,,,,,,,,,,,,,,,,,,,,,,68,alegre,,,,,653.457,655.504,1,1,1.531,,0,62,62,67,1,REAL,FAKE,,,,,,,,,,,,,,,,,
,,,,,,,,,654509bce930185adab23a1a,"mexican, puerto rican",13 or older,"no, only English or Spanish",yes,2025-07-23_07h59.46.476,empathy_intonation_perc,2024.2.4,Win32,144.092219,654509bce930185adab23a1a,687ed1b7e638a4cbf2f02089,6880ce819b6e21ce2f292a9e,,,,,,,,,,,,,,0,,,,,,,,,,,,,,,,,,,,,,,,,,,,,,,,,,,,,,,,,,,,,,,,,,,,,,,,,47,cartinar,,,,,655.505,657.053,0,1,1.04,,0,63,63,46,1,REAL,FAKE,,,,,,,,,,,,,,,,,
,,,,,,,,,654509bce930185adab23a1a,"mexican, puerto rican",13 or older,"no, only English or Spanish",yes,2025-07-23_07h59.46.476,empathy_intonation_perc,2024.2.4,Win32,144.092219,654509bce930185adab23a1a,687ed1b7e638a4cbf2f02089,6880ce819b6e21ce2f292a9e,,,,,,,,,,,,,,0,,,,,,,,,,,,,,,,,,,,,,,,,,,,,,,,,,,,,,,,,,,,,,,,,,,,,,,,,10,antar,,,,,657.054,658.352,0,1,0.78,,0,64,64,9,1,REAL,FAKE,,,,,,,,,,,,,,,,,
,,,,,,,,,654509bce930185adab23a1a,"mexican, puerto rican",13 or older,"no, only English or Spanish",yes,2025-07-23_07h59.46.476,empathy_intonation_perc,2024.2.4,Win32,144.092219,654509bce930185adab23a1a,687ed1b7e638a4cbf2f02089,6880ce819b6e21ce2f292a9e,,,,,,,,,,,,,,0,,,,,,,,,,,,,,,,,,,,,,,,,,,,,,,,,,,,,,,,,,,,,,,,,,,,,,,,,27,acutación,,,,,658.353,660.206,1,0,1.341,,0,65,65,26,1,REAL,FAKE,,,,,,,,,,,,,,,,,
,,,,,,,,,654509bce930185adab23a1a,"mexican, puerto rican",13 or older,"no, only English or Spanish",yes,2025-07-23_07h59.46.476,empathy_intonation_perc,2024.2.4,Win32,144.092219,654509bce930185adab23a1a,687ed1b7e638a4cbf2f02089,6880ce819b6e21ce2f292a9e,,,,,,,,,,,,,,0,,,,,,,,,,,,,,,,,,,,,,,,,,,,,,,,,,,,,,,,,,,,,,,,,,,,,,,,,35,rompido,,,,,660.206,662.171,0,1,1.443,,0,66,66,34,1,REAL,FAKE,,,,,,,,,,,,,,,,,
,,,,,,,,,654509bce930185adab23a1a,"mexican, puerto rican",13 or older,"no, only English or Spanish",yes,2025-07-23_07h59.46.476,empathy_intonation_perc,2024.2.4,Win32,144.092219,654509bce930185adab23a1a,687ed1b7e638a4cbf2f02089,6880ce819b6e21ce2f292a9e,,,,,,,,,,,,,,0,,,,,,,,,,,,,,,,,,,,,,,,,,,,,,,,,,,,,,,,,,,,,,,,,,,,,,,,,30,alardio,,,,,662.172,663.664,0,1,0.984,,0,67,67,29,1,REAL,FAKE,,,,,,,,,,,,,,,,,
,,,,,,,,,654509bce930185adab23a1a,"mexican, puerto rican",13 or older,"no, only English or Spanish",yes,2025-07-23_07h59.46.476,empathy_intonation_perc,2024.2.4,Win32,144.092219,654509bce930185adab23a1a,687ed1b7e638a4cbf2f02089,6880ce819b6e21ce2f292a9e,,,,,,,,,,,,,,1,,,,,,,,,,,,,,,,,,,,,,,,,,,,,,,,,,,,,,,,,,,,,,,,,,,,,,,,,45,jilguero,,,,,663.666,665.06,0,0,0.869,,0,68,68,44,1,REAL,FAKE,,,,,,,,,,,,,,,,,
,,,,,,,,,654509bce930185adab23a1a,"mexican, puerto rican",13 or older,"no, only English or Spanish",yes,2025-07-23_07h59.46.476,empathy_intonation_perc,2024.2.4,Win32,144.092219,654509bce930185adab23a1a,687ed1b7e638a4cbf2f02089,6880ce819b6e21ce2f292a9e,,,,,,,,,,,,,,0,,,,,,,,,,,,,,,,,,,,,,,,,,,,,,,,,,,,,,,,,,,,,,,,,,,,,,,,,53,vegada,,,,,665.061,666.727,0,1,1.161,,0,69,69,52,1,REAL,FAKE,,,,,,,,,,,,,,,,,
,,,,,,,,,654509bce930185adab23a1a,"mexican, puerto rican",13 or older,"no, only English or Spanish",yes,2025-07-23_07h59.46.476,empathy_intonation_perc,2024.2.4,Win32,144.092219,654509bce930185adab23a1a,687ed1b7e638a4cbf2f02089,6880ce819b6e21ce2f292a9e,,,,,,,,,,,,,,1,,,,,,,,,,,,,,,,,,,,,,,,,,,,,,,,,,,,,,,,,,,,,,,,,,,,,,,,,52,camisa,,,,,666.728,667.921,0,0,0.687,,0,70,70,51,1,REAL,FAKE,,,,,,,,,,,,,,,,,
,,,,,,,,,654509bce930185adab23a1a,"mexican, puerto rican",13 or older,"no, only English or Spanish",yes,2025-07-23_07h59.46.476,empathy_intonation_perc,2024.2.4,Win32,144.092219,654509bce930185adab23a1a,687ed1b7e638a4cbf2f02089,6880ce819b6e21ce2f292a9e,,,,,,,,,,,,,,0,,,,,,,,,,,,,,,,,,,,,,,,,,,,,,,,,,,,,,,,,,,,,,,,,,,,,,,,,92,click the 0 key.,,,,,667.922,669.921,0,1,1.48,,0,71,71,91,1,REAL,FAKE,,,,,,,,,,,,,,,,,
,,,,,,,,,654509bce930185adab23a1a,"mexican, puerto rican",13 or older,"no, only English or Spanish",yes,2025-07-23_07h59.46.476,empathy_intonation_perc,2024.2.4,Win32,144.092219,654509bce930185adab23a1a,687ed1b7e638a4cbf2f02089,6880ce819b6e21ce2f292a9e,,,,,,,,,,,,,,1,,,,,,,,,,,,,,,,,,,,,,,,,,,,,,,,,,,,,,,,,,,,,,,,,,,,,,,,,86,barato,,,,,669.922,671.741,0,0,1.299,,0,72,72,85,1,REAL,FAKE,,,,,,,,,,,,,,,,,
,,,,,,,,,654509bce930185adab23a1a,"mexican, puerto rican",13 or older,"no, only English or Spanish",yes,2025-07-23_07h59.46.476,empathy_intonation_perc,2024.2.4,Win32,144.092219,654509bce930185adab23a1a,687ed1b7e638a4cbf2f02089,6880ce819b6e21ce2f292a9e,,,,,,,,,,,,,,0,,,,,,,,,,,,,,,,,,,,,,,,,,,,,,,,,,,,,,,,,,,,,,,,,,,,,,,,,4,batillón,,,,,671.742,673.074,1,0,0.812,,0,73,73,3,1,REAL,FAKE,,,,,,,,,,,,,,,,,
,,,,,,,,,654509bce930185adab23a1a,"mexican, puerto rican",13 or older,"no, only English or Spanish",yes,2025-07-23_07h59.46.476,empathy_intonation_perc,2024.2.4,Win32,144.092219,654509bce930185adab23a1a,687ed1b7e638a4cbf2f02089,6880ce819b6e21ce2f292a9e,,,,,,,,,,,,,,1,,,,,,,,,,,,,,,,,,,,,,,,,,,,,,,,,,,,,,,,,,,,,,,,,,,,,,,,,55,nevar,,,,,673.075,674.672,0,0,1.08,,0,74,74,54,1,REAL,FAKE,,,,,,,,,,,,,,,,,
,,,,,,,,,654509bce930185adab23a1a,"mexican, puerto rican",13 or older,"no, only English or Spanish",yes,2025-07-23_07h59.46.476,empathy_intonation_perc,2024.2.4,Win32,144.092219,654509bce930185adab23a1a,687ed1b7e638a4cbf2f02089,6880ce819b6e21ce2f292a9e,,,,,,,,,,,,,,0,,,,,,,,,,,,,,,,,,,,,,,,,,,,,,,,,,,,,,,,,,,,,,,,,,,,,,,,,32,fatacidad,,,,,674.672,677.935,1,0,2.749,,0,75,75,31,1,REAL,FAKE,,,,,,,,,,,,,,,,,
,,,,,,,,,654509bce930185adab23a1a,"mexican, puerto rican",13 or older,"no, only English or Spanish",yes,2025-07-23_07h59.46.476,empathy_intonation_perc,2024.2.4,Win32,144.092219,654509bce930185adab23a1a,687ed1b7e638a4cbf2f02089,6880ce819b6e21ce2f292a9e,,,,,,,,,,,,,,1,,,,,,,,,,,,,,,,,,,,,,,,,,,,,,,,,,,,,,,,,,,,,,,,,,,,,,,,,71,polvoriento,,,,,677.936,679.484,0,0,1.034,,0,76,76,70,1,REAL,FAKE,,,,,,,,,,,,,,,,,
,,,,,,,,,654509bce930185adab23a1a,"mexican, puerto rican",13 or older,"no, only English or Spanish",yes,2025-07-23_07h59.46.476,empathy_intonation_perc,2024.2.4,Win32,144.092219,654509bce930185adab23a1a,687ed1b7e638a4cbf2f02089,6880ce819b6e21ce2f292a9e,,,,,,,,,,,,,,1,,,,,,,,,,,,,,,,,,,,,,,,,,,,,,,,,,,,,,,,,,,,,,,,,,,,,,,,,3,pulmones,,,,,679.485,680.929,0,0,0.922,,0,77,77,2,1,REAL,FAKE,,,,,,,,,,,,,,,,,
,,,,,,,,,654509bce930185adab23a1a,"mexican, puerto rican",13 or older,"no, only English or Spanish",yes,2025-07-23_07h59.46.476,empathy_intonation_perc,2024.2.4,Win32,144.092219,654509bce930185adab23a1a,687ed1b7e638a4cbf2f02089,6880ce819b6e21ce2f292a9e,,,,,,,,,,,,,,1,,,,,,,,,,,,,,,,,,,,,,,,,,,,,,,,,,,,,,,,,,,,,,,,,,,,,,,,,51,candado,,,,,680.929,682.491,0,0,1.032,,0,78,78,50,1,REAL,FAKE,,,,,,,,,,,,,,,,,
,,,,,,,,,654509bce930185adab23a1a,"mexican, puerto rican",13 or older,"no, only English or Spanish",yes,2025-07-23_07h59.46.476,empathy_intonation_perc,2024.2.4,Win32,144.092219,654509bce930185adab23a1a,687ed1b7e638a4cbf2f02089,6880ce819b6e21ce2f292a9e,,,,,,,,,,,,,,0,,,,,,,,,,,,,,,,,,,,,,,,,,,,,,,,,,,,,,,,,,,,,,,,,,,,,,,,,66,hacido,,,,,682.491,684.45,1,0,1.446,,0,79,79,65,1,REAL,FAKE,,,,,,,,,,,,,,,,,
,,,,,,,,,654509bce930185adab23a1a,"mexican, puerto rican",13 or older,"no, only English or Spanish",yes,2025-07-23_07h59.46.476,empathy_intonation_perc,2024.2.4,Win32,144.092219,654509bce930185adab23a1a,687ed1b7e638a4cbf2f02089,6880ce819b6e21ce2f292a9e,,,,,,,,,,,,,,1,,,,,,,,,,,,,,,,,,,,,,,,,,,,,,,,,,,,,,,,,,,,,,,,,,,,,,,,,59,besar,,,,,684.451,685.894,1,1,0.923,,0,80,80,58,1,REAL,FAKE,,,,,,,,,,,,,,,,,
,,,,,,,,,654509bce930185adab23a1a,"mexican, puerto rican",13 or older,"no, only English or Spanish",yes,2025-07-23_07h59.46.476,empathy_intonation_perc,2024.2.4,Win32,144.092219,654509bce930185adab23a1a,687ed1b7e638a4cbf2f02089,6880ce819b6e21ce2f292a9e,,,,,,,,,,,,,,1,,,,,,,,,,,,,,,,,,,,,,,,,,,,,,,,,,,,,,,,,,,,,,,,,,,,,,,,,34,aviso,,,,,685.894,687.047,0,0,0.633,,0,81,81,33,1,REAL,FAKE,,,,,,,,,,,,,,,,,
,,,,,,,,,654509bce930185adab23a1a,"mexican, puerto rican",13 or older,"no, only English or Spanish",yes,2025-07-23_07h59.46.476,empathy_intonation_perc,2024.2.4,Win32,144.092219,654509bce930185adab23a1a,687ed1b7e638a4cbf2f02089,6880ce819b6e21ce2f292a9e,,,,,,,,,,,,,,0,,,,,,,,,,,,,,,,,,,,,,,,,,,,,,,,,,,,,,,,,,,,,,,,,,,,,,,,,17,floroso,,,,,687.048,688.512,1,0,0.945,,0,82,82,16,1,REAL,FAKE,,,,,,,,,,,,,,,,,
,,,,,,,,,654509bce930185adab23a1a,"mexican, puerto rican",13 or older,"no, only English or Spanish",yes,2025-07-23_07h59.46.476,empathy_intonation_perc,2024.2.4,Win32,144.092219,654509bce930185adab23a1a,687ed1b7e638a4cbf2f02089,6880ce819b6e21ce2f292a9e,,,,,,,,,,,,,,0,,,,,,,,,,,,,,,,,,,,,,,,,,,,,,,,,,,,,,,,,,,,,,,,,,,,,,,,,87,grodo,,,,,688.513,689.852,0,1,0.821,,0,83,83,86,1,REAL,FAKE,,,,,,,,,,,,,,,,,
,,,,,,,,,654509bce930185adab23a1a,"mexican, puerto rican",13 or older,"no, only English or Spanish",yes,2025-07-23_07h59.46.476,empathy_intonation_perc,2024.2.4,Win32,144.092219,654509bce930185adab23a1a,687ed1b7e638a4cbf2f02089,6880ce819b6e21ce2f292a9e,,,,,,,,,,,,,,1,,,,,,,,,,,,,,,,,,,,,,,,,,,,,,,,,,,,,,,,,,,,,,,,,,,,,,,,,49,ganar,,,,,689.853,691.2,0,0,0.841,,0,84,84,48,1,REAL,FAKE,,,,,,,,,,,,,,,,,
,,,,,,,,,654509bce930185adab23a1a,"mexican, puerto rican",13 or older,"no, only English or Spanish",yes,2025-07-23_07h59.46.476,empathy_intonation_perc,2024.2.4,Win32,144.092219,654509bce930185adab23a1a,687ed1b7e638a4cbf2f02089,6880ce819b6e21ce2f292a9e,,,,,,,,,,,,,,1,,,,,,,,,,,,,,,,,,,,,,,,,,,,,,,,,,,,,,,,,,,,,,,,,,,,,,,,,88,acantilado,,,,,691.2,692.436,0,0,0.717,,0,85,85,87,1,REAL,FAKE,,,,,,,,,,,,,,,,,
,,,,,,,,,654509bce930185adab23a1a,"mexican, puerto rican",13 or older,"no, only English or Spanish",yes,2025-07-23_07h59.46.476,empathy_intonation_perc,2024.2.4,Win32,144.092219,654509bce930185adab23a1a,687ed1b7e638a4cbf2f02089,6880ce819b6e21ce2f292a9e,,,,,,,,,,,,,,0,,,,,,,,,,,,,,,,,,,,,,,,,,,,,,,,,,,,,,,,,,,,,,,,,,,,,,,,,58,plaudir,,,,,692.436,693.644,0,1,0.69,,0,86,86,57,1,REAL,FAKE,,,,,,,,,,,,,,,,,
,,,,,,,,,654509bce930185adab23a1a,"mexican, puerto rican",13 or older,"no, only English or Spanish",yes,2025-07-23_07h59.46.476,empathy_intonation_perc,2024.2.4,Win32,144.092219,654509bce930185adab23a1a,687ed1b7e638a4cbf2f02089,6880ce819b6e21ce2f292a9e,,,,,,,,,,,,,,1,,,,,,,,,,,,,,,,,,,,,,,,,,,,,,,,,,,,,,,,,,,,,,,,,,,,,,,,,14,yunque,,,,,693.644,695.04,0,0,0.885,,0,87,87,13,1,REAL,FAKE,,,,,,,,,,,,,,,,,
,,,,,,,,,654509bce930185adab23a1a,"mexican, puerto rican",13 or older,"no, only English or Spanish",yes,2025-07-23_07h59.46.476,empathy_intonation_perc,2024.2.4,Win32,144.092219,654509bce930185adab23a1a,687ed1b7e638a4cbf2f02089,6880ce819b6e21ce2f292a9e,,,,,,,,,,,,,,1,,,,,,,,,,,,,,,,,,,,,,,,,,,,,,,,,,,,,,,,,,,,,,,,,,,,,,,,,15,regar,,,,,695.041,696.256,0,0,0.696,,0,88,88,14,1,REAL,FAKE,,,,,,,,,,,,,,,,,
,,,,,,,,,654509bce930185adab23a1a,"mexican, puerto rican",13 or older,"no, only English or Spanish",yes,2025-07-23_07h59.46.476,empathy_intonation_perc,2024.2.4,Win32,144.092219,654509bce930185adab23a1a,687ed1b7e638a4cbf2f02089,6880ce819b6e21ce2f292a9e,,,,,,,,,,,,,,1,,,,,,,,,,,,,,,,,,,,,,,,,,,,,,,,,,,,,,,,,,,,,,,,,,,,,,,,,38,estornudar,,,,,696.256,699.471,0,0,2.692,,0,89,89,37,1,REAL,FAKE,,,,,,,,,,,,,,,,,
,,,,,,,,,654509bce930185adab23a1a,"mexican, puerto rican",13 or older,"no, only English or Spanish",yes,2025-07-23_07h59.46.476,empathy_intonation_perc,2024.2.4,Win32,144.092219,654509bce930185adab23a1a,687ed1b7e638a4cbf2f02089,6880ce819b6e21ce2f292a9e,,,,,,,,,,,,,,1,,,,,,,,,,,,,,,,,,,,,,,,,,,,,,,,,,,,,,,,,,,,,,,,,,,,,,,,,39,torpe,,,,,699.473,700.964,0,0,0.963,,0,90,90,38,1,REAL,FAKE,,,,,,,,,,,,,,,,,
,,,,,,,,,654509bce930185adab23a1a,"mexican, puerto rican",13 or older,"no, only English or Spanish",yes,2025-07-23_07h59.46.476,empathy_intonation_perc,2024.2.4,Win32,144.092219,654509bce930185adab23a1a,687ed1b7e638a4cbf2f02089,6880ce819b6e21ce2f292a9e,,,,,,,,,,,,,,0,,,,,,,,,,,,,,,,,,,,,,,,,,,,,,,,,,,,,,,,,,,,,,,,,,,,,,,,,1,terzo,,,,,700.965,702.291,0,1,0.813,,0,91,91,0,1,REAL,FAKE,,,,,,,,,,,,,,,,,
,,,,,,,,,654509bce930185adab23a1a,"mexican, puerto rican",13 or older,"no, only English or Spanish",yes,2025-07-23_07h59.46.476,empathy_intonation_perc,2024.2.4,Win32,144.092219,654509bce930185adab23a1a,687ed1b7e638a4cbf2f02089,6880ce819b6e21ce2f292a9e,,,,,,,,,,,,,,,,,,,,,,,,,,,,,,,,,,,,,,,,,,,,,,,,,,,,,,,,,,,,,,,,,,,,,,,,,,,,,,,,,,,,,,,,,,702.291,707.68,,,,,,,,,,,,,,,
,,,,,,,,,654509bce930185adab23a1a,"mexican, puerto rican",13 or older,"no, only English or Spanish",yes,2025-07-23_07h59.46.476,empathy_intonation_perc,2024.2.4,Win32,144.092219,654509bce930185adab23a1a,687ed1b7e638a4cbf2f02089,6880ce819b6e21ce2f292a9e,,,,,,,,,,,,,1,,,,,,,,,,,,,,,,,,,,,,,,,,,,,,,,,,,,,,,,,,,,,,,,,,,,,,,,,,,,,,,,,,,,,,,,,,,,,,,707.686,713.152,strongly agree,0,0,0,0,1,I can easily tell if someone else wants to enter a conversation.,1,0,1,0,,
,,,,,,,,,654509bce930185adab23a1a,"mexican, puerto rican",13 or older,"no, only English or Spanish",yes,2025-07-23_07h59.46.476,empathy_intonation_perc,2024.2.4,Win32,144.092219,654509bce930185adab23a1a,687ed1b7e638a4cbf2f02089,6880ce819b6e21ce2f292a9e,,,,,,,,,,,,,2,,,,,,,,,,,,,,,,,,,,,,,,,,,,,,,,,,,,,,,,,,,,,,,,,,,,,,,,,,,,,,,,,,,,,,,,,,,,,,,713.153,715.874,slightly disagree,0,1,1,1,1,I prefer animals to humans.,0,1,0,0,,
,,,,,,,,,654509bce930185adab23a1a,"mexican, puerto rican",13 or older,"no, only English or Spanish",yes,2025-07-23_07h59.46.476,empathy_intonation_perc,2024.2.4,Win32,144.092219,654509bce930185adab23a1a,687ed1b7e638a4cbf2f02089,6880ce819b6e21ce2f292a9e,,,,,,,,,,,,,3,,,,,,,,,,,,,,,,,,,,,,,,,,,,,,,,,,,,,,,,,,,,,,,,,,,,,,,,,,,,,,,,,,,,,,,,,,,,,,,715.875,718.541,slightly disagree,0,2,2,2,1,I try to keep up with the current trends and fashions.,0,1,0,0,,
