instructions_exposure.started,instructions_exposure.stopped,instructions_exposure_loop.thisRepN,instructions_exposure_loop.thisTrialN,instructions_exposure_loop.thisN,instructions_exposure_loop.thisIndex,instructions_exposure_loop.ran,instructions_text,continue_text,participant_id,"What variety of Spanish are you most familiar with? (e.g., Peruvian, Spanish, Mexican)",At what age did you begin learning Spanish?,Are you proficient in any languages other than English/Spanish?,"Are you familiar with Caribbean (e.g., Caribbean, Puerto Rican) or Galician Spanish?",date,expName,psychopyVersion,OS,frameRate,id,study_id,session,trial_exposure.started,trial_exposure.stopped,key_resp_exposure.keys,key_resp_exposure.corr,key_resp_exposure.rt,key_resp_exposure.duration,key_resp.keys,exposure_loop.thisRepN,exposure_loop.thisTrialN,exposure_loop.thisN,exposure_loop.thisIndex,exposure_loop.ran,item_num,correct_response,question,path,duration,instructions_2afc.started,instructions_2afc.stopped,instructions_2afc_loop.thisRepN,instructions_2afc_loop.thisTrialN,instructions_2afc_loop.thisN,instructions_2afc_loop.thisIndex,instructions_2afc_loop.ran,practice_2afc.started,practice_2afc.stopped,key_resp_2afc_practice.keys,key_resp_2afc_practice.corr,key_resp_2afc_practice.rt,key_resp_2afc_practice.duration,trials_2afc_practice_loop.thisRepN,trials_2afc_practice_loop.thisTrialN,trials_2afc_practice_loop.thisN,trials_2afc_practice_loop.thisIndex,trials_2afc_practice_loop.ran,check_2afc.started,check_2afc.stopped,trial_2afc.started,trial_2afc.stopped,key_resp_2afc_trial.keys,key_resp_2afc_trial.corr,key_resp_2afc_trial.rt,key_resp_2afc_trial.duration,trials_2afc_loop.thisRepN,trials_2afc_loop.thisTrialN,trials_2afc_loop.thisN,trials_2afc_loop.thisIndex,trials_2afc_loop.ran,target,variety,instructions_lextale.started,instructions_lextale.stopped,instructions_lextale_loop.thisRepN,instructions_lextale_loop.thisTrialN,instructions_lextale_loop.thisN,instructions_lextale_loop.thisIndex,instructions_lextale_loop.ran,practice_lextale.started,practice_lextale.stopped,key_resp_lextale_practice.keys,key_resp_lextale_practice.corr,key_resp_lextale_practice.rt,key_resp_lextale_practice.duration,practice_feedback_lextale.started,practice_feedback_lextale.stopped,trials_lextale_practice_loop.thisRepN,trials_lextale_practice_loop.thisTrialN,trials_lextale_practice_loop.thisN,trials_lextale_practice_loop.thisIndex,trials_lextale_practice_loop.ran,stim,word,prac_button_real,prac_button_false,check_lextale.started,check_lextale.stopped,trial_lextale.started,trial_lextale.stopped,key_resp_lextale_trial.keys,key_resp_lextale_trial.corr,key_resp_lextale_trial.rt,key_resp_lextale_trial.duration,trials_lextale_loop.thisRepN,trials_lextale_loop.thisTrialN,trials_lextale_loop.thisN,trials_lextale_loop.thisIndex,trials_lextale_loop.ran,button_real,button_false,instructions_eq.started,instructions_eq.stopped,trial_eq.started,trial_eq.stopped,slider_eq_trial.response,trials_eq_loop.thisRepN,trials_eq_loop.thisTrialN,trials_eq_loop.thisN,trials_eq_loop.thisIndex,trials_eq_loop.ran,item,is_test_item,is_distractor,is_agree_score,is_disagree_score,end_exp.started,end_exp.stopped
0.0085,2.0274,0,0,0,0,1,"In the following task, you are going to hear a series of conversations.", (press the space bar to continue),65486ad91a5493d24f94d4d1,spanish,13 or older,"no, only English or Spanish",no,2025-08-13_17h51.17.160,empathy_intonation_perc,2024.2.4,Win32,166.6666667,65486ad91a5493d24f94d4d1,687ed1b7e638a4cbf2f02089,689d08b173b601b7851ce595,,,,,,,,,,,,,,,,,,,,,,,,,,,,,,,,,,,,,,,,,,,,,,,,,,,,,,,,,,,,,,,,,,,,,,,,,,,,,,,,,,,,,,,,,,,,,,,,,,,,,,,,,,
2.0277,3.1182,0,1,1,1,1,It is okay if you don't not 100% understand them!, (press the space bar to continue),65486ad91a5493d24f94d4d1,spanish,13 or older,"no, only English or Spanish",no,2025-08-13_17h51.17.160,empathy_intonation_perc,2024.2.4,Win32,166.6666667,65486ad91a5493d24f94d4d1,687ed1b7e638a4cbf2f02089,689d08b173b601b7851ce595,,,,,,,,,,,,,,,,,,,,,,,,,,,,,,,,,,,,,,,,,,,,,,,,,,,,,,,,,,,,,,,,,,,,,,,,,,,,,,,,,,,,,,,,,,,,,,,,,,,,,,,,,,
3.1192,5.8374,0,2,2,2,1,"After, you will read a sentence about the conversation and decide if it's true or false.", (press the space bar to continue),65486ad91a5493d24f94d4d1,spanish,13 or older,"no, only English or Spanish",no,2025-08-13_17h51.17.160,empathy_intonation_perc,2024.2.4,Win32,166.6666667,65486ad91a5493d24f94d4d1,687ed1b7e638a4cbf2f02089,689d08b173b601b7851ce595,,,,,,,,,,,,,,,,,,,,,,,,,,,,,,,,,,,,,,,,,,,,,,,,,,,,,,,,,,,,,,,,,,,,,,,,,,,,,,,,,,,,,,,,,,,,,,,,,,,,,,,,,,
5.8382,9.383,0,3,3,3,1,"If it's true, press '1' (True) and if it's false press '0' (False).", (press the space bar to continue),65486ad91a5493d24f94d4d1,spanish,13 or older,"no, only English or Spanish",no,2025-08-13_17h51.17.160,empathy_intonation_perc,2024.2.4,Win32,166.6666667,65486ad91a5493d24f94d4d1,687ed1b7e638a4cbf2f02089,689d08b173b601b7851ce595,,,,,,,,,,,,,,,,,,,,,,,,,,,,,,,,,,,,,,,,,,,,,,,,,,,,,,,,,,,,,,,,,,,,,,,,,,,,,,,,,,,,,,,,,,,,,,,,,,,,,,,,,,
,,,,,,,,,65486ad91a5493d24f94d4d1,spanish,13 or older,"no, only English or Spanish",no,2025-08-13_17h51.17.160,empathy_intonation_perc,2024.2.4,Win32,166.6666667,65486ad91a5493d24f94d4d1,687ed1b7e638a4cbf2f02089,689d08b173b601b7851ce595,9.3866,60.9905,1,1,4.5821,,,0,0,0,0,1,1,1,The son asked the mom if Aunt Marina is okay.,./stim/exposure_wavs/ga_stimuli_convo.wav,47,,,,,,,,,,,,,,,,,,,,,,,,,,,,,,,,,,,,,,,,,,,,,,,,,,,,,,,,,,,,,,,,,,,,,,,,,,,,,,,,,,,,,,,,,
,,,,,,,,,65486ad91a5493d24f94d4d1,spanish,13 or older,"no, only English or Spanish",no,2025-08-13_17h51.17.160,empathy_intonation_perc,2024.2.4,Win32,166.6666667,65486ad91a5493d24f94d4d1,687ed1b7e638a4cbf2f02089,689d08b173b601b7851ce595,60.9914,100.2764,0,1,3.2794,,,0,1,1,2,1,3,0,The mom already has rice.,./stim/exposure_wavs/pr_stimuli_convo.wav,36,,,,,,,,,,,,,,,,,,,,,,,,,,,,,,,,,,,,,,,,,,,,,,,,,,,,,,,,,,,,,,,,,,,,,,,,,,,,,,,,,,,,,,,,,
,,,,,,,,,65486ad91a5493d24f94d4d1,spanish,13 or older,"no, only English or Spanish",no,2025-08-13_17h51.17.160,empathy_intonation_perc,2024.2.4,Win32,166.6666667,65486ad91a5493d24f94d4d1,687ed1b7e638a4cbf2f02089,689d08b173b601b7851ce595,100.2776,167.1693,0,0,6.8881,,,0,2,2,1,1,2,1,The mom asked the daughter if she already went to the supermarket.,./stim/exposure_wavs/dr_stimuli_convo.wav,60,,,,,,,,,,,,,,,,,,,,,,,,,,,,,,,,,,,,,,,,,,,,,,,,,,,,,,,,,,,,,,,,,,,,,,,,,,,,,,,,,,,,,,,,,
,,,,,,,"In the following task you are going to hear a series of utterances. 

  You will decide if the utterances sound like questions or not using your keyboard.", (press the spacebar to continue),65486ad91a5493d24f94d4d1,spanish,13 or older,"no, only English or Spanish",no,2025-08-13_17h51.17.160,empathy_intonation_perc,2024.2.4,Win32,166.6666667,65486ad91a5493d24f94d4d1,687ed1b7e638a4cbf2f02089,689d08b173b601b7851ce595,,,,,,,,,,,,,,,,,,167.1717,172.0178,0,0,0,0,1,,,,,,,,,,,,,,,,,,,,,,,,,,,,,,,,,,,,,,,,,,,,,,,,,,,,,,,,,,,,,,,,,,,,,,,,,,,,,,,,,,
,,,,,,,"If you believe the utterance is a question, type '1' (for 'yes') and if you do not 
  believe it is a question type '0' (for 'no').

  Let's practice a bit...", (press the spacebar to continue),65486ad91a5493d24f94d4d1,spanish,13 or older,"no, only English or Spanish",no,2025-08-13_17h51.17.160,empathy_intonation_perc,2024.2.4,Win32,166.6666667,65486ad91a5493d24f94d4d1,687ed1b7e638a4cbf2f02089,689d08b173b601b7851ce595,,,,,,,,,,,,,,,,,,172.0186,173.8663,0,1,1,1,1,,,,,,,,,,,,,,,,,,,,,,,,,,,,,,,,,,,,,,,,,,,,,,,,,,,,,,,,,,,,,,,,,,,,,,,,,,,,,,,,,,
,,,,,,,,,65486ad91a5493d24f94d4d1,spanish,13 or older,"no, only English or Spanish",no,2025-08-13_17h51.17.160,empathy_intonation_perc,2024.2.4,Win32,166.6666667,65486ad91a5493d24f94d4d1,687ed1b7e638a4cbf2f02089,689d08b173b601b7851ce595,,,,,,,,,,,,,,1,,./stim/wavs/castilian_question_filler_Mi-esposo-conoce-al-chico.wav,,,,,,,,,173.8697,176.5695,1,1,2.1928,,0,0,0,0,1,,,,,,,,,,,,,,,,,,,,,,,,,,,,,,,,,,,,,,,,,,,,,,,,,,,,,,,,,,,,,,,,,,,,,,,
,,,,,,,,,65486ad91a5493d24f94d4d1,spanish,13 or older,"no, only English or Spanish",no,2025-08-13_17h51.17.160,empathy_intonation_perc,2024.2.4,Win32,166.6666667,65486ad91a5493d24f94d4d1,687ed1b7e638a4cbf2f02089,689d08b173b601b7851ce595,,,,,,,,,,,,,,1,,./stim/wavs/argentine_question_filler_Mi-vecino-habla-mucho.wav,,,,,,,,,176.5698,179.3149,1,1,2.24,,0,1,1,1,1,,,,,,,,,,,,,,,,,,,,,,,,,,,,,,,,,,,,,,,,,,,,,,,,,,,,,,,,,,,,,,,,,,,,,,,
,,,,,,,,,65486ad91a5493d24f94d4d1,spanish,13 or older,"no, only English or Spanish",no,2025-08-13_17h51.17.160,empathy_intonation_perc,2024.2.4,Win32,166.6666667,65486ad91a5493d24f94d4d1,687ed1b7e638a4cbf2f02089,689d08b173b601b7851ce595,,,,,,,,,,,,,,0,,./stim/wavs/puertorican_statement_filler_La-nina-pinta-con-su-amiga.wav,,,,,,,,,179.3151,181.6908,0,1,1.8703,,0,2,2,7,1,,,,,,,,,,,,,,,,,,,,,,,,,,,,,,,,,,,,,,,,,,,,,,,,,,,,,,,,,,,,,,,,,,,,,,,
,,,,,,,,,65486ad91a5493d24f94d4d1,spanish,13 or older,"no, only English or Spanish",no,2025-08-13_17h51.17.160,empathy_intonation_perc,2024.2.4,Win32,166.6666667,65486ad91a5493d24f94d4d1,687ed1b7e638a4cbf2f02089,689d08b173b601b7851ce595,,,,,,,,,,,,,,0,,./stim/wavs/andalusian_statement_filler_Alberto-nunca-se-afeita.wav,,,,,,,,,181.691,183.8545,0,1,1.6548,,0,3,3,5,1,,,,,,,,,,,,,,,,,,,,,,,,,,,,,,,,,,,,,,,,,,,,,,,,,,,,,,,,,,,,,,,,,,,,,,,
,,,,,,,,,65486ad91a5493d24f94d4d1,spanish,13 or older,"no, only English or Spanish",no,2025-08-13_17h51.17.160,empathy_intonation_perc,2024.2.4,Win32,166.6666667,65486ad91a5493d24f94d4d1,687ed1b7e638a4cbf2f02089,689d08b173b601b7851ce595,,,,,,,,,,,,,,0,,./stim/wavs/cuban_statement_filler_Cocinabas-por-la-noche.wav,,,,,,,,,183.8547,186.2364,0,1,1.8747,,0,4,4,4,1,,,,,,,,,,,,,,,,,,,,,,,,,,,,,,,,,,,,,,,,,,,,,,,,,,,,,,,,,,,,,,,,,,,,,,,
,,,,,,,,,65486ad91a5493d24f94d4d1,spanish,13 or older,"no, only English or Spanish",no,2025-08-13_17h51.17.160,empathy_intonation_perc,2024.2.4,Win32,166.6666667,65486ad91a5493d24f94d4d1,687ed1b7e638a4cbf2f02089,689d08b173b601b7851ce595,,,,,,,,,,,,,,1,,./stim/wavs/mexican_question_filler_Felipe-no-tiene-contrasena.wav,,,,,,,,,186.2366,188.6061,1,1,1.8609,,0,5,5,3,1,,,,,,,,,,,,,,,,,,,,,,,,,,,,,,,,,,,,,,,,,,,,,,,,,,,,,,,,,,,,,,,,,,,,,,,
,,,,,,,,,65486ad91a5493d24f94d4d1,spanish,13 or older,"no, only English or Spanish",no,2025-08-13_17h51.17.160,empathy_intonation_perc,2024.2.4,Win32,166.6666667,65486ad91a5493d24f94d4d1,687ed1b7e638a4cbf2f02089,689d08b173b601b7851ce595,,,,,,,,,,,,,,1,,./stim/wavs/chilean_question_filler_Mi-padre-cantaba-bien.wav,,,,,,,,,188.6063,192.9214,1,1,3.8113,,0,6,6,2,1,,,,,,,,,,,,,,,,,,,,,,,,,,,,,,,,,,,,,,,,,,,,,,,,,,,,,,,,,,,,,,,,,,,,,,,
,,,,,,,,,65486ad91a5493d24f94d4d1,spanish,13 or older,"no, only English or Spanish",no,2025-08-13_17h51.17.160,empathy_intonation_perc,2024.2.4,Win32,166.6666667,65486ad91a5493d24f94d4d1,687ed1b7e638a4cbf2f02089,689d08b173b601b7851ce595,,,,,,,,,,,,,,0,,./stim/wavs/peruvian_statement_filler_El-nino-habla-con-su-madre.wav,,,,,,,,,192.9216,195.6669,0,1,2.2398,,0,7,7,6,1,,,,,,,,,,,,,,,,,,,,,,,,,,,,,,,,,,,,,,,,,,,,,,,,,,,,,,,,,,,,,,,,,,,,,,,
,,,,,,,,,65486ad91a5493d24f94d4d1,spanish,13 or older,"no, only English or Spanish",no,2025-08-13_17h51.17.160,empathy_intonation_perc,2024.2.4,Win32,166.6666667,65486ad91a5493d24f94d4d1,687ed1b7e638a4cbf2f02089,689d08b173b601b7851ce595,,,,,,,,,,,,,,,,,,,,,,,,,,,,,,,,,,,,195.6671,197.1701,,,,,,,,,,,,,,,,,,,,,,,,,,,,,,,,,,,,,,,,,,,,,,,,,,,,,,,,,,,,,,,,,,,,,
,,,,,,,,,65486ad91a5493d24f94d4d1,spanish,13 or older,"no, only English or Spanish",no,2025-08-13_17h51.17.160,empathy_intonation_perc,2024.2.4,Win32,166.6666667,65486ad91a5493d24f94d4d1,687ed1b7e638a4cbf2f02089,689d08b173b601b7851ce595,,,,,,,,,,,,,37,1,,./stim/wavs/mexican_mismatch_interrogative-total-yn_La-maestra-vive-en-Paris.wav,,,,,,,,,,,,,,,,,,,,,,197.1776,199.461,1,1,1.777,,0,0,0,36,1,0,mexican,,,,,,,,,,,,,,,,,,,,,,,,,,,,,,,,,,,,,,,,,,,,,,,,,,,,,,,,
,,,,,,,,,65486ad91a5493d24f94d4d1,spanish,13 or older,"no, only English or Spanish",no,2025-08-13_17h51.17.160,empathy_intonation_perc,2024.2.4,Win32,166.6666667,65486ad91a5493d24f94d4d1,687ed1b7e638a4cbf2f02089,689d08b173b601b7851ce595,,,,,,,,,,,,,71,0,,./stim/wavs/castilian_mismatch_declarative-broad-focus_La-nina-lava-el-plato.wav,,,,,,,,,,,,,,,,,,,,,,199.4613,201.8671,0,1,1.9004,,0,1,1,70,1,0,castilian,,,,,,,,,,,,,,,,,,,,,,,,,,,,,,,,,,,,,,,,,,,,,,,,,,,,,,,,
,,,,,,,,,65486ad91a5493d24f94d4d1,spanish,13 or older,"no, only English or Spanish",no,2025-08-13_17h51.17.160,empathy_intonation_perc,2024.2.4,Win32,166.6666667,65486ad91a5493d24f94d4d1,687ed1b7e638a4cbf2f02089,689d08b173b601b7851ce595,,,,,,,,,,,,,9,1,,./stim/wavs/cuban_match_interrogative-total-yn_Manuela-vende-el-carro.wav,,,,,,,,,,,,,,,,,,,,,,201.8673,203.9217,1,1,1.5504,,0,2,2,8,1,1,cuban,,,,,,,,,,,,,,,,,,,,,,,,,,,,,,,,,,,,,,,,,,,,,,,,,,,,,,,,
,,,,,,,,,65486ad91a5493d24f94d4d1,spanish,13 or older,"no, only English or Spanish",no,2025-08-13_17h51.17.160,empathy_intonation_perc,2024.2.4,Win32,166.6666667,65486ad91a5493d24f94d4d1,687ed1b7e638a4cbf2f02089,689d08b173b601b7851ce595,,,,,,,,,,,,,70,0,,./stim/wavs/castilian_mismatch_declarative-broad-focus_La-maestra-vive-en-Paris.wav,,,,,,,,,,,,,,,,,,,,,,203.9219,206.1945,0,1,1.7675,,0,3,3,69,1,0,castilian,,,,,,,,,,,,,,,,,,,,,,,,,,,,,,,,,,,,,,,,,,,,,,,,,,,,,,,,
,,,,,,,,,65486ad91a5493d24f94d4d1,spanish,13 or older,"no, only English or Spanish",no,2025-08-13_17h51.17.160,empathy_intonation_perc,2024.2.4,Win32,166.6666667,65486ad91a5493d24f94d4d1,687ed1b7e638a4cbf2f02089,689d08b173b601b7851ce595,,,,,,,,,,,,,31,1,,./stim/wavs/cuban_mismatch_interrogative-total-yn_El-nino-oye-el-rio.wav,,,,,,,,,,,,,,,,,,,,,,206.1947,208.0854,0,0,1.3828,,0,4,4,30,1,1,cuban,,,,,,,,,,,,,,,,,,,,,,,,,,,,,,,,,,,,,,,,,,,,,,,,,,,,,,,,
,,,,,,,,,65486ad91a5493d24f94d4d1,spanish,13 or older,"no, only English or Spanish",no,2025-08-13_17h51.17.160,empathy_intonation_perc,2024.2.4,Win32,166.6666667,65486ad91a5493d24f94d4d1,687ed1b7e638a4cbf2f02089,689d08b173b601b7851ce595,,,,,,,,,,,,,2,1,,./stim/wavs/castilian_match_interrogative-total-yn_Emilio-ama-la-marcha.wav,,,,,,,,,,,,,,,,,,,,,,208.0856,210.7886,1,1,2.1956,,0,5,5,1,1,0,castilian,,,,,,,,,,,,,,,,,,,,,,,,,,,,,,,,,,,,,,,,,,,,,,,,,,,,,,,,
,,,,,,,,,65486ad91a5493d24f94d4d1,spanish,13 or older,"no, only English or Spanish",no,2025-08-13_17h51.17.160,empathy_intonation_perc,2024.2.4,Win32,166.6666667,65486ad91a5493d24f94d4d1,687ed1b7e638a4cbf2f02089,689d08b173b601b7851ce595,,,,,,,,,,,,,62,0,,./stim/wavs/mexican_match_declarative-broad-focus_Marta-abre-el-regalo.wav,,,,,,,,,,,,,,,,,,,,,,210.7888,213.1401,0,1,1.8447,,0,6,6,61,1,0,mexican,,,,,,,,,,,,,,,,,,,,,,,,,,,,,,,,,,,,,,,,,,,,,,,,,,,,,,,,
,,,,,,,,,65486ad91a5493d24f94d4d1,spanish,13 or older,"no, only English or Spanish",no,2025-08-13_17h51.17.160,empathy_intonation_perc,2024.2.4,Win32,166.6666667,65486ad91a5493d24f94d4d1,687ed1b7e638a4cbf2f02089,689d08b173b601b7851ce595,,,,,,,,,,,,,14,1,,./stim/wavs/mexican_match_interrogative-total-yn_Daniel-iba-a-Bolivia.wav,,,,,,,,,,,,,,,,,,,,,,213.1404,215.4978,1,1,1.8531,,0,7,7,13,1,0,mexican,,,,,,,,,,,,,,,,,,,,,,,,,,,,,,,,,,,,,,,,,,,,,,,,,,,,,,,,
,,,,,,,,,65486ad91a5493d24f94d4d1,spanish,13 or older,"no, only English or Spanish",no,2025-08-13_17h51.17.160,empathy_intonation_perc,2024.2.4,Win32,166.6666667,65486ad91a5493d24f94d4d1,687ed1b7e638a4cbf2f02089,689d08b173b601b7851ce595,,,,,,,,,,,,,10,1,,./stim/wavs/cuban_match_interrogative-total-yn_Maria-bebe-el-vino.wav,,,,,,,,,,,,,,,,,,,,,,215.4979,219.1161,0,0,3.1115,,0,8,8,9,1,1,cuban,,,,,,,,,,,,,,,,,,,,,,,,,,,,,,,,,,,,,,,,,,,,,,,,,,,,,,,,
,,,,,,,,,65486ad91a5493d24f94d4d1,spanish,13 or older,"no, only English or Spanish",no,2025-08-13_17h51.17.160,empathy_intonation_perc,2024.2.4,Win32,166.6666667,65486ad91a5493d24f94d4d1,687ed1b7e638a4cbf2f02089,689d08b173b601b7851ce595,,,,,,,,,,,,,11,1,,./stim/wavs/cuban_match_interrogative-total-yn_Mariano-habla-del-tiempo.wav,,,,,,,,,,,,,,,,,,,,,,219.1163,221.6919,0,0,2.0692,,0,9,9,10,1,1,cuban,,,,,,,,,,,,,,,,,,,,,,,,,,,,,,,,,,,,,,,,,,,,,,,,,,,,,,,,
,,,,,,,,,65486ad91a5493d24f94d4d1,spanish,13 or older,"no, only English or Spanish",no,2025-08-13_17h51.17.160,empathy_intonation_perc,2024.2.4,Win32,166.6666667,65486ad91a5493d24f94d4d1,687ed1b7e638a4cbf2f02089,689d08b173b601b7851ce595,,,,,,,,,,,,,18,1,,./stim/wavs/mexican_match_interrogative-total-yn_Marta-abre-el-regalo.wav,,,,,,,,,,,,,,,,,,,,,,221.6922,223.6193,1,1,1.4213,,0,10,10,17,1,0,mexican,,,,,,,,,,,,,,,,,,,,,,,,,,,,,,,,,,,,,,,,,,,,,,,,,,,,,,,,
,,,,,,,,,65486ad91a5493d24f94d4d1,spanish,13 or older,"no, only English or Spanish",no,2025-08-13_17h51.17.160,empathy_intonation_perc,2024.2.4,Win32,166.6666667,65486ad91a5493d24f94d4d1,687ed1b7e638a4cbf2f02089,689d08b173b601b7851ce595,,,,,,,,,,,,,81,0,,./stim/wavs/mexican_mismatch_declarative-broad-focus_La-maestra-vive-en-Paris.wav,,,,,,,,,,,,,,,,,,,,,,223.6195,226.0133,0,1,1.8861,,0,11,11,80,1,0,mexican,,,,,,,,,,,,,,,,,,,,,,,,,,,,,,,,,,,,,,,,,,,,,,,,,,,,,,,,
,,,,,,,,,65486ad91a5493d24f94d4d1,spanish,13 or older,"no, only English or Spanish",no,2025-08-13_17h51.17.160,empathy_intonation_perc,2024.2.4,Win32,166.6666667,65486ad91a5493d24f94d4d1,687ed1b7e638a4cbf2f02089,689d08b173b601b7851ce595,,,,,,,,,,,,,54,0,,./stim/wavs/cuban_match_declarative-broad-focus_Maria-bebe-el-vino.wav,,,,,,,,,,,,,,,,,,,,,,226.0135,228.2981,0,1,1.78,,0,12,12,53,1,0,cuban,,,,,,,,,,,,,,,,,,,,,,,,,,,,,,,,,,,,,,,,,,,,,,,,,,,,,,,,
,,,,,,,,,65486ad91a5493d24f94d4d1,spanish,13 or older,"no, only English or Spanish",no,2025-08-13_17h51.17.160,empathy_intonation_perc,2024.2.4,Win32,166.6666667,65486ad91a5493d24f94d4d1,687ed1b7e638a4cbf2f02089,689d08b173b601b7851ce595,,,,,,,,,,,,,88,0,,./stim/wavs/puertorican_mismatch_declarative-broad-focus_La-nina-lava-el-plato.wav,,,,,,,,,,,,,,,,,,,,,,228.2983,230.5466,0,1,1.743,,0,13,13,87,1,0,puertorican,,,,,,,,,,,,,,,,,,,,,,,,,,,,,,,,,,,,,,,,,,,,,,,,,,,,,,,,
,,,,,,,,,65486ad91a5493d24f94d4d1,spanish,13 or older,"no, only English or Spanish",no,2025-08-13_17h51.17.160,empathy_intonation_perc,2024.2.4,Win32,166.6666667,65486ad91a5493d24f94d4d1,687ed1b7e638a4cbf2f02089,689d08b173b601b7851ce595,,,,,,,,,,,,,25,1,,./stim/wavs/castilian_mismatch_interrogative-total-yn_La-maestra-vive-en-Paris.wav,,,,,,,,,,,,,,,,,,,,,,230.5469,232.874,1,1,1.8226,,0,14,14,24,1,0,castilian,,,,,,,,,,,,,,,,,,,,,,,,,,,,,,,,,,,,,,,,,,,,,,,,,,,,,,,,
,,,,,,,,,65486ad91a5493d24f94d4d1,spanish,13 or older,"no, only English or Spanish",no,2025-08-13_17h51.17.160,empathy_intonation_perc,2024.2.4,Win32,166.6666667,65486ad91a5493d24f94d4d1,687ed1b7e638a4cbf2f02089,689d08b173b601b7851ce595,,,,,,,,,,,,,84,0,,./stim/wavs/puertorican_mismatch_declarative-broad-focus_El-bebe-comia-muy-bien.wav,,,,,,,,,,,,,,,,,,,,,,232.8742,235.0196,0,1,1.6394,,0,15,15,83,1,0,puertorican,,,,,,,,,,,,,,,,,,,,,,,,,,,,,,,,,,,,,,,,,,,,,,,,,,,,,,,,
,,,,,,,,,65486ad91a5493d24f94d4d1,spanish,13 or older,"no, only English or Spanish",no,2025-08-13_17h51.17.160,empathy_intonation_perc,2024.2.4,Win32,166.6666667,65486ad91a5493d24f94d4d1,687ed1b7e638a4cbf2f02089,689d08b173b601b7851ce595,,,,,,,,,,,,,77,0,,./stim/wavs/cuban_mismatch_declarative-broad-focus_Mi-novio-viene-del-lago.wav,,,,,,,,,,,,,,,,,,,,,,235.0197,237.2499,0,1,1.7258,,0,16,16,76,1,0,cuban,,,,,,,,,,,,,,,,,,,,,,,,,,,,,,,,,,,,,,,,,,,,,,,,,,,,,,,,
,,,,,,,,,65486ad91a5493d24f94d4d1,spanish,13 or older,"no, only English or Spanish",no,2025-08-13_17h51.17.160,empathy_intonation_perc,2024.2.4,Win32,166.6666667,65486ad91a5493d24f94d4d1,687ed1b7e638a4cbf2f02089,689d08b173b601b7851ce595,,,,,,,,,,,,,69,0,,./stim/wavs/castilian_mismatch_declarative-broad-focus_El-nino-oye-el-rio.wav,,,,,,,,,,,,,,,,,,,,,,237.2501,239.5954,0,1,1.8392,,0,17,17,68,1,0,castilian,,,,,,,,,,,,,,,,,,,,,,,,,,,,,,,,,,,,,,,,,,,,,,,,,,,,,,,,
,,,,,,,,,65486ad91a5493d24f94d4d1,spanish,13 or older,"no, only English or Spanish",no,2025-08-13_17h51.17.160,empathy_intonation_perc,2024.2.4,Win32,166.6666667,65486ad91a5493d24f94d4d1,687ed1b7e638a4cbf2f02089,689d08b173b601b7851ce595,,,,,,,,,,,,,27,1,,./stim/wavs/castilian_mismatch_interrogative-total-yn_Mi-madre-come-la-fruta.wav,,,,,,,,,,,,,,,,,,,,,,239.5956,242.2016,1,1,2.1019,,0,18,18,26,1,0,castilian,,,,,,,,,,,,,,,,,,,,,,,,,,,,,,,,,,,,,,,,,,,,,,,,,,,,,,,,
,,,,,,,,,65486ad91a5493d24f94d4d1,spanish,13 or older,"no, only English or Spanish",no,2025-08-13_17h51.17.160,empathy_intonation_perc,2024.2.4,Win32,166.6666667,65486ad91a5493d24f94d4d1,687ed1b7e638a4cbf2f02089,689d08b173b601b7851ce595,,,,,,,,,,,,,47,0,,./stim/wavs/castilian_match_declarative-broad-focus_Manuela-vende-el-carro.wav,,,,,,,,,,,,,,,,,,,,,,242.2018,244.5774,0,1,1.8717,,0,19,19,46,1,0,castilian,,,,,,,,,,,,,,,,,,,,,,,,,,,,,,,,,,,,,,,,,,,,,,,,,,,,,,,,
,,,,,,,,,65486ad91a5493d24f94d4d1,spanish,13 or older,"no, only English or Spanish",no,2025-08-13_17h51.17.160,empathy_intonation_perc,2024.2.4,Win32,166.6666667,65486ad91a5493d24f94d4d1,687ed1b7e638a4cbf2f02089,689d08b173b601b7851ce595,,,,,,,,,,,,,60,0,,./stim/wavs/mexican_match_declarative-broad-focus_Emilio-ama-la-marcha.wav,,,,,,,,,,,,,,,,,,,,,,244.5776,246.8259,0,1,1.7438,,0,20,20,59,1,0,mexican,,,,,,,,,,,,,,,,,,,,,,,,,,,,,,,,,,,,,,,,,,,,,,,,,,,,,,,,
,,,,,,,,,65486ad91a5493d24f94d4d1,spanish,13 or older,"no, only English or Spanish",no,2025-08-13_17h51.17.160,empathy_intonation_perc,2024.2.4,Win32,166.6666667,65486ad91a5493d24f94d4d1,687ed1b7e638a4cbf2f02089,689d08b173b601b7851ce595,,,,,,,,,,,,,53,0,,./stim/wavs/cuban_match_declarative-broad-focus_Manuela-vende-el-carro.wav,,,,,,,,,,,,,,,,,,,,,,246.8261,249.1109,0,1,1.7758,,0,21,21,52,1,0,cuban,,,,,,,,,,,,,,,,,,,,,,,,,,,,,,,,,,,,,,,,,,,,,,,,,,,,,,,,
,,,,,,,,,65486ad91a5493d24f94d4d1,spanish,13 or older,"no, only English or Spanish",no,2025-08-13_17h51.17.160,empathy_intonation_perc,2024.2.4,Win32,166.6666667,65486ad91a5493d24f94d4d1,687ed1b7e638a4cbf2f02089,689d08b173b601b7851ce595,,,,,,,,,,,,,17,1,,./stim/wavs/mexican_match_interrogative-total-yn_Mariano-habla-del-tiempo.wav,,,,,,,,,,,,,,,,,,,,,,249.1111,251.626,1,1,2.0104,,0,22,22,16,1,0,mexican,,,,,,,,,,,,,,,,,,,,,,,,,,,,,,,,,,,,,,,,,,,,,,,,,,,,,,,,
,,,,,,,,,65486ad91a5493d24f94d4d1,spanish,13 or older,"no, only English or Spanish",no,2025-08-13_17h51.17.160,empathy_intonation_perc,2024.2.4,Win32,166.6666667,65486ad91a5493d24f94d4d1,687ed1b7e638a4cbf2f02089,689d08b173b601b7851ce595,,,,,,,,,,,,,33,1,,./stim/wavs/cuban_mismatch_interrogative-total-yn_Mi-novio-viene-del-lago.wav,,,,,,,,,,,,,,,,,,,,,,251.6262,253.9473,1,1,1.8152,,0,23,23,32,1,1,cuban,,,,,,,,,,,,,,,,,,,,,,,,,,,,,,,,,,,,,,,,,,,,,,,,,,,,,,,,
,,,,,,,,,65486ad91a5493d24f94d4d1,spanish,13 or older,"no, only English or Spanish",no,2025-08-13_17h51.17.160,empathy_intonation_perc,2024.2.4,Win32,166.6666667,65486ad91a5493d24f94d4d1,687ed1b7e638a4cbf2f02089,689d08b173b601b7851ce595,,,,,,,,,,,,,22,1,,./stim/wavs/puertorican_match_interrogative-total-yn_Emilio-ama-la-marcha.wav,,,,,,,,,,,,,,,,,,,,,,253.9476,255.9292,1,1,1.4778,,0,24,24,21,1,1,puertorican,,,,,,,,,,,,,,,,,,,,,,,,,,,,,,,,,,,,,,,,,,,,,,,,,,,,,,,,
,,,,,,,,,65486ad91a5493d24f94d4d1,spanish,13 or older,"no, only English or Spanish",no,2025-08-13_17h51.17.160,empathy_intonation_perc,2024.2.4,Win32,166.6666667,65486ad91a5493d24f94d4d1,687ed1b7e638a4cbf2f02089,689d08b173b601b7851ce595,,,,,,,,,,,,,30,1,,./stim/wavs/cuban_mismatch_interrogative-total-yn_El-hombre-mira-la-luna.wav,,,,,,,,,,,,,,,,,,,,,,255.9294,257.802,1,1,1.3679,,0,25,25,29,1,1,cuban,,,,,,,,,,,,,,,,,,,,,,,,,,,,,,,,,,,,,,,,,,,,,,,,,,,,,,,,
,,,,,,,,,65486ad91a5493d24f94d4d1,spanish,13 or older,"no, only English or Spanish",no,2025-08-13_17h51.17.160,empathy_intonation_perc,2024.2.4,Win32,166.6666667,65486ad91a5493d24f94d4d1,687ed1b7e638a4cbf2f02089,689d08b173b601b7851ce595,,,,,,,,,,,,,52,0,,./stim/wavs/cuban_match_declarative-broad-focus_Daniel-iba-a-Bolivia.wav,,,,,,,,,,,,,,,,,,,,,,257.8022,260.2021,0,1,1.8955,,0,26,26,51,1,0,cuban,,,,,,,,,,,,,,,,,,,,,,,,,,,,,,,,,,,,,,,,,,,,,,,,,,,,,,,,
,,,,,,,,,65486ad91a5493d24f94d4d1,spanish,13 or older,"no, only English or Spanish",no,2025-08-13_17h51.17.160,empathy_intonation_perc,2024.2.4,Win32,166.6666667,65486ad91a5493d24f94d4d1,687ed1b7e638a4cbf2f02089,689d08b173b601b7851ce595,,,,,,,,,,,,,57,0,,./stim/wavs/mexican_match_declarative-broad-focus_Ana-lleva-el-abrigo.wav,,,,,,,,,,,,,,,,,,,,,,260.2023,262.8264,0,1,2.1191,,0,27,27,56,1,0,mexican,,,,,,,,,,,,,,,,,,,,,,,,,,,,,,,,,,,,,,,,,,,,,,,,,,,,,,,,
,,,,,,,,,65486ad91a5493d24f94d4d1,spanish,13 or older,"no, only English or Spanish",no,2025-08-13_17h51.17.160,empathy_intonation_perc,2024.2.4,Win32,166.6666667,65486ad91a5493d24f94d4d1,687ed1b7e638a4cbf2f02089,689d08b173b601b7851ce595,,,,,,,,,,,,,38,1,,./stim/wavs/mexican_mismatch_interrogative-total-yn_Mi-novio-viene-del-lago.wav,,,,,,,,,,,,,,,,,,,,,,262.8266,264.9476,1,1,1.6147,,0,28,28,37,1,0,mexican,,,,,,,,,,,,,,,,,,,,,,,,,,,,,,,,,,,,,,,,,,,,,,,,,,,,,,,,
,,,,,,,,,65486ad91a5493d24f94d4d1,spanish,13 or older,"no, only English or Spanish",no,2025-08-13_17h51.17.160,empathy_intonation_perc,2024.2.4,Win32,166.6666667,65486ad91a5493d24f94d4d1,687ed1b7e638a4cbf2f02089,689d08b173b601b7851ce595,,,,,,,,,,,,,78,0,,./stim/wavs/cuban_mismatch_declarative-broad-focus_Mi-tia-odia-la-lluvia.wav,,,,,,,,,,,,,,,,,,,,,,264.9479,267.9719,0,1,2.5175,,0,29,29,77,1,0,cuban,,,,,,,,,,,,,,,,,,,,,,,,,,,,,,,,,,,,,,,,,,,,,,,,,,,,,,,,
,,,,,,,,,65486ad91a5493d24f94d4d1,spanish,13 or older,"no, only English or Spanish",no,2025-08-13_17h51.17.160,empathy_intonation_perc,2024.2.4,Win32,166.6666667,65486ad91a5493d24f94d4d1,687ed1b7e638a4cbf2f02089,689d08b173b601b7851ce595,,,,,,,,,,,,,80,0,,./stim/wavs/mexican_mismatch_declarative-broad-focus_El-hombre-mira-la-luna.wav,,,,,,,,,,,,,,,,,,,,,,267.9722,270.3296,0,1,1.8533,,0,30,30,79,1,0,mexican,,,,,,,,,,,,,,,,,,,,,,,,,,,,,,,,,,,,,,,,,,,,,,,,,,,,,,,,
,,,,,,,,,65486ad91a5493d24f94d4d1,spanish,13 or older,"no, only English or Spanish",no,2025-08-13_17h51.17.160,empathy_intonation_perc,2024.2.4,Win32,166.6666667,65486ad91a5493d24f94d4d1,687ed1b7e638a4cbf2f02089,689d08b173b601b7851ce595,,,,,,,,,,,,,79,0,,./stim/wavs/mexican_mismatch_declarative-broad-focus_El-bebe-comia-muy-bien.wav,,,,,,,,,,,,,,,,,,,,,,270.3298,272.4691,0,1,1.6315,,0,31,31,78,1,0,mexican,,,,,,,,,,,,,,,,,,,,,,,,,,,,,,,,,,,,,,,,,,,,,,,,,,,,,,,,
,,,,,,,,,65486ad91a5493d24f94d4d1,spanish,13 or older,"no, only English or Spanish",no,2025-08-13_17h51.17.160,empathy_intonation_perc,2024.2.4,Win32,166.6666667,65486ad91a5493d24f94d4d1,687ed1b7e638a4cbf2f02089,689d08b173b601b7851ce595,,,,,,,,,,,,,75,0,,./stim/wavs/cuban_mismatch_declarative-broad-focus_El-hombre-mira-la-luna.wav,,,,,,,,,,,,,,,,,,,,,,272.4693,274.3964,0,1,1.42,,0,32,32,74,1,0,cuban,,,,,,,,,,,,,,,,,,,,,,,,,,,,,,,,,,,,,,,,,,,,,,,,,,,,,,,,
,,,,,,,,,65486ad91a5493d24f94d4d1,spanish,13 or older,"no, only English or Spanish",no,2025-08-13_17h51.17.160,empathy_intonation_perc,2024.2.4,Win32,166.6666667,65486ad91a5493d24f94d4d1,687ed1b7e638a4cbf2f02089,689d08b173b601b7851ce595,,,,,,,,,,,,,58,0,,./stim/wavs/mexican_match_declarative-broad-focus_Daniel-iba-a-Bolivia.wav,,,,,,,,,,,,,,,,,,,,,,274.3967,276.4268,0,1,1.5247,,0,33,33,57,1,0,mexican,,,,,,,,,,,,,,,,,,,,,,,,,,,,,,,,,,,,,,,,,,,,,,,,,,,,,,,,
,,,,,,,,,65486ad91a5493d24f94d4d1,spanish,13 or older,"no, only English or Spanish",no,2025-08-13_17h51.17.160,empathy_intonation_perc,2024.2.4,Win32,166.6666667,65486ad91a5493d24f94d4d1,687ed1b7e638a4cbf2f02089,689d08b173b601b7851ce595,,,,,,,,,,,,,74,0,,./stim/wavs/cuban_mismatch_declarative-broad-focus_El-bebe-comia-muy-bien.wav,,,,,,,,,,,,,,,,,,,,,,276.427,278.6935,0,1,1.7585,,0,34,34,73,1,0,cuban,,,,,,,,,,,,,,,,,,,,,,,,,,,,,,,,,,,,,,,,,,,,,,,,,,,,,,,,
,,,,,,,,,65486ad91a5493d24f94d4d1,spanish,13 or older,"no, only English or Spanish",no,2025-08-13_17h51.17.160,empathy_intonation_perc,2024.2.4,Win32,166.6666667,65486ad91a5493d24f94d4d1,687ed1b7e638a4cbf2f02089,689d08b173b601b7851ce595,,,,,,,,,,,,,49,0,,./stim/wavs/castilian_match_declarative-broad-focus_Mariano-habla-del-tiempo.wav,,,,,,,,,,,,,,,,,,,,,,278.6936,281.1541,0,1,1.9559,,0,35,35,48,1,0,castilian,,,,,,,,,,,,,,,,,,,,,,,,,,,,,,,,,,,,,,,,,,,,,,,,,,,,,,,,
,,,,,,,,,65486ad91a5493d24f94d4d1,spanish,13 or older,"no, only English or Spanish",no,2025-08-13_17h51.17.160,empathy_intonation_perc,2024.2.4,Win32,166.6666667,65486ad91a5493d24f94d4d1,687ed1b7e638a4cbf2f02089,689d08b173b601b7851ce595,,,,,,,,,,,,,35,1,,./stim/wavs/mexican_mismatch_interrogative-total-yn_El-hombre-mira-la-luna.wav,,,,,,,,,,,,,,,,,,,,,,281.1544,283.1179,1,1,1.4551,,0,36,36,34,1,0,mexican,,,,,,,,,,,,,,,,,,,,,,,,,,,,,,,,,,,,,,,,,,,,,,,,,,,,,,,,
,,,,,,,,,65486ad91a5493d24f94d4d1,spanish,13 or older,"no, only English or Spanish",no,2025-08-13_17h51.17.160,empathy_intonation_perc,2024.2.4,Win32,166.6666667,65486ad91a5493d24f94d4d1,687ed1b7e638a4cbf2f02089,689d08b173b601b7851ce595,,,,,,,,,,,,,36,1,,./stim/wavs/mexican_mismatch_interrogative-total-yn_El-nino-oye-el-rio.wav,,,,,,,,,,,,,,,,,,,,,,283.118,285.8513,1,1,2.2273,,0,37,37,35,1,0,mexican,,,,,,,,,,,,,,,,,,,,,,,,,,,,,,,,,,,,,,,,,,,,,,,,,,,,,,,,
,,,,,,,,,65486ad91a5493d24f94d4d1,spanish,13 or older,"no, only English or Spanish",no,2025-08-13_17h51.17.160,empathy_intonation_perc,2024.2.4,Win32,166.6666667,65486ad91a5493d24f94d4d1,687ed1b7e638a4cbf2f02089,689d08b173b601b7851ce595,,,,,,,,,,,,,43,1,,./stim/wavs/puertorican_mismatch_interrogative-total-yn_La-nina-lava-el-plato.wav,,,,,,,,,,,,,,,,,,,,,,285.8516,287.9908,0,0,1.6305,,0,38,38,42,1,1,puertorican,,,,,,,,,,,,,,,,,,,,,,,,,,,,,,,,,,,,,,,,,,,,,,,,,,,,,,,,
,,,,,,,,,65486ad91a5493d24f94d4d1,spanish,13 or older,"no, only English or Spanish",no,2025-08-13_17h51.17.160,empathy_intonation_perc,2024.2.4,Win32,166.6666667,65486ad91a5493d24f94d4d1,687ed1b7e638a4cbf2f02089,689d08b173b601b7851ce595,,,,,,,,,,,,,56,0,,./stim/wavs/cuban_match_declarative-broad-focus_Marta-abre-el-regalo.wav,,,,,,,,,,,,,,,,,,,,,,287.991,290.409,0,1,1.9145,,0,39,39,55,1,0,cuban,,,,,,,,,,,,,,,,,,,,,,,,,,,,,,,,,,,,,,,,,,,,,,,,,,,,,,,,
,,,,,,,,,65486ad91a5493d24f94d4d1,spanish,13 or older,"no, only English or Spanish",no,2025-08-13_17h51.17.160,empathy_intonation_perc,2024.2.4,Win32,166.6666667,65486ad91a5493d24f94d4d1,687ed1b7e638a4cbf2f02089,689d08b173b601b7851ce595,,,,,,,,,,,,,16,1,,./stim/wavs/mexican_match_interrogative-total-yn_Emilio-ama-la-marcha.wav,,,,,,,,,,,,,,,,,,,,,,290.4092,292.4697,1,1,1.5522,,0,40,40,15,1,0,mexican,,,,,,,,,,,,,,,,,,,,,,,,,,,,,,,,,,,,,,,,,,,,,,,,,,,,,,,,
,,,,,,,,,65486ad91a5493d24f94d4d1,spanish,13 or older,"no, only English or Spanish",no,2025-08-13_17h51.17.160,empathy_intonation_perc,2024.2.4,Win32,166.6666667,65486ad91a5493d24f94d4d1,687ed1b7e638a4cbf2f02089,689d08b173b601b7851ce595,,,,,,,,,,,,,64,0,,./stim/wavs/puertorican_match_declarative-broad-focus_Daniel-iba-a-Bolivia.wav,,,,,,,,,,,,,,,,,,,,,,292.4699,294.7425,0,1,1.7639,,0,41,41,63,1,0,puertorican,,,,,,,,,,,,,,,,,,,,,,,,,,,,,,,,,,,,,,,,,,,,,,,,,,,,,,,,
,,,,,,,,,65486ad91a5493d24f94d4d1,spanish,13 or older,"no, only English or Spanish",no,2025-08-13_17h51.17.160,empathy_intonation_perc,2024.2.4,Win32,166.6666667,65486ad91a5493d24f94d4d1,687ed1b7e638a4cbf2f02089,689d08b173b601b7851ce595,,,,,,,,,,,,,51,0,,./stim/wavs/cuban_match_declarative-broad-focus_Ana-lleva-el-abrigo.wav,,,,,,,,,,,,,,,,,,,,,,294.7427,297.0759,0,1,1.8265,,0,42,42,50,1,0,cuban,,,,,,,,,,,,,,,,,,,,,,,,,,,,,,,,,,,,,,,,,,,,,,,,,,,,,,,,
,,,,,,,,,65486ad91a5493d24f94d4d1,spanish,13 or older,"no, only English or Spanish",no,2025-08-13_17h51.17.160,empathy_intonation_perc,2024.2.4,Win32,166.6666667,65486ad91a5493d24f94d4d1,687ed1b7e638a4cbf2f02089,689d08b173b601b7851ce595,,,,,,,,,,,,,15,1,,./stim/wavs/mexican_match_interrogative-total-yn_David-leia-el-libro.wav,,,,,,,,,,,,,,,,,,,,,,297.0761,299.1729,1,1,1.5892,,0,43,43,14,1,0,mexican,,,,,,,,,,,,,,,,,,,,,,,,,,,,,,,,,,,,,,,,,,,,,,,,,,,,,,,,
,,,,,,,,,65486ad91a5493d24f94d4d1,spanish,13 or older,"no, only English or Spanish",no,2025-08-13_17h51.17.160,empathy_intonation_perc,2024.2.4,Win32,166.6666667,65486ad91a5493d24f94d4d1,687ed1b7e638a4cbf2f02089,689d08b173b601b7851ce595,,,,,,,,,,,,,72,0,,./stim/wavs/castilian_mismatch_declarative-broad-focus_Mi-novio-viene-del-lago.wav,,,,,,,,,,,,,,,,,,,,,,299.1731,301.8214,0,1,2.1401,,0,44,44,71,1,0,castilian,,,,,,,,,,,,,,,,,,,,,,,,,,,,,,,,,,,,,,,,,,,,,,,,,,,,,,,,
,,,,,,,,,65486ad91a5493d24f94d4d1,spanish,13 or older,"no, only English or Spanish",no,2025-08-13_17h51.17.160,empathy_intonation_perc,2024.2.4,Win32,166.6666667,65486ad91a5493d24f94d4d1,687ed1b7e638a4cbf2f02089,689d08b173b601b7851ce595,,,,,,,,,,,,,55,0,,./stim/wavs/cuban_match_declarative-broad-focus_Mariano-habla-del-tiempo.wav,,,,,,,,,,,,,,,,,,,,,,301.8217,305.0215,0,1,2.6918,,0,45,45,54,1,0,cuban,,,,,,,,,,,,,,,,,,,,,,,,,,,,,,,,,,,,,,,,,,,,,,,,,,,,,,,,
,,,,,,,,,65486ad91a5493d24f94d4d1,spanish,13 or older,"no, only English or Spanish",no,2025-08-13_17h51.17.160,empathy_intonation_perc,2024.2.4,Win32,166.6666667,65486ad91a5493d24f94d4d1,687ed1b7e638a4cbf2f02089,689d08b173b601b7851ce595,,,,,,,,,,,,,44,1,,./stim/wavs/puertorican_mismatch_interrogative-total-yn_Mi-madre-come-la-fruta.wav,,,,,,,,,,,,,,,,,,,,,,305.0218,307.2216,0,0,1.6916,,0,46,46,43,1,1,puertorican,,,,,,,,,,,,,,,,,,,,,,,,,,,,,,,,,,,,,,,,,,,,,,,,,,,,,,,,
,,,,,,,,,65486ad91a5493d24f94d4d1,spanish,13 or older,"no, only English or Spanish",no,2025-08-13_17h51.17.160,empathy_intonation_perc,2024.2.4,Win32,166.6666667,65486ad91a5493d24f94d4d1,687ed1b7e638a4cbf2f02089,689d08b173b601b7851ce595,,,,,,,,,,,,,42,1,,./stim/wavs/puertorican_mismatch_interrogative-total-yn_La-maestra-vive-en-Paris.wav,,,,,,,,,,,,,,,,,,,,,,307.2218,310.0701,0,0,2.3396,,0,47,47,41,1,1,puertorican,,,,,,,,,,,,,,,,,,,,,,,,,,,,,,,,,,,,,,,,,,,,,,,,,,,,,,,,
,,,,,,,,,65486ad91a5493d24f94d4d1,spanish,13 or older,"no, only English or Spanish",no,2025-08-13_17h51.17.160,empathy_intonation_perc,2024.2.4,Win32,166.6666667,65486ad91a5493d24f94d4d1,687ed1b7e638a4cbf2f02089,689d08b173b601b7851ce595,,,,,,,,,,,,,8,1,,./stim/wavs/cuban_match_interrogative-total-yn_Daniel-iba-a-Bolivia.wav,,,,,,,,,,,,,,,,,,,,,,310.0705,312.6338,1,1,2.0589,,0,48,48,7,1,1,cuban,,,,,,,,,,,,,,,,,,,,,,,,,,,,,,,,,,,,,,,,,,,,,,,,,,,,,,,,
,,,,,,,,,65486ad91a5493d24f94d4d1,spanish,13 or older,"no, only English or Spanish",no,2025-08-13_17h51.17.160,empathy_intonation_perc,2024.2.4,Win32,166.6666667,65486ad91a5493d24f94d4d1,687ed1b7e638a4cbf2f02089,689d08b173b601b7851ce595,,,,,,,,,,,,,29,1,,./stim/wavs/castilian_mismatch_interrogative-total-yn_Mi-tia-odia-la-lluvia.wav,,,,,,,,,,,,,,,,,,,,,,312.6341,315.1067,1,1,1.9674,,0,49,49,28,1,0,castilian,,,,,,,,,,,,,,,,,,,,,,,,,,,,,,,,,,,,,,,,,,,,,,,,,,,,,,,,
,,,,,,,,,65486ad91a5493d24f94d4d1,spanish,13 or older,"no, only English or Spanish",no,2025-08-13_17h51.17.160,empathy_intonation_perc,2024.2.4,Win32,166.6666667,65486ad91a5493d24f94d4d1,687ed1b7e638a4cbf2f02089,689d08b173b601b7851ce595,,,,,,,,,,,,,68,0,,./stim/wavs/puertorican_match_declarative-broad-focus_Maria-bebe-el-vino.wav,,,,,,,,,,,,,,,,,,,,,,315.1069,317.3129,0,1,1.7025,,0,50,50,67,1,0,puertorican,,,,,,,,,,,,,,,,,,,,,,,,,,,,,,,,,,,,,,,,,,,,,,,,,,,,,,,,
,,,,,,,,,65486ad91a5493d24f94d4d1,spanish,13 or older,"no, only English or Spanish",no,2025-08-13_17h51.17.160,empathy_intonation_perc,2024.2.4,Win32,166.6666667,65486ad91a5493d24f94d4d1,687ed1b7e638a4cbf2f02089,689d08b173b601b7851ce595,,,,,,,,,,,,,66,0,,./stim/wavs/puertorican_match_declarative-broad-focus_Emilio-ama-la-marcha.wav,,,,,,,,,,,,,,,,,,,,,,317.3131,319.5552,0,1,1.7365,,0,51,51,65,1,0,puertorican,,,,,,,,,,,,,,,,,,,,,,,,,,,,,,,,,,,,,,,,,,,,,,,,,,,,,,,,
,,,,,,,,,65486ad91a5493d24f94d4d1,spanish,13 or older,"no, only English or Spanish",no,2025-08-13_17h51.17.160,empathy_intonation_perc,2024.2.4,Win32,166.6666667,65486ad91a5493d24f94d4d1,687ed1b7e638a4cbf2f02089,689d08b173b601b7851ce595,,,,,,,,,,,,,26,1,,./stim/wavs/castilian_mismatch_interrogative-total-yn_La-nina-lava-el-plato.wav,,,,,,,,,,,,,,,,,,,,,,319.5555,321.4524,1,1,1.3899,,0,52,52,25,1,0,castilian,,,,,,,,,,,,,,,,,,,,,,,,,,,,,,,,,,,,,,,,,,,,,,,,,,,,,,,,
,,,,,,,,,65486ad91a5493d24f94d4d1,spanish,13 or older,"no, only English or Spanish",no,2025-08-13_17h51.17.160,empathy_intonation_perc,2024.2.4,Win32,166.6666667,65486ad91a5493d24f94d4d1,687ed1b7e638a4cbf2f02089,689d08b173b601b7851ce595,,,,,,,,,,,,,23,1,,./stim/wavs/puertorican_match_interrogative-total-yn_Manuela-vende-el-carro.wav,,,,,,,,,,,,,,,,,,,,,,321.4526,323.2341,1,1,1.2767,,0,53,53,22,1,1,puertorican,,,,,,,,,,,,,,,,,,,,,,,,,,,,,,,,,,,,,,,,,,,,,,,,,,,,,,,,
,,,,,,,,,65486ad91a5493d24f94d4d1,spanish,13 or older,"no, only English or Spanish",no,2025-08-13_17h51.17.160,empathy_intonation_perc,2024.2.4,Win32,166.6666667,65486ad91a5493d24f94d4d1,687ed1b7e638a4cbf2f02089,689d08b173b601b7851ce595,,,,,,,,,,,,,76,0,,./stim/wavs/cuban_mismatch_declarative-broad-focus_La-nina-lava-el-plato.wav,,,,,,,,,,,,,,,,,,,,,,323.2344,325.1373,0,1,1.3991,,0,54,54,75,1,0,cuban,,,,,,,,,,,,,,,,,,,,,,,,,,,,,,,,,,,,,,,,,,,,,,,,,,,,,,,,
,,,,,,,,,65486ad91a5493d24f94d4d1,spanish,13 or older,"no, only English or Spanish",no,2025-08-13_17h51.17.160,empathy_intonation_perc,2024.2.4,Win32,166.6666667,65486ad91a5493d24f94d4d1,687ed1b7e638a4cbf2f02089,689d08b173b601b7851ce595,,,,,,,,,,,,,3,1,,./stim/wavs/castilian_match_interrogative-total-yn_Manuela-vende-el-carro.wav,,,,,,,,,,,,,,,,,,,,,,325.1374,326.6283,1,1,0.9839,,0,55,55,2,1,0,castilian,,,,,,,,,,,,,,,,,,,,,,,,,,,,,,,,,,,,,,,,,,,,,,,,,,,,,,,,
,,,,,,,,,65486ad91a5493d24f94d4d1,spanish,13 or older,"no, only English or Spanish",no,2025-08-13_17h51.17.160,empathy_intonation_perc,2024.2.4,Win32,166.6666667,65486ad91a5493d24f94d4d1,687ed1b7e638a4cbf2f02089,689d08b173b601b7851ce595,,,,,,,,,,,,,50,0,,./stim/wavs/castilian_match_declarative-broad-focus_Marta-abre-el-regalo.wav,,,,,,,,,,,,,,,,,,,,,,326.6285,328.9374,0,1,1.8049,,0,56,56,49,1,0,castilian,,,,,,,,,,,,,,,,,,,,,,,,,,,,,,,,,,,,,,,,,,,,,,,,,,,,,,,,
,,,,,,,,,65486ad91a5493d24f94d4d1,spanish,13 or older,"no, only English or Spanish",no,2025-08-13_17h51.17.160,empathy_intonation_perc,2024.2.4,Win32,166.6666667,65486ad91a5493d24f94d4d1,687ed1b7e638a4cbf2f02089,689d08b173b601b7851ce595,,,,,,,,,,,,,13,1,,./stim/wavs/mexican_match_interrogative-total-yn_Ana-lleva-el-abrigo.wav,,,,,,,,,,,,,,,,,,,,,,328.9376,331.1071,1,1,1.6637,,0,57,57,12,1,0,mexican,,,,,,,,,,,,,,,,,,,,,,,,,,,,,,,,,,,,,,,,,,,,,,,,,,,,,,,,
,,,,,,,,,65486ad91a5493d24f94d4d1,spanish,13 or older,"no, only English or Spanish",no,2025-08-13_17h51.17.160,empathy_intonation_perc,2024.2.4,Win32,166.6666667,65486ad91a5493d24f94d4d1,687ed1b7e638a4cbf2f02089,689d08b173b601b7851ce595,,,,,,,,,,,,,45,0,,./stim/wavs/castilian_match_declarative-broad-focus_David-leia-el-libro.wav,,,,,,,,,,,,,,,,,,,,,,331.1074,333.3133,0,1,1.702,,0,58,58,44,1,0,castilian,,,,,,,,,,,,,,,,,,,,,,,,,,,,,,,,,,,,,,,,,,,,,,,,,,,,,,,,
,,,,,,,,,65486ad91a5493d24f94d4d1,spanish,13 or older,"no, only English or Spanish",no,2025-08-13_17h51.17.160,empathy_intonation_perc,2024.2.4,Win32,166.6666667,65486ad91a5493d24f94d4d1,687ed1b7e638a4cbf2f02089,689d08b173b601b7851ce595,,,,,,,,,,,,,83,0,,./stim/wavs/mexican_mismatch_declarative-broad-focus_Mi-tia-odia-la-lluvia.wav,,,,,,,,,,,,,,,,,,,,,,333.3135,335.4588,0,1,1.6399,,0,59,59,82,1,0,mexican,,,,,,,,,,,,,,,,,,,,,,,,,,,,,,,,,,,,,,,,,,,,,,,,,,,,,,,,
,,,,,,,,,65486ad91a5493d24f94d4d1,spanish,13 or older,"no, only English or Spanish",no,2025-08-13_17h51.17.160,empathy_intonation_perc,2024.2.4,Win32,166.6666667,65486ad91a5493d24f94d4d1,687ed1b7e638a4cbf2f02089,689d08b173b601b7851ce595,,,,,,,,,,,,,20,1,,./stim/wavs/puertorican_match_interrogative-total-yn_Daniel-iba-a-Bolivia.wav,,,,,,,,,,,,,,,,,,,,,,335.4589,337.3255,1,1,1.3584,,0,60,60,19,1,1,puertorican,,,,,,,,,,,,,,,,,,,,,,,,,,,,,,,,,,,,,,,,,,,,,,,,,,,,,,,,
,,,,,,,,,65486ad91a5493d24f94d4d1,spanish,13 or older,"no, only English or Spanish",no,2025-08-13_17h51.17.160,empathy_intonation_perc,2024.2.4,Win32,166.6666667,65486ad91a5493d24f94d4d1,687ed1b7e638a4cbf2f02089,689d08b173b601b7851ce595,,,,,,,,,,,,,28,1,,./stim/wavs/castilian_mismatch_interrogative-total-yn_Mi-novio-viene-del-lago.wav,,,,,,,,,,,,,,,,,,,,,,337.3256,339.1014,1,1,1.2678,,0,61,61,27,1,0,castilian,,,,,,,,,,,,,,,,,,,,,,,,,,,,,,,,,,,,,,,,,,,,,,,,,,,,,,,,
,,,,,,,,,65486ad91a5493d24f94d4d1,spanish,13 or older,"no, only English or Spanish",no,2025-08-13_17h51.17.160,empathy_intonation_perc,2024.2.4,Win32,166.6666667,65486ad91a5493d24f94d4d1,687ed1b7e638a4cbf2f02089,689d08b173b601b7851ce595,,,,,,,,,,,,,4,1,,./stim/wavs/castilian_match_interrogative-total-yn_Maria-bebe-el-vino.wav,,,,,,,,,,,,,,,,,,,,,,339.1016,341.1074,1,1,1.4998,,0,62,62,3,1,0,castilian,,,,,,,,,,,,,,,,,,,,,,,,,,,,,,,,,,,,,,,,,,,,,,,,,,,,,,,,
,,,,,,,,,65486ad91a5493d24f94d4d1,spanish,13 or older,"no, only English or Spanish",no,2025-08-13_17h51.17.160,empathy_intonation_perc,2024.2.4,Win32,166.6666667,65486ad91a5493d24f94d4d1,687ed1b7e638a4cbf2f02089,689d08b173b601b7851ce595,,,,,,,,,,,,,85,0,,./stim/wavs/puertorican_mismatch_declarative-broad-focus_El-hombre-mira-la-luna.wav,,,,,,,,,,,,,,,,,,,,,,341.1076,343.9378,0,1,2.3257,,0,63,63,84,1,0,puertorican,,,,,,,,,,,,,,,,,,,,,,,,,,,,,,,,,,,,,,,,,,,,,,,,,,,,,,,,
,,,,,,,,,65486ad91a5493d24f94d4d1,spanish,13 or older,"no, only English or Spanish",no,2025-08-13_17h51.17.160,empathy_intonation_perc,2024.2.4,Win32,166.6666667,65486ad91a5493d24f94d4d1,687ed1b7e638a4cbf2f02089,689d08b173b601b7851ce595,,,,,,,,,,,,,87,0,,./stim/wavs/puertorican_mismatch_declarative-broad-focus_La-maestra-vive-en-Paris.wav,,,,,,,,,,,,,,,,,,,,,,343.938,346.5803,0,1,2.1353,,0,64,64,86,1,0,puertorican,,,,,,,,,,,,,,,,,,,,,,,,,,,,,,,,,,,,,,,,,,,,,,,,,,,,,,,,
,,,,,,,,,65486ad91a5493d24f94d4d1,spanish,13 or older,"no, only English or Spanish",no,2025-08-13_17h51.17.160,empathy_intonation_perc,2024.2.4,Win32,166.6666667,65486ad91a5493d24f94d4d1,687ed1b7e638a4cbf2f02089,689d08b173b601b7851ce595,,,,,,,,,,,,,5,1,,./stim/wavs/castilian_match_interrogative-total-yn_Mariano-habla-del-tiempo.wav,,,,,,,,,,,,,,,,,,,,,,346.5806,348.0774,1,1,0.9889,,0,65,65,4,1,0,castilian,,,,,,,,,,,,,,,,,,,,,,,,,,,,,,,,,,,,,,,,,,,,,,,,,,,,,,,,
,,,,,,,,,65486ad91a5493d24f94d4d1,spanish,13 or older,"no, only English or Spanish",no,2025-08-13_17h51.17.160,empathy_intonation_perc,2024.2.4,Win32,166.6666667,65486ad91a5493d24f94d4d1,687ed1b7e638a4cbf2f02089,689d08b173b601b7851ce595,,,,,,,,,,,,,59,0,,./stim/wavs/mexican_match_declarative-broad-focus_David-leia-el-libro.wav,,,,,,,,,,,,,,,,,,,,,,348.0775,350.0895,0,1,1.5077,,0,66,66,58,1,0,mexican,,,,,,,,,,,,,,,,,,,,,,,,,,,,,,,,,,,,,,,,,,,,,,,,,,,,,,,,
,,,,,,,,,65486ad91a5493d24f94d4d1,spanish,13 or older,"no, only English or Spanish",no,2025-08-13_17h51.17.160,empathy_intonation_perc,2024.2.4,Win32,166.6666667,65486ad91a5493d24f94d4d1,687ed1b7e638a4cbf2f02089,689d08b173b601b7851ce595,,,,,,,,,,,,,65,0,,./stim/wavs/puertorican_match_declarative-broad-focus_David-leia-el-libro.wav,,,,,,,,,,,,,,,,,,,,,,350.0897,351.9563,0,1,1.3596,,0,67,67,64,1,0,puertorican,,,,,,,,,,,,,,,,,,,,,,,,,,,,,,,,,,,,,,,,,,,,,,,,,,,,,,,,
,,,,,,,,,65486ad91a5493d24f94d4d1,spanish,13 or older,"no, only English or Spanish",no,2025-08-13_17h51.17.160,empathy_intonation_perc,2024.2.4,Win32,166.6666667,65486ad91a5493d24f94d4d1,687ed1b7e638a4cbf2f02089,689d08b173b601b7851ce595,,,,,,,,,,,,,48,0,,./stim/wavs/castilian_match_declarative-broad-focus_Maria-bebe-el-vino.wav,,,,,,,,,,,,,,,,,,,,,,351.9565,354.2047,0,1,1.7409,,0,68,68,47,1,0,castilian,,,,,,,,,,,,,,,,,,,,,,,,,,,,,,,,,,,,,,,,,,,,,,,,,,,,,,,,
,,,,,,,,,65486ad91a5493d24f94d4d1,spanish,13 or older,"no, only English or Spanish",no,2025-08-13_17h51.17.160,empathy_intonation_perc,2024.2.4,Win32,166.6666667,65486ad91a5493d24f94d4d1,687ed1b7e638a4cbf2f02089,689d08b173b601b7851ce595,,,,,,,,,,,,,6,1,,./stim/wavs/castilian_match_interrogative-total-yn_Marta-abre-el-regalo.wav,,,,,,,,,,,,,,,,,,,,,,354.2049,356.3987,1,1,1.685,,0,69,69,5,1,0,castilian,,,,,,,,,,,,,,,,,,,,,,,,,,,,,,,,,,,,,,,,,,,,,,,,,,,,,,,,
,,,,,,,,,65486ad91a5493d24f94d4d1,spanish,13 or older,"no, only English or Spanish",no,2025-08-13_17h51.17.160,empathy_intonation_perc,2024.2.4,Win32,166.6666667,65486ad91a5493d24f94d4d1,687ed1b7e638a4cbf2f02089,689d08b173b601b7851ce595,,,,,,,,,,,,,41,1,,./stim/wavs/puertorican_mismatch_interrogative-total-yn_El-nino-oye-el-rio.wav,,,,,,,,,,,,,,,,,,,,,,356.399,358.4594,0,0,1.5545,,0,70,70,40,1,1,puertorican,,,,,,,,,,,,,,,,,,,,,,,,,,,,,,,,,,,,,,,,,,,,,,,,,,,,,,,,
,,,,,,,,,65486ad91a5493d24f94d4d1,spanish,13 or older,"no, only English or Spanish",no,2025-08-13_17h51.17.160,empathy_intonation_perc,2024.2.4,Win32,166.6666667,65486ad91a5493d24f94d4d1,687ed1b7e638a4cbf2f02089,689d08b173b601b7851ce595,,,,,,,,,,,,,19,1,,./stim/wavs/puertorican_match_interrogative-total-yn_Ana-lleva-el-abrigo.wav,,,,,,,,,,,,,,,,,,,,,,358.4597,360.3565,1,1,1.3896,,0,71,71,18,1,1,puertorican,,,,,,,,,,,,,,,,,,,,,,,,,,,,,,,,,,,,,,,,,,,,,,,,,,,,,,,,
,,,,,,,,,65486ad91a5493d24f94d4d1,spanish,13 or older,"no, only English or Spanish",no,2025-08-13_17h51.17.160,empathy_intonation_perc,2024.2.4,Win32,166.6666667,65486ad91a5493d24f94d4d1,687ed1b7e638a4cbf2f02089,689d08b173b601b7851ce595,,,,,,,,,,,,,46,0,,./stim/wavs/castilian_match_declarative-broad-focus_Emilio-ama-la-marcha.wav,,,,,,,,,,,,,,,,,,,,,,360.3567,362.2596,0,1,1.3966,,0,72,72,45,1,0,castilian,,,,,,,,,,,,,,,,,,,,,,,,,,,,,,,,,,,,,,,,,,,,,,,,,,,,,,,,
,,,,,,,,,65486ad91a5493d24f94d4d1,spanish,13 or older,"no, only English or Spanish",no,2025-08-13_17h51.17.160,empathy_intonation_perc,2024.2.4,Win32,166.6666667,65486ad91a5493d24f94d4d1,687ed1b7e638a4cbf2f02089,689d08b173b601b7851ce595,,,,,,,,,,,,,73,0,,./stim/wavs/castilian_mismatch_declarative-broad-focus_Mi-tia-odia-la-lluvia.wav,,,,,,,,,,,,,,,,,,,,,,362.2598,364.4293,0,1,1.6615,,0,73,73,72,1,0,castilian,,,,,,,,,,,,,,,,,,,,,,,,,,,,,,,,,,,,,,,,,,,,,,,,,,,,,,,,
,,,,,,,,,65486ad91a5493d24f94d4d1,spanish,13 or older,"no, only English or Spanish",no,2025-08-13_17h51.17.160,empathy_intonation_perc,2024.2.4,Win32,166.6666667,65486ad91a5493d24f94d4d1,687ed1b7e638a4cbf2f02089,689d08b173b601b7851ce595,,,,,,,,,,,,,67,0,,./stim/wavs/puertorican_match_declarative-broad-focus_Manuela-vende-el-carro.wav,,,,,,,,,,,,,,,,,,,,,,364.4295,366.4658,0,1,1.5317,,0,74,74,66,1,0,puertorican,,,,,,,,,,,,,,,,,,,,,,,,,,,,,,,,,,,,,,,,,,,,,,,,,,,,,,,,
,,,,,,,,,65486ad91a5493d24f94d4d1,spanish,13 or older,"no, only English or Spanish",no,2025-08-13_17h51.17.160,empathy_intonation_perc,2024.2.4,Win32,166.6666667,65486ad91a5493d24f94d4d1,687ed1b7e638a4cbf2f02089,689d08b173b601b7851ce595,,,,,,,,,,,,,86,0,,./stim/wavs/puertorican_mismatch_declarative-broad-focus_El-nino-oye-el-rio.wav,,,,,,,,,,,,,,,,,,,,,,366.466,368.5748,0,1,1.6001,,0,75,75,85,1,0,puertorican,,,,,,,,,,,,,,,,,,,,,,,,,,,,,,,,,,,,,,,,,,,,,,,,,,,,,,,,
,,,,,,,,,65486ad91a5493d24f94d4d1,spanish,13 or older,"no, only English or Spanish",no,2025-08-13_17h51.17.160,empathy_intonation_perc,2024.2.4,Win32,166.6666667,65486ad91a5493d24f94d4d1,687ed1b7e638a4cbf2f02089,689d08b173b601b7851ce595,,,,,,,,,,,,,1,1,,./stim/wavs/castilian_match_interrogative-total-yn_David-leia-el-libro.wav,,,,,,,,,,,,,,,,,,,,,,368.575,370.7447,1,1,1.6661,,0,76,76,0,1,0,castilian,,,,,,,,,,,,,,,,,,,,,,,,,,,,,,,,,,,,,,,,,,,,,,,,,,,,,,,,
,,,,,,,,,65486ad91a5493d24f94d4d1,spanish,13 or older,"no, only English or Spanish",no,2025-08-13_17h51.17.160,empathy_intonation_perc,2024.2.4,Win32,166.6666667,65486ad91a5493d24f94d4d1,687ed1b7e638a4cbf2f02089,689d08b173b601b7851ce595,,,,,,,,,,,,,82,0,,./stim/wavs/mexican_mismatch_declarative-broad-focus_Mi-novio-viene-del-lago.wav,,,,,,,,,,,,,,,,,,,,,,370.7449,372.8113,0,1,1.5603,,0,77,77,81,1,0,mexican,,,,,,,,,,,,,,,,,,,,,,,,,,,,,,,,,,,,,,,,,,,,,,,,,,,,,,,,
,,,,,,,,,65486ad91a5493d24f94d4d1,spanish,13 or older,"no, only English or Spanish",no,2025-08-13_17h51.17.160,empathy_intonation_perc,2024.2.4,Win32,166.6666667,65486ad91a5493d24f94d4d1,687ed1b7e638a4cbf2f02089,689d08b173b601b7851ce595,,,,,,,,,,,,,24,1,,./stim/wavs/puertorican_match_interrogative-total-yn_Maria-bebe-el-vino.wav,,,,,,,,,,,,,,,,,,,,,,372.8116,374.478,1,1,1.1578,,0,78,78,23,1,1,puertorican,,,,,,,,,,,,,,,,,,,,,,,,,,,,,,,,,,,,,,,,,,,,,,,,,,,,,,,,
,,,,,,,,,65486ad91a5493d24f94d4d1,spanish,13 or older,"no, only English or Spanish",no,2025-08-13_17h51.17.160,empathy_intonation_perc,2024.2.4,Win32,166.6666667,65486ad91a5493d24f94d4d1,687ed1b7e638a4cbf2f02089,689d08b173b601b7851ce595,,,,,,,,,,,,,7,1,,./stim/wavs/cuban_match_interrogative-total-yn_Ana-lleva-el-abrigo.wav,,,,,,,,,,,,,,,,,,,,,,374.4782,376.4054,1,1,1.4189,,0,79,79,6,1,1,cuban,,,,,,,,,,,,,,,,,,,,,,,,,,,,,,,,,,,,,,,,,,,,,,,,,,,,,,,,
,,,,,,,,,65486ad91a5493d24f94d4d1,spanish,13 or older,"no, only English or Spanish",no,2025-08-13_17h51.17.160,empathy_intonation_perc,2024.2.4,Win32,166.6666667,65486ad91a5493d24f94d4d1,687ed1b7e638a4cbf2f02089,689d08b173b601b7851ce595,,,,,,,,,,,,,61,0,,./stim/wavs/mexican_match_declarative-broad-focus_Mariano-habla-del-tiempo.wav,,,,,,,,,,,,,,,,,,,,,,376.4056,378.5388,0,1,1.6276,,0,80,80,60,1,0,mexican,,,,,,,,,,,,,,,,,,,,,,,,,,,,,,,,,,,,,,,,,,,,,,,,,,,,,,,,
,,,,,,,,,65486ad91a5493d24f94d4d1,spanish,13 or older,"no, only English or Spanish",no,2025-08-13_17h51.17.160,empathy_intonation_perc,2024.2.4,Win32,166.6666667,65486ad91a5493d24f94d4d1,687ed1b7e638a4cbf2f02089,689d08b173b601b7851ce595,,,,,,,,,,,,,39,1,,./stim/wavs/mexican_mismatch_interrogative-total-yn_Mi-tia-odia-la-lluvia.wav,,,,,,,,,,,,,,,,,,,,,,378.539,380.6419,1,1,1.5983,,0,81,81,38,1,0,mexican,,,,,,,,,,,,,,,,,,,,,,,,,,,,,,,,,,,,,,,,,,,,,,,,,,,,,,,,
,,,,,,,,,65486ad91a5493d24f94d4d1,spanish,13 or older,"no, only English or Spanish",no,2025-08-13_17h51.17.160,empathy_intonation_perc,2024.2.4,Win32,166.6666667,65486ad91a5493d24f94d4d1,687ed1b7e638a4cbf2f02089,689d08b173b601b7851ce595,,,,,,,,,,,,,40,1,,./stim/wavs/puertorican_mismatch_interrogative-total-yn_El-hombre-mira-la-luna.wav,,,,,,,,,,,,,,,,,,,,,,380.642,382.3632,1,1,1.2153,,0,82,82,39,1,1,puertorican,,,,,,,,,,,,,,,,,,,,,,,,,,,,,,,,,,,,,,,,,,,,,,,,,,,,,,,,
,,,,,,,,,65486ad91a5493d24f94d4d1,spanish,13 or older,"no, only English or Spanish",no,2025-08-13_17h51.17.160,empathy_intonation_perc,2024.2.4,Win32,166.6666667,65486ad91a5493d24f94d4d1,687ed1b7e638a4cbf2f02089,689d08b173b601b7851ce595,,,,,,,,,,,,,63,0,,./stim/wavs/puertorican_match_declarative-broad-focus_Ana-lleva-el-abrigo.wav,,,,,,,,,,,,,,,,,,,,,,382.3634,384.5087,0,1,1.638,,0,83,83,62,1,0,puertorican,,,,,,,,,,,,,,,,,,,,,,,,,,,,,,,,,,,,,,,,,,,,,,,,,,,,,,,,
,,,,,,,,,65486ad91a5493d24f94d4d1,spanish,13 or older,"no, only English or Spanish",no,2025-08-13_17h51.17.160,empathy_intonation_perc,2024.2.4,Win32,166.6666667,65486ad91a5493d24f94d4d1,687ed1b7e638a4cbf2f02089,689d08b173b601b7851ce595,,,,,,,,,,,,,12,1,,./stim/wavs/cuban_match_interrogative-total-yn_Marta-abre-el-regalo.wav,,,,,,,,,,,,,,,,,,,,,,384.5089,386.6178,0,0,1.6044,,0,84,84,11,1,1,cuban,,,,,,,,,,,,,,,,,,,,,,,,,,,,,,,,,,,,,,,,,,,,,,,,,,,,,,,,
,,,,,,,,,65486ad91a5493d24f94d4d1,spanish,13 or older,"no, only English or Spanish",no,2025-08-13_17h51.17.160,empathy_intonation_perc,2024.2.4,Win32,166.6666667,65486ad91a5493d24f94d4d1,687ed1b7e638a4cbf2f02089,689d08b173b601b7851ce595,,,,,,,,,,,,,21,1,,./stim/wavs/puertorican_match_interrogative-total-yn_David-leia-el-libro.wav,,,,,,,,,,,,,,,,,,,,,,386.618,388.1936,1,1,1.0711,,0,85,85,20,1,1,puertorican,,,,,,,,,,,,,,,,,,,,,,,,,,,,,,,,,,,,,,,,,,,,,,,,,,,,,,,,
,,,,,,,,,65486ad91a5493d24f94d4d1,spanish,13 or older,"no, only English or Spanish",no,2025-08-13_17h51.17.160,empathy_intonation_perc,2024.2.4,Win32,166.6666667,65486ad91a5493d24f94d4d1,687ed1b7e638a4cbf2f02089,689d08b173b601b7851ce595,,,,,,,,,,,,,34,1,,./stim/wavs/cuban_mismatch_interrogative-total-yn_Mi-tia-odia-la-lluvia.wav,,,,,,,,,,,,,,,,,,,,,,388.1938,390.2543,1,1,1.5518,,0,86,86,33,1,1,cuban,,,,,,,,,,,,,,,,,,,,,,,,,,,,,,,,,,,,,,,,,,,,,,,,,,,,,,,,
,,,,,,,,,65486ad91a5493d24f94d4d1,spanish,13 or older,"no, only English or Spanish",no,2025-08-13_17h51.17.160,empathy_intonation_perc,2024.2.4,Win32,166.6666667,65486ad91a5493d24f94d4d1,687ed1b7e638a4cbf2f02089,689d08b173b601b7851ce595,,,,,,,,,,,,,32,1,,./stim/wavs/cuban_mismatch_interrogative-total-yn_Mi-madre-come-la-fruta.wav,,,,,,,,,,,,,,,,,,,,,,390.2544,392.5331,1,1,1.7708,,0,87,87,31,1,1,cuban,,,,,,,,,,,,,,,,,,,,,,,,,,,,,,,,,,,,,,,,,,,,,,,,,,,,,,,,
,,,,,,,"Great! Now we will move on. The next task consists of about 60 trials, in each of which you will see a string of letters. 
  
  Your task is to decide whether this is a real Spanish word or not.", (press the spacebar to continue),65486ad91a5493d24f94d4d1,spanish,13 or older,"no, only English or Spanish",no,2025-08-13_17h51.17.160,empathy_intonation_perc,2024.2.4,Win32,166.6666667,65486ad91a5493d24f94d4d1,687ed1b7e638a4cbf2f02089,689d08b173b601b7851ce595,,,,,,,,,,,,,,,,,,,,,,,,,,,,,,,,,,,,,,,,,,,,,,,,,,,392.5358,399.6122,0,0,0,0,1,,,,,,,,,,,,,,,,,,,,,,,,,,,,,,,,,,,,,,,,,,,,,,,,,
,,,,,,,"If you think it is an existing Spanish word, you type '1' (for 'REAL'), and if you think it is not an existing Spanish word, you type '0' (for 'FAKE').", (press the spacebar to continue),65486ad91a5493d24f94d4d1,spanish,13 or older,"no, only English or Spanish",no,2025-08-13_17h51.17.160,empathy_intonation_perc,2024.2.4,Win32,166.6666667,65486ad91a5493d24f94d4d1,687ed1b7e638a4cbf2f02089,689d08b173b601b7851ce595,,,,,,,,,,,,,,,,,,,,,,,,,,,,,,,,,,,,,,,,,,,,,,,,,,,399.6132,401.4729,0,1,1,1,1,,,,,,,,,,,,,,,,,,,,,,,,,,,,,,,,,,,,,,,,,,,,,,,,,
,,,,,,,"If you are sure that the word exists, even though you don’t know its exact meaning, you may still respond '1' (REAL). 
  
  But if you are not sure if it is an existing word, you should respond '0' (FAKE).
  
  Let's do a practice round...", (press the spacebar to continue),65486ad91a5493d24f94d4d1,spanish,13 or older,"no, only English or Spanish",no,2025-08-13_17h51.17.160,empathy_intonation_perc,2024.2.4,Win32,166.6666667,65486ad91a5493d24f94d4d1,687ed1b7e638a4cbf2f02089,689d08b173b601b7851ce595,,,,,,,,,,,,,,,,,,,,,,,,,,,,,,,,,,,,,,,,,,,,,,,,,,,401.4737,402.9153,0,2,2,2,1,,,,,,,,,,,,,,,,,,,,,,,,,,,,,,,,,,,,,,,,,,,,,,,,,
,,,,,,,,,65486ad91a5493d24f94d4d1,spanish,13 or older,"no, only English or Spanish",no,2025-08-13_17h51.17.160,empathy_intonation_perc,2024.2.4,Win32,166.6666667,65486ad91a5493d24f94d4d1,687ed1b7e638a4cbf2f02089,689d08b173b601b7851ce595,,,,,,,,,,,,,,0,,,,,,,,,,,,,,,,,,,,,,,,,,,,,,,,,,,,,,,,,,,,402.9181,406.0124,1,0,2.5839,,406.0126,406.6489,0,0,0,0,1,0,depiste,REAL,FAKE,,,,,,,,,,,,,,,,,,,,,,,,,,,,,,,,
,,,,,,,,,65486ad91a5493d24f94d4d1,spanish,13 or older,"no, only English or Spanish",no,2025-08-13_17h51.17.160,empathy_intonation_perc,2024.2.4,Win32,166.6666667,65486ad91a5493d24f94d4d1,687ed1b7e638a4cbf2f02089,689d08b173b601b7851ce595,,,,,,,,,,,,,,1,,,,,,,,,,,,,,,,,,,,,,,,,,,,,,,,,,,,,,,,,,,,406.6495,407.9154,1,1,0.7548,,407.9157,408.9154,0,1,1,1,1,0,sí,REAL,FAKE,,,,,,,,,,,,,,,,,,,,,,,,,,,,,,,,
,,,,,,,,,65486ad91a5493d24f94d4d1,spanish,13 or older,"no, only English or Spanish",no,2025-08-13_17h51.17.160,empathy_intonation_perc,2024.2.4,Win32,166.6666667,65486ad91a5493d24f94d4d1,687ed1b7e638a4cbf2f02089,689d08b173b601b7851ce595,,,,,,,,,,,,,,0,,,,,,,,,,,,,,,,,,,,,,,,,,,,,,,,,,,,,,,,,,,,408.916,410.5094,0,1,1.0798,,410.5094,411.5095,0,2,2,2,1,0,coné,REAL,FAKE,,,,,,,,,,,,,,,,,,,,,,,,,,,,,,,,
,,,,,,,,,65486ad91a5493d24f94d4d1,spanish,13 or older,"no, only English or Spanish",no,2025-08-13_17h51.17.160,empathy_intonation_perc,2024.2.4,Win32,166.6666667,65486ad91a5493d24f94d4d1,687ed1b7e638a4cbf2f02089,689d08b173b601b7851ce595,,,,,,,,,,,,,,0,,,,,,,,,,,,,,,,,,,,,,,,,,,,,,,,,,,,,,,,,,,,411.5098,412.7883,0,1,0.7657,,412.7883,413.7883,0,3,3,3,1,0,calpar,REAL,FAKE,,,,,,,,,,,,,,,,,,,,,,,,,,,,,,,,
,,,,,,,,,65486ad91a5493d24f94d4d1,spanish,13 or older,"no, only English or Spanish",no,2025-08-13_17h51.17.160,empathy_intonation_perc,2024.2.4,Win32,166.6666667,65486ad91a5493d24f94d4d1,687ed1b7e638a4cbf2f02089,689d08b173b601b7851ce595,,,,,,,,,,,,,,0,,,,,,,,,,,,,,,,,,,,,,,,,,,,,,,,,,,,,,,,,,,,413.7889,414.8973,0,1,0.5991,,414.8974,415.8974,0,4,4,4,1,0,joten,REAL,FAKE,,,,,,,,,,,,,,,,,,,,,,,,,,,,,,,,
,,,,,,,,,65486ad91a5493d24f94d4d1,spanish,13 or older,"no, only English or Spanish",no,2025-08-13_17h51.17.160,empathy_intonation_perc,2024.2.4,Win32,166.6666667,65486ad91a5493d24f94d4d1,687ed1b7e638a4cbf2f02089,689d08b173b601b7851ce595,,,,,,,,,,,,,,1,,,,,,,,,,,,,,,,,,,,,,,,,,,,,,,,,,,,,,,,,,,,415.8978,417.2187,0,0,0.8098,,417.219,418.2187,0,5,5,5,1,0,sacapuntas,REAL,FAKE,,,,,,,,,,,,,,,,,,,,,,,,,,,,,,,,
,,,,,,,,,65486ad91a5493d24f94d4d1,spanish,13 or older,"no, only English or Spanish",no,2025-08-13_17h51.17.160,empathy_intonation_perc,2024.2.4,Win32,166.6666667,65486ad91a5493d24f94d4d1,687ed1b7e638a4cbf2f02089,689d08b173b601b7851ce595,,,,,,,,,,,,,,0,,,,,,,,,,,,,,,,,,,,,,,,,,,,,,,,,,,,,,,,,,,,418.2194,419.5218,0,1,0.7925,,419.5221,420.5218,0,6,6,6,1,0,priba,REAL,FAKE,,,,,,,,,,,,,,,,,,,,,,,,,,,,,,,,
,,,,,,,,,65486ad91a5493d24f94d4d1,spanish,13 or older,"no, only English or Spanish",no,2025-08-13_17h51.17.160,empathy_intonation_perc,2024.2.4,Win32,166.6666667,65486ad91a5493d24f94d4d1,687ed1b7e638a4cbf2f02089,689d08b173b601b7851ce595,,,,,,,,,,,,,,0,,,,,,,,,,,,,,,,,,,,,,,,,,,,,,,,,,,,,,,,,,,,420.5223,422.4856,0,1,1.4493,,422.4856,423.4856,0,7,7,7,1,0,pelasula,REAL,FAKE,,,,,,,,,,,,,,,,,,,,,,,,,,,,,,,,
,,,,,,,,,65486ad91a5493d24f94d4d1,spanish,13 or older,"no, only English or Spanish",no,2025-08-13_17h51.17.160,empathy_intonation_perc,2024.2.4,Win32,166.6666667,65486ad91a5493d24f94d4d1,687ed1b7e638a4cbf2f02089,689d08b173b601b7851ce595,,,,,,,,,,,,,,1,,,,,,,,,,,,,,,,,,,,,,,,,,,,,,,,,,,,,,,,,,,,423.4859,424.5946,1,1,0.5981,,424.5946,425.5947,0,8,8,8,1,0,bien,REAL,FAKE,,,,,,,,,,,,,,,,,,,,,,,,,,,,,,,,
,,,,,,,,,65486ad91a5493d24f94d4d1,spanish,13 or older,"no, only English or Spanish",no,2025-08-13_17h51.17.160,empathy_intonation_perc,2024.2.4,Win32,166.6666667,65486ad91a5493d24f94d4d1,687ed1b7e638a4cbf2f02089,689d08b173b601b7851ce595,,,,,,,,,,,,,,1,,,,,,,,,,,,,,,,,,,,,,,,,,,,,,,,,,,,,,,,,,,,425.5953,426.7826,1,1,0.6729,,426.7827,427.7826,0,9,9,9,1,0,casa,REAL,FAKE,,,,,,,,,,,,,,,,,,,,,,,,,,,,,,,,
,,,,,,,,,65486ad91a5493d24f94d4d1,spanish,13 or older,"no, only English or Spanish",no,2025-08-13_17h51.17.160,empathy_intonation_perc,2024.2.4,Win32,166.6666667,65486ad91a5493d24f94d4d1,687ed1b7e638a4cbf2f02089,689d08b173b601b7851ce595,,,,,,,,,,,,,,0,,,,,,,,,,,,,,,,,,,,,,,,,,,,,,,,,,,,,,,,,,,,427.7831,429.0675,0,1,0.7726,,429.0675,430.0676,0,10,10,10,1,0,lejo,REAL,FAKE,,,,,,,,,,,,,,,,,,,,,,,,,,,,,,,,
,,,,,,,,,65486ad91a5493d24f94d4d1,spanish,13 or older,"no, only English or Spanish",no,2025-08-13_17h51.17.160,empathy_intonation_perc,2024.2.4,Win32,166.6666667,65486ad91a5493d24f94d4d1,687ed1b7e638a4cbf2f02089,689d08b173b601b7851ce595,,,,,,,,,,,,,,0,,,,,,,,,,,,,,,,,,,,,,,,,,,,,,,,,,,,,,,,,,,,430.0679,431.5161,0,1,0.9356,,431.5161,432.5161,0,11,11,11,1,0,pretantas,REAL,FAKE,,,,,,,,,,,,,,,,,,,,,,,,,,,,,,,,
,,,,,,,,,65486ad91a5493d24f94d4d1,spanish,13 or older,"no, only English or Spanish",no,2025-08-13_17h51.17.160,empathy_intonation_perc,2024.2.4,Win32,166.6666667,65486ad91a5493d24f94d4d1,687ed1b7e638a4cbf2f02089,689d08b173b601b7851ce595,,,,,,,,,,,,,,,,,,,,,,,,,,,,,,,,,,,,,,,,,,,,,,,,,,,,,,,,,,,,,,,,,,,,,,,,,,,432.5163,433.4193,,,,,,,,,,,,,,,,,,,,,,,,,,,,,,
,,,,,,,,,65486ad91a5493d24f94d4d1,spanish,13 or older,"no, only English or Spanish",no,2025-08-13_17h51.17.160,empathy_intonation_perc,2024.2.4,Win32,166.6666667,65486ad91a5493d24f94d4d1,687ed1b7e638a4cbf2f02089,689d08b173b601b7851ce595,,,,,,,,,,,,,,1,,,,,,,,,,,,,,,,,,,,,,,,,,,,,,,,,,,,,,,,,,,,,,,,,,,,,,,,,77,tiburón,,,,,433.4259,434.886,0,0,0.946,,0,0,0,76,1,REAL,FAKE,,,,,,,,,,,,,,,,,
,,,,,,,,,65486ad91a5493d24f94d4d1,spanish,13 or older,"no, only English or Spanish",no,2025-08-13_17h51.17.160,empathy_intonation_perc,2024.2.4,Win32,166.6666667,65486ad91a5493d24f94d4d1,687ed1b7e638a4cbf2f02089,689d08b173b601b7851ce595,,,,,,,,,,,,,,0,,,,,,,,,,,,,,,,,,,,,,,,,,,,,,,,,,,,,,,,,,,,,,,,,,,,,,,,,74,cintro,,,,,434.8864,436.0495,1,0,0.6532,,0,1,1,73,1,REAL,FAKE,,,,,,,,,,,,,,,,,
,,,,,,,,,65486ad91a5493d24f94d4d1,spanish,13 or older,"no, only English or Spanish",no,2025-08-13_17h51.17.160,empathy_intonation_perc,2024.2.4,Win32,166.6666667,65486ad91a5493d24f94d4d1,687ed1b7e638a4cbf2f02089,689d08b173b601b7851ce595,,,,,,,,,,,,,,0,,,,,,,,,,,,,,,,,,,,,,,,,,,,,,,,,,,,,,,,,,,,,,,,,,,,,,,,,23,lampera,,,,,436.0499,437.3163,1,0,0.7535,,0,2,2,22,1,REAL,FAKE,,,,,,,,,,,,,,,,,
,,,,,,,,,65486ad91a5493d24f94d4d1,spanish,13 or older,"no, only English or Spanish",no,2025-08-13_17h51.17.160,empathy_intonation_perc,2024.2.4,Win32,166.6666667,65486ad91a5493d24f94d4d1,687ed1b7e638a4cbf2f02089,689d08b173b601b7851ce595,,,,,,,,,,,,,,0,,,,,,,,,,,,,,,,,,,,,,,,,,,,,,,,,,,,,,,,,,,,,,,,,,,,,,,,,72,pemición,,,,,437.3167,438.5102,0,1,0.6792,,0,3,3,71,1,REAL,FAKE,,,,,,,,,,,,,,,,,
,,,,,,,,,65486ad91a5493d24f94d4d1,spanish,13 or older,"no, only English or Spanish",no,2025-08-13_17h51.17.160,empathy_intonation_perc,2024.2.4,Win32,166.6666667,65486ad91a5493d24f94d4d1,687ed1b7e638a4cbf2f02089,689d08b173b601b7851ce595,,,,,,,,,,,,,,0,,,,,,,,,,,,,,,,,,,,,,,,,,,,,,,,,,,,,,,,,,,,,,,,,,,,,,,,,87,grodo,,,,,438.5107,439.7345,0,1,0.7094,,0,4,4,86,1,REAL,FAKE,,,,,,,,,,,,,,,,,
,,,,,,,,,65486ad91a5493d24f94d4d1,spanish,13 or older,"no, only English or Spanish",no,2025-08-13_17h51.17.160,empathy_intonation_perc,2024.2.4,Win32,166.6666667,65486ad91a5493d24f94d4d1,687ed1b7e638a4cbf2f02089,689d08b173b601b7851ce595,,,,,,,,,,,,,,1,,,,,,,,,,,,,,,,,,,,,,,,,,,,,,,,,,,,,,,,,,,,,,,,,,,,,,,,,15,regar,,,,,439.7349,441.0254,0,0,0.7806,,0,5,5,14,1,REAL,FAKE,,,,,,,,,,,,,,,,,
,,,,,,,,,65486ad91a5493d24f94d4d1,spanish,13 or older,"no, only English or Spanish",no,2025-08-13_17h51.17.160,empathy_intonation_perc,2024.2.4,Win32,166.6666667,65486ad91a5493d24f94d4d1,687ed1b7e638a4cbf2f02089,689d08b173b601b7851ce595,,,,,,,,,,,,,,1,,,,,,,,,,,,,,,,,,,,,,,,,,,,,,,,,,,,,,,,,,,,,,,,,,,,,,,,,89,prisa,,,,,441.0258,442.2861,1,1,0.7459,,0,6,6,88,1,REAL,FAKE,,,,,,,,,,,,,,,,,
,,,,,,,,,65486ad91a5493d24f94d4d1,spanish,13 or older,"no, only English or Spanish",no,2025-08-13_17h51.17.160,empathy_intonation_perc,2024.2.4,Win32,166.6666667,65486ad91a5493d24f94d4d1,687ed1b7e638a4cbf2f02089,689d08b173b601b7851ce595,,,,,,,,,,,,,,1,,,,,,,,,,,,,,,,,,,,,,,,,,,,,,,,,,,,,,,,,,,,,,,,,,,,,,,,,64,orgulloso,,,,,442.2865,443.4255,0,0,0.629,,0,7,7,63,1,REAL,FAKE,,,,,,,,,,,,,,,,,
,,,,,,,,,65486ad91a5493d24f94d4d1,spanish,13 or older,"no, only English or Spanish",no,2025-08-13_17h51.17.160,empathy_intonation_perc,2024.2.4,Win32,166.6666667,65486ad91a5493d24f94d4d1,687ed1b7e638a4cbf2f02089,689d08b173b601b7851ce595,,,,,,,,,,,,,,1,,,,,,,,,,,,,,,,,,,,,,,,,,,,,,,,,,,,,,,,,,,,,,,,,,,,,,,,,88,acantilado,,,,,443.4259,444.5892,0,0,0.6496,,0,8,8,87,1,REAL,FAKE,,,,,,,,,,,,,,,,,
,,,,,,,,,65486ad91a5493d24f94d4d1,spanish,13 or older,"no, only English or Spanish",no,2025-08-13_17h51.17.160,empathy_intonation_perc,2024.2.4,Win32,166.6666667,65486ad91a5493d24f94d4d1,687ed1b7e638a4cbf2f02089,689d08b173b601b7851ce595,,,,,,,,,,,,,,1,,,,,,,,,,,,,,,,,,,,,,,,,,,,,,,,,,,,,,,,,,,,,,,,,,,,,,,,,39,torpe,,,,,444.5896,445.6498,0,0,0.5499,,0,9,9,38,1,REAL,FAKE,,,,,,,,,,,,,,,,,
,,,,,,,,,65486ad91a5493d24f94d4d1,spanish,13 or older,"no, only English or Spanish",no,2025-08-13_17h51.17.160,empathy_intonation_perc,2024.2.4,Win32,166.6666667,65486ad91a5493d24f94d4d1,687ed1b7e638a4cbf2f02089,689d08b173b601b7851ce595,,,,,,,,,,,,,,0,,,,,,,,,,,,,,,,,,,,,,,,,,,,,,,,,,,,,,,,,,,,,,,,,,,,,,,,,18,arsa,,,,,445.6502,446.8681,0,1,0.7053,,0,10,10,17,1,REAL,FAKE,,,,,,,,,,,,,,,,,
,,,,,,,,,65486ad91a5493d24f94d4d1,spanish,13 or older,"no, only English or Spanish",no,2025-08-13_17h51.17.160,empathy_intonation_perc,2024.2.4,Win32,166.6666667,65486ad91a5493d24f94d4d1,687ed1b7e638a4cbf2f02089,689d08b173b601b7851ce595,,,,,,,,,,,,,,1,,,,,,,,,,,,,,,,,,,,,,,,,,,,,,,,,,,,,,,,,,,,,,,,,,,,,,,,,3,pulmones,,,,,446.8684,447.8923,0,0,0.5111,,0,11,11,2,1,REAL,FAKE,,,,,,,,,,,,,,,,,
,,,,,,,,,65486ad91a5493d24f94d4d1,spanish,13 or older,"no, only English or Spanish",no,2025-08-13_17h51.17.160,empathy_intonation_perc,2024.2.4,Win32,166.6666667,65486ad91a5493d24f94d4d1,687ed1b7e638a4cbf2f02089,689d08b173b601b7851ce595,,,,,,,,,,,,,,0,,,,,,,,,,,,,,,,,,,,,,,,,,,,,,,,,,,,,,,,,,,,,,,,,,,,,,,,,70,temblo,,,,,447.8927,449.1288,1,0,0.7269,,0,12,12,69,1,REAL,FAKE,,,,,,,,,,,,,,,,,
,,,,,,,,,65486ad91a5493d24f94d4d1,spanish,13 or older,"no, only English or Spanish",no,2025-08-13_17h51.17.160,empathy_intonation_perc,2024.2.4,Win32,166.6666667,65486ad91a5493d24f94d4d1,687ed1b7e638a4cbf2f02089,689d08b173b601b7851ce595,,,,,,,,,,,,,,0,,,,,,,,,,,,,,,,,,,,,,,,,,,,,,,,,,,,,,,,,,,,,,,,,,,,,,,,,66,hacido,,,,,449.1292,450.3166,1,0,0.6745,,0,13,13,65,1,REAL,FAKE,,,,,,,,,,,,,,,,,
,,,,,,,,,65486ad91a5493d24f94d4d1,spanish,13 or older,"no, only English or Spanish",no,2025-08-13_17h51.17.160,empathy_intonation_perc,2024.2.4,Win32,166.6666667,65486ad91a5493d24f94d4d1,687ed1b7e638a4cbf2f02089,689d08b173b601b7851ce595,,,,,,,,,,,,,,1,,,,,,,,,,,,,,,,,,,,,,,,,,,,,,,,,,,,,,,,,,,,,,,,,,,,,,,,,86,barato,,,,,450.317,451.5409,0,0,0.7105,,0,14,14,85,1,REAL,FAKE,,,,,,,,,,,,,,,,,
,,,,,,,,,65486ad91a5493d24f94d4d1,spanish,13 or older,"no, only English or Spanish",no,2025-08-13_17h51.17.160,empathy_intonation_perc,2024.2.4,Win32,166.6666667,65486ad91a5493d24f94d4d1,687ed1b7e638a4cbf2f02089,689d08b173b601b7851ce595,,,,,,,,,,,,,,1,,,,,,,,,,,,,,,,,,,,,,,,,,,,,,,,,,,,,,,,,,,,,,,,,,,,,,,,,51,candado,,,,,451.5413,452.9288,1,1,0.8781,,0,15,15,50,1,REAL,FAKE,,,,,,,,,,,,,,,,,
,,,,,,,,,65486ad91a5493d24f94d4d1,spanish,13 or older,"no, only English or Spanish",no,2025-08-13_17h51.17.160,empathy_intonation_perc,2024.2.4,Win32,166.6666667,65486ad91a5493d24f94d4d1,687ed1b7e638a4cbf2f02089,689d08b173b601b7851ce595,,,,,,,,,,,,,,1,,,,,,,,,,,,,,,,,,,,,,,,,,,,,,,,,,,,,,,,,,,,,,,,,,,,,,,,,14,yunque,,,,,452.9291,453.9894,0,0,0.5462,,0,16,16,13,1,REAL,FAKE,,,,,,,,,,,,,,,,,
,,,,,,,,,65486ad91a5493d24f94d4d1,spanish,13 or older,"no, only English or Spanish",no,2025-08-13_17h51.17.160,empathy_intonation_perc,2024.2.4,Win32,166.6666667,65486ad91a5493d24f94d4d1,687ed1b7e638a4cbf2f02089,689d08b173b601b7851ce595,,,,,,,,,,,,,,1,,,,,,,,,,,,,,,,,,,,,,,,,,,,,,,,,,,,,,,,,,,,,,,,,,,,,,,,,68,alegre,,,,,453.9898,456.2137,1,1,1.7097,,0,17,17,67,1,REAL,FAKE,,,,,,,,,,,,,,,,,
,,,,,,,,,65486ad91a5493d24f94d4d1,spanish,13 or older,"no, only English or Spanish",no,2025-08-13_17h51.17.160,empathy_intonation_perc,2024.2.4,Win32,166.6666667,65486ad91a5493d24f94d4d1,687ed1b7e638a4cbf2f02089,689d08b173b601b7851ce595,,,,,,,,,,,,,,0,,,,,,,,,,,,,,,,,,,,,,,,,,,,,,,,,,,,,,,,,,,,,,,,,,,,,,,,,17,floroso,,,,,456.2141,458.2623,0,1,1.5338,,0,18,18,16,1,REAL,FAKE,,,,,,,,,,,,,,,,,
,,,,,,,,,65486ad91a5493d24f94d4d1,spanish,13 or older,"no, only English or Spanish",no,2025-08-13_17h51.17.160,empathy_intonation_perc,2024.2.4,Win32,166.6666667,65486ad91a5493d24f94d4d1,687ed1b7e638a4cbf2f02089,689d08b173b601b7851ce595,,,,,,,,,,,,,,1,,,,,,,,,,,,,,,,,,,,,,,,,,,,,,,,,,,,,,,,,,,,,,,,,,,,,,,,,80,hormiga,,,,,458.2627,459.7896,0,0,1.0128,,0,19,19,79,1,REAL,FAKE,,,,,,,,,,,,,,,,,
,,,,,,,,,65486ad91a5493d24f94d4d1,spanish,13 or older,"no, only English or Spanish",no,2025-08-13_17h51.17.160,empathy_intonation_perc,2024.2.4,Win32,166.6666667,65486ad91a5493d24f94d4d1,687ed1b7e638a4cbf2f02089,689d08b173b601b7851ce595,,,,,,,,,,,,,,1,,,,,,,,,,,,,,,,,,,,,,,,,,,,,,,,,,,,,,,,,,,,,,,,,,,,,,,,,69,engatusar,,,,,459.79,460.9169,0,0,0.6135,,0,20,20,68,1,REAL,FAKE,,,,,,,,,,,,,,,,,
,,,,,,,,,65486ad91a5493d24f94d4d1,spanish,13 or older,"no, only English or Spanish",no,2025-08-13_17h51.17.160,empathy_intonation_perc,2024.2.4,Win32,166.6666667,65486ad91a5493d24f94d4d1,687ed1b7e638a4cbf2f02089,689d08b173b601b7851ce595,,,,,,,,,,,,,,1,,,,,,,,,,,,,,,,,,,,,,,,,,,,,,,,,,,,,,,,,,,,,,,,,,,,,,,,,85,laúd,,,,,460.9174,462.1472,0,0,0.7183,,0,21,21,84,1,REAL,FAKE,,,,,,,,,,,,,,,,,
,,,,,,,,,65486ad91a5493d24f94d4d1,spanish,13 or older,"no, only English or Spanish",no,2025-08-13_17h51.17.160,empathy_intonation_perc,2024.2.4,Win32,166.6666667,65486ad91a5493d24f94d4d1,687ed1b7e638a4cbf2f02089,689d08b173b601b7851ce595,,,,,,,,,,,,,,1,,,,,,,,,,,,,,,,,,,,,,,,,,,,,,,,,,,,,,,,,,,,,,,,,,,,,,,,,81,pozo,,,,,462.1478,463.3655,0,0,0.7039,,0,22,22,80,1,REAL,FAKE,,,,,,,,,,,,,,,,,
,,,,,,,,,65486ad91a5493d24f94d4d1,spanish,13 or older,"no, only English or Spanish",no,2025-08-13_17h51.17.160,empathy_intonation_perc,2024.2.4,Win32,166.6666667,65486ad91a5493d24f94d4d1,687ed1b7e638a4cbf2f02089,689d08b173b601b7851ce595,,,,,,,,,,,,,,1,,,,,,,,,,,,,,,,,,,,,,,,,,,,,,,,,,,,,,,,,,,,,,,,,,,,,,,,,6,tergiversar,,,,,463.3661,464.5049,0,0,0.6297,,0,23,23,5,1,REAL,FAKE,,,,,,,,,,,,,,,,,
,,,,,,,,,65486ad91a5493d24f94d4d1,spanish,13 or older,"no, only English or Spanish",no,2025-08-13_17h51.17.160,empathy_intonation_perc,2024.2.4,Win32,166.6666667,65486ad91a5493d24f94d4d1,687ed1b7e638a4cbf2f02089,689d08b173b601b7851ce595,,,,,,,,,,,,,,1,,,,,,,,,,,,,,,,,,,,,,,,,,,,,,,,,,,,,,,,,,,,,,,,,,,,,,,,,43,canela,,,,,464.5053,465.6847,1,1,0.6663,,0,24,24,42,1,REAL,FAKE,,,,,,,,,,,,,,,,,
,,,,,,,,,65486ad91a5493d24f94d4d1,spanish,13 or older,"no, only English or Spanish",no,2025-08-13_17h51.17.160,empathy_intonation_perc,2024.2.4,Win32,166.6666667,65486ad91a5493d24f94d4d1,687ed1b7e638a4cbf2f02089,689d08b173b601b7851ce595,,,,,,,,,,,,,,1,,,,,,,,,,,,,,,,,,,,,,,,,,,,,,,,,,,,,,,,,,,,,,,,,,,,,,,,,36,loro,,,,,465.6851,466.7696,0,0,0.5744,,0,25,25,35,1,REAL,FAKE,,,,,,,,,,,,,,,,,
,,,,,,,,,65486ad91a5493d24f94d4d1,spanish,13 or older,"no, only English or Spanish",no,2025-08-13_17h51.17.160,empathy_intonation_perc,2024.2.4,Win32,166.6666667,65486ad91a5493d24f94d4d1,687ed1b7e638a4cbf2f02089,689d08b173b601b7851ce595,,,,,,,,,,,,,,1,,,,,,,,,,,,,,,,,,,,,,,,,,,,,,,,,,,,,,,,,,,,,,,,,,,,,,,,,49,ganar,,,,,466.7699,468.1555,1,1,0.8756,,0,26,26,48,1,REAL,FAKE,,,,,,,,,,,,,,,,,
,,,,,,,,,65486ad91a5493d24f94d4d1,spanish,13 or older,"no, only English or Spanish",no,2025-08-13_17h51.17.160,empathy_intonation_perc,2024.2.4,Win32,166.6666667,65486ad91a5493d24f94d4d1,687ed1b7e638a4cbf2f02089,689d08b173b601b7851ce595,,,,,,,,,,,,,,0,,,,,,,,,,,,,,,,,,,,,,,,,,,,,,,,,,,,,,,,,,,,,,,,,,,,,,,,,21,capillo,,,,,468.1558,469.398,1,0,0.7277,,0,27,27,20,1,REAL,FAKE,,,,,,,,,,,,,,,,,
,,,,,,,,,65486ad91a5493d24f94d4d1,spanish,13 or older,"no, only English or Spanish",no,2025-08-13_17h51.17.160,empathy_intonation_perc,2024.2.4,Win32,166.6666667,65486ad91a5493d24f94d4d1,687ed1b7e638a4cbf2f02089,689d08b173b601b7851ce595,,,,,,,,,,,,,,1,,,,,,,,,,,,,,,,,,,,,,,,,,,,,,,,,,,,,,,,,,,,,,,,,,,,,,,,,75,yacer,,,,,469.3983,470.4889,0,0,0.5812,,0,28,28,74,1,REAL,FAKE,,,,,,,,,,,,,,,,,
,,,,,,,,,65486ad91a5493d24f94d4d1,spanish,13 or older,"no, only English or Spanish",no,2025-08-13_17h51.17.160,empathy_intonation_perc,2024.2.4,Win32,166.6666667,65486ad91a5493d24f94d4d1,687ed1b7e638a4cbf2f02089,689d08b173b601b7851ce595,,,,,,,,,,,,,,0,,,,,,,,,,,,,,,,,,,,,,,,,,,,,,,,,,,,,,,,,,,,,,,,,,,,,,,,,1,terzo,,,,,470.4894,471.598,0,1,0.5944,,0,29,29,0,1,REAL,FAKE,,,,,,,,,,,,,,,,,
,,,,,,,,,65486ad91a5493d24f94d4d1,spanish,13 or older,"no, only English or Spanish",no,2025-08-13_17h51.17.160,empathy_intonation_perc,2024.2.4,Win32,166.6666667,65486ad91a5493d24f94d4d1,687ed1b7e638a4cbf2f02089,689d08b173b601b7851ce595,,,,,,,,,,,,,,1,,,,,,,,,,,,,,,,,,,,,,,,,,,,,,,,,,,,,,,,,,,,,,,,,,,,,,,,,7,pésimo,,,,,471.5985,473.0526,0,0,0.9412,,0,30,30,6,1,REAL,FAKE,,,,,,,,,,,,,,,,,
,,,,,,,,,65486ad91a5493d24f94d4d1,spanish,13 or older,"no, only English or Spanish",no,2025-08-13_17h51.17.160,empathy_intonation_perc,2024.2.4,Win32,166.6666667,65486ad91a5493d24f94d4d1,687ed1b7e638a4cbf2f02089,689d08b173b601b7851ce595,,,,,,,,,,,,,,1,,,,,,,,,,,,,,,,,,,,,,,,,,,,,,,,,,,,,,,,,,,,,,,,,,,,,,,,,59,besar,,,,,473.0529,474.5254,1,1,0.9584,,0,31,31,58,1,REAL,FAKE,,,,,,,,,,,,,,,,,
,,,,,,,,,65486ad91a5493d24f94d4d1,spanish,13 or older,"no, only English or Spanish",no,2025-08-13_17h51.17.160,empathy_intonation_perc,2024.2.4,Win32,166.6666667,65486ad91a5493d24f94d4d1,687ed1b7e638a4cbf2f02089,689d08b173b601b7851ce595,,,,,,,,,,,,,,1,,,,,,,,,,,,,,,,,,,,,,,,,,,,,,,,,,,,,,,,,,,,,,,,,,,,,,,,,55,nevar,,,,,474.5257,476.2648,0,0,1.2297,,0,32,32,54,1,REAL,FAKE,,,,,,,,,,,,,,,,,
,,,,,,,,,65486ad91a5493d24f94d4d1,spanish,13 or older,"no, only English or Spanish",no,2025-08-13_17h51.17.160,empathy_intonation_perc,2024.2.4,Win32,166.6666667,65486ad91a5493d24f94d4d1,687ed1b7e638a4cbf2f02089,689d08b173b601b7851ce595,,,,,,,,,,,,,,1,,,,,,,,,,,,,,,,,,,,,,,,,,,,,,,,,,,,,,,,,,,,,,,,,,,,,,,,,25,bisagra,,,,,476.2652,477.6407,0,0,0.8663,,0,33,33,24,1,REAL,FAKE,,,,,,,,,,,,,,,,,
,,,,,,,,,65486ad91a5493d24f94d4d1,spanish,13 or older,"no, only English or Spanish",no,2025-08-13_17h51.17.160,empathy_intonation_perc,2024.2.4,Win32,166.6666667,65486ad91a5493d24f94d4d1,687ed1b7e638a4cbf2f02089,689d08b173b601b7851ce595,,,,,,,,,,,,,,1,,,,,,,,,,,,,,,,,,,,,,,,,,,,,,,,,,,,,,,,,,,,,,,,,,,,,,,,,44,cuchara,,,,,477.6412,478.8891,1,1,0.7386,,0,34,34,43,1,REAL,FAKE,,,,,,,,,,,,,,,,,
,,,,,,,,,65486ad91a5493d24f94d4d1,spanish,13 or older,"no, only English or Spanish",no,2025-08-13_17h51.17.160,empathy_intonation_perc,2024.2.4,Win32,166.6666667,65486ad91a5493d24f94d4d1,687ed1b7e638a4cbf2f02089,689d08b173b601b7851ce595,,,,,,,,,,,,,,1,,,,,,,,,,,,,,,,,,,,,,,,,,,,,,,,,,,,,,,,,,,,,,,,,,,,,,,,,60,matar,,,,,478.8895,480.0044,0,0,0.6021,,0,35,35,59,1,REAL,FAKE,,,,,,,,,,,,,,,,,
,,,,,,,,,65486ad91a5493d24f94d4d1,spanish,13 or older,"no, only English or Spanish",no,2025-08-13_17h51.17.160,empathy_intonation_perc,2024.2.4,Win32,166.6666667,65486ad91a5493d24f94d4d1,687ed1b7e638a4cbf2f02089,689d08b173b601b7851ce595,,,,,,,,,,,,,,1,,,,,,,,,,,,,,,,,,,,,,,,,,,,,,,,,,,,,,,,,,,,,,,,,,,,,,,,,57,tacaño,,,,,480.0049,481.1619,1,1,0.6469,,0,36,36,56,1,REAL,FAKE,,,,,,,,,,,,,,,,,
,,,,,,,,,65486ad91a5493d24f94d4d1,spanish,13 or older,"no, only English or Spanish",no,2025-08-13_17h51.17.160,empathy_intonation_perc,2024.2.4,Win32,166.6666667,65486ad91a5493d24f94d4d1,687ed1b7e638a4cbf2f02089,689d08b173b601b7851ce595,,,,,,,,,,,,,,1,,,,,,,,,,,,,,,,,,,,,,,,,,,,,,,,,,,,,,,,,,,,,,,,,,,,,,,,,2,pellizcar,,,,,481.1623,482.3013,0,0,0.6251,,0,37,37,1,1,REAL,FAKE,,,,,,,,,,,,,,,,,
,,,,,,,,,65486ad91a5493d24f94d4d1,spanish,13 or older,"no, only English or Spanish",no,2025-08-13_17h51.17.160,empathy_intonation_perc,2024.2.4,Win32,166.6666667,65486ad91a5493d24f94d4d1,687ed1b7e638a4cbf2f02089,689d08b173b601b7851ce595,,,,,,,,,,,,,,1,,,,,,,,,,,,,,,,,,,,,,,,,,,,,,,,,,,,,,,,,,,,,,,,,,,,,,,,,40,alfombra,,,,,482.3019,483.3862,0,0,0.5738,,0,38,38,39,1,REAL,FAKE,,,,,,,,,,,,,,,,,
,,,,,,,,,65486ad91a5493d24f94d4d1,spanish,13 or older,"no, only English or Spanish",no,2025-08-13_17h51.17.160,empathy_intonation_perc,2024.2.4,Win32,166.6666667,65486ad91a5493d24f94d4d1,687ed1b7e638a4cbf2f02089,689d08b173b601b7851ce595,,,,,,,,,,,,,,1,,,,,,,,,,,,,,,,,,,,,,,,,,,,,,,,,,,,,,,,,,,,,,,,,,,,,,,,,62,flaco,,,,,483.3865,484.659,1,1,0.7609,,0,39,39,61,1,REAL,FAKE,,,,,,,,,,,,,,,,,
,,,,,,,,,65486ad91a5493d24f94d4d1,spanish,13 or older,"no, only English or Spanish",no,2025-08-13_17h51.17.160,empathy_intonation_perc,2024.2.4,Win32,166.6666667,65486ad91a5493d24f94d4d1,687ed1b7e638a4cbf2f02089,689d08b173b601b7851ce595,,,,,,,,,,,,,,0,,,,,,,,,,,,,,,,,,,,,,,,,,,,,,,,,,,,,,,,,,,,,,,,,,,,,,,,,82,empirador,,,,,484.6594,485.6651,0,1,0.4961,,0,40,40,81,1,REAL,FAKE,,,,,,,,,,,,,,,,,
,,,,,,,,,65486ad91a5493d24f94d4d1,spanish,13 or older,"no, only English or Spanish",no,2025-08-13_17h51.17.160,empathy_intonation_perc,2024.2.4,Win32,166.6666667,65486ad91a5493d24f94d4d1,687ed1b7e638a4cbf2f02089,689d08b173b601b7851ce595,,,,,,,,,,,,,,0,,,,,,,,,,,,,,,,,,,,,,,,,,,,,,,,,,,,,,,,,,,,,,,,,,,,,,,,,10,antar,,,,,485.6654,486.8206,0,1,0.6419,,0,41,41,9,1,REAL,FAKE,,,,,,,,,,,,,,,,,
,,,,,,,,,65486ad91a5493d24f94d4d1,spanish,13 or older,"no, only English or Spanish",no,2025-08-13_17h51.17.160,empathy_intonation_perc,2024.2.4,Win32,166.6666667,65486ad91a5493d24f94d4d1,687ed1b7e638a4cbf2f02089,689d08b173b601b7851ce595,,,,,,,,,,,,,,1,,,,,,,,,,,,,,,,,,,,,,,,,,,,,,,,,,,,,,,,,,,,,,,,,,,,,,,,,31,pandilla,,,,,486.821,488.0509,0,0,0.7184,,0,42,42,30,1,REAL,FAKE,,,,,,,,,,,,,,,,,
,,,,,,,,,65486ad91a5493d24f94d4d1,spanish,13 or older,"no, only English or Spanish",no,2025-08-13_17h51.17.160,empathy_intonation_perc,2024.2.4,Win32,166.6666667,65486ad91a5493d24f94d4d1,687ed1b7e638a4cbf2f02089,689d08b173b601b7851ce595,,,,,,,,,,,,,,0,,,,,,,,,,,,,,,,,,,,,,,,,,,,,,,,,,,,,,,,,,,,,,,,,,,,,,,,,58,plaudir,,,,,488.0514,489.5298,0,1,0.9681,,0,43,43,57,1,REAL,FAKE,,,,,,,,,,,,,,,,,
,,,,,,,,,65486ad91a5493d24f94d4d1,spanish,13 or older,"no, only English or Spanish",no,2025-08-13_17h51.17.160,empathy_intonation_perc,2024.2.4,Win32,166.6666667,65486ad91a5493d24f94d4d1,687ed1b7e638a4cbf2f02089,689d08b173b601b7851ce595,,,,,,,,,,,,,,1,,,,,,,,,,,,,,,,,,,,,,,,,,,,,,,,,,,,,,,,,,,,,,,,,,,,,,,,,71,polvoriento,,,,,489.5302,490.5298,0,0,0.4894,,0,44,44,70,1,REAL,FAKE,,,,,,,,,,,,,,,,,
,,,,,,,,,65486ad91a5493d24f94d4d1,spanish,13 or older,"no, only English or Spanish",no,2025-08-13_17h51.17.160,empathy_intonation_perc,2024.2.4,Win32,166.6666667,65486ad91a5493d24f94d4d1,687ed1b7e638a4cbf2f02089,689d08b173b601b7851ce595,,,,,,,,,,,,,,0,,,,,,,,,,,,,,,,,,,,,,,,,,,,,,,,,,,,,,,,,,,,,,,,,,,,,,,,,42,cadallo,,,,,490.5302,491.6026,0,1,0.5612,,0,45,45,41,1,REAL,FAKE,,,,,,,,,,,,,,,,,
,,,,,,,,,65486ad91a5493d24f94d4d1,spanish,13 or older,"no, only English or Spanish",no,2025-08-13_17h51.17.160,empathy_intonation_perc,2024.2.4,Win32,166.6666667,65486ad91a5493d24f94d4d1,687ed1b7e638a4cbf2f02089,689d08b173b601b7851ce595,,,,,,,,,,,,,,1,,,,,,,,,,,,,,,,,,,,,,,,,,,,,,,,,,,,,,,,,,,,,,,,,,,,,,,,,11,cenefa,,,,,491.603,492.6754,0,0,0.5605,,0,46,46,10,1,REAL,FAKE,,,,,,,,,,,,,,,,,
,,,,,,,,,65486ad91a5493d24f94d4d1,spanish,13 or older,"no, only English or Spanish",no,2025-08-13_17h51.17.160,empathy_intonation_perc,2024.2.4,Win32,166.6666667,65486ad91a5493d24f94d4d1,687ed1b7e638a4cbf2f02089,689d08b173b601b7851ce595,,,,,,,,,,,,,,1,,,,,,,,,,,,,,,,,,,,,,,,,,,,,,,,,,,,,,,,,,,,,,,,,,,,,,,,,73,hervidor,,,,,492.6757,493.6269,0,0,0.4397,,0,47,47,72,1,REAL,FAKE,,,,,,,,,,,,,,,,,
,,,,,,,,,65486ad91a5493d24f94d4d1,spanish,13 or older,"no, only English or Spanish",no,2025-08-13_17h51.17.160,empathy_intonation_perc,2024.2.4,Win32,166.6666667,65486ad91a5493d24f94d4d1,687ed1b7e638a4cbf2f02089,689d08b173b601b7851ce595,,,,,,,,,,,,,,1,,,,,,,,,,,,,,,,,,,,,,,,,,,,,,,,,,,,,,,,,,,,,,,,,,,,,,,,,12,asesinato,,,,,493.6273,494.5663,0,0,0.4245,,0,48,48,11,1,REAL,FAKE,,,,,,,,,,,,,,,,,
,,,,,,,,,65486ad91a5493d24f94d4d1,spanish,13 or older,"no, only English or Spanish",no,2025-08-13_17h51.17.160,empathy_intonation_perc,2024.2.4,Win32,166.6666667,65486ad91a5493d24f94d4d1,687ed1b7e638a4cbf2f02089,689d08b173b601b7851ce595,,,,,,,,,,,,,,0,,,,,,,,,,,,,,,,,,,,,,,,,,,,,,,,,,,,,,,,,,,,,,,,,,,,,,,,,84,escuto,,,,,494.5667,495.6755,0,1,0.5967,,0,49,49,83,1,REAL,FAKE,,,,,,,,,,,,,,,,,
,,,,,,,,,65486ad91a5493d24f94d4d1,spanish,13 or older,"no, only English or Spanish",no,2025-08-13_17h51.17.160,empathy_intonation_perc,2024.2.4,Win32,166.6666667,65486ad91a5493d24f94d4d1,687ed1b7e638a4cbf2f02089,689d08b173b601b7851ce595,,,,,,,,,,,,,,0,,,,,,,,,,,,,,,,,,,,,,,,,,,,,,,,,,,,,,,,,,,,,,,,,,,,,,,,,79,tropaje,,,,,495.6758,496.8815,0,1,0.6957,,0,50,50,78,1,REAL,FAKE,,,,,,,,,,,,,,,,,
,,,,,,,,,65486ad91a5493d24f94d4d1,spanish,13 or older,"no, only English or Spanish",no,2025-08-13_17h51.17.160,empathy_intonation_perc,2024.2.4,Win32,166.6666667,65486ad91a5493d24f94d4d1,687ed1b7e638a4cbf2f02089,689d08b173b601b7851ce595,,,,,,,,,,,,,,1,,,,,,,,,,,,,,,,,,,,,,,,,,,,,,,,,,,,,,,,,,,,,,,,,,,,,,,,,65,bizcocho,,,,,496.8819,497.821,0,0,0.4255,,0,51,51,64,1,REAL,FAKE,,,,,,,,,,,,,,,,,
,,,,,,,,,65486ad91a5493d24f94d4d1,spanish,13 or older,"no, only English or Spanish",no,2025-08-13_17h51.17.160,empathy_intonation_perc,2024.2.4,Win32,166.6666667,65486ad91a5493d24f94d4d1,687ed1b7e638a4cbf2f02089,689d08b173b601b7851ce595,,,,,,,,,,,,,,1,,,,,,,,,,,,,,,,,,,,,,,,,,,,,,,,,,,,,,,,,,,,,,,,,,,,,,,,,38,estornudar,,,,,497.8214,498.8756,0,0,0.5422,,0,52,52,37,1,REAL,FAKE,,,,,,,,,,,,,,,,,
,,,,,,,,,65486ad91a5493d24f94d4d1,spanish,13 or older,"no, only English or Spanish",no,2025-08-13_17h51.17.160,empathy_intonation_perc,2024.2.4,Win32,166.6666667,65486ad91a5493d24f94d4d1,687ed1b7e638a4cbf2f02089,689d08b173b601b7851ce595,,,,,,,,,,,,,,1,,,,,,,,,,,,,,,,,,,,,,,,,,,,,,,,,,,,,,,,,,,,,,,,,,,,,,,,,37,granuja,,,,,498.8759,499.9544,0,0,0.5674,,0,53,53,36,1,REAL,FAKE,,,,,,,,,,,,,,,,,
,,,,,,,,,65486ad91a5493d24f94d4d1,spanish,13 or older,"no, only English or Spanish",no,2025-08-13_17h51.17.160,empathy_intonation_perc,2024.2.4,Win32,166.6666667,65486ad91a5493d24f94d4d1,687ed1b7e638a4cbf2f02089,689d08b173b601b7851ce595,,,,,,,,,,,,,,0,,,,,,,,,,,,,,,,,,,,,,,,,,,,,,,,,,,,,,,,,,,,,,,,,,,,,,,,,32,fatacidad,,,,,499.9547,500.918,0,1,0.4487,,0,54,54,31,1,REAL,FAKE,,,,,,,,,,,,,,,,,
,,,,,,,,,65486ad91a5493d24f94d4d1,spanish,13 or older,"no, only English or Spanish",no,2025-08-13_17h51.17.160,empathy_intonation_perc,2024.2.4,Win32,166.6666667,65486ad91a5493d24f94d4d1,687ed1b7e638a4cbf2f02089,689d08b173b601b7851ce595,,,,,,,,,,,,,,0,,,,,,,,,,,,,,,,,,,,,,,,,,,,,,,,,,,,,,,,,,,,,,,,,,,,,,,,,19,brecedad,,,,,500.9185,501.8938,0,1,0.461,,0,55,55,18,1,REAL,FAKE,,,,,,,,,,,,,,,,,
,,,,,,,,,65486ad91a5493d24f94d4d1,spanish,13 or older,"no, only English or Spanish",no,2025-08-13_17h51.17.160,empathy_intonation_perc,2024.2.4,Win32,166.6666667,65486ad91a5493d24f94d4d1,687ed1b7e638a4cbf2f02089,689d08b173b601b7851ce595,,,,,,,,,,,,,,0,,,,,,,,,,,,,,,,,,,,,,,,,,,,,,,,,,,,,,,,,,,,,,,,,,,,,,,,,33,pauca,,,,,501.8943,502.9665,0,1,0.5578,,0,56,56,32,1,REAL,FAKE,,,,,,,,,,,,,,,,,
,,,,,,,,,65486ad91a5493d24f94d4d1,spanish,13 or older,"no, only English or Spanish",no,2025-08-13_17h51.17.160,empathy_intonation_perc,2024.2.4,Win32,166.6666667,65486ad91a5493d24f94d4d1,687ed1b7e638a4cbf2f02089,689d08b173b601b7851ce595,,,,,,,,,,,,,,1,,,,,,,,,,,,,,,,,,,,,,,,,,,,,,,,,,,,,,,,,,,,,,,,,,,,,,,,,91,click the 1 key.,,,,,502.9672,504.5726,1,1,1.0924,,0,57,57,90,1,REAL,FAKE,,,,,,,,,,,,,,,,,
,,,,,,,,,65486ad91a5493d24f94d4d1,spanish,13 or older,"no, only English or Spanish",no,2025-08-13_17h51.17.160,empathy_intonation_perc,2024.2.4,Win32,166.6666667,65486ad91a5493d24f94d4d1,687ed1b7e638a4cbf2f02089,689d08b173b601b7851ce595,,,,,,,,,,,,,,1,,,,,,,,,,,,,,,,,,,,,,,,,,,,,,,,,,,,,,,,,,,,,,,,,,,,,,,,,52,camisa,,,,,504.5731,505.8454,1,1,0.7584,,0,58,58,51,1,REAL,FAKE,,,,,,,,,,,,,,,,,
,,,,,,,,,65486ad91a5493d24f94d4d1,spanish,13 or older,"no, only English or Spanish",no,2025-08-13_17h51.17.160,empathy_intonation_perc,2024.2.4,Win32,166.6666667,65486ad91a5493d24f94d4d1,687ed1b7e638a4cbf2f02089,689d08b173b601b7851ce595,,,,,,,,,,,,,,0,,,,,,,,,,,,,,,,,,,,,,,,,,,,,,,,,,,,,,,,,,,,,,,,,,,,,,,,,8,cadeña,,,,,505.8457,507.6758,1,0,1.3176,,0,59,59,7,1,REAL,FAKE,,,,,,,,,,,,,,,,,
,,,,,,,,,65486ad91a5493d24f94d4d1,spanish,13 or older,"no, only English or Spanish",no,2025-08-13_17h51.17.160,empathy_intonation_perc,2024.2.4,Win32,166.6666667,65486ad91a5493d24f94d4d1,687ed1b7e638a4cbf2f02089,689d08b173b601b7851ce595,,,,,,,,,,,,,,0,,,,,,,,,,,,,,,,,,,,,,,,,,,,,,,,,,,,,,,,,,,,,,,,,,,,,,,,,50,flamida,,,,,507.6761,509.1486,0,1,0.9592,,0,60,60,49,1,REAL,FAKE,,,,,,,,,,,,,,,,,
,,,,,,,,,65486ad91a5493d24f94d4d1,spanish,13 or older,"no, only English or Spanish",no,2025-08-13_17h51.17.160,empathy_intonation_perc,2024.2.4,Win32,166.6666667,65486ad91a5493d24f94d4d1,687ed1b7e638a4cbf2f02089,689d08b173b601b7851ce595,,,,,,,,,,,,,,1,,,,,,,,,,,,,,,,,,,,,,,,,,,,,,,,,,,,,,,,,,,,,,,,,,,,,,,,,26,secuestro,,,,,509.1489,510.7547,0,0,1.0944,,0,61,61,25,1,REAL,FAKE,,,,,,,,,,,,,,,,,
,,,,,,,,,65486ad91a5493d24f94d4d1,spanish,13 or older,"no, only English or Spanish",no,2025-08-13_17h51.17.160,empathy_intonation_perc,2024.2.4,Win32,166.6666667,65486ad91a5493d24f94d4d1,687ed1b7e638a4cbf2f02089,689d08b173b601b7851ce595,,,,,,,,,,,,,,1,,,,,,,,,,,,,,,,,,,,,,,,,,,,,,,,,,,,,,,,,,,,,,,,,,,,,,,,,56,musgo,,,,,510.7551,512.4699,0,0,1.2006,,0,62,62,55,1,REAL,FAKE,,,,,,,,,,,,,,,,,
,,,,,,,,,65486ad91a5493d24f94d4d1,spanish,13 or older,"no, only English or Spanish",no,2025-08-13_17h51.17.160,empathy_intonation_perc,2024.2.4,Win32,166.6666667,65486ad91a5493d24f94d4d1,687ed1b7e638a4cbf2f02089,689d08b173b601b7851ce595,,,,,,,,,,,,,,1,,,,,,,,,,,,,,,,,,,,,,,,,,,,,,,,,,,,,,,,,,,,,,,,,,,,,,,,,20,ávido,,,,,512.4706,514.1851,0,0,1.2052,,0,63,63,19,1,REAL,FAKE,,,,,,,,,,,,,,,,,
,,,,,,,,,65486ad91a5493d24f94d4d1,spanish,13 or older,"no, only English or Spanish",no,2025-08-13_17h51.17.160,empathy_intonation_perc,2024.2.4,Win32,166.6666667,65486ad91a5493d24f94d4d1,687ed1b7e638a4cbf2f02089,689d08b173b601b7851ce595,,,,,,,,,,,,,,1,,,,,,,,,,,,,,,,,,,,,,,,,,,,,,,,,,,,,,,,,,,,,,,,,,,,,,,,,45,jilguero,,,,,514.1854,515.9852,0,0,1.2899,,0,64,64,44,1,REAL,FAKE,,,,,,,,,,,,,,,,,
,,,,,,,,,65486ad91a5493d24f94d4d1,spanish,13 or older,"no, only English or Spanish",no,2025-08-13_17h51.17.160,empathy_intonation_perc,2024.2.4,Win32,166.6666667,65486ad91a5493d24f94d4d1,687ed1b7e638a4cbf2f02089,689d08b173b601b7851ce595,,,,,,,,,,,,,,1,,,,,,,,,,,,,,,,,,,,,,,,,,,,,,,,,,,,,,,,,,,,,,,,,,,,,,,,,34,aviso,,,,,515.9854,517.0095,0,0,0.514,,0,65,65,33,1,REAL,FAKE,,,,,,,,,,,,,,,,,
,,,,,,,,,65486ad91a5493d24f94d4d1,spanish,13 or older,"no, only English or Spanish",no,2025-08-13_17h51.17.160,empathy_intonation_perc,2024.2.4,Win32,166.6666667,65486ad91a5493d24f94d4d1,687ed1b7e638a4cbf2f02089,689d08b173b601b7851ce595,,,,,,,,,,,,,,1,,,,,,,,,,,,,,,,,,,,,,,,,,,,,,,,,,,,,,,,,,,,,,,,,,,,,,,,,83,guante,,,,,517.0099,518.3611,0,0,0.8416,,0,66,66,82,1,REAL,FAKE,,,,,,,,,,,,,,,,,
,,,,,,,,,65486ad91a5493d24f94d4d1,spanish,13 or older,"no, only English or Spanish",no,2025-08-13_17h51.17.160,empathy_intonation_perc,2024.2.4,Win32,166.6666667,65486ad91a5493d24f94d4d1,687ed1b7e638a4cbf2f02089,689d08b173b601b7851ce595,,,,,,,,,,,,,,1,,,,,,,,,,,,,,,,,,,,,,,,,,,,,,,,,,,,,,,,,,,,,,,,,,,,,,,,,41,rebuscar,,,,,518.3616,519.5974,0,0,0.7222,,0,67,67,40,1,REAL,FAKE,,,,,,,,,,,,,,,,,
,,,,,,,,,65486ad91a5493d24f94d4d1,spanish,13 or older,"no, only English or Spanish",no,2025-08-13_17h51.17.160,empathy_intonation_perc,2024.2.4,Win32,166.6666667,65486ad91a5493d24f94d4d1,687ed1b7e638a4cbf2f02089,689d08b173b601b7851ce595,,,,,,,,,,,,,,1,,,,,,,,,,,,,,,,,,,,,,,,,,,,,,,,,,,,,,,,,,,,,,,,,,,,,,,,,24,látigo,,,,,519.5977,520.8702,0,0,0.7579,,0,68,68,23,1,REAL,FAKE,,,,,,,,,,,,,,,,,
,,,,,,,,,65486ad91a5493d24f94d4d1,spanish,13 or older,"no, only English or Spanish",no,2025-08-13_17h51.17.160,empathy_intonation_perc,2024.2.4,Win32,166.6666667,65486ad91a5493d24f94d4d1,687ed1b7e638a4cbf2f02089,689d08b173b601b7851ce595,,,,,,,,,,,,,,0,,,,,,,,,,,,,,,,,,,,,,,,,,,,,,,,,,,,,,,,,,,,,,,,,,,,,,,,,53,vegada,,,,,520.8705,521.9247,0,1,0.5408,,0,69,69,52,1,REAL,FAKE,,,,,,,,,,,,,,,,,
,,,,,,,,,65486ad91a5493d24f94d4d1,spanish,13 or older,"no, only English or Spanish",no,2025-08-13_17h51.17.160,empathy_intonation_perc,2024.2.4,Win32,166.6666667,65486ad91a5493d24f94d4d1,687ed1b7e638a4cbf2f02089,689d08b173b601b7851ce595,,,,,,,,,,,,,,0,,,,,,,,,,,,,,,,,,,,,,,,,,,,,,,,,,,,,,,,,,,,,,,,,,,,,,,,,35,rompido,,,,,521.925,523.0763,0,1,0.6384,,0,70,70,34,1,REAL,FAKE,,,,,,,,,,,,,,,,,
,,,,,,,,,65486ad91a5493d24f94d4d1,spanish,13 or older,"no, only English or Spanish",no,2025-08-13_17h51.17.160,empathy_intonation_perc,2024.2.4,Win32,166.6666667,65486ad91a5493d24f94d4d1,687ed1b7e638a4cbf2f02089,689d08b173b601b7851ce595,,,,,,,,,,,,,,0,,,,,,,,,,,,,,,,,,,,,,,,,,,,,,,,,,,,,,,,,,,,,,,,,,,,,,,,,4,batillón,,,,,523.0767,524.6763,1,0,1.0868,,0,71,71,3,1,REAL,FAKE,,,,,,,,,,,,,,,,,
,,,,,,,,,65486ad91a5493d24f94d4d1,spanish,13 or older,"no, only English or Spanish",no,2025-08-13_17h51.17.160,empathy_intonation_perc,2024.2.4,Win32,166.6666667,65486ad91a5493d24f94d4d1,687ed1b7e638a4cbf2f02089,689d08b173b601b7851ce595,,,,,,,,,,,,,,1,,,,,,,,,,,,,,,,,,,,,,,,,,,,,,,,,,,,,,,,,,,,,,,,,,,,,,,,,22,lacayo,,,,,524.6767,525.846,0,0,0.6547,,0,72,72,21,1,REAL,FAKE,,,,,,,,,,,,,,,,,
,,,,,,,,,65486ad91a5493d24f94d4d1,spanish,13 or older,"no, only English or Spanish",no,2025-08-13_17h51.17.160,empathy_intonation_perc,2024.2.4,Win32,166.6666667,65486ad91a5493d24f94d4d1,687ed1b7e638a4cbf2f02089,689d08b173b601b7851ce595,,,,,,,,,,,,,,1,,,,,,,,,,,,,,,,,,,,,,,,,,,,,,,,,,,,,,,,,,,,,,,,,,,,,,,,,5,zapato,,,,,525.8464,526.9976,1,1,0.6371,,0,73,73,4,1,REAL,FAKE,,,,,,,,,,,,,,,,,
,,,,,,,,,65486ad91a5493d24f94d4d1,spanish,13 or older,"no, only English or Spanish",no,2025-08-13_17h51.17.160,empathy_intonation_perc,2024.2.4,Win32,166.6666667,65486ad91a5493d24f94d4d1,687ed1b7e638a4cbf2f02089,689d08b173b601b7851ce595,,,,,,,,,,,,,,0,,,,,,,,,,,,,,,,,,,,,,,,,,,,,,,,,,,,,,,,,,,,,,,,,,,,,,,,,27,acutación,,,,,526.9979,528.0097,0,1,0.5014,,0,74,74,26,1,REAL,FAKE,,,,,,,,,,,,,,,,,
,,,,,,,,,65486ad91a5493d24f94d4d1,spanish,13 or older,"no, only English or Spanish",no,2025-08-13_17h51.17.160,empathy_intonation_perc,2024.2.4,Win32,166.6666667,65486ad91a5493d24f94d4d1,687ed1b7e638a4cbf2f02089,689d08b173b601b7851ce595,,,,,,,,,,,,,,0,,,,,,,,,,,,,,,,,,,,,,,,,,,,,,,,,,,,,,,,,,,,,,,,,,,,,,,,,92,click the 0 key.,,,,,528.0101,529.3249,0,1,0.8013,,0,75,75,91,1,REAL,FAKE,,,,,,,,,,,,,,,,,
,,,,,,,,,65486ad91a5493d24f94d4d1,spanish,13 or older,"no, only English or Spanish",no,2025-08-13_17h51.17.160,empathy_intonation_perc,2024.2.4,Win32,166.6666667,65486ad91a5493d24f94d4d1,687ed1b7e638a4cbf2f02089,689d08b173b601b7851ce595,,,,,,,,,,,,,,0,,,,,,,,,,,,,,,,,,,,,,,,,,,,,,,,,,,,,,,,,,,,,,,,,,,,,,,,,30,alardio,,,,,529.3252,530.4462,0,1,0.6065,,0,76,76,29,1,REAL,FAKE,,,,,,,,,,,,,,,,,
,,,,,,,,,65486ad91a5493d24f94d4d1,spanish,13 or older,"no, only English or Spanish",no,2025-08-13_17h51.17.160,empathy_intonation_perc,2024.2.4,Win32,166.6666667,65486ad91a5493d24f94d4d1,687ed1b7e638a4cbf2f02089,689d08b173b601b7851ce595,,,,,,,,,,,,,,1,,,,,,,,,,,,,,,,,,,,,,,,,,,,,,,,,,,,,,,,,,,,,,,,,,,,,,,,,67,cabello,,,,,530.4465,531.7069,0,0,0.749,,0,77,77,66,1,REAL,FAKE,,,,,,,,,,,,,,,,,
,,,,,,,,,65486ad91a5493d24f94d4d1,spanish,13 or older,"no, only English or Spanish",no,2025-08-13_17h51.17.160,empathy_intonation_perc,2024.2.4,Win32,166.6666667,65486ad91a5493d24f94d4d1,687ed1b7e638a4cbf2f02089,689d08b173b601b7851ce595,,,,,,,,,,,,,,0,,,,,,,,,,,,,,,,,,,,,,,,,,,,,,,,,,,,,,,,,,,,,,,,,,,,,,,,,16,abracer,,,,,531.7072,532.6887,0,1,0.4722,,0,78,78,15,1,REAL,FAKE,,,,,,,,,,,,,,,,,
,,,,,,,,,65486ad91a5493d24f94d4d1,spanish,13 or older,"no, only English or Spanish",no,2025-08-13_17h51.17.160,empathy_intonation_perc,2024.2.4,Win32,166.6666667,65486ad91a5493d24f94d4d1,687ed1b7e638a4cbf2f02089,689d08b173b601b7851ce595,,,,,,,,,,,,,,1,,,,,,,,,,,,,,,,,,,,,,,,,,,,,,,,,,,,,,,,,,,,,,,,,,,,,,,,,9,hacha,,,,,532.6892,533.8685,1,1,0.6642,,0,79,79,8,1,REAL,FAKE,,,,,,,,,,,,,,,,,
,,,,,,,,,65486ad91a5493d24f94d4d1,spanish,13 or older,"no, only English or Spanish",no,2025-08-13_17h51.17.160,empathy_intonation_perc,2024.2.4,Win32,166.6666667,65486ad91a5493d24f94d4d1,687ed1b7e638a4cbf2f02089,689d08b173b601b7851ce595,,,,,,,,,,,,,,1,,,,,,,,,,,,,,,,,,,,,,,,,,,,,,,,,,,,,,,,,,,,,,,,,,,,,,,,,46,martillo,,,,,533.8689,535.0807,0,0,0.7026,,0,80,80,45,1,REAL,FAKE,,,,,,,,,,,,,,,,,
,,,,,,,,,65486ad91a5493d24f94d4d1,spanish,13 or older,"no, only English or Spanish",no,2025-08-13_17h51.17.160,empathy_intonation_perc,2024.2.4,Win32,166.6666667,65486ad91a5493d24f94d4d1,687ed1b7e638a4cbf2f02089,689d08b173b601b7851ce595,,,,,,,,,,,,,,1,,,,,,,,,,,,,,,,,,,,,,,,,,,,,,,,,,,,,,,,,,,,,,,,,,,,,,,,,78,frondoso,,,,,535.0811,536.2746,0,0,0.6824,,0,81,81,77,1,REAL,FAKE,,,,,,,,,,,,,,,,,
,,,,,,,,,65486ad91a5493d24f94d4d1,spanish,13 or older,"no, only English or Spanish",no,2025-08-13_17h51.17.160,empathy_intonation_perc,2024.2.4,Win32,166.6666667,65486ad91a5493d24f94d4d1,687ed1b7e638a4cbf2f02089,689d08b173b601b7851ce595,,,,,,,,,,,,,,1,,,,,,,,,,,,,,,,,,,,,,,,,,,,,,,,,,,,,,,,,,,,,,,,,,,,,,,,,76,atar,,,,,536.2752,537.5776,0,0,0.7924,,0,82,82,75,1,REAL,FAKE,,,,,,,,,,,,,,,,,
,,,,,,,,,65486ad91a5493d24f94d4d1,spanish,13 or older,"no, only English or Spanish",no,2025-08-13_17h51.17.160,empathy_intonation_perc,2024.2.4,Win32,166.6666667,65486ad91a5493d24f94d4d1,687ed1b7e638a4cbf2f02089,689d08b173b601b7851ce595,,,,,,,,,,,,,,1,,,,,,,,,,,,,,,,,,,,,,,,,,,,,,,,,,,,,,,,,,,,,,,,,,,,,,,,,13,helar,,,,,537.578,538.8443,0,0,0.7534,,0,83,83,12,1,REAL,FAKE,,,,,,,,,,,,,,,,,
,,,,,,,,,65486ad91a5493d24f94d4d1,spanish,13 or older,"no, only English or Spanish",no,2025-08-13_17h51.17.160,empathy_intonation_perc,2024.2.4,Win32,166.6666667,65486ad91a5493d24f94d4d1,687ed1b7e638a4cbf2f02089,689d08b173b601b7851ce595,,,,,,,,,,,,,,0,,,,,,,,,,,,,,,,,,,,,,,,,,,,,,,,,,,,,,,,,,,,,,,,,,,,,,,,,29,decar,,,,,538.8447,540.3414,1,0,0.9826,,0,84,84,28,1,REAL,FAKE,,,,,,,,,,,,,,,,,
,,,,,,,,,65486ad91a5493d24f94d4d1,spanish,13 or older,"no, only English or Spanish",no,2025-08-13_17h51.17.160,empathy_intonation_perc,2024.2.4,Win32,166.6666667,65486ad91a5493d24f94d4d1,687ed1b7e638a4cbf2f02089,689d08b173b601b7851ce595,,,,,,,,,,,,,,1,,,,,,,,,,,,,,,,,,,,,,,,,,,,,,,,,,,,,,,,,,,,,,,,,,,,,,,,,90,clavel,,,,,540.3417,541.3777,0,0,0.5257,,0,85,85,89,1,REAL,FAKE,,,,,,,,,,,,,,,,,
,,,,,,,,,65486ad91a5493d24f94d4d1,spanish,13 or older,"no, only English or Spanish",no,2025-08-13_17h51.17.160,empathy_intonation_perc,2024.2.4,Win32,166.6666667,65486ad91a5493d24f94d4d1,687ed1b7e638a4cbf2f02089,689d08b173b601b7851ce595,,,,,,,,,,,,,,1,,,,,,,,,,,,,,,,,,,,,,,,,,,,,,,,,,,,,,,,,,,,,,,,,,,,,,,,,54,fomentar,,,,,541.3782,542.3172,0,0,0.4253,,0,86,86,53,1,REAL,FAKE,,,,,,,,,,,,,,,,,
,,,,,,,,,65486ad91a5493d24f94d4d1,spanish,13 or older,"no, only English or Spanish",no,2025-08-13_17h51.17.160,empathy_intonation_perc,2024.2.4,Win32,166.6666667,65486ad91a5493d24f94d4d1,687ed1b7e638a4cbf2f02089,689d08b173b601b7851ce595,,,,,,,,,,,,,,1,,,,,,,,,,,,,,,,,,,,,,,,,,,,,,,,,,,,,,,,,,,,,,,,,,,,,,,,,28,merodear,,,,,542.3175,543.3232,0,0,0.4938,,0,87,87,27,1,REAL,FAKE,,,,,,,,,,,,,,,,,
,,,,,,,,,65486ad91a5493d24f94d4d1,spanish,13 or older,"no, only English or Spanish",no,2025-08-13_17h51.17.160,empathy_intonation_perc,2024.2.4,Win32,166.6666667,65486ad91a5493d24f94d4d1,687ed1b7e638a4cbf2f02089,689d08b173b601b7851ce595,,,,,,,,,,,,,,0,,,,,,,,,,,,,,,,,,,,,,,,,,,,,,,,,,,,,,,,,,,,,,,,,,,,,,,,,47,cartinar,,,,,543.3236,544.3778,0,1,0.544,,0,88,88,46,1,REAL,FAKE,,,,,,,,,,,,,,,,,
,,,,,,,,,65486ad91a5493d24f94d4d1,spanish,13 or older,"no, only English or Spanish",no,2025-08-13_17h51.17.160,empathy_intonation_perc,2024.2.4,Win32,166.6666667,65486ad91a5493d24f94d4d1,687ed1b7e638a4cbf2f02089,689d08b173b601b7851ce595,,,,,,,,,,,,,,1,,,,,,,,,,,,,,,,,,,,,,,,,,,,,,,,,,,,,,,,,,,,,,,,,,,,,,,,,61,seda,,,,,544.3783,545.4203,0,0,0.5292,,0,89,89,60,1,REAL,FAKE,,,,,,,,,,,,,,,,,
,,,,,,,,,65486ad91a5493d24f94d4d1,spanish,13 or older,"no, only English or Spanish",no,2025-08-13_17h51.17.160,empathy_intonation_perc,2024.2.4,Win32,166.6666667,65486ad91a5493d24f94d4d1,687ed1b7e638a4cbf2f02089,689d08b173b601b7851ce595,,,,,,,,,,,,,,1,,,,,,,,,,,,,,,,,,,,,,,,,,,,,,,,,,,,,,,,,,,,,,,,,,,,,,,,,48,ladrón,,,,,545.4207,546.5475,0,0,0.6148,,0,90,90,47,1,REAL,FAKE,,,,,,,,,,,,,,,,,
,,,,,,,,,65486ad91a5493d24f94d4d1,spanish,13 or older,"no, only English or Spanish",no,2025-08-13_17h51.17.160,empathy_intonation_perc,2024.2.4,Win32,166.6666667,65486ad91a5493d24f94d4d1,687ed1b7e638a4cbf2f02089,689d08b173b601b7851ce595,,,,,,,,,,,,,,0,,,,,,,,,,,,,,,,,,,,,,,,,,,,,,,,,,,,,,,,,,,,,,,,,,,,,,,,,63,esposante,,,,,546.548,547.6749,0,1,0.6154,,0,91,91,62,1,REAL,FAKE,,,,,,,,,,,,,,,,,
,,,,,,,,,65486ad91a5493d24f94d4d1,spanish,13 or older,"no, only English or Spanish",no,2025-08-13_17h51.17.160,empathy_intonation_perc,2024.2.4,Win32,166.6666667,65486ad91a5493d24f94d4d1,687ed1b7e638a4cbf2f02089,689d08b173b601b7851ce595,,,,,,,,,,,,,,,,,,,,,,,,,,,,,,,,,,,,,,,,,,,,,,,,,,,,,,,,,,,,,,,,,,,,,,,,,,,,,,,,,,,,,,,,,,547.675,552.154,,,,,,,,,,,,,,,
,,,,,,,,,65486ad91a5493d24f94d4d1,spanish,13 or older,"no, only English or Spanish",no,2025-08-13_17h51.17.160,empathy_intonation_perc,2024.2.4,Win32,166.6666667,65486ad91a5493d24f94d4d1,687ed1b7e638a4cbf2f02089,689d08b173b601b7851ce595,,,,,,,,,,,,,1,,,,,,,,,,,,,,,,,,,,,,,,,,,,,,,,,,,,,,,,,,,,,,,,,,,,,,,,,,,,,,,,,,,,,,,,,,,,,,,552.1608,558.2913,slightly agree,0,0,0,0,1,I can easily tell if someone else wants to enter a conversation.,1,0,1,0,,
,,,,,,,,,65486ad91a5493d24f94d4d1,spanish,13 or older,"no, only English or Spanish",no,2025-08-13_17h51.17.160,empathy_intonation_perc,2024.2.4,Win32,166.6666667,65486ad91a5493d24f94d4d1,687ed1b7e638a4cbf2f02089,689d08b173b601b7851ce595,,,,,,,,,,,,,2,,,,,,,,,,,,,,,,,,,,,,,,,,,,,,,,,,,,,,,,,,,,,,,,,,,,,,,,,,,,,,,,,,,,,,,,,,,,,,,558.2921,562.8107,slightly disagree,0,1,1,1,1,I prefer animals to humans.,0,1,0,0,,
,,,,,,,,,65486ad91a5493d24f94d4d1,spanish,13 or older,"no, only English or Spanish",no,2025-08-13_17h51.17.160,empathy_intonation_perc,2024.2.4,Win32,166.6666667,65486ad91a5493d24f94d4d1,687ed1b7e638a4cbf2f02089,689d08b173b601b7851ce595,,,,,,,,,,,,,3,,,,,,,,,,,,,,,,,,,,,,,,,,,,,,,,,,,,,,,,,,,,,,,,,,,,,,,,,,,,,,,,,,,,,,,,,,,,,,,562.8114,566.1805,slightly agree,0,2,2,2,1,I try to keep up with the current trends and fashions.,0,1,0,0,,
,,,,,,,,,65486ad91a5493d24f94d4d1,spanish,13 or older,"no, only English or Spanish",no,2025-08-13_17h51.17.160,empathy_intonation_perc,2024.2.4,Win32,166.6666667,65486ad91a5493d24f94d4d1,687ed1b7e638a4cbf2f02089,689d08b173b601b7851ce595,,,,,,,,,,,,,4,,,,,,,,,,,,,,,,,,,,,,,,,,,,,,,,,,,,,,,,,,,,,,,,,,,,,,,,,,,,,,,,,,,,,,,,,,,,,,,566.1812,569.3987,slightly agree,0,3,3,3,1,"I find it difficult to explain to others things that I understand easily,   when they don't understand it first time.",1,0,0,1,,
,,,,,,,,,65486ad91a5493d24f94d4d1,spanish,13 or older,"no, only English or Spanish",no,2025-08-13_17h51.17.160,empathy_intonation_perc,2024.2.4,Win32,166.6666667,65486ad91a5493d24f94d4d1,687ed1b7e638a4cbf2f02089,689d08b173b601b7851ce595,,,,,,,,,,,,,5,,,,,,,,,,,,,,,,,,,,,,,,,,,,,,,,,,,,,,,,,,,,,,,,,,,,,,,,,,,,,,,,,,,,,,,,,,,,,,,569.3991,569.9684,slightly agree,0,4,4,4,1,I dream most nights.,0,1,0,0,,
,,,,,,,,,65486ad91a5493d24f94d4d1,spanish,13 or older,"no, only English or Spanish",no,2025-08-13_17h51.17.160,empathy_intonation_perc,2024.2.4,Win32,166.6666667,65486ad91a5493d24f94d4d1,687ed1b7e638a4cbf2f02089,689d08b173b601b7851ce595,,,,,,,,,,,,,6,,,,,,,,,,,,,,,,,,,,,,,,,,,,,,,,,,,,,,,,,,,,,,,,,,,,,,,,,,,,,,,,,,,,,,,,,,,,,,,569.9689,570.3139,slightly agree,0,5,5,5,1,I really enjoy caring for other people.,1,0,1,0,,
,,,,,,,,,65486ad91a5493d24f94d4d1,spanish,13 or older,"no, only English or Spanish",no,2025-08-13_17h51.17.160,empathy_intonation_perc,2024.2.4,Win32,166.6666667,65486ad91a5493d24f94d4d1,687ed1b7e638a4cbf2f02089,689d08b173b601b7851ce595,,,,,,,,,,,,,7,,,,,,,,,,,,,,,,,,,,,,,,,,,,,,,,,,,,,,,,,,,,,,,,,,,,,,,,,,,,,,,,,,,,,,,,,,,,,,,570.3145,570.7867,slightly agree,0,6,6,6,1,I try to solve my own problems rather than discussing them with others.,0,1,0,0,,
,,,,,,,,,65486ad91a5493d24f94d4d1,spanish,13 or older,"no, only English or Spanish",no,2025-08-13_17h51.17.160,empathy_intonation_perc,2024.2.4,Win32,166.6666667,65486ad91a5493d24f94d4d1,687ed1b7e638a4cbf2f02089,689d08b173b601b7851ce595,,,,,,,,,,,,,8,,,,,,,,,,,,,,,,,,,,,,,,,,,,,,,,,,,,,,,,,,,,,,,,,,,,,,,,,,,,,,,,,,,,,,,,,,,,,,,570.787,571.2836,slightly agree,0,7,7,7,1,I find it hard to know what to do in a social situation.,1,0,0,1,,
,,,,,,,,,65486ad91a5493d24f94d4d1,spanish,13 or older,"no, only English or Spanish",no,2025-08-13_17h51.17.160,empathy_intonation_perc,2024.2.4,Win32,166.6666667,65486ad91a5493d24f94d4d1,687ed1b7e638a4cbf2f02089,689d08b173b601b7851ce595,,,,,,,,,,,,,9,,,,,,,,,,,,,,,,,,,,,,,,,,,,,,,,,,,,,,,,,,,,,,,,,,,,,,,,,,,,,,,,,,,,,,,,,,,,,,,571.284,572.0594,slightly agree,0,8,8,8,1,I am at my best first thing in the morning.,0,1,0,0,,
,,,,,,,,,65486ad91a5493d24f94d4d1,spanish,13 or older,"no, only English or Spanish",no,2025-08-13_17h51.17.160,empathy_intonation_perc,2024.2.4,Win32,166.6666667,65486ad91a5493d24f94d4d1,687ed1b7e638a4cbf2f02089,689d08b173b601b7851ce595,,,,,,,,,,,,,10,,,,,,,,,,,,,,,,,,,,,,,,,,,,,,,,,,,,,,,,,,,,,,,,,,,,,,,,,,,,,,,,,,,,,,,,,,,,,,,572.0601,572.7563,slightly agree,0,9,9,9,1,People often tell me that I went too far in driving my point home in a discussion.,1,0,0,1,,
