instructions_exposure.started,instructions_exposure.stopped,instructions_exposure_loop.thisRepN,instructions_exposure_loop.thisTrialN,instructions_exposure_loop.thisN,instructions_exposure_loop.thisIndex,instructions_exposure_loop.ran,instructions_text,continue_text,participant_id,"What variety of Spanish are you most familiar with? (e.g., Peruvian, Spanish, Mexican)",At what age did you begin learning Spanish?,Are you proficient in any languages other than English/Spanish?,"Are you familiar with Caribbean (e.g., Caribbean, Puerto Rican) or Galician Spanish?",date,expName,psychopyVersion,OS,frameRate,id,study_id,session,trial_exposure.started,trial_exposure.stopped,key_resp_exposure.keys,key_resp_exposure.corr,key_resp_exposure.rt,key_resp_exposure.duration,key_resp.keys,exposure_loop.thisRepN,exposure_loop.thisTrialN,exposure_loop.thisN,exposure_loop.thisIndex,exposure_loop.ran,item_num,correct_response,question,path,duration,instructions_2afc.started,instructions_2afc.stopped,instructions_2afc_loop.thisRepN,instructions_2afc_loop.thisTrialN,instructions_2afc_loop.thisN,instructions_2afc_loop.thisIndex,instructions_2afc_loop.ran,practice_2afc.started,practice_2afc.stopped,key_resp_2afc_practice.keys,key_resp_2afc_practice.corr,key_resp_2afc_practice.rt,key_resp_2afc_practice.duration,trials_2afc_practice_loop.thisRepN,trials_2afc_practice_loop.thisTrialN,trials_2afc_practice_loop.thisN,trials_2afc_practice_loop.thisIndex,trials_2afc_practice_loop.ran,check_2afc.started,check_2afc.stopped,trial_2afc.started,trial_2afc.stopped,key_resp_2afc_trial.keys,key_resp_2afc_trial.corr,key_resp_2afc_trial.rt,key_resp_2afc_trial.duration,trials_2afc_loop.thisRepN,trials_2afc_loop.thisTrialN,trials_2afc_loop.thisN,trials_2afc_loop.thisIndex,trials_2afc_loop.ran,target,variety,instructions_lextale.started,instructions_lextale.stopped,instructions_lextale_loop.thisRepN,instructions_lextale_loop.thisTrialN,instructions_lextale_loop.thisN,instructions_lextale_loop.thisIndex,instructions_lextale_loop.ran,practice_lextale.started,practice_lextale.stopped,key_resp_lextale_practice.keys,key_resp_lextale_practice.corr,key_resp_lextale_practice.rt,key_resp_lextale_practice.duration,practice_feedback_lextale.started,practice_feedback_lextale.stopped,trials_lextale_practice_loop.thisRepN,trials_lextale_practice_loop.thisTrialN,trials_lextale_practice_loop.thisN,trials_lextale_practice_loop.thisIndex,trials_lextale_practice_loop.ran,stim,word,prac_button_real,prac_button_false,check_lextale.started,check_lextale.stopped,trial_lextale.started,trial_lextale.stopped,key_resp_lextale_trial.keys,key_resp_lextale_trial.corr,key_resp_lextale_trial.rt,key_resp_lextale_trial.duration,trials_lextale_loop.thisRepN,trials_lextale_loop.thisTrialN,trials_lextale_loop.thisN,trials_lextale_loop.thisIndex,trials_lextale_loop.ran,button_real,button_false,instructions_eq.started,instructions_eq.stopped,trial_eq.started,trial_eq.stopped,slider_eq_trial.response,trials_eq_loop.thisRepN,trials_eq_loop.thisTrialN,trials_eq_loop.thisN,trials_eq_loop.thisIndex,trials_eq_loop.ran,item,is_test_item,is_distractor,is_agree_score,is_disagree_score,end_exp.started,end_exp.stopped
0.0086,1.2484,0,0,0,0,1,"In the following task, you are going to hear a series of conversations.", (press the space bar to continue),6595ddee29ac40a58a7feeb6,Spanish,13 or older,"no, only English or Spanish",yes,2025-08-15_08h58.30.724,empathy_intonation_perc,2024.2.4,Win32,74.62686567,6595ddee29ac40a58a7feeb6,689ed6d1281858f68c932c05,689f2edaf9e6de356dab170d,,,,,,,,,,,,,,,,,,,,,,,,,,,,,,,,,,,,,,,,,,,,,,,,,,,,,,,,,,,,,,,,,,,,,,,,,,,,,,,,,,,,,,,,,,,,,,,,,,,,,,,,,,
1.2487,2.1549,0,1,1,1,1,It is okay if you don't not 100% understand them!, (press the space bar to continue),6595ddee29ac40a58a7feeb6,Spanish,13 or older,"no, only English or Spanish",yes,2025-08-15_08h58.30.724,empathy_intonation_perc,2024.2.4,Win32,74.62686567,6595ddee29ac40a58a7feeb6,689ed6d1281858f68c932c05,689f2edaf9e6de356dab170d,,,,,,,,,,,,,,,,,,,,,,,,,,,,,,,,,,,,,,,,,,,,,,,,,,,,,,,,,,,,,,,,,,,,,,,,,,,,,,,,,,,,,,,,,,,,,,,,,,,,,,,,,,
2.1558,3.4216,0,2,2,2,1,"After, you will read a sentence about the conversation and decide if it's true or false.", (press the space bar to continue),6595ddee29ac40a58a7feeb6,Spanish,13 or older,"no, only English or Spanish",yes,2025-08-15_08h58.30.724,empathy_intonation_perc,2024.2.4,Win32,74.62686567,6595ddee29ac40a58a7feeb6,689ed6d1281858f68c932c05,689f2edaf9e6de356dab170d,,,,,,,,,,,,,,,,,,,,,,,,,,,,,,,,,,,,,,,,,,,,,,,,,,,,,,,,,,,,,,,,,,,,,,,,,,,,,,,,,,,,,,,,,,,,,,,,,,,,,,,,,,
3.4226,5.7014,0,3,3,3,1,"If it's true, press '1' (True) and if it's false press '0' (False).", (press the space bar to continue),6595ddee29ac40a58a7feeb6,Spanish,13 or older,"no, only English or Spanish",yes,2025-08-15_08h58.30.724,empathy_intonation_perc,2024.2.4,Win32,74.62686567,6595ddee29ac40a58a7feeb6,689ed6d1281858f68c932c05,689f2edaf9e6de356dab170d,,,,,,,,,,,,,,,,,,,,,,,,,,,,,,,,,,,,,,,,,,,,,,,,,,,,,,,,,,,,,,,,,,,,,,,,,,,,,,,,,,,,,,,,,,,,,,,,,,,,,,,,,,
,,,,,,,,,6595ddee29ac40a58a7feeb6,Spanish,13 or older,"no, only English or Spanish",yes,2025-08-15_08h58.30.724,empathy_intonation_perc,2024.2.4,Win32,74.62686567,6595ddee29ac40a58a7feeb6,689ed6d1281858f68c932c05,689f2edaf9e6de356dab170d,5.705,53.6206,0,1,11.8921,,,0,0,0,2,1,3,0,The mom already has rice.,./stim/exposure_wavs/pr_stimuli_convo.wav,36,,,,,,,,,,,,,,,,,,,,,,,,,,,,,,,,,,,,,,,,,,,,,,,,,,,,,,,,,,,,,,,,,,,,,,,,,,,,,,,,,,,,,,,,,
,,,,,,,,,6595ddee29ac40a58a7feeb6,Spanish,13 or older,"no, only English or Spanish",yes,2025-08-15_08h58.30.724,empathy_intonation_perc,2024.2.4,Win32,74.62686567,6595ddee29ac40a58a7feeb6,689ed6d1281858f68c932c05,689f2edaf9e6de356dab170d,53.6221,106.2193,0,0,5.575,,,0,1,1,0,1,1,1,The son asked the mom if Aunt Marina is okay.,./stim/exposure_wavs/ga_stimuli_convo.wav,47,,,,,,,,,,,,,,,,,,,,,,,,,,,,,,,,,,,,,,,,,,,,,,,,,,,,,,,,,,,,,,,,,,,,,,,,,,,,,,,,,,,,,,,,,
,,,,,,,,,6595ddee29ac40a58a7feeb6,Spanish,13 or older,"no, only English or Spanish",yes,2025-08-15_08h58.30.724,empathy_intonation_perc,2024.2.4,Win32,74.62686567,6595ddee29ac40a58a7feeb6,689ed6d1281858f68c932c05,689f2edaf9e6de356dab170d,106.2206,174.9646,0,0,8.7174,,,0,2,2,1,1,2,1,The mom asked the daughter if she already went to the supermarket.,./stim/exposure_wavs/dr_stimuli_convo.wav,60,,,,,,,,,,,,,,,,,,,,,,,,,,,,,,,,,,,,,,,,,,,,,,,,,,,,,,,,,,,,,,,,,,,,,,,,,,,,,,,,,,,,,,,,,
,,,,,,,"In the following task you are going to hear a series of utterances. 

  You will decide if the utterances sound like questions or not using your keyboard.", (press the spacebar to continue),6595ddee29ac40a58a7feeb6,Spanish,13 or older,"no, only English or Spanish",yes,2025-08-15_08h58.30.724,empathy_intonation_perc,2024.2.4,Win32,74.62686567,6595ddee29ac40a58a7feeb6,689ed6d1281858f68c932c05,689f2edaf9e6de356dab170d,,,,,,,,,,,,,,,,,,174.9669,177.3381,0,0,0,0,1,,,,,,,,,,,,,,,,,,,,,,,,,,,,,,,,,,,,,,,,,,,,,,,,,,,,,,,,,,,,,,,,,,,,,,,,,,,,,,,,,,
,,,,,,,"If you believe the utterance is a question, type '1' (for 'yes') and if you do not 
  believe it is a question type '0' (for 'no').

  Let's practice a bit...", (press the spacebar to continue),6595ddee29ac40a58a7feeb6,Spanish,13 or older,"no, only English or Spanish",yes,2025-08-15_08h58.30.724,empathy_intonation_perc,2024.2.4,Win32,74.62686567,6595ddee29ac40a58a7feeb6,689ed6d1281858f68c932c05,689f2edaf9e6de356dab170d,,,,,,,,,,,,,,,,,,177.3389,179.1112,0,1,1,1,1,,,,,,,,,,,,,,,,,,,,,,,,,,,,,,,,,,,,,,,,,,,,,,,,,,,,,,,,,,,,,,,,,,,,,,,,,,,,,,,,,,
,,,,,,,,,6595ddee29ac40a58a7feeb6,Spanish,13 or older,"no, only English or Spanish",yes,2025-08-15_08h58.30.724,empathy_intonation_perc,2024.2.4,Win32,74.62686567,6595ddee29ac40a58a7feeb6,689ed6d1281858f68c932c05,689f2edaf9e6de356dab170d,,,,,,,,,,,,,,0,,./stim/wavs/peruvian_statement_filler_El-nino-habla-con-su-madre.wav,,,,,,,,,179.114,183.8313,0,1,4.203,,0,0,0,6,1,,,,,,,,,,,,,,,,,,,,,,,,,,,,,,,,,,,,,,,,,,,,,,,,,,,,,,,,,,,,,,,,,,,,,,,
,,,,,,,,,6595ddee29ac40a58a7feeb6,Spanish,13 or older,"no, only English or Spanish",yes,2025-08-15_08h58.30.724,empathy_intonation_perc,2024.2.4,Win32,74.62686567,6595ddee29ac40a58a7feeb6,689ed6d1281858f68c932c05,689f2edaf9e6de356dab170d,,,,,,,,,,,,,,0,,./stim/wavs/cuban_statement_filler_Cocinabas-por-la-noche.wav,,,,,,,,,183.8316,186.9377,0,1,2.5896,,0,1,1,4,1,,,,,,,,,,,,,,,,,,,,,,,,,,,,,,,,,,,,,,,,,,,,,,,,,,,,,,,,,,,,,,,,,,,,,,,
,,,,,,,,,6595ddee29ac40a58a7feeb6,Spanish,13 or older,"no, only English or Spanish",yes,2025-08-15_08h58.30.724,empathy_intonation_perc,2024.2.4,Win32,74.62686567,6595ddee29ac40a58a7feeb6,689ed6d1281858f68c932c05,689f2edaf9e6de356dab170d,,,,,,,,,,,,,,1,,./stim/wavs/mexican_question_filler_Felipe-no-tiene-contrasena.wav,,,,,,,,,186.938,189.4443,1,1,1.9933,,0,2,2,3,1,,,,,,,,,,,,,,,,,,,,,,,,,,,,,,,,,,,,,,,,,,,,,,,,,,,,,,,,,,,,,,,,,,,,,,,
,,,,,,,,,6595ddee29ac40a58a7feeb6,Spanish,13 or older,"no, only English or Spanish",yes,2025-08-15_08h58.30.724,empathy_intonation_perc,2024.2.4,Win32,74.62686567,6595ddee29ac40a58a7feeb6,689ed6d1281858f68c932c05,689f2edaf9e6de356dab170d,,,,,,,,,,,,,,1,,./stim/wavs/castilian_question_filler_Mi-esposo-conoce-al-chico.wav,,,,,,,,,189.4447,191.8176,1,1,1.8579,,0,3,3,0,1,,,,,,,,,,,,,,,,,,,,,,,,,,,,,,,,,,,,,,,,,,,,,,,,,,,,,,,,,,,,,,,,,,,,,,,
,,,,,,,,,6595ddee29ac40a58a7feeb6,Spanish,13 or older,"no, only English or Spanish",yes,2025-08-15_08h58.30.724,empathy_intonation_perc,2024.2.4,Win32,74.62686567,6595ddee29ac40a58a7feeb6,689ed6d1281858f68c932c05,689f2edaf9e6de356dab170d,,,,,,,,,,,,,,1,,./stim/wavs/chilean_question_filler_Mi-padre-cantaba-bien.wav,,,,,,,,,191.8179,194.7108,0,0,2.3788,,0,4,4,2,1,,,,,,,,,,,,,,,,,,,,,,,,,,,,,,,,,,,,,,,,,,,,,,,,,,,,,,,,,,,,,,,,,,,,,,,
,,,,,,,,,6595ddee29ac40a58a7feeb6,Spanish,13 or older,"no, only English or Spanish",yes,2025-08-15_08h58.30.724,empathy_intonation_perc,2024.2.4,Win32,74.62686567,6595ddee29ac40a58a7feeb6,689ed6d1281858f68c932c05,689f2edaf9e6de356dab170d,,,,,,,,,,,,,,0,,./stim/wavs/puertorican_statement_filler_La-nina-pinta-con-su-amiga.wav,,,,,,,,,194.7111,197.3109,0,1,2.0915,,0,5,5,7,1,,,,,,,,,,,,,,,,,,,,,,,,,,,,,,,,,,,,,,,,,,,,,,,,,,,,,,,,,,,,,,,,,,,,,,,
,,,,,,,,,6595ddee29ac40a58a7feeb6,Spanish,13 or older,"no, only English or Spanish",yes,2025-08-15_08h58.30.724,empathy_intonation_perc,2024.2.4,Win32,74.62686567,6595ddee29ac40a58a7feeb6,689ed6d1281858f68c932c05,689f2edaf9e6de356dab170d,,,,,,,,,,,,,,0,,./stim/wavs/andalusian_statement_filler_Alberto-nunca-se-afeita.wav,,,,,,,,,197.3112,199.8174,0,1,1.9969,,0,6,6,5,1,,,,,,,,,,,,,,,,,,,,,,,,,,,,,,,,,,,,,,,,,,,,,,,,,,,,,,,,,,,,,,,,,,,,,,,
,,,,,,,,,6595ddee29ac40a58a7feeb6,Spanish,13 or older,"no, only English or Spanish",yes,2025-08-15_08h58.30.724,empathy_intonation_perc,2024.2.4,Win32,74.62686567,6595ddee29ac40a58a7feeb6,689ed6d1281858f68c932c05,689f2edaf9e6de356dab170d,,,,,,,,,,,,,,1,,./stim/wavs/argentine_question_filler_Mi-vecino-habla-mucho.wav,,,,,,,,,199.8177,202.124,1,1,1.784,,0,7,7,1,1,,,,,,,,,,,,,,,,,,,,,,,,,,,,,,,,,,,,,,,,,,,,,,,,,,,,,,,,,,,,,,,,,,,,,,,
,,,,,,,,,6595ddee29ac40a58a7feeb6,Spanish,13 or older,"no, only English or Spanish",yes,2025-08-15_08h58.30.724,empathy_intonation_perc,2024.2.4,Win32,74.62686567,6595ddee29ac40a58a7feeb6,689ed6d1281858f68c932c05,689f2edaf9e6de356dab170d,,,,,,,,,,,,,,,,,,,,,,,,,,,,,,,,,,,,202.1243,204.0575,,,,,,,,,,,,,,,,,,,,,,,,,,,,,,,,,,,,,,,,,,,,,,,,,,,,,,,,,,,,,,,,,,,,,
,,,,,,,,,6595ddee29ac40a58a7feeb6,Spanish,13 or older,"no, only English or Spanish",yes,2025-08-15_08h58.30.724,empathy_intonation_perc,2024.2.4,Win32,74.62686567,6595ddee29ac40a58a7feeb6,689ed6d1281858f68c932c05,689f2edaf9e6de356dab170d,,,,,,,,,,,,,76,0,,./stim/wavs/cuban_mismatch_declarative-broad-focus_La-nina-lava-el-plato.wav,,,,,,,,,,,,,,,,,,,,,,204.0616,206.0707,0,1,1.4976,,0,0,0,75,1,0,cuban,,,,,,,,,,,,,,,,,,,,,,,,,,,,,,,,,,,,,,,,,,,,,,,,,,,,,,,,
,,,,,,,,,6595ddee29ac40a58a7feeb6,Spanish,13 or older,"no, only English or Spanish",yes,2025-08-15_08h58.30.724,empathy_intonation_perc,2024.2.4,Win32,74.62686567,6595ddee29ac40a58a7feeb6,689ed6d1281858f68c932c05,689f2edaf9e6de356dab170d,,,,,,,,,,,,,73,0,,./stim/wavs/castilian_mismatch_declarative-broad-focus_Mi-tia-odia-la-lluvia.wav,,,,,,,,,,,,,,,,,,,,,,206.0711,208.2972,0,1,1.7121,,0,1,1,72,1,0,castilian,,,,,,,,,,,,,,,,,,,,,,,,,,,,,,,,,,,,,,,,,,,,,,,,,,,,,,,,
,,,,,,,,,6595ddee29ac40a58a7feeb6,Spanish,13 or older,"no, only English or Spanish",yes,2025-08-15_08h58.30.724,empathy_intonation_perc,2024.2.4,Win32,74.62686567,6595ddee29ac40a58a7feeb6,689ed6d1281858f68c932c05,689f2edaf9e6de356dab170d,,,,,,,,,,,,,6,1,,./stim/wavs/castilian_match_interrogative-total-yn_Marta-abre-el-regalo.wav,,,,,,,,,,,,,,,,,,,,,,208.2975,210.6838,1,1,1.8739,,0,2,2,5,1,0,castilian,,,,,,,,,,,,,,,,,,,,,,,,,,,,,,,,,,,,,,,,,,,,,,,,,,,,,,,,
,,,,,,,,,6595ddee29ac40a58a7feeb6,Spanish,13 or older,"no, only English or Spanish",yes,2025-08-15_08h58.30.724,empathy_intonation_perc,2024.2.4,Win32,74.62686567,6595ddee29ac40a58a7feeb6,689ed6d1281858f68c932c05,689f2edaf9e6de356dab170d,,,,,,,,,,,,,37,1,,./stim/wavs/mexican_mismatch_interrogative-total-yn_La-maestra-vive-en-Paris.wav,,,,,,,,,,,,,,,,,,,,,,210.6841,212.9371,1,1,1.7363,,0,3,3,36,1,0,mexican,,,,,,,,,,,,,,,,,,,,,,,,,,,,,,,,,,,,,,,,,,,,,,,,,,,,,,,,
,,,,,,,,,6595ddee29ac40a58a7feeb6,Spanish,13 or older,"no, only English or Spanish",yes,2025-08-15_08h58.30.724,empathy_intonation_perc,2024.2.4,Win32,74.62686567,6595ddee29ac40a58a7feeb6,689ed6d1281858f68c932c05,689f2edaf9e6de356dab170d,,,,,,,,,,,,,85,0,,./stim/wavs/puertorican_mismatch_declarative-broad-focus_El-hombre-mira-la-luna.wav,,,,,,,,,,,,,,,,,,,,,,212.9374,215.1237,0,1,1.6712,,0,4,4,84,1,0,puertorican,,,,,,,,,,,,,,,,,,,,,,,,,,,,,,,,,,,,,,,,,,,,,,,,,,,,,,,,
,,,,,,,,,6595ddee29ac40a58a7feeb6,Spanish,13 or older,"no, only English or Spanish",yes,2025-08-15_08h58.30.724,empathy_intonation_perc,2024.2.4,Win32,74.62686567,6595ddee29ac40a58a7feeb6,689ed6d1281858f68c932c05,689f2edaf9e6de356dab170d,,,,,,,,,,,,,83,0,,./stim/wavs/mexican_mismatch_declarative-broad-focus_Mi-tia-odia-la-lluvia.wav,,,,,,,,,,,,,,,,,,,,,,215.124,217.3504,0,1,1.7123,,0,5,5,82,1,0,mexican,,,,,,,,,,,,,,,,,,,,,,,,,,,,,,,,,,,,,,,,,,,,,,,,,,,,,,,,
,,,,,,,,,6595ddee29ac40a58a7feeb6,Spanish,13 or older,"no, only English or Spanish",yes,2025-08-15_08h58.30.724,empathy_intonation_perc,2024.2.4,Win32,74.62686567,6595ddee29ac40a58a7feeb6,689ed6d1281858f68c932c05,689f2edaf9e6de356dab170d,,,,,,,,,,,,,50,0,,./stim/wavs/castilian_match_declarative-broad-focus_Marta-abre-el-regalo.wav,,,,,,,,,,,,,,,,,,,,,,217.3507,219.5104,0,1,1.645,,0,6,6,49,1,0,castilian,,,,,,,,,,,,,,,,,,,,,,,,,,,,,,,,,,,,,,,,,,,,,,,,,,,,,,,,
,,,,,,,,,6595ddee29ac40a58a7feeb6,Spanish,13 or older,"no, only English or Spanish",yes,2025-08-15_08h58.30.724,empathy_intonation_perc,2024.2.4,Win32,74.62686567,6595ddee29ac40a58a7feeb6,689ed6d1281858f68c932c05,689f2edaf9e6de356dab170d,,,,,,,,,,,,,11,1,,./stim/wavs/cuban_match_interrogative-total-yn_Mariano-habla-del-tiempo.wav,,,,,,,,,,,,,,,,,,,,,,219.5106,221.6435,0,0,1.6238,,0,7,7,10,1,1,cuban,,,,,,,,,,,,,,,,,,,,,,,,,,,,,,,,,,,,,,,,,,,,,,,,,,,,,,,,
,,,,,,,,,6595ddee29ac40a58a7feeb6,Spanish,13 or older,"no, only English or Spanish",yes,2025-08-15_08h58.30.724,empathy_intonation_perc,2024.2.4,Win32,74.62686567,6595ddee29ac40a58a7feeb6,689ed6d1281858f68c932c05,689f2edaf9e6de356dab170d,,,,,,,,,,,,,8,1,,./stim/wavs/cuban_match_interrogative-total-yn_Daniel-iba-a-Bolivia.wav,,,,,,,,,,,,,,,,,,,,,,221.6439,223.7236,0,0,1.5681,,0,8,8,7,1,1,cuban,,,,,,,,,,,,,,,,,,,,,,,,,,,,,,,,,,,,,,,,,,,,,,,,,,,,,,,,
,,,,,,,,,6595ddee29ac40a58a7feeb6,Spanish,13 or older,"no, only English or Spanish",yes,2025-08-15_08h58.30.724,empathy_intonation_perc,2024.2.4,Win32,74.62686567,6595ddee29ac40a58a7feeb6,689ed6d1281858f68c932c05,689f2edaf9e6de356dab170d,,,,,,,,,,,,,3,1,,./stim/wavs/castilian_match_interrogative-total-yn_Manuela-vende-el-carro.wav,,,,,,,,,,,,,,,,,,,,,,223.7238,225.8702,1,1,1.629,,0,9,9,2,1,0,castilian,,,,,,,,,,,,,,,,,,,,,,,,,,,,,,,,,,,,,,,,,,,,,,,,,,,,,,,,
,,,,,,,,,6595ddee29ac40a58a7feeb6,Spanish,13 or older,"no, only English or Spanish",yes,2025-08-15_08h58.30.724,empathy_intonation_perc,2024.2.4,Win32,74.62686567,6595ddee29ac40a58a7feeb6,689ed6d1281858f68c932c05,689f2edaf9e6de356dab170d,,,,,,,,,,,,,53,0,,./stim/wavs/cuban_match_declarative-broad-focus_Manuela-vende-el-carro.wav,,,,,,,,,,,,,,,,,,,,,,225.8705,228.4301,0,1,2.0498,,0,10,10,52,1,0,cuban,,,,,,,,,,,,,,,,,,,,,,,,,,,,,,,,,,,,,,,,,,,,,,,,,,,,,,,,
,,,,,,,,,6595ddee29ac40a58a7feeb6,Spanish,13 or older,"no, only English or Spanish",yes,2025-08-15_08h58.30.724,empathy_intonation_perc,2024.2.4,Win32,74.62686567,6595ddee29ac40a58a7feeb6,689ed6d1281858f68c932c05,689f2edaf9e6de356dab170d,,,,,,,,,,,,,75,0,,./stim/wavs/cuban_mismatch_declarative-broad-focus_El-hombre-mira-la-luna.wav,,,,,,,,,,,,,,,,,,,,,,228.4304,230.3101,0,1,1.3631,,0,11,11,74,1,0,cuban,,,,,,,,,,,,,,,,,,,,,,,,,,,,,,,,,,,,,,,,,,,,,,,,,,,,,,,,
,,,,,,,,,6595ddee29ac40a58a7feeb6,Spanish,13 or older,"no, only English or Spanish",yes,2025-08-15_08h58.30.724,empathy_intonation_perc,2024.2.4,Win32,74.62686567,6595ddee29ac40a58a7feeb6,689ed6d1281858f68c932c05,689f2edaf9e6de356dab170d,,,,,,,,,,,,,14,1,,./stim/wavs/mexican_match_interrogative-total-yn_Daniel-iba-a-Bolivia.wav,,,,,,,,,,,,,,,,,,,,,,230.3104,232.5635,1,1,1.7369,,0,12,12,13,1,0,mexican,,,,,,,,,,,,,,,,,,,,,,,,,,,,,,,,,,,,,,,,,,,,,,,,,,,,,,,,
,,,,,,,,,6595ddee29ac40a58a7feeb6,Spanish,13 or older,"no, only English or Spanish",yes,2025-08-15_08h58.30.724,empathy_intonation_perc,2024.2.4,Win32,74.62686567,6595ddee29ac40a58a7feeb6,689ed6d1281858f68c932c05,689f2edaf9e6de356dab170d,,,,,,,,,,,,,32,1,,./stim/wavs/cuban_mismatch_interrogative-total-yn_Mi-madre-come-la-fruta.wav,,,,,,,,,,,,,,,,,,,,,,232.5637,234.9099,0,0,1.8348,,0,13,13,31,1,1,cuban,,,,,,,,,,,,,,,,,,,,,,,,,,,,,,,,,,,,,,,,,,,,,,,,,,,,,,,,
,,,,,,,,,6595ddee29ac40a58a7feeb6,Spanish,13 or older,"no, only English or Spanish",yes,2025-08-15_08h58.30.724,empathy_intonation_perc,2024.2.4,Win32,74.62686567,6595ddee29ac40a58a7feeb6,689ed6d1281858f68c932c05,689f2edaf9e6de356dab170d,,,,,,,,,,,,,29,1,,./stim/wavs/castilian_mismatch_interrogative-total-yn_Mi-tia-odia-la-lluvia.wav,,,,,,,,,,,,,,,,,,,,,,234.9102,237.1099,1,1,1.684,,0,14,14,28,1,0,castilian,,,,,,,,,,,,,,,,,,,,,,,,,,,,,,,,,,,,,,,,,,,,,,,,,,,,,,,,
,,,,,,,,,6595ddee29ac40a58a7feeb6,Spanish,13 or older,"no, only English or Spanish",yes,2025-08-15_08h58.30.724,empathy_intonation_perc,2024.2.4,Win32,74.62686567,6595ddee29ac40a58a7feeb6,689ed6d1281858f68c932c05,689f2edaf9e6de356dab170d,,,,,,,,,,,,,40,1,,./stim/wavs/puertorican_mismatch_interrogative-total-yn_El-hombre-mira-la-luna.wav,,,,,,,,,,,,,,,,,,,,,,237.1103,239.1899,0,0,1.5711,,0,15,15,39,1,1,puertorican,,,,,,,,,,,,,,,,,,,,,,,,,,,,,,,,,,,,,,,,,,,,,,,,,,,,,,,,
,,,,,,,,,6595ddee29ac40a58a7feeb6,Spanish,13 or older,"no, only English or Spanish",yes,2025-08-15_08h58.30.724,empathy_intonation_perc,2024.2.4,Win32,74.62686567,6595ddee29ac40a58a7feeb6,689ed6d1281858f68c932c05,689f2edaf9e6de356dab170d,,,,,,,,,,,,,87,0,,./stim/wavs/puertorican_mismatch_declarative-broad-focus_La-maestra-vive-en-Paris.wav,,,,,,,,,,,,,,,,,,,,,,239.1902,241.2966,0,1,1.5914,,0,16,16,86,1,0,puertorican,,,,,,,,,,,,,,,,,,,,,,,,,,,,,,,,,,,,,,,,,,,,,,,,,,,,,,,,
,,,,,,,,,6595ddee29ac40a58a7feeb6,Spanish,13 or older,"no, only English or Spanish",yes,2025-08-15_08h58.30.724,empathy_intonation_perc,2024.2.4,Win32,74.62686567,6595ddee29ac40a58a7feeb6,689ed6d1281858f68c932c05,689f2edaf9e6de356dab170d,,,,,,,,,,,,,34,1,,./stim/wavs/cuban_mismatch_interrogative-total-yn_Mi-tia-odia-la-lluvia.wav,,,,,,,,,,,,,,,,,,,,,,241.2968,243.2964,0,0,1.4861,,0,17,17,33,1,1,cuban,,,,,,,,,,,,,,,,,,,,,,,,,,,,,,,,,,,,,,,,,,,,,,,,,,,,,,,,
,,,,,,,,,6595ddee29ac40a58a7feeb6,Spanish,13 or older,"no, only English or Spanish",yes,2025-08-15_08h58.30.724,empathy_intonation_perc,2024.2.4,Win32,74.62686567,6595ddee29ac40a58a7feeb6,689ed6d1281858f68c932c05,689f2edaf9e6de356dab170d,,,,,,,,,,,,,57,0,,./stim/wavs/mexican_match_declarative-broad-focus_Ana-lleva-el-abrigo.wav,,,,,,,,,,,,,,,,,,,,,,243.2967,245.2031,0,1,1.3912,,0,18,18,56,1,0,mexican,,,,,,,,,,,,,,,,,,,,,,,,,,,,,,,,,,,,,,,,,,,,,,,,,,,,,,,,
,,,,,,,,,6595ddee29ac40a58a7feeb6,Spanish,13 or older,"no, only English or Spanish",yes,2025-08-15_08h58.30.724,empathy_intonation_perc,2024.2.4,Win32,74.62686567,6595ddee29ac40a58a7feeb6,689ed6d1281858f68c932c05,689f2edaf9e6de356dab170d,,,,,,,,,,,,,13,1,,./stim/wavs/mexican_match_interrogative-total-yn_Ana-lleva-el-abrigo.wav,,,,,,,,,,,,,,,,,,,,,,245.2035,247.3366,1,1,1.6171,,0,19,19,12,1,0,mexican,,,,,,,,,,,,,,,,,,,,,,,,,,,,,,,,,,,,,,,,,,,,,,,,,,,,,,,,
,,,,,,,,,6595ddee29ac40a58a7feeb6,Spanish,13 or older,"no, only English or Spanish",yes,2025-08-15_08h58.30.724,empathy_intonation_perc,2024.2.4,Win32,74.62686567,6595ddee29ac40a58a7feeb6,689ed6d1281858f68c932c05,689f2edaf9e6de356dab170d,,,,,,,,,,,,,45,0,,./stim/wavs/castilian_match_declarative-broad-focus_David-leia-el-libro.wav,,,,,,,,,,,,,,,,,,,,,,247.3368,249.5497,0,1,1.6977,,0,20,20,44,1,0,castilian,,,,,,,,,,,,,,,,,,,,,,,,,,,,,,,,,,,,,,,,,,,,,,,,,,,,,,,,
,,,,,,,,,6595ddee29ac40a58a7feeb6,Spanish,13 or older,"no, only English or Spanish",yes,2025-08-15_08h58.30.724,empathy_intonation_perc,2024.2.4,Win32,74.62686567,6595ddee29ac40a58a7feeb6,689ed6d1281858f68c932c05,689f2edaf9e6de356dab170d,,,,,,,,,,,,,23,1,,./stim/wavs/puertorican_match_interrogative-total-yn_Manuela-vende-el-carro.wav,,,,,,,,,,,,,,,,,,,,,,249.55,251.523,0,0,1.4535,,0,21,21,22,1,1,puertorican,,,,,,,,,,,,,,,,,,,,,,,,,,,,,,,,,,,,,,,,,,,,,,,,,,,,,,,,
,,,,,,,,,6595ddee29ac40a58a7feeb6,Spanish,13 or older,"no, only English or Spanish",yes,2025-08-15_08h58.30.724,empathy_intonation_perc,2024.2.4,Win32,74.62686567,6595ddee29ac40a58a7feeb6,689ed6d1281858f68c932c05,689f2edaf9e6de356dab170d,,,,,,,,,,,,,1,1,,./stim/wavs/castilian_match_interrogative-total-yn_David-leia-el-libro.wav,,,,,,,,,,,,,,,,,,,,,,251.5232,253.7897,1,1,1.7501,,0,22,22,0,1,0,castilian,,,,,,,,,,,,,,,,,,,,,,,,,,,,,,,,,,,,,,,,,,,,,,,,,,,,,,,,
,,,,,,,,,6595ddee29ac40a58a7feeb6,Spanish,13 or older,"no, only English or Spanish",yes,2025-08-15_08h58.30.724,empathy_intonation_perc,2024.2.4,Win32,74.62686567,6595ddee29ac40a58a7feeb6,689ed6d1281858f68c932c05,689f2edaf9e6de356dab170d,,,,,,,,,,,,,48,0,,./stim/wavs/castilian_match_declarative-broad-focus_Maria-bebe-el-vino.wav,,,,,,,,,,,,,,,,,,,,,,253.7899,255.9764,0,1,1.678,,0,23,23,47,1,0,castilian,,,,,,,,,,,,,,,,,,,,,,,,,,,,,,,,,,,,,,,,,,,,,,,,,,,,,,,,
,,,,,,,,,6595ddee29ac40a58a7feeb6,Spanish,13 or older,"no, only English or Spanish",yes,2025-08-15_08h58.30.724,empathy_intonation_perc,2024.2.4,Win32,74.62686567,6595ddee29ac40a58a7feeb6,689ed6d1281858f68c932c05,689f2edaf9e6de356dab170d,,,,,,,,,,,,,42,1,,./stim/wavs/puertorican_mismatch_interrogative-total-yn_La-maestra-vive-en-Paris.wav,,,,,,,,,,,,,,,,,,,,,,255.9767,258.1096,0,0,1.6128,,0,24,24,41,1,1,puertorican,,,,,,,,,,,,,,,,,,,,,,,,,,,,,,,,,,,,,,,,,,,,,,,,,,,,,,,,
,,,,,,,,,6595ddee29ac40a58a7feeb6,Spanish,13 or older,"no, only English or Spanish",yes,2025-08-15_08h58.30.724,empathy_intonation_perc,2024.2.4,Win32,74.62686567,6595ddee29ac40a58a7feeb6,689ed6d1281858f68c932c05,689f2edaf9e6de356dab170d,,,,,,,,,,,,,7,1,,./stim/wavs/cuban_match_interrogative-total-yn_Ana-lleva-el-abrigo.wav,,,,,,,,,,,,,,,,,,,,,,258.1098,259.8962,0,0,1.2676,,0,25,25,6,1,1,cuban,,,,,,,,,,,,,,,,,,,,,,,,,,,,,,,,,,,,,,,,,,,,,,,,,,,,,,,,
,,,,,,,,,6595ddee29ac40a58a7feeb6,Spanish,13 or older,"no, only English or Spanish",yes,2025-08-15_08h58.30.724,empathy_intonation_perc,2024.2.4,Win32,74.62686567,6595ddee29ac40a58a7feeb6,689ed6d1281858f68c932c05,689f2edaf9e6de356dab170d,,,,,,,,,,,,,31,1,,./stim/wavs/cuban_mismatch_interrogative-total-yn_El-nino-oye-el-rio.wav,,,,,,,,,,,,,,,,,,,,,,259.8964,261.6561,0,0,1.243,,0,26,26,30,1,1,cuban,,,,,,,,,,,,,,,,,,,,,,,,,,,,,,,,,,,,,,,,,,,,,,,,,,,,,,,,
,,,,,,,,,6595ddee29ac40a58a7feeb6,Spanish,13 or older,"no, only English or Spanish",yes,2025-08-15_08h58.30.724,empathy_intonation_perc,2024.2.4,Win32,74.62686567,6595ddee29ac40a58a7feeb6,689ed6d1281858f68c932c05,689f2edaf9e6de356dab170d,,,,,,,,,,,,,10,1,,./stim/wavs/cuban_match_interrogative-total-yn_Maria-bebe-el-vino.wav,,,,,,,,,,,,,,,,,,,,,,261.6564,263.6028,0,0,1.427,,0,27,27,9,1,1,cuban,,,,,,,,,,,,,,,,,,,,,,,,,,,,,,,,,,,,,,,,,,,,,,,,,,,,,,,,
,,,,,,,,,6595ddee29ac40a58a7feeb6,Spanish,13 or older,"no, only English or Spanish",yes,2025-08-15_08h58.30.724,empathy_intonation_perc,2024.2.4,Win32,74.62686567,6595ddee29ac40a58a7feeb6,689ed6d1281858f68c932c05,689f2edaf9e6de356dab170d,,,,,,,,,,,,,72,0,,./stim/wavs/castilian_mismatch_declarative-broad-focus_Mi-novio-viene-del-lago.wav,,,,,,,,,,,,,,,,,,,,,,263.603,265.8827,0,1,1.7662,,0,28,28,71,1,0,castilian,,,,,,,,,,,,,,,,,,,,,,,,,,,,,,,,,,,,,,,,,,,,,,,,,,,,,,,,
,,,,,,,,,6595ddee29ac40a58a7feeb6,Spanish,13 or older,"no, only English or Spanish",yes,2025-08-15_08h58.30.724,empathy_intonation_perc,2024.2.4,Win32,74.62686567,6595ddee29ac40a58a7feeb6,689ed6d1281858f68c932c05,689f2edaf9e6de356dab170d,,,,,,,,,,,,,51,0,,./stim/wavs/cuban_match_declarative-broad-focus_Ana-lleva-el-abrigo.wav,,,,,,,,,,,,,,,,,,,,,,265.883,267.9094,0,1,1.5175,,0,29,29,50,1,0,cuban,,,,,,,,,,,,,,,,,,,,,,,,,,,,,,,,,,,,,,,,,,,,,,,,,,,,,,,,
,,,,,,,,,6595ddee29ac40a58a7feeb6,Spanish,13 or older,"no, only English or Spanish",yes,2025-08-15_08h58.30.724,empathy_intonation_perc,2024.2.4,Win32,74.62686567,6595ddee29ac40a58a7feeb6,689ed6d1281858f68c932c05,689f2edaf9e6de356dab170d,,,,,,,,,,,,,26,1,,./stim/wavs/castilian_mismatch_interrogative-total-yn_La-nina-lava-el-plato.wav,,,,,,,,,,,,,,,,,,,,,,267.9097,270.0426,1,1,1.6205,,0,30,30,25,1,0,castilian,,,,,,,,,,,,,,,,,,,,,,,,,,,,,,,,,,,,,,,,,,,,,,,,,,,,,,,,
,,,,,,,,,6595ddee29ac40a58a7feeb6,Spanish,13 or older,"no, only English or Spanish",yes,2025-08-15_08h58.30.724,empathy_intonation_perc,2024.2.4,Win32,74.62686567,6595ddee29ac40a58a7feeb6,689ed6d1281858f68c932c05,689f2edaf9e6de356dab170d,,,,,,,,,,,,,20,1,,./stim/wavs/puertorican_match_interrogative-total-yn_Daniel-iba-a-Bolivia.wav,,,,,,,,,,,,,,,,,,,,,,270.0429,272.1626,0,0,1.6066,,0,31,31,19,1,1,puertorican,,,,,,,,,,,,,,,,,,,,,,,,,,,,,,,,,,,,,,,,,,,,,,,,,,,,,,,,
,,,,,,,,,6595ddee29ac40a58a7feeb6,Spanish,13 or older,"no, only English or Spanish",yes,2025-08-15_08h58.30.724,empathy_intonation_perc,2024.2.4,Win32,74.62686567,6595ddee29ac40a58a7feeb6,689ed6d1281858f68c932c05,689f2edaf9e6de356dab170d,,,,,,,,,,,,,55,0,,./stim/wavs/cuban_match_declarative-broad-focus_Mariano-habla-del-tiempo.wav,,,,,,,,,,,,,,,,,,,,,,272.1628,274.5892,0,1,1.9099,,0,32,32,54,1,0,cuban,,,,,,,,,,,,,,,,,,,,,,,,,,,,,,,,,,,,,,,,,,,,,,,,,,,,,,,,
,,,,,,,,,6595ddee29ac40a58a7feeb6,Spanish,13 or older,"no, only English or Spanish",yes,2025-08-15_08h58.30.724,empathy_intonation_perc,2024.2.4,Win32,74.62686567,6595ddee29ac40a58a7feeb6,689ed6d1281858f68c932c05,689f2edaf9e6de356dab170d,,,,,,,,,,,,,63,0,,./stim/wavs/puertorican_match_declarative-broad-focus_Ana-lleva-el-abrigo.wav,,,,,,,,,,,,,,,,,,,,,,274.5895,276.4159,0,1,1.3099,,0,33,33,62,1,0,puertorican,,,,,,,,,,,,,,,,,,,,,,,,,,,,,,,,,,,,,,,,,,,,,,,,,,,,,,,,
,,,,,,,,,6595ddee29ac40a58a7feeb6,Spanish,13 or older,"no, only English or Spanish",yes,2025-08-15_08h58.30.724,empathy_intonation_perc,2024.2.4,Win32,74.62686567,6595ddee29ac40a58a7feeb6,689ed6d1281858f68c932c05,689f2edaf9e6de356dab170d,,,,,,,,,,,,,62,0,,./stim/wavs/mexican_match_declarative-broad-focus_Marta-abre-el-regalo.wav,,,,,,,,,,,,,,,,,,,,,,276.4161,278.3491,0,1,1.4173,,0,34,34,61,1,0,mexican,,,,,,,,,,,,,,,,,,,,,,,,,,,,,,,,,,,,,,,,,,,,,,,,,,,,,,,,
,,,,,,,,,6595ddee29ac40a58a7feeb6,Spanish,13 or older,"no, only English or Spanish",yes,2025-08-15_08h58.30.724,empathy_intonation_perc,2024.2.4,Win32,74.62686567,6595ddee29ac40a58a7feeb6,689ed6d1281858f68c932c05,689f2edaf9e6de356dab170d,,,,,,,,,,,,,38,1,,./stim/wavs/mexican_mismatch_interrogative-total-yn_Mi-novio-viene-del-lago.wav,,,,,,,,,,,,,,,,,,,,,,278.3493,280.7358,1,1,1.868,,0,35,35,37,1,0,mexican,,,,,,,,,,,,,,,,,,,,,,,,,,,,,,,,,,,,,,,,,,,,,,,,,,,,,,,,
,,,,,,,,,6595ddee29ac40a58a7feeb6,Spanish,13 or older,"no, only English or Spanish",yes,2025-08-15_08h58.30.724,empathy_intonation_perc,2024.2.4,Win32,74.62686567,6595ddee29ac40a58a7feeb6,689ed6d1281858f68c932c05,689f2edaf9e6de356dab170d,,,,,,,,,,,,,35,1,,./stim/wavs/mexican_mismatch_interrogative-total-yn_El-hombre-mira-la-luna.wav,,,,,,,,,,,,,,,,,,,,,,280.736,282.869,1,1,1.6185,,0,36,36,34,1,0,mexican,,,,,,,,,,,,,,,,,,,,,,,,,,,,,,,,,,,,,,,,,,,,,,,,,,,,,,,,
,,,,,,,,,6595ddee29ac40a58a7feeb6,Spanish,13 or older,"no, only English or Spanish",yes,2025-08-15_08h58.30.724,empathy_intonation_perc,2024.2.4,Win32,74.62686567,6595ddee29ac40a58a7feeb6,689ed6d1281858f68c932c05,689f2edaf9e6de356dab170d,,,,,,,,,,,,,46,0,,./stim/wavs/castilian_match_declarative-broad-focus_Emilio-ama-la-marcha.wav,,,,,,,,,,,,,,,,,,,,,,282.8693,285.0156,1,0,1.6361,,0,37,37,45,1,0,castilian,,,,,,,,,,,,,,,,,,,,,,,,,,,,,,,,,,,,,,,,,,,,,,,,,,,,,,,,
,,,,,,,,,6595ddee29ac40a58a7feeb6,Spanish,13 or older,"no, only English or Spanish",yes,2025-08-15_08h58.30.724,empathy_intonation_perc,2024.2.4,Win32,74.62686567,6595ddee29ac40a58a7feeb6,689ed6d1281858f68c932c05,689f2edaf9e6de356dab170d,,,,,,,,,,,,,64,0,,./stim/wavs/puertorican_match_declarative-broad-focus_Daniel-iba-a-Bolivia.wav,,,,,,,,,,,,,,,,,,,,,,285.0159,287.1489,0,1,1.6194,,0,38,38,63,1,0,puertorican,,,,,,,,,,,,,,,,,,,,,,,,,,,,,,,,,,,,,,,,,,,,,,,,,,,,,,,,
,,,,,,,,,6595ddee29ac40a58a7feeb6,Spanish,13 or older,"no, only English or Spanish",yes,2025-08-15_08h58.30.724,empathy_intonation_perc,2024.2.4,Win32,74.62686567,6595ddee29ac40a58a7feeb6,689ed6d1281858f68c932c05,689f2edaf9e6de356dab170d,,,,,,,,,,,,,69,0,,./stim/wavs/castilian_mismatch_declarative-broad-focus_El-nino-oye-el-rio.wav,,,,,,,,,,,,,,,,,,,,,,287.1492,289.3222,0,1,1.6622,,0,39,39,68,1,0,castilian,,,,,,,,,,,,,,,,,,,,,,,,,,,,,,,,,,,,,,,,,,,,,,,,,,,,,,,,
,,,,,,,,,6595ddee29ac40a58a7feeb6,Spanish,13 or older,"no, only English or Spanish",yes,2025-08-15_08h58.30.724,empathy_intonation_perc,2024.2.4,Win32,74.62686567,6595ddee29ac40a58a7feeb6,689ed6d1281858f68c932c05,689f2edaf9e6de356dab170d,,,,,,,,,,,,,71,0,,./stim/wavs/castilian_mismatch_declarative-broad-focus_La-nina-lava-el-plato.wav,,,,,,,,,,,,,,,,,,,,,,289.3225,291.8021,0,1,1.9667,,0,40,40,70,1,0,castilian,,,,,,,,,,,,,,,,,,,,,,,,,,,,,,,,,,,,,,,,,,,,,,,,,,,,,,,,
,,,,,,,,,6595ddee29ac40a58a7feeb6,Spanish,13 or older,"no, only English or Spanish",yes,2025-08-15_08h58.30.724,empathy_intonation_perc,2024.2.4,Win32,74.62686567,6595ddee29ac40a58a7feeb6,689ed6d1281858f68c932c05,689f2edaf9e6de356dab170d,,,,,,,,,,,,,17,1,,./stim/wavs/mexican_match_interrogative-total-yn_Mariano-habla-del-tiempo.wav,,,,,,,,,,,,,,,,,,,,,,291.8024,293.8021,0,0,1.4803,,0,41,41,16,1,0,mexican,,,,,,,,,,,,,,,,,,,,,,,,,,,,,,,,,,,,,,,,,,,,,,,,,,,,,,,,
,,,,,,,,,6595ddee29ac40a58a7feeb6,Spanish,13 or older,"no, only English or Spanish",yes,2025-08-15_08h58.30.724,empathy_intonation_perc,2024.2.4,Win32,74.62686567,6595ddee29ac40a58a7feeb6,689ed6d1281858f68c932c05,689f2edaf9e6de356dab170d,,,,,,,,,,,,,77,0,,./stim/wavs/cuban_mismatch_declarative-broad-focus_Mi-novio-viene-del-lago.wav,,,,,,,,,,,,,,,,,,,,,,293.8024,295.9888,0,1,1.6688,,0,42,42,76,1,0,cuban,,,,,,,,,,,,,,,,,,,,,,,,,,,,,,,,,,,,,,,,,,,,,,,,,,,,,,,,
,,,,,,,,,6595ddee29ac40a58a7feeb6,Spanish,13 or older,"no, only English or Spanish",yes,2025-08-15_08h58.30.724,empathy_intonation_perc,2024.2.4,Win32,74.62686567,6595ddee29ac40a58a7feeb6,689ed6d1281858f68c932c05,689f2edaf9e6de356dab170d,,,,,,,,,,,,,24,1,,./stim/wavs/puertorican_match_interrogative-total-yn_Maria-bebe-el-vino.wav,,,,,,,,,,,,,,,,,,,,,,295.9891,297.8554,0,0,1.3534,,0,43,43,23,1,1,puertorican,,,,,,,,,,,,,,,,,,,,,,,,,,,,,,,,,,,,,,,,,,,,,,,,,,,,,,,,
,,,,,,,,,6595ddee29ac40a58a7feeb6,Spanish,13 or older,"no, only English or Spanish",yes,2025-08-15_08h58.30.724,empathy_intonation_perc,2024.2.4,Win32,74.62686567,6595ddee29ac40a58a7feeb6,689ed6d1281858f68c932c05,689f2edaf9e6de356dab170d,,,,,,,,,,,,,19,1,,./stim/wavs/puertorican_match_interrogative-total-yn_Ana-lleva-el-abrigo.wav,,,,,,,,,,,,,,,,,,,,,,297.8557,299.642,0,0,1.2707,,0,44,44,18,1,1,puertorican,,,,,,,,,,,,,,,,,,,,,,,,,,,,,,,,,,,,,,,,,,,,,,,,,,,,,,,,
,,,,,,,,,6595ddee29ac40a58a7feeb6,Spanish,13 or older,"no, only English or Spanish",yes,2025-08-15_08h58.30.724,empathy_intonation_perc,2024.2.4,Win32,74.62686567,6595ddee29ac40a58a7feeb6,689ed6d1281858f68c932c05,689f2edaf9e6de356dab170d,,,,,,,,,,,,,25,1,,./stim/wavs/castilian_mismatch_interrogative-total-yn_La-maestra-vive-en-Paris.wav,,,,,,,,,,,,,,,,,,,,,,299.6423,302.0953,1,1,1.941,,0,45,45,24,1,0,castilian,,,,,,,,,,,,,,,,,,,,,,,,,,,,,,,,,,,,,,,,,,,,,,,,,,,,,,,,
,,,,,,,,,6595ddee29ac40a58a7feeb6,Spanish,13 or older,"no, only English or Spanish",yes,2025-08-15_08h58.30.724,empathy_intonation_perc,2024.2.4,Win32,74.62686567,6595ddee29ac40a58a7feeb6,689ed6d1281858f68c932c05,689f2edaf9e6de356dab170d,,,,,,,,,,,,,36,1,,./stim/wavs/mexican_mismatch_interrogative-total-yn_El-nino-oye-el-rio.wav,,,,,,,,,,,,,,,,,,,,,,302.0955,304.1086,1,1,1.497,,0,46,46,35,1,0,mexican,,,,,,,,,,,,,,,,,,,,,,,,,,,,,,,,,,,,,,,,,,,,,,,,,,,,,,,,
,,,,,,,,,6595ddee29ac40a58a7feeb6,Spanish,13 or older,"no, only English or Spanish",yes,2025-08-15_08h58.30.724,empathy_intonation_perc,2024.2.4,Win32,74.62686567,6595ddee29ac40a58a7feeb6,689ed6d1281858f68c932c05,689f2edaf9e6de356dab170d,,,,,,,,,,,,,15,1,,./stim/wavs/mexican_match_interrogative-total-yn_David-leia-el-libro.wav,,,,,,,,,,,,,,,,,,,,,,304.1088,306.2552,1,1,1.6327,,0,47,47,14,1,0,mexican,,,,,,,,,,,,,,,,,,,,,,,,,,,,,,,,,,,,,,,,,,,,,,,,,,,,,,,,
,,,,,,,,,6595ddee29ac40a58a7feeb6,Spanish,13 or older,"no, only English or Spanish",yes,2025-08-15_08h58.30.724,empathy_intonation_perc,2024.2.4,Win32,74.62686567,6595ddee29ac40a58a7feeb6,689ed6d1281858f68c932c05,689f2edaf9e6de356dab170d,,,,,,,,,,,,,65,0,,./stim/wavs/puertorican_match_declarative-broad-focus_David-leia-el-libro.wav,,,,,,,,,,,,,,,,,,,,,,306.2555,308.2552,0,1,1.4839,,0,48,48,64,1,0,puertorican,,,,,,,,,,,,,,,,,,,,,,,,,,,,,,,,,,,,,,,,,,,,,,,,,,,,,,,,
,,,,,,,,,6595ddee29ac40a58a7feeb6,Spanish,13 or older,"no, only English or Spanish",yes,2025-08-15_08h58.30.724,empathy_intonation_perc,2024.2.4,Win32,74.62686567,6595ddee29ac40a58a7feeb6,689ed6d1281858f68c932c05,689f2edaf9e6de356dab170d,,,,,,,,,,,,,27,1,,./stim/wavs/castilian_mismatch_interrogative-total-yn_Mi-madre-come-la-fruta.wav,,,,,,,,,,,,,,,,,,,,,,308.2555,310.4685,1,1,1.6939,,0,49,49,26,1,0,castilian,,,,,,,,,,,,,,,,,,,,,,,,,,,,,,,,,,,,,,,,,,,,,,,,,,,,,,,,
,,,,,,,,,6595ddee29ac40a58a7feeb6,Spanish,13 or older,"no, only English or Spanish",yes,2025-08-15_08h58.30.724,empathy_intonation_perc,2024.2.4,Win32,74.62686567,6595ddee29ac40a58a7feeb6,689ed6d1281858f68c932c05,689f2edaf9e6de356dab170d,,,,,,,,,,,,,21,1,,./stim/wavs/puertorican_match_interrogative-total-yn_David-leia-el-libro.wav,,,,,,,,,,,,,,,,,,,,,,310.4687,312.5617,0,0,1.5772,,0,50,50,20,1,1,puertorican,,,,,,,,,,,,,,,,,,,,,,,,,,,,,,,,,,,,,,,,,,,,,,,,,,,,,,,,
,,,,,,,,,6595ddee29ac40a58a7feeb6,Spanish,13 or older,"no, only English or Spanish",yes,2025-08-15_08h58.30.724,empathy_intonation_perc,2024.2.4,Win32,74.62686567,6595ddee29ac40a58a7feeb6,689ed6d1281858f68c932c05,689f2edaf9e6de356dab170d,,,,,,,,,,,,,12,1,,./stim/wavs/cuban_match_interrogative-total-yn_Marta-abre-el-regalo.wav,,,,,,,,,,,,,,,,,,,,,,312.562,314.5218,0,0,1.4488,,0,51,51,11,1,1,cuban,,,,,,,,,,,,,,,,,,,,,,,,,,,,,,,,,,,,,,,,,,,,,,,,,,,,,,,,
,,,,,,,,,6595ddee29ac40a58a7feeb6,Spanish,13 or older,"no, only English or Spanish",yes,2025-08-15_08h58.30.724,empathy_intonation_perc,2024.2.4,Win32,74.62686567,6595ddee29ac40a58a7feeb6,689ed6d1281858f68c932c05,689f2edaf9e6de356dab170d,,,,,,,,,,,,,88,0,,./stim/wavs/puertorican_mismatch_declarative-broad-focus_La-nina-lava-el-plato.wav,,,,,,,,,,,,,,,,,,,,,,314.5219,316.4683,0,1,1.4272,,0,52,52,87,1,0,puertorican,,,,,,,,,,,,,,,,,,,,,,,,,,,,,,,,,,,,,,,,,,,,,,,,,,,,,,,,
,,,,,,,,,6595ddee29ac40a58a7feeb6,Spanish,13 or older,"no, only English or Spanish",yes,2025-08-15_08h58.30.724,empathy_intonation_perc,2024.2.4,Win32,74.62686567,6595ddee29ac40a58a7feeb6,689ed6d1281858f68c932c05,689f2edaf9e6de356dab170d,,,,,,,,,,,,,28,1,,./stim/wavs/castilian_mismatch_interrogative-total-yn_Mi-novio-viene-del-lago.wav,,,,,,,,,,,,,,,,,,,,,,316.4686,318.7483,1,1,1.7688,,0,53,53,27,1,0,castilian,,,,,,,,,,,,,,,,,,,,,,,,,,,,,,,,,,,,,,,,,,,,,,,,,,,,,,,,
,,,,,,,,,6595ddee29ac40a58a7feeb6,Spanish,13 or older,"no, only English or Spanish",yes,2025-08-15_08h58.30.724,empathy_intonation_perc,2024.2.4,Win32,74.62686567,6595ddee29ac40a58a7feeb6,689ed6d1281858f68c932c05,689f2edaf9e6de356dab170d,,,,,,,,,,,,,56,0,,./stim/wavs/cuban_match_declarative-broad-focus_Marta-abre-el-regalo.wav,,,,,,,,,,,,,,,,,,,,,,318.7486,320.7349,0,1,1.4693,,0,54,54,55,1,0,cuban,,,,,,,,,,,,,,,,,,,,,,,,,,,,,,,,,,,,,,,,,,,,,,,,,,,,,,,,
,,,,,,,,,6595ddee29ac40a58a7feeb6,Spanish,13 or older,"no, only English or Spanish",yes,2025-08-15_08h58.30.724,empathy_intonation_perc,2024.2.4,Win32,74.62686567,6595ddee29ac40a58a7feeb6,689ed6d1281858f68c932c05,689f2edaf9e6de356dab170d,,,,,,,,,,,,,9,1,,./stim/wavs/cuban_match_interrogative-total-yn_Manuela-vende-el-carro.wav,,,,,,,,,,,,,,,,,,,,,,320.7352,322.4282,0,0,1.1762,,0,55,55,8,1,1,cuban,,,,,,,,,,,,,,,,,,,,,,,,,,,,,,,,,,,,,,,,,,,,,,,,,,,,,,,,
,,,,,,,,,6595ddee29ac40a58a7feeb6,Spanish,13 or older,"no, only English or Spanish",yes,2025-08-15_08h58.30.724,empathy_intonation_perc,2024.2.4,Win32,74.62686567,6595ddee29ac40a58a7feeb6,689ed6d1281858f68c932c05,689f2edaf9e6de356dab170d,,,,,,,,,,,,,16,1,,./stim/wavs/mexican_match_interrogative-total-yn_Emilio-ama-la-marcha.wav,,,,,,,,,,,,,,,,,,,,,,322.4284,324.5616,1,1,1.622,,0,56,56,15,1,0,mexican,,,,,,,,,,,,,,,,,,,,,,,,,,,,,,,,,,,,,,,,,,,,,,,,,,,,,,,,
,,,,,,,,,6595ddee29ac40a58a7feeb6,Spanish,13 or older,"no, only English or Spanish",yes,2025-08-15_08h58.30.724,empathy_intonation_perc,2024.2.4,Win32,74.62686567,6595ddee29ac40a58a7feeb6,689ed6d1281858f68c932c05,689f2edaf9e6de356dab170d,,,,,,,,,,,,,22,1,,./stim/wavs/puertorican_match_interrogative-total-yn_Emilio-ama-la-marcha.wav,,,,,,,,,,,,,,,,,,,,,,324.5618,326.6548,0,0,1.5825,,0,57,57,21,1,1,puertorican,,,,,,,,,,,,,,,,,,,,,,,,,,,,,,,,,,,,,,,,,,,,,,,,,,,,,,,,
,,,,,,,,,6595ddee29ac40a58a7feeb6,Spanish,13 or older,"no, only English or Spanish",yes,2025-08-15_08h58.30.724,empathy_intonation_perc,2024.2.4,Win32,74.62686567,6595ddee29ac40a58a7feeb6,689ed6d1281858f68c932c05,689f2edaf9e6de356dab170d,,,,,,,,,,,,,86,0,,./stim/wavs/puertorican_mismatch_declarative-broad-focus_El-nino-oye-el-rio.wav,,,,,,,,,,,,,,,,,,,,,,326.6551,328.5748,0,1,1.4024,,0,58,58,85,1,0,puertorican,,,,,,,,,,,,,,,,,,,,,,,,,,,,,,,,,,,,,,,,,,,,,,,,,,,,,,,,
,,,,,,,,,6595ddee29ac40a58a7feeb6,Spanish,13 or older,"no, only English or Spanish",yes,2025-08-15_08h58.30.724,empathy_intonation_perc,2024.2.4,Win32,74.62686567,6595ddee29ac40a58a7feeb6,689ed6d1281858f68c932c05,689f2edaf9e6de356dab170d,,,,,,,,,,,,,47,0,,./stim/wavs/castilian_match_declarative-broad-focus_Manuela-vende-el-carro.wav,,,,,,,,,,,,,,,,,,,,,,328.5752,330.8147,0,1,1.7219,,0,59,59,46,1,0,castilian,,,,,,,,,,,,,,,,,,,,,,,,,,,,,,,,,,,,,,,,,,,,,,,,,,,,,,,,
,,,,,,,,,6595ddee29ac40a58a7feeb6,Spanish,13 or older,"no, only English or Spanish",yes,2025-08-15_08h58.30.724,empathy_intonation_perc,2024.2.4,Win32,74.62686567,6595ddee29ac40a58a7feeb6,689ed6d1281858f68c932c05,689f2edaf9e6de356dab170d,,,,,,,,,,,,,70,0,,./stim/wavs/castilian_mismatch_declarative-broad-focus_La-maestra-vive-en-Paris.wav,,,,,,,,,,,,,,,,,,,,,,330.815,333.0413,0,1,1.7094,,0,60,60,69,1,0,castilian,,,,,,,,,,,,,,,,,,,,,,,,,,,,,,,,,,,,,,,,,,,,,,,,,,,,,,,,
,,,,,,,,,6595ddee29ac40a58a7feeb6,Spanish,13 or older,"no, only English or Spanish",yes,2025-08-15_08h58.30.724,empathy_intonation_perc,2024.2.4,Win32,74.62686567,6595ddee29ac40a58a7feeb6,689ed6d1281858f68c932c05,689f2edaf9e6de356dab170d,,,,,,,,,,,,,82,0,,./stim/wavs/mexican_mismatch_declarative-broad-focus_Mi-novio-viene-del-lago.wav,,,,,,,,,,,,,,,,,,,,,,333.0416,334.908,0,1,1.3466,,0,61,61,81,1,0,mexican,,,,,,,,,,,,,,,,,,,,,,,,,,,,,,,,,,,,,,,,,,,,,,,,,,,,,,,,
,,,,,,,,,6595ddee29ac40a58a7feeb6,Spanish,13 or older,"no, only English or Spanish",yes,2025-08-15_08h58.30.724,empathy_intonation_perc,2024.2.4,Win32,74.62686567,6595ddee29ac40a58a7feeb6,689ed6d1281858f68c932c05,689f2edaf9e6de356dab170d,,,,,,,,,,,,,54,0,,./stim/wavs/cuban_match_declarative-broad-focus_Maria-bebe-el-vino.wav,,,,,,,,,,,,,,,,,,,,,,334.9083,336.7879,0,1,1.3616,,0,62,62,53,1,0,cuban,,,,,,,,,,,,,,,,,,,,,,,,,,,,,,,,,,,,,,,,,,,,,,,,,,,,,,,,
,,,,,,,,,6595ddee29ac40a58a7feeb6,Spanish,13 or older,"no, only English or Spanish",yes,2025-08-15_08h58.30.724,empathy_intonation_perc,2024.2.4,Win32,74.62686567,6595ddee29ac40a58a7feeb6,689ed6d1281858f68c932c05,689f2edaf9e6de356dab170d,,,,,,,,,,,,,2,1,,./stim/wavs/castilian_match_interrogative-total-yn_Emilio-ama-la-marcha.wav,,,,,,,,,,,,,,,,,,,,,,336.7882,339.2012,1,1,1.8933,,0,63,63,1,1,0,castilian,,,,,,,,,,,,,,,,,,,,,,,,,,,,,,,,,,,,,,,,,,,,,,,,,,,,,,,,
,,,,,,,,,6595ddee29ac40a58a7feeb6,Spanish,13 or older,"no, only English or Spanish",yes,2025-08-15_08h58.30.724,empathy_intonation_perc,2024.2.4,Win32,74.62686567,6595ddee29ac40a58a7feeb6,689ed6d1281858f68c932c05,689f2edaf9e6de356dab170d,,,,,,,,,,,,,18,1,,./stim/wavs/mexican_match_interrogative-total-yn_Marta-abre-el-regalo.wav,,,,,,,,,,,,,,,,,,,,,,339.2015,341.2279,1,1,1.5109,,0,64,64,17,1,0,mexican,,,,,,,,,,,,,,,,,,,,,,,,,,,,,,,,,,,,,,,,,,,,,,,,,,,,,,,,
,,,,,,,,,6595ddee29ac40a58a7feeb6,Spanish,13 or older,"no, only English or Spanish",yes,2025-08-15_08h58.30.724,empathy_intonation_perc,2024.2.4,Win32,74.62686567,6595ddee29ac40a58a7feeb6,689ed6d1281858f68c932c05,689f2edaf9e6de356dab170d,,,,,,,,,,,,,33,1,,./stim/wavs/cuban_mismatch_interrogative-total-yn_Mi-novio-viene-del-lago.wav,,,,,,,,,,,,,,,,,,,,,,341.2281,343.2944,0,0,1.5482,,0,65,65,32,1,1,cuban,,,,,,,,,,,,,,,,,,,,,,,,,,,,,,,,,,,,,,,,,,,,,,,,,,,,,,,,
,,,,,,,,,6595ddee29ac40a58a7feeb6,Spanish,13 or older,"no, only English or Spanish",yes,2025-08-15_08h58.30.724,empathy_intonation_perc,2024.2.4,Win32,74.62686567,6595ddee29ac40a58a7feeb6,689ed6d1281858f68c932c05,689f2edaf9e6de356dab170d,,,,,,,,,,,,,44,1,,./stim/wavs/puertorican_mismatch_interrogative-total-yn_Mi-madre-come-la-fruta.wav,,,,,,,,,,,,,,,,,,,,,,343.2947,345.2277,0,0,1.4238,,0,66,66,43,1,1,puertorican,,,,,,,,,,,,,,,,,,,,,,,,,,,,,,,,,,,,,,,,,,,,,,,,,,,,,,,,
,,,,,,,,,6595ddee29ac40a58a7feeb6,Spanish,13 or older,"no, only English or Spanish",yes,2025-08-15_08h58.30.724,empathy_intonation_perc,2024.2.4,Win32,74.62686567,6595ddee29ac40a58a7feeb6,689ed6d1281858f68c932c05,689f2edaf9e6de356dab170d,,,,,,,,,,,,,66,0,,./stim/wavs/puertorican_match_declarative-broad-focus_Emilio-ama-la-marcha.wav,,,,,,,,,,,,,,,,,,,,,,345.228,347.2277,0,1,1.4833,,0,67,67,65,1,0,puertorican,,,,,,,,,,,,,,,,,,,,,,,,,,,,,,,,,,,,,,,,,,,,,,,,,,,,,,,,
,,,,,,,,,6595ddee29ac40a58a7feeb6,Spanish,13 or older,"no, only English or Spanish",yes,2025-08-15_08h58.30.724,empathy_intonation_perc,2024.2.4,Win32,74.62686567,6595ddee29ac40a58a7feeb6,689ed6d1281858f68c932c05,689f2edaf9e6de356dab170d,,,,,,,,,,,,,60,0,,./stim/wavs/mexican_match_declarative-broad-focus_Emilio-ama-la-marcha.wav,,,,,,,,,,,,,,,,,,,,,,347.228,349.961,0,1,2.2139,,0,68,68,59,1,0,mexican,,,,,,,,,,,,,,,,,,,,,,,,,,,,,,,,,,,,,,,,,,,,,,,,,,,,,,,,
,,,,,,,,,6595ddee29ac40a58a7feeb6,Spanish,13 or older,"no, only English or Spanish",yes,2025-08-15_08h58.30.724,empathy_intonation_perc,2024.2.4,Win32,74.62686567,6595ddee29ac40a58a7feeb6,689ed6d1281858f68c932c05,689f2edaf9e6de356dab170d,,,,,,,,,,,,,43,1,,./stim/wavs/puertorican_mismatch_interrogative-total-yn_La-nina-lava-el-plato.wav,,,,,,,,,,,,,,,,,,,,,,349.9612,351.8809,0,0,1.4041,,0,69,69,42,1,1,puertorican,,,,,,,,,,,,,,,,,,,,,,,,,,,,,,,,,,,,,,,,,,,,,,,,,,,,,,,,
,,,,,,,,,6595ddee29ac40a58a7feeb6,Spanish,13 or older,"no, only English or Spanish",yes,2025-08-15_08h58.30.724,empathy_intonation_perc,2024.2.4,Win32,74.62686567,6595ddee29ac40a58a7feeb6,689ed6d1281858f68c932c05,689f2edaf9e6de356dab170d,,,,,,,,,,,,,4,1,,./stim/wavs/castilian_match_interrogative-total-yn_Maria-bebe-el-vino.wav,,,,,,,,,,,,,,,,,,,,,,351.8812,353.7608,1,1,1.3695,,0,70,70,3,1,0,castilian,,,,,,,,,,,,,,,,,,,,,,,,,,,,,,,,,,,,,,,,,,,,,,,,,,,,,,,,
,,,,,,,,,6595ddee29ac40a58a7feeb6,Spanish,13 or older,"no, only English or Spanish",yes,2025-08-15_08h58.30.724,empathy_intonation_perc,2024.2.4,Win32,74.62686567,6595ddee29ac40a58a7feeb6,689ed6d1281858f68c932c05,689f2edaf9e6de356dab170d,,,,,,,,,,,,,68,0,,./stim/wavs/puertorican_match_declarative-broad-focus_Maria-bebe-el-vino.wav,,,,,,,,,,,,,,,,,,,,,,353.761,355.8675,0,1,1.5883,,0,71,71,67,1,0,puertorican,,,,,,,,,,,,,,,,,,,,,,,,,,,,,,,,,,,,,,,,,,,,,,,,,,,,,,,,
,,,,,,,,,6595ddee29ac40a58a7feeb6,Spanish,13 or older,"no, only English or Spanish",yes,2025-08-15_08h58.30.724,empathy_intonation_perc,2024.2.4,Win32,74.62686567,6595ddee29ac40a58a7feeb6,689ed6d1281858f68c932c05,689f2edaf9e6de356dab170d,,,,,,,,,,,,,52,0,,./stim/wavs/cuban_match_declarative-broad-focus_Daniel-iba-a-Bolivia.wav,,,,,,,,,,,,,,,,,,,,,,355.8678,358.0541,0,1,1.6734,,0,72,72,51,1,0,cuban,,,,,,,,,,,,,,,,,,,,,,,,,,,,,,,,,,,,,,,,,,,,,,,,,,,,,,,,
,,,,,,,,,6595ddee29ac40a58a7feeb6,Spanish,13 or older,"no, only English or Spanish",yes,2025-08-15_08h58.30.724,empathy_intonation_perc,2024.2.4,Win32,74.62686567,6595ddee29ac40a58a7feeb6,689ed6d1281858f68c932c05,689f2edaf9e6de356dab170d,,,,,,,,,,,,,59,0,,./stim/wavs/mexican_match_declarative-broad-focus_David-leia-el-libro.wav,,,,,,,,,,,,,,,,,,,,,,358.0543,360.0141,0,1,1.44,,0,73,73,58,1,0,mexican,,,,,,,,,,,,,,,,,,,,,,,,,,,,,,,,,,,,,,,,,,,,,,,,,,,,,,,,
,,,,,,,,,6595ddee29ac40a58a7feeb6,Spanish,13 or older,"no, only English or Spanish",yes,2025-08-15_08h58.30.724,empathy_intonation_perc,2024.2.4,Win32,74.62686567,6595ddee29ac40a58a7feeb6,689ed6d1281858f68c932c05,689f2edaf9e6de356dab170d,,,,,,,,,,,,,61,0,,./stim/wavs/mexican_match_declarative-broad-focus_Mariano-habla-del-tiempo.wav,,,,,,,,,,,,,,,,,,,,,,360.0144,362.1341,0,1,1.6076,,0,74,74,60,1,0,mexican,,,,,,,,,,,,,,,,,,,,,,,,,,,,,,,,,,,,,,,,,,,,,,,,,,,,,,,,
,,,,,,,,,6595ddee29ac40a58a7feeb6,Spanish,13 or older,"no, only English or Spanish",yes,2025-08-15_08h58.30.724,empathy_intonation_perc,2024.2.4,Win32,74.62686567,6595ddee29ac40a58a7feeb6,689ed6d1281858f68c932c05,689f2edaf9e6de356dab170d,,,,,,,,,,,,,67,0,,./stim/wavs/puertorican_match_declarative-broad-focus_Manuela-vende-el-carro.wav,,,,,,,,,,,,,,,,,,,,,,362.1343,364.134,0,1,1.4891,,0,75,75,66,1,0,puertorican,,,,,,,,,,,,,,,,,,,,,,,,,,,,,,,,,,,,,,,,,,,,,,,,,,,,,,,,
,,,,,,,,,6595ddee29ac40a58a7feeb6,Spanish,13 or older,"no, only English or Spanish",yes,2025-08-15_08h58.30.724,empathy_intonation_perc,2024.2.4,Win32,74.62686567,6595ddee29ac40a58a7feeb6,689ed6d1281858f68c932c05,689f2edaf9e6de356dab170d,,,,,,,,,,,,,79,0,,./stim/wavs/mexican_mismatch_declarative-broad-focus_El-bebe-comia-muy-bien.wav,,,,,,,,,,,,,,,,,,,,,,364.1343,366.1073,0,1,1.4542,,0,76,76,78,1,0,mexican,,,,,,,,,,,,,,,,,,,,,,,,,,,,,,,,,,,,,,,,,,,,,,,,,,,,,,,,
,,,,,,,,,6595ddee29ac40a58a7feeb6,Spanish,13 or older,"no, only English or Spanish",yes,2025-08-15_08h58.30.724,empathy_intonation_perc,2024.2.4,Win32,74.62686567,6595ddee29ac40a58a7feeb6,689ed6d1281858f68c932c05,689f2edaf9e6de356dab170d,,,,,,,,,,,,,39,1,,./stim/wavs/mexican_mismatch_interrogative-total-yn_Mi-tia-odia-la-lluvia.wav,,,,,,,,,,,,,,,,,,,,,,366.1076,368.0406,0,0,1.413,,0,77,77,38,1,0,mexican,,,,,,,,,,,,,,,,,,,,,,,,,,,,,,,,,,,,,,,,,,,,,,,,,,,,,,,,
,,,,,,,,,6595ddee29ac40a58a7feeb6,Spanish,13 or older,"no, only English or Spanish",yes,2025-08-15_08h58.30.724,empathy_intonation_perc,2024.2.4,Win32,74.62686567,6595ddee29ac40a58a7feeb6,689ed6d1281858f68c932c05,689f2edaf9e6de356dab170d,,,,,,,,,,,,,30,1,,./stim/wavs/cuban_mismatch_interrogative-total-yn_El-hombre-mira-la-luna.wav,,,,,,,,,,,,,,,,,,,,,,368.0409,369.9739,0,0,1.4202,,0,78,78,29,1,1,cuban,,,,,,,,,,,,,,,,,,,,,,,,,,,,,,,,,,,,,,,,,,,,,,,,,,,,,,,,
,,,,,,,,,6595ddee29ac40a58a7feeb6,Spanish,13 or older,"no, only English or Spanish",yes,2025-08-15_08h58.30.724,empathy_intonation_perc,2024.2.4,Win32,74.62686567,6595ddee29ac40a58a7feeb6,689ed6d1281858f68c932c05,689f2edaf9e6de356dab170d,,,,,,,,,,,,,78,0,,./stim/wavs/cuban_mismatch_declarative-broad-focus_Mi-tia-odia-la-lluvia.wav,,,,,,,,,,,,,,,,,,,,,,369.9741,371.9872,0,1,1.4934,,0,79,79,77,1,0,cuban,,,,,,,,,,,,,,,,,,,,,,,,,,,,,,,,,,,,,,,,,,,,,,,,,,,,,,,,
,,,,,,,,,6595ddee29ac40a58a7feeb6,Spanish,13 or older,"no, only English or Spanish",yes,2025-08-15_08h58.30.724,empathy_intonation_perc,2024.2.4,Win32,74.62686567,6595ddee29ac40a58a7feeb6,689ed6d1281858f68c932c05,689f2edaf9e6de356dab170d,,,,,,,,,,,,,74,0,,./stim/wavs/cuban_mismatch_declarative-broad-focus_El-bebe-comia-muy-bien.wav,,,,,,,,,,,,,,,,,,,,,,371.9875,373.8272,0,1,1.3209,,0,80,80,73,1,0,cuban,,,,,,,,,,,,,,,,,,,,,,,,,,,,,,,,,,,,,,,,,,,,,,,,,,,,,,,,
,,,,,,,,,6595ddee29ac40a58a7feeb6,Spanish,13 or older,"no, only English or Spanish",yes,2025-08-15_08h58.30.724,empathy_intonation_perc,2024.2.4,Win32,74.62686567,6595ddee29ac40a58a7feeb6,689ed6d1281858f68c932c05,689f2edaf9e6de356dab170d,,,,,,,,,,,,,81,0,,./stim/wavs/mexican_mismatch_declarative-broad-focus_La-maestra-vive-en-Paris.wav,,,,,,,,,,,,,,,,,,,,,,373.8274,375.9204,0,1,1.5838,,0,81,81,80,1,0,mexican,,,,,,,,,,,,,,,,,,,,,,,,,,,,,,,,,,,,,,,,,,,,,,,,,,,,,,,,
,,,,,,,,,6595ddee29ac40a58a7feeb6,Spanish,13 or older,"no, only English or Spanish",yes,2025-08-15_08h58.30.724,empathy_intonation_perc,2024.2.4,Win32,74.62686567,6595ddee29ac40a58a7feeb6,689ed6d1281858f68c932c05,689f2edaf9e6de356dab170d,,,,,,,,,,,,,41,1,,./stim/wavs/puertorican_mismatch_interrogative-total-yn_El-nino-oye-el-rio.wav,,,,,,,,,,,,,,,,,,,,,,375.9206,377.8537,0,0,1.4151,,0,82,82,40,1,1,puertorican,,,,,,,,,,,,,,,,,,,,,,,,,,,,,,,,,,,,,,,,,,,,,,,,,,,,,,,,
,,,,,,,,,6595ddee29ac40a58a7feeb6,Spanish,13 or older,"no, only English or Spanish",yes,2025-08-15_08h58.30.724,empathy_intonation_perc,2024.2.4,Win32,74.62686567,6595ddee29ac40a58a7feeb6,689ed6d1281858f68c932c05,689f2edaf9e6de356dab170d,,,,,,,,,,,,,58,0,,./stim/wavs/mexican_match_declarative-broad-focus_Daniel-iba-a-Bolivia.wav,,,,,,,,,,,,,,,,,,,,,,377.854,379.8405,0,1,1.4752,,0,83,83,57,1,0,mexican,,,,,,,,,,,,,,,,,,,,,,,,,,,,,,,,,,,,,,,,,,,,,,,,,,,,,,,,
,,,,,,,,,6595ddee29ac40a58a7feeb6,Spanish,13 or older,"no, only English or Spanish",yes,2025-08-15_08h58.30.724,empathy_intonation_perc,2024.2.4,Win32,74.62686567,6595ddee29ac40a58a7feeb6,689ed6d1281858f68c932c05,689f2edaf9e6de356dab170d,,,,,,,,,,,,,49,0,,./stim/wavs/castilian_match_declarative-broad-focus_Mariano-habla-del-tiempo.wav,,,,,,,,,,,,,,,,,,,,,,379.8407,382.2137,0,1,1.8607,,0,84,84,48,1,0,castilian,,,,,,,,,,,,,,,,,,,,,,,,,,,,,,,,,,,,,,,,,,,,,,,,,,,,,,,,
,,,,,,,,,6595ddee29ac40a58a7feeb6,Spanish,13 or older,"no, only English or Spanish",yes,2025-08-15_08h58.30.724,empathy_intonation_perc,2024.2.4,Win32,74.62686567,6595ddee29ac40a58a7feeb6,689ed6d1281858f68c932c05,689f2edaf9e6de356dab170d,,,,,,,,,,,,,84,0,,./stim/wavs/puertorican_mismatch_declarative-broad-focus_El-bebe-comia-muy-bien.wav,,,,,,,,,,,,,,,,,,,,,,382.2139,384.747,0,1,2.0157,,0,85,85,83,1,0,puertorican,,,,,,,,,,,,,,,,,,,,,,,,,,,,,,,,,,,,,,,,,,,,,,,,,,,,,,,,
,,,,,,,,,6595ddee29ac40a58a7feeb6,Spanish,13 or older,"no, only English or Spanish",yes,2025-08-15_08h58.30.724,empathy_intonation_perc,2024.2.4,Win32,74.62686567,6595ddee29ac40a58a7feeb6,689ed6d1281858f68c932c05,689f2edaf9e6de356dab170d,,,,,,,,,,,,,5,1,,./stim/wavs/castilian_match_interrogative-total-yn_Mariano-habla-del-tiempo.wav,,,,,,,,,,,,,,,,,,,,,,384.7472,387.1735,1,1,1.9101,,0,86,86,4,1,0,castilian,,,,,,,,,,,,,,,,,,,,,,,,,,,,,,,,,,,,,,,,,,,,,,,,,,,,,,,,
,,,,,,,,,6595ddee29ac40a58a7feeb6,Spanish,13 or older,"no, only English or Spanish",yes,2025-08-15_08h58.30.724,empathy_intonation_perc,2024.2.4,Win32,74.62686567,6595ddee29ac40a58a7feeb6,689ed6d1281858f68c932c05,689f2edaf9e6de356dab170d,,,,,,,,,,,,,80,0,,./stim/wavs/mexican_mismatch_declarative-broad-focus_El-hombre-mira-la-luna.wav,,,,,,,,,,,,,,,,,,,,,,387.1738,389.2801,0,1,1.5936,,0,87,87,79,1,0,mexican,,,,,,,,,,,,,,,,,,,,,,,,,,,,,,,,,,,,,,,,,,,,,,,,,,,,,,,,
,,,,,,,"Great! Now we will move on. The next task consists of about 60 trials, in each of which you will see a string of letters. 
  
  Your task is to decide whether this is a real Spanish word or not.", (press the spacebar to continue),6595ddee29ac40a58a7feeb6,Spanish,13 or older,"no, only English or Spanish",yes,2025-08-15_08h58.30.724,empathy_intonation_perc,2024.2.4,Win32,74.62686567,6595ddee29ac40a58a7feeb6,689ed6d1281858f68c932c05,689f2edaf9e6de356dab170d,,,,,,,,,,,,,,,,,,,,,,,,,,,,,,,,,,,,,,,,,,,,,,,,,,,389.2828,391.8535,0,0,0,0,1,,,,,,,,,,,,,,,,,,,,,,,,,,,,,,,,,,,,,,,,,,,,,,,,,
,,,,,,,"If you think it is an existing Spanish word, you type '1' (for 'REAL'), and if you think it is not an existing Spanish word, you type '0' (for 'FAKE').", (press the spacebar to continue),6595ddee29ac40a58a7feeb6,Spanish,13 or older,"no, only English or Spanish",yes,2025-08-15_08h58.30.724,empathy_intonation_perc,2024.2.4,Win32,74.62686567,6595ddee29ac40a58a7feeb6,689ed6d1281858f68c932c05,689f2edaf9e6de356dab170d,,,,,,,,,,,,,,,,,,,,,,,,,,,,,,,,,,,,,,,,,,,,,,,,,,,391.8545,393.0935,0,1,1,1,1,,,,,,,,,,,,,,,,,,,,,,,,,,,,,,,,,,,,,,,,,,,,,,,,,
,,,,,,,"If you are sure that the word exists, even though you don’t know its exact meaning, you may still respond '1' (REAL). 
  
  But if you are not sure if it is an existing word, you should respond '0' (FAKE).
  
  Let's do a practice round...", (press the spacebar to continue),6595ddee29ac40a58a7feeb6,Spanish,13 or older,"no, only English or Spanish",yes,2025-08-15_08h58.30.724,empathy_intonation_perc,2024.2.4,Win32,74.62686567,6595ddee29ac40a58a7feeb6,689ed6d1281858f68c932c05,689f2edaf9e6de356dab170d,,,,,,,,,,,,,,,,,,,,,,,,,,,,,,,,,,,,,,,,,,,,,,,,,,,393.0945,395.0001,0,2,2,2,1,,,,,,,,,,,,,,,,,,,,,,,,,,,,,,,,,,,,,,,,,,,,,,,,,
,,,,,,,,,6595ddee29ac40a58a7feeb6,Spanish,13 or older,"no, only English or Spanish",yes,2025-08-15_08h58.30.724,empathy_intonation_perc,2024.2.4,Win32,74.62686567,6595ddee29ac40a58a7feeb6,689ed6d1281858f68c932c05,689f2edaf9e6de356dab170d,,,,,,,,,,,,,,0,,,,,,,,,,,,,,,,,,,,,,,,,,,,,,,,,,,,,,,,,,,,395.0025,397.3201,0,1,1.8036,,397.3202,398.3201,0,0,0,0,1,0,depiste,REAL,FAKE,,,,,,,,,,,,,,,,,,,,,,,,,,,,,,,,
,,,,,,,,,6595ddee29ac40a58a7feeb6,Spanish,13 or older,"no, only English or Spanish",yes,2025-08-15_08h58.30.724,empathy_intonation_perc,2024.2.4,Win32,74.62686567,6595ddee29ac40a58a7feeb6,689ed6d1281858f68c932c05,689f2edaf9e6de356dab170d,,,,,,,,,,,,,,1,,,,,,,,,,,,,,,,,,,,,,,,,,,,,,,,,,,,,,,,,,,,398.3208,400.2533,1,1,1.4133,,400.2534,401.2533,0,1,1,1,1,0,sí,REAL,FAKE,,,,,,,,,,,,,,,,,,,,,,,,,,,,,,,,
,,,,,,,,,6595ddee29ac40a58a7feeb6,Spanish,13 or older,"no, only English or Spanish",yes,2025-08-15_08h58.30.724,empathy_intonation_perc,2024.2.4,Win32,74.62686567,6595ddee29ac40a58a7feeb6,689ed6d1281858f68c932c05,689f2edaf9e6de356dab170d,,,,,,,,,,,,,,0,,,,,,,,,,,,,,,,,,,,,,,,,,,,,,,,,,,,,,,,,,,,401.254,402.6532,0,1,0.8776,,402.6533,403.6533,0,2,2,2,1,0,coné,REAL,FAKE,,,,,,,,,,,,,,,,,,,,,,,,,,,,,,,,
,,,,,,,,,6595ddee29ac40a58a7feeb6,Spanish,13 or older,"no, only English or Spanish",yes,2025-08-15_08h58.30.724,empathy_intonation_perc,2024.2.4,Win32,74.62686567,6595ddee29ac40a58a7feeb6,689ed6d1281858f68c932c05,689f2edaf9e6de356dab170d,,,,,,,,,,,,,,0,,,,,,,,,,,,,,,,,,,,,,,,,,,,,,,,,,,,,,,,,,,,403.6537,405.1599,1,0,0.9845,,405.1606,406.1598,0,3,3,3,1,0,calpar,REAL,FAKE,,,,,,,,,,,,,,,,,,,,,,,,,,,,,,,,
,,,,,,,,,6595ddee29ac40a58a7feeb6,Spanish,13 or older,"no, only English or Spanish",yes,2025-08-15_08h58.30.724,empathy_intonation_perc,2024.2.4,Win32,74.62686567,6595ddee29ac40a58a7feeb6,689ed6d1281858f68c932c05,689f2edaf9e6de356dab170d,,,,,,,,,,,,,,0,,,,,,,,,,,,,,,,,,,,,,,,,,,,,,,,,,,,,,,,,,,,406.1605,407.5065,0,1,0.8301,,407.5068,408.5064,0,4,4,4,1,0,joten,REAL,FAKE,,,,,,,,,,,,,,,,,,,,,,,,,,,,,,,,
,,,,,,,,,6595ddee29ac40a58a7feeb6,Spanish,13 or older,"no, only English or Spanish",yes,2025-08-15_08h58.30.724,empathy_intonation_perc,2024.2.4,Win32,74.62686567,6595ddee29ac40a58a7feeb6,689ed6d1281858f68c932c05,689f2edaf9e6de356dab170d,,,,,,,,,,,,,,1,,,,,,,,,,,,,,,,,,,,,,,,,,,,,,,,,,,,,,,,,,,,408.5069,410.5597,1,1,1.5407,,410.5597,411.5597,0,5,5,5,1,0,sacapuntas,REAL,FAKE,,,,,,,,,,,,,,,,,,,,,,,,,,,,,,,,
,,,,,,,,,6595ddee29ac40a58a7feeb6,Spanish,13 or older,"no, only English or Spanish",yes,2025-08-15_08h58.30.724,empathy_intonation_perc,2024.2.4,Win32,74.62686567,6595ddee29ac40a58a7feeb6,689ed6d1281858f68c932c05,689f2edaf9e6de356dab170d,,,,,,,,,,,,,,0,,,,,,,,,,,,,,,,,,,,,,,,,,,,,,,,,,,,,,,,,,,,411.5604,413.533,0,1,1.439,,413.5331,414.5331,0,6,6,6,1,0,priba,REAL,FAKE,,,,,,,,,,,,,,,,,,,,,,,,,,,,,,,,
,,,,,,,,,6595ddee29ac40a58a7feeb6,Spanish,13 or older,"no, only English or Spanish",yes,2025-08-15_08h58.30.724,empathy_intonation_perc,2024.2.4,Win32,74.62686567,6595ddee29ac40a58a7feeb6,689ed6d1281858f68c932c05,689f2edaf9e6de356dab170d,,,,,,,,,,,,,,0,,,,,,,,,,,,,,,,,,,,,,,,,,,,,,,,,,,,,,,,,,,,414.5335,416.0929,0,1,1.0256,,416.093,417.0929,0,7,7,7,1,0,pelasula,REAL,FAKE,,,,,,,,,,,,,,,,,,,,,,,,,,,,,,,,
,,,,,,,,,6595ddee29ac40a58a7feeb6,Spanish,13 or older,"no, only English or Spanish",yes,2025-08-15_08h58.30.724,empathy_intonation_perc,2024.2.4,Win32,74.62686567,6595ddee29ac40a58a7feeb6,689ed6d1281858f68c932c05,689f2edaf9e6de356dab170d,,,,,,,,,,,,,,1,,,,,,,,,,,,,,,,,,,,,,,,,,,,,,,,,,,,,,,,,,,,417.0935,418.2662,1,1,0.6621,,418.2663,419.2662,0,8,8,8,1,0,bien,REAL,FAKE,,,,,,,,,,,,,,,,,,,,,,,,,,,,,,,,
,,,,,,,,,6595ddee29ac40a58a7feeb6,Spanish,13 or older,"no, only English or Spanish",yes,2025-08-15_08h58.30.724,empathy_intonation_perc,2024.2.4,Win32,74.62686567,6595ddee29ac40a58a7feeb6,689ed6d1281858f68c932c05,689f2edaf9e6de356dab170d,,,,,,,,,,,,,,1,,,,,,,,,,,,,,,,,,,,,,,,,,,,,,,,,,,,,,,,,,,,419.2666,420.3595,1,1,0.5791,,420.3596,421.3595,0,9,9,9,1,0,casa,REAL,FAKE,,,,,,,,,,,,,,,,,,,,,,,,,,,,,,,,
,,,,,,,,,6595ddee29ac40a58a7feeb6,Spanish,13 or older,"no, only English or Spanish",yes,2025-08-15_08h58.30.724,empathy_intonation_perc,2024.2.4,Win32,74.62686567,6595ddee29ac40a58a7feeb6,689ed6d1281858f68c932c05,689f2edaf9e6de356dab170d,,,,,,,,,,,,,,0,,,,,,,,,,,,,,,,,,,,,,,,,,,,,,,,,,,,,,,,,,,,421.36,423.0528,1,0,1.1732,,423.0531,424.0528,0,10,10,10,1,0,lejo,REAL,FAKE,,,,,,,,,,,,,,,,,,,,,,,,,,,,,,,,
,,,,,,,,,6595ddee29ac40a58a7feeb6,Spanish,13 or older,"no, only English or Spanish",yes,2025-08-15_08h58.30.724,empathy_intonation_perc,2024.2.4,Win32,74.62686567,6595ddee29ac40a58a7feeb6,689ed6d1281858f68c932c05,689f2edaf9e6de356dab170d,,,,,,,,,,,,,,0,,,,,,,,,,,,,,,,,,,,,,,,,,,,,,,,,,,,,,,,,,,,424.0533,426.026,0,1,1.4595,,426.0264,427.0261,0,11,11,11,1,0,pretantas,REAL,FAKE,,,,,,,,,,,,,,,,,,,,,,,,,,,,,,,,
,,,,,,,,,6595ddee29ac40a58a7feeb6,Spanish,13 or older,"no, only English or Spanish",yes,2025-08-15_08h58.30.724,empathy_intonation_perc,2024.2.4,Win32,74.62686567,6595ddee29ac40a58a7feeb6,689ed6d1281858f68c932c05,689f2edaf9e6de356dab170d,,,,,,,,,,,,,,,,,,,,,,,,,,,,,,,,,,,,,,,,,,,,,,,,,,,,,,,,,,,,,,,,,,,,,,,,,,,427.0262,427.8795,,,,,,,,,,,,,,,,,,,,,,,,,,,,,,
,,,,,,,,,6595ddee29ac40a58a7feeb6,Spanish,13 or older,"no, only English or Spanish",yes,2025-08-15_08h58.30.724,empathy_intonation_perc,2024.2.4,Win32,74.62686567,6595ddee29ac40a58a7feeb6,689ed6d1281858f68c932c05,689f2edaf9e6de356dab170d,,,,,,,,,,,,,,1,,,,,,,,,,,,,,,,,,,,,,,,,,,,,,,,,,,,,,,,,,,,,,,,,,,,,,,,,75,yacer,,,,,427.8831,429.2262,0,0,0.8294,,0,0,0,74,1,REAL,FAKE,,,,,,,,,,,,,,,,,
,,,,,,,,,6595ddee29ac40a58a7feeb6,Spanish,13 or older,"no, only English or Spanish",yes,2025-08-15_08h58.30.724,empathy_intonation_perc,2024.2.4,Win32,74.62686567,6595ddee29ac40a58a7feeb6,689ed6d1281858f68c932c05,689f2edaf9e6de356dab170d,,,,,,,,,,,,,,1,,,,,,,,,,,,,,,,,,,,,,,,,,,,,,,,,,,,,,,,,,,,,,,,,,,,,,,,,76,atar,,,,,429.2267,430.946,0,0,1.2016,,0,1,1,75,1,REAL,FAKE,,,,,,,,,,,,,,,,,
,,,,,,,,,6595ddee29ac40a58a7feeb6,Spanish,13 or older,"no, only English or Spanish",yes,2025-08-15_08h58.30.724,empathy_intonation_perc,2024.2.4,Win32,74.62686567,6595ddee29ac40a58a7feeb6,689ed6d1281858f68c932c05,689f2edaf9e6de356dab170d,,,,,,,,,,,,,,0,,,,,,,,,,,,,,,,,,,,,,,,,,,,,,,,,,,,,,,,,,,,,,,,,,,,,,,,,42,cadallo,,,,,430.9464,432.2526,1,0,0.786,,0,2,2,41,1,REAL,FAKE,,,,,,,,,,,,,,,,,
,,,,,,,,,6595ddee29ac40a58a7feeb6,Spanish,13 or older,"no, only English or Spanish",yes,2025-08-15_08h58.30.724,empathy_intonation_perc,2024.2.4,Win32,74.62686567,6595ddee29ac40a58a7feeb6,689ed6d1281858f68c932c05,689f2edaf9e6de356dab170d,,,,,,,,,,,,,,0,,,,,,,,,,,,,,,,,,,,,,,,,,,,,,,,,,,,,,,,,,,,,,,,,,,,,,,,,53,vegada,,,,,432.2533,433.6126,0,1,0.8413,,0,3,3,52,1,REAL,FAKE,,,,,,,,,,,,,,,,,
,,,,,,,,,6595ddee29ac40a58a7feeb6,Spanish,13 or older,"no, only English or Spanish",yes,2025-08-15_08h58.30.724,empathy_intonation_perc,2024.2.4,Win32,74.62686567,6595ddee29ac40a58a7feeb6,689ed6d1281858f68c932c05,689f2edaf9e6de356dab170d,,,,,,,,,,,,,,0,,,,,,,,,,,,,,,,,,,,,,,,,,,,,,,,,,,,,,,,,,,,,,,,,,,,,,,,,23,lampera,,,,,433.6131,435.2794,1,0,1.1568,,0,4,4,22,1,REAL,FAKE,,,,,,,,,,,,,,,,,
,,,,,,,,,6595ddee29ac40a58a7feeb6,Spanish,13 or older,"no, only English or Spanish",yes,2025-08-15_08h58.30.724,empathy_intonation_perc,2024.2.4,Win32,74.62686567,6595ddee29ac40a58a7feeb6,689ed6d1281858f68c932c05,689f2edaf9e6de356dab170d,,,,,,,,,,,,,,1,,,,,,,,,,,,,,,,,,,,,,,,,,,,,,,,,,,,,,,,,,,,,,,,,,,,,,,,,15,regar,,,,,435.2798,437.1591,1,1,1.3583,,0,5,5,14,1,REAL,FAKE,,,,,,,,,,,,,,,,,
,,,,,,,,,6595ddee29ac40a58a7feeb6,Spanish,13 or older,"no, only English or Spanish",yes,2025-08-15_08h58.30.724,empathy_intonation_perc,2024.2.4,Win32,74.62686567,6595ddee29ac40a58a7feeb6,689ed6d1281858f68c932c05,689f2edaf9e6de356dab170d,,,,,,,,,,,,,,0,,,,,,,,,,,,,,,,,,,,,,,,,,,,,,,,,,,,,,,,,,,,,,,,,,,,,,,,,16,abracer,,,,,437.1596,438.5859,1,0,0.9066,,0,6,6,15,1,REAL,FAKE,,,,,,,,,,,,,,,,,
,,,,,,,,,6595ddee29ac40a58a7feeb6,Spanish,13 or older,"no, only English or Spanish",yes,2025-08-15_08h58.30.724,empathy_intonation_perc,2024.2.4,Win32,74.62686567,6595ddee29ac40a58a7feeb6,689ed6d1281858f68c932c05,689f2edaf9e6de356dab170d,,,,,,,,,,,,,,0,,,,,,,,,,,,,,,,,,,,,,,,,,,,,,,,,,,,,,,,,,,,,,,,,,,,,,,,,10,antar,,,,,438.5863,440.4392,0,1,1.3324,,0,7,7,9,1,REAL,FAKE,,,,,,,,,,,,,,,,,
,,,,,,,,,6595ddee29ac40a58a7feeb6,Spanish,13 or older,"no, only English or Spanish",yes,2025-08-15_08h58.30.724,empathy_intonation_perc,2024.2.4,Win32,74.62686567,6595ddee29ac40a58a7feeb6,689ed6d1281858f68c932c05,689f2edaf9e6de356dab170d,,,,,,,,,,,,,,1,,,,,,,,,,,,,,,,,,,,,,,,,,,,,,,,,,,,,,,,,,,,,,,,,,,,,,,,,40,alfombra,,,,,440.4397,442.5857,0,0,1.6347,,0,8,8,39,1,REAL,FAKE,,,,,,,,,,,,,,,,,
,,,,,,,,,6595ddee29ac40a58a7feeb6,Spanish,13 or older,"no, only English or Spanish",yes,2025-08-15_08h58.30.724,empathy_intonation_perc,2024.2.4,Win32,74.62686567,6595ddee29ac40a58a7feeb6,689ed6d1281858f68c932c05,689f2edaf9e6de356dab170d,,,,,,,,,,,,,,1,,,,,,,,,,,,,,,,,,,,,,,,,,,,,,,,,,,,,,,,,,,,,,,,,,,,,,,,,11,cenefa,,,,,442.5862,443.8257,0,0,0.7246,,0,9,9,10,1,REAL,FAKE,,,,,,,,,,,,,,,,,
,,,,,,,,,6595ddee29ac40a58a7feeb6,Spanish,13 or older,"no, only English or Spanish",yes,2025-08-15_08h58.30.724,empathy_intonation_perc,2024.2.4,Win32,74.62686567,6595ddee29ac40a58a7feeb6,689ed6d1281858f68c932c05,689f2edaf9e6de356dab170d,,,,,,,,,,,,,,1,,,,,,,,,,,,,,,,,,,,,,,,,,,,,,,,,,,,,,,,,,,,,,,,,,,,,,,,,24,látigo,,,,,443.8265,445.0924,0,0,0.746,,0,10,10,23,1,REAL,FAKE,,,,,,,,,,,,,,,,,
,,,,,,,,,6595ddee29ac40a58a7feeb6,Spanish,13 or older,"no, only English or Spanish",yes,2025-08-15_08h58.30.724,empathy_intonation_perc,2024.2.4,Win32,74.62686567,6595ddee29ac40a58a7feeb6,689ed6d1281858f68c932c05,689f2edaf9e6de356dab170d,,,,,,,,,,,,,,0,,,,,,,,,,,,,,,,,,,,,,,,,,,,,,,,,,,,,,,,,,,,,,,,,,,,,,,,,19,brecedad,,,,,445.0929,446.3457,0,1,0.7319,,0,11,11,18,1,REAL,FAKE,,,,,,,,,,,,,,,,,
,,,,,,,,,6595ddee29ac40a58a7feeb6,Spanish,13 or older,"no, only English or Spanish",yes,2025-08-15_08h58.30.724,empathy_intonation_perc,2024.2.4,Win32,74.62686567,6595ddee29ac40a58a7feeb6,689ed6d1281858f68c932c05,689f2edaf9e6de356dab170d,,,,,,,,,,,,,,1,,,,,,,,,,,,,,,,,,,,,,,,,,,,,,,,,,,,,,,,,,,,,,,,,,,,,,,,,2,pellizcar,,,,,446.3463,447.679,0,0,0.8183,,0,12,12,1,1,REAL,FAKE,,,,,,,,,,,,,,,,,
,,,,,,,,,6595ddee29ac40a58a7feeb6,Spanish,13 or older,"no, only English or Spanish",yes,2025-08-15_08h58.30.724,empathy_intonation_perc,2024.2.4,Win32,74.62686567,6595ddee29ac40a58a7feeb6,689ed6d1281858f68c932c05,689f2edaf9e6de356dab170d,,,,,,,,,,,,,,0,,,,,,,,,,,,,,,,,,,,,,,,,,,,,,,,,,,,,,,,,,,,,,,,,,,,,,,,,70,temblo,,,,,447.6795,449.1057,0,1,0.9167,,0,13,13,69,1,REAL,FAKE,,,,,,,,,,,,,,,,,
,,,,,,,,,6595ddee29ac40a58a7feeb6,Spanish,13 or older,"no, only English or Spanish",yes,2025-08-15_08h58.30.724,empathy_intonation_perc,2024.2.4,Win32,74.62686567,6595ddee29ac40a58a7feeb6,689ed6d1281858f68c932c05,689f2edaf9e6de356dab170d,,,,,,,,,,,,,,0,,,,,,,,,,,,,,,,,,,,,,,,,,,,,,,,,,,,,,,,,,,,,,,,,,,,,,,,,87,grodo,,,,,449.1061,450.2522,0,1,0.6318,,0,14,14,86,1,REAL,FAKE,,,,,,,,,,,,,,,,,
,,,,,,,,,6595ddee29ac40a58a7feeb6,Spanish,13 or older,"no, only English or Spanish",yes,2025-08-15_08h58.30.724,empathy_intonation_perc,2024.2.4,Win32,74.62686567,6595ddee29ac40a58a7feeb6,689ed6d1281858f68c932c05,689f2edaf9e6de356dab170d,,,,,,,,,,,,,,0,,,,,,,,,,,,,,,,,,,,,,,,,,,,,,,,,,,,,,,,,,,,,,,,,,,,,,,,,92,click the 0 key.,,,,,450.2527,451.6922,0,1,0.9184,,0,15,15,91,1,REAL,FAKE,,,,,,,,,,,,,,,,,
,,,,,,,,,6595ddee29ac40a58a7feeb6,Spanish,13 or older,"no, only English or Spanish",yes,2025-08-15_08h58.30.724,empathy_intonation_perc,2024.2.4,Win32,74.62686567,6595ddee29ac40a58a7feeb6,689ed6d1281858f68c932c05,689f2edaf9e6de356dab170d,,,,,,,,,,,,,,0,,,,,,,,,,,,,,,,,,,,,,,,,,,,,,,,,,,,,,,,,,,,,,,,,,,,,,,,,33,pauca,,,,,451.6926,452.8389,0,1,0.6337,,0,16,16,32,1,REAL,FAKE,,,,,,,,,,,,,,,,,
,,,,,,,,,6595ddee29ac40a58a7feeb6,Spanish,13 or older,"no, only English or Spanish",yes,2025-08-15_08h58.30.724,empathy_intonation_perc,2024.2.4,Win32,74.62686567,6595ddee29ac40a58a7feeb6,689ed6d1281858f68c932c05,689f2edaf9e6de356dab170d,,,,,,,,,,,,,,1,,,,,,,,,,,,,,,,,,,,,,,,,,,,,,,,,,,,,,,,,,,,,,,,,,,,,,,,,3,pulmones,,,,,452.8394,454.0789,0,0,0.721,,0,17,17,2,1,REAL,FAKE,,,,,,,,,,,,,,,,,
,,,,,,,,,6595ddee29ac40a58a7feeb6,Spanish,13 or older,"no, only English or Spanish",yes,2025-08-15_08h58.30.724,empathy_intonation_perc,2024.2.4,Win32,74.62686567,6595ddee29ac40a58a7feeb6,689ed6d1281858f68c932c05,689f2edaf9e6de356dab170d,,,,,,,,,,,,,,0,,,,,,,,,,,,,,,,,,,,,,,,,,,,,,,,,,,,,,,,,,,,,,,,,,,,,,,,,72,pemición,,,,,454.0795,456.5054,1,0,1.9154,,0,18,18,71,1,REAL,FAKE,,,,,,,,,,,,,,,,,
,,,,,,,,,6595ddee29ac40a58a7feeb6,Spanish,13 or older,"no, only English or Spanish",yes,2025-08-15_08h58.30.724,empathy_intonation_perc,2024.2.4,Win32,74.62686567,6595ddee29ac40a58a7feeb6,689ed6d1281858f68c932c05,689f2edaf9e6de356dab170d,,,,,,,,,,,,,,1,,,,,,,,,,,,,,,,,,,,,,,,,,,,,,,,,,,,,,,,,,,,,,,,,,,,,,,,,28,merodear,,,,,456.5059,457.6921,0,0,0.6634,,0,19,19,27,1,REAL,FAKE,,,,,,,,,,,,,,,,,
,,,,,,,,,6595ddee29ac40a58a7feeb6,Spanish,13 or older,"no, only English or Spanish",yes,2025-08-15_08h58.30.724,empathy_intonation_perc,2024.2.4,Win32,74.62686567,6595ddee29ac40a58a7feeb6,689ed6d1281858f68c932c05,689f2edaf9e6de356dab170d,,,,,,,,,,,,,,0,,,,,,,,,,,,,,,,,,,,,,,,,,,,,,,,,,,,,,,,,,,,,,,,,,,,,,,,,21,capillo,,,,,457.6926,459.0121,1,0,0.8058,,0,20,20,20,1,REAL,FAKE,,,,,,,,,,,,,,,,,
,,,,,,,,,6595ddee29ac40a58a7feeb6,Spanish,13 or older,"no, only English or Spanish",yes,2025-08-15_08h58.30.724,empathy_intonation_perc,2024.2.4,Win32,74.62686567,6595ddee29ac40a58a7feeb6,689ed6d1281858f68c932c05,689f2edaf9e6de356dab170d,,,,,,,,,,,,,,1,,,,,,,,,,,,,,,,,,,,,,,,,,,,,,,,,,,,,,,,,,,,,,,,,,,,,,,,,54,fomentar,,,,,459.0125,460.1054,0,0,0.5727,,0,21,21,53,1,REAL,FAKE,,,,,,,,,,,,,,,,,
,,,,,,,,,6595ddee29ac40a58a7feeb6,Spanish,13 or older,"no, only English or Spanish",yes,2025-08-15_08h58.30.724,empathy_intonation_perc,2024.2.4,Win32,74.62686567,6595ddee29ac40a58a7feeb6,689ed6d1281858f68c932c05,689f2edaf9e6de356dab170d,,,,,,,,,,,,,,1,,,,,,,,,,,,,,,,,,,,,,,,,,,,,,,,,,,,,,,,,,,,,,,,,,,,,,,,,20,ávido,,,,,460.1059,461.6653,1,1,1.0384,,0,22,22,19,1,REAL,FAKE,,,,,,,,,,,,,,,,,
,,,,,,,,,6595ddee29ac40a58a7feeb6,Spanish,13 or older,"no, only English or Spanish",yes,2025-08-15_08h58.30.724,empathy_intonation_perc,2024.2.4,Win32,74.62686567,6595ddee29ac40a58a7feeb6,689ed6d1281858f68c932c05,689f2edaf9e6de356dab170d,,,,,,,,,,,,,,1,,,,,,,,,,,,,,,,,,,,,,,,,,,,,,,,,,,,,,,,,,,,,,,,,,,,,,,,,48,ladrón,,,,,461.6657,462.9987,0,0,0.8145,,0,23,23,47,1,REAL,FAKE,,,,,,,,,,,,,,,,,
,,,,,,,,,6595ddee29ac40a58a7feeb6,Spanish,13 or older,"no, only English or Spanish",yes,2025-08-15_08h58.30.724,empathy_intonation_perc,2024.2.4,Win32,74.62686567,6595ddee29ac40a58a7feeb6,689ed6d1281858f68c932c05,689f2edaf9e6de356dab170d,,,,,,,,,,,,,,0,,,,,,,,,,,,,,,,,,,,,,,,,,,,,,,,,,,,,,,,,,,,,,,,,,,,,,,,,74,cintro,,,,,462.9991,464.132,0,1,0.6215,,0,24,24,73,1,REAL,FAKE,,,,,,,,,,,,,,,,,
,,,,,,,,,6595ddee29ac40a58a7feeb6,Spanish,13 or older,"no, only English or Spanish",yes,2025-08-15_08h58.30.724,empathy_intonation_perc,2024.2.4,Win32,74.62686567,6595ddee29ac40a58a7feeb6,689ed6d1281858f68c932c05,689f2edaf9e6de356dab170d,,,,,,,,,,,,,,1,,,,,,,,,,,,,,,,,,,,,,,,,,,,,,,,,,,,,,,,,,,,,,,,,,,,,,,,,65,bizcocho,,,,,464.1324,465.2386,0,0,0.5925,,0,25,25,64,1,REAL,FAKE,,,,,,,,,,,,,,,,,
,,,,,,,,,6595ddee29ac40a58a7feeb6,Spanish,13 or older,"no, only English or Spanish",yes,2025-08-15_08h58.30.724,empathy_intonation_perc,2024.2.4,Win32,74.62686567,6595ddee29ac40a58a7feeb6,689ed6d1281858f68c932c05,689f2edaf9e6de356dab170d,,,,,,,,,,,,,,1,,,,,,,,,,,,,,,,,,,,,,,,,,,,,,,,,,,,,,,,,,,,,,,,,,,,,,,,,14,yunque,,,,,465.2392,466.5453,0,0,0.797,,0,26,26,13,1,REAL,FAKE,,,,,,,,,,,,,,,,,
,,,,,,,,,6595ddee29ac40a58a7feeb6,Spanish,13 or older,"no, only English or Spanish",yes,2025-08-15_08h58.30.724,empathy_intonation_perc,2024.2.4,Win32,74.62686567,6595ddee29ac40a58a7feeb6,689ed6d1281858f68c932c05,689f2edaf9e6de356dab170d,,,,,,,,,,,,,,1,,,,,,,,,,,,,,,,,,,,,,,,,,,,,,,,,,,,,,,,,,,,,,,,,,,,,,,,,39,torpe,,,,,466.5458,467.6119,0,0,0.5417,,0,27,27,38,1,REAL,FAKE,,,,,,,,,,,,,,,,,
,,,,,,,,,6595ddee29ac40a58a7feeb6,Spanish,13 or older,"no, only English or Spanish",yes,2025-08-15_08h58.30.724,empathy_intonation_perc,2024.2.4,Win32,74.62686567,6595ddee29ac40a58a7feeb6,689ed6d1281858f68c932c05,689f2edaf9e6de356dab170d,,,,,,,,,,,,,,1,,,,,,,,,,,,,,,,,,,,,,,,,,,,,,,,,,,,,,,,,,,,,,,,,,,,,,,,,60,matar,,,,,467.6123,468.6519,0,0,0.5285,,0,28,28,59,1,REAL,FAKE,,,,,,,,,,,,,,,,,
,,,,,,,,,6595ddee29ac40a58a7feeb6,Spanish,13 or older,"no, only English or Spanish",yes,2025-08-15_08h58.30.724,empathy_intonation_perc,2024.2.4,Win32,74.62686567,6595ddee29ac40a58a7feeb6,689ed6d1281858f68c932c05,689f2edaf9e6de356dab170d,,,,,,,,,,,,,,1,,,,,,,,,,,,,,,,,,,,,,,,,,,,,,,,,,,,,,,,,,,,,,,,,,,,,,,,,89,prisa,,,,,468.6523,469.9052,0,0,0.733,,0,29,29,88,1,REAL,FAKE,,,,,,,,,,,,,,,,,
,,,,,,,,,6595ddee29ac40a58a7feeb6,Spanish,13 or older,"no, only English or Spanish",yes,2025-08-15_08h58.30.724,empathy_intonation_perc,2024.2.4,Win32,74.62686567,6595ddee29ac40a58a7feeb6,689ed6d1281858f68c932c05,689f2edaf9e6de356dab170d,,,,,,,,,,,,,,0,,,,,,,,,,,,,,,,,,,,,,,,,,,,,,,,,,,,,,,,,,,,,,,,,,,,,,,,,8,cadeña,,,,,469.9058,471.5451,0,1,1.1273,,0,30,30,7,1,REAL,FAKE,,,,,,,,,,,,,,,,,
,,,,,,,,,6595ddee29ac40a58a7feeb6,Spanish,13 or older,"no, only English or Spanish",yes,2025-08-15_08h58.30.724,empathy_intonation_perc,2024.2.4,Win32,74.62686567,6595ddee29ac40a58a7feeb6,689ed6d1281858f68c932c05,689f2edaf9e6de356dab170d,,,,,,,,,,,,,,1,,,,,,,,,,,,,,,,,,,,,,,,,,,,,,,,,,,,,,,,,,,,,,,,,,,,,,,,,80,hormiga,,,,,471.5456,472.8251,0,0,0.7484,,0,31,31,79,1,REAL,FAKE,,,,,,,,,,,,,,,,,
,,,,,,,,,6595ddee29ac40a58a7feeb6,Spanish,13 or older,"no, only English or Spanish",yes,2025-08-15_08h58.30.724,empathy_intonation_perc,2024.2.4,Win32,74.62686567,6595ddee29ac40a58a7feeb6,689ed6d1281858f68c932c05,689f2edaf9e6de356dab170d,,,,,,,,,,,,,,0,,,,,,,,,,,,,,,,,,,,,,,,,,,,,,,,,,,,,,,,,,,,,,,,,,,,,,,,,84,escuto,,,,,472.8256,474.7851,0,1,1.4388,,0,32,32,83,1,REAL,FAKE,,,,,,,,,,,,,,,,,
,,,,,,,,,6595ddee29ac40a58a7feeb6,Spanish,13 or older,"no, only English or Spanish",yes,2025-08-15_08h58.30.724,empathy_intonation_perc,2024.2.4,Win32,74.62686567,6595ddee29ac40a58a7feeb6,689ed6d1281858f68c932c05,689f2edaf9e6de356dab170d,,,,,,,,,,,,,,1,,,,,,,,,,,,,,,,,,,,,,,,,,,,,,,,,,,,,,,,,,,,,,,,,,,,,,,,,61,seda,,,,,474.7855,475.9451,0,0,0.6376,,0,33,33,60,1,REAL,FAKE,,,,,,,,,,,,,,,,,
,,,,,,,,,6595ddee29ac40a58a7feeb6,Spanish,13 or older,"no, only English or Spanish",yes,2025-08-15_08h58.30.724,empathy_intonation_perc,2024.2.4,Win32,74.62686567,6595ddee29ac40a58a7feeb6,689ed6d1281858f68c932c05,689f2edaf9e6de356dab170d,,,,,,,,,,,,,,1,,,,,,,,,,,,,,,,,,,,,,,,,,,,,,,,,,,,,,,,,,,,,,,,,,,,,,,,,90,clavel,,,,,475.9455,477.0117,0,0,0.5508,,0,34,34,89,1,REAL,FAKE,,,,,,,,,,,,,,,,,
,,,,,,,,,6595ddee29ac40a58a7feeb6,Spanish,13 or older,"no, only English or Spanish",yes,2025-08-15_08h58.30.724,empathy_intonation_perc,2024.2.4,Win32,74.62686567,6595ddee29ac40a58a7feeb6,689ed6d1281858f68c932c05,689f2edaf9e6de356dab170d,,,,,,,,,,,,,,1,,,,,,,,,,,,,,,,,,,,,,,,,,,,,,,,,,,,,,,,,,,,,,,,,,,,,,,,,56,musgo,,,,,477.0122,478.0517,0,0,0.527,,0,35,35,55,1,REAL,FAKE,,,,,,,,,,,,,,,,,
,,,,,,,,,6595ddee29ac40a58a7feeb6,Spanish,13 or older,"no, only English or Spanish",yes,2025-08-15_08h58.30.724,empathy_intonation_perc,2024.2.4,Win32,74.62686567,6595ddee29ac40a58a7feeb6,689ed6d1281858f68c932c05,689f2edaf9e6de356dab170d,,,,,,,,,,,,,,0,,,,,,,,,,,,,,,,,,,,,,,,,,,,,,,,,,,,,,,,,,,,,,,,,,,,,,,,,30,alardio,,,,,478.0521,479.065,0,1,0.4922,,0,36,36,29,1,REAL,FAKE,,,,,,,,,,,,,,,,,
,,,,,,,,,6595ddee29ac40a58a7feeb6,Spanish,13 or older,"no, only English or Spanish",yes,2025-08-15_08h58.30.724,empathy_intonation_perc,2024.2.4,Win32,74.62686567,6595ddee29ac40a58a7feeb6,689ed6d1281858f68c932c05,689f2edaf9e6de356dab170d,,,,,,,,,,,,,,0,,,,,,,,,,,,,,,,,,,,,,,,,,,,,,,,,,,,,,,,,,,,,,,,,,,,,,,,,4,batillón,,,,,479.0654,480.6917,0,1,1.1097,,0,37,37,3,1,REAL,FAKE,,,,,,,,,,,,,,,,,
,,,,,,,,,6595ddee29ac40a58a7feeb6,Spanish,13 or older,"no, only English or Spanish",yes,2025-08-15_08h58.30.724,empathy_intonation_perc,2024.2.4,Win32,74.62686567,6595ddee29ac40a58a7feeb6,689ed6d1281858f68c932c05,689f2edaf9e6de356dab170d,,,,,,,,,,,,,,1,,,,,,,,,,,,,,,,,,,,,,,,,,,,,,,,,,,,,,,,,,,,,,,,,,,,,,,,,85,laúd,,,,,480.6924,481.7849,0,0,0.5796,,0,38,38,84,1,REAL,FAKE,,,,,,,,,,,,,,,,,
,,,,,,,,,6595ddee29ac40a58a7feeb6,Spanish,13 or older,"no, only English or Spanish",yes,2025-08-15_08h58.30.724,empathy_intonation_perc,2024.2.4,Win32,74.62686567,6595ddee29ac40a58a7feeb6,689ed6d1281858f68c932c05,689f2edaf9e6de356dab170d,,,,,,,,,,,,,,0,,,,,,,,,,,,,,,,,,,,,,,,,,,,,,,,,,,,,,,,,,,,,,,,,,,,,,,,,17,floroso,,,,,481.7853,483.5315,0,1,1.226,,0,39,39,16,1,REAL,FAKE,,,,,,,,,,,,,,,,,
,,,,,,,,,6595ddee29ac40a58a7feeb6,Spanish,13 or older,"no, only English or Spanish",yes,2025-08-15_08h58.30.724,empathy_intonation_perc,2024.2.4,Win32,74.62686567,6595ddee29ac40a58a7feeb6,689ed6d1281858f68c932c05,689f2edaf9e6de356dab170d,,,,,,,,,,,,,,1,,,,,,,,,,,,,,,,,,,,,,,,,,,,,,,,,,,,,,,,,,,,,,,,,,,,,,,,,34,aviso,,,,,483.532,485.0916,1,1,1.0261,,0,40,40,33,1,REAL,FAKE,,,,,,,,,,,,,,,,,
,,,,,,,,,6595ddee29ac40a58a7feeb6,Spanish,13 or older,"no, only English or Spanish",yes,2025-08-15_08h58.30.724,empathy_intonation_perc,2024.2.4,Win32,74.62686567,6595ddee29ac40a58a7feeb6,689ed6d1281858f68c932c05,689f2edaf9e6de356dab170d,,,,,,,,,,,,,,0,,,,,,,,,,,,,,,,,,,,,,,,,,,,,,,,,,,,,,,,,,,,,,,,,,,,,,,,,47,cartinar,,,,,485.092,486.5848,1,0,0.9768,,0,41,41,46,1,REAL,FAKE,,,,,,,,,,,,,,,,,
,,,,,,,,,6595ddee29ac40a58a7feeb6,Spanish,13 or older,"no, only English or Spanish",yes,2025-08-15_08h58.30.724,empathy_intonation_perc,2024.2.4,Win32,74.62686567,6595ddee29ac40a58a7feeb6,689ed6d1281858f68c932c05,689f2edaf9e6de356dab170d,,,,,,,,,,,,,,1,,,,,,,,,,,,,,,,,,,,,,,,,,,,,,,,,,,,,,,,,,,,,,,,,,,,,,,,,36,loro,,,,,486.5853,487.6649,0,0,0.5618,,0,42,42,35,1,REAL,FAKE,,,,,,,,,,,,,,,,,
,,,,,,,,,6595ddee29ac40a58a7feeb6,Spanish,13 or older,"no, only English or Spanish",yes,2025-08-15_08h58.30.724,empathy_intonation_perc,2024.2.4,Win32,74.62686567,6595ddee29ac40a58a7feeb6,689ed6d1281858f68c932c05,689f2edaf9e6de356dab170d,,,,,,,,,,,,,,1,,,,,,,,,,,,,,,,,,,,,,,,,,,,,,,,,,,,,,,,,,,,,,,,,,,,,,,,,12,asesinato,,,,,487.6654,489.2781,0,0,1.0938,,0,43,43,11,1,REAL,FAKE,,,,,,,,,,,,,,,,,
,,,,,,,,,6595ddee29ac40a58a7feeb6,Spanish,13 or older,"no, only English or Spanish",yes,2025-08-15_08h58.30.724,empathy_intonation_perc,2024.2.4,Win32,74.62686567,6595ddee29ac40a58a7feeb6,689ed6d1281858f68c932c05,689f2edaf9e6de356dab170d,,,,,,,,,,,,,,0,,,,,,,,,,,,,,,,,,,,,,,,,,,,,,,,,,,,,,,,,,,,,,,,,,,,,,,,,18,arsa,,,,,489.2786,490.4115,0,1,0.6176,,0,44,44,17,1,REAL,FAKE,,,,,,,,,,,,,,,,,
,,,,,,,,,6595ddee29ac40a58a7feeb6,Spanish,13 or older,"no, only English or Spanish",yes,2025-08-15_08h58.30.724,empathy_intonation_perc,2024.2.4,Win32,74.62686567,6595ddee29ac40a58a7feeb6,689ed6d1281858f68c932c05,689f2edaf9e6de356dab170d,,,,,,,,,,,,,,1,,,,,,,,,,,,,,,,,,,,,,,,,,,,,,,,,,,,,,,,,,,,,,,,,,,,,,,,,78,frondoso,,,,,490.4118,491.5581,0,0,0.6258,,0,45,45,77,1,REAL,FAKE,,,,,,,,,,,,,,,,,
,,,,,,,,,6595ddee29ac40a58a7feeb6,Spanish,13 or older,"no, only English or Spanish",yes,2025-08-15_08h58.30.724,empathy_intonation_perc,2024.2.4,Win32,74.62686567,6595ddee29ac40a58a7feeb6,689ed6d1281858f68c932c05,689f2edaf9e6de356dab170d,,,,,,,,,,,,,,1,,,,,,,,,,,,,,,,,,,,,,,,,,,,,,,,,,,,,,,,,,,,,,,,,,,,,,,,,7,pésimo,,,,,491.5586,492.9714,0,0,0.8864,,0,46,46,6,1,REAL,FAKE,,,,,,,,,,,,,,,,,
,,,,,,,,,6595ddee29ac40a58a7feeb6,Spanish,13 or older,"no, only English or Spanish",yes,2025-08-15_08h58.30.724,empathy_intonation_perc,2024.2.4,Win32,74.62686567,6595ddee29ac40a58a7feeb6,689ed6d1281858f68c932c05,689f2edaf9e6de356dab170d,,,,,,,,,,,,,,0,,,,,,,,,,,,,,,,,,,,,,,,,,,,,,,,,,,,,,,,,,,,,,,,,,,,,,,,,1,terzo,,,,,492.9718,494.1313,0,1,0.6422,,0,47,47,0,1,REAL,FAKE,,,,,,,,,,,,,,,,,
,,,,,,,,,6595ddee29ac40a58a7feeb6,Spanish,13 or older,"no, only English or Spanish",yes,2025-08-15_08h58.30.724,empathy_intonation_perc,2024.2.4,Win32,74.62686567,6595ddee29ac40a58a7feeb6,689ed6d1281858f68c932c05,689f2edaf9e6de356dab170d,,,,,,,,,,,,,,1,,,,,,,,,,,,,,,,,,,,,,,,,,,,,,,,,,,,,,,,,,,,,,,,,,,,,,,,,64,orgulloso,,,,,494.1318,495.1713,0,0,0.5189,,0,48,48,63,1,REAL,FAKE,,,,,,,,,,,,,,,,,
,,,,,,,,,6595ddee29ac40a58a7feeb6,Spanish,13 or older,"no, only English or Spanish",yes,2025-08-15_08h58.30.724,empathy_intonation_perc,2024.2.4,Win32,74.62686567,6595ddee29ac40a58a7feeb6,689ed6d1281858f68c932c05,689f2edaf9e6de356dab170d,,,,,,,,,,,,,,1,,,,,,,,,,,,,,,,,,,,,,,,,,,,,,,,,,,,,,,,,,,,,,,,,,,,,,,,,77,tiburón,,,,,495.1717,496.4247,0,0,0.7365,,0,49,49,76,1,REAL,FAKE,,,,,,,,,,,,,,,,,
,,,,,,,,,6595ddee29ac40a58a7feeb6,Spanish,13 or older,"no, only English or Spanish",yes,2025-08-15_08h58.30.724,empathy_intonation_perc,2024.2.4,Win32,74.62686567,6595ddee29ac40a58a7feeb6,689ed6d1281858f68c932c05,689f2edaf9e6de356dab170d,,,,,,,,,,,,,,1,,,,,,,,,,,,,,,,,,,,,,,,,,,,,,,,,,,,,,,,,,,,,,,,,,,,,,,,,57,tacaño,,,,,496.4252,498.2646,0,0,1.3191,,0,50,50,56,1,REAL,FAKE,,,,,,,,,,,,,,,,,
,,,,,,,,,6595ddee29ac40a58a7feeb6,Spanish,13 or older,"no, only English or Spanish",yes,2025-08-15_08h58.30.724,empathy_intonation_perc,2024.2.4,Win32,74.62686567,6595ddee29ac40a58a7feeb6,689ed6d1281858f68c932c05,689f2edaf9e6de356dab170d,,,,,,,,,,,,,,1,,,,,,,,,,,,,,,,,,,,,,,,,,,,,,,,,,,,,,,,,,,,,,,,,,,,,,,,,81,pozo,,,,,498.265,499.5313,0,0,0.7499,,0,51,51,80,1,REAL,FAKE,,,,,,,,,,,,,,,,,
,,,,,,,,,6595ddee29ac40a58a7feeb6,Spanish,13 or older,"no, only English or Spanish",yes,2025-08-15_08h58.30.724,empathy_intonation_perc,2024.2.4,Win32,74.62686567,6595ddee29ac40a58a7feeb6,689ed6d1281858f68c932c05,689f2edaf9e6de356dab170d,,,,,,,,,,,,,,1,,,,,,,,,,,,,,,,,,,,,,,,,,,,,,,,,,,,,,,,,,,,,,,,,,,,,,,,,69,engatusar,,,,,499.5318,501.0912,0,0,1.026,,0,52,52,68,1,REAL,FAKE,,,,,,,,,,,,,,,,,
,,,,,,,,,6595ddee29ac40a58a7feeb6,Spanish,13 or older,"no, only English or Spanish",yes,2025-08-15_08h58.30.724,empathy_intonation_perc,2024.2.4,Win32,74.62686567,6595ddee29ac40a58a7feeb6,689ed6d1281858f68c932c05,689f2edaf9e6de356dab170d,,,,,,,,,,,,,,1,,,,,,,,,,,,,,,,,,,,,,,,,,,,,,,,,,,,,,,,,,,,,,,,,,,,,,,,,38,estornudar,,,,,501.0917,502.3979,0,0,0.7924,,0,53,53,37,1,REAL,FAKE,,,,,,,,,,,,,,,,,
,,,,,,,,,6595ddee29ac40a58a7feeb6,Spanish,13 or older,"no, only English or Spanish",yes,2025-08-15_08h58.30.724,empathy_intonation_perc,2024.2.4,Win32,74.62686567,6595ddee29ac40a58a7feeb6,689ed6d1281858f68c932c05,689f2edaf9e6de356dab170d,,,,,,,,,,,,,,1,,,,,,,,,,,,,,,,,,,,,,,,,,,,,,,,,,,,,,,,,,,,,,,,,,,,,,,,,37,granuja,,,,,502.3983,504.1578,0,0,1.2454,,0,54,54,36,1,REAL,FAKE,,,,,,,,,,,,,,,,,
,,,,,,,,,6595ddee29ac40a58a7feeb6,Spanish,13 or older,"no, only English or Spanish",yes,2025-08-15_08h58.30.724,empathy_intonation_perc,2024.2.4,Win32,74.62686567,6595ddee29ac40a58a7feeb6,689ed6d1281858f68c932c05,689f2edaf9e6de356dab170d,,,,,,,,,,,,,,1,,,,,,,,,,,,,,,,,,,,,,,,,,,,,,,,,,,,,,,,,,,,,,,,,,,,,,,,,71,polvoriento,,,,,504.1583,505.3045,0,0,0.6312,,0,55,55,70,1,REAL,FAKE,,,,,,,,,,,,,,,,,
,,,,,,,,,6595ddee29ac40a58a7feeb6,Spanish,13 or older,"no, only English or Spanish",yes,2025-08-15_08h58.30.724,empathy_intonation_perc,2024.2.4,Win32,74.62686567,6595ddee29ac40a58a7feeb6,689ed6d1281858f68c932c05,689f2edaf9e6de356dab170d,,,,,,,,,,,,,,1,,,,,,,,,,,,,,,,,,,,,,,,,,,,,,,,,,,,,,,,,,,,,,,,,,,,,,,,,6,tergiversar,,,,,505.3049,506.5177,0,0,0.6992,,0,56,56,5,1,REAL,FAKE,,,,,,,,,,,,,,,,,
,,,,,,,,,6595ddee29ac40a58a7feeb6,Spanish,13 or older,"no, only English or Spanish",yes,2025-08-15_08h58.30.724,empathy_intonation_perc,2024.2.4,Win32,74.62686567,6595ddee29ac40a58a7feeb6,689ed6d1281858f68c932c05,689f2edaf9e6de356dab170d,,,,,,,,,,,,,,0,,,,,,,,,,,,,,,,,,,,,,,,,,,,,,,,,,,,,,,,,,,,,,,,,,,,,,,,,35,rompido,,,,,506.5182,507.811,1,0,0.7742,,0,57,57,34,1,REAL,FAKE,,,,,,,,,,,,,,,,,
,,,,,,,,,6595ddee29ac40a58a7feeb6,Spanish,13 or older,"no, only English or Spanish",yes,2025-08-15_08h58.30.724,empathy_intonation_perc,2024.2.4,Win32,74.62686567,6595ddee29ac40a58a7feeb6,689ed6d1281858f68c932c05,689f2edaf9e6de356dab170d,,,,,,,,,,,,,,1,,,,,,,,,,,,,,,,,,,,,,,,,,,,,,,,,,,,,,,,,,,,,,,,,,,,,,,,,41,rebuscar,,,,,507.8115,510.9176,1,1,2.5956,,0,58,58,40,1,REAL,FAKE,,,,,,,,,,,,,,,,,
,,,,,,,,,6595ddee29ac40a58a7feeb6,Spanish,13 or older,"no, only English or Spanish",yes,2025-08-15_08h58.30.724,empathy_intonation_perc,2024.2.4,Win32,74.62686567,6595ddee29ac40a58a7feeb6,689ed6d1281858f68c932c05,689f2edaf9e6de356dab170d,,,,,,,,,,,,,,1,,,,,,,,,,,,,,,,,,,,,,,,,,,,,,,,,,,,,,,,,,,,,,,,,,,,,,,,,51,candado,,,,,510.9181,512.4509,0,0,1.0209,,0,59,59,50,1,REAL,FAKE,,,,,,,,,,,,,,,,,
,,,,,,,,,6595ddee29ac40a58a7feeb6,Spanish,13 or older,"no, only English or Spanish",yes,2025-08-15_08h58.30.724,empathy_intonation_perc,2024.2.4,Win32,74.62686567,6595ddee29ac40a58a7feeb6,689ed6d1281858f68c932c05,689f2edaf9e6de356dab170d,,,,,,,,,,,,,,1,,,,,,,,,,,,,,,,,,,,,,,,,,,,,,,,,,,,,,,,,,,,,,,,,,,,,,,,,73,hervidor,,,,,512.4515,513.4643,0,0,0.5014,,0,60,60,72,1,REAL,FAKE,,,,,,,,,,,,,,,,,
,,,,,,,,,6595ddee29ac40a58a7feeb6,Spanish,13 or older,"no, only English or Spanish",yes,2025-08-15_08h58.30.724,empathy_intonation_perc,2024.2.4,Win32,74.62686567,6595ddee29ac40a58a7feeb6,689ed6d1281858f68c932c05,689f2edaf9e6de356dab170d,,,,,,,,,,,,,,0,,,,,,,,,,,,,,,,,,,,,,,,,,,,,,,,,,,,,,,,,,,,,,,,,,,,,,,,,29,decar,,,,,513.4646,514.5576,0,1,0.5724,,0,61,61,28,1,REAL,FAKE,,,,,,,,,,,,,,,,,
,,,,,,,,,6595ddee29ac40a58a7feeb6,Spanish,13 or older,"no, only English or Spanish",yes,2025-08-15_08h58.30.724,empathy_intonation_perc,2024.2.4,Win32,74.62686567,6595ddee29ac40a58a7feeb6,689ed6d1281858f68c932c05,689f2edaf9e6de356dab170d,,,,,,,,,,,,,,1,,,,,,,,,,,,,,,,,,,,,,,,,,,,,,,,,,,,,,,,,,,,,,,,,,,,,,,,,68,alegre,,,,,514.5581,515.5176,0,0,0.441,,0,62,62,67,1,REAL,FAKE,,,,,,,,,,,,,,,,,
,,,,,,,,,6595ddee29ac40a58a7feeb6,Spanish,13 or older,"no, only English or Spanish",yes,2025-08-15_08h58.30.724,empathy_intonation_perc,2024.2.4,Win32,74.62686567,6595ddee29ac40a58a7feeb6,689ed6d1281858f68c932c05,689f2edaf9e6de356dab170d,,,,,,,,,,,,,,1,,,,,,,,,,,,,,,,,,,,,,,,,,,,,,,,,,,,,,,,,,,,,,,,,,,,,,,,,49,ganar,,,,,515.518,516.4509,0,0,0.4121,,0,63,63,48,1,REAL,FAKE,,,,,,,,,,,,,,,,,
,,,,,,,,,6595ddee29ac40a58a7feeb6,Spanish,13 or older,"no, only English or Spanish",yes,2025-08-15_08h58.30.724,empathy_intonation_perc,2024.2.4,Win32,74.62686567,6595ddee29ac40a58a7feeb6,689ed6d1281858f68c932c05,689f2edaf9e6de356dab170d,,,,,,,,,,,,,,1,,,,,,,,,,,,,,,,,,,,,,,,,,,,,,,,,,,,,,,,,,,,,,,,,,,,,,,,,91,click the 1 key.,,,,,516.4516,517.6641,1,1,0.7018,,0,64,64,90,1,REAL,FAKE,,,,,,,,,,,,,,,,,
,,,,,,,,,6595ddee29ac40a58a7feeb6,Spanish,13 or older,"no, only English or Spanish",yes,2025-08-15_08h58.30.724,empathy_intonation_perc,2024.2.4,Win32,74.62686567,6595ddee29ac40a58a7feeb6,689ed6d1281858f68c932c05,689f2edaf9e6de356dab170d,,,,,,,,,,,,,,1,,,,,,,,,,,,,,,,,,,,,,,,,,,,,,,,,,,,,,,,,,,,,,,,,,,,,,,,,46,martillo,,,,,517.6646,518.9308,0,0,0.7456,,0,65,65,45,1,REAL,FAKE,,,,,,,,,,,,,,,,,
,,,,,,,,,6595ddee29ac40a58a7feeb6,Spanish,13 or older,"no, only English or Spanish",yes,2025-08-15_08h58.30.724,empathy_intonation_perc,2024.2.4,Win32,74.62686567,6595ddee29ac40a58a7feeb6,689ed6d1281858f68c932c05,689f2edaf9e6de356dab170d,,,,,,,,,,,,,,1,,,,,,,,,,,,,,,,,,,,,,,,,,,,,,,,,,,,,,,,,,,,,,,,,,,,,,,,,59,besar,,,,,518.9314,520.1174,0,0,0.6745,,0,66,66,58,1,REAL,FAKE,,,,,,,,,,,,,,,,,
,,,,,,,,,6595ddee29ac40a58a7feeb6,Spanish,13 or older,"no, only English or Spanish",yes,2025-08-15_08h58.30.724,empathy_intonation_perc,2024.2.4,Win32,74.62686567,6595ddee29ac40a58a7feeb6,689ed6d1281858f68c932c05,689f2edaf9e6de356dab170d,,,,,,,,,,,,,,0,,,,,,,,,,,,,,,,,,,,,,,,,,,,,,,,,,,,,,,,,,,,,,,,,,,,,,,,,63,esposante,,,,,520.1179,521.1575,0,1,0.5233,,0,67,67,62,1,REAL,FAKE,,,,,,,,,,,,,,,,,
,,,,,,,,,6595ddee29ac40a58a7feeb6,Spanish,13 or older,"no, only English or Spanish",yes,2025-08-15_08h58.30.724,empathy_intonation_perc,2024.2.4,Win32,74.62686567,6595ddee29ac40a58a7feeb6,689ed6d1281858f68c932c05,689f2edaf9e6de356dab170d,,,,,,,,,,,,,,0,,,,,,,,,,,,,,,,,,,,,,,,,,,,,,,,,,,,,,,,,,,,,,,,,,,,,,,,,66,hacido,,,,,521.158,523.2641,1,0,1.5932,,0,68,68,65,1,REAL,FAKE,,,,,,,,,,,,,,,,,
,,,,,,,,,6595ddee29ac40a58a7feeb6,Spanish,13 or older,"no, only English or Spanish",yes,2025-08-15_08h58.30.724,empathy_intonation_perc,2024.2.4,Win32,74.62686567,6595ddee29ac40a58a7feeb6,689ed6d1281858f68c932c05,689f2edaf9e6de356dab170d,,,,,,,,,,,,,,0,,,,,,,,,,,,,,,,,,,,,,,,,,,,,,,,,,,,,,,,,,,,,,,,,,,,,,,,,82,empirador,,,,,523.2645,526.384,1,0,2.5986,,0,69,69,81,1,REAL,FAKE,,,,,,,,,,,,,,,,,
,,,,,,,,,6595ddee29ac40a58a7feeb6,Spanish,13 or older,"no, only English or Spanish",yes,2025-08-15_08h58.30.724,empathy_intonation_perc,2024.2.4,Win32,74.62686567,6595ddee29ac40a58a7feeb6,689ed6d1281858f68c932c05,689f2edaf9e6de356dab170d,,,,,,,,,,,,,,1,,,,,,,,,,,,,,,,,,,,,,,,,,,,,,,,,,,,,,,,,,,,,,,,,,,,,,,,,44,cuchara,,,,,526.3844,527.4906,0,0,0.5847,,0,70,70,43,1,REAL,FAKE,,,,,,,,,,,,,,,,,
,,,,,,,,,6595ddee29ac40a58a7feeb6,Spanish,13 or older,"no, only English or Spanish",yes,2025-08-15_08h58.30.724,empathy_intonation_perc,2024.2.4,Win32,74.62686567,6595ddee29ac40a58a7feeb6,689ed6d1281858f68c932c05,689f2edaf9e6de356dab170d,,,,,,,,,,,,,,0,,,,,,,,,,,,,,,,,,,,,,,,,,,,,,,,,,,,,,,,,,,,,,,,,,,,,,,,,27,acutación,,,,,527.4911,531.3306,1,0,3.3211,,0,71,71,26,1,REAL,FAKE,,,,,,,,,,,,,,,,,
,,,,,,,,,6595ddee29ac40a58a7feeb6,Spanish,13 or older,"no, only English or Spanish",yes,2025-08-15_08h58.30.724,empathy_intonation_perc,2024.2.4,Win32,74.62686567,6595ddee29ac40a58a7feeb6,689ed6d1281858f68c932c05,689f2edaf9e6de356dab170d,,,,,,,,,,,,,,0,,,,,,,,,,,,,,,,,,,,,,,,,,,,,,,,,,,,,,,,,,,,,,,,,,,,,,,,,58,plaudir,,,,,531.3311,532.4639,0,1,0.6112,,0,72,72,57,1,REAL,FAKE,,,,,,,,,,,,,,,,,
,,,,,,,,,6595ddee29ac40a58a7feeb6,Spanish,13 or older,"no, only English or Spanish",yes,2025-08-15_08h58.30.724,empathy_intonation_perc,2024.2.4,Win32,74.62686567,6595ddee29ac40a58a7feeb6,689ed6d1281858f68c932c05,689f2edaf9e6de356dab170d,,,,,,,,,,,,,,1,,,,,,,,,,,,,,,,,,,,,,,,,,,,,,,,,,,,,,,,,,,,,,,,,,,,,,,,,25,bisagra,,,,,532.4644,533.4239,0,0,0.4478,,0,73,73,24,1,REAL,FAKE,,,,,,,,,,,,,,,,,
,,,,,,,,,6595ddee29ac40a58a7feeb6,Spanish,13 or older,"no, only English or Spanish",yes,2025-08-15_08h58.30.724,empathy_intonation_perc,2024.2.4,Win32,74.62686567,6595ddee29ac40a58a7feeb6,689ed6d1281858f68c932c05,689f2edaf9e6de356dab170d,,,,,,,,,,,,,,1,,,,,,,,,,,,,,,,,,,,,,,,,,,,,,,,,,,,,,,,,,,,,,,,,,,,,,,,,67,cabello,,,,,533.4243,534.7572,1,1,0.8195,,0,74,74,66,1,REAL,FAKE,,,,,,,,,,,,,,,,,
,,,,,,,,,6595ddee29ac40a58a7feeb6,Spanish,13 or older,"no, only English or Spanish",yes,2025-08-15_08h58.30.724,empathy_intonation_perc,2024.2.4,Win32,74.62686567,6595ddee29ac40a58a7feeb6,689ed6d1281858f68c932c05,689f2edaf9e6de356dab170d,,,,,,,,,,,,,,1,,,,,,,,,,,,,,,,,,,,,,,,,,,,,,,,,,,,,,,,,,,,,,,,,,,,,,,,,43,canela,,,,,534.7577,536.1838,0,0,0.9081,,0,75,75,42,1,REAL,FAKE,,,,,,,,,,,,,,,,,
,,,,,,,,,6595ddee29ac40a58a7feeb6,Spanish,13 or older,"no, only English or Spanish",yes,2025-08-15_08h58.30.724,empathy_intonation_perc,2024.2.4,Win32,74.62686567,6595ddee29ac40a58a7feeb6,689ed6d1281858f68c932c05,689f2edaf9e6de356dab170d,,,,,,,,,,,,,,1,,,,,,,,,,,,,,,,,,,,,,,,,,,,,,,,,,,,,,,,,,,,,,,,,,,,,,,,,13,helar,,,,,536.1843,537.3172,0,0,0.6122,,0,76,76,12,1,REAL,FAKE,,,,,,,,,,,,,,,,,
,,,,,,,,,6595ddee29ac40a58a7feeb6,Spanish,13 or older,"no, only English or Spanish",yes,2025-08-15_08h58.30.724,empathy_intonation_perc,2024.2.4,Win32,74.62686567,6595ddee29ac40a58a7feeb6,689ed6d1281858f68c932c05,689f2edaf9e6de356dab170d,,,,,,,,,,,,,,1,,,,,,,,,,,,,,,,,,,,,,,,,,,,,,,,,,,,,,,,,,,,,,,,,,,,,,,,,88,acantilado,,,,,537.3175,538.4637,0,0,0.6255,,0,77,77,87,1,REAL,FAKE,,,,,,,,,,,,,,,,,
,,,,,,,,,6595ddee29ac40a58a7feeb6,Spanish,13 or older,"no, only English or Spanish",yes,2025-08-15_08h58.30.724,empathy_intonation_perc,2024.2.4,Win32,74.62686567,6595ddee29ac40a58a7feeb6,689ed6d1281858f68c932c05,689f2edaf9e6de356dab170d,,,,,,,,,,,,,,1,,,,,,,,,,,,,,,,,,,,,,,,,,,,,,,,,,,,,,,,,,,,,,,,,,,,,,,,,55,nevar,,,,,538.4641,539.6104,0,0,0.6342,,0,78,78,54,1,REAL,FAKE,,,,,,,,,,,,,,,,,
,,,,,,,,,6595ddee29ac40a58a7feeb6,Spanish,13 or older,"no, only English or Spanish",yes,2025-08-15_08h58.30.724,empathy_intonation_perc,2024.2.4,Win32,74.62686567,6595ddee29ac40a58a7feeb6,689ed6d1281858f68c932c05,689f2edaf9e6de356dab170d,,,,,,,,,,,,,,1,,,,,,,,,,,,,,,,,,,,,,,,,,,,,,,,,,,,,,,,,,,,,,,,,,,,,,,,,22,lacayo,,,,,539.6109,540.5971,0,0,0.4761,,0,79,79,21,1,REAL,FAKE,,,,,,,,,,,,,,,,,
,,,,,,,,,6595ddee29ac40a58a7feeb6,Spanish,13 or older,"no, only English or Spanish",yes,2025-08-15_08h58.30.724,empathy_intonation_perc,2024.2.4,Win32,74.62686567,6595ddee29ac40a58a7feeb6,689ed6d1281858f68c932c05,689f2edaf9e6de356dab170d,,,,,,,,,,,,,,0,,,,,,,,,,,,,,,,,,,,,,,,,,,,,,,,,,,,,,,,,,,,,,,,,,,,,,,,,79,tropaje,,,,,540.5975,541.5703,0,1,0.4603,,0,80,80,78,1,REAL,FAKE,,,,,,,,,,,,,,,,,
,,,,,,,,,6595ddee29ac40a58a7feeb6,Spanish,13 or older,"no, only English or Spanish",yes,2025-08-15_08h58.30.724,empathy_intonation_perc,2024.2.4,Win32,74.62686567,6595ddee29ac40a58a7feeb6,689ed6d1281858f68c932c05,689f2edaf9e6de356dab170d,,,,,,,,,,,,,,1,,,,,,,,,,,,,,,,,,,,,,,,,,,,,,,,,,,,,,,,,,,,,,,,,,,,,,,,,26,secuestro,,,,,541.5708,542.597,0,0,0.5161,,0,81,81,25,1,REAL,FAKE,,,,,,,,,,,,,,,,,
,,,,,,,,,6595ddee29ac40a58a7feeb6,Spanish,13 or older,"no, only English or Spanish",yes,2025-08-15_08h58.30.724,empathy_intonation_perc,2024.2.4,Win32,74.62686567,6595ddee29ac40a58a7feeb6,689ed6d1281858f68c932c05,689f2edaf9e6de356dab170d,,,,,,,,,,,,,,1,,,,,,,,,,,,,,,,,,,,,,,,,,,,,,,,,,,,,,,,,,,,,,,,,,,,,,,,,5,zapato,,,,,542.5975,543.9303,1,1,0.8155,,0,82,82,4,1,REAL,FAKE,,,,,,,,,,,,,,,,,
,,,,,,,,,6595ddee29ac40a58a7feeb6,Spanish,13 or older,"no, only English or Spanish",yes,2025-08-15_08h58.30.724,empathy_intonation_perc,2024.2.4,Win32,74.62686567,6595ddee29ac40a58a7feeb6,689ed6d1281858f68c932c05,689f2edaf9e6de356dab170d,,,,,,,,,,,,,,1,,,,,,,,,,,,,,,,,,,,,,,,,,,,,,,,,,,,,,,,,,,,,,,,,,,,,,,,,86,barato,,,,,543.9308,545.3436,0,0,0.8905,,0,83,83,85,1,REAL,FAKE,,,,,,,,,,,,,,,,,
,,,,,,,,,6595ddee29ac40a58a7feeb6,Spanish,13 or older,"no, only English or Spanish",yes,2025-08-15_08h58.30.724,empathy_intonation_perc,2024.2.4,Win32,74.62686567,6595ddee29ac40a58a7feeb6,689ed6d1281858f68c932c05,689f2edaf9e6de356dab170d,,,,,,,,,,,,,,1,,,,,,,,,,,,,,,,,,,,,,,,,,,,,,,,,,,,,,,,,,,,,,,,,,,,,,,,,62,flaco,,,,,545.3441,546.6103,1,1,0.7461,,0,84,84,61,1,REAL,FAKE,,,,,,,,,,,,,,,,,
,,,,,,,,,6595ddee29ac40a58a7feeb6,Spanish,13 or older,"no, only English or Spanish",yes,2025-08-15_08h58.30.724,empathy_intonation_perc,2024.2.4,Win32,74.62686567,6595ddee29ac40a58a7feeb6,689ed6d1281858f68c932c05,689f2edaf9e6de356dab170d,,,,,,,,,,,,,,1,,,,,,,,,,,,,,,,,,,,,,,,,,,,,,,,,,,,,,,,,,,,,,,,,,,,,,,,,45,jilguero,,,,,546.6108,547.7836,0,0,0.6551,,0,85,85,44,1,REAL,FAKE,,,,,,,,,,,,,,,,,
,,,,,,,,,6595ddee29ac40a58a7feeb6,Spanish,13 or older,"no, only English or Spanish",yes,2025-08-15_08h58.30.724,empathy_intonation_perc,2024.2.4,Win32,74.62686567,6595ddee29ac40a58a7feeb6,689ed6d1281858f68c932c05,689f2edaf9e6de356dab170d,,,,,,,,,,,,,,1,,,,,,,,,,,,,,,,,,,,,,,,,,,,,,,,,,,,,,,,,,,,,,,,,,,,,,,,,83,guante,,,,,547.784,549.1169,0,0,0.8203,,0,86,86,82,1,REAL,FAKE,,,,,,,,,,,,,,,,,
,,,,,,,,,6595ddee29ac40a58a7feeb6,Spanish,13 or older,"no, only English or Spanish",yes,2025-08-15_08h58.30.724,empathy_intonation_perc,2024.2.4,Win32,74.62686567,6595ddee29ac40a58a7feeb6,689ed6d1281858f68c932c05,689f2edaf9e6de356dab170d,,,,,,,,,,,,,,1,,,,,,,,,,,,,,,,,,,,,,,,,,,,,,,,,,,,,,,,,,,,,,,,,,,,,,,,,52,camisa,,,,,549.1174,551.0902,0,0,1.4539,,0,87,87,51,1,REAL,FAKE,,,,,,,,,,,,,,,,,
,,,,,,,,,6595ddee29ac40a58a7feeb6,Spanish,13 or older,"no, only English or Spanish",yes,2025-08-15_08h58.30.724,empathy_intonation_perc,2024.2.4,Win32,74.62686567,6595ddee29ac40a58a7feeb6,689ed6d1281858f68c932c05,689f2edaf9e6de356dab170d,,,,,,,,,,,,,,0,,,,,,,,,,,,,,,,,,,,,,,,,,,,,,,,,,,,,,,,,,,,,,,,,,,,,,,,,32,fatacidad,,,,,551.0906,552.3168,0,1,0.7135,,0,88,88,31,1,REAL,FAKE,,,,,,,,,,,,,,,,,
,,,,,,,,,6595ddee29ac40a58a7feeb6,Spanish,13 or older,"no, only English or Spanish",yes,2025-08-15_08h58.30.724,empathy_intonation_perc,2024.2.4,Win32,74.62686567,6595ddee29ac40a58a7feeb6,689ed6d1281858f68c932c05,689f2edaf9e6de356dab170d,,,,,,,,,,,,,,1,,,,,,,,,,,,,,,,,,,,,,,,,,,,,,,,,,,,,,,,,,,,,,,,,,,,,,,,,31,pandilla,,,,,552.3172,554.3968,0,0,1.5572,,0,89,89,30,1,REAL,FAKE,,,,,,,,,,,,,,,,,
,,,,,,,,,6595ddee29ac40a58a7feeb6,Spanish,13 or older,"no, only English or Spanish",yes,2025-08-15_08h58.30.724,empathy_intonation_perc,2024.2.4,Win32,74.62686567,6595ddee29ac40a58a7feeb6,689ed6d1281858f68c932c05,689f2edaf9e6de356dab170d,,,,,,,,,,,,,,1,,,,,,,,,,,,,,,,,,,,,,,,,,,,,,,,,,,,,,,,,,,,,,,,,,,,,,,,,9,hacha,,,,,554.3972,556.4901,0,0,1.5736,,0,90,90,8,1,REAL,FAKE,,,,,,,,,,,,,,,,,
,,,,,,,,,6595ddee29ac40a58a7feeb6,Spanish,13 or older,"no, only English or Spanish",yes,2025-08-15_08h58.30.724,empathy_intonation_perc,2024.2.4,Win32,74.62686567,6595ddee29ac40a58a7feeb6,689ed6d1281858f68c932c05,689f2edaf9e6de356dab170d,,,,,,,,,,,,,,0,,,,,,,,,,,,,,,,,,,,,,,,,,,,,,,,,,,,,,,,,,,,,,,,,,,,,,,,,50,flamida,,,,,556.4905,557.5701,0,1,0.5584,,0,91,91,49,1,REAL,FAKE,,,,,,,,,,,,,,,,,
,,,,,,,,,6595ddee29ac40a58a7feeb6,Spanish,13 or older,"no, only English or Spanish",yes,2025-08-15_08h58.30.724,empathy_intonation_perc,2024.2.4,Win32,74.62686567,6595ddee29ac40a58a7feeb6,689ed6d1281858f68c932c05,689f2edaf9e6de356dab170d,,,,,,,,,,,,,,,,,,,,,,,,,,,,,,,,,,,,,,,,,,,,,,,,,,,,,,,,,,,,,,,,,,,,,,,,,,,,,,,,,,,,,,,,,,557.5702,559.2235,,,,,,,,,,,,,,,
,,,,,,,,,6595ddee29ac40a58a7feeb6,Spanish,13 or older,"no, only English or Spanish",yes,2025-08-15_08h58.30.724,empathy_intonation_perc,2024.2.4,Win32,74.62686567,6595ddee29ac40a58a7feeb6,689ed6d1281858f68c932c05,689f2edaf9e6de356dab170d,,,,,,,,,,,,,1,,,,,,,,,,,,,,,,,,,,,,,,,,,,,,,,,,,,,,,,,,,,,,,,,,,,,,,,,,,,,,,,,,,,,,,,,,,,,,,559.2277,565.4233,slightly agree,0,0,0,0,1,I can easily tell if someone else wants to enter a conversation.,1,0,1,0,,
,,,,,,,,,6595ddee29ac40a58a7feeb6,Spanish,13 or older,"no, only English or Spanish",yes,2025-08-15_08h58.30.724,empathy_intonation_perc,2024.2.4,Win32,74.62686567,6595ddee29ac40a58a7feeb6,689ed6d1281858f68c932c05,689f2edaf9e6de356dab170d,,,,,,,,,,,,,2,,,,,,,,,,,,,,,,,,,,,,,,,,,,,,,,,,,,,,,,,,,,,,,,,,,,,,,,,,,,,,,,,,,,,,,,,,,,,,,565.4242,569.7964,slightly agree,0,1,1,1,1,I prefer animals to humans.,0,1,0,0,,
,,,,,,,,,6595ddee29ac40a58a7feeb6,Spanish,13 or older,"no, only English or Spanish",yes,2025-08-15_08h58.30.724,empathy_intonation_perc,2024.2.4,Win32,74.62686567,6595ddee29ac40a58a7feeb6,689ed6d1281858f68c932c05,689f2edaf9e6de356dab170d,,,,,,,,,,,,,3,,,,,,,,,,,,,,,,,,,,,,,,,,,,,,,,,,,,,,,,,,,,,,,,,,,,,,,,,,,,,,,,,,,,,,,,,,,,,,,569.7973,572.5432,slightly disagree,0,2,2,2,1,I try to keep up with the current trends and fashions.,0,1,0,0,,
,,,,,,,,,6595ddee29ac40a58a7feeb6,Spanish,13 or older,"no, only English or Spanish",yes,2025-08-15_08h58.30.724,empathy_intonation_perc,2024.2.4,Win32,74.62686567,6595ddee29ac40a58a7feeb6,689ed6d1281858f68c932c05,689f2edaf9e6de356dab170d,,,,,,,,,,,,,4,,,,,,,,,,,,,,,,,,,,,,,,,,,,,,,,,,,,,,,,,,,,,,,,,,,,,,,,,,,,,,,,,,,,,,,,,,,,,,,572.5441,577.4097,strongly disagree,0,3,3,3,1,"I find it difficult to explain to others things that I understand easily,   when they don't understand it first time.",1,0,0,1,,
,,,,,,,,,6595ddee29ac40a58a7feeb6,Spanish,13 or older,"no, only English or Spanish",yes,2025-08-15_08h58.30.724,empathy_intonation_perc,2024.2.4,Win32,74.62686567,6595ddee29ac40a58a7feeb6,689ed6d1281858f68c932c05,689f2edaf9e6de356dab170d,,,,,,,,,,,,,5,,,,,,,,,,,,,,,,,,,,,,,,,,,,,,,,,,,,,,,,,,,,,,,,,,,,,,,,,,,,,,,,,,,,,,,,,,,,,,,577.4101,579.5564,slightly agree,0,4,4,4,1,I dream most nights.,0,1,0,0,,
,,,,,,,,,6595ddee29ac40a58a7feeb6,Spanish,13 or older,"no, only English or Spanish",yes,2025-08-15_08h58.30.724,empathy_intonation_perc,2024.2.4,Win32,74.62686567,6595ddee29ac40a58a7feeb6,689ed6d1281858f68c932c05,689f2edaf9e6de356dab170d,,,,,,,,,,,,,6,,,,,,,,,,,,,,,,,,,,,,,,,,,,,,,,,,,,,,,,,,,,,,,,,,,,,,,,,,,,,,,,,,,,,,,,,,,,,,,579.557,580.8762,strongly agree,0,5,5,5,1,I really enjoy caring for other people.,1,0,1,0,,
,,,,,,,,,6595ddee29ac40a58a7feeb6,Spanish,13 or older,"no, only English or Spanish",yes,2025-08-15_08h58.30.724,empathy_intonation_perc,2024.2.4,Win32,74.62686567,6595ddee29ac40a58a7feeb6,689ed6d1281858f68c932c05,689f2edaf9e6de356dab170d,,,,,,,,,,,,,7,,,,,,,,,,,,,,,,,,,,,,,,,,,,,,,,,,,,,,,,,,,,,,,,,,,,,,,,,,,,,,,,,,,,,,,,,,,,,,,580.8771,583.4095,slightly disagree,0,6,6,6,1,I try to solve my own problems rather than discussing them with others.,0,1,0,0,,
,,,,,,,,,6595ddee29ac40a58a7feeb6,Spanish,13 or older,"no, only English or Spanish",yes,2025-08-15_08h58.30.724,empathy_intonation_perc,2024.2.4,Win32,74.62686567,6595ddee29ac40a58a7feeb6,689ed6d1281858f68c932c05,689f2edaf9e6de356dab170d,,,,,,,,,,,,,8,,,,,,,,,,,,,,,,,,,,,,,,,,,,,,,,,,,,,,,,,,,,,,,,,,,,,,,,,,,,,,,,,,,,,,,,,,,,,,,583.4101,585.6628,slightly disagree,0,7,7,7,1,I find it hard to know what to do in a social situation.,1,0,0,1,,
,,,,,,,,,6595ddee29ac40a58a7feeb6,Spanish,13 or older,"no, only English or Spanish",yes,2025-08-15_08h58.30.724,empathy_intonation_perc,2024.2.4,Win32,74.62686567,6595ddee29ac40a58a7feeb6,689ed6d1281858f68c932c05,689f2edaf9e6de356dab170d,,,,,,,,,,,,,9,,,,,,,,,,,,,,,,,,,,,,,,,,,,,,,,,,,,,,,,,,,,,,,,,,,,,,,,,,,,,,,,,,,,,,,,,,,,,,,585.6634,587.9827,strongly disagree,0,8,8,8,1,I am at my best first thing in the morning.,0,1,0,0,,
