instructions_exposure.started,instructions_exposure.stopped,instructions_exposure_loop.thisRepN,instructions_exposure_loop.thisTrialN,instructions_exposure_loop.thisN,instructions_exposure_loop.thisIndex,instructions_exposure_loop.ran,instructions_text,continue_text,participant_id,"What variety of Spanish are you most familiar with? (e.g., Peruvian, Spanish, Mexican)",At what age did you begin learning Spanish?,Are you proficient in any languages other than English/Spanish?,"Are you familiar with Caribbean (e.g., Caribbean, Puerto Rican) or Galician Spanish?",date,expName,psychopyVersion,OS,frameRate,id,study_id,session,trial_exposure.started,trial_exposure.stopped,key_resp_exposure.keys,key_resp_exposure.corr,key_resp_exposure.rt,key_resp_exposure.duration,key_resp.keys,exposure_loop.thisRepN,exposure_loop.thisTrialN,exposure_loop.thisN,exposure_loop.thisIndex,exposure_loop.ran,item_num,correct_response,question,path,duration,instructions_2afc.started,instructions_2afc.stopped,instructions_2afc_loop.thisRepN,instructions_2afc_loop.thisTrialN,instructions_2afc_loop.thisN,instructions_2afc_loop.thisIndex,instructions_2afc_loop.ran,practice_2afc.started,practice_2afc.stopped,key_resp_2afc_practice.keys,key_resp_2afc_practice.corr,key_resp_2afc_practice.rt,key_resp_2afc_practice.duration,trials_2afc_practice_loop.thisRepN,trials_2afc_practice_loop.thisTrialN,trials_2afc_practice_loop.thisN,trials_2afc_practice_loop.thisIndex,trials_2afc_practice_loop.ran,check_2afc.started,check_2afc.stopped,trial_2afc.started,trial_2afc.stopped,key_resp_2afc_trial.keys,key_resp_2afc_trial.corr,key_resp_2afc_trial.rt,key_resp_2afc_trial.duration,trials_2afc_loop.thisRepN,trials_2afc_loop.thisTrialN,trials_2afc_loop.thisN,trials_2afc_loop.thisIndex,trials_2afc_loop.ran,target,variety,instructions_lextale.started,instructions_lextale.stopped,instructions_lextale_loop.thisRepN,instructions_lextale_loop.thisTrialN,instructions_lextale_loop.thisN,instructions_lextale_loop.thisIndex,instructions_lextale_loop.ran,practice_lextale.started,practice_lextale.stopped,key_resp_lextale_practice.keys,key_resp_lextale_practice.corr,key_resp_lextale_practice.rt,key_resp_lextale_practice.duration,practice_feedback_lextale.started,practice_feedback_lextale.stopped,trials_lextale_practice_loop.thisRepN,trials_lextale_practice_loop.thisTrialN,trials_lextale_practice_loop.thisN,trials_lextale_practice_loop.thisIndex,trials_lextale_practice_loop.ran,stim,word,prac_button_real,prac_button_false,check_lextale.started,check_lextale.stopped,trial_lextale.started,trial_lextale.stopped,key_resp_lextale_trial.keys,key_resp_lextale_trial.corr,key_resp_lextale_trial.rt,key_resp_lextale_trial.duration,trials_lextale_loop.thisRepN,trials_lextale_loop.thisTrialN,trials_lextale_loop.thisN,trials_lextale_loop.thisIndex,trials_lextale_loop.ran,button_real,button_false,instructions_eq.started,instructions_eq.stopped,trial_eq.started,trial_eq.stopped,slider_eq_trial.response,trials_eq_loop.thisRepN,trials_eq_loop.thisTrialN,trials_eq_loop.thisN,trials_eq_loop.thisIndex,trials_eq_loop.ran,item,is_test_item,is_distractor,is_agree_score,is_disagree_score,end_exp.started,end_exp.stopped
0.0087,34.097,0,0,0,0,1,"In the following task, you are going to hear a series of conversations.", (press the space bar to continue),65add0950cc74fc6024f5b6a,Mexican,13 or older,"no, only English or Spanish",yes,2025-08-12_14h10.43.010,empathy_intonation_perc,2024.2.4,MacIntel,59.88023952,65add0950cc74fc6024f5b6a,687ed1b7e638a4cbf2f02089,689b82de0faf5a9761c36015,,,,,,,,,,,,,,,,,,,,,,,,,,,,,,,,,,,,,,,,,,,,,,,,,,,,,,,,,,,,,,,,,,,,,,,,,,,,,,,,,,,,,,,,,,,,,,,,,,,,,,,,,,
34.0975,39.1299,0,1,1,1,1,It is okay if you don't not 100% understand them!, (press the space bar to continue),65add0950cc74fc6024f5b6a,Mexican,13 or older,"no, only English or Spanish",yes,2025-08-12_14h10.43.010,empathy_intonation_perc,2024.2.4,MacIntel,59.88023952,65add0950cc74fc6024f5b6a,687ed1b7e638a4cbf2f02089,689b82de0faf5a9761c36015,,,,,,,,,,,,,,,,,,,,,,,,,,,,,,,,,,,,,,,,,,,,,,,,,,,,,,,,,,,,,,,,,,,,,,,,,,,,,,,,,,,,,,,,,,,,,,,,,,,,,,,,,,
39.1314,42.7477,0,2,2,2,1,"After, you will read a sentence about the conversation and decide if it's true or false.", (press the space bar to continue),65add0950cc74fc6024f5b6a,Mexican,13 or older,"no, only English or Spanish",yes,2025-08-12_14h10.43.010,empathy_intonation_perc,2024.2.4,MacIntel,59.88023952,65add0950cc74fc6024f5b6a,687ed1b7e638a4cbf2f02089,689b82de0faf5a9761c36015,,,,,,,,,,,,,,,,,,,,,,,,,,,,,,,,,,,,,,,,,,,,,,,,,,,,,,,,,,,,,,,,,,,,,,,,,,,,,,,,,,,,,,,,,,,,,,,,,,,,,,,,,,
42.7494,46.2633,0,3,3,3,1,"If it's true, press '1' (True) and if it's false press '0' (False).", (press the space bar to continue),65add0950cc74fc6024f5b6a,Mexican,13 or older,"no, only English or Spanish",yes,2025-08-12_14h10.43.010,empathy_intonation_perc,2024.2.4,MacIntel,59.88023952,65add0950cc74fc6024f5b6a,687ed1b7e638a4cbf2f02089,689b82de0faf5a9761c36015,,,,,,,,,,,,,,,,,,,,,,,,,,,,,,,,,,,,,,,,,,,,,,,,,,,,,,,,,,,,,,,,,,,,,,,,,,,,,,,,,,,,,,,,,,,,,,,,,,,,,,,,,,
,,,,,,,,,65add0950cc74fc6024f5b6a,Mexican,13 or older,"no, only English or Spanish",yes,2025-08-12_14h10.43.010,empathy_intonation_perc,2024.2.4,MacIntel,59.88023952,65add0950cc74fc6024f5b6a,687ed1b7e638a4cbf2f02089,689b82de0faf5a9761c36015,46.2736,152.1676,0,0,58.6293,,,0,0,0,0,1,1,1,The son asked the mom if Aunt Marina is okay.,./stim/exposure_wavs/ga_stimuli_convo.wav,47,,,,,,,,,,,,,,,,,,,,,,,,,,,,,,,,,,,,,,,,,,,,,,,,,,,,,,,,,,,,,,,,,,,,,,,,,,,,,,,,,,,,,,,,,
,,,,,,,,,65add0950cc74fc6024f5b6a,Mexican,13 or older,"no, only English or Spanish",yes,2025-08-12_14h10.43.010,empathy_intonation_perc,2024.2.4,MacIntel,59.88023952,65add0950cc74fc6024f5b6a,687ed1b7e638a4cbf2f02089,689b82de0faf5a9761c36015,152.1684,310.6705,1,1,98.4748,,,0,1,1,1,1,2,1,The mom asked the daughter if she already went to the supermarket.,./stim/exposure_wavs/dr_stimuli_convo.wav,60,,,,,,,,,,,,,,,,,,,,,,,,,,,,,,,,,,,,,,,,,,,,,,,,,,,,,,,,,,,,,,,,,,,,,,,,,,,,,,,,,,,,,,,,,
,,,,,,,,,65add0950cc74fc6024f5b6a,Mexican,13 or older,"no, only English or Spanish",yes,2025-08-12_14h10.43.010,empathy_intonation_perc,2024.2.4,MacIntel,59.88023952,65add0950cc74fc6024f5b6a,687ed1b7e638a4cbf2f02089,689b82de0faf5a9761c36015,310.6716,356.2393,0,1,9.5407,,,0,2,2,2,1,3,0,The mom already has rice.,./stim/exposure_wavs/pr_stimuli_convo.wav,36,,,,,,,,,,,,,,,,,,,,,,,,,,,,,,,,,,,,,,,,,,,,,,,,,,,,,,,,,,,,,,,,,,,,,,,,,,,,,,,,,,,,,,,,,
,,,,,,,"In the following task you are going to hear a series of utterances. 

  You will decide if the utterances sound like questions or not using your keyboard.", (press the spacebar to continue),65add0950cc74fc6024f5b6a,Mexican,13 or older,"no, only English or Spanish",yes,2025-08-12_14h10.43.010,empathy_intonation_perc,2024.2.4,MacIntel,59.88023952,65add0950cc74fc6024f5b6a,687ed1b7e638a4cbf2f02089,689b82de0faf5a9761c36015,,,,,,,,,,,,,,,,,,356.2499,372.3719,0,0,0,0,1,,,,,,,,,,,,,,,,,,,,,,,,,,,,,,,,,,,,,,,,,,,,,,,,,,,,,,,,,,,,,,,,,,,,,,,,,,,,,,,,,,
,,,,,,,"If you believe the utterance is a question, type '1' (for 'yes') and if you do not 
  believe it is a question type '0' (for 'no').

  Let's practice a bit...", (press the spacebar to continue),65add0950cc74fc6024f5b6a,Mexican,13 or older,"no, only English or Spanish",yes,2025-08-12_14h10.43.010,empathy_intonation_perc,2024.2.4,MacIntel,59.88023952,65add0950cc74fc6024f5b6a,687ed1b7e638a4cbf2f02089,689b82de0faf5a9761c36015,,,,,,,,,,,,,,,,,,372.3728,385.1068,0,1,1,1,1,,,,,,,,,,,,,,,,,,,,,,,,,,,,,,,,,,,,,,,,,,,,,,,,,,,,,,,,,,,,,,,,,,,,,,,,,,,,,,,,,,
,,,,,,,,,65add0950cc74fc6024f5b6a,Mexican,13 or older,"no, only English or Spanish",yes,2025-08-12_14h10.43.010,empathy_intonation_perc,2024.2.4,MacIntel,59.88023952,65add0950cc74fc6024f5b6a,687ed1b7e638a4cbf2f02089,689b82de0faf5a9761c36015,,,,,,,,,,,,,,1,,./stim/wavs/chilean_question_filler_Mi-padre-cantaba-bien.wav,,,,,,,,,385.1158,391.3731,0,0,5.7336,,0,0,0,2,1,,,,,,,,,,,,,,,,,,,,,,,,,,,,,,,,,,,,,,,,,,,,,,,,,,,,,,,,,,,,,,,,,,,,,,,
,,,,,,,,,65add0950cc74fc6024f5b6a,Mexican,13 or older,"no, only English or Spanish",yes,2025-08-12_14h10.43.010,empathy_intonation_perc,2024.2.4,MacIntel,59.88023952,65add0950cc74fc6024f5b6a,687ed1b7e638a4cbf2f02089,689b82de0faf5a9761c36015,,,,,,,,,,,,,,1,,./stim/wavs/argentine_question_filler_Mi-vecino-habla-mucho.wav,,,,,,,,,391.3741,394.5726,1,1,2.6669,,0,1,1,1,1,,,,,,,,,,,,,,,,,,,,,,,,,,,,,,,,,,,,,,,,,,,,,,,,,,,,,,,,,,,,,,,,,,,,,,,
,,,,,,,,,65add0950cc74fc6024f5b6a,Mexican,13 or older,"no, only English or Spanish",yes,2025-08-12_14h10.43.010,empathy_intonation_perc,2024.2.4,MacIntel,59.88023952,65add0950cc74fc6024f5b6a,687ed1b7e638a4cbf2f02089,689b82de0faf5a9761c36015,,,,,,,,,,,,,,0,,./stim/wavs/andalusian_statement_filler_Alberto-nunca-se-afeita.wav,,,,,,,,,394.5732,397.6903,0,1,2.6036,,0,2,2,5,1,,,,,,,,,,,,,,,,,,,,,,,,,,,,,,,,,,,,,,,,,,,,,,,,,,,,,,,,,,,,,,,,,,,,,,,
,,,,,,,,,65add0950cc74fc6024f5b6a,Mexican,13 or older,"no, only English or Spanish",yes,2025-08-12_14h10.43.010,empathy_intonation_perc,2024.2.4,MacIntel,59.88023952,65add0950cc74fc6024f5b6a,687ed1b7e638a4cbf2f02089,689b82de0faf5a9761c36015,,,,,,,,,,,,,,0,,./stim/wavs/cuban_statement_filler_Cocinabas-por-la-noche.wav,,,,,,,,,397.691,400.7394,0,1,2.5158,,0,3,3,4,1,,,,,,,,,,,,,,,,,,,,,,,,,,,,,,,,,,,,,,,,,,,,,,,,,,,,,,,,,,,,,,,,,,,,,,,
,,,,,,,,,65add0950cc74fc6024f5b6a,Mexican,13 or older,"no, only English or Spanish",yes,2025-08-12_14h10.43.010,empathy_intonation_perc,2024.2.4,MacIntel,59.88023952,65add0950cc74fc6024f5b6a,687ed1b7e638a4cbf2f02089,689b82de0faf5a9761c36015,,,,,,,,,,,,,,0,,./stim/wavs/puertorican_statement_filler_La-nina-pinta-con-su-amiga.wav,,,,,,,,,400.7402,406.0076,1,0,4.762,,0,4,4,7,1,,,,,,,,,,,,,,,,,,,,,,,,,,,,,,,,,,,,,,,,,,,,,,,,,,,,,,,,,,,,,,,,,,,,,,,
,,,,,,,,,65add0950cc74fc6024f5b6a,Mexican,13 or older,"no, only English or Spanish",yes,2025-08-12_14h10.43.010,empathy_intonation_perc,2024.2.4,MacIntel,59.88023952,65add0950cc74fc6024f5b6a,687ed1b7e638a4cbf2f02089,689b82de0faf5a9761c36015,,,,,,,,,,,,,,0,,./stim/wavs/peruvian_statement_filler_El-nino-habla-con-su-madre.wav,,,,,,,,,406.0084,411.3404,0,1,4.8007,,0,5,5,6,1,,,,,,,,,,,,,,,,,,,,,,,,,,,,,,,,,,,,,,,,,,,,,,,,,,,,,,,,,,,,,,,,,,,,,,,
,,,,,,,,,65add0950cc74fc6024f5b6a,Mexican,13 or older,"no, only English or Spanish",yes,2025-08-12_14h10.43.010,empathy_intonation_perc,2024.2.4,MacIntel,59.88023952,65add0950cc74fc6024f5b6a,687ed1b7e638a4cbf2f02089,689b82de0faf5a9761c36015,,,,,,,,,,,,,,1,,./stim/wavs/castilian_question_filler_Mi-esposo-conoce-al-chico.wav,,,,,,,,,411.341,414.4731,1,1,2.6011,,0,6,6,0,1,,,,,,,,,,,,,,,,,,,,,,,,,,,,,,,,,,,,,,,,,,,,,,,,,,,,,,,,,,,,,,,,,,,,,,,
,,,,,,,,,65add0950cc74fc6024f5b6a,Mexican,13 or older,"no, only English or Spanish",yes,2025-08-12_14h10.43.010,empathy_intonation_perc,2024.2.4,MacIntel,59.88023952,65add0950cc74fc6024f5b6a,687ed1b7e638a4cbf2f02089,689b82de0faf5a9761c36015,,,,,,,,,,,,,,1,,./stim/wavs/mexican_question_filler_Felipe-no-tiene-contrasena.wav,,,,,,,,,414.4737,417.5574,1,1,2.5676,,0,7,7,3,1,,,,,,,,,,,,,,,,,,,,,,,,,,,,,,,,,,,,,,,,,,,,,,,,,,,,,,,,,,,,,,,,,,,,,,,
,,,,,,,,,65add0950cc74fc6024f5b6a,Mexican,13 or older,"no, only English or Spanish",yes,2025-08-12_14h10.43.010,empathy_intonation_perc,2024.2.4,MacIntel,59.88023952,65add0950cc74fc6024f5b6a,687ed1b7e638a4cbf2f02089,689b82de0faf5a9761c36015,,,,,,,,,,,,,,,,,,,,,,,,,,,,,,,,,,,,417.5578,426.2738,,,,,,,,,,,,,,,,,,,,,,,,,,,,,,,,,,,,,,,,,,,,,,,,,,,,,,,,,,,,,,,,,,,,,
,,,,,,,,,65add0950cc74fc6024f5b6a,Mexican,13 or older,"no, only English or Spanish",yes,2025-08-12_14h10.43.010,empathy_intonation_perc,2024.2.4,MacIntel,59.88023952,65add0950cc74fc6024f5b6a,687ed1b7e638a4cbf2f02089,689b82de0faf5a9761c36015,,,,,,,,,,,,,79,0,,./stim/wavs/mexican_mismatch_declarative-broad-focus_El-bebe-comia-muy-bien.wav,,,,,,,,,,,,,,,,,,,,,,426.2842,428.7082,0,1,1.8994,,0,0,0,78,1,0,mexican,,,,,,,,,,,,,,,,,,,,,,,,,,,,,,,,,,,,,,,,,,,,,,,,,,,,,,,,
,,,,,,,,,65add0950cc74fc6024f5b6a,Mexican,13 or older,"no, only English or Spanish",yes,2025-08-12_14h10.43.010,empathy_intonation_perc,2024.2.4,MacIntel,59.88023952,65add0950cc74fc6024f5b6a,687ed1b7e638a4cbf2f02089,689b82de0faf5a9761c36015,,,,,,,,,,,,,59,0,,./stim/wavs/mexican_match_declarative-broad-focus_David-leia-el-libro.wav,,,,,,,,,,,,,,,,,,,,,,428.7092,431.0413,0,1,1.8051,,0,1,1,58,1,0,mexican,,,,,,,,,,,,,,,,,,,,,,,,,,,,,,,,,,,,,,,,,,,,,,,,,,,,,,,,
,,,,,,,,,65add0950cc74fc6024f5b6a,Mexican,13 or older,"no, only English or Spanish",yes,2025-08-12_14h10.43.010,empathy_intonation_perc,2024.2.4,MacIntel,59.88023952,65add0950cc74fc6024f5b6a,687ed1b7e638a4cbf2f02089,689b82de0faf5a9761c36015,,,,,,,,,,,,,66,0,,./stim/wavs/puertorican_match_declarative-broad-focus_Emilio-ama-la-marcha.wav,,,,,,,,,,,,,,,,,,,,,,431.0421,433.5742,0,1,1.9992,,0,2,2,65,1,0,puertorican,,,,,,,,,,,,,,,,,,,,,,,,,,,,,,,,,,,,,,,,,,,,,,,,,,,,,,,,
,,,,,,,,,65add0950cc74fc6024f5b6a,Mexican,13 or older,"no, only English or Spanish",yes,2025-08-12_14h10.43.010,empathy_intonation_perc,2024.2.4,MacIntel,59.88023952,65add0950cc74fc6024f5b6a,687ed1b7e638a4cbf2f02089,689b82de0faf5a9761c36015,,,,,,,,,,,,,44,1,,./stim/wavs/puertorican_mismatch_interrogative-total-yn_Mi-madre-come-la-fruta.wav,,,,,,,,,,,,,,,,,,,,,,433.5746,436.2902,0,0,2.1831,,0,3,3,43,1,1,puertorican,,,,,,,,,,,,,,,,,,,,,,,,,,,,,,,,,,,,,,,,,,,,,,,,,,,,,,,,
,,,,,,,,,65add0950cc74fc6024f5b6a,Mexican,13 or older,"no, only English or Spanish",yes,2025-08-12_14h10.43.010,empathy_intonation_perc,2024.2.4,MacIntel,59.88023952,65add0950cc74fc6024f5b6a,687ed1b7e638a4cbf2f02089,689b82de0faf5a9761c36015,,,,,,,,,,,,,68,0,,./stim/wavs/puertorican_match_declarative-broad-focus_Maria-bebe-el-vino.wav,,,,,,,,,,,,,,,,,,,,,,436.2908,438.7414,1,0,1.9344,,0,4,4,67,1,0,puertorican,,,,,,,,,,,,,,,,,,,,,,,,,,,,,,,,,,,,,,,,,,,,,,,,,,,,,,,,
,,,,,,,,,65add0950cc74fc6024f5b6a,Mexican,13 or older,"no, only English or Spanish",yes,2025-08-12_14h10.43.010,empathy_intonation_perc,2024.2.4,MacIntel,59.88023952,65add0950cc74fc6024f5b6a,687ed1b7e638a4cbf2f02089,689b82de0faf5a9761c36015,,,,,,,,,,,,,30,1,,./stim/wavs/cuban_mismatch_interrogative-total-yn_El-hombre-mira-la-luna.wav,,,,,,,,,,,,,,,,,,,,,,438.7423,441.3582,0,0,2.0826,,0,5,5,29,1,1,cuban,,,,,,,,,,,,,,,,,,,,,,,,,,,,,,,,,,,,,,,,,,,,,,,,,,,,,,,,
,,,,,,,,,65add0950cc74fc6024f5b6a,Mexican,13 or older,"no, only English or Spanish",yes,2025-08-12_14h10.43.010,empathy_intonation_perc,2024.2.4,MacIntel,59.88023952,65add0950cc74fc6024f5b6a,687ed1b7e638a4cbf2f02089,689b82de0faf5a9761c36015,,,,,,,,,,,,,15,1,,./stim/wavs/mexican_match_interrogative-total-yn_David-leia-el-libro.wav,,,,,,,,,,,,,,,,,,,,,,441.3589,443.8581,1,1,1.9669,,0,6,6,14,1,0,mexican,,,,,,,,,,,,,,,,,,,,,,,,,,,,,,,,,,,,,,,,,,,,,,,,,,,,,,,,
,,,,,,,,,65add0950cc74fc6024f5b6a,Mexican,13 or older,"no, only English or Spanish",yes,2025-08-12_14h10.43.010,empathy_intonation_perc,2024.2.4,MacIntel,59.88023952,65add0950cc74fc6024f5b6a,687ed1b7e638a4cbf2f02089,689b82de0faf5a9761c36015,,,,,,,,,,,,,29,1,,./stim/wavs/castilian_mismatch_interrogative-total-yn_Mi-tia-odia-la-lluvia.wav,,,,,,,,,,,,,,,,,,,,,,443.8588,446.5074,1,1,2.1239,,0,7,7,28,1,0,castilian,,,,,,,,,,,,,,,,,,,,,,,,,,,,,,,,,,,,,,,,,,,,,,,,,,,,,,,,
,,,,,,,,,65add0950cc74fc6024f5b6a,Mexican,13 or older,"no, only English or Spanish",yes,2025-08-12_14h10.43.010,empathy_intonation_perc,2024.2.4,MacIntel,59.88023952,65add0950cc74fc6024f5b6a,687ed1b7e638a4cbf2f02089,689b82de0faf5a9761c36015,,,,,,,,,,,,,83,0,,./stim/wavs/mexican_mismatch_declarative-broad-focus_Mi-tia-odia-la-lluvia.wav,,,,,,,,,,,,,,,,,,,,,,446.5076,448.9248,0,1,1.9,,0,8,8,82,1,0,mexican,,,,,,,,,,,,,,,,,,,,,,,,,,,,,,,,,,,,,,,,,,,,,,,,,,,,,,,,
,,,,,,,,,65add0950cc74fc6024f5b6a,Mexican,13 or older,"no, only English or Spanish",yes,2025-08-12_14h10.43.010,empathy_intonation_perc,2024.2.4,MacIntel,59.88023952,65add0950cc74fc6024f5b6a,687ed1b7e638a4cbf2f02089,689b82de0faf5a9761c36015,,,,,,,,,,,,,53,0,,./stim/wavs/cuban_match_declarative-broad-focus_Manuela-vende-el-carro.wav,,,,,,,,,,,,,,,,,,,,,,448.9256,451.3915,0,1,1.9338,,0,9,9,52,1,0,cuban,,,,,,,,,,,,,,,,,,,,,,,,,,,,,,,,,,,,,,,,,,,,,,,,,,,,,,,,
,,,,,,,,,65add0950cc74fc6024f5b6a,Mexican,13 or older,"no, only English or Spanish",yes,2025-08-12_14h10.43.010,empathy_intonation_perc,2024.2.4,MacIntel,59.88023952,65add0950cc74fc6024f5b6a,687ed1b7e638a4cbf2f02089,689b82de0faf5a9761c36015,,,,,,,,,,,,,36,1,,./stim/wavs/mexican_mismatch_interrogative-total-yn_El-nino-oye-el-rio.wav,,,,,,,,,,,,,,,,,,,,,,451.3923,453.6918,1,1,1.7666,,0,10,10,35,1,0,mexican,,,,,,,,,,,,,,,,,,,,,,,,,,,,,,,,,,,,,,,,,,,,,,,,,,,,,,,,
,,,,,,,,,65add0950cc74fc6024f5b6a,Mexican,13 or older,"no, only English or Spanish",yes,2025-08-12_14h10.43.010,empathy_intonation_perc,2024.2.4,MacIntel,59.88023952,65add0950cc74fc6024f5b6a,687ed1b7e638a4cbf2f02089,689b82de0faf5a9761c36015,,,,,,,,,,,,,62,0,,./stim/wavs/mexican_match_declarative-broad-focus_Marta-abre-el-regalo.wav,,,,,,,,,,,,,,,,,,,,,,453.6925,455.9752,0,1,1.7501,,0,11,11,61,1,0,mexican,,,,,,,,,,,,,,,,,,,,,,,,,,,,,,,,,,,,,,,,,,,,,,,,,,,,,,,,
,,,,,,,,,65add0950cc74fc6024f5b6a,Mexican,13 or older,"no, only English or Spanish",yes,2025-08-12_14h10.43.010,empathy_intonation_perc,2024.2.4,MacIntel,59.88023952,65add0950cc74fc6024f5b6a,687ed1b7e638a4cbf2f02089,689b82de0faf5a9761c36015,,,,,,,,,,,,,25,1,,./stim/wavs/castilian_mismatch_interrogative-total-yn_La-maestra-vive-en-Paris.wav,,,,,,,,,,,,,,,,,,,,,,455.9761,458.6585,1,1,2.1587,,0,12,12,24,1,0,castilian,,,,,,,,,,,,,,,,,,,,,,,,,,,,,,,,,,,,,,,,,,,,,,,,,,,,,,,,
,,,,,,,,,65add0950cc74fc6024f5b6a,Mexican,13 or older,"no, only English or Spanish",yes,2025-08-12_14h10.43.010,empathy_intonation_perc,2024.2.4,MacIntel,59.88023952,65add0950cc74fc6024f5b6a,687ed1b7e638a4cbf2f02089,689b82de0faf5a9761c36015,,,,,,,,,,,,,48,0,,./stim/wavs/castilian_match_declarative-broad-focus_Maria-bebe-el-vino.wav,,,,,,,,,,,,,,,,,,,,,,458.6592,460.9424,0,1,1.7623,,0,13,13,47,1,0,castilian,,,,,,,,,,,,,,,,,,,,,,,,,,,,,,,,,,,,,,,,,,,,,,,,,,,,,,,,
,,,,,,,,,65add0950cc74fc6024f5b6a,Mexican,13 or older,"no, only English or Spanish",yes,2025-08-12_14h10.43.010,empathy_intonation_perc,2024.2.4,MacIntel,59.88023952,65add0950cc74fc6024f5b6a,687ed1b7e638a4cbf2f02089,689b82de0faf5a9761c36015,,,,,,,,,,,,,73,0,,./stim/wavs/castilian_mismatch_declarative-broad-focus_Mi-tia-odia-la-lluvia.wav,,,,,,,,,,,,,,,,,,,,,,460.9431,463.2087,0,1,1.7335,,0,14,14,72,1,0,castilian,,,,,,,,,,,,,,,,,,,,,,,,,,,,,,,,,,,,,,,,,,,,,,,,,,,,,,,,
,,,,,,,,,65add0950cc74fc6024f5b6a,Mexican,13 or older,"no, only English or Spanish",yes,2025-08-12_14h10.43.010,empathy_intonation_perc,2024.2.4,MacIntel,59.88023952,65add0950cc74fc6024f5b6a,687ed1b7e638a4cbf2f02089,689b82de0faf5a9761c36015,,,,,,,,,,,,,54,0,,./stim/wavs/cuban_match_declarative-broad-focus_Maria-bebe-el-vino.wav,,,,,,,,,,,,,,,,,,,,,,463.2095,465.4753,0,1,1.7332,,0,15,15,53,1,0,cuban,,,,,,,,,,,,,,,,,,,,,,,,,,,,,,,,,,,,,,,,,,,,,,,,,,,,,,,,
,,,,,,,,,65add0950cc74fc6024f5b6a,Mexican,13 or older,"no, only English or Spanish",yes,2025-08-12_14h10.43.010,empathy_intonation_perc,2024.2.4,MacIntel,59.88023952,65add0950cc74fc6024f5b6a,687ed1b7e638a4cbf2f02089,689b82de0faf5a9761c36015,,,,,,,,,,,,,76,0,,./stim/wavs/cuban_mismatch_declarative-broad-focus_La-nina-lava-el-plato.wav,,,,,,,,,,,,,,,,,,,,,,465.476,467.7585,0,1,1.7522,,0,16,16,75,1,0,cuban,,,,,,,,,,,,,,,,,,,,,,,,,,,,,,,,,,,,,,,,,,,,,,,,,,,,,,,,
,,,,,,,,,65add0950cc74fc6024f5b6a,Mexican,13 or older,"no, only English or Spanish",yes,2025-08-12_14h10.43.010,empathy_intonation_perc,2024.2.4,MacIntel,59.88023952,65add0950cc74fc6024f5b6a,687ed1b7e638a4cbf2f02089,689b82de0faf5a9761c36015,,,,,,,,,,,,,6,1,,./stim/wavs/castilian_match_interrogative-total-yn_Marta-abre-el-regalo.wav,,,,,,,,,,,,,,,,,,,,,,467.7589,470.1256,1,1,1.8355,,0,17,17,5,1,0,castilian,,,,,,,,,,,,,,,,,,,,,,,,,,,,,,,,,,,,,,,,,,,,,,,,,,,,,,,,
,,,,,,,,,65add0950cc74fc6024f5b6a,Mexican,13 or older,"no, only English or Spanish",yes,2025-08-12_14h10.43.010,empathy_intonation_perc,2024.2.4,MacIntel,59.88023952,65add0950cc74fc6024f5b6a,687ed1b7e638a4cbf2f02089,689b82de0faf5a9761c36015,,,,,,,,,,,,,5,1,,./stim/wavs/castilian_match_interrogative-total-yn_Mariano-habla-del-tiempo.wav,,,,,,,,,,,,,,,,,,,,,,470.1263,472.6756,1,1,2.0166,,0,18,18,4,1,0,castilian,,,,,,,,,,,,,,,,,,,,,,,,,,,,,,,,,,,,,,,,,,,,,,,,,,,,,,,,
,,,,,,,,,65add0950cc74fc6024f5b6a,Mexican,13 or older,"no, only English or Spanish",yes,2025-08-12_14h10.43.010,empathy_intonation_perc,2024.2.4,MacIntel,59.88023952,65add0950cc74fc6024f5b6a,687ed1b7e638a4cbf2f02089,689b82de0faf5a9761c36015,,,,,,,,,,,,,31,1,,./stim/wavs/cuban_mismatch_interrogative-total-yn_El-nino-oye-el-rio.wav,,,,,,,,,,,,,,,,,,,,,,472.6763,474.9258,0,0,1.7171,,0,19,19,30,1,1,cuban,,,,,,,,,,,,,,,,,,,,,,,,,,,,,,,,,,,,,,,,,,,,,,,,,,,,,,,,
,,,,,,,,,65add0950cc74fc6024f5b6a,Mexican,13 or older,"no, only English or Spanish",yes,2025-08-12_14h10.43.010,empathy_intonation_perc,2024.2.4,MacIntel,59.88023952,65add0950cc74fc6024f5b6a,687ed1b7e638a4cbf2f02089,689b82de0faf5a9761c36015,,,,,,,,,,,,,43,1,,./stim/wavs/puertorican_mismatch_interrogative-total-yn_La-nina-lava-el-plato.wav,,,,,,,,,,,,,,,,,,,,,,474.9265,477.209,0,0,1.7497,,0,20,20,42,1,1,puertorican,,,,,,,,,,,,,,,,,,,,,,,,,,,,,,,,,,,,,,,,,,,,,,,,,,,,,,,,
,,,,,,,,,65add0950cc74fc6024f5b6a,Mexican,13 or older,"no, only English or Spanish",yes,2025-08-12_14h10.43.010,empathy_intonation_perc,2024.2.4,MacIntel,59.88023952,65add0950cc74fc6024f5b6a,687ed1b7e638a4cbf2f02089,689b82de0faf5a9761c36015,,,,,,,,,,,,,71,0,,./stim/wavs/castilian_mismatch_declarative-broad-focus_La-nina-lava-el-plato.wav,,,,,,,,,,,,,,,,,,,,,,477.2098,479.7257,0,1,1.984,,0,21,21,70,1,0,castilian,,,,,,,,,,,,,,,,,,,,,,,,,,,,,,,,,,,,,,,,,,,,,,,,,,,,,,,,
,,,,,,,,,65add0950cc74fc6024f5b6a,Mexican,13 or older,"no, only English or Spanish",yes,2025-08-12_14h10.43.010,empathy_intonation_perc,2024.2.4,MacIntel,59.88023952,65add0950cc74fc6024f5b6a,687ed1b7e638a4cbf2f02089,689b82de0faf5a9761c36015,,,,,,,,,,,,,38,1,,./stim/wavs/mexican_mismatch_interrogative-total-yn_Mi-novio-viene-del-lago.wav,,,,,,,,,,,,,,,,,,,,,,479.7265,481.9425,1,1,1.6889,,0,22,22,37,1,0,mexican,,,,,,,,,,,,,,,,,,,,,,,,,,,,,,,,,,,,,,,,,,,,,,,,,,,,,,,,
,,,,,,,,,65add0950cc74fc6024f5b6a,Mexican,13 or older,"no, only English or Spanish",yes,2025-08-12_14h10.43.010,empathy_intonation_perc,2024.2.4,MacIntel,59.88023952,65add0950cc74fc6024f5b6a,687ed1b7e638a4cbf2f02089,689b82de0faf5a9761c36015,,,,,,,,,,,,,82,0,,./stim/wavs/mexican_mismatch_declarative-broad-focus_Mi-novio-viene-del-lago.wav,,,,,,,,,,,,,,,,,,,,,,481.9432,484.1093,0,1,1.6345,,0,23,23,81,1,0,mexican,,,,,,,,,,,,,,,,,,,,,,,,,,,,,,,,,,,,,,,,,,,,,,,,,,,,,,,,
,,,,,,,,,65add0950cc74fc6024f5b6a,Mexican,13 or older,"no, only English or Spanish",yes,2025-08-12_14h10.43.010,empathy_intonation_perc,2024.2.4,MacIntel,59.88023952,65add0950cc74fc6024f5b6a,687ed1b7e638a4cbf2f02089,689b82de0faf5a9761c36015,,,,,,,,,,,,,50,0,,./stim/wavs/castilian_match_declarative-broad-focus_Marta-abre-el-regalo.wav,,,,,,,,,,,,,,,,,,,,,,484.1102,486.6098,0,1,1.9788,,0,24,24,49,1,0,castilian,,,,,,,,,,,,,,,,,,,,,,,,,,,,,,,,,,,,,,,,,,,,,,,,,,,,,,,,
,,,,,,,,,65add0950cc74fc6024f5b6a,Mexican,13 or older,"no, only English or Spanish",yes,2025-08-12_14h10.43.010,empathy_intonation_perc,2024.2.4,MacIntel,59.88023952,65add0950cc74fc6024f5b6a,687ed1b7e638a4cbf2f02089,689b82de0faf5a9761c36015,,,,,,,,,,,,,41,1,,./stim/wavs/puertorican_mismatch_interrogative-total-yn_El-nino-oye-el-rio.wav,,,,,,,,,,,,,,,,,,,,,,486.6107,489.1594,0,0,2.0173,,0,25,25,40,1,1,puertorican,,,,,,,,,,,,,,,,,,,,,,,,,,,,,,,,,,,,,,,,,,,,,,,,,,,,,,,,
,,,,,,,,,65add0950cc74fc6024f5b6a,Mexican,13 or older,"no, only English or Spanish",yes,2025-08-12_14h10.43.010,empathy_intonation_perc,2024.2.4,MacIntel,59.88023952,65add0950cc74fc6024f5b6a,687ed1b7e638a4cbf2f02089,689b82de0faf5a9761c36015,,,,,,,,,,,,,22,1,,./stim/wavs/puertorican_match_interrogative-total-yn_Emilio-ama-la-marcha.wav,,,,,,,,,,,,,,,,,,,,,,489.1603,491.5762,0,0,1.8839,,0,26,26,21,1,1,puertorican,,,,,,,,,,,,,,,,,,,,,,,,,,,,,,,,,,,,,,,,,,,,,,,,,,,,,,,,
,,,,,,,,,65add0950cc74fc6024f5b6a,Mexican,13 or older,"no, only English or Spanish",yes,2025-08-12_14h10.43.010,empathy_intonation_perc,2024.2.4,MacIntel,59.88023952,65add0950cc74fc6024f5b6a,687ed1b7e638a4cbf2f02089,689b82de0faf5a9761c36015,,,,,,,,,,,,,18,1,,./stim/wavs/mexican_match_interrogative-total-yn_Marta-abre-el-regalo.wav,,,,,,,,,,,,,,,,,,,,,,491.5768,493.6917,1,1,1.5823,,0,27,27,17,1,0,mexican,,,,,,,,,,,,,,,,,,,,,,,,,,,,,,,,,,,,,,,,,,,,,,,,,,,,,,,,
,,,,,,,,,65add0950cc74fc6024f5b6a,Mexican,13 or older,"no, only English or Spanish",yes,2025-08-12_14h10.43.010,empathy_intonation_perc,2024.2.4,MacIntel,59.88023952,65add0950cc74fc6024f5b6a,687ed1b7e638a4cbf2f02089,689b82de0faf5a9761c36015,,,,,,,,,,,,,8,1,,./stim/wavs/cuban_match_interrogative-total-yn_Daniel-iba-a-Bolivia.wav,,,,,,,,,,,,,,,,,,,,,,493.6923,496.1262,0,0,1.9175,,0,28,28,7,1,1,cuban,,,,,,,,,,,,,,,,,,,,,,,,,,,,,,,,,,,,,,,,,,,,,,,,,,,,,,,,
,,,,,,,,,65add0950cc74fc6024f5b6a,Mexican,13 or older,"no, only English or Spanish",yes,2025-08-12_14h10.43.010,empathy_intonation_perc,2024.2.4,MacIntel,59.88023952,65add0950cc74fc6024f5b6a,687ed1b7e638a4cbf2f02089,689b82de0faf5a9761c36015,,,,,,,,,,,,,74,0,,./stim/wavs/cuban_mismatch_declarative-broad-focus_El-bebe-comia-muy-bien.wav,,,,,,,,,,,,,,,,,,,,,,496.1269,498.593,0,1,1.9342,,0,29,29,73,1,0,cuban,,,,,,,,,,,,,,,,,,,,,,,,,,,,,,,,,,,,,,,,,,,,,,,,,,,,,,,,
,,,,,,,,,65add0950cc74fc6024f5b6a,Mexican,13 or older,"no, only English or Spanish",yes,2025-08-12_14h10.43.010,empathy_intonation_perc,2024.2.4,MacIntel,59.88023952,65add0950cc74fc6024f5b6a,687ed1b7e638a4cbf2f02089,689b82de0faf5a9761c36015,,,,,,,,,,,,,51,0,,./stim/wavs/cuban_match_declarative-broad-focus_Ana-lleva-el-abrigo.wav,,,,,,,,,,,,,,,,,,,,,,498.5939,501.0098,0,1,1.885,,0,30,30,50,1,0,cuban,,,,,,,,,,,,,,,,,,,,,,,,,,,,,,,,,,,,,,,,,,,,,,,,,,,,,,,,
,,,,,,,,,65add0950cc74fc6024f5b6a,Mexican,13 or older,"no, only English or Spanish",yes,2025-08-12_14h10.43.010,empathy_intonation_perc,2024.2.4,MacIntel,59.88023952,65add0950cc74fc6024f5b6a,687ed1b7e638a4cbf2f02089,689b82de0faf5a9761c36015,,,,,,,,,,,,,19,1,,./stim/wavs/puertorican_match_interrogative-total-yn_Ana-lleva-el-abrigo.wav,,,,,,,,,,,,,,,,,,,,,,501.0107,503.1262,1,1,1.5944,,0,31,31,18,1,1,puertorican,,,,,,,,,,,,,,,,,,,,,,,,,,,,,,,,,,,,,,,,,,,,,,,,,,,,,,,,
,,,,,,,,,65add0950cc74fc6024f5b6a,Mexican,13 or older,"no, only English or Spanish",yes,2025-08-12_14h10.43.010,empathy_intonation_perc,2024.2.4,MacIntel,59.88023952,65add0950cc74fc6024f5b6a,687ed1b7e638a4cbf2f02089,689b82de0faf5a9761c36015,,,,,,,,,,,,,70,0,,./stim/wavs/castilian_mismatch_declarative-broad-focus_La-maestra-vive-en-Paris.wav,,,,,,,,,,,,,,,,,,,,,,503.1266,505.5924,0,1,1.934,,0,32,32,69,1,0,castilian,,,,,,,,,,,,,,,,,,,,,,,,,,,,,,,,,,,,,,,,,,,,,,,,,,,,,,,,
,,,,,,,,,65add0950cc74fc6024f5b6a,Mexican,13 or older,"no, only English or Spanish",yes,2025-08-12_14h10.43.010,empathy_intonation_perc,2024.2.4,MacIntel,59.88023952,65add0950cc74fc6024f5b6a,687ed1b7e638a4cbf2f02089,689b82de0faf5a9761c36015,,,,,,,,,,,,,56,0,,./stim/wavs/cuban_match_declarative-broad-focus_Marta-abre-el-regalo.wav,,,,,,,,,,,,,,,,,,,,,,505.593,508.0099,0,1,1.8996,,0,33,33,55,1,0,cuban,,,,,,,,,,,,,,,,,,,,,,,,,,,,,,,,,,,,,,,,,,,,,,,,,,,,,,,,
,,,,,,,,,65add0950cc74fc6024f5b6a,Mexican,13 or older,"no, only English or Spanish",yes,2025-08-12_14h10.43.010,empathy_intonation_perc,2024.2.4,MacIntel,59.88023952,65add0950cc74fc6024f5b6a,687ed1b7e638a4cbf2f02089,689b82de0faf5a9761c36015,,,,,,,,,,,,,80,0,,./stim/wavs/mexican_mismatch_declarative-broad-focus_El-hombre-mira-la-luna.wav,,,,,,,,,,,,,,,,,,,,,,508.0107,510.51,0,1,1.9784,,0,34,34,79,1,0,mexican,,,,,,,,,,,,,,,,,,,,,,,,,,,,,,,,,,,,,,,,,,,,,,,,,,,,,,,,
,,,,,,,,,65add0950cc74fc6024f5b6a,Mexican,13 or older,"no, only English or Spanish",yes,2025-08-12_14h10.43.010,empathy_intonation_perc,2024.2.4,MacIntel,59.88023952,65add0950cc74fc6024f5b6a,687ed1b7e638a4cbf2f02089,689b82de0faf5a9761c36015,,,,,,,,,,,,,57,0,,./stim/wavs/mexican_match_declarative-broad-focus_Ana-lleva-el-abrigo.wav,,,,,,,,,,,,,,,,,,,,,,510.5109,512.7937,0,1,1.7621,,0,35,35,56,1,0,mexican,,,,,,,,,,,,,,,,,,,,,,,,,,,,,,,,,,,,,,,,,,,,,,,,,,,,,,,,
,,,,,,,,,65add0950cc74fc6024f5b6a,Mexican,13 or older,"no, only English or Spanish",yes,2025-08-12_14h10.43.010,empathy_intonation_perc,2024.2.4,MacIntel,59.88023952,65add0950cc74fc6024f5b6a,687ed1b7e638a4cbf2f02089,689b82de0faf5a9761c36015,,,,,,,,,,,,,28,1,,./stim/wavs/castilian_mismatch_interrogative-total-yn_Mi-novio-viene-del-lago.wav,,,,,,,,,,,,,,,,,,,,,,512.7946,515.2937,1,1,1.9702,,0,36,36,27,1,0,castilian,,,,,,,,,,,,,,,,,,,,,,,,,,,,,,,,,,,,,,,,,,,,,,,,,,,,,,,,
,,,,,,,,,65add0950cc74fc6024f5b6a,Mexican,13 or older,"no, only English or Spanish",yes,2025-08-12_14h10.43.010,empathy_intonation_perc,2024.2.4,MacIntel,59.88023952,65add0950cc74fc6024f5b6a,687ed1b7e638a4cbf2f02089,689b82de0faf5a9761c36015,,,,,,,,,,,,,65,0,,./stim/wavs/puertorican_match_declarative-broad-focus_David-leia-el-libro.wav,,,,,,,,,,,,,,,,,,,,,,515.2945,517.5936,0,1,1.7792,,0,37,37,64,1,0,puertorican,,,,,,,,,,,,,,,,,,,,,,,,,,,,,,,,,,,,,,,,,,,,,,,,,,,,,,,,
,,,,,,,,,65add0950cc74fc6024f5b6a,Mexican,13 or older,"no, only English or Spanish",yes,2025-08-12_14h10.43.010,empathy_intonation_perc,2024.2.4,MacIntel,59.88023952,65add0950cc74fc6024f5b6a,687ed1b7e638a4cbf2f02089,689b82de0faf5a9761c36015,,,,,,,,,,,,,10,1,,./stim/wavs/cuban_match_interrogative-total-yn_Maria-bebe-el-vino.wav,,,,,,,,,,,,,,,,,,,,,,517.5943,520.3099,0,0,2.1882,,0,38,38,9,1,1,cuban,,,,,,,,,,,,,,,,,,,,,,,,,,,,,,,,,,,,,,,,,,,,,,,,,,,,,,,,
,,,,,,,,,65add0950cc74fc6024f5b6a,Mexican,13 or older,"no, only English or Spanish",yes,2025-08-12_14h10.43.010,empathy_intonation_perc,2024.2.4,MacIntel,59.88023952,65add0950cc74fc6024f5b6a,687ed1b7e638a4cbf2f02089,689b82de0faf5a9761c36015,,,,,,,,,,,,,3,1,,./stim/wavs/castilian_match_interrogative-total-yn_Manuela-vende-el-carro.wav,,,,,,,,,,,,,,,,,,,,,,520.3103,522.8933,1,1,2.0507,,0,39,39,2,1,0,castilian,,,,,,,,,,,,,,,,,,,,,,,,,,,,,,,,,,,,,,,,,,,,,,,,,,,,,,,,
,,,,,,,,,65add0950cc74fc6024f5b6a,Mexican,13 or older,"no, only English or Spanish",yes,2025-08-12_14h10.43.010,empathy_intonation_perc,2024.2.4,MacIntel,59.88023952,65add0950cc74fc6024f5b6a,687ed1b7e638a4cbf2f02089,689b82de0faf5a9761c36015,,,,,,,,,,,,,27,1,,./stim/wavs/castilian_mismatch_interrogative-total-yn_Mi-madre-come-la-fruta.wav,,,,,,,,,,,,,,,,,,,,,,522.8941,525.559,1,1,2.1385,,0,40,40,26,1,0,castilian,,,,,,,,,,,,,,,,,,,,,,,,,,,,,,,,,,,,,,,,,,,,,,,,,,,,,,,,
,,,,,,,,,65add0950cc74fc6024f5b6a,Mexican,13 or older,"no, only English or Spanish",yes,2025-08-12_14h10.43.010,empathy_intonation_perc,2024.2.4,MacIntel,59.88023952,65add0950cc74fc6024f5b6a,687ed1b7e638a4cbf2f02089,689b82de0faf5a9761c36015,,,,,,,,,,,,,60,0,,./stim/wavs/mexican_match_declarative-broad-focus_Emilio-ama-la-marcha.wav,,,,,,,,,,,,,,,,,,,,,,525.5595,528.0769,0,1,1.9988,,0,41,41,59,1,0,mexican,,,,,,,,,,,,,,,,,,,,,,,,,,,,,,,,,,,,,,,,,,,,,,,,,,,,,,,,
,,,,,,,,,65add0950cc74fc6024f5b6a,Mexican,13 or older,"no, only English or Spanish",yes,2025-08-12_14h10.43.010,empathy_intonation_perc,2024.2.4,MacIntel,59.88023952,65add0950cc74fc6024f5b6a,687ed1b7e638a4cbf2f02089,689b82de0faf5a9761c36015,,,,,,,,,,,,,24,1,,./stim/wavs/puertorican_match_interrogative-total-yn_Maria-bebe-el-vino.wav,,,,,,,,,,,,,,,,,,,,,,528.0777,530.9104,0,0,2.2991,,0,42,42,23,1,1,puertorican,,,,,,,,,,,,,,,,,,,,,,,,,,,,,,,,,,,,,,,,,,,,,,,,,,,,,,,,
,,,,,,,,,65add0950cc74fc6024f5b6a,Mexican,13 or older,"no, only English or Spanish",yes,2025-08-12_14h10.43.010,empathy_intonation_perc,2024.2.4,MacIntel,59.88023952,65add0950cc74fc6024f5b6a,687ed1b7e638a4cbf2f02089,689b82de0faf5a9761c36015,,,,,,,,,,,,,86,0,,./stim/wavs/puertorican_mismatch_declarative-broad-focus_El-nino-oye-el-rio.wav,,,,,,,,,,,,,,,,,,,,,,530.9113,533.4094,0,1,1.9705,,0,43,43,85,1,0,puertorican,,,,,,,,,,,,,,,,,,,,,,,,,,,,,,,,,,,,,,,,,,,,,,,,,,,,,,,,
,,,,,,,,,65add0950cc74fc6024f5b6a,Mexican,13 or older,"no, only English or Spanish",yes,2025-08-12_14h10.43.010,empathy_intonation_perc,2024.2.4,MacIntel,59.88023952,65add0950cc74fc6024f5b6a,687ed1b7e638a4cbf2f02089,689b82de0faf5a9761c36015,,,,,,,,,,,,,16,1,,./stim/wavs/mexican_match_interrogative-total-yn_Emilio-ama-la-marcha.wav,,,,,,,,,,,,,,,,,,,,,,533.41,535.5934,1,1,1.6671,,0,44,44,15,1,0,mexican,,,,,,,,,,,,,,,,,,,,,,,,,,,,,,,,,,,,,,,,,,,,,,,,,,,,,,,,
,,,,,,,,,65add0950cc74fc6024f5b6a,Mexican,13 or older,"no, only English or Spanish",yes,2025-08-12_14h10.43.010,empathy_intonation_perc,2024.2.4,MacIntel,59.88023952,65add0950cc74fc6024f5b6a,687ed1b7e638a4cbf2f02089,689b82de0faf5a9761c36015,,,,,,,,,,,,,13,1,,./stim/wavs/mexican_match_interrogative-total-yn_Ana-lleva-el-abrigo.wav,,,,,,,,,,,,,,,,,,,,,,535.594,537.8096,1,1,1.7004,,0,45,45,12,1,0,mexican,,,,,,,,,,,,,,,,,,,,,,,,,,,,,,,,,,,,,,,,,,,,,,,,,,,,,,,,
,,,,,,,,,65add0950cc74fc6024f5b6a,Mexican,13 or older,"no, only English or Spanish",yes,2025-08-12_14h10.43.010,empathy_intonation_perc,2024.2.4,MacIntel,59.88023952,65add0950cc74fc6024f5b6a,687ed1b7e638a4cbf2f02089,689b82de0faf5a9761c36015,,,,,,,,,,,,,12,1,,./stim/wavs/cuban_match_interrogative-total-yn_Marta-abre-el-regalo.wav,,,,,,,,,,,,,,,,,,,,,,537.8101,539.8436,0,0,1.517,,0,46,46,11,1,1,cuban,,,,,,,,,,,,,,,,,,,,,,,,,,,,,,,,,,,,,,,,,,,,,,,,,,,,,,,,
,,,,,,,,,65add0950cc74fc6024f5b6a,Mexican,13 or older,"no, only English or Spanish",yes,2025-08-12_14h10.43.010,empathy_intonation_perc,2024.2.4,MacIntel,59.88023952,65add0950cc74fc6024f5b6a,687ed1b7e638a4cbf2f02089,689b82de0faf5a9761c36015,,,,,,,,,,,,,87,0,,./stim/wavs/puertorican_mismatch_declarative-broad-focus_La-maestra-vive-en-Paris.wav,,,,,,,,,,,,,,,,,,,,,,539.8439,541.9775,0,1,1.6028,,0,47,47,86,1,0,puertorican,,,,,,,,,,,,,,,,,,,,,,,,,,,,,,,,,,,,,,,,,,,,,,,,,,,,,,,,
,,,,,,,,,65add0950cc74fc6024f5b6a,Mexican,13 or older,"no, only English or Spanish",yes,2025-08-12_14h10.43.010,empathy_intonation_perc,2024.2.4,MacIntel,59.88023952,65add0950cc74fc6024f5b6a,687ed1b7e638a4cbf2f02089,689b82de0faf5a9761c36015,,,,,,,,,,,,,23,1,,./stim/wavs/puertorican_match_interrogative-total-yn_Manuela-vende-el-carro.wav,,,,,,,,,,,,,,,,,,,,,,541.9783,544.2605,1,1,1.7605,,0,48,48,22,1,1,puertorican,,,,,,,,,,,,,,,,,,,,,,,,,,,,,,,,,,,,,,,,,,,,,,,,,,,,,,,,
,,,,,,,,,65add0950cc74fc6024f5b6a,Mexican,13 or older,"no, only English or Spanish",yes,2025-08-12_14h10.43.010,empathy_intonation_perc,2024.2.4,MacIntel,59.88023952,65add0950cc74fc6024f5b6a,687ed1b7e638a4cbf2f02089,689b82de0faf5a9761c36015,,,,,,,,,,,,,75,0,,./stim/wavs/cuban_mismatch_declarative-broad-focus_El-hombre-mira-la-luna.wav,,,,,,,,,,,,,,,,,,,,,,544.261,546.2932,0,1,1.502,,0,49,49,74,1,0,cuban,,,,,,,,,,,,,,,,,,,,,,,,,,,,,,,,,,,,,,,,,,,,,,,,,,,,,,,,
,,,,,,,,,65add0950cc74fc6024f5b6a,Mexican,13 or older,"no, only English or Spanish",yes,2025-08-12_14h10.43.010,empathy_intonation_perc,2024.2.4,MacIntel,59.88023952,65add0950cc74fc6024f5b6a,687ed1b7e638a4cbf2f02089,689b82de0faf5a9761c36015,,,,,,,,,,,,,7,1,,./stim/wavs/cuban_match_interrogative-total-yn_Ana-lleva-el-abrigo.wav,,,,,,,,,,,,,,,,,,,,,,546.2938,548.8439,0,0,2.0337,,0,50,50,6,1,1,cuban,,,,,,,,,,,,,,,,,,,,,,,,,,,,,,,,,,,,,,,,,,,,,,,,,,,,,,,,
,,,,,,,,,65add0950cc74fc6024f5b6a,Mexican,13 or older,"no, only English or Spanish",yes,2025-08-12_14h10.43.010,empathy_intonation_perc,2024.2.4,MacIntel,59.88023952,65add0950cc74fc6024f5b6a,687ed1b7e638a4cbf2f02089,689b82de0faf5a9761c36015,,,,,,,,,,,,,81,0,,./stim/wavs/mexican_mismatch_declarative-broad-focus_La-maestra-vive-en-Paris.wav,,,,,,,,,,,,,,,,,,,,,,548.8446,551.3609,0,1,1.9829,,0,51,51,80,1,0,mexican,,,,,,,,,,,,,,,,,,,,,,,,,,,,,,,,,,,,,,,,,,,,,,,,,,,,,,,,
,,,,,,,,,65add0950cc74fc6024f5b6a,Mexican,13 or older,"no, only English or Spanish",yes,2025-08-12_14h10.43.010,empathy_intonation_perc,2024.2.4,MacIntel,59.88023952,65add0950cc74fc6024f5b6a,687ed1b7e638a4cbf2f02089,689b82de0faf5a9761c36015,,,,,,,,,,,,,39,1,,./stim/wavs/mexican_mismatch_interrogative-total-yn_Mi-tia-odia-la-lluvia.wav,,,,,,,,,,,,,,,,,,,,,,551.3617,553.5945,1,1,1.7036,,0,52,52,38,1,0,mexican,,,,,,,,,,,,,,,,,,,,,,,,,,,,,,,,,,,,,,,,,,,,,,,,,,,,,,,,
,,,,,,,,,65add0950cc74fc6024f5b6a,Mexican,13 or older,"no, only English or Spanish",yes,2025-08-12_14h10.43.010,empathy_intonation_perc,2024.2.4,MacIntel,59.88023952,65add0950cc74fc6024f5b6a,687ed1b7e638a4cbf2f02089,689b82de0faf5a9761c36015,,,,,,,,,,,,,34,1,,./stim/wavs/cuban_mismatch_interrogative-total-yn_Mi-tia-odia-la-lluvia.wav,,,,,,,,,,,,,,,,,,,,,,553.5952,556.1444,0,0,2.0179,,0,53,53,33,1,1,cuban,,,,,,,,,,,,,,,,,,,,,,,,,,,,,,,,,,,,,,,,,,,,,,,,,,,,,,,,
,,,,,,,,,65add0950cc74fc6024f5b6a,Mexican,13 or older,"no, only English or Spanish",yes,2025-08-12_14h10.43.010,empathy_intonation_perc,2024.2.4,MacIntel,59.88023952,65add0950cc74fc6024f5b6a,687ed1b7e638a4cbf2f02089,689b82de0faf5a9761c36015,,,,,,,,,,,,,11,1,,./stim/wavs/cuban_match_interrogative-total-yn_Mariano-habla-del-tiempo.wav,,,,,,,,,,,,,,,,,,,,,,556.1453,558.9779,0,0,2.3001,,0,54,54,10,1,1,cuban,,,,,,,,,,,,,,,,,,,,,,,,,,,,,,,,,,,,,,,,,,,,,,,,,,,,,,,,
,,,,,,,,,65add0950cc74fc6024f5b6a,Mexican,13 or older,"no, only English or Spanish",yes,2025-08-12_14h10.43.010,empathy_intonation_perc,2024.2.4,MacIntel,59.88023952,65add0950cc74fc6024f5b6a,687ed1b7e638a4cbf2f02089,689b82de0faf5a9761c36015,,,,,,,,,,,,,63,0,,./stim/wavs/puertorican_match_declarative-broad-focus_Ana-lleva-el-abrigo.wav,,,,,,,,,,,,,,,,,,,,,,558.9785,561.1435,0,1,1.633,,0,55,55,62,1,0,puertorican,,,,,,,,,,,,,,,,,,,,,,,,,,,,,,,,,,,,,,,,,,,,,,,,,,,,,,,,
,,,,,,,,,65add0950cc74fc6024f5b6a,Mexican,13 or older,"no, only English or Spanish",yes,2025-08-12_14h10.43.010,empathy_intonation_perc,2024.2.4,MacIntel,59.88023952,65add0950cc74fc6024f5b6a,687ed1b7e638a4cbf2f02089,689b82de0faf5a9761c36015,,,,,,,,,,,,,35,1,,./stim/wavs/mexican_mismatch_interrogative-total-yn_El-hombre-mira-la-luna.wav,,,,,,,,,,,,,,,,,,,,,,561.1441,563.5946,1,1,1.9336,,0,56,56,34,1,0,mexican,,,,,,,,,,,,,,,,,,,,,,,,,,,,,,,,,,,,,,,,,,,,,,,,,,,,,,,,
,,,,,,,,,65add0950cc74fc6024f5b6a,Mexican,13 or older,"no, only English or Spanish",yes,2025-08-12_14h10.43.010,empathy_intonation_perc,2024.2.4,MacIntel,59.88023952,65add0950cc74fc6024f5b6a,687ed1b7e638a4cbf2f02089,689b82de0faf5a9761c36015,,,,,,,,,,,,,84,0,,./stim/wavs/puertorican_mismatch_declarative-broad-focus_El-bebe-comia-muy-bien.wav,,,,,,,,,,,,,,,,,,,,,,563.5953,565.9603,0,1,1.8333,,0,57,57,83,1,0,puertorican,,,,,,,,,,,,,,,,,,,,,,,,,,,,,,,,,,,,,,,,,,,,,,,,,,,,,,,,
,,,,,,,,,65add0950cc74fc6024f5b6a,Mexican,13 or older,"no, only English or Spanish",yes,2025-08-12_14h10.43.010,empathy_intonation_perc,2024.2.4,MacIntel,59.88023952,65add0950cc74fc6024f5b6a,687ed1b7e638a4cbf2f02089,689b82de0faf5a9761c36015,,,,,,,,,,,,,88,0,,./stim/wavs/puertorican_mismatch_declarative-broad-focus_La-nina-lava-el-plato.wav,,,,,,,,,,,,,,,,,,,,,,565.9609,568.2112,0,1,1.7159,,0,58,58,87,1,0,puertorican,,,,,,,,,,,,,,,,,,,,,,,,,,,,,,,,,,,,,,,,,,,,,,,,,,,,,,,,
,,,,,,,,,65add0950cc74fc6024f5b6a,Mexican,13 or older,"no, only English or Spanish",yes,2025-08-12_14h10.43.010,empathy_intonation_perc,2024.2.4,MacIntel,59.88023952,65add0950cc74fc6024f5b6a,687ed1b7e638a4cbf2f02089,689b82de0faf5a9761c36015,,,,,,,,,,,,,42,1,,./stim/wavs/puertorican_mismatch_interrogative-total-yn_La-maestra-vive-en-Paris.wav,,,,,,,,,,,,,,,,,,,,,,568.212,570.6948,0,0,1.9532,,0,59,59,41,1,1,puertorican,,,,,,,,,,,,,,,,,,,,,,,,,,,,,,,,,,,,,,,,,,,,,,,,,,,,,,,,
,,,,,,,,,65add0950cc74fc6024f5b6a,Mexican,13 or older,"no, only English or Spanish",yes,2025-08-12_14h10.43.010,empathy_intonation_perc,2024.2.4,MacIntel,59.88023952,65add0950cc74fc6024f5b6a,687ed1b7e638a4cbf2f02089,689b82de0faf5a9761c36015,,,,,,,,,,,,,1,1,,./stim/wavs/castilian_match_interrogative-total-yn_David-leia-el-libro.wav,,,,,,,,,,,,,,,,,,,,,,570.6955,573.1615,1,1,1.9331,,0,60,60,0,1,0,castilian,,,,,,,,,,,,,,,,,,,,,,,,,,,,,,,,,,,,,,,,,,,,,,,,,,,,,,,,
,,,,,,,,,65add0950cc74fc6024f5b6a,Mexican,13 or older,"no, only English or Spanish",yes,2025-08-12_14h10.43.010,empathy_intonation_perc,2024.2.4,MacIntel,59.88023952,65add0950cc74fc6024f5b6a,687ed1b7e638a4cbf2f02089,689b82de0faf5a9761c36015,,,,,,,,,,,,,9,1,,./stim/wavs/cuban_match_interrogative-total-yn_Manuela-vende-el-carro.wav,,,,,,,,,,,,,,,,,,,,,,573.1621,575.4106,0,0,1.724,,0,61,61,8,1,1,cuban,,,,,,,,,,,,,,,,,,,,,,,,,,,,,,,,,,,,,,,,,,,,,,,,,,,,,,,,
,,,,,,,,,65add0950cc74fc6024f5b6a,Mexican,13 or older,"no, only English or Spanish",yes,2025-08-12_14h10.43.010,empathy_intonation_perc,2024.2.4,MacIntel,59.88023952,65add0950cc74fc6024f5b6a,687ed1b7e638a4cbf2f02089,689b82de0faf5a9761c36015,,,,,,,,,,,,,55,0,,./stim/wavs/cuban_match_declarative-broad-focus_Mariano-habla-del-tiempo.wav,,,,,,,,,,,,,,,,,,,,,,575.4114,577.7773,0,1,1.8346,,0,62,62,54,1,0,cuban,,,,,,,,,,,,,,,,,,,,,,,,,,,,,,,,,,,,,,,,,,,,,,,,,,,,,,,,
,,,,,,,,,65add0950cc74fc6024f5b6a,Mexican,13 or older,"no, only English or Spanish",yes,2025-08-12_14h10.43.010,empathy_intonation_perc,2024.2.4,MacIntel,59.88023952,65add0950cc74fc6024f5b6a,687ed1b7e638a4cbf2f02089,689b82de0faf5a9761c36015,,,,,,,,,,,,,61,0,,./stim/wavs/mexican_match_declarative-broad-focus_Mariano-habla-del-tiempo.wav,,,,,,,,,,,,,,,,,,,,,,577.7779,579.8618,0,1,1.5692,,0,63,63,60,1,0,mexican,,,,,,,,,,,,,,,,,,,,,,,,,,,,,,,,,,,,,,,,,,,,,,,,,,,,,,,,
,,,,,,,,,65add0950cc74fc6024f5b6a,Mexican,13 or older,"no, only English or Spanish",yes,2025-08-12_14h10.43.010,empathy_intonation_perc,2024.2.4,MacIntel,59.88023952,65add0950cc74fc6024f5b6a,687ed1b7e638a4cbf2f02089,689b82de0faf5a9761c36015,,,,,,,,,,,,,32,1,,./stim/wavs/cuban_mismatch_interrogative-total-yn_Mi-madre-come-la-fruta.wav,,,,,,,,,,,,,,,,,,,,,,579.8624,582.1286,0,0,1.7371,,0,64,64,31,1,1,cuban,,,,,,,,,,,,,,,,,,,,,,,,,,,,,,,,,,,,,,,,,,,,,,,,,,,,,,,,
,,,,,,,,,65add0950cc74fc6024f5b6a,Mexican,13 or older,"no, only English or Spanish",yes,2025-08-12_14h10.43.010,empathy_intonation_perc,2024.2.4,MacIntel,59.88023952,65add0950cc74fc6024f5b6a,687ed1b7e638a4cbf2f02089,689b82de0faf5a9761c36015,,,,,,,,,,,,,17,1,,./stim/wavs/mexican_match_interrogative-total-yn_Mariano-habla-del-tiempo.wav,,,,,,,,,,,,,,,,,,,,,,582.1292,584.3948,1,1,1.7448,,0,65,65,16,1,0,mexican,,,,,,,,,,,,,,,,,,,,,,,,,,,,,,,,,,,,,,,,,,,,,,,,,,,,,,,,
,,,,,,,,,65add0950cc74fc6024f5b6a,Mexican,13 or older,"no, only English or Spanish",yes,2025-08-12_14h10.43.010,empathy_intonation_perc,2024.2.4,MacIntel,59.88023952,65add0950cc74fc6024f5b6a,687ed1b7e638a4cbf2f02089,689b82de0faf5a9761c36015,,,,,,,,,,,,,46,0,,./stim/wavs/castilian_match_declarative-broad-focus_Emilio-ama-la-marcha.wav,,,,,,,,,,,,,,,,,,,,,,584.3951,586.7619,0,1,1.8491,,0,66,66,45,1,0,castilian,,,,,,,,,,,,,,,,,,,,,,,,,,,,,,,,,,,,,,,,,,,,,,,,,,,,,,,,
,,,,,,,,,65add0950cc74fc6024f5b6a,Mexican,13 or older,"no, only English or Spanish",yes,2025-08-12_14h10.43.010,empathy_intonation_perc,2024.2.4,MacIntel,59.88023952,65add0950cc74fc6024f5b6a,687ed1b7e638a4cbf2f02089,689b82de0faf5a9761c36015,,,,,,,,,,,,,4,1,,./stim/wavs/castilian_match_interrogative-total-yn_Maria-bebe-el-vino.wav,,,,,,,,,,,,,,,,,,,,,,586.7627,588.8955,1,1,1.6003,,0,67,67,3,1,0,castilian,,,,,,,,,,,,,,,,,,,,,,,,,,,,,,,,,,,,,,,,,,,,,,,,,,,,,,,,
,,,,,,,,,65add0950cc74fc6024f5b6a,Mexican,13 or older,"no, only English or Spanish",yes,2025-08-12_14h10.43.010,empathy_intonation_perc,2024.2.4,MacIntel,59.88023952,65add0950cc74fc6024f5b6a,687ed1b7e638a4cbf2f02089,689b82de0faf5a9761c36015,,,,,,,,,,,,,77,0,,./stim/wavs/cuban_mismatch_declarative-broad-focus_Mi-novio-viene-del-lago.wav,,,,,,,,,,,,,,,,,,,,,,588.8963,591.1622,0,1,1.7332,,0,68,68,76,1,0,cuban,,,,,,,,,,,,,,,,,,,,,,,,,,,,,,,,,,,,,,,,,,,,,,,,,,,,,,,,
,,,,,,,,,65add0950cc74fc6024f5b6a,Mexican,13 or older,"no, only English or Spanish",yes,2025-08-12_14h10.43.010,empathy_intonation_perc,2024.2.4,MacIntel,59.88023952,65add0950cc74fc6024f5b6a,687ed1b7e638a4cbf2f02089,689b82de0faf5a9761c36015,,,,,,,,,,,,,26,1,,./stim/wavs/castilian_mismatch_interrogative-total-yn_La-nina-lava-el-plato.wav,,,,,,,,,,,,,,,,,,,,,,591.1629,593.4787,1,1,1.7958,,0,69,69,25,1,0,castilian,,,,,,,,,,,,,,,,,,,,,,,,,,,,,,,,,,,,,,,,,,,,,,,,,,,,,,,,
,,,,,,,,,65add0950cc74fc6024f5b6a,Mexican,13 or older,"no, only English or Spanish",yes,2025-08-12_14h10.43.010,empathy_intonation_perc,2024.2.4,MacIntel,59.88023952,65add0950cc74fc6024f5b6a,687ed1b7e638a4cbf2f02089,689b82de0faf5a9761c36015,,,,,,,,,,,,,69,0,,./stim/wavs/castilian_mismatch_declarative-broad-focus_El-nino-oye-el-rio.wav,,,,,,,,,,,,,,,,,,,,,,593.4794,596.0622,0,1,2.0497,,0,70,70,68,1,0,castilian,,,,,,,,,,,,,,,,,,,,,,,,,,,,,,,,,,,,,,,,,,,,,,,,,,,,,,,,
,,,,,,,,,65add0950cc74fc6024f5b6a,Mexican,13 or older,"no, only English or Spanish",yes,2025-08-12_14h10.43.010,empathy_intonation_perc,2024.2.4,MacIntel,59.88023952,65add0950cc74fc6024f5b6a,687ed1b7e638a4cbf2f02089,689b82de0faf5a9761c36015,,,,,,,,,,,,,21,1,,./stim/wavs/puertorican_match_interrogative-total-yn_David-leia-el-libro.wav,,,,,,,,,,,,,,,,,,,,,,596.063,598.2112,0,0,1.6178,,0,71,71,20,1,1,puertorican,,,,,,,,,,,,,,,,,,,,,,,,,,,,,,,,,,,,,,,,,,,,,,,,,,,,,,,,
,,,,,,,,,65add0950cc74fc6024f5b6a,Mexican,13 or older,"no, only English or Spanish",yes,2025-08-12_14h10.43.010,empathy_intonation_perc,2024.2.4,MacIntel,59.88023952,65add0950cc74fc6024f5b6a,687ed1b7e638a4cbf2f02089,689b82de0faf5a9761c36015,,,,,,,,,,,,,58,0,,./stim/wavs/mexican_match_declarative-broad-focus_Daniel-iba-a-Bolivia.wav,,,,,,,,,,,,,,,,,,,,,,598.2118,600.4456,0,1,1.7214,,0,72,72,57,1,0,mexican,,,,,,,,,,,,,,,,,,,,,,,,,,,,,,,,,,,,,,,,,,,,,,,,,,,,,,,,
,,,,,,,,,65add0950cc74fc6024f5b6a,Mexican,13 or older,"no, only English or Spanish",yes,2025-08-12_14h10.43.010,empathy_intonation_perc,2024.2.4,MacIntel,59.88023952,65add0950cc74fc6024f5b6a,687ed1b7e638a4cbf2f02089,689b82de0faf5a9761c36015,,,,,,,,,,,,,64,0,,./stim/wavs/puertorican_match_declarative-broad-focus_Daniel-iba-a-Bolivia.wav,,,,,,,,,,,,,,,,,,,,,,600.4464,602.6956,0,1,1.717,,0,73,73,63,1,0,puertorican,,,,,,,,,,,,,,,,,,,,,,,,,,,,,,,,,,,,,,,,,,,,,,,,,,,,,,,,
,,,,,,,,,65add0950cc74fc6024f5b6a,Mexican,13 or older,"no, only English or Spanish",yes,2025-08-12_14h10.43.010,empathy_intonation_perc,2024.2.4,MacIntel,59.88023952,65add0950cc74fc6024f5b6a,687ed1b7e638a4cbf2f02089,689b82de0faf5a9761c36015,,,,,,,,,,,,,14,1,,./stim/wavs/mexican_match_interrogative-total-yn_Daniel-iba-a-Bolivia.wav,,,,,,,,,,,,,,,,,,,,,,602.6962,604.9283,1,1,1.7023,,0,74,74,13,1,0,mexican,,,,,,,,,,,,,,,,,,,,,,,,,,,,,,,,,,,,,,,,,,,,,,,,,,,,,,,,
,,,,,,,,,65add0950cc74fc6024f5b6a,Mexican,13 or older,"no, only English or Spanish",yes,2025-08-12_14h10.43.010,empathy_intonation_perc,2024.2.4,MacIntel,59.88023952,65add0950cc74fc6024f5b6a,687ed1b7e638a4cbf2f02089,689b82de0faf5a9761c36015,,,,,,,,,,,,,78,0,,./stim/wavs/cuban_mismatch_declarative-broad-focus_Mi-tia-odia-la-lluvia.wav,,,,,,,,,,,,,,,,,,,,,,604.9292,607.346,0,1,1.8825,,0,75,75,77,1,0,cuban,,,,,,,,,,,,,,,,,,,,,,,,,,,,,,,,,,,,,,,,,,,,,,,,,,,,,,,,
,,,,,,,,,65add0950cc74fc6024f5b6a,Mexican,13 or older,"no, only English or Spanish",yes,2025-08-12_14h10.43.010,empathy_intonation_perc,2024.2.4,MacIntel,59.88023952,65add0950cc74fc6024f5b6a,687ed1b7e638a4cbf2f02089,689b82de0faf5a9761c36015,,,,,,,,,,,,,67,0,,./stim/wavs/puertorican_match_declarative-broad-focus_Manuela-vende-el-carro.wav,,,,,,,,,,,,,,,,,,,,,,607.3467,610.329,0,1,2.4521,,0,76,76,66,1,0,puertorican,,,,,,,,,,,,,,,,,,,,,,,,,,,,,,,,,,,,,,,,,,,,,,,,,,,,,,,,
,,,,,,,,,65add0950cc74fc6024f5b6a,Mexican,13 or older,"no, only English or Spanish",yes,2025-08-12_14h10.43.010,empathy_intonation_perc,2024.2.4,MacIntel,59.88023952,65add0950cc74fc6024f5b6a,687ed1b7e638a4cbf2f02089,689b82de0faf5a9761c36015,,,,,,,,,,,,,2,1,,./stim/wavs/castilian_match_interrogative-total-yn_Emilio-ama-la-marcha.wav,,,,,,,,,,,,,,,,,,,,,,610.3294,612.5625,1,1,1.6994,,0,77,77,1,1,0,castilian,,,,,,,,,,,,,,,,,,,,,,,,,,,,,,,,,,,,,,,,,,,,,,,,,,,,,,,,
,,,,,,,,,65add0950cc74fc6024f5b6a,Mexican,13 or older,"no, only English or Spanish",yes,2025-08-12_14h10.43.010,empathy_intonation_perc,2024.2.4,MacIntel,59.88023952,65add0950cc74fc6024f5b6a,687ed1b7e638a4cbf2f02089,689b82de0faf5a9761c36015,,,,,,,,,,,,,33,1,,./stim/wavs/cuban_mismatch_interrogative-total-yn_Mi-novio-viene-del-lago.wav,,,,,,,,,,,,,,,,,,,,,,612.5633,614.8626,0,0,1.7681,,0,78,78,32,1,1,cuban,,,,,,,,,,,,,,,,,,,,,,,,,,,,,,,,,,,,,,,,,,,,,,,,,,,,,,,,
,,,,,,,,,65add0950cc74fc6024f5b6a,Mexican,13 or older,"no, only English or Spanish",yes,2025-08-12_14h10.43.010,empathy_intonation_perc,2024.2.4,MacIntel,59.88023952,65add0950cc74fc6024f5b6a,687ed1b7e638a4cbf2f02089,689b82de0faf5a9761c36015,,,,,,,,,,,,,20,1,,./stim/wavs/puertorican_match_interrogative-total-yn_Daniel-iba-a-Bolivia.wav,,,,,,,,,,,,,,,,,,,,,,614.8634,617.0628,1,1,1.6705,,0,79,79,19,1,1,puertorican,,,,,,,,,,,,,,,,,,,,,,,,,,,,,,,,,,,,,,,,,,,,,,,,,,,,,,,,
,,,,,,,,,65add0950cc74fc6024f5b6a,Mexican,13 or older,"no, only English or Spanish",yes,2025-08-12_14h10.43.010,empathy_intonation_perc,2024.2.4,MacIntel,59.88023952,65add0950cc74fc6024f5b6a,687ed1b7e638a4cbf2f02089,689b82de0faf5a9761c36015,,,,,,,,,,,,,52,0,,./stim/wavs/cuban_match_declarative-broad-focus_Daniel-iba-a-Bolivia.wav,,,,,,,,,,,,,,,,,,,,,,617.0634,619.2629,0,1,1.6783,,0,80,80,51,1,0,cuban,,,,,,,,,,,,,,,,,,,,,,,,,,,,,,,,,,,,,,,,,,,,,,,,,,,,,,,,
,,,,,,,,,65add0950cc74fc6024f5b6a,Mexican,13 or older,"no, only English or Spanish",yes,2025-08-12_14h10.43.010,empathy_intonation_perc,2024.2.4,MacIntel,59.88023952,65add0950cc74fc6024f5b6a,687ed1b7e638a4cbf2f02089,689b82de0faf5a9761c36015,,,,,,,,,,,,,85,0,,./stim/wavs/puertorican_mismatch_declarative-broad-focus_El-hombre-mira-la-luna.wav,,,,,,,,,,,,,,,,,,,,,,619.2635,621.312,0,1,1.5162,,0,81,81,84,1,0,puertorican,,,,,,,,,,,,,,,,,,,,,,,,,,,,,,,,,,,,,,,,,,,,,,,,,,,,,,,,
,,,,,,,,,65add0950cc74fc6024f5b6a,Mexican,13 or older,"no, only English or Spanish",yes,2025-08-12_14h10.43.010,empathy_intonation_perc,2024.2.4,MacIntel,59.88023952,65add0950cc74fc6024f5b6a,687ed1b7e638a4cbf2f02089,689b82de0faf5a9761c36015,,,,,,,,,,,,,49,0,,./stim/wavs/castilian_match_declarative-broad-focus_Mariano-habla-del-tiempo.wav,,,,,,,,,,,,,,,,,,,,,,621.3125,623.6629,0,1,1.8385,,0,82,82,48,1,0,castilian,,,,,,,,,,,,,,,,,,,,,,,,,,,,,,,,,,,,,,,,,,,,,,,,,,,,,,,,
,,,,,,,,,65add0950cc74fc6024f5b6a,Mexican,13 or older,"no, only English or Spanish",yes,2025-08-12_14h10.43.010,empathy_intonation_perc,2024.2.4,MacIntel,59.88023952,65add0950cc74fc6024f5b6a,687ed1b7e638a4cbf2f02089,689b82de0faf5a9761c36015,,,,,,,,,,,,,40,1,,./stim/wavs/puertorican_mismatch_interrogative-total-yn_El-hombre-mira-la-luna.wav,,,,,,,,,,,,,,,,,,,,,,623.6634,625.7954,1,1,1.6018,,0,83,83,39,1,1,puertorican,,,,,,,,,,,,,,,,,,,,,,,,,,,,,,,,,,,,,,,,,,,,,,,,,,,,,,,,
,,,,,,,,,65add0950cc74fc6024f5b6a,Mexican,13 or older,"no, only English or Spanish",yes,2025-08-12_14h10.43.010,empathy_intonation_perc,2024.2.4,MacIntel,59.88023952,65add0950cc74fc6024f5b6a,687ed1b7e638a4cbf2f02089,689b82de0faf5a9761c36015,,,,,,,,,,,,,37,1,,./stim/wavs/mexican_mismatch_interrogative-total-yn_La-maestra-vive-en-Paris.wav,,,,,,,,,,,,,,,,,,,,,,625.7961,628.1466,1,1,1.83,,0,84,84,36,1,0,mexican,,,,,,,,,,,,,,,,,,,,,,,,,,,,,,,,,,,,,,,,,,,,,,,,,,,,,,,,
,,,,,,,,,65add0950cc74fc6024f5b6a,Mexican,13 or older,"no, only English or Spanish",yes,2025-08-12_14h10.43.010,empathy_intonation_perc,2024.2.4,MacIntel,59.88023952,65add0950cc74fc6024f5b6a,687ed1b7e638a4cbf2f02089,689b82de0faf5a9761c36015,,,,,,,,,,,,,45,0,,./stim/wavs/castilian_match_declarative-broad-focus_David-leia-el-libro.wav,,,,,,,,,,,,,,,,,,,,,,628.1471,630.4798,0,1,1.8115,,0,85,85,44,1,0,castilian,,,,,,,,,,,,,,,,,,,,,,,,,,,,,,,,,,,,,,,,,,,,,,,,,,,,,,,,
,,,,,,,,,65add0950cc74fc6024f5b6a,Mexican,13 or older,"no, only English or Spanish",yes,2025-08-12_14h10.43.010,empathy_intonation_perc,2024.2.4,MacIntel,59.88023952,65add0950cc74fc6024f5b6a,687ed1b7e638a4cbf2f02089,689b82de0faf5a9761c36015,,,,,,,,,,,,,72,0,,./stim/wavs/castilian_mismatch_declarative-broad-focus_Mi-novio-viene-del-lago.wav,,,,,,,,,,,,,,,,,,,,,,630.4806,632.7465,0,1,1.74,,0,86,86,71,1,0,castilian,,,,,,,,,,,,,,,,,,,,,,,,,,,,,,,,,,,,,,,,,,,,,,,,,,,,,,,,
,,,,,,,,,65add0950cc74fc6024f5b6a,Mexican,13 or older,"no, only English or Spanish",yes,2025-08-12_14h10.43.010,empathy_intonation_perc,2024.2.4,MacIntel,59.88023952,65add0950cc74fc6024f5b6a,687ed1b7e638a4cbf2f02089,689b82de0faf5a9761c36015,,,,,,,,,,,,,47,0,,./stim/wavs/castilian_match_declarative-broad-focus_Manuela-vende-el-carro.wav,,,,,,,,,,,,,,,,,,,,,,632.7472,635.3302,0,1,2.0493,,0,87,87,46,1,0,castilian,,,,,,,,,,,,,,,,,,,,,,,,,,,,,,,,,,,,,,,,,,,,,,,,,,,,,,,,
,,,,,,,"Great! Now we will move on. The next task consists of about 60 trials, in each of which you will see a string of letters. 
  
  Your task is to decide whether this is a real Spanish word or not.", (press the spacebar to continue),65add0950cc74fc6024f5b6a,Mexican,13 or older,"no, only English or Spanish",yes,2025-08-12_14h10.43.010,empathy_intonation_perc,2024.2.4,MacIntel,59.88023952,65add0950cc74fc6024f5b6a,687ed1b7e638a4cbf2f02089,689b82de0faf5a9761c36015,,,,,,,,,,,,,,,,,,,,,,,,,,,,,,,,,,,,,,,,,,,,,,,,,,,635.3356,651.3142,0,0,0,0,1,,,,,,,,,,,,,,,,,,,,,,,,,,,,,,,,,,,,,,,,,,,,,,,,,
,,,,,,,"If you think it is an existing Spanish word, you type '1' (for 'REAL'), and if you think it is not an existing Spanish word, you type '0' (for 'FAKE').", (press the spacebar to continue),65add0950cc74fc6024f5b6a,Mexican,13 or older,"no, only English or Spanish",yes,2025-08-12_14h10.43.010,empathy_intonation_perc,2024.2.4,MacIntel,59.88023952,65add0950cc74fc6024f5b6a,687ed1b7e638a4cbf2f02089,689b82de0faf5a9761c36015,,,,,,,,,,,,,,,,,,,,,,,,,,,,,,,,,,,,,,,,,,,,,,,,,,,651.316,670.8477,0,1,1,1,1,,,,,,,,,,,,,,,,,,,,,,,,,,,,,,,,,,,,,,,,,,,,,,,,,
,,,,,,,"If you are sure that the word exists, even though you don’t know its exact meaning, you may still respond '1' (REAL). 
  
  But if you are not sure if it is an existing word, you should respond '0' (FAKE).
  
  Let's do a practice round...", (press the spacebar to continue),65add0950cc74fc6024f5b6a,Mexican,13 or older,"no, only English or Spanish",yes,2025-08-12_14h10.43.010,empathy_intonation_perc,2024.2.4,MacIntel,59.88023952,65add0950cc74fc6024f5b6a,687ed1b7e638a4cbf2f02089,689b82de0faf5a9761c36015,,,,,,,,,,,,,,,,,,,,,,,,,,,,,,,,,,,,,,,,,,,,,,,,,,,670.8498,675.4479,0,2,2,2,1,,,,,,,,,,,,,,,,,,,,,,,,,,,,,,,,,,,,,,,,,,,,,,,,,
,,,,,,,,,65add0950cc74fc6024f5b6a,Mexican,13 or older,"no, only English or Spanish",yes,2025-08-12_14h10.43.010,empathy_intonation_perc,2024.2.4,MacIntel,59.88023952,65add0950cc74fc6024f5b6a,687ed1b7e638a4cbf2f02089,689b82de0faf5a9761c36015,,,,,,,,,,,,,,0,,,,,,,,,,,,,,,,,,,,,,,,,,,,,,,,,,,,,,,,,,,,675.4554,678.3811,0,1,2.4045,,678.3814,679.3814,0,0,0,0,1,0,depiste,REAL,FAKE,,,,,,,,,,,,,,,,,,,,,,,,,,,,,,,,
,,,,,,,,,65add0950cc74fc6024f5b6a,Mexican,13 or older,"no, only English or Spanish",yes,2025-08-12_14h10.43.010,empathy_intonation_perc,2024.2.4,MacIntel,59.88023952,65add0950cc74fc6024f5b6a,687ed1b7e638a4cbf2f02089,689b82de0faf5a9761c36015,,,,,,,,,,,,,,1,,,,,,,,,,,,,,,,,,,,,,,,,,,,,,,,,,,,,,,,,,,,679.383,680.931,1,1,1.0191,,680.9311,681.9311,0,1,1,1,1,0,sí,REAL,FAKE,,,,,,,,,,,,,,,,,,,,,,,,,,,,,,,,
,,,,,,,,,65add0950cc74fc6024f5b6a,Mexican,13 or older,"no, only English or Spanish",yes,2025-08-12_14h10.43.010,empathy_intonation_perc,2024.2.4,MacIntel,59.88023952,65add0950cc74fc6024f5b6a,687ed1b7e638a4cbf2f02089,689b82de0faf5a9761c36015,,,,,,,,,,,,,,0,,,,,,,,,,,,,,,,,,,,,,,,,,,,,,,,,,,,,,,,,,,,681.9329,683.8478,1,0,1.3906,,683.8487,684.849,0,2,2,2,1,0,coné,REAL,FAKE,,,,,,,,,,,,,,,,,,,,,,,,,,,,,,,,
,,,,,,,,,65add0950cc74fc6024f5b6a,Mexican,13 or older,"no, only English or Spanish",yes,2025-08-12_14h10.43.010,empathy_intonation_perc,2024.2.4,MacIntel,59.88023952,65add0950cc74fc6024f5b6a,687ed1b7e638a4cbf2f02089,689b82de0faf5a9761c36015,,,,,,,,,,,,,,0,,,,,,,,,,,,,,,,,,,,,,,,,,,,,,,,,,,,,,,,,,,,684.8504,686.4478,1,0,1.073,,686.4478,687.448,0,3,3,3,1,0,calpar,REAL,FAKE,,,,,,,,,,,,,,,,,,,,,,,,,,,,,,,,
,,,,,,,,,65add0950cc74fc6024f5b6a,Mexican,13 or older,"no, only English or Spanish",yes,2025-08-12_14h10.43.010,empathy_intonation_perc,2024.2.4,MacIntel,59.88023952,65add0950cc74fc6024f5b6a,687ed1b7e638a4cbf2f02089,689b82de0faf5a9761c36015,,,,,,,,,,,,,,0,,,,,,,,,,,,,,,,,,,,,,,,,,,,,,,,,,,,,,,,,,,,687.4495,689.1646,0,1,1.1744,,689.1656,690.1647,0,4,4,4,1,0,joten,REAL,FAKE,,,,,,,,,,,,,,,,,,,,,,,,,,,,,,,,
,,,,,,,,,65add0950cc74fc6024f5b6a,Mexican,13 or older,"no, only English or Spanish",yes,2025-08-12_14h10.43.010,empathy_intonation_perc,2024.2.4,MacIntel,59.88023952,65add0950cc74fc6024f5b6a,687ed1b7e638a4cbf2f02089,689b82de0faf5a9761c36015,,,,,,,,,,,,,,1,,,,,,,,,,,,,,,,,,,,,,,,,,,,,,,,,,,,,,,,,,,,690.1661,692.5481,0,0,1.8495,,692.5491,693.5482,0,5,5,5,1,0,sacapuntas,REAL,FAKE,,,,,,,,,,,,,,,,,,,,,,,,,,,,,,,,
,,,,,,,,,65add0950cc74fc6024f5b6a,Mexican,13 or older,"no, only English or Spanish",yes,2025-08-12_14h10.43.010,empathy_intonation_perc,2024.2.4,MacIntel,59.88023952,65add0950cc74fc6024f5b6a,687ed1b7e638a4cbf2f02089,689b82de0faf5a9761c36015,,,,,,,,,,,,,,0,,,,,,,,,,,,,,,,,,,,,,,,,,,,,,,,,,,,,,,,,,,,693.5497,695.2981,1,0,1.2076,,695.2982,696.2981,0,6,6,6,1,0,priba,REAL,FAKE,,,,,,,,,,,,,,,,,,,,,,,,,,,,,,,,
,,,,,,,,,65add0950cc74fc6024f5b6a,Mexican,13 or older,"no, only English or Spanish",yes,2025-08-12_14h10.43.010,empathy_intonation_perc,2024.2.4,MacIntel,59.88023952,65add0950cc74fc6024f5b6a,687ed1b7e638a4cbf2f02089,689b82de0faf5a9761c36015,,,,,,,,,,,,,,0,,,,,,,,,,,,,,,,,,,,,,,,,,,,,,,,,,,,,,,,,,,,696.299,698.9323,0,1,2.1066,,698.9333,699.9318,0,7,7,7,1,0,pelasula,REAL,FAKE,,,,,,,,,,,,,,,,,,,,,,,,,,,,,,,,
,,,,,,,,,65add0950cc74fc6024f5b6a,Mexican,13 or older,"no, only English or Spanish",yes,2025-08-12_14h10.43.010,empathy_intonation_perc,2024.2.4,MacIntel,59.88023952,65add0950cc74fc6024f5b6a,687ed1b7e638a4cbf2f02089,689b82de0faf5a9761c36015,,,,,,,,,,,,,,1,,,,,,,,,,,,,,,,,,,,,,,,,,,,,,,,,,,,,,,,,,,,699.9333,701.365,1,1,0.8942,,701.365,702.3645,0,8,8,8,1,0,bien,REAL,FAKE,,,,,,,,,,,,,,,,,,,,,,,,,,,,,,,,
,,,,,,,,,65add0950cc74fc6024f5b6a,Mexican,13 or older,"no, only English or Spanish",yes,2025-08-12_14h10.43.010,empathy_intonation_perc,2024.2.4,MacIntel,59.88023952,65add0950cc74fc6024f5b6a,687ed1b7e638a4cbf2f02089,689b82de0faf5a9761c36015,,,,,,,,,,,,,,1,,,,,,,,,,,,,,,,,,,,,,,,,,,,,,,,,,,,,,,,,,,,702.3653,703.7815,1,1,0.891,,703.7815,704.7818,0,9,9,9,1,0,casa,REAL,FAKE,,,,,,,,,,,,,,,,,,,,,,,,,,,,,,,,
,,,,,,,,,65add0950cc74fc6024f5b6a,Mexican,13 or older,"no, only English or Spanish",yes,2025-08-12_14h10.43.010,empathy_intonation_perc,2024.2.4,MacIntel,59.88023952,65add0950cc74fc6024f5b6a,687ed1b7e638a4cbf2f02089,689b82de0faf5a9761c36015,,,,,,,,,,,,,,0,,,,,,,,,,,,,,,,,,,,,,,,,,,,,,,,,,,,,,,,,,,,704.7832,706.2983,1,0,0.9785,,706.299,707.2984,0,10,10,10,1,0,lejo,REAL,FAKE,,,,,,,,,,,,,,,,,,,,,,,,,,,,,,,,
,,,,,,,,,65add0950cc74fc6024f5b6a,Mexican,13 or older,"no, only English or Spanish",yes,2025-08-12_14h10.43.010,empathy_intonation_perc,2024.2.4,MacIntel,59.88023952,65add0950cc74fc6024f5b6a,687ed1b7e638a4cbf2f02089,689b82de0faf5a9761c36015,,,,,,,,,,,,,,0,,,,,,,,,,,,,,,,,,,,,,,,,,,,,,,,,,,,,,,,,,,,707.2995,709.2483,0,1,1.4114,,709.2492,710.2485,0,11,11,11,1,0,pretantas,REAL,FAKE,,,,,,,,,,,,,,,,,,,,,,,,,,,,,,,,
,,,,,,,,,65add0950cc74fc6024f5b6a,Mexican,13 or older,"no, only English or Spanish",yes,2025-08-12_14h10.43.010,empathy_intonation_perc,2024.2.4,MacIntel,59.88023952,65add0950cc74fc6024f5b6a,687ed1b7e638a4cbf2f02089,689b82de0faf5a9761c36015,,,,,,,,,,,,,,,,,,,,,,,,,,,,,,,,,,,,,,,,,,,,,,,,,,,,,,,,,,,,,,,,,,,,,,,,,,,710.249,715.1989,,,,,,,,,,,,,,,,,,,,,,,,,,,,,,
,,,,,,,,,65add0950cc74fc6024f5b6a,Mexican,13 or older,"no, only English or Spanish",yes,2025-08-12_14h10.43.010,empathy_intonation_perc,2024.2.4,MacIntel,59.88023952,65add0950cc74fc6024f5b6a,687ed1b7e638a4cbf2f02089,689b82de0faf5a9761c36015,,,,,,,,,,,,,,1,,,,,,,,,,,,,,,,,,,,,,,,,,,,,,,,,,,,,,,,,,,,,,,,,,,,,,,,,81,pozo,,,,,715.2083,717.3657,0,0,1.6285,,0,0,0,80,1,REAL,FAKE,,,,,,,,,,,,,,,,,
,,,,,,,,,65add0950cc74fc6024f5b6a,Mexican,13 or older,"no, only English or Spanish",yes,2025-08-12_14h10.43.010,empathy_intonation_perc,2024.2.4,MacIntel,59.88023952,65add0950cc74fc6024f5b6a,687ed1b7e638a4cbf2f02089,689b82de0faf5a9761c36015,,,,,,,,,,,,,,1,,,,,,,,,,,,,,,,,,,,,,,,,,,,,,,,,,,,,,,,,,,,,,,,,,,,,,,,,56,musgo,,,,,717.3672,719.3318,0,0,1.4311,,0,1,1,55,1,REAL,FAKE,,,,,,,,,,,,,,,,,
,,,,,,,,,65add0950cc74fc6024f5b6a,Mexican,13 or older,"no, only English or Spanish",yes,2025-08-12_14h10.43.010,empathy_intonation_perc,2024.2.4,MacIntel,59.88023952,65add0950cc74fc6024f5b6a,687ed1b7e638a4cbf2f02089,689b82de0faf5a9761c36015,,,,,,,,,,,,,,0,,,,,,,,,,,,,,,,,,,,,,,,,,,,,,,,,,,,,,,,,,,,,,,,,,,,,,,,,33,pauca,,,,,719.3323,721.4656,0,1,1.6124,,0,2,2,32,1,REAL,FAKE,,,,,,,,,,,,,,,,,
,,,,,,,,,65add0950cc74fc6024f5b6a,Mexican,13 or older,"no, only English or Spanish",yes,2025-08-12_14h10.43.010,empathy_intonation_perc,2024.2.4,MacIntel,59.88023952,65add0950cc74fc6024f5b6a,687ed1b7e638a4cbf2f02089,689b82de0faf5a9761c36015,,,,,,,,,,,,,,1,,,,,,,,,,,,,,,,,,,,,,,,,,,,,,,,,,,,,,,,,,,,,,,,,,,,,,,,,49,ganar,,,,,721.4667,722.8989,1,1,0.9019,,0,3,3,48,1,REAL,FAKE,,,,,,,,,,,,,,,,,
,,,,,,,,,65add0950cc74fc6024f5b6a,Mexican,13 or older,"no, only English or Spanish",yes,2025-08-12_14h10.43.010,empathy_intonation_perc,2024.2.4,MacIntel,59.88023952,65add0950cc74fc6024f5b6a,687ed1b7e638a4cbf2f02089,689b82de0faf5a9761c36015,,,,,,,,,,,,,,1,,,,,,,,,,,,,,,,,,,,,,,,,,,,,,,,,,,,,,,,,,,,,,,,,,,,,,,,,15,regar,,,,,722.8999,724.5981,1,1,1.1627,,0,4,4,14,1,REAL,FAKE,,,,,,,,,,,,,,,,,
,,,,,,,,,65add0950cc74fc6024f5b6a,Mexican,13 or older,"no, only English or Spanish",yes,2025-08-12_14h10.43.010,empathy_intonation_perc,2024.2.4,MacIntel,59.88023952,65add0950cc74fc6024f5b6a,687ed1b7e638a4cbf2f02089,689b82de0faf5a9761c36015,,,,,,,,,,,,,,1,,,,,,,,,,,,,,,,,,,,,,,,,,,,,,,,,,,,,,,,,,,,,,,,,,,,,,,,,68,alegre,,,,,724.5993,727.0822,0,0,1.96,,0,5,5,67,1,REAL,FAKE,,,,,,,,,,,,,,,,,
,,,,,,,,,65add0950cc74fc6024f5b6a,Mexican,13 or older,"no, only English or Spanish",yes,2025-08-12_14h10.43.010,empathy_intonation_perc,2024.2.4,MacIntel,59.88023952,65add0950cc74fc6024f5b6a,687ed1b7e638a4cbf2f02089,689b82de0faf5a9761c36015,,,,,,,,,,,,,,0,,,,,,,,,,,,,,,,,,,,,,,,,,,,,,,,,,,,,,,,,,,,,,,,,,,,,,,,,8,cadeña,,,,,727.0838,729.1492,1,0,1.5218,,0,6,6,7,1,REAL,FAKE,,,,,,,,,,,,,,,,,
,,,,,,,,,65add0950cc74fc6024f5b6a,Mexican,13 or older,"no, only English or Spanish",yes,2025-08-12_14h10.43.010,empathy_intonation_perc,2024.2.4,MacIntel,59.88023952,65add0950cc74fc6024f5b6a,687ed1b7e638a4cbf2f02089,689b82de0faf5a9761c36015,,,,,,,,,,,,,,1,,,,,,,,,,,,,,,,,,,,,,,,,,,,,,,,,,,,,,,,,,,,,,,,,,,,,,,,,75,yacer,,,,,729.1505,731.3991,0,0,1.7111,,0,7,7,74,1,REAL,FAKE,,,,,,,,,,,,,,,,,
,,,,,,,,,65add0950cc74fc6024f5b6a,Mexican,13 or older,"no, only English or Spanish",yes,2025-08-12_14h10.43.010,empathy_intonation_perc,2024.2.4,MacIntel,59.88023952,65add0950cc74fc6024f5b6a,687ed1b7e638a4cbf2f02089,689b82de0faf5a9761c36015,,,,,,,,,,,,,,1,,,,,,,,,,,,,,,,,,,,,,,,,,,,,,,,,,,,,,,,,,,,,,,,,,,,,,,,,54,fomentar,,,,,731.4003,734.6159,1,1,2.675,,0,8,8,53,1,REAL,FAKE,,,,,,,,,,,,,,,,,
,,,,,,,,,65add0950cc74fc6024f5b6a,Mexican,13 or older,"no, only English or Spanish",yes,2025-08-12_14h10.43.010,empathy_intonation_perc,2024.2.4,MacIntel,59.88023952,65add0950cc74fc6024f5b6a,687ed1b7e638a4cbf2f02089,689b82de0faf5a9761c36015,,,,,,,,,,,,,,0,,,,,,,,,,,,,,,,,,,,,,,,,,,,,,,,,,,,,,,,,,,,,,,,,,,,,,,,,29,decar,,,,,734.6169,737.3659,1,0,2.2077,,0,9,9,28,1,REAL,FAKE,,,,,,,,,,,,,,,,,
,,,,,,,,,65add0950cc74fc6024f5b6a,Mexican,13 or older,"no, only English or Spanish",yes,2025-08-12_14h10.43.010,empathy_intonation_perc,2024.2.4,MacIntel,59.88023952,65add0950cc74fc6024f5b6a,687ed1b7e638a4cbf2f02089,689b82de0faf5a9761c36015,,,,,,,,,,,,,,1,,,,,,,,,,,,,,,,,,,,,,,,,,,,,,,,,,,,,,,,,,,,,,,,,,,,,,,,,31,pandilla,,,,,737.3672,740.2328,1,1,2.3298,,0,10,10,30,1,REAL,FAKE,,,,,,,,,,,,,,,,,
,,,,,,,,,65add0950cc74fc6024f5b6a,Mexican,13 or older,"no, only English or Spanish",yes,2025-08-12_14h10.43.010,empathy_intonation_perc,2024.2.4,MacIntel,59.88023952,65add0950cc74fc6024f5b6a,687ed1b7e638a4cbf2f02089,689b82de0faf5a9761c36015,,,,,,,,,,,,,,0,,,,,,,,,,,,,,,,,,,,,,,,,,,,,,,,,,,,,,,,,,,,,,,,,,,,,,,,,35,rompido,,,,,740.2341,742.916,1,0,2.1415,,0,11,11,34,1,REAL,FAKE,,,,,,,,,,,,,,,,,
,,,,,,,,,65add0950cc74fc6024f5b6a,Mexican,13 or older,"no, only English or Spanish",yes,2025-08-12_14h10.43.010,empathy_intonation_perc,2024.2.4,MacIntel,59.88023952,65add0950cc74fc6024f5b6a,687ed1b7e638a4cbf2f02089,689b82de0faf5a9761c36015,,,,,,,,,,,,,,1,,,,,,,,,,,,,,,,,,,,,,,,,,,,,,,,,,,,,,,,,,,,,,,,,,,,,,,,,39,torpe,,,,,742.9173,744.7984,0,0,1.3448,,0,12,12,38,1,REAL,FAKE,,,,,,,,,,,,,,,,,
,,,,,,,,,65add0950cc74fc6024f5b6a,Mexican,13 or older,"no, only English or Spanish",yes,2025-08-12_14h10.43.010,empathy_intonation_perc,2024.2.4,MacIntel,59.88023952,65add0950cc74fc6024f5b6a,687ed1b7e638a4cbf2f02089,689b82de0faf5a9761c36015,,,,,,,,,,,,,,1,,,,,,,,,,,,,,,,,,,,,,,,,,,,,,,,,,,,,,,,,,,,,,,,,,,,,,,,,73,hervidor,,,,,744.7995,747.083,0,0,1.7558,,0,13,13,72,1,REAL,FAKE,,,,,,,,,,,,,,,,,
,,,,,,,,,65add0950cc74fc6024f5b6a,Mexican,13 or older,"no, only English or Spanish",yes,2025-08-12_14h10.43.010,empathy_intonation_perc,2024.2.4,MacIntel,59.88023952,65add0950cc74fc6024f5b6a,687ed1b7e638a4cbf2f02089,689b82de0faf5a9761c36015,,,,,,,,,,,,,,1,,,,,,,,,,,,,,,,,,,,,,,,,,,,,,,,,,,,,,,,,,,,,,,,,,,,,,,,,5,zapato,,,,,747.0843,748.6495,1,1,1.0283,,0,14,14,4,1,REAL,FAKE,,,,,,,,,,,,,,,,,
,,,,,,,,,65add0950cc74fc6024f5b6a,Mexican,13 or older,"no, only English or Spanish",yes,2025-08-12_14h10.43.010,empathy_intonation_perc,2024.2.4,MacIntel,59.88023952,65add0950cc74fc6024f5b6a,687ed1b7e638a4cbf2f02089,689b82de0faf5a9761c36015,,,,,,,,,,,,,,0,,,,,,,,,,,,,,,,,,,,,,,,,,,,,,,,,,,,,,,,,,,,,,,,,,,,,,,,,72,pemición,,,,,748.6509,751.1151,0,1,1.9291,,0,15,15,71,1,REAL,FAKE,,,,,,,,,,,,,,,,,
,,,,,,,,,65add0950cc74fc6024f5b6a,Mexican,13 or older,"no, only English or Spanish",yes,2025-08-12_14h10.43.010,empathy_intonation_perc,2024.2.4,MacIntel,59.88023952,65add0950cc74fc6024f5b6a,687ed1b7e638a4cbf2f02089,689b82de0faf5a9761c36015,,,,,,,,,,,,,,0,,,,,,,,,,,,,,,,,,,,,,,,,,,,,,,,,,,,,,,,,,,,,,,,,,,,,,,,,21,capillo,,,,,751.1162,753.5496,1,0,1.9198,,0,16,16,20,1,REAL,FAKE,,,,,,,,,,,,,,,,,
,,,,,,,,,65add0950cc74fc6024f5b6a,Mexican,13 or older,"no, only English or Spanish",yes,2025-08-12_14h10.43.010,empathy_intonation_perc,2024.2.4,MacIntel,59.88023952,65add0950cc74fc6024f5b6a,687ed1b7e638a4cbf2f02089,689b82de0faf5a9761c36015,,,,,,,,,,,,,,0,,,,,,,,,,,,,,,,,,,,,,,,,,,,,,,,,,,,,,,,,,,,,,,,,,,,,,,,,58,plaudir,,,,,753.5505,755.8821,0,1,1.7912,,0,17,17,57,1,REAL,FAKE,,,,,,,,,,,,,,,,,
,,,,,,,,,65add0950cc74fc6024f5b6a,Mexican,13 or older,"no, only English or Spanish",yes,2025-08-12_14h10.43.010,empathy_intonation_perc,2024.2.4,MacIntel,59.88023952,65add0950cc74fc6024f5b6a,687ed1b7e638a4cbf2f02089,689b82de0faf5a9761c36015,,,,,,,,,,,,,,0,,,,,,,,,,,,,,,,,,,,,,,,,,,,,,,,,,,,,,,,,,,,,,,,,,,,,,,,,82,empirador,,,,,755.8831,758.4831,1,0,2.0804,,0,18,18,81,1,REAL,FAKE,,,,,,,,,,,,,,,,,
,,,,,,,,,65add0950cc74fc6024f5b6a,Mexican,13 or older,"no, only English or Spanish",yes,2025-08-12_14h10.43.010,empathy_intonation_perc,2024.2.4,MacIntel,59.88023952,65add0950cc74fc6024f5b6a,687ed1b7e638a4cbf2f02089,689b82de0faf5a9761c36015,,,,,,,,,,,,,,0,,,,,,,,,,,,,,,,,,,,,,,,,,,,,,,,,,,,,,,,,,,,,,,,,,,,,,,,,63,esposante,,,,,758.4845,761.4499,0,1,2.4275,,0,19,19,62,1,REAL,FAKE,,,,,,,,,,,,,,,,,
,,,,,,,,,65add0950cc74fc6024f5b6a,Mexican,13 or older,"no, only English or Spanish",yes,2025-08-12_14h10.43.010,empathy_intonation_perc,2024.2.4,MacIntel,59.88023952,65add0950cc74fc6024f5b6a,687ed1b7e638a4cbf2f02089,689b82de0faf5a9761c36015,,,,,,,,,,,,,,0,,,,,,,,,,,,,,,,,,,,,,,,,,,,,,,,,,,,,,,,,,,,,,,,,,,,,,,,,1,terzo,,,,,761.4512,763.6331,0,1,1.6465,,0,20,20,0,1,REAL,FAKE,,,,,,,,,,,,,,,,,
,,,,,,,,,65add0950cc74fc6024f5b6a,Mexican,13 or older,"no, only English or Spanish",yes,2025-08-12_14h10.43.010,empathy_intonation_perc,2024.2.4,MacIntel,59.88023952,65add0950cc74fc6024f5b6a,687ed1b7e638a4cbf2f02089,689b82de0faf5a9761c36015,,,,,,,,,,,,,,1,,,,,,,,,,,,,,,,,,,,,,,,,,,,,,,,,,,,,,,,,,,,,,,,,,,,,,,,,85,laúd,,,,,763.6344,765.799,0,0,1.6235,,0,21,21,84,1,REAL,FAKE,,,,,,,,,,,,,,,,,
,,,,,,,,,65add0950cc74fc6024f5b6a,Mexican,13 or older,"no, only English or Spanish",yes,2025-08-12_14h10.43.010,empathy_intonation_perc,2024.2.4,MacIntel,59.88023952,65add0950cc74fc6024f5b6a,687ed1b7e638a4cbf2f02089,689b82de0faf5a9761c36015,,,,,,,,,,,,,,0,,,,,,,,,,,,,,,,,,,,,,,,,,,,,,,,,,,,,,,,,,,,,,,,,,,,,,,,,74,cintro,,,,,765.8002,767.8491,1,0,1.5143,,0,22,22,73,1,REAL,FAKE,,,,,,,,,,,,,,,,,
,,,,,,,,,65add0950cc74fc6024f5b6a,Mexican,13 or older,"no, only English or Spanish",yes,2025-08-12_14h10.43.010,empathy_intonation_perc,2024.2.4,MacIntel,59.88023952,65add0950cc74fc6024f5b6a,687ed1b7e638a4cbf2f02089,689b82de0faf5a9761c36015,,,,,,,,,,,,,,0,,,,,,,,,,,,,,,,,,,,,,,,,,,,,,,,,,,,,,,,,,,,,,,,,,,,,,,,,23,lampera,,,,,767.85,769.9335,1,0,1.5642,,0,23,23,22,1,REAL,FAKE,,,,,,,,,,,,,,,,,
,,,,,,,,,65add0950cc74fc6024f5b6a,Mexican,13 or older,"no, only English or Spanish",yes,2025-08-12_14h10.43.010,empathy_intonation_perc,2024.2.4,MacIntel,59.88023952,65add0950cc74fc6024f5b6a,687ed1b7e638a4cbf2f02089,689b82de0faf5a9761c36015,,,,,,,,,,,,,,1,,,,,,,,,,,,,,,,,,,,,,,,,,,,,,,,,,,,,,,,,,,,,,,,,,,,,,,,,24,látigo,,,,,769.9349,772.2168,0,0,1.7428,,0,24,24,23,1,REAL,FAKE,,,,,,,,,,,,,,,,,
,,,,,,,,,65add0950cc74fc6024f5b6a,Mexican,13 or older,"no, only English or Spanish",yes,2025-08-12_14h10.43.010,empathy_intonation_perc,2024.2.4,MacIntel,59.88023952,65add0950cc74fc6024f5b6a,687ed1b7e638a4cbf2f02089,689b82de0faf5a9761c36015,,,,,,,,,,,,,,0,,,,,,,,,,,,,,,,,,,,,,,,,,,,,,,,,,,,,,,,,,,,,,,,,,,,,,,,,53,vegada,,,,,772.218,774.467,1,0,1.708,,0,25,25,52,1,REAL,FAKE,,,,,,,,,,,,,,,,,
,,,,,,,,,65add0950cc74fc6024f5b6a,Mexican,13 or older,"no, only English or Spanish",yes,2025-08-12_14h10.43.010,empathy_intonation_perc,2024.2.4,MacIntel,59.88023952,65add0950cc74fc6024f5b6a,687ed1b7e638a4cbf2f02089,689b82de0faf5a9761c36015,,,,,,,,,,,,,,1,,,,,,,,,,,,,,,,,,,,,,,,,,,,,,,,,,,,,,,,,,,,,,,,,,,,,,,,,78,frondoso,,,,,774.4684,776.5158,0,0,1.5108,,0,26,26,77,1,REAL,FAKE,,,,,,,,,,,,,,,,,
,,,,,,,,,65add0950cc74fc6024f5b6a,Mexican,13 or older,"no, only English or Spanish",yes,2025-08-12_14h10.43.010,empathy_intonation_perc,2024.2.4,MacIntel,59.88023952,65add0950cc74fc6024f5b6a,687ed1b7e638a4cbf2f02089,689b82de0faf5a9761c36015,,,,,,,,,,,,,,1,,,,,,,,,,,,,,,,,,,,,,,,,,,,,,,,,,,,,,,,,,,,,,,,,,,,,,,,,14,yunque,,,,,776.5168,778.4336,0,0,1.3946,,0,27,27,13,1,REAL,FAKE,,,,,,,,,,,,,,,,,
,,,,,,,,,65add0950cc74fc6024f5b6a,Mexican,13 or older,"no, only English or Spanish",yes,2025-08-12_14h10.43.010,empathy_intonation_perc,2024.2.4,MacIntel,59.88023952,65add0950cc74fc6024f5b6a,687ed1b7e638a4cbf2f02089,689b82de0faf5a9761c36015,,,,,,,,,,,,,,0,,,,,,,,,,,,,,,,,,,,,,,,,,,,,,,,,,,,,,,,,,,,,,,,,,,,,,,,,87,grodo,,,,,778.4348,780.1993,1,0,1.228,,0,28,28,86,1,REAL,FAKE,,,,,,,,,,,,,,,,,
,,,,,,,,,65add0950cc74fc6024f5b6a,Mexican,13 or older,"no, only English or Spanish",yes,2025-08-12_14h10.43.010,empathy_intonation_perc,2024.2.4,MacIntel,59.88023952,65add0950cc74fc6024f5b6a,687ed1b7e638a4cbf2f02089,689b82de0faf5a9761c36015,,,,,,,,,,,,,,1,,,,,,,,,,,,,,,,,,,,,,,,,,,,,,,,,,,,,,,,,,,,,,,,,,,,,,,,,52,camisa,,,,,780.2002,781.7007,1,1,0.9899,,0,29,29,51,1,REAL,FAKE,,,,,,,,,,,,,,,,,
,,,,,,,,,65add0950cc74fc6024f5b6a,Mexican,13 or older,"no, only English or Spanish",yes,2025-08-12_14h10.43.010,empathy_intonation_perc,2024.2.4,MacIntel,59.88023952,65add0950cc74fc6024f5b6a,687ed1b7e638a4cbf2f02089,689b82de0faf5a9761c36015,,,,,,,,,,,,,,1,,,,,,,,,,,,,,,,,,,,,,,,,,,,,,,,,,,,,,,,,,,,,,,,,,,,,,,,,25,bisagra,,,,,781.7018,783.5661,0,0,1.334,,0,30,30,24,1,REAL,FAKE,,,,,,,,,,,,,,,,,
,,,,,,,,,65add0950cc74fc6024f5b6a,Mexican,13 or older,"no, only English or Spanish",yes,2025-08-12_14h10.43.010,empathy_intonation_perc,2024.2.4,MacIntel,59.88023952,65add0950cc74fc6024f5b6a,687ed1b7e638a4cbf2f02089,689b82de0faf5a9761c36015,,,,,,,,,,,,,,1,,,,,,,,,,,,,,,,,,,,,,,,,,,,,,,,,,,,,,,,,,,,,,,,,,,,,,,,,11,cenefa,,,,,783.5674,785.9669,0,0,1.8725,,0,31,31,10,1,REAL,FAKE,,,,,,,,,,,,,,,,,
,,,,,,,,,65add0950cc74fc6024f5b6a,Mexican,13 or older,"no, only English or Spanish",yes,2025-08-12_14h10.43.010,empathy_intonation_perc,2024.2.4,MacIntel,59.88023952,65add0950cc74fc6024f5b6a,687ed1b7e638a4cbf2f02089,689b82de0faf5a9761c36015,,,,,,,,,,,,,,1,,,,,,,,,,,,,,,,,,,,,,,,,,,,,,,,,,,,,,,,,,,,,,,,,,,,,,,,,55,nevar,,,,,785.9678,787.6005,1,1,1.0941,,0,32,32,54,1,REAL,FAKE,,,,,,,,,,,,,,,,,
,,,,,,,,,65add0950cc74fc6024f5b6a,Mexican,13 or older,"no, only English or Spanish",yes,2025-08-12_14h10.43.010,empathy_intonation_perc,2024.2.4,MacIntel,59.88023952,65add0950cc74fc6024f5b6a,687ed1b7e638a4cbf2f02089,689b82de0faf5a9761c36015,,,,,,,,,,,,,,1,,,,,,,,,,,,,,,,,,,,,,,,,,,,,,,,,,,,,,,,,,,,,,,,,,,,,,,,,61,seda,,,,,787.6017,789.6495,0,0,1.5178,,0,33,33,60,1,REAL,FAKE,,,,,,,,,,,,,,,,,
,,,,,,,,,65add0950cc74fc6024f5b6a,Mexican,13 or older,"no, only English or Spanish",yes,2025-08-12_14h10.43.010,empathy_intonation_perc,2024.2.4,MacIntel,59.88023952,65add0950cc74fc6024f5b6a,687ed1b7e638a4cbf2f02089,689b82de0faf5a9761c36015,,,,,,,,,,,,,,1,,,,,,,,,,,,,,,,,,,,,,,,,,,,,,,,,,,,,,,,,,,,,,,,,,,,,,,,,67,cabello,,,,,789.6505,791.183,1,1,1.0067,,0,34,34,66,1,REAL,FAKE,,,,,,,,,,,,,,,,,
,,,,,,,,,65add0950cc74fc6024f5b6a,Mexican,13 or older,"no, only English or Spanish",yes,2025-08-12_14h10.43.010,empathy_intonation_perc,2024.2.4,MacIntel,59.88023952,65add0950cc74fc6024f5b6a,687ed1b7e638a4cbf2f02089,689b82de0faf5a9761c36015,,,,,,,,,,,,,,1,,,,,,,,,,,,,,,,,,,,,,,,,,,,,,,,,,,,,,,,,,,,,,,,,,,,,,,,,36,loro,,,,,791.1839,793.1678,0,0,1.476,,0,35,35,35,1,REAL,FAKE,,,,,,,,,,,,,,,,,
,,,,,,,,,65add0950cc74fc6024f5b6a,Mexican,13 or older,"no, only English or Spanish",yes,2025-08-12_14h10.43.010,empathy_intonation_perc,2024.2.4,MacIntel,59.88023952,65add0950cc74fc6024f5b6a,687ed1b7e638a4cbf2f02089,689b82de0faf5a9761c36015,,,,,,,,,,,,,,0,,,,,,,,,,,,,,,,,,,,,,,,,,,,,,,,,,,,,,,,,,,,,,,,,,,,,,,,,30,alardio,,,,,793.1692,795.6341,0,1,1.9319,,0,36,36,29,1,REAL,FAKE,,,,,,,,,,,,,,,,,
,,,,,,,,,65add0950cc74fc6024f5b6a,Mexican,13 or older,"no, only English or Spanish",yes,2025-08-12_14h10.43.010,empathy_intonation_perc,2024.2.4,MacIntel,59.88023952,65add0950cc74fc6024f5b6a,687ed1b7e638a4cbf2f02089,689b82de0faf5a9761c36015,,,,,,,,,,,,,,1,,,,,,,,,,,,,,,,,,,,,,,,,,,,,,,,,,,,,,,,,,,,,,,,,,,,,,,,,40,alfombra,,,,,795.6353,797.3006,1,1,1.1242,,0,37,37,39,1,REAL,FAKE,,,,,,,,,,,,,,,,,
,,,,,,,,,65add0950cc74fc6024f5b6a,Mexican,13 or older,"no, only English or Spanish",yes,2025-08-12_14h10.43.010,empathy_intonation_perc,2024.2.4,MacIntel,59.88023952,65add0950cc74fc6024f5b6a,687ed1b7e638a4cbf2f02089,689b82de0faf5a9761c36015,,,,,,,,,,,,,,1,,,,,,,,,,,,,,,,,,,,,,,,,,,,,,,,,,,,,,,,,,,,,,,,,,,,,,,,,71,polvoriento,,,,,797.3014,799.1341,0,0,1.303,,0,38,38,70,1,REAL,FAKE,,,,,,,,,,,,,,,,,
,,,,,,,,,65add0950cc74fc6024f5b6a,Mexican,13 or older,"no, only English or Spanish",yes,2025-08-12_14h10.43.010,empathy_intonation_perc,2024.2.4,MacIntel,59.88023952,65add0950cc74fc6024f5b6a,687ed1b7e638a4cbf2f02089,689b82de0faf5a9761c36015,,,,,,,,,,,,,,1,,,,,,,,,,,,,,,,,,,,,,,,,,,,,,,,,,,,,,,,,,,,,,,,,,,,,,,,,64,orgulloso,,,,,799.1352,801.3341,0,0,1.6711,,0,39,39,63,1,REAL,FAKE,,,,,,,,,,,,,,,,,
,,,,,,,,,65add0950cc74fc6024f5b6a,Mexican,13 or older,"no, only English or Spanish",yes,2025-08-12_14h10.43.010,empathy_intonation_perc,2024.2.4,MacIntel,59.88023952,65add0950cc74fc6024f5b6a,687ed1b7e638a4cbf2f02089,689b82de0faf5a9761c36015,,,,,,,,,,,,,,1,,,,,,,,,,,,,,,,,,,,,,,,,,,,,,,,,,,,,,,,,,,,,,,,,,,,,,,,,9,hacha,,,,,801.335,803.6509,0,0,1.7777,,0,40,40,8,1,REAL,FAKE,,,,,,,,,,,,,,,,,
,,,,,,,,,65add0950cc74fc6024f5b6a,Mexican,13 or older,"no, only English or Spanish",yes,2025-08-12_14h10.43.010,empathy_intonation_perc,2024.2.4,MacIntel,59.88023952,65add0950cc74fc6024f5b6a,687ed1b7e638a4cbf2f02089,689b82de0faf5a9761c36015,,,,,,,,,,,,,,1,,,,,,,,,,,,,,,,,,,,,,,,,,,,,,,,,,,,,,,,,,,,,,,,,,,,,,,,,43,canela,,,,,803.6522,806.0844,0,0,1.8902,,0,41,41,42,1,REAL,FAKE,,,,,,,,,,,,,,,,,
,,,,,,,,,65add0950cc74fc6024f5b6a,Mexican,13 or older,"no, only English or Spanish",yes,2025-08-12_14h10.43.010,empathy_intonation_perc,2024.2.4,MacIntel,59.88023952,65add0950cc74fc6024f5b6a,687ed1b7e638a4cbf2f02089,689b82de0faf5a9761c36015,,,,,,,,,,,,,,0,,,,,,,,,,,,,,,,,,,,,,,,,,,,,,,,,,,,,,,,,,,,,,,,,,,,,,,,,27,acutación,,,,,806.0858,809.2846,0,1,2.6648,,0,42,42,26,1,REAL,FAKE,,,,,,,,,,,,,,,,,
,,,,,,,,,65add0950cc74fc6024f5b6a,Mexican,13 or older,"no, only English or Spanish",yes,2025-08-12_14h10.43.010,empathy_intonation_perc,2024.2.4,MacIntel,59.88023952,65add0950cc74fc6024f5b6a,687ed1b7e638a4cbf2f02089,689b82de0faf5a9761c36015,,,,,,,,,,,,,,1,,,,,,,,,,,,,,,,,,,,,,,,,,,,,,,,,,,,,,,,,,,,,,,,,,,,,,,,,3,pulmones,,,,,809.286,811.1845,1,1,1.3565,,0,43,43,2,1,REAL,FAKE,,,,,,,,,,,,,,,,,
,,,,,,,,,65add0950cc74fc6024f5b6a,Mexican,13 or older,"no, only English or Spanish",yes,2025-08-12_14h10.43.010,empathy_intonation_perc,2024.2.4,MacIntel,59.88023952,65add0950cc74fc6024f5b6a,687ed1b7e638a4cbf2f02089,689b82de0faf5a9761c36015,,,,,,,,,,,,,,0,,,,,,,,,,,,,,,,,,,,,,,,,,,,,,,,,,,,,,,,,,,,,,,,,,,,,,,,,42,cadallo,,,,,811.1857,813.0003,1,0,1.2784,,0,44,44,41,1,REAL,FAKE,,,,,,,,,,,,,,,,,
,,,,,,,,,65add0950cc74fc6024f5b6a,Mexican,13 or older,"no, only English or Spanish",yes,2025-08-12_14h10.43.010,empathy_intonation_perc,2024.2.4,MacIntel,59.88023952,65add0950cc74fc6024f5b6a,687ed1b7e638a4cbf2f02089,689b82de0faf5a9761c36015,,,,,,,,,,,,,,1,,,,,,,,,,,,,,,,,,,,,,,,,,,,,,,,,,,,,,,,,,,,,,,,,,,,,,,,,89,prisa,,,,,813.0012,814.9346,0,0,1.4095,,0,45,45,88,1,REAL,FAKE,,,,,,,,,,,,,,,,,
,,,,,,,,,65add0950cc74fc6024f5b6a,Mexican,13 or older,"no, only English or Spanish",yes,2025-08-12_14h10.43.010,empathy_intonation_perc,2024.2.4,MacIntel,59.88023952,65add0950cc74fc6024f5b6a,687ed1b7e638a4cbf2f02089,689b82de0faf5a9761c36015,,,,,,,,,,,,,,1,,,,,,,,,,,,,,,,,,,,,,,,,,,,,,,,,,,,,,,,,,,,,,,,,,,,,,,,,46,martillo,,,,,814.9358,817.2348,1,1,1.7628,,0,46,46,45,1,REAL,FAKE,,,,,,,,,,,,,,,,,
,,,,,,,,,65add0950cc74fc6024f5b6a,Mexican,13 or older,"no, only English or Spanish",yes,2025-08-12_14h10.43.010,empathy_intonation_perc,2024.2.4,MacIntel,59.88023952,65add0950cc74fc6024f5b6a,687ed1b7e638a4cbf2f02089,689b82de0faf5a9761c36015,,,,,,,,,,,,,,0,,,,,,,,,,,,,,,,,,,,,,,,,,,,,,,,,,,,,,,,,,,,,,,,,,,,,,,,,16,abracer,,,,,817.236,819.7683,0,1,2.0078,,0,47,47,15,1,REAL,FAKE,,,,,,,,,,,,,,,,,
,,,,,,,,,65add0950cc74fc6024f5b6a,Mexican,13 or older,"no, only English or Spanish",yes,2025-08-12_14h10.43.010,empathy_intonation_perc,2024.2.4,MacIntel,59.88023952,65add0950cc74fc6024f5b6a,687ed1b7e638a4cbf2f02089,689b82de0faf5a9761c36015,,,,,,,,,,,,,,0,,,,,,,,,,,,,,,,,,,,,,,,,,,,,,,,,,,,,,,,,,,,,,,,,,,,,,,,,32,fatacidad,,,,,819.7697,822.3016,0,1,2.0066,,0,48,48,31,1,REAL,FAKE,,,,,,,,,,,,,,,,,
,,,,,,,,,65add0950cc74fc6024f5b6a,Mexican,13 or older,"no, only English or Spanish",yes,2025-08-12_14h10.43.010,empathy_intonation_perc,2024.2.4,MacIntel,59.88023952,65add0950cc74fc6024f5b6a,687ed1b7e638a4cbf2f02089,689b82de0faf5a9761c36015,,,,,,,,,,,,,,1,,,,,,,,,,,,,,,,,,,,,,,,,,,,,,,,,,,,,,,,,,,,,,,,,,,,,,,,,90,clavel,,,,,822.3025,824.4839,0,0,1.6407,,0,49,49,89,1,REAL,FAKE,,,,,,,,,,,,,,,,,
,,,,,,,,,65add0950cc74fc6024f5b6a,Mexican,13 or older,"no, only English or Spanish",yes,2025-08-12_14h10.43.010,empathy_intonation_perc,2024.2.4,MacIntel,59.88023952,65add0950cc74fc6024f5b6a,687ed1b7e638a4cbf2f02089,689b82de0faf5a9761c36015,,,,,,,,,,,,,,1,,,,,,,,,,,,,,,,,,,,,,,,,,,,,,,,,,,,,,,,,,,,,,,,,,,,,,,,,7,pésimo,,,,,824.485,826.4013,1,1,1.373,,0,50,50,6,1,REAL,FAKE,,,,,,,,,,,,,,,,,
,,,,,,,,,65add0950cc74fc6024f5b6a,Mexican,13 or older,"no, only English or Spanish",yes,2025-08-12_14h10.43.010,empathy_intonation_perc,2024.2.4,MacIntel,59.88023952,65add0950cc74fc6024f5b6a,687ed1b7e638a4cbf2f02089,689b82de0faf5a9761c36015,,,,,,,,,,,,,,1,,,,,,,,,,,,,,,,,,,,,,,,,,,,,,,,,,,,,,,,,,,,,,,,,,,,,,,,,28,merodear,,,,,826.4021,828.6837,0,0,1.7407,,0,51,51,27,1,REAL,FAKE,,,,,,,,,,,,,,,,,
,,,,,,,,,65add0950cc74fc6024f5b6a,Mexican,13 or older,"no, only English or Spanish",yes,2025-08-12_14h10.43.010,empathy_intonation_perc,2024.2.4,MacIntel,59.88023952,65add0950cc74fc6024f5b6a,687ed1b7e638a4cbf2f02089,689b82de0faf5a9761c36015,,,,,,,,,,,,,,1,,,,,,,,,,,,,,,,,,,,,,,,,,,,,,,,,,,,,,,,,,,,,,,,,,,,,,,,,20,ávido,,,,,828.6844,830.6182,1,1,1.4114,,0,52,52,19,1,REAL,FAKE,,,,,,,,,,,,,,,,,
,,,,,,,,,65add0950cc74fc6024f5b6a,Mexican,13 or older,"no, only English or Spanish",yes,2025-08-12_14h10.43.010,empathy_intonation_perc,2024.2.4,MacIntel,59.88023952,65add0950cc74fc6024f5b6a,687ed1b7e638a4cbf2f02089,689b82de0faf5a9761c36015,,,,,,,,,,,,,,1,,,,,,,,,,,,,,,,,,,,,,,,,,,,,,,,,,,,,,,,,,,,,,,,,,,,,,,,,34,aviso,,,,,830.6196,832.2683,1,1,1.1081,,0,53,53,33,1,REAL,FAKE,,,,,,,,,,,,,,,,,
,,,,,,,,,65add0950cc74fc6024f5b6a,Mexican,13 or older,"no, only English or Spanish",yes,2025-08-12_14h10.43.010,empathy_intonation_perc,2024.2.4,MacIntel,59.88023952,65add0950cc74fc6024f5b6a,687ed1b7e638a4cbf2f02089,689b82de0faf5a9761c36015,,,,,,,,,,,,,,1,,,,,,,,,,,,,,,,,,,,,,,,,,,,,,,,,,,,,,,,,,,,,,,,,,,,,,,,,51,candado,,,,,832.2695,834.1184,1,1,1.309,,0,54,54,50,1,REAL,FAKE,,,,,,,,,,,,,,,,,
,,,,,,,,,65add0950cc74fc6024f5b6a,Mexican,13 or older,"no, only English or Spanish",yes,2025-08-12_14h10.43.010,empathy_intonation_perc,2024.2.4,MacIntel,59.88023952,65add0950cc74fc6024f5b6a,687ed1b7e638a4cbf2f02089,689b82de0faf5a9761c36015,,,,,,,,,,,,,,1,,,,,,,,,,,,,,,,,,,,,,,,,,,,,,,,,,,,,,,,,,,,,,,,,,,,,,,,,59,besar,,,,,834.1197,835.9518,0,0,1.2944,,0,55,55,58,1,REAL,FAKE,,,,,,,,,,,,,,,,,
,,,,,,,,,65add0950cc74fc6024f5b6a,Mexican,13 or older,"no, only English or Spanish",yes,2025-08-12_14h10.43.010,empathy_intonation_perc,2024.2.4,MacIntel,59.88023952,65add0950cc74fc6024f5b6a,687ed1b7e638a4cbf2f02089,689b82de0faf5a9761c36015,,,,,,,,,,,,,,1,,,,,,,,,,,,,,,,,,,,,,,,,,,,,,,,,,,,,,,,,,,,,,,,,,,,,,,,,86,barato,,,,,835.9529,837.4525,1,1,0.9736,,0,56,56,85,1,REAL,FAKE,,,,,,,,,,,,,,,,,
,,,,,,,,,65add0950cc74fc6024f5b6a,Mexican,13 or older,"no, only English or Spanish",yes,2025-08-12_14h10.43.010,empathy_intonation_perc,2024.2.4,MacIntel,59.88023952,65add0950cc74fc6024f5b6a,687ed1b7e638a4cbf2f02089,689b82de0faf5a9761c36015,,,,,,,,,,,,,,1,,,,,,,,,,,,,,,,,,,,,,,,,,,,,,,,,,,,,,,,,,,,,,,,,,,,,,,,,38,estornudar,,,,,837.4538,840.3342,0,0,2.3434,,0,57,57,37,1,REAL,FAKE,,,,,,,,,,,,,,,,,
,,,,,,,,,65add0950cc74fc6024f5b6a,Mexican,13 or older,"no, only English or Spanish",yes,2025-08-12_14h10.43.010,empathy_intonation_perc,2024.2.4,MacIntel,59.88023952,65add0950cc74fc6024f5b6a,687ed1b7e638a4cbf2f02089,689b82de0faf5a9761c36015,,,,,,,,,,,,,,1,,,,,,,,,,,,,,,,,,,,,,,,,,,,,,,,,,,,,,,,,,,,,,,,,,,,,,,,,88,acantilado,,,,,840.3349,843.102,0,0,2.2407,,0,58,58,87,1,REAL,FAKE,,,,,,,,,,,,,,,,,
,,,,,,,,,65add0950cc74fc6024f5b6a,Mexican,13 or older,"no, only English or Spanish",yes,2025-08-12_14h10.43.010,empathy_intonation_perc,2024.2.4,MacIntel,59.88023952,65add0950cc74fc6024f5b6a,687ed1b7e638a4cbf2f02089,689b82de0faf5a9761c36015,,,,,,,,,,,,,,1,,,,,,,,,,,,,,,,,,,,,,,,,,,,,,,,,,,,,,,,,,,,,,,,,,,,,,,,,91,click the 1 key.,,,,,843.1034,845.2522,1,1,1.6194,,0,59,59,90,1,REAL,FAKE,,,,,,,,,,,,,,,,,
,,,,,,,,,65add0950cc74fc6024f5b6a,Mexican,13 or older,"no, only English or Spanish",yes,2025-08-12_14h10.43.010,empathy_intonation_perc,2024.2.4,MacIntel,59.88023952,65add0950cc74fc6024f5b6a,687ed1b7e638a4cbf2f02089,689b82de0faf5a9761c36015,,,,,,,,,,,,,,1,,,,,,,,,,,,,,,,,,,,,,,,,,,,,,,,,,,,,,,,,,,,,,,,,,,,,,,,,44,cuchara,,,,,845.2537,847.2355,1,1,1.4455,,0,60,60,43,1,REAL,FAKE,,,,,,,,,,,,,,,,,
,,,,,,,,,65add0950cc74fc6024f5b6a,Mexican,13 or older,"no, only English or Spanish",yes,2025-08-12_14h10.43.010,empathy_intonation_perc,2024.2.4,MacIntel,59.88023952,65add0950cc74fc6024f5b6a,687ed1b7e638a4cbf2f02089,689b82de0faf5a9761c36015,,,,,,,,,,,,,,1,,,,,,,,,,,,,,,,,,,,,,,,,,,,,,,,,,,,,,,,,,,,,,,,,,,,,,,,,57,tacaño,,,,,847.2369,850.0022,0,0,2.2408,,0,61,61,56,1,REAL,FAKE,,,,,,,,,,,,,,,,,
,,,,,,,,,65add0950cc74fc6024f5b6a,Mexican,13 or older,"no, only English or Spanish",yes,2025-08-12_14h10.43.010,empathy_intonation_perc,2024.2.4,MacIntel,59.88023952,65add0950cc74fc6024f5b6a,687ed1b7e638a4cbf2f02089,689b82de0faf5a9761c36015,,,,,,,,,,,,,,1,,,,,,,,,,,,,,,,,,,,,,,,,,,,,,,,,,,,,,,,,,,,,,,,,,,,,,,,,22,lacayo,,,,,850.0032,851.7688,0,0,1.2232,,0,62,62,21,1,REAL,FAKE,,,,,,,,,,,,,,,,,
,,,,,,,,,65add0950cc74fc6024f5b6a,Mexican,13 or older,"no, only English or Spanish",yes,2025-08-12_14h10.43.010,empathy_intonation_perc,2024.2.4,MacIntel,59.88023952,65add0950cc74fc6024f5b6a,687ed1b7e638a4cbf2f02089,689b82de0faf5a9761c36015,,,,,,,,,,,,,,0,,,,,,,,,,,,,,,,,,,,,,,,,,,,,,,,,,,,,,,,,,,,,,,,,,,,,,,,,50,flamida,,,,,851.77,854.3022,0,1,2.0071,,0,63,63,49,1,REAL,FAKE,,,,,,,,,,,,,,,,,
,,,,,,,,,65add0950cc74fc6024f5b6a,Mexican,13 or older,"no, only English or Spanish",yes,2025-08-12_14h10.43.010,empathy_intonation_perc,2024.2.4,MacIntel,59.88023952,65add0950cc74fc6024f5b6a,687ed1b7e638a4cbf2f02089,689b82de0faf5a9761c36015,,,,,,,,,,,,,,0,,,,,,,,,,,,,,,,,,,,,,,,,,,,,,,,,,,,,,,,,,,,,,,,,,,,,,,,,17,floroso,,,,,854.3032,857.1857,1,0,2.3472,,0,64,64,16,1,REAL,FAKE,,,,,,,,,,,,,,,,,
,,,,,,,,,65add0950cc74fc6024f5b6a,Mexican,13 or older,"no, only English or Spanish",yes,2025-08-12_14h10.43.010,empathy_intonation_perc,2024.2.4,MacIntel,59.88023952,65add0950cc74fc6024f5b6a,687ed1b7e638a4cbf2f02089,689b82de0faf5a9761c36015,,,,,,,,,,,,,,1,,,,,,,,,,,,,,,,,,,,,,,,,,,,,,,,,,,,,,,,,,,,,,,,,,,,,,,,,83,guante,,,,,857.1869,859.6859,0,0,1.9568,,0,65,65,82,1,REAL,FAKE,,,,,,,,,,,,,,,,,
,,,,,,,,,65add0950cc74fc6024f5b6a,Mexican,13 or older,"no, only English or Spanish",yes,2025-08-12_14h10.43.010,empathy_intonation_perc,2024.2.4,MacIntel,59.88023952,65add0950cc74fc6024f5b6a,687ed1b7e638a4cbf2f02089,689b82de0faf5a9761c36015,,,,,,,,,,,,,,0,,,,,,,,,,,,,,,,,,,,,,,,,,,,,,,,,,,,,,,,,,,,,,,,,,,,,,,,,92,click the 0 key.,,,,,859.6873,861.6359,0,1,1.4054,,0,66,66,91,1,REAL,FAKE,,,,,,,,,,,,,,,,,
,,,,,,,,,65add0950cc74fc6024f5b6a,Mexican,13 or older,"no, only English or Spanish",yes,2025-08-12_14h10.43.010,empathy_intonation_perc,2024.2.4,MacIntel,59.88023952,65add0950cc74fc6024f5b6a,687ed1b7e638a4cbf2f02089,689b82de0faf5a9761c36015,,,,,,,,,,,,,,0,,,,,,,,,,,,,,,,,,,,,,,,,,,,,,,,,,,,,,,,,,,,,,,,,,,,,,,,,79,tropaje,,,,,861.6372,864.8684,0,1,2.6984,,0,67,67,78,1,REAL,FAKE,,,,,,,,,,,,,,,,,
,,,,,,,,,65add0950cc74fc6024f5b6a,Mexican,13 or older,"no, only English or Spanish",yes,2025-08-12_14h10.43.010,empathy_intonation_perc,2024.2.4,MacIntel,59.88023952,65add0950cc74fc6024f5b6a,687ed1b7e638a4cbf2f02089,689b82de0faf5a9761c36015,,,,,,,,,,,,,,1,,,,,,,,,,,,,,,,,,,,,,,,,,,,,,,,,,,,,,,,,,,,,,,,,,,,,,,,,62,flaco,,,,,864.8695,866.8526,1,1,1.4613,,0,68,68,61,1,REAL,FAKE,,,,,,,,,,,,,,,,,
,,,,,,,,,65add0950cc74fc6024f5b6a,Mexican,13 or older,"no, only English or Spanish",yes,2025-08-12_14h10.43.010,empathy_intonation_perc,2024.2.4,MacIntel,59.88023952,65add0950cc74fc6024f5b6a,687ed1b7e638a4cbf2f02089,689b82de0faf5a9761c36015,,,,,,,,,,,,,,1,,,,,,,,,,,,,,,,,,,,,,,,,,,,,,,,,,,,,,,,,,,,,,,,,,,,,,,,,77,tiburón,,,,,866.8538,869.6527,0,0,2.2618,,0,69,69,76,1,REAL,FAKE,,,,,,,,,,,,,,,,,
,,,,,,,,,65add0950cc74fc6024f5b6a,Mexican,13 or older,"no, only English or Spanish",yes,2025-08-12_14h10.43.010,empathy_intonation_perc,2024.2.4,MacIntel,59.88023952,65add0950cc74fc6024f5b6a,687ed1b7e638a4cbf2f02089,689b82de0faf5a9761c36015,,,,,,,,,,,,,,1,,,,,,,,,,,,,,,,,,,,,,,,,,,,,,,,,,,,,,,,,,,,,,,,,,,,,,,,,69,engatusar,,,,,869.654,872.4024,1,1,2.2054,,0,70,70,68,1,REAL,FAKE,,,,,,,,,,,,,,,,,
,,,,,,,,,65add0950cc74fc6024f5b6a,Mexican,13 or older,"no, only English or Spanish",yes,2025-08-12_14h10.43.010,empathy_intonation_perc,2024.2.4,MacIntel,59.88023952,65add0950cc74fc6024f5b6a,687ed1b7e638a4cbf2f02089,689b82de0faf5a9761c36015,,,,,,,,,,,,,,1,,,,,,,,,,,,,,,,,,,,,,,,,,,,,,,,,,,,,,,,,,,,,,,,,,,,,,,,,2,pellizcar,,,,,872.4033,875.9862,0,0,3.0469,,0,71,71,1,1,REAL,FAKE,,,,,,,,,,,,,,,,,
,,,,,,,,,65add0950cc74fc6024f5b6a,Mexican,13 or older,"no, only English or Spanish",yes,2025-08-12_14h10.43.010,empathy_intonation_perc,2024.2.4,MacIntel,59.88023952,65add0950cc74fc6024f5b6a,687ed1b7e638a4cbf2f02089,689b82de0faf5a9761c36015,,,,,,,,,,,,,,1,,,,,,,,,,,,,,,,,,,,,,,,,,,,,,,,,,,,,,,,,,,,,,,,,,,,,,,,,12,asesinato,,,,,875.9876,878.4528,0,0,1.9395,,0,72,72,11,1,REAL,FAKE,,,,,,,,,,,,,,,,,
,,,,,,,,,65add0950cc74fc6024f5b6a,Mexican,13 or older,"no, only English or Spanish",yes,2025-08-12_14h10.43.010,empathy_intonation_perc,2024.2.4,MacIntel,59.88023952,65add0950cc74fc6024f5b6a,687ed1b7e638a4cbf2f02089,689b82de0faf5a9761c36015,,,,,,,,,,,,,,0,,,,,,,,,,,,,,,,,,,,,,,,,,,,,,,,,,,,,,,,,,,,,,,,,,,,,,,,,18,arsa,,,,,878.4538,880.2697,1,0,1.2788,,0,73,73,17,1,REAL,FAKE,,,,,,,,,,,,,,,,,
,,,,,,,,,65add0950cc74fc6024f5b6a,Mexican,13 or older,"no, only English or Spanish",yes,2025-08-12_14h10.43.010,empathy_intonation_perc,2024.2.4,MacIntel,59.88023952,65add0950cc74fc6024f5b6a,687ed1b7e638a4cbf2f02089,689b82de0faf5a9761c36015,,,,,,,,,,,,,,0,,,,,,,,,,,,,,,,,,,,,,,,,,,,,,,,,,,,,,,,,,,,,,,,,,,,,,,,,19,brecedad,,,,,880.271,882.9353,0,1,2.1245,,0,74,74,18,1,REAL,FAKE,,,,,,,,,,,,,,,,,
,,,,,,,,,65add0950cc74fc6024f5b6a,Mexican,13 or older,"no, only English or Spanish",yes,2025-08-12_14h10.43.010,empathy_intonation_perc,2024.2.4,MacIntel,59.88023952,65add0950cc74fc6024f5b6a,687ed1b7e638a4cbf2f02089,689b82de0faf5a9761c36015,,,,,,,,,,,,,,1,,,,,,,,,,,,,,,,,,,,,,,,,,,,,,,,,,,,,,,,,,,,,,,,,,,,,,,,,6,tergiversar,,,,,882.9365,885.1031,0,0,1.6452,,0,75,75,5,1,REAL,FAKE,,,,,,,,,,,,,,,,,
,,,,,,,,,65add0950cc74fc6024f5b6a,Mexican,13 or older,"no, only English or Spanish",yes,2025-08-12_14h10.43.010,empathy_intonation_perc,2024.2.4,MacIntel,59.88023952,65add0950cc74fc6024f5b6a,687ed1b7e638a4cbf2f02089,689b82de0faf5a9761c36015,,,,,,,,,,,,,,1,,,,,,,,,,,,,,,,,,,,,,,,,,,,,,,,,,,,,,,,,,,,,,,,,,,,,,,,,37,granuja,,,,,885.1043,887.3866,1,1,1.7415,,0,76,76,36,1,REAL,FAKE,,,,,,,,,,,,,,,,,
,,,,,,,,,65add0950cc74fc6024f5b6a,Mexican,13 or older,"no, only English or Spanish",yes,2025-08-12_14h10.43.010,empathy_intonation_perc,2024.2.4,MacIntel,59.88023952,65add0950cc74fc6024f5b6a,687ed1b7e638a4cbf2f02089,689b82de0faf5a9761c36015,,,,,,,,,,,,,,0,,,,,,,,,,,,,,,,,,,,,,,,,,,,,,,,,,,,,,,,,,,,,,,,,,,,,,,,,10,antar,,,,,887.3878,890.4196,0,1,2.5007,,0,77,77,9,1,REAL,FAKE,,,,,,,,,,,,,,,,,
,,,,,,,,,65add0950cc74fc6024f5b6a,Mexican,13 or older,"no, only English or Spanish",yes,2025-08-12_14h10.43.010,empathy_intonation_perc,2024.2.4,MacIntel,59.88023952,65add0950cc74fc6024f5b6a,687ed1b7e638a4cbf2f02089,689b82de0faf5a9761c36015,,,,,,,,,,,,,,1,,,,,,,,,,,,,,,,,,,,,,,,,,,,,,,,,,,,,,,,,,,,,,,,,,,,,,,,,76,atar,,,,,890.4203,892.4866,0,0,1.527,,0,78,78,75,1,REAL,FAKE,,,,,,,,,,,,,,,,,
,,,,,,,,,65add0950cc74fc6024f5b6a,Mexican,13 or older,"no, only English or Spanish",yes,2025-08-12_14h10.43.010,empathy_intonation_perc,2024.2.4,MacIntel,59.88023952,65add0950cc74fc6024f5b6a,687ed1b7e638a4cbf2f02089,689b82de0faf5a9761c36015,,,,,,,,,,,,,,1,,,,,,,,,,,,,,,,,,,,,,,,,,,,,,,,,,,,,,,,,,,,,,,,,,,,,,,,,26,secuestro,,,,,892.4876,894.687,1,1,1.6759,,0,79,79,25,1,REAL,FAKE,,,,,,,,,,,,,,,,,
,,,,,,,,,65add0950cc74fc6024f5b6a,Mexican,13 or older,"no, only English or Spanish",yes,2025-08-12_14h10.43.010,empathy_intonation_perc,2024.2.4,MacIntel,59.88023952,65add0950cc74fc6024f5b6a,687ed1b7e638a4cbf2f02089,689b82de0faf5a9761c36015,,,,,,,,,,,,,,0,,,,,,,,,,,,,,,,,,,,,,,,,,,,,,,,,,,,,,,,,,,,,,,,,,,,,,,,,66,hacido,,,,,894.688,896.3534,1,0,1.1342,,0,80,80,65,1,REAL,FAKE,,,,,,,,,,,,,,,,,
,,,,,,,,,65add0950cc74fc6024f5b6a,Mexican,13 or older,"no, only English or Spanish",yes,2025-08-12_14h10.43.010,empathy_intonation_perc,2024.2.4,MacIntel,59.88023952,65add0950cc74fc6024f5b6a,687ed1b7e638a4cbf2f02089,689b82de0faf5a9761c36015,,,,,,,,,,,,,,1,,,,,,,,,,,,,,,,,,,,,,,,,,,,,,,,,,,,,,,,,,,,,,,,,,,,,,,,,13,helar,,,,,896.3544,898.3866,0,0,1.4927,,0,81,81,12,1,REAL,FAKE,,,,,,,,,,,,,,,,,
,,,,,,,,,65add0950cc74fc6024f5b6a,Mexican,13 or older,"no, only English or Spanish",yes,2025-08-12_14h10.43.010,empathy_intonation_perc,2024.2.4,MacIntel,59.88023952,65add0950cc74fc6024f5b6a,687ed1b7e638a4cbf2f02089,689b82de0faf5a9761c36015,,,,,,,,,,,,,,1,,,,,,,,,,,,,,,,,,,,,,,,,,,,,,,,,,,,,,,,,,,,,,,,,,,,,,,,,41,rebuscar,,,,,898.3873,901.4865,1,1,2.5555,,0,82,82,40,1,REAL,FAKE,,,,,,,,,,,,,,,,,
,,,,,,,,,65add0950cc74fc6024f5b6a,Mexican,13 or older,"no, only English or Spanish",yes,2025-08-12_14h10.43.010,empathy_intonation_perc,2024.2.4,MacIntel,59.88023952,65add0950cc74fc6024f5b6a,687ed1b7e638a4cbf2f02089,689b82de0faf5a9761c36015,,,,,,,,,,,,,,1,,,,,,,,,,,,,,,,,,,,,,,,,,,,,,,,,,,,,,,,,,,,,,,,,,,,,,,,,65,bizcocho,,,,,901.4872,903.487,0,0,1.4785,,0,83,83,64,1,REAL,FAKE,,,,,,,,,,,,,,,,,
,,,,,,,,,65add0950cc74fc6024f5b6a,Mexican,13 or older,"no, only English or Spanish",yes,2025-08-12_14h10.43.010,empathy_intonation_perc,2024.2.4,MacIntel,59.88023952,65add0950cc74fc6024f5b6a,687ed1b7e638a4cbf2f02089,689b82de0faf5a9761c36015,,,,,,,,,,,,,,0,,,,,,,,,,,,,,,,,,,,,,,,,,,,,,,,,,,,,,,,,,,,,,,,,,,,,,,,,70,temblo,,,,,903.4882,905.3371,0,1,1.3118,,0,84,84,69,1,REAL,FAKE,,,,,,,,,,,,,,,,,
,,,,,,,,,65add0950cc74fc6024f5b6a,Mexican,13 or older,"no, only English or Spanish",yes,2025-08-12_14h10.43.010,empathy_intonation_perc,2024.2.4,MacIntel,59.88023952,65add0950cc74fc6024f5b6a,687ed1b7e638a4cbf2f02089,689b82de0faf5a9761c36015,,,,,,,,,,,,,,1,,,,,,,,,,,,,,,,,,,,,,,,,,,,,,,,,,,,,,,,,,,,,,,,,,,,,,,,,80,hormiga,,,,,905.3383,907.8038,0,0,1.9248,,0,85,85,79,1,REAL,FAKE,,,,,,,,,,,,,,,,,
,,,,,,,,,65add0950cc74fc6024f5b6a,Mexican,13 or older,"no, only English or Spanish",yes,2025-08-12_14h10.43.010,empathy_intonation_perc,2024.2.4,MacIntel,59.88023952,65add0950cc74fc6024f5b6a,687ed1b7e638a4cbf2f02089,689b82de0faf5a9761c36015,,,,,,,,,,,,,,1,,,,,,,,,,,,,,,,,,,,,,,,,,,,,,,,,,,,,,,,,,,,,,,,,,,,,,,,,48,ladrón,,,,,907.8047,909.5202,0,0,1.1901,,0,86,86,47,1,REAL,FAKE,,,,,,,,,,,,,,,,,
,,,,,,,,,65add0950cc74fc6024f5b6a,Mexican,13 or older,"no, only English or Spanish",yes,2025-08-12_14h10.43.010,empathy_intonation_perc,2024.2.4,MacIntel,59.88023952,65add0950cc74fc6024f5b6a,687ed1b7e638a4cbf2f02089,689b82de0faf5a9761c36015,,,,,,,,,,,,,,0,,,,,,,,,,,,,,,,,,,,,,,,,,,,,,,,,,,,,,,,,,,,,,,,,,,,,,,,,4,batillón,,,,,909.521,911.1206,1,0,1.0683,,0,87,87,3,1,REAL,FAKE,,,,,,,,,,,,,,,,,
,,,,,,,,,65add0950cc74fc6024f5b6a,Mexican,13 or older,"no, only English or Spanish",yes,2025-08-12_14h10.43.010,empathy_intonation_perc,2024.2.4,MacIntel,59.88023952,65add0950cc74fc6024f5b6a,687ed1b7e638a4cbf2f02089,689b82de0faf5a9761c36015,,,,,,,,,,,,,,0,,,,,,,,,,,,,,,,,,,,,,,,,,,,,,,,,,,,,,,,,,,,,,,,,,,,,,,,,84,escuto,,,,,911.1219,913.7206,1,0,2.0634,,0,88,88,83,1,REAL,FAKE,,,,,,,,,,,,,,,,,
,,,,,,,,,65add0950cc74fc6024f5b6a,Mexican,13 or older,"no, only English or Spanish",yes,2025-08-12_14h10.43.010,empathy_intonation_perc,2024.2.4,MacIntel,59.88023952,65add0950cc74fc6024f5b6a,687ed1b7e638a4cbf2f02089,689b82de0faf5a9761c36015,,,,,,,,,,,,,,0,,,,,,,,,,,,,,,,,,,,,,,,,,,,,,,,,,,,,,,,,,,,,,,,,,,,,,,,,47,cartinar,,,,,913.7221,916.9207,0,1,2.6574,,0,89,89,46,1,REAL,FAKE,,,,,,,,,,,,,,,,,
,,,,,,,,,65add0950cc74fc6024f5b6a,Mexican,13 or older,"no, only English or Spanish",yes,2025-08-12_14h10.43.010,empathy_intonation_perc,2024.2.4,MacIntel,59.88023952,65add0950cc74fc6024f5b6a,687ed1b7e638a4cbf2f02089,689b82de0faf5a9761c36015,,,,,,,,,,,,,,1,,,,,,,,,,,,,,,,,,,,,,,,,,,,,,,,,,,,,,,,,,,,,,,,,,,,,,,,,45,jilguero,,,,,916.9221,919.1207,0,0,1.659,,0,90,90,44,1,REAL,FAKE,,,,,,,,,,,,,,,,,
,,,,,,,,,65add0950cc74fc6024f5b6a,Mexican,13 or older,"no, only English or Spanish",yes,2025-08-12_14h10.43.010,empathy_intonation_perc,2024.2.4,MacIntel,59.88023952,65add0950cc74fc6024f5b6a,687ed1b7e638a4cbf2f02089,689b82de0faf5a9761c36015,,,,,,,,,,,,,,1,,,,,,,,,,,,,,,,,,,,,,,,,,,,,,,,,,,,,,,,,,,,,,,,,,,,,,,,,60,matar,,,,,919.1218,920.9032,1,1,1.2444,,0,91,91,59,1,REAL,FAKE,,,,,,,,,,,,,,,,,
,,,,,,,,,65add0950cc74fc6024f5b6a,Mexican,13 or older,"no, only English or Spanish",yes,2025-08-12_14h10.43.010,empathy_intonation_perc,2024.2.4,MacIntel,59.88023952,65add0950cc74fc6024f5b6a,687ed1b7e638a4cbf2f02089,689b82de0faf5a9761c36015,,,,,,,,,,,,,,,,,,,,,,,,,,,,,,,,,,,,,,,,,,,,,,,,,,,,,,,,,,,,,,,,,,,,,,,,,,,,,,,,,,,,,,,,,,920.9036,936.4716,,,,,,,,,,,,,,,
,,,,,,,,,65add0950cc74fc6024f5b6a,Mexican,13 or older,"no, only English or Spanish",yes,2025-08-12_14h10.43.010,empathy_intonation_perc,2024.2.4,MacIntel,59.88023952,65add0950cc74fc6024f5b6a,687ed1b7e638a4cbf2f02089,689b82de0faf5a9761c36015,,,,,,,,,,,,,1,,,,,,,,,,,,,,,,,,,,,,,,,,,,,,,,,,,,,,,,,,,,,,,,,,,,,,,,,,,,,,,,,,,,,,,,,,,,,,,936.4826,942.3048,strongly agree,0,0,0,0,1,I can easily tell if someone else wants to enter a conversation.,1,0,1,0,,
,,,,,,,,,65add0950cc74fc6024f5b6a,Mexican,13 or older,"no, only English or Spanish",yes,2025-08-12_14h10.43.010,empathy_intonation_perc,2024.2.4,MacIntel,59.88023952,65add0950cc74fc6024f5b6a,687ed1b7e638a4cbf2f02089,689b82de0faf5a9761c36015,,,,,,,,,,,,,2,,,,,,,,,,,,,,,,,,,,,,,,,,,,,,,,,,,,,,,,,,,,,,,,,,,,,,,,,,,,,,,,,,,,,,,,,,,,,,,942.3058,946.6713,slightly disagree,0,1,1,1,1,I prefer animals to humans.,0,1,0,0,,
,,,,,,,,,65add0950cc74fc6024f5b6a,Mexican,13 or older,"no, only English or Spanish",yes,2025-08-12_14h10.43.010,empathy_intonation_perc,2024.2.4,MacIntel,59.88023952,65add0950cc74fc6024f5b6a,687ed1b7e638a4cbf2f02089,689b82de0faf5a9761c36015,,,,,,,,,,,,,3,,,,,,,,,,,,,,,,,,,,,,,,,,,,,,,,,,,,,,,,,,,,,,,,,,,,,,,,,,,,,,,,,,,,,,,,,,,,,,,946.6727,950.1547,slightly agree,0,2,2,2,1,I try to keep up with the current trends and fashions.,0,1,0,0,,
,,,,,,,,,65add0950cc74fc6024f5b6a,Mexican,13 or older,"no, only English or Spanish",yes,2025-08-12_14h10.43.010,empathy_intonation_perc,2024.2.4,MacIntel,59.88023952,65add0950cc74fc6024f5b6a,687ed1b7e638a4cbf2f02089,689b82de0faf5a9761c36015,,,,,,,,,,,,,4,,,,,,,,,,,,,,,,,,,,,,,,,,,,,,,,,,,,,,,,,,,,,,,,,,,,,,,,,,,,,,,,,,,,,,,,,,,,,,,950.156,958.6049,strongly disagree,0,3,3,3,1,"I find it difficult to explain to others things that I understand easily,   when they don't understand it first time.",1,0,0,1,,
,,,,,,,,,65add0950cc74fc6024f5b6a,Mexican,13 or older,"no, only English or Spanish",yes,2025-08-12_14h10.43.010,empathy_intonation_perc,2024.2.4,MacIntel,59.88023952,65add0950cc74fc6024f5b6a,687ed1b7e638a4cbf2f02089,689b82de0faf5a9761c36015,,,,,,,,,,,,,5,,,,,,,,,,,,,,,,,,,,,,,,,,,,,,,,,,,,,,,,,,,,,,,,,,,,,,,,,,,,,,,,,,,,,,,,,,,,,,,958.6059,961.555,strongly agree,0,4,4,4,1,I dream most nights.,0,1,0,0,,
,,,,,,,,,65add0950cc74fc6024f5b6a,Mexican,13 or older,"no, only English or Spanish",yes,2025-08-12_14h10.43.010,empathy_intonation_perc,2024.2.4,MacIntel,59.88023952,65add0950cc74fc6024f5b6a,687ed1b7e638a4cbf2f02089,689b82de0faf5a9761c36015,,,,,,,,,,,,,6,,,,,,,,,,,,,,,,,,,,,,,,,,,,,,,,,,,,,,,,,,,,,,,,,,,,,,,,,,,,,,,,,,,,,,,,,,,,,,,961.556,963.3383,strongly agree,0,5,5,5,1,I really enjoy caring for other people.,1,0,1,0,,
,,,,,,,,,65add0950cc74fc6024f5b6a,Mexican,13 or older,"no, only English or Spanish",yes,2025-08-12_14h10.43.010,empathy_intonation_perc,2024.2.4,MacIntel,59.88023952,65add0950cc74fc6024f5b6a,687ed1b7e638a4cbf2f02089,689b82de0faf5a9761c36015,,,,,,,,,,,,,7,,,,,,,,,,,,,,,,,,,,,,,,,,,,,,,,,,,,,,,,,,,,,,,,,,,,,,,,,,,,,,,,,,,,,,,,,,,,,,,963.3392,967.7551,slightly agree,0,6,6,6,1,I try to solve my own problems rather than discussing them with others.,0,1,0,0,,
,,,,,,,,,65add0950cc74fc6024f5b6a,Mexican,13 or older,"no, only English or Spanish",yes,2025-08-12_14h10.43.010,empathy_intonation_perc,2024.2.4,MacIntel,59.88023952,65add0950cc74fc6024f5b6a,687ed1b7e638a4cbf2f02089,689b82de0faf5a9761c36015,,,,,,,,,,,,,8,,,,,,,,,,,,,,,,,,,,,,,,,,,,,,,,,,,,,,,,,,,,,,,,,,,,,,,,,,,,,,,,,,,,,,,,,,,,,,,967.7565,971.7219,slightly disagree,0,7,7,7,1,I find it hard to know what to do in a social situation.,1,0,0,1,,
