instructions_exposure.started,instructions_exposure.stopped,instructions_exposure_loop.thisRepN,instructions_exposure_loop.thisTrialN,instructions_exposure_loop.thisN,instructions_exposure_loop.thisIndex,instructions_exposure_loop.ran,instructions_text,continue_text,participant_id,"What variety of Spanish are you most familiar with? (e.g., Peruvian, Spanish, Mexican)",At what age did you begin learning Spanish?,Are you proficient in any languages other than English/Spanish?,"Are you familiar with Caribbean (e.g., Caribbean, Puerto Rican) or Galician Spanish?",date,expName,psychopyVersion,OS,frameRate,id,study_id,session,trial_exposure.started,trial_exposure.stopped,key_resp_exposure.keys,key_resp_exposure.corr,key_resp_exposure.rt,key_resp_exposure.duration,key_resp.keys,exposure_loop.thisRepN,exposure_loop.thisTrialN,exposure_loop.thisN,exposure_loop.thisIndex,exposure_loop.ran,item_num,correct_response,question,path,duration,instructions_2afc.started,instructions_2afc.stopped,instructions_2afc_loop.thisRepN,instructions_2afc_loop.thisTrialN,instructions_2afc_loop.thisN,instructions_2afc_loop.thisIndex,instructions_2afc_loop.ran,practice_2afc.started,practice_2afc.stopped,key_resp_2afc_practice.keys,key_resp_2afc_practice.corr,key_resp_2afc_practice.rt,key_resp_2afc_practice.duration,trials_2afc_practice_loop.thisRepN,trials_2afc_practice_loop.thisTrialN,trials_2afc_practice_loop.thisN,trials_2afc_practice_loop.thisIndex,trials_2afc_practice_loop.ran,check_2afc.started,check_2afc.stopped,trial_2afc.started,trial_2afc.stopped,key_resp_2afc_trial.keys,key_resp_2afc_trial.corr,key_resp_2afc_trial.rt,key_resp_2afc_trial.duration,trials_2afc_loop.thisRepN,trials_2afc_loop.thisTrialN,trials_2afc_loop.thisN,trials_2afc_loop.thisIndex,trials_2afc_loop.ran,target,variety,instructions_lextale.started,instructions_lextale.stopped,instructions_lextale_loop.thisRepN,instructions_lextale_loop.thisTrialN,instructions_lextale_loop.thisN,instructions_lextale_loop.thisIndex,instructions_lextale_loop.ran,practice_lextale.started,practice_lextale.stopped,key_resp_lextale_practice.keys,key_resp_lextale_practice.corr,key_resp_lextale_practice.rt,key_resp_lextale_practice.duration,practice_feedback_lextale.started,practice_feedback_lextale.stopped,trials_lextale_practice_loop.thisRepN,trials_lextale_practice_loop.thisTrialN,trials_lextale_practice_loop.thisN,trials_lextale_practice_loop.thisIndex,trials_lextale_practice_loop.ran,stim,word,prac_button_real,prac_button_false,check_lextale.started,check_lextale.stopped,trial_lextale.started,trial_lextale.stopped,key_resp_lextale_trial.keys,key_resp_lextale_trial.corr,key_resp_lextale_trial.rt,key_resp_lextale_trial.duration,trials_lextale_loop.thisRepN,trials_lextale_loop.thisTrialN,trials_lextale_loop.thisN,trials_lextale_loop.thisIndex,trials_lextale_loop.ran,button_real,button_false,instructions_eq.started,instructions_eq.stopped,trial_eq.started,trial_eq.stopped,slider_eq_trial.response,trials_eq_loop.thisRepN,trials_eq_loop.thisTrialN,trials_eq_loop.thisN,trials_eq_loop.thisIndex,trials_eq_loop.ran,item,is_test_item,is_distractor,is_agree_score,is_disagree_score,end_exp.started,end_exp.stopped
0.0252,6.2212,0,0,0,0,1,"In the following task, you are going to hear a series of conversations.", (press the space bar to continue),65ddfaeab5c421556410b938,Spanish,13 or older,"no, only English or Spanish",no,2025-07-23_08h24.36.119,empathy_intonation_perc,2024.2.4,Win32,60.24096386,65ddfaeab5c421556410b938,687ed1b7e638a4cbf2f02089,6880d44c1f773f0edab43eae,,,,,,,,,,,,,,,,,,,,,,,,,,,,,,,,,,,,,,,,,,,,,,,,,,,,,,,,,,,,,,,,,,,,,,,,,,,,,,,,,,,,,,,,,,,,,,,,,,,,,,,,,,
6.2219,17.6604,0,1,1,1,1,It is okay if you don't not 100% understand them!, (press the space bar to continue),65ddfaeab5c421556410b938,Spanish,13 or older,"no, only English or Spanish",no,2025-07-23_08h24.36.119,empathy_intonation_perc,2024.2.4,Win32,60.24096386,65ddfaeab5c421556410b938,687ed1b7e638a4cbf2f02089,6880d44c1f773f0edab43eae,,,,,,,,,,,,,,,,,,,,,,,,,,,,,,,,,,,,,,,,,,,,,,,,,,,,,,,,,,,,,,,,,,,,,,,,,,,,,,,,,,,,,,,,,,,,,,,,,,,,,,,,,,
17.6624,21.0614,0,2,2,2,1,"After, you will read a sentence about the conversation and decide if it's true or false.", (press the space bar to continue),65ddfaeab5c421556410b938,Spanish,13 or older,"no, only English or Spanish",no,2025-07-23_08h24.36.119,empathy_intonation_perc,2024.2.4,Win32,60.24096386,65ddfaeab5c421556410b938,687ed1b7e638a4cbf2f02089,6880d44c1f773f0edab43eae,,,,,,,,,,,,,,,,,,,,,,,,,,,,,,,,,,,,,,,,,,,,,,,,,,,,,,,,,,,,,,,,,,,,,,,,,,,,,,,,,,,,,,,,,,,,,,,,,,,,,,,,,,
21.0646,24.9822,0,3,3,3,1,"If it's true, press '1' (True) and if it's false press '0' (False).", (press the space bar to continue),65ddfaeab5c421556410b938,Spanish,13 or older,"no, only English or Spanish",no,2025-07-23_08h24.36.119,empathy_intonation_perc,2024.2.4,Win32,60.24096386,65ddfaeab5c421556410b938,687ed1b7e638a4cbf2f02089,6880d44c1f773f0edab43eae,,,,,,,,,,,,,,,,,,,,,,,,,,,,,,,,,,,,,,,,,,,,,,,,,,,,,,,,,,,,,,,,,,,,,,,,,,,,,,,,,,,,,,,,,,,,,,,,,,,,,,,,,,
,,,,,,,,,65ddfaeab5c421556410b938,Spanish,13 or older,"no, only English or Spanish",no,2025-07-23_08h24.36.119,empathy_intonation_perc,2024.2.4,Win32,60.24096386,65ddfaeab5c421556410b938,687ed1b7e638a4cbf2f02089,6880d44c1f773f0edab43eae,24.9974,89.8901,0,0,4.813,,,0,0,0,1,1,2,1,The mom asked the daughter if she already went to the supermarket.,./stim/exposure_wavs/dr_stimuli_convo.wav,60,,,,,,,,,,,,,,,,,,,,,,,,,,,,,,,,,,,,,,,,,,,,,,,,,,,,,,,,,,,,,,,,,,,,,,,,,,,,,,,,,,,,,,,,,
,,,,,,,,,65ddfaeab5c421556410b938,Spanish,13 or older,"no, only English or Spanish",no,2025-07-23_08h24.36.119,empathy_intonation_perc,2024.2.4,Win32,60.24096386,65ddfaeab5c421556410b938,687ed1b7e638a4cbf2f02089,6880d44c1f773f0edab43eae,89.892,140.6155,1,1,3.7018,,,0,1,1,0,1,1,1,The son asked the mom if Aunt Marina is okay.,./stim/exposure_wavs/ga_stimuli_convo.wav,47,,,,,,,,,,,,,,,,,,,,,,,,,,,,,,,,,,,,,,,,,,,,,,,,,,,,,,,,,,,,,,,,,,,,,,,,,,,,,,,,,,,,,,,,,
,,,,,,,,,65ddfaeab5c421556410b938,Spanish,13 or older,"no, only English or Spanish",no,2025-07-23_08h24.36.119,empathy_intonation_perc,2024.2.4,Win32,60.24096386,65ddfaeab5c421556410b938,687ed1b7e638a4cbf2f02089,6880d44c1f773f0edab43eae,140.6207,181.5386,1,0,4.8978,,,0,2,2,2,1,3,0,The mom already has rice.,./stim/exposure_wavs/pr_stimuli_convo.wav,36,,,,,,,,,,,,,,,,,,,,,,,,,,,,,,,,,,,,,,,,,,,,,,,,,,,,,,,,,,,,,,,,,,,,,,,,,,,,,,,,,,,,,,,,,
,,,,,,,"In the following task you are going to hear a series of utterances. 

  You will decide if the utterances sound like questions or not using your keyboard.", (press the spacebar to continue),65ddfaeab5c421556410b938,Spanish,13 or older,"no, only English or Spanish",no,2025-07-23_08h24.36.119,empathy_intonation_perc,2024.2.4,Win32,60.24096386,65ddfaeab5c421556410b938,687ed1b7e638a4cbf2f02089,6880d44c1f773f0edab43eae,,,,,,,,,,,,,,,,,,181.5453,189.2401,0,0,0,0,1,,,,,,,,,,,,,,,,,,,,,,,,,,,,,,,,,,,,,,,,,,,,,,,,,,,,,,,,,,,,,,,,,,,,,,,,,,,,,,,,,,
,,,,,,,"If you believe the utterance is a question, type '1' (for 'yes') and if you do not 
  believe it is a question type '0' (for 'no').

  Let's practice a bit...", (press the spacebar to continue),65ddfaeab5c421556410b938,Spanish,13 or older,"no, only English or Spanish",no,2025-07-23_08h24.36.119,empathy_intonation_perc,2024.2.4,Win32,60.24096386,65ddfaeab5c421556410b938,687ed1b7e638a4cbf2f02089,6880d44c1f773f0edab43eae,,,,,,,,,,,,,,,,,,189.2419,192.8923,0,1,1,1,1,,,,,,,,,,,,,,,,,,,,,,,,,,,,,,,,,,,,,,,,,,,,,,,,,,,,,,,,,,,,,,,,,,,,,,,,,,,,,,,,,,
,,,,,,,,,65ddfaeab5c421556410b938,Spanish,13 or older,"no, only English or Spanish",no,2025-07-23_08h24.36.119,empathy_intonation_perc,2024.2.4,Win32,60.24096386,65ddfaeab5c421556410b938,687ed1b7e638a4cbf2f02089,6880d44c1f773f0edab43eae,,,,,,,,,,,,,,0,,./stim/wavs/peruvian_statement_filler_El-nino-habla-con-su-madre.wav,,,,,,,,,192.9011,197.7928,0,1,4.3769,,0,0,0,6,1,,,,,,,,,,,,,,,,,,,,,,,,,,,,,,,,,,,,,,,,,,,,,,,,,,,,,,,,,,,,,,,,,,,,,,,
,,,,,,,,,65ddfaeab5c421556410b938,Spanish,13 or older,"no, only English or Spanish",no,2025-07-23_08h24.36.119,empathy_intonation_perc,2024.2.4,Win32,60.24096386,65ddfaeab5c421556410b938,687ed1b7e638a4cbf2f02089,6880d44c1f773f0edab43eae,,,,,,,,,,,,,,1,,./stim/wavs/chilean_question_filler_Mi-padre-cantaba-bien.wav,,,,,,,,,197.7937,200.7776,1,1,2.4638,,0,1,1,2,1,,,,,,,,,,,,,,,,,,,,,,,,,,,,,,,,,,,,,,,,,,,,,,,,,,,,,,,,,,,,,,,,,,,,,,,
,,,,,,,,,65ddfaeab5c421556410b938,Spanish,13 or older,"no, only English or Spanish",no,2025-07-23_08h24.36.119,empathy_intonation_perc,2024.2.4,Win32,60.24096386,65ddfaeab5c421556410b938,687ed1b7e638a4cbf2f02089,6880d44c1f773f0edab43eae,,,,,,,,,,,,,,0,,./stim/wavs/puertorican_statement_filler_La-nina-pinta-con-su-amiga.wav,,,,,,,,,200.7784,203.6665,0,1,2.3692,,0,2,2,7,1,,,,,,,,,,,,,,,,,,,,,,,,,,,,,,,,,,,,,,,,,,,,,,,,,,,,,,,,,,,,,,,,,,,,,,,
,,,,,,,,,65ddfaeab5c421556410b938,Spanish,13 or older,"no, only English or Spanish",no,2025-07-23_08h24.36.119,empathy_intonation_perc,2024.2.4,Win32,60.24096386,65ddfaeab5c421556410b938,687ed1b7e638a4cbf2f02089,6880d44c1f773f0edab43eae,,,,,,,,,,,,,,1,,./stim/wavs/mexican_question_filler_Felipe-no-tiene-contrasena.wav,,,,,,,,,203.6671,206.0471,1,1,1.8654,,0,3,3,3,1,,,,,,,,,,,,,,,,,,,,,,,,,,,,,,,,,,,,,,,,,,,,,,,,,,,,,,,,,,,,,,,,,,,,,,,
,,,,,,,,,65ddfaeab5c421556410b938,Spanish,13 or older,"no, only English or Spanish",no,2025-07-23_08h24.36.119,empathy_intonation_perc,2024.2.4,Win32,60.24096386,65ddfaeab5c421556410b938,687ed1b7e638a4cbf2f02089,6880d44c1f773f0edab43eae,,,,,,,,,,,,,,0,,./stim/wavs/andalusian_statement_filler_Alberto-nunca-se-afeita.wav,,,,,,,,,206.0484,208.6766,0,1,2.1047,,0,4,4,5,1,,,,,,,,,,,,,,,,,,,,,,,,,,,,,,,,,,,,,,,,,,,,,,,,,,,,,,,,,,,,,,,,,,,,,,,
,,,,,,,,,65ddfaeab5c421556410b938,Spanish,13 or older,"no, only English or Spanish",no,2025-07-23_08h24.36.119,empathy_intonation_perc,2024.2.4,Win32,60.24096386,65ddfaeab5c421556410b938,687ed1b7e638a4cbf2f02089,6880d44c1f773f0edab43eae,,,,,,,,,,,,,,0,,./stim/wavs/cuban_statement_filler_Cocinabas-por-la-noche.wav,,,,,,,,,208.6777,211.7016,0,1,2.5123,,0,5,5,4,1,,,,,,,,,,,,,,,,,,,,,,,,,,,,,,,,,,,,,,,,,,,,,,,,,,,,,,,,,,,,,,,,,,,,,,,
,,,,,,,,,65ddfaeab5c421556410b938,Spanish,13 or older,"no, only English or Spanish",no,2025-07-23_08h24.36.119,empathy_intonation_perc,2024.2.4,Win32,60.24096386,65ddfaeab5c421556410b938,687ed1b7e638a4cbf2f02089,6880d44c1f773f0edab43eae,,,,,,,,,,,,,,1,,./stim/wavs/castilian_question_filler_Mi-esposo-conoce-al-chico.wav,,,,,,,,,211.7021,214.2344,1,1,2.0133,,0,6,6,0,1,,,,,,,,,,,,,,,,,,,,,,,,,,,,,,,,,,,,,,,,,,,,,,,,,,,,,,,,,,,,,,,,,,,,,,,
,,,,,,,,,65ddfaeab5c421556410b938,Spanish,13 or older,"no, only English or Spanish",no,2025-07-23_08h24.36.119,empathy_intonation_perc,2024.2.4,Win32,60.24096386,65ddfaeab5c421556410b938,687ed1b7e638a4cbf2f02089,6880d44c1f773f0edab43eae,,,,,,,,,,,,,,1,,./stim/wavs/argentine_question_filler_Mi-vecino-habla-mucho.wav,,,,,,,,,214.2348,216.2291,1,1,1.4575,,0,7,7,1,1,,,,,,,,,,,,,,,,,,,,,,,,,,,,,,,,,,,,,,,,,,,,,,,,,,,,,,,,,,,,,,,,,,,,,,,
,,,,,,,,,65ddfaeab5c421556410b938,Spanish,13 or older,"no, only English or Spanish",no,2025-07-23_08h24.36.119,empathy_intonation_perc,2024.2.4,Win32,60.24096386,65ddfaeab5c421556410b938,687ed1b7e638a4cbf2f02089,6880d44c1f773f0edab43eae,,,,,,,,,,,,,,,,,,,,,,,,,,,,,,,,,,,,216.2305,220.4288,,,,,,,,,,,,,,,,,,,,,,,,,,,,,,,,,,,,,,,,,,,,,,,,,,,,,,,,,,,,,,,,,,,,,
,,,,,,,,,65ddfaeab5c421556410b938,Spanish,13 or older,"no, only English or Spanish",no,2025-07-23_08h24.36.119,empathy_intonation_perc,2024.2.4,Win32,60.24096386,65ddfaeab5c421556410b938,687ed1b7e638a4cbf2f02089,6880d44c1f773f0edab43eae,,,,,,,,,,,,,34,1,,./stim/wavs/cuban_mismatch_interrogative-total-yn_Mi-tia-odia-la-lluvia.wav,,,,,,,,,,,,,,,,,,,,,,220.4545,223.2127,0,0,2.2373,,0,0,0,33,1,1,cuban,,,,,,,,,,,,,,,,,,,,,,,,,,,,,,,,,,,,,,,,,,,,,,,,,,,,,,,,
,,,,,,,,,65ddfaeab5c421556410b938,Spanish,13 or older,"no, only English or Spanish",no,2025-07-23_08h24.36.119,empathy_intonation_perc,2024.2.4,Win32,60.24096386,65ddfaeab5c421556410b938,687ed1b7e638a4cbf2f02089,6880d44c1f773f0edab43eae,,,,,,,,,,,,,37,1,,./stim/wavs/mexican_mismatch_interrogative-total-yn_La-maestra-vive-en-Paris.wav,,,,,,,,,,,,,,,,,,,,,,223.2135,225.4961,1,1,1.7532,,0,1,1,36,1,0,mexican,,,,,,,,,,,,,,,,,,,,,,,,,,,,,,,,,,,,,,,,,,,,,,,,,,,,,,,,
,,,,,,,,,65ddfaeab5c421556410b938,Spanish,13 or older,"no, only English or Spanish",no,2025-07-23_08h24.36.119,empathy_intonation_perc,2024.2.4,Win32,60.24096386,65ddfaeab5c421556410b938,687ed1b7e638a4cbf2f02089,6880d44c1f773f0edab43eae,,,,,,,,,,,,,48,0,,./stim/wavs/castilian_match_declarative-broad-focus_Maria-bebe-el-vino.wav,,,,,,,,,,,,,,,,,,,,,,225.4967,228.0133,0,1,1.9892,,0,2,2,47,1,0,castilian,,,,,,,,,,,,,,,,,,,,,,,,,,,,,,,,,,,,,,,,,,,,,,,,,,,,,,,,
,,,,,,,,,65ddfaeab5c421556410b938,Spanish,13 or older,"no, only English or Spanish",no,2025-07-23_08h24.36.119,empathy_intonation_perc,2024.2.4,Win32,60.24096386,65ddfaeab5c421556410b938,687ed1b7e638a4cbf2f02089,6880d44c1f773f0edab43eae,,,,,,,,,,,,,16,1,,./stim/wavs/mexican_match_interrogative-total-yn_Emilio-ama-la-marcha.wav,,,,,,,,,,,,,,,,,,,,,,228.0138,230.0802,1,1,1.5339,,0,3,3,15,1,0,mexican,,,,,,,,,,,,,,,,,,,,,,,,,,,,,,,,,,,,,,,,,,,,,,,,,,,,,,,,
,,,,,,,,,65ddfaeab5c421556410b938,Spanish,13 or older,"no, only English or Spanish",no,2025-07-23_08h24.36.119,empathy_intonation_perc,2024.2.4,Win32,60.24096386,65ddfaeab5c421556410b938,687ed1b7e638a4cbf2f02089,6880d44c1f773f0edab43eae,,,,,,,,,,,,,33,1,,./stim/wavs/cuban_mismatch_interrogative-total-yn_Mi-novio-viene-del-lago.wav,,,,,,,,,,,,,,,,,,,,,,230.0808,232.8811,1,1,2.2778,,0,4,4,32,1,1,cuban,,,,,,,,,,,,,,,,,,,,,,,,,,,,,,,,,,,,,,,,,,,,,,,,,,,,,,,,
,,,,,,,,,65ddfaeab5c421556410b938,Spanish,13 or older,"no, only English or Spanish",no,2025-07-23_08h24.36.119,empathy_intonation_perc,2024.2.4,Win32,60.24096386,65ddfaeab5c421556410b938,687ed1b7e638a4cbf2f02089,6880d44c1f773f0edab43eae,,,,,,,,,,,,,9,1,,./stim/wavs/cuban_match_interrogative-total-yn_Manuela-vende-el-carro.wav,,,,,,,,,,,,,,,,,,,,,,232.8824,235.6813,0,0,2.2742,,0,5,5,8,1,1,cuban,,,,,,,,,,,,,,,,,,,,,,,,,,,,,,,,,,,,,,,,,,,,,,,,,,,,,,,,
,,,,,,,,,65ddfaeab5c421556410b938,Spanish,13 or older,"no, only English or Spanish",no,2025-07-23_08h24.36.119,empathy_intonation_perc,2024.2.4,Win32,60.24096386,65ddfaeab5c421556410b938,687ed1b7e638a4cbf2f02089,6880d44c1f773f0edab43eae,,,,,,,,,,,,,50,0,,./stim/wavs/castilian_match_declarative-broad-focus_Marta-abre-el-regalo.wav,,,,,,,,,,,,,,,,,,,,,,235.682,238.2484,0,1,2.0383,,0,6,6,49,1,0,castilian,,,,,,,,,,,,,,,,,,,,,,,,,,,,,,,,,,,,,,,,,,,,,,,,,,,,,,,,
,,,,,,,,,65ddfaeab5c421556410b938,Spanish,13 or older,"no, only English or Spanish",no,2025-07-23_08h24.36.119,empathy_intonation_perc,2024.2.4,Win32,60.24096386,65ddfaeab5c421556410b938,687ed1b7e638a4cbf2f02089,6880d44c1f773f0edab43eae,,,,,,,,,,,,,83,0,,./stim/wavs/mexican_mismatch_declarative-broad-focus_Mi-tia-odia-la-lluvia.wav,,,,,,,,,,,,,,,,,,,,,,238.249,240.6321,0,1,1.853,,0,7,7,82,1,0,mexican,,,,,,,,,,,,,,,,,,,,,,,,,,,,,,,,,,,,,,,,,,,,,,,,,,,,,,,,
,,,,,,,,,65ddfaeab5c421556410b938,Spanish,13 or older,"no, only English or Spanish",no,2025-07-23_08h24.36.119,empathy_intonation_perc,2024.2.4,Win32,60.24096386,65ddfaeab5c421556410b938,687ed1b7e638a4cbf2f02089,6880d44c1f773f0edab43eae,,,,,,,,,,,,,81,0,,./stim/wavs/mexican_mismatch_declarative-broad-focus_La-maestra-vive-en-Paris.wav,,,,,,,,,,,,,,,,,,,,,,240.6327,243.0999,0,1,1.944,,0,8,8,80,1,0,mexican,,,,,,,,,,,,,,,,,,,,,,,,,,,,,,,,,,,,,,,,,,,,,,,,,,,,,,,,
,,,,,,,,,65ddfaeab5c421556410b938,Spanish,13 or older,"no, only English or Spanish",no,2025-07-23_08h24.36.119,empathy_intonation_perc,2024.2.4,Win32,60.24096386,65ddfaeab5c421556410b938,687ed1b7e638a4cbf2f02089,6880d44c1f773f0edab43eae,,,,,,,,,,,,,69,0,,./stim/wavs/castilian_mismatch_declarative-broad-focus_El-nino-oye-el-rio.wav,,,,,,,,,,,,,,,,,,,,,,243.1006,245.7667,0,1,2.1359,,0,9,9,68,1,0,castilian,,,,,,,,,,,,,,,,,,,,,,,,,,,,,,,,,,,,,,,,,,,,,,,,,,,,,,,,
,,,,,,,,,65ddfaeab5c421556410b938,Spanish,13 or older,"no, only English or Spanish",no,2025-07-23_08h24.36.119,empathy_intonation_perc,2024.2.4,Win32,60.24096386,65ddfaeab5c421556410b938,687ed1b7e638a4cbf2f02089,6880d44c1f773f0edab43eae,,,,,,,,,,,,,5,1,,./stim/wavs/castilian_match_interrogative-total-yn_Mariano-habla-del-tiempo.wav,,,,,,,,,,,,,,,,,,,,,,245.7675,248.0516,1,1,1.7757,,0,10,10,4,1,0,castilian,,,,,,,,,,,,,,,,,,,,,,,,,,,,,,,,,,,,,,,,,,,,,,,,,,,,,,,,
,,,,,,,,,65ddfaeab5c421556410b938,Spanish,13 or older,"no, only English or Spanish",no,2025-07-23_08h24.36.119,empathy_intonation_perc,2024.2.4,Win32,60.24096386,65ddfaeab5c421556410b938,687ed1b7e638a4cbf2f02089,6880d44c1f773f0edab43eae,,,,,,,,,,,,,21,1,,./stim/wavs/puertorican_match_interrogative-total-yn_David-leia-el-libro.wav,,,,,,,,,,,,,,,,,,,,,,248.0522,250.3505,0,0,1.7685,,0,11,11,20,1,1,puertorican,,,,,,,,,,,,,,,,,,,,,,,,,,,,,,,,,,,,,,,,,,,,,,,,,,,,,,,,
,,,,,,,,,65ddfaeab5c421556410b938,Spanish,13 or older,"no, only English or Spanish",no,2025-07-23_08h24.36.119,empathy_intonation_perc,2024.2.4,Win32,60.24096386,65ddfaeab5c421556410b938,687ed1b7e638a4cbf2f02089,6880d44c1f773f0edab43eae,,,,,,,,,,,,,39,1,,./stim/wavs/mexican_mismatch_interrogative-total-yn_Mi-tia-odia-la-lluvia.wav,,,,,,,,,,,,,,,,,,,,,,250.3511,252.9348,1,1,2.0604,,0,12,12,38,1,0,mexican,,,,,,,,,,,,,,,,,,,,,,,,,,,,,,,,,,,,,,,,,,,,,,,,,,,,,,,,
,,,,,,,,,65ddfaeab5c421556410b938,Spanish,13 or older,"no, only English or Spanish",no,2025-07-23_08h24.36.119,empathy_intonation_perc,2024.2.4,Win32,60.24096386,65ddfaeab5c421556410b938,687ed1b7e638a4cbf2f02089,6880d44c1f773f0edab43eae,,,,,,,,,,,,,58,0,,./stim/wavs/mexican_match_declarative-broad-focus_Daniel-iba-a-Bolivia.wav,,,,,,,,,,,,,,,,,,,,,,252.9356,255.3013,0,1,1.8392,,0,13,13,57,1,0,mexican,,,,,,,,,,,,,,,,,,,,,,,,,,,,,,,,,,,,,,,,,,,,,,,,,,,,,,,,
,,,,,,,,,65ddfaeab5c421556410b938,Spanish,13 or older,"no, only English or Spanish",no,2025-07-23_08h24.36.119,empathy_intonation_perc,2024.2.4,Win32,60.24096386,65ddfaeab5c421556410b938,687ed1b7e638a4cbf2f02089,6880d44c1f773f0edab43eae,,,,,,,,,,,,,73,0,,./stim/wavs/castilian_mismatch_declarative-broad-focus_Mi-tia-odia-la-lluvia.wav,,,,,,,,,,,,,,,,,,,,,,255.302,257.9019,0,1,2.0691,,0,14,14,72,1,0,castilian,,,,,,,,,,,,,,,,,,,,,,,,,,,,,,,,,,,,,,,,,,,,,,,,,,,,,,,,
,,,,,,,,,65ddfaeab5c421556410b938,Spanish,13 or older,"no, only English or Spanish",no,2025-07-23_08h24.36.119,empathy_intonation_perc,2024.2.4,Win32,60.24096386,65ddfaeab5c421556410b938,687ed1b7e638a4cbf2f02089,6880d44c1f773f0edab43eae,,,,,,,,,,,,,22,1,,./stim/wavs/puertorican_match_interrogative-total-yn_Emilio-ama-la-marcha.wav,,,,,,,,,,,,,,,,,,,,,,257.9025,261.0024,0,0,2.5745,,0,15,15,21,1,1,puertorican,,,,,,,,,,,,,,,,,,,,,,,,,,,,,,,,,,,,,,,,,,,,,,,,,,,,,,,,
,,,,,,,,,65ddfaeab5c421556410b938,Spanish,13 or older,"no, only English or Spanish",no,2025-07-23_08h24.36.119,empathy_intonation_perc,2024.2.4,Win32,60.24096386,65ddfaeab5c421556410b938,687ed1b7e638a4cbf2f02089,6880d44c1f773f0edab43eae,,,,,,,,,,,,,20,1,,./stim/wavs/puertorican_match_interrogative-total-yn_Daniel-iba-a-Bolivia.wav,,,,,,,,,,,,,,,,,,,,,,261.0029,263.086,1,1,1.5568,,0,16,16,19,1,1,puertorican,,,,,,,,,,,,,,,,,,,,,,,,,,,,,,,,,,,,,,,,,,,,,,,,,,,,,,,,
,,,,,,,,,65ddfaeab5c421556410b938,Spanish,13 or older,"no, only English or Spanish",no,2025-07-23_08h24.36.119,empathy_intonation_perc,2024.2.4,Win32,60.24096386,65ddfaeab5c421556410b938,687ed1b7e638a4cbf2f02089,6880d44c1f773f0edab43eae,,,,,,,,,,,,,36,1,,./stim/wavs/mexican_mismatch_interrogative-total-yn_El-nino-oye-el-rio.wav,,,,,,,,,,,,,,,,,,,,,,263.0867,265.7034,1,1,2.0951,,0,17,17,35,1,0,mexican,,,,,,,,,,,,,,,,,,,,,,,,,,,,,,,,,,,,,,,,,,,,,,,,,,,,,,,,
,,,,,,,,,65ddfaeab5c421556410b938,Spanish,13 or older,"no, only English or Spanish",no,2025-07-23_08h24.36.119,empathy_intonation_perc,2024.2.4,Win32,60.24096386,65ddfaeab5c421556410b938,687ed1b7e638a4cbf2f02089,6880d44c1f773f0edab43eae,,,,,,,,,,,,,14,1,,./stim/wavs/mexican_match_interrogative-total-yn_Daniel-iba-a-Bolivia.wav,,,,,,,,,,,,,,,,,,,,,,265.704,267.7703,1,1,1.54,,0,18,18,13,1,0,mexican,,,,,,,,,,,,,,,,,,,,,,,,,,,,,,,,,,,,,,,,,,,,,,,,,,,,,,,,
,,,,,,,,,65ddfaeab5c421556410b938,Spanish,13 or older,"no, only English or Spanish",no,2025-07-23_08h24.36.119,empathy_intonation_perc,2024.2.4,Win32,60.24096386,65ddfaeab5c421556410b938,687ed1b7e638a4cbf2f02089,6880d44c1f773f0edab43eae,,,,,,,,,,,,,3,1,,./stim/wavs/castilian_match_interrogative-total-yn_Manuela-vende-el-carro.wav,,,,,,,,,,,,,,,,,,,,,,267.7709,270.0206,1,1,1.7239,,0,19,19,2,1,0,castilian,,,,,,,,,,,,,,,,,,,,,,,,,,,,,,,,,,,,,,,,,,,,,,,,,,,,,,,,
,,,,,,,,,65ddfaeab5c421556410b938,Spanish,13 or older,"no, only English or Spanish",no,2025-07-23_08h24.36.119,empathy_intonation_perc,2024.2.4,Win32,60.24096386,65ddfaeab5c421556410b938,687ed1b7e638a4cbf2f02089,6880d44c1f773f0edab43eae,,,,,,,,,,,,,2,1,,./stim/wavs/castilian_match_interrogative-total-yn_Emilio-ama-la-marcha.wav,,,,,,,,,,,,,,,,,,,,,,270.0212,272.0934,1,1,1.549,,0,20,20,1,1,0,castilian,,,,,,,,,,,,,,,,,,,,,,,,,,,,,,,,,,,,,,,,,,,,,,,,,,,,,,,,
,,,,,,,,,65ddfaeab5c421556410b938,Spanish,13 or older,"no, only English or Spanish",no,2025-07-23_08h24.36.119,empathy_intonation_perc,2024.2.4,Win32,60.24096386,65ddfaeab5c421556410b938,687ed1b7e638a4cbf2f02089,6880d44c1f773f0edab43eae,,,,,,,,,,,,,62,0,,./stim/wavs/mexican_match_declarative-broad-focus_Marta-abre-el-regalo.wav,,,,,,,,,,,,,,,,,,,,,,272.0943,274.0216,0,1,1.4024,,0,21,21,61,1,0,mexican,,,,,,,,,,,,,,,,,,,,,,,,,,,,,,,,,,,,,,,,,,,,,,,,,,,,,,,,
,,,,,,,,,65ddfaeab5c421556410b938,Spanish,13 or older,"no, only English or Spanish",no,2025-07-23_08h24.36.119,empathy_intonation_perc,2024.2.4,Win32,60.24096386,65ddfaeab5c421556410b938,687ed1b7e638a4cbf2f02089,6880d44c1f773f0edab43eae,,,,,,,,,,,,,11,1,,./stim/wavs/cuban_match_interrogative-total-yn_Mariano-habla-del-tiempo.wav,,,,,,,,,,,,,,,,,,,,,,274.0221,276.2716,0,0,1.7278,,0,22,22,10,1,1,cuban,,,,,,,,,,,,,,,,,,,,,,,,,,,,,,,,,,,,,,,,,,,,,,,,,,,,,,,,
,,,,,,,,,65ddfaeab5c421556410b938,Spanish,13 or older,"no, only English or Spanish",no,2025-07-23_08h24.36.119,empathy_intonation_perc,2024.2.4,Win32,60.24096386,65ddfaeab5c421556410b938,687ed1b7e638a4cbf2f02089,6880d44c1f773f0edab43eae,,,,,,,,,,,,,31,1,,./stim/wavs/cuban_mismatch_interrogative-total-yn_El-nino-oye-el-rio.wav,,,,,,,,,,,,,,,,,,,,,,276.2723,278.3063,0,0,1.5077,,0,23,23,30,1,1,cuban,,,,,,,,,,,,,,,,,,,,,,,,,,,,,,,,,,,,,,,,,,,,,,,,,,,,,,,,
,,,,,,,,,65ddfaeab5c421556410b938,Spanish,13 or older,"no, only English or Spanish",no,2025-07-23_08h24.36.119,empathy_intonation_perc,2024.2.4,Win32,60.24096386,65ddfaeab5c421556410b938,687ed1b7e638a4cbf2f02089,6880d44c1f773f0edab43eae,,,,,,,,,,,,,35,1,,./stim/wavs/mexican_mismatch_interrogative-total-yn_El-hombre-mira-la-luna.wav,,,,,,,,,,,,,,,,,,,,,,278.3085,280.239,1,1,1.4085,,0,24,24,34,1,0,mexican,,,,,,,,,,,,,,,,,,,,,,,,,,,,,,,,,,,,,,,,,,,,,,,,,,,,,,,,
,,,,,,,,,65ddfaeab5c421556410b938,Spanish,13 or older,"no, only English or Spanish",no,2025-07-23_08h24.36.119,empathy_intonation_perc,2024.2.4,Win32,60.24096386,65ddfaeab5c421556410b938,687ed1b7e638a4cbf2f02089,6880d44c1f773f0edab43eae,,,,,,,,,,,,,47,0,,./stim/wavs/castilian_match_declarative-broad-focus_Manuela-vende-el-carro.wav,,,,,,,,,,,,,,,,,,,,,,280.2398,282.6895,0,1,1.9268,,0,25,25,46,1,0,castilian,,,,,,,,,,,,,,,,,,,,,,,,,,,,,,,,,,,,,,,,,,,,,,,,,,,,,,,,
,,,,,,,,,65ddfaeab5c421556410b938,Spanish,13 or older,"no, only English or Spanish",no,2025-07-23_08h24.36.119,empathy_intonation_perc,2024.2.4,Win32,60.24096386,65ddfaeab5c421556410b938,687ed1b7e638a4cbf2f02089,6880d44c1f773f0edab43eae,,,,,,,,,,,,,4,1,,./stim/wavs/castilian_match_interrogative-total-yn_Maria-bebe-el-vino.wav,,,,,,,,,,,,,,,,,,,,,,282.6902,284.8066,1,1,1.5837,,0,26,26,3,1,0,castilian,,,,,,,,,,,,,,,,,,,,,,,,,,,,,,,,,,,,,,,,,,,,,,,,,,,,,,,,
,,,,,,,,,65ddfaeab5c421556410b938,Spanish,13 or older,"no, only English or Spanish",no,2025-07-23_08h24.36.119,empathy_intonation_perc,2024.2.4,Win32,60.24096386,65ddfaeab5c421556410b938,687ed1b7e638a4cbf2f02089,6880d44c1f773f0edab43eae,,,,,,,,,,,,,26,1,,./stim/wavs/castilian_mismatch_interrogative-total-yn_La-nina-lava-el-plato.wav,,,,,,,,,,,,,,,,,,,,,,284.8073,287.124,1,1,1.7926,,0,27,27,25,1,0,castilian,,,,,,,,,,,,,,,,,,,,,,,,,,,,,,,,,,,,,,,,,,,,,,,,,,,,,,,,
,,,,,,,,,65ddfaeab5c421556410b938,Spanish,13 or older,"no, only English or Spanish",no,2025-07-23_08h24.36.119,empathy_intonation_perc,2024.2.4,Win32,60.24096386,65ddfaeab5c421556410b938,687ed1b7e638a4cbf2f02089,6880d44c1f773f0edab43eae,,,,,,,,,,,,,6,1,,./stim/wavs/castilian_match_interrogative-total-yn_Marta-abre-el-regalo.wav,,,,,,,,,,,,,,,,,,,,,,287.1256,289.2239,1,1,1.5548,,0,28,28,5,1,0,castilian,,,,,,,,,,,,,,,,,,,,,,,,,,,,,,,,,,,,,,,,,,,,,,,,,,,,,,,,
,,,,,,,,,65ddfaeab5c421556410b938,Spanish,13 or older,"no, only English or Spanish",no,2025-07-23_08h24.36.119,empathy_intonation_perc,2024.2.4,Win32,60.24096386,65ddfaeab5c421556410b938,687ed1b7e638a4cbf2f02089,6880d44c1f773f0edab43eae,,,,,,,,,,,,,74,0,,./stim/wavs/cuban_mismatch_declarative-broad-focus_El-bebe-comia-muy-bien.wav,,,,,,,,,,,,,,,,,,,,,,289.2245,291.4432,0,1,1.6954,,0,29,29,73,1,0,cuban,,,,,,,,,,,,,,,,,,,,,,,,,,,,,,,,,,,,,,,,,,,,,,,,,,,,,,,,
,,,,,,,,,65ddfaeab5c421556410b938,Spanish,13 or older,"no, only English or Spanish",no,2025-07-23_08h24.36.119,empathy_intonation_perc,2024.2.4,Win32,60.24096386,65ddfaeab5c421556410b938,687ed1b7e638a4cbf2f02089,6880d44c1f773f0edab43eae,,,,,,,,,,,,,66,0,,./stim/wavs/puertorican_match_declarative-broad-focus_Emilio-ama-la-marcha.wav,,,,,,,,,,,,,,,,,,,,,,291.4438,293.5599,0,1,1.5796,,0,30,30,65,1,0,puertorican,,,,,,,,,,,,,,,,,,,,,,,,,,,,,,,,,,,,,,,,,,,,,,,,,,,,,,,,
,,,,,,,,,65ddfaeab5c421556410b938,Spanish,13 or older,"no, only English or Spanish",no,2025-07-23_08h24.36.119,empathy_intonation_perc,2024.2.4,Win32,60.24096386,65ddfaeab5c421556410b938,687ed1b7e638a4cbf2f02089,6880d44c1f773f0edab43eae,,,,,,,,,,,,,46,0,,./stim/wavs/castilian_match_declarative-broad-focus_Emilio-ama-la-marcha.wav,,,,,,,,,,,,,,,,,,,,,,293.5603,295.7508,0,1,1.6704,,0,31,31,45,1,0,castilian,,,,,,,,,,,,,,,,,,,,,,,,,,,,,,,,,,,,,,,,,,,,,,,,,,,,,,,,
,,,,,,,,,65ddfaeab5c421556410b938,Spanish,13 or older,"no, only English or Spanish",no,2025-07-23_08h24.36.119,empathy_intonation_perc,2024.2.4,Win32,60.24096386,65ddfaeab5c421556410b938,687ed1b7e638a4cbf2f02089,6880d44c1f773f0edab43eae,,,,,,,,,,,,,82,0,,./stim/wavs/mexican_mismatch_declarative-broad-focus_Mi-novio-viene-del-lago.wav,,,,,,,,,,,,,,,,,,,,,,295.7513,297.7256,0,1,1.4578,,0,32,32,81,1,0,mexican,,,,,,,,,,,,,,,,,,,,,,,,,,,,,,,,,,,,,,,,,,,,,,,,,,,,,,,,
,,,,,,,,,65ddfaeab5c421556410b938,Spanish,13 or older,"no, only English or Spanish",no,2025-07-23_08h24.36.119,empathy_intonation_perc,2024.2.4,Win32,60.24096386,65ddfaeab5c421556410b938,687ed1b7e638a4cbf2f02089,6880d44c1f773f0edab43eae,,,,,,,,,,,,,65,0,,./stim/wavs/puertorican_match_declarative-broad-focus_David-leia-el-libro.wav,,,,,,,,,,,,,,,,,,,,,,297.7267,300.2497,0,1,2.002,,0,33,33,64,1,0,puertorican,,,,,,,,,,,,,,,,,,,,,,,,,,,,,,,,,,,,,,,,,,,,,,,,,,,,,,,,
,,,,,,,,,65ddfaeab5c421556410b938,Spanish,13 or older,"no, only English or Spanish",no,2025-07-23_08h24.36.119,empathy_intonation_perc,2024.2.4,Win32,60.24096386,65ddfaeab5c421556410b938,687ed1b7e638a4cbf2f02089,6880d44c1f773f0edab43eae,,,,,,,,,,,,,51,0,,./stim/wavs/cuban_match_declarative-broad-focus_Ana-lleva-el-abrigo.wav,,,,,,,,,,,,,,,,,,,,,,300.2502,302.3764,0,1,1.5996,,0,34,34,50,1,0,cuban,,,,,,,,,,,,,,,,,,,,,,,,,,,,,,,,,,,,,,,,,,,,,,,,,,,,,,,,
,,,,,,,,,65ddfaeab5c421556410b938,Spanish,13 or older,"no, only English or Spanish",no,2025-07-23_08h24.36.119,empathy_intonation_perc,2024.2.4,Win32,60.24096386,65ddfaeab5c421556410b938,687ed1b7e638a4cbf2f02089,6880d44c1f773f0edab43eae,,,,,,,,,,,,,12,1,,./stim/wavs/cuban_match_interrogative-total-yn_Marta-abre-el-regalo.wav,,,,,,,,,,,,,,,,,,,,,,302.3774,304.5622,0,0,1.6636,,0,35,35,11,1,1,cuban,,,,,,,,,,,,,,,,,,,,,,,,,,,,,,,,,,,,,,,,,,,,,,,,,,,,,,,,
,,,,,,,,,65ddfaeab5c421556410b938,Spanish,13 or older,"no, only English or Spanish",no,2025-07-23_08h24.36.119,empathy_intonation_perc,2024.2.4,Win32,60.24096386,65ddfaeab5c421556410b938,687ed1b7e638a4cbf2f02089,6880d44c1f773f0edab43eae,,,,,,,,,,,,,77,0,,./stim/wavs/cuban_mismatch_declarative-broad-focus_Mi-novio-viene-del-lago.wav,,,,,,,,,,,,,,,,,,,,,,304.5626,306.9604,0,1,1.8762,,0,36,36,76,1,0,cuban,,,,,,,,,,,,,,,,,,,,,,,,,,,,,,,,,,,,,,,,,,,,,,,,,,,,,,,,
,,,,,,,,,65ddfaeab5c421556410b938,Spanish,13 or older,"no, only English or Spanish",no,2025-07-23_08h24.36.119,empathy_intonation_perc,2024.2.4,Win32,60.24096386,65ddfaeab5c421556410b938,687ed1b7e638a4cbf2f02089,6880d44c1f773f0edab43eae,,,,,,,,,,,,,27,1,,./stim/wavs/castilian_mismatch_interrogative-total-yn_Mi-madre-come-la-fruta.wav,,,,,,,,,,,,,,,,,,,,,,306.961,309.0942,1,1,1.6018,,0,37,37,26,1,0,castilian,,,,,,,,,,,,,,,,,,,,,,,,,,,,,,,,,,,,,,,,,,,,,,,,,,,,,,,,
,,,,,,,,,65ddfaeab5c421556410b938,Spanish,13 or older,"no, only English or Spanish",no,2025-07-23_08h24.36.119,empathy_intonation_perc,2024.2.4,Win32,60.24096386,65ddfaeab5c421556410b938,687ed1b7e638a4cbf2f02089,6880d44c1f773f0edab43eae,,,,,,,,,,,,,45,0,,./stim/wavs/castilian_match_declarative-broad-focus_David-leia-el-libro.wav,,,,,,,,,,,,,,,,,,,,,,309.0949,311.8446,0,1,2.2198,,0,38,38,44,1,0,castilian,,,,,,,,,,,,,,,,,,,,,,,,,,,,,,,,,,,,,,,,,,,,,,,,,,,,,,,,
,,,,,,,,,65ddfaeab5c421556410b938,Spanish,13 or older,"no, only English or Spanish",no,2025-07-23_08h24.36.119,empathy_intonation_perc,2024.2.4,Win32,60.24096386,65ddfaeab5c421556410b938,687ed1b7e638a4cbf2f02089,6880d44c1f773f0edab43eae,,,,,,,,,,,,,64,0,,./stim/wavs/puertorican_match_declarative-broad-focus_Daniel-iba-a-Bolivia.wav,,,,,,,,,,,,,,,,,,,,,,311.8453,314.2118,0,1,1.8406,,0,39,39,63,1,0,puertorican,,,,,,,,,,,,,,,,,,,,,,,,,,,,,,,,,,,,,,,,,,,,,,,,,,,,,,,,
,,,,,,,,,65ddfaeab5c421556410b938,Spanish,13 or older,"no, only English or Spanish",no,2025-07-23_08h24.36.119,empathy_intonation_perc,2024.2.4,Win32,60.24096386,65ddfaeab5c421556410b938,687ed1b7e638a4cbf2f02089,6880d44c1f773f0edab43eae,,,,,,,,,,,,,24,1,,./stim/wavs/puertorican_match_interrogative-total-yn_Maria-bebe-el-vino.wav,,,,,,,,,,,,,,,,,,,,,,314.2124,316.0455,1,1,1.3033,,0,40,40,23,1,1,puertorican,,,,,,,,,,,,,,,,,,,,,,,,,,,,,,,,,,,,,,,,,,,,,,,,,,,,,,,,
,,,,,,,,,65ddfaeab5c421556410b938,Spanish,13 or older,"no, only English or Spanish",no,2025-07-23_08h24.36.119,empathy_intonation_perc,2024.2.4,Win32,60.24096386,65ddfaeab5c421556410b938,687ed1b7e638a4cbf2f02089,6880d44c1f773f0edab43eae,,,,,,,,,,,,,70,0,,./stim/wavs/castilian_mismatch_declarative-broad-focus_La-maestra-vive-en-Paris.wav,,,,,,,,,,,,,,,,,,,,,,316.0461,318.52,0,1,1.9517,,0,41,41,69,1,0,castilian,,,,,,,,,,,,,,,,,,,,,,,,,,,,,,,,,,,,,,,,,,,,,,,,,,,,,,,,
,,,,,,,,,65ddfaeab5c421556410b938,Spanish,13 or older,"no, only English or Spanish",no,2025-07-23_08h24.36.119,empathy_intonation_perc,2024.2.4,Win32,60.24096386,65ddfaeab5c421556410b938,687ed1b7e638a4cbf2f02089,6880d44c1f773f0edab43eae,,,,,,,,,,,,,25,1,,./stim/wavs/castilian_mismatch_interrogative-total-yn_La-maestra-vive-en-Paris.wav,,,,,,,,,,,,,,,,,,,,,,318.5203,321.2733,1,1,2.2382,,0,42,42,24,1,0,castilian,,,,,,,,,,,,,,,,,,,,,,,,,,,,,,,,,,,,,,,,,,,,,,,,,,,,,,,,
,,,,,,,,,65ddfaeab5c421556410b938,Spanish,13 or older,"no, only English or Spanish",no,2025-07-23_08h24.36.119,empathy_intonation_perc,2024.2.4,Win32,60.24096386,65ddfaeab5c421556410b938,687ed1b7e638a4cbf2f02089,6880d44c1f773f0edab43eae,,,,,,,,,,,,,78,0,,./stim/wavs/cuban_mismatch_declarative-broad-focus_Mi-tia-odia-la-lluvia.wav,,,,,,,,,,,,,,,,,,,,,,321.274,325.6305,0,1,3.8338,,0,43,43,77,1,0,cuban,,,,,,,,,,,,,,,,,,,,,,,,,,,,,,,,,,,,,,,,,,,,,,,,,,,,,,,,
,,,,,,,,,65ddfaeab5c421556410b938,Spanish,13 or older,"no, only English or Spanish",no,2025-07-23_08h24.36.119,empathy_intonation_perc,2024.2.4,Win32,60.24096386,65ddfaeab5c421556410b938,687ed1b7e638a4cbf2f02089,6880d44c1f773f0edab43eae,,,,,,,,,,,,,57,0,,./stim/wavs/mexican_match_declarative-broad-focus_Ana-lleva-el-abrigo.wav,,,,,,,,,,,,,,,,,,,,,,325.6311,327.6641,0,1,1.5192,,0,44,44,56,1,0,mexican,,,,,,,,,,,,,,,,,,,,,,,,,,,,,,,,,,,,,,,,,,,,,,,,,,,,,,,,
,,,,,,,,,65ddfaeab5c421556410b938,Spanish,13 or older,"no, only English or Spanish",no,2025-07-23_08h24.36.119,empathy_intonation_perc,2024.2.4,Win32,60.24096386,65ddfaeab5c421556410b938,687ed1b7e638a4cbf2f02089,6880d44c1f773f0edab43eae,,,,,,,,,,,,,85,0,,./stim/wavs/puertorican_mismatch_declarative-broad-focus_El-hombre-mira-la-luna.wav,,,,,,,,,,,,,,,,,,,,,,327.6647,332.9725,0,1,4.7858,,0,45,45,84,1,0,puertorican,,,,,,,,,,,,,,,,,,,,,,,,,,,,,,,,,,,,,,,,,,,,,,,,,,,,,,,,
,,,,,,,,,65ddfaeab5c421556410b938,Spanish,13 or older,"no, only English or Spanish",no,2025-07-23_08h24.36.119,empathy_intonation_perc,2024.2.4,Win32,60.24096386,65ddfaeab5c421556410b938,687ed1b7e638a4cbf2f02089,6880d44c1f773f0edab43eae,,,,,,,,,,,,,44,1,,./stim/wavs/puertorican_mismatch_interrogative-total-yn_Mi-madre-come-la-fruta.wav,,,,,,,,,,,,,,,,,,,,,,332.9728,337.2883,1,1,3.8006,,0,46,46,43,1,1,puertorican,,,,,,,,,,,,,,,,,,,,,,,,,,,,,,,,,,,,,,,,,,,,,,,,,,,,,,,,
,,,,,,,,,65ddfaeab5c421556410b938,Spanish,13 or older,"no, only English or Spanish",no,2025-07-23_08h24.36.119,empathy_intonation_perc,2024.2.4,Win32,60.24096386,65ddfaeab5c421556410b938,687ed1b7e638a4cbf2f02089,6880d44c1f773f0edab43eae,,,,,,,,,,,,,28,1,,./stim/wavs/castilian_mismatch_interrogative-total-yn_Mi-novio-viene-del-lago.wav,,,,,,,,,,,,,,,,,,,,,,337.2887,341.309,1,1,3.4873,,0,47,47,27,1,0,castilian,,,,,,,,,,,,,,,,,,,,,,,,,,,,,,,,,,,,,,,,,,,,,,,,,,,,,,,,
,,,,,,,,,65ddfaeab5c421556410b938,Spanish,13 or older,"no, only English or Spanish",no,2025-07-23_08h24.36.119,empathy_intonation_perc,2024.2.4,Win32,60.24096386,65ddfaeab5c421556410b938,687ed1b7e638a4cbf2f02089,6880d44c1f773f0edab43eae,,,,,,,,,,,,,29,1,,./stim/wavs/castilian_mismatch_interrogative-total-yn_Mi-tia-odia-la-lluvia.wav,,,,,,,,,,,,,,,,,,,,,,341.3098,344.0503,1,1,2.2263,,0,48,48,28,1,0,castilian,,,,,,,,,,,,,,,,,,,,,,,,,,,,,,,,,,,,,,,,,,,,,,,,,,,,,,,,
,,,,,,,,,65ddfaeab5c421556410b938,Spanish,13 or older,"no, only English or Spanish",no,2025-07-23_08h24.36.119,empathy_intonation_perc,2024.2.4,Win32,60.24096386,65ddfaeab5c421556410b938,687ed1b7e638a4cbf2f02089,6880d44c1f773f0edab43eae,,,,,,,,,,,,,1,1,,./stim/wavs/castilian_match_interrogative-total-yn_David-leia-el-libro.wav,,,,,,,,,,,,,,,,,,,,,,344.051,346.6367,1,1,2.0638,,0,49,49,0,1,0,castilian,,,,,,,,,,,,,,,,,,,,,,,,,,,,,,,,,,,,,,,,,,,,,,,,,,,,,,,,
,,,,,,,,,65ddfaeab5c421556410b938,Spanish,13 or older,"no, only English or Spanish",no,2025-07-23_08h24.36.119,empathy_intonation_perc,2024.2.4,Win32,60.24096386,65ddfaeab5c421556410b938,687ed1b7e638a4cbf2f02089,6880d44c1f773f0edab43eae,,,,,,,,,,,,,72,0,,./stim/wavs/castilian_mismatch_declarative-broad-focus_Mi-novio-viene-del-lago.wav,,,,,,,,,,,,,,,,,,,,,,346.6372,349.3415,1,0,2.1835,,0,50,50,71,1,0,castilian,,,,,,,,,,,,,,,,,,,,,,,,,,,,,,,,,,,,,,,,,,,,,,,,,,,,,,,,
,,,,,,,,,65ddfaeab5c421556410b938,Spanish,13 or older,"no, only English or Spanish",no,2025-07-23_08h24.36.119,empathy_intonation_perc,2024.2.4,Win32,60.24096386,65ddfaeab5c421556410b938,687ed1b7e638a4cbf2f02089,6880d44c1f773f0edab43eae,,,,,,,,,,,,,52,0,,./stim/wavs/cuban_match_declarative-broad-focus_Daniel-iba-a-Bolivia.wav,,,,,,,,,,,,,,,,,,,,,,349.342,353.8353,0,1,3.9727,,0,51,51,51,1,0,cuban,,,,,,,,,,,,,,,,,,,,,,,,,,,,,,,,,,,,,,,,,,,,,,,,,,,,,,,,
,,,,,,,,,65ddfaeab5c421556410b938,Spanish,13 or older,"no, only English or Spanish",no,2025-07-23_08h24.36.119,empathy_intonation_perc,2024.2.4,Win32,60.24096386,65ddfaeab5c421556410b938,687ed1b7e638a4cbf2f02089,6880d44c1f773f0edab43eae,,,,,,,,,,,,,15,1,,./stim/wavs/mexican_match_interrogative-total-yn_David-leia-el-libro.wav,,,,,,,,,,,,,,,,,,,,,,353.836,358.6115,1,1,4.2529,,0,52,52,14,1,0,mexican,,,,,,,,,,,,,,,,,,,,,,,,,,,,,,,,,,,,,,,,,,,,,,,,,,,,,,,,
,,,,,,,,,65ddfaeab5c421556410b938,Spanish,13 or older,"no, only English or Spanish",no,2025-07-23_08h24.36.119,empathy_intonation_perc,2024.2.4,Win32,60.24096386,65ddfaeab5c421556410b938,687ed1b7e638a4cbf2f02089,6880d44c1f773f0edab43eae,,,,,,,,,,,,,13,1,,./stim/wavs/mexican_match_interrogative-total-yn_Ana-lleva-el-abrigo.wav,,,,,,,,,,,,,,,,,,,,,,358.6122,361.1368,1,1,2.009,,0,53,53,12,1,0,mexican,,,,,,,,,,,,,,,,,,,,,,,,,,,,,,,,,,,,,,,,,,,,,,,,,,,,,,,,
,,,,,,,,,65ddfaeab5c421556410b938,Spanish,13 or older,"no, only English or Spanish",no,2025-07-23_08h24.36.119,empathy_intonation_perc,2024.2.4,Win32,60.24096386,65ddfaeab5c421556410b938,687ed1b7e638a4cbf2f02089,6880d44c1f773f0edab43eae,,,,,,,,,,,,,54,0,,./stim/wavs/cuban_match_declarative-broad-focus_Maria-bebe-el-vino.wav,,,,,,,,,,,,,,,,,,,,,,361.1375,363.5871,0,1,1.9204,,0,54,54,53,1,0,cuban,,,,,,,,,,,,,,,,,,,,,,,,,,,,,,,,,,,,,,,,,,,,,,,,,,,,,,,,
,,,,,,,,,65ddfaeab5c421556410b938,Spanish,13 or older,"no, only English or Spanish",no,2025-07-23_08h24.36.119,empathy_intonation_perc,2024.2.4,Win32,60.24096386,65ddfaeab5c421556410b938,687ed1b7e638a4cbf2f02089,6880d44c1f773f0edab43eae,,,,,,,,,,,,,40,1,,./stim/wavs/puertorican_mismatch_interrogative-total-yn_El-hombre-mira-la-luna.wav,,,,,,,,,,,,,,,,,,,,,,363.5877,366.0376,1,1,1.9182,,0,55,55,39,1,1,puertorican,,,,,,,,,,,,,,,,,,,,,,,,,,,,,,,,,,,,,,,,,,,,,,,,,,,,,,,,
,,,,,,,,,65ddfaeab5c421556410b938,Spanish,13 or older,"no, only English or Spanish",no,2025-07-23_08h24.36.119,empathy_intonation_perc,2024.2.4,Win32,60.24096386,65ddfaeab5c421556410b938,687ed1b7e638a4cbf2f02089,6880d44c1f773f0edab43eae,,,,,,,,,,,,,32,1,,./stim/wavs/cuban_mismatch_interrogative-total-yn_Mi-madre-come-la-fruta.wav,,,,,,,,,,,,,,,,,,,,,,366.0382,369.1546,1,1,2.5905,,0,56,56,31,1,1,cuban,,,,,,,,,,,,,,,,,,,,,,,,,,,,,,,,,,,,,,,,,,,,,,,,,,,,,,,,
,,,,,,,,,65ddfaeab5c421556410b938,Spanish,13 or older,"no, only English or Spanish",no,2025-07-23_08h24.36.119,empathy_intonation_perc,2024.2.4,Win32,60.24096386,65ddfaeab5c421556410b938,687ed1b7e638a4cbf2f02089,6880d44c1f773f0edab43eae,,,,,,,,,,,,,42,1,,./stim/wavs/puertorican_mismatch_interrogative-total-yn_La-maestra-vive-en-Paris.wav,,,,,,,,,,,,,,,,,,,,,,369.1555,372.0219,0,0,2.3365,,0,57,57,41,1,1,puertorican,,,,,,,,,,,,,,,,,,,,,,,,,,,,,,,,,,,,,,,,,,,,,,,,,,,,,,,,
,,,,,,,,,65ddfaeab5c421556410b938,Spanish,13 or older,"no, only English or Spanish",no,2025-07-23_08h24.36.119,empathy_intonation_perc,2024.2.4,Win32,60.24096386,65ddfaeab5c421556410b938,687ed1b7e638a4cbf2f02089,6880d44c1f773f0edab43eae,,,,,,,,,,,,,23,1,,./stim/wavs/puertorican_match_interrogative-total-yn_Manuela-vende-el-carro.wav,,,,,,,,,,,,,,,,,,,,,,372.0229,373.9059,1,1,1.3559,,0,58,58,22,1,1,puertorican,,,,,,,,,,,,,,,,,,,,,,,,,,,,,,,,,,,,,,,,,,,,,,,,,,,,,,,,
,,,,,,,,,65ddfaeab5c421556410b938,Spanish,13 or older,"no, only English or Spanish",no,2025-07-23_08h24.36.119,empathy_intonation_perc,2024.2.4,Win32,60.24096386,65ddfaeab5c421556410b938,687ed1b7e638a4cbf2f02089,6880d44c1f773f0edab43eae,,,,,,,,,,,,,19,1,,./stim/wavs/puertorican_match_interrogative-total-yn_Ana-lleva-el-abrigo.wav,,,,,,,,,,,,,,,,,,,,,,373.907,377.0736,1,1,2.6442,,0,59,59,18,1,1,puertorican,,,,,,,,,,,,,,,,,,,,,,,,,,,,,,,,,,,,,,,,,,,,,,,,,,,,,,,,
,,,,,,,,,65ddfaeab5c421556410b938,Spanish,13 or older,"no, only English or Spanish",no,2025-07-23_08h24.36.119,empathy_intonation_perc,2024.2.4,Win32,60.24096386,65ddfaeab5c421556410b938,687ed1b7e638a4cbf2f02089,6880d44c1f773f0edab43eae,,,,,,,,,,,,,63,0,,./stim/wavs/puertorican_match_declarative-broad-focus_Ana-lleva-el-abrigo.wav,,,,,,,,,,,,,,,,,,,,,,377.0753,380.3135,0,1,2.7171,,0,60,60,62,1,0,puertorican,,,,,,,,,,,,,,,,,,,,,,,,,,,,,,,,,,,,,,,,,,,,,,,,,,,,,,,,
,,,,,,,,,65ddfaeab5c421556410b938,Spanish,13 or older,"no, only English or Spanish",no,2025-07-23_08h24.36.119,empathy_intonation_perc,2024.2.4,Win32,60.24096386,65ddfaeab5c421556410b938,687ed1b7e638a4cbf2f02089,6880d44c1f773f0edab43eae,,,,,,,,,,,,,8,1,,./stim/wavs/cuban_match_interrogative-total-yn_Daniel-iba-a-Bolivia.wav,,,,,,,,,,,,,,,,,,,,,,380.3142,383.0406,1,1,2.2079,,0,61,61,7,1,1,cuban,,,,,,,,,,,,,,,,,,,,,,,,,,,,,,,,,,,,,,,,,,,,,,,,,,,,,,,,
,,,,,,,,,65ddfaeab5c421556410b938,Spanish,13 or older,"no, only English or Spanish",no,2025-07-23_08h24.36.119,empathy_intonation_perc,2024.2.4,Win32,60.24096386,65ddfaeab5c421556410b938,687ed1b7e638a4cbf2f02089,6880d44c1f773f0edab43eae,,,,,,,,,,,,,59,0,,./stim/wavs/mexican_match_declarative-broad-focus_David-leia-el-libro.wav,,,,,,,,,,,,,,,,,,,,,,383.0411,385.0908,0,1,1.5217,,0,62,62,58,1,0,mexican,,,,,,,,,,,,,,,,,,,,,,,,,,,,,,,,,,,,,,,,,,,,,,,,,,,,,,,,
,,,,,,,,,65ddfaeab5c421556410b938,Spanish,13 or older,"no, only English or Spanish",no,2025-07-23_08h24.36.119,empathy_intonation_perc,2024.2.4,Win32,60.24096386,65ddfaeab5c421556410b938,687ed1b7e638a4cbf2f02089,6880d44c1f773f0edab43eae,,,,,,,,,,,,,49,0,,./stim/wavs/castilian_match_declarative-broad-focus_Mariano-habla-del-tiempo.wav,,,,,,,,,,,,,,,,,,,,,,385.0914,387.6992,0,1,2.0858,,0,63,63,48,1,0,castilian,,,,,,,,,,,,,,,,,,,,,,,,,,,,,,,,,,,,,,,,,,,,,,,,,,,,,,,,
,,,,,,,,,65ddfaeab5c421556410b938,Spanish,13 or older,"no, only English or Spanish",no,2025-07-23_08h24.36.119,empathy_intonation_perc,2024.2.4,Win32,60.24096386,65ddfaeab5c421556410b938,687ed1b7e638a4cbf2f02089,6880d44c1f773f0edab43eae,,,,,,,,,,,,,61,0,,./stim/wavs/mexican_match_declarative-broad-focus_Mariano-habla-del-tiempo.wav,,,,,,,,,,,,,,,,,,,,,,387.6997,389.6584,0,1,1.4225,,0,64,64,60,1,0,mexican,,,,,,,,,,,,,,,,,,,,,,,,,,,,,,,,,,,,,,,,,,,,,,,,,,,,,,,,
,,,,,,,,,65ddfaeab5c421556410b938,Spanish,13 or older,"no, only English or Spanish",no,2025-07-23_08h24.36.119,empathy_intonation_perc,2024.2.4,Win32,60.24096386,65ddfaeab5c421556410b938,687ed1b7e638a4cbf2f02089,6880d44c1f773f0edab43eae,,,,,,,,,,,,,56,0,,./stim/wavs/cuban_match_declarative-broad-focus_Marta-abre-el-regalo.wav,,,,,,,,,,,,,,,,,,,,,,389.6589,391.8798,0,1,1.7085,,0,65,65,55,1,0,cuban,,,,,,,,,,,,,,,,,,,,,,,,,,,,,,,,,,,,,,,,,,,,,,,,,,,,,,,,
,,,,,,,,,65ddfaeab5c421556410b938,Spanish,13 or older,"no, only English or Spanish",no,2025-07-23_08h24.36.119,empathy_intonation_perc,2024.2.4,Win32,60.24096386,65ddfaeab5c421556410b938,687ed1b7e638a4cbf2f02089,6880d44c1f773f0edab43eae,,,,,,,,,,,,,88,0,,./stim/wavs/puertorican_mismatch_declarative-broad-focus_La-nina-lava-el-plato.wav,,,,,,,,,,,,,,,,,,,,,,391.8802,394.1706,0,1,1.7558,,0,66,66,87,1,0,puertorican,,,,,,,,,,,,,,,,,,,,,,,,,,,,,,,,,,,,,,,,,,,,,,,,,,,,,,,,
,,,,,,,,,65ddfaeab5c421556410b938,Spanish,13 or older,"no, only English or Spanish",no,2025-07-23_08h24.36.119,empathy_intonation_perc,2024.2.4,Win32,60.24096386,65ddfaeab5c421556410b938,687ed1b7e638a4cbf2f02089,6880d44c1f773f0edab43eae,,,,,,,,,,,,,18,1,,./stim/wavs/mexican_match_interrogative-total-yn_Marta-abre-el-regalo.wav,,,,,,,,,,,,,,,,,,,,,,394.1714,396.0428,1,1,1.3522,,0,67,67,17,1,0,mexican,,,,,,,,,,,,,,,,,,,,,,,,,,,,,,,,,,,,,,,,,,,,,,,,,,,,,,,,
,,,,,,,,,65ddfaeab5c421556410b938,Spanish,13 or older,"no, only English or Spanish",no,2025-07-23_08h24.36.119,empathy_intonation_perc,2024.2.4,Win32,60.24096386,65ddfaeab5c421556410b938,687ed1b7e638a4cbf2f02089,6880d44c1f773f0edab43eae,,,,,,,,,,,,,30,1,,./stim/wavs/cuban_mismatch_interrogative-total-yn_El-hombre-mira-la-luna.wav,,,,,,,,,,,,,,,,,,,,,,396.0434,398.3989,0,0,1.8198,,0,68,68,29,1,1,cuban,,,,,,,,,,,,,,,,,,,,,,,,,,,,,,,,,,,,,,,,,,,,,,,,,,,,,,,,
,,,,,,,,,65ddfaeab5c421556410b938,Spanish,13 or older,"no, only English or Spanish",no,2025-07-23_08h24.36.119,empathy_intonation_perc,2024.2.4,Win32,60.24096386,65ddfaeab5c421556410b938,687ed1b7e638a4cbf2f02089,6880d44c1f773f0edab43eae,,,,,,,,,,,,,68,0,,./stim/wavs/puertorican_match_declarative-broad-focus_Maria-bebe-el-vino.wav,,,,,,,,,,,,,,,,,,,,,,398.3999,400.3508,1,0,1.4348,,0,69,69,67,1,0,puertorican,,,,,,,,,,,,,,,,,,,,,,,,,,,,,,,,,,,,,,,,,,,,,,,,,,,,,,,,
,,,,,,,,,65ddfaeab5c421556410b938,Spanish,13 or older,"no, only English or Spanish",no,2025-07-23_08h24.36.119,empathy_intonation_perc,2024.2.4,Win32,60.24096386,65ddfaeab5c421556410b938,687ed1b7e638a4cbf2f02089,6880d44c1f773f0edab43eae,,,,,,,,,,,,,10,1,,./stim/wavs/cuban_match_interrogative-total-yn_Maria-bebe-el-vino.wav,,,,,,,,,,,,,,,,,,,,,,400.3516,403.3476,0,0,2.4817,,0,70,70,9,1,1,cuban,,,,,,,,,,,,,,,,,,,,,,,,,,,,,,,,,,,,,,,,,,,,,,,,,,,,,,,,
,,,,,,,,,65ddfaeab5c421556410b938,Spanish,13 or older,"no, only English or Spanish",no,2025-07-23_08h24.36.119,empathy_intonation_perc,2024.2.4,Win32,60.24096386,65ddfaeab5c421556410b938,687ed1b7e638a4cbf2f02089,6880d44c1f773f0edab43eae,,,,,,,,,,,,,87,0,,./stim/wavs/puertorican_mismatch_declarative-broad-focus_La-maestra-vive-en-Paris.wav,,,,,,,,,,,,,,,,,,,,,,403.3479,405.7452,0,1,1.8745,,0,71,71,86,1,0,puertorican,,,,,,,,,,,,,,,,,,,,,,,,,,,,,,,,,,,,,,,,,,,,,,,,,,,,,,,,
,,,,,,,,,65ddfaeab5c421556410b938,Spanish,13 or older,"no, only English or Spanish",no,2025-07-23_08h24.36.119,empathy_intonation_perc,2024.2.4,Win32,60.24096386,65ddfaeab5c421556410b938,687ed1b7e638a4cbf2f02089,6880d44c1f773f0edab43eae,,,,,,,,,,,,,84,0,,./stim/wavs/puertorican_mismatch_declarative-broad-focus_El-bebe-comia-muy-bien.wav,,,,,,,,,,,,,,,,,,,,,,405.7472,408.4617,0,1,2.1924,,0,72,72,83,1,0,puertorican,,,,,,,,,,,,,,,,,,,,,,,,,,,,,,,,,,,,,,,,,,,,,,,,,,,,,,,,
,,,,,,,,,65ddfaeab5c421556410b938,Spanish,13 or older,"no, only English or Spanish",no,2025-07-23_08h24.36.119,empathy_intonation_perc,2024.2.4,Win32,60.24096386,65ddfaeab5c421556410b938,687ed1b7e638a4cbf2f02089,6880d44c1f773f0edab43eae,,,,,,,,,,,,,7,1,,./stim/wavs/cuban_match_interrogative-total-yn_Ana-lleva-el-abrigo.wav,,,,,,,,,,,,,,,,,,,,,,408.4623,410.7193,1,1,1.7356,,0,73,73,6,1,1,cuban,,,,,,,,,,,,,,,,,,,,,,,,,,,,,,,,,,,,,,,,,,,,,,,,,,,,,,,,
,,,,,,,,,65ddfaeab5c421556410b938,Spanish,13 or older,"no, only English or Spanish",no,2025-07-23_08h24.36.119,empathy_intonation_perc,2024.2.4,Win32,60.24096386,65ddfaeab5c421556410b938,687ed1b7e638a4cbf2f02089,6880d44c1f773f0edab43eae,,,,,,,,,,,,,79,0,,./stim/wavs/mexican_mismatch_declarative-broad-focus_El-bebe-comia-muy-bien.wav,,,,,,,,,,,,,,,,,,,,,,410.7196,415.886,0,1,4.6441,,0,74,74,78,1,0,mexican,,,,,,,,,,,,,,,,,,,,,,,,,,,,,,,,,,,,,,,,,,,,,,,,,,,,,,,,
,,,,,,,,,65ddfaeab5c421556410b938,Spanish,13 or older,"no, only English or Spanish",no,2025-07-23_08h24.36.119,empathy_intonation_perc,2024.2.4,Win32,60.24096386,65ddfaeab5c421556410b938,687ed1b7e638a4cbf2f02089,6880d44c1f773f0edab43eae,,,,,,,,,,,,,43,1,,./stim/wavs/puertorican_mismatch_interrogative-total-yn_La-nina-lava-el-plato.wav,,,,,,,,,,,,,,,,,,,,,,415.8872,419.8303,1,1,3.4196,,0,75,75,42,1,1,puertorican,,,,,,,,,,,,,,,,,,,,,,,,,,,,,,,,,,,,,,,,,,,,,,,,,,,,,,,,
,,,,,,,,,65ddfaeab5c421556410b938,Spanish,13 or older,"no, only English or Spanish",no,2025-07-23_08h24.36.119,empathy_intonation_perc,2024.2.4,Win32,60.24096386,65ddfaeab5c421556410b938,687ed1b7e638a4cbf2f02089,6880d44c1f773f0edab43eae,,,,,,,,,,,,,76,0,,./stim/wavs/cuban_mismatch_declarative-broad-focus_La-nina-lava-el-plato.wav,,,,,,,,,,,,,,,,,,,,,,419.831,423.6587,0,1,3.2887,,0,76,76,75,1,0,cuban,,,,,,,,,,,,,,,,,,,,,,,,,,,,,,,,,,,,,,,,,,,,,,,,,,,,,,,,
,,,,,,,,,65ddfaeab5c421556410b938,Spanish,13 or older,"no, only English or Spanish",no,2025-07-23_08h24.36.119,empathy_intonation_perc,2024.2.4,Win32,60.24096386,65ddfaeab5c421556410b938,687ed1b7e638a4cbf2f02089,6880d44c1f773f0edab43eae,,,,,,,,,,,,,55,0,,./stim/wavs/cuban_match_declarative-broad-focus_Mariano-habla-del-tiempo.wav,,,,,,,,,,,,,,,,,,,,,,423.6599,429.2658,0,1,5.0948,,0,77,77,54,1,0,cuban,,,,,,,,,,,,,,,,,,,,,,,,,,,,,,,,,,,,,,,,,,,,,,,,,,,,,,,,
,,,,,,,,,65ddfaeab5c421556410b938,Spanish,13 or older,"no, only English or Spanish",no,2025-07-23_08h24.36.119,empathy_intonation_perc,2024.2.4,Win32,60.24096386,65ddfaeab5c421556410b938,687ed1b7e638a4cbf2f02089,6880d44c1f773f0edab43eae,,,,,,,,,,,,,75,0,,./stim/wavs/cuban_mismatch_declarative-broad-focus_El-hombre-mira-la-luna.wav,,,,,,,,,,,,,,,,,,,,,,429.2669,431.3824,0,1,1.5817,,0,78,78,74,1,0,cuban,,,,,,,,,,,,,,,,,,,,,,,,,,,,,,,,,,,,,,,,,,,,,,,,,,,,,,,,
,,,,,,,,,65ddfaeab5c421556410b938,Spanish,13 or older,"no, only English or Spanish",no,2025-07-23_08h24.36.119,empathy_intonation_perc,2024.2.4,Win32,60.24096386,65ddfaeab5c421556410b938,687ed1b7e638a4cbf2f02089,6880d44c1f773f0edab43eae,,,,,,,,,,,,,41,1,,./stim/wavs/puertorican_mismatch_interrogative-total-yn_El-nino-oye-el-rio.wav,,,,,,,,,,,,,,,,,,,,,,431.383,433.6402,0,0,1.7353,,0,79,79,40,1,1,puertorican,,,,,,,,,,,,,,,,,,,,,,,,,,,,,,,,,,,,,,,,,,,,,,,,,,,,,,,,
,,,,,,,,,65ddfaeab5c421556410b938,Spanish,13 or older,"no, only English or Spanish",no,2025-07-23_08h24.36.119,empathy_intonation_perc,2024.2.4,Win32,60.24096386,65ddfaeab5c421556410b938,687ed1b7e638a4cbf2f02089,6880d44c1f773f0edab43eae,,,,,,,,,,,,,67,0,,./stim/wavs/puertorican_match_declarative-broad-focus_Manuela-vende-el-carro.wav,,,,,,,,,,,,,,,,,,,,,,433.6407,436.2058,0,1,2.0479,,0,80,80,66,1,0,puertorican,,,,,,,,,,,,,,,,,,,,,,,,,,,,,,,,,,,,,,,,,,,,,,,,,,,,,,,,
,,,,,,,,,65ddfaeab5c421556410b938,Spanish,13 or older,"no, only English or Spanish",no,2025-07-23_08h24.36.119,empathy_intonation_perc,2024.2.4,Win32,60.24096386,65ddfaeab5c421556410b938,687ed1b7e638a4cbf2f02089,6880d44c1f773f0edab43eae,,,,,,,,,,,,,53,0,,./stim/wavs/cuban_match_declarative-broad-focus_Manuela-vende-el-carro.wav,,,,,,,,,,,,,,,,,,,,,,436.2072,440.1843,0,1,3.4492,,0,81,81,52,1,0,cuban,,,,,,,,,,,,,,,,,,,,,,,,,,,,,,,,,,,,,,,,,,,,,,,,,,,,,,,,
,,,,,,,,,65ddfaeab5c421556410b938,Spanish,13 or older,"no, only English or Spanish",no,2025-07-23_08h24.36.119,empathy_intonation_perc,2024.2.4,Win32,60.24096386,65ddfaeab5c421556410b938,687ed1b7e638a4cbf2f02089,6880d44c1f773f0edab43eae,,,,,,,,,,,,,86,0,,./stim/wavs/puertorican_mismatch_declarative-broad-focus_El-nino-oye-el-rio.wav,,,,,,,,,,,,,,,,,,,,,,440.1867,442.521,0,1,1.7979,,0,82,82,85,1,0,puertorican,,,,,,,,,,,,,,,,,,,,,,,,,,,,,,,,,,,,,,,,,,,,,,,,,,,,,,,,
,,,,,,,,,65ddfaeab5c421556410b938,Spanish,13 or older,"no, only English or Spanish",no,2025-07-23_08h24.36.119,empathy_intonation_perc,2024.2.4,Win32,60.24096386,65ddfaeab5c421556410b938,687ed1b7e638a4cbf2f02089,6880d44c1f773f0edab43eae,,,,,,,,,,,,,80,0,,./stim/wavs/mexican_mismatch_declarative-broad-focus_El-hombre-mira-la-luna.wav,,,,,,,,,,,,,,,,,,,,,,442.5214,444.5919,1,0,1.5647,,0,83,83,79,1,0,mexican,,,,,,,,,,,,,,,,,,,,,,,,,,,,,,,,,,,,,,,,,,,,,,,,,,,,,,,,
,,,,,,,,,65ddfaeab5c421556410b938,Spanish,13 or older,"no, only English or Spanish",no,2025-07-23_08h24.36.119,empathy_intonation_perc,2024.2.4,Win32,60.24096386,65ddfaeab5c421556410b938,687ed1b7e638a4cbf2f02089,6880d44c1f773f0edab43eae,,,,,,,,,,,,,71,0,,./stim/wavs/castilian_mismatch_declarative-broad-focus_La-nina-lava-el-plato.wav,,,,,,,,,,,,,,,,,,,,,,444.5922,446.6699,1,0,1.5583,,0,84,84,70,1,0,castilian,,,,,,,,,,,,,,,,,,,,,,,,,,,,,,,,,,,,,,,,,,,,,,,,,,,,,,,,
,,,,,,,,,65ddfaeab5c421556410b938,Spanish,13 or older,"no, only English or Spanish",no,2025-07-23_08h24.36.119,empathy_intonation_perc,2024.2.4,Win32,60.24096386,65ddfaeab5c421556410b938,687ed1b7e638a4cbf2f02089,6880d44c1f773f0edab43eae,,,,,,,,,,,,,38,1,,./stim/wavs/mexican_mismatch_interrogative-total-yn_Mi-novio-viene-del-lago.wav,,,,,,,,,,,,,,,,,,,,,,446.6705,449.6858,1,1,2.4754,,0,85,85,37,1,0,mexican,,,,,,,,,,,,,,,,,,,,,,,,,,,,,,,,,,,,,,,,,,,,,,,,,,,,,,,,
,,,,,,,,,65ddfaeab5c421556410b938,Spanish,13 or older,"no, only English or Spanish",no,2025-07-23_08h24.36.119,empathy_intonation_perc,2024.2.4,Win32,60.24096386,65ddfaeab5c421556410b938,687ed1b7e638a4cbf2f02089,6880d44c1f773f0edab43eae,,,,,,,,,,,,,17,1,,./stim/wavs/mexican_match_interrogative-total-yn_Mariano-habla-del-tiempo.wav,,,,,,,,,,,,,,,,,,,,,,449.6867,451.8699,1,1,1.652,,0,86,86,16,1,0,mexican,,,,,,,,,,,,,,,,,,,,,,,,,,,,,,,,,,,,,,,,,,,,,,,,,,,,,,,,
,,,,,,,,,65ddfaeab5c421556410b938,Spanish,13 or older,"no, only English or Spanish",no,2025-07-23_08h24.36.119,empathy_intonation_perc,2024.2.4,Win32,60.24096386,65ddfaeab5c421556410b938,687ed1b7e638a4cbf2f02089,6880d44c1f773f0edab43eae,,,,,,,,,,,,,60,0,,./stim/wavs/mexican_match_declarative-broad-focus_Emilio-ama-la-marcha.wav,,,,,,,,,,,,,,,,,,,,,,451.8709,454.682,1,0,2.2895,,0,87,87,59,1,0,mexican,,,,,,,,,,,,,,,,,,,,,,,,,,,,,,,,,,,,,,,,,,,,,,,,,,,,,,,,
,,,,,,,"Great! Now we will move on. The next task consists of about 60 trials, in each of which you will see a string of letters. 
  
  Your task is to decide whether this is a real Spanish word or not.", (press the spacebar to continue),65ddfaeab5c421556410b938,Spanish,13 or older,"no, only English or Spanish",no,2025-07-23_08h24.36.119,empathy_intonation_perc,2024.2.4,Win32,60.24096386,65ddfaeab5c421556410b938,687ed1b7e638a4cbf2f02089,6880d44c1f773f0edab43eae,,,,,,,,,,,,,,,,,,,,,,,,,,,,,,,,,,,,,,,,,,,,,,,,,,,454.6991,461.3547,0,0,0,0,1,,,,,,,,,,,,,,,,,,,,,,,,,,,,,,,,,,,,,,,,,,,,,,,,,
,,,,,,,"If you think it is an existing Spanish word, you type '1' (for 'REAL'), and if you think it is not an existing Spanish word, you type '0' (for 'FAKE').", (press the spacebar to continue),65ddfaeab5c421556410b938,Spanish,13 or older,"no, only English or Spanish",no,2025-07-23_08h24.36.119,empathy_intonation_perc,2024.2.4,Win32,60.24096386,65ddfaeab5c421556410b938,687ed1b7e638a4cbf2f02089,6880d44c1f773f0edab43eae,,,,,,,,,,,,,,,,,,,,,,,,,,,,,,,,,,,,,,,,,,,,,,,,,,,461.358,464.3549,0,1,1,1,1,,,,,,,,,,,,,,,,,,,,,,,,,,,,,,,,,,,,,,,,,,,,,,,,,
,,,,,,,"If you are sure that the word exists, even though you don’t know its exact meaning, you may still respond '1' (REAL). 
  
  But if you are not sure if it is an existing word, you should respond '0' (FAKE).
  
  Let's do a practice round...", (press the spacebar to continue),65ddfaeab5c421556410b938,Spanish,13 or older,"no, only English or Spanish",no,2025-07-23_08h24.36.119,empathy_intonation_perc,2024.2.4,Win32,60.24096386,65ddfaeab5c421556410b938,687ed1b7e638a4cbf2f02089,6880d44c1f773f0edab43eae,,,,,,,,,,,,,,,,,,,,,,,,,,,,,,,,,,,,,,,,,,,,,,,,,,,464.3575,466.1236,0,2,2,2,1,,,,,,,,,,,,,,,,,,,,,,,,,,,,,,,,,,,,,,,,,,,,,,,,,
,,,,,,,,,65ddfaeab5c421556410b938,Spanish,13 or older,"no, only English or Spanish",no,2025-07-23_08h24.36.119,empathy_intonation_perc,2024.2.4,Win32,60.24096386,65ddfaeab5c421556410b938,687ed1b7e638a4cbf2f02089,6880d44c1f773f0edab43eae,,,,,,,,,,,,,,0,,,,,,,,,,,,,,,,,,,,,,,,,,,,,,,,,,,,,,,,,,,,466.1439,468.773,0,1,2.0964,,468.7735,469.7734,0,0,0,0,1,0,depiste,REAL,FAKE,,,,,,,,,,,,,,,,,,,,,,,,,,,,,,,,
,,,,,,,,,65ddfaeab5c421556410b938,Spanish,13 or older,"no, only English or Spanish",no,2025-07-23_08h24.36.119,empathy_intonation_perc,2024.2.4,Win32,60.24096386,65ddfaeab5c421556410b938,687ed1b7e638a4cbf2f02089,6880d44c1f773f0edab43eae,,,,,,,,,,,,,,1,,,,,,,,,,,,,,,,,,,,,,,,,,,,,,,,,,,,,,,,,,,,469.8131,471.2071,1,1,0.908,,471.2072,472.2071,0,1,1,1,1,0,sí,REAL,FAKE,,,,,,,,,,,,,,,,,,,,,,,,,,,,,,,,
,,,,,,,,,65ddfaeab5c421556410b938,Spanish,13 or older,"no, only English or Spanish",no,2025-07-23_08h24.36.119,empathy_intonation_perc,2024.2.4,Win32,60.24096386,65ddfaeab5c421556410b938,687ed1b7e638a4cbf2f02089,6880d44c1f773f0edab43eae,,,,,,,,,,,,,,0,,,,,,,,,,,,,,,,,,,,,,,,,,,,,,,,,,,,,,,,,,,,472.2101,474.3408,0,1,1.5902,,474.3409,475.3405,0,2,2,2,1,0,coné,REAL,FAKE,,,,,,,,,,,,,,,,,,,,,,,,,,,,,,,,
,,,,,,,,,65ddfaeab5c421556410b938,Spanish,13 or older,"no, only English or Spanish",no,2025-07-23_08h24.36.119,empathy_intonation_perc,2024.2.4,Win32,60.24096386,65ddfaeab5c421556410b938,687ed1b7e638a4cbf2f02089,6880d44c1f773f0edab43eae,,,,,,,,,,,,,,0,,,,,,,,,,,,,,,,,,,,,,,,,,,,,,,,,,,,,,,,,,,,475.3431,476.7903,0,1,0.9087,,476.7904,477.7905,0,3,3,3,1,0,calpar,REAL,FAKE,,,,,,,,,,,,,,,,,,,,,,,,,,,,,,,,
,,,,,,,,,65ddfaeab5c421556410b938,Spanish,13 or older,"no, only English or Spanish",no,2025-07-23_08h24.36.119,empathy_intonation_perc,2024.2.4,Win32,60.24096386,65ddfaeab5c421556410b938,687ed1b7e638a4cbf2f02089,6880d44c1f773f0edab43eae,,,,,,,,,,,,,,0,,,,,,,,,,,,,,,,,,,,,,,,,,,,,,,,,,,,,,,,,,,,477.792,479.5242,0,1,1.1853,,479.5242,480.5243,0,4,4,4,1,0,joten,REAL,FAKE,,,,,,,,,,,,,,,,,,,,,,,,,,,,,,,,
,,,,,,,,,65ddfaeab5c421556410b938,Spanish,13 or older,"no, only English or Spanish",no,2025-07-23_08h24.36.119,empathy_intonation_perc,2024.2.4,Win32,60.24096386,65ddfaeab5c421556410b938,687ed1b7e638a4cbf2f02089,6880d44c1f773f0edab43eae,,,,,,,,,,,,,,1,,,,,,,,,,,,,,,,,,,,,,,,,,,,,,,,,,,,,,,,,,,,480.526,481.8913,0,0,0.8192,,481.8928,482.8974,0,5,5,5,1,0,sacapuntas,REAL,FAKE,,,,,,,,,,,,,,,,,,,,,,,,,,,,,,,,
,,,,,,,,,65ddfaeab5c421556410b938,Spanish,13 or older,"no, only English or Spanish",no,2025-07-23_08h24.36.119,empathy_intonation_perc,2024.2.4,Win32,60.24096386,65ddfaeab5c421556410b938,687ed1b7e638a4cbf2f02089,6880d44c1f773f0edab43eae,,,,,,,,,,,,,,0,,,,,,,,,,,,,,,,,,,,,,,,,,,,,,,,,,,,,,,,,,,,482.8985,484.4255,0,1,0.9948,,484.4267,485.4258,0,6,6,6,1,0,priba,REAL,FAKE,,,,,,,,,,,,,,,,,,,,,,,,,,,,,,,,
,,,,,,,,,65ddfaeab5c421556410b938,Spanish,13 or older,"no, only English or Spanish",no,2025-07-23_08h24.36.119,empathy_intonation_perc,2024.2.4,Win32,60.24096386,65ddfaeab5c421556410b938,687ed1b7e638a4cbf2f02089,6880d44c1f773f0edab43eae,,,,,,,,,,,,,,0,,,,,,,,,,,,,,,,,,,,,,,,,,,,,,,,,,,,,,,,,,,,485.4274,487.1457,1,0,1.1805,,487.1476,488.1424,0,7,7,7,1,0,pelasula,REAL,FAKE,,,,,,,,,,,,,,,,,,,,,,,,,,,,,,,,
,,,,,,,,,65ddfaeab5c421556410b938,Spanish,13 or older,"no, only English or Spanish",no,2025-07-23_08h24.36.119,empathy_intonation_perc,2024.2.4,Win32,60.24096386,65ddfaeab5c421556410b938,687ed1b7e638a4cbf2f02089,6880d44c1f773f0edab43eae,,,,,,,,,,,,,,1,,,,,,,,,,,,,,,,,,,,,,,,,,,,,,,,,,,,,,,,,,,,488.1437,489.2759,1,1,0.5873,,489.2766,490.2766,0,8,8,8,1,0,bien,REAL,FAKE,,,,,,,,,,,,,,,,,,,,,,,,,,,,,,,,
,,,,,,,,,65ddfaeab5c421556410b938,Spanish,13 or older,"no, only English or Spanish",no,2025-07-23_08h24.36.119,empathy_intonation_perc,2024.2.4,Win32,60.24096386,65ddfaeab5c421556410b938,687ed1b7e638a4cbf2f02089,6880d44c1f773f0edab43eae,,,,,,,,,,,,,,1,,,,,,,,,,,,,,,,,,,,,,,,,,,,,,,,,,,,,,,,,,,,490.2789,491.4504,1,1,0.6355,,491.4506,492.4483,0,9,9,9,1,0,casa,REAL,FAKE,,,,,,,,,,,,,,,,,,,,,,,,,,,,,,,,
,,,,,,,,,65ddfaeab5c421556410b938,Spanish,13 or older,"no, only English or Spanish",no,2025-07-23_08h24.36.119,empathy_intonation_perc,2024.2.4,Win32,60.24096386,65ddfaeab5c421556410b938,687ed1b7e638a4cbf2f02089,6880d44c1f773f0edab43eae,,,,,,,,,,,,,,0,,,,,,,,,,,,,,,,,,,,,,,,,,,,,,,,,,,,,,,,,,,,492.4504,493.7936,0,1,0.804,,493.7936,494.7937,0,10,10,10,1,0,lejo,REAL,FAKE,,,,,,,,,,,,,,,,,,,,,,,,,,,,,,,,
,,,,,,,,,65ddfaeab5c421556410b938,Spanish,13 or older,"no, only English or Spanish",no,2025-07-23_08h24.36.119,empathy_intonation_perc,2024.2.4,Win32,60.24096386,65ddfaeab5c421556410b938,687ed1b7e638a4cbf2f02089,6880d44c1f773f0edab43eae,,,,,,,,,,,,,,0,,,,,,,,,,,,,,,,,,,,,,,,,,,,,,,,,,,,,,,,,,,,494.795,496.3772,0,1,1.0388,,496.3772,497.3774,0,11,11,11,1,0,pretantas,REAL,FAKE,,,,,,,,,,,,,,,,,,,,,,,,,,,,,,,,
,,,,,,,,,65ddfaeab5c421556410b938,Spanish,13 or older,"no, only English or Spanish",no,2025-07-23_08h24.36.119,empathy_intonation_perc,2024.2.4,Win32,60.24096386,65ddfaeab5c421556410b938,687ed1b7e638a4cbf2f02089,6880d44c1f773f0edab43eae,,,,,,,,,,,,,,,,,,,,,,,,,,,,,,,,,,,,,,,,,,,,,,,,,,,,,,,,,,,,,,,,,,,,,,,,,,,497.3777,498.222,,,,,,,,,,,,,,,,,,,,,,,,,,,,,,
,,,,,,,,,65ddfaeab5c421556410b938,Spanish,13 or older,"no, only English or Spanish",no,2025-07-23_08h24.36.119,empathy_intonation_perc,2024.2.4,Win32,60.24096386,65ddfaeab5c421556410b938,687ed1b7e638a4cbf2f02089,6880d44c1f773f0edab43eae,,,,,,,,,,,,,,1,,,,,,,,,,,,,,,,,,,,,,,,,,,,,,,,,,,,,,,,,,,,,,,,,,,,,,,,,34,aviso,,,,,498.2617,499.7781,1,1,0.9842,,0,0,0,33,1,REAL,FAKE,,,,,,,,,,,,,,,,,
,,,,,,,,,65ddfaeab5c421556410b938,Spanish,13 or older,"no, only English or Spanish",no,2025-07-23_08h24.36.119,empathy_intonation_perc,2024.2.4,Win32,60.24096386,65ddfaeab5c421556410b938,687ed1b7e638a4cbf2f02089,6880d44c1f773f0edab43eae,,,,,,,,,,,,,,1,,,,,,,,,,,,,,,,,,,,,,,,,,,,,,,,,,,,,,,,,,,,,,,,,,,,,,,,,54,fomentar,,,,,499.7791,501.3621,1,1,1.0562,,0,1,1,53,1,REAL,FAKE,,,,,,,,,,,,,,,,,
,,,,,,,,,65ddfaeab5c421556410b938,Spanish,13 or older,"no, only English or Spanish",no,2025-07-23_08h24.36.119,empathy_intonation_perc,2024.2.4,Win32,60.24096386,65ddfaeab5c421556410b938,687ed1b7e638a4cbf2f02089,6880d44c1f773f0edab43eae,,,,,,,,,,,,,,1,,,,,,,,,,,,,,,,,,,,,,,,,,,,,,,,,,,,,,,,,,,,,,,,,,,,,,,,,6,tergiversar,,,,,501.3641,502.782,0,0,0.8902,,0,2,2,5,1,REAL,FAKE,,,,,,,,,,,,,,,,,
,,,,,,,,,65ddfaeab5c421556410b938,Spanish,13 or older,"no, only English or Spanish",no,2025-07-23_08h24.36.119,empathy_intonation_perc,2024.2.4,Win32,60.24096386,65ddfaeab5c421556410b938,687ed1b7e638a4cbf2f02089,6880d44c1f773f0edab43eae,,,,,,,,,,,,,,0,,,,,,,,,,,,,,,,,,,,,,,,,,,,,,,,,,,,,,,,,,,,,,,,,,,,,,,,,53,vegada,,,,,502.7828,504.5786,0,1,1.2668,,0,3,3,52,1,REAL,FAKE,,,,,,,,,,,,,,,,,
,,,,,,,,,65ddfaeab5c421556410b938,Spanish,13 or older,"no, only English or Spanish",no,2025-07-23_08h24.36.119,empathy_intonation_perc,2024.2.4,Win32,60.24096386,65ddfaeab5c421556410b938,687ed1b7e638a4cbf2f02089,6880d44c1f773f0edab43eae,,,,,,,,,,,,,,1,,,,,,,,,,,,,,,,,,,,,,,,,,,,,,,,,,,,,,,,,,,,,,,,,,,,,,,,,81,pozo,,,,,504.58,509.5068,0,0,4.4034,,0,4,4,80,1,REAL,FAKE,,,,,,,,,,,,,,,,,
,,,,,,,,,65ddfaeab5c421556410b938,Spanish,13 or older,"no, only English or Spanish",no,2025-07-23_08h24.36.119,empathy_intonation_perc,2024.2.4,Win32,60.24096386,65ddfaeab5c421556410b938,687ed1b7e638a4cbf2f02089,6880d44c1f773f0edab43eae,,,,,,,,,,,,,,0,,,,,,,,,,,,,,,,,,,,,,,,,,,,,,,,,,,,,,,,,,,,,,,,,,,,,,,,,82,empirador,,,,,509.5089,510.8964,0,1,0.8642,,0,5,5,81,1,REAL,FAKE,,,,,,,,,,,,,,,,,
,,,,,,,,,65ddfaeab5c421556410b938,Spanish,13 or older,"no, only English or Spanish",no,2025-07-23_08h24.36.119,empathy_intonation_perc,2024.2.4,Win32,60.24096386,65ddfaeab5c421556410b938,687ed1b7e638a4cbf2f02089,6880d44c1f773f0edab43eae,,,,,,,,,,,,,,1,,,,,,,,,,,,,,,,,,,,,,,,,,,,,,,,,,,,,,,,,,,,,,,,,,,,,,,,,76,atar,,,,,510.8975,514.5538,0,0,3.1258,,0,6,6,75,1,REAL,FAKE,,,,,,,,,,,,,,,,,
,,,,,,,,,65ddfaeab5c421556410b938,Spanish,13 or older,"no, only English or Spanish",no,2025-07-23_08h24.36.119,empathy_intonation_perc,2024.2.4,Win32,60.24096386,65ddfaeab5c421556410b938,687ed1b7e638a4cbf2f02089,6880d44c1f773f0edab43eae,,,,,,,,,,,,,,1,,,,,,,,,,,,,,,,,,,,,,,,,,,,,,,,,,,,,,,,,,,,,,,,,,,,,,,,,44,cuchara,,,,,514.5557,515.9307,1,1,0.8476,,0,7,7,43,1,REAL,FAKE,,,,,,,,,,,,,,,,,
,,,,,,,,,65ddfaeab5c421556410b938,Spanish,13 or older,"no, only English or Spanish",no,2025-07-23_08h24.36.119,empathy_intonation_perc,2024.2.4,Win32,60.24096386,65ddfaeab5c421556410b938,687ed1b7e638a4cbf2f02089,6880d44c1f773f0edab43eae,,,,,,,,,,,,,,0,,,,,,,,,,,,,,,,,,,,,,,,,,,,,,,,,,,,,,,,,,,,,,,,,,,,,,,,,23,lampera,,,,,515.9315,517.1309,1,0,0.6603,,0,8,8,22,1,REAL,FAKE,,,,,,,,,,,,,,,,,
,,,,,,,,,65ddfaeab5c421556410b938,Spanish,13 or older,"no, only English or Spanish",no,2025-07-23_08h24.36.119,empathy_intonation_perc,2024.2.4,Win32,60.24096386,65ddfaeab5c421556410b938,687ed1b7e638a4cbf2f02089,6880d44c1f773f0edab43eae,,,,,,,,,,,,,,1,,,,,,,,,,,,,,,,,,,,,,,,,,,,,,,,,,,,,,,,,,,,,,,,,,,,,,,,,73,hervidor,,,,,517.1319,518.5478,0,0,0.8713,,0,9,9,72,1,REAL,FAKE,,,,,,,,,,,,,,,,,
,,,,,,,,,65ddfaeab5c421556410b938,Spanish,13 or older,"no, only English or Spanish",no,2025-07-23_08h24.36.119,empathy_intonation_perc,2024.2.4,Win32,60.24096386,65ddfaeab5c421556410b938,687ed1b7e638a4cbf2f02089,6880d44c1f773f0edab43eae,,,,,,,,,,,,,,1,,,,,,,,,,,,,,,,,,,,,,,,,,,,,,,,,,,,,,,,,,,,,,,,,,,,,,,,,45,jilguero,,,,,518.5488,519.9982,0,0,0.9257,,0,10,10,44,1,REAL,FAKE,,,,,,,,,,,,,,,,,
,,,,,,,,,65ddfaeab5c421556410b938,Spanish,13 or older,"no, only English or Spanish",no,2025-07-23_08h24.36.119,empathy_intonation_perc,2024.2.4,Win32,60.24096386,65ddfaeab5c421556410b938,687ed1b7e638a4cbf2f02089,6880d44c1f773f0edab43eae,,,,,,,,,,,,,,1,,,,,,,,,,,,,,,,,,,,,,,,,,,,,,,,,,,,,,,,,,,,,,,,,,,,,,,,,56,musgo,,,,,519.9997,521.5162,0,0,0.988,,0,11,11,55,1,REAL,FAKE,,,,,,,,,,,,,,,,,
,,,,,,,,,65ddfaeab5c421556410b938,Spanish,13 or older,"no, only English or Spanish",no,2025-07-23_08h24.36.119,empathy_intonation_perc,2024.2.4,Win32,60.24096386,65ddfaeab5c421556410b938,687ed1b7e638a4cbf2f02089,6880d44c1f773f0edab43eae,,,,,,,,,,,,,,0,,,,,,,,,,,,,,,,,,,,,,,,,,,,,,,,,,,,,,,,,,,,,,,,,,,,,,,,,17,floroso,,,,,521.5188,522.8491,0,1,0.8009,,0,12,12,16,1,REAL,FAKE,,,,,,,,,,,,,,,,,
,,,,,,,,,65ddfaeab5c421556410b938,Spanish,13 or older,"no, only English or Spanish",no,2025-07-23_08h24.36.119,empathy_intonation_perc,2024.2.4,Win32,60.24096386,65ddfaeab5c421556410b938,687ed1b7e638a4cbf2f02089,6880d44c1f773f0edab43eae,,,,,,,,,,,,,,0,,,,,,,,,,,,,,,,,,,,,,,,,,,,,,,,,,,,,,,,,,,,,,,,,,,,,,,,,70,temblo,,,,,522.8509,524.0728,1,0,0.7001,,0,13,13,69,1,REAL,FAKE,,,,,,,,,,,,,,,,,
,,,,,,,,,65ddfaeab5c421556410b938,Spanish,13 or older,"no, only English or Spanish",no,2025-07-23_08h24.36.119,empathy_intonation_perc,2024.2.4,Win32,60.24096386,65ddfaeab5c421556410b938,687ed1b7e638a4cbf2f02089,6880d44c1f773f0edab43eae,,,,,,,,,,,,,,1,,,,,,,,,,,,,,,,,,,,,,,,,,,,,,,,,,,,,,,,,,,,,,,,,,,,,,,,,43,canela,,,,,524.0749,525.2656,1,1,0.6728,,0,14,14,42,1,REAL,FAKE,,,,,,,,,,,,,,,,,
,,,,,,,,,65ddfaeab5c421556410b938,Spanish,13 or older,"no, only English or Spanish",no,2025-07-23_08h24.36.119,empathy_intonation_perc,2024.2.4,Win32,60.24096386,65ddfaeab5c421556410b938,687ed1b7e638a4cbf2f02089,6880d44c1f773f0edab43eae,,,,,,,,,,,,,,1,,,,,,,,,,,,,,,,,,,,,,,,,,,,,,,,,,,,,,,,,,,,,,,,,,,,,,,,,13,helar,,,,,525.2666,526.3855,0,0,0.5953,,0,15,15,12,1,REAL,FAKE,,,,,,,,,,,,,,,,,
,,,,,,,,,65ddfaeab5c421556410b938,Spanish,13 or older,"no, only English or Spanish",no,2025-07-23_08h24.36.119,empathy_intonation_perc,2024.2.4,Win32,60.24096386,65ddfaeab5c421556410b938,687ed1b7e638a4cbf2f02089,6880d44c1f773f0edab43eae,,,,,,,,,,,,,,0,,,,,,,,,,,,,,,,,,,,,,,,,,,,,,,,,,,,,,,,,,,,,,,,,,,,,,,,,18,arsa,,,,,526.3862,527.5493,0,1,0.6368,,0,16,16,17,1,REAL,FAKE,,,,,,,,,,,,,,,,,
,,,,,,,,,65ddfaeab5c421556410b938,Spanish,13 or older,"no, only English or Spanish",no,2025-07-23_08h24.36.119,empathy_intonation_perc,2024.2.4,Win32,60.24096386,65ddfaeab5c421556410b938,687ed1b7e638a4cbf2f02089,6880d44c1f773f0edab43eae,,,,,,,,,,,,,,1,,,,,,,,,,,,,,,,,,,,,,,,,,,,,,,,,,,,,,,,,,,,,,,,,,,,,,,,,40,alfombra,,,,,527.5504,528.783,0,0,0.7094,,0,17,17,39,1,REAL,FAKE,,,,,,,,,,,,,,,,,
,,,,,,,,,65ddfaeab5c421556410b938,Spanish,13 or older,"no, only English or Spanish",no,2025-07-23_08h24.36.119,empathy_intonation_perc,2024.2.4,Win32,60.24096386,65ddfaeab5c421556410b938,687ed1b7e638a4cbf2f02089,6880d44c1f773f0edab43eae,,,,,,,,,,,,,,1,,,,,,,,,,,,,,,,,,,,,,,,,,,,,,,,,,,,,,,,,,,,,,,,,,,,,,,,,59,besar,,,,,528.7845,530.0331,1,1,0.7218,,0,18,18,58,1,REAL,FAKE,,,,,,,,,,,,,,,,,
,,,,,,,,,65ddfaeab5c421556410b938,Spanish,13 or older,"no, only English or Spanish",no,2025-07-23_08h24.36.119,empathy_intonation_perc,2024.2.4,Win32,60.24096386,65ddfaeab5c421556410b938,687ed1b7e638a4cbf2f02089,6880d44c1f773f0edab43eae,,,,,,,,,,,,,,1,,,,,,,,,,,,,,,,,,,,,,,,,,,,,,,,,,,,,,,,,,,,,,,,,,,,,,,,,75,yacer,,,,,530.034,531.3008,0,0,0.7394,,0,19,19,74,1,REAL,FAKE,,,,,,,,,,,,,,,,,
,,,,,,,,,65ddfaeab5c421556410b938,Spanish,13 or older,"no, only English or Spanish",no,2025-07-23_08h24.36.119,empathy_intonation_perc,2024.2.4,Win32,60.24096386,65ddfaeab5c421556410b938,687ed1b7e638a4cbf2f02089,6880d44c1f773f0edab43eae,,,,,,,,,,,,,,0,,,,,,,,,,,,,,,,,,,,,,,,,,,,,,,,,,,,,,,,,,,,,,,,,,,,,,,,,19,brecedad,,,,,531.3027,532.7337,0,1,0.9058,,0,20,20,18,1,REAL,FAKE,,,,,,,,,,,,,,,,,
,,,,,,,,,65ddfaeab5c421556410b938,Spanish,13 or older,"no, only English or Spanish",no,2025-07-23_08h24.36.119,empathy_intonation_perc,2024.2.4,Win32,60.24096386,65ddfaeab5c421556410b938,687ed1b7e638a4cbf2f02089,6880d44c1f773f0edab43eae,,,,,,,,,,,,,,1,,,,,,,,,,,,,,,,,,,,,,,,,,,,,,,,,,,,,,,,,,,,,,,,,,,,,,,,,38,estornudar,,,,,532.7349,533.9579,1,1,0.7003,,0,21,21,37,1,REAL,FAKE,,,,,,,,,,,,,,,,,
,,,,,,,,,65ddfaeab5c421556410b938,Spanish,13 or older,"no, only English or Spanish",no,2025-07-23_08h24.36.119,empathy_intonation_perc,2024.2.4,Win32,60.24096386,65ddfaeab5c421556410b938,687ed1b7e638a4cbf2f02089,6880d44c1f773f0edab43eae,,,,,,,,,,,,,,1,,,,,,,,,,,,,,,,,,,,,,,,,,,,,,,,,,,,,,,,,,,,,,,,,,,,,,,,,55,nevar,,,,,533.9596,535.3007,1,1,0.8159,,0,22,22,54,1,REAL,FAKE,,,,,,,,,,,,,,,,,
,,,,,,,,,65ddfaeab5c421556410b938,Spanish,13 or older,"no, only English or Spanish",no,2025-07-23_08h24.36.119,empathy_intonation_perc,2024.2.4,Win32,60.24096386,65ddfaeab5c421556410b938,687ed1b7e638a4cbf2f02089,6880d44c1f773f0edab43eae,,,,,,,,,,,,,,1,,,,,,,,,,,,,,,,,,,,,,,,,,,,,,,,,,,,,,,,,,,,,,,,,,,,,,,,,41,rebuscar,,,,,535.302,536.5676,1,1,0.7307,,0,23,23,40,1,REAL,FAKE,,,,,,,,,,,,,,,,,
,,,,,,,,,65ddfaeab5c421556410b938,Spanish,13 or older,"no, only English or Spanish",no,2025-07-23_08h24.36.119,empathy_intonation_perc,2024.2.4,Win32,60.24096386,65ddfaeab5c421556410b938,687ed1b7e638a4cbf2f02089,6880d44c1f773f0edab43eae,,,,,,,,,,,,,,0,,,,,,,,,,,,,,,,,,,,,,,,,,,,,,,,,,,,,,,,,,,,,,,,,,,,,,,,,30,alardio,,,,,536.5689,537.8178,0,1,0.7193,,0,24,24,29,1,REAL,FAKE,,,,,,,,,,,,,,,,,
,,,,,,,,,65ddfaeab5c421556410b938,Spanish,13 or older,"no, only English or Spanish",no,2025-07-23_08h24.36.119,empathy_intonation_perc,2024.2.4,Win32,60.24096386,65ddfaeab5c421556410b938,687ed1b7e638a4cbf2f02089,6880d44c1f773f0edab43eae,,,,,,,,,,,,,,0,,,,,,,,,,,,,,,,,,,,,,,,,,,,,,,,,,,,,,,,,,,,,,,,,,,,,,,,,72,pemición,,,,,537.8191,539.1351,0,1,0.7848,,0,25,25,71,1,REAL,FAKE,,,,,,,,,,,,,,,,,
,,,,,,,,,65ddfaeab5c421556410b938,Spanish,13 or older,"no, only English or Spanish",no,2025-07-23_08h24.36.119,empathy_intonation_perc,2024.2.4,Win32,60.24096386,65ddfaeab5c421556410b938,687ed1b7e638a4cbf2f02089,6880d44c1f773f0edab43eae,,,,,,,,,,,,,,1,,,,,,,,,,,,,,,,,,,,,,,,,,,,,,,,,,,,,,,,,,,,,,,,,,,,,,,,,14,yunque,,,,,539.1373,542.3018,0,0,2.6333,,0,26,26,13,1,REAL,FAKE,,,,,,,,,,,,,,,,,
,,,,,,,,,65ddfaeab5c421556410b938,Spanish,13 or older,"no, only English or Spanish",no,2025-07-23_08h24.36.119,empathy_intonation_perc,2024.2.4,Win32,60.24096386,65ddfaeab5c421556410b938,687ed1b7e638a4cbf2f02089,6880d44c1f773f0edab43eae,,,,,,,,,,,,,,1,,,,,,,,,,,,,,,,,,,,,,,,,,,,,,,,,,,,,,,,,,,,,,,,,,,,,,,,,85,laúd,,,,,542.3034,543.7187,0,0,0.8824,,0,27,27,84,1,REAL,FAKE,,,,,,,,,,,,,,,,,
,,,,,,,,,65ddfaeab5c421556410b938,Spanish,13 or older,"no, only English or Spanish",no,2025-07-23_08h24.36.119,empathy_intonation_perc,2024.2.4,Win32,60.24096386,65ddfaeab5c421556410b938,687ed1b7e638a4cbf2f02089,6880d44c1f773f0edab43eae,,,,,,,,,,,,,,1,,,,,,,,,,,,,,,,,,,,,,,,,,,,,,,,,,,,,,,,,,,,,,,,,,,,,,,,,78,frondoso,,,,,543.7197,545.3361,1,1,1.0853,,0,28,28,77,1,REAL,FAKE,,,,,,,,,,,,,,,,,
,,,,,,,,,65ddfaeab5c421556410b938,Spanish,13 or older,"no, only English or Spanish",no,2025-07-23_08h24.36.119,empathy_intonation_perc,2024.2.4,Win32,60.24096386,65ddfaeab5c421556410b938,687ed1b7e638a4cbf2f02089,6880d44c1f773f0edab43eae,,,,,,,,,,,,,,0,,,,,,,,,,,,,,,,,,,,,,,,,,,,,,,,,,,,,,,,,,,,,,,,,,,,,,,,,66,hacido,,,,,545.3381,548.5863,0,1,2.7148,,0,29,29,65,1,REAL,FAKE,,,,,,,,,,,,,,,,,
,,,,,,,,,65ddfaeab5c421556410b938,Spanish,13 or older,"no, only English or Spanish",no,2025-07-23_08h24.36.119,empathy_intonation_perc,2024.2.4,Win32,60.24096386,65ddfaeab5c421556410b938,687ed1b7e638a4cbf2f02089,6880d44c1f773f0edab43eae,,,,,,,,,,,,,,1,,,,,,,,,,,,,,,,,,,,,,,,,,,,,,,,,,,,,,,,,,,,,,,,,,,,,,,,,3,pulmones,,,,,548.5872,549.9033,1,1,0.7868,,0,30,30,2,1,REAL,FAKE,,,,,,,,,,,,,,,,,
,,,,,,,,,65ddfaeab5c421556410b938,Spanish,13 or older,"no, only English or Spanish",no,2025-07-23_08h24.36.119,empathy_intonation_perc,2024.2.4,Win32,60.24096386,65ddfaeab5c421556410b938,687ed1b7e638a4cbf2f02089,6880d44c1f773f0edab43eae,,,,,,,,,,,,,,1,,,,,,,,,,,,,,,,,,,,,,,,,,,,,,,,,,,,,,,,,,,,,,,,,,,,,,,,,39,torpe,,,,,549.9046,551.5874,1,1,1.1546,,0,31,31,38,1,REAL,FAKE,,,,,,,,,,,,,,,,,
,,,,,,,,,65ddfaeab5c421556410b938,Spanish,13 or older,"no, only English or Spanish",no,2025-07-23_08h24.36.119,empathy_intonation_perc,2024.2.4,Win32,60.24096386,65ddfaeab5c421556410b938,687ed1b7e638a4cbf2f02089,6880d44c1f773f0edab43eae,,,,,,,,,,,,,,1,,,,,,,,,,,,,,,,,,,,,,,,,,,,,,,,,,,,,,,,,,,,,,,,,,,,,,,,,57,tacaño,,,,,551.5897,552.9204,1,1,0.795,,0,32,32,56,1,REAL,FAKE,,,,,,,,,,,,,,,,,
,,,,,,,,,65ddfaeab5c421556410b938,Spanish,13 or older,"no, only English or Spanish",no,2025-07-23_08h24.36.119,empathy_intonation_perc,2024.2.4,Win32,60.24096386,65ddfaeab5c421556410b938,687ed1b7e638a4cbf2f02089,6880d44c1f773f0edab43eae,,,,,,,,,,,,,,1,,,,,,,,,,,,,,,,,,,,,,,,,,,,,,,,,,,,,,,,,,,,,,,,,,,,,,,,,9,hacha,,,,,552.9213,554.3706,0,0,0.9209,,0,33,33,8,1,REAL,FAKE,,,,,,,,,,,,,,,,,
,,,,,,,,,65ddfaeab5c421556410b938,Spanish,13 or older,"no, only English or Spanish",no,2025-07-23_08h24.36.119,empathy_intonation_perc,2024.2.4,Win32,60.24096386,65ddfaeab5c421556410b938,687ed1b7e638a4cbf2f02089,6880d44c1f773f0edab43eae,,,,,,,,,,,,,,0,,,,,,,,,,,,,,,,,,,,,,,,,,,,,,,,,,,,,,,,,,,,,,,,,,,,,,,,,27,acutación,,,,,554.3718,555.6088,0,1,0.7135,,0,34,34,26,1,REAL,FAKE,,,,,,,,,,,,,,,,,
,,,,,,,,,65ddfaeab5c421556410b938,Spanish,13 or older,"no, only English or Spanish",no,2025-07-23_08h24.36.119,empathy_intonation_perc,2024.2.4,Win32,60.24096386,65ddfaeab5c421556410b938,687ed1b7e638a4cbf2f02089,6880d44c1f773f0edab43eae,,,,,,,,,,,,,,0,,,,,,,,,,,,,,,,,,,,,,,,,,,,,,,,,,,,,,,,,,,,,,,,,,,,,,,,,50,flamida,,,,,555.6109,556.9545,1,0,0.8222,,0,35,35,49,1,REAL,FAKE,,,,,,,,,,,,,,,,,
,,,,,,,,,65ddfaeab5c421556410b938,Spanish,13 or older,"no, only English or Spanish",no,2025-07-23_08h24.36.119,empathy_intonation_perc,2024.2.4,Win32,60.24096386,65ddfaeab5c421556410b938,687ed1b7e638a4cbf2f02089,6880d44c1f773f0edab43eae,,,,,,,,,,,,,,1,,,,,,,,,,,,,,,,,,,,,,,,,,,,,,,,,,,,,,,,,,,,,,,,,,,,,,,,,37,granuja,,,,,556.9555,558.2712,0,0,0.7847,,0,36,36,36,1,REAL,FAKE,,,,,,,,,,,,,,,,,
,,,,,,,,,65ddfaeab5c421556410b938,Spanish,13 or older,"no, only English or Spanish",no,2025-07-23_08h24.36.119,empathy_intonation_perc,2024.2.4,Win32,60.24096386,65ddfaeab5c421556410b938,687ed1b7e638a4cbf2f02089,6880d44c1f773f0edab43eae,,,,,,,,,,,,,,1,,,,,,,,,,,,,,,,,,,,,,,,,,,,,,,,,,,,,,,,,,,,,,,,,,,,,,,,,89,prisa,,,,,558.2723,559.3225,1,1,0.5262,,0,37,37,88,1,REAL,FAKE,,,,,,,,,,,,,,,,,
,,,,,,,,,65ddfaeab5c421556410b938,Spanish,13 or older,"no, only English or Spanish",no,2025-07-23_08h24.36.119,empathy_intonation_perc,2024.2.4,Win32,60.24096386,65ddfaeab5c421556410b938,687ed1b7e638a4cbf2f02089,6880d44c1f773f0edab43eae,,,,,,,,,,,,,,1,,,,,,,,,,,,,,,,,,,,,,,,,,,,,,,,,,,,,,,,,,,,,,,,,,,,,,,,,91,click the 1 key.,,,,,559.3265,560.8729,1,1,1.0229,,0,38,38,90,1,REAL,FAKE,,,,,,,,,,,,,,,,,
,,,,,,,,,65ddfaeab5c421556410b938,Spanish,13 or older,"no, only English or Spanish",no,2025-07-23_08h24.36.119,empathy_intonation_perc,2024.2.4,Win32,60.24096386,65ddfaeab5c421556410b938,687ed1b7e638a4cbf2f02089,6880d44c1f773f0edab43eae,,,,,,,,,,,,,,1,,,,,,,,,,,,,,,,,,,,,,,,,,,,,,,,,,,,,,,,,,,,,,,,,,,,,,,,,68,alegre,,,,,560.8762,562.322,0,0,0.9193,,0,39,39,67,1,REAL,FAKE,,,,,,,,,,,,,,,,,
,,,,,,,,,65ddfaeab5c421556410b938,Spanish,13 or older,"no, only English or Spanish",no,2025-07-23_08h24.36.119,empathy_intonation_perc,2024.2.4,Win32,60.24096386,65ddfaeab5c421556410b938,687ed1b7e638a4cbf2f02089,6880d44c1f773f0edab43eae,,,,,,,,,,,,,,0,,,,,,,,,,,,,,,,,,,,,,,,,,,,,,,,,,,,,,,,,,,,,,,,,,,,,,,,,33,pauca,,,,,562.3229,563.6223,0,1,0.7668,,0,40,40,32,1,REAL,FAKE,,,,,,,,,,,,,,,,,
,,,,,,,,,65ddfaeab5c421556410b938,Spanish,13 or older,"no, only English or Spanish",no,2025-07-23_08h24.36.119,empathy_intonation_perc,2024.2.4,Win32,60.24096386,65ddfaeab5c421556410b938,687ed1b7e638a4cbf2f02089,6880d44c1f773f0edab43eae,,,,,,,,,,,,,,1,,,,,,,,,,,,,,,,,,,,,,,,,,,,,,,,,,,,,,,,,,,,,,,,,,,,,,,,,12,asesinato,,,,,563.6232,564.7559,0,0,0.601,,0,41,41,11,1,REAL,FAKE,,,,,,,,,,,,,,,,,
,,,,,,,,,65ddfaeab5c421556410b938,Spanish,13 or older,"no, only English or Spanish",no,2025-07-23_08h24.36.119,empathy_intonation_perc,2024.2.4,Win32,60.24096386,65ddfaeab5c421556410b938,687ed1b7e638a4cbf2f02089,6880d44c1f773f0edab43eae,,,,,,,,,,,,,,1,,,,,,,,,,,,,,,,,,,,,,,,,,,,,,,,,,,,,,,,,,,,,,,,,,,,,,,,,62,flaco,,,,,564.7573,565.8897,1,1,0.6036,,0,42,42,61,1,REAL,FAKE,,,,,,,,,,,,,,,,,
,,,,,,,,,65ddfaeab5c421556410b938,Spanish,13 or older,"no, only English or Spanish",no,2025-07-23_08h24.36.119,empathy_intonation_perc,2024.2.4,Win32,60.24096386,65ddfaeab5c421556410b938,687ed1b7e638a4cbf2f02089,6880d44c1f773f0edab43eae,,,,,,,,,,,,,,1,,,,,,,,,,,,,,,,,,,,,,,,,,,,,,,,,,,,,,,,,,,,,,,,,,,,,,,,,51,candado,,,,,565.8916,567.1581,1,1,0.7408,,0,43,43,50,1,REAL,FAKE,,,,,,,,,,,,,,,,,
,,,,,,,,,65ddfaeab5c421556410b938,Spanish,13 or older,"no, only English or Spanish",no,2025-07-23_08h24.36.119,empathy_intonation_perc,2024.2.4,Win32,60.24096386,65ddfaeab5c421556410b938,687ed1b7e638a4cbf2f02089,6880d44c1f773f0edab43eae,,,,,,,,,,,,,,1,,,,,,,,,,,,,,,,,,,,,,,,,,,,,,,,,,,,,,,,,,,,,,,,,,,,,,,,,7,pésimo,,,,,567.1591,568.3943,0,0,0.7118,,0,44,44,6,1,REAL,FAKE,,,,,,,,,,,,,,,,,
,,,,,,,,,65ddfaeab5c421556410b938,Spanish,13 or older,"no, only English or Spanish",no,2025-07-23_08h24.36.119,empathy_intonation_perc,2024.2.4,Win32,60.24096386,65ddfaeab5c421556410b938,687ed1b7e638a4cbf2f02089,6880d44c1f773f0edab43eae,,,,,,,,,,,,,,0,,,,,,,,,,,,,,,,,,,,,,,,,,,,,,,,,,,,,,,,,,,,,,,,,,,,,,,,,10,antar,,,,,568.3963,569.6567,0,1,0.7356,,0,45,45,9,1,REAL,FAKE,,,,,,,,,,,,,,,,,
,,,,,,,,,65ddfaeab5c421556410b938,Spanish,13 or older,"no, only English or Spanish",no,2025-07-23_08h24.36.119,empathy_intonation_perc,2024.2.4,Win32,60.24096386,65ddfaeab5c421556410b938,687ed1b7e638a4cbf2f02089,6880d44c1f773f0edab43eae,,,,,,,,,,,,,,1,,,,,,,,,,,,,,,,,,,,,,,,,,,,,,,,,,,,,,,,,,,,,,,,,,,,,,,,,28,merodear,,,,,569.6577,571.1075,0,0,0.9192,,0,46,46,27,1,REAL,FAKE,,,,,,,,,,,,,,,,,
,,,,,,,,,65ddfaeab5c421556410b938,Spanish,13 or older,"no, only English or Spanish",no,2025-07-23_08h24.36.119,empathy_intonation_perc,2024.2.4,Win32,60.24096386,65ddfaeab5c421556410b938,687ed1b7e638a4cbf2f02089,6880d44c1f773f0edab43eae,,,,,,,,,,,,,,0,,,,,,,,,,,,,,,,,,,,,,,,,,,,,,,,,,,,,,,,,,,,,,,,,,,,,,,,,8,cadeña,,,,,571.1093,572.5744,1,0,0.9389,,0,47,47,7,1,REAL,FAKE,,,,,,,,,,,,,,,,,
,,,,,,,,,65ddfaeab5c421556410b938,Spanish,13 or older,"no, only English or Spanish",no,2025-07-23_08h24.36.119,empathy_intonation_perc,2024.2.4,Win32,60.24096386,65ddfaeab5c421556410b938,687ed1b7e638a4cbf2f02089,6880d44c1f773f0edab43eae,,,,,,,,,,,,,,1,,,,,,,,,,,,,,,,,,,,,,,,,,,,,,,,,,,,,,,,,,,,,,,,,,,,,,,,,20,ávido,,,,,572.5757,573.71,0,0,0.6122,,0,48,48,19,1,REAL,FAKE,,,,,,,,,,,,,,,,,
,,,,,,,,,65ddfaeab5c421556410b938,Spanish,13 or older,"no, only English or Spanish",no,2025-07-23_08h24.36.119,empathy_intonation_perc,2024.2.4,Win32,60.24096386,65ddfaeab5c421556410b938,687ed1b7e638a4cbf2f02089,6880d44c1f773f0edab43eae,,,,,,,,,,,,,,1,,,,,,,,,,,,,,,,,,,,,,,,,,,,,,,,,,,,,,,,,,,,,,,,,,,,,,,,,77,tiburón,,,,,573.7109,575.4577,1,1,1.2219,,0,49,49,76,1,REAL,FAKE,,,,,,,,,,,,,,,,,
,,,,,,,,,65ddfaeab5c421556410b938,Spanish,13 or older,"no, only English or Spanish",no,2025-07-23_08h24.36.119,empathy_intonation_perc,2024.2.4,Win32,60.24096386,65ddfaeab5c421556410b938,687ed1b7e638a4cbf2f02089,6880d44c1f773f0edab43eae,,,,,,,,,,,,,,0,,,,,,,,,,,,,,,,,,,,,,,,,,,,,,,,,,,,,,,,,,,,,,,,,,,,,,,,,16,abracer,,,,,575.4592,576.7086,1,0,0.7232,,0,50,50,15,1,REAL,FAKE,,,,,,,,,,,,,,,,,
,,,,,,,,,65ddfaeab5c421556410b938,Spanish,13 or older,"no, only English or Spanish",no,2025-07-23_08h24.36.119,empathy_intonation_perc,2024.2.4,Win32,60.24096386,65ddfaeab5c421556410b938,687ed1b7e638a4cbf2f02089,6880d44c1f773f0edab43eae,,,,,,,,,,,,,,0,,,,,,,,,,,,,,,,,,,,,,,,,,,,,,,,,,,,,,,,,,,,,,,,,,,,,,,,,1,terzo,,,,,576.7105,577.8663,1,0,0.6333,,0,51,51,0,1,REAL,FAKE,,,,,,,,,,,,,,,,,
,,,,,,,,,65ddfaeab5c421556410b938,Spanish,13 or older,"no, only English or Spanish",no,2025-07-23_08h24.36.119,empathy_intonation_perc,2024.2.4,Win32,60.24096386,65ddfaeab5c421556410b938,687ed1b7e638a4cbf2f02089,6880d44c1f773f0edab43eae,,,,,,,,,,,,,,1,,,,,,,,,,,,,,,,,,,,,,,,,,,,,,,,,,,,,,,,,,,,,,,,,,,,,,,,,48,ladrón,,,,,577.8683,579.1083,1,1,0.7164,,0,52,52,47,1,REAL,FAKE,,,,,,,,,,,,,,,,,
,,,,,,,,,65ddfaeab5c421556410b938,Spanish,13 or older,"no, only English or Spanish",no,2025-07-23_08h24.36.119,empathy_intonation_perc,2024.2.4,Win32,60.24096386,65ddfaeab5c421556410b938,687ed1b7e638a4cbf2f02089,6880d44c1f773f0edab43eae,,,,,,,,,,,,,,0,,,,,,,,,,,,,,,,,,,,,,,,,,,,,,,,,,,,,,,,,,,,,,,,,,,,,,,,,74,cintro,,,,,579.1095,580.3423,1,0,0.7086,,0,53,53,73,1,REAL,FAKE,,,,,,,,,,,,,,,,,
,,,,,,,,,65ddfaeab5c421556410b938,Spanish,13 or older,"no, only English or Spanish",no,2025-07-23_08h24.36.119,empathy_intonation_perc,2024.2.4,Win32,60.24096386,65ddfaeab5c421556410b938,687ed1b7e638a4cbf2f02089,6880d44c1f773f0edab43eae,,,,,,,,,,,,,,1,,,,,,,,,,,,,,,,,,,,,,,,,,,,,,,,,,,,,,,,,,,,,,,,,,,,,,,,,52,camisa,,,,,580.3448,581.7617,1,1,0.8966,,0,54,54,51,1,REAL,FAKE,,,,,,,,,,,,,,,,,
,,,,,,,,,65ddfaeab5c421556410b938,Spanish,13 or older,"no, only English or Spanish",no,2025-07-23_08h24.36.119,empathy_intonation_perc,2024.2.4,Win32,60.24096386,65ddfaeab5c421556410b938,687ed1b7e638a4cbf2f02089,6880d44c1f773f0edab43eae,,,,,,,,,,,,,,0,,,,,,,,,,,,,,,,,,,,,,,,,,,,,,,,,,,,,,,,,,,,,,,,,,,,,,,,,79,tropaje,,,,,581.7624,583.3259,0,1,1.0345,,0,55,55,78,1,REAL,FAKE,,,,,,,,,,,,,,,,,
,,,,,,,,,65ddfaeab5c421556410b938,Spanish,13 or older,"no, only English or Spanish",no,2025-07-23_08h24.36.119,empathy_intonation_perc,2024.2.4,Win32,60.24096386,65ddfaeab5c421556410b938,687ed1b7e638a4cbf2f02089,6880d44c1f773f0edab43eae,,,,,,,,,,,,,,1,,,,,,,,,,,,,,,,,,,,,,,,,,,,,,,,,,,,,,,,,,,,,,,,,,,,,,,,,36,loro,,,,,583.3269,584.9094,0,0,1.0516,,0,56,56,35,1,REAL,FAKE,,,,,,,,,,,,,,,,,
,,,,,,,,,65ddfaeab5c421556410b938,Spanish,13 or older,"no, only English or Spanish",no,2025-07-23_08h24.36.119,empathy_intonation_perc,2024.2.4,Win32,60.24096386,65ddfaeab5c421556410b938,687ed1b7e638a4cbf2f02089,6880d44c1f773f0edab43eae,,,,,,,,,,,,,,1,,,,,,,,,,,,,,,,,,,,,,,,,,,,,,,,,,,,,,,,,,,,,,,,,,,,,,,,,11,cenefa,,,,,584.9104,586.2098,0,0,0.7671,,0,57,57,10,1,REAL,FAKE,,,,,,,,,,,,,,,,,
,,,,,,,,,65ddfaeab5c421556410b938,Spanish,13 or older,"no, only English or Spanish",no,2025-07-23_08h24.36.119,empathy_intonation_perc,2024.2.4,Win32,60.24096386,65ddfaeab5c421556410b938,687ed1b7e638a4cbf2f02089,6880d44c1f773f0edab43eae,,,,,,,,,,,,,,1,,,,,,,,,,,,,,,,,,,,,,,,,,,,,,,,,,,,,,,,,,,,,,,,,,,,,,,,,46,martillo,,,,,586.211,587.8784,1,1,1.1455,,0,58,58,45,1,REAL,FAKE,,,,,,,,,,,,,,,,,
,,,,,,,,,65ddfaeab5c421556410b938,Spanish,13 or older,"no, only English or Spanish",no,2025-07-23_08h24.36.119,empathy_intonation_perc,2024.2.4,Win32,60.24096386,65ddfaeab5c421556410b938,687ed1b7e638a4cbf2f02089,6880d44c1f773f0edab43eae,,,,,,,,,,,,,,1,,,,,,,,,,,,,,,,,,,,,,,,,,,,,,,,,,,,,,,,,,,,,,,,,,,,,,,,,31,pandilla,,,,,587.8798,589.0267,1,1,0.621,,0,59,59,30,1,REAL,FAKE,,,,,,,,,,,,,,,,,
,,,,,,,,,65ddfaeab5c421556410b938,Spanish,13 or older,"no, only English or Spanish",no,2025-07-23_08h24.36.119,empathy_intonation_perc,2024.2.4,Win32,60.24096386,65ddfaeab5c421556410b938,687ed1b7e638a4cbf2f02089,6880d44c1f773f0edab43eae,,,,,,,,,,,,,,1,,,,,,,,,,,,,,,,,,,,,,,,,,,,,,,,,,,,,,,,,,,,,,,,,,,,,,,,,49,ganar,,,,,589.0276,590.3609,1,1,0.807,,0,60,60,48,1,REAL,FAKE,,,,,,,,,,,,,,,,,
,,,,,,,,,65ddfaeab5c421556410b938,Spanish,13 or older,"no, only English or Spanish",no,2025-07-23_08h24.36.119,empathy_intonation_perc,2024.2.4,Win32,60.24096386,65ddfaeab5c421556410b938,687ed1b7e638a4cbf2f02089,6880d44c1f773f0edab43eae,,,,,,,,,,,,,,0,,,,,,,,,,,,,,,,,,,,,,,,,,,,,,,,,,,,,,,,,,,,,,,,,,,,,,,,,32,fatacidad,,,,,590.3633,591.6606,1,0,0.7713,,0,61,61,31,1,REAL,FAKE,,,,,,,,,,,,,,,,,
,,,,,,,,,65ddfaeab5c421556410b938,Spanish,13 or older,"no, only English or Spanish",no,2025-07-23_08h24.36.119,empathy_intonation_perc,2024.2.4,Win32,60.24096386,65ddfaeab5c421556410b938,687ed1b7e638a4cbf2f02089,6880d44c1f773f0edab43eae,,,,,,,,,,,,,,0,,,,,,,,,,,,,,,,,,,,,,,,,,,,,,,,,,,,,,,,,,,,,,,,,,,,,,,,,84,escuto,,,,,591.6616,594.0778,0,1,1.8805,,0,62,62,83,1,REAL,FAKE,,,,,,,,,,,,,,,,,
,,,,,,,,,65ddfaeab5c421556410b938,Spanish,13 or older,"no, only English or Spanish",no,2025-07-23_08h24.36.119,empathy_intonation_perc,2024.2.4,Win32,60.24096386,65ddfaeab5c421556410b938,687ed1b7e638a4cbf2f02089,6880d44c1f773f0edab43eae,,,,,,,,,,,,,,1,,,,,,,,,,,,,,,,,,,,,,,,,,,,,,,,,,,,,,,,,,,,,,,,,,,,,,,,,88,acantilado,,,,,594.0788,595.628,0,0,1.0261,,0,63,63,87,1,REAL,FAKE,,,,,,,,,,,,,,,,,
,,,,,,,,,65ddfaeab5c421556410b938,Spanish,13 or older,"no, only English or Spanish",no,2025-07-23_08h24.36.119,empathy_intonation_perc,2024.2.4,Win32,60.24096386,65ddfaeab5c421556410b938,687ed1b7e638a4cbf2f02089,6880d44c1f773f0edab43eae,,,,,,,,,,,,,,0,,,,,,,,,,,,,,,,,,,,,,,,,,,,,,,,,,,,,,,,,,,,,,,,,,,,,,,,,58,plaudir,,,,,595.6289,596.8948,0,1,0.7334,,0,64,64,57,1,REAL,FAKE,,,,,,,,,,,,,,,,,
,,,,,,,,,65ddfaeab5c421556410b938,Spanish,13 or older,"no, only English or Spanish",no,2025-07-23_08h24.36.119,empathy_intonation_perc,2024.2.4,Win32,60.24096386,65ddfaeab5c421556410b938,687ed1b7e638a4cbf2f02089,6880d44c1f773f0edab43eae,,,,,,,,,,,,,,0,,,,,,,,,,,,,,,,,,,,,,,,,,,,,,,,,,,,,,,,,,,,,,,,,,,,,,,,,35,rompido,,,,,596.8957,598.1153,1,0,0.6909,,0,65,65,34,1,REAL,FAKE,,,,,,,,,,,,,,,,,
,,,,,,,,,65ddfaeab5c421556410b938,Spanish,13 or older,"no, only English or Spanish",no,2025-07-23_08h24.36.119,empathy_intonation_perc,2024.2.4,Win32,60.24096386,65ddfaeab5c421556410b938,687ed1b7e638a4cbf2f02089,6880d44c1f773f0edab43eae,,,,,,,,,,,,,,0,,,,,,,,,,,,,,,,,,,,,,,,,,,,,,,,,,,,,,,,,,,,,,,,,,,,,,,,,4,batillón,,,,,598.1161,599.3453,1,0,0.6964,,0,66,66,3,1,REAL,FAKE,,,,,,,,,,,,,,,,,
,,,,,,,,,65ddfaeab5c421556410b938,Spanish,13 or older,"no, only English or Spanish",no,2025-07-23_08h24.36.119,empathy_intonation_perc,2024.2.4,Win32,60.24096386,65ddfaeab5c421556410b938,687ed1b7e638a4cbf2f02089,6880d44c1f773f0edab43eae,,,,,,,,,,,,,,0,,,,,,,,,,,,,,,,,,,,,,,,,,,,,,,,,,,,,,,,,,,,,,,,,,,,,,,,,42,cadallo,,,,,599.3462,600.462,1,0,0.5906,,0,67,67,41,1,REAL,FAKE,,,,,,,,,,,,,,,,,
,,,,,,,,,65ddfaeab5c421556410b938,Spanish,13 or older,"no, only English or Spanish",no,2025-07-23_08h24.36.119,empathy_intonation_perc,2024.2.4,Win32,60.24096386,65ddfaeab5c421556410b938,687ed1b7e638a4cbf2f02089,6880d44c1f773f0edab43eae,,,,,,,,,,,,,,1,,,,,,,,,,,,,,,,,,,,,,,,,,,,,,,,,,,,,,,,,,,,,,,,,,,,,,,,,80,hormiga,,,,,600.463,601.7127,1,1,0.7263,,0,68,68,79,1,REAL,FAKE,,,,,,,,,,,,,,,,,
,,,,,,,,,65ddfaeab5c421556410b938,Spanish,13 or older,"no, only English or Spanish",no,2025-07-23_08h24.36.119,empathy_intonation_perc,2024.2.4,Win32,60.24096386,65ddfaeab5c421556410b938,687ed1b7e638a4cbf2f02089,6880d44c1f773f0edab43eae,,,,,,,,,,,,,,1,,,,,,,,,,,,,,,,,,,,,,,,,,,,,,,,,,,,,,,,,,,,,,,,,,,,,,,,,5,zapato,,,,,601.7159,602.8624,1,1,0.6222,,0,69,69,4,1,REAL,FAKE,,,,,,,,,,,,,,,,,
,,,,,,,,,65ddfaeab5c421556410b938,Spanish,13 or older,"no, only English or Spanish",no,2025-07-23_08h24.36.119,empathy_intonation_perc,2024.2.4,Win32,60.24096386,65ddfaeab5c421556410b938,687ed1b7e638a4cbf2f02089,6880d44c1f773f0edab43eae,,,,,,,,,,,,,,0,,,,,,,,,,,,,,,,,,,,,,,,,,,,,,,,,,,,,,,,,,,,,,,,,,,,,,,,,29,decar,,,,,602.8633,604.1494,0,1,0.7625,,0,70,70,28,1,REAL,FAKE,,,,,,,,,,,,,,,,,
,,,,,,,,,65ddfaeab5c421556410b938,Spanish,13 or older,"no, only English or Spanish",no,2025-07-23_08h24.36.119,empathy_intonation_perc,2024.2.4,Win32,60.24096386,65ddfaeab5c421556410b938,687ed1b7e638a4cbf2f02089,6880d44c1f773f0edab43eae,,,,,,,,,,,,,,1,,,,,,,,,,,,,,,,,,,,,,,,,,,,,,,,,,,,,,,,,,,,,,,,,,,,,,,,,90,clavel,,,,,604.1512,605.5297,0,0,0.8509,,0,71,71,89,1,REAL,FAKE,,,,,,,,,,,,,,,,,
,,,,,,,,,65ddfaeab5c421556410b938,Spanish,13 or older,"no, only English or Spanish",no,2025-07-23_08h24.36.119,empathy_intonation_perc,2024.2.4,Win32,60.24096386,65ddfaeab5c421556410b938,687ed1b7e638a4cbf2f02089,6880d44c1f773f0edab43eae,,,,,,,,,,,,,,0,,,,,,,,,,,,,,,,,,,,,,,,,,,,,,,,,,,,,,,,,,,,,,,,,,,,,,,,,63,esposante,,,,,605.5305,606.83,0,1,0.7695,,0,72,72,62,1,REAL,FAKE,,,,,,,,,,,,,,,,,
,,,,,,,,,65ddfaeab5c421556410b938,Spanish,13 or older,"no, only English or Spanish",no,2025-07-23_08h24.36.119,empathy_intonation_perc,2024.2.4,Win32,60.24096386,65ddfaeab5c421556410b938,687ed1b7e638a4cbf2f02089,6880d44c1f773f0edab43eae,,,,,,,,,,,,,,0,,,,,,,,,,,,,,,,,,,,,,,,,,,,,,,,,,,,,,,,,,,,,,,,,,,,,,,,,87,grodo,,,,,606.8312,608.1467,1,0,0.7914,,0,73,73,86,1,REAL,FAKE,,,,,,,,,,,,,,,,,
,,,,,,,,,65ddfaeab5c421556410b938,Spanish,13 or older,"no, only English or Spanish",no,2025-07-23_08h24.36.119,empathy_intonation_perc,2024.2.4,Win32,60.24096386,65ddfaeab5c421556410b938,687ed1b7e638a4cbf2f02089,6880d44c1f773f0edab43eae,,,,,,,,,,,,,,1,,,,,,,,,,,,,,,,,,,,,,,,,,,,,,,,,,,,,,,,,,,,,,,,,,,,,,,,,2,pellizcar,,,,,608.1475,609.9305,1,1,1.2493,,0,74,74,1,1,REAL,FAKE,,,,,,,,,,,,,,,,,
,,,,,,,,,65ddfaeab5c421556410b938,Spanish,13 or older,"no, only English or Spanish",no,2025-07-23_08h24.36.119,empathy_intonation_perc,2024.2.4,Win32,60.24096386,65ddfaeab5c421556410b938,687ed1b7e638a4cbf2f02089,6880d44c1f773f0edab43eae,,,,,,,,,,,,,,1,,,,,,,,,,,,,,,,,,,,,,,,,,,,,,,,,,,,,,,,,,,,,,,,,,,,,,,,,65,bizcocho,,,,,609.9314,611.4198,1,1,0.9754,,0,75,75,64,1,REAL,FAKE,,,,,,,,,,,,,,,,,
,,,,,,,,,65ddfaeab5c421556410b938,Spanish,13 or older,"no, only English or Spanish",no,2025-07-23_08h24.36.119,empathy_intonation_perc,2024.2.4,Win32,60.24096386,65ddfaeab5c421556410b938,687ed1b7e638a4cbf2f02089,6880d44c1f773f0edab43eae,,,,,,,,,,,,,,1,,,,,,,,,,,,,,,,,,,,,,,,,,,,,,,,,,,,,,,,,,,,,,,,,,,,,,,,,22,lacayo,,,,,611.4216,612.6829,0,0,0.7438,,0,76,76,21,1,REAL,FAKE,,,,,,,,,,,,,,,,,
,,,,,,,,,65ddfaeab5c421556410b938,Spanish,13 or older,"no, only English or Spanish",no,2025-07-23_08h24.36.119,empathy_intonation_perc,2024.2.4,Win32,60.24096386,65ddfaeab5c421556410b938,687ed1b7e638a4cbf2f02089,6880d44c1f773f0edab43eae,,,,,,,,,,,,,,1,,,,,,,,,,,,,,,,,,,,,,,,,,,,,,,,,,,,,,,,,,,,,,,,,,,,,,,,,26,secuestro,,,,,612.6841,614.1149,1,1,0.9059,,0,77,77,25,1,REAL,FAKE,,,,,,,,,,,,,,,,,
,,,,,,,,,65ddfaeab5c421556410b938,Spanish,13 or older,"no, only English or Spanish",no,2025-07-23_08h24.36.119,empathy_intonation_perc,2024.2.4,Win32,60.24096386,65ddfaeab5c421556410b938,687ed1b7e638a4cbf2f02089,6880d44c1f773f0edab43eae,,,,,,,,,,,,,,1,,,,,,,,,,,,,,,,,,,,,,,,,,,,,,,,,,,,,,,,,,,,,,,,,,,,,,,,,60,matar,,,,,614.117,615.2981,1,1,0.6498,,0,78,78,59,1,REAL,FAKE,,,,,,,,,,,,,,,,,
,,,,,,,,,65ddfaeab5c421556410b938,Spanish,13 or older,"no, only English or Spanish",no,2025-07-23_08h24.36.119,empathy_intonation_perc,2024.2.4,Win32,60.24096386,65ddfaeab5c421556410b938,687ed1b7e638a4cbf2f02089,6880d44c1f773f0edab43eae,,,,,,,,,,,,,,1,,,,,,,,,,,,,,,,,,,,,,,,,,,,,,,,,,,,,,,,,,,,,,,,,,,,,,,,,86,barato,,,,,615.299,616.5344,1,1,0.712,,0,79,79,85,1,REAL,FAKE,,,,,,,,,,,,,,,,,
,,,,,,,,,65ddfaeab5c421556410b938,Spanish,13 or older,"no, only English or Spanish",no,2025-07-23_08h24.36.119,empathy_intonation_perc,2024.2.4,Win32,60.24096386,65ddfaeab5c421556410b938,687ed1b7e638a4cbf2f02089,6880d44c1f773f0edab43eae,,,,,,,,,,,,,,1,,,,,,,,,,,,,,,,,,,,,,,,,,,,,,,,,,,,,,,,,,,,,,,,,,,,,,,,,67,cabello,,,,,616.5351,617.9319,1,1,0.8693,,0,80,80,66,1,REAL,FAKE,,,,,,,,,,,,,,,,,
,,,,,,,,,65ddfaeab5c421556410b938,Spanish,13 or older,"no, only English or Spanish",no,2025-07-23_08h24.36.119,empathy_intonation_perc,2024.2.4,Win32,60.24096386,65ddfaeab5c421556410b938,687ed1b7e638a4cbf2f02089,6880d44c1f773f0edab43eae,,,,,,,,,,,,,,1,,,,,,,,,,,,,,,,,,,,,,,,,,,,,,,,,,,,,,,,,,,,,,,,,,,,,,,,,64,orgulloso,,,,,617.9329,619.0994,0,0,0.64,,0,81,81,63,1,REAL,FAKE,,,,,,,,,,,,,,,,,
,,,,,,,,,65ddfaeab5c421556410b938,Spanish,13 or older,"no, only English or Spanish",no,2025-07-23_08h24.36.119,empathy_intonation_perc,2024.2.4,Win32,60.24096386,65ddfaeab5c421556410b938,687ed1b7e638a4cbf2f02089,6880d44c1f773f0edab43eae,,,,,,,,,,,,,,0,,,,,,,,,,,,,,,,,,,,,,,,,,,,,,,,,,,,,,,,,,,,,,,,,,,,,,,,,47,cartinar,,,,,619.1018,622.4036,0,1,2.7797,,0,82,82,46,1,REAL,FAKE,,,,,,,,,,,,,,,,,
,,,,,,,,,65ddfaeab5c421556410b938,Spanish,13 or older,"no, only English or Spanish",no,2025-07-23_08h24.36.119,empathy_intonation_perc,2024.2.4,Win32,60.24096386,65ddfaeab5c421556410b938,687ed1b7e638a4cbf2f02089,6880d44c1f773f0edab43eae,,,,,,,,,,,,,,1,,,,,,,,,,,,,,,,,,,,,,,,,,,,,,,,,,,,,,,,,,,,,,,,,,,,,,,,,83,guante,,,,,622.4054,623.7329,1,1,0.8006,,0,83,83,82,1,REAL,FAKE,,,,,,,,,,,,,,,,,
,,,,,,,,,65ddfaeab5c421556410b938,Spanish,13 or older,"no, only English or Spanish",no,2025-07-23_08h24.36.119,empathy_intonation_perc,2024.2.4,Win32,60.24096386,65ddfaeab5c421556410b938,687ed1b7e638a4cbf2f02089,6880d44c1f773f0edab43eae,,,,,,,,,,,,,,0,,,,,,,,,,,,,,,,,,,,,,,,,,,,,,,,,,,,,,,,,,,,,,,,,,,,,,,,,92,click the 0 key.,,,,,623.7343,625.1164,0,1,0.8515,,0,84,84,91,1,REAL,FAKE,,,,,,,,,,,,,,,,,
,,,,,,,,,65ddfaeab5c421556410b938,Spanish,13 or older,"no, only English or Spanish",no,2025-07-23_08h24.36.119,empathy_intonation_perc,2024.2.4,Win32,60.24096386,65ddfaeab5c421556410b938,687ed1b7e638a4cbf2f02089,6880d44c1f773f0edab43eae,,,,,,,,,,,,,,1,,,,,,,,,,,,,,,,,,,,,,,,,,,,,,,,,,,,,,,,,,,,,,,,,,,,,,,,,61,seda,,,,,625.1174,626.4009,1,1,0.7599,,0,85,85,60,1,REAL,FAKE,,,,,,,,,,,,,,,,,
,,,,,,,,,65ddfaeab5c421556410b938,Spanish,13 or older,"no, only English or Spanish",no,2025-07-23_08h24.36.119,empathy_intonation_perc,2024.2.4,Win32,60.24096386,65ddfaeab5c421556410b938,687ed1b7e638a4cbf2f02089,6880d44c1f773f0edab43eae,,,,,,,,,,,,,,0,,,,,,,,,,,,,,,,,,,,,,,,,,,,,,,,,,,,,,,,,,,,,,,,,,,,,,,,,21,capillo,,,,,626.4031,627.7169,1,0,0.7885,,0,86,86,20,1,REAL,FAKE,,,,,,,,,,,,,,,,,
,,,,,,,,,65ddfaeab5c421556410b938,Spanish,13 or older,"no, only English or Spanish",no,2025-07-23_08h24.36.119,empathy_intonation_perc,2024.2.4,Win32,60.24096386,65ddfaeab5c421556410b938,687ed1b7e638a4cbf2f02089,6880d44c1f773f0edab43eae,,,,,,,,,,,,,,1,,,,,,,,,,,,,,,,,,,,,,,,,,,,,,,,,,,,,,,,,,,,,,,,,,,,,,,,,24,látigo,,,,,627.7178,628.9876,0,0,0.7464,,0,87,87,23,1,REAL,FAKE,,,,,,,,,,,,,,,,,
,,,,,,,,,65ddfaeab5c421556410b938,Spanish,13 or older,"no, only English or Spanish",no,2025-07-23_08h24.36.119,empathy_intonation_perc,2024.2.4,Win32,60.24096386,65ddfaeab5c421556410b938,687ed1b7e638a4cbf2f02089,6880d44c1f773f0edab43eae,,,,,,,,,,,,,,1,,,,,,,,,,,,,,,,,,,,,,,,,,,,,,,,,,,,,,,,,,,,,,,,,,,,,,,,,69,engatusar,,,,,628.9895,630.568,0,0,1.0508,,0,88,88,68,1,REAL,FAKE,,,,,,,,,,,,,,,,,
,,,,,,,,,65ddfaeab5c421556410b938,Spanish,13 or older,"no, only English or Spanish",no,2025-07-23_08h24.36.119,empathy_intonation_perc,2024.2.4,Win32,60.24096386,65ddfaeab5c421556410b938,687ed1b7e638a4cbf2f02089,6880d44c1f773f0edab43eae,,,,,,,,,,,,,,1,,,,,,,,,,,,,,,,,,,,,,,,,,,,,,,,,,,,,,,,,,,,,,,,,,,,,,,,,15,regar,,,,,630.5702,631.8343,1,1,0.7379,,0,89,89,14,1,REAL,FAKE,,,,,,,,,,,,,,,,,
,,,,,,,,,65ddfaeab5c421556410b938,Spanish,13 or older,"no, only English or Spanish",no,2025-07-23_08h24.36.119,empathy_intonation_perc,2024.2.4,Win32,60.24096386,65ddfaeab5c421556410b938,687ed1b7e638a4cbf2f02089,6880d44c1f773f0edab43eae,,,,,,,,,,,,,,1,,,,,,,,,,,,,,,,,,,,,,,,,,,,,,,,,,,,,,,,,,,,,,,,,,,,,,,,,25,bisagra,,,,,631.8353,633.0845,0,0,0.7228,,0,90,90,24,1,REAL,FAKE,,,,,,,,,,,,,,,,,
,,,,,,,,,65ddfaeab5c421556410b938,Spanish,13 or older,"no, only English or Spanish",no,2025-07-23_08h24.36.119,empathy_intonation_perc,2024.2.4,Win32,60.24096386,65ddfaeab5c421556410b938,687ed1b7e638a4cbf2f02089,6880d44c1f773f0edab43eae,,,,,,,,,,,,,,1,,,,,,,,,,,,,,,,,,,,,,,,,,,,,,,,,,,,,,,,,,,,,,,,,,,,,,,,,71,polvoriento,,,,,633.0854,634.3523,0,0,0.7385,,0,91,91,70,1,REAL,FAKE,,,,,,,,,,,,,,,,,
,,,,,,,,,65ddfaeab5c421556410b938,Spanish,13 or older,"no, only English or Spanish",no,2025-07-23_08h24.36.119,empathy_intonation_perc,2024.2.4,Win32,60.24096386,65ddfaeab5c421556410b938,687ed1b7e638a4cbf2f02089,6880d44c1f773f0edab43eae,,,,,,,,,,,,,,,,,,,,,,,,,,,,,,,,,,,,,,,,,,,,,,,,,,,,,,,,,,,,,,,,,,,,,,,,,,,,,,,,,,,,,,,,,,634.3539,641.4574,,,,,,,,,,,,,,,
,,,,,,,,,65ddfaeab5c421556410b938,Spanish,13 or older,"no, only English or Spanish",no,2025-07-23_08h24.36.119,empathy_intonation_perc,2024.2.4,Win32,60.24096386,65ddfaeab5c421556410b938,687ed1b7e638a4cbf2f02089,6880d44c1f773f0edab43eae,,,,,,,,,,,,,1,,,,,,,,,,,,,,,,,,,,,,,,,,,,,,,,,,,,,,,,,,,,,,,,,,,,,,,,,,,,,,,,,,,,,,,,,,,,,,,641.4859,647.7791,slightly agree,0,0,0,0,1,I can easily tell if someone else wants to enter a conversation.,1,0,1,0,,
,,,,,,,,,65ddfaeab5c421556410b938,Spanish,13 or older,"no, only English or Spanish",no,2025-07-23_08h24.36.119,empathy_intonation_perc,2024.2.4,Win32,60.24096386,65ddfaeab5c421556410b938,687ed1b7e638a4cbf2f02089,6880d44c1f773f0edab43eae,,,,,,,,,,,,,2,,,,,,,,,,,,,,,,,,,,,,,,,,,,,,,,,,,,,,,,,,,,,,,,,,,,,,,,,,,,,,,,,,,,,,,,,,,,,,,647.7818,650.139,strongly agree,0,1,1,1,1,I prefer animals to humans.,0,1,0,0,,
,,,,,,,,,65ddfaeab5c421556410b938,Spanish,13 or older,"no, only English or Spanish",no,2025-07-23_08h24.36.119,empathy_intonation_perc,2024.2.4,Win32,60.24096386,65ddfaeab5c421556410b938,687ed1b7e638a4cbf2f02089,6880d44c1f773f0edab43eae,,,,,,,,,,,,,3,,,,,,,,,,,,,,,,,,,,,,,,,,,,,,,,,,,,,,,,,,,,,,,,,,,,,,,,,,,,,,,,,,,,,,,,,,,,,,,650.1413,653.1227,slightly disagree,0,2,2,2,1,I try to keep up with the current trends and fashions.,0,1,0,0,,
,,,,,,,,,65ddfaeab5c421556410b938,Spanish,13 or older,"no, only English or Spanish",no,2025-07-23_08h24.36.119,empathy_intonation_perc,2024.2.4,Win32,60.24096386,65ddfaeab5c421556410b938,687ed1b7e638a4cbf2f02089,6880d44c1f773f0edab43eae,,,,,,,,,,,,,4,,,,,,,,,,,,,,,,,,,,,,,,,,,,,,,,,,,,,,,,,,,,,,,,,,,,,,,,,,,,,,,,,,,,,,,,,,,,,,,653.125,656.1555,strongly disagree,0,3,3,3,1,"I find it difficult to explain to others things that I understand easily,   when they don't understand it first time.",1,0,0,1,,
,,,,,,,,,65ddfaeab5c421556410b938,Spanish,13 or older,"no, only English or Spanish",no,2025-07-23_08h24.36.119,empathy_intonation_perc,2024.2.4,Win32,60.24096386,65ddfaeab5c421556410b938,687ed1b7e638a4cbf2f02089,6880d44c1f773f0edab43eae,,,,,,,,,,,,,5,,,,,,,,,,,,,,,,,,,,,,,,,,,,,,,,,,,,,,,,,,,,,,,,,,,,,,,,,,,,,,,,,,,,,,,,,,,,,,,656.1569,658.5224,slightly agree,0,4,4,4,1,I dream most nights.,0,1,0,0,,
,,,,,,,,,65ddfaeab5c421556410b938,Spanish,13 or older,"no, only English or Spanish",no,2025-07-23_08h24.36.119,empathy_intonation_perc,2024.2.4,Win32,60.24096386,65ddfaeab5c421556410b938,687ed1b7e638a4cbf2f02089,6880d44c1f773f0edab43eae,,,,,,,,,,,,,6,,,,,,,,,,,,,,,,,,,,,,,,,,,,,,,,,,,,,,,,,,,,,,,,,,,,,,,,,,,,,,,,,,,,,,,,,,,,,,,658.5243,660.5896,strongly agree,0,5,5,5,1,I really enjoy caring for other people.,1,0,1,0,,
,,,,,,,,,65ddfaeab5c421556410b938,Spanish,13 or older,"no, only English or Spanish",no,2025-07-23_08h24.36.119,empathy_intonation_perc,2024.2.4,Win32,60.24096386,65ddfaeab5c421556410b938,687ed1b7e638a4cbf2f02089,6880d44c1f773f0edab43eae,,,,,,,,,,,,,7,,,,,,,,,,,,,,,,,,,,,,,,,,,,,,,,,,,,,,,,,,,,,,,,,,,,,,,,,,,,,,,,,,,,,,,,,,,,,,,660.5915,662.8736,strongly agree,0,6,6,6,1,I try to solve my own problems rather than discussing them with others.,0,1,0,0,,
,,,,,,,,,65ddfaeab5c421556410b938,Spanish,13 or older,"no, only English or Spanish",no,2025-07-23_08h24.36.119,empathy_intonation_perc,2024.2.4,Win32,60.24096386,65ddfaeab5c421556410b938,687ed1b7e638a4cbf2f02089,6880d44c1f773f0edab43eae,,,,,,,,,,,,,8,,,,,,,,,,,,,,,,,,,,,,,,,,,,,,,,,,,,,,,,,,,,,,,,,,,,,,,,,,,,,,,,,,,,,,,,,,,,,,,662.8755,665.8738,strongly disagree,0,7,7,7,1,I find it hard to know what to do in a social situation.,1,0,0,1,,
,,,,,,,,,65ddfaeab5c421556410b938,Spanish,13 or older,"no, only English or Spanish",no,2025-07-23_08h24.36.119,empathy_intonation_perc,2024.2.4,Win32,60.24096386,65ddfaeab5c421556410b938,687ed1b7e638a4cbf2f02089,6880d44c1f773f0edab43eae,,,,,,,,,,,,,9,,,,,,,,,,,,,,,,,,,,,,,,,,,,,,,,,,,,,,,,,,,,,,,,,,,,,,,,,,,,,,,,,,,,,,,,,,,,,,,665.8753,668.5909,slightly agree,0,8,8,8,1,I am at my best first thing in the morning.,0,1,0,0,,
,,,,,,,,,65ddfaeab5c421556410b938,Spanish,13 or older,"no, only English or Spanish",no,2025-07-23_08h24.36.119,empathy_intonation_perc,2024.2.4,Win32,60.24096386,65ddfaeab5c421556410b938,687ed1b7e638a4cbf2f02089,6880d44c1f773f0edab43eae,,,,,,,,,,,,,10,,,,,,,,,,,,,,,,,,,,,,,,,,,,,,,,,,,,,,,,,,,,,,,,,,,,,,,,,,,,,,,,,,,,,,,,,,,,,,,668.594,672.3417,strongly disagree,0,9,9,9,1,People often tell me that I went too far in driving my point home in a discussion.,1,0,0,1,,
