instructions_exposure.started,instructions_exposure.stopped,instructions_exposure_loop.thisRepN,instructions_exposure_loop.thisTrialN,instructions_exposure_loop.thisN,instructions_exposure_loop.thisIndex,instructions_exposure_loop.ran,instructions_text,continue_text,participant_id,"What variety of Spanish are you most familiar with? (e.g., Peruvian, Spanish, Mexican)",At what age did you begin learning Spanish?,Are you proficient in any languages other than English/Spanish?,"Are you familiar with Caribbean (e.g., Caribbean, Puerto Rican) or Galician Spanish?",date,expName,psychopyVersion,OS,frameRate,id,study_id,session,trial_exposure.started,trial_exposure.stopped,key_resp_exposure.keys,key_resp_exposure.corr,key_resp_exposure.rt,key_resp_exposure.duration,key_resp.keys,exposure_loop.thisRepN,exposure_loop.thisTrialN,exposure_loop.thisN,exposure_loop.thisIndex,exposure_loop.ran,item_num,correct_response,question,path,duration,instructions_2afc.started,instructions_2afc.stopped,instructions_2afc_loop.thisRepN,instructions_2afc_loop.thisTrialN,instructions_2afc_loop.thisN,instructions_2afc_loop.thisIndex,instructions_2afc_loop.ran,practice_2afc.started,practice_2afc.stopped,key_resp_2afc_practice.keys,key_resp_2afc_practice.corr,key_resp_2afc_practice.rt,key_resp_2afc_practice.duration,trials_2afc_practice_loop.thisRepN,trials_2afc_practice_loop.thisTrialN,trials_2afc_practice_loop.thisN,trials_2afc_practice_loop.thisIndex,trials_2afc_practice_loop.ran,check_2afc.started,check_2afc.stopped,trial_2afc.started,trial_2afc.stopped,key_resp_2afc_trial.keys,key_resp_2afc_trial.corr,key_resp_2afc_trial.rt,key_resp_2afc_trial.duration,trials_2afc_loop.thisRepN,trials_2afc_loop.thisTrialN,trials_2afc_loop.thisN,trials_2afc_loop.thisIndex,trials_2afc_loop.ran,target,variety,instructions_lextale.started,instructions_lextale.stopped,instructions_lextale_loop.thisRepN,instructions_lextale_loop.thisTrialN,instructions_lextale_loop.thisN,instructions_lextale_loop.thisIndex,instructions_lextale_loop.ran,practice_lextale.started,practice_lextale.stopped,key_resp_lextale_practice.keys,key_resp_lextale_practice.corr,key_resp_lextale_practice.rt,key_resp_lextale_practice.duration,practice_feedback_lextale.started,practice_feedback_lextale.stopped,trials_lextale_practice_loop.thisRepN,trials_lextale_practice_loop.thisTrialN,trials_lextale_practice_loop.thisN,trials_lextale_practice_loop.thisIndex,trials_lextale_practice_loop.ran,stim,word,prac_button_real,prac_button_false,check_lextale.started,check_lextale.stopped,trial_lextale.started,trial_lextale.stopped,key_resp_lextale_trial.keys,key_resp_lextale_trial.corr,key_resp_lextale_trial.rt,key_resp_lextale_trial.duration,trials_lextale_loop.thisRepN,trials_lextale_loop.thisTrialN,trials_lextale_loop.thisN,trials_lextale_loop.thisIndex,trials_lextale_loop.ran,button_real,button_false,instructions_eq.started,instructions_eq.stopped,trial_eq.started,trial_eq.stopped,slider_eq_trial.response,trials_eq_loop.thisRepN,trials_eq_loop.thisTrialN,trials_eq_loop.thisN,trials_eq_loop.thisIndex,trials_eq_loop.ran,item,is_test_item,is_distractor,is_agree_score,is_disagree_score,end_exp.started,end_exp.stopped
0.0154,435.763,0,0,0,0,1,"In the following task, you are going to hear a series of conversations.", (press the space bar to continue),66046225387696a0f72502e5,Spanish,13 or older,"no, only English or Spanish",yes,2025-07-22_21h56.35.654,empathy_intonation_perc,2024.2.4,Win32,60.24096386,66046225387696a0f72502e5,687ed1b7e638a4cbf2f02089,688040b8275ee6c7b2cc2e0f,,,,,,,,,,,,,,,,,,,,,,,,,,,,,,,,,,,,,,,,,,,,,,,,,,,,,,,,,,,,,,,,,,,,,,,,,,,,,,,,,,,,,,,,,,,,,,,,,,,,,,,,,,
435.7636,441.5447,0,1,1,1,1,It is okay if you don't not 100% understand them!, (press the space bar to continue),66046225387696a0f72502e5,Spanish,13 or older,"no, only English or Spanish",yes,2025-07-22_21h56.35.654,empathy_intonation_perc,2024.2.4,Win32,60.24096386,66046225387696a0f72502e5,687ed1b7e638a4cbf2f02089,688040b8275ee6c7b2cc2e0f,,,,,,,,,,,,,,,,,,,,,,,,,,,,,,,,,,,,,,,,,,,,,,,,,,,,,,,,,,,,,,,,,,,,,,,,,,,,,,,,,,,,,,,,,,,,,,,,,,,,,,,,,,
441.5479,444.5085,0,2,2,2,1,"After, you will read a sentence about the conversation and decide if it's true or false.", (press the space bar to continue),66046225387696a0f72502e5,Spanish,13 or older,"no, only English or Spanish",yes,2025-07-22_21h56.35.654,empathy_intonation_perc,2024.2.4,Win32,60.24096386,66046225387696a0f72502e5,687ed1b7e638a4cbf2f02089,688040b8275ee6c7b2cc2e0f,,,,,,,,,,,,,,,,,,,,,,,,,,,,,,,,,,,,,,,,,,,,,,,,,,,,,,,,,,,,,,,,,,,,,,,,,,,,,,,,,,,,,,,,,,,,,,,,,,,,,,,,,,
444.5115,446.99,0,3,3,3,1,"If it's true, press '1' (True) and if it's false press '0' (False).", (press the space bar to continue),66046225387696a0f72502e5,Spanish,13 or older,"no, only English or Spanish",yes,2025-07-22_21h56.35.654,empathy_intonation_perc,2024.2.4,Win32,60.24096386,66046225387696a0f72502e5,687ed1b7e638a4cbf2f02089,688040b8275ee6c7b2cc2e0f,,,,,,,,,,,,,,,,,,,,,,,,,,,,,,,,,,,,,,,,,,,,,,,,,,,,,,,,,,,,,,,,,,,,,,,,,,,,,,,,,,,,,,,,,,,,,,,,,,,,,,,,,,
,,,,,,,,,66046225387696a0f72502e5,Spanish,13 or older,"no, only English or Spanish",yes,2025-07-22_21h56.35.654,empathy_intonation_perc,2024.2.4,Win32,60.24096386,66046225387696a0f72502e5,687ed1b7e638a4cbf2f02089,688040b8275ee6c7b2cc2e0f,447.0061,501.5623,1,0,18.5218,,,0,0,0,2,1,3,0,The mom already has rice.,./stim/exposure_wavs/pr_stimuli_convo.wav,36,,,,,,,,,,,,,,,,,,,,,,,,,,,,,,,,,,,,,,,,,,,,,,,,,,,,,,,,,,,,,,,,,,,,,,,,,,,,,,,,,,,,,,,,,
,,,,,,,,,66046225387696a0f72502e5,Spanish,13 or older,"no, only English or Spanish",yes,2025-07-22_21h56.35.654,empathy_intonation_perc,2024.2.4,Win32,60.24096386,66046225387696a0f72502e5,687ed1b7e638a4cbf2f02089,688040b8275ee6c7b2cc2e0f,501.5678,566.1419,1,1,4.5397,,,0,1,1,1,1,2,1,The mom asked the daughter if she already went to the supermarket.,./stim/exposure_wavs/dr_stimuli_convo.wav,60,,,,,,,,,,,,,,,,,,,,,,,,,,,,,,,,,,,,,,,,,,,,,,,,,,,,,,,,,,,,,,,,,,,,,,,,,,,,,,,,,,,,,,,,,
,,,,,,,,,66046225387696a0f72502e5,Spanish,13 or older,"no, only English or Spanish",yes,2025-07-22_21h56.35.654,empathy_intonation_perc,2024.2.4,Win32,60.24096386,66046225387696a0f72502e5,687ed1b7e638a4cbf2f02089,688040b8275ee6c7b2cc2e0f,566.145,622.9785,0,0,9.806,,,0,2,2,0,1,1,1,The son asked the mom if Aunt Marina is okay.,./stim/exposure_wavs/ga_stimuli_convo.wav,47,,,,,,,,,,,,,,,,,,,,,,,,,,,,,,,,,,,,,,,,,,,,,,,,,,,,,,,,,,,,,,,,,,,,,,,,,,,,,,,,,,,,,,,,,
,,,,,,,"In the following task you are going to hear a series of utterances. 

  You will decide if the utterances sound like questions or not using your keyboard.", (press the spacebar to continue),66046225387696a0f72502e5,Spanish,13 or older,"no, only English or Spanish",yes,2025-07-22_21h56.35.654,empathy_intonation_perc,2024.2.4,Win32,60.24096386,66046225387696a0f72502e5,687ed1b7e638a4cbf2f02089,688040b8275ee6c7b2cc2e0f,,,,,,,,,,,,,,,,,,622.9833,631.1053,0,0,0,0,1,,,,,,,,,,,,,,,,,,,,,,,,,,,,,,,,,,,,,,,,,,,,,,,,,,,,,,,,,,,,,,,,,,,,,,,,,,,,,,,,,,
,,,,,,,"If you believe the utterance is a question, type '1' (for 'yes') and if you do not 
  believe it is a question type '0' (for 'no').

  Let's practice a bit...", (press the spacebar to continue),66046225387696a0f72502e5,Spanish,13 or older,"no, only English or Spanish",yes,2025-07-22_21h56.35.654,empathy_intonation_perc,2024.2.4,Win32,60.24096386,66046225387696a0f72502e5,687ed1b7e638a4cbf2f02089,688040b8275ee6c7b2cc2e0f,,,,,,,,,,,,,,,,,,631.1082,635.9347,0,1,1,1,1,,,,,,,,,,,,,,,,,,,,,,,,,,,,,,,,,,,,,,,,,,,,,,,,,,,,,,,,,,,,,,,,,,,,,,,,,,,,,,,,,,
,,,,,,,,,66046225387696a0f72502e5,Spanish,13 or older,"no, only English or Spanish",yes,2025-07-22_21h56.35.654,empathy_intonation_perc,2024.2.4,Win32,60.24096386,66046225387696a0f72502e5,687ed1b7e638a4cbf2f02089,688040b8275ee6c7b2cc2e0f,,,,,,,,,,,,,,0,,./stim/wavs/andalusian_statement_filler_Alberto-nunca-se-afeita.wav,,,,,,,,,635.9425,643.3454,0,1,6.8867,,0,0,0,5,1,,,,,,,,,,,,,,,,,,,,,,,,,,,,,,,,,,,,,,,,,,,,,,,,,,,,,,,,,,,,,,,,,,,,,,,
,,,,,,,,,66046225387696a0f72502e5,Spanish,13 or older,"no, only English or Spanish",yes,2025-07-22_21h56.35.654,empathy_intonation_perc,2024.2.4,Win32,60.24096386,66046225387696a0f72502e5,687ed1b7e638a4cbf2f02089,688040b8275ee6c7b2cc2e0f,,,,,,,,,,,,,,1,,./stim/wavs/castilian_question_filler_Mi-esposo-conoce-al-chico.wav,,,,,,,,,643.3459,647.8581,0,0,3.9812,,0,1,1,0,1,,,,,,,,,,,,,,,,,,,,,,,,,,,,,,,,,,,,,,,,,,,,,,,,,,,,,,,,,,,,,,,,,,,,,,,
,,,,,,,,,66046225387696a0f72502e5,Spanish,13 or older,"no, only English or Spanish",yes,2025-07-22_21h56.35.654,empathy_intonation_perc,2024.2.4,Win32,60.24096386,66046225387696a0f72502e5,687ed1b7e638a4cbf2f02089,688040b8275ee6c7b2cc2e0f,,,,,,,,,,,,,,0,,./stim/wavs/puertorican_statement_filler_La-nina-pinta-con-su-amiga.wav,,,,,,,,,647.8588,650.3061,0,1,1.9304,,0,2,2,7,1,,,,,,,,,,,,,,,,,,,,,,,,,,,,,,,,,,,,,,,,,,,,,,,,,,,,,,,,,,,,,,,,,,,,,,,
,,,,,,,,,66046225387696a0f72502e5,Spanish,13 or older,"no, only English or Spanish",yes,2025-07-22_21h56.35.654,empathy_intonation_perc,2024.2.4,Win32,60.24096386,66046225387696a0f72502e5,687ed1b7e638a4cbf2f02089,688040b8275ee6c7b2cc2e0f,,,,,,,,,,,,,,0,,./stim/wavs/cuban_statement_filler_Cocinabas-por-la-noche.wav,,,,,,,,,650.3067,652.7375,0,1,1.9049,,0,3,3,4,1,,,,,,,,,,,,,,,,,,,,,,,,,,,,,,,,,,,,,,,,,,,,,,,,,,,,,,,,,,,,,,,,,,,,,,,
,,,,,,,,,66046225387696a0f72502e5,Spanish,13 or older,"no, only English or Spanish",yes,2025-07-22_21h56.35.654,empathy_intonation_perc,2024.2.4,Win32,60.24096386,66046225387696a0f72502e5,687ed1b7e638a4cbf2f02089,688040b8275ee6c7b2cc2e0f,,,,,,,,,,,,,,1,,./stim/wavs/argentine_question_filler_Mi-vecino-habla-mucho.wav,,,,,,,,,652.738,661.1972,1,1,7.9345,,0,4,4,1,1,,,,,,,,,,,,,,,,,,,,,,,,,,,,,,,,,,,,,,,,,,,,,,,,,,,,,,,,,,,,,,,,,,,,,,,
,,,,,,,,,66046225387696a0f72502e5,Spanish,13 or older,"no, only English or Spanish",yes,2025-07-22_21h56.35.654,empathy_intonation_perc,2024.2.4,Win32,60.24096386,66046225387696a0f72502e5,687ed1b7e638a4cbf2f02089,688040b8275ee6c7b2cc2e0f,,,,,,,,,,,,,,1,,./stim/wavs/chilean_question_filler_Mi-padre-cantaba-bien.wav,,,,,,,,,661.1975,663.0622,1,1,1.3323,,0,5,5,2,1,,,,,,,,,,,,,,,,,,,,,,,,,,,,,,,,,,,,,,,,,,,,,,,,,,,,,,,,,,,,,,,,,,,,,,,
,,,,,,,,,66046225387696a0f72502e5,Spanish,13 or older,"no, only English or Spanish",yes,2025-07-22_21h56.35.654,empathy_intonation_perc,2024.2.4,Win32,60.24096386,66046225387696a0f72502e5,687ed1b7e638a4cbf2f02089,688040b8275ee6c7b2cc2e0f,,,,,,,,,,,,,,1,,./stim/wavs/mexican_question_filler_Felipe-no-tiene-contrasena.wav,,,,,,,,,663.0626,666.1265,0,0,2.5315,,0,6,6,3,1,,,,,,,,,,,,,,,,,,,,,,,,,,,,,,,,,,,,,,,,,,,,,,,,,,,,,,,,,,,,,,,,,,,,,,,
,,,,,,,,,66046225387696a0f72502e5,Spanish,13 or older,"no, only English or Spanish",yes,2025-07-22_21h56.35.654,empathy_intonation_perc,2024.2.4,Win32,60.24096386,66046225387696a0f72502e5,687ed1b7e638a4cbf2f02089,688040b8275ee6c7b2cc2e0f,,,,,,,,,,,,,,0,,./stim/wavs/peruvian_statement_filler_El-nino-habla-con-su-madre.wav,,,,,,,,,666.1268,669.1408,0,1,2.4837,,0,7,7,6,1,,,,,,,,,,,,,,,,,,,,,,,,,,,,,,,,,,,,,,,,,,,,,,,,,,,,,,,,,,,,,,,,,,,,,,,
,,,,,,,,,66046225387696a0f72502e5,Spanish,13 or older,"no, only English or Spanish",yes,2025-07-22_21h56.35.654,empathy_intonation_perc,2024.2.4,Win32,60.24096386,66046225387696a0f72502e5,687ed1b7e638a4cbf2f02089,688040b8275ee6c7b2cc2e0f,,,,,,,,,,,,,,,,,,,,,,,,,,,,,,,,,,,,669.1411,674.3533,,,,,,,,,,,,,,,,,,,,,,,,,,,,,,,,,,,,,,,,,,,,,,,,,,,,,,,,,,,,,,,,,,,,,
,,,,,,,,,66046225387696a0f72502e5,Spanish,13 or older,"no, only English or Spanish",yes,2025-07-22_21h56.35.654,empathy_intonation_perc,2024.2.4,Win32,60.24096386,66046225387696a0f72502e5,687ed1b7e638a4cbf2f02089,688040b8275ee6c7b2cc2e0f,,,,,,,,,,,,,77,0,,./stim/wavs/cuban_mismatch_declarative-broad-focus_Mi-novio-viene-del-lago.wav,,,,,,,,,,,,,,,,,,,,,,674.3657,677.301,0,1,2.4149,,0,0,0,76,1,0,cuban,,,,,,,,,,,,,,,,,,,,,,,,,,,,,,,,,,,,,,,,,,,,,,,,,,,,,,,,
,,,,,,,,,66046225387696a0f72502e5,Spanish,13 or older,"no, only English or Spanish",yes,2025-07-22_21h56.35.654,empathy_intonation_perc,2024.2.4,Win32,60.24096386,66046225387696a0f72502e5,687ed1b7e638a4cbf2f02089,688040b8275ee6c7b2cc2e0f,,,,,,,,,,,,,43,1,,./stim/wavs/puertorican_mismatch_interrogative-total-yn_La-nina-lava-el-plato.wav,,,,,,,,,,,,,,,,,,,,,,677.3018,681.1808,0,0,3.3466,,0,1,1,42,1,1,puertorican,,,,,,,,,,,,,,,,,,,,,,,,,,,,,,,,,,,,,,,,,,,,,,,,,,,,,,,,
,,,,,,,,,66046225387696a0f72502e5,Spanish,13 or older,"no, only English or Spanish",yes,2025-07-22_21h56.35.654,empathy_intonation_perc,2024.2.4,Win32,60.24096386,66046225387696a0f72502e5,687ed1b7e638a4cbf2f02089,688040b8275ee6c7b2cc2e0f,,,,,,,,,,,,,19,1,,./stim/wavs/puertorican_match_interrogative-total-yn_Ana-lleva-el-abrigo.wav,,,,,,,,,,,,,,,,,,,,,,681.1813,684.8776,1,1,3.1692,,0,2,2,18,1,1,puertorican,,,,,,,,,,,,,,,,,,,,,,,,,,,,,,,,,,,,,,,,,,,,,,,,,,,,,,,,
,,,,,,,,,66046225387696a0f72502e5,Spanish,13 or older,"no, only English or Spanish",yes,2025-07-22_21h56.35.654,empathy_intonation_perc,2024.2.4,Win32,60.24096386,66046225387696a0f72502e5,687ed1b7e638a4cbf2f02089,688040b8275ee6c7b2cc2e0f,,,,,,,,,,,,,24,1,,./stim/wavs/puertorican_match_interrogative-total-yn_Maria-bebe-el-vino.wav,,,,,,,,,,,,,,,,,,,,,,684.8779,686.9924,1,1,1.5956,,0,3,3,23,1,1,puertorican,,,,,,,,,,,,,,,,,,,,,,,,,,,,,,,,,,,,,,,,,,,,,,,,,,,,,,,,
,,,,,,,,,66046225387696a0f72502e5,Spanish,13 or older,"no, only English or Spanish",yes,2025-07-22_21h56.35.654,empathy_intonation_perc,2024.2.4,Win32,60.24096386,66046225387696a0f72502e5,687ed1b7e638a4cbf2f02089,688040b8275ee6c7b2cc2e0f,,,,,,,,,,,,,52,0,,./stim/wavs/cuban_match_declarative-broad-focus_Daniel-iba-a-Bolivia.wav,,,,,,,,,,,,,,,,,,,,,,686.9929,689.9568,0,1,2.4327,,0,4,4,51,1,0,cuban,,,,,,,,,,,,,,,,,,,,,,,,,,,,,,,,,,,,,,,,,,,,,,,,,,,,,,,,
,,,,,,,,,66046225387696a0f72502e5,Spanish,13 or older,"no, only English or Spanish",yes,2025-07-22_21h56.35.654,empathy_intonation_perc,2024.2.4,Win32,60.24096386,66046225387696a0f72502e5,687ed1b7e638a4cbf2f02089,688040b8275ee6c7b2cc2e0f,,,,,,,,,,,,,28,1,,./stim/wavs/castilian_mismatch_interrogative-total-yn_Mi-novio-viene-del-lago.wav,,,,,,,,,,,,,,,,,,,,,,689.9572,697.3173,0,0,6.8366,,0,5,5,27,1,0,castilian,,,,,,,,,,,,,,,,,,,,,,,,,,,,,,,,,,,,,,,,,,,,,,,,,,,,,,,,
,,,,,,,,,66046225387696a0f72502e5,Spanish,13 or older,"no, only English or Spanish",yes,2025-07-22_21h56.35.654,empathy_intonation_perc,2024.2.4,Win32,60.24096386,66046225387696a0f72502e5,687ed1b7e638a4cbf2f02089,688040b8275ee6c7b2cc2e0f,,,,,,,,,,,,,1,1,,./stim/wavs/castilian_match_interrogative-total-yn_David-leia-el-libro.wav,,,,,,,,,,,,,,,,,,,,,,697.3176,704.0118,0,0,6.168,,0,6,6,0,1,0,castilian,,,,,,,,,,,,,,,,,,,,,,,,,,,,,,,,,,,,,,,,,,,,,,,,,,,,,,,,
,,,,,,,,,66046225387696a0f72502e5,Spanish,13 or older,"no, only English or Spanish",yes,2025-07-22_21h56.35.654,empathy_intonation_perc,2024.2.4,Win32,60.24096386,66046225387696a0f72502e5,687ed1b7e638a4cbf2f02089,688040b8275ee6c7b2cc2e0f,,,,,,,,,,,,,59,0,,./stim/wavs/mexican_match_declarative-broad-focus_David-leia-el-libro.wav,,,,,,,,,,,,,,,,,,,,,,704.0122,706.3432,0,1,1.8067,,0,7,7,58,1,0,mexican,,,,,,,,,,,,,,,,,,,,,,,,,,,,,,,,,,,,,,,,,,,,,,,,,,,,,,,,
,,,,,,,,,66046225387696a0f72502e5,Spanish,13 or older,"no, only English or Spanish",yes,2025-07-22_21h56.35.654,empathy_intonation_perc,2024.2.4,Win32,60.24096386,66046225387696a0f72502e5,687ed1b7e638a4cbf2f02089,688040b8275ee6c7b2cc2e0f,,,,,,,,,,,,,15,1,,./stim/wavs/mexican_match_interrogative-total-yn_David-leia-el-libro.wav,,,,,,,,,,,,,,,,,,,,,,706.3438,709.8238,0,0,2.9477,,0,8,8,14,1,0,mexican,,,,,,,,,,,,,,,,,,,,,,,,,,,,,,,,,,,,,,,,,,,,,,,,,,,,,,,,
,,,,,,,,,66046225387696a0f72502e5,Spanish,13 or older,"no, only English or Spanish",yes,2025-07-22_21h56.35.654,empathy_intonation_perc,2024.2.4,Win32,60.24096386,66046225387696a0f72502e5,687ed1b7e638a4cbf2f02089,688040b8275ee6c7b2cc2e0f,,,,,,,,,,,,,51,0,,./stim/wavs/cuban_match_declarative-broad-focus_Ana-lleva-el-abrigo.wav,,,,,,,,,,,,,,,,,,,,,,709.8244,712.3885,0,1,2.0371,,0,9,9,50,1,0,cuban,,,,,,,,,,,,,,,,,,,,,,,,,,,,,,,,,,,,,,,,,,,,,,,,,,,,,,,,
,,,,,,,,,66046225387696a0f72502e5,Spanish,13 or older,"no, only English or Spanish",yes,2025-07-22_21h56.35.654,empathy_intonation_perc,2024.2.4,Win32,60.24096386,66046225387696a0f72502e5,687ed1b7e638a4cbf2f02089,688040b8275ee6c7b2cc2e0f,,,,,,,,,,,,,46,0,,./stim/wavs/castilian_match_declarative-broad-focus_Emilio-ama-la-marcha.wav,,,,,,,,,,,,,,,,,,,,,,712.3891,715.5524,0,1,2.6317,,0,10,10,45,1,0,castilian,,,,,,,,,,,,,,,,,,,,,,,,,,,,,,,,,,,,,,,,,,,,,,,,,,,,,,,,
,,,,,,,,,66046225387696a0f72502e5,Spanish,13 or older,"no, only English or Spanish",yes,2025-07-22_21h56.35.654,empathy_intonation_perc,2024.2.4,Win32,60.24096386,66046225387696a0f72502e5,687ed1b7e638a4cbf2f02089,688040b8275ee6c7b2cc2e0f,,,,,,,,,,,,,6,1,,./stim/wavs/castilian_match_interrogative-total-yn_Marta-abre-el-regalo.wav,,,,,,,,,,,,,,,,,,,,,,715.5528,722.9796,1,1,6.9025,,0,11,11,5,1,0,castilian,,,,,,,,,,,,,,,,,,,,,,,,,,,,,,,,,,,,,,,,,,,,,,,,,,,,,,,,
,,,,,,,,,66046225387696a0f72502e5,Spanish,13 or older,"no, only English or Spanish",yes,2025-07-22_21h56.35.654,empathy_intonation_perc,2024.2.4,Win32,60.24096386,66046225387696a0f72502e5,687ed1b7e638a4cbf2f02089,688040b8275ee6c7b2cc2e0f,,,,,,,,,,,,,68,0,,./stim/wavs/puertorican_match_declarative-broad-focus_Maria-bebe-el-vino.wav,,,,,,,,,,,,,,,,,,,,,,722.9801,728.6751,0,1,5.1627,,0,12,12,67,1,0,puertorican,,,,,,,,,,,,,,,,,,,,,,,,,,,,,,,,,,,,,,,,,,,,,,,,,,,,,,,,
,,,,,,,,,66046225387696a0f72502e5,Spanish,13 or older,"no, only English or Spanish",yes,2025-07-22_21h56.35.654,empathy_intonation_perc,2024.2.4,Win32,60.24096386,66046225387696a0f72502e5,687ed1b7e638a4cbf2f02089,688040b8275ee6c7b2cc2e0f,,,,,,,,,,,,,48,0,,./stim/wavs/castilian_match_declarative-broad-focus_Maria-bebe-el-vino.wav,,,,,,,,,,,,,,,,,,,,,,728.6756,731.3395,0,1,2.1351,,0,13,13,47,1,0,castilian,,,,,,,,,,,,,,,,,,,,,,,,,,,,,,,,,,,,,,,,,,,,,,,,,,,,,,,,
,,,,,,,,,66046225387696a0f72502e5,Spanish,13 or older,"no, only English or Spanish",yes,2025-07-22_21h56.35.654,empathy_intonation_perc,2024.2.4,Win32,60.24096386,66046225387696a0f72502e5,687ed1b7e638a4cbf2f02089,688040b8275ee6c7b2cc2e0f,,,,,,,,,,,,,22,1,,./stim/wavs/puertorican_match_interrogative-total-yn_Emilio-ama-la-marcha.wav,,,,,,,,,,,,,,,,,,,,,,731.3399,735.0199,1,1,3.1472,,0,14,14,21,1,1,puertorican,,,,,,,,,,,,,,,,,,,,,,,,,,,,,,,,,,,,,,,,,,,,,,,,,,,,,,,,
,,,,,,,,,66046225387696a0f72502e5,Spanish,13 or older,"no, only English or Spanish",yes,2025-07-22_21h56.35.654,empathy_intonation_perc,2024.2.4,Win32,60.24096386,66046225387696a0f72502e5,687ed1b7e638a4cbf2f02089,688040b8275ee6c7b2cc2e0f,,,,,,,,,,,,,66,0,,./stim/wavs/puertorican_match_declarative-broad-focus_Emilio-ama-la-marcha.wav,,,,,,,,,,,,,,,,,,,,,,735.0207,737.651,0,1,2.103,,0,15,15,65,1,0,puertorican,,,,,,,,,,,,,,,,,,,,,,,,,,,,,,,,,,,,,,,,,,,,,,,,,,,,,,,,
,,,,,,,,,66046225387696a0f72502e5,Spanish,13 or older,"no, only English or Spanish",yes,2025-07-22_21h56.35.654,empathy_intonation_perc,2024.2.4,Win32,60.24096386,66046225387696a0f72502e5,687ed1b7e638a4cbf2f02089,688040b8275ee6c7b2cc2e0f,,,,,,,,,,,,,72,0,,./stim/wavs/castilian_mismatch_declarative-broad-focus_Mi-novio-viene-del-lago.wav,,,,,,,,,,,,,,,,,,,,,,737.6517,740.8151,0,1,2.6314,,0,16,16,71,1,0,castilian,,,,,,,,,,,,,,,,,,,,,,,,,,,,,,,,,,,,,,,,,,,,,,,,,,,,,,,,
,,,,,,,,,66046225387696a0f72502e5,Spanish,13 or older,"no, only English or Spanish",yes,2025-07-22_21h56.35.654,empathy_intonation_perc,2024.2.4,Win32,60.24096386,66046225387696a0f72502e5,687ed1b7e638a4cbf2f02089,688040b8275ee6c7b2cc2e0f,,,,,,,,,,,,,18,1,,./stim/wavs/mexican_match_interrogative-total-yn_Marta-abre-el-regalo.wav,,,,,,,,,,,,,,,,,,,,,,740.8155,745.2293,1,1,3.8869,,0,17,17,17,1,0,mexican,,,,,,,,,,,,,,,,,,,,,,,,,,,,,,,,,,,,,,,,,,,,,,,,,,,,,,,,
,,,,,,,,,66046225387696a0f72502e5,Spanish,13 or older,"no, only English or Spanish",yes,2025-07-22_21h56.35.654,empathy_intonation_perc,2024.2.4,Win32,60.24096386,66046225387696a0f72502e5,687ed1b7e638a4cbf2f02089,688040b8275ee6c7b2cc2e0f,,,,,,,,,,,,,17,1,,./stim/wavs/mexican_match_interrogative-total-yn_Mariano-habla-del-tiempo.wav,,,,,,,,,,,,,,,,,,,,,,745.2299,750.2092,0,0,4.4573,,0,18,18,16,1,0,mexican,,,,,,,,,,,,,,,,,,,,,,,,,,,,,,,,,,,,,,,,,,,,,,,,,,,,,,,,
,,,,,,,,,66046225387696a0f72502e5,Spanish,13 or older,"no, only English or Spanish",yes,2025-07-22_21h56.35.654,empathy_intonation_perc,2024.2.4,Win32,60.24096386,66046225387696a0f72502e5,687ed1b7e638a4cbf2f02089,688040b8275ee6c7b2cc2e0f,,,,,,,,,,,,,27,1,,./stim/wavs/castilian_mismatch_interrogative-total-yn_Mi-madre-come-la-fruta.wav,,,,,,,,,,,,,,,,,,,,,,750.2096,757.6846,1,1,6.9454,,0,19,19,26,1,0,castilian,,,,,,,,,,,,,,,,,,,,,,,,,,,,,,,,,,,,,,,,,,,,,,,,,,,,,,,,
,,,,,,,,,66046225387696a0f72502e5,Spanish,13 or older,"no, only English or Spanish",yes,2025-07-22_21h56.35.654,empathy_intonation_perc,2024.2.4,Win32,60.24096386,66046225387696a0f72502e5,687ed1b7e638a4cbf2f02089,688040b8275ee6c7b2cc2e0f,,,,,,,,,,,,,7,1,,./stim/wavs/cuban_match_interrogative-total-yn_Ana-lleva-el-abrigo.wav,,,,,,,,,,,,,,,,,,,,,,757.6851,759.7328,1,1,1.5232,,0,20,20,6,1,1,cuban,,,,,,,,,,,,,,,,,,,,,,,,,,,,,,,,,,,,,,,,,,,,,,,,,,,,,,,,
,,,,,,,,,66046225387696a0f72502e5,Spanish,13 or older,"no, only English or Spanish",yes,2025-07-22_21h56.35.654,empathy_intonation_perc,2024.2.4,Win32,60.24096386,66046225387696a0f72502e5,687ed1b7e638a4cbf2f02089,688040b8275ee6c7b2cc2e0f,,,,,,,,,,,,,57,0,,./stim/wavs/mexican_match_declarative-broad-focus_Ana-lleva-el-abrigo.wav,,,,,,,,,,,,,,,,,,,,,,759.7333,762.1643,0,1,1.9044,,0,21,21,56,1,0,mexican,,,,,,,,,,,,,,,,,,,,,,,,,,,,,,,,,,,,,,,,,,,,,,,,,,,,,,,,
,,,,,,,,,66046225387696a0f72502e5,Spanish,13 or older,"no, only English or Spanish",yes,2025-07-22_21h56.35.654,empathy_intonation_perc,2024.2.4,Win32,60.24096386,66046225387696a0f72502e5,687ed1b7e638a4cbf2f02089,688040b8275ee6c7b2cc2e0f,,,,,,,,,,,,,14,1,,./stim/wavs/mexican_match_interrogative-total-yn_Daniel-iba-a-Bolivia.wav,,,,,,,,,,,,,,,,,,,,,,762.1649,766.994,0,0,4.2993,,0,22,22,13,1,0,mexican,,,,,,,,,,,,,,,,,,,,,,,,,,,,,,,,,,,,,,,,,,,,,,,,,,,,,,,,
,,,,,,,,,66046225387696a0f72502e5,Spanish,13 or older,"no, only English or Spanish",yes,2025-07-22_21h56.35.654,empathy_intonation_perc,2024.2.4,Win32,60.24096386,66046225387696a0f72502e5,687ed1b7e638a4cbf2f02089,688040b8275ee6c7b2cc2e0f,,,,,,,,,,,,,42,1,,./stim/wavs/puertorican_mismatch_interrogative-total-yn_La-maestra-vive-en-Paris.wav,,,,,,,,,,,,,,,,,,,,,,766.9944,771.8922,0,0,4.3744,,0,23,23,41,1,1,puertorican,,,,,,,,,,,,,,,,,,,,,,,,,,,,,,,,,,,,,,,,,,,,,,,,,,,,,,,,
,,,,,,,,,66046225387696a0f72502e5,Spanish,13 or older,"no, only English or Spanish",yes,2025-07-22_21h56.35.654,empathy_intonation_perc,2024.2.4,Win32,60.24096386,66046225387696a0f72502e5,687ed1b7e638a4cbf2f02089,688040b8275ee6c7b2cc2e0f,,,,,,,,,,,,,71,0,,./stim/wavs/castilian_mismatch_declarative-broad-focus_La-nina-lava-el-plato.wav,,,,,,,,,,,,,,,,,,,,,,771.8926,774.371,0,1,1.952,,0,24,24,70,1,0,castilian,,,,,,,,,,,,,,,,,,,,,,,,,,,,,,,,,,,,,,,,,,,,,,,,,,,,,,,,
,,,,,,,,,66046225387696a0f72502e5,Spanish,13 or older,"no, only English or Spanish",yes,2025-07-22_21h56.35.654,empathy_intonation_perc,2024.2.4,Win32,60.24096386,66046225387696a0f72502e5,687ed1b7e638a4cbf2f02089,688040b8275ee6c7b2cc2e0f,,,,,,,,,,,,,40,1,,./stim/wavs/puertorican_mismatch_interrogative-total-yn_El-hombre-mira-la-luna.wav,,,,,,,,,,,,,,,,,,,,,,774.3717,777.7847,1,1,2.8843,,0,25,25,39,1,1,puertorican,,,,,,,,,,,,,,,,,,,,,,,,,,,,,,,,,,,,,,,,,,,,,,,,,,,,,,,,
,,,,,,,,,66046225387696a0f72502e5,Spanish,13 or older,"no, only English or Spanish",yes,2025-07-22_21h56.35.654,empathy_intonation_perc,2024.2.4,Win32,60.24096386,66046225387696a0f72502e5,687ed1b7e638a4cbf2f02089,688040b8275ee6c7b2cc2e0f,,,,,,,,,,,,,41,1,,./stim/wavs/puertorican_mismatch_interrogative-total-yn_El-nino-oye-el-rio.wav,,,,,,,,,,,,,,,,,,,,,,777.7852,783.7298,1,1,5.4152,,0,26,26,40,1,1,puertorican,,,,,,,,,,,,,,,,,,,,,,,,,,,,,,,,,,,,,,,,,,,,,,,,,,,,,,,,
,,,,,,,,,66046225387696a0f72502e5,Spanish,13 or older,"no, only English or Spanish",yes,2025-07-22_21h56.35.654,empathy_intonation_perc,2024.2.4,Win32,60.24096386,66046225387696a0f72502e5,687ed1b7e638a4cbf2f02089,688040b8275ee6c7b2cc2e0f,,,,,,,,,,,,,54,0,,./stim/wavs/cuban_match_declarative-broad-focus_Maria-bebe-el-vino.wav,,,,,,,,,,,,,,,,,,,,,,783.7303,786.5607,0,1,2.3061,,0,27,27,53,1,0,cuban,,,,,,,,,,,,,,,,,,,,,,,,,,,,,,,,,,,,,,,,,,,,,,,,,,,,,,,,
,,,,,,,,,66046225387696a0f72502e5,Spanish,13 or older,"no, only English or Spanish",yes,2025-07-22_21h56.35.654,empathy_intonation_perc,2024.2.4,Win32,60.24096386,66046225387696a0f72502e5,687ed1b7e638a4cbf2f02089,688040b8275ee6c7b2cc2e0f,,,,,,,,,,,,,32,1,,./stim/wavs/cuban_mismatch_interrogative-total-yn_Mi-madre-come-la-fruta.wav,,,,,,,,,,,,,,,,,,,,,,786.5611,788.8589,0,0,1.7737,,0,28,28,31,1,1,cuban,,,,,,,,,,,,,,,,,,,,,,,,,,,,,,,,,,,,,,,,,,,,,,,,,,,,,,,,
,,,,,,,,,66046225387696a0f72502e5,Spanish,13 or older,"no, only English or Spanish",yes,2025-07-22_21h56.35.654,empathy_intonation_perc,2024.2.4,Win32,60.24096386,66046225387696a0f72502e5,687ed1b7e638a4cbf2f02089,688040b8275ee6c7b2cc2e0f,,,,,,,,,,,,,67,0,,./stim/wavs/puertorican_match_declarative-broad-focus_Manuela-vende-el-carro.wav,,,,,,,,,,,,,,,,,,,,,,788.8595,790.8906,0,1,1.5041,,0,29,29,66,1,0,puertorican,,,,,,,,,,,,,,,,,,,,,,,,,,,,,,,,,,,,,,,,,,,,,,,,,,,,,,,,
,,,,,,,,,66046225387696a0f72502e5,Spanish,13 or older,"no, only English or Spanish",yes,2025-07-22_21h56.35.654,empathy_intonation_perc,2024.2.4,Win32,60.24096386,66046225387696a0f72502e5,687ed1b7e638a4cbf2f02089,688040b8275ee6c7b2cc2e0f,,,,,,,,,,,,,49,0,,./stim/wavs/castilian_match_declarative-broad-focus_Mariano-habla-del-tiempo.wav,,,,,,,,,,,,,,,,,,,,,,790.8909,793.4885,0,1,2.0655,,0,30,30,48,1,0,castilian,,,,,,,,,,,,,,,,,,,,,,,,,,,,,,,,,,,,,,,,,,,,,,,,,,,,,,,,
,,,,,,,,,66046225387696a0f72502e5,Spanish,13 or older,"no, only English or Spanish",yes,2025-07-22_21h56.35.654,empathy_intonation_perc,2024.2.4,Win32,60.24096386,66046225387696a0f72502e5,687ed1b7e638a4cbf2f02089,688040b8275ee6c7b2cc2e0f,,,,,,,,,,,,,74,0,,./stim/wavs/cuban_mismatch_declarative-broad-focus_El-bebe-comia-muy-bien.wav,,,,,,,,,,,,,,,,,,,,,,793.4889,795.6699,0,1,1.6512,,0,31,31,73,1,0,cuban,,,,,,,,,,,,,,,,,,,,,,,,,,,,,,,,,,,,,,,,,,,,,,,,,,,,,,,,
,,,,,,,,,66046225387696a0f72502e5,Spanish,13 or older,"no, only English or Spanish",yes,2025-07-22_21h56.35.654,empathy_intonation_perc,2024.2.4,Win32,60.24096386,66046225387696a0f72502e5,687ed1b7e638a4cbf2f02089,688040b8275ee6c7b2cc2e0f,,,,,,,,,,,,,2,1,,./stim/wavs/castilian_match_interrogative-total-yn_Emilio-ama-la-marcha.wav,,,,,,,,,,,,,,,,,,,,,,795.6703,798.7675,1,1,2.5654,,0,32,32,1,1,0,castilian,,,,,,,,,,,,,,,,,,,,,,,,,,,,,,,,,,,,,,,,,,,,,,,,,,,,,,,,
,,,,,,,,,66046225387696a0f72502e5,Spanish,13 or older,"no, only English or Spanish",yes,2025-07-22_21h56.35.654,empathy_intonation_perc,2024.2.4,Win32,60.24096386,66046225387696a0f72502e5,687ed1b7e638a4cbf2f02089,688040b8275ee6c7b2cc2e0f,,,,,,,,,,,,,58,0,,./stim/wavs/mexican_match_declarative-broad-focus_Daniel-iba-a-Bolivia.wav,,,,,,,,,,,,,,,,,,,,,,798.7679,801.7648,0,1,2.4883,,0,33,33,57,1,0,mexican,,,,,,,,,,,,,,,,,,,,,,,,,,,,,,,,,,,,,,,,,,,,,,,,,,,,,,,,
,,,,,,,,,66046225387696a0f72502e5,Spanish,13 or older,"no, only English or Spanish",yes,2025-07-22_21h56.35.654,empathy_intonation_perc,2024.2.4,Win32,60.24096386,66046225387696a0f72502e5,687ed1b7e638a4cbf2f02089,688040b8275ee6c7b2cc2e0f,,,,,,,,,,,,,81,0,,./stim/wavs/mexican_mismatch_declarative-broad-focus_La-maestra-vive-en-Paris.wav,,,,,,,,,,,,,,,,,,,,,,801.7654,804.1795,0,1,1.883,,0,34,34,80,1,0,mexican,,,,,,,,,,,,,,,,,,,,,,,,,,,,,,,,,,,,,,,,,,,,,,,,,,,,,,,,
,,,,,,,,,66046225387696a0f72502e5,Spanish,13 or older,"no, only English or Spanish",yes,2025-07-22_21h56.35.654,empathy_intonation_perc,2024.2.4,Win32,60.24096386,66046225387696a0f72502e5,687ed1b7e638a4cbf2f02089,688040b8275ee6c7b2cc2e0f,,,,,,,,,,,,,73,0,,./stim/wavs/castilian_mismatch_declarative-broad-focus_Mi-tia-odia-la-lluvia.wav,,,,,,,,,,,,,,,,,,,,,,804.18,806.511,0,1,1.8002,,0,35,35,72,1,0,castilian,,,,,,,,,,,,,,,,,,,,,,,,,,,,,,,,,,,,,,,,,,,,,,,,,,,,,,,,
,,,,,,,,,66046225387696a0f72502e5,Spanish,13 or older,"no, only English or Spanish",yes,2025-07-22_21h56.35.654,empathy_intonation_perc,2024.2.4,Win32,60.24096386,66046225387696a0f72502e5,687ed1b7e638a4cbf2f02089,688040b8275ee6c7b2cc2e0f,,,,,,,,,,,,,38,1,,./stim/wavs/mexican_mismatch_interrogative-total-yn_Mi-novio-viene-del-lago.wav,,,,,,,,,,,,,,,,,,,,,,806.5113,810.1913,1,1,3.1486,,0,36,36,37,1,0,mexican,,,,,,,,,,,,,,,,,,,,,,,,,,,,,,,,,,,,,,,,,,,,,,,,,,,,,,,,
,,,,,,,,,66046225387696a0f72502e5,Spanish,13 or older,"no, only English or Spanish",yes,2025-07-22_21h56.35.654,empathy_intonation_perc,2024.2.4,Win32,60.24096386,66046225387696a0f72502e5,687ed1b7e638a4cbf2f02089,688040b8275ee6c7b2cc2e0f,,,,,,,,,,,,,30,1,,./stim/wavs/cuban_mismatch_interrogative-total-yn_El-hombre-mira-la-luna.wav,,,,,,,,,,,,,,,,,,,,,,810.1918,812.0397,1,1,1.3242,,0,37,37,29,1,1,cuban,,,,,,,,,,,,,,,,,,,,,,,,,,,,,,,,,,,,,,,,,,,,,,,,,,,,,,,,
,,,,,,,,,66046225387696a0f72502e5,Spanish,13 or older,"no, only English or Spanish",yes,2025-07-22_21h56.35.654,empathy_intonation_perc,2024.2.4,Win32,60.24096386,66046225387696a0f72502e5,687ed1b7e638a4cbf2f02089,688040b8275ee6c7b2cc2e0f,,,,,,,,,,,,,34,1,,./stim/wavs/cuban_mismatch_interrogative-total-yn_Mi-tia-odia-la-lluvia.wav,,,,,,,,,,,,,,,,,,,,,,812.0401,815.6368,0,0,3.0705,,0,38,38,33,1,1,cuban,,,,,,,,,,,,,,,,,,,,,,,,,,,,,,,,,,,,,,,,,,,,,,,,,,,,,,,,
,,,,,,,,,66046225387696a0f72502e5,Spanish,13 or older,"no, only English or Spanish",yes,2025-07-22_21h56.35.654,empathy_intonation_perc,2024.2.4,Win32,60.24096386,66046225387696a0f72502e5,687ed1b7e638a4cbf2f02089,688040b8275ee6c7b2cc2e0f,,,,,,,,,,,,,11,1,,./stim/wavs/cuban_match_interrogative-total-yn_Mariano-habla-del-tiempo.wav,,,,,,,,,,,,,,,,,,,,,,815.6372,818.2681,0,0,2.0987,,0,39,39,10,1,1,cuban,,,,,,,,,,,,,,,,,,,,,,,,,,,,,,,,,,,,,,,,,,,,,,,,,,,,,,,,
,,,,,,,,,66046225387696a0f72502e5,Spanish,13 or older,"no, only English or Spanish",yes,2025-07-22_21h56.35.654,empathy_intonation_perc,2024.2.4,Win32,60.24096386,66046225387696a0f72502e5,687ed1b7e638a4cbf2f02089,688040b8275ee6c7b2cc2e0f,,,,,,,,,,,,,85,0,,./stim/wavs/puertorican_mismatch_declarative-broad-focus_El-hombre-mira-la-luna.wav,,,,,,,,,,,,,,,,,,,,,,818.2684,820.3997,0,1,1.6,,0,40,40,84,1,0,puertorican,,,,,,,,,,,,,,,,,,,,,,,,,,,,,,,,,,,,,,,,,,,,,,,,,,,,,,,,
,,,,,,,,,66046225387696a0f72502e5,Spanish,13 or older,"no, only English or Spanish",yes,2025-07-22_21h56.35.654,empathy_intonation_perc,2024.2.4,Win32,60.24096386,66046225387696a0f72502e5,687ed1b7e638a4cbf2f02089,688040b8275ee6c7b2cc2e0f,,,,,,,,,,,,,8,1,,./stim/wavs/cuban_match_interrogative-total-yn_Daniel-iba-a-Bolivia.wav,,,,,,,,,,,,,,,,,,,,,,820.4001,824.6128,1,1,3.6811,,0,41,41,7,1,1,cuban,,,,,,,,,,,,,,,,,,,,,,,,,,,,,,,,,,,,,,,,,,,,,,,,,,,,,,,,
,,,,,,,,,66046225387696a0f72502e5,Spanish,13 or older,"no, only English or Spanish",yes,2025-07-22_21h56.35.654,empathy_intonation_perc,2024.2.4,Win32,60.24096386,66046225387696a0f72502e5,687ed1b7e638a4cbf2f02089,688040b8275ee6c7b2cc2e0f,,,,,,,,,,,,,44,1,,./stim/wavs/puertorican_mismatch_interrogative-total-yn_Mi-madre-come-la-fruta.wav,,,,,,,,,,,,,,,,,,,,,,824.6134,827.4773,0,0,2.3409,,0,42,42,43,1,1,puertorican,,,,,,,,,,,,,,,,,,,,,,,,,,,,,,,,,,,,,,,,,,,,,,,,,,,,,,,,
,,,,,,,,,66046225387696a0f72502e5,Spanish,13 or older,"no, only English or Spanish",yes,2025-07-22_21h56.35.654,empathy_intonation_perc,2024.2.4,Win32,60.24096386,66046225387696a0f72502e5,687ed1b7e638a4cbf2f02089,688040b8275ee6c7b2cc2e0f,,,,,,,,,,,,,79,0,,./stim/wavs/mexican_mismatch_declarative-broad-focus_El-bebe-comia-muy-bien.wav,,,,,,,,,,,,,,,,,,,,,,827.4778,829.9751,0,1,1.9652,,0,43,43,78,1,0,mexican,,,,,,,,,,,,,,,,,,,,,,,,,,,,,,,,,,,,,,,,,,,,,,,,,,,,,,,,
,,,,,,,,,66046225387696a0f72502e5,Spanish,13 or older,"no, only English or Spanish",yes,2025-07-22_21h56.35.654,empathy_intonation_perc,2024.2.4,Win32,60.24096386,66046225387696a0f72502e5,687ed1b7e638a4cbf2f02089,688040b8275ee6c7b2cc2e0f,,,,,,,,,,,,,80,0,,./stim/wavs/mexican_mismatch_declarative-broad-focus_El-hombre-mira-la-luna.wav,,,,,,,,,,,,,,,,,,,,,,829.9756,832.3233,0,1,1.8256,,0,44,44,79,1,0,mexican,,,,,,,,,,,,,,,,,,,,,,,,,,,,,,,,,,,,,,,,,,,,,,,,,,,,,,,,
,,,,,,,,,66046225387696a0f72502e5,Spanish,13 or older,"no, only English or Spanish",yes,2025-07-22_21h56.35.654,empathy_intonation_perc,2024.2.4,Win32,60.24096386,66046225387696a0f72502e5,687ed1b7e638a4cbf2f02089,688040b8275ee6c7b2cc2e0f,,,,,,,,,,,,,82,0,,./stim/wavs/mexican_mismatch_declarative-broad-focus_Mi-novio-viene-del-lago.wav,,,,,,,,,,,,,,,,,,,,,,832.3238,834.4048,0,1,1.5546,,0,45,45,81,1,0,mexican,,,,,,,,,,,,,,,,,,,,,,,,,,,,,,,,,,,,,,,,,,,,,,,,,,,,,,,,
,,,,,,,,,66046225387696a0f72502e5,Spanish,13 or older,"no, only English or Spanish",yes,2025-07-22_21h56.35.654,empathy_intonation_perc,2024.2.4,Win32,60.24096386,66046225387696a0f72502e5,687ed1b7e638a4cbf2f02089,688040b8275ee6c7b2cc2e0f,,,,,,,,,,,,,63,0,,./stim/wavs/puertorican_match_declarative-broad-focus_Ana-lleva-el-abrigo.wav,,,,,,,,,,,,,,,,,,,,,,834.4052,836.3699,0,1,1.4335,,0,46,46,62,1,0,puertorican,,,,,,,,,,,,,,,,,,,,,,,,,,,,,,,,,,,,,,,,,,,,,,,,,,,,,,,,
,,,,,,,,,66046225387696a0f72502e5,Spanish,13 or older,"no, only English or Spanish",yes,2025-07-22_21h56.35.654,empathy_intonation_perc,2024.2.4,Win32,60.24096386,66046225387696a0f72502e5,687ed1b7e638a4cbf2f02089,688040b8275ee6c7b2cc2e0f,,,,,,,,,,,,,26,1,,./stim/wavs/castilian_mismatch_interrogative-total-yn_La-nina-lava-el-plato.wav,,,,,,,,,,,,,,,,,,,,,,836.3703,839.451,1,1,2.5485,,0,47,47,25,1,0,castilian,,,,,,,,,,,,,,,,,,,,,,,,,,,,,,,,,,,,,,,,,,,,,,,,,,,,,,,,
,,,,,,,,,66046225387696a0f72502e5,Spanish,13 or older,"no, only English or Spanish",yes,2025-07-22_21h56.35.654,empathy_intonation_perc,2024.2.4,Win32,60.24096386,66046225387696a0f72502e5,687ed1b7e638a4cbf2f02089,688040b8275ee6c7b2cc2e0f,,,,,,,,,,,,,83,0,,./stim/wavs/mexican_mismatch_declarative-broad-focus_Mi-tia-odia-la-lluvia.wav,,,,,,,,,,,,,,,,,,,,,,839.4516,842.0984,0,1,2.1162,,0,48,48,82,1,0,mexican,,,,,,,,,,,,,,,,,,,,,,,,,,,,,,,,,,,,,,,,,,,,,,,,,,,,,,,,
,,,,,,,,,66046225387696a0f72502e5,Spanish,13 or older,"no, only English or Spanish",yes,2025-07-22_21h56.35.654,empathy_intonation_perc,2024.2.4,Win32,60.24096386,66046225387696a0f72502e5,687ed1b7e638a4cbf2f02089,688040b8275ee6c7b2cc2e0f,,,,,,,,,,,,,69,0,,./stim/wavs/castilian_mismatch_declarative-broad-focus_El-nino-oye-el-rio.wav,,,,,,,,,,,,,,,,,,,,,,842.0988,844.4799,0,1,1.8488,,0,49,49,68,1,0,castilian,,,,,,,,,,,,,,,,,,,,,,,,,,,,,,,,,,,,,,,,,,,,,,,,,,,,,,,,
,,,,,,,,,66046225387696a0f72502e5,Spanish,13 or older,"no, only English or Spanish",yes,2025-07-22_21h56.35.654,empathy_intonation_perc,2024.2.4,Win32,60.24096386,66046225387696a0f72502e5,687ed1b7e638a4cbf2f02089,688040b8275ee6c7b2cc2e0f,,,,,,,,,,,,,65,0,,./stim/wavs/puertorican_match_declarative-broad-focus_David-leia-el-libro.wav,,,,,,,,,,,,,,,,,,,,,,844.4804,846.5782,0,1,1.5658,,0,50,50,64,1,0,puertorican,,,,,,,,,,,,,,,,,,,,,,,,,,,,,,,,,,,,,,,,,,,,,,,,,,,,,,,,
,,,,,,,,,66046225387696a0f72502e5,Spanish,13 or older,"no, only English or Spanish",yes,2025-07-22_21h56.35.654,empathy_intonation_perc,2024.2.4,Win32,60.24096386,66046225387696a0f72502e5,687ed1b7e638a4cbf2f02089,688040b8275ee6c7b2cc2e0f,,,,,,,,,,,,,50,0,,./stim/wavs/castilian_match_declarative-broad-focus_Marta-abre-el-regalo.wav,,,,,,,,,,,,,,,,,,,,,,846.5786,848.7265,0,1,1.618,,0,51,51,49,1,0,castilian,,,,,,,,,,,,,,,,,,,,,,,,,,,,,,,,,,,,,,,,,,,,,,,,,,,,,,,,
,,,,,,,,,66046225387696a0f72502e5,Spanish,13 or older,"no, only English or Spanish",yes,2025-07-22_21h56.35.654,empathy_intonation_perc,2024.2.4,Win32,60.24096386,66046225387696a0f72502e5,687ed1b7e638a4cbf2f02089,688040b8275ee6c7b2cc2e0f,,,,,,,,,,,,,9,1,,./stim/wavs/cuban_match_interrogative-total-yn_Manuela-vende-el-carro.wav,,,,,,,,,,,,,,,,,,,,,,848.727,850.8414,0,0,1.5825,,0,52,52,8,1,1,cuban,,,,,,,,,,,,,,,,,,,,,,,,,,,,,,,,,,,,,,,,,,,,,,,,,,,,,,,,
,,,,,,,,,66046225387696a0f72502e5,Spanish,13 or older,"no, only English or Spanish",yes,2025-07-22_21h56.35.654,empathy_intonation_perc,2024.2.4,Win32,60.24096386,66046225387696a0f72502e5,687ed1b7e638a4cbf2f02089,688040b8275ee6c7b2cc2e0f,,,,,,,,,,,,,13,1,,./stim/wavs/mexican_match_interrogative-total-yn_Ana-lleva-el-abrigo.wav,,,,,,,,,,,,,,,,,,,,,,850.8419,854.0053,1,1,2.6313,,0,53,53,12,1,0,mexican,,,,,,,,,,,,,,,,,,,,,,,,,,,,,,,,,,,,,,,,,,,,,,,,,,,,,,,,
,,,,,,,,,66046225387696a0f72502e5,Spanish,13 or older,"no, only English or Spanish",yes,2025-07-22_21h56.35.654,empathy_intonation_perc,2024.2.4,Win32,60.24096386,66046225387696a0f72502e5,687ed1b7e638a4cbf2f02089,688040b8275ee6c7b2cc2e0f,,,,,,,,,,,,,61,0,,./stim/wavs/mexican_match_declarative-broad-focus_Mariano-habla-del-tiempo.wav,,,,,,,,,,,,,,,,,,,,,,854.0056,856.4869,0,1,1.95,,0,54,54,60,1,0,mexican,,,,,,,,,,,,,,,,,,,,,,,,,,,,,,,,,,,,,,,,,,,,,,,,,,,,,,,,
,,,,,,,,,66046225387696a0f72502e5,Spanish,13 or older,"no, only English or Spanish",yes,2025-07-22_21h56.35.654,empathy_intonation_perc,2024.2.4,Win32,60.24096386,66046225387696a0f72502e5,687ed1b7e638a4cbf2f02089,688040b8275ee6c7b2cc2e0f,,,,,,,,,,,,,47,0,,./stim/wavs/castilian_match_declarative-broad-focus_Manuela-vende-el-carro.wav,,,,,,,,,,,,,,,,,,,,,,856.4873,858.7515,0,1,1.7361,,0,55,55,46,1,0,castilian,,,,,,,,,,,,,,,,,,,,,,,,,,,,,,,,,,,,,,,,,,,,,,,,,,,,,,,,
,,,,,,,,,66046225387696a0f72502e5,Spanish,13 or older,"no, only English or Spanish",yes,2025-07-22_21h56.35.654,empathy_intonation_perc,2024.2.4,Win32,60.24096386,66046225387696a0f72502e5,687ed1b7e638a4cbf2f02089,688040b8275ee6c7b2cc2e0f,,,,,,,,,,,,,31,1,,./stim/wavs/cuban_mismatch_interrogative-total-yn_El-nino-oye-el-rio.wav,,,,,,,,,,,,,,,,,,,,,,858.752,861.8656,1,1,2.5893,,0,56,56,30,1,1,cuban,,,,,,,,,,,,,,,,,,,,,,,,,,,,,,,,,,,,,,,,,,,,,,,,,,,,,,,,
,,,,,,,,,66046225387696a0f72502e5,Spanish,13 or older,"no, only English or Spanish",yes,2025-07-22_21h56.35.654,empathy_intonation_perc,2024.2.4,Win32,60.24096386,66046225387696a0f72502e5,687ed1b7e638a4cbf2f02089,688040b8275ee6c7b2cc2e0f,,,,,,,,,,,,,37,1,,./stim/wavs/mexican_mismatch_interrogative-total-yn_La-maestra-vive-en-Paris.wav,,,,,,,,,,,,,,,,,,,,,,861.866,865.0797,1,1,2.6882,,0,57,57,36,1,0,mexican,,,,,,,,,,,,,,,,,,,,,,,,,,,,,,,,,,,,,,,,,,,,,,,,,,,,,,,,
,,,,,,,,,66046225387696a0f72502e5,Spanish,13 or older,"no, only English or Spanish",yes,2025-07-22_21h56.35.654,empathy_intonation_perc,2024.2.4,Win32,60.24096386,66046225387696a0f72502e5,687ed1b7e638a4cbf2f02089,688040b8275ee6c7b2cc2e0f,,,,,,,,,,,,,36,1,,./stim/wavs/mexican_mismatch_interrogative-total-yn_El-nino-oye-el-rio.wav,,,,,,,,,,,,,,,,,,,,,,865.0801,867.278,1,1,1.6662,,0,58,58,35,1,0,mexican,,,,,,,,,,,,,,,,,,,,,,,,,,,,,,,,,,,,,,,,,,,,,,,,,,,,,,,,
,,,,,,,,,66046225387696a0f72502e5,Spanish,13 or older,"no, only English or Spanish",yes,2025-07-22_21h56.35.654,empathy_intonation_perc,2024.2.4,Win32,60.24096386,66046225387696a0f72502e5,687ed1b7e638a4cbf2f02089,688040b8275ee6c7b2cc2e0f,,,,,,,,,,,,,16,1,,./stim/wavs/mexican_match_interrogative-total-yn_Emilio-ama-la-marcha.wav,,,,,,,,,,,,,,,,,,,,,,867.2784,869.4429,1,1,1.6338,,0,59,59,15,1,0,mexican,,,,,,,,,,,,,,,,,,,,,,,,,,,,,,,,,,,,,,,,,,,,,,,,,,,,,,,,
,,,,,,,,,66046225387696a0f72502e5,Spanish,13 or older,"no, only English or Spanish",yes,2025-07-22_21h56.35.654,empathy_intonation_perc,2024.2.4,Win32,60.24096386,66046225387696a0f72502e5,687ed1b7e638a4cbf2f02089,688040b8275ee6c7b2cc2e0f,,,,,,,,,,,,,39,1,,./stim/wavs/mexican_mismatch_interrogative-total-yn_Mi-tia-odia-la-lluvia.wav,,,,,,,,,,,,,,,,,,,,,,869.4434,871.3745,1,1,1.3996,,0,60,60,38,1,0,mexican,,,,,,,,,,,,,,,,,,,,,,,,,,,,,,,,,,,,,,,,,,,,,,,,,,,,,,,,
,,,,,,,,,66046225387696a0f72502e5,Spanish,13 or older,"no, only English or Spanish",yes,2025-07-22_21h56.35.654,empathy_intonation_perc,2024.2.4,Win32,60.24096386,66046225387696a0f72502e5,687ed1b7e638a4cbf2f02089,688040b8275ee6c7b2cc2e0f,,,,,,,,,,,,,60,0,,./stim/wavs/mexican_match_declarative-broad-focus_Emilio-ama-la-marcha.wav,,,,,,,,,,,,,,,,,,,,,,871.375,874.8718,0,1,2.9686,,0,61,61,59,1,0,mexican,,,,,,,,,,,,,,,,,,,,,,,,,,,,,,,,,,,,,,,,,,,,,,,,,,,,,,,,
,,,,,,,,,66046225387696a0f72502e5,Spanish,13 or older,"no, only English or Spanish",yes,2025-07-22_21h56.35.654,empathy_intonation_perc,2024.2.4,Win32,60.24096386,66046225387696a0f72502e5,687ed1b7e638a4cbf2f02089,688040b8275ee6c7b2cc2e0f,,,,,,,,,,,,,35,1,,./stim/wavs/mexican_mismatch_interrogative-total-yn_El-hombre-mira-la-luna.wav,,,,,,,,,,,,,,,,,,,,,,874.8722,877.786,1,1,2.3825,,0,62,62,34,1,0,mexican,,,,,,,,,,,,,,,,,,,,,,,,,,,,,,,,,,,,,,,,,,,,,,,,,,,,,,,,
,,,,,,,,,66046225387696a0f72502e5,Spanish,13 or older,"no, only English or Spanish",yes,2025-07-22_21h56.35.654,empathy_intonation_perc,2024.2.4,Win32,60.24096386,66046225387696a0f72502e5,687ed1b7e638a4cbf2f02089,688040b8275ee6c7b2cc2e0f,,,,,,,,,,,,,84,0,,./stim/wavs/puertorican_mismatch_declarative-broad-focus_El-bebe-comia-muy-bien.wav,,,,,,,,,,,,,,,,,,,,,,877.7865,880.6335,0,1,2.3242,,0,63,63,83,1,0,puertorican,,,,,,,,,,,,,,,,,,,,,,,,,,,,,,,,,,,,,,,,,,,,,,,,,,,,,,,,
,,,,,,,,,66046225387696a0f72502e5,Spanish,13 or older,"no, only English or Spanish",yes,2025-07-22_21h56.35.654,empathy_intonation_perc,2024.2.4,Win32,60.24096386,66046225387696a0f72502e5,687ed1b7e638a4cbf2f02089,688040b8275ee6c7b2cc2e0f,,,,,,,,,,,,,25,1,,./stim/wavs/castilian_mismatch_interrogative-total-yn_La-maestra-vive-en-Paris.wav,,,,,,,,,,,,,,,,,,,,,,880.634,883.6146,1,1,2.454,,0,64,64,24,1,0,castilian,,,,,,,,,,,,,,,,,,,,,,,,,,,,,,,,,,,,,,,,,,,,,,,,,,,,,,,,
,,,,,,,,,66046225387696a0f72502e5,Spanish,13 or older,"no, only English or Spanish",yes,2025-07-22_21h56.35.654,empathy_intonation_perc,2024.2.4,Win32,60.24096386,66046225387696a0f72502e5,687ed1b7e638a4cbf2f02089,688040b8275ee6c7b2cc2e0f,,,,,,,,,,,,,4,1,,./stim/wavs/castilian_match_interrogative-total-yn_Maria-bebe-el-vino.wav,,,,,,,,,,,,,,,,,,,,,,883.615,885.6128,1,1,1.466,,0,65,65,3,1,0,castilian,,,,,,,,,,,,,,,,,,,,,,,,,,,,,,,,,,,,,,,,,,,,,,,,,,,,,,,,
,,,,,,,,,66046225387696a0f72502e5,Spanish,13 or older,"no, only English or Spanish",yes,2025-07-22_21h56.35.654,empathy_intonation_perc,2024.2.4,Win32,60.24096386,66046225387696a0f72502e5,687ed1b7e638a4cbf2f02089,688040b8275ee6c7b2cc2e0f,,,,,,,,,,,,,3,1,,./stim/wavs/castilian_match_interrogative-total-yn_Manuela-vende-el-carro.wav,,,,,,,,,,,,,,,,,,,,,,885.6132,887.7277,1,1,1.5899,,0,66,66,2,1,0,castilian,,,,,,,,,,,,,,,,,,,,,,,,,,,,,,,,,,,,,,,,,,,,,,,,,,,,,,,,
,,,,,,,,,66046225387696a0f72502e5,Spanish,13 or older,"no, only English or Spanish",yes,2025-07-22_21h56.35.654,empathy_intonation_perc,2024.2.4,Win32,60.24096386,66046225387696a0f72502e5,687ed1b7e638a4cbf2f02089,688040b8275ee6c7b2cc2e0f,,,,,,,,,,,,,62,0,,./stim/wavs/mexican_match_declarative-broad-focus_Marta-abre-el-regalo.wav,,,,,,,,,,,,,,,,,,,,,,887.7282,890.9586,0,1,2.7054,,0,67,67,61,1,0,mexican,,,,,,,,,,,,,,,,,,,,,,,,,,,,,,,,,,,,,,,,,,,,,,,,,,,,,,,,
,,,,,,,,,66046225387696a0f72502e5,Spanish,13 or older,"no, only English or Spanish",yes,2025-07-22_21h56.35.654,empathy_intonation_perc,2024.2.4,Win32,60.24096386,66046225387696a0f72502e5,687ed1b7e638a4cbf2f02089,688040b8275ee6c7b2cc2e0f,,,,,,,,,,,,,78,0,,./stim/wavs/cuban_mismatch_declarative-broad-focus_Mi-tia-odia-la-lluvia.wav,,,,,,,,,,,,,,,,,,,,,,890.9589,893.1065,0,1,1.6155,,0,68,68,77,1,0,cuban,,,,,,,,,,,,,,,,,,,,,,,,,,,,,,,,,,,,,,,,,,,,,,,,,,,,,,,,
,,,,,,,,,66046225387696a0f72502e5,Spanish,13 or older,"no, only English or Spanish",yes,2025-07-22_21h56.35.654,empathy_intonation_perc,2024.2.4,Win32,60.24096386,66046225387696a0f72502e5,687ed1b7e638a4cbf2f02089,688040b8275ee6c7b2cc2e0f,,,,,,,,,,,,,21,1,,./stim/wavs/puertorican_match_interrogative-total-yn_David-leia-el-libro.wav,,,,,,,,,,,,,,,,,,,,,,893.1069,896.1041,1,1,2.4655,,0,69,69,20,1,1,puertorican,,,,,,,,,,,,,,,,,,,,,,,,,,,,,,,,,,,,,,,,,,,,,,,,,,,,,,,,
,,,,,,,,,66046225387696a0f72502e5,Spanish,13 or older,"no, only English or Spanish",yes,2025-07-22_21h56.35.654,empathy_intonation_perc,2024.2.4,Win32,60.24096386,66046225387696a0f72502e5,687ed1b7e638a4cbf2f02089,688040b8275ee6c7b2cc2e0f,,,,,,,,,,,,,70,0,,./stim/wavs/castilian_mismatch_declarative-broad-focus_La-maestra-vive-en-Paris.wav,,,,,,,,,,,,,,,,,,,,,,896.1048,899.1519,0,1,2.5157,,0,70,70,69,1,0,castilian,,,,,,,,,,,,,,,,,,,,,,,,,,,,,,,,,,,,,,,,,,,,,,,,,,,,,,,,
,,,,,,,,,66046225387696a0f72502e5,Spanish,13 or older,"no, only English or Spanish",yes,2025-07-22_21h56.35.654,empathy_intonation_perc,2024.2.4,Win32,60.24096386,66046225387696a0f72502e5,687ed1b7e638a4cbf2f02089,688040b8275ee6c7b2cc2e0f,,,,,,,,,,,,,86,0,,./stim/wavs/puertorican_mismatch_declarative-broad-focus_El-nino-oye-el-rio.wav,,,,,,,,,,,,,,,,,,,,,,899.1525,901.5331,0,1,1.8499,,0,71,71,85,1,0,puertorican,,,,,,,,,,,,,,,,,,,,,,,,,,,,,,,,,,,,,,,,,,,,,,,,,,,,,,,,
,,,,,,,,,66046225387696a0f72502e5,Spanish,13 or older,"no, only English or Spanish",yes,2025-07-22_21h56.35.654,empathy_intonation_perc,2024.2.4,Win32,60.24096386,66046225387696a0f72502e5,687ed1b7e638a4cbf2f02089,688040b8275ee6c7b2cc2e0f,,,,,,,,,,,,,53,0,,./stim/wavs/cuban_match_declarative-broad-focus_Manuela-vende-el-carro.wav,,,,,,,,,,,,,,,,,,,,,,901.5335,903.6146,0,1,1.5482,,0,72,72,52,1,0,cuban,,,,,,,,,,,,,,,,,,,,,,,,,,,,,,,,,,,,,,,,,,,,,,,,,,,,,,,,
,,,,,,,,,66046225387696a0f72502e5,Spanish,13 or older,"no, only English or Spanish",yes,2025-07-22_21h56.35.654,empathy_intonation_perc,2024.2.4,Win32,60.24096386,66046225387696a0f72502e5,687ed1b7e638a4cbf2f02089,688040b8275ee6c7b2cc2e0f,,,,,,,,,,,,,76,0,,./stim/wavs/cuban_mismatch_declarative-broad-focus_La-nina-lava-el-plato.wav,,,,,,,,,,,,,,,,,,,,,,903.615,905.5297,0,1,1.3826,,0,73,73,75,1,0,cuban,,,,,,,,,,,,,,,,,,,,,,,,,,,,,,,,,,,,,,,,,,,,,,,,,,,,,,,,
,,,,,,,,,66046225387696a0f72502e5,Spanish,13 or older,"no, only English or Spanish",yes,2025-07-22_21h56.35.654,empathy_intonation_perc,2024.2.4,Win32,60.24096386,66046225387696a0f72502e5,687ed1b7e638a4cbf2f02089,688040b8275ee6c7b2cc2e0f,,,,,,,,,,,,,5,1,,./stim/wavs/castilian_match_interrogative-total-yn_Mariano-habla-del-tiempo.wav,,,,,,,,,,,,,,,,,,,,,,905.53,909.4099,1,1,3.3475,,0,74,74,4,1,0,castilian,,,,,,,,,,,,,,,,,,,,,,,,,,,,,,,,,,,,,,,,,,,,,,,,,,,,,,,,
,,,,,,,,,66046225387696a0f72502e5,Spanish,13 or older,"no, only English or Spanish",yes,2025-07-22_21h56.35.654,empathy_intonation_perc,2024.2.4,Win32,60.24096386,66046225387696a0f72502e5,687ed1b7e638a4cbf2f02089,688040b8275ee6c7b2cc2e0f,,,,,,,,,,,,,56,0,,./stim/wavs/cuban_match_declarative-broad-focus_Marta-abre-el-regalo.wav,,,,,,,,,,,,,,,,,,,,,,909.4103,912.3741,0,1,2.4347,,0,75,75,55,1,0,cuban,,,,,,,,,,,,,,,,,,,,,,,,,,,,,,,,,,,,,,,,,,,,,,,,,,,,,,,,
,,,,,,,,,66046225387696a0f72502e5,Spanish,13 or older,"no, only English or Spanish",yes,2025-07-22_21h56.35.654,empathy_intonation_perc,2024.2.4,Win32,60.24096386,66046225387696a0f72502e5,687ed1b7e638a4cbf2f02089,688040b8275ee6c7b2cc2e0f,,,,,,,,,,,,,10,1,,./stim/wavs/cuban_match_interrogative-total-yn_Maria-bebe-el-vino.wav,,,,,,,,,,,,,,,,,,,,,,912.3746,917.0248,1,1,4.1159,,0,76,76,9,1,1,cuban,,,,,,,,,,,,,,,,,,,,,,,,,,,,,,,,,,,,,,,,,,,,,,,,,,,,,,,,
,,,,,,,,,66046225387696a0f72502e5,Spanish,13 or older,"no, only English or Spanish",yes,2025-07-22_21h56.35.654,empathy_intonation_perc,2024.2.4,Win32,60.24096386,66046225387696a0f72502e5,687ed1b7e638a4cbf2f02089,688040b8275ee6c7b2cc2e0f,,,,,,,,,,,,,88,0,,./stim/wavs/puertorican_mismatch_declarative-broad-focus_La-nina-lava-el-plato.wav,,,,,,,,,,,,,,,,,,,,,,917.0253,920.1176,0,1,2.5712,,0,77,77,87,1,0,puertorican,,,,,,,,,,,,,,,,,,,,,,,,,,,,,,,,,,,,,,,,,,,,,,,,,,,,,,,,
,,,,,,,,,66046225387696a0f72502e5,Spanish,13 or older,"no, only English or Spanish",yes,2025-07-22_21h56.35.654,empathy_intonation_perc,2024.2.4,Win32,60.24096386,66046225387696a0f72502e5,687ed1b7e638a4cbf2f02089,688040b8275ee6c7b2cc2e0f,,,,,,,,,,,,,20,1,,./stim/wavs/puertorican_match_interrogative-total-yn_Daniel-iba-a-Bolivia.wav,,,,,,,,,,,,,,,,,,,,,,920.118,923.2317,0,0,2.5852,,0,78,78,19,1,1,puertorican,,,,,,,,,,,,,,,,,,,,,,,,,,,,,,,,,,,,,,,,,,,,,,,,,,,,,,,,
,,,,,,,,,66046225387696a0f72502e5,Spanish,13 or older,"no, only English or Spanish",yes,2025-07-22_21h56.35.654,empathy_intonation_perc,2024.2.4,Win32,60.24096386,66046225387696a0f72502e5,687ed1b7e638a4cbf2f02089,688040b8275ee6c7b2cc2e0f,,,,,,,,,,,,,75,0,,./stim/wavs/cuban_mismatch_declarative-broad-focus_El-hombre-mira-la-luna.wav,,,,,,,,,,,,,,,,,,,,,,923.2319,925.2301,0,1,1.4708,,0,79,79,74,1,0,cuban,,,,,,,,,,,,,,,,,,,,,,,,,,,,,,,,,,,,,,,,,,,,,,,,,,,,,,,,
,,,,,,,,,66046225387696a0f72502e5,Spanish,13 or older,"no, only English or Spanish",yes,2025-07-22_21h56.35.654,empathy_intonation_perc,2024.2.4,Win32,60.24096386,66046225387696a0f72502e5,687ed1b7e638a4cbf2f02089,688040b8275ee6c7b2cc2e0f,,,,,,,,,,,,,12,1,,./stim/wavs/cuban_match_interrogative-total-yn_Marta-abre-el-regalo.wav,,,,,,,,,,,,,,,,,,,,,,925.2306,930.3436,1,1,4.5804,,0,80,80,11,1,1,cuban,,,,,,,,,,,,,,,,,,,,,,,,,,,,,,,,,,,,,,,,,,,,,,,,,,,,,,,,
,,,,,,,,,66046225387696a0f72502e5,Spanish,13 or older,"no, only English or Spanish",yes,2025-07-22_21h56.35.654,empathy_intonation_perc,2024.2.4,Win32,60.24096386,66046225387696a0f72502e5,687ed1b7e638a4cbf2f02089,688040b8275ee6c7b2cc2e0f,,,,,,,,,,,,,45,0,,./stim/wavs/castilian_match_declarative-broad-focus_David-leia-el-libro.wav,,,,,,,,,,,,,,,,,,,,,,930.3441,933.9396,0,1,3.0734,,0,81,81,44,1,0,castilian,,,,,,,,,,,,,,,,,,,,,,,,,,,,,,,,,,,,,,,,,,,,,,,,,,,,,,,,
,,,,,,,,,66046225387696a0f72502e5,Spanish,13 or older,"no, only English or Spanish",yes,2025-07-22_21h56.35.654,empathy_intonation_perc,2024.2.4,Win32,60.24096386,66046225387696a0f72502e5,687ed1b7e638a4cbf2f02089,688040b8275ee6c7b2cc2e0f,,,,,,,,,,,,,23,1,,./stim/wavs/puertorican_match_interrogative-total-yn_Manuela-vende-el-carro.wav,,,,,,,,,,,,,,,,,,,,,,933.9399,936.6376,1,1,2.1716,,0,82,82,22,1,1,puertorican,,,,,,,,,,,,,,,,,,,,,,,,,,,,,,,,,,,,,,,,,,,,,,,,,,,,,,,,
,,,,,,,,,66046225387696a0f72502e5,Spanish,13 or older,"no, only English or Spanish",yes,2025-07-22_21h56.35.654,empathy_intonation_perc,2024.2.4,Win32,60.24096386,66046225387696a0f72502e5,687ed1b7e638a4cbf2f02089,688040b8275ee6c7b2cc2e0f,,,,,,,,,,,,,55,0,,./stim/wavs/cuban_match_declarative-broad-focus_Mariano-habla-del-tiempo.wav,,,,,,,,,,,,,,,,,,,,,,936.6379,939.2519,0,1,2.0848,,0,83,83,54,1,0,cuban,,,,,,,,,,,,,,,,,,,,,,,,,,,,,,,,,,,,,,,,,,,,,,,,,,,,,,,,
,,,,,,,,,66046225387696a0f72502e5,Spanish,13 or older,"no, only English or Spanish",yes,2025-07-22_21h56.35.654,empathy_intonation_perc,2024.2.4,Win32,60.24096386,66046225387696a0f72502e5,687ed1b7e638a4cbf2f02089,688040b8275ee6c7b2cc2e0f,,,,,,,,,,,,,29,1,,./stim/wavs/castilian_mismatch_interrogative-total-yn_Mi-tia-odia-la-lluvia.wav,,,,,,,,,,,,,,,,,,,,,,939.2524,941.9997,1,1,2.2199,,0,84,84,28,1,0,castilian,,,,,,,,,,,,,,,,,,,,,,,,,,,,,,,,,,,,,,,,,,,,,,,,,,,,,,,,
,,,,,,,,,66046225387696a0f72502e5,Spanish,13 or older,"no, only English or Spanish",yes,2025-07-22_21h56.35.654,empathy_intonation_perc,2024.2.4,Win32,60.24096386,66046225387696a0f72502e5,687ed1b7e638a4cbf2f02089,688040b8275ee6c7b2cc2e0f,,,,,,,,,,,,,87,0,,./stim/wavs/puertorican_mismatch_declarative-broad-focus_La-maestra-vive-en-Paris.wav,,,,,,,,,,,,,,,,,,,,,,942.0002,944.5643,0,1,2.041,,0,85,85,86,1,0,puertorican,,,,,,,,,,,,,,,,,,,,,,,,,,,,,,,,,,,,,,,,,,,,,,,,,,,,,,,,
,,,,,,,,,66046225387696a0f72502e5,Spanish,13 or older,"no, only English or Spanish",yes,2025-07-22_21h56.35.654,empathy_intonation_perc,2024.2.4,Win32,60.24096386,66046225387696a0f72502e5,687ed1b7e638a4cbf2f02089,688040b8275ee6c7b2cc2e0f,,,,,,,,,,,,,33,1,,./stim/wavs/cuban_mismatch_interrogative-total-yn_Mi-novio-viene-del-lago.wav,,,,,,,,,,,,,,,,,,,,,,944.5648,947.9115,1,1,2.8238,,0,86,86,32,1,1,cuban,,,,,,,,,,,,,,,,,,,,,,,,,,,,,,,,,,,,,,,,,,,,,,,,,,,,,,,,
,,,,,,,,,66046225387696a0f72502e5,Spanish,13 or older,"no, only English or Spanish",yes,2025-07-22_21h56.35.654,empathy_intonation_perc,2024.2.4,Win32,60.24096386,66046225387696a0f72502e5,687ed1b7e638a4cbf2f02089,688040b8275ee6c7b2cc2e0f,,,,,,,,,,,,,64,0,,./stim/wavs/puertorican_match_declarative-broad-focus_Daniel-iba-a-Bolivia.wav,,,,,,,,,,,,,,,,,,,,,,947.9121,950.3762,0,1,1.933,,0,87,87,63,1,0,puertorican,,,,,,,,,,,,,,,,,,,,,,,,,,,,,,,,,,,,,,,,,,,,,,,,,,,,,,,,
,,,,,,,"Great! Now we will move on. The next task consists of about 60 trials, in each of which you will see a string of letters. 
  
  Your task is to decide whether this is a real Spanish word or not.", (press the spacebar to continue),66046225387696a0f72502e5,Spanish,13 or older,"no, only English or Spanish",yes,2025-07-22_21h56.35.654,empathy_intonation_perc,2024.2.4,Win32,60.24096386,66046225387696a0f72502e5,687ed1b7e638a4cbf2f02089,688040b8275ee6c7b2cc2e0f,,,,,,,,,,,,,,,,,,,,,,,,,,,,,,,,,,,,,,,,,,,,,,,,,,,950.3832,958.5863,0,0,0,0,1,,,,,,,,,,,,,,,,,,,,,,,,,,,,,,,,,,,,,,,,,,,,,,,,,
,,,,,,,"If you think it is an existing Spanish word, you type '1' (for 'REAL'), and if you think it is not an existing Spanish word, you type '0' (for 'FAKE').", (press the spacebar to continue),66046225387696a0f72502e5,Spanish,13 or older,"no, only English or Spanish",yes,2025-07-22_21h56.35.654,empathy_intonation_perc,2024.2.4,Win32,60.24096386,66046225387696a0f72502e5,687ed1b7e638a4cbf2f02089,688040b8275ee6c7b2cc2e0f,,,,,,,,,,,,,,,,,,,,,,,,,,,,,,,,,,,,,,,,,,,,,,,,,,,958.5895,963.5048,0,1,1,1,1,,,,,,,,,,,,,,,,,,,,,,,,,,,,,,,,,,,,,,,,,,,,,,,,,
,,,,,,,"If you are sure that the word exists, even though you don’t know its exact meaning, you may still respond '1' (REAL). 
  
  But if you are not sure if it is an existing word, you should respond '0' (FAKE).
  
  Let's do a practice round...", (press the spacebar to continue),66046225387696a0f72502e5,Spanish,13 or older,"no, only English or Spanish",yes,2025-07-22_21h56.35.654,empathy_intonation_perc,2024.2.4,Win32,60.24096386,66046225387696a0f72502e5,687ed1b7e638a4cbf2f02089,688040b8275ee6c7b2cc2e0f,,,,,,,,,,,,,,,,,,,,,,,,,,,,,,,,,,,,,,,,,,,,,,,,,,,963.506,967.4185,0,2,2,2,1,,,,,,,,,,,,,,,,,,,,,,,,,,,,,,,,,,,,,,,,,,,,,,,,,
,,,,,,,,,66046225387696a0f72502e5,Spanish,13 or older,"no, only English or Spanish",yes,2025-07-22_21h56.35.654,empathy_intonation_perc,2024.2.4,Win32,60.24096386,66046225387696a0f72502e5,687ed1b7e638a4cbf2f02089,688040b8275ee6c7b2cc2e0f,,,,,,,,,,,,,,0,,,,,,,,,,,,,,,,,,,,,,,,,,,,,,,,,,,,,,,,,,,,967.4253,972.1428,0,1,4.1829,,972.1436,973.1417,0,0,0,0,1,0,depiste,REAL,FAKE,,,,,,,,,,,,,,,,,,,,,,,,,,,,,,,,
,,,,,,,,,66046225387696a0f72502e5,Spanish,13 or older,"no, only English or Spanish",yes,2025-07-22_21h56.35.654,empathy_intonation_perc,2024.2.4,Win32,60.24096386,66046225387696a0f72502e5,687ed1b7e638a4cbf2f02089,688040b8275ee6c7b2cc2e0f,,,,,,,,,,,,,,1,,,,,,,,,,,,,,,,,,,,,,,,,,,,,,,,,,,,,,,,,,,,973.1476,980.3688,1,1,6.6786,,980.369,981.368,0,1,1,1,1,0,sí,REAL,FAKE,,,,,,,,,,,,,,,,,,,,,,,,,,,,,,,,
,,,,,,,,,66046225387696a0f72502e5,Spanish,13 or older,"no, only English or Spanish",yes,2025-07-22_21h56.35.654,empathy_intonation_perc,2024.2.4,Win32,60.24096386,66046225387696a0f72502e5,687ed1b7e638a4cbf2f02089,688040b8275ee6c7b2cc2e0f,,,,,,,,,,,,,,0,,,,,,,,,,,,,,,,,,,,,,,,,,,,,,,,,,,,,,,,,,,,981.3707,984.6156,0,1,2.6995,,984.6157,985.6142,0,2,2,2,1,0,coné,REAL,FAKE,,,,,,,,,,,,,,,,,,,,,,,,,,,,,,,,
,,,,,,,,,66046225387696a0f72502e5,Spanish,13 or older,"no, only English or Spanish",yes,2025-07-22_21h56.35.654,empathy_intonation_perc,2024.2.4,Win32,60.24096386,66046225387696a0f72502e5,687ed1b7e638a4cbf2f02089,688040b8275ee6c7b2cc2e0f,,,,,,,,,,,,,,0,,,,,,,,,,,,,,,,,,,,,,,,,,,,,,,,,,,,,,,,,,,,985.616,987.5462,0,1,1.3833,,987.5464,988.5454,0,3,3,3,1,0,calpar,REAL,FAKE,,,,,,,,,,,,,,,,,,,,,,,,,,,,,,,,
,,,,,,,,,66046225387696a0f72502e5,Spanish,13 or older,"no, only English or Spanish",yes,2025-07-22_21h56.35.654,empathy_intonation_perc,2024.2.4,Win32,60.24096386,66046225387696a0f72502e5,687ed1b7e638a4cbf2f02089,688040b8275ee6c7b2cc2e0f,,,,,,,,,,,,,,0,,,,,,,,,,,,,,,,,,,,,,,,,,,,,,,,,,,,,,,,,,,,988.5479,990.2438,0,1,1.1514,,990.2438,991.2431,0,4,4,4,1,0,joten,REAL,FAKE,,,,,,,,,,,,,,,,,,,,,,,,,,,,,,,,
,,,,,,,,,66046225387696a0f72502e5,Spanish,13 or older,"no, only English or Spanish",yes,2025-07-22_21h56.35.654,empathy_intonation_perc,2024.2.4,Win32,60.24096386,66046225387696a0f72502e5,687ed1b7e638a4cbf2f02089,688040b8275ee6c7b2cc2e0f,,,,,,,,,,,,,,1,,,,,,,,,,,,,,,,,,,,,,,,,,,,,,,,,,,,,,,,,,,,991.2448,993.3586,0,0,1.566,,993.3611,994.3573,0,5,5,5,1,0,sacapuntas,REAL,FAKE,,,,,,,,,,,,,,,,,,,,,,,,,,,,,,,,
,,,,,,,,,66046225387696a0f72502e5,Spanish,13 or older,"no, only English or Spanish",yes,2025-07-22_21h56.35.654,empathy_intonation_perc,2024.2.4,Win32,60.24096386,66046225387696a0f72502e5,687ed1b7e638a4cbf2f02089,688040b8275ee6c7b2cc2e0f,,,,,,,,,,,,,,0,,,,,,,,,,,,,,,,,,,,,,,,,,,,,,,,,,,,,,,,,,,,994.3593,996.3055,0,1,1.4065,,996.307,997.3049,0,6,6,6,1,0,priba,REAL,FAKE,,,,,,,,,,,,,,,,,,,,,,,,,,,,,,,,
,,,,,,,,,66046225387696a0f72502e5,Spanish,13 or older,"no, only English or Spanish",yes,2025-07-22_21h56.35.654,empathy_intonation_perc,2024.2.4,Win32,60.24096386,66046225387696a0f72502e5,687ed1b7e638a4cbf2f02089,688040b8275ee6c7b2cc2e0f,,,,,,,,,,,,,,0,,,,,,,,,,,,,,,,,,,,,,,,,,,,,,,,,,,,,,,,,,,,997.3066,1005.3651,1,0,7.521,,1005.3671,1006.3641,0,7,7,7,1,0,pelasula,REAL,FAKE,,,,,,,,,,,,,,,,,,,,,,,,,,,,,,,,
,,,,,,,,,66046225387696a0f72502e5,Spanish,13 or older,"no, only English or Spanish",yes,2025-07-22_21h56.35.654,empathy_intonation_perc,2024.2.4,Win32,60.24096386,66046225387696a0f72502e5,687ed1b7e638a4cbf2f02089,688040b8275ee6c7b2cc2e0f,,,,,,,,,,,,,,1,,,,,,,,,,,,,,,,,,,,,,,,,,,,,,,,,,,,,,,,,,,,1006.366,1008.6454,1,1,1.7379,,1008.647,1009.6449,0,8,8,8,1,0,bien,REAL,FAKE,,,,,,,,,,,,,,,,,,,,,,,,,,,,,,,,
,,,,,,,,,66046225387696a0f72502e5,Spanish,13 or older,"no, only English or Spanish",yes,2025-07-22_21h56.35.654,empathy_intonation_perc,2024.2.4,Win32,60.24096386,66046225387696a0f72502e5,687ed1b7e638a4cbf2f02089,688040b8275ee6c7b2cc2e0f,,,,,,,,,,,,,,1,,,,,,,,,,,,,,,,,,,,,,,,,,,,,,,,,,,,,,,,,,,,1009.6467,1010.8603,1,1,0.6706,,1010.8604,1011.8595,0,9,9,9,1,0,casa,REAL,FAKE,,,,,,,,,,,,,,,,,,,,,,,,,,,,,,,,
,,,,,,,,,66046225387696a0f72502e5,Spanish,13 or older,"no, only English or Spanish",yes,2025-07-22_21h56.35.654,empathy_intonation_perc,2024.2.4,Win32,60.24096386,66046225387696a0f72502e5,687ed1b7e638a4cbf2f02089,688040b8275ee6c7b2cc2e0f,,,,,,,,,,,,,,0,,,,,,,,,,,,,,,,,,,,,,,,,,,,,,,,,,,,,,,,,,,,1011.8615,1013.0917,1,0,0.687,,1013.0933,1014.0915,0,10,10,10,1,0,lejo,REAL,FAKE,,,,,,,,,,,,,,,,,,,,,,,,,,,,,,,,
,,,,,,,,,66046225387696a0f72502e5,Spanish,13 or older,"no, only English or Spanish",yes,2025-07-22_21h56.35.654,empathy_intonation_perc,2024.2.4,Win32,60.24096386,66046225387696a0f72502e5,687ed1b7e638a4cbf2f02089,688040b8275ee6c7b2cc2e0f,,,,,,,,,,,,,,0,,,,,,,,,,,,,,,,,,,,,,,,,,,,,,,,,,,,,,,,,,,,1014.0936,1016.9053,0,1,2.2651,,1016.9076,1017.9045,0,11,11,11,1,0,pretantas,REAL,FAKE,,,,,,,,,,,,,,,,,,,,,,,,,,,,,,,,
,,,,,,,,,66046225387696a0f72502e5,Spanish,13 or older,"no, only English or Spanish",yes,2025-07-22_21h56.35.654,empathy_intonation_perc,2024.2.4,Win32,60.24096386,66046225387696a0f72502e5,687ed1b7e638a4cbf2f02089,688040b8275ee6c7b2cc2e0f,,,,,,,,,,,,,,,,,,,,,,,,,,,,,,,,,,,,,,,,,,,,,,,,,,,,,,,,,,,,,,,,,,,,,,,,,,,1017.9053,1020.6197,,,,,,,,,,,,,,,,,,,,,,,,,,,,,,
,,,,,,,,,66046225387696a0f72502e5,Spanish,13 or older,"no, only English or Spanish",yes,2025-07-22_21h56.35.654,empathy_intonation_perc,2024.2.4,Win32,60.24096386,66046225387696a0f72502e5,687ed1b7e638a4cbf2f02089,688040b8275ee6c7b2cc2e0f,,,,,,,,,,,,,,1,,,,,,,,,,,,,,,,,,,,,,,,,,,,,,,,,,,,,,,,,,,,,,,,,,,,,,,,,54,fomentar,,,,,1020.6303,1023.0175,0,0,1.8494,,0,0,0,53,1,REAL,FAKE,,,,,,,,,,,,,,,,,
,,,,,,,,,66046225387696a0f72502e5,Spanish,13 or older,"no, only English or Spanish",yes,2025-07-22_21h56.35.654,empathy_intonation_perc,2024.2.4,Win32,60.24096386,66046225387696a0f72502e5,687ed1b7e638a4cbf2f02089,688040b8275ee6c7b2cc2e0f,,,,,,,,,,,,,,0,,,,,,,,,,,,,,,,,,,,,,,,,,,,,,,,,,,,,,,,,,,,,,,,,,,,,,,,,66,hacido,,,,,1023.0189,1026.4145,1,0,2.8487,,0,1,1,65,1,REAL,FAKE,,,,,,,,,,,,,,,,,
,,,,,,,,,66046225387696a0f72502e5,Spanish,13 or older,"no, only English or Spanish",yes,2025-07-22_21h56.35.654,empathy_intonation_perc,2024.2.4,Win32,60.24096386,66046225387696a0f72502e5,687ed1b7e638a4cbf2f02089,688040b8275ee6c7b2cc2e0f,,,,,,,,,,,,,,1,,,,,,,,,,,,,,,,,,,,,,,,,,,,,,,,,,,,,,,,,,,,,,,,,,,,,,,,,59,besar,,,,,1026.4167,1027.7632,1,1,0.8008,,0,2,2,58,1,REAL,FAKE,,,,,,,,,,,,,,,,,
,,,,,,,,,66046225387696a0f72502e5,Spanish,13 or older,"no, only English or Spanish",yes,2025-07-22_21h56.35.654,empathy_intonation_perc,2024.2.4,Win32,60.24096386,66046225387696a0f72502e5,687ed1b7e638a4cbf2f02089,688040b8275ee6c7b2cc2e0f,,,,,,,,,,,,,,1,,,,,,,,,,,,,,,,,,,,,,,,,,,,,,,,,,,,,,,,,,,,,,,,,,,,,,,,,89,prisa,,,,,1027.7651,1029.7284,0,0,1.4171,,0,3,3,88,1,REAL,FAKE,,,,,,,,,,,,,,,,,
,,,,,,,,,66046225387696a0f72502e5,Spanish,13 or older,"no, only English or Spanish",yes,2025-07-22_21h56.35.654,empathy_intonation_perc,2024.2.4,Win32,60.24096386,66046225387696a0f72502e5,687ed1b7e638a4cbf2f02089,688040b8275ee6c7b2cc2e0f,,,,,,,,,,,,,,1,,,,,,,,,,,,,,,,,,,,,,,,,,,,,,,,,,,,,,,,,,,,,,,,,,,,,,,,,85,laúd,,,,,1029.7308,1031.177,0,0,0.9002,,0,4,4,84,1,REAL,FAKE,,,,,,,,,,,,,,,,,
,,,,,,,,,66046225387696a0f72502e5,Spanish,13 or older,"no, only English or Spanish",yes,2025-07-22_21h56.35.654,empathy_intonation_perc,2024.2.4,Win32,60.24096386,66046225387696a0f72502e5,687ed1b7e638a4cbf2f02089,688040b8275ee6c7b2cc2e0f,,,,,,,,,,,,,,1,,,,,,,,,,,,,,,,,,,,,,,,,,,,,,,,,,,,,,,,,,,,,,,,,,,,,,,,,64,orgulloso,,,,,1031.1788,1034.8573,0,0,3.1321,,0,5,5,63,1,REAL,FAKE,,,,,,,,,,,,,,,,,
,,,,,,,,,66046225387696a0f72502e5,Spanish,13 or older,"no, only English or Spanish",yes,2025-07-22_21h56.35.654,empathy_intonation_perc,2024.2.4,Win32,60.24096386,66046225387696a0f72502e5,687ed1b7e638a4cbf2f02089,688040b8275ee6c7b2cc2e0f,,,,,,,,,,,,,,0,,,,,,,,,,,,,,,,,,,,,,,,,,,,,,,,,,,,,,,,,,,,,,,,,,,,,,,,,53,vegada,,,,,1034.8597,1039.7369,1,0,4.3404,,0,6,6,52,1,REAL,FAKE,,,,,,,,,,,,,,,,,
,,,,,,,,,66046225387696a0f72502e5,Spanish,13 or older,"no, only English or Spanish",yes,2025-07-22_21h56.35.654,empathy_intonation_perc,2024.2.4,Win32,60.24096386,66046225387696a0f72502e5,687ed1b7e638a4cbf2f02089,688040b8275ee6c7b2cc2e0f,,,,,,,,,,,,,,1,,,,,,,,,,,,,,,,,,,,,,,,,,,,,,,,,,,,,,,,,,,,,,,,,,,,,,,,,65,bizcocho,,,,,1039.7402,1043.7,1,1,3.417,,0,7,7,64,1,REAL,FAKE,,,,,,,,,,,,,,,,,
,,,,,,,,,66046225387696a0f72502e5,Spanish,13 or older,"no, only English or Spanish",yes,2025-07-22_21h56.35.654,empathy_intonation_perc,2024.2.4,Win32,60.24096386,66046225387696a0f72502e5,687ed1b7e638a4cbf2f02089,688040b8275ee6c7b2cc2e0f,,,,,,,,,,,,,,0,,,,,,,,,,,,,,,,,,,,,,,,,,,,,,,,,,,,,,,,,,,,,,,,,,,,,,,,,50,flamida,,,,,1043.7021,1045.8484,0,1,1.6011,,0,8,8,49,1,REAL,FAKE,,,,,,,,,,,,,,,,,
,,,,,,,,,66046225387696a0f72502e5,Spanish,13 or older,"no, only English or Spanish",yes,2025-07-22_21h56.35.654,empathy_intonation_perc,2024.2.4,Win32,60.24096386,66046225387696a0f72502e5,687ed1b7e638a4cbf2f02089,688040b8275ee6c7b2cc2e0f,,,,,,,,,,,,,,1,,,,,,,,,,,,,,,,,,,,,,,,,,,,,,,,,,,,,,,,,,,,,,,,,,,,,,,,,69,engatusar,,,,,1045.8503,1049.7115,0,0,3.3172,,0,9,9,68,1,REAL,FAKE,,,,,,,,,,,,,,,,,
,,,,,,,,,66046225387696a0f72502e5,Spanish,13 or older,"no, only English or Spanish",yes,2025-07-22_21h56.35.654,empathy_intonation_perc,2024.2.4,Win32,60.24096386,66046225387696a0f72502e5,687ed1b7e638a4cbf2f02089,688040b8275ee6c7b2cc2e0f,,,,,,,,,,,,,,1,,,,,,,,,,,,,,,,,,,,,,,,,,,,,,,,,,,,,,,,,,,,,,,,,,,,,,,,,80,hormiga,,,,,1049.7138,1051.0604,0,0,0.8031,,0,10,10,79,1,REAL,FAKE,,,,,,,,,,,,,,,,,
,,,,,,,,,66046225387696a0f72502e5,Spanish,13 or older,"no, only English or Spanish",yes,2025-07-22_21h56.35.654,empathy_intonation_perc,2024.2.4,Win32,60.24096386,66046225387696a0f72502e5,687ed1b7e638a4cbf2f02089,688040b8275ee6c7b2cc2e0f,,,,,,,,,,,,,,1,,,,,,,,,,,,,,,,,,,,,,,,,,,,,,,,,,,,,,,,,,,,,,,,,,,,,,,,,45,jilguero,,,,,1051.0626,1052.8429,0,0,1.2356,,0,11,11,44,1,REAL,FAKE,,,,,,,,,,,,,,,,,
,,,,,,,,,66046225387696a0f72502e5,Spanish,13 or older,"no, only English or Spanish",yes,2025-07-22_21h56.35.654,empathy_intonation_perc,2024.2.4,Win32,60.24096386,66046225387696a0f72502e5,687ed1b7e638a4cbf2f02089,688040b8275ee6c7b2cc2e0f,,,,,,,,,,,,,,1,,,,,,,,,,,,,,,,,,,,,,,,,,,,,,,,,,,,,,,,,,,,,,,,,,,,,,,,,46,martillo,,,,,1052.8452,1056.6729,1,1,3.2826,,0,12,12,45,1,REAL,FAKE,,,,,,,,,,,,,,,,,
,,,,,,,,,66046225387696a0f72502e5,Spanish,13 or older,"no, only English or Spanish",yes,2025-07-22_21h56.35.654,empathy_intonation_perc,2024.2.4,Win32,60.24096386,66046225387696a0f72502e5,687ed1b7e638a4cbf2f02089,688040b8275ee6c7b2cc2e0f,,,,,,,,,,,,,,1,,,,,,,,,,,,,,,,,,,,,,,,,,,,,,,,,,,,,,,,,,,,,,,,,,,,,,,,,39,torpe,,,,,1056.6751,1058.6373,0,0,1.4169,,0,13,13,38,1,REAL,FAKE,,,,,,,,,,,,,,,,,
,,,,,,,,,66046225387696a0f72502e5,Spanish,13 or older,"no, only English or Spanish",yes,2025-07-22_21h56.35.654,empathy_intonation_perc,2024.2.4,Win32,60.24096386,66046225387696a0f72502e5,687ed1b7e638a4cbf2f02089,688040b8275ee6c7b2cc2e0f,,,,,,,,,,,,,,1,,,,,,,,,,,,,,,,,,,,,,,,,,,,,,,,,,,,,,,,,,,,,,,,,,,,,,,,,49,ganar,,,,,1058.6393,1060.3363,1,1,1.1531,,0,14,14,48,1,REAL,FAKE,,,,,,,,,,,,,,,,,
,,,,,,,,,66046225387696a0f72502e5,Spanish,13 or older,"no, only English or Spanish",yes,2025-07-22_21h56.35.654,empathy_intonation_perc,2024.2.4,Win32,60.24096386,66046225387696a0f72502e5,687ed1b7e638a4cbf2f02089,688040b8275ee6c7b2cc2e0f,,,,,,,,,,,,,,1,,,,,,,,,,,,,,,,,,,,,,,,,,,,,,,,,,,,,,,,,,,,,,,,,,,,,,,,,51,candado,,,,,1060.3386,1064.5995,0,0,3.7147,,0,15,15,50,1,REAL,FAKE,,,,,,,,,,,,,,,,,
,,,,,,,,,66046225387696a0f72502e5,Spanish,13 or older,"no, only English or Spanish",yes,2025-07-22_21h56.35.654,empathy_intonation_perc,2024.2.4,Win32,60.24096386,66046225387696a0f72502e5,687ed1b7e638a4cbf2f02089,688040b8275ee6c7b2cc2e0f,,,,,,,,,,,,,,0,,,,,,,,,,,,,,,,,,,,,,,,,,,,,,,,,,,,,,,,,,,,,,,,,,,,,,,,,19,brecedad,,,,,1064.6013,1065.965,0,1,0.8222,,0,16,16,18,1,REAL,FAKE,,,,,,,,,,,,,,,,,
,,,,,,,,,66046225387696a0f72502e5,Spanish,13 or older,"no, only English or Spanish",yes,2025-07-22_21h56.35.654,empathy_intonation_perc,2024.2.4,Win32,60.24096386,66046225387696a0f72502e5,687ed1b7e638a4cbf2f02089,688040b8275ee6c7b2cc2e0f,,,,,,,,,,,,,,1,,,,,,,,,,,,,,,,,,,,,,,,,,,,,,,,,,,,,,,,,,,,,,,,,,,,,,,,,76,atar,,,,,1065.9673,1068.0631,0,0,1.5498,,0,17,17,75,1,REAL,FAKE,,,,,,,,,,,,,,,,,
,,,,,,,,,66046225387696a0f72502e5,Spanish,13 or older,"no, only English or Spanish",yes,2025-07-22_21h56.35.654,empathy_intonation_perc,2024.2.4,Win32,60.24096386,66046225387696a0f72502e5,687ed1b7e638a4cbf2f02089,688040b8275ee6c7b2cc2e0f,,,,,,,,,,,,,,0,,,,,,,,,,,,,,,,,,,,,,,,,,,,,,,,,,,,,,,,,,,,,,,,,,,,,,,,,30,alardio,,,,,1068.0655,1071.9269,0,1,3.3153,,0,18,18,29,1,REAL,FAKE,,,,,,,,,,,,,,,,,
,,,,,,,,,66046225387696a0f72502e5,Spanish,13 or older,"no, only English or Spanish",yes,2025-07-22_21h56.35.654,empathy_intonation_perc,2024.2.4,Win32,60.24096386,66046225387696a0f72502e5,687ed1b7e638a4cbf2f02089,688040b8275ee6c7b2cc2e0f,,,,,,,,,,,,,,1,,,,,,,,,,,,,,,,,,,,,,,,,,,,,,,,,,,,,,,,,,,,,,,,,,,,,,,,,41,rebuscar,,,,,1071.9287,1074.6579,1,1,2.189,,0,19,19,40,1,REAL,FAKE,,,,,,,,,,,,,,,,,
,,,,,,,,,66046225387696a0f72502e5,Spanish,13 or older,"no, only English or Spanish",yes,2025-07-22_21h56.35.654,empathy_intonation_perc,2024.2.4,Win32,60.24096386,66046225387696a0f72502e5,687ed1b7e638a4cbf2f02089,688040b8275ee6c7b2cc2e0f,,,,,,,,,,,,,,1,,,,,,,,,,,,,,,,,,,,,,,,,,,,,,,,,,,,,,,,,,,,,,,,,,,,,,,,,60,matar,,,,,1074.6601,1075.9064,1,1,0.709,,0,20,20,59,1,REAL,FAKE,,,,,,,,,,,,,,,,,
,,,,,,,,,66046225387696a0f72502e5,Spanish,13 or older,"no, only English or Spanish",yes,2025-07-22_21h56.35.654,empathy_intonation_perc,2024.2.4,Win32,60.24096386,66046225387696a0f72502e5,687ed1b7e638a4cbf2f02089,688040b8275ee6c7b2cc2e0f,,,,,,,,,,,,,,1,,,,,,,,,,,,,,,,,,,,,,,,,,,,,,,,,,,,,,,,,,,,,,,,,,,,,,,,,43,canela,,,,,1075.9087,1077.2392,1,1,0.7843,,0,21,21,42,1,REAL,FAKE,,,,,,,,,,,,,,,,,
,,,,,,,,,66046225387696a0f72502e5,Spanish,13 or older,"no, only English or Spanish",yes,2025-07-22_21h56.35.654,empathy_intonation_perc,2024.2.4,Win32,60.24096386,66046225387696a0f72502e5,687ed1b7e638a4cbf2f02089,688040b8275ee6c7b2cc2e0f,,,,,,,,,,,,,,1,,,,,,,,,,,,,,,,,,,,,,,,,,,,,,,,,,,,,,,,,,,,,,,,,,,,,,,,,73,hervidor,,,,,1077.2414,1079.7044,0,0,1.9197,,0,22,22,72,1,REAL,FAKE,,,,,,,,,,,,,,,,,
,,,,,,,,,66046225387696a0f72502e5,Spanish,13 or older,"no, only English or Spanish",yes,2025-07-22_21h56.35.654,empathy_intonation_perc,2024.2.4,Win32,60.24096386,66046225387696a0f72502e5,687ed1b7e638a4cbf2f02089,688040b8275ee6c7b2cc2e0f,,,,,,,,,,,,,,1,,,,,,,,,,,,,,,,,,,,,,,,,,,,,,,,,,,,,,,,,,,,,,,,,,,,,,,,,48,ladrón,,,,,1079.7074,1081.1196,0,0,0.8689,,0,23,23,47,1,REAL,FAKE,,,,,,,,,,,,,,,,,
,,,,,,,,,66046225387696a0f72502e5,Spanish,13 or older,"no, only English or Spanish",yes,2025-07-22_21h56.35.654,empathy_intonation_perc,2024.2.4,Win32,60.24096386,66046225387696a0f72502e5,687ed1b7e638a4cbf2f02089,688040b8275ee6c7b2cc2e0f,,,,,,,,,,,,,,0,,,,,,,,,,,,,,,,,,,,,,,,,,,,,,,,,,,,,,,,,,,,,,,,,,,,,,,,,35,rompido,,,,,1081.1213,1084.3667,1,0,2.7038,,0,24,24,34,1,REAL,FAKE,,,,,,,,,,,,,,,,,
,,,,,,,,,66046225387696a0f72502e5,Spanish,13 or older,"no, only English or Spanish",yes,2025-07-22_21h56.35.654,empathy_intonation_perc,2024.2.4,Win32,60.24096386,66046225387696a0f72502e5,687ed1b7e638a4cbf2f02089,688040b8275ee6c7b2cc2e0f,,,,,,,,,,,,,,0,,,,,,,,,,,,,,,,,,,,,,,,,,,,,,,,,,,,,,,,,,,,,,,,,,,,,,,,,8,cadeña,,,,,1084.3694,1086.4323,1,0,1.5261,,0,25,25,7,1,REAL,FAKE,,,,,,,,,,,,,,,,,
,,,,,,,,,66046225387696a0f72502e5,Spanish,13 or older,"no, only English or Spanish",yes,2025-07-22_21h56.35.654,empathy_intonation_perc,2024.2.4,Win32,60.24096386,66046225387696a0f72502e5,687ed1b7e638a4cbf2f02089,688040b8275ee6c7b2cc2e0f,,,,,,,,,,,,,,1,,,,,,,,,,,,,,,,,,,,,,,,,,,,,,,,,,,,,,,,,,,,,,,,,,,,,,,,,22,lacayo,,,,,1086.4346,1088.563,0,0,1.5897,,0,26,26,21,1,REAL,FAKE,,,,,,,,,,,,,,,,,
,,,,,,,,,66046225387696a0f72502e5,Spanish,13 or older,"no, only English or Spanish",yes,2025-07-22_21h56.35.654,empathy_intonation_perc,2024.2.4,Win32,60.24096386,66046225387696a0f72502e5,687ed1b7e638a4cbf2f02089,688040b8275ee6c7b2cc2e0f,,,,,,,,,,,,,,1,,,,,,,,,,,,,,,,,,,,,,,,,,,,,,,,,,,,,,,,,,,,,,,,,,,,,,,,,36,loro,,,,,1088.5654,1089.962,0,0,0.8527,,0,27,27,35,1,REAL,FAKE,,,,,,,,,,,,,,,,,
,,,,,,,,,66046225387696a0f72502e5,Spanish,13 or older,"no, only English or Spanish",yes,2025-07-22_21h56.35.654,empathy_intonation_perc,2024.2.4,Win32,60.24096386,66046225387696a0f72502e5,687ed1b7e638a4cbf2f02089,688040b8275ee6c7b2cc2e0f,,,,,,,,,,,,,,0,,,,,,,,,,,,,,,,,,,,,,,,,,,,,,,,,,,,,,,,,,,,,,,,,,,,,,,,,87,grodo,,,,,1089.964,1091.8767,0,1,1.3711,,0,28,28,86,1,REAL,FAKE,,,,,,,,,,,,,,,,,
,,,,,,,,,66046225387696a0f72502e5,Spanish,13 or older,"no, only English or Spanish",yes,2025-07-22_21h56.35.654,empathy_intonation_perc,2024.2.4,Win32,60.24096386,66046225387696a0f72502e5,687ed1b7e638a4cbf2f02089,688040b8275ee6c7b2cc2e0f,,,,,,,,,,,,,,1,,,,,,,,,,,,,,,,,,,,,,,,,,,,,,,,,,,,,,,,,,,,,,,,,,,,,,,,,62,flaco,,,,,1091.8788,1094.3248,1,1,1.9096,,0,29,29,61,1,REAL,FAKE,,,,,,,,,,,,,,,,,
,,,,,,,,,66046225387696a0f72502e5,Spanish,13 or older,"no, only English or Spanish",yes,2025-07-22_21h56.35.654,empathy_intonation_perc,2024.2.4,Win32,60.24096386,66046225387696a0f72502e5,687ed1b7e638a4cbf2f02089,688040b8275ee6c7b2cc2e0f,,,,,,,,,,,,,,1,,,,,,,,,,,,,,,,,,,,,,,,,,,,,,,,,,,,,,,,,,,,,,,,,,,,,,,,,14,yunque,,,,,1094.3269,1096.34,0,0,1.474,,0,30,30,13,1,REAL,FAKE,,,,,,,,,,,,,,,,,
,,,,,,,,,66046225387696a0f72502e5,Spanish,13 or older,"no, only English or Spanish",yes,2025-07-22_21h56.35.654,empathy_intonation_perc,2024.2.4,Win32,60.24096386,66046225387696a0f72502e5,687ed1b7e638a4cbf2f02089,688040b8275ee6c7b2cc2e0f,,,,,,,,,,,,,,1,,,,,,,,,,,,,,,,,,,,,,,,,,,,,,,,,,,,,,,,,,,,,,,,,,,,,,,,,88,acantilado,,,,,1096.342,1098.1052,0,0,1.2166,,0,31,31,87,1,REAL,FAKE,,,,,,,,,,,,,,,,,
,,,,,,,,,66046225387696a0f72502e5,Spanish,13 or older,"no, only English or Spanish",yes,2025-07-22_21h56.35.654,empathy_intonation_perc,2024.2.4,Win32,60.24096386,66046225387696a0f72502e5,687ed1b7e638a4cbf2f02089,688040b8275ee6c7b2cc2e0f,,,,,,,,,,,,,,0,,,,,,,,,,,,,,,,,,,,,,,,,,,,,,,,,,,,,,,,,,,,,,,,,,,,,,,,,70,temblo,,,,,1098.107,1100.0369,1,0,1.3927,,0,32,32,69,1,REAL,FAKE,,,,,,,,,,,,,,,,,
,,,,,,,,,66046225387696a0f72502e5,Spanish,13 or older,"no, only English or Spanish",yes,2025-07-22_21h56.35.654,empathy_intonation_perc,2024.2.4,Win32,60.24096386,66046225387696a0f72502e5,687ed1b7e638a4cbf2f02089,688040b8275ee6c7b2cc2e0f,,,,,,,,,,,,,,0,,,,,,,,,,,,,,,,,,,,,,,,,,,,,,,,,,,,,,,,,,,,,,,,,,,,,,,,,84,escuto,,,,,1100.0388,1102.2518,0,1,1.6708,,0,33,33,83,1,REAL,FAKE,,,,,,,,,,,,,,,,,
,,,,,,,,,66046225387696a0f72502e5,Spanish,13 or older,"no, only English or Spanish",yes,2025-07-22_21h56.35.654,empathy_intonation_perc,2024.2.4,Win32,60.24096386,66046225387696a0f72502e5,687ed1b7e638a4cbf2f02089,688040b8275ee6c7b2cc2e0f,,,,,,,,,,,,,,0,,,,,,,,,,,,,,,,,,,,,,,,,,,,,,,,,,,,,,,,,,,,,,,,,,,,,,,,,17,floroso,,,,,1102.2537,1104.9164,0,1,2.1201,,0,34,34,16,1,REAL,FAKE,,,,,,,,,,,,,,,,,
,,,,,,,,,66046225387696a0f72502e5,Spanish,13 or older,"no, only English or Spanish",yes,2025-07-22_21h56.35.654,empathy_intonation_perc,2024.2.4,Win32,60.24096386,66046225387696a0f72502e5,687ed1b7e638a4cbf2f02089,688040b8275ee6c7b2cc2e0f,,,,,,,,,,,,,,1,,,,,,,,,,,,,,,,,,,,,,,,,,,,,,,,,,,,,,,,,,,,,,,,,,,,,,,,,34,aviso,,,,,1104.9181,1106.6149,1,1,1.1498,,0,35,35,33,1,REAL,FAKE,,,,,,,,,,,,,,,,,
,,,,,,,,,66046225387696a0f72502e5,Spanish,13 or older,"no, only English or Spanish",yes,2025-07-22_21h56.35.654,empathy_intonation_perc,2024.2.4,Win32,60.24096386,66046225387696a0f72502e5,687ed1b7e638a4cbf2f02089,688040b8275ee6c7b2cc2e0f,,,,,,,,,,,,,,1,,,,,,,,,,,,,,,,,,,,,,,,,,,,,,,,,,,,,,,,,,,,,,,,,,,,,,,,,7,pésimo,,,,,1106.6166,1111.1619,1,1,3.9998,,0,36,36,6,1,REAL,FAKE,,,,,,,,,,,,,,,,,
,,,,,,,,,66046225387696a0f72502e5,Spanish,13 or older,"no, only English or Spanish",yes,2025-07-22_21h56.35.654,empathy_intonation_perc,2024.2.4,Win32,60.24096386,66046225387696a0f72502e5,687ed1b7e638a4cbf2f02089,688040b8275ee6c7b2cc2e0f,,,,,,,,,,,,,,0,,,,,,,,,,,,,,,,,,,,,,,,,,,,,,,,,,,,,,,,,,,,,,,,,,,,,,,,,18,arsa,,,,,1111.1643,1113.9089,0,1,2.2077,,0,37,37,17,1,REAL,FAKE,,,,,,,,,,,,,,,,,
,,,,,,,,,66046225387696a0f72502e5,Spanish,13 or older,"no, only English or Spanish",yes,2025-07-22_21h56.35.654,empathy_intonation_perc,2024.2.4,Win32,60.24096386,66046225387696a0f72502e5,687ed1b7e638a4cbf2f02089,688040b8275ee6c7b2cc2e0f,,,,,,,,,,,,,,0,,,,,,,,,,,,,,,,,,,,,,,,,,,,,,,,,,,,,,,,,,,,,,,,,,,,,,,,,32,fatacidad,,,,,1113.9114,1115.5409,0,1,1.0905,,0,38,38,31,1,REAL,FAKE,,,,,,,,,,,,,,,,,
,,,,,,,,,66046225387696a0f72502e5,Spanish,13 or older,"no, only English or Spanish",yes,2025-07-22_21h56.35.654,empathy_intonation_perc,2024.2.4,Win32,60.24096386,66046225387696a0f72502e5,687ed1b7e638a4cbf2f02089,688040b8275ee6c7b2cc2e0f,,,,,,,,,,,,,,0,,,,,,,,,,,,,,,,,,,,,,,,,,,,,,,,,,,,,,,,,,,,,,,,,,,,,,,,,92,click the 0 key.,,,,,1115.5432,1117.8233,0,1,1.738,,0,39,39,91,1,REAL,FAKE,,,,,,,,,,,,,,,,,
,,,,,,,,,66046225387696a0f72502e5,Spanish,13 or older,"no, only English or Spanish",yes,2025-07-22_21h56.35.654,empathy_intonation_perc,2024.2.4,Win32,60.24096386,66046225387696a0f72502e5,687ed1b7e638a4cbf2f02089,688040b8275ee6c7b2cc2e0f,,,,,,,,,,,,,,0,,,,,,,,,,,,,,,,,,,,,,,,,,,,,,,,,,,,,,,,,,,,,,,,,,,,,,,,,29,decar,,,,,1117.8254,1122.9517,0,1,4.58,,0,40,40,28,1,REAL,FAKE,,,,,,,,,,,,,,,,,
,,,,,,,,,66046225387696a0f72502e5,Spanish,13 or older,"no, only English or Spanish",yes,2025-07-22_21h56.35.654,empathy_intonation_perc,2024.2.4,Win32,60.24096386,66046225387696a0f72502e5,687ed1b7e638a4cbf2f02089,688040b8275ee6c7b2cc2e0f,,,,,,,,,,,,,,1,,,,,,,,,,,,,,,,,,,,,,,,,,,,,,,,,,,,,,,,,,,,,,,,,,,,,,,,,11,cenefa,,,,,1122.9542,1124.8001,0,0,1.3046,,0,41,41,10,1,REAL,FAKE,,,,,,,,,,,,,,,,,
,,,,,,,,,66046225387696a0f72502e5,Spanish,13 or older,"no, only English or Spanish",yes,2025-07-22_21h56.35.654,empathy_intonation_perc,2024.2.4,Win32,60.24096386,66046225387696a0f72502e5,687ed1b7e638a4cbf2f02089,688040b8275ee6c7b2cc2e0f,,,,,,,,,,,,,,1,,,,,,,,,,,,,,,,,,,,,,,,,,,,,,,,,,,,,,,,,,,,,,,,,,,,,,,,,9,hacha,,,,,1124.802,1128.547,1,1,3.1985,,0,42,42,8,1,REAL,FAKE,,,,,,,,,,,,,,,,,
,,,,,,,,,66046225387696a0f72502e5,Spanish,13 or older,"no, only English or Spanish",yes,2025-07-22_21h56.35.654,empathy_intonation_perc,2024.2.4,Win32,60.24096386,66046225387696a0f72502e5,687ed1b7e638a4cbf2f02089,688040b8275ee6c7b2cc2e0f,,,,,,,,,,,,,,1,,,,,,,,,,,,,,,,,,,,,,,,,,,,,,,,,,,,,,,,,,,,,,,,,,,,,,,,,5,zapato,,,,,1128.5489,1129.9624,1,1,0.8727,,0,43,43,4,1,REAL,FAKE,,,,,,,,,,,,,,,,,
,,,,,,,,,66046225387696a0f72502e5,Spanish,13 or older,"no, only English or Spanish",yes,2025-07-22_21h56.35.654,empathy_intonation_perc,2024.2.4,Win32,60.24096386,66046225387696a0f72502e5,687ed1b7e638a4cbf2f02089,688040b8275ee6c7b2cc2e0f,,,,,,,,,,,,,,0,,,,,,,,,,,,,,,,,,,,,,,,,,,,,,,,,,,,,,,,,,,,,,,,,,,,,,,,,72,pemición,,,,,1129.9646,1134.3593,0,1,3.8485,,0,44,44,71,1,REAL,FAKE,,,,,,,,,,,,,,,,,
,,,,,,,,,66046225387696a0f72502e5,Spanish,13 or older,"no, only English or Spanish",yes,2025-07-22_21h56.35.654,empathy_intonation_perc,2024.2.4,Win32,60.24096386,66046225387696a0f72502e5,687ed1b7e638a4cbf2f02089,688040b8275ee6c7b2cc2e0f,,,,,,,,,,,,,,0,,,,,,,,,,,,,,,,,,,,,,,,,,,,,,,,,,,,,,,,,,,,,,,,,,,,,,,,,63,esposante,,,,,1134.3613,1136.3402,0,1,1.4415,,0,45,45,62,1,REAL,FAKE,,,,,,,,,,,,,,,,,
,,,,,,,,,66046225387696a0f72502e5,Spanish,13 or older,"no, only English or Spanish",yes,2025-07-22_21h56.35.654,empathy_intonation_perc,2024.2.4,Win32,60.24096386,66046225387696a0f72502e5,687ed1b7e638a4cbf2f02089,688040b8275ee6c7b2cc2e0f,,,,,,,,,,,,,,0,,,,,,,,,,,,,,,,,,,,,,,,,,,,,,,,,,,,,,,,,,,,,,,,,,,,,,,,,21,capillo,,,,,1136.3422,1138.1389,1,0,1.2544,,0,46,46,20,1,REAL,FAKE,,,,,,,,,,,,,,,,,
,,,,,,,,,66046225387696a0f72502e5,Spanish,13 or older,"no, only English or Spanish",yes,2025-07-22_21h56.35.654,empathy_intonation_perc,2024.2.4,Win32,60.24096386,66046225387696a0f72502e5,687ed1b7e638a4cbf2f02089,688040b8275ee6c7b2cc2e0f,,,,,,,,,,,,,,1,,,,,,,,,,,,,,,,,,,,,,,,,,,,,,,,,,,,,,,,,,,,,,,,,,,,,,,,,83,guante,,,,,1138.1406,1140.3371,0,0,1.6497,,0,47,47,82,1,REAL,FAKE,,,,,,,,,,,,,,,,,
,,,,,,,,,66046225387696a0f72502e5,Spanish,13 or older,"no, only English or Spanish",yes,2025-07-22_21h56.35.654,empathy_intonation_perc,2024.2.4,Win32,60.24096386,66046225387696a0f72502e5,687ed1b7e638a4cbf2f02089,688040b8275ee6c7b2cc2e0f,,,,,,,,,,,,,,1,,,,,,,,,,,,,,,,,,,,,,,,,,,,,,,,,,,,,,,,,,,,,,,,,,,,,,,,,25,bisagra,,,,,1140.339,1142.0686,0,0,1.1894,,0,48,48,24,1,REAL,FAKE,,,,,,,,,,,,,,,,,
,,,,,,,,,66046225387696a0f72502e5,Spanish,13 or older,"no, only English or Spanish",yes,2025-07-22_21h56.35.654,empathy_intonation_perc,2024.2.4,Win32,60.24096386,66046225387696a0f72502e5,687ed1b7e638a4cbf2f02089,688040b8275ee6c7b2cc2e0f,,,,,,,,,,,,,,1,,,,,,,,,,,,,,,,,,,,,,,,,,,,,,,,,,,,,,,,,,,,,,,,,,,,,,,,,91,click the 1 key.,,,,,1142.0714,1144.234,1,1,1.6202,,0,49,49,90,1,REAL,FAKE,,,,,,,,,,,,,,,,,
,,,,,,,,,66046225387696a0f72502e5,Spanish,13 or older,"no, only English or Spanish",yes,2025-07-22_21h56.35.654,empathy_intonation_perc,2024.2.4,Win32,60.24096386,66046225387696a0f72502e5,687ed1b7e638a4cbf2f02089,688040b8275ee6c7b2cc2e0f,,,,,,,,,,,,,,1,,,,,,,,,,,,,,,,,,,,,,,,,,,,,,,,,,,,,,,,,,,,,,,,,,,,,,,,,61,seda,,,,,1144.236,1150.3954,0,0,5.6231,,0,50,50,60,1,REAL,FAKE,,,,,,,,,,,,,,,,,
,,,,,,,,,66046225387696a0f72502e5,Spanish,13 or older,"no, only English or Spanish",yes,2025-07-22_21h56.35.654,empathy_intonation_perc,2024.2.4,Win32,60.24096386,66046225387696a0f72502e5,687ed1b7e638a4cbf2f02089,688040b8275ee6c7b2cc2e0f,,,,,,,,,,,,,,1,,,,,,,,,,,,,,,,,,,,,,,,,,,,,,,,,,,,,,,,,,,,,,,,,,,,,,,,,86,barato,,,,,1150.3974,1152.3613,1,1,1.4174,,0,51,51,85,1,REAL,FAKE,,,,,,,,,,,,,,,,,
,,,,,,,,,66046225387696a0f72502e5,Spanish,13 or older,"no, only English or Spanish",yes,2025-07-22_21h56.35.654,empathy_intonation_perc,2024.2.4,Win32,60.24096386,66046225387696a0f72502e5,687ed1b7e638a4cbf2f02089,688040b8275ee6c7b2cc2e0f,,,,,,,,,,,,,,1,,,,,,,,,,,,,,,,,,,,,,,,,,,,,,,,,,,,,,,,,,,,,,,,,,,,,,,,,52,camisa,,,,,1152.3633,1153.5596,1,1,0.657,,0,52,52,51,1,REAL,FAKE,,,,,,,,,,,,,,,,,
,,,,,,,,,66046225387696a0f72502e5,Spanish,13 or older,"no, only English or Spanish",yes,2025-07-22_21h56.35.654,empathy_intonation_perc,2024.2.4,Win32,60.24096386,66046225387696a0f72502e5,687ed1b7e638a4cbf2f02089,688040b8275ee6c7b2cc2e0f,,,,,,,,,,,,,,1,,,,,,,,,,,,,,,,,,,,,,,,,,,,,,,,,,,,,,,,,,,,,,,,,,,,,,,,,57,tacaño,,,,,1153.562,1155.8246,0,0,1.7247,,0,53,53,56,1,REAL,FAKE,,,,,,,,,,,,,,,,,
,,,,,,,,,66046225387696a0f72502e5,Spanish,13 or older,"no, only English or Spanish",yes,2025-07-22_21h56.35.654,empathy_intonation_perc,2024.2.4,Win32,60.24096386,66046225387696a0f72502e5,687ed1b7e638a4cbf2f02089,688040b8275ee6c7b2cc2e0f,,,,,,,,,,,,,,0,,,,,,,,,,,,,,,,,,,,,,,,,,,,,,,,,,,,,,,,,,,,,,,,,,,,,,,,,16,abracer,,,,,1155.8267,1157.1573,1,0,0.785,,0,54,54,15,1,REAL,FAKE,,,,,,,,,,,,,,,,,
,,,,,,,,,66046225387696a0f72502e5,Spanish,13 or older,"no, only English or Spanish",yes,2025-07-22_21h56.35.654,empathy_intonation_perc,2024.2.4,Win32,60.24096386,66046225387696a0f72502e5,687ed1b7e638a4cbf2f02089,688040b8275ee6c7b2cc2e0f,,,,,,,,,,,,,,1,,,,,,,,,,,,,,,,,,,,,,,,,,,,,,,,,,,,,,,,,,,,,,,,,,,,,,,,,28,merodear,,,,,1157.1596,1158.5389,0,0,0.8386,,0,55,55,27,1,REAL,FAKE,,,,,,,,,,,,,,,,,
,,,,,,,,,66046225387696a0f72502e5,Spanish,13 or older,"no, only English or Spanish",yes,2025-07-22_21h56.35.654,empathy_intonation_perc,2024.2.4,Win32,60.24096386,66046225387696a0f72502e5,687ed1b7e638a4cbf2f02089,688040b8275ee6c7b2cc2e0f,,,,,,,,,,,,,,1,,,,,,,,,,,,,,,,,,,,,,,,,,,,,,,,,,,,,,,,,,,,,,,,,,,,,,,,,31,pandilla,,,,,1158.5407,1160.0226,1,1,0.9452,,0,56,56,30,1,REAL,FAKE,,,,,,,,,,,,,,,,,
,,,,,,,,,66046225387696a0f72502e5,Spanish,13 or older,"no, only English or Spanish",yes,2025-07-22_21h56.35.654,empathy_intonation_perc,2024.2.4,Win32,60.24096386,66046225387696a0f72502e5,687ed1b7e638a4cbf2f02089,688040b8275ee6c7b2cc2e0f,,,,,,,,,,,,,,0,,,,,,,,,,,,,,,,,,,,,,,,,,,,,,,,,,,,,,,,,,,,,,,,,,,,,,,,,4,batillón,,,,,1160.024,1163.3185,0,1,2.7486,,0,57,57,3,1,REAL,FAKE,,,,,,,,,,,,,,,,,
,,,,,,,,,66046225387696a0f72502e5,Spanish,13 or older,"no, only English or Spanish",yes,2025-07-22_21h56.35.654,empathy_intonation_perc,2024.2.4,Win32,60.24096386,66046225387696a0f72502e5,687ed1b7e638a4cbf2f02089,688040b8275ee6c7b2cc2e0f,,,,,,,,,,,,,,1,,,,,,,,,,,,,,,,,,,,,,,,,,,,,,,,,,,,,,,,,,,,,,,,,,,,,,,,,55,nevar,,,,,1163.3203,1164.4507,1,1,0.5839,,0,58,58,54,1,REAL,FAKE,,,,,,,,,,,,,,,,,
,,,,,,,,,66046225387696a0f72502e5,Spanish,13 or older,"no, only English or Spanish",yes,2025-07-22_21h56.35.654,empathy_intonation_perc,2024.2.4,Win32,60.24096386,66046225387696a0f72502e5,687ed1b7e638a4cbf2f02089,688040b8275ee6c7b2cc2e0f,,,,,,,,,,,,,,1,,,,,,,,,,,,,,,,,,,,,,,,,,,,,,,,,,,,,,,,,,,,,,,,,,,,,,,,,78,frondoso,,,,,1164.4528,1165.7331,0,0,0.739,,0,59,59,77,1,REAL,FAKE,,,,,,,,,,,,,,,,,
,,,,,,,,,66046225387696a0f72502e5,Spanish,13 or older,"no, only English or Spanish",yes,2025-07-22_21h56.35.654,empathy_intonation_perc,2024.2.4,Win32,60.24096386,66046225387696a0f72502e5,687ed1b7e638a4cbf2f02089,688040b8275ee6c7b2cc2e0f,,,,,,,,,,,,,,1,,,,,,,,,,,,,,,,,,,,,,,,,,,,,,,,,,,,,,,,,,,,,,,,,,,,,,,,,56,musgo,,,,,1165.7351,1167.1322,0,0,0.851,,0,60,60,55,1,REAL,FAKE,,,,,,,,,,,,,,,,,
,,,,,,,,,66046225387696a0f72502e5,Spanish,13 or older,"no, only English or Spanish",yes,2025-07-22_21h56.35.654,empathy_intonation_perc,2024.2.4,Win32,60.24096386,66046225387696a0f72502e5,687ed1b7e638a4cbf2f02089,688040b8275ee6c7b2cc2e0f,,,,,,,,,,,,,,1,,,,,,,,,,,,,,,,,,,,,,,,,,,,,,,,,,,,,,,,,,,,,,,,,,,,,,,,,81,pozo,,,,,1167.134,1168.7641,0,0,1.0915,,0,61,61,80,1,REAL,FAKE,,,,,,,,,,,,,,,,,
,,,,,,,,,66046225387696a0f72502e5,Spanish,13 or older,"no, only English or Spanish",yes,2025-07-22_21h56.35.654,empathy_intonation_perc,2024.2.4,Win32,60.24096386,66046225387696a0f72502e5,687ed1b7e638a4cbf2f02089,688040b8275ee6c7b2cc2e0f,,,,,,,,,,,,,,1,,,,,,,,,,,,,,,,,,,,,,,,,,,,,,,,,,,,,,,,,,,,,,,,,,,,,,,,,13,helar,,,,,1168.7664,1170.0294,1,1,0.7177,,0,62,62,12,1,REAL,FAKE,,,,,,,,,,,,,,,,,
,,,,,,,,,66046225387696a0f72502e5,Spanish,13 or older,"no, only English or Spanish",yes,2025-07-22_21h56.35.654,empathy_intonation_perc,2024.2.4,Win32,60.24096386,66046225387696a0f72502e5,687ed1b7e638a4cbf2f02089,688040b8275ee6c7b2cc2e0f,,,,,,,,,,,,,,1,,,,,,,,,,,,,,,,,,,,,,,,,,,,,,,,,,,,,,,,,,,,,,,,,,,,,,,,,68,alegre,,,,,1170.0312,1171.7115,1,1,1.1334,,0,63,63,67,1,REAL,FAKE,,,,,,,,,,,,,,,,,
,,,,,,,,,66046225387696a0f72502e5,Spanish,13 or older,"no, only English or Spanish",yes,2025-07-22_21h56.35.654,empathy_intonation_perc,2024.2.4,Win32,60.24096386,66046225387696a0f72502e5,687ed1b7e638a4cbf2f02089,688040b8275ee6c7b2cc2e0f,,,,,,,,,,,,,,1,,,,,,,,,,,,,,,,,,,,,,,,,,,,,,,,,,,,,,,,,,,,,,,,,,,,,,,,,90,clavel,,,,,1171.7134,1173.2108,0,0,0.9505,,0,64,64,89,1,REAL,FAKE,,,,,,,,,,,,,,,,,
,,,,,,,,,66046225387696a0f72502e5,Spanish,13 or older,"no, only English or Spanish",yes,2025-07-22_21h56.35.654,empathy_intonation_perc,2024.2.4,Win32,60.24096386,66046225387696a0f72502e5,687ed1b7e638a4cbf2f02089,688040b8275ee6c7b2cc2e0f,,,,,,,,,,,,,,1,,,,,,,,,,,,,,,,,,,,,,,,,,,,,,,,,,,,,,,,,,,,,,,,,,,,,,,,,44,cuchara,,,,,1173.2129,1174.5096,1,1,0.7552,,0,65,65,43,1,REAL,FAKE,,,,,,,,,,,,,,,,,
,,,,,,,,,66046225387696a0f72502e5,Spanish,13 or older,"no, only English or Spanish",yes,2025-07-22_21h56.35.654,empathy_intonation_perc,2024.2.4,Win32,60.24096386,66046225387696a0f72502e5,687ed1b7e638a4cbf2f02089,688040b8275ee6c7b2cc2e0f,,,,,,,,,,,,,,0,,,,,,,,,,,,,,,,,,,,,,,,,,,,,,,,,,,,,,,,,,,,,,,,,,,,,,,,,42,cadallo,,,,,1174.5122,1175.958,0,1,0.9169,,0,66,66,41,1,REAL,FAKE,,,,,,,,,,,,,,,,,
,,,,,,,,,66046225387696a0f72502e5,Spanish,13 or older,"no, only English or Spanish",yes,2025-07-22_21h56.35.654,empathy_intonation_perc,2024.2.4,Win32,60.24096386,66046225387696a0f72502e5,687ed1b7e638a4cbf2f02089,688040b8275ee6c7b2cc2e0f,,,,,,,,,,,,,,1,,,,,,,,,,,,,,,,,,,,,,,,,,,,,,,,,,,,,,,,,,,,,,,,,,,,,,,,,20,ávido,,,,,1175.9603,1178.3229,1,1,1.817,,0,67,67,19,1,REAL,FAKE,,,,,,,,,,,,,,,,,
,,,,,,,,,66046225387696a0f72502e5,Spanish,13 or older,"no, only English or Spanish",yes,2025-07-22_21h56.35.654,empathy_intonation_perc,2024.2.4,Win32,60.24096386,66046225387696a0f72502e5,687ed1b7e638a4cbf2f02089,688040b8275ee6c7b2cc2e0f,,,,,,,,,,,,,,0,,,,,,,,,,,,,,,,,,,,,,,,,,,,,,,,,,,,,,,,,,,,,,,,,,,,,,,,,82,empirador,,,,,1178.3252,1180.8708,1,0,1.9999,,0,68,68,81,1,REAL,FAKE,,,,,,,,,,,,,,,,,
,,,,,,,,,66046225387696a0f72502e5,Spanish,13 or older,"no, only English or Spanish",yes,2025-07-22_21h56.35.654,empathy_intonation_perc,2024.2.4,Win32,60.24096386,66046225387696a0f72502e5,687ed1b7e638a4cbf2f02089,688040b8275ee6c7b2cc2e0f,,,,,,,,,,,,,,0,,,,,,,,,,,,,,,,,,,,,,,,,,,,,,,,,,,,,,,,,,,,,,,,,,,,,,,,,47,cartinar,,,,,1180.8727,1184.4677,0,1,3.0564,,0,69,69,46,1,REAL,FAKE,,,,,,,,,,,,,,,,,
,,,,,,,,,66046225387696a0f72502e5,Spanish,13 or older,"no, only English or Spanish",yes,2025-07-22_21h56.35.654,empathy_intonation_perc,2024.2.4,Win32,60.24096386,66046225387696a0f72502e5,687ed1b7e638a4cbf2f02089,688040b8275ee6c7b2cc2e0f,,,,,,,,,,,,,,1,,,,,,,,,,,,,,,,,,,,,,,,,,,,,,,,,,,,,,,,,,,,,,,,,,,,,,,,,77,tiburón,,,,,1184.4697,1186.3993,0,0,1.3828,,0,70,70,76,1,REAL,FAKE,,,,,,,,,,,,,,,,,
,,,,,,,,,66046225387696a0f72502e5,Spanish,13 or older,"no, only English or Spanish",yes,2025-07-22_21h56.35.654,empathy_intonation_perc,2024.2.4,Win32,60.24096386,66046225387696a0f72502e5,687ed1b7e638a4cbf2f02089,688040b8275ee6c7b2cc2e0f,,,,,,,,,,,,,,1,,,,,,,,,,,,,,,,,,,,,,,,,,,,,,,,,,,,,,,,,,,,,,,,,,,,,,,,,38,estornudar,,,,,1186.4011,1188.3649,0,0,1.426,,0,71,71,37,1,REAL,FAKE,,,,,,,,,,,,,,,,,
,,,,,,,,,66046225387696a0f72502e5,Spanish,13 or older,"no, only English or Spanish",yes,2025-07-22_21h56.35.654,empathy_intonation_perc,2024.2.4,Win32,60.24096386,66046225387696a0f72502e5,687ed1b7e638a4cbf2f02089,688040b8275ee6c7b2cc2e0f,,,,,,,,,,,,,,1,,,,,,,,,,,,,,,,,,,,,,,,,,,,,,,,,,,,,,,,,,,,,,,,,,,,,,,,,75,yacer,,,,,1188.3672,1190.3794,1,1,1.4688,,0,72,72,74,1,REAL,FAKE,,,,,,,,,,,,,,,,,
,,,,,,,,,66046225387696a0f72502e5,Spanish,13 or older,"no, only English or Spanish",yes,2025-07-22_21h56.35.654,empathy_intonation_perc,2024.2.4,Win32,60.24096386,66046225387696a0f72502e5,687ed1b7e638a4cbf2f02089,688040b8275ee6c7b2cc2e0f,,,,,,,,,,,,,,1,,,,,,,,,,,,,,,,,,,,,,,,,,,,,,,,,,,,,,,,,,,,,,,,,,,,,,,,,67,cabello,,,,,1190.3811,1191.8949,1,1,0.9677,,0,73,73,66,1,REAL,FAKE,,,,,,,,,,,,,,,,,
,,,,,,,,,66046225387696a0f72502e5,Spanish,13 or older,"no, only English or Spanish",yes,2025-07-22_21h56.35.654,empathy_intonation_perc,2024.2.4,Win32,60.24096386,66046225387696a0f72502e5,687ed1b7e638a4cbf2f02089,688040b8275ee6c7b2cc2e0f,,,,,,,,,,,,,,1,,,,,,,,,,,,,,,,,,,,,,,,,,,,,,,,,,,,,,,,,,,,,,,,,,,,,,,,,40,alfombra,,,,,1191.8968,1193.4934,1,1,1.0578,,0,74,74,39,1,REAL,FAKE,,,,,,,,,,,,,,,,,
,,,,,,,,,66046225387696a0f72502e5,Spanish,13 or older,"no, only English or Spanish",yes,2025-07-22_21h56.35.654,empathy_intonation_perc,2024.2.4,Win32,60.24096386,66046225387696a0f72502e5,687ed1b7e638a4cbf2f02089,688040b8275ee6c7b2cc2e0f,,,,,,,,,,,,,,1,,,,,,,,,,,,,,,,,,,,,,,,,,,,,,,,,,,,,,,,,,,,,,,,,,,,,,,,,71,polvoriento,,,,,1193.4953,1195.4588,0,0,1.4191,,0,75,75,70,1,REAL,FAKE,,,,,,,,,,,,,,,,,
,,,,,,,,,66046225387696a0f72502e5,Spanish,13 or older,"no, only English or Spanish",yes,2025-07-22_21h56.35.654,empathy_intonation_perc,2024.2.4,Win32,60.24096386,66046225387696a0f72502e5,687ed1b7e638a4cbf2f02089,688040b8275ee6c7b2cc2e0f,,,,,,,,,,,,,,0,,,,,,,,,,,,,,,,,,,,,,,,,,,,,,,,,,,,,,,,,,,,,,,,,,,,,,,,,58,plaudir,,,,,1195.4604,1196.9075,0,1,0.9024,,0,76,76,57,1,REAL,FAKE,,,,,,,,,,,,,,,,,
,,,,,,,,,66046225387696a0f72502e5,Spanish,13 or older,"no, only English or Spanish",yes,2025-07-22_21h56.35.654,empathy_intonation_perc,2024.2.4,Win32,60.24096386,66046225387696a0f72502e5,687ed1b7e638a4cbf2f02089,688040b8275ee6c7b2cc2e0f,,,,,,,,,,,,,,0,,,,,,,,,,,,,,,,,,,,,,,,,,,,,,,,,,,,,,,,,,,,,,,,,,,,,,,,,74,cintro,,,,,1196.9091,1198.0732,1,0,0.6275,,0,77,77,73,1,REAL,FAKE,,,,,,,,,,,,,,,,,
,,,,,,,,,66046225387696a0f72502e5,Spanish,13 or older,"no, only English or Spanish",yes,2025-07-22_21h56.35.654,empathy_intonation_perc,2024.2.4,Win32,60.24096386,66046225387696a0f72502e5,687ed1b7e638a4cbf2f02089,688040b8275ee6c7b2cc2e0f,,,,,,,,,,,,,,1,,,,,,,,,,,,,,,,,,,,,,,,,,,,,,,,,,,,,,,,,,,,,,,,,,,,,,,,,37,granuja,,,,,1198.0752,1200.954,0,0,2.3366,,0,78,78,36,1,REAL,FAKE,,,,,,,,,,,,,,,,,
,,,,,,,,,66046225387696a0f72502e5,Spanish,13 or older,"no, only English or Spanish",yes,2025-07-22_21h56.35.654,empathy_intonation_perc,2024.2.4,Win32,60.24096386,66046225387696a0f72502e5,687ed1b7e638a4cbf2f02089,688040b8275ee6c7b2cc2e0f,,,,,,,,,,,,,,0,,,,,,,,,,,,,,,,,,,,,,,,,,,,,,,,,,,,,,,,,,,,,,,,,,,,,,,,,79,tropaje,,,,,1200.9558,1202.8355,1,0,1.3335,,0,79,79,78,1,REAL,FAKE,,,,,,,,,,,,,,,,,
,,,,,,,,,66046225387696a0f72502e5,Spanish,13 or older,"no, only English or Spanish",yes,2025-07-22_21h56.35.654,empathy_intonation_perc,2024.2.4,Win32,60.24096386,66046225387696a0f72502e5,687ed1b7e638a4cbf2f02089,688040b8275ee6c7b2cc2e0f,,,,,,,,,,,,,,0,,,,,,,,,,,,,,,,,,,,,,,,,,,,,,,,,,,,,,,,,,,,,,,,,,,,,,,,,1,terzo,,,,,1202.8379,1204.318,1,0,0.9349,,0,80,80,0,1,REAL,FAKE,,,,,,,,,,,,,,,,,
,,,,,,,,,66046225387696a0f72502e5,Spanish,13 or older,"no, only English or Spanish",yes,2025-07-22_21h56.35.654,empathy_intonation_perc,2024.2.4,Win32,60.24096386,66046225387696a0f72502e5,687ed1b7e638a4cbf2f02089,688040b8275ee6c7b2cc2e0f,,,,,,,,,,,,,,1,,,,,,,,,,,,,,,,,,,,,,,,,,,,,,,,,,,,,,,,,,,,,,,,,,,,,,,,,2,pellizcar,,,,,1204.3199,1205.8505,0,0,0.9836,,0,81,81,1,1,REAL,FAKE,,,,,,,,,,,,,,,,,
,,,,,,,,,66046225387696a0f72502e5,Spanish,13 or older,"no, only English or Spanish",yes,2025-07-22_21h56.35.654,empathy_intonation_perc,2024.2.4,Win32,60.24096386,66046225387696a0f72502e5,687ed1b7e638a4cbf2f02089,688040b8275ee6c7b2cc2e0f,,,,,,,,,,,,,,1,,,,,,,,,,,,,,,,,,,,,,,,,,,,,,,,,,,,,,,,,,,,,,,,,,,,,,,,,3,pulmones,,,,,1205.8523,1208.5977,1,1,2.2038,,0,82,82,2,1,REAL,FAKE,,,,,,,,,,,,,,,,,
,,,,,,,,,66046225387696a0f72502e5,Spanish,13 or older,"no, only English or Spanish",yes,2025-07-22_21h56.35.654,empathy_intonation_perc,2024.2.4,Win32,60.24096386,66046225387696a0f72502e5,687ed1b7e638a4cbf2f02089,688040b8275ee6c7b2cc2e0f,,,,,,,,,,,,,,0,,,,,,,,,,,,,,,,,,,,,,,,,,,,,,,,,,,,,,,,,,,,,,,,,,,,,,,,,10,antar,,,,,1208.6001,1209.7969,1,0,0.6539,,0,83,83,9,1,REAL,FAKE,,,,,,,,,,,,,,,,,
,,,,,,,,,66046225387696a0f72502e5,Spanish,13 or older,"no, only English or Spanish",yes,2025-07-22_21h56.35.654,empathy_intonation_perc,2024.2.4,Win32,60.24096386,66046225387696a0f72502e5,687ed1b7e638a4cbf2f02089,688040b8275ee6c7b2cc2e0f,,,,,,,,,,,,,,1,,,,,,,,,,,,,,,,,,,,,,,,,,,,,,,,,,,,,,,,,,,,,,,,,,,,,,,,,6,tergiversar,,,,,1209.7992,1211.9616,0,0,1.619,,0,84,84,5,1,REAL,FAKE,,,,,,,,,,,,,,,,,
,,,,,,,,,66046225387696a0f72502e5,Spanish,13 or older,"no, only English or Spanish",yes,2025-07-22_21h56.35.654,empathy_intonation_perc,2024.2.4,Win32,60.24096386,66046225387696a0f72502e5,687ed1b7e638a4cbf2f02089,688040b8275ee6c7b2cc2e0f,,,,,,,,,,,,,,0,,,,,,,,,,,,,,,,,,,,,,,,,,,,,,,,,,,,,,,,,,,,,,,,,,,,,,,,,23,lampera,,,,,1211.9638,1213.677,1,0,1.1743,,0,85,85,22,1,REAL,FAKE,,,,,,,,,,,,,,,,,
,,,,,,,,,66046225387696a0f72502e5,Spanish,13 or older,"no, only English or Spanish",yes,2025-07-22_21h56.35.654,empathy_intonation_perc,2024.2.4,Win32,60.24096386,66046225387696a0f72502e5,687ed1b7e638a4cbf2f02089,688040b8275ee6c7b2cc2e0f,,,,,,,,,,,,,,1,,,,,,,,,,,,,,,,,,,,,,,,,,,,,,,,,,,,,,,,,,,,,,,,,,,,,,,,,12,asesinato,,,,,1213.679,1215.0922,0,0,0.8725,,0,86,86,11,1,REAL,FAKE,,,,,,,,,,,,,,,,,
,,,,,,,,,66046225387696a0f72502e5,Spanish,13 or older,"no, only English or Spanish",yes,2025-07-22_21h56.35.654,empathy_intonation_perc,2024.2.4,Win32,60.24096386,66046225387696a0f72502e5,687ed1b7e638a4cbf2f02089,688040b8275ee6c7b2cc2e0f,,,,,,,,,,,,,,1,,,,,,,,,,,,,,,,,,,,,,,,,,,,,,,,,,,,,,,,,,,,,,,,,,,,,,,,,24,látigo,,,,,1215.0941,1217.1746,0,0,1.5329,,0,87,87,23,1,REAL,FAKE,,,,,,,,,,,,,,,,,
,,,,,,,,,66046225387696a0f72502e5,Spanish,13 or older,"no, only English or Spanish",yes,2025-07-22_21h56.35.654,empathy_intonation_perc,2024.2.4,Win32,60.24096386,66046225387696a0f72502e5,687ed1b7e638a4cbf2f02089,688040b8275ee6c7b2cc2e0f,,,,,,,,,,,,,,0,,,,,,,,,,,,,,,,,,,,,,,,,,,,,,,,,,,,,,,,,,,,,,,,,,,,,,,,,33,pauca,,,,,1217.1766,1218.8892,0,1,1.1744,,0,88,88,32,1,REAL,FAKE,,,,,,,,,,,,,,,,,
,,,,,,,,,66046225387696a0f72502e5,Spanish,13 or older,"no, only English or Spanish",yes,2025-07-22_21h56.35.654,empathy_intonation_perc,2024.2.4,Win32,60.24096386,66046225387696a0f72502e5,687ed1b7e638a4cbf2f02089,688040b8275ee6c7b2cc2e0f,,,,,,,,,,,,,,1,,,,,,,,,,,,,,,,,,,,,,,,,,,,,,,,,,,,,,,,,,,,,,,,,,,,,,,,,15,regar,,,,,1218.8911,1220.6713,1,1,1.2351,,0,89,89,14,1,REAL,FAKE,,,,,,,,,,,,,,,,,
,,,,,,,,,66046225387696a0f72502e5,Spanish,13 or older,"no, only English or Spanish",yes,2025-07-22_21h56.35.654,empathy_intonation_perc,2024.2.4,Win32,60.24096386,66046225387696a0f72502e5,687ed1b7e638a4cbf2f02089,688040b8275ee6c7b2cc2e0f,,,,,,,,,,,,,,1,,,,,,,,,,,,,,,,,,,,,,,,,,,,,,,,,,,,,,,,,,,,,,,,,,,,,,,,,26,secuestro,,,,,1220.6731,1222.3369,1,1,1.1173,,0,90,90,25,1,REAL,FAKE,,,,,,,,,,,,,,,,,
,,,,,,,,,66046225387696a0f72502e5,Spanish,13 or older,"no, only English or Spanish",yes,2025-07-22_21h56.35.654,empathy_intonation_perc,2024.2.4,Win32,60.24096386,66046225387696a0f72502e5,687ed1b7e638a4cbf2f02089,688040b8275ee6c7b2cc2e0f,,,,,,,,,,,,,,0,,,,,,,,,,,,,,,,,,,,,,,,,,,,,,,,,,,,,,,,,,,,,,,,,,,,,,,,,27,acutación,,,,,1222.3389,1226.9497,0,1,4.0716,,0,91,91,26,1,REAL,FAKE,,,,,,,,,,,,,,,,,
,,,,,,,,,66046225387696a0f72502e5,Spanish,13 or older,"no, only English or Spanish",yes,2025-07-22_21h56.35.654,empathy_intonation_perc,2024.2.4,Win32,60.24096386,66046225387696a0f72502e5,687ed1b7e638a4cbf2f02089,688040b8275ee6c7b2cc2e0f,,,,,,,,,,,,,,,,,,,,,,,,,,,,,,,,,,,,,,,,,,,,,,,,,,,,,,,,,,,,,,,,,,,,,,,,,,,,,,,,,,,,,,,,,,1226.9517,1235.2301,,,,,,,,,,,,,,,
,,,,,,,,,66046225387696a0f72502e5,Spanish,13 or older,"no, only English or Spanish",yes,2025-07-22_21h56.35.654,empathy_intonation_perc,2024.2.4,Win32,60.24096386,66046225387696a0f72502e5,687ed1b7e638a4cbf2f02089,688040b8275ee6c7b2cc2e0f,,,,,,,,,,,,,1,,,,,,,,,,,,,,,,,,,,,,,,,,,,,,,,,,,,,,,,,,,,,,,,,,,,,,,,,,,,,,,,,,,,,,,,,,,,,,,1235.2515,1242.8766,strongly agree,0,0,0,0,1,I can easily tell if someone else wants to enter a conversation.,1,0,1,0,,
,,,,,,,,,66046225387696a0f72502e5,Spanish,13 or older,"no, only English or Spanish",yes,2025-07-22_21h56.35.654,empathy_intonation_perc,2024.2.4,Win32,60.24096386,66046225387696a0f72502e5,687ed1b7e638a4cbf2f02089,688040b8275ee6c7b2cc2e0f,,,,,,,,,,,,,2,,,,,,,,,,,,,,,,,,,,,,,,,,,,,,,,,,,,,,,,,,,,,,,,,,,,,,,,,,,,,,,,,,,,,,,,,,,,,,,1242.8797,1246.2165,slightly disagree,0,1,1,1,1,I prefer animals to humans.,0,1,0,0,,
,,,,,,,,,66046225387696a0f72502e5,Spanish,13 or older,"no, only English or Spanish",yes,2025-07-22_21h56.35.654,empathy_intonation_perc,2024.2.4,Win32,60.24096386,66046225387696a0f72502e5,687ed1b7e638a4cbf2f02089,688040b8275ee6c7b2cc2e0f,,,,,,,,,,,,,3,,,,,,,,,,,,,,,,,,,,,,,,,,,,,,,,,,,,,,,,,,,,,,,,,,,,,,,,,,,,,,,,,,,,,,,,,,,,,,,1246.2194,1248.6319,slightly disagree,0,2,2,2,1,I try to keep up with the current trends and fashions.,0,1,0,0,,
,,,,,,,,,66046225387696a0f72502e5,Spanish,13 or older,"no, only English or Spanish",yes,2025-07-22_21h56.35.654,empathy_intonation_perc,2024.2.4,Win32,60.24096386,66046225387696a0f72502e5,687ed1b7e638a4cbf2f02089,688040b8275ee6c7b2cc2e0f,,,,,,,,,,,,,4,,,,,,,,,,,,,,,,,,,,,,,,,,,,,,,,,,,,,,,,,,,,,,,,,,,,,,,,,,,,,,,,,,,,,,,,,,,,,,,1248.6351,1256.8086,slightly agree,0,3,3,3,1,"I find it difficult to explain to others things that I understand easily,   when they don't understand it first time.",1,0,0,1,,
,,,,,,,,,66046225387696a0f72502e5,Spanish,13 or older,"no, only English or Spanish",yes,2025-07-22_21h56.35.654,empathy_intonation_perc,2024.2.4,Win32,60.24096386,66046225387696a0f72502e5,687ed1b7e638a4cbf2f02089,688040b8275ee6c7b2cc2e0f,,,,,,,,,,,,,5,,,,,,,,,,,,,,,,,,,,,,,,,,,,,,,,,,,,,,,,,,,,,,,,,,,,,,,,,,,,,,,,,,,,,,,,,,,,,,,1256.8112,1260.905,strongly agree,0,4,4,4,1,I dream most nights.,0,1,0,0,,
,,,,,,,,,66046225387696a0f72502e5,Spanish,13 or older,"no, only English or Spanish",yes,2025-07-22_21h56.35.654,empathy_intonation_perc,2024.2.4,Win32,60.24096386,66046225387696a0f72502e5,687ed1b7e638a4cbf2f02089,688040b8275ee6c7b2cc2e0f,,,,,,,,,,,,,6,,,,,,,,,,,,,,,,,,,,,,,,,,,,,,,,,,,,,,,,,,,,,,,,,,,,,,,,,,,,,,,,,,,,,,,,,,,,,,,1260.9078,1262.7197,strongly agree,0,5,5,5,1,I really enjoy caring for other people.,1,0,1,0,,
,,,,,,,,,66046225387696a0f72502e5,Spanish,13 or older,"no, only English or Spanish",yes,2025-07-22_21h56.35.654,empathy_intonation_perc,2024.2.4,Win32,60.24096386,66046225387696a0f72502e5,687ed1b7e638a4cbf2f02089,688040b8275ee6c7b2cc2e0f,,,,,,,,,,,,,7,,,,,,,,,,,,,,,,,,,,,,,,,,,,,,,,,,,,,,,,,,,,,,,,,,,,,,,,,,,,,,,,,,,,,,,,,,,,,,,1262.7228,1264.9683,strongly agree,0,6,6,6,1,I try to solve my own problems rather than discussing them with others.,0,1,0,0,,
,,,,,,,,,66046225387696a0f72502e5,Spanish,13 or older,"no, only English or Spanish",yes,2025-07-22_21h56.35.654,empathy_intonation_perc,2024.2.4,Win32,60.24096386,66046225387696a0f72502e5,687ed1b7e638a4cbf2f02089,688040b8275ee6c7b2cc2e0f,,,,,,,,,,,,,8,,,,,,,,,,,,,,,,,,,,,,,,,,,,,,,,,,,,,,,,,,,,,,,,,,,,,,,,,,,,,,,,,,,,,,,,,,,,,,,1264.971,1270.9967,slightly disagree,0,7,7,7,1,I find it hard to know what to do in a social situation.,1,0,0,1,,
,,,,,,,,,66046225387696a0f72502e5,Spanish,13 or older,"no, only English or Spanish",yes,2025-07-22_21h56.35.654,empathy_intonation_perc,2024.2.4,Win32,60.24096386,66046225387696a0f72502e5,687ed1b7e638a4cbf2f02089,688040b8275ee6c7b2cc2e0f,,,,,,,,,,,,,9,,,,,,,,,,,,,,,,,,,,,,,,,,,,,,,,,,,,,,,,,,,,,,,,,,,,,,,,,,,,,,,,,,,,,,,,,,,,,,,1270.9994,1277.491,strongly disagree,0,8,8,8,1,I am at my best first thing in the morning.,0,1,0,0,,
