instructions_exposure.started,instructions_exposure.stopped,instructions_exposure_loop.thisRepN,instructions_exposure_loop.thisTrialN,instructions_exposure_loop.thisN,instructions_exposure_loop.thisIndex,instructions_exposure_loop.ran,instructions_text,continue_text,participant_id,"What variety of Spanish are you most familiar with? (e.g., Peruvian, Spanish, Mexican)",At what age did you begin learning Spanish?,Are you proficient in any languages other than English/Spanish?,"Are you familiar with Caribbean (e.g., Caribbean, Puerto Rican) or Galician Spanish?",date,expName,psychopyVersion,OS,frameRate,id,study_id,session,trial_exposure.started,trial_exposure.stopped,key_resp_exposure.keys,key_resp_exposure.corr,key_resp_exposure.rt,key_resp_exposure.duration,key_resp.keys,exposure_loop.thisRepN,exposure_loop.thisTrialN,exposure_loop.thisN,exposure_loop.thisIndex,exposure_loop.ran,item_num,correct_response,question,path,duration,instructions_2afc.started,instructions_2afc.stopped,instructions_2afc_loop.thisRepN,instructions_2afc_loop.thisTrialN,instructions_2afc_loop.thisN,instructions_2afc_loop.thisIndex,instructions_2afc_loop.ran,practice_2afc.started,practice_2afc.stopped,key_resp_2afc_practice.keys,key_resp_2afc_practice.corr,key_resp_2afc_practice.rt,key_resp_2afc_practice.duration,trials_2afc_practice_loop.thisRepN,trials_2afc_practice_loop.thisTrialN,trials_2afc_practice_loop.thisN,trials_2afc_practice_loop.thisIndex,trials_2afc_practice_loop.ran,check_2afc.started,check_2afc.stopped,trial_2afc.started,trial_2afc.stopped,key_resp_2afc_trial.keys,key_resp_2afc_trial.corr,key_resp_2afc_trial.rt,key_resp_2afc_trial.duration,trials_2afc_loop.thisRepN,trials_2afc_loop.thisTrialN,trials_2afc_loop.thisN,trials_2afc_loop.thisIndex,trials_2afc_loop.ran,target,variety,instructions_lextale.started,instructions_lextale.stopped,instructions_lextale_loop.thisRepN,instructions_lextale_loop.thisTrialN,instructions_lextale_loop.thisN,instructions_lextale_loop.thisIndex,instructions_lextale_loop.ran,practice_lextale.started,practice_lextale.stopped,key_resp_lextale_practice.keys,key_resp_lextale_practice.corr,key_resp_lextale_practice.rt,key_resp_lextale_practice.duration,practice_feedback_lextale.started,practice_feedback_lextale.stopped,trials_lextale_practice_loop.thisRepN,trials_lextale_practice_loop.thisTrialN,trials_lextale_practice_loop.thisN,trials_lextale_practice_loop.thisIndex,trials_lextale_practice_loop.ran,stim,word,prac_button_real,prac_button_false,check_lextale.started,check_lextale.stopped,trial_lextale.started,trial_lextale.stopped,key_resp_lextale_trial.keys,key_resp_lextale_trial.corr,key_resp_lextale_trial.rt,key_resp_lextale_trial.duration,trials_lextale_loop.thisRepN,trials_lextale_loop.thisTrialN,trials_lextale_loop.thisN,trials_lextale_loop.thisIndex,trials_lextale_loop.ran,button_real,button_false,instructions_eq.started,instructions_eq.stopped,trial_eq.started,trial_eq.stopped,slider_eq_trial.response,trials_eq_loop.thisRepN,trials_eq_loop.thisTrialN,trials_eq_loop.thisN,trials_eq_loop.thisIndex,trials_eq_loop.ran,item,is_test_item,is_distractor,is_agree_score,is_disagree_score,end_exp.started,end_exp.stopped
0.012,4.099,0,0,0,0,1,"In the following task, you are going to hear a series of conversations.", (press the space bar to continue),662acd8fd604c93c4700fca6,Spanish,13 or older,"no, only English or Spanish",yes,2025-07-23_16h47.41.230,empathy_intonation_perc,2024.2.4,Win32,30.06614552,662acd8fd604c93c4700fca6,687ed1b7e638a4cbf2f02089,68814a327dd06b9cb772bd15,,,,,,,,,,,,,,,,,,,,,,,,,,,,,,,,,,,,,,,,,,,,,,,,,,,,,,,,,,,,,,,,,,,,,,,,,,,,,,,,,,,,,,,,,,,,,,,,,,,,,,,,,,
4.1,9.699,0,1,1,1,1,It is okay if you don't not 100% understand them!, (press the space bar to continue),662acd8fd604c93c4700fca6,Spanish,13 or older,"no, only English or Spanish",yes,2025-07-23_16h47.41.230,empathy_intonation_perc,2024.2.4,Win32,30.06614552,662acd8fd604c93c4700fca6,687ed1b7e638a4cbf2f02089,68814a327dd06b9cb772bd15,,,,,,,,,,,,,,,,,,,,,,,,,,,,,,,,,,,,,,,,,,,,,,,,,,,,,,,,,,,,,,,,,,,,,,,,,,,,,,,,,,,,,,,,,,,,,,,,,,,,,,,,,,
9.7,12.266,0,2,2,2,1,"After, you will read a sentence about the conversation and decide if it's true or false.", (press the space bar to continue),662acd8fd604c93c4700fca6,Spanish,13 or older,"no, only English or Spanish",yes,2025-07-23_16h47.41.230,empathy_intonation_perc,2024.2.4,Win32,30.06614552,662acd8fd604c93c4700fca6,687ed1b7e638a4cbf2f02089,68814a327dd06b9cb772bd15,,,,,,,,,,,,,,,,,,,,,,,,,,,,,,,,,,,,,,,,,,,,,,,,,,,,,,,,,,,,,,,,,,,,,,,,,,,,,,,,,,,,,,,,,,,,,,,,,,,,,,,,,,
12.266,14.399,0,3,3,3,1,"If it's true, press '1' (True) and if it's false press '0' (False).", (press the space bar to continue),662acd8fd604c93c4700fca6,Spanish,13 or older,"no, only English or Spanish",yes,2025-07-23_16h47.41.230,empathy_intonation_perc,2024.2.4,Win32,30.06614552,662acd8fd604c93c4700fca6,687ed1b7e638a4cbf2f02089,68814a327dd06b9cb772bd15,,,,,,,,,,,,,,,,,,,,,,,,,,,,,,,,,,,,,,,,,,,,,,,,,,,,,,,,,,,,,,,,,,,,,,,,,,,,,,,,,,,,,,,,,,,,,,,,,,,,,,,,,,
,,,,,,,,,662acd8fd604c93c4700fca6,Spanish,13 or older,"no, only English or Spanish",yes,2025-07-23_16h47.41.230,empathy_intonation_perc,2024.2.4,Win32,30.06614552,662acd8fd604c93c4700fca6,687ed1b7e638a4cbf2f02089,68814a327dd06b9cb772bd15,14.404,80.56,1,1,6.043,,,0,0,0,1,1,2,1,The mom asked the daughter if she already went to the supermarket.,./stim/exposure_wavs/dr_stimuli_convo.wav,60,,,,,,,,,,,,,,,,,,,,,,,,,,,,,,,,,,,,,,,,,,,,,,,,,,,,,,,,,,,,,,,,,,,,,,,,,,,,,,,,,,,,,,,,,
,,,,,,,,,662acd8fd604c93c4700fca6,Spanish,13 or older,"no, only English or Spanish",yes,2025-07-23_16h47.41.230,empathy_intonation_perc,2024.2.4,Win32,30.06614552,662acd8fd604c93c4700fca6,687ed1b7e638a4cbf2f02089,68814a327dd06b9cb772bd15,80.564,146.723,1,1,19.061,,,0,1,1,0,1,1,1,The son asked the mom if Aunt Marina is okay.,./stim/exposure_wavs/ga_stimuli_convo.wav,47,,,,,,,,,,,,,,,,,,,,,,,,,,,,,,,,,,,,,,,,,,,,,,,,,,,,,,,,,,,,,,,,,,,,,,,,,,,,,,,,,,,,,,,,,
,,,,,,,,,662acd8fd604c93c4700fca6,Spanish,13 or older,"no, only English or Spanish",yes,2025-07-23_16h47.41.230,empathy_intonation_perc,2024.2.4,Win32,30.06614552,662acd8fd604c93c4700fca6,687ed1b7e638a4cbf2f02089,68814a327dd06b9cb772bd15,146.726,190.987,0,1,8.194,,,0,2,2,2,1,3,0,The mom already has rice.,./stim/exposure_wavs/pr_stimuli_convo.wav,36,,,,,,,,,,,,,,,,,,,,,,,,,,,,,,,,,,,,,,,,,,,,,,,,,,,,,,,,,,,,,,,,,,,,,,,,,,,,,,,,,,,,,,,,,
,,,,,,,"In the following task you are going to hear a series of utterances. 

  You will decide if the utterances sound like questions or not using your keyboard.", (press the spacebar to continue),662acd8fd604c93c4700fca6,Spanish,13 or older,"no, only English or Spanish",yes,2025-07-23_16h47.41.230,empathy_intonation_perc,2024.2.4,Win32,30.06614552,662acd8fd604c93c4700fca6,687ed1b7e638a4cbf2f02089,68814a327dd06b9cb772bd15,,,,,,,,,,,,,,,,,,190.997,198.586,0,0,0,0,1,,,,,,,,,,,,,,,,,,,,,,,,,,,,,,,,,,,,,,,,,,,,,,,,,,,,,,,,,,,,,,,,,,,,,,,,,,,,,,,,,,
,,,,,,,"If you believe the utterance is a question, type '1' (for 'yes') and if you do not 
  believe it is a question type '0' (for 'no').

  Let's practice a bit...", (press the spacebar to continue),662acd8fd604c93c4700fca6,Spanish,13 or older,"no, only English or Spanish",yes,2025-07-23_16h47.41.230,empathy_intonation_perc,2024.2.4,Win32,30.06614552,662acd8fd604c93c4700fca6,687ed1b7e638a4cbf2f02089,68814a327dd06b9cb772bd15,,,,,,,,,,,,,,,,,,198.588,204.318,0,1,1,1,1,,,,,,,,,,,,,,,,,,,,,,,,,,,,,,,,,,,,,,,,,,,,,,,,,,,,,,,,,,,,,,,,,,,,,,,,,,,,,,,,,,
,,,,,,,,,662acd8fd604c93c4700fca6,Spanish,13 or older,"no, only English or Spanish",yes,2025-07-23_16h47.41.230,empathy_intonation_perc,2024.2.4,Win32,30.06614552,662acd8fd604c93c4700fca6,687ed1b7e638a4cbf2f02089,68814a327dd06b9cb772bd15,,,,,,,,,,,,,,1,,./stim/wavs/castilian_question_filler_Mi-esposo-conoce-al-chico.wav,,,,,,,,,204.325,208.053,1,1,3.17,,0,0,0,0,1,,,,,,,,,,,,,,,,,,,,,,,,,,,,,,,,,,,,,,,,,,,,,,,,,,,,,,,,,,,,,,,,,,,,,,,
,,,,,,,,,662acd8fd604c93c4700fca6,Spanish,13 or older,"no, only English or Spanish",yes,2025-07-23_16h47.41.230,empathy_intonation_perc,2024.2.4,Win32,30.06614552,662acd8fd604c93c4700fca6,687ed1b7e638a4cbf2f02089,68814a327dd06b9cb772bd15,,,,,,,,,,,,,,0,,./stim/wavs/puertorican_statement_filler_La-nina-pinta-con-su-amiga.wav,,,,,,,,,208.054,211.585,0,1,2.99,,0,1,1,7,1,,,,,,,,,,,,,,,,,,,,,,,,,,,,,,,,,,,,,,,,,,,,,,,,,,,,,,,,,,,,,,,,,,,,,,,
,,,,,,,,,662acd8fd604c93c4700fca6,Spanish,13 or older,"no, only English or Spanish",yes,2025-07-23_16h47.41.230,empathy_intonation_perc,2024.2.4,Win32,30.06614552,662acd8fd604c93c4700fca6,687ed1b7e638a4cbf2f02089,68814a327dd06b9cb772bd15,,,,,,,,,,,,,,0,,./stim/wavs/peruvian_statement_filler_El-nino-habla-con-su-madre.wav,,,,,,,,,211.585,214.951,0,1,2.841,,0,2,2,6,1,,,,,,,,,,,,,,,,,,,,,,,,,,,,,,,,,,,,,,,,,,,,,,,,,,,,,,,,,,,,,,,,,,,,,,,
,,,,,,,,,662acd8fd604c93c4700fca6,Spanish,13 or older,"no, only English or Spanish",yes,2025-07-23_16h47.41.230,empathy_intonation_perc,2024.2.4,Win32,30.06614552,662acd8fd604c93c4700fca6,687ed1b7e638a4cbf2f02089,68814a327dd06b9cb772bd15,,,,,,,,,,,,,,1,,./stim/wavs/argentine_question_filler_Mi-vecino-habla-mucho.wav,,,,,,,,,214.952,218.085,1,1,2.577,,0,3,3,1,1,,,,,,,,,,,,,,,,,,,,,,,,,,,,,,,,,,,,,,,,,,,,,,,,,,,,,,,,,,,,,,,,,,,,,,,
,,,,,,,,,662acd8fd604c93c4700fca6,Spanish,13 or older,"no, only English or Spanish",yes,2025-07-23_16h47.41.230,empathy_intonation_perc,2024.2.4,Win32,30.06614552,662acd8fd604c93c4700fca6,687ed1b7e638a4cbf2f02089,68814a327dd06b9cb772bd15,,,,,,,,,,,,,,0,,./stim/wavs/andalusian_statement_filler_Alberto-nunca-se-afeita.wav,,,,,,,,,218.087,221.151,0,1,2.501,,0,4,4,5,1,,,,,,,,,,,,,,,,,,,,,,,,,,,,,,,,,,,,,,,,,,,,,,,,,,,,,,,,,,,,,,,,,,,,,,,
,,,,,,,,,662acd8fd604c93c4700fca6,Spanish,13 or older,"no, only English or Spanish",yes,2025-07-23_16h47.41.230,empathy_intonation_perc,2024.2.4,Win32,30.06614552,662acd8fd604c93c4700fca6,687ed1b7e638a4cbf2f02089,68814a327dd06b9cb772bd15,,,,,,,,,,,,,,0,,./stim/wavs/cuban_statement_filler_Cocinabas-por-la-noche.wav,,,,,,,,,221.152,224.084,0,1,2.387,,0,5,5,4,1,,,,,,,,,,,,,,,,,,,,,,,,,,,,,,,,,,,,,,,,,,,,,,,,,,,,,,,,,,,,,,,,,,,,,,,
,,,,,,,,,662acd8fd604c93c4700fca6,Spanish,13 or older,"no, only English or Spanish",yes,2025-07-23_16h47.41.230,empathy_intonation_perc,2024.2.4,Win32,30.06614552,662acd8fd604c93c4700fca6,687ed1b7e638a4cbf2f02089,68814a327dd06b9cb772bd15,,,,,,,,,,,,,,1,,./stim/wavs/chilean_question_filler_Mi-padre-cantaba-bien.wav,,,,,,,,,224.085,226.784,1,1,2.159,,0,6,6,2,1,,,,,,,,,,,,,,,,,,,,,,,,,,,,,,,,,,,,,,,,,,,,,,,,,,,,,,,,,,,,,,,,,,,,,,,
,,,,,,,,,662acd8fd604c93c4700fca6,Spanish,13 or older,"no, only English or Spanish",yes,2025-07-23_16h47.41.230,empathy_intonation_perc,2024.2.4,Win32,30.06614552,662acd8fd604c93c4700fca6,687ed1b7e638a4cbf2f02089,68814a327dd06b9cb772bd15,,,,,,,,,,,,,,1,,./stim/wavs/mexican_question_filler_Felipe-no-tiene-contrasena.wav,,,,,,,,,226.785,230.817,1,1,3.468,,0,7,7,3,1,,,,,,,,,,,,,,,,,,,,,,,,,,,,,,,,,,,,,,,,,,,,,,,,,,,,,,,,,,,,,,,,,,,,,,,
,,,,,,,,,662acd8fd604c93c4700fca6,Spanish,13 or older,"no, only English or Spanish",yes,2025-07-23_16h47.41.230,empathy_intonation_perc,2024.2.4,Win32,30.06614552,662acd8fd604c93c4700fca6,687ed1b7e638a4cbf2f02089,68814a327dd06b9cb772bd15,,,,,,,,,,,,,,,,,,,,,,,,,,,,,,,,,,,,230.818,234.517,,,,,,,,,,,,,,,,,,,,,,,,,,,,,,,,,,,,,,,,,,,,,,,,,,,,,,,,,,,,,,,,,,,,,
,,,,,,,,,662acd8fd604c93c4700fca6,Spanish,13 or older,"no, only English or Spanish",yes,2025-07-23_16h47.41.230,empathy_intonation_perc,2024.2.4,Win32,30.06614552,662acd8fd604c93c4700fca6,687ed1b7e638a4cbf2f02089,68814a327dd06b9cb772bd15,,,,,,,,,,,,,55,0,,./stim/wavs/cuban_match_declarative-broad-focus_Mariano-habla-del-tiempo.wav,,,,,,,,,,,,,,,,,,,,,,234.531,237.283,0,1,2.221,,0,0,0,54,1,0,cuban,,,,,,,,,,,,,,,,,,,,,,,,,,,,,,,,,,,,,,,,,,,,,,,,,,,,,,,,
,,,,,,,,,662acd8fd604c93c4700fca6,Spanish,13 or older,"no, only English or Spanish",yes,2025-07-23_16h47.41.230,empathy_intonation_perc,2024.2.4,Win32,30.06614552,662acd8fd604c93c4700fca6,687ed1b7e638a4cbf2f02089,68814a327dd06b9cb772bd15,,,,,,,,,,,,,30,1,,./stim/wavs/cuban_mismatch_interrogative-total-yn_El-hombre-mira-la-luna.wav,,,,,,,,,,,,,,,,,,,,,,237.284,239.483,1,1,1.65,,0,1,1,29,1,1,cuban,,,,,,,,,,,,,,,,,,,,,,,,,,,,,,,,,,,,,,,,,,,,,,,,,,,,,,,,
,,,,,,,,,662acd8fd604c93c4700fca6,Spanish,13 or older,"no, only English or Spanish",yes,2025-07-23_16h47.41.230,empathy_intonation_perc,2024.2.4,Win32,30.06614552,662acd8fd604c93c4700fca6,687ed1b7e638a4cbf2f02089,68814a327dd06b9cb772bd15,,,,,,,,,,,,,54,0,,./stim/wavs/cuban_match_declarative-broad-focus_Maria-bebe-el-vino.wav,,,,,,,,,,,,,,,,,,,,,,239.483,241.783,1,0,1.795,,0,2,2,53,1,0,cuban,,,,,,,,,,,,,,,,,,,,,,,,,,,,,,,,,,,,,,,,,,,,,,,,,,,,,,,,
,,,,,,,,,662acd8fd604c93c4700fca6,Spanish,13 or older,"no, only English or Spanish",yes,2025-07-23_16h47.41.230,empathy_intonation_perc,2024.2.4,Win32,30.06614552,662acd8fd604c93c4700fca6,687ed1b7e638a4cbf2f02089,68814a327dd06b9cb772bd15,,,,,,,,,,,,,66,0,,./stim/wavs/puertorican_match_declarative-broad-focus_Emilio-ama-la-marcha.wav,,,,,,,,,,,,,,,,,,,,,,241.784,244.35,0,1,2.013,,0,3,3,65,1,0,puertorican,,,,,,,,,,,,,,,,,,,,,,,,,,,,,,,,,,,,,,,,,,,,,,,,,,,,,,,,
,,,,,,,,,662acd8fd604c93c4700fca6,Spanish,13 or older,"no, only English or Spanish",yes,2025-07-23_16h47.41.230,empathy_intonation_perc,2024.2.4,Win32,30.06614552,662acd8fd604c93c4700fca6,687ed1b7e638a4cbf2f02089,68814a327dd06b9cb772bd15,,,,,,,,,,,,,3,1,,./stim/wavs/castilian_match_interrogative-total-yn_Manuela-vende-el-carro.wav,,,,,,,,,,,,,,,,,,,,,,244.35,246.749,1,1,1.848,,0,4,4,2,1,0,castilian,,,,,,,,,,,,,,,,,,,,,,,,,,,,,,,,,,,,,,,,,,,,,,,,,,,,,,,,
,,,,,,,,,662acd8fd604c93c4700fca6,Spanish,13 or older,"no, only English or Spanish",yes,2025-07-23_16h47.41.230,empathy_intonation_perc,2024.2.4,Win32,30.06614552,662acd8fd604c93c4700fca6,687ed1b7e638a4cbf2f02089,68814a327dd06b9cb772bd15,,,,,,,,,,,,,60,0,,./stim/wavs/mexican_match_declarative-broad-focus_Emilio-ama-la-marcha.wav,,,,,,,,,,,,,,,,,,,,,,246.75,249.349,1,0,2.038,,0,5,5,59,1,0,mexican,,,,,,,,,,,,,,,,,,,,,,,,,,,,,,,,,,,,,,,,,,,,,,,,,,,,,,,,
,,,,,,,,,662acd8fd604c93c4700fca6,Spanish,13 or older,"no, only English or Spanish",yes,2025-07-23_16h47.41.230,empathy_intonation_perc,2024.2.4,Win32,30.06614552,662acd8fd604c93c4700fca6,687ed1b7e638a4cbf2f02089,68814a327dd06b9cb772bd15,,,,,,,,,,,,,43,1,,./stim/wavs/puertorican_mismatch_interrogative-total-yn_La-nina-lava-el-plato.wav,,,,,,,,,,,,,,,,,,,,,,249.351,251.815,1,1,1.925,,0,6,6,42,1,1,puertorican,,,,,,,,,,,,,,,,,,,,,,,,,,,,,,,,,,,,,,,,,,,,,,,,,,,,,,,,
,,,,,,,,,662acd8fd604c93c4700fca6,Spanish,13 or older,"no, only English or Spanish",yes,2025-07-23_16h47.41.230,empathy_intonation_perc,2024.2.4,Win32,30.06614552,662acd8fd604c93c4700fca6,687ed1b7e638a4cbf2f02089,68814a327dd06b9cb772bd15,,,,,,,,,,,,,82,0,,./stim/wavs/mexican_mismatch_declarative-broad-focus_Mi-novio-viene-del-lago.wav,,,,,,,,,,,,,,,,,,,,,,251.816,253.982,1,0,1.633,,0,7,7,81,1,0,mexican,,,,,,,,,,,,,,,,,,,,,,,,,,,,,,,,,,,,,,,,,,,,,,,,,,,,,,,,
,,,,,,,,,662acd8fd604c93c4700fca6,Spanish,13 or older,"no, only English or Spanish",yes,2025-07-23_16h47.41.230,empathy_intonation_perc,2024.2.4,Win32,30.06614552,662acd8fd604c93c4700fca6,687ed1b7e638a4cbf2f02089,68814a327dd06b9cb772bd15,,,,,,,,,,,,,2,1,,./stim/wavs/castilian_match_interrogative-total-yn_Emilio-ama-la-marcha.wav,,,,,,,,,,,,,,,,,,,,,,253.983,256.449,0,0,1.91,,0,8,8,1,1,0,castilian,,,,,,,,,,,,,,,,,,,,,,,,,,,,,,,,,,,,,,,,,,,,,,,,,,,,,,,,
,,,,,,,,,662acd8fd604c93c4700fca6,Spanish,13 or older,"no, only English or Spanish",yes,2025-07-23_16h47.41.230,empathy_intonation_perc,2024.2.4,Win32,30.06614552,662acd8fd604c93c4700fca6,687ed1b7e638a4cbf2f02089,68814a327dd06b9cb772bd15,,,,,,,,,,,,,11,1,,./stim/wavs/cuban_match_interrogative-total-yn_Mariano-habla-del-tiempo.wav,,,,,,,,,,,,,,,,,,,,,,256.449,259.315,0,0,2.325,,0,9,9,10,1,1,cuban,,,,,,,,,,,,,,,,,,,,,,,,,,,,,,,,,,,,,,,,,,,,,,,,,,,,,,,,
,,,,,,,,,662acd8fd604c93c4700fca6,Spanish,13 or older,"no, only English or Spanish",yes,2025-07-23_16h47.41.230,empathy_intonation_perc,2024.2.4,Win32,30.06614552,662acd8fd604c93c4700fca6,687ed1b7e638a4cbf2f02089,68814a327dd06b9cb772bd15,,,,,,,,,,,,,22,1,,./stim/wavs/puertorican_match_interrogative-total-yn_Emilio-ama-la-marcha.wav,,,,,,,,,,,,,,,,,,,,,,259.316,262.047,1,1,2.196,,0,10,10,21,1,1,puertorican,,,,,,,,,,,,,,,,,,,,,,,,,,,,,,,,,,,,,,,,,,,,,,,,,,,,,,,,
,,,,,,,,,662acd8fd604c93c4700fca6,Spanish,13 or older,"no, only English or Spanish",yes,2025-07-23_16h47.41.230,empathy_intonation_perc,2024.2.4,Win32,30.06614552,662acd8fd604c93c4700fca6,687ed1b7e638a4cbf2f02089,68814a327dd06b9cb772bd15,,,,,,,,,,,,,19,1,,./stim/wavs/puertorican_match_interrogative-total-yn_Ana-lleva-el-abrigo.wav,,,,,,,,,,,,,,,,,,,,,,262.049,264.415,0,0,1.804,,0,11,11,18,1,1,puertorican,,,,,,,,,,,,,,,,,,,,,,,,,,,,,,,,,,,,,,,,,,,,,,,,,,,,,,,,
,,,,,,,,,662acd8fd604c93c4700fca6,Spanish,13 or older,"no, only English or Spanish",yes,2025-07-23_16h47.41.230,empathy_intonation_perc,2024.2.4,Win32,30.06614552,662acd8fd604c93c4700fca6,687ed1b7e638a4cbf2f02089,68814a327dd06b9cb772bd15,,,,,,,,,,,,,73,0,,./stim/wavs/castilian_mismatch_declarative-broad-focus_Mi-tia-odia-la-lluvia.wav,,,,,,,,,,,,,,,,,,,,,,264.415,266.681,1,0,1.727,,0,12,12,72,1,0,castilian,,,,,,,,,,,,,,,,,,,,,,,,,,,,,,,,,,,,,,,,,,,,,,,,,,,,,,,,
,,,,,,,,,662acd8fd604c93c4700fca6,Spanish,13 or older,"no, only English or Spanish",yes,2025-07-23_16h47.41.230,empathy_intonation_perc,2024.2.4,Win32,30.06614552,662acd8fd604c93c4700fca6,687ed1b7e638a4cbf2f02089,68814a327dd06b9cb772bd15,,,,,,,,,,,,,58,0,,./stim/wavs/mexican_match_declarative-broad-focus_Daniel-iba-a-Bolivia.wav,,,,,,,,,,,,,,,,,,,,,,266.682,269.214,0,1,1.972,,0,13,13,57,1,0,mexican,,,,,,,,,,,,,,,,,,,,,,,,,,,,,,,,,,,,,,,,,,,,,,,,,,,,,,,,
,,,,,,,,,662acd8fd604c93c4700fca6,Spanish,13 or older,"no, only English or Spanish",yes,2025-07-23_16h47.41.230,empathy_intonation_perc,2024.2.4,Win32,30.06614552,662acd8fd604c93c4700fca6,687ed1b7e638a4cbf2f02089,68814a327dd06b9cb772bd15,,,,,,,,,,,,,85,0,,./stim/wavs/puertorican_mismatch_declarative-broad-focus_El-hombre-mira-la-luna.wav,,,,,,,,,,,,,,,,,,,,,,269.215,272.347,0,1,2.584,,0,14,14,84,1,0,puertorican,,,,,,,,,,,,,,,,,,,,,,,,,,,,,,,,,,,,,,,,,,,,,,,,,,,,,,,,
,,,,,,,,,662acd8fd604c93c4700fca6,Spanish,13 or older,"no, only English or Spanish",yes,2025-07-23_16h47.41.230,empathy_intonation_perc,2024.2.4,Win32,30.06614552,662acd8fd604c93c4700fca6,687ed1b7e638a4cbf2f02089,68814a327dd06b9cb772bd15,,,,,,,,,,,,,42,1,,./stim/wavs/puertorican_mismatch_interrogative-total-yn_La-maestra-vive-en-Paris.wav,,,,,,,,,,,,,,,,,,,,,,272.348,275.048,0,0,2.141,,0,15,15,41,1,1,puertorican,,,,,,,,,,,,,,,,,,,,,,,,,,,,,,,,,,,,,,,,,,,,,,,,,,,,,,,,
,,,,,,,,,662acd8fd604c93c4700fca6,Spanish,13 or older,"no, only English or Spanish",yes,2025-07-23_16h47.41.230,empathy_intonation_perc,2024.2.4,Win32,30.06614552,662acd8fd604c93c4700fca6,687ed1b7e638a4cbf2f02089,68814a327dd06b9cb772bd15,,,,,,,,,,,,,41,1,,./stim/wavs/puertorican_mismatch_interrogative-total-yn_El-nino-oye-el-rio.wav,,,,,,,,,,,,,,,,,,,,,,275.048,277.314,0,0,1.713,,0,16,16,40,1,1,puertorican,,,,,,,,,,,,,,,,,,,,,,,,,,,,,,,,,,,,,,,,,,,,,,,,,,,,,,,,
,,,,,,,,,662acd8fd604c93c4700fca6,Spanish,13 or older,"no, only English or Spanish",yes,2025-07-23_16h47.41.230,empathy_intonation_perc,2024.2.4,Win32,30.06614552,662acd8fd604c93c4700fca6,687ed1b7e638a4cbf2f02089,68814a327dd06b9cb772bd15,,,,,,,,,,,,,47,0,,./stim/wavs/castilian_match_declarative-broad-focus_Manuela-vende-el-carro.wav,,,,,,,,,,,,,,,,,,,,,,277.314,279.781,1,0,1.958,,0,17,17,46,1,0,castilian,,,,,,,,,,,,,,,,,,,,,,,,,,,,,,,,,,,,,,,,,,,,,,,,,,,,,,,,
,,,,,,,,,662acd8fd604c93c4700fca6,Spanish,13 or older,"no, only English or Spanish",yes,2025-07-23_16h47.41.230,empathy_intonation_perc,2024.2.4,Win32,30.06614552,662acd8fd604c93c4700fca6,687ed1b7e638a4cbf2f02089,68814a327dd06b9cb772bd15,,,,,,,,,,,,,51,0,,./stim/wavs/cuban_match_declarative-broad-focus_Ana-lleva-el-abrigo.wav,,,,,,,,,,,,,,,,,,,,,,279.781,282.047,0,1,1.716,,0,18,18,50,1,0,cuban,,,,,,,,,,,,,,,,,,,,,,,,,,,,,,,,,,,,,,,,,,,,,,,,,,,,,,,,
,,,,,,,,,662acd8fd604c93c4700fca6,Spanish,13 or older,"no, only English or Spanish",yes,2025-07-23_16h47.41.230,empathy_intonation_perc,2024.2.4,Win32,30.06614552,662acd8fd604c93c4700fca6,687ed1b7e638a4cbf2f02089,68814a327dd06b9cb772bd15,,,,,,,,,,,,,77,0,,./stim/wavs/cuban_mismatch_declarative-broad-focus_Mi-novio-viene-del-lago.wav,,,,,,,,,,,,,,,,,,,,,,282.047,284.447,0,1,1.83,,0,19,19,76,1,0,cuban,,,,,,,,,,,,,,,,,,,,,,,,,,,,,,,,,,,,,,,,,,,,,,,,,,,,,,,,
,,,,,,,,,662acd8fd604c93c4700fca6,Spanish,13 or older,"no, only English or Spanish",yes,2025-07-23_16h47.41.230,empathy_intonation_perc,2024.2.4,Win32,30.06614552,662acd8fd604c93c4700fca6,687ed1b7e638a4cbf2f02089,68814a327dd06b9cb772bd15,,,,,,,,,,,,,61,0,,./stim/wavs/mexican_match_declarative-broad-focus_Mariano-habla-del-tiempo.wav,,,,,,,,,,,,,,,,,,,,,,284.449,286.78,0,1,1.778,,0,20,20,60,1,0,mexican,,,,,,,,,,,,,,,,,,,,,,,,,,,,,,,,,,,,,,,,,,,,,,,,,,,,,,,,
,,,,,,,,,662acd8fd604c93c4700fca6,Spanish,13 or older,"no, only English or Spanish",yes,2025-07-23_16h47.41.230,empathy_intonation_perc,2024.2.4,Win32,30.06614552,662acd8fd604c93c4700fca6,687ed1b7e638a4cbf2f02089,68814a327dd06b9cb772bd15,,,,,,,,,,,,,29,1,,./stim/wavs/castilian_mismatch_interrogative-total-yn_Mi-tia-odia-la-lluvia.wav,,,,,,,,,,,,,,,,,,,,,,286.78,289.146,1,1,1.802,,0,21,21,28,1,0,castilian,,,,,,,,,,,,,,,,,,,,,,,,,,,,,,,,,,,,,,,,,,,,,,,,,,,,,,,,
,,,,,,,,,662acd8fd604c93c4700fca6,Spanish,13 or older,"no, only English or Spanish",yes,2025-07-23_16h47.41.230,empathy_intonation_perc,2024.2.4,Win32,30.06614552,662acd8fd604c93c4700fca6,687ed1b7e638a4cbf2f02089,68814a327dd06b9cb772bd15,,,,,,,,,,,,,23,1,,./stim/wavs/puertorican_match_interrogative-total-yn_Manuela-vende-el-carro.wav,,,,,,,,,,,,,,,,,,,,,,289.147,292.046,1,1,2.358,,0,22,22,22,1,1,puertorican,,,,,,,,,,,,,,,,,,,,,,,,,,,,,,,,,,,,,,,,,,,,,,,,,,,,,,,,
,,,,,,,,,662acd8fd604c93c4700fca6,Spanish,13 or older,"no, only English or Spanish",yes,2025-07-23_16h47.41.230,empathy_intonation_perc,2024.2.4,Win32,30.06614552,662acd8fd604c93c4700fca6,687ed1b7e638a4cbf2f02089,68814a327dd06b9cb772bd15,,,,,,,,,,,,,39,1,,./stim/wavs/mexican_mismatch_interrogative-total-yn_Mi-tia-odia-la-lluvia.wav,,,,,,,,,,,,,,,,,,,,,,292.047,294.446,0,0,1.851,,0,23,23,38,1,0,mexican,,,,,,,,,,,,,,,,,,,,,,,,,,,,,,,,,,,,,,,,,,,,,,,,,,,,,,,,
,,,,,,,,,662acd8fd604c93c4700fca6,Spanish,13 or older,"no, only English or Spanish",yes,2025-07-23_16h47.41.230,empathy_intonation_perc,2024.2.4,Win32,30.06614552,662acd8fd604c93c4700fca6,687ed1b7e638a4cbf2f02089,68814a327dd06b9cb772bd15,,,,,,,,,,,,,18,1,,./stim/wavs/mexican_match_interrogative-total-yn_Marta-abre-el-regalo.wav,,,,,,,,,,,,,,,,,,,,,,294.446,296.746,1,1,1.765,,0,24,24,17,1,0,mexican,,,,,,,,,,,,,,,,,,,,,,,,,,,,,,,,,,,,,,,,,,,,,,,,,,,,,,,,
,,,,,,,,,662acd8fd604c93c4700fca6,Spanish,13 or older,"no, only English or Spanish",yes,2025-07-23_16h47.41.230,empathy_intonation_perc,2024.2.4,Win32,30.06614552,662acd8fd604c93c4700fca6,687ed1b7e638a4cbf2f02089,68814a327dd06b9cb772bd15,,,,,,,,,,,,,71,0,,./stim/wavs/castilian_mismatch_declarative-broad-focus_La-nina-lava-el-plato.wav,,,,,,,,,,,,,,,,,,,,,,296.747,299.645,1,0,2.344,,0,25,25,70,1,0,castilian,,,,,,,,,,,,,,,,,,,,,,,,,,,,,,,,,,,,,,,,,,,,,,,,,,,,,,,,
,,,,,,,,,662acd8fd604c93c4700fca6,Spanish,13 or older,"no, only English or Spanish",yes,2025-07-23_16h47.41.230,empathy_intonation_perc,2024.2.4,Win32,30.06614552,662acd8fd604c93c4700fca6,687ed1b7e638a4cbf2f02089,68814a327dd06b9cb772bd15,,,,,,,,,,,,,84,0,,./stim/wavs/puertorican_mismatch_declarative-broad-focus_El-bebe-comia-muy-bien.wav,,,,,,,,,,,,,,,,,,,,,,299.646,302.112,0,1,1.914,,0,26,26,83,1,0,puertorican,,,,,,,,,,,,,,,,,,,,,,,,,,,,,,,,,,,,,,,,,,,,,,,,,,,,,,,,
,,,,,,,,,662acd8fd604c93c4700fca6,Spanish,13 or older,"no, only English or Spanish",yes,2025-07-23_16h47.41.230,empathy_intonation_perc,2024.2.4,Win32,30.06614552,662acd8fd604c93c4700fca6,687ed1b7e638a4cbf2f02089,68814a327dd06b9cb772bd15,,,,,,,,,,,,,59,0,,./stim/wavs/mexican_match_declarative-broad-focus_David-leia-el-libro.wav,,,,,,,,,,,,,,,,,,,,,,302.113,304.245,1,0,1.568,,0,27,27,58,1,0,mexican,,,,,,,,,,,,,,,,,,,,,,,,,,,,,,,,,,,,,,,,,,,,,,,,,,,,,,,,
,,,,,,,,,662acd8fd604c93c4700fca6,Spanish,13 or older,"no, only English or Spanish",yes,2025-07-23_16h47.41.230,empathy_intonation_perc,2024.2.4,Win32,30.06614552,662acd8fd604c93c4700fca6,687ed1b7e638a4cbf2f02089,68814a327dd06b9cb772bd15,,,,,,,,,,,,,76,0,,./stim/wavs/cuban_mismatch_declarative-broad-focus_La-nina-lava-el-plato.wav,,,,,,,,,,,,,,,,,,,,,,304.246,306.678,1,0,1.926,,0,28,28,75,1,0,cuban,,,,,,,,,,,,,,,,,,,,,,,,,,,,,,,,,,,,,,,,,,,,,,,,,,,,,,,,
,,,,,,,,,662acd8fd604c93c4700fca6,Spanish,13 or older,"no, only English or Spanish",yes,2025-07-23_16h47.41.230,empathy_intonation_perc,2024.2.4,Win32,30.06614552,662acd8fd604c93c4700fca6,687ed1b7e638a4cbf2f02089,68814a327dd06b9cb772bd15,,,,,,,,,,,,,33,1,,./stim/wavs/cuban_mismatch_interrogative-total-yn_Mi-novio-viene-del-lago.wav,,,,,,,,,,,,,,,,,,,,,,306.679,309.245,0,0,2.028,,0,29,29,32,1,1,cuban,,,,,,,,,,,,,,,,,,,,,,,,,,,,,,,,,,,,,,,,,,,,,,,,,,,,,,,,
,,,,,,,,,662acd8fd604c93c4700fca6,Spanish,13 or older,"no, only English or Spanish",yes,2025-07-23_16h47.41.230,empathy_intonation_perc,2024.2.4,Win32,30.06614552,662acd8fd604c93c4700fca6,687ed1b7e638a4cbf2f02089,68814a327dd06b9cb772bd15,,,,,,,,,,,,,36,1,,./stim/wavs/mexican_mismatch_interrogative-total-yn_El-nino-oye-el-rio.wav,,,,,,,,,,,,,,,,,,,,,,309.245,311.545,1,1,1.741,,0,30,30,35,1,0,mexican,,,,,,,,,,,,,,,,,,,,,,,,,,,,,,,,,,,,,,,,,,,,,,,,,,,,,,,,
,,,,,,,,,662acd8fd604c93c4700fca6,Spanish,13 or older,"no, only English or Spanish",yes,2025-07-23_16h47.41.230,empathy_intonation_perc,2024.2.4,Win32,30.06614552,662acd8fd604c93c4700fca6,687ed1b7e638a4cbf2f02089,68814a327dd06b9cb772bd15,,,,,,,,,,,,,78,0,,./stim/wavs/cuban_mismatch_declarative-broad-focus_Mi-tia-odia-la-lluvia.wav,,,,,,,,,,,,,,,,,,,,,,311.546,314.077,0,1,1.985,,0,31,31,77,1,0,cuban,,,,,,,,,,,,,,,,,,,,,,,,,,,,,,,,,,,,,,,,,,,,,,,,,,,,,,,,
,,,,,,,,,662acd8fd604c93c4700fca6,Spanish,13 or older,"no, only English or Spanish",yes,2025-07-23_16h47.41.230,empathy_intonation_perc,2024.2.4,Win32,30.06614552,662acd8fd604c93c4700fca6,687ed1b7e638a4cbf2f02089,68814a327dd06b9cb772bd15,,,,,,,,,,,,,88,0,,./stim/wavs/puertorican_mismatch_declarative-broad-focus_La-nina-lava-el-plato.wav,,,,,,,,,,,,,,,,,,,,,,314.078,316.578,0,1,1.969,,0,32,32,87,1,0,puertorican,,,,,,,,,,,,,,,,,,,,,,,,,,,,,,,,,,,,,,,,,,,,,,,,,,,,,,,,
,,,,,,,,,662acd8fd604c93c4700fca6,Spanish,13 or older,"no, only English or Spanish",yes,2025-07-23_16h47.41.230,empathy_intonation_perc,2024.2.4,Win32,30.06614552,662acd8fd604c93c4700fca6,687ed1b7e638a4cbf2f02089,68814a327dd06b9cb772bd15,,,,,,,,,,,,,24,1,,./stim/wavs/puertorican_match_interrogative-total-yn_Maria-bebe-el-vino.wav,,,,,,,,,,,,,,,,,,,,,,316.581,318.544,1,1,1.4,,0,33,33,23,1,1,puertorican,,,,,,,,,,,,,,,,,,,,,,,,,,,,,,,,,,,,,,,,,,,,,,,,,,,,,,,,
,,,,,,,,,662acd8fd604c93c4700fca6,Spanish,13 or older,"no, only English or Spanish",yes,2025-07-23_16h47.41.230,empathy_intonation_perc,2024.2.4,Win32,30.06614552,662acd8fd604c93c4700fca6,687ed1b7e638a4cbf2f02089,68814a327dd06b9cb772bd15,,,,,,,,,,,,,46,0,,./stim/wavs/castilian_match_declarative-broad-focus_Emilio-ama-la-marcha.wav,,,,,,,,,,,,,,,,,,,,,,318.545,320.91,0,1,1.802,,0,34,34,45,1,0,castilian,,,,,,,,,,,,,,,,,,,,,,,,,,,,,,,,,,,,,,,,,,,,,,,,,,,,,,,,
,,,,,,,,,662acd8fd604c93c4700fca6,Spanish,13 or older,"no, only English or Spanish",yes,2025-07-23_16h47.41.230,empathy_intonation_perc,2024.2.4,Win32,30.06614552,662acd8fd604c93c4700fca6,687ed1b7e638a4cbf2f02089,68814a327dd06b9cb772bd15,,,,,,,,,,,,,32,1,,./stim/wavs/cuban_mismatch_interrogative-total-yn_Mi-madre-come-la-fruta.wav,,,,,,,,,,,,,,,,,,,,,,320.911,323.31,0,0,1.884,,0,35,35,31,1,1,cuban,,,,,,,,,,,,,,,,,,,,,,,,,,,,,,,,,,,,,,,,,,,,,,,,,,,,,,,,
,,,,,,,,,662acd8fd604c93c4700fca6,Spanish,13 or older,"no, only English or Spanish",yes,2025-07-23_16h47.41.230,empathy_intonation_perc,2024.2.4,Win32,30.06614552,662acd8fd604c93c4700fca6,687ed1b7e638a4cbf2f02089,68814a327dd06b9cb772bd15,,,,,,,,,,,,,26,1,,./stim/wavs/castilian_mismatch_interrogative-total-yn_La-nina-lava-el-plato.wav,,,,,,,,,,,,,,,,,,,,,,323.311,325.71,1,1,1.861,,0,36,36,25,1,0,castilian,,,,,,,,,,,,,,,,,,,,,,,,,,,,,,,,,,,,,,,,,,,,,,,,,,,,,,,,
,,,,,,,,,662acd8fd604c93c4700fca6,Spanish,13 or older,"no, only English or Spanish",yes,2025-07-23_16h47.41.230,empathy_intonation_perc,2024.2.4,Win32,30.06614552,662acd8fd604c93c4700fca6,687ed1b7e638a4cbf2f02089,68814a327dd06b9cb772bd15,,,,,,,,,,,,,74,0,,./stim/wavs/cuban_mismatch_declarative-broad-focus_El-bebe-comia-muy-bien.wav,,,,,,,,,,,,,,,,,,,,,,325.711,328.51,0,1,2.261,,0,37,37,73,1,0,cuban,,,,,,,,,,,,,,,,,,,,,,,,,,,,,,,,,,,,,,,,,,,,,,,,,,,,,,,,
,,,,,,,,,662acd8fd604c93c4700fca6,Spanish,13 or older,"no, only English or Spanish",yes,2025-07-23_16h47.41.230,empathy_intonation_perc,2024.2.4,Win32,30.06614552,662acd8fd604c93c4700fca6,687ed1b7e638a4cbf2f02089,68814a327dd06b9cb772bd15,,,,,,,,,,,,,8,1,,./stim/wavs/cuban_match_interrogative-total-yn_Daniel-iba-a-Bolivia.wav,,,,,,,,,,,,,,,,,,,,,,328.511,331.11,0,0,2.061,,0,38,38,7,1,1,cuban,,,,,,,,,,,,,,,,,,,,,,,,,,,,,,,,,,,,,,,,,,,,,,,,,,,,,,,,
,,,,,,,,,662acd8fd604c93c4700fca6,Spanish,13 or older,"no, only English or Spanish",yes,2025-07-23_16h47.41.230,empathy_intonation_perc,2024.2.4,Win32,30.06614552,662acd8fd604c93c4700fca6,687ed1b7e638a4cbf2f02089,68814a327dd06b9cb772bd15,,,,,,,,,,,,,20,1,,./stim/wavs/puertorican_match_interrogative-total-yn_Daniel-iba-a-Bolivia.wav,,,,,,,,,,,,,,,,,,,,,,331.11,334.51,0,0,2.836,,0,39,39,19,1,1,puertorican,,,,,,,,,,,,,,,,,,,,,,,,,,,,,,,,,,,,,,,,,,,,,,,,,,,,,,,,
,,,,,,,,,662acd8fd604c93c4700fca6,Spanish,13 or older,"no, only English or Spanish",yes,2025-07-23_16h47.41.230,empathy_intonation_perc,2024.2.4,Win32,30.06614552,662acd8fd604c93c4700fca6,687ed1b7e638a4cbf2f02089,68814a327dd06b9cb772bd15,,,,,,,,,,,,,52,0,,./stim/wavs/cuban_match_declarative-broad-focus_Daniel-iba-a-Bolivia.wav,,,,,,,,,,,,,,,,,,,,,,334.51,337.243,0,1,2.175,,0,40,40,51,1,0,cuban,,,,,,,,,,,,,,,,,,,,,,,,,,,,,,,,,,,,,,,,,,,,,,,,,,,,,,,,
,,,,,,,,,662acd8fd604c93c4700fca6,Spanish,13 or older,"no, only English or Spanish",yes,2025-07-23_16h47.41.230,empathy_intonation_perc,2024.2.4,Win32,30.06614552,662acd8fd604c93c4700fca6,687ed1b7e638a4cbf2f02089,68814a327dd06b9cb772bd15,,,,,,,,,,,,,1,1,,./stim/wavs/castilian_match_interrogative-total-yn_David-leia-el-libro.wav,,,,,,,,,,,,,,,,,,,,,,337.243,339.476,1,1,1.714,,0,41,41,0,1,0,castilian,,,,,,,,,,,,,,,,,,,,,,,,,,,,,,,,,,,,,,,,,,,,,,,,,,,,,,,,
,,,,,,,,,662acd8fd604c93c4700fca6,Spanish,13 or older,"no, only English or Spanish",yes,2025-07-23_16h47.41.230,empathy_intonation_perc,2024.2.4,Win32,30.06614552,662acd8fd604c93c4700fca6,687ed1b7e638a4cbf2f02089,68814a327dd06b9cb772bd15,,,,,,,,,,,,,70,0,,./stim/wavs/castilian_mismatch_declarative-broad-focus_La-maestra-vive-en-Paris.wav,,,,,,,,,,,,,,,,,,,,,,339.476,342.544,0,1,2.534,,0,42,42,69,1,0,castilian,,,,,,,,,,,,,,,,,,,,,,,,,,,,,,,,,,,,,,,,,,,,,,,,,,,,,,,,
,,,,,,,,,662acd8fd604c93c4700fca6,Spanish,13 or older,"no, only English or Spanish",yes,2025-07-23_16h47.41.230,empathy_intonation_perc,2024.2.4,Win32,30.06614552,662acd8fd604c93c4700fca6,687ed1b7e638a4cbf2f02089,68814a327dd06b9cb772bd15,,,,,,,,,,,,,15,1,,./stim/wavs/mexican_match_interrogative-total-yn_David-leia-el-libro.wav,,,,,,,,,,,,,,,,,,,,,,342.544,345.043,1,1,1.943,,0,43,43,14,1,0,mexican,,,,,,,,,,,,,,,,,,,,,,,,,,,,,,,,,,,,,,,,,,,,,,,,,,,,,,,,
,,,,,,,,,662acd8fd604c93c4700fca6,Spanish,13 or older,"no, only English or Spanish",yes,2025-07-23_16h47.41.230,empathy_intonation_perc,2024.2.4,Win32,30.06614552,662acd8fd604c93c4700fca6,687ed1b7e638a4cbf2f02089,68814a327dd06b9cb772bd15,,,,,,,,,,,,,49,0,,./stim/wavs/castilian_match_declarative-broad-focus_Mariano-habla-del-tiempo.wav,,,,,,,,,,,,,,,,,,,,,,345.043,347.675,0,1,2.067,,0,44,44,48,1,0,castilian,,,,,,,,,,,,,,,,,,,,,,,,,,,,,,,,,,,,,,,,,,,,,,,,,,,,,,,,
,,,,,,,,,662acd8fd604c93c4700fca6,Spanish,13 or older,"no, only English or Spanish",yes,2025-07-23_16h47.41.230,empathy_intonation_perc,2024.2.4,Win32,30.06614552,662acd8fd604c93c4700fca6,687ed1b7e638a4cbf2f02089,68814a327dd06b9cb772bd15,,,,,,,,,,,,,63,0,,./stim/wavs/puertorican_match_declarative-broad-focus_Ana-lleva-el-abrigo.wav,,,,,,,,,,,,,,,,,,,,,,347.675,349.909,0,1,1.715,,0,45,45,62,1,0,puertorican,,,,,,,,,,,,,,,,,,,,,,,,,,,,,,,,,,,,,,,,,,,,,,,,,,,,,,,,
,,,,,,,,,662acd8fd604c93c4700fca6,Spanish,13 or older,"no, only English or Spanish",yes,2025-07-23_16h47.41.230,empathy_intonation_perc,2024.2.4,Win32,30.06614552,662acd8fd604c93c4700fca6,687ed1b7e638a4cbf2f02089,68814a327dd06b9cb772bd15,,,,,,,,,,,,,86,0,,./stim/wavs/puertorican_mismatch_declarative-broad-focus_El-nino-oye-el-rio.wav,,,,,,,,,,,,,,,,,,,,,,349.91,352.175,0,1,1.71,,0,46,46,85,1,0,puertorican,,,,,,,,,,,,,,,,,,,,,,,,,,,,,,,,,,,,,,,,,,,,,,,,,,,,,,,,
,,,,,,,,,662acd8fd604c93c4700fca6,Spanish,13 or older,"no, only English or Spanish",yes,2025-07-23_16h47.41.230,empathy_intonation_perc,2024.2.4,Win32,30.06614552,662acd8fd604c93c4700fca6,687ed1b7e638a4cbf2f02089,68814a327dd06b9cb772bd15,,,,,,,,,,,,,53,0,,./stim/wavs/cuban_match_declarative-broad-focus_Manuela-vende-el-carro.wav,,,,,,,,,,,,,,,,,,,,,,352.176,354.708,1,0,1.974,,0,47,47,52,1,0,cuban,,,,,,,,,,,,,,,,,,,,,,,,,,,,,,,,,,,,,,,,,,,,,,,,,,,,,,,,
,,,,,,,,,662acd8fd604c93c4700fca6,Spanish,13 or older,"no, only English or Spanish",yes,2025-07-23_16h47.41.230,empathy_intonation_perc,2024.2.4,Win32,30.06614552,662acd8fd604c93c4700fca6,687ed1b7e638a4cbf2f02089,68814a327dd06b9cb772bd15,,,,,,,,,,,,,56,0,,./stim/wavs/cuban_match_declarative-broad-focus_Marta-abre-el-regalo.wav,,,,,,,,,,,,,,,,,,,,,,354.709,357.708,0,1,2.439,,0,48,48,55,1,0,cuban,,,,,,,,,,,,,,,,,,,,,,,,,,,,,,,,,,,,,,,,,,,,,,,,,,,,,,,,
,,,,,,,,,662acd8fd604c93c4700fca6,Spanish,13 or older,"no, only English or Spanish",yes,2025-07-23_16h47.41.230,empathy_intonation_perc,2024.2.4,Win32,30.06614552,662acd8fd604c93c4700fca6,687ed1b7e638a4cbf2f02089,68814a327dd06b9cb772bd15,,,,,,,,,,,,,69,0,,./stim/wavs/castilian_mismatch_declarative-broad-focus_El-nino-oye-el-rio.wav,,,,,,,,,,,,,,,,,,,,,,357.708,360.075,1,0,1.832,,0,49,49,68,1,0,castilian,,,,,,,,,,,,,,,,,,,,,,,,,,,,,,,,,,,,,,,,,,,,,,,,,,,,,,,,
,,,,,,,,,662acd8fd604c93c4700fca6,Spanish,13 or older,"no, only English or Spanish",yes,2025-07-23_16h47.41.230,empathy_intonation_perc,2024.2.4,Win32,30.06614552,662acd8fd604c93c4700fca6,687ed1b7e638a4cbf2f02089,68814a327dd06b9cb772bd15,,,,,,,,,,,,,79,0,,./stim/wavs/mexican_mismatch_declarative-broad-focus_El-bebe-comia-muy-bien.wav,,,,,,,,,,,,,,,,,,,,,,360.076,362.774,0,1,2.135,,0,50,50,78,1,0,mexican,,,,,,,,,,,,,,,,,,,,,,,,,,,,,,,,,,,,,,,,,,,,,,,,,,,,,,,,
,,,,,,,,,662acd8fd604c93c4700fca6,Spanish,13 or older,"no, only English or Spanish",yes,2025-07-23_16h47.41.230,empathy_intonation_perc,2024.2.4,Win32,30.06614552,662acd8fd604c93c4700fca6,687ed1b7e638a4cbf2f02089,68814a327dd06b9cb772bd15,,,,,,,,,,,,,83,0,,./stim/wavs/mexican_mismatch_declarative-broad-focus_Mi-tia-odia-la-lluvia.wav,,,,,,,,,,,,,,,,,,,,,,362.774,365.141,0,1,1.834,,0,51,51,82,1,0,mexican,,,,,,,,,,,,,,,,,,,,,,,,,,,,,,,,,,,,,,,,,,,,,,,,,,,,,,,,
,,,,,,,,,662acd8fd604c93c4700fca6,Spanish,13 or older,"no, only English or Spanish",yes,2025-07-23_16h47.41.230,empathy_intonation_perc,2024.2.4,Win32,30.06614552,662acd8fd604c93c4700fca6,687ed1b7e638a4cbf2f02089,68814a327dd06b9cb772bd15,,,,,,,,,,,,,68,0,,./stim/wavs/puertorican_match_declarative-broad-focus_Maria-bebe-el-vino.wav,,,,,,,,,,,,,,,,,,,,,,365.142,367.274,1,0,1.594,,0,52,52,67,1,0,puertorican,,,,,,,,,,,,,,,,,,,,,,,,,,,,,,,,,,,,,,,,,,,,,,,,,,,,,,,,
,,,,,,,,,662acd8fd604c93c4700fca6,Spanish,13 or older,"no, only English or Spanish",yes,2025-07-23_16h47.41.230,empathy_intonation_perc,2024.2.4,Win32,30.06614552,662acd8fd604c93c4700fca6,687ed1b7e638a4cbf2f02089,68814a327dd06b9cb772bd15,,,,,,,,,,,,,4,1,,./stim/wavs/castilian_match_interrogative-total-yn_Maria-bebe-el-vino.wav,,,,,,,,,,,,,,,,,,,,,,367.274,369.441,1,1,1.601,,0,53,53,3,1,0,castilian,,,,,,,,,,,,,,,,,,,,,,,,,,,,,,,,,,,,,,,,,,,,,,,,,,,,,,,,
,,,,,,,,,662acd8fd604c93c4700fca6,Spanish,13 or older,"no, only English or Spanish",yes,2025-07-23_16h47.41.230,empathy_intonation_perc,2024.2.4,Win32,30.06614552,662acd8fd604c93c4700fca6,687ed1b7e638a4cbf2f02089,68814a327dd06b9cb772bd15,,,,,,,,,,,,,48,0,,./stim/wavs/castilian_match_declarative-broad-focus_Maria-bebe-el-vino.wav,,,,,,,,,,,,,,,,,,,,,,369.441,371.474,1,0,1.471,,0,54,54,47,1,0,castilian,,,,,,,,,,,,,,,,,,,,,,,,,,,,,,,,,,,,,,,,,,,,,,,,,,,,,,,,
,,,,,,,,,662acd8fd604c93c4700fca6,Spanish,13 or older,"no, only English or Spanish",yes,2025-07-23_16h47.41.230,empathy_intonation_perc,2024.2.4,Win32,30.06614552,662acd8fd604c93c4700fca6,687ed1b7e638a4cbf2f02089,68814a327dd06b9cb772bd15,,,,,,,,,,,,,6,1,,./stim/wavs/castilian_match_interrogative-total-yn_Marta-abre-el-regalo.wav,,,,,,,,,,,,,,,,,,,,,,371.474,374.006,1,1,1.966,,0,55,55,5,1,0,castilian,,,,,,,,,,,,,,,,,,,,,,,,,,,,,,,,,,,,,,,,,,,,,,,,,,,,,,,,
,,,,,,,,,662acd8fd604c93c4700fca6,Spanish,13 or older,"no, only English or Spanish",yes,2025-07-23_16h47.41.230,empathy_intonation_perc,2024.2.4,Win32,30.06614552,662acd8fd604c93c4700fca6,687ed1b7e638a4cbf2f02089,68814a327dd06b9cb772bd15,,,,,,,,,,,,,64,0,,./stim/wavs/puertorican_match_declarative-broad-focus_Daniel-iba-a-Bolivia.wav,,,,,,,,,,,,,,,,,,,,,,374.007,376.54,0,1,2.011,,0,56,56,63,1,0,puertorican,,,,,,,,,,,,,,,,,,,,,,,,,,,,,,,,,,,,,,,,,,,,,,,,,,,,,,,,
,,,,,,,,,662acd8fd604c93c4700fca6,Spanish,13 or older,"no, only English or Spanish",yes,2025-07-23_16h47.41.230,empathy_intonation_perc,2024.2.4,Win32,30.06614552,662acd8fd604c93c4700fca6,687ed1b7e638a4cbf2f02089,68814a327dd06b9cb772bd15,,,,,,,,,,,,,12,1,,./stim/wavs/cuban_match_interrogative-total-yn_Marta-abre-el-regalo.wav,,,,,,,,,,,,,,,,,,,,,,376.54,378.74,1,1,1.692,,0,57,57,11,1,1,cuban,,,,,,,,,,,,,,,,,,,,,,,,,,,,,,,,,,,,,,,,,,,,,,,,,,,,,,,,
,,,,,,,,,662acd8fd604c93c4700fca6,Spanish,13 or older,"no, only English or Spanish",yes,2025-07-23_16h47.41.230,empathy_intonation_perc,2024.2.4,Win32,30.06614552,662acd8fd604c93c4700fca6,687ed1b7e638a4cbf2f02089,68814a327dd06b9cb772bd15,,,,,,,,,,,,,25,1,,./stim/wavs/castilian_mismatch_interrogative-total-yn_La-maestra-vive-en-Paris.wav,,,,,,,,,,,,,,,,,,,,,,378.741,382.14,1,1,2.851,,0,58,58,24,1,0,castilian,,,,,,,,,,,,,,,,,,,,,,,,,,,,,,,,,,,,,,,,,,,,,,,,,,,,,,,,
,,,,,,,,,662acd8fd604c93c4700fca6,Spanish,13 or older,"no, only English or Spanish",yes,2025-07-23_16h47.41.230,empathy_intonation_perc,2024.2.4,Win32,30.06614552,662acd8fd604c93c4700fca6,687ed1b7e638a4cbf2f02089,68814a327dd06b9cb772bd15,,,,,,,,,,,,,17,1,,./stim/wavs/mexican_match_interrogative-total-yn_Mariano-habla-del-tiempo.wav,,,,,,,,,,,,,,,,,,,,,,382.142,384.739,1,1,2.053,,0,59,59,16,1,0,mexican,,,,,,,,,,,,,,,,,,,,,,,,,,,,,,,,,,,,,,,,,,,,,,,,,,,,,,,,
,,,,,,,,,662acd8fd604c93c4700fca6,Spanish,13 or older,"no, only English or Spanish",yes,2025-07-23_16h47.41.230,empathy_intonation_perc,2024.2.4,Win32,30.06614552,662acd8fd604c93c4700fca6,687ed1b7e638a4cbf2f02089,68814a327dd06b9cb772bd15,,,,,,,,,,,,,45,0,,./stim/wavs/castilian_match_declarative-broad-focus_David-leia-el-libro.wav,,,,,,,,,,,,,,,,,,,,,,384.74,387.072,1,0,1.821,,0,60,60,44,1,0,castilian,,,,,,,,,,,,,,,,,,,,,,,,,,,,,,,,,,,,,,,,,,,,,,,,,,,,,,,,
,,,,,,,,,662acd8fd604c93c4700fca6,Spanish,13 or older,"no, only English or Spanish",yes,2025-07-23_16h47.41.230,empathy_intonation_perc,2024.2.4,Win32,30.06614552,662acd8fd604c93c4700fca6,687ed1b7e638a4cbf2f02089,68814a327dd06b9cb772bd15,,,,,,,,,,,,,72,0,,./stim/wavs/castilian_mismatch_declarative-broad-focus_Mi-novio-viene-del-lago.wav,,,,,,,,,,,,,,,,,,,,,,387.074,389.572,1,0,1.977,,0,61,61,71,1,0,castilian,,,,,,,,,,,,,,,,,,,,,,,,,,,,,,,,,,,,,,,,,,,,,,,,,,,,,,,,
,,,,,,,,,662acd8fd604c93c4700fca6,Spanish,13 or older,"no, only English or Spanish",yes,2025-07-23_16h47.41.230,empathy_intonation_perc,2024.2.4,Win32,30.06614552,662acd8fd604c93c4700fca6,687ed1b7e638a4cbf2f02089,68814a327dd06b9cb772bd15,,,,,,,,,,,,,28,1,,./stim/wavs/castilian_mismatch_interrogative-total-yn_Mi-novio-viene-del-lago.wav,,,,,,,,,,,,,,,,,,,,,,389.573,391.839,1,1,1.708,,0,62,62,27,1,0,castilian,,,,,,,,,,,,,,,,,,,,,,,,,,,,,,,,,,,,,,,,,,,,,,,,,,,,,,,,
,,,,,,,,,662acd8fd604c93c4700fca6,Spanish,13 or older,"no, only English or Spanish",yes,2025-07-23_16h47.41.230,empathy_intonation_perc,2024.2.4,Win32,30.06614552,662acd8fd604c93c4700fca6,687ed1b7e638a4cbf2f02089,68814a327dd06b9cb772bd15,,,,,,,,,,,,,9,1,,./stim/wavs/cuban_match_interrogative-total-yn_Manuela-vende-el-carro.wav,,,,,,,,,,,,,,,,,,,,,,391.84,394.439,1,1,2.035,,0,63,63,8,1,1,cuban,,,,,,,,,,,,,,,,,,,,,,,,,,,,,,,,,,,,,,,,,,,,,,,,,,,,,,,,
,,,,,,,,,662acd8fd604c93c4700fca6,Spanish,13 or older,"no, only English or Spanish",yes,2025-07-23_16h47.41.230,empathy_intonation_perc,2024.2.4,Win32,30.06614552,662acd8fd604c93c4700fca6,687ed1b7e638a4cbf2f02089,68814a327dd06b9cb772bd15,,,,,,,,,,,,,7,1,,./stim/wavs/cuban_match_interrogative-total-yn_Ana-lleva-el-abrigo.wav,,,,,,,,,,,,,,,,,,,,,,394.44,396.739,1,1,1.778,,0,64,64,6,1,1,cuban,,,,,,,,,,,,,,,,,,,,,,,,,,,,,,,,,,,,,,,,,,,,,,,,,,,,,,,,
,,,,,,,,,662acd8fd604c93c4700fca6,Spanish,13 or older,"no, only English or Spanish",yes,2025-07-23_16h47.41.230,empathy_intonation_perc,2024.2.4,Win32,30.06614552,662acd8fd604c93c4700fca6,687ed1b7e638a4cbf2f02089,68814a327dd06b9cb772bd15,,,,,,,,,,,,,5,1,,./stim/wavs/castilian_match_interrogative-total-yn_Mariano-habla-del-tiempo.wav,,,,,,,,,,,,,,,,,,,,,,396.74,399.305,1,1,2,,0,65,65,4,1,0,castilian,,,,,,,,,,,,,,,,,,,,,,,,,,,,,,,,,,,,,,,,,,,,,,,,,,,,,,,,
,,,,,,,,,662acd8fd604c93c4700fca6,Spanish,13 or older,"no, only English or Spanish",yes,2025-07-23_16h47.41.230,empathy_intonation_perc,2024.2.4,Win32,30.06614552,662acd8fd604c93c4700fca6,687ed1b7e638a4cbf2f02089,68814a327dd06b9cb772bd15,,,,,,,,,,,,,75,0,,./stim/wavs/cuban_mismatch_declarative-broad-focus_El-hombre-mira-la-luna.wav,,,,,,,,,,,,,,,,,,,,,,399.305,401.938,0,1,2.117,,0,66,66,74,1,0,cuban,,,,,,,,,,,,,,,,,,,,,,,,,,,,,,,,,,,,,,,,,,,,,,,,,,,,,,,,
,,,,,,,,,662acd8fd604c93c4700fca6,Spanish,13 or older,"no, only English or Spanish",yes,2025-07-23_16h47.41.230,empathy_intonation_perc,2024.2.4,Win32,30.06614552,662acd8fd604c93c4700fca6,687ed1b7e638a4cbf2f02089,68814a327dd06b9cb772bd15,,,,,,,,,,,,,81,0,,./stim/wavs/mexican_mismatch_declarative-broad-focus_La-maestra-vive-en-Paris.wav,,,,,,,,,,,,,,,,,,,,,,401.938,404.704,0,1,2.248,,0,67,67,80,1,0,mexican,,,,,,,,,,,,,,,,,,,,,,,,,,,,,,,,,,,,,,,,,,,,,,,,,,,,,,,,
,,,,,,,,,662acd8fd604c93c4700fca6,Spanish,13 or older,"no, only English or Spanish",yes,2025-07-23_16h47.41.230,empathy_intonation_perc,2024.2.4,Win32,30.06614552,662acd8fd604c93c4700fca6,687ed1b7e638a4cbf2f02089,68814a327dd06b9cb772bd15,,,,,,,,,,,,,44,1,,./stim/wavs/puertorican_mismatch_interrogative-total-yn_Mi-madre-come-la-fruta.wav,,,,,,,,,,,,,,,,,,,,,,404.705,407.171,0,0,1.937,,0,68,68,43,1,1,puertorican,,,,,,,,,,,,,,,,,,,,,,,,,,,,,,,,,,,,,,,,,,,,,,,,,,,,,,,,
,,,,,,,,,662acd8fd604c93c4700fca6,Spanish,13 or older,"no, only English or Spanish",yes,2025-07-23_16h47.41.230,empathy_intonation_perc,2024.2.4,Win32,30.06614552,662acd8fd604c93c4700fca6,687ed1b7e638a4cbf2f02089,68814a327dd06b9cb772bd15,,,,,,,,,,,,,50,0,,./stim/wavs/castilian_match_declarative-broad-focus_Marta-abre-el-regalo.wav,,,,,,,,,,,,,,,,,,,,,,407.171,409.837,0,1,2.143,,0,69,69,49,1,0,castilian,,,,,,,,,,,,,,,,,,,,,,,,,,,,,,,,,,,,,,,,,,,,,,,,,,,,,,,,
,,,,,,,,,662acd8fd604c93c4700fca6,Spanish,13 or older,"no, only English or Spanish",yes,2025-07-23_16h47.41.230,empathy_intonation_perc,2024.2.4,Win32,30.06614552,662acd8fd604c93c4700fca6,687ed1b7e638a4cbf2f02089,68814a327dd06b9cb772bd15,,,,,,,,,,,,,67,0,,./stim/wavs/puertorican_match_declarative-broad-focus_Manuela-vende-el-carro.wav,,,,,,,,,,,,,,,,,,,,,,409.838,412.104,1,0,1.734,,0,70,70,66,1,0,puertorican,,,,,,,,,,,,,,,,,,,,,,,,,,,,,,,,,,,,,,,,,,,,,,,,,,,,,,,,
,,,,,,,,,662acd8fd604c93c4700fca6,Spanish,13 or older,"no, only English or Spanish",yes,2025-07-23_16h47.41.230,empathy_intonation_perc,2024.2.4,Win32,30.06614552,662acd8fd604c93c4700fca6,687ed1b7e638a4cbf2f02089,68814a327dd06b9cb772bd15,,,,,,,,,,,,,27,1,,./stim/wavs/castilian_mismatch_interrogative-total-yn_Mi-madre-come-la-fruta.wav,,,,,,,,,,,,,,,,,,,,,,412.104,415.371,1,1,2.74,,0,71,71,26,1,0,castilian,,,,,,,,,,,,,,,,,,,,,,,,,,,,,,,,,,,,,,,,,,,,,,,,,,,,,,,,
,,,,,,,,,662acd8fd604c93c4700fca6,Spanish,13 or older,"no, only English or Spanish",yes,2025-07-23_16h47.41.230,empathy_intonation_perc,2024.2.4,Win32,30.06614552,662acd8fd604c93c4700fca6,687ed1b7e638a4cbf2f02089,68814a327dd06b9cb772bd15,,,,,,,,,,,,,80,0,,./stim/wavs/mexican_mismatch_declarative-broad-focus_El-hombre-mira-la-luna.wav,,,,,,,,,,,,,,,,,,,,,,415.374,418.004,0,1,2.088,,0,72,72,79,1,0,mexican,,,,,,,,,,,,,,,,,,,,,,,,,,,,,,,,,,,,,,,,,,,,,,,,,,,,,,,,
,,,,,,,,,662acd8fd604c93c4700fca6,Spanish,13 or older,"no, only English or Spanish",yes,2025-07-23_16h47.41.230,empathy_intonation_perc,2024.2.4,Win32,30.06614552,662acd8fd604c93c4700fca6,687ed1b7e638a4cbf2f02089,68814a327dd06b9cb772bd15,,,,,,,,,,,,,38,1,,./stim/wavs/mexican_mismatch_interrogative-total-yn_Mi-novio-viene-del-lago.wav,,,,,,,,,,,,,,,,,,,,,,418.005,420.37,1,1,1.807,,0,73,73,37,1,0,mexican,,,,,,,,,,,,,,,,,,,,,,,,,,,,,,,,,,,,,,,,,,,,,,,,,,,,,,,,
,,,,,,,,,662acd8fd604c93c4700fca6,Spanish,13 or older,"no, only English or Spanish",yes,2025-07-23_16h47.41.230,empathy_intonation_perc,2024.2.4,Win32,30.06614552,662acd8fd604c93c4700fca6,687ed1b7e638a4cbf2f02089,68814a327dd06b9cb772bd15,,,,,,,,,,,,,10,1,,./stim/wavs/cuban_match_interrogative-total-yn_Maria-bebe-el-vino.wav,,,,,,,,,,,,,,,,,,,,,,420.371,422.97,1,1,2.056,,0,74,74,9,1,1,cuban,,,,,,,,,,,,,,,,,,,,,,,,,,,,,,,,,,,,,,,,,,,,,,,,,,,,,,,,
,,,,,,,,,662acd8fd604c93c4700fca6,Spanish,13 or older,"no, only English or Spanish",yes,2025-07-23_16h47.41.230,empathy_intonation_perc,2024.2.4,Win32,30.06614552,662acd8fd604c93c4700fca6,687ed1b7e638a4cbf2f02089,68814a327dd06b9cb772bd15,,,,,,,,,,,,,40,1,,./stim/wavs/puertorican_mismatch_interrogative-total-yn_El-hombre-mira-la-luna.wav,,,,,,,,,,,,,,,,,,,,,,422.971,425.87,1,1,2.353,,0,75,75,39,1,1,puertorican,,,,,,,,,,,,,,,,,,,,,,,,,,,,,,,,,,,,,,,,,,,,,,,,,,,,,,,,
,,,,,,,,,662acd8fd604c93c4700fca6,Spanish,13 or older,"no, only English or Spanish",yes,2025-07-23_16h47.41.230,empathy_intonation_perc,2024.2.4,Win32,30.06614552,662acd8fd604c93c4700fca6,687ed1b7e638a4cbf2f02089,68814a327dd06b9cb772bd15,,,,,,,,,,,,,31,1,,./stim/wavs/cuban_mismatch_interrogative-total-yn_El-nino-oye-el-rio.wav,,,,,,,,,,,,,,,,,,,,,,425.87,428.369,1,1,1.957,,0,76,76,30,1,1,cuban,,,,,,,,,,,,,,,,,,,,,,,,,,,,,,,,,,,,,,,,,,,,,,,,,,,,,,,,
,,,,,,,,,662acd8fd604c93c4700fca6,Spanish,13 or older,"no, only English or Spanish",yes,2025-07-23_16h47.41.230,empathy_intonation_perc,2024.2.4,Win32,30.06614552,662acd8fd604c93c4700fca6,687ed1b7e638a4cbf2f02089,68814a327dd06b9cb772bd15,,,,,,,,,,,,,57,0,,./stim/wavs/mexican_match_declarative-broad-focus_Ana-lleva-el-abrigo.wav,,,,,,,,,,,,,,,,,,,,,,428.37,430.503,1,0,1.569,,0,77,77,56,1,0,mexican,,,,,,,,,,,,,,,,,,,,,,,,,,,,,,,,,,,,,,,,,,,,,,,,,,,,,,,,
,,,,,,,,,662acd8fd604c93c4700fca6,Spanish,13 or older,"no, only English or Spanish",yes,2025-07-23_16h47.41.230,empathy_intonation_perc,2024.2.4,Win32,30.06614552,662acd8fd604c93c4700fca6,687ed1b7e638a4cbf2f02089,68814a327dd06b9cb772bd15,,,,,,,,,,,,,14,1,,./stim/wavs/mexican_match_interrogative-total-yn_Daniel-iba-a-Bolivia.wav,,,,,,,,,,,,,,,,,,,,,,430.503,432.902,1,1,1.895,,0,78,78,13,1,0,mexican,,,,,,,,,,,,,,,,,,,,,,,,,,,,,,,,,,,,,,,,,,,,,,,,,,,,,,,,
,,,,,,,,,662acd8fd604c93c4700fca6,Spanish,13 or older,"no, only English or Spanish",yes,2025-07-23_16h47.41.230,empathy_intonation_perc,2024.2.4,Win32,30.06614552,662acd8fd604c93c4700fca6,687ed1b7e638a4cbf2f02089,68814a327dd06b9cb772bd15,,,,,,,,,,,,,62,0,,./stim/wavs/mexican_match_declarative-broad-focus_Marta-abre-el-regalo.wav,,,,,,,,,,,,,,,,,,,,,,432.903,435.569,0,1,2.157,,0,79,79,61,1,0,mexican,,,,,,,,,,,,,,,,,,,,,,,,,,,,,,,,,,,,,,,,,,,,,,,,,,,,,,,,
,,,,,,,,,662acd8fd604c93c4700fca6,Spanish,13 or older,"no, only English or Spanish",yes,2025-07-23_16h47.41.230,empathy_intonation_perc,2024.2.4,Win32,30.06614552,662acd8fd604c93c4700fca6,687ed1b7e638a4cbf2f02089,68814a327dd06b9cb772bd15,,,,,,,,,,,,,21,1,,./stim/wavs/puertorican_match_interrogative-total-yn_David-leia-el-libro.wav,,,,,,,,,,,,,,,,,,,,,,435.569,437.602,1,1,1.502,,0,80,80,20,1,1,puertorican,,,,,,,,,,,,,,,,,,,,,,,,,,,,,,,,,,,,,,,,,,,,,,,,,,,,,,,,
,,,,,,,,,662acd8fd604c93c4700fca6,Spanish,13 or older,"no, only English or Spanish",yes,2025-07-23_16h47.41.230,empathy_intonation_perc,2024.2.4,Win32,30.06614552,662acd8fd604c93c4700fca6,687ed1b7e638a4cbf2f02089,68814a327dd06b9cb772bd15,,,,,,,,,,,,,65,0,,./stim/wavs/puertorican_match_declarative-broad-focus_David-leia-el-libro.wav,,,,,,,,,,,,,,,,,,,,,,437.602,439.569,1,0,1.459,,0,81,81,64,1,0,puertorican,,,,,,,,,,,,,,,,,,,,,,,,,,,,,,,,,,,,,,,,,,,,,,,,,,,,,,,,
,,,,,,,,,662acd8fd604c93c4700fca6,Spanish,13 or older,"no, only English or Spanish",yes,2025-07-23_16h47.41.230,empathy_intonation_perc,2024.2.4,Win32,30.06614552,662acd8fd604c93c4700fca6,687ed1b7e638a4cbf2f02089,68814a327dd06b9cb772bd15,,,,,,,,,,,,,16,1,,./stim/wavs/mexican_match_interrogative-total-yn_Emilio-ama-la-marcha.wav,,,,,,,,,,,,,,,,,,,,,,439.569,442.002,0,0,1.901,,0,82,82,15,1,0,mexican,,,,,,,,,,,,,,,,,,,,,,,,,,,,,,,,,,,,,,,,,,,,,,,,,,,,,,,,
,,,,,,,,,662acd8fd604c93c4700fca6,Spanish,13 or older,"no, only English or Spanish",yes,2025-07-23_16h47.41.230,empathy_intonation_perc,2024.2.4,Win32,30.06614552,662acd8fd604c93c4700fca6,687ed1b7e638a4cbf2f02089,68814a327dd06b9cb772bd15,,,,,,,,,,,,,35,1,,./stim/wavs/mexican_mismatch_interrogative-total-yn_El-hombre-mira-la-luna.wav,,,,,,,,,,,,,,,,,,,,,,442.002,444.902,1,1,2.362,,0,83,83,34,1,0,mexican,,,,,,,,,,,,,,,,,,,,,,,,,,,,,,,,,,,,,,,,,,,,,,,,,,,,,,,,
,,,,,,,,,662acd8fd604c93c4700fca6,Spanish,13 or older,"no, only English or Spanish",yes,2025-07-23_16h47.41.230,empathy_intonation_perc,2024.2.4,Win32,30.06614552,662acd8fd604c93c4700fca6,687ed1b7e638a4cbf2f02089,68814a327dd06b9cb772bd15,,,,,,,,,,,,,37,1,,./stim/wavs/mexican_mismatch_interrogative-total-yn_La-maestra-vive-en-Paris.wav,,,,,,,,,,,,,,,,,,,,,,444.903,448.002,1,1,2.534,,0,84,84,36,1,0,mexican,,,,,,,,,,,,,,,,,,,,,,,,,,,,,,,,,,,,,,,,,,,,,,,,,,,,,,,,
,,,,,,,,,662acd8fd604c93c4700fca6,Spanish,13 or older,"no, only English or Spanish",yes,2025-07-23_16h47.41.230,empathy_intonation_perc,2024.2.4,Win32,30.06614552,662acd8fd604c93c4700fca6,687ed1b7e638a4cbf2f02089,68814a327dd06b9cb772bd15,,,,,,,,,,,,,87,0,,./stim/wavs/puertorican_mismatch_declarative-broad-focus_La-maestra-vive-en-Paris.wav,,,,,,,,,,,,,,,,,,,,,,448.005,451.401,1,0,2.855,,0,85,85,86,1,0,puertorican,,,,,,,,,,,,,,,,,,,,,,,,,,,,,,,,,,,,,,,,,,,,,,,,,,,,,,,,
,,,,,,,,,662acd8fd604c93c4700fca6,Spanish,13 or older,"no, only English or Spanish",yes,2025-07-23_16h47.41.230,empathy_intonation_perc,2024.2.4,Win32,30.06614552,662acd8fd604c93c4700fca6,687ed1b7e638a4cbf2f02089,68814a327dd06b9cb772bd15,,,,,,,,,,,,,34,1,,./stim/wavs/cuban_mismatch_interrogative-total-yn_Mi-tia-odia-la-lluvia.wav,,,,,,,,,,,,,,,,,,,,,,451.402,453.901,0,0,1.987,,0,86,86,33,1,1,cuban,,,,,,,,,,,,,,,,,,,,,,,,,,,,,,,,,,,,,,,,,,,,,,,,,,,,,,,,
,,,,,,,,,662acd8fd604c93c4700fca6,Spanish,13 or older,"no, only English or Spanish",yes,2025-07-23_16h47.41.230,empathy_intonation_perc,2024.2.4,Win32,30.06614552,662acd8fd604c93c4700fca6,687ed1b7e638a4cbf2f02089,68814a327dd06b9cb772bd15,,,,,,,,,,,,,13,1,,./stim/wavs/mexican_match_interrogative-total-yn_Ana-lleva-el-abrigo.wav,,,,,,,,,,,,,,,,,,,,,,453.902,456.702,1,1,2.241,,0,87,87,12,1,0,mexican,,,,,,,,,,,,,,,,,,,,,,,,,,,,,,,,,,,,,,,,,,,,,,,,,,,,,,,,
,,,,,,,"Great! Now we will move on. The next task consists of about 60 trials, in each of which you will see a string of letters. 
  
  Your task is to decide whether this is a real Spanish word or not.", (press the spacebar to continue),662acd8fd604c93c4700fca6,Spanish,13 or older,"no, only English or Spanish",yes,2025-07-23_16h47.41.230,empathy_intonation_perc,2024.2.4,Win32,30.06614552,662acd8fd604c93c4700fca6,687ed1b7e638a4cbf2f02089,68814a327dd06b9cb772bd15,,,,,,,,,,,,,,,,,,,,,,,,,,,,,,,,,,,,,,,,,,,,,,,,,,,456.712,465.5,0,0,0,0,1,,,,,,,,,,,,,,,,,,,,,,,,,,,,,,,,,,,,,,,,,,,,,,,,,
,,,,,,,"If you think it is an existing Spanish word, you type '1' (for 'REAL'), and if you think it is not an existing Spanish word, you type '0' (for 'FAKE').", (press the spacebar to continue),662acd8fd604c93c4700fca6,Spanish,13 or older,"no, only English or Spanish",yes,2025-07-23_16h47.41.230,empathy_intonation_perc,2024.2.4,Win32,30.06614552,662acd8fd604c93c4700fca6,687ed1b7e638a4cbf2f02089,68814a327dd06b9cb772bd15,,,,,,,,,,,,,,,,,,,,,,,,,,,,,,,,,,,,,,,,,,,,,,,,,,,465.502,470.533,0,1,1,1,1,,,,,,,,,,,,,,,,,,,,,,,,,,,,,,,,,,,,,,,,,,,,,,,,,
,,,,,,,"If you are sure that the word exists, even though you don’t know its exact meaning, you may still respond '1' (REAL). 
  
  But if you are not sure if it is an existing word, you should respond '0' (FAKE).
  
  Let's do a practice round...", (press the spacebar to continue),662acd8fd604c93c4700fca6,Spanish,13 or older,"no, only English or Spanish",yes,2025-07-23_16h47.41.230,empathy_intonation_perc,2024.2.4,Win32,30.06614552,662acd8fd604c93c4700fca6,687ed1b7e638a4cbf2f02089,68814a327dd06b9cb772bd15,,,,,,,,,,,,,,,,,,,,,,,,,,,,,,,,,,,,,,,,,,,,,,,,,,,470.535,480.232,0,2,2,2,1,,,,,,,,,,,,,,,,,,,,,,,,,,,,,,,,,,,,,,,,,,,,,,,,,
,,,,,,,,,662acd8fd604c93c4700fca6,Spanish,13 or older,"no, only English or Spanish",yes,2025-07-23_16h47.41.230,empathy_intonation_perc,2024.2.4,Win32,30.06614552,662acd8fd604c93c4700fca6,687ed1b7e638a4cbf2f02089,68814a327dd06b9cb772bd15,,,,,,,,,,,,,,0,,,,,,,,,,,,,,,,,,,,,,,,,,,,,,,,,,,,,,,,,,,,480.237,482.966,0,1,2.153,,482.966,483.966,0,0,0,0,1,0,depiste,REAL,FAKE,,,,,,,,,,,,,,,,,,,,,,,,,,,,,,,,
,,,,,,,,,662acd8fd604c93c4700fca6,Spanish,13 or older,"no, only English or Spanish",yes,2025-07-23_16h47.41.230,empathy_intonation_perc,2024.2.4,Win32,30.06614552,662acd8fd604c93c4700fca6,687ed1b7e638a4cbf2f02089,68814a327dd06b9cb772bd15,,,,,,,,,,,,,,1,,,,,,,,,,,,,,,,,,,,,,,,,,,,,,,,,,,,,,,,,,,,483.968,485.966,1,1,1.447,,485.966,486.965,0,1,1,1,1,0,sí,REAL,FAKE,,,,,,,,,,,,,,,,,,,,,,,,,,,,,,,,
,,,,,,,,,662acd8fd604c93c4700fca6,Spanish,13 or older,"no, only English or Spanish",yes,2025-07-23_16h47.41.230,empathy_intonation_perc,2024.2.4,Win32,30.06614552,662acd8fd604c93c4700fca6,687ed1b7e638a4cbf2f02089,68814a327dd06b9cb772bd15,,,,,,,,,,,,,,0,,,,,,,,,,,,,,,,,,,,,,,,,,,,,,,,,,,,,,,,,,,,486.967,488.732,1,0,1.232,,488.733,489.733,0,2,2,2,1,0,coné,REAL,FAKE,,,,,,,,,,,,,,,,,,,,,,,,,,,,,,,,
,,,,,,,,,662acd8fd604c93c4700fca6,Spanish,13 or older,"no, only English or Spanish",yes,2025-07-23_16h47.41.230,empathy_intonation_perc,2024.2.4,Win32,30.06614552,662acd8fd604c93c4700fca6,687ed1b7e638a4cbf2f02089,68814a327dd06b9cb772bd15,,,,,,,,,,,,,,0,,,,,,,,,,,,,,,,,,,,,,,,,,,,,,,,,,,,,,,,,,,,489.734,491.398,1,0,1.089,,491.398,492.398,0,3,3,3,1,0,calpar,REAL,FAKE,,,,,,,,,,,,,,,,,,,,,,,,,,,,,,,,
,,,,,,,,,662acd8fd604c93c4700fca6,Spanish,13 or older,"no, only English or Spanish",yes,2025-07-23_16h47.41.230,empathy_intonation_perc,2024.2.4,Win32,30.06614552,662acd8fd604c93c4700fca6,687ed1b7e638a4cbf2f02089,68814a327dd06b9cb772bd15,,,,,,,,,,,,,,0,,,,,,,,,,,,,,,,,,,,,,,,,,,,,,,,,,,,,,,,,,,,492.399,494.299,1,0,1.365,,494.299,495.298,0,4,4,4,1,0,joten,REAL,FAKE,,,,,,,,,,,,,,,,,,,,,,,,,,,,,,,,
,,,,,,,,,662acd8fd604c93c4700fca6,Spanish,13 or older,"no, only English or Spanish",yes,2025-07-23_16h47.41.230,empathy_intonation_perc,2024.2.4,Win32,30.06614552,662acd8fd604c93c4700fca6,687ed1b7e638a4cbf2f02089,68814a327dd06b9cb772bd15,,,,,,,,,,,,,,1,,,,,,,,,,,,,,,,,,,,,,,,,,,,,,,,,,,,,,,,,,,,495.299,496.832,0,0,0.973,,496.832,497.831,0,5,5,5,1,0,sacapuntas,REAL,FAKE,,,,,,,,,,,,,,,,,,,,,,,,,,,,,,,,
,,,,,,,,,662acd8fd604c93c4700fca6,Spanish,13 or older,"no, only English or Spanish",yes,2025-07-23_16h47.41.230,empathy_intonation_perc,2024.2.4,Win32,30.06614552,662acd8fd604c93c4700fca6,687ed1b7e638a4cbf2f02089,68814a327dd06b9cb772bd15,,,,,,,,,,,,,,0,,,,,,,,,,,,,,,,,,,,,,,,,,,,,,,,,,,,,,,,,,,,497.832,499.265,1,0,0.855,,499.265,500.265,0,6,6,6,1,0,priba,REAL,FAKE,,,,,,,,,,,,,,,,,,,,,,,,,,,,,,,,
,,,,,,,,,662acd8fd604c93c4700fca6,Spanish,13 or older,"no, only English or Spanish",yes,2025-07-23_16h47.41.230,empathy_intonation_perc,2024.2.4,Win32,30.06614552,662acd8fd604c93c4700fca6,687ed1b7e638a4cbf2f02089,68814a327dd06b9cb772bd15,,,,,,,,,,,,,,0,,,,,,,,,,,,,,,,,,,,,,,,,,,,,,,,,,,,,,,,,,,,500.265,501.931,1,0,1.1,,501.931,502.931,0,7,7,7,1,0,pelasula,REAL,FAKE,,,,,,,,,,,,,,,,,,,,,,,,,,,,,,,,
,,,,,,,,,662acd8fd604c93c4700fca6,Spanish,13 or older,"no, only English or Spanish",yes,2025-07-23_16h47.41.230,empathy_intonation_perc,2024.2.4,Win32,30.06614552,662acd8fd604c93c4700fca6,687ed1b7e638a4cbf2f02089,68814a327dd06b9cb772bd15,,,,,,,,,,,,,,1,,,,,,,,,,,,,,,,,,,,,,,,,,,,,,,,,,,,,,,,,,,,502.932,504.298,1,1,0.81,,504.298,505.297,0,8,8,8,1,0,bien,REAL,FAKE,,,,,,,,,,,,,,,,,,,,,,,,,,,,,,,,
,,,,,,,,,662acd8fd604c93c4700fca6,Spanish,13 or older,"no, only English or Spanish",yes,2025-07-23_16h47.41.230,empathy_intonation_perc,2024.2.4,Win32,30.06614552,662acd8fd604c93c4700fca6,687ed1b7e638a4cbf2f02089,68814a327dd06b9cb772bd15,,,,,,,,,,,,,,1,,,,,,,,,,,,,,,,,,,,,,,,,,,,,,,,,,,,,,,,,,,,505.298,506.664,1,1,0.849,,506.664,507.664,0,9,9,9,1,0,casa,REAL,FAKE,,,,,,,,,,,,,,,,,,,,,,,,,,,,,,,,
,,,,,,,,,662acd8fd604c93c4700fca6,Spanish,13 or older,"no, only English or Spanish",yes,2025-07-23_16h47.41.230,empathy_intonation_perc,2024.2.4,Win32,30.06614552,662acd8fd604c93c4700fca6,687ed1b7e638a4cbf2f02089,68814a327dd06b9cb772bd15,,,,,,,,,,,,,,0,,,,,,,,,,,,,,,,,,,,,,,,,,,,,,,,,,,,,,,,,,,,507.665,509.264,1,0,1.056,,509.265,510.263,0,10,10,10,1,0,lejo,REAL,FAKE,,,,,,,,,,,,,,,,,,,,,,,,,,,,,,,,
,,,,,,,,,662acd8fd604c93c4700fca6,Spanish,13 or older,"no, only English or Spanish",yes,2025-07-23_16h47.41.230,empathy_intonation_perc,2024.2.4,Win32,30.06614552,662acd8fd604c93c4700fca6,687ed1b7e638a4cbf2f02089,68814a327dd06b9cb772bd15,,,,,,,,,,,,,,0,,,,,,,,,,,,,,,,,,,,,,,,,,,,,,,,,,,,,,,,,,,,510.265,512.064,1,0,1.258,,512.064,513.064,0,11,11,11,1,0,pretantas,REAL,FAKE,,,,,,,,,,,,,,,,,,,,,,,,,,,,,,,,
,,,,,,,,,662acd8fd604c93c4700fca6,Spanish,13 or older,"no, only English or Spanish",yes,2025-07-23_16h47.41.230,empathy_intonation_perc,2024.2.4,Win32,30.06614552,662acd8fd604c93c4700fca6,687ed1b7e638a4cbf2f02089,68814a327dd06b9cb772bd15,,,,,,,,,,,,,,,,,,,,,,,,,,,,,,,,,,,,,,,,,,,,,,,,,,,,,,,,,,,,,,,,,,,,,,,,,,,513.064,516.097,,,,,,,,,,,,,,,,,,,,,,,,,,,,,,
,,,,,,,,,662acd8fd604c93c4700fca6,Spanish,13 or older,"no, only English or Spanish",yes,2025-07-23_16h47.41.230,empathy_intonation_perc,2024.2.4,Win32,30.06614552,662acd8fd604c93c4700fca6,687ed1b7e638a4cbf2f02089,68814a327dd06b9cb772bd15,,,,,,,,,,,,,,0,,,,,,,,,,,,,,,,,,,,,,,,,,,,,,,,,,,,,,,,,,,,,,,,,,,,,,,,,50,flamida,,,,,516.112,518.03,1,0,1.387,,0,0,0,49,1,REAL,FAKE,,,,,,,,,,,,,,,,,
,,,,,,,,,662acd8fd604c93c4700fca6,Spanish,13 or older,"no, only English or Spanish",yes,2025-07-23_16h47.41.230,empathy_intonation_perc,2024.2.4,Win32,30.06614552,662acd8fd604c93c4700fca6,687ed1b7e638a4cbf2f02089,68814a327dd06b9cb772bd15,,,,,,,,,,,,,,0,,,,,,,,,,,,,,,,,,,,,,,,,,,,,,,,,,,,,,,,,,,,,,,,,,,,,,,,,47,cartinar,,,,,518.031,520.03,1,0,1.455,,0,1,1,46,1,REAL,FAKE,,,,,,,,,,,,,,,,,
,,,,,,,,,662acd8fd604c93c4700fca6,Spanish,13 or older,"no, only English or Spanish",yes,2025-07-23_16h47.41.230,empathy_intonation_perc,2024.2.4,Win32,30.06614552,662acd8fd604c93c4700fca6,687ed1b7e638a4cbf2f02089,68814a327dd06b9cb772bd15,,,,,,,,,,,,,,1,,,,,,,,,,,,,,,,,,,,,,,,,,,,,,,,,,,,,,,,,,,,,,,,,,,,,,,,,44,cuchara,,,,,520.031,522.097,0,0,1.542,,0,2,2,43,1,REAL,FAKE,,,,,,,,,,,,,,,,,
,,,,,,,,,662acd8fd604c93c4700fca6,Spanish,13 or older,"no, only English or Spanish",yes,2025-07-23_16h47.41.230,empathy_intonation_perc,2024.2.4,Win32,30.06614552,662acd8fd604c93c4700fca6,687ed1b7e638a4cbf2f02089,68814a327dd06b9cb772bd15,,,,,,,,,,,,,,1,,,,,,,,,,,,,,,,,,,,,,,,,,,,,,,,,,,,,,,,,,,,,,,,,,,,,,,,,36,loro,,,,,522.098,524.096,1,1,1.449,,0,3,3,35,1,REAL,FAKE,,,,,,,,,,,,,,,,,
,,,,,,,,,662acd8fd604c93c4700fca6,Spanish,13 or older,"no, only English or Spanish",yes,2025-07-23_16h47.41.230,empathy_intonation_perc,2024.2.4,Win32,30.06614552,662acd8fd604c93c4700fca6,687ed1b7e638a4cbf2f02089,68814a327dd06b9cb772bd15,,,,,,,,,,,,,,0,,,,,,,,,,,,,,,,,,,,,,,,,,,,,,,,,,,,,,,,,,,,,,,,,,,,,,,,,72,pemición,,,,,524.097,525.63,1,0,1.001,,0,4,4,71,1,REAL,FAKE,,,,,,,,,,,,,,,,,
,,,,,,,,,662acd8fd604c93c4700fca6,Spanish,13 or older,"no, only English or Spanish",yes,2025-07-23_16h47.41.230,empathy_intonation_perc,2024.2.4,Win32,30.06614552,662acd8fd604c93c4700fca6,687ed1b7e638a4cbf2f02089,68814a327dd06b9cb772bd15,,,,,,,,,,,,,,1,,,,,,,,,,,,,,,,,,,,,,,,,,,,,,,,,,,,,,,,,,,,,,,,,,,,,,,,,43,canela,,,,,525.631,527.096,1,1,0.928,,0,5,5,42,1,REAL,FAKE,,,,,,,,,,,,,,,,,
,,,,,,,,,662acd8fd604c93c4700fca6,Spanish,13 or older,"no, only English or Spanish",yes,2025-07-23_16h47.41.230,empathy_intonation_perc,2024.2.4,Win32,30.06614552,662acd8fd604c93c4700fca6,687ed1b7e638a4cbf2f02089,68814a327dd06b9cb772bd15,,,,,,,,,,,,,,1,,,,,,,,,,,,,,,,,,,,,,,,,,,,,,,,,,,,,,,,,,,,,,,,,,,,,,,,,38,estornudar,,,,,527.096,528.696,1,1,1.06,,0,6,6,37,1,REAL,FAKE,,,,,,,,,,,,,,,,,
,,,,,,,,,662acd8fd604c93c4700fca6,Spanish,13 or older,"no, only English or Spanish",yes,2025-07-23_16h47.41.230,empathy_intonation_perc,2024.2.4,Win32,30.06614552,662acd8fd604c93c4700fca6,687ed1b7e638a4cbf2f02089,68814a327dd06b9cb772bd15,,,,,,,,,,,,,,1,,,,,,,,,,,,,,,,,,,,,,,,,,,,,,,,,,,,,,,,,,,,,,,,,,,,,,,,,56,musgo,,,,,528.697,530.362,0,0,1.102,,0,7,7,55,1,REAL,FAKE,,,,,,,,,,,,,,,,,
,,,,,,,,,662acd8fd604c93c4700fca6,Spanish,13 or older,"no, only English or Spanish",yes,2025-07-23_16h47.41.230,empathy_intonation_perc,2024.2.4,Win32,30.06614552,662acd8fd604c93c4700fca6,687ed1b7e638a4cbf2f02089,68814a327dd06b9cb772bd15,,,,,,,,,,,,,,1,,,,,,,,,,,,,,,,,,,,,,,,,,,,,,,,,,,,,,,,,,,,,,,,,,,,,,,,,88,acantilado,,,,,530.363,531.995,1,1,1.066,,0,8,8,87,1,REAL,FAKE,,,,,,,,,,,,,,,,,
,,,,,,,,,662acd8fd604c93c4700fca6,Spanish,13 or older,"no, only English or Spanish",yes,2025-07-23_16h47.41.230,empathy_intonation_perc,2024.2.4,Win32,30.06614552,662acd8fd604c93c4700fca6,687ed1b7e638a4cbf2f02089,68814a327dd06b9cb772bd15,,,,,,,,,,,,,,1,,,,,,,,,,,,,,,,,,,,,,,,,,,,,,,,,,,,,,,,,,,,,,,,,,,,,,,,,54,fomentar,,,,,531.996,533.795,1,1,1.268,,0,9,9,53,1,REAL,FAKE,,,,,,,,,,,,,,,,,
,,,,,,,,,662acd8fd604c93c4700fca6,Spanish,13 or older,"no, only English or Spanish",yes,2025-07-23_16h47.41.230,empathy_intonation_perc,2024.2.4,Win32,30.06614552,662acd8fd604c93c4700fca6,687ed1b7e638a4cbf2f02089,68814a327dd06b9cb772bd15,,,,,,,,,,,,,,1,,,,,,,,,,,,,,,,,,,,,,,,,,,,,,,,,,,,,,,,,,,,,,,,,,,,,,,,,51,candado,,,,,533.796,535.296,1,1,0.928,,0,10,10,50,1,REAL,FAKE,,,,,,,,,,,,,,,,,
,,,,,,,,,662acd8fd604c93c4700fca6,Spanish,13 or older,"no, only English or Spanish",yes,2025-07-23_16h47.41.230,empathy_intonation_perc,2024.2.4,Win32,30.06614552,662acd8fd604c93c4700fca6,687ed1b7e638a4cbf2f02089,68814a327dd06b9cb772bd15,,,,,,,,,,,,,,0,,,,,,,,,,,,,,,,,,,,,,,,,,,,,,,,,,,,,,,,,,,,,,,,,,,,,,,,,8,cadeña,,,,,535.296,536.895,1,0,1.039,,0,11,11,7,1,REAL,FAKE,,,,,,,,,,,,,,,,,
,,,,,,,,,662acd8fd604c93c4700fca6,Spanish,13 or older,"no, only English or Spanish",yes,2025-07-23_16h47.41.230,empathy_intonation_perc,2024.2.4,Win32,30.06614552,662acd8fd604c93c4700fca6,687ed1b7e638a4cbf2f02089,68814a327dd06b9cb772bd15,,,,,,,,,,,,,,1,,,,,,,,,,,,,,,,,,,,,,,,,,,,,,,,,,,,,,,,,,,,,,,,,,,,,,,,,34,aviso,,,,,536.896,538.829,0,0,1.38,,0,12,12,33,1,REAL,FAKE,,,,,,,,,,,,,,,,,
,,,,,,,,,662acd8fd604c93c4700fca6,Spanish,13 or older,"no, only English or Spanish",yes,2025-07-23_16h47.41.230,empathy_intonation_perc,2024.2.4,Win32,30.06614552,662acd8fd604c93c4700fca6,687ed1b7e638a4cbf2f02089,68814a327dd06b9cb772bd15,,,,,,,,,,,,,,0,,,,,,,,,,,,,,,,,,,,,,,,,,,,,,,,,,,,,,,,,,,,,,,,,,,,,,,,,19,brecedad,,,,,538.829,540.995,0,1,1.618,,0,13,13,18,1,REAL,FAKE,,,,,,,,,,,,,,,,,
,,,,,,,,,662acd8fd604c93c4700fca6,Spanish,13 or older,"no, only English or Spanish",yes,2025-07-23_16h47.41.230,empathy_intonation_perc,2024.2.4,Win32,30.06614552,662acd8fd604c93c4700fca6,687ed1b7e638a4cbf2f02089,68814a327dd06b9cb772bd15,,,,,,,,,,,,,,0,,,,,,,,,,,,,,,,,,,,,,,,,,,,,,,,,,,,,,,,,,,,,,,,,,,,,,,,,17,floroso,,,,,540.996,542.861,0,1,1.295,,0,14,14,16,1,REAL,FAKE,,,,,,,,,,,,,,,,,
,,,,,,,,,662acd8fd604c93c4700fca6,Spanish,13 or older,"no, only English or Spanish",yes,2025-07-23_16h47.41.230,empathy_intonation_perc,2024.2.4,Win32,30.06614552,662acd8fd604c93c4700fca6,687ed1b7e638a4cbf2f02089,68814a327dd06b9cb772bd15,,,,,,,,,,,,,,1,,,,,,,,,,,,,,,,,,,,,,,,,,,,,,,,,,,,,,,,,,,,,,,,,,,,,,,,,25,bisagra,,,,,542.862,544.428,1,1,0.995,,0,15,15,24,1,REAL,FAKE,,,,,,,,,,,,,,,,,
,,,,,,,,,662acd8fd604c93c4700fca6,Spanish,13 or older,"no, only English or Spanish",yes,2025-07-23_16h47.41.230,empathy_intonation_perc,2024.2.4,Win32,30.06614552,662acd8fd604c93c4700fca6,687ed1b7e638a4cbf2f02089,68814a327dd06b9cb772bd15,,,,,,,,,,,,,,1,,,,,,,,,,,,,,,,,,,,,,,,,,,,,,,,,,,,,,,,,,,,,,,,,,,,,,,,,75,yacer,,,,,544.429,546.062,0,0,1.09,,0,16,16,74,1,REAL,FAKE,,,,,,,,,,,,,,,,,
,,,,,,,,,662acd8fd604c93c4700fca6,Spanish,13 or older,"no, only English or Spanish",yes,2025-07-23_16h47.41.230,empathy_intonation_perc,2024.2.4,Win32,30.06614552,662acd8fd604c93c4700fca6,687ed1b7e638a4cbf2f02089,68814a327dd06b9cb772bd15,,,,,,,,,,,,,,1,,,,,,,,,,,,,,,,,,,,,,,,,,,,,,,,,,,,,,,,,,,,,,,,,,,,,,,,,81,pozo,,,,,546.063,547.628,1,1,1.015,,0,17,17,80,1,REAL,FAKE,,,,,,,,,,,,,,,,,
,,,,,,,,,662acd8fd604c93c4700fca6,Spanish,13 or older,"no, only English or Spanish",yes,2025-07-23_16h47.41.230,empathy_intonation_perc,2024.2.4,Win32,30.06614552,662acd8fd604c93c4700fca6,687ed1b7e638a4cbf2f02089,68814a327dd06b9cb772bd15,,,,,,,,,,,,,,0,,,,,,,,,,,,,,,,,,,,,,,,,,,,,,,,,,,,,,,,,,,,,,,,,,,,,,,,,32,fatacidad,,,,,547.63,549.361,1,0,1.182,,0,18,18,31,1,REAL,FAKE,,,,,,,,,,,,,,,,,
,,,,,,,,,662acd8fd604c93c4700fca6,Spanish,13 or older,"no, only English or Spanish",yes,2025-07-23_16h47.41.230,empathy_intonation_perc,2024.2.4,Win32,30.06614552,662acd8fd604c93c4700fca6,687ed1b7e638a4cbf2f02089,68814a327dd06b9cb772bd15,,,,,,,,,,,,,,1,,,,,,,,,,,,,,,,,,,,,,,,,,,,,,,,,,,,,,,,,,,,,,,,,,,,,,,,,86,barato,,,,,549.361,551.028,0,0,1.138,,0,19,19,85,1,REAL,FAKE,,,,,,,,,,,,,,,,,
,,,,,,,,,662acd8fd604c93c4700fca6,Spanish,13 or older,"no, only English or Spanish",yes,2025-07-23_16h47.41.230,empathy_intonation_perc,2024.2.4,Win32,30.06614552,662acd8fd604c93c4700fca6,687ed1b7e638a4cbf2f02089,68814a327dd06b9cb772bd15,,,,,,,,,,,,,,1,,,,,,,,,,,,,,,,,,,,,,,,,,,,,,,,,,,,,,,,,,,,,,,,,,,,,,,,,11,cenefa,,,,,551.029,552.561,1,1,0.966,,0,20,20,10,1,REAL,FAKE,,,,,,,,,,,,,,,,,
,,,,,,,,,662acd8fd604c93c4700fca6,Spanish,13 or older,"no, only English or Spanish",yes,2025-07-23_16h47.41.230,empathy_intonation_perc,2024.2.4,Win32,30.06614552,662acd8fd604c93c4700fca6,687ed1b7e638a4cbf2f02089,68814a327dd06b9cb772bd15,,,,,,,,,,,,,,1,,,,,,,,,,,,,,,,,,,,,,,,,,,,,,,,,,,,,,,,,,,,,,,,,,,,,,,,,57,tacaño,,,,,552.562,553.994,1,1,0.869,,0,21,21,56,1,REAL,FAKE,,,,,,,,,,,,,,,,,
,,,,,,,,,662acd8fd604c93c4700fca6,Spanish,13 or older,"no, only English or Spanish",yes,2025-07-23_16h47.41.230,empathy_intonation_perc,2024.2.4,Win32,30.06614552,662acd8fd604c93c4700fca6,687ed1b7e638a4cbf2f02089,68814a327dd06b9cb772bd15,,,,,,,,,,,,,,1,,,,,,,,,,,,,,,,,,,,,,,,,,,,,,,,,,,,,,,,,,,,,,,,,,,,,,,,,7,pésimo,,,,,553.994,555.393,1,1,0.864,,0,22,22,6,1,REAL,FAKE,,,,,,,,,,,,,,,,,
,,,,,,,,,662acd8fd604c93c4700fca6,Spanish,13 or older,"no, only English or Spanish",yes,2025-07-23_16h47.41.230,empathy_intonation_perc,2024.2.4,Win32,30.06614552,662acd8fd604c93c4700fca6,687ed1b7e638a4cbf2f02089,68814a327dd06b9cb772bd15,,,,,,,,,,,,,,1,,,,,,,,,,,,,,,,,,,,,,,,,,,,,,,,,,,,,,,,,,,,,,,,,,,,,,,,,48,ladrón,,,,,555.395,556.828,1,1,0.876,,0,23,23,47,1,REAL,FAKE,,,,,,,,,,,,,,,,,
,,,,,,,,,662acd8fd604c93c4700fca6,Spanish,13 or older,"no, only English or Spanish",yes,2025-07-23_16h47.41.230,empathy_intonation_perc,2024.2.4,Win32,30.06614552,662acd8fd604c93c4700fca6,687ed1b7e638a4cbf2f02089,68814a327dd06b9cb772bd15,,,,,,,,,,,,,,1,,,,,,,,,,,,,,,,,,,,,,,,,,,,,,,,,,,,,,,,,,,,,,,,,,,,,,,,,5,zapato,,,,,556.829,558.461,0,0,1.075,,0,24,24,4,1,REAL,FAKE,,,,,,,,,,,,,,,,,
,,,,,,,,,662acd8fd604c93c4700fca6,Spanish,13 or older,"no, only English or Spanish",yes,2025-07-23_16h47.41.230,empathy_intonation_perc,2024.2.4,Win32,30.06614552,662acd8fd604c93c4700fca6,687ed1b7e638a4cbf2f02089,68814a327dd06b9cb772bd15,,,,,,,,,,,,,,1,,,,,,,,,,,,,,,,,,,,,,,,,,,,,,,,,,,,,,,,,,,,,,,,,,,,,,,,,6,tergiversar,,,,,558.461,560.394,0,0,1.389,,0,25,25,5,1,REAL,FAKE,,,,,,,,,,,,,,,,,
,,,,,,,,,662acd8fd604c93c4700fca6,Spanish,13 or older,"no, only English or Spanish",yes,2025-07-23_16h47.41.230,empathy_intonation_perc,2024.2.4,Win32,30.06614552,662acd8fd604c93c4700fca6,687ed1b7e638a4cbf2f02089,68814a327dd06b9cb772bd15,,,,,,,,,,,,,,1,,,,,,,,,,,,,,,,,,,,,,,,,,,,,,,,,,,,,,,,,,,,,,,,,,,,,,,,,62,flaco,,,,,560.395,561.96,1,1,1.015,,0,26,26,61,1,REAL,FAKE,,,,,,,,,,,,,,,,,
,,,,,,,,,662acd8fd604c93c4700fca6,Spanish,13 or older,"no, only English or Spanish",yes,2025-07-23_16h47.41.230,empathy_intonation_perc,2024.2.4,Win32,30.06614552,662acd8fd604c93c4700fca6,687ed1b7e638a4cbf2f02089,68814a327dd06b9cb772bd15,,,,,,,,,,,,,,0,,,,,,,,,,,,,,,,,,,,,,,,,,,,,,,,,,,,,,,,,,,,,,,,,,,,,,,,,29,decar,,,,,561.96,563.56,1,0,1.092,,0,27,27,28,1,REAL,FAKE,,,,,,,,,,,,,,,,,
,,,,,,,,,662acd8fd604c93c4700fca6,Spanish,13 or older,"no, only English or Spanish",yes,2025-07-23_16h47.41.230,empathy_intonation_perc,2024.2.4,Win32,30.06614552,662acd8fd604c93c4700fca6,687ed1b7e638a4cbf2f02089,68814a327dd06b9cb772bd15,,,,,,,,,,,,,,1,,,,,,,,,,,,,,,,,,,,,,,,,,,,,,,,,,,,,,,,,,,,,,,,,,,,,,,,,40,alfombra,,,,,563.561,565.526,0,0,1.426,,0,28,28,39,1,REAL,FAKE,,,,,,,,,,,,,,,,,
,,,,,,,,,662acd8fd604c93c4700fca6,Spanish,13 or older,"no, only English or Spanish",yes,2025-07-23_16h47.41.230,empathy_intonation_perc,2024.2.4,Win32,30.06614552,662acd8fd604c93c4700fca6,687ed1b7e638a4cbf2f02089,68814a327dd06b9cb772bd15,,,,,,,,,,,,,,0,,,,,,,,,,,,,,,,,,,,,,,,,,,,,,,,,,,,,,,,,,,,,,,,,,,,,,,,,84,escuto,,,,,565.527,567.126,0,1,1.073,,0,29,29,83,1,REAL,FAKE,,,,,,,,,,,,,,,,,
,,,,,,,,,662acd8fd604c93c4700fca6,Spanish,13 or older,"no, only English or Spanish",yes,2025-07-23_16h47.41.230,empathy_intonation_perc,2024.2.4,Win32,30.06614552,662acd8fd604c93c4700fca6,687ed1b7e638a4cbf2f02089,68814a327dd06b9cb772bd15,,,,,,,,,,,,,,1,,,,,,,,,,,,,,,,,,,,,,,,,,,,,,,,,,,,,,,,,,,,,,,,,,,,,,,,,24,látigo,,,,,567.127,568.793,1,1,1.101,,0,30,30,23,1,REAL,FAKE,,,,,,,,,,,,,,,,,
,,,,,,,,,662acd8fd604c93c4700fca6,Spanish,13 or older,"no, only English or Spanish",yes,2025-07-23_16h47.41.230,empathy_intonation_perc,2024.2.4,Win32,30.06614552,662acd8fd604c93c4700fca6,687ed1b7e638a4cbf2f02089,68814a327dd06b9cb772bd15,,,,,,,,,,,,,,1,,,,,,,,,,,,,,,,,,,,,,,,,,,,,,,,,,,,,,,,,,,,,,,,,,,,,,,,,12,asesinato,,,,,568.794,570.227,0,0,0.865,,0,31,31,11,1,REAL,FAKE,,,,,,,,,,,,,,,,,
,,,,,,,,,662acd8fd604c93c4700fca6,Spanish,13 or older,"no, only English or Spanish",yes,2025-07-23_16h47.41.230,empathy_intonation_perc,2024.2.4,Win32,30.06614552,662acd8fd604c93c4700fca6,687ed1b7e638a4cbf2f02089,68814a327dd06b9cb772bd15,,,,,,,,,,,,,,0,,,,,,,,,,,,,,,,,,,,,,,,,,,,,,,,,,,,,,,,,,,,,,,,,,,,,,,,,27,acutación,,,,,570.227,571.793,1,0,0.996,,0,32,32,26,1,REAL,FAKE,,,,,,,,,,,,,,,,,
,,,,,,,,,662acd8fd604c93c4700fca6,Spanish,13 or older,"no, only English or Spanish",yes,2025-07-23_16h47.41.230,empathy_intonation_perc,2024.2.4,Win32,30.06614552,662acd8fd604c93c4700fca6,687ed1b7e638a4cbf2f02089,68814a327dd06b9cb772bd15,,,,,,,,,,,,,,1,,,,,,,,,,,,,,,,,,,,,,,,,,,,,,,,,,,,,,,,,,,,,,,,,,,,,,,,,73,hervidor,,,,,571.794,573.393,0,0,1.04,,0,33,33,72,1,REAL,FAKE,,,,,,,,,,,,,,,,,
,,,,,,,,,662acd8fd604c93c4700fca6,Spanish,13 or older,"no, only English or Spanish",yes,2025-07-23_16h47.41.230,empathy_intonation_perc,2024.2.4,Win32,30.06614552,662acd8fd604c93c4700fca6,687ed1b7e638a4cbf2f02089,68814a327dd06b9cb772bd15,,,,,,,,,,,,,,0,,,,,,,,,,,,,,,,,,,,,,,,,,,,,,,,,,,,,,,,,,,,,,,,,,,,,,,,,30,alardio,,,,,573.393,574.992,0,1,1.028,,0,34,34,29,1,REAL,FAKE,,,,,,,,,,,,,,,,,
,,,,,,,,,662acd8fd604c93c4700fca6,Spanish,13 or older,"no, only English or Spanish",yes,2025-07-23_16h47.41.230,empathy_intonation_perc,2024.2.4,Win32,30.06614552,662acd8fd604c93c4700fca6,687ed1b7e638a4cbf2f02089,68814a327dd06b9cb772bd15,,,,,,,,,,,,,,1,,,,,,,,,,,,,,,,,,,,,,,,,,,,,,,,,,,,,,,,,,,,,,,,,,,,,,,,,3,pulmones,,,,,574.993,576.659,0,0,1.135,,0,35,35,2,1,REAL,FAKE,,,,,,,,,,,,,,,,,
,,,,,,,,,662acd8fd604c93c4700fca6,Spanish,13 or older,"no, only English or Spanish",yes,2025-07-23_16h47.41.230,empathy_intonation_perc,2024.2.4,Win32,30.06614552,662acd8fd604c93c4700fca6,687ed1b7e638a4cbf2f02089,68814a327dd06b9cb772bd15,,,,,,,,,,,,,,1,,,,,,,,,,,,,,,,,,,,,,,,,,,,,,,,,,,,,,,,,,,,,,,,,,,,,,,,,85,laúd,,,,,576.66,578.426,1,1,1.199,,0,36,36,84,1,REAL,FAKE,,,,,,,,,,,,,,,,,
,,,,,,,,,662acd8fd604c93c4700fca6,Spanish,13 or older,"no, only English or Spanish",yes,2025-07-23_16h47.41.230,empathy_intonation_perc,2024.2.4,Win32,30.06614552,662acd8fd604c93c4700fca6,687ed1b7e638a4cbf2f02089,68814a327dd06b9cb772bd15,,,,,,,,,,,,,,1,,,,,,,,,,,,,,,,,,,,,,,,,,,,,,,,,,,,,,,,,,,,,,,,,,,,,,,,,68,alegre,,,,,578.427,580.293,1,1,1.314,,0,37,37,67,1,REAL,FAKE,,,,,,,,,,,,,,,,,
,,,,,,,,,662acd8fd604c93c4700fca6,Spanish,13 or older,"no, only English or Spanish",yes,2025-07-23_16h47.41.230,empathy_intonation_perc,2024.2.4,Win32,30.06614552,662acd8fd604c93c4700fca6,687ed1b7e638a4cbf2f02089,68814a327dd06b9cb772bd15,,,,,,,,,,,,,,0,,,,,,,,,,,,,,,,,,,,,,,,,,,,,,,,,,,,,,,,,,,,,,,,,,,,,,,,,10,antar,,,,,580.296,582.059,0,1,1.214,,0,38,38,9,1,REAL,FAKE,,,,,,,,,,,,,,,,,
,,,,,,,,,662acd8fd604c93c4700fca6,Spanish,13 or older,"no, only English or Spanish",yes,2025-07-23_16h47.41.230,empathy_intonation_perc,2024.2.4,Win32,30.06614552,662acd8fd604c93c4700fca6,687ed1b7e638a4cbf2f02089,68814a327dd06b9cb772bd15,,,,,,,,,,,,,,0,,,,,,,,,,,,,,,,,,,,,,,,,,,,,,,,,,,,,,,,,,,,,,,,,,,,,,,,,42,cadallo,,,,,582.06,583.525,1,0,0.907,,0,39,39,41,1,REAL,FAKE,,,,,,,,,,,,,,,,,
,,,,,,,,,662acd8fd604c93c4700fca6,Spanish,13 or older,"no, only English or Spanish",yes,2025-07-23_16h47.41.230,empathy_intonation_perc,2024.2.4,Win32,30.06614552,662acd8fd604c93c4700fca6,687ed1b7e638a4cbf2f02089,68814a327dd06b9cb772bd15,,,,,,,,,,,,,,0,,,,,,,,,,,,,,,,,,,,,,,,,,,,,,,,,,,,,,,,,,,,,,,,,,,,,,,,,33,pauca,,,,,583.526,585.025,1,0,0.98,,0,40,40,32,1,REAL,FAKE,,,,,,,,,,,,,,,,,
,,,,,,,,,662acd8fd604c93c4700fca6,Spanish,13 or older,"no, only English or Spanish",yes,2025-07-23_16h47.41.230,empathy_intonation_perc,2024.2.4,Win32,30.06614552,662acd8fd604c93c4700fca6,687ed1b7e638a4cbf2f02089,68814a327dd06b9cb772bd15,,,,,,,,,,,,,,1,,,,,,,,,,,,,,,,,,,,,,,,,,,,,,,,,,,,,,,,,,,,,,,,,,,,,,,,,80,hormiga,,,,,585.027,586.592,0,0,1.016,,0,41,41,79,1,REAL,FAKE,,,,,,,,,,,,,,,,,
,,,,,,,,,662acd8fd604c93c4700fca6,Spanish,13 or older,"no, only English or Spanish",yes,2025-07-23_16h47.41.230,empathy_intonation_perc,2024.2.4,Win32,30.06614552,662acd8fd604c93c4700fca6,687ed1b7e638a4cbf2f02089,68814a327dd06b9cb772bd15,,,,,,,,,,,,,,1,,,,,,,,,,,,,,,,,,,,,,,,,,,,,,,,,,,,,,,,,,,,,,,,,,,,,,,,,61,seda,,,,,586.593,588.458,0,0,1.289,,0,42,42,60,1,REAL,FAKE,,,,,,,,,,,,,,,,,
,,,,,,,,,662acd8fd604c93c4700fca6,Spanish,13 or older,"no, only English or Spanish",yes,2025-07-23_16h47.41.230,empathy_intonation_perc,2024.2.4,Win32,30.06614552,662acd8fd604c93c4700fca6,687ed1b7e638a4cbf2f02089,68814a327dd06b9cb772bd15,,,,,,,,,,,,,,0,,,,,,,,,,,,,,,,,,,,,,,,,,,,,,,,,,,,,,,,,,,,,,,,,,,,,,,,,66,hacido,,,,,588.459,589.858,0,1,0.833,,0,43,43,65,1,REAL,FAKE,,,,,,,,,,,,,,,,,
,,,,,,,,,662acd8fd604c93c4700fca6,Spanish,13 or older,"no, only English or Spanish",yes,2025-07-23_16h47.41.230,empathy_intonation_perc,2024.2.4,Win32,30.06614552,662acd8fd604c93c4700fca6,687ed1b7e638a4cbf2f02089,68814a327dd06b9cb772bd15,,,,,,,,,,,,,,1,,,,,,,,,,,,,,,,,,,,,,,,,,,,,,,,,,,,,,,,,,,,,,,,,,,,,,,,,55,nevar,,,,,589.859,592.157,0,0,1.783,,0,44,44,54,1,REAL,FAKE,,,,,,,,,,,,,,,,,
,,,,,,,,,662acd8fd604c93c4700fca6,Spanish,13 or older,"no, only English or Spanish",yes,2025-07-23_16h47.41.230,empathy_intonation_perc,2024.2.4,Win32,30.06614552,662acd8fd604c93c4700fca6,687ed1b7e638a4cbf2f02089,68814a327dd06b9cb772bd15,,,,,,,,,,,,,,1,,,,,,,,,,,,,,,,,,,,,,,,,,,,,,,,,,,,,,,,,,,,,,,,,,,,,,,,,28,merodear,,,,,592.158,593.891,0,0,1.199,,0,45,45,27,1,REAL,FAKE,,,,,,,,,,,,,,,,,
,,,,,,,,,662acd8fd604c93c4700fca6,Spanish,13 or older,"no, only English or Spanish",yes,2025-07-23_16h47.41.230,empathy_intonation_perc,2024.2.4,Win32,30.06614552,662acd8fd604c93c4700fca6,687ed1b7e638a4cbf2f02089,68814a327dd06b9cb772bd15,,,,,,,,,,,,,,0,,,,,,,,,,,,,,,,,,,,,,,,,,,,,,,,,,,,,,,,,,,,,,,,,,,,,,,,,53,vegada,,,,,593.892,595.724,0,1,1.26,,0,46,46,52,1,REAL,FAKE,,,,,,,,,,,,,,,,,
,,,,,,,,,662acd8fd604c93c4700fca6,Spanish,13 or older,"no, only English or Spanish",yes,2025-07-23_16h47.41.230,empathy_intonation_perc,2024.2.4,Win32,30.06614552,662acd8fd604c93c4700fca6,687ed1b7e638a4cbf2f02089,68814a327dd06b9cb772bd15,,,,,,,,,,,,,,1,,,,,,,,,,,,,,,,,,,,,,,,,,,,,,,,,,,,,,,,,,,,,,,,,,,,,,,,,2,pellizcar,,,,,595.725,597.424,1,1,1.177,,0,47,47,1,1,REAL,FAKE,,,,,,,,,,,,,,,,,
,,,,,,,,,662acd8fd604c93c4700fca6,Spanish,13 or older,"no, only English or Spanish",yes,2025-07-23_16h47.41.230,empathy_intonation_perc,2024.2.4,Win32,30.06614552,662acd8fd604c93c4700fca6,687ed1b7e638a4cbf2f02089,68814a327dd06b9cb772bd15,,,,,,,,,,,,,,0,,,,,,,,,,,,,,,,,,,,,,,,,,,,,,,,,,,,,,,,,,,,,,,,,,,,,,,,,82,empirador,,,,,597.425,599.224,1,0,1.259,,0,48,48,81,1,REAL,FAKE,,,,,,,,,,,,,,,,,
,,,,,,,,,662acd8fd604c93c4700fca6,Spanish,13 or older,"no, only English or Spanish",yes,2025-07-23_16h47.41.230,empathy_intonation_perc,2024.2.4,Win32,30.06614552,662acd8fd604c93c4700fca6,687ed1b7e638a4cbf2f02089,68814a327dd06b9cb772bd15,,,,,,,,,,,,,,1,,,,,,,,,,,,,,,,,,,,,,,,,,,,,,,,,,,,,,,,,,,,,,,,,,,,,,,,,78,frondoso,,,,,599.225,600.691,0,0,0.951,,0,49,49,77,1,REAL,FAKE,,,,,,,,,,,,,,,,,
,,,,,,,,,662acd8fd604c93c4700fca6,Spanish,13 or older,"no, only English or Spanish",yes,2025-07-23_16h47.41.230,empathy_intonation_perc,2024.2.4,Win32,30.06614552,662acd8fd604c93c4700fca6,687ed1b7e638a4cbf2f02089,68814a327dd06b9cb772bd15,,,,,,,,,,,,,,1,,,,,,,,,,,,,,,,,,,,,,,,,,,,,,,,,,,,,,,,,,,,,,,,,,,,,,,,,77,tiburón,,,,,600.692,602.225,1,1,1.005,,0,50,50,76,1,REAL,FAKE,,,,,,,,,,,,,,,,,
,,,,,,,,,662acd8fd604c93c4700fca6,Spanish,13 or older,"no, only English or Spanish",yes,2025-07-23_16h47.41.230,empathy_intonation_perc,2024.2.4,Win32,30.06614552,662acd8fd604c93c4700fca6,687ed1b7e638a4cbf2f02089,68814a327dd06b9cb772bd15,,,,,,,,,,,,,,1,,,,,,,,,,,,,,,,,,,,,,,,,,,,,,,,,,,,,,,,,,,,,,,,,,,,,,,,,69,engatusar,,,,,602.225,603.725,0,0,0.934,,0,51,51,68,1,REAL,FAKE,,,,,,,,,,,,,,,,,
,,,,,,,,,662acd8fd604c93c4700fca6,Spanish,13 or older,"no, only English or Spanish",yes,2025-07-23_16h47.41.230,empathy_intonation_perc,2024.2.4,Win32,30.06614552,662acd8fd604c93c4700fca6,687ed1b7e638a4cbf2f02089,68814a327dd06b9cb772bd15,,,,,,,,,,,,,,0,,,,,,,,,,,,,,,,,,,,,,,,,,,,,,,,,,,,,,,,,,,,,,,,,,,,,,,,,63,esposante,,,,,603.726,605.225,0,1,0.934,,0,52,52,62,1,REAL,FAKE,,,,,,,,,,,,,,,,,
,,,,,,,,,662acd8fd604c93c4700fca6,Spanish,13 or older,"no, only English or Spanish",yes,2025-07-23_16h47.41.230,empathy_intonation_perc,2024.2.4,Win32,30.06614552,662acd8fd604c93c4700fca6,687ed1b7e638a4cbf2f02089,68814a327dd06b9cb772bd15,,,,,,,,,,,,,,0,,,,,,,,,,,,,,,,,,,,,,,,,,,,,,,,,,,,,,,,,,,,,,,,,,,,,,,,,4,batillón,,,,,605.225,606.59,1,0,0.792,,0,53,53,3,1,REAL,FAKE,,,,,,,,,,,,,,,,,
,,,,,,,,,662acd8fd604c93c4700fca6,Spanish,13 or older,"no, only English or Spanish",yes,2025-07-23_16h47.41.230,empathy_intonation_perc,2024.2.4,Win32,30.06614552,662acd8fd604c93c4700fca6,687ed1b7e638a4cbf2f02089,68814a327dd06b9cb772bd15,,,,,,,,,,,,,,1,,,,,,,,,,,,,,,,,,,,,,,,,,,,,,,,,,,,,,,,,,,,,,,,,,,,,,,,,89,prisa,,,,,606.59,607.99,0,0,0.878,,0,54,54,88,1,REAL,FAKE,,,,,,,,,,,,,,,,,
,,,,,,,,,662acd8fd604c93c4700fca6,Spanish,13 or older,"no, only English or Spanish",yes,2025-07-23_16h47.41.230,empathy_intonation_perc,2024.2.4,Win32,30.06614552,662acd8fd604c93c4700fca6,687ed1b7e638a4cbf2f02089,68814a327dd06b9cb772bd15,,,,,,,,,,,,,,1,,,,,,,,,,,,,,,,,,,,,,,,,,,,,,,,,,,,,,,,,,,,,,,,,,,,,,,,,59,besar,,,,,607.991,609.457,0,0,0.931,,0,55,55,58,1,REAL,FAKE,,,,,,,,,,,,,,,,,
,,,,,,,,,662acd8fd604c93c4700fca6,Spanish,13 or older,"no, only English or Spanish",yes,2025-07-23_16h47.41.230,empathy_intonation_perc,2024.2.4,Win32,30.06614552,662acd8fd604c93c4700fca6,687ed1b7e638a4cbf2f02089,68814a327dd06b9cb772bd15,,,,,,,,,,,,,,1,,,,,,,,,,,,,,,,,,,,,,,,,,,,,,,,,,,,,,,,,,,,,,,,,,,,,,,,,41,rebuscar,,,,,609.458,610.856,0,0,0.873,,0,56,56,40,1,REAL,FAKE,,,,,,,,,,,,,,,,,
,,,,,,,,,662acd8fd604c93c4700fca6,Spanish,13 or older,"no, only English or Spanish",yes,2025-07-23_16h47.41.230,empathy_intonation_perc,2024.2.4,Win32,30.06614552,662acd8fd604c93c4700fca6,687ed1b7e638a4cbf2f02089,68814a327dd06b9cb772bd15,,,,,,,,,,,,,,1,,,,,,,,,,,,,,,,,,,,,,,,,,,,,,,,,,,,,,,,,,,,,,,,,,,,,,,,,90,clavel,,,,,610.857,612.257,0,0,0.855,,0,57,57,89,1,REAL,FAKE,,,,,,,,,,,,,,,,,
,,,,,,,,,662acd8fd604c93c4700fca6,Spanish,13 or older,"no, only English or Spanish",yes,2025-07-23_16h47.41.230,empathy_intonation_perc,2024.2.4,Win32,30.06614552,662acd8fd604c93c4700fca6,687ed1b7e638a4cbf2f02089,68814a327dd06b9cb772bd15,,,,,,,,,,,,,,1,,,,,,,,,,,,,,,,,,,,,,,,,,,,,,,,,,,,,,,,,,,,,,,,,,,,,,,,,76,atar,,,,,612.257,613.723,0,0,0.919,,0,58,58,75,1,REAL,FAKE,,,,,,,,,,,,,,,,,
,,,,,,,,,662acd8fd604c93c4700fca6,Spanish,13 or older,"no, only English or Spanish",yes,2025-07-23_16h47.41.230,empathy_intonation_perc,2024.2.4,Win32,30.06614552,662acd8fd604c93c4700fca6,687ed1b7e638a4cbf2f02089,68814a327dd06b9cb772bd15,,,,,,,,,,,,,,1,,,,,,,,,,,,,,,,,,,,,,,,,,,,,,,,,,,,,,,,,,,,,,,,,,,,,,,,,46,martillo,,,,,613.725,615.09,0,0,0.796,,0,59,59,45,1,REAL,FAKE,,,,,,,,,,,,,,,,,
,,,,,,,,,662acd8fd604c93c4700fca6,Spanish,13 or older,"no, only English or Spanish",yes,2025-07-23_16h47.41.230,empathy_intonation_perc,2024.2.4,Win32,30.06614552,662acd8fd604c93c4700fca6,687ed1b7e638a4cbf2f02089,68814a327dd06b9cb772bd15,,,,,,,,,,,,,,1,,,,,,,,,,,,,,,,,,,,,,,,,,,,,,,,,,,,,,,,,,,,,,,,,,,,,,,,,9,hacha,,,,,615.091,616.556,0,0,0.907,,0,60,60,8,1,REAL,FAKE,,,,,,,,,,,,,,,,,
,,,,,,,,,662acd8fd604c93c4700fca6,Spanish,13 or older,"no, only English or Spanish",yes,2025-07-23_16h47.41.230,empathy_intonation_perc,2024.2.4,Win32,30.06614552,662acd8fd604c93c4700fca6,687ed1b7e638a4cbf2f02089,68814a327dd06b9cb772bd15,,,,,,,,,,,,,,1,,,,,,,,,,,,,,,,,,,,,,,,,,,,,,,,,,,,,,,,,,,,,,,,,,,,,,,,,31,pandilla,,,,,616.558,617.922,0,0,0.804,,0,61,61,30,1,REAL,FAKE,,,,,,,,,,,,,,,,,
,,,,,,,,,662acd8fd604c93c4700fca6,Spanish,13 or older,"no, only English or Spanish",yes,2025-07-23_16h47.41.230,empathy_intonation_perc,2024.2.4,Win32,30.06614552,662acd8fd604c93c4700fca6,687ed1b7e638a4cbf2f02089,68814a327dd06b9cb772bd15,,,,,,,,,,,,,,1,,,,,,,,,,,,,,,,,,,,,,,,,,,,,,,,,,,,,,,,,,,,,,,,,,,,,,,,,26,secuestro,,,,,617.924,619.29,0,0,0.824,,0,62,62,25,1,REAL,FAKE,,,,,,,,,,,,,,,,,
,,,,,,,,,662acd8fd604c93c4700fca6,Spanish,13 or older,"no, only English or Spanish",yes,2025-07-23_16h47.41.230,empathy_intonation_perc,2024.2.4,Win32,30.06614552,662acd8fd604c93c4700fca6,687ed1b7e638a4cbf2f02089,68814a327dd06b9cb772bd15,,,,,,,,,,,,,,1,,,,,,,,,,,,,,,,,,,,,,,,,,,,,,,,,,,,,,,,,,,,,,,,,,,,,,,,,39,torpe,,,,,619.291,620.989,0,0,1.134,,0,63,63,38,1,REAL,FAKE,,,,,,,,,,,,,,,,,
,,,,,,,,,662acd8fd604c93c4700fca6,Spanish,13 or older,"no, only English or Spanish",yes,2025-07-23_16h47.41.230,empathy_intonation_perc,2024.2.4,Win32,30.06614552,662acd8fd604c93c4700fca6,687ed1b7e638a4cbf2f02089,68814a327dd06b9cb772bd15,,,,,,,,,,,,,,1,,,,,,,,,,,,,,,,,,,,,,,,,,,,,,,,,,,,,,,,,,,,,,,,,,,,,,,,,83,guante,,,,,620.99,622.656,0,0,1.102,,0,64,64,82,1,REAL,FAKE,,,,,,,,,,,,,,,,,
,,,,,,,,,662acd8fd604c93c4700fca6,Spanish,13 or older,"no, only English or Spanish",yes,2025-07-23_16h47.41.230,empathy_intonation_perc,2024.2.4,Win32,30.06614552,662acd8fd604c93c4700fca6,687ed1b7e638a4cbf2f02089,68814a327dd06b9cb772bd15,,,,,,,,,,,,,,0,,,,,,,,,,,,,,,,,,,,,,,,,,,,,,,,,,,,,,,,,,,,,,,,,,,,,,,,,58,plaudir,,,,,622.657,624.222,1,0,1.042,,0,65,65,57,1,REAL,FAKE,,,,,,,,,,,,,,,,,
,,,,,,,,,662acd8fd604c93c4700fca6,Spanish,13 or older,"no, only English or Spanish",yes,2025-07-23_16h47.41.230,empathy_intonation_perc,2024.2.4,Win32,30.06614552,662acd8fd604c93c4700fca6,687ed1b7e638a4cbf2f02089,68814a327dd06b9cb772bd15,,,,,,,,,,,,,,1,,,,,,,,,,,,,,,,,,,,,,,,,,,,,,,,,,,,,,,,,,,,,,,,,,,,,,,,,37,granuja,,,,,624.223,626.256,0,0,1.5,,0,66,66,36,1,REAL,FAKE,,,,,,,,,,,,,,,,,
,,,,,,,,,662acd8fd604c93c4700fca6,Spanish,13 or older,"no, only English or Spanish",yes,2025-07-23_16h47.41.230,empathy_intonation_perc,2024.2.4,Win32,30.06614552,662acd8fd604c93c4700fca6,687ed1b7e638a4cbf2f02089,68814a327dd06b9cb772bd15,,,,,,,,,,,,,,1,,,,,,,,,,,,,,,,,,,,,,,,,,,,,,,,,,,,,,,,,,,,,,,,,,,,,,,,,71,polvoriento,,,,,626.256,628.488,0,0,1.683,,0,67,67,70,1,REAL,FAKE,,,,,,,,,,,,,,,,,
,,,,,,,,,662acd8fd604c93c4700fca6,Spanish,13 or older,"no, only English or Spanish",yes,2025-07-23_16h47.41.230,empathy_intonation_perc,2024.2.4,Win32,30.06614552,662acd8fd604c93c4700fca6,687ed1b7e638a4cbf2f02089,68814a327dd06b9cb772bd15,,,,,,,,,,,,,,1,,,,,,,,,,,,,,,,,,,,,,,,,,,,,,,,,,,,,,,,,,,,,,,,,,,,,,,,,13,helar,,,,,628.489,630.356,0,0,1.332,,0,68,68,12,1,REAL,FAKE,,,,,,,,,,,,,,,,,
,,,,,,,,,662acd8fd604c93c4700fca6,Spanish,13 or older,"no, only English or Spanish",yes,2025-07-23_16h47.41.230,empathy_intonation_perc,2024.2.4,Win32,30.06614552,662acd8fd604c93c4700fca6,687ed1b7e638a4cbf2f02089,68814a327dd06b9cb772bd15,,,,,,,,,,,,,,0,,,,,,,,,,,,,,,,,,,,,,,,,,,,,,,,,,,,,,,,,,,,,,,,,,,,,,,,,1,terzo,,,,,630.356,631.889,1,0,0.969,,0,69,69,0,1,REAL,FAKE,,,,,,,,,,,,,,,,,
,,,,,,,,,662acd8fd604c93c4700fca6,Spanish,13 or older,"no, only English or Spanish",yes,2025-07-23_16h47.41.230,empathy_intonation_perc,2024.2.4,Win32,30.06614552,662acd8fd604c93c4700fca6,687ed1b7e638a4cbf2f02089,68814a327dd06b9cb772bd15,,,,,,,,,,,,,,1,,,,,,,,,,,,,,,,,,,,,,,,,,,,,,,,,,,,,,,,,,,,,,,,,,,,,,,,,65,bizcocho,,,,,631.889,633.622,1,1,1.166,,0,70,70,64,1,REAL,FAKE,,,,,,,,,,,,,,,,,
,,,,,,,,,662acd8fd604c93c4700fca6,Spanish,13 or older,"no, only English or Spanish",yes,2025-07-23_16h47.41.230,empathy_intonation_perc,2024.2.4,Win32,30.06614552,662acd8fd604c93c4700fca6,687ed1b7e638a4cbf2f02089,68814a327dd06b9cb772bd15,,,,,,,,,,,,,,1,,,,,,,,,,,,,,,,,,,,,,,,,,,,,,,,,,,,,,,,,,,,,,,,,,,,,,,,,67,cabello,,,,,633.623,635.021,0,0,0.84,,0,71,71,66,1,REAL,FAKE,,,,,,,,,,,,,,,,,
,,,,,,,,,662acd8fd604c93c4700fca6,Spanish,13 or older,"no, only English or Spanish",yes,2025-07-23_16h47.41.230,empathy_intonation_perc,2024.2.4,Win32,30.06614552,662acd8fd604c93c4700fca6,687ed1b7e638a4cbf2f02089,68814a327dd06b9cb772bd15,,,,,,,,,,,,,,1,,,,,,,,,,,,,,,,,,,,,,,,,,,,,,,,,,,,,,,,,,,,,,,,,,,,,,,,,64,orgulloso,,,,,635.022,636.489,0,0,0.936,,0,72,72,63,1,REAL,FAKE,,,,,,,,,,,,,,,,,
,,,,,,,,,662acd8fd604c93c4700fca6,Spanish,13 or older,"no, only English or Spanish",yes,2025-07-23_16h47.41.230,empathy_intonation_perc,2024.2.4,Win32,30.06614552,662acd8fd604c93c4700fca6,687ed1b7e638a4cbf2f02089,68814a327dd06b9cb772bd15,,,,,,,,,,,,,,0,,,,,,,,,,,,,,,,,,,,,,,,,,,,,,,,,,,,,,,,,,,,,,,,,,,,,,,,,18,arsa,,,,,636.489,638.022,0,1,0.957,,0,73,73,17,1,REAL,FAKE,,,,,,,,,,,,,,,,,
,,,,,,,,,662acd8fd604c93c4700fca6,Spanish,13 or older,"no, only English or Spanish",yes,2025-07-23_16h47.41.230,empathy_intonation_perc,2024.2.4,Win32,30.06614552,662acd8fd604c93c4700fca6,687ed1b7e638a4cbf2f02089,68814a327dd06b9cb772bd15,,,,,,,,,,,,,,0,,,,,,,,,,,,,,,,,,,,,,,,,,,,,,,,,,,,,,,,,,,,,,,,,,,,,,,,,79,tropaje,,,,,638.022,639.588,0,1,1.001,,0,74,74,78,1,REAL,FAKE,,,,,,,,,,,,,,,,,
,,,,,,,,,662acd8fd604c93c4700fca6,Spanish,13 or older,"no, only English or Spanish",yes,2025-07-23_16h47.41.230,empathy_intonation_perc,2024.2.4,Win32,30.06614552,662acd8fd604c93c4700fca6,687ed1b7e638a4cbf2f02089,68814a327dd06b9cb772bd15,,,,,,,,,,,,,,0,,,,,,,,,,,,,,,,,,,,,,,,,,,,,,,,,,,,,,,,,,,,,,,,,,,,,,,,,92,click the 0 key.,,,,,639.589,642.255,0,1,2.121,,0,75,75,91,1,REAL,FAKE,,,,,,,,,,,,,,,,,
,,,,,,,,,662acd8fd604c93c4700fca6,Spanish,13 or older,"no, only English or Spanish",yes,2025-07-23_16h47.41.230,empathy_intonation_perc,2024.2.4,Win32,30.06614552,662acd8fd604c93c4700fca6,687ed1b7e638a4cbf2f02089,68814a327dd06b9cb772bd15,,,,,,,,,,,,,,0,,,,,,,,,,,,,,,,,,,,,,,,,,,,,,,,,,,,,,,,,,,,,,,,,,,,,,,,,23,lampera,,,,,642.256,644.221,0,1,1.412,,0,76,76,22,1,REAL,FAKE,,,,,,,,,,,,,,,,,
,,,,,,,,,662acd8fd604c93c4700fca6,Spanish,13 or older,"no, only English or Spanish",yes,2025-07-23_16h47.41.230,empathy_intonation_perc,2024.2.4,Win32,30.06614552,662acd8fd604c93c4700fca6,687ed1b7e638a4cbf2f02089,68814a327dd06b9cb772bd15,,,,,,,,,,,,,,0,,,,,,,,,,,,,,,,,,,,,,,,,,,,,,,,,,,,,,,,,,,,,,,,,,,,,,,,,21,capillo,,,,,644.221,645.854,0,1,1.095,,0,77,77,20,1,REAL,FAKE,,,,,,,,,,,,,,,,,
,,,,,,,,,662acd8fd604c93c4700fca6,Spanish,13 or older,"no, only English or Spanish",yes,2025-07-23_16h47.41.230,empathy_intonation_perc,2024.2.4,Win32,30.06614552,662acd8fd604c93c4700fca6,687ed1b7e638a4cbf2f02089,68814a327dd06b9cb772bd15,,,,,,,,,,,,,,1,,,,,,,,,,,,,,,,,,,,,,,,,,,,,,,,,,,,,,,,,,,,,,,,,,,,,,,,,60,matar,,,,,645.857,649.254,1,1,2.828,,0,78,78,59,1,REAL,FAKE,,,,,,,,,,,,,,,,,
,,,,,,,,,662acd8fd604c93c4700fca6,Spanish,13 or older,"no, only English or Spanish",yes,2025-07-23_16h47.41.230,empathy_intonation_perc,2024.2.4,Win32,30.06614552,662acd8fd604c93c4700fca6,687ed1b7e638a4cbf2f02089,68814a327dd06b9cb772bd15,,,,,,,,,,,,,,0,,,,,,,,,,,,,,,,,,,,,,,,,,,,,,,,,,,,,,,,,,,,,,,,,,,,,,,,,70,temblo,,,,,649.255,651.154,0,1,1.35,,0,79,79,69,1,REAL,FAKE,,,,,,,,,,,,,,,,,
,,,,,,,,,662acd8fd604c93c4700fca6,Spanish,13 or older,"no, only English or Spanish",yes,2025-07-23_16h47.41.230,empathy_intonation_perc,2024.2.4,Win32,30.06614552,662acd8fd604c93c4700fca6,687ed1b7e638a4cbf2f02089,68814a327dd06b9cb772bd15,,,,,,,,,,,,,,0,,,,,,,,,,,,,,,,,,,,,,,,,,,,,,,,,,,,,,,,,,,,,,,,,,,,,,,,,74,cintro,,,,,651.155,653.054,0,1,1.371,,0,80,80,73,1,REAL,FAKE,,,,,,,,,,,,,,,,,
,,,,,,,,,662acd8fd604c93c4700fca6,Spanish,13 or older,"no, only English or Spanish",yes,2025-07-23_16h47.41.230,empathy_intonation_perc,2024.2.4,Win32,30.06614552,662acd8fd604c93c4700fca6,687ed1b7e638a4cbf2f02089,68814a327dd06b9cb772bd15,,,,,,,,,,,,,,1,,,,,,,,,,,,,,,,,,,,,,,,,,,,,,,,,,,,,,,,,,,,,,,,,,,,,,,,,45,jilguero,,,,,653.055,654.554,0,0,0.951,,0,81,81,44,1,REAL,FAKE,,,,,,,,,,,,,,,,,
,,,,,,,,,662acd8fd604c93c4700fca6,Spanish,13 or older,"no, only English or Spanish",yes,2025-07-23_16h47.41.230,empathy_intonation_perc,2024.2.4,Win32,30.06614552,662acd8fd604c93c4700fca6,687ed1b7e638a4cbf2f02089,68814a327dd06b9cb772bd15,,,,,,,,,,,,,,0,,,,,,,,,,,,,,,,,,,,,,,,,,,,,,,,,,,,,,,,,,,,,,,,,,,,,,,,,87,grodo,,,,,654.555,655.92,1,0,0.811,,0,82,82,86,1,REAL,FAKE,,,,,,,,,,,,,,,,,
,,,,,,,,,662acd8fd604c93c4700fca6,Spanish,13 or older,"no, only English or Spanish",yes,2025-07-23_16h47.41.230,empathy_intonation_perc,2024.2.4,Win32,30.06614552,662acd8fd604c93c4700fca6,687ed1b7e638a4cbf2f02089,68814a327dd06b9cb772bd15,,,,,,,,,,,,,,1,,,,,,,,,,,,,,,,,,,,,,,,,,,,,,,,,,,,,,,,,,,,,,,,,,,,,,,,,15,regar,,,,,655.921,657.454,0,0,0.997,,0,83,83,14,1,REAL,FAKE,,,,,,,,,,,,,,,,,
,,,,,,,,,662acd8fd604c93c4700fca6,Spanish,13 or older,"no, only English or Spanish",yes,2025-07-23_16h47.41.230,empathy_intonation_perc,2024.2.4,Win32,30.06614552,662acd8fd604c93c4700fca6,687ed1b7e638a4cbf2f02089,68814a327dd06b9cb772bd15,,,,,,,,,,,,,,1,,,,,,,,,,,,,,,,,,,,,,,,,,,,,,,,,,,,,,,,,,,,,,,,,,,,,,,,,14,yunque,,,,,657.454,659.02,0,0,1.007,,0,84,84,13,1,REAL,FAKE,,,,,,,,,,,,,,,,,
,,,,,,,,,662acd8fd604c93c4700fca6,Spanish,13 or older,"no, only English or Spanish",yes,2025-07-23_16h47.41.230,empathy_intonation_perc,2024.2.4,Win32,30.06614552,662acd8fd604c93c4700fca6,687ed1b7e638a4cbf2f02089,68814a327dd06b9cb772bd15,,,,,,,,,,,,,,1,,,,,,,,,,,,,,,,,,,,,,,,,,,,,,,,,,,,,,,,,,,,,,,,,,,,,,,,,20,ávido,,,,,659.021,660.42,1,1,0.877,,0,85,85,19,1,REAL,FAKE,,,,,,,,,,,,,,,,,
,,,,,,,,,662acd8fd604c93c4700fca6,Spanish,13 or older,"no, only English or Spanish",yes,2025-07-23_16h47.41.230,empathy_intonation_perc,2024.2.4,Win32,30.06614552,662acd8fd604c93c4700fca6,687ed1b7e638a4cbf2f02089,68814a327dd06b9cb772bd15,,,,,,,,,,,,,,0,,,,,,,,,,,,,,,,,,,,,,,,,,,,,,,,,,,,,,,,,,,,,,,,,,,,,,,,,35,rompido,,,,,660.42,662.152,0,1,1.209,,0,86,86,34,1,REAL,FAKE,,,,,,,,,,,,,,,,,
,,,,,,,,,662acd8fd604c93c4700fca6,Spanish,13 or older,"no, only English or Spanish",yes,2025-07-23_16h47.41.230,empathy_intonation_perc,2024.2.4,Win32,30.06614552,662acd8fd604c93c4700fca6,687ed1b7e638a4cbf2f02089,68814a327dd06b9cb772bd15,,,,,,,,,,,,,,1,,,,,,,,,,,,,,,,,,,,,,,,,,,,,,,,,,,,,,,,,,,,,,,,,,,,,,,,,22,lacayo,,,,,662.153,663.919,0,0,1.229,,0,87,87,21,1,REAL,FAKE,,,,,,,,,,,,,,,,,
,,,,,,,,,662acd8fd604c93c4700fca6,Spanish,13 or older,"no, only English or Spanish",yes,2025-07-23_16h47.41.230,empathy_intonation_perc,2024.2.4,Win32,30.06614552,662acd8fd604c93c4700fca6,687ed1b7e638a4cbf2f02089,68814a327dd06b9cb772bd15,,,,,,,,,,,,,,0,,,,,,,,,,,,,,,,,,,,,,,,,,,,,,,,,,,,,,,,,,,,,,,,,,,,,,,,,16,abracer,,,,,663.92,665.953,1,0,1.453,,0,88,88,15,1,REAL,FAKE,,,,,,,,,,,,,,,,,
,,,,,,,,,662acd8fd604c93c4700fca6,Spanish,13 or older,"no, only English or Spanish",yes,2025-07-23_16h47.41.230,empathy_intonation_perc,2024.2.4,Win32,30.06614552,662acd8fd604c93c4700fca6,687ed1b7e638a4cbf2f02089,68814a327dd06b9cb772bd15,,,,,,,,,,,,,,1,,,,,,,,,,,,,,,,,,,,,,,,,,,,,,,,,,,,,,,,,,,,,,,,,,,,,,,,,52,camisa,,,,,665.953,667.553,1,1,1.084,,0,89,89,51,1,REAL,FAKE,,,,,,,,,,,,,,,,,
,,,,,,,,,662acd8fd604c93c4700fca6,Spanish,13 or older,"no, only English or Spanish",yes,2025-07-23_16h47.41.230,empathy_intonation_perc,2024.2.4,Win32,30.06614552,662acd8fd604c93c4700fca6,687ed1b7e638a4cbf2f02089,68814a327dd06b9cb772bd15,,,,,,,,,,,,,,1,,,,,,,,,,,,,,,,,,,,,,,,,,,,,,,,,,,,,,,,,,,,,,,,,,,,,,,,,91,click the 1 key.,,,,,667.553,669.785,1,1,1.656,,0,90,90,90,1,REAL,FAKE,,,,,,,,,,,,,,,,,
,,,,,,,,,662acd8fd604c93c4700fca6,Spanish,13 or older,"no, only English or Spanish",yes,2025-07-23_16h47.41.230,empathy_intonation_perc,2024.2.4,Win32,30.06614552,662acd8fd604c93c4700fca6,687ed1b7e638a4cbf2f02089,68814a327dd06b9cb772bd15,,,,,,,,,,,,,,1,,,,,,,,,,,,,,,,,,,,,,,,,,,,,,,,,,,,,,,,,,,,,,,,,,,,,,,,,49,ganar,,,,,669.786,671.718,0,0,1.401,,0,91,91,48,1,REAL,FAKE,,,,,,,,,,,,,,,,,
,,,,,,,,,662acd8fd604c93c4700fca6,Spanish,13 or older,"no, only English or Spanish",yes,2025-07-23_16h47.41.230,empathy_intonation_perc,2024.2.4,Win32,30.06614552,662acd8fd604c93c4700fca6,687ed1b7e638a4cbf2f02089,68814a327dd06b9cb772bd15,,,,,,,,,,,,,,,,,,,,,,,,,,,,,,,,,,,,,,,,,,,,,,,,,,,,,,,,,,,,,,,,,,,,,,,,,,,,,,,,,,,,,,,,,,671.719,679.386,,,,,,,,,,,,,,,
,,,,,,,,,662acd8fd604c93c4700fca6,Spanish,13 or older,"no, only English or Spanish",yes,2025-07-23_16h47.41.230,empathy_intonation_perc,2024.2.4,Win32,30.06614552,662acd8fd604c93c4700fca6,687ed1b7e638a4cbf2f02089,68814a327dd06b9cb772bd15,,,,,,,,,,,,,1,,,,,,,,,,,,,,,,,,,,,,,,,,,,,,,,,,,,,,,,,,,,,,,,,,,,,,,,,,,,,,,,,,,,,,,,,,,,,,,679.402,684.684,slightly agree,0,0,0,0,1,I can easily tell if someone else wants to enter a conversation.,1,0,1,0,,
,,,,,,,,,662acd8fd604c93c4700fca6,Spanish,13 or older,"no, only English or Spanish",yes,2025-07-23_16h47.41.230,empathy_intonation_perc,2024.2.4,Win32,30.06614552,662acd8fd604c93c4700fca6,687ed1b7e638a4cbf2f02089,68814a327dd06b9cb772bd15,,,,,,,,,,,,,2,,,,,,,,,,,,,,,,,,,,,,,,,,,,,,,,,,,,,,,,,,,,,,,,,,,,,,,,,,,,,,,,,,,,,,,,,,,,,,,684.686,688.851,strongly disagree,0,1,1,1,1,I prefer animals to humans.,0,1,0,0,,
,,,,,,,,,662acd8fd604c93c4700fca6,Spanish,13 or older,"no, only English or Spanish",yes,2025-07-23_16h47.41.230,empathy_intonation_perc,2024.2.4,Win32,30.06614552,662acd8fd604c93c4700fca6,687ed1b7e638a4cbf2f02089,68814a327dd06b9cb772bd15,,,,,,,,,,,,,3,,,,,,,,,,,,,,,,,,,,,,,,,,,,,,,,,,,,,,,,,,,,,,,,,,,,,,,,,,,,,,,,,,,,,,,,,,,,,,,688.852,692.218,slightly agree,0,2,2,2,1,I try to keep up with the current trends and fashions.,0,1,0,0,,
,,,,,,,,,662acd8fd604c93c4700fca6,Spanish,13 or older,"no, only English or Spanish",yes,2025-07-23_16h47.41.230,empathy_intonation_perc,2024.2.4,Win32,30.06614552,662acd8fd604c93c4700fca6,687ed1b7e638a4cbf2f02089,68814a327dd06b9cb772bd15,,,,,,,,,,,,,4,,,,,,,,,,,,,,,,,,,,,,,,,,,,,,,,,,,,,,,,,,,,,,,,,,,,,,,,,,,,,,,,,,,,,,,,,,,,,,,692.219,699.284,strongly disagree,0,3,3,3,1,"I find it difficult to explain to others things that I understand easily,   when they don't understand it first time.",1,0,0,1,,
,,,,,,,,,662acd8fd604c93c4700fca6,Spanish,13 or older,"no, only English or Spanish",yes,2025-07-23_16h47.41.230,empathy_intonation_perc,2024.2.4,Win32,30.06614552,662acd8fd604c93c4700fca6,687ed1b7e638a4cbf2f02089,68814a327dd06b9cb772bd15,,,,,,,,,,,,,5,,,,,,,,,,,,,,,,,,,,,,,,,,,,,,,,,,,,,,,,,,,,,,,,,,,,,,,,,,,,,,,,,,,,,,,,,,,,,,,699.285,702.183,slightly disagree,0,4,4,4,1,I dream most nights.,0,1,0,0,,
,,,,,,,,,662acd8fd604c93c4700fca6,Spanish,13 or older,"no, only English or Spanish",yes,2025-07-23_16h47.41.230,empathy_intonation_perc,2024.2.4,Win32,30.06614552,662acd8fd604c93c4700fca6,687ed1b7e638a4cbf2f02089,68814a327dd06b9cb772bd15,,,,,,,,,,,,,6,,,,,,,,,,,,,,,,,,,,,,,,,,,,,,,,,,,,,,,,,,,,,,,,,,,,,,,,,,,,,,,,,,,,,,,,,,,,,,,702.184,704.649,strongly agree,0,5,5,5,1,I really enjoy caring for other people.,1,0,1,0,,
,,,,,,,,,662acd8fd604c93c4700fca6,Spanish,13 or older,"no, only English or Spanish",yes,2025-07-23_16h47.41.230,empathy_intonation_perc,2024.2.4,Win32,30.06614552,662acd8fd604c93c4700fca6,687ed1b7e638a4cbf2f02089,68814a327dd06b9cb772bd15,,,,,,,,,,,,,7,,,,,,,,,,,,,,,,,,,,,,,,,,,,,,,,,,,,,,,,,,,,,,,,,,,,,,,,,,,,,,,,,,,,,,,,,,,,,,,704.65,709.117,strongly disagree,0,6,6,6,1,I try to solve my own problems rather than discussing them with others.,0,1,0,0,,
,,,,,,,,,662acd8fd604c93c4700fca6,Spanish,13 or older,"no, only English or Spanish",yes,2025-07-23_16h47.41.230,empathy_intonation_perc,2024.2.4,Win32,30.06614552,662acd8fd604c93c4700fca6,687ed1b7e638a4cbf2f02089,68814a327dd06b9cb772bd15,,,,,,,,,,,,,8,,,,,,,,,,,,,,,,,,,,,,,,,,,,,,,,,,,,,,,,,,,,,,,,,,,,,,,,,,,,,,,,,,,,,,,,,,,,,,,709.118,712.516,slightly disagree,0,7,7,7,1,I find it hard to know what to do in a social situation.,1,0,0,1,,
,,,,,,,,,662acd8fd604c93c4700fca6,Spanish,13 or older,"no, only English or Spanish",yes,2025-07-23_16h47.41.230,empathy_intonation_perc,2024.2.4,Win32,30.06614552,662acd8fd604c93c4700fca6,687ed1b7e638a4cbf2f02089,68814a327dd06b9cb772bd15,,,,,,,,,,,,,9,,,,,,,,,,,,,,,,,,,,,,,,,,,,,,,,,,,,,,,,,,,,,,,,,,,,,,,,,,,,,,,,,,,,,,,,,,,,,,,712.518,716.682,slightly agree,0,8,8,8,1,I am at my best first thing in the morning.,0,1,0,0,,
,,,,,,,,,662acd8fd604c93c4700fca6,Spanish,13 or older,"no, only English or Spanish",yes,2025-07-23_16h47.41.230,empathy_intonation_perc,2024.2.4,Win32,30.06614552,662acd8fd604c93c4700fca6,687ed1b7e638a4cbf2f02089,68814a327dd06b9cb772bd15,,,,,,,,,,,,,10,,,,,,,,,,,,,,,,,,,,,,,,,,,,,,,,,,,,,,,,,,,,,,,,,,,,,,,,,,,,,,,,,,,,,,,,,,,,,,,716.683,721.615,strongly disagree,0,9,9,9,1,People often tell me that I went too far in driving my point home in a discussion.,1,0,0,1,,
,,,,,,,,,662acd8fd604c93c4700fca6,Spanish,13 or older,"no, only English or Spanish",yes,2025-07-23_16h47.41.230,empathy_intonation_perc,2024.2.4,Win32,30.06614552,662acd8fd604c93c4700fca6,687ed1b7e638a4cbf2f02089,68814a327dd06b9cb772bd15,,,,,,,,,,,,,11,,,,,,,,,,,,,,,,,,,,,,,,,,,,,,,,,,,,,,,,,,,,,,,,,,,,,,,,,,,,,,,,,,,,,,,,,,,,,,,721.616,726.949,strongly disagree,0,10,10,10,1,It doesn't bother me too much if I am late meeting a friend.,1,0,0,1,,
