instructions_exposure.started,instructions_exposure.stopped,instructions_exposure_loop.thisRepN,instructions_exposure_loop.thisTrialN,instructions_exposure_loop.thisN,instructions_exposure_loop.thisIndex,instructions_exposure_loop.ran,instructions_text,continue_text,participant_id,"What variety of Spanish are you most familiar with? (e.g., Peruvian, Spanish, Mexican)",At what age did you begin learning Spanish?,Are you proficient in any languages other than English/Spanish?,"Are you familiar with Caribbean (e.g., Caribbean, Puerto Rican) or Galician Spanish?",date,expName,psychopyVersion,OS,frameRate,id,study_id,session,trial_exposure.started,trial_exposure.stopped,key_resp_exposure.keys,key_resp_exposure.corr,key_resp_exposure.rt,key_resp_exposure.duration,key_resp.keys,exposure_loop.thisRepN,exposure_loop.thisTrialN,exposure_loop.thisN,exposure_loop.thisIndex,exposure_loop.ran,item_num,correct_response,question,path,duration,instructions_2afc.started,instructions_2afc.stopped,instructions_2afc_loop.thisRepN,instructions_2afc_loop.thisTrialN,instructions_2afc_loop.thisN,instructions_2afc_loop.thisIndex,instructions_2afc_loop.ran,practice_2afc.started,practice_2afc.stopped,key_resp_2afc_practice.keys,key_resp_2afc_practice.corr,key_resp_2afc_practice.rt,key_resp_2afc_practice.duration,trials_2afc_practice_loop.thisRepN,trials_2afc_practice_loop.thisTrialN,trials_2afc_practice_loop.thisN,trials_2afc_practice_loop.thisIndex,trials_2afc_practice_loop.ran,check_2afc.started,check_2afc.stopped,trial_2afc.started,trial_2afc.stopped,key_resp_2afc_trial.keys,key_resp_2afc_trial.corr,key_resp_2afc_trial.rt,key_resp_2afc_trial.duration,trials_2afc_loop.thisRepN,trials_2afc_loop.thisTrialN,trials_2afc_loop.thisN,trials_2afc_loop.thisIndex,trials_2afc_loop.ran,target,variety,instructions_lextale.started,instructions_lextale.stopped,instructions_lextale_loop.thisRepN,instructions_lextale_loop.thisTrialN,instructions_lextale_loop.thisN,instructions_lextale_loop.thisIndex,instructions_lextale_loop.ran,practice_lextale.started,practice_lextale.stopped,key_resp_lextale_practice.keys,key_resp_lextale_practice.corr,key_resp_lextale_practice.rt,key_resp_lextale_practice.duration,practice_feedback_lextale.started,practice_feedback_lextale.stopped,trials_lextale_practice_loop.thisRepN,trials_lextale_practice_loop.thisTrialN,trials_lextale_practice_loop.thisN,trials_lextale_practice_loop.thisIndex,trials_lextale_practice_loop.ran,stim,word,prac_button_real,prac_button_false,check_lextale.started,check_lextale.stopped,trial_lextale.started,trial_lextale.stopped,key_resp_lextale_trial.keys,key_resp_lextale_trial.corr,key_resp_lextale_trial.rt,key_resp_lextale_trial.duration,trials_lextale_loop.thisRepN,trials_lextale_loop.thisTrialN,trials_lextale_loop.thisN,trials_lextale_loop.thisIndex,trials_lextale_loop.ran,button_real,button_false,instructions_eq.started,instructions_eq.stopped,trial_eq.started,trial_eq.stopped,slider_eq_trial.response,trials_eq_loop.thisRepN,trials_eq_loop.thisTrialN,trials_eq_loop.thisN,trials_eq_loop.thisIndex,trials_eq_loop.ran,item,is_test_item,is_distractor,is_agree_score,is_disagree_score,end_exp.started,end_exp.stopped
0.0173,5.5135,0,0,0,0,1,"In the following task, you are going to hear a series of conversations.", (press the space bar to continue),663298e9fb8d4ab0415f49fb,Caribbean Spanish,13 or older,"no, only English or Spanish",yes,2025-07-22_20h51.11.454,empathy_intonation_perc,2024.2.4,MacIntel,57.47126437,663298e9fb8d4ab0415f49fb,687ed1b7e638a4cbf2f02089,688031c403835510018c68d9,,,,,,,,,,,,,,,,,,,,,,,,,,,,,,,,,,,,,,,,,,,,,,,,,,,,,,,,,,,,,,,,,,,,,,,,,,,,,,,,,,,,,,,,,,,,,,,,,,,,,,,,,,
5.5143,14.0649,0,1,1,1,1,It is okay if you don't not 100% understand them!, (press the space bar to continue),663298e9fb8d4ab0415f49fb,Caribbean Spanish,13 or older,"no, only English or Spanish",yes,2025-07-22_20h51.11.454,empathy_intonation_perc,2024.2.4,MacIntel,57.47126437,663298e9fb8d4ab0415f49fb,687ed1b7e638a4cbf2f02089,688031c403835510018c68d9,,,,,,,,,,,,,,,,,,,,,,,,,,,,,,,,,,,,,,,,,,,,,,,,,,,,,,,,,,,,,,,,,,,,,,,,,,,,,,,,,,,,,,,,,,,,,,,,,,,,,,,,,,
14.0664,19.7814,0,2,2,2,1,"After, you will read a sentence about the conversation and decide if it's true or false.", (press the space bar to continue),663298e9fb8d4ab0415f49fb,Caribbean Spanish,13 or older,"no, only English or Spanish",yes,2025-07-22_20h51.11.454,empathy_intonation_perc,2024.2.4,MacIntel,57.47126437,663298e9fb8d4ab0415f49fb,687ed1b7e638a4cbf2f02089,688031c403835510018c68d9,,,,,,,,,,,,,,,,,,,,,,,,,,,,,,,,,,,,,,,,,,,,,,,,,,,,,,,,,,,,,,,,,,,,,,,,,,,,,,,,,,,,,,,,,,,,,,,,,,,,,,,,,,
19.7827,21.8993,0,3,3,3,1,"If it's true, press '1' (True) and if it's false press '0' (False).", (press the space bar to continue),663298e9fb8d4ab0415f49fb,Caribbean Spanish,13 or older,"no, only English or Spanish",yes,2025-07-22_20h51.11.454,empathy_intonation_perc,2024.2.4,MacIntel,57.47126437,663298e9fb8d4ab0415f49fb,687ed1b7e638a4cbf2f02089,688031c403835510018c68d9,,,,,,,,,,,,,,,,,,,,,,,,,,,,,,,,,,,,,,,,,,,,,,,,,,,,,,,,,,,,,,,,,,,,,,,,,,,,,,,,,,,,,,,,,,,,,,,,,,,,,,,,,,
,,,,,,,,,663298e9fb8d4ab0415f49fb,Caribbean Spanish,13 or older,"no, only English or Spanish",yes,2025-07-22_20h51.11.454,empathy_intonation_perc,2024.2.4,MacIntel,57.47126437,663298e9fb8d4ab0415f49fb,687ed1b7e638a4cbf2f02089,688031c403835510018c68d9,21.909,132.5796,1,1,50.6059,,,0,0,0,1,1,2,1,The mom asked the daughter if she already went to the supermarket.,./stim/exposure_wavs/dr_stimuli_convo.wav,60,,,,,,,,,,,,,,,,,,,,,,,,,,,,,,,,,,,,,,,,,,,,,,,,,,,,,,,,,,,,,,,,,,,,,,,,,,,,,,,,,,,,,,,,,
,,,,,,,,,663298e9fb8d4ab0415f49fb,Caribbean Spanish,13 or older,"no, only English or Spanish",yes,2025-07-22_20h51.11.454,empathy_intonation_perc,2024.2.4,MacIntel,57.47126437,663298e9fb8d4ab0415f49fb,687ed1b7e638a4cbf2f02089,688031c403835510018c68d9,132.5814,177.5507,0,1,8.946,,,0,1,1,2,1,3,0,The mom already has rice.,./stim/exposure_wavs/pr_stimuli_convo.wav,36,,,,,,,,,,,,,,,,,,,,,,,,,,,,,,,,,,,,,,,,,,,,,,,,,,,,,,,,,,,,,,,,,,,,,,,,,,,,,,,,,,,,,,,,,
,,,,,,,,,663298e9fb8d4ab0415f49fb,Caribbean Spanish,13 or older,"no, only English or Spanish",yes,2025-07-22_20h51.11.454,empathy_intonation_perc,2024.2.4,MacIntel,57.47126437,663298e9fb8d4ab0415f49fb,687ed1b7e638a4cbf2f02089,688031c403835510018c68d9,177.5519,236.2074,0,0,11.6238,,,0,2,2,0,1,1,1,The son asked the mom if Aunt Marina is okay.,./stim/exposure_wavs/ga_stimuli_convo.wav,47,,,,,,,,,,,,,,,,,,,,,,,,,,,,,,,,,,,,,,,,,,,,,,,,,,,,,,,,,,,,,,,,,,,,,,,,,,,,,,,,,,,,,,,,,
,,,,,,,"In the following task you are going to hear a series of utterances. 

  You will decide if the utterances sound like questions or not using your keyboard.", (press the spacebar to continue),663298e9fb8d4ab0415f49fb,Caribbean Spanish,13 or older,"no, only English or Spanish",yes,2025-07-22_20h51.11.454,empathy_intonation_perc,2024.2.4,MacIntel,57.47126437,663298e9fb8d4ab0415f49fb,687ed1b7e638a4cbf2f02089,688031c403835510018c68d9,,,,,,,,,,,,,,,,,,236.2158,246.5266,0,0,0,0,1,,,,,,,,,,,,,,,,,,,,,,,,,,,,,,,,,,,,,,,,,,,,,,,,,,,,,,,,,,,,,,,,,,,,,,,,,,,,,,,,,,
,,,,,,,"If you believe the utterance is a question, type '1' (for 'yes') and if you do not 
  believe it is a question type '0' (for 'no').

  Let's practice a bit...", (press the spacebar to continue),663298e9fb8d4ab0415f49fb,Caribbean Spanish,13 or older,"no, only English or Spanish",yes,2025-07-22_20h51.11.454,empathy_intonation_perc,2024.2.4,MacIntel,57.47126437,663298e9fb8d4ab0415f49fb,687ed1b7e638a4cbf2f02089,688031c403835510018c68d9,,,,,,,,,,,,,,,,,,246.5284,253.7938,0,1,1,1,1,,,,,,,,,,,,,,,,,,,,,,,,,,,,,,,,,,,,,,,,,,,,,,,,,,,,,,,,,,,,,,,,,,,,,,,,,,,,,,,,,,
,,,,,,,,,663298e9fb8d4ab0415f49fb,Caribbean Spanish,13 or older,"no, only English or Spanish",yes,2025-07-22_20h51.11.454,empathy_intonation_perc,2024.2.4,MacIntel,57.47126437,663298e9fb8d4ab0415f49fb,687ed1b7e638a4cbf2f02089,688031c403835510018c68d9,,,,,,,,,,,,,,1,,./stim/wavs/argentine_question_filler_Mi-vecino-habla-mucho.wav,,,,,,,,,253.8005,256.8105,1,1,2.4857,,0,0,0,1,1,,,,,,,,,,,,,,,,,,,,,,,,,,,,,,,,,,,,,,,,,,,,,,,,,,,,,,,,,,,,,,,,,,,,,,,
,,,,,,,,,663298e9fb8d4ab0415f49fb,Caribbean Spanish,13 or older,"no, only English or Spanish",yes,2025-07-22_20h51.11.454,empathy_intonation_perc,2024.2.4,MacIntel,57.47126437,663298e9fb8d4ab0415f49fb,687ed1b7e638a4cbf2f02089,688031c403835510018c68d9,,,,,,,,,,,,,,0,,./stim/wavs/andalusian_statement_filler_Alberto-nunca-se-afeita.wav,,,,,,,,,256.8111,259.9775,0,1,2.6522,,0,1,1,5,1,,,,,,,,,,,,,,,,,,,,,,,,,,,,,,,,,,,,,,,,,,,,,,,,,,,,,,,,,,,,,,,,,,,,,,,
,,,,,,,,,663298e9fb8d4ab0415f49fb,Caribbean Spanish,13 or older,"no, only English or Spanish",yes,2025-07-22_20h51.11.454,empathy_intonation_perc,2024.2.4,MacIntel,57.47126437,663298e9fb8d4ab0415f49fb,687ed1b7e638a4cbf2f02089,688031c403835510018c68d9,,,,,,,,,,,,,,1,,./stim/wavs/castilian_question_filler_Mi-esposo-conoce-al-chico.wav,,,,,,,,,259.978,263.1118,1,1,2.6034,,0,2,2,0,1,,,,,,,,,,,,,,,,,,,,,,,,,,,,,,,,,,,,,,,,,,,,,,,,,,,,,,,,,,,,,,,,,,,,,,,
,,,,,,,,,663298e9fb8d4ab0415f49fb,Caribbean Spanish,13 or older,"no, only English or Spanish",yes,2025-07-22_20h51.11.454,empathy_intonation_perc,2024.2.4,MacIntel,57.47126437,663298e9fb8d4ab0415f49fb,687ed1b7e638a4cbf2f02089,688031c403835510018c68d9,,,,,,,,,,,,,,1,,./stim/wavs/mexican_question_filler_Felipe-no-tiene-contrasena.wav,,,,,,,,,263.1123,266.428,1,1,2.7901,,0,3,3,3,1,,,,,,,,,,,,,,,,,,,,,,,,,,,,,,,,,,,,,,,,,,,,,,,,,,,,,,,,,,,,,,,,,,,,,,,
,,,,,,,,,663298e9fb8d4ab0415f49fb,Caribbean Spanish,13 or older,"no, only English or Spanish",yes,2025-07-22_20h51.11.454,empathy_intonation_perc,2024.2.4,MacIntel,57.47126437,663298e9fb8d4ab0415f49fb,687ed1b7e638a4cbf2f02089,688031c403835510018c68d9,,,,,,,,,,,,,,1,,./stim/wavs/chilean_question_filler_Mi-padre-cantaba-bien.wav,,,,,,,,,266.4284,272.079,1,1,5.1201,,0,4,4,2,1,,,,,,,,,,,,,,,,,,,,,,,,,,,,,,,,,,,,,,,,,,,,,,,,,,,,,,,,,,,,,,,,,,,,,,,
,,,,,,,,,663298e9fb8d4ab0415f49fb,Caribbean Spanish,13 or older,"no, only English or Spanish",yes,2025-07-22_20h51.11.454,empathy_intonation_perc,2024.2.4,MacIntel,57.47126437,663298e9fb8d4ab0415f49fb,687ed1b7e638a4cbf2f02089,688031c403835510018c68d9,,,,,,,,,,,,,,0,,./stim/wavs/cuban_statement_filler_Cocinabas-por-la-noche.wav,,,,,,,,,272.0794,275.4463,0,1,2.8371,,0,5,5,4,1,,,,,,,,,,,,,,,,,,,,,,,,,,,,,,,,,,,,,,,,,,,,,,,,,,,,,,,,,,,,,,,,,,,,,,,
,,,,,,,,,663298e9fb8d4ab0415f49fb,Caribbean Spanish,13 or older,"no, only English or Spanish",yes,2025-07-22_20h51.11.454,empathy_intonation_perc,2024.2.4,MacIntel,57.47126437,663298e9fb8d4ab0415f49fb,687ed1b7e638a4cbf2f02089,688031c403835510018c68d9,,,,,,,,,,,,,,0,,./stim/wavs/peruvian_statement_filler_El-nino-habla-con-su-madre.wav,,,,,,,,,275.4467,279.7804,0,1,3.8001,,0,6,6,6,1,,,,,,,,,,,,,,,,,,,,,,,,,,,,,,,,,,,,,,,,,,,,,,,,,,,,,,,,,,,,,,,,,,,,,,,
,,,,,,,,,663298e9fb8d4ab0415f49fb,Caribbean Spanish,13 or older,"no, only English or Spanish",yes,2025-07-22_20h51.11.454,empathy_intonation_perc,2024.2.4,MacIntel,57.47126437,663298e9fb8d4ab0415f49fb,687ed1b7e638a4cbf2f02089,688031c403835510018c68d9,,,,,,,,,,,,,,0,,./stim/wavs/puertorican_statement_filler_La-nina-pinta-con-su-amiga.wav,,,,,,,,,279.7809,283.1141,0,1,2.8017,,0,7,7,7,1,,,,,,,,,,,,,,,,,,,,,,,,,,,,,,,,,,,,,,,,,,,,,,,,,,,,,,,,,,,,,,,,,,,,,,,
,,,,,,,,,663298e9fb8d4ab0415f49fb,Caribbean Spanish,13 or older,"no, only English or Spanish",yes,2025-07-22_20h51.11.454,empathy_intonation_perc,2024.2.4,MacIntel,57.47126437,663298e9fb8d4ab0415f49fb,687ed1b7e638a4cbf2f02089,688031c403835510018c68d9,,,,,,,,,,,,,,,,,,,,,,,,,,,,,,,,,,,,283.1144,285.9805,,,,,,,,,,,,,,,,,,,,,,,,,,,,,,,,,,,,,,,,,,,,,,,,,,,,,,,,,,,,,,,,,,,,,
,,,,,,,,,663298e9fb8d4ab0415f49fb,Caribbean Spanish,13 or older,"no, only English or Spanish",yes,2025-07-22_20h51.11.454,empathy_intonation_perc,2024.2.4,MacIntel,57.47126437,663298e9fb8d4ab0415f49fb,687ed1b7e638a4cbf2f02089,688031c403835510018c68d9,,,,,,,,,,,,,86,0,,./stim/wavs/puertorican_mismatch_declarative-broad-focus_El-nino-oye-el-rio.wav,,,,,,,,,,,,,,,,,,,,,,285.9902,289.7308,0,1,3.2163,,0,0,0,85,1,0,puertorican,,,,,,,,,,,,,,,,,,,,,,,,,,,,,,,,,,,,,,,,,,,,,,,,,,,,,,,,
,,,,,,,,,663298e9fb8d4ab0415f49fb,Caribbean Spanish,13 or older,"no, only English or Spanish",yes,2025-07-22_20h51.11.454,empathy_intonation_perc,2024.2.4,MacIntel,57.47126437,663298e9fb8d4ab0415f49fb,687ed1b7e638a4cbf2f02089,688031c403835510018c68d9,,,,,,,,,,,,,10,1,,./stim/wavs/cuban_match_interrogative-total-yn_Maria-bebe-el-vino.wav,,,,,,,,,,,,,,,,,,,,,,289.7315,294.9157,0,0,4.6673,,0,1,1,9,1,1,cuban,,,,,,,,,,,,,,,,,,,,,,,,,,,,,,,,,,,,,,,,,,,,,,,,,,,,,,,,
,,,,,,,,,663298e9fb8d4ab0415f49fb,Caribbean Spanish,13 or older,"no, only English or Spanish",yes,2025-07-22_20h51.11.454,empathy_intonation_perc,2024.2.4,MacIntel,57.47126437,663298e9fb8d4ab0415f49fb,687ed1b7e638a4cbf2f02089,688031c403835510018c68d9,,,,,,,,,,,,,45,0,,./stim/wavs/castilian_match_declarative-broad-focus_David-leia-el-libro.wav,,,,,,,,,,,,,,,,,,,,,,294.9161,300.283,0,1,4.8337,,0,2,2,44,1,0,castilian,,,,,,,,,,,,,,,,,,,,,,,,,,,,,,,,,,,,,,,,,,,,,,,,,,,,,,,,
,,,,,,,,,663298e9fb8d4ab0415f49fb,Caribbean Spanish,13 or older,"no, only English or Spanish",yes,2025-07-22_20h51.11.454,empathy_intonation_perc,2024.2.4,MacIntel,57.47126437,663298e9fb8d4ab0415f49fb,687ed1b7e638a4cbf2f02089,688031c403835510018c68d9,,,,,,,,,,,,,88,0,,./stim/wavs/puertorican_mismatch_declarative-broad-focus_La-nina-lava-el-plato.wav,,,,,,,,,,,,,,,,,,,,,,300.2834,306.4157,0,1,5.6024,,0,3,3,87,1,0,puertorican,,,,,,,,,,,,,,,,,,,,,,,,,,,,,,,,,,,,,,,,,,,,,,,,,,,,,,,,
,,,,,,,,,663298e9fb8d4ab0415f49fb,Caribbean Spanish,13 or older,"no, only English or Spanish",yes,2025-07-22_20h51.11.454,empathy_intonation_perc,2024.2.4,MacIntel,57.47126437,663298e9fb8d4ab0415f49fb,687ed1b7e638a4cbf2f02089,688031c403835510018c68d9,,,,,,,,,,,,,30,1,,./stim/wavs/cuban_mismatch_interrogative-total-yn_El-hombre-mira-la-luna.wav,,,,,,,,,,,,,,,,,,,,,,306.4161,311.8176,1,1,4.8704,,0,4,4,29,1,1,cuban,,,,,,,,,,,,,,,,,,,,,,,,,,,,,,,,,,,,,,,,,,,,,,,,,,,,,,,,
,,,,,,,,,663298e9fb8d4ab0415f49fb,Caribbean Spanish,13 or older,"no, only English or Spanish",yes,2025-07-22_20h51.11.454,empathy_intonation_perc,2024.2.4,MacIntel,57.47126437,663298e9fb8d4ab0415f49fb,687ed1b7e638a4cbf2f02089,688031c403835510018c68d9,,,,,,,,,,,,,27,1,,./stim/wavs/castilian_mismatch_interrogative-total-yn_Mi-madre-come-la-fruta.wav,,,,,,,,,,,,,,,,,,,,,,311.8181,314.4338,1,1,2.0839,,0,5,5,26,1,0,castilian,,,,,,,,,,,,,,,,,,,,,,,,,,,,,,,,,,,,,,,,,,,,,,,,,,,,,,,,
,,,,,,,,,663298e9fb8d4ab0415f49fb,Caribbean Spanish,13 or older,"no, only English or Spanish",yes,2025-07-22_20h51.11.454,empathy_intonation_perc,2024.2.4,MacIntel,57.47126437,663298e9fb8d4ab0415f49fb,687ed1b7e638a4cbf2f02089,688031c403835510018c68d9,,,,,,,,,,,,,24,1,,./stim/wavs/puertorican_match_interrogative-total-yn_Maria-bebe-el-vino.wav,,,,,,,,,,,,,,,,,,,,,,314.4343,319.8841,0,0,4.9164,,0,6,6,23,1,1,puertorican,,,,,,,,,,,,,,,,,,,,,,,,,,,,,,,,,,,,,,,,,,,,,,,,,,,,,,,,
,,,,,,,,,663298e9fb8d4ab0415f49fb,Caribbean Spanish,13 or older,"no, only English or Spanish",yes,2025-07-22_20h51.11.454,empathy_intonation_perc,2024.2.4,MacIntel,57.47126437,663298e9fb8d4ab0415f49fb,687ed1b7e638a4cbf2f02089,688031c403835510018c68d9,,,,,,,,,,,,,67,0,,./stim/wavs/puertorican_match_declarative-broad-focus_Manuela-vende-el-carro.wav,,,,,,,,,,,,,,,,,,,,,,319.8845,325.6856,1,0,5.2837,,0,7,7,66,1,0,puertorican,,,,,,,,,,,,,,,,,,,,,,,,,,,,,,,,,,,,,,,,,,,,,,,,,,,,,,,,
,,,,,,,,,663298e9fb8d4ab0415f49fb,Caribbean Spanish,13 or older,"no, only English or Spanish",yes,2025-07-22_20h51.11.454,empathy_intonation_perc,2024.2.4,MacIntel,57.47126437,663298e9fb8d4ab0415f49fb,687ed1b7e638a4cbf2f02089,688031c403835510018c68d9,,,,,,,,,,,,,11,1,,./stim/wavs/cuban_match_interrogative-total-yn_Mariano-habla-del-tiempo.wav,,,,,,,,,,,,,,,,,,,,,,325.686,330.6532,0,0,4.4343,,0,8,8,10,1,1,cuban,,,,,,,,,,,,,,,,,,,,,,,,,,,,,,,,,,,,,,,,,,,,,,,,,,,,,,,,
,,,,,,,,,663298e9fb8d4ab0415f49fb,Caribbean Spanish,13 or older,"no, only English or Spanish",yes,2025-07-22_20h51.11.454,empathy_intonation_perc,2024.2.4,MacIntel,57.47126437,663298e9fb8d4ab0415f49fb,687ed1b7e638a4cbf2f02089,688031c403835510018c68d9,,,,,,,,,,,,,58,0,,./stim/wavs/mexican_match_declarative-broad-focus_Daniel-iba-a-Bolivia.wav,,,,,,,,,,,,,,,,,,,,,,330.6537,335.3201,1,0,4.1367,,0,9,9,57,1,0,mexican,,,,,,,,,,,,,,,,,,,,,,,,,,,,,,,,,,,,,,,,,,,,,,,,,,,,,,,,
,,,,,,,,,663298e9fb8d4ab0415f49fb,Caribbean Spanish,13 or older,"no, only English or Spanish",yes,2025-07-22_20h51.11.454,empathy_intonation_perc,2024.2.4,MacIntel,57.47126437,663298e9fb8d4ab0415f49fb,687ed1b7e638a4cbf2f02089,688031c403835510018c68d9,,,,,,,,,,,,,69,0,,./stim/wavs/castilian_mismatch_declarative-broad-focus_El-nino-oye-el-rio.wav,,,,,,,,,,,,,,,,,,,,,,335.3205,340.1709,1,0,4.3171,,0,10,10,68,1,0,castilian,,,,,,,,,,,,,,,,,,,,,,,,,,,,,,,,,,,,,,,,,,,,,,,,,,,,,,,,
,,,,,,,,,663298e9fb8d4ab0415f49fb,Caribbean Spanish,13 or older,"no, only English or Spanish",yes,2025-07-22_20h51.11.454,empathy_intonation_perc,2024.2.4,MacIntel,57.47126437,663298e9fb8d4ab0415f49fb,687ed1b7e638a4cbf2f02089,688031c403835510018c68d9,,,,,,,,,,,,,80,0,,./stim/wavs/mexican_mismatch_declarative-broad-focus_El-hombre-mira-la-luna.wav,,,,,,,,,,,,,,,,,,,,,,340.1713,346.5207,0,1,5.819,,0,11,11,79,1,0,mexican,,,,,,,,,,,,,,,,,,,,,,,,,,,,,,,,,,,,,,,,,,,,,,,,,,,,,,,,
,,,,,,,,,663298e9fb8d4ab0415f49fb,Caribbean Spanish,13 or older,"no, only English or Spanish",yes,2025-07-22_20h51.11.454,empathy_intonation_perc,2024.2.4,MacIntel,57.47126437,663298e9fb8d4ab0415f49fb,687ed1b7e638a4cbf2f02089,688031c403835510018c68d9,,,,,,,,,,,,,75,0,,./stim/wavs/cuban_mismatch_declarative-broad-focus_El-hombre-mira-la-luna.wav,,,,,,,,,,,,,,,,,,,,,,346.5212,349.7556,0,1,2.7172,,0,12,12,74,1,0,cuban,,,,,,,,,,,,,,,,,,,,,,,,,,,,,,,,,,,,,,,,,,,,,,,,,,,,,,,,
,,,,,,,,,663298e9fb8d4ab0415f49fb,Caribbean Spanish,13 or older,"no, only English or Spanish",yes,2025-07-22_20h51.11.454,empathy_intonation_perc,2024.2.4,MacIntel,57.47126437,663298e9fb8d4ab0415f49fb,687ed1b7e638a4cbf2f02089,688031c403835510018c68d9,,,,,,,,,,,,,66,0,,./stim/wavs/puertorican_match_declarative-broad-focus_Emilio-ama-la-marcha.wav,,,,,,,,,,,,,,,,,,,,,,349.756,352.1049,1,0,1.8178,,0,13,13,65,1,0,puertorican,,,,,,,,,,,,,,,,,,,,,,,,,,,,,,,,,,,,,,,,,,,,,,,,,,,,,,,,
,,,,,,,,,663298e9fb8d4ab0415f49fb,Caribbean Spanish,13 or older,"no, only English or Spanish",yes,2025-07-22_20h51.11.454,empathy_intonation_perc,2024.2.4,MacIntel,57.47126437,663298e9fb8d4ab0415f49fb,687ed1b7e638a4cbf2f02089,688031c403835510018c68d9,,,,,,,,,,,,,49,0,,./stim/wavs/castilian_match_declarative-broad-focus_Mariano-habla-del-tiempo.wav,,,,,,,,,,,,,,,,,,,,,,352.1054,355.3228,0,1,2.6999,,0,14,14,48,1,0,castilian,,,,,,,,,,,,,,,,,,,,,,,,,,,,,,,,,,,,,,,,,,,,,,,,,,,,,,,,
,,,,,,,,,663298e9fb8d4ab0415f49fb,Caribbean Spanish,13 or older,"no, only English or Spanish",yes,2025-07-22_20h51.11.454,empathy_intonation_perc,2024.2.4,MacIntel,57.47126437,663298e9fb8d4ab0415f49fb,687ed1b7e638a4cbf2f02089,688031c403835510018c68d9,,,,,,,,,,,,,47,0,,./stim/wavs/castilian_match_declarative-broad-focus_Manuela-vende-el-carro.wav,,,,,,,,,,,,,,,,,,,,,,355.3235,358.2063,0,1,2.3546,,0,15,15,46,1,0,castilian,,,,,,,,,,,,,,,,,,,,,,,,,,,,,,,,,,,,,,,,,,,,,,,,,,,,,,,,
,,,,,,,,,663298e9fb8d4ab0415f49fb,Caribbean Spanish,13 or older,"no, only English or Spanish",yes,2025-07-22_20h51.11.454,empathy_intonation_perc,2024.2.4,MacIntel,57.47126437,663298e9fb8d4ab0415f49fb,687ed1b7e638a4cbf2f02089,688031c403835510018c68d9,,,,,,,,,,,,,39,1,,./stim/wavs/mexican_mismatch_interrogative-total-yn_Mi-tia-odia-la-lluvia.wav,,,,,,,,,,,,,,,,,,,,,,358.2066,360.3068,1,1,1.583,,0,16,16,38,1,0,mexican,,,,,,,,,,,,,,,,,,,,,,,,,,,,,,,,,,,,,,,,,,,,,,,,,,,,,,,,
,,,,,,,,,663298e9fb8d4ab0415f49fb,Caribbean Spanish,13 or older,"no, only English or Spanish",yes,2025-07-22_20h51.11.454,empathy_intonation_perc,2024.2.4,MacIntel,57.47126437,663298e9fb8d4ab0415f49fb,687ed1b7e638a4cbf2f02089,688031c403835510018c68d9,,,,,,,,,,,,,14,1,,./stim/wavs/mexican_match_interrogative-total-yn_Daniel-iba-a-Bolivia.wav,,,,,,,,,,,,,,,,,,,,,,360.3073,362.5733,1,1,1.7385,,0,17,17,13,1,0,mexican,,,,,,,,,,,,,,,,,,,,,,,,,,,,,,,,,,,,,,,,,,,,,,,,,,,,,,,,
,,,,,,,,,663298e9fb8d4ab0415f49fb,Caribbean Spanish,13 or older,"no, only English or Spanish",yes,2025-07-22_20h51.11.454,empathy_intonation_perc,2024.2.4,MacIntel,57.47126437,663298e9fb8d4ab0415f49fb,687ed1b7e638a4cbf2f02089,688031c403835510018c68d9,,,,,,,,,,,,,25,1,,./stim/wavs/castilian_mismatch_interrogative-total-yn_La-maestra-vive-en-Paris.wav,,,,,,,,,,,,,,,,,,,,,,362.5737,365.0574,1,1,1.9691,,0,18,18,24,1,0,castilian,,,,,,,,,,,,,,,,,,,,,,,,,,,,,,,,,,,,,,,,,,,,,,,,,,,,,,,,
,,,,,,,,,663298e9fb8d4ab0415f49fb,Caribbean Spanish,13 or older,"no, only English or Spanish",yes,2025-07-22_20h51.11.454,empathy_intonation_perc,2024.2.4,MacIntel,57.47126437,663298e9fb8d4ab0415f49fb,687ed1b7e638a4cbf2f02089,688031c403835510018c68d9,,,,,,,,,,,,,50,0,,./stim/wavs/castilian_match_declarative-broad-focus_Marta-abre-el-regalo.wav,,,,,,,,,,,,,,,,,,,,,,365.0579,368.1404,0,1,2.5553,,0,19,19,49,1,0,castilian,,,,,,,,,,,,,,,,,,,,,,,,,,,,,,,,,,,,,,,,,,,,,,,,,,,,,,,,
,,,,,,,,,663298e9fb8d4ab0415f49fb,Caribbean Spanish,13 or older,"no, only English or Spanish",yes,2025-07-22_20h51.11.454,empathy_intonation_perc,2024.2.4,MacIntel,57.47126437,663298e9fb8d4ab0415f49fb,687ed1b7e638a4cbf2f02089,688031c403835510018c68d9,,,,,,,,,,,,,85,0,,./stim/wavs/puertorican_mismatch_declarative-broad-focus_El-hombre-mira-la-luna.wav,,,,,,,,,,,,,,,,,,,,,,368.1408,371.5912,0,1,2.9363,,0,20,20,84,1,0,puertorican,,,,,,,,,,,,,,,,,,,,,,,,,,,,,,,,,,,,,,,,,,,,,,,,,,,,,,,,
,,,,,,,,,663298e9fb8d4ab0415f49fb,Caribbean Spanish,13 or older,"no, only English or Spanish",yes,2025-07-22_20h51.11.454,empathy_intonation_perc,2024.2.4,MacIntel,57.47126437,663298e9fb8d4ab0415f49fb,687ed1b7e638a4cbf2f02089,688031c403835510018c68d9,,,,,,,,,,,,,18,1,,./stim/wavs/mexican_match_interrogative-total-yn_Marta-abre-el-regalo.wav,,,,,,,,,,,,,,,,,,,,,,371.5917,373.8085,1,1,1.6862,,0,21,21,17,1,0,mexican,,,,,,,,,,,,,,,,,,,,,,,,,,,,,,,,,,,,,,,,,,,,,,,,,,,,,,,,
,,,,,,,,,663298e9fb8d4ab0415f49fb,Caribbean Spanish,13 or older,"no, only English or Spanish",yes,2025-07-22_20h51.11.454,empathy_intonation_perc,2024.2.4,MacIntel,57.47126437,663298e9fb8d4ab0415f49fb,687ed1b7e638a4cbf2f02089,688031c403835510018c68d9,,,,,,,,,,,,,44,1,,./stim/wavs/puertorican_mismatch_interrogative-total-yn_Mi-madre-come-la-fruta.wav,,,,,,,,,,,,,,,,,,,,,,373.809,376.4909,0,0,2.15,,0,22,22,43,1,1,puertorican,,,,,,,,,,,,,,,,,,,,,,,,,,,,,,,,,,,,,,,,,,,,,,,,,,,,,,,,
,,,,,,,,,663298e9fb8d4ab0415f49fb,Caribbean Spanish,13 or older,"no, only English or Spanish",yes,2025-07-22_20h51.11.454,empathy_intonation_perc,2024.2.4,MacIntel,57.47126437,663298e9fb8d4ab0415f49fb,687ed1b7e638a4cbf2f02089,688031c403835510018c68d9,,,,,,,,,,,,,3,1,,./stim/wavs/castilian_match_interrogative-total-yn_Manuela-vende-el-carro.wav,,,,,,,,,,,,,,,,,,,,,,376.4912,378.809,1,1,1.7866,,0,23,23,2,1,0,castilian,,,,,,,,,,,,,,,,,,,,,,,,,,,,,,,,,,,,,,,,,,,,,,,,,,,,,,,,
,,,,,,,,,663298e9fb8d4ab0415f49fb,Caribbean Spanish,13 or older,"no, only English or Spanish",yes,2025-07-22_20h51.11.454,empathy_intonation_perc,2024.2.4,MacIntel,57.47126437,663298e9fb8d4ab0415f49fb,687ed1b7e638a4cbf2f02089,688031c403835510018c68d9,,,,,,,,,,,,,43,1,,./stim/wavs/puertorican_mismatch_interrogative-total-yn_La-nina-lava-el-plato.wav,,,,,,,,,,,,,,,,,,,,,,378.8096,381.876,0,0,2.5347,,0,24,24,42,1,1,puertorican,,,,,,,,,,,,,,,,,,,,,,,,,,,,,,,,,,,,,,,,,,,,,,,,,,,,,,,,
,,,,,,,,,663298e9fb8d4ab0415f49fb,Caribbean Spanish,13 or older,"no, only English or Spanish",yes,2025-07-22_20h51.11.454,empathy_intonation_perc,2024.2.4,MacIntel,57.47126437,663298e9fb8d4ab0415f49fb,687ed1b7e638a4cbf2f02089,688031c403835510018c68d9,,,,,,,,,,,,,74,0,,./stim/wavs/cuban_mismatch_declarative-broad-focus_El-bebe-comia-muy-bien.wav,,,,,,,,,,,,,,,,,,,,,,381.8764,384.3261,0,1,1.9173,,0,25,25,73,1,0,cuban,,,,,,,,,,,,,,,,,,,,,,,,,,,,,,,,,,,,,,,,,,,,,,,,,,,,,,,,
,,,,,,,,,663298e9fb8d4ab0415f49fb,Caribbean Spanish,13 or older,"no, only English or Spanish",yes,2025-07-22_20h51.11.454,empathy_intonation_perc,2024.2.4,MacIntel,57.47126437,663298e9fb8d4ab0415f49fb,687ed1b7e638a4cbf2f02089,688031c403835510018c68d9,,,,,,,,,,,,,79,0,,./stim/wavs/mexican_mismatch_declarative-broad-focus_El-bebe-comia-muy-bien.wav,,,,,,,,,,,,,,,,,,,,,,384.3265,386.9597,1,0,2.1025,,0,26,26,78,1,0,mexican,,,,,,,,,,,,,,,,,,,,,,,,,,,,,,,,,,,,,,,,,,,,,,,,,,,,,,,,
,,,,,,,,,663298e9fb8d4ab0415f49fb,Caribbean Spanish,13 or older,"no, only English or Spanish",yes,2025-07-22_20h51.11.454,empathy_intonation_perc,2024.2.4,MacIntel,57.47126437,663298e9fb8d4ab0415f49fb,687ed1b7e638a4cbf2f02089,688031c403835510018c68d9,,,,,,,,,,,,,72,0,,./stim/wavs/castilian_mismatch_declarative-broad-focus_Mi-novio-viene-del-lago.wav,,,,,,,,,,,,,,,,,,,,,,386.9602,390.4431,0,1,2.9501,,0,27,27,71,1,0,castilian,,,,,,,,,,,,,,,,,,,,,,,,,,,,,,,,,,,,,,,,,,,,,,,,,,,,,,,,
,,,,,,,,,663298e9fb8d4ab0415f49fb,Caribbean Spanish,13 or older,"no, only English or Spanish",yes,2025-07-22_20h51.11.454,empathy_intonation_perc,2024.2.4,MacIntel,57.47126437,663298e9fb8d4ab0415f49fb,687ed1b7e638a4cbf2f02089,688031c403835510018c68d9,,,,,,,,,,,,,41,1,,./stim/wavs/puertorican_mismatch_interrogative-total-yn_El-nino-oye-el-rio.wav,,,,,,,,,,,,,,,,,,,,,,390.4436,392.6929,0,0,1.7385,,0,28,28,40,1,1,puertorican,,,,,,,,,,,,,,,,,,,,,,,,,,,,,,,,,,,,,,,,,,,,,,,,,,,,,,,,
,,,,,,,,,663298e9fb8d4ab0415f49fb,Caribbean Spanish,13 or older,"no, only English or Spanish",yes,2025-07-22_20h51.11.454,empathy_intonation_perc,2024.2.4,MacIntel,57.47126437,663298e9fb8d4ab0415f49fb,687ed1b7e638a4cbf2f02089,688031c403835510018c68d9,,,,,,,,,,,,,55,0,,./stim/wavs/cuban_match_declarative-broad-focus_Mariano-habla-del-tiempo.wav,,,,,,,,,,,,,,,,,,,,,,392.6933,395.0442,0,1,1.8328,,0,29,29,54,1,0,cuban,,,,,,,,,,,,,,,,,,,,,,,,,,,,,,,,,,,,,,,,,,,,,,,,,,,,,,,,
,,,,,,,,,663298e9fb8d4ab0415f49fb,Caribbean Spanish,13 or older,"no, only English or Spanish",yes,2025-07-22_20h51.11.454,empathy_intonation_perc,2024.2.4,MacIntel,57.47126437,663298e9fb8d4ab0415f49fb,687ed1b7e638a4cbf2f02089,688031c403835510018c68d9,,,,,,,,,,,,,32,1,,./stim/wavs/cuban_mismatch_interrogative-total-yn_Mi-madre-come-la-fruta.wav,,,,,,,,,,,,,,,,,,,,,,395.0448,398.8948,0,0,3.3172,,0,30,30,31,1,1,cuban,,,,,,,,,,,,,,,,,,,,,,,,,,,,,,,,,,,,,,,,,,,,,,,,,,,,,,,,
,,,,,,,,,663298e9fb8d4ab0415f49fb,Caribbean Spanish,13 or older,"no, only English or Spanish",yes,2025-07-22_20h51.11.454,empathy_intonation_perc,2024.2.4,MacIntel,57.47126437,663298e9fb8d4ab0415f49fb,687ed1b7e638a4cbf2f02089,688031c403835510018c68d9,,,,,,,,,,,,,53,0,,./stim/wavs/cuban_match_declarative-broad-focus_Manuela-vende-el-carro.wav,,,,,,,,,,,,,,,,,,,,,,398.8954,402.6278,0,1,3.2005,,0,31,31,52,1,0,cuban,,,,,,,,,,,,,,,,,,,,,,,,,,,,,,,,,,,,,,,,,,,,,,,,,,,,,,,,
,,,,,,,,,663298e9fb8d4ab0415f49fb,Caribbean Spanish,13 or older,"no, only English or Spanish",yes,2025-07-22_20h51.11.454,empathy_intonation_perc,2024.2.4,MacIntel,57.47126437,663298e9fb8d4ab0415f49fb,687ed1b7e638a4cbf2f02089,688031c403835510018c68d9,,,,,,,,,,,,,1,1,,./stim/wavs/castilian_match_interrogative-total-yn_David-leia-el-libro.wav,,,,,,,,,,,,,,,,,,,,,,402.6283,404.8288,1,1,1.684,,0,32,32,0,1,0,castilian,,,,,,,,,,,,,,,,,,,,,,,,,,,,,,,,,,,,,,,,,,,,,,,,,,,,,,,,
,,,,,,,,,663298e9fb8d4ab0415f49fb,Caribbean Spanish,13 or older,"no, only English or Spanish",yes,2025-07-22_20h51.11.454,empathy_intonation_perc,2024.2.4,MacIntel,57.47126437,663298e9fb8d4ab0415f49fb,687ed1b7e638a4cbf2f02089,688031c403835510018c68d9,,,,,,,,,,,,,16,1,,./stim/wavs/mexican_match_interrogative-total-yn_Emilio-ama-la-marcha.wav,,,,,,,,,,,,,,,,,,,,,,404.8293,406.8623,1,1,1.5059,,0,33,33,15,1,0,mexican,,,,,,,,,,,,,,,,,,,,,,,,,,,,,,,,,,,,,,,,,,,,,,,,,,,,,,,,
,,,,,,,,,663298e9fb8d4ab0415f49fb,Caribbean Spanish,13 or older,"no, only English or Spanish",yes,2025-07-22_20h51.11.454,empathy_intonation_perc,2024.2.4,MacIntel,57.47126437,663298e9fb8d4ab0415f49fb,687ed1b7e638a4cbf2f02089,688031c403835510018c68d9,,,,,,,,,,,,,21,1,,./stim/wavs/puertorican_match_interrogative-total-yn_David-leia-el-libro.wav,,,,,,,,,,,,,,,,,,,,,,406.8627,410.5961,0,0,3.1997,,0,34,34,20,1,1,puertorican,,,,,,,,,,,,,,,,,,,,,,,,,,,,,,,,,,,,,,,,,,,,,,,,,,,,,,,,
,,,,,,,,,663298e9fb8d4ab0415f49fb,Caribbean Spanish,13 or older,"no, only English or Spanish",yes,2025-07-22_20h51.11.454,empathy_intonation_perc,2024.2.4,MacIntel,57.47126437,663298e9fb8d4ab0415f49fb,687ed1b7e638a4cbf2f02089,688031c403835510018c68d9,,,,,,,,,,,,,20,1,,./stim/wavs/puertorican_match_interrogative-total-yn_Daniel-iba-a-Bolivia.wav,,,,,,,,,,,,,,,,,,,,,,410.5967,413.0464,1,1,1.9225,,0,35,35,19,1,1,puertorican,,,,,,,,,,,,,,,,,,,,,,,,,,,,,,,,,,,,,,,,,,,,,,,,,,,,,,,,
,,,,,,,,,663298e9fb8d4ab0415f49fb,Caribbean Spanish,13 or older,"no, only English or Spanish",yes,2025-07-22_20h51.11.454,empathy_intonation_perc,2024.2.4,MacIntel,57.47126437,663298e9fb8d4ab0415f49fb,687ed1b7e638a4cbf2f02089,688031c403835510018c68d9,,,,,,,,,,,,,83,0,,./stim/wavs/mexican_mismatch_declarative-broad-focus_Mi-tia-odia-la-lluvia.wav,,,,,,,,,,,,,,,,,,,,,,413.0468,415.1968,1,0,1.618,,0,36,36,82,1,0,mexican,,,,,,,,,,,,,,,,,,,,,,,,,,,,,,,,,,,,,,,,,,,,,,,,,,,,,,,,
,,,,,,,,,663298e9fb8d4ab0415f49fb,Caribbean Spanish,13 or older,"no, only English or Spanish",yes,2025-07-22_20h51.11.454,empathy_intonation_perc,2024.2.4,MacIntel,57.47126437,663298e9fb8d4ab0415f49fb,687ed1b7e638a4cbf2f02089,688031c403835510018c68d9,,,,,,,,,,,,,78,0,,./stim/wavs/cuban_mismatch_declarative-broad-focus_Mi-tia-odia-la-lluvia.wav,,,,,,,,,,,,,,,,,,,,,,415.1973,417.5957,0,1,1.8728,,0,37,37,77,1,0,cuban,,,,,,,,,,,,,,,,,,,,,,,,,,,,,,,,,,,,,,,,,,,,,,,,,,,,,,,,
,,,,,,,,,663298e9fb8d4ab0415f49fb,Caribbean Spanish,13 or older,"no, only English or Spanish",yes,2025-07-22_20h51.11.454,empathy_intonation_perc,2024.2.4,MacIntel,57.47126437,663298e9fb8d4ab0415f49fb,687ed1b7e638a4cbf2f02089,688031c403835510018c68d9,,,,,,,,,,,,,57,0,,./stim/wavs/mexican_match_declarative-broad-focus_Ana-lleva-el-abrigo.wav,,,,,,,,,,,,,,,,,,,,,,417.5961,420.1141,0,1,1.9833,,0,38,38,56,1,0,mexican,,,,,,,,,,,,,,,,,,,,,,,,,,,,,,,,,,,,,,,,,,,,,,,,,,,,,,,,
,,,,,,,,,663298e9fb8d4ab0415f49fb,Caribbean Spanish,13 or older,"no, only English or Spanish",yes,2025-07-22_20h51.11.454,empathy_intonation_perc,2024.2.4,MacIntel,57.47126437,663298e9fb8d4ab0415f49fb,687ed1b7e638a4cbf2f02089,688031c403835510018c68d9,,,,,,,,,,,,,62,0,,./stim/wavs/mexican_match_declarative-broad-focus_Marta-abre-el-regalo.wav,,,,,,,,,,,,,,,,,,,,,,420.1146,422.597,1,0,1.9508,,0,39,39,61,1,0,mexican,,,,,,,,,,,,,,,,,,,,,,,,,,,,,,,,,,,,,,,,,,,,,,,,,,,,,,,,
,,,,,,,,,663298e9fb8d4ab0415f49fb,Caribbean Spanish,13 or older,"no, only English or Spanish",yes,2025-07-22_20h51.11.454,empathy_intonation_perc,2024.2.4,MacIntel,57.47126437,663298e9fb8d4ab0415f49fb,687ed1b7e638a4cbf2f02089,688031c403835510018c68d9,,,,,,,,,,,,,48,0,,./stim/wavs/castilian_match_declarative-broad-focus_Maria-bebe-el-vino.wav,,,,,,,,,,,,,,,,,,,,,,422.5974,425.148,0,1,2.0331,,0,40,40,47,1,0,castilian,,,,,,,,,,,,,,,,,,,,,,,,,,,,,,,,,,,,,,,,,,,,,,,,,,,,,,,,
,,,,,,,,,663298e9fb8d4ab0415f49fb,Caribbean Spanish,13 or older,"no, only English or Spanish",yes,2025-07-22_20h51.11.454,empathy_intonation_perc,2024.2.4,MacIntel,57.47126437,663298e9fb8d4ab0415f49fb,687ed1b7e638a4cbf2f02089,688031c403835510018c68d9,,,,,,,,,,,,,4,1,,./stim/wavs/castilian_match_interrogative-total-yn_Maria-bebe-el-vino.wav,,,,,,,,,,,,,,,,,,,,,,425.1486,427.148,1,1,1.4659,,0,41,41,3,1,0,castilian,,,,,,,,,,,,,,,,,,,,,,,,,,,,,,,,,,,,,,,,,,,,,,,,,,,,,,,,
,,,,,,,,,663298e9fb8d4ab0415f49fb,Caribbean Spanish,13 or older,"no, only English or Spanish",yes,2025-07-22_20h51.11.454,empathy_intonation_perc,2024.2.4,MacIntel,57.47126437,663298e9fb8d4ab0415f49fb,687ed1b7e638a4cbf2f02089,688031c403835510018c68d9,,,,,,,,,,,,,52,0,,./stim/wavs/cuban_match_declarative-broad-focus_Daniel-iba-a-Bolivia.wav,,,,,,,,,,,,,,,,,,,,,,427.1485,430.0819,0,1,2.4003,,0,42,42,51,1,0,cuban,,,,,,,,,,,,,,,,,,,,,,,,,,,,,,,,,,,,,,,,,,,,,,,,,,,,,,,,
,,,,,,,,,663298e9fb8d4ab0415f49fb,Caribbean Spanish,13 or older,"no, only English or Spanish",yes,2025-07-22_20h51.11.454,empathy_intonation_perc,2024.2.4,MacIntel,57.47126437,663298e9fb8d4ab0415f49fb,687ed1b7e638a4cbf2f02089,688031c403835510018c68d9,,,,,,,,,,,,,35,1,,./stim/wavs/mexican_mismatch_interrogative-total-yn_El-hombre-mira-la-luna.wav,,,,,,,,,,,,,,,,,,,,,,430.0824,431.9989,1,1,1.3881,,0,43,43,34,1,0,mexican,,,,,,,,,,,,,,,,,,,,,,,,,,,,,,,,,,,,,,,,,,,,,,,,,,,,,,,,
,,,,,,,,,663298e9fb8d4ab0415f49fb,Caribbean Spanish,13 or older,"no, only English or Spanish",yes,2025-07-22_20h51.11.454,empathy_intonation_perc,2024.2.4,MacIntel,57.47126437,663298e9fb8d4ab0415f49fb,687ed1b7e638a4cbf2f02089,688031c403835510018c68d9,,,,,,,,,,,,,63,0,,./stim/wavs/puertorican_match_declarative-broad-focus_Ana-lleva-el-abrigo.wav,,,,,,,,,,,,,,,,,,,,,,431.9993,434.0155,0,1,1.4869,,0,44,44,62,1,0,puertorican,,,,,,,,,,,,,,,,,,,,,,,,,,,,,,,,,,,,,,,,,,,,,,,,,,,,,,,,
,,,,,,,,,663298e9fb8d4ab0415f49fb,Caribbean Spanish,13 or older,"no, only English or Spanish",yes,2025-07-22_20h51.11.454,empathy_intonation_perc,2024.2.4,MacIntel,57.47126437,663298e9fb8d4ab0415f49fb,687ed1b7e638a4cbf2f02089,688031c403835510018c68d9,,,,,,,,,,,,,17,1,,./stim/wavs/mexican_match_interrogative-total-yn_Mariano-habla-del-tiempo.wav,,,,,,,,,,,,,,,,,,,,,,434.0158,436.3491,1,1,1.8066,,0,45,45,16,1,0,mexican,,,,,,,,,,,,,,,,,,,,,,,,,,,,,,,,,,,,,,,,,,,,,,,,,,,,,,,,
,,,,,,,,,663298e9fb8d4ab0415f49fb,Caribbean Spanish,13 or older,"no, only English or Spanish",yes,2025-07-22_20h51.11.454,empathy_intonation_perc,2024.2.4,MacIntel,57.47126437,663298e9fb8d4ab0415f49fb,687ed1b7e638a4cbf2f02089,688031c403835510018c68d9,,,,,,,,,,,,,56,0,,./stim/wavs/cuban_match_declarative-broad-focus_Marta-abre-el-regalo.wav,,,,,,,,,,,,,,,,,,,,,,436.3495,438.6162,0,1,1.7343,,0,46,46,55,1,0,cuban,,,,,,,,,,,,,,,,,,,,,,,,,,,,,,,,,,,,,,,,,,,,,,,,,,,,,,,,
,,,,,,,,,663298e9fb8d4ab0415f49fb,Caribbean Spanish,13 or older,"no, only English or Spanish",yes,2025-07-22_20h51.11.454,empathy_intonation_perc,2024.2.4,MacIntel,57.47126437,663298e9fb8d4ab0415f49fb,687ed1b7e638a4cbf2f02089,688031c403835510018c68d9,,,,,,,,,,,,,31,1,,./stim/wavs/cuban_mismatch_interrogative-total-yn_El-nino-oye-el-rio.wav,,,,,,,,,,,,,,,,,,,,,,438.6167,444.1503,1,1,5.0001,,0,47,47,30,1,1,cuban,,,,,,,,,,,,,,,,,,,,,,,,,,,,,,,,,,,,,,,,,,,,,,,,,,,,,,,,
,,,,,,,,,663298e9fb8d4ab0415f49fb,Caribbean Spanish,13 or older,"no, only English or Spanish",yes,2025-07-22_20h51.11.454,empathy_intonation_perc,2024.2.4,MacIntel,57.47126437,663298e9fb8d4ab0415f49fb,687ed1b7e638a4cbf2f02089,688031c403835510018c68d9,,,,,,,,,,,,,28,1,,./stim/wavs/castilian_mismatch_interrogative-total-yn_Mi-novio-viene-del-lago.wav,,,,,,,,,,,,,,,,,,,,,,444.1508,446.6499,1,1,1.9658,,0,48,48,27,1,0,castilian,,,,,,,,,,,,,,,,,,,,,,,,,,,,,,,,,,,,,,,,,,,,,,,,,,,,,,,,
,,,,,,,,,663298e9fb8d4ab0415f49fb,Caribbean Spanish,13 or older,"no, only English or Spanish",yes,2025-07-22_20h51.11.454,empathy_intonation_perc,2024.2.4,MacIntel,57.47126437,663298e9fb8d4ab0415f49fb,687ed1b7e638a4cbf2f02089,688031c403835510018c68d9,,,,,,,,,,,,,5,1,,./stim/wavs/castilian_match_interrogative-total-yn_Mariano-habla-del-tiempo.wav,,,,,,,,,,,,,,,,,,,,,,446.6503,448.9496,1,1,1.7834,,0,49,49,4,1,0,castilian,,,,,,,,,,,,,,,,,,,,,,,,,,,,,,,,,,,,,,,,,,,,,,,,,,,,,,,,
,,,,,,,,,663298e9fb8d4ab0415f49fb,Caribbean Spanish,13 or older,"no, only English or Spanish",yes,2025-07-22_20h51.11.454,empathy_intonation_perc,2024.2.4,MacIntel,57.47126437,663298e9fb8d4ab0415f49fb,687ed1b7e638a4cbf2f02089,688031c403835510018c68d9,,,,,,,,,,,,,70,0,,./stim/wavs/castilian_mismatch_declarative-broad-focus_La-maestra-vive-en-Paris.wav,,,,,,,,,,,,,,,,,,,,,,448.9502,452.0511,0,1,2.5831,,0,50,50,69,1,0,castilian,,,,,,,,,,,,,,,,,,,,,,,,,,,,,,,,,,,,,,,,,,,,,,,,,,,,,,,,
,,,,,,,,,663298e9fb8d4ab0415f49fb,Caribbean Spanish,13 or older,"no, only English or Spanish",yes,2025-07-22_20h51.11.454,empathy_intonation_perc,2024.2.4,MacIntel,57.47126437,663298e9fb8d4ab0415f49fb,687ed1b7e638a4cbf2f02089,688031c403835510018c68d9,,,,,,,,,,,,,33,1,,./stim/wavs/cuban_mismatch_interrogative-total-yn_Mi-novio-viene-del-lago.wav,,,,,,,,,,,,,,,,,,,,,,452.0516,454.8178,1,1,2.2346,,0,51,51,32,1,1,cuban,,,,,,,,,,,,,,,,,,,,,,,,,,,,,,,,,,,,,,,,,,,,,,,,,,,,,,,,
,,,,,,,,,663298e9fb8d4ab0415f49fb,Caribbean Spanish,13 or older,"no, only English or Spanish",yes,2025-07-22_20h51.11.454,empathy_intonation_perc,2024.2.4,MacIntel,57.47126437,663298e9fb8d4ab0415f49fb,687ed1b7e638a4cbf2f02089,688031c403835510018c68d9,,,,,,,,,,,,,59,0,,./stim/wavs/mexican_match_declarative-broad-focus_David-leia-el-libro.wav,,,,,,,,,,,,,,,,,,,,,,454.8183,458.8018,0,1,3.4526,,0,52,52,58,1,0,mexican,,,,,,,,,,,,,,,,,,,,,,,,,,,,,,,,,,,,,,,,,,,,,,,,,,,,,,,,
,,,,,,,,,663298e9fb8d4ab0415f49fb,Caribbean Spanish,13 or older,"no, only English or Spanish",yes,2025-07-22_20h51.11.454,empathy_intonation_perc,2024.2.4,MacIntel,57.47126437,663298e9fb8d4ab0415f49fb,687ed1b7e638a4cbf2f02089,688031c403835510018c68d9,,,,,,,,,,,,,9,1,,./stim/wavs/cuban_match_interrogative-total-yn_Manuela-vende-el-carro.wav,,,,,,,,,,,,,,,,,,,,,,458.8023,466.2532,0,0,6.9186,,0,53,53,8,1,1,cuban,,,,,,,,,,,,,,,,,,,,,,,,,,,,,,,,,,,,,,,,,,,,,,,,,,,,,,,,
,,,,,,,,,663298e9fb8d4ab0415f49fb,Caribbean Spanish,13 or older,"no, only English or Spanish",yes,2025-07-22_20h51.11.454,empathy_intonation_perc,2024.2.4,MacIntel,57.47126437,663298e9fb8d4ab0415f49fb,687ed1b7e638a4cbf2f02089,688031c403835510018c68d9,,,,,,,,,,,,,87,0,,./stim/wavs/puertorican_mismatch_declarative-broad-focus_La-maestra-vive-en-Paris.wav,,,,,,,,,,,,,,,,,,,,,,466.2536,470.07,0,1,3.289,,0,54,54,86,1,0,puertorican,,,,,,,,,,,,,,,,,,,,,,,,,,,,,,,,,,,,,,,,,,,,,,,,,,,,,,,,
,,,,,,,,,663298e9fb8d4ab0415f49fb,Caribbean Spanish,13 or older,"no, only English or Spanish",yes,2025-07-22_20h51.11.454,empathy_intonation_perc,2024.2.4,MacIntel,57.47126437,663298e9fb8d4ab0415f49fb,687ed1b7e638a4cbf2f02089,688031c403835510018c68d9,,,,,,,,,,,,,8,1,,./stim/wavs/cuban_match_interrogative-total-yn_Daniel-iba-a-Bolivia.wav,,,,,,,,,,,,,,,,,,,,,,470.0705,472.8538,0,0,2.2502,,0,55,55,7,1,1,cuban,,,,,,,,,,,,,,,,,,,,,,,,,,,,,,,,,,,,,,,,,,,,,,,,,,,,,,,,
,,,,,,,,,663298e9fb8d4ab0415f49fb,Caribbean Spanish,13 or older,"no, only English or Spanish",yes,2025-07-22_20h51.11.454,empathy_intonation_perc,2024.2.4,MacIntel,57.47126437,663298e9fb8d4ab0415f49fb,687ed1b7e638a4cbf2f02089,688031c403835510018c68d9,,,,,,,,,,,,,68,0,,./stim/wavs/puertorican_match_declarative-broad-focus_Maria-bebe-el-vino.wav,,,,,,,,,,,,,,,,,,,,,,472.8543,474.754,1,0,1.3684,,0,56,56,67,1,0,puertorican,,,,,,,,,,,,,,,,,,,,,,,,,,,,,,,,,,,,,,,,,,,,,,,,,,,,,,,,
,,,,,,,,,663298e9fb8d4ab0415f49fb,Caribbean Spanish,13 or older,"no, only English or Spanish",yes,2025-07-22_20h51.11.454,empathy_intonation_perc,2024.2.4,MacIntel,57.47126437,663298e9fb8d4ab0415f49fb,687ed1b7e638a4cbf2f02089,688031c403835510018c68d9,,,,,,,,,,,,,76,0,,./stim/wavs/cuban_mismatch_declarative-broad-focus_La-nina-lava-el-plato.wav,,,,,,,,,,,,,,,,,,,,,,474.7546,478.1204,0,1,2.8335,,0,57,57,75,1,0,cuban,,,,,,,,,,,,,,,,,,,,,,,,,,,,,,,,,,,,,,,,,,,,,,,,,,,,,,,,
,,,,,,,,,663298e9fb8d4ab0415f49fb,Caribbean Spanish,13 or older,"no, only English or Spanish",yes,2025-07-22_20h51.11.454,empathy_intonation_perc,2024.2.4,MacIntel,57.47126437,663298e9fb8d4ab0415f49fb,687ed1b7e638a4cbf2f02089,688031c403835510018c68d9,,,,,,,,,,,,,71,0,,./stim/wavs/castilian_mismatch_declarative-broad-focus_La-nina-lava-el-plato.wav,,,,,,,,,,,,,,,,,,,,,,478.1206,482.5871,0,1,3.9497,,0,58,58,70,1,0,castilian,,,,,,,,,,,,,,,,,,,,,,,,,,,,,,,,,,,,,,,,,,,,,,,,,,,,,,,,
,,,,,,,,,663298e9fb8d4ab0415f49fb,Caribbean Spanish,13 or older,"no, only English or Spanish",yes,2025-07-22_20h51.11.454,empathy_intonation_perc,2024.2.4,MacIntel,57.47126437,663298e9fb8d4ab0415f49fb,687ed1b7e638a4cbf2f02089,688031c403835510018c68d9,,,,,,,,,,,,,7,1,,./stim/wavs/cuban_match_interrogative-total-yn_Ana-lleva-el-abrigo.wav,,,,,,,,,,,,,,,,,,,,,,482.5875,487.0389,1,1,3.9338,,0,59,59,6,1,1,cuban,,,,,,,,,,,,,,,,,,,,,,,,,,,,,,,,,,,,,,,,,,,,,,,,,,,,,,,,
,,,,,,,,,663298e9fb8d4ab0415f49fb,Caribbean Spanish,13 or older,"no, only English or Spanish",yes,2025-07-22_20h51.11.454,empathy_intonation_perc,2024.2.4,MacIntel,57.47126437,663298e9fb8d4ab0415f49fb,687ed1b7e638a4cbf2f02089,688031c403835510018c68d9,,,,,,,,,,,,,42,1,,./stim/wavs/puertorican_mismatch_interrogative-total-yn_La-maestra-vive-en-Paris.wav,,,,,,,,,,,,,,,,,,,,,,487.0393,490.7387,0,0,3.1671,,0,60,60,41,1,1,puertorican,,,,,,,,,,,,,,,,,,,,,,,,,,,,,,,,,,,,,,,,,,,,,,,,,,,,,,,,
,,,,,,,,,663298e9fb8d4ab0415f49fb,Caribbean Spanish,13 or older,"no, only English or Spanish",yes,2025-07-22_20h51.11.454,empathy_intonation_perc,2024.2.4,MacIntel,57.47126437,663298e9fb8d4ab0415f49fb,687ed1b7e638a4cbf2f02089,688031c403835510018c68d9,,,,,,,,,,,,,15,1,,./stim/wavs/mexican_match_interrogative-total-yn_David-leia-el-libro.wav,,,,,,,,,,,,,,,,,,,,,,490.7392,492.7386,1,1,1.468,,0,61,61,14,1,0,mexican,,,,,,,,,,,,,,,,,,,,,,,,,,,,,,,,,,,,,,,,,,,,,,,,,,,,,,,,
,,,,,,,,,663298e9fb8d4ab0415f49fb,Caribbean Spanish,13 or older,"no, only English or Spanish",yes,2025-07-22_20h51.11.454,empathy_intonation_perc,2024.2.4,MacIntel,57.47126437,663298e9fb8d4ab0415f49fb,687ed1b7e638a4cbf2f02089,688031c403835510018c68d9,,,,,,,,,,,,,19,1,,./stim/wavs/puertorican_match_interrogative-total-yn_Ana-lleva-el-abrigo.wav,,,,,,,,,,,,,,,,,,,,,,492.739,495.4397,0,0,2.183,,0,62,62,18,1,1,puertorican,,,,,,,,,,,,,,,,,,,,,,,,,,,,,,,,,,,,,,,,,,,,,,,,,,,,,,,,
,,,,,,,,,663298e9fb8d4ab0415f49fb,Caribbean Spanish,13 or older,"no, only English or Spanish",yes,2025-07-22_20h51.11.454,empathy_intonation_perc,2024.2.4,MacIntel,57.47126437,663298e9fb8d4ab0415f49fb,687ed1b7e638a4cbf2f02089,688031c403835510018c68d9,,,,,,,,,,,,,23,1,,./stim/wavs/puertorican_match_interrogative-total-yn_Manuela-vende-el-carro.wav,,,,,,,,,,,,,,,,,,,,,,495.4401,497.6727,1,1,1.7023,,0,63,63,22,1,1,puertorican,,,,,,,,,,,,,,,,,,,,,,,,,,,,,,,,,,,,,,,,,,,,,,,,,,,,,,,,
,,,,,,,,,663298e9fb8d4ab0415f49fb,Caribbean Spanish,13 or older,"no, only English or Spanish",yes,2025-07-22_20h51.11.454,empathy_intonation_perc,2024.2.4,MacIntel,57.47126437,663298e9fb8d4ab0415f49fb,687ed1b7e638a4cbf2f02089,688031c403835510018c68d9,,,,,,,,,,,,,40,1,,./stim/wavs/puertorican_mismatch_interrogative-total-yn_El-hombre-mira-la-luna.wav,,,,,,,,,,,,,,,,,,,,,,497.6731,501.9568,1,1,3.751,,0,64,64,39,1,1,puertorican,,,,,,,,,,,,,,,,,,,,,,,,,,,,,,,,,,,,,,,,,,,,,,,,,,,,,,,,
,,,,,,,,,663298e9fb8d4ab0415f49fb,Caribbean Spanish,13 or older,"no, only English or Spanish",yes,2025-07-22_20h51.11.454,empathy_intonation_perc,2024.2.4,MacIntel,57.47126437,663298e9fb8d4ab0415f49fb,687ed1b7e638a4cbf2f02089,688031c403835510018c68d9,,,,,,,,,,,,,84,0,,./stim/wavs/puertorican_mismatch_declarative-broad-focus_El-bebe-comia-muy-bien.wav,,,,,,,,,,,,,,,,,,,,,,501.9571,505.3409,0,1,2.8716,,0,65,65,83,1,0,puertorican,,,,,,,,,,,,,,,,,,,,,,,,,,,,,,,,,,,,,,,,,,,,,,,,,,,,,,,,
,,,,,,,,,663298e9fb8d4ab0415f49fb,Caribbean Spanish,13 or older,"no, only English or Spanish",yes,2025-07-22_20h51.11.454,empathy_intonation_perc,2024.2.4,MacIntel,57.47126437,663298e9fb8d4ab0415f49fb,687ed1b7e638a4cbf2f02089,688031c403835510018c68d9,,,,,,,,,,,,,2,1,,./stim/wavs/castilian_match_interrogative-total-yn_Emilio-ama-la-marcha.wav,,,,,,,,,,,,,,,,,,,,,,505.3413,507.5079,1,1,1.6327,,0,66,66,1,1,0,castilian,,,,,,,,,,,,,,,,,,,,,,,,,,,,,,,,,,,,,,,,,,,,,,,,,,,,,,,,
,,,,,,,,,663298e9fb8d4ab0415f49fb,Caribbean Spanish,13 or older,"no, only English or Spanish",yes,2025-07-22_20h51.11.454,empathy_intonation_perc,2024.2.4,MacIntel,57.47126437,663298e9fb8d4ab0415f49fb,687ed1b7e638a4cbf2f02089,688031c403835510018c68d9,,,,,,,,,,,,,51,0,,./stim/wavs/cuban_match_declarative-broad-focus_Ana-lleva-el-abrigo.wav,,,,,,,,,,,,,,,,,,,,,,507.5083,509.7911,0,1,1.7496,,0,67,67,50,1,0,cuban,,,,,,,,,,,,,,,,,,,,,,,,,,,,,,,,,,,,,,,,,,,,,,,,,,,,,,,,
,,,,,,,,,663298e9fb8d4ab0415f49fb,Caribbean Spanish,13 or older,"no, only English or Spanish",yes,2025-07-22_20h51.11.454,empathy_intonation_perc,2024.2.4,MacIntel,57.47126437,663298e9fb8d4ab0415f49fb,687ed1b7e638a4cbf2f02089,688031c403835510018c68d9,,,,,,,,,,,,,65,0,,./stim/wavs/puertorican_match_declarative-broad-focus_David-leia-el-libro.wav,,,,,,,,,,,,,,,,,,,,,,509.7916,512.1586,0,1,1.8337,,0,68,68,64,1,0,puertorican,,,,,,,,,,,,,,,,,,,,,,,,,,,,,,,,,,,,,,,,,,,,,,,,,,,,,,,,
,,,,,,,,,663298e9fb8d4ab0415f49fb,Caribbean Spanish,13 or older,"no, only English or Spanish",yes,2025-07-22_20h51.11.454,empathy_intonation_perc,2024.2.4,MacIntel,57.47126437,663298e9fb8d4ab0415f49fb,687ed1b7e638a4cbf2f02089,688031c403835510018c68d9,,,,,,,,,,,,,12,1,,./stim/wavs/cuban_match_interrogative-total-yn_Marta-abre-el-regalo.wav,,,,,,,,,,,,,,,,,,,,,,512.159,514.342,0,0,1.6548,,0,69,69,11,1,1,cuban,,,,,,,,,,,,,,,,,,,,,,,,,,,,,,,,,,,,,,,,,,,,,,,,,,,,,,,,
,,,,,,,,,663298e9fb8d4ab0415f49fb,Caribbean Spanish,13 or older,"no, only English or Spanish",yes,2025-07-22_20h51.11.454,empathy_intonation_perc,2024.2.4,MacIntel,57.47126437,663298e9fb8d4ab0415f49fb,687ed1b7e638a4cbf2f02089,688031c403835510018c68d9,,,,,,,,,,,,,77,0,,./stim/wavs/cuban_mismatch_declarative-broad-focus_Mi-novio-viene-del-lago.wav,,,,,,,,,,,,,,,,,,,,,,514.3424,518.176,0,1,3.2999,,0,70,70,76,1,0,cuban,,,,,,,,,,,,,,,,,,,,,,,,,,,,,,,,,,,,,,,,,,,,,,,,,,,,,,,,
,,,,,,,,,663298e9fb8d4ab0415f49fb,Caribbean Spanish,13 or older,"no, only English or Spanish",yes,2025-07-22_20h51.11.454,empathy_intonation_perc,2024.2.4,MacIntel,57.47126437,663298e9fb8d4ab0415f49fb,687ed1b7e638a4cbf2f02089,688031c403835510018c68d9,,,,,,,,,,,,,22,1,,./stim/wavs/puertorican_match_interrogative-total-yn_Emilio-ama-la-marcha.wav,,,,,,,,,,,,,,,,,,,,,,518.1765,520.3595,0,0,1.6535,,0,71,71,21,1,1,puertorican,,,,,,,,,,,,,,,,,,,,,,,,,,,,,,,,,,,,,,,,,,,,,,,,,,,,,,,,
,,,,,,,,,663298e9fb8d4ab0415f49fb,Caribbean Spanish,13 or older,"no, only English or Spanish",yes,2025-07-22_20h51.11.454,empathy_intonation_perc,2024.2.4,MacIntel,57.47126437,663298e9fb8d4ab0415f49fb,687ed1b7e638a4cbf2f02089,688031c403835510018c68d9,,,,,,,,,,,,,81,0,,./stim/wavs/mexican_mismatch_declarative-broad-focus_La-maestra-vive-en-Paris.wav,,,,,,,,,,,,,,,,,,,,,,520.36,522.9264,1,0,2.033,,0,72,72,80,1,0,mexican,,,,,,,,,,,,,,,,,,,,,,,,,,,,,,,,,,,,,,,,,,,,,,,,,,,,,,,,
,,,,,,,,,663298e9fb8d4ab0415f49fb,Caribbean Spanish,13 or older,"no, only English or Spanish",yes,2025-07-22_20h51.11.454,empathy_intonation_perc,2024.2.4,MacIntel,57.47126437,663298e9fb8d4ab0415f49fb,687ed1b7e638a4cbf2f02089,688031c403835510018c68d9,,,,,,,,,,,,,46,0,,./stim/wavs/castilian_match_declarative-broad-focus_Emilio-ama-la-marcha.wav,,,,,,,,,,,,,,,,,,,,,,522.9269,526.4757,1,0,3.024,,0,73,73,45,1,0,castilian,,,,,,,,,,,,,,,,,,,,,,,,,,,,,,,,,,,,,,,,,,,,,,,,,,,,,,,,
,,,,,,,,,663298e9fb8d4ab0415f49fb,Caribbean Spanish,13 or older,"no, only English or Spanish",yes,2025-07-22_20h51.11.454,empathy_intonation_perc,2024.2.4,MacIntel,57.47126437,663298e9fb8d4ab0415f49fb,687ed1b7e638a4cbf2f02089,688031c403835510018c68d9,,,,,,,,,,,,,73,0,,./stim/wavs/castilian_mismatch_declarative-broad-focus_Mi-tia-odia-la-lluvia.wav,,,,,,,,,,,,,,,,,,,,,,526.476,529.4939,1,0,2.5016,,0,74,74,72,1,0,castilian,,,,,,,,,,,,,,,,,,,,,,,,,,,,,,,,,,,,,,,,,,,,,,,,,,,,,,,,
,,,,,,,,,663298e9fb8d4ab0415f49fb,Caribbean Spanish,13 or older,"no, only English or Spanish",yes,2025-07-22_20h51.11.454,empathy_intonation_perc,2024.2.4,MacIntel,57.47126437,663298e9fb8d4ab0415f49fb,687ed1b7e638a4cbf2f02089,688031c403835510018c68d9,,,,,,,,,,,,,13,1,,./stim/wavs/mexican_match_interrogative-total-yn_Ana-lleva-el-abrigo.wav,,,,,,,,,,,,,,,,,,,,,,529.4943,531.4939,1,1,1.467,,0,75,75,12,1,0,mexican,,,,,,,,,,,,,,,,,,,,,,,,,,,,,,,,,,,,,,,,,,,,,,,,,,,,,,,,
,,,,,,,,,663298e9fb8d4ab0415f49fb,Caribbean Spanish,13 or older,"no, only English or Spanish",yes,2025-07-22_20h51.11.454,empathy_intonation_perc,2024.2.4,MacIntel,57.47126437,663298e9fb8d4ab0415f49fb,687ed1b7e638a4cbf2f02089,688031c403835510018c68d9,,,,,,,,,,,,,37,1,,./stim/wavs/mexican_mismatch_interrogative-total-yn_La-maestra-vive-en-Paris.wav,,,,,,,,,,,,,,,,,,,,,,531.4944,533.7443,1,1,1.7187,,0,76,76,36,1,0,mexican,,,,,,,,,,,,,,,,,,,,,,,,,,,,,,,,,,,,,,,,,,,,,,,,,,,,,,,,
,,,,,,,,,663298e9fb8d4ab0415f49fb,Caribbean Spanish,13 or older,"no, only English or Spanish",yes,2025-07-22_20h51.11.454,empathy_intonation_perc,2024.2.4,MacIntel,57.47126437,663298e9fb8d4ab0415f49fb,687ed1b7e638a4cbf2f02089,688031c403835510018c68d9,,,,,,,,,,,,,61,0,,./stim/wavs/mexican_match_declarative-broad-focus_Mariano-habla-del-tiempo.wav,,,,,,,,,,,,,,,,,,,,,,533.7448,536.3113,1,0,2.0335,,0,77,77,60,1,0,mexican,,,,,,,,,,,,,,,,,,,,,,,,,,,,,,,,,,,,,,,,,,,,,,,,,,,,,,,,
,,,,,,,,,663298e9fb8d4ab0415f49fb,Caribbean Spanish,13 or older,"no, only English or Spanish",yes,2025-07-22_20h51.11.454,empathy_intonation_perc,2024.2.4,MacIntel,57.47126437,663298e9fb8d4ab0415f49fb,687ed1b7e638a4cbf2f02089,688031c403835510018c68d9,,,,,,,,,,,,,82,0,,./stim/wavs/mexican_mismatch_declarative-broad-focus_Mi-novio-viene-del-lago.wav,,,,,,,,,,,,,,,,,,,,,,536.3118,539.8773,1,0,3.0336,,0,78,78,81,1,0,mexican,,,,,,,,,,,,,,,,,,,,,,,,,,,,,,,,,,,,,,,,,,,,,,,,,,,,,,,,
,,,,,,,,,663298e9fb8d4ab0415f49fb,Caribbean Spanish,13 or older,"no, only English or Spanish",yes,2025-07-22_20h51.11.454,empathy_intonation_perc,2024.2.4,MacIntel,57.47126437,663298e9fb8d4ab0415f49fb,687ed1b7e638a4cbf2f02089,688031c403835510018c68d9,,,,,,,,,,,,,54,0,,./stim/wavs/cuban_match_declarative-broad-focus_Maria-bebe-el-vino.wav,,,,,,,,,,,,,,,,,,,,,,539.8778,543.0779,0,1,2.6848,,0,79,79,53,1,0,cuban,,,,,,,,,,,,,,,,,,,,,,,,,,,,,,,,,,,,,,,,,,,,,,,,,,,,,,,,
,,,,,,,,,663298e9fb8d4ab0415f49fb,Caribbean Spanish,13 or older,"no, only English or Spanish",yes,2025-07-22_20h51.11.454,empathy_intonation_perc,2024.2.4,MacIntel,57.47126437,663298e9fb8d4ab0415f49fb,687ed1b7e638a4cbf2f02089,688031c403835510018c68d9,,,,,,,,,,,,,36,1,,./stim/wavs/mexican_mismatch_interrogative-total-yn_El-nino-oye-el-rio.wav,,,,,,,,,,,,,,,,,,,,,,543.0783,545.1458,1,1,1.5534,,0,80,80,35,1,0,mexican,,,,,,,,,,,,,,,,,,,,,,,,,,,,,,,,,,,,,,,,,,,,,,,,,,,,,,,,
,,,,,,,,,663298e9fb8d4ab0415f49fb,Caribbean Spanish,13 or older,"no, only English or Spanish",yes,2025-07-22_20h51.11.454,empathy_intonation_perc,2024.2.4,MacIntel,57.47126437,663298e9fb8d4ab0415f49fb,687ed1b7e638a4cbf2f02089,688031c403835510018c68d9,,,,,,,,,,,,,6,1,,./stim/wavs/castilian_match_interrogative-total-yn_Marta-abre-el-regalo.wav,,,,,,,,,,,,,,,,,,,,,,545.1461,547.6795,1,1,2.0009,,0,81,81,5,1,0,castilian,,,,,,,,,,,,,,,,,,,,,,,,,,,,,,,,,,,,,,,,,,,,,,,,,,,,,,,,
,,,,,,,,,663298e9fb8d4ab0415f49fb,Caribbean Spanish,13 or older,"no, only English or Spanish",yes,2025-07-22_20h51.11.454,empathy_intonation_perc,2024.2.4,MacIntel,57.47126437,663298e9fb8d4ab0415f49fb,687ed1b7e638a4cbf2f02089,688031c403835510018c68d9,,,,,,,,,,,,,64,0,,./stim/wavs/puertorican_match_declarative-broad-focus_Daniel-iba-a-Bolivia.wav,,,,,,,,,,,,,,,,,,,,,,547.68,549.9465,0,1,1.7322,,0,82,82,63,1,0,puertorican,,,,,,,,,,,,,,,,,,,,,,,,,,,,,,,,,,,,,,,,,,,,,,,,,,,,,,,,
,,,,,,,,,663298e9fb8d4ab0415f49fb,Caribbean Spanish,13 or older,"no, only English or Spanish",yes,2025-07-22_20h51.11.454,empathy_intonation_perc,2024.2.4,MacIntel,57.47126437,663298e9fb8d4ab0415f49fb,687ed1b7e638a4cbf2f02089,688031c403835510018c68d9,,,,,,,,,,,,,34,1,,./stim/wavs/cuban_mismatch_interrogative-total-yn_Mi-tia-odia-la-lluvia.wav,,,,,,,,,,,,,,,,,,,,,,549.9469,556.9473,1,1,6.467,,0,83,83,33,1,1,cuban,,,,,,,,,,,,,,,,,,,,,,,,,,,,,,,,,,,,,,,,,,,,,,,,,,,,,,,,
,,,,,,,,,663298e9fb8d4ab0415f49fb,Caribbean Spanish,13 or older,"no, only English or Spanish",yes,2025-07-22_20h51.11.454,empathy_intonation_perc,2024.2.4,MacIntel,57.47126437,663298e9fb8d4ab0415f49fb,687ed1b7e638a4cbf2f02089,688031c403835510018c68d9,,,,,,,,,,,,,38,1,,./stim/wavs/mexican_mismatch_interrogative-total-yn_Mi-novio-viene-del-lago.wav,,,,,,,,,,,,,,,,,,,,,,556.9478,559.1797,1,1,1.7064,,0,84,84,37,1,0,mexican,,,,,,,,,,,,,,,,,,,,,,,,,,,,,,,,,,,,,,,,,,,,,,,,,,,,,,,,
,,,,,,,,,663298e9fb8d4ab0415f49fb,Caribbean Spanish,13 or older,"no, only English or Spanish",yes,2025-07-22_20h51.11.454,empathy_intonation_perc,2024.2.4,MacIntel,57.47126437,663298e9fb8d4ab0415f49fb,687ed1b7e638a4cbf2f02089,688031c403835510018c68d9,,,,,,,,,,,,,29,1,,./stim/wavs/castilian_mismatch_interrogative-total-yn_Mi-tia-odia-la-lluvia.wav,,,,,,,,,,,,,,,,,,,,,,559.18,561.5478,1,1,1.8326,,0,85,85,28,1,0,castilian,,,,,,,,,,,,,,,,,,,,,,,,,,,,,,,,,,,,,,,,,,,,,,,,,,,,,,,,
,,,,,,,,,663298e9fb8d4ab0415f49fb,Caribbean Spanish,13 or older,"no, only English or Spanish",yes,2025-07-22_20h51.11.454,empathy_intonation_perc,2024.2.4,MacIntel,57.47126437,663298e9fb8d4ab0415f49fb,687ed1b7e638a4cbf2f02089,688031c403835510018c68d9,,,,,,,,,,,,,60,0,,./stim/wavs/mexican_match_declarative-broad-focus_Emilio-ama-la-marcha.wav,,,,,,,,,,,,,,,,,,,,,,561.5482,564.6482,0,1,2.5696,,0,86,86,59,1,0,mexican,,,,,,,,,,,,,,,,,,,,,,,,,,,,,,,,,,,,,,,,,,,,,,,,,,,,,,,,
,,,,,,,,,663298e9fb8d4ab0415f49fb,Caribbean Spanish,13 or older,"no, only English or Spanish",yes,2025-07-22_20h51.11.454,empathy_intonation_perc,2024.2.4,MacIntel,57.47126437,663298e9fb8d4ab0415f49fb,687ed1b7e638a4cbf2f02089,688031c403835510018c68d9,,,,,,,,,,,,,26,1,,./stim/wavs/castilian_mismatch_interrogative-total-yn_La-nina-lava-el-plato.wav,,,,,,,,,,,,,,,,,,,,,,564.6487,566.965,1,1,1.7893,,0,87,87,25,1,0,castilian,,,,,,,,,,,,,,,,,,,,,,,,,,,,,,,,,,,,,,,,,,,,,,,,,,,,,,,,
,,,,,,,"Great! Now we will move on. The next task consists of about 60 trials, in each of which you will see a string of letters. 
  
  Your task is to decide whether this is a real Spanish word or not.", (press the spacebar to continue),663298e9fb8d4ab0415f49fb,Caribbean Spanish,13 or older,"no, only English or Spanish",yes,2025-07-22_20h51.11.454,empathy_intonation_perc,2024.2.4,MacIntel,57.47126437,663298e9fb8d4ab0415f49fb,687ed1b7e638a4cbf2f02089,688031c403835510018c68d9,,,,,,,,,,,,,,,,,,,,,,,,,,,,,,,,,,,,,,,,,,,,,,,,,,,566.97,642.9236,0,0,0,0,1,,,,,,,,,,,,,,,,,,,,,,,,,,,,,,,,,,,,,,,,,,,,,,,,,
,,,,,,,"If you think it is an existing Spanish word, you type '1' (for 'REAL'), and if you think it is not an existing Spanish word, you type '0' (for 'FAKE').", (press the spacebar to continue),663298e9fb8d4ab0415f49fb,Caribbean Spanish,13 or older,"no, only English or Spanish",yes,2025-07-22_20h51.11.454,empathy_intonation_perc,2024.2.4,MacIntel,57.47126437,663298e9fb8d4ab0415f49fb,687ed1b7e638a4cbf2f02089,688031c403835510018c68d9,,,,,,,,,,,,,,,,,,,,,,,,,,,,,,,,,,,,,,,,,,,,,,,,,,,642.9248,645.9745,0,1,1,1,1,,,,,,,,,,,,,,,,,,,,,,,,,,,,,,,,,,,,,,,,,,,,,,,,,
,,,,,,,"If you are sure that the word exists, even though you don’t know its exact meaning, you may still respond '1' (REAL). 
  
  But if you are not sure if it is an existing word, you should respond '0' (FAKE).
  
  Let's do a practice round...", (press the spacebar to continue),663298e9fb8d4ab0415f49fb,Caribbean Spanish,13 or older,"no, only English or Spanish",yes,2025-07-22_20h51.11.454,empathy_intonation_perc,2024.2.4,MacIntel,57.47126437,663298e9fb8d4ab0415f49fb,687ed1b7e638a4cbf2f02089,688031c403835510018c68d9,,,,,,,,,,,,,,,,,,,,,,,,,,,,,,,,,,,,,,,,,,,,,,,,,,,645.9757,657.2586,0,2,2,2,1,,,,,,,,,,,,,,,,,,,,,,,,,,,,,,,,,,,,,,,,,,,,,,,,,
,,,,,,,,,663298e9fb8d4ab0415f49fb,Caribbean Spanish,13 or older,"no, only English or Spanish",yes,2025-07-22_20h51.11.454,empathy_intonation_perc,2024.2.4,MacIntel,57.47126437,663298e9fb8d4ab0415f49fb,687ed1b7e638a4cbf2f02089,688031c403835510018c68d9,,,,,,,,,,,,,,0,,,,,,,,,,,,,,,,,,,,,,,,,,,,,,,,,,,,,,,,,,,,657.2638,667.4431,0,1,9.6441,,667.4432,668.4442,0,0,0,0,1,0,depiste,REAL,FAKE,,,,,,,,,,,,,,,,,,,,,,,,,,,,,,,,
,,,,,,,,,663298e9fb8d4ab0415f49fb,Caribbean Spanish,13 or older,"no, only English or Spanish",yes,2025-07-22_20h51.11.454,empathy_intonation_perc,2024.2.4,MacIntel,57.47126437,663298e9fb8d4ab0415f49fb,687ed1b7e638a4cbf2f02089,688031c403835510018c68d9,,,,,,,,,,,,,,1,,,,,,,,,,,,,,,,,,,,,,,,,,,,,,,,,,,,,,,,,,,,668.4454,670.2111,1,1,1.233,,670.2111,671.2112,0,1,1,1,1,0,sí,REAL,FAKE,,,,,,,,,,,,,,,,,,,,,,,,,,,,,,,,
,,,,,,,,,663298e9fb8d4ab0415f49fb,Caribbean Spanish,13 or older,"no, only English or Spanish",yes,2025-07-22_20h51.11.454,empathy_intonation_perc,2024.2.4,MacIntel,57.47126437,663298e9fb8d4ab0415f49fb,687ed1b7e638a4cbf2f02089,688031c403835510018c68d9,,,,,,,,,,,,,,0,,,,,,,,,,,,,,,,,,,,,,,,,,,,,,,,,,,,,,,,,,,,671.212,675.427,1,0,3.6763,,675.4276,676.428,0,2,2,2,1,0,coné,REAL,FAKE,,,,,,,,,,,,,,,,,,,,,,,,,,,,,,,,
,,,,,,,,,663298e9fb8d4ab0415f49fb,Caribbean Spanish,13 or older,"no, only English or Spanish",yes,2025-07-22_20h51.11.454,empathy_intonation_perc,2024.2.4,MacIntel,57.47126437,663298e9fb8d4ab0415f49fb,687ed1b7e638a4cbf2f02089,688031c403835510018c68d9,,,,,,,,,,,,,,0,,,,,,,,,,,,,,,,,,,,,,,,,,,,,,,,,,,,,,,,,,,,676.4288,678.4615,0,1,1.4969,,678.4621,679.4622,0,3,3,3,1,0,calpar,REAL,FAKE,,,,,,,,,,,,,,,,,,,,,,,,,,,,,,,,
,,,,,,,,,663298e9fb8d4ab0415f49fb,Caribbean Spanish,13 or older,"no, only English or Spanish",yes,2025-07-22_20h51.11.454,empathy_intonation_perc,2024.2.4,MacIntel,57.47126437,663298e9fb8d4ab0415f49fb,687ed1b7e638a4cbf2f02089,688031c403835510018c68d9,,,,,,,,,,,,,,0,,,,,,,,,,,,,,,,,,,,,,,,,,,,,,,,,,,,,,,,,,,,679.4632,681.6123,0,1,1.6138,,681.6123,682.6119,0,4,4,4,1,0,joten,REAL,FAKE,,,,,,,,,,,,,,,,,,,,,,,,,,,,,,,,
,,,,,,,,,663298e9fb8d4ab0415f49fb,Caribbean Spanish,13 or older,"no, only English or Spanish",yes,2025-07-22_20h51.11.454,empathy_intonation_perc,2024.2.4,MacIntel,57.47126437,663298e9fb8d4ab0415f49fb,687ed1b7e638a4cbf2f02089,688031c403835510018c68d9,,,,,,,,,,,,,,1,,,,,,,,,,,,,,,,,,,,,,,,,,,,,,,,,,,,,,,,,,,,682.6125,686.1125,1,1,2.9645,,686.1126,687.1126,0,5,5,5,1,0,sacapuntas,REAL,FAKE,,,,,,,,,,,,,,,,,,,,,,,,,,,,,,,,
,,,,,,,,,663298e9fb8d4ab0415f49fb,Caribbean Spanish,13 or older,"no, only English or Spanish",yes,2025-07-22_20h51.11.454,empathy_intonation_perc,2024.2.4,MacIntel,57.47126437,663298e9fb8d4ab0415f49fb,687ed1b7e638a4cbf2f02089,688031c403835510018c68d9,,,,,,,,,,,,,,0,,,,,,,,,,,,,,,,,,,,,,,,,,,,,,,,,,,,,,,,,,,,687.1134,689.5302,0,1,1.8933,,689.5303,690.5302,0,6,6,6,1,0,priba,REAL,FAKE,,,,,,,,,,,,,,,,,,,,,,,,,,,,,,,,
,,,,,,,,,663298e9fb8d4ab0415f49fb,Caribbean Spanish,13 or older,"no, only English or Spanish",yes,2025-07-22_20h51.11.454,empathy_intonation_perc,2024.2.4,MacIntel,57.47126437,663298e9fb8d4ab0415f49fb,687ed1b7e638a4cbf2f02089,688031c403835510018c68d9,,,,,,,,,,,,,,0,,,,,,,,,,,,,,,,,,,,,,,,,,,,,,,,,,,,,,,,,,,,690.531,695.2974,1,0,4.232,,695.298,696.2977,0,7,7,7,1,0,pelasula,REAL,FAKE,,,,,,,,,,,,,,,,,,,,,,,,,,,,,,,,
,,,,,,,,,663298e9fb8d4ab0415f49fb,Caribbean Spanish,13 or older,"no, only English or Spanish",yes,2025-07-22_20h51.11.454,empathy_intonation_perc,2024.2.4,MacIntel,57.47126437,663298e9fb8d4ab0415f49fb,687ed1b7e638a4cbf2f02089,688031c403835510018c68d9,,,,,,,,,,,,,,1,,,,,,,,,,,,,,,,,,,,,,,,,,,,,,,,,,,,,,,,,,,,696.2985,698.8978,1,1,2.0641,,698.8983,699.898,0,8,8,8,1,0,bien,REAL,FAKE,,,,,,,,,,,,,,,,,,,,,,,,,,,,,,,,
,,,,,,,,,663298e9fb8d4ab0415f49fb,Caribbean Spanish,13 or older,"no, only English or Spanish",yes,2025-07-22_20h51.11.454,empathy_intonation_perc,2024.2.4,MacIntel,57.47126437,663298e9fb8d4ab0415f49fb,687ed1b7e638a4cbf2f02089,688031c403835510018c68d9,,,,,,,,,,,,,,1,,,,,,,,,,,,,,,,,,,,,,,,,,,,,,,,,,,,,,,,,,,,699.8989,701.5303,1,1,1.0959,,701.5303,702.5316,0,9,9,9,1,0,casa,REAL,FAKE,,,,,,,,,,,,,,,,,,,,,,,,,,,,,,,,
,,,,,,,,,663298e9fb8d4ab0415f49fb,Caribbean Spanish,13 or older,"no, only English or Spanish",yes,2025-07-22_20h51.11.454,empathy_intonation_perc,2024.2.4,MacIntel,57.47126437,663298e9fb8d4ab0415f49fb,687ed1b7e638a4cbf2f02089,688031c403835510018c68d9,,,,,,,,,,,,,,0,,,,,,,,,,,,,,,,,,,,,,,,,,,,,,,,,,,,,,,,,,,,702.5326,704.9641,1,0,1.8959,,704.9646,705.965,0,10,10,10,1,0,lejo,REAL,FAKE,,,,,,,,,,,,,,,,,,,,,,,,,,,,,,,,
,,,,,,,,,663298e9fb8d4ab0415f49fb,Caribbean Spanish,13 or older,"no, only English or Spanish",yes,2025-07-22_20h51.11.454,empathy_intonation_perc,2024.2.4,MacIntel,57.47126437,663298e9fb8d4ab0415f49fb,687ed1b7e638a4cbf2f02089,688031c403835510018c68d9,,,,,,,,,,,,,,0,,,,,,,,,,,,,,,,,,,,,,,,,,,,,,,,,,,,,,,,,,,,705.9657,710.3158,0,1,3.8282,,710.3164,711.3161,0,11,11,11,1,0,pretantas,REAL,FAKE,,,,,,,,,,,,,,,,,,,,,,,,,,,,,,,,
,,,,,,,,,663298e9fb8d4ab0415f49fb,Caribbean Spanish,13 or older,"no, only English or Spanish",yes,2025-07-22_20h51.11.454,empathy_intonation_perc,2024.2.4,MacIntel,57.47126437,663298e9fb8d4ab0415f49fb,687ed1b7e638a4cbf2f02089,688031c403835510018c68d9,,,,,,,,,,,,,,,,,,,,,,,,,,,,,,,,,,,,,,,,,,,,,,,,,,,,,,,,,,,,,,,,,,,,,,,,,,,711.3163,712.4832,,,,,,,,,,,,,,,,,,,,,,,,,,,,,,
,,,,,,,,,663298e9fb8d4ab0415f49fb,Caribbean Spanish,13 or older,"no, only English or Spanish",yes,2025-07-22_20h51.11.454,empathy_intonation_perc,2024.2.4,MacIntel,57.47126437,663298e9fb8d4ab0415f49fb,687ed1b7e638a4cbf2f02089,688031c403835510018c68d9,,,,,,,,,,,,,,0,,,,,,,,,,,,,,,,,,,,,,,,,,,,,,,,,,,,,,,,,,,,,,,,,,,,,,,,,53,vegada,,,,,712.4921,717.7335,1,0,4.7167,,0,0,0,52,1,REAL,FAKE,,,,,,,,,,,,,,,,,
,,,,,,,,,663298e9fb8d4ab0415f49fb,Caribbean Spanish,13 or older,"no, only English or Spanish",yes,2025-07-22_20h51.11.454,empathy_intonation_perc,2024.2.4,MacIntel,57.47126437,663298e9fb8d4ab0415f49fb,687ed1b7e638a4cbf2f02089,688031c403835510018c68d9,,,,,,,,,,,,,,1,,,,,,,,,,,,,,,,,,,,,,,,,,,,,,,,,,,,,,,,,,,,,,,,,,,,,,,,,7,pésimo,,,,,717.7343,720.5504,0,0,2.2768,,0,1,1,6,1,REAL,FAKE,,,,,,,,,,,,,,,,,
,,,,,,,,,663298e9fb8d4ab0415f49fb,Caribbean Spanish,13 or older,"no, only English or Spanish",yes,2025-07-22_20h51.11.454,empathy_intonation_perc,2024.2.4,MacIntel,57.47126437,663298e9fb8d4ab0415f49fb,687ed1b7e638a4cbf2f02089,688031c403835510018c68d9,,,,,,,,,,,,,,1,,,,,,,,,,,,,,,,,,,,,,,,,,,,,,,,,,,,,,,,,,,,,,,,,,,,,,,,,81,pozo,,,,,720.5513,722.2507,0,0,1.1623,,0,2,2,80,1,REAL,FAKE,,,,,,,,,,,,,,,,,
,,,,,,,,,663298e9fb8d4ab0415f49fb,Caribbean Spanish,13 or older,"no, only English or Spanish",yes,2025-07-22_20h51.11.454,empathy_intonation_perc,2024.2.4,MacIntel,57.47126437,663298e9fb8d4ab0415f49fb,687ed1b7e638a4cbf2f02089,688031c403835510018c68d9,,,,,,,,,,,,,,0,,,,,,,,,,,,,,,,,,,,,,,,,,,,,,,,,,,,,,,,,,,,,,,,,,,,,,,,,87,grodo,,,,,722.2515,723.9009,0,1,1.1136,,0,3,3,86,1,REAL,FAKE,,,,,,,,,,,,,,,,,
,,,,,,,,,663298e9fb8d4ab0415f49fb,Caribbean Spanish,13 or older,"no, only English or Spanish",yes,2025-07-22_20h51.11.454,empathy_intonation_perc,2024.2.4,MacIntel,57.47126437,663298e9fb8d4ab0415f49fb,687ed1b7e638a4cbf2f02089,688031c403835510018c68d9,,,,,,,,,,,,,,1,,,,,,,,,,,,,,,,,,,,,,,,,,,,,,,,,,,,,,,,,,,,,,,,,,,,,,,,,71,polvoriento,,,,,723.9018,726.2174,0,0,1.7775,,0,4,4,70,1,REAL,FAKE,,,,,,,,,,,,,,,,,
,,,,,,,,,663298e9fb8d4ab0415f49fb,Caribbean Spanish,13 or older,"no, only English or Spanish",yes,2025-07-22_20h51.11.454,empathy_intonation_perc,2024.2.4,MacIntel,57.47126437,663298e9fb8d4ab0415f49fb,687ed1b7e638a4cbf2f02089,688031c403835510018c68d9,,,,,,,,,,,,,,1,,,,,,,,,,,,,,,,,,,,,,,,,,,,,,,,,,,,,,,,,,,,,,,,,,,,,,,,,2,pellizcar,,,,,726.218,727.7844,1,1,1.0453,,0,5,5,1,1,REAL,FAKE,,,,,,,,,,,,,,,,,
,,,,,,,,,663298e9fb8d4ab0415f49fb,Caribbean Spanish,13 or older,"no, only English or Spanish",yes,2025-07-22_20h51.11.454,empathy_intonation_perc,2024.2.4,MacIntel,57.47126437,663298e9fb8d4ab0415f49fb,687ed1b7e638a4cbf2f02089,688031c403835510018c68d9,,,,,,,,,,,,,,1,,,,,,,,,,,,,,,,,,,,,,,,,,,,,,,,,,,,,,,,,,,,,,,,,,,,,,,,,80,hormiga,,,,,727.7853,730.5338,0,0,2.2121,,0,6,6,79,1,REAL,FAKE,,,,,,,,,,,,,,,,,
,,,,,,,,,663298e9fb8d4ab0415f49fb,Caribbean Spanish,13 or older,"no, only English or Spanish",yes,2025-07-22_20h51.11.454,empathy_intonation_perc,2024.2.4,MacIntel,57.47126437,663298e9fb8d4ab0415f49fb,687ed1b7e638a4cbf2f02089,688031c403835510018c68d9,,,,,,,,,,,,,,1,,,,,,,,,,,,,,,,,,,,,,,,,,,,,,,,,,,,,,,,,,,,,,,,,,,,,,,,,54,fomentar,,,,,730.5345,732.4521,1,1,1.3938,,0,7,7,53,1,REAL,FAKE,,,,,,,,,,,,,,,,,
,,,,,,,,,663298e9fb8d4ab0415f49fb,Caribbean Spanish,13 or older,"no, only English or Spanish",yes,2025-07-22_20h51.11.454,empathy_intonation_perc,2024.2.4,MacIntel,57.47126437,663298e9fb8d4ab0415f49fb,687ed1b7e638a4cbf2f02089,688031c403835510018c68d9,,,,,,,,,,,,,,1,,,,,,,,,,,,,,,,,,,,,,,,,,,,,,,,,,,,,,,,,,,,,,,,,,,,,,,,,44,cuchara,,,,,732.453,734.8024,1,1,1.8143,,0,8,8,43,1,REAL,FAKE,,,,,,,,,,,,,,,,,
,,,,,,,,,663298e9fb8d4ab0415f49fb,Caribbean Spanish,13 or older,"no, only English or Spanish",yes,2025-07-22_20h51.11.454,empathy_intonation_perc,2024.2.4,MacIntel,57.47126437,663298e9fb8d4ab0415f49fb,687ed1b7e638a4cbf2f02089,688031c403835510018c68d9,,,,,,,,,,,,,,1,,,,,,,,,,,,,,,,,,,,,,,,,,,,,,,,,,,,,,,,,,,,,,,,,,,,,,,,,12,asesinato,,,,,734.8031,738.8353,0,0,3.5025,,0,9,9,11,1,REAL,FAKE,,,,,,,,,,,,,,,,,
,,,,,,,,,663298e9fb8d4ab0415f49fb,Caribbean Spanish,13 or older,"no, only English or Spanish",yes,2025-07-22_20h51.11.454,empathy_intonation_perc,2024.2.4,MacIntel,57.47126437,663298e9fb8d4ab0415f49fb,687ed1b7e638a4cbf2f02089,688031c403835510018c68d9,,,,,,,,,,,,,,0,,,,,,,,,,,,,,,,,,,,,,,,,,,,,,,,,,,,,,,,,,,,,,,,,,,,,,,,,30,alardio,,,,,738.8361,741.1696,0,1,1.8122,,0,10,10,29,1,REAL,FAKE,,,,,,,,,,,,,,,,,
,,,,,,,,,663298e9fb8d4ab0415f49fb,Caribbean Spanish,13 or older,"no, only English or Spanish",yes,2025-07-22_20h51.11.454,empathy_intonation_perc,2024.2.4,MacIntel,57.47126437,663298e9fb8d4ab0415f49fb,687ed1b7e638a4cbf2f02089,688031c403835510018c68d9,,,,,,,,,,,,,,0,,,,,,,,,,,,,,,,,,,,,,,,,,,,,,,,,,,,,,,,,,,,,,,,,,,,,,,,,72,pemición,,,,,741.1705,745.3524,0,1,3.6488,,0,11,11,71,1,REAL,FAKE,,,,,,,,,,,,,,,,,
,,,,,,,,,663298e9fb8d4ab0415f49fb,Caribbean Spanish,13 or older,"no, only English or Spanish",yes,2025-07-22_20h51.11.454,empathy_intonation_perc,2024.2.4,MacIntel,57.47126437,663298e9fb8d4ab0415f49fb,687ed1b7e638a4cbf2f02089,688031c403835510018c68d9,,,,,,,,,,,,,,1,,,,,,,,,,,,,,,,,,,,,,,,,,,,,,,,,,,,,,,,,,,,,,,,,,,,,,,,,41,rebuscar,,,,,745.3533,746.9036,1,1,1.0331,,0,12,12,40,1,REAL,FAKE,,,,,,,,,,,,,,,,,
,,,,,,,,,663298e9fb8d4ab0415f49fb,Caribbean Spanish,13 or older,"no, only English or Spanish",yes,2025-07-22_20h51.11.454,empathy_intonation_perc,2024.2.4,MacIntel,57.47126437,663298e9fb8d4ab0415f49fb,687ed1b7e638a4cbf2f02089,688031c403835510018c68d9,,,,,,,,,,,,,,0,,,,,,,,,,,,,,,,,,,,,,,,,,,,,,,,,,,,,,,,,,,,,,,,,,,,,,,,,27,acutación,,,,,746.9045,748.9372,1,0,1.4981,,0,13,13,26,1,REAL,FAKE,,,,,,,,,,,,,,,,,
,,,,,,,,,663298e9fb8d4ab0415f49fb,Caribbean Spanish,13 or older,"no, only English or Spanish",yes,2025-07-22_20h51.11.454,empathy_intonation_perc,2024.2.4,MacIntel,57.47126437,663298e9fb8d4ab0415f49fb,687ed1b7e638a4cbf2f02089,688031c403835510018c68d9,,,,,,,,,,,,,,0,,,,,,,,,,,,,,,,,,,,,,,,,,,,,,,,,,,,,,,,,,,,,,,,,,,,,,,,,84,escuto,,,,,748.9381,752.0373,1,0,2.5615,,0,14,14,83,1,REAL,FAKE,,,,,,,,,,,,,,,,,
,,,,,,,,,663298e9fb8d4ab0415f49fb,Caribbean Spanish,13 or older,"no, only English or Spanish",yes,2025-07-22_20h51.11.454,empathy_intonation_perc,2024.2.4,MacIntel,57.47126437,663298e9fb8d4ab0415f49fb,687ed1b7e638a4cbf2f02089,688031c403835510018c68d9,,,,,,,,,,,,,,1,,,,,,,,,,,,,,,,,,,,,,,,,,,,,,,,,,,,,,,,,,,,,,,,,,,,,,,,,56,musgo,,,,,752.038,754.4378,0,0,1.8673,,0,15,15,55,1,REAL,FAKE,,,,,,,,,,,,,,,,,
,,,,,,,,,663298e9fb8d4ab0415f49fb,Caribbean Spanish,13 or older,"no, only English or Spanish",yes,2025-07-22_20h51.11.454,empathy_intonation_perc,2024.2.4,MacIntel,57.47126437,663298e9fb8d4ab0415f49fb,687ed1b7e638a4cbf2f02089,688031c403835510018c68d9,,,,,,,,,,,,,,1,,,,,,,,,,,,,,,,,,,,,,,,,,,,,,,,,,,,,,,,,,,,,,,,,,,,,,,,,69,engatusar,,,,,754.4385,760.3553,0,0,5.3799,,0,16,16,68,1,REAL,FAKE,,,,,,,,,,,,,,,,,
,,,,,,,,,663298e9fb8d4ab0415f49fb,Caribbean Spanish,13 or older,"no, only English or Spanish",yes,2025-07-22_20h51.11.454,empathy_intonation_perc,2024.2.4,MacIntel,57.47126437,663298e9fb8d4ab0415f49fb,687ed1b7e638a4cbf2f02089,688031c403835510018c68d9,,,,,,,,,,,,,,0,,,,,,,,,,,,,,,,,,,,,,,,,,,,,,,,,,,,,,,,,,,,,,,,,,,,,,,,,42,cadallo,,,,,760.3562,763.6388,1,0,2.7485,,0,17,17,41,1,REAL,FAKE,,,,,,,,,,,,,,,,,
,,,,,,,,,663298e9fb8d4ab0415f49fb,Caribbean Spanish,13 or older,"no, only English or Spanish",yes,2025-07-22_20h51.11.454,empathy_intonation_perc,2024.2.4,MacIntel,57.47126437,663298e9fb8d4ab0415f49fb,687ed1b7e638a4cbf2f02089,688031c403835510018c68d9,,,,,,,,,,,,,,0,,,,,,,,,,,,,,,,,,,,,,,,,,,,,,,,,,,,,,,,,,,,,,,,,,,,,,,,,58,plaudir,,,,,763.6397,766.2392,0,1,2.063,,0,18,18,57,1,REAL,FAKE,,,,,,,,,,,,,,,,,
,,,,,,,,,663298e9fb8d4ab0415f49fb,Caribbean Spanish,13 or older,"no, only English or Spanish",yes,2025-07-22_20h51.11.454,empathy_intonation_perc,2024.2.4,MacIntel,57.47126437,663298e9fb8d4ab0415f49fb,687ed1b7e638a4cbf2f02089,688031c403835510018c68d9,,,,,,,,,,,,,,0,,,,,,,,,,,,,,,,,,,,,,,,,,,,,,,,,,,,,,,,,,,,,,,,,,,,,,,,,63,esposante,,,,,766.2398,774.607,0,1,7.8343,,0,19,19,62,1,REAL,FAKE,,,,,,,,,,,,,,,,,
,,,,,,,,,663298e9fb8d4ab0415f49fb,Caribbean Spanish,13 or older,"no, only English or Spanish",yes,2025-07-22_20h51.11.454,empathy_intonation_perc,2024.2.4,MacIntel,57.47126437,663298e9fb8d4ab0415f49fb,687ed1b7e638a4cbf2f02089,688031c403835510018c68d9,,,,,,,,,,,,,,1,,,,,,,,,,,,,,,,,,,,,,,,,,,,,,,,,,,,,,,,,,,,,,,,,,,,,,,,,59,besar,,,,,774.6077,776.9062,1,1,1.7626,,0,20,20,58,1,REAL,FAKE,,,,,,,,,,,,,,,,,
,,,,,,,,,663298e9fb8d4ab0415f49fb,Caribbean Spanish,13 or older,"no, only English or Spanish",yes,2025-07-22_20h51.11.454,empathy_intonation_perc,2024.2.4,MacIntel,57.47126437,663298e9fb8d4ab0415f49fb,687ed1b7e638a4cbf2f02089,688031c403835510018c68d9,,,,,,,,,,,,,,1,,,,,,,,,,,,,,,,,,,,,,,,,,,,,,,,,,,,,,,,,,,,,,,,,,,,,,,,,61,seda,,,,,776.9071,778.6731,0,0,1.247,,0,21,21,60,1,REAL,FAKE,,,,,,,,,,,,,,,,,
,,,,,,,,,663298e9fb8d4ab0415f49fb,Caribbean Spanish,13 or older,"no, only English or Spanish",yes,2025-07-22_20h51.11.454,empathy_intonation_perc,2024.2.4,MacIntel,57.47126437,663298e9fb8d4ab0415f49fb,687ed1b7e638a4cbf2f02089,688031c403835510018c68d9,,,,,,,,,,,,,,1,,,,,,,,,,,,,,,,,,,,,,,,,,,,,,,,,,,,,,,,,,,,,,,,,,,,,,,,,55,nevar,,,,,778.6739,781.291,1,1,2.0977,,0,22,22,54,1,REAL,FAKE,,,,,,,,,,,,,,,,,
,,,,,,,,,663298e9fb8d4ab0415f49fb,Caribbean Spanish,13 or older,"no, only English or Spanish",yes,2025-07-22_20h51.11.454,empathy_intonation_perc,2024.2.4,MacIntel,57.47126437,663298e9fb8d4ab0415f49fb,687ed1b7e638a4cbf2f02089,688031c403835510018c68d9,,,,,,,,,,,,,,1,,,,,,,,,,,,,,,,,,,,,,,,,,,,,,,,,,,,,,,,,,,,,,,,,,,,,,,,,26,secuestro,,,,,781.2918,785.4074,1,1,3.5774,,0,23,23,25,1,REAL,FAKE,,,,,,,,,,,,,,,,,
,,,,,,,,,663298e9fb8d4ab0415f49fb,Caribbean Spanish,13 or older,"no, only English or Spanish",yes,2025-07-22_20h51.11.454,empathy_intonation_perc,2024.2.4,MacIntel,57.47126437,663298e9fb8d4ab0415f49fb,687ed1b7e638a4cbf2f02089,688031c403835510018c68d9,,,,,,,,,,,,,,1,,,,,,,,,,,,,,,,,,,,,,,,,,,,,,,,,,,,,,,,,,,,,,,,,,,,,,,,,85,laúd,,,,,785.4081,787.7752,0,0,1.8498,,0,24,24,84,1,REAL,FAKE,,,,,,,,,,,,,,,,,
,,,,,,,,,663298e9fb8d4ab0415f49fb,Caribbean Spanish,13 or older,"no, only English or Spanish",yes,2025-07-22_20h51.11.454,empathy_intonation_perc,2024.2.4,MacIntel,57.47126437,663298e9fb8d4ab0415f49fb,687ed1b7e638a4cbf2f02089,688031c403835510018c68d9,,,,,,,,,,,,,,0,,,,,,,,,,,,,,,,,,,,,,,,,,,,,,,,,,,,,,,,,,,,,,,,,,,,,,,,,29,decar,,,,,787.7758,790.1254,1,0,1.8126,,0,25,25,28,1,REAL,FAKE,,,,,,,,,,,,,,,,,
,,,,,,,,,663298e9fb8d4ab0415f49fb,Caribbean Spanish,13 or older,"no, only English or Spanish",yes,2025-07-22_20h51.11.454,empathy_intonation_perc,2024.2.4,MacIntel,57.47126437,663298e9fb8d4ab0415f49fb,687ed1b7e638a4cbf2f02089,688031c403835510018c68d9,,,,,,,,,,,,,,1,,,,,,,,,,,,,,,,,,,,,,,,,,,,,,,,,,,,,,,,,,,,,,,,,,,,,,,,,78,frondoso,,,,,790.1261,791.7923,0,0,1.1319,,0,26,26,77,1,REAL,FAKE,,,,,,,,,,,,,,,,,
,,,,,,,,,663298e9fb8d4ab0415f49fb,Caribbean Spanish,13 or older,"no, only English or Spanish",yes,2025-07-22_20h51.11.454,empathy_intonation_perc,2024.2.4,MacIntel,57.47126437,663298e9fb8d4ab0415f49fb,687ed1b7e638a4cbf2f02089,688031c403835510018c68d9,,,,,,,,,,,,,,0,,,,,,,,,,,,,,,,,,,,,,,,,,,,,,,,,,,,,,,,,,,,,,,,,,,,,,,,,10,antar,,,,,791.7931,793.5759,0,1,1.2481,,0,27,27,9,1,REAL,FAKE,,,,,,,,,,,,,,,,,
,,,,,,,,,663298e9fb8d4ab0415f49fb,Caribbean Spanish,13 or older,"no, only English or Spanish",yes,2025-07-22_20h51.11.454,empathy_intonation_perc,2024.2.4,MacIntel,57.47126437,663298e9fb8d4ab0415f49fb,687ed1b7e638a4cbf2f02089,688031c403835510018c68d9,,,,,,,,,,,,,,0,,,,,,,,,,,,,,,,,,,,,,,,,,,,,,,,,,,,,,,,,,,,,,,,,,,,,,,,,66,hacido,,,,,793.5768,795.3259,1,0,1.2158,,0,28,28,65,1,REAL,FAKE,,,,,,,,,,,,,,,,,
,,,,,,,,,663298e9fb8d4ab0415f49fb,Caribbean Spanish,13 or older,"no, only English or Spanish",yes,2025-07-22_20h51.11.454,empathy_intonation_perc,2024.2.4,MacIntel,57.47126437,663298e9fb8d4ab0415f49fb,687ed1b7e638a4cbf2f02089,688031c403835510018c68d9,,,,,,,,,,,,,,1,,,,,,,,,,,,,,,,,,,,,,,,,,,,,,,,,,,,,,,,,,,,,,,,,,,,,,,,,60,matar,,,,,795.3265,798.2759,0,0,2.4124,,0,29,29,59,1,REAL,FAKE,,,,,,,,,,,,,,,,,
,,,,,,,,,663298e9fb8d4ab0415f49fb,Caribbean Spanish,13 or older,"no, only English or Spanish",yes,2025-07-22_20h51.11.454,empathy_intonation_perc,2024.2.4,MacIntel,57.47126437,663298e9fb8d4ab0415f49fb,687ed1b7e638a4cbf2f02089,688031c403835510018c68d9,,,,,,,,,,,,,,1,,,,,,,,,,,,,,,,,,,,,,,,,,,,,,,,,,,,,,,,,,,,,,,,,,,,,,,,,91,click the 1 key.,,,,,798.2766,800.56,1,1,1.7426,,0,30,30,90,1,REAL,FAKE,,,,,,,,,,,,,,,,,
,,,,,,,,,663298e9fb8d4ab0415f49fb,Caribbean Spanish,13 or older,"no, only English or Spanish",yes,2025-07-22_20h51.11.454,empathy_intonation_perc,2024.2.4,MacIntel,57.47126437,663298e9fb8d4ab0415f49fb,687ed1b7e638a4cbf2f02089,688031c403835510018c68d9,,,,,,,,,,,,,,1,,,,,,,,,,,,,,,,,,,,,,,,,,,,,,,,,,,,,,,,,,,,,,,,,,,,,,,,,83,guante,,,,,800.5607,803.4104,0,0,2.3142,,0,31,31,82,1,REAL,FAKE,,,,,,,,,,,,,,,,,
,,,,,,,,,663298e9fb8d4ab0415f49fb,Caribbean Spanish,13 or older,"no, only English or Spanish",yes,2025-07-22_20h51.11.454,empathy_intonation_perc,2024.2.4,MacIntel,57.47126437,663298e9fb8d4ab0415f49fb,687ed1b7e638a4cbf2f02089,688031c403835510018c68d9,,,,,,,,,,,,,,1,,,,,,,,,,,,,,,,,,,,,,,,,,,,,,,,,,,,,,,,,,,,,,,,,,,,,,,,,28,merodear,,,,,803.4113,805.7766,0,0,1.8311,,0,32,32,27,1,REAL,FAKE,,,,,,,,,,,,,,,,,
,,,,,,,,,663298e9fb8d4ab0415f49fb,Caribbean Spanish,13 or older,"no, only English or Spanish",yes,2025-07-22_20h51.11.454,empathy_intonation_perc,2024.2.4,MacIntel,57.47126437,663298e9fb8d4ab0415f49fb,687ed1b7e638a4cbf2f02089,688031c403835510018c68d9,,,,,,,,,,,,,,1,,,,,,,,,,,,,,,,,,,,,,,,,,,,,,,,,,,,,,,,,,,,,,,,,,,,,,,,,76,atar,,,,,805.7774,807.4443,0,0,1.1459,,0,33,33,75,1,REAL,FAKE,,,,,,,,,,,,,,,,,
,,,,,,,,,663298e9fb8d4ab0415f49fb,Caribbean Spanish,13 or older,"no, only English or Spanish",yes,2025-07-22_20h51.11.454,empathy_intonation_perc,2024.2.4,MacIntel,57.47126437,663298e9fb8d4ab0415f49fb,687ed1b7e638a4cbf2f02089,688031c403835510018c68d9,,,,,,,,,,,,,,1,,,,,,,,,,,,,,,,,,,,,,,,,,,,,,,,,,,,,,,,,,,,,,,,,,,,,,,,,52,camisa,,,,,807.4451,808.9777,1,1,0.9965,,0,34,34,51,1,REAL,FAKE,,,,,,,,,,,,,,,,,
,,,,,,,,,663298e9fb8d4ab0415f49fb,Caribbean Spanish,13 or older,"no, only English or Spanish",yes,2025-07-22_20h51.11.454,empathy_intonation_perc,2024.2.4,MacIntel,57.47126437,663298e9fb8d4ab0415f49fb,687ed1b7e638a4cbf2f02089,688031c403835510018c68d9,,,,,,,,,,,,,,1,,,,,,,,,,,,,,,,,,,,,,,,,,,,,,,,,,,,,,,,,,,,,,,,,,,,,,,,,68,alegre,,,,,808.9784,810.528,1,1,1.0178,,0,35,35,67,1,REAL,FAKE,,,,,,,,,,,,,,,,,
,,,,,,,,,663298e9fb8d4ab0415f49fb,Caribbean Spanish,13 or older,"no, only English or Spanish",yes,2025-07-22_20h51.11.454,empathy_intonation_perc,2024.2.4,MacIntel,57.47126437,663298e9fb8d4ab0415f49fb,687ed1b7e638a4cbf2f02089,688031c403835510018c68d9,,,,,,,,,,,,,,1,,,,,,,,,,,,,,,,,,,,,,,,,,,,,,,,,,,,,,,,,,,,,,,,,,,,,,,,,57,tacaño,,,,,810.529,814.5944,0,0,3.5277,,0,36,36,56,1,REAL,FAKE,,,,,,,,,,,,,,,,,
,,,,,,,,,663298e9fb8d4ab0415f49fb,Caribbean Spanish,13 or older,"no, only English or Spanish",yes,2025-07-22_20h51.11.454,empathy_intonation_perc,2024.2.4,MacIntel,57.47126437,663298e9fb8d4ab0415f49fb,687ed1b7e638a4cbf2f02089,688031c403835510018c68d9,,,,,,,,,,,,,,1,,,,,,,,,,,,,,,,,,,,,,,,,,,,,,,,,,,,,,,,,,,,,,,,,,,,,,,,,51,candado,,,,,814.5953,816.2287,1,1,1.1053,,0,37,37,50,1,REAL,FAKE,,,,,,,,,,,,,,,,,
,,,,,,,,,663298e9fb8d4ab0415f49fb,Caribbean Spanish,13 or older,"no, only English or Spanish",yes,2025-07-22_20h51.11.454,empathy_intonation_perc,2024.2.4,MacIntel,57.47126437,663298e9fb8d4ab0415f49fb,687ed1b7e638a4cbf2f02089,688031c403835510018c68d9,,,,,,,,,,,,,,0,,,,,,,,,,,,,,,,,,,,,,,,,,,,,,,,,,,,,,,,,,,,,,,,,,,,,,,,,16,abracer,,,,,816.2296,818.0275,1,0,1.2666,,0,38,38,15,1,REAL,FAKE,,,,,,,,,,,,,,,,,
,,,,,,,,,663298e9fb8d4ab0415f49fb,Caribbean Spanish,13 or older,"no, only English or Spanish",yes,2025-07-22_20h51.11.454,empathy_intonation_perc,2024.2.4,MacIntel,57.47126437,663298e9fb8d4ab0415f49fb,687ed1b7e638a4cbf2f02089,688031c403835510018c68d9,,,,,,,,,,,,,,1,,,,,,,,,,,,,,,,,,,,,,,,,,,,,,,,,,,,,,,,,,,,,,,,,,,,,,,,,67,cabello,,,,,818.0282,819.7126,1,1,1.1642,,0,39,39,66,1,REAL,FAKE,,,,,,,,,,,,,,,,,
,,,,,,,,,663298e9fb8d4ab0415f49fb,Caribbean Spanish,13 or older,"no, only English or Spanish",yes,2025-07-22_20h51.11.454,empathy_intonation_perc,2024.2.4,MacIntel,57.47126437,663298e9fb8d4ab0415f49fb,687ed1b7e638a4cbf2f02089,688031c403835510018c68d9,,,,,,,,,,,,,,1,,,,,,,,,,,,,,,,,,,,,,,,,,,,,,,,,,,,,,,,,,,,,,,,,,,,,,,,,25,bisagra,,,,,819.7135,821.7286,0,0,1.4745,,0,40,40,24,1,REAL,FAKE,,,,,,,,,,,,,,,,,
,,,,,,,,,663298e9fb8d4ab0415f49fb,Caribbean Spanish,13 or older,"no, only English or Spanish",yes,2025-07-22_20h51.11.454,empathy_intonation_perc,2024.2.4,MacIntel,57.47126437,663298e9fb8d4ab0415f49fb,687ed1b7e638a4cbf2f02089,688031c403835510018c68d9,,,,,,,,,,,,,,1,,,,,,,,,,,,,,,,,,,,,,,,,,,,,,,,,,,,,,,,,,,,,,,,,,,,,,,,,73,hervidor,,,,,821.7295,823.8118,0,0,1.5653,,0,41,41,72,1,REAL,FAKE,,,,,,,,,,,,,,,,,
,,,,,,,,,663298e9fb8d4ab0415f49fb,Caribbean Spanish,13 or older,"no, only English or Spanish",yes,2025-07-22_20h51.11.454,empathy_intonation_perc,2024.2.4,MacIntel,57.47126437,663298e9fb8d4ab0415f49fb,687ed1b7e638a4cbf2f02089,688031c403835510018c68d9,,,,,,,,,,,,,,1,,,,,,,,,,,,,,,,,,,,,,,,,,,,,,,,,,,,,,,,,,,,,,,,,,,,,,,,,86,barato,,,,,823.8124,829.3796,0,0,5.0511,,0,42,42,85,1,REAL,FAKE,,,,,,,,,,,,,,,,,
,,,,,,,,,663298e9fb8d4ab0415f49fb,Caribbean Spanish,13 or older,"no, only English or Spanish",yes,2025-07-22_20h51.11.454,empathy_intonation_perc,2024.2.4,MacIntel,57.47126437,663298e9fb8d4ab0415f49fb,687ed1b7e638a4cbf2f02089,688031c403835510018c68d9,,,,,,,,,,,,,,0,,,,,,,,,,,,,,,,,,,,,,,,,,,,,,,,,,,,,,,,,,,,,,,,,,,,,,,,,82,empirador,,,,,829.3802,830.7471,1,0,0.8439,,0,43,43,81,1,REAL,FAKE,,,,,,,,,,,,,,,,,
,,,,,,,,,663298e9fb8d4ab0415f49fb,Caribbean Spanish,13 or older,"no, only English or Spanish",yes,2025-07-22_20h51.11.454,empathy_intonation_perc,2024.2.4,MacIntel,57.47126437,663298e9fb8d4ab0415f49fb,687ed1b7e638a4cbf2f02089,688031c403835510018c68d9,,,,,,,,,,,,,,0,,,,,,,,,,,,,,,,,,,,,,,,,,,,,,,,,,,,,,,,,,,,,,,,,,,,,,,,,79,tropaje,,,,,830.748,832.8797,0,1,1.5982,,0,44,44,78,1,REAL,FAKE,,,,,,,,,,,,,,,,,
,,,,,,,,,663298e9fb8d4ab0415f49fb,Caribbean Spanish,13 or older,"no, only English or Spanish",yes,2025-07-22_20h51.11.454,empathy_intonation_perc,2024.2.4,MacIntel,57.47126437,663298e9fb8d4ab0415f49fb,687ed1b7e638a4cbf2f02089,688031c403835510018c68d9,,,,,,,,,,,,,,0,,,,,,,,,,,,,,,,,,,,,,,,,,,,,,,,,,,,,,,,,,,,,,,,,,,,,,,,,1,terzo,,,,,832.8805,835.9145,1,0,2.5121,,0,45,45,0,1,REAL,FAKE,,,,,,,,,,,,,,,,,
,,,,,,,,,663298e9fb8d4ab0415f49fb,Caribbean Spanish,13 or older,"no, only English or Spanish",yes,2025-07-22_20h51.11.454,empathy_intonation_perc,2024.2.4,MacIntel,57.47126437,663298e9fb8d4ab0415f49fb,687ed1b7e638a4cbf2f02089,688031c403835510018c68d9,,,,,,,,,,,,,,1,,,,,,,,,,,,,,,,,,,,,,,,,,,,,,,,,,,,,,,,,,,,,,,,,,,,,,,,,15,regar,,,,,835.9153,842.4317,0,0,5.9831,,0,46,46,14,1,REAL,FAKE,,,,,,,,,,,,,,,,,
,,,,,,,,,663298e9fb8d4ab0415f49fb,Caribbean Spanish,13 or older,"no, only English or Spanish",yes,2025-07-22_20h51.11.454,empathy_intonation_perc,2024.2.4,MacIntel,57.47126437,663298e9fb8d4ab0415f49fb,687ed1b7e638a4cbf2f02089,688031c403835510018c68d9,,,,,,,,,,,,,,1,,,,,,,,,,,,,,,,,,,,,,,,,,,,,,,,,,,,,,,,,,,,,,,,,,,,,,,,,46,martillo,,,,,842.4323,843.9653,0,0,0.9956,,0,47,47,45,1,REAL,FAKE,,,,,,,,,,,,,,,,,
,,,,,,,,,663298e9fb8d4ab0415f49fb,Caribbean Spanish,13 or older,"no, only English or Spanish",yes,2025-07-22_20h51.11.454,empathy_intonation_perc,2024.2.4,MacIntel,57.47126437,663298e9fb8d4ab0415f49fb,687ed1b7e638a4cbf2f02089,688031c403835510018c68d9,,,,,,,,,,,,,,0,,,,,,,,,,,,,,,,,,,,,,,,,,,,,,,,,,,,,,,,,,,,,,,,,,,,,,,,,92,click the 0 key.,,,,,843.9663,845.8311,0,1,1.3225,,0,48,48,91,1,REAL,FAKE,,,,,,,,,,,,,,,,,
,,,,,,,,,663298e9fb8d4ab0415f49fb,Caribbean Spanish,13 or older,"no, only English or Spanish",yes,2025-07-22_20h51.11.454,empathy_intonation_perc,2024.2.4,MacIntel,57.47126437,663298e9fb8d4ab0415f49fb,687ed1b7e638a4cbf2f02089,688031c403835510018c68d9,,,,,,,,,,,,,,0,,,,,,,,,,,,,,,,,,,,,,,,,,,,,,,,,,,,,,,,,,,,,,,,,,,,,,,,,23,lampera,,,,,845.8317,848.1319,1,0,1.7874,,0,49,49,22,1,REAL,FAKE,,,,,,,,,,,,,,,,,
,,,,,,,,,663298e9fb8d4ab0415f49fb,Caribbean Spanish,13 or older,"no, only English or Spanish",yes,2025-07-22_20h51.11.454,empathy_intonation_perc,2024.2.4,MacIntel,57.47126437,663298e9fb8d4ab0415f49fb,687ed1b7e638a4cbf2f02089,688031c403835510018c68d9,,,,,,,,,,,,,,0,,,,,,,,,,,,,,,,,,,,,,,,,,,,,,,,,,,,,,,,,,,,,,,,,,,,,,,,,74,cintro,,,,,848.1326,850.033,1,0,1.381,,0,50,50,73,1,REAL,FAKE,,,,,,,,,,,,,,,,,
,,,,,,,,,663298e9fb8d4ab0415f49fb,Caribbean Spanish,13 or older,"no, only English or Spanish",yes,2025-07-22_20h51.11.454,empathy_intonation_perc,2024.2.4,MacIntel,57.47126437,663298e9fb8d4ab0415f49fb,687ed1b7e638a4cbf2f02089,688031c403835510018c68d9,,,,,,,,,,,,,,1,,,,,,,,,,,,,,,,,,,,,,,,,,,,,,,,,,,,,,,,,,,,,,,,,,,,,,,,,9,hacha,,,,,850.0337,851.9318,0,0,1.3701,,0,51,51,8,1,REAL,FAKE,,,,,,,,,,,,,,,,,
,,,,,,,,,663298e9fb8d4ab0415f49fb,Caribbean Spanish,13 or older,"no, only English or Spanish",yes,2025-07-22_20h51.11.454,empathy_intonation_perc,2024.2.4,MacIntel,57.47126437,663298e9fb8d4ab0415f49fb,687ed1b7e638a4cbf2f02089,688031c403835510018c68d9,,,,,,,,,,,,,,1,,,,,,,,,,,,,,,,,,,,,,,,,,,,,,,,,,,,,,,,,,,,,,,,,,,,,,,,,14,yunque,,,,,851.9324,857.3668,0,0,4.91,,0,52,52,13,1,REAL,FAKE,,,,,,,,,,,,,,,,,
,,,,,,,,,663298e9fb8d4ab0415f49fb,Caribbean Spanish,13 or older,"no, only English or Spanish",yes,2025-07-22_20h51.11.454,empathy_intonation_perc,2024.2.4,MacIntel,57.47126437,663298e9fb8d4ab0415f49fb,687ed1b7e638a4cbf2f02089,688031c403835510018c68d9,,,,,,,,,,,,,,1,,,,,,,,,,,,,,,,,,,,,,,,,,,,,,,,,,,,,,,,,,,,,,,,,,,,,,,,,89,prisa,,,,,857.3678,861.1343,0,0,3.2295,,0,53,53,88,1,REAL,FAKE,,,,,,,,,,,,,,,,,
,,,,,,,,,663298e9fb8d4ab0415f49fb,Caribbean Spanish,13 or older,"no, only English or Spanish",yes,2025-07-22_20h51.11.454,empathy_intonation_perc,2024.2.4,MacIntel,57.47126437,663298e9fb8d4ab0415f49fb,687ed1b7e638a4cbf2f02089,688031c403835510018c68d9,,,,,,,,,,,,,,0,,,,,,,,,,,,,,,,,,,,,,,,,,,,,,,,,,,,,,,,,,,,,,,,,,,,,,,,,33,pauca,,,,,861.1351,862.6342,0,1,0.9635,,0,54,54,32,1,REAL,FAKE,,,,,,,,,,,,,,,,,
,,,,,,,,,663298e9fb8d4ab0415f49fb,Caribbean Spanish,13 or older,"no, only English or Spanish",yes,2025-07-22_20h51.11.454,empathy_intonation_perc,2024.2.4,MacIntel,57.47126437,663298e9fb8d4ab0415f49fb,687ed1b7e638a4cbf2f02089,688031c403835510018c68d9,,,,,,,,,,,,,,1,,,,,,,,,,,,,,,,,,,,,,,,,,,,,,,,,,,,,,,,,,,,,,,,,,,,,,,,,62,flaco,,,,,862.635,864.0342,1,1,0.8645,,0,55,55,61,1,REAL,FAKE,,,,,,,,,,,,,,,,,
,,,,,,,,,663298e9fb8d4ab0415f49fb,Caribbean Spanish,13 or older,"no, only English or Spanish",yes,2025-07-22_20h51.11.454,empathy_intonation_perc,2024.2.4,MacIntel,57.47126437,663298e9fb8d4ab0415f49fb,687ed1b7e638a4cbf2f02089,688031c403835510018c68d9,,,,,,,,,,,,,,0,,,,,,,,,,,,,,,,,,,,,,,,,,,,,,,,,,,,,,,,,,,,,,,,,,,,,,,,,19,brecedad,,,,,864.0351,866.8178,0,1,2.2463,,0,56,56,18,1,REAL,FAKE,,,,,,,,,,,,,,,,,
,,,,,,,,,663298e9fb8d4ab0415f49fb,Caribbean Spanish,13 or older,"no, only English or Spanish",yes,2025-07-22_20h51.11.454,empathy_intonation_perc,2024.2.4,MacIntel,57.47126437,663298e9fb8d4ab0415f49fb,687ed1b7e638a4cbf2f02089,688031c403835510018c68d9,,,,,,,,,,,,,,0,,,,,,,,,,,,,,,,,,,,,,,,,,,,,,,,,,,,,,,,,,,,,,,,,,,,,,,,,50,flamida,,,,,866.8187,868.4179,1,0,1.0637,,0,57,57,49,1,REAL,FAKE,,,,,,,,,,,,,,,,,
,,,,,,,,,663298e9fb8d4ab0415f49fb,Caribbean Spanish,13 or older,"no, only English or Spanish",yes,2025-07-22_20h51.11.454,empathy_intonation_perc,2024.2.4,MacIntel,57.47126437,663298e9fb8d4ab0415f49fb,687ed1b7e638a4cbf2f02089,688031c403835510018c68d9,,,,,,,,,,,,,,1,,,,,,,,,,,,,,,,,,,,,,,,,,,,,,,,,,,,,,,,,,,,,,,,,,,,,,,,,65,bizcocho,,,,,868.4185,870.0019,0,0,1.0494,,0,58,58,64,1,REAL,FAKE,,,,,,,,,,,,,,,,,
,,,,,,,,,663298e9fb8d4ab0415f49fb,Caribbean Spanish,13 or older,"no, only English or Spanish",yes,2025-07-22_20h51.11.454,empathy_intonation_perc,2024.2.4,MacIntel,57.47126437,663298e9fb8d4ab0415f49fb,687ed1b7e638a4cbf2f02089,688031c403835510018c68d9,,,,,,,,,,,,,,1,,,,,,,,,,,,,,,,,,,,,,,,,,,,,,,,,,,,,,,,,,,,,,,,,,,,,,,,,34,aviso,,,,,870.0028,871.4675,1,1,0.9359,,0,59,59,33,1,REAL,FAKE,,,,,,,,,,,,,,,,,
,,,,,,,,,663298e9fb8d4ab0415f49fb,Caribbean Spanish,13 or older,"no, only English or Spanish",yes,2025-07-22_20h51.11.454,empathy_intonation_perc,2024.2.4,MacIntel,57.47126437,663298e9fb8d4ab0415f49fb,687ed1b7e638a4cbf2f02089,688031c403835510018c68d9,,,,,,,,,,,,,,1,,,,,,,,,,,,,,,,,,,,,,,,,,,,,,,,,,,,,,,,,,,,,,,,,,,,,,,,,3,pulmones,,,,,871.4681,875.9192,1,1,3.9156,,0,60,60,2,1,REAL,FAKE,,,,,,,,,,,,,,,,,
,,,,,,,,,663298e9fb8d4ab0415f49fb,Caribbean Spanish,13 or older,"no, only English or Spanish",yes,2025-07-22_20h51.11.454,empathy_intonation_perc,2024.2.4,MacIntel,57.47126437,663298e9fb8d4ab0415f49fb,687ed1b7e638a4cbf2f02089,688031c403835510018c68d9,,,,,,,,,,,,,,0,,,,,,,,,,,,,,,,,,,,,,,,,,,,,,,,,,,,,,,,,,,,,,,,,,,,,,,,,35,rompido,,,,,875.9201,877.5193,0,1,1.0655,,0,61,61,34,1,REAL,FAKE,,,,,,,,,,,,,,,,,
,,,,,,,,,663298e9fb8d4ab0415f49fb,Caribbean Spanish,13 or older,"no, only English or Spanish",yes,2025-07-22_20h51.11.454,empathy_intonation_perc,2024.2.4,MacIntel,57.47126437,663298e9fb8d4ab0415f49fb,687ed1b7e638a4cbf2f02089,688031c403835510018c68d9,,,,,,,,,,,,,,1,,,,,,,,,,,,,,,,,,,,,,,,,,,,,,,,,,,,,,,,,,,,,,,,,,,,,,,,,6,tergiversar,,,,,877.52,879.4519,0,0,1.4029,,0,62,62,5,1,REAL,FAKE,,,,,,,,,,,,,,,,,
,,,,,,,,,663298e9fb8d4ab0415f49fb,Caribbean Spanish,13 or older,"no, only English or Spanish",yes,2025-07-22_20h51.11.454,empathy_intonation_perc,2024.2.4,MacIntel,57.47126437,663298e9fb8d4ab0415f49fb,687ed1b7e638a4cbf2f02089,688031c403835510018c68d9,,,,,,,,,,,,,,1,,,,,,,,,,,,,,,,,,,,,,,,,,,,,,,,,,,,,,,,,,,,,,,,,,,,,,,,,11,cenefa,,,,,879.4526,881.8354,0,0,1.854,,0,63,63,10,1,REAL,FAKE,,,,,,,,,,,,,,,,,
,,,,,,,,,663298e9fb8d4ab0415f49fb,Caribbean Spanish,13 or older,"no, only English or Spanish",yes,2025-07-22_20h51.11.454,empathy_intonation_perc,2024.2.4,MacIntel,57.47126437,663298e9fb8d4ab0415f49fb,687ed1b7e638a4cbf2f02089,688031c403835510018c68d9,,,,,,,,,,,,,,1,,,,,,,,,,,,,,,,,,,,,,,,,,,,,,,,,,,,,,,,,,,,,,,,,,,,,,,,,40,alfombra,,,,,881.836,883.7702,0,0,1.4142,,0,64,64,39,1,REAL,FAKE,,,,,,,,,,,,,,,,,
,,,,,,,,,663298e9fb8d4ab0415f49fb,Caribbean Spanish,13 or older,"no, only English or Spanish",yes,2025-07-22_20h51.11.454,empathy_intonation_perc,2024.2.4,MacIntel,57.47126437,663298e9fb8d4ab0415f49fb,687ed1b7e638a4cbf2f02089,688031c403835510018c68d9,,,,,,,,,,,,,,0,,,,,,,,,,,,,,,,,,,,,,,,,,,,,,,,,,,,,,,,,,,,,,,,,,,,,,,,,32,fatacidad,,,,,883.7711,886.2359,0,1,1.9309,,0,65,65,31,1,REAL,FAKE,,,,,,,,,,,,,,,,,
,,,,,,,,,663298e9fb8d4ab0415f49fb,Caribbean Spanish,13 or older,"no, only English or Spanish",yes,2025-07-22_20h51.11.454,empathy_intonation_perc,2024.2.4,MacIntel,57.47126437,663298e9fb8d4ab0415f49fb,687ed1b7e638a4cbf2f02089,688031c403835510018c68d9,,,,,,,,,,,,,,1,,,,,,,,,,,,,,,,,,,,,,,,,,,,,,,,,,,,,,,,,,,,,,,,,,,,,,,,,38,estornudar,,,,,886.2366,890.3041,1,1,3.5482,,0,66,66,37,1,REAL,FAKE,,,,,,,,,,,,,,,,,
,,,,,,,,,663298e9fb8d4ab0415f49fb,Caribbean Spanish,13 or older,"no, only English or Spanish",yes,2025-07-22_20h51.11.454,empathy_intonation_perc,2024.2.4,MacIntel,57.47126437,663298e9fb8d4ab0415f49fb,687ed1b7e638a4cbf2f02089,688031c403835510018c68d9,,,,,,,,,,,,,,1,,,,,,,,,,,,,,,,,,,,,,,,,,,,,,,,,,,,,,,,,,,,,,,,,,,,,,,,,22,lacayo,,,,,890.3048,892.7876,0,0,1.9614,,0,67,67,21,1,REAL,FAKE,,,,,,,,,,,,,,,,,
,,,,,,,,,663298e9fb8d4ab0415f49fb,Caribbean Spanish,13 or older,"no, only English or Spanish",yes,2025-07-22_20h51.11.454,empathy_intonation_perc,2024.2.4,MacIntel,57.47126437,663298e9fb8d4ab0415f49fb,687ed1b7e638a4cbf2f02089,688031c403835510018c68d9,,,,,,,,,,,,,,1,,,,,,,,,,,,,,,,,,,,,,,,,,,,,,,,,,,,,,,,,,,,,,,,,,,,,,,,,13,helar,,,,,892.7884,894.5204,0,0,1.1979,,0,68,68,12,1,REAL,FAKE,,,,,,,,,,,,,,,,,
,,,,,,,,,663298e9fb8d4ab0415f49fb,Caribbean Spanish,13 or older,"no, only English or Spanish",yes,2025-07-22_20h51.11.454,empathy_intonation_perc,2024.2.4,MacIntel,57.47126437,663298e9fb8d4ab0415f49fb,687ed1b7e638a4cbf2f02089,688031c403835510018c68d9,,,,,,,,,,,,,,1,,,,,,,,,,,,,,,,,,,,,,,,,,,,,,,,,,,,,,,,,,,,,,,,,,,,,,,,,75,yacer,,,,,894.5211,895.738,0,0,0.6826,,0,69,69,74,1,REAL,FAKE,,,,,,,,,,,,,,,,,
,,,,,,,,,663298e9fb8d4ab0415f49fb,Caribbean Spanish,13 or older,"no, only English or Spanish",yes,2025-07-22_20h51.11.454,empathy_intonation_perc,2024.2.4,MacIntel,57.47126437,663298e9fb8d4ab0415f49fb,687ed1b7e638a4cbf2f02089,688031c403835510018c68d9,,,,,,,,,,,,,,1,,,,,,,,,,,,,,,,,,,,,,,,,,,,,,,,,,,,,,,,,,,,,,,,,,,,,,,,,39,torpe,,,,,895.7389,897.4546,0,0,1.181,,0,70,70,38,1,REAL,FAKE,,,,,,,,,,,,,,,,,
,,,,,,,,,663298e9fb8d4ab0415f49fb,Caribbean Spanish,13 or older,"no, only English or Spanish",yes,2025-07-22_20h51.11.454,empathy_intonation_perc,2024.2.4,MacIntel,57.47126437,663298e9fb8d4ab0415f49fb,687ed1b7e638a4cbf2f02089,688031c403835510018c68d9,,,,,,,,,,,,,,1,,,,,,,,,,,,,,,,,,,,,,,,,,,,,,,,,,,,,,,,,,,,,,,,,,,,,,,,,24,látigo,,,,,897.4556,902.8057,1,1,4.8324,,0,71,71,23,1,REAL,FAKE,,,,,,,,,,,,,,,,,
,,,,,,,,,663298e9fb8d4ab0415f49fb,Caribbean Spanish,13 or older,"no, only English or Spanish",yes,2025-07-22_20h51.11.454,empathy_intonation_perc,2024.2.4,MacIntel,57.47126437,663298e9fb8d4ab0415f49fb,687ed1b7e638a4cbf2f02089,688031c403835510018c68d9,,,,,,,,,,,,,,1,,,,,,,,,,,,,,,,,,,,,,,,,,,,,,,,,,,,,,,,,,,,,,,,,,,,,,,,,64,orgulloso,,,,,902.8064,904.1881,0,0,0.8484,,0,72,72,63,1,REAL,FAKE,,,,,,,,,,,,,,,,,
,,,,,,,,,663298e9fb8d4ab0415f49fb,Caribbean Spanish,13 or older,"no, only English or Spanish",yes,2025-07-22_20h51.11.454,empathy_intonation_perc,2024.2.4,MacIntel,57.47126437,663298e9fb8d4ab0415f49fb,687ed1b7e638a4cbf2f02089,688031c403835510018c68d9,,,,,,,,,,,,,,1,,,,,,,,,,,,,,,,,,,,,,,,,,,,,,,,,,,,,,,,,,,,,,,,,,,,,,,,,37,granuja,,,,,904.1888,905.8716,1,1,1.1614,,0,73,73,36,1,REAL,FAKE,,,,,,,,,,,,,,,,,
,,,,,,,,,663298e9fb8d4ab0415f49fb,Caribbean Spanish,13 or older,"no, only English or Spanish",yes,2025-07-22_20h51.11.454,empathy_intonation_perc,2024.2.4,MacIntel,57.47126437,663298e9fb8d4ab0415f49fb,687ed1b7e638a4cbf2f02089,688031c403835510018c68d9,,,,,,,,,,,,,,1,,,,,,,,,,,,,,,,,,,,,,,,,,,,,,,,,,,,,,,,,,,,,,,,,,,,,,,,,77,tiburón,,,,,905.8722,908.173,1,1,1.7868,,0,74,74,76,1,REAL,FAKE,,,,,,,,,,,,,,,,,
,,,,,,,,,663298e9fb8d4ab0415f49fb,Caribbean Spanish,13 or older,"no, only English or Spanish",yes,2025-07-22_20h51.11.454,empathy_intonation_perc,2024.2.4,MacIntel,57.47126437,663298e9fb8d4ab0415f49fb,687ed1b7e638a4cbf2f02089,688031c403835510018c68d9,,,,,,,,,,,,,,1,,,,,,,,,,,,,,,,,,,,,,,,,,,,,,,,,,,,,,,,,,,,,,,,,,,,,,,,,36,loro,,,,,908.1736,910.5898,0,0,1.8797,,0,75,75,35,1,REAL,FAKE,,,,,,,,,,,,,,,,,
,,,,,,,,,663298e9fb8d4ab0415f49fb,Caribbean Spanish,13 or older,"no, only English or Spanish",yes,2025-07-22_20h51.11.454,empathy_intonation_perc,2024.2.4,MacIntel,57.47126437,663298e9fb8d4ab0415f49fb,687ed1b7e638a4cbf2f02089,688031c403835510018c68d9,,,,,,,,,,,,,,1,,,,,,,,,,,,,,,,,,,,,,,,,,,,,,,,,,,,,,,,,,,,,,,,,,,,,,,,,90,clavel,,,,,910.5903,912.59,0,0,1.4843,,0,76,76,89,1,REAL,FAKE,,,,,,,,,,,,,,,,,
,,,,,,,,,663298e9fb8d4ab0415f49fb,Caribbean Spanish,13 or older,"no, only English or Spanish",yes,2025-07-22_20h51.11.454,empathy_intonation_perc,2024.2.4,MacIntel,57.47126437,663298e9fb8d4ab0415f49fb,687ed1b7e638a4cbf2f02089,688031c403835510018c68d9,,,,,,,,,,,,,,0,,,,,,,,,,,,,,,,,,,,,,,,,,,,,,,,,,,,,,,,,,,,,,,,,,,,,,,,,17,floroso,,,,,912.5908,914.0906,1,0,0.9634,,0,77,77,16,1,REAL,FAKE,,,,,,,,,,,,,,,,,
,,,,,,,,,663298e9fb8d4ab0415f49fb,Caribbean Spanish,13 or older,"no, only English or Spanish",yes,2025-07-22_20h51.11.454,empathy_intonation_perc,2024.2.4,MacIntel,57.47126437,663298e9fb8d4ab0415f49fb,687ed1b7e638a4cbf2f02089,688031c403835510018c68d9,,,,,,,,,,,,,,1,,,,,,,,,,,,,,,,,,,,,,,,,,,,,,,,,,,,,,,,,,,,,,,,,,,,,,,,,48,ladrón,,,,,914.0914,915.9241,0,0,1.2983,,0,78,78,47,1,REAL,FAKE,,,,,,,,,,,,,,,,,
,,,,,,,,,663298e9fb8d4ab0415f49fb,Caribbean Spanish,13 or older,"no, only English or Spanish",yes,2025-07-22_20h51.11.454,empathy_intonation_perc,2024.2.4,MacIntel,57.47126437,663298e9fb8d4ab0415f49fb,687ed1b7e638a4cbf2f02089,688031c403835510018c68d9,,,,,,,,,,,,,,0,,,,,,,,,,,,,,,,,,,,,,,,,,,,,,,,,,,,,,,,,,,,,,,,,,,,,,,,,8,cadeña,,,,,915.9249,917.8577,1,0,1.3964,,0,79,79,7,1,REAL,FAKE,,,,,,,,,,,,,,,,,
,,,,,,,,,663298e9fb8d4ab0415f49fb,Caribbean Spanish,13 or older,"no, only English or Spanish",yes,2025-07-22_20h51.11.454,empathy_intonation_perc,2024.2.4,MacIntel,57.47126437,663298e9fb8d4ab0415f49fb,687ed1b7e638a4cbf2f02089,688031c403835510018c68d9,,,,,,,,,,,,,,0,,,,,,,,,,,,,,,,,,,,,,,,,,,,,,,,,,,,,,,,,,,,,,,,,,,,,,,,,47,cartinar,,,,,917.8585,919.6412,1,0,1.2463,,0,80,80,46,1,REAL,FAKE,,,,,,,,,,,,,,,,,
,,,,,,,,,663298e9fb8d4ab0415f49fb,Caribbean Spanish,13 or older,"no, only English or Spanish",yes,2025-07-22_20h51.11.454,empathy_intonation_perc,2024.2.4,MacIntel,57.47126437,663298e9fb8d4ab0415f49fb,687ed1b7e638a4cbf2f02089,688031c403835510018c68d9,,,,,,,,,,,,,,0,,,,,,,,,,,,,,,,,,,,,,,,,,,,,,,,,,,,,,,,,,,,,,,,,,,,,,,,,18,arsa,,,,,919.6421,921.3077,0,1,1.1344,,0,81,81,17,1,REAL,FAKE,,,,,,,,,,,,,,,,,
,,,,,,,,,663298e9fb8d4ab0415f49fb,Caribbean Spanish,13 or older,"no, only English or Spanish",yes,2025-07-22_20h51.11.454,empathy_intonation_perc,2024.2.4,MacIntel,57.47126437,663298e9fb8d4ab0415f49fb,687ed1b7e638a4cbf2f02089,688031c403835510018c68d9,,,,,,,,,,,,,,1,,,,,,,,,,,,,,,,,,,,,,,,,,,,,,,,,,,,,,,,,,,,,,,,,,,,,,,,,20,ávido,,,,,921.3083,922.8573,1,1,1.0135,,0,82,82,19,1,REAL,FAKE,,,,,,,,,,,,,,,,,
,,,,,,,,,663298e9fb8d4ab0415f49fb,Caribbean Spanish,13 or older,"no, only English or Spanish",yes,2025-07-22_20h51.11.454,empathy_intonation_perc,2024.2.4,MacIntel,57.47126437,663298e9fb8d4ab0415f49fb,687ed1b7e638a4cbf2f02089,688031c403835510018c68d9,,,,,,,,,,,,,,0,,,,,,,,,,,,,,,,,,,,,,,,,,,,,,,,,,,,,,,,,,,,,,,,,,,,,,,,,4,batillón,,,,,922.8582,926.0251,0,1,2.6479,,0,83,83,3,1,REAL,FAKE,,,,,,,,,,,,,,,,,
,,,,,,,,,663298e9fb8d4ab0415f49fb,Caribbean Spanish,13 or older,"no, only English or Spanish",yes,2025-07-22_20h51.11.454,empathy_intonation_perc,2024.2.4,MacIntel,57.47126437,663298e9fb8d4ab0415f49fb,687ed1b7e638a4cbf2f02089,688031c403835510018c68d9,,,,,,,,,,,,,,1,,,,,,,,,,,,,,,,,,,,,,,,,,,,,,,,,,,,,,,,,,,,,,,,,,,,,,,,,49,ganar,,,,,926.0261,927.6088,0,0,1.0468,,0,84,84,48,1,REAL,FAKE,,,,,,,,,,,,,,,,,
,,,,,,,,,663298e9fb8d4ab0415f49fb,Caribbean Spanish,13 or older,"no, only English or Spanish",yes,2025-07-22_20h51.11.454,empathy_intonation_perc,2024.2.4,MacIntel,57.47126437,663298e9fb8d4ab0415f49fb,687ed1b7e638a4cbf2f02089,688031c403835510018c68d9,,,,,,,,,,,,,,1,,,,,,,,,,,,,,,,,,,,,,,,,,,,,,,,,,,,,,,,,,,,,,,,,,,,,,,,,5,zapato,,,,,927.6096,929.3758,1,1,1.2342,,0,85,85,4,1,REAL,FAKE,,,,,,,,,,,,,,,,,
,,,,,,,,,663298e9fb8d4ab0415f49fb,Caribbean Spanish,13 or older,"no, only English or Spanish",yes,2025-07-22_20h51.11.454,empathy_intonation_perc,2024.2.4,MacIntel,57.47126437,663298e9fb8d4ab0415f49fb,687ed1b7e638a4cbf2f02089,688031c403835510018c68d9,,,,,,,,,,,,,,1,,,,,,,,,,,,,,,,,,,,,,,,,,,,,,,,,,,,,,,,,,,,,,,,,,,,,,,,,88,acantilado,,,,,929.3766,931.3092,1,1,1.4009,,0,86,86,87,1,REAL,FAKE,,,,,,,,,,,,,,,,,
,,,,,,,,,663298e9fb8d4ab0415f49fb,Caribbean Spanish,13 or older,"no, only English or Spanish",yes,2025-07-22_20h51.11.454,empathy_intonation_perc,2024.2.4,MacIntel,57.47126437,663298e9fb8d4ab0415f49fb,687ed1b7e638a4cbf2f02089,688031c403835510018c68d9,,,,,,,,,,,,,,0,,,,,,,,,,,,,,,,,,,,,,,,,,,,,,,,,,,,,,,,,,,,,,,,,,,,,,,,,70,temblo,,,,,931.3098,934.5095,0,1,2.668,,0,87,87,69,1,REAL,FAKE,,,,,,,,,,,,,,,,,
,,,,,,,,,663298e9fb8d4ab0415f49fb,Caribbean Spanish,13 or older,"no, only English or Spanish",yes,2025-07-22_20h51.11.454,empathy_intonation_perc,2024.2.4,MacIntel,57.47126437,663298e9fb8d4ab0415f49fb,687ed1b7e638a4cbf2f02089,688031c403835510018c68d9,,,,,,,,,,,,,,1,,,,,,,,,,,,,,,,,,,,,,,,,,,,,,,,,,,,,,,,,,,,,,,,,,,,,,,,,45,jilguero,,,,,934.5103,936.1266,0,0,1.0828,,0,88,88,44,1,REAL,FAKE,,,,,,,,,,,,,,,,,
,,,,,,,,,663298e9fb8d4ab0415f49fb,Caribbean Spanish,13 or older,"no, only English or Spanish",yes,2025-07-22_20h51.11.454,empathy_intonation_perc,2024.2.4,MacIntel,57.47126437,663298e9fb8d4ab0415f49fb,687ed1b7e638a4cbf2f02089,688031c403835510018c68d9,,,,,,,,,,,,,,1,,,,,,,,,,,,,,,,,,,,,,,,,,,,,,,,,,,,,,,,,,,,,,,,,,,,,,,,,43,canela,,,,,936.1274,938.726,1,1,2.0688,,0,89,89,42,1,REAL,FAKE,,,,,,,,,,,,,,,,,
,,,,,,,,,663298e9fb8d4ab0415f49fb,Caribbean Spanish,13 or older,"no, only English or Spanish",yes,2025-07-22_20h51.11.454,empathy_intonation_perc,2024.2.4,MacIntel,57.47126437,663298e9fb8d4ab0415f49fb,687ed1b7e638a4cbf2f02089,688031c403835510018c68d9,,,,,,,,,,,,,,1,,,,,,,,,,,,,,,,,,,,,,,,,,,,,,,,,,,,,,,,,,,,,,,,,,,,,,,,,31,pandilla,,,,,938.7267,941.8429,0,0,2.5954,,0,90,90,30,1,REAL,FAKE,,,,,,,,,,,,,,,,,
,,,,,,,,,663298e9fb8d4ab0415f49fb,Caribbean Spanish,13 or older,"no, only English or Spanish",yes,2025-07-22_20h51.11.454,empathy_intonation_perc,2024.2.4,MacIntel,57.47126437,663298e9fb8d4ab0415f49fb,687ed1b7e638a4cbf2f02089,688031c403835510018c68d9,,,,,,,,,,,,,,0,,,,,,,,,,,,,,,,,,,,,,,,,,,,,,,,,,,,,,,,,,,,,,,,,,,,,,,,,21,capillo,,,,,941.8438,944.3609,0,1,1.9985,,0,91,91,20,1,REAL,FAKE,,,,,,,,,,,,,,,,,
,,,,,,,,,663298e9fb8d4ab0415f49fb,Caribbean Spanish,13 or older,"no, only English or Spanish",yes,2025-07-22_20h51.11.454,empathy_intonation_perc,2024.2.4,MacIntel,57.47126437,663298e9fb8d4ab0415f49fb,687ed1b7e638a4cbf2f02089,688031c403835510018c68d9,,,,,,,,,,,,,,,,,,,,,,,,,,,,,,,,,,,,,,,,,,,,,,,,,,,,,,,,,,,,,,,,,,,,,,,,,,,,,,,,,,,,,,,,,,944.3612,949.7451,,,,,,,,,,,,,,,
,,,,,,,,,663298e9fb8d4ab0415f49fb,Caribbean Spanish,13 or older,"no, only English or Spanish",yes,2025-07-22_20h51.11.454,empathy_intonation_perc,2024.2.4,MacIntel,57.47126437,663298e9fb8d4ab0415f49fb,687ed1b7e638a4cbf2f02089,688031c403835510018c68d9,,,,,,,,,,,,,1,,,,,,,,,,,,,,,,,,,,,,,,,,,,,,,,,,,,,,,,,,,,,,,,,,,,,,,,,,,,,,,,,,,,,,,,,,,,,,,949.7541,955.3623,strongly agree,0,0,0,0,1,I can easily tell if someone else wants to enter a conversation.,1,0,1,0,,
,,,,,,,,,663298e9fb8d4ab0415f49fb,Caribbean Spanish,13 or older,"no, only English or Spanish",yes,2025-07-22_20h51.11.454,empathy_intonation_perc,2024.2.4,MacIntel,57.47126437,663298e9fb8d4ab0415f49fb,687ed1b7e638a4cbf2f02089,688031c403835510018c68d9,,,,,,,,,,,,,2,,,,,,,,,,,,,,,,,,,,,,,,,,,,,,,,,,,,,,,,,,,,,,,,,,,,,,,,,,,,,,,,,,,,,,,,,,,,,,,955.3633,960.2461,slightly agree,0,1,1,1,1,I prefer animals to humans.,0,1,0,0,,
,,,,,,,,,663298e9fb8d4ab0415f49fb,Caribbean Spanish,13 or older,"no, only English or Spanish",yes,2025-07-22_20h51.11.454,empathy_intonation_perc,2024.2.4,MacIntel,57.47126437,663298e9fb8d4ab0415f49fb,687ed1b7e638a4cbf2f02089,688031c403835510018c68d9,,,,,,,,,,,,,3,,,,,,,,,,,,,,,,,,,,,,,,,,,,,,,,,,,,,,,,,,,,,,,,,,,,,,,,,,,,,,,,,,,,,,,,,,,,,,,960.2475,965.2302,slightly disagree,0,2,2,2,1,I try to keep up with the current trends and fashions.,0,1,0,0,,
