instructions_exposure.started,instructions_exposure.stopped,instructions_exposure_loop.thisRepN,instructions_exposure_loop.thisTrialN,instructions_exposure_loop.thisN,instructions_exposure_loop.thisIndex,instructions_exposure_loop.ran,instructions_text,continue_text,participant_id,"What variety of Spanish are you most familiar with? (e.g., Peruvian, Spanish, Mexican)",At what age did you begin learning Spanish?,Are you proficient in any languages other than English/Spanish?,"Are you familiar with Caribbean (e.g., Caribbean, Puerto Rican) or Galician Spanish?",date,expName,psychopyVersion,OS,frameRate,id,study_id,session,trial_exposure.started,trial_exposure.stopped,key_resp_exposure.keys,key_resp_exposure.corr,key_resp_exposure.rt,key_resp_exposure.duration,key_resp.keys,exposure_loop.thisRepN,exposure_loop.thisTrialN,exposure_loop.thisN,exposure_loop.thisIndex,exposure_loop.ran,item_num,correct_response,question,path,duration,instructions_2afc.started,instructions_2afc.stopped,instructions_2afc_loop.thisRepN,instructions_2afc_loop.thisTrialN,instructions_2afc_loop.thisN,instructions_2afc_loop.thisIndex,instructions_2afc_loop.ran,practice_2afc.started,practice_2afc.stopped,key_resp_2afc_practice.keys,key_resp_2afc_practice.corr,key_resp_2afc_practice.rt,key_resp_2afc_practice.duration,trials_2afc_practice_loop.thisRepN,trials_2afc_practice_loop.thisTrialN,trials_2afc_practice_loop.thisN,trials_2afc_practice_loop.thisIndex,trials_2afc_practice_loop.ran,check_2afc.started,check_2afc.stopped,trial_2afc.started,trial_2afc.stopped,key_resp_2afc_trial.keys,key_resp_2afc_trial.corr,key_resp_2afc_trial.rt,key_resp_2afc_trial.duration,trials_2afc_loop.thisRepN,trials_2afc_loop.thisTrialN,trials_2afc_loop.thisN,trials_2afc_loop.thisIndex,trials_2afc_loop.ran,target,variety,instructions_lextale.started,instructions_lextale.stopped,instructions_lextale_loop.thisRepN,instructions_lextale_loop.thisTrialN,instructions_lextale_loop.thisN,instructions_lextale_loop.thisIndex,instructions_lextale_loop.ran,practice_lextale.started,practice_lextale.stopped,key_resp_lextale_practice.keys,key_resp_lextale_practice.corr,key_resp_lextale_practice.rt,key_resp_lextale_practice.duration,practice_feedback_lextale.started,practice_feedback_lextale.stopped,trials_lextale_practice_loop.thisRepN,trials_lextale_practice_loop.thisTrialN,trials_lextale_practice_loop.thisN,trials_lextale_practice_loop.thisIndex,trials_lextale_practice_loop.ran,stim,word,prac_button_real,prac_button_false,check_lextale.started,check_lextale.stopped,trial_lextale.started,trial_lextale.stopped,key_resp_lextale_trial.keys,key_resp_lextale_trial.corr,key_resp_lextale_trial.rt,key_resp_lextale_trial.duration,trials_lextale_loop.thisRepN,trials_lextale_loop.thisTrialN,trials_lextale_loop.thisN,trials_lextale_loop.thisIndex,trials_lextale_loop.ran,button_real,button_false,instructions_eq.started,instructions_eq.stopped,trial_eq.started,trial_eq.stopped,slider_eq_trial.response,trials_eq_loop.thisRepN,trials_eq_loop.thisTrialN,trials_eq_loop.thisN,trials_eq_loop.thisIndex,trials_eq_loop.ran,item,is_test_item,is_distractor,is_agree_score,is_disagree_score,end_exp.started,end_exp.stopped
0.0098,4.8268,0,0,0,0,1,"In the following task, you are going to hear a series of conversations.", (press the space bar to continue),6636554a6d7e6b582fec59ce,spanish,13 or older,"no, only English or Spanish",yes,2025-07-23_07h31.55.040,empathy_intonation_perc,2024.2.4,Win32,60.24096386,6636554a6d7e6b582fec59ce,687ed1b7e638a4cbf2f02089,6880c7ce04a2ae7077394e6d,,,,,,,,,,,,,,,,,,,,,,,,,,,,,,,,,,,,,,,,,,,,,,,,,,,,,,,,,,,,,,,,,,,,,,,,,,,,,,,,,,,,,,,,,,,,,,,,,,,,,,,,,,
4.8276,6.8241,0,1,1,1,1,It is okay if you don't not 100% understand them!, (press the space bar to continue),6636554a6d7e6b582fec59ce,spanish,13 or older,"no, only English or Spanish",yes,2025-07-23_07h31.55.040,empathy_intonation_perc,2024.2.4,Win32,60.24096386,6636554a6d7e6b582fec59ce,687ed1b7e638a4cbf2f02089,6880c7ce04a2ae7077394e6d,,,,,,,,,,,,,,,,,,,,,,,,,,,,,,,,,,,,,,,,,,,,,,,,,,,,,,,,,,,,,,,,,,,,,,,,,,,,,,,,,,,,,,,,,,,,,,,,,,,,,,,,,,
6.8254,9.0239,0,2,2,2,1,"After, you will read a sentence about the conversation and decide if it's true or false.", (press the space bar to continue),6636554a6d7e6b582fec59ce,spanish,13 or older,"no, only English or Spanish",yes,2025-07-23_07h31.55.040,empathy_intonation_perc,2024.2.4,Win32,60.24096386,6636554a6d7e6b582fec59ce,687ed1b7e638a4cbf2f02089,6880c7ce04a2ae7077394e6d,,,,,,,,,,,,,,,,,,,,,,,,,,,,,,,,,,,,,,,,,,,,,,,,,,,,,,,,,,,,,,,,,,,,,,,,,,,,,,,,,,,,,,,,,,,,,,,,,,,,,,,,,,
9.0256,13.0906,0,3,3,3,1,"If it's true, press '1' (True) and if it's false press '0' (False).", (press the space bar to continue),6636554a6d7e6b582fec59ce,spanish,13 or older,"no, only English or Spanish",yes,2025-07-23_07h31.55.040,empathy_intonation_perc,2024.2.4,Win32,60.24096386,6636554a6d7e6b582fec59ce,687ed1b7e638a4cbf2f02089,6880c7ce04a2ae7077394e6d,,,,,,,,,,,,,,,,,,,,,,,,,,,,,,,,,,,,,,,,,,,,,,,,,,,,,,,,,,,,,,,,,,,,,,,,,,,,,,,,,,,,,,,,,,,,,,,,,,,,,,,,,,
,,,,,,,,,6636554a6d7e6b582fec59ce,spanish,13 or older,"no, only English or Spanish",yes,2025-07-23_07h31.55.040,empathy_intonation_perc,2024.2.4,Win32,60.24096386,6636554a6d7e6b582fec59ce,687ed1b7e638a4cbf2f02089,6880c7ce04a2ae7077394e6d,13.0987,84.1373,1,1,2.2636,,,0,0,0,1,1,2,1,The mom asked the daughter if she already went to the supermarket.,./stim/exposure_wavs/dr_stimuli_convo.wav,60,,,,,,,,,,,,,,,,,,,,,,,,,,,,,,,,,,,,,,,,,,,,,,,,,,,,,,,,,,,,,,,,,,,,,,,,,,,,,,,,,,,,,,,,,
,,,,,,,,,6636554a6d7e6b582fec59ce,spanish,13 or older,"no, only English or Spanish",yes,2025-07-23_07h31.55.040,empathy_intonation_perc,2024.2.4,Win32,60.24096386,6636554a6d7e6b582fec59ce,687ed1b7e638a4cbf2f02089,6880c7ce04a2ae7077394e6d,84.139,142.1759,0,1,10.5059,,,0,1,1,2,1,3,0,The mom already has rice.,./stim/exposure_wavs/pr_stimuli_convo.wav,36,,,,,,,,,,,,,,,,,,,,,,,,,,,,,,,,,,,,,,,,,,,,,,,,,,,,,,,,,,,,,,,,,,,,,,,,,,,,,,,,,,,,,,,,,
,,,,,,,,,6636554a6d7e6b582fec59ce,spanish,13 or older,"no, only English or Spanish",yes,2025-07-23_07h31.55.040,empathy_intonation_perc,2024.2.4,Win32,60.24096386,6636554a6d7e6b582fec59ce,687ed1b7e638a4cbf2f02089,6880c7ce04a2ae7077394e6d,142.1774,198.3103,1,1,9.0996,,,0,2,2,0,1,1,1,The son asked the mom if Aunt Marina is okay.,./stim/exposure_wavs/ga_stimuli_convo.wav,47,,,,,,,,,,,,,,,,,,,,,,,,,,,,,,,,,,,,,,,,,,,,,,,,,,,,,,,,,,,,,,,,,,,,,,,,,,,,,,,,,,,,,,,,,
,,,,,,,"In the following task you are going to hear a series of utterances. 

  You will decide if the utterances sound like questions or not using your keyboard.", (press the spacebar to continue),6636554a6d7e6b582fec59ce,spanish,13 or older,"no, only English or Spanish",yes,2025-07-23_07h31.55.040,empathy_intonation_perc,2024.2.4,Win32,60.24096386,6636554a6d7e6b582fec59ce,687ed1b7e638a4cbf2f02089,6880c7ce04a2ae7077394e6d,,,,,,,,,,,,,,,,,,198.317,273.7879,0,0,0,0,1,,,,,,,,,,,,,,,,,,,,,,,,,,,,,,,,,,,,,,,,,,,,,,,,,,,,,,,,,,,,,,,,,,,,,,,,,,,,,,,,,,
,,,,,,,"If you believe the utterance is a question, type '1' (for 'yes') and if you do not 
  believe it is a question type '0' (for 'no').

  Let's practice a bit...", (press the spacebar to continue),6636554a6d7e6b582fec59ce,spanish,13 or older,"no, only English or Spanish",yes,2025-07-23_07h31.55.040,empathy_intonation_perc,2024.2.4,Win32,60.24096386,6636554a6d7e6b582fec59ce,687ed1b7e638a4cbf2f02089,6880c7ce04a2ae7077394e6d,,,,,,,,,,,,,,,,,,273.7906,278.1867,0,1,1,1,1,,,,,,,,,,,,,,,,,,,,,,,,,,,,,,,,,,,,,,,,,,,,,,,,,,,,,,,,,,,,,,,,,,,,,,,,,,,,,,,,,,
,,,,,,,,,6636554a6d7e6b582fec59ce,spanish,13 or older,"no, only English or Spanish",yes,2025-07-23_07h31.55.040,empathy_intonation_perc,2024.2.4,Win32,60.24096386,6636554a6d7e6b582fec59ce,687ed1b7e638a4cbf2f02089,6880c7ce04a2ae7077394e6d,,,,,,,,,,,,,,1,,./stim/wavs/castilian_question_filler_Mi-esposo-conoce-al-chico.wav,,,,,,,,,278.1948,283.0709,1,1,4.3379,,0,0,0,0,1,,,,,,,,,,,,,,,,,,,,,,,,,,,,,,,,,,,,,,,,,,,,,,,,,,,,,,,,,,,,,,,,,,,,,,,
,,,,,,,,,6636554a6d7e6b582fec59ce,spanish,13 or older,"no, only English or Spanish",yes,2025-07-23_07h31.55.040,empathy_intonation_perc,2024.2.4,Win32,60.24096386,6636554a6d7e6b582fec59ce,687ed1b7e638a4cbf2f02089,6880c7ce04a2ae7077394e6d,,,,,,,,,,,,,,0,,./stim/wavs/cuban_statement_filler_Cocinabas-por-la-noche.wav,,,,,,,,,283.0722,286.0691,0,1,2.4767,,0,1,1,4,1,,,,,,,,,,,,,,,,,,,,,,,,,,,,,,,,,,,,,,,,,,,,,,,,,,,,,,,,,,,,,,,,,,,,,,,
,,,,,,,,,6636554a6d7e6b582fec59ce,spanish,13 or older,"no, only English or Spanish",yes,2025-07-23_07h31.55.040,empathy_intonation_perc,2024.2.4,Win32,60.24096386,6636554a6d7e6b582fec59ce,687ed1b7e638a4cbf2f02089,6880c7ce04a2ae7077394e6d,,,,,,,,,,,,,,1,,./stim/wavs/argentine_question_filler_Mi-vecino-habla-mucho.wav,,,,,,,,,286.0699,288.3396,0,0,1.7491,,0,2,2,1,1,,,,,,,,,,,,,,,,,,,,,,,,,,,,,,,,,,,,,,,,,,,,,,,,,,,,,,,,,,,,,,,,,,,,,,,
,,,,,,,,,6636554a6d7e6b582fec59ce,spanish,13 or older,"no, only English or Spanish",yes,2025-07-23_07h31.55.040,empathy_intonation_perc,2024.2.4,Win32,60.24096386,6636554a6d7e6b582fec59ce,687ed1b7e638a4cbf2f02089,6880c7ce04a2ae7077394e6d,,,,,,,,,,,,,,0,,./stim/wavs/peruvian_statement_filler_El-nino-habla-con-su-madre.wav,,,,,,,,,288.3404,291.6357,0,1,2.7675,,0,3,3,6,1,,,,,,,,,,,,,,,,,,,,,,,,,,,,,,,,,,,,,,,,,,,,,,,,,,,,,,,,,,,,,,,,,,,,,,,
,,,,,,,,,6636554a6d7e6b582fec59ce,spanish,13 or older,"no, only English or Spanish",yes,2025-07-23_07h31.55.040,empathy_intonation_perc,2024.2.4,Win32,60.24096386,6636554a6d7e6b582fec59ce,687ed1b7e638a4cbf2f02089,6880c7ce04a2ae7077394e6d,,,,,,,,,,,,,,0,,./stim/wavs/andalusian_statement_filler_Alberto-nunca-se-afeita.wav,,,,,,,,,291.6362,295.0554,1,0,2.8973,,0,4,4,5,1,,,,,,,,,,,,,,,,,,,,,,,,,,,,,,,,,,,,,,,,,,,,,,,,,,,,,,,,,,,,,,,,,,,,,,,
,,,,,,,,,6636554a6d7e6b582fec59ce,spanish,13 or older,"no, only English or Spanish",yes,2025-07-23_07h31.55.040,empathy_intonation_perc,2024.2.4,Win32,60.24096386,6636554a6d7e6b582fec59ce,687ed1b7e638a4cbf2f02089,6880c7ce04a2ae7077394e6d,,,,,,,,,,,,,,0,,./stim/wavs/puertorican_statement_filler_La-nina-pinta-con-su-amiga.wav,,,,,,,,,295.0562,297.7019,0,1,2.108,,0,5,5,7,1,,,,,,,,,,,,,,,,,,,,,,,,,,,,,,,,,,,,,,,,,,,,,,,,,,,,,,,,,,,,,,,,,,,,,,,
,,,,,,,,,6636554a6d7e6b582fec59ce,spanish,13 or older,"no, only English or Spanish",yes,2025-07-23_07h31.55.040,empathy_intonation_perc,2024.2.4,Win32,60.24096386,6636554a6d7e6b582fec59ce,687ed1b7e638a4cbf2f02089,6880c7ce04a2ae7077394e6d,,,,,,,,,,,,,,1,,./stim/wavs/chilean_question_filler_Mi-padre-cantaba-bien.wav,,,,,,,,,297.7034,300.3721,0,0,2.15,,0,6,6,2,1,,,,,,,,,,,,,,,,,,,,,,,,,,,,,,,,,,,,,,,,,,,,,,,,,,,,,,,,,,,,,,,,,,,,,,,
,,,,,,,,,6636554a6d7e6b582fec59ce,spanish,13 or older,"no, only English or Spanish",yes,2025-07-23_07h31.55.040,empathy_intonation_perc,2024.2.4,Win32,60.24096386,6636554a6d7e6b582fec59ce,687ed1b7e638a4cbf2f02089,6880c7ce04a2ae7077394e6d,,,,,,,,,,,,,,1,,./stim/wavs/mexican_question_filler_Felipe-no-tiene-contrasena.wav,,,,,,,,,300.3733,303.2563,1,1,2.3663,,0,7,7,3,1,,,,,,,,,,,,,,,,,,,,,,,,,,,,,,,,,,,,,,,,,,,,,,,,,,,,,,,,,,,,,,,,,,,,,,,
,,,,,,,,,6636554a6d7e6b582fec59ce,spanish,13 or older,"no, only English or Spanish",yes,2025-07-23_07h31.55.040,empathy_intonation_perc,2024.2.4,Win32,60.24096386,6636554a6d7e6b582fec59ce,687ed1b7e638a4cbf2f02089,6880c7ce04a2ae7077394e6d,,,,,,,,,,,,,,,,,,,,,,,,,,,,,,,,,,,,303.2567,1010.3079,,,,,,,,,,,,,,,,,,,,,,,,,,,,,,,,,,,,,,,,,,,,,,,,,,,,,,,,,,,,,,,,,,,,,
,,,,,,,,,6636554a6d7e6b582fec59ce,spanish,13 or older,"no, only English or Spanish",yes,2025-07-23_07h31.55.040,empathy_intonation_perc,2024.2.4,Win32,60.24096386,6636554a6d7e6b582fec59ce,687ed1b7e638a4cbf2f02089,6880c7ce04a2ae7077394e6d,,,,,,,,,,,,,65,0,,./stim/wavs/puertorican_match_declarative-broad-focus_David-leia-el-libro.wav,,,,,,,,,,,,,,,,,,,,,,1010.3274,1013.1572,1,0,2.3156,,0,0,0,64,1,0,puertorican,,,,,,,,,,,,,,,,,,,,,,,,,,,,,,,,,,,,,,,,,,,,,,,,,,,,,,,,
,,,,,,,,,6636554a6d7e6b582fec59ce,spanish,13 or older,"no, only English or Spanish",yes,2025-07-23_07h31.55.040,empathy_intonation_perc,2024.2.4,Win32,60.24096386,6636554a6d7e6b582fec59ce,687ed1b7e638a4cbf2f02089,6880c7ce04a2ae7077394e6d,,,,,,,,,,,,,68,0,,./stim/wavs/puertorican_match_declarative-broad-focus_Maria-bebe-el-vino.wav,,,,,,,,,,,,,,,,,,,,,,1013.158,1015.1526,0,1,1.4693,,0,1,1,67,1,0,puertorican,,,,,,,,,,,,,,,,,,,,,,,,,,,,,,,,,,,,,,,,,,,,,,,,,,,,,,,,
,,,,,,,,,6636554a6d7e6b582fec59ce,spanish,13 or older,"no, only English or Spanish",yes,2025-07-23_07h31.55.040,empathy_intonation_perc,2024.2.4,Win32,60.24096386,6636554a6d7e6b582fec59ce,687ed1b7e638a4cbf2f02089,6880c7ce04a2ae7077394e6d,,,,,,,,,,,,,51,0,,./stim/wavs/cuban_match_declarative-broad-focus_Ana-lleva-el-abrigo.wav,,,,,,,,,,,,,,,,,,,,,,1015.1538,1017.7746,0,1,2.1017,,0,2,2,50,1,0,cuban,,,,,,,,,,,,,,,,,,,,,,,,,,,,,,,,,,,,,,,,,,,,,,,,,,,,,,,,
,,,,,,,,,6636554a6d7e6b582fec59ce,spanish,13 or older,"no, only English or Spanish",yes,2025-07-23_07h31.55.040,empathy_intonation_perc,2024.2.4,Win32,60.24096386,6636554a6d7e6b582fec59ce,687ed1b7e638a4cbf2f02089,6880c7ce04a2ae7077394e6d,,,,,,,,,,,,,52,0,,./stim/wavs/cuban_match_declarative-broad-focus_Daniel-iba-a-Bolivia.wav,,,,,,,,,,,,,,,,,,,,,,1017.7752,1020.1525,0,1,1.8556,,0,3,3,51,1,0,cuban,,,,,,,,,,,,,,,,,,,,,,,,,,,,,,,,,,,,,,,,,,,,,,,,,,,,,,,,
,,,,,,,,,6636554a6d7e6b582fec59ce,spanish,13 or older,"no, only English or Spanish",yes,2025-07-23_07h31.55.040,empathy_intonation_perc,2024.2.4,Win32,60.24096386,6636554a6d7e6b582fec59ce,687ed1b7e638a4cbf2f02089,6880c7ce04a2ae7077394e6d,,,,,,,,,,,,,30,1,,./stim/wavs/cuban_mismatch_interrogative-total-yn_El-hombre-mira-la-luna.wav,,,,,,,,,,,,,,,,,,,,,,1020.1542,1022.1222,1,1,1.4445,,0,4,4,29,1,1,cuban,,,,,,,,,,,,,,,,,,,,,,,,,,,,,,,,,,,,,,,,,,,,,,,,,,,,,,,,
,,,,,,,,,6636554a6d7e6b582fec59ce,spanish,13 or older,"no, only English or Spanish",yes,2025-07-23_07h31.55.040,empathy_intonation_perc,2024.2.4,Win32,60.24096386,6636554a6d7e6b582fec59ce,687ed1b7e638a4cbf2f02089,6880c7ce04a2ae7077394e6d,,,,,,,,,,,,,22,1,,./stim/wavs/puertorican_match_interrogative-total-yn_Emilio-ama-la-marcha.wav,,,,,,,,,,,,,,,,,,,,,,1022.1228,1024.3855,0,0,1.7334,,0,5,5,21,1,1,puertorican,,,,,,,,,,,,,,,,,,,,,,,,,,,,,,,,,,,,,,,,,,,,,,,,,,,,,,,,
,,,,,,,,,6636554a6d7e6b582fec59ce,spanish,13 or older,"no, only English or Spanish",yes,2025-07-23_07h31.55.040,empathy_intonation_perc,2024.2.4,Win32,60.24096386,6636554a6d7e6b582fec59ce,687ed1b7e638a4cbf2f02089,6880c7ce04a2ae7077394e6d,,,,,,,,,,,,,40,1,,./stim/wavs/puertorican_mismatch_interrogative-total-yn_El-hombre-mira-la-luna.wav,,,,,,,,,,,,,,,,,,,,,,1024.387,1026.9385,0,0,2.0163,,0,6,6,39,1,1,puertorican,,,,,,,,,,,,,,,,,,,,,,,,,,,,,,,,,,,,,,,,,,,,,,,,,,,,,,,,
,,,,,,,,,6636554a6d7e6b582fec59ce,spanish,13 or older,"no, only English or Spanish",yes,2025-07-23_07h31.55.040,empathy_intonation_perc,2024.2.4,Win32,60.24096386,6636554a6d7e6b582fec59ce,687ed1b7e638a4cbf2f02089,6880c7ce04a2ae7077394e6d,,,,,,,,,,,,,4,1,,./stim/wavs/castilian_match_interrogative-total-yn_Maria-bebe-el-vino.wav,,,,,,,,,,,,,,,,,,,,,,1026.9391,1030.8551,1,1,3.3832,,0,7,7,3,1,0,castilian,,,,,,,,,,,,,,,,,,,,,,,,,,,,,,,,,,,,,,,,,,,,,,,,,,,,,,,,
,,,,,,,,,6636554a6d7e6b582fec59ce,spanish,13 or older,"no, only English or Spanish",yes,2025-07-23_07h31.55.040,empathy_intonation_perc,2024.2.4,Win32,60.24096386,6636554a6d7e6b582fec59ce,687ed1b7e638a4cbf2f02089,6880c7ce04a2ae7077394e6d,,,,,,,,,,,,,67,0,,./stim/wavs/puertorican_match_declarative-broad-focus_Manuela-vende-el-carro.wav,,,,,,,,,,,,,,,,,,,,,,1030.8559,1033.0883,0,1,1.7155,,0,8,8,66,1,0,puertorican,,,,,,,,,,,,,,,,,,,,,,,,,,,,,,,,,,,,,,,,,,,,,,,,,,,,,,,,
,,,,,,,,,6636554a6d7e6b582fec59ce,spanish,13 or older,"no, only English or Spanish",yes,2025-07-23_07h31.55.040,empathy_intonation_perc,2024.2.4,Win32,60.24096386,6636554a6d7e6b582fec59ce,687ed1b7e638a4cbf2f02089,6880c7ce04a2ae7077394e6d,,,,,,,,,,,,,74,0,,./stim/wavs/cuban_mismatch_declarative-broad-focus_El-bebe-comia-muy-bien.wav,,,,,,,,,,,,,,,,,,,,,,1033.0891,1036.2354,0,1,2.6287,,0,9,9,73,1,0,cuban,,,,,,,,,,,,,,,,,,,,,,,,,,,,,,,,,,,,,,,,,,,,,,,,,,,,,,,,
,,,,,,,,,6636554a6d7e6b582fec59ce,spanish,13 or older,"no, only English or Spanish",yes,2025-07-23_07h31.55.040,empathy_intonation_perc,2024.2.4,Win32,60.24096386,6636554a6d7e6b582fec59ce,687ed1b7e638a4cbf2f02089,6880c7ce04a2ae7077394e6d,,,,,,,,,,,,,56,0,,./stim/wavs/cuban_match_declarative-broad-focus_Marta-abre-el-regalo.wav,,,,,,,,,,,,,,,,,,,,,,1036.2365,1038.3017,0,1,1.5486,,0,10,10,55,1,0,cuban,,,,,,,,,,,,,,,,,,,,,,,,,,,,,,,,,,,,,,,,,,,,,,,,,,,,,,,,
,,,,,,,,,6636554a6d7e6b582fec59ce,spanish,13 or older,"no, only English or Spanish",yes,2025-07-23_07h31.55.040,empathy_intonation_perc,2024.2.4,Win32,60.24096386,6636554a6d7e6b582fec59ce,687ed1b7e638a4cbf2f02089,6880c7ce04a2ae7077394e6d,,,,,,,,,,,,,9,1,,./stim/wavs/cuban_match_interrogative-total-yn_Manuela-vende-el-carro.wav,,,,,,,,,,,,,,,,,,,,,,1038.3034,1040.4377,0,0,1.6163,,0,11,11,8,1,1,cuban,,,,,,,,,,,,,,,,,,,,,,,,,,,,,,,,,,,,,,,,,,,,,,,,,,,,,,,,
,,,,,,,,,6636554a6d7e6b582fec59ce,spanish,13 or older,"no, only English or Spanish",yes,2025-07-23_07h31.55.040,empathy_intonation_perc,2024.2.4,Win32,60.24096386,6636554a6d7e6b582fec59ce,687ed1b7e638a4cbf2f02089,6880c7ce04a2ae7077394e6d,,,,,,,,,,,,,28,1,,./stim/wavs/castilian_mismatch_interrogative-total-yn_Mi-novio-viene-del-lago.wav,,,,,,,,,,,,,,,,,,,,,,1040.4381,1042.4683,1,1,1.5001,,0,12,12,27,1,0,castilian,,,,,,,,,,,,,,,,,,,,,,,,,,,,,,,,,,,,,,,,,,,,,,,,,,,,,,,,
,,,,,,,,,6636554a6d7e6b582fec59ce,spanish,13 or older,"no, only English or Spanish",yes,2025-07-23_07h31.55.040,empathy_intonation_perc,2024.2.4,Win32,60.24096386,6636554a6d7e6b582fec59ce,687ed1b7e638a4cbf2f02089,6880c7ce04a2ae7077394e6d,,,,,,,,,,,,,81,0,,./stim/wavs/mexican_mismatch_declarative-broad-focus_La-maestra-vive-en-Paris.wav,,,,,,,,,,,,,,,,,,,,,,1042.4693,1045.4343,0,1,2.4474,,0,13,13,80,1,0,mexican,,,,,,,,,,,,,,,,,,,,,,,,,,,,,,,,,,,,,,,,,,,,,,,,,,,,,,,,
,,,,,,,,,6636554a6d7e6b582fec59ce,spanish,13 or older,"no, only English or Spanish",yes,2025-07-23_07h31.55.040,empathy_intonation_perc,2024.2.4,Win32,60.24096386,6636554a6d7e6b582fec59ce,687ed1b7e638a4cbf2f02089,6880c7ce04a2ae7077394e6d,,,,,,,,,,,,,70,0,,./stim/wavs/castilian_mismatch_declarative-broad-focus_La-maestra-vive-en-Paris.wav,,,,,,,,,,,,,,,,,,,,,,1045.4352,1048.0049,0,1,2.034,,0,14,14,69,1,0,castilian,,,,,,,,,,,,,,,,,,,,,,,,,,,,,,,,,,,,,,,,,,,,,,,,,,,,,,,,
,,,,,,,,,6636554a6d7e6b582fec59ce,spanish,13 or older,"no, only English or Spanish",yes,2025-07-23_07h31.55.040,empathy_intonation_perc,2024.2.4,Win32,60.24096386,6636554a6d7e6b582fec59ce,687ed1b7e638a4cbf2f02089,6880c7ce04a2ae7077394e6d,,,,,,,,,,,,,78,0,,./stim/wavs/cuban_mismatch_declarative-broad-focus_Mi-tia-odia-la-lluvia.wav,,,,,,,,,,,,,,,,,,,,,,1048.0056,1050.5838,0,1,2.05,,0,15,15,77,1,0,cuban,,,,,,,,,,,,,,,,,,,,,,,,,,,,,,,,,,,,,,,,,,,,,,,,,,,,,,,,
,,,,,,,,,6636554a6d7e6b582fec59ce,spanish,13 or older,"no, only English or Spanish",yes,2025-07-23_07h31.55.040,empathy_intonation_perc,2024.2.4,Win32,60.24096386,6636554a6d7e6b582fec59ce,687ed1b7e638a4cbf2f02089,6880c7ce04a2ae7077394e6d,,,,,,,,,,,,,59,0,,./stim/wavs/mexican_match_declarative-broad-focus_David-leia-el-libro.wav,,,,,,,,,,,,,,,,,,,,,,1050.5844,1052.7341,0,1,1.6193,,0,16,16,58,1,0,mexican,,,,,,,,,,,,,,,,,,,,,,,,,,,,,,,,,,,,,,,,,,,,,,,,,,,,,,,,
,,,,,,,,,6636554a6d7e6b582fec59ce,spanish,13 or older,"no, only English or Spanish",yes,2025-07-23_07h31.55.040,empathy_intonation_perc,2024.2.4,Win32,60.24096386,6636554a6d7e6b582fec59ce,687ed1b7e638a4cbf2f02089,6880c7ce04a2ae7077394e6d,,,,,,,,,,,,,13,1,,./stim/wavs/mexican_match_interrogative-total-yn_Ana-lleva-el-abrigo.wav,,,,,,,,,,,,,,,,,,,,,,1052.7347,1054.7673,1,1,1.504,,0,17,17,12,1,0,mexican,,,,,,,,,,,,,,,,,,,,,,,,,,,,,,,,,,,,,,,,,,,,,,,,,,,,,,,,
,,,,,,,,,6636554a6d7e6b582fec59ce,spanish,13 or older,"no, only English or Spanish",yes,2025-07-23_07h31.55.040,empathy_intonation_perc,2024.2.4,Win32,60.24096386,6636554a6d7e6b582fec59ce,687ed1b7e638a4cbf2f02089,6880c7ce04a2ae7077394e6d,,,,,,,,,,,,,71,0,,./stim/wavs/castilian_mismatch_declarative-broad-focus_La-nina-lava-el-plato.wav,,,,,,,,,,,,,,,,,,,,,,1054.7679,1057.4047,0,1,2.1007,,0,18,18,70,1,0,castilian,,,,,,,,,,,,,,,,,,,,,,,,,,,,,,,,,,,,,,,,,,,,,,,,,,,,,,,,
,,,,,,,,,6636554a6d7e6b582fec59ce,spanish,13 or older,"no, only English or Spanish",yes,2025-07-23_07h31.55.040,empathy_intonation_perc,2024.2.4,Win32,60.24096386,6636554a6d7e6b582fec59ce,687ed1b7e638a4cbf2f02089,6880c7ce04a2ae7077394e6d,,,,,,,,,,,,,46,0,,./stim/wavs/castilian_match_declarative-broad-focus_Emilio-ama-la-marcha.wav,,,,,,,,,,,,,,,,,,,,,,1057.4055,1059.6342,0,1,1.7025,,0,19,19,45,1,0,castilian,,,,,,,,,,,,,,,,,,,,,,,,,,,,,,,,,,,,,,,,,,,,,,,,,,,,,,,,
,,,,,,,,,6636554a6d7e6b582fec59ce,spanish,13 or older,"no, only English or Spanish",yes,2025-07-23_07h31.55.040,empathy_intonation_perc,2024.2.4,Win32,60.24096386,6636554a6d7e6b582fec59ce,687ed1b7e638a4cbf2f02089,6880c7ce04a2ae7077394e6d,,,,,,,,,,,,,31,1,,./stim/wavs/cuban_mismatch_interrogative-total-yn_El-nino-oye-el-rio.wav,,,,,,,,,,,,,,,,,,,,,,1059.6349,1061.5343,0,0,1.3728,,0,20,20,30,1,1,cuban,,,,,,,,,,,,,,,,,,,,,,,,,,,,,,,,,,,,,,,,,,,,,,,,,,,,,,,,
,,,,,,,,,6636554a6d7e6b582fec59ce,spanish,13 or older,"no, only English or Spanish",yes,2025-07-23_07h31.55.040,empathy_intonation_perc,2024.2.4,Win32,60.24096386,6636554a6d7e6b582fec59ce,687ed1b7e638a4cbf2f02089,6880c7ce04a2ae7077394e6d,,,,,,,,,,,,,48,0,,./stim/wavs/castilian_match_declarative-broad-focus_Maria-bebe-el-vino.wav,,,,,,,,,,,,,,,,,,,,,,1061.535,1063.6506,0,1,1.5893,,0,21,21,47,1,0,castilian,,,,,,,,,,,,,,,,,,,,,,,,,,,,,,,,,,,,,,,,,,,,,,,,,,,,,,,,
,,,,,,,,,6636554a6d7e6b582fec59ce,spanish,13 or older,"no, only English or Spanish",yes,2025-07-23_07h31.55.040,empathy_intonation_perc,2024.2.4,Win32,60.24096386,6636554a6d7e6b582fec59ce,687ed1b7e638a4cbf2f02089,6880c7ce04a2ae7077394e6d,,,,,,,,,,,,,1,1,,./stim/wavs/castilian_match_interrogative-total-yn_David-leia-el-libro.wav,,,,,,,,,,,,,,,,,,,,,,1063.6515,1066.0669,1,1,1.9004,,0,22,22,0,1,0,castilian,,,,,,,,,,,,,,,,,,,,,,,,,,,,,,,,,,,,,,,,,,,,,,,,,,,,,,,,
,,,,,,,,,6636554a6d7e6b582fec59ce,spanish,13 or older,"no, only English or Spanish",yes,2025-07-23_07h31.55.040,empathy_intonation_perc,2024.2.4,Win32,60.24096386,6636554a6d7e6b582fec59ce,687ed1b7e638a4cbf2f02089,6880c7ce04a2ae7077394e6d,,,,,,,,,,,,,33,1,,./stim/wavs/cuban_mismatch_interrogative-total-yn_Mi-novio-viene-del-lago.wav,,,,,,,,,,,,,,,,,,,,,,1066.0673,1068.8874,0,0,2.3112,,0,23,23,32,1,1,cuban,,,,,,,,,,,,,,,,,,,,,,,,,,,,,,,,,,,,,,,,,,,,,,,,,,,,,,,,
,,,,,,,,,6636554a6d7e6b582fec59ce,spanish,13 or older,"no, only English or Spanish",yes,2025-07-23_07h31.55.040,empathy_intonation_perc,2024.2.4,Win32,60.24096386,6636554a6d7e6b582fec59ce,687ed1b7e638a4cbf2f02089,6880c7ce04a2ae7077394e6d,,,,,,,,,,,,,86,0,,./stim/wavs/puertorican_mismatch_declarative-broad-focus_El-nino-oye-el-rio.wav,,,,,,,,,,,,,,,,,,,,,,1068.888,1071.2339,0,1,1.8172,,0,24,24,85,1,0,puertorican,,,,,,,,,,,,,,,,,,,,,,,,,,,,,,,,,,,,,,,,,,,,,,,,,,,,,,,,
,,,,,,,,,6636554a6d7e6b582fec59ce,spanish,13 or older,"no, only English or Spanish",yes,2025-07-23_07h31.55.040,empathy_intonation_perc,2024.2.4,Win32,60.24096386,6636554a6d7e6b582fec59ce,687ed1b7e638a4cbf2f02089,6880c7ce04a2ae7077394e6d,,,,,,,,,,,,,10,1,,./stim/wavs/cuban_match_interrogative-total-yn_Maria-bebe-el-vino.wav,,,,,,,,,,,,,,,,,,,,,,1071.2351,1073.9872,0,0,2.2292,,0,25,25,9,1,1,cuban,,,,,,,,,,,,,,,,,,,,,,,,,,,,,,,,,,,,,,,,,,,,,,,,,,,,,,,,
,,,,,,,,,6636554a6d7e6b582fec59ce,spanish,13 or older,"no, only English or Spanish",yes,2025-07-23_07h31.55.040,empathy_intonation_perc,2024.2.4,Win32,60.24096386,6636554a6d7e6b582fec59ce,687ed1b7e638a4cbf2f02089,6880c7ce04a2ae7077394e6d,,,,,,,,,,,,,73,0,,./stim/wavs/castilian_mismatch_declarative-broad-focus_Mi-tia-odia-la-lluvia.wav,,,,,,,,,,,,,,,,,,,,,,1073.9879,1076.0662,0,1,1.5322,,0,26,26,72,1,0,castilian,,,,,,,,,,,,,,,,,,,,,,,,,,,,,,,,,,,,,,,,,,,,,,,,,,,,,,,,
,,,,,,,,,6636554a6d7e6b582fec59ce,spanish,13 or older,"no, only English or Spanish",yes,2025-07-23_07h31.55.040,empathy_intonation_perc,2024.2.4,Win32,60.24096386,6636554a6d7e6b582fec59ce,687ed1b7e638a4cbf2f02089,6880c7ce04a2ae7077394e6d,,,,,,,,,,,,,23,1,,./stim/wavs/puertorican_match_interrogative-total-yn_Manuela-vende-el-carro.wav,,,,,,,,,,,,,,,,,,,,,,1076.0668,1078.1664,0,0,1.5703,,0,27,27,22,1,1,puertorican,,,,,,,,,,,,,,,,,,,,,,,,,,,,,,,,,,,,,,,,,,,,,,,,,,,,,,,,
,,,,,,,,,6636554a6d7e6b582fec59ce,spanish,13 or older,"no, only English or Spanish",yes,2025-07-23_07h31.55.040,empathy_intonation_perc,2024.2.4,Win32,60.24096386,6636554a6d7e6b582fec59ce,687ed1b7e638a4cbf2f02089,6880c7ce04a2ae7077394e6d,,,,,,,,,,,,,19,1,,./stim/wavs/puertorican_match_interrogative-total-yn_Ana-lleva-el-abrigo.wav,,,,,,,,,,,,,,,,,,,,,,1078.1673,1079.9029,0,0,1.2011,,0,28,28,18,1,1,puertorican,,,,,,,,,,,,,,,,,,,,,,,,,,,,,,,,,,,,,,,,,,,,,,,,,,,,,,,,
,,,,,,,,,6636554a6d7e6b582fec59ce,spanish,13 or older,"no, only English or Spanish",yes,2025-07-23_07h31.55.040,empathy_intonation_perc,2024.2.4,Win32,60.24096386,6636554a6d7e6b582fec59ce,687ed1b7e638a4cbf2f02089,6880c7ce04a2ae7077394e6d,,,,,,,,,,,,,37,1,,./stim/wavs/mexican_mismatch_interrogative-total-yn_La-maestra-vive-en-Paris.wav,,,,,,,,,,,,,,,,,,,,,,1079.904,1082.3831,1,1,1.957,,0,29,29,36,1,0,mexican,,,,,,,,,,,,,,,,,,,,,,,,,,,,,,,,,,,,,,,,,,,,,,,,,,,,,,,,
,,,,,,,,,6636554a6d7e6b582fec59ce,spanish,13 or older,"no, only English or Spanish",yes,2025-07-23_07h31.55.040,empathy_intonation_perc,2024.2.4,Win32,60.24096386,6636554a6d7e6b582fec59ce,687ed1b7e638a4cbf2f02089,6880c7ce04a2ae7077394e6d,,,,,,,,,,,,,47,0,,./stim/wavs/castilian_match_declarative-broad-focus_Manuela-vende-el-carro.wav,,,,,,,,,,,,,,,,,,,,,,1082.3837,1084.653,0,1,1.7636,,0,30,30,46,1,0,castilian,,,,,,,,,,,,,,,,,,,,,,,,,,,,,,,,,,,,,,,,,,,,,,,,,,,,,,,,
,,,,,,,,,6636554a6d7e6b582fec59ce,spanish,13 or older,"no, only English or Spanish",yes,2025-07-23_07h31.55.040,empathy_intonation_perc,2024.2.4,Win32,60.24096386,6636554a6d7e6b582fec59ce,687ed1b7e638a4cbf2f02089,6880c7ce04a2ae7077394e6d,,,,,,,,,,,,,53,0,,./stim/wavs/cuban_match_declarative-broad-focus_Manuela-vende-el-carro.wav,,,,,,,,,,,,,,,,,,,,,,1084.6539,1086.6024,0,1,1.432,,0,31,31,52,1,0,cuban,,,,,,,,,,,,,,,,,,,,,,,,,,,,,,,,,,,,,,,,,,,,,,,,,,,,,,,,
,,,,,,,,,6636554a6d7e6b582fec59ce,spanish,13 or older,"no, only English or Spanish",yes,2025-07-23_07h31.55.040,empathy_intonation_perc,2024.2.4,Win32,60.24096386,6636554a6d7e6b582fec59ce,687ed1b7e638a4cbf2f02089,6880c7ce04a2ae7077394e6d,,,,,,,,,,,,,24,1,,./stim/wavs/puertorican_match_interrogative-total-yn_Maria-bebe-el-vino.wav,,,,,,,,,,,,,,,,,,,,,,1086.6037,1089.4534,0,0,2.3323,,0,32,32,23,1,1,puertorican,,,,,,,,,,,,,,,,,,,,,,,,,,,,,,,,,,,,,,,,,,,,,,,,,,,,,,,,
,,,,,,,,,6636554a6d7e6b582fec59ce,spanish,13 or older,"no, only English or Spanish",yes,2025-07-23_07h31.55.040,empathy_intonation_perc,2024.2.4,Win32,60.24096386,6636554a6d7e6b582fec59ce,687ed1b7e638a4cbf2f02089,6880c7ce04a2ae7077394e6d,,,,,,,,,,,,,57,0,,./stim/wavs/mexican_match_declarative-broad-focus_Ana-lleva-el-abrigo.wav,,,,,,,,,,,,,,,,,,,,,,1089.4545,1091.349,0,1,1.3676,,0,33,33,56,1,0,mexican,,,,,,,,,,,,,,,,,,,,,,,,,,,,,,,,,,,,,,,,,,,,,,,,,,,,,,,,
,,,,,,,,,6636554a6d7e6b582fec59ce,spanish,13 or older,"no, only English or Spanish",yes,2025-07-23_07h31.55.040,empathy_intonation_perc,2024.2.4,Win32,60.24096386,6636554a6d7e6b582fec59ce,687ed1b7e638a4cbf2f02089,6880c7ce04a2ae7077394e6d,,,,,,,,,,,,,36,1,,./stim/wavs/mexican_mismatch_interrogative-total-yn_El-nino-oye-el-rio.wav,,,,,,,,,,,,,,,,,,,,,,1091.3497,1094.2989,0,0,2.4285,,0,34,34,35,1,0,mexican,,,,,,,,,,,,,,,,,,,,,,,,,,,,,,,,,,,,,,,,,,,,,,,,,,,,,,,,
,,,,,,,,,6636554a6d7e6b582fec59ce,spanish,13 or older,"no, only English or Spanish",yes,2025-07-23_07h31.55.040,empathy_intonation_perc,2024.2.4,Win32,60.24096386,6636554a6d7e6b582fec59ce,687ed1b7e638a4cbf2f02089,6880c7ce04a2ae7077394e6d,,,,,,,,,,,,,2,1,,./stim/wavs/castilian_match_interrogative-total-yn_Emilio-ama-la-marcha.wav,,,,,,,,,,,,,,,,,,,,,,1094.3003,1096.4033,0,0,1.5959,,0,35,35,1,1,0,castilian,,,,,,,,,,,,,,,,,,,,,,,,,,,,,,,,,,,,,,,,,,,,,,,,,,,,,,,,
,,,,,,,,,6636554a6d7e6b582fec59ce,spanish,13 or older,"no, only English or Spanish",yes,2025-07-23_07h31.55.040,empathy_intonation_perc,2024.2.4,Win32,60.24096386,6636554a6d7e6b582fec59ce,687ed1b7e638a4cbf2f02089,6880c7ce04a2ae7077394e6d,,,,,,,,,,,,,61,0,,./stim/wavs/mexican_match_declarative-broad-focus_Mariano-habla-del-tiempo.wav,,,,,,,,,,,,,,,,,,,,,,1096.4041,1098.4021,0,1,1.481,,0,36,36,60,1,0,mexican,,,,,,,,,,,,,,,,,,,,,,,,,,,,,,,,,,,,,,,,,,,,,,,,,,,,,,,,
,,,,,,,,,6636554a6d7e6b582fec59ce,spanish,13 or older,"no, only English or Spanish",yes,2025-07-23_07h31.55.040,empathy_intonation_perc,2024.2.4,Win32,60.24096386,6636554a6d7e6b582fec59ce,687ed1b7e638a4cbf2f02089,6880c7ce04a2ae7077394e6d,,,,,,,,,,,,,26,1,,./stim/wavs/castilian_mismatch_interrogative-total-yn_La-nina-lava-el-plato.wav,,,,,,,,,,,,,,,,,,,,,,1098.4026,1101.0822,1,1,2.1537,,0,37,37,25,1,0,castilian,,,,,,,,,,,,,,,,,,,,,,,,,,,,,,,,,,,,,,,,,,,,,,,,,,,,,,,,
,,,,,,,,,6636554a6d7e6b582fec59ce,spanish,13 or older,"no, only English or Spanish",yes,2025-07-23_07h31.55.040,empathy_intonation_perc,2024.2.4,Win32,60.24096386,6636554a6d7e6b582fec59ce,687ed1b7e638a4cbf2f02089,6880c7ce04a2ae7077394e6d,,,,,,,,,,,,,43,1,,./stim/wavs/puertorican_mismatch_interrogative-total-yn_La-nina-lava-el-plato.wav,,,,,,,,,,,,,,,,,,,,,,1101.0838,1103.365,0,0,1.7552,,0,38,38,42,1,1,puertorican,,,,,,,,,,,,,,,,,,,,,,,,,,,,,,,,,,,,,,,,,,,,,,,,,,,,,,,,
,,,,,,,,,6636554a6d7e6b582fec59ce,spanish,13 or older,"no, only English or Spanish",yes,2025-07-23_07h31.55.040,empathy_intonation_perc,2024.2.4,Win32,60.24096386,6636554a6d7e6b582fec59ce,687ed1b7e638a4cbf2f02089,6880c7ce04a2ae7077394e6d,,,,,,,,,,,,,35,1,,./stim/wavs/mexican_mismatch_interrogative-total-yn_El-hombre-mira-la-luna.wav,,,,,,,,,,,,,,,,,,,,,,1103.3655,1105.4317,0,0,1.5324,,0,39,39,34,1,0,mexican,,,,,,,,,,,,,,,,,,,,,,,,,,,,,,,,,,,,,,,,,,,,,,,,,,,,,,,,
,,,,,,,,,6636554a6d7e6b582fec59ce,spanish,13 or older,"no, only English or Spanish",yes,2025-07-23_07h31.55.040,empathy_intonation_perc,2024.2.4,Win32,60.24096386,6636554a6d7e6b582fec59ce,687ed1b7e638a4cbf2f02089,6880c7ce04a2ae7077394e6d,,,,,,,,,,,,,80,0,,./stim/wavs/mexican_mismatch_declarative-broad-focus_El-hombre-mira-la-luna.wav,,,,,,,,,,,,,,,,,,,,,,1105.4331,1107.4023,0,1,1.4497,,0,40,40,79,1,0,mexican,,,,,,,,,,,,,,,,,,,,,,,,,,,,,,,,,,,,,,,,,,,,,,,,,,,,,,,,
,,,,,,,,,6636554a6d7e6b582fec59ce,spanish,13 or older,"no, only English or Spanish",yes,2025-07-23_07h31.55.040,empathy_intonation_perc,2024.2.4,Win32,60.24096386,6636554a6d7e6b582fec59ce,687ed1b7e638a4cbf2f02089,6880c7ce04a2ae7077394e6d,,,,,,,,,,,,,54,0,,./stim/wavs/cuban_match_declarative-broad-focus_Maria-bebe-el-vino.wav,,,,,,,,,,,,,,,,,,,,,,1107.4029,1109.2854,0,1,1.3678,,0,41,41,53,1,0,cuban,,,,,,,,,,,,,,,,,,,,,,,,,,,,,,,,,,,,,,,,,,,,,,,,,,,,,,,,
,,,,,,,,,6636554a6d7e6b582fec59ce,spanish,13 or older,"no, only English or Spanish",yes,2025-07-23_07h31.55.040,empathy_intonation_perc,2024.2.4,Win32,60.24096386,6636554a6d7e6b582fec59ce,687ed1b7e638a4cbf2f02089,6880c7ce04a2ae7077394e6d,,,,,,,,,,,,,16,1,,./stim/wavs/mexican_match_interrogative-total-yn_Emilio-ama-la-marcha.wav,,,,,,,,,,,,,,,,,,,,,,1109.2862,1112.3814,1,1,2.5739,,0,42,42,15,1,0,mexican,,,,,,,,,,,,,,,,,,,,,,,,,,,,,,,,,,,,,,,,,,,,,,,,,,,,,,,,
,,,,,,,,,6636554a6d7e6b582fec59ce,spanish,13 or older,"no, only English or Spanish",yes,2025-07-23_07h31.55.040,empathy_intonation_perc,2024.2.4,Win32,60.24096386,6636554a6d7e6b582fec59ce,687ed1b7e638a4cbf2f02089,6880c7ce04a2ae7077394e6d,,,,,,,,,,,,,32,1,,./stim/wavs/cuban_mismatch_interrogative-total-yn_Mi-madre-come-la-fruta.wav,,,,,,,,,,,,,,,,,,,,,,1112.3822,1114.5348,0,0,1.6341,,0,43,43,31,1,1,cuban,,,,,,,,,,,,,,,,,,,,,,,,,,,,,,,,,,,,,,,,,,,,,,,,,,,,,,,,
,,,,,,,,,6636554a6d7e6b582fec59ce,spanish,13 or older,"no, only English or Spanish",yes,2025-07-23_07h31.55.040,empathy_intonation_perc,2024.2.4,Win32,60.24096386,6636554a6d7e6b582fec59ce,687ed1b7e638a4cbf2f02089,6880c7ce04a2ae7077394e6d,,,,,,,,,,,,,15,1,,./stim/wavs/mexican_match_interrogative-total-yn_David-leia-el-libro.wav,,,,,,,,,,,,,,,,,,,,,,1114.5352,1116.5977,0,0,1.5443,,0,44,44,14,1,0,mexican,,,,,,,,,,,,,,,,,,,,,,,,,,,,,,,,,,,,,,,,,,,,,,,,,,,,,,,,
,,,,,,,,,6636554a6d7e6b582fec59ce,spanish,13 or older,"no, only English or Spanish",yes,2025-07-23_07h31.55.040,empathy_intonation_perc,2024.2.4,Win32,60.24096386,6636554a6d7e6b582fec59ce,687ed1b7e638a4cbf2f02089,6880c7ce04a2ae7077394e6d,,,,,,,,,,,,,83,0,,./stim/wavs/mexican_mismatch_declarative-broad-focus_Mi-tia-odia-la-lluvia.wav,,,,,,,,,,,,,,,,,,,,,,1116.5981,1118.5813,0,1,1.4535,,0,45,45,82,1,0,mexican,,,,,,,,,,,,,,,,,,,,,,,,,,,,,,,,,,,,,,,,,,,,,,,,,,,,,,,,
,,,,,,,,,6636554a6d7e6b582fec59ce,spanish,13 or older,"no, only English or Spanish",yes,2025-07-23_07h31.55.040,empathy_intonation_perc,2024.2.4,Win32,60.24096386,6636554a6d7e6b582fec59ce,687ed1b7e638a4cbf2f02089,6880c7ce04a2ae7077394e6d,,,,,,,,,,,,,17,1,,./stim/wavs/mexican_match_interrogative-total-yn_Mariano-habla-del-tiempo.wav,,,,,,,,,,,,,,,,,,,,,,1118.582,1121.235,0,0,2.1339,,0,46,46,16,1,0,mexican,,,,,,,,,,,,,,,,,,,,,,,,,,,,,,,,,,,,,,,,,,,,,,,,,,,,,,,,
,,,,,,,,,6636554a6d7e6b582fec59ce,spanish,13 or older,"no, only English or Spanish",yes,2025-07-23_07h31.55.040,empathy_intonation_perc,2024.2.4,Win32,60.24096386,6636554a6d7e6b582fec59ce,687ed1b7e638a4cbf2f02089,6880c7ce04a2ae7077394e6d,,,,,,,,,,,,,38,1,,./stim/wavs/mexican_mismatch_interrogative-total-yn_Mi-novio-viene-del-lago.wav,,,,,,,,,,,,,,,,,,,,,,1121.2356,1123.6144,1,1,1.8423,,0,47,47,37,1,0,mexican,,,,,,,,,,,,,,,,,,,,,,,,,,,,,,,,,,,,,,,,,,,,,,,,,,,,,,,,
,,,,,,,,,6636554a6d7e6b582fec59ce,spanish,13 or older,"no, only English or Spanish",yes,2025-07-23_07h31.55.040,empathy_intonation_perc,2024.2.4,Win32,60.24096386,6636554a6d7e6b582fec59ce,687ed1b7e638a4cbf2f02089,6880c7ce04a2ae7077394e6d,,,,,,,,,,,,,5,1,,./stim/wavs/castilian_match_interrogative-total-yn_Mariano-habla-del-tiempo.wav,,,,,,,,,,,,,,,,,,,,,,1123.6153,1125.8145,0,0,1.6715,,0,48,48,4,1,0,castilian,,,,,,,,,,,,,,,,,,,,,,,,,,,,,,,,,,,,,,,,,,,,,,,,,,,,,,,,
,,,,,,,,,6636554a6d7e6b582fec59ce,spanish,13 or older,"no, only English or Spanish",yes,2025-07-23_07h31.55.040,empathy_intonation_perc,2024.2.4,Win32,60.24096386,6636554a6d7e6b582fec59ce,687ed1b7e638a4cbf2f02089,6880c7ce04a2ae7077394e6d,,,,,,,,,,,,,88,0,,./stim/wavs/puertorican_mismatch_declarative-broad-focus_La-nina-lava-el-plato.wav,,,,,,,,,,,,,,,,,,,,,,1125.8154,1128.7849,0,1,2.4345,,0,49,49,87,1,0,puertorican,,,,,,,,,,,,,,,,,,,,,,,,,,,,,,,,,,,,,,,,,,,,,,,,,,,,,,,,
,,,,,,,,,6636554a6d7e6b582fec59ce,spanish,13 or older,"no, only English or Spanish",yes,2025-07-23_07h31.55.040,empathy_intonation_perc,2024.2.4,Win32,60.24096386,6636554a6d7e6b582fec59ce,687ed1b7e638a4cbf2f02089,6880c7ce04a2ae7077394e6d,,,,,,,,,,,,,85,0,,./stim/wavs/puertorican_mismatch_declarative-broad-focus_El-hombre-mira-la-luna.wav,,,,,,,,,,,,,,,,,,,,,,1128.7854,1130.9142,0,1,1.5989,,0,50,50,84,1,0,puertorican,,,,,,,,,,,,,,,,,,,,,,,,,,,,,,,,,,,,,,,,,,,,,,,,,,,,,,,,
,,,,,,,,,6636554a6d7e6b582fec59ce,spanish,13 or older,"no, only English or Spanish",yes,2025-07-23_07h31.55.040,empathy_intonation_perc,2024.2.4,Win32,60.24096386,6636554a6d7e6b582fec59ce,687ed1b7e638a4cbf2f02089,6880c7ce04a2ae7077394e6d,,,,,,,,,,,,,62,0,,./stim/wavs/mexican_match_declarative-broad-focus_Marta-abre-el-regalo.wav,,,,,,,,,,,,,,,,,,,,,,1130.9151,1132.8648,0,1,1.4131,,0,51,51,61,1,0,mexican,,,,,,,,,,,,,,,,,,,,,,,,,,,,,,,,,,,,,,,,,,,,,,,,,,,,,,,,
,,,,,,,,,6636554a6d7e6b582fec59ce,spanish,13 or older,"no, only English or Spanish",yes,2025-07-23_07h31.55.040,empathy_intonation_perc,2024.2.4,Win32,60.24096386,6636554a6d7e6b582fec59ce,687ed1b7e638a4cbf2f02089,6880c7ce04a2ae7077394e6d,,,,,,,,,,,,,41,1,,./stim/wavs/puertorican_mismatch_interrogative-total-yn_El-nino-oye-el-rio.wav,,,,,,,,,,,,,,,,,,,,,,1132.8654,1135.1805,0,0,1.7767,,0,52,52,40,1,1,puertorican,,,,,,,,,,,,,,,,,,,,,,,,,,,,,,,,,,,,,,,,,,,,,,,,,,,,,,,,
,,,,,,,,,6636554a6d7e6b582fec59ce,spanish,13 or older,"no, only English or Spanish",yes,2025-07-23_07h31.55.040,empathy_intonation_perc,2024.2.4,Win32,60.24096386,6636554a6d7e6b582fec59ce,687ed1b7e638a4cbf2f02089,6880c7ce04a2ae7077394e6d,,,,,,,,,,,,,44,1,,./stim/wavs/puertorican_mismatch_interrogative-total-yn_Mi-madre-come-la-fruta.wav,,,,,,,,,,,,,,,,,,,,,,1135.1818,1136.997,0,0,1.2935,,0,53,53,43,1,1,puertorican,,,,,,,,,,,,,,,,,,,,,,,,,,,,,,,,,,,,,,,,,,,,,,,,,,,,,,,,
,,,,,,,,,6636554a6d7e6b582fec59ce,spanish,13 or older,"no, only English or Spanish",yes,2025-07-23_07h31.55.040,empathy_intonation_perc,2024.2.4,Win32,60.24096386,6636554a6d7e6b582fec59ce,687ed1b7e638a4cbf2f02089,6880c7ce04a2ae7077394e6d,,,,,,,,,,,,,42,1,,./stim/wavs/puertorican_mismatch_interrogative-total-yn_La-maestra-vive-en-Paris.wav,,,,,,,,,,,,,,,,,,,,,,1136.9981,1139.0469,0,0,1.5316,,0,54,54,41,1,1,puertorican,,,,,,,,,,,,,,,,,,,,,,,,,,,,,,,,,,,,,,,,,,,,,,,,,,,,,,,,
,,,,,,,,,6636554a6d7e6b582fec59ce,spanish,13 or older,"no, only English or Spanish",yes,2025-07-23_07h31.55.040,empathy_intonation_perc,2024.2.4,Win32,60.24096386,6636554a6d7e6b582fec59ce,687ed1b7e638a4cbf2f02089,6880c7ce04a2ae7077394e6d,,,,,,,,,,,,,72,0,,./stim/wavs/castilian_mismatch_declarative-broad-focus_Mi-novio-viene-del-lago.wav,,,,,,,,,,,,,,,,,,,,,,1139.048,1141.4967,0,1,1.9231,,0,55,55,71,1,0,castilian,,,,,,,,,,,,,,,,,,,,,,,,,,,,,,,,,,,,,,,,,,,,,,,,,,,,,,,,
,,,,,,,,,6636554a6d7e6b582fec59ce,spanish,13 or older,"no, only English or Spanish",yes,2025-07-23_07h31.55.040,empathy_intonation_perc,2024.2.4,Win32,60.24096386,6636554a6d7e6b582fec59ce,687ed1b7e638a4cbf2f02089,6880c7ce04a2ae7077394e6d,,,,,,,,,,,,,21,1,,./stim/wavs/puertorican_match_interrogative-total-yn_David-leia-el-libro.wav,,,,,,,,,,,,,,,,,,,,,,1141.4971,1143.264,0,0,1.2507,,0,56,56,20,1,1,puertorican,,,,,,,,,,,,,,,,,,,,,,,,,,,,,,,,,,,,,,,,,,,,,,,,,,,,,,,,
,,,,,,,,,6636554a6d7e6b582fec59ce,spanish,13 or older,"no, only English or Spanish",yes,2025-07-23_07h31.55.040,empathy_intonation_perc,2024.2.4,Win32,60.24096386,6636554a6d7e6b582fec59ce,687ed1b7e638a4cbf2f02089,6880c7ce04a2ae7077394e6d,,,,,,,,,,,,,34,1,,./stim/wavs/cuban_mismatch_interrogative-total-yn_Mi-tia-odia-la-lluvia.wav,,,,,,,,,,,,,,,,,,,,,,1143.2647,1145.1841,0,0,1.4128,,0,57,57,33,1,1,cuban,,,,,,,,,,,,,,,,,,,,,,,,,,,,,,,,,,,,,,,,,,,,,,,,,,,,,,,,
,,,,,,,,,6636554a6d7e6b582fec59ce,spanish,13 or older,"no, only English or Spanish",yes,2025-07-23_07h31.55.040,empathy_intonation_perc,2024.2.4,Win32,60.24096386,6636554a6d7e6b582fec59ce,687ed1b7e638a4cbf2f02089,6880c7ce04a2ae7077394e6d,,,,,,,,,,,,,84,0,,./stim/wavs/puertorican_mismatch_declarative-broad-focus_El-bebe-comia-muy-bien.wav,,,,,,,,,,,,,,,,,,,,,,1145.1848,1147.2813,0,1,1.5729,,0,58,58,83,1,0,puertorican,,,,,,,,,,,,,,,,,,,,,,,,,,,,,,,,,,,,,,,,,,,,,,,,,,,,,,,,
,,,,,,,,,6636554a6d7e6b582fec59ce,spanish,13 or older,"no, only English or Spanish",yes,2025-07-23_07h31.55.040,empathy_intonation_perc,2024.2.4,Win32,60.24096386,6636554a6d7e6b582fec59ce,687ed1b7e638a4cbf2f02089,6880c7ce04a2ae7077394e6d,,,,,,,,,,,,,7,1,,./stim/wavs/cuban_match_interrogative-total-yn_Ana-lleva-el-abrigo.wav,,,,,,,,,,,,,,,,,,,,,,1147.282,1149.0635,0,0,1.2713,,0,59,59,6,1,1,cuban,,,,,,,,,,,,,,,,,,,,,,,,,,,,,,,,,,,,,,,,,,,,,,,,,,,,,,,,
,,,,,,,,,6636554a6d7e6b582fec59ce,spanish,13 or older,"no, only English or Spanish",yes,2025-07-23_07h31.55.040,empathy_intonation_perc,2024.2.4,Win32,60.24096386,6636554a6d7e6b582fec59ce,687ed1b7e638a4cbf2f02089,6880c7ce04a2ae7077394e6d,,,,,,,,,,,,,76,0,,./stim/wavs/cuban_mismatch_declarative-broad-focus_La-nina-lava-el-plato.wav,,,,,,,,,,,,,,,,,,,,,,1149.0643,1151.6328,0,1,2.0341,,0,60,60,75,1,0,cuban,,,,,,,,,,,,,,,,,,,,,,,,,,,,,,,,,,,,,,,,,,,,,,,,,,,,,,,,
,,,,,,,,,6636554a6d7e6b582fec59ce,spanish,13 or older,"no, only English or Spanish",yes,2025-07-23_07h31.55.040,empathy_intonation_perc,2024.2.4,Win32,60.24096386,6636554a6d7e6b582fec59ce,687ed1b7e638a4cbf2f02089,6880c7ce04a2ae7077394e6d,,,,,,,,,,,,,66,0,,./stim/wavs/puertorican_match_declarative-broad-focus_Emilio-ama-la-marcha.wav,,,,,,,,,,,,,,,,,,,,,,1151.6336,1153.6804,0,1,1.5234,,0,61,61,65,1,0,puertorican,,,,,,,,,,,,,,,,,,,,,,,,,,,,,,,,,,,,,,,,,,,,,,,,,,,,,,,,
,,,,,,,,,6636554a6d7e6b582fec59ce,spanish,13 or older,"no, only English or Spanish",yes,2025-07-23_07h31.55.040,empathy_intonation_perc,2024.2.4,Win32,60.24096386,6636554a6d7e6b582fec59ce,687ed1b7e638a4cbf2f02089,6880c7ce04a2ae7077394e6d,,,,,,,,,,,,,25,1,,./stim/wavs/castilian_mismatch_interrogative-total-yn_La-maestra-vive-en-Paris.wav,,,,,,,,,,,,,,,,,,,,,,1153.6813,1156.1468,1,1,1.9392,,0,62,62,24,1,0,castilian,,,,,,,,,,,,,,,,,,,,,,,,,,,,,,,,,,,,,,,,,,,,,,,,,,,,,,,,
,,,,,,,,,6636554a6d7e6b582fec59ce,spanish,13 or older,"no, only English or Spanish",yes,2025-07-23_07h31.55.040,empathy_intonation_perc,2024.2.4,Win32,60.24096386,6636554a6d7e6b582fec59ce,687ed1b7e638a4cbf2f02089,6880c7ce04a2ae7077394e6d,,,,,,,,,,,,,39,1,,./stim/wavs/mexican_mismatch_interrogative-total-yn_Mi-tia-odia-la-lluvia.wav,,,,,,,,,,,,,,,,,,,,,,1156.1475,1158.3293,1,1,1.6421,,0,63,63,38,1,0,mexican,,,,,,,,,,,,,,,,,,,,,,,,,,,,,,,,,,,,,,,,,,,,,,,,,,,,,,,,
,,,,,,,,,6636554a6d7e6b582fec59ce,spanish,13 or older,"no, only English or Spanish",yes,2025-07-23_07h31.55.040,empathy_intonation_perc,2024.2.4,Win32,60.24096386,6636554a6d7e6b582fec59ce,687ed1b7e638a4cbf2f02089,6880c7ce04a2ae7077394e6d,,,,,,,,,,,,,63,0,,./stim/wavs/puertorican_match_declarative-broad-focus_Ana-lleva-el-abrigo.wav,,,,,,,,,,,,,,,,,,,,,,1158.3304,1160.2125,0,1,1.3718,,0,64,64,62,1,0,puertorican,,,,,,,,,,,,,,,,,,,,,,,,,,,,,,,,,,,,,,,,,,,,,,,,,,,,,,,,
,,,,,,,,,6636554a6d7e6b582fec59ce,spanish,13 or older,"no, only English or Spanish",yes,2025-07-23_07h31.55.040,empathy_intonation_perc,2024.2.4,Win32,60.24096386,6636554a6d7e6b582fec59ce,687ed1b7e638a4cbf2f02089,6880c7ce04a2ae7077394e6d,,,,,,,,,,,,,69,0,,./stim/wavs/castilian_mismatch_declarative-broad-focus_El-nino-oye-el-rio.wav,,,,,,,,,,,,,,,,,,,,,,1160.213,1162.0956,0,1,1.3548,,0,65,65,68,1,0,castilian,,,,,,,,,,,,,,,,,,,,,,,,,,,,,,,,,,,,,,,,,,,,,,,,,,,,,,,,
,,,,,,,,,6636554a6d7e6b582fec59ce,spanish,13 or older,"no, only English or Spanish",yes,2025-07-23_07h31.55.040,empathy_intonation_perc,2024.2.4,Win32,60.24096386,6636554a6d7e6b582fec59ce,687ed1b7e638a4cbf2f02089,6880c7ce04a2ae7077394e6d,,,,,,,,,,,,,79,0,,./stim/wavs/mexican_mismatch_declarative-broad-focus_El-bebe-comia-muy-bien.wav,,,,,,,,,,,,,,,,,,,,,,1162.0961,1164.3457,0,1,1.7332,,0,66,66,78,1,0,mexican,,,,,,,,,,,,,,,,,,,,,,,,,,,,,,,,,,,,,,,,,,,,,,,,,,,,,,,,
,,,,,,,,,6636554a6d7e6b582fec59ce,spanish,13 or older,"no, only English or Spanish",yes,2025-07-23_07h31.55.040,empathy_intonation_perc,2024.2.4,Win32,60.24096386,6636554a6d7e6b582fec59ce,687ed1b7e638a4cbf2f02089,6880c7ce04a2ae7077394e6d,,,,,,,,,,,,,82,0,,./stim/wavs/mexican_mismatch_declarative-broad-focus_Mi-novio-viene-del-lago.wav,,,,,,,,,,,,,,,,,,,,,,1164.3464,1166.2122,0,1,1.3515,,0,67,67,81,1,0,mexican,,,,,,,,,,,,,,,,,,,,,,,,,,,,,,,,,,,,,,,,,,,,,,,,,,,,,,,,
,,,,,,,,,6636554a6d7e6b582fec59ce,spanish,13 or older,"no, only English or Spanish",yes,2025-07-23_07h31.55.040,empathy_intonation_perc,2024.2.4,Win32,60.24096386,6636554a6d7e6b582fec59ce,687ed1b7e638a4cbf2f02089,6880c7ce04a2ae7077394e6d,,,,,,,,,,,,,18,1,,./stim/wavs/mexican_match_interrogative-total-yn_Marta-abre-el-regalo.wav,,,,,,,,,,,,,,,,,,,,,,1166.2136,1168.0656,0,0,1.3316,,0,68,68,17,1,0,mexican,,,,,,,,,,,,,,,,,,,,,,,,,,,,,,,,,,,,,,,,,,,,,,,,,,,,,,,,
,,,,,,,,,6636554a6d7e6b582fec59ce,spanish,13 or older,"no, only English or Spanish",yes,2025-07-23_07h31.55.040,empathy_intonation_perc,2024.2.4,Win32,60.24096386,6636554a6d7e6b582fec59ce,687ed1b7e638a4cbf2f02089,6880c7ce04a2ae7077394e6d,,,,,,,,,,,,,77,0,,./stim/wavs/cuban_mismatch_declarative-broad-focus_Mi-novio-viene-del-lago.wav,,,,,,,,,,,,,,,,,,,,,,1168.0662,1170.2123,0,1,1.6174,,0,69,69,76,1,0,cuban,,,,,,,,,,,,,,,,,,,,,,,,,,,,,,,,,,,,,,,,,,,,,,,,,,,,,,,,
,,,,,,,,,6636554a6d7e6b582fec59ce,spanish,13 or older,"no, only English or Spanish",yes,2025-07-23_07h31.55.040,empathy_intonation_perc,2024.2.4,Win32,60.24096386,6636554a6d7e6b582fec59ce,687ed1b7e638a4cbf2f02089,6880c7ce04a2ae7077394e6d,,,,,,,,,,,,,8,1,,./stim/wavs/cuban_match_interrogative-total-yn_Daniel-iba-a-Bolivia.wav,,,,,,,,,,,,,,,,,,,,,,1170.2145,1172.2154,0,0,1.4822,,0,70,70,7,1,1,cuban,,,,,,,,,,,,,,,,,,,,,,,,,,,,,,,,,,,,,,,,,,,,,,,,,,,,,,,,
,,,,,,,,,6636554a6d7e6b582fec59ce,spanish,13 or older,"no, only English or Spanish",yes,2025-07-23_07h31.55.040,empathy_intonation_perc,2024.2.4,Win32,60.24096386,6636554a6d7e6b582fec59ce,687ed1b7e638a4cbf2f02089,6880c7ce04a2ae7077394e6d,,,,,,,,,,,,,55,0,,./stim/wavs/cuban_match_declarative-broad-focus_Mariano-habla-del-tiempo.wav,,,,,,,,,,,,,,,,,,,,,,1172.2162,1174.0327,0,1,1.2975,,0,71,71,54,1,0,cuban,,,,,,,,,,,,,,,,,,,,,,,,,,,,,,,,,,,,,,,,,,,,,,,,,,,,,,,,
,,,,,,,,,6636554a6d7e6b582fec59ce,spanish,13 or older,"no, only English or Spanish",yes,2025-07-23_07h31.55.040,empathy_intonation_perc,2024.2.4,Win32,60.24096386,6636554a6d7e6b582fec59ce,687ed1b7e638a4cbf2f02089,6880c7ce04a2ae7077394e6d,,,,,,,,,,,,,11,1,,./stim/wavs/cuban_match_interrogative-total-yn_Mariano-habla-del-tiempo.wav,,,,,,,,,,,,,,,,,,,,,,1174.0332,1175.6787,0,0,1.124,,0,72,72,10,1,1,cuban,,,,,,,,,,,,,,,,,,,,,,,,,,,,,,,,,,,,,,,,,,,,,,,,,,,,,,,,
,,,,,,,,,6636554a6d7e6b582fec59ce,spanish,13 or older,"no, only English or Spanish",yes,2025-07-23_07h31.55.040,empathy_intonation_perc,2024.2.4,Win32,60.24096386,6636554a6d7e6b582fec59ce,687ed1b7e638a4cbf2f02089,6880c7ce04a2ae7077394e6d,,,,,,,,,,,,,49,0,,./stim/wavs/castilian_match_declarative-broad-focus_Mariano-habla-del-tiempo.wav,,,,,,,,,,,,,,,,,,,,,,1175.6794,1177.9117,0,1,1.7163,,0,73,73,48,1,0,castilian,,,,,,,,,,,,,,,,,,,,,,,,,,,,,,,,,,,,,,,,,,,,,,,,,,,,,,,,
,,,,,,,,,6636554a6d7e6b582fec59ce,spanish,13 or older,"no, only English or Spanish",yes,2025-07-23_07h31.55.040,empathy_intonation_perc,2024.2.4,Win32,60.24096386,6636554a6d7e6b582fec59ce,687ed1b7e638a4cbf2f02089,6880c7ce04a2ae7077394e6d,,,,,,,,,,,,,12,1,,./stim/wavs/cuban_match_interrogative-total-yn_Marta-abre-el-regalo.wav,,,,,,,,,,,,,,,,,,,,,,1177.9124,1179.9473,0,0,1.5287,,0,74,74,11,1,1,cuban,,,,,,,,,,,,,,,,,,,,,,,,,,,,,,,,,,,,,,,,,,,,,,,,,,,,,,,,
,,,,,,,,,6636554a6d7e6b582fec59ce,spanish,13 or older,"no, only English or Spanish",yes,2025-07-23_07h31.55.040,empathy_intonation_perc,2024.2.4,Win32,60.24096386,6636554a6d7e6b582fec59ce,687ed1b7e638a4cbf2f02089,6880c7ce04a2ae7077394e6d,,,,,,,,,,,,,58,0,,./stim/wavs/mexican_match_declarative-broad-focus_Daniel-iba-a-Bolivia.wav,,,,,,,,,,,,,,,,,,,,,,1179.948,1181.8982,0,1,1.4288,,0,75,75,57,1,0,mexican,,,,,,,,,,,,,,,,,,,,,,,,,,,,,,,,,,,,,,,,,,,,,,,,,,,,,,,,
,,,,,,,,,6636554a6d7e6b582fec59ce,spanish,13 or older,"no, only English or Spanish",yes,2025-07-23_07h31.55.040,empathy_intonation_perc,2024.2.4,Win32,60.24096386,6636554a6d7e6b582fec59ce,687ed1b7e638a4cbf2f02089,6880c7ce04a2ae7077394e6d,,,,,,,,,,,,,29,1,,./stim/wavs/castilian_mismatch_interrogative-total-yn_Mi-tia-odia-la-lluvia.wav,,,,,,,,,,,,,,,,,,,,,,1181.8988,1184.1947,1,1,1.7761,,0,76,76,28,1,0,castilian,,,,,,,,,,,,,,,,,,,,,,,,,,,,,,,,,,,,,,,,,,,,,,,,,,,,,,,,
,,,,,,,,,6636554a6d7e6b582fec59ce,spanish,13 or older,"no, only English or Spanish",yes,2025-07-23_07h31.55.040,empathy_intonation_perc,2024.2.4,Win32,60.24096386,6636554a6d7e6b582fec59ce,687ed1b7e638a4cbf2f02089,6880c7ce04a2ae7077394e6d,,,,,,,,,,,,,14,1,,./stim/wavs/mexican_match_interrogative-total-yn_Daniel-iba-a-Bolivia.wav,,,,,,,,,,,,,,,,,,,,,,1184.1952,1186.5113,1,1,1.778,,0,77,77,13,1,0,mexican,,,,,,,,,,,,,,,,,,,,,,,,,,,,,,,,,,,,,,,,,,,,,,,,,,,,,,,,
,,,,,,,,,6636554a6d7e6b582fec59ce,spanish,13 or older,"no, only English or Spanish",yes,2025-07-23_07h31.55.040,empathy_intonation_perc,2024.2.4,Win32,60.24096386,6636554a6d7e6b582fec59ce,687ed1b7e638a4cbf2f02089,6880c7ce04a2ae7077394e6d,,,,,,,,,,,,,20,1,,./stim/wavs/puertorican_match_interrogative-total-yn_Daniel-iba-a-Bolivia.wav,,,,,,,,,,,,,,,,,,,,,,1186.5117,1188.2947,0,0,1.2597,,0,78,78,19,1,1,puertorican,,,,,,,,,,,,,,,,,,,,,,,,,,,,,,,,,,,,,,,,,,,,,,,,,,,,,,,,
,,,,,,,,,6636554a6d7e6b582fec59ce,spanish,13 or older,"no, only English or Spanish",yes,2025-07-23_07h31.55.040,empathy_intonation_perc,2024.2.4,Win32,60.24096386,6636554a6d7e6b582fec59ce,687ed1b7e638a4cbf2f02089,6880c7ce04a2ae7077394e6d,,,,,,,,,,,,,87,0,,./stim/wavs/puertorican_mismatch_declarative-broad-focus_La-maestra-vive-en-Paris.wav,,,,,,,,,,,,,,,,,,,,,,1188.2953,1190.1947,0,1,1.3684,,0,79,79,86,1,0,puertorican,,,,,,,,,,,,,,,,,,,,,,,,,,,,,,,,,,,,,,,,,,,,,,,,,,,,,,,,
,,,,,,,,,6636554a6d7e6b582fec59ce,spanish,13 or older,"no, only English or Spanish",yes,2025-07-23_07h31.55.040,empathy_intonation_perc,2024.2.4,Win32,60.24096386,6636554a6d7e6b582fec59ce,687ed1b7e638a4cbf2f02089,6880c7ce04a2ae7077394e6d,,,,,,,,,,,,,60,0,,./stim/wavs/mexican_match_declarative-broad-focus_Emilio-ama-la-marcha.wav,,,,,,,,,,,,,,,,,,,,,,1190.1955,1192.4779,1,0,1.754,,0,80,80,59,1,0,mexican,,,,,,,,,,,,,,,,,,,,,,,,,,,,,,,,,,,,,,,,,,,,,,,,,,,,,,,,
,,,,,,,,,6636554a6d7e6b582fec59ce,spanish,13 or older,"no, only English or Spanish",yes,2025-07-23_07h31.55.040,empathy_intonation_perc,2024.2.4,Win32,60.24096386,6636554a6d7e6b582fec59ce,687ed1b7e638a4cbf2f02089,6880c7ce04a2ae7077394e6d,,,,,,,,,,,,,50,0,,./stim/wavs/castilian_match_declarative-broad-focus_Marta-abre-el-regalo.wav,,,,,,,,,,,,,,,,,,,,,,1192.4786,1194.431,0,1,1.4294,,0,81,81,49,1,0,castilian,,,,,,,,,,,,,,,,,,,,,,,,,,,,,,,,,,,,,,,,,,,,,,,,,,,,,,,,
,,,,,,,,,6636554a6d7e6b582fec59ce,spanish,13 or older,"no, only English or Spanish",yes,2025-07-23_07h31.55.040,empathy_intonation_perc,2024.2.4,Win32,60.24096386,6636554a6d7e6b582fec59ce,687ed1b7e638a4cbf2f02089,6880c7ce04a2ae7077394e6d,,,,,,,,,,,,,6,1,,./stim/wavs/castilian_match_interrogative-total-yn_Marta-abre-el-regalo.wav,,,,,,,,,,,,,,,,,,,,,,1194.4315,1195.9275,0,0,0.9533,,0,82,82,5,1,0,castilian,,,,,,,,,,,,,,,,,,,,,,,,,,,,,,,,,,,,,,,,,,,,,,,,,,,,,,,,
,,,,,,,,,6636554a6d7e6b582fec59ce,spanish,13 or older,"no, only English or Spanish",yes,2025-07-23_07h31.55.040,empathy_intonation_perc,2024.2.4,Win32,60.24096386,6636554a6d7e6b582fec59ce,687ed1b7e638a4cbf2f02089,6880c7ce04a2ae7077394e6d,,,,,,,,,,,,,45,0,,./stim/wavs/castilian_match_declarative-broad-focus_David-leia-el-libro.wav,,,,,,,,,,,,,,,,,,,,,,1195.928,1198.4317,0,1,1.9828,,0,83,83,44,1,0,castilian,,,,,,,,,,,,,,,,,,,,,,,,,,,,,,,,,,,,,,,,,,,,,,,,,,,,,,,,
,,,,,,,,,6636554a6d7e6b582fec59ce,spanish,13 or older,"no, only English or Spanish",yes,2025-07-23_07h31.55.040,empathy_intonation_perc,2024.2.4,Win32,60.24096386,6636554a6d7e6b582fec59ce,687ed1b7e638a4cbf2f02089,6880c7ce04a2ae7077394e6d,,,,,,,,,,,,,3,1,,./stim/wavs/castilian_match_interrogative-total-yn_Manuela-vende-el-carro.wav,,,,,,,,,,,,,,,,,,,,,,1198.4324,1200.4807,0,0,1.5325,,0,84,84,2,1,0,castilian,,,,,,,,,,,,,,,,,,,,,,,,,,,,,,,,,,,,,,,,,,,,,,,,,,,,,,,,
,,,,,,,,,6636554a6d7e6b582fec59ce,spanish,13 or older,"no, only English or Spanish",yes,2025-07-23_07h31.55.040,empathy_intonation_perc,2024.2.4,Win32,60.24096386,6636554a6d7e6b582fec59ce,687ed1b7e638a4cbf2f02089,6880c7ce04a2ae7077394e6d,,,,,,,,,,,,,64,0,,./stim/wavs/puertorican_match_declarative-broad-focus_Daniel-iba-a-Bolivia.wav,,,,,,,,,,,,,,,,,,,,,,1200.4816,1202.4481,0,1,1.4331,,0,85,85,63,1,0,puertorican,,,,,,,,,,,,,,,,,,,,,,,,,,,,,,,,,,,,,,,,,,,,,,,,,,,,,,,,
,,,,,,,,,6636554a6d7e6b582fec59ce,spanish,13 or older,"no, only English or Spanish",yes,2025-07-23_07h31.55.040,empathy_intonation_perc,2024.2.4,Win32,60.24096386,6636554a6d7e6b582fec59ce,687ed1b7e638a4cbf2f02089,6880c7ce04a2ae7077394e6d,,,,,,,,,,,,,27,1,,./stim/wavs/castilian_mismatch_interrogative-total-yn_Mi-madre-come-la-fruta.wav,,,,,,,,,,,,,,,,,,,,,,1202.4488,1204.7273,1,1,1.7463,,0,86,86,26,1,0,castilian,,,,,,,,,,,,,,,,,,,,,,,,,,,,,,,,,,,,,,,,,,,,,,,,,,,,,,,,
,,,,,,,,,6636554a6d7e6b582fec59ce,spanish,13 or older,"no, only English or Spanish",yes,2025-07-23_07h31.55.040,empathy_intonation_perc,2024.2.4,Win32,60.24096386,6636554a6d7e6b582fec59ce,687ed1b7e638a4cbf2f02089,6880c7ce04a2ae7077394e6d,,,,,,,,,,,,,75,0,,./stim/wavs/cuban_mismatch_declarative-broad-focus_El-hombre-mira-la-luna.wav,,,,,,,,,,,,,,,,,,,,,,1204.7282,1206.5108,0,1,1.2522,,0,87,87,74,1,0,cuban,,,,,,,,,,,,,,,,,,,,,,,,,,,,,,,,,,,,,,,,,,,,,,,,,,,,,,,,
,,,,,,,"Great! Now we will move on. The next task consists of about 60 trials, in each of which you will see a string of letters. 
  
  Your task is to decide whether this is a real Spanish word or not.", (press the spacebar to continue),6636554a6d7e6b582fec59ce,spanish,13 or older,"no, only English or Spanish",yes,2025-07-23_07h31.55.040,empathy_intonation_perc,2024.2.4,Win32,60.24096386,6636554a6d7e6b582fec59ce,687ed1b7e638a4cbf2f02089,6880c7ce04a2ae7077394e6d,,,,,,,,,,,,,,,,,,,,,,,,,,,,,,,,,,,,,,,,,,,,,,,,,,,1206.5182,1212.8313,0,0,0,0,1,,,,,,,,,,,,,,,,,,,,,,,,,,,,,,,,,,,,,,,,,,,,,,,,,
,,,,,,,"If you think it is an existing Spanish word, you type '1' (for 'REAL'), and if you think it is not an existing Spanish word, you type '0' (for 'FAKE').", (press the spacebar to continue),6636554a6d7e6b582fec59ce,spanish,13 or older,"no, only English or Spanish",yes,2025-07-23_07h31.55.040,empathy_intonation_perc,2024.2.4,Win32,60.24096386,6636554a6d7e6b582fec59ce,687ed1b7e638a4cbf2f02089,6880c7ce04a2ae7077394e6d,,,,,,,,,,,,,,,,,,,,,,,,,,,,,,,,,,,,,,,,,,,,,,,,,,,1212.8338,1218.78,0,1,1,1,1,,,,,,,,,,,,,,,,,,,,,,,,,,,,,,,,,,,,,,,,,,,,,,,,,
,,,,,,,"If you are sure that the word exists, even though you don’t know its exact meaning, you may still respond '1' (REAL). 
  
  But if you are not sure if it is an existing word, you should respond '0' (FAKE).
  
  Let's do a practice round...", (press the spacebar to continue),6636554a6d7e6b582fec59ce,spanish,13 or older,"no, only English or Spanish",yes,2025-07-23_07h31.55.040,empathy_intonation_perc,2024.2.4,Win32,60.24096386,6636554a6d7e6b582fec59ce,687ed1b7e638a4cbf2f02089,6880c7ce04a2ae7077394e6d,,,,,,,,,,,,,,,,,,,,,,,,,,,,,,,,,,,,,,,,,,,,,,,,,,,1218.7827,1223.0607,0,2,2,2,1,,,,,,,,,,,,,,,,,,,,,,,,,,,,,,,,,,,,,,,,,,,,,,,,,
,,,,,,,,,6636554a6d7e6b582fec59ce,spanish,13 or older,"no, only English or Spanish",yes,2025-07-23_07h31.55.040,empathy_intonation_perc,2024.2.4,Win32,60.24096386,6636554a6d7e6b582fec59ce,687ed1b7e638a4cbf2f02089,6880c7ce04a2ae7077394e6d,,,,,,,,,,,,,,0,,,,,,,,,,,,,,,,,,,,,,,,,,,,,,,,,,,,,,,,,,,,1223.0658,1225.6268,1,0,2.0212,,1225.6271,1226.6269,0,0,0,0,1,0,depiste,REAL,FAKE,,,,,,,,,,,,,,,,,,,,,,,,,,,,,,,,
,,,,,,,,,6636554a6d7e6b582fec59ce,spanish,13 or older,"no, only English or Spanish",yes,2025-07-23_07h31.55.040,empathy_intonation_perc,2024.2.4,Win32,60.24096386,6636554a6d7e6b582fec59ce,687ed1b7e638a4cbf2f02089,6880c7ce04a2ae7077394e6d,,,,,,,,,,,,,,1,,,,,,,,,,,,,,,,,,,,,,,,,,,,,,,,,,,,,,,,,,,,1226.6288,1228.1426,1,1,0.9791,,1228.1433,1229.1427,0,1,1,1,1,0,sí,REAL,FAKE,,,,,,,,,,,,,,,,,,,,,,,,,,,,,,,,
,,,,,,,,,6636554a6d7e6b582fec59ce,spanish,13 or older,"no, only English or Spanish",yes,2025-07-23_07h31.55.040,empathy_intonation_perc,2024.2.4,Win32,60.24096386,6636554a6d7e6b582fec59ce,687ed1b7e638a4cbf2f02089,6880c7ce04a2ae7077394e6d,,,,,,,,,,,,,,0,,,,,,,,,,,,,,,,,,,,,,,,,,,,,,,,,,,,,,,,,,,,1229.1449,1231.6592,1,0,1.994,,1231.6602,1232.6596,0,2,2,2,1,0,coné,REAL,FAKE,,,,,,,,,,,,,,,,,,,,,,,,,,,,,,,,
,,,,,,,,,6636554a6d7e6b582fec59ce,spanish,13 or older,"no, only English or Spanish",yes,2025-07-23_07h31.55.040,empathy_intonation_perc,2024.2.4,Win32,60.24096386,6636554a6d7e6b582fec59ce,687ed1b7e638a4cbf2f02089,6880c7ce04a2ae7077394e6d,,,,,,,,,,,,,,0,,,,,,,,,,,,,,,,,,,,,,,,,,,,,,,,,,,,,,,,,,,,1232.6613,1234.5425,1,0,1.3604,,1234.543,1235.5453,0,3,3,3,1,0,calpar,REAL,FAKE,,,,,,,,,,,,,,,,,,,,,,,,,,,,,,,,
,,,,,,,,,6636554a6d7e6b582fec59ce,spanish,13 or older,"no, only English or Spanish",yes,2025-07-23_07h31.55.040,empathy_intonation_perc,2024.2.4,Win32,60.24096386,6636554a6d7e6b582fec59ce,687ed1b7e638a4cbf2f02089,6880c7ce04a2ae7077394e6d,,,,,,,,,,,,,,0,,,,,,,,,,,,,,,,,,,,,,,,,,,,,,,,,,,,,,,,,,,,1235.5478,1237.1626,0,1,1.0836,,1237.1635,1238.1613,0,4,4,4,1,0,joten,REAL,FAKE,,,,,,,,,,,,,,,,,,,,,,,,,,,,,,,,
,,,,,,,,,6636554a6d7e6b582fec59ce,spanish,13 or older,"no, only English or Spanish",yes,2025-07-23_07h31.55.040,empathy_intonation_perc,2024.2.4,Win32,60.24096386,6636554a6d7e6b582fec59ce,687ed1b7e638a4cbf2f02089,6880c7ce04a2ae7077394e6d,,,,,,,,,,,,,,1,,,,,,,,,,,,,,,,,,,,,,,,,,,,,,,,,,,,,,,,,,,,1238.163,1239.8621,0,0,1.1667,,1239.8632,1240.8624,0,5,5,5,1,0,sacapuntas,REAL,FAKE,,,,,,,,,,,,,,,,,,,,,,,,,,,,,,,,
,,,,,,,,,6636554a6d7e6b582fec59ce,spanish,13 or older,"no, only English or Spanish",yes,2025-07-23_07h31.55.040,empathy_intonation_perc,2024.2.4,Win32,60.24096386,6636554a6d7e6b582fec59ce,687ed1b7e638a4cbf2f02089,6880c7ce04a2ae7077394e6d,,,,,,,,,,,,,,0,,,,,,,,,,,,,,,,,,,,,,,,,,,,,,,,,,,,,,,,,,,,1240.8638,1242.4423,1,0,1.0426,,1242.4423,1243.4421,0,6,6,6,1,0,priba,REAL,FAKE,,,,,,,,,,,,,,,,,,,,,,,,,,,,,,,,
,,,,,,,,,6636554a6d7e6b582fec59ce,spanish,13 or older,"no, only English or Spanish",yes,2025-07-23_07h31.55.040,empathy_intonation_perc,2024.2.4,Win32,60.24096386,6636554a6d7e6b582fec59ce,687ed1b7e638a4cbf2f02089,6880c7ce04a2ae7077394e6d,,,,,,,,,,,,,,0,,,,,,,,,,,,,,,,,,,,,,,,,,,,,,,,,,,,,,,,,,,,1243.4436,1245.0755,0,1,1.0857,,1245.0773,1246.0632,0,7,7,7,1,0,pelasula,REAL,FAKE,,,,,,,,,,,,,,,,,,,,,,,,,,,,,,,,
,,,,,,,,,6636554a6d7e6b582fec59ce,spanish,13 or older,"no, only English or Spanish",yes,2025-07-23_07h31.55.040,empathy_intonation_perc,2024.2.4,Win32,60.24096386,6636554a6d7e6b582fec59ce,687ed1b7e638a4cbf2f02089,6880c7ce04a2ae7077394e6d,,,,,,,,,,,,,,1,,,,,,,,,,,,,,,,,,,,,,,,,,,,,,,,,,,,,,,,,,,,1246.0647,1247.6119,1,1,1.016,,1247.612,1248.6088,0,8,8,8,1,0,bien,REAL,FAKE,,,,,,,,,,,,,,,,,,,,,,,,,,,,,,,,
,,,,,,,,,6636554a6d7e6b582fec59ce,spanish,13 or older,"no, only English or Spanish",yes,2025-07-23_07h31.55.040,empathy_intonation_perc,2024.2.4,Win32,60.24096386,6636554a6d7e6b582fec59ce,687ed1b7e638a4cbf2f02089,6880c7ce04a2ae7077394e6d,,,,,,,,,,,,,,1,,,,,,,,,,,,,,,,,,,,,,,,,,,,,,,,,,,,,,,,,,,,1248.61,1250.0256,1,1,0.8971,,1250.0256,1251.0249,0,9,9,9,1,0,casa,REAL,FAKE,,,,,,,,,,,,,,,,,,,,,,,,,,,,,,,,
,,,,,,,,,6636554a6d7e6b582fec59ce,spanish,13 or older,"no, only English or Spanish",yes,2025-07-23_07h31.55.040,empathy_intonation_perc,2024.2.4,Win32,60.24096386,6636554a6d7e6b582fec59ce,687ed1b7e638a4cbf2f02089,6880c7ce04a2ae7077394e6d,,,,,,,,,,,,,,0,,,,,,,,,,,,,,,,,,,,,,,,,,,,,,,,,,,,,,,,,,,,1251.0266,1252.542,0,1,0.9697,,1252.542,1253.5419,0,10,10,10,1,0,lejo,REAL,FAKE,,,,,,,,,,,,,,,,,,,,,,,,,,,,,,,,
,,,,,,,,,6636554a6d7e6b582fec59ce,spanish,13 or older,"no, only English or Spanish",yes,2025-07-23_07h31.55.040,empathy_intonation_perc,2024.2.4,Win32,60.24096386,6636554a6d7e6b582fec59ce,687ed1b7e638a4cbf2f02089,6880c7ce04a2ae7077394e6d,,,,,,,,,,,,,,0,,,,,,,,,,,,,,,,,,,,,,,,,,,,,,,,,,,,,,,,,,,,1253.544,1255.2114,1,0,1.1327,,1255.2122,1256.2081,0,11,11,11,1,0,pretantas,REAL,FAKE,,,,,,,,,,,,,,,,,,,,,,,,,,,,,,,,
,,,,,,,,,6636554a6d7e6b582fec59ce,spanish,13 or older,"no, only English or Spanish",yes,2025-07-23_07h31.55.040,empathy_intonation_perc,2024.2.4,Win32,60.24096386,6636554a6d7e6b582fec59ce,687ed1b7e638a4cbf2f02089,6880c7ce04a2ae7077394e6d,,,,,,,,,,,,,,,,,,,,,,,,,,,,,,,,,,,,,,,,,,,,,,,,,,,,,,,,,,,,,,,,,,,,,,,,,,,1256.2085,1258.2416,,,,,,,,,,,,,,,,,,,,,,,,,,,,,,
,,,,,,,,,6636554a6d7e6b582fec59ce,spanish,13 or older,"no, only English or Spanish",yes,2025-07-23_07h31.55.040,empathy_intonation_perc,2024.2.4,Win32,60.24096386,6636554a6d7e6b582fec59ce,687ed1b7e638a4cbf2f02089,6880c7ce04a2ae7077394e6d,,,,,,,,,,,,,,0,,,,,,,,,,,,,,,,,,,,,,,,,,,,,,,,,,,,,,,,,,,,,,,,,,,,,,,,,30,alardio,,,,,1258.2518,1261.1414,0,1,2.3609,,0,0,0,29,1,REAL,FAKE,,,,,,,,,,,,,,,,,
,,,,,,,,,6636554a6d7e6b582fec59ce,spanish,13 or older,"no, only English or Spanish",yes,2025-07-23_07h31.55.040,empathy_intonation_perc,2024.2.4,Win32,60.24096386,6636554a6d7e6b582fec59ce,687ed1b7e638a4cbf2f02089,6880c7ce04a2ae7077394e6d,,,,,,,,,,,,,,1,,,,,,,,,,,,,,,,,,,,,,,,,,,,,,,,,,,,,,,,,,,,,,,,,,,,,,,,,36,loro,,,,,1261.1424,1262.5577,1,1,0.8743,,0,1,1,35,1,REAL,FAKE,,,,,,,,,,,,,,,,,
,,,,,,,,,6636554a6d7e6b582fec59ce,spanish,13 or older,"no, only English or Spanish",yes,2025-07-23_07h31.55.040,empathy_intonation_perc,2024.2.4,Win32,60.24096386,6636554a6d7e6b582fec59ce,687ed1b7e638a4cbf2f02089,6880c7ce04a2ae7077394e6d,,,,,,,,,,,,,,1,,,,,,,,,,,,,,,,,,,,,,,,,,,,,,,,,,,,,,,,,,,,,,,,,,,,,,,,,14,yunque,,,,,1262.5592,1263.9915,0,0,0.8864,,0,2,2,13,1,REAL,FAKE,,,,,,,,,,,,,,,,,
,,,,,,,,,6636554a6d7e6b582fec59ce,spanish,13 or older,"no, only English or Spanish",yes,2025-07-23_07h31.55.040,empathy_intonation_perc,2024.2.4,Win32,60.24096386,6636554a6d7e6b582fec59ce,687ed1b7e638a4cbf2f02089,6880c7ce04a2ae7077394e6d,,,,,,,,,,,,,,1,,,,,,,,,,,,,,,,,,,,,,,,,,,,,,,,,,,,,,,,,,,,,,,,,,,,,,,,,37,granuja,,,,,1263.9934,1265.8942,0,0,1.367,,0,3,3,36,1,REAL,FAKE,,,,,,,,,,,,,,,,,
,,,,,,,,,6636554a6d7e6b582fec59ce,spanish,13 or older,"no, only English or Spanish",yes,2025-07-23_07h31.55.040,empathy_intonation_perc,2024.2.4,Win32,60.24096386,6636554a6d7e6b582fec59ce,687ed1b7e638a4cbf2f02089,6880c7ce04a2ae7077394e6d,,,,,,,,,,,,,,1,,,,,,,,,,,,,,,,,,,,,,,,,,,,,,,,,,,,,,,,,,,,,,,,,,,,,,,,,80,hormiga,,,,,1265.895,1267.874,0,0,1.4374,,0,4,4,79,1,REAL,FAKE,,,,,,,,,,,,,,,,,
,,,,,,,,,6636554a6d7e6b582fec59ce,spanish,13 or older,"no, only English or Spanish",yes,2025-07-23_07h31.55.040,empathy_intonation_perc,2024.2.4,Win32,60.24096386,6636554a6d7e6b582fec59ce,687ed1b7e638a4cbf2f02089,6880c7ce04a2ae7077394e6d,,,,,,,,,,,,,,1,,,,,,,,,,,,,,,,,,,,,,,,,,,,,,,,,,,,,,,,,,,,,,,,,,,,,,,,,28,merodear,,,,,1267.8754,1269.5106,0,0,1.1163,,0,5,5,27,1,REAL,FAKE,,,,,,,,,,,,,,,,,
,,,,,,,,,6636554a6d7e6b582fec59ce,spanish,13 or older,"no, only English or Spanish",yes,2025-07-23_07h31.55.040,empathy_intonation_perc,2024.2.4,Win32,60.24096386,6636554a6d7e6b582fec59ce,687ed1b7e638a4cbf2f02089,6880c7ce04a2ae7077394e6d,,,,,,,,,,,,,,1,,,,,,,,,,,,,,,,,,,,,,,,,,,,,,,,,,,,,,,,,,,,,,,,,,,,,,,,,89,prisa,,,,,1269.5115,1272.8446,0,0,2.8009,,0,6,6,88,1,REAL,FAKE,,,,,,,,,,,,,,,,,
,,,,,,,,,6636554a6d7e6b582fec59ce,spanish,13 or older,"no, only English or Spanish",yes,2025-07-23_07h31.55.040,empathy_intonation_perc,2024.2.4,Win32,60.24096386,6636554a6d7e6b582fec59ce,687ed1b7e638a4cbf2f02089,6880c7ce04a2ae7077394e6d,,,,,,,,,,,,,,1,,,,,,,,,,,,,,,,,,,,,,,,,,,,,,,,,,,,,,,,,,,,,,,,,,,,,,,,,68,alegre,,,,,1272.8454,1274.327,1,1,0.9491,,0,7,7,67,1,REAL,FAKE,,,,,,,,,,,,,,,,,
,,,,,,,,,6636554a6d7e6b582fec59ce,spanish,13 or older,"no, only English or Spanish",yes,2025-07-23_07h31.55.040,empathy_intonation_perc,2024.2.4,Win32,60.24096386,6636554a6d7e6b582fec59ce,687ed1b7e638a4cbf2f02089,6880c7ce04a2ae7077394e6d,,,,,,,,,,,,,,1,,,,,,,,,,,,,,,,,,,,,,,,,,,,,,,,,,,,,,,,,,,,,,,,,,,,,,,,,25,bisagra,,,,,1274.3278,1276.3304,0,0,1.4697,,0,8,8,24,1,REAL,FAKE,,,,,,,,,,,,,,,,,
,,,,,,,,,6636554a6d7e6b582fec59ce,spanish,13 or older,"no, only English or Spanish",yes,2025-07-23_07h31.55.040,empathy_intonation_perc,2024.2.4,Win32,60.24096386,6636554a6d7e6b582fec59ce,687ed1b7e638a4cbf2f02089,6880c7ce04a2ae7077394e6d,,,,,,,,,,,,,,0,,,,,,,,,,,,,,,,,,,,,,,,,,,,,,,,,,,,,,,,,,,,,,,,,,,,,,,,,19,brecedad,,,,,1276.3316,1277.7407,0,1,0.8678,,0,9,9,18,1,REAL,FAKE,,,,,,,,,,,,,,,,,
,,,,,,,,,6636554a6d7e6b582fec59ce,spanish,13 or older,"no, only English or Spanish",yes,2025-07-23_07h31.55.040,empathy_intonation_perc,2024.2.4,Win32,60.24096386,6636554a6d7e6b582fec59ce,687ed1b7e638a4cbf2f02089,6880c7ce04a2ae7077394e6d,,,,,,,,,,,,,,1,,,,,,,,,,,,,,,,,,,,,,,,,,,,,,,,,,,,,,,,,,,,,,,,,,,,,,,,,59,besar,,,,,1277.7422,1279.5942,1,1,1.3334,,0,10,10,58,1,REAL,FAKE,,,,,,,,,,,,,,,,,
,,,,,,,,,6636554a6d7e6b582fec59ce,spanish,13 or older,"no, only English or Spanish",yes,2025-07-23_07h31.55.040,empathy_intonation_perc,2024.2.4,Win32,60.24096386,6636554a6d7e6b582fec59ce,687ed1b7e638a4cbf2f02089,6880c7ce04a2ae7077394e6d,,,,,,,,,,,,,,0,,,,,,,,,,,,,,,,,,,,,,,,,,,,,,,,,,,,,,,,,,,,,,,,,,,,,,,,,17,floroso,,,,,1279.5953,1282.044,0,1,1.9168,,0,11,11,16,1,REAL,FAKE,,,,,,,,,,,,,,,,,
,,,,,,,,,6636554a6d7e6b582fec59ce,spanish,13 or older,"no, only English or Spanish",yes,2025-07-23_07h31.55.040,empathy_intonation_perc,2024.2.4,Win32,60.24096386,6636554a6d7e6b582fec59ce,687ed1b7e638a4cbf2f02089,6880c7ce04a2ae7077394e6d,,,,,,,,,,,,,,1,,,,,,,,,,,,,,,,,,,,,,,,,,,,,,,,,,,,,,,,,,,,,,,,,,,,,,,,,20,ávido,,,,,1282.0455,1283.7447,1,1,1.1673,,0,12,12,19,1,REAL,FAKE,,,,,,,,,,,,,,,,,
,,,,,,,,,6636554a6d7e6b582fec59ce,spanish,13 or older,"no, only English or Spanish",yes,2025-07-23_07h31.55.040,empathy_intonation_perc,2024.2.4,Win32,60.24096386,6636554a6d7e6b582fec59ce,687ed1b7e638a4cbf2f02089,6880c7ce04a2ae7077394e6d,,,,,,,,,,,,,,1,,,,,,,,,,,,,,,,,,,,,,,,,,,,,,,,,,,,,,,,,,,,,,,,,,,,,,,,,48,ladrón,,,,,1283.7461,1284.8768,0,0,0.6003,,0,13,13,47,1,REAL,FAKE,,,,,,,,,,,,,,,,,
,,,,,,,,,6636554a6d7e6b582fec59ce,spanish,13 or older,"no, only English or Spanish",yes,2025-07-23_07h31.55.040,empathy_intonation_perc,2024.2.4,Win32,60.24096386,6636554a6d7e6b582fec59ce,687ed1b7e638a4cbf2f02089,6880c7ce04a2ae7077394e6d,,,,,,,,,,,,,,1,,,,,,,,,,,,,,,,,,,,,,,,,,,,,,,,,,,,,,,,,,,,,,,,,,,,,,,,,55,nevar,,,,,1284.8773,1286.6577,0,0,1.2608,,0,14,14,54,1,REAL,FAKE,,,,,,,,,,,,,,,,,
,,,,,,,,,6636554a6d7e6b582fec59ce,spanish,13 or older,"no, only English or Spanish",yes,2025-07-23_07h31.55.040,empathy_intonation_perc,2024.2.4,Win32,60.24096386,6636554a6d7e6b582fec59ce,687ed1b7e638a4cbf2f02089,6880c7ce04a2ae7077394e6d,,,,,,,,,,,,,,0,,,,,,,,,,,,,,,,,,,,,,,,,,,,,,,,,,,,,,,,,,,,,,,,,,,,,,,,,58,plaudir,,,,,1286.6591,1288.1237,0,1,0.9225,,0,15,15,57,1,REAL,FAKE,,,,,,,,,,,,,,,,,
,,,,,,,,,6636554a6d7e6b582fec59ce,spanish,13 or older,"no, only English or Spanish",yes,2025-07-23_07h31.55.040,empathy_intonation_perc,2024.2.4,Win32,60.24096386,6636554a6d7e6b582fec59ce,687ed1b7e638a4cbf2f02089,6880c7ce04a2ae7077394e6d,,,,,,,,,,,,,,1,,,,,,,,,,,,,,,,,,,,,,,,,,,,,,,,,,,,,,,,,,,,,,,,,,,,,,,,,11,cenefa,,,,,1288.1249,1289.2443,0,0,0.5843,,0,16,16,10,1,REAL,FAKE,,,,,,,,,,,,,,,,,
,,,,,,,,,6636554a6d7e6b582fec59ce,spanish,13 or older,"no, only English or Spanish",yes,2025-07-23_07h31.55.040,empathy_intonation_perc,2024.2.4,Win32,60.24096386,6636554a6d7e6b582fec59ce,687ed1b7e638a4cbf2f02089,6880c7ce04a2ae7077394e6d,,,,,,,,,,,,,,1,,,,,,,,,,,,,,,,,,,,,,,,,,,,,,,,,,,,,,,,,,,,,,,,,,,,,,,,,62,flaco,,,,,1289.2454,1291.6595,1,1,1.8835,,0,17,17,61,1,REAL,FAKE,,,,,,,,,,,,,,,,,
,,,,,,,,,6636554a6d7e6b582fec59ce,spanish,13 or older,"no, only English or Spanish",yes,2025-07-23_07h31.55.040,empathy_intonation_perc,2024.2.4,Win32,60.24096386,6636554a6d7e6b582fec59ce,687ed1b7e638a4cbf2f02089,6880c7ce04a2ae7077394e6d,,,,,,,,,,,,,,1,,,,,,,,,,,,,,,,,,,,,,,,,,,,,,,,,,,,,,,,,,,,,,,,,,,,,,,,,38,estornudar,,,,,1291.6604,1293.2602,0,0,1.0669,,0,18,18,37,1,REAL,FAKE,,,,,,,,,,,,,,,,,
,,,,,,,,,6636554a6d7e6b582fec59ce,spanish,13 or older,"no, only English or Spanish",yes,2025-07-23_07h31.55.040,empathy_intonation_perc,2024.2.4,Win32,60.24096386,6636554a6d7e6b582fec59ce,687ed1b7e638a4cbf2f02089,6880c7ce04a2ae7077394e6d,,,,,,,,,,,,,,1,,,,,,,,,,,,,,,,,,,,,,,,,,,,,,,,,,,,,,,,,,,,,,,,,,,,,,,,,52,camisa,,,,,1293.2613,1294.5227,1,1,0.7295,,0,19,19,51,1,REAL,FAKE,,,,,,,,,,,,,,,,,
,,,,,,,,,6636554a6d7e6b582fec59ce,spanish,13 or older,"no, only English or Spanish",yes,2025-07-23_07h31.55.040,empathy_intonation_perc,2024.2.4,Win32,60.24096386,6636554a6d7e6b582fec59ce,687ed1b7e638a4cbf2f02089,6880c7ce04a2ae7077394e6d,,,,,,,,,,,,,,1,,,,,,,,,,,,,,,,,,,,,,,,,,,,,,,,,,,,,,,,,,,,,,,,,,,,,,,,,44,cuchara,,,,,1294.5234,1296.3896,1,1,1.3391,,0,20,20,43,1,REAL,FAKE,,,,,,,,,,,,,,,,,
,,,,,,,,,6636554a6d7e6b582fec59ce,spanish,13 or older,"no, only English or Spanish",yes,2025-07-23_07h31.55.040,empathy_intonation_perc,2024.2.4,Win32,60.24096386,6636554a6d7e6b582fec59ce,687ed1b7e638a4cbf2f02089,6880c7ce04a2ae7077394e6d,,,,,,,,,,,,,,1,,,,,,,,,,,,,,,,,,,,,,,,,,,,,,,,,,,,,,,,,,,,,,,,,,,,,,,,,2,pellizcar,,,,,1296.3915,1297.5769,0,0,0.6507,,0,21,21,1,1,REAL,FAKE,,,,,,,,,,,,,,,,,
,,,,,,,,,6636554a6d7e6b582fec59ce,spanish,13 or older,"no, only English or Spanish",yes,2025-07-23_07h31.55.040,empathy_intonation_perc,2024.2.4,Win32,60.24096386,6636554a6d7e6b582fec59ce,687ed1b7e638a4cbf2f02089,6880c7ce04a2ae7077394e6d,,,,,,,,,,,,,,1,,,,,,,,,,,,,,,,,,,,,,,,,,,,,,,,,,,,,,,,,,,,,,,,,,,,,,,,,9,hacha,,,,,1297.578,1801.4452,0,0,503.3357,,0,22,22,8,1,REAL,FAKE,,,,,,,,,,,,,,,,,
,,,,,,,,,6636554a6d7e6b582fec59ce,spanish,13 or older,"no, only English or Spanish",yes,2025-07-23_07h31.55.040,empathy_intonation_perc,2024.2.4,Win32,60.24096386,6636554a6d7e6b582fec59ce,687ed1b7e638a4cbf2f02089,6880c7ce04a2ae7077394e6d,,,,,,,,,,,,,,1,,,,,,,,,,,,,,,,,,,,,,,,,,,,,,,,,,,,,,,,,,,,,,,,,,,,,,,,,13,helar,,,,,1801.4565,1803.5414,1,1,1.5517,,0,23,23,12,1,REAL,FAKE,,,,,,,,,,,,,,,,,
,,,,,,,,,6636554a6d7e6b582fec59ce,spanish,13 or older,"no, only English or Spanish",yes,2025-07-23_07h31.55.040,empathy_intonation_perc,2024.2.4,Win32,60.24096386,6636554a6d7e6b582fec59ce,687ed1b7e638a4cbf2f02089,6880c7ce04a2ae7077394e6d,,,,,,,,,,,,,,0,,,,,,,,,,,,,,,,,,,,,,,,,,,,,,,,,,,,,,,,,,,,,,,,,,,,,,,,,50,flamida,,,,,1803.5427,1805.1924,0,1,1.1043,,0,24,24,49,1,REAL,FAKE,,,,,,,,,,,,,,,,,
,,,,,,,,,6636554a6d7e6b582fec59ce,spanish,13 or older,"no, only English or Spanish",yes,2025-07-23_07h31.55.040,empathy_intonation_perc,2024.2.4,Win32,60.24096386,6636554a6d7e6b582fec59ce,687ed1b7e638a4cbf2f02089,6880c7ce04a2ae7077394e6d,,,,,,,,,,,,,,1,,,,,,,,,,,,,,,,,,,,,,,,,,,,,,,,,,,,,,,,,,,,,,,,,,,,,,,,,77,tiburón,,,,,1805.1942,1807.0448,1,1,1.3176,,0,25,25,76,1,REAL,FAKE,,,,,,,,,,,,,,,,,
,,,,,,,,,6636554a6d7e6b582fec59ce,spanish,13 or older,"no, only English or Spanish",yes,2025-07-23_07h31.55.040,empathy_intonation_perc,2024.2.4,Win32,60.24096386,6636554a6d7e6b582fec59ce,687ed1b7e638a4cbf2f02089,6880c7ce04a2ae7077394e6d,,,,,,,,,,,,,,1,,,,,,,,,,,,,,,,,,,,,,,,,,,,,,,,,,,,,,,,,,,,,,,,,,,,,,,,,56,musgo,,,,,1807.0458,1808.4616,0,0,0.8836,,0,26,26,55,1,REAL,FAKE,,,,,,,,,,,,,,,,,
,,,,,,,,,6636554a6d7e6b582fec59ce,spanish,13 or older,"no, only English or Spanish",yes,2025-07-23_07h31.55.040,empathy_intonation_perc,2024.2.4,Win32,60.24096386,6636554a6d7e6b582fec59ce,687ed1b7e638a4cbf2f02089,6880c7ce04a2ae7077394e6d,,,,,,,,,,,,,,1,,,,,,,,,,,,,,,,,,,,,,,,,,,,,,,,,,,,,,,,,,,,,,,,,,,,,,,,,60,matar,,,,,1808.4628,1884.057,0,0,75.0627,,0,27,27,59,1,REAL,FAKE,,,,,,,,,,,,,,,,,
,,,,,,,,,6636554a6d7e6b582fec59ce,spanish,13 or older,"no, only English or Spanish",yes,2025-07-23_07h31.55.040,empathy_intonation_perc,2024.2.4,Win32,60.24096386,6636554a6d7e6b582fec59ce,687ed1b7e638a4cbf2f02089,6880c7ce04a2ae7077394e6d,,,,,,,,,,,,,,1,,,,,,,,,,,,,,,,,,,,,,,,,,,,,,,,,,,,,,,,,,,,,,,,,,,,,,,,,88,acantilado,,,,,1884.0579,1972.9506,0,0,88.3534,,0,28,28,87,1,REAL,FAKE,,,,,,,,,,,,,,,,,
,,,,,,,,,6636554a6d7e6b582fec59ce,spanish,13 or older,"no, only English or Spanish",yes,2025-07-23_07h31.55.040,empathy_intonation_perc,2024.2.4,Win32,60.24096386,6636554a6d7e6b582fec59ce,687ed1b7e638a4cbf2f02089,6880c7ce04a2ae7077394e6d,,,,,,,,,,,,,,1,,,,,,,,,,,,,,,,,,,,,,,,,,,,,,,,,,,,,,,,,,,,,,,,,,,,,,,,,91,click the 1 key.,,,,,1972.9537,1975.3508,1,1,1.8607,,0,29,29,90,1,REAL,FAKE,,,,,,,,,,,,,,,,,
,,,,,,,,,6636554a6d7e6b582fec59ce,spanish,13 or older,"no, only English or Spanish",yes,2025-07-23_07h31.55.040,empathy_intonation_perc,2024.2.4,Win32,60.24096386,6636554a6d7e6b582fec59ce,687ed1b7e638a4cbf2f02089,6880c7ce04a2ae7077394e6d,,,,,,,,,,,,,,1,,,,,,,,,,,,,,,,,,,,,,,,,,,,,,,,,,,,,,,,,,,,,,,,,,,,,,,,,85,laúd,,,,,1975.3527,1978.854,1,1,2.9664,,0,30,30,84,1,REAL,FAKE,,,,,,,,,,,,,,,,,
,,,,,,,,,6636554a6d7e6b582fec59ce,spanish,13 or older,"no, only English or Spanish",yes,2025-07-23_07h31.55.040,empathy_intonation_perc,2024.2.4,Win32,60.24096386,6636554a6d7e6b582fec59ce,687ed1b7e638a4cbf2f02089,6880c7ce04a2ae7077394e6d,,,,,,,,,,,,,,0,,,,,,,,,,,,,,,,,,,,,,,,,,,,,,,,,,,,,,,,,,,,,,,,,,,,,,,,,29,decar,,,,,1978.855,1981.3198,0,1,1.9331,,0,31,31,28,1,REAL,FAKE,,,,,,,,,,,,,,,,,
,,,,,,,,,6636554a6d7e6b582fec59ce,spanish,13 or older,"no, only English or Spanish",yes,2025-07-23_07h31.55.040,empathy_intonation_perc,2024.2.4,Win32,60.24096386,6636554a6d7e6b582fec59ce,687ed1b7e638a4cbf2f02089,6880c7ce04a2ae7077394e6d,,,,,,,,,,,,,,1,,,,,,,,,,,,,,,,,,,,,,,,,,,,,,,,,,,,,,,,,,,,,,,,,,,,,,,,,86,barato,,,,,1981.3213,1983.2665,1,1,1.4051,,0,32,32,85,1,REAL,FAKE,,,,,,,,,,,,,,,,,
,,,,,,,,,6636554a6d7e6b582fec59ce,spanish,13 or older,"no, only English or Spanish",yes,2025-07-23_07h31.55.040,empathy_intonation_perc,2024.2.4,Win32,60.24096386,6636554a6d7e6b582fec59ce,687ed1b7e638a4cbf2f02089,6880c7ce04a2ae7077394e6d,,,,,,,,,,,,,,1,,,,,,,,,,,,,,,,,,,,,,,,,,,,,,,,,,,,,,,,,,,,,,,,,,,,,,,,,24,látigo,,,,,1983.2677,1985.3047,1,1,1.5021,,0,33,33,23,1,REAL,FAKE,,,,,,,,,,,,,,,,,
,,,,,,,,,6636554a6d7e6b582fec59ce,spanish,13 or older,"no, only English or Spanish",yes,2025-07-23_07h31.55.040,empathy_intonation_perc,2024.2.4,Win32,60.24096386,6636554a6d7e6b582fec59ce,687ed1b7e638a4cbf2f02089,6880c7ce04a2ae7077394e6d,,,,,,,,,,,,,,1,,,,,,,,,,,,,,,,,,,,,,,,,,,,,,,,,,,,,,,,,,,,,,,,,,,,,,,,,64,orgulloso,,,,,1985.3059,1987.4338,0,0,1.5852,,0,34,34,63,1,REAL,FAKE,,,,,,,,,,,,,,,,,
,,,,,,,,,6636554a6d7e6b582fec59ce,spanish,13 or older,"no, only English or Spanish",yes,2025-07-23_07h31.55.040,empathy_intonation_perc,2024.2.4,Win32,60.24096386,6636554a6d7e6b582fec59ce,687ed1b7e638a4cbf2f02089,6880c7ce04a2ae7077394e6d,,,,,,,,,,,,,,0,,,,,,,,,,,,,,,,,,,,,,,,,,,,,,,,,,,,,,,,,,,,,,,,,,,,,,,,,8,cadeña,,,,,1987.4363,2139.2629,0,1,151.2925,,0,35,35,7,1,REAL,FAKE,,,,,,,,,,,,,,,,,
,,,,,,,,,6636554a6d7e6b582fec59ce,spanish,13 or older,"no, only English or Spanish",yes,2025-07-23_07h31.55.040,empathy_intonation_perc,2024.2.4,Win32,60.24096386,6636554a6d7e6b582fec59ce,687ed1b7e638a4cbf2f02089,6880c7ce04a2ae7077394e6d,,,,,,,,,,,,,,1,,,,,,,,,,,,,,,,,,,,,,,,,,,,,,,,,,,,,,,,,,,,,,,,,,,,,,,,,46,martillo,,,,,2139.2639,2141.2094,0,0,1.4024,,0,36,36,45,1,REAL,FAKE,,,,,,,,,,,,,,,,,
,,,,,,,,,6636554a6d7e6b582fec59ce,spanish,13 or older,"no, only English or Spanish",yes,2025-07-23_07h31.55.040,empathy_intonation_perc,2024.2.4,Win32,60.24096386,6636554a6d7e6b582fec59ce,687ed1b7e638a4cbf2f02089,6880c7ce04a2ae7077394e6d,,,,,,,,,,,,,,0,,,,,,,,,,,,,,,,,,,,,,,,,,,,,,,,,,,,,,,,,,,,,,,,,,,,,,,,,10,antar,,,,,2141.2116,2142.409,0,1,0.6697,,0,37,37,9,1,REAL,FAKE,,,,,,,,,,,,,,,,,
,,,,,,,,,6636554a6d7e6b582fec59ce,spanish,13 or older,"no, only English or Spanish",yes,2025-07-23_07h31.55.040,empathy_intonation_perc,2024.2.4,Win32,60.24096386,6636554a6d7e6b582fec59ce,687ed1b7e638a4cbf2f02089,6880c7ce04a2ae7077394e6d,,,,,,,,,,,,,,1,,,,,,,,,,,,,,,,,,,,,,,,,,,,,,,,,,,,,,,,,,,,,,,,,,,,,,,,,57,tacaño,,,,,2142.4111,2144.3758,1,1,1.4261,,0,38,38,56,1,REAL,FAKE,,,,,,,,,,,,,,,,,
,,,,,,,,,6636554a6d7e6b582fec59ce,spanish,13 or older,"no, only English or Spanish",yes,2025-07-23_07h31.55.040,empathy_intonation_perc,2024.2.4,Win32,60.24096386,6636554a6d7e6b582fec59ce,687ed1b7e638a4cbf2f02089,6880c7ce04a2ae7077394e6d,,,,,,,,,,,,,,0,,,,,,,,,,,,,,,,,,,,,,,,,,,,,,,,,,,,,,,,,,,,,,,,,,,,,,,,,66,hacido,,,,,2144.3778,2146.2428,1,0,1.3193,,0,39,39,65,1,REAL,FAKE,,,,,,,,,,,,,,,,,
,,,,,,,,,6636554a6d7e6b582fec59ce,spanish,13 or older,"no, only English or Spanish",yes,2025-07-23_07h31.55.040,empathy_intonation_perc,2024.2.4,Win32,60.24096386,6636554a6d7e6b582fec59ce,687ed1b7e638a4cbf2f02089,6880c7ce04a2ae7077394e6d,,,,,,,,,,,,,,1,,,,,,,,,,,,,,,,,,,,,,,,,,,,,,,,,,,,,,,,,,,,,,,,,,,,,,,,,75,yacer,,,,,2146.2449,2147.7594,0,0,0.9695,,0,40,40,74,1,REAL,FAKE,,,,,,,,,,,,,,,,,
,,,,,,,,,6636554a6d7e6b582fec59ce,spanish,13 or older,"no, only English or Spanish",yes,2025-07-23_07h31.55.040,empathy_intonation_perc,2024.2.4,Win32,60.24096386,6636554a6d7e6b582fec59ce,687ed1b7e638a4cbf2f02089,6880c7ce04a2ae7077394e6d,,,,,,,,,,,,,,0,,,,,,,,,,,,,,,,,,,,,,,,,,,,,,,,,,,,,,,,,,,,,,,,,,,,,,,,,87,grodo,,,,,2147.7616,2149.5126,1,0,1.2172,,0,41,41,86,1,REAL,FAKE,,,,,,,,,,,,,,,,,
,,,,,,,,,6636554a6d7e6b582fec59ce,spanish,13 or older,"no, only English or Spanish",yes,2025-07-23_07h31.55.040,empathy_intonation_perc,2024.2.4,Win32,60.24096386,6636554a6d7e6b582fec59ce,687ed1b7e638a4cbf2f02089,6880c7ce04a2ae7077394e6d,,,,,,,,,,,,,,0,,,,,,,,,,,,,,,,,,,,,,,,,,,,,,,,,,,,,,,,,,,,,,,,,,,,,,,,,21,capillo,,,,,2149.5145,2151.5089,1,0,1.452,,0,42,42,20,1,REAL,FAKE,,,,,,,,,,,,,,,,,
,,,,,,,,,6636554a6d7e6b582fec59ce,spanish,13 or older,"no, only English or Spanish",yes,2025-07-23_07h31.55.040,empathy_intonation_perc,2024.2.4,Win32,60.24096386,6636554a6d7e6b582fec59ce,687ed1b7e638a4cbf2f02089,6880c7ce04a2ae7077394e6d,,,,,,,,,,,,,,1,,,,,,,,,,,,,,,,,,,,,,,,,,,,,,,,,,,,,,,,,,,,,,,,,,,,,,,,,45,jilguero,,,,,2151.5106,2153.1754,0,0,1.1364,,0,43,43,44,1,REAL,FAKE,,,,,,,,,,,,,,,,,
,,,,,,,,,6636554a6d7e6b582fec59ce,spanish,13 or older,"no, only English or Spanish",yes,2025-07-23_07h31.55.040,empathy_intonation_perc,2024.2.4,Win32,60.24096386,6636554a6d7e6b582fec59ce,687ed1b7e638a4cbf2f02089,6880c7ce04a2ae7077394e6d,,,,,,,,,,,,,,1,,,,,,,,,,,,,,,,,,,,,,,,,,,,,,,,,,,,,,,,,,,,,,,,,,,,,,,,,15,regar,,,,,2153.1767,2154.3255,0,0,0.6193,,0,44,44,14,1,REAL,FAKE,,,,,,,,,,,,,,,,,
,,,,,,,,,6636554a6d7e6b582fec59ce,spanish,13 or older,"no, only English or Spanish",yes,2025-07-23_07h31.55.040,empathy_intonation_perc,2024.2.4,Win32,60.24096386,6636554a6d7e6b582fec59ce,687ed1b7e638a4cbf2f02089,6880c7ce04a2ae7077394e6d,,,,,,,,,,,,,,1,,,,,,,,,,,,,,,,,,,,,,,,,,,,,,,,,,,,,,,,,,,,,,,,,,,,,,,,,41,rebuscar,,,,,2154.3268,2155.4252,0,0,0.5627,,0,45,45,40,1,REAL,FAKE,,,,,,,,,,,,,,,,,
,,,,,,,,,6636554a6d7e6b582fec59ce,spanish,13 or older,"no, only English or Spanish",yes,2025-07-23_07h31.55.040,empathy_intonation_perc,2024.2.4,Win32,60.24096386,6636554a6d7e6b582fec59ce,687ed1b7e638a4cbf2f02089,6880c7ce04a2ae7077394e6d,,,,,,,,,,,,,,0,,,,,,,,,,,,,,,,,,,,,,,,,,,,,,,,,,,,,,,,,,,,,,,,,,,,,,,,,18,arsa,,,,,2155.4268,2156.5086,0,1,0.5367,,0,46,46,17,1,REAL,FAKE,,,,,,,,,,,,,,,,,
,,,,,,,,,6636554a6d7e6b582fec59ce,spanish,13 or older,"no, only English or Spanish",yes,2025-07-23_07h31.55.040,empathy_intonation_perc,2024.2.4,Win32,60.24096386,6636554a6d7e6b582fec59ce,687ed1b7e638a4cbf2f02089,6880c7ce04a2ae7077394e6d,,,,,,,,,,,,,,0,,,,,,,,,,,,,,,,,,,,,,,,,,,,,,,,,,,,,,,,,,,,,,,,,,,,,,,,,70,temblo,,,,,2156.5106,2158.1621,0,1,1.1167,,0,47,47,69,1,REAL,FAKE,,,,,,,,,,,,,,,,,
,,,,,,,,,6636554a6d7e6b582fec59ce,spanish,13 or older,"no, only English or Spanish",yes,2025-07-23_07h31.55.040,empathy_intonation_perc,2024.2.4,Win32,60.24096386,6636554a6d7e6b582fec59ce,687ed1b7e638a4cbf2f02089,6880c7ce04a2ae7077394e6d,,,,,,,,,,,,,,0,,,,,,,,,,,,,,,,,,,,,,,,,,,,,,,,,,,,,,,,,,,,,,,,,,,,,,,,,79,tropaje,,,,,2158.1638,2689.9592,0,1,531.2581,,0,48,48,78,1,REAL,FAKE,,,,,,,,,,,,,,,,,
,,,,,,,,,6636554a6d7e6b582fec59ce,spanish,13 or older,"no, only English or Spanish",yes,2025-07-23_07h31.55.040,empathy_intonation_perc,2024.2.4,Win32,60.24096386,6636554a6d7e6b582fec59ce,687ed1b7e638a4cbf2f02089,6880c7ce04a2ae7077394e6d,,,,,,,,,,,,,,0,,,,,,,,,,,,,,,,,,,,,,,,,,,,,,,,,,,,,,,,,,,,,,,,,,,,,,,,,4,batillón,,,,,2689.9618,2690.9794,0,1,0.484,,0,49,49,3,1,REAL,FAKE,,,,,,,,,,,,,,,,,
,,,,,,,,,6636554a6d7e6b582fec59ce,spanish,13 or older,"no, only English or Spanish",yes,2025-07-23_07h31.55.040,empathy_intonation_perc,2024.2.4,Win32,60.24096386,6636554a6d7e6b582fec59ce,687ed1b7e638a4cbf2f02089,6880c7ce04a2ae7077394e6d,,,,,,,,,,,,,,1,,,,,,,,,,,,,,,,,,,,,,,,,,,,,,,,,,,,,,,,,,,,,,,,,,,,,,,,,69,engatusar,,,,,2690.9811,2692.1925,0,0,0.6705,,0,50,50,68,1,REAL,FAKE,,,,,,,,,,,,,,,,,
,,,,,,,,,6636554a6d7e6b582fec59ce,spanish,13 or older,"no, only English or Spanish",yes,2025-07-23_07h31.55.040,empathy_intonation_perc,2024.2.4,Win32,60.24096386,6636554a6d7e6b582fec59ce,687ed1b7e638a4cbf2f02089,6880c7ce04a2ae7077394e6d,,,,,,,,,,,,,,1,,,,,,,,,,,,,,,,,,,,,,,,,,,,,,,,,,,,,,,,,,,,,,,,,,,,,,,,,76,atar,,,,,2692.1949,2693.759,0,0,1.0359,,0,51,51,75,1,REAL,FAKE,,,,,,,,,,,,,,,,,
,,,,,,,,,6636554a6d7e6b582fec59ce,spanish,13 or older,"no, only English or Spanish",yes,2025-07-23_07h31.55.040,empathy_intonation_perc,2024.2.4,Win32,60.24096386,6636554a6d7e6b582fec59ce,687ed1b7e638a4cbf2f02089,6880c7ce04a2ae7077394e6d,,,,,,,,,,,,,,1,,,,,,,,,,,,,,,,,,,,,,,,,,,,,,,,,,,,,,,,,,,,,,,,,,,,,,,,,54,fomentar,,,,,2693.7603,2694.8593,0,0,0.5779,,0,52,52,53,1,REAL,FAKE,,,,,,,,,,,,,,,,,
,,,,,,,,,6636554a6d7e6b582fec59ce,spanish,13 or older,"no, only English or Spanish",yes,2025-07-23_07h31.55.040,empathy_intonation_perc,2024.2.4,Win32,60.24096386,6636554a6d7e6b582fec59ce,687ed1b7e638a4cbf2f02089,6880c7ce04a2ae7077394e6d,,,,,,,,,,,,,,0,,,,,,,,,,,,,,,,,,,,,,,,,,,,,,,,,,,,,,,,,,,,,,,,,,,,,,,,,53,vegada,,,,,2694.8613,2696.7756,0,1,1.3701,,0,53,53,52,1,REAL,FAKE,,,,,,,,,,,,,,,,,
,,,,,,,,,6636554a6d7e6b582fec59ce,spanish,13 or older,"no, only English or Spanish",yes,2025-07-23_07h31.55.040,empathy_intonation_perc,2024.2.4,Win32,60.24096386,6636554a6d7e6b582fec59ce,687ed1b7e638a4cbf2f02089,6880c7ce04a2ae7077394e6d,,,,,,,,,,,,,,0,,,,,,,,,,,,,,,,,,,,,,,,,,,,,,,,,,,,,,,,,,,,,,,,,,,,,,,,,32,fatacidad,,,,,2696.7773,2697.9281,0,1,0.616,,0,54,54,31,1,REAL,FAKE,,,,,,,,,,,,,,,,,
,,,,,,,,,6636554a6d7e6b582fec59ce,spanish,13 or older,"no, only English or Spanish",yes,2025-07-23_07h31.55.040,empathy_intonation_perc,2024.2.4,Win32,60.24096386,6636554a6d7e6b582fec59ce,687ed1b7e638a4cbf2f02089,6880c7ce04a2ae7077394e6d,,,,,,,,,,,,,,1,,,,,,,,,,,,,,,,,,,,,,,,,,,,,,,,,,,,,,,,,,,,,,,,,,,,,,,,,3,pulmones,,,,,2697.9291,2699.6943,1,1,1.2322,,0,55,55,2,1,REAL,FAKE,,,,,,,,,,,,,,,,,
,,,,,,,,,6636554a6d7e6b582fec59ce,spanish,13 or older,"no, only English or Spanish",yes,2025-07-23_07h31.55.040,empathy_intonation_perc,2024.2.4,Win32,60.24096386,6636554a6d7e6b582fec59ce,687ed1b7e638a4cbf2f02089,6880c7ce04a2ae7077394e6d,,,,,,,,,,,,,,0,,,,,,,,,,,,,,,,,,,,,,,,,,,,,,,,,,,,,,,,,,,,,,,,,,,,,,,,,47,cartinar,,,,,2699.6951,2700.994,0,1,0.7825,,0,56,56,46,1,REAL,FAKE,,,,,,,,,,,,,,,,,
,,,,,,,,,6636554a6d7e6b582fec59ce,spanish,13 or older,"no, only English or Spanish",yes,2025-07-23_07h31.55.040,empathy_intonation_perc,2024.2.4,Win32,60.24096386,6636554a6d7e6b582fec59ce,687ed1b7e638a4cbf2f02089,6880c7ce04a2ae7077394e6d,,,,,,,,,,,,,,1,,,,,,,,,,,,,,,,,,,,,,,,,,,,,,,,,,,,,,,,,,,,,,,,,,,,,,,,,26,secuestro,,,,,2700.9953,2701.9585,0,0,0.4201,,0,57,57,25,1,REAL,FAKE,,,,,,,,,,,,,,,,,
,,,,,,,,,6636554a6d7e6b582fec59ce,spanish,13 or older,"no, only English or Spanish",yes,2025-07-23_07h31.55.040,empathy_intonation_perc,2024.2.4,Win32,60.24096386,6636554a6d7e6b582fec59ce,687ed1b7e638a4cbf2f02089,6880c7ce04a2ae7077394e6d,,,,,,,,,,,,,,1,,,,,,,,,,,,,,,,,,,,,,,,,,,,,,,,,,,,,,,,,,,,,,,,,,,,,,,,,39,torpe,,,,,2701.9597,2703.125,0,0,0.6233,,0,58,58,38,1,REAL,FAKE,,,,,,,,,,,,,,,,,
,,,,,,,,,6636554a6d7e6b582fec59ce,spanish,13 or older,"no, only English or Spanish",yes,2025-07-23_07h31.55.040,empathy_intonation_perc,2024.2.4,Win32,60.24096386,6636554a6d7e6b582fec59ce,687ed1b7e638a4cbf2f02089,6880c7ce04a2ae7077394e6d,,,,,,,,,,,,,,1,,,,,,,,,,,,,,,,,,,,,,,,,,,,,,,,,,,,,,,,,,,,,,,,,,,,,,,,,67,cabello,,,,,2703.1267,2704.0414,1,1,0.3781,,0,59,59,66,1,REAL,FAKE,,,,,,,,,,,,,,,,,
,,,,,,,,,6636554a6d7e6b582fec59ce,spanish,13 or older,"no, only English or Spanish",yes,2025-07-23_07h31.55.040,empathy_intonation_perc,2024.2.4,Win32,60.24096386,6636554a6d7e6b582fec59ce,687ed1b7e638a4cbf2f02089,6880c7ce04a2ae7077394e6d,,,,,,,,,,,,,,1,,,,,,,,,,,,,,,,,,,,,,,,,,,,,,,,,,,,,,,,,,,,,,,,,,,,,,,,,7,pésimo,,,,,2704.042,2705.3751,1,1,0.8038,,0,60,60,6,1,REAL,FAKE,,,,,,,,,,,,,,,,,
,,,,,,,,,6636554a6d7e6b582fec59ce,spanish,13 or older,"no, only English or Spanish",yes,2025-07-23_07h31.55.040,empathy_intonation_perc,2024.2.4,Win32,60.24096386,6636554a6d7e6b582fec59ce,687ed1b7e638a4cbf2f02089,6880c7ce04a2ae7077394e6d,,,,,,,,,,,,,,1,,,,,,,,,,,,,,,,,,,,,,,,,,,,,,,,,,,,,,,,,,,,,,,,,,,,,,,,,6,tergiversar,,,,,2705.3768,2706.5417,0,0,0.6417,,0,61,61,5,1,REAL,FAKE,,,,,,,,,,,,,,,,,
,,,,,,,,,6636554a6d7e6b582fec59ce,spanish,13 or older,"no, only English or Spanish",yes,2025-07-23_07h31.55.040,empathy_intonation_perc,2024.2.4,Win32,60.24096386,6636554a6d7e6b582fec59ce,687ed1b7e638a4cbf2f02089,6880c7ce04a2ae7077394e6d,,,,,,,,,,,,,,0,,,,,,,,,,,,,,,,,,,,,,,,,,,,,,,,,,,,,,,,,,,,,,,,,,,,,,,,,27,acutación,,,,,2706.5435,2707.1582,0,1,0.0722,,0,62,62,26,1,REAL,FAKE,,,,,,,,,,,,,,,,,
,,,,,,,,,6636554a6d7e6b582fec59ce,spanish,13 or older,"no, only English or Spanish",yes,2025-07-23_07h31.55.040,empathy_intonation_perc,2024.2.4,Win32,60.24096386,6636554a6d7e6b582fec59ce,687ed1b7e638a4cbf2f02089,6880c7ce04a2ae7077394e6d,,,,,,,,,,,,,,0,,,,,,,,,,,,,,,,,,,,,,,,,,,,,,,,,,,,,,,,,,,,,,,,,,,,,,,,,72,pemición,,,,,2707.1596,2707.7621,0,1,0.0841,,0,63,63,71,1,REAL,FAKE,,,,,,,,,,,,,,,,,
,,,,,,,,,6636554a6d7e6b582fec59ce,spanish,13 or older,"no, only English or Spanish",yes,2025-07-23_07h31.55.040,empathy_intonation_perc,2024.2.4,Win32,60.24096386,6636554a6d7e6b582fec59ce,687ed1b7e638a4cbf2f02089,6880c7ce04a2ae7077394e6d,,,,,,,,,,,,,,1,,,,,,,,,,,,,,,,,,,,,,,,,,,,,,,,,,,,,,,,,,,,,,,,,,,,,,,,,90,clavel,,,,,2707.7641,2708.342,0,0,0.0473,,0,64,64,89,1,REAL,FAKE,,,,,,,,,,,,,,,,,
,,,,,,,,,6636554a6d7e6b582fec59ce,spanish,13 or older,"no, only English or Spanish",yes,2025-07-23_07h31.55.040,empathy_intonation_perc,2024.2.4,Win32,60.24096386,6636554a6d7e6b582fec59ce,687ed1b7e638a4cbf2f02089,6880c7ce04a2ae7077394e6d,,,,,,,,,,,,,,0,,,,,,,,,,,,,,,,,,,,,,,,,,,,,,,,,,,,,,,,,,,,,,,,,,,,,,,,,1,terzo,,,,,2708.3446,2708.9248,1,0,0.0372,,0,65,65,0,1,REAL,FAKE,,,,,,,,,,,,,,,,,
,,,,,,,,,6636554a6d7e6b582fec59ce,spanish,13 or older,"no, only English or Spanish",yes,2025-07-23_07h31.55.040,empathy_intonation_perc,2024.2.4,Win32,60.24096386,6636554a6d7e6b582fec59ce,687ed1b7e638a4cbf2f02089,6880c7ce04a2ae7077394e6d,,,,,,,,,,,,,,0,,,,,,,,,,,,,,,,,,,,,,,,,,,,,,,,,,,,,,,,,,,,,,,,,,,,,,,,,63,esposante,,,,,2708.9262,2709.4752,1,0,0.0306,,0,66,66,62,1,REAL,FAKE,,,,,,,,,,,,,,,,,
,,,,,,,,,6636554a6d7e6b582fec59ce,spanish,13 or older,"no, only English or Spanish",yes,2025-07-23_07h31.55.040,empathy_intonation_perc,2024.2.4,Win32,60.24096386,6636554a6d7e6b582fec59ce,687ed1b7e638a4cbf2f02089,6880c7ce04a2ae7077394e6d,,,,,,,,,,,,,,1,,,,,,,,,,,,,,,,,,,,,,,,,,,,,,,,,,,,,,,,,,,,,,,,,,,,,,,,,65,bizcocho,,,,,2709.4768,2710.3751,0,0,0.3535,,0,67,67,64,1,REAL,FAKE,,,,,,,,,,,,,,,,,
,,,,,,,,,6636554a6d7e6b582fec59ce,spanish,13 or older,"no, only English or Spanish",yes,2025-07-23_07h31.55.040,empathy_intonation_perc,2024.2.4,Win32,60.24096386,6636554a6d7e6b582fec59ce,687ed1b7e638a4cbf2f02089,6880c7ce04a2ae7077394e6d,,,,,,,,,,,,,,0,,,,,,,,,,,,,,,,,,,,,,,,,,,,,,,,,,,,,,,,,,,,,,,,,,,,,,,,,74,cintro,,,,,2710.377,2711.5119,0,1,0.601,,0,68,68,73,1,REAL,FAKE,,,,,,,,,,,,,,,,,
,,,,,,,,,6636554a6d7e6b582fec59ce,spanish,13 or older,"no, only English or Spanish",yes,2025-07-23_07h31.55.040,empathy_intonation_perc,2024.2.4,Win32,60.24096386,6636554a6d7e6b582fec59ce,687ed1b7e638a4cbf2f02089,6880c7ce04a2ae7077394e6d,,,,,,,,,,,,,,0,,,,,,,,,,,,,,,,,,,,,,,,,,,,,,,,,,,,,,,,,,,,,,,,,,,,,,,,,82,empirador,,,,,2711.5137,2712.1255,1,0,0.0809,,0,69,69,81,1,REAL,FAKE,,,,,,,,,,,,,,,,,
,,,,,,,,,6636554a6d7e6b582fec59ce,spanish,13 or older,"no, only English or Spanish",yes,2025-07-23_07h31.55.040,empathy_intonation_perc,2024.2.4,Win32,60.24096386,6636554a6d7e6b582fec59ce,687ed1b7e638a4cbf2f02089,6880c7ce04a2ae7077394e6d,,,,,,,,,,,,,,1,,,,,,,,,,,,,,,,,,,,,,,,,,,,,,,,,,,,,,,,,,,,,,,,,,,,,,,,,83,guante,,,,,2712.1269,2712.8949,1,1,0.2339,,0,70,70,82,1,REAL,FAKE,,,,,,,,,,,,,,,,,
,,,,,,,,,6636554a6d7e6b582fec59ce,spanish,13 or older,"no, only English or Spanish",yes,2025-07-23_07h31.55.040,empathy_intonation_perc,2024.2.4,Win32,60.24096386,6636554a6d7e6b582fec59ce,687ed1b7e638a4cbf2f02089,6880c7ce04a2ae7077394e6d,,,,,,,,,,,,,,0,,,,,,,,,,,,,,,,,,,,,,,,,,,,,,,,,,,,,,,,,,,,,,,,,,,,,,,,,35,rompido,,,,,2712.8961,2713.6117,1,0,0.1839,,0,71,71,34,1,REAL,FAKE,,,,,,,,,,,,,,,,,
,,,,,,,,,6636554a6d7e6b582fec59ce,spanish,13 or older,"no, only English or Spanish",yes,2025-07-23_07h31.55.040,empathy_intonation_perc,2024.2.4,Win32,60.24096386,6636554a6d7e6b582fec59ce,687ed1b7e638a4cbf2f02089,6880c7ce04a2ae7077394e6d,,,,,,,,,,,,,,1,,,,,,,,,,,,,,,,,,,,,,,,,,,,,,,,,,,,,,,,,,,,,,,,,,,,,,,,,43,canela,,,,,2713.6134,2714.6579,0,0,0.5079,,0,72,72,42,1,REAL,FAKE,,,,,,,,,,,,,,,,,
,,,,,,,,,6636554a6d7e6b582fec59ce,spanish,13 or older,"no, only English or Spanish",yes,2025-07-23_07h31.55.040,empathy_intonation_perc,2024.2.4,Win32,60.24096386,6636554a6d7e6b582fec59ce,687ed1b7e638a4cbf2f02089,6880c7ce04a2ae7077394e6d,,,,,,,,,,,,,,0,,,,,,,,,,,,,,,,,,,,,,,,,,,,,,,,,,,,,,,,,,,,,,,,,,,,,,,,,23,lampera,,,,,2714.659,2715.3577,0,1,0.1571,,0,73,73,22,1,REAL,FAKE,,,,,,,,,,,,,,,,,
,,,,,,,,,6636554a6d7e6b582fec59ce,spanish,13 or older,"no, only English or Spanish",yes,2025-07-23_07h31.55.040,empathy_intonation_perc,2024.2.4,Win32,60.24096386,6636554a6d7e6b582fec59ce,687ed1b7e638a4cbf2f02089,6880c7ce04a2ae7077394e6d,,,,,,,,,,,,,,0,,,,,,,,,,,,,,,,,,,,,,,,,,,,,,,,,,,,,,,,,,,,,,,,,,,,,,,,,84,escuto,,,,,2715.3586,2715.991,0,1,0.0879,,0,74,74,83,1,REAL,FAKE,,,,,,,,,,,,,,,,,
,,,,,,,,,6636554a6d7e6b582fec59ce,spanish,13 or older,"no, only English or Spanish",yes,2025-07-23_07h31.55.040,empathy_intonation_perc,2024.2.4,Win32,60.24096386,6636554a6d7e6b582fec59ce,687ed1b7e638a4cbf2f02089,6880c7ce04a2ae7077394e6d,,,,,,,,,,,,,,1,,,,,,,,,,,,,,,,,,,,,,,,,,,,,,,,,,,,,,,,,,,,,,,,,,,,,,,,,71,polvoriento,,,,,2715.9923,2716.8745,1,1,0.3392,,0,75,75,70,1,REAL,FAKE,,,,,,,,,,,,,,,,,
,,,,,,,,,6636554a6d7e6b582fec59ce,spanish,13 or older,"no, only English or Spanish",yes,2025-07-23_07h31.55.040,empathy_intonation_perc,2024.2.4,Win32,60.24096386,6636554a6d7e6b582fec59ce,687ed1b7e638a4cbf2f02089,6880c7ce04a2ae7077394e6d,,,,,,,,,,,,,,0,,,,,,,,,,,,,,,,,,,,,,,,,,,,,,,,,,,,,,,,,,,,,,,,,,,,,,,,,42,cadallo,,,,,2716.8755,2718.6912,0,1,1.2777,,0,76,76,41,1,REAL,FAKE,,,,,,,,,,,,,,,,,
,,,,,,,,,6636554a6d7e6b582fec59ce,spanish,13 or older,"no, only English or Spanish",yes,2025-07-23_07h31.55.040,empathy_intonation_perc,2024.2.4,Win32,60.24096386,6636554a6d7e6b582fec59ce,687ed1b7e638a4cbf2f02089,6880c7ce04a2ae7077394e6d,,,,,,,,,,,,,,1,,,,,,,,,,,,,,,,,,,,,,,,,,,,,,,,,,,,,,,,,,,,,,,,,,,,,,,,,78,frondoso,,,,,2718.6923,2719.6617,0,0,0.4506,,0,77,77,77,1,REAL,FAKE,,,,,,,,,,,,,,,,,
,,,,,,,,,6636554a6d7e6b582fec59ce,spanish,13 or older,"no, only English or Spanish",yes,2025-07-23_07h31.55.040,empathy_intonation_perc,2024.2.4,Win32,60.24096386,6636554a6d7e6b582fec59ce,687ed1b7e638a4cbf2f02089,6880c7ce04a2ae7077394e6d,,,,,,,,,,,,,,1,,,,,,,,,,,,,,,,,,,,,,,,,,,,,,,,,,,,,,,,,,,,,,,,,,,,,,,,,5,zapato,,,,,2719.6627,2720.9939,1,1,0.7987,,0,78,78,4,1,REAL,FAKE,,,,,,,,,,,,,,,,,
,,,,,,,,,6636554a6d7e6b582fec59ce,spanish,13 or older,"no, only English or Spanish",yes,2025-07-23_07h31.55.040,empathy_intonation_perc,2024.2.4,Win32,60.24096386,6636554a6d7e6b582fec59ce,687ed1b7e638a4cbf2f02089,6880c7ce04a2ae7077394e6d,,,,,,,,,,,,,,1,,,,,,,,,,,,,,,,,,,,,,,,,,,,,,,,,,,,,,,,,,,,,,,,,,,,,,,,,73,hervidor,,,,,2720.995,2722.1075,0,0,0.5754,,0,79,79,72,1,REAL,FAKE,,,,,,,,,,,,,,,,,
,,,,,,,,,6636554a6d7e6b582fec59ce,spanish,13 or older,"no, only English or Spanish",yes,2025-07-23_07h31.55.040,empathy_intonation_perc,2024.2.4,Win32,60.24096386,6636554a6d7e6b582fec59ce,687ed1b7e638a4cbf2f02089,6880c7ce04a2ae7077394e6d,,,,,,,,,,,,,,1,,,,,,,,,,,,,,,,,,,,,,,,,,,,,,,,,,,,,,,,,,,,,,,,,,,,,,,,,31,pandilla,,,,,2722.1086,2722.8425,0,0,0.1919,,0,80,80,30,1,REAL,FAKE,,,,,,,,,,,,,,,,,
,,,,,,,,,6636554a6d7e6b582fec59ce,spanish,13 or older,"no, only English or Spanish",yes,2025-07-23_07h31.55.040,empathy_intonation_perc,2024.2.4,Win32,60.24096386,6636554a6d7e6b582fec59ce,687ed1b7e638a4cbf2f02089,6880c7ce04a2ae7077394e6d,,,,,,,,,,,,,,0,,,,,,,,,,,,,,,,,,,,,,,,,,,,,,,,,,,,,,,,,,,,,,,,,,,,,,,,,33,pauca,,,,,2722.8447,2723.4424,1,0,0.0814,,0,81,81,32,1,REAL,FAKE,,,,,,,,,,,,,,,,,
,,,,,,,,,6636554a6d7e6b582fec59ce,spanish,13 or older,"no, only English or Spanish",yes,2025-07-23_07h31.55.040,empathy_intonation_perc,2024.2.4,Win32,60.24096386,6636554a6d7e6b582fec59ce,687ed1b7e638a4cbf2f02089,6880c7ce04a2ae7077394e6d,,,,,,,,,,,,,,1,,,,,,,,,,,,,,,,,,,,,,,,,,,,,,,,,,,,,,,,,,,,,,,,,,,,,,,,,12,asesinato,,,,,2723.4437,2724.0446,0,0,0.0667,,0,82,82,11,1,REAL,FAKE,,,,,,,,,,,,,,,,,
,,,,,,,,,6636554a6d7e6b582fec59ce,spanish,13 or older,"no, only English or Spanish",yes,2025-07-23_07h31.55.040,empathy_intonation_perc,2024.2.4,Win32,60.24096386,6636554a6d7e6b582fec59ce,687ed1b7e638a4cbf2f02089,6880c7ce04a2ae7077394e6d,,,,,,,,,,,,,,1,,,,,,,,,,,,,,,,,,,,,,,,,,,,,,,,,,,,,,,,,,,,,,,,,,,,,,,,,22,lacayo,,,,,2724.046,2724.6279,0,0,0.0504,,0,83,83,21,1,REAL,FAKE,,,,,,,,,,,,,,,,,
,,,,,,,,,6636554a6d7e6b582fec59ce,spanish,13 or older,"no, only English or Spanish",yes,2025-07-23_07h31.55.040,empathy_intonation_perc,2024.2.4,Win32,60.24096386,6636554a6d7e6b582fec59ce,687ed1b7e638a4cbf2f02089,6880c7ce04a2ae7077394e6d,,,,,,,,,,,,,,1,,,,,,,,,,,,,,,,,,,,,,,,,,,,,,,,,,,,,,,,,,,,,,,,,,,,,,,,,40,alfombra,,,,,2724.629,2725.2775,1,1,0.1164,,0,84,84,39,1,REAL,FAKE,,,,,,,,,,,,,,,,,
,,,,,,,,,6636554a6d7e6b582fec59ce,spanish,13 or older,"no, only English or Spanish",yes,2025-07-23_07h31.55.040,empathy_intonation_perc,2024.2.4,Win32,60.24096386,6636554a6d7e6b582fec59ce,687ed1b7e638a4cbf2f02089,6880c7ce04a2ae7077394e6d,,,,,,,,,,,,,,1,,,,,,,,,,,,,,,,,,,,,,,,,,,,,,,,,,,,,,,,,,,,,,,,,,,,,,,,,51,candado,,,,,2725.2785,2726.4745,0,0,0.6512,,0,85,85,50,1,REAL,FAKE,,,,,,,,,,,,,,,,,
,,,,,,,,,6636554a6d7e6b582fec59ce,spanish,13 or older,"no, only English or Spanish",yes,2025-07-23_07h31.55.040,empathy_intonation_perc,2024.2.4,Win32,60.24096386,6636554a6d7e6b582fec59ce,687ed1b7e638a4cbf2f02089,6880c7ce04a2ae7077394e6d,,,,,,,,,,,,,,0,,,,,,,,,,,,,,,,,,,,,,,,,,,,,,,,,,,,,,,,,,,,,,,,,,,,,,,,,16,abracer,,,,,2726.4758,2727.1076,1,0,0.0917,,0,86,86,15,1,REAL,FAKE,,,,,,,,,,,,,,,,,
,,,,,,,,,6636554a6d7e6b582fec59ce,spanish,13 or older,"no, only English or Spanish",yes,2025-07-23_07h31.55.040,empathy_intonation_perc,2024.2.4,Win32,60.24096386,6636554a6d7e6b582fec59ce,687ed1b7e638a4cbf2f02089,6880c7ce04a2ae7077394e6d,,,,,,,,,,,,,,0,,,,,,,,,,,,,,,,,,,,,,,,,,,,,,,,,,,,,,,,,,,,,,,,,,,,,,,,,92,click the 0 key.,,,,,2727.1087,2727.9942,0,1,0.3496,,0,87,87,91,1,REAL,FAKE,,,,,,,,,,,,,,,,,
,,,,,,,,,6636554a6d7e6b582fec59ce,spanish,13 or older,"no, only English or Spanish",yes,2025-07-23_07h31.55.040,empathy_intonation_perc,2024.2.4,Win32,60.24096386,6636554a6d7e6b582fec59ce,687ed1b7e638a4cbf2f02089,6880c7ce04a2ae7077394e6d,,,,,,,,,,,,,,1,,,,,,,,,,,,,,,,,,,,,,,,,,,,,,,,,,,,,,,,,,,,,,,,,,,,,,,,,34,aviso,,,,,2727.9954,2730.7575,0,0,2.2294,,0,88,88,33,1,REAL,FAKE,,,,,,,,,,,,,,,,,
,,,,,,,,,6636554a6d7e6b582fec59ce,spanish,13 or older,"no, only English or Spanish",yes,2025-07-23_07h31.55.040,empathy_intonation_perc,2024.2.4,Win32,60.24096386,6636554a6d7e6b582fec59ce,687ed1b7e638a4cbf2f02089,6880c7ce04a2ae7077394e6d,,,,,,,,,,,,,,1,,,,,,,,,,,,,,,,,,,,,,,,,,,,,,,,,,,,,,,,,,,,,,,,,,,,,,,,,49,ganar,,,,,2730.7589,2732.4572,1,1,1.1516,,0,89,89,48,1,REAL,FAKE,,,,,,,,,,,,,,,,,
,,,,,,,,,6636554a6d7e6b582fec59ce,spanish,13 or older,"no, only English or Spanish",yes,2025-07-23_07h31.55.040,empathy_intonation_perc,2024.2.4,Win32,60.24096386,6636554a6d7e6b582fec59ce,687ed1b7e638a4cbf2f02089,6880c7ce04a2ae7077394e6d,,,,,,,,,,,,,,1,,,,,,,,,,,,,,,,,,,,,,,,,,,,,,,,,,,,,,,,,,,,,,,,,,,,,,,,,81,pozo,,,,,2732.4584,2734.5444,0,0,1.5502,,0,90,90,80,1,REAL,FAKE,,,,,,,,,,,,,,,,,
,,,,,,,,,6636554a6d7e6b582fec59ce,spanish,13 or older,"no, only English or Spanish",yes,2025-07-23_07h31.55.040,empathy_intonation_perc,2024.2.4,Win32,60.24096386,6636554a6d7e6b582fec59ce,687ed1b7e638a4cbf2f02089,6880c7ce04a2ae7077394e6d,,,,,,,,,,,,,,1,,,,,,,,,,,,,,,,,,,,,,,,,,,,,,,,,,,,,,,,,,,,,,,,,,,,,,,,,61,seda,,,,,2734.5452,2735.8907,1,1,0.812,,0,91,91,60,1,REAL,FAKE,,,,,,,,,,,,,,,,,
,,,,,,,,,6636554a6d7e6b582fec59ce,spanish,13 or older,"no, only English or Spanish",yes,2025-07-23_07h31.55.040,empathy_intonation_perc,2024.2.4,Win32,60.24096386,6636554a6d7e6b582fec59ce,687ed1b7e638a4cbf2f02089,6880c7ce04a2ae7077394e6d,,,,,,,,,,,,,,,,,,,,,,,,,,,,,,,,,,,,,,,,,,,,,,,,,,,,,,,,,,,,,,,,,,,,,,,,,,,,,,,,,,,,,,,,,,2735.8939,2741.8956,,,,,,,,,,,,,,,
,,,,,,,,,6636554a6d7e6b582fec59ce,spanish,13 or older,"no, only English or Spanish",yes,2025-07-23_07h31.55.040,empathy_intonation_perc,2024.2.4,Win32,60.24096386,6636554a6d7e6b582fec59ce,687ed1b7e638a4cbf2f02089,6880c7ce04a2ae7077394e6d,,,,,,,,,,,,,1,,,,,,,,,,,,,,,,,,,,,,,,,,,,,,,,,,,,,,,,,,,,,,,,,,,,,,,,,,,,,,,,,,,,,,,,,,,,,,,2741.9082,2748.7746,slightly disagree,0,0,0,0,1,I can easily tell if someone else wants to enter a conversation.,1,0,1,0,,
,,,,,,,,,6636554a6d7e6b582fec59ce,spanish,13 or older,"no, only English or Spanish",yes,2025-07-23_07h31.55.040,empathy_intonation_perc,2024.2.4,Win32,60.24096386,6636554a6d7e6b582fec59ce,687ed1b7e638a4cbf2f02089,6880c7ce04a2ae7077394e6d,,,,,,,,,,,,,2,,,,,,,,,,,,,,,,,,,,,,,,,,,,,,,,,,,,,,,,,,,,,,,,,,,,,,,,,,,,,,,,,,,,,,,,,,,,,,,2748.7762,2751.4894,strongly agree,0,1,1,1,1,I prefer animals to humans.,0,1,0,0,,
,,,,,,,,,6636554a6d7e6b582fec59ce,spanish,13 or older,"no, only English or Spanish",yes,2025-07-23_07h31.55.040,empathy_intonation_perc,2024.2.4,Win32,60.24096386,6636554a6d7e6b582fec59ce,687ed1b7e638a4cbf2f02089,6880c7ce04a2ae7077394e6d,,,,,,,,,,,,,3,,,,,,,,,,,,,,,,,,,,,,,,,,,,,,,,,,,,,,,,,,,,,,,,,,,,,,,,,,,,,,,,,,,,,,,,,,,,,,,2751.4925,2753.9397,strongly disagree,0,2,2,2,1,I try to keep up with the current trends and fashions.,0,1,0,0,,
,,,,,,,,,6636554a6d7e6b582fec59ce,spanish,13 or older,"no, only English or Spanish",yes,2025-07-23_07h31.55.040,empathy_intonation_perc,2024.2.4,Win32,60.24096386,6636554a6d7e6b582fec59ce,687ed1b7e638a4cbf2f02089,6880c7ce04a2ae7077394e6d,,,,,,,,,,,,,4,,,,,,,,,,,,,,,,,,,,,,,,,,,,,,,,,,,,,,,,,,,,,,,,,,,,,,,,,,,,,,,,,,,,,,,,,,,,,,,2753.942,2760.1726,slightly disagree,0,3,3,3,1,"I find it difficult to explain to others things that I understand easily,   when they don't understand it first time.",1,0,0,1,,
,,,,,,,,,6636554a6d7e6b582fec59ce,spanish,13 or older,"no, only English or Spanish",yes,2025-07-23_07h31.55.040,empathy_intonation_perc,2024.2.4,Win32,60.24096386,6636554a6d7e6b582fec59ce,687ed1b7e638a4cbf2f02089,6880c7ce04a2ae7077394e6d,,,,,,,,,,,,,5,,,,,,,,,,,,,,,,,,,,,,,,,,,,,,,,,,,,,,,,,,,,,,,,,,,,,,,,,,,,,,,,,,,,,,,,,,,,,,,2760.1748,2763.4566,strongly agree,0,4,4,4,1,I dream most nights.,0,1,0,0,,
,,,,,,,,,6636554a6d7e6b582fec59ce,spanish,13 or older,"no, only English or Spanish",yes,2025-07-23_07h31.55.040,empathy_intonation_perc,2024.2.4,Win32,60.24096386,6636554a6d7e6b582fec59ce,687ed1b7e638a4cbf2f02089,6880c7ce04a2ae7077394e6d,,,,,,,,,,,,,6,,,,,,,,,,,,,,,,,,,,,,,,,,,,,,,,,,,,,,,,,,,,,,,,,,,,,,,,,,,,,,,,,,,,,,,,,,,,,,,2763.4581,2764.7733,strongly agree,0,5,5,5,1,I really enjoy caring for other people.,1,0,1,0,,
,,,,,,,,,6636554a6d7e6b582fec59ce,spanish,13 or older,"no, only English or Spanish",yes,2025-07-23_07h31.55.040,empathy_intonation_perc,2024.2.4,Win32,60.24096386,6636554a6d7e6b582fec59ce,687ed1b7e638a4cbf2f02089,6880c7ce04a2ae7077394e6d,,,,,,,,,,,,,7,,,,,,,,,,,,,,,,,,,,,,,,,,,,,,,,,,,,,,,,,,,,,,,,,,,,,,,,,,,,,,,,,,,,,,,,,,,,,,,2764.7752,2766.6724,strongly agree,0,6,6,6,1,I try to solve my own problems rather than discussing them with others.,0,1,0,0,,
,,,,,,,,,6636554a6d7e6b582fec59ce,spanish,13 or older,"no, only English or Spanish",yes,2025-07-23_07h31.55.040,empathy_intonation_perc,2024.2.4,Win32,60.24096386,6636554a6d7e6b582fec59ce,687ed1b7e638a4cbf2f02089,6880c7ce04a2ae7077394e6d,,,,,,,,,,,,,8,,,,,,,,,,,,,,,,,,,,,,,,,,,,,,,,,,,,,,,,,,,,,,,,,,,,,,,,,,,,,,,,,,,,,,,,,,,,,,,2766.6741,2769.2054,strongly agree,0,7,7,7,1,I find it hard to know what to do in a social situation.,1,0,0,1,,
