instructions_exposure.started,instructions_exposure.stopped,instructions_exposure_loop.thisRepN,instructions_exposure_loop.thisTrialN,instructions_exposure_loop.thisN,instructions_exposure_loop.thisIndex,instructions_exposure_loop.ran,instructions_text,continue_text,participant_id,"What variety of Spanish are you most familiar with? (e.g., Peruvian, Spanish, Mexican)",At what age did you begin learning Spanish?,Are you proficient in any languages other than English/Spanish?,"Are you familiar with Caribbean (e.g., Caribbean, Puerto Rican) or Galician Spanish?",date,expName,psychopyVersion,OS,frameRate,id,study_id,session,trial_exposure.started,trial_exposure.stopped,key_resp_exposure.keys,key_resp_exposure.corr,key_resp_exposure.rt,key_resp_exposure.duration,key_resp.keys,exposure_loop.thisRepN,exposure_loop.thisTrialN,exposure_loop.thisN,exposure_loop.thisIndex,exposure_loop.ran,item_num,correct_response,question,path,duration,instructions_2afc.started,instructions_2afc.stopped,instructions_2afc_loop.thisRepN,instructions_2afc_loop.thisTrialN,instructions_2afc_loop.thisN,instructions_2afc_loop.thisIndex,instructions_2afc_loop.ran,practice_2afc.started,practice_2afc.stopped,key_resp_2afc_practice.keys,key_resp_2afc_practice.corr,key_resp_2afc_practice.rt,key_resp_2afc_practice.duration,trials_2afc_practice_loop.thisRepN,trials_2afc_practice_loop.thisTrialN,trials_2afc_practice_loop.thisN,trials_2afc_practice_loop.thisIndex,trials_2afc_practice_loop.ran,check_2afc.started,check_2afc.stopped,trial_2afc.started,trial_2afc.stopped,key_resp_2afc_trial.keys,key_resp_2afc_trial.corr,key_resp_2afc_trial.rt,key_resp_2afc_trial.duration,trials_2afc_loop.thisRepN,trials_2afc_loop.thisTrialN,trials_2afc_loop.thisN,trials_2afc_loop.thisIndex,trials_2afc_loop.ran,target,variety,instructions_lextale.started,instructions_lextale.stopped,instructions_lextale_loop.thisRepN,instructions_lextale_loop.thisTrialN,instructions_lextale_loop.thisN,instructions_lextale_loop.thisIndex,instructions_lextale_loop.ran,practice_lextale.started,practice_lextale.stopped,key_resp_lextale_practice.keys,key_resp_lextale_practice.corr,key_resp_lextale_practice.rt,key_resp_lextale_practice.duration,practice_feedback_lextale.started,practice_feedback_lextale.stopped,trials_lextale_practice_loop.thisRepN,trials_lextale_practice_loop.thisTrialN,trials_lextale_practice_loop.thisN,trials_lextale_practice_loop.thisIndex,trials_lextale_practice_loop.ran,stim,word,prac_button_real,prac_button_false,check_lextale.started,check_lextale.stopped,trial_lextale.started,trial_lextale.stopped,key_resp_lextale_trial.keys,key_resp_lextale_trial.corr,key_resp_lextale_trial.rt,key_resp_lextale_trial.duration,trials_lextale_loop.thisRepN,trials_lextale_loop.thisTrialN,trials_lextale_loop.thisN,trials_lextale_loop.thisIndex,trials_lextale_loop.ran,button_real,button_false,instructions_eq.started,instructions_eq.stopped,trial_eq.started,trial_eq.stopped,slider_eq_trial.response,trials_eq_loop.thisRepN,trials_eq_loop.thisTrialN,trials_eq_loop.thisN,trials_eq_loop.thisIndex,trials_eq_loop.ran,item,is_test_item,is_distractor,is_agree_score,is_disagree_score,end_exp.started,end_exp.stopped
0.032,3.3996,0,0,0,0,1,"In the following task, you are going to hear a series of conversations.", (press the space bar to continue),663765ad2bdf17e0c60a3637,None,13 or older,"no, only English or Spanish",no,2025-07-23_06h23.10.307,empathy_intonation_perc,2024.2.4,Win32,59.88023952,663765ad2bdf17e0c60a3637,687ed1b7e638a4cbf2f02089,6880b7b5fa0ff133036931cb,,,,,,,,,,,,,,,,,,,,,,,,,,,,,,,,,,,,,,,,,,,,,,,,,,,,,,,,,,,,,,,,,,,,,,,,,,,,,,,,,,,,,,,,,,,,,,,,,,,,,,,,,,
3.4004,6.9649,0,1,1,1,1,It is okay if you don't not 100% understand them!, (press the space bar to continue),663765ad2bdf17e0c60a3637,None,13 or older,"no, only English or Spanish",no,2025-07-23_06h23.10.307,empathy_intonation_perc,2024.2.4,Win32,59.88023952,663765ad2bdf17e0c60a3637,687ed1b7e638a4cbf2f02089,6880b7b5fa0ff133036931cb,,,,,,,,,,,,,,,,,,,,,,,,,,,,,,,,,,,,,,,,,,,,,,,,,,,,,,,,,,,,,,,,,,,,,,,,,,,,,,,,,,,,,,,,,,,,,,,,,,,,,,,,,,
6.9687,9.2471,0,2,2,2,1,"After, you will read a sentence about the conversation and decide if it's true or false.", (press the space bar to continue),663765ad2bdf17e0c60a3637,None,13 or older,"no, only English or Spanish",no,2025-07-23_06h23.10.307,empathy_intonation_perc,2024.2.4,Win32,59.88023952,663765ad2bdf17e0c60a3637,687ed1b7e638a4cbf2f02089,6880b7b5fa0ff133036931cb,,,,,,,,,,,,,,,,,,,,,,,,,,,,,,,,,,,,,,,,,,,,,,,,,,,,,,,,,,,,,,,,,,,,,,,,,,,,,,,,,,,,,,,,,,,,,,,,,,,,,,,,,,
9.2508,12.663,0,3,3,3,1,"If it's true, press '1' (True) and if it's false press '0' (False).", (press the space bar to continue),663765ad2bdf17e0c60a3637,None,13 or older,"no, only English or Spanish",no,2025-07-23_06h23.10.307,empathy_intonation_perc,2024.2.4,Win32,59.88023952,663765ad2bdf17e0c60a3637,687ed1b7e638a4cbf2f02089,6880b7b5fa0ff133036931cb,,,,,,,,,,,,,,,,,,,,,,,,,,,,,,,,,,,,,,,,,,,,,,,,,,,,,,,,,,,,,,,,,,,,,,,,,,,,,,,,,,,,,,,,,,,,,,,,,,,,,,,,,,
,,,,,,,,,663765ad2bdf17e0c60a3637,None,13 or older,"no, only English or Spanish",no,2025-07-23_06h23.10.307,empathy_intonation_perc,2024.2.4,Win32,59.88023952,663765ad2bdf17e0c60a3637,687ed1b7e638a4cbf2f02089,6880b7b5fa0ff133036931cb,12.6792,64.446,1,1,4.7075,,,0,0,0,0,1,1,1,The son asked the mom if Aunt Marina is okay.,./stim/exposure_wavs/ga_stimuli_convo.wav,47,,,,,,,,,,,,,,,,,,,,,,,,,,,,,,,,,,,,,,,,,,,,,,,,,,,,,,,,,,,,,,,,,,,,,,,,,,,,,,,,,,,,,,,,,
,,,,,,,,,663765ad2bdf17e0c60a3637,None,13 or older,"no, only English or Spanish",no,2025-07-23_06h23.10.307,empathy_intonation_perc,2024.2.4,Win32,59.88023952,663765ad2bdf17e0c60a3637,687ed1b7e638a4cbf2f02089,6880b7b5fa0ff133036931cb,64.4491,105.6816,0,1,5.201,,,0,1,1,2,1,3,0,The mom already has rice.,./stim/exposure_wavs/pr_stimuli_convo.wav,36,,,,,,,,,,,,,,,,,,,,,,,,,,,,,,,,,,,,,,,,,,,,,,,,,,,,,,,,,,,,,,,,,,,,,,,,,,,,,,,,,,,,,,,,,
,,,,,,,,,663765ad2bdf17e0c60a3637,None,13 or older,"no, only English or Spanish",no,2025-07-23_06h23.10.307,empathy_intonation_perc,2024.2.4,Win32,59.88023952,663765ad2bdf17e0c60a3637,687ed1b7e638a4cbf2f02089,6880b7b5fa0ff133036931cb,105.6884,170.3595,0,0,4.6394,,,0,2,2,1,1,2,1,The mom asked the daughter if she already went to the supermarket.,./stim/exposure_wavs/dr_stimuli_convo.wav,60,,,,,,,,,,,,,,,,,,,,,,,,,,,,,,,,,,,,,,,,,,,,,,,,,,,,,,,,,,,,,,,,,,,,,,,,,,,,,,,,,,,,,,,,,
,,,,,,,"In the following task you are going to hear a series of utterances. 

  You will decide if the utterances sound like questions or not using your keyboard.", (press the spacebar to continue),663765ad2bdf17e0c60a3637,None,13 or older,"no, only English or Spanish",no,2025-07-23_06h23.10.307,empathy_intonation_perc,2024.2.4,Win32,59.88023952,663765ad2bdf17e0c60a3637,687ed1b7e638a4cbf2f02089,6880b7b5fa0ff133036931cb,,,,,,,,,,,,,,,,,,170.3692,179.324,0,0,0,0,1,,,,,,,,,,,,,,,,,,,,,,,,,,,,,,,,,,,,,,,,,,,,,,,,,,,,,,,,,,,,,,,,,,,,,,,,,,,,,,,,,,
,,,,,,,"If you believe the utterance is a question, type '1' (for 'yes') and if you do not 
  believe it is a question type '0' (for 'no').

  Let's practice a bit...", (press the spacebar to continue),663765ad2bdf17e0c60a3637,None,13 or older,"no, only English or Spanish",no,2025-07-23_06h23.10.307,empathy_intonation_perc,2024.2.4,Win32,59.88023952,663765ad2bdf17e0c60a3637,687ed1b7e638a4cbf2f02089,6880b7b5fa0ff133036931cb,,,,,,,,,,,,,,,,,,179.3282,185.9379,0,1,1,1,1,,,,,,,,,,,,,,,,,,,,,,,,,,,,,,,,,,,,,,,,,,,,,,,,,,,,,,,,,,,,,,,,,,,,,,,,,,,,,,,,,,
,,,,,,,,,663765ad2bdf17e0c60a3637,None,13 or older,"no, only English or Spanish",no,2025-07-23_06h23.10.307,empathy_intonation_perc,2024.2.4,Win32,59.88023952,663765ad2bdf17e0c60a3637,687ed1b7e638a4cbf2f02089,6880b7b5fa0ff133036931cb,,,,,,,,,,,,,,0,,./stim/wavs/peruvian_statement_filler_El-nino-habla-con-su-madre.wav,,,,,,,,,185.948,189.453,0,1,2.9829,,0,0,0,6,1,,,,,,,,,,,,,,,,,,,,,,,,,,,,,,,,,,,,,,,,,,,,,,,,,,,,,,,,,,,,,,,,,,,,,,,
,,,,,,,,,663765ad2bdf17e0c60a3637,None,13 or older,"no, only English or Spanish",no,2025-07-23_06h23.10.307,empathy_intonation_perc,2024.2.4,Win32,59.88023952,663765ad2bdf17e0c60a3637,687ed1b7e638a4cbf2f02089,6880b7b5fa0ff133036931cb,,,,,,,,,,,,,,0,,./stim/wavs/andalusian_statement_filler_Alberto-nunca-se-afeita.wav,,,,,,,,,189.4538,191.8688,0,1,1.8827,,0,1,1,5,1,,,,,,,,,,,,,,,,,,,,,,,,,,,,,,,,,,,,,,,,,,,,,,,,,,,,,,,,,,,,,,,,,,,,,,,
,,,,,,,,,663765ad2bdf17e0c60a3637,None,13 or older,"no, only English or Spanish",no,2025-07-23_06h23.10.307,empathy_intonation_perc,2024.2.4,Win32,59.88023952,663765ad2bdf17e0c60a3637,687ed1b7e638a4cbf2f02089,6880b7b5fa0ff133036931cb,,,,,,,,,,,,,,1,,./stim/wavs/castilian_question_filler_Mi-esposo-conoce-al-chico.wav,,,,,,,,,191.8697,194.4513,0,0,2.0506,,0,2,2,0,1,,,,,,,,,,,,,,,,,,,,,,,,,,,,,,,,,,,,,,,,,,,,,,,,,,,,,,,,,,,,,,,,,,,,,,,
,,,,,,,,,663765ad2bdf17e0c60a3637,None,13 or older,"no, only English or Spanish",no,2025-07-23_06h23.10.307,empathy_intonation_perc,2024.2.4,Win32,59.88023952,663765ad2bdf17e0c60a3637,687ed1b7e638a4cbf2f02089,6880b7b5fa0ff133036931cb,,,,,,,,,,,,,,0,,./stim/wavs/puertorican_statement_filler_La-nina-pinta-con-su-amiga.wav,,,,,,,,,194.4518,197.2172,0,1,2.2362,,0,3,3,7,1,,,,,,,,,,,,,,,,,,,,,,,,,,,,,,,,,,,,,,,,,,,,,,,,,,,,,,,,,,,,,,,,,,,,,,,
,,,,,,,,,663765ad2bdf17e0c60a3637,None,13 or older,"no, only English or Spanish",no,2025-07-23_06h23.10.307,empathy_intonation_perc,2024.2.4,Win32,59.88023952,663765ad2bdf17e0c60a3637,687ed1b7e638a4cbf2f02089,6880b7b5fa0ff133036931cb,,,,,,,,,,,,,,1,,./stim/wavs/chilean_question_filler_Mi-padre-cantaba-bien.wav,,,,,,,,,197.2185,199.3163,1,1,1.5651,,0,4,4,2,1,,,,,,,,,,,,,,,,,,,,,,,,,,,,,,,,,,,,,,,,,,,,,,,,,,,,,,,,,,,,,,,,,,,,,,,
,,,,,,,,,663765ad2bdf17e0c60a3637,None,13 or older,"no, only English or Spanish",no,2025-07-23_06h23.10.307,empathy_intonation_perc,2024.2.4,Win32,59.88023952,663765ad2bdf17e0c60a3637,687ed1b7e638a4cbf2f02089,6880b7b5fa0ff133036931cb,,,,,,,,,,,,,,1,,./stim/wavs/mexican_question_filler_Felipe-no-tiene-contrasena.wav,,,,,,,,,199.3173,201.7488,1,1,1.9095,,0,5,5,3,1,,,,,,,,,,,,,,,,,,,,,,,,,,,,,,,,,,,,,,,,,,,,,,,,,,,,,,,,,,,,,,,,,,,,,,,
,,,,,,,,,663765ad2bdf17e0c60a3637,None,13 or older,"no, only English or Spanish",no,2025-07-23_06h23.10.307,empathy_intonation_perc,2024.2.4,Win32,59.88023952,663765ad2bdf17e0c60a3637,687ed1b7e638a4cbf2f02089,6880b7b5fa0ff133036931cb,,,,,,,,,,,,,,0,,./stim/wavs/cuban_statement_filler_Cocinabas-por-la-noche.wav,,,,,,,,,201.7498,204.1648,1,0,1.8827,,0,6,6,4,1,,,,,,,,,,,,,,,,,,,,,,,,,,,,,,,,,,,,,,,,,,,,,,,,,,,,,,,,,,,,,,,,,,,,,,,
,,,,,,,,,663765ad2bdf17e0c60a3637,None,13 or older,"no, only English or Spanish",no,2025-07-23_06h23.10.307,empathy_intonation_perc,2024.2.4,Win32,59.88023952,663765ad2bdf17e0c60a3637,687ed1b7e638a4cbf2f02089,6880b7b5fa0ff133036931cb,,,,,,,,,,,,,,1,,./stim/wavs/argentine_question_filler_Mi-vecino-habla-mucho.wav,,,,,,,,,204.1656,206.2807,1,1,1.5903,,0,7,7,1,1,,,,,,,,,,,,,,,,,,,,,,,,,,,,,,,,,,,,,,,,,,,,,,,,,,,,,,,,,,,,,,,,,,,,,,,
,,,,,,,,,663765ad2bdf17e0c60a3637,None,13 or older,"no, only English or Spanish",no,2025-07-23_06h23.10.307,empathy_intonation_perc,2024.2.4,Win32,59.88023952,663765ad2bdf17e0c60a3637,687ed1b7e638a4cbf2f02089,6880b7b5fa0ff133036931cb,,,,,,,,,,,,,,,,,,,,,,,,,,,,,,,,,,,,206.2812,209.0295,,,,,,,,,,,,,,,,,,,,,,,,,,,,,,,,,,,,,,,,,,,,,,,,,,,,,,,,,,,,,,,,,,,,,
,,,,,,,,,663765ad2bdf17e0c60a3637,None,13 or older,"no, only English or Spanish",no,2025-07-23_06h23.10.307,empathy_intonation_perc,2024.2.4,Win32,59.88023952,663765ad2bdf17e0c60a3637,687ed1b7e638a4cbf2f02089,6880b7b5fa0ff133036931cb,,,,,,,,,,,,,70,0,,./stim/wavs/castilian_mismatch_declarative-broad-focus_La-maestra-vive-en-Paris.wav,,,,,,,,,,,,,,,,,,,,,,209.038,211.4124,1,0,1.8527,,0,0,0,69,1,0,castilian,,,,,,,,,,,,,,,,,,,,,,,,,,,,,,,,,,,,,,,,,,,,,,,,,,,,,,,,
,,,,,,,,,663765ad2bdf17e0c60a3637,None,13 or older,"no, only English or Spanish",no,2025-07-23_06h23.10.307,empathy_intonation_perc,2024.2.4,Win32,59.88023952,663765ad2bdf17e0c60a3637,687ed1b7e638a4cbf2f02089,6880b7b5fa0ff133036931cb,,,,,,,,,,,,,25,1,,./stim/wavs/castilian_mismatch_interrogative-total-yn_La-maestra-vive-en-Paris.wav,,,,,,,,,,,,,,,,,,,,,,211.4131,213.5945,1,1,1.6539,,0,1,1,24,1,0,castilian,,,,,,,,,,,,,,,,,,,,,,,,,,,,,,,,,,,,,,,,,,,,,,,,,,,,,,,,
,,,,,,,,,663765ad2bdf17e0c60a3637,None,13 or older,"no, only English or Spanish",no,2025-07-23_06h23.10.307,empathy_intonation_perc,2024.2.4,Win32,59.88023952,663765ad2bdf17e0c60a3637,687ed1b7e638a4cbf2f02089,6880b7b5fa0ff133036931cb,,,,,,,,,,,,,74,0,,./stim/wavs/cuban_mismatch_declarative-broad-focus_El-bebe-comia-muy-bien.wav,,,,,,,,,,,,,,,,,,,,,,213.595,215.7963,0,1,1.68,,0,2,2,73,1,0,cuban,,,,,,,,,,,,,,,,,,,,,,,,,,,,,,,,,,,,,,,,,,,,,,,,,,,,,,,,
,,,,,,,,,663765ad2bdf17e0c60a3637,None,13 or older,"no, only English or Spanish",no,2025-07-23_06h23.10.307,empathy_intonation_perc,2024.2.4,Win32,59.88023952,663765ad2bdf17e0c60a3637,687ed1b7e638a4cbf2f02089,6880b7b5fa0ff133036931cb,,,,,,,,,,,,,32,1,,./stim/wavs/cuban_mismatch_interrogative-total-yn_Mi-madre-come-la-fruta.wav,,,,,,,,,,,,,,,,,,,,,,215.7967,218.0597,0,0,1.7306,,0,3,3,31,1,1,cuban,,,,,,,,,,,,,,,,,,,,,,,,,,,,,,,,,,,,,,,,,,,,,,,,,,,,,,,,
,,,,,,,,,663765ad2bdf17e0c60a3637,None,13 or older,"no, only English or Spanish",no,2025-07-23_06h23.10.307,empathy_intonation_perc,2024.2.4,Win32,59.88023952,663765ad2bdf17e0c60a3637,687ed1b7e638a4cbf2f02089,6880b7b5fa0ff133036931cb,,,,,,,,,,,,,78,0,,./stim/wavs/cuban_mismatch_declarative-broad-focus_Mi-tia-odia-la-lluvia.wav,,,,,,,,,,,,,,,,,,,,,,218.0602,220.4091,1,0,1.8218,,0,4,4,77,1,0,cuban,,,,,,,,,,,,,,,,,,,,,,,,,,,,,,,,,,,,,,,,,,,,,,,,,,,,,,,,
,,,,,,,,,663765ad2bdf17e0c60a3637,None,13 or older,"no, only English or Spanish",no,2025-07-23_06h23.10.307,empathy_intonation_perc,2024.2.4,Win32,59.88023952,663765ad2bdf17e0c60a3637,687ed1b7e638a4cbf2f02089,6880b7b5fa0ff133036931cb,,,,,,,,,,,,,54,0,,./stim/wavs/cuban_match_declarative-broad-focus_Maria-bebe-el-vino.wav,,,,,,,,,,,,,,,,,,,,,,220.4096,222.6248,0,1,1.6867,,0,5,5,53,1,0,cuban,,,,,,,,,,,,,,,,,,,,,,,,,,,,,,,,,,,,,,,,,,,,,,,,,,,,,,,,
,,,,,,,,,663765ad2bdf17e0c60a3637,None,13 or older,"no, only English or Spanish",no,2025-07-23_06h23.10.307,empathy_intonation_perc,2024.2.4,Win32,59.88023952,663765ad2bdf17e0c60a3637,687ed1b7e638a4cbf2f02089,6880b7b5fa0ff133036931cb,,,,,,,,,,,,,4,1,,./stim/wavs/castilian_match_interrogative-total-yn_Maria-bebe-el-vino.wav,,,,,,,,,,,,,,,,,,,,,,222.6253,225.1744,1,1,2.0277,,0,6,6,3,1,0,castilian,,,,,,,,,,,,,,,,,,,,,,,,,,,,,,,,,,,,,,,,,,,,,,,,,,,,,,,,
,,,,,,,,,663765ad2bdf17e0c60a3637,None,13 or older,"no, only English or Spanish",no,2025-07-23_06h23.10.307,empathy_intonation_perc,2024.2.4,Win32,59.88023952,663765ad2bdf17e0c60a3637,687ed1b7e638a4cbf2f02089,6880b7b5fa0ff133036931cb,,,,,,,,,,,,,68,0,,./stim/wavs/puertorican_match_declarative-broad-focus_Maria-bebe-el-vino.wav,,,,,,,,,,,,,,,,,,,,,,225.1753,227.5401,1,0,1.834,,0,7,7,67,1,0,puertorican,,,,,,,,,,,,,,,,,,,,,,,,,,,,,,,,,,,,,,,,,,,,,,,,,,,,,,,,
,,,,,,,,,663765ad2bdf17e0c60a3637,None,13 or older,"no, only English or Spanish",no,2025-07-23_06h23.10.307,empathy_intonation_perc,2024.2.4,Win32,59.88023952,663765ad2bdf17e0c60a3637,687ed1b7e638a4cbf2f02089,6880b7b5fa0ff133036931cb,,,,,,,,,,,,,34,1,,./stim/wavs/cuban_mismatch_interrogative-total-yn_Mi-tia-odia-la-lluvia.wav,,,,,,,,,,,,,,,,,,,,,,227.5409,229.7561,0,0,1.6936,,0,8,8,33,1,1,cuban,,,,,,,,,,,,,,,,,,,,,,,,,,,,,,,,,,,,,,,,,,,,,,,,,,,,,,,,
,,,,,,,,,663765ad2bdf17e0c60a3637,None,13 or older,"no, only English or Spanish",no,2025-07-23_06h23.10.307,empathy_intonation_perc,2024.2.4,Win32,59.88023952,663765ad2bdf17e0c60a3637,687ed1b7e638a4cbf2f02089,6880b7b5fa0ff133036931cb,,,,,,,,,,,,,9,1,,./stim/wavs/cuban_match_interrogative-total-yn_Manuela-vende-el-carro.wav,,,,,,,,,,,,,,,,,,,,,,229.7568,231.9224,0,0,1.6405,,0,9,9,8,1,1,cuban,,,,,,,,,,,,,,,,,,,,,,,,,,,,,,,,,,,,,,,,,,,,,,,,,,,,,,,,
,,,,,,,,,663765ad2bdf17e0c60a3637,None,13 or older,"no, only English or Spanish",no,2025-07-23_06h23.10.307,empathy_intonation_perc,2024.2.4,Win32,59.88023952,663765ad2bdf17e0c60a3637,687ed1b7e638a4cbf2f02089,6880b7b5fa0ff133036931cb,,,,,,,,,,,,,13,1,,./stim/wavs/mexican_match_interrogative-total-yn_Ana-lleva-el-abrigo.wav,,,,,,,,,,,,,,,,,,,,,,231.9235,233.9044,0,0,1.4481,,0,10,10,12,1,0,mexican,,,,,,,,,,,,,,,,,,,,,,,,,,,,,,,,,,,,,,,,,,,,,,,,,,,,,,,,
,,,,,,,,,663765ad2bdf17e0c60a3637,None,13 or older,"no, only English or Spanish",no,2025-07-23_06h23.10.307,empathy_intonation_perc,2024.2.4,Win32,59.88023952,663765ad2bdf17e0c60a3637,687ed1b7e638a4cbf2f02089,6880b7b5fa0ff133036931cb,,,,,,,,,,,,,48,0,,./stim/wavs/castilian_match_declarative-broad-focus_Maria-bebe-el-vino.wav,,,,,,,,,,,,,,,,,,,,,,233.9047,236.4373,0,1,2.0032,,0,11,11,47,1,0,castilian,,,,,,,,,,,,,,,,,,,,,,,,,,,,,,,,,,,,,,,,,,,,,,,,,,,,,,,,
,,,,,,,,,663765ad2bdf17e0c60a3637,None,13 or older,"no, only English or Spanish",no,2025-07-23_06h23.10.307,empathy_intonation_perc,2024.2.4,Win32,59.88023952,663765ad2bdf17e0c60a3637,687ed1b7e638a4cbf2f02089,6880b7b5fa0ff133036931cb,,,,,,,,,,,,,39,1,,./stim/wavs/mexican_mismatch_interrogative-total-yn_Mi-tia-odia-la-lluvia.wav,,,,,,,,,,,,,,,,,,,,,,236.4384,238.6199,1,1,1.6595,,0,12,12,38,1,0,mexican,,,,,,,,,,,,,,,,,,,,,,,,,,,,,,,,,,,,,,,,,,,,,,,,,,,,,,,,
,,,,,,,,,663765ad2bdf17e0c60a3637,None,13 or older,"no, only English or Spanish",no,2025-07-23_06h23.10.307,empathy_intonation_perc,2024.2.4,Win32,59.88023952,663765ad2bdf17e0c60a3637,687ed1b7e638a4cbf2f02089,6880b7b5fa0ff133036931cb,,,,,,,,,,,,,38,1,,./stim/wavs/mexican_mismatch_interrogative-total-yn_Mi-novio-viene-del-lago.wav,,,,,,,,,,,,,,,,,,,,,,238.621,241.0524,1,1,1.9036,,0,13,13,37,1,0,mexican,,,,,,,,,,,,,,,,,,,,,,,,,,,,,,,,,,,,,,,,,,,,,,,,,,,,,,,,
,,,,,,,,,663765ad2bdf17e0c60a3637,None,13 or older,"no, only English or Spanish",no,2025-07-23_06h23.10.307,empathy_intonation_perc,2024.2.4,Win32,59.88023952,663765ad2bdf17e0c60a3637,687ed1b7e638a4cbf2f02089,6880b7b5fa0ff133036931cb,,,,,,,,,,,,,82,0,,./stim/wavs/mexican_mismatch_declarative-broad-focus_Mi-novio-viene-del-lago.wav,,,,,,,,,,,,,,,,,,,,,,241.0535,243.1354,1,0,1.5512,,0,14,14,81,1,0,mexican,,,,,,,,,,,,,,,,,,,,,,,,,,,,,,,,,,,,,,,,,,,,,,,,,,,,,,,,
,,,,,,,,,663765ad2bdf17e0c60a3637,None,13 or older,"no, only English or Spanish",no,2025-07-23_06h23.10.307,empathy_intonation_perc,2024.2.4,Win32,59.88023952,663765ad2bdf17e0c60a3637,687ed1b7e638a4cbf2f02089,6880b7b5fa0ff133036931cb,,,,,,,,,,,,,14,1,,./stim/wavs/mexican_match_interrogative-total-yn_Daniel-iba-a-Bolivia.wav,,,,,,,,,,,,,,,,,,,,,,243.137,245.3176,0,0,1.6568,,0,15,15,13,1,0,mexican,,,,,,,,,,,,,,,,,,,,,,,,,,,,,,,,,,,,,,,,,,,,,,,,,,,,,,,,
,,,,,,,,,663765ad2bdf17e0c60a3637,None,13 or older,"no, only English or Spanish",no,2025-07-23_06h23.10.307,empathy_intonation_perc,2024.2.4,Win32,59.88023952,663765ad2bdf17e0c60a3637,687ed1b7e638a4cbf2f02089,6880b7b5fa0ff133036931cb,,,,,,,,,,,,,8,1,,./stim/wavs/cuban_match_interrogative-total-yn_Daniel-iba-a-Bolivia.wav,,,,,,,,,,,,,,,,,,,,,,245.3185,247.6832,0,0,1.8419,,0,16,16,7,1,1,cuban,,,,,,,,,,,,,,,,,,,,,,,,,,,,,,,,,,,,,,,,,,,,,,,,,,,,,,,,
,,,,,,,,,663765ad2bdf17e0c60a3637,None,13 or older,"no, only English or Spanish",no,2025-07-23_06h23.10.307,empathy_intonation_perc,2024.2.4,Win32,59.88023952,663765ad2bdf17e0c60a3637,687ed1b7e638a4cbf2f02089,6880b7b5fa0ff133036931cb,,,,,,,,,,,,,83,0,,./stim/wavs/mexican_mismatch_declarative-broad-focus_Mi-tia-odia-la-lluvia.wav,,,,,,,,,,,,,,,,,,,,,,247.6839,249.9159,0,1,1.7032,,0,17,17,82,1,0,mexican,,,,,,,,,,,,,,,,,,,,,,,,,,,,,,,,,,,,,,,,,,,,,,,,,,,,,,,,
,,,,,,,,,663765ad2bdf17e0c60a3637,None,13 or older,"no, only English or Spanish",no,2025-07-23_06h23.10.307,empathy_intonation_perc,2024.2.4,Win32,59.88023952,663765ad2bdf17e0c60a3637,687ed1b7e638a4cbf2f02089,6880b7b5fa0ff133036931cb,,,,,,,,,,,,,55,0,,./stim/wavs/cuban_match_declarative-broad-focus_Mariano-habla-del-tiempo.wav,,,,,,,,,,,,,,,,,,,,,,249.9165,252.4481,0,1,2.0068,,0,18,18,54,1,0,cuban,,,,,,,,,,,,,,,,,,,,,,,,,,,,,,,,,,,,,,,,,,,,,,,,,,,,,,,,
,,,,,,,,,663765ad2bdf17e0c60a3637,None,13 or older,"no, only English or Spanish",no,2025-07-23_06h23.10.307,empathy_intonation_perc,2024.2.4,Win32,59.88023952,663765ad2bdf17e0c60a3637,687ed1b7e638a4cbf2f02089,6880b7b5fa0ff133036931cb,,,,,,,,,,,,,84,0,,./stim/wavs/puertorican_mismatch_declarative-broad-focus_El-bebe-comia-muy-bien.wav,,,,,,,,,,,,,,,,,,,,,,252.4486,254.4976,0,1,1.5173,,0,19,19,83,1,0,puertorican,,,,,,,,,,,,,,,,,,,,,,,,,,,,,,,,,,,,,,,,,,,,,,,,,,,,,,,,
,,,,,,,,,663765ad2bdf17e0c60a3637,None,13 or older,"no, only English or Spanish",no,2025-07-23_06h23.10.307,empathy_intonation_perc,2024.2.4,Win32,59.88023952,663765ad2bdf17e0c60a3637,687ed1b7e638a4cbf2f02089,6880b7b5fa0ff133036931cb,,,,,,,,,,,,,31,1,,./stim/wavs/cuban_mismatch_interrogative-total-yn_El-nino-oye-el-rio.wav,,,,,,,,,,,,,,,,,,,,,,254.4984,256.447,1,1,1.4138,,0,20,20,30,1,1,cuban,,,,,,,,,,,,,,,,,,,,,,,,,,,,,,,,,,,,,,,,,,,,,,,,,,,,,,,,
,,,,,,,,,663765ad2bdf17e0c60a3637,None,13 or older,"no, only English or Spanish",no,2025-07-23_06h23.10.307,empathy_intonation_perc,2024.2.4,Win32,59.88023952,663765ad2bdf17e0c60a3637,687ed1b7e638a4cbf2f02089,6880b7b5fa0ff133036931cb,,,,,,,,,,,,,69,0,,./stim/wavs/castilian_mismatch_declarative-broad-focus_El-nino-oye-el-rio.wav,,,,,,,,,,,,,,,,,,,,,,256.4475,258.8629,1,0,1.8882,,0,21,21,68,1,0,castilian,,,,,,,,,,,,,,,,,,,,,,,,,,,,,,,,,,,,,,,,,,,,,,,,,,,,,,,,
,,,,,,,,,663765ad2bdf17e0c60a3637,None,13 or older,"no, only English or Spanish",no,2025-07-23_06h23.10.307,empathy_intonation_perc,2024.2.4,Win32,59.88023952,663765ad2bdf17e0c60a3637,687ed1b7e638a4cbf2f02089,6880b7b5fa0ff133036931cb,,,,,,,,,,,,,88,0,,./stim/wavs/puertorican_mismatch_declarative-broad-focus_La-nina-lava-el-plato.wav,,,,,,,,,,,,,,,,,,,,,,258.8638,260.9453,0,1,1.5496,,0,22,22,87,1,0,puertorican,,,,,,,,,,,,,,,,,,,,,,,,,,,,,,,,,,,,,,,,,,,,,,,,,,,,,,,,
,,,,,,,,,663765ad2bdf17e0c60a3637,None,13 or older,"no, only English or Spanish",no,2025-07-23_06h23.10.307,empathy_intonation_perc,2024.2.4,Win32,59.88023952,663765ad2bdf17e0c60a3637,687ed1b7e638a4cbf2f02089,6880b7b5fa0ff133036931cb,,,,,,,,,,,,,36,1,,./stim/wavs/mexican_mismatch_interrogative-total-yn_El-nino-oye-el-rio.wav,,,,,,,,,,,,,,,,,,,,,,260.9457,263.0944,1,1,1.6232,,0,23,23,35,1,0,mexican,,,,,,,,,,,,,,,,,,,,,,,,,,,,,,,,,,,,,,,,,,,,,,,,,,,,,,,,
,,,,,,,,,663765ad2bdf17e0c60a3637,None,13 or older,"no, only English or Spanish",no,2025-07-23_06h23.10.307,empathy_intonation_perc,2024.2.4,Win32,59.88023952,663765ad2bdf17e0c60a3637,687ed1b7e638a4cbf2f02089,6880b7b5fa0ff133036931cb,,,,,,,,,,,,,15,1,,./stim/wavs/mexican_match_interrogative-total-yn_David-leia-el-libro.wav,,,,,,,,,,,,,,,,,,,,,,263.0949,265.2442,1,1,1.6179,,0,24,24,14,1,0,mexican,,,,,,,,,,,,,,,,,,,,,,,,,,,,,,,,,,,,,,,,,,,,,,,,,,,,,,,,
,,,,,,,,,663765ad2bdf17e0c60a3637,None,13 or older,"no, only English or Spanish",no,2025-07-23_06h23.10.307,empathy_intonation_perc,2024.2.4,Win32,59.88023952,663765ad2bdf17e0c60a3637,687ed1b7e638a4cbf2f02089,6880b7b5fa0ff133036931cb,,,,,,,,,,,,,65,0,,./stim/wavs/puertorican_match_declarative-broad-focus_David-leia-el-libro.wav,,,,,,,,,,,,,,,,,,,,,,265.2449,267.1602,0,1,1.3842,,0,25,25,64,1,0,puertorican,,,,,,,,,,,,,,,,,,,,,,,,,,,,,,,,,,,,,,,,,,,,,,,,,,,,,,,,
,,,,,,,,,663765ad2bdf17e0c60a3637,None,13 or older,"no, only English or Spanish",no,2025-07-23_06h23.10.307,empathy_intonation_perc,2024.2.4,Win32,59.88023952,663765ad2bdf17e0c60a3637,687ed1b7e638a4cbf2f02089,6880b7b5fa0ff133036931cb,,,,,,,,,,,,,23,1,,./stim/wavs/puertorican_match_interrogative-total-yn_Manuela-vende-el-carro.wav,,,,,,,,,,,,,,,,,,,,,,267.161,269.2595,0,0,1.5729,,0,26,26,22,1,1,puertorican,,,,,,,,,,,,,,,,,,,,,,,,,,,,,,,,,,,,,,,,,,,,,,,,,,,,,,,,
,,,,,,,,,663765ad2bdf17e0c60a3637,None,13 or older,"no, only English or Spanish",no,2025-07-23_06h23.10.307,empathy_intonation_perc,2024.2.4,Win32,59.88023952,663765ad2bdf17e0c60a3637,687ed1b7e638a4cbf2f02089,6880b7b5fa0ff133036931cb,,,,,,,,,,,,,71,0,,./stim/wavs/castilian_mismatch_declarative-broad-focus_La-nina-lava-el-plato.wav,,,,,,,,,,,,,,,,,,,,,,269.2601,271.642,0,1,1.8496,,0,27,27,70,1,0,castilian,,,,,,,,,,,,,,,,,,,,,,,,,,,,,,,,,,,,,,,,,,,,,,,,,,,,,,,,
,,,,,,,,,663765ad2bdf17e0c60a3637,None,13 or older,"no, only English or Spanish",no,2025-07-23_06h23.10.307,empathy_intonation_perc,2024.2.4,Win32,59.88023952,663765ad2bdf17e0c60a3637,687ed1b7e638a4cbf2f02089,6880b7b5fa0ff133036931cb,,,,,,,,,,,,,56,0,,./stim/wavs/cuban_match_declarative-broad-focus_Marta-abre-el-regalo.wav,,,,,,,,,,,,,,,,,,,,,,271.6428,273.8082,0,1,1.6365,,0,28,28,55,1,0,cuban,,,,,,,,,,,,,,,,,,,,,,,,,,,,,,,,,,,,,,,,,,,,,,,,,,,,,,,,
,,,,,,,,,663765ad2bdf17e0c60a3637,None,13 or older,"no, only English or Spanish",no,2025-07-23_06h23.10.307,empathy_intonation_perc,2024.2.4,Win32,59.88023952,663765ad2bdf17e0c60a3637,687ed1b7e638a4cbf2f02089,6880b7b5fa0ff133036931cb,,,,,,,,,,,,,77,0,,./stim/wavs/cuban_mismatch_declarative-broad-focus_Mi-novio-viene-del-lago.wav,,,,,,,,,,,,,,,,,,,,,,273.8096,276.0071,0,1,1.6676,,0,29,29,76,1,0,cuban,,,,,,,,,,,,,,,,,,,,,,,,,,,,,,,,,,,,,,,,,,,,,,,,,,,,,,,,
,,,,,,,,,663765ad2bdf17e0c60a3637,None,13 or older,"no, only English or Spanish",no,2025-07-23_06h23.10.307,empathy_intonation_perc,2024.2.4,Win32,59.88023952,663765ad2bdf17e0c60a3637,687ed1b7e638a4cbf2f02089,6880b7b5fa0ff133036931cb,,,,,,,,,,,,,42,1,,./stim/wavs/puertorican_mismatch_interrogative-total-yn_La-maestra-vive-en-Paris.wav,,,,,,,,,,,,,,,,,,,,,,276.0082,278.4564,0,0,1.9215,,0,30,30,41,1,1,puertorican,,,,,,,,,,,,,,,,,,,,,,,,,,,,,,,,,,,,,,,,,,,,,,,,,,,,,,,,
,,,,,,,,,663765ad2bdf17e0c60a3637,None,13 or older,"no, only English or Spanish",no,2025-07-23_06h23.10.307,empathy_intonation_perc,2024.2.4,Win32,59.88023952,663765ad2bdf17e0c60a3637,687ed1b7e638a4cbf2f02089,6880b7b5fa0ff133036931cb,,,,,,,,,,,,,80,0,,./stim/wavs/mexican_mismatch_declarative-broad-focus_El-hombre-mira-la-luna.wav,,,,,,,,,,,,,,,,,,,,,,278.4575,280.8555,0,1,1.8752,,0,31,31,79,1,0,mexican,,,,,,,,,,,,,,,,,,,,,,,,,,,,,,,,,,,,,,,,,,,,,,,,,,,,,,,,
,,,,,,,,,663765ad2bdf17e0c60a3637,None,13 or older,"no, only English or Spanish",no,2025-07-23_06h23.10.307,empathy_intonation_perc,2024.2.4,Win32,59.88023952,663765ad2bdf17e0c60a3637,687ed1b7e638a4cbf2f02089,6880b7b5fa0ff133036931cb,,,,,,,,,,,,,50,0,,./stim/wavs/castilian_match_declarative-broad-focus_Marta-abre-el-regalo.wav,,,,,,,,,,,,,,,,,,,,,,280.8561,283.2382,1,0,1.8624,,0,32,32,49,1,0,castilian,,,,,,,,,,,,,,,,,,,,,,,,,,,,,,,,,,,,,,,,,,,,,,,,,,,,,,,,
,,,,,,,,,663765ad2bdf17e0c60a3637,None,13 or older,"no, only English or Spanish",no,2025-07-23_06h23.10.307,empathy_intonation_perc,2024.2.4,Win32,59.88023952,663765ad2bdf17e0c60a3637,687ed1b7e638a4cbf2f02089,6880b7b5fa0ff133036931cb,,,,,,,,,,,,,11,1,,./stim/wavs/cuban_match_interrogative-total-yn_Mariano-habla-del-tiempo.wav,,,,,,,,,,,,,,,,,,,,,,283.2392,285.4041,0,0,1.6333,,0,33,33,10,1,1,cuban,,,,,,,,,,,,,,,,,,,,,,,,,,,,,,,,,,,,,,,,,,,,,,,,,,,,,,,,
,,,,,,,,,663765ad2bdf17e0c60a3637,None,13 or older,"no, only English or Spanish",no,2025-07-23_06h23.10.307,empathy_intonation_perc,2024.2.4,Win32,59.88023952,663765ad2bdf17e0c60a3637,687ed1b7e638a4cbf2f02089,6880b7b5fa0ff133036931cb,,,,,,,,,,,,,49,0,,./stim/wavs/castilian_match_declarative-broad-focus_Mariano-habla-del-tiempo.wav,,,,,,,,,,,,,,,,,,,,,,285.4051,287.7529,0,1,1.816,,0,34,34,48,1,0,castilian,,,,,,,,,,,,,,,,,,,,,,,,,,,,,,,,,,,,,,,,,,,,,,,,,,,,,,,,
,,,,,,,,,663765ad2bdf17e0c60a3637,None,13 or older,"no, only English or Spanish",no,2025-07-23_06h23.10.307,empathy_intonation_perc,2024.2.4,Win32,59.88023952,663765ad2bdf17e0c60a3637,687ed1b7e638a4cbf2f02089,6880b7b5fa0ff133036931cb,,,,,,,,,,,,,63,0,,./stim/wavs/puertorican_match_declarative-broad-focus_Ana-lleva-el-abrigo.wav,,,,,,,,,,,,,,,,,,,,,,287.7533,289.7029,0,1,1.4169,,0,35,35,62,1,0,puertorican,,,,,,,,,,,,,,,,,,,,,,,,,,,,,,,,,,,,,,,,,,,,,,,,,,,,,,,,
,,,,,,,,,663765ad2bdf17e0c60a3637,None,13 or older,"no, only English or Spanish",no,2025-07-23_06h23.10.307,empathy_intonation_perc,2024.2.4,Win32,59.88023952,663765ad2bdf17e0c60a3637,687ed1b7e638a4cbf2f02089,6880b7b5fa0ff133036931cb,,,,,,,,,,,,,17,1,,./stim/wavs/mexican_match_interrogative-total-yn_Mariano-habla-del-tiempo.wav,,,,,,,,,,,,,,,,,,,,,,289.7039,291.6848,0,0,1.4579,,0,36,36,16,1,0,mexican,,,,,,,,,,,,,,,,,,,,,,,,,,,,,,,,,,,,,,,,,,,,,,,,,,,,,,,,
,,,,,,,,,663765ad2bdf17e0c60a3637,None,13 or older,"no, only English or Spanish",no,2025-07-23_06h23.10.307,empathy_intonation_perc,2024.2.4,Win32,59.88023952,663765ad2bdf17e0c60a3637,687ed1b7e638a4cbf2f02089,6880b7b5fa0ff133036931cb,,,,,,,,,,,,,62,0,,./stim/wavs/mexican_match_declarative-broad-focus_Marta-abre-el-regalo.wav,,,,,,,,,,,,,,,,,,,,,,291.6851,293.5677,0,1,1.3499,,0,37,37,61,1,0,mexican,,,,,,,,,,,,,,,,,,,,,,,,,,,,,,,,,,,,,,,,,,,,,,,,,,,,,,,,
,,,,,,,,,663765ad2bdf17e0c60a3637,None,13 or older,"no, only English or Spanish",no,2025-07-23_06h23.10.307,empathy_intonation_perc,2024.2.4,Win32,59.88023952,663765ad2bdf17e0c60a3637,687ed1b7e638a4cbf2f02089,6880b7b5fa0ff133036931cb,,,,,,,,,,,,,28,1,,./stim/wavs/castilian_mismatch_interrogative-total-yn_Mi-novio-viene-del-lago.wav,,,,,,,,,,,,,,,,,,,,,,293.5682,296.1837,1,1,2.0837,,0,38,38,27,1,0,castilian,,,,,,,,,,,,,,,,,,,,,,,,,,,,,,,,,,,,,,,,,,,,,,,,,,,,,,,,
,,,,,,,,,663765ad2bdf17e0c60a3637,None,13 or older,"no, only English or Spanish",no,2025-07-23_06h23.10.307,empathy_intonation_perc,2024.2.4,Win32,59.88023952,663765ad2bdf17e0c60a3637,687ed1b7e638a4cbf2f02089,6880b7b5fa0ff133036931cb,,,,,,,,,,,,,22,1,,./stim/wavs/puertorican_match_interrogative-total-yn_Emilio-ama-la-marcha.wav,,,,,,,,,,,,,,,,,,,,,,296.1844,298.7161,0,0,2.0093,,0,39,39,21,1,1,puertorican,,,,,,,,,,,,,,,,,,,,,,,,,,,,,,,,,,,,,,,,,,,,,,,,,,,,,,,,
,,,,,,,,,663765ad2bdf17e0c60a3637,None,13 or older,"no, only English or Spanish",no,2025-07-23_06h23.10.307,empathy_intonation_perc,2024.2.4,Win32,59.88023952,663765ad2bdf17e0c60a3637,687ed1b7e638a4cbf2f02089,6880b7b5fa0ff133036931cb,,,,,,,,,,,,,85,0,,./stim/wavs/puertorican_mismatch_declarative-broad-focus_El-hombre-mira-la-luna.wav,,,,,,,,,,,,,,,,,,,,,,298.7181,300.6985,0,1,1.4549,,0,40,40,84,1,0,puertorican,,,,,,,,,,,,,,,,,,,,,,,,,,,,,,,,,,,,,,,,,,,,,,,,,,,,,,,,
,,,,,,,,,663765ad2bdf17e0c60a3637,None,13 or older,"no, only English or Spanish",no,2025-07-23_06h23.10.307,empathy_intonation_perc,2024.2.4,Win32,59.88023952,663765ad2bdf17e0c60a3637,687ed1b7e638a4cbf2f02089,6880b7b5fa0ff133036931cb,,,,,,,,,,,,,12,1,,./stim/wavs/cuban_match_interrogative-total-yn_Marta-abre-el-regalo.wav,,,,,,,,,,,,,,,,,,,,,,300.6991,302.6813,0,0,1.4495,,0,41,41,11,1,1,cuban,,,,,,,,,,,,,,,,,,,,,,,,,,,,,,,,,,,,,,,,,,,,,,,,,,,,,,,,
,,,,,,,,,663765ad2bdf17e0c60a3637,None,13 or older,"no, only English or Spanish",no,2025-07-23_06h23.10.307,empathy_intonation_perc,2024.2.4,Win32,59.88023952,663765ad2bdf17e0c60a3637,687ed1b7e638a4cbf2f02089,6880b7b5fa0ff133036931cb,,,,,,,,,,,,,18,1,,./stim/wavs/mexican_match_interrogative-total-yn_Marta-abre-el-regalo.wav,,,,,,,,,,,,,,,,,,,,,,302.6819,304.4973,0,0,1.2845,,0,42,42,17,1,0,mexican,,,,,,,,,,,,,,,,,,,,,,,,,,,,,,,,,,,,,,,,,,,,,,,,,,,,,,,,
,,,,,,,,,663765ad2bdf17e0c60a3637,None,13 or older,"no, only English or Spanish",no,2025-07-23_06h23.10.307,empathy_intonation_perc,2024.2.4,Win32,59.88023952,663765ad2bdf17e0c60a3637,687ed1b7e638a4cbf2f02089,6880b7b5fa0ff133036931cb,,,,,,,,,,,,,19,1,,./stim/wavs/puertorican_match_interrogative-total-yn_Ana-lleva-el-abrigo.wav,,,,,,,,,,,,,,,,,,,,,,304.4979,306.7469,0,0,1.7153,,0,43,43,18,1,1,puertorican,,,,,,,,,,,,,,,,,,,,,,,,,,,,,,,,,,,,,,,,,,,,,,,,,,,,,,,,
,,,,,,,,,663765ad2bdf17e0c60a3637,None,13 or older,"no, only English or Spanish",no,2025-07-23_06h23.10.307,empathy_intonation_perc,2024.2.4,Win32,59.88023952,663765ad2bdf17e0c60a3637,687ed1b7e638a4cbf2f02089,6880b7b5fa0ff133036931cb,,,,,,,,,,,,,44,1,,./stim/wavs/puertorican_mismatch_interrogative-total-yn_Mi-madre-come-la-fruta.wav,,,,,,,,,,,,,,,,,,,,,,306.7479,308.9293,0,0,1.6553,,0,44,44,43,1,1,puertorican,,,,,,,,,,,,,,,,,,,,,,,,,,,,,,,,,,,,,,,,,,,,,,,,,,,,,,,,
,,,,,,,,,663765ad2bdf17e0c60a3637,None,13 or older,"no, only English or Spanish",no,2025-07-23_06h23.10.307,empathy_intonation_perc,2024.2.4,Win32,59.88023952,663765ad2bdf17e0c60a3637,687ed1b7e638a4cbf2f02089,6880b7b5fa0ff133036931cb,,,,,,,,,,,,,72,0,,./stim/wavs/castilian_mismatch_declarative-broad-focus_Mi-novio-viene-del-lago.wav,,,,,,,,,,,,,,,,,,,,,,308.9302,311.4119,0,1,1.9495,,0,45,45,71,1,0,castilian,,,,,,,,,,,,,,,,,,,,,,,,,,,,,,,,,,,,,,,,,,,,,,,,,,,,,,,,
,,,,,,,,,663765ad2bdf17e0c60a3637,None,13 or older,"no, only English or Spanish",no,2025-07-23_06h23.10.307,empathy_intonation_perc,2024.2.4,Win32,59.88023952,663765ad2bdf17e0c60a3637,687ed1b7e638a4cbf2f02089,6880b7b5fa0ff133036931cb,,,,,,,,,,,,,86,0,,./stim/wavs/puertorican_mismatch_declarative-broad-focus_El-nino-oye-el-rio.wav,,,,,,,,,,,,,,,,,,,,,,311.4126,313.9108,0,1,1.9665,,0,46,46,85,1,0,puertorican,,,,,,,,,,,,,,,,,,,,,,,,,,,,,,,,,,,,,,,,,,,,,,,,,,,,,,,,
,,,,,,,,,663765ad2bdf17e0c60a3637,None,13 or older,"no, only English or Spanish",no,2025-07-23_06h23.10.307,empathy_intonation_perc,2024.2.4,Win32,59.88023952,663765ad2bdf17e0c60a3637,687ed1b7e638a4cbf2f02089,6880b7b5fa0ff133036931cb,,,,,,,,,,,,,2,1,,./stim/wavs/castilian_match_interrogative-total-yn_Emilio-ama-la-marcha.wav,,,,,,,,,,,,,,,,,,,,,,313.9113,317.0434,1,1,2.6079,,0,47,47,1,1,0,castilian,,,,,,,,,,,,,,,,,,,,,,,,,,,,,,,,,,,,,,,,,,,,,,,,,,,,,,,,
,,,,,,,,,663765ad2bdf17e0c60a3637,None,13 or older,"no, only English or Spanish",no,2025-07-23_06h23.10.307,empathy_intonation_perc,2024.2.4,Win32,59.88023952,663765ad2bdf17e0c60a3637,687ed1b7e638a4cbf2f02089,6880b7b5fa0ff133036931cb,,,,,,,,,,,,,51,0,,./stim/wavs/cuban_match_declarative-broad-focus_Ana-lleva-el-abrigo.wav,,,,,,,,,,,,,,,,,,,,,,317.0444,319.0592,0,1,1.4822,,0,48,48,50,1,0,cuban,,,,,,,,,,,,,,,,,,,,,,,,,,,,,,,,,,,,,,,,,,,,,,,,,,,,,,,,
,,,,,,,,,663765ad2bdf17e0c60a3637,None,13 or older,"no, only English or Spanish",no,2025-07-23_06h23.10.307,empathy_intonation_perc,2024.2.4,Win32,59.88023952,663765ad2bdf17e0c60a3637,687ed1b7e638a4cbf2f02089,6880b7b5fa0ff133036931cb,,,,,,,,,,,,,52,0,,./stim/wavs/cuban_match_declarative-broad-focus_Daniel-iba-a-Bolivia.wav,,,,,,,,,,,,,,,,,,,,,,319.0599,321.7082,0,1,2.1269,,0,49,49,51,1,0,cuban,,,,,,,,,,,,,,,,,,,,,,,,,,,,,,,,,,,,,,,,,,,,,,,,,,,,,,,,
,,,,,,,,,663765ad2bdf17e0c60a3637,None,13 or older,"no, only English or Spanish",no,2025-07-23_06h23.10.307,empathy_intonation_perc,2024.2.4,Win32,59.88023952,663765ad2bdf17e0c60a3637,687ed1b7e638a4cbf2f02089,6880b7b5fa0ff133036931cb,,,,,,,,,,,,,40,1,,./stim/wavs/puertorican_mismatch_interrogative-total-yn_El-hombre-mira-la-luna.wav,,,,,,,,,,,,,,,,,,,,,,321.7087,324.0406,1,1,1.7999,,0,50,50,39,1,1,puertorican,,,,,,,,,,,,,,,,,,,,,,,,,,,,,,,,,,,,,,,,,,,,,,,,,,,,,,,,
,,,,,,,,,663765ad2bdf17e0c60a3637,None,13 or older,"no, only English or Spanish",no,2025-07-23_06h23.10.307,empathy_intonation_perc,2024.2.4,Win32,59.88023952,663765ad2bdf17e0c60a3637,687ed1b7e638a4cbf2f02089,6880b7b5fa0ff133036931cb,,,,,,,,,,,,,26,1,,./stim/wavs/castilian_mismatch_interrogative-total-yn_La-nina-lava-el-plato.wav,,,,,,,,,,,,,,,,,,,,,,324.041,326.1898,0,0,1.6252,,0,51,51,25,1,0,castilian,,,,,,,,,,,,,,,,,,,,,,,,,,,,,,,,,,,,,,,,,,,,,,,,,,,,,,,,
,,,,,,,,,663765ad2bdf17e0c60a3637,None,13 or older,"no, only English or Spanish",no,2025-07-23_06h23.10.307,empathy_intonation_perc,2024.2.4,Win32,59.88023952,663765ad2bdf17e0c60a3637,687ed1b7e638a4cbf2f02089,6880b7b5fa0ff133036931cb,,,,,,,,,,,,,20,1,,./stim/wavs/puertorican_match_interrogative-total-yn_Daniel-iba-a-Bolivia.wav,,,,,,,,,,,,,,,,,,,,,,326.1903,328.2395,1,1,1.5317,,0,52,52,19,1,1,puertorican,,,,,,,,,,,,,,,,,,,,,,,,,,,,,,,,,,,,,,,,,,,,,,,,,,,,,,,,
,,,,,,,,,663765ad2bdf17e0c60a3637,None,13 or older,"no, only English or Spanish",no,2025-07-23_06h23.10.307,empathy_intonation_perc,2024.2.4,Win32,59.88023952,663765ad2bdf17e0c60a3637,687ed1b7e638a4cbf2f02089,6880b7b5fa0ff133036931cb,,,,,,,,,,,,,64,0,,./stim/wavs/puertorican_match_declarative-broad-focus_Daniel-iba-a-Bolivia.wav,,,,,,,,,,,,,,,,,,,,,,328.2401,329.9218,0,1,1.1502,,0,53,53,63,1,0,puertorican,,,,,,,,,,,,,,,,,,,,,,,,,,,,,,,,,,,,,,,,,,,,,,,,,,,,,,,,
,,,,,,,,,663765ad2bdf17e0c60a3637,None,13 or older,"no, only English or Spanish",no,2025-07-23_06h23.10.307,empathy_intonation_perc,2024.2.4,Win32,59.88023952,663765ad2bdf17e0c60a3637,687ed1b7e638a4cbf2f02089,6880b7b5fa0ff133036931cb,,,,,,,,,,,,,21,1,,./stim/wavs/puertorican_match_interrogative-total-yn_David-leia-el-libro.wav,,,,,,,,,,,,,,,,,,,,,,329.9223,331.9051,1,1,1.4503,,0,54,54,20,1,1,puertorican,,,,,,,,,,,,,,,,,,,,,,,,,,,,,,,,,,,,,,,,,,,,,,,,,,,,,,,,
,,,,,,,,,663765ad2bdf17e0c60a3637,None,13 or older,"no, only English or Spanish",no,2025-07-23_06h23.10.307,empathy_intonation_perc,2024.2.4,Win32,59.88023952,663765ad2bdf17e0c60a3637,687ed1b7e638a4cbf2f02089,6880b7b5fa0ff133036931cb,,,,,,,,,,,,,3,1,,./stim/wavs/castilian_match_interrogative-total-yn_Manuela-vende-el-carro.wav,,,,,,,,,,,,,,,,,,,,,,331.9058,333.9708,1,1,1.5319,,0,55,55,2,1,0,castilian,,,,,,,,,,,,,,,,,,,,,,,,,,,,,,,,,,,,,,,,,,,,,,,,,,,,,,,,
,,,,,,,,,663765ad2bdf17e0c60a3637,None,13 or older,"no, only English or Spanish",no,2025-07-23_06h23.10.307,empathy_intonation_perc,2024.2.4,Win32,59.88023952,663765ad2bdf17e0c60a3637,687ed1b7e638a4cbf2f02089,6880b7b5fa0ff133036931cb,,,,,,,,,,,,,67,0,,./stim/wavs/puertorican_match_declarative-broad-focus_Manuela-vende-el-carro.wav,,,,,,,,,,,,,,,,,,,,,,333.9714,336.2035,0,1,1.7029,,0,56,56,66,1,0,puertorican,,,,,,,,,,,,,,,,,,,,,,,,,,,,,,,,,,,,,,,,,,,,,,,,,,,,,,,,
,,,,,,,,,663765ad2bdf17e0c60a3637,None,13 or older,"no, only English or Spanish",no,2025-07-23_06h23.10.307,empathy_intonation_perc,2024.2.4,Win32,59.88023952,663765ad2bdf17e0c60a3637,687ed1b7e638a4cbf2f02089,6880b7b5fa0ff133036931cb,,,,,,,,,,,,,43,1,,./stim/wavs/puertorican_mismatch_interrogative-total-yn_La-nina-lava-el-plato.wav,,,,,,,,,,,,,,,,,,,,,,336.2046,338.5692,0,0,1.8316,,0,57,57,42,1,1,puertorican,,,,,,,,,,,,,,,,,,,,,,,,,,,,,,,,,,,,,,,,,,,,,,,,,,,,,,,,
,,,,,,,,,663765ad2bdf17e0c60a3637,None,13 or older,"no, only English or Spanish",no,2025-07-23_06h23.10.307,empathy_intonation_perc,2024.2.4,Win32,59.88023952,663765ad2bdf17e0c60a3637,687ed1b7e638a4cbf2f02089,6880b7b5fa0ff133036931cb,,,,,,,,,,,,,87,0,,./stim/wavs/puertorican_mismatch_declarative-broad-focus_La-maestra-vive-en-Paris.wav,,,,,,,,,,,,,,,,,,,,,,338.57,340.9852,0,1,1.8813,,0,58,58,86,1,0,puertorican,,,,,,,,,,,,,,,,,,,,,,,,,,,,,,,,,,,,,,,,,,,,,,,,,,,,,,,,
,,,,,,,,,663765ad2bdf17e0c60a3637,None,13 or older,"no, only English or Spanish",no,2025-07-23_06h23.10.307,empathy_intonation_perc,2024.2.4,Win32,59.88023952,663765ad2bdf17e0c60a3637,687ed1b7e638a4cbf2f02089,6880b7b5fa0ff133036931cb,,,,,,,,,,,,,79,0,,./stim/wavs/mexican_mismatch_declarative-broad-focus_El-bebe-comia-muy-bien.wav,,,,,,,,,,,,,,,,,,,,,,340.9862,343.7177,0,1,2.2084,,0,59,59,78,1,0,mexican,,,,,,,,,,,,,,,,,,,,,,,,,,,,,,,,,,,,,,,,,,,,,,,,,,,,,,,,
,,,,,,,,,663765ad2bdf17e0c60a3637,None,13 or older,"no, only English or Spanish",no,2025-07-23_06h23.10.307,empathy_intonation_perc,2024.2.4,Win32,59.88023952,663765ad2bdf17e0c60a3637,687ed1b7e638a4cbf2f02089,6880b7b5fa0ff133036931cb,,,,,,,,,,,,,47,0,,./stim/wavs/castilian_match_declarative-broad-focus_Manuela-vende-el-carro.wav,,,,,,,,,,,,,,,,,,,,,,343.719,346.8495,0,1,2.6014,,0,60,60,46,1,0,castilian,,,,,,,,,,,,,,,,,,,,,,,,,,,,,,,,,,,,,,,,,,,,,,,,,,,,,,,,
,,,,,,,,,663765ad2bdf17e0c60a3637,None,13 or older,"no, only English or Spanish",no,2025-07-23_06h23.10.307,empathy_intonation_perc,2024.2.4,Win32,59.88023952,663765ad2bdf17e0c60a3637,687ed1b7e638a4cbf2f02089,6880b7b5fa0ff133036931cb,,,,,,,,,,,,,27,1,,./stim/wavs/castilian_mismatch_interrogative-total-yn_Mi-madre-come-la-fruta.wav,,,,,,,,,,,,,,,,,,,,,,346.8499,350.2822,1,1,2.9167,,0,61,61,26,1,0,castilian,,,,,,,,,,,,,,,,,,,,,,,,,,,,,,,,,,,,,,,,,,,,,,,,,,,,,,,,
,,,,,,,,,663765ad2bdf17e0c60a3637,None,13 or older,"no, only English or Spanish",no,2025-07-23_06h23.10.307,empathy_intonation_perc,2024.2.4,Win32,59.88023952,663765ad2bdf17e0c60a3637,687ed1b7e638a4cbf2f02089,6880b7b5fa0ff133036931cb,,,,,,,,,,,,,58,0,,./stim/wavs/mexican_match_declarative-broad-focus_Daniel-iba-a-Bolivia.wav,,,,,,,,,,,,,,,,,,,,,,350.2832,352.9475,0,1,2.1364,,0,62,62,57,1,0,mexican,,,,,,,,,,,,,,,,,,,,,,,,,,,,,,,,,,,,,,,,,,,,,,,,,,,,,,,,
,,,,,,,,,663765ad2bdf17e0c60a3637,None,13 or older,"no, only English or Spanish",no,2025-07-23_06h23.10.307,empathy_intonation_perc,2024.2.4,Win32,59.88023952,663765ad2bdf17e0c60a3637,687ed1b7e638a4cbf2f02089,6880b7b5fa0ff133036931cb,,,,,,,,,,,,,59,0,,./stim/wavs/mexican_match_declarative-broad-focus_David-leia-el-libro.wav,,,,,,,,,,,,,,,,,,,,,,352.948,355.2968,0,1,1.8215,,0,63,63,58,1,0,mexican,,,,,,,,,,,,,,,,,,,,,,,,,,,,,,,,,,,,,,,,,,,,,,,,,,,,,,,,
,,,,,,,,,663765ad2bdf17e0c60a3637,None,13 or older,"no, only English or Spanish",no,2025-07-23_06h23.10.307,empathy_intonation_perc,2024.2.4,Win32,59.88023952,663765ad2bdf17e0c60a3637,687ed1b7e638a4cbf2f02089,6880b7b5fa0ff133036931cb,,,,,,,,,,,,,33,1,,./stim/wavs/cuban_mismatch_interrogative-total-yn_Mi-novio-viene-del-lago.wav,,,,,,,,,,,,,,,,,,,,,,355.2976,358.0128,0,0,2.1916,,0,64,64,32,1,1,cuban,,,,,,,,,,,,,,,,,,,,,,,,,,,,,,,,,,,,,,,,,,,,,,,,,,,,,,,,
,,,,,,,,,663765ad2bdf17e0c60a3637,None,13 or older,"no, only English or Spanish",no,2025-07-23_06h23.10.307,empathy_intonation_perc,2024.2.4,Win32,59.88023952,663765ad2bdf17e0c60a3637,687ed1b7e638a4cbf2f02089,6880b7b5fa0ff133036931cb,,,,,,,,,,,,,45,0,,./stim/wavs/castilian_match_declarative-broad-focus_David-leia-el-libro.wav,,,,,,,,,,,,,,,,,,,,,,358.014,360.2957,0,1,1.7601,,0,65,65,44,1,0,castilian,,,,,,,,,,,,,,,,,,,,,,,,,,,,,,,,,,,,,,,,,,,,,,,,,,,,,,,,
,,,,,,,,,663765ad2bdf17e0c60a3637,None,13 or older,"no, only English or Spanish",no,2025-07-23_06h23.10.307,empathy_intonation_perc,2024.2.4,Win32,59.88023952,663765ad2bdf17e0c60a3637,687ed1b7e638a4cbf2f02089,6880b7b5fa0ff133036931cb,,,,,,,,,,,,,41,1,,./stim/wavs/puertorican_mismatch_interrogative-total-yn_El-nino-oye-el-rio.wav,,,,,,,,,,,,,,,,,,,,,,360.2972,363.0945,0,0,2.2687,,0,66,66,40,1,1,puertorican,,,,,,,,,,,,,,,,,,,,,,,,,,,,,,,,,,,,,,,,,,,,,,,,,,,,,,,,
,,,,,,,,,663765ad2bdf17e0c60a3637,None,13 or older,"no, only English or Spanish",no,2025-07-23_06h23.10.307,empathy_intonation_perc,2024.2.4,Win32,59.88023952,663765ad2bdf17e0c60a3637,687ed1b7e638a4cbf2f02089,6880b7b5fa0ff133036931cb,,,,,,,,,,,,,66,0,,./stim/wavs/puertorican_match_declarative-broad-focus_Emilio-ama-la-marcha.wav,,,,,,,,,,,,,,,,,,,,,,363.0954,365.6103,0,1,1.9826,,0,67,67,65,1,0,puertorican,,,,,,,,,,,,,,,,,,,,,,,,,,,,,,,,,,,,,,,,,,,,,,,,,,,,,,,,
,,,,,,,,,663765ad2bdf17e0c60a3637,None,13 or older,"no, only English or Spanish",no,2025-07-23_06h23.10.307,empathy_intonation_perc,2024.2.4,Win32,59.88023952,663765ad2bdf17e0c60a3637,687ed1b7e638a4cbf2f02089,6880b7b5fa0ff133036931cb,,,,,,,,,,,,,7,1,,./stim/wavs/cuban_match_interrogative-total-yn_Ana-lleva-el-abrigo.wav,,,,,,,,,,,,,,,,,,,,,,365.611,367.9091,1,1,1.7683,,0,68,68,6,1,1,cuban,,,,,,,,,,,,,,,,,,,,,,,,,,,,,,,,,,,,,,,,,,,,,,,,,,,,,,,,
,,,,,,,,,663765ad2bdf17e0c60a3637,None,13 or older,"no, only English or Spanish",no,2025-07-23_06h23.10.307,empathy_intonation_perc,2024.2.4,Win32,59.88023952,663765ad2bdf17e0c60a3637,687ed1b7e638a4cbf2f02089,6880b7b5fa0ff133036931cb,,,,,,,,,,,,,29,1,,./stim/wavs/castilian_mismatch_interrogative-total-yn_Mi-tia-odia-la-lluvia.wav,,,,,,,,,,,,,,,,,,,,,,367.9097,371.1089,0,0,2.6757,,0,69,69,28,1,0,castilian,,,,,,,,,,,,,,,,,,,,,,,,,,,,,,,,,,,,,,,,,,,,,,,,,,,,,,,,
,,,,,,,,,663765ad2bdf17e0c60a3637,None,13 or older,"no, only English or Spanish",no,2025-07-23_06h23.10.307,empathy_intonation_perc,2024.2.4,Win32,59.88023952,663765ad2bdf17e0c60a3637,687ed1b7e638a4cbf2f02089,6880b7b5fa0ff133036931cb,,,,,,,,,,,,,60,0,,./stim/wavs/mexican_match_declarative-broad-focus_Emilio-ama-la-marcha.wav,,,,,,,,,,,,,,,,,,,,,,371.1098,373.5738,0,1,1.9351,,0,70,70,59,1,0,mexican,,,,,,,,,,,,,,,,,,,,,,,,,,,,,,,,,,,,,,,,,,,,,,,,,,,,,,,,
,,,,,,,,,663765ad2bdf17e0c60a3637,None,13 or older,"no, only English or Spanish",no,2025-07-23_06h23.10.307,empathy_intonation_perc,2024.2.4,Win32,59.88023952,663765ad2bdf17e0c60a3637,687ed1b7e638a4cbf2f02089,6880b7b5fa0ff133036931cb,,,,,,,,,,,,,37,1,,./stim/wavs/mexican_mismatch_interrogative-total-yn_La-maestra-vive-en-Paris.wav,,,,,,,,,,,,,,,,,,,,,,373.5743,375.2071,0,0,1.0989,,0,71,71,36,1,0,mexican,,,,,,,,,,,,,,,,,,,,,,,,,,,,,,,,,,,,,,,,,,,,,,,,,,,,,,,,
,,,,,,,,,663765ad2bdf17e0c60a3637,None,13 or older,"no, only English or Spanish",no,2025-07-23_06h23.10.307,empathy_intonation_perc,2024.2.4,Win32,59.88023952,663765ad2bdf17e0c60a3637,687ed1b7e638a4cbf2f02089,6880b7b5fa0ff133036931cb,,,,,,,,,,,,,57,0,,./stim/wavs/mexican_match_declarative-broad-focus_Ana-lleva-el-abrigo.wav,,,,,,,,,,,,,,,,,,,,,,375.2086,377.4729,0,1,1.7338,,0,72,72,56,1,0,mexican,,,,,,,,,,,,,,,,,,,,,,,,,,,,,,,,,,,,,,,,,,,,,,,,,,,,,,,,
,,,,,,,,,663765ad2bdf17e0c60a3637,None,13 or older,"no, only English or Spanish",no,2025-07-23_06h23.10.307,empathy_intonation_perc,2024.2.4,Win32,59.88023952,663765ad2bdf17e0c60a3637,687ed1b7e638a4cbf2f02089,6880b7b5fa0ff133036931cb,,,,,,,,,,,,,46,0,,./stim/wavs/castilian_match_declarative-broad-focus_Emilio-ama-la-marcha.wav,,,,,,,,,,,,,,,,,,,,,,377.4734,379.5053,0,1,1.5068,,0,73,73,45,1,0,castilian,,,,,,,,,,,,,,,,,,,,,,,,,,,,,,,,,,,,,,,,,,,,,,,,,,,,,,,,
,,,,,,,,,663765ad2bdf17e0c60a3637,None,13 or older,"no, only English or Spanish",no,2025-07-23_06h23.10.307,empathy_intonation_perc,2024.2.4,Win32,59.88023952,663765ad2bdf17e0c60a3637,687ed1b7e638a4cbf2f02089,6880b7b5fa0ff133036931cb,,,,,,,,,,,,,35,1,,./stim/wavs/mexican_mismatch_interrogative-total-yn_El-hombre-mira-la-luna.wav,,,,,,,,,,,,,,,,,,,,,,379.5062,381.488,0,0,1.4494,,0,74,74,34,1,0,mexican,,,,,,,,,,,,,,,,,,,,,,,,,,,,,,,,,,,,,,,,,,,,,,,,,,,,,,,,
,,,,,,,,,663765ad2bdf17e0c60a3637,None,13 or older,"no, only English or Spanish",no,2025-07-23_06h23.10.307,empathy_intonation_perc,2024.2.4,Win32,59.88023952,663765ad2bdf17e0c60a3637,687ed1b7e638a4cbf2f02089,6880b7b5fa0ff133036931cb,,,,,,,,,,,,,5,1,,./stim/wavs/castilian_match_interrogative-total-yn_Mariano-habla-del-tiempo.wav,,,,,,,,,,,,,,,,,,,,,,381.4884,383.0706,0,0,1.0599,,0,75,75,4,1,0,castilian,,,,,,,,,,,,,,,,,,,,,,,,,,,,,,,,,,,,,,,,,,,,,,,,,,,,,,,,
,,,,,,,,,663765ad2bdf17e0c60a3637,None,13 or older,"no, only English or Spanish",no,2025-07-23_06h23.10.307,empathy_intonation_perc,2024.2.4,Win32,59.88023952,663765ad2bdf17e0c60a3637,687ed1b7e638a4cbf2f02089,6880b7b5fa0ff133036931cb,,,,,,,,,,,,,16,1,,./stim/wavs/mexican_match_interrogative-total-yn_Emilio-ama-la-marcha.wav,,,,,,,,,,,,,,,,,,,,,,383.071,385.4534,0,0,1.8503,,0,76,76,15,1,0,mexican,,,,,,,,,,,,,,,,,,,,,,,,,,,,,,,,,,,,,,,,,,,,,,,,,,,,,,,,
,,,,,,,,,663765ad2bdf17e0c60a3637,None,13 or older,"no, only English or Spanish",no,2025-07-23_06h23.10.307,empathy_intonation_perc,2024.2.4,Win32,59.88023952,663765ad2bdf17e0c60a3637,687ed1b7e638a4cbf2f02089,6880b7b5fa0ff133036931cb,,,,,,,,,,,,,30,1,,./stim/wavs/cuban_mismatch_interrogative-total-yn_El-hombre-mira-la-luna.wav,,,,,,,,,,,,,,,,,,,,,,385.4542,388.6026,0,0,2.6187,,0,77,77,29,1,1,cuban,,,,,,,,,,,,,,,,,,,,,,,,,,,,,,,,,,,,,,,,,,,,,,,,,,,,,,,,
,,,,,,,,,663765ad2bdf17e0c60a3637,None,13 or older,"no, only English or Spanish",no,2025-07-23_06h23.10.307,empathy_intonation_perc,2024.2.4,Win32,59.88023952,663765ad2bdf17e0c60a3637,687ed1b7e638a4cbf2f02089,6880b7b5fa0ff133036931cb,,,,,,,,,,,,,61,0,,./stim/wavs/mexican_match_declarative-broad-focus_Mariano-habla-del-tiempo.wav,,,,,,,,,,,,,,,,,,,,,,388.6033,391.551,0,1,2.4243,,0,78,78,60,1,0,mexican,,,,,,,,,,,,,,,,,,,,,,,,,,,,,,,,,,,,,,,,,,,,,,,,,,,,,,,,
,,,,,,,,,663765ad2bdf17e0c60a3637,None,13 or older,"no, only English or Spanish",no,2025-07-23_06h23.10.307,empathy_intonation_perc,2024.2.4,Win32,59.88023952,663765ad2bdf17e0c60a3637,687ed1b7e638a4cbf2f02089,6880b7b5fa0ff133036931cb,,,,,,,,,,,,,81,0,,./stim/wavs/mexican_mismatch_declarative-broad-focus_La-maestra-vive-en-Paris.wav,,,,,,,,,,,,,,,,,,,,,,391.5515,395.3335,1,0,3.2596,,0,79,79,80,1,0,mexican,,,,,,,,,,,,,,,,,,,,,,,,,,,,,,,,,,,,,,,,,,,,,,,,,,,,,,,,
,,,,,,,,,663765ad2bdf17e0c60a3637,None,13 or older,"no, only English or Spanish",no,2025-07-23_06h23.10.307,empathy_intonation_perc,2024.2.4,Win32,59.88023952,663765ad2bdf17e0c60a3637,687ed1b7e638a4cbf2f02089,6880b7b5fa0ff133036931cb,,,,,,,,,,,,,6,1,,./stim/wavs/castilian_match_interrogative-total-yn_Marta-abre-el-regalo.wav,,,,,,,,,,,,,,,,,,,,,,395.3343,397.2828,0,0,1.4166,,0,80,80,5,1,0,castilian,,,,,,,,,,,,,,,,,,,,,,,,,,,,,,,,,,,,,,,,,,,,,,,,,,,,,,,,
,,,,,,,,,663765ad2bdf17e0c60a3637,None,13 or older,"no, only English or Spanish",no,2025-07-23_06h23.10.307,empathy_intonation_perc,2024.2.4,Win32,59.88023952,663765ad2bdf17e0c60a3637,687ed1b7e638a4cbf2f02089,6880b7b5fa0ff133036931cb,,,,,,,,,,,,,53,0,,./stim/wavs/cuban_match_declarative-broad-focus_Manuela-vende-el-carro.wav,,,,,,,,,,,,,,,,,,,,,,397.2835,399.4318,0,1,1.6166,,0,81,81,52,1,0,cuban,,,,,,,,,,,,,,,,,,,,,,,,,,,,,,,,,,,,,,,,,,,,,,,,,,,,,,,,
,,,,,,,,,663765ad2bdf17e0c60a3637,None,13 or older,"no, only English or Spanish",no,2025-07-23_06h23.10.307,empathy_intonation_perc,2024.2.4,Win32,59.88023952,663765ad2bdf17e0c60a3637,687ed1b7e638a4cbf2f02089,6880b7b5fa0ff133036931cb,,,,,,,,,,,,,76,0,,./stim/wavs/cuban_mismatch_declarative-broad-focus_La-nina-lava-el-plato.wav,,,,,,,,,,,,,,,,,,,,,,399.4322,401.4148,0,1,1.4654,,0,82,82,75,1,0,cuban,,,,,,,,,,,,,,,,,,,,,,,,,,,,,,,,,,,,,,,,,,,,,,,,,,,,,,,,
,,,,,,,,,663765ad2bdf17e0c60a3637,None,13 or older,"no, only English or Spanish",no,2025-07-23_06h23.10.307,empathy_intonation_perc,2024.2.4,Win32,59.88023952,663765ad2bdf17e0c60a3637,687ed1b7e638a4cbf2f02089,6880b7b5fa0ff133036931cb,,,,,,,,,,,,,73,0,,./stim/wavs/castilian_mismatch_declarative-broad-focus_Mi-tia-odia-la-lluvia.wav,,,,,,,,,,,,,,,,,,,,,,401.4156,403.3975,0,1,1.4513,,0,83,83,72,1,0,castilian,,,,,,,,,,,,,,,,,,,,,,,,,,,,,,,,,,,,,,,,,,,,,,,,,,,,,,,,
,,,,,,,,,663765ad2bdf17e0c60a3637,None,13 or older,"no, only English or Spanish",no,2025-07-23_06h23.10.307,empathy_intonation_perc,2024.2.4,Win32,59.88023952,663765ad2bdf17e0c60a3637,687ed1b7e638a4cbf2f02089,6880b7b5fa0ff133036931cb,,,,,,,,,,,,,10,1,,./stim/wavs/cuban_match_interrogative-total-yn_Maria-bebe-el-vino.wav,,,,,,,,,,,,,,,,,,,,,,403.3982,405.7133,0,0,1.7851,,0,84,84,9,1,1,cuban,,,,,,,,,,,,,,,,,,,,,,,,,,,,,,,,,,,,,,,,,,,,,,,,,,,,,,,,
,,,,,,,,,663765ad2bdf17e0c60a3637,None,13 or older,"no, only English or Spanish",no,2025-07-23_06h23.10.307,empathy_intonation_perc,2024.2.4,Win32,59.88023952,663765ad2bdf17e0c60a3637,687ed1b7e638a4cbf2f02089,6880b7b5fa0ff133036931cb,,,,,,,,,,,,,24,1,,./stim/wavs/puertorican_match_interrogative-total-yn_Maria-bebe-el-vino.wav,,,,,,,,,,,,,,,,,,,,,,405.714,407.8291,0,0,1.5835,,0,85,85,23,1,1,puertorican,,,,,,,,,,,,,,,,,,,,,,,,,,,,,,,,,,,,,,,,,,,,,,,,,,,,,,,,
,,,,,,,,,663765ad2bdf17e0c60a3637,None,13 or older,"no, only English or Spanish",no,2025-07-23_06h23.10.307,empathy_intonation_perc,2024.2.4,Win32,59.88023952,663765ad2bdf17e0c60a3637,687ed1b7e638a4cbf2f02089,6880b7b5fa0ff133036931cb,,,,,,,,,,,,,1,1,,./stim/wavs/castilian_match_interrogative-total-yn_David-leia-el-libro.wav,,,,,,,,,,,,,,,,,,,,,,407.8297,410.078,0,0,1.7178,,0,86,86,0,1,0,castilian,,,,,,,,,,,,,,,,,,,,,,,,,,,,,,,,,,,,,,,,,,,,,,,,,,,,,,,,
,,,,,,,,,663765ad2bdf17e0c60a3637,None,13 or older,"no, only English or Spanish",no,2025-07-23_06h23.10.307,empathy_intonation_perc,2024.2.4,Win32,59.88023952,663765ad2bdf17e0c60a3637,687ed1b7e638a4cbf2f02089,6880b7b5fa0ff133036931cb,,,,,,,,,,,,,75,0,,./stim/wavs/cuban_mismatch_declarative-broad-focus_El-hombre-mira-la-luna.wav,,,,,,,,,,,,,,,,,,,,,,410.0786,412.328,0,1,1.7221,,0,87,87,74,1,0,cuban,,,,,,,,,,,,,,,,,,,,,,,,,,,,,,,,,,,,,,,,,,,,,,,,,,,,,,,,
,,,,,,,"Great! Now we will move on. The next task consists of about 60 trials, in each of which you will see a string of letters. 
  
  Your task is to decide whether this is a real Spanish word or not.", (press the spacebar to continue),663765ad2bdf17e0c60a3637,None,13 or older,"no, only English or Spanish",no,2025-07-23_06h23.10.307,empathy_intonation_perc,2024.2.4,Win32,59.88023952,663765ad2bdf17e0c60a3637,687ed1b7e638a4cbf2f02089,6880b7b5fa0ff133036931cb,,,,,,,,,,,,,,,,,,,,,,,,,,,,,,,,,,,,,,,,,,,,,,,,,,,412.3422,421.175,0,0,0,0,1,,,,,,,,,,,,,,,,,,,,,,,,,,,,,,,,,,,,,,,,,,,,,,,,,
,,,,,,,"If you think it is an existing Spanish word, you type '1' (for 'REAL'), and if you think it is not an existing Spanish word, you type '0' (for 'FAKE').", (press the spacebar to continue),663765ad2bdf17e0c60a3637,None,13 or older,"no, only English or Spanish",no,2025-07-23_06h23.10.307,empathy_intonation_perc,2024.2.4,Win32,59.88023952,663765ad2bdf17e0c60a3637,687ed1b7e638a4cbf2f02089,6880b7b5fa0ff133036931cb,,,,,,,,,,,,,,,,,,,,,,,,,,,,,,,,,,,,,,,,,,,,,,,,,,,421.1785,427.0895,0,1,1,1,1,,,,,,,,,,,,,,,,,,,,,,,,,,,,,,,,,,,,,,,,,,,,,,,,,
,,,,,,,"If you are sure that the word exists, even though you don’t know its exact meaning, you may still respond '1' (REAL). 
  
  But if you are not sure if it is an existing word, you should respond '0' (FAKE).
  
  Let's do a practice round...", (press the spacebar to continue),663765ad2bdf17e0c60a3637,None,13 or older,"no, only English or Spanish",no,2025-07-23_06h23.10.307,empathy_intonation_perc,2024.2.4,Win32,59.88023952,663765ad2bdf17e0c60a3637,687ed1b7e638a4cbf2f02089,6880b7b5fa0ff133036931cb,,,,,,,,,,,,,,,,,,,,,,,,,,,,,,,,,,,,,,,,,,,,,,,,,,,427.0928,434.7367,0,2,2,2,1,,,,,,,,,,,,,,,,,,,,,,,,,,,,,,,,,,,,,,,,,,,,,,,,,
,,,,,,,,,663765ad2bdf17e0c60a3637,None,13 or older,"no, only English or Spanish",no,2025-07-23_06h23.10.307,empathy_intonation_perc,2024.2.4,Win32,59.88023952,663765ad2bdf17e0c60a3637,687ed1b7e638a4cbf2f02089,6880b7b5fa0ff133036931cb,,,,,,,,,,,,,,0,,,,,,,,,,,,,,,,,,,,,,,,,,,,,,,,,,,,,,,,,,,,434.745,438.3522,0,1,3.0775,,438.3523,439.3522,0,0,0,0,1,0,depiste,REAL,FAKE,,,,,,,,,,,,,,,,,,,,,,,,,,,,,,,,
,,,,,,,,,663765ad2bdf17e0c60a3637,None,13 or older,"no, only English or Spanish",no,2025-07-23_06h23.10.307,empathy_intonation_perc,2024.2.4,Win32,59.88023952,663765ad2bdf17e0c60a3637,687ed1b7e638a4cbf2f02089,6880b7b5fa0ff133036931cb,,,,,,,,,,,,,,1,,,,,,,,,,,,,,,,,,,,,,,,,,,,,,,,,,,,,,,,,,,,439.3541,441.8349,1,1,1.9522,,441.835,442.8345,0,1,1,1,1,0,sí,REAL,FAKE,,,,,,,,,,,,,,,,,,,,,,,,,,,,,,,,
,,,,,,,,,663765ad2bdf17e0c60a3637,None,13 or older,"no, only English or Spanish",no,2025-07-23_06h23.10.307,empathy_intonation_perc,2024.2.4,Win32,59.88023952,663765ad2bdf17e0c60a3637,687ed1b7e638a4cbf2f02089,6880b7b5fa0ff133036931cb,,,,,,,,,,,,,,0,,,,,,,,,,,,,,,,,,,,,,,,,,,,,,,,,,,,,,,,,,,,442.8369,444.8837,0,1,1.5098,,444.8838,445.8836,0,2,2,2,1,0,coné,REAL,FAKE,,,,,,,,,,,,,,,,,,,,,,,,,,,,,,,,
,,,,,,,,,663765ad2bdf17e0c60a3637,None,13 or older,"no, only English or Spanish",no,2025-07-23_06h23.10.307,empathy_intonation_perc,2024.2.4,Win32,59.88023952,663765ad2bdf17e0c60a3637,687ed1b7e638a4cbf2f02089,6880b7b5fa0ff133036931cb,,,,,,,,,,,,,,0,,,,,,,,,,,,,,,,,,,,,,,,,,,,,,,,,,,,,,,,,,,,445.8854,447.7327,0,1,1.3105,,447.7329,448.7323,0,3,3,3,1,0,calpar,REAL,FAKE,,,,,,,,,,,,,,,,,,,,,,,,,,,,,,,,
,,,,,,,,,663765ad2bdf17e0c60a3637,None,13 or older,"no, only English or Spanish",no,2025-07-23_06h23.10.307,empathy_intonation_perc,2024.2.4,Win32,59.88023952,663765ad2bdf17e0c60a3637,687ed1b7e638a4cbf2f02089,6880b7b5fa0ff133036931cb,,,,,,,,,,,,,,0,,,,,,,,,,,,,,,,,,,,,,,,,,,,,,,,,,,,,,,,,,,,448.7342,450.5819,1,0,1.3082,,450.5841,451.5814,0,4,4,4,1,0,joten,REAL,FAKE,,,,,,,,,,,,,,,,,,,,,,,,,,,,,,,,
,,,,,,,,,663765ad2bdf17e0c60a3637,None,13 or older,"no, only English or Spanish",no,2025-07-23_06h23.10.307,empathy_intonation_perc,2024.2.4,Win32,59.88023952,663765ad2bdf17e0c60a3637,687ed1b7e638a4cbf2f02089,6880b7b5fa0ff133036931cb,,,,,,,,,,,,,,1,,,,,,,,,,,,,,,,,,,,,,,,,,,,,,,,,,,,,,,,,,,,451.5829,453.9307,1,1,1.8195,,453.9318,454.9302,0,5,5,5,1,0,sacapuntas,REAL,FAKE,,,,,,,,,,,,,,,,,,,,,,,,,,,,,,,,
,,,,,,,,,663765ad2bdf17e0c60a3637,None,13 or older,"no, only English or Spanish",no,2025-07-23_06h23.10.307,empathy_intonation_perc,2024.2.4,Win32,59.88023952,663765ad2bdf17e0c60a3637,687ed1b7e638a4cbf2f02089,6880b7b5fa0ff133036931cb,,,,,,,,,,,,,,0,,,,,,,,,,,,,,,,,,,,,,,,,,,,,,,,,,,,,,,,,,,,454.9325,456.6964,1,0,1.2292,,456.6975,457.6964,0,6,6,6,1,0,priba,REAL,FAKE,,,,,,,,,,,,,,,,,,,,,,,,,,,,,,,,
,,,,,,,,,663765ad2bdf17e0c60a3637,None,13 or older,"no, only English or Spanish",no,2025-07-23_06h23.10.307,empathy_intonation_perc,2024.2.4,Win32,59.88023952,663765ad2bdf17e0c60a3637,687ed1b7e638a4cbf2f02089,6880b7b5fa0ff133036931cb,,,,,,,,,,,,,,0,,,,,,,,,,,,,,,,,,,,,,,,,,,,,,,,,,,,,,,,,,,,457.6985,459.5956,0,1,1.367,,459.597,460.5954,0,7,7,7,1,0,pelasula,REAL,FAKE,,,,,,,,,,,,,,,,,,,,,,,,,,,,,,,,
,,,,,,,,,663765ad2bdf17e0c60a3637,None,13 or older,"no, only English or Spanish",no,2025-07-23_06h23.10.307,empathy_intonation_perc,2024.2.4,Win32,59.88023952,663765ad2bdf17e0c60a3637,687ed1b7e638a4cbf2f02089,6880b7b5fa0ff133036931cb,,,,,,,,,,,,,,1,,,,,,,,,,,,,,,,,,,,,,,,,,,,,,,,,,,,,,,,,,,,460.5971,462.7944,0,0,1.6616,,462.7958,463.7932,0,8,8,8,1,0,bien,REAL,FAKE,,,,,,,,,,,,,,,,,,,,,,,,,,,,,,,,
,,,,,,,,,663765ad2bdf17e0c60a3637,None,13 or older,"no, only English or Spanish",no,2025-07-23_06h23.10.307,empathy_intonation_perc,2024.2.4,Win32,59.88023952,663765ad2bdf17e0c60a3637,687ed1b7e638a4cbf2f02089,6880b7b5fa0ff133036931cb,,,,,,,,,,,,,,1,,,,,,,,,,,,,,,,,,,,,,,,,,,,,,,,,,,,,,,,,,,,463.7939,465.2435,1,1,0.9324,,465.2446,466.243,0,9,9,9,1,0,casa,REAL,FAKE,,,,,,,,,,,,,,,,,,,,,,,,,,,,,,,,
,,,,,,,,,663765ad2bdf17e0c60a3637,None,13 or older,"no, only English or Spanish",no,2025-07-23_06h23.10.307,empathy_intonation_perc,2024.2.4,Win32,59.88023952,663765ad2bdf17e0c60a3637,687ed1b7e638a4cbf2f02089,6880b7b5fa0ff133036931cb,,,,,,,,,,,,,,0,,,,,,,,,,,,,,,,,,,,,,,,,,,,,,,,,,,,,,,,,,,,466.2444,467.5753,1,0,0.7985,,467.5758,468.5758,0,10,10,10,1,0,lejo,REAL,FAKE,,,,,,,,,,,,,,,,,,,,,,,,,,,,,,,,
,,,,,,,,,663765ad2bdf17e0c60a3637,None,13 or older,"no, only English or Spanish",no,2025-07-23_06h23.10.307,empathy_intonation_perc,2024.2.4,Win32,59.88023952,663765ad2bdf17e0c60a3637,687ed1b7e638a4cbf2f02089,6880b7b5fa0ff133036931cb,,,,,,,,,,,,,,0,,,,,,,,,,,,,,,,,,,,,,,,,,,,,,,,,,,,,,,,,,,,468.5777,470.0918,0,1,0.9831,,470.093,471.0913,0,11,11,11,1,0,pretantas,REAL,FAKE,,,,,,,,,,,,,,,,,,,,,,,,,,,,,,,,
,,,,,,,,,663765ad2bdf17e0c60a3637,None,13 or older,"no, only English or Spanish",no,2025-07-23_06h23.10.307,empathy_intonation_perc,2024.2.4,Win32,59.88023952,663765ad2bdf17e0c60a3637,687ed1b7e638a4cbf2f02089,6880b7b5fa0ff133036931cb,,,,,,,,,,,,,,,,,,,,,,,,,,,,,,,,,,,,,,,,,,,,,,,,,,,,,,,,,,,,,,,,,,,,,,,,,,,471.0918,473.608,,,,,,,,,,,,,,,,,,,,,,,,,,,,,,
,,,,,,,,,663765ad2bdf17e0c60a3637,None,13 or older,"no, only English or Spanish",no,2025-07-23_06h23.10.307,empathy_intonation_perc,2024.2.4,Win32,59.88023952,663765ad2bdf17e0c60a3637,687ed1b7e638a4cbf2f02089,6880b7b5fa0ff133036931cb,,,,,,,,,,,,,,1,,,,,,,,,,,,,,,,,,,,,,,,,,,,,,,,,,,,,,,,,,,,,,,,,,,,,,,,,80,hormiga,,,,,473.6296,475.4067,0,0,1.2415,,0,0,0,79,1,REAL,FAKE,,,,,,,,,,,,,,,,,
,,,,,,,,,663765ad2bdf17e0c60a3637,None,13 or older,"no, only English or Spanish",no,2025-07-23_06h23.10.307,empathy_intonation_perc,2024.2.4,Win32,59.88023952,663765ad2bdf17e0c60a3637,687ed1b7e638a4cbf2f02089,6880b7b5fa0ff133036931cb,,,,,,,,,,,,,,1,,,,,,,,,,,,,,,,,,,,,,,,,,,,,,,,,,,,,,,,,,,,,,,,,,,,,,,,,86,barato,,,,,475.4083,477.1391,1,1,1.1905,,0,1,1,85,1,REAL,FAKE,,,,,,,,,,,,,,,,,
,,,,,,,,,663765ad2bdf17e0c60a3637,None,13 or older,"no, only English or Spanish",no,2025-07-23_06h23.10.307,empathy_intonation_perc,2024.2.4,Win32,59.88023952,663765ad2bdf17e0c60a3637,687ed1b7e638a4cbf2f02089,6880b7b5fa0ff133036931cb,,,,,,,,,,,,,,1,,,,,,,,,,,,,,,,,,,,,,,,,,,,,,,,,,,,,,,,,,,,,,,,,,,,,,,,,36,loro,,,,,477.1409,478.5391,1,1,0.8562,,0,2,2,35,1,REAL,FAKE,,,,,,,,,,,,,,,,,
,,,,,,,,,663765ad2bdf17e0c60a3637,None,13 or older,"no, only English or Spanish",no,2025-07-23_06h23.10.307,empathy_intonation_perc,2024.2.4,Win32,59.88023952,663765ad2bdf17e0c60a3637,687ed1b7e638a4cbf2f02089,6880b7b5fa0ff133036931cb,,,,,,,,,,,,,,1,,,,,,,,,,,,,,,,,,,,,,,,,,,,,,,,,,,,,,,,,,,,,,,,,,,,,,,,,3,pulmones,,,,,478.5409,480.0384,0,0,0.9591,,0,3,3,2,1,REAL,FAKE,,,,,,,,,,,,,,,,,
,,,,,,,,,663765ad2bdf17e0c60a3637,None,13 or older,"no, only English or Spanish",no,2025-07-23_06h23.10.307,empathy_intonation_perc,2024.2.4,Win32,59.88023952,663765ad2bdf17e0c60a3637,687ed1b7e638a4cbf2f02089,6880b7b5fa0ff133036931cb,,,,,,,,,,,,,,1,,,,,,,,,,,,,,,,,,,,,,,,,,,,,,,,,,,,,,,,,,,,,,,,,,,,,,,,,6,tergiversar,,,,,480.0412,481.5389,0,0,0.9617,,0,4,4,5,1,REAL,FAKE,,,,,,,,,,,,,,,,,
,,,,,,,,,663765ad2bdf17e0c60a3637,None,13 or older,"no, only English or Spanish",no,2025-07-23_06h23.10.307,empathy_intonation_perc,2024.2.4,Win32,59.88023952,663765ad2bdf17e0c60a3637,687ed1b7e638a4cbf2f02089,6880b7b5fa0ff133036931cb,,,,,,,,,,,,,,1,,,,,,,,,,,,,,,,,,,,,,,,,,,,,,,,,,,,,,,,,,,,,,,,,,,,,,,,,12,asesinato,,,,,481.5408,483.0544,1,1,0.9781,,0,5,5,11,1,REAL,FAKE,,,,,,,,,,,,,,,,,
,,,,,,,,,663765ad2bdf17e0c60a3637,None,13 or older,"no, only English or Spanish",no,2025-07-23_06h23.10.307,empathy_intonation_perc,2024.2.4,Win32,59.88023952,663765ad2bdf17e0c60a3637,687ed1b7e638a4cbf2f02089,6880b7b5fa0ff133036931cb,,,,,,,,,,,,,,1,,,,,,,,,,,,,,,,,,,,,,,,,,,,,,,,,,,,,,,,,,,,,,,,,,,,,,,,,7,pésimo,,,,,483.0567,484.5035,1,1,0.9069,,0,6,6,6,1,REAL,FAKE,,,,,,,,,,,,,,,,,
,,,,,,,,,663765ad2bdf17e0c60a3637,None,13 or older,"no, only English or Spanish",no,2025-07-23_06h23.10.307,empathy_intonation_perc,2024.2.4,Win32,59.88023952,663765ad2bdf17e0c60a3637,687ed1b7e638a4cbf2f02089,6880b7b5fa0ff133036931cb,,,,,,,,,,,,,,0,,,,,,,,,,,,,,,,,,,,,,,,,,,,,,,,,,,,,,,,,,,,,,,,,,,,,,,,,79,tropaje,,,,,484.5052,486.1365,1,0,1.0854,,0,7,7,78,1,REAL,FAKE,,,,,,,,,,,,,,,,,
,,,,,,,,,663765ad2bdf17e0c60a3637,None,13 or older,"no, only English or Spanish",no,2025-07-23_06h23.10.307,empathy_intonation_perc,2024.2.4,Win32,59.88023952,663765ad2bdf17e0c60a3637,687ed1b7e638a4cbf2f02089,6880b7b5fa0ff133036931cb,,,,,,,,,,,,,,1,,,,,,,,,,,,,,,,,,,,,,,,,,,,,,,,,,,,,,,,,,,,,,,,,,,,,,,,,2,pellizcar,,,,,486.1394,487.5689,0,0,0.8909,,0,8,8,1,1,REAL,FAKE,,,,,,,,,,,,,,,,,
,,,,,,,,,663765ad2bdf17e0c60a3637,None,13 or older,"no, only English or Spanish",no,2025-07-23_06h23.10.307,empathy_intonation_perc,2024.2.4,Win32,59.88023952,663765ad2bdf17e0c60a3637,687ed1b7e638a4cbf2f02089,6880b7b5fa0ff133036931cb,,,,,,,,,,,,,,1,,,,,,,,,,,,,,,,,,,,,,,,,,,,,,,,,,,,,,,,,,,,,,,,,,,,,,,,,55,nevar,,,,,487.5699,490.1517,0,0,2.0405,,0,9,9,54,1,REAL,FAKE,,,,,,,,,,,,,,,,,
,,,,,,,,,663765ad2bdf17e0c60a3637,None,13 or older,"no, only English or Spanish",no,2025-07-23_06h23.10.307,empathy_intonation_perc,2024.2.4,Win32,59.88023952,663765ad2bdf17e0c60a3637,687ed1b7e638a4cbf2f02089,6880b7b5fa0ff133036931cb,,,,,,,,,,,,,,0,,,,,,,,,,,,,,,,,,,,,,,,,,,,,,,,,,,,,,,,,,,,,,,,,,,,,,,,,47,cartinar,,,,,490.1543,491.5677,0,1,0.877,,0,10,10,46,1,REAL,FAKE,,,,,,,,,,,,,,,,,
,,,,,,,,,663765ad2bdf17e0c60a3637,None,13 or older,"no, only English or Spanish",no,2025-07-23_06h23.10.307,empathy_intonation_perc,2024.2.4,Win32,59.88023952,663765ad2bdf17e0c60a3637,687ed1b7e638a4cbf2f02089,6880b7b5fa0ff133036931cb,,,,,,,,,,,,,,1,,,,,,,,,,,,,,,,,,,,,,,,,,,,,,,,,,,,,,,,,,,,,,,,,,,,,,,,,14,yunque,,,,,491.5698,492.8839,0,0,0.7766,,0,11,11,13,1,REAL,FAKE,,,,,,,,,,,,,,,,,
,,,,,,,,,663765ad2bdf17e0c60a3637,None,13 or older,"no, only English or Spanish",no,2025-07-23_06h23.10.307,empathy_intonation_perc,2024.2.4,Win32,59.88023952,663765ad2bdf17e0c60a3637,687ed1b7e638a4cbf2f02089,6880b7b5fa0ff133036931cb,,,,,,,,,,,,,,1,,,,,,,,,,,,,,,,,,,,,,,,,,,,,,,,,,,,,,,,,,,,,,,,,,,,,,,,,76,atar,,,,,492.8857,494.2501,1,1,0.8187,,0,12,12,75,1,REAL,FAKE,,,,,,,,,,,,,,,,,
,,,,,,,,,663765ad2bdf17e0c60a3637,None,13 or older,"no, only English or Spanish",no,2025-07-23_06h23.10.307,empathy_intonation_perc,2024.2.4,Win32,59.88023952,663765ad2bdf17e0c60a3637,687ed1b7e638a4cbf2f02089,6880b7b5fa0ff133036931cb,,,,,,,,,,,,,,1,,,,,,,,,,,,,,,,,,,,,,,,,,,,,,,,,,,,,,,,,,,,,,,,,,,,,,,,,9,hacha,,,,,494.2522,495.8828,0,0,1.0864,,0,13,13,8,1,REAL,FAKE,,,,,,,,,,,,,,,,,
,,,,,,,,,663765ad2bdf17e0c60a3637,None,13 or older,"no, only English or Spanish",no,2025-07-23_06h23.10.307,empathy_intonation_perc,2024.2.4,Win32,59.88023952,663765ad2bdf17e0c60a3637,687ed1b7e638a4cbf2f02089,6880b7b5fa0ff133036931cb,,,,,,,,,,,,,,1,,,,,,,,,,,,,,,,,,,,,,,,,,,,,,,,,,,,,,,,,,,,,,,,,,,,,,,,,71,polvoriento,,,,,495.8845,497.2159,1,1,0.793,,0,14,14,70,1,REAL,FAKE,,,,,,,,,,,,,,,,,
,,,,,,,,,663765ad2bdf17e0c60a3637,None,13 or older,"no, only English or Spanish",no,2025-07-23_06h23.10.307,empathy_intonation_perc,2024.2.4,Win32,59.88023952,663765ad2bdf17e0c60a3637,687ed1b7e638a4cbf2f02089,6880b7b5fa0ff133036931cb,,,,,,,,,,,,,,0,,,,,,,,,,,,,,,,,,,,,,,,,,,,,,,,,,,,,,,,,,,,,,,,,,,,,,,,,19,brecedad,,,,,497.2176,498.5654,0,1,0.806,,0,15,15,18,1,REAL,FAKE,,,,,,,,,,,,,,,,,
,,,,,,,,,663765ad2bdf17e0c60a3637,None,13 or older,"no, only English or Spanish",no,2025-07-23_06h23.10.307,empathy_intonation_perc,2024.2.4,Win32,59.88023952,663765ad2bdf17e0c60a3637,687ed1b7e638a4cbf2f02089,6880b7b5fa0ff133036931cb,,,,,,,,,,,,,,0,,,,,,,,,,,,,,,,,,,,,,,,,,,,,,,,,,,,,,,,,,,,,,,,,,,,,,,,,58,plaudir,,,,,498.5669,500.2151,0,1,1.1021,,0,16,16,57,1,REAL,FAKE,,,,,,,,,,,,,,,,,
,,,,,,,,,663765ad2bdf17e0c60a3637,None,13 or older,"no, only English or Spanish",no,2025-07-23_06h23.10.307,empathy_intonation_perc,2024.2.4,Win32,59.88023952,663765ad2bdf17e0c60a3637,687ed1b7e638a4cbf2f02089,6880b7b5fa0ff133036931cb,,,,,,,,,,,,,,1,,,,,,,,,,,,,,,,,,,,,,,,,,,,,,,,,,,,,,,,,,,,,,,,,,,,,,,,,34,aviso,,,,,500.2171,501.5978,1,1,0.8402,,0,17,17,33,1,REAL,FAKE,,,,,,,,,,,,,,,,,
,,,,,,,,,663765ad2bdf17e0c60a3637,None,13 or older,"no, only English or Spanish",no,2025-07-23_06h23.10.307,empathy_intonation_perc,2024.2.4,Win32,59.88023952,663765ad2bdf17e0c60a3637,687ed1b7e638a4cbf2f02089,6880b7b5fa0ff133036931cb,,,,,,,,,,,,,,1,,,,,,,,,,,,,,,,,,,,,,,,,,,,,,,,,,,,,,,,,,,,,,,,,,,,,,,,,73,hervidor,,,,,501.5995,502.6678,1,1,0.5311,,0,18,18,72,1,REAL,FAKE,,,,,,,,,,,,,,,,,
,,,,,,,,,663765ad2bdf17e0c60a3637,None,13 or older,"no, only English or Spanish",no,2025-07-23_06h23.10.307,empathy_intonation_perc,2024.2.4,Win32,59.88023952,663765ad2bdf17e0c60a3637,687ed1b7e638a4cbf2f02089,6880b7b5fa0ff133036931cb,,,,,,,,,,,,,,0,,,,,,,,,,,,,,,,,,,,,,,,,,,,,,,,,,,,,,,,,,,,,,,,,,,,,,,,,16,abracer,,,,,502.6694,503.8805,0,1,0.6692,,0,19,19,15,1,REAL,FAKE,,,,,,,,,,,,,,,,,
,,,,,,,,,663765ad2bdf17e0c60a3637,None,13 or older,"no, only English or Spanish",no,2025-07-23_06h23.10.307,empathy_intonation_perc,2024.2.4,Win32,59.88023952,663765ad2bdf17e0c60a3637,687ed1b7e638a4cbf2f02089,6880b7b5fa0ff133036931cb,,,,,,,,,,,,,,0,,,,,,,,,,,,,,,,,,,,,,,,,,,,,,,,,,,,,,,,,,,,,,,,,,,,,,,,,70,temblo,,,,,503.8824,505.3967,1,0,0.9681,,0,20,20,69,1,REAL,FAKE,,,,,,,,,,,,,,,,,
,,,,,,,,,663765ad2bdf17e0c60a3637,None,13 or older,"no, only English or Spanish",no,2025-07-23_06h23.10.307,empathy_intonation_perc,2024.2.4,Win32,59.88023952,663765ad2bdf17e0c60a3637,687ed1b7e638a4cbf2f02089,6880b7b5fa0ff133036931cb,,,,,,,,,,,,,,0,,,,,,,,,,,,,,,,,,,,,,,,,,,,,,,,,,,,,,,,,,,,,,,,,,,,,,,,,18,arsa,,,,,505.3988,506.6789,0,1,0.7349,,0,21,21,17,1,REAL,FAKE,,,,,,,,,,,,,,,,,
,,,,,,,,,663765ad2bdf17e0c60a3637,None,13 or older,"no, only English or Spanish",no,2025-07-23_06h23.10.307,empathy_intonation_perc,2024.2.4,Win32,59.88023952,663765ad2bdf17e0c60a3637,687ed1b7e638a4cbf2f02089,6880b7b5fa0ff133036931cb,,,,,,,,,,,,,,0,,,,,,,,,,,,,,,,,,,,,,,,,,,,,,,,,,,,,,,,,,,,,,,,,,,,,,,,,72,pemición,,,,,506.6801,508.0286,1,0,0.8165,,0,22,22,71,1,REAL,FAKE,,,,,,,,,,,,,,,,,
,,,,,,,,,663765ad2bdf17e0c60a3637,None,13 or older,"no, only English or Spanish",no,2025-07-23_06h23.10.307,empathy_intonation_perc,2024.2.4,Win32,59.88023952,663765ad2bdf17e0c60a3637,687ed1b7e638a4cbf2f02089,6880b7b5fa0ff133036931cb,,,,,,,,,,,,,,1,,,,,,,,,,,,,,,,,,,,,,,,,,,,,,,,,,,,,,,,,,,,,,,,,,,,,,,,,37,granuja,,,,,508.0295,509.5117,0,0,0.938,,0,23,23,36,1,REAL,FAKE,,,,,,,,,,,,,,,,,
,,,,,,,,,663765ad2bdf17e0c60a3637,None,13 or older,"no, only English or Spanish",no,2025-07-23_06h23.10.307,empathy_intonation_perc,2024.2.4,Win32,59.88023952,663765ad2bdf17e0c60a3637,687ed1b7e638a4cbf2f02089,6880b7b5fa0ff133036931cb,,,,,,,,,,,,,,1,,,,,,,,,,,,,,,,,,,,,,,,,,,,,,,,,,,,,,,,,,,,,,,,,,,,,,,,,52,camisa,,,,,509.5136,511.2442,1,1,1.1827,,0,24,24,51,1,REAL,FAKE,,,,,,,,,,,,,,,,,
,,,,,,,,,663765ad2bdf17e0c60a3637,None,13 or older,"no, only English or Spanish",no,2025-07-23_06h23.10.307,empathy_intonation_perc,2024.2.4,Win32,59.88023952,663765ad2bdf17e0c60a3637,687ed1b7e638a4cbf2f02089,6880b7b5fa0ff133036931cb,,,,,,,,,,,,,,0,,,,,,,,,,,,,,,,,,,,,,,,,,,,,,,,,,,,,,,,,,,,,,,,,,,,,,,,,66,hacido,,,,,511.245,512.6107,0,1,0.8184,,0,25,25,65,1,REAL,FAKE,,,,,,,,,,,,,,,,,
,,,,,,,,,663765ad2bdf17e0c60a3637,None,13 or older,"no, only English or Spanish",no,2025-07-23_06h23.10.307,empathy_intonation_perc,2024.2.4,Win32,59.88023952,663765ad2bdf17e0c60a3637,687ed1b7e638a4cbf2f02089,6880b7b5fa0ff133036931cb,,,,,,,,,,,,,,1,,,,,,,,,,,,,,,,,,,,,,,,,,,,,,,,,,,,,,,,,,,,,,,,,,,,,,,,,83,guante,,,,,512.6123,514.2104,0,0,1.0562,,0,26,26,82,1,REAL,FAKE,,,,,,,,,,,,,,,,,
,,,,,,,,,663765ad2bdf17e0c60a3637,None,13 or older,"no, only English or Spanish",no,2025-07-23_06h23.10.307,empathy_intonation_perc,2024.2.4,Win32,59.88023952,663765ad2bdf17e0c60a3637,687ed1b7e638a4cbf2f02089,6880b7b5fa0ff133036931cb,,,,,,,,,,,,,,1,,,,,,,,,,,,,,,,,,,,,,,,,,,,,,,,,,,,,,,,,,,,,,,,,,,,,,,,,51,candado,,,,,514.2123,515.3767,0,0,0.6183,,0,27,27,50,1,REAL,FAKE,,,,,,,,,,,,,,,,,
,,,,,,,,,663765ad2bdf17e0c60a3637,None,13 or older,"no, only English or Spanish",no,2025-07-23_06h23.10.307,empathy_intonation_perc,2024.2.4,Win32,59.88023952,663765ad2bdf17e0c60a3637,687ed1b7e638a4cbf2f02089,6880b7b5fa0ff133036931cb,,,,,,,,,,,,,,1,,,,,,,,,,,,,,,,,,,,,,,,,,,,,,,,,,,,,,,,,,,,,,,,,,,,,,,,,65,bizcocho,,,,,515.3787,516.5928,0,0,0.6684,,0,28,28,64,1,REAL,FAKE,,,,,,,,,,,,,,,,,
,,,,,,,,,663765ad2bdf17e0c60a3637,None,13 or older,"no, only English or Spanish",no,2025-07-23_06h23.10.307,empathy_intonation_perc,2024.2.4,Win32,59.88023952,663765ad2bdf17e0c60a3637,687ed1b7e638a4cbf2f02089,6880b7b5fa0ff133036931cb,,,,,,,,,,,,,,0,,,,,,,,,,,,,,,,,,,,,,,,,,,,,,,,,,,,,,,,,,,,,,,,,,,,,,,,,74,cintro,,,,,516.5949,518.092,0,1,0.9567,,0,29,29,73,1,REAL,FAKE,,,,,,,,,,,,,,,,,
,,,,,,,,,663765ad2bdf17e0c60a3637,None,13 or older,"no, only English or Spanish",no,2025-07-23_06h23.10.307,empathy_intonation_perc,2024.2.4,Win32,59.88023952,663765ad2bdf17e0c60a3637,687ed1b7e638a4cbf2f02089,6880b7b5fa0ff133036931cb,,,,,,,,,,,,,,1,,,,,,,,,,,,,,,,,,,,,,,,,,,,,,,,,,,,,,,,,,,,,,,,,,,,,,,,,91,click the 1 key.,,,,,518.0936,520.2576,1,1,1.6219,,0,30,30,90,1,REAL,FAKE,,,,,,,,,,,,,,,,,
,,,,,,,,,663765ad2bdf17e0c60a3637,None,13 or older,"no, only English or Spanish",no,2025-07-23_06h23.10.307,empathy_intonation_perc,2024.2.4,Win32,59.88023952,663765ad2bdf17e0c60a3637,687ed1b7e638a4cbf2f02089,6880b7b5fa0ff133036931cb,,,,,,,,,,,,,,1,,,,,,,,,,,,,,,,,,,,,,,,,,,,,,,,,,,,,,,,,,,,,,,,,,,,,,,,,75,yacer,,,,,520.259,522.1578,0,0,1.3518,,0,31,31,74,1,REAL,FAKE,,,,,,,,,,,,,,,,,
,,,,,,,,,663765ad2bdf17e0c60a3637,None,13 or older,"no, only English or Spanish",no,2025-07-23_06h23.10.307,empathy_intonation_perc,2024.2.4,Win32,59.88023952,663765ad2bdf17e0c60a3637,687ed1b7e638a4cbf2f02089,6880b7b5fa0ff133036931cb,,,,,,,,,,,,,,1,,,,,,,,,,,,,,,,,,,,,,,,,,,,,,,,,,,,,,,,,,,,,,,,,,,,,,,,,60,matar,,,,,522.1597,524.2734,0,0,1.5734,,0,32,32,59,1,REAL,FAKE,,,,,,,,,,,,,,,,,
,,,,,,,,,663765ad2bdf17e0c60a3637,None,13 or older,"no, only English or Spanish",no,2025-07-23_06h23.10.307,empathy_intonation_perc,2024.2.4,Win32,59.88023952,663765ad2bdf17e0c60a3637,687ed1b7e638a4cbf2f02089,6880b7b5fa0ff133036931cb,,,,,,,,,,,,,,0,,,,,,,,,,,,,,,,,,,,,,,,,,,,,,,,,,,,,,,,,,,,,,,,,,,,,,,,,1,terzo,,,,,524.2751,525.6224,1,0,0.8061,,0,33,33,0,1,REAL,FAKE,,,,,,,,,,,,,,,,,
,,,,,,,,,663765ad2bdf17e0c60a3637,None,13 or older,"no, only English or Spanish",no,2025-07-23_06h23.10.307,empathy_intonation_perc,2024.2.4,Win32,59.88023952,663765ad2bdf17e0c60a3637,687ed1b7e638a4cbf2f02089,6880b7b5fa0ff133036931cb,,,,,,,,,,,,,,1,,,,,,,,,,,,,,,,,,,,,,,,,,,,,,,,,,,,,,,,,,,,,,,,,,,,,,,,,49,ganar,,,,,525.6239,526.8893,0,0,0.7369,,0,34,34,48,1,REAL,FAKE,,,,,,,,,,,,,,,,,
,,,,,,,,,663765ad2bdf17e0c60a3637,None,13 or older,"no, only English or Spanish",no,2025-07-23_06h23.10.307,empathy_intonation_perc,2024.2.4,Win32,59.88023952,663765ad2bdf17e0c60a3637,687ed1b7e638a4cbf2f02089,6880b7b5fa0ff133036931cb,,,,,,,,,,,,,,1,,,,,,,,,,,,,,,,,,,,,,,,,,,,,,,,,,,,,,,,,,,,,,,,,,,,,,,,,41,rebuscar,,,,,526.8914,528.1223,0,0,0.692,,0,35,35,40,1,REAL,FAKE,,,,,,,,,,,,,,,,,
,,,,,,,,,663765ad2bdf17e0c60a3637,None,13 or older,"no, only English or Spanish",no,2025-07-23_06h23.10.307,empathy_intonation_perc,2024.2.4,Win32,59.88023952,663765ad2bdf17e0c60a3637,687ed1b7e638a4cbf2f02089,6880b7b5fa0ff133036931cb,,,,,,,,,,,,,,1,,,,,,,,,,,,,,,,,,,,,,,,,,,,,,,,,,,,,,,,,,,,,,,,,,,,,,,,,38,estornudar,,,,,528.1244,529.3879,0,0,0.7258,,0,36,36,37,1,REAL,FAKE,,,,,,,,,,,,,,,,,
,,,,,,,,,663765ad2bdf17e0c60a3637,None,13 or older,"no, only English or Spanish",no,2025-07-23_06h23.10.307,empathy_intonation_perc,2024.2.4,Win32,59.88023952,663765ad2bdf17e0c60a3637,687ed1b7e638a4cbf2f02089,6880b7b5fa0ff133036931cb,,,,,,,,,,,,,,1,,,,,,,,,,,,,,,,,,,,,,,,,,,,,,,,,,,,,,,,,,,,,,,,,,,,,,,,,39,torpe,,,,,529.3888,530.7874,1,1,0.8685,,0,37,37,38,1,REAL,FAKE,,,,,,,,,,,,,,,,,
,,,,,,,,,663765ad2bdf17e0c60a3637,None,13 or older,"no, only English or Spanish",no,2025-07-23_06h23.10.307,empathy_intonation_perc,2024.2.4,Win32,59.88023952,663765ad2bdf17e0c60a3637,687ed1b7e638a4cbf2f02089,6880b7b5fa0ff133036931cb,,,,,,,,,,,,,,1,,,,,,,,,,,,,,,,,,,,,,,,,,,,,,,,,,,,,,,,,,,,,,,,,,,,,,,,,48,ladrón,,,,,530.7884,532.171,1,1,0.8521,,0,38,38,47,1,REAL,FAKE,,,,,,,,,,,,,,,,,
,,,,,,,,,663765ad2bdf17e0c60a3637,None,13 or older,"no, only English or Spanish",no,2025-07-23_06h23.10.307,empathy_intonation_perc,2024.2.4,Win32,59.88023952,663765ad2bdf17e0c60a3637,687ed1b7e638a4cbf2f02089,6880b7b5fa0ff133036931cb,,,,,,,,,,,,,,0,,,,,,,,,,,,,,,,,,,,,,,,,,,,,,,,,,,,,,,,,,,,,,,,,,,,,,,,,21,capillo,,,,,532.1741,533.5366,1,0,0.8164,,0,39,39,20,1,REAL,FAKE,,,,,,,,,,,,,,,,,
,,,,,,,,,663765ad2bdf17e0c60a3637,None,13 or older,"no, only English or Spanish",no,2025-07-23_06h23.10.307,empathy_intonation_perc,2024.2.4,Win32,59.88023952,663765ad2bdf17e0c60a3637,687ed1b7e638a4cbf2f02089,6880b7b5fa0ff133036931cb,,,,,,,,,,,,,,1,,,,,,,,,,,,,,,,,,,,,,,,,,,,,,,,,,,,,,,,,,,,,,,,,,,,,,,,,31,pandilla,,,,,533.5375,535.0359,0,0,0.9499,,0,40,40,30,1,REAL,FAKE,,,,,,,,,,,,,,,,,
,,,,,,,,,663765ad2bdf17e0c60a3637,None,13 or older,"no, only English or Spanish",no,2025-07-23_06h23.10.307,empathy_intonation_perc,2024.2.4,Win32,59.88023952,663765ad2bdf17e0c60a3637,687ed1b7e638a4cbf2f02089,6880b7b5fa0ff133036931cb,,,,,,,,,,,,,,0,,,,,,,,,,,,,,,,,,,,,,,,,,,,,,,,,,,,,,,,,,,,,,,,,,,,,,,,,92,click the 0 key.,,,,,535.0368,536.669,0,1,1.0998,,0,41,41,91,1,REAL,FAKE,,,,,,,,,,,,,,,,,
,,,,,,,,,663765ad2bdf17e0c60a3637,None,13 or older,"no, only English or Spanish",no,2025-07-23_06h23.10.307,empathy_intonation_perc,2024.2.4,Win32,59.88023952,663765ad2bdf17e0c60a3637,687ed1b7e638a4cbf2f02089,6880b7b5fa0ff133036931cb,,,,,,,,,,,,,,1,,,,,,,,,,,,,,,,,,,,,,,,,,,,,,,,,,,,,,,,,,,,,,,,,,,,,,,,,61,seda,,,,,536.6701,539.0019,0,0,1.7849,,0,42,42,60,1,REAL,FAKE,,,,,,,,,,,,,,,,,
,,,,,,,,,663765ad2bdf17e0c60a3637,None,13 or older,"no, only English or Spanish",no,2025-07-23_06h23.10.307,empathy_intonation_perc,2024.2.4,Win32,59.88023952,663765ad2bdf17e0c60a3637,687ed1b7e638a4cbf2f02089,6880b7b5fa0ff133036931cb,,,,,,,,,,,,,,1,,,,,,,,,,,,,,,,,,,,,,,,,,,,,,,,,,,,,,,,,,,,,,,,,,,,,,,,,20,ávido,,,,,539.0046,540.4347,1,1,0.8854,,0,43,43,19,1,REAL,FAKE,,,,,,,,,,,,,,,,,
,,,,,,,,,663765ad2bdf17e0c60a3637,None,13 or older,"no, only English or Spanish",no,2025-07-23_06h23.10.307,empathy_intonation_perc,2024.2.4,Win32,59.88023952,663765ad2bdf17e0c60a3637,687ed1b7e638a4cbf2f02089,6880b7b5fa0ff133036931cb,,,,,,,,,,,,,,1,,,,,,,,,,,,,,,,,,,,,,,,,,,,,,,,,,,,,,,,,,,,,,,,,,,,,,,,,78,frondoso,,,,,540.437,541.6677,0,0,0.6856,,0,44,44,77,1,REAL,FAKE,,,,,,,,,,,,,,,,,
,,,,,,,,,663765ad2bdf17e0c60a3637,None,13 or older,"no, only English or Spanish",no,2025-07-23_06h23.10.307,empathy_intonation_perc,2024.2.4,Win32,59.88023952,663765ad2bdf17e0c60a3637,687ed1b7e638a4cbf2f02089,6880b7b5fa0ff133036931cb,,,,,,,,,,,,,,1,,,,,,,,,,,,,,,,,,,,,,,,,,,,,,,,,,,,,,,,,,,,,,,,,,,,,,,,,25,bisagra,,,,,541.6701,543.0839,1,1,0.876,,0,45,45,24,1,REAL,FAKE,,,,,,,,,,,,,,,,,
,,,,,,,,,663765ad2bdf17e0c60a3637,None,13 or older,"no, only English or Spanish",no,2025-07-23_06h23.10.307,empathy_intonation_perc,2024.2.4,Win32,59.88023952,663765ad2bdf17e0c60a3637,687ed1b7e638a4cbf2f02089,6880b7b5fa0ff133036931cb,,,,,,,,,,,,,,1,,,,,,,,,,,,,,,,,,,,,,,,,,,,,,,,,,,,,,,,,,,,,,,,,,,,,,,,,43,canela,,,,,543.0858,544.3003,0,0,0.6718,,0,46,46,42,1,REAL,FAKE,,,,,,,,,,,,,,,,,
,,,,,,,,,663765ad2bdf17e0c60a3637,None,13 or older,"no, only English or Spanish",no,2025-07-23_06h23.10.307,empathy_intonation_perc,2024.2.4,Win32,59.88023952,663765ad2bdf17e0c60a3637,687ed1b7e638a4cbf2f02089,6880b7b5fa0ff133036931cb,,,,,,,,,,,,,,1,,,,,,,,,,,,,,,,,,,,,,,,,,,,,,,,,,,,,,,,,,,,,,,,,,,,,,,,,40,alfombra,,,,,544.3023,545.7326,0,0,0.8881,,0,47,47,39,1,REAL,FAKE,,,,,,,,,,,,,,,,,
,,,,,,,,,663765ad2bdf17e0c60a3637,None,13 or older,"no, only English or Spanish",no,2025-07-23_06h23.10.307,empathy_intonation_perc,2024.2.4,Win32,59.88023952,663765ad2bdf17e0c60a3637,687ed1b7e638a4cbf2f02089,6880b7b5fa0ff133036931cb,,,,,,,,,,,,,,0,,,,,,,,,,,,,,,,,,,,,,,,,,,,,,,,,,,,,,,,,,,,,,,,,,,,,,,,,42,cadallo,,,,,545.734,547.0326,0,1,0.7515,,0,48,48,41,1,REAL,FAKE,,,,,,,,,,,,,,,,,
,,,,,,,,,663765ad2bdf17e0c60a3637,None,13 or older,"no, only English or Spanish",no,2025-07-23_06h23.10.307,empathy_intonation_perc,2024.2.4,Win32,59.88023952,663765ad2bdf17e0c60a3637,687ed1b7e638a4cbf2f02089,6880b7b5fa0ff133036931cb,,,,,,,,,,,,,,1,,,,,,,,,,,,,,,,,,,,,,,,,,,,,,,,,,,,,,,,,,,,,,,,,,,,,,,,,54,fomentar,,,,,547.0346,548.4319,0,0,0.8525,,0,49,49,53,1,REAL,FAKE,,,,,,,,,,,,,,,,,
,,,,,,,,,663765ad2bdf17e0c60a3637,None,13 or older,"no, only English or Spanish",no,2025-07-23_06h23.10.307,empathy_intonation_perc,2024.2.4,Win32,59.88023952,663765ad2bdf17e0c60a3637,687ed1b7e638a4cbf2f02089,6880b7b5fa0ff133036931cb,,,,,,,,,,,,,,1,,,,,,,,,,,,,,,,,,,,,,,,,,,,,,,,,,,,,,,,,,,,,,,,,,,,,,,,,13,helar,,,,,548.4339,549.7809,0,0,0.8091,,0,50,50,12,1,REAL,FAKE,,,,,,,,,,,,,,,,,
,,,,,,,,,663765ad2bdf17e0c60a3637,None,13 or older,"no, only English or Spanish",no,2025-07-23_06h23.10.307,empathy_intonation_perc,2024.2.4,Win32,59.88023952,663765ad2bdf17e0c60a3637,687ed1b7e638a4cbf2f02089,6880b7b5fa0ff133036931cb,,,,,,,,,,,,,,0,,,,,,,,,,,,,,,,,,,,,,,,,,,,,,,,,,,,,,,,,,,,,,,,,,,,,,,,,87,grodo,,,,,549.7817,551.0142,0,1,0.6858,,0,51,51,86,1,REAL,FAKE,,,,,,,,,,,,,,,,,
,,,,,,,,,663765ad2bdf17e0c60a3637,None,13 or older,"no, only English or Spanish",no,2025-07-23_06h23.10.307,empathy_intonation_perc,2024.2.4,Win32,59.88023952,663765ad2bdf17e0c60a3637,687ed1b7e638a4cbf2f02089,6880b7b5fa0ff133036931cb,,,,,,,,,,,,,,1,,,,,,,,,,,,,,,,,,,,,,,,,,,,,,,,,,,,,,,,,,,,,,,,,,,,,,,,,15,regar,,,,,551.0155,552.5141,0,0,0.9578,,0,52,52,14,1,REAL,FAKE,,,,,,,,,,,,,,,,,
,,,,,,,,,663765ad2bdf17e0c60a3637,None,13 or older,"no, only English or Spanish",no,2025-07-23_06h23.10.307,empathy_intonation_perc,2024.2.4,Win32,59.88023952,663765ad2bdf17e0c60a3637,687ed1b7e638a4cbf2f02089,6880b7b5fa0ff133036931cb,,,,,,,,,,,,,,1,,,,,,,,,,,,,,,,,,,,,,,,,,,,,,,,,,,,,,,,,,,,,,,,,,,,,,,,,69,engatusar,,,,,552.5167,553.5804,1,1,0.5237,,0,53,53,68,1,REAL,FAKE,,,,,,,,,,,,,,,,,
,,,,,,,,,663765ad2bdf17e0c60a3637,None,13 or older,"no, only English or Spanish",no,2025-07-23_06h23.10.307,empathy_intonation_perc,2024.2.4,Win32,59.88023952,663765ad2bdf17e0c60a3637,687ed1b7e638a4cbf2f02089,6880b7b5fa0ff133036931cb,,,,,,,,,,,,,,0,,,,,,,,,,,,,,,,,,,,,,,,,,,,,,,,,,,,,,,,,,,,,,,,,,,,,,,,,27,acutación,,,,,553.5821,555.1633,0,1,1.036,,0,54,54,26,1,REAL,FAKE,,,,,,,,,,,,,,,,,
,,,,,,,,,663765ad2bdf17e0c60a3637,None,13 or older,"no, only English or Spanish",no,2025-07-23_06h23.10.307,empathy_intonation_perc,2024.2.4,Win32,59.88023952,663765ad2bdf17e0c60a3637,687ed1b7e638a4cbf2f02089,6880b7b5fa0ff133036931cb,,,,,,,,,,,,,,1,,,,,,,,,,,,,,,,,,,,,,,,,,,,,,,,,,,,,,,,,,,,,,,,,,,,,,,,,89,prisa,,,,,555.1653,556.6289,1,1,0.9183,,0,55,55,88,1,REAL,FAKE,,,,,,,,,,,,,,,,,
,,,,,,,,,663765ad2bdf17e0c60a3637,None,13 or older,"no, only English or Spanish",no,2025-07-23_06h23.10.307,empathy_intonation_perc,2024.2.4,Win32,59.88023952,663765ad2bdf17e0c60a3637,687ed1b7e638a4cbf2f02089,6880b7b5fa0ff133036931cb,,,,,,,,,,,,,,0,,,,,,,,,,,,,,,,,,,,,,,,,,,,,,,,,,,,,,,,,,,,,,,,,,,,,,,,,30,alardio,,,,,556.6299,558.0282,0,1,0.8493,,0,56,56,29,1,REAL,FAKE,,,,,,,,,,,,,,,,,
,,,,,,,,,663765ad2bdf17e0c60a3637,None,13 or older,"no, only English or Spanish",no,2025-07-23_06h23.10.307,empathy_intonation_perc,2024.2.4,Win32,59.88023952,663765ad2bdf17e0c60a3637,687ed1b7e638a4cbf2f02089,6880b7b5fa0ff133036931cb,,,,,,,,,,,,,,0,,,,,,,,,,,,,,,,,,,,,,,,,,,,,,,,,,,,,,,,,,,,,,,,,,,,,,,,,82,empirador,,,,,558.0291,559.2283,0,1,0.6678,,0,57,57,81,1,REAL,FAKE,,,,,,,,,,,,,,,,,
,,,,,,,,,663765ad2bdf17e0c60a3637,None,13 or older,"no, only English or Spanish",no,2025-07-23_06h23.10.307,empathy_intonation_perc,2024.2.4,Win32,59.88023952,663765ad2bdf17e0c60a3637,687ed1b7e638a4cbf2f02089,6880b7b5fa0ff133036931cb,,,,,,,,,,,,,,0,,,,,,,,,,,,,,,,,,,,,,,,,,,,,,,,,,,,,,,,,,,,,,,,,,,,,,,,,10,antar,,,,,559.23,560.7613,1,0,0.9901,,0,58,58,9,1,REAL,FAKE,,,,,,,,,,,,,,,,,
,,,,,,,,,663765ad2bdf17e0c60a3637,None,13 or older,"no, only English or Spanish",no,2025-07-23_06h23.10.307,empathy_intonation_perc,2024.2.4,Win32,59.88023952,663765ad2bdf17e0c60a3637,687ed1b7e638a4cbf2f02089,6880b7b5fa0ff133036931cb,,,,,,,,,,,,,,0,,,,,,,,,,,,,,,,,,,,,,,,,,,,,,,,,,,,,,,,,,,,,,,,,,,,,,,,,33,pauca,,,,,560.7633,562.2933,1,0,0.9869,,0,59,59,32,1,REAL,FAKE,,,,,,,,,,,,,,,,,
,,,,,,,,,663765ad2bdf17e0c60a3637,None,13 or older,"no, only English or Spanish",no,2025-07-23_06h23.10.307,empathy_intonation_perc,2024.2.4,Win32,59.88023952,663765ad2bdf17e0c60a3637,687ed1b7e638a4cbf2f02089,6880b7b5fa0ff133036931cb,,,,,,,,,,,,,,0,,,,,,,,,,,,,,,,,,,,,,,,,,,,,,,,,,,,,,,,,,,,,,,,,,,,,,,,,4,batillón,,,,,562.2943,563.6602,0,1,0.8182,,0,60,60,3,1,REAL,FAKE,,,,,,,,,,,,,,,,,
,,,,,,,,,663765ad2bdf17e0c60a3637,None,13 or older,"no, only English or Spanish",no,2025-07-23_06h23.10.307,empathy_intonation_perc,2024.2.4,Win32,59.88023952,663765ad2bdf17e0c60a3637,687ed1b7e638a4cbf2f02089,6880b7b5fa0ff133036931cb,,,,,,,,,,,,,,1,,,,,,,,,,,,,,,,,,,,,,,,,,,,,,,,,,,,,,,,,,,,,,,,,,,,,,,,,46,martillo,,,,,563.6619,565.3097,1,1,1.1053,,0,61,61,45,1,REAL,FAKE,,,,,,,,,,,,,,,,,
,,,,,,,,,663765ad2bdf17e0c60a3637,None,13 or older,"no, only English or Spanish",no,2025-07-23_06h23.10.307,empathy_intonation_perc,2024.2.4,Win32,59.88023952,663765ad2bdf17e0c60a3637,687ed1b7e638a4cbf2f02089,6880b7b5fa0ff133036931cb,,,,,,,,,,,,,,1,,,,,,,,,,,,,,,,,,,,,,,,,,,,,,,,,,,,,,,,,,,,,,,,,,,,,,,,,85,laúd,,,,,565.3125,566.5261,0,0,0.6759,,0,62,62,84,1,REAL,FAKE,,,,,,,,,,,,,,,,,
,,,,,,,,,663765ad2bdf17e0c60a3637,None,13 or older,"no, only English or Spanish",no,2025-07-23_06h23.10.307,empathy_intonation_perc,2024.2.4,Win32,59.88023952,663765ad2bdf17e0c60a3637,687ed1b7e638a4cbf2f02089,6880b7b5fa0ff133036931cb,,,,,,,,,,,,,,0,,,,,,,,,,,,,,,,,,,,,,,,,,,,,,,,,,,,,,,,,,,,,,,,,,,,,,,,,50,flamida,,,,,566.528,567.8082,0,1,0.7343,,0,63,63,49,1,REAL,FAKE,,,,,,,,,,,,,,,,,
,,,,,,,,,663765ad2bdf17e0c60a3637,None,13 or older,"no, only English or Spanish",no,2025-07-23_06h23.10.307,empathy_intonation_perc,2024.2.4,Win32,59.88023952,663765ad2bdf17e0c60a3637,687ed1b7e638a4cbf2f02089,6880b7b5fa0ff133036931cb,,,,,,,,,,,,,,1,,,,,,,,,,,,,,,,,,,,,,,,,,,,,,,,,,,,,,,,,,,,,,,,,,,,,,,,,57,tacaño,,,,,567.8094,569.6749,1,1,1.3217,,0,64,64,56,1,REAL,FAKE,,,,,,,,,,,,,,,,,
,,,,,,,,,663765ad2bdf17e0c60a3637,None,13 or older,"no, only English or Spanish",no,2025-07-23_06h23.10.307,empathy_intonation_perc,2024.2.4,Win32,59.88023952,663765ad2bdf17e0c60a3637,687ed1b7e638a4cbf2f02089,6880b7b5fa0ff133036931cb,,,,,,,,,,,,,,0,,,,,,,,,,,,,,,,,,,,,,,,,,,,,,,,,,,,,,,,,,,,,,,,,,,,,,,,,29,decar,,,,,569.6767,570.8912,0,1,0.6692,,0,65,65,28,1,REAL,FAKE,,,,,,,,,,,,,,,,,
,,,,,,,,,663765ad2bdf17e0c60a3637,None,13 or older,"no, only English or Spanish",no,2025-07-23_06h23.10.307,empathy_intonation_perc,2024.2.4,Win32,59.88023952,663765ad2bdf17e0c60a3637,687ed1b7e638a4cbf2f02089,6880b7b5fa0ff133036931cb,,,,,,,,,,,,,,0,,,,,,,,,,,,,,,,,,,,,,,,,,,,,,,,,,,,,,,,,,,,,,,,,,,,,,,,,23,lampera,,,,,570.8932,572.2075,1,0,0.775,,0,66,66,22,1,REAL,FAKE,,,,,,,,,,,,,,,,,
,,,,,,,,,663765ad2bdf17e0c60a3637,None,13 or older,"no, only English or Spanish",no,2025-07-23_06h23.10.307,empathy_intonation_perc,2024.2.4,Win32,59.88023952,663765ad2bdf17e0c60a3637,687ed1b7e638a4cbf2f02089,6880b7b5fa0ff133036931cb,,,,,,,,,,,,,,1,,,,,,,,,,,,,,,,,,,,,,,,,,,,,,,,,,,,,,,,,,,,,,,,,,,,,,,,,62,flaco,,,,,572.2094,573.5062,0,0,0.7561,,0,67,67,61,1,REAL,FAKE,,,,,,,,,,,,,,,,,
,,,,,,,,,663765ad2bdf17e0c60a3637,None,13 or older,"no, only English or Spanish",no,2025-07-23_06h23.10.307,empathy_intonation_perc,2024.2.4,Win32,59.88023952,663765ad2bdf17e0c60a3637,687ed1b7e638a4cbf2f02089,6880b7b5fa0ff133036931cb,,,,,,,,,,,,,,1,,,,,,,,,,,,,,,,,,,,,,,,,,,,,,,,,,,,,,,,,,,,,,,,,,,,,,,,,56,musgo,,,,,573.507,575.0898,1,1,1.0523,,0,68,68,55,1,REAL,FAKE,,,,,,,,,,,,,,,,,
,,,,,,,,,663765ad2bdf17e0c60a3637,None,13 or older,"no, only English or Spanish",no,2025-07-23_06h23.10.307,empathy_intonation_perc,2024.2.4,Win32,59.88023952,663765ad2bdf17e0c60a3637,687ed1b7e638a4cbf2f02089,6880b7b5fa0ff133036931cb,,,,,,,,,,,,,,0,,,,,,,,,,,,,,,,,,,,,,,,,,,,,,,,,,,,,,,,,,,,,,,,,,,,,,,,,35,rompido,,,,,575.0917,576.2226,1,0,0.5857,,0,69,69,34,1,REAL,FAKE,,,,,,,,,,,,,,,,,
,,,,,,,,,663765ad2bdf17e0c60a3637,None,13 or older,"no, only English or Spanish",no,2025-07-23_06h23.10.307,empathy_intonation_perc,2024.2.4,Win32,59.88023952,663765ad2bdf17e0c60a3637,687ed1b7e638a4cbf2f02089,6880b7b5fa0ff133036931cb,,,,,,,,,,,,,,0,,,,,,,,,,,,,,,,,,,,,,,,,,,,,,,,,,,,,,,,,,,,,,,,,,,,,,,,,17,floroso,,,,,576.2244,577.3722,0,1,0.6021,,0,70,70,16,1,REAL,FAKE,,,,,,,,,,,,,,,,,
,,,,,,,,,663765ad2bdf17e0c60a3637,None,13 or older,"no, only English or Spanish",no,2025-07-23_06h23.10.307,empathy_intonation_perc,2024.2.4,Win32,59.88023952,663765ad2bdf17e0c60a3637,687ed1b7e638a4cbf2f02089,6880b7b5fa0ff133036931cb,,,,,,,,,,,,,,1,,,,,,,,,,,,,,,,,,,,,,,,,,,,,,,,,,,,,,,,,,,,,,,,,,,,,,,,,11,cenefa,,,,,577.374,578.7047,0,0,0.7829,,0,71,71,10,1,REAL,FAKE,,,,,,,,,,,,,,,,,
,,,,,,,,,663765ad2bdf17e0c60a3637,None,13 or older,"no, only English or Spanish",no,2025-07-23_06h23.10.307,empathy_intonation_perc,2024.2.4,Win32,59.88023952,663765ad2bdf17e0c60a3637,687ed1b7e638a4cbf2f02089,6880b7b5fa0ff133036931cb,,,,,,,,,,,,,,1,,,,,,,,,,,,,,,,,,,,,,,,,,,,,,,,,,,,,,,,,,,,,,,,,,,,,,,,,26,secuestro,,,,,578.7059,579.9715,1,1,0.7203,,0,72,72,25,1,REAL,FAKE,,,,,,,,,,,,,,,,,
,,,,,,,,,663765ad2bdf17e0c60a3637,None,13 or older,"no, only English or Spanish",no,2025-07-23_06h23.10.307,empathy_intonation_perc,2024.2.4,Win32,59.88023952,663765ad2bdf17e0c60a3637,687ed1b7e638a4cbf2f02089,6880b7b5fa0ff133036931cb,,,,,,,,,,,,,,1,,,,,,,,,,,,,,,,,,,,,,,,,,,,,,,,,,,,,,,,,,,,,,,,,,,,,,,,,77,tiburón,,,,,579.9733,581.3704,0,0,0.85,,0,73,73,76,1,REAL,FAKE,,,,,,,,,,,,,,,,,
,,,,,,,,,663765ad2bdf17e0c60a3637,None,13 or older,"no, only English or Spanish",no,2025-07-23_06h23.10.307,empathy_intonation_perc,2024.2.4,Win32,59.88023952,663765ad2bdf17e0c60a3637,687ed1b7e638a4cbf2f02089,6880b7b5fa0ff133036931cb,,,,,,,,,,,,,,0,,,,,,,,,,,,,,,,,,,,,,,,,,,,,,,,,,,,,,,,,,,,,,,,,,,,,,,,,8,cadeña,,,,,581.3714,582.6535,1,0,0.7324,,0,74,74,7,1,REAL,FAKE,,,,,,,,,,,,,,,,,
,,,,,,,,,663765ad2bdf17e0c60a3637,None,13 or older,"no, only English or Spanish",no,2025-07-23_06h23.10.307,empathy_intonation_perc,2024.2.4,Win32,59.88023952,663765ad2bdf17e0c60a3637,687ed1b7e638a4cbf2f02089,6880b7b5fa0ff133036931cb,,,,,,,,,,,,,,1,,,,,,,,,,,,,,,,,,,,,,,,,,,,,,,,,,,,,,,,,,,,,,,,,,,,,,,,,5,zapato,,,,,582.6546,583.9198,0,0,0.7233,,0,75,75,4,1,REAL,FAKE,,,,,,,,,,,,,,,,,
,,,,,,,,,663765ad2bdf17e0c60a3637,None,13 or older,"no, only English or Spanish",no,2025-07-23_06h23.10.307,empathy_intonation_perc,2024.2.4,Win32,59.88023952,663765ad2bdf17e0c60a3637,687ed1b7e638a4cbf2f02089,6880b7b5fa0ff133036931cb,,,,,,,,,,,,,,1,,,,,,,,,,,,,,,,,,,,,,,,,,,,,,,,,,,,,,,,,,,,,,,,,,,,,,,,,59,besar,,,,,583.9212,585.1863,0,0,0.7188,,0,76,76,58,1,REAL,FAKE,,,,,,,,,,,,,,,,,
,,,,,,,,,663765ad2bdf17e0c60a3637,None,13 or older,"no, only English or Spanish",no,2025-07-23_06h23.10.307,empathy_intonation_perc,2024.2.4,Win32,59.88023952,663765ad2bdf17e0c60a3637,687ed1b7e638a4cbf2f02089,6880b7b5fa0ff133036931cb,,,,,,,,,,,,,,1,,,,,,,,,,,,,,,,,,,,,,,,,,,,,,,,,,,,,,,,,,,,,,,,,,,,,,,,,45,jilguero,,,,,585.1883,586.9857,1,1,1.2521,,0,77,77,44,1,REAL,FAKE,,,,,,,,,,,,,,,,,
,,,,,,,,,663765ad2bdf17e0c60a3637,None,13 or older,"no, only English or Spanish",no,2025-07-23_06h23.10.307,empathy_intonation_perc,2024.2.4,Win32,59.88023952,663765ad2bdf17e0c60a3637,687ed1b7e638a4cbf2f02089,6880b7b5fa0ff133036931cb,,,,,,,,,,,,,,0,,,,,,,,,,,,,,,,,,,,,,,,,,,,,,,,,,,,,,,,,,,,,,,,,,,,,,,,,63,esposante,,,,,586.9881,588.168,1,0,0.6343,,0,78,78,62,1,REAL,FAKE,,,,,,,,,,,,,,,,,
,,,,,,,,,663765ad2bdf17e0c60a3637,None,13 or older,"no, only English or Spanish",no,2025-07-23_06h23.10.307,empathy_intonation_perc,2024.2.4,Win32,59.88023952,663765ad2bdf17e0c60a3637,687ed1b7e638a4cbf2f02089,6880b7b5fa0ff133036931cb,,,,,,,,,,,,,,1,,,,,,,,,,,,,,,,,,,,,,,,,,,,,,,,,,,,,,,,,,,,,,,,,,,,,,,,,28,merodear,,,,,588.1692,589.5348,1,1,0.8169,,0,79,79,27,1,REAL,FAKE,,,,,,,,,,,,,,,,,
,,,,,,,,,663765ad2bdf17e0c60a3637,None,13 or older,"no, only English or Spanish",no,2025-07-23_06h23.10.307,empathy_intonation_perc,2024.2.4,Win32,59.88023952,663765ad2bdf17e0c60a3637,687ed1b7e638a4cbf2f02089,6880b7b5fa0ff133036931cb,,,,,,,,,,,,,,1,,,,,,,,,,,,,,,,,,,,,,,,,,,,,,,,,,,,,,,,,,,,,,,,,,,,,,,,,90,clavel,,,,,589.5367,590.7511,0,0,0.676,,0,80,80,89,1,REAL,FAKE,,,,,,,,,,,,,,,,,
,,,,,,,,,663765ad2bdf17e0c60a3637,None,13 or older,"no, only English or Spanish",no,2025-07-23_06h23.10.307,empathy_intonation_perc,2024.2.4,Win32,59.88023952,663765ad2bdf17e0c60a3637,687ed1b7e638a4cbf2f02089,6880b7b5fa0ff133036931cb,,,,,,,,,,,,,,1,,,,,,,,,,,,,,,,,,,,,,,,,,,,,,,,,,,,,,,,,,,,,,,,,,,,,,,,,64,orgulloso,,,,,590.7529,592.1338,0,0,0.8348,,0,81,81,63,1,REAL,FAKE,,,,,,,,,,,,,,,,,
,,,,,,,,,663765ad2bdf17e0c60a3637,None,13 or older,"no, only English or Spanish",no,2025-07-23_06h23.10.307,empathy_intonation_perc,2024.2.4,Win32,59.88023952,663765ad2bdf17e0c60a3637,687ed1b7e638a4cbf2f02089,6880b7b5fa0ff133036931cb,,,,,,,,,,,,,,1,,,,,,,,,,,,,,,,,,,,,,,,,,,,,,,,,,,,,,,,,,,,,,,,,,,,,,,,,22,lacayo,,,,,592.1355,593.267,0,0,0.5854,,0,82,82,21,1,REAL,FAKE,,,,,,,,,,,,,,,,,
,,,,,,,,,663765ad2bdf17e0c60a3637,None,13 or older,"no, only English or Spanish",no,2025-07-23_06h23.10.307,empathy_intonation_perc,2024.2.4,Win32,59.88023952,663765ad2bdf17e0c60a3637,687ed1b7e638a4cbf2f02089,6880b7b5fa0ff133036931cb,,,,,,,,,,,,,,1,,,,,,,,,,,,,,,,,,,,,,,,,,,,,,,,,,,,,,,,,,,,,,,,,,,,,,,,,81,pozo,,,,,593.2689,594.3833,0,0,0.5701,,0,83,83,80,1,REAL,FAKE,,,,,,,,,,,,,,,,,
,,,,,,,,,663765ad2bdf17e0c60a3637,None,13 or older,"no, only English or Spanish",no,2025-07-23_06h23.10.307,empathy_intonation_perc,2024.2.4,Win32,59.88023952,663765ad2bdf17e0c60a3637,687ed1b7e638a4cbf2f02089,6880b7b5fa0ff133036931cb,,,,,,,,,,,,,,1,,,,,,,,,,,,,,,,,,,,,,,,,,,,,,,,,,,,,,,,,,,,,,,,,,,,,,,,,24,látigo,,,,,594.3856,595.5826,1,1,0.6585,,0,84,84,23,1,REAL,FAKE,,,,,,,,,,,,,,,,,
,,,,,,,,,663765ad2bdf17e0c60a3637,None,13 or older,"no, only English or Spanish",no,2025-07-23_06h23.10.307,empathy_intonation_perc,2024.2.4,Win32,59.88023952,663765ad2bdf17e0c60a3637,687ed1b7e638a4cbf2f02089,6880b7b5fa0ff133036931cb,,,,,,,,,,,,,,1,,,,,,,,,,,,,,,,,,,,,,,,,,,,,,,,,,,,,,,,,,,,,,,,,,,,,,,,,68,alegre,,,,,595.5844,596.8158,0,0,0.6875,,0,85,85,67,1,REAL,FAKE,,,,,,,,,,,,,,,,,
,,,,,,,,,663765ad2bdf17e0c60a3637,None,13 or older,"no, only English or Spanish",no,2025-07-23_06h23.10.307,empathy_intonation_perc,2024.2.4,Win32,59.88023952,663765ad2bdf17e0c60a3637,687ed1b7e638a4cbf2f02089,6880b7b5fa0ff133036931cb,,,,,,,,,,,,,,0,,,,,,,,,,,,,,,,,,,,,,,,,,,,,,,,,,,,,,,,,,,,,,,,,,,,,,,,,84,escuto,,,,,596.8177,597.9488,1,0,0.5867,,0,86,86,83,1,REAL,FAKE,,,,,,,,,,,,,,,,,
,,,,,,,,,663765ad2bdf17e0c60a3637,None,13 or older,"no, only English or Spanish",no,2025-07-23_06h23.10.307,empathy_intonation_perc,2024.2.4,Win32,59.88023952,663765ad2bdf17e0c60a3637,687ed1b7e638a4cbf2f02089,6880b7b5fa0ff133036931cb,,,,,,,,,,,,,,1,,,,,,,,,,,,,,,,,,,,,,,,,,,,,,,,,,,,,,,,,,,,,,,,,,,,,,,,,88,acantilado,,,,,597.9512,599.0645,1,1,0.5678,,0,87,87,87,1,REAL,FAKE,,,,,,,,,,,,,,,,,
,,,,,,,,,663765ad2bdf17e0c60a3637,None,13 or older,"no, only English or Spanish",no,2025-07-23_06h23.10.307,empathy_intonation_perc,2024.2.4,Win32,59.88023952,663765ad2bdf17e0c60a3637,687ed1b7e638a4cbf2f02089,6880b7b5fa0ff133036931cb,,,,,,,,,,,,,,0,,,,,,,,,,,,,,,,,,,,,,,,,,,,,,,,,,,,,,,,,,,,,,,,,,,,,,,,,53,vegada,,,,,599.0662,600.5146,1,0,0.9021,,0,88,88,52,1,REAL,FAKE,,,,,,,,,,,,,,,,,
,,,,,,,,,663765ad2bdf17e0c60a3637,None,13 or older,"no, only English or Spanish",no,2025-07-23_06h23.10.307,empathy_intonation_perc,2024.2.4,Win32,59.88023952,663765ad2bdf17e0c60a3637,687ed1b7e638a4cbf2f02089,6880b7b5fa0ff133036931cb,,,,,,,,,,,,,,0,,,,,,,,,,,,,,,,,,,,,,,,,,,,,,,,,,,,,,,,,,,,,,,,,,,,,,,,,32,fatacidad,,,,,600.5164,601.8134,0,1,0.7536,,0,89,89,31,1,REAL,FAKE,,,,,,,,,,,,,,,,,
,,,,,,,,,663765ad2bdf17e0c60a3637,None,13 or older,"no, only English or Spanish",no,2025-07-23_06h23.10.307,empathy_intonation_perc,2024.2.4,Win32,59.88023952,663765ad2bdf17e0c60a3637,687ed1b7e638a4cbf2f02089,6880b7b5fa0ff133036931cb,,,,,,,,,,,,,,1,,,,,,,,,,,,,,,,,,,,,,,,,,,,,,,,,,,,,,,,,,,,,,,,,,,,,,,,,67,cabello,,,,,601.8141,603.5636,1,1,1.2183,,0,90,90,66,1,REAL,FAKE,,,,,,,,,,,,,,,,,
,,,,,,,,,663765ad2bdf17e0c60a3637,None,13 or older,"no, only English or Spanish",no,2025-07-23_06h23.10.307,empathy_intonation_perc,2024.2.4,Win32,59.88023952,663765ad2bdf17e0c60a3637,687ed1b7e638a4cbf2f02089,6880b7b5fa0ff133036931cb,,,,,,,,,,,,,,1,,,,,,,,,,,,,,,,,,,,,,,,,,,,,,,,,,,,,,,,,,,,,,,,,,,,,,,,,44,cuchara,,,,,603.5657,604.813,0,0,0.7012,,0,91,91,43,1,REAL,FAKE,,,,,,,,,,,,,,,,,
,,,,,,,,,663765ad2bdf17e0c60a3637,None,13 or older,"no, only English or Spanish",no,2025-07-23_06h23.10.307,empathy_intonation_perc,2024.2.4,Win32,59.88023952,663765ad2bdf17e0c60a3637,687ed1b7e638a4cbf2f02089,6880b7b5fa0ff133036931cb,,,,,,,,,,,,,,,,,,,,,,,,,,,,,,,,,,,,,,,,,,,,,,,,,,,,,,,,,,,,,,,,,,,,,,,,,,,,,,,,,,,,,,,,,,604.8141,611.9442,,,,,,,,,,,,,,,
,,,,,,,,,663765ad2bdf17e0c60a3637,None,13 or older,"no, only English or Spanish",no,2025-07-23_06h23.10.307,empathy_intonation_perc,2024.2.4,Win32,59.88023952,663765ad2bdf17e0c60a3637,687ed1b7e638a4cbf2f02089,6880b7b5fa0ff133036931cb,,,,,,,,,,,,,1,,,,,,,,,,,,,,,,,,,,,,,,,,,,,,,,,,,,,,,,,,,,,,,,,,,,,,,,,,,,,,,,,,,,,,,,,,,,,,,611.9671,622.5264,strongly disagree,0,0,0,0,1,I can easily tell if someone else wants to enter a conversation.,1,0,1,0,,
,,,,,,,,,663765ad2bdf17e0c60a3637,None,13 or older,"no, only English or Spanish",no,2025-07-23_06h23.10.307,empathy_intonation_perc,2024.2.4,Win32,59.88023952,663765ad2bdf17e0c60a3637,687ed1b7e638a4cbf2f02089,6880b7b5fa0ff133036931cb,,,,,,,,,,,,,2,,,,,,,,,,,,,,,,,,,,,,,,,,,,,,,,,,,,,,,,,,,,,,,,,,,,,,,,,,,,,,,,,,,,,,,,,,,,,,,622.5303,627.3555,slightly disagree,0,1,1,1,1,I prefer animals to humans.,0,1,0,0,,
,,,,,,,,,663765ad2bdf17e0c60a3637,None,13 or older,"no, only English or Spanish",no,2025-07-23_06h23.10.307,empathy_intonation_perc,2024.2.4,Win32,59.88023952,663765ad2bdf17e0c60a3637,687ed1b7e638a4cbf2f02089,6880b7b5fa0ff133036931cb,,,,,,,,,,,,,3,,,,,,,,,,,,,,,,,,,,,,,,,,,,,,,,,,,,,,,,,,,,,,,,,,,,,,,,,,,,,,,,,,,,,,,,,,,,,,,627.3599,632.5698,slightly disagree,0,2,2,2,1,I try to keep up with the current trends and fashions.,0,1,0,0,,
,,,,,,,,,663765ad2bdf17e0c60a3637,None,13 or older,"no, only English or Spanish",no,2025-07-23_06h23.10.307,empathy_intonation_perc,2024.2.4,Win32,59.88023952,663765ad2bdf17e0c60a3637,687ed1b7e638a4cbf2f02089,6880b7b5fa0ff133036931cb,,,,,,,,,,,,,4,,,,,,,,,,,,,,,,,,,,,,,,,,,,,,,,,,,,,,,,,,,,,,,,,,,,,,,,,,,,,,,,,,,,,,,,,,,,,,,632.5719,637.9519,slightly disagree,0,3,3,3,1,"I find it difficult to explain to others things that I understand easily,   when they don't understand it first time.",1,0,0,1,,
,,,,,,,,,663765ad2bdf17e0c60a3637,None,13 or older,"no, only English or Spanish",no,2025-07-23_06h23.10.307,empathy_intonation_perc,2024.2.4,Win32,59.88023952,663765ad2bdf17e0c60a3637,687ed1b7e638a4cbf2f02089,6880b7b5fa0ff133036931cb,,,,,,,,,,,,,5,,,,,,,,,,,,,,,,,,,,,,,,,,,,,,,,,,,,,,,,,,,,,,,,,,,,,,,,,,,,,,,,,,,,,,,,,,,,,,,637.9548,641.7668,strongly disagree,0,4,4,4,1,I dream most nights.,0,1,0,0,,
,,,,,,,,,663765ad2bdf17e0c60a3637,None,13 or older,"no, only English or Spanish",no,2025-07-23_06h23.10.307,empathy_intonation_perc,2024.2.4,Win32,59.88023952,663765ad2bdf17e0c60a3637,687ed1b7e638a4cbf2f02089,6880b7b5fa0ff133036931cb,,,,,,,,,,,,,6,,,,,,,,,,,,,,,,,,,,,,,,,,,,,,,,,,,,,,,,,,,,,,,,,,,,,,,,,,,,,,,,,,,,,,,,,,,,,,,641.7686,644.6162,strongly agree,0,5,5,5,1,I really enjoy caring for other people.,1,0,1,0,,
,,,,,,,,,663765ad2bdf17e0c60a3637,None,13 or older,"no, only English or Spanish",no,2025-07-23_06h23.10.307,empathy_intonation_perc,2024.2.4,Win32,59.88023952,663765ad2bdf17e0c60a3637,687ed1b7e638a4cbf2f02089,6880b7b5fa0ff133036931cb,,,,,,,,,,,,,7,,,,,,,,,,,,,,,,,,,,,,,,,,,,,,,,,,,,,,,,,,,,,,,,,,,,,,,,,,,,,,,,,,,,,,,,,,,,,,,644.6202,647.3822,slightly agree,0,6,6,6,1,I try to solve my own problems rather than discussing them with others.,0,1,0,0,,
,,,,,,,,,663765ad2bdf17e0c60a3637,None,13 or older,"no, only English or Spanish",no,2025-07-23_06h23.10.307,empathy_intonation_perc,2024.2.4,Win32,59.88023952,663765ad2bdf17e0c60a3637,687ed1b7e638a4cbf2f02089,6880b7b5fa0ff133036931cb,,,,,,,,,,,,,8,,,,,,,,,,,,,,,,,,,,,,,,,,,,,,,,,,,,,,,,,,,,,,,,,,,,,,,,,,,,,,,,,,,,,,,,,,,,,,,647.385,650.7302,slightly disagree,0,7,7,7,1,I find it hard to know what to do in a social situation.,1,0,0,1,,
,,,,,,,,,663765ad2bdf17e0c60a3637,None,13 or older,"no, only English or Spanish",no,2025-07-23_06h23.10.307,empathy_intonation_perc,2024.2.4,Win32,59.88023952,663765ad2bdf17e0c60a3637,687ed1b7e638a4cbf2f02089,6880b7b5fa0ff133036931cb,,,,,,,,,,,,,9,,,,,,,,,,,,,,,,,,,,,,,,,,,,,,,,,,,,,,,,,,,,,,,,,,,,,,,,,,,,,,,,,,,,,,,,,,,,,,,650.7315,655.9625,slightly agree,0,8,8,8,1,I am at my best first thing in the morning.,0,1,0,0,,
,,,,,,,,,663765ad2bdf17e0c60a3637,None,13 or older,"no, only English or Spanish",no,2025-07-23_06h23.10.307,empathy_intonation_perc,2024.2.4,Win32,59.88023952,663765ad2bdf17e0c60a3637,687ed1b7e638a4cbf2f02089,6880b7b5fa0ff133036931cb,,,,,,,,,,,,,10,,,,,,,,,,,,,,,,,,,,,,,,,,,,,,,,,,,,,,,,,,,,,,,,,,,,,,,,,,,,,,,,,,,,,,,,,,,,,,,655.9659,662.1596,strongly disagree,0,9,9,9,1,People often tell me that I went too far in driving my point home in a discussion.,1,0,0,1,,
,,,,,,,,,663765ad2bdf17e0c60a3637,None,13 or older,"no, only English or Spanish",no,2025-07-23_06h23.10.307,empathy_intonation_perc,2024.2.4,Win32,59.88023952,663765ad2bdf17e0c60a3637,687ed1b7e638a4cbf2f02089,6880b7b5fa0ff133036931cb,,,,,,,,,,,,,11,,,,,,,,,,,,,,,,,,,,,,,,,,,,,,,,,,,,,,,,,,,,,,,,,,,,,,,,,,,,,,,,,,,,,,,,,,,,,,,662.1609,666.1587,slightly disagree,0,10,10,10,1,It doesn't bother me too much if I am late meeting a friend.,1,0,0,1,,
