instructions_exposure.started,instructions_exposure.stopped,instructions_exposure_loop.thisRepN,instructions_exposure_loop.thisTrialN,instructions_exposure_loop.thisN,instructions_exposure_loop.thisIndex,instructions_exposure_loop.ran,instructions_text,continue_text,participant_id,"What variety of Spanish are you most familiar with? (e.g., Peruvian, Spanish, Mexican)",At what age did you begin learning Spanish?,Are you proficient in any languages other than English/Spanish?,"Are you familiar with Caribbean (e.g., Caribbean, Puerto Rican) or Galician Spanish?",date,expName,psychopyVersion,OS,frameRate,id,study_id,session,trial_exposure.started,trial_exposure.stopped,key_resp_exposure.keys,key_resp_exposure.corr,key_resp_exposure.rt,key_resp_exposure.duration,key_resp.keys,exposure_loop.thisRepN,exposure_loop.thisTrialN,exposure_loop.thisN,exposure_loop.thisIndex,exposure_loop.ran,item_num,correct_response,question,path,duration,instructions_2afc.started,instructions_2afc.stopped,instructions_2afc_loop.thisRepN,instructions_2afc_loop.thisTrialN,instructions_2afc_loop.thisN,instructions_2afc_loop.thisIndex,instructions_2afc_loop.ran,practice_2afc.started,practice_2afc.stopped,key_resp_2afc_practice.keys,key_resp_2afc_practice.corr,key_resp_2afc_practice.rt,key_resp_2afc_practice.duration,trials_2afc_practice_loop.thisRepN,trials_2afc_practice_loop.thisTrialN,trials_2afc_practice_loop.thisN,trials_2afc_practice_loop.thisIndex,trials_2afc_practice_loop.ran,check_2afc.started,check_2afc.stopped,trial_2afc.started,trial_2afc.stopped,key_resp_2afc_trial.keys,key_resp_2afc_trial.corr,key_resp_2afc_trial.rt,key_resp_2afc_trial.duration,trials_2afc_loop.thisRepN,trials_2afc_loop.thisTrialN,trials_2afc_loop.thisN,trials_2afc_loop.thisIndex,trials_2afc_loop.ran,target,variety,instructions_lextale.started,instructions_lextale.stopped,instructions_lextale_loop.thisRepN,instructions_lextale_loop.thisTrialN,instructions_lextale_loop.thisN,instructions_lextale_loop.thisIndex,instructions_lextale_loop.ran,practice_lextale.started,practice_lextale.stopped,key_resp_lextale_practice.keys,key_resp_lextale_practice.corr,key_resp_lextale_practice.rt,key_resp_lextale_practice.duration,practice_feedback_lextale.started,practice_feedback_lextale.stopped,trials_lextale_practice_loop.thisRepN,trials_lextale_practice_loop.thisTrialN,trials_lextale_practice_loop.thisN,trials_lextale_practice_loop.thisIndex,trials_lextale_practice_loop.ran,stim,word,prac_button_real,prac_button_false,check_lextale.started,check_lextale.stopped,trial_lextale.started,trial_lextale.stopped,key_resp_lextale_trial.keys,key_resp_lextale_trial.corr,key_resp_lextale_trial.rt,key_resp_lextale_trial.duration,trials_lextale_loop.thisRepN,trials_lextale_loop.thisTrialN,trials_lextale_loop.thisN,trials_lextale_loop.thisIndex,trials_lextale_loop.ran,button_real,button_false,instructions_eq.started,instructions_eq.stopped,trial_eq.started,trial_eq.stopped,slider_eq_trial.response,trials_eq_loop.thisRepN,trials_eq_loop.thisTrialN,trials_eq_loop.thisN,trials_eq_loop.thisIndex,trials_eq_loop.ran,item,is_test_item,is_distractor,is_agree_score,is_disagree_score,end_exp.started,end_exp.stopped
0.013,7.022,0,0,0,0,1,"In the following task, you are going to hear a series of conversations.", (press the space bar to continue),663d0e210e239265b07238f1,Spanish,13 or older,"no, only English or Spanish",yes,2025-07-23_11h08.39.944,empathy_intonation_perc,2024.2.4,Win32,60.0240096,663d0e210e239265b07238f1,687ed1b7e638a4cbf2f02089,6880d62e6f5f32bdb03c266b,,,,,,,,,,,,,,,,,,,,,,,,,,,,,,,,,,,,,,,,,,,,,,,,,,,,,,,,,,,,,,,,,,,,,,,,,,,,,,,,,,,,,,,,,,,,,,,,,,,,,,,,,,
7.022,9.988,0,1,1,1,1,It is okay if you don't not 100% understand them!, (press the space bar to continue),663d0e210e239265b07238f1,Spanish,13 or older,"no, only English or Spanish",yes,2025-07-23_11h08.39.944,empathy_intonation_perc,2024.2.4,Win32,60.0240096,663d0e210e239265b07238f1,687ed1b7e638a4cbf2f02089,6880d62e6f5f32bdb03c266b,,,,,,,,,,,,,,,,,,,,,,,,,,,,,,,,,,,,,,,,,,,,,,,,,,,,,,,,,,,,,,,,,,,,,,,,,,,,,,,,,,,,,,,,,,,,,,,,,,,,,,,,,,
9.99,11.988,0,2,2,2,1,"After, you will read a sentence about the conversation and decide if it's true or false.", (press the space bar to continue),663d0e210e239265b07238f1,Spanish,13 or older,"no, only English or Spanish",yes,2025-07-23_11h08.39.944,empathy_intonation_perc,2024.2.4,Win32,60.0240096,663d0e210e239265b07238f1,687ed1b7e638a4cbf2f02089,6880d62e6f5f32bdb03c266b,,,,,,,,,,,,,,,,,,,,,,,,,,,,,,,,,,,,,,,,,,,,,,,,,,,,,,,,,,,,,,,,,,,,,,,,,,,,,,,,,,,,,,,,,,,,,,,,,,,,,,,,,,
11.99,23.371,0,3,3,3,1,"If it's true, press '1' (True) and if it's false press '0' (False).", (press the space bar to continue),663d0e210e239265b07238f1,Spanish,13 or older,"no, only English or Spanish",yes,2025-07-23_11h08.39.944,empathy_intonation_perc,2024.2.4,Win32,60.0240096,663d0e210e239265b07238f1,687ed1b7e638a4cbf2f02089,6880d62e6f5f32bdb03c266b,,,,,,,,,,,,,,,,,,,,,,,,,,,,,,,,,,,,,,,,,,,,,,,,,,,,,,,,,,,,,,,,,,,,,,,,,,,,,,,,,,,,,,,,,,,,,,,,,,,,,,,,,,
,,,,,,,,,663d0e210e239265b07238f1,Spanish,13 or older,"no, only English or Spanish",yes,2025-07-23_11h08.39.944,empathy_intonation_perc,2024.2.4,Win32,60.0240096,663d0e210e239265b07238f1,687ed1b7e638a4cbf2f02089,6880d62e6f5f32bdb03c266b,23.377,104.939,1,1,34.482,,,0,0,0,0,1,1,1,The son asked the mom if Aunt Marina is okay.,./stim/exposure_wavs/ga_stimuli_convo.wav,47,,,,,,,,,,,,,,,,,,,,,,,,,,,,,,,,,,,,,,,,,,,,,,,,,,,,,,,,,,,,,,,,,,,,,,,,,,,,,,,,,,,,,,,,,
,,,,,,,,,663d0e210e239265b07238f1,Spanish,13 or older,"no, only English or Spanish",yes,2025-07-23_11h08.39.944,empathy_intonation_perc,2024.2.4,Win32,60.0240096,663d0e210e239265b07238f1,687ed1b7e638a4cbf2f02089,6880d62e6f5f32bdb03c266b,104.949,146.221,1,0,5.214,,,0,1,1,2,1,3,0,The mom already has rice.,./stim/exposure_wavs/pr_stimuli_convo.wav,36,,,,,,,,,,,,,,,,,,,,,,,,,,,,,,,,,,,,,,,,,,,,,,,,,,,,,,,,,,,,,,,,,,,,,,,,,,,,,,,,,,,,,,,,,
,,,,,,,,,663d0e210e239265b07238f1,Spanish,13 or older,"no, only English or Spanish",yes,2025-07-23_11h08.39.944,empathy_intonation_perc,2024.2.4,Win32,60.0240096,663d0e210e239265b07238f1,687ed1b7e638a4cbf2f02089,6880d62e6f5f32bdb03c266b,146.224,208.122,0,0,1.827,,,0,2,2,1,1,2,1,The mom asked the daughter if she already went to the supermarket.,./stim/exposure_wavs/dr_stimuli_convo.wav,60,,,,,,,,,,,,,,,,,,,,,,,,,,,,,,,,,,,,,,,,,,,,,,,,,,,,,,,,,,,,,,,,,,,,,,,,,,,,,,,,,,,,,,,,,
,,,,,,,"In the following task you are going to hear a series of utterances. 

  You will decide if the utterances sound like questions or not using your keyboard.", (press the spacebar to continue),663d0e210e239265b07238f1,Spanish,13 or older,"no, only English or Spanish",yes,2025-07-23_11h08.39.944,empathy_intonation_perc,2024.2.4,Win32,60.0240096,663d0e210e239265b07238f1,687ed1b7e638a4cbf2f02089,6880d62e6f5f32bdb03c266b,,,,,,,,,,,,,,,,,,208.132,211.272,0,0,0,0,1,,,,,,,,,,,,,,,,,,,,,,,,,,,,,,,,,,,,,,,,,,,,,,,,,,,,,,,,,,,,,,,,,,,,,,,,,,,,,,,,,,
,,,,,,,"If you believe the utterance is a question, type '1' (for 'yes') and if you do not 
  believe it is a question type '0' (for 'no').

  Let's practice a bit...", (press the spacebar to continue),663d0e210e239265b07238f1,Spanish,13 or older,"no, only English or Spanish",yes,2025-07-23_11h08.39.944,empathy_intonation_perc,2024.2.4,Win32,60.0240096,663d0e210e239265b07238f1,687ed1b7e638a4cbf2f02089,6880d62e6f5f32bdb03c266b,,,,,,,,,,,,,,,,,,211.276,213.404,0,1,1,1,1,,,,,,,,,,,,,,,,,,,,,,,,,,,,,,,,,,,,,,,,,,,,,,,,,,,,,,,,,,,,,,,,,,,,,,,,,,,,,,,,,,
,,,,,,,,,663d0e210e239265b07238f1,Spanish,13 or older,"no, only English or Spanish",yes,2025-07-23_11h08.39.944,empathy_intonation_perc,2024.2.4,Win32,60.0240096,663d0e210e239265b07238f1,687ed1b7e638a4cbf2f02089,6880d62e6f5f32bdb03c266b,,,,,,,,,,,,,,0,,./stim/wavs/puertorican_statement_filler_La-nina-pinta-con-su-amiga.wav,,,,,,,,,213.411,217.172,1,0,3.235,,0,0,0,7,1,,,,,,,,,,,,,,,,,,,,,,,,,,,,,,,,,,,,,,,,,,,,,,,,,,,,,,,,,,,,,,,,,,,,,,,
,,,,,,,,,663d0e210e239265b07238f1,Spanish,13 or older,"no, only English or Spanish",yes,2025-07-23_11h08.39.944,empathy_intonation_perc,2024.2.4,Win32,60.0240096,663d0e210e239265b07238f1,687ed1b7e638a4cbf2f02089,6880d62e6f5f32bdb03c266b,,,,,,,,,,,,,,1,,./stim/wavs/argentine_question_filler_Mi-vecino-habla-mucho.wav,,,,,,,,,217.173,234.304,0,0,16.602,,0,1,1,1,1,,,,,,,,,,,,,,,,,,,,,,,,,,,,,,,,,,,,,,,,,,,,,,,,,,,,,,,,,,,,,,,,,,,,,,,
,,,,,,,,,663d0e210e239265b07238f1,Spanish,13 or older,"no, only English or Spanish",yes,2025-07-23_11h08.39.944,empathy_intonation_perc,2024.2.4,Win32,60.0240096,663d0e210e239265b07238f1,687ed1b7e638a4cbf2f02089,6880d62e6f5f32bdb03c266b,,,,,,,,,,,,,,0,,./stim/wavs/cuban_statement_filler_Cocinabas-por-la-noche.wav,,,,,,,,,234.307,248.888,1,0,14.048,,0,2,2,4,1,,,,,,,,,,,,,,,,,,,,,,,,,,,,,,,,,,,,,,,,,,,,,,,,,,,,,,,,,,,,,,,,,,,,,,,
,,,,,,,,,663d0e210e239265b07238f1,Spanish,13 or older,"no, only English or Spanish",yes,2025-07-23_11h08.39.944,empathy_intonation_perc,2024.2.4,Win32,60.0240096,663d0e210e239265b07238f1,687ed1b7e638a4cbf2f02089,6880d62e6f5f32bdb03c266b,,,,,,,,,,,,,,0,,./stim/wavs/andalusian_statement_filler_Alberto-nunca-se-afeita.wav,,,,,,,,,248.889,255.905,0,1,6.484,,0,3,3,5,1,,,,,,,,,,,,,,,,,,,,,,,,,,,,,,,,,,,,,,,,,,,,,,,,,,,,,,,,,,,,,,,,,,,,,,,
,,,,,,,,,663d0e210e239265b07238f1,Spanish,13 or older,"no, only English or Spanish",yes,2025-07-23_11h08.39.944,empathy_intonation_perc,2024.2.4,Win32,60.0240096,663d0e210e239265b07238f1,687ed1b7e638a4cbf2f02089,6880d62e6f5f32bdb03c266b,,,,,,,,,,,,,,1,,./stim/wavs/mexican_question_filler_Felipe-no-tiene-contrasena.wav,,,,,,,,,255.906,266.055,1,1,9.622,,0,4,4,3,1,,,,,,,,,,,,,,,,,,,,,,,,,,,,,,,,,,,,,,,,,,,,,,,,,,,,,,,,,,,,,,,,,,,,,,,
,,,,,,,,,663d0e210e239265b07238f1,Spanish,13 or older,"no, only English or Spanish",yes,2025-07-23_11h08.39.944,empathy_intonation_perc,2024.2.4,Win32,60.0240096,663d0e210e239265b07238f1,687ed1b7e638a4cbf2f02089,6880d62e6f5f32bdb03c266b,,,,,,,,,,,,,,0,,./stim/wavs/peruvian_statement_filler_El-nino-habla-con-su-madre.wav,,,,,,,,,266.058,271.121,0,1,4.538,,0,5,5,6,1,,,,,,,,,,,,,,,,,,,,,,,,,,,,,,,,,,,,,,,,,,,,,,,,,,,,,,,,,,,,,,,,,,,,,,,
,,,,,,,,,663d0e210e239265b07238f1,Spanish,13 or older,"no, only English or Spanish",yes,2025-07-23_11h08.39.944,empathy_intonation_perc,2024.2.4,Win32,60.0240096,663d0e210e239265b07238f1,687ed1b7e638a4cbf2f02089,6880d62e6f5f32bdb03c266b,,,,,,,,,,,,,,1,,./stim/wavs/castilian_question_filler_Mi-esposo-conoce-al-chico.wav,,,,,,,,,271.122,274.088,1,1,2.436,,0,6,6,0,1,,,,,,,,,,,,,,,,,,,,,,,,,,,,,,,,,,,,,,,,,,,,,,,,,,,,,,,,,,,,,,,,,,,,,,,
,,,,,,,,,663d0e210e239265b07238f1,Spanish,13 or older,"no, only English or Spanish",yes,2025-07-23_11h08.39.944,empathy_intonation_perc,2024.2.4,Win32,60.0240096,663d0e210e239265b07238f1,687ed1b7e638a4cbf2f02089,6880d62e6f5f32bdb03c266b,,,,,,,,,,,,,,1,,./stim/wavs/chilean_question_filler_Mi-padre-cantaba-bien.wav,,,,,,,,,274.091,281.605,1,1,6.993,,0,7,7,2,1,,,,,,,,,,,,,,,,,,,,,,,,,,,,,,,,,,,,,,,,,,,,,,,,,,,,,,,,,,,,,,,,,,,,,,,
,,,,,,,,,663d0e210e239265b07238f1,Spanish,13 or older,"no, only English or Spanish",yes,2025-07-23_11h08.39.944,empathy_intonation_perc,2024.2.4,Win32,60.0240096,663d0e210e239265b07238f1,687ed1b7e638a4cbf2f02089,6880d62e6f5f32bdb03c266b,,,,,,,,,,,,,,,,,,,,,,,,,,,,,,,,,,,,281.605,286.255,,,,,,,,,,,,,,,,,,,,,,,,,,,,,,,,,,,,,,,,,,,,,,,,,,,,,,,,,,,,,,,,,,,,,
,,,,,,,,,663d0e210e239265b07238f1,Spanish,13 or older,"no, only English or Spanish",yes,2025-07-23_11h08.39.944,empathy_intonation_perc,2024.2.4,Win32,60.0240096,663d0e210e239265b07238f1,687ed1b7e638a4cbf2f02089,6880d62e6f5f32bdb03c266b,,,,,,,,,,,,,75,0,,./stim/wavs/cuban_mismatch_declarative-broad-focus_El-hombre-mira-la-luna.wav,,,,,,,,,,,,,,,,,,,,,,286.268,296.571,0,1,9.782,,0,0,0,74,1,0,cuban,,,,,,,,,,,,,,,,,,,,,,,,,,,,,,,,,,,,,,,,,,,,,,,,,,,,,,,,
,,,,,,,,,663d0e210e239265b07238f1,Spanish,13 or older,"no, only English or Spanish",yes,2025-07-23_11h08.39.944,empathy_intonation_perc,2024.2.4,Win32,60.0240096,663d0e210e239265b07238f1,687ed1b7e638a4cbf2f02089,6880d62e6f5f32bdb03c266b,,,,,,,,,,,,,3,1,,./stim/wavs/castilian_match_interrogative-total-yn_Manuela-vende-el-carro.wav,,,,,,,,,,,,,,,,,,,,,,296.572,304.288,1,1,7.187,,0,1,1,2,1,0,castilian,,,,,,,,,,,,,,,,,,,,,,,,,,,,,,,,,,,,,,,,,,,,,,,,,,,,,,,,
,,,,,,,,,663d0e210e239265b07238f1,Spanish,13 or older,"no, only English or Spanish",yes,2025-07-23_11h08.39.944,empathy_intonation_perc,2024.2.4,Win32,60.0240096,663d0e210e239265b07238f1,687ed1b7e638a4cbf2f02089,6880d62e6f5f32bdb03c266b,,,,,,,,,,,,,87,0,,./stim/wavs/puertorican_mismatch_declarative-broad-focus_La-maestra-vive-en-Paris.wav,,,,,,,,,,,,,,,,,,,,,,304.292,309.821,0,1,5.002,,0,2,2,86,1,0,puertorican,,,,,,,,,,,,,,,,,,,,,,,,,,,,,,,,,,,,,,,,,,,,,,,,,,,,,,,,
,,,,,,,,,663d0e210e239265b07238f1,Spanish,13 or older,"no, only English or Spanish",yes,2025-07-23_11h08.39.944,empathy_intonation_perc,2024.2.4,Win32,60.0240096,663d0e210e239265b07238f1,687ed1b7e638a4cbf2f02089,6880d62e6f5f32bdb03c266b,,,,,,,,,,,,,24,1,,./stim/wavs/puertorican_match_interrogative-total-yn_Maria-bebe-el-vino.wav,,,,,,,,,,,,,,,,,,,,,,309.822,317.472,1,1,7.134,,0,3,3,23,1,1,puertorican,,,,,,,,,,,,,,,,,,,,,,,,,,,,,,,,,,,,,,,,,,,,,,,,,,,,,,,,
,,,,,,,,,663d0e210e239265b07238f1,Spanish,13 or older,"no, only English or Spanish",yes,2025-07-23_11h08.39.944,empathy_intonation_perc,2024.2.4,Win32,60.0240096,663d0e210e239265b07238f1,687ed1b7e638a4cbf2f02089,6880d62e6f5f32bdb03c266b,,,,,,,,,,,,,9,1,,./stim/wavs/cuban_match_interrogative-total-yn_Manuela-vende-el-carro.wav,,,,,,,,,,,,,,,,,,,,,,317.474,339.438,1,1,21.436,,0,4,4,8,1,1,cuban,,,,,,,,,,,,,,,,,,,,,,,,,,,,,,,,,,,,,,,,,,,,,,,,,,,,,,,,
,,,,,,,,,663d0e210e239265b07238f1,Spanish,13 or older,"no, only English or Spanish",yes,2025-07-23_11h08.39.944,empathy_intonation_perc,2024.2.4,Win32,60.0240096,663d0e210e239265b07238f1,687ed1b7e638a4cbf2f02089,6880d62e6f5f32bdb03c266b,,,,,,,,,,,,,73,0,,./stim/wavs/castilian_mismatch_declarative-broad-focus_Mi-tia-odia-la-lluvia.wav,,,,,,,,,,,,,,,,,,,,,,339.441,347.005,0,1,7.039,,0,5,5,72,1,0,castilian,,,,,,,,,,,,,,,,,,,,,,,,,,,,,,,,,,,,,,,,,,,,,,,,,,,,,,,,
,,,,,,,,,663d0e210e239265b07238f1,Spanish,13 or older,"no, only English or Spanish",yes,2025-07-23_11h08.39.944,empathy_intonation_perc,2024.2.4,Win32,60.0240096,663d0e210e239265b07238f1,687ed1b7e638a4cbf2f02089,6880d62e6f5f32bdb03c266b,,,,,,,,,,,,,5,1,,./stim/wavs/castilian_match_interrogative-total-yn_Mariano-habla-del-tiempo.wav,,,,,,,,,,,,,,,,,,,,,,347.006,363.954,1,1,16.424,,0,6,6,4,1,0,castilian,,,,,,,,,,,,,,,,,,,,,,,,,,,,,,,,,,,,,,,,,,,,,,,,,,,,,,,,
,,,,,,,,,663d0e210e239265b07238f1,Spanish,13 or older,"no, only English or Spanish",yes,2025-07-23_11h08.39.944,empathy_intonation_perc,2024.2.4,Win32,60.0240096,663d0e210e239265b07238f1,687ed1b7e638a4cbf2f02089,6880d62e6f5f32bdb03c266b,,,,,,,,,,,,,16,1,,./stim/wavs/mexican_match_interrogative-total-yn_Emilio-ama-la-marcha.wav,,,,,,,,,,,,,,,,,,,,,,363.955,369.838,0,0,5.352,,0,7,7,15,1,0,mexican,,,,,,,,,,,,,,,,,,,,,,,,,,,,,,,,,,,,,,,,,,,,,,,,,,,,,,,,
,,,,,,,,,663d0e210e239265b07238f1,Spanish,13 or older,"no, only English or Spanish",yes,2025-07-23_11h08.39.944,empathy_intonation_perc,2024.2.4,Win32,60.0240096,663d0e210e239265b07238f1,687ed1b7e638a4cbf2f02089,6880d62e6f5f32bdb03c266b,,,,,,,,,,,,,30,1,,./stim/wavs/cuban_mismatch_interrogative-total-yn_El-hombre-mira-la-luna.wav,,,,,,,,,,,,,,,,,,,,,,369.842,378.222,0,0,7.848,,0,8,8,29,1,1,cuban,,,,,,,,,,,,,,,,,,,,,,,,,,,,,,,,,,,,,,,,,,,,,,,,,,,,,,,,
,,,,,,,,,663d0e210e239265b07238f1,Spanish,13 or older,"no, only English or Spanish",yes,2025-07-23_11h08.39.944,empathy_intonation_perc,2024.2.4,Win32,60.0240096,663d0e210e239265b07238f1,687ed1b7e638a4cbf2f02089,6880d62e6f5f32bdb03c266b,,,,,,,,,,,,,61,0,,./stim/wavs/mexican_match_declarative-broad-focus_Mariano-habla-del-tiempo.wav,,,,,,,,,,,,,,,,,,,,,,378.223,386.021,0,1,7.27,,0,9,9,60,1,0,mexican,,,,,,,,,,,,,,,,,,,,,,,,,,,,,,,,,,,,,,,,,,,,,,,,,,,,,,,,
,,,,,,,,,663d0e210e239265b07238f1,Spanish,13 or older,"no, only English or Spanish",yes,2025-07-23_11h08.39.944,empathy_intonation_perc,2024.2.4,Win32,60.0240096,663d0e210e239265b07238f1,687ed1b7e638a4cbf2f02089,6880d62e6f5f32bdb03c266b,,,,,,,,,,,,,8,1,,./stim/wavs/cuban_match_interrogative-total-yn_Daniel-iba-a-Bolivia.wav,,,,,,,,,,,,,,,,,,,,,,386.023,392.939,0,0,6.383,,0,10,10,7,1,1,cuban,,,,,,,,,,,,,,,,,,,,,,,,,,,,,,,,,,,,,,,,,,,,,,,,,,,,,,,,
,,,,,,,,,663d0e210e239265b07238f1,Spanish,13 or older,"no, only English or Spanish",yes,2025-07-23_11h08.39.944,empathy_intonation_perc,2024.2.4,Win32,60.0240096,663d0e210e239265b07238f1,687ed1b7e638a4cbf2f02089,6880d62e6f5f32bdb03c266b,,,,,,,,,,,,,42,1,,./stim/wavs/puertorican_mismatch_interrogative-total-yn_La-maestra-vive-en-Paris.wav,,,,,,,,,,,,,,,,,,,,,,392.94,399.572,0,0,6.1,,0,11,11,41,1,1,puertorican,,,,,,,,,,,,,,,,,,,,,,,,,,,,,,,,,,,,,,,,,,,,,,,,,,,,,,,,
,,,,,,,,,663d0e210e239265b07238f1,Spanish,13 or older,"no, only English or Spanish",yes,2025-07-23_11h08.39.944,empathy_intonation_perc,2024.2.4,Win32,60.0240096,663d0e210e239265b07238f1,687ed1b7e638a4cbf2f02089,6880d62e6f5f32bdb03c266b,,,,,,,,,,,,,56,0,,./stim/wavs/cuban_match_declarative-broad-focus_Marta-abre-el-regalo.wav,,,,,,,,,,,,,,,,,,,,,,399.575,405.788,0,1,5.687,,0,12,12,55,1,0,cuban,,,,,,,,,,,,,,,,,,,,,,,,,,,,,,,,,,,,,,,,,,,,,,,,,,,,,,,,
,,,,,,,,,663d0e210e239265b07238f1,Spanish,13 or older,"no, only English or Spanish",yes,2025-07-23_11h08.39.944,empathy_intonation_perc,2024.2.4,Win32,60.0240096,663d0e210e239265b07238f1,687ed1b7e638a4cbf2f02089,6880d62e6f5f32bdb03c266b,,,,,,,,,,,,,63,0,,./stim/wavs/puertorican_match_declarative-broad-focus_Ana-lleva-el-abrigo.wav,,,,,,,,,,,,,,,,,,,,,,405.789,412.672,0,1,6.35,,0,13,13,62,1,0,puertorican,,,,,,,,,,,,,,,,,,,,,,,,,,,,,,,,,,,,,,,,,,,,,,,,,,,,,,,,
,,,,,,,,,663d0e210e239265b07238f1,Spanish,13 or older,"no, only English or Spanish",yes,2025-07-23_11h08.39.944,empathy_intonation_perc,2024.2.4,Win32,60.0240096,663d0e210e239265b07238f1,687ed1b7e638a4cbf2f02089,6880d62e6f5f32bdb03c266b,,,,,,,,,,,,,44,1,,./stim/wavs/puertorican_mismatch_interrogative-total-yn_Mi-madre-come-la-fruta.wav,,,,,,,,,,,,,,,,,,,,,,412.673,417.772,0,0,4.569,,0,14,14,43,1,1,puertorican,,,,,,,,,,,,,,,,,,,,,,,,,,,,,,,,,,,,,,,,,,,,,,,,,,,,,,,,
,,,,,,,,,663d0e210e239265b07238f1,Spanish,13 or older,"no, only English or Spanish",yes,2025-07-23_11h08.39.944,empathy_intonation_perc,2024.2.4,Win32,60.0240096,663d0e210e239265b07238f1,687ed1b7e638a4cbf2f02089,6880d62e6f5f32bdb03c266b,,,,,,,,,,,,,64,0,,./stim/wavs/puertorican_match_declarative-broad-focus_Daniel-iba-a-Bolivia.wav,,,,,,,,,,,,,,,,,,,,,,417.772,425.788,1,0,7.483,,0,15,15,63,1,0,puertorican,,,,,,,,,,,,,,,,,,,,,,,,,,,,,,,,,,,,,,,,,,,,,,,,,,,,,,,,
,,,,,,,,,663d0e210e239265b07238f1,Spanish,13 or older,"no, only English or Spanish",yes,2025-07-23_11h08.39.944,empathy_intonation_perc,2024.2.4,Win32,60.0240096,663d0e210e239265b07238f1,687ed1b7e638a4cbf2f02089,6880d62e6f5f32bdb03c266b,,,,,,,,,,,,,14,1,,./stim/wavs/mexican_match_interrogative-total-yn_Daniel-iba-a-Bolivia.wav,,,,,,,,,,,,,,,,,,,,,,425.789,439.489,0,0,13.168,,0,16,16,13,1,0,mexican,,,,,,,,,,,,,,,,,,,,,,,,,,,,,,,,,,,,,,,,,,,,,,,,,,,,,,,,
,,,,,,,,,663d0e210e239265b07238f1,Spanish,13 or older,"no, only English or Spanish",yes,2025-07-23_11h08.39.944,empathy_intonation_perc,2024.2.4,Win32,60.0240096,663d0e210e239265b07238f1,687ed1b7e638a4cbf2f02089,6880d62e6f5f32bdb03c266b,,,,,,,,,,,,,59,0,,./stim/wavs/mexican_match_declarative-broad-focus_David-leia-el-libro.wav,,,,,,,,,,,,,,,,,,,,,,439.491,448.422,0,1,8.4,,0,17,17,58,1,0,mexican,,,,,,,,,,,,,,,,,,,,,,,,,,,,,,,,,,,,,,,,,,,,,,,,,,,,,,,,
,,,,,,,,,663d0e210e239265b07238f1,Spanish,13 or older,"no, only English or Spanish",yes,2025-07-23_11h08.39.944,empathy_intonation_perc,2024.2.4,Win32,60.0240096,663d0e210e239265b07238f1,687ed1b7e638a4cbf2f02089,6880d62e6f5f32bdb03c266b,,,,,,,,,,,,,4,1,,./stim/wavs/castilian_match_interrogative-total-yn_Maria-bebe-el-vino.wav,,,,,,,,,,,,,,,,,,,,,,448.423,466.972,0,0,18.018,,0,18,18,3,1,0,castilian,,,,,,,,,,,,,,,,,,,,,,,,,,,,,,,,,,,,,,,,,,,,,,,,,,,,,,,,
,,,,,,,,,663d0e210e239265b07238f1,Spanish,13 or older,"no, only English or Spanish",yes,2025-07-23_11h08.39.944,empathy_intonation_perc,2024.2.4,Win32,60.0240096,663d0e210e239265b07238f1,687ed1b7e638a4cbf2f02089,6880d62e6f5f32bdb03c266b,,,,,,,,,,,,,76,0,,./stim/wavs/cuban_mismatch_declarative-broad-focus_La-nina-lava-el-plato.wav,,,,,,,,,,,,,,,,,,,,,,466.975,470.938,1,0,3.44,,0,19,19,75,1,0,cuban,,,,,,,,,,,,,,,,,,,,,,,,,,,,,,,,,,,,,,,,,,,,,,,,,,,,,,,,
,,,,,,,,,663d0e210e239265b07238f1,Spanish,13 or older,"no, only English or Spanish",yes,2025-07-23_11h08.39.944,empathy_intonation_perc,2024.2.4,Win32,60.0240096,663d0e210e239265b07238f1,687ed1b7e638a4cbf2f02089,6880d62e6f5f32bdb03c266b,,,,,,,,,,,,,83,0,,./stim/wavs/mexican_mismatch_declarative-broad-focus_Mi-tia-odia-la-lluvia.wav,,,,,,,,,,,,,,,,,,,,,,470.942,480.321,0,1,8.85,,0,20,20,82,1,0,mexican,,,,,,,,,,,,,,,,,,,,,,,,,,,,,,,,,,,,,,,,,,,,,,,,,,,,,,,,
,,,,,,,,,663d0e210e239265b07238f1,Spanish,13 or older,"no, only English or Spanish",yes,2025-07-23_11h08.39.944,empathy_intonation_perc,2024.2.4,Win32,60.0240096,663d0e210e239265b07238f1,687ed1b7e638a4cbf2f02089,6880d62e6f5f32bdb03c266b,,,,,,,,,,,,,21,1,,./stim/wavs/puertorican_match_interrogative-total-yn_David-leia-el-libro.wav,,,,,,,,,,,,,,,,,,,,,,480.322,485.704,1,1,4.851,,0,21,21,20,1,1,puertorican,,,,,,,,,,,,,,,,,,,,,,,,,,,,,,,,,,,,,,,,,,,,,,,,,,,,,,,,
,,,,,,,,,663d0e210e239265b07238f1,Spanish,13 or older,"no, only English or Spanish",yes,2025-07-23_11h08.39.944,empathy_intonation_perc,2024.2.4,Win32,60.0240096,663d0e210e239265b07238f1,687ed1b7e638a4cbf2f02089,6880d62e6f5f32bdb03c266b,,,,,,,,,,,,,28,1,,./stim/wavs/castilian_mismatch_interrogative-total-yn_Mi-novio-viene-del-lago.wav,,,,,,,,,,,,,,,,,,,,,,485.705,487.838,0,0,1.6,,0,22,22,27,1,0,castilian,,,,,,,,,,,,,,,,,,,,,,,,,,,,,,,,,,,,,,,,,,,,,,,,,,,,,,,,
,,,,,,,,,663d0e210e239265b07238f1,Spanish,13 or older,"no, only English or Spanish",yes,2025-07-23_11h08.39.944,empathy_intonation_perc,2024.2.4,Win32,60.0240096,663d0e210e239265b07238f1,687ed1b7e638a4cbf2f02089,6880d62e6f5f32bdb03c266b,,,,,,,,,,,,,78,0,,./stim/wavs/cuban_mismatch_declarative-broad-focus_Mi-tia-odia-la-lluvia.wav,,,,,,,,,,,,,,,,,,,,,,487.839,495.472,0,1,7.12,,0,23,23,77,1,0,cuban,,,,,,,,,,,,,,,,,,,,,,,,,,,,,,,,,,,,,,,,,,,,,,,,,,,,,,,,
,,,,,,,,,663d0e210e239265b07238f1,Spanish,13 or older,"no, only English or Spanish",yes,2025-07-23_11h08.39.944,empathy_intonation_perc,2024.2.4,Win32,60.0240096,663d0e210e239265b07238f1,687ed1b7e638a4cbf2f02089,6880d62e6f5f32bdb03c266b,,,,,,,,,,,,,23,1,,./stim/wavs/puertorican_match_interrogative-total-yn_Manuela-vende-el-carro.wav,,,,,,,,,,,,,,,,,,,,,,495.473,500.106,0,0,4.102,,0,24,24,22,1,1,puertorican,,,,,,,,,,,,,,,,,,,,,,,,,,,,,,,,,,,,,,,,,,,,,,,,,,,,,,,,
,,,,,,,,,663d0e210e239265b07238f1,Spanish,13 or older,"no, only English or Spanish",yes,2025-07-23_11h08.39.944,empathy_intonation_perc,2024.2.4,Win32,60.0240096,663d0e210e239265b07238f1,687ed1b7e638a4cbf2f02089,6880d62e6f5f32bdb03c266b,,,,,,,,,,,,,10,1,,./stim/wavs/cuban_match_interrogative-total-yn_Maria-bebe-el-vino.wav,,,,,,,,,,,,,,,,,,,,,,500.111,512.338,0,0,11.702,,0,25,25,9,1,1,cuban,,,,,,,,,,,,,,,,,,,,,,,,,,,,,,,,,,,,,,,,,,,,,,,,,,,,,,,,
,,,,,,,,,663d0e210e239265b07238f1,Spanish,13 or older,"no, only English or Spanish",yes,2025-07-23_11h08.39.944,empathy_intonation_perc,2024.2.4,Win32,60.0240096,663d0e210e239265b07238f1,687ed1b7e638a4cbf2f02089,6880d62e6f5f32bdb03c266b,,,,,,,,,,,,,71,0,,./stim/wavs/castilian_mismatch_declarative-broad-focus_La-nina-lava-el-plato.wav,,,,,,,,,,,,,,,,,,,,,,512.34,515.605,1,0,2.735,,0,26,26,70,1,0,castilian,,,,,,,,,,,,,,,,,,,,,,,,,,,,,,,,,,,,,,,,,,,,,,,,,,,,,,,,
,,,,,,,,,663d0e210e239265b07238f1,Spanish,13 or older,"no, only English or Spanish",yes,2025-07-23_11h08.39.944,empathy_intonation_perc,2024.2.4,Win32,60.0240096,663d0e210e239265b07238f1,687ed1b7e638a4cbf2f02089,6880d62e6f5f32bdb03c266b,,,,,,,,,,,,,36,1,,./stim/wavs/mexican_mismatch_interrogative-total-yn_El-nino-oye-el-rio.wav,,,,,,,,,,,,,,,,,,,,,,515.606,532.072,1,1,15.934,,0,27,27,35,1,0,mexican,,,,,,,,,,,,,,,,,,,,,,,,,,,,,,,,,,,,,,,,,,,,,,,,,,,,,,,,
,,,,,,,,,663d0e210e239265b07238f1,Spanish,13 or older,"no, only English or Spanish",yes,2025-07-23_11h08.39.944,empathy_intonation_perc,2024.2.4,Win32,60.0240096,663d0e210e239265b07238f1,687ed1b7e638a4cbf2f02089,6880d62e6f5f32bdb03c266b,,,,,,,,,,,,,2,1,,./stim/wavs/castilian_match_interrogative-total-yn_Emilio-ama-la-marcha.wav,,,,,,,,,,,,,,,,,,,,,,532.076,538.272,0,0,5.673,,0,28,28,1,1,0,castilian,,,,,,,,,,,,,,,,,,,,,,,,,,,,,,,,,,,,,,,,,,,,,,,,,,,,,,,,
,,,,,,,,,663d0e210e239265b07238f1,Spanish,13 or older,"no, only English or Spanish",yes,2025-07-23_11h08.39.944,empathy_intonation_perc,2024.2.4,Win32,60.0240096,663d0e210e239265b07238f1,687ed1b7e638a4cbf2f02089,6880d62e6f5f32bdb03c266b,,,,,,,,,,,,,58,0,,./stim/wavs/mexican_match_declarative-broad-focus_Daniel-iba-a-Bolivia.wav,,,,,,,,,,,,,,,,,,,,,,538.273,545.572,1,0,6.769,,0,29,29,57,1,0,mexican,,,,,,,,,,,,,,,,,,,,,,,,,,,,,,,,,,,,,,,,,,,,,,,,,,,,,,,,
,,,,,,,,,663d0e210e239265b07238f1,Spanish,13 or older,"no, only English or Spanish",yes,2025-07-23_11h08.39.944,empathy_intonation_perc,2024.2.4,Win32,60.0240096,663d0e210e239265b07238f1,687ed1b7e638a4cbf2f02089,6880d62e6f5f32bdb03c266b,,,,,,,,,,,,,22,1,,./stim/wavs/puertorican_match_interrogative-total-yn_Emilio-ama-la-marcha.wav,,,,,,,,,,,,,,,,,,,,,,545.575,549.339,0,0,3.238,,0,30,30,21,1,1,puertorican,,,,,,,,,,,,,,,,,,,,,,,,,,,,,,,,,,,,,,,,,,,,,,,,,,,,,,,,
,,,,,,,,,663d0e210e239265b07238f1,Spanish,13 or older,"no, only English or Spanish",yes,2025-07-23_11h08.39.944,empathy_intonation_perc,2024.2.4,Win32,60.0240096,663d0e210e239265b07238f1,687ed1b7e638a4cbf2f02089,6880d62e6f5f32bdb03c266b,,,,,,,,,,,,,77,0,,./stim/wavs/cuban_mismatch_declarative-broad-focus_Mi-novio-viene-del-lago.wav,,,,,,,,,,,,,,,,,,,,,,549.34,560.605,1,0,10.743,,0,31,31,76,1,0,cuban,,,,,,,,,,,,,,,,,,,,,,,,,,,,,,,,,,,,,,,,,,,,,,,,,,,,,,,,
,,,,,,,,,663d0e210e239265b07238f1,Spanish,13 or older,"no, only English or Spanish",yes,2025-07-23_11h08.39.944,empathy_intonation_perc,2024.2.4,Win32,60.0240096,663d0e210e239265b07238f1,687ed1b7e638a4cbf2f02089,6880d62e6f5f32bdb03c266b,,,,,,,,,,,,,54,0,,./stim/wavs/cuban_match_declarative-broad-focus_Maria-bebe-el-vino.wav,,,,,,,,,,,,,,,,,,,,,,560.606,571.941,0,1,10.827,,0,32,32,53,1,0,cuban,,,,,,,,,,,,,,,,,,,,,,,,,,,,,,,,,,,,,,,,,,,,,,,,,,,,,,,,
,,,,,,,,,663d0e210e239265b07238f1,Spanish,13 or older,"no, only English or Spanish",yes,2025-07-23_11h08.39.944,empathy_intonation_perc,2024.2.4,Win32,60.0240096,663d0e210e239265b07238f1,687ed1b7e638a4cbf2f02089,6880d62e6f5f32bdb03c266b,,,,,,,,,,,,,65,0,,./stim/wavs/puertorican_match_declarative-broad-focus_David-leia-el-libro.wav,,,,,,,,,,,,,,,,,,,,,,571.944,578.239,1,0,5.766,,0,33,33,64,1,0,puertorican,,,,,,,,,,,,,,,,,,,,,,,,,,,,,,,,,,,,,,,,,,,,,,,,,,,,,,,,
,,,,,,,,,663d0e210e239265b07238f1,Spanish,13 or older,"no, only English or Spanish",yes,2025-07-23_11h08.39.944,empathy_intonation_perc,2024.2.4,Win32,60.0240096,663d0e210e239265b07238f1,687ed1b7e638a4cbf2f02089,6880d62e6f5f32bdb03c266b,,,,,,,,,,,,,84,0,,./stim/wavs/puertorican_mismatch_declarative-broad-focus_El-bebe-comia-muy-bien.wav,,,,,,,,,,,,,,,,,,,,,,578.24,599.739,1,0,20.966,,0,34,34,83,1,0,puertorican,,,,,,,,,,,,,,,,,,,,,,,,,,,,,,,,,,,,,,,,,,,,,,,,,,,,,,,,
,,,,,,,,,663d0e210e239265b07238f1,Spanish,13 or older,"no, only English or Spanish",yes,2025-07-23_11h08.39.944,empathy_intonation_perc,2024.2.4,Win32,60.0240096,663d0e210e239265b07238f1,687ed1b7e638a4cbf2f02089,6880d62e6f5f32bdb03c266b,,,,,,,,,,,,,32,1,,./stim/wavs/cuban_mismatch_interrogative-total-yn_Mi-madre-come-la-fruta.wav,,,,,,,,,,,,,,,,,,,,,,599.742,606.806,0,0,6.533,,0,35,35,31,1,1,cuban,,,,,,,,,,,,,,,,,,,,,,,,,,,,,,,,,,,,,,,,,,,,,,,,,,,,,,,,
,,,,,,,,,663d0e210e239265b07238f1,Spanish,13 or older,"no, only English or Spanish",yes,2025-07-23_11h08.39.944,empathy_intonation_perc,2024.2.4,Win32,60.0240096,663d0e210e239265b07238f1,687ed1b7e638a4cbf2f02089,6880d62e6f5f32bdb03c266b,,,,,,,,,,,,,37,1,,./stim/wavs/mexican_mismatch_interrogative-total-yn_La-maestra-vive-en-Paris.wav,,,,,,,,,,,,,,,,,,,,,,606.807,613.138,0,0,5.802,,0,36,36,36,1,0,mexican,,,,,,,,,,,,,,,,,,,,,,,,,,,,,,,,,,,,,,,,,,,,,,,,,,,,,,,,
,,,,,,,,,663d0e210e239265b07238f1,Spanish,13 or older,"no, only English or Spanish",yes,2025-07-23_11h08.39.944,empathy_intonation_perc,2024.2.4,Win32,60.0240096,663d0e210e239265b07238f1,687ed1b7e638a4cbf2f02089,6880d62e6f5f32bdb03c266b,,,,,,,,,,,,,60,0,,./stim/wavs/mexican_match_declarative-broad-focus_Emilio-ama-la-marcha.wav,,,,,,,,,,,,,,,,,,,,,,613.139,615.372,0,1,1.717,,0,37,37,59,1,0,mexican,,,,,,,,,,,,,,,,,,,,,,,,,,,,,,,,,,,,,,,,,,,,,,,,,,,,,,,,
,,,,,,,,,663d0e210e239265b07238f1,Spanish,13 or older,"no, only English or Spanish",yes,2025-07-23_11h08.39.944,empathy_intonation_perc,2024.2.4,Win32,60.0240096,663d0e210e239265b07238f1,687ed1b7e638a4cbf2f02089,6880d62e6f5f32bdb03c266b,,,,,,,,,,,,,18,1,,./stim/wavs/mexican_match_interrogative-total-yn_Marta-abre-el-regalo.wav,,,,,,,,,,,,,,,,,,,,,,615.373,617.306,1,1,1.408,,0,38,38,17,1,0,mexican,,,,,,,,,,,,,,,,,,,,,,,,,,,,,,,,,,,,,,,,,,,,,,,,,,,,,,,,
,,,,,,,,,663d0e210e239265b07238f1,Spanish,13 or older,"no, only English or Spanish",yes,2025-07-23_11h08.39.944,empathy_intonation_perc,2024.2.4,Win32,60.0240096,663d0e210e239265b07238f1,687ed1b7e638a4cbf2f02089,6880d62e6f5f32bdb03c266b,,,,,,,,,,,,,38,1,,./stim/wavs/mexican_mismatch_interrogative-total-yn_Mi-novio-viene-del-lago.wav,,,,,,,,,,,,,,,,,,,,,,617.307,619.571,0,0,1.732,,0,39,39,37,1,0,mexican,,,,,,,,,,,,,,,,,,,,,,,,,,,,,,,,,,,,,,,,,,,,,,,,,,,,,,,,
,,,,,,,,,663d0e210e239265b07238f1,Spanish,13 or older,"no, only English or Spanish",yes,2025-07-23_11h08.39.944,empathy_intonation_perc,2024.2.4,Win32,60.0240096,663d0e210e239265b07238f1,687ed1b7e638a4cbf2f02089,6880d62e6f5f32bdb03c266b,,,,,,,,,,,,,74,0,,./stim/wavs/cuban_mismatch_declarative-broad-focus_El-bebe-comia-muy-bien.wav,,,,,,,,,,,,,,,,,,,,,,619.572,621.872,0,1,1.784,,0,40,40,73,1,0,cuban,,,,,,,,,,,,,,,,,,,,,,,,,,,,,,,,,,,,,,,,,,,,,,,,,,,,,,,,
,,,,,,,,,663d0e210e239265b07238f1,Spanish,13 or older,"no, only English or Spanish",yes,2025-07-23_11h08.39.944,empathy_intonation_perc,2024.2.4,Win32,60.0240096,663d0e210e239265b07238f1,687ed1b7e638a4cbf2f02089,6880d62e6f5f32bdb03c266b,,,,,,,,,,,,,1,1,,./stim/wavs/castilian_match_interrogative-total-yn_David-leia-el-libro.wav,,,,,,,,,,,,,,,,,,,,,,621.872,623.905,0,0,1.501,,0,41,41,0,1,0,castilian,,,,,,,,,,,,,,,,,,,,,,,,,,,,,,,,,,,,,,,,,,,,,,,,,,,,,,,,
,,,,,,,,,663d0e210e239265b07238f1,Spanish,13 or older,"no, only English or Spanish",yes,2025-07-23_11h08.39.944,empathy_intonation_perc,2024.2.4,Win32,60.0240096,663d0e210e239265b07238f1,687ed1b7e638a4cbf2f02089,6880d62e6f5f32bdb03c266b,,,,,,,,,,,,,67,0,,./stim/wavs/puertorican_match_declarative-broad-focus_Manuela-vende-el-carro.wav,,,,,,,,,,,,,,,,,,,,,,623.905,626.322,1,0,1.884,,0,42,42,66,1,0,puertorican,,,,,,,,,,,,,,,,,,,,,,,,,,,,,,,,,,,,,,,,,,,,,,,,,,,,,,,,
,,,,,,,,,663d0e210e239265b07238f1,Spanish,13 or older,"no, only English or Spanish",yes,2025-07-23_11h08.39.944,empathy_intonation_perc,2024.2.4,Win32,60.0240096,663d0e210e239265b07238f1,687ed1b7e638a4cbf2f02089,6880d62e6f5f32bdb03c266b,,,,,,,,,,,,,45,0,,./stim/wavs/castilian_match_declarative-broad-focus_David-leia-el-libro.wav,,,,,,,,,,,,,,,,,,,,,,626.323,629.755,0,1,2.9,,0,43,43,44,1,0,castilian,,,,,,,,,,,,,,,,,,,,,,,,,,,,,,,,,,,,,,,,,,,,,,,,,,,,,,,,
,,,,,,,,,663d0e210e239265b07238f1,Spanish,13 or older,"no, only English or Spanish",yes,2025-07-23_11h08.39.944,empathy_intonation_perc,2024.2.4,Win32,60.0240096,663d0e210e239265b07238f1,687ed1b7e638a4cbf2f02089,6880d62e6f5f32bdb03c266b,,,,,,,,,,,,,62,0,,./stim/wavs/mexican_match_declarative-broad-focus_Marta-abre-el-regalo.wav,,,,,,,,,,,,,,,,,,,,,,629.755,632.889,1,0,2.623,,0,44,44,61,1,0,mexican,,,,,,,,,,,,,,,,,,,,,,,,,,,,,,,,,,,,,,,,,,,,,,,,,,,,,,,,
,,,,,,,,,663d0e210e239265b07238f1,Spanish,13 or older,"no, only English or Spanish",yes,2025-07-23_11h08.39.944,empathy_intonation_perc,2024.2.4,Win32,60.0240096,663d0e210e239265b07238f1,687ed1b7e638a4cbf2f02089,6880d62e6f5f32bdb03c266b,,,,,,,,,,,,,43,1,,./stim/wavs/puertorican_mismatch_interrogative-total-yn_La-nina-lava-el-plato.wav,,,,,,,,,,,,,,,,,,,,,,632.891,636.054,1,1,2.639,,0,45,45,42,1,1,puertorican,,,,,,,,,,,,,,,,,,,,,,,,,,,,,,,,,,,,,,,,,,,,,,,,,,,,,,,,
,,,,,,,,,663d0e210e239265b07238f1,Spanish,13 or older,"no, only English or Spanish",yes,2025-07-23_11h08.39.944,empathy_intonation_perc,2024.2.4,Win32,60.0240096,663d0e210e239265b07238f1,687ed1b7e638a4cbf2f02089,6880d62e6f5f32bdb03c266b,,,,,,,,,,,,,15,1,,./stim/wavs/mexican_match_interrogative-total-yn_David-leia-el-libro.wav,,,,,,,,,,,,,,,,,,,,,,636.055,639.438,0,0,2.867,,0,46,46,14,1,0,mexican,,,,,,,,,,,,,,,,,,,,,,,,,,,,,,,,,,,,,,,,,,,,,,,,,,,,,,,,
,,,,,,,,,663d0e210e239265b07238f1,Spanish,13 or older,"no, only English or Spanish",yes,2025-07-23_11h08.39.944,empathy_intonation_perc,2024.2.4,Win32,60.0240096,663d0e210e239265b07238f1,687ed1b7e638a4cbf2f02089,6880d62e6f5f32bdb03c266b,,,,,,,,,,,,,57,0,,./stim/wavs/mexican_match_declarative-broad-focus_Ana-lleva-el-abrigo.wav,,,,,,,,,,,,,,,,,,,,,,639.439,641.572,1,0,1.6,,0,47,47,56,1,0,mexican,,,,,,,,,,,,,,,,,,,,,,,,,,,,,,,,,,,,,,,,,,,,,,,,,,,,,,,,
,,,,,,,,,663d0e210e239265b07238f1,Spanish,13 or older,"no, only English or Spanish",yes,2025-07-23_11h08.39.944,empathy_intonation_perc,2024.2.4,Win32,60.0240096,663d0e210e239265b07238f1,687ed1b7e638a4cbf2f02089,6880d62e6f5f32bdb03c266b,,,,,,,,,,,,,51,0,,./stim/wavs/cuban_match_declarative-broad-focus_Ana-lleva-el-abrigo.wav,,,,,,,,,,,,,,,,,,,,,,641.572,646.122,1,0,4.027,,0,48,48,50,1,0,cuban,,,,,,,,,,,,,,,,,,,,,,,,,,,,,,,,,,,,,,,,,,,,,,,,,,,,,,,,
,,,,,,,,,663d0e210e239265b07238f1,Spanish,13 or older,"no, only English or Spanish",yes,2025-07-23_11h08.39.944,empathy_intonation_perc,2024.2.4,Win32,60.0240096,663d0e210e239265b07238f1,687ed1b7e638a4cbf2f02089,6880d62e6f5f32bdb03c266b,,,,,,,,,,,,,72,0,,./stim/wavs/castilian_mismatch_declarative-broad-focus_Mi-novio-viene-del-lago.wav,,,,,,,,,,,,,,,,,,,,,,646.123,649.121,0,1,2.474,,0,49,49,71,1,0,castilian,,,,,,,,,,,,,,,,,,,,,,,,,,,,,,,,,,,,,,,,,,,,,,,,,,,,,,,,
,,,,,,,,,663d0e210e239265b07238f1,Spanish,13 or older,"no, only English or Spanish",yes,2025-07-23_11h08.39.944,empathy_intonation_perc,2024.2.4,Win32,60.0240096,663d0e210e239265b07238f1,687ed1b7e638a4cbf2f02089,6880d62e6f5f32bdb03c266b,,,,,,,,,,,,,27,1,,./stim/wavs/castilian_mismatch_interrogative-total-yn_Mi-madre-come-la-fruta.wav,,,,,,,,,,,,,,,,,,,,,,649.122,651.621,0,0,1.966,,0,50,50,26,1,0,castilian,,,,,,,,,,,,,,,,,,,,,,,,,,,,,,,,,,,,,,,,,,,,,,,,,,,,,,,,
,,,,,,,,,663d0e210e239265b07238f1,Spanish,13 or older,"no, only English or Spanish",yes,2025-07-23_11h08.39.944,empathy_intonation_perc,2024.2.4,Win32,60.0240096,663d0e210e239265b07238f1,687ed1b7e638a4cbf2f02089,6880d62e6f5f32bdb03c266b,,,,,,,,,,,,,49,0,,./stim/wavs/castilian_match_declarative-broad-focus_Mariano-habla-del-tiempo.wav,,,,,,,,,,,,,,,,,,,,,,651.622,660.555,0,1,8.399,,0,51,51,48,1,0,castilian,,,,,,,,,,,,,,,,,,,,,,,,,,,,,,,,,,,,,,,,,,,,,,,,,,,,,,,,
,,,,,,,,,663d0e210e239265b07238f1,Spanish,13 or older,"no, only English or Spanish",yes,2025-07-23_11h08.39.944,empathy_intonation_perc,2024.2.4,Win32,60.0240096,663d0e210e239265b07238f1,687ed1b7e638a4cbf2f02089,6880d62e6f5f32bdb03c266b,,,,,,,,,,,,,50,0,,./stim/wavs/castilian_match_declarative-broad-focus_Marta-abre-el-regalo.wav,,,,,,,,,,,,,,,,,,,,,,660.555,664.671,0,1,3.589,,0,52,52,49,1,0,castilian,,,,,,,,,,,,,,,,,,,,,,,,,,,,,,,,,,,,,,,,,,,,,,,,,,,,,,,,
,,,,,,,,,663d0e210e239265b07238f1,Spanish,13 or older,"no, only English or Spanish",yes,2025-07-23_11h08.39.944,empathy_intonation_perc,2024.2.4,Win32,60.0240096,663d0e210e239265b07238f1,687ed1b7e638a4cbf2f02089,6880d62e6f5f32bdb03c266b,,,,,,,,,,,,,69,0,,./stim/wavs/castilian_mismatch_declarative-broad-focus_El-nino-oye-el-rio.wav,,,,,,,,,,,,,,,,,,,,,,664.672,670.939,0,1,5.752,,0,53,53,68,1,0,castilian,,,,,,,,,,,,,,,,,,,,,,,,,,,,,,,,,,,,,,,,,,,,,,,,,,,,,,,,
,,,,,,,,,663d0e210e239265b07238f1,Spanish,13 or older,"no, only English or Spanish",yes,2025-07-23_11h08.39.944,empathy_intonation_perc,2024.2.4,Win32,60.0240096,663d0e210e239265b07238f1,687ed1b7e638a4cbf2f02089,6880d62e6f5f32bdb03c266b,,,,,,,,,,,,,26,1,,./stim/wavs/castilian_mismatch_interrogative-total-yn_La-nina-lava-el-plato.wav,,,,,,,,,,,,,,,,,,,,,,670.942,675.722,0,0,4.254,,0,54,54,25,1,0,castilian,,,,,,,,,,,,,,,,,,,,,,,,,,,,,,,,,,,,,,,,,,,,,,,,,,,,,,,,
,,,,,,,,,663d0e210e239265b07238f1,Spanish,13 or older,"no, only English or Spanish",yes,2025-07-23_11h08.39.944,empathy_intonation_perc,2024.2.4,Win32,60.0240096,663d0e210e239265b07238f1,687ed1b7e638a4cbf2f02089,6880d62e6f5f32bdb03c266b,,,,,,,,,,,,,55,0,,./stim/wavs/cuban_match_declarative-broad-focus_Mariano-habla-del-tiempo.wav,,,,,,,,,,,,,,,,,,,,,,675.724,680.722,0,1,4.469,,0,55,55,54,1,0,cuban,,,,,,,,,,,,,,,,,,,,,,,,,,,,,,,,,,,,,,,,,,,,,,,,,,,,,,,,
,,,,,,,,,663d0e210e239265b07238f1,Spanish,13 or older,"no, only English or Spanish",yes,2025-07-23_11h08.39.944,empathy_intonation_perc,2024.2.4,Win32,60.0240096,663d0e210e239265b07238f1,687ed1b7e638a4cbf2f02089,6880d62e6f5f32bdb03c266b,,,,,,,,,,,,,13,1,,./stim/wavs/mexican_match_interrogative-total-yn_Ana-lleva-el-abrigo.wav,,,,,,,,,,,,,,,,,,,,,,680.723,686.855,0,0,5.608,,0,56,56,12,1,0,mexican,,,,,,,,,,,,,,,,,,,,,,,,,,,,,,,,,,,,,,,,,,,,,,,,,,,,,,,,
,,,,,,,,,663d0e210e239265b07238f1,Spanish,13 or older,"no, only English or Spanish",yes,2025-07-23_11h08.39.944,empathy_intonation_perc,2024.2.4,Win32,60.0240096,663d0e210e239265b07238f1,687ed1b7e638a4cbf2f02089,6880d62e6f5f32bdb03c266b,,,,,,,,,,,,,7,1,,./stim/wavs/cuban_match_interrogative-total-yn_Ana-lleva-el-abrigo.wav,,,,,,,,,,,,,,,,,,,,,,686.856,693.022,0,0,5.634,,0,57,57,6,1,1,cuban,,,,,,,,,,,,,,,,,,,,,,,,,,,,,,,,,,,,,,,,,,,,,,,,,,,,,,,,
,,,,,,,,,663d0e210e239265b07238f1,Spanish,13 or older,"no, only English or Spanish",yes,2025-07-23_11h08.39.944,empathy_intonation_perc,2024.2.4,Win32,60.0240096,663d0e210e239265b07238f1,687ed1b7e638a4cbf2f02089,6880d62e6f5f32bdb03c266b,,,,,,,,,,,,,46,0,,./stim/wavs/castilian_match_declarative-broad-focus_Emilio-ama-la-marcha.wav,,,,,,,,,,,,,,,,,,,,,,693.023,705.906,0,1,12.351,,0,58,58,45,1,0,castilian,,,,,,,,,,,,,,,,,,,,,,,,,,,,,,,,,,,,,,,,,,,,,,,,,,,,,,,,
,,,,,,,,,663d0e210e239265b07238f1,Spanish,13 or older,"no, only English or Spanish",yes,2025-07-23_11h08.39.944,empathy_intonation_perc,2024.2.4,Win32,60.0240096,663d0e210e239265b07238f1,687ed1b7e638a4cbf2f02089,6880d62e6f5f32bdb03c266b,,,,,,,,,,,,,52,0,,./stim/wavs/cuban_match_declarative-broad-focus_Daniel-iba-a-Bolivia.wav,,,,,,,,,,,,,,,,,,,,,,705.91,715.972,0,1,9.538,,0,59,59,51,1,0,cuban,,,,,,,,,,,,,,,,,,,,,,,,,,,,,,,,,,,,,,,,,,,,,,,,,,,,,,,,
,,,,,,,,,663d0e210e239265b07238f1,Spanish,13 or older,"no, only English or Spanish",yes,2025-07-23_11h08.39.944,empathy_intonation_perc,2024.2.4,Win32,60.0240096,663d0e210e239265b07238f1,687ed1b7e638a4cbf2f02089,6880d62e6f5f32bdb03c266b,,,,,,,,,,,,,39,1,,./stim/wavs/mexican_mismatch_interrogative-total-yn_Mi-tia-odia-la-lluvia.wav,,,,,,,,,,,,,,,,,,,,,,715.973,733.172,1,1,16.671,,0,60,60,38,1,0,mexican,,,,,,,,,,,,,,,,,,,,,,,,,,,,,,,,,,,,,,,,,,,,,,,,,,,,,,,,
,,,,,,,,,663d0e210e239265b07238f1,Spanish,13 or older,"no, only English or Spanish",yes,2025-07-23_11h08.39.944,empathy_intonation_perc,2024.2.4,Win32,60.0240096,663d0e210e239265b07238f1,687ed1b7e638a4cbf2f02089,6880d62e6f5f32bdb03c266b,,,,,,,,,,,,,40,1,,./stim/wavs/puertorican_mismatch_interrogative-total-yn_El-hombre-mira-la-luna.wav,,,,,,,,,,,,,,,,,,,,,,733.175,749.405,0,0,15.7,,0,61,61,39,1,1,puertorican,,,,,,,,,,,,,,,,,,,,,,,,,,,,,,,,,,,,,,,,,,,,,,,,,,,,,,,,
,,,,,,,,,663d0e210e239265b07238f1,Spanish,13 or older,"no, only English or Spanish",yes,2025-07-23_11h08.39.944,empathy_intonation_perc,2024.2.4,Win32,60.0240096,663d0e210e239265b07238f1,687ed1b7e638a4cbf2f02089,6880d62e6f5f32bdb03c266b,,,,,,,,,,,,,47,0,,./stim/wavs/castilian_match_declarative-broad-focus_Manuela-vende-el-carro.wav,,,,,,,,,,,,,,,,,,,,,,749.406,761.522,0,1,11.589,,0,62,62,46,1,0,castilian,,,,,,,,,,,,,,,,,,,,,,,,,,,,,,,,,,,,,,,,,,,,,,,,,,,,,,,,
,,,,,,,,,663d0e210e239265b07238f1,Spanish,13 or older,"no, only English or Spanish",yes,2025-07-23_11h08.39.944,empathy_intonation_perc,2024.2.4,Win32,60.0240096,663d0e210e239265b07238f1,687ed1b7e638a4cbf2f02089,6880d62e6f5f32bdb03c266b,,,,,,,,,,,,,34,1,,./stim/wavs/cuban_mismatch_interrogative-total-yn_Mi-tia-odia-la-lluvia.wav,,,,,,,,,,,,,,,,,,,,,,761.524,781.422,0,0,19.367,,0,63,63,33,1,1,cuban,,,,,,,,,,,,,,,,,,,,,,,,,,,,,,,,,,,,,,,,,,,,,,,,,,,,,,,,
,,,,,,,,,663d0e210e239265b07238f1,Spanish,13 or older,"no, only English or Spanish",yes,2025-07-23_11h08.39.944,empathy_intonation_perc,2024.2.4,Win32,60.0240096,663d0e210e239265b07238f1,687ed1b7e638a4cbf2f02089,6880d62e6f5f32bdb03c266b,,,,,,,,,,,,,6,1,,./stim/wavs/castilian_match_interrogative-total-yn_Marta-abre-el-regalo.wav,,,,,,,,,,,,,,,,,,,,,,781.425,789.605,0,0,7.652,,0,64,64,5,1,0,castilian,,,,,,,,,,,,,,,,,,,,,,,,,,,,,,,,,,,,,,,,,,,,,,,,,,,,,,,,
,,,,,,,,,663d0e210e239265b07238f1,Spanish,13 or older,"no, only English or Spanish",yes,2025-07-23_11h08.39.944,empathy_intonation_perc,2024.2.4,Win32,60.0240096,663d0e210e239265b07238f1,687ed1b7e638a4cbf2f02089,6880d62e6f5f32bdb03c266b,,,,,,,,,,,,,17,1,,./stim/wavs/mexican_match_interrogative-total-yn_Mariano-habla-del-tiempo.wav,,,,,,,,,,,,,,,,,,,,,,789.605,818.705,0,0,28.589,,0,65,65,16,1,0,mexican,,,,,,,,,,,,,,,,,,,,,,,,,,,,,,,,,,,,,,,,,,,,,,,,,,,,,,,,
,,,,,,,,,663d0e210e239265b07238f1,Spanish,13 or older,"no, only English or Spanish",yes,2025-07-23_11h08.39.944,empathy_intonation_perc,2024.2.4,Win32,60.0240096,663d0e210e239265b07238f1,687ed1b7e638a4cbf2f02089,6880d62e6f5f32bdb03c266b,,,,,,,,,,,,,68,0,,./stim/wavs/puertorican_match_declarative-broad-focus_Maria-bebe-el-vino.wav,,,,,,,,,,,,,,,,,,,,,,818.709,861.973,0,1,42.742,,0,66,66,67,1,0,puertorican,,,,,,,,,,,,,,,,,,,,,,,,,,,,,,,,,,,,,,,,,,,,,,,,,,,,,,,,
,,,,,,,,,663d0e210e239265b07238f1,Spanish,13 or older,"no, only English or Spanish",yes,2025-07-23_11h08.39.944,empathy_intonation_perc,2024.2.4,Win32,60.0240096,663d0e210e239265b07238f1,687ed1b7e638a4cbf2f02089,6880d62e6f5f32bdb03c266b,,,,,,,,,,,,,79,0,,./stim/wavs/mexican_mismatch_declarative-broad-focus_El-bebe-comia-muy-bien.wav,,,,,,,,,,,,,,,,,,,,,,861.977,868.34,0,1,5.835,,0,67,67,78,1,0,mexican,,,,,,,,,,,,,,,,,,,,,,,,,,,,,,,,,,,,,,,,,,,,,,,,,,,,,,,,
,,,,,,,,,663d0e210e239265b07238f1,Spanish,13 or older,"no, only English or Spanish",yes,2025-07-23_11h08.39.944,empathy_intonation_perc,2024.2.4,Win32,60.0240096,663d0e210e239265b07238f1,687ed1b7e638a4cbf2f02089,6880d62e6f5f32bdb03c266b,,,,,,,,,,,,,11,1,,./stim/wavs/cuban_match_interrogative-total-yn_Mariano-habla-del-tiempo.wav,,,,,,,,,,,,,,,,,,,,,,868.343,874.573,0,0,5.702,,0,68,68,10,1,1,cuban,,,,,,,,,,,,,,,,,,,,,,,,,,,,,,,,,,,,,,,,,,,,,,,,,,,,,,,,
,,,,,,,,,663d0e210e239265b07238f1,Spanish,13 or older,"no, only English or Spanish",yes,2025-07-23_11h08.39.944,empathy_intonation_perc,2024.2.4,Win32,60.0240096,663d0e210e239265b07238f1,687ed1b7e638a4cbf2f02089,6880d62e6f5f32bdb03c266b,,,,,,,,,,,,,25,1,,./stim/wavs/castilian_mismatch_interrogative-total-yn_La-maestra-vive-en-Paris.wav,,,,,,,,,,,,,,,,,,,,,,874.573,882.355,0,0,7.248,,0,69,69,24,1,0,castilian,,,,,,,,,,,,,,,,,,,,,,,,,,,,,,,,,,,,,,,,,,,,,,,,,,,,,,,,
,,,,,,,,,663d0e210e239265b07238f1,Spanish,13 or older,"no, only English or Spanish",yes,2025-07-23_11h08.39.944,empathy_intonation_perc,2024.2.4,Win32,60.0240096,663d0e210e239265b07238f1,687ed1b7e638a4cbf2f02089,6880d62e6f5f32bdb03c266b,,,,,,,,,,,,,12,1,,./stim/wavs/cuban_match_interrogative-total-yn_Marta-abre-el-regalo.wav,,,,,,,,,,,,,,,,,,,,,,882.356,907.723,0,0,24.835,,0,70,70,11,1,1,cuban,,,,,,,,,,,,,,,,,,,,,,,,,,,,,,,,,,,,,,,,,,,,,,,,,,,,,,,,
,,,,,,,,,663d0e210e239265b07238f1,Spanish,13 or older,"no, only English or Spanish",yes,2025-07-23_11h08.39.944,empathy_intonation_perc,2024.2.4,Win32,60.0240096,663d0e210e239265b07238f1,687ed1b7e638a4cbf2f02089,6880d62e6f5f32bdb03c266b,,,,,,,,,,,,,82,0,,./stim/wavs/mexican_mismatch_declarative-broad-focus_Mi-novio-viene-del-lago.wav,,,,,,,,,,,,,,,,,,,,,,907.726,931.422,0,1,23.166,,0,71,71,81,1,0,mexican,,,,,,,,,,,,,,,,,,,,,,,,,,,,,,,,,,,,,,,,,,,,,,,,,,,,,,,,
,,,,,,,,,663d0e210e239265b07238f1,Spanish,13 or older,"no, only English or Spanish",yes,2025-07-23_11h08.39.944,empathy_intonation_perc,2024.2.4,Win32,60.0240096,663d0e210e239265b07238f1,687ed1b7e638a4cbf2f02089,6880d62e6f5f32bdb03c266b,,,,,,,,,,,,,70,0,,./stim/wavs/castilian_mismatch_declarative-broad-focus_La-maestra-vive-en-Paris.wav,,,,,,,,,,,,,,,,,,,,,,931.422,950.256,0,1,18.317,,0,72,72,69,1,0,castilian,,,,,,,,,,,,,,,,,,,,,,,,,,,,,,,,,,,,,,,,,,,,,,,,,,,,,,,,
,,,,,,,,,663d0e210e239265b07238f1,Spanish,13 or older,"no, only English or Spanish",yes,2025-07-23_11h08.39.944,empathy_intonation_perc,2024.2.4,Win32,60.0240096,663d0e210e239265b07238f1,687ed1b7e638a4cbf2f02089,6880d62e6f5f32bdb03c266b,,,,,,,,,,,,,88,0,,./stim/wavs/puertorican_mismatch_declarative-broad-focus_La-nina-lava-el-plato.wav,,,,,,,,,,,,,,,,,,,,,,950.258,967.273,0,1,16.484,,0,73,73,87,1,0,puertorican,,,,,,,,,,,,,,,,,,,,,,,,,,,,,,,,,,,,,,,,,,,,,,,,,,,,,,,,
,,,,,,,,,663d0e210e239265b07238f1,Spanish,13 or older,"no, only English or Spanish",yes,2025-07-23_11h08.39.944,empathy_intonation_perc,2024.2.4,Win32,60.0240096,663d0e210e239265b07238f1,687ed1b7e638a4cbf2f02089,6880d62e6f5f32bdb03c266b,,,,,,,,,,,,,31,1,,./stim/wavs/cuban_mismatch_interrogative-total-yn_El-nino-oye-el-rio.wav,,,,,,,,,,,,,,,,,,,,,,967.276,981.872,0,0,14.068,,0,74,74,30,1,1,cuban,,,,,,,,,,,,,,,,,,,,,,,,,,,,,,,,,,,,,,,,,,,,,,,,,,,,,,,,
,,,,,,,,,663d0e210e239265b07238f1,Spanish,13 or older,"no, only English or Spanish",yes,2025-07-23_11h08.39.944,empathy_intonation_perc,2024.2.4,Win32,60.0240096,663d0e210e239265b07238f1,687ed1b7e638a4cbf2f02089,6880d62e6f5f32bdb03c266b,,,,,,,,,,,,,33,1,,./stim/wavs/cuban_mismatch_interrogative-total-yn_Mi-novio-viene-del-lago.wav,,,,,,,,,,,,,,,,,,,,,,981.873,1103.539,0,0,121.156,,0,75,75,32,1,1,cuban,,,,,,,,,,,,,,,,,,,,,,,,,,,,,,,,,,,,,,,,,,,,,,,,,,,,,,,,
,,,,,,,,,663d0e210e239265b07238f1,Spanish,13 or older,"no, only English or Spanish",yes,2025-07-23_11h08.39.944,empathy_intonation_perc,2024.2.4,Win32,60.0240096,663d0e210e239265b07238f1,687ed1b7e638a4cbf2f02089,6880d62e6f5f32bdb03c266b,,,,,,,,,,,,,20,1,,./stim/wavs/puertorican_match_interrogative-total-yn_Daniel-iba-a-Bolivia.wav,,,,,,,,,,,,,,,,,,,,,,1103.542,1114.306,0,0,10.231,,0,76,76,19,1,1,puertorican,,,,,,,,,,,,,,,,,,,,,,,,,,,,,,,,,,,,,,,,,,,,,,,,,,,,,,,,
,,,,,,,,,663d0e210e239265b07238f1,Spanish,13 or older,"no, only English or Spanish",yes,2025-07-23_11h08.39.944,empathy_intonation_perc,2024.2.4,Win32,60.0240096,663d0e210e239265b07238f1,687ed1b7e638a4cbf2f02089,6880d62e6f5f32bdb03c266b,,,,,,,,,,,,,86,0,,./stim/wavs/puertorican_mismatch_declarative-broad-focus_El-nino-oye-el-rio.wav,,,,,,,,,,,,,,,,,,,,,,1114.308,1120.372,0,1,5.536,,0,77,77,85,1,0,puertorican,,,,,,,,,,,,,,,,,,,,,,,,,,,,,,,,,,,,,,,,,,,,,,,,,,,,,,,,
,,,,,,,,,663d0e210e239265b07238f1,Spanish,13 or older,"no, only English or Spanish",yes,2025-07-23_11h08.39.944,empathy_intonation_perc,2024.2.4,Win32,60.0240096,663d0e210e239265b07238f1,687ed1b7e638a4cbf2f02089,6880d62e6f5f32bdb03c266b,,,,,,,,,,,,,19,1,,./stim/wavs/puertorican_match_interrogative-total-yn_Ana-lleva-el-abrigo.wav,,,,,,,,,,,,,,,,,,,,,,1120.373,1125.106,0,0,4.206,,0,78,78,18,1,1,puertorican,,,,,,,,,,,,,,,,,,,,,,,,,,,,,,,,,,,,,,,,,,,,,,,,,,,,,,,,
,,,,,,,,,663d0e210e239265b07238f1,Spanish,13 or older,"no, only English or Spanish",yes,2025-07-23_11h08.39.944,empathy_intonation_perc,2024.2.4,Win32,60.0240096,663d0e210e239265b07238f1,687ed1b7e638a4cbf2f02089,6880d62e6f5f32bdb03c266b,,,,,,,,,,,,,41,1,,./stim/wavs/puertorican_mismatch_interrogative-total-yn_El-nino-oye-el-rio.wav,,,,,,,,,,,,,,,,,,,,,,1125.107,1134.989,0,0,9.352,,0,79,79,40,1,1,puertorican,,,,,,,,,,,,,,,,,,,,,,,,,,,,,,,,,,,,,,,,,,,,,,,,,,,,,,,,
,,,,,,,,,663d0e210e239265b07238f1,Spanish,13 or older,"no, only English or Spanish",yes,2025-07-23_11h08.39.944,empathy_intonation_perc,2024.2.4,Win32,60.0240096,663d0e210e239265b07238f1,687ed1b7e638a4cbf2f02089,6880d62e6f5f32bdb03c266b,,,,,,,,,,,,,29,1,,./stim/wavs/castilian_mismatch_interrogative-total-yn_Mi-tia-odia-la-lluvia.wav,,,,,,,,,,,,,,,,,,,,,,1134.993,1146.956,0,0,11.442,,0,80,80,28,1,0,castilian,,,,,,,,,,,,,,,,,,,,,,,,,,,,,,,,,,,,,,,,,,,,,,,,,,,,,,,,
,,,,,,,,,663d0e210e239265b07238f1,Spanish,13 or older,"no, only English or Spanish",yes,2025-07-23_11h08.39.944,empathy_intonation_perc,2024.2.4,Win32,60.0240096,663d0e210e239265b07238f1,687ed1b7e638a4cbf2f02089,6880d62e6f5f32bdb03c266b,,,,,,,,,,,,,53,0,,./stim/wavs/cuban_match_declarative-broad-focus_Manuela-vende-el-carro.wav,,,,,,,,,,,,,,,,,,,,,,1146.957,1165.89,1,0,18.425,,0,81,81,52,1,0,cuban,,,,,,,,,,,,,,,,,,,,,,,,,,,,,,,,,,,,,,,,,,,,,,,,,,,,,,,,
,,,,,,,,,663d0e210e239265b07238f1,Spanish,13 or older,"no, only English or Spanish",yes,2025-07-23_11h08.39.944,empathy_intonation_perc,2024.2.4,Win32,60.0240096,663d0e210e239265b07238f1,687ed1b7e638a4cbf2f02089,6880d62e6f5f32bdb03c266b,,,,,,,,,,,,,48,0,,./stim/wavs/castilian_match_declarative-broad-focus_Maria-bebe-el-vino.wav,,,,,,,,,,,,,,,,,,,,,,1165.894,1184.823,0,1,18.403,,0,82,82,47,1,0,castilian,,,,,,,,,,,,,,,,,,,,,,,,,,,,,,,,,,,,,,,,,,,,,,,,,,,,,,,,
,,,,,,,,,663d0e210e239265b07238f1,Spanish,13 or older,"no, only English or Spanish",yes,2025-07-23_11h08.39.944,empathy_intonation_perc,2024.2.4,Win32,60.0240096,663d0e210e239265b07238f1,687ed1b7e638a4cbf2f02089,6880d62e6f5f32bdb03c266b,,,,,,,,,,,,,66,0,,./stim/wavs/puertorican_match_declarative-broad-focus_Emilio-ama-la-marcha.wav,,,,,,,,,,,,,,,,,,,,,,1184.825,1188.673,0,1,3.319,,0,83,83,65,1,0,puertorican,,,,,,,,,,,,,,,,,,,,,,,,,,,,,,,,,,,,,,,,,,,,,,,,,,,,,,,,
,,,,,,,,,663d0e210e239265b07238f1,Spanish,13 or older,"no, only English or Spanish",yes,2025-07-23_11h08.39.944,empathy_intonation_perc,2024.2.4,Win32,60.0240096,663d0e210e239265b07238f1,687ed1b7e638a4cbf2f02089,6880d62e6f5f32bdb03c266b,,,,,,,,,,,,,85,0,,./stim/wavs/puertorican_mismatch_declarative-broad-focus_El-hombre-mira-la-luna.wav,,,,,,,,,,,,,,,,,,,,,,1188.674,1194.156,0,1,4.951,,0,84,84,84,1,0,puertorican,,,,,,,,,,,,,,,,,,,,,,,,,,,,,,,,,,,,,,,,,,,,,,,,,,,,,,,,
,,,,,,,,,663d0e210e239265b07238f1,Spanish,13 or older,"no, only English or Spanish",yes,2025-07-23_11h08.39.944,empathy_intonation_perc,2024.2.4,Win32,60.0240096,663d0e210e239265b07238f1,687ed1b7e638a4cbf2f02089,6880d62e6f5f32bdb03c266b,,,,,,,,,,,,,80,0,,./stim/wavs/mexican_mismatch_declarative-broad-focus_El-hombre-mira-la-luna.wav,,,,,,,,,,,,,,,,,,,,,,1194.157,1200.39,0,1,5.706,,0,85,85,79,1,0,mexican,,,,,,,,,,,,,,,,,,,,,,,,,,,,,,,,,,,,,,,,,,,,,,,,,,,,,,,,
,,,,,,,,,663d0e210e239265b07238f1,Spanish,13 or older,"no, only English or Spanish",yes,2025-07-23_11h08.39.944,empathy_intonation_perc,2024.2.4,Win32,60.0240096,663d0e210e239265b07238f1,687ed1b7e638a4cbf2f02089,6880d62e6f5f32bdb03c266b,,,,,,,,,,,,,81,0,,./stim/wavs/mexican_mismatch_declarative-broad-focus_La-maestra-vive-en-Paris.wav,,,,,,,,,,,,,,,,,,,,,,1200.395,1205.206,0,1,4.291,,0,86,86,80,1,0,mexican,,,,,,,,,,,,,,,,,,,,,,,,,,,,,,,,,,,,,,,,,,,,,,,,,,,,,,,,
,,,,,,,,,663d0e210e239265b07238f1,Spanish,13 or older,"no, only English or Spanish",yes,2025-07-23_11h08.39.944,empathy_intonation_perc,2024.2.4,Win32,60.0240096,663d0e210e239265b07238f1,687ed1b7e638a4cbf2f02089,6880d62e6f5f32bdb03c266b,,,,,,,,,,,,,35,1,,./stim/wavs/mexican_mismatch_interrogative-total-yn_El-hombre-mira-la-luna.wav,,,,,,,,,,,,,,,,,,,,,,1205.209,1208.505,0,0,2.766,,0,87,87,34,1,0,mexican,,,,,,,,,,,,,,,,,,,,,,,,,,,,,,,,,,,,,,,,,,,,,,,,,,,,,,,,
,,,,,,,"Great! Now we will move on. The next task consists of about 60 trials, in each of which you will see a string of letters. 
  
  Your task is to decide whether this is a real Spanish word or not.", (press the spacebar to continue),663d0e210e239265b07238f1,Spanish,13 or older,"no, only English or Spanish",yes,2025-07-23_11h08.39.944,empathy_intonation_perc,2024.2.4,Win32,60.0240096,663d0e210e239265b07238f1,687ed1b7e638a4cbf2f02089,6880d62e6f5f32bdb03c266b,,,,,,,,,,,,,,,,,,,,,,,,,,,,,,,,,,,,,,,,,,,,,,,,,,,1208.522,1212.273,0,0,0,0,1,,,,,,,,,,,,,,,,,,,,,,,,,,,,,,,,,,,,,,,,,,,,,,,,,
,,,,,,,"If you think it is an existing Spanish word, you type '1' (for 'REAL'), and if you think it is not an existing Spanish word, you type '0' (for 'FAKE').", (press the spacebar to continue),663d0e210e239265b07238f1,Spanish,13 or older,"no, only English or Spanish",yes,2025-07-23_11h08.39.944,empathy_intonation_perc,2024.2.4,Win32,60.0240096,663d0e210e239265b07238f1,687ed1b7e638a4cbf2f02089,6880d62e6f5f32bdb03c266b,,,,,,,,,,,,,,,,,,,,,,,,,,,,,,,,,,,,,,,,,,,,,,,,,,,1212.277,1216.989,0,1,1,1,1,,,,,,,,,,,,,,,,,,,,,,,,,,,,,,,,,,,,,,,,,,,,,,,,,
,,,,,,,"If you are sure that the word exists, even though you don’t know its exact meaning, you may still respond '1' (REAL). 
  
  But if you are not sure if it is an existing word, you should respond '0' (FAKE).
  
  Let's do a practice round...", (press the spacebar to continue),663d0e210e239265b07238f1,Spanish,13 or older,"no, only English or Spanish",yes,2025-07-23_11h08.39.944,empathy_intonation_perc,2024.2.4,Win32,60.0240096,663d0e210e239265b07238f1,687ed1b7e638a4cbf2f02089,6880d62e6f5f32bdb03c266b,,,,,,,,,,,,,,,,,,,,,,,,,,,,,,,,,,,,,,,,,,,,,,,,,,,1216.993,1219.922,0,2,2,2,1,,,,,,,,,,,,,,,,,,,,,,,,,,,,,,,,,,,,,,,,,,,,,,,,,
,,,,,,,,,663d0e210e239265b07238f1,Spanish,13 or older,"no, only English or Spanish",yes,2025-07-23_11h08.39.944,empathy_intonation_perc,2024.2.4,Win32,60.0240096,663d0e210e239265b07238f1,687ed1b7e638a4cbf2f02089,6880d62e6f5f32bdb03c266b,,,,,,,,,,,,,,0,,,,,,,,,,,,,,,,,,,,,,,,,,,,,,,,,,,,,,,,,,,,1219.929,1224.273,1,0,3.798,,1224.273,1225.272,0,0,0,0,1,0,depiste,REAL,FAKE,,,,,,,,,,,,,,,,,,,,,,,,,,,,,,,,
,,,,,,,,,663d0e210e239265b07238f1,Spanish,13 or older,"no, only English or Spanish",yes,2025-07-23_11h08.39.944,empathy_intonation_perc,2024.2.4,Win32,60.0240096,663d0e210e239265b07238f1,687ed1b7e638a4cbf2f02089,6880d62e6f5f32bdb03c266b,,,,,,,,,,,,,,1,,,,,,,,,,,,,,,,,,,,,,,,,,,,,,,,,,,,,,,,,,,,1225.274,1229.39,1,1,3.606,,1229.39,1230.39,0,1,1,1,1,0,sí,REAL,FAKE,,,,,,,,,,,,,,,,,,,,,,,,,,,,,,,,
,,,,,,,,,663d0e210e239265b07238f1,Spanish,13 or older,"no, only English or Spanish",yes,2025-07-23_11h08.39.944,empathy_intonation_perc,2024.2.4,Win32,60.0240096,663d0e210e239265b07238f1,687ed1b7e638a4cbf2f02089,6880d62e6f5f32bdb03c266b,,,,,,,,,,,,,,0,,,,,,,,,,,,,,,,,,,,,,,,,,,,,,,,,,,,,,,,,,,,1230.392,1232.723,0,1,1.782,,1232.723,1233.722,0,2,2,2,1,0,coné,REAL,FAKE,,,,,,,,,,,,,,,,,,,,,,,,,,,,,,,,
,,,,,,,,,663d0e210e239265b07238f1,Spanish,13 or older,"no, only English or Spanish",yes,2025-07-23_11h08.39.944,empathy_intonation_perc,2024.2.4,Win32,60.0240096,663d0e210e239265b07238f1,687ed1b7e638a4cbf2f02089,6880d62e6f5f32bdb03c266b,,,,,,,,,,,,,,0,,,,,,,,,,,,,,,,,,,,,,,,,,,,,,,,,,,,,,,,,,,,1233.727,1236.206,1,0,1.935,,1236.207,1237.206,0,3,3,3,1,0,calpar,REAL,FAKE,,,,,,,,,,,,,,,,,,,,,,,,,,,,,,,,
,,,,,,,,,663d0e210e239265b07238f1,Spanish,13 or older,"no, only English or Spanish",yes,2025-07-23_11h08.39.944,empathy_intonation_perc,2024.2.4,Win32,60.0240096,663d0e210e239265b07238f1,687ed1b7e638a4cbf2f02089,6880d62e6f5f32bdb03c266b,,,,,,,,,,,,,,0,,,,,,,,,,,,,,,,,,,,,,,,,,,,,,,,,,,,,,,,,,,,1237.207,1238.656,0,1,0.916,,1238.656,1239.656,0,4,4,4,1,0,joten,REAL,FAKE,,,,,,,,,,,,,,,,,,,,,,,,,,,,,,,,
,,,,,,,,,663d0e210e239265b07238f1,Spanish,13 or older,"no, only English or Spanish",yes,2025-07-23_11h08.39.944,empathy_intonation_perc,2024.2.4,Win32,60.0240096,663d0e210e239265b07238f1,687ed1b7e638a4cbf2f02089,6880d62e6f5f32bdb03c266b,,,,,,,,,,,,,,1,,,,,,,,,,,,,,,,,,,,,,,,,,,,,,,,,,,,,,,,,,,,1239.658,1242.272,0,0,2.07,,1242.273,1243.272,0,5,5,5,1,0,sacapuntas,REAL,FAKE,,,,,,,,,,,,,,,,,,,,,,,,,,,,,,,,
,,,,,,,,,663d0e210e239265b07238f1,Spanish,13 or older,"no, only English or Spanish",yes,2025-07-23_11h08.39.944,empathy_intonation_perc,2024.2.4,Win32,60.0240096,663d0e210e239265b07238f1,687ed1b7e638a4cbf2f02089,6880d62e6f5f32bdb03c266b,,,,,,,,,,,,,,0,,,,,,,,,,,,,,,,,,,,,,,,,,,,,,,,,,,,,,,,,,,,1243.275,1244.655,1,0,0.838,,1244.655,1245.656,0,6,6,6,1,0,priba,REAL,FAKE,,,,,,,,,,,,,,,,,,,,,,,,,,,,,,,,
,,,,,,,,,663d0e210e239265b07238f1,Spanish,13 or older,"no, only English or Spanish",yes,2025-07-23_11h08.39.944,empathy_intonation_perc,2024.2.4,Win32,60.0240096,663d0e210e239265b07238f1,687ed1b7e638a4cbf2f02089,6880d62e6f5f32bdb03c266b,,,,,,,,,,,,,,0,,,,,,,,,,,,,,,,,,,,,,,,,,,,,,,,,,,,,,,,,,,,1245.656,1246.705,0,1,0.519,,1246.706,1247.706,0,7,7,7,1,0,pelasula,REAL,FAKE,,,,,,,,,,,,,,,,,,,,,,,,,,,,,,,,
,,,,,,,,,663d0e210e239265b07238f1,Spanish,13 or older,"no, only English or Spanish",yes,2025-07-23_11h08.39.944,empathy_intonation_perc,2024.2.4,Win32,60.0240096,663d0e210e239265b07238f1,687ed1b7e638a4cbf2f02089,6880d62e6f5f32bdb03c266b,,,,,,,,,,,,,,1,,,,,,,,,,,,,,,,,,,,,,,,,,,,,,,,,,,,,,,,,,,,1247.706,1248.956,0,0,0.713,,1248.957,1249.955,0,8,8,8,1,0,bien,REAL,FAKE,,,,,,,,,,,,,,,,,,,,,,,,,,,,,,,,
,,,,,,,,,663d0e210e239265b07238f1,Spanish,13 or older,"no, only English or Spanish",yes,2025-07-23_11h08.39.944,empathy_intonation_perc,2024.2.4,Win32,60.0240096,663d0e210e239265b07238f1,687ed1b7e638a4cbf2f02089,6880d62e6f5f32bdb03c266b,,,,,,,,,,,,,,1,,,,,,,,,,,,,,,,,,,,,,,,,,,,,,,,,,,,,,,,,,,,1249.956,1251.29,0,0,0.812,,1251.29,1252.29,0,9,9,9,1,0,casa,REAL,FAKE,,,,,,,,,,,,,,,,,,,,,,,,,,,,,,,,
,,,,,,,,,663d0e210e239265b07238f1,Spanish,13 or older,"no, only English or Spanish",yes,2025-07-23_11h08.39.944,empathy_intonation_perc,2024.2.4,Win32,60.0240096,663d0e210e239265b07238f1,687ed1b7e638a4cbf2f02089,6880d62e6f5f32bdb03c266b,,,,,,,,,,,,,,0,,,,,,,,,,,,,,,,,,,,,,,,,,,,,,,,,,,,,,,,,,,,1252.29,1253.256,0,1,0.426,,1253.256,1254.256,0,10,10,10,1,0,lejo,REAL,FAKE,,,,,,,,,,,,,,,,,,,,,,,,,,,,,,,,
,,,,,,,,,663d0e210e239265b07238f1,Spanish,13 or older,"no, only English or Spanish",yes,2025-07-23_11h08.39.944,empathy_intonation_perc,2024.2.4,Win32,60.0240096,663d0e210e239265b07238f1,687ed1b7e638a4cbf2f02089,6880d62e6f5f32bdb03c266b,,,,,,,,,,,,,,0,,,,,,,,,,,,,,,,,,,,,,,,,,,,,,,,,,,,,,,,,,,,1254.257,1255.373,0,1,0.585,,1255.373,1256.373,0,11,11,11,1,0,pretantas,REAL,FAKE,,,,,,,,,,,,,,,,,,,,,,,,,,,,,,,,
,,,,,,,,,663d0e210e239265b07238f1,Spanish,13 or older,"no, only English or Spanish",yes,2025-07-23_11h08.39.944,empathy_intonation_perc,2024.2.4,Win32,60.0240096,663d0e210e239265b07238f1,687ed1b7e638a4cbf2f02089,6880d62e6f5f32bdb03c266b,,,,,,,,,,,,,,,,,,,,,,,,,,,,,,,,,,,,,,,,,,,,,,,,,,,,,,,,,,,,,,,,,,,,,,,,,,,1256.373,1266.639,,,,,,,,,,,,,,,,,,,,,,,,,,,,,,
,,,,,,,,,663d0e210e239265b07238f1,Spanish,13 or older,"no, only English or Spanish",yes,2025-07-23_11h08.39.944,empathy_intonation_perc,2024.2.4,Win32,60.0240096,663d0e210e239265b07238f1,687ed1b7e638a4cbf2f02089,6880d62e6f5f32bdb03c266b,,,,,,,,,,,,,,1,,,,,,,,,,,,,,,,,,,,,,,,,,,,,,,,,,,,,,,,,,,,,,,,,,,,,,,,,80,hormiga,,,,,1266.654,1268.289,0,0,1.104,,0,0,0,79,1,REAL,FAKE,,,,,,,,,,,,,,,,,
,,,,,,,,,663d0e210e239265b07238f1,Spanish,13 or older,"no, only English or Spanish",yes,2025-07-23_11h08.39.944,empathy_intonation_perc,2024.2.4,Win32,60.0240096,663d0e210e239265b07238f1,687ed1b7e638a4cbf2f02089,6880d62e6f5f32bdb03c266b,,,,,,,,,,,,,,1,,,,,,,,,,,,,,,,,,,,,,,,,,,,,,,,,,,,,,,,,,,,,,,,,,,,,,,,,68,alegre,,,,,1268.292,1270.205,1,1,1.372,,0,1,1,67,1,REAL,FAKE,,,,,,,,,,,,,,,,,
,,,,,,,,,663d0e210e239265b07238f1,Spanish,13 or older,"no, only English or Spanish",yes,2025-07-23_11h08.39.944,empathy_intonation_perc,2024.2.4,Win32,60.0240096,663d0e210e239265b07238f1,687ed1b7e638a4cbf2f02089,6880d62e6f5f32bdb03c266b,,,,,,,,,,,,,,1,,,,,,,,,,,,,,,,,,,,,,,,,,,,,,,,,,,,,,,,,,,,,,,,,,,,,,,,,56,musgo,,,,,1270.209,1271.356,0,0,0.608,,0,2,2,55,1,REAL,FAKE,,,,,,,,,,,,,,,,,
,,,,,,,,,663d0e210e239265b07238f1,Spanish,13 or older,"no, only English or Spanish",yes,2025-07-23_11h08.39.944,empathy_intonation_perc,2024.2.4,Win32,60.0240096,663d0e210e239265b07238f1,687ed1b7e638a4cbf2f02089,6880d62e6f5f32bdb03c266b,,,,,,,,,,,,,,1,,,,,,,,,,,,,,,,,,,,,,,,,,,,,,,,,,,,,,,,,,,,,,,,,,,,,,,,,43,canela,,,,,1271.358,1272.272,0,0,0.386,,0,3,3,42,1,REAL,FAKE,,,,,,,,,,,,,,,,,
,,,,,,,,,663d0e210e239265b07238f1,Spanish,13 or older,"no, only English or Spanish",yes,2025-07-23_11h08.39.944,empathy_intonation_perc,2024.2.4,Win32,60.0240096,663d0e210e239265b07238f1,687ed1b7e638a4cbf2f02089,6880d62e6f5f32bdb03c266b,,,,,,,,,,,,,,0,,,,,,,,,,,,,,,,,,,,,,,,,,,,,,,,,,,,,,,,,,,,,,,,,,,,,,,,,21,capillo,,,,,1272.273,1273.238,0,1,0.429,,0,4,4,20,1,REAL,FAKE,,,,,,,,,,,,,,,,,
,,,,,,,,,663d0e210e239265b07238f1,Spanish,13 or older,"no, only English or Spanish",yes,2025-07-23_11h08.39.944,empathy_intonation_perc,2024.2.4,Win32,60.0240096,663d0e210e239265b07238f1,687ed1b7e638a4cbf2f02089,6880d62e6f5f32bdb03c266b,,,,,,,,,,,,,,1,,,,,,,,,,,,,,,,,,,,,,,,,,,,,,,,,,,,,,,,,,,,,,,,,,,,,,,,,38,estornudar,,,,,1273.239,1274.273,1,1,0.509,,0,5,5,37,1,REAL,FAKE,,,,,,,,,,,,,,,,,
,,,,,,,,,663d0e210e239265b07238f1,Spanish,13 or older,"no, only English or Spanish",yes,2025-07-23_11h08.39.944,empathy_intonation_perc,2024.2.4,Win32,60.0240096,663d0e210e239265b07238f1,687ed1b7e638a4cbf2f02089,6880d62e6f5f32bdb03c266b,,,,,,,,,,,,,,0,,,,,,,,,,,,,,,,,,,,,,,,,,,,,,,,,,,,,,,,,,,,,,,,,,,,,,,,,16,abracer,,,,,1274.273,1275.706,1,0,0.901,,0,6,6,15,1,REAL,FAKE,,,,,,,,,,,,,,,,,
,,,,,,,,,663d0e210e239265b07238f1,Spanish,13 or older,"no, only English or Spanish",yes,2025-07-23_11h08.39.944,empathy_intonation_perc,2024.2.4,Win32,60.0240096,663d0e210e239265b07238f1,687ed1b7e638a4cbf2f02089,6880d62e6f5f32bdb03c266b,,,,,,,,,,,,,,0,,,,,,,,,,,,,,,,,,,,,,,,,,,,,,,,,,,,,,,,,,,,,,,,,,,,,,,,,27,acutación,,,,,1275.706,1276.356,0,1,0.109,,0,7,7,26,1,REAL,FAKE,,,,,,,,,,,,,,,,,
,,,,,,,,,663d0e210e239265b07238f1,Spanish,13 or older,"no, only English or Spanish",yes,2025-07-23_11h08.39.944,empathy_intonation_perc,2024.2.4,Win32,60.0240096,663d0e210e239265b07238f1,687ed1b7e638a4cbf2f02089,6880d62e6f5f32bdb03c266b,,,,,,,,,,,,,,1,,,,,,,,,,,,,,,,,,,,,,,,,,,,,,,,,,,,,,,,,,,,,,,,,,,,,,,,,48,ladrón,,,,,1276.357,1277.172,0,0,0.274,,0,8,8,47,1,REAL,FAKE,,,,,,,,,,,,,,,,,
,,,,,,,,,663d0e210e239265b07238f1,Spanish,13 or older,"no, only English or Spanish",yes,2025-07-23_11h08.39.944,empathy_intonation_perc,2024.2.4,Win32,60.0240096,663d0e210e239265b07238f1,687ed1b7e638a4cbf2f02089,6880d62e6f5f32bdb03c266b,,,,,,,,,,,,,,0,,,,,,,,,,,,,,,,,,,,,,,,,,,,,,,,,,,,,,,,,,,,,,,,,,,,,,,,,47,cartinar,,,,,1277.174,1277.873,1,0,0.178,,0,9,9,46,1,REAL,FAKE,,,,,,,,,,,,,,,,,
,,,,,,,,,663d0e210e239265b07238f1,Spanish,13 or older,"no, only English or Spanish",yes,2025-07-23_11h08.39.944,empathy_intonation_perc,2024.2.4,Win32,60.0240096,663d0e210e239265b07238f1,687ed1b7e638a4cbf2f02089,6880d62e6f5f32bdb03c266b,,,,,,,,,,,,,,1,,,,,,,,,,,,,,,,,,,,,,,,,,,,,,,,,,,,,,,,,,,,,,,,,,,,,,,,,40,alfombra,,,,,1277.875,1279.389,1,1,0.977,,0,10,10,39,1,REAL,FAKE,,,,,,,,,,,,,,,,,
,,,,,,,,,663d0e210e239265b07238f1,Spanish,13 or older,"no, only English or Spanish",yes,2025-07-23_11h08.39.944,empathy_intonation_perc,2024.2.4,Win32,60.0240096,663d0e210e239265b07238f1,687ed1b7e638a4cbf2f02089,6880d62e6f5f32bdb03c266b,,,,,,,,,,,,,,0,,,,,,,,,,,,,,,,,,,,,,,,,,,,,,,,,,,,,,,,,,,,,,,,,,,,,,,,,58,plaudir,,,,,1279.39,1280.306,0,1,0.381,,0,11,11,57,1,REAL,FAKE,,,,,,,,,,,,,,,,,
,,,,,,,,,663d0e210e239265b07238f1,Spanish,13 or older,"no, only English or Spanish",yes,2025-07-23_11h08.39.944,empathy_intonation_perc,2024.2.4,Win32,60.0240096,663d0e210e239265b07238f1,687ed1b7e638a4cbf2f02089,6880d62e6f5f32bdb03c266b,,,,,,,,,,,,,,1,,,,,,,,,,,,,,,,,,,,,,,,,,,,,,,,,,,,,,,,,,,,,,,,,,,,,,,,,25,bisagra,,,,,1280.307,1281.272,0,0,0.424,,0,12,12,24,1,REAL,FAKE,,,,,,,,,,,,,,,,,
,,,,,,,,,663d0e210e239265b07238f1,Spanish,13 or older,"no, only English or Spanish",yes,2025-07-23_11h08.39.944,empathy_intonation_perc,2024.2.4,Win32,60.0240096,663d0e210e239265b07238f1,687ed1b7e638a4cbf2f02089,6880d62e6f5f32bdb03c266b,,,,,,,,,,,,,,1,,,,,,,,,,,,,,,,,,,,,,,,,,,,,,,,,,,,,,,,,,,,,,,,,,,,,,,,,20,ávido,,,,,1281.273,1281.855,1,1,0.047,,0,13,13,19,1,REAL,FAKE,,,,,,,,,,,,,,,,,
,,,,,,,,,663d0e210e239265b07238f1,Spanish,13 or older,"no, only English or Spanish",yes,2025-07-23_11h08.39.944,empathy_intonation_perc,2024.2.4,Win32,60.0240096,663d0e210e239265b07238f1,687ed1b7e638a4cbf2f02089,6880d62e6f5f32bdb03c266b,,,,,,,,,,,,,,1,,,,,,,,,,,,,,,,,,,,,,,,,,,,,,,,,,,,,,,,,,,,,,,,,,,,,,,,,49,ganar,,,,,1281.856,1282.722,1,1,0.318,,0,14,14,48,1,REAL,FAKE,,,,,,,,,,,,,,,,,
,,,,,,,,,663d0e210e239265b07238f1,Spanish,13 or older,"no, only English or Spanish",yes,2025-07-23_11h08.39.944,empathy_intonation_perc,2024.2.4,Win32,60.0240096,663d0e210e239265b07238f1,687ed1b7e638a4cbf2f02089,6880d62e6f5f32bdb03c266b,,,,,,,,,,,,,,1,,,,,,,,,,,,,,,,,,,,,,,,,,,,,,,,,,,,,,,,,,,,,,,,,,,,,,,,,83,guante,,,,,1282.724,1283.389,1,1,0.129,,0,15,15,82,1,REAL,FAKE,,,,,,,,,,,,,,,,,
,,,,,,,,,663d0e210e239265b07238f1,Spanish,13 or older,"no, only English or Spanish",yes,2025-07-23_11h08.39.944,empathy_intonation_perc,2024.2.4,Win32,60.0240096,663d0e210e239265b07238f1,687ed1b7e638a4cbf2f02089,6880d62e6f5f32bdb03c266b,,,,,,,,,,,,,,0,,,,,,,,,,,,,,,,,,,,,,,,,,,,,,,,,,,,,,,,,,,,,,,,,,,,,,,,,74,cintro,,,,,1283.39,1283.973,1,0,0.057,,0,16,16,73,1,REAL,FAKE,,,,,,,,,,,,,,,,,
,,,,,,,,,663d0e210e239265b07238f1,Spanish,13 or older,"no, only English or Spanish",yes,2025-07-23_11h08.39.944,empathy_intonation_perc,2024.2.4,Win32,60.0240096,663d0e210e239265b07238f1,687ed1b7e638a4cbf2f02089,6880d62e6f5f32bdb03c266b,,,,,,,,,,,,,,1,,,,,,,,,,,,,,,,,,,,,,,,,,,,,,,,,,,,,,,,,,,,,,,,,,,,,,,,,28,merodear,,,,,1283.973,1284.606,0,0,0.086,,0,17,17,27,1,REAL,FAKE,,,,,,,,,,,,,,,,,
,,,,,,,,,663d0e210e239265b07238f1,Spanish,13 or older,"no, only English or Spanish",yes,2025-07-23_11h08.39.944,empathy_intonation_perc,2024.2.4,Win32,60.0240096,663d0e210e239265b07238f1,687ed1b7e638a4cbf2f02089,6880d62e6f5f32bdb03c266b,,,,,,,,,,,,,,1,,,,,,,,,,,,,,,,,,,,,,,,,,,,,,,,,,,,,,,,,,,,,,,,,,,,,,,,,31,pandilla,,,,,1284.607,1285.24,1,1,0.091,,0,18,18,30,1,REAL,FAKE,,,,,,,,,,,,,,,,,
,,,,,,,,,663d0e210e239265b07238f1,Spanish,13 or older,"no, only English or Spanish",yes,2025-07-23_11h08.39.944,empathy_intonation_perc,2024.2.4,Win32,60.0240096,663d0e210e239265b07238f1,687ed1b7e638a4cbf2f02089,6880d62e6f5f32bdb03c266b,,,,,,,,,,,,,,0,,,,,,,,,,,,,,,,,,,,,,,,,,,,,,,,,,,,,,,,,,,,,,,,,,,,,,,,,42,cadallo,,,,,1285.241,1285.809,1,0,0.023,,0,19,19,41,1,REAL,FAKE,,,,,,,,,,,,,,,,,
,,,,,,,,,663d0e210e239265b07238f1,Spanish,13 or older,"no, only English or Spanish",yes,2025-07-23_11h08.39.944,empathy_intonation_perc,2024.2.4,Win32,60.0240096,663d0e210e239265b07238f1,687ed1b7e638a4cbf2f02089,6880d62e6f5f32bdb03c266b,,,,,,,,,,,,,,1,,,,,,,,,,,,,,,,,,,,,,,,,,,,,,,,,,,,,,,,,,,,,,,,,,,,,,,,,12,asesinato,,,,,1285.809,1286.422,0,0,0.067,,0,20,20,11,1,REAL,FAKE,,,,,,,,,,,,,,,,,
,,,,,,,,,663d0e210e239265b07238f1,Spanish,13 or older,"no, only English or Spanish",yes,2025-07-23_11h08.39.944,empathy_intonation_perc,2024.2.4,Win32,60.0240096,663d0e210e239265b07238f1,687ed1b7e638a4cbf2f02089,6880d62e6f5f32bdb03c266b,,,,,,,,,,,,,,0,,,,,,,,,,,,,,,,,,,,,,,,,,,,,,,,,,,,,,,,,,,,,,,,,,,,,,,,,23,lampera,,,,,1286.425,1286.955,1,0,0,,0,21,21,22,1,REAL,FAKE,,,,,,,,,,,,,,,,,
,,,,,,,,,663d0e210e239265b07238f1,Spanish,13 or older,"no, only English or Spanish",yes,2025-07-23_11h08.39.944,empathy_intonation_perc,2024.2.4,Win32,60.0240096,663d0e210e239265b07238f1,687ed1b7e638a4cbf2f02089,6880d62e6f5f32bdb03c266b,,,,,,,,,,,,,,0,,,,,,,,,,,,,,,,,,,,,,,,,,,,,,,,,,,,,,,,,,,,,,,,,,,,,,,,,82,empirador,,,,,1286.956,1287.672,1,0,0.175,,0,22,22,81,1,REAL,FAKE,,,,,,,,,,,,,,,,,
,,,,,,,,,663d0e210e239265b07238f1,Spanish,13 or older,"no, only English or Spanish",yes,2025-07-23_11h08.39.944,empathy_intonation_perc,2024.2.4,Win32,60.0240096,663d0e210e239265b07238f1,687ed1b7e638a4cbf2f02089,6880d62e6f5f32bdb03c266b,,,,,,,,,,,,,,1,,,,,,,,,,,,,,,,,,,,,,,,,,,,,,,,,,,,,,,,,,,,,,,,,,,,,,,,,7,pésimo,,,,,1287.673,1288.372,0,0,0.15,,0,23,23,6,1,REAL,FAKE,,,,,,,,,,,,,,,,,
,,,,,,,,,663d0e210e239265b07238f1,Spanish,13 or older,"no, only English or Spanish",yes,2025-07-23_11h08.39.944,empathy_intonation_perc,2024.2.4,Win32,60.0240096,663d0e210e239265b07238f1,687ed1b7e638a4cbf2f02089,6880d62e6f5f32bdb03c266b,,,,,,,,,,,,,,0,,,,,,,,,,,,,,,,,,,,,,,,,,,,,,,,,,,,,,,,,,,,,,,,,,,,,,,,,70,temblo,,,,,1288.374,1288.989,1,0,0.084,,0,24,24,69,1,REAL,FAKE,,,,,,,,,,,,,,,,,
,,,,,,,,,663d0e210e239265b07238f1,Spanish,13 or older,"no, only English or Spanish",yes,2025-07-23_11h08.39.944,empathy_intonation_perc,2024.2.4,Win32,60.0240096,663d0e210e239265b07238f1,687ed1b7e638a4cbf2f02089,6880d62e6f5f32bdb03c266b,,,,,,,,,,,,,,1,,,,,,,,,,,,,,,,,,,,,,,,,,,,,,,,,,,,,,,,,,,,,,,,,,,,,,,,,36,loro,,,,,1288.99,1289.739,1,1,0.232,,0,25,25,35,1,REAL,FAKE,,,,,,,,,,,,,,,,,
,,,,,,,,,663d0e210e239265b07238f1,Spanish,13 or older,"no, only English or Spanish",yes,2025-07-23_11h08.39.944,empathy_intonation_perc,2024.2.4,Win32,60.0240096,663d0e210e239265b07238f1,687ed1b7e638a4cbf2f02089,6880d62e6f5f32bdb03c266b,,,,,,,,,,,,,,1,,,,,,,,,,,,,,,,,,,,,,,,,,,,,,,,,,,,,,,,,,,,,,,,,,,,,,,,,11,cenefa,,,,,1289.74,1290.423,0,0,0.147,,0,26,26,10,1,REAL,FAKE,,,,,,,,,,,,,,,,,
,,,,,,,,,663d0e210e239265b07238f1,Spanish,13 or older,"no, only English or Spanish",yes,2025-07-23_11h08.39.944,empathy_intonation_perc,2024.2.4,Win32,60.0240096,663d0e210e239265b07238f1,687ed1b7e638a4cbf2f02089,6880d62e6f5f32bdb03c266b,,,,,,,,,,,,,,1,,,,,,,,,,,,,,,,,,,,,,,,,,,,,,,,,,,,,,,,,,,,,,,,,,,,,,,,,91,click the 1 key.,,,,,1290.424,1291.089,1,1,0.125,,0,27,27,90,1,REAL,FAKE,,,,,,,,,,,,,,,,,
,,,,,,,,,663d0e210e239265b07238f1,Spanish,13 or older,"no, only English or Spanish",yes,2025-07-23_11h08.39.944,empathy_intonation_perc,2024.2.4,Win32,60.0240096,663d0e210e239265b07238f1,687ed1b7e638a4cbf2f02089,6880d62e6f5f32bdb03c266b,,,,,,,,,,,,,,1,,,,,,,,,,,,,,,,,,,,,,,,,,,,,,,,,,,,,,,,,,,,,,,,,,,,,,,,,39,torpe,,,,,1291.09,1291.739,1,1,0.122,,0,28,28,38,1,REAL,FAKE,,,,,,,,,,,,,,,,,
,,,,,,,,,663d0e210e239265b07238f1,Spanish,13 or older,"no, only English or Spanish",yes,2025-07-23_11h08.39.944,empathy_intonation_perc,2024.2.4,Win32,60.0240096,663d0e210e239265b07238f1,687ed1b7e638a4cbf2f02089,6880d62e6f5f32bdb03c266b,,,,,,,,,,,,,,1,,,,,,,,,,,,,,,,,,,,,,,,,,,,,,,,,,,,,,,,,,,,,,,,,,,,,,,,,73,hervidor,,,,,1291.741,1292.522,1,1,0.236,,0,29,29,72,1,REAL,FAKE,,,,,,,,,,,,,,,,,
,,,,,,,,,663d0e210e239265b07238f1,Spanish,13 or older,"no, only English or Spanish",yes,2025-07-23_11h08.39.944,empathy_intonation_perc,2024.2.4,Win32,60.0240096,663d0e210e239265b07238f1,687ed1b7e638a4cbf2f02089,6880d62e6f5f32bdb03c266b,,,,,,,,,,,,,,0,,,,,,,,,,,,,,,,,,,,,,,,,,,,,,,,,,,,,,,,,,,,,,,,,,,,,,,,,1,terzo,,,,,1292.524,1293.373,0,1,0.304,,0,30,30,0,1,REAL,FAKE,,,,,,,,,,,,,,,,,
,,,,,,,,,663d0e210e239265b07238f1,Spanish,13 or older,"no, only English or Spanish",yes,2025-07-23_11h08.39.944,empathy_intonation_perc,2024.2.4,Win32,60.0240096,663d0e210e239265b07238f1,687ed1b7e638a4cbf2f02089,6880d62e6f5f32bdb03c266b,,,,,,,,,,,,,,1,,,,,,,,,,,,,,,,,,,,,,,,,,,,,,,,,,,,,,,,,,,,,,,,,,,,,,,,,45,jilguero,,,,,1293.373,1293.956,0,0,0.048,,0,31,31,44,1,REAL,FAKE,,,,,,,,,,,,,,,,,
,,,,,,,,,663d0e210e239265b07238f1,Spanish,13 or older,"no, only English or Spanish",yes,2025-07-23_11h08.39.944,empathy_intonation_perc,2024.2.4,Win32,60.0240096,663d0e210e239265b07238f1,687ed1b7e638a4cbf2f02089,6880d62e6f5f32bdb03c266b,,,,,,,,,,,,,,1,,,,,,,,,,,,,,,,,,,,,,,,,,,,,,,,,,,,,,,,,,,,,,,,,,,,,,,,,81,pozo,,,,,1293.957,1294.522,1,1,0.026,,0,32,32,80,1,REAL,FAKE,,,,,,,,,,,,,,,,,
,,,,,,,,,663d0e210e239265b07238f1,Spanish,13 or older,"no, only English or Spanish",yes,2025-07-23_11h08.39.944,empathy_intonation_perc,2024.2.4,Win32,60.0240096,663d0e210e239265b07238f1,687ed1b7e638a4cbf2f02089,6880d62e6f5f32bdb03c266b,,,,,,,,,,,,,,1,,,,,,,,,,,,,,,,,,,,,,,,,,,,,,,,,,,,,,,,,,,,,,,,,,,,,,,,,6,tergiversar,,,,,1294.523,1295.089,0,0,0.037,,0,33,33,5,1,REAL,FAKE,,,,,,,,,,,,,,,,,
,,,,,,,,,663d0e210e239265b07238f1,Spanish,13 or older,"no, only English or Spanish",yes,2025-07-23_11h08.39.944,empathy_intonation_perc,2024.2.4,Win32,60.0240096,663d0e210e239265b07238f1,687ed1b7e638a4cbf2f02089,6880d62e6f5f32bdb03c266b,,,,,,,,,,,,,,0,,,,,,,,,,,,,,,,,,,,,,,,,,,,,,,,,,,,,,,,,,,,,,,,,,,,,,,,,66,hacido,,,,,1295.091,1295.972,1,0,0.333,,0,34,34,65,1,REAL,FAKE,,,,,,,,,,,,,,,,,
,,,,,,,,,663d0e210e239265b07238f1,Spanish,13 or older,"no, only English or Spanish",yes,2025-07-23_11h08.39.944,empathy_intonation_perc,2024.2.4,Win32,60.0240096,663d0e210e239265b07238f1,687ed1b7e638a4cbf2f02089,6880d62e6f5f32bdb03c266b,,,,,,,,,,,,,,1,,,,,,,,,,,,,,,,,,,,,,,,,,,,,,,,,,,,,,,,,,,,,,,,,,,,,,,,,55,nevar,,,,,1295.974,1296.673,0,0,0.169,,0,35,35,54,1,REAL,FAKE,,,,,,,,,,,,,,,,,
,,,,,,,,,663d0e210e239265b07238f1,Spanish,13 or older,"no, only English or Spanish",yes,2025-07-23_11h08.39.944,empathy_intonation_perc,2024.2.4,Win32,60.0240096,663d0e210e239265b07238f1,687ed1b7e638a4cbf2f02089,6880d62e6f5f32bdb03c266b,,,,,,,,,,,,,,1,,,,,,,,,,,,,,,,,,,,,,,,,,,,,,,,,,,,,,,,,,,,,,,,,,,,,,,,,15,regar,,,,,1296.676,1297.322,0,0,0.113,,0,36,36,14,1,REAL,FAKE,,,,,,,,,,,,,,,,,
,,,,,,,,,663d0e210e239265b07238f1,Spanish,13 or older,"no, only English or Spanish",yes,2025-07-23_11h08.39.944,empathy_intonation_perc,2024.2.4,Win32,60.0240096,663d0e210e239265b07238f1,687ed1b7e638a4cbf2f02089,6880d62e6f5f32bdb03c266b,,,,,,,,,,,,,,1,,,,,,,,,,,,,,,,,,,,,,,,,,,,,,,,,,,,,,,,,,,,,,,,,,,,,,,,,26,secuestro,,,,,1297.323,1298.039,1,1,0.188,,0,37,37,25,1,REAL,FAKE,,,,,,,,,,,,,,,,,
,,,,,,,,,663d0e210e239265b07238f1,Spanish,13 or older,"no, only English or Spanish",yes,2025-07-23_11h08.39.944,empathy_intonation_perc,2024.2.4,Win32,60.0240096,663d0e210e239265b07238f1,687ed1b7e638a4cbf2f02089,6880d62e6f5f32bdb03c266b,,,,,,,,,,,,,,0,,,,,,,,,,,,,,,,,,,,,,,,,,,,,,,,,,,,,,,,,,,,,,,,,,,,,,,,,8,cadeña,,,,,1298.04,1298.805,1,0,0.233,,0,38,38,7,1,REAL,FAKE,,,,,,,,,,,,,,,,,
,,,,,,,,,663d0e210e239265b07238f1,Spanish,13 or older,"no, only English or Spanish",yes,2025-07-23_11h08.39.944,empathy_intonation_perc,2024.2.4,Win32,60.0240096,663d0e210e239265b07238f1,687ed1b7e638a4cbf2f02089,6880d62e6f5f32bdb03c266b,,,,,,,,,,,,,,1,,,,,,,,,,,,,,,,,,,,,,,,,,,,,,,,,,,,,,,,,,,,,,,,,,,,,,,,,34,aviso,,,,,1298.806,1299.523,0,0,0.171,,0,39,39,33,1,REAL,FAKE,,,,,,,,,,,,,,,,,
,,,,,,,,,663d0e210e239265b07238f1,Spanish,13 or older,"no, only English or Spanish",yes,2025-07-23_11h08.39.944,empathy_intonation_perc,2024.2.4,Win32,60.0240096,663d0e210e239265b07238f1,687ed1b7e638a4cbf2f02089,6880d62e6f5f32bdb03c266b,,,,,,,,,,,,,,1,,,,,,,,,,,,,,,,,,,,,,,,,,,,,,,,,,,,,,,,,,,,,,,,,,,,,,,,,46,martillo,,,,,1299.527,1300.105,0,0,0.039,,0,40,40,45,1,REAL,FAKE,,,,,,,,,,,,,,,,,
,,,,,,,,,663d0e210e239265b07238f1,Spanish,13 or older,"no, only English or Spanish",yes,2025-07-23_11h08.39.944,empathy_intonation_perc,2024.2.4,Win32,60.0240096,663d0e210e239265b07238f1,687ed1b7e638a4cbf2f02089,6880d62e6f5f32bdb03c266b,,,,,,,,,,,,,,0,,,,,,,,,,,,,,,,,,,,,,,,,,,,,,,,,,,,,,,,,,,,,,,,,,,,,,,,,79,tropaje,,,,,1300.107,1300.657,1,0,0.009,,0,41,41,78,1,REAL,FAKE,,,,,,,,,,,,,,,,,
,,,,,,,,,663d0e210e239265b07238f1,Spanish,13 or older,"no, only English or Spanish",yes,2025-07-23_11h08.39.944,empathy_intonation_perc,2024.2.4,Win32,60.0240096,663d0e210e239265b07238f1,687ed1b7e638a4cbf2f02089,6880d62e6f5f32bdb03c266b,,,,,,,,,,,,,,1,,,,,,,,,,,,,,,,,,,,,,,,,,,,,,,,,,,,,,,,,,,,,,,,,,,,,,,,,60,matar,,,,,1300.658,1301.289,1,1,0.099,,0,42,42,59,1,REAL,FAKE,,,,,,,,,,,,,,,,,
,,,,,,,,,663d0e210e239265b07238f1,Spanish,13 or older,"no, only English or Spanish",yes,2025-07-23_11h08.39.944,empathy_intonation_perc,2024.2.4,Win32,60.0240096,663d0e210e239265b07238f1,687ed1b7e638a4cbf2f02089,6880d62e6f5f32bdb03c266b,,,,,,,,,,,,,,1,,,,,,,,,,,,,,,,,,,,,,,,,,,,,,,,,,,,,,,,,,,,,,,,,,,,,,,,,37,granuja,,,,,1301.29,1301.972,1,1,0.151,,0,43,43,36,1,REAL,FAKE,,,,,,,,,,,,,,,,,
,,,,,,,,,663d0e210e239265b07238f1,Spanish,13 or older,"no, only English or Spanish",yes,2025-07-23_11h08.39.944,empathy_intonation_perc,2024.2.4,Win32,60.0240096,663d0e210e239265b07238f1,687ed1b7e638a4cbf2f02089,6880d62e6f5f32bdb03c266b,,,,,,,,,,,,,,1,,,,,,,,,,,,,,,,,,,,,,,,,,,,,,,,,,,,,,,,,,,,,,,,,,,,,,,,,57,tacaño,,,,,1301.975,1302.656,0,0,0.15,,0,44,44,56,1,REAL,FAKE,,,,,,,,,,,,,,,,,
,,,,,,,,,663d0e210e239265b07238f1,Spanish,13 or older,"no, only English or Spanish",yes,2025-07-23_11h08.39.944,empathy_intonation_perc,2024.2.4,Win32,60.0240096,663d0e210e239265b07238f1,687ed1b7e638a4cbf2f02089,6880d62e6f5f32bdb03c266b,,,,,,,,,,,,,,1,,,,,,,,,,,,,,,,,,,,,,,,,,,,,,,,,,,,,,,,,,,,,,,,,,,,,,,,,9,hacha,,,,,1302.657,1303.194,0,0,0.021,,0,45,45,8,1,REAL,FAKE,,,,,,,,,,,,,,,,,
,,,,,,,,,663d0e210e239265b07238f1,Spanish,13 or older,"no, only English or Spanish",yes,2025-07-23_11h08.39.944,empathy_intonation_perc,2024.2.4,Win32,60.0240096,663d0e210e239265b07238f1,687ed1b7e638a4cbf2f02089,6880d62e6f5f32bdb03c266b,,,,,,,,,,,,,,0,,,,,,,,,,,,,,,,,,,,,,,,,,,,,,,,,,,,,,,,,,,,,,,,,,,,,,,,,29,decar,,,,,1303.194,1304.006,1,0,0.273,,0,46,46,28,1,REAL,FAKE,,,,,,,,,,,,,,,,,
,,,,,,,,,663d0e210e239265b07238f1,Spanish,13 or older,"no, only English or Spanish",yes,2025-07-23_11h08.39.944,empathy_intonation_perc,2024.2.4,Win32,60.0240096,663d0e210e239265b07238f1,687ed1b7e638a4cbf2f02089,6880d62e6f5f32bdb03c266b,,,,,,,,,,,,,,0,,,,,,,,,,,,,,,,,,,,,,,,,,,,,,,,,,,,,,,,,,,,,,,,,,,,,,,,,87,grodo,,,,,1304.008,1304.672,1,0,0.124,,0,47,47,86,1,REAL,FAKE,,,,,,,,,,,,,,,,,
,,,,,,,,,663d0e210e239265b07238f1,Spanish,13 or older,"no, only English or Spanish",yes,2025-07-23_11h08.39.944,empathy_intonation_perc,2024.2.4,Win32,60.0240096,663d0e210e239265b07238f1,687ed1b7e638a4cbf2f02089,6880d62e6f5f32bdb03c266b,,,,,,,,,,,,,,0,,,,,,,,,,,,,,,,,,,,,,,,,,,,,,,,,,,,,,,,,,,,,,,,,,,,,,,,,84,escuto,,,,,1304.673,1305.273,0,1,0.057,,0,48,48,83,1,REAL,FAKE,,,,,,,,,,,,,,,,,
,,,,,,,,,663d0e210e239265b07238f1,Spanish,13 or older,"no, only English or Spanish",yes,2025-07-23_11h08.39.944,empathy_intonation_perc,2024.2.4,Win32,60.0240096,663d0e210e239265b07238f1,687ed1b7e638a4cbf2f02089,6880d62e6f5f32bdb03c266b,,,,,,,,,,,,,,0,,,,,,,,,,,,,,,,,,,,,,,,,,,,,,,,,,,,,,,,,,,,,,,,,,,,,,,,,50,flamida,,,,,1305.274,1305.872,0,1,0.066,,0,49,49,49,1,REAL,FAKE,,,,,,,,,,,,,,,,,
,,,,,,,,,663d0e210e239265b07238f1,Spanish,13 or older,"no, only English or Spanish",yes,2025-07-23_11h08.39.944,empathy_intonation_perc,2024.2.4,Win32,60.0240096,663d0e210e239265b07238f1,687ed1b7e638a4cbf2f02089,6880d62e6f5f32bdb03c266b,,,,,,,,,,,,,,1,,,,,,,,,,,,,,,,,,,,,,,,,,,,,,,,,,,,,,,,,,,,,,,,,,,,,,,,,64,orgulloso,,,,,1305.874,1306.706,0,0,0.31,,0,50,50,63,1,REAL,FAKE,,,,,,,,,,,,,,,,,
,,,,,,,,,663d0e210e239265b07238f1,Spanish,13 or older,"no, only English or Spanish",yes,2025-07-23_11h08.39.944,empathy_intonation_perc,2024.2.4,Win32,60.0240096,663d0e210e239265b07238f1,687ed1b7e638a4cbf2f02089,6880d62e6f5f32bdb03c266b,,,,,,,,,,,,,,1,,,,,,,,,,,,,,,,,,,,,,,,,,,,,,,,,,,,,,,,,,,,,,,,,,,,,,,,,51,candado,,,,,1306.706,1307.234,0,0,0.001,,0,51,51,50,1,REAL,FAKE,,,,,,,,,,,,,,,,,
,,,,,,,,,663d0e210e239265b07238f1,Spanish,13 or older,"no, only English or Spanish",yes,2025-07-23_11h08.39.944,empathy_intonation_perc,2024.2.4,Win32,60.0240096,663d0e210e239265b07238f1,687ed1b7e638a4cbf2f02089,6880d62e6f5f32bdb03c266b,,,,,,,,,,,,,,0,,,,,,,,,,,,,,,,,,,,,,,,,,,,,,,,,,,,,,,,,,,,,,,,,,,,,,,,,18,arsa,,,,,1307.235,1307.774,0,1,0.011,,0,52,52,17,1,REAL,FAKE,,,,,,,,,,,,,,,,,
,,,,,,,,,663d0e210e239265b07238f1,Spanish,13 or older,"no, only English or Spanish",yes,2025-07-23_11h08.39.944,empathy_intonation_perc,2024.2.4,Win32,60.0240096,663d0e210e239265b07238f1,687ed1b7e638a4cbf2f02089,6880d62e6f5f32bdb03c266b,,,,,,,,,,,,,,1,,,,,,,,,,,,,,,,,,,,,,,,,,,,,,,,,,,,,,,,,,,,,,,,,,,,,,,,,52,camisa,,,,,1307.774,1311.039,0,0,2.722,,0,53,53,51,1,REAL,FAKE,,,,,,,,,,,,,,,,,
,,,,,,,,,663d0e210e239265b07238f1,Spanish,13 or older,"no, only English or Spanish",yes,2025-07-23_11h08.39.944,empathy_intonation_perc,2024.2.4,Win32,60.0240096,663d0e210e239265b07238f1,687ed1b7e638a4cbf2f02089,6880d62e6f5f32bdb03c266b,,,,,,,,,,,,,,1,,,,,,,,,,,,,,,,,,,,,,,,,,,,,,,,,,,,,,,,,,,,,,,,,,,,,,,,,14,yunque,,,,,1311.04,1311.589,0,0,0.025,,0,54,54,13,1,REAL,FAKE,,,,,,,,,,,,,,,,,
,,,,,,,,,663d0e210e239265b07238f1,Spanish,13 or older,"no, only English or Spanish",yes,2025-07-23_11h08.39.944,empathy_intonation_perc,2024.2.4,Win32,60.0240096,663d0e210e239265b07238f1,687ed1b7e638a4cbf2f02089,6880d62e6f5f32bdb03c266b,,,,,,,,,,,,,,0,,,,,,,,,,,,,,,,,,,,,,,,,,,,,,,,,,,,,,,,,,,,,,,,,,,,,,,,,10,antar,,,,,1311.59,1312.205,1,0,0.095,,0,55,55,9,1,REAL,FAKE,,,,,,,,,,,,,,,,,
,,,,,,,,,663d0e210e239265b07238f1,Spanish,13 or older,"no, only English or Spanish",yes,2025-07-23_11h08.39.944,empathy_intonation_perc,2024.2.4,Win32,60.0240096,663d0e210e239265b07238f1,687ed1b7e638a4cbf2f02089,6880d62e6f5f32bdb03c266b,,,,,,,,,,,,,,1,,,,,,,,,,,,,,,,,,,,,,,,,,,,,,,,,,,,,,,,,,,,,,,,,,,,,,,,,78,frondoso,,,,,1312.207,1312.939,0,0,0.202,,0,56,56,77,1,REAL,FAKE,,,,,,,,,,,,,,,,,
,,,,,,,,,663d0e210e239265b07238f1,Spanish,13 or older,"no, only English or Spanish",yes,2025-07-23_11h08.39.944,empathy_intonation_perc,2024.2.4,Win32,60.0240096,663d0e210e239265b07238f1,687ed1b7e638a4cbf2f02089,6880d62e6f5f32bdb03c266b,,,,,,,,,,,,,,0,,,,,,,,,,,,,,,,,,,,,,,,,,,,,,,,,,,,,,,,,,,,,,,,,,,,,,,,,4,batillón,,,,,1312.94,1313.506,0,1,0.04,,0,57,57,3,1,REAL,FAKE,,,,,,,,,,,,,,,,,
,,,,,,,,,663d0e210e239265b07238f1,Spanish,13 or older,"no, only English or Spanish",yes,2025-07-23_11h08.39.944,empathy_intonation_perc,2024.2.4,Win32,60.0240096,663d0e210e239265b07238f1,687ed1b7e638a4cbf2f02089,6880d62e6f5f32bdb03c266b,,,,,,,,,,,,,,0,,,,,,,,,,,,,,,,,,,,,,,,,,,,,,,,,,,,,,,,,,,,,,,,,,,,,,,,,32,fatacidad,,,,,1313.507,1314.205,1,0,0.153,,0,58,58,31,1,REAL,FAKE,,,,,,,,,,,,,,,,,
,,,,,,,,,663d0e210e239265b07238f1,Spanish,13 or older,"no, only English or Spanish",yes,2025-07-23_11h08.39.944,empathy_intonation_perc,2024.2.4,Win32,60.0240096,663d0e210e239265b07238f1,687ed1b7e638a4cbf2f02089,6880d62e6f5f32bdb03c266b,,,,,,,,,,,,,,1,,,,,,,,,,,,,,,,,,,,,,,,,,,,,,,,,,,,,,,,,,,,,,,,,,,,,,,,,69,engatusar,,,,,1314.207,1314.806,0,0,0.049,,0,59,59,68,1,REAL,FAKE,,,,,,,,,,,,,,,,,
,,,,,,,,,663d0e210e239265b07238f1,Spanish,13 or older,"no, only English or Spanish",yes,2025-07-23_11h08.39.944,empathy_intonation_perc,2024.2.4,Win32,60.0240096,663d0e210e239265b07238f1,687ed1b7e638a4cbf2f02089,6880d62e6f5f32bdb03c266b,,,,,,,,,,,,,,1,,,,,,,,,,,,,,,,,,,,,,,,,,,,,,,,,,,,,,,,,,,,,,,,,,,,,,,,,61,seda,,,,,1314.807,1315.406,1,1,0.06,,0,60,60,60,1,REAL,FAKE,,,,,,,,,,,,,,,,,
,,,,,,,,,663d0e210e239265b07238f1,Spanish,13 or older,"no, only English or Spanish",yes,2025-07-23_11h08.39.944,empathy_intonation_perc,2024.2.4,Win32,60.0240096,663d0e210e239265b07238f1,687ed1b7e638a4cbf2f02089,6880d62e6f5f32bdb03c266b,,,,,,,,,,,,,,1,,,,,,,,,,,,,,,,,,,,,,,,,,,,,,,,,,,,,,,,,,,,,,,,,,,,,,,,,86,barato,,,,,1315.407,1316.022,1,1,0.079,,0,61,61,85,1,REAL,FAKE,,,,,,,,,,,,,,,,,
,,,,,,,,,663d0e210e239265b07238f1,Spanish,13 or older,"no, only English or Spanish",yes,2025-07-23_11h08.39.944,empathy_intonation_perc,2024.2.4,Win32,60.0240096,663d0e210e239265b07238f1,687ed1b7e638a4cbf2f02089,6880d62e6f5f32bdb03c266b,,,,,,,,,,,,,,1,,,,,,,,,,,,,,,,,,,,,,,,,,,,,,,,,,,,,,,,,,,,,,,,,,,,,,,,,24,látigo,,,,,1316.023,1316.589,0,0,0.027,,0,62,62,23,1,REAL,FAKE,,,,,,,,,,,,,,,,,
,,,,,,,,,663d0e210e239265b07238f1,Spanish,13 or older,"no, only English or Spanish",yes,2025-07-23_11h08.39.944,empathy_intonation_perc,2024.2.4,Win32,60.0240096,663d0e210e239265b07238f1,687ed1b7e638a4cbf2f02089,6880d62e6f5f32bdb03c266b,,,,,,,,,,,,,,1,,,,,,,,,,,,,,,,,,,,,,,,,,,,,,,,,,,,,,,,,,,,,,,,,,,,,,,,,76,atar,,,,,1316.589,1317.155,0,0,0.04,,0,63,63,75,1,REAL,FAKE,,,,,,,,,,,,,,,,,
,,,,,,,,,663d0e210e239265b07238f1,Spanish,13 or older,"no, only English or Spanish",yes,2025-07-23_11h08.39.944,empathy_intonation_perc,2024.2.4,Win32,60.0240096,663d0e210e239265b07238f1,687ed1b7e638a4cbf2f02089,6880d62e6f5f32bdb03c266b,,,,,,,,,,,,,,1,,,,,,,,,,,,,,,,,,,,,,,,,,,,,,,,,,,,,,,,,,,,,,,,,,,,,,,,,75,yacer,,,,,1317.156,1317.672,0,0,0,,0,64,64,74,1,REAL,FAKE,,,,,,,,,,,,,,,,,
,,,,,,,,,663d0e210e239265b07238f1,Spanish,13 or older,"no, only English or Spanish",yes,2025-07-23_11h08.39.944,empathy_intonation_perc,2024.2.4,Win32,60.0240096,663d0e210e239265b07238f1,687ed1b7e638a4cbf2f02089,6880d62e6f5f32bdb03c266b,,,,,,,,,,,,,,1,,,,,,,,,,,,,,,,,,,,,,,,,,,,,,,,,,,,,,,,,,,,,,,,,,,,,,,,,90,clavel,,,,,1317.673,1318.217,0,0,0.001,,0,65,65,89,1,REAL,FAKE,,,,,,,,,,,,,,,,,
,,,,,,,,,663d0e210e239265b07238f1,Spanish,13 or older,"no, only English or Spanish",yes,2025-07-23_11h08.39.944,empathy_intonation_perc,2024.2.4,Win32,60.0240096,663d0e210e239265b07238f1,687ed1b7e638a4cbf2f02089,6880d62e6f5f32bdb03c266b,,,,,,,,,,,,,,1,,,,,,,,,,,,,,,,,,,,,,,,,,,,,,,,,,,,,,,,,,,,,,,,,,,,,,,,,5,zapato,,,,,1318.218,1318.873,1,1,0.13,,0,66,66,4,1,REAL,FAKE,,,,,,,,,,,,,,,,,
,,,,,,,,,663d0e210e239265b07238f1,Spanish,13 or older,"no, only English or Spanish",yes,2025-07-23_11h08.39.944,empathy_intonation_perc,2024.2.4,Win32,60.0240096,663d0e210e239265b07238f1,687ed1b7e638a4cbf2f02089,6880d62e6f5f32bdb03c266b,,,,,,,,,,,,,,1,,,,,,,,,,,,,,,,,,,,,,,,,,,,,,,,,,,,,,,,,,,,,,,,,,,,,,,,,85,laúd,,,,,1318.873,1319.455,1,1,0.056,,0,67,67,84,1,REAL,FAKE,,,,,,,,,,,,,,,,,
,,,,,,,,,663d0e210e239265b07238f1,Spanish,13 or older,"no, only English or Spanish",yes,2025-07-23_11h08.39.944,empathy_intonation_perc,2024.2.4,Win32,60.0240096,663d0e210e239265b07238f1,687ed1b7e638a4cbf2f02089,6880d62e6f5f32bdb03c266b,,,,,,,,,,,,,,0,,,,,,,,,,,,,,,,,,,,,,,,,,,,,,,,,,,,,,,,,,,,,,,,,,,,,,,,,33,pauca,,,,,1319.456,1320.105,1,0,0.1,,0,68,68,32,1,REAL,FAKE,,,,,,,,,,,,,,,,,
,,,,,,,,,663d0e210e239265b07238f1,Spanish,13 or older,"no, only English or Spanish",yes,2025-07-23_11h08.39.944,empathy_intonation_perc,2024.2.4,Win32,60.0240096,663d0e210e239265b07238f1,687ed1b7e638a4cbf2f02089,6880d62e6f5f32bdb03c266b,,,,,,,,,,,,,,1,,,,,,,,,,,,,,,,,,,,,,,,,,,,,,,,,,,,,,,,,,,,,,,,,,,,,,,,,44,cuchara,,,,,1320.106,1320.689,1,1,0.062,,0,69,69,43,1,REAL,FAKE,,,,,,,,,,,,,,,,,
,,,,,,,,,663d0e210e239265b07238f1,Spanish,13 or older,"no, only English or Spanish",yes,2025-07-23_11h08.39.944,empathy_intonation_perc,2024.2.4,Win32,60.0240096,663d0e210e239265b07238f1,687ed1b7e638a4cbf2f02089,6880d62e6f5f32bdb03c266b,,,,,,,,,,,,,,0,,,,,,,,,,,,,,,,,,,,,,,,,,,,,,,,,,,,,,,,,,,,,,,,,,,,,,,,,35,rompido,,,,,1320.69,1321.339,0,1,0.113,,0,70,70,34,1,REAL,FAKE,,,,,,,,,,,,,,,,,
,,,,,,,,,663d0e210e239265b07238f1,Spanish,13 or older,"no, only English or Spanish",yes,2025-07-23_11h08.39.944,empathy_intonation_perc,2024.2.4,Win32,60.0240096,663d0e210e239265b07238f1,687ed1b7e638a4cbf2f02089,6880d62e6f5f32bdb03c266b,,,,,,,,,,,,,,0,,,,,,,,,,,,,,,,,,,,,,,,,,,,,,,,,,,,,,,,,,,,,,,,,,,,,,,,,17,floroso,,,,,1321.34,1321.882,1,0,0,,0,71,71,16,1,REAL,FAKE,,,,,,,,,,,,,,,,,
,,,,,,,,,663d0e210e239265b07238f1,Spanish,13 or older,"no, only English or Spanish",yes,2025-07-23_11h08.39.944,empathy_intonation_perc,2024.2.4,Win32,60.0240096,663d0e210e239265b07238f1,687ed1b7e638a4cbf2f02089,6880d62e6f5f32bdb03c266b,,,,,,,,,,,,,,1,,,,,,,,,,,,,,,,,,,,,,,,,,,,,,,,,,,,,,,,,,,,,,,,,,,,,,,,,88,acantilado,,,,,1321.883,1322.556,1,1,0.138,,0,72,72,87,1,REAL,FAKE,,,,,,,,,,,,,,,,,
,,,,,,,,,663d0e210e239265b07238f1,Spanish,13 or older,"no, only English or Spanish",yes,2025-07-23_11h08.39.944,empathy_intonation_perc,2024.2.4,Win32,60.0240096,663d0e210e239265b07238f1,687ed1b7e638a4cbf2f02089,6880d62e6f5f32bdb03c266b,,,,,,,,,,,,,,1,,,,,,,,,,,,,,,,,,,,,,,,,,,,,,,,,,,,,,,,,,,,,,,,,,,,,,,,,13,helar,,,,,1322.556,1323.078,0,0,0,,0,73,73,12,1,REAL,FAKE,,,,,,,,,,,,,,,,,
,,,,,,,,,663d0e210e239265b07238f1,Spanish,13 or older,"no, only English or Spanish",yes,2025-07-23_11h08.39.944,empathy_intonation_perc,2024.2.4,Win32,60.0240096,663d0e210e239265b07238f1,687ed1b7e638a4cbf2f02089,6880d62e6f5f32bdb03c266b,,,,,,,,,,,,,,1,,,,,,,,,,,,,,,,,,,,,,,,,,,,,,,,,,,,,,,,,,,,,,,,,,,,,,,,,3,pulmones,,,,,1323.079,1323.805,1,1,0.196,,0,74,74,2,1,REAL,FAKE,,,,,,,,,,,,,,,,,
,,,,,,,,,663d0e210e239265b07238f1,Spanish,13 or older,"no, only English or Spanish",yes,2025-07-23_11h08.39.944,empathy_intonation_perc,2024.2.4,Win32,60.0240096,663d0e210e239265b07238f1,687ed1b7e638a4cbf2f02089,6880d62e6f5f32bdb03c266b,,,,,,,,,,,,,,0,,,,,,,,,,,,,,,,,,,,,,,,,,,,,,,,,,,,,,,,,,,,,,,,,,,,,,,,,92,click the 0 key.,,,,,1323.806,1324.406,1,0,0.081,,0,75,75,91,1,REAL,FAKE,,,,,,,,,,,,,,,,,
,,,,,,,,,663d0e210e239265b07238f1,Spanish,13 or older,"no, only English or Spanish",yes,2025-07-23_11h08.39.944,empathy_intonation_perc,2024.2.4,Win32,60.0240096,663d0e210e239265b07238f1,687ed1b7e638a4cbf2f02089,6880d62e6f5f32bdb03c266b,,,,,,,,,,,,,,1,,,,,,,,,,,,,,,,,,,,,,,,,,,,,,,,,,,,,,,,,,,,,,,,,,,,,,,,,65,bizcocho,,,,,1324.407,1324.958,0,0,0.006,,0,76,76,64,1,REAL,FAKE,,,,,,,,,,,,,,,,,
,,,,,,,,,663d0e210e239265b07238f1,Spanish,13 or older,"no, only English or Spanish",yes,2025-07-23_11h08.39.944,empathy_intonation_perc,2024.2.4,Win32,60.0240096,663d0e210e239265b07238f1,687ed1b7e638a4cbf2f02089,6880d62e6f5f32bdb03c266b,,,,,,,,,,,,,,1,,,,,,,,,,,,,,,,,,,,,,,,,,,,,,,,,,,,,,,,,,,,,,,,,,,,,,,,,22,lacayo,,,,,1324.958,1325.64,1,1,0.139,,0,77,77,21,1,REAL,FAKE,,,,,,,,,,,,,,,,,
,,,,,,,,,663d0e210e239265b07238f1,Spanish,13 or older,"no, only English or Spanish",yes,2025-07-23_11h08.39.944,empathy_intonation_perc,2024.2.4,Win32,60.0240096,663d0e210e239265b07238f1,687ed1b7e638a4cbf2f02089,6880d62e6f5f32bdb03c266b,,,,,,,,,,,,,,1,,,,,,,,,,,,,,,,,,,,,,,,,,,,,,,,,,,,,,,,,,,,,,,,,,,,,,,,,77,tiburón,,,,,1325.64,1326.405,1,1,0.215,,0,78,78,76,1,REAL,FAKE,,,,,,,,,,,,,,,,,
,,,,,,,,,663d0e210e239265b07238f1,Spanish,13 or older,"no, only English or Spanish",yes,2025-07-23_11h08.39.944,empathy_intonation_perc,2024.2.4,Win32,60.0240096,663d0e210e239265b07238f1,687ed1b7e638a4cbf2f02089,6880d62e6f5f32bdb03c266b,,,,,,,,,,,,,,0,,,,,,,,,,,,,,,,,,,,,,,,,,,,,,,,,,,,,,,,,,,,,,,,,,,,,,,,,30,alardio,,,,,1326.406,1327.189,0,1,0.252,,0,79,79,29,1,REAL,FAKE,,,,,,,,,,,,,,,,,
,,,,,,,,,663d0e210e239265b07238f1,Spanish,13 or older,"no, only English or Spanish",yes,2025-07-23_11h08.39.944,empathy_intonation_perc,2024.2.4,Win32,60.0240096,663d0e210e239265b07238f1,687ed1b7e638a4cbf2f02089,6880d62e6f5f32bdb03c266b,,,,,,,,,,,,,,1,,,,,,,,,,,,,,,,,,,,,,,,,,,,,,,,,,,,,,,,,,,,,,,,,,,,,,,,,62,flaco,,,,,1327.19,1327.906,0,0,0.194,,0,80,80,61,1,REAL,FAKE,,,,,,,,,,,,,,,,,
,,,,,,,,,663d0e210e239265b07238f1,Spanish,13 or older,"no, only English or Spanish",yes,2025-07-23_11h08.39.944,empathy_intonation_perc,2024.2.4,Win32,60.0240096,663d0e210e239265b07238f1,687ed1b7e638a4cbf2f02089,6880d62e6f5f32bdb03c266b,,,,,,,,,,,,,,1,,,,,,,,,,,,,,,,,,,,,,,,,,,,,,,,,,,,,,,,,,,,,,,,,,,,,,,,,67,cabello,,,,,1327.908,1328.639,0,0,0.188,,0,81,81,66,1,REAL,FAKE,,,,,,,,,,,,,,,,,
,,,,,,,,,663d0e210e239265b07238f1,Spanish,13 or older,"no, only English or Spanish",yes,2025-07-23_11h08.39.944,empathy_intonation_perc,2024.2.4,Win32,60.0240096,663d0e210e239265b07238f1,687ed1b7e638a4cbf2f02089,6880d62e6f5f32bdb03c266b,,,,,,,,,,,,,,0,,,,,,,,,,,,,,,,,,,,,,,,,,,,,,,,,,,,,,,,,,,,,,,,,,,,,,,,,19,brecedad,,,,,1328.64,1329.205,0,1,0.025,,0,82,82,18,1,REAL,FAKE,,,,,,,,,,,,,,,,,
,,,,,,,,,663d0e210e239265b07238f1,Spanish,13 or older,"no, only English or Spanish",yes,2025-07-23_11h08.39.944,empathy_intonation_perc,2024.2.4,Win32,60.0240096,663d0e210e239265b07238f1,687ed1b7e638a4cbf2f02089,6880d62e6f5f32bdb03c266b,,,,,,,,,,,,,,1,,,,,,,,,,,,,,,,,,,,,,,,,,,,,,,,,,,,,,,,,,,,,,,,,,,,,,,,,71,polvoriento,,,,,1329.206,1329.822,1,1,0.095,,0,83,83,70,1,REAL,FAKE,,,,,,,,,,,,,,,,,
,,,,,,,,,663d0e210e239265b07238f1,Spanish,13 or older,"no, only English or Spanish",yes,2025-07-23_11h08.39.944,empathy_intonation_perc,2024.2.4,Win32,60.0240096,663d0e210e239265b07238f1,687ed1b7e638a4cbf2f02089,6880d62e6f5f32bdb03c266b,,,,,,,,,,,,,,1,,,,,,,,,,,,,,,,,,,,,,,,,,,,,,,,,,,,,,,,,,,,,,,,,,,,,,,,,54,fomentar,,,,,1329.823,1332.422,0,0,2.081,,0,84,84,53,1,REAL,FAKE,,,,,,,,,,,,,,,,,
,,,,,,,,,663d0e210e239265b07238f1,Spanish,13 or older,"no, only English or Spanish",yes,2025-07-23_11h08.39.944,empathy_intonation_perc,2024.2.4,Win32,60.0240096,663d0e210e239265b07238f1,687ed1b7e638a4cbf2f02089,6880d62e6f5f32bdb03c266b,,,,,,,,,,,,,,1,,,,,,,,,,,,,,,,,,,,,,,,,,,,,,,,,,,,,,,,,,,,,,,,,,,,,,,,,2,pellizcar,,,,,1332.428,1332.974,0,0,0.008,,0,85,85,1,1,REAL,FAKE,,,,,,,,,,,,,,,,,
,,,,,,,,,663d0e210e239265b07238f1,Spanish,13 or older,"no, only English or Spanish",yes,2025-07-23_11h08.39.944,empathy_intonation_perc,2024.2.4,Win32,60.0240096,663d0e210e239265b07238f1,687ed1b7e638a4cbf2f02089,6880d62e6f5f32bdb03c266b,,,,,,,,,,,,,,1,,,,,,,,,,,,,,,,,,,,,,,,,,,,,,,,,,,,,,,,,,,,,,,,,,,,,,,,,89,prisa,,,,,1332.974,1333.873,0,0,0.359,,0,86,86,88,1,REAL,FAKE,,,,,,,,,,,,,,,,,
,,,,,,,,,663d0e210e239265b07238f1,Spanish,13 or older,"no, only English or Spanish",yes,2025-07-23_11h08.39.944,empathy_intonation_perc,2024.2.4,Win32,60.0240096,663d0e210e239265b07238f1,687ed1b7e638a4cbf2f02089,6880d62e6f5f32bdb03c266b,,,,,,,,,,,,,,1,,,,,,,,,,,,,,,,,,,,,,,,,,,,,,,,,,,,,,,,,,,,,,,,,,,,,,,,,41,rebuscar,,,,,1333.875,1334.506,0,0,0.11,,0,87,87,40,1,REAL,FAKE,,,,,,,,,,,,,,,,,
,,,,,,,,,663d0e210e239265b07238f1,Spanish,13 or older,"no, only English or Spanish",yes,2025-07-23_11h08.39.944,empathy_intonation_perc,2024.2.4,Win32,60.0240096,663d0e210e239265b07238f1,687ed1b7e638a4cbf2f02089,6880d62e6f5f32bdb03c266b,,,,,,,,,,,,,,0,,,,,,,,,,,,,,,,,,,,,,,,,,,,,,,,,,,,,,,,,,,,,,,,,,,,,,,,,53,vegada,,,,,1334.507,1335.139,0,1,0.116,,0,88,88,52,1,REAL,FAKE,,,,,,,,,,,,,,,,,
,,,,,,,,,663d0e210e239265b07238f1,Spanish,13 or older,"no, only English or Spanish",yes,2025-07-23_11h08.39.944,empathy_intonation_perc,2024.2.4,Win32,60.0240096,663d0e210e239265b07238f1,687ed1b7e638a4cbf2f02089,6880d62e6f5f32bdb03c266b,,,,,,,,,,,,,,1,,,,,,,,,,,,,,,,,,,,,,,,,,,,,,,,,,,,,,,,,,,,,,,,,,,,,,,,,59,besar,,,,,1335.14,1335.806,0,0,0.14,,0,89,89,58,1,REAL,FAKE,,,,,,,,,,,,,,,,,
,,,,,,,,,663d0e210e239265b07238f1,Spanish,13 or older,"no, only English or Spanish",yes,2025-07-23_11h08.39.944,empathy_intonation_perc,2024.2.4,Win32,60.0240096,663d0e210e239265b07238f1,687ed1b7e638a4cbf2f02089,6880d62e6f5f32bdb03c266b,,,,,,,,,,,,,,0,,,,,,,,,,,,,,,,,,,,,,,,,,,,,,,,,,,,,,,,,,,,,,,,,,,,,,,,,72,pemición,,,,,1335.808,1336.572,0,1,0.218,,0,90,90,71,1,REAL,FAKE,,,,,,,,,,,,,,,,,
,,,,,,,,,663d0e210e239265b07238f1,Spanish,13 or older,"no, only English or Spanish",yes,2025-07-23_11h08.39.944,empathy_intonation_perc,2024.2.4,Win32,60.0240096,663d0e210e239265b07238f1,687ed1b7e638a4cbf2f02089,6880d62e6f5f32bdb03c266b,,,,,,,,,,,,,,0,,,,,,,,,,,,,,,,,,,,,,,,,,,,,,,,,,,,,,,,,,,,,,,,,,,,,,,,,63,esposante,,,,,1336.573,1337.139,0,1,0.025,,0,91,91,62,1,REAL,FAKE,,,,,,,,,,,,,,,,,
,,,,,,,,,663d0e210e239265b07238f1,Spanish,13 or older,"no, only English or Spanish",yes,2025-07-23_11h08.39.944,empathy_intonation_perc,2024.2.4,Win32,60.0240096,663d0e210e239265b07238f1,687ed1b7e638a4cbf2f02089,6880d62e6f5f32bdb03c266b,,,,,,,,,,,,,,,,,,,,,,,,,,,,,,,,,,,,,,,,,,,,,,,,,,,,,,,,,,,,,,,,,,,,,,,,,,,,,,,,,,,,,,,,,,1337.139,1344.522,,,,,,,,,,,,,,,
,,,,,,,,,663d0e210e239265b07238f1,Spanish,13 or older,"no, only English or Spanish",yes,2025-07-23_11h08.39.944,empathy_intonation_perc,2024.2.4,Win32,60.0240096,663d0e210e239265b07238f1,687ed1b7e638a4cbf2f02089,6880d62e6f5f32bdb03c266b,,,,,,,,,,,,,1,,,,,,,,,,,,,,,,,,,,,,,,,,,,,,,,,,,,,,,,,,,,,,,,,,,,,,,,,,,,,,,,,,,,,,,,,,,,,,,1344.539,1351.422,strongly agree,0,0,0,0,1,I can easily tell if someone else wants to enter a conversation.,1,0,1,0,,
,,,,,,,,,663d0e210e239265b07238f1,Spanish,13 or older,"no, only English or Spanish",yes,2025-07-23_11h08.39.944,empathy_intonation_perc,2024.2.4,Win32,60.0240096,663d0e210e239265b07238f1,687ed1b7e638a4cbf2f02089,6880d62e6f5f32bdb03c266b,,,,,,,,,,,,,2,,,,,,,,,,,,,,,,,,,,,,,,,,,,,,,,,,,,,,,,,,,,,,,,,,,,,,,,,,,,,,,,,,,,,,,,,,,,,,,1351.423,1356.456,strongly disagree,0,1,1,1,1,I prefer animals to humans.,0,1,0,0,,
,,,,,,,,,663d0e210e239265b07238f1,Spanish,13 or older,"no, only English or Spanish",yes,2025-07-23_11h08.39.944,empathy_intonation_perc,2024.2.4,Win32,60.0240096,663d0e210e239265b07238f1,687ed1b7e638a4cbf2f02089,6880d62e6f5f32bdb03c266b,,,,,,,,,,,,,3,,,,,,,,,,,,,,,,,,,,,,,,,,,,,,,,,,,,,,,,,,,,,,,,,,,,,,,,,,,,,,,,,,,,,,,,,,,,,,,1356.459,1360.222,slightly disagree,0,2,2,2,1,I try to keep up with the current trends and fashions.,0,1,0,0,,
,,,,,,,,,663d0e210e239265b07238f1,Spanish,13 or older,"no, only English or Spanish",yes,2025-07-23_11h08.39.944,empathy_intonation_perc,2024.2.4,Win32,60.0240096,663d0e210e239265b07238f1,687ed1b7e638a4cbf2f02089,6880d62e6f5f32bdb03c266b,,,,,,,,,,,,,4,,,,,,,,,,,,,,,,,,,,,,,,,,,,,,,,,,,,,,,,,,,,,,,,,,,,,,,,,,,,,,,,,,,,,,,,,,,,,,,1360.226,1360.457,slightly disagree,0,3,3,3,1,"I find it difficult to explain to others things that I understand easily,   when they don't understand it first time.",1,0,0,1,,
,,,,,,,,,663d0e210e239265b07238f1,Spanish,13 or older,"no, only English or Spanish",yes,2025-07-23_11h08.39.944,empathy_intonation_perc,2024.2.4,Win32,60.0240096,663d0e210e239265b07238f1,687ed1b7e638a4cbf2f02089,6880d62e6f5f32bdb03c266b,,,,,,,,,,,,,5,,,,,,,,,,,,,,,,,,,,,,,,,,,,,,,,,,,,,,,,,,,,,,,,,,,,,,,,,,,,,,,,,,,,,,,,,,,,,,,1360.459,1362.606,slightly disagree,0,4,4,4,1,I dream most nights.,0,1,0,0,,
,,,,,,,,,663d0e210e239265b07238f1,Spanish,13 or older,"no, only English or Spanish",yes,2025-07-23_11h08.39.944,empathy_intonation_perc,2024.2.4,Win32,60.0240096,663d0e210e239265b07238f1,687ed1b7e638a4cbf2f02089,6880d62e6f5f32bdb03c266b,,,,,,,,,,,,,6,,,,,,,,,,,,,,,,,,,,,,,,,,,,,,,,,,,,,,,,,,,,,,,,,,,,,,,,,,,,,,,,,,,,,,,,,,,,,,,1362.607,1365.523,strongly agree,0,5,5,5,1,I really enjoy caring for other people.,1,0,1,0,,
,,,,,,,,,663d0e210e239265b07238f1,Spanish,13 or older,"no, only English or Spanish",yes,2025-07-23_11h08.39.944,empathy_intonation_perc,2024.2.4,Win32,60.0240096,663d0e210e239265b07238f1,687ed1b7e638a4cbf2f02089,6880d62e6f5f32bdb03c266b,,,,,,,,,,,,,7,,,,,,,,,,,,,,,,,,,,,,,,,,,,,,,,,,,,,,,,,,,,,,,,,,,,,,,,,,,,,,,,,,,,,,,,,,,,,,,1365.526,1371.323,strongly agree,0,6,6,6,1,I try to solve my own problems rather than discussing them with others.,0,1,0,0,,
,,,,,,,,,663d0e210e239265b07238f1,Spanish,13 or older,"no, only English or Spanish",yes,2025-07-23_11h08.39.944,empathy_intonation_perc,2024.2.4,Win32,60.0240096,663d0e210e239265b07238f1,687ed1b7e638a4cbf2f02089,6880d62e6f5f32bdb03c266b,,,,,,,,,,,,,8,,,,,,,,,,,,,,,,,,,,,,,,,,,,,,,,,,,,,,,,,,,,,,,,,,,,,,,,,,,,,,,,,,,,,,,,,,,,,,,1371.326,1371.939,strongly agree,0,7,7,7,1,I find it hard to know what to do in a social situation.,1,0,0,1,,
,,,,,,,,,663d0e210e239265b07238f1,Spanish,13 or older,"no, only English or Spanish",yes,2025-07-23_11h08.39.944,empathy_intonation_perc,2024.2.4,Win32,60.0240096,663d0e210e239265b07238f1,687ed1b7e638a4cbf2f02089,6880d62e6f5f32bdb03c266b,,,,,,,,,,,,,9,,,,,,,,,,,,,,,,,,,,,,,,,,,,,,,,,,,,,,,,,,,,,,,,,,,,,,,,,,,,,,,,,,,,,,,,,,,,,,,1371.94,1380.223,strongly agree,0,8,8,8,1,I am at my best first thing in the morning.,0,1,0,0,,
,,,,,,,,,663d0e210e239265b07238f1,Spanish,13 or older,"no, only English or Spanish",yes,2025-07-23_11h08.39.944,empathy_intonation_perc,2024.2.4,Win32,60.0240096,663d0e210e239265b07238f1,687ed1b7e638a4cbf2f02089,6880d62e6f5f32bdb03c266b,,,,,,,,,,,,,10,,,,,,,,,,,,,,,,,,,,,,,,,,,,,,,,,,,,,,,,,,,,,,,,,,,,,,,,,,,,,,,,,,,,,,,,,,,,,,,1380.226,1380.423,strongly agree,0,9,9,9,1,People often tell me that I went too far in driving my point home in a discussion.,1,0,0,1,,
