instructions_exposure.started,instructions_exposure.stopped,instructions_exposure_loop.thisRepN,instructions_exposure_loop.thisTrialN,instructions_exposure_loop.thisN,instructions_exposure_loop.thisIndex,instructions_exposure_loop.ran,instructions_text,continue_text,participant_id,"What variety of Spanish are you most familiar with? (e.g., Peruvian, Spanish, Mexican)",At what age did you begin learning Spanish?,Are you proficient in any languages other than English/Spanish?,"Are you familiar with Caribbean (e.g., Caribbean, Puerto Rican) or Galician Spanish?",date,expName,psychopyVersion,OS,frameRate,id,study_id,session,trial_exposure.started,trial_exposure.stopped,key_resp_exposure.keys,key_resp_exposure.corr,key_resp_exposure.rt,key_resp_exposure.duration,key_resp.keys,exposure_loop.thisRepN,exposure_loop.thisTrialN,exposure_loop.thisN,exposure_loop.thisIndex,exposure_loop.ran,item_num,correct_response,question,path,duration,instructions_2afc.started,instructions_2afc.stopped,instructions_2afc_loop.thisRepN,instructions_2afc_loop.thisTrialN,instructions_2afc_loop.thisN,instructions_2afc_loop.thisIndex,instructions_2afc_loop.ran,practice_2afc.started,practice_2afc.stopped,key_resp_2afc_practice.keys,key_resp_2afc_practice.corr,key_resp_2afc_practice.rt,key_resp_2afc_practice.duration,trials_2afc_practice_loop.thisRepN,trials_2afc_practice_loop.thisTrialN,trials_2afc_practice_loop.thisN,trials_2afc_practice_loop.thisIndex,trials_2afc_practice_loop.ran,check_2afc.started,check_2afc.stopped,trial_2afc.started,trial_2afc.stopped,key_resp_2afc_trial.keys,key_resp_2afc_trial.corr,key_resp_2afc_trial.rt,key_resp_2afc_trial.duration,trials_2afc_loop.thisRepN,trials_2afc_loop.thisTrialN,trials_2afc_loop.thisN,trials_2afc_loop.thisIndex,trials_2afc_loop.ran,target,variety,instructions_lextale.started,instructions_lextale.stopped,instructions_lextale_loop.thisRepN,instructions_lextale_loop.thisTrialN,instructions_lextale_loop.thisN,instructions_lextale_loop.thisIndex,instructions_lextale_loop.ran,practice_lextale.started,practice_lextale.stopped,key_resp_lextale_practice.keys,key_resp_lextale_practice.corr,key_resp_lextale_practice.rt,key_resp_lextale_practice.duration,practice_feedback_lextale.started,practice_feedback_lextale.stopped,trials_lextale_practice_loop.thisRepN,trials_lextale_practice_loop.thisTrialN,trials_lextale_practice_loop.thisN,trials_lextale_practice_loop.thisIndex,trials_lextale_practice_loop.ran,stim,word,prac_button_real,prac_button_false,check_lextale.started,check_lextale.stopped,trial_lextale.started,trial_lextale.stopped,key_resp_lextale_trial.keys,key_resp_lextale_trial.corr,key_resp_lextale_trial.rt,key_resp_lextale_trial.duration,trials_lextale_loop.thisRepN,trials_lextale_loop.thisTrialN,trials_lextale_loop.thisN,trials_lextale_loop.thisIndex,trials_lextale_loop.ran,button_real,button_false,instructions_eq.started,instructions_eq.stopped,trial_eq.started,trial_eq.stopped,slider_eq_trial.response,trials_eq_loop.thisRepN,trials_eq_loop.thisTrialN,trials_eq_loop.thisN,trials_eq_loop.thisIndex,trials_eq_loop.ran,item,is_test_item,is_distractor,is_agree_score,is_disagree_score,end_exp.started,end_exp.stopped
0.0479,3.5891,0,0,0,0,1,"In the following task, you are going to hear a series of conversations.", (press the space bar to continue),663e4706e326d67a17612551,Spain,younger than 13,"yes, I am fluent in another language",no,2025-08-12_14h06.06.983,empathy_intonation_perc,2024.2.4,MacIntel,62.89308176,663e4706e326d67a17612551,687ed1b7e638a4cbf2f02089,689b825b152460611ae12d60,,,,,,,,,,,,,,,,,,,,,,,,,,,,,,,,,,,,,,,,,,,,,,,,,,,,,,,,,,,,,,,,,,,,,,,,,,,,,,,,,,,,,,,,,,,,,,,,,,,,,,,,,,
3.59,5.8431,0,1,1,1,1,It is okay if you don't not 100% understand them!, (press the space bar to continue),663e4706e326d67a17612551,Spain,younger than 13,"yes, I am fluent in another language",no,2025-08-12_14h06.06.983,empathy_intonation_perc,2024.2.4,MacIntel,62.89308176,663e4706e326d67a17612551,687ed1b7e638a4cbf2f02089,689b825b152460611ae12d60,,,,,,,,,,,,,,,,,,,,,,,,,,,,,,,,,,,,,,,,,,,,,,,,,,,,,,,,,,,,,,,,,,,,,,,,,,,,,,,,,,,,,,,,,,,,,,,,,,,,,,,,,,
5.8445,9.6533,0,2,2,2,1,"After, you will read a sentence about the conversation and decide if it's true or false.", (press the space bar to continue),663e4706e326d67a17612551,Spain,younger than 13,"yes, I am fluent in another language",no,2025-08-12_14h06.06.983,empathy_intonation_perc,2024.2.4,MacIntel,62.89308176,663e4706e326d67a17612551,687ed1b7e638a4cbf2f02089,689b825b152460611ae12d60,,,,,,,,,,,,,,,,,,,,,,,,,,,,,,,,,,,,,,,,,,,,,,,,,,,,,,,,,,,,,,,,,,,,,,,,,,,,,,,,,,,,,,,,,,,,,,,,,,,,,,,,,,
9.6546,11.9603,0,3,3,3,1,"If it's true, press '1' (True) and if it's false press '0' (False).", (press the space bar to continue),663e4706e326d67a17612551,Spain,younger than 13,"yes, I am fluent in another language",no,2025-08-12_14h06.06.983,empathy_intonation_perc,2024.2.4,MacIntel,62.89308176,663e4706e326d67a17612551,687ed1b7e638a4cbf2f02089,689b825b152460611ae12d60,,,,,,,,,,,,,,,,,,,,,,,,,,,,,,,,,,,,,,,,,,,,,,,,,,,,,,,,,,,,,,,,,,,,,,,,,,,,,,,,,,,,,,,,,,,,,,,,,,,,,,,,,,
,,,,,,,,,663e4706e326d67a17612551,Spain,younger than 13,"yes, I am fluent in another language",no,2025-08-12_14h06.06.983,empathy_intonation_perc,2024.2.4,MacIntel,62.89308176,663e4706e326d67a17612551,687ed1b7e638a4cbf2f02089,689b825b152460611ae12d60,11.9705,79.04,0,0,20.0377,,,0,0,0,0,1,1,1,The son asked the mom if Aunt Marina is okay.,./stim/exposure_wavs/ga_stimuli_convo.wav,47,,,,,,,,,,,,,,,,,,,,,,,,,,,,,,,,,,,,,,,,,,,,,,,,,,,,,,,,,,,,,,,,,,,,,,,,,,,,,,,,,,,,,,,,,
,,,,,,,,,663e4706e326d67a17612551,Spain,younger than 13,"yes, I am fluent in another language",no,2025-08-12_14h06.06.983,empathy_intonation_perc,2024.2.4,MacIntel,62.89308176,663e4706e326d67a17612551,687ed1b7e638a4cbf2f02089,689b825b152460611ae12d60,79.0472,142.5247,1,1,3.4558,,,0,1,1,1,1,2,1,The mom asked the daughter if she already went to the supermarket.,./stim/exposure_wavs/dr_stimuli_convo.wav,60,,,,,,,,,,,,,,,,,,,,,,,,,,,,,,,,,,,,,,,,,,,,,,,,,,,,,,,,,,,,,,,,,,,,,,,,,,,,,,,,,,,,,,,,,
,,,,,,,,,663e4706e326d67a17612551,Spain,younger than 13,"yes, I am fluent in another language",no,2025-08-12_14h06.06.983,empathy_intonation_perc,2024.2.4,MacIntel,62.89308176,663e4706e326d67a17612551,687ed1b7e638a4cbf2f02089,689b825b152460611ae12d60,142.5261,183.167,0,1,4.6193,,,0,2,2,2,1,3,0,The mom already has rice.,./stim/exposure_wavs/pr_stimuli_convo.wav,36,,,,,,,,,,,,,,,,,,,,,,,,,,,,,,,,,,,,,,,,,,,,,,,,,,,,,,,,,,,,,,,,,,,,,,,,,,,,,,,,,,,,,,,,,
,,,,,,,"In the following task you are going to hear a series of utterances. 

  You will decide if the utterances sound like questions or not using your keyboard.", (press the spacebar to continue),663e4706e326d67a17612551,Spain,younger than 13,"yes, I am fluent in another language",no,2025-08-12_14h06.06.983,empathy_intonation_perc,2024.2.4,MacIntel,62.89308176,663e4706e326d67a17612551,687ed1b7e638a4cbf2f02089,689b825b152460611ae12d60,,,,,,,,,,,,,,,,,,183.1727,188.4483,0,0,0,0,1,,,,,,,,,,,,,,,,,,,,,,,,,,,,,,,,,,,,,,,,,,,,,,,,,,,,,,,,,,,,,,,,,,,,,,,,,,,,,,,,,,
,,,,,,,"If you believe the utterance is a question, type '1' (for 'yes') and if you do not 
  believe it is a question type '0' (for 'no').

  Let's practice a bit...", (press the spacebar to continue),663e4706e326d67a17612551,Spain,younger than 13,"yes, I am fluent in another language",no,2025-08-12_14h06.06.983,empathy_intonation_perc,2024.2.4,MacIntel,62.89308176,663e4706e326d67a17612551,687ed1b7e638a4cbf2f02089,689b825b152460611ae12d60,,,,,,,,,,,,,,,,,,188.4504,192.5252,0,1,1,1,1,,,,,,,,,,,,,,,,,,,,,,,,,,,,,,,,,,,,,,,,,,,,,,,,,,,,,,,,,,,,,,,,,,,,,,,,,,,,,,,,,,
,,,,,,,,,663e4706e326d67a17612551,Spain,younger than 13,"yes, I am fluent in another language",no,2025-08-12_14h06.06.983,empathy_intonation_perc,2024.2.4,MacIntel,62.89308176,663e4706e326d67a17612551,687ed1b7e638a4cbf2f02089,689b825b152460611ae12d60,,,,,,,,,,,,,,1,,./stim/wavs/chilean_question_filler_Mi-padre-cantaba-bien.wav,,,,,,,,,192.532,195.918,1,1,2.8586,,0,0,0,2,1,,,,,,,,,,,,,,,,,,,,,,,,,,,,,,,,,,,,,,,,,,,,,,,,,,,,,,,,,,,,,,,,,,,,,,,
,,,,,,,,,663e4706e326d67a17612551,Spain,younger than 13,"yes, I am fluent in another language",no,2025-08-12_14h06.06.983,empathy_intonation_perc,2024.2.4,MacIntel,62.89308176,663e4706e326d67a17612551,687ed1b7e638a4cbf2f02089,689b825b152460611ae12d60,,,,,,,,,,,,,,1,,./stim/wavs/castilian_question_filler_Mi-esposo-conoce-al-chico.wav,,,,,,,,,195.9187,200.2801,0,0,3.8453,,0,1,1,0,1,,,,,,,,,,,,,,,,,,,,,,,,,,,,,,,,,,,,,,,,,,,,,,,,,,,,,,,,,,,,,,,,,,,,,,,
,,,,,,,,,663e4706e326d67a17612551,Spain,younger than 13,"yes, I am fluent in another language",no,2025-08-12_14h06.06.983,empathy_intonation_perc,2024.2.4,MacIntel,62.89308176,663e4706e326d67a17612551,687ed1b7e638a4cbf2f02089,689b825b152460611ae12d60,,,,,,,,,,,,,,1,,./stim/wavs/mexican_question_filler_Felipe-no-tiene-contrasena.wav,,,,,,,,,200.2807,202.9029,1,1,2.0904,,0,2,2,3,1,,,,,,,,,,,,,,,,,,,,,,,,,,,,,,,,,,,,,,,,,,,,,,,,,,,,,,,,,,,,,,,,,,,,,,,
,,,,,,,,,663e4706e326d67a17612551,Spain,younger than 13,"yes, I am fluent in another language",no,2025-08-12_14h06.06.983,empathy_intonation_perc,2024.2.4,MacIntel,62.89308176,663e4706e326d67a17612551,687ed1b7e638a4cbf2f02089,689b825b152460611ae12d60,,,,,,,,,,,,,,1,,./stim/wavs/argentine_question_filler_Mi-vecino-habla-mucho.wav,,,,,,,,,202.9038,205.0419,0,0,1.6293,,0,3,3,1,1,,,,,,,,,,,,,,,,,,,,,,,,,,,,,,,,,,,,,,,,,,,,,,,,,,,,,,,,,,,,,,,,,,,,,,,
,,,,,,,,,663e4706e326d67a17612551,Spain,younger than 13,"yes, I am fluent in another language",no,2025-08-12_14h06.06.983,empathy_intonation_perc,2024.2.4,MacIntel,62.89308176,663e4706e326d67a17612551,687ed1b7e638a4cbf2f02089,689b825b152460611ae12d60,,,,,,,,,,,,,,0,,./stim/wavs/puertorican_statement_filler_La-nina-pinta-con-su-amiga.wav,,,,,,,,,205.0425,207.416,0,1,1.857,,0,4,4,7,1,,,,,,,,,,,,,,,,,,,,,,,,,,,,,,,,,,,,,,,,,,,,,,,,,,,,,,,,,,,,,,,,,,,,,,,
,,,,,,,,,663e4706e326d67a17612551,Spain,younger than 13,"yes, I am fluent in another language",no,2025-08-12_14h06.06.983,empathy_intonation_perc,2024.2.4,MacIntel,62.89308176,663e4706e326d67a17612551,687ed1b7e638a4cbf2f02089,689b825b152460611ae12d60,,,,,,,,,,,,,,0,,./stim/wavs/andalusian_statement_filler_Alberto-nunca-se-afeita.wav,,,,,,,,,207.4167,209.537,0,1,1.5872,,0,5,5,5,1,,,,,,,,,,,,,,,,,,,,,,,,,,,,,,,,,,,,,,,,,,,,,,,,,,,,,,,,,,,,,,,,,,,,,,,
,,,,,,,,,663e4706e326d67a17612551,Spain,younger than 13,"yes, I am fluent in another language",no,2025-08-12_14h06.06.983,empathy_intonation_perc,2024.2.4,MacIntel,62.89308176,663e4706e326d67a17612551,687ed1b7e638a4cbf2f02089,689b825b152460611ae12d60,,,,,,,,,,,,,,0,,./stim/wavs/cuban_statement_filler_Cocinabas-por-la-noche.wav,,,,,,,,,209.5376,211.6094,0,1,1.5613,,0,6,6,4,1,,,,,,,,,,,,,,,,,,,,,,,,,,,,,,,,,,,,,,,,,,,,,,,,,,,,,,,,,,,,,,,,,,,,,,,
,,,,,,,,,663e4706e326d67a17612551,Spain,younger than 13,"yes, I am fluent in another language",no,2025-08-12_14h06.06.983,empathy_intonation_perc,2024.2.4,MacIntel,62.89308176,663e4706e326d67a17612551,687ed1b7e638a4cbf2f02089,689b825b152460611ae12d60,,,,,,,,,,,,,,0,,./stim/wavs/peruvian_statement_filler_El-nino-habla-con-su-madre.wav,,,,,,,,,211.6101,214.1,0,1,1.9819,,0,7,7,6,1,,,,,,,,,,,,,,,,,,,,,,,,,,,,,,,,,,,,,,,,,,,,,,,,,,,,,,,,,,,,,,,,,,,,,,,
,,,,,,,,,663e4706e326d67a17612551,Spain,younger than 13,"yes, I am fluent in another language",no,2025-08-12_14h06.06.983,empathy_intonation_perc,2024.2.4,MacIntel,62.89308176,663e4706e326d67a17612551,687ed1b7e638a4cbf2f02089,689b825b152460611ae12d60,,,,,,,,,,,,,,,,,,,,,,,,,,,,,,,,,,,,214.1005,215.8553,,,,,,,,,,,,,,,,,,,,,,,,,,,,,,,,,,,,,,,,,,,,,,,,,,,,,,,,,,,,,,,,,,,,,
,,,,,,,,,663e4706e326d67a17612551,Spain,younger than 13,"yes, I am fluent in another language",no,2025-08-12_14h06.06.983,empathy_intonation_perc,2024.2.4,MacIntel,62.89308176,663e4706e326d67a17612551,687ed1b7e638a4cbf2f02089,689b825b152460611ae12d60,,,,,,,,,,,,,69,0,,./stim/wavs/castilian_mismatch_declarative-broad-focus_El-nino-oye-el-rio.wav,,,,,,,,,,,,,,,,,,,,,,215.867,218.0434,0,1,1.6607,,0,0,0,68,1,0,castilian,,,,,,,,,,,,,,,,,,,,,,,,,,,,,,,,,,,,,,,,,,,,,,,,,,,,,,,,
,,,,,,,,,663e4706e326d67a17612551,Spain,younger than 13,"yes, I am fluent in another language",no,2025-08-12_14h06.06.983,empathy_intonation_perc,2024.2.4,MacIntel,62.89308176,663e4706e326d67a17612551,687ed1b7e638a4cbf2f02089,689b825b152460611ae12d60,,,,,,,,,,,,,75,0,,./stim/wavs/cuban_mismatch_declarative-broad-focus_El-hombre-mira-la-luna.wav,,,,,,,,,,,,,,,,,,,,,,218.0442,219.8988,0,1,1.3366,,0,1,1,74,1,0,cuban,,,,,,,,,,,,,,,,,,,,,,,,,,,,,,,,,,,,,,,,,,,,,,,,,,,,,,,,
,,,,,,,,,663e4706e326d67a17612551,Spain,younger than 13,"yes, I am fluent in another language",no,2025-08-12_14h06.06.983,empathy_intonation_perc,2024.2.4,MacIntel,62.89308176,663e4706e326d67a17612551,687ed1b7e638a4cbf2f02089,689b825b152460611ae12d60,,,,,,,,,,,,,34,1,,./stim/wavs/cuban_mismatch_interrogative-total-yn_Mi-tia-odia-la-lluvia.wav,,,,,,,,,,,,,,,,,,,,,,219.8996,221.8875,0,0,1.4803,,0,2,2,33,1,1,cuban,,,,,,,,,,,,,,,,,,,,,,,,,,,,,,,,,,,,,,,,,,,,,,,,,,,,,,,,
,,,,,,,,,663e4706e326d67a17612551,Spain,younger than 13,"yes, I am fluent in another language",no,2025-08-12_14h06.06.983,empathy_intonation_perc,2024.2.4,MacIntel,62.89308176,663e4706e326d67a17612551,687ed1b7e638a4cbf2f02089,689b825b152460611ae12d60,,,,,,,,,,,,,15,1,,./stim/wavs/mexican_match_interrogative-total-yn_David-leia-el-libro.wav,,,,,,,,,,,,,,,,,,,,,,221.8882,224.1101,1,1,1.7028,,0,3,3,14,1,0,mexican,,,,,,,,,,,,,,,,,,,,,,,,,,,,,,,,,,,,,,,,,,,,,,,,,,,,,,,,
,,,,,,,,,663e4706e326d67a17612551,Spain,younger than 13,"yes, I am fluent in another language",no,2025-08-12_14h06.06.983,empathy_intonation_perc,2024.2.4,MacIntel,62.89308176,663e4706e326d67a17612551,687ed1b7e638a4cbf2f02089,689b825b152460611ae12d60,,,,,,,,,,,,,31,1,,./stim/wavs/cuban_mismatch_interrogative-total-yn_El-nino-oye-el-rio.wav,,,,,,,,,,,,,,,,,,,,,,224.1108,225.9986,0,0,1.3758,,0,4,4,30,1,1,cuban,,,,,,,,,,,,,,,,,,,,,,,,,,,,,,,,,,,,,,,,,,,,,,,,,,,,,,,,
,,,,,,,,,663e4706e326d67a17612551,Spain,younger than 13,"yes, I am fluent in another language",no,2025-08-12_14h06.06.983,empathy_intonation_perc,2024.2.4,MacIntel,62.89308176,663e4706e326d67a17612551,687ed1b7e638a4cbf2f02089,689b825b152460611ae12d60,,,,,,,,,,,,,67,0,,./stim/wavs/puertorican_match_declarative-broad-focus_Manuela-vende-el-carro.wav,,,,,,,,,,,,,,,,,,,,,,225.9995,228.003,0,1,1.4879,,0,5,5,66,1,0,puertorican,,,,,,,,,,,,,,,,,,,,,,,,,,,,,,,,,,,,,,,,,,,,,,,,,,,,,,,,
,,,,,,,,,663e4706e326d67a17612551,Spain,younger than 13,"yes, I am fluent in another language",no,2025-08-12_14h06.06.983,empathy_intonation_perc,2024.2.4,MacIntel,62.89308176,663e4706e326d67a17612551,687ed1b7e638a4cbf2f02089,689b825b152460611ae12d60,,,,,,,,,,,,,72,0,,./stim/wavs/castilian_mismatch_declarative-broad-focus_Mi-novio-viene-del-lago.wav,,,,,,,,,,,,,,,,,,,,,,228.0041,230.1426,0,1,1.6309,,0,6,6,71,1,0,castilian,,,,,,,,,,,,,,,,,,,,,,,,,,,,,,,,,,,,,,,,,,,,,,,,,,,,,,,,
,,,,,,,,,663e4706e326d67a17612551,Spain,younger than 13,"yes, I am fluent in another language",no,2025-08-12_14h06.06.983,empathy_intonation_perc,2024.2.4,MacIntel,62.89308176,663e4706e326d67a17612551,687ed1b7e638a4cbf2f02089,689b825b152460611ae12d60,,,,,,,,,,,,,48,0,,./stim/wavs/castilian_match_declarative-broad-focus_Maria-bebe-el-vino.wav,,,,,,,,,,,,,,,,,,,,,,230.1432,232.0484,0,1,1.3942,,0,7,7,47,1,0,castilian,,,,,,,,,,,,,,,,,,,,,,,,,,,,,,,,,,,,,,,,,,,,,,,,,,,,,,,,
,,,,,,,,,663e4706e326d67a17612551,Spain,younger than 13,"yes, I am fluent in another language",no,2025-08-12_14h06.06.983,empathy_intonation_perc,2024.2.4,MacIntel,62.89308176,663e4706e326d67a17612551,687ed1b7e638a4cbf2f02089,689b825b152460611ae12d60,,,,,,,,,,,,,32,1,,./stim/wavs/cuban_mismatch_interrogative-total-yn_Mi-madre-come-la-fruta.wav,,,,,,,,,,,,,,,,,,,,,,232.0491,234.3039,0,0,1.7353,,0,8,8,31,1,1,cuban,,,,,,,,,,,,,,,,,,,,,,,,,,,,,,,,,,,,,,,,,,,,,,,,,,,,,,,,
,,,,,,,,,663e4706e326d67a17612551,Spain,younger than 13,"yes, I am fluent in another language",no,2025-08-12_14h06.06.983,empathy_intonation_perc,2024.2.4,MacIntel,62.89308176,663e4706e326d67a17612551,687ed1b7e638a4cbf2f02089,689b825b152460611ae12d60,,,,,,,,,,,,,59,0,,./stim/wavs/mexican_match_declarative-broad-focus_David-leia-el-libro.wav,,,,,,,,,,,,,,,,,,,,,,234.3045,236.3097,0,1,1.4858,,0,9,9,58,1,0,mexican,,,,,,,,,,,,,,,,,,,,,,,,,,,,,,,,,,,,,,,,,,,,,,,,,,,,,,,,
,,,,,,,,,663e4706e326d67a17612551,Spain,younger than 13,"yes, I am fluent in another language",no,2025-08-12_14h06.06.983,empathy_intonation_perc,2024.2.4,MacIntel,62.89308176,663e4706e326d67a17612551,687ed1b7e638a4cbf2f02089,689b825b152460611ae12d60,,,,,,,,,,,,,71,0,,./stim/wavs/castilian_mismatch_declarative-broad-focus_La-nina-lava-el-plato.wav,,,,,,,,,,,,,,,,,,,,,,236.3103,238.4311,0,1,1.6107,,0,10,10,70,1,0,castilian,,,,,,,,,,,,,,,,,,,,,,,,,,,,,,,,,,,,,,,,,,,,,,,,,,,,,,,,
,,,,,,,,,663e4706e326d67a17612551,Spain,younger than 13,"yes, I am fluent in another language",no,2025-08-12_14h06.06.983,empathy_intonation_perc,2024.2.4,MacIntel,62.89308176,663e4706e326d67a17612551,687ed1b7e638a4cbf2f02089,689b825b152460611ae12d60,,,,,,,,,,,,,58,0,,./stim/wavs/mexican_match_declarative-broad-focus_Daniel-iba-a-Bolivia.wav,,,,,,,,,,,,,,,,,,,,,,238.4316,240.37,0,1,1.4288,,0,11,11,57,1,0,mexican,,,,,,,,,,,,,,,,,,,,,,,,,,,,,,,,,,,,,,,,,,,,,,,,,,,,,,,,
,,,,,,,,,663e4706e326d67a17612551,Spain,younger than 13,"yes, I am fluent in another language",no,2025-08-12_14h06.06.983,empathy_intonation_perc,2024.2.4,MacIntel,62.89308176,663e4706e326d67a17612551,687ed1b7e638a4cbf2f02089,689b825b152460611ae12d60,,,,,,,,,,,,,74,0,,./stim/wavs/cuban_mismatch_declarative-broad-focus_El-bebe-comia-muy-bien.wav,,,,,,,,,,,,,,,,,,,,,,240.3704,242.2421,0,1,1.3581,,0,12,12,73,1,0,cuban,,,,,,,,,,,,,,,,,,,,,,,,,,,,,,,,,,,,,,,,,,,,,,,,,,,,,,,,
,,,,,,,,,663e4706e326d67a17612551,Spain,younger than 13,"yes, I am fluent in another language",no,2025-08-12_14h06.06.983,empathy_intonation_perc,2024.2.4,MacIntel,62.89308176,663e4706e326d67a17612551,687ed1b7e638a4cbf2f02089,689b825b152460611ae12d60,,,,,,,,,,,,,43,1,,./stim/wavs/puertorican_mismatch_interrogative-total-yn_La-nina-lava-el-plato.wav,,,,,,,,,,,,,,,,,,,,,,242.2426,244.6642,1,1,1.9118,,0,13,13,42,1,1,puertorican,,,,,,,,,,,,,,,,,,,,,,,,,,,,,,,,,,,,,,,,,,,,,,,,,,,,,,,,
,,,,,,,,,663e4706e326d67a17612551,Spain,younger than 13,"yes, I am fluent in another language",no,2025-08-12_14h06.06.983,empathy_intonation_perc,2024.2.4,MacIntel,62.89308176,663e4706e326d67a17612551,687ed1b7e638a4cbf2f02089,689b825b152460611ae12d60,,,,,,,,,,,,,16,1,,./stim/wavs/mexican_match_interrogative-total-yn_Emilio-ama-la-marcha.wav,,,,,,,,,,,,,,,,,,,,,,244.6647,246.9212,1,1,1.7398,,0,14,14,15,1,0,mexican,,,,,,,,,,,,,,,,,,,,,,,,,,,,,,,,,,,,,,,,,,,,,,,,,,,,,,,,
,,,,,,,,,663e4706e326d67a17612551,Spain,younger than 13,"yes, I am fluent in another language",no,2025-08-12_14h06.06.983,empathy_intonation_perc,2024.2.4,MacIntel,62.89308176,663e4706e326d67a17612551,687ed1b7e638a4cbf2f02089,689b825b152460611ae12d60,,,,,,,,,,,,,22,1,,./stim/wavs/puertorican_match_interrogative-total-yn_Emilio-ama-la-marcha.wav,,,,,,,,,,,,,,,,,,,,,,246.9222,248.7922,1,1,1.3604,,0,15,15,21,1,1,puertorican,,,,,,,,,,,,,,,,,,,,,,,,,,,,,,,,,,,,,,,,,,,,,,,,,,,,,,,,
,,,,,,,,,663e4706e326d67a17612551,Spain,younger than 13,"yes, I am fluent in another language",no,2025-08-12_14h06.06.983,empathy_intonation_perc,2024.2.4,MacIntel,62.89308176,663e4706e326d67a17612551,687ed1b7e638a4cbf2f02089,689b825b152460611ae12d60,,,,,,,,,,,,,6,1,,./stim/wavs/castilian_match_interrogative-total-yn_Marta-abre-el-regalo.wav,,,,,,,,,,,,,,,,,,,,,,248.7928,251.1648,1,1,1.8604,,0,16,16,5,1,0,castilian,,,,,,,,,,,,,,,,,,,,,,,,,,,,,,,,,,,,,,,,,,,,,,,,,,,,,,,,
,,,,,,,,,663e4706e326d67a17612551,Spain,younger than 13,"yes, I am fluent in another language",no,2025-08-12_14h06.06.983,empathy_intonation_perc,2024.2.4,MacIntel,62.89308176,663e4706e326d67a17612551,687ed1b7e638a4cbf2f02089,689b825b152460611ae12d60,,,,,,,,,,,,,49,0,,./stim/wavs/castilian_match_declarative-broad-focus_Mariano-habla-del-tiempo.wav,,,,,,,,,,,,,,,,,,,,,,251.1654,253.4714,0,1,1.7888,,0,17,17,48,1,0,castilian,,,,,,,,,,,,,,,,,,,,,,,,,,,,,,,,,,,,,,,,,,,,,,,,,,,,,,,,
,,,,,,,,,663e4706e326d67a17612551,Spain,younger than 13,"yes, I am fluent in another language",no,2025-08-12_14h06.06.983,empathy_intonation_perc,2024.2.4,MacIntel,62.89308176,663e4706e326d67a17612551,687ed1b7e638a4cbf2f02089,689b825b152460611ae12d60,,,,,,,,,,,,,29,1,,./stim/wavs/castilian_mismatch_interrogative-total-yn_Mi-tia-odia-la-lluvia.wav,,,,,,,,,,,,,,,,,,,,,,253.472,255.761,1,1,1.7803,,0,18,18,28,1,0,castilian,,,,,,,,,,,,,,,,,,,,,,,,,,,,,,,,,,,,,,,,,,,,,,,,,,,,,,,,
,,,,,,,,,663e4706e326d67a17612551,Spain,younger than 13,"yes, I am fluent in another language",no,2025-08-12_14h06.06.983,empathy_intonation_perc,2024.2.4,MacIntel,62.89308176,663e4706e326d67a17612551,687ed1b7e638a4cbf2f02089,689b825b152460611ae12d60,,,,,,,,,,,,,85,0,,./stim/wavs/puertorican_mismatch_declarative-broad-focus_El-hombre-mira-la-luna.wav,,,,,,,,,,,,,,,,,,,,,,255.7621,257.834,0,1,1.5581,,0,19,19,84,1,0,puertorican,,,,,,,,,,,,,,,,,,,,,,,,,,,,,,,,,,,,,,,,,,,,,,,,,,,,,,,,
,,,,,,,,,663e4706e326d67a17612551,Spain,younger than 13,"yes, I am fluent in another language",no,2025-08-12_14h06.06.983,empathy_intonation_perc,2024.2.4,MacIntel,62.89308176,663e4706e326d67a17612551,687ed1b7e638a4cbf2f02089,689b825b152460611ae12d60,,,,,,,,,,,,,7,1,,./stim/wavs/cuban_match_interrogative-total-yn_Ana-lleva-el-abrigo.wav,,,,,,,,,,,,,,,,,,,,,,257.8346,259.955,0,0,1.5965,,0,20,20,6,1,1,cuban,,,,,,,,,,,,,,,,,,,,,,,,,,,,,,,,,,,,,,,,,,,,,,,,,,,,,,,,
,,,,,,,,,663e4706e326d67a17612551,Spain,younger than 13,"yes, I am fluent in another language",no,2025-08-12_14h06.06.983,empathy_intonation_perc,2024.2.4,MacIntel,62.89308176,663e4706e326d67a17612551,687ed1b7e638a4cbf2f02089,689b825b152460611ae12d60,,,,,,,,,,,,,87,0,,./stim/wavs/puertorican_mismatch_declarative-broad-focus_La-maestra-vive-en-Paris.wav,,,,,,,,,,,,,,,,,,,,,,259.9555,261.9603,0,1,1.488,,0,21,21,86,1,0,puertorican,,,,,,,,,,,,,,,,,,,,,,,,,,,,,,,,,,,,,,,,,,,,,,,,,,,,,,,,
,,,,,,,,,663e4706e326d67a17612551,Spain,younger than 13,"yes, I am fluent in another language",no,2025-08-12_14h06.06.983,empathy_intonation_perc,2024.2.4,MacIntel,62.89308176,663e4706e326d67a17612551,687ed1b7e638a4cbf2f02089,689b825b152460611ae12d60,,,,,,,,,,,,,86,0,,./stim/wavs/puertorican_mismatch_declarative-broad-focus_El-nino-oye-el-rio.wav,,,,,,,,,,,,,,,,,,,,,,261.9607,263.7159,0,1,1.238,,0,22,22,85,1,0,puertorican,,,,,,,,,,,,,,,,,,,,,,,,,,,,,,,,,,,,,,,,,,,,,,,,,,,,,,,,
,,,,,,,,,663e4706e326d67a17612551,Spain,younger than 13,"yes, I am fluent in another language",no,2025-08-12_14h06.06.983,empathy_intonation_perc,2024.2.4,MacIntel,62.89308176,663e4706e326d67a17612551,687ed1b7e638a4cbf2f02089,689b825b152460611ae12d60,,,,,,,,,,,,,10,1,,./stim/wavs/cuban_match_interrogative-total-yn_Maria-bebe-el-vino.wav,,,,,,,,,,,,,,,,,,,,,,263.7165,265.6207,0,0,1.3861,,0,23,23,9,1,1,cuban,,,,,,,,,,,,,,,,,,,,,,,,,,,,,,,,,,,,,,,,,,,,,,,,,,,,,,,,
,,,,,,,,,663e4706e326d67a17612551,Spain,younger than 13,"yes, I am fluent in another language",no,2025-08-12_14h06.06.983,empathy_intonation_perc,2024.2.4,MacIntel,62.89308176,663e4706e326d67a17612551,687ed1b7e638a4cbf2f02089,689b825b152460611ae12d60,,,,,,,,,,,,,83,0,,./stim/wavs/mexican_mismatch_declarative-broad-focus_Mi-tia-odia-la-lluvia.wav,,,,,,,,,,,,,,,,,,,,,,265.6214,267.4591,0,1,1.328,,0,24,24,82,1,0,mexican,,,,,,,,,,,,,,,,,,,,,,,,,,,,,,,,,,,,,,,,,,,,,,,,,,,,,,,,
,,,,,,,,,663e4706e326d67a17612551,Spain,younger than 13,"yes, I am fluent in another language",no,2025-08-12_14h06.06.983,empathy_intonation_perc,2024.2.4,MacIntel,62.89308176,663e4706e326d67a17612551,687ed1b7e638a4cbf2f02089,689b825b152460611ae12d60,,,,,,,,,,,,,36,1,,./stim/wavs/mexican_mismatch_interrogative-total-yn_El-nino-oye-el-rio.wav,,,,,,,,,,,,,,,,,,,,,,267.4598,269.5314,1,1,1.5602,,0,25,25,35,1,0,mexican,,,,,,,,,,,,,,,,,,,,,,,,,,,,,,,,,,,,,,,,,,,,,,,,,,,,,,,,
,,,,,,,,,663e4706e326d67a17612551,Spain,younger than 13,"yes, I am fluent in another language",no,2025-08-12_14h06.06.983,empathy_intonation_perc,2024.2.4,MacIntel,62.89308176,663e4706e326d67a17612551,687ed1b7e638a4cbf2f02089,689b825b152460611ae12d60,,,,,,,,,,,,,64,0,,./stim/wavs/puertorican_match_declarative-broad-focus_Daniel-iba-a-Bolivia.wav,,,,,,,,,,,,,,,,,,,,,,269.5317,271.6198,0,1,1.5791,,0,26,26,63,1,0,puertorican,,,,,,,,,,,,,,,,,,,,,,,,,,,,,,,,,,,,,,,,,,,,,,,,,,,,,,,,
,,,,,,,,,663e4706e326d67a17612551,Spain,younger than 13,"yes, I am fluent in another language",no,2025-08-12_14h06.06.983,empathy_intonation_perc,2024.2.4,MacIntel,62.89308176,663e4706e326d67a17612551,687ed1b7e638a4cbf2f02089,689b825b152460611ae12d60,,,,,,,,,,,,,25,1,,./stim/wavs/castilian_mismatch_interrogative-total-yn_La-maestra-vive-en-Paris.wav,,,,,,,,,,,,,,,,,,,,,,271.6203,274.0598,1,1,1.9215,,0,27,27,24,1,0,castilian,,,,,,,,,,,,,,,,,,,,,,,,,,,,,,,,,,,,,,,,,,,,,,,,,,,,,,,,
,,,,,,,,,663e4706e326d67a17612551,Spain,younger than 13,"yes, I am fluent in another language",no,2025-08-12_14h06.06.983,empathy_intonation_perc,2024.2.4,MacIntel,62.89308176,663e4706e326d67a17612551,687ed1b7e638a4cbf2f02089,689b825b152460611ae12d60,,,,,,,,,,,,,55,0,,./stim/wavs/cuban_match_declarative-broad-focus_Mariano-habla-del-tiempo.wav,,,,,,,,,,,,,,,,,,,,,,274.0605,276.1985,0,1,1.6283,,0,28,28,54,1,0,cuban,,,,,,,,,,,,,,,,,,,,,,,,,,,,,,,,,,,,,,,,,,,,,,,,,,,,,,,,
,,,,,,,,,663e4706e326d67a17612551,Spain,younger than 13,"yes, I am fluent in another language",no,2025-08-12_14h06.06.983,empathy_intonation_perc,2024.2.4,MacIntel,62.89308176,663e4706e326d67a17612551,687ed1b7e638a4cbf2f02089,689b825b152460611ae12d60,,,,,,,,,,,,,40,1,,./stim/wavs/puertorican_mismatch_interrogative-total-yn_El-hombre-mira-la-luna.wav,,,,,,,,,,,,,,,,,,,,,,276.199,278.1869,1,1,1.4698,,0,29,29,39,1,1,puertorican,,,,,,,,,,,,,,,,,,,,,,,,,,,,,,,,,,,,,,,,,,,,,,,,,,,,,,,,
,,,,,,,,,663e4706e326d67a17612551,Spain,younger than 13,"yes, I am fluent in another language",no,2025-08-12_14h06.06.983,empathy_intonation_perc,2024.2.4,MacIntel,62.89308176,663e4706e326d67a17612551,687ed1b7e638a4cbf2f02089,689b825b152460611ae12d60,,,,,,,,,,,,,60,0,,./stim/wavs/mexican_match_declarative-broad-focus_Emilio-ama-la-marcha.wav,,,,,,,,,,,,,,,,,,,,,,278.1877,280.2592,0,1,1.5618,,0,30,30,59,1,0,mexican,,,,,,,,,,,,,,,,,,,,,,,,,,,,,,,,,,,,,,,,,,,,,,,,,,,,,,,,
,,,,,,,,,663e4706e326d67a17612551,Spain,younger than 13,"yes, I am fluent in another language",no,2025-08-12_14h06.06.983,empathy_intonation_perc,2024.2.4,MacIntel,62.89308176,663e4706e326d67a17612551,687ed1b7e638a4cbf2f02089,689b825b152460611ae12d60,,,,,,,,,,,,,62,0,,./stim/wavs/mexican_match_declarative-broad-focus_Marta-abre-el-regalo.wav,,,,,,,,,,,,,,,,,,,,,,280.2598,282.0473,0,1,1.2782,,0,31,31,61,1,0,mexican,,,,,,,,,,,,,,,,,,,,,,,,,,,,,,,,,,,,,,,,,,,,,,,,,,,,,,,,
,,,,,,,,,663e4706e326d67a17612551,Spain,younger than 13,"yes, I am fluent in another language",no,2025-08-12_14h06.06.983,empathy_intonation_perc,2024.2.4,MacIntel,62.89308176,663e4706e326d67a17612551,687ed1b7e638a4cbf2f02089,689b825b152460611ae12d60,,,,,,,,,,,,,12,1,,./stim/wavs/cuban_match_interrogative-total-yn_Marta-abre-el-regalo.wav,,,,,,,,,,,,,,,,,,,,,,282.0478,284.0539,0,0,1.4851,,0,32,32,11,1,1,cuban,,,,,,,,,,,,,,,,,,,,,,,,,,,,,,,,,,,,,,,,,,,,,,,,,,,,,,,,
,,,,,,,,,663e4706e326d67a17612551,Spain,younger than 13,"yes, I am fluent in another language",no,2025-08-12_14h06.06.983,empathy_intonation_perc,2024.2.4,MacIntel,62.89308176,663e4706e326d67a17612551,687ed1b7e638a4cbf2f02089,689b825b152460611ae12d60,,,,,,,,,,,,,88,0,,./stim/wavs/puertorican_mismatch_declarative-broad-focus_La-nina-lava-el-plato.wav,,,,,,,,,,,,,,,,,,,,,,284.0551,286.778,0,1,2.2056,,0,33,33,87,1,0,puertorican,,,,,,,,,,,,,,,,,,,,,,,,,,,,,,,,,,,,,,,,,,,,,,,,,,,,,,,,
,,,,,,,,,663e4706e326d67a17612551,Spain,younger than 13,"yes, I am fluent in another language",no,2025-08-12_14h06.06.983,empathy_intonation_perc,2024.2.4,MacIntel,62.89308176,663e4706e326d67a17612551,687ed1b7e638a4cbf2f02089,689b825b152460611ae12d60,,,,,,,,,,,,,30,1,,./stim/wavs/cuban_mismatch_interrogative-total-yn_El-hombre-mira-la-luna.wav,,,,,,,,,,,,,,,,,,,,,,286.7789,288.7997,1,1,1.5106,,0,34,34,29,1,1,cuban,,,,,,,,,,,,,,,,,,,,,,,,,,,,,,,,,,,,,,,,,,,,,,,,,,,,,,,,
,,,,,,,,,663e4706e326d67a17612551,Spain,younger than 13,"yes, I am fluent in another language",no,2025-08-12_14h06.06.983,empathy_intonation_perc,2024.2.4,MacIntel,62.89308176,663e4706e326d67a17612551,687ed1b7e638a4cbf2f02089,689b825b152460611ae12d60,,,,,,,,,,,,,13,1,,./stim/wavs/mexican_match_interrogative-total-yn_Ana-lleva-el-abrigo.wav,,,,,,,,,,,,,,,,,,,,,,288.8001,290.8385,1,1,1.5191,,0,35,35,12,1,0,mexican,,,,,,,,,,,,,,,,,,,,,,,,,,,,,,,,,,,,,,,,,,,,,,,,,,,,,,,,
,,,,,,,,,663e4706e326d67a17612551,Spain,younger than 13,"yes, I am fluent in another language",no,2025-08-12_14h06.06.983,empathy_intonation_perc,2024.2.4,MacIntel,62.89308176,663e4706e326d67a17612551,687ed1b7e638a4cbf2f02089,689b825b152460611ae12d60,,,,,,,,,,,,,57,0,,./stim/wavs/mexican_match_declarative-broad-focus_Ana-lleva-el-abrigo.wav,,,,,,,,,,,,,,,,,,,,,,290.8392,292.7924,0,1,1.443,,0,36,36,56,1,0,mexican,,,,,,,,,,,,,,,,,,,,,,,,,,,,,,,,,,,,,,,,,,,,,,,,,,,,,,,,
,,,,,,,,,663e4706e326d67a17612551,Spain,younger than 13,"yes, I am fluent in another language",no,2025-08-12_14h06.06.983,empathy_intonation_perc,2024.2.4,MacIntel,62.89308176,663e4706e326d67a17612551,687ed1b7e638a4cbf2f02089,689b825b152460611ae12d60,,,,,,,,,,,,,56,0,,./stim/wavs/cuban_match_declarative-broad-focus_Marta-abre-el-regalo.wav,,,,,,,,,,,,,,,,,,,,,,292.7931,294.8492,0,1,1.5379,,0,37,37,55,1,0,cuban,,,,,,,,,,,,,,,,,,,,,,,,,,,,,,,,,,,,,,,,,,,,,,,,,,,,,,,,
,,,,,,,,,663e4706e326d67a17612551,Spain,younger than 13,"yes, I am fluent in another language",no,2025-08-12_14h06.06.983,empathy_intonation_perc,2024.2.4,MacIntel,62.89308176,663e4706e326d67a17612551,687ed1b7e638a4cbf2f02089,689b825b152460611ae12d60,,,,,,,,,,,,,61,0,,./stim/wavs/mexican_match_declarative-broad-focus_Mariano-habla-del-tiempo.wav,,,,,,,,,,,,,,,,,,,,,,294.8499,296.7879,0,1,1.4267,,0,38,38,60,1,0,mexican,,,,,,,,,,,,,,,,,,,,,,,,,,,,,,,,,,,,,,,,,,,,,,,,,,,,,,,,
,,,,,,,,,663e4706e326d67a17612551,Spain,younger than 13,"yes, I am fluent in another language",no,2025-08-12_14h06.06.983,empathy_intonation_perc,2024.2.4,MacIntel,62.89308176,663e4706e326d67a17612551,687ed1b7e638a4cbf2f02089,689b825b152460611ae12d60,,,,,,,,,,,,,76,0,,./stim/wavs/cuban_mismatch_declarative-broad-focus_La-nina-lava-el-plato.wav,,,,,,,,,,,,,,,,,,,,,,296.7888,298.7261,0,1,1.4038,,0,39,39,75,1,0,cuban,,,,,,,,,,,,,,,,,,,,,,,,,,,,,,,,,,,,,,,,,,,,,,,,,,,,,,,,
,,,,,,,,,663e4706e326d67a17612551,Spain,younger than 13,"yes, I am fluent in another language",no,2025-08-12_14h06.06.983,empathy_intonation_perc,2024.2.4,MacIntel,62.89308176,663e4706e326d67a17612551,687ed1b7e638a4cbf2f02089,689b825b152460611ae12d60,,,,,,,,,,,,,5,1,,./stim/wavs/castilian_match_interrogative-total-yn_Mariano-habla-del-tiempo.wav,,,,,,,,,,,,,,,,,,,,,,298.7266,301.0483,1,1,1.8128,,0,40,40,4,1,0,castilian,,,,,,,,,,,,,,,,,,,,,,,,,,,,,,,,,,,,,,,,,,,,,,,,,,,,,,,,
,,,,,,,,,663e4706e326d67a17612551,Spain,younger than 13,"yes, I am fluent in another language",no,2025-08-12_14h06.06.983,empathy_intonation_perc,2024.2.4,MacIntel,62.89308176,663e4706e326d67a17612551,687ed1b7e638a4cbf2f02089,689b825b152460611ae12d60,,,,,,,,,,,,,38,1,,./stim/wavs/mexican_mismatch_interrogative-total-yn_Mi-novio-viene-del-lago.wav,,,,,,,,,,,,,,,,,,,,,,301.049,303.1045,1,1,1.5361,,0,41,41,37,1,0,mexican,,,,,,,,,,,,,,,,,,,,,,,,,,,,,,,,,,,,,,,,,,,,,,,,,,,,,,,,
,,,,,,,,,663e4706e326d67a17612551,Spain,younger than 13,"yes, I am fluent in another language",no,2025-08-12_14h06.06.983,empathy_intonation_perc,2024.2.4,MacIntel,62.89308176,663e4706e326d67a17612551,687ed1b7e638a4cbf2f02089,689b825b152460611ae12d60,,,,,,,,,,,,,66,0,,./stim/wavs/puertorican_match_declarative-broad-focus_Emilio-ama-la-marcha.wav,,,,,,,,,,,,,,,,,,,,,,303.1049,305.0756,0,1,1.463,,0,42,42,65,1,0,puertorican,,,,,,,,,,,,,,,,,,,,,,,,,,,,,,,,,,,,,,,,,,,,,,,,,,,,,,,,
,,,,,,,,,663e4706e326d67a17612551,Spain,younger than 13,"yes, I am fluent in another language",no,2025-08-12_14h06.06.983,empathy_intonation_perc,2024.2.4,MacIntel,62.89308176,663e4706e326d67a17612551,687ed1b7e638a4cbf2f02089,689b825b152460611ae12d60,,,,,,,,,,,,,70,0,,./stim/wavs/castilian_mismatch_declarative-broad-focus_La-maestra-vive-en-Paris.wav,,,,,,,,,,,,,,,,,,,,,,305.0761,307.3163,0,1,1.7219,,0,43,43,69,1,0,castilian,,,,,,,,,,,,,,,,,,,,,,,,,,,,,,,,,,,,,,,,,,,,,,,,,,,,,,,,
,,,,,,,,,663e4706e326d67a17612551,Spain,younger than 13,"yes, I am fluent in another language",no,2025-08-12_14h06.06.983,empathy_intonation_perc,2024.2.4,MacIntel,62.89308176,663e4706e326d67a17612551,687ed1b7e638a4cbf2f02089,689b825b152460611ae12d60,,,,,,,,,,,,,41,1,,./stim/wavs/puertorican_mismatch_interrogative-total-yn_El-nino-oye-el-rio.wav,,,,,,,,,,,,,,,,,,,,,,307.3169,309.7382,0,0,1.9123,,0,44,44,40,1,1,puertorican,,,,,,,,,,,,,,,,,,,,,,,,,,,,,,,,,,,,,,,,,,,,,,,,,,,,,,,,
,,,,,,,,,663e4706e326d67a17612551,Spain,younger than 13,"yes, I am fluent in another language",no,2025-08-12_14h06.06.983,empathy_intonation_perc,2024.2.4,MacIntel,62.89308176,663e4706e326d67a17612551,687ed1b7e638a4cbf2f02089,689b825b152460611ae12d60,,,,,,,,,,,,,18,1,,./stim/wavs/mexican_match_interrogative-total-yn_Marta-abre-el-regalo.wav,,,,,,,,,,,,,,,,,,,,,,309.7387,312.0106,1,1,1.7597,,0,45,45,17,1,0,mexican,,,,,,,,,,,,,,,,,,,,,,,,,,,,,,,,,,,,,,,,,,,,,,,,,,,,,,,,
,,,,,,,,,663e4706e326d67a17612551,Spain,younger than 13,"yes, I am fluent in another language",no,2025-08-12_14h06.06.983,empathy_intonation_perc,2024.2.4,MacIntel,62.89308176,663e4706e326d67a17612551,687ed1b7e638a4cbf2f02089,689b825b152460611ae12d60,,,,,,,,,,,,,42,1,,./stim/wavs/puertorican_mismatch_interrogative-total-yn_La-maestra-vive-en-Paris.wav,,,,,,,,,,,,,,,,,,,,,,312.0113,314.2844,0,0,1.7643,,0,46,46,41,1,1,puertorican,,,,,,,,,,,,,,,,,,,,,,,,,,,,,,,,,,,,,,,,,,,,,,,,,,,,,,,,
,,,,,,,,,663e4706e326d67a17612551,Spain,younger than 13,"yes, I am fluent in another language",no,2025-08-12_14h06.06.983,empathy_intonation_perc,2024.2.4,MacIntel,62.89308176,663e4706e326d67a17612551,687ed1b7e638a4cbf2f02089,689b825b152460611ae12d60,,,,,,,,,,,,,45,0,,./stim/wavs/castilian_match_declarative-broad-focus_David-leia-el-libro.wav,,,,,,,,,,,,,,,,,,,,,,314.2849,316.4569,0,1,1.6618,,0,47,47,44,1,0,castilian,,,,,,,,,,,,,,,,,,,,,,,,,,,,,,,,,,,,,,,,,,,,,,,,,,,,,,,,
,,,,,,,,,663e4706e326d67a17612551,Spain,younger than 13,"yes, I am fluent in another language",no,2025-08-12_14h06.06.983,empathy_intonation_perc,2024.2.4,MacIntel,62.89308176,663e4706e326d67a17612551,687ed1b7e638a4cbf2f02089,689b825b152460611ae12d60,,,,,,,,,,,,,63,0,,./stim/wavs/puertorican_match_declarative-broad-focus_Ana-lleva-el-abrigo.wav,,,,,,,,,,,,,,,,,,,,,,316.4573,318.2106,0,1,1.2448,,0,48,48,62,1,0,puertorican,,,,,,,,,,,,,,,,,,,,,,,,,,,,,,,,,,,,,,,,,,,,,,,,,,,,,,,,
,,,,,,,,,663e4706e326d67a17612551,Spain,younger than 13,"yes, I am fluent in another language",no,2025-08-12_14h06.06.983,empathy_intonation_perc,2024.2.4,MacIntel,62.89308176,663e4706e326d67a17612551,687ed1b7e638a4cbf2f02089,689b825b152460611ae12d60,,,,,,,,,,,,,19,1,,./stim/wavs/puertorican_match_interrogative-total-yn_Ana-lleva-el-abrigo.wav,,,,,,,,,,,,,,,,,,,,,,318.2117,320.1493,1,1,1.4276,,0,49,49,18,1,1,puertorican,,,,,,,,,,,,,,,,,,,,,,,,,,,,,,,,,,,,,,,,,,,,,,,,,,,,,,,,
,,,,,,,,,663e4706e326d67a17612551,Spain,younger than 13,"yes, I am fluent in another language",no,2025-08-12_14h06.06.983,empathy_intonation_perc,2024.2.4,MacIntel,62.89308176,663e4706e326d67a17612551,687ed1b7e638a4cbf2f02089,689b825b152460611ae12d60,,,,,,,,,,,,,80,0,,./stim/wavs/mexican_mismatch_declarative-broad-focus_El-hombre-mira-la-luna.wav,,,,,,,,,,,,,,,,,,,,,,320.1497,322.0889,0,1,1.4238,,0,50,50,79,1,0,mexican,,,,,,,,,,,,,,,,,,,,,,,,,,,,,,,,,,,,,,,,,,,,,,,,,,,,,,,,
,,,,,,,,,663e4706e326d67a17612551,Spain,younger than 13,"yes, I am fluent in another language",no,2025-08-12_14h06.06.983,empathy_intonation_perc,2024.2.4,MacIntel,62.89308176,663e4706e326d67a17612551,687ed1b7e638a4cbf2f02089,689b825b152460611ae12d60,,,,,,,,,,,,,68,0,,./stim/wavs/puertorican_match_declarative-broad-focus_Maria-bebe-el-vino.wav,,,,,,,,,,,,,,,,,,,,,,322.0896,324.1601,0,1,1.5632,,0,51,51,67,1,0,puertorican,,,,,,,,,,,,,,,,,,,,,,,,,,,,,,,,,,,,,,,,,,,,,,,,,,,,,,,,
,,,,,,,,,663e4706e326d67a17612551,Spain,younger than 13,"yes, I am fluent in another language",no,2025-08-12_14h06.06.983,empathy_intonation_perc,2024.2.4,MacIntel,62.89308176,663e4706e326d67a17612551,687ed1b7e638a4cbf2f02089,689b825b152460611ae12d60,,,,,,,,,,,,,54,0,,./stim/wavs/cuban_match_declarative-broad-focus_Maria-bebe-el-vino.wav,,,,,,,,,,,,,,,,,,,,,,324.1608,326.1651,0,1,1.4885,,0,52,52,53,1,0,cuban,,,,,,,,,,,,,,,,,,,,,,,,,,,,,,,,,,,,,,,,,,,,,,,,,,,,,,,,
,,,,,,,,,663e4706e326d67a17612551,Spain,younger than 13,"yes, I am fluent in another language",no,2025-08-12_14h06.06.983,empathy_intonation_perc,2024.2.4,MacIntel,62.89308176,663e4706e326d67a17612551,687ed1b7e638a4cbf2f02089,689b825b152460611ae12d60,,,,,,,,,,,,,20,1,,./stim/wavs/puertorican_match_interrogative-total-yn_Daniel-iba-a-Bolivia.wav,,,,,,,,,,,,,,,,,,,,,,326.1655,328.3547,1,1,1.6748,,0,53,53,19,1,1,puertorican,,,,,,,,,,,,,,,,,,,,,,,,,,,,,,,,,,,,,,,,,,,,,,,,,,,,,,,,
,,,,,,,,,663e4706e326d67a17612551,Spain,younger than 13,"yes, I am fluent in another language",no,2025-08-12_14h06.06.983,empathy_intonation_perc,2024.2.4,MacIntel,62.89308176,663e4706e326d67a17612551,687ed1b7e638a4cbf2f02089,689b825b152460611ae12d60,,,,,,,,,,,,,33,1,,./stim/wavs/cuban_mismatch_interrogative-total-yn_Mi-novio-viene-del-lago.wav,,,,,,,,,,,,,,,,,,,,,,328.3552,330.9112,1,1,2.0413,,0,54,54,32,1,1,cuban,,,,,,,,,,,,,,,,,,,,,,,,,,,,,,,,,,,,,,,,,,,,,,,,,,,,,,,,
,,,,,,,,,663e4706e326d67a17612551,Spain,younger than 13,"yes, I am fluent in another language",no,2025-08-12_14h06.06.983,empathy_intonation_perc,2024.2.4,MacIntel,62.89308176,663e4706e326d67a17612551,687ed1b7e638a4cbf2f02089,689b825b152460611ae12d60,,,,,,,,,,,,,27,1,,./stim/wavs/castilian_mismatch_interrogative-total-yn_Mi-madre-come-la-fruta.wav,,,,,,,,,,,,,,,,,,,,,,330.9118,333.3183,1,1,1.8897,,0,55,55,26,1,0,castilian,,,,,,,,,,,,,,,,,,,,,,,,,,,,,,,,,,,,,,,,,,,,,,,,,,,,,,,,
,,,,,,,,,663e4706e326d67a17612551,Spain,younger than 13,"yes, I am fluent in another language",no,2025-08-12_14h06.06.983,empathy_intonation_perc,2024.2.4,MacIntel,62.89308176,663e4706e326d67a17612551,687ed1b7e638a4cbf2f02089,689b825b152460611ae12d60,,,,,,,,,,,,,23,1,,./stim/wavs/puertorican_match_interrogative-total-yn_Manuela-vende-el-carro.wav,,,,,,,,,,,,,,,,,,,,,,333.3188,335.8583,1,1,2.0333,,0,56,56,22,1,1,puertorican,,,,,,,,,,,,,,,,,,,,,,,,,,,,,,,,,,,,,,,,,,,,,,,,,,,,,,,,
,,,,,,,,,663e4706e326d67a17612551,Spain,younger than 13,"yes, I am fluent in another language",no,2025-08-12_14h06.06.983,empathy_intonation_perc,2024.2.4,MacIntel,62.89308176,663e4706e326d67a17612551,687ed1b7e638a4cbf2f02089,689b825b152460611ae12d60,,,,,,,,,,,,,46,0,,./stim/wavs/castilian_match_declarative-broad-focus_Emilio-ama-la-marcha.wav,,,,,,,,,,,,,,,,,,,,,,335.8589,338.147,0,1,1.7804,,0,57,57,45,1,0,castilian,,,,,,,,,,,,,,,,,,,,,,,,,,,,,,,,,,,,,,,,,,,,,,,,,,,,,,,,
,,,,,,,,,663e4706e326d67a17612551,Spain,younger than 13,"yes, I am fluent in another language",no,2025-08-12_14h06.06.983,empathy_intonation_perc,2024.2.4,MacIntel,62.89308176,663e4706e326d67a17612551,687ed1b7e638a4cbf2f02089,689b825b152460611ae12d60,,,,,,,,,,,,,35,1,,./stim/wavs/mexican_mismatch_interrogative-total-yn_El-hombre-mira-la-luna.wav,,,,,,,,,,,,,,,,,,,,,,338.1476,339.9868,1,1,1.3293,,0,58,58,34,1,0,mexican,,,,,,,,,,,,,,,,,,,,,,,,,,,,,,,,,,,,,,,,,,,,,,,,,,,,,,,,
,,,,,,,,,663e4706e326d67a17612551,Spain,younger than 13,"yes, I am fluent in another language",no,2025-08-12_14h06.06.983,empathy_intonation_perc,2024.2.4,MacIntel,62.89308176,663e4706e326d67a17612551,687ed1b7e638a4cbf2f02089,689b825b152460611ae12d60,,,,,,,,,,,,,73,0,,./stim/wavs/castilian_mismatch_declarative-broad-focus_Mi-tia-odia-la-lluvia.wav,,,,,,,,,,,,,,,,,,,,,,339.9874,342.1244,0,1,1.6266,,0,59,59,72,1,0,castilian,,,,,,,,,,,,,,,,,,,,,,,,,,,,,,,,,,,,,,,,,,,,,,,,,,,,,,,,
,,,,,,,,,663e4706e326d67a17612551,Spain,younger than 13,"yes, I am fluent in another language",no,2025-08-12_14h06.06.983,empathy_intonation_perc,2024.2.4,MacIntel,62.89308176,663e4706e326d67a17612551,687ed1b7e638a4cbf2f02089,689b825b152460611ae12d60,,,,,,,,,,,,,14,1,,./stim/wavs/mexican_match_interrogative-total-yn_Daniel-iba-a-Bolivia.wav,,,,,,,,,,,,,,,,,,,,,,342.1248,344.2134,1,1,1.578,,0,60,60,13,1,0,mexican,,,,,,,,,,,,,,,,,,,,,,,,,,,,,,,,,,,,,,,,,,,,,,,,,,,,,,,,
,,,,,,,,,663e4706e326d67a17612551,Spain,younger than 13,"yes, I am fluent in another language",no,2025-08-12_14h06.06.983,empathy_intonation_perc,2024.2.4,MacIntel,62.89308176,663e4706e326d67a17612551,687ed1b7e638a4cbf2f02089,689b825b152460611ae12d60,,,,,,,,,,,,,8,1,,./stim/wavs/cuban_match_interrogative-total-yn_Daniel-iba-a-Bolivia.wav,,,,,,,,,,,,,,,,,,,,,,344.2141,346.3864,0,0,1.6553,,0,61,61,7,1,1,cuban,,,,,,,,,,,,,,,,,,,,,,,,,,,,,,,,,,,,,,,,,,,,,,,,,,,,,,,,
,,,,,,,,,663e4706e326d67a17612551,Spain,younger than 13,"yes, I am fluent in another language",no,2025-08-12_14h06.06.983,empathy_intonation_perc,2024.2.4,MacIntel,62.89308176,663e4706e326d67a17612551,687ed1b7e638a4cbf2f02089,689b825b152460611ae12d60,,,,,,,,,,,,,4,1,,./stim/wavs/castilian_match_interrogative-total-yn_Maria-bebe-el-vino.wav,,,,,,,,,,,,,,,,,,,,,,346.3871,348.458,1,1,1.5616,,0,62,62,3,1,0,castilian,,,,,,,,,,,,,,,,,,,,,,,,,,,,,,,,,,,,,,,,,,,,,,,,,,,,,,,,
,,,,,,,,,663e4706e326d67a17612551,Spain,younger than 13,"yes, I am fluent in another language",no,2025-08-12_14h06.06.983,empathy_intonation_perc,2024.2.4,MacIntel,62.89308176,663e4706e326d67a17612551,687ed1b7e638a4cbf2f02089,689b825b152460611ae12d60,,,,,,,,,,,,,51,0,,./stim/wavs/cuban_match_declarative-broad-focus_Ana-lleva-el-abrigo.wav,,,,,,,,,,,,,,,,,,,,,,348.4586,350.5136,0,1,1.5426,,0,63,63,50,1,0,cuban,,,,,,,,,,,,,,,,,,,,,,,,,,,,,,,,,,,,,,,,,,,,,,,,,,,,,,,,
,,,,,,,,,663e4706e326d67a17612551,Spain,younger than 13,"yes, I am fluent in another language",no,2025-08-12_14h06.06.983,empathy_intonation_perc,2024.2.4,MacIntel,62.89308176,663e4706e326d67a17612551,687ed1b7e638a4cbf2f02089,689b825b152460611ae12d60,,,,,,,,,,,,,26,1,,./stim/wavs/castilian_mismatch_interrogative-total-yn_La-nina-lava-el-plato.wav,,,,,,,,,,,,,,,,,,,,,,350.5144,352.57,1,1,1.5369,,0,64,64,25,1,0,castilian,,,,,,,,,,,,,,,,,,,,,,,,,,,,,,,,,,,,,,,,,,,,,,,,,,,,,,,,
,,,,,,,,,663e4706e326d67a17612551,Spain,younger than 13,"yes, I am fluent in another language",no,2025-08-12_14h06.06.983,empathy_intonation_perc,2024.2.4,MacIntel,62.89308176,663e4706e326d67a17612551,687ed1b7e638a4cbf2f02089,689b825b152460611ae12d60,,,,,,,,,,,,,47,0,,./stim/wavs/castilian_match_declarative-broad-focus_Manuela-vende-el-carro.wav,,,,,,,,,,,,,,,,,,,,,,352.5708,354.9099,0,1,1.8241,,0,65,65,46,1,0,castilian,,,,,,,,,,,,,,,,,,,,,,,,,,,,,,,,,,,,,,,,,,,,,,,,,,,,,,,,
,,,,,,,,,663e4706e326d67a17612551,Spain,younger than 13,"yes, I am fluent in another language",no,2025-08-12_14h06.06.983,empathy_intonation_perc,2024.2.4,MacIntel,62.89308176,663e4706e326d67a17612551,687ed1b7e638a4cbf2f02089,689b825b152460611ae12d60,,,,,,,,,,,,,50,0,,./stim/wavs/castilian_match_declarative-broad-focus_Marta-abre-el-regalo.wav,,,,,,,,,,,,,,,,,,,,,,354.911,357.032,0,1,1.5867,,0,66,66,49,1,0,castilian,,,,,,,,,,,,,,,,,,,,,,,,,,,,,,,,,,,,,,,,,,,,,,,,,,,,,,,,
,,,,,,,,,663e4706e326d67a17612551,Spain,younger than 13,"yes, I am fluent in another language",no,2025-08-12_14h06.06.983,empathy_intonation_perc,2024.2.4,MacIntel,62.89308176,663e4706e326d67a17612551,687ed1b7e638a4cbf2f02089,689b825b152460611ae12d60,,,,,,,,,,,,,44,1,,./stim/wavs/puertorican_mismatch_interrogative-total-yn_Mi-madre-come-la-fruta.wav,,,,,,,,,,,,,,,,,,,,,,357.0332,359.0039,0,0,1.4545,,0,67,67,43,1,1,puertorican,,,,,,,,,,,,,,,,,,,,,,,,,,,,,,,,,,,,,,,,,,,,,,,,,,,,,,,,
,,,,,,,,,663e4706e326d67a17612551,Spain,younger than 13,"yes, I am fluent in another language",no,2025-08-12_14h06.06.983,empathy_intonation_perc,2024.2.4,MacIntel,62.89308176,663e4706e326d67a17612551,687ed1b7e638a4cbf2f02089,689b825b152460611ae12d60,,,,,,,,,,,,,3,1,,./stim/wavs/castilian_match_interrogative-total-yn_Manuela-vende-el-carro.wav,,,,,,,,,,,,,,,,,,,,,,359.0046,361.1431,1,1,1.6279,,0,68,68,2,1,0,castilian,,,,,,,,,,,,,,,,,,,,,,,,,,,,,,,,,,,,,,,,,,,,,,,,,,,,,,,,
,,,,,,,,,663e4706e326d67a17612551,Spain,younger than 13,"yes, I am fluent in another language",no,2025-08-12_14h06.06.983,empathy_intonation_perc,2024.2.4,MacIntel,62.89308176,663e4706e326d67a17612551,687ed1b7e638a4cbf2f02089,689b825b152460611ae12d60,,,,,,,,,,,,,53,0,,./stim/wavs/cuban_match_declarative-broad-focus_Manuela-vende-el-carro.wav,,,,,,,,,,,,,,,,,,,,,,361.1435,363.3647,0,1,1.7031,,0,69,69,52,1,0,cuban,,,,,,,,,,,,,,,,,,,,,,,,,,,,,,,,,,,,,,,,,,,,,,,,,,,,,,,,
,,,,,,,,,663e4706e326d67a17612551,Spain,younger than 13,"yes, I am fluent in another language",no,2025-08-12_14h06.06.983,empathy_intonation_perc,2024.2.4,MacIntel,62.89308176,663e4706e326d67a17612551,687ed1b7e638a4cbf2f02089,689b825b152460611ae12d60,,,,,,,,,,,,,65,0,,./stim/wavs/puertorican_match_declarative-broad-focus_David-leia-el-libro.wav,,,,,,,,,,,,,,,,,,,,,,363.3654,365.9723,0,1,2.0959,,0,70,70,64,1,0,puertorican,,,,,,,,,,,,,,,,,,,,,,,,,,,,,,,,,,,,,,,,,,,,,,,,,,,,,,,,
,,,,,,,,,663e4706e326d67a17612551,Spain,younger than 13,"yes, I am fluent in another language",no,2025-08-12_14h06.06.983,empathy_intonation_perc,2024.2.4,MacIntel,62.89308176,663e4706e326d67a17612551,687ed1b7e638a4cbf2f02089,689b825b152460611ae12d60,,,,,,,,,,,,,79,0,,./stim/wavs/mexican_mismatch_declarative-broad-focus_El-bebe-comia-muy-bien.wav,,,,,,,,,,,,,,,,,,,,,,365.9729,368.9638,1,0,2.476,,0,71,71,78,1,0,mexican,,,,,,,,,,,,,,,,,,,,,,,,,,,,,,,,,,,,,,,,,,,,,,,,,,,,,,,,
,,,,,,,,,663e4706e326d67a17612551,Spain,younger than 13,"yes, I am fluent in another language",no,2025-08-12_14h06.06.983,empathy_intonation_perc,2024.2.4,MacIntel,62.89308176,663e4706e326d67a17612551,687ed1b7e638a4cbf2f02089,689b825b152460611ae12d60,,,,,,,,,,,,,39,1,,./stim/wavs/mexican_mismatch_interrogative-total-yn_Mi-tia-odia-la-lluvia.wav,,,,,,,,,,,,,,,,,,,,,,368.9646,373.3078,1,1,3.8165,0.0001,0,72,72,38,1,0,mexican,,,,,,,,,,,,,,,,,,,,,,,,,,,,,,,,,,,,,,,,,,,,,,,,,,,,,,,,
,,,,,,,,,663e4706e326d67a17612551,Spain,younger than 13,"yes, I am fluent in another language",no,2025-08-12_14h06.06.983,empathy_intonation_perc,2024.2.4,MacIntel,62.89308176,663e4706e326d67a17612551,687ed1b7e638a4cbf2f02089,689b825b152460611ae12d60,,,,,,,,,,,,,9,1,,./stim/wavs/cuban_match_interrogative-total-yn_Manuela-vende-el-carro.wav,,,,,,,,,,,,,,,,,,,,,,373.3083,376.182,1,1,2.3654,,0,73,73,8,1,1,cuban,,,,,,,,,,,,,,,,,,,,,,,,,,,,,,,,,,,,,,,,,,,,,,,,,,,,,,,,
,,,,,,,,,663e4706e326d67a17612551,Spain,younger than 13,"yes, I am fluent in another language",no,2025-08-12_14h06.06.983,empathy_intonation_perc,2024.2.4,MacIntel,62.89308176,663e4706e326d67a17612551,687ed1b7e638a4cbf2f02089,689b825b152460611ae12d60,,,,,,,,,,,,,82,0,,./stim/wavs/mexican_mismatch_declarative-broad-focus_Mi-novio-viene-del-lago.wav,,,,,,,,,,,,,,,,,,,,,,376.1825,378.2209,0,1,1.5207,,0,74,74,81,1,0,mexican,,,,,,,,,,,,,,,,,,,,,,,,,,,,,,,,,,,,,,,,,,,,,,,,,,,,,,,,
,,,,,,,,,663e4706e326d67a17612551,Spain,younger than 13,"yes, I am fluent in another language",no,2025-08-12_14h06.06.983,empathy_intonation_perc,2024.2.4,MacIntel,62.89308176,663e4706e326d67a17612551,687ed1b7e638a4cbf2f02089,689b825b152460611ae12d60,,,,,,,,,,,,,52,0,,./stim/wavs/cuban_match_declarative-broad-focus_Daniel-iba-a-Bolivia.wav,,,,,,,,,,,,,,,,,,,,,,378.2218,380.1439,0,1,1.4037,,0,75,75,51,1,0,cuban,,,,,,,,,,,,,,,,,,,,,,,,,,,,,,,,,,,,,,,,,,,,,,,,,,,,,,,,
,,,,,,,,,663e4706e326d67a17612551,Spain,younger than 13,"yes, I am fluent in another language",no,2025-08-12_14h06.06.983,empathy_intonation_perc,2024.2.4,MacIntel,62.89308176,663e4706e326d67a17612551,687ed1b7e638a4cbf2f02089,689b825b152460611ae12d60,,,,,,,,,,,,,77,0,,./stim/wavs/cuban_mismatch_declarative-broad-focus_Mi-novio-viene-del-lago.wav,,,,,,,,,,,,,,,,,,,,,,380.1447,382.2158,0,1,1.5643,,0,76,76,76,1,0,cuban,,,,,,,,,,,,,,,,,,,,,,,,,,,,,,,,,,,,,,,,,,,,,,,,,,,,,,,,
,,,,,,,,,663e4706e326d67a17612551,Spain,younger than 13,"yes, I am fluent in another language",no,2025-08-12_14h06.06.983,empathy_intonation_perc,2024.2.4,MacIntel,62.89308176,663e4706e326d67a17612551,687ed1b7e638a4cbf2f02089,689b825b152460611ae12d60,,,,,,,,,,,,,2,1,,./stim/wavs/castilian_match_interrogative-total-yn_Emilio-ama-la-marcha.wav,,,,,,,,,,,,,,,,,,,,,,382.2164,384.2876,1,1,1.5626,,0,77,77,1,1,0,castilian,,,,,,,,,,,,,,,,,,,,,,,,,,,,,,,,,,,,,,,,,,,,,,,,,,,,,,,,
,,,,,,,,,663e4706e326d67a17612551,Spain,younger than 13,"yes, I am fluent in another language",no,2025-08-12_14h06.06.983,empathy_intonation_perc,2024.2.4,MacIntel,62.89308176,663e4706e326d67a17612551,687ed1b7e638a4cbf2f02089,689b825b152460611ae12d60,,,,,,,,,,,,,24,1,,./stim/wavs/puertorican_match_interrogative-total-yn_Maria-bebe-el-vino.wav,,,,,,,,,,,,,,,,,,,,,,384.2883,386.3259,1,1,1.5269,,0,78,78,23,1,1,puertorican,,,,,,,,,,,,,,,,,,,,,,,,,,,,,,,,,,,,,,,,,,,,,,,,,,,,,,,,
,,,,,,,,,663e4706e326d67a17612551,Spain,younger than 13,"yes, I am fluent in another language",no,2025-08-12_14h06.06.983,empathy_intonation_perc,2024.2.4,MacIntel,62.89308176,663e4706e326d67a17612551,687ed1b7e638a4cbf2f02089,689b825b152460611ae12d60,,,,,,,,,,,,,1,1,,./stim/wavs/castilian_match_interrogative-total-yn_David-leia-el-libro.wav,,,,,,,,,,,,,,,,,,,,,,386.3265,388.5164,1,1,1.6725,,0,79,79,0,1,0,castilian,,,,,,,,,,,,,,,,,,,,,,,,,,,,,,,,,,,,,,,,,,,,,,,,,,,,,,,,
,,,,,,,,,663e4706e326d67a17612551,Spain,younger than 13,"yes, I am fluent in another language",no,2025-08-12_14h06.06.983,empathy_intonation_perc,2024.2.4,MacIntel,62.89308176,663e4706e326d67a17612551,687ed1b7e638a4cbf2f02089,689b825b152460611ae12d60,,,,,,,,,,,,,78,0,,./stim/wavs/cuban_mismatch_declarative-broad-focus_Mi-tia-odia-la-lluvia.wav,,,,,,,,,,,,,,,,,,,,,,388.5169,390.905,0,1,1.8798,,0,80,80,77,1,0,cuban,,,,,,,,,,,,,,,,,,,,,,,,,,,,,,,,,,,,,,,,,,,,,,,,,,,,,,,,
,,,,,,,,,663e4706e326d67a17612551,Spain,younger than 13,"yes, I am fluent in another language",no,2025-08-12_14h06.06.983,empathy_intonation_perc,2024.2.4,MacIntel,62.89308176,663e4706e326d67a17612551,687ed1b7e638a4cbf2f02089,689b825b152460611ae12d60,,,,,,,,,,,,,17,1,,./stim/wavs/mexican_match_interrogative-total-yn_Mariano-habla-del-tiempo.wav,,,,,,,,,,,,,,,,,,,,,,390.9059,392.9943,1,1,1.5799,,0,81,81,16,1,0,mexican,,,,,,,,,,,,,,,,,,,,,,,,,,,,,,,,,,,,,,,,,,,,,,,,,,,,,,,,
,,,,,,,,,663e4706e326d67a17612551,Spain,younger than 13,"yes, I am fluent in another language",no,2025-08-12_14h06.06.983,empathy_intonation_perc,2024.2.4,MacIntel,62.89308176,663e4706e326d67a17612551,687ed1b7e638a4cbf2f02089,689b825b152460611ae12d60,,,,,,,,,,,,,21,1,,./stim/wavs/puertorican_match_interrogative-total-yn_David-leia-el-libro.wav,,,,,,,,,,,,,,,,,,,,,,392.9949,395.4669,1,1,1.9641,,0,82,82,20,1,1,puertorican,,,,,,,,,,,,,,,,,,,,,,,,,,,,,,,,,,,,,,,,,,,,,,,,,,,,,,,,
,,,,,,,,,663e4706e326d67a17612551,Spain,younger than 13,"yes, I am fluent in another language",no,2025-08-12_14h06.06.983,empathy_intonation_perc,2024.2.4,MacIntel,62.89308176,663e4706e326d67a17612551,687ed1b7e638a4cbf2f02089,689b825b152460611ae12d60,,,,,,,,,,,,,37,1,,./stim/wavs/mexican_mismatch_interrogative-total-yn_La-maestra-vive-en-Paris.wav,,,,,,,,,,,,,,,,,,,,,,395.4675,397.7231,1,1,1.744,,0,83,83,36,1,0,mexican,,,,,,,,,,,,,,,,,,,,,,,,,,,,,,,,,,,,,,,,,,,,,,,,,,,,,,,,
,,,,,,,,,663e4706e326d67a17612551,Spain,younger than 13,"yes, I am fluent in another language",no,2025-08-12_14h06.06.983,empathy_intonation_perc,2024.2.4,MacIntel,62.89308176,663e4706e326d67a17612551,687ed1b7e638a4cbf2f02089,689b825b152460611ae12d60,,,,,,,,,,,,,84,0,,./stim/wavs/puertorican_mismatch_declarative-broad-focus_El-bebe-comia-muy-bien.wav,,,,,,,,,,,,,,,,,,,,,,397.7235,399.678,0,1,1.4484,,0,84,84,83,1,0,puertorican,,,,,,,,,,,,,,,,,,,,,,,,,,,,,,,,,,,,,,,,,,,,,,,,,,,,,,,,
,,,,,,,,,663e4706e326d67a17612551,Spain,younger than 13,"yes, I am fluent in another language",no,2025-08-12_14h06.06.983,empathy_intonation_perc,2024.2.4,MacIntel,62.89308176,663e4706e326d67a17612551,687ed1b7e638a4cbf2f02089,689b825b152460611ae12d60,,,,,,,,,,,,,28,1,,./stim/wavs/castilian_mismatch_interrogative-total-yn_Mi-novio-viene-del-lago.wav,,,,,,,,,,,,,,,,,,,,,,399.6787,401.7682,1,1,1.5709,,0,85,85,27,1,0,castilian,,,,,,,,,,,,,,,,,,,,,,,,,,,,,,,,,,,,,,,,,,,,,,,,,,,,,,,,
,,,,,,,,,663e4706e326d67a17612551,Spain,younger than 13,"yes, I am fluent in another language",no,2025-08-12_14h06.06.983,empathy_intonation_perc,2024.2.4,MacIntel,62.89308176,663e4706e326d67a17612551,687ed1b7e638a4cbf2f02089,689b825b152460611ae12d60,,,,,,,,,,,,,11,1,,./stim/wavs/cuban_match_interrogative-total-yn_Mariano-habla-del-tiempo.wav,,,,,,,,,,,,,,,,,,,,,,401.7689,404.1915,1,1,1.886,,0,86,86,10,1,1,cuban,,,,,,,,,,,,,,,,,,,,,,,,,,,,,,,,,,,,,,,,,,,,,,,,,,,,,,,,
,,,,,,,,,663e4706e326d67a17612551,Spain,younger than 13,"yes, I am fluent in another language",no,2025-08-12_14h06.06.983,empathy_intonation_perc,2024.2.4,MacIntel,62.89308176,663e4706e326d67a17612551,687ed1b7e638a4cbf2f02089,689b825b152460611ae12d60,,,,,,,,,,,,,81,0,,./stim/wavs/mexican_mismatch_declarative-broad-focus_La-maestra-vive-en-Paris.wav,,,,,,,,,,,,,,,,,,,,,,404.1923,406.6817,0,1,1.9665,,0,87,87,80,1,0,mexican,,,,,,,,,,,,,,,,,,,,,,,,,,,,,,,,,,,,,,,,,,,,,,,,,,,,,,,,
,,,,,,,"Great! Now we will move on. The next task consists of about 60 trials, in each of which you will see a string of letters. 
  
  Your task is to decide whether this is a real Spanish word or not.", (press the spacebar to continue),663e4706e326d67a17612551,Spain,younger than 13,"yes, I am fluent in another language",no,2025-08-12_14h06.06.983,empathy_intonation_perc,2024.2.4,MacIntel,62.89308176,663e4706e326d67a17612551,687ed1b7e638a4cbf2f02089,689b825b152460611ae12d60,,,,,,,,,,,,,,,,,,,,,,,,,,,,,,,,,,,,,,,,,,,,,,,,,,,406.6921,460.8096,0,0,0,0,1,,,,,,,,,,,,,,,,,,,,,,,,,,,,,,,,,,,,,,,,,,,,,,,,,
,,,,,,,"If you think it is an existing Spanish word, you type '1' (for 'REAL'), and if you think it is not an existing Spanish word, you type '0' (for 'FAKE').", (press the spacebar to continue),663e4706e326d67a17612551,Spain,younger than 13,"yes, I am fluent in another language",no,2025-08-12_14h06.06.983,empathy_intonation_perc,2024.2.4,MacIntel,62.89308176,663e4706e326d67a17612551,687ed1b7e638a4cbf2f02089,689b825b152460611ae12d60,,,,,,,,,,,,,,,,,,,,,,,,,,,,,,,,,,,,,,,,,,,,,,,,,,,460.8114,464.3847,0,1,1,1,1,,,,,,,,,,,,,,,,,,,,,,,,,,,,,,,,,,,,,,,,,,,,,,,,,
,,,,,,,"If you are sure that the word exists, even though you don’t know its exact meaning, you may still respond '1' (REAL). 
  
  But if you are not sure if it is an existing word, you should respond '0' (FAKE).
  
  Let's do a practice round...", (press the spacebar to continue),663e4706e326d67a17612551,Spain,younger than 13,"yes, I am fluent in another language",no,2025-08-12_14h06.06.983,empathy_intonation_perc,2024.2.4,MacIntel,62.89308176,663e4706e326d67a17612551,687ed1b7e638a4cbf2f02089,689b825b152460611ae12d60,,,,,,,,,,,,,,,,,,,,,,,,,,,,,,,,,,,,,,,,,,,,,,,,,,,464.3871,466.0556,0,2,2,2,1,,,,,,,,,,,,,,,,,,,,,,,,,,,,,,,,,,,,,,,,,,,,,,,,,
,,,,,,,,,663e4706e326d67a17612551,Spain,younger than 13,"yes, I am fluent in another language",no,2025-08-12_14h06.06.983,empathy_intonation_perc,2024.2.4,MacIntel,62.89308176,663e4706e326d67a17612551,687ed1b7e638a4cbf2f02089,689b825b152460611ae12d60,,,,,,,,,,,,,,0,,,,,,,,,,,,,,,,,,,,,,,,,,,,,,,,,,,,,,,,,,,,466.0603,468.6299,1,0,2.047,,468.6302,469.6322,0,0,0,0,1,0,depiste,REAL,FAKE,,,,,,,,,,,,,,,,,,,,,,,,,,,,,,,,
,,,,,,,,,663e4706e326d67a17612551,Spain,younger than 13,"yes, I am fluent in another language",no,2025-08-12_14h06.06.983,empathy_intonation_perc,2024.2.4,MacIntel,62.89308176,663e4706e326d67a17612551,687ed1b7e638a4cbf2f02089,689b825b152460611ae12d60,,,,,,,,,,,,,,1,,,,,,,,,,,,,,,,,,,,,,,,,,,,,,,,,,,,,,,,,,,,469.6338,471.2866,1,1,1.1413,,471.2876,472.2899,0,1,1,1,1,0,sí,REAL,FAKE,,,,,,,,,,,,,,,,,,,,,,,,,,,,,,,,
,,,,,,,,,663e4706e326d67a17612551,Spain,younger than 13,"yes, I am fluent in another language",no,2025-08-12_14h06.06.983,empathy_intonation_perc,2024.2.4,MacIntel,62.89308176,663e4706e326d67a17612551,687ed1b7e638a4cbf2f02089,689b825b152460611ae12d60,,,,,,,,,,,,,,0,,,,,,,,,,,,,,,,,,,,,,,,,,,,,,,,,,,,,,,,,,,,472.2915,473.8442,0,1,1.0252,,473.8443,474.8459,0,2,2,2,1,0,coné,REAL,FAKE,,,,,,,,,,,,,,,,,,,,,,,,,,,,,,,,
,,,,,,,,,663e4706e326d67a17612551,Spain,younger than 13,"yes, I am fluent in another language",no,2025-08-12_14h06.06.983,empathy_intonation_perc,2024.2.4,MacIntel,62.89308176,663e4706e326d67a17612551,687ed1b7e638a4cbf2f02089,689b825b152460611ae12d60,,,,,,,,,,,,,,0,,,,,,,,,,,,,,,,,,,,,,,,,,,,,,,,,,,,,,,,,,,,474.8473,476.8515,0,1,1.4908,,476.8515,477.8538,0,3,3,3,1,0,calpar,REAL,FAKE,,,,,,,,,,,,,,,,,,,,,,,,,,,,,,,,
,,,,,,,,,663e4706e326d67a17612551,Spain,younger than 13,"yes, I am fluent in another language",no,2025-08-12_14h06.06.983,empathy_intonation_perc,2024.2.4,MacIntel,62.89308176,663e4706e326d67a17612551,687ed1b7e638a4cbf2f02089,689b825b152460611ae12d60,,,,,,,,,,,,,,0,,,,,,,,,,,,,,,,,,,,,,,,,,,,,,,,,,,,,,,,,,,,477.8548,479.1922,0,1,0.8233,,479.1926,480.1942,0,4,4,4,1,0,joten,REAL,FAKE,,,,,,,,,,,,,,,,,,,,,,,,,,,,,,,,
,,,,,,,,,663e4706e326d67a17612551,Spain,younger than 13,"yes, I am fluent in another language",no,2025-08-12_14h06.06.983,empathy_intonation_perc,2024.2.4,MacIntel,62.89308176,663e4706e326d67a17612551,687ed1b7e638a4cbf2f02089,689b825b152460611ae12d60,,,,,,,,,,,,,,1,,,,,,,,,,,,,,,,,,,,,,,,,,,,,,,,,,,,,,,,,,,,480.1953,481.7808,0,0,1.0718,,481.7814,482.7847,0,5,5,5,1,0,sacapuntas,REAL,FAKE,,,,,,,,,,,,,,,,,,,,,,,,,,,,,,,,
,,,,,,,,,663e4706e326d67a17612551,Spain,younger than 13,"yes, I am fluent in another language",no,2025-08-12_14h06.06.983,empathy_intonation_perc,2024.2.4,MacIntel,62.89308176,663e4706e326d67a17612551,687ed1b7e638a4cbf2f02089,689b825b152460611ae12d60,,,,,,,,,,,,,,0,,,,,,,,,,,,,,,,,,,,,,,,,,,,,,,,,,,,,,,,,,,,482.7863,484.2047,0,1,0.9074,,484.2055,485.2069,0,6,6,6,1,0,priba,REAL,FAKE,,,,,,,,,,,,,,,,,,,,,,,,,,,,,,,,
,,,,,,,,,663e4706e326d67a17612551,Spain,younger than 13,"yes, I am fluent in another language",no,2025-08-12_14h06.06.983,empathy_intonation_perc,2024.2.4,MacIntel,62.89308176,663e4706e326d67a17612551,687ed1b7e638a4cbf2f02089,689b825b152460611ae12d60,,,,,,,,,,,,,,0,,,,,,,,,,,,,,,,,,,,,,,,,,,,,,,,,,,,,,,,,,,,485.2082,486.6949,1,0,0.976,,486.6957,487.6972,0,7,7,7,1,0,pelasula,REAL,FAKE,,,,,,,,,,,,,,,,,,,,,,,,,,,,,,,,
,,,,,,,,,663e4706e326d67a17612551,Spain,younger than 13,"yes, I am fluent in another language",no,2025-08-12_14h06.06.983,empathy_intonation_perc,2024.2.4,MacIntel,62.89308176,663e4706e326d67a17612551,687ed1b7e638a4cbf2f02089,689b825b152460611ae12d60,,,,,,,,,,,,,,1,,,,,,,,,,,,,,,,,,,,,,,,,,,,,,,,,,,,,,,,,,,,487.6984,488.8842,1,1,0.665,,488.885,489.8858,0,8,8,8,1,0,bien,REAL,FAKE,,,,,,,,,,,,,,,,,,,,,,,,,,,,,,,,
,,,,,,,,,663e4706e326d67a17612551,Spain,younger than 13,"yes, I am fluent in another language",no,2025-08-12_14h06.06.983,empathy_intonation_perc,2024.2.4,MacIntel,62.89308176,663e4706e326d67a17612551,687ed1b7e638a4cbf2f02089,689b825b152460611ae12d60,,,,,,,,,,,,,,1,,,,,,,,,,,,,,,,,,,,,,,,,,,,,,,,,,,,,,,,,,,,489.8874,491.0396,1,1,0.6399,,491.0396,492.0427,0,9,9,9,1,0,casa,REAL,FAKE,,,,,,,,,,,,,,,,,,,,,,,,,,,,,,,,
,,,,,,,,,663e4706e326d67a17612551,Spain,younger than 13,"yes, I am fluent in another language",no,2025-08-12_14h06.06.983,empathy_intonation_perc,2024.2.4,MacIntel,62.89308176,663e4706e326d67a17612551,687ed1b7e638a4cbf2f02089,689b825b152460611ae12d60,,,,,,,,,,,,,,0,,,,,,,,,,,,,,,,,,,,,,,,,,,,,,,,,,,,,,,,,,,,492.0442,493.4298,1,0,0.8479,,493.4306,494.4323,0,10,10,10,1,0,lejo,REAL,FAKE,,,,,,,,,,,,,,,,,,,,,,,,,,,,,,,,
,,,,,,,,,663e4706e326d67a17612551,Spain,younger than 13,"yes, I am fluent in another language",no,2025-08-12_14h06.06.983,empathy_intonation_perc,2024.2.4,MacIntel,62.89308176,663e4706e326d67a17612551,687ed1b7e638a4cbf2f02089,689b825b152460611ae12d60,,,,,,,,,,,,,,0,,,,,,,,,,,,,,,,,,,,,,,,,,,,,,,,,,,,,,,,,,,,494.4334,496.119,0,1,1.1719,,496.1199,497.1226,0,11,11,11,1,0,pretantas,REAL,FAKE,,,,,,,,,,,,,,,,,,,,,,,,,,,,,,,,
,,,,,,,,,663e4706e326d67a17612551,Spain,younger than 13,"yes, I am fluent in another language",no,2025-08-12_14h06.06.983,empathy_intonation_perc,2024.2.4,MacIntel,62.89308176,663e4706e326d67a17612551,687ed1b7e638a4cbf2f02089,689b825b152460611ae12d60,,,,,,,,,,,,,,,,,,,,,,,,,,,,,,,,,,,,,,,,,,,,,,,,,,,,,,,,,,,,,,,,,,,,,,,,,,,497.1229,497.8741,,,,,,,,,,,,,,,,,,,,,,,,,,,,,,
,,,,,,,,,663e4706e326d67a17612551,Spain,younger than 13,"yes, I am fluent in another language",no,2025-08-12_14h06.06.983,empathy_intonation_perc,2024.2.4,MacIntel,62.89308176,663e4706e326d67a17612551,687ed1b7e638a4cbf2f02089,689b825b152460611ae12d60,,,,,,,,,,,,,,1,,,,,,,,,,,,,,,,,,,,,,,,,,,,,,,,,,,,,,,,,,,,,,,,,,,,,,,,,5,zapato,,,,,497.8825,499.7133,1,1,1.3059,,0,0,0,4,1,REAL,FAKE,,,,,,,,,,,,,,,,,
,,,,,,,,,663e4706e326d67a17612551,Spain,younger than 13,"yes, I am fluent in another language",no,2025-08-12_14h06.06.983,empathy_intonation_perc,2024.2.4,MacIntel,62.89308176,663e4706e326d67a17612551,687ed1b7e638a4cbf2f02089,689b825b152460611ae12d60,,,,,,,,,,,,,,1,,,,,,,,,,,,,,,,,,,,,,,,,,,,,,,,,,,,,,,,,,,,,,,,,,,,,,,,,49,ganar,,,,,499.7143,501.2507,1,1,1.0023,,0,1,1,48,1,REAL,FAKE,,,,,,,,,,,,,,,,,
,,,,,,,,,663e4706e326d67a17612551,Spain,younger than 13,"yes, I am fluent in another language",no,2025-08-12_14h06.06.983,empathy_intonation_perc,2024.2.4,MacIntel,62.89308176,663e4706e326d67a17612551,687ed1b7e638a4cbf2f02089,689b825b152460611ae12d60,,,,,,,,,,,,,,0,,,,,,,,,,,,,,,,,,,,,,,,,,,,,,,,,,,,,,,,,,,,,,,,,,,,,,,,,18,arsa,,,,,501.2522,502.5365,0,1,0.7579,,0,2,2,17,1,REAL,FAKE,,,,,,,,,,,,,,,,,
,,,,,,,,,663e4706e326d67a17612551,Spain,younger than 13,"yes, I am fluent in another language",no,2025-08-12_14h06.06.983,empathy_intonation_perc,2024.2.4,MacIntel,62.89308176,663e4706e326d67a17612551,687ed1b7e638a4cbf2f02089,689b825b152460611ae12d60,,,,,,,,,,,,,,0,,,,,,,,,,,,,,,,,,,,,,,,,,,,,,,,,,,,,,,,,,,,,,,,,,,,,,,,,19,brecedad,,,,,502.5375,504.191,0,1,1.1416,,0,3,3,18,1,REAL,FAKE,,,,,,,,,,,,,,,,,
,,,,,,,,,663e4706e326d67a17612551,Spain,younger than 13,"yes, I am fluent in another language",no,2025-08-12_14h06.06.983,empathy_intonation_perc,2024.2.4,MacIntel,62.89308176,663e4706e326d67a17612551,687ed1b7e638a4cbf2f02089,689b825b152460611ae12d60,,,,,,,,,,,,,,0,,,,,,,,,,,,,,,,,,,,,,,,,,,,,,,,,,,,,,,,,,,,,,,,,,,,,,,,,21,capillo,,,,,504.1921,505.729,1,0,1.021,,0,4,4,20,1,REAL,FAKE,,,,,,,,,,,,,,,,,
,,,,,,,,,663e4706e326d67a17612551,Spain,younger than 13,"yes, I am fluent in another language",no,2025-08-12_14h06.06.983,empathy_intonation_perc,2024.2.4,MacIntel,62.89308176,663e4706e326d67a17612551,687ed1b7e638a4cbf2f02089,689b825b152460611ae12d60,,,,,,,,,,,,,,1,,,,,,,,,,,,,,,,,,,,,,,,,,,,,,,,,,,,,,,,,,,,,,,,,,,,,,,,,43,canela,,,,,505.73,507.0496,1,1,0.8043,,0,5,5,42,1,REAL,FAKE,,,,,,,,,,,,,,,,,
,,,,,,,,,663e4706e326d67a17612551,Spain,younger than 13,"yes, I am fluent in another language",no,2025-08-12_14h06.06.983,empathy_intonation_perc,2024.2.4,MacIntel,62.89308176,663e4706e326d67a17612551,687ed1b7e638a4cbf2f02089,689b825b152460611ae12d60,,,,,,,,,,,,,,1,,,,,,,,,,,,,,,,,,,,,,,,,,,,,,,,,,,,,,,,,,,,,,,,,,,,,,,,,14,yunque,,,,,507.0512,508.871,0,0,1.2833,,0,6,6,13,1,REAL,FAKE,,,,,,,,,,,,,,,,,
,,,,,,,,,663e4706e326d67a17612551,Spain,younger than 13,"yes, I am fluent in another language",no,2025-08-12_14h06.06.983,empathy_intonation_perc,2024.2.4,MacIntel,62.89308176,663e4706e326d67a17612551,687ed1b7e638a4cbf2f02089,689b825b152460611ae12d60,,,,,,,,,,,,,,1,,,,,,,,,,,,,,,,,,,,,,,,,,,,,,,,,,,,,,,,,,,,,,,,,,,,,,,,,64,orgulloso,,,,,508.8722,511.0267,1,1,1.6397,,0,7,7,63,1,REAL,FAKE,,,,,,,,,,,,,,,,,
,,,,,,,,,663e4706e326d67a17612551,Spain,younger than 13,"yes, I am fluent in another language",no,2025-08-12_14h06.06.983,empathy_intonation_perc,2024.2.4,MacIntel,62.89308176,663e4706e326d67a17612551,687ed1b7e638a4cbf2f02089,689b825b152460611ae12d60,,,,,,,,,,,,,,1,,,,,,,,,,,,,,,,,,,,,,,,,,,,,,,,,,,,,,,,,,,,,,,,,,,,,,,,,31,pandilla,,,,,511.0277,512.697,0,0,1.1575,,0,8,8,30,1,REAL,FAKE,,,,,,,,,,,,,,,,,
,,,,,,,,,663e4706e326d67a17612551,Spain,younger than 13,"yes, I am fluent in another language",no,2025-08-12_14h06.06.983,empathy_intonation_perc,2024.2.4,MacIntel,62.89308176,663e4706e326d67a17612551,687ed1b7e638a4cbf2f02089,689b825b152460611ae12d60,,,,,,,,,,,,,,1,,,,,,,,,,,,,,,,,,,,,,,,,,,,,,,,,,,,,,,,,,,,,,,,,,,,,,,,,11,cenefa,,,,,512.6979,514.0509,0,0,0.8322,,0,9,9,10,1,REAL,FAKE,,,,,,,,,,,,,,,,,
,,,,,,,,,663e4706e326d67a17612551,Spain,younger than 13,"yes, I am fluent in another language",no,2025-08-12_14h06.06.983,empathy_intonation_perc,2024.2.4,MacIntel,62.89308176,663e4706e326d67a17612551,687ed1b7e638a4cbf2f02089,689b825b152460611ae12d60,,,,,,,,,,,,,,1,,,,,,,,,,,,,,,,,,,,,,,,,,,,,,,,,,,,,,,,,,,,,,,,,,,,,,,,,34,aviso,,,,,514.0525,515.3041,1,1,0.7388,,0,10,10,33,1,REAL,FAKE,,,,,,,,,,,,,,,,,
,,,,,,,,,663e4706e326d67a17612551,Spain,younger than 13,"yes, I am fluent in another language",no,2025-08-12_14h06.06.983,empathy_intonation_perc,2024.2.4,MacIntel,62.89308176,663e4706e326d67a17612551,687ed1b7e638a4cbf2f02089,689b825b152460611ae12d60,,,,,,,,,,,,,,0,,,,,,,,,,,,,,,,,,,,,,,,,,,,,,,,,,,,,,,,,,,,,,,,,,,,,,,,,16,abracer,,,,,515.3054,516.6579,1,0,0.8351,,0,11,11,15,1,REAL,FAKE,,,,,,,,,,,,,,,,,
,,,,,,,,,663e4706e326d67a17612551,Spain,younger than 13,"yes, I am fluent in another language",no,2025-08-12_14h06.06.983,empathy_intonation_perc,2024.2.4,MacIntel,62.89308176,663e4706e326d67a17612551,687ed1b7e638a4cbf2f02089,689b825b152460611ae12d60,,,,,,,,,,,,,,1,,,,,,,,,,,,,,,,,,,,,,,,,,,,,,,,,,,,,,,,,,,,,,,,,,,,,,,,,57,tacaño,,,,,516.6593,518.6525,0,0,1.4822,,0,12,12,56,1,REAL,FAKE,,,,,,,,,,,,,,,,,
,,,,,,,,,663e4706e326d67a17612551,Spain,younger than 13,"yes, I am fluent in another language",no,2025-08-12_14h06.06.983,empathy_intonation_perc,2024.2.4,MacIntel,62.89308176,663e4706e326d67a17612551,687ed1b7e638a4cbf2f02089,689b825b152460611ae12d60,,,,,,,,,,,,,,1,,,,,,,,,,,,,,,,,,,,,,,,,,,,,,,,,,,,,,,,,,,,,,,,,,,,,,,,,59,besar,,,,,518.6533,520.1502,1,1,0.9661,,0,13,13,58,1,REAL,FAKE,,,,,,,,,,,,,,,,,
,,,,,,,,,663e4706e326d67a17612551,Spain,younger than 13,"yes, I am fluent in another language",no,2025-08-12_14h06.06.983,empathy_intonation_perc,2024.2.4,MacIntel,62.89308176,663e4706e326d67a17612551,687ed1b7e638a4cbf2f02089,689b825b152460611ae12d60,,,,,,,,,,,,,,1,,,,,,,,,,,,,,,,,,,,,,,,,,,,,,,,,,,,,,,,,,,,,,,,,,,,,,,,,12,asesinato,,,,,520.1513,522.5896,0,0,1.8643,,0,14,14,11,1,REAL,FAKE,,,,,,,,,,,,,,,,,
,,,,,,,,,663e4706e326d67a17612551,Spain,younger than 13,"yes, I am fluent in another language",no,2025-08-12_14h06.06.983,empathy_intonation_perc,2024.2.4,MacIntel,62.89308176,663e4706e326d67a17612551,687ed1b7e638a4cbf2f02089,689b825b152460611ae12d60,,,,,,,,,,,,,,1,,,,,,,,,,,,,,,,,,,,,,,,,,,,,,,,,,,,,,,,,,,,,,,,,,,,,,,,,86,barato,,,,,522.5903,524.1104,0,0,0.9273,,0,15,15,85,1,REAL,FAKE,,,,,,,,,,,,,,,,,
,,,,,,,,,663e4706e326d67a17612551,Spain,younger than 13,"yes, I am fluent in another language",no,2025-08-12_14h06.06.983,empathy_intonation_perc,2024.2.4,MacIntel,62.89308176,663e4706e326d67a17612551,687ed1b7e638a4cbf2f02089,689b825b152460611ae12d60,,,,,,,,,,,,,,1,,,,,,,,,,,,,,,,,,,,,,,,,,,,,,,,,,,,,,,,,,,,,,,,,,,,,,,,,39,torpe,,,,,524.1178,526.0153,1,1,1.3598,,0,16,16,38,1,REAL,FAKE,,,,,,,,,,,,,,,,,
,,,,,,,,,663e4706e326d67a17612551,Spain,younger than 13,"yes, I am fluent in another language",no,2025-08-12_14h06.06.983,empathy_intonation_perc,2024.2.4,MacIntel,62.89308176,663e4706e326d67a17612551,687ed1b7e638a4cbf2f02089,689b825b152460611ae12d60,,,,,,,,,,,,,,0,,,,,,,,,,,,,,,,,,,,,,,,,,,,,,,,,,,,,,,,,,,,,,,,,,,,,,,,,66,hacido,,,,,526.0161,528.8901,1,0,2.3522,,0,17,17,65,1,REAL,FAKE,,,,,,,,,,,,,,,,,
,,,,,,,,,663e4706e326d67a17612551,Spain,younger than 13,"yes, I am fluent in another language",no,2025-08-12_14h06.06.983,empathy_intonation_perc,2024.2.4,MacIntel,62.89308176,663e4706e326d67a17612551,687ed1b7e638a4cbf2f02089,689b825b152460611ae12d60,,,,,,,,,,,,,,0,,,,,,,,,,,,,,,,,,,,,,,,,,,,,,,,,,,,,,,,,,,,,,,,,,,,,,,,,35,rompido,,,,,528.8912,530.7626,0,1,1.3548,,0,18,18,34,1,REAL,FAKE,,,,,,,,,,,,,,,,,
,,,,,,,,,663e4706e326d67a17612551,Spain,younger than 13,"yes, I am fluent in another language",no,2025-08-12_14h06.06.983,empathy_intonation_perc,2024.2.4,MacIntel,62.89308176,663e4706e326d67a17612551,687ed1b7e638a4cbf2f02089,689b825b152460611ae12d60,,,,,,,,,,,,,,0,,,,,,,,,,,,,,,,,,,,,,,,,,,,,,,,,,,,,,,,,,,,,,,,,,,,,,,,,42,cadallo,,,,,530.7634,532.0325,0,1,0.7549,,0,19,19,41,1,REAL,FAKE,,,,,,,,,,,,,,,,,
,,,,,,,,,663e4706e326d67a17612551,Spain,younger than 13,"yes, I am fluent in another language",no,2025-08-12_14h06.06.983,empathy_intonation_perc,2024.2.4,MacIntel,62.89308176,663e4706e326d67a17612551,687ed1b7e638a4cbf2f02089,689b825b152460611ae12d60,,,,,,,,,,,,,,1,,,,,,,,,,,,,,,,,,,,,,,,,,,,,,,,,,,,,,,,,,,,,,,,,,,,,,,,,25,bisagra,,,,,532.0334,533.4852,0,0,0.9396,,0,20,20,24,1,REAL,FAKE,,,,,,,,,,,,,,,,,
,,,,,,,,,663e4706e326d67a17612551,Spain,younger than 13,"yes, I am fluent in another language",no,2025-08-12_14h06.06.983,empathy_intonation_perc,2024.2.4,MacIntel,62.89308176,663e4706e326d67a17612551,687ed1b7e638a4cbf2f02089,689b825b152460611ae12d60,,,,,,,,,,,,,,1,,,,,,,,,,,,,,,,,,,,,,,,,,,,,,,,,,,,,,,,,,,,,,,,,,,,,,,,,3,pulmones,,,,,533.486,535.2748,1,1,1.2656,,0,21,21,2,1,REAL,FAKE,,,,,,,,,,,,,,,,,
,,,,,,,,,663e4706e326d67a17612551,Spain,younger than 13,"yes, I am fluent in another language",no,2025-08-12_14h06.06.983,empathy_intonation_perc,2024.2.4,MacIntel,62.89308176,663e4706e326d67a17612551,687ed1b7e638a4cbf2f02089,689b825b152460611ae12d60,,,,,,,,,,,,,,0,,,,,,,,,,,,,,,,,,,,,,,,,,,,,,,,,,,,,,,,,,,,,,,,,,,,,,,,,63,esposante,,,,,535.2761,537.1624,0,1,1.3729,,0,22,22,62,1,REAL,FAKE,,,,,,,,,,,,,,,,,
,,,,,,,,,663e4706e326d67a17612551,Spain,younger than 13,"yes, I am fluent in another language",no,2025-08-12_14h06.06.983,empathy_intonation_perc,2024.2.4,MacIntel,62.89308176,663e4706e326d67a17612551,687ed1b7e638a4cbf2f02089,689b825b152460611ae12d60,,,,,,,,,,,,,,1,,,,,,,,,,,,,,,,,,,,,,,,,,,,,,,,,,,,,,,,,,,,,,,,,,,,,,,,,71,polvoriento,,,,,537.1634,539.1852,0,0,1.5068,,0,23,23,70,1,REAL,FAKE,,,,,,,,,,,,,,,,,
,,,,,,,,,663e4706e326d67a17612551,Spain,younger than 13,"yes, I am fluent in another language",no,2025-08-12_14h06.06.983,empathy_intonation_perc,2024.2.4,MacIntel,62.89308176,663e4706e326d67a17612551,687ed1b7e638a4cbf2f02089,689b825b152460611ae12d60,,,,,,,,,,,,,,0,,,,,,,,,,,,,,,,,,,,,,,,,,,,,,,,,,,,,,,,,,,,,,,,,,,,,,,,,1,terzo,,,,,539.1861,540.6225,1,0,0.9165,,0,24,24,0,1,REAL,FAKE,,,,,,,,,,,,,,,,,
,,,,,,,,,663e4706e326d67a17612551,Spain,younger than 13,"yes, I am fluent in another language",no,2025-08-12_14h06.06.983,empathy_intonation_perc,2024.2.4,MacIntel,62.89308176,663e4706e326d67a17612551,687ed1b7e638a4cbf2f02089,689b825b152460611ae12d60,,,,,,,,,,,,,,1,,,,,,,,,,,,,,,,,,,,,,,,,,,,,,,,,,,,,,,,,,,,,,,,,,,,,,,,,9,hacha,,,,,540.6239,542.0758,1,1,0.9416,,0,25,25,8,1,REAL,FAKE,,,,,,,,,,,,,,,,,
,,,,,,,,,663e4706e326d67a17612551,Spain,younger than 13,"yes, I am fluent in another language",no,2025-08-12_14h06.06.983,empathy_intonation_perc,2024.2.4,MacIntel,62.89308176,663e4706e326d67a17612551,687ed1b7e638a4cbf2f02089,689b825b152460611ae12d60,,,,,,,,,,,,,,1,,,,,,,,,,,,,,,,,,,,,,,,,,,,,,,,,,,,,,,,,,,,,,,,,,,,,,,,,36,loro,,,,,542.077,543.4463,1,1,0.8589,,0,26,26,35,1,REAL,FAKE,,,,,,,,,,,,,,,,,
,,,,,,,,,663e4706e326d67a17612551,Spain,younger than 13,"yes, I am fluent in another language",no,2025-08-12_14h06.06.983,empathy_intonation_perc,2024.2.4,MacIntel,62.89308176,663e4706e326d67a17612551,687ed1b7e638a4cbf2f02089,689b825b152460611ae12d60,,,,,,,,,,,,,,1,,,,,,,,,,,,,,,,,,,,,,,,,,,,,,,,,,,,,,,,,,,,,,,,,,,,,,,,,75,yacer,,,,,543.4473,544.7994,1,1,0.8401,,0,27,27,74,1,REAL,FAKE,,,,,,,,,,,,,,,,,
,,,,,,,,,663e4706e326d67a17612551,Spain,younger than 13,"yes, I am fluent in another language",no,2025-08-12_14h06.06.983,empathy_intonation_perc,2024.2.4,MacIntel,62.89308176,663e4706e326d67a17612551,687ed1b7e638a4cbf2f02089,689b825b152460611ae12d60,,,,,,,,,,,,,,0,,,,,,,,,,,,,,,,,,,,,,,,,,,,,,,,,,,,,,,,,,,,,,,,,,,,,,,,,4,batillón,,,,,544.8008,546.2197,1,0,0.8999,,0,28,28,3,1,REAL,FAKE,,,,,,,,,,,,,,,,,
,,,,,,,,,663e4706e326d67a17612551,Spain,younger than 13,"yes, I am fluent in another language",no,2025-08-12_14h06.06.983,empathy_intonation_perc,2024.2.4,MacIntel,62.89308176,663e4706e326d67a17612551,687ed1b7e638a4cbf2f02089,689b825b152460611ae12d60,,,,,,,,,,,,,,0,,,,,,,,,,,,,,,,,,,,,,,,,,,,,,,,,,,,,,,,,,,,,,,,,,,,,,,,,72,pemición,,,,,546.2207,548.225,0,1,1.4926,,0,29,29,71,1,REAL,FAKE,,,,,,,,,,,,,,,,,
,,,,,,,,,663e4706e326d67a17612551,Spain,younger than 13,"yes, I am fluent in another language",no,2025-08-12_14h06.06.983,empathy_intonation_perc,2024.2.4,MacIntel,62.89308176,663e4706e326d67a17612551,687ed1b7e638a4cbf2f02089,689b825b152460611ae12d60,,,,,,,,,,,,,,1,,,,,,,,,,,,,,,,,,,,,,,,,,,,,,,,,,,,,,,,,,,,,,,,,,,,,,,,,7,pésimo,,,,,548.2259,550.2972,1,1,1.5575,,0,30,30,6,1,REAL,FAKE,,,,,,,,,,,,,,,,,
,,,,,,,,,663e4706e326d67a17612551,Spain,younger than 13,"yes, I am fluent in another language",no,2025-08-12_14h06.06.983,empathy_intonation_perc,2024.2.4,MacIntel,62.89308176,663e4706e326d67a17612551,687ed1b7e638a4cbf2f02089,689b825b152460611ae12d60,,,,,,,,,,,,,,1,,,,,,,,,,,,,,,,,,,,,,,,,,,,,,,,,,,,,,,,,,,,,,,,,,,,,,,,,56,musgo,,,,,550.2982,551.7679,0,0,0.9571,,0,31,31,55,1,REAL,FAKE,,,,,,,,,,,,,,,,,
,,,,,,,,,663e4706e326d67a17612551,Spain,younger than 13,"yes, I am fluent in another language",no,2025-08-12_14h06.06.983,empathy_intonation_perc,2024.2.4,MacIntel,62.89308176,663e4706e326d67a17612551,687ed1b7e638a4cbf2f02089,689b825b152460611ae12d60,,,,,,,,,,,,,,1,,,,,,,,,,,,,,,,,,,,,,,,,,,,,,,,,,,,,,,,,,,,,,,,,,,,,,,,,85,laúd,,,,,551.769,555.511,0,0,3.2275,,0,32,32,84,1,REAL,FAKE,,,,,,,,,,,,,,,,,
,,,,,,,,,663e4706e326d67a17612551,Spain,younger than 13,"yes, I am fluent in another language",no,2025-08-12_14h06.06.983,empathy_intonation_perc,2024.2.4,MacIntel,62.89308176,663e4706e326d67a17612551,687ed1b7e638a4cbf2f02089,689b825b152460611ae12d60,,,,,,,,,,,,,,1,,,,,,,,,,,,,,,,,,,,,,,,,,,,,,,,,,,,,,,,,,,,,,,,,,,,,,,,,60,matar,,,,,555.5117,556.9491,0,0,0.9137,,0,33,33,59,1,REAL,FAKE,,,,,,,,,,,,,,,,,
,,,,,,,,,663e4706e326d67a17612551,Spain,younger than 13,"yes, I am fluent in another language",no,2025-08-12_14h06.06.983,empathy_intonation_perc,2024.2.4,MacIntel,62.89308176,663e4706e326d67a17612551,687ed1b7e638a4cbf2f02089,689b825b152460611ae12d60,,,,,,,,,,,,,,0,,,,,,,,,,,,,,,,,,,,,,,,,,,,,,,,,,,,,,,,,,,,,,,,,,,,,,,,,10,antar,,,,,556.9504,558.8868,1,0,1.4267,,0,34,34,9,1,REAL,FAKE,,,,,,,,,,,,,,,,,
,,,,,,,,,663e4706e326d67a17612551,Spain,younger than 13,"yes, I am fluent in another language",no,2025-08-12_14h06.06.983,empathy_intonation_perc,2024.2.4,MacIntel,62.89308176,663e4706e326d67a17612551,687ed1b7e638a4cbf2f02089,689b825b152460611ae12d60,,,,,,,,,,,,,,1,,,,,,,,,,,,,,,,,,,,,,,,,,,,,,,,,,,,,,,,,,,,,,,,,,,,,,,,,68,alegre,,,,,558.8878,560.2243,1,1,0.8141,,0,35,35,67,1,REAL,FAKE,,,,,,,,,,,,,,,,,
,,,,,,,,,663e4706e326d67a17612551,Spain,younger than 13,"yes, I am fluent in another language",no,2025-08-12_14h06.06.983,empathy_intonation_perc,2024.2.4,MacIntel,62.89308176,663e4706e326d67a17612551,687ed1b7e638a4cbf2f02089,689b825b152460611ae12d60,,,,,,,,,,,,,,0,,,,,,,,,,,,,,,,,,,,,,,,,,,,,,,,,,,,,,,,,,,,,,,,,,,,,,,,,74,cintro,,,,,560.2249,561.9115,0,1,1.1788,,0,36,36,73,1,REAL,FAKE,,,,,,,,,,,,,,,,,
,,,,,,,,,663e4706e326d67a17612551,Spain,younger than 13,"yes, I am fluent in another language",no,2025-08-12_14h06.06.983,empathy_intonation_perc,2024.2.4,MacIntel,62.89308176,663e4706e326d67a17612551,687ed1b7e638a4cbf2f02089,689b825b152460611ae12d60,,,,,,,,,,,,,,1,,,,,,,,,,,,,,,,,,,,,,,,,,,,,,,,,,,,,,,,,,,,,,,,,,,,,,,,,38,estornudar,,,,,561.9122,563.6004,0,0,1.1752,,0,37,37,37,1,REAL,FAKE,,,,,,,,,,,,,,,,,
,,,,,,,,,663e4706e326d67a17612551,Spain,younger than 13,"yes, I am fluent in another language",no,2025-08-12_14h06.06.983,empathy_intonation_perc,2024.2.4,MacIntel,62.89308176,663e4706e326d67a17612551,687ed1b7e638a4cbf2f02089,689b825b152460611ae12d60,,,,,,,,,,,,,,1,,,,,,,,,,,,,,,,,,,,,,,,,,,,,,,,,,,,,,,,,,,,,,,,,,,,,,,,,51,candado,,,,,563.6016,565.4544,1,1,1.3361,,0,38,38,50,1,REAL,FAKE,,,,,,,,,,,,,,,,,
,,,,,,,,,663e4706e326d67a17612551,Spain,younger than 13,"yes, I am fluent in another language",no,2025-08-12_14h06.06.983,empathy_intonation_perc,2024.2.4,MacIntel,62.89308176,663e4706e326d67a17612551,687ed1b7e638a4cbf2f02089,689b825b152460611ae12d60,,,,,,,,,,,,,,1,,,,,,,,,,,,,,,,,,,,,,,,,,,,,,,,,,,,,,,,,,,,,,,,,,,,,,,,,88,acantilado,,,,,565.4553,567.3269,0,0,1.355,,0,39,39,87,1,REAL,FAKE,,,,,,,,,,,,,,,,,
,,,,,,,,,663e4706e326d67a17612551,Spain,younger than 13,"yes, I am fluent in another language",no,2025-08-12_14h06.06.983,empathy_intonation_perc,2024.2.4,MacIntel,62.89308176,663e4706e326d67a17612551,687ed1b7e638a4cbf2f02089,689b825b152460611ae12d60,,,,,,,,,,,,,,1,,,,,,,,,,,,,,,,,,,,,,,,,,,,,,,,,,,,,,,,,,,,,,,,,,,,,,,,,52,camisa,,,,,567.3283,569.6159,1,1,1.7502,,0,40,40,51,1,REAL,FAKE,,,,,,,,,,,,,,,,,
,,,,,,,,,663e4706e326d67a17612551,Spain,younger than 13,"yes, I am fluent in another language",no,2025-08-12_14h06.06.983,empathy_intonation_perc,2024.2.4,MacIntel,62.89308176,663e4706e326d67a17612551,687ed1b7e638a4cbf2f02089,689b825b152460611ae12d60,,,,,,,,,,,,,,0,,,,,,,,,,,,,,,,,,,,,,,,,,,,,,,,,,,,,,,,,,,,,,,,,,,,,,,,,70,temblo,,,,,569.6168,570.9032,0,1,0.7654,,0,41,41,69,1,REAL,FAKE,,,,,,,,,,,,,,,,,
,,,,,,,,,663e4706e326d67a17612551,Spain,younger than 13,"yes, I am fluent in another language",no,2025-08-12_14h06.06.983,empathy_intonation_perc,2024.2.4,MacIntel,62.89308176,663e4706e326d67a17612551,687ed1b7e638a4cbf2f02089,689b825b152460611ae12d60,,,,,,,,,,,,,,0,,,,,,,,,,,,,,,,,,,,,,,,,,,,,,,,,,,,,,,,,,,,,,,,,,,,,,,,,53,vegada,,,,,570.9044,572.2226,0,1,0.8056,,0,42,42,52,1,REAL,FAKE,,,,,,,,,,,,,,,,,
,,,,,,,,,663e4706e326d67a17612551,Spain,younger than 13,"yes, I am fluent in another language",no,2025-08-12_14h06.06.983,empathy_intonation_perc,2024.2.4,MacIntel,62.89308176,663e4706e326d67a17612551,687ed1b7e638a4cbf2f02089,689b825b152460611ae12d60,,,,,,,,,,,,,,1,,,,,,,,,,,,,,,,,,,,,,,,,,,,,,,,,,,,,,,,,,,,,,,,,,,,,,,,,78,frondoso,,,,,572.2235,573.4265,0,0,0.6859,,0,43,43,77,1,REAL,FAKE,,,,,,,,,,,,,,,,,
,,,,,,,,,663e4706e326d67a17612551,Spain,younger than 13,"yes, I am fluent in another language",no,2025-08-12_14h06.06.983,empathy_intonation_perc,2024.2.4,MacIntel,62.89308176,663e4706e326d67a17612551,687ed1b7e638a4cbf2f02089,689b825b152460611ae12d60,,,,,,,,,,,,,,0,,,,,,,,,,,,,,,,,,,,,,,,,,,,,,,,,,,,,,,,,,,,,,,,,,,,,,,,,33,pauca,,,,,573.4277,574.7635,0,1,0.815,,0,44,44,32,1,REAL,FAKE,,,,,,,,,,,,,,,,,
,,,,,,,,,663e4706e326d67a17612551,Spain,younger than 13,"yes, I am fluent in another language",no,2025-08-12_14h06.06.983,empathy_intonation_perc,2024.2.4,MacIntel,62.89308176,663e4706e326d67a17612551,687ed1b7e638a4cbf2f02089,689b825b152460611ae12d60,,,,,,,,,,,,,,1,,,,,,,,,,,,,,,,,,,,,,,,,,,,,,,,,,,,,,,,,,,,,,,,,,,,,,,,,73,hervidor,,,,,574.7644,576.5509,1,1,1.2654,,0,45,45,72,1,REAL,FAKE,,,,,,,,,,,,,,,,,
,,,,,,,,,663e4706e326d67a17612551,Spain,younger than 13,"yes, I am fluent in another language",no,2025-08-12_14h06.06.983,empathy_intonation_perc,2024.2.4,MacIntel,62.89308176,663e4706e326d67a17612551,687ed1b7e638a4cbf2f02089,689b825b152460611ae12d60,,,,,,,,,,,,,,0,,,,,,,,,,,,,,,,,,,,,,,,,,,,,,,,,,,,,,,,,,,,,,,,,,,,,,,,,87,grodo,,,,,576.5521,578.1893,1,0,1.1193,,0,46,46,86,1,REAL,FAKE,,,,,,,,,,,,,,,,,
,,,,,,,,,663e4706e326d67a17612551,Spain,younger than 13,"yes, I am fluent in another language",no,2025-08-12_14h06.06.983,empathy_intonation_perc,2024.2.4,MacIntel,62.89308176,663e4706e326d67a17612551,687ed1b7e638a4cbf2f02089,689b825b152460611ae12d60,,,,,,,,,,,,,,0,,,,,,,,,,,,,,,,,,,,,,,,,,,,,,,,,,,,,,,,,,,,,,,,,,,,,,,,,50,flamida,,,,,578.1904,579.776,1,0,1.0742,,0,47,47,49,1,REAL,FAKE,,,,,,,,,,,,,,,,,
,,,,,,,,,663e4706e326d67a17612551,Spain,younger than 13,"yes, I am fluent in another language",no,2025-08-12_14h06.06.983,empathy_intonation_perc,2024.2.4,MacIntel,62.89308176,663e4706e326d67a17612551,687ed1b7e638a4cbf2f02089,689b825b152460611ae12d60,,,,,,,,,,,,,,0,,,,,,,,,,,,,,,,,,,,,,,,,,,,,,,,,,,,,,,,,,,,,,,,,,,,,,,,,47,cartinar,,,,,579.7772,581.3304,1,0,1.0291,,0,48,48,46,1,REAL,FAKE,,,,,,,,,,,,,,,,,
,,,,,,,,,663e4706e326d67a17612551,Spain,younger than 13,"yes, I am fluent in another language",no,2025-08-12_14h06.06.983,empathy_intonation_perc,2024.2.4,MacIntel,62.89308176,663e4706e326d67a17612551,687ed1b7e638a4cbf2f02089,689b825b152460611ae12d60,,,,,,,,,,,,,,1,,,,,,,,,,,,,,,,,,,,,,,,,,,,,,,,,,,,,,,,,,,,,,,,,,,,,,,,,67,cabello,,,,,581.3312,582.7849,1,1,0.9314,,0,49,49,66,1,REAL,FAKE,,,,,,,,,,,,,,,,,
,,,,,,,,,663e4706e326d67a17612551,Spain,younger than 13,"yes, I am fluent in another language",no,2025-08-12_14h06.06.983,empathy_intonation_perc,2024.2.4,MacIntel,62.89308176,663e4706e326d67a17612551,687ed1b7e638a4cbf2f02089,689b825b152460611ae12d60,,,,,,,,,,,,,,1,,,,,,,,,,,,,,,,,,,,,,,,,,,,,,,,,,,,,,,,,,,,,,,,,,,,,,,,,6,tergiversar,,,,,582.7861,584.3213,0,0,1.0203,,0,50,50,5,1,REAL,FAKE,,,,,,,,,,,,,,,,,
,,,,,,,,,663e4706e326d67a17612551,Spain,younger than 13,"yes, I am fluent in another language",no,2025-08-12_14h06.06.983,empathy_intonation_perc,2024.2.4,MacIntel,62.89308176,663e4706e326d67a17612551,687ed1b7e638a4cbf2f02089,689b825b152460611ae12d60,,,,,,,,,,,,,,1,,,,,,,,,,,,,,,,,,,,,,,,,,,,,,,,,,,,,,,,,,,,,,,,,,,,,,,,,41,rebuscar,,,,,584.3222,586.2767,1,1,1.4349,,0,51,51,40,1,REAL,FAKE,,,,,,,,,,,,,,,,,
,,,,,,,,,663e4706e326d67a17612551,Spain,younger than 13,"yes, I am fluent in another language",no,2025-08-12_14h06.06.983,empathy_intonation_perc,2024.2.4,MacIntel,62.89308176,663e4706e326d67a17612551,687ed1b7e638a4cbf2f02089,689b825b152460611ae12d60,,,,,,,,,,,,,,1,,,,,,,,,,,,,,,,,,,,,,,,,,,,,,,,,,,,,,,,,,,,,,,,,,,,,,,,,80,hormiga,,,,,586.278,587.831,0,0,1.0339,,0,52,52,79,1,REAL,FAKE,,,,,,,,,,,,,,,,,
,,,,,,,,,663e4706e326d67a17612551,Spain,younger than 13,"yes, I am fluent in another language",no,2025-08-12_14h06.06.983,empathy_intonation_perc,2024.2.4,MacIntel,62.89308176,663e4706e326d67a17612551,687ed1b7e638a4cbf2f02089,689b825b152460611ae12d60,,,,,,,,,,,,,,0,,,,,,,,,,,,,,,,,,,,,,,,,,,,,,,,,,,,,,,,,,,,,,,,,,,,,,,,,29,decar,,,,,587.832,589.5524,0,1,1.2068,,0,53,53,28,1,REAL,FAKE,,,,,,,,,,,,,,,,,
,,,,,,,,,663e4706e326d67a17612551,Spain,younger than 13,"yes, I am fluent in another language",no,2025-08-12_14h06.06.983,empathy_intonation_perc,2024.2.4,MacIntel,62.89308176,663e4706e326d67a17612551,687ed1b7e638a4cbf2f02089,689b825b152460611ae12d60,,,,,,,,,,,,,,1,,,,,,,,,,,,,,,,,,,,,,,,,,,,,,,,,,,,,,,,,,,,,,,,,,,,,,,,,61,seda,,,,,589.5533,590.8566,0,0,0.7809,,0,54,54,60,1,REAL,FAKE,,,,,,,,,,,,,,,,,
,,,,,,,,,663e4706e326d67a17612551,Spain,younger than 13,"yes, I am fluent in another language",no,2025-08-12_14h06.06.983,empathy_intonation_perc,2024.2.4,MacIntel,62.89308176,663e4706e326d67a17612551,687ed1b7e638a4cbf2f02089,689b825b152460611ae12d60,,,,,,,,,,,,,,1,,,,,,,,,,,,,,,,,,,,,,,,,,,,,,,,,,,,,,,,,,,,,,,,,,,,,,,,,26,secuestro,,,,,590.8578,592.9277,1,1,1.5413,,0,55,55,25,1,REAL,FAKE,,,,,,,,,,,,,,,,,
,,,,,,,,,663e4706e326d67a17612551,Spain,younger than 13,"yes, I am fluent in another language",no,2025-08-12_14h06.06.983,empathy_intonation_perc,2024.2.4,MacIntel,62.89308176,663e4706e326d67a17612551,687ed1b7e638a4cbf2f02089,689b825b152460611ae12d60,,,,,,,,,,,,,,0,,,,,,,,,,,,,,,,,,,,,,,,,,,,,,,,,,,,,,,,,,,,,,,,,,,,,,,,,17,floroso,,,,,592.9285,594.3985,0,1,0.9555,,0,56,56,16,1,REAL,FAKE,,,,,,,,,,,,,,,,,
,,,,,,,,,663e4706e326d67a17612551,Spain,younger than 13,"yes, I am fluent in another language",no,2025-08-12_14h06.06.983,empathy_intonation_perc,2024.2.4,MacIntel,62.89308176,663e4706e326d67a17612551,687ed1b7e638a4cbf2f02089,689b825b152460611ae12d60,,,,,,,,,,,,,,1,,,,,,,,,,,,,,,,,,,,,,,,,,,,,,,,,,,,,,,,,,,,,,,,,,,,,,,,,62,flaco,,,,,594.3994,595.8354,1,1,0.9227,,0,57,57,61,1,REAL,FAKE,,,,,,,,,,,,,,,,,
,,,,,,,,,663e4706e326d67a17612551,Spain,younger than 13,"yes, I am fluent in another language",no,2025-08-12_14h06.06.983,empathy_intonation_perc,2024.2.4,MacIntel,62.89308176,663e4706e326d67a17612551,687ed1b7e638a4cbf2f02089,689b825b152460611ae12d60,,,,,,,,,,,,,,1,,,,,,,,,,,,,,,,,,,,,,,,,,,,,,,,,,,,,,,,,,,,,,,,,,,,,,,,,24,látigo,,,,,595.8366,597.1893,0,0,0.8413,,0,58,58,23,1,REAL,FAKE,,,,,,,,,,,,,,,,,
,,,,,,,,,663e4706e326d67a17612551,Spain,younger than 13,"yes, I am fluent in another language",no,2025-08-12_14h06.06.983,empathy_intonation_perc,2024.2.4,MacIntel,62.89308176,663e4706e326d67a17612551,687ed1b7e638a4cbf2f02089,689b825b152460611ae12d60,,,,,,,,,,,,,,1,,,,,,,,,,,,,,,,,,,,,,,,,,,,,,,,,,,,,,,,,,,,,,,,,,,,,,,,,89,prisa,,,,,597.1904,598.4819,0,0,0.7744,,0,59,59,88,1,REAL,FAKE,,,,,,,,,,,,,,,,,
,,,,,,,,,663e4706e326d67a17612551,Spain,younger than 13,"yes, I am fluent in another language",no,2025-08-12_14h06.06.983,empathy_intonation_perc,2024.2.4,MacIntel,62.89308176,663e4706e326d67a17612551,687ed1b7e638a4cbf2f02089,689b825b152460611ae12d60,,,,,,,,,,,,,,0,,,,,,,,,,,,,,,,,,,,,,,,,,,,,,,,,,,,,,,,,,,,,,,,,,,,,,,,,79,tropaje,,,,,598.4886,600.3138,0,1,1.2967,,0,60,60,78,1,REAL,FAKE,,,,,,,,,,,,,,,,,
,,,,,,,,,663e4706e326d67a17612551,Spain,younger than 13,"yes, I am fluent in another language",no,2025-08-12_14h06.06.983,empathy_intonation_perc,2024.2.4,MacIntel,62.89308176,663e4706e326d67a17612551,687ed1b7e638a4cbf2f02089,689b825b152460611ae12d60,,,,,,,,,,,,,,1,,,,,,,,,,,,,,,,,,,,,,,,,,,,,,,,,,,,,,,,,,,,,,,,,,,,,,,,,15,regar,,,,,600.3146,601.9024,1,1,1.0684,,0,61,61,14,1,REAL,FAKE,,,,,,,,,,,,,,,,,
,,,,,,,,,663e4706e326d67a17612551,Spain,younger than 13,"yes, I am fluent in another language",no,2025-08-12_14h06.06.983,empathy_intonation_perc,2024.2.4,MacIntel,62.89308176,663e4706e326d67a17612551,687ed1b7e638a4cbf2f02089,689b825b152460611ae12d60,,,,,,,,,,,,,,1,,,,,,,,,,,,,,,,,,,,,,,,,,,,,,,,,,,,,,,,,,,,,,,,,,,,,,,,,65,bizcocho,,,,,601.9035,603.3231,0,0,0.8985,,0,62,62,64,1,REAL,FAKE,,,,,,,,,,,,,,,,,
,,,,,,,,,663e4706e326d67a17612551,Spain,younger than 13,"yes, I am fluent in another language",no,2025-08-12_14h06.06.983,empathy_intonation_perc,2024.2.4,MacIntel,62.89308176,663e4706e326d67a17612551,687ed1b7e638a4cbf2f02089,689b825b152460611ae12d60,,,,,,,,,,,,,,0,,,,,,,,,,,,,,,,,,,,,,,,,,,,,,,,,,,,,,,,,,,,,,,,,,,,,,,,,92,click the 0 key.,,,,,603.3246,605.2103,0,1,1.3724,,0,63,63,91,1,REAL,FAKE,,,,,,,,,,,,,,,,,
,,,,,,,,,663e4706e326d67a17612551,Spain,younger than 13,"yes, I am fluent in another language",no,2025-08-12_14h06.06.983,empathy_intonation_perc,2024.2.4,MacIntel,62.89308176,663e4706e326d67a17612551,687ed1b7e638a4cbf2f02089,689b825b152460611ae12d60,,,,,,,,,,,,,,1,,,,,,,,,,,,,,,,,,,,,,,,,,,,,,,,,,,,,,,,,,,,,,,,,,,,,,,,,48,ladrón,,,,,605.2113,607.5005,0,0,1.7781,,0,64,64,47,1,REAL,FAKE,,,,,,,,,,,,,,,,,
,,,,,,,,,663e4706e326d67a17612551,Spain,younger than 13,"yes, I am fluent in another language",no,2025-08-12_14h06.06.983,empathy_intonation_perc,2024.2.4,MacIntel,62.89308176,663e4706e326d67a17612551,687ed1b7e638a4cbf2f02089,689b825b152460611ae12d60,,,,,,,,,,,,,,0,,,,,,,,,,,,,,,,,,,,,,,,,,,,,,,,,,,,,,,,,,,,,,,,,,,,,,,,,84,escuto,,,,,607.5017,609.1376,1,0,1.1178,,0,65,65,83,1,REAL,FAKE,,,,,,,,,,,,,,,,,
,,,,,,,,,663e4706e326d67a17612551,Spain,younger than 13,"yes, I am fluent in another language",no,2025-08-12_14h06.06.983,empathy_intonation_perc,2024.2.4,MacIntel,62.89308176,663e4706e326d67a17612551,687ed1b7e638a4cbf2f02089,689b825b152460611ae12d60,,,,,,,,,,,,,,1,,,,,,,,,,,,,,,,,,,,,,,,,,,,,,,,,,,,,,,,,,,,,,,,,,,,,,,,,20,ávido,,,,,609.1387,610.3576,1,1,0.708,,0,66,66,19,1,REAL,FAKE,,,,,,,,,,,,,,,,,
,,,,,,,,,663e4706e326d67a17612551,Spain,younger than 13,"yes, I am fluent in another language",no,2025-08-12_14h06.06.983,empathy_intonation_perc,2024.2.4,MacIntel,62.89308176,663e4706e326d67a17612551,687ed1b7e638a4cbf2f02089,689b825b152460611ae12d60,,,,,,,,,,,,,,1,,,,,,,,,,,,,,,,,,,,,,,,,,,,,,,,,,,,,,,,,,,,,,,,,,,,,,,,,2,pellizcar,,,,,610.3583,612.0296,1,1,1.1497,,0,67,67,1,1,REAL,FAKE,,,,,,,,,,,,,,,,,
,,,,,,,,,663e4706e326d67a17612551,Spain,younger than 13,"yes, I am fluent in another language",no,2025-08-12_14h06.06.983,empathy_intonation_perc,2024.2.4,MacIntel,62.89308176,663e4706e326d67a17612551,687ed1b7e638a4cbf2f02089,689b825b152460611ae12d60,,,,,,,,,,,,,,1,,,,,,,,,,,,,,,,,,,,,,,,,,,,,,,,,,,,,,,,,,,,,,,,,,,,,,,,,46,martillo,,,,,612.0308,614.0016,0,0,1.4522,,0,68,68,45,1,REAL,FAKE,,,,,,,,,,,,,,,,,
,,,,,,,,,663e4706e326d67a17612551,Spain,younger than 13,"yes, I am fluent in another language",no,2025-08-12_14h06.06.983,empathy_intonation_perc,2024.2.4,MacIntel,62.89308176,663e4706e326d67a17612551,687ed1b7e638a4cbf2f02089,689b825b152460611ae12d60,,,,,,,,,,,,,,1,,,,,,,,,,,,,,,,,,,,,,,,,,,,,,,,,,,,,,,,,,,,,,,,,,,,,,,,,28,merodear,,,,,614.0025,615.6219,0,0,1.0996,,0,69,69,27,1,REAL,FAKE,,,,,,,,,,,,,,,,,
,,,,,,,,,663e4706e326d67a17612551,Spain,younger than 13,"yes, I am fluent in another language",no,2025-08-12_14h06.06.983,empathy_intonation_perc,2024.2.4,MacIntel,62.89308176,663e4706e326d67a17612551,687ed1b7e638a4cbf2f02089,689b825b152460611ae12d60,,,,,,,,,,,,,,0,,,,,,,,,,,,,,,,,,,,,,,,,,,,,,,,,,,,,,,,,,,,,,,,,,,,,,,,,27,acutación,,,,,615.6232,617.7942,0,1,1.6579,,0,70,70,26,1,REAL,FAKE,,,,,,,,,,,,,,,,,
,,,,,,,,,663e4706e326d67a17612551,Spain,younger than 13,"yes, I am fluent in another language",no,2025-08-12_14h06.06.983,empathy_intonation_perc,2024.2.4,MacIntel,62.89308176,663e4706e326d67a17612551,687ed1b7e638a4cbf2f02089,689b825b152460611ae12d60,,,,,,,,,,,,,,1,,,,,,,,,,,,,,,,,,,,,,,,,,,,,,,,,,,,,,,,,,,,,,,,,,,,,,,,,69,engatusar,,,,,617.7953,619.3655,0,0,1.0503,,0,71,71,68,1,REAL,FAKE,,,,,,,,,,,,,,,,,
,,,,,,,,,663e4706e326d67a17612551,Spain,younger than 13,"yes, I am fluent in another language",no,2025-08-12_14h06.06.983,empathy_intonation_perc,2024.2.4,MacIntel,62.89308176,663e4706e326d67a17612551,687ed1b7e638a4cbf2f02089,689b825b152460611ae12d60,,,,,,,,,,,,,,1,,,,,,,,,,,,,,,,,,,,,,,,,,,,,,,,,,,,,,,,,,,,,,,,,,,,,,,,,13,helar,,,,,619.3667,620.7858,1,1,0.9109,,0,72,72,12,1,REAL,FAKE,,,,,,,,,,,,,,,,,
,,,,,,,,,663e4706e326d67a17612551,Spain,younger than 13,"yes, I am fluent in another language",no,2025-08-12_14h06.06.983,empathy_intonation_perc,2024.2.4,MacIntel,62.89308176,663e4706e326d67a17612551,687ed1b7e638a4cbf2f02089,689b825b152460611ae12d60,,,,,,,,,,,,,,1,,,,,,,,,,,,,,,,,,,,,,,,,,,,,,,,,,,,,,,,,,,,,,,,,,,,,,,,,76,atar,,,,,620.787,622.3065,0,0,1.005,,0,73,73,75,1,REAL,FAKE,,,,,,,,,,,,,,,,,
,,,,,,,,,663e4706e326d67a17612551,Spain,younger than 13,"yes, I am fluent in another language",no,2025-08-12_14h06.06.983,empathy_intonation_perc,2024.2.4,MacIntel,62.89308176,663e4706e326d67a17612551,687ed1b7e638a4cbf2f02089,689b825b152460611ae12d60,,,,,,,,,,,,,,0,,,,,,,,,,,,,,,,,,,,,,,,,,,,,,,,,,,,,,,,,,,,,,,,,,,,,,,,,8,cadeña,,,,,622.3073,623.945,0,1,1.1208,,0,74,74,7,1,REAL,FAKE,,,,,,,,,,,,,,,,,
,,,,,,,,,663e4706e326d67a17612551,Spain,younger than 13,"yes, I am fluent in another language",no,2025-08-12_14h06.06.983,empathy_intonation_perc,2024.2.4,MacIntel,62.89308176,663e4706e326d67a17612551,687ed1b7e638a4cbf2f02089,689b825b152460611ae12d60,,,,,,,,,,,,,,1,,,,,,,,,,,,,,,,,,,,,,,,,,,,,,,,,,,,,,,,,,,,,,,,,,,,,,,,,81,pozo,,,,,623.9464,625.5147,1,1,1.0327,,0,75,75,80,1,REAL,FAKE,,,,,,,,,,,,,,,,,
,,,,,,,,,663e4706e326d67a17612551,Spain,younger than 13,"yes, I am fluent in another language",no,2025-08-12_14h06.06.983,empathy_intonation_perc,2024.2.4,MacIntel,62.89308176,663e4706e326d67a17612551,687ed1b7e638a4cbf2f02089,689b825b152460611ae12d60,,,,,,,,,,,,,,1,,,,,,,,,,,,,,,,,,,,,,,,,,,,,,,,,,,,,,,,,,,,,,,,,,,,,,,,,54,fomentar,,,,,625.5157,627.069,0,0,1.0329,,0,76,76,53,1,REAL,FAKE,,,,,,,,,,,,,,,,,
,,,,,,,,,663e4706e326d67a17612551,Spain,younger than 13,"yes, I am fluent in another language",no,2025-08-12_14h06.06.983,empathy_intonation_perc,2024.2.4,MacIntel,62.89308176,663e4706e326d67a17612551,687ed1b7e638a4cbf2f02089,689b825b152460611ae12d60,,,,,,,,,,,,,,1,,,,,,,,,,,,,,,,,,,,,,,,,,,,,,,,,,,,,,,,,,,,,,,,,,,,,,,,,45,jilguero,,,,,627.0701,629.2246,1,1,1.6434,,0,77,77,44,1,REAL,FAKE,,,,,,,,,,,,,,,,,
,,,,,,,,,663e4706e326d67a17612551,Spain,younger than 13,"yes, I am fluent in another language",no,2025-08-12_14h06.06.983,empathy_intonation_perc,2024.2.4,MacIntel,62.89308176,663e4706e326d67a17612551,687ed1b7e638a4cbf2f02089,689b825b152460611ae12d60,,,,,,,,,,,,,,0,,,,,,,,,,,,,,,,,,,,,,,,,,,,,,,,,,,,,,,,,,,,,,,,,,,,,,,,,58,plaudir,,,,,629.2257,630.6619,1,0,0.925,,0,78,78,57,1,REAL,FAKE,,,,,,,,,,,,,,,,,
,,,,,,,,,663e4706e326d67a17612551,Spain,younger than 13,"yes, I am fluent in another language",no,2025-08-12_14h06.06.983,empathy_intonation_perc,2024.2.4,MacIntel,62.89308176,663e4706e326d67a17612551,687ed1b7e638a4cbf2f02089,689b825b152460611ae12d60,,,,,,,,,,,,,,1,,,,,,,,,,,,,,,,,,,,,,,,,,,,,,,,,,,,,,,,,,,,,,,,,,,,,,,,,40,alfombra,,,,,630.6626,631.9818,0,0,0.8062,,0,79,79,39,1,REAL,FAKE,,,,,,,,,,,,,,,,,
,,,,,,,,,663e4706e326d67a17612551,Spain,younger than 13,"yes, I am fluent in another language",no,2025-08-12_14h06.06.983,empathy_intonation_perc,2024.2.4,MacIntel,62.89308176,663e4706e326d67a17612551,687ed1b7e638a4cbf2f02089,689b825b152460611ae12d60,,,,,,,,,,,,,,1,,,,,,,,,,,,,,,,,,,,,,,,,,,,,,,,,,,,,,,,,,,,,,,,,,,,,,,,,44,cuchara,,,,,631.9828,633.6037,1,1,1.1024,,0,80,80,43,1,REAL,FAKE,,,,,,,,,,,,,,,,,
,,,,,,,,,663e4706e326d67a17612551,Spain,younger than 13,"yes, I am fluent in another language",no,2025-08-12_14h06.06.983,empathy_intonation_perc,2024.2.4,MacIntel,62.89308176,663e4706e326d67a17612551,687ed1b7e638a4cbf2f02089,689b825b152460611ae12d60,,,,,,,,,,,,,,1,,,,,,,,,,,,,,,,,,,,,,,,,,,,,,,,,,,,,,,,,,,,,,,,,,,,,,,,,37,granuja,,,,,633.6046,635.5258,1,1,1.4092,,0,81,81,36,1,REAL,FAKE,,,,,,,,,,,,,,,,,
,,,,,,,,,663e4706e326d67a17612551,Spain,younger than 13,"yes, I am fluent in another language",no,2025-08-12_14h06.06.983,empathy_intonation_perc,2024.2.4,MacIntel,62.89308176,663e4706e326d67a17612551,687ed1b7e638a4cbf2f02089,689b825b152460611ae12d60,,,,,,,,,,,,,,1,,,,,,,,,,,,,,,,,,,,,,,,,,,,,,,,,,,,,,,,,,,,,,,,,,,,,,,,,83,guante,,,,,635.527,636.7951,1,1,0.7391,,0,82,82,82,1,REAL,FAKE,,,,,,,,,,,,,,,,,
,,,,,,,,,663e4706e326d67a17612551,Spain,younger than 13,"yes, I am fluent in another language",no,2025-08-12_14h06.06.983,empathy_intonation_perc,2024.2.4,MacIntel,62.89308176,663e4706e326d67a17612551,687ed1b7e638a4cbf2f02089,689b825b152460611ae12d60,,,,,,,,,,,,,,1,,,,,,,,,,,,,,,,,,,,,,,,,,,,,,,,,,,,,,,,,,,,,,,,,,,,,,,,,22,lacayo,,,,,636.7961,638.2833,0,0,0.9683,,0,83,83,21,1,REAL,FAKE,,,,,,,,,,,,,,,,,
,,,,,,,,,663e4706e326d67a17612551,Spain,younger than 13,"yes, I am fluent in another language",no,2025-08-12_14h06.06.983,empathy_intonation_perc,2024.2.4,MacIntel,62.89308176,663e4706e326d67a17612551,687ed1b7e638a4cbf2f02089,689b825b152460611ae12d60,,,,,,,,,,,,,,1,,,,,,,,,,,,,,,,,,,,,,,,,,,,,,,,,,,,,,,,,,,,,,,,,,,,,,,,,90,clavel,,,,,638.2842,640.1707,0,0,1.3545,,0,84,84,89,1,REAL,FAKE,,,,,,,,,,,,,,,,,
,,,,,,,,,663e4706e326d67a17612551,Spain,younger than 13,"yes, I am fluent in another language",no,2025-08-12_14h06.06.983,empathy_intonation_perc,2024.2.4,MacIntel,62.89308176,663e4706e326d67a17612551,687ed1b7e638a4cbf2f02089,689b825b152460611ae12d60,,,,,,,,,,,,,,1,,,,,,,,,,,,,,,,,,,,,,,,,,,,,,,,,,,,,,,,,,,,,,,,,,,,,,,,,55,nevar,,,,,640.1715,641.7084,1,1,1.0255,,0,85,85,54,1,REAL,FAKE,,,,,,,,,,,,,,,,,
,,,,,,,,,663e4706e326d67a17612551,Spain,younger than 13,"yes, I am fluent in another language",no,2025-08-12_14h06.06.983,empathy_intonation_perc,2024.2.4,MacIntel,62.89308176,663e4706e326d67a17612551,687ed1b7e638a4cbf2f02089,689b825b152460611ae12d60,,,,,,,,,,,,,,1,,,,,,,,,,,,,,,,,,,,,,,,,,,,,,,,,,,,,,,,,,,,,,,,,,,,,,,,,77,tiburón,,,,,641.7093,642.9957,0,0,0.7751,,0,86,86,76,1,REAL,FAKE,,,,,,,,,,,,,,,,,
,,,,,,,,,663e4706e326d67a17612551,Spain,younger than 13,"yes, I am fluent in another language",no,2025-08-12_14h06.06.983,empathy_intonation_perc,2024.2.4,MacIntel,62.89308176,663e4706e326d67a17612551,687ed1b7e638a4cbf2f02089,689b825b152460611ae12d60,,,,,,,,,,,,,,0,,,,,,,,,,,,,,,,,,,,,,,,,,,,,,,,,,,,,,,,,,,,,,,,,,,,,,,,,23,lampera,,,,,642.9968,644.4984,1,0,0.966,,0,87,87,22,1,REAL,FAKE,,,,,,,,,,,,,,,,,
,,,,,,,,,663e4706e326d67a17612551,Spain,younger than 13,"yes, I am fluent in another language",no,2025-08-12_14h06.06.983,empathy_intonation_perc,2024.2.4,MacIntel,62.89308176,663e4706e326d67a17612551,687ed1b7e638a4cbf2f02089,689b825b152460611ae12d60,,,,,,,,,,,,,,0,,,,,,,,,,,,,,,,,,,,,,,,,,,,,,,,,,,,,,,,,,,,,,,,,,,,,,,,,30,alardio,,,,,644.4991,646.203,0,1,1.1907,,0,88,88,29,1,REAL,FAKE,,,,,,,,,,,,,,,,,
,,,,,,,,,663e4706e326d67a17612551,Spain,younger than 13,"yes, I am fluent in another language",no,2025-08-12_14h06.06.983,empathy_intonation_perc,2024.2.4,MacIntel,62.89308176,663e4706e326d67a17612551,687ed1b7e638a4cbf2f02089,689b825b152460611ae12d60,,,,,,,,,,,,,,0,,,,,,,,,,,,,,,,,,,,,,,,,,,,,,,,,,,,,,,,,,,,,,,,,,,,,,,,,32,fatacidad,,,,,646.204,648.5429,0,1,1.8197,,0,89,89,31,1,REAL,FAKE,,,,,,,,,,,,,,,,,
,,,,,,,,,663e4706e326d67a17612551,Spain,younger than 13,"yes, I am fluent in another language",no,2025-08-12_14h06.06.983,empathy_intonation_perc,2024.2.4,MacIntel,62.89308176,663e4706e326d67a17612551,687ed1b7e638a4cbf2f02089,689b825b152460611ae12d60,,,,,,,,,,,,,,1,,,,,,,,,,,,,,,,,,,,,,,,,,,,,,,,,,,,,,,,,,,,,,,,,,,,,,,,,91,click the 1 key.,,,,,648.5437,650.0143,1,1,0.954,,0,90,90,90,1,REAL,FAKE,,,,,,,,,,,,,,,,,
,,,,,,,,,663e4706e326d67a17612551,Spain,younger than 13,"yes, I am fluent in another language",no,2025-08-12_14h06.06.983,empathy_intonation_perc,2024.2.4,MacIntel,62.89308176,663e4706e326d67a17612551,687ed1b7e638a4cbf2f02089,689b825b152460611ae12d60,,,,,,,,,,,,,,0,,,,,,,,,,,,,,,,,,,,,,,,,,,,,,,,,,,,,,,,,,,,,,,,,,,,,,,,,82,empirador,,,,,650.0154,651.7519,1,0,1.2185,,0,91,91,81,1,REAL,FAKE,,,,,,,,,,,,,,,,,
,,,,,,,,,663e4706e326d67a17612551,Spain,younger than 13,"yes, I am fluent in another language",no,2025-08-12_14h06.06.983,empathy_intonation_perc,2024.2.4,MacIntel,62.89308176,663e4706e326d67a17612551,687ed1b7e638a4cbf2f02089,689b825b152460611ae12d60,,,,,,,,,,,,,,,,,,,,,,,,,,,,,,,,,,,,,,,,,,,,,,,,,,,,,,,,,,,,,,,,,,,,,,,,,,,,,,,,,,,,,,,,,,651.7523,659.2049,,,,,,,,,,,,,,,
,,,,,,,,,663e4706e326d67a17612551,Spain,younger than 13,"yes, I am fluent in another language",no,2025-08-12_14h06.06.983,empathy_intonation_perc,2024.2.4,MacIntel,62.89308176,663e4706e326d67a17612551,687ed1b7e638a4cbf2f02089,689b825b152460611ae12d60,,,,,,,,,,,,,1,,,,,,,,,,,,,,,,,,,,,,,,,,,,,,,,,,,,,,,,,,,,,,,,,,,,,,,,,,,,,,,,,,,,,,,,,,,,,,,659.254,664.6708,strongly agree,0,0,0,0,1,I can easily tell if someone else wants to enter a conversation.,1,0,1,0,,
,,,,,,,,,663e4706e326d67a17612551,Spain,younger than 13,"yes, I am fluent in another language",no,2025-08-12_14h06.06.983,empathy_intonation_perc,2024.2.4,MacIntel,62.89308176,663e4706e326d67a17612551,687ed1b7e638a4cbf2f02089,689b825b152460611ae12d60,,,,,,,,,,,,,2,,,,,,,,,,,,,,,,,,,,,,,,,,,,,,,,,,,,,,,,,,,,,,,,,,,,,,,,,,,,,,,,,,,,,,,,,,,,,,,664.69,667.8779,strongly agree,0,1,1,1,1,I prefer animals to humans.,0,1,0,0,,
,,,,,,,,,663e4706e326d67a17612551,Spain,younger than 13,"yes, I am fluent in another language",no,2025-08-12_14h06.06.983,empathy_intonation_perc,2024.2.4,MacIntel,62.89308176,663e4706e326d67a17612551,687ed1b7e638a4cbf2f02089,689b825b152460611ae12d60,,,,,,,,,,,,,3,,,,,,,,,,,,,,,,,,,,,,,,,,,,,,,,,,,,,,,,,,,,,,,,,,,,,,,,,,,,,,,,,,,,,,,,,,,,,,,667.8799,670.0342,strongly agree,0,2,2,2,1,I try to keep up with the current trends and fashions.,0,1,0,0,,
