instructions_exposure.started,instructions_exposure.stopped,instructions_exposure_loop.thisRepN,instructions_exposure_loop.thisTrialN,instructions_exposure_loop.thisN,instructions_exposure_loop.thisIndex,instructions_exposure_loop.ran,instructions_text,continue_text,participant_id,"What variety of Spanish are you most familiar with? (e.g., Peruvian, Spanish, Mexican)",At what age did you begin learning Spanish?,Are you proficient in any languages other than English/Spanish?,"Are you familiar with Caribbean (e.g., Caribbean, Puerto Rican) or Galician Spanish?",date,expName,psychopyVersion,OS,frameRate,id,study_id,session,trial_exposure.started,trial_exposure.stopped,key_resp_exposure.keys,key_resp_exposure.corr,key_resp_exposure.rt,key_resp_exposure.duration,key_resp.keys,exposure_loop.thisRepN,exposure_loop.thisTrialN,exposure_loop.thisN,exposure_loop.thisIndex,exposure_loop.ran,item_num,correct_response,question,path,duration,instructions_2afc.started,instructions_2afc.stopped,instructions_2afc_loop.thisRepN,instructions_2afc_loop.thisTrialN,instructions_2afc_loop.thisN,instructions_2afc_loop.thisIndex,instructions_2afc_loop.ran,practice_2afc.started,practice_2afc.stopped,key_resp_2afc_practice.keys,key_resp_2afc_practice.corr,key_resp_2afc_practice.rt,key_resp_2afc_practice.duration,trials_2afc_practice_loop.thisRepN,trials_2afc_practice_loop.thisTrialN,trials_2afc_practice_loop.thisN,trials_2afc_practice_loop.thisIndex,trials_2afc_practice_loop.ran,check_2afc.started,check_2afc.stopped,trial_2afc.started,trial_2afc.stopped,key_resp_2afc_trial.keys,key_resp_2afc_trial.corr,key_resp_2afc_trial.rt,key_resp_2afc_trial.duration,trials_2afc_loop.thisRepN,trials_2afc_loop.thisTrialN,trials_2afc_loop.thisN,trials_2afc_loop.thisIndex,trials_2afc_loop.ran,target,variety,instructions_lextale.started,instructions_lextale.stopped,instructions_lextale_loop.thisRepN,instructions_lextale_loop.thisTrialN,instructions_lextale_loop.thisN,instructions_lextale_loop.thisIndex,instructions_lextale_loop.ran,practice_lextale.started,practice_lextale.stopped,key_resp_lextale_practice.keys,key_resp_lextale_practice.corr,key_resp_lextale_practice.rt,key_resp_lextale_practice.duration,practice_feedback_lextale.started,practice_feedback_lextale.stopped,trials_lextale_practice_loop.thisRepN,trials_lextale_practice_loop.thisTrialN,trials_lextale_practice_loop.thisN,trials_lextale_practice_loop.thisIndex,trials_lextale_practice_loop.ran,stim,word,prac_button_real,prac_button_false,check_lextale.started,check_lextale.stopped,trial_lextale.started,trial_lextale.stopped,key_resp_lextale_trial.keys,key_resp_lextale_trial.corr,key_resp_lextale_trial.rt,key_resp_lextale_trial.duration,trials_lextale_loop.thisRepN,trials_lextale_loop.thisTrialN,trials_lextale_loop.thisN,trials_lextale_loop.thisIndex,trials_lextale_loop.ran,button_real,button_false,instructions_eq.started,instructions_eq.stopped,trial_eq.started,trial_eq.stopped,slider_eq_trial.response,trials_eq_loop.thisRepN,trials_eq_loop.thisTrialN,trials_eq_loop.thisN,trials_eq_loop.thisIndex,trials_eq_loop.ran,item,is_test_item,is_distractor,is_agree_score,is_disagree_score,end_exp.started,end_exp.stopped
0.0755,6.2211,0,0,0,0,1,"In the following task, you are going to hear a series of conversations.", (press the space bar to continue),663fac4f53bae2b144be83f2,Spanish,13 or older,"no, only English or Spanish",no,2025-07-23_08h16.57.996,empathy_intonation_perc,2024.2.4,Win32,59.52380952,663fac4f53bae2b144be83f2,687ed1b7e638a4cbf2f02089,6880d246893c23c213ed2004,,,,,,,,,,,,,,,,,,,,,,,,,,,,,,,,,,,,,,,,,,,,,,,,,,,,,,,,,,,,,,,,,,,,,,,,,,,,,,,,,,,,,,,,,,,,,,,,,,,,,,,,,,
6.2224,9.0381,0,1,1,1,1,It is okay if you don't not 100% understand them!, (press the space bar to continue),663fac4f53bae2b144be83f2,Spanish,13 or older,"no, only English or Spanish",no,2025-07-23_08h16.57.996,empathy_intonation_perc,2024.2.4,Win32,59.52380952,663fac4f53bae2b144be83f2,687ed1b7e638a4cbf2f02089,6880d246893c23c213ed2004,,,,,,,,,,,,,,,,,,,,,,,,,,,,,,,,,,,,,,,,,,,,,,,,,,,,,,,,,,,,,,,,,,,,,,,,,,,,,,,,,,,,,,,,,,,,,,,,,,,,,,,,,,
9.0415,16.3691,0,2,2,2,1,"After, you will read a sentence about the conversation and decide if it's true or false.", (press the space bar to continue),663fac4f53bae2b144be83f2,Spanish,13 or older,"no, only English or Spanish",no,2025-07-23_08h16.57.996,empathy_intonation_perc,2024.2.4,Win32,59.52380952,663fac4f53bae2b144be83f2,687ed1b7e638a4cbf2f02089,6880d246893c23c213ed2004,,,,,,,,,,,,,,,,,,,,,,,,,,,,,,,,,,,,,,,,,,,,,,,,,,,,,,,,,,,,,,,,,,,,,,,,,,,,,,,,,,,,,,,,,,,,,,,,,,,,,,,,,,
16.3733,22.2341,0,3,3,3,1,"If it's true, press '1' (True) and if it's false press '0' (False).", (press the space bar to continue),663fac4f53bae2b144be83f2,Spanish,13 or older,"no, only English or Spanish",no,2025-07-23_08h16.57.996,empathy_intonation_perc,2024.2.4,Win32,59.52380952,663fac4f53bae2b144be83f2,687ed1b7e638a4cbf2f02089,6880d246893c23c213ed2004,,,,,,,,,,,,,,,,,,,,,,,,,,,,,,,,,,,,,,,,,,,,,,,,,,,,,,,,,,,,,,,,,,,,,,,,,,,,,,,,,,,,,,,,,,,,,,,,,,,,,,,,,,
,,,,,,,,,663fac4f53bae2b144be83f2,Spanish,13 or older,"no, only English or Spanish",no,2025-07-23_08h16.57.996,empathy_intonation_perc,2024.2.4,Win32,59.52380952,663fac4f53bae2b144be83f2,687ed1b7e638a4cbf2f02089,6880d246893c23c213ed2004,22.2574,77.5426,0,1,19.2307,,,0,0,0,2,1,3,0,The mom already has rice.,./stim/exposure_wavs/pr_stimuli_convo.wav,36,,,,,,,,,,,,,,,,,,,,,,,,,,,,,,,,,,,,,,,,,,,,,,,,,,,,,,,,,,,,,,,,,,,,,,,,,,,,,,,,,,,,,,,,,
,,,,,,,,,663fac4f53bae2b144be83f2,Spanish,13 or older,"no, only English or Spanish",no,2025-07-23_08h16.57.996,empathy_intonation_perc,2024.2.4,Win32,59.52380952,663fac4f53bae2b144be83f2,687ed1b7e638a4cbf2f02089,6880d246893c23c213ed2004,77.55,147.8592,1,1,23.2817,,,0,1,1,0,1,1,1,The son asked the mom if Aunt Marina is okay.,./stim/exposure_wavs/ga_stimuli_convo.wav,47,,,,,,,,,,,,,,,,,,,,,,,,,,,,,,,,,,,,,,,,,,,,,,,,,,,,,,,,,,,,,,,,,,,,,,,,,,,,,,,,,,,,,,,,,
,,,,,,,,,663fac4f53bae2b144be83f2,Spanish,13 or older,"no, only English or Spanish",no,2025-07-23_08h16.57.996,empathy_intonation_perc,2024.2.4,Win32,59.52380952,663fac4f53bae2b144be83f2,687ed1b7e638a4cbf2f02089,6880d246893c23c213ed2004,147.8662,215.3848,1,1,7.4727,,,0,2,2,1,1,2,1,The mom asked the daughter if she already went to the supermarket.,./stim/exposure_wavs/dr_stimuli_convo.wav,60,,,,,,,,,,,,,,,,,,,,,,,,,,,,,,,,,,,,,,,,,,,,,,,,,,,,,,,,,,,,,,,,,,,,,,,,,,,,,,,,,,,,,,,,,
,,,,,,,"In the following task you are going to hear a series of utterances. 

  You will decide if the utterances sound like questions or not using your keyboard.", (press the spacebar to continue),663fac4f53bae2b144be83f2,Spanish,13 or older,"no, only English or Spanish",no,2025-07-23_08h16.57.996,empathy_intonation_perc,2024.2.4,Win32,59.52380952,663fac4f53bae2b144be83f2,687ed1b7e638a4cbf2f02089,6880d246893c23c213ed2004,,,,,,,,,,,,,,,,,,215.398,227.3243,0,0,0,0,1,,,,,,,,,,,,,,,,,,,,,,,,,,,,,,,,,,,,,,,,,,,,,,,,,,,,,,,,,,,,,,,,,,,,,,,,,,,,,,,,,,
,,,,,,,"If you believe the utterance is a question, type '1' (for 'yes') and if you do not 
  believe it is a question type '0' (for 'no').

  Let's practice a bit...", (press the spacebar to continue),663fac4f53bae2b144be83f2,Spanish,13 or older,"no, only English or Spanish",no,2025-07-23_08h16.57.996,empathy_intonation_perc,2024.2.4,Win32,59.52380952,663fac4f53bae2b144be83f2,687ed1b7e638a4cbf2f02089,6880d246893c23c213ed2004,,,,,,,,,,,,,,,,,,227.3282,235.0393,0,1,1,1,1,,,,,,,,,,,,,,,,,,,,,,,,,,,,,,,,,,,,,,,,,,,,,,,,,,,,,,,,,,,,,,,,,,,,,,,,,,,,,,,,,,
,,,,,,,,,663fac4f53bae2b144be83f2,Spanish,13 or older,"no, only English or Spanish",no,2025-07-23_08h16.57.996,empathy_intonation_perc,2024.2.4,Win32,59.52380952,663fac4f53bae2b144be83f2,687ed1b7e638a4cbf2f02089,6880d246893c23c213ed2004,,,,,,,,,,,,,,0,,./stim/wavs/peruvian_statement_filler_El-nino-habla-con-su-madre.wav,,,,,,,,,235.0596,244.7217,0,1,9.1366,,0,0,0,6,1,,,,,,,,,,,,,,,,,,,,,,,,,,,,,,,,,,,,,,,,,,,,,,,,,,,,,,,,,,,,,,,,,,,,,,,
,,,,,,,,,663fac4f53bae2b144be83f2,Spanish,13 or older,"no, only English or Spanish",no,2025-07-23_08h16.57.996,empathy_intonation_perc,2024.2.4,Win32,59.52380952,663fac4f53bae2b144be83f2,687ed1b7e638a4cbf2f02089,6880d246893c23c213ed2004,,,,,,,,,,,,,,1,,./stim/wavs/chilean_question_filler_Mi-padre-cantaba-bien.wav,,,,,,,,,244.7232,248.0325,1,1,2.787,,0,1,1,2,1,,,,,,,,,,,,,,,,,,,,,,,,,,,,,,,,,,,,,,,,,,,,,,,,,,,,,,,,,,,,,,,,,,,,,,,
,,,,,,,,,663fac4f53bae2b144be83f2,Spanish,13 or older,"no, only English or Spanish",no,2025-07-23_08h16.57.996,empathy_intonation_perc,2024.2.4,Win32,59.52380952,663fac4f53bae2b144be83f2,687ed1b7e638a4cbf2f02089,6880d246893c23c213ed2004,,,,,,,,,,,,,,0,,./stim/wavs/andalusian_statement_filler_Alberto-nunca-se-afeita.wav,,,,,,,,,248.0343,250.3963,0,1,1.845,,0,2,2,5,1,,,,,,,,,,,,,,,,,,,,,,,,,,,,,,,,,,,,,,,,,,,,,,,,,,,,,,,,,,,,,,,,,,,,,,,
,,,,,,,,,663fac4f53bae2b144be83f2,Spanish,13 or older,"no, only English or Spanish",no,2025-07-23_08h16.57.996,empathy_intonation_perc,2024.2.4,Win32,59.52380952,663fac4f53bae2b144be83f2,687ed1b7e638a4cbf2f02089,6880d246893c23c213ed2004,,,,,,,,,,,,,,1,,./stim/wavs/castilian_question_filler_Mi-esposo-conoce-al-chico.wav,,,,,,,,,250.3975,253.0062,1,1,2.0865,,0,3,3,0,1,,,,,,,,,,,,,,,,,,,,,,,,,,,,,,,,,,,,,,,,,,,,,,,,,,,,,,,,,,,,,,,,,,,,,,,
,,,,,,,,,663fac4f53bae2b144be83f2,Spanish,13 or older,"no, only English or Spanish",no,2025-07-23_08h16.57.996,empathy_intonation_perc,2024.2.4,Win32,59.52380952,663fac4f53bae2b144be83f2,687ed1b7e638a4cbf2f02089,6880d246893c23c213ed2004,,,,,,,,,,,,,,1,,./stim/wavs/argentine_question_filler_Mi-vecino-habla-mucho.wav,,,,,,,,,253.0075,255.0803,1,1,1.545,,0,4,4,1,1,,,,,,,,,,,,,,,,,,,,,,,,,,,,,,,,,,,,,,,,,,,,,,,,,,,,,,,,,,,,,,,,,,,,,,,
,,,,,,,,,663fac4f53bae2b144be83f2,Spanish,13 or older,"no, only English or Spanish",no,2025-07-23_08h16.57.996,empathy_intonation_perc,2024.2.4,Win32,59.52380952,663fac4f53bae2b144be83f2,687ed1b7e638a4cbf2f02089,6880d246893c23c213ed2004,,,,,,,,,,,,,,0,,./stim/wavs/cuban_statement_filler_Cocinabas-por-la-noche.wav,,,,,,,,,255.0816,257.2553,0,1,1.6263,,0,5,5,4,1,,,,,,,,,,,,,,,,,,,,,,,,,,,,,,,,,,,,,,,,,,,,,,,,,,,,,,,,,,,,,,,,,,,,,,,
,,,,,,,,,663fac4f53bae2b144be83f2,Spanish,13 or older,"no, only English or Spanish",no,2025-07-23_08h16.57.996,empathy_intonation_perc,2024.2.4,Win32,59.52380952,663fac4f53bae2b144be83f2,687ed1b7e638a4cbf2f02089,6880d246893c23c213ed2004,,,,,,,,,,,,,,1,,./stim/wavs/mexican_question_filler_Felipe-no-tiene-contrasena.wav,,,,,,,,,257.2562,259.4581,1,1,1.6794,,0,6,6,3,1,,,,,,,,,,,,,,,,,,,,,,,,,,,,,,,,,,,,,,,,,,,,,,,,,,,,,,,,,,,,,,,,,,,,,,,
,,,,,,,,,663fac4f53bae2b144be83f2,Spanish,13 or older,"no, only English or Spanish",no,2025-07-23_08h16.57.996,empathy_intonation_perc,2024.2.4,Win32,59.52380952,663fac4f53bae2b144be83f2,687ed1b7e638a4cbf2f02089,6880d246893c23c213ed2004,,,,,,,,,,,,,,0,,./stim/wavs/puertorican_statement_filler_La-nina-pinta-con-su-amiga.wav,,,,,,,,,259.4591,261.8411,0,1,1.8629,,0,7,7,7,1,,,,,,,,,,,,,,,,,,,,,,,,,,,,,,,,,,,,,,,,,,,,,,,,,,,,,,,,,,,,,,,,,,,,,,,
,,,,,,,,,663fac4f53bae2b144be83f2,Spanish,13 or older,"no, only English or Spanish",no,2025-07-23_08h16.57.996,empathy_intonation_perc,2024.2.4,Win32,59.52380952,663fac4f53bae2b144be83f2,687ed1b7e638a4cbf2f02089,6880d246893c23c213ed2004,,,,,,,,,,,,,,,,,,,,,,,,,,,,,,,,,,,,261.8417,270.2551,,,,,,,,,,,,,,,,,,,,,,,,,,,,,,,,,,,,,,,,,,,,,,,,,,,,,,,,,,,,,,,,,,,,,
,,,,,,,,,663fac4f53bae2b144be83f2,Spanish,13 or older,"no, only English or Spanish",no,2025-07-23_08h16.57.996,empathy_intonation_perc,2024.2.4,Win32,59.52380952,663fac4f53bae2b144be83f2,687ed1b7e638a4cbf2f02089,6880d246893c23c213ed2004,,,,,,,,,,,,,22,1,,./stim/wavs/puertorican_match_interrogative-total-yn_Emilio-ama-la-marcha.wav,,,,,,,,,,,,,,,,,,,,,,270.3048,272.4343,1,1,1.5965,,0,0,0,21,1,1,puertorican,,,,,,,,,,,,,,,,,,,,,,,,,,,,,,,,,,,,,,,,,,,,,,,,,,,,,,,,
,,,,,,,,,663fac4f53bae2b144be83f2,Spanish,13 or older,"no, only English or Spanish",no,2025-07-23_08h16.57.996,empathy_intonation_perc,2024.2.4,Win32,59.52380952,663fac4f53bae2b144be83f2,687ed1b7e638a4cbf2f02089,6880d246893c23c213ed2004,,,,,,,,,,,,,82,0,,./stim/wavs/mexican_mismatch_declarative-broad-focus_Mi-novio-viene-del-lago.wav,,,,,,,,,,,,,,,,,,,,,,272.4356,274.3544,0,1,1.3761,,0,1,1,81,1,0,mexican,,,,,,,,,,,,,,,,,,,,,,,,,,,,,,,,,,,,,,,,,,,,,,,,,,,,,,,,
,,,,,,,,,663fac4f53bae2b144be83f2,Spanish,13 or older,"no, only English or Spanish",no,2025-07-23_08h16.57.996,empathy_intonation_perc,2024.2.4,Win32,59.52380952,663fac4f53bae2b144be83f2,687ed1b7e638a4cbf2f02089,6880d246893c23c213ed2004,,,,,,,,,,,,,4,1,,./stim/wavs/castilian_match_interrogative-total-yn_Maria-bebe-el-vino.wav,,,,,,,,,,,,,,,,,,,,,,274.3558,276.5189,1,1,1.6395,,0,2,2,3,1,0,castilian,,,,,,,,,,,,,,,,,,,,,,,,,,,,,,,,,,,,,,,,,,,,,,,,,,,,,,,,
,,,,,,,,,663fac4f53bae2b144be83f2,Spanish,13 or older,"no, only English or Spanish",no,2025-07-23_08h16.57.996,empathy_intonation_perc,2024.2.4,Win32,59.52380952,663fac4f53bae2b144be83f2,687ed1b7e638a4cbf2f02089,6880d246893c23c213ed2004,,,,,,,,,,,,,38,1,,./stim/wavs/mexican_mismatch_interrogative-total-yn_Mi-novio-viene-del-lago.wav,,,,,,,,,,,,,,,,,,,,,,276.5205,278.9036,1,1,1.6913,,0,3,3,37,1,0,mexican,,,,,,,,,,,,,,,,,,,,,,,,,,,,,,,,,,,,,,,,,,,,,,,,,,,,,,,,
,,,,,,,,,663fac4f53bae2b144be83f2,Spanish,13 or older,"no, only English or Spanish",no,2025-07-23_08h16.57.996,empathy_intonation_perc,2024.2.4,Win32,59.52380952,663fac4f53bae2b144be83f2,687ed1b7e638a4cbf2f02089,6880d246893c23c213ed2004,,,,,,,,,,,,,51,0,,./stim/wavs/cuban_match_declarative-broad-focus_Ana-lleva-el-abrigo.wav,,,,,,,,,,,,,,,,,,,,,,278.9047,282.0949,1,0,2.6617,,0,4,4,50,1,0,cuban,,,,,,,,,,,,,,,,,,,,,,,,,,,,,,,,,,,,,,,,,,,,,,,,,,,,,,,,
,,,,,,,,,663fac4f53bae2b144be83f2,Spanish,13 or older,"no, only English or Spanish",no,2025-07-23_08h16.57.996,empathy_intonation_perc,2024.2.4,Win32,59.52380952,663fac4f53bae2b144be83f2,687ed1b7e638a4cbf2f02089,6880d246893c23c213ed2004,,,,,,,,,,,,,29,1,,./stim/wavs/castilian_mismatch_interrogative-total-yn_Mi-tia-odia-la-lluvia.wav,,,,,,,,,,,,,,,,,,,,,,282.0959,284.4232,1,1,1.8084,,0,5,5,28,1,0,castilian,,,,,,,,,,,,,,,,,,,,,,,,,,,,,,,,,,,,,,,,,,,,,,,,,,,,,,,,
,,,,,,,,,663fac4f53bae2b144be83f2,Spanish,13 or older,"no, only English or Spanish",no,2025-07-23_08h16.57.996,empathy_intonation_perc,2024.2.4,Win32,59.52380952,663fac4f53bae2b144be83f2,687ed1b7e638a4cbf2f02089,6880d246893c23c213ed2004,,,,,,,,,,,,,76,0,,./stim/wavs/cuban_mismatch_declarative-broad-focus_La-nina-lava-el-plato.wav,,,,,,,,,,,,,,,,,,,,,,284.4242,286.7857,0,1,1.8366,,0,6,6,75,1,0,cuban,,,,,,,,,,,,,,,,,,,,,,,,,,,,,,,,,,,,,,,,,,,,,,,,,,,,,,,,
,,,,,,,,,663fac4f53bae2b144be83f2,Spanish,13 or older,"no, only English or Spanish",no,2025-07-23_08h16.57.996,empathy_intonation_perc,2024.2.4,Win32,59.52380952,663fac4f53bae2b144be83f2,687ed1b7e638a4cbf2f02089,6880d246893c23c213ed2004,,,,,,,,,,,,,21,1,,./stim/wavs/puertorican_match_interrogative-total-yn_David-leia-el-libro.wav,,,,,,,,,,,,,,,,,,,,,,286.7868,289.0736,0,0,1.774,,0,7,7,20,1,1,puertorican,,,,,,,,,,,,,,,,,,,,,,,,,,,,,,,,,,,,,,,,,,,,,,,,,,,,,,,,
,,,,,,,,,663fac4f53bae2b144be83f2,Spanish,13 or older,"no, only English or Spanish",no,2025-07-23_08h16.57.996,empathy_intonation_perc,2024.2.4,Win32,59.52380952,663fac4f53bae2b144be83f2,687ed1b7e638a4cbf2f02089,6880d246893c23c213ed2004,,,,,,,,,,,,,77,0,,./stim/wavs/cuban_mismatch_declarative-broad-focus_Mi-novio-viene-del-lago.wav,,,,,,,,,,,,,,,,,,,,,,289.0744,291.3315,0,1,1.7187,,0,8,8,76,1,0,cuban,,,,,,,,,,,,,,,,,,,,,,,,,,,,,,,,,,,,,,,,,,,,,,,,,,,,,,,,
,,,,,,,,,663fac4f53bae2b144be83f2,Spanish,13 or older,"no, only English or Spanish",no,2025-07-23_08h16.57.996,empathy_intonation_perc,2024.2.4,Win32,59.52380952,663fac4f53bae2b144be83f2,687ed1b7e638a4cbf2f02089,6880d246893c23c213ed2004,,,,,,,,,,,,,75,0,,./stim/wavs/cuban_mismatch_declarative-broad-focus_El-hombre-mira-la-luna.wav,,,,,,,,,,,,,,,,,,,,,,291.3332,293.2379,0,1,1.3865,,0,9,9,74,1,0,cuban,,,,,,,,,,,,,,,,,,,,,,,,,,,,,,,,,,,,,,,,,,,,,,,,,,,,,,,,
,,,,,,,,,663fac4f53bae2b144be83f2,Spanish,13 or older,"no, only English or Spanish",no,2025-07-23_08h16.57.996,empathy_intonation_perc,2024.2.4,Win32,59.52380952,663fac4f53bae2b144be83f2,687ed1b7e638a4cbf2f02089,6880d246893c23c213ed2004,,,,,,,,,,,,,27,1,,./stim/wavs/castilian_mismatch_interrogative-total-yn_Mi-madre-come-la-fruta.wav,,,,,,,,,,,,,,,,,,,,,,293.239,295.3926,1,1,1.6256,,0,10,10,26,1,0,castilian,,,,,,,,,,,,,,,,,,,,,,,,,,,,,,,,,,,,,,,,,,,,,,,,,,,,,,,,
,,,,,,,,,663fac4f53bae2b144be83f2,Spanish,13 or older,"no, only English or Spanish",no,2025-07-23_08h16.57.996,empathy_intonation_perc,2024.2.4,Win32,59.52380952,663fac4f53bae2b144be83f2,687ed1b7e638a4cbf2f02089,6880d246893c23c213ed2004,,,,,,,,,,,,,32,1,,./stim/wavs/cuban_mismatch_interrogative-total-yn_Mi-madre-come-la-fruta.wav,,,,,,,,,,,,,,,,,,,,,,295.3935,297.7197,0,0,1.8085,,0,11,11,31,1,1,cuban,,,,,,,,,,,,,,,,,,,,,,,,,,,,,,,,,,,,,,,,,,,,,,,,,,,,,,,,
,,,,,,,,,663fac4f53bae2b144be83f2,Spanish,13 or older,"no, only English or Spanish",no,2025-07-23_08h16.57.996,empathy_intonation_perc,2024.2.4,Win32,59.52380952,663fac4f53bae2b144be83f2,687ed1b7e638a4cbf2f02089,6880d246893c23c213ed2004,,,,,,,,,,,,,41,1,,./stim/wavs/puertorican_mismatch_interrogative-total-yn_El-nino-oye-el-rio.wav,,,,,,,,,,,,,,,,,,,,,,297.7206,300.9039,0,0,2.6527,,0,12,12,40,1,1,puertorican,,,,,,,,,,,,,,,,,,,,,,,,,,,,,,,,,,,,,,,,,,,,,,,,,,,,,,,,
,,,,,,,,,663fac4f53bae2b144be83f2,Spanish,13 or older,"no, only English or Spanish",no,2025-07-23_08h16.57.996,empathy_intonation_perc,2024.2.4,Win32,59.52380952,663fac4f53bae2b144be83f2,687ed1b7e638a4cbf2f02089,6880d246893c23c213ed2004,,,,,,,,,,,,,81,0,,./stim/wavs/mexican_mismatch_declarative-broad-focus_La-maestra-vive-en-Paris.wav,,,,,,,,,,,,,,,,,,,,,,300.9049,303.235,0,1,1.8103,,0,13,13,80,1,0,mexican,,,,,,,,,,,,,,,,,,,,,,,,,,,,,,,,,,,,,,,,,,,,,,,,,,,,,,,,
,,,,,,,,,663fac4f53bae2b144be83f2,Spanish,13 or older,"no, only English or Spanish",no,2025-07-23_08h16.57.996,empathy_intonation_perc,2024.2.4,Win32,59.52380952,663fac4f53bae2b144be83f2,687ed1b7e638a4cbf2f02089,6880d246893c23c213ed2004,,,,,,,,,,,,,26,1,,./stim/wavs/castilian_mismatch_interrogative-total-yn_La-nina-lava-el-plato.wav,,,,,,,,,,,,,,,,,,,,,,303.2359,305.6964,1,1,1.9349,,0,14,14,25,1,0,castilian,,,,,,,,,,,,,,,,,,,,,,,,,,,,,,,,,,,,,,,,,,,,,,,,,,,,,,,,
,,,,,,,,,663fac4f53bae2b144be83f2,Spanish,13 or older,"no, only English or Spanish",no,2025-07-23_08h16.57.996,empathy_intonation_perc,2024.2.4,Win32,59.52380952,663fac4f53bae2b144be83f2,687ed1b7e638a4cbf2f02089,6880d246893c23c213ed2004,,,,,,,,,,,,,68,0,,./stim/wavs/puertorican_match_declarative-broad-focus_Maria-bebe-el-vino.wav,,,,,,,,,,,,,,,,,,,,,,305.6982,307.8833,1,0,1.6508,,0,15,15,67,1,0,puertorican,,,,,,,,,,,,,,,,,,,,,,,,,,,,,,,,,,,,,,,,,,,,,,,,,,,,,,,,
,,,,,,,,,663fac4f53bae2b144be83f2,Spanish,13 or older,"no, only English or Spanish",no,2025-07-23_08h16.57.996,empathy_intonation_perc,2024.2.4,Win32,59.52380952,663fac4f53bae2b144be83f2,687ed1b7e638a4cbf2f02089,6880d246893c23c213ed2004,,,,,,,,,,,,,15,1,,./stim/wavs/mexican_match_interrogative-total-yn_David-leia-el-libro.wav,,,,,,,,,,,,,,,,,,,,,,307.8842,310.5873,1,1,2.176,,0,16,16,14,1,0,mexican,,,,,,,,,,,,,,,,,,,,,,,,,,,,,,,,,,,,,,,,,,,,,,,,,,,,,,,,
,,,,,,,,,663fac4f53bae2b144be83f2,Spanish,13 or older,"no, only English or Spanish",no,2025-07-23_08h16.57.996,empathy_intonation_perc,2024.2.4,Win32,59.52380952,663fac4f53bae2b144be83f2,687ed1b7e638a4cbf2f02089,6880d246893c23c213ed2004,,,,,,,,,,,,,49,0,,./stim/wavs/castilian_match_declarative-broad-focus_Mariano-habla-del-tiempo.wav,,,,,,,,,,,,,,,,,,,,,,310.5882,313.5193,0,1,2.3961,,0,17,17,48,1,0,castilian,,,,,,,,,,,,,,,,,,,,,,,,,,,,,,,,,,,,,,,,,,,,,,,,,,,,,,,,
,,,,,,,,,663fac4f53bae2b144be83f2,Spanish,13 or older,"no, only English or Spanish",no,2025-07-23_08h16.57.996,empathy_intonation_perc,2024.2.4,Win32,59.52380952,663fac4f53bae2b144be83f2,687ed1b7e638a4cbf2f02089,6880d246893c23c213ed2004,,,,,,,,,,,,,2,1,,./stim/wavs/castilian_match_interrogative-total-yn_Emilio-ama-la-marcha.wav,,,,,,,,,,,,,,,,,,,,,,313.5207,315.784,1,1,1.7238,,0,18,18,1,1,0,castilian,,,,,,,,,,,,,,,,,,,,,,,,,,,,,,,,,,,,,,,,,,,,,,,,,,,,,,,,
,,,,,,,,,663fac4f53bae2b144be83f2,Spanish,13 or older,"no, only English or Spanish",no,2025-07-23_08h16.57.996,empathy_intonation_perc,2024.2.4,Win32,59.52380952,663fac4f53bae2b144be83f2,687ed1b7e638a4cbf2f02089,6880d246893c23c213ed2004,,,,,,,,,,,,,65,0,,./stim/wavs/puertorican_match_declarative-broad-focus_David-leia-el-libro.wav,,,,,,,,,,,,,,,,,,,,,,315.7851,318.0838,0,1,1.7564,,0,19,19,64,1,0,puertorican,,,,,,,,,,,,,,,,,,,,,,,,,,,,,,,,,,,,,,,,,,,,,,,,,,,,,,,,
,,,,,,,,,663fac4f53bae2b144be83f2,Spanish,13 or older,"no, only English or Spanish",no,2025-07-23_08h16.57.996,empathy_intonation_perc,2024.2.4,Win32,59.52380952,663fac4f53bae2b144be83f2,687ed1b7e638a4cbf2f02089,6880d246893c23c213ed2004,,,,,,,,,,,,,74,0,,./stim/wavs/cuban_mismatch_declarative-broad-focus_El-bebe-comia-muy-bien.wav,,,,,,,,,,,,,,,,,,,,,,318.0847,320.6454,0,1,2.0167,,0,20,20,73,1,0,cuban,,,,,,,,,,,,,,,,,,,,,,,,,,,,,,,,,,,,,,,,,,,,,,,,,,,,,,,,
,,,,,,,,,663fac4f53bae2b144be83f2,Spanish,13 or older,"no, only English or Spanish",no,2025-07-23_08h16.57.996,empathy_intonation_perc,2024.2.4,Win32,59.52380952,663fac4f53bae2b144be83f2,687ed1b7e638a4cbf2f02089,6880d246893c23c213ed2004,,,,,,,,,,,,,85,0,,./stim/wavs/puertorican_mismatch_declarative-broad-focus_El-hombre-mira-la-luna.wav,,,,,,,,,,,,,,,,,,,,,,320.6464,323.2847,0,1,2.0949,,0,21,21,84,1,0,puertorican,,,,,,,,,,,,,,,,,,,,,,,,,,,,,,,,,,,,,,,,,,,,,,,,,,,,,,,,
,,,,,,,,,663fac4f53bae2b144be83f2,Spanish,13 or older,"no, only English or Spanish",no,2025-07-23_08h16.57.996,empathy_intonation_perc,2024.2.4,Win32,59.52380952,663fac4f53bae2b144be83f2,687ed1b7e638a4cbf2f02089,6880d246893c23c213ed2004,,,,,,,,,,,,,36,1,,./stim/wavs/mexican_mismatch_interrogative-total-yn_El-nino-oye-el-rio.wav,,,,,,,,,,,,,,,,,,,,,,323.2859,325.2633,1,1,1.4505,,0,22,22,35,1,0,mexican,,,,,,,,,,,,,,,,,,,,,,,,,,,,,,,,,,,,,,,,,,,,,,,,,,,,,,,,
,,,,,,,,,663fac4f53bae2b144be83f2,Spanish,13 or older,"no, only English or Spanish",no,2025-07-23_08h16.57.996,empathy_intonation_perc,2024.2.4,Win32,59.52380952,663fac4f53bae2b144be83f2,687ed1b7e638a4cbf2f02089,6880d246893c23c213ed2004,,,,,,,,,,,,,12,1,,./stim/wavs/cuban_match_interrogative-total-yn_Marta-abre-el-regalo.wav,,,,,,,,,,,,,,,,,,,,,,325.2644,327.683,0,0,1.8908,,0,23,23,11,1,1,cuban,,,,,,,,,,,,,,,,,,,,,,,,,,,,,,,,,,,,,,,,,,,,,,,,,,,,,,,,
,,,,,,,,,663fac4f53bae2b144be83f2,Spanish,13 or older,"no, only English or Spanish",no,2025-07-23_08h16.57.996,empathy_intonation_perc,2024.2.4,Win32,59.52380952,663fac4f53bae2b144be83f2,687ed1b7e638a4cbf2f02089,6880d246893c23c213ed2004,,,,,,,,,,,,,78,0,,./stim/wavs/cuban_mismatch_declarative-broad-focus_Mi-tia-odia-la-lluvia.wav,,,,,,,,,,,,,,,,,,,,,,327.6839,330.2514,0,1,2.037,,0,24,24,77,1,0,cuban,,,,,,,,,,,,,,,,,,,,,,,,,,,,,,,,,,,,,,,,,,,,,,,,,,,,,,,,
,,,,,,,,,663fac4f53bae2b144be83f2,Spanish,13 or older,"no, only English or Spanish",no,2025-07-23_08h16.57.996,empathy_intonation_perc,2024.2.4,Win32,59.52380952,663fac4f53bae2b144be83f2,687ed1b7e638a4cbf2f02089,6880d246893c23c213ed2004,,,,,,,,,,,,,5,1,,./stim/wavs/castilian_match_interrogative-total-yn_Mariano-habla-del-tiempo.wav,,,,,,,,,,,,,,,,,,,,,,330.2523,333.2416,1,1,2.4624,,0,25,25,4,1,0,castilian,,,,,,,,,,,,,,,,,,,,,,,,,,,,,,,,,,,,,,,,,,,,,,,,,,,,,,,,
,,,,,,,,,663fac4f53bae2b144be83f2,Spanish,13 or older,"no, only English or Spanish",no,2025-07-23_08h16.57.996,empathy_intonation_perc,2024.2.4,Win32,59.52380952,663fac4f53bae2b144be83f2,687ed1b7e638a4cbf2f02089,6880d246893c23c213ed2004,,,,,,,,,,,,,79,0,,./stim/wavs/mexican_mismatch_declarative-broad-focus_El-bebe-comia-muy-bien.wav,,,,,,,,,,,,,,,,,,,,,,333.2426,337.0858,0,1,3.3216,,0,26,26,78,1,0,mexican,,,,,,,,,,,,,,,,,,,,,,,,,,,,,,,,,,,,,,,,,,,,,,,,,,,,,,,,
,,,,,,,,,663fac4f53bae2b144be83f2,Spanish,13 or older,"no, only English or Spanish",no,2025-07-23_08h16.57.996,empathy_intonation_perc,2024.2.4,Win32,59.52380952,663fac4f53bae2b144be83f2,687ed1b7e638a4cbf2f02089,6880d246893c23c213ed2004,,,,,,,,,,,,,18,1,,./stim/wavs/mexican_match_interrogative-total-yn_Marta-abre-el-regalo.wav,,,,,,,,,,,,,,,,,,,,,,337.0867,339.7359,1,1,2.1301,,0,27,27,17,1,0,mexican,,,,,,,,,,,,,,,,,,,,,,,,,,,,,,,,,,,,,,,,,,,,,,,,,,,,,,,,
,,,,,,,,,663fac4f53bae2b144be83f2,Spanish,13 or older,"no, only English or Spanish",no,2025-07-23_08h16.57.996,empathy_intonation_perc,2024.2.4,Win32,59.52380952,663fac4f53bae2b144be83f2,687ed1b7e638a4cbf2f02089,6880d246893c23c213ed2004,,,,,,,,,,,,,11,1,,./stim/wavs/cuban_match_interrogative-total-yn_Mariano-habla-del-tiempo.wav,,,,,,,,,,,,,,,,,,,,,,339.7368,342.5913,0,0,2.3153,,0,28,28,10,1,1,cuban,,,,,,,,,,,,,,,,,,,,,,,,,,,,,,,,,,,,,,,,,,,,,,,,,,,,,,,,
,,,,,,,,,663fac4f53bae2b144be83f2,Spanish,13 or older,"no, only English or Spanish",no,2025-07-23_08h16.57.996,empathy_intonation_perc,2024.2.4,Win32,59.52380952,663fac4f53bae2b144be83f2,687ed1b7e638a4cbf2f02089,6880d246893c23c213ed2004,,,,,,,,,,,,,57,0,,./stim/wavs/mexican_match_declarative-broad-focus_Ana-lleva-el-abrigo.wav,,,,,,,,,,,,,,,,,,,,,,342.5923,345.1921,0,1,2.0803,,0,29,29,56,1,0,mexican,,,,,,,,,,,,,,,,,,,,,,,,,,,,,,,,,,,,,,,,,,,,,,,,,,,,,,,,
,,,,,,,,,663fac4f53bae2b144be83f2,Spanish,13 or older,"no, only English or Spanish",no,2025-07-23_08h16.57.996,empathy_intonation_perc,2024.2.4,Win32,59.52380952,663fac4f53bae2b144be83f2,687ed1b7e638a4cbf2f02089,6880d246893c23c213ed2004,,,,,,,,,,,,,39,1,,./stim/wavs/mexican_mismatch_interrogative-total-yn_Mi-tia-odia-la-lluvia.wav,,,,,,,,,,,,,,,,,,,,,,345.1935,347.6816,1,1,1.9703,,0,30,30,38,1,0,mexican,,,,,,,,,,,,,,,,,,,,,,,,,,,,,,,,,,,,,,,,,,,,,,,,,,,,,,,,
,,,,,,,,,663fac4f53bae2b144be83f2,Spanish,13 or older,"no, only English or Spanish",no,2025-07-23_08h16.57.996,empathy_intonation_perc,2024.2.4,Win32,59.52380952,663fac4f53bae2b144be83f2,687ed1b7e638a4cbf2f02089,6880d246893c23c213ed2004,,,,,,,,,,,,,84,0,,./stim/wavs/puertorican_mismatch_declarative-broad-focus_El-bebe-comia-muy-bien.wav,,,,,,,,,,,,,,,,,,,,,,347.6832,350.0347,0,1,1.823,,0,31,31,83,1,0,puertorican,,,,,,,,,,,,,,,,,,,,,,,,,,,,,,,,,,,,,,,,,,,,,,,,,,,,,,,,
,,,,,,,,,663fac4f53bae2b144be83f2,Spanish,13 or older,"no, only English or Spanish",no,2025-07-23_08h16.57.996,empathy_intonation_perc,2024.2.4,Win32,59.52380952,663fac4f53bae2b144be83f2,687ed1b7e638a4cbf2f02089,6880d246893c23c213ed2004,,,,,,,,,,,,,46,0,,./stim/wavs/castilian_match_declarative-broad-focus_Emilio-ama-la-marcha.wav,,,,,,,,,,,,,,,,,,,,,,350.0356,352.8023,0,1,2.2468,,0,32,32,45,1,0,castilian,,,,,,,,,,,,,,,,,,,,,,,,,,,,,,,,,,,,,,,,,,,,,,,,,,,,,,,,
,,,,,,,,,663fac4f53bae2b144be83f2,Spanish,13 or older,"no, only English or Spanish",no,2025-07-23_08h16.57.996,empathy_intonation_perc,2024.2.4,Win32,59.52380952,663fac4f53bae2b144be83f2,687ed1b7e638a4cbf2f02089,6880d246893c23c213ed2004,,,,,,,,,,,,,54,0,,./stim/wavs/cuban_match_declarative-broad-focus_Maria-bebe-el-vino.wav,,,,,,,,,,,,,,,,,,,,,,352.8032,355.4317,0,1,2.1039,,0,33,33,53,1,0,cuban,,,,,,,,,,,,,,,,,,,,,,,,,,,,,,,,,,,,,,,,,,,,,,,,,,,,,,,,
,,,,,,,,,663fac4f53bae2b144be83f2,Spanish,13 or older,"no, only English or Spanish",no,2025-07-23_08h16.57.996,empathy_intonation_perc,2024.2.4,Win32,59.52380952,663fac4f53bae2b144be83f2,687ed1b7e638a4cbf2f02089,6880d246893c23c213ed2004,,,,,,,,,,,,,20,1,,./stim/wavs/puertorican_match_interrogative-total-yn_Daniel-iba-a-Bolivia.wav,,,,,,,,,,,,,,,,,,,,,,355.4328,358.8031,0,0,2.8408,,0,34,34,19,1,1,puertorican,,,,,,,,,,,,,,,,,,,,,,,,,,,,,,,,,,,,,,,,,,,,,,,,,,,,,,,,
,,,,,,,,,663fac4f53bae2b144be83f2,Spanish,13 or older,"no, only English or Spanish",no,2025-07-23_08h16.57.996,empathy_intonation_perc,2024.2.4,Win32,59.52380952,663fac4f53bae2b144be83f2,687ed1b7e638a4cbf2f02089,6880d246893c23c213ed2004,,,,,,,,,,,,,30,1,,./stim/wavs/cuban_mismatch_interrogative-total-yn_El-hombre-mira-la-luna.wav,,,,,,,,,,,,,,,,,,,,,,358.8041,361.1312,1,1,1.7939,,0,35,35,29,1,1,cuban,,,,,,,,,,,,,,,,,,,,,,,,,,,,,,,,,,,,,,,,,,,,,,,,,,,,,,,,
,,,,,,,,,663fac4f53bae2b144be83f2,Spanish,13 or older,"no, only English or Spanish",no,2025-07-23_08h16.57.996,empathy_intonation_perc,2024.2.4,Win32,59.52380952,663fac4f53bae2b144be83f2,687ed1b7e638a4cbf2f02089,6880d246893c23c213ed2004,,,,,,,,,,,,,17,1,,./stim/wavs/mexican_match_interrogative-total-yn_Mariano-habla-del-tiempo.wav,,,,,,,,,,,,,,,,,,,,,,361.1324,364.0075,1,1,2.3344,,0,36,36,16,1,0,mexican,,,,,,,,,,,,,,,,,,,,,,,,,,,,,,,,,,,,,,,,,,,,,,,,,,,,,,,,
,,,,,,,,,663fac4f53bae2b144be83f2,Spanish,13 or older,"no, only English or Spanish",no,2025-07-23_08h16.57.996,empathy_intonation_perc,2024.2.4,Win32,59.52380952,663fac4f53bae2b144be83f2,687ed1b7e638a4cbf2f02089,6880d246893c23c213ed2004,,,,,,,,,,,,,50,0,,./stim/wavs/castilian_match_declarative-broad-focus_Marta-abre-el-regalo.wav,,,,,,,,,,,,,,,,,,,,,,364.0083,366.1465,0,1,1.6162,,0,37,37,49,1,0,castilian,,,,,,,,,,,,,,,,,,,,,,,,,,,,,,,,,,,,,,,,,,,,,,,,,,,,,,,,
,,,,,,,,,663fac4f53bae2b144be83f2,Spanish,13 or older,"no, only English or Spanish",no,2025-07-23_08h16.57.996,empathy_intonation_perc,2024.2.4,Win32,59.52380952,663fac4f53bae2b144be83f2,687ed1b7e638a4cbf2f02089,6880d246893c23c213ed2004,,,,,,,,,,,,,66,0,,./stim/wavs/puertorican_match_declarative-broad-focus_Emilio-ama-la-marcha.wav,,,,,,,,,,,,,,,,,,,,,,366.1476,368.1974,0,1,1.5201,,0,38,38,65,1,0,puertorican,,,,,,,,,,,,,,,,,,,,,,,,,,,,,,,,,,,,,,,,,,,,,,,,,,,,,,,,
,,,,,,,,,663fac4f53bae2b144be83f2,Spanish,13 or older,"no, only English or Spanish",no,2025-07-23_08h16.57.996,empathy_intonation_perc,2024.2.4,Win32,59.52380952,663fac4f53bae2b144be83f2,687ed1b7e638a4cbf2f02089,6880d246893c23c213ed2004,,,,,,,,,,,,,28,1,,./stim/wavs/castilian_mismatch_interrogative-total-yn_Mi-novio-viene-del-lago.wav,,,,,,,,,,,,,,,,,,,,,,368.1984,370.6472,1,1,1.9067,,0,39,39,27,1,0,castilian,,,,,,,,,,,,,,,,,,,,,,,,,,,,,,,,,,,,,,,,,,,,,,,,,,,,,,,,
,,,,,,,,,663fac4f53bae2b144be83f2,Spanish,13 or older,"no, only English or Spanish",no,2025-07-23_08h16.57.996,empathy_intonation_perc,2024.2.4,Win32,59.52380952,663fac4f53bae2b144be83f2,687ed1b7e638a4cbf2f02089,6880d246893c23c213ed2004,,,,,,,,,,,,,58,0,,./stim/wavs/mexican_match_declarative-broad-focus_Daniel-iba-a-Bolivia.wav,,,,,,,,,,,,,,,,,,,,,,370.6482,373.026,0,1,1.8338,,0,40,40,57,1,0,mexican,,,,,,,,,,,,,,,,,,,,,,,,,,,,,,,,,,,,,,,,,,,,,,,,,,,,,,,,
,,,,,,,,,663fac4f53bae2b144be83f2,Spanish,13 or older,"no, only English or Spanish",no,2025-07-23_08h16.57.996,empathy_intonation_perc,2024.2.4,Win32,59.52380952,663fac4f53bae2b144be83f2,687ed1b7e638a4cbf2f02089,6880d246893c23c213ed2004,,,,,,,,,,,,,69,0,,./stim/wavs/castilian_mismatch_declarative-broad-focus_El-nino-oye-el-rio.wav,,,,,,,,,,,,,,,,,,,,,,373.027,378.2987,1,0,4.7363,,0,41,41,68,1,0,castilian,,,,,,,,,,,,,,,,,,,,,,,,,,,,,,,,,,,,,,,,,,,,,,,,,,,,,,,,
,,,,,,,,,663fac4f53bae2b144be83f2,Spanish,13 or older,"no, only English or Spanish",no,2025-07-23_08h16.57.996,empathy_intonation_perc,2024.2.4,Win32,59.52380952,663fac4f53bae2b144be83f2,687ed1b7e638a4cbf2f02089,6880d246893c23c213ed2004,,,,,,,,,,,,,47,0,,./stim/wavs/castilian_match_declarative-broad-focus_Manuela-vende-el-carro.wav,,,,,,,,,,,,,,,,,,,,,,378.3001,381.0343,0,1,2.1814,,0,42,42,46,1,0,castilian,,,,,,,,,,,,,,,,,,,,,,,,,,,,,,,,,,,,,,,,,,,,,,,,,,,,,,,,
,,,,,,,,,663fac4f53bae2b144be83f2,Spanish,13 or older,"no, only English or Spanish",no,2025-07-23_08h16.57.996,empathy_intonation_perc,2024.2.4,Win32,59.52380952,663fac4f53bae2b144be83f2,687ed1b7e638a4cbf2f02089,6880d246893c23c213ed2004,,,,,,,,,,,,,33,1,,./stim/wavs/cuban_mismatch_interrogative-total-yn_Mi-novio-viene-del-lago.wav,,,,,,,,,,,,,,,,,,,,,,381.0353,383.1129,1,1,1.5505,,0,43,43,32,1,1,cuban,,,,,,,,,,,,,,,,,,,,,,,,,,,,,,,,,,,,,,,,,,,,,,,,,,,,,,,,
,,,,,,,,,663fac4f53bae2b144be83f2,Spanish,13 or older,"no, only English or Spanish",no,2025-07-23_08h16.57.996,empathy_intonation_perc,2024.2.4,Win32,59.52380952,663fac4f53bae2b144be83f2,687ed1b7e638a4cbf2f02089,6880d246893c23c213ed2004,,,,,,,,,,,,,48,0,,./stim/wavs/castilian_match_declarative-broad-focus_Maria-bebe-el-vino.wav,,,,,,,,,,,,,,,,,,,,,,383.1137,385.2999,0,1,1.6436,,0,44,44,47,1,0,castilian,,,,,,,,,,,,,,,,,,,,,,,,,,,,,,,,,,,,,,,,,,,,,,,,,,,,,,,,
,,,,,,,,,663fac4f53bae2b144be83f2,Spanish,13 or older,"no, only English or Spanish",no,2025-07-23_08h16.57.996,empathy_intonation_perc,2024.2.4,Win32,59.52380952,663fac4f53bae2b144be83f2,687ed1b7e638a4cbf2f02089,6880d246893c23c213ed2004,,,,,,,,,,,,,31,1,,./stim/wavs/cuban_mismatch_interrogative-total-yn_El-nino-oye-el-rio.wav,,,,,,,,,,,,,,,,,,,,,,385.3007,387.9332,0,0,2.0925,,0,45,45,30,1,1,cuban,,,,,,,,,,,,,,,,,,,,,,,,,,,,,,,,,,,,,,,,,,,,,,,,,,,,,,,,
,,,,,,,,,663fac4f53bae2b144be83f2,Spanish,13 or older,"no, only English or Spanish",no,2025-07-23_08h16.57.996,empathy_intonation_perc,2024.2.4,Win32,59.52380952,663fac4f53bae2b144be83f2,687ed1b7e638a4cbf2f02089,6880d246893c23c213ed2004,,,,,,,,,,,,,52,0,,./stim/wavs/cuban_match_declarative-broad-focus_Daniel-iba-a-Bolivia.wav,,,,,,,,,,,,,,,,,,,,,,387.934,390.2311,0,1,1.7865,,0,46,46,51,1,0,cuban,,,,,,,,,,,,,,,,,,,,,,,,,,,,,,,,,,,,,,,,,,,,,,,,,,,,,,,,
,,,,,,,,,663fac4f53bae2b144be83f2,Spanish,13 or older,"no, only English or Spanish",no,2025-07-23_08h16.57.996,empathy_intonation_perc,2024.2.4,Win32,59.52380952,663fac4f53bae2b144be83f2,687ed1b7e638a4cbf2f02089,6880d246893c23c213ed2004,,,,,,,,,,,,,34,1,,./stim/wavs/cuban_mismatch_interrogative-total-yn_Mi-tia-odia-la-lluvia.wav,,,,,,,,,,,,,,,,,,,,,,390.232,392.6993,1,1,1.9313,,0,47,47,33,1,1,cuban,,,,,,,,,,,,,,,,,,,,,,,,,,,,,,,,,,,,,,,,,,,,,,,,,,,,,,,,
,,,,,,,,,663fac4f53bae2b144be83f2,Spanish,13 or older,"no, only English or Spanish",no,2025-07-23_08h16.57.996,empathy_intonation_perc,2024.2.4,Win32,59.52380952,663fac4f53bae2b144be83f2,687ed1b7e638a4cbf2f02089,6880d246893c23c213ed2004,,,,,,,,,,,,,13,1,,./stim/wavs/mexican_match_interrogative-total-yn_Ana-lleva-el-abrigo.wav,,,,,,,,,,,,,,,,,,,,,,392.7004,395.2459,1,1,2.0171,,0,48,48,12,1,0,mexican,,,,,,,,,,,,,,,,,,,,,,,,,,,,,,,,,,,,,,,,,,,,,,,,,,,,,,,,
,,,,,,,,,663fac4f53bae2b144be83f2,Spanish,13 or older,"no, only English or Spanish",no,2025-07-23_08h16.57.996,empathy_intonation_perc,2024.2.4,Win32,59.52380952,663fac4f53bae2b144be83f2,687ed1b7e638a4cbf2f02089,6880d246893c23c213ed2004,,,,,,,,,,,,,9,1,,./stim/wavs/cuban_match_interrogative-total-yn_Manuela-vende-el-carro.wav,,,,,,,,,,,,,,,,,,,,,,395.2468,397.5498,0,0,1.771,,0,49,49,8,1,1,cuban,,,,,,,,,,,,,,,,,,,,,,,,,,,,,,,,,,,,,,,,,,,,,,,,,,,,,,,,
,,,,,,,,,663fac4f53bae2b144be83f2,Spanish,13 or older,"no, only English or Spanish",no,2025-07-23_08h16.57.996,empathy_intonation_perc,2024.2.4,Win32,59.52380952,663fac4f53bae2b144be83f2,687ed1b7e638a4cbf2f02089,6880d246893c23c213ed2004,,,,,,,,,,,,,7,1,,./stim/wavs/cuban_match_interrogative-total-yn_Ana-lleva-el-abrigo.wav,,,,,,,,,,,,,,,,,,,,,,397.5507,399.7393,1,1,1.6725,,0,50,50,6,1,1,cuban,,,,,,,,,,,,,,,,,,,,,,,,,,,,,,,,,,,,,,,,,,,,,,,,,,,,,,,,
,,,,,,,,,663fac4f53bae2b144be83f2,Spanish,13 or older,"no, only English or Spanish",no,2025-07-23_08h16.57.996,empathy_intonation_perc,2024.2.4,Win32,59.52380952,663fac4f53bae2b144be83f2,687ed1b7e638a4cbf2f02089,6880d246893c23c213ed2004,,,,,,,,,,,,,23,1,,./stim/wavs/puertorican_match_interrogative-total-yn_Manuela-vende-el-carro.wav,,,,,,,,,,,,,,,,,,,,,,399.7408,402.4816,1,1,2.2273,,0,51,51,22,1,1,puertorican,,,,,,,,,,,,,,,,,,,,,,,,,,,,,,,,,,,,,,,,,,,,,,,,,,,,,,,,
,,,,,,,,,663fac4f53bae2b144be83f2,Spanish,13 or older,"no, only English or Spanish",no,2025-07-23_08h16.57.996,empathy_intonation_perc,2024.2.4,Win32,59.52380952,663fac4f53bae2b144be83f2,687ed1b7e638a4cbf2f02089,6880d246893c23c213ed2004,,,,,,,,,,,,,1,1,,./stim/wavs/castilian_match_interrogative-total-yn_David-leia-el-libro.wav,,,,,,,,,,,,,,,,,,,,,,402.4825,404.5668,1,1,1.5639,,0,52,52,0,1,0,castilian,,,,,,,,,,,,,,,,,,,,,,,,,,,,,,,,,,,,,,,,,,,,,,,,,,,,,,,,
,,,,,,,,,663fac4f53bae2b144be83f2,Spanish,13 or older,"no, only English or Spanish",no,2025-07-23_08h16.57.996,empathy_intonation_perc,2024.2.4,Win32,59.52380952,663fac4f53bae2b144be83f2,687ed1b7e638a4cbf2f02089,6880d246893c23c213ed2004,,,,,,,,,,,,,70,0,,./stim/wavs/castilian_mismatch_declarative-broad-focus_La-maestra-vive-en-Paris.wav,,,,,,,,,,,,,,,,,,,,,,404.5682,407.4362,0,1,2.3504,,0,53,53,69,1,0,castilian,,,,,,,,,,,,,,,,,,,,,,,,,,,,,,,,,,,,,,,,,,,,,,,,,,,,,,,,
,,,,,,,,,663fac4f53bae2b144be83f2,Spanish,13 or older,"no, only English or Spanish",no,2025-07-23_08h16.57.996,empathy_intonation_perc,2024.2.4,Win32,59.52380952,663fac4f53bae2b144be83f2,687ed1b7e638a4cbf2f02089,6880d246893c23c213ed2004,,,,,,,,,,,,,44,1,,./stim/wavs/puertorican_mismatch_interrogative-total-yn_Mi-madre-come-la-fruta.wav,,,,,,,,,,,,,,,,,,,,,,407.4371,409.7119,0,0,1.7293,,0,54,54,43,1,1,puertorican,,,,,,,,,,,,,,,,,,,,,,,,,,,,,,,,,,,,,,,,,,,,,,,,,,,,,,,,
,,,,,,,,,663fac4f53bae2b144be83f2,Spanish,13 or older,"no, only English or Spanish",no,2025-07-23_08h16.57.996,empathy_intonation_perc,2024.2.4,Win32,59.52380952,663fac4f53bae2b144be83f2,687ed1b7e638a4cbf2f02089,6880d246893c23c213ed2004,,,,,,,,,,,,,67,0,,./stim/wavs/puertorican_match_declarative-broad-focus_Manuela-vende-el-carro.wav,,,,,,,,,,,,,,,,,,,,,,409.7128,412.0606,0,1,1.8284,,0,55,55,66,1,0,puertorican,,,,,,,,,,,,,,,,,,,,,,,,,,,,,,,,,,,,,,,,,,,,,,,,,,,,,,,,
,,,,,,,,,663fac4f53bae2b144be83f2,Spanish,13 or older,"no, only English or Spanish",no,2025-07-23_08h16.57.996,empathy_intonation_perc,2024.2.4,Win32,59.52380952,663fac4f53bae2b144be83f2,687ed1b7e638a4cbf2f02089,6880d246893c23c213ed2004,,,,,,,,,,,,,71,0,,./stim/wavs/castilian_mismatch_declarative-broad-focus_La-nina-lava-el-plato.wav,,,,,,,,,,,,,,,,,,,,,,412.0615,414.8627,0,1,2.2748,,0,56,56,70,1,0,castilian,,,,,,,,,,,,,,,,,,,,,,,,,,,,,,,,,,,,,,,,,,,,,,,,,,,,,,,,
,,,,,,,,,663fac4f53bae2b144be83f2,Spanish,13 or older,"no, only English or Spanish",no,2025-07-23_08h16.57.996,empathy_intonation_perc,2024.2.4,Win32,59.52380952,663fac4f53bae2b144be83f2,687ed1b7e638a4cbf2f02089,6880d246893c23c213ed2004,,,,,,,,,,,,,45,0,,./stim/wavs/castilian_match_declarative-broad-focus_David-leia-el-libro.wav,,,,,,,,,,,,,,,,,,,,,,414.8636,417.8158,0,1,1.957,,0,57,57,44,1,0,castilian,,,,,,,,,,,,,,,,,,,,,,,,,,,,,,,,,,,,,,,,,,,,,,,,,,,,,,,,
,,,,,,,,,663fac4f53bae2b144be83f2,Spanish,13 or older,"no, only English or Spanish",no,2025-07-23_08h16.57.996,empathy_intonation_perc,2024.2.4,Win32,59.52380952,663fac4f53bae2b144be83f2,687ed1b7e638a4cbf2f02089,6880d246893c23c213ed2004,,,,,,,,,,,,,6,1,,./stim/wavs/castilian_match_interrogative-total-yn_Marta-abre-el-regalo.wav,,,,,,,,,,,,,,,,,,,,,,417.8167,420.0169,1,1,1.6553,,0,58,58,5,1,0,castilian,,,,,,,,,,,,,,,,,,,,,,,,,,,,,,,,,,,,,,,,,,,,,,,,,,,,,,,,
,,,,,,,,,663fac4f53bae2b144be83f2,Spanish,13 or older,"no, only English or Spanish",no,2025-07-23_08h16.57.996,empathy_intonation_perc,2024.2.4,Win32,59.52380952,663fac4f53bae2b144be83f2,687ed1b7e638a4cbf2f02089,6880d246893c23c213ed2004,,,,,,,,,,,,,35,1,,./stim/wavs/mexican_mismatch_interrogative-total-yn_El-hombre-mira-la-luna.wav,,,,,,,,,,,,,,,,,,,,,,420.0179,423.7789,1,1,3.2129,,0,59,59,34,1,0,mexican,,,,,,,,,,,,,,,,,,,,,,,,,,,,,,,,,,,,,,,,,,,,,,,,,,,,,,,,
,,,,,,,,,663fac4f53bae2b144be83f2,Spanish,13 or older,"no, only English or Spanish",no,2025-07-23_08h16.57.996,empathy_intonation_perc,2024.2.4,Win32,59.52380952,663fac4f53bae2b144be83f2,687ed1b7e638a4cbf2f02089,6880d246893c23c213ed2004,,,,,,,,,,,,,88,0,,./stim/wavs/puertorican_mismatch_declarative-broad-focus_La-nina-lava-el-plato.wav,,,,,,,,,,,,,,,,,,,,,,423.7802,427.1021,0,1,2.7766,,0,60,60,87,1,0,puertorican,,,,,,,,,,,,,,,,,,,,,,,,,,,,,,,,,,,,,,,,,,,,,,,,,,,,,,,,
,,,,,,,,,663fac4f53bae2b144be83f2,Spanish,13 or older,"no, only English or Spanish",no,2025-07-23_08h16.57.996,empathy_intonation_perc,2024.2.4,Win32,59.52380952,663fac4f53bae2b144be83f2,687ed1b7e638a4cbf2f02089,6880d246893c23c213ed2004,,,,,,,,,,,,,53,0,,./stim/wavs/cuban_match_declarative-broad-focus_Manuela-vende-el-carro.wav,,,,,,,,,,,,,,,,,,,,,,427.1031,430.8842,0,1,3.2276,0.0007,0,61,61,52,1,0,cuban,,,,,,,,,,,,,,,,,,,,,,,,,,,,,,,,,,,,,,,,,,,,,,,,,,,,,,,,
,,,,,,,,,663fac4f53bae2b144be83f2,Spanish,13 or older,"no, only English or Spanish",no,2025-07-23_08h16.57.996,empathy_intonation_perc,2024.2.4,Win32,59.52380952,663fac4f53bae2b144be83f2,687ed1b7e638a4cbf2f02089,6880d246893c23c213ed2004,,,,,,,,,,,,,42,1,,./stim/wavs/puertorican_mismatch_interrogative-total-yn_La-maestra-vive-en-Paris.wav,,,,,,,,,,,,,,,,,,,,,,430.8853,433.5629,1,1,2.157,,0,62,62,41,1,1,puertorican,,,,,,,,,,,,,,,,,,,,,,,,,,,,,,,,,,,,,,,,,,,,,,,,,,,,,,,,
,,,,,,,,,663fac4f53bae2b144be83f2,Spanish,13 or older,"no, only English or Spanish",no,2025-07-23_08h16.57.996,empathy_intonation_perc,2024.2.4,Win32,59.52380952,663fac4f53bae2b144be83f2,687ed1b7e638a4cbf2f02089,6880d246893c23c213ed2004,,,,,,,,,,,,,64,0,,./stim/wavs/puertorican_match_declarative-broad-focus_Daniel-iba-a-Bolivia.wav,,,,,,,,,,,,,,,,,,,,,,433.5645,435.8664,0,1,1.7775,,0,63,63,63,1,0,puertorican,,,,,,,,,,,,,,,,,,,,,,,,,,,,,,,,,,,,,,,,,,,,,,,,,,,,,,,,
,,,,,,,,,663fac4f53bae2b144be83f2,Spanish,13 or older,"no, only English or Spanish",no,2025-07-23_08h16.57.996,empathy_intonation_perc,2024.2.4,Win32,59.52380952,663fac4f53bae2b144be83f2,687ed1b7e638a4cbf2f02089,6880d246893c23c213ed2004,,,,,,,,,,,,,56,0,,./stim/wavs/cuban_match_declarative-broad-focus_Marta-abre-el-regalo.wav,,,,,,,,,,,,,,,,,,,,,,435.8673,439.5468,0,1,3.1396,,0,64,64,55,1,0,cuban,,,,,,,,,,,,,,,,,,,,,,,,,,,,,,,,,,,,,,,,,,,,,,,,,,,,,,,,
,,,,,,,,,663fac4f53bae2b144be83f2,Spanish,13 or older,"no, only English or Spanish",no,2025-07-23_08h16.57.996,empathy_intonation_perc,2024.2.4,Win32,59.52380952,663fac4f53bae2b144be83f2,687ed1b7e638a4cbf2f02089,6880d246893c23c213ed2004,,,,,,,,,,,,,40,1,,./stim/wavs/puertorican_mismatch_interrogative-total-yn_El-hombre-mira-la-luna.wav,,,,,,,,,,,,,,,,,,,,,,439.5479,441.7109,1,1,1.6252,,0,65,65,39,1,1,puertorican,,,,,,,,,,,,,,,,,,,,,,,,,,,,,,,,,,,,,,,,,,,,,,,,,,,,,,,,
,,,,,,,,,663fac4f53bae2b144be83f2,Spanish,13 or older,"no, only English or Spanish",no,2025-07-23_08h16.57.996,empathy_intonation_perc,2024.2.4,Win32,59.52380952,663fac4f53bae2b144be83f2,687ed1b7e638a4cbf2f02089,6880d246893c23c213ed2004,,,,,,,,,,,,,86,0,,./stim/wavs/puertorican_mismatch_declarative-broad-focus_El-nino-oye-el-rio.wav,,,,,,,,,,,,,,,,,,,,,,441.7119,444.5262,1,0,2.2894,,0,66,66,85,1,0,puertorican,,,,,,,,,,,,,,,,,,,,,,,,,,,,,,,,,,,,,,,,,,,,,,,,,,,,,,,,
,,,,,,,,,663fac4f53bae2b144be83f2,Spanish,13 or older,"no, only English or Spanish",no,2025-07-23_08h16.57.996,empathy_intonation_perc,2024.2.4,Win32,59.52380952,663fac4f53bae2b144be83f2,687ed1b7e638a4cbf2f02089,6880d246893c23c213ed2004,,,,,,,,,,,,,80,0,,./stim/wavs/mexican_mismatch_declarative-broad-focus_El-hombre-mira-la-luna.wav,,,,,,,,,,,,,,,,,,,,,,444.527,447.3952,0,1,2.3109,,0,67,67,79,1,0,mexican,,,,,,,,,,,,,,,,,,,,,,,,,,,,,,,,,,,,,,,,,,,,,,,,,,,,,,,,
,,,,,,,,,663fac4f53bae2b144be83f2,Spanish,13 or older,"no, only English or Spanish",no,2025-07-23_08h16.57.996,empathy_intonation_perc,2024.2.4,Win32,59.52380952,663fac4f53bae2b144be83f2,687ed1b7e638a4cbf2f02089,6880d246893c23c213ed2004,,,,,,,,,,,,,37,1,,./stim/wavs/mexican_mismatch_interrogative-total-yn_La-maestra-vive-en-Paris.wav,,,,,,,,,,,,,,,,,,,,,,447.3963,449.9944,1,1,2.063,,0,68,68,36,1,0,mexican,,,,,,,,,,,,,,,,,,,,,,,,,,,,,,,,,,,,,,,,,,,,,,,,,,,,,,,,
,,,,,,,,,663fac4f53bae2b144be83f2,Spanish,13 or older,"no, only English or Spanish",no,2025-07-23_08h16.57.996,empathy_intonation_perc,2024.2.4,Win32,59.52380952,663fac4f53bae2b144be83f2,687ed1b7e638a4cbf2f02089,6880d246893c23c213ed2004,,,,,,,,,,,,,60,0,,./stim/wavs/mexican_match_declarative-broad-focus_Emilio-ama-la-marcha.wav,,,,,,,,,,,,,,,,,,,,,,449.9955,453.1694,0,1,2.635,,0,69,69,59,1,0,mexican,,,,,,,,,,,,,,,,,,,,,,,,,,,,,,,,,,,,,,,,,,,,,,,,,,,,,,,,
,,,,,,,,,663fac4f53bae2b144be83f2,Spanish,13 or older,"no, only English or Spanish",no,2025-07-23_08h16.57.996,empathy_intonation_perc,2024.2.4,Win32,59.52380952,663fac4f53bae2b144be83f2,687ed1b7e638a4cbf2f02089,6880d246893c23c213ed2004,,,,,,,,,,,,,62,0,,./stim/wavs/mexican_match_declarative-broad-focus_Marta-abre-el-regalo.wav,,,,,,,,,,,,,,,,,,,,,,453.1711,455.6278,0,1,1.9216,,0,70,70,61,1,0,mexican,,,,,,,,,,,,,,,,,,,,,,,,,,,,,,,,,,,,,,,,,,,,,,,,,,,,,,,,
,,,,,,,,,663fac4f53bae2b144be83f2,Spanish,13 or older,"no, only English or Spanish",no,2025-07-23_08h16.57.996,empathy_intonation_perc,2024.2.4,Win32,59.52380952,663fac4f53bae2b144be83f2,687ed1b7e638a4cbf2f02089,6880d246893c23c213ed2004,,,,,,,,,,,,,72,0,,./stim/wavs/castilian_mismatch_declarative-broad-focus_Mi-novio-viene-del-lago.wav,,,,,,,,,,,,,,,,,,,,,,455.6289,458.7732,0,1,2.62,,0,71,71,71,1,0,castilian,,,,,,,,,,,,,,,,,,,,,,,,,,,,,,,,,,,,,,,,,,,,,,,,,,,,,,,,
,,,,,,,,,663fac4f53bae2b144be83f2,Spanish,13 or older,"no, only English or Spanish",no,2025-07-23_08h16.57.996,empathy_intonation_perc,2024.2.4,Win32,59.52380952,663fac4f53bae2b144be83f2,687ed1b7e638a4cbf2f02089,6880d246893c23c213ed2004,,,,,,,,,,,,,55,0,,./stim/wavs/cuban_match_declarative-broad-focus_Mariano-habla-del-tiempo.wav,,,,,,,,,,,,,,,,,,,,,,458.7747,464.2916,0,1,4.9901,,0,72,72,54,1,0,cuban,,,,,,,,,,,,,,,,,,,,,,,,,,,,,,,,,,,,,,,,,,,,,,,,,,,,,,,,
,,,,,,,,,663fac4f53bae2b144be83f2,Spanish,13 or older,"no, only English or Spanish",no,2025-07-23_08h16.57.996,empathy_intonation_perc,2024.2.4,Win32,59.52380952,663fac4f53bae2b144be83f2,687ed1b7e638a4cbf2f02089,6880d246893c23c213ed2004,,,,,,,,,,,,,59,0,,./stim/wavs/mexican_match_declarative-broad-focus_David-leia-el-libro.wav,,,,,,,,,,,,,,,,,,,,,,464.2927,466.6267,0,1,1.8013,,0,73,73,58,1,0,mexican,,,,,,,,,,,,,,,,,,,,,,,,,,,,,,,,,,,,,,,,,,,,,,,,,,,,,,,,
,,,,,,,,,663fac4f53bae2b144be83f2,Spanish,13 or older,"no, only English or Spanish",no,2025-07-23_08h16.57.996,empathy_intonation_perc,2024.2.4,Win32,59.52380952,663fac4f53bae2b144be83f2,687ed1b7e638a4cbf2f02089,6880d246893c23c213ed2004,,,,,,,,,,,,,19,1,,./stim/wavs/puertorican_match_interrogative-total-yn_Ana-lleva-el-abrigo.wav,,,,,,,,,,,,,,,,,,,,,,466.6275,468.3655,1,1,1.1962,,0,74,74,18,1,1,puertorican,,,,,,,,,,,,,,,,,,,,,,,,,,,,,,,,,,,,,,,,,,,,,,,,,,,,,,,,
,,,,,,,,,663fac4f53bae2b144be83f2,Spanish,13 or older,"no, only English or Spanish",no,2025-07-23_08h16.57.996,empathy_intonation_perc,2024.2.4,Win32,59.52380952,663fac4f53bae2b144be83f2,687ed1b7e638a4cbf2f02089,6880d246893c23c213ed2004,,,,,,,,,,,,,63,0,,./stim/wavs/puertorican_match_declarative-broad-focus_Ana-lleva-el-abrigo.wav,,,,,,,,,,,,,,,,,,,,,,468.3664,471.4033,0,1,2.5215,,0,75,75,62,1,0,puertorican,,,,,,,,,,,,,,,,,,,,,,,,,,,,,,,,,,,,,,,,,,,,,,,,,,,,,,,,
,,,,,,,,,663fac4f53bae2b144be83f2,Spanish,13 or older,"no, only English or Spanish",no,2025-07-23_08h16.57.996,empathy_intonation_perc,2024.2.4,Win32,59.52380952,663fac4f53bae2b144be83f2,687ed1b7e638a4cbf2f02089,6880d246893c23c213ed2004,,,,,,,,,,,,,24,1,,./stim/wavs/puertorican_match_interrogative-total-yn_Maria-bebe-el-vino.wav,,,,,,,,,,,,,,,,,,,,,,471.4044,473.1094,1,1,1.1611,,0,76,76,23,1,1,puertorican,,,,,,,,,,,,,,,,,,,,,,,,,,,,,,,,,,,,,,,,,,,,,,,,,,,,,,,,
,,,,,,,,,663fac4f53bae2b144be83f2,Spanish,13 or older,"no, only English or Spanish",no,2025-07-23_08h16.57.996,empathy_intonation_perc,2024.2.4,Win32,59.52380952,663fac4f53bae2b144be83f2,687ed1b7e638a4cbf2f02089,6880d246893c23c213ed2004,,,,,,,,,,,,,61,0,,./stim/wavs/mexican_match_declarative-broad-focus_Mariano-habla-del-tiempo.wav,,,,,,,,,,,,,,,,,,,,,,473.1108,475.7513,0,1,2.1116,0.0006,0,77,77,60,1,0,mexican,,,,,,,,,,,,,,,,,,,,,,,,,,,,,,,,,,,,,,,,,,,,,,,,,,,,,,,,
,,,,,,,,,663fac4f53bae2b144be83f2,Spanish,13 or older,"no, only English or Spanish",no,2025-07-23_08h16.57.996,empathy_intonation_perc,2024.2.4,Win32,59.52380952,663fac4f53bae2b144be83f2,687ed1b7e638a4cbf2f02089,6880d246893c23c213ed2004,,,,,,,,,,,,,14,1,,./stim/wavs/mexican_match_interrogative-total-yn_Daniel-iba-a-Bolivia.wav,,,,,,,,,,,,,,,,,,,,,,475.752,477.853,1,1,1.567,,0,78,78,13,1,0,mexican,,,,,,,,,,,,,,,,,,,,,,,,,,,,,,,,,,,,,,,,,,,,,,,,,,,,,,,,
,,,,,,,,,663fac4f53bae2b144be83f2,Spanish,13 or older,"no, only English or Spanish",no,2025-07-23_08h16.57.996,empathy_intonation_perc,2024.2.4,Win32,59.52380952,663fac4f53bae2b144be83f2,687ed1b7e638a4cbf2f02089,6880d246893c23c213ed2004,,,,,,,,,,,,,87,0,,./stim/wavs/puertorican_mismatch_declarative-broad-focus_La-maestra-vive-en-Paris.wav,,,,,,,,,,,,,,,,,,,,,,477.8548,479.9585,0,1,1.5777,,0,79,79,86,1,0,puertorican,,,,,,,,,,,,,,,,,,,,,,,,,,,,,,,,,,,,,,,,,,,,,,,,,,,,,,,,
,,,,,,,,,663fac4f53bae2b144be83f2,Spanish,13 or older,"no, only English or Spanish",no,2025-07-23_08h16.57.996,empathy_intonation_perc,2024.2.4,Win32,59.52380952,663fac4f53bae2b144be83f2,687ed1b7e638a4cbf2f02089,6880d246893c23c213ed2004,,,,,,,,,,,,,43,1,,./stim/wavs/puertorican_mismatch_interrogative-total-yn_La-nina-lava-el-plato.wav,,,,,,,,,,,,,,,,,,,,,,479.9596,481.8872,1,1,1.4124,,0,80,80,42,1,1,puertorican,,,,,,,,,,,,,,,,,,,,,,,,,,,,,,,,,,,,,,,,,,,,,,,,,,,,,,,,
,,,,,,,,,663fac4f53bae2b144be83f2,Spanish,13 or older,"no, only English or Spanish",no,2025-07-23_08h16.57.996,empathy_intonation_perc,2024.2.4,Win32,59.52380952,663fac4f53bae2b144be83f2,687ed1b7e638a4cbf2f02089,6880d246893c23c213ed2004,,,,,,,,,,,,,73,0,,./stim/wavs/castilian_mismatch_declarative-broad-focus_Mi-tia-odia-la-lluvia.wav,,,,,,,,,,,,,,,,,,,,,,481.8883,483.8912,0,1,1.4669,,0,81,81,72,1,0,castilian,,,,,,,,,,,,,,,,,,,,,,,,,,,,,,,,,,,,,,,,,,,,,,,,,,,,,,,,
,,,,,,,,,663fac4f53bae2b144be83f2,Spanish,13 or older,"no, only English or Spanish",no,2025-07-23_08h16.57.996,empathy_intonation_perc,2024.2.4,Win32,59.52380952,663fac4f53bae2b144be83f2,687ed1b7e638a4cbf2f02089,6880d246893c23c213ed2004,,,,,,,,,,,,,8,1,,./stim/wavs/cuban_match_interrogative-total-yn_Daniel-iba-a-Bolivia.wav,,,,,,,,,,,,,,,,,,,,,,483.892,485.9245,1,1,1.4899,,0,82,82,7,1,1,cuban,,,,,,,,,,,,,,,,,,,,,,,,,,,,,,,,,,,,,,,,,,,,,,,,,,,,,,,,
,,,,,,,,,663fac4f53bae2b144be83f2,Spanish,13 or older,"no, only English or Spanish",no,2025-07-23_08h16.57.996,empathy_intonation_perc,2024.2.4,Win32,59.52380952,663fac4f53bae2b144be83f2,687ed1b7e638a4cbf2f02089,6880d246893c23c213ed2004,,,,,,,,,,,,,3,1,,./stim/wavs/castilian_match_interrogative-total-yn_Manuela-vende-el-carro.wav,,,,,,,,,,,,,,,,,,,,,,485.9255,488.026,0,0,1.5697,,0,83,83,2,1,0,castilian,,,,,,,,,,,,,,,,,,,,,,,,,,,,,,,,,,,,,,,,,,,,,,,,,,,,,,,,
,,,,,,,,,663fac4f53bae2b144be83f2,Spanish,13 or older,"no, only English or Spanish",no,2025-07-23_08h16.57.996,empathy_intonation_perc,2024.2.4,Win32,59.52380952,663fac4f53bae2b144be83f2,687ed1b7e638a4cbf2f02089,6880d246893c23c213ed2004,,,,,,,,,,,,,83,0,,./stim/wavs/mexican_mismatch_declarative-broad-focus_Mi-tia-odia-la-lluvia.wav,,,,,,,,,,,,,,,,,,,,,,488.027,490.1304,1,0,1.5489,,0,84,84,82,1,0,mexican,,,,,,,,,,,,,,,,,,,,,,,,,,,,,,,,,,,,,,,,,,,,,,,,,,,,,,,,
,,,,,,,,,663fac4f53bae2b144be83f2,Spanish,13 or older,"no, only English or Spanish",no,2025-07-23_08h16.57.996,empathy_intonation_perc,2024.2.4,Win32,59.52380952,663fac4f53bae2b144be83f2,687ed1b7e638a4cbf2f02089,6880d246893c23c213ed2004,,,,,,,,,,,,,25,1,,./stim/wavs/castilian_mismatch_interrogative-total-yn_La-maestra-vive-en-Paris.wav,,,,,,,,,,,,,,,,,,,,,,490.1312,492.3239,1,1,1.67,,0,85,85,24,1,0,castilian,,,,,,,,,,,,,,,,,,,,,,,,,,,,,,,,,,,,,,,,,,,,,,,,,,,,,,,,
,,,,,,,,,663fac4f53bae2b144be83f2,Spanish,13 or older,"no, only English or Spanish",no,2025-07-23_08h16.57.996,empathy_intonation_perc,2024.2.4,Win32,59.52380952,663fac4f53bae2b144be83f2,687ed1b7e638a4cbf2f02089,6880d246893c23c213ed2004,,,,,,,,,,,,,10,1,,./stim/wavs/cuban_match_interrogative-total-yn_Maria-bebe-el-vino.wav,,,,,,,,,,,,,,,,,,,,,,492.3249,494.9746,1,1,2.1301,,0,86,86,9,1,1,cuban,,,,,,,,,,,,,,,,,,,,,,,,,,,,,,,,,,,,,,,,,,,,,,,,,,,,,,,,
,,,,,,,,,663fac4f53bae2b144be83f2,Spanish,13 or older,"no, only English or Spanish",no,2025-07-23_08h16.57.996,empathy_intonation_perc,2024.2.4,Win32,59.52380952,663fac4f53bae2b144be83f2,687ed1b7e638a4cbf2f02089,6880d246893c23c213ed2004,,,,,,,,,,,,,16,1,,./stim/wavs/mexican_match_interrogative-total-yn_Emilio-ama-la-marcha.wav,,,,,,,,,,,,,,,,,,,,,,494.9755,497.1446,1,1,1.6569,,0,87,87,15,1,0,mexican,,,,,,,,,,,,,,,,,,,,,,,,,,,,,,,,,,,,,,,,,,,,,,,,,,,,,,,,
,,,,,,,"Great! Now we will move on. The next task consists of about 60 trials, in each of which you will see a string of letters. 
  
  Your task is to decide whether this is a real Spanish word or not.", (press the spacebar to continue),663fac4f53bae2b144be83f2,Spanish,13 or older,"no, only English or Spanish",no,2025-07-23_08h16.57.996,empathy_intonation_perc,2024.2.4,Win32,59.52380952,663fac4f53bae2b144be83f2,687ed1b7e638a4cbf2f02089,6880d246893c23c213ed2004,,,,,,,,,,,,,,,,,,,,,,,,,,,,,,,,,,,,,,,,,,,,,,,,,,,497.1653,691.3367,0,0,0,0,1,,,,,,,,,,,,,,,,,,,,,,,,,,,,,,,,,,,,,,,,,,,,,,,,,
,,,,,,,"If you think it is an existing Spanish word, you type '1' (for 'REAL'), and if you think it is not an existing Spanish word, you type '0' (for 'FAKE').", (press the spacebar to continue),663fac4f53bae2b144be83f2,Spanish,13 or older,"no, only English or Spanish",no,2025-07-23_08h16.57.996,empathy_intonation_perc,2024.2.4,Win32,59.52380952,663fac4f53bae2b144be83f2,687ed1b7e638a4cbf2f02089,6880d246893c23c213ed2004,,,,,,,,,,,,,,,,,,,,,,,,,,,,,,,,,,,,,,,,,,,,,,,,,,,691.3477,696.0961,0,1,1,1,1,,,,,,,,,,,,,,,,,,,,,,,,,,,,,,,,,,,,,,,,,,,,,,,,,
,,,,,,,"If you are sure that the word exists, even though you don’t know its exact meaning, you may still respond '1' (REAL). 
  
  But if you are not sure if it is an existing word, you should respond '0' (FAKE).
  
  Let's do a practice round...", (press the spacebar to continue),663fac4f53bae2b144be83f2,Spanish,13 or older,"no, only English or Spanish",no,2025-07-23_08h16.57.996,empathy_intonation_perc,2024.2.4,Win32,59.52380952,663fac4f53bae2b144be83f2,687ed1b7e638a4cbf2f02089,6880d246893c23c213ed2004,,,,,,,,,,,,,,,,,,,,,,,,,,,,,,,,,,,,,,,,,,,,,,,,,,,696.1005,707.3808,0,2,2,2,1,,,,,,,,,,,,,,,,,,,,,,,,,,,,,,,,,,,,,,,,,,,,,,,,,
,,,,,,,,,663fac4f53bae2b144be83f2,Spanish,13 or older,"no, only English or Spanish",no,2025-07-23_08h16.57.996,empathy_intonation_perc,2024.2.4,Win32,59.52380952,663fac4f53bae2b144be83f2,687ed1b7e638a4cbf2f02089,6880d246893c23c213ed2004,,,,,,,,,,,,,,0,,,,,,,,,,,,,,,,,,,,,,,,,,,,,,,,,,,,,,,,,,,,707.4267,712.5247,1,0,4.5634,,712.5256,713.5247,0,0,0,0,1,0,depiste,REAL,FAKE,,,,,,,,,,,,,,,,,,,,,,,,,,,,,,,,
,,,,,,,,,663fac4f53bae2b144be83f2,Spanish,13 or older,"no, only English or Spanish",no,2025-07-23_08h16.57.996,empathy_intonation_perc,2024.2.4,Win32,59.52380952,663fac4f53bae2b144be83f2,687ed1b7e638a4cbf2f02089,6880d246893c23c213ed2004,,,,,,,,,,,,,,1,,,,,,,,,,,,,,,,,,,,,,,,,,,,,,,,,,,,,,,,,,,,713.5321,715.2789,1,1,1.2235,,715.2807,716.2744,0,1,1,1,1,0,sí,REAL,FAKE,,,,,,,,,,,,,,,,,,,,,,,,,,,,,,,,
,,,,,,,,,663fac4f53bae2b144be83f2,Spanish,13 or older,"no, only English or Spanish",no,2025-07-23_08h16.57.996,empathy_intonation_perc,2024.2.4,Win32,59.52380952,663fac4f53bae2b144be83f2,687ed1b7e638a4cbf2f02089,6880d246893c23c213ed2004,,,,,,,,,,,,,,0,,,,,,,,,,,,,,,,,,,,,,,,,,,,,,,,,,,,,,,,,,,,716.277,718.5711,0,1,1.7635,,718.5713,719.5735,0,2,2,2,1,0,coné,REAL,FAKE,,,,,,,,,,,,,,,,,,,,,,,,,,,,,,,,
,,,,,,,,,663fac4f53bae2b144be83f2,Spanish,13 or older,"no, only English or Spanish",no,2025-07-23_08h16.57.996,empathy_intonation_perc,2024.2.4,Win32,59.52380952,663fac4f53bae2b144be83f2,687ed1b7e638a4cbf2f02089,6880d246893c23c213ed2004,,,,,,,,,,,,,,0,,,,,,,,,,,,,,,,,,,,,,,,,,,,,,,,,,,,,,,,,,,,719.5756,721.4077,0,1,1.2668,,721.4079,722.4078,0,3,3,3,1,0,calpar,REAL,FAKE,,,,,,,,,,,,,,,,,,,,,,,,,,,,,,,,
,,,,,,,,,663fac4f53bae2b144be83f2,Spanish,13 or older,"no, only English or Spanish",no,2025-07-23_08h16.57.996,empathy_intonation_perc,2024.2.4,Win32,59.52380952,663fac4f53bae2b144be83f2,687ed1b7e638a4cbf2f02089,6880d246893c23c213ed2004,,,,,,,,,,,,,,0,,,,,,,,,,,,,,,,,,,,,,,,,,,,,,,,,,,,,,,,,,,,722.4112,724.0783,0,1,1.1366,,724.0785,725.0729,0,4,4,4,1,0,joten,REAL,FAKE,,,,,,,,,,,,,,,,,,,,,,,,,,,,,,,,
,,,,,,,,,663fac4f53bae2b144be83f2,Spanish,13 or older,"no, only English or Spanish",no,2025-07-23_08h16.57.996,empathy_intonation_perc,2024.2.4,Win32,59.52380952,663fac4f53bae2b144be83f2,687ed1b7e638a4cbf2f02089,6880d246893c23c213ed2004,,,,,,,,,,,,,,1,,,,,,,,,,,,,,,,,,,,,,,,,,,,,,,,,,,,,,,,,,,,725.0754,727.9301,1,1,2.325,,727.9303,728.9254,0,5,5,5,1,0,sacapuntas,REAL,FAKE,,,,,,,,,,,,,,,,,,,,,,,,,,,,,,,,
,,,,,,,,,663fac4f53bae2b144be83f2,Spanish,13 or older,"no, only English or Spanish",no,2025-07-23_08h16.57.996,empathy_intonation_perc,2024.2.4,Win32,59.52380952,663fac4f53bae2b144be83f2,687ed1b7e638a4cbf2f02089,6880d246893c23c213ed2004,,,,,,,,,,,,,,0,,,,,,,,,,,,,,,,,,,,,,,,,,,,,,,,,,,,,,,,,,,,728.9278,730.5958,0,1,1.1366,,730.5959,731.5898,0,6,6,6,1,0,priba,REAL,FAKE,,,,,,,,,,,,,,,,,,,,,,,,,,,,,,,,
,,,,,,,,,663fac4f53bae2b144be83f2,Spanish,13 or older,"no, only English or Spanish",no,2025-07-23_08h16.57.996,empathy_intonation_perc,2024.2.4,Win32,59.52380952,663fac4f53bae2b144be83f2,687ed1b7e638a4cbf2f02089,6880d246893c23c213ed2004,,,,,,,,,,,,,,0,,,,,,,,,,,,,,,,,,,,,,,,,,,,,,,,,,,,,,,,,,,,731.592,735.6113,0,1,3.4877,,735.6114,736.6074,0,7,7,7,1,0,pelasula,REAL,FAKE,,,,,,,,,,,,,,,,,,,,,,,,,,,,,,,,
,,,,,,,,,663fac4f53bae2b144be83f2,Spanish,13 or older,"no, only English or Spanish",no,2025-07-23_08h16.57.996,empathy_intonation_perc,2024.2.4,Win32,59.52380952,663fac4f53bae2b144be83f2,687ed1b7e638a4cbf2f02089,6880d246893c23c213ed2004,,,,,,,,,,,,,,1,,,,,,,,,,,,,,,,,,,,,,,,,,,,,,,,,,,,,,,,,,,,736.6097,738.1149,1,1,0.9726,,738.115,739.1066,0,8,8,8,1,0,bien,REAL,FAKE,,,,,,,,,,,,,,,,,,,,,,,,,,,,,,,,
,,,,,,,,,663fac4f53bae2b144be83f2,Spanish,13 or older,"no, only English or Spanish",no,2025-07-23_08h16.57.996,empathy_intonation_perc,2024.2.4,Win32,59.52380952,663fac4f53bae2b144be83f2,687ed1b7e638a4cbf2f02089,6880d246893c23c213ed2004,,,,,,,,,,,,,,1,,,,,,,,,,,,,,,,,,,,,,,,,,,,,,,,,,,,,,,,,,,,739.1086,740.6316,1,1,0.9917,,740.6317,741.6216,0,9,9,9,1,0,casa,REAL,FAKE,,,,,,,,,,,,,,,,,,,,,,,,,,,,,,,,
,,,,,,,,,663fac4f53bae2b144be83f2,Spanish,13 or older,"no, only English or Spanish",no,2025-07-23_08h16.57.996,empathy_intonation_perc,2024.2.4,Win32,59.52380952,663fac4f53bae2b144be83f2,687ed1b7e638a4cbf2f02089,6880d246893c23c213ed2004,,,,,,,,,,,,,,0,,,,,,,,,,,,,,,,,,,,,,,,,,,,,,,,,,,,,,,,,,,,741.6238,742.9904,0,1,0.8322,,742.9905,743.989,0,10,10,10,1,0,lejo,REAL,FAKE,,,,,,,,,,,,,,,,,,,,,,,,,,,,,,,,
,,,,,,,,,663fac4f53bae2b144be83f2,Spanish,13 or older,"no, only English or Spanish",no,2025-07-23_08h16.57.996,empathy_intonation_perc,2024.2.4,Win32,59.52380952,663fac4f53bae2b144be83f2,687ed1b7e638a4cbf2f02089,6880d246893c23c213ed2004,,,,,,,,,,,,,,0,,,,,,,,,,,,,,,,,,,,,,,,,,,,,,,,,,,,,,,,,,,,743.9916,747.8923,0,1,3.3669,,747.8925,748.8887,0,11,11,11,1,0,pretantas,REAL,FAKE,,,,,,,,,,,,,,,,,,,,,,,,,,,,,,,,
,,,,,,,,,663fac4f53bae2b144be83f2,Spanish,13 or older,"no, only English or Spanish",no,2025-07-23_08h16.57.996,empathy_intonation_perc,2024.2.4,Win32,59.52380952,663fac4f53bae2b144be83f2,687ed1b7e638a4cbf2f02089,6880d246893c23c213ed2004,,,,,,,,,,,,,,,,,,,,,,,,,,,,,,,,,,,,,,,,,,,,,,,,,,,,,,,,,,,,,,,,,,,,,,,,,,,748.8899,753.3074,,,,,,,,,,,,,,,,,,,,,,,,,,,,,,
,,,,,,,,,663fac4f53bae2b144be83f2,Spanish,13 or older,"no, only English or Spanish",no,2025-07-23_08h16.57.996,empathy_intonation_perc,2024.2.4,Win32,59.52380952,663fac4f53bae2b144be83f2,687ed1b7e638a4cbf2f02089,6880d246893c23c213ed2004,,,,,,,,,,,,,,1,,,,,,,,,,,,,,,,,,,,,,,,,,,,,,,,,,,,,,,,,,,,,,,,,,,,,,,,,11,cenefa,,,,,753.3522,754.9771,0,0,1.1029,,0,0,0,10,1,REAL,FAKE,,,,,,,,,,,,,,,,,
,,,,,,,,,663fac4f53bae2b144be83f2,Spanish,13 or older,"no, only English or Spanish",no,2025-07-23_08h16.57.996,empathy_intonation_perc,2024.2.4,Win32,59.52380952,663fac4f53bae2b144be83f2,687ed1b7e638a4cbf2f02089,6880d246893c23c213ed2004,,,,,,,,,,,,,,1,,,,,,,,,,,,,,,,,,,,,,,,,,,,,,,,,,,,,,,,,,,,,,,,,,,,,,,,,48,ladrón,,,,,754.9794,757.342,0,0,1.8359,,0,1,1,47,1,REAL,FAKE,,,,,,,,,,,,,,,,,
,,,,,,,,,663fac4f53bae2b144be83f2,Spanish,13 or older,"no, only English or Spanish",no,2025-07-23_08h16.57.996,empathy_intonation_perc,2024.2.4,Win32,59.52380952,663fac4f53bae2b144be83f2,687ed1b7e638a4cbf2f02089,6880d246893c23c213ed2004,,,,,,,,,,,,,,1,,,,,,,,,,,,,,,,,,,,,,,,,,,,,,,,,,,,,,,,,,,,,,,,,,,,,,,,,78,frondoso,,,,,757.3435,759.1106,0,0,1.2274,,0,2,2,77,1,REAL,FAKE,,,,,,,,,,,,,,,,,
,,,,,,,,,663fac4f53bae2b144be83f2,Spanish,13 or older,"no, only English or Spanish",no,2025-07-23_08h16.57.996,empathy_intonation_perc,2024.2.4,Win32,59.52380952,663fac4f53bae2b144be83f2,687ed1b7e638a4cbf2f02089,6880d246893c23c213ed2004,,,,,,,,,,,,,,1,,,,,,,,,,,,,,,,,,,,,,,,,,,,,,,,,,,,,,,,,,,,,,,,,,,,,,,,,39,torpe,,,,,759.1124,760.3637,0,0,0.7261,,0,3,3,38,1,REAL,FAKE,,,,,,,,,,,,,,,,,
,,,,,,,,,663fac4f53bae2b144be83f2,Spanish,13 or older,"no, only English or Spanish",no,2025-07-23_08h16.57.996,empathy_intonation_perc,2024.2.4,Win32,59.52380952,663fac4f53bae2b144be83f2,687ed1b7e638a4cbf2f02089,6880d246893c23c213ed2004,,,,,,,,,,,,,,0,,,,,,,,,,,,,,,,,,,,,,,,,,,,,,,,,,,,,,,,,,,,,,,,,,,,,,,,,42,cadallo,,,,,760.3654,762.125,0,1,1.2353,,0,4,4,41,1,REAL,FAKE,,,,,,,,,,,,,,,,,
,,,,,,,,,663fac4f53bae2b144be83f2,Spanish,13 or older,"no, only English or Spanish",no,2025-07-23_08h16.57.996,empathy_intonation_perc,2024.2.4,Win32,59.52380952,663fac4f53bae2b144be83f2,687ed1b7e638a4cbf2f02089,6880d246893c23c213ed2004,,,,,,,,,,,,,,1,,,,,,,,,,,,,,,,,,,,,,,,,,,,,,,,,,,,,,,,,,,,,,,,,,,,,,,,,5,zapato,,,,,762.1271,766.0796,1,1,3.4138,,0,5,5,4,1,REAL,FAKE,,,,,,,,,,,,,,,,,
,,,,,,,,,663fac4f53bae2b144be83f2,Spanish,13 or older,"no, only English or Spanish",no,2025-07-23_08h16.57.996,empathy_intonation_perc,2024.2.4,Win32,59.52380952,663fac4f53bae2b144be83f2,687ed1b7e638a4cbf2f02089,6880d246893c23c213ed2004,,,,,,,,,,,,,,1,,,,,,,,,,,,,,,,,,,,,,,,,,,,,,,,,,,,,,,,,,,,,,,,,,,,,,,,,25,bisagra,,,,,766.0814,767.4351,0,0,0.8312,,0,6,6,24,1,REAL,FAKE,,,,,,,,,,,,,,,,,
,,,,,,,,,663fac4f53bae2b144be83f2,Spanish,13 or older,"no, only English or Spanish",no,2025-07-23_08h16.57.996,empathy_intonation_perc,2024.2.4,Win32,59.52380952,663fac4f53bae2b144be83f2,687ed1b7e638a4cbf2f02089,6880d246893c23c213ed2004,,,,,,,,,,,,,,1,,,,,,,,,,,,,,,,,,,,,,,,,,,,,,,,,,,,,,,,,,,,,,,,,,,,,,,,,89,prisa,,,,,767.4373,769.1189,0,0,1.1592,,0,7,7,88,1,REAL,FAKE,,,,,,,,,,,,,,,,,
,,,,,,,,,663fac4f53bae2b144be83f2,Spanish,13 or older,"no, only English or Spanish",no,2025-07-23_08h16.57.996,empathy_intonation_perc,2024.2.4,Win32,59.52380952,663fac4f53bae2b144be83f2,687ed1b7e638a4cbf2f02089,6880d246893c23c213ed2004,,,,,,,,,,,,,,0,,,,,,,,,,,,,,,,,,,,,,,,,,,,,,,,,,,,,,,,,,,,,,,,,,,,,,,,,16,abracer,,,,,769.1211,771.813,1,0,2.162,,0,8,8,15,1,REAL,FAKE,,,,,,,,,,,,,,,,,
,,,,,,,,,663fac4f53bae2b144be83f2,Spanish,13 or older,"no, only English or Spanish",no,2025-07-23_08h16.57.996,empathy_intonation_perc,2024.2.4,Win32,59.52380952,663fac4f53bae2b144be83f2,687ed1b7e638a4cbf2f02089,6880d246893c23c213ed2004,,,,,,,,,,,,,,1,,,,,,,,,,,,,,,,,,,,,,,,,,,,,,,,,,,,,,,,,,,,,,,,,,,,,,,,,44,cuchara,,,,,771.8144,775.9107,0,0,3.5698,,0,9,9,43,1,REAL,FAKE,,,,,,,,,,,,,,,,,
,,,,,,,,,663fac4f53bae2b144be83f2,Spanish,13 or older,"no, only English or Spanish",no,2025-07-23_08h16.57.996,empathy_intonation_perc,2024.2.4,Win32,59.52380952,663fac4f53bae2b144be83f2,687ed1b7e638a4cbf2f02089,6880d246893c23c213ed2004,,,,,,,,,,,,,,1,,,,,,,,,,,,,,,,,,,,,,,,,,,,,,,,,,,,,,,,,,,,,,,,,,,,,,,,,69,engatusar,,,,,775.9124,777.2436,0,0,0.8065,,0,10,10,68,1,REAL,FAKE,,,,,,,,,,,,,,,,,
,,,,,,,,,663fac4f53bae2b144be83f2,Spanish,13 or older,"no, only English or Spanish",no,2025-07-23_08h16.57.996,empathy_intonation_perc,2024.2.4,Win32,59.52380952,663fac4f53bae2b144be83f2,687ed1b7e638a4cbf2f02089,6880d246893c23c213ed2004,,,,,,,,,,,,,,0,,,,,,,,,,,,,,,,,,,,,,,,,,,,,,,,,,,,,,,,,,,,,,,,,,,,,,,,,10,antar,,,,,777.2457,779.0608,1,0,1.2885,,0,11,11,9,1,REAL,FAKE,,,,,,,,,,,,,,,,,
,,,,,,,,,663fac4f53bae2b144be83f2,Spanish,13 or older,"no, only English or Spanish",no,2025-07-23_08h16.57.996,empathy_intonation_perc,2024.2.4,Win32,59.52380952,663fac4f53bae2b144be83f2,687ed1b7e638a4cbf2f02089,6880d246893c23c213ed2004,,,,,,,,,,,,,,1,,,,,,,,,,,,,,,,,,,,,,,,,,,,,,,,,,,,,,,,,,,,,,,,,,,,,,,,,73,hervidor,,,,,779.0633,780.3421,0,0,0.7533,,0,12,12,72,1,REAL,FAKE,,,,,,,,,,,,,,,,,
,,,,,,,,,663fac4f53bae2b144be83f2,Spanish,13 or older,"no, only English or Spanish",no,2025-07-23_08h16.57.996,empathy_intonation_perc,2024.2.4,Win32,59.52380952,663fac4f53bae2b144be83f2,687ed1b7e638a4cbf2f02089,6880d246893c23c213ed2004,,,,,,,,,,,,,,1,,,,,,,,,,,,,,,,,,,,,,,,,,,,,,,,,,,,,,,,,,,,,,,,,,,,,,,,,83,guante,,,,,780.3437,782.4864,0,0,1.6124,,0,13,13,82,1,REAL,FAKE,,,,,,,,,,,,,,,,,
,,,,,,,,,663fac4f53bae2b144be83f2,Spanish,13 or older,"no, only English or Spanish",no,2025-07-23_08h16.57.996,empathy_intonation_perc,2024.2.4,Win32,59.52380952,663fac4f53bae2b144be83f2,687ed1b7e638a4cbf2f02089,6880d246893c23c213ed2004,,,,,,,,,,,,,,1,,,,,,,,,,,,,,,,,,,,,,,,,,,,,,,,,,,,,,,,,,,,,,,,,,,,,,,,,91,click the 1 key.,,,,,782.4888,785.4363,1,1,2.4308,,0,14,14,90,1,REAL,FAKE,,,,,,,,,,,,,,,,,
,,,,,,,,,663fac4f53bae2b144be83f2,Spanish,13 or older,"no, only English or Spanish",no,2025-07-23_08h16.57.996,empathy_intonation_perc,2024.2.4,Win32,59.52380952,663fac4f53bae2b144be83f2,687ed1b7e638a4cbf2f02089,6880d246893c23c213ed2004,,,,,,,,,,,,,,0,,,,,,,,,,,,,,,,,,,,,,,,,,,,,,,,,,,,,,,,,,,,,,,,,,,,,,,,,79,tropaje,,,,,785.4391,787.0536,0,1,1.082,,0,15,15,78,1,REAL,FAKE,,,,,,,,,,,,,,,,,
,,,,,,,,,663fac4f53bae2b144be83f2,Spanish,13 or older,"no, only English or Spanish",no,2025-07-23_08h16.57.996,empathy_intonation_perc,2024.2.4,Win32,59.52380952,663fac4f53bae2b144be83f2,687ed1b7e638a4cbf2f02089,6880d246893c23c213ed2004,,,,,,,,,,,,,,1,,,,,,,,,,,,,,,,,,,,,,,,,,,,,,,,,,,,,,,,,,,,,,,,,,,,,,,,,64,orgulloso,,,,,787.0559,788.5416,0,0,0.9541,,0,16,16,63,1,REAL,FAKE,,,,,,,,,,,,,,,,,
,,,,,,,,,663fac4f53bae2b144be83f2,Spanish,13 or older,"no, only English or Spanish",no,2025-07-23_08h16.57.996,empathy_intonation_perc,2024.2.4,Win32,59.52380952,663fac4f53bae2b144be83f2,687ed1b7e638a4cbf2f02089,6880d246893c23c213ed2004,,,,,,,,,,,,,,1,,,,,,,,,,,,,,,,,,,,,,,,,,,,,,,,,,,,,,,,,,,,,,,,,,,,,,,,,59,besar,,,,,788.5435,790.4754,1,1,1.4037,,0,17,17,58,1,REAL,FAKE,,,,,,,,,,,,,,,,,
,,,,,,,,,663fac4f53bae2b144be83f2,Spanish,13 or older,"no, only English or Spanish",no,2025-07-23_08h16.57.996,empathy_intonation_perc,2024.2.4,Win32,59.52380952,663fac4f53bae2b144be83f2,687ed1b7e638a4cbf2f02089,6880d246893c23c213ed2004,,,,,,,,,,,,,,1,,,,,,,,,,,,,,,,,,,,,,,,,,,,,,,,,,,,,,,,,,,,,,,,,,,,,,,,,77,tiburón,,,,,790.4773,792.693,0,0,1.6873,,0,18,18,76,1,REAL,FAKE,,,,,,,,,,,,,,,,,
,,,,,,,,,663fac4f53bae2b144be83f2,Spanish,13 or older,"no, only English or Spanish",no,2025-07-23_08h16.57.996,empathy_intonation_perc,2024.2.4,Win32,59.52380952,663fac4f53bae2b144be83f2,687ed1b7e638a4cbf2f02089,6880d246893c23c213ed2004,,,,,,,,,,,,,,1,,,,,,,,,,,,,,,,,,,,,,,,,,,,,,,,,,,,,,,,,,,,,,,,,,,,,,,,,9,hacha,,,,,792.6945,796.4875,0,0,3.2642,,0,19,19,8,1,REAL,FAKE,,,,,,,,,,,,,,,,,
,,,,,,,,,663fac4f53bae2b144be83f2,Spanish,13 or older,"no, only English or Spanish",no,2025-07-23_08h16.57.996,empathy_intonation_perc,2024.2.4,Win32,59.52380952,663fac4f53bae2b144be83f2,687ed1b7e638a4cbf2f02089,6880d246893c23c213ed2004,,,,,,,,,,,,,,0,,,,,,,,,,,,,,,,,,,,,,,,,,,,,,,,,,,,,,,,,,,,,,,,,,,,,,,,,82,empirador,,,,,796.4898,800.0223,1,0,2.9996,,0,20,20,81,1,REAL,FAKE,,,,,,,,,,,,,,,,,
,,,,,,,,,663fac4f53bae2b144be83f2,Spanish,13 or older,"no, only English or Spanish",no,2025-07-23_08h16.57.996,empathy_intonation_perc,2024.2.4,Win32,59.52380952,663fac4f53bae2b144be83f2,687ed1b7e638a4cbf2f02089,6880d246893c23c213ed2004,,,,,,,,,,,,,,0,,,,,,,,,,,,,,,,,,,,,,,,,,,,,,,,,,,,,,,,,,,,,,,,,,,,,,,,,19,brecedad,,,,,800.0239,801.4576,0,1,0.9034,,0,21,21,18,1,REAL,FAKE,,,,,,,,,,,,,,,,,
,,,,,,,,,663fac4f53bae2b144be83f2,Spanish,13 or older,"no, only English or Spanish",no,2025-07-23_08h16.57.996,empathy_intonation_perc,2024.2.4,Win32,59.52380952,663fac4f53bae2b144be83f2,687ed1b7e638a4cbf2f02089,6880d246893c23c213ed2004,,,,,,,,,,,,,,1,,,,,,,,,,,,,,,,,,,,,,,,,,,,,,,,,,,,,,,,,,,,,,,,,,,,,,,,,28,merodear,,,,,801.4597,803.151,0,0,1.1706,,0,22,22,27,1,REAL,FAKE,,,,,,,,,,,,,,,,,
,,,,,,,,,663fac4f53bae2b144be83f2,Spanish,13 or older,"no, only English or Spanish",no,2025-07-23_08h16.57.996,empathy_intonation_perc,2024.2.4,Win32,59.52380952,663fac4f53bae2b144be83f2,687ed1b7e638a4cbf2f02089,6880d246893c23c213ed2004,,,,,,,,,,,,,,1,,,,,,,,,,,,,,,,,,,,,,,,,,,,,,,,,,,,,,,,,,,,,,,,,,,,,,,,,14,yunque,,,,,803.1533,804.9568,0,0,1.2788,,0,23,23,13,1,REAL,FAKE,,,,,,,,,,,,,,,,,
,,,,,,,,,663fac4f53bae2b144be83f2,Spanish,13 or older,"no, only English or Spanish",no,2025-07-23_08h16.57.996,empathy_intonation_perc,2024.2.4,Win32,59.52380952,663fac4f53bae2b144be83f2,687ed1b7e638a4cbf2f02089,6880d246893c23c213ed2004,,,,,,,,,,,,,,0,,,,,,,,,,,,,,,,,,,,,,,,,,,,,,,,,,,,,,,,,,,,,,,,,,,,,,,,,17,floroso,,,,,804.9585,806.5665,1,0,1.0769,,0,24,24,16,1,REAL,FAKE,,,,,,,,,,,,,,,,,
,,,,,,,,,663fac4f53bae2b144be83f2,Spanish,13 or older,"no, only English or Spanish",no,2025-07-23_08h16.57.996,empathy_intonation_perc,2024.2.4,Win32,59.52380952,663fac4f53bae2b144be83f2,687ed1b7e638a4cbf2f02089,6880d246893c23c213ed2004,,,,,,,,,,,,,,1,,,,,,,,,,,,,,,,,,,,,,,,,,,,,,,,,,,,,,,,,,,,,,,,,,,,,,,,,37,granuja,,,,,806.5688,809.2768,0,0,2.1796,,0,25,25,36,1,REAL,FAKE,,,,,,,,,,,,,,,,,
,,,,,,,,,663fac4f53bae2b144be83f2,Spanish,13 or older,"no, only English or Spanish",no,2025-07-23_08h16.57.996,empathy_intonation_perc,2024.2.4,Win32,59.52380952,663fac4f53bae2b144be83f2,687ed1b7e638a4cbf2f02089,6880d246893c23c213ed2004,,,,,,,,,,,,,,0,,,,,,,,,,,,,,,,,,,,,,,,,,,,,,,,,,,,,,,,,,,,,,,,,,,,,,,,,53,vegada,,,,,809.2804,812.1112,0,1,2.2959,,0,26,26,52,1,REAL,FAKE,,,,,,,,,,,,,,,,,
,,,,,,,,,663fac4f53bae2b144be83f2,Spanish,13 or older,"no, only English or Spanish",no,2025-07-23_08h16.57.996,empathy_intonation_perc,2024.2.4,Win32,59.52380952,663fac4f53bae2b144be83f2,687ed1b7e638a4cbf2f02089,6880d246893c23c213ed2004,,,,,,,,,,,,,,0,,,,,,,,,,,,,,,,,,,,,,,,,,,,,,,,,,,,,,,,,,,,,,,,,,,,,,,,,23,lampera,,,,,812.1134,814.439,0,1,1.7827,,0,27,27,22,1,REAL,FAKE,,,,,,,,,,,,,,,,,
,,,,,,,,,663fac4f53bae2b144be83f2,Spanish,13 or older,"no, only English or Spanish",no,2025-07-23_08h16.57.996,empathy_intonation_perc,2024.2.4,Win32,59.52380952,663fac4f53bae2b144be83f2,687ed1b7e638a4cbf2f02089,6880d246893c23c213ed2004,,,,,,,,,,,,,,1,,,,,,,,,,,,,,,,,,,,,,,,,,,,,,,,,,,,,,,,,,,,,,,,,,,,,,,,,38,estornudar,,,,,814.4412,816.1152,0,0,1.1288,,0,28,28,37,1,REAL,FAKE,,,,,,,,,,,,,,,,,
,,,,,,,,,663fac4f53bae2b144be83f2,Spanish,13 or older,"no, only English or Spanish",no,2025-07-23_08h16.57.996,empathy_intonation_perc,2024.2.4,Win32,59.52380952,663fac4f53bae2b144be83f2,687ed1b7e638a4cbf2f02089,6880d246893c23c213ed2004,,,,,,,,,,,,,,1,,,,,,,,,,,,,,,,,,,,,,,,,,,,,,,,,,,,,,,,,,,,,,,,,,,,,,,,,86,barato,,,,,816.117,818.0063,1,1,1.3572,,0,29,29,85,1,REAL,FAKE,,,,,,,,,,,,,,,,,
,,,,,,,,,663fac4f53bae2b144be83f2,Spanish,13 or older,"no, only English or Spanish",no,2025-07-23_08h16.57.996,empathy_intonation_perc,2024.2.4,Win32,59.52380952,663fac4f53bae2b144be83f2,687ed1b7e638a4cbf2f02089,6880d246893c23c213ed2004,,,,,,,,,,,,,,1,,,,,,,,,,,,,,,,,,,,,,,,,,,,,,,,,,,,,,,,,,,,,,,,,,,,,,,,,22,lacayo,,,,,818.008,819.2666,0,0,0.7213,,0,30,30,21,1,REAL,FAKE,,,,,,,,,,,,,,,,,
,,,,,,,,,663fac4f53bae2b144be83f2,Spanish,13 or older,"no, only English or Spanish",no,2025-07-23_08h16.57.996,empathy_intonation_perc,2024.2.4,Win32,59.52380952,663fac4f53bae2b144be83f2,687ed1b7e638a4cbf2f02089,6880d246893c23c213ed2004,,,,,,,,,,,,,,1,,,,,,,,,,,,,,,,,,,,,,,,,,,,,,,,,,,,,,,,,,,,,,,,,,,,,,,,,2,pellizcar,,,,,819.27,820.7351,0,0,0.9313,,0,31,31,1,1,REAL,FAKE,,,,,,,,,,,,,,,,,
,,,,,,,,,663fac4f53bae2b144be83f2,Spanish,13 or older,"no, only English or Spanish",no,2025-07-23_08h16.57.996,empathy_intonation_perc,2024.2.4,Win32,59.52380952,663fac4f53bae2b144be83f2,687ed1b7e638a4cbf2f02089,6880d246893c23c213ed2004,,,,,,,,,,,,,,1,,,,,,,,,,,,,,,,,,,,,,,,,,,,,,,,,,,,,,,,,,,,,,,,,,,,,,,,,24,látigo,,,,,820.7377,823.7905,0,0,2.5369,,0,32,32,23,1,REAL,FAKE,,,,,,,,,,,,,,,,,
,,,,,,,,,663fac4f53bae2b144be83f2,Spanish,13 or older,"no, only English or Spanish",no,2025-07-23_08h16.57.996,empathy_intonation_perc,2024.2.4,Win32,59.52380952,663fac4f53bae2b144be83f2,687ed1b7e638a4cbf2f02089,6880d246893c23c213ed2004,,,,,,,,,,,,,,0,,,,,,,,,,,,,,,,,,,,,,,,,,,,,,,,,,,,,,,,,,,,,,,,,,,,,,,,,29,decar,,,,,823.7925,826.6178,0,1,2.2865,,0,33,33,28,1,REAL,FAKE,,,,,,,,,,,,,,,,,
,,,,,,,,,663fac4f53bae2b144be83f2,Spanish,13 or older,"no, only English or Spanish",no,2025-07-23_08h16.57.996,empathy_intonation_perc,2024.2.4,Win32,59.52380952,663fac4f53bae2b144be83f2,687ed1b7e638a4cbf2f02089,6880d246893c23c213ed2004,,,,,,,,,,,,,,0,,,,,,,,,,,,,,,,,,,,,,,,,,,,,,,,,,,,,,,,,,,,,,,,,,,,,,,,,18,arsa,,,,,826.6202,827.9043,0,1,0.751,,0,34,34,17,1,REAL,FAKE,,,,,,,,,,,,,,,,,
,,,,,,,,,663fac4f53bae2b144be83f2,Spanish,13 or older,"no, only English or Spanish",no,2025-07-23_08h16.57.996,empathy_intonation_perc,2024.2.4,Win32,59.52380952,663fac4f53bae2b144be83f2,687ed1b7e638a4cbf2f02089,6880d246893c23c213ed2004,,,,,,,,,,,,,,0,,,,,,,,,,,,,,,,,,,,,,,,,,,,,,,,,,,,,,,,,,,,,,,,,,,,,,,,,21,capillo,,,,,827.9058,830.1871,0,1,1.7513,,0,35,35,20,1,REAL,FAKE,,,,,,,,,,,,,,,,,
,,,,,,,,,663fac4f53bae2b144be83f2,Spanish,13 or older,"no, only English or Spanish",no,2025-07-23_08h16.57.996,empathy_intonation_perc,2024.2.4,Win32,59.52380952,663fac4f53bae2b144be83f2,687ed1b7e638a4cbf2f02089,6880d246893c23c213ed2004,,,,,,,,,,,,,,1,,,,,,,,,,,,,,,,,,,,,,,,,,,,,,,,,,,,,,,,,,,,,,,,,,,,,,,,,41,rebuscar,,,,,830.1888,834.9007,0,0,4.1765,,0,36,36,40,1,REAL,FAKE,,,,,,,,,,,,,,,,,
,,,,,,,,,663fac4f53bae2b144be83f2,Spanish,13 or older,"no, only English or Spanish",no,2025-07-23_08h16.57.996,empathy_intonation_perc,2024.2.4,Win32,59.52380952,663fac4f53bae2b144be83f2,687ed1b7e638a4cbf2f02089,6880d246893c23c213ed2004,,,,,,,,,,,,,,1,,,,,,,,,,,,,,,,,,,,,,,,,,,,,,,,,,,,,,,,,,,,,,,,,,,,,,,,,81,pozo,,,,,834.9028,836.3045,0,0,0.8687,,0,37,37,80,1,REAL,FAKE,,,,,,,,,,,,,,,,,
,,,,,,,,,663fac4f53bae2b144be83f2,Spanish,13 or older,"no, only English or Spanish",no,2025-07-23_08h16.57.996,empathy_intonation_perc,2024.2.4,Win32,59.52380952,663fac4f53bae2b144be83f2,687ed1b7e638a4cbf2f02089,6880d246893c23c213ed2004,,,,,,,,,,,,,,0,,,,,,,,,,,,,,,,,,,,,,,,,,,,,,,,,,,,,,,,,,,,,,,,,,,,,,,,,72,pemición,,,,,836.3061,837.6712,0,1,0.8372,,0,38,38,71,1,REAL,FAKE,,,,,,,,,,,,,,,,,
,,,,,,,,,663fac4f53bae2b144be83f2,Spanish,13 or older,"no, only English or Spanish",no,2025-07-23_08h16.57.996,empathy_intonation_perc,2024.2.4,Win32,59.52380952,663fac4f53bae2b144be83f2,687ed1b7e638a4cbf2f02089,6880d246893c23c213ed2004,,,,,,,,,,,,,,1,,,,,,,,,,,,,,,,,,,,,,,,,,,,,,,,,,,,,,,,,,,,,,,,,,,,,,,,,60,matar,,,,,837.6729,839.1731,1,1,0.9713,,0,39,39,59,1,REAL,FAKE,,,,,,,,,,,,,,,,,
,,,,,,,,,663fac4f53bae2b144be83f2,Spanish,13 or older,"no, only English or Spanish",no,2025-07-23_08h16.57.996,empathy_intonation_perc,2024.2.4,Win32,59.52380952,663fac4f53bae2b144be83f2,687ed1b7e638a4cbf2f02089,6880d246893c23c213ed2004,,,,,,,,,,,,,,1,,,,,,,,,,,,,,,,,,,,,,,,,,,,,,,,,,,,,,,,,,,,,,,,,,,,,,,,,45,jilguero,,,,,839.1751,840.3571,0,0,0.6555,,0,40,40,44,1,REAL,FAKE,,,,,,,,,,,,,,,,,
,,,,,,,,,663fac4f53bae2b144be83f2,Spanish,13 or older,"no, only English or Spanish",no,2025-07-23_08h16.57.996,empathy_intonation_perc,2024.2.4,Win32,59.52380952,663fac4f53bae2b144be83f2,687ed1b7e638a4cbf2f02089,6880d246893c23c213ed2004,,,,,,,,,,,,,,0,,,,,,,,,,,,,,,,,,,,,,,,,,,,,,,,,,,,,,,,,,,,,,,,,,,,,,,,,63,esposante,,,,,840.3585,842.0708,0,1,1.1843,,0,41,41,62,1,REAL,FAKE,,,,,,,,,,,,,,,,,
,,,,,,,,,663fac4f53bae2b144be83f2,Spanish,13 or older,"no, only English or Spanish",no,2025-07-23_08h16.57.996,empathy_intonation_perc,2024.2.4,Win32,59.52380952,663fac4f53bae2b144be83f2,687ed1b7e638a4cbf2f02089,6880d246893c23c213ed2004,,,,,,,,,,,,,,1,,,,,,,,,,,,,,,,,,,,,,,,,,,,,,,,,,,,,,,,,,,,,,,,,,,,,,,,,3,pulmones,,,,,842.0723,845.5218,1,1,2.9178,,0,42,42,2,1,REAL,FAKE,,,,,,,,,,,,,,,,,
,,,,,,,,,663fac4f53bae2b144be83f2,Spanish,13 or older,"no, only English or Spanish",no,2025-07-23_08h16.57.996,empathy_intonation_perc,2024.2.4,Win32,59.52380952,663fac4f53bae2b144be83f2,687ed1b7e638a4cbf2f02089,6880d246893c23c213ed2004,,,,,,,,,,,,,,0,,,,,,,,,,,,,,,,,,,,,,,,,,,,,,,,,,,,,,,,,,,,,,,,,,,,,,,,,92,click the 0 key.,,,,,845.5239,847.4722,0,1,1.4213,,0,43,43,91,1,REAL,FAKE,,,,,,,,,,,,,,,,,
,,,,,,,,,663fac4f53bae2b144be83f2,Spanish,13 or older,"no, only English or Spanish",no,2025-07-23_08h16.57.996,empathy_intonation_perc,2024.2.4,Win32,59.52380952,663fac4f53bae2b144be83f2,687ed1b7e638a4cbf2f02089,6880d246893c23c213ed2004,,,,,,,,,,,,,,0,,,,,,,,,,,,,,,,,,,,,,,,,,,,,,,,,,,,,,,,,,,,,,,,,,,,,,,,,58,plaudir,,,,,847.4739,849.2061,0,1,1.204,,0,44,44,57,1,REAL,FAKE,,,,,,,,,,,,,,,,,
,,,,,,,,,663fac4f53bae2b144be83f2,Spanish,13 or older,"no, only English or Spanish",no,2025-07-23_08h16.57.996,empathy_intonation_perc,2024.2.4,Win32,59.52380952,663fac4f53bae2b144be83f2,687ed1b7e638a4cbf2f02089,6880d246893c23c213ed2004,,,,,,,,,,,,,,0,,,,,,,,,,,,,,,,,,,,,,,,,,,,,,,,,,,,,,,,,,,,,,,,,,,,,,,,,66,hacido,,,,,849.2078,850.7046,1,0,0.9711,,0,45,45,65,1,REAL,FAKE,,,,,,,,,,,,,,,,,
,,,,,,,,,663fac4f53bae2b144be83f2,Spanish,13 or older,"no, only English or Spanish",no,2025-07-23_08h16.57.996,empathy_intonation_perc,2024.2.4,Win32,59.52380952,663fac4f53bae2b144be83f2,687ed1b7e638a4cbf2f02089,6880d246893c23c213ed2004,,,,,,,,,,,,,,1,,,,,,,,,,,,,,,,,,,,,,,,,,,,,,,,,,,,,,,,,,,,,,,,,,,,,,,,,62,flaco,,,,,850.7068,852.0875,1,1,0.854,,0,46,46,61,1,REAL,FAKE,,,,,,,,,,,,,,,,,
,,,,,,,,,663fac4f53bae2b144be83f2,Spanish,13 or older,"no, only English or Spanish",no,2025-07-23_08h16.57.996,empathy_intonation_perc,2024.2.4,Win32,59.52380952,663fac4f53bae2b144be83f2,687ed1b7e638a4cbf2f02089,6880d246893c23c213ed2004,,,,,,,,,,,,,,0,,,,,,,,,,,,,,,,,,,,,,,,,,,,,,,,,,,,,,,,,,,,,,,,,,,,,,,,,87,grodo,,,,,852.0891,853.556,0,1,0.939,,0,47,47,86,1,REAL,FAKE,,,,,,,,,,,,,,,,,
,,,,,,,,,663fac4f53bae2b144be83f2,Spanish,13 or older,"no, only English or Spanish",no,2025-07-23_08h16.57.996,empathy_intonation_perc,2024.2.4,Win32,59.52380952,663fac4f53bae2b144be83f2,687ed1b7e638a4cbf2f02089,6880d246893c23c213ed2004,,,,,,,,,,,,,,1,,,,,,,,,,,,,,,,,,,,,,,,,,,,,,,,,,,,,,,,,,,,,,,,,,,,,,,,,7,pésimo,,,,,853.5594,855.9047,0,0,1.8212,,0,48,48,6,1,REAL,FAKE,,,,,,,,,,,,,,,,,
,,,,,,,,,663fac4f53bae2b144be83f2,Spanish,13 or older,"no, only English or Spanish",no,2025-07-23_08h16.57.996,empathy_intonation_perc,2024.2.4,Win32,59.52380952,663fac4f53bae2b144be83f2,687ed1b7e638a4cbf2f02089,6880d246893c23c213ed2004,,,,,,,,,,,,,,1,,,,,,,,,,,,,,,,,,,,,,,,,,,,,,,,,,,,,,,,,,,,,,,,,,,,,,,,,61,seda,,,,,855.9063,857.7208,0,0,1.2879,,0,49,49,60,1,REAL,FAKE,,,,,,,,,,,,,,,,,
,,,,,,,,,663fac4f53bae2b144be83f2,Spanish,13 or older,"no, only English or Spanish",no,2025-07-23_08h16.57.996,empathy_intonation_perc,2024.2.4,Win32,59.52380952,663fac4f53bae2b144be83f2,687ed1b7e638a4cbf2f02089,6880d246893c23c213ed2004,,,,,,,,,,,,,,1,,,,,,,,,,,,,,,,,,,,,,,,,,,,,,,,,,,,,,,,,,,,,,,,,,,,,,,,,46,martillo,,,,,857.7223,860.6716,0,0,2.4217,,0,50,50,45,1,REAL,FAKE,,,,,,,,,,,,,,,,,
,,,,,,,,,663fac4f53bae2b144be83f2,Spanish,13 or older,"no, only English or Spanish",no,2025-07-23_08h16.57.996,empathy_intonation_perc,2024.2.4,Win32,59.52380952,663fac4f53bae2b144be83f2,687ed1b7e638a4cbf2f02089,6880d246893c23c213ed2004,,,,,,,,,,,,,,1,,,,,,,,,,,,,,,,,,,,,,,,,,,,,,,,,,,,,,,,,,,,,,,,,,,,,,,,,65,bizcocho,,,,,860.6732,862.607,0,0,1.3763,,0,51,51,64,1,REAL,FAKE,,,,,,,,,,,,,,,,,
,,,,,,,,,663fac4f53bae2b144be83f2,Spanish,13 or older,"no, only English or Spanish",no,2025-07-23_08h16.57.996,empathy_intonation_perc,2024.2.4,Win32,59.52380952,663fac4f53bae2b144be83f2,687ed1b7e638a4cbf2f02089,6880d246893c23c213ed2004,,,,,,,,,,,,,,1,,,,,,,,,,,,,,,,,,,,,,,,,,,,,,,,,,,,,,,,,,,,,,,,,,,,,,,,,36,loro,,,,,862.6091,864.8717,0,0,1.74,,0,52,52,35,1,REAL,FAKE,,,,,,,,,,,,,,,,,
,,,,,,,,,663fac4f53bae2b144be83f2,Spanish,13 or older,"no, only English or Spanish",no,2025-07-23_08h16.57.996,empathy_intonation_perc,2024.2.4,Win32,59.52380952,663fac4f53bae2b144be83f2,687ed1b7e638a4cbf2f02089,6880d246893c23c213ed2004,,,,,,,,,,,,,,1,,,,,,,,,,,,,,,,,,,,,,,,,,,,,,,,,,,,,,,,,,,,,,,,,,,,,,,,,26,secuestro,,,,,864.8738,869.9337,0,0,4.5304,,0,53,53,25,1,REAL,FAKE,,,,,,,,,,,,,,,,,
,,,,,,,,,663fac4f53bae2b144be83f2,Spanish,13 or older,"no, only English or Spanish",no,2025-07-23_08h16.57.996,empathy_intonation_perc,2024.2.4,Win32,59.52380952,663fac4f53bae2b144be83f2,687ed1b7e638a4cbf2f02089,6880d246893c23c213ed2004,,,,,,,,,,,,,,1,,,,,,,,,,,,,,,,,,,,,,,,,,,,,,,,,,,,,,,,,,,,,,,,,,,,,,,,,15,regar,,,,,869.9409,871.8818,0,0,1.4146,,0,54,54,14,1,REAL,FAKE,,,,,,,,,,,,,,,,,
,,,,,,,,,663fac4f53bae2b144be83f2,Spanish,13 or older,"no, only English or Spanish",no,2025-07-23_08h16.57.996,empathy_intonation_perc,2024.2.4,Win32,59.52380952,663fac4f53bae2b144be83f2,687ed1b7e638a4cbf2f02089,6880d246893c23c213ed2004,,,,,,,,,,,,,,0,,,,,,,,,,,,,,,,,,,,,,,,,,,,,,,,,,,,,,,,,,,,,,,,,,,,,,,,,74,cintro,,,,,871.8845,873.6649,1,0,1.2482,,0,55,55,73,1,REAL,FAKE,,,,,,,,,,,,,,,,,
,,,,,,,,,663fac4f53bae2b144be83f2,Spanish,13 or older,"no, only English or Spanish",no,2025-07-23_08h16.57.996,empathy_intonation_perc,2024.2.4,Win32,59.52380952,663fac4f53bae2b144be83f2,687ed1b7e638a4cbf2f02089,6880d246893c23c213ed2004,,,,,,,,,,,,,,1,,,,,,,,,,,,,,,,,,,,,,,,,,,,,,,,,,,,,,,,,,,,,,,,,,,,,,,,,57,tacaño,,,,,873.6682,875.8985,0,0,1.6987,,0,56,56,56,1,REAL,FAKE,,,,,,,,,,,,,,,,,
,,,,,,,,,663fac4f53bae2b144be83f2,Spanish,13 or older,"no, only English or Spanish",no,2025-07-23_08h16.57.996,empathy_intonation_perc,2024.2.4,Win32,59.52380952,663fac4f53bae2b144be83f2,687ed1b7e638a4cbf2f02089,6880d246893c23c213ed2004,,,,,,,,,,,,,,0,,,,,,,,,,,,,,,,,,,,,,,,,,,,,,,,,,,,,,,,,,,,,,,,,,,,,,,,,70,temblo,,,,,875.9018,877.3212,0,1,0.8865,,0,57,57,69,1,REAL,FAKE,,,,,,,,,,,,,,,,,
,,,,,,,,,663fac4f53bae2b144be83f2,Spanish,13 or older,"no, only English or Spanish",no,2025-07-23_08h16.57.996,empathy_intonation_perc,2024.2.4,Win32,59.52380952,663fac4f53bae2b144be83f2,687ed1b7e638a4cbf2f02089,6880d246893c23c213ed2004,,,,,,,,,,,,,,1,,,,,,,,,,,,,,,,,,,,,,,,,,,,,,,,,,,,,,,,,,,,,,,,,,,,,,,,,43,canela,,,,,877.3228,878.917,1,1,1.066,,0,58,58,42,1,REAL,FAKE,,,,,,,,,,,,,,,,,
,,,,,,,,,663fac4f53bae2b144be83f2,Spanish,13 or older,"no, only English or Spanish",no,2025-07-23_08h16.57.996,empathy_intonation_perc,2024.2.4,Win32,59.52380952,663fac4f53bae2b144be83f2,687ed1b7e638a4cbf2f02089,6880d246893c23c213ed2004,,,,,,,,,,,,,,0,,,,,,,,,,,,,,,,,,,,,,,,,,,,,,,,,,,,,,,,,,,,,,,,,,,,,,,,,27,acutación,,,,,878.9189,881.0881,0,1,1.6258,,0,59,59,26,1,REAL,FAKE,,,,,,,,,,,,,,,,,
,,,,,,,,,663fac4f53bae2b144be83f2,Spanish,13 or older,"no, only English or Spanish",no,2025-07-23_08h16.57.996,empathy_intonation_perc,2024.2.4,Win32,59.52380952,663fac4f53bae2b144be83f2,687ed1b7e638a4cbf2f02089,6880d246893c23c213ed2004,,,,,,,,,,,,,,0,,,,,,,,,,,,,,,,,,,,,,,,,,,,,,,,,,,,,,,,,,,,,,,,,,,,,,,,,47,cartinar,,,,,881.0897,882.4729,0,1,0.8556,,0,60,60,46,1,REAL,FAKE,,,,,,,,,,,,,,,,,
,,,,,,,,,663fac4f53bae2b144be83f2,Spanish,13 or older,"no, only English or Spanish",no,2025-07-23_08h16.57.996,empathy_intonation_perc,2024.2.4,Win32,59.52380952,663fac4f53bae2b144be83f2,687ed1b7e638a4cbf2f02089,6880d246893c23c213ed2004,,,,,,,,,,,,,,1,,,,,,,,,,,,,,,,,,,,,,,,,,,,,,,,,,,,,,,,,,,,,,,,,,,,,,,,,40,alfombra,,,,,882.4744,883.7455,0,0,0.7504,,0,61,61,39,1,REAL,FAKE,,,,,,,,,,,,,,,,,
,,,,,,,,,663fac4f53bae2b144be83f2,Spanish,13 or older,"no, only English or Spanish",no,2025-07-23_08h16.57.996,empathy_intonation_perc,2024.2.4,Win32,59.52380952,663fac4f53bae2b144be83f2,687ed1b7e638a4cbf2f02089,6880d246893c23c213ed2004,,,,,,,,,,,,,,0,,,,,,,,,,,,,,,,,,,,,,,,,,,,,,,,,,,,,,,,,,,,,,,,,,,,,,,,,30,alardio,,,,,883.7469,885.2045,0,1,0.9295,,0,62,62,29,1,REAL,FAKE,,,,,,,,,,,,,,,,,
,,,,,,,,,663fac4f53bae2b144be83f2,Spanish,13 or older,"no, only English or Spanish",no,2025-07-23_08h16.57.996,empathy_intonation_perc,2024.2.4,Win32,59.52380952,663fac4f53bae2b144be83f2,687ed1b7e638a4cbf2f02089,6880d246893c23c213ed2004,,,,,,,,,,,,,,0,,,,,,,,,,,,,,,,,,,,,,,,,,,,,,,,,,,,,,,,,,,,,,,,,,,,,,,,,32,fatacidad,,,,,885.2062,886.7528,0,1,1.0211,,0,63,63,31,1,REAL,FAKE,,,,,,,,,,,,,,,,,
,,,,,,,,,663fac4f53bae2b144be83f2,Spanish,13 or older,"no, only English or Spanish",no,2025-07-23_08h16.57.996,empathy_intonation_perc,2024.2.4,Win32,59.52380952,663fac4f53bae2b144be83f2,687ed1b7e638a4cbf2f02089,6880d246893c23c213ed2004,,,,,,,,,,,,,,1,,,,,,,,,,,,,,,,,,,,,,,,,,,,,,,,,,,,,,,,,,,,,,,,,,,,,,,,,56,musgo,,,,,886.7547,887.936,0,0,0.6509,,0,64,64,55,1,REAL,FAKE,,,,,,,,,,,,,,,,,
,,,,,,,,,663fac4f53bae2b144be83f2,Spanish,13 or older,"no, only English or Spanish",no,2025-07-23_08h16.57.996,empathy_intonation_perc,2024.2.4,Win32,59.52380952,663fac4f53bae2b144be83f2,687ed1b7e638a4cbf2f02089,6880d246893c23c213ed2004,,,,,,,,,,,,,,1,,,,,,,,,,,,,,,,,,,,,,,,,,,,,,,,,,,,,,,,,,,,,,,,,,,,,,,,,88,acantilado,,,,,887.938,890.104,0,0,1.6367,,0,65,65,87,1,REAL,FAKE,,,,,,,,,,,,,,,,,
,,,,,,,,,663fac4f53bae2b144be83f2,Spanish,13 or older,"no, only English or Spanish",no,2025-07-23_08h16.57.996,empathy_intonation_perc,2024.2.4,Win32,59.52380952,663fac4f53bae2b144be83f2,687ed1b7e638a4cbf2f02089,6880d246893c23c213ed2004,,,,,,,,,,,,,,1,,,,,,,,,,,,,,,,,,,,,,,,,,,,,,,,,,,,,,,,,,,,,,,,,,,,,,,,,49,ganar,,,,,890.1057,891.8865,1,1,1.2579,,0,66,66,48,1,REAL,FAKE,,,,,,,,,,,,,,,,,
,,,,,,,,,663fac4f53bae2b144be83f2,Spanish,13 or older,"no, only English or Spanish",no,2025-07-23_08h16.57.996,empathy_intonation_perc,2024.2.4,Win32,59.52380952,663fac4f53bae2b144be83f2,687ed1b7e638a4cbf2f02089,6880d246893c23c213ed2004,,,,,,,,,,,,,,1,,,,,,,,,,,,,,,,,,,,,,,,,,,,,,,,,,,,,,,,,,,,,,,,,,,,,,,,,85,laúd,,,,,891.8888,902.3312,0,0,9.9163,,0,67,67,84,1,REAL,FAKE,,,,,,,,,,,,,,,,,
,,,,,,,,,663fac4f53bae2b144be83f2,Spanish,13 or older,"no, only English or Spanish",no,2025-07-23_08h16.57.996,empathy_intonation_perc,2024.2.4,Win32,59.52380952,663fac4f53bae2b144be83f2,687ed1b7e638a4cbf2f02089,6880d246893c23c213ed2004,,,,,,,,,,,,,,1,,,,,,,,,,,,,,,,,,,,,,,,,,,,,,,,,,,,,,,,,,,,,,,,,,,,,,,,,68,alegre,,,,,902.334,904.1188,1,1,1.254,,0,68,68,67,1,REAL,FAKE,,,,,,,,,,,,,,,,,
,,,,,,,,,663fac4f53bae2b144be83f2,Spanish,13 or older,"no, only English or Spanish",no,2025-07-23_08h16.57.996,empathy_intonation_perc,2024.2.4,Win32,59.52380952,663fac4f53bae2b144be83f2,687ed1b7e638a4cbf2f02089,6880d246893c23c213ed2004,,,,,,,,,,,,,,0,,,,,,,,,,,,,,,,,,,,,,,,,,,,,,,,,,,,,,,,,,,,,,,,,,,,,,,,,4,batillón,,,,,904.1208,917.0663,0,1,12.4172,,0,69,69,3,1,REAL,FAKE,,,,,,,,,,,,,,,,,
,,,,,,,,,663fac4f53bae2b144be83f2,Spanish,13 or older,"no, only English or Spanish",no,2025-07-23_08h16.57.996,empathy_intonation_perc,2024.2.4,Win32,59.52380952,663fac4f53bae2b144be83f2,687ed1b7e638a4cbf2f02089,6880d246893c23c213ed2004,,,,,,,,,,,,,,1,,,,,,,,,,,,,,,,,,,,,,,,,,,,,,,,,,,,,,,,,,,,,,,,,,,,,,,,,67,cabello,,,,,917.0679,918.649,1,1,1.0487,,0,70,70,66,1,REAL,FAKE,,,,,,,,,,,,,,,,,
,,,,,,,,,663fac4f53bae2b144be83f2,Spanish,13 or older,"no, only English or Spanish",no,2025-07-23_08h16.57.996,empathy_intonation_perc,2024.2.4,Win32,59.52380952,663fac4f53bae2b144be83f2,687ed1b7e638a4cbf2f02089,6880d246893c23c213ed2004,,,,,,,,,,,,,,1,,,,,,,,,,,,,,,,,,,,,,,,,,,,,,,,,,,,,,,,,,,,,,,,,,,,,,,,,75,yacer,,,,,918.6509,920.4687,1,1,1.2873,,0,71,71,74,1,REAL,FAKE,,,,,,,,,,,,,,,,,
,,,,,,,,,663fac4f53bae2b144be83f2,Spanish,13 or older,"no, only English or Spanish",no,2025-07-23_08h16.57.996,empathy_intonation_perc,2024.2.4,Win32,59.52380952,663fac4f53bae2b144be83f2,687ed1b7e638a4cbf2f02089,6880d246893c23c213ed2004,,,,,,,,,,,,,,1,,,,,,,,,,,,,,,,,,,,,,,,,,,,,,,,,,,,,,,,,,,,,,,,,,,,,,,,,55,nevar,,,,,920.4709,922.6625,1,1,1.6583,,0,72,72,54,1,REAL,FAKE,,,,,,,,,,,,,,,,,
,,,,,,,,,663fac4f53bae2b144be83f2,Spanish,13 or older,"no, only English or Spanish",no,2025-07-23_08h16.57.996,empathy_intonation_perc,2024.2.4,Win32,59.52380952,663fac4f53bae2b144be83f2,687ed1b7e638a4cbf2f02089,6880d246893c23c213ed2004,,,,,,,,,,,,,,1,,,,,,,,,,,,,,,,,,,,,,,,,,,,,,,,,,,,,,,,,,,,,,,,,,,,,,,,,90,clavel,,,,,922.6647,923.8289,0,0,0.6293,,0,73,73,89,1,REAL,FAKE,,,,,,,,,,,,,,,,,
,,,,,,,,,663fac4f53bae2b144be83f2,Spanish,13 or older,"no, only English or Spanish",no,2025-07-23_08h16.57.996,empathy_intonation_perc,2024.2.4,Win32,59.52380952,663fac4f53bae2b144be83f2,687ed1b7e638a4cbf2f02089,6880d246893c23c213ed2004,,,,,,,,,,,,,,0,,,,,,,,,,,,,,,,,,,,,,,,,,,,,,,,,,,,,,,,,,,,,,,,,,,,,,,,,84,escuto,,,,,923.8316,925.1181,0,1,0.7538,,0,74,74,83,1,REAL,FAKE,,,,,,,,,,,,,,,,,
,,,,,,,,,663fac4f53bae2b144be83f2,Spanish,13 or older,"no, only English or Spanish",no,2025-07-23_08h16.57.996,empathy_intonation_perc,2024.2.4,Win32,59.52380952,663fac4f53bae2b144be83f2,687ed1b7e638a4cbf2f02089,6880d246893c23c213ed2004,,,,,,,,,,,,,,1,,,,,,,,,,,,,,,,,,,,,,,,,,,,,,,,,,,,,,,,,,,,,,,,,,,,,,,,,80,hormiga,,,,,925.12,926.6659,0,0,1.0183,,0,75,75,79,1,REAL,FAKE,,,,,,,,,,,,,,,,,
,,,,,,,,,663fac4f53bae2b144be83f2,Spanish,13 or older,"no, only English or Spanish",no,2025-07-23_08h16.57.996,empathy_intonation_perc,2024.2.4,Win32,59.52380952,663fac4f53bae2b144be83f2,687ed1b7e638a4cbf2f02089,6880d246893c23c213ed2004,,,,,,,,,,,,,,0,,,,,,,,,,,,,,,,,,,,,,,,,,,,,,,,,,,,,,,,,,,,,,,,,,,,,,,,,1,terzo,,,,,926.6676,931.102,0,1,3.9043,,0,76,76,0,1,REAL,FAKE,,,,,,,,,,,,,,,,,
,,,,,,,,,663fac4f53bae2b144be83f2,Spanish,13 or older,"no, only English or Spanish",no,2025-07-23_08h16.57.996,empathy_intonation_perc,2024.2.4,Win32,59.52380952,663fac4f53bae2b144be83f2,687ed1b7e638a4cbf2f02089,6880d246893c23c213ed2004,,,,,,,,,,,,,,1,,,,,,,,,,,,,,,,,,,,,,,,,,,,,,,,,,,,,,,,,,,,,,,,,,,,,,,,,54,fomentar,,,,,931.1037,932.3847,0,0,0.7545,,0,77,77,53,1,REAL,FAKE,,,,,,,,,,,,,,,,,
,,,,,,,,,663fac4f53bae2b144be83f2,Spanish,13 or older,"no, only English or Spanish",no,2025-07-23_08h16.57.996,empathy_intonation_perc,2024.2.4,Win32,59.52380952,663fac4f53bae2b144be83f2,687ed1b7e638a4cbf2f02089,6880d246893c23c213ed2004,,,,,,,,,,,,,,1,,,,,,,,,,,,,,,,,,,,,,,,,,,,,,,,,,,,,,,,,,,,,,,,,,,,,,,,,51,candado,,,,,932.387,934.7014,0,0,1.7869,,0,78,78,50,1,REAL,FAKE,,,,,,,,,,,,,,,,,
,,,,,,,,,663fac4f53bae2b144be83f2,Spanish,13 or older,"no, only English or Spanish",no,2025-07-23_08h16.57.996,empathy_intonation_perc,2024.2.4,Win32,59.52380952,663fac4f53bae2b144be83f2,687ed1b7e638a4cbf2f02089,6880d246893c23c213ed2004,,,,,,,,,,,,,,1,,,,,,,,,,,,,,,,,,,,,,,,,,,,,,,,,,,,,,,,,,,,,,,,,,,,,,,,,13,helar,,,,,934.7031,938.9868,1,1,3.757,,0,79,79,12,1,REAL,FAKE,,,,,,,,,,,,,,,,,
,,,,,,,,,663fac4f53bae2b144be83f2,Spanish,13 or older,"no, only English or Spanish",no,2025-07-23_08h16.57.996,empathy_intonation_perc,2024.2.4,Win32,59.52380952,663fac4f53bae2b144be83f2,687ed1b7e638a4cbf2f02089,6880d246893c23c213ed2004,,,,,,,,,,,,,,1,,,,,,,,,,,,,,,,,,,,,,,,,,,,,,,,,,,,,,,,,,,,,,,,,,,,,,,,,34,aviso,,,,,938.9885,940.2669,0,0,0.7373,,0,80,80,33,1,REAL,FAKE,,,,,,,,,,,,,,,,,
,,,,,,,,,663fac4f53bae2b144be83f2,Spanish,13 or older,"no, only English or Spanish",no,2025-07-23_08h16.57.996,empathy_intonation_perc,2024.2.4,Win32,59.52380952,663fac4f53bae2b144be83f2,687ed1b7e638a4cbf2f02089,6880d246893c23c213ed2004,,,,,,,,,,,,,,1,,,,,,,,,,,,,,,,,,,,,,,,,,,,,,,,,,,,,,,,,,,,,,,,,,,,,,,,,52,camisa,,,,,940.2685,941.9339,1,1,1.1365,,0,81,81,51,1,REAL,FAKE,,,,,,,,,,,,,,,,,
,,,,,,,,,663fac4f53bae2b144be83f2,Spanish,13 or older,"no, only English or Spanish",no,2025-07-23_08h16.57.996,empathy_intonation_perc,2024.2.4,Win32,59.52380952,663fac4f53bae2b144be83f2,687ed1b7e638a4cbf2f02089,6880d246893c23c213ed2004,,,,,,,,,,,,,,0,,,,,,,,,,,,,,,,,,,,,,,,,,,,,,,,,,,,,,,,,,,,,,,,,,,,,,,,,8,cadeña,,,,,941.9357,944.176,0,1,1.7101,,0,82,82,7,1,REAL,FAKE,,,,,,,,,,,,,,,,,
,,,,,,,,,663fac4f53bae2b144be83f2,Spanish,13 or older,"no, only English or Spanish",no,2025-07-23_08h16.57.996,empathy_intonation_perc,2024.2.4,Win32,59.52380952,663fac4f53bae2b144be83f2,687ed1b7e638a4cbf2f02089,6880d246893c23c213ed2004,,,,,,,,,,,,,,1,,,,,,,,,,,,,,,,,,,,,,,,,,,,,,,,,,,,,,,,,,,,,,,,,,,,,,,,,71,polvoriento,,,,,944.1779,945.474,0,0,0.748,,0,83,83,70,1,REAL,FAKE,,,,,,,,,,,,,,,,,
,,,,,,,,,663fac4f53bae2b144be83f2,Spanish,13 or older,"no, only English or Spanish",no,2025-07-23_08h16.57.996,empathy_intonation_perc,2024.2.4,Win32,59.52380952,663fac4f53bae2b144be83f2,687ed1b7e638a4cbf2f02089,6880d246893c23c213ed2004,,,,,,,,,,,,,,0,,,,,,,,,,,,,,,,,,,,,,,,,,,,,,,,,,,,,,,,,,,,,,,,,,,,,,,,,35,rompido,,,,,945.4758,949.0471,1,0,3.0386,,0,84,84,34,1,REAL,FAKE,,,,,,,,,,,,,,,,,
,,,,,,,,,663fac4f53bae2b144be83f2,Spanish,13 or older,"no, only English or Spanish",no,2025-07-23_08h16.57.996,empathy_intonation_perc,2024.2.4,Win32,59.52380952,663fac4f53bae2b144be83f2,687ed1b7e638a4cbf2f02089,6880d246893c23c213ed2004,,,,,,,,,,,,,,1,,,,,,,,,,,,,,,,,,,,,,,,,,,,,,,,,,,,,,,,,,,,,,,,,,,,,,,,,76,atar,,,,,949.0489,950.7841,0,0,1.2085,0.0006,0,85,85,75,1,REAL,FAKE,,,,,,,,,,,,,,,,,
,,,,,,,,,663fac4f53bae2b144be83f2,Spanish,13 or older,"no, only English or Spanish",no,2025-07-23_08h16.57.996,empathy_intonation_perc,2024.2.4,Win32,59.52380952,663fac4f53bae2b144be83f2,687ed1b7e638a4cbf2f02089,6880d246893c23c213ed2004,,,,,,,,,,,,,,0,,,,,,,,,,,,,,,,,,,,,,,,,,,,,,,,,,,,,,,,,,,,,,,,,,,,,,,,,50,flamida,,,,,950.7855,952.4088,0,1,1.0953,,0,86,86,49,1,REAL,FAKE,,,,,,,,,,,,,,,,,
,,,,,,,,,663fac4f53bae2b144be83f2,Spanish,13 or older,"no, only English or Spanish",no,2025-07-23_08h16.57.996,empathy_intonation_perc,2024.2.4,Win32,59.52380952,663fac4f53bae2b144be83f2,687ed1b7e638a4cbf2f02089,6880d246893c23c213ed2004,,,,,,,,,,,,,,1,,,,,,,,,,,,,,,,,,,,,,,,,,,,,,,,,,,,,,,,,,,,,,,,,,,,,,,,,12,asesinato,,,,,952.411,953.6861,0,0,0.7543,,0,87,87,11,1,REAL,FAKE,,,,,,,,,,,,,,,,,
,,,,,,,,,663fac4f53bae2b144be83f2,Spanish,13 or older,"no, only English or Spanish",no,2025-07-23_08h16.57.996,empathy_intonation_perc,2024.2.4,Win32,59.52380952,663fac4f53bae2b144be83f2,687ed1b7e638a4cbf2f02089,6880d246893c23c213ed2004,,,,,,,,,,,,,,1,,,,,,,,,,,,,,,,,,,,,,,,,,,,,,,,,,,,,,,,,,,,,,,,,,,,,,,,,20,ávido,,,,,953.6914,955.2999,0,0,1.0861,,0,88,88,19,1,REAL,FAKE,,,,,,,,,,,,,,,,,
,,,,,,,,,663fac4f53bae2b144be83f2,Spanish,13 or older,"no, only English or Spanish",no,2025-07-23_08h16.57.996,empathy_intonation_perc,2024.2.4,Win32,59.52380952,663fac4f53bae2b144be83f2,687ed1b7e638a4cbf2f02089,6880d246893c23c213ed2004,,,,,,,,,,,,,,1,,,,,,,,,,,,,,,,,,,,,,,,,,,,,,,,,,,,,,,,,,,,,,,,,,,,,,,,,31,pandilla,,,,,955.3017,959.7114,1,1,3.8807,,0,89,89,30,1,REAL,FAKE,,,,,,,,,,,,,,,,,
,,,,,,,,,663fac4f53bae2b144be83f2,Spanish,13 or older,"no, only English or Spanish",no,2025-07-23_08h16.57.996,empathy_intonation_perc,2024.2.4,Win32,59.52380952,663fac4f53bae2b144be83f2,687ed1b7e638a4cbf2f02089,6880d246893c23c213ed2004,,,,,,,,,,,,,,0,,,,,,,,,,,,,,,,,,,,,,,,,,,,,,,,,,,,,,,,,,,,,,,,,,,,,,,,,33,pauca,,,,,959.7132,960.9165,0,1,0.6715,,0,90,90,32,1,REAL,FAKE,,,,,,,,,,,,,,,,,
,,,,,,,,,663fac4f53bae2b144be83f2,Spanish,13 or older,"no, only English or Spanish",no,2025-07-23_08h16.57.996,empathy_intonation_perc,2024.2.4,Win32,59.52380952,663fac4f53bae2b144be83f2,687ed1b7e638a4cbf2f02089,6880d246893c23c213ed2004,,,,,,,,,,,,,,1,,,,,,,,,,,,,,,,,,,,,,,,,,,,,,,,,,,,,,,,,,,,,,,,,,,,,,,,,6,tergiversar,,,,,960.9182,962.144,0,0,0.7023,,0,91,91,5,1,REAL,FAKE,,,,,,,,,,,,,,,,,
,,,,,,,,,663fac4f53bae2b144be83f2,Spanish,13 or older,"no, only English or Spanish",no,2025-07-23_08h16.57.996,empathy_intonation_perc,2024.2.4,Win32,59.52380952,663fac4f53bae2b144be83f2,687ed1b7e638a4cbf2f02089,6880d246893c23c213ed2004,,,,,,,,,,,,,,,,,,,,,,,,,,,,,,,,,,,,,,,,,,,,,,,,,,,,,,,,,,,,,,,,,,,,,,,,,,,,,,,,,,,,,,,,,,962.1451,972.8659,,,,,,,,,,,,,,,
,,,,,,,,,663fac4f53bae2b144be83f2,Spanish,13 or older,"no, only English or Spanish",no,2025-07-23_08h16.57.996,empathy_intonation_perc,2024.2.4,Win32,59.52380952,663fac4f53bae2b144be83f2,687ed1b7e638a4cbf2f02089,6880d246893c23c213ed2004,,,,,,,,,,,,,1,,,,,,,,,,,,,,,,,,,,,,,,,,,,,,,,,,,,,,,,,,,,,,,,,,,,,,,,,,,,,,,,,,,,,,,,,,,,,,,972.9192,980.4163,strongly agree,0,0,0,0,1,I can easily tell if someone else wants to enter a conversation.,1,0,1,0,,
,,,,,,,,,663fac4f53bae2b144be83f2,Spanish,13 or older,"no, only English or Spanish",no,2025-07-23_08h16.57.996,empathy_intonation_perc,2024.2.4,Win32,59.52380952,663fac4f53bae2b144be83f2,687ed1b7e638a4cbf2f02089,6880d246893c23c213ed2004,,,,,,,,,,,,,2,,,,,,,,,,,,,,,,,,,,,,,,,,,,,,,,,,,,,,,,,,,,,,,,,,,,,,,,,,,,,,,,,,,,,,,,,,,,,,,980.4199,983.6983,strongly disagree,0,1,1,1,1,I prefer animals to humans.,0,1,0,0,,
,,,,,,,,,663fac4f53bae2b144be83f2,Spanish,13 or older,"no, only English or Spanish",no,2025-07-23_08h16.57.996,empathy_intonation_perc,2024.2.4,Win32,59.52380952,663fac4f53bae2b144be83f2,687ed1b7e638a4cbf2f02089,6880d246893c23c213ed2004,,,,,,,,,,,,,3,,,,,,,,,,,,,,,,,,,,,,,,,,,,,,,,,,,,,,,,,,,,,,,,,,,,,,,,,,,,,,,,,,,,,,,,,,,,,,,983.7041,987.4673,slightly agree,0,2,2,2,1,I try to keep up with the current trends and fashions.,0,1,0,0,,
,,,,,,,,,663fac4f53bae2b144be83f2,Spanish,13 or older,"no, only English or Spanish",no,2025-07-23_08h16.57.996,empathy_intonation_perc,2024.2.4,Win32,59.52380952,663fac4f53bae2b144be83f2,687ed1b7e638a4cbf2f02089,6880d246893c23c213ed2004,,,,,,,,,,,,,4,,,,,,,,,,,,,,,,,,,,,,,,,,,,,,,,,,,,,,,,,,,,,,,,,,,,,,,,,,,,,,,,,,,,,,,,,,,,,,,987.4731,993.7293,slightly agree,0,3,3,3,1,"I find it difficult to explain to others things that I understand easily,   when they don't understand it first time.",1,0,0,1,,
,,,,,,,,,663fac4f53bae2b144be83f2,Spanish,13 or older,"no, only English or Spanish",no,2025-07-23_08h16.57.996,empathy_intonation_perc,2024.2.4,Win32,59.52380952,663fac4f53bae2b144be83f2,687ed1b7e638a4cbf2f02089,6880d246893c23c213ed2004,,,,,,,,,,,,,5,,,,,,,,,,,,,,,,,,,,,,,,,,,,,,,,,,,,,,,,,,,,,,,,,,,,,,,,,,,,,,,,,,,,,,,,,,,,,,,993.7319,995.7143,slightly agree,0,4,4,4,1,I dream most nights.,0,1,0,0,,
,,,,,,,,,663fac4f53bae2b144be83f2,Spanish,13 or older,"no, only English or Spanish",no,2025-07-23_08h16.57.996,empathy_intonation_perc,2024.2.4,Win32,59.52380952,663fac4f53bae2b144be83f2,687ed1b7e638a4cbf2f02089,6880d246893c23c213ed2004,,,,,,,,,,,,,6,,,,,,,,,,,,,,,,,,,,,,,,,,,,,,,,,,,,,,,,,,,,,,,,,,,,,,,,,,,,,,,,,,,,,,,,,,,,,,,995.7174,998.4162,slightly agree,0,5,5,5,1,I really enjoy caring for other people.,1,0,1,0,,
,,,,,,,,,663fac4f53bae2b144be83f2,Spanish,13 or older,"no, only English or Spanish",no,2025-07-23_08h16.57.996,empathy_intonation_perc,2024.2.4,Win32,59.52380952,663fac4f53bae2b144be83f2,687ed1b7e638a4cbf2f02089,6880d246893c23c213ed2004,,,,,,,,,,,,,7,,,,,,,,,,,,,,,,,,,,,,,,,,,,,,,,,,,,,,,,,,,,,,,,,,,,,,,,,,,,,,,,,,,,,,,,,,,,,,,998.4193,1002.6485,strongly agree,0,6,6,6,1,I try to solve my own problems rather than discussing them with others.,0,1,0,0,,
,,,,,,,,,663fac4f53bae2b144be83f2,Spanish,13 or older,"no, only English or Spanish",no,2025-07-23_08h16.57.996,empathy_intonation_perc,2024.2.4,Win32,59.52380952,663fac4f53bae2b144be83f2,687ed1b7e638a4cbf2f02089,6880d246893c23c213ed2004,,,,,,,,,,,,,8,,,,,,,,,,,,,,,,,,,,,,,,,,,,,,,,,,,,,,,,,,,,,,,,,,,,,,,,,,,,,,,,,,,,,,,,,,,,,,,1002.651,1005.0481,strongly agree,0,7,7,7,1,I find it hard to know what to do in a social situation.,1,0,0,1,,
,,,,,,,,,663fac4f53bae2b144be83f2,Spanish,13 or older,"no, only English or Spanish",no,2025-07-23_08h16.57.996,empathy_intonation_perc,2024.2.4,Win32,59.52380952,663fac4f53bae2b144be83f2,687ed1b7e638a4cbf2f02089,6880d246893c23c213ed2004,,,,,,,,,,,,,9,,,,,,,,,,,,,,,,,,,,,,,,,,,,,,,,,,,,,,,,,,,,,,,,,,,,,,,,,,,,,,,,,,,,,,,,,,,,,,,1005.0505,1007.9321,strongly agree,0,8,8,8,1,I am at my best first thing in the morning.,0,1,0,0,,
,,,,,,,,,663fac4f53bae2b144be83f2,Spanish,13 or older,"no, only English or Spanish",no,2025-07-23_08h16.57.996,empathy_intonation_perc,2024.2.4,Win32,59.52380952,663fac4f53bae2b144be83f2,687ed1b7e638a4cbf2f02089,6880d246893c23c213ed2004,,,,,,,,,,,,,10,,,,,,,,,,,,,,,,,,,,,,,,,,,,,,,,,,,,,,,,,,,,,,,,,,,,,,,,,,,,,,,,,,,,,,,,,,,,,,,1007.9351,1016.2881,strongly disagree,0,9,9,9,1,People often tell me that I went too far in driving my point home in a discussion.,1,0,0,1,,
