instructions_exposure.started,instructions_exposure.stopped,instructions_exposure_loop.thisRepN,instructions_exposure_loop.thisTrialN,instructions_exposure_loop.thisN,instructions_exposure_loop.thisIndex,instructions_exposure_loop.ran,instructions_text,continue_text,participant_id,"What variety of Spanish are you most familiar with? (e.g., Peruvian, Spanish, Mexican)",At what age did you begin learning Spanish?,Are you proficient in any languages other than English/Spanish?,"Are you familiar with Caribbean (e.g., Caribbean, Puerto Rican) or Galician Spanish?",date,expName,psychopyVersion,OS,frameRate,id,study_id,session,trial_exposure.started,trial_exposure.stopped,key_resp_exposure.keys,key_resp_exposure.corr,key_resp_exposure.rt,key_resp_exposure.duration,key_resp.keys,key_resp.rt,key_resp.duration,exposure_loop.thisRepN,exposure_loop.thisTrialN,exposure_loop.thisN,exposure_loop.thisIndex,exposure_loop.ran,item_num,correct_response,question,path,duration,instructions_2afc.started,instructions_2afc.stopped,instructions_2afc_loop.thisRepN,instructions_2afc_loop.thisTrialN,instructions_2afc_loop.thisN,instructions_2afc_loop.thisIndex,instructions_2afc_loop.ran,practice_2afc.started,practice_2afc.stopped,key_resp_2afc_practice.keys,key_resp_2afc_practice.corr,key_resp_2afc_practice.rt,key_resp_2afc_practice.duration,trials_2afc_practice_loop.thisRepN,trials_2afc_practice_loop.thisTrialN,trials_2afc_practice_loop.thisN,trials_2afc_practice_loop.thisIndex,trials_2afc_practice_loop.ran,check_2afc.started,check_2afc.stopped,trial_2afc.started,trial_2afc.stopped,key_resp_2afc_trial.keys,key_resp_2afc_trial.corr,key_resp_2afc_trial.rt,key_resp_2afc_trial.duration,trials_2afc_loop.thisRepN,trials_2afc_loop.thisTrialN,trials_2afc_loop.thisN,trials_2afc_loop.thisIndex,trials_2afc_loop.ran,target,variety,instructions_lextale.started,instructions_lextale.stopped,instructions_lextale_loop.thisRepN,instructions_lextale_loop.thisTrialN,instructions_lextale_loop.thisN,instructions_lextale_loop.thisIndex,instructions_lextale_loop.ran,practice_lextale.started,practice_lextale.stopped,key_resp_lextale_practice.keys,key_resp_lextale_practice.corr,key_resp_lextale_practice.rt,key_resp_lextale_practice.duration,practice_feedback_lextale.started,practice_feedback_lextale.stopped,trials_lextale_practice_loop.thisRepN,trials_lextale_practice_loop.thisTrialN,trials_lextale_practice_loop.thisN,trials_lextale_practice_loop.thisIndex,trials_lextale_practice_loop.ran,stim,word,prac_button_real,prac_button_false,check_lextale.started,check_lextale.stopped,trial_lextale.started,trial_lextale.stopped,key_resp_lextale_trial.keys,key_resp_lextale_trial.corr,key_resp_lextale_trial.rt,key_resp_lextale_trial.duration,trials_lextale_loop.thisRepN,trials_lextale_loop.thisTrialN,trials_lextale_loop.thisN,trials_lextale_loop.thisIndex,trials_lextale_loop.ran,button_real,button_false,instructions_eq.started,instructions_eq.stopped,trial_eq.started,trial_eq.stopped,slider_eq_trial.response,trials_eq_loop.thisRepN,trials_eq_loop.thisTrialN,trials_eq_loop.thisN,trials_eq_loop.thisIndex,trials_eq_loop.ran,item,is_test_item,is_distractor,is_agree_score,is_disagree_score,end_exp.started,end_exp.stopped
0.027,8.0506,0,0,0,0,1,"In the following task, you are going to hear a series of conversations.", (press the space bar to continue),6647ce8c4b8ee105144eb431,Spanish,13 or older,"no, only English or Spanish",no,2025-08-14_23h09.40.846,empathy_intonation_perc,2024.2.4,Win32,60.60606061,6647ce8c4b8ee105144eb431,687ed1b7e638a4cbf2f02089,689ea4b1852e2db6b1d926c5,,,,,,,,,,,,,,,,,,,,,,,,,,,,,,,,,,,,,,,,,,,,,,,,,,,,,,,,,,,,,,,,,,,,,,,,,,,,,,,,,,,,,,,,,,,,,,,,,,,,,,,,,,,,
8.0516,12.0841,0,1,1,1,1,It is okay if you don't not 100% understand them!, (press the space bar to continue),6647ce8c4b8ee105144eb431,Spanish,13 or older,"no, only English or Spanish",no,2025-08-14_23h09.40.846,empathy_intonation_perc,2024.2.4,Win32,60.60606061,6647ce8c4b8ee105144eb431,687ed1b7e638a4cbf2f02089,689ea4b1852e2db6b1d926c5,,,,,,,,,,,,,,,,,,,,,,,,,,,,,,,,,,,,,,,,,,,,,,,,,,,,,,,,,,,,,,,,,,,,,,,,,,,,,,,,,,,,,,,,,,,,,,,,,,,,,,,,,,,,
12.0929,20.0569,0,2,2,2,1,"After, you will read a sentence about the conversation and decide if it's true or false.", (press the space bar to continue),6647ce8c4b8ee105144eb431,Spanish,13 or older,"no, only English or Spanish",no,2025-08-14_23h09.40.846,empathy_intonation_perc,2024.2.4,Win32,60.60606061,6647ce8c4b8ee105144eb431,687ed1b7e638a4cbf2f02089,689ea4b1852e2db6b1d926c5,,,,,,,,,,,,,,,,,,,,,,,,,,,,,,,,,,,,,,,,,,,,,,,,,,,,,,,,,,,,,,,,,,,,,,,,,,,,,,,,,,,,,,,,,,,,,,,,,,,,,,,,,,,,
20.0705,22.9229,0,3,3,3,1,"If it's true, press '1' (True) and if it's false press '0' (False).", (press the space bar to continue),6647ce8c4b8ee105144eb431,Spanish,13 or older,"no, only English or Spanish",no,2025-08-14_23h09.40.846,empathy_intonation_perc,2024.2.4,Win32,60.60606061,6647ce8c4b8ee105144eb431,687ed1b7e638a4cbf2f02089,689ea4b1852e2db6b1d926c5,,,,,,,,,,,,,,,,,,,,,,,,,,,,,,,,,,,,,,,,,,,,,,,,,,,,,,,,,,,,,,,,,,,,,,,,,,,,,,,,,,,,,,,,,,,,,,,,,,,,,,,,,,,,
,,,,,,,,,6647ce8c4b8ee105144eb431,Spanish,13 or older,"no, only English or Spanish",no,2025-08-14_23h09.40.846,empathy_intonation_perc,2024.2.4,Win32,60.60606061,6647ce8c4b8ee105144eb431,687ed1b7e638a4cbf2f02089,689ea4b1852e2db6b1d926c5,22.9504,131.2459,c,0,72.2482,,c,108.2855,,0,0,0,2,1,3,0,The mom already has rice.,./stim/exposure_wavs/pr_stimuli_convo.wav,36,,,,,,,,,,,,,,,,,,,,,,,,,,,,,,,,,,,,,,,,,,,,,,,,,,,,,,,,,,,,,,,,,,,,,,,,,,,,,,,,,,,,,,,,,
,,,,,,,,,6647ce8c4b8ee105144eb431,Spanish,13 or older,"no, only English or Spanish",no,2025-08-14_23h09.40.846,empathy_intonation_perc,2024.2.4,Win32,60.60606061,6647ce8c4b8ee105144eb431,687ed1b7e638a4cbf2f02089,689ea4b1852e2db6b1d926c5,131.248,196.8421,c,0,5.547,,c,65.58,,0,1,1,1,1,2,1,The mom asked the daughter if she already went to the supermarket.,./stim/exposure_wavs/dr_stimuli_convo.wav,60,,,,,,,,,,,,,,,,,,,,,,,,,,,,,,,,,,,,,,,,,,,,,,,,,,,,,,,,,,,,,,,,,,,,,,,,,,,,,,,,,,,,,,,,,
,,,,,,,,,6647ce8c4b8ee105144eb431,Spanish,13 or older,"no, only English or Spanish",no,2025-08-14_23h09.40.846,empathy_intonation_perc,2024.2.4,Win32,60.60606061,6647ce8c4b8ee105144eb431,687ed1b7e638a4cbf2f02089,689ea4b1852e2db6b1d926c5,196.846,305.5148,c,0,61.6447,,c,108.6505,,0,2,2,0,1,1,1,The son asked the mom if Aunt Marina is okay.,./stim/exposure_wavs/ga_stimuli_convo.wav,47,,,,,,,,,,,,,,,,,,,,,,,,,,,,,,,,,,,,,,,,,,,,,,,,,,,,,,,,,,,,,,,,,,,,,,,,,,,,,,,,,,,,,,,,,
,,,,,,,"In the following task you are going to hear a series of utterances. 

  You will decide if the utterances sound like questions or not using your keyboard.", (press the spacebar to continue),6647ce8c4b8ee105144eb431,Spanish,13 or older,"no, only English or Spanish",no,2025-08-14_23h09.40.846,empathy_intonation_perc,2024.2.4,Win32,60.60606061,6647ce8c4b8ee105144eb431,687ed1b7e638a4cbf2f02089,689ea4b1852e2db6b1d926c5,,,,,,,,,,,,,,,,,,,,305.5283,323.6911,0,0,0,0,1,,,,,,,,,,,,,,,,,,,,,,,,,,,,,,,,,,,,,,,,,,,,,,,,,,,,,,,,,,,,,,,,,,,,,,,,,,,,,,,,,,
,,,,,,,"If you believe the utterance is a question, type '1' (for 'yes') and if you do not 
  believe it is a question type '0' (for 'no').

  Let's practice a bit...", (press the spacebar to continue),6647ce8c4b8ee105144eb431,Spanish,13 or older,"no, only English or Spanish",no,2025-08-14_23h09.40.846,empathy_intonation_perc,2024.2.4,Win32,60.60606061,6647ce8c4b8ee105144eb431,687ed1b7e638a4cbf2f02089,689ea4b1852e2db6b1d926c5,,,,,,,,,,,,,,,,,,,,323.7012,342.4393,0,1,1,1,1,,,,,,,,,,,,,,,,,,,,,,,,,,,,,,,,,,,,,,,,,,,,,,,,,,,,,,,,,,,,,,,,,,,,,,,,,,,,,,,,,,
,,,,,,,,,6647ce8c4b8ee105144eb431,Spanish,13 or older,"no, only English or Spanish",no,2025-08-14_23h09.40.846,empathy_intonation_perc,2024.2.4,Win32,60.60606061,6647ce8c4b8ee105144eb431,687ed1b7e638a4cbf2f02089,689ea4b1852e2db6b1d926c5,,,,,,,,,,,,,,,,0,,./stim/wavs/peruvian_statement_filler_El-nino-habla-con-su-madre.wav,,,,,,,,,342.455,353.2304,0,1,10.2455,,0,0,0,6,1,,,,,,,,,,,,,,,,,,,,,,,,,,,,,,,,,,,,,,,,,,,,,,,,,,,,,,,,,,,,,,,,,,,,,,,
,,,,,,,,,6647ce8c4b8ee105144eb431,Spanish,13 or older,"no, only English or Spanish",no,2025-08-14_23h09.40.846,empathy_intonation_perc,2024.2.4,Win32,60.60606061,6647ce8c4b8ee105144eb431,687ed1b7e638a4cbf2f02089,689ea4b1852e2db6b1d926c5,,,,,,,,,,,,,,,,1,,./stim/wavs/argentine_question_filler_Mi-vecino-habla-mucho.wav,,,,,,,,,353.2323,356.1916,1,1,2.4279,,0,1,1,1,1,,,,,,,,,,,,,,,,,,,,,,,,,,,,,,,,,,,,,,,,,,,,,,,,,,,,,,,,,,,,,,,,,,,,,,,
,,,,,,,,,6647ce8c4b8ee105144eb431,Spanish,13 or older,"no, only English or Spanish",no,2025-08-14_23h09.40.846,empathy_intonation_perc,2024.2.4,Win32,60.60606061,6647ce8c4b8ee105144eb431,687ed1b7e638a4cbf2f02089,689ea4b1852e2db6b1d926c5,,,,,,,,,,,,,,,,1,,./stim/wavs/castilian_question_filler_Mi-esposo-conoce-al-chico.wav,,,,,,,,,356.1943,365.9656,1,1,9.2388,,0,2,2,0,1,,,,,,,,,,,,,,,,,,,,,,,,,,,,,,,,,,,,,,,,,,,,,,,,,,,,,,,,,,,,,,,,,,,,,,,
,,,,,,,,,6647ce8c4b8ee105144eb431,Spanish,13 or older,"no, only English or Spanish",no,2025-08-14_23h09.40.846,empathy_intonation_perc,2024.2.4,Win32,60.60606061,6647ce8c4b8ee105144eb431,687ed1b7e638a4cbf2f02089,689ea4b1852e2db6b1d926c5,,,,,,,,,,,,,,,,0,,./stim/wavs/cuban_statement_filler_Cocinabas-por-la-noche.wav,,,,,,,,,365.9679,368.8634,0,1,2.3718,,0,3,3,4,1,,,,,,,,,,,,,,,,,,,,,,,,,,,,,,,,,,,,,,,,,,,,,,,,,,,,,,,,,,,,,,,,,,,,,,,
,,,,,,,,,6647ce8c4b8ee105144eb431,Spanish,13 or older,"no, only English or Spanish",no,2025-08-14_23h09.40.846,empathy_intonation_perc,2024.2.4,Win32,60.60606061,6647ce8c4b8ee105144eb431,687ed1b7e638a4cbf2f02089,689ea4b1852e2db6b1d926c5,,,,,,,,,,,,,,,,1,,./stim/wavs/chilean_question_filler_Mi-padre-cantaba-bien.wav,,,,,,,,,368.8664,371.4277,0,0,2.0364,,0,4,4,2,1,,,,,,,,,,,,,,,,,,,,,,,,,,,,,,,,,,,,,,,,,,,,,,,,,,,,,,,,,,,,,,,,,,,,,,,
,,,,,,,,,6647ce8c4b8ee105144eb431,Spanish,13 or older,"no, only English or Spanish",no,2025-08-14_23h09.40.846,empathy_intonation_perc,2024.2.4,Win32,60.60606061,6647ce8c4b8ee105144eb431,687ed1b7e638a4cbf2f02089,689ea4b1852e2db6b1d926c5,,,,,,,,,,,,,,,,1,,./stim/wavs/mexican_question_filler_Felipe-no-tiene-contrasena.wav,,,,,,,,,371.4329,374.8236,1,1,2.8605,,0,5,5,3,1,,,,,,,,,,,,,,,,,,,,,,,,,,,,,,,,,,,,,,,,,,,,,,,,,,,,,,,,,,,,,,,,,,,,,,,
,,,,,,,,,6647ce8c4b8ee105144eb431,Spanish,13 or older,"no, only English or Spanish",no,2025-08-14_23h09.40.846,empathy_intonation_perc,2024.2.4,Win32,60.60606061,6647ce8c4b8ee105144eb431,687ed1b7e638a4cbf2f02089,689ea4b1852e2db6b1d926c5,,,,,,,,,,,,,,,,0,,./stim/wavs/puertorican_statement_filler_La-nina-pinta-con-su-amiga.wav,,,,,,,,,374.8248,377.34,0,1,1.9801,,0,6,6,7,1,,,,,,,,,,,,,,,,,,,,,,,,,,,,,,,,,,,,,,,,,,,,,,,,,,,,,,,,,,,,,,,,,,,,,,,
,,,,,,,,,6647ce8c4b8ee105144eb431,Spanish,13 or older,"no, only English or Spanish",no,2025-08-14_23h09.40.846,empathy_intonation_perc,2024.2.4,Win32,60.60606061,6647ce8c4b8ee105144eb431,687ed1b7e638a4cbf2f02089,689ea4b1852e2db6b1d926c5,,,,,,,,,,,,,,,,0,,./stim/wavs/andalusian_statement_filler_Alberto-nunca-se-afeita.wav,,,,,,,,,377.3432,379.7856,0,1,1.9224,,0,7,7,5,1,,,,,,,,,,,,,,,,,,,,,,,,,,,,,,,,,,,,,,,,,,,,,,,,,,,,,,,,,,,,,,,,,,,,,,,
,,,,,,,,,6647ce8c4b8ee105144eb431,Spanish,13 or older,"no, only English or Spanish",no,2025-08-14_23h09.40.846,empathy_intonation_perc,2024.2.4,Win32,60.60606061,6647ce8c4b8ee105144eb431,687ed1b7e638a4cbf2f02089,689ea4b1852e2db6b1d926c5,,,,,,,,,,,,,,,,,,,,,,,,,,,,,,,,,,,,,,379.7863,389.3443,,,,,,,,,,,,,,,,,,,,,,,,,,,,,,,,,,,,,,,,,,,,,,,,,,,,,,,,,,,,,,,,,,,,,
,,,,,,,,,6647ce8c4b8ee105144eb431,Spanish,13 or older,"no, only English or Spanish",no,2025-08-14_23h09.40.846,empathy_intonation_perc,2024.2.4,Win32,60.60606061,6647ce8c4b8ee105144eb431,687ed1b7e638a4cbf2f02089,689ea4b1852e2db6b1d926c5,,,,,,,,,,,,,,,75,0,,./stim/wavs/cuban_mismatch_declarative-broad-focus_El-hombre-mira-la-luna.wav,,,,,,,,,,,,,,,,,,,,,,389.3588,391.3126,0,1,1.4353,,0,0,0,74,1,0,cuban,,,,,,,,,,,,,,,,,,,,,,,,,,,,,,,,,,,,,,,,,,,,,,,,,,,,,,,,
,,,,,,,,,6647ce8c4b8ee105144eb431,Spanish,13 or older,"no, only English or Spanish",no,2025-08-14_23h09.40.846,empathy_intonation_perc,2024.2.4,Win32,60.60606061,6647ce8c4b8ee105144eb431,687ed1b7e638a4cbf2f02089,689ea4b1852e2db6b1d926c5,,,,,,,,,,,,,,,17,1,,./stim/wavs/mexican_match_interrogative-total-yn_Mariano-habla-del-tiempo.wav,,,,,,,,,,,,,,,,,,,,,,391.3155,393.409,1,1,1.5653,,0,1,1,16,1,0,mexican,,,,,,,,,,,,,,,,,,,,,,,,,,,,,,,,,,,,,,,,,,,,,,,,,,,,,,,,
,,,,,,,,,6647ce8c4b8ee105144eb431,Spanish,13 or older,"no, only English or Spanish",no,2025-08-14_23h09.40.846,empathy_intonation_perc,2024.2.4,Win32,60.60606061,6647ce8c4b8ee105144eb431,687ed1b7e638a4cbf2f02089,689ea4b1852e2db6b1d926c5,,,,,,,,,,,,,,,35,1,,./stim/wavs/mexican_mismatch_interrogative-total-yn_El-hombre-mira-la-luna.wav,,,,,,,,,,,,,,,,,,,,,,393.413,395.3045,1,1,1.3632,,0,2,2,34,1,0,mexican,,,,,,,,,,,,,,,,,,,,,,,,,,,,,,,,,,,,,,,,,,,,,,,,,,,,,,,,
,,,,,,,,,6647ce8c4b8ee105144eb431,Spanish,13 or older,"no, only English or Spanish",no,2025-08-14_23h09.40.846,empathy_intonation_perc,2024.2.4,Win32,60.60606061,6647ce8c4b8ee105144eb431,687ed1b7e638a4cbf2f02089,689ea4b1852e2db6b1d926c5,,,,,,,,,,,,,,,9,1,,./stim/wavs/cuban_match_interrogative-total-yn_Manuela-vende-el-carro.wav,,,,,,,,,,,,,,,,,,,,,,395.3053,397.1714,0,0,1.3347,,0,3,3,8,1,1,cuban,,,,,,,,,,,,,,,,,,,,,,,,,,,,,,,,,,,,,,,,,,,,,,,,,,,,,,,,
,,,,,,,,,6647ce8c4b8ee105144eb431,Spanish,13 or older,"no, only English or Spanish",no,2025-08-14_23h09.40.846,empathy_intonation_perc,2024.2.4,Win32,60.60606061,6647ce8c4b8ee105144eb431,687ed1b7e638a4cbf2f02089,689ea4b1852e2db6b1d926c5,,,,,,,,,,,,,,,30,1,,./stim/wavs/cuban_mismatch_interrogative-total-yn_El-hombre-mira-la-luna.wav,,,,,,,,,,,,,,,,,,,,,,397.1746,398.9529,1,1,1.2489,,0,4,4,29,1,1,cuban,,,,,,,,,,,,,,,,,,,,,,,,,,,,,,,,,,,,,,,,,,,,,,,,,,,,,,,,
,,,,,,,,,6647ce8c4b8ee105144eb431,Spanish,13 or older,"no, only English or Spanish",no,2025-08-14_23h09.40.846,empathy_intonation_perc,2024.2.4,Win32,60.60606061,6647ce8c4b8ee105144eb431,687ed1b7e638a4cbf2f02089,689ea4b1852e2db6b1d926c5,,,,,,,,,,,,,,,42,1,,./stim/wavs/puertorican_mismatch_interrogative-total-yn_La-maestra-vive-en-Paris.wav,,,,,,,,,,,,,,,,,,,,,,398.956,401.0884,0,0,1.6103,,0,5,5,41,1,1,puertorican,,,,,,,,,,,,,,,,,,,,,,,,,,,,,,,,,,,,,,,,,,,,,,,,,,,,,,,,
,,,,,,,,,6647ce8c4b8ee105144eb431,Spanish,13 or older,"no, only English or Spanish",no,2025-08-14_23h09.40.846,empathy_intonation_perc,2024.2.4,Win32,60.60606061,6647ce8c4b8ee105144eb431,687ed1b7e638a4cbf2f02089,689ea4b1852e2db6b1d926c5,,,,,,,,,,,,,,,68,0,,./stim/wavs/puertorican_match_declarative-broad-focus_Maria-bebe-el-vino.wav,,,,,,,,,,,,,,,,,,,,,,401.0911,402.9974,0,1,1.3814,,0,6,6,67,1,0,puertorican,,,,,,,,,,,,,,,,,,,,,,,,,,,,,,,,,,,,,,,,,,,,,,,,,,,,,,,,
,,,,,,,,,6647ce8c4b8ee105144eb431,Spanish,13 or older,"no, only English or Spanish",no,2025-08-14_23h09.40.846,empathy_intonation_perc,2024.2.4,Win32,60.60606061,6647ce8c4b8ee105144eb431,687ed1b7e638a4cbf2f02089,689ea4b1852e2db6b1d926c5,,,,,,,,,,,,,,,88,0,,./stim/wavs/puertorican_mismatch_declarative-broad-focus_La-nina-lava-el-plato.wav,,,,,,,,,,,,,,,,,,,,,,402.9994,404.9972,0,1,1.4667,,0,7,7,87,1,0,puertorican,,,,,,,,,,,,,,,,,,,,,,,,,,,,,,,,,,,,,,,,,,,,,,,,,,,,,,,,
,,,,,,,,,6647ce8c4b8ee105144eb431,Spanish,13 or older,"no, only English or Spanish",no,2025-08-14_23h09.40.846,empathy_intonation_perc,2024.2.4,Win32,60.60606061,6647ce8c4b8ee105144eb431,687ed1b7e638a4cbf2f02089,689ea4b1852e2db6b1d926c5,,,,,,,,,,,,,,,8,1,,./stim/wavs/cuban_match_interrogative-total-yn_Daniel-iba-a-Bolivia.wav,,,,,,,,,,,,,,,,,,,,,,405.002,407.5933,1,1,2.0659,,0,8,8,7,1,1,cuban,,,,,,,,,,,,,,,,,,,,,,,,,,,,,,,,,,,,,,,,,,,,,,,,,,,,,,,,
,,,,,,,,,6647ce8c4b8ee105144eb431,Spanish,13 or older,"no, only English or Spanish",no,2025-08-14_23h09.40.846,empathy_intonation_perc,2024.2.4,Win32,60.60606061,6647ce8c4b8ee105144eb431,687ed1b7e638a4cbf2f02089,689ea4b1852e2db6b1d926c5,,,,,,,,,,,,,,,86,0,,./stim/wavs/puertorican_mismatch_declarative-broad-focus_El-nino-oye-el-rio.wav,,,,,,,,,,,,,,,,,,,,,,407.5947,411.6744,0,1,3.5456,,0,9,9,85,1,0,puertorican,,,,,,,,,,,,,,,,,,,,,,,,,,,,,,,,,,,,,,,,,,,,,,,,,,,,,,,,
,,,,,,,,,6647ce8c4b8ee105144eb431,Spanish,13 or older,"no, only English or Spanish",no,2025-08-14_23h09.40.846,empathy_intonation_perc,2024.2.4,Win32,60.60606061,6647ce8c4b8ee105144eb431,687ed1b7e638a4cbf2f02089,689ea4b1852e2db6b1d926c5,,,,,,,,,,,,,,,13,1,,./stim/wavs/mexican_match_interrogative-total-yn_Ana-lleva-el-abrigo.wav,,,,,,,,,,,,,,,,,,,,,,411.6779,413.7208,1,1,1.5177,,0,10,10,12,1,0,mexican,,,,,,,,,,,,,,,,,,,,,,,,,,,,,,,,,,,,,,,,,,,,,,,,,,,,,,,,
,,,,,,,,,6647ce8c4b8ee105144eb431,Spanish,13 or older,"no, only English or Spanish",no,2025-08-14_23h09.40.846,empathy_intonation_perc,2024.2.4,Win32,60.60606061,6647ce8c4b8ee105144eb431,687ed1b7e638a4cbf2f02089,689ea4b1852e2db6b1d926c5,,,,,,,,,,,,,,,83,0,,./stim/wavs/mexican_mismatch_declarative-broad-focus_Mi-tia-odia-la-lluvia.wav,,,,,,,,,,,,,,,,,,,,,,413.7232,415.8684,0,1,1.6323,,0,11,11,82,1,0,mexican,,,,,,,,,,,,,,,,,,,,,,,,,,,,,,,,,,,,,,,,,,,,,,,,,,,,,,,,
,,,,,,,,,6647ce8c4b8ee105144eb431,Spanish,13 or older,"no, only English or Spanish",no,2025-08-14_23h09.40.846,empathy_intonation_perc,2024.2.4,Win32,60.60606061,6647ce8c4b8ee105144eb431,687ed1b7e638a4cbf2f02089,689ea4b1852e2db6b1d926c5,,,,,,,,,,,,,,,15,1,,./stim/wavs/mexican_match_interrogative-total-yn_David-leia-el-libro.wav,,,,,,,,,,,,,,,,,,,,,,415.8709,418.3165,1,1,1.9188,,0,12,12,14,1,0,mexican,,,,,,,,,,,,,,,,,,,,,,,,,,,,,,,,,,,,,,,,,,,,,,,,,,,,,,,,
,,,,,,,,,6647ce8c4b8ee105144eb431,Spanish,13 or older,"no, only English or Spanish",no,2025-08-14_23h09.40.846,empathy_intonation_perc,2024.2.4,Win32,60.60606061,6647ce8c4b8ee105144eb431,687ed1b7e638a4cbf2f02089,689ea4b1852e2db6b1d926c5,,,,,,,,,,,,,,,79,0,,./stim/wavs/mexican_mismatch_declarative-broad-focus_El-bebe-comia-muy-bien.wav,,,,,,,,,,,,,,,,,,,,,,418.3201,420.3741,0,1,1.5305,,0,13,13,78,1,0,mexican,,,,,,,,,,,,,,,,,,,,,,,,,,,,,,,,,,,,,,,,,,,,,,,,,,,,,,,,
,,,,,,,,,6647ce8c4b8ee105144eb431,Spanish,13 or older,"no, only English or Spanish",no,2025-08-14_23h09.40.846,empathy_intonation_perc,2024.2.4,Win32,60.60606061,6647ce8c4b8ee105144eb431,687ed1b7e638a4cbf2f02089,689ea4b1852e2db6b1d926c5,,,,,,,,,,,,,,,84,0,,./stim/wavs/puertorican_mismatch_declarative-broad-focus_El-bebe-comia-muy-bien.wav,,,,,,,,,,,,,,,,,,,,,,420.3767,422.4697,0,1,1.578,,0,14,14,83,1,0,puertorican,,,,,,,,,,,,,,,,,,,,,,,,,,,,,,,,,,,,,,,,,,,,,,,,,,,,,,,,
,,,,,,,,,6647ce8c4b8ee105144eb431,Spanish,13 or older,"no, only English or Spanish",no,2025-08-14_23h09.40.846,empathy_intonation_perc,2024.2.4,Win32,60.60606061,6647ce8c4b8ee105144eb431,687ed1b7e638a4cbf2f02089,689ea4b1852e2db6b1d926c5,,,,,,,,,,,,,,,2,1,,./stim/wavs/castilian_match_interrogative-total-yn_Emilio-ama-la-marcha.wav,,,,,,,,,,,,,,,,,,,,,,422.4711,424.8272,1,1,1.8325,,0,15,15,1,1,0,castilian,,,,,,,,,,,,,,,,,,,,,,,,,,,,,,,,,,,,,,,,,,,,,,,,,,,,,,,,
,,,,,,,,,6647ce8c4b8ee105144eb431,Spanish,13 or older,"no, only English or Spanish",no,2025-08-14_23h09.40.846,empathy_intonation_perc,2024.2.4,Win32,60.60606061,6647ce8c4b8ee105144eb431,687ed1b7e638a4cbf2f02089,689ea4b1852e2db6b1d926c5,,,,,,,,,,,,,,,61,0,,./stim/wavs/mexican_match_declarative-broad-focus_Mariano-habla-del-tiempo.wav,,,,,,,,,,,,,,,,,,,,,,424.83,427.4097,0,1,2.0357,,0,16,16,60,1,0,mexican,,,,,,,,,,,,,,,,,,,,,,,,,,,,,,,,,,,,,,,,,,,,,,,,,,,,,,,,
,,,,,,,,,6647ce8c4b8ee105144eb431,Spanish,13 or older,"no, only English or Spanish",no,2025-08-14_23h09.40.846,empathy_intonation_perc,2024.2.4,Win32,60.60606061,6647ce8c4b8ee105144eb431,687ed1b7e638a4cbf2f02089,689ea4b1852e2db6b1d926c5,,,,,,,,,,,,,,,21,1,,./stim/wavs/puertorican_match_interrogative-total-yn_David-leia-el-libro.wav,,,,,,,,,,,,,,,,,,,,,,427.412,430.1384,0,0,2.2053,,0,17,17,20,1,1,puertorican,,,,,,,,,,,,,,,,,,,,,,,,,,,,,,,,,,,,,,,,,,,,,,,,,,,,,,,,
,,,,,,,,,6647ce8c4b8ee105144eb431,Spanish,13 or older,"no, only English or Spanish",no,2025-08-14_23h09.40.846,empathy_intonation_perc,2024.2.4,Win32,60.60606061,6647ce8c4b8ee105144eb431,687ed1b7e638a4cbf2f02089,689ea4b1852e2db6b1d926c5,,,,,,,,,,,,,,,3,1,,./stim/wavs/castilian_match_interrogative-total-yn_Manuela-vende-el-carro.wav,,,,,,,,,,,,,,,,,,,,,,430.1409,432.908,1,1,2.2363,,0,18,18,2,1,0,castilian,,,,,,,,,,,,,,,,,,,,,,,,,,,,,,,,,,,,,,,,,,,,,,,,,,,,,,,,
,,,,,,,,,6647ce8c4b8ee105144eb431,Spanish,13 or older,"no, only English or Spanish",no,2025-08-14_23h09.40.846,empathy_intonation_perc,2024.2.4,Win32,60.60606061,6647ce8c4b8ee105144eb431,687ed1b7e638a4cbf2f02089,689ea4b1852e2db6b1d926c5,,,,,,,,,,,,,,,26,1,,./stim/wavs/castilian_mismatch_interrogative-total-yn_La-nina-lava-el-plato.wav,,,,,,,,,,,,,,,,,,,,,,432.9093,435.6107,1,1,2.1787,,0,19,19,25,1,0,castilian,,,,,,,,,,,,,,,,,,,,,,,,,,,,,,,,,,,,,,,,,,,,,,,,,,,,,,,,
,,,,,,,,,6647ce8c4b8ee105144eb431,Spanish,13 or older,"no, only English or Spanish",no,2025-08-14_23h09.40.846,empathy_intonation_perc,2024.2.4,Win32,60.60606061,6647ce8c4b8ee105144eb431,687ed1b7e638a4cbf2f02089,689ea4b1852e2db6b1d926c5,,,,,,,,,,,,,,,7,1,,./stim/wavs/cuban_match_interrogative-total-yn_Ana-lleva-el-abrigo.wav,,,,,,,,,,,,,,,,,,,,,,435.6121,438.2721,1,1,2.1316,,0,20,20,6,1,1,cuban,,,,,,,,,,,,,,,,,,,,,,,,,,,,,,,,,,,,,,,,,,,,,,,,,,,,,,,,
,,,,,,,,,6647ce8c4b8ee105144eb431,Spanish,13 or older,"no, only English or Spanish",no,2025-08-14_23h09.40.846,empathy_intonation_perc,2024.2.4,Win32,60.60606061,6647ce8c4b8ee105144eb431,687ed1b7e638a4cbf2f02089,689ea4b1852e2db6b1d926c5,,,,,,,,,,,,,,,65,0,,./stim/wavs/puertorican_match_declarative-broad-focus_David-leia-el-libro.wav,,,,,,,,,,,,,,,,,,,,,,438.2732,440.7203,0,1,1.9286,,0,21,21,64,1,0,puertorican,,,,,,,,,,,,,,,,,,,,,,,,,,,,,,,,,,,,,,,,,,,,,,,,,,,,,,,,
,,,,,,,,,6647ce8c4b8ee105144eb431,Spanish,13 or older,"no, only English or Spanish",no,2025-08-14_23h09.40.846,empathy_intonation_perc,2024.2.4,Win32,60.60606061,6647ce8c4b8ee105144eb431,687ed1b7e638a4cbf2f02089,689ea4b1852e2db6b1d926c5,,,,,,,,,,,,,,,78,0,,./stim/wavs/cuban_mismatch_declarative-broad-focus_Mi-tia-odia-la-lluvia.wav,,,,,,,,,,,,,,,,,,,,,,440.7228,442.843,0,1,1.5942,,0,22,22,77,1,0,cuban,,,,,,,,,,,,,,,,,,,,,,,,,,,,,,,,,,,,,,,,,,,,,,,,,,,,,,,,
,,,,,,,,,6647ce8c4b8ee105144eb431,Spanish,13 or older,"no, only English or Spanish",no,2025-08-14_23h09.40.846,empathy_intonation_perc,2024.2.4,Win32,60.60606061,6647ce8c4b8ee105144eb431,687ed1b7e638a4cbf2f02089,689ea4b1852e2db6b1d926c5,,,,,,,,,,,,,,,58,0,,./stim/wavs/mexican_match_declarative-broad-focus_Daniel-iba-a-Bolivia.wav,,,,,,,,,,,,,,,,,,,,,,442.8446,445.0744,0,1,1.7129,,0,23,23,57,1,0,mexican,,,,,,,,,,,,,,,,,,,,,,,,,,,,,,,,,,,,,,,,,,,,,,,,,,,,,,,,
,,,,,,,,,6647ce8c4b8ee105144eb431,Spanish,13 or older,"no, only English or Spanish",no,2025-08-14_23h09.40.846,empathy_intonation_perc,2024.2.4,Win32,60.60606061,6647ce8c4b8ee105144eb431,687ed1b7e638a4cbf2f02089,689ea4b1852e2db6b1d926c5,,,,,,,,,,,,,,,23,1,,./stim/wavs/puertorican_match_interrogative-total-yn_Manuela-vende-el-carro.wav,,,,,,,,,,,,,,,,,,,,,,445.0771,447.0403,1,1,1.4387,,0,24,24,22,1,1,puertorican,,,,,,,,,,,,,,,,,,,,,,,,,,,,,,,,,,,,,,,,,,,,,,,,,,,,,,,,
,,,,,,,,,6647ce8c4b8ee105144eb431,Spanish,13 or older,"no, only English or Spanish",no,2025-08-14_23h09.40.846,empathy_intonation_perc,2024.2.4,Win32,60.60606061,6647ce8c4b8ee105144eb431,687ed1b7e638a4cbf2f02089,689ea4b1852e2db6b1d926c5,,,,,,,,,,,,,,,80,0,,./stim/wavs/mexican_mismatch_declarative-broad-focus_El-hombre-mira-la-luna.wav,,,,,,,,,,,,,,,,,,,,,,447.0432,449.2049,0,1,1.6292,,0,25,25,79,1,0,mexican,,,,,,,,,,,,,,,,,,,,,,,,,,,,,,,,,,,,,,,,,,,,,,,,,,,,,,,,
,,,,,,,,,6647ce8c4b8ee105144eb431,Spanish,13 or older,"no, only English or Spanish",no,2025-08-14_23h09.40.846,empathy_intonation_perc,2024.2.4,Win32,60.60606061,6647ce8c4b8ee105144eb431,687ed1b7e638a4cbf2f02089,689ea4b1852e2db6b1d926c5,,,,,,,,,,,,,,,16,1,,./stim/wavs/mexican_match_interrogative-total-yn_Emilio-ama-la-marcha.wav,,,,,,,,,,,,,,,,,,,,,,449.2085,451.1789,0,0,1.4556,,0,26,26,15,1,0,mexican,,,,,,,,,,,,,,,,,,,,,,,,,,,,,,,,,,,,,,,,,,,,,,,,,,,,,,,,
,,,,,,,,,6647ce8c4b8ee105144eb431,Spanish,13 or older,"no, only English or Spanish",no,2025-08-14_23h09.40.846,empathy_intonation_perc,2024.2.4,Win32,60.60606061,6647ce8c4b8ee105144eb431,687ed1b7e638a4cbf2f02089,689ea4b1852e2db6b1d926c5,,,,,,,,,,,,,,,77,0,,./stim/wavs/cuban_mismatch_declarative-broad-focus_Mi-novio-viene-del-lago.wav,,,,,,,,,,,,,,,,,,,,,,451.1812,453.7508,0,1,2.0519,,0,27,27,76,1,0,cuban,,,,,,,,,,,,,,,,,,,,,,,,,,,,,,,,,,,,,,,,,,,,,,,,,,,,,,,,
,,,,,,,,,6647ce8c4b8ee105144eb431,Spanish,13 or older,"no, only English or Spanish",no,2025-08-14_23h09.40.846,empathy_intonation_perc,2024.2.4,Win32,60.60606061,6647ce8c4b8ee105144eb431,687ed1b7e638a4cbf2f02089,689ea4b1852e2db6b1d926c5,,,,,,,,,,,,,,,32,1,,./stim/wavs/cuban_mismatch_interrogative-total-yn_Mi-madre-come-la-fruta.wav,,,,,,,,,,,,,,,,,,,,,,453.754,456.2478,0,0,1.9551,,0,28,28,31,1,1,cuban,,,,,,,,,,,,,,,,,,,,,,,,,,,,,,,,,,,,,,,,,,,,,,,,,,,,,,,,
,,,,,,,,,6647ce8c4b8ee105144eb431,Spanish,13 or older,"no, only English or Spanish",no,2025-08-14_23h09.40.846,empathy_intonation_perc,2024.2.4,Win32,60.60606061,6647ce8c4b8ee105144eb431,687ed1b7e638a4cbf2f02089,689ea4b1852e2db6b1d926c5,,,,,,,,,,,,,,,31,1,,./stim/wavs/cuban_mismatch_interrogative-total-yn_El-nino-oye-el-rio.wav,,,,,,,,,,,,,,,,,,,,,,456.2508,458.1892,0,0,1.413,,0,29,29,30,1,1,cuban,,,,,,,,,,,,,,,,,,,,,,,,,,,,,,,,,,,,,,,,,,,,,,,,,,,,,,,,
,,,,,,,,,6647ce8c4b8ee105144eb431,Spanish,13 or older,"no, only English or Spanish",no,2025-08-14_23h09.40.846,empathy_intonation_perc,2024.2.4,Win32,60.60606061,6647ce8c4b8ee105144eb431,687ed1b7e638a4cbf2f02089,689ea4b1852e2db6b1d926c5,,,,,,,,,,,,,,,76,0,,./stim/wavs/cuban_mismatch_declarative-broad-focus_La-nina-lava-el-plato.wav,,,,,,,,,,,,,,,,,,,,,,458.1915,460.4011,0,1,1.696,,0,30,30,75,1,0,cuban,,,,,,,,,,,,,,,,,,,,,,,,,,,,,,,,,,,,,,,,,,,,,,,,,,,,,,,,
,,,,,,,,,6647ce8c4b8ee105144eb431,Spanish,13 or older,"no, only English or Spanish",no,2025-08-14_23h09.40.846,empathy_intonation_perc,2024.2.4,Win32,60.60606061,6647ce8c4b8ee105144eb431,687ed1b7e638a4cbf2f02089,689ea4b1852e2db6b1d926c5,,,,,,,,,,,,,,,34,1,,./stim/wavs/cuban_mismatch_interrogative-total-yn_Mi-tia-odia-la-lluvia.wav,,,,,,,,,,,,,,,,,,,,,,460.4024,462.6336,0,0,1.713,,0,31,31,33,1,1,cuban,,,,,,,,,,,,,,,,,,,,,,,,,,,,,,,,,,,,,,,,,,,,,,,,,,,,,,,,
,,,,,,,,,6647ce8c4b8ee105144eb431,Spanish,13 or older,"no, only English or Spanish",no,2025-08-14_23h09.40.846,empathy_intonation_perc,2024.2.4,Win32,60.60606061,6647ce8c4b8ee105144eb431,687ed1b7e638a4cbf2f02089,689ea4b1852e2db6b1d926c5,,,,,,,,,,,,,,,44,1,,./stim/wavs/puertorican_mismatch_interrogative-total-yn_Mi-madre-come-la-fruta.wav,,,,,,,,,,,,,,,,,,,,,,462.6346,465.0236,0,0,1.8584,,0,32,32,43,1,1,puertorican,,,,,,,,,,,,,,,,,,,,,,,,,,,,,,,,,,,,,,,,,,,,,,,,,,,,,,,,
,,,,,,,,,6647ce8c4b8ee105144eb431,Spanish,13 or older,"no, only English or Spanish",no,2025-08-14_23h09.40.846,empathy_intonation_perc,2024.2.4,Win32,60.60606061,6647ce8c4b8ee105144eb431,687ed1b7e638a4cbf2f02089,689ea4b1852e2db6b1d926c5,,,,,,,,,,,,,,,81,0,,./stim/wavs/mexican_mismatch_declarative-broad-focus_La-maestra-vive-en-Paris.wav,,,,,,,,,,,,,,,,,,,,,,465.0259,468.659,0,1,3.1099,,0,33,33,80,1,0,mexican,,,,,,,,,,,,,,,,,,,,,,,,,,,,,,,,,,,,,,,,,,,,,,,,,,,,,,,,
,,,,,,,,,6647ce8c4b8ee105144eb431,Spanish,13 or older,"no, only English or Spanish",no,2025-08-14_23h09.40.846,empathy_intonation_perc,2024.2.4,Win32,60.60606061,6647ce8c4b8ee105144eb431,687ed1b7e638a4cbf2f02089,689ea4b1852e2db6b1d926c5,,,,,,,,,,,,,,,41,1,,./stim/wavs/puertorican_mismatch_interrogative-total-yn_El-nino-oye-el-rio.wav,,,,,,,,,,,,,,,,,,,,,,468.6597,470.6385,0,0,1.4463,,0,34,34,40,1,1,puertorican,,,,,,,,,,,,,,,,,,,,,,,,,,,,,,,,,,,,,,,,,,,,,,,,,,,,,,,,
,,,,,,,,,6647ce8c4b8ee105144eb431,Spanish,13 or older,"no, only English or Spanish",no,2025-08-14_23h09.40.846,empathy_intonation_perc,2024.2.4,Win32,60.60606061,6647ce8c4b8ee105144eb431,687ed1b7e638a4cbf2f02089,689ea4b1852e2db6b1d926c5,,,,,,,,,,,,,,,12,1,,./stim/wavs/cuban_match_interrogative-total-yn_Marta-abre-el-regalo.wav,,,,,,,,,,,,,,,,,,,,,,470.6391,472.8893,1,1,1.7314,,0,35,35,11,1,1,cuban,,,,,,,,,,,,,,,,,,,,,,,,,,,,,,,,,,,,,,,,,,,,,,,,,,,,,,,,
,,,,,,,,,6647ce8c4b8ee105144eb431,Spanish,13 or older,"no, only English or Spanish",no,2025-08-14_23h09.40.846,empathy_intonation_perc,2024.2.4,Win32,60.60606061,6647ce8c4b8ee105144eb431,687ed1b7e638a4cbf2f02089,689ea4b1852e2db6b1d926c5,,,,,,,,,,,,,,,39,1,,./stim/wavs/mexican_mismatch_interrogative-total-yn_Mi-tia-odia-la-lluvia.wav,,,,,,,,,,,,,,,,,,,,,,472.8899,474.5543,1,1,1.131,,0,36,36,38,1,0,mexican,,,,,,,,,,,,,,,,,,,,,,,,,,,,,,,,,,,,,,,,,,,,,,,,,,,,,,,,
,,,,,,,,,6647ce8c4b8ee105144eb431,Spanish,13 or older,"no, only English or Spanish",no,2025-08-14_23h09.40.846,empathy_intonation_perc,2024.2.4,Win32,60.60606061,6647ce8c4b8ee105144eb431,687ed1b7e638a4cbf2f02089,689ea4b1852e2db6b1d926c5,,,,,,,,,,,,,,,18,1,,./stim/wavs/mexican_match_interrogative-total-yn_Marta-abre-el-regalo.wav,,,,,,,,,,,,,,,,,,,,,,474.5554,476.7797,1,1,1.6861,,0,37,37,17,1,0,mexican,,,,,,,,,,,,,,,,,,,,,,,,,,,,,,,,,,,,,,,,,,,,,,,,,,,,,,,,
,,,,,,,,,6647ce8c4b8ee105144eb431,Spanish,13 or older,"no, only English or Spanish",no,2025-08-14_23h09.40.846,empathy_intonation_perc,2024.2.4,Win32,60.60606061,6647ce8c4b8ee105144eb431,687ed1b7e638a4cbf2f02089,689ea4b1852e2db6b1d926c5,,,,,,,,,,,,,,,54,0,,./stim/wavs/cuban_match_declarative-broad-focus_Maria-bebe-el-vino.wav,,,,,,,,,,,,,,,,,,,,,,476.7825,478.8682,0,1,1.5626,,0,38,38,53,1,0,cuban,,,,,,,,,,,,,,,,,,,,,,,,,,,,,,,,,,,,,,,,,,,,,,,,,,,,,,,,
,,,,,,,,,6647ce8c4b8ee105144eb431,Spanish,13 or older,"no, only English or Spanish",no,2025-08-14_23h09.40.846,empathy_intonation_perc,2024.2.4,Win32,60.60606061,6647ce8c4b8ee105144eb431,687ed1b7e638a4cbf2f02089,689ea4b1852e2db6b1d926c5,,,,,,,,,,,,,,,27,1,,./stim/wavs/castilian_mismatch_interrogative-total-yn_Mi-madre-come-la-fruta.wav,,,,,,,,,,,,,,,,,,,,,,478.8701,481.1319,1,1,1.7437,,0,39,39,26,1,0,castilian,,,,,,,,,,,,,,,,,,,,,,,,,,,,,,,,,,,,,,,,,,,,,,,,,,,,,,,,
,,,,,,,,,6647ce8c4b8ee105144eb431,Spanish,13 or older,"no, only English or Spanish",no,2025-08-14_23h09.40.846,empathy_intonation_perc,2024.2.4,Win32,60.60606061,6647ce8c4b8ee105144eb431,687ed1b7e638a4cbf2f02089,689ea4b1852e2db6b1d926c5,,,,,,,,,,,,,,,67,0,,./stim/wavs/puertorican_match_declarative-broad-focus_Manuela-vende-el-carro.wav,,,,,,,,,,,,,,,,,,,,,,481.1337,483.4319,0,1,1.7811,,0,40,40,66,1,0,puertorican,,,,,,,,,,,,,,,,,,,,,,,,,,,,,,,,,,,,,,,,,,,,,,,,,,,,,,,,
,,,,,,,,,6647ce8c4b8ee105144eb431,Spanish,13 or older,"no, only English or Spanish",no,2025-08-14_23h09.40.846,empathy_intonation_perc,2024.2.4,Win32,60.60606061,6647ce8c4b8ee105144eb431,687ed1b7e638a4cbf2f02089,689ea4b1852e2db6b1d926c5,,,,,,,,,,,,,,,45,0,,./stim/wavs/castilian_match_declarative-broad-focus_David-leia-el-libro.wav,,,,,,,,,,,,,,,,,,,,,,483.4343,485.7042,0,1,1.7495,,0,41,41,44,1,0,castilian,,,,,,,,,,,,,,,,,,,,,,,,,,,,,,,,,,,,,,,,,,,,,,,,,,,,,,,,
,,,,,,,,,6647ce8c4b8ee105144eb431,Spanish,13 or older,"no, only English or Spanish",no,2025-08-14_23h09.40.846,empathy_intonation_perc,2024.2.4,Win32,60.60606061,6647ce8c4b8ee105144eb431,687ed1b7e638a4cbf2f02089,689ea4b1852e2db6b1d926c5,,,,,,,,,,,,,,,55,0,,./stim/wavs/cuban_match_declarative-broad-focus_Mariano-habla-del-tiempo.wav,,,,,,,,,,,,,,,,,,,,,,485.707,487.8894,0,1,1.6623,,0,42,42,54,1,0,cuban,,,,,,,,,,,,,,,,,,,,,,,,,,,,,,,,,,,,,,,,,,,,,,,,,,,,,,,,
,,,,,,,,,6647ce8c4b8ee105144eb431,Spanish,13 or older,"no, only English or Spanish",no,2025-08-14_23h09.40.846,empathy_intonation_perc,2024.2.4,Win32,60.60606061,6647ce8c4b8ee105144eb431,687ed1b7e638a4cbf2f02089,689ea4b1852e2db6b1d926c5,,,,,,,,,,,,,,,69,0,,./stim/wavs/castilian_mismatch_declarative-broad-focus_El-nino-oye-el-rio.wav,,,,,,,,,,,,,,,,,,,,,,487.8918,490.1832,0,1,1.7777,,0,43,43,68,1,0,castilian,,,,,,,,,,,,,,,,,,,,,,,,,,,,,,,,,,,,,,,,,,,,,,,,,,,,,,,,
,,,,,,,,,6647ce8c4b8ee105144eb431,Spanish,13 or older,"no, only English or Spanish",no,2025-08-14_23h09.40.846,empathy_intonation_perc,2024.2.4,Win32,60.60606061,6647ce8c4b8ee105144eb431,687ed1b7e638a4cbf2f02089,689ea4b1852e2db6b1d926c5,,,,,,,,,,,,,,,57,0,,./stim/wavs/mexican_match_declarative-broad-focus_Ana-lleva-el-abrigo.wav,,,,,,,,,,,,,,,,,,,,,,490.186,491.9237,0,1,1.213,,0,44,44,56,1,0,mexican,,,,,,,,,,,,,,,,,,,,,,,,,,,,,,,,,,,,,,,,,,,,,,,,,,,,,,,,
,,,,,,,,,6647ce8c4b8ee105144eb431,Spanish,13 or older,"no, only English or Spanish",no,2025-08-14_23h09.40.846,empathy_intonation_perc,2024.2.4,Win32,60.60606061,6647ce8c4b8ee105144eb431,687ed1b7e638a4cbf2f02089,689ea4b1852e2db6b1d926c5,,,,,,,,,,,,,,,37,1,,./stim/wavs/mexican_mismatch_interrogative-total-yn_La-maestra-vive-en-Paris.wav,,,,,,,,,,,,,,,,,,,,,,491.9258,494.0546,0,0,1.6145,,0,45,45,36,1,0,mexican,,,,,,,,,,,,,,,,,,,,,,,,,,,,,,,,,,,,,,,,,,,,,,,,,,,,,,,,
,,,,,,,,,6647ce8c4b8ee105144eb431,Spanish,13 or older,"no, only English or Spanish",no,2025-08-14_23h09.40.846,empathy_intonation_perc,2024.2.4,Win32,60.60606061,6647ce8c4b8ee105144eb431,687ed1b7e638a4cbf2f02089,689ea4b1852e2db6b1d926c5,,,,,,,,,,,,,,,19,1,,./stim/wavs/puertorican_match_interrogative-total-yn_Ana-lleva-el-abrigo.wav,,,,,,,,,,,,,,,,,,,,,,494.0563,496.0536,1,1,1.4804,,0,46,46,18,1,1,puertorican,,,,,,,,,,,,,,,,,,,,,,,,,,,,,,,,,,,,,,,,,,,,,,,,,,,,,,,,
,,,,,,,,,6647ce8c4b8ee105144eb431,Spanish,13 or older,"no, only English or Spanish",no,2025-08-14_23h09.40.846,empathy_intonation_perc,2024.2.4,Win32,60.60606061,6647ce8c4b8ee105144eb431,687ed1b7e638a4cbf2f02089,689ea4b1852e2db6b1d926c5,,,,,,,,,,,,,,,47,0,,./stim/wavs/castilian_match_declarative-broad-focus_Manuela-vende-el-carro.wav,,,,,,,,,,,,,,,,,,,,,,496.0561,498.4594,0,1,1.8819,,0,47,47,46,1,0,castilian,,,,,,,,,,,,,,,,,,,,,,,,,,,,,,,,,,,,,,,,,,,,,,,,,,,,,,,,
,,,,,,,,,6647ce8c4b8ee105144eb431,Spanish,13 or older,"no, only English or Spanish",no,2025-08-14_23h09.40.846,empathy_intonation_perc,2024.2.4,Win32,60.60606061,6647ce8c4b8ee105144eb431,687ed1b7e638a4cbf2f02089,689ea4b1852e2db6b1d926c5,,,,,,,,,,,,,,,25,1,,./stim/wavs/castilian_mismatch_interrogative-total-yn_La-maestra-vive-en-Paris.wav,,,,,,,,,,,,,,,,,,,,,,498.4628,500.69,1,1,1.691,,0,48,48,24,1,0,castilian,,,,,,,,,,,,,,,,,,,,,,,,,,,,,,,,,,,,,,,,,,,,,,,,,,,,,,,,
,,,,,,,,,6647ce8c4b8ee105144eb431,Spanish,13 or older,"no, only English or Spanish",no,2025-08-14_23h09.40.846,empathy_intonation_perc,2024.2.4,Win32,60.60606061,6647ce8c4b8ee105144eb431,687ed1b7e638a4cbf2f02089,689ea4b1852e2db6b1d926c5,,,,,,,,,,,,,,,11,1,,./stim/wavs/cuban_match_interrogative-total-yn_Mariano-habla-del-tiempo.wav,,,,,,,,,,,,,,,,,,,,,,500.6925,503.9858,0,0,2.7588,,0,49,49,10,1,1,cuban,,,,,,,,,,,,,,,,,,,,,,,,,,,,,,,,,,,,,,,,,,,,,,,,,,,,,,,,
,,,,,,,,,6647ce8c4b8ee105144eb431,Spanish,13 or older,"no, only English or Spanish",no,2025-08-14_23h09.40.846,empathy_intonation_perc,2024.2.4,Win32,60.60606061,6647ce8c4b8ee105144eb431,687ed1b7e638a4cbf2f02089,689ea4b1852e2db6b1d926c5,,,,,,,,,,,,,,,40,1,,./stim/wavs/puertorican_mismatch_interrogative-total-yn_El-hombre-mira-la-luna.wav,,,,,,,,,,,,,,,,,,,,,,503.9886,505.9346,1,1,1.4172,,0,50,50,39,1,1,puertorican,,,,,,,,,,,,,,,,,,,,,,,,,,,,,,,,,,,,,,,,,,,,,,,,,,,,,,,,
,,,,,,,,,6647ce8c4b8ee105144eb431,Spanish,13 or older,"no, only English or Spanish",no,2025-08-14_23h09.40.846,empathy_intonation_perc,2024.2.4,Win32,60.60606061,6647ce8c4b8ee105144eb431,687ed1b7e638a4cbf2f02089,689ea4b1852e2db6b1d926c5,,,,,,,,,,,,,,,43,1,,./stim/wavs/puertorican_mismatch_interrogative-total-yn_La-nina-lava-el-plato.wav,,,,,,,,,,,,,,,,,,,,,,505.9376,507.8492,1,1,1.3902,,0,51,51,42,1,1,puertorican,,,,,,,,,,,,,,,,,,,,,,,,,,,,,,,,,,,,,,,,,,,,,,,,,,,,,,,,
,,,,,,,,,6647ce8c4b8ee105144eb431,Spanish,13 or older,"no, only English or Spanish",no,2025-08-14_23h09.40.846,empathy_intonation_perc,2024.2.4,Win32,60.60606061,6647ce8c4b8ee105144eb431,687ed1b7e638a4cbf2f02089,689ea4b1852e2db6b1d926c5,,,,,,,,,,,,,,,5,1,,./stim/wavs/castilian_match_interrogative-total-yn_Mariano-habla-del-tiempo.wav,,,,,,,,,,,,,,,,,,,,,,507.8518,510.2478,1,1,1.8668,,0,52,52,4,1,0,castilian,,,,,,,,,,,,,,,,,,,,,,,,,,,,,,,,,,,,,,,,,,,,,,,,,,,,,,,,
,,,,,,,,,6647ce8c4b8ee105144eb431,Spanish,13 or older,"no, only English or Spanish",no,2025-08-14_23h09.40.846,empathy_intonation_perc,2024.2.4,Win32,60.60606061,6647ce8c4b8ee105144eb431,687ed1b7e638a4cbf2f02089,689ea4b1852e2db6b1d926c5,,,,,,,,,,,,,,,48,0,,./stim/wavs/castilian_match_declarative-broad-focus_Maria-bebe-el-vino.wav,,,,,,,,,,,,,,,,,,,,,,510.2512,512.545,0,1,1.7554,,0,53,53,47,1,0,castilian,,,,,,,,,,,,,,,,,,,,,,,,,,,,,,,,,,,,,,,,,,,,,,,,,,,,,,,,
,,,,,,,,,6647ce8c4b8ee105144eb431,Spanish,13 or older,"no, only English or Spanish",no,2025-08-14_23h09.40.846,empathy_intonation_perc,2024.2.4,Win32,60.60606061,6647ce8c4b8ee105144eb431,687ed1b7e638a4cbf2f02089,689ea4b1852e2db6b1d926c5,,,,,,,,,,,,,,,60,0,,./stim/wavs/mexican_match_declarative-broad-focus_Emilio-ama-la-marcha.wav,,,,,,,,,,,,,,,,,,,,,,512.5474,515.4632,0,1,2.3904,,0,54,54,59,1,0,mexican,,,,,,,,,,,,,,,,,,,,,,,,,,,,,,,,,,,,,,,,,,,,,,,,,,,,,,,,
,,,,,,,,,6647ce8c4b8ee105144eb431,Spanish,13 or older,"no, only English or Spanish",no,2025-08-14_23h09.40.846,empathy_intonation_perc,2024.2.4,Win32,60.60606061,6647ce8c4b8ee105144eb431,687ed1b7e638a4cbf2f02089,689ea4b1852e2db6b1d926c5,,,,,,,,,,,,,,,14,1,,./stim/wavs/mexican_match_interrogative-total-yn_Daniel-iba-a-Bolivia.wav,,,,,,,,,,,,,,,,,,,,,,515.4649,518.2155,1,1,2.2293,,0,55,55,13,1,0,mexican,,,,,,,,,,,,,,,,,,,,,,,,,,,,,,,,,,,,,,,,,,,,,,,,,,,,,,,,
,,,,,,,,,6647ce8c4b8ee105144eb431,Spanish,13 or older,"no, only English or Spanish",no,2025-08-14_23h09.40.846,empathy_intonation_perc,2024.2.4,Win32,60.60606061,6647ce8c4b8ee105144eb431,687ed1b7e638a4cbf2f02089,689ea4b1852e2db6b1d926c5,,,,,,,,,,,,,,,71,0,,./stim/wavs/castilian_mismatch_declarative-broad-focus_La-nina-lava-el-plato.wav,,,,,,,,,,,,,,,,,,,,,,518.2175,520.5557,0,1,1.8042,,0,56,56,70,1,0,castilian,,,,,,,,,,,,,,,,,,,,,,,,,,,,,,,,,,,,,,,,,,,,,,,,,,,,,,,,
,,,,,,,,,6647ce8c4b8ee105144eb431,Spanish,13 or older,"no, only English or Spanish",no,2025-08-14_23h09.40.846,empathy_intonation_perc,2024.2.4,Win32,60.60606061,6647ce8c4b8ee105144eb431,687ed1b7e638a4cbf2f02089,689ea4b1852e2db6b1d926c5,,,,,,,,,,,,,,,87,0,,./stim/wavs/puertorican_mismatch_declarative-broad-focus_La-maestra-vive-en-Paris.wav,,,,,,,,,,,,,,,,,,,,,,520.5589,522.635,0,1,1.5489,,0,57,57,86,1,0,puertorican,,,,,,,,,,,,,,,,,,,,,,,,,,,,,,,,,,,,,,,,,,,,,,,,,,,,,,,,
,,,,,,,,,6647ce8c4b8ee105144eb431,Spanish,13 or older,"no, only English or Spanish",no,2025-08-14_23h09.40.846,empathy_intonation_perc,2024.2.4,Win32,60.60606061,6647ce8c4b8ee105144eb431,687ed1b7e638a4cbf2f02089,689ea4b1852e2db6b1d926c5,,,,,,,,,,,,,,,10,1,,./stim/wavs/cuban_match_interrogative-total-yn_Maria-bebe-el-vino.wav,,,,,,,,,,,,,,,,,,,,,,522.637,526.7002,1,1,3.5375,,0,58,58,9,1,1,cuban,,,,,,,,,,,,,,,,,,,,,,,,,,,,,,,,,,,,,,,,,,,,,,,,,,,,,,,,
,,,,,,,,,6647ce8c4b8ee105144eb431,Spanish,13 or older,"no, only English or Spanish",no,2025-08-14_23h09.40.846,empathy_intonation_perc,2024.2.4,Win32,60.60606061,6647ce8c4b8ee105144eb431,687ed1b7e638a4cbf2f02089,689ea4b1852e2db6b1d926c5,,,,,,,,,,,,,,,62,0,,./stim/wavs/mexican_match_declarative-broad-focus_Marta-abre-el-regalo.wav,,,,,,,,,,,,,,,,,,,,,,526.7028,528.6363,0,1,1.4144,,0,59,59,61,1,0,mexican,,,,,,,,,,,,,,,,,,,,,,,,,,,,,,,,,,,,,,,,,,,,,,,,,,,,,,,,
,,,,,,,,,6647ce8c4b8ee105144eb431,Spanish,13 or older,"no, only English or Spanish",no,2025-08-14_23h09.40.846,empathy_intonation_perc,2024.2.4,Win32,60.60606061,6647ce8c4b8ee105144eb431,687ed1b7e638a4cbf2f02089,689ea4b1852e2db6b1d926c5,,,,,,,,,,,,,,,66,0,,./stim/wavs/puertorican_match_declarative-broad-focus_Emilio-ama-la-marcha.wav,,,,,,,,,,,,,,,,,,,,,,528.6369,530.5844,0,1,1.414,,0,60,60,65,1,0,puertorican,,,,,,,,,,,,,,,,,,,,,,,,,,,,,,,,,,,,,,,,,,,,,,,,,,,,,,,,
,,,,,,,,,6647ce8c4b8ee105144eb431,Spanish,13 or older,"no, only English or Spanish",no,2025-08-14_23h09.40.846,empathy_intonation_perc,2024.2.4,Win32,60.60606061,6647ce8c4b8ee105144eb431,687ed1b7e638a4cbf2f02089,689ea4b1852e2db6b1d926c5,,,,,,,,,,,,,,,28,1,,./stim/wavs/castilian_mismatch_interrogative-total-yn_Mi-novio-viene-del-lago.wav,,,,,,,,,,,,,,,,,,,,,,530.5849,532.7824,1,1,1.6654,,0,61,61,27,1,0,castilian,,,,,,,,,,,,,,,,,,,,,,,,,,,,,,,,,,,,,,,,,,,,,,,,,,,,,,,,
,,,,,,,,,6647ce8c4b8ee105144eb431,Spanish,13 or older,"no, only English or Spanish",no,2025-08-14_23h09.40.846,empathy_intonation_perc,2024.2.4,Win32,60.60606061,6647ce8c4b8ee105144eb431,687ed1b7e638a4cbf2f02089,689ea4b1852e2db6b1d926c5,,,,,,,,,,,,,,,20,1,,./stim/wavs/puertorican_match_interrogative-total-yn_Daniel-iba-a-Bolivia.wav,,,,,,,,,,,,,,,,,,,,,,532.7828,535.1826,0,0,1.8668,,0,62,62,19,1,1,puertorican,,,,,,,,,,,,,,,,,,,,,,,,,,,,,,,,,,,,,,,,,,,,,,,,,,,,,,,,
,,,,,,,,,6647ce8c4b8ee105144eb431,Spanish,13 or older,"no, only English or Spanish",no,2025-08-14_23h09.40.846,empathy_intonation_perc,2024.2.4,Win32,60.60606061,6647ce8c4b8ee105144eb431,687ed1b7e638a4cbf2f02089,689ea4b1852e2db6b1d926c5,,,,,,,,,,,,,,,22,1,,./stim/wavs/puertorican_match_interrogative-total-yn_Emilio-ama-la-marcha.wav,,,,,,,,,,,,,,,,,,,,,,535.1838,537.632,0,0,1.9168,,0,63,63,21,1,1,puertorican,,,,,,,,,,,,,,,,,,,,,,,,,,,,,,,,,,,,,,,,,,,,,,,,,,,,,,,,
,,,,,,,,,6647ce8c4b8ee105144eb431,Spanish,13 or older,"no, only English or Spanish",no,2025-08-14_23h09.40.846,empathy_intonation_perc,2024.2.4,Win32,60.60606061,6647ce8c4b8ee105144eb431,687ed1b7e638a4cbf2f02089,689ea4b1852e2db6b1d926c5,,,,,,,,,,,,,,,63,0,,./stim/wavs/puertorican_match_declarative-broad-focus_Ana-lleva-el-abrigo.wav,,,,,,,,,,,,,,,,,,,,,,537.634,539.6773,0,1,1.5157,,0,64,64,62,1,0,puertorican,,,,,,,,,,,,,,,,,,,,,,,,,,,,,,,,,,,,,,,,,,,,,,,,,,,,,,,,
,,,,,,,,,6647ce8c4b8ee105144eb431,Spanish,13 or older,"no, only English or Spanish",no,2025-08-14_23h09.40.846,empathy_intonation_perc,2024.2.4,Win32,60.60606061,6647ce8c4b8ee105144eb431,687ed1b7e638a4cbf2f02089,689ea4b1852e2db6b1d926c5,,,,,,,,,,,,,,,33,1,,./stim/wavs/cuban_mismatch_interrogative-total-yn_Mi-novio-viene-del-lago.wav,,,,,,,,,,,,,,,,,,,,,,539.6783,542.2081,0,0,1.9979,,0,65,65,32,1,1,cuban,,,,,,,,,,,,,,,,,,,,,,,,,,,,,,,,,,,,,,,,,,,,,,,,,,,,,,,,
,,,,,,,,,6647ce8c4b8ee105144eb431,Spanish,13 or older,"no, only English or Spanish",no,2025-08-14_23h09.40.846,empathy_intonation_perc,2024.2.4,Win32,60.60606061,6647ce8c4b8ee105144eb431,687ed1b7e638a4cbf2f02089,689ea4b1852e2db6b1d926c5,,,,,,,,,,,,,,,36,1,,./stim/wavs/mexican_mismatch_interrogative-total-yn_El-nino-oye-el-rio.wav,,,,,,,,,,,,,,,,,,,,,,542.2089,544.3225,1,1,1.5987,,0,66,66,35,1,0,mexican,,,,,,,,,,,,,,,,,,,,,,,,,,,,,,,,,,,,,,,,,,,,,,,,,,,,,,,,
,,,,,,,,,6647ce8c4b8ee105144eb431,Spanish,13 or older,"no, only English or Spanish",no,2025-08-14_23h09.40.846,empathy_intonation_perc,2024.2.4,Win32,60.60606061,6647ce8c4b8ee105144eb431,687ed1b7e638a4cbf2f02089,689ea4b1852e2db6b1d926c5,,,,,,,,,,,,,,,82,0,,./stim/wavs/mexican_mismatch_declarative-broad-focus_Mi-novio-viene-del-lago.wav,,,,,,,,,,,,,,,,,,,,,,544.3234,546.7403,1,0,1.9005,,0,67,67,81,1,0,mexican,,,,,,,,,,,,,,,,,,,,,,,,,,,,,,,,,,,,,,,,,,,,,,,,,,,,,,,,
,,,,,,,,,6647ce8c4b8ee105144eb431,Spanish,13 or older,"no, only English or Spanish",no,2025-08-14_23h09.40.846,empathy_intonation_perc,2024.2.4,Win32,60.60606061,6647ce8c4b8ee105144eb431,687ed1b7e638a4cbf2f02089,689ea4b1852e2db6b1d926c5,,,,,,,,,,,,,,,74,0,,./stim/wavs/cuban_mismatch_declarative-broad-focus_El-bebe-comia-muy-bien.wav,,,,,,,,,,,,,,,,,,,,,,546.7425,549.2205,0,1,1.9492,,0,68,68,73,1,0,cuban,,,,,,,,,,,,,,,,,,,,,,,,,,,,,,,,,,,,,,,,,,,,,,,,,,,,,,,,
,,,,,,,,,6647ce8c4b8ee105144eb431,Spanish,13 or older,"no, only English or Spanish",no,2025-08-14_23h09.40.846,empathy_intonation_perc,2024.2.4,Win32,60.60606061,6647ce8c4b8ee105144eb431,687ed1b7e638a4cbf2f02089,689ea4b1852e2db6b1d926c5,,,,,,,,,,,,,,,1,1,,./stim/wavs/castilian_match_interrogative-total-yn_David-leia-el-libro.wav,,,,,,,,,,,,,,,,,,,,,,549.222,551.565,1,1,1.8146,,0,69,69,0,1,0,castilian,,,,,,,,,,,,,,,,,,,,,,,,,,,,,,,,,,,,,,,,,,,,,,,,,,,,,,,,
,,,,,,,,,6647ce8c4b8ee105144eb431,Spanish,13 or older,"no, only English or Spanish",no,2025-08-14_23h09.40.846,empathy_intonation_perc,2024.2.4,Win32,60.60606061,6647ce8c4b8ee105144eb431,687ed1b7e638a4cbf2f02089,689ea4b1852e2db6b1d926c5,,,,,,,,,,,,,,,24,1,,./stim/wavs/puertorican_match_interrogative-total-yn_Maria-bebe-el-vino.wav,,,,,,,,,,,,,,,,,,,,,,551.5654,553.9329,1,1,1.8495,,0,70,70,23,1,1,puertorican,,,,,,,,,,,,,,,,,,,,,,,,,,,,,,,,,,,,,,,,,,,,,,,,,,,,,,,,
,,,,,,,,,6647ce8c4b8ee105144eb431,Spanish,13 or older,"no, only English or Spanish",no,2025-08-14_23h09.40.846,empathy_intonation_perc,2024.2.4,Win32,60.60606061,6647ce8c4b8ee105144eb431,687ed1b7e638a4cbf2f02089,689ea4b1852e2db6b1d926c5,,,,,,,,,,,,,,,38,1,,./stim/wavs/mexican_mismatch_interrogative-total-yn_Mi-novio-viene-del-lago.wav,,,,,,,,,,,,,,,,,,,,,,553.935,556.0812,1,1,1.6177,,0,71,71,37,1,0,mexican,,,,,,,,,,,,,,,,,,,,,,,,,,,,,,,,,,,,,,,,,,,,,,,,,,,,,,,,
,,,,,,,,,6647ce8c4b8ee105144eb431,Spanish,13 or older,"no, only English or Spanish",no,2025-08-14_23h09.40.846,empathy_intonation_perc,2024.2.4,Win32,60.60606061,6647ce8c4b8ee105144eb431,687ed1b7e638a4cbf2f02089,689ea4b1852e2db6b1d926c5,,,,,,,,,,,,,,,52,0,,./stim/wavs/cuban_match_declarative-broad-focus_Daniel-iba-a-Bolivia.wav,,,,,,,,,,,,,,,,,,,,,,556.0832,558.2105,0,1,1.6001,,0,72,72,51,1,0,cuban,,,,,,,,,,,,,,,,,,,,,,,,,,,,,,,,,,,,,,,,,,,,,,,,,,,,,,,,
,,,,,,,,,6647ce8c4b8ee105144eb431,Spanish,13 or older,"no, only English or Spanish",no,2025-08-14_23h09.40.846,empathy_intonation_perc,2024.2.4,Win32,60.60606061,6647ce8c4b8ee105144eb431,687ed1b7e638a4cbf2f02089,689ea4b1852e2db6b1d926c5,,,,,,,,,,,,,,,6,1,,./stim/wavs/castilian_match_interrogative-total-yn_Marta-abre-el-regalo.wav,,,,,,,,,,,,,,,,,,,,,,558.2113,560.3932,1,1,1.6501,,0,73,73,5,1,0,castilian,,,,,,,,,,,,,,,,,,,,,,,,,,,,,,,,,,,,,,,,,,,,,,,,,,,,,,,,
,,,,,,,,,6647ce8c4b8ee105144eb431,Spanish,13 or older,"no, only English or Spanish",no,2025-08-14_23h09.40.846,empathy_intonation_perc,2024.2.4,Win32,60.60606061,6647ce8c4b8ee105144eb431,687ed1b7e638a4cbf2f02089,689ea4b1852e2db6b1d926c5,,,,,,,,,,,,,,,53,0,,./stim/wavs/cuban_match_declarative-broad-focus_Manuela-vende-el-carro.wav,,,,,,,,,,,,,,,,,,,,,,560.3947,562.8914,0,1,1.9662,,0,74,74,52,1,0,cuban,,,,,,,,,,,,,,,,,,,,,,,,,,,,,,,,,,,,,,,,,,,,,,,,,,,,,,,,
,,,,,,,,,6647ce8c4b8ee105144eb431,Spanish,13 or older,"no, only English or Spanish",no,2025-08-14_23h09.40.846,empathy_intonation_perc,2024.2.4,Win32,60.60606061,6647ce8c4b8ee105144eb431,687ed1b7e638a4cbf2f02089,689ea4b1852e2db6b1d926c5,,,,,,,,,,,,,,,64,0,,./stim/wavs/puertorican_match_declarative-broad-focus_Daniel-iba-a-Bolivia.wav,,,,,,,,,,,,,,,,,,,,,,562.8929,565.1555,0,1,1.7334,,0,75,75,63,1,0,puertorican,,,,,,,,,,,,,,,,,,,,,,,,,,,,,,,,,,,,,,,,,,,,,,,,,,,,,,,,
,,,,,,,,,6647ce8c4b8ee105144eb431,Spanish,13 or older,"no, only English or Spanish",no,2025-08-14_23h09.40.846,empathy_intonation_perc,2024.2.4,Win32,60.60606061,6647ce8c4b8ee105144eb431,687ed1b7e638a4cbf2f02089,689ea4b1852e2db6b1d926c5,,,,,,,,,,,,,,,72,0,,./stim/wavs/castilian_mismatch_declarative-broad-focus_Mi-novio-viene-del-lago.wav,,,,,,,,,,,,,,,,,,,,,,565.1577,570.2085,0,1,4.5137,,0,76,76,71,1,0,castilian,,,,,,,,,,,,,,,,,,,,,,,,,,,,,,,,,,,,,,,,,,,,,,,,,,,,,,,,
,,,,,,,,,6647ce8c4b8ee105144eb431,Spanish,13 or older,"no, only English or Spanish",no,2025-08-14_23h09.40.846,empathy_intonation_perc,2024.2.4,Win32,60.60606061,6647ce8c4b8ee105144eb431,687ed1b7e638a4cbf2f02089,689ea4b1852e2db6b1d926c5,,,,,,,,,,,,,,,51,0,,./stim/wavs/cuban_match_declarative-broad-focus_Ana-lleva-el-abrigo.wav,,,,,,,,,,,,,,,,,,,,,,570.2105,572.3231,0,1,1.5851,,0,77,77,50,1,0,cuban,,,,,,,,,,,,,,,,,,,,,,,,,,,,,,,,,,,,,,,,,,,,,,,,,,,,,,,,
,,,,,,,,,6647ce8c4b8ee105144eb431,Spanish,13 or older,"no, only English or Spanish",no,2025-08-14_23h09.40.846,empathy_intonation_perc,2024.2.4,Win32,60.60606061,6647ce8c4b8ee105144eb431,687ed1b7e638a4cbf2f02089,689ea4b1852e2db6b1d926c5,,,,,,,,,,,,,,,49,0,,./stim/wavs/castilian_match_declarative-broad-focus_Mariano-habla-del-tiempo.wav,,,,,,,,,,,,,,,,,,,,,,572.3262,574.7047,0,1,1.8607,,0,78,78,48,1,0,castilian,,,,,,,,,,,,,,,,,,,,,,,,,,,,,,,,,,,,,,,,,,,,,,,,,,,,,,,,
,,,,,,,,,6647ce8c4b8ee105144eb431,Spanish,13 or older,"no, only English or Spanish",no,2025-08-14_23h09.40.846,empathy_intonation_perc,2024.2.4,Win32,60.60606061,6647ce8c4b8ee105144eb431,687ed1b7e638a4cbf2f02089,689ea4b1852e2db6b1d926c5,,,,,,,,,,,,,,,50,0,,./stim/wavs/castilian_match_declarative-broad-focus_Marta-abre-el-regalo.wav,,,,,,,,,,,,,,,,,,,,,,574.7076,581.3084,0,1,6.0765,,0,79,79,49,1,0,castilian,,,,,,,,,,,,,,,,,,,,,,,,,,,,,,,,,,,,,,,,,,,,,,,,,,,,,,,,
,,,,,,,,,6647ce8c4b8ee105144eb431,Spanish,13 or older,"no, only English or Spanish",no,2025-08-14_23h09.40.846,empathy_intonation_perc,2024.2.4,Win32,60.60606061,6647ce8c4b8ee105144eb431,687ed1b7e638a4cbf2f02089,689ea4b1852e2db6b1d926c5,,,,,,,,,,,,,,,4,1,,./stim/wavs/castilian_match_interrogative-total-yn_Maria-bebe-el-vino.wav,,,,,,,,,,,,,,,,,,,,,,581.3106,583.1963,1,1,1.3643,,0,80,80,3,1,0,castilian,,,,,,,,,,,,,,,,,,,,,,,,,,,,,,,,,,,,,,,,,,,,,,,,,,,,,,,,
,,,,,,,,,6647ce8c4b8ee105144eb431,Spanish,13 or older,"no, only English or Spanish",no,2025-08-14_23h09.40.846,empathy_intonation_perc,2024.2.4,Win32,60.60606061,6647ce8c4b8ee105144eb431,687ed1b7e638a4cbf2f02089,689ea4b1852e2db6b1d926c5,,,,,,,,,,,,,,,29,1,,./stim/wavs/castilian_mismatch_interrogative-total-yn_Mi-tia-odia-la-lluvia.wav,,,,,,,,,,,,,,,,,,,,,,583.1994,585.3648,1,1,1.6397,,0,81,81,28,1,0,castilian,,,,,,,,,,,,,,,,,,,,,,,,,,,,,,,,,,,,,,,,,,,,,,,,,,,,,,,,
,,,,,,,,,6647ce8c4b8ee105144eb431,Spanish,13 or older,"no, only English or Spanish",no,2025-08-14_23h09.40.846,empathy_intonation_perc,2024.2.4,Win32,60.60606061,6647ce8c4b8ee105144eb431,687ed1b7e638a4cbf2f02089,689ea4b1852e2db6b1d926c5,,,,,,,,,,,,,,,70,0,,./stim/wavs/castilian_mismatch_declarative-broad-focus_La-maestra-vive-en-Paris.wav,,,,,,,,,,,,,,,,,,,,,,585.3669,587.6924,0,1,1.7892,,0,82,82,69,1,0,castilian,,,,,,,,,,,,,,,,,,,,,,,,,,,,,,,,,,,,,,,,,,,,,,,,,,,,,,,,
,,,,,,,,,6647ce8c4b8ee105144eb431,Spanish,13 or older,"no, only English or Spanish",no,2025-08-14_23h09.40.846,empathy_intonation_perc,2024.2.4,Win32,60.60606061,6647ce8c4b8ee105144eb431,687ed1b7e638a4cbf2f02089,689ea4b1852e2db6b1d926c5,,,,,,,,,,,,,,,85,0,,./stim/wavs/puertorican_mismatch_declarative-broad-focus_El-hombre-mira-la-luna.wav,,,,,,,,,,,,,,,,,,,,,,587.6945,589.8315,0,1,1.6144,,0,83,83,84,1,0,puertorican,,,,,,,,,,,,,,,,,,,,,,,,,,,,,,,,,,,,,,,,,,,,,,,,,,,,,,,,
,,,,,,,,,6647ce8c4b8ee105144eb431,Spanish,13 or older,"no, only English or Spanish",no,2025-08-14_23h09.40.846,empathy_intonation_perc,2024.2.4,Win32,60.60606061,6647ce8c4b8ee105144eb431,687ed1b7e638a4cbf2f02089,689ea4b1852e2db6b1d926c5,,,,,,,,,,,,,,,59,0,,./stim/wavs/mexican_match_declarative-broad-focus_David-leia-el-libro.wav,,,,,,,,,,,,,,,,,,,,,,589.8339,592.2557,0,1,1.9042,,0,84,84,58,1,0,mexican,,,,,,,,,,,,,,,,,,,,,,,,,,,,,,,,,,,,,,,,,,,,,,,,,,,,,,,,
,,,,,,,,,6647ce8c4b8ee105144eb431,Spanish,13 or older,"no, only English or Spanish",no,2025-08-14_23h09.40.846,empathy_intonation_perc,2024.2.4,Win32,60.60606061,6647ce8c4b8ee105144eb431,687ed1b7e638a4cbf2f02089,689ea4b1852e2db6b1d926c5,,,,,,,,,,,,,,,73,0,,./stim/wavs/castilian_mismatch_declarative-broad-focus_Mi-tia-odia-la-lluvia.wav,,,,,,,,,,,,,,,,,,,,,,592.2573,594.4556,0,1,1.6769,,0,85,85,72,1,0,castilian,,,,,,,,,,,,,,,,,,,,,,,,,,,,,,,,,,,,,,,,,,,,,,,,,,,,,,,,
,,,,,,,,,6647ce8c4b8ee105144eb431,Spanish,13 or older,"no, only English or Spanish",no,2025-08-14_23h09.40.846,empathy_intonation_perc,2024.2.4,Win32,60.60606061,6647ce8c4b8ee105144eb431,687ed1b7e638a4cbf2f02089,689ea4b1852e2db6b1d926c5,,,,,,,,,,,,,,,46,0,,./stim/wavs/castilian_match_declarative-broad-focus_Emilio-ama-la-marcha.wav,,,,,,,,,,,,,,,,,,,,,,594.4585,607.2727,0,1,12.2856,,0,86,86,45,1,0,castilian,,,,,,,,,,,,,,,,,,,,,,,,,,,,,,,,,,,,,,,,,,,,,,,,,,,,,,,,
,,,,,,,,,6647ce8c4b8ee105144eb431,Spanish,13 or older,"no, only English or Spanish",no,2025-08-14_23h09.40.846,empathy_intonation_perc,2024.2.4,Win32,60.60606061,6647ce8c4b8ee105144eb431,687ed1b7e638a4cbf2f02089,689ea4b1852e2db6b1d926c5,,,,,,,,,,,,,,,56,0,,./stim/wavs/cuban_match_declarative-broad-focus_Marta-abre-el-regalo.wav,,,,,,,,,,,,,,,,,,,,,,607.2737,609.5378,0,1,1.7358,,0,87,87,55,1,0,cuban,,,,,,,,,,,,,,,,,,,,,,,,,,,,,,,,,,,,,,,,,,,,,,,,,,,,,,,,
,,,,,,,"Great! Now we will move on. The next task consists of about 60 trials, in each of which you will see a string of letters. 
  
  Your task is to decide whether this is a real Spanish word or not.", (press the spacebar to continue),6647ce8c4b8ee105144eb431,Spanish,13 or older,"no, only English or Spanish",no,2025-08-14_23h09.40.846,empathy_intonation_perc,2024.2.4,Win32,60.60606061,6647ce8c4b8ee105144eb431,687ed1b7e638a4cbf2f02089,689ea4b1852e2db6b1d926c5,,,,,,,,,,,,,,,,,,,,,,,,,,,,,,,,,,,,,,,,,,,,,,,,,,,,,609.5582,619.3175,0,0,0,0,1,,,,,,,,,,,,,,,,,,,,,,,,,,,,,,,,,,,,,,,,,,,,,,,,,
,,,,,,,"If you think it is an existing Spanish word, you type '1' (for 'REAL'), and if you think it is not an existing Spanish word, you type '0' (for 'FAKE').", (press the spacebar to continue),6647ce8c4b8ee105144eb431,Spanish,13 or older,"no, only English or Spanish",no,2025-08-14_23h09.40.846,empathy_intonation_perc,2024.2.4,Win32,60.60606061,6647ce8c4b8ee105144eb431,687ed1b7e638a4cbf2f02089,689ea4b1852e2db6b1d926c5,,,,,,,,,,,,,,,,,,,,,,,,,,,,,,,,,,,,,,,,,,,,,,,,,,,,,619.3243,632.6334,0,1,1,1,1,,,,,,,,,,,,,,,,,,,,,,,,,,,,,,,,,,,,,,,,,,,,,,,,,
,,,,,,,"If you are sure that the word exists, even though you don’t know its exact meaning, you may still respond '1' (REAL). 
  
  But if you are not sure if it is an existing word, you should respond '0' (FAKE).
  
  Let's do a practice round...", (press the spacebar to continue),6647ce8c4b8ee105144eb431,Spanish,13 or older,"no, only English or Spanish",no,2025-08-14_23h09.40.846,empathy_intonation_perc,2024.2.4,Win32,60.60606061,6647ce8c4b8ee105144eb431,687ed1b7e638a4cbf2f02089,689ea4b1852e2db6b1d926c5,,,,,,,,,,,,,,,,,,,,,,,,,,,,,,,,,,,,,,,,,,,,,,,,,,,,,632.6448,652.7147,0,2,2,2,1,,,,,,,,,,,,,,,,,,,,,,,,,,,,,,,,,,,,,,,,,,,,,,,,,
,,,,,,,,,6647ce8c4b8ee105144eb431,Spanish,13 or older,"no, only English or Spanish",no,2025-08-14_23h09.40.846,empathy_intonation_perc,2024.2.4,Win32,60.60606061,6647ce8c4b8ee105144eb431,687ed1b7e638a4cbf2f02089,689ea4b1852e2db6b1d926c5,,,,,,,,,,,,,,,,0,,,,,,,,,,,,,,,,,,,,,,,,,,,,,,,,,,,,,,,,,,,,652.7317,656.915,0,1,3.6457,,656.9167,657.9102,0,0,0,0,1,0,depiste,REAL,FAKE,,,,,,,,,,,,,,,,,,,,,,,,,,,,,,,,
,,,,,,,,,6647ce8c4b8ee105144eb431,Spanish,13 or older,"no, only English or Spanish",no,2025-08-14_23h09.40.846,empathy_intonation_perc,2024.2.4,Win32,60.60606061,6647ce8c4b8ee105144eb431,687ed1b7e638a4cbf2f02089,689ea4b1852e2db6b1d926c5,,,,,,,,,,,,,,,,1,,,,,,,,,,,,,,,,,,,,,,,,,,,,,,,,,,,,,,,,,,,,657.9177,659.6417,1,1,1.1901,,659.6421,660.6402,0,1,1,1,1,0,sí,REAL,FAKE,,,,,,,,,,,,,,,,,,,,,,,,,,,,,,,,
,,,,,,,,,6647ce8c4b8ee105144eb431,Spanish,13 or older,"no, only English or Spanish",no,2025-08-14_23h09.40.846,empathy_intonation_perc,2024.2.4,Win32,60.60606061,6647ce8c4b8ee105144eb431,687ed1b7e638a4cbf2f02089,689ea4b1852e2db6b1d926c5,,,,,,,,,,,,,,,,0,,,,,,,,,,,,,,,,,,,,,,,,,,,,,,,,,,,,,,,,,,,,660.6479,662.2545,1,0,1.0705,,662.2591,663.2535,0,2,2,2,1,0,coné,REAL,FAKE,,,,,,,,,,,,,,,,,,,,,,,,,,,,,,,,
,,,,,,,,,6647ce8c4b8ee105144eb431,Spanish,13 or older,"no, only English or Spanish",no,2025-08-14_23h09.40.846,empathy_intonation_perc,2024.2.4,Win32,60.60606061,6647ce8c4b8ee105144eb431,687ed1b7e638a4cbf2f02089,689ea4b1852e2db6b1d926c5,,,,,,,,,,,,,,,,0,,,,,,,,,,,,,,,,,,,,,,,,,,,,,,,,,,,,,,,,,,,,663.2555,665.3362,0,1,1.5493,,665.3395,666.3349,0,3,3,3,1,0,calpar,REAL,FAKE,,,,,,,,,,,,,,,,,,,,,,,,,,,,,,,,
,,,,,,,,,6647ce8c4b8ee105144eb431,Spanish,13 or older,"no, only English or Spanish",no,2025-08-14_23h09.40.846,empathy_intonation_perc,2024.2.4,Win32,60.60606061,6647ce8c4b8ee105144eb431,687ed1b7e638a4cbf2f02089,689ea4b1852e2db6b1d926c5,,,,,,,,,,,,,,,,0,,,,,,,,,,,,,,,,,,,,,,,,,,,,,,,,,,,,,,,,,,,,666.342,667.7186,0,1,0.8473,,667.7189,668.716,0,4,4,4,1,0,joten,REAL,FAKE,,,,,,,,,,,,,,,,,,,,,,,,,,,,,,,,
,,,,,,,,,6647ce8c4b8ee105144eb431,Spanish,13 or older,"no, only English or Spanish",no,2025-08-14_23h09.40.846,empathy_intonation_perc,2024.2.4,Win32,60.60606061,6647ce8c4b8ee105144eb431,687ed1b7e638a4cbf2f02089,689ea4b1852e2db6b1d926c5,,,,,,,,,,,,,,,,1,,,,,,,,,,,,,,,,,,,,,,,,,,,,,,,,,,,,,,,,,,,,668.7214,670.4161,0,0,1.1558,,670.4232,671.4134,0,5,5,5,1,0,sacapuntas,REAL,FAKE,,,,,,,,,,,,,,,,,,,,,,,,,,,,,,,,
,,,,,,,,,6647ce8c4b8ee105144eb431,Spanish,13 or older,"no, only English or Spanish",no,2025-08-14_23h09.40.846,empathy_intonation_perc,2024.2.4,Win32,60.60606061,6647ce8c4b8ee105144eb431,687ed1b7e638a4cbf2f02089,689ea4b1852e2db6b1d926c5,,,,,,,,,,,,,,,,0,,,,,,,,,,,,,,,,,,,,,,,,,,,,,,,,,,,,,,,,,,,,671.4185,673.7282,0,1,1.7744,,673.7312,674.7274,0,6,6,6,1,0,priba,REAL,FAKE,,,,,,,,,,,,,,,,,,,,,,,,,,,,,,,,
,,,,,,,,,6647ce8c4b8ee105144eb431,Spanish,13 or older,"no, only English or Spanish",no,2025-08-14_23h09.40.846,empathy_intonation_perc,2024.2.4,Win32,60.60606061,6647ce8c4b8ee105144eb431,687ed1b7e638a4cbf2f02089,689ea4b1852e2db6b1d926c5,,,,,,,,,,,,,,,,0,,,,,,,,,,,,,,,,,,,,,,,,,,,,,,,,,,,,,,,,,,,,674.7324,678.6065,0,1,3.3447,,678.6067,679.6052,0,7,7,7,1,0,pelasula,REAL,FAKE,,,,,,,,,,,,,,,,,,,,,,,,,,,,,,,,
,,,,,,,,,6647ce8c4b8ee105144eb431,Spanish,13 or older,"no, only English or Spanish",no,2025-08-14_23h09.40.846,empathy_intonation_perc,2024.2.4,Win32,60.60606061,6647ce8c4b8ee105144eb431,687ed1b7e638a4cbf2f02089,689ea4b1852e2db6b1d926c5,,,,,,,,,,,,,,,,1,,,,,,,,,,,,,,,,,,,,,,,,,,,,,,,,,,,,,,,,,,,,679.6084,680.8879,1,1,0.7437,,680.8882,681.8871,0,8,8,8,1,0,bien,REAL,FAKE,,,,,,,,,,,,,,,,,,,,,,,,,,,,,,,,
,,,,,,,,,6647ce8c4b8ee105144eb431,Spanish,13 or older,"no, only English or Spanish",no,2025-08-14_23h09.40.846,empathy_intonation_perc,2024.2.4,Win32,60.60606061,6647ce8c4b8ee105144eb431,687ed1b7e638a4cbf2f02089,689ea4b1852e2db6b1d926c5,,,,,,,,,,,,,,,,1,,,,,,,,,,,,,,,,,,,,,,,,,,,,,,,,,,,,,,,,,,,,681.892,683.052,1,1,0.6253,,683.0521,684.0516,0,9,9,9,1,0,casa,REAL,FAKE,,,,,,,,,,,,,,,,,,,,,,,,,,,,,,,,
,,,,,,,,,6647ce8c4b8ee105144eb431,Spanish,13 or older,"no, only English or Spanish",no,2025-08-14_23h09.40.846,empathy_intonation_perc,2024.2.4,Win32,60.60606061,6647ce8c4b8ee105144eb431,687ed1b7e638a4cbf2f02089,689ea4b1852e2db6b1d926c5,,,,,,,,,,,,,,,,0,,,,,,,,,,,,,,,,,,,,,,,,,,,,,,,,,,,,,,,,,,,,684.0569,688.7807,0,1,4.1841,,688.7809,689.7797,0,10,10,10,1,0,lejo,REAL,FAKE,,,,,,,,,,,,,,,,,,,,,,,,,,,,,,,,
,,,,,,,,,6647ce8c4b8ee105144eb431,Spanish,13 or older,"no, only English or Spanish",no,2025-08-14_23h09.40.846,empathy_intonation_perc,2024.2.4,Win32,60.60606061,6647ce8c4b8ee105144eb431,687ed1b7e638a4cbf2f02089,689ea4b1852e2db6b1d926c5,,,,,,,,,,,,,,,,0,,,,,,,,,,,,,,,,,,,,,,,,,,,,,,,,,,,,,,,,,,,,689.7849,693.6926,1,0,3.3905,,693.6964,694.6917,0,11,11,11,1,0,pretantas,REAL,FAKE,,,,,,,,,,,,,,,,,,,,,,,,,,,,,,,,
,,,,,,,,,6647ce8c4b8ee105144eb431,Spanish,13 or older,"no, only English or Spanish",no,2025-08-14_23h09.40.846,empathy_intonation_perc,2024.2.4,Win32,60.60606061,6647ce8c4b8ee105144eb431,687ed1b7e638a4cbf2f02089,689ea4b1852e2db6b1d926c5,,,,,,,,,,,,,,,,,,,,,,,,,,,,,,,,,,,,,,,,,,,,,,,,,,,,,,,,,,,,,,,,,,,,,,,,,,,,,694.6935,697.5726,,,,,,,,,,,,,,,,,,,,,,,,,,,,,,
,,,,,,,,,6647ce8c4b8ee105144eb431,Spanish,13 or older,"no, only English or Spanish",no,2025-08-14_23h09.40.846,empathy_intonation_perc,2024.2.4,Win32,60.60606061,6647ce8c4b8ee105144eb431,687ed1b7e638a4cbf2f02089,689ea4b1852e2db6b1d926c5,,,,,,,,,,,,,,,,1,,,,,,,,,,,,,,,,,,,,,,,,,,,,,,,,,,,,,,,,,,,,,,,,,,,,,,,,,51,candado,,,,,697.6026,700.8698,1,1,2.7474,,0,0,0,50,1,REAL,FAKE,,,,,,,,,,,,,,,,,
,,,,,,,,,6647ce8c4b8ee105144eb431,Spanish,13 or older,"no, only English or Spanish",no,2025-08-14_23h09.40.846,empathy_intonation_perc,2024.2.4,Win32,60.60606061,6647ce8c4b8ee105144eb431,687ed1b7e638a4cbf2f02089,689ea4b1852e2db6b1d926c5,,,,,,,,,,,,,,,,1,,,,,,,,,,,,,,,,,,,,,,,,,,,,,,,,,,,,,,,,,,,,,,,,,,,,,,,,,5,zapato,,,,,700.8748,702.1678,1,1,0.7614,,0,1,1,4,1,REAL,FAKE,,,,,,,,,,,,,,,,,
,,,,,,,,,6647ce8c4b8ee105144eb431,Spanish,13 or older,"no, only English or Spanish",no,2025-08-14_23h09.40.846,empathy_intonation_perc,2024.2.4,Win32,60.60606061,6647ce8c4b8ee105144eb431,687ed1b7e638a4cbf2f02089,689ea4b1852e2db6b1d926c5,,,,,,,,,,,,,,,,0,,,,,,,,,,,,,,,,,,,,,,,,,,,,,,,,,,,,,,,,,,,,,,,,,,,,,,,,,63,esposante,,,,,702.1712,704.2484,0,1,1.5465,,0,2,2,62,1,REAL,FAKE,,,,,,,,,,,,,,,,,
,,,,,,,,,6647ce8c4b8ee105144eb431,Spanish,13 or older,"no, only English or Spanish",no,2025-08-14_23h09.40.846,empathy_intonation_perc,2024.2.4,Win32,60.60606061,6647ce8c4b8ee105144eb431,687ed1b7e638a4cbf2f02089,689ea4b1852e2db6b1d926c5,,,,,,,,,,,,,,,,0,,,,,,,,,,,,,,,,,,,,,,,,,,,,,,,,,,,,,,,,,,,,,,,,,,,,,,,,,19,brecedad,,,,,704.2502,706.098,0,1,1.3299,,0,3,3,18,1,REAL,FAKE,,,,,,,,,,,,,,,,,
,,,,,,,,,6647ce8c4b8ee105144eb431,Spanish,13 or older,"no, only English or Spanish",no,2025-08-14_23h09.40.846,empathy_intonation_perc,2024.2.4,Win32,60.60606061,6647ce8c4b8ee105144eb431,687ed1b7e638a4cbf2f02089,689ea4b1852e2db6b1d926c5,,,,,,,,,,,,,,,,0,,,,,,,,,,,,,,,,,,,,,,,,,,,,,,,,,,,,,,,,,,,,,,,,,,,,,,,,,1,terzo,,,,,706.1027,707.4794,0,1,0.8455,,0,4,4,0,1,REAL,FAKE,,,,,,,,,,,,,,,,,
,,,,,,,,,6647ce8c4b8ee105144eb431,Spanish,13 or older,"no, only English or Spanish",no,2025-08-14_23h09.40.846,empathy_intonation_perc,2024.2.4,Win32,60.60606061,6647ce8c4b8ee105144eb431,687ed1b7e638a4cbf2f02089,689ea4b1852e2db6b1d926c5,,,,,,,,,,,,,,,,1,,,,,,,,,,,,,,,,,,,,,,,,,,,,,,,,,,,,,,,,,,,,,,,,,,,,,,,,,12,asesinato,,,,,707.4824,717.6886,0,0,9.6732,,0,5,5,11,1,REAL,FAKE,,,,,,,,,,,,,,,,,
,,,,,,,,,6647ce8c4b8ee105144eb431,Spanish,13 or older,"no, only English or Spanish",no,2025-08-14_23h09.40.846,empathy_intonation_perc,2024.2.4,Win32,60.60606061,6647ce8c4b8ee105144eb431,687ed1b7e638a4cbf2f02089,689ea4b1852e2db6b1d926c5,,,,,,,,,,,,,,,,0,,,,,,,,,,,,,,,,,,,,,,,,,,,,,,,,,,,,,,,,,,,,,,,,,,,,,,,,,50,flamida,,,,,717.6933,719.6179,0,1,1.399,,0,6,6,49,1,REAL,FAKE,,,,,,,,,,,,,,,,,
,,,,,,,,,6647ce8c4b8ee105144eb431,Spanish,13 or older,"no, only English or Spanish",no,2025-08-14_23h09.40.846,empathy_intonation_perc,2024.2.4,Win32,60.60606061,6647ce8c4b8ee105144eb431,687ed1b7e638a4cbf2f02089,689ea4b1852e2db6b1d926c5,,,,,,,,,,,,,,,,0,,,,,,,,,,,,,,,,,,,,,,,,,,,,,,,,,,,,,,,,,,,,,,,,,,,,,,,,,16,abracer,,,,,719.6212,722.499,1,0,2.349,,0,7,7,15,1,REAL,FAKE,,,,,,,,,,,,,,,,,
,,,,,,,,,6647ce8c4b8ee105144eb431,Spanish,13 or older,"no, only English or Spanish",no,2025-08-14_23h09.40.846,empathy_intonation_perc,2024.2.4,Win32,60.60606061,6647ce8c4b8ee105144eb431,687ed1b7e638a4cbf2f02089,689ea4b1852e2db6b1d926c5,,,,,,,,,,,,,,,,1,,,,,,,,,,,,,,,,,,,,,,,,,,,,,,,,,,,,,,,,,,,,,,,,,,,,,,,,,20,ávido,,,,,722.5085,723.7811,1,1,0.7471,,0,8,8,19,1,REAL,FAKE,,,,,,,,,,,,,,,,,
,,,,,,,,,6647ce8c4b8ee105144eb431,Spanish,13 or older,"no, only English or Spanish",no,2025-08-14_23h09.40.846,empathy_intonation_perc,2024.2.4,Win32,60.60606061,6647ce8c4b8ee105144eb431,687ed1b7e638a4cbf2f02089,689ea4b1852e2db6b1d926c5,,,,,,,,,,,,,,,,1,,,,,,,,,,,,,,,,,,,,,,,,,,,,,,,,,,,,,,,,,,,,,,,,,,,,,,,,,75,yacer,,,,,723.7862,725.729,1,1,1.4066,,0,9,9,74,1,REAL,FAKE,,,,,,,,,,,,,,,,,
,,,,,,,,,6647ce8c4b8ee105144eb431,Spanish,13 or older,"no, only English or Spanish",no,2025-08-14_23h09.40.846,empathy_intonation_perc,2024.2.4,Win32,60.60606061,6647ce8c4b8ee105144eb431,687ed1b7e638a4cbf2f02089,689ea4b1852e2db6b1d926c5,,,,,,,,,,,,,,,,1,,,,,,,,,,,,,,,,,,,,,,,,,,,,,,,,,,,,,,,,,,,,,,,,,,,,,,,,,80,hormiga,,,,,725.7326,733.1725,0,0,6.9121,,0,10,10,79,1,REAL,FAKE,,,,,,,,,,,,,,,,,
,,,,,,,,,6647ce8c4b8ee105144eb431,Spanish,13 or older,"no, only English or Spanish",no,2025-08-14_23h09.40.846,empathy_intonation_perc,2024.2.4,Win32,60.60606061,6647ce8c4b8ee105144eb431,687ed1b7e638a4cbf2f02089,689ea4b1852e2db6b1d926c5,,,,,,,,,,,,,,,,1,,,,,,,,,,,,,,,,,,,,,,,,,,,,,,,,,,,,,,,,,,,,,,,,,,,,,,,,,6,tergiversar,,,,,733.1778,735.8532,0,0,2.1379,,0,11,11,5,1,REAL,FAKE,,,,,,,,,,,,,,,,,
,,,,,,,,,6647ce8c4b8ee105144eb431,Spanish,13 or older,"no, only English or Spanish",no,2025-08-14_23h09.40.846,empathy_intonation_perc,2024.2.4,Win32,60.60606061,6647ce8c4b8ee105144eb431,687ed1b7e638a4cbf2f02089,689ea4b1852e2db6b1d926c5,,,,,,,,,,,,,,,,0,,,,,,,,,,,,,,,,,,,,,,,,,,,,,,,,,,,,,,,,,,,,,,,,,,,,,,,,,74,cintro,,,,,735.8584,737.1686,1,0,0.7768,,0,12,12,73,1,REAL,FAKE,,,,,,,,,,,,,,,,,
,,,,,,,,,6647ce8c4b8ee105144eb431,Spanish,13 or older,"no, only English or Spanish",no,2025-08-14_23h09.40.846,empathy_intonation_perc,2024.2.4,Win32,60.60606061,6647ce8c4b8ee105144eb431,687ed1b7e638a4cbf2f02089,689ea4b1852e2db6b1d926c5,,,,,,,,,,,,,,,,1,,,,,,,,,,,,,,,,,,,,,,,,,,,,,,,,,,,,,,,,,,,,,,,,,,,,,,,,,11,cenefa,,,,,737.1736,739.1831,0,0,1.4778,,0,13,13,10,1,REAL,FAKE,,,,,,,,,,,,,,,,,
,,,,,,,,,6647ce8c4b8ee105144eb431,Spanish,13 or older,"no, only English or Spanish",no,2025-08-14_23h09.40.846,empathy_intonation_perc,2024.2.4,Win32,60.60606061,6647ce8c4b8ee105144eb431,687ed1b7e638a4cbf2f02089,689ea4b1852e2db6b1d926c5,,,,,,,,,,,,,,,,1,,,,,,,,,,,,,,,,,,,,,,,,,,,,,,,,,,,,,,,,,,,,,,,,,,,,,,,,,38,estornudar,,,,,739.1863,741.031,0,0,1.3173,,0,14,14,37,1,REAL,FAKE,,,,,,,,,,,,,,,,,
,,,,,,,,,6647ce8c4b8ee105144eb431,Spanish,13 or older,"no, only English or Spanish",no,2025-08-14_23h09.40.846,empathy_intonation_perc,2024.2.4,Win32,60.60606061,6647ce8c4b8ee105144eb431,687ed1b7e638a4cbf2f02089,689ea4b1852e2db6b1d926c5,,,,,,,,,,,,,,,,1,,,,,,,,,,,,,,,,,,,,,,,,,,,,,,,,,,,,,,,,,,,,,,,,,,,,,,,,,88,acantilado,,,,,741.0329,745.1934,1,1,3.6381,,0,15,15,87,1,REAL,FAKE,,,,,,,,,,,,,,,,,
,,,,,,,,,6647ce8c4b8ee105144eb431,Spanish,13 or older,"no, only English or Spanish",no,2025-08-14_23h09.40.846,empathy_intonation_perc,2024.2.4,Win32,60.60606061,6647ce8c4b8ee105144eb431,687ed1b7e638a4cbf2f02089,689ea4b1852e2db6b1d926c5,,,,,,,,,,,,,,,,0,,,,,,,,,,,,,,,,,,,,,,,,,,,,,,,,,,,,,,,,,,,,,,,,,,,,,,,,,58,plaudir,,,,,745.1949,747.2921,0,1,1.5632,,0,16,16,57,1,REAL,FAKE,,,,,,,,,,,,,,,,,
,,,,,,,,,6647ce8c4b8ee105144eb431,Spanish,13 or older,"no, only English or Spanish",no,2025-08-14_23h09.40.846,empathy_intonation_perc,2024.2.4,Win32,60.60606061,6647ce8c4b8ee105144eb431,687ed1b7e638a4cbf2f02089,689ea4b1852e2db6b1d926c5,,,,,,,,,,,,,,,,1,,,,,,,,,,,,,,,,,,,,,,,,,,,,,,,,,,,,,,,,,,,,,,,,,,,,,,,,,3,pulmones,,,,,747.2953,749.8238,0,0,1.996,,0,17,17,2,1,REAL,FAKE,,,,,,,,,,,,,,,,,
,,,,,,,,,6647ce8c4b8ee105144eb431,Spanish,13 or older,"no, only English or Spanish",no,2025-08-14_23h09.40.846,empathy_intonation_perc,2024.2.4,Win32,60.60606061,6647ce8c4b8ee105144eb431,687ed1b7e638a4cbf2f02089,689ea4b1852e2db6b1d926c5,,,,,,,,,,,,,,,,0,,,,,,,,,,,,,,,,,,,,,,,,,,,,,,,,,,,,,,,,,,,,,,,,,,,,,,,,,10,antar,,,,,749.8279,751.3221,1,0,0.9617,,0,18,18,9,1,REAL,FAKE,,,,,,,,,,,,,,,,,
,,,,,,,,,6647ce8c4b8ee105144eb431,Spanish,13 or older,"no, only English or Spanish",no,2025-08-14_23h09.40.846,empathy_intonation_perc,2024.2.4,Win32,60.60606061,6647ce8c4b8ee105144eb431,687ed1b7e638a4cbf2f02089,689ea4b1852e2db6b1d926c5,,,,,,,,,,,,,,,,0,,,,,,,,,,,,,,,,,,,,,,,,,,,,,,,,,,,,,,,,,,,,,,,,,,,,,,,,,33,pauca,,,,,751.3269,753.0704,0,1,1.2069,,0,19,19,32,1,REAL,FAKE,,,,,,,,,,,,,,,,,
,,,,,,,,,6647ce8c4b8ee105144eb431,Spanish,13 or older,"no, only English or Spanish",no,2025-08-14_23h09.40.846,empathy_intonation_perc,2024.2.4,Win32,60.60606061,6647ce8c4b8ee105144eb431,687ed1b7e638a4cbf2f02089,689ea4b1852e2db6b1d926c5,,,,,,,,,,,,,,,,1,,,,,,,,,,,,,,,,,,,,,,,,,,,,,,,,,,,,,,,,,,,,,,,,,,,,,,,,,67,cabello,,,,,753.0756,754.5524,1,1,0.9412,,0,20,20,66,1,REAL,FAKE,,,,,,,,,,,,,,,,,
,,,,,,,,,6647ce8c4b8ee105144eb431,Spanish,13 or older,"no, only English or Spanish",no,2025-08-14_23h09.40.846,empathy_intonation_perc,2024.2.4,Win32,60.60606061,6647ce8c4b8ee105144eb431,687ed1b7e638a4cbf2f02089,689ea4b1852e2db6b1d926c5,,,,,,,,,,,,,,,,0,,,,,,,,,,,,,,,,,,,,,,,,,,,,,,,,,,,,,,,,,,,,,,,,,,,,,,,,,30,alardio,,,,,754.5579,756.1668,0,1,1.0769,,0,21,21,29,1,REAL,FAKE,,,,,,,,,,,,,,,,,
,,,,,,,,,6647ce8c4b8ee105144eb431,Spanish,13 or older,"no, only English or Spanish",no,2025-08-14_23h09.40.846,empathy_intonation_perc,2024.2.4,Win32,60.60606061,6647ce8c4b8ee105144eb431,687ed1b7e638a4cbf2f02089,689ea4b1852e2db6b1d926c5,,,,,,,,,,,,,,,,1,,,,,,,,,,,,,,,,,,,,,,,,,,,,,,,,,,,,,,,,,,,,,,,,,,,,,,,,,34,aviso,,,,,756.1699,757.7828,1,1,1.0779,,0,22,22,33,1,REAL,FAKE,,,,,,,,,,,,,,,,,
,,,,,,,,,6647ce8c4b8ee105144eb431,Spanish,13 or older,"no, only English or Spanish",no,2025-08-14_23h09.40.846,empathy_intonation_perc,2024.2.4,Win32,60.60606061,6647ce8c4b8ee105144eb431,687ed1b7e638a4cbf2f02089,689ea4b1852e2db6b1d926c5,,,,,,,,,,,,,,,,1,,,,,,,,,,,,,,,,,,,,,,,,,,,,,,,,,,,,,,,,,,,,,,,,,,,,,,,,,49,ganar,,,,,757.7877,759.248,1,1,0.9299,,0,23,23,48,1,REAL,FAKE,,,,,,,,,,,,,,,,,
,,,,,,,,,6647ce8c4b8ee105144eb431,Spanish,13 or older,"no, only English or Spanish",no,2025-08-14_23h09.40.846,empathy_intonation_perc,2024.2.4,Win32,60.60606061,6647ce8c4b8ee105144eb431,687ed1b7e638a4cbf2f02089,689ea4b1852e2db6b1d926c5,,,,,,,,,,,,,,,,0,,,,,,,,,,,,,,,,,,,,,,,,,,,,,,,,,,,,,,,,,,,,,,,,,,,,,,,,,72,pemición,,,,,759.2551,760.8805,0,1,1.0917,,0,24,24,71,1,REAL,FAKE,,,,,,,,,,,,,,,,,
,,,,,,,,,6647ce8c4b8ee105144eb431,Spanish,13 or older,"no, only English or Spanish",no,2025-08-14_23h09.40.846,empathy_intonation_perc,2024.2.4,Win32,60.60606061,6647ce8c4b8ee105144eb431,687ed1b7e638a4cbf2f02089,689ea4b1852e2db6b1d926c5,,,,,,,,,,,,,,,,1,,,,,,,,,,,,,,,,,,,,,,,,,,,,,,,,,,,,,,,,,,,,,,,,,,,,,,,,,77,tiburón,,,,,760.8867,763.3774,0,0,1.9613,,0,25,25,76,1,REAL,FAKE,,,,,,,,,,,,,,,,,
,,,,,,,,,6647ce8c4b8ee105144eb431,Spanish,13 or older,"no, only English or Spanish",no,2025-08-14_23h09.40.846,empathy_intonation_perc,2024.2.4,Win32,60.60606061,6647ce8c4b8ee105144eb431,687ed1b7e638a4cbf2f02089,689ea4b1852e2db6b1d926c5,,,,,,,,,,,,,,,,0,,,,,,,,,,,,,,,,,,,,,,,,,,,,,,,,,,,,,,,,,,,,,,,,,,,,,,,,,8,cadeña,,,,,763.3848,765.4263,0,1,1.5115,,0,26,26,7,1,REAL,FAKE,,,,,,,,,,,,,,,,,
,,,,,,,,,6647ce8c4b8ee105144eb431,Spanish,13 or older,"no, only English or Spanish",no,2025-08-14_23h09.40.846,empathy_intonation_perc,2024.2.4,Win32,60.60606061,6647ce8c4b8ee105144eb431,687ed1b7e638a4cbf2f02089,689ea4b1852e2db6b1d926c5,,,,,,,,,,,,,,,,1,,,,,,,,,,,,,,,,,,,,,,,,,,,,,,,,,,,,,,,,,,,,,,,,,,,,,,,,,69,engatusar,,,,,765.4291,783.2923,0,0,17.3296,,0,27,27,68,1,REAL,FAKE,,,,,,,,,,,,,,,,,
,,,,,,,,,6647ce8c4b8ee105144eb431,Spanish,13 or older,"no, only English or Spanish",no,2025-08-14_23h09.40.846,empathy_intonation_perc,2024.2.4,Win32,60.60606061,6647ce8c4b8ee105144eb431,687ed1b7e638a4cbf2f02089,689ea4b1852e2db6b1d926c5,,,,,,,,,,,,,,,,0,,,,,,,,,,,,,,,,,,,,,,,,,,,,,,,,,,,,,,,,,,,,,,,,,,,,,,,,,82,empirador,,,,,783.2977,785.9565,1,0,2.1347,,0,28,28,81,1,REAL,FAKE,,,,,,,,,,,,,,,,,
,,,,,,,,,6647ce8c4b8ee105144eb431,Spanish,13 or older,"no, only English or Spanish",no,2025-08-14_23h09.40.846,empathy_intonation_perc,2024.2.4,Win32,60.60606061,6647ce8c4b8ee105144eb431,687ed1b7e638a4cbf2f02089,689ea4b1852e2db6b1d926c5,,,,,,,,,,,,,,,,1,,,,,,,,,,,,,,,,,,,,,,,,,,,,,,,,,,,,,,,,,,,,,,,,,,,,,,,,,61,seda,,,,,785.9615,787.2385,1,1,0.7432,,0,29,29,60,1,REAL,FAKE,,,,,,,,,,,,,,,,,
,,,,,,,,,6647ce8c4b8ee105144eb431,Spanish,13 or older,"no, only English or Spanish",no,2025-08-14_23h09.40.846,empathy_intonation_perc,2024.2.4,Win32,60.60606061,6647ce8c4b8ee105144eb431,687ed1b7e638a4cbf2f02089,689ea4b1852e2db6b1d926c5,,,,,,,,,,,,,,,,1,,,,,,,,,,,,,,,,,,,,,,,,,,,,,,,,,,,,,,,,,,,,,,,,,,,,,,,,,22,lacayo,,,,,787.2435,788.4703,0,0,0.6951,,0,30,30,21,1,REAL,FAKE,,,,,,,,,,,,,,,,,
,,,,,,,,,6647ce8c4b8ee105144eb431,Spanish,13 or older,"no, only English or Spanish",no,2025-08-14_23h09.40.846,empathy_intonation_perc,2024.2.4,Win32,60.60606061,6647ce8c4b8ee105144eb431,687ed1b7e638a4cbf2f02089,689ea4b1852e2db6b1d926c5,,,,,,,,,,,,,,,,1,,,,,,,,,,,,,,,,,,,,,,,,,,,,,,,,,,,,,,,,,,,,,,,,,,,,,,,,,14,yunque,,,,,788.4739,790.0682,0,0,1.0599,,0,31,31,13,1,REAL,FAKE,,,,,,,,,,,,,,,,,
,,,,,,,,,6647ce8c4b8ee105144eb431,Spanish,13 or older,"no, only English or Spanish",no,2025-08-14_23h09.40.846,empathy_intonation_perc,2024.2.4,Win32,60.60606061,6647ce8c4b8ee105144eb431,687ed1b7e638a4cbf2f02089,689ea4b1852e2db6b1d926c5,,,,,,,,,,,,,,,,0,,,,,,,,,,,,,,,,,,,,,,,,,,,,,,,,,,,,,,,,,,,,,,,,,,,,,,,,,47,cartinar,,,,,790.0717,792.6504,0,1,2.0418,,0,32,32,46,1,REAL,FAKE,,,,,,,,,,,,,,,,,
,,,,,,,,,6647ce8c4b8ee105144eb431,Spanish,13 or older,"no, only English or Spanish",no,2025-08-14_23h09.40.846,empathy_intonation_perc,2024.2.4,Win32,60.60606061,6647ce8c4b8ee105144eb431,687ed1b7e638a4cbf2f02089,689ea4b1852e2db6b1d926c5,,,,,,,,,,,,,,,,0,,,,,,,,,,,,,,,,,,,,,,,,,,,,,,,,,,,,,,,,,,,,,,,,,,,,,,,,,18,arsa,,,,,792.6558,794.3145,0,1,1.1318,,0,33,33,17,1,REAL,FAKE,,,,,,,,,,,,,,,,,
,,,,,,,,,6647ce8c4b8ee105144eb431,Spanish,13 or older,"no, only English or Spanish",no,2025-08-14_23h09.40.846,empathy_intonation_perc,2024.2.4,Win32,60.60606061,6647ce8c4b8ee105144eb431,687ed1b7e638a4cbf2f02089,689ea4b1852e2db6b1d926c5,,,,,,,,,,,,,,,,1,,,,,,,,,,,,,,,,,,,,,,,,,,,,,,,,,,,,,,,,,,,,,,,,,,,,,,,,,26,secuestro,,,,,794.3173,796.2626,1,1,1.4116,,0,34,34,25,1,REAL,FAKE,,,,,,,,,,,,,,,,,
,,,,,,,,,6647ce8c4b8ee105144eb431,Spanish,13 or older,"no, only English or Spanish",no,2025-08-14_23h09.40.846,empathy_intonation_perc,2024.2.4,Win32,60.60606061,6647ce8c4b8ee105144eb431,687ed1b7e638a4cbf2f02089,689ea4b1852e2db6b1d926c5,,,,,,,,,,,,,,,,1,,,,,,,,,,,,,,,,,,,,,,,,,,,,,,,,,,,,,,,,,,,,,,,,,,,,,,,,,9,hacha,,,,,796.2653,800.426,0,0,3.6209,,0,35,35,8,1,REAL,FAKE,,,,,,,,,,,,,,,,,
,,,,,,,,,6647ce8c4b8ee105144eb431,Spanish,13 or older,"no, only English or Spanish",no,2025-08-14_23h09.40.846,empathy_intonation_perc,2024.2.4,Win32,60.60606061,6647ce8c4b8ee105144eb431,687ed1b7e638a4cbf2f02089,689ea4b1852e2db6b1d926c5,,,,,,,,,,,,,,,,1,,,,,,,,,,,,,,,,,,,,,,,,,,,,,,,,,,,,,,,,,,,,,,,,,,,,,,,,,28,merodear,,,,,800.431,803.1752,0,0,2.2173,,0,36,36,27,1,REAL,FAKE,,,,,,,,,,,,,,,,,
,,,,,,,,,6647ce8c4b8ee105144eb431,Spanish,13 or older,"no, only English or Spanish",no,2025-08-14_23h09.40.846,empathy_intonation_perc,2024.2.4,Win32,60.60606061,6647ce8c4b8ee105144eb431,687ed1b7e638a4cbf2f02089,689ea4b1852e2db6b1d926c5,,,,,,,,,,,,,,,,0,,,,,,,,,,,,,,,,,,,,,,,,,,,,,,,,,,,,,,,,,,,,,,,,,,,,,,,,,32,fatacidad,,,,,803.1803,805.9203,0,1,2.2061,,0,37,37,31,1,REAL,FAKE,,,,,,,,,,,,,,,,,
,,,,,,,,,6647ce8c4b8ee105144eb431,Spanish,13 or older,"no, only English or Spanish",no,2025-08-14_23h09.40.846,empathy_intonation_perc,2024.2.4,Win32,60.60606061,6647ce8c4b8ee105144eb431,687ed1b7e638a4cbf2f02089,689ea4b1852e2db6b1d926c5,,,,,,,,,,,,,,,,1,,,,,,,,,,,,,,,,,,,,,,,,,,,,,,,,,,,,,,,,,,,,,,,,,,,,,,,,,13,helar,,,,,805.9227,807.403,0,0,0.9377,,0,38,38,12,1,REAL,FAKE,,,,,,,,,,,,,,,,,
,,,,,,,,,6647ce8c4b8ee105144eb431,Spanish,13 or older,"no, only English or Spanish",no,2025-08-14_23h09.40.846,empathy_intonation_perc,2024.2.4,Win32,60.60606061,6647ce8c4b8ee105144eb431,687ed1b7e638a4cbf2f02089,689ea4b1852e2db6b1d926c5,,,,,,,,,,,,,,,,1,,,,,,,,,,,,,,,,,,,,,,,,,,,,,,,,,,,,,,,,,,,,,,,,,,,,,,,,,85,laúd,,,,,807.4093,810.3536,0,0,2.4153,,0,39,39,84,1,REAL,FAKE,,,,,,,,,,,,,,,,,
,,,,,,,,,6647ce8c4b8ee105144eb431,Spanish,13 or older,"no, only English or Spanish",no,2025-08-14_23h09.40.846,empathy_intonation_perc,2024.2.4,Win32,60.60606061,6647ce8c4b8ee105144eb431,687ed1b7e638a4cbf2f02089,689ea4b1852e2db6b1d926c5,,,,,,,,,,,,,,,,1,,,,,,,,,,,,,,,,,,,,,,,,,,,,,,,,,,,,,,,,,,,,,,,,,,,,,,,,,41,rebuscar,,,,,810.3577,812.2651,1,1,1.3792,,0,40,40,40,1,REAL,FAKE,,,,,,,,,,,,,,,,,
,,,,,,,,,6647ce8c4b8ee105144eb431,Spanish,13 or older,"no, only English or Spanish",no,2025-08-14_23h09.40.846,empathy_intonation_perc,2024.2.4,Win32,60.60606061,6647ce8c4b8ee105144eb431,687ed1b7e638a4cbf2f02089,689ea4b1852e2db6b1d926c5,,,,,,,,,,,,,,,,1,,,,,,,,,,,,,,,,,,,,,,,,,,,,,,,,,,,,,,,,,,,,,,,,,,,,,,,,,31,pandilla,,,,,812.2712,814.282,1,1,1.4814,,0,41,41,30,1,REAL,FAKE,,,,,,,,,,,,,,,,,
,,,,,,,,,6647ce8c4b8ee105144eb431,Spanish,13 or older,"no, only English or Spanish",no,2025-08-14_23h09.40.846,empathy_intonation_perc,2024.2.4,Win32,60.60606061,6647ce8c4b8ee105144eb431,687ed1b7e638a4cbf2f02089,689ea4b1852e2db6b1d926c5,,,,,,,,,,,,,,,,1,,,,,,,,,,,,,,,,,,,,,,,,,,,,,,,,,,,,,,,,,,,,,,,,,,,,,,,,,37,granuja,,,,,814.2868,815.4953,0,0,0.6808,,0,42,42,36,1,REAL,FAKE,,,,,,,,,,,,,,,,,
,,,,,,,,,6647ce8c4b8ee105144eb431,Spanish,13 or older,"no, only English or Spanish",no,2025-08-14_23h09.40.846,empathy_intonation_perc,2024.2.4,Win32,60.60606061,6647ce8c4b8ee105144eb431,687ed1b7e638a4cbf2f02089,689ea4b1852e2db6b1d926c5,,,,,,,,,,,,,,,,1,,,,,,,,,,,,,,,,,,,,,,,,,,,,,,,,,,,,,,,,,,,,,,,,,,,,,,,,,64,orgulloso,,,,,815.4988,817.3805,0,0,1.3547,,0,43,43,63,1,REAL,FAKE,,,,,,,,,,,,,,,,,
,,,,,,,,,6647ce8c4b8ee105144eb431,Spanish,13 or older,"no, only English or Spanish",no,2025-08-14_23h09.40.846,empathy_intonation_perc,2024.2.4,Win32,60.60606061,6647ce8c4b8ee105144eb431,687ed1b7e638a4cbf2f02089,689ea4b1852e2db6b1d926c5,,,,,,,,,,,,,,,,1,,,,,,,,,,,,,,,,,,,,,,,,,,,,,,,,,,,,,,,,,,,,,,,,,,,,,,,,,89,prisa,,,,,817.3838,819.0097,0,0,1.1034,,0,44,44,88,1,REAL,FAKE,,,,,,,,,,,,,,,,,
,,,,,,,,,6647ce8c4b8ee105144eb431,Spanish,13 or older,"no, only English or Spanish",no,2025-08-14_23h09.40.846,empathy_intonation_perc,2024.2.4,Win32,60.60606061,6647ce8c4b8ee105144eb431,687ed1b7e638a4cbf2f02089,689ea4b1852e2db6b1d926c5,,,,,,,,,,,,,,,,0,,,,,,,,,,,,,,,,,,,,,,,,,,,,,,,,,,,,,,,,,,,,,,,,,,,,,,,,,23,lampera,,,,,819.0132,823.9904,1,0,4.4506,,0,45,45,22,1,REAL,FAKE,,,,,,,,,,,,,,,,,
,,,,,,,,,6647ce8c4b8ee105144eb431,Spanish,13 or older,"no, only English or Spanish",no,2025-08-14_23h09.40.846,empathy_intonation_perc,2024.2.4,Win32,60.60606061,6647ce8c4b8ee105144eb431,687ed1b7e638a4cbf2f02089,689ea4b1852e2db6b1d926c5,,,,,,,,,,,,,,,,1,,,,,,,,,,,,,,,,,,,,,,,,,,,,,,,,,,,,,,,,,,,,,,,,,,,,,,,,,71,polvoriento,,,,,823.996,825.3027,0,0,0.7768,,0,46,46,70,1,REAL,FAKE,,,,,,,,,,,,,,,,,
,,,,,,,,,6647ce8c4b8ee105144eb431,Spanish,13 or older,"no, only English or Spanish",no,2025-08-14_23h09.40.846,empathy_intonation_perc,2024.2.4,Win32,60.60606061,6647ce8c4b8ee105144eb431,687ed1b7e638a4cbf2f02089,689ea4b1852e2db6b1d926c5,,,,,,,,,,,,,,,,0,,,,,,,,,,,,,,,,,,,,,,,,,,,,,,,,,,,,,,,,,,,,,,,,,,,,,,,,,84,escuto,,,,,825.3073,827.3668,0,1,1.5322,,0,47,47,83,1,REAL,FAKE,,,,,,,,,,,,,,,,,
,,,,,,,,,6647ce8c4b8ee105144eb431,Spanish,13 or older,"no, only English or Spanish",no,2025-08-14_23h09.40.846,empathy_intonation_perc,2024.2.4,Win32,60.60606061,6647ce8c4b8ee105144eb431,687ed1b7e638a4cbf2f02089,689ea4b1852e2db6b1d926c5,,,,,,,,,,,,,,,,1,,,,,,,,,,,,,,,,,,,,,,,,,,,,,,,,,,,,,,,,,,,,,,,,,,,,,,,,,46,martillo,,,,,827.3694,829.5652,0,0,1.6605,,0,48,48,45,1,REAL,FAKE,,,,,,,,,,,,,,,,,
,,,,,,,,,6647ce8c4b8ee105144eb431,Spanish,13 or older,"no, only English or Spanish",no,2025-08-14_23h09.40.846,empathy_intonation_perc,2024.2.4,Win32,60.60606061,6647ce8c4b8ee105144eb431,687ed1b7e638a4cbf2f02089,689ea4b1852e2db6b1d926c5,,,,,,,,,,,,,,,,1,,,,,,,,,,,,,,,,,,,,,,,,,,,,,,,,,,,,,,,,,,,,,,,,,,,,,,,,,43,canela,,,,,829.5683,833.0492,1,1,2.9512,,0,49,49,42,1,REAL,FAKE,,,,,,,,,,,,,,,,,
,,,,,,,,,6647ce8c4b8ee105144eb431,Spanish,13 or older,"no, only English or Spanish",no,2025-08-14_23h09.40.846,empathy_intonation_perc,2024.2.4,Win32,60.60606061,6647ce8c4b8ee105144eb431,687ed1b7e638a4cbf2f02089,689ea4b1852e2db6b1d926c5,,,,,,,,,,,,,,,,1,,,,,,,,,,,,,,,,,,,,,,,,,,,,,,,,,,,,,,,,,,,,,,,,,,,,,,,,,55,nevar,,,,,833.0549,834.7606,0,0,1.1798,,0,50,50,54,1,REAL,FAKE,,,,,,,,,,,,,,,,,
,,,,,,,,,6647ce8c4b8ee105144eb431,Spanish,13 or older,"no, only English or Spanish",no,2025-08-14_23h09.40.846,empathy_intonation_perc,2024.2.4,Win32,60.60606061,6647ce8c4b8ee105144eb431,687ed1b7e638a4cbf2f02089,689ea4b1852e2db6b1d926c5,,,,,,,,,,,,,,,,1,,,,,,,,,,,,,,,,,,,,,,,,,,,,,,,,,,,,,,,,,,,,,,,,,,,,,,,,,36,loro,,,,,834.7663,835.9921,0,0,0.6907,,0,51,51,35,1,REAL,FAKE,,,,,,,,,,,,,,,,,
,,,,,,,,,6647ce8c4b8ee105144eb431,Spanish,13 or older,"no, only English or Spanish",no,2025-08-14_23h09.40.846,empathy_intonation_perc,2024.2.4,Win32,60.60606061,6647ce8c4b8ee105144eb431,687ed1b7e638a4cbf2f02089,689ea4b1852e2db6b1d926c5,,,,,,,,,,,,,,,,1,,,,,,,,,,,,,,,,,,,,,,,,,,,,,,,,,,,,,,,,,,,,,,,,,,,,,,,,,68,alegre,,,,,835.9949,840.1059,0,0,3.5756,,0,52,52,67,1,REAL,FAKE,,,,,,,,,,,,,,,,,
,,,,,,,,,6647ce8c4b8ee105144eb431,Spanish,13 or older,"no, only English or Spanish",no,2025-08-14_23h09.40.846,empathy_intonation_perc,2024.2.4,Win32,60.60606061,6647ce8c4b8ee105144eb431,687ed1b7e638a4cbf2f02089,689ea4b1852e2db6b1d926c5,,,,,,,,,,,,,,,,0,,,,,,,,,,,,,,,,,,,,,,,,,,,,,,,,,,,,,,,,,,,,,,,,,,,,,,,,,21,capillo,,,,,840.1108,841.6376,1,0,0.9961,,0,53,53,20,1,REAL,FAKE,,,,,,,,,,,,,,,,,
,,,,,,,,,6647ce8c4b8ee105144eb431,Spanish,13 or older,"no, only English or Spanish",no,2025-08-14_23h09.40.846,empathy_intonation_perc,2024.2.4,Win32,60.60606061,6647ce8c4b8ee105144eb431,687ed1b7e638a4cbf2f02089,689ea4b1852e2db6b1d926c5,,,,,,,,,,,,,,,,1,,,,,,,,,,,,,,,,,,,,,,,,,,,,,,,,,,,,,,,,,,,,,,,,,,,,,,,,,7,pésimo,,,,,841.6436,843.1522,1,1,0.9773,,0,54,54,6,1,REAL,FAKE,,,,,,,,,,,,,,,,,
,,,,,,,,,6647ce8c4b8ee105144eb431,Spanish,13 or older,"no, only English or Spanish",no,2025-08-14_23h09.40.846,empathy_intonation_perc,2024.2.4,Win32,60.60606061,6647ce8c4b8ee105144eb431,687ed1b7e638a4cbf2f02089,689ea4b1852e2db6b1d926c5,,,,,,,,,,,,,,,,1,,,,,,,,,,,,,,,,,,,,,,,,,,,,,,,,,,,,,,,,,,,,,,,,,,,,,,,,,73,hervidor,,,,,843.155,857.0892,0,0,13.3995,,0,55,55,72,1,REAL,FAKE,,,,,,,,,,,,,,,,,
,,,,,,,,,6647ce8c4b8ee105144eb431,Spanish,13 or older,"no, only English or Spanish",no,2025-08-14_23h09.40.846,empathy_intonation_perc,2024.2.4,Win32,60.60606061,6647ce8c4b8ee105144eb431,687ed1b7e638a4cbf2f02089,689ea4b1852e2db6b1d926c5,,,,,,,,,,,,,,,,1,,,,,,,,,,,,,,,,,,,,,,,,,,,,,,,,,,,,,,,,,,,,,,,,,,,,,,,,,39,torpe,,,,,857.0931,859.2231,0,0,1.5963,,0,56,56,38,1,REAL,FAKE,,,,,,,,,,,,,,,,,
,,,,,,,,,6647ce8c4b8ee105144eb431,Spanish,13 or older,"no, only English or Spanish",no,2025-08-14_23h09.40.846,empathy_intonation_perc,2024.2.4,Win32,60.60606061,6647ce8c4b8ee105144eb431,687ed1b7e638a4cbf2f02089,689ea4b1852e2db6b1d926c5,,,,,,,,,,,,,,,,0,,,,,,,,,,,,,,,,,,,,,,,,,,,,,,,,,,,,,,,,,,,,,,,,,,,,,,,,,70,temblo,,,,,859.2279,861.4544,0,1,1.6984,,0,57,57,69,1,REAL,FAKE,,,,,,,,,,,,,,,,,
,,,,,,,,,6647ce8c4b8ee105144eb431,Spanish,13 or older,"no, only English or Spanish",no,2025-08-14_23h09.40.846,empathy_intonation_perc,2024.2.4,Win32,60.60606061,6647ce8c4b8ee105144eb431,687ed1b7e638a4cbf2f02089,689ea4b1852e2db6b1d926c5,,,,,,,,,,,,,,,,0,,,,,,,,,,,,,,,,,,,,,,,,,,,,,,,,,,,,,,,,,,,,,,,,,,,,,,,,,79,tropaje,,,,,861.4577,863.9666,0,1,1.979,,0,58,58,78,1,REAL,FAKE,,,,,,,,,,,,,,,,,
,,,,,,,,,6647ce8c4b8ee105144eb431,Spanish,13 or older,"no, only English or Spanish",no,2025-08-14_23h09.40.846,empathy_intonation_perc,2024.2.4,Win32,60.60606061,6647ce8c4b8ee105144eb431,687ed1b7e638a4cbf2f02089,689ea4b1852e2db6b1d926c5,,,,,,,,,,,,,,,,1,,,,,,,,,,,,,,,,,,,,,,,,,,,,,,,,,,,,,,,,,,,,,,,,,,,,,,,,,59,besar,,,,,863.9722,866.2467,1,1,1.7505,,0,59,59,58,1,REAL,FAKE,,,,,,,,,,,,,,,,,
,,,,,,,,,6647ce8c4b8ee105144eb431,Spanish,13 or older,"no, only English or Spanish",no,2025-08-14_23h09.40.846,empathy_intonation_perc,2024.2.4,Win32,60.60606061,6647ce8c4b8ee105144eb431,687ed1b7e638a4cbf2f02089,689ea4b1852e2db6b1d926c5,,,,,,,,,,,,,,,,1,,,,,,,,,,,,,,,,,,,,,,,,,,,,,,,,,,,,,,,,,,,,,,,,,,,,,,,,,52,camisa,,,,,866.2483,867.4301,1,1,0.6446,,0,60,60,51,1,REAL,FAKE,,,,,,,,,,,,,,,,,
,,,,,,,,,6647ce8c4b8ee105144eb431,Spanish,13 or older,"no, only English or Spanish",no,2025-08-14_23h09.40.846,empathy_intonation_perc,2024.2.4,Win32,60.60606061,6647ce8c4b8ee105144eb431,687ed1b7e638a4cbf2f02089,689ea4b1852e2db6b1d926c5,,,,,,,,,,,,,,,,0,,,,,,,,,,,,,,,,,,,,,,,,,,,,,,,,,,,,,,,,,,,,,,,,,,,,,,,,,17,floroso,,,,,867.4353,870.4605,0,1,2.4974,,0,61,61,16,1,REAL,FAKE,,,,,,,,,,,,,,,,,
,,,,,,,,,6647ce8c4b8ee105144eb431,Spanish,13 or older,"no, only English or Spanish",no,2025-08-14_23h09.40.846,empathy_intonation_perc,2024.2.4,Win32,60.60606061,6647ce8c4b8ee105144eb431,687ed1b7e638a4cbf2f02089,689ea4b1852e2db6b1d926c5,,,,,,,,,,,,,,,,1,,,,,,,,,,,,,,,,,,,,,,,,,,,,,,,,,,,,,,,,,,,,,,,,,,,,,,,,,15,regar,,,,,870.4655,873.1599,0,0,2.1618,,0,62,62,14,1,REAL,FAKE,,,,,,,,,,,,,,,,,
,,,,,,,,,6647ce8c4b8ee105144eb431,Spanish,13 or older,"no, only English or Spanish",no,2025-08-14_23h09.40.846,empathy_intonation_perc,2024.2.4,Win32,60.60606061,6647ce8c4b8ee105144eb431,687ed1b7e638a4cbf2f02089,689ea4b1852e2db6b1d926c5,,,,,,,,,,,,,,,,1,,,,,,,,,,,,,,,,,,,,,,,,,,,,,,,,,,,,,,,,,,,,,,,,,,,,,,,,,83,guante,,,,,873.1645,877.354,0,0,3.654,,0,63,63,82,1,REAL,FAKE,,,,,,,,,,,,,,,,,
,,,,,,,,,6647ce8c4b8ee105144eb431,Spanish,13 or older,"no, only English or Spanish",no,2025-08-14_23h09.40.846,empathy_intonation_perc,2024.2.4,Win32,60.60606061,6647ce8c4b8ee105144eb431,687ed1b7e638a4cbf2f02089,689ea4b1852e2db6b1d926c5,,,,,,,,,,,,,,,,1,,,,,,,,,,,,,,,,,,,,,,,,,,,,,,,,,,,,,,,,,,,,,,,,,,,,,,,,,2,pellizcar,,,,,877.3555,879.2853,1,1,1.3956,,0,64,64,1,1,REAL,FAKE,,,,,,,,,,,,,,,,,
,,,,,,,,,6647ce8c4b8ee105144eb431,Spanish,13 or older,"no, only English or Spanish",no,2025-08-14_23h09.40.846,empathy_intonation_perc,2024.2.4,Win32,60.60606061,6647ce8c4b8ee105144eb431,687ed1b7e638a4cbf2f02089,689ea4b1852e2db6b1d926c5,,,,,,,,,,,,,,,,0,,,,,,,,,,,,,,,,,,,,,,,,,,,,,,,,,,,,,,,,,,,,,,,,,,,,,,,,,4,batillón,,,,,879.2885,881.8825,1,0,2.0599,,0,65,65,3,1,REAL,FAKE,,,,,,,,,,,,,,,,,
,,,,,,,,,6647ce8c4b8ee105144eb431,Spanish,13 or older,"no, only English or Spanish",no,2025-08-14_23h09.40.846,empathy_intonation_perc,2024.2.4,Win32,60.60606061,6647ce8c4b8ee105144eb431,687ed1b7e638a4cbf2f02089,689ea4b1852e2db6b1d926c5,,,,,,,,,,,,,,,,1,,,,,,,,,,,,,,,,,,,,,,,,,,,,,,,,,,,,,,,,,,,,,,,,,,,,,,,,,25,bisagra,,,,,881.8859,889.2922,0,0,6.8745,,0,66,66,24,1,REAL,FAKE,,,,,,,,,,,,,,,,,
,,,,,,,,,6647ce8c4b8ee105144eb431,Spanish,13 or older,"no, only English or Spanish",no,2025-08-14_23h09.40.846,empathy_intonation_perc,2024.2.4,Win32,60.60606061,6647ce8c4b8ee105144eb431,687ed1b7e638a4cbf2f02089,689ea4b1852e2db6b1d926c5,,,,,,,,,,,,,,,,0,,,,,,,,,,,,,,,,,,,,,,,,,,,,,,,,,,,,,,,,,,,,,,,,,,,,,,,,,42,cadallo,,,,,889.2951,891.1911,0,1,1.3595,,0,67,67,41,1,REAL,FAKE,,,,,,,,,,,,,,,,,
,,,,,,,,,6647ce8c4b8ee105144eb431,Spanish,13 or older,"no, only English or Spanish",no,2025-08-14_23h09.40.846,empathy_intonation_perc,2024.2.4,Win32,60.60606061,6647ce8c4b8ee105144eb431,687ed1b7e638a4cbf2f02089,689ea4b1852e2db6b1d926c5,,,,,,,,,,,,,,,,0,,,,,,,,,,,,,,,,,,,,,,,,,,,,,,,,,,,,,,,,,,,,,,,,,,,,,,,,,53,vegada,,,,,891.1958,895.187,0,1,3.4591,,0,68,68,52,1,REAL,FAKE,,,,,,,,,,,,,,,,,
,,,,,,,,,6647ce8c4b8ee105144eb431,Spanish,13 or older,"no, only English or Spanish",no,2025-08-14_23h09.40.846,empathy_intonation_perc,2024.2.4,Win32,60.60606061,6647ce8c4b8ee105144eb431,687ed1b7e638a4cbf2f02089,689ea4b1852e2db6b1d926c5,,,,,,,,,,,,,,,,1,,,,,,,,,,,,,,,,,,,,,,,,,,,,,,,,,,,,,,,,,,,,,,,,,,,,,,,,,45,jilguero,,,,,895.19,896.6526,0,0,0.926,,0,69,69,44,1,REAL,FAKE,,,,,,,,,,,,,,,,,
,,,,,,,,,6647ce8c4b8ee105144eb431,Spanish,13 or older,"no, only English or Spanish",no,2025-08-14_23h09.40.846,empathy_intonation_perc,2024.2.4,Win32,60.60606061,6647ce8c4b8ee105144eb431,687ed1b7e638a4cbf2f02089,689ea4b1852e2db6b1d926c5,,,,,,,,,,,,,,,,1,,,,,,,,,,,,,,,,,,,,,,,,,,,,,,,,,,,,,,,,,,,,,,,,,,,,,,,,,78,frondoso,,,,,896.6577,898.4511,0,0,1.2591,,0,70,70,77,1,REAL,FAKE,,,,,,,,,,,,,,,,,
,,,,,,,,,6647ce8c4b8ee105144eb431,Spanish,13 or older,"no, only English or Spanish",no,2025-08-14_23h09.40.846,empathy_intonation_perc,2024.2.4,Win32,60.60606061,6647ce8c4b8ee105144eb431,687ed1b7e638a4cbf2f02089,689ea4b1852e2db6b1d926c5,,,,,,,,,,,,,,,,1,,,,,,,,,,,,,,,,,,,,,,,,,,,,,,,,,,,,,,,,,,,,,,,,,,,,,,,,,48,ladrón,,,,,898.4558,899.899,1,1,0.9125,,0,71,71,47,1,REAL,FAKE,,,,,,,,,,,,,,,,,
,,,,,,,,,6647ce8c4b8ee105144eb431,Spanish,13 or older,"no, only English or Spanish",no,2025-08-14_23h09.40.846,empathy_intonation_perc,2024.2.4,Win32,60.60606061,6647ce8c4b8ee105144eb431,687ed1b7e638a4cbf2f02089,689ea4b1852e2db6b1d926c5,,,,,,,,,,,,,,,,0,,,,,,,,,,,,,,,,,,,,,,,,,,,,,,,,,,,,,,,,,,,,,,,,,,,,,,,,,66,hacido,,,,,899.903,902.3976,0,1,1.9645,,0,72,72,65,1,REAL,FAKE,,,,,,,,,,,,,,,,,
,,,,,,,,,6647ce8c4b8ee105144eb431,Spanish,13 or older,"no, only English or Spanish",no,2025-08-14_23h09.40.846,empathy_intonation_perc,2024.2.4,Win32,60.60606061,6647ce8c4b8ee105144eb431,687ed1b7e638a4cbf2f02089,689ea4b1852e2db6b1d926c5,,,,,,,,,,,,,,,,0,,,,,,,,,,,,,,,,,,,,,,,,,,,,,,,,,,,,,,,,,,,,,,,,,,,,,,,,,29,decar,,,,,902.4031,904.3787,0,1,1.4446,,0,73,73,28,1,REAL,FAKE,,,,,,,,,,,,,,,,,
,,,,,,,,,6647ce8c4b8ee105144eb431,Spanish,13 or older,"no, only English or Spanish",no,2025-08-14_23h09.40.846,empathy_intonation_perc,2024.2.4,Win32,60.60606061,6647ce8c4b8ee105144eb431,687ed1b7e638a4cbf2f02089,689ea4b1852e2db6b1d926c5,,,,,,,,,,,,,,,,1,,,,,,,,,,,,,,,,,,,,,,,,,,,,,,,,,,,,,,,,,,,,,,,,,,,,,,,,,54,fomentar,,,,,904.3836,906.2769,0,0,1.357,,0,74,74,53,1,REAL,FAKE,,,,,,,,,,,,,,,,,
,,,,,,,,,6647ce8c4b8ee105144eb431,Spanish,13 or older,"no, only English or Spanish",no,2025-08-14_23h09.40.846,empathy_intonation_perc,2024.2.4,Win32,60.60606061,6647ce8c4b8ee105144eb431,687ed1b7e638a4cbf2f02089,689ea4b1852e2db6b1d926c5,,,,,,,,,,,,,,,,1,,,,,,,,,,,,,,,,,,,,,,,,,,,,,,,,,,,,,,,,,,,,,,,,,,,,,,,,,76,atar,,,,,906.2821,908.0105,0,0,1.198,,0,75,75,75,1,REAL,FAKE,,,,,,,,,,,,,,,,,
,,,,,,,,,6647ce8c4b8ee105144eb431,Spanish,13 or older,"no, only English or Spanish",no,2025-08-14_23h09.40.846,empathy_intonation_perc,2024.2.4,Win32,60.60606061,6647ce8c4b8ee105144eb431,687ed1b7e638a4cbf2f02089,689ea4b1852e2db6b1d926c5,,,,,,,,,,,,,,,,1,,,,,,,,,,,,,,,,,,,,,,,,,,,,,,,,,,,,,,,,,,,,,,,,,,,,,,,,,90,clavel,,,,,908.0166,909.5741,0,0,1.0333,,0,76,76,89,1,REAL,FAKE,,,,,,,,,,,,,,,,,
,,,,,,,,,6647ce8c4b8ee105144eb431,Spanish,13 or older,"no, only English or Spanish",no,2025-08-14_23h09.40.846,empathy_intonation_perc,2024.2.4,Win32,60.60606061,6647ce8c4b8ee105144eb431,687ed1b7e638a4cbf2f02089,689ea4b1852e2db6b1d926c5,,,,,,,,,,,,,,,,1,,,,,,,,,,,,,,,,,,,,,,,,,,,,,,,,,,,,,,,,,,,,,,,,,,,,,,,,,40,alfombra,,,,,909.5788,911.3556,0,0,1.2413,,0,77,77,39,1,REAL,FAKE,,,,,,,,,,,,,,,,,
,,,,,,,,,6647ce8c4b8ee105144eb431,Spanish,13 or older,"no, only English or Spanish",no,2025-08-14_23h09.40.846,empathy_intonation_perc,2024.2.4,Win32,60.60606061,6647ce8c4b8ee105144eb431,687ed1b7e638a4cbf2f02089,689ea4b1852e2db6b1d926c5,,,,,,,,,,,,,,,,1,,,,,,,,,,,,,,,,,,,,,,,,,,,,,,,,,,,,,,,,,,,,,,,,,,,,,,,,,56,musgo,,,,,911.3614,912.7372,0,0,0.8353,,0,78,78,55,1,REAL,FAKE,,,,,,,,,,,,,,,,,
,,,,,,,,,6647ce8c4b8ee105144eb431,Spanish,13 or older,"no, only English or Spanish",no,2025-08-14_23h09.40.846,empathy_intonation_perc,2024.2.4,Win32,60.60606061,6647ce8c4b8ee105144eb431,687ed1b7e638a4cbf2f02089,689ea4b1852e2db6b1d926c5,,,,,,,,,,,,,,,,0,,,,,,,,,,,,,,,,,,,,,,,,,,,,,,,,,,,,,,,,,,,,,,,,,,,,,,,,,92,click the 0 key.,,,,,912.7417,915.7016,0,1,2.4315,,0,79,79,91,1,REAL,FAKE,,,,,,,,,,,,,,,,,
,,,,,,,,,6647ce8c4b8ee105144eb431,Spanish,13 or older,"no, only English or Spanish",no,2025-08-14_23h09.40.846,empathy_intonation_perc,2024.2.4,Win32,60.60606061,6647ce8c4b8ee105144eb431,687ed1b7e638a4cbf2f02089,689ea4b1852e2db6b1d926c5,,,,,,,,,,,,,,,,0,,,,,,,,,,,,,,,,,,,,,,,,,,,,,,,,,,,,,,,,,,,,,,,,,,,,,,,,,27,acutación,,,,,915.7049,919.9966,0,1,3.7535,,0,80,80,26,1,REAL,FAKE,,,,,,,,,,,,,,,,,
,,,,,,,,,6647ce8c4b8ee105144eb431,Spanish,13 or older,"no, only English or Spanish",no,2025-08-14_23h09.40.846,empathy_intonation_perc,2024.2.4,Win32,60.60606061,6647ce8c4b8ee105144eb431,687ed1b7e638a4cbf2f02089,689ea4b1852e2db6b1d926c5,,,,,,,,,,,,,,,,0,,,,,,,,,,,,,,,,,,,,,,,,,,,,,,,,,,,,,,,,,,,,,,,,,,,,,,,,,35,rompido,,,,,919.999,921.7792,0,1,1.2377,,0,81,81,34,1,REAL,FAKE,,,,,,,,,,,,,,,,,
,,,,,,,,,6647ce8c4b8ee105144eb431,Spanish,13 or older,"no, only English or Spanish",no,2025-08-14_23h09.40.846,empathy_intonation_perc,2024.2.4,Win32,60.60606061,6647ce8c4b8ee105144eb431,687ed1b7e638a4cbf2f02089,689ea4b1852e2db6b1d926c5,,,,,,,,,,,,,,,,1,,,,,,,,,,,,,,,,,,,,,,,,,,,,,,,,,,,,,,,,,,,,,,,,,,,,,,,,,81,pozo,,,,,921.7839,923.1442,0,0,0.8342,,0,82,82,80,1,REAL,FAKE,,,,,,,,,,,,,,,,,
,,,,,,,,,6647ce8c4b8ee105144eb431,Spanish,13 or older,"no, only English or Spanish",no,2025-08-14_23h09.40.846,empathy_intonation_perc,2024.2.4,Win32,60.60606061,6647ce8c4b8ee105144eb431,687ed1b7e638a4cbf2f02089,689ea4b1852e2db6b1d926c5,,,,,,,,,,,,,,,,1,,,,,,,,,,,,,,,,,,,,,,,,,,,,,,,,,,,,,,,,,,,,,,,,,,,,,,,,,60,matar,,,,,923.1475,924.8421,0,0,1.1643,,0,83,83,59,1,REAL,FAKE,,,,,,,,,,,,,,,,,
,,,,,,,,,6647ce8c4b8ee105144eb431,Spanish,13 or older,"no, only English or Spanish",no,2025-08-14_23h09.40.846,empathy_intonation_perc,2024.2.4,Win32,60.60606061,6647ce8c4b8ee105144eb431,687ed1b7e638a4cbf2f02089,689ea4b1852e2db6b1d926c5,,,,,,,,,,,,,,,,1,,,,,,,,,,,,,,,,,,,,,,,,,,,,,,,,,,,,,,,,,,,,,,,,,,,,,,,,,65,bizcocho,,,,,924.8443,926.8924,0,0,1.5152,,0,84,84,64,1,REAL,FAKE,,,,,,,,,,,,,,,,,
,,,,,,,,,6647ce8c4b8ee105144eb431,Spanish,13 or older,"no, only English or Spanish",no,2025-08-14_23h09.40.846,empathy_intonation_perc,2024.2.4,Win32,60.60606061,6647ce8c4b8ee105144eb431,687ed1b7e638a4cbf2f02089,689ea4b1852e2db6b1d926c5,,,,,,,,,,,,,,,,0,,,,,,,,,,,,,,,,,,,,,,,,,,,,,,,,,,,,,,,,,,,,,,,,,,,,,,,,,87,grodo,,,,,926.8979,928.6728,0,1,1.2423,,0,85,85,86,1,REAL,FAKE,,,,,,,,,,,,,,,,,
,,,,,,,,,6647ce8c4b8ee105144eb431,Spanish,13 or older,"no, only English or Spanish",no,2025-08-14_23h09.40.846,empathy_intonation_perc,2024.2.4,Win32,60.60606061,6647ce8c4b8ee105144eb431,687ed1b7e638a4cbf2f02089,689ea4b1852e2db6b1d926c5,,,,,,,,,,,,,,,,1,,,,,,,,,,,,,,,,,,,,,,,,,,,,,,,,,,,,,,,,,,,,,,,,,,,,,,,,,57,tacaño,,,,,928.6781,933.0519,0,0,3.8361,,0,86,86,56,1,REAL,FAKE,,,,,,,,,,,,,,,,,
,,,,,,,,,6647ce8c4b8ee105144eb431,Spanish,13 or older,"no, only English or Spanish",no,2025-08-14_23h09.40.846,empathy_intonation_perc,2024.2.4,Win32,60.60606061,6647ce8c4b8ee105144eb431,687ed1b7e638a4cbf2f02089,689ea4b1852e2db6b1d926c5,,,,,,,,,,,,,,,,1,,,,,,,,,,,,,,,,,,,,,,,,,,,,,,,,,,,,,,,,,,,,,,,,,,,,,,,,,86,barato,,,,,933.0566,934.2679,1,1,0.6783,,0,87,87,85,1,REAL,FAKE,,,,,,,,,,,,,,,,,
,,,,,,,,,6647ce8c4b8ee105144eb431,Spanish,13 or older,"no, only English or Spanish",no,2025-08-14_23h09.40.846,empathy_intonation_perc,2024.2.4,Win32,60.60606061,6647ce8c4b8ee105144eb431,687ed1b7e638a4cbf2f02089,689ea4b1852e2db6b1d926c5,,,,,,,,,,,,,,,,1,,,,,,,,,,,,,,,,,,,,,,,,,,,,,,,,,,,,,,,,,,,,,,,,,,,,,,,,,24,látigo,,,,,934.2732,935.9827,1,1,1.1757,,0,88,88,23,1,REAL,FAKE,,,,,,,,,,,,,,,,,
,,,,,,,,,6647ce8c4b8ee105144eb431,Spanish,13 or older,"no, only English or Spanish",no,2025-08-14_23h09.40.846,empathy_intonation_perc,2024.2.4,Win32,60.60606061,6647ce8c4b8ee105144eb431,687ed1b7e638a4cbf2f02089,689ea4b1852e2db6b1d926c5,,,,,,,,,,,,,,,,1,,,,,,,,,,,,,,,,,,,,,,,,,,,,,,,,,,,,,,,,,,,,,,,,,,,,,,,,,62,flaco,,,,,935.9874,937.3979,1,1,0.8804,,0,89,89,61,1,REAL,FAKE,,,,,,,,,,,,,,,,,
,,,,,,,,,6647ce8c4b8ee105144eb431,Spanish,13 or older,"no, only English or Spanish",no,2025-08-14_23h09.40.846,empathy_intonation_perc,2024.2.4,Win32,60.60606061,6647ce8c4b8ee105144eb431,687ed1b7e638a4cbf2f02089,689ea4b1852e2db6b1d926c5,,,,,,,,,,,,,,,,1,,,,,,,,,,,,,,,,,,,,,,,,,,,,,,,,,,,,,,,,,,,,,,,,,,,,,,,,,91,click the 1 key.,,,,,937.4055,939.8782,1,1,1.9414,,0,90,90,90,1,REAL,FAKE,,,,,,,,,,,,,,,,,
,,,,,,,,,6647ce8c4b8ee105144eb431,Spanish,13 or older,"no, only English or Spanish",no,2025-08-14_23h09.40.846,empathy_intonation_perc,2024.2.4,Win32,60.60606061,6647ce8c4b8ee105144eb431,687ed1b7e638a4cbf2f02089,689ea4b1852e2db6b1d926c5,,,,,,,,,,,,,,,,1,,,,,,,,,,,,,,,,,,,,,,,,,,,,,,,,,,,,,,,,,,,,,,,,,,,,,,,,,44,cuchara,,,,,939.8815,941.593,1,1,1.1734,,0,91,91,43,1,REAL,FAKE,,,,,,,,,,,,,,,,,
,,,,,,,,,6647ce8c4b8ee105144eb431,Spanish,13 or older,"no, only English or Spanish",no,2025-08-14_23h09.40.846,empathy_intonation_perc,2024.2.4,Win32,60.60606061,6647ce8c4b8ee105144eb431,687ed1b7e638a4cbf2f02089,689ea4b1852e2db6b1d926c5,,,,,,,,,,,,,,,,,,,,,,,,,,,,,,,,,,,,,,,,,,,,,,,,,,,,,,,,,,,,,,,,,,,,,,,,,,,,,,,,,,,,,,,,,,,,941.5938,956.6628,,,,,,,,,,,,,,,
,,,,,,,,,6647ce8c4b8ee105144eb431,Spanish,13 or older,"no, only English or Spanish",no,2025-08-14_23h09.40.846,empathy_intonation_perc,2024.2.4,Win32,60.60606061,6647ce8c4b8ee105144eb431,687ed1b7e638a4cbf2f02089,689ea4b1852e2db6b1d926c5,,,,,,,,,,,,,,,1,,,,,,,,,,,,,,,,,,,,,,,,,,,,,,,,,,,,,,,,,,,,,,,,,,,,,,,,,,,,,,,,,,,,,,,,,,,,,,,956.6799,963.2814,slightly agree,0,0,0,0,1,I can easily tell if someone else wants to enter a conversation.,1,0,1,0,,
,,,,,,,,,6647ce8c4b8ee105144eb431,Spanish,13 or older,"no, only English or Spanish",no,2025-08-14_23h09.40.846,empathy_intonation_perc,2024.2.4,Win32,60.60606061,6647ce8c4b8ee105144eb431,687ed1b7e638a4cbf2f02089,689ea4b1852e2db6b1d926c5,,,,,,,,,,,,,,,2,,,,,,,,,,,,,,,,,,,,,,,,,,,,,,,,,,,,,,,,,,,,,,,,,,,,,,,,,,,,,,,,,,,,,,,,,,,,,,,963.2846,966.4531,slightly disagree,0,1,1,1,1,I prefer animals to humans.,0,1,0,0,,
,,,,,,,,,6647ce8c4b8ee105144eb431,Spanish,13 or older,"no, only English or Spanish",no,2025-08-14_23h09.40.846,empathy_intonation_perc,2024.2.4,Win32,60.60606061,6647ce8c4b8ee105144eb431,687ed1b7e638a4cbf2f02089,689ea4b1852e2db6b1d926c5,,,,,,,,,,,,,,,3,,,,,,,,,,,,,,,,,,,,,,,,,,,,,,,,,,,,,,,,,,,,,,,,,,,,,,,,,,,,,,,,,,,,,,,,,,,,,,,966.4566,973.3195,slightly agree,0,2,2,2,1,I try to keep up with the current trends and fashions.,0,1,0,0,,
,,,,,,,,,6647ce8c4b8ee105144eb431,Spanish,13 or older,"no, only English or Spanish",no,2025-08-14_23h09.40.846,empathy_intonation_perc,2024.2.4,Win32,60.60606061,6647ce8c4b8ee105144eb431,687ed1b7e638a4cbf2f02089,689ea4b1852e2db6b1d926c5,,,,,,,,,,,,,,,4,,,,,,,,,,,,,,,,,,,,,,,,,,,,,,,,,,,,,,,,,,,,,,,,,,,,,,,,,,,,,,,,,,,,,,,,,,,,,,,973.3247,988.6233,slightly agree,0,3,3,3,1,"I find it difficult to explain to others things that I understand easily,   when they don't understand it first time.",1,0,0,1,,
,,,,,,,,,6647ce8c4b8ee105144eb431,Spanish,13 or older,"no, only English or Spanish",no,2025-08-14_23h09.40.846,empathy_intonation_perc,2024.2.4,Win32,60.60606061,6647ce8c4b8ee105144eb431,687ed1b7e638a4cbf2f02089,689ea4b1852e2db6b1d926c5,,,,,,,,,,,,,,,5,,,,,,,,,,,,,,,,,,,,,,,,,,,,,,,,,,,,,,,,,,,,,,,,,,,,,,,,,,,,,,,,,,,,,,,,,,,,,,,988.6247,993.402,slightly agree,0,4,4,4,1,I dream most nights.,0,1,0,0,,
,,,,,,,,,6647ce8c4b8ee105144eb431,Spanish,13 or older,"no, only English or Spanish",no,2025-08-14_23h09.40.846,empathy_intonation_perc,2024.2.4,Win32,60.60606061,6647ce8c4b8ee105144eb431,687ed1b7e638a4cbf2f02089,689ea4b1852e2db6b1d926c5,,,,,,,,,,,,,,,6,,,,,,,,,,,,,,,,,,,,,,,,,,,,,,,,,,,,,,,,,,,,,,,,,,,,,,,,,,,,,,,,,,,,,,,,,,,,,,,993.4037,1000.979,slightly agree,0,5,5,5,1,I really enjoy caring for other people.,1,0,1,0,,
,,,,,,,,,6647ce8c4b8ee105144eb431,Spanish,13 or older,"no, only English or Spanish",no,2025-08-14_23h09.40.846,empathy_intonation_perc,2024.2.4,Win32,60.60606061,6647ce8c4b8ee105144eb431,687ed1b7e638a4cbf2f02089,689ea4b1852e2db6b1d926c5,,,,,,,,,,,,,,,7,,,,,,,,,,,,,,,,,,,,,,,,,,,,,,,,,,,,,,,,,,,,,,,,,,,,,,,,,,,,,,,,,,,,,,,,,,,,,,,1000.982,1004.8582,slightly agree,0,6,6,6,1,I try to solve my own problems rather than discussing them with others.,0,1,0,0,,
,,,,,,,,,6647ce8c4b8ee105144eb431,Spanish,13 or older,"no, only English or Spanish",no,2025-08-14_23h09.40.846,empathy_intonation_perc,2024.2.4,Win32,60.60606061,6647ce8c4b8ee105144eb431,687ed1b7e638a4cbf2f02089,689ea4b1852e2db6b1d926c5,,,,,,,,,,,,,,,8,,,,,,,,,,,,,,,,,,,,,,,,,,,,,,,,,,,,,,,,,,,,,,,,,,,,,,,,,,,,,,,,,,,,,,,,,,,,,,,1004.8602,1009.4243,slightly agree,0,7,7,7,1,I find it hard to know what to do in a social situation.,1,0,0,1,,
