instructions_exposure.started,instructions_exposure.stopped,instructions_exposure_loop.thisRepN,instructions_exposure_loop.thisTrialN,instructions_exposure_loop.thisN,instructions_exposure_loop.thisIndex,instructions_exposure_loop.ran,instructions_text,continue_text,participant_id,"What variety of Spanish are you most familiar with? (e.g., Peruvian, Spanish, Mexican)",At what age did you begin learning Spanish?,Are you proficient in any languages other than English/Spanish?,"Are you familiar with Caribbean (e.g., Caribbean, Puerto Rican) or Galician Spanish?",date,expName,psychopyVersion,OS,frameRate,id,study_id,session,trial_exposure.started,trial_exposure.stopped,key_resp_exposure.keys,key_resp_exposure.corr,key_resp_exposure.rt,key_resp_exposure.duration,key_resp.keys,exposure_loop.thisRepN,exposure_loop.thisTrialN,exposure_loop.thisN,exposure_loop.thisIndex,exposure_loop.ran,item_num,correct_response,question,path,duration,instructions_2afc.started,instructions_2afc.stopped,instructions_2afc_loop.thisRepN,instructions_2afc_loop.thisTrialN,instructions_2afc_loop.thisN,instructions_2afc_loop.thisIndex,instructions_2afc_loop.ran,practice_2afc.started,practice_2afc.stopped,key_resp_2afc_practice.keys,key_resp_2afc_practice.corr,key_resp_2afc_practice.rt,key_resp_2afc_practice.duration,trials_2afc_practice_loop.thisRepN,trials_2afc_practice_loop.thisTrialN,trials_2afc_practice_loop.thisN,trials_2afc_practice_loop.thisIndex,trials_2afc_practice_loop.ran,check_2afc.started,check_2afc.stopped,trial_2afc.started,trial_2afc.stopped,key_resp_2afc_trial.keys,key_resp_2afc_trial.corr,key_resp_2afc_trial.rt,key_resp_2afc_trial.duration,trials_2afc_loop.thisRepN,trials_2afc_loop.thisTrialN,trials_2afc_loop.thisN,trials_2afc_loop.thisIndex,trials_2afc_loop.ran,target,variety,instructions_lextale.started,instructions_lextale.stopped,instructions_lextale_loop.thisRepN,instructions_lextale_loop.thisTrialN,instructions_lextale_loop.thisN,instructions_lextale_loop.thisIndex,instructions_lextale_loop.ran,practice_lextale.started,practice_lextale.stopped,key_resp_lextale_practice.keys,key_resp_lextale_practice.corr,key_resp_lextale_practice.rt,key_resp_lextale_practice.duration,practice_feedback_lextale.started,practice_feedback_lextale.stopped,trials_lextale_practice_loop.thisRepN,trials_lextale_practice_loop.thisTrialN,trials_lextale_practice_loop.thisN,trials_lextale_practice_loop.thisIndex,trials_lextale_practice_loop.ran,stim,word,prac_button_real,prac_button_false,check_lextale.started,check_lextale.stopped,trial_lextale.started,trial_lextale.stopped,key_resp_lextale_trial.keys,key_resp_lextale_trial.corr,key_resp_lextale_trial.rt,key_resp_lextale_trial.duration,trials_lextale_loop.thisRepN,trials_lextale_loop.thisTrialN,trials_lextale_loop.thisN,trials_lextale_loop.thisIndex,trials_lextale_loop.ran,button_real,button_false,instructions_eq.started,instructions_eq.stopped,trial_eq.started,trial_eq.stopped,slider_eq_trial.response,trials_eq_loop.thisRepN,trials_eq_loop.thisTrialN,trials_eq_loop.thisN,trials_eq_loop.thisIndex,trials_eq_loop.ran,item,is_test_item,is_distractor,is_agree_score,is_disagree_score,end_exp.started,end_exp.stopped
0.0105,1.7849,0,0,0,0,1,"In the following task, you are going to hear a series of conversations.", (press the space bar to continue),6649f870ed4a6b0016a6086a,Spanish,13 or older,"no, only English or Spanish",no,2025-07-23_01h18.59.676,empathy_intonation_perc,2024.2.4,MacIntel,60.24096386,6649f870ed4a6b0016a6086a,687ed1b7e638a4cbf2f02089,688070805f635c2c6631a54c,,,,,,,,,,,,,,,,,,,,,,,,,,,,,,,,,,,,,,,,,,,,,,,,,,,,,,,,,,,,,,,,,,,,,,,,,,,,,,,,,,,,,,,,,,,,,,,,,,,,,,,,,,
1.7859,4.3012,0,1,1,1,1,It is okay if you don't not 100% understand them!, (press the space bar to continue),6649f870ed4a6b0016a6086a,Spanish,13 or older,"no, only English or Spanish",no,2025-07-23_01h18.59.676,empathy_intonation_perc,2024.2.4,MacIntel,60.24096386,6649f870ed4a6b0016a6086a,687ed1b7e638a4cbf2f02089,688070805f635c2c6631a54c,,,,,,,,,,,,,,,,,,,,,,,,,,,,,,,,,,,,,,,,,,,,,,,,,,,,,,,,,,,,,,,,,,,,,,,,,,,,,,,,,,,,,,,,,,,,,,,,,,,,,,,,,,
4.3032,10.4013,0,2,2,2,1,"After, you will read a sentence about the conversation and decide if it's true or false.", (press the space bar to continue),6649f870ed4a6b0016a6086a,Spanish,13 or older,"no, only English or Spanish",no,2025-07-23_01h18.59.676,empathy_intonation_perc,2024.2.4,MacIntel,60.24096386,6649f870ed4a6b0016a6086a,687ed1b7e638a4cbf2f02089,688070805f635c2c6631a54c,,,,,,,,,,,,,,,,,,,,,,,,,,,,,,,,,,,,,,,,,,,,,,,,,,,,,,,,,,,,,,,,,,,,,,,,,,,,,,,,,,,,,,,,,,,,,,,,,,,,,,,,,,
10.4032,12.817,0,3,3,3,1,"If it's true, press '1' (True) and if it's false press '0' (False).", (press the space bar to continue),6649f870ed4a6b0016a6086a,Spanish,13 or older,"no, only English or Spanish",no,2025-07-23_01h18.59.676,empathy_intonation_perc,2024.2.4,MacIntel,60.24096386,6649f870ed4a6b0016a6086a,687ed1b7e638a4cbf2f02089,688070805f635c2c6631a54c,,,,,,,,,,,,,,,,,,,,,,,,,,,,,,,,,,,,,,,,,,,,,,,,,,,,,,,,,,,,,,,,,,,,,,,,,,,,,,,,,,,,,,,,,,,,,,,,,,,,,,,,,,
,,,,,,,,,6649f870ed4a6b0016a6086a,Spanish,13 or older,"no, only English or Spanish",no,2025-07-23_01h18.59.676,empathy_intonation_perc,2024.2.4,MacIntel,60.24096386,6649f870ed4a6b0016a6086a,687ed1b7e638a4cbf2f02089,688070805f635c2c6631a54c,12.8253,63.9012,1,1,4.037,,,0,0,0,0,1,1,1,The son asked the mom if Aunt Marina is okay.,./stim/exposure_wavs/ga_stimuli_convo.wav,47,,,,,,,,,,,,,,,,,,,,,,,,,,,,,,,,,,,,,,,,,,,,,,,,,,,,,,,,,,,,,,,,,,,,,,,,,,,,,,,,,,,,,,,,,
,,,,,,,,,6649f870ed4a6b0016a6086a,Spanish,13 or older,"no, only English or Spanish",no,2025-07-23_01h18.59.676,empathy_intonation_perc,2024.2.4,MacIntel,60.24096386,6649f870ed4a6b0016a6086a,687ed1b7e638a4cbf2f02089,688070805f635c2c6631a54c,63.9022,128.8856,1,1,4.9624,,,0,1,1,1,1,2,1,The mom asked the daughter if she already went to the supermarket.,./stim/exposure_wavs/dr_stimuli_convo.wav,60,,,,,,,,,,,,,,,,,,,,,,,,,,,,,,,,,,,,,,,,,,,,,,,,,,,,,,,,,,,,,,,,,,,,,,,,,,,,,,,,,,,,,,,,,
,,,,,,,,,6649f870ed4a6b0016a6086a,Spanish,13 or older,"no, only English or Spanish",no,2025-07-23_01h18.59.676,empathy_intonation_perc,2024.2.4,MacIntel,60.24096386,6649f870ed4a6b0016a6086a,687ed1b7e638a4cbf2f02089,688070805f635c2c6631a54c,128.8879,168.2876,0,1,3.3749,,,0,2,2,2,1,3,0,The mom already has rice.,./stim/exposure_wavs/pr_stimuli_convo.wav,36,,,,,,,,,,,,,,,,,,,,,,,,,,,,,,,,,,,,,,,,,,,,,,,,,,,,,,,,,,,,,,,,,,,,,,,,,,,,,,,,,,,,,,,,,
,,,,,,,"In the following task you are going to hear a series of utterances. 

  You will decide if the utterances sound like questions or not using your keyboard.", (press the spacebar to continue),6649f870ed4a6b0016a6086a,Spanish,13 or older,"no, only English or Spanish",no,2025-07-23_01h18.59.676,empathy_intonation_perc,2024.2.4,MacIntel,60.24096386,6649f870ed4a6b0016a6086a,687ed1b7e638a4cbf2f02089,688070805f635c2c6631a54c,,,,,,,,,,,,,,,,,,168.2939,172.7045,0,0,0,0,1,,,,,,,,,,,,,,,,,,,,,,,,,,,,,,,,,,,,,,,,,,,,,,,,,,,,,,,,,,,,,,,,,,,,,,,,,,,,,,,,,,
,,,,,,,"If you believe the utterance is a question, type '1' (for 'yes') and if you do not 
  believe it is a question type '0' (for 'no').

  Let's practice a bit...", (press the spacebar to continue),6649f870ed4a6b0016a6086a,Spanish,13 or older,"no, only English or Spanish",no,2025-07-23_01h18.59.676,empathy_intonation_perc,2024.2.4,MacIntel,60.24096386,6649f870ed4a6b0016a6086a,687ed1b7e638a4cbf2f02089,688070805f635c2c6631a54c,,,,,,,,,,,,,,,,,,172.7068,177.0537,0,1,1,1,1,,,,,,,,,,,,,,,,,,,,,,,,,,,,,,,,,,,,,,,,,,,,,,,,,,,,,,,,,,,,,,,,,,,,,,,,,,,,,,,,,,
,,,,,,,,,6649f870ed4a6b0016a6086a,Spanish,13 or older,"no, only English or Spanish",no,2025-07-23_01h18.59.676,empathy_intonation_perc,2024.2.4,MacIntel,60.24096386,6649f870ed4a6b0016a6086a,687ed1b7e638a4cbf2f02089,688070805f635c2c6631a54c,,,,,,,,,,,,,,1,,./stim/wavs/mexican_question_filler_Felipe-no-tiene-contrasena.wav,,,,,,,,,177.0623,180.288,1,1,2.6993,,0,0,0,3,1,,,,,,,,,,,,,,,,,,,,,,,,,,,,,,,,,,,,,,,,,,,,,,,,,,,,,,,,,,,,,,,,,,,,,,,
,,,,,,,,,6649f870ed4a6b0016a6086a,Spanish,13 or older,"no, only English or Spanish",no,2025-07-23_01h18.59.676,empathy_intonation_perc,2024.2.4,MacIntel,60.24096386,6649f870ed4a6b0016a6086a,687ed1b7e638a4cbf2f02089,688070805f635c2c6631a54c,,,,,,,,,,,,,,0,,./stim/wavs/andalusian_statement_filler_Alberto-nunca-se-afeita.wav,,,,,,,,,180.2888,182.8201,0,1,2.0003,,0,1,1,5,1,,,,,,,,,,,,,,,,,,,,,,,,,,,,,,,,,,,,,,,,,,,,,,,,,,,,,,,,,,,,,,,,,,,,,,,
,,,,,,,,,6649f870ed4a6b0016a6086a,Spanish,13 or older,"no, only English or Spanish",no,2025-07-23_01h18.59.676,empathy_intonation_perc,2024.2.4,MacIntel,60.24096386,6649f870ed4a6b0016a6086a,687ed1b7e638a4cbf2f02089,688070805f635c2c6631a54c,,,,,,,,,,,,,,1,,./stim/wavs/argentine_question_filler_Mi-vecino-habla-mucho.wav,,,,,,,,,182.821,185.5879,1,1,2.2493,,0,2,2,1,1,,,,,,,,,,,,,,,,,,,,,,,,,,,,,,,,,,,,,,,,,,,,,,,,,,,,,,,,,,,,,,,,,,,,,,,
,,,,,,,,,6649f870ed4a6b0016a6086a,Spanish,13 or older,"no, only English or Spanish",no,2025-07-23_01h18.59.676,empathy_intonation_perc,2024.2.4,MacIntel,60.24096386,6649f870ed4a6b0016a6086a,687ed1b7e638a4cbf2f02089,688070805f635c2c6631a54c,,,,,,,,,,,,,,0,,./stim/wavs/peruvian_statement_filler_El-nino-habla-con-su-madre.wav,,,,,,,,,185.589,188.3378,0,1,2.2213,,0,3,3,6,1,,,,,,,,,,,,,,,,,,,,,,,,,,,,,,,,,,,,,,,,,,,,,,,,,,,,,,,,,,,,,,,,,,,,,,,
,,,,,,,,,6649f870ed4a6b0016a6086a,Spanish,13 or older,"no, only English or Spanish",no,2025-07-23_01h18.59.676,empathy_intonation_perc,2024.2.4,MacIntel,60.24096386,6649f870ed4a6b0016a6086a,687ed1b7e638a4cbf2f02089,688070805f635c2c6631a54c,,,,,,,,,,,,,,1,,./stim/wavs/chilean_question_filler_Mi-padre-cantaba-bien.wav,,,,,,,,,188.3388,190.621,0,0,1.7509,,0,4,4,2,1,,,,,,,,,,,,,,,,,,,,,,,,,,,,,,,,,,,,,,,,,,,,,,,,,,,,,,,,,,,,,,,,,,,,,,,
,,,,,,,,,6649f870ed4a6b0016a6086a,Spanish,13 or older,"no, only English or Spanish",no,2025-07-23_01h18.59.676,empathy_intonation_perc,2024.2.4,MacIntel,60.24096386,6649f870ed4a6b0016a6086a,687ed1b7e638a4cbf2f02089,688070805f635c2c6631a54c,,,,,,,,,,,,,,0,,./stim/wavs/cuban_statement_filler_Cocinabas-por-la-noche.wav,,,,,,,,,190.6219,193.7705,0,1,2.6176,,0,5,5,4,1,,,,,,,,,,,,,,,,,,,,,,,,,,,,,,,,,,,,,,,,,,,,,,,,,,,,,,,,,,,,,,,,,,,,,,,
,,,,,,,,,6649f870ed4a6b0016a6086a,Spanish,13 or older,"no, only English or Spanish",no,2025-07-23_01h18.59.676,empathy_intonation_perc,2024.2.4,MacIntel,60.24096386,6649f870ed4a6b0016a6086a,687ed1b7e638a4cbf2f02089,688070805f635c2c6631a54c,,,,,,,,,,,,,,1,,./stim/wavs/castilian_question_filler_Mi-esposo-conoce-al-chico.wav,,,,,,,,,193.7714,196.7546,1,1,2.4683,,0,6,6,0,1,,,,,,,,,,,,,,,,,,,,,,,,,,,,,,,,,,,,,,,,,,,,,,,,,,,,,,,,,,,,,,,,,,,,,,,
,,,,,,,,,6649f870ed4a6b0016a6086a,Spanish,13 or older,"no, only English or Spanish",no,2025-07-23_01h18.59.676,empathy_intonation_perc,2024.2.4,MacIntel,60.24096386,6649f870ed4a6b0016a6086a,687ed1b7e638a4cbf2f02089,688070805f635c2c6631a54c,,,,,,,,,,,,,,0,,./stim/wavs/puertorican_statement_filler_La-nina-pinta-con-su-amiga.wav,,,,,,,,,196.7554,199.3036,0,1,2.0257,,0,7,7,7,1,,,,,,,,,,,,,,,,,,,,,,,,,,,,,,,,,,,,,,,,,,,,,,,,,,,,,,,,,,,,,,,,,,,,,,,
,,,,,,,,,6649f870ed4a6b0016a6086a,Spanish,13 or older,"no, only English or Spanish",no,2025-07-23_01h18.59.676,empathy_intonation_perc,2024.2.4,MacIntel,60.24096386,6649f870ed4a6b0016a6086a,687ed1b7e638a4cbf2f02089,688070805f635c2c6631a54c,,,,,,,,,,,,,,,,,,,,,,,,,,,,,,,,,,,,199.304,202.172,,,,,,,,,,,,,,,,,,,,,,,,,,,,,,,,,,,,,,,,,,,,,,,,,,,,,,,,,,,,,,,,,,,,,
,,,,,,,,,6649f870ed4a6b0016a6086a,Spanish,13 or older,"no, only English or Spanish",no,2025-07-23_01h18.59.676,empathy_intonation_perc,2024.2.4,MacIntel,60.24096386,6649f870ed4a6b0016a6086a,687ed1b7e638a4cbf2f02089,688070805f635c2c6631a54c,,,,,,,,,,,,,21,1,,./stim/wavs/puertorican_match_interrogative-total-yn_David-leia-el-libro.wav,,,,,,,,,,,,,,,,,,,,,,202.1821,204.4387,0,0,1.7332,,0,0,0,20,1,1,puertorican,,,,,,,,,,,,,,,,,,,,,,,,,,,,,,,,,,,,,,,,,,,,,,,,,,,,,,,,
,,,,,,,,,6649f870ed4a6b0016a6086a,Spanish,13 or older,"no, only English or Spanish",no,2025-07-23_01h18.59.676,empathy_intonation_perc,2024.2.4,MacIntel,60.24096386,6649f870ed4a6b0016a6086a,687ed1b7e638a4cbf2f02089,688070805f635c2c6631a54c,,,,,,,,,,,,,77,0,,./stim/wavs/cuban_mismatch_declarative-broad-focus_Mi-novio-viene-del-lago.wav,,,,,,,,,,,,,,,,,,,,,,204.4397,206.7543,0,1,1.793,,0,1,1,76,1,0,cuban,,,,,,,,,,,,,,,,,,,,,,,,,,,,,,,,,,,,,,,,,,,,,,,,,,,,,,,,
,,,,,,,,,6649f870ed4a6b0016a6086a,Spanish,13 or older,"no, only English or Spanish",no,2025-07-23_01h18.59.676,empathy_intonation_perc,2024.2.4,MacIntel,60.24096386,6649f870ed4a6b0016a6086a,687ed1b7e638a4cbf2f02089,688070805f635c2c6631a54c,,,,,,,,,,,,,68,0,,./stim/wavs/puertorican_match_declarative-broad-focus_Maria-bebe-el-vino.wav,,,,,,,,,,,,,,,,,,,,,,206.7546,209.1384,1,0,1.8712,,0,2,2,67,1,0,puertorican,,,,,,,,,,,,,,,,,,,,,,,,,,,,,,,,,,,,,,,,,,,,,,,,,,,,,,,,
,,,,,,,,,6649f870ed4a6b0016a6086a,Spanish,13 or older,"no, only English or Spanish",no,2025-07-23_01h18.59.676,empathy_intonation_perc,2024.2.4,MacIntel,60.24096386,6649f870ed4a6b0016a6086a,687ed1b7e638a4cbf2f02089,688070805f635c2c6631a54c,,,,,,,,,,,,,4,1,,./stim/wavs/castilian_match_interrogative-total-yn_Maria-bebe-el-vino.wav,,,,,,,,,,,,,,,,,,,,,,209.139,211.2216,1,1,1.5507,,0,3,3,3,1,0,castilian,,,,,,,,,,,,,,,,,,,,,,,,,,,,,,,,,,,,,,,,,,,,,,,,,,,,,,,,
,,,,,,,,,6649f870ed4a6b0016a6086a,Spanish,13 or older,"no, only English or Spanish",no,2025-07-23_01h18.59.676,empathy_intonation_perc,2024.2.4,MacIntel,60.24096386,6649f870ed4a6b0016a6086a,687ed1b7e638a4cbf2f02089,688070805f635c2c6631a54c,,,,,,,,,,,,,75,0,,./stim/wavs/cuban_mismatch_declarative-broad-focus_El-hombre-mira-la-luna.wav,,,,,,,,,,,,,,,,,,,,,,211.2222,213.3883,0,1,1.6346,,0,4,4,74,1,0,cuban,,,,,,,,,,,,,,,,,,,,,,,,,,,,,,,,,,,,,,,,,,,,,,,,,,,,,,,,
,,,,,,,,,6649f870ed4a6b0016a6086a,Spanish,13 or older,"no, only English or Spanish",no,2025-07-23_01h18.59.676,empathy_intonation_perc,2024.2.4,MacIntel,60.24096386,6649f870ed4a6b0016a6086a,687ed1b7e638a4cbf2f02089,688070805f635c2c6631a54c,,,,,,,,,,,,,3,1,,./stim/wavs/castilian_match_interrogative-total-yn_Manuela-vende-el-carro.wav,,,,,,,,,,,,,,,,,,,,,,213.389,215.8874,1,1,1.9672,,0,5,5,2,1,0,castilian,,,,,,,,,,,,,,,,,,,,,,,,,,,,,,,,,,,,,,,,,,,,,,,,,,,,,,,,
,,,,,,,,,6649f870ed4a6b0016a6086a,Spanish,13 or older,"no, only English or Spanish",no,2025-07-23_01h18.59.676,empathy_intonation_perc,2024.2.4,MacIntel,60.24096386,6649f870ed4a6b0016a6086a,687ed1b7e638a4cbf2f02089,688070805f635c2c6631a54c,,,,,,,,,,,,,33,1,,./stim/wavs/cuban_mismatch_interrogative-total-yn_Mi-novio-viene-del-lago.wav,,,,,,,,,,,,,,,,,,,,,,215.8882,218.1884,0,0,1.7953,,0,6,6,32,1,1,cuban,,,,,,,,,,,,,,,,,,,,,,,,,,,,,,,,,,,,,,,,,,,,,,,,,,,,,,,,
,,,,,,,,,6649f870ed4a6b0016a6086a,Spanish,13 or older,"no, only English or Spanish",no,2025-07-23_01h18.59.676,empathy_intonation_perc,2024.2.4,MacIntel,60.24096386,6649f870ed4a6b0016a6086a,687ed1b7e638a4cbf2f02089,688070805f635c2c6631a54c,,,,,,,,,,,,,22,1,,./stim/wavs/puertorican_match_interrogative-total-yn_Emilio-ama-la-marcha.wav,,,,,,,,,,,,,,,,,,,,,,218.1892,220.4875,0,0,1.7732,,0,7,7,21,1,1,puertorican,,,,,,,,,,,,,,,,,,,,,,,,,,,,,,,,,,,,,,,,,,,,,,,,,,,,,,,,
,,,,,,,,,6649f870ed4a6b0016a6086a,Spanish,13 or older,"no, only English or Spanish",no,2025-07-23_01h18.59.676,empathy_intonation_perc,2024.2.4,MacIntel,60.24096386,6649f870ed4a6b0016a6086a,687ed1b7e638a4cbf2f02089,688070805f635c2c6631a54c,,,,,,,,,,,,,67,0,,./stim/wavs/puertorican_match_declarative-broad-focus_Manuela-vende-el-carro.wav,,,,,,,,,,,,,,,,,,,,,,220.4883,222.9877,0,1,1.9675,,0,8,8,66,1,0,puertorican,,,,,,,,,,,,,,,,,,,,,,,,,,,,,,,,,,,,,,,,,,,,,,,,,,,,,,,,
,,,,,,,,,6649f870ed4a6b0016a6086a,Spanish,13 or older,"no, only English or Spanish",no,2025-07-23_01h18.59.676,empathy_intonation_perc,2024.2.4,MacIntel,60.24096386,6649f870ed4a6b0016a6086a,687ed1b7e638a4cbf2f02089,688070805f635c2c6631a54c,,,,,,,,,,,,,9,1,,./stim/wavs/cuban_match_interrogative-total-yn_Manuela-vende-el-carro.wav,,,,,,,,,,,,,,,,,,,,,,222.9884,224.9884,0,0,1.4701,,0,9,9,8,1,1,cuban,,,,,,,,,,,,,,,,,,,,,,,,,,,,,,,,,,,,,,,,,,,,,,,,,,,,,,,,
,,,,,,,,,6649f870ed4a6b0016a6086a,Spanish,13 or older,"no, only English or Spanish",no,2025-07-23_01h18.59.676,empathy_intonation_perc,2024.2.4,MacIntel,60.24096386,6649f870ed4a6b0016a6086a,687ed1b7e638a4cbf2f02089,688070805f635c2c6631a54c,,,,,,,,,,,,,65,0,,./stim/wavs/puertorican_match_declarative-broad-focus_David-leia-el-libro.wav,,,,,,,,,,,,,,,,,,,,,,224.9893,227.4054,0,1,1.8844,,0,10,10,64,1,0,puertorican,,,,,,,,,,,,,,,,,,,,,,,,,,,,,,,,,,,,,,,,,,,,,,,,,,,,,,,,
,,,,,,,,,6649f870ed4a6b0016a6086a,Spanish,13 or older,"no, only English or Spanish",no,2025-07-23_01h18.59.676,empathy_intonation_perc,2024.2.4,MacIntel,60.24096386,6649f870ed4a6b0016a6086a,687ed1b7e638a4cbf2f02089,688070805f635c2c6631a54c,,,,,,,,,,,,,28,1,,./stim/wavs/castilian_mismatch_interrogative-total-yn_Mi-novio-viene-del-lago.wav,,,,,,,,,,,,,,,,,,,,,,227.4062,229.8219,1,1,1.8835,,0,11,11,27,1,0,castilian,,,,,,,,,,,,,,,,,,,,,,,,,,,,,,,,,,,,,,,,,,,,,,,,,,,,,,,,
,,,,,,,,,6649f870ed4a6b0016a6086a,Spanish,13 or older,"no, only English or Spanish",no,2025-07-23_01h18.59.676,empathy_intonation_perc,2024.2.4,MacIntel,60.24096386,6649f870ed4a6b0016a6086a,687ed1b7e638a4cbf2f02089,688070805f635c2c6631a54c,,,,,,,,,,,,,38,1,,./stim/wavs/mexican_mismatch_interrogative-total-yn_Mi-novio-viene-del-lago.wav,,,,,,,,,,,,,,,,,,,,,,229.8227,232.0387,1,1,1.6883,,0,12,12,37,1,0,mexican,,,,,,,,,,,,,,,,,,,,,,,,,,,,,,,,,,,,,,,,,,,,,,,,,,,,,,,,
,,,,,,,,,6649f870ed4a6b0016a6086a,Spanish,13 or older,"no, only English or Spanish",no,2025-07-23_01h18.59.676,empathy_intonation_perc,2024.2.4,MacIntel,60.24096386,6649f870ed4a6b0016a6086a,687ed1b7e638a4cbf2f02089,688070805f635c2c6631a54c,,,,,,,,,,,,,74,0,,./stim/wavs/cuban_mismatch_declarative-broad-focus_El-bebe-comia-muy-bien.wav,,,,,,,,,,,,,,,,,,,,,,232.0394,234.4211,0,1,1.8537,,0,13,13,73,1,0,cuban,,,,,,,,,,,,,,,,,,,,,,,,,,,,,,,,,,,,,,,,,,,,,,,,,,,,,,,,
,,,,,,,,,6649f870ed4a6b0016a6086a,Spanish,13 or older,"no, only English or Spanish",no,2025-07-23_01h18.59.676,empathy_intonation_perc,2024.2.4,MacIntel,60.24096386,6649f870ed4a6b0016a6086a,687ed1b7e638a4cbf2f02089,688070805f635c2c6631a54c,,,,,,,,,,,,,29,1,,./stim/wavs/castilian_mismatch_interrogative-total-yn_Mi-tia-odia-la-lluvia.wav,,,,,,,,,,,,,,,,,,,,,,234.4218,236.9544,1,1,2.0194,,0,14,14,28,1,0,castilian,,,,,,,,,,,,,,,,,,,,,,,,,,,,,,,,,,,,,,,,,,,,,,,,,,,,,,,,
,,,,,,,,,6649f870ed4a6b0016a6086a,Spanish,13 or older,"no, only English or Spanish",no,2025-07-23_01h18.59.676,empathy_intonation_perc,2024.2.4,MacIntel,60.24096386,6649f870ed4a6b0016a6086a,687ed1b7e638a4cbf2f02089,688070805f635c2c6631a54c,,,,,,,,,,,,,23,1,,./stim/wavs/puertorican_match_interrogative-total-yn_Manuela-vende-el-carro.wav,,,,,,,,,,,,,,,,,,,,,,236.9553,239.2552,0,0,1.7892,,0,15,15,22,1,1,puertorican,,,,,,,,,,,,,,,,,,,,,,,,,,,,,,,,,,,,,,,,,,,,,,,,,,,,,,,,
,,,,,,,,,6649f870ed4a6b0016a6086a,Spanish,13 or older,"no, only English or Spanish",no,2025-07-23_01h18.59.676,empathy_intonation_perc,2024.2.4,MacIntel,60.24096386,6649f870ed4a6b0016a6086a,687ed1b7e638a4cbf2f02089,688070805f635c2c6631a54c,,,,,,,,,,,,,39,1,,./stim/wavs/mexican_mismatch_interrogative-total-yn_Mi-tia-odia-la-lluvia.wav,,,,,,,,,,,,,,,,,,,,,,239.2559,241.5222,1,1,1.7455,,0,16,16,38,1,0,mexican,,,,,,,,,,,,,,,,,,,,,,,,,,,,,,,,,,,,,,,,,,,,,,,,,,,,,,,,
,,,,,,,,,6649f870ed4a6b0016a6086a,Spanish,13 or older,"no, only English or Spanish",no,2025-07-23_01h18.59.676,empathy_intonation_perc,2024.2.4,MacIntel,60.24096386,6649f870ed4a6b0016a6086a,687ed1b7e638a4cbf2f02089,688070805f635c2c6631a54c,,,,,,,,,,,,,82,0,,./stim/wavs/mexican_mismatch_declarative-broad-focus_Mi-novio-viene-del-lago.wav,,,,,,,,,,,,,,,,,,,,,,241.5232,243.5558,0,1,1.5121,,0,17,17,81,1,0,mexican,,,,,,,,,,,,,,,,,,,,,,,,,,,,,,,,,,,,,,,,,,,,,,,,,,,,,,,,
,,,,,,,,,6649f870ed4a6b0016a6086a,Spanish,13 or older,"no, only English or Spanish",no,2025-07-23_01h18.59.676,empathy_intonation_perc,2024.2.4,MacIntel,60.24096386,6649f870ed4a6b0016a6086a,687ed1b7e638a4cbf2f02089,688070805f635c2c6631a54c,,,,,,,,,,,,,70,0,,./stim/wavs/castilian_mismatch_declarative-broad-focus_La-maestra-vive-en-Paris.wav,,,,,,,,,,,,,,,,,,,,,,243.5565,246.0381,0,1,1.9503,,0,18,18,69,1,0,castilian,,,,,,,,,,,,,,,,,,,,,,,,,,,,,,,,,,,,,,,,,,,,,,,,,,,,,,,,
,,,,,,,,,6649f870ed4a6b0016a6086a,Spanish,13 or older,"no, only English or Spanish",no,2025-07-23_01h18.59.676,empathy_intonation_perc,2024.2.4,MacIntel,60.24096386,6649f870ed4a6b0016a6086a,687ed1b7e638a4cbf2f02089,688070805f635c2c6631a54c,,,,,,,,,,,,,50,0,,./stim/wavs/castilian_match_declarative-broad-focus_Marta-abre-el-regalo.wav,,,,,,,,,,,,,,,,,,,,,,246.039,248.2223,0,1,1.6514,,0,19,19,49,1,0,castilian,,,,,,,,,,,,,,,,,,,,,,,,,,,,,,,,,,,,,,,,,,,,,,,,,,,,,,,,
,,,,,,,,,6649f870ed4a6b0016a6086a,Spanish,13 or older,"no, only English or Spanish",no,2025-07-23_01h18.59.676,empathy_intonation_perc,2024.2.4,MacIntel,60.24096386,6649f870ed4a6b0016a6086a,687ed1b7e638a4cbf2f02089,688070805f635c2c6631a54c,,,,,,,,,,,,,57,0,,./stim/wavs/mexican_match_declarative-broad-focus_Ana-lleva-el-abrigo.wav,,,,,,,,,,,,,,,,,,,,,,248.223,250.189,0,1,1.4337,,0,20,20,56,1,0,mexican,,,,,,,,,,,,,,,,,,,,,,,,,,,,,,,,,,,,,,,,,,,,,,,,,,,,,,,,
,,,,,,,,,6649f870ed4a6b0016a6086a,Spanish,13 or older,"no, only English or Spanish",no,2025-07-23_01h18.59.676,empathy_intonation_perc,2024.2.4,MacIntel,60.24096386,6649f870ed4a6b0016a6086a,687ed1b7e638a4cbf2f02089,688070805f635c2c6631a54c,,,,,,,,,,,,,1,1,,./stim/wavs/castilian_match_interrogative-total-yn_David-leia-el-libro.wav,,,,,,,,,,,,,,,,,,,,,,250.1898,252.3559,1,1,1.634,,0,21,21,0,1,0,castilian,,,,,,,,,,,,,,,,,,,,,,,,,,,,,,,,,,,,,,,,,,,,,,,,,,,,,,,,
,,,,,,,,,6649f870ed4a6b0016a6086a,Spanish,13 or older,"no, only English or Spanish",no,2025-07-23_01h18.59.676,empathy_intonation_perc,2024.2.4,MacIntel,60.24096386,6649f870ed4a6b0016a6086a,687ed1b7e638a4cbf2f02089,688070805f635c2c6631a54c,,,,,,,,,,,,,11,1,,./stim/wavs/cuban_match_interrogative-total-yn_Mariano-habla-del-tiempo.wav,,,,,,,,,,,,,,,,,,,,,,252.3567,254.5559,0,0,1.667,,0,22,22,10,1,1,cuban,,,,,,,,,,,,,,,,,,,,,,,,,,,,,,,,,,,,,,,,,,,,,,,,,,,,,,,,
,,,,,,,,,6649f870ed4a6b0016a6086a,Spanish,13 or older,"no, only English or Spanish",no,2025-07-23_01h18.59.676,empathy_intonation_perc,2024.2.4,MacIntel,60.24096386,6649f870ed4a6b0016a6086a,687ed1b7e638a4cbf2f02089,688070805f635c2c6631a54c,,,,,,,,,,,,,73,0,,./stim/wavs/castilian_mismatch_declarative-broad-focus_Mi-tia-odia-la-lluvia.wav,,,,,,,,,,,,,,,,,,,,,,254.5567,256.8049,0,1,1.7208,,0,23,23,72,1,0,castilian,,,,,,,,,,,,,,,,,,,,,,,,,,,,,,,,,,,,,,,,,,,,,,,,,,,,,,,,
,,,,,,,,,6649f870ed4a6b0016a6086a,Spanish,13 or older,"no, only English or Spanish",no,2025-07-23_01h18.59.676,empathy_intonation_perc,2024.2.4,MacIntel,60.24096386,6649f870ed4a6b0016a6086a,687ed1b7e638a4cbf2f02089,688070805f635c2c6631a54c,,,,,,,,,,,,,85,0,,./stim/wavs/puertorican_mismatch_declarative-broad-focus_El-hombre-mira-la-luna.wav,,,,,,,,,,,,,,,,,,,,,,256.8055,258.8392,0,1,1.5171,,0,24,24,84,1,0,puertorican,,,,,,,,,,,,,,,,,,,,,,,,,,,,,,,,,,,,,,,,,,,,,,,,,,,,,,,,
,,,,,,,,,6649f870ed4a6b0016a6086a,Spanish,13 or older,"no, only English or Spanish",no,2025-07-23_01h18.59.676,empathy_intonation_perc,2024.2.4,MacIntel,60.24096386,6649f870ed4a6b0016a6086a,687ed1b7e638a4cbf2f02089,688070805f635c2c6631a54c,,,,,,,,,,,,,25,1,,./stim/wavs/castilian_mismatch_interrogative-total-yn_La-maestra-vive-en-Paris.wav,,,,,,,,,,,,,,,,,,,,,,258.8399,261.355,1,1,1.9832,,0,25,25,24,1,0,castilian,,,,,,,,,,,,,,,,,,,,,,,,,,,,,,,,,,,,,,,,,,,,,,,,,,,,,,,,
,,,,,,,,,6649f870ed4a6b0016a6086a,Spanish,13 or older,"no, only English or Spanish",no,2025-07-23_01h18.59.676,empathy_intonation_perc,2024.2.4,MacIntel,60.24096386,6649f870ed4a6b0016a6086a,687ed1b7e638a4cbf2f02089,688070805f635c2c6631a54c,,,,,,,,,,,,,32,1,,./stim/wavs/cuban_mismatch_interrogative-total-yn_Mi-madre-come-la-fruta.wav,,,,,,,,,,,,,,,,,,,,,,261.3558,263.9058,0,0,2.0289,,0,26,26,31,1,1,cuban,,,,,,,,,,,,,,,,,,,,,,,,,,,,,,,,,,,,,,,,,,,,,,,,,,,,,,,,
,,,,,,,,,6649f870ed4a6b0016a6086a,Spanish,13 or older,"no, only English or Spanish",no,2025-07-23_01h18.59.676,empathy_intonation_perc,2024.2.4,MacIntel,60.24096386,6649f870ed4a6b0016a6086a,687ed1b7e638a4cbf2f02089,688070805f635c2c6631a54c,,,,,,,,,,,,,55,0,,./stim/wavs/cuban_match_declarative-broad-focus_Mariano-habla-del-tiempo.wav,,,,,,,,,,,,,,,,,,,,,,263.9066,266.1561,0,1,1.7228,,0,27,27,54,1,0,cuban,,,,,,,,,,,,,,,,,,,,,,,,,,,,,,,,,,,,,,,,,,,,,,,,,,,,,,,,
,,,,,,,,,6649f870ed4a6b0016a6086a,Spanish,13 or older,"no, only English or Spanish",no,2025-07-23_01h18.59.676,empathy_intonation_perc,2024.2.4,MacIntel,60.24096386,6649f870ed4a6b0016a6086a,687ed1b7e638a4cbf2f02089,688070805f635c2c6631a54c,,,,,,,,,,,,,6,1,,./stim/wavs/castilian_match_interrogative-total-yn_Marta-abre-el-regalo.wav,,,,,,,,,,,,,,,,,,,,,,266.1569,268.3893,1,1,1.7049,,0,28,28,5,1,0,castilian,,,,,,,,,,,,,,,,,,,,,,,,,,,,,,,,,,,,,,,,,,,,,,,,,,,,,,,,
,,,,,,,,,6649f870ed4a6b0016a6086a,Spanish,13 or older,"no, only English or Spanish",no,2025-07-23_01h18.59.676,empathy_intonation_perc,2024.2.4,MacIntel,60.24096386,6649f870ed4a6b0016a6086a,687ed1b7e638a4cbf2f02089,688070805f635c2c6631a54c,,,,,,,,,,,,,71,0,,./stim/wavs/castilian_mismatch_declarative-broad-focus_La-nina-lava-el-plato.wav,,,,,,,,,,,,,,,,,,,,,,268.39,270.7566,0,1,1.8462,,0,29,29,70,1,0,castilian,,,,,,,,,,,,,,,,,,,,,,,,,,,,,,,,,,,,,,,,,,,,,,,,,,,,,,,,
,,,,,,,,,6649f870ed4a6b0016a6086a,Spanish,13 or older,"no, only English or Spanish",no,2025-07-23_01h18.59.676,empathy_intonation_perc,2024.2.4,MacIntel,60.24096386,6649f870ed4a6b0016a6086a,687ed1b7e638a4cbf2f02089,688070805f635c2c6631a54c,,,,,,,,,,,,,16,1,,./stim/wavs/mexican_match_interrogative-total-yn_Emilio-ama-la-marcha.wav,,,,,,,,,,,,,,,,,,,,,,270.7572,272.9728,1,1,1.6865,,0,30,30,15,1,0,mexican,,,,,,,,,,,,,,,,,,,,,,,,,,,,,,,,,,,,,,,,,,,,,,,,,,,,,,,,
,,,,,,,,,6649f870ed4a6b0016a6086a,Spanish,13 or older,"no, only English or Spanish",no,2025-07-23_01h18.59.676,empathy_intonation_perc,2024.2.4,MacIntel,60.24096386,6649f870ed4a6b0016a6086a,687ed1b7e638a4cbf2f02089,688070805f635c2c6631a54c,,,,,,,,,,,,,81,0,,./stim/wavs/mexican_mismatch_declarative-broad-focus_La-maestra-vive-en-Paris.wav,,,,,,,,,,,,,,,,,,,,,,272.9735,275.0896,0,1,1.5851,,0,31,31,80,1,0,mexican,,,,,,,,,,,,,,,,,,,,,,,,,,,,,,,,,,,,,,,,,,,,,,,,,,,,,,,,
,,,,,,,,,6649f870ed4a6b0016a6086a,Spanish,13 or older,"no, only English or Spanish",no,2025-07-23_01h18.59.676,empathy_intonation_perc,2024.2.4,MacIntel,60.24096386,6649f870ed4a6b0016a6086a,687ed1b7e638a4cbf2f02089,688070805f635c2c6631a54c,,,,,,,,,,,,,18,1,,./stim/wavs/mexican_match_interrogative-total-yn_Marta-abre-el-regalo.wav,,,,,,,,,,,,,,,,,,,,,,275.0903,277.2228,1,1,1.6118,,0,32,32,17,1,0,mexican,,,,,,,,,,,,,,,,,,,,,,,,,,,,,,,,,,,,,,,,,,,,,,,,,,,,,,,,
,,,,,,,,,6649f870ed4a6b0016a6086a,Spanish,13 or older,"no, only English or Spanish",no,2025-07-23_01h18.59.676,empathy_intonation_perc,2024.2.4,MacIntel,60.24096386,6649f870ed4a6b0016a6086a,687ed1b7e638a4cbf2f02089,688070805f635c2c6631a54c,,,,,,,,,,,,,15,1,,./stim/wavs/mexican_match_interrogative-total-yn_David-leia-el-libro.wav,,,,,,,,,,,,,,,,,,,,,,277.2236,279.3562,1,1,1.6014,,0,33,33,14,1,0,mexican,,,,,,,,,,,,,,,,,,,,,,,,,,,,,,,,,,,,,,,,,,,,,,,,,,,,,,,,
,,,,,,,,,6649f870ed4a6b0016a6086a,Spanish,13 or older,"no, only English or Spanish",no,2025-07-23_01h18.59.676,empathy_intonation_perc,2024.2.4,MacIntel,60.24096386,6649f870ed4a6b0016a6086a,687ed1b7e638a4cbf2f02089,688070805f635c2c6631a54c,,,,,,,,,,,,,46,0,,./stim/wavs/castilian_match_declarative-broad-focus_Emilio-ama-la-marcha.wav,,,,,,,,,,,,,,,,,,,,,,279.3572,281.6392,0,1,1.7486,,0,34,34,45,1,0,castilian,,,,,,,,,,,,,,,,,,,,,,,,,,,,,,,,,,,,,,,,,,,,,,,,,,,,,,,,
,,,,,,,,,6649f870ed4a6b0016a6086a,Spanish,13 or older,"no, only English or Spanish",no,2025-07-23_01h18.59.676,empathy_intonation_perc,2024.2.4,MacIntel,60.24096386,6649f870ed4a6b0016a6086a,687ed1b7e638a4cbf2f02089,688070805f635c2c6631a54c,,,,,,,,,,,,,47,0,,./stim/wavs/castilian_match_declarative-broad-focus_Manuela-vende-el-carro.wav,,,,,,,,,,,,,,,,,,,,,,281.6394,283.7897,0,1,1.6326,,0,35,35,46,1,0,castilian,,,,,,,,,,,,,,,,,,,,,,,,,,,,,,,,,,,,,,,,,,,,,,,,,,,,,,,,
,,,,,,,,,6649f870ed4a6b0016a6086a,Spanish,13 or older,"no, only English or Spanish",no,2025-07-23_01h18.59.676,empathy_intonation_perc,2024.2.4,MacIntel,60.24096386,6649f870ed4a6b0016a6086a,687ed1b7e638a4cbf2f02089,688070805f635c2c6631a54c,,,,,,,,,,,,,48,0,,./stim/wavs/castilian_match_declarative-broad-focus_Maria-bebe-el-vino.wav,,,,,,,,,,,,,,,,,,,,,,283.7904,285.7896,0,1,1.4728,,0,36,36,47,1,0,castilian,,,,,,,,,,,,,,,,,,,,,,,,,,,,,,,,,,,,,,,,,,,,,,,,,,,,,,,,
,,,,,,,,,6649f870ed4a6b0016a6086a,Spanish,13 or older,"no, only English or Spanish",no,2025-07-23_01h18.59.676,empathy_intonation_perc,2024.2.4,MacIntel,60.24096386,6649f870ed4a6b0016a6086a,687ed1b7e638a4cbf2f02089,688070805f635c2c6631a54c,,,,,,,,,,,,,19,1,,./stim/wavs/puertorican_match_interrogative-total-yn_Ana-lleva-el-abrigo.wav,,,,,,,,,,,,,,,,,,,,,,285.7903,287.7565,0,0,1.4375,,0,37,37,18,1,1,puertorican,,,,,,,,,,,,,,,,,,,,,,,,,,,,,,,,,,,,,,,,,,,,,,,,,,,,,,,,
,,,,,,,,,6649f870ed4a6b0016a6086a,Spanish,13 or older,"no, only English or Spanish",no,2025-07-23_01h18.59.676,empathy_intonation_perc,2024.2.4,MacIntel,60.24096386,6649f870ed4a6b0016a6086a,687ed1b7e638a4cbf2f02089,688070805f635c2c6631a54c,,,,,,,,,,,,,8,1,,./stim/wavs/cuban_match_interrogative-total-yn_Daniel-iba-a-Bolivia.wav,,,,,,,,,,,,,,,,,,,,,,287.7573,290.0222,0,0,1.7356,,0,38,38,7,1,1,cuban,,,,,,,,,,,,,,,,,,,,,,,,,,,,,,,,,,,,,,,,,,,,,,,,,,,,,,,,
,,,,,,,,,6649f870ed4a6b0016a6086a,Spanish,13 or older,"no, only English or Spanish",no,2025-07-23_01h18.59.676,empathy_intonation_perc,2024.2.4,MacIntel,60.24096386,6649f870ed4a6b0016a6086a,687ed1b7e638a4cbf2f02089,688070805f635c2c6631a54c,,,,,,,,,,,,,40,1,,./stim/wavs/puertorican_mismatch_interrogative-total-yn_El-hombre-mira-la-luna.wav,,,,,,,,,,,,,,,,,,,,,,290.0228,292.2564,1,1,1.7222,,0,39,39,39,1,1,puertorican,,,,,,,,,,,,,,,,,,,,,,,,,,,,,,,,,,,,,,,,,,,,,,,,,,,,,,,,
,,,,,,,,,6649f870ed4a6b0016a6086a,Spanish,13 or older,"no, only English or Spanish",no,2025-07-23_01h18.59.676,empathy_intonation_perc,2024.2.4,MacIntel,60.24096386,6649f870ed4a6b0016a6086a,687ed1b7e638a4cbf2f02089,688070805f635c2c6631a54c,,,,,,,,,,,,,26,1,,./stim/wavs/castilian_mismatch_interrogative-total-yn_La-nina-lava-el-plato.wav,,,,,,,,,,,,,,,,,,,,,,292.2572,294.8399,1,1,2.0504,,0,40,40,25,1,0,castilian,,,,,,,,,,,,,,,,,,,,,,,,,,,,,,,,,,,,,,,,,,,,,,,,,,,,,,,,
,,,,,,,,,6649f870ed4a6b0016a6086a,Spanish,13 or older,"no, only English or Spanish",no,2025-07-23_01h18.59.676,empathy_intonation_perc,2024.2.4,MacIntel,60.24096386,6649f870ed4a6b0016a6086a,687ed1b7e638a4cbf2f02089,688070805f635c2c6631a54c,,,,,,,,,,,,,31,1,,./stim/wavs/cuban_mismatch_interrogative-total-yn_El-nino-oye-el-rio.wav,,,,,,,,,,,,,,,,,,,,,,294.8405,296.7231,0,0,1.3492,,0,41,41,30,1,1,cuban,,,,,,,,,,,,,,,,,,,,,,,,,,,,,,,,,,,,,,,,,,,,,,,,,,,,,,,,
,,,,,,,,,6649f870ed4a6b0016a6086a,Spanish,13 or older,"no, only English or Spanish",no,2025-07-23_01h18.59.676,empathy_intonation_perc,2024.2.4,MacIntel,60.24096386,6649f870ed4a6b0016a6086a,687ed1b7e638a4cbf2f02089,688070805f635c2c6631a54c,,,,,,,,,,,,,59,0,,./stim/wavs/mexican_match_declarative-broad-focus_David-leia-el-libro.wav,,,,,,,,,,,,,,,,,,,,,,296.7239,298.674,0,1,1.4301,,0,42,42,58,1,0,mexican,,,,,,,,,,,,,,,,,,,,,,,,,,,,,,,,,,,,,,,,,,,,,,,,,,,,,,,,
,,,,,,,,,6649f870ed4a6b0016a6086a,Spanish,13 or older,"no, only English or Spanish",no,2025-07-23_01h18.59.676,empathy_intonation_perc,2024.2.4,MacIntel,60.24096386,6649f870ed4a6b0016a6086a,687ed1b7e638a4cbf2f02089,688070805f635c2c6631a54c,,,,,,,,,,,,,56,0,,./stim/wavs/cuban_match_declarative-broad-focus_Marta-abre-el-regalo.wav,,,,,,,,,,,,,,,,,,,,,,298.6745,300.7238,0,1,1.5293,,0,43,43,55,1,0,cuban,,,,,,,,,,,,,,,,,,,,,,,,,,,,,,,,,,,,,,,,,,,,,,,,,,,,,,,,
,,,,,,,,,6649f870ed4a6b0016a6086a,Spanish,13 or older,"no, only English or Spanish",no,2025-07-23_01h18.59.676,empathy_intonation_perc,2024.2.4,MacIntel,60.24096386,6649f870ed4a6b0016a6086a,687ed1b7e638a4cbf2f02089,688070805f635c2c6631a54c,,,,,,,,,,,,,7,1,,./stim/wavs/cuban_match_interrogative-total-yn_Ana-lleva-el-abrigo.wav,,,,,,,,,,,,,,,,,,,,,,300.7245,302.6397,0,0,1.3962,,0,44,44,6,1,1,cuban,,,,,,,,,,,,,,,,,,,,,,,,,,,,,,,,,,,,,,,,,,,,,,,,,,,,,,,,
,,,,,,,,,6649f870ed4a6b0016a6086a,Spanish,13 or older,"no, only English or Spanish",no,2025-07-23_01h18.59.676,empathy_intonation_perc,2024.2.4,MacIntel,60.24096386,6649f870ed4a6b0016a6086a,687ed1b7e638a4cbf2f02089,688070805f635c2c6631a54c,,,,,,,,,,,,,79,0,,./stim/wavs/mexican_mismatch_declarative-broad-focus_El-bebe-comia-muy-bien.wav,,,,,,,,,,,,,,,,,,,,,,302.6403,304.706,0,1,1.534,,0,45,45,78,1,0,mexican,,,,,,,,,,,,,,,,,,,,,,,,,,,,,,,,,,,,,,,,,,,,,,,,,,,,,,,,
,,,,,,,,,6649f870ed4a6b0016a6086a,Spanish,13 or older,"no, only English or Spanish",no,2025-07-23_01h18.59.676,empathy_intonation_perc,2024.2.4,MacIntel,60.24096386,6649f870ed4a6b0016a6086a,687ed1b7e638a4cbf2f02089,688070805f635c2c6631a54c,,,,,,,,,,,,,61,0,,./stim/wavs/mexican_match_declarative-broad-focus_Mariano-habla-del-tiempo.wav,,,,,,,,,,,,,,,,,,,,,,304.7068,306.6234,0,1,1.4051,,0,46,46,60,1,0,mexican,,,,,,,,,,,,,,,,,,,,,,,,,,,,,,,,,,,,,,,,,,,,,,,,,,,,,,,,
,,,,,,,,,6649f870ed4a6b0016a6086a,Spanish,13 or older,"no, only English or Spanish",no,2025-07-23_01h18.59.676,empathy_intonation_perc,2024.2.4,MacIntel,60.24096386,6649f870ed4a6b0016a6086a,687ed1b7e638a4cbf2f02089,688070805f635c2c6631a54c,,,,,,,,,,,,,12,1,,./stim/wavs/cuban_match_interrogative-total-yn_Marta-abre-el-regalo.wav,,,,,,,,,,,,,,,,,,,,,,306.624,308.5235,0,0,1.3795,,0,47,47,11,1,1,cuban,,,,,,,,,,,,,,,,,,,,,,,,,,,,,,,,,,,,,,,,,,,,,,,,,,,,,,,,
,,,,,,,,,6649f870ed4a6b0016a6086a,Spanish,13 or older,"no, only English or Spanish",no,2025-07-23_01h18.59.676,empathy_intonation_perc,2024.2.4,MacIntel,60.24096386,6649f870ed4a6b0016a6086a,687ed1b7e638a4cbf2f02089,688070805f635c2c6631a54c,,,,,,,,,,,,,86,0,,./stim/wavs/puertorican_mismatch_declarative-broad-focus_El-nino-oye-el-rio.wav,,,,,,,,,,,,,,,,,,,,,,308.5244,310.5059,0,1,1.4559,,0,48,48,85,1,0,puertorican,,,,,,,,,,,,,,,,,,,,,,,,,,,,,,,,,,,,,,,,,,,,,,,,,,,,,,,,
,,,,,,,,,6649f870ed4a6b0016a6086a,Spanish,13 or older,"no, only English or Spanish",no,2025-07-23_01h18.59.676,empathy_intonation_perc,2024.2.4,MacIntel,60.24096386,6649f870ed4a6b0016a6086a,687ed1b7e638a4cbf2f02089,688070805f635c2c6631a54c,,,,,,,,,,,,,69,0,,./stim/wavs/castilian_mismatch_declarative-broad-focus_El-nino-oye-el-rio.wav,,,,,,,,,,,,,,,,,,,,,,310.5065,312.5892,0,1,1.5773,,0,49,49,68,1,0,castilian,,,,,,,,,,,,,,,,,,,,,,,,,,,,,,,,,,,,,,,,,,,,,,,,,,,,,,,,
,,,,,,,,,6649f870ed4a6b0016a6086a,Spanish,13 or older,"no, only English or Spanish",no,2025-07-23_01h18.59.676,empathy_intonation_perc,2024.2.4,MacIntel,60.24096386,6649f870ed4a6b0016a6086a,687ed1b7e638a4cbf2f02089,688070805f635c2c6631a54c,,,,,,,,,,,,,49,0,,./stim/wavs/castilian_match_declarative-broad-focus_Mariano-habla-del-tiempo.wav,,,,,,,,,,,,,,,,,,,,,,312.5899,314.8736,0,1,1.7678,,0,50,50,48,1,0,castilian,,,,,,,,,,,,,,,,,,,,,,,,,,,,,,,,,,,,,,,,,,,,,,,,,,,,,,,,
,,,,,,,,,6649f870ed4a6b0016a6086a,Spanish,13 or older,"no, only English or Spanish",no,2025-07-23_01h18.59.676,empathy_intonation_perc,2024.2.4,MacIntel,60.24096386,6649f870ed4a6b0016a6086a,687ed1b7e638a4cbf2f02089,688070805f635c2c6631a54c,,,,,,,,,,,,,20,1,,./stim/wavs/puertorican_match_interrogative-total-yn_Daniel-iba-a-Bolivia.wav,,,,,,,,,,,,,,,,,,,,,,314.8743,317.157,0,0,1.75,,0,51,51,19,1,1,puertorican,,,,,,,,,,,,,,,,,,,,,,,,,,,,,,,,,,,,,,,,,,,,,,,,,,,,,,,,
,,,,,,,,,6649f870ed4a6b0016a6086a,Spanish,13 or older,"no, only English or Spanish",no,2025-07-23_01h18.59.676,empathy_intonation_perc,2024.2.4,MacIntel,60.24096386,6649f870ed4a6b0016a6086a,687ed1b7e638a4cbf2f02089,688070805f635c2c6631a54c,,,,,,,,,,,,,60,0,,./stim/wavs/mexican_match_declarative-broad-focus_Emilio-ama-la-marcha.wav,,,,,,,,,,,,,,,,,,,,,,317.1576,319.3736,0,1,1.6837,,0,52,52,59,1,0,mexican,,,,,,,,,,,,,,,,,,,,,,,,,,,,,,,,,,,,,,,,,,,,,,,,,,,,,,,,
,,,,,,,,,6649f870ed4a6b0016a6086a,Spanish,13 or older,"no, only English or Spanish",no,2025-07-23_01h18.59.676,empathy_intonation_perc,2024.2.4,MacIntel,60.24096386,6649f870ed4a6b0016a6086a,687ed1b7e638a4cbf2f02089,688070805f635c2c6631a54c,,,,,,,,,,,,,17,1,,./stim/wavs/mexican_match_interrogative-total-yn_Mariano-habla-del-tiempo.wav,,,,,,,,,,,,,,,,,,,,,,319.3743,321.557,1,1,1.6503,,0,53,53,16,1,0,mexican,,,,,,,,,,,,,,,,,,,,,,,,,,,,,,,,,,,,,,,,,,,,,,,,,,,,,,,,
,,,,,,,,,6649f870ed4a6b0016a6086a,Spanish,13 or older,"no, only English or Spanish",no,2025-07-23_01h18.59.676,empathy_intonation_perc,2024.2.4,MacIntel,60.24096386,6649f870ed4a6b0016a6086a,687ed1b7e638a4cbf2f02089,688070805f635c2c6631a54c,,,,,,,,,,,,,52,0,,./stim/wavs/cuban_match_declarative-broad-focus_Daniel-iba-a-Bolivia.wav,,,,,,,,,,,,,,,,,,,,,,321.5578,323.8395,0,1,1.7505,,0,54,54,51,1,0,cuban,,,,,,,,,,,,,,,,,,,,,,,,,,,,,,,,,,,,,,,,,,,,,,,,,,,,,,,,
,,,,,,,,,6649f870ed4a6b0016a6086a,Spanish,13 or older,"no, only English or Spanish",no,2025-07-23_01h18.59.676,empathy_intonation_perc,2024.2.4,MacIntel,60.24096386,6649f870ed4a6b0016a6086a,687ed1b7e638a4cbf2f02089,688070805f635c2c6631a54c,,,,,,,,,,,,,41,1,,./stim/wavs/puertorican_mismatch_interrogative-total-yn_El-nino-oye-el-rio.wav,,,,,,,,,,,,,,,,,,,,,,323.8403,325.9728,0,0,1.6275,,0,55,55,40,1,1,puertorican,,,,,,,,,,,,,,,,,,,,,,,,,,,,,,,,,,,,,,,,,,,,,,,,,,,,,,,,
,,,,,,,,,6649f870ed4a6b0016a6086a,Spanish,13 or older,"no, only English or Spanish",no,2025-07-23_01h18.59.676,empathy_intonation_perc,2024.2.4,MacIntel,60.24096386,6649f870ed4a6b0016a6086a,687ed1b7e638a4cbf2f02089,688070805f635c2c6631a54c,,,,,,,,,,,,,87,0,,./stim/wavs/puertorican_mismatch_declarative-broad-focus_La-maestra-vive-en-Paris.wav,,,,,,,,,,,,,,,,,,,,,,325.9735,328.3905,0,1,1.8997,,0,56,56,86,1,0,puertorican,,,,,,,,,,,,,,,,,,,,,,,,,,,,,,,,,,,,,,,,,,,,,,,,,,,,,,,,
,,,,,,,,,6649f870ed4a6b0016a6086a,Spanish,13 or older,"no, only English or Spanish",no,2025-07-23_01h18.59.676,empathy_intonation_perc,2024.2.4,MacIntel,60.24096386,6649f870ed4a6b0016a6086a,687ed1b7e638a4cbf2f02089,688070805f635c2c6631a54c,,,,,,,,,,,,,66,0,,./stim/wavs/puertorican_match_declarative-broad-focus_Emilio-ama-la-marcha.wav,,,,,,,,,,,,,,,,,,,,,,328.3914,330.3906,0,1,1.4665,,0,57,57,65,1,0,puertorican,,,,,,,,,,,,,,,,,,,,,,,,,,,,,,,,,,,,,,,,,,,,,,,,,,,,,,,,
,,,,,,,,,6649f870ed4a6b0016a6086a,Spanish,13 or older,"no, only English or Spanish",no,2025-07-23_01h18.59.676,empathy_intonation_perc,2024.2.4,MacIntel,60.24096386,6649f870ed4a6b0016a6086a,687ed1b7e638a4cbf2f02089,688070805f635c2c6631a54c,,,,,,,,,,,,,27,1,,./stim/wavs/castilian_mismatch_interrogative-total-yn_Mi-madre-come-la-fruta.wav,,,,,,,,,,,,,,,,,,,,,,330.3913,332.7729,1,1,1.8561,,0,58,58,26,1,0,castilian,,,,,,,,,,,,,,,,,,,,,,,,,,,,,,,,,,,,,,,,,,,,,,,,,,,,,,,,
,,,,,,,,,6649f870ed4a6b0016a6086a,Spanish,13 or older,"no, only English or Spanish",no,2025-07-23_01h18.59.676,empathy_intonation_perc,2024.2.4,MacIntel,60.24096386,6649f870ed4a6b0016a6086a,687ed1b7e638a4cbf2f02089,688070805f635c2c6631a54c,,,,,,,,,,,,,30,1,,./stim/wavs/cuban_mismatch_interrogative-total-yn_El-hombre-mira-la-luna.wav,,,,,,,,,,,,,,,,,,,,,,332.7736,334.8564,0,0,1.5668,,0,59,59,29,1,1,cuban,,,,,,,,,,,,,,,,,,,,,,,,,,,,,,,,,,,,,,,,,,,,,,,,,,,,,,,,
,,,,,,,,,6649f870ed4a6b0016a6086a,Spanish,13 or older,"no, only English or Spanish",no,2025-07-23_01h18.59.676,empathy_intonation_perc,2024.2.4,MacIntel,60.24096386,6649f870ed4a6b0016a6086a,687ed1b7e638a4cbf2f02089,688070805f635c2c6631a54c,,,,,,,,,,,,,83,0,,./stim/wavs/mexican_mismatch_declarative-broad-focus_Mi-tia-odia-la-lluvia.wav,,,,,,,,,,,,,,,,,,,,,,334.8573,336.7232,0,1,1.3506,,0,60,60,82,1,0,mexican,,,,,,,,,,,,,,,,,,,,,,,,,,,,,,,,,,,,,,,,,,,,,,,,,,,,,,,,
,,,,,,,,,6649f870ed4a6b0016a6086a,Spanish,13 or older,"no, only English or Spanish",no,2025-07-23_01h18.59.676,empathy_intonation_perc,2024.2.4,MacIntel,60.24096386,6649f870ed4a6b0016a6086a,687ed1b7e638a4cbf2f02089,688070805f635c2c6631a54c,,,,,,,,,,,,,35,1,,./stim/wavs/mexican_mismatch_interrogative-total-yn_El-hombre-mira-la-luna.wav,,,,,,,,,,,,,,,,,,,,,,336.7242,338.8571,1,1,1.6155,,0,61,61,34,1,0,mexican,,,,,,,,,,,,,,,,,,,,,,,,,,,,,,,,,,,,,,,,,,,,,,,,,,,,,,,,
,,,,,,,,,6649f870ed4a6b0016a6086a,Spanish,13 or older,"no, only English or Spanish",no,2025-07-23_01h18.59.676,empathy_intonation_perc,2024.2.4,MacIntel,60.24096386,6649f870ed4a6b0016a6086a,687ed1b7e638a4cbf2f02089,688070805f635c2c6631a54c,,,,,,,,,,,,,58,0,,./stim/wavs/mexican_match_declarative-broad-focus_Daniel-iba-a-Bolivia.wav,,,,,,,,,,,,,,,,,,,,,,338.8578,340.7247,0,1,1.3461,,0,62,62,57,1,0,mexican,,,,,,,,,,,,,,,,,,,,,,,,,,,,,,,,,,,,,,,,,,,,,,,,,,,,,,,,
,,,,,,,,,6649f870ed4a6b0016a6086a,Spanish,13 or older,"no, only English or Spanish",no,2025-07-23_01h18.59.676,empathy_intonation_perc,2024.2.4,MacIntel,60.24096386,6649f870ed4a6b0016a6086a,687ed1b7e638a4cbf2f02089,688070805f635c2c6631a54c,,,,,,,,,,,,,37,1,,./stim/wavs/mexican_mismatch_interrogative-total-yn_La-maestra-vive-en-Paris.wav,,,,,,,,,,,,,,,,,,,,,,340.7255,342.9569,1,1,1.7055,,0,63,63,36,1,0,mexican,,,,,,,,,,,,,,,,,,,,,,,,,,,,,,,,,,,,,,,,,,,,,,,,,,,,,,,,
,,,,,,,,,6649f870ed4a6b0016a6086a,Spanish,13 or older,"no, only English or Spanish",no,2025-07-23_01h18.59.676,empathy_intonation_perc,2024.2.4,MacIntel,60.24096386,6649f870ed4a6b0016a6086a,687ed1b7e638a4cbf2f02089,688070805f635c2c6631a54c,,,,,,,,,,,,,72,0,,./stim/wavs/castilian_mismatch_declarative-broad-focus_Mi-novio-viene-del-lago.wav,,,,,,,,,,,,,,,,,,,,,,342.9576,345.273,0,1,1.7928,,0,64,64,71,1,0,castilian,,,,,,,,,,,,,,,,,,,,,,,,,,,,,,,,,,,,,,,,,,,,,,,,,,,,,,,,
,,,,,,,,,6649f870ed4a6b0016a6086a,Spanish,13 or older,"no, only English or Spanish",no,2025-07-23_01h18.59.676,empathy_intonation_perc,2024.2.4,MacIntel,60.24096386,6649f870ed4a6b0016a6086a,687ed1b7e638a4cbf2f02089,688070805f635c2c6631a54c,,,,,,,,,,,,,36,1,,./stim/wavs/mexican_mismatch_interrogative-total-yn_El-nino-oye-el-rio.wav,,,,,,,,,,,,,,,,,,,,,,345.2736,347.3909,1,1,1.6005,,0,65,65,35,1,0,mexican,,,,,,,,,,,,,,,,,,,,,,,,,,,,,,,,,,,,,,,,,,,,,,,,,,,,,,,,
,,,,,,,,,6649f870ed4a6b0016a6086a,Spanish,13 or older,"no, only English or Spanish",no,2025-07-23_01h18.59.676,empathy_intonation_perc,2024.2.4,MacIntel,60.24096386,6649f870ed4a6b0016a6086a,687ed1b7e638a4cbf2f02089,688070805f635c2c6631a54c,,,,,,,,,,,,,44,1,,./stim/wavs/puertorican_mismatch_interrogative-total-yn_Mi-madre-come-la-fruta.wav,,,,,,,,,,,,,,,,,,,,,,347.3917,349.5575,0,0,1.6336,,0,66,66,43,1,1,puertorican,,,,,,,,,,,,,,,,,,,,,,,,,,,,,,,,,,,,,,,,,,,,,,,,,,,,,,,,
,,,,,,,,,6649f870ed4a6b0016a6086a,Spanish,13 or older,"no, only English or Spanish",no,2025-07-23_01h18.59.676,empathy_intonation_perc,2024.2.4,MacIntel,60.24096386,6649f870ed4a6b0016a6086a,687ed1b7e638a4cbf2f02089,688070805f635c2c6631a54c,,,,,,,,,,,,,51,0,,./stim/wavs/cuban_match_declarative-broad-focus_Ana-lleva-el-abrigo.wav,,,,,,,,,,,,,,,,,,,,,,349.5582,351.4734,0,1,1.3857,,0,67,67,50,1,0,cuban,,,,,,,,,,,,,,,,,,,,,,,,,,,,,,,,,,,,,,,,,,,,,,,,,,,,,,,,
,,,,,,,,,6649f870ed4a6b0016a6086a,Spanish,13 or older,"no, only English or Spanish",no,2025-07-23_01h18.59.676,empathy_intonation_perc,2024.2.4,MacIntel,60.24096386,6649f870ed4a6b0016a6086a,687ed1b7e638a4cbf2f02089,688070805f635c2c6631a54c,,,,,,,,,,,,,10,1,,./stim/wavs/cuban_match_interrogative-total-yn_Maria-bebe-el-vino.wav,,,,,,,,,,,,,,,,,,,,,,351.4741,353.5576,0,0,1.5707,,0,68,68,9,1,1,cuban,,,,,,,,,,,,,,,,,,,,,,,,,,,,,,,,,,,,,,,,,,,,,,,,,,,,,,,,
,,,,,,,,,6649f870ed4a6b0016a6086a,Spanish,13 or older,"no, only English or Spanish",no,2025-07-23_01h18.59.676,empathy_intonation_perc,2024.2.4,MacIntel,60.24096386,6649f870ed4a6b0016a6086a,687ed1b7e638a4cbf2f02089,688070805f635c2c6631a54c,,,,,,,,,,,,,64,0,,./stim/wavs/puertorican_match_declarative-broad-focus_Daniel-iba-a-Bolivia.wav,,,,,,,,,,,,,,,,,,,,,,353.5582,355.6577,0,1,1.5788,,0,69,69,63,1,0,puertorican,,,,,,,,,,,,,,,,,,,,,,,,,,,,,,,,,,,,,,,,,,,,,,,,,,,,,,,,
,,,,,,,,,6649f870ed4a6b0016a6086a,Spanish,13 or older,"no, only English or Spanish",no,2025-07-23_01h18.59.676,empathy_intonation_perc,2024.2.4,MacIntel,60.24096386,6649f870ed4a6b0016a6086a,687ed1b7e638a4cbf2f02089,688070805f635c2c6631a54c,,,,,,,,,,,,,5,1,,./stim/wavs/castilian_match_interrogative-total-yn_Mariano-habla-del-tiempo.wav,,,,,,,,,,,,,,,,,,,,,,355.6583,358.0577,1,1,1.879,,0,70,70,4,1,0,castilian,,,,,,,,,,,,,,,,,,,,,,,,,,,,,,,,,,,,,,,,,,,,,,,,,,,,,,,,
,,,,,,,,,6649f870ed4a6b0016a6086a,Spanish,13 or older,"no, only English or Spanish",no,2025-07-23_01h18.59.676,empathy_intonation_perc,2024.2.4,MacIntel,60.24096386,6649f870ed4a6b0016a6086a,687ed1b7e638a4cbf2f02089,688070805f635c2c6631a54c,,,,,,,,,,,,,53,0,,./stim/wavs/cuban_match_declarative-broad-focus_Manuela-vende-el-carro.wav,,,,,,,,,,,,,,,,,,,,,,358.0585,360.1904,0,1,1.6001,,0,71,71,52,1,0,cuban,,,,,,,,,,,,,,,,,,,,,,,,,,,,,,,,,,,,,,,,,,,,,,,,,,,,,,,,
,,,,,,,,,6649f870ed4a6b0016a6086a,Spanish,13 or older,"no, only English or Spanish",no,2025-07-23_01h18.59.676,empathy_intonation_perc,2024.2.4,MacIntel,60.24096386,6649f870ed4a6b0016a6086a,687ed1b7e638a4cbf2f02089,688070805f635c2c6631a54c,,,,,,,,,,,,,84,0,,./stim/wavs/puertorican_mismatch_declarative-broad-focus_El-bebe-comia-muy-bien.wav,,,,,,,,,,,,,,,,,,,,,,360.1913,362.4411,0,1,1.7166,,0,72,72,83,1,0,puertorican,,,,,,,,,,,,,,,,,,,,,,,,,,,,,,,,,,,,,,,,,,,,,,,,,,,,,,,,
,,,,,,,,,6649f870ed4a6b0016a6086a,Spanish,13 or older,"no, only English or Spanish",no,2025-07-23_01h18.59.676,empathy_intonation_perc,2024.2.4,MacIntel,60.24096386,6649f870ed4a6b0016a6086a,687ed1b7e638a4cbf2f02089,688070805f635c2c6631a54c,,,,,,,,,,,,,63,0,,./stim/wavs/puertorican_match_declarative-broad-focus_Ana-lleva-el-abrigo.wav,,,,,,,,,,,,,,,,,,,,,,362.4418,364.2741,0,1,1.3103,,0,73,73,62,1,0,puertorican,,,,,,,,,,,,,,,,,,,,,,,,,,,,,,,,,,,,,,,,,,,,,,,,,,,,,,,,
,,,,,,,,,6649f870ed4a6b0016a6086a,Spanish,13 or older,"no, only English or Spanish",no,2025-07-23_01h18.59.676,empathy_intonation_perc,2024.2.4,MacIntel,60.24096386,6649f870ed4a6b0016a6086a,687ed1b7e638a4cbf2f02089,688070805f635c2c6631a54c,,,,,,,,,,,,,80,0,,./stim/wavs/mexican_mismatch_declarative-broad-focus_El-hombre-mira-la-luna.wav,,,,,,,,,,,,,,,,,,,,,,364.2743,366.1581,0,1,1.3514,,0,74,74,79,1,0,mexican,,,,,,,,,,,,,,,,,,,,,,,,,,,,,,,,,,,,,,,,,,,,,,,,,,,,,,,,
,,,,,,,,,6649f870ed4a6b0016a6086a,Spanish,13 or older,"no, only English or Spanish",no,2025-07-23_01h18.59.676,empathy_intonation_perc,2024.2.4,MacIntel,60.24096386,6649f870ed4a6b0016a6086a,687ed1b7e638a4cbf2f02089,688070805f635c2c6631a54c,,,,,,,,,,,,,24,1,,./stim/wavs/puertorican_match_interrogative-total-yn_Maria-bebe-el-vino.wav,,,,,,,,,,,,,,,,,,,,,,366.159,368.0747,0,0,1.3869,,0,75,75,23,1,1,puertorican,,,,,,,,,,,,,,,,,,,,,,,,,,,,,,,,,,,,,,,,,,,,,,,,,,,,,,,,
,,,,,,,,,6649f870ed4a6b0016a6086a,Spanish,13 or older,"no, only English or Spanish",no,2025-07-23_01h18.59.676,empathy_intonation_perc,2024.2.4,MacIntel,60.24096386,6649f870ed4a6b0016a6086a,687ed1b7e638a4cbf2f02089,688070805f635c2c6631a54c,,,,,,,,,,,,,62,0,,./stim/wavs/mexican_match_declarative-broad-focus_Marta-abre-el-regalo.wav,,,,,,,,,,,,,,,,,,,,,,368.0752,370.4747,0,1,1.867,,0,76,76,61,1,0,mexican,,,,,,,,,,,,,,,,,,,,,,,,,,,,,,,,,,,,,,,,,,,,,,,,,,,,,,,,
,,,,,,,,,6649f870ed4a6b0016a6086a,Spanish,13 or older,"no, only English or Spanish",no,2025-07-23_01h18.59.676,empathy_intonation_perc,2024.2.4,MacIntel,60.24096386,6649f870ed4a6b0016a6086a,687ed1b7e638a4cbf2f02089,688070805f635c2c6631a54c,,,,,,,,,,,,,2,1,,./stim/wavs/castilian_match_interrogative-total-yn_Emilio-ama-la-marcha.wav,,,,,,,,,,,,,,,,,,,,,,370.4755,372.658,1,1,1.6604,,0,77,77,1,1,0,castilian,,,,,,,,,,,,,,,,,,,,,,,,,,,,,,,,,,,,,,,,,,,,,,,,,,,,,,,,
,,,,,,,,,6649f870ed4a6b0016a6086a,Spanish,13 or older,"no, only English or Spanish",no,2025-07-23_01h18.59.676,empathy_intonation_perc,2024.2.4,MacIntel,60.24096386,6649f870ed4a6b0016a6086a,687ed1b7e638a4cbf2f02089,688070805f635c2c6631a54c,,,,,,,,,,,,,88,0,,./stim/wavs/puertorican_mismatch_declarative-broad-focus_La-nina-lava-el-plato.wav,,,,,,,,,,,,,,,,,,,,,,372.6586,374.6577,0,1,1.4751,,0,78,78,87,1,0,puertorican,,,,,,,,,,,,,,,,,,,,,,,,,,,,,,,,,,,,,,,,,,,,,,,,,,,,,,,,
,,,,,,,,,6649f870ed4a6b0016a6086a,Spanish,13 or older,"no, only English or Spanish",no,2025-07-23_01h18.59.676,empathy_intonation_perc,2024.2.4,MacIntel,60.24096386,6649f870ed4a6b0016a6086a,687ed1b7e638a4cbf2f02089,688070805f635c2c6631a54c,,,,,,,,,,,,,14,1,,./stim/wavs/mexican_match_interrogative-total-yn_Daniel-iba-a-Bolivia.wav,,,,,,,,,,,,,,,,,,,,,,374.6582,376.7578,1,1,1.5671,,0,79,79,13,1,0,mexican,,,,,,,,,,,,,,,,,,,,,,,,,,,,,,,,,,,,,,,,,,,,,,,,,,,,,,,,
,,,,,,,,,6649f870ed4a6b0016a6086a,Spanish,13 or older,"no, only English or Spanish",no,2025-07-23_01h18.59.676,empathy_intonation_perc,2024.2.4,MacIntel,60.24096386,6649f870ed4a6b0016a6086a,687ed1b7e638a4cbf2f02089,688070805f635c2c6631a54c,,,,,,,,,,,,,13,1,,./stim/wavs/mexican_match_interrogative-total-yn_Ana-lleva-el-abrigo.wav,,,,,,,,,,,,,,,,,,,,,,376.758,378.6748,1,1,1.3946,,0,80,80,12,1,0,mexican,,,,,,,,,,,,,,,,,,,,,,,,,,,,,,,,,,,,,,,,,,,,,,,,,,,,,,,,
,,,,,,,,,6649f870ed4a6b0016a6086a,Spanish,13 or older,"no, only English or Spanish",no,2025-07-23_01h18.59.676,empathy_intonation_perc,2024.2.4,MacIntel,60.24096386,6649f870ed4a6b0016a6086a,687ed1b7e638a4cbf2f02089,688070805f635c2c6631a54c,,,,,,,,,,,,,76,0,,./stim/wavs/cuban_mismatch_declarative-broad-focus_La-nina-lava-el-plato.wav,,,,,,,,,,,,,,,,,,,,,,378.6754,380.6748,0,1,1.4668,,0,81,81,75,1,0,cuban,,,,,,,,,,,,,,,,,,,,,,,,,,,,,,,,,,,,,,,,,,,,,,,,,,,,,,,,
,,,,,,,,,6649f870ed4a6b0016a6086a,Spanish,13 or older,"no, only English or Spanish",no,2025-07-23_01h18.59.676,empathy_intonation_perc,2024.2.4,MacIntel,60.24096386,6649f870ed4a6b0016a6086a,687ed1b7e638a4cbf2f02089,688070805f635c2c6631a54c,,,,,,,,,,,,,54,0,,./stim/wavs/cuban_match_declarative-broad-focus_Maria-bebe-el-vino.wav,,,,,,,,,,,,,,,,,,,,,,380.6756,382.5916,0,1,1.3953,,0,82,82,53,1,0,cuban,,,,,,,,,,,,,,,,,,,,,,,,,,,,,,,,,,,,,,,,,,,,,,,,,,,,,,,,
,,,,,,,,,6649f870ed4a6b0016a6086a,Spanish,13 or older,"no, only English or Spanish",no,2025-07-23_01h18.59.676,empathy_intonation_perc,2024.2.4,MacIntel,60.24096386,6649f870ed4a6b0016a6086a,687ed1b7e638a4cbf2f02089,688070805f635c2c6631a54c,,,,,,,,,,,,,42,1,,./stim/wavs/puertorican_mismatch_interrogative-total-yn_La-maestra-vive-en-Paris.wav,,,,,,,,,,,,,,,,,,,,,,382.5923,384.7417,0,0,1.6188,,0,83,83,41,1,1,puertorican,,,,,,,,,,,,,,,,,,,,,,,,,,,,,,,,,,,,,,,,,,,,,,,,,,,,,,,,
,,,,,,,,,6649f870ed4a6b0016a6086a,Spanish,13 or older,"no, only English or Spanish",no,2025-07-23_01h18.59.676,empathy_intonation_perc,2024.2.4,MacIntel,60.24096386,6649f870ed4a6b0016a6086a,687ed1b7e638a4cbf2f02089,688070805f635c2c6631a54c,,,,,,,,,,,,,43,1,,./stim/wavs/puertorican_mismatch_interrogative-total-yn_La-nina-lava-el-plato.wav,,,,,,,,,,,,,,,,,,,,,,384.7424,386.5749,0,0,1.3052,,0,84,84,42,1,1,puertorican,,,,,,,,,,,,,,,,,,,,,,,,,,,,,,,,,,,,,,,,,,,,,,,,,,,,,,,,
,,,,,,,,,6649f870ed4a6b0016a6086a,Spanish,13 or older,"no, only English or Spanish",no,2025-07-23_01h18.59.676,empathy_intonation_perc,2024.2.4,MacIntel,60.24096386,6649f870ed4a6b0016a6086a,687ed1b7e638a4cbf2f02089,688070805f635c2c6631a54c,,,,,,,,,,,,,45,0,,./stim/wavs/castilian_match_declarative-broad-focus_David-leia-el-libro.wav,,,,,,,,,,,,,,,,,,,,,,386.5757,388.6583,0,1,1.5497,,0,85,85,44,1,0,castilian,,,,,,,,,,,,,,,,,,,,,,,,,,,,,,,,,,,,,,,,,,,,,,,,,,,,,,,,
,,,,,,,,,6649f870ed4a6b0016a6086a,Spanish,13 or older,"no, only English or Spanish",no,2025-07-23_01h18.59.676,empathy_intonation_perc,2024.2.4,MacIntel,60.24096386,6649f870ed4a6b0016a6086a,687ed1b7e638a4cbf2f02089,688070805f635c2c6631a54c,,,,,,,,,,,,,78,0,,./stim/wavs/cuban_mismatch_declarative-broad-focus_Mi-tia-odia-la-lluvia.wav,,,,,,,,,,,,,,,,,,,,,,388.659,390.7085,0,1,1.5171,,0,86,86,77,1,0,cuban,,,,,,,,,,,,,,,,,,,,,,,,,,,,,,,,,,,,,,,,,,,,,,,,,,,,,,,,
,,,,,,,,,6649f870ed4a6b0016a6086a,Spanish,13 or older,"no, only English or Spanish",no,2025-07-23_01h18.59.676,empathy_intonation_perc,2024.2.4,MacIntel,60.24096386,6649f870ed4a6b0016a6086a,687ed1b7e638a4cbf2f02089,688070805f635c2c6631a54c,,,,,,,,,,,,,34,1,,./stim/wavs/cuban_mismatch_interrogative-total-yn_Mi-tia-odia-la-lluvia.wav,,,,,,,,,,,,,,,,,,,,,,390.7093,393.0084,0,0,1.7689,,0,87,87,33,1,1,cuban,,,,,,,,,,,,,,,,,,,,,,,,,,,,,,,,,,,,,,,,,,,,,,,,,,,,,,,,
,,,,,,,"Great! Now we will move on. The next task consists of about 60 trials, in each of which you will see a string of letters. 
  
  Your task is to decide whether this is a real Spanish word or not.", (press the spacebar to continue),6649f870ed4a6b0016a6086a,Spanish,13 or older,"no, only English or Spanish",no,2025-07-23_01h18.59.676,empathy_intonation_perc,2024.2.4,MacIntel,60.24096386,6649f870ed4a6b0016a6086a,687ed1b7e638a4cbf2f02089,688070805f635c2c6631a54c,,,,,,,,,,,,,,,,,,,,,,,,,,,,,,,,,,,,,,,,,,,,,,,,,,,393.0148,398.3423,0,0,0,0,1,,,,,,,,,,,,,,,,,,,,,,,,,,,,,,,,,,,,,,,,,,,,,,,,,
,,,,,,,"If you think it is an existing Spanish word, you type '1' (for 'REAL'), and if you think it is not an existing Spanish word, you type '0' (for 'FAKE').", (press the spacebar to continue),6649f870ed4a6b0016a6086a,Spanish,13 or older,"no, only English or Spanish",no,2025-07-23_01h18.59.676,empathy_intonation_perc,2024.2.4,MacIntel,60.24096386,6649f870ed4a6b0016a6086a,687ed1b7e638a4cbf2f02089,688070805f635c2c6631a54c,,,,,,,,,,,,,,,,,,,,,,,,,,,,,,,,,,,,,,,,,,,,,,,,,,,398.3444,401.6261,0,1,1,1,1,,,,,,,,,,,,,,,,,,,,,,,,,,,,,,,,,,,,,,,,,,,,,,,,,
,,,,,,,"If you are sure that the word exists, even though you don’t know its exact meaning, you may still respond '1' (REAL). 
  
  But if you are not sure if it is an existing word, you should respond '0' (FAKE).
  
  Let's do a practice round...", (press the spacebar to continue),6649f870ed4a6b0016a6086a,Spanish,13 or older,"no, only English or Spanish",no,2025-07-23_01h18.59.676,empathy_intonation_perc,2024.2.4,MacIntel,60.24096386,6649f870ed4a6b0016a6086a,687ed1b7e638a4cbf2f02089,688070805f635c2c6631a54c,,,,,,,,,,,,,,,,,,,,,,,,,,,,,,,,,,,,,,,,,,,,,,,,,,,401.6285,408.4921,0,2,2,2,1,,,,,,,,,,,,,,,,,,,,,,,,,,,,,,,,,,,,,,,,,,,,,,,,,
,,,,,,,,,6649f870ed4a6b0016a6086a,Spanish,13 or older,"no, only English or Spanish",no,2025-07-23_01h18.59.676,empathy_intonation_perc,2024.2.4,MacIntel,60.24096386,6649f870ed4a6b0016a6086a,687ed1b7e638a4cbf2f02089,688070805f635c2c6631a54c,,,,,,,,,,,,,,0,,,,,,,,,,,,,,,,,,,,,,,,,,,,,,,,,,,,,,,,,,,,408.4978,410.7588,0,1,1.7386,,410.759,411.7591,0,0,0,0,1,0,depiste,REAL,FAKE,,,,,,,,,,,,,,,,,,,,,,,,,,,,,,,,
,,,,,,,,,6649f870ed4a6b0016a6086a,Spanish,13 or older,"no, only English or Spanish",no,2025-07-23_01h18.59.676,empathy_intonation_perc,2024.2.4,MacIntel,60.24096386,6649f870ed4a6b0016a6086a,687ed1b7e638a4cbf2f02089,688070805f635c2c6631a54c,,,,,,,,,,,,,,1,,,,,,,,,,,,,,,,,,,,,,,,,,,,,,,,,,,,,,,,,,,,411.7612,413.2757,1,1,0.9789,,413.2758,414.2758,0,1,1,1,1,0,sí,REAL,FAKE,,,,,,,,,,,,,,,,,,,,,,,,,,,,,,,,
,,,,,,,,,6649f870ed4a6b0016a6086a,Spanish,13 or older,"no, only English or Spanish",no,2025-07-23_01h18.59.676,empathy_intonation_perc,2024.2.4,MacIntel,60.24096386,6649f870ed4a6b0016a6086a,687ed1b7e638a4cbf2f02089,688070805f635c2c6631a54c,,,,,,,,,,,,,,0,,,,,,,,,,,,,,,,,,,,,,,,,,,,,,,,,,,,,,,,,,,,414.2776,415.7423,1,0,0.9285,,415.7434,416.7425,0,2,2,2,1,0,coné,REAL,FAKE,,,,,,,,,,,,,,,,,,,,,,,,,,,,,,,,
,,,,,,,,,6649f870ed4a6b0016a6086a,Spanish,13 or older,"no, only English or Spanish",no,2025-07-23_01h18.59.676,empathy_intonation_perc,2024.2.4,MacIntel,60.24096386,6649f870ed4a6b0016a6086a,687ed1b7e638a4cbf2f02089,688070805f635c2c6631a54c,,,,,,,,,,,,,,0,,,,,,,,,,,,,,,,,,,,,,,,,,,,,,,,,,,,,,,,,,,,416.7442,418.2757,1,0,0.9964,,418.2757,419.2757,0,3,3,3,1,0,calpar,REAL,FAKE,,,,,,,,,,,,,,,,,,,,,,,,,,,,,,,,
,,,,,,,,,6649f870ed4a6b0016a6086a,Spanish,13 or older,"no, only English or Spanish",no,2025-07-23_01h18.59.676,empathy_intonation_perc,2024.2.4,MacIntel,60.24096386,6649f870ed4a6b0016a6086a,687ed1b7e638a4cbf2f02089,688070805f635c2c6631a54c,,,,,,,,,,,,,,0,,,,,,,,,,,,,,,,,,,,,,,,,,,,,,,,,,,,,,,,,,,,419.2773,420.6753,0,1,0.8588,,420.6763,421.676,0,4,4,4,1,0,joten,REAL,FAKE,,,,,,,,,,,,,,,,,,,,,,,,,,,,,,,,
,,,,,,,,,6649f870ed4a6b0016a6086a,Spanish,13 or older,"no, only English or Spanish",no,2025-07-23_01h18.59.676,empathy_intonation_perc,2024.2.4,MacIntel,60.24096386,6649f870ed4a6b0016a6086a,687ed1b7e638a4cbf2f02089,688070805f635c2c6631a54c,,,,,,,,,,,,,,1,,,,,,,,,,,,,,,,,,,,,,,,,,,,,,,,,,,,,,,,,,,,421.6776,423.209,1,1,0.9958,,423.2092,424.2091,0,5,5,5,1,0,sacapuntas,REAL,FAKE,,,,,,,,,,,,,,,,,,,,,,,,,,,,,,,,
,,,,,,,,,6649f870ed4a6b0016a6086a,Spanish,13 or older,"no, only English or Spanish",no,2025-07-23_01h18.59.676,empathy_intonation_perc,2024.2.4,MacIntel,60.24096386,6649f870ed4a6b0016a6086a,687ed1b7e638a4cbf2f02089,688070805f635c2c6631a54c,,,,,,,,,,,,,,0,,,,,,,,,,,,,,,,,,,,,,,,,,,,,,,,,,,,,,,,,,,,424.2109,425.6091,1,0,0.87,,425.6101,426.6091,0,6,6,6,1,0,priba,REAL,FAKE,,,,,,,,,,,,,,,,,,,,,,,,,,,,,,,,
,,,,,,,,,6649f870ed4a6b0016a6086a,Spanish,13 or older,"no, only English or Spanish",no,2025-07-23_01h18.59.676,empathy_intonation_perc,2024.2.4,MacIntel,60.24096386,6649f870ed4a6b0016a6086a,687ed1b7e638a4cbf2f02089,688070805f635c2c6631a54c,,,,,,,,,,,,,,0,,,,,,,,,,,,,,,,,,,,,,,,,,,,,,,,,,,,,,,,,,,,426.6109,428.0758,1,0,0.9322,,428.0758,429.0759,0,7,7,7,1,0,pelasula,REAL,FAKE,,,,,,,,,,,,,,,,,,,,,,,,,,,,,,,,
,,,,,,,,,6649f870ed4a6b0016a6086a,Spanish,13 or older,"no, only English or Spanish",no,2025-07-23_01h18.59.676,empathy_intonation_perc,2024.2.4,MacIntel,60.24096386,6649f870ed4a6b0016a6086a,687ed1b7e638a4cbf2f02089,688070805f635c2c6631a54c,,,,,,,,,,,,,,1,,,,,,,,,,,,,,,,,,,,,,,,,,,,,,,,,,,,,,,,,,,,429.0775,430.3092,1,1,0.6944,,430.3101,431.3093,0,8,8,8,1,0,bien,REAL,FAKE,,,,,,,,,,,,,,,,,,,,,,,,,,,,,,,,
,,,,,,,,,6649f870ed4a6b0016a6086a,Spanish,13 or older,"no, only English or Spanish",no,2025-07-23_01h18.59.676,empathy_intonation_perc,2024.2.4,MacIntel,60.24096386,6649f870ed4a6b0016a6086a,687ed1b7e638a4cbf2f02089,688070805f635c2c6631a54c,,,,,,,,,,,,,,1,,,,,,,,,,,,,,,,,,,,,,,,,,,,,,,,,,,,,,,,,,,,431.3109,432.4267,1,1,0.5912,,432.4268,433.4261,0,9,9,9,1,0,casa,REAL,FAKE,,,,,,,,,,,,,,,,,,,,,,,,,,,,,,,,
,,,,,,,,,6649f870ed4a6b0016a6086a,Spanish,13 or older,"no, only English or Spanish",no,2025-07-23_01h18.59.676,empathy_intonation_perc,2024.2.4,MacIntel,60.24096386,6649f870ed4a6b0016a6086a,687ed1b7e638a4cbf2f02089,688070805f635c2c6631a54c,,,,,,,,,,,,,,0,,,,,,,,,,,,,,,,,,,,,,,,,,,,,,,,,,,,,,,,,,,,433.4277,434.7259,1,0,0.7699,,434.7267,435.726,0,10,10,10,1,0,lejo,REAL,FAKE,,,,,,,,,,,,,,,,,,,,,,,,,,,,,,,,
,,,,,,,,,6649f870ed4a6b0016a6086a,Spanish,13 or older,"no, only English or Spanish",no,2025-07-23_01h18.59.676,empathy_intonation_perc,2024.2.4,MacIntel,60.24096386,6649f870ed4a6b0016a6086a,687ed1b7e638a4cbf2f02089,688070805f635c2c6631a54c,,,,,,,,,,,,,,0,,,,,,,,,,,,,,,,,,,,,,,,,,,,,,,,,,,,,,,,,,,,435.7276,437.1259,1,0,0.8622,,437.126,438.1255,0,11,11,11,1,0,pretantas,REAL,FAKE,,,,,,,,,,,,,,,,,,,,,,,,,,,,,,,,
,,,,,,,,,6649f870ed4a6b0016a6086a,Spanish,13 or older,"no, only English or Spanish",no,2025-07-23_01h18.59.676,empathy_intonation_perc,2024.2.4,MacIntel,60.24096386,6649f870ed4a6b0016a6086a,687ed1b7e638a4cbf2f02089,688070805f635c2c6631a54c,,,,,,,,,,,,,,,,,,,,,,,,,,,,,,,,,,,,,,,,,,,,,,,,,,,,,,,,,,,,,,,,,,,,,,,,,,,438.1261,439.7597,,,,,,,,,,,,,,,,,,,,,,,,,,,,,,
,,,,,,,,,6649f870ed4a6b0016a6086a,Spanish,13 or older,"no, only English or Spanish",no,2025-07-23_01h18.59.676,empathy_intonation_perc,2024.2.4,MacIntel,60.24096386,6649f870ed4a6b0016a6086a,687ed1b7e638a4cbf2f02089,688070805f635c2c6631a54c,,,,,,,,,,,,,,1,,,,,,,,,,,,,,,,,,,,,,,,,,,,,,,,,,,,,,,,,,,,,,,,,,,,,,,,,46,martillo,,,,,439.7702,441.1766,1,1,0.8822,,0,0,0,45,1,REAL,FAKE,,,,,,,,,,,,,,,,,
,,,,,,,,,6649f870ed4a6b0016a6086a,Spanish,13 or older,"no, only English or Spanish",no,2025-07-23_01h18.59.676,empathy_intonation_perc,2024.2.4,MacIntel,60.24096386,6649f870ed4a6b0016a6086a,687ed1b7e638a4cbf2f02089,688070805f635c2c6631a54c,,,,,,,,,,,,,,1,,,,,,,,,,,,,,,,,,,,,,,,,,,,,,,,,,,,,,,,,,,,,,,,,,,,,,,,,69,engatusar,,,,,441.1784,442.6261,1,1,0.9117,,0,1,1,68,1,REAL,FAKE,,,,,,,,,,,,,,,,,
,,,,,,,,,6649f870ed4a6b0016a6086a,Spanish,13 or older,"no, only English or Spanish",no,2025-07-23_01h18.59.676,empathy_intonation_perc,2024.2.4,MacIntel,60.24096386,6649f870ed4a6b0016a6086a,687ed1b7e638a4cbf2f02089,688070805f635c2c6631a54c,,,,,,,,,,,,,,0,,,,,,,,,,,,,,,,,,,,,,,,,,,,,,,,,,,,,,,,,,,,,,,,,,,,,,,,,21,capillo,,,,,442.6275,444.0921,1,0,0.9407,,0,2,2,20,1,REAL,FAKE,,,,,,,,,,,,,,,,,
,,,,,,,,,6649f870ed4a6b0016a6086a,Spanish,13 or older,"no, only English or Spanish",no,2025-07-23_01h18.59.676,empathy_intonation_perc,2024.2.4,MacIntel,60.24096386,6649f870ed4a6b0016a6086a,687ed1b7e638a4cbf2f02089,688070805f635c2c6631a54c,,,,,,,,,,,,,,0,,,,,,,,,,,,,,,,,,,,,,,,,,,,,,,,,,,,,,,,,,,,,,,,,,,,,,,,,92,click the 0 key.,,,,,444.0939,445.9094,0,1,1.2781,,0,3,3,91,1,REAL,FAKE,,,,,,,,,,,,,,,,,
,,,,,,,,,6649f870ed4a6b0016a6086a,Spanish,13 or older,"no, only English or Spanish",no,2025-07-23_01h18.59.676,empathy_intonation_perc,2024.2.4,MacIntel,60.24096386,6649f870ed4a6b0016a6086a,687ed1b7e638a4cbf2f02089,688070805f635c2c6631a54c,,,,,,,,,,,,,,1,,,,,,,,,,,,,,,,,,,,,,,,,,,,,,,,,,,,,,,,,,,,,,,,,,,,,,,,,76,atar,,,,,445.9109,447.7428,1,1,1.2954,,0,4,4,75,1,REAL,FAKE,,,,,,,,,,,,,,,,,
,,,,,,,,,6649f870ed4a6b0016a6086a,Spanish,13 or older,"no, only English or Spanish",no,2025-07-23_01h18.59.676,empathy_intonation_perc,2024.2.4,MacIntel,60.24096386,6649f870ed4a6b0016a6086a,687ed1b7e638a4cbf2f02089,688070805f635c2c6631a54c,,,,,,,,,,,,,,0,,,,,,,,,,,,,,,,,,,,,,,,,,,,,,,,,,,,,,,,,,,,,,,,,,,,,,,,,79,tropaje,,,,,447.7443,449.176,1,0,0.8969,,0,5,5,78,1,REAL,FAKE,,,,,,,,,,,,,,,,,
,,,,,,,,,6649f870ed4a6b0016a6086a,Spanish,13 or older,"no, only English or Spanish",no,2025-07-23_01h18.59.676,empathy_intonation_perc,2024.2.4,MacIntel,60.24096386,6649f870ed4a6b0016a6086a,687ed1b7e638a4cbf2f02089,688070805f635c2c6631a54c,,,,,,,,,,,,,,1,,,,,,,,,,,,,,,,,,,,,,,,,,,,,,,,,,,,,,,,,,,,,,,,,,,,,,,,,24,látigo,,,,,449.1775,451.2587,0,0,1.5431,,0,6,6,23,1,REAL,FAKE,,,,,,,,,,,,,,,,,
,,,,,,,,,6649f870ed4a6b0016a6086a,Spanish,13 or older,"no, only English or Spanish",no,2025-07-23_01h18.59.676,empathy_intonation_perc,2024.2.4,MacIntel,60.24096386,6649f870ed4a6b0016a6086a,687ed1b7e638a4cbf2f02089,688070805f635c2c6631a54c,,,,,,,,,,,,,,1,,,,,,,,,,,,,,,,,,,,,,,,,,,,,,,,,,,,,,,,,,,,,,,,,,,,,,,,,61,seda,,,,,451.2601,452.8263,0,0,1.0449,,0,7,7,60,1,REAL,FAKE,,,,,,,,,,,,,,,,,
,,,,,,,,,6649f870ed4a6b0016a6086a,Spanish,13 or older,"no, only English or Spanish",no,2025-07-23_01h18.59.676,empathy_intonation_perc,2024.2.4,MacIntel,60.24096386,6649f870ed4a6b0016a6086a,687ed1b7e638a4cbf2f02089,688070805f635c2c6631a54c,,,,,,,,,,,,,,1,,,,,,,,,,,,,,,,,,,,,,,,,,,,,,,,,,,,,,,,,,,,,,,,,,,,,,,,,28,merodear,,,,,452.8278,454.293,0,0,0.9291,,0,8,8,27,1,REAL,FAKE,,,,,,,,,,,,,,,,,
,,,,,,,,,6649f870ed4a6b0016a6086a,Spanish,13 or older,"no, only English or Spanish",no,2025-07-23_01h18.59.676,empathy_intonation_perc,2024.2.4,MacIntel,60.24096386,6649f870ed4a6b0016a6086a,687ed1b7e638a4cbf2f02089,688070805f635c2c6631a54c,,,,,,,,,,,,,,1,,,,,,,,,,,,,,,,,,,,,,,,,,,,,,,,,,,,,,,,,,,,,,,,,,,,,,,,,15,regar,,,,,454.2943,455.7264,1,1,0.8943,,0,9,9,14,1,REAL,FAKE,,,,,,,,,,,,,,,,,
,,,,,,,,,6649f870ed4a6b0016a6086a,Spanish,13 or older,"no, only English or Spanish",no,2025-07-23_01h18.59.676,empathy_intonation_perc,2024.2.4,MacIntel,60.24096386,6649f870ed4a6b0016a6086a,687ed1b7e638a4cbf2f02089,688070805f635c2c6631a54c,,,,,,,,,,,,,,1,,,,,,,,,,,,,,,,,,,,,,,,,,,,,,,,,,,,,,,,,,,,,,,,,,,,,,,,,40,alfombra,,,,,455.7278,457.3597,0,0,1.0999,,0,10,10,39,1,REAL,FAKE,,,,,,,,,,,,,,,,,
,,,,,,,,,6649f870ed4a6b0016a6086a,Spanish,13 or older,"no, only English or Spanish",no,2025-07-23_01h18.59.676,empathy_intonation_perc,2024.2.4,MacIntel,60.24096386,6649f870ed4a6b0016a6086a,687ed1b7e638a4cbf2f02089,688070805f635c2c6631a54c,,,,,,,,,,,,,,0,,,,,,,,,,,,,,,,,,,,,,,,,,,,,,,,,,,,,,,,,,,,,,,,,,,,,,,,,19,brecedad,,,,,457.3611,459.0932,0,1,1.195,,0,11,11,18,1,REAL,FAKE,,,,,,,,,,,,,,,,,
,,,,,,,,,6649f870ed4a6b0016a6086a,Spanish,13 or older,"no, only English or Spanish",no,2025-07-23_01h18.59.676,empathy_intonation_perc,2024.2.4,MacIntel,60.24096386,6649f870ed4a6b0016a6086a,687ed1b7e638a4cbf2f02089,688070805f635c2c6631a54c,,,,,,,,,,,,,,1,,,,,,,,,,,,,,,,,,,,,,,,,,,,,,,,,,,,,,,,,,,,,,,,,,,,,,,,,83,guante,,,,,459.0945,460.7427,1,1,1.1172,,0,12,12,82,1,REAL,FAKE,,,,,,,,,,,,,,,,,
,,,,,,,,,6649f870ed4a6b0016a6086a,Spanish,13 or older,"no, only English or Spanish",no,2025-07-23_01h18.59.676,empathy_intonation_perc,2024.2.4,MacIntel,60.24096386,6649f870ed4a6b0016a6086a,687ed1b7e638a4cbf2f02089,688070805f635c2c6631a54c,,,,,,,,,,,,,,0,,,,,,,,,,,,,,,,,,,,,,,,,,,,,,,,,,,,,,,,,,,,,,,,,,,,,,,,,66,hacido,,,,,460.7432,462.1929,1,0,0.9245,,0,13,13,65,1,REAL,FAKE,,,,,,,,,,,,,,,,,
,,,,,,,,,6649f870ed4a6b0016a6086a,Spanish,13 or older,"no, only English or Spanish",no,2025-07-23_01h18.59.676,empathy_intonation_perc,2024.2.4,MacIntel,60.24096386,6649f870ed4a6b0016a6086a,687ed1b7e638a4cbf2f02089,688070805f635c2c6631a54c,,,,,,,,,,,,,,0,,,,,,,,,,,,,,,,,,,,,,,,,,,,,,,,,,,,,,,,,,,,,,,,,,,,,,,,,82,empirador,,,,,462.1936,464.2431,0,1,1.5112,,0,14,14,81,1,REAL,FAKE,,,,,,,,,,,,,,,,,
,,,,,,,,,6649f870ed4a6b0016a6086a,Spanish,13 or older,"no, only English or Spanish",no,2025-07-23_01h18.59.676,empathy_intonation_perc,2024.2.4,MacIntel,60.24096386,6649f870ed4a6b0016a6086a,687ed1b7e638a4cbf2f02089,688070805f635c2c6631a54c,,,,,,,,,,,,,,1,,,,,,,,,,,,,,,,,,,,,,,,,,,,,,,,,,,,,,,,,,,,,,,,,,,,,,,,,22,lacayo,,,,,464.2446,466.0766,0,0,1.292,,0,15,15,21,1,REAL,FAKE,,,,,,,,,,,,,,,,,
,,,,,,,,,6649f870ed4a6b0016a6086a,Spanish,13 or older,"no, only English or Spanish",no,2025-07-23_01h18.59.676,empathy_intonation_perc,2024.2.4,MacIntel,60.24096386,6649f870ed4a6b0016a6086a,687ed1b7e638a4cbf2f02089,688070805f635c2c6631a54c,,,,,,,,,,,,,,0,,,,,,,,,,,,,,,,,,,,,,,,,,,,,,,,,,,,,,,,,,,,,,,,,,,,,,,,,58,plaudir,,,,,466.078,467.4766,0,1,0.8637,,0,16,16,57,1,REAL,FAKE,,,,,,,,,,,,,,,,,
,,,,,,,,,6649f870ed4a6b0016a6086a,Spanish,13 or older,"no, only English or Spanish",no,2025-07-23_01h18.59.676,empathy_intonation_perc,2024.2.4,MacIntel,60.24096386,6649f870ed4a6b0016a6086a,687ed1b7e638a4cbf2f02089,688070805f635c2c6631a54c,,,,,,,,,,,,,,1,,,,,,,,,,,,,,,,,,,,,,,,,,,,,,,,,,,,,,,,,,,,,,,,,,,,,,,,,81,pozo,,,,,467.4781,468.9256,0,0,0.9122,,0,17,17,80,1,REAL,FAKE,,,,,,,,,,,,,,,,,
,,,,,,,,,6649f870ed4a6b0016a6086a,Spanish,13 or older,"no, only English or Spanish",no,2025-07-23_01h18.59.676,empathy_intonation_perc,2024.2.4,MacIntel,60.24096386,6649f870ed4a6b0016a6086a,687ed1b7e638a4cbf2f02089,688070805f635c2c6631a54c,,,,,,,,,,,,,,1,,,,,,,,,,,,,,,,,,,,,,,,,,,,,,,,,,,,,,,,,,,,,,,,,,,,,,,,,6,tergiversar,,,,,468.927,470.1933,0,0,0.7451,,0,18,18,5,1,REAL,FAKE,,,,,,,,,,,,,,,,,
,,,,,,,,,6649f870ed4a6b0016a6086a,Spanish,13 or older,"no, only English or Spanish",no,2025-07-23_01h18.59.676,empathy_intonation_perc,2024.2.4,MacIntel,60.24096386,6649f870ed4a6b0016a6086a,687ed1b7e638a4cbf2f02089,688070805f635c2c6631a54c,,,,,,,,,,,,,,0,,,,,,,,,,,,,,,,,,,,,,,,,,,,,,,,,,,,,,,,,,,,,,,,,,,,,,,,,70,temblo,,,,,470.1947,471.8756,0,1,1.1483,,0,19,19,69,1,REAL,FAKE,,,,,,,,,,,,,,,,,
,,,,,,,,,6649f870ed4a6b0016a6086a,Spanish,13 or older,"no, only English or Spanish",no,2025-07-23_01h18.59.676,empathy_intonation_perc,2024.2.4,MacIntel,60.24096386,6649f870ed4a6b0016a6086a,687ed1b7e638a4cbf2f02089,688070805f635c2c6631a54c,,,,,,,,,,,,,,0,,,,,,,,,,,,,,,,,,,,,,,,,,,,,,,,,,,,,,,,,,,,,,,,,,,,,,,,,10,antar,,,,,471.8771,473.4094,1,0,1.0073,,0,20,20,9,1,REAL,FAKE,,,,,,,,,,,,,,,,,
,,,,,,,,,6649f870ed4a6b0016a6086a,Spanish,13 or older,"no, only English or Spanish",no,2025-07-23_01h18.59.676,empathy_intonation_perc,2024.2.4,MacIntel,60.24096386,6649f870ed4a6b0016a6086a,687ed1b7e638a4cbf2f02089,688070805f635c2c6631a54c,,,,,,,,,,,,,,0,,,,,,,,,,,,,,,,,,,,,,,,,,,,,,,,,,,,,,,,,,,,,,,,,,,,,,,,,63,esposante,,,,,473.4112,475.2592,0,1,1.3167,,0,21,21,62,1,REAL,FAKE,,,,,,,,,,,,,,,,,
,,,,,,,,,6649f870ed4a6b0016a6086a,Spanish,13 or older,"no, only English or Spanish",no,2025-07-23_01h18.59.676,empathy_intonation_perc,2024.2.4,MacIntel,60.24096386,6649f870ed4a6b0016a6086a,687ed1b7e638a4cbf2f02089,688070805f635c2c6631a54c,,,,,,,,,,,,,,1,,,,,,,,,,,,,,,,,,,,,,,,,,,,,,,,,,,,,,,,,,,,,,,,,,,,,,,,,73,hervidor,,,,,475.2604,476.9258,0,0,1.1448,,0,22,22,72,1,REAL,FAKE,,,,,,,,,,,,,,,,,
,,,,,,,,,6649f870ed4a6b0016a6086a,Spanish,13 or older,"no, only English or Spanish",no,2025-07-23_01h18.59.676,empathy_intonation_perc,2024.2.4,MacIntel,60.24096386,6649f870ed4a6b0016a6086a,687ed1b7e638a4cbf2f02089,688070805f635c2c6631a54c,,,,,,,,,,,,,,1,,,,,,,,,,,,,,,,,,,,,,,,,,,,,,,,,,,,,,,,,,,,,,,,,,,,,,,,,89,prisa,,,,,476.9272,478.1768,1,1,0.7306,,0,23,23,88,1,REAL,FAKE,,,,,,,,,,,,,,,,,
,,,,,,,,,6649f870ed4a6b0016a6086a,Spanish,13 or older,"no, only English or Spanish",no,2025-07-23_01h18.59.676,empathy_intonation_perc,2024.2.4,MacIntel,60.24096386,6649f870ed4a6b0016a6086a,687ed1b7e638a4cbf2f02089,688070805f635c2c6631a54c,,,,,,,,,,,,,,1,,,,,,,,,,,,,,,,,,,,,,,,,,,,,,,,,,,,,,,,,,,,,,,,,,,,,,,,,36,loro,,,,,478.1781,479.726,1,1,1.0119,,0,24,24,35,1,REAL,FAKE,,,,,,,,,,,,,,,,,
,,,,,,,,,6649f870ed4a6b0016a6086a,Spanish,13 or older,"no, only English or Spanish",no,2025-07-23_01h18.59.676,empathy_intonation_perc,2024.2.4,MacIntel,60.24096386,6649f870ed4a6b0016a6086a,687ed1b7e638a4cbf2f02089,688070805f635c2c6631a54c,,,,,,,,,,,,,,1,,,,,,,,,,,,,,,,,,,,,,,,,,,,,,,,,,,,,,,,,,,,,,,,,,,,,,,,,77,tiburón,,,,,479.7275,481.2602,1,1,1.0207,,0,25,25,76,1,REAL,FAKE,,,,,,,,,,,,,,,,,
,,,,,,,,,6649f870ed4a6b0016a6086a,Spanish,13 or older,"no, only English or Spanish",no,2025-07-23_01h18.59.676,empathy_intonation_perc,2024.2.4,MacIntel,60.24096386,6649f870ed4a6b0016a6086a,687ed1b7e638a4cbf2f02089,688070805f635c2c6631a54c,,,,,,,,,,,,,,1,,,,,,,,,,,,,,,,,,,,,,,,,,,,,,,,,,,,,,,,,,,,,,,,,,,,,,,,,80,hormiga,,,,,481.2618,482.9101,0,0,1.1155,,0,26,26,79,1,REAL,FAKE,,,,,,,,,,,,,,,,,
,,,,,,,,,6649f870ed4a6b0016a6086a,Spanish,13 or older,"no, only English or Spanish",no,2025-07-23_01h18.59.676,empathy_intonation_perc,2024.2.4,MacIntel,60.24096386,6649f870ed4a6b0016a6086a,687ed1b7e638a4cbf2f02089,688070805f635c2c6631a54c,,,,,,,,,,,,,,1,,,,,,,,,,,,,,,,,,,,,,,,,,,,,,,,,,,,,,,,,,,,,,,,,,,,,,,,,12,asesinato,,,,,482.9114,484.2268,0,0,0.7793,,0,27,27,11,1,REAL,FAKE,,,,,,,,,,,,,,,,,
,,,,,,,,,6649f870ed4a6b0016a6086a,Spanish,13 or older,"no, only English or Spanish",no,2025-07-23_01h18.59.676,empathy_intonation_perc,2024.2.4,MacIntel,60.24096386,6649f870ed4a6b0016a6086a,687ed1b7e638a4cbf2f02089,688070805f635c2c6631a54c,,,,,,,,,,,,,,0,,,,,,,,,,,,,,,,,,,,,,,,,,,,,,,,,,,,,,,,,,,,,,,,,,,,,,,,,35,rompido,,,,,484.2284,486.0934,1,0,1.3298,,0,28,28,34,1,REAL,FAKE,,,,,,,,,,,,,,,,,
,,,,,,,,,6649f870ed4a6b0016a6086a,Spanish,13 or older,"no, only English or Spanish",no,2025-07-23_01h18.59.676,empathy_intonation_perc,2024.2.4,MacIntel,60.24096386,6649f870ed4a6b0016a6086a,687ed1b7e638a4cbf2f02089,688070805f635c2c6631a54c,,,,,,,,,,,,,,1,,,,,,,,,,,,,,,,,,,,,,,,,,,,,,,,,,,,,,,,,,,,,,,,,,,,,,,,,60,matar,,,,,486.0948,487.4269,1,1,0.7953,,0,29,29,59,1,REAL,FAKE,,,,,,,,,,,,,,,,,
,,,,,,,,,6649f870ed4a6b0016a6086a,Spanish,13 or older,"no, only English or Spanish",no,2025-07-23_01h18.59.676,empathy_intonation_perc,2024.2.4,MacIntel,60.24096386,6649f870ed4a6b0016a6086a,687ed1b7e638a4cbf2f02089,688070805f635c2c6631a54c,,,,,,,,,,,,,,0,,,,,,,,,,,,,,,,,,,,,,,,,,,,,,,,,,,,,,,,,,,,,,,,,,,,,,,,,27,acutación,,,,,487.4284,489.2102,0,1,1.2456,,0,30,30,26,1,REAL,FAKE,,,,,,,,,,,,,,,,,
,,,,,,,,,6649f870ed4a6b0016a6086a,Spanish,13 or older,"no, only English or Spanish",no,2025-07-23_01h18.59.676,empathy_intonation_perc,2024.2.4,MacIntel,60.24096386,6649f870ed4a6b0016a6086a,687ed1b7e638a4cbf2f02089,688070805f635c2c6631a54c,,,,,,,,,,,,,,1,,,,,,,,,,,,,,,,,,,,,,,,,,,,,,,,,,,,,,,,,,,,,,,,,,,,,,,,,41,rebuscar,,,,,489.2115,490.9263,0,0,1.1756,,0,31,31,40,1,REAL,FAKE,,,,,,,,,,,,,,,,,
,,,,,,,,,6649f870ed4a6b0016a6086a,Spanish,13 or older,"no, only English or Spanish",no,2025-07-23_01h18.59.676,empathy_intonation_perc,2024.2.4,MacIntel,60.24096386,6649f870ed4a6b0016a6086a,687ed1b7e638a4cbf2f02089,688070805f635c2c6631a54c,,,,,,,,,,,,,,0,,,,,,,,,,,,,,,,,,,,,,,,,,,,,,,,,,,,,,,,,,,,,,,,,,,,,,,,,72,pemición,,,,,490.9278,492.2268,0,1,0.779,,0,32,32,71,1,REAL,FAKE,,,,,,,,,,,,,,,,,
,,,,,,,,,6649f870ed4a6b0016a6086a,Spanish,13 or older,"no, only English or Spanish",no,2025-07-23_01h18.59.676,empathy_intonation_perc,2024.2.4,MacIntel,60.24096386,6649f870ed4a6b0016a6086a,687ed1b7e638a4cbf2f02089,688070805f635c2c6631a54c,,,,,,,,,,,,,,0,,,,,,,,,,,,,,,,,,,,,,,,,,,,,,,,,,,,,,,,,,,,,,,,,,,,,,,,,74,cintro,,,,,492.2278,493.8266,1,0,1.0594,,0,33,33,73,1,REAL,FAKE,,,,,,,,,,,,,,,,,
,,,,,,,,,6649f870ed4a6b0016a6086a,Spanish,13 or older,"no, only English or Spanish",no,2025-07-23_01h18.59.676,empathy_intonation_perc,2024.2.4,MacIntel,60.24096386,6649f870ed4a6b0016a6086a,687ed1b7e638a4cbf2f02089,688070805f635c2c6631a54c,,,,,,,,,,,,,,1,,,,,,,,,,,,,,,,,,,,,,,,,,,,,,,,,,,,,,,,,,,,,,,,,,,,,,,,,45,jilguero,,,,,493.8279,494.9761,0,0,0.6281,,0,34,34,44,1,REAL,FAKE,,,,,,,,,,,,,,,,,
,,,,,,,,,6649f870ed4a6b0016a6086a,Spanish,13 or older,"no, only English or Spanish",no,2025-07-23_01h18.59.676,empathy_intonation_perc,2024.2.4,MacIntel,60.24096386,6649f870ed4a6b0016a6086a,687ed1b7e638a4cbf2f02089,688070805f635c2c6631a54c,,,,,,,,,,,,,,1,,,,,,,,,,,,,,,,,,,,,,,,,,,,,,,,,,,,,,,,,,,,,,,,,,,,,,,,,88,acantilado,,,,,494.9774,496.4271,0,0,0.9199,,0,35,35,87,1,REAL,FAKE,,,,,,,,,,,,,,,,,
,,,,,,,,,6649f870ed4a6b0016a6086a,Spanish,13 or older,"no, only English or Spanish",no,2025-07-23_01h18.59.676,empathy_intonation_perc,2024.2.4,MacIntel,60.24096386,6649f870ed4a6b0016a6086a,687ed1b7e638a4cbf2f02089,688070805f635c2c6631a54c,,,,,,,,,,,,,,1,,,,,,,,,,,,,,,,,,,,,,,,,,,,,,,,,,,,,,,,,,,,,,,,,,,,,,,,,64,orgulloso,,,,,496.4283,497.9262,0,0,0.9616,,0,36,36,63,1,REAL,FAKE,,,,,,,,,,,,,,,,,
,,,,,,,,,6649f870ed4a6b0016a6086a,Spanish,13 or older,"no, only English or Spanish",no,2025-07-23_01h18.59.676,empathy_intonation_perc,2024.2.4,MacIntel,60.24096386,6649f870ed4a6b0016a6086a,687ed1b7e638a4cbf2f02089,688070805f635c2c6631a54c,,,,,,,,,,,,,,0,,,,,,,,,,,,,,,,,,,,,,,,,,,,,,,,,,,,,,,,,,,,,,,,,,,,,,,,,50,flamida,,,,,497.9276,499.4271,0,1,0.9797,,0,37,37,49,1,REAL,FAKE,,,,,,,,,,,,,,,,,
,,,,,,,,,6649f870ed4a6b0016a6086a,Spanish,13 or older,"no, only English or Spanish",no,2025-07-23_01h18.59.676,empathy_intonation_perc,2024.2.4,MacIntel,60.24096386,6649f870ed4a6b0016a6086a,687ed1b7e638a4cbf2f02089,688070805f635c2c6631a54c,,,,,,,,,,,,,,1,,,,,,,,,,,,,,,,,,,,,,,,,,,,,,,,,,,,,,,,,,,,,,,,,,,,,,,,,34,aviso,,,,,499.4285,500.9762,0,0,1.0129,,0,38,38,33,1,REAL,FAKE,,,,,,,,,,,,,,,,,
,,,,,,,,,6649f870ed4a6b0016a6086a,Spanish,13 or older,"no, only English or Spanish",no,2025-07-23_01h18.59.676,empathy_intonation_perc,2024.2.4,MacIntel,60.24096386,6649f870ed4a6b0016a6086a,687ed1b7e638a4cbf2f02089,688070805f635c2c6631a54c,,,,,,,,,,,,,,0,,,,,,,,,,,,,,,,,,,,,,,,,,,,,,,,,,,,,,,,,,,,,,,,,,,,,,,,,33,pauca,,,,,500.9775,502.3107,0,1,0.7961,,0,39,39,32,1,REAL,FAKE,,,,,,,,,,,,,,,,,
,,,,,,,,,6649f870ed4a6b0016a6086a,Spanish,13 or older,"no, only English or Spanish",no,2025-07-23_01h18.59.676,empathy_intonation_perc,2024.2.4,MacIntel,60.24096386,6649f870ed4a6b0016a6086a,687ed1b7e638a4cbf2f02089,688070805f635c2c6631a54c,,,,,,,,,,,,,,1,,,,,,,,,,,,,,,,,,,,,,,,,,,,,,,,,,,,,,,,,,,,,,,,,,,,,,,,,31,pandilla,,,,,502.3122,503.6429,0,0,0.7962,,0,40,40,30,1,REAL,FAKE,,,,,,,,,,,,,,,,,
,,,,,,,,,6649f870ed4a6b0016a6086a,Spanish,13 or older,"no, only English or Spanish",no,2025-07-23_01h18.59.676,empathy_intonation_perc,2024.2.4,MacIntel,60.24096386,6649f870ed4a6b0016a6086a,687ed1b7e638a4cbf2f02089,688070805f635c2c6631a54c,,,,,,,,,,,,,,1,,,,,,,,,,,,,,,,,,,,,,,,,,,,,,,,,,,,,,,,,,,,,,,,,,,,,,,,,9,hacha,,,,,503.6444,504.8764,1,1,0.7146,,0,41,41,8,1,REAL,FAKE,,,,,,,,,,,,,,,,,
,,,,,,,,,6649f870ed4a6b0016a6086a,Spanish,13 or older,"no, only English or Spanish",no,2025-07-23_01h18.59.676,empathy_intonation_perc,2024.2.4,MacIntel,60.24096386,6649f870ed4a6b0016a6086a,687ed1b7e638a4cbf2f02089,688070805f635c2c6631a54c,,,,,,,,,,,,,,1,,,,,,,,,,,,,,,,,,,,,,,,,,,,,,,,,,,,,,,,,,,,,,,,,,,,,,,,,11,cenefa,,,,,504.8782,506.2763,0,0,0.8669,,0,42,42,10,1,REAL,FAKE,,,,,,,,,,,,,,,,,
,,,,,,,,,6649f870ed4a6b0016a6086a,Spanish,13 or older,"no, only English or Spanish",no,2025-07-23_01h18.59.676,empathy_intonation_perc,2024.2.4,MacIntel,60.24096386,6649f870ed4a6b0016a6086a,687ed1b7e638a4cbf2f02089,688070805f635c2c6631a54c,,,,,,,,,,,,,,1,,,,,,,,,,,,,,,,,,,,,,,,,,,,,,,,,,,,,,,,,,,,,,,,,,,,,,,,,55,nevar,,,,,506.2778,507.9439,1,1,1.1436,,0,43,43,54,1,REAL,FAKE,,,,,,,,,,,,,,,,,
,,,,,,,,,6649f870ed4a6b0016a6086a,Spanish,13 or older,"no, only English or Spanish",no,2025-07-23_01h18.59.676,empathy_intonation_perc,2024.2.4,MacIntel,60.24096386,6649f870ed4a6b0016a6086a,687ed1b7e638a4cbf2f02089,688070805f635c2c6631a54c,,,,,,,,,,,,,,1,,,,,,,,,,,,,,,,,,,,,,,,,,,,,,,,,,,,,,,,,,,,,,,,,,,,,,,,,44,cuchara,,,,,507.9454,509.6107,1,1,1.1289,,0,44,44,43,1,REAL,FAKE,,,,,,,,,,,,,,,,,
,,,,,,,,,6649f870ed4a6b0016a6086a,Spanish,13 or older,"no, only English or Spanish",no,2025-07-23_01h18.59.676,empathy_intonation_perc,2024.2.4,MacIntel,60.24096386,6649f870ed4a6b0016a6086a,687ed1b7e638a4cbf2f02089,688070805f635c2c6631a54c,,,,,,,,,,,,,,1,,,,,,,,,,,,,,,,,,,,,,,,,,,,,,,,,,,,,,,,,,,,,,,,,,,,,,,,,85,laúd,,,,,509.6123,510.9607,0,0,0.8091,,0,45,45,84,1,REAL,FAKE,,,,,,,,,,,,,,,,,
,,,,,,,,,6649f870ed4a6b0016a6086a,Spanish,13 or older,"no, only English or Spanish",no,2025-07-23_01h18.59.676,empathy_intonation_perc,2024.2.4,MacIntel,60.24096386,6649f870ed4a6b0016a6086a,687ed1b7e638a4cbf2f02089,688070805f635c2c6631a54c,,,,,,,,,,,,,,1,,,,,,,,,,,,,,,,,,,,,,,,,,,,,,,,,,,,,,,,,,,,,,,,,,,,,,,,,71,polvoriento,,,,,510.9621,512.194,0,0,0.6982,,0,46,46,70,1,REAL,FAKE,,,,,,,,,,,,,,,,,
,,,,,,,,,6649f870ed4a6b0016a6086a,Spanish,13 or older,"no, only English or Spanish",no,2025-07-23_01h18.59.676,empathy_intonation_perc,2024.2.4,MacIntel,60.24096386,6649f870ed4a6b0016a6086a,687ed1b7e638a4cbf2f02089,688070805f635c2c6631a54c,,,,,,,,,,,,,,1,,,,,,,,,,,,,,,,,,,,,,,,,,,,,,,,,,,,,,,,,,,,,,,,,,,,,,,,,37,granuja,,,,,512.1954,513.7774,0,0,1.0444,,0,47,47,36,1,REAL,FAKE,,,,,,,,,,,,,,,,,
,,,,,,,,,6649f870ed4a6b0016a6086a,Spanish,13 or older,"no, only English or Spanish",no,2025-07-23_01h18.59.676,empathy_intonation_perc,2024.2.4,MacIntel,60.24096386,6649f870ed4a6b0016a6086a,687ed1b7e638a4cbf2f02089,688070805f635c2c6631a54c,,,,,,,,,,,,,,1,,,,,,,,,,,,,,,,,,,,,,,,,,,,,,,,,,,,,,,,,,,,,,,,,,,,,,,,,25,bisagra,,,,,513.779,514.9932,0,0,0.6789,,0,48,48,24,1,REAL,FAKE,,,,,,,,,,,,,,,,,
,,,,,,,,,6649f870ed4a6b0016a6086a,Spanish,13 or older,"no, only English or Spanish",no,2025-07-23_01h18.59.676,empathy_intonation_perc,2024.2.4,MacIntel,60.24096386,6649f870ed4a6b0016a6086a,687ed1b7e638a4cbf2f02089,688070805f635c2c6631a54c,,,,,,,,,,,,,,1,,,,,,,,,,,,,,,,,,,,,,,,,,,,,,,,,,,,,,,,,,,,,,,,,,,,,,,,,14,yunque,,,,,514.9945,516.5269,1,1,0.9978,,0,49,49,13,1,REAL,FAKE,,,,,,,,,,,,,,,,,
,,,,,,,,,6649f870ed4a6b0016a6086a,Spanish,13 or older,"no, only English or Spanish",no,2025-07-23_01h18.59.676,empathy_intonation_perc,2024.2.4,MacIntel,60.24096386,6649f870ed4a6b0016a6086a,687ed1b7e638a4cbf2f02089,688070805f635c2c6631a54c,,,,,,,,,,,,,,1,,,,,,,,,,,,,,,,,,,,,,,,,,,,,,,,,,,,,,,,,,,,,,,,,,,,,,,,,2,pellizcar,,,,,516.5284,517.8767,0,0,0.8145,,0,50,50,1,1,REAL,FAKE,,,,,,,,,,,,,,,,,
,,,,,,,,,6649f870ed4a6b0016a6086a,Spanish,13 or older,"no, only English or Spanish",no,2025-07-23_01h18.59.676,empathy_intonation_perc,2024.2.4,MacIntel,60.24096386,6649f870ed4a6b0016a6086a,687ed1b7e638a4cbf2f02089,688070805f635c2c6631a54c,,,,,,,,,,,,,,1,,,,,,,,,,,,,,,,,,,,,,,,,,,,,,,,,,,,,,,,,,,,,,,,,,,,,,,,,13,helar,,,,,517.8784,519.2272,1,1,0.8117,,0,51,51,12,1,REAL,FAKE,,,,,,,,,,,,,,,,,
,,,,,,,,,6649f870ed4a6b0016a6086a,Spanish,13 or older,"no, only English or Spanish",no,2025-07-23_01h18.59.676,empathy_intonation_perc,2024.2.4,MacIntel,60.24096386,6649f870ed4a6b0016a6086a,687ed1b7e638a4cbf2f02089,688070805f635c2c6631a54c,,,,,,,,,,,,,,0,,,,,,,,,,,,,,,,,,,,,,,,,,,,,,,,,,,,,,,,,,,,,,,,,,,,,,,,,29,decar,,,,,519.2287,520.8933,1,0,1.1301,,0,52,52,28,1,REAL,FAKE,,,,,,,,,,,,,,,,,
,,,,,,,,,6649f870ed4a6b0016a6086a,Spanish,13 or older,"no, only English or Spanish",no,2025-07-23_01h18.59.676,empathy_intonation_perc,2024.2.4,MacIntel,60.24096386,6649f870ed4a6b0016a6086a,687ed1b7e638a4cbf2f02089,688070805f635c2c6631a54c,,,,,,,,,,,,,,1,,,,,,,,,,,,,,,,,,,,,,,,,,,,,,,,,,,,,,,,,,,,,,,,,,,,,,,,,26,secuestro,,,,,520.8948,522.1111,0,0,0.6913,,0,53,53,25,1,REAL,FAKE,,,,,,,,,,,,,,,,,
,,,,,,,,,6649f870ed4a6b0016a6086a,Spanish,13 or older,"no, only English or Spanish",no,2025-07-23_01h18.59.676,empathy_intonation_perc,2024.2.4,MacIntel,60.24096386,6649f870ed4a6b0016a6086a,687ed1b7e638a4cbf2f02089,688070805f635c2c6631a54c,,,,,,,,,,,,,,1,,,,,,,,,,,,,,,,,,,,,,,,,,,,,,,,,,,,,,,,,,,,,,,,,,,,,,,,,75,yacer,,,,,522.1126,523.4934,0,0,0.8466,,0,54,54,74,1,REAL,FAKE,,,,,,,,,,,,,,,,,
,,,,,,,,,6649f870ed4a6b0016a6086a,Spanish,13 or older,"no, only English or Spanish",no,2025-07-23_01h18.59.676,empathy_intonation_perc,2024.2.4,MacIntel,60.24096386,6649f870ed4a6b0016a6086a,687ed1b7e638a4cbf2f02089,688070805f635c2c6631a54c,,,,,,,,,,,,,,1,,,,,,,,,,,,,,,,,,,,,,,,,,,,,,,,,,,,,,,,,,,,,,,,,,,,,,,,,68,alegre,,,,,523.4944,524.7267,1,1,0.7166,,0,55,55,67,1,REAL,FAKE,,,,,,,,,,,,,,,,,
,,,,,,,,,6649f870ed4a6b0016a6086a,Spanish,13 or older,"no, only English or Spanish",no,2025-07-23_01h18.59.676,empathy_intonation_perc,2024.2.4,MacIntel,60.24096386,6649f870ed4a6b0016a6086a,687ed1b7e638a4cbf2f02089,688070805f635c2c6631a54c,,,,,,,,,,,,,,0,,,,,,,,,,,,,,,,,,,,,,,,,,,,,,,,,,,,,,,,,,,,,,,,,,,,,,,,,1,terzo,,,,,524.7279,525.8944,0,1,0.6479,,0,56,56,0,1,REAL,FAKE,,,,,,,,,,,,,,,,,
,,,,,,,,,6649f870ed4a6b0016a6086a,Spanish,13 or older,"no, only English or Spanish",no,2025-07-23_01h18.59.676,empathy_intonation_perc,2024.2.4,MacIntel,60.24096386,6649f870ed4a6b0016a6086a,687ed1b7e638a4cbf2f02089,688070805f635c2c6631a54c,,,,,,,,,,,,,,0,,,,,,,,,,,,,,,,,,,,,,,,,,,,,,,,,,,,,,,,,,,,,,,,,,,,,,,,,32,fatacidad,,,,,525.8959,527.2935,0,1,0.8654,,0,57,57,31,1,REAL,FAKE,,,,,,,,,,,,,,,,,
,,,,,,,,,6649f870ed4a6b0016a6086a,Spanish,13 or older,"no, only English or Spanish",no,2025-07-23_01h18.59.676,empathy_intonation_perc,2024.2.4,MacIntel,60.24096386,6649f870ed4a6b0016a6086a,687ed1b7e638a4cbf2f02089,688070805f635c2c6631a54c,,,,,,,,,,,,,,0,,,,,,,,,,,,,,,,,,,,,,,,,,,,,,,,,,,,,,,,,,,,,,,,,,,,,,,,,84,escuto,,,,,527.2949,528.7777,1,0,0.9621,,0,58,58,83,1,REAL,FAKE,,,,,,,,,,,,,,,,,
,,,,,,,,,6649f870ed4a6b0016a6086a,Spanish,13 or older,"no, only English or Spanish",no,2025-07-23_01h18.59.676,empathy_intonation_perc,2024.2.4,MacIntel,60.24096386,6649f870ed4a6b0016a6086a,687ed1b7e638a4cbf2f02089,688070805f635c2c6631a54c,,,,,,,,,,,,,,0,,,,,,,,,,,,,,,,,,,,,,,,,,,,,,,,,,,,,,,,,,,,,,,,,,,,,,,,,47,cartinar,,,,,528.779,530.0611,0,1,0.7593,,0,59,59,46,1,REAL,FAKE,,,,,,,,,,,,,,,,,
,,,,,,,,,6649f870ed4a6b0016a6086a,Spanish,13 or older,"no, only English or Spanish",no,2025-07-23_01h18.59.676,empathy_intonation_perc,2024.2.4,MacIntel,60.24096386,6649f870ed4a6b0016a6086a,687ed1b7e638a4cbf2f02089,688070805f635c2c6631a54c,,,,,,,,,,,,,,1,,,,,,,,,,,,,,,,,,,,,,,,,,,,,,,,,,,,,,,,,,,,,,,,,,,,,,,,,86,barato,,,,,530.0624,531.311,0,0,0.7165,,0,60,60,85,1,REAL,FAKE,,,,,,,,,,,,,,,,,
,,,,,,,,,6649f870ed4a6b0016a6086a,Spanish,13 or older,"no, only English or Spanish",no,2025-07-23_01h18.59.676,empathy_intonation_perc,2024.2.4,MacIntel,60.24096386,6649f870ed4a6b0016a6086a,687ed1b7e638a4cbf2f02089,688070805f635c2c6631a54c,,,,,,,,,,,,,,1,,,,,,,,,,,,,,,,,,,,,,,,,,,,,,,,,,,,,,,,,,,,,,,,,,,,,,,,,49,ganar,,,,,531.3123,532.5442,1,1,0.707,,0,61,61,48,1,REAL,FAKE,,,,,,,,,,,,,,,,,
,,,,,,,,,6649f870ed4a6b0016a6086a,Spanish,13 or older,"no, only English or Spanish",no,2025-07-23_01h18.59.676,empathy_intonation_perc,2024.2.4,MacIntel,60.24096386,6649f870ed4a6b0016a6086a,687ed1b7e638a4cbf2f02089,688070805f635c2c6631a54c,,,,,,,,,,,,,,1,,,,,,,,,,,,,,,,,,,,,,,,,,,,,,,,,,,,,,,,,,,,,,,,,,,,,,,,,54,fomentar,,,,,532.5451,533.8445,0,0,0.762,,0,62,62,53,1,REAL,FAKE,,,,,,,,,,,,,,,,,
,,,,,,,,,6649f870ed4a6b0016a6086a,Spanish,13 or older,"no, only English or Spanish",no,2025-07-23_01h18.59.676,empathy_intonation_perc,2024.2.4,MacIntel,60.24096386,6649f870ed4a6b0016a6086a,687ed1b7e638a4cbf2f02089,688070805f635c2c6631a54c,,,,,,,,,,,,,,1,,,,,,,,,,,,,,,,,,,,,,,,,,,,,,,,,,,,,,,,,,,,,,,,,,,,,,,,,52,camisa,,,,,533.8457,535.1111,1,1,0.7318,,0,63,63,51,1,REAL,FAKE,,,,,,,,,,,,,,,,,
,,,,,,,,,6649f870ed4a6b0016a6086a,Spanish,13 or older,"no, only English or Spanish",no,2025-07-23_01h18.59.676,empathy_intonation_perc,2024.2.4,MacIntel,60.24096386,6649f870ed4a6b0016a6086a,687ed1b7e638a4cbf2f02089,688070805f635c2c6631a54c,,,,,,,,,,,,,,0,,,,,,,,,,,,,,,,,,,,,,,,,,,,,,,,,,,,,,,,,,,,,,,,,,,,,,,,,4,batillón,,,,,535.1123,536.8613,0,1,1.2144,,0,64,64,3,1,REAL,FAKE,,,,,,,,,,,,,,,,,
,,,,,,,,,6649f870ed4a6b0016a6086a,Spanish,13 or older,"no, only English or Spanish",no,2025-07-23_01h18.59.676,empathy_intonation_perc,2024.2.4,MacIntel,60.24096386,6649f870ed4a6b0016a6086a,687ed1b7e638a4cbf2f02089,688070805f635c2c6631a54c,,,,,,,,,,,,,,0,,,,,,,,,,,,,,,,,,,,,,,,,,,,,,,,,,,,,,,,,,,,,,,,,,,,,,,,,8,cadeña,,,,,536.863,538.1945,0,1,0.7987,,0,65,65,7,1,REAL,FAKE,,,,,,,,,,,,,,,,,
,,,,,,,,,6649f870ed4a6b0016a6086a,Spanish,13 or older,"no, only English or Spanish",no,2025-07-23_01h18.59.676,empathy_intonation_perc,2024.2.4,MacIntel,60.24096386,6649f870ed4a6b0016a6086a,687ed1b7e638a4cbf2f02089,688070805f635c2c6631a54c,,,,,,,,,,,,,,0,,,,,,,,,,,,,,,,,,,,,,,,,,,,,,,,,,,,,,,,,,,,,,,,,,,,,,,,,18,arsa,,,,,538.1958,539.3946,0,1,0.6652,,0,66,66,17,1,REAL,FAKE,,,,,,,,,,,,,,,,,
,,,,,,,,,6649f870ed4a6b0016a6086a,Spanish,13 or older,"no, only English or Spanish",no,2025-07-23_01h18.59.676,empathy_intonation_perc,2024.2.4,MacIntel,60.24096386,6649f870ed4a6b0016a6086a,687ed1b7e638a4cbf2f02089,688070805f635c2c6631a54c,,,,,,,,,,,,,,1,,,,,,,,,,,,,,,,,,,,,,,,,,,,,,,,,,,,,,,,,,,,,,,,,,,,,,,,,51,candado,,,,,539.396,540.9114,1,1,0.9815,,0,67,67,50,1,REAL,FAKE,,,,,,,,,,,,,,,,,
,,,,,,,,,6649f870ed4a6b0016a6086a,Spanish,13 or older,"no, only English or Spanish",no,2025-07-23_01h18.59.676,empathy_intonation_perc,2024.2.4,MacIntel,60.24096386,6649f870ed4a6b0016a6086a,687ed1b7e638a4cbf2f02089,688070805f635c2c6631a54c,,,,,,,,,,,,,,1,,,,,,,,,,,,,,,,,,,,,,,,,,,,,,,,,,,,,,,,,,,,,,,,,,,,,,,,,39,torpe,,,,,540.9129,542.1781,0,0,0.7274,,0,68,68,38,1,REAL,FAKE,,,,,,,,,,,,,,,,,
,,,,,,,,,6649f870ed4a6b0016a6086a,Spanish,13 or older,"no, only English or Spanish",no,2025-07-23_01h18.59.676,empathy_intonation_perc,2024.2.4,MacIntel,60.24096386,6649f870ed4a6b0016a6086a,687ed1b7e638a4cbf2f02089,688070805f635c2c6631a54c,,,,,,,,,,,,,,1,,,,,,,,,,,,,,,,,,,,,,,,,,,,,,,,,,,,,,,,,,,,,,,,,,,,,,,,,3,pulmones,,,,,542.1795,543.4437,0,0,0.7259,,0,69,69,2,1,REAL,FAKE,,,,,,,,,,,,,,,,,
,,,,,,,,,6649f870ed4a6b0016a6086a,Spanish,13 or older,"no, only English or Spanish",no,2025-07-23_01h18.59.676,empathy_intonation_perc,2024.2.4,MacIntel,60.24096386,6649f870ed4a6b0016a6086a,687ed1b7e638a4cbf2f02089,688070805f635c2c6631a54c,,,,,,,,,,,,,,1,,,,,,,,,,,,,,,,,,,,,,,,,,,,,,,,,,,,,,,,,,,,,,,,,,,,,,,,,91,click the 1 key.,,,,,543.4452,544.8614,1,1,0.8789,,0,70,70,90,1,REAL,FAKE,,,,,,,,,,,,,,,,,
,,,,,,,,,6649f870ed4a6b0016a6086a,Spanish,13 or older,"no, only English or Spanish",no,2025-07-23_01h18.59.676,empathy_intonation_perc,2024.2.4,MacIntel,60.24096386,6649f870ed4a6b0016a6086a,687ed1b7e638a4cbf2f02089,688070805f635c2c6631a54c,,,,,,,,,,,,,,1,,,,,,,,,,,,,,,,,,,,,,,,,,,,,,,,,,,,,,,,,,,,,,,,,,,,,,,,,20,ávido,,,,,544.863,546.1948,0,0,0.7953,,0,71,71,19,1,REAL,FAKE,,,,,,,,,,,,,,,,,
,,,,,,,,,6649f870ed4a6b0016a6086a,Spanish,13 or older,"no, only English or Spanish",no,2025-07-23_01h18.59.676,empathy_intonation_perc,2024.2.4,MacIntel,60.24096386,6649f870ed4a6b0016a6086a,687ed1b7e638a4cbf2f02089,688070805f635c2c6631a54c,,,,,,,,,,,,,,1,,,,,,,,,,,,,,,,,,,,,,,,,,,,,,,,,,,,,,,,,,,,,,,,,,,,,,,,,5,zapato,,,,,546.1964,547.3938,1,1,0.6594,,0,72,72,4,1,REAL,FAKE,,,,,,,,,,,,,,,,,
,,,,,,,,,6649f870ed4a6b0016a6086a,Spanish,13 or older,"no, only English or Spanish",no,2025-07-23_01h18.59.676,empathy_intonation_perc,2024.2.4,MacIntel,60.24096386,6649f870ed4a6b0016a6086a,687ed1b7e638a4cbf2f02089,688070805f635c2c6631a54c,,,,,,,,,,,,,,1,,,,,,,,,,,,,,,,,,,,,,,,,,,,,,,,,,,,,,,,,,,,,,,,,,,,,,,,,59,besar,,,,,547.3952,548.6281,1,1,0.7166,,0,73,73,58,1,REAL,FAKE,,,,,,,,,,,,,,,,,
,,,,,,,,,6649f870ed4a6b0016a6086a,Spanish,13 or older,"no, only English or Spanish",no,2025-07-23_01h18.59.676,empathy_intonation_perc,2024.2.4,MacIntel,60.24096386,6649f870ed4a6b0016a6086a,687ed1b7e638a4cbf2f02089,688070805f635c2c6631a54c,,,,,,,,,,,,,,1,,,,,,,,,,,,,,,,,,,,,,,,,,,,,,,,,,,,,,,,,,,,,,,,,,,,,,,,,67,cabello,,,,,548.6294,549.9447,1,1,0.7842,,0,74,74,66,1,REAL,FAKE,,,,,,,,,,,,,,,,,
,,,,,,,,,6649f870ed4a6b0016a6086a,Spanish,13 or older,"no, only English or Spanish",no,2025-07-23_01h18.59.676,empathy_intonation_perc,2024.2.4,MacIntel,60.24096386,6649f870ed4a6b0016a6086a,687ed1b7e638a4cbf2f02089,688070805f635c2c6631a54c,,,,,,,,,,,,,,1,,,,,,,,,,,,,,,,,,,,,,,,,,,,,,,,,,,,,,,,,,,,,,,,,,,,,,,,,62,flaco,,,,,549.9462,551.1273,0,0,0.6485,,0,75,75,61,1,REAL,FAKE,,,,,,,,,,,,,,,,,
,,,,,,,,,6649f870ed4a6b0016a6086a,Spanish,13 or older,"no, only English or Spanish",no,2025-07-23_01h18.59.676,empathy_intonation_perc,2024.2.4,MacIntel,60.24096386,6649f870ed4a6b0016a6086a,687ed1b7e638a4cbf2f02089,688070805f635c2c6631a54c,,,,,,,,,,,,,,0,,,,,,,,,,,,,,,,,,,,,,,,,,,,,,,,,,,,,,,,,,,,,,,,,,,,,,,,,53,vegada,,,,,551.1287,552.7282,0,1,1.0836,,0,76,76,52,1,REAL,FAKE,,,,,,,,,,,,,,,,,
,,,,,,,,,6649f870ed4a6b0016a6086a,Spanish,13 or older,"no, only English or Spanish",no,2025-07-23_01h18.59.676,empathy_intonation_perc,2024.2.4,MacIntel,60.24096386,6649f870ed4a6b0016a6086a,687ed1b7e638a4cbf2f02089,688070805f635c2c6631a54c,,,,,,,,,,,,,,1,,,,,,,,,,,,,,,,,,,,,,,,,,,,,,,,,,,,,,,,,,,,,,,,,,,,,,,,,78,frondoso,,,,,552.7293,553.8778,0,0,0.6121,,0,77,77,77,1,REAL,FAKE,,,,,,,,,,,,,,,,,
,,,,,,,,,6649f870ed4a6b0016a6086a,Spanish,13 or older,"no, only English or Spanish",no,2025-07-23_01h18.59.676,empathy_intonation_perc,2024.2.4,MacIntel,60.24096386,6649f870ed4a6b0016a6086a,687ed1b7e638a4cbf2f02089,688070805f635c2c6631a54c,,,,,,,,,,,,,,1,,,,,,,,,,,,,,,,,,,,,,,,,,,,,,,,,,,,,,,,,,,,,,,,,,,,,,,,,43,canela,,,,,553.8786,555.1449,0,0,0.7414,,0,78,78,42,1,REAL,FAKE,,,,,,,,,,,,,,,,,
,,,,,,,,,6649f870ed4a6b0016a6086a,Spanish,13 or older,"no, only English or Spanish",no,2025-07-23_01h18.59.676,empathy_intonation_perc,2024.2.4,MacIntel,60.24096386,6649f870ed4a6b0016a6086a,687ed1b7e638a4cbf2f02089,688070805f635c2c6631a54c,,,,,,,,,,,,,,0,,,,,,,,,,,,,,,,,,,,,,,,,,,,,,,,,,,,,,,,,,,,,,,,,,,,,,,,,17,floroso,,,,,555.1463,556.5114,0,1,0.8331,,0,79,79,16,1,REAL,FAKE,,,,,,,,,,,,,,,,,
,,,,,,,,,6649f870ed4a6b0016a6086a,Spanish,13 or older,"no, only English or Spanish",no,2025-07-23_01h18.59.676,empathy_intonation_perc,2024.2.4,MacIntel,60.24096386,6649f870ed4a6b0016a6086a,687ed1b7e638a4cbf2f02089,688070805f635c2c6631a54c,,,,,,,,,,,,,,1,,,,,,,,,,,,,,,,,,,,,,,,,,,,,,,,,,,,,,,,,,,,,,,,,,,,,,,,,48,ladrón,,,,,556.5128,557.6949,0,0,0.6463,,0,80,80,47,1,REAL,FAKE,,,,,,,,,,,,,,,,,
,,,,,,,,,6649f870ed4a6b0016a6086a,Spanish,13 or older,"no, only English or Spanish",no,2025-07-23_01h18.59.676,empathy_intonation_perc,2024.2.4,MacIntel,60.24096386,6649f870ed4a6b0016a6086a,687ed1b7e638a4cbf2f02089,688070805f635c2c6631a54c,,,,,,,,,,,,,,0,,,,,,,,,,,,,,,,,,,,,,,,,,,,,,,,,,,,,,,,,,,,,,,,,,,,,,,,,42,cadallo,,,,,557.6964,558.9617,0,1,0.7437,,0,81,81,41,1,REAL,FAKE,,,,,,,,,,,,,,,,,
,,,,,,,,,6649f870ed4a6b0016a6086a,Spanish,13 or older,"no, only English or Spanish",no,2025-07-23_01h18.59.676,empathy_intonation_perc,2024.2.4,MacIntel,60.24096386,6649f870ed4a6b0016a6086a,687ed1b7e638a4cbf2f02089,688070805f635c2c6631a54c,,,,,,,,,,,,,,1,,,,,,,,,,,,,,,,,,,,,,,,,,,,,,,,,,,,,,,,,,,,,,,,,,,,,,,,,57,tacaño,,,,,558.9631,560.7783,1,1,1.2758,,0,82,82,56,1,REAL,FAKE,,,,,,,,,,,,,,,,,
,,,,,,,,,6649f870ed4a6b0016a6086a,Spanish,13 or older,"no, only English or Spanish",no,2025-07-23_01h18.59.676,empathy_intonation_perc,2024.2.4,MacIntel,60.24096386,6649f870ed4a6b0016a6086a,687ed1b7e638a4cbf2f02089,688070805f635c2c6631a54c,,,,,,,,,,,,,,0,,,,,,,,,,,,,,,,,,,,,,,,,,,,,,,,,,,,,,,,,,,,,,,,,,,,,,,,,87,grodo,,,,,560.7796,562.0283,1,0,0.7145,,0,83,83,86,1,REAL,FAKE,,,,,,,,,,,,,,,,,
,,,,,,,,,6649f870ed4a6b0016a6086a,Spanish,13 or older,"no, only English or Spanish",no,2025-07-23_01h18.59.676,empathy_intonation_perc,2024.2.4,MacIntel,60.24096386,6649f870ed4a6b0016a6086a,687ed1b7e638a4cbf2f02089,688070805f635c2c6631a54c,,,,,,,,,,,,,,0,,,,,,,,,,,,,,,,,,,,,,,,,,,,,,,,,,,,,,,,,,,,,,,,,,,,,,,,,30,alardio,,,,,562.0296,563.1617,0,1,0.5961,,0,84,84,29,1,REAL,FAKE,,,,,,,,,,,,,,,,,
,,,,,,,,,6649f870ed4a6b0016a6086a,Spanish,13 or older,"no, only English or Spanish",no,2025-07-23_01h18.59.676,empathy_intonation_perc,2024.2.4,MacIntel,60.24096386,6649f870ed4a6b0016a6086a,687ed1b7e638a4cbf2f02089,688070805f635c2c6631a54c,,,,,,,,,,,,,,1,,,,,,,,,,,,,,,,,,,,,,,,,,,,,,,,,,,,,,,,,,,,,,,,,,,,,,,,,65,bizcocho,,,,,563.1629,564.5284,0,0,0.8309,,0,85,85,64,1,REAL,FAKE,,,,,,,,,,,,,,,,,
,,,,,,,,,6649f870ed4a6b0016a6086a,Spanish,13 or older,"no, only English or Spanish",no,2025-07-23_01h18.59.676,empathy_intonation_perc,2024.2.4,MacIntel,60.24096386,6649f870ed4a6b0016a6086a,687ed1b7e638a4cbf2f02089,688070805f635c2c6631a54c,,,,,,,,,,,,,,0,,,,,,,,,,,,,,,,,,,,,,,,,,,,,,,,,,,,,,,,,,,,,,,,,,,,,,,,,23,lampera,,,,,564.5298,565.9617,1,0,0.8958,,0,86,86,22,1,REAL,FAKE,,,,,,,,,,,,,,,,,
,,,,,,,,,6649f870ed4a6b0016a6086a,Spanish,13 or older,"no, only English or Spanish",no,2025-07-23_01h18.59.676,empathy_intonation_perc,2024.2.4,MacIntel,60.24096386,6649f870ed4a6b0016a6086a,687ed1b7e638a4cbf2f02089,688070805f635c2c6631a54c,,,,,,,,,,,,,,1,,,,,,,,,,,,,,,,,,,,,,,,,,,,,,,,,,,,,,,,,,,,,,,,,,,,,,,,,7,pésimo,,,,,565.9632,567.3117,1,1,0.8124,,0,87,87,6,1,REAL,FAKE,,,,,,,,,,,,,,,,,
,,,,,,,,,6649f870ed4a6b0016a6086a,Spanish,13 or older,"no, only English or Spanish",no,2025-07-23_01h18.59.676,empathy_intonation_perc,2024.2.4,MacIntel,60.24096386,6649f870ed4a6b0016a6086a,687ed1b7e638a4cbf2f02089,688070805f635c2c6631a54c,,,,,,,,,,,,,,0,,,,,,,,,,,,,,,,,,,,,,,,,,,,,,,,,,,,,,,,,,,,,,,,,,,,,,,,,16,abracer,,,,,567.3132,568.4444,0,1,0.596,,0,88,88,15,1,REAL,FAKE,,,,,,,,,,,,,,,,,
,,,,,,,,,6649f870ed4a6b0016a6086a,Spanish,13 or older,"no, only English or Spanish",no,2025-07-23_01h18.59.676,empathy_intonation_perc,2024.2.4,MacIntel,60.24096386,6649f870ed4a6b0016a6086a,687ed1b7e638a4cbf2f02089,688070805f635c2c6631a54c,,,,,,,,,,,,,,1,,,,,,,,,,,,,,,,,,,,,,,,,,,,,,,,,,,,,,,,,,,,,,,,,,,,,,,,,38,estornudar,,,,,568.4459,570.0792,0,0,1.1263,,0,89,89,37,1,REAL,FAKE,,,,,,,,,,,,,,,,,
,,,,,,,,,6649f870ed4a6b0016a6086a,Spanish,13 or older,"no, only English or Spanish",no,2025-07-23_01h18.59.676,empathy_intonation_perc,2024.2.4,MacIntel,60.24096386,6649f870ed4a6b0016a6086a,687ed1b7e638a4cbf2f02089,688070805f635c2c6631a54c,,,,,,,,,,,,,,1,,,,,,,,,,,,,,,,,,,,,,,,,,,,,,,,,,,,,,,,,,,,,,,,,,,,,,,,,90,clavel,,,,,570.0805,571.2952,0,0,0.6777,,0,90,90,89,1,REAL,FAKE,,,,,,,,,,,,,,,,,
,,,,,,,,,6649f870ed4a6b0016a6086a,Spanish,13 or older,"no, only English or Spanish",no,2025-07-23_01h18.59.676,empathy_intonation_perc,2024.2.4,MacIntel,60.24096386,6649f870ed4a6b0016a6086a,687ed1b7e638a4cbf2f02089,688070805f635c2c6631a54c,,,,,,,,,,,,,,1,,,,,,,,,,,,,,,,,,,,,,,,,,,,,,,,,,,,,,,,,,,,,,,,,,,,,,,,,56,musgo,,,,,571.2966,572.5943,0,0,0.764,,0,91,91,55,1,REAL,FAKE,,,,,,,,,,,,,,,,,
,,,,,,,,,6649f870ed4a6b0016a6086a,Spanish,13 or older,"no, only English or Spanish",no,2025-07-23_01h18.59.676,empathy_intonation_perc,2024.2.4,MacIntel,60.24096386,6649f870ed4a6b0016a6086a,687ed1b7e638a4cbf2f02089,688070805f635c2c6631a54c,,,,,,,,,,,,,,,,,,,,,,,,,,,,,,,,,,,,,,,,,,,,,,,,,,,,,,,,,,,,,,,,,,,,,,,,,,,,,,,,,,,,,,,,,,572.5948,579.3789,,,,,,,,,,,,,,,
,,,,,,,,,6649f870ed4a6b0016a6086a,Spanish,13 or older,"no, only English or Spanish",no,2025-07-23_01h18.59.676,empathy_intonation_perc,2024.2.4,MacIntel,60.24096386,6649f870ed4a6b0016a6086a,687ed1b7e638a4cbf2f02089,688070805f635c2c6631a54c,,,,,,,,,,,,,1,,,,,,,,,,,,,,,,,,,,,,,,,,,,,,,,,,,,,,,,,,,,,,,,,,,,,,,,,,,,,,,,,,,,,,,,,,,,,,,579.3907,587.6112,strongly agree,0,0,0,0,1,I can easily tell if someone else wants to enter a conversation.,1,0,1,0,,
,,,,,,,,,6649f870ed4a6b0016a6086a,Spanish,13 or older,"no, only English or Spanish",no,2025-07-23_01h18.59.676,empathy_intonation_perc,2024.2.4,MacIntel,60.24096386,6649f870ed4a6b0016a6086a,687ed1b7e638a4cbf2f02089,688070805f635c2c6631a54c,,,,,,,,,,,,,2,,,,,,,,,,,,,,,,,,,,,,,,,,,,,,,,,,,,,,,,,,,,,,,,,,,,,,,,,,,,,,,,,,,,,,,,,,,,,,,587.6128,592.1788,strongly disagree,0,1,1,1,1,I prefer animals to humans.,0,1,0,0,,
,,,,,,,,,6649f870ed4a6b0016a6086a,Spanish,13 or older,"no, only English or Spanish",no,2025-07-23_01h18.59.676,empathy_intonation_perc,2024.2.4,MacIntel,60.24096386,6649f870ed4a6b0016a6086a,687ed1b7e638a4cbf2f02089,688070805f635c2c6631a54c,,,,,,,,,,,,,3,,,,,,,,,,,,,,,,,,,,,,,,,,,,,,,,,,,,,,,,,,,,,,,,,,,,,,,,,,,,,,,,,,,,,,,,,,,,,,,592.1804,594.5954,strongly agree,0,2,2,2,1,I try to keep up with the current trends and fashions.,0,1,0,0,,
,,,,,,,,,6649f870ed4a6b0016a6086a,Spanish,13 or older,"no, only English or Spanish",no,2025-07-23_01h18.59.676,empathy_intonation_perc,2024.2.4,MacIntel,60.24096386,6649f870ed4a6b0016a6086a,687ed1b7e638a4cbf2f02089,688070805f635c2c6631a54c,,,,,,,,,,,,,4,,,,,,,,,,,,,,,,,,,,,,,,,,,,,,,,,,,,,,,,,,,,,,,,,,,,,,,,,,,,,,,,,,,,,,,,,,,,,,,594.5968,601.9624,slightly agree,0,3,3,3,1,"I find it difficult to explain to others things that I understand easily,   when they don't understand it first time.",1,0,0,1,,
,,,,,,,,,6649f870ed4a6b0016a6086a,Spanish,13 or older,"no, only English or Spanish",no,2025-07-23_01h18.59.676,empathy_intonation_perc,2024.2.4,MacIntel,60.24096386,6649f870ed4a6b0016a6086a,687ed1b7e638a4cbf2f02089,688070805f635c2c6631a54c,,,,,,,,,,,,,5,,,,,,,,,,,,,,,,,,,,,,,,,,,,,,,,,,,,,,,,,,,,,,,,,,,,,,,,,,,,,,,,,,,,,,,,,,,,,,,601.9639,604.2112,slightly agree,0,4,4,4,1,I dream most nights.,0,1,0,0,,
,,,,,,,,,6649f870ed4a6b0016a6086a,Spanish,13 or older,"no, only English or Spanish",no,2025-07-23_01h18.59.676,empathy_intonation_perc,2024.2.4,MacIntel,60.24096386,6649f870ed4a6b0016a6086a,687ed1b7e638a4cbf2f02089,688070805f635c2c6631a54c,,,,,,,,,,,,,6,,,,,,,,,,,,,,,,,,,,,,,,,,,,,,,,,,,,,,,,,,,,,,,,,,,,,,,,,,,,,,,,,,,,,,,,,,,,,,,604.212,605.7789,slightly agree,0,5,5,5,1,I really enjoy caring for other people.,1,0,1,0,,
,,,,,,,,,6649f870ed4a6b0016a6086a,Spanish,13 or older,"no, only English or Spanish",no,2025-07-23_01h18.59.676,empathy_intonation_perc,2024.2.4,MacIntel,60.24096386,6649f870ed4a6b0016a6086a,687ed1b7e638a4cbf2f02089,688070805f635c2c6631a54c,,,,,,,,,,,,,7,,,,,,,,,,,,,,,,,,,,,,,,,,,,,,,,,,,,,,,,,,,,,,,,,,,,,,,,,,,,,,,,,,,,,,,,,,,,,,,605.7807,608.6119,slightly disagree,0,6,6,6,1,I try to solve my own problems rather than discussing them with others.,0,1,0,0,,
,,,,,,,,,6649f870ed4a6b0016a6086a,Spanish,13 or older,"no, only English or Spanish",no,2025-07-23_01h18.59.676,empathy_intonation_perc,2024.2.4,MacIntel,60.24096386,6649f870ed4a6b0016a6086a,687ed1b7e638a4cbf2f02089,688070805f635c2c6631a54c,,,,,,,,,,,,,8,,,,,,,,,,,,,,,,,,,,,,,,,,,,,,,,,,,,,,,,,,,,,,,,,,,,,,,,,,,,,,,,,,,,,,,,,,,,,,,608.6134,610.6124,strongly disagree,0,7,7,7,1,I find it hard to know what to do in a social situation.,1,0,0,1,,
