instructions_exposure.started,instructions_exposure.stopped,instructions_exposure_loop.thisRepN,instructions_exposure_loop.thisTrialN,instructions_exposure_loop.thisN,instructions_exposure_loop.thisIndex,instructions_exposure_loop.ran,instructions_text,continue_text,participant_id,"What variety of Spanish are you most familiar with? (e.g., Peruvian, Spanish, Mexican)",At what age did you begin learning Spanish?,Are you proficient in any languages other than English/Spanish?,"Are you familiar with Caribbean (e.g., Caribbean, Puerto Rican) or Galician Spanish?",date,expName,psychopyVersion,OS,frameRate,id,study_id,session,trial_exposure.started,trial_exposure.stopped,key_resp_exposure.keys,key_resp_exposure.corr,key_resp_exposure.rt,key_resp_exposure.duration,key_resp.keys,exposure_loop.thisRepN,exposure_loop.thisTrialN,exposure_loop.thisN,exposure_loop.thisIndex,exposure_loop.ran,item_num,correct_response,question,path,duration,instructions_2afc.started,instructions_2afc.stopped,instructions_2afc_loop.thisRepN,instructions_2afc_loop.thisTrialN,instructions_2afc_loop.thisN,instructions_2afc_loop.thisIndex,instructions_2afc_loop.ran,practice_2afc.started,practice_2afc.stopped,key_resp_2afc_practice.keys,key_resp_2afc_practice.corr,key_resp_2afc_practice.rt,key_resp_2afc_practice.duration,trials_2afc_practice_loop.thisRepN,trials_2afc_practice_loop.thisTrialN,trials_2afc_practice_loop.thisN,trials_2afc_practice_loop.thisIndex,trials_2afc_practice_loop.ran,check_2afc.started,check_2afc.stopped,trial_2afc.started,trial_2afc.stopped,key_resp_2afc_trial.keys,key_resp_2afc_trial.corr,key_resp_2afc_trial.rt,key_resp_2afc_trial.duration,trials_2afc_loop.thisRepN,trials_2afc_loop.thisTrialN,trials_2afc_loop.thisN,trials_2afc_loop.thisIndex,trials_2afc_loop.ran,target,variety,instructions_lextale.started,instructions_lextale.stopped,instructions_lextale_loop.thisRepN,instructions_lextale_loop.thisTrialN,instructions_lextale_loop.thisN,instructions_lextale_loop.thisIndex,instructions_lextale_loop.ran,practice_lextale.started,practice_lextale.stopped,key_resp_lextale_practice.keys,key_resp_lextale_practice.corr,key_resp_lextale_practice.rt,key_resp_lextale_practice.duration,practice_feedback_lextale.started,practice_feedback_lextale.stopped,trials_lextale_practice_loop.thisRepN,trials_lextale_practice_loop.thisTrialN,trials_lextale_practice_loop.thisN,trials_lextale_practice_loop.thisIndex,trials_lextale_practice_loop.ran,stim,word,prac_button_real,prac_button_false,check_lextale.started,check_lextale.stopped,trial_lextale.started,trial_lextale.stopped,key_resp_lextale_trial.keys,key_resp_lextale_trial.corr,key_resp_lextale_trial.rt,key_resp_lextale_trial.duration,trials_lextale_loop.thisRepN,trials_lextale_loop.thisTrialN,trials_lextale_loop.thisN,trials_lextale_loop.thisIndex,trials_lextale_loop.ran,button_real,button_false,instructions_eq.started,instructions_eq.stopped,trial_eq.started,trial_eq.stopped,slider_eq_trial.response,trials_eq_loop.thisRepN,trials_eq_loop.thisTrialN,trials_eq_loop.thisN,trials_eq_loop.thisIndex,trials_eq_loop.ran,item,is_test_item,is_distractor,is_agree_score,is_disagree_score,end_exp.started,end_exp.stopped
0.0105,19.7294,0,0,0,0,1,"In the following task, you are going to hear a series of conversations.", (press the space bar to continue),6664dfc807e75330a8b54a8b,Spanish,13 or older,"yes, I am fluent in another language",no,2025-07-23_04h29.39.267,empathy_intonation_perc,2024.2.4,Win32,60.24096386,6664dfc807e75330a8b54a8b,687ed1b7e638a4cbf2f02089,68809c1ed83cdc19d6115776,,,,,,,,,,,,,,,,,,,,,,,,,,,,,,,,,,,,,,,,,,,,,,,,,,,,,,,,,,,,,,,,,,,,,,,,,,,,,,,,,,,,,,,,,,,,,,,,,,,,,,,,,,
19.7297,22.23,0,1,1,1,1,It is okay if you don't not 100% understand them!, (press the space bar to continue),6664dfc807e75330a8b54a8b,Spanish,13 or older,"yes, I am fluent in another language",no,2025-07-23_04h29.39.267,empathy_intonation_perc,2024.2.4,Win32,60.24096386,6664dfc807e75330a8b54a8b,687ed1b7e638a4cbf2f02089,68809c1ed83cdc19d6115776,,,,,,,,,,,,,,,,,,,,,,,,,,,,,,,,,,,,,,,,,,,,,,,,,,,,,,,,,,,,,,,,,,,,,,,,,,,,,,,,,,,,,,,,,,,,,,,,,,,,,,,,,,
22.2308,24.9792,0,2,2,2,1,"After, you will read a sentence about the conversation and decide if it's true or false.", (press the space bar to continue),6664dfc807e75330a8b54a8b,Spanish,13 or older,"yes, I am fluent in another language",no,2025-07-23_04h29.39.267,empathy_intonation_perc,2024.2.4,Win32,60.24096386,6664dfc807e75330a8b54a8b,687ed1b7e638a4cbf2f02089,68809c1ed83cdc19d6115776,,,,,,,,,,,,,,,,,,,,,,,,,,,,,,,,,,,,,,,,,,,,,,,,,,,,,,,,,,,,,,,,,,,,,,,,,,,,,,,,,,,,,,,,,,,,,,,,,,,,,,,,,,
24.9802,27.1643,0,3,3,3,1,"If it's true, press '1' (True) and if it's false press '0' (False).", (press the space bar to continue),6664dfc807e75330a8b54a8b,Spanish,13 or older,"yes, I am fluent in another language",no,2025-07-23_04h29.39.267,empathy_intonation_perc,2024.2.4,Win32,60.24096386,6664dfc807e75330a8b54a8b,687ed1b7e638a4cbf2f02089,68809c1ed83cdc19d6115776,,,,,,,,,,,,,,,,,,,,,,,,,,,,,,,,,,,,,,,,,,,,,,,,,,,,,,,,,,,,,,,,,,,,,,,,,,,,,,,,,,,,,,,,,,,,,,,,,,,,,,,,,,
,,,,,,,,,6664dfc807e75330a8b54a8b,Spanish,13 or older,"yes, I am fluent in another language",no,2025-07-23_04h29.39.267,empathy_intonation_perc,2024.2.4,Win32,60.24096386,6664dfc807e75330a8b54a8b,687ed1b7e638a4cbf2f02089,68809c1ed83cdc19d6115776,27.1688,91.5133,1,1,4.2965,,,0,0,0,1,1,2,1,The mom asked the daughter if she already went to the supermarket.,./stim/exposure_wavs/dr_stimuli_convo.wav,60,,,,,,,,,,,,,,,,,,,,,,,,,,,,,,,,,,,,,,,,,,,,,,,,,,,,,,,,,,,,,,,,,,,,,,,,,,,,,,,,,,,,,,,,,
,,,,,,,,,6664dfc807e75330a8b54a8b,Spanish,13 or older,"yes, I am fluent in another language",no,2025-07-23_04h29.39.267,empathy_intonation_perc,2024.2.4,Win32,60.24096386,6664dfc807e75330a8b54a8b,687ed1b7e638a4cbf2f02089,68809c1ed83cdc19d6115776,91.5143,133.4158,0,1,5.8677,,,0,1,1,2,1,3,0,The mom already has rice.,./stim/exposure_wavs/pr_stimuli_convo.wav,36,,,,,,,,,,,,,,,,,,,,,,,,,,,,,,,,,,,,,,,,,,,,,,,,,,,,,,,,,,,,,,,,,,,,,,,,,,,,,,,,,,,,,,,,,
,,,,,,,,,6664dfc807e75330a8b54a8b,Spanish,13 or older,"yes, I am fluent in another language",no,2025-07-23_04h29.39.267,empathy_intonation_perc,2024.2.4,Win32,60.24096386,6664dfc807e75330a8b54a8b,687ed1b7e638a4cbf2f02089,68809c1ed83cdc19d6115776,133.4165,225.181,1,1,44.7214,,,0,2,2,0,1,1,1,The son asked the mom if Aunt Marina is okay.,./stim/exposure_wavs/ga_stimuli_convo.wav,47,,,,,,,,,,,,,,,,,,,,,,,,,,,,,,,,,,,,,,,,,,,,,,,,,,,,,,,,,,,,,,,,,,,,,,,,,,,,,,,,,,,,,,,,,
,,,,,,,"In the following task you are going to hear a series of utterances. 

  You will decide if the utterances sound like questions or not using your keyboard.", (press the spacebar to continue),6664dfc807e75330a8b54a8b,Spanish,13 or older,"yes, I am fluent in another language",no,2025-07-23_04h29.39.267,empathy_intonation_perc,2024.2.4,Win32,60.24096386,6664dfc807e75330a8b54a8b,687ed1b7e638a4cbf2f02089,68809c1ed83cdc19d6115776,,,,,,,,,,,,,,,,,,225.1836,233.4818,0,0,0,0,1,,,,,,,,,,,,,,,,,,,,,,,,,,,,,,,,,,,,,,,,,,,,,,,,,,,,,,,,,,,,,,,,,,,,,,,,,,,,,,,,,,
,,,,,,,"If you believe the utterance is a question, type '1' (for 'yes') and if you do not 
  believe it is a question type '0' (for 'no').

  Let's practice a bit...", (press the spacebar to continue),6664dfc807e75330a8b54a8b,Spanish,13 or older,"yes, I am fluent in another language",no,2025-07-23_04h29.39.267,empathy_intonation_perc,2024.2.4,Win32,60.24096386,6664dfc807e75330a8b54a8b,687ed1b7e638a4cbf2f02089,68809c1ed83cdc19d6115776,,,,,,,,,,,,,,,,,,233.4858,241.1478,0,1,1,1,1,,,,,,,,,,,,,,,,,,,,,,,,,,,,,,,,,,,,,,,,,,,,,,,,,,,,,,,,,,,,,,,,,,,,,,,,,,,,,,,,,,
,,,,,,,,,6664dfc807e75330a8b54a8b,Spanish,13 or older,"yes, I am fluent in another language",no,2025-07-23_04h29.39.267,empathy_intonation_perc,2024.2.4,Win32,60.24096386,6664dfc807e75330a8b54a8b,687ed1b7e638a4cbf2f02089,68809c1ed83cdc19d6115776,,,,,,,,,,,,,,1,,./stim/wavs/mexican_question_filler_Felipe-no-tiene-contrasena.wav,,,,,,,,,241.1511,245.3978,1,1,3.7194,,0,0,0,3,1,,,,,,,,,,,,,,,,,,,,,,,,,,,,,,,,,,,,,,,,,,,,,,,,,,,,,,,,,,,,,,,,,,,,,,,
,,,,,,,,,6664dfc807e75330a8b54a8b,Spanish,13 or older,"yes, I am fluent in another language",no,2025-07-23_04h29.39.267,empathy_intonation_perc,2024.2.4,Win32,60.24096386,6664dfc807e75330a8b54a8b,687ed1b7e638a4cbf2f02089,68809c1ed83cdc19d6115776,,,,,,,,,,,,,,0,,./stim/wavs/andalusian_statement_filler_Alberto-nunca-se-afeita.wav,,,,,,,,,245.3981,248.0311,0,1,2.108,,0,1,1,5,1,,,,,,,,,,,,,,,,,,,,,,,,,,,,,,,,,,,,,,,,,,,,,,,,,,,,,,,,,,,,,,,,,,,,,,,
,,,,,,,,,6664dfc807e75330a8b54a8b,Spanish,13 or older,"yes, I am fluent in another language",no,2025-07-23_04h29.39.267,empathy_intonation_perc,2024.2.4,Win32,60.24096386,6664dfc807e75330a8b54a8b,687ed1b7e638a4cbf2f02089,68809c1ed83cdc19d6115776,,,,,,,,,,,,,,1,,./stim/wavs/chilean_question_filler_Mi-padre-cantaba-bien.wav,,,,,,,,,248.0314,251.431,0,0,2.8642,,0,2,2,2,1,,,,,,,,,,,,,,,,,,,,,,,,,,,,,,,,,,,,,,,,,,,,,,,,,,,,,,,,,,,,,,,,,,,,,,,
,,,,,,,,,6664dfc807e75330a8b54a8b,Spanish,13 or older,"yes, I am fluent in another language",no,2025-07-23_04h29.39.267,empathy_intonation_perc,2024.2.4,Win32,60.24096386,6664dfc807e75330a8b54a8b,687ed1b7e638a4cbf2f02089,68809c1ed83cdc19d6115776,,,,,,,,,,,,,,0,,./stim/wavs/cuban_statement_filler_Cocinabas-por-la-noche.wav,,,,,,,,,251.4313,253.7483,1,0,1.7808,,0,3,3,4,1,,,,,,,,,,,,,,,,,,,,,,,,,,,,,,,,,,,,,,,,,,,,,,,,,,,,,,,,,,,,,,,,,,,,,,,
,,,,,,,,,6664dfc807e75330a8b54a8b,Spanish,13 or older,"yes, I am fluent in another language",no,2025-07-23_04h29.39.267,empathy_intonation_perc,2024.2.4,Win32,60.24096386,6664dfc807e75330a8b54a8b,687ed1b7e638a4cbf2f02089,68809c1ed83cdc19d6115776,,,,,,,,,,,,,,0,,./stim/wavs/puertorican_statement_filler_La-nina-pinta-con-su-amiga.wav,,,,,,,,,253.7495,256.5316,1,0,2.2756,,0,4,4,7,1,,,,,,,,,,,,,,,,,,,,,,,,,,,,,,,,,,,,,,,,,,,,,,,,,,,,,,,,,,,,,,,,,,,,,,,
,,,,,,,,,6664dfc807e75330a8b54a8b,Spanish,13 or older,"yes, I am fluent in another language",no,2025-07-23_04h29.39.267,empathy_intonation_perc,2024.2.4,Win32,60.24096386,6664dfc807e75330a8b54a8b,687ed1b7e638a4cbf2f02089,68809c1ed83cdc19d6115776,,,,,,,,,,,,,,0,,./stim/wavs/peruvian_statement_filler_El-nino-habla-con-su-madre.wav,,,,,,,,,256.5327,261.0001,0,1,3.9495,,0,5,5,6,1,,,,,,,,,,,,,,,,,,,,,,,,,,,,,,,,,,,,,,,,,,,,,,,,,,,,,,,,,,,,,,,,,,,,,,,
,,,,,,,,,6664dfc807e75330a8b54a8b,Spanish,13 or older,"yes, I am fluent in another language",no,2025-07-23_04h29.39.267,empathy_intonation_perc,2024.2.4,Win32,60.24096386,6664dfc807e75330a8b54a8b,687ed1b7e638a4cbf2f02089,68809c1ed83cdc19d6115776,,,,,,,,,,,,,,1,,./stim/wavs/argentine_question_filler_Mi-vecino-habla-mucho.wav,,,,,,,,,261.0004,265.0647,1,1,3.5379,,0,6,6,1,1,,,,,,,,,,,,,,,,,,,,,,,,,,,,,,,,,,,,,,,,,,,,,,,,,,,,,,,,,,,,,,,,,,,,,,,
,,,,,,,,,6664dfc807e75330a8b54a8b,Spanish,13 or older,"yes, I am fluent in another language",no,2025-07-23_04h29.39.267,empathy_intonation_perc,2024.2.4,Win32,60.24096386,6664dfc807e75330a8b54a8b,687ed1b7e638a4cbf2f02089,68809c1ed83cdc19d6115776,,,,,,,,,,,,,,1,,./stim/wavs/castilian_question_filler_Mi-esposo-conoce-al-chico.wav,,,,,,,,,265.0651,269.5987,1,1,4.0094,,0,7,7,0,1,,,,,,,,,,,,,,,,,,,,,,,,,,,,,,,,,,,,,,,,,,,,,,,,,,,,,,,,,,,,,,,,,,,,,,,
,,,,,,,,,6664dfc807e75330a8b54a8b,Spanish,13 or older,"yes, I am fluent in another language",no,2025-07-23_04h29.39.267,empathy_intonation_perc,2024.2.4,Win32,60.24096386,6664dfc807e75330a8b54a8b,687ed1b7e638a4cbf2f02089,68809c1ed83cdc19d6115776,,,,,,,,,,,,,,,,,,,,,,,,,,,,,,,,,,,,269.5994,274.4816,,,,,,,,,,,,,,,,,,,,,,,,,,,,,,,,,,,,,,,,,,,,,,,,,,,,,,,,,,,,,,,,,,,,,
,,,,,,,,,6664dfc807e75330a8b54a8b,Spanish,13 or older,"yes, I am fluent in another language",no,2025-07-23_04h29.39.267,empathy_intonation_perc,2024.2.4,Win32,60.24096386,6664dfc807e75330a8b54a8b,687ed1b7e638a4cbf2f02089,68809c1ed83cdc19d6115776,,,,,,,,,,,,,11,1,,./stim/wavs/cuban_match_interrogative-total-yn_Mariano-habla-del-tiempo.wav,,,,,,,,,,,,,,,,,,,,,,274.4864,277.1325,0,0,2.1238,,0,0,0,10,1,1,cuban,,,,,,,,,,,,,,,,,,,,,,,,,,,,,,,,,,,,,,,,,,,,,,,,,,,,,,,,
,,,,,,,,,6664dfc807e75330a8b54a8b,Spanish,13 or older,"yes, I am fluent in another language",no,2025-07-23_04h29.39.267,empathy_intonation_perc,2024.2.4,Win32,60.24096386,6664dfc807e75330a8b54a8b,687ed1b7e638a4cbf2f02089,68809c1ed83cdc19d6115776,,,,,,,,,,,,,79,0,,./stim/wavs/mexican_mismatch_declarative-broad-focus_El-bebe-comia-muy-bien.wav,,,,,,,,,,,,,,,,,,,,,,277.1336,279.248,1,0,1.5806,,0,1,1,78,1,0,mexican,,,,,,,,,,,,,,,,,,,,,,,,,,,,,,,,,,,,,,,,,,,,,,,,,,,,,,,,
,,,,,,,,,6664dfc807e75330a8b54a8b,Spanish,13 or older,"yes, I am fluent in another language",no,2025-07-23_04h29.39.267,empathy_intonation_perc,2024.2.4,Win32,60.24096386,6664dfc807e75330a8b54a8b,687ed1b7e638a4cbf2f02089,68809c1ed83cdc19d6115776,,,,,,,,,,,,,52,0,,./stim/wavs/cuban_match_declarative-broad-focus_Daniel-iba-a-Bolivia.wav,,,,,,,,,,,,,,,,,,,,,,279.2483,281.7314,1,0,1.9582,,0,2,2,51,1,0,cuban,,,,,,,,,,,,,,,,,,,,,,,,,,,,,,,,,,,,,,,,,,,,,,,,,,,,,,,,
,,,,,,,,,6664dfc807e75330a8b54a8b,Spanish,13 or older,"yes, I am fluent in another language",no,2025-07-23_04h29.39.267,empathy_intonation_perc,2024.2.4,Win32,60.24096386,6664dfc807e75330a8b54a8b,687ed1b7e638a4cbf2f02089,68809c1ed83cdc19d6115776,,,,,,,,,,,,,3,1,,./stim/wavs/castilian_match_interrogative-total-yn_Manuela-vende-el-carro.wav,,,,,,,,,,,,,,,,,,,,,,281.7317,284.233,1,1,1.9823,,0,3,3,2,1,0,castilian,,,,,,,,,,,,,,,,,,,,,,,,,,,,,,,,,,,,,,,,,,,,,,,,,,,,,,,,
,,,,,,,,,6664dfc807e75330a8b54a8b,Spanish,13 or older,"yes, I am fluent in another language",no,2025-07-23_04h29.39.267,empathy_intonation_perc,2024.2.4,Win32,60.24096386,6664dfc807e75330a8b54a8b,687ed1b7e638a4cbf2f02089,68809c1ed83cdc19d6115776,,,,,,,,,,,,,83,0,,./stim/wavs/mexican_mismatch_declarative-broad-focus_Mi-tia-odia-la-lluvia.wav,,,,,,,,,,,,,,,,,,,,,,284.2333,286.865,0,1,2.1044,,0,4,4,82,1,0,mexican,,,,,,,,,,,,,,,,,,,,,,,,,,,,,,,,,,,,,,,,,,,,,,,,,,,,,,,,
,,,,,,,,,6664dfc807e75330a8b54a8b,Spanish,13 or older,"yes, I am fluent in another language",no,2025-07-23_04h29.39.267,empathy_intonation_perc,2024.2.4,Win32,60.24096386,6664dfc807e75330a8b54a8b,687ed1b7e638a4cbf2f02089,68809c1ed83cdc19d6115776,,,,,,,,,,,,,9,1,,./stim/wavs/cuban_match_interrogative-total-yn_Manuela-vende-el-carro.wav,,,,,,,,,,,,,,,,,,,,,,286.8654,289.4318,1,1,2.0205,,0,5,5,8,1,1,cuban,,,,,,,,,,,,,,,,,,,,,,,,,,,,,,,,,,,,,,,,,,,,,,,,,,,,,,,,
,,,,,,,,,6664dfc807e75330a8b54a8b,Spanish,13 or older,"yes, I am fluent in another language",no,2025-07-23_04h29.39.267,empathy_intonation_perc,2024.2.4,Win32,60.24096386,6664dfc807e75330a8b54a8b,687ed1b7e638a4cbf2f02089,68809c1ed83cdc19d6115776,,,,,,,,,,,,,81,0,,./stim/wavs/mexican_mismatch_declarative-broad-focus_La-maestra-vive-en-Paris.wav,,,,,,,,,,,,,,,,,,,,,,289.4329,291.8324,0,1,1.8676,,0,6,6,80,1,0,mexican,,,,,,,,,,,,,,,,,,,,,,,,,,,,,,,,,,,,,,,,,,,,,,,,,,,,,,,,
,,,,,,,,,6664dfc807e75330a8b54a8b,Spanish,13 or older,"yes, I am fluent in another language",no,2025-07-23_04h29.39.267,empathy_intonation_perc,2024.2.4,Win32,60.24096386,6664dfc807e75330a8b54a8b,687ed1b7e638a4cbf2f02089,68809c1ed83cdc19d6115776,,,,,,,,,,,,,14,1,,./stim/wavs/mexican_match_interrogative-total-yn_Daniel-iba-a-Bolivia.wav,,,,,,,,,,,,,,,,,,,,,,291.8337,294.1334,1,1,1.7832,,0,7,7,13,1,0,mexican,,,,,,,,,,,,,,,,,,,,,,,,,,,,,,,,,,,,,,,,,,,,,,,,,,,,,,,,
,,,,,,,,,6664dfc807e75330a8b54a8b,Spanish,13 or older,"yes, I am fluent in another language",no,2025-07-23_04h29.39.267,empathy_intonation_perc,2024.2.4,Win32,60.24096386,6664dfc807e75330a8b54a8b,687ed1b7e638a4cbf2f02089,68809c1ed83cdc19d6115776,,,,,,,,,,,,,35,1,,./stim/wavs/mexican_mismatch_interrogative-total-yn_El-hombre-mira-la-luna.wav,,,,,,,,,,,,,,,,,,,,,,294.1337,296.1153,1,1,1.457,,0,8,8,34,1,0,mexican,,,,,,,,,,,,,,,,,,,,,,,,,,,,,,,,,,,,,,,,,,,,,,,,,,,,,,,,
,,,,,,,,,6664dfc807e75330a8b54a8b,Spanish,13 or older,"yes, I am fluent in another language",no,2025-07-23_04h29.39.267,empathy_intonation_perc,2024.2.4,Win32,60.24096386,6664dfc807e75330a8b54a8b,687ed1b7e638a4cbf2f02089,68809c1ed83cdc19d6115776,,,,,,,,,,,,,41,1,,./stim/wavs/puertorican_mismatch_interrogative-total-yn_El-nino-oye-el-rio.wav,,,,,,,,,,,,,,,,,,,,,,296.1164,298.3148,1,1,1.6574,,0,9,9,40,1,1,puertorican,,,,,,,,,,,,,,,,,,,,,,,,,,,,,,,,,,,,,,,,,,,,,,,,,,,,,,,,
,,,,,,,,,6664dfc807e75330a8b54a8b,Spanish,13 or older,"yes, I am fluent in another language",no,2025-07-23_04h29.39.267,empathy_intonation_perc,2024.2.4,Win32,60.24096386,6664dfc807e75330a8b54a8b,687ed1b7e638a4cbf2f02089,68809c1ed83cdc19d6115776,,,,,,,,,,,,,78,0,,./stim/wavs/cuban_mismatch_declarative-broad-focus_Mi-tia-odia-la-lluvia.wav,,,,,,,,,,,,,,,,,,,,,,298.3151,300.7321,0,1,1.9077,,0,10,10,77,1,0,cuban,,,,,,,,,,,,,,,,,,,,,,,,,,,,,,,,,,,,,,,,,,,,,,,,,,,,,,,,
,,,,,,,,,6664dfc807e75330a8b54a8b,Spanish,13 or older,"yes, I am fluent in another language",no,2025-07-23_04h29.39.267,empathy_intonation_perc,2024.2.4,Win32,60.24096386,6664dfc807e75330a8b54a8b,687ed1b7e638a4cbf2f02089,68809c1ed83cdc19d6115776,,,,,,,,,,,,,55,0,,./stim/wavs/cuban_match_declarative-broad-focus_Mariano-habla-del-tiempo.wav,,,,,,,,,,,,,,,,,,,,,,300.7329,303.315,1,0,2.0614,,0,11,11,54,1,0,cuban,,,,,,,,,,,,,,,,,,,,,,,,,,,,,,,,,,,,,,,,,,,,,,,,,,,,,,,,
,,,,,,,,,6664dfc807e75330a8b54a8b,Spanish,13 or older,"yes, I am fluent in another language",no,2025-07-23_04h29.39.267,empathy_intonation_perc,2024.2.4,Win32,60.24096386,6664dfc807e75330a8b54a8b,687ed1b7e638a4cbf2f02089,68809c1ed83cdc19d6115776,,,,,,,,,,,,,16,1,,./stim/wavs/mexican_match_interrogative-total-yn_Emilio-ama-la-marcha.wav,,,,,,,,,,,,,,,,,,,,,,303.3152,305.9482,0,0,2.1004,,0,12,12,15,1,0,mexican,,,,,,,,,,,,,,,,,,,,,,,,,,,,,,,,,,,,,,,,,,,,,,,,,,,,,,,,
,,,,,,,,,6664dfc807e75330a8b54a8b,Spanish,13 or older,"yes, I am fluent in another language",no,2025-07-23_04h29.39.267,empathy_intonation_perc,2024.2.4,Win32,60.24096386,6664dfc807e75330a8b54a8b,687ed1b7e638a4cbf2f02089,68809c1ed83cdc19d6115776,,,,,,,,,,,,,6,1,,./stim/wavs/castilian_match_interrogative-total-yn_Marta-abre-el-regalo.wav,,,,,,,,,,,,,,,,,,,,,,305.9484,308.349,1,1,1.8815,,0,13,13,5,1,0,castilian,,,,,,,,,,,,,,,,,,,,,,,,,,,,,,,,,,,,,,,,,,,,,,,,,,,,,,,,
,,,,,,,,,6664dfc807e75330a8b54a8b,Spanish,13 or older,"yes, I am fluent in another language",no,2025-07-23_04h29.39.267,empathy_intonation_perc,2024.2.4,Win32,60.24096386,6664dfc807e75330a8b54a8b,687ed1b7e638a4cbf2f02089,68809c1ed83cdc19d6115776,,,,,,,,,,,,,28,1,,./stim/wavs/castilian_mismatch_interrogative-total-yn_Mi-novio-viene-del-lago.wav,,,,,,,,,,,,,,,,,,,,,,308.3496,310.8655,1,1,1.9689,,0,14,14,27,1,0,castilian,,,,,,,,,,,,,,,,,,,,,,,,,,,,,,,,,,,,,,,,,,,,,,,,,,,,,,,,
,,,,,,,,,6664dfc807e75330a8b54a8b,Spanish,13 or older,"yes, I am fluent in another language",no,2025-07-23_04h29.39.267,empathy_intonation_perc,2024.2.4,Win32,60.24096386,6664dfc807e75330a8b54a8b,687ed1b7e638a4cbf2f02089,68809c1ed83cdc19d6115776,,,,,,,,,,,,,4,1,,./stim/wavs/castilian_match_interrogative-total-yn_Maria-bebe-el-vino.wav,,,,,,,,,,,,,,,,,,,,,,310.8669,313.1484,0,0,1.7604,,0,15,15,3,1,0,castilian,,,,,,,,,,,,,,,,,,,,,,,,,,,,,,,,,,,,,,,,,,,,,,,,,,,,,,,,
,,,,,,,,,6664dfc807e75330a8b54a8b,Spanish,13 or older,"yes, I am fluent in another language",no,2025-07-23_04h29.39.267,empathy_intonation_perc,2024.2.4,Win32,60.24096386,6664dfc807e75330a8b54a8b,687ed1b7e638a4cbf2f02089,68809c1ed83cdc19d6115776,,,,,,,,,,,,,71,0,,./stim/wavs/castilian_mismatch_declarative-broad-focus_La-nina-lava-el-plato.wav,,,,,,,,,,,,,,,,,,,,,,313.1486,315.4822,1,0,1.8257,,0,16,16,70,1,0,castilian,,,,,,,,,,,,,,,,,,,,,,,,,,,,,,,,,,,,,,,,,,,,,,,,,,,,,,,,
,,,,,,,,,6664dfc807e75330a8b54a8b,Spanish,13 or older,"yes, I am fluent in another language",no,2025-07-23_04h29.39.267,empathy_intonation_perc,2024.2.4,Win32,60.24096386,6664dfc807e75330a8b54a8b,687ed1b7e638a4cbf2f02089,68809c1ed83cdc19d6115776,,,,,,,,,,,,,25,1,,./stim/wavs/castilian_mismatch_interrogative-total-yn_La-maestra-vive-en-Paris.wav,,,,,,,,,,,,,,,,,,,,,,315.4831,318.2338,0,0,2.2337,,0,17,17,24,1,0,castilian,,,,,,,,,,,,,,,,,,,,,,,,,,,,,,,,,,,,,,,,,,,,,,,,,,,,,,,,
,,,,,,,,,6664dfc807e75330a8b54a8b,Spanish,13 or older,"yes, I am fluent in another language",no,2025-07-23_04h29.39.267,empathy_intonation_perc,2024.2.4,Win32,60.24096386,6664dfc807e75330a8b54a8b,687ed1b7e638a4cbf2f02089,68809c1ed83cdc19d6115776,,,,,,,,,,,,,66,0,,./stim/wavs/puertorican_match_declarative-broad-focus_Emilio-ama-la-marcha.wav,,,,,,,,,,,,,,,,,,,,,,318.2341,320.7317,0,1,1.9787,,0,18,18,65,1,0,puertorican,,,,,,,,,,,,,,,,,,,,,,,,,,,,,,,,,,,,,,,,,,,,,,,,,,,,,,,,
,,,,,,,,,6664dfc807e75330a8b54a8b,Spanish,13 or older,"yes, I am fluent in another language",no,2025-07-23_04h29.39.267,empathy_intonation_perc,2024.2.4,Win32,60.24096386,6664dfc807e75330a8b54a8b,687ed1b7e638a4cbf2f02089,68809c1ed83cdc19d6115776,,,,,,,,,,,,,49,0,,./stim/wavs/castilian_match_declarative-broad-focus_Mariano-habla-del-tiempo.wav,,,,,,,,,,,,,,,,,,,,,,320.732,323.4823,1,0,2.2153,,0,19,19,48,1,0,castilian,,,,,,,,,,,,,,,,,,,,,,,,,,,,,,,,,,,,,,,,,,,,,,,,,,,,,,,,
,,,,,,,,,6664dfc807e75330a8b54a8b,Spanish,13 or older,"yes, I am fluent in another language",no,2025-07-23_04h29.39.267,empathy_intonation_perc,2024.2.4,Win32,60.24096386,6664dfc807e75330a8b54a8b,687ed1b7e638a4cbf2f02089,68809c1ed83cdc19d6115776,,,,,,,,,,,,,77,0,,./stim/wavs/cuban_mismatch_declarative-broad-focus_Mi-novio-viene-del-lago.wav,,,,,,,,,,,,,,,,,,,,,,323.4825,325.8157,0,1,1.7979,,0,20,20,76,1,0,cuban,,,,,,,,,,,,,,,,,,,,,,,,,,,,,,,,,,,,,,,,,,,,,,,,,,,,,,,,
,,,,,,,,,6664dfc807e75330a8b54a8b,Spanish,13 or older,"yes, I am fluent in another language",no,2025-07-23_04h29.39.267,empathy_intonation_perc,2024.2.4,Win32,60.24096386,6664dfc807e75330a8b54a8b,687ed1b7e638a4cbf2f02089,68809c1ed83cdc19d6115776,,,,,,,,,,,,,53,0,,./stim/wavs/cuban_match_declarative-broad-focus_Manuela-vende-el-carro.wav,,,,,,,,,,,,,,,,,,,,,,325.8166,328.2001,0,1,1.8651,,0,21,21,52,1,0,cuban,,,,,,,,,,,,,,,,,,,,,,,,,,,,,,,,,,,,,,,,,,,,,,,,,,,,,,,,
,,,,,,,,,6664dfc807e75330a8b54a8b,Spanish,13 or older,"yes, I am fluent in another language",no,2025-07-23_04h29.39.267,empathy_intonation_perc,2024.2.4,Win32,60.24096386,6664dfc807e75330a8b54a8b,687ed1b7e638a4cbf2f02089,68809c1ed83cdc19d6115776,,,,,,,,,,,,,75,0,,./stim/wavs/cuban_mismatch_declarative-broad-focus_El-hombre-mira-la-luna.wav,,,,,,,,,,,,,,,,,,,,,,328.2003,330.3985,1,0,1.6728,,0,22,22,74,1,0,cuban,,,,,,,,,,,,,,,,,,,,,,,,,,,,,,,,,,,,,,,,,,,,,,,,,,,,,,,,
,,,,,,,,,6664dfc807e75330a8b54a8b,Spanish,13 or older,"yes, I am fluent in another language",no,2025-07-23_04h29.39.267,empathy_intonation_perc,2024.2.4,Win32,60.24096386,6664dfc807e75330a8b54a8b,687ed1b7e638a4cbf2f02089,68809c1ed83cdc19d6115776,,,,,,,,,,,,,22,1,,./stim/wavs/puertorican_match_interrogative-total-yn_Emilio-ama-la-marcha.wav,,,,,,,,,,,,,,,,,,,,,,330.3986,332.5993,1,1,1.6653,,0,23,23,21,1,1,puertorican,,,,,,,,,,,,,,,,,,,,,,,,,,,,,,,,,,,,,,,,,,,,,,,,,,,,,,,,
,,,,,,,,,6664dfc807e75330a8b54a8b,Spanish,13 or older,"yes, I am fluent in another language",no,2025-07-23_04h29.39.267,empathy_intonation_perc,2024.2.4,Win32,60.24096386,6664dfc807e75330a8b54a8b,687ed1b7e638a4cbf2f02089,68809c1ed83cdc19d6115776,,,,,,,,,,,,,82,0,,./stim/wavs/mexican_mismatch_declarative-broad-focus_Mi-novio-viene-del-lago.wav,,,,,,,,,,,,,,,,,,,,,,332.6001,334.6317,1,0,1.5096,,0,24,24,81,1,0,mexican,,,,,,,,,,,,,,,,,,,,,,,,,,,,,,,,,,,,,,,,,,,,,,,,,,,,,,,,
,,,,,,,,,6664dfc807e75330a8b54a8b,Spanish,13 or older,"yes, I am fluent in another language",no,2025-07-23_04h29.39.267,empathy_intonation_perc,2024.2.4,Win32,60.24096386,6664dfc807e75330a8b54a8b,687ed1b7e638a4cbf2f02089,68809c1ed83cdc19d6115776,,,,,,,,,,,,,60,0,,./stim/wavs/mexican_match_declarative-broad-focus_Emilio-ama-la-marcha.wav,,,,,,,,,,,,,,,,,,,,,,334.6321,336.6985,0,1,1.5472,,0,25,25,59,1,0,mexican,,,,,,,,,,,,,,,,,,,,,,,,,,,,,,,,,,,,,,,,,,,,,,,,,,,,,,,,
,,,,,,,,,6664dfc807e75330a8b54a8b,Spanish,13 or older,"yes, I am fluent in another language",no,2025-07-23_04h29.39.267,empathy_intonation_perc,2024.2.4,Win32,60.24096386,6664dfc807e75330a8b54a8b,687ed1b7e638a4cbf2f02089,68809c1ed83cdc19d6115776,,,,,,,,,,,,,70,0,,./stim/wavs/castilian_mismatch_declarative-broad-focus_La-maestra-vive-en-Paris.wav,,,,,,,,,,,,,,,,,,,,,,336.6988,339.6326,1,0,2.4039,,0,26,26,69,1,0,castilian,,,,,,,,,,,,,,,,,,,,,,,,,,,,,,,,,,,,,,,,,,,,,,,,,,,,,,,,
,,,,,,,,,6664dfc807e75330a8b54a8b,Spanish,13 or older,"yes, I am fluent in another language",no,2025-07-23_04h29.39.267,empathy_intonation_perc,2024.2.4,Win32,60.24096386,6664dfc807e75330a8b54a8b,687ed1b7e638a4cbf2f02089,68809c1ed83cdc19d6115776,,,,,,,,,,,,,37,1,,./stim/wavs/mexican_mismatch_interrogative-total-yn_La-maestra-vive-en-Paris.wav,,,,,,,,,,,,,,,,,,,,,,339.6335,342.0842,1,1,1.932,,0,27,27,36,1,0,mexican,,,,,,,,,,,,,,,,,,,,,,,,,,,,,,,,,,,,,,,,,,,,,,,,,,,,,,,,
,,,,,,,,,6664dfc807e75330a8b54a8b,Spanish,13 or older,"yes, I am fluent in another language",no,2025-07-23_04h29.39.267,empathy_intonation_perc,2024.2.4,Win32,60.24096386,6664dfc807e75330a8b54a8b,687ed1b7e638a4cbf2f02089,68809c1ed83cdc19d6115776,,,,,,,,,,,,,5,1,,./stim/wavs/castilian_match_interrogative-total-yn_Mariano-habla-del-tiempo.wav,,,,,,,,,,,,,,,,,,,,,,342.0844,344.5994,1,1,1.9893,,0,28,28,4,1,0,castilian,,,,,,,,,,,,,,,,,,,,,,,,,,,,,,,,,,,,,,,,,,,,,,,,,,,,,,,,
,,,,,,,,,6664dfc807e75330a8b54a8b,Spanish,13 or older,"yes, I am fluent in another language",no,2025-07-23_04h29.39.267,empathy_intonation_perc,2024.2.4,Win32,60.24096386,6664dfc807e75330a8b54a8b,687ed1b7e638a4cbf2f02089,68809c1ed83cdc19d6115776,,,,,,,,,,,,,7,1,,./stim/wavs/cuban_match_interrogative-total-yn_Ana-lleva-el-abrigo.wav,,,,,,,,,,,,,,,,,,,,,,344.6002,346.8172,0,0,1.6985,,0,29,29,6,1,1,cuban,,,,,,,,,,,,,,,,,,,,,,,,,,,,,,,,,,,,,,,,,,,,,,,,,,,,,,,,
,,,,,,,,,6664dfc807e75330a8b54a8b,Spanish,13 or older,"yes, I am fluent in another language",no,2025-07-23_04h29.39.267,empathy_intonation_perc,2024.2.4,Win32,60.24096386,6664dfc807e75330a8b54a8b,687ed1b7e638a4cbf2f02089,68809c1ed83cdc19d6115776,,,,,,,,,,,,,31,1,,./stim/wavs/cuban_mismatch_interrogative-total-yn_El-nino-oye-el-rio.wav,,,,,,,,,,,,,,,,,,,,,,346.8174,348.7818,1,1,1.4448,,0,30,30,30,1,1,cuban,,,,,,,,,,,,,,,,,,,,,,,,,,,,,,,,,,,,,,,,,,,,,,,,,,,,,,,,
,,,,,,,,,6664dfc807e75330a8b54a8b,Spanish,13 or older,"yes, I am fluent in another language",no,2025-07-23_04h29.39.267,empathy_intonation_perc,2024.2.4,Win32,60.24096386,6664dfc807e75330a8b54a8b,687ed1b7e638a4cbf2f02089,68809c1ed83cdc19d6115776,,,,,,,,,,,,,59,0,,./stim/wavs/mexican_match_declarative-broad-focus_David-leia-el-libro.wav,,,,,,,,,,,,,,,,,,,,,,348.7821,350.8986,0,1,1.5939,,0,31,31,58,1,0,mexican,,,,,,,,,,,,,,,,,,,,,,,,,,,,,,,,,,,,,,,,,,,,,,,,,,,,,,,,
,,,,,,,,,6664dfc807e75330a8b54a8b,Spanish,13 or older,"yes, I am fluent in another language",no,2025-07-23_04h29.39.267,empathy_intonation_perc,2024.2.4,Win32,60.24096386,6664dfc807e75330a8b54a8b,687ed1b7e638a4cbf2f02089,68809c1ed83cdc19d6115776,,,,,,,,,,,,,12,1,,./stim/wavs/cuban_match_interrogative-total-yn_Marta-abre-el-regalo.wav,,,,,,,,,,,,,,,,,,,,,,350.8989,353.1653,1,1,1.7488,,0,32,32,11,1,1,cuban,,,,,,,,,,,,,,,,,,,,,,,,,,,,,,,,,,,,,,,,,,,,,,,,,,,,,,,,
,,,,,,,,,6664dfc807e75330a8b54a8b,Spanish,13 or older,"yes, I am fluent in another language",no,2025-07-23_04h29.39.267,empathy_intonation_perc,2024.2.4,Win32,60.24096386,6664dfc807e75330a8b54a8b,687ed1b7e638a4cbf2f02089,68809c1ed83cdc19d6115776,,,,,,,,,,,,,57,0,,./stim/wavs/mexican_match_declarative-broad-focus_Ana-lleva-el-abrigo.wav,,,,,,,,,,,,,,,,,,,,,,353.1656,355.6325,1,0,1.9446,,0,33,33,56,1,0,mexican,,,,,,,,,,,,,,,,,,,,,,,,,,,,,,,,,,,,,,,,,,,,,,,,,,,,,,,,
,,,,,,,,,6664dfc807e75330a8b54a8b,Spanish,13 or older,"yes, I am fluent in another language",no,2025-07-23_04h29.39.267,empathy_intonation_perc,2024.2.4,Win32,60.24096386,6664dfc807e75330a8b54a8b,687ed1b7e638a4cbf2f02089,68809c1ed83cdc19d6115776,,,,,,,,,,,,,36,1,,./stim/wavs/mexican_mismatch_interrogative-total-yn_El-nino-oye-el-rio.wav,,,,,,,,,,,,,,,,,,,,,,355.6339,358.0158,0,0,1.8625,,0,34,34,35,1,0,mexican,,,,,,,,,,,,,,,,,,,,,,,,,,,,,,,,,,,,,,,,,,,,,,,,,,,,,,,,
,,,,,,,,,6664dfc807e75330a8b54a8b,Spanish,13 or older,"yes, I am fluent in another language",no,2025-07-23_04h29.39.267,empathy_intonation_perc,2024.2.4,Win32,60.24096386,6664dfc807e75330a8b54a8b,687ed1b7e638a4cbf2f02089,68809c1ed83cdc19d6115776,,,,,,,,,,,,,88,0,,./stim/wavs/puertorican_mismatch_declarative-broad-focus_La-nina-lava-el-plato.wav,,,,,,,,,,,,,,,,,,,,,,358.0167,360.4345,1,0,1.8995,,0,35,35,87,1,0,puertorican,,,,,,,,,,,,,,,,,,,,,,,,,,,,,,,,,,,,,,,,,,,,,,,,,,,,,,,,
,,,,,,,,,6664dfc807e75330a8b54a8b,Spanish,13 or older,"yes, I am fluent in another language",no,2025-07-23_04h29.39.267,empathy_intonation_perc,2024.2.4,Win32,60.24096386,6664dfc807e75330a8b54a8b,687ed1b7e638a4cbf2f02089,68809c1ed83cdc19d6115776,,,,,,,,,,,,,18,1,,./stim/wavs/mexican_match_interrogative-total-yn_Marta-abre-el-regalo.wav,,,,,,,,,,,,,,,,,,,,,,360.4347,362.3653,0,0,1.4069,,0,36,36,17,1,0,mexican,,,,,,,,,,,,,,,,,,,,,,,,,,,,,,,,,,,,,,,,,,,,,,,,,,,,,,,,
,,,,,,,,,6664dfc807e75330a8b54a8b,Spanish,13 or older,"yes, I am fluent in another language",no,2025-07-23_04h29.39.267,empathy_intonation_perc,2024.2.4,Win32,60.24096386,6664dfc807e75330a8b54a8b,687ed1b7e638a4cbf2f02089,68809c1ed83cdc19d6115776,,,,,,,,,,,,,47,0,,./stim/wavs/castilian_match_declarative-broad-focus_Manuela-vende-el-carro.wav,,,,,,,,,,,,,,,,,,,,,,362.3656,364.8654,1,0,1.9776,,0,37,37,46,1,0,castilian,,,,,,,,,,,,,,,,,,,,,,,,,,,,,,,,,,,,,,,,,,,,,,,,,,,,,,,,
,,,,,,,,,6664dfc807e75330a8b54a8b,Spanish,13 or older,"yes, I am fluent in another language",no,2025-07-23_04h29.39.267,empathy_intonation_perc,2024.2.4,Win32,60.24096386,6664dfc807e75330a8b54a8b,687ed1b7e638a4cbf2f02089,68809c1ed83cdc19d6115776,,,,,,,,,,,,,46,0,,./stim/wavs/castilian_match_declarative-broad-focus_Emilio-ama-la-marcha.wav,,,,,,,,,,,,,,,,,,,,,,364.8658,367.3155,1,0,1.9242,,0,38,38,45,1,0,castilian,,,,,,,,,,,,,,,,,,,,,,,,,,,,,,,,,,,,,,,,,,,,,,,,,,,,,,,,
,,,,,,,,,6664dfc807e75330a8b54a8b,Spanish,13 or older,"yes, I am fluent in another language",no,2025-07-23_04h29.39.267,empathy_intonation_perc,2024.2.4,Win32,60.24096386,6664dfc807e75330a8b54a8b,687ed1b7e638a4cbf2f02089,68809c1ed83cdc19d6115776,,,,,,,,,,,,,29,1,,./stim/wavs/castilian_mismatch_interrogative-total-yn_Mi-tia-odia-la-lluvia.wav,,,,,,,,,,,,,,,,,,,,,,367.3158,369.6682,1,1,1.8479,,0,39,39,28,1,0,castilian,,,,,,,,,,,,,,,,,,,,,,,,,,,,,,,,,,,,,,,,,,,,,,,,,,,,,,,,
,,,,,,,,,6664dfc807e75330a8b54a8b,Spanish,13 or older,"yes, I am fluent in another language",no,2025-07-23_04h29.39.267,empathy_intonation_perc,2024.2.4,Win32,60.24096386,6664dfc807e75330a8b54a8b,687ed1b7e638a4cbf2f02089,68809c1ed83cdc19d6115776,,,,,,,,,,,,,84,0,,./stim/wavs/puertorican_mismatch_declarative-broad-focus_El-bebe-comia-muy-bien.wav,,,,,,,,,,,,,,,,,,,,,,369.6691,372.1326,0,1,1.9365,,0,40,40,83,1,0,puertorican,,,,,,,,,,,,,,,,,,,,,,,,,,,,,,,,,,,,,,,,,,,,,,,,,,,,,,,,
,,,,,,,,,6664dfc807e75330a8b54a8b,Spanish,13 or older,"yes, I am fluent in another language",no,2025-07-23_04h29.39.267,empathy_intonation_perc,2024.2.4,Win32,60.24096386,6664dfc807e75330a8b54a8b,687ed1b7e638a4cbf2f02089,68809c1ed83cdc19d6115776,,,,,,,,,,,,,50,0,,./stim/wavs/castilian_match_declarative-broad-focus_Marta-abre-el-regalo.wav,,,,,,,,,,,,,,,,,,,,,,372.1334,374.5155,1,0,1.85,,0,41,41,49,1,0,castilian,,,,,,,,,,,,,,,,,,,,,,,,,,,,,,,,,,,,,,,,,,,,,,,,,,,,,,,,
,,,,,,,,,6664dfc807e75330a8b54a8b,Spanish,13 or older,"yes, I am fluent in another language",no,2025-07-23_04h29.39.267,empathy_intonation_perc,2024.2.4,Win32,60.24096386,6664dfc807e75330a8b54a8b,687ed1b7e638a4cbf2f02089,68809c1ed83cdc19d6115776,,,,,,,,,,,,,44,1,,./stim/wavs/puertorican_mismatch_interrogative-total-yn_Mi-madre-come-la-fruta.wav,,,,,,,,,,,,,,,,,,,,,,374.5158,376.9825,1,1,1.9475,,0,42,42,43,1,1,puertorican,,,,,,,,,,,,,,,,,,,,,,,,,,,,,,,,,,,,,,,,,,,,,,,,,,,,,,,,
,,,,,,,,,6664dfc807e75330a8b54a8b,Spanish,13 or older,"yes, I am fluent in another language",no,2025-07-23_04h29.39.267,empathy_intonation_perc,2024.2.4,Win32,60.24096386,6664dfc807e75330a8b54a8b,687ed1b7e638a4cbf2f02089,68809c1ed83cdc19d6115776,,,,,,,,,,,,,21,1,,./stim/wavs/puertorican_match_interrogative-total-yn_David-leia-el-libro.wav,,,,,,,,,,,,,,,,,,,,,,376.9833,378.834,0,0,1.3317,,0,43,43,20,1,1,puertorican,,,,,,,,,,,,,,,,,,,,,,,,,,,,,,,,,,,,,,,,,,,,,,,,,,,,,,,,
,,,,,,,,,6664dfc807e75330a8b54a8b,Spanish,13 or older,"yes, I am fluent in another language",no,2025-07-23_04h29.39.267,empathy_intonation_perc,2024.2.4,Win32,60.24096386,6664dfc807e75330a8b54a8b,687ed1b7e638a4cbf2f02089,68809c1ed83cdc19d6115776,,,,,,,,,,,,,17,1,,./stim/wavs/mexican_match_interrogative-total-yn_Mariano-habla-del-tiempo.wav,,,,,,,,,,,,,,,,,,,,,,378.8342,381.5177,1,1,2.151,,0,44,44,16,1,0,mexican,,,,,,,,,,,,,,,,,,,,,,,,,,,,,,,,,,,,,,,,,,,,,,,,,,,,,,,,
,,,,,,,,,6664dfc807e75330a8b54a8b,Spanish,13 or older,"yes, I am fluent in another language",no,2025-07-23_04h29.39.267,empathy_intonation_perc,2024.2.4,Win32,60.24096386,6664dfc807e75330a8b54a8b,687ed1b7e638a4cbf2f02089,68809c1ed83cdc19d6115776,,,,,,,,,,,,,74,0,,./stim/wavs/cuban_mismatch_declarative-broad-focus_El-bebe-comia-muy-bien.wav,,,,,,,,,,,,,,,,,,,,,,381.5178,383.8824,0,1,1.8334,,0,45,45,73,1,0,cuban,,,,,,,,,,,,,,,,,,,,,,,,,,,,,,,,,,,,,,,,,,,,,,,,,,,,,,,,
,,,,,,,,,6664dfc807e75330a8b54a8b,Spanish,13 or older,"yes, I am fluent in another language",no,2025-07-23_04h29.39.267,empathy_intonation_perc,2024.2.4,Win32,60.24096386,6664dfc807e75330a8b54a8b,687ed1b7e638a4cbf2f02089,68809c1ed83cdc19d6115776,,,,,,,,,,,,,39,1,,./stim/wavs/mexican_mismatch_interrogative-total-yn_Mi-tia-odia-la-lluvia.wav,,,,,,,,,,,,,,,,,,,,,,383.8827,386.2156,1,1,1.8016,,0,46,46,38,1,0,mexican,,,,,,,,,,,,,,,,,,,,,,,,,,,,,,,,,,,,,,,,,,,,,,,,,,,,,,,,
,,,,,,,,,6664dfc807e75330a8b54a8b,Spanish,13 or older,"yes, I am fluent in another language",no,2025-07-23_04h29.39.267,empathy_intonation_perc,2024.2.4,Win32,60.24096386,6664dfc807e75330a8b54a8b,687ed1b7e638a4cbf2f02089,68809c1ed83cdc19d6115776,,,,,,,,,,,,,76,0,,./stim/wavs/cuban_mismatch_declarative-broad-focus_La-nina-lava-el-plato.wav,,,,,,,,,,,,,,,,,,,,,,386.2159,388.6324,0,1,1.8815,,0,47,47,75,1,0,cuban,,,,,,,,,,,,,,,,,,,,,,,,,,,,,,,,,,,,,,,,,,,,,,,,,,,,,,,,
,,,,,,,,,6664dfc807e75330a8b54a8b,Spanish,13 or older,"yes, I am fluent in another language",no,2025-07-23_04h29.39.267,empathy_intonation_perc,2024.2.4,Win32,60.24096386,6664dfc807e75330a8b54a8b,687ed1b7e638a4cbf2f02089,68809c1ed83cdc19d6115776,,,,,,,,,,,,,19,1,,./stim/wavs/puertorican_match_interrogative-total-yn_Ana-lleva-el-abrigo.wav,,,,,,,,,,,,,,,,,,,,,,388.6326,390.9176,1,1,1.7664,,0,48,48,18,1,1,puertorican,,,,,,,,,,,,,,,,,,,,,,,,,,,,,,,,,,,,,,,,,,,,,,,,,,,,,,,,
,,,,,,,,,6664dfc807e75330a8b54a8b,Spanish,13 or older,"yes, I am fluent in another language",no,2025-07-23_04h29.39.267,empathy_intonation_perc,2024.2.4,Win32,60.24096386,6664dfc807e75330a8b54a8b,687ed1b7e638a4cbf2f02089,68809c1ed83cdc19d6115776,,,,,,,,,,,,,85,0,,./stim/wavs/puertorican_mismatch_declarative-broad-focus_El-hombre-mira-la-luna.wav,,,,,,,,,,,,,,,,,,,,,,390.9178,393.2329,0,1,1.7744,,0,49,49,84,1,0,puertorican,,,,,,,,,,,,,,,,,,,,,,,,,,,,,,,,,,,,,,,,,,,,,,,,,,,,,,,,
,,,,,,,,,6664dfc807e75330a8b54a8b,Spanish,13 or older,"yes, I am fluent in another language",no,2025-07-23_04h29.39.267,empathy_intonation_perc,2024.2.4,Win32,60.24096386,6664dfc807e75330a8b54a8b,687ed1b7e638a4cbf2f02089,68809c1ed83cdc19d6115776,,,,,,,,,,,,,20,1,,./stim/wavs/puertorican_match_interrogative-total-yn_Daniel-iba-a-Bolivia.wav,,,,,,,,,,,,,,,,,,,,,,393.2338,395.8508,0,0,2.1,,0,50,50,19,1,1,puertorican,,,,,,,,,,,,,,,,,,,,,,,,,,,,,,,,,,,,,,,,,,,,,,,,,,,,,,,,
,,,,,,,,,6664dfc807e75330a8b54a8b,Spanish,13 or older,"yes, I am fluent in another language",no,2025-07-23_04h29.39.267,empathy_intonation_perc,2024.2.4,Win32,60.24096386,6664dfc807e75330a8b54a8b,687ed1b7e638a4cbf2f02089,68809c1ed83cdc19d6115776,,,,,,,,,,,,,56,0,,./stim/wavs/cuban_match_declarative-broad-focus_Marta-abre-el-regalo.wav,,,,,,,,,,,,,,,,,,,,,,395.851,398.1324,0,1,1.7615,,0,51,51,55,1,0,cuban,,,,,,,,,,,,,,,,,,,,,,,,,,,,,,,,,,,,,,,,,,,,,,,,,,,,,,,,
,,,,,,,,,6664dfc807e75330a8b54a8b,Spanish,13 or older,"yes, I am fluent in another language",no,2025-07-23_04h29.39.267,empathy_intonation_perc,2024.2.4,Win32,60.24096386,6664dfc807e75330a8b54a8b,687ed1b7e638a4cbf2f02089,68809c1ed83cdc19d6115776,,,,,,,,,,,,,42,1,,./stim/wavs/puertorican_mismatch_interrogative-total-yn_La-maestra-vive-en-Paris.wav,,,,,,,,,,,,,,,,,,,,,,398.1327,400.401,1,1,1.7649,,0,52,52,41,1,1,puertorican,,,,,,,,,,,,,,,,,,,,,,,,,,,,,,,,,,,,,,,,,,,,,,,,,,,,,,,,
,,,,,,,,,6664dfc807e75330a8b54a8b,Spanish,13 or older,"yes, I am fluent in another language",no,2025-07-23_04h29.39.267,empathy_intonation_perc,2024.2.4,Win32,60.24096386,6664dfc807e75330a8b54a8b,687ed1b7e638a4cbf2f02089,68809c1ed83cdc19d6115776,,,,,,,,,,,,,1,1,,./stim/wavs/castilian_match_interrogative-total-yn_David-leia-el-libro.wav,,,,,,,,,,,,,,,,,,,,,,400.4013,402.8991,1,1,1.9684,,0,53,53,0,1,0,castilian,,,,,,,,,,,,,,,,,,,,,,,,,,,,,,,,,,,,,,,,,,,,,,,,,,,,,,,,
,,,,,,,,,6664dfc807e75330a8b54a8b,Spanish,13 or older,"yes, I am fluent in another language",no,2025-07-23_04h29.39.267,empathy_intonation_perc,2024.2.4,Win32,60.24096386,6664dfc807e75330a8b54a8b,687ed1b7e638a4cbf2f02089,68809c1ed83cdc19d6115776,,,,,,,,,,,,,10,1,,./stim/wavs/cuban_match_interrogative-total-yn_Maria-bebe-el-vino.wav,,,,,,,,,,,,,,,,,,,,,,402.8995,405.5848,1,1,2.1659,,0,54,54,9,1,1,cuban,,,,,,,,,,,,,,,,,,,,,,,,,,,,,,,,,,,,,,,,,,,,,,,,,,,,,,,,
,,,,,,,,,6664dfc807e75330a8b54a8b,Spanish,13 or older,"yes, I am fluent in another language",no,2025-07-23_04h29.39.267,empathy_intonation_perc,2024.2.4,Win32,60.24096386,6664dfc807e75330a8b54a8b,687ed1b7e638a4cbf2f02089,68809c1ed83cdc19d6115776,,,,,,,,,,,,,72,0,,./stim/wavs/castilian_mismatch_declarative-broad-focus_Mi-novio-viene-del-lago.wav,,,,,,,,,,,,,,,,,,,,,,405.5853,408.1993,0,1,2.0857,,0,55,55,71,1,0,castilian,,,,,,,,,,,,,,,,,,,,,,,,,,,,,,,,,,,,,,,,,,,,,,,,,,,,,,,,
,,,,,,,,,6664dfc807e75330a8b54a8b,Spanish,13 or older,"yes, I am fluent in another language",no,2025-07-23_04h29.39.267,empathy_intonation_perc,2024.2.4,Win32,60.24096386,6664dfc807e75330a8b54a8b,687ed1b7e638a4cbf2f02089,68809c1ed83cdc19d6115776,,,,,,,,,,,,,2,1,,./stim/wavs/castilian_match_interrogative-total-yn_Emilio-ama-la-marcha.wav,,,,,,,,,,,,,,,,,,,,,,408.1999,410.8661,1,1,2.1342,,0,56,56,1,1,0,castilian,,,,,,,,,,,,,,,,,,,,,,,,,,,,,,,,,,,,,,,,,,,,,,,,,,,,,,,,
,,,,,,,,,6664dfc807e75330a8b54a8b,Spanish,13 or older,"yes, I am fluent in another language",no,2025-07-23_04h29.39.267,empathy_intonation_perc,2024.2.4,Win32,60.24096386,6664dfc807e75330a8b54a8b,687ed1b7e638a4cbf2f02089,68809c1ed83cdc19d6115776,,,,,,,,,,,,,80,0,,./stim/wavs/mexican_mismatch_declarative-broad-focus_El-hombre-mira-la-luna.wav,,,,,,,,,,,,,,,,,,,,,,410.8664,413.1177,0,1,1.7485,,0,57,57,79,1,0,mexican,,,,,,,,,,,,,,,,,,,,,,,,,,,,,,,,,,,,,,,,,,,,,,,,,,,,,,,,
,,,,,,,,,6664dfc807e75330a8b54a8b,Spanish,13 or older,"yes, I am fluent in another language",no,2025-07-23_04h29.39.267,empathy_intonation_perc,2024.2.4,Win32,60.24096386,6664dfc807e75330a8b54a8b,687ed1b7e638a4cbf2f02089,68809c1ed83cdc19d6115776,,,,,,,,,,,,,30,1,,./stim/wavs/cuban_mismatch_interrogative-total-yn_El-hombre-mira-la-luna.wav,,,,,,,,,,,,,,,,,,,,,,413.1179,415.2659,0,0,1.605,,0,58,58,29,1,1,cuban,,,,,,,,,,,,,,,,,,,,,,,,,,,,,,,,,,,,,,,,,,,,,,,,,,,,,,,,
,,,,,,,,,6664dfc807e75330a8b54a8b,Spanish,13 or older,"yes, I am fluent in another language",no,2025-07-23_04h29.39.267,empathy_intonation_perc,2024.2.4,Win32,60.24096386,6664dfc807e75330a8b54a8b,687ed1b7e638a4cbf2f02089,68809c1ed83cdc19d6115776,,,,,,,,,,,,,58,0,,./stim/wavs/mexican_match_declarative-broad-focus_Daniel-iba-a-Bolivia.wav,,,,,,,,,,,,,,,,,,,,,,415.2661,417.3164,0,1,1.5201,,0,59,59,57,1,0,mexican,,,,,,,,,,,,,,,,,,,,,,,,,,,,,,,,,,,,,,,,,,,,,,,,,,,,,,,,
,,,,,,,,,6664dfc807e75330a8b54a8b,Spanish,13 or older,"yes, I am fluent in another language",no,2025-07-23_04h29.39.267,empathy_intonation_perc,2024.2.4,Win32,60.24096386,6664dfc807e75330a8b54a8b,687ed1b7e638a4cbf2f02089,68809c1ed83cdc19d6115776,,,,,,,,,,,,,68,0,,./stim/wavs/puertorican_match_declarative-broad-focus_Maria-bebe-el-vino.wav,,,,,,,,,,,,,,,,,,,,,,417.3174,419.3658,1,0,1.5159,,0,60,60,67,1,0,puertorican,,,,,,,,,,,,,,,,,,,,,,,,,,,,,,,,,,,,,,,,,,,,,,,,,,,,,,,,
,,,,,,,,,6664dfc807e75330a8b54a8b,Spanish,13 or older,"yes, I am fluent in another language",no,2025-07-23_04h29.39.267,empathy_intonation_perc,2024.2.4,Win32,60.24096386,6664dfc807e75330a8b54a8b,687ed1b7e638a4cbf2f02089,68809c1ed83cdc19d6115776,,,,,,,,,,,,,34,1,,./stim/wavs/cuban_mismatch_interrogative-total-yn_Mi-tia-odia-la-lluvia.wav,,,,,,,,,,,,,,,,,,,,,,419.3662,421.9681,1,1,2.0993,,0,61,61,33,1,1,cuban,,,,,,,,,,,,,,,,,,,,,,,,,,,,,,,,,,,,,,,,,,,,,,,,,,,,,,,,
,,,,,,,,,6664dfc807e75330a8b54a8b,Spanish,13 or older,"yes, I am fluent in another language",no,2025-07-23_04h29.39.267,empathy_intonation_perc,2024.2.4,Win32,60.24096386,6664dfc807e75330a8b54a8b,687ed1b7e638a4cbf2f02089,68809c1ed83cdc19d6115776,,,,,,,,,,,,,8,1,,./stim/wavs/cuban_match_interrogative-total-yn_Daniel-iba-a-Bolivia.wav,,,,,,,,,,,,,,,,,,,,,,421.9683,424.8158,1,1,2.328,,0,62,62,7,1,1,cuban,,,,,,,,,,,,,,,,,,,,,,,,,,,,,,,,,,,,,,,,,,,,,,,,,,,,,,,,
,,,,,,,,,6664dfc807e75330a8b54a8b,Spanish,13 or older,"yes, I am fluent in another language",no,2025-07-23_04h29.39.267,empathy_intonation_perc,2024.2.4,Win32,60.24096386,6664dfc807e75330a8b54a8b,687ed1b7e638a4cbf2f02089,68809c1ed83cdc19d6115776,,,,,,,,,,,,,26,1,,./stim/wavs/castilian_mismatch_interrogative-total-yn_La-nina-lava-el-plato.wav,,,,,,,,,,,,,,,,,,,,,,424.8161,427.4327,1,1,2.095,,0,63,63,25,1,0,castilian,,,,,,,,,,,,,,,,,,,,,,,,,,,,,,,,,,,,,,,,,,,,,,,,,,,,,,,,
,,,,,,,,,6664dfc807e75330a8b54a8b,Spanish,13 or older,"yes, I am fluent in another language",no,2025-07-23_04h29.39.267,empathy_intonation_perc,2024.2.4,Win32,60.24096386,6664dfc807e75330a8b54a8b,687ed1b7e638a4cbf2f02089,68809c1ed83cdc19d6115776,,,,,,,,,,,,,62,0,,./stim/wavs/mexican_match_declarative-broad-focus_Marta-abre-el-regalo.wav,,,,,,,,,,,,,,,,,,,,,,427.4329,429.8007,0,1,1.8488,,0,64,64,61,1,0,mexican,,,,,,,,,,,,,,,,,,,,,,,,,,,,,,,,,,,,,,,,,,,,,,,,,,,,,,,,
,,,,,,,,,6664dfc807e75330a8b54a8b,Spanish,13 or older,"yes, I am fluent in another language",no,2025-07-23_04h29.39.267,empathy_intonation_perc,2024.2.4,Win32,60.24096386,6664dfc807e75330a8b54a8b,687ed1b7e638a4cbf2f02089,68809c1ed83cdc19d6115776,,,,,,,,,,,,,23,1,,./stim/wavs/puertorican_match_interrogative-total-yn_Manuela-vende-el-carro.wav,,,,,,,,,,,,,,,,,,,,,,429.8009,431.7661,0,0,1.4417,,0,65,65,22,1,1,puertorican,,,,,,,,,,,,,,,,,,,,,,,,,,,,,,,,,,,,,,,,,,,,,,,,,,,,,,,,
,,,,,,,,,6664dfc807e75330a8b54a8b,Spanish,13 or older,"yes, I am fluent in another language",no,2025-07-23_04h29.39.267,empathy_intonation_perc,2024.2.4,Win32,60.24096386,6664dfc807e75330a8b54a8b,687ed1b7e638a4cbf2f02089,68809c1ed83cdc19d6115776,,,,,,,,,,,,,27,1,,./stim/wavs/castilian_mismatch_interrogative-total-yn_Mi-madre-come-la-fruta.wav,,,,,,,,,,,,,,,,,,,,,,431.7666,434.2672,1,1,1.9822,,0,66,66,26,1,0,castilian,,,,,,,,,,,,,,,,,,,,,,,,,,,,,,,,,,,,,,,,,,,,,,,,,,,,,,,,
,,,,,,,,,6664dfc807e75330a8b54a8b,Spanish,13 or older,"yes, I am fluent in another language",no,2025-07-23_04h29.39.267,empathy_intonation_perc,2024.2.4,Win32,60.24096386,6664dfc807e75330a8b54a8b,687ed1b7e638a4cbf2f02089,68809c1ed83cdc19d6115776,,,,,,,,,,,,,48,0,,./stim/wavs/castilian_match_declarative-broad-focus_Maria-bebe-el-vino.wav,,,,,,,,,,,,,,,,,,,,,,434.2681,436.8494,0,1,2.0579,,0,67,67,47,1,0,castilian,,,,,,,,,,,,,,,,,,,,,,,,,,,,,,,,,,,,,,,,,,,,,,,,,,,,,,,,
,,,,,,,,,6664dfc807e75330a8b54a8b,Spanish,13 or older,"yes, I am fluent in another language",no,2025-07-23_04h29.39.267,empathy_intonation_perc,2024.2.4,Win32,60.24096386,6664dfc807e75330a8b54a8b,687ed1b7e638a4cbf2f02089,68809c1ed83cdc19d6115776,,,,,,,,,,,,,67,0,,./stim/wavs/puertorican_match_declarative-broad-focus_Manuela-vende-el-carro.wav,,,,,,,,,,,,,,,,,,,,,,436.8497,439.3664,0,1,2.003,,0,68,68,66,1,0,puertorican,,,,,,,,,,,,,,,,,,,,,,,,,,,,,,,,,,,,,,,,,,,,,,,,,,,,,,,,
,,,,,,,,,6664dfc807e75330a8b54a8b,Spanish,13 or older,"yes, I am fluent in another language",no,2025-07-23_04h29.39.267,empathy_intonation_perc,2024.2.4,Win32,60.24096386,6664dfc807e75330a8b54a8b,687ed1b7e638a4cbf2f02089,68809c1ed83cdc19d6115776,,,,,,,,,,,,,54,0,,./stim/wavs/cuban_match_declarative-broad-focus_Maria-bebe-el-vino.wav,,,,,,,,,,,,,,,,,,,,,,439.3672,441.5994,0,1,1.7025,,0,69,69,53,1,0,cuban,,,,,,,,,,,,,,,,,,,,,,,,,,,,,,,,,,,,,,,,,,,,,,,,,,,,,,,,
,,,,,,,,,6664dfc807e75330a8b54a8b,Spanish,13 or older,"yes, I am fluent in another language",no,2025-07-23_04h29.39.267,empathy_intonation_perc,2024.2.4,Win32,60.24096386,6664dfc807e75330a8b54a8b,687ed1b7e638a4cbf2f02089,68809c1ed83cdc19d6115776,,,,,,,,,,,,,38,1,,./stim/wavs/mexican_mismatch_interrogative-total-yn_Mi-novio-viene-del-lago.wav,,,,,,,,,,,,,,,,,,,,,,441.5997,444.0012,1,1,1.8818,,0,70,70,37,1,0,mexican,,,,,,,,,,,,,,,,,,,,,,,,,,,,,,,,,,,,,,,,,,,,,,,,,,,,,,,,
,,,,,,,,,6664dfc807e75330a8b54a8b,Spanish,13 or older,"yes, I am fluent in another language",no,2025-07-23_04h29.39.267,empathy_intonation_perc,2024.2.4,Win32,60.24096386,6664dfc807e75330a8b54a8b,687ed1b7e638a4cbf2f02089,68809c1ed83cdc19d6115776,,,,,,,,,,,,,64,0,,./stim/wavs/puertorican_match_declarative-broad-focus_Daniel-iba-a-Bolivia.wav,,,,,,,,,,,,,,,,,,,,,,444.0015,446.7847,0,1,2.2667,,0,71,71,63,1,0,puertorican,,,,,,,,,,,,,,,,,,,,,,,,,,,,,,,,,,,,,,,,,,,,,,,,,,,,,,,,
,,,,,,,,,6664dfc807e75330a8b54a8b,Spanish,13 or older,"yes, I am fluent in another language",no,2025-07-23_04h29.39.267,empathy_intonation_perc,2024.2.4,Win32,60.24096386,6664dfc807e75330a8b54a8b,687ed1b7e638a4cbf2f02089,68809c1ed83cdc19d6115776,,,,,,,,,,,,,63,0,,./stim/wavs/puertorican_match_declarative-broad-focus_Ana-lleva-el-abrigo.wav,,,,,,,,,,,,,,,,,,,,,,446.785,448.9494,0,1,1.658,,0,72,72,62,1,0,puertorican,,,,,,,,,,,,,,,,,,,,,,,,,,,,,,,,,,,,,,,,,,,,,,,,,,,,,,,,
,,,,,,,,,6664dfc807e75330a8b54a8b,Spanish,13 or older,"yes, I am fluent in another language",no,2025-07-23_04h29.39.267,empathy_intonation_perc,2024.2.4,Win32,60.24096386,6664dfc807e75330a8b54a8b,687ed1b7e638a4cbf2f02089,68809c1ed83cdc19d6115776,,,,,,,,,,,,,40,1,,./stim/wavs/puertorican_mismatch_interrogative-total-yn_El-hombre-mira-la-luna.wav,,,,,,,,,,,,,,,,,,,,,,448.9496,451.3661,1,1,1.8851,,0,73,73,39,1,1,puertorican,,,,,,,,,,,,,,,,,,,,,,,,,,,,,,,,,,,,,,,,,,,,,,,,,,,,,,,,
,,,,,,,,,6664dfc807e75330a8b54a8b,Spanish,13 or older,"yes, I am fluent in another language",no,2025-07-23_04h29.39.267,empathy_intonation_perc,2024.2.4,Win32,60.24096386,6664dfc807e75330a8b54a8b,687ed1b7e638a4cbf2f02089,68809c1ed83cdc19d6115776,,,,,,,,,,,,,33,1,,./stim/wavs/cuban_mismatch_interrogative-total-yn_Mi-novio-viene-del-lago.wav,,,,,,,,,,,,,,,,,,,,,,451.3664,454.3495,0,0,2.4787,,0,74,74,32,1,1,cuban,,,,,,,,,,,,,,,,,,,,,,,,,,,,,,,,,,,,,,,,,,,,,,,,,,,,,,,,
,,,,,,,,,6664dfc807e75330a8b54a8b,Spanish,13 or older,"yes, I am fluent in another language",no,2025-07-23_04h29.39.267,empathy_intonation_perc,2024.2.4,Win32,60.24096386,6664dfc807e75330a8b54a8b,687ed1b7e638a4cbf2f02089,68809c1ed83cdc19d6115776,,,,,,,,,,,,,86,0,,./stim/wavs/puertorican_mismatch_declarative-broad-focus_El-nino-oye-el-rio.wav,,,,,,,,,,,,,,,,,,,,,,454.3498,456.7662,0,1,1.9107,,0,75,75,85,1,0,puertorican,,,,,,,,,,,,,,,,,,,,,,,,,,,,,,,,,,,,,,,,,,,,,,,,,,,,,,,,
,,,,,,,,,6664dfc807e75330a8b54a8b,Spanish,13 or older,"yes, I am fluent in another language",no,2025-07-23_04h29.39.267,empathy_intonation_perc,2024.2.4,Win32,60.24096386,6664dfc807e75330a8b54a8b,687ed1b7e638a4cbf2f02089,68809c1ed83cdc19d6115776,,,,,,,,,,,,,69,0,,./stim/wavs/castilian_mismatch_declarative-broad-focus_El-nino-oye-el-rio.wav,,,,,,,,,,,,,,,,,,,,,,456.7664,459.1997,1,0,1.9239,,0,76,76,68,1,0,castilian,,,,,,,,,,,,,,,,,,,,,,,,,,,,,,,,,,,,,,,,,,,,,,,,,,,,,,,,
,,,,,,,,,6664dfc807e75330a8b54a8b,Spanish,13 or older,"yes, I am fluent in another language",no,2025-07-23_04h29.39.267,empathy_intonation_perc,2024.2.4,Win32,60.24096386,6664dfc807e75330a8b54a8b,687ed1b7e638a4cbf2f02089,68809c1ed83cdc19d6115776,,,,,,,,,,,,,24,1,,./stim/wavs/puertorican_match_interrogative-total-yn_Maria-bebe-el-vino.wav,,,,,,,,,,,,,,,,,,,,,,459.1999,461.9346,0,0,2.2156,,0,77,77,23,1,1,puertorican,,,,,,,,,,,,,,,,,,,,,,,,,,,,,,,,,,,,,,,,,,,,,,,,,,,,,,,,
,,,,,,,,,6664dfc807e75330a8b54a8b,Spanish,13 or older,"yes, I am fluent in another language",no,2025-07-23_04h29.39.267,empathy_intonation_perc,2024.2.4,Win32,60.24096386,6664dfc807e75330a8b54a8b,687ed1b7e638a4cbf2f02089,68809c1ed83cdc19d6115776,,,,,,,,,,,,,61,0,,./stim/wavs/mexican_match_declarative-broad-focus_Mariano-habla-del-tiempo.wav,,,,,,,,,,,,,,,,,,,,,,461.9348,464.183,0,1,1.7256,0.0001,0,78,78,60,1,0,mexican,,,,,,,,,,,,,,,,,,,,,,,,,,,,,,,,,,,,,,,,,,,,,,,,,,,,,,,,
,,,,,,,,,6664dfc807e75330a8b54a8b,Spanish,13 or older,"yes, I am fluent in another language",no,2025-07-23_04h29.39.267,empathy_intonation_perc,2024.2.4,Win32,60.24096386,6664dfc807e75330a8b54a8b,687ed1b7e638a4cbf2f02089,68809c1ed83cdc19d6115776,,,,,,,,,,,,,87,0,,./stim/wavs/puertorican_mismatch_declarative-broad-focus_La-maestra-vive-en-Paris.wav,,,,,,,,,,,,,,,,,,,,,,464.1833,467.0834,0,1,2.364,,0,79,79,86,1,0,puertorican,,,,,,,,,,,,,,,,,,,,,,,,,,,,,,,,,,,,,,,,,,,,,,,,,,,,,,,,
,,,,,,,,,6664dfc807e75330a8b54a8b,Spanish,13 or older,"yes, I am fluent in another language",no,2025-07-23_04h29.39.267,empathy_intonation_perc,2024.2.4,Win32,60.24096386,6664dfc807e75330a8b54a8b,687ed1b7e638a4cbf2f02089,68809c1ed83cdc19d6115776,,,,,,,,,,,,,51,0,,./stim/wavs/cuban_match_declarative-broad-focus_Ana-lleva-el-abrigo.wav,,,,,,,,,,,,,,,,,,,,,,467.0845,470.0505,0,1,2.449,,0,80,80,50,1,0,cuban,,,,,,,,,,,,,,,,,,,,,,,,,,,,,,,,,,,,,,,,,,,,,,,,,,,,,,,,
,,,,,,,,,6664dfc807e75330a8b54a8b,Spanish,13 or older,"yes, I am fluent in another language",no,2025-07-23_04h29.39.267,empathy_intonation_perc,2024.2.4,Win32,60.24096386,6664dfc807e75330a8b54a8b,687ed1b7e638a4cbf2f02089,68809c1ed83cdc19d6115776,,,,,,,,,,,,,73,0,,./stim/wavs/castilian_mismatch_declarative-broad-focus_Mi-tia-odia-la-lluvia.wav,,,,,,,,,,,,,,,,,,,,,,470.0507,472.7166,0,1,2.1638,,0,81,81,72,1,0,castilian,,,,,,,,,,,,,,,,,,,,,,,,,,,,,,,,,,,,,,,,,,,,,,,,,,,,,,,,
,,,,,,,,,6664dfc807e75330a8b54a8b,Spanish,13 or older,"yes, I am fluent in another language",no,2025-07-23_04h29.39.267,empathy_intonation_perc,2024.2.4,Win32,60.24096386,6664dfc807e75330a8b54a8b,687ed1b7e638a4cbf2f02089,68809c1ed83cdc19d6115776,,,,,,,,,,,,,32,1,,./stim/wavs/cuban_mismatch_interrogative-total-yn_Mi-madre-come-la-fruta.wav,,,,,,,,,,,,,,,,,,,,,,472.7169,475.0187,1,1,1.7838,,0,82,82,31,1,1,cuban,,,,,,,,,,,,,,,,,,,,,,,,,,,,,,,,,,,,,,,,,,,,,,,,,,,,,,,,
,,,,,,,,,6664dfc807e75330a8b54a8b,Spanish,13 or older,"yes, I am fluent in another language",no,2025-07-23_04h29.39.267,empathy_intonation_perc,2024.2.4,Win32,60.24096386,6664dfc807e75330a8b54a8b,687ed1b7e638a4cbf2f02089,68809c1ed83cdc19d6115776,,,,,,,,,,,,,43,1,,./stim/wavs/puertorican_mismatch_interrogative-total-yn_La-nina-lava-el-plato.wav,,,,,,,,,,,,,,,,,,,,,,475.0189,477.0517,1,1,1.516,,0,83,83,42,1,1,puertorican,,,,,,,,,,,,,,,,,,,,,,,,,,,,,,,,,,,,,,,,,,,,,,,,,,,,,,,,
,,,,,,,,,6664dfc807e75330a8b54a8b,Spanish,13 or older,"yes, I am fluent in another language",no,2025-07-23_04h29.39.267,empathy_intonation_perc,2024.2.4,Win32,60.24096386,6664dfc807e75330a8b54a8b,687ed1b7e638a4cbf2f02089,68809c1ed83cdc19d6115776,,,,,,,,,,,,,45,0,,./stim/wavs/castilian_match_declarative-broad-focus_David-leia-el-libro.wav,,,,,,,,,,,,,,,,,,,,,,477.0519,479.5335,1,0,1.9396,,0,84,84,44,1,0,castilian,,,,,,,,,,,,,,,,,,,,,,,,,,,,,,,,,,,,,,,,,,,,,,,,,,,,,,,,
,,,,,,,,,6664dfc807e75330a8b54a8b,Spanish,13 or older,"yes, I am fluent in another language",no,2025-07-23_04h29.39.267,empathy_intonation_perc,2024.2.4,Win32,60.24096386,6664dfc807e75330a8b54a8b,687ed1b7e638a4cbf2f02089,68809c1ed83cdc19d6115776,,,,,,,,,,,,,65,0,,./stim/wavs/puertorican_match_declarative-broad-focus_David-leia-el-libro.wav,,,,,,,,,,,,,,,,,,,,,,479.5343,481.8498,0,1,1.8066,,0,85,85,64,1,0,puertorican,,,,,,,,,,,,,,,,,,,,,,,,,,,,,,,,,,,,,,,,,,,,,,,,,,,,,,,,
,,,,,,,,,6664dfc807e75330a8b54a8b,Spanish,13 or older,"yes, I am fluent in another language",no,2025-07-23_04h29.39.267,empathy_intonation_perc,2024.2.4,Win32,60.24096386,6664dfc807e75330a8b54a8b,687ed1b7e638a4cbf2f02089,68809c1ed83cdc19d6115776,,,,,,,,,,,,,13,1,,./stim/wavs/mexican_match_interrogative-total-yn_Ana-lleva-el-abrigo.wav,,,,,,,,,,,,,,,,,,,,,,481.8501,484.3664,1,1,1.9894,,0,86,86,12,1,0,mexican,,,,,,,,,,,,,,,,,,,,,,,,,,,,,,,,,,,,,,,,,,,,,,,,,,,,,,,,
,,,,,,,,,6664dfc807e75330a8b54a8b,Spanish,13 or older,"yes, I am fluent in another language",no,2025-07-23_04h29.39.267,empathy_intonation_perc,2024.2.4,Win32,60.24096386,6664dfc807e75330a8b54a8b,687ed1b7e638a4cbf2f02089,68809c1ed83cdc19d6115776,,,,,,,,,,,,,15,1,,./stim/wavs/mexican_match_interrogative-total-yn_David-leia-el-libro.wav,,,,,,,,,,,,,,,,,,,,,,484.3666,487.0169,1,1,2.1264,,0,87,87,14,1,0,mexican,,,,,,,,,,,,,,,,,,,,,,,,,,,,,,,,,,,,,,,,,,,,,,,,,,,,,,,,
,,,,,,,"Great! Now we will move on. The next task consists of about 60 trials, in each of which you will see a string of letters. 
  
  Your task is to decide whether this is a real Spanish word or not.", (press the spacebar to continue),6664dfc807e75330a8b54a8b,Spanish,13 or older,"yes, I am fluent in another language",no,2025-07-23_04h29.39.267,empathy_intonation_perc,2024.2.4,Win32,60.24096386,6664dfc807e75330a8b54a8b,687ed1b7e638a4cbf2f02089,68809c1ed83cdc19d6115776,,,,,,,,,,,,,,,,,,,,,,,,,,,,,,,,,,,,,,,,,,,,,,,,,,,487.0238,496.8834,0,0,0,0,1,,,,,,,,,,,,,,,,,,,,,,,,,,,,,,,,,,,,,,,,,,,,,,,,,
,,,,,,,"If you think it is an existing Spanish word, you type '1' (for 'REAL'), and if you think it is not an existing Spanish word, you type '0' (for 'FAKE').", (press the spacebar to continue),6664dfc807e75330a8b54a8b,Spanish,13 or older,"yes, I am fluent in another language",no,2025-07-23_04h29.39.267,empathy_intonation_perc,2024.2.4,Win32,60.24096386,6664dfc807e75330a8b54a8b,687ed1b7e638a4cbf2f02089,68809c1ed83cdc19d6115776,,,,,,,,,,,,,,,,,,,,,,,,,,,,,,,,,,,,,,,,,,,,,,,,,,,496.8843,507.1334,0,1,1,1,1,,,,,,,,,,,,,,,,,,,,,,,,,,,,,,,,,,,,,,,,,,,,,,,,,
,,,,,,,"If you are sure that the word exists, even though you don’t know its exact meaning, you may still respond '1' (REAL). 
  
  But if you are not sure if it is an existing word, you should respond '0' (FAKE).
  
  Let's do a practice round...", (press the spacebar to continue),6664dfc807e75330a8b54a8b,Spanish,13 or older,"yes, I am fluent in another language",no,2025-07-23_04h29.39.267,empathy_intonation_perc,2024.2.4,Win32,60.24096386,6664dfc807e75330a8b54a8b,687ed1b7e638a4cbf2f02089,68809c1ed83cdc19d6115776,,,,,,,,,,,,,,,,,,,,,,,,,,,,,,,,,,,,,,,,,,,,,,,,,,,507.1344,515.2001,0,2,2,2,1,,,,,,,,,,,,,,,,,,,,,,,,,,,,,,,,,,,,,,,,,,,,,,,,,
,,,,,,,,,6664dfc807e75330a8b54a8b,Spanish,13 or older,"yes, I am fluent in another language",no,2025-07-23_04h29.39.267,empathy_intonation_perc,2024.2.4,Win32,60.24096386,6664dfc807e75330a8b54a8b,687ed1b7e638a4cbf2f02089,68809c1ed83cdc19d6115776,,,,,,,,,,,,,,0,,,,,,,,,,,,,,,,,,,,,,,,,,,,,,,,,,,,,,,,,,,,515.2025,518.0176,1,0,2.2928,,518.0181,519.0191,0,0,0,0,1,0,depiste,REAL,FAKE,,,,,,,,,,,,,,,,,,,,,,,,,,,,,,,,
,,,,,,,,,6664dfc807e75330a8b54a8b,Spanish,13 or older,"yes, I am fluent in another language",no,2025-07-23_04h29.39.267,empathy_intonation_perc,2024.2.4,Win32,60.24096386,6664dfc807e75330a8b54a8b,687ed1b7e638a4cbf2f02089,68809c1ed83cdc19d6115776,,,,,,,,,,,,,,1,,,,,,,,,,,,,,,,,,,,,,,,,,,,,,,,,,,,,,,,,,,,519.0311,520.6668,1,1,1.1009,,520.6672,521.6677,0,1,1,1,1,0,sí,REAL,FAKE,,,,,,,,,,,,,,,,,,,,,,,,,,,,,,,,
,,,,,,,,,6664dfc807e75330a8b54a8b,Spanish,13 or older,"yes, I am fluent in another language",no,2025-07-23_04h29.39.267,empathy_intonation_perc,2024.2.4,Win32,60.24096386,6664dfc807e75330a8b54a8b,687ed1b7e638a4cbf2f02089,68809c1ed83cdc19d6115776,,,,,,,,,,,,,,0,,,,,,,,,,,,,,,,,,,,,,,,,,,,,,,,,,,,,,,,,,,,521.6702,523.1506,1,0,0.9649,,523.151,524.15,0,2,2,2,1,0,coné,REAL,FAKE,,,,,,,,,,,,,,,,,,,,,,,,,,,,,,,,
,,,,,,,,,6664dfc807e75330a8b54a8b,Spanish,13 or older,"yes, I am fluent in another language",no,2025-07-23_04h29.39.267,empathy_intonation_perc,2024.2.4,Win32,60.24096386,6664dfc807e75330a8b54a8b,687ed1b7e638a4cbf2f02089,68809c1ed83cdc19d6115776,,,,,,,,,,,,,,0,,,,,,,,,,,,,,,,,,,,,,,,,,,,,,,,,,,,,,,,,,,,524.1505,525.7168,1,0,1.0196,,525.7169,526.7187,0,3,3,3,1,0,calpar,REAL,FAKE,,,,,,,,,,,,,,,,,,,,,,,,,,,,,,,,
,,,,,,,,,6664dfc807e75330a8b54a8b,Spanish,13 or older,"yes, I am fluent in another language",no,2025-07-23_04h29.39.267,empathy_intonation_perc,2024.2.4,Win32,60.24096386,6664dfc807e75330a8b54a8b,687ed1b7e638a4cbf2f02089,68809c1ed83cdc19d6115776,,,,,,,,,,,,,,0,,,,,,,,,,,,,,,,,,,,,,,,,,,,,,,,,,,,,,,,,,,,526.7192,528.2352,0,1,0.9828,,528.2354,529.2341,0,4,4,4,1,0,joten,REAL,FAKE,,,,,,,,,,,,,,,,,,,,,,,,,,,,,,,,
,,,,,,,,,6664dfc807e75330a8b54a8b,Spanish,13 or older,"yes, I am fluent in another language",no,2025-07-23_04h29.39.267,empathy_intonation_perc,2024.2.4,Win32,60.24096386,6664dfc807e75330a8b54a8b,687ed1b7e638a4cbf2f02089,68809c1ed83cdc19d6115776,,,,,,,,,,,,,,1,,,,,,,,,,,,,,,,,,,,,,,,,,,,,,,,,,,,,,,,,,,,529.2356,531.5854,1,1,1.8166,,531.5855,532.5835,0,5,5,5,1,0,sacapuntas,REAL,FAKE,,,,,,,,,,,,,,,,,,,,,,,,,,,,,,,,
,,,,,,,,,6664dfc807e75330a8b54a8b,Spanish,13 or older,"yes, I am fluent in another language",no,2025-07-23_04h29.39.267,empathy_intonation_perc,2024.2.4,Win32,60.24096386,6664dfc807e75330a8b54a8b,687ed1b7e638a4cbf2f02089,68809c1ed83cdc19d6115776,,,,,,,,,,,,,,0,,,,,,,,,,,,,,,,,,,,,,,,,,,,,,,,,,,,,,,,,,,,532.5842,534.1169,1,0,0.99,,534.1172,535.1187,0,6,6,6,1,0,priba,REAL,FAKE,,,,,,,,,,,,,,,,,,,,,,,,,,,,,,,,
,,,,,,,,,6664dfc807e75330a8b54a8b,Spanish,13 or older,"yes, I am fluent in another language",no,2025-07-23_04h29.39.267,empathy_intonation_perc,2024.2.4,Win32,60.24096386,6664dfc807e75330a8b54a8b,687ed1b7e638a4cbf2f02089,68809c1ed83cdc19d6115776,,,,,,,,,,,,,,0,,,,,,,,,,,,,,,,,,,,,,,,,,,,,,,,,,,,,,,,,,,,535.1191,536.7503,0,1,1.1054,,536.7507,537.7524,0,7,7,7,1,0,pelasula,REAL,FAKE,,,,,,,,,,,,,,,,,,,,,,,,,,,,,,,,
,,,,,,,,,6664dfc807e75330a8b54a8b,Spanish,13 or older,"yes, I am fluent in another language",no,2025-07-23_04h29.39.267,empathy_intonation_perc,2024.2.4,Win32,60.24096386,6664dfc807e75330a8b54a8b,687ed1b7e638a4cbf2f02089,68809c1ed83cdc19d6115776,,,,,,,,,,,,,,1,,,,,,,,,,,,,,,,,,,,,,,,,,,,,,,,,,,,,,,,,,,,537.7529,539.2675,1,1,0.969,,539.2676,540.2678,0,8,8,8,1,0,bien,REAL,FAKE,,,,,,,,,,,,,,,,,,,,,,,,,,,,,,,,
,,,,,,,,,6664dfc807e75330a8b54a8b,Spanish,13 or older,"yes, I am fluent in another language",no,2025-07-23_04h29.39.267,empathy_intonation_perc,2024.2.4,Win32,60.24096386,6664dfc807e75330a8b54a8b,687ed1b7e638a4cbf2f02089,68809c1ed83cdc19d6115776,,,,,,,,,,,,,,1,,,,,,,,,,,,,,,,,,,,,,,,,,,,,,,,,,,,,,,,,,,,540.2692,541.667,1,1,0.854,,541.667,542.667,0,9,9,9,1,0,casa,REAL,FAKE,,,,,,,,,,,,,,,,,,,,,,,,,,,,,,,,
,,,,,,,,,6664dfc807e75330a8b54a8b,Spanish,13 or older,"yes, I am fluent in another language",no,2025-07-23_04h29.39.267,empathy_intonation_perc,2024.2.4,Win32,60.24096386,6664dfc807e75330a8b54a8b,687ed1b7e638a4cbf2f02089,68809c1ed83cdc19d6115776,,,,,,,,,,,,,,0,,,,,,,,,,,,,,,,,,,,,,,,,,,,,,,,,,,,,,,,,,,,542.6675,544.2509,0,1,1.0348,,544.2509,545.2508,0,10,10,10,1,0,lejo,REAL,FAKE,,,,,,,,,,,,,,,,,,,,,,,,,,,,,,,,
,,,,,,,,,6664dfc807e75330a8b54a8b,Spanish,13 or older,"yes, I am fluent in another language",no,2025-07-23_04h29.39.267,empathy_intonation_perc,2024.2.4,Win32,60.24096386,6664dfc807e75330a8b54a8b,687ed1b7e638a4cbf2f02089,68809c1ed83cdc19d6115776,,,,,,,,,,,,,,0,,,,,,,,,,,,,,,,,,,,,,,,,,,,,,,,,,,,,,,,,,,,545.2523,546.917,1,0,1.1305,,546.9173,547.9192,0,11,11,11,1,0,pretantas,REAL,FAKE,,,,,,,,,,,,,,,,,,,,,,,,,,,,,,,,
,,,,,,,,,6664dfc807e75330a8b54a8b,Spanish,13 or older,"yes, I am fluent in another language",no,2025-07-23_04h29.39.267,empathy_intonation_perc,2024.2.4,Win32,60.24096386,6664dfc807e75330a8b54a8b,687ed1b7e638a4cbf2f02089,68809c1ed83cdc19d6115776,,,,,,,,,,,,,,,,,,,,,,,,,,,,,,,,,,,,,,,,,,,,,,,,,,,,,,,,,,,,,,,,,,,,,,,,,,,547.9193,555.7673,,,,,,,,,,,,,,,,,,,,,,,,,,,,,,
,,,,,,,,,6664dfc807e75330a8b54a8b,Spanish,13 or older,"yes, I am fluent in another language",no,2025-07-23_04h29.39.267,empathy_intonation_perc,2024.2.4,Win32,60.24096386,6664dfc807e75330a8b54a8b,687ed1b7e638a4cbf2f02089,68809c1ed83cdc19d6115776,,,,,,,,,,,,,,1,,,,,,,,,,,,,,,,,,,,,,,,,,,,,,,,,,,,,,,,,,,,,,,,,,,,,,,,,37,granuja,,,,,555.7713,557.5862,1,1,1.2837,,0,0,0,36,1,REAL,FAKE,,,,,,,,,,,,,,,,,
,,,,,,,,,6664dfc807e75330a8b54a8b,Spanish,13 or older,"yes, I am fluent in another language",no,2025-07-23_04h29.39.267,empathy_intonation_perc,2024.2.4,Win32,60.24096386,6664dfc807e75330a8b54a8b,687ed1b7e638a4cbf2f02089,68809c1ed83cdc19d6115776,,,,,,,,,,,,,,1,,,,,,,,,,,,,,,,,,,,,,,,,,,,,,,,,,,,,,,,,,,,,,,,,,,,,,,,,88,acantilado,,,,,557.5866,559.2172,0,0,1.0946,,0,1,1,87,1,REAL,FAKE,,,,,,,,,,,,,,,,,
,,,,,,,,,6664dfc807e75330a8b54a8b,Spanish,13 or older,"yes, I am fluent in another language",no,2025-07-23_04h29.39.267,empathy_intonation_perc,2024.2.4,Win32,60.24096386,6664dfc807e75330a8b54a8b,687ed1b7e638a4cbf2f02089,68809c1ed83cdc19d6115776,,,,,,,,,,,,,,1,,,,,,,,,,,,,,,,,,,,,,,,,,,,,,,,,,,,,,,,,,,,,,,,,,,,,,,,,48,ladrón,,,,,559.2178,560.7689,0,0,1.033,,0,2,2,47,1,REAL,FAKE,,,,,,,,,,,,,,,,,
,,,,,,,,,6664dfc807e75330a8b54a8b,Spanish,13 or older,"yes, I am fluent in another language",no,2025-07-23_04h29.39.267,empathy_intonation_perc,2024.2.4,Win32,60.24096386,6664dfc807e75330a8b54a8b,687ed1b7e638a4cbf2f02089,68809c1ed83cdc19d6115776,,,,,,,,,,,,,,0,,,,,,,,,,,,,,,,,,,,,,,,,,,,,,,,,,,,,,,,,,,,,,,,,,,,,,,,,27,acutación,,,,,560.7692,562.1525,1,0,0.8504,,0,3,3,26,1,REAL,FAKE,,,,,,,,,,,,,,,,,
,,,,,,,,,6664dfc807e75330a8b54a8b,Spanish,13 or older,"yes, I am fluent in another language",no,2025-07-23_04h29.39.267,empathy_intonation_perc,2024.2.4,Win32,60.24096386,6664dfc807e75330a8b54a8b,687ed1b7e638a4cbf2f02089,68809c1ed83cdc19d6115776,,,,,,,,,,,,,,1,,,,,,,,,,,,,,,,,,,,,,,,,,,,,,,,,,,,,,,,,,,,,,,,,,,,,,,,,7,pésimo,,,,,562.1528,563.7029,0,0,1.017,,0,4,4,6,1,REAL,FAKE,,,,,,,,,,,,,,,,,
,,,,,,,,,6664dfc807e75330a8b54a8b,Spanish,13 or older,"yes, I am fluent in another language",no,2025-07-23_04h29.39.267,empathy_intonation_perc,2024.2.4,Win32,60.24096386,6664dfc807e75330a8b54a8b,687ed1b7e638a4cbf2f02089,68809c1ed83cdc19d6115776,,,,,,,,,,,,,,1,,,,,,,,,,,,,,,,,,,,,,,,,,,,,,,,,,,,,,,,,,,,,,,,,,,,,,,,,81,pozo,,,,,563.7034,565.4005,1,1,1.1525,,0,5,5,80,1,REAL,FAKE,,,,,,,,,,,,,,,,,
,,,,,,,,,6664dfc807e75330a8b54a8b,Spanish,13 or older,"yes, I am fluent in another language",no,2025-07-23_04h29.39.267,empathy_intonation_perc,2024.2.4,Win32,60.24096386,6664dfc807e75330a8b54a8b,687ed1b7e638a4cbf2f02089,68809c1ed83cdc19d6115776,,,,,,,,,,,,,,1,,,,,,,,,,,,,,,,,,,,,,,,,,,,,,,,,,,,,,,,,,,,,,,,,,,,,,,,,41,rebuscar,,,,,565.4009,567.4839,0,0,1.5619,,0,6,6,40,1,REAL,FAKE,,,,,,,,,,,,,,,,,
,,,,,,,,,6664dfc807e75330a8b54a8b,Spanish,13 or older,"yes, I am fluent in another language",no,2025-07-23_04h29.39.267,empathy_intonation_perc,2024.2.4,Win32,60.24096386,6664dfc807e75330a8b54a8b,687ed1b7e638a4cbf2f02089,68809c1ed83cdc19d6115776,,,,,,,,,,,,,,1,,,,,,,,,,,,,,,,,,,,,,,,,,,,,,,,,,,,,,,,,,,,,,,,,,,,,,,,,54,fomentar,,,,,567.4843,569.1172,0,0,1.1094,,0,7,7,53,1,REAL,FAKE,,,,,,,,,,,,,,,,,
,,,,,,,,,6664dfc807e75330a8b54a8b,Spanish,13 or older,"yes, I am fluent in another language",no,2025-07-23_04h29.39.267,empathy_intonation_perc,2024.2.4,Win32,60.24096386,6664dfc807e75330a8b54a8b,687ed1b7e638a4cbf2f02089,68809c1ed83cdc19d6115776,,,,,,,,,,,,,,0,,,,,,,,,,,,,,,,,,,,,,,,,,,,,,,,,,,,,,,,,,,,,,,,,,,,,,,,,4,batillón,,,,,569.1176,570.3839,1,0,0.7372,,0,8,8,3,1,REAL,FAKE,,,,,,,,,,,,,,,,,
,,,,,,,,,6664dfc807e75330a8b54a8b,Spanish,13 or older,"yes, I am fluent in another language",no,2025-07-23_04h29.39.267,empathy_intonation_perc,2024.2.4,Win32,60.24096386,6664dfc807e75330a8b54a8b,687ed1b7e638a4cbf2f02089,68809c1ed83cdc19d6115776,,,,,,,,,,,,,,1,,,,,,,,,,,,,,,,,,,,,,,,,,,,,,,,,,,,,,,,,,,,,,,,,,,,,,,,,61,seda,,,,,570.3844,571.8673,1,1,0.9381,,0,9,9,60,1,REAL,FAKE,,,,,,,,,,,,,,,,,
,,,,,,,,,6664dfc807e75330a8b54a8b,Spanish,13 or older,"yes, I am fluent in another language",no,2025-07-23_04h29.39.267,empathy_intonation_perc,2024.2.4,Win32,60.24096386,6664dfc807e75330a8b54a8b,687ed1b7e638a4cbf2f02089,68809c1ed83cdc19d6115776,,,,,,,,,,,,,,1,,,,,,,,,,,,,,,,,,,,,,,,,,,,,,,,,,,,,,,,,,,,,,,,,,,,,,,,,45,jilguero,,,,,571.8677,573.0342,0,0,0.6274,,0,10,10,44,1,REAL,FAKE,,,,,,,,,,,,,,,,,
,,,,,,,,,6664dfc807e75330a8b54a8b,Spanish,13 or older,"yes, I am fluent in another language",no,2025-07-23_04h29.39.267,empathy_intonation_perc,2024.2.4,Win32,60.24096386,6664dfc807e75330a8b54a8b,687ed1b7e638a4cbf2f02089,68809c1ed83cdc19d6115776,,,,,,,,,,,,,,0,,,,,,,,,,,,,,,,,,,,,,,,,,,,,,,,,,,,,,,,,,,,,,,,,,,,,,,,,58,plaudir,,,,,573.0346,574.7507,1,0,1.1796,,0,11,11,57,1,REAL,FAKE,,,,,,,,,,,,,,,,,
,,,,,,,,,6664dfc807e75330a8b54a8b,Spanish,13 or older,"yes, I am fluent in another language",no,2025-07-23_04h29.39.267,empathy_intonation_perc,2024.2.4,Win32,60.24096386,6664dfc807e75330a8b54a8b,687ed1b7e638a4cbf2f02089,68809c1ed83cdc19d6115776,,,,,,,,,,,,,,0,,,,,,,,,,,,,,,,,,,,,,,,,,,,,,,,,,,,,,,,,,,,,,,,,,,,,,,,,29,decar,,,,,574.7511,576.984,0,1,1.6901,,0,12,12,28,1,REAL,FAKE,,,,,,,,,,,,,,,,,
,,,,,,,,,6664dfc807e75330a8b54a8b,Spanish,13 or older,"yes, I am fluent in another language",no,2025-07-23_04h29.39.267,empathy_intonation_perc,2024.2.4,Win32,60.24096386,6664dfc807e75330a8b54a8b,687ed1b7e638a4cbf2f02089,68809c1ed83cdc19d6115776,,,,,,,,,,,,,,0,,,,,,,,,,,,,,,,,,,,,,,,,,,,,,,,,,,,,,,,,,,,,,,,,,,,,,,,,19,brecedad,,,,,576.9844,578.8677,1,0,1.3557,,0,13,13,18,1,REAL,FAKE,,,,,,,,,,,,,,,,,
,,,,,,,,,6664dfc807e75330a8b54a8b,Spanish,13 or older,"yes, I am fluent in another language",no,2025-07-23_04h29.39.267,empathy_intonation_perc,2024.2.4,Win32,60.24096386,6664dfc807e75330a8b54a8b,687ed1b7e638a4cbf2f02089,68809c1ed83cdc19d6115776,,,,,,,,,,,,,,1,,,,,,,,,,,,,,,,,,,,,,,,,,,,,,,,,,,,,,,,,,,,,,,,,,,,,,,,,9,hacha,,,,,578.869,580.851,1,1,1.446,,0,14,14,8,1,REAL,FAKE,,,,,,,,,,,,,,,,,
,,,,,,,,,6664dfc807e75330a8b54a8b,Spanish,13 or older,"yes, I am fluent in another language",no,2025-07-23_04h29.39.267,empathy_intonation_perc,2024.2.4,Win32,60.24096386,6664dfc807e75330a8b54a8b,687ed1b7e638a4cbf2f02089,68809c1ed83cdc19d6115776,,,,,,,,,,,,,,0,,,,,,,,,,,,,,,,,,,,,,,,,,,,,,,,,,,,,,,,,,,,,,,,,,,,,,,,,21,capillo,,,,,580.8526,582.0507,0,1,0.6522,,0,15,15,20,1,REAL,FAKE,,,,,,,,,,,,,,,,,
,,,,,,,,,6664dfc807e75330a8b54a8b,Spanish,13 or older,"yes, I am fluent in another language",no,2025-07-23_04h29.39.267,empathy_intonation_perc,2024.2.4,Win32,60.24096386,6664dfc807e75330a8b54a8b,687ed1b7e638a4cbf2f02089,68809c1ed83cdc19d6115776,,,,,,,,,,,,,,0,,,,,,,,,,,,,,,,,,,,,,,,,,,,,,,,,,,,,,,,,,,,,,,,,,,,,,,,,32,fatacidad,,,,,582.0511,584.0511,1,0,1.457,,0,16,16,31,1,REAL,FAKE,,,,,,,,,,,,,,,,,
,,,,,,,,,6664dfc807e75330a8b54a8b,Spanish,13 or older,"yes, I am fluent in another language",no,2025-07-23_04h29.39.267,empathy_intonation_perc,2024.2.4,Win32,60.24096386,6664dfc807e75330a8b54a8b,687ed1b7e638a4cbf2f02089,68809c1ed83cdc19d6115776,,,,,,,,,,,,,,1,,,,,,,,,,,,,,,,,,,,,,,,,,,,,,,,,,,,,,,,,,,,,,,,,,,,,,,,,39,torpe,,,,,584.0528,585.3858,0,0,0.7994,,0,17,17,38,1,REAL,FAKE,,,,,,,,,,,,,,,,,
,,,,,,,,,6664dfc807e75330a8b54a8b,Spanish,13 or older,"yes, I am fluent in another language",no,2025-07-23_04h29.39.267,empathy_intonation_perc,2024.2.4,Win32,60.24096386,6664dfc807e75330a8b54a8b,687ed1b7e638a4cbf2f02089,68809c1ed83cdc19d6115776,,,,,,,,,,,,,,0,,,,,,,,,,,,,,,,,,,,,,,,,,,,,,,,,,,,,,,,,,,,,,,,,,,,,,,,,63,esposante,,,,,585.3861,587.034,1,0,1.1148,,0,18,18,62,1,REAL,FAKE,,,,,,,,,,,,,,,,,
,,,,,,,,,6664dfc807e75330a8b54a8b,Spanish,13 or older,"yes, I am fluent in another language",no,2025-07-23_04h29.39.267,empathy_intonation_perc,2024.2.4,Win32,60.24096386,6664dfc807e75330a8b54a8b,687ed1b7e638a4cbf2f02089,68809c1ed83cdc19d6115776,,,,,,,,,,,,,,0,,,,,,,,,,,,,,,,,,,,,,,,,,,,,,,,,,,,,,,,,,,,,,,,,,,,,,,,,92,click the 0 key.,,,,,587.0345,588.9842,0,1,1.3994,,0,19,19,91,1,REAL,FAKE,,,,,,,,,,,,,,,,,
,,,,,,,,,6664dfc807e75330a8b54a8b,Spanish,13 or older,"yes, I am fluent in another language",no,2025-07-23_04h29.39.267,empathy_intonation_perc,2024.2.4,Win32,60.24096386,6664dfc807e75330a8b54a8b,687ed1b7e638a4cbf2f02089,68809c1ed83cdc19d6115776,,,,,,,,,,,,,,1,,,,,,,,,,,,,,,,,,,,,,,,,,,,,,,,,,,,,,,,,,,,,,,,,,,,,,,,,64,orgulloso,,,,,588.9846,590.8342,0,0,1.3224,,0,20,20,63,1,REAL,FAKE,,,,,,,,,,,,,,,,,
,,,,,,,,,6664dfc807e75330a8b54a8b,Spanish,13 or older,"yes, I am fluent in another language",no,2025-07-23_04h29.39.267,empathy_intonation_perc,2024.2.4,Win32,60.24096386,6664dfc807e75330a8b54a8b,687ed1b7e638a4cbf2f02089,68809c1ed83cdc19d6115776,,,,,,,,,,,,,,1,,,,,,,,,,,,,,,,,,,,,,,,,,,,,,,,,,,,,,,,,,,,,,,,,,,,,,,,,14,yunque,,,,,590.8346,593.8508,1,1,2.4841,,0,21,21,13,1,REAL,FAKE,,,,,,,,,,,,,,,,,
,,,,,,,,,6664dfc807e75330a8b54a8b,Spanish,13 or older,"yes, I am fluent in another language",no,2025-07-23_04h29.39.267,empathy_intonation_perc,2024.2.4,Win32,60.24096386,6664dfc807e75330a8b54a8b,687ed1b7e638a4cbf2f02089,68809c1ed83cdc19d6115776,,,,,,,,,,,,,,1,,,,,,,,,,,,,,,,,,,,,,,,,,,,,,,,,,,,,,,,,,,,,,,,,,,,,,,,,78,frondoso,,,,,593.8513,596.2362,0,0,1.8501,,0,22,22,77,1,REAL,FAKE,,,,,,,,,,,,,,,,,
,,,,,,,,,6664dfc807e75330a8b54a8b,Spanish,13 or older,"yes, I am fluent in another language",no,2025-07-23_04h29.39.267,empathy_intonation_perc,2024.2.4,Win32,60.24096386,6664dfc807e75330a8b54a8b,687ed1b7e638a4cbf2f02089,68809c1ed83cdc19d6115776,,,,,,,,,,,,,,0,,,,,,,,,,,,,,,,,,,,,,,,,,,,,,,,,,,,,,,,,,,,,,,,,,,,,,,,,23,lampera,,,,,596.2365,597.6841,1,0,0.9075,,0,23,23,22,1,REAL,FAKE,,,,,,,,,,,,,,,,,
,,,,,,,,,6664dfc807e75330a8b54a8b,Spanish,13 or older,"yes, I am fluent in another language",no,2025-07-23_04h29.39.267,empathy_intonation_perc,2024.2.4,Win32,60.24096386,6664dfc807e75330a8b54a8b,687ed1b7e638a4cbf2f02089,68809c1ed83cdc19d6115776,,,,,,,,,,,,,,1,,,,,,,,,,,,,,,,,,,,,,,,,,,,,,,,,,,,,,,,,,,,,,,,,,,,,,,,,3,pulmones,,,,,597.6847,599.0842,0,0,0.8632,,0,24,24,2,1,REAL,FAKE,,,,,,,,,,,,,,,,,
,,,,,,,,,6664dfc807e75330a8b54a8b,Spanish,13 or older,"yes, I am fluent in another language",no,2025-07-23_04h29.39.267,empathy_intonation_perc,2024.2.4,Win32,60.24096386,6664dfc807e75330a8b54a8b,687ed1b7e638a4cbf2f02089,68809c1ed83cdc19d6115776,,,,,,,,,,,,,,0,,,,,,,,,,,,,,,,,,,,,,,,,,,,,,,,,,,,,,,,,,,,,,,,,,,,,,,,,53,vegada,,,,,599.0849,600.5675,0,1,0.9371,,0,25,25,52,1,REAL,FAKE,,,,,,,,,,,,,,,,,
,,,,,,,,,6664dfc807e75330a8b54a8b,Spanish,13 or older,"yes, I am fluent in another language",no,2025-07-23_04h29.39.267,empathy_intonation_perc,2024.2.4,Win32,60.24096386,6664dfc807e75330a8b54a8b,687ed1b7e638a4cbf2f02089,68809c1ed83cdc19d6115776,,,,,,,,,,,,,,0,,,,,,,,,,,,,,,,,,,,,,,,,,,,,,,,,,,,,,,,,,,,,,,,,,,,,,,,,17,floroso,,,,,600.5679,602.0175,1,0,0.9214,,0,26,26,16,1,REAL,FAKE,,,,,,,,,,,,,,,,,
,,,,,,,,,6664dfc807e75330a8b54a8b,Spanish,13 or older,"yes, I am fluent in another language",no,2025-07-23_04h29.39.267,empathy_intonation_perc,2024.2.4,Win32,60.24096386,6664dfc807e75330a8b54a8b,687ed1b7e638a4cbf2f02089,68809c1ed83cdc19d6115776,,,,,,,,,,,,,,1,,,,,,,,,,,,,,,,,,,,,,,,,,,,,,,,,,,,,,,,,,,,,,,,,,,,,,,,,62,flaco,,,,,602.018,603.837,1,1,1.3011,,0,27,27,61,1,REAL,FAKE,,,,,,,,,,,,,,,,,
,,,,,,,,,6664dfc807e75330a8b54a8b,Spanish,13 or older,"yes, I am fluent in another language",no,2025-07-23_04h29.39.267,empathy_intonation_perc,2024.2.4,Win32,60.24096386,6664dfc807e75330a8b54a8b,687ed1b7e638a4cbf2f02089,68809c1ed83cdc19d6115776,,,,,,,,,,,,,,0,,,,,,,,,,,,,,,,,,,,,,,,,,,,,,,,,,,,,,,,,,,,,,,,,,,,,,,,,18,arsa,,,,,603.8376,605.8029,1,0,1.4337,,0,28,28,17,1,REAL,FAKE,,,,,,,,,,,,,,,,,
,,,,,,,,,6664dfc807e75330a8b54a8b,Spanish,13 or older,"yes, I am fluent in another language",no,2025-07-23_04h29.39.267,empathy_intonation_perc,2024.2.4,Win32,60.24096386,6664dfc807e75330a8b54a8b,687ed1b7e638a4cbf2f02089,68809c1ed83cdc19d6115776,,,,,,,,,,,,,,1,,,,,,,,,,,,,,,,,,,,,,,,,,,,,,,,,,,,,,,,,,,,,,,,,,,,,,,,,40,alfombra,,,,,605.8033,607.151,0,0,0.8126,,0,29,29,39,1,REAL,FAKE,,,,,,,,,,,,,,,,,
,,,,,,,,,6664dfc807e75330a8b54a8b,Spanish,13 or older,"yes, I am fluent in another language",no,2025-07-23_04h29.39.267,empathy_intonation_perc,2024.2.4,Win32,60.24096386,6664dfc807e75330a8b54a8b,687ed1b7e638a4cbf2f02089,68809c1ed83cdc19d6115776,,,,,,,,,,,,,,1,,,,,,,,,,,,,,,,,,,,,,,,,,,,,,,,,,,,,,,,,,,,,,,,,,,,,,,,,76,atar,,,,,607.1514,608.5015,0,0,0.8199,,0,30,30,75,1,REAL,FAKE,,,,,,,,,,,,,,,,,
,,,,,,,,,6664dfc807e75330a8b54a8b,Spanish,13 or older,"yes, I am fluent in another language",no,2025-07-23_04h29.39.267,empathy_intonation_perc,2024.2.4,Win32,60.24096386,6664dfc807e75330a8b54a8b,687ed1b7e638a4cbf2f02089,68809c1ed83cdc19d6115776,,,,,,,,,,,,,,0,,,,,,,,,,,,,,,,,,,,,,,,,,,,,,,,,,,,,,,,,,,,,,,,,,,,,,,,,66,hacido,,,,,608.503,609.7841,1,0,0.7447,,0,31,31,65,1,REAL,FAKE,,,,,,,,,,,,,,,,,
,,,,,,,,,6664dfc807e75330a8b54a8b,Spanish,13 or older,"yes, I am fluent in another language",no,2025-07-23_04h29.39.267,empathy_intonation_perc,2024.2.4,Win32,60.24096386,6664dfc807e75330a8b54a8b,687ed1b7e638a4cbf2f02089,68809c1ed83cdc19d6115776,,,,,,,,,,,,,,1,,,,,,,,,,,,,,,,,,,,,,,,,,,,,,,,,,,,,,,,,,,,,,,,,,,,,,,,,59,besar,,,,,609.7846,611.5017,1,1,1.1902,,0,32,32,58,1,REAL,FAKE,,,,,,,,,,,,,,,,,
,,,,,,,,,6664dfc807e75330a8b54a8b,Spanish,13 or older,"yes, I am fluent in another language",no,2025-07-23_04h29.39.267,empathy_intonation_perc,2024.2.4,Win32,60.24096386,6664dfc807e75330a8b54a8b,687ed1b7e638a4cbf2f02089,68809c1ed83cdc19d6115776,,,,,,,,,,,,,,1,,,,,,,,,,,,,,,,,,,,,,,,,,,,,,,,,,,,,,,,,,,,,,,,,,,,,,,,,83,guante,,,,,611.5035,613.0181,0,0,0.9774,,0,33,33,82,1,REAL,FAKE,,,,,,,,,,,,,,,,,
,,,,,,,,,6664dfc807e75330a8b54a8b,Spanish,13 or older,"yes, I am fluent in another language",no,2025-07-23_04h29.39.267,empathy_intonation_perc,2024.2.4,Win32,60.24096386,6664dfc807e75330a8b54a8b,687ed1b7e638a4cbf2f02089,68809c1ed83cdc19d6115776,,,,,,,,,,,,,,1,,,,,,,,,,,,,,,,,,,,,,,,,,,,,,,,,,,,,,,,,,,,,,,,,,,,,,,,,67,cabello,,,,,613.0195,614.7036,0,0,1.1507,,0,34,34,66,1,REAL,FAKE,,,,,,,,,,,,,,,,,
,,,,,,,,,6664dfc807e75330a8b54a8b,Spanish,13 or older,"yes, I am fluent in another language",no,2025-07-23_04h29.39.267,empathy_intonation_perc,2024.2.4,Win32,60.24096386,6664dfc807e75330a8b54a8b,687ed1b7e638a4cbf2f02089,68809c1ed83cdc19d6115776,,,,,,,,,,,,,,1,,,,,,,,,,,,,,,,,,,,,,,,,,,,,,,,,,,,,,,,,,,,,,,,,,,,,,,,,28,merodear,,,,,614.704,616.7009,0,0,1.4637,,0,35,35,27,1,REAL,FAKE,,,,,,,,,,,,,,,,,
,,,,,,,,,6664dfc807e75330a8b54a8b,Spanish,13 or older,"yes, I am fluent in another language",no,2025-07-23_04h29.39.267,empathy_intonation_perc,2024.2.4,Win32,60.24096386,6664dfc807e75330a8b54a8b,687ed1b7e638a4cbf2f02089,68809c1ed83cdc19d6115776,,,,,,,,,,,,,,0,,,,,,,,,,,,,,,,,,,,,,,,,,,,,,,,,,,,,,,,,,,,,,,,,,,,,,,,,10,antar,,,,,616.7013,617.851,1,0,0.6014,,0,36,36,9,1,REAL,FAKE,,,,,,,,,,,,,,,,,
,,,,,,,,,6664dfc807e75330a8b54a8b,Spanish,13 or older,"yes, I am fluent in another language",no,2025-07-23_04h29.39.267,empathy_intonation_perc,2024.2.4,Win32,60.24096386,6664dfc807e75330a8b54a8b,687ed1b7e638a4cbf2f02089,68809c1ed83cdc19d6115776,,,,,,,,,,,,,,1,,,,,,,,,,,,,,,,,,,,,,,,,,,,,,,,,,,,,,,,,,,,,,,,,,,,,,,,,73,hervidor,,,,,617.8515,619.6018,0,0,1.2069,,0,37,37,72,1,REAL,FAKE,,,,,,,,,,,,,,,,,
,,,,,,,,,6664dfc807e75330a8b54a8b,Spanish,13 or older,"yes, I am fluent in another language",no,2025-07-23_04h29.39.267,empathy_intonation_perc,2024.2.4,Win32,60.24096386,6664dfc807e75330a8b54a8b,687ed1b7e638a4cbf2f02089,68809c1ed83cdc19d6115776,,,,,,,,,,,,,,1,,,,,,,,,,,,,,,,,,,,,,,,,,,,,,,,,,,,,,,,,,,,,,,,,,,,,,,,,12,asesinato,,,,,619.6034,621.0177,1,1,0.8727,,0,38,38,11,1,REAL,FAKE,,,,,,,,,,,,,,,,,
,,,,,,,,,6664dfc807e75330a8b54a8b,Spanish,13 or older,"yes, I am fluent in another language",no,2025-07-23_04h29.39.267,empathy_intonation_perc,2024.2.4,Win32,60.24096386,6664dfc807e75330a8b54a8b,687ed1b7e638a4cbf2f02089,68809c1ed83cdc19d6115776,,,,,,,,,,,,,,1,,,,,,,,,,,,,,,,,,,,,,,,,,,,,,,,,,,,,,,,,,,,,,,,,,,,,,,,,60,matar,,,,,621.0182,622.6512,1,1,1.1042,,0,39,39,59,1,REAL,FAKE,,,,,,,,,,,,,,,,,
,,,,,,,,,6664dfc807e75330a8b54a8b,Spanish,13 or older,"yes, I am fluent in another language",no,2025-07-23_04h29.39.267,empathy_intonation_perc,2024.2.4,Win32,60.24096386,6664dfc807e75330a8b54a8b,687ed1b7e638a4cbf2f02089,68809c1ed83cdc19d6115776,,,,,,,,,,,,,,1,,,,,,,,,,,,,,,,,,,,,,,,,,,,,,,,,,,,,,,,,,,,,,,,,,,,,,,,,57,tacaño,,,,,622.6518,624.0344,0,0,0.8376,,0,40,40,56,1,REAL,FAKE,,,,,,,,,,,,,,,,,
,,,,,,,,,6664dfc807e75330a8b54a8b,Spanish,13 or older,"yes, I am fluent in another language",no,2025-07-23_04h29.39.267,empathy_intonation_perc,2024.2.4,Win32,60.24096386,6664dfc807e75330a8b54a8b,687ed1b7e638a4cbf2f02089,68809c1ed83cdc19d6115776,,,,,,,,,,,,,,0,,,,,,,,,,,,,,,,,,,,,,,,,,,,,,,,,,,,,,,,,,,,,,,,,,,,,,,,,79,tropaje,,,,,624.0349,625.3015,1,0,0.7436,,0,41,41,78,1,REAL,FAKE,,,,,,,,,,,,,,,,,
,,,,,,,,,6664dfc807e75330a8b54a8b,Spanish,13 or older,"yes, I am fluent in another language",no,2025-07-23_04h29.39.267,empathy_intonation_perc,2024.2.4,Win32,60.24096386,6664dfc807e75330a8b54a8b,687ed1b7e638a4cbf2f02089,68809c1ed83cdc19d6115776,,,,,,,,,,,,,,1,,,,,,,,,,,,,,,,,,,,,,,,,,,,,,,,,,,,,,,,,,,,,,,,,,,,,,,,,43,canela,,,,,625.3024,626.5512,0,0,0.7077,,0,42,42,42,1,REAL,FAKE,,,,,,,,,,,,,,,,,
,,,,,,,,,6664dfc807e75330a8b54a8b,Spanish,13 or older,"yes, I am fluent in another language",no,2025-07-23_04h29.39.267,empathy_intonation_perc,2024.2.4,Win32,60.24096386,6664dfc807e75330a8b54a8b,687ed1b7e638a4cbf2f02089,68809c1ed83cdc19d6115776,,,,,,,,,,,,,,1,,,,,,,,,,,,,,,,,,,,,,,,,,,,,,,,,,,,,,,,,,,,,,,,,,,,,,,,,71,polvoriento,,,,,626.5517,629.6349,1,1,2.5651,,0,43,43,70,1,REAL,FAKE,,,,,,,,,,,,,,,,,
,,,,,,,,,6664dfc807e75330a8b54a8b,Spanish,13 or older,"yes, I am fluent in another language",no,2025-07-23_04h29.39.267,empathy_intonation_perc,2024.2.4,Win32,60.24096386,6664dfc807e75330a8b54a8b,687ed1b7e638a4cbf2f02089,68809c1ed83cdc19d6115776,,,,,,,,,,,,,,1,,,,,,,,,,,,,,,,,,,,,,,,,,,,,,,,,,,,,,,,,,,,,,,,,,,,,,,,,55,nevar,,,,,629.6365,631.0677,0,0,0.8874,,0,44,44,54,1,REAL,FAKE,,,,,,,,,,,,,,,,,
,,,,,,,,,6664dfc807e75330a8b54a8b,Spanish,13 or older,"yes, I am fluent in another language",no,2025-07-23_04h29.39.267,empathy_intonation_perc,2024.2.4,Win32,60.24096386,6664dfc807e75330a8b54a8b,687ed1b7e638a4cbf2f02089,68809c1ed83cdc19d6115776,,,,,,,,,,,,,,1,,,,,,,,,,,,,,,,,,,,,,,,,,,,,,,,,,,,,,,,,,,,,,,,,,,,,,,,,80,hormiga,,,,,631.0682,632.452,1,1,0.8489,,0,45,45,79,1,REAL,FAKE,,,,,,,,,,,,,,,,,
,,,,,,,,,6664dfc807e75330a8b54a8b,Spanish,13 or older,"yes, I am fluent in another language",no,2025-07-23_04h29.39.267,empathy_intonation_perc,2024.2.4,Win32,60.24096386,6664dfc807e75330a8b54a8b,687ed1b7e638a4cbf2f02089,68809c1ed83cdc19d6115776,,,,,,,,,,,,,,1,,,,,,,,,,,,,,,,,,,,,,,,,,,,,,,,,,,,,,,,,,,,,,,,,,,,,,,,,68,alegre,,,,,632.4533,633.8679,0,0,0.8697,,0,46,46,67,1,REAL,FAKE,,,,,,,,,,,,,,,,,
,,,,,,,,,6664dfc807e75330a8b54a8b,Spanish,13 or older,"yes, I am fluent in another language",no,2025-07-23_04h29.39.267,empathy_intonation_perc,2024.2.4,Win32,60.24096386,6664dfc807e75330a8b54a8b,687ed1b7e638a4cbf2f02089,68809c1ed83cdc19d6115776,,,,,,,,,,,,,,0,,,,,,,,,,,,,,,,,,,,,,,,,,,,,,,,,,,,,,,,,,,,,,,,,,,,,,,,,1,terzo,,,,,633.8684,635.518,0,1,1.1087,,0,47,47,0,1,REAL,FAKE,,,,,,,,,,,,,,,,,
,,,,,,,,,6664dfc807e75330a8b54a8b,Spanish,13 or older,"yes, I am fluent in another language",no,2025-07-23_04h29.39.267,empathy_intonation_perc,2024.2.4,Win32,60.24096386,6664dfc807e75330a8b54a8b,687ed1b7e638a4cbf2f02089,68809c1ed83cdc19d6115776,,,,,,,,,,,,,,1,,,,,,,,,,,,,,,,,,,,,,,,,,,,,,,,,,,,,,,,,,,,,,,,,,,,,,,,,56,musgo,,,,,635.5183,636.7849,1,1,0.7367,,0,48,48,55,1,REAL,FAKE,,,,,,,,,,,,,,,,,
,,,,,,,,,6664dfc807e75330a8b54a8b,Spanish,13 or older,"yes, I am fluent in another language",no,2025-07-23_04h29.39.267,empathy_intonation_perc,2024.2.4,Win32,60.24096386,6664dfc807e75330a8b54a8b,687ed1b7e638a4cbf2f02089,68809c1ed83cdc19d6115776,,,,,,,,,,,,,,1,,,,,,,,,,,,,,,,,,,,,,,,,,,,,,,,,,,,,,,,,,,,,,,,,,,,,,,,,6,tergiversar,,,,,636.7863,638.635,1,1,1.3088,,0,49,49,5,1,REAL,FAKE,,,,,,,,,,,,,,,,,
,,,,,,,,,6664dfc807e75330a8b54a8b,Spanish,13 or older,"yes, I am fluent in another language",no,2025-07-23_04h29.39.267,empathy_intonation_perc,2024.2.4,Win32,60.24096386,6664dfc807e75330a8b54a8b,687ed1b7e638a4cbf2f02089,68809c1ed83cdc19d6115776,,,,,,,,,,,,,,0,,,,,,,,,,,,,,,,,,,,,,,,,,,,,,,,,,,,,,,,,,,,,,,,,,,,,,,,,33,pauca,,,,,638.6365,640.0849,0,1,0.9093,,0,50,50,32,1,REAL,FAKE,,,,,,,,,,,,,,,,,
,,,,,,,,,6664dfc807e75330a8b54a8b,Spanish,13 or older,"yes, I am fluent in another language",no,2025-07-23_04h29.39.267,empathy_intonation_perc,2024.2.4,Win32,60.24096386,6664dfc807e75330a8b54a8b,687ed1b7e638a4cbf2f02089,68809c1ed83cdc19d6115776,,,,,,,,,,,,,,1,,,,,,,,,,,,,,,,,,,,,,,,,,,,,,,,,,,,,,,,,,,,,,,,,,,,,,,,,25,bisagra,,,,,640.0866,641.318,0,0,0.6845,,0,51,51,24,1,REAL,FAKE,,,,,,,,,,,,,,,,,
,,,,,,,,,6664dfc807e75330a8b54a8b,Spanish,13 or older,"yes, I am fluent in another language",no,2025-07-23_04h29.39.267,empathy_intonation_perc,2024.2.4,Win32,60.24096386,6664dfc807e75330a8b54a8b,687ed1b7e638a4cbf2f02089,68809c1ed83cdc19d6115776,,,,,,,,,,,,,,1,,,,,,,,,,,,,,,,,,,,,,,,,,,,,,,,,,,,,,,,,,,,,,,,,,,,,,,,,20,ávido,,,,,641.3188,642.535,1,1,0.6965,,0,52,52,19,1,REAL,FAKE,,,,,,,,,,,,,,,,,
,,,,,,,,,6664dfc807e75330a8b54a8b,Spanish,13 or older,"yes, I am fluent in another language",no,2025-07-23_04h29.39.267,empathy_intonation_perc,2024.2.4,Win32,60.24096386,6664dfc807e75330a8b54a8b,687ed1b7e638a4cbf2f02089,68809c1ed83cdc19d6115776,,,,,,,,,,,,,,1,,,,,,,,,,,,,,,,,,,,,,,,,,,,,,,,,,,,,,,,,,,,,,,,,,,,,,,,,46,martillo,,,,,642.5368,643.9201,1,1,0.85,,0,53,53,45,1,REAL,FAKE,,,,,,,,,,,,,,,,,
,,,,,,,,,6664dfc807e75330a8b54a8b,Spanish,13 or older,"yes, I am fluent in another language",no,2025-07-23_04h29.39.267,empathy_intonation_perc,2024.2.4,Win32,60.24096386,6664dfc807e75330a8b54a8b,687ed1b7e638a4cbf2f02089,68809c1ed83cdc19d6115776,,,,,,,,,,,,,,0,,,,,,,,,,,,,,,,,,,,,,,,,,,,,,,,,,,,,,,,,,,,,,,,,,,,,,,,,16,abracer,,,,,643.9204,645.3686,1,0,0.9135,,0,54,54,15,1,REAL,FAKE,,,,,,,,,,,,,,,,,
,,,,,,,,,6664dfc807e75330a8b54a8b,Spanish,13 or older,"yes, I am fluent in another language",no,2025-07-23_04h29.39.267,empathy_intonation_perc,2024.2.4,Win32,60.24096386,6664dfc807e75330a8b54a8b,687ed1b7e638a4cbf2f02089,68809c1ed83cdc19d6115776,,,,,,,,,,,,,,0,,,,,,,,,,,,,,,,,,,,,,,,,,,,,,,,,,,,,,,,,,,,,,,,,,,,,,,,,84,escuto,,,,,645.3702,646.7847,0,1,0.8973,,0,55,55,83,1,REAL,FAKE,,,,,,,,,,,,,,,,,
,,,,,,,,,6664dfc807e75330a8b54a8b,Spanish,13 or older,"yes, I am fluent in another language",no,2025-07-23_04h29.39.267,empathy_intonation_perc,2024.2.4,Win32,60.24096386,6664dfc807e75330a8b54a8b,687ed1b7e638a4cbf2f02089,68809c1ed83cdc19d6115776,,,,,,,,,,,,,,0,,,,,,,,,,,,,,,,,,,,,,,,,,,,,,,,,,,,,,,,,,,,,,,,,,,,,,,,,50,flamida,,,,,646.7857,648.2018,1,0,0.8715,,0,56,56,49,1,REAL,FAKE,,,,,,,,,,,,,,,,,
,,,,,,,,,6664dfc807e75330a8b54a8b,Spanish,13 or older,"yes, I am fluent in another language",no,2025-07-23_04h29.39.267,empathy_intonation_perc,2024.2.4,Win32,60.24096386,6664dfc807e75330a8b54a8b,687ed1b7e638a4cbf2f02089,68809c1ed83cdc19d6115776,,,,,,,,,,,,,,1,,,,,,,,,,,,,,,,,,,,,,,,,,,,,,,,,,,,,,,,,,,,,,,,,,,,,,,,,52,camisa,,,,,648.2032,649.5512,0,0,0.8037,,0,57,57,51,1,REAL,FAKE,,,,,,,,,,,,,,,,,
,,,,,,,,,6664dfc807e75330a8b54a8b,Spanish,13 or older,"yes, I am fluent in another language",no,2025-07-23_04h29.39.267,empathy_intonation_perc,2024.2.4,Win32,60.24096386,6664dfc807e75330a8b54a8b,687ed1b7e638a4cbf2f02089,68809c1ed83cdc19d6115776,,,,,,,,,,,,,,1,,,,,,,,,,,,,,,,,,,,,,,,,,,,,,,,,,,,,,,,,,,,,,,,,,,,,,,,,44,cuchara,,,,,649.5517,651.3518,1,1,1.2552,,0,58,58,43,1,REAL,FAKE,,,,,,,,,,,,,,,,,
,,,,,,,,,6664dfc807e75330a8b54a8b,Spanish,13 or older,"yes, I am fluent in another language",no,2025-07-23_04h29.39.267,empathy_intonation_perc,2024.2.4,Win32,60.24096386,6664dfc807e75330a8b54a8b,687ed1b7e638a4cbf2f02089,68809c1ed83cdc19d6115776,,,,,,,,,,,,,,1,,,,,,,,,,,,,,,,,,,,,,,,,,,,,,,,,,,,,,,,,,,,,,,,,,,,,,,,,86,barato,,,,,651.3531,652.9012,1,1,1.0048,,0,59,59,85,1,REAL,FAKE,,,,,,,,,,,,,,,,,
,,,,,,,,,6664dfc807e75330a8b54a8b,Spanish,13 or older,"yes, I am fluent in another language",no,2025-07-23_04h29.39.267,empathy_intonation_perc,2024.2.4,Win32,60.24096386,6664dfc807e75330a8b54a8b,687ed1b7e638a4cbf2f02089,68809c1ed83cdc19d6115776,,,,,,,,,,,,,,1,,,,,,,,,,,,,,,,,,,,,,,,,,,,,,,,,,,,,,,,,,,,,,,,,,,,,,,,,65,bizcocho,,,,,652.9018,654.2865,0,0,0.8672,,0,60,60,64,1,REAL,FAKE,,,,,,,,,,,,,,,,,
,,,,,,,,,6664dfc807e75330a8b54a8b,Spanish,13 or older,"yes, I am fluent in another language",no,2025-07-23_04h29.39.267,empathy_intonation_perc,2024.2.4,Win32,60.24096386,6664dfc807e75330a8b54a8b,687ed1b7e638a4cbf2f02089,68809c1ed83cdc19d6115776,,,,,,,,,,,,,,1,,,,,,,,,,,,,,,,,,,,,,,,,,,,,,,,,,,,,,,,,,,,,,,,,,,,,,,,,77,tiburón,,,,,654.2868,655.7536,0,0,0.934,,0,61,61,76,1,REAL,FAKE,,,,,,,,,,,,,,,,,
,,,,,,,,,6664dfc807e75330a8b54a8b,Spanish,13 or older,"yes, I am fluent in another language",no,2025-07-23_04h29.39.267,empathy_intonation_perc,2024.2.4,Win32,60.24096386,6664dfc807e75330a8b54a8b,687ed1b7e638a4cbf2f02089,68809c1ed83cdc19d6115776,,,,,,,,,,,,,,1,,,,,,,,,,,,,,,,,,,,,,,,,,,,,,,,,,,,,,,,,,,,,,,,,,,,,,,,,24,látigo,,,,,655.754,657.2685,1,1,0.9717,,0,62,62,23,1,REAL,FAKE,,,,,,,,,,,,,,,,,
,,,,,,,,,6664dfc807e75330a8b54a8b,Spanish,13 or older,"yes, I am fluent in another language",no,2025-07-23_04h29.39.267,empathy_intonation_perc,2024.2.4,Win32,60.24096386,6664dfc807e75330a8b54a8b,687ed1b7e638a4cbf2f02089,68809c1ed83cdc19d6115776,,,,,,,,,,,,,,0,,,,,,,,,,,,,,,,,,,,,,,,,,,,,,,,,,,,,,,,,,,,,,,,,,,,,,,,,30,alardio,,,,,657.2699,658.7705,0,1,0.9671,,0,63,63,29,1,REAL,FAKE,,,,,,,,,,,,,,,,,
,,,,,,,,,6664dfc807e75330a8b54a8b,Spanish,13 or older,"yes, I am fluent in another language",no,2025-07-23_04h29.39.267,empathy_intonation_perc,2024.2.4,Win32,60.24096386,6664dfc807e75330a8b54a8b,687ed1b7e638a4cbf2f02089,68809c1ed83cdc19d6115776,,,,,,,,,,,,,,0,,,,,,,,,,,,,,,,,,,,,,,,,,,,,,,,,,,,,,,,,,,,,,,,,,,,,,,,,35,rompido,,,,,658.7709,660.168,0,1,0.8559,,0,64,64,34,1,REAL,FAKE,,,,,,,,,,,,,,,,,
,,,,,,,,,6664dfc807e75330a8b54a8b,Spanish,13 or older,"yes, I am fluent in another language",no,2025-07-23_04h29.39.267,empathy_intonation_perc,2024.2.4,Win32,60.24096386,6664dfc807e75330a8b54a8b,687ed1b7e638a4cbf2f02089,68809c1ed83cdc19d6115776,,,,,,,,,,,,,,1,,,,,,,,,,,,,,,,,,,,,,,,,,,,,,,,,,,,,,,,,,,,,,,,,,,,,,,,,2,pellizcar,,,,,660.1684,661.6355,1,1,0.9321,,0,65,65,1,1,REAL,FAKE,,,,,,,,,,,,,,,,,
,,,,,,,,,6664dfc807e75330a8b54a8b,Spanish,13 or older,"yes, I am fluent in another language",no,2025-07-23_04h29.39.267,empathy_intonation_perc,2024.2.4,Win32,60.24096386,6664dfc807e75330a8b54a8b,687ed1b7e638a4cbf2f02089,68809c1ed83cdc19d6115776,,,,,,,,,,,,,,1,,,,,,,,,,,,,,,,,,,,,,,,,,,,,,,,,,,,,,,,,,,,,,,,,,,,,,,,,31,pandilla,,,,,661.637,662.8846,0,0,0.7124,,0,66,66,30,1,REAL,FAKE,,,,,,,,,,,,,,,,,
,,,,,,,,,6664dfc807e75330a8b54a8b,Spanish,13 or older,"yes, I am fluent in another language",no,2025-07-23_04h29.39.267,empathy_intonation_perc,2024.2.4,Win32,60.24096386,6664dfc807e75330a8b54a8b,687ed1b7e638a4cbf2f02089,68809c1ed83cdc19d6115776,,,,,,,,,,,,,,1,,,,,,,,,,,,,,,,,,,,,,,,,,,,,,,,,,,,,,,,,,,,,,,,,,,,,,,,,85,laúd,,,,,662.8853,664.2014,1,1,0.7947,,0,67,67,84,1,REAL,FAKE,,,,,,,,,,,,,,,,,
,,,,,,,,,6664dfc807e75330a8b54a8b,Spanish,13 or older,"yes, I am fluent in another language",no,2025-07-23_04h29.39.267,empathy_intonation_perc,2024.2.4,Win32,60.24096386,6664dfc807e75330a8b54a8b,687ed1b7e638a4cbf2f02089,68809c1ed83cdc19d6115776,,,,,,,,,,,,,,0,,,,,,,,,,,,,,,,,,,,,,,,,,,,,,,,,,,,,,,,,,,,,,,,,,,,,,,,,70,temblo,,,,,664.2018,666.5371,1,0,1.8176,,0,68,68,69,1,REAL,FAKE,,,,,,,,,,,,,,,,,
,,,,,,,,,6664dfc807e75330a8b54a8b,Spanish,13 or older,"yes, I am fluent in another language",no,2025-07-23_04h29.39.267,empathy_intonation_perc,2024.2.4,Win32,60.24096386,6664dfc807e75330a8b54a8b,687ed1b7e638a4cbf2f02089,68809c1ed83cdc19d6115776,,,,,,,,,,,,,,1,,,,,,,,,,,,,,,,,,,,,,,,,,,,,,,,,,,,,,,,,,,,,,,,,,,,,,,,,22,lacayo,,,,,666.5375,667.7681,0,0,0.6872,,0,69,69,21,1,REAL,FAKE,,,,,,,,,,,,,,,,,
,,,,,,,,,6664dfc807e75330a8b54a8b,Spanish,13 or older,"yes, I am fluent in another language",no,2025-07-23_04h29.39.267,empathy_intonation_perc,2024.2.4,Win32,60.24096386,6664dfc807e75330a8b54a8b,687ed1b7e638a4cbf2f02089,68809c1ed83cdc19d6115776,,,,,,,,,,,,,,1,,,,,,,,,,,,,,,,,,,,,,,,,,,,,,,,,,,,,,,,,,,,,,,,,,,,,,,,,15,regar,,,,,667.7685,669.1204,0,0,0.8167,,0,70,70,14,1,REAL,FAKE,,,,,,,,,,,,,,,,,
,,,,,,,,,6664dfc807e75330a8b54a8b,Spanish,13 or older,"yes, I am fluent in another language",no,2025-07-23_04h29.39.267,empathy_intonation_perc,2024.2.4,Win32,60.24096386,6664dfc807e75330a8b54a8b,687ed1b7e638a4cbf2f02089,68809c1ed83cdc19d6115776,,,,,,,,,,,,,,0,,,,,,,,,,,,,,,,,,,,,,,,,,,,,,,,,,,,,,,,,,,,,,,,,,,,,,,,,74,cintro,,,,,669.1208,670.4848,1,0,0.8257,,0,71,71,73,1,REAL,FAKE,,,,,,,,,,,,,,,,,
,,,,,,,,,6664dfc807e75330a8b54a8b,Spanish,13 or older,"yes, I am fluent in another language",no,2025-07-23_04h29.39.267,empathy_intonation_perc,2024.2.4,Win32,60.24096386,6664dfc807e75330a8b54a8b,687ed1b7e638a4cbf2f02089,68809c1ed83cdc19d6115776,,,,,,,,,,,,,,0,,,,,,,,,,,,,,,,,,,,,,,,,,,,,,,,,,,,,,,,,,,,,,,,,,,,,,,,,87,grodo,,,,,670.4852,671.7681,0,1,0.7377,,0,72,72,86,1,REAL,FAKE,,,,,,,,,,,,,,,,,
,,,,,,,,,6664dfc807e75330a8b54a8b,Spanish,13 or older,"yes, I am fluent in another language",no,2025-07-23_04h29.39.267,empathy_intonation_perc,2024.2.4,Win32,60.24096386,6664dfc807e75330a8b54a8b,687ed1b7e638a4cbf2f02089,68809c1ed83cdc19d6115776,,,,,,,,,,,,,,1,,,,,,,,,,,,,,,,,,,,,,,,,,,,,,,,,,,,,,,,,,,,,,,,,,,,,,,,,69,engatusar,,,,,671.7686,674.4196,1,1,2.1159,,0,73,73,68,1,REAL,FAKE,,,,,,,,,,,,,,,,,
,,,,,,,,,6664dfc807e75330a8b54a8b,Spanish,13 or older,"yes, I am fluent in another language",no,2025-07-23_04h29.39.267,empathy_intonation_perc,2024.2.4,Win32,60.24096386,6664dfc807e75330a8b54a8b,687ed1b7e638a4cbf2f02089,68809c1ed83cdc19d6115776,,,,,,,,,,,,,,0,,,,,,,,,,,,,,,,,,,,,,,,,,,,,,,,,,,,,,,,,,,,,,,,,,,,,,,,,72,pemición,,,,,674.4199,676.0036,0,1,1.0501,,0,74,74,71,1,REAL,FAKE,,,,,,,,,,,,,,,,,
,,,,,,,,,6664dfc807e75330a8b54a8b,Spanish,13 or older,"yes, I am fluent in another language",no,2025-07-23_04h29.39.267,empathy_intonation_perc,2024.2.4,Win32,60.24096386,6664dfc807e75330a8b54a8b,687ed1b7e638a4cbf2f02089,68809c1ed83cdc19d6115776,,,,,,,,,,,,,,1,,,,,,,,,,,,,,,,,,,,,,,,,,,,,,,,,,,,,,,,,,,,,,,,,,,,,,,,,91,click the 1 key.,,,,,676.0042,678.1515,1,1,1.6114,,0,75,75,90,1,REAL,FAKE,,,,,,,,,,,,,,,,,
,,,,,,,,,6664dfc807e75330a8b54a8b,Spanish,13 or older,"yes, I am fluent in another language",no,2025-07-23_04h29.39.267,empathy_intonation_perc,2024.2.4,Win32,60.24096386,6664dfc807e75330a8b54a8b,687ed1b7e638a4cbf2f02089,68809c1ed83cdc19d6115776,,,,,,,,,,,,,,1,,,,,,,,,,,,,,,,,,,,,,,,,,,,,,,,,,,,,,,,,,,,,,,,,,,,,,,,,26,secuestro,,,,,678.152,679.8181,0,0,1.1168,,0,76,76,25,1,REAL,FAKE,,,,,,,,,,,,,,,,,
,,,,,,,,,6664dfc807e75330a8b54a8b,Spanish,13 or older,"yes, I am fluent in another language",no,2025-07-23_04h29.39.267,empathy_intonation_perc,2024.2.4,Win32,60.24096386,6664dfc807e75330a8b54a8b,687ed1b7e638a4cbf2f02089,68809c1ed83cdc19d6115776,,,,,,,,,,,,,,1,,,,,,,,,,,,,,,,,,,,,,,,,,,,,,,,,,,,,,,,,,,,,,,,,,,,,,,,,89,prisa,,,,,679.8186,681.1183,1,1,0.7537,,0,77,77,88,1,REAL,FAKE,,,,,,,,,,,,,,,,,
,,,,,,,,,6664dfc807e75330a8b54a8b,Spanish,13 or older,"yes, I am fluent in another language",no,2025-07-23_04h29.39.267,empathy_intonation_perc,2024.2.4,Win32,60.24096386,6664dfc807e75330a8b54a8b,687ed1b7e638a4cbf2f02089,68809c1ed83cdc19d6115776,,,,,,,,,,,,,,0,,,,,,,,,,,,,,,,,,,,,,,,,,,,,,,,,,,,,,,,,,,,,,,,,,,,,,,,,82,empirador,,,,,681.1188,682.4366,1,0,0.7995,,0,78,78,81,1,REAL,FAKE,,,,,,,,,,,,,,,,,
,,,,,,,,,6664dfc807e75330a8b54a8b,Spanish,13 or older,"yes, I am fluent in another language",no,2025-07-23_04h29.39.267,empathy_intonation_perc,2024.2.4,Win32,60.24096386,6664dfc807e75330a8b54a8b,687ed1b7e638a4cbf2f02089,68809c1ed83cdc19d6115776,,,,,,,,,,,,,,1,,,,,,,,,,,,,,,,,,,,,,,,,,,,,,,,,,,,,,,,,,,,,,,,,,,,,,,,,51,candado,,,,,682.437,684.3686,0,0,1.3896,,0,79,79,50,1,REAL,FAKE,,,,,,,,,,,,,,,,,
,,,,,,,,,6664dfc807e75330a8b54a8b,Spanish,13 or older,"yes, I am fluent in another language",no,2025-07-23_04h29.39.267,empathy_intonation_perc,2024.2.4,Win32,60.24096386,6664dfc807e75330a8b54a8b,687ed1b7e638a4cbf2f02089,68809c1ed83cdc19d6115776,,,,,,,,,,,,,,1,,,,,,,,,,,,,,,,,,,,,,,,,,,,,,,,,,,,,,,,,,,,,,,,,,,,,,,,,90,clavel,,,,,684.37,686.3516,0,0,1.435,,0,80,80,89,1,REAL,FAKE,,,,,,,,,,,,,,,,,
,,,,,,,,,6664dfc807e75330a8b54a8b,Spanish,13 or older,"yes, I am fluent in another language",no,2025-07-23_04h29.39.267,empathy_intonation_perc,2024.2.4,Win32,60.24096386,6664dfc807e75330a8b54a8b,687ed1b7e638a4cbf2f02089,68809c1ed83cdc19d6115776,,,,,,,,,,,,,,1,,,,,,,,,,,,,,,,,,,,,,,,,,,,,,,,,,,,,,,,,,,,,,,,,,,,,,,,,34,aviso,,,,,686.3522,687.5684,1,1,0.6945,,0,81,81,33,1,REAL,FAKE,,,,,,,,,,,,,,,,,
,,,,,,,,,6664dfc807e75330a8b54a8b,Spanish,13 or older,"yes, I am fluent in another language",no,2025-07-23_04h29.39.267,empathy_intonation_perc,2024.2.4,Win32,60.24096386,6664dfc807e75330a8b54a8b,687ed1b7e638a4cbf2f02089,68809c1ed83cdc19d6115776,,,,,,,,,,,,,,1,,,,,,,,,,,,,,,,,,,,,,,,,,,,,,,,,,,,,,,,,,,,,,,,,,,,,,,,,5,zapato,,,,,687.5688,689.1516,1,1,1.047,,0,82,82,4,1,REAL,FAKE,,,,,,,,,,,,,,,,,
,,,,,,,,,6664dfc807e75330a8b54a8b,Spanish,13 or older,"yes, I am fluent in another language",no,2025-07-23_04h29.39.267,empathy_intonation_perc,2024.2.4,Win32,60.24096386,6664dfc807e75330a8b54a8b,687ed1b7e638a4cbf2f02089,68809c1ed83cdc19d6115776,,,,,,,,,,,,,,1,,,,,,,,,,,,,,,,,,,,,,,,,,,,,,,,,,,,,,,,,,,,,,,,,,,,,,,,,36,loro,,,,,689.1521,690.8201,0,0,1.1513,,0,83,83,35,1,REAL,FAKE,,,,,,,,,,,,,,,,,
,,,,,,,,,6664dfc807e75330a8b54a8b,Spanish,13 or older,"yes, I am fluent in another language",no,2025-07-23_04h29.39.267,empathy_intonation_perc,2024.2.4,Win32,60.24096386,6664dfc807e75330a8b54a8b,687ed1b7e638a4cbf2f02089,68809c1ed83cdc19d6115776,,,,,,,,,,,,,,1,,,,,,,,,,,,,,,,,,,,,,,,,,,,,,,,,,,,,,,,,,,,,,,,,,,,,,,,,75,yacer,,,,,690.8204,692.4183,0,0,1.0597,,0,84,84,74,1,REAL,FAKE,,,,,,,,,,,,,,,,,
,,,,,,,,,6664dfc807e75330a8b54a8b,Spanish,13 or older,"yes, I am fluent in another language",no,2025-07-23_04h29.39.267,empathy_intonation_perc,2024.2.4,Win32,60.24096386,6664dfc807e75330a8b54a8b,687ed1b7e638a4cbf2f02089,68809c1ed83cdc19d6115776,,,,,,,,,,,,,,1,,,,,,,,,,,,,,,,,,,,,,,,,,,,,,,,,,,,,,,,,,,,,,,,,,,,,,,,,49,ganar,,,,,692.4188,693.6538,1,1,0.7003,,0,85,85,48,1,REAL,FAKE,,,,,,,,,,,,,,,,,
,,,,,,,,,6664dfc807e75330a8b54a8b,Spanish,13 or older,"yes, I am fluent in another language",no,2025-07-23_04h29.39.267,empathy_intonation_perc,2024.2.4,Win32,60.24096386,6664dfc807e75330a8b54a8b,687ed1b7e638a4cbf2f02089,68809c1ed83cdc19d6115776,,,,,,,,,,,,,,0,,,,,,,,,,,,,,,,,,,,,,,,,,,,,,,,,,,,,,,,,,,,,,,,,,,,,,,,,8,cadeña,,,,,693.6551,695.1038,0,1,0.9164,,0,86,86,7,1,REAL,FAKE,,,,,,,,,,,,,,,,,
,,,,,,,,,6664dfc807e75330a8b54a8b,Spanish,13 or older,"yes, I am fluent in another language",no,2025-07-23_04h29.39.267,empathy_intonation_perc,2024.2.4,Win32,60.24096386,6664dfc807e75330a8b54a8b,687ed1b7e638a4cbf2f02089,68809c1ed83cdc19d6115776,,,,,,,,,,,,,,1,,,,,,,,,,,,,,,,,,,,,,,,,,,,,,,,,,,,,,,,,,,,,,,,,,,,,,,,,11,cenefa,,,,,695.1041,696.9852,0,0,1.3334,,0,87,87,10,1,REAL,FAKE,,,,,,,,,,,,,,,,,
,,,,,,,,,6664dfc807e75330a8b54a8b,Spanish,13 or older,"yes, I am fluent in another language",no,2025-07-23_04h29.39.267,empathy_intonation_perc,2024.2.4,Win32,60.24096386,6664dfc807e75330a8b54a8b,687ed1b7e638a4cbf2f02089,68809c1ed83cdc19d6115776,,,,,,,,,,,,,,1,,,,,,,,,,,,,,,,,,,,,,,,,,,,,,,,,,,,,,,,,,,,,,,,,,,,,,,,,13,helar,,,,,696.9857,698.2184,1,1,0.6864,,0,88,88,12,1,REAL,FAKE,,,,,,,,,,,,,,,,,
,,,,,,,,,6664dfc807e75330a8b54a8b,Spanish,13 or older,"yes, I am fluent in another language",no,2025-07-23_04h29.39.267,empathy_intonation_perc,2024.2.4,Win32,60.24096386,6664dfc807e75330a8b54a8b,687ed1b7e638a4cbf2f02089,68809c1ed83cdc19d6115776,,,,,,,,,,,,,,0,,,,,,,,,,,,,,,,,,,,,,,,,,,,,,,,,,,,,,,,,,,,,,,,,,,,,,,,,47,cartinar,,,,,698.2188,699.6684,1,0,0.9221,,0,89,89,46,1,REAL,FAKE,,,,,,,,,,,,,,,,,
,,,,,,,,,6664dfc807e75330a8b54a8b,Spanish,13 or older,"yes, I am fluent in another language",no,2025-07-23_04h29.39.267,empathy_intonation_perc,2024.2.4,Win32,60.24096386,6664dfc807e75330a8b54a8b,687ed1b7e638a4cbf2f02089,68809c1ed83cdc19d6115776,,,,,,,,,,,,,,1,,,,,,,,,,,,,,,,,,,,,,,,,,,,,,,,,,,,,,,,,,,,,,,,,,,,,,,,,38,estornudar,,,,,699.6688,701.3518,0,0,1.142,,0,90,90,37,1,REAL,FAKE,,,,,,,,,,,,,,,,,
,,,,,,,,,6664dfc807e75330a8b54a8b,Spanish,13 or older,"yes, I am fluent in another language",no,2025-07-23_04h29.39.267,empathy_intonation_perc,2024.2.4,Win32,60.24096386,6664dfc807e75330a8b54a8b,687ed1b7e638a4cbf2f02089,68809c1ed83cdc19d6115776,,,,,,,,,,,,,,0,,,,,,,,,,,,,,,,,,,,,,,,,,,,,,,,,,,,,,,,,,,,,,,,,,,,,,,,,42,cadallo,,,,,701.3522,702.6518,1,0,0.7691,,0,91,91,41,1,REAL,FAKE,,,,,,,,,,,,,,,,,
,,,,,,,,,6664dfc807e75330a8b54a8b,Spanish,13 or older,"yes, I am fluent in another language",no,2025-07-23_04h29.39.267,empathy_intonation_perc,2024.2.4,Win32,60.24096386,6664dfc807e75330a8b54a8b,687ed1b7e638a4cbf2f02089,68809c1ed83cdc19d6115776,,,,,,,,,,,,,,,,,,,,,,,,,,,,,,,,,,,,,,,,,,,,,,,,,,,,,,,,,,,,,,,,,,,,,,,,,,,,,,,,,,,,,,,,,,702.652,710.8021,,,,,,,,,,,,,,,
,,,,,,,,,6664dfc807e75330a8b54a8b,Spanish,13 or older,"yes, I am fluent in another language",no,2025-07-23_04h29.39.267,empathy_intonation_perc,2024.2.4,Win32,60.24096386,6664dfc807e75330a8b54a8b,687ed1b7e638a4cbf2f02089,68809c1ed83cdc19d6115776,,,,,,,,,,,,,1,,,,,,,,,,,,,,,,,,,,,,,,,,,,,,,,,,,,,,,,,,,,,,,,,,,,,,,,,,,,,,,,,,,,,,,,,,,,,,,710.8067,715.9038,slightly disagree,0,0,0,0,1,I can easily tell if someone else wants to enter a conversation.,1,0,1,0,,
,,,,,,,,,6664dfc807e75330a8b54a8b,Spanish,13 or older,"yes, I am fluent in another language",no,2025-07-23_04h29.39.267,empathy_intonation_perc,2024.2.4,Win32,60.24096386,6664dfc807e75330a8b54a8b,687ed1b7e638a4cbf2f02089,68809c1ed83cdc19d6115776,,,,,,,,,,,,,2,,,,,,,,,,,,,,,,,,,,,,,,,,,,,,,,,,,,,,,,,,,,,,,,,,,,,,,,,,,,,,,,,,,,,,,,,,,,,,,715.9045,718.9851,strongly agree,0,1,1,1,1,I prefer animals to humans.,0,1,0,0,,
,,,,,,,,,6664dfc807e75330a8b54a8b,Spanish,13 or older,"yes, I am fluent in another language",no,2025-07-23_04h29.39.267,empathy_intonation_perc,2024.2.4,Win32,60.24096386,6664dfc807e75330a8b54a8b,687ed1b7e638a4cbf2f02089,68809c1ed83cdc19d6115776,,,,,,,,,,,,,3,,,,,,,,,,,,,,,,,,,,,,,,,,,,,,,,,,,,,,,,,,,,,,,,,,,,,,,,,,,,,,,,,,,,,,,,,,,,,,,718.986,722.6873,slightly disagree,0,2,2,2,1,I try to keep up with the current trends and fashions.,0,1,0,0,,
,,,,,,,,,6664dfc807e75330a8b54a8b,Spanish,13 or older,"yes, I am fluent in another language",no,2025-07-23_04h29.39.267,empathy_intonation_perc,2024.2.4,Win32,60.24096386,6664dfc807e75330a8b54a8b,687ed1b7e638a4cbf2f02089,68809c1ed83cdc19d6115776,,,,,,,,,,,,,4,,,,,,,,,,,,,,,,,,,,,,,,,,,,,,,,,,,,,,,,,,,,,,,,,,,,,,,,,,,,,,,,,,,,,,,,,,,,,,,722.6881,729.4711,slightly disagree,0,3,3,3,1,"I find it difficult to explain to others things that I understand easily,   when they don't understand it first time.",1,0,0,1,,
,,,,,,,,,6664dfc807e75330a8b54a8b,Spanish,13 or older,"yes, I am fluent in another language",no,2025-07-23_04h29.39.267,empathy_intonation_perc,2024.2.4,Win32,60.24096386,6664dfc807e75330a8b54a8b,687ed1b7e638a4cbf2f02089,68809c1ed83cdc19d6115776,,,,,,,,,,,,,5,,,,,,,,,,,,,,,,,,,,,,,,,,,,,,,,,,,,,,,,,,,,,,,,,,,,,,,,,,,,,,,,,,,,,,,,,,,,,,,729.4715,732.5855,strongly disagree,0,4,4,4,1,I dream most nights.,0,1,0,0,,
