instructions_exposure.started,instructions_exposure.stopped,instructions_exposure_loop.thisRepN,instructions_exposure_loop.thisTrialN,instructions_exposure_loop.thisN,instructions_exposure_loop.thisIndex,instructions_exposure_loop.ran,instructions_text,continue_text,participant_id,"What variety of Spanish are you most familiar with? (e.g., Peruvian, Spanish, Mexican)",At what age did you begin learning Spanish?,Are you proficient in any languages other than English/Spanish?,"Are you familiar with Caribbean (e.g., Caribbean, Puerto Rican) or Galician Spanish?",date,expName,psychopyVersion,OS,frameRate,id,study_id,session,trial_exposure.started,trial_exposure.stopped,key_resp_exposure.keys,key_resp_exposure.corr,key_resp_exposure.rt,key_resp_exposure.duration,key_resp.keys,exposure_loop.thisRepN,exposure_loop.thisTrialN,exposure_loop.thisN,exposure_loop.thisIndex,exposure_loop.ran,item_num,correct_response,question,path,duration,instructions_2afc.started,instructions_2afc.stopped,instructions_2afc_loop.thisRepN,instructions_2afc_loop.thisTrialN,instructions_2afc_loop.thisN,instructions_2afc_loop.thisIndex,instructions_2afc_loop.ran,practice_2afc.started,practice_2afc.stopped,key_resp_2afc_practice.keys,key_resp_2afc_practice.corr,key_resp_2afc_practice.rt,key_resp_2afc_practice.duration,trials_2afc_practice_loop.thisRepN,trials_2afc_practice_loop.thisTrialN,trials_2afc_practice_loop.thisN,trials_2afc_practice_loop.thisIndex,trials_2afc_practice_loop.ran,check_2afc.started,check_2afc.stopped,trial_2afc.started,trial_2afc.stopped,key_resp_2afc_trial.keys,key_resp_2afc_trial.corr,key_resp_2afc_trial.rt,key_resp_2afc_trial.duration,trials_2afc_loop.thisRepN,trials_2afc_loop.thisTrialN,trials_2afc_loop.thisN,trials_2afc_loop.thisIndex,trials_2afc_loop.ran,target,variety,instructions_lextale.started,instructions_lextale.stopped,instructions_lextale_loop.thisRepN,instructions_lextale_loop.thisTrialN,instructions_lextale_loop.thisN,instructions_lextale_loop.thisIndex,instructions_lextale_loop.ran,practice_lextale.started,practice_lextale.stopped,key_resp_lextale_practice.keys,key_resp_lextale_practice.corr,key_resp_lextale_practice.rt,key_resp_lextale_practice.duration,practice_feedback_lextale.started,practice_feedback_lextale.stopped,trials_lextale_practice_loop.thisRepN,trials_lextale_practice_loop.thisTrialN,trials_lextale_practice_loop.thisN,trials_lextale_practice_loop.thisIndex,trials_lextale_practice_loop.ran,stim,word,prac_button_real,prac_button_false,check_lextale.started,check_lextale.stopped,trial_lextale.started,trial_lextale.stopped,key_resp_lextale_trial.keys,key_resp_lextale_trial.corr,key_resp_lextale_trial.rt,key_resp_lextale_trial.duration,trials_lextale_loop.thisRepN,trials_lextale_loop.thisTrialN,trials_lextale_loop.thisN,trials_lextale_loop.thisIndex,trials_lextale_loop.ran,button_real,button_false,instructions_eq.started,instructions_eq.stopped,trial_eq.started,trial_eq.stopped,slider_eq_trial.response,trials_eq_loop.thisRepN,trials_eq_loop.thisTrialN,trials_eq_loop.thisN,trials_eq_loop.thisIndex,trials_eq_loop.ran,item,is_test_item,is_distractor,is_agree_score,is_disagree_score,end_exp.started,end_exp.stopped
0.02,9.604,0,0,0,0,1,"In the following task, you are going to hear a series of conversations.", (press the space bar to continue),66697feac4c3bc98619563af,Mexican,13 or older,"no, only English or Spanish",yes,2025-08-15_10h02.35.044,empathy_intonation_perc,2024.2.4,Win32,60.0240096,66697feac4c3bc98619563af,689ed6d1281858f68c932c05,689f3cb9b9b938f5044de141,,,,,,,,,,,,,,,,,,,,,,,,,,,,,,,,,,,,,,,,,,,,,,,,,,,,,,,,,,,,,,,,,,,,,,,,,,,,,,,,,,,,,,,,,,,,,,,,,,,,,,,,,,
9.605,12.071,0,1,1,1,1,It is okay if you don't not 100% understand them!, (press the space bar to continue),66697feac4c3bc98619563af,Mexican,13 or older,"no, only English or Spanish",yes,2025-08-15_10h02.35.044,empathy_intonation_perc,2024.2.4,Win32,60.0240096,66697feac4c3bc98619563af,689ed6d1281858f68c932c05,689f3cb9b9b938f5044de141,,,,,,,,,,,,,,,,,,,,,,,,,,,,,,,,,,,,,,,,,,,,,,,,,,,,,,,,,,,,,,,,,,,,,,,,,,,,,,,,,,,,,,,,,,,,,,,,,,,,,,,,,,
12.073,32.188,0,2,2,2,1,"After, you will read a sentence about the conversation and decide if it's true or false.", (press the space bar to continue),66697feac4c3bc98619563af,Mexican,13 or older,"no, only English or Spanish",yes,2025-08-15_10h02.35.044,empathy_intonation_perc,2024.2.4,Win32,60.0240096,66697feac4c3bc98619563af,689ed6d1281858f68c932c05,689f3cb9b9b938f5044de141,,,,,,,,,,,,,,,,,,,,,,,,,,,,,,,,,,,,,,,,,,,,,,,,,,,,,,,,,,,,,,,,,,,,,,,,,,,,,,,,,,,,,,,,,,,,,,,,,,,,,,,,,,
32.192,37.105,0,3,3,3,1,"If it's true, press '1' (True) and if it's false press '0' (False).", (press the space bar to continue),66697feac4c3bc98619563af,Mexican,13 or older,"no, only English or Spanish",yes,2025-08-15_10h02.35.044,empathy_intonation_perc,2024.2.4,Win32,60.0240096,66697feac4c3bc98619563af,689ed6d1281858f68c932c05,689f3cb9b9b938f5044de141,,,,,,,,,,,,,,,,,,,,,,,,,,,,,,,,,,,,,,,,,,,,,,,,,,,,,,,,,,,,,,,,,,,,,,,,,,,,,,,,,,,,,,,,,,,,,,,,,,,,,,,,,,
,,,,,,,,,66697feac4c3bc98619563af,Mexican,13 or older,"no, only English or Spanish",yes,2025-08-15_10h02.35.044,empathy_intonation_perc,2024.2.4,Win32,60.0240096,66697feac4c3bc98619563af,689ed6d1281858f68c932c05,689f3cb9b9b938f5044de141,37.143,77.753,1,0,4.559,,,0,0,0,2,1,3,0,The mom already has rice.,./stim/exposure_wavs/pr_stimuli_convo.wav,36,,,,,,,,,,,,,,,,,,,,,,,,,,,,,,,,,,,,,,,,,,,,,,,,,,,,,,,,,,,,,,,,,,,,,,,,,,,,,,,,,,,,,,,,,
,,,,,,,,,66697feac4c3bc98619563af,Mexican,13 or older,"no, only English or Spanish",yes,2025-08-15_10h02.35.044,empathy_intonation_perc,2024.2.4,Win32,60.0240096,66697feac4c3bc98619563af,689ed6d1281858f68c932c05,689f3cb9b9b938f5044de141,77.757,142.335,1,1,4.533,,,0,1,1,1,1,2,1,The mom asked the daughter if she already went to the supermarket.,./stim/exposure_wavs/dr_stimuli_convo.wav,60,,,,,,,,,,,,,,,,,,,,,,,,,,,,,,,,,,,,,,,,,,,,,,,,,,,,,,,,,,,,,,,,,,,,,,,,,,,,,,,,,,,,,,,,,
,,,,,,,,,66697feac4c3bc98619563af,Mexican,13 or older,"no, only English or Spanish",yes,2025-08-15_10h02.35.044,empathy_intonation_perc,2024.2.4,Win32,60.0240096,66697feac4c3bc98619563af,689ed6d1281858f68c932c05,689f3cb9b9b938f5044de141,142.339,195.733,0,0,6.348,,,0,2,2,0,1,1,1,The son asked the mom if Aunt Marina is okay.,./stim/exposure_wavs/ga_stimuli_convo.wav,47,,,,,,,,,,,,,,,,,,,,,,,,,,,,,,,,,,,,,,,,,,,,,,,,,,,,,,,,,,,,,,,,,,,,,,,,,,,,,,,,,,,,,,,,,
,,,,,,,"In the following task you are going to hear a series of utterances. 

  You will decide if the utterances sound like questions or not using your keyboard.", (press the spacebar to continue),66697feac4c3bc98619563af,Mexican,13 or older,"no, only English or Spanish",yes,2025-08-15_10h02.35.044,empathy_intonation_perc,2024.2.4,Win32,60.0240096,66697feac4c3bc98619563af,689ed6d1281858f68c932c05,689f3cb9b9b938f5044de141,,,,,,,,,,,,,,,,,,195.752,203.183,0,0,0,0,1,,,,,,,,,,,,,,,,,,,,,,,,,,,,,,,,,,,,,,,,,,,,,,,,,,,,,,,,,,,,,,,,,,,,,,,,,,,,,,,,,,
,,,,,,,"If you believe the utterance is a question, type '1' (for 'yes') and if you do not 
  believe it is a question type '0' (for 'no').

  Let's practice a bit...", (press the spacebar to continue),66697feac4c3bc98619563af,Mexican,13 or older,"no, only English or Spanish",yes,2025-08-15_10h02.35.044,empathy_intonation_perc,2024.2.4,Win32,60.0240096,66697feac4c3bc98619563af,689ed6d1281858f68c932c05,689f3cb9b9b938f5044de141,,,,,,,,,,,,,,,,,,203.186,207.383,0,1,1,1,1,,,,,,,,,,,,,,,,,,,,,,,,,,,,,,,,,,,,,,,,,,,,,,,,,,,,,,,,,,,,,,,,,,,,,,,,,,,,,,,,,,
,,,,,,,,,66697feac4c3bc98619563af,Mexican,13 or older,"no, only English or Spanish",yes,2025-08-15_10h02.35.044,empathy_intonation_perc,2024.2.4,Win32,60.0240096,66697feac4c3bc98619563af,689ed6d1281858f68c932c05,689f3cb9b9b938f5044de141,,,,,,,,,,,,,,1,,./stim/wavs/castilian_question_filler_Mi-esposo-conoce-al-chico.wav,,,,,,,,,207.393,210.483,1,1,2.58,,0,0,0,0,1,,,,,,,,,,,,,,,,,,,,,,,,,,,,,,,,,,,,,,,,,,,,,,,,,,,,,,,,,,,,,,,,,,,,,,,
,,,,,,,,,66697feac4c3bc98619563af,Mexican,13 or older,"no, only English or Spanish",yes,2025-08-15_10h02.35.044,empathy_intonation_perc,2024.2.4,Win32,60.0240096,66697feac4c3bc98619563af,689ed6d1281858f68c932c05,689f3cb9b9b938f5044de141,,,,,,,,,,,,,,0,,./stim/wavs/peruvian_statement_filler_El-nino-habla-con-su-madre.wav,,,,,,,,,210.485,213.266,0,1,2.255,,0,1,1,6,1,,,,,,,,,,,,,,,,,,,,,,,,,,,,,,,,,,,,,,,,,,,,,,,,,,,,,,,,,,,,,,,,,,,,,,,
,,,,,,,,,66697feac4c3bc98619563af,Mexican,13 or older,"no, only English or Spanish",yes,2025-08-15_10h02.35.044,empathy_intonation_perc,2024.2.4,Win32,60.0240096,66697feac4c3bc98619563af,689ed6d1281858f68c932c05,689f3cb9b9b938f5044de141,,,,,,,,,,,,,,1,,./stim/wavs/chilean_question_filler_Mi-padre-cantaba-bien.wav,,,,,,,,,213.267,217.616,0,0,3.824,,0,2,2,2,1,,,,,,,,,,,,,,,,,,,,,,,,,,,,,,,,,,,,,,,,,,,,,,,,,,,,,,,,,,,,,,,,,,,,,,,
,,,,,,,,,66697feac4c3bc98619563af,Mexican,13 or older,"no, only English or Spanish",yes,2025-08-15_10h02.35.044,empathy_intonation_perc,2024.2.4,Win32,60.0240096,66697feac4c3bc98619563af,689ed6d1281858f68c932c05,689f3cb9b9b938f5044de141,,,,,,,,,,,,,,0,,./stim/wavs/cuban_statement_filler_Cocinabas-por-la-noche.wav,,,,,,,,,217.617,219.934,0,1,1.804,,0,3,3,4,1,,,,,,,,,,,,,,,,,,,,,,,,,,,,,,,,,,,,,,,,,,,,,,,,,,,,,,,,,,,,,,,,,,,,,,,
,,,,,,,,,66697feac4c3bc98619563af,Mexican,13 or older,"no, only English or Spanish",yes,2025-08-15_10h02.35.044,empathy_intonation_perc,2024.2.4,Win32,60.0240096,66697feac4c3bc98619563af,689ed6d1281858f68c932c05,689f3cb9b9b938f5044de141,,,,,,,,,,,,,,0,,./stim/wavs/puertorican_statement_filler_La-nina-pinta-con-su-amiga.wav,,,,,,,,,219.936,222.35,0,1,1.889,,0,4,4,7,1,,,,,,,,,,,,,,,,,,,,,,,,,,,,,,,,,,,,,,,,,,,,,,,,,,,,,,,,,,,,,,,,,,,,,,,
,,,,,,,,,66697feac4c3bc98619563af,Mexican,13 or older,"no, only English or Spanish",yes,2025-08-15_10h02.35.044,empathy_intonation_perc,2024.2.4,Win32,60.0240096,66697feac4c3bc98619563af,689ed6d1281858f68c932c05,689f3cb9b9b938f5044de141,,,,,,,,,,,,,,0,,./stim/wavs/andalusian_statement_filler_Alberto-nunca-se-afeita.wav,,,,,,,,,222.352,225.083,0,1,2.213,,0,5,5,5,1,,,,,,,,,,,,,,,,,,,,,,,,,,,,,,,,,,,,,,,,,,,,,,,,,,,,,,,,,,,,,,,,,,,,,,,
,,,,,,,,,66697feac4c3bc98619563af,Mexican,13 or older,"no, only English or Spanish",yes,2025-08-15_10h02.35.044,empathy_intonation_perc,2024.2.4,Win32,60.0240096,66697feac4c3bc98619563af,689ed6d1281858f68c932c05,689f3cb9b9b938f5044de141,,,,,,,,,,,,,,1,,./stim/wavs/argentine_question_filler_Mi-vecino-habla-mucho.wav,,,,,,,,,225.084,227.933,1,1,2.328,,0,6,6,1,1,,,,,,,,,,,,,,,,,,,,,,,,,,,,,,,,,,,,,,,,,,,,,,,,,,,,,,,,,,,,,,,,,,,,,,,
,,,,,,,,,66697feac4c3bc98619563af,Mexican,13 or older,"no, only English or Spanish",yes,2025-08-15_10h02.35.044,empathy_intonation_perc,2024.2.4,Win32,60.0240096,66697feac4c3bc98619563af,689ed6d1281858f68c932c05,689f3cb9b9b938f5044de141,,,,,,,,,,,,,,1,,./stim/wavs/mexican_question_filler_Felipe-no-tiene-contrasena.wav,,,,,,,,,227.934,230.349,1,1,1.894,,0,7,7,3,1,,,,,,,,,,,,,,,,,,,,,,,,,,,,,,,,,,,,,,,,,,,,,,,,,,,,,,,,,,,,,,,,,,,,,,,
,,,,,,,,,66697feac4c3bc98619563af,Mexican,13 or older,"no, only English or Spanish",yes,2025-08-15_10h02.35.044,empathy_intonation_perc,2024.2.4,Win32,60.0240096,66697feac4c3bc98619563af,689ed6d1281858f68c932c05,689f3cb9b9b938f5044de141,,,,,,,,,,,,,,,,,,,,,,,,,,,,,,,,,,,,230.35,233.832,,,,,,,,,,,,,,,,,,,,,,,,,,,,,,,,,,,,,,,,,,,,,,,,,,,,,,,,,,,,,,,,,,,,,
,,,,,,,,,66697feac4c3bc98619563af,Mexican,13 or older,"no, only English or Spanish",yes,2025-08-15_10h02.35.044,empathy_intonation_perc,2024.2.4,Win32,60.0240096,66697feac4c3bc98619563af,689ed6d1281858f68c932c05,689f3cb9b9b938f5044de141,,,,,,,,,,,,,8,1,,./stim/wavs/cuban_match_interrogative-total-yn_Daniel-iba-a-Bolivia.wav,,,,,,,,,,,,,,,,,,,,,,233.858,236.483,0,0,2.113,,0,0,0,7,1,1,cuban,,,,,,,,,,,,,,,,,,,,,,,,,,,,,,,,,,,,,,,,,,,,,,,,,,,,,,,,
,,,,,,,,,66697feac4c3bc98619563af,Mexican,13 or older,"no, only English or Spanish",yes,2025-08-15_10h02.35.044,empathy_intonation_perc,2024.2.4,Win32,60.0240096,66697feac4c3bc98619563af,689ed6d1281858f68c932c05,689f3cb9b9b938f5044de141,,,,,,,,,,,,,74,0,,./stim/wavs/cuban_mismatch_declarative-broad-focus_El-bebe-comia-muy-bien.wav,,,,,,,,,,,,,,,,,,,,,,236.484,238.899,0,1,1.896,,0,1,1,73,1,0,cuban,,,,,,,,,,,,,,,,,,,,,,,,,,,,,,,,,,,,,,,,,,,,,,,,,,,,,,,,
,,,,,,,,,66697feac4c3bc98619563af,Mexican,13 or older,"no, only English or Spanish",yes,2025-08-15_10h02.35.044,empathy_intonation_perc,2024.2.4,Win32,60.0240096,66697feac4c3bc98619563af,689ed6d1281858f68c932c05,689f3cb9b9b938f5044de141,,,,,,,,,,,,,75,0,,./stim/wavs/cuban_mismatch_declarative-broad-focus_El-hombre-mira-la-luna.wav,,,,,,,,,,,,,,,,,,,,,,238.9,241.465,0,1,2.033,,0,2,2,74,1,0,cuban,,,,,,,,,,,,,,,,,,,,,,,,,,,,,,,,,,,,,,,,,,,,,,,,,,,,,,,,
,,,,,,,,,66697feac4c3bc98619563af,Mexican,13 or older,"no, only English or Spanish",yes,2025-08-15_10h02.35.044,empathy_intonation_perc,2024.2.4,Win32,60.0240096,66697feac4c3bc98619563af,689ed6d1281858f68c932c05,689f3cb9b9b938f5044de141,,,,,,,,,,,,,30,1,,./stim/wavs/cuban_mismatch_interrogative-total-yn_El-hombre-mira-la-luna.wav,,,,,,,,,,,,,,,,,,,,,,241.467,243.466,1,1,1.483,,0,3,3,29,1,1,cuban,,,,,,,,,,,,,,,,,,,,,,,,,,,,,,,,,,,,,,,,,,,,,,,,,,,,,,,,
,,,,,,,,,66697feac4c3bc98619563af,Mexican,13 or older,"no, only English or Spanish",yes,2025-08-15_10h02.35.044,empathy_intonation_perc,2024.2.4,Win32,60.0240096,66697feac4c3bc98619563af,689ed6d1281858f68c932c05,689f3cb9b9b938f5044de141,,,,,,,,,,,,,43,1,,./stim/wavs/puertorican_mismatch_interrogative-total-yn_La-nina-lava-el-plato.wav,,,,,,,,,,,,,,,,,,,,,,243.466,245.982,1,1,2,,0,4,4,42,1,1,puertorican,,,,,,,,,,,,,,,,,,,,,,,,,,,,,,,,,,,,,,,,,,,,,,,,,,,,,,,,
,,,,,,,,,66697feac4c3bc98619563af,Mexican,13 or older,"no, only English or Spanish",yes,2025-08-15_10h02.35.044,empathy_intonation_perc,2024.2.4,Win32,60.0240096,66697feac4c3bc98619563af,689ed6d1281858f68c932c05,689f3cb9b9b938f5044de141,,,,,,,,,,,,,53,0,,./stim/wavs/cuban_match_declarative-broad-focus_Manuela-vende-el-carro.wav,,,,,,,,,,,,,,,,,,,,,,245.983,248.334,0,1,1.846,,0,5,5,52,1,0,cuban,,,,,,,,,,,,,,,,,,,,,,,,,,,,,,,,,,,,,,,,,,,,,,,,,,,,,,,,
,,,,,,,,,66697feac4c3bc98619563af,Mexican,13 or older,"no, only English or Spanish",yes,2025-08-15_10h02.35.044,empathy_intonation_perc,2024.2.4,Win32,60.0240096,66697feac4c3bc98619563af,689ed6d1281858f68c932c05,689f3cb9b9b938f5044de141,,,,,,,,,,,,,85,0,,./stim/wavs/puertorican_mismatch_declarative-broad-focus_El-hombre-mira-la-luna.wav,,,,,,,,,,,,,,,,,,,,,,248.335,250.801,0,1,1.933,,0,6,6,84,1,0,puertorican,,,,,,,,,,,,,,,,,,,,,,,,,,,,,,,,,,,,,,,,,,,,,,,,,,,,,,,,
,,,,,,,,,66697feac4c3bc98619563af,Mexican,13 or older,"no, only English or Spanish",yes,2025-08-15_10h02.35.044,empathy_intonation_perc,2024.2.4,Win32,60.0240096,66697feac4c3bc98619563af,689ed6d1281858f68c932c05,689f3cb9b9b938f5044de141,,,,,,,,,,,,,3,1,,./stim/wavs/castilian_match_interrogative-total-yn_Manuela-vende-el-carro.wav,,,,,,,,,,,,,,,,,,,,,,250.804,253.099,1,1,1.779,,0,7,7,2,1,0,castilian,,,,,,,,,,,,,,,,,,,,,,,,,,,,,,,,,,,,,,,,,,,,,,,,,,,,,,,,
,,,,,,,,,66697feac4c3bc98619563af,Mexican,13 or older,"no, only English or Spanish",yes,2025-08-15_10h02.35.044,empathy_intonation_perc,2024.2.4,Win32,60.0240096,66697feac4c3bc98619563af,689ed6d1281858f68c932c05,689f3cb9b9b938f5044de141,,,,,,,,,,,,,55,0,,./stim/wavs/cuban_match_declarative-broad-focus_Mariano-habla-del-tiempo.wav,,,,,,,,,,,,,,,,,,,,,,253.101,255.716,0,1,2.095,,0,8,8,54,1,0,cuban,,,,,,,,,,,,,,,,,,,,,,,,,,,,,,,,,,,,,,,,,,,,,,,,,,,,,,,,
,,,,,,,,,66697feac4c3bc98619563af,Mexican,13 or older,"no, only English or Spanish",yes,2025-08-15_10h02.35.044,empathy_intonation_perc,2024.2.4,Win32,60.0240096,66697feac4c3bc98619563af,689ed6d1281858f68c932c05,689f3cb9b9b938f5044de141,,,,,,,,,,,,,49,0,,./stim/wavs/castilian_match_declarative-broad-focus_Mariano-habla-del-tiempo.wav,,,,,,,,,,,,,,,,,,,,,,255.718,258.049,1,0,1.806,,0,9,9,48,1,0,castilian,,,,,,,,,,,,,,,,,,,,,,,,,,,,,,,,,,,,,,,,,,,,,,,,,,,,,,,,
,,,,,,,,,66697feac4c3bc98619563af,Mexican,13 or older,"no, only English or Spanish",yes,2025-08-15_10h02.35.044,empathy_intonation_perc,2024.2.4,Win32,60.0240096,66697feac4c3bc98619563af,689ed6d1281858f68c932c05,689f3cb9b9b938f5044de141,,,,,,,,,,,,,23,1,,./stim/wavs/puertorican_match_interrogative-total-yn_Manuela-vende-el-carro.wav,,,,,,,,,,,,,,,,,,,,,,258.052,260.566,0,0,1.986,,0,10,10,22,1,1,puertorican,,,,,,,,,,,,,,,,,,,,,,,,,,,,,,,,,,,,,,,,,,,,,,,,,,,,,,,,
,,,,,,,,,66697feac4c3bc98619563af,Mexican,13 or older,"no, only English or Spanish",yes,2025-08-15_10h02.35.044,empathy_intonation_perc,2024.2.4,Win32,60.0240096,66697feac4c3bc98619563af,689ed6d1281858f68c932c05,689f3cb9b9b938f5044de141,,,,,,,,,,,,,45,0,,./stim/wavs/castilian_match_declarative-broad-focus_David-leia-el-libro.wav,,,,,,,,,,,,,,,,,,,,,,260.566,263.015,0,1,1.918,,0,11,11,44,1,0,castilian,,,,,,,,,,,,,,,,,,,,,,,,,,,,,,,,,,,,,,,,,,,,,,,,,,,,,,,,
,,,,,,,,,66697feac4c3bc98619563af,Mexican,13 or older,"no, only English or Spanish",yes,2025-08-15_10h02.35.044,empathy_intonation_perc,2024.2.4,Win32,60.0240096,66697feac4c3bc98619563af,689ed6d1281858f68c932c05,689f3cb9b9b938f5044de141,,,,,,,,,,,,,31,1,,./stim/wavs/cuban_mismatch_interrogative-total-yn_El-nino-oye-el-rio.wav,,,,,,,,,,,,,,,,,,,,,,263.017,266.248,1,1,2.701,,0,12,12,30,1,1,cuban,,,,,,,,,,,,,,,,,,,,,,,,,,,,,,,,,,,,,,,,,,,,,,,,,,,,,,,,
,,,,,,,,,66697feac4c3bc98619563af,Mexican,13 or older,"no, only English or Spanish",yes,2025-08-15_10h02.35.044,empathy_intonation_perc,2024.2.4,Win32,60.0240096,66697feac4c3bc98619563af,689ed6d1281858f68c932c05,689f3cb9b9b938f5044de141,,,,,,,,,,,,,71,0,,./stim/wavs/castilian_mismatch_declarative-broad-focus_La-nina-lava-el-plato.wav,,,,,,,,,,,,,,,,,,,,,,266.249,268.682,0,1,1.9,,0,13,13,70,1,0,castilian,,,,,,,,,,,,,,,,,,,,,,,,,,,,,,,,,,,,,,,,,,,,,,,,,,,,,,,,
,,,,,,,,,66697feac4c3bc98619563af,Mexican,13 or older,"no, only English or Spanish",yes,2025-08-15_10h02.35.044,empathy_intonation_perc,2024.2.4,Win32,60.0240096,66697feac4c3bc98619563af,689ed6d1281858f68c932c05,689f3cb9b9b938f5044de141,,,,,,,,,,,,,61,0,,./stim/wavs/mexican_match_declarative-broad-focus_Mariano-habla-del-tiempo.wav,,,,,,,,,,,,,,,,,,,,,,268.683,270.731,0,1,1.521,,0,14,14,60,1,0,mexican,,,,,,,,,,,,,,,,,,,,,,,,,,,,,,,,,,,,,,,,,,,,,,,,,,,,,,,,
,,,,,,,,,66697feac4c3bc98619563af,Mexican,13 or older,"no, only English or Spanish",yes,2025-08-15_10h02.35.044,empathy_intonation_perc,2024.2.4,Win32,60.0240096,66697feac4c3bc98619563af,689ed6d1281858f68c932c05,689f3cb9b9b938f5044de141,,,,,,,,,,,,,82,0,,./stim/wavs/mexican_mismatch_declarative-broad-focus_Mi-novio-viene-del-lago.wav,,,,,,,,,,,,,,,,,,,,,,270.732,272.698,0,1,1.439,,0,15,15,81,1,0,mexican,,,,,,,,,,,,,,,,,,,,,,,,,,,,,,,,,,,,,,,,,,,,,,,,,,,,,,,,
,,,,,,,,,66697feac4c3bc98619563af,Mexican,13 or older,"no, only English or Spanish",yes,2025-08-15_10h02.35.044,empathy_intonation_perc,2024.2.4,Win32,60.0240096,66697feac4c3bc98619563af,689ed6d1281858f68c932c05,689f3cb9b9b938f5044de141,,,,,,,,,,,,,36,1,,./stim/wavs/mexican_mismatch_interrogative-total-yn_El-nino-oye-el-rio.wav,,,,,,,,,,,,,,,,,,,,,,272.699,274.765,0,0,1.536,,0,16,16,35,1,0,mexican,,,,,,,,,,,,,,,,,,,,,,,,,,,,,,,,,,,,,,,,,,,,,,,,,,,,,,,,
,,,,,,,,,66697feac4c3bc98619563af,Mexican,13 or older,"no, only English or Spanish",yes,2025-08-15_10h02.35.044,empathy_intonation_perc,2024.2.4,Win32,60.0240096,66697feac4c3bc98619563af,689ed6d1281858f68c932c05,689f3cb9b9b938f5044de141,,,,,,,,,,,,,17,1,,./stim/wavs/mexican_match_interrogative-total-yn_Mariano-habla-del-tiempo.wav,,,,,,,,,,,,,,,,,,,,,,274.766,277.098,1,1,1.814,,0,17,17,16,1,0,mexican,,,,,,,,,,,,,,,,,,,,,,,,,,,,,,,,,,,,,,,,,,,,,,,,,,,,,,,,
,,,,,,,,,66697feac4c3bc98619563af,Mexican,13 or older,"no, only English or Spanish",yes,2025-08-15_10h02.35.044,empathy_intonation_perc,2024.2.4,Win32,60.0240096,66697feac4c3bc98619563af,689ed6d1281858f68c932c05,689f3cb9b9b938f5044de141,,,,,,,,,,,,,58,0,,./stim/wavs/mexican_match_declarative-broad-focus_Daniel-iba-a-Bolivia.wav,,,,,,,,,,,,,,,,,,,,,,277.099,279.082,0,1,1.451,,0,18,18,57,1,0,mexican,,,,,,,,,,,,,,,,,,,,,,,,,,,,,,,,,,,,,,,,,,,,,,,,,,,,,,,,
,,,,,,,,,66697feac4c3bc98619563af,Mexican,13 or older,"no, only English or Spanish",yes,2025-08-15_10h02.35.044,empathy_intonation_perc,2024.2.4,Win32,60.0240096,66697feac4c3bc98619563af,689ed6d1281858f68c932c05,689f3cb9b9b938f5044de141,,,,,,,,,,,,,24,1,,./stim/wavs/puertorican_match_interrogative-total-yn_Maria-bebe-el-vino.wav,,,,,,,,,,,,,,,,,,,,,,279.082,281.332,0,0,1.729,,0,19,19,23,1,1,puertorican,,,,,,,,,,,,,,,,,,,,,,,,,,,,,,,,,,,,,,,,,,,,,,,,,,,,,,,,
,,,,,,,,,66697feac4c3bc98619563af,Mexican,13 or older,"no, only English or Spanish",yes,2025-08-15_10h02.35.044,empathy_intonation_perc,2024.2.4,Win32,60.0240096,66697feac4c3bc98619563af,689ed6d1281858f68c932c05,689f3cb9b9b938f5044de141,,,,,,,,,,,,,39,1,,./stim/wavs/mexican_mismatch_interrogative-total-yn_Mi-tia-odia-la-lluvia.wav,,,,,,,,,,,,,,,,,,,,,,281.333,283.565,1,1,1.704,,0,20,20,38,1,0,mexican,,,,,,,,,,,,,,,,,,,,,,,,,,,,,,,,,,,,,,,,,,,,,,,,,,,,,,,,
,,,,,,,,,66697feac4c3bc98619563af,Mexican,13 or older,"no, only English or Spanish",yes,2025-08-15_10h02.35.044,empathy_intonation_perc,2024.2.4,Win32,60.0240096,66697feac4c3bc98619563af,689ed6d1281858f68c932c05,689f3cb9b9b938f5044de141,,,,,,,,,,,,,21,1,,./stim/wavs/puertorican_match_interrogative-total-yn_David-leia-el-libro.wav,,,,,,,,,,,,,,,,,,,,,,283.568,285.548,0,0,1.453,,0,21,21,20,1,1,puertorican,,,,,,,,,,,,,,,,,,,,,,,,,,,,,,,,,,,,,,,,,,,,,,,,,,,,,,,,
,,,,,,,,,66697feac4c3bc98619563af,Mexican,13 or older,"no, only English or Spanish",yes,2025-08-15_10h02.35.044,empathy_intonation_perc,2024.2.4,Win32,60.0240096,66697feac4c3bc98619563af,689ed6d1281858f68c932c05,689f3cb9b9b938f5044de141,,,,,,,,,,,,,68,0,,./stim/wavs/puertorican_match_declarative-broad-focus_Maria-bebe-el-vino.wav,,,,,,,,,,,,,,,,,,,,,,285.55,287.531,0,1,1.453,,0,22,22,67,1,0,puertorican,,,,,,,,,,,,,,,,,,,,,,,,,,,,,,,,,,,,,,,,,,,,,,,,,,,,,,,,
,,,,,,,,,66697feac4c3bc98619563af,Mexican,13 or older,"no, only English or Spanish",yes,2025-08-15_10h02.35.044,empathy_intonation_perc,2024.2.4,Win32,60.0240096,66697feac4c3bc98619563af,689ed6d1281858f68c932c05,689f3cb9b9b938f5044de141,,,,,,,,,,,,,16,1,,./stim/wavs/mexican_match_interrogative-total-yn_Emilio-ama-la-marcha.wav,,,,,,,,,,,,,,,,,,,,,,287.534,289.782,1,1,1.726,,0,23,23,15,1,0,mexican,,,,,,,,,,,,,,,,,,,,,,,,,,,,,,,,,,,,,,,,,,,,,,,,,,,,,,,,
,,,,,,,,,66697feac4c3bc98619563af,Mexican,13 or older,"no, only English or Spanish",yes,2025-08-15_10h02.35.044,empathy_intonation_perc,2024.2.4,Win32,60.0240096,66697feac4c3bc98619563af,689ed6d1281858f68c932c05,689f3cb9b9b938f5044de141,,,,,,,,,,,,,15,1,,./stim/wavs/mexican_match_interrogative-total-yn_David-leia-el-libro.wav,,,,,,,,,,,,,,,,,,,,,,289.784,292.281,1,1,1.973,,0,24,24,14,1,0,mexican,,,,,,,,,,,,,,,,,,,,,,,,,,,,,,,,,,,,,,,,,,,,,,,,,,,,,,,,
,,,,,,,,,66697feac4c3bc98619563af,Mexican,13 or older,"no, only English or Spanish",yes,2025-08-15_10h02.35.044,empathy_intonation_perc,2024.2.4,Win32,60.0240096,66697feac4c3bc98619563af,689ed6d1281858f68c932c05,689f3cb9b9b938f5044de141,,,,,,,,,,,,,59,0,,./stim/wavs/mexican_match_declarative-broad-focus_David-leia-el-libro.wav,,,,,,,,,,,,,,,,,,,,,,292.282,294.314,0,1,1.506,,0,25,25,58,1,0,mexican,,,,,,,,,,,,,,,,,,,,,,,,,,,,,,,,,,,,,,,,,,,,,,,,,,,,,,,,
,,,,,,,,,66697feac4c3bc98619563af,Mexican,13 or older,"no, only English or Spanish",yes,2025-08-15_10h02.35.044,empathy_intonation_perc,2024.2.4,Win32,60.0240096,66697feac4c3bc98619563af,689ed6d1281858f68c932c05,689f3cb9b9b938f5044de141,,,,,,,,,,,,,72,0,,./stim/wavs/castilian_mismatch_declarative-broad-focus_Mi-novio-viene-del-lago.wav,,,,,,,,,,,,,,,,,,,,,,294.316,296.715,0,1,1.88,,0,26,26,71,1,0,castilian,,,,,,,,,,,,,,,,,,,,,,,,,,,,,,,,,,,,,,,,,,,,,,,,,,,,,,,,
,,,,,,,,,66697feac4c3bc98619563af,Mexican,13 or older,"no, only English or Spanish",yes,2025-08-15_10h02.35.044,empathy_intonation_perc,2024.2.4,Win32,60.0240096,66697feac4c3bc98619563af,689ed6d1281858f68c932c05,689f3cb9b9b938f5044de141,,,,,,,,,,,,,87,0,,./stim/wavs/puertorican_mismatch_declarative-broad-focus_La-maestra-vive-en-Paris.wav,,,,,,,,,,,,,,,,,,,,,,296.715,299.015,0,1,1.77,,0,27,27,86,1,0,puertorican,,,,,,,,,,,,,,,,,,,,,,,,,,,,,,,,,,,,,,,,,,,,,,,,,,,,,,,,
,,,,,,,,,66697feac4c3bc98619563af,Mexican,13 or older,"no, only English or Spanish",yes,2025-08-15_10h02.35.044,empathy_intonation_perc,2024.2.4,Win32,60.0240096,66697feac4c3bc98619563af,689ed6d1281858f68c932c05,689f3cb9b9b938f5044de141,,,,,,,,,,,,,84,0,,./stim/wavs/puertorican_mismatch_declarative-broad-focus_El-bebe-comia-muy-bien.wav,,,,,,,,,,,,,,,,,,,,,,299.017,301.131,0,1,1.587,,0,28,28,83,1,0,puertorican,,,,,,,,,,,,,,,,,,,,,,,,,,,,,,,,,,,,,,,,,,,,,,,,,,,,,,,,
,,,,,,,,,66697feac4c3bc98619563af,Mexican,13 or older,"no, only English or Spanish",yes,2025-08-15_10h02.35.044,empathy_intonation_perc,2024.2.4,Win32,60.0240096,66697feac4c3bc98619563af,689ed6d1281858f68c932c05,689f3cb9b9b938f5044de141,,,,,,,,,,,,,77,0,,./stim/wavs/cuban_mismatch_declarative-broad-focus_Mi-novio-viene-del-lago.wav,,,,,,,,,,,,,,,,,,,,,,301.131,303.365,0,1,1.727,,0,29,29,76,1,0,cuban,,,,,,,,,,,,,,,,,,,,,,,,,,,,,,,,,,,,,,,,,,,,,,,,,,,,,,,,
,,,,,,,,,66697feac4c3bc98619563af,Mexican,13 or older,"no, only English or Spanish",yes,2025-08-15_10h02.35.044,empathy_intonation_perc,2024.2.4,Win32,60.0240096,66697feac4c3bc98619563af,689ed6d1281858f68c932c05,689f3cb9b9b938f5044de141,,,,,,,,,,,,,10,1,,./stim/wavs/cuban_match_interrogative-total-yn_Maria-bebe-el-vino.wav,,,,,,,,,,,,,,,,,,,,,,303.366,305.564,1,1,1.678,,0,30,30,9,1,1,cuban,,,,,,,,,,,,,,,,,,,,,,,,,,,,,,,,,,,,,,,,,,,,,,,,,,,,,,,,
,,,,,,,,,66697feac4c3bc98619563af,Mexican,13 or older,"no, only English or Spanish",yes,2025-08-15_10h02.35.044,empathy_intonation_perc,2024.2.4,Win32,60.0240096,66697feac4c3bc98619563af,689ed6d1281858f68c932c05,689f3cb9b9b938f5044de141,,,,,,,,,,,,,22,1,,./stim/wavs/puertorican_match_interrogative-total-yn_Emilio-ama-la-marcha.wav,,,,,,,,,,,,,,,,,,,,,,305.566,307.864,0,0,1.766,,0,31,31,21,1,1,puertorican,,,,,,,,,,,,,,,,,,,,,,,,,,,,,,,,,,,,,,,,,,,,,,,,,,,,,,,,
,,,,,,,,,66697feac4c3bc98619563af,Mexican,13 or older,"no, only English or Spanish",yes,2025-08-15_10h02.35.044,empathy_intonation_perc,2024.2.4,Win32,60.0240096,66697feac4c3bc98619563af,689ed6d1281858f68c932c05,689f3cb9b9b938f5044de141,,,,,,,,,,,,,86,0,,./stim/wavs/puertorican_mismatch_declarative-broad-focus_El-nino-oye-el-rio.wav,,,,,,,,,,,,,,,,,,,,,,307.865,309.998,0,1,1.61,,0,32,32,85,1,0,puertorican,,,,,,,,,,,,,,,,,,,,,,,,,,,,,,,,,,,,,,,,,,,,,,,,,,,,,,,,
,,,,,,,,,66697feac4c3bc98619563af,Mexican,13 or older,"no, only English or Spanish",yes,2025-08-15_10h02.35.044,empathy_intonation_perc,2024.2.4,Win32,60.0240096,66697feac4c3bc98619563af,689ed6d1281858f68c932c05,689f3cb9b9b938f5044de141,,,,,,,,,,,,,38,1,,./stim/wavs/mexican_mismatch_interrogative-total-yn_Mi-novio-viene-del-lago.wav,,,,,,,,,,,,,,,,,,,,,,309.998,312.181,1,1,1.653,,0,33,33,37,1,0,mexican,,,,,,,,,,,,,,,,,,,,,,,,,,,,,,,,,,,,,,,,,,,,,,,,,,,,,,,,
,,,,,,,,,66697feac4c3bc98619563af,Mexican,13 or older,"no, only English or Spanish",yes,2025-08-15_10h02.35.044,empathy_intonation_perc,2024.2.4,Win32,60.0240096,66697feac4c3bc98619563af,689ed6d1281858f68c932c05,689f3cb9b9b938f5044de141,,,,,,,,,,,,,83,0,,./stim/wavs/mexican_mismatch_declarative-broad-focus_Mi-tia-odia-la-lluvia.wav,,,,,,,,,,,,,,,,,,,,,,312.182,314.147,0,1,1.438,,0,34,34,82,1,0,mexican,,,,,,,,,,,,,,,,,,,,,,,,,,,,,,,,,,,,,,,,,,,,,,,,,,,,,,,,
,,,,,,,,,66697feac4c3bc98619563af,Mexican,13 or older,"no, only English or Spanish",yes,2025-08-15_10h02.35.044,empathy_intonation_perc,2024.2.4,Win32,60.0240096,66697feac4c3bc98619563af,689ed6d1281858f68c932c05,689f3cb9b9b938f5044de141,,,,,,,,,,,,,62,0,,./stim/wavs/mexican_match_declarative-broad-focus_Marta-abre-el-regalo.wav,,,,,,,,,,,,,,,,,,,,,,314.148,316.083,0,1,1.419,,0,35,35,61,1,0,mexican,,,,,,,,,,,,,,,,,,,,,,,,,,,,,,,,,,,,,,,,,,,,,,,,,,,,,,,,
,,,,,,,,,66697feac4c3bc98619563af,Mexican,13 or older,"no, only English or Spanish",yes,2025-08-15_10h02.35.044,empathy_intonation_perc,2024.2.4,Win32,60.0240096,66697feac4c3bc98619563af,689ed6d1281858f68c932c05,689f3cb9b9b938f5044de141,,,,,,,,,,,,,32,1,,./stim/wavs/cuban_mismatch_interrogative-total-yn_Mi-madre-come-la-fruta.wav,,,,,,,,,,,,,,,,,,,,,,316.085,318.868,0,0,2.267,,0,36,36,31,1,1,cuban,,,,,,,,,,,,,,,,,,,,,,,,,,,,,,,,,,,,,,,,,,,,,,,,,,,,,,,,
,,,,,,,,,66697feac4c3bc98619563af,Mexican,13 or older,"no, only English or Spanish",yes,2025-08-15_10h02.35.044,empathy_intonation_perc,2024.2.4,Win32,60.0240096,66697feac4c3bc98619563af,689ed6d1281858f68c932c05,689f3cb9b9b938f5044de141,,,,,,,,,,,,,64,0,,./stim/wavs/puertorican_match_declarative-broad-focus_Daniel-iba-a-Bolivia.wav,,,,,,,,,,,,,,,,,,,,,,318.869,321.314,0,1,1.917,,0,37,37,63,1,0,puertorican,,,,,,,,,,,,,,,,,,,,,,,,,,,,,,,,,,,,,,,,,,,,,,,,,,,,,,,,
,,,,,,,,,66697feac4c3bc98619563af,Mexican,13 or older,"no, only English or Spanish",yes,2025-08-15_10h02.35.044,empathy_intonation_perc,2024.2.4,Win32,60.0240096,66697feac4c3bc98619563af,689ed6d1281858f68c932c05,689f3cb9b9b938f5044de141,,,,,,,,,,,,,81,0,,./stim/wavs/mexican_mismatch_declarative-broad-focus_La-maestra-vive-en-Paris.wav,,,,,,,,,,,,,,,,,,,,,,321.315,323.531,0,1,1.689,,0,38,38,80,1,0,mexican,,,,,,,,,,,,,,,,,,,,,,,,,,,,,,,,,,,,,,,,,,,,,,,,,,,,,,,,
,,,,,,,,,66697feac4c3bc98619563af,Mexican,13 or older,"no, only English or Spanish",yes,2025-08-15_10h02.35.044,empathy_intonation_perc,2024.2.4,Win32,60.0240096,66697feac4c3bc98619563af,689ed6d1281858f68c932c05,689f3cb9b9b938f5044de141,,,,,,,,,,,,,28,1,,./stim/wavs/castilian_mismatch_interrogative-total-yn_Mi-novio-viene-del-lago.wav,,,,,,,,,,,,,,,,,,,,,,323.531,325.881,1,1,1.815,,0,39,39,27,1,0,castilian,,,,,,,,,,,,,,,,,,,,,,,,,,,,,,,,,,,,,,,,,,,,,,,,,,,,,,,,
,,,,,,,,,66697feac4c3bc98619563af,Mexican,13 or older,"no, only English or Spanish",yes,2025-08-15_10h02.35.044,empathy_intonation_perc,2024.2.4,Win32,60.0240096,66697feac4c3bc98619563af,689ed6d1281858f68c932c05,689f3cb9b9b938f5044de141,,,,,,,,,,,,,54,0,,./stim/wavs/cuban_match_declarative-broad-focus_Maria-bebe-el-vino.wav,,,,,,,,,,,,,,,,,,,,,,325.882,328.097,0,1,1.689,,0,40,40,53,1,0,cuban,,,,,,,,,,,,,,,,,,,,,,,,,,,,,,,,,,,,,,,,,,,,,,,,,,,,,,,,
,,,,,,,,,66697feac4c3bc98619563af,Mexican,13 or older,"no, only English or Spanish",yes,2025-08-15_10h02.35.044,empathy_intonation_perc,2024.2.4,Win32,60.0240096,66697feac4c3bc98619563af,689ed6d1281858f68c932c05,689f3cb9b9b938f5044de141,,,,,,,,,,,,,19,1,,./stim/wavs/puertorican_match_interrogative-total-yn_Ana-lleva-el-abrigo.wav,,,,,,,,,,,,,,,,,,,,,,328.098,330.364,0,0,1.745,,0,41,41,18,1,1,puertorican,,,,,,,,,,,,,,,,,,,,,,,,,,,,,,,,,,,,,,,,,,,,,,,,,,,,,,,,
,,,,,,,,,66697feac4c3bc98619563af,Mexican,13 or older,"no, only English or Spanish",yes,2025-08-15_10h02.35.044,empathy_intonation_perc,2024.2.4,Win32,60.0240096,66697feac4c3bc98619563af,689ed6d1281858f68c932c05,689f3cb9b9b938f5044de141,,,,,,,,,,,,,46,0,,./stim/wavs/castilian_match_declarative-broad-focus_Emilio-ama-la-marcha.wav,,,,,,,,,,,,,,,,,,,,,,330.365,332.713,0,1,1.821,,0,42,42,45,1,0,castilian,,,,,,,,,,,,,,,,,,,,,,,,,,,,,,,,,,,,,,,,,,,,,,,,,,,,,,,,
,,,,,,,,,66697feac4c3bc98619563af,Mexican,13 or older,"no, only English or Spanish",yes,2025-08-15_10h02.35.044,empathy_intonation_perc,2024.2.4,Win32,60.0240096,66697feac4c3bc98619563af,689ed6d1281858f68c932c05,689f3cb9b9b938f5044de141,,,,,,,,,,,,,41,1,,./stim/wavs/puertorican_mismatch_interrogative-total-yn_El-nino-oye-el-rio.wav,,,,,,,,,,,,,,,,,,,,,,332.715,334.83,0,0,1.591,,0,43,43,40,1,1,puertorican,,,,,,,,,,,,,,,,,,,,,,,,,,,,,,,,,,,,,,,,,,,,,,,,,,,,,,,,
,,,,,,,,,66697feac4c3bc98619563af,Mexican,13 or older,"no, only English or Spanish",yes,2025-08-15_10h02.35.044,empathy_intonation_perc,2024.2.4,Win32,60.0240096,66697feac4c3bc98619563af,689ed6d1281858f68c932c05,689f3cb9b9b938f5044de141,,,,,,,,,,,,,35,1,,./stim/wavs/mexican_mismatch_interrogative-total-yn_El-hombre-mira-la-luna.wav,,,,,,,,,,,,,,,,,,,,,,334.831,336.747,1,1,1.412,,0,44,44,34,1,0,mexican,,,,,,,,,,,,,,,,,,,,,,,,,,,,,,,,,,,,,,,,,,,,,,,,,,,,,,,,
,,,,,,,,,66697feac4c3bc98619563af,Mexican,13 or older,"no, only English or Spanish",yes,2025-08-15_10h02.35.044,empathy_intonation_perc,2024.2.4,Win32,60.0240096,66697feac4c3bc98619563af,689ed6d1281858f68c932c05,689f3cb9b9b938f5044de141,,,,,,,,,,,,,27,1,,./stim/wavs/castilian_mismatch_interrogative-total-yn_Mi-madre-come-la-fruta.wav,,,,,,,,,,,,,,,,,,,,,,336.748,338.93,1,1,1.678,,0,45,45,26,1,0,castilian,,,,,,,,,,,,,,,,,,,,,,,,,,,,,,,,,,,,,,,,,,,,,,,,,,,,,,,,
,,,,,,,,,66697feac4c3bc98619563af,Mexican,13 or older,"no, only English or Spanish",yes,2025-08-15_10h02.35.044,empathy_intonation_perc,2024.2.4,Win32,60.0240096,66697feac4c3bc98619563af,689ed6d1281858f68c932c05,689f3cb9b9b938f5044de141,,,,,,,,,,,,,63,0,,./stim/wavs/puertorican_match_declarative-broad-focus_Ana-lleva-el-abrigo.wav,,,,,,,,,,,,,,,,,,,,,,338.931,340.847,0,1,1.386,,0,46,46,62,1,0,puertorican,,,,,,,,,,,,,,,,,,,,,,,,,,,,,,,,,,,,,,,,,,,,,,,,,,,,,,,,
,,,,,,,,,66697feac4c3bc98619563af,Mexican,13 or older,"no, only English or Spanish",yes,2025-08-15_10h02.35.044,empathy_intonation_perc,2024.2.4,Win32,60.0240096,66697feac4c3bc98619563af,689ed6d1281858f68c932c05,689f3cb9b9b938f5044de141,,,,,,,,,,,,,70,0,,./stim/wavs/castilian_mismatch_declarative-broad-focus_La-maestra-vive-en-Paris.wav,,,,,,,,,,,,,,,,,,,,,,340.848,343.763,0,1,2.385,,0,47,47,69,1,0,castilian,,,,,,,,,,,,,,,,,,,,,,,,,,,,,,,,,,,,,,,,,,,,,,,,,,,,,,,,
,,,,,,,,,66697feac4c3bc98619563af,Mexican,13 or older,"no, only English or Spanish",yes,2025-08-15_10h02.35.044,empathy_intonation_perc,2024.2.4,Win32,60.0240096,66697feac4c3bc98619563af,689ed6d1281858f68c932c05,689f3cb9b9b938f5044de141,,,,,,,,,,,,,48,0,,./stim/wavs/castilian_match_declarative-broad-focus_Maria-bebe-el-vino.wav,,,,,,,,,,,,,,,,,,,,,,343.764,345.914,0,1,1.647,,0,48,48,47,1,0,castilian,,,,,,,,,,,,,,,,,,,,,,,,,,,,,,,,,,,,,,,,,,,,,,,,,,,,,,,,
,,,,,,,,,66697feac4c3bc98619563af,Mexican,13 or older,"no, only English or Spanish",yes,2025-08-15_10h02.35.044,empathy_intonation_perc,2024.2.4,Win32,60.0240096,66697feac4c3bc98619563af,689ed6d1281858f68c932c05,689f3cb9b9b938f5044de141,,,,,,,,,,,,,29,1,,./stim/wavs/castilian_mismatch_interrogative-total-yn_Mi-tia-odia-la-lluvia.wav,,,,,,,,,,,,,,,,,,,,,,345.915,348.063,1,1,1.617,,0,49,49,28,1,0,castilian,,,,,,,,,,,,,,,,,,,,,,,,,,,,,,,,,,,,,,,,,,,,,,,,,,,,,,,,
,,,,,,,,,66697feac4c3bc98619563af,Mexican,13 or older,"no, only English or Spanish",yes,2025-08-15_10h02.35.044,empathy_intonation_perc,2024.2.4,Win32,60.0240096,66697feac4c3bc98619563af,689ed6d1281858f68c932c05,689f3cb9b9b938f5044de141,,,,,,,,,,,,,14,1,,./stim/wavs/mexican_match_interrogative-total-yn_Daniel-iba-a-Bolivia.wav,,,,,,,,,,,,,,,,,,,,,,348.063,350.247,1,1,1.675,,0,50,50,13,1,0,mexican,,,,,,,,,,,,,,,,,,,,,,,,,,,,,,,,,,,,,,,,,,,,,,,,,,,,,,,,
,,,,,,,,,66697feac4c3bc98619563af,Mexican,13 or older,"no, only English or Spanish",yes,2025-08-15_10h02.35.044,empathy_intonation_perc,2024.2.4,Win32,60.0240096,66697feac4c3bc98619563af,689ed6d1281858f68c932c05,689f3cb9b9b938f5044de141,,,,,,,,,,,,,65,0,,./stim/wavs/puertorican_match_declarative-broad-focus_David-leia-el-libro.wav,,,,,,,,,,,,,,,,,,,,,,350.25,352.63,0,1,1.859,,0,51,51,64,1,0,puertorican,,,,,,,,,,,,,,,,,,,,,,,,,,,,,,,,,,,,,,,,,,,,,,,,,,,,,,,,
,,,,,,,,,66697feac4c3bc98619563af,Mexican,13 or older,"no, only English or Spanish",yes,2025-08-15_10h02.35.044,empathy_intonation_perc,2024.2.4,Win32,60.0240096,66697feac4c3bc98619563af,689ed6d1281858f68c932c05,689f3cb9b9b938f5044de141,,,,,,,,,,,,,33,1,,./stim/wavs/cuban_mismatch_interrogative-total-yn_Mi-novio-viene-del-lago.wav,,,,,,,,,,,,,,,,,,,,,,352.631,355.563,1,1,2.412,,0,52,52,32,1,1,cuban,,,,,,,,,,,,,,,,,,,,,,,,,,,,,,,,,,,,,,,,,,,,,,,,,,,,,,,,
,,,,,,,,,66697feac4c3bc98619563af,Mexican,13 or older,"no, only English or Spanish",yes,2025-08-15_10h02.35.044,empathy_intonation_perc,2024.2.4,Win32,60.0240096,66697feac4c3bc98619563af,689ed6d1281858f68c932c05,689f3cb9b9b938f5044de141,,,,,,,,,,,,,88,0,,./stim/wavs/puertorican_mismatch_declarative-broad-focus_La-nina-lava-el-plato.wav,,,,,,,,,,,,,,,,,,,,,,355.566,357.73,0,1,1.638,,0,53,53,87,1,0,puertorican,,,,,,,,,,,,,,,,,,,,,,,,,,,,,,,,,,,,,,,,,,,,,,,,,,,,,,,,
,,,,,,,,,66697feac4c3bc98619563af,Mexican,13 or older,"no, only English or Spanish",yes,2025-08-15_10h02.35.044,empathy_intonation_perc,2024.2.4,Win32,60.0240096,66697feac4c3bc98619563af,689ed6d1281858f68c932c05,689f3cb9b9b938f5044de141,,,,,,,,,,,,,52,0,,./stim/wavs/cuban_match_declarative-broad-focus_Daniel-iba-a-Bolivia.wav,,,,,,,,,,,,,,,,,,,,,,357.731,359.929,0,1,1.668,,0,54,54,51,1,0,cuban,,,,,,,,,,,,,,,,,,,,,,,,,,,,,,,,,,,,,,,,,,,,,,,,,,,,,,,,
,,,,,,,,,66697feac4c3bc98619563af,Mexican,13 or older,"no, only English or Spanish",yes,2025-08-15_10h02.35.044,empathy_intonation_perc,2024.2.4,Win32,60.0240096,66697feac4c3bc98619563af,689ed6d1281858f68c932c05,689f3cb9b9b938f5044de141,,,,,,,,,,,,,50,0,,./stim/wavs/castilian_match_declarative-broad-focus_Marta-abre-el-regalo.wav,,,,,,,,,,,,,,,,,,,,,,359.932,362.013,0,1,1.552,,0,55,55,49,1,0,castilian,,,,,,,,,,,,,,,,,,,,,,,,,,,,,,,,,,,,,,,,,,,,,,,,,,,,,,,,
,,,,,,,,,66697feac4c3bc98619563af,Mexican,13 or older,"no, only English or Spanish",yes,2025-08-15_10h02.35.044,empathy_intonation_perc,2024.2.4,Win32,60.0240096,66697feac4c3bc98619563af,689ed6d1281858f68c932c05,689f3cb9b9b938f5044de141,,,,,,,,,,,,,6,1,,./stim/wavs/castilian_match_interrogative-total-yn_Marta-abre-el-regalo.wav,,,,,,,,,,,,,,,,,,,,,,362.015,364.163,1,1,1.62,,0,56,56,5,1,0,castilian,,,,,,,,,,,,,,,,,,,,,,,,,,,,,,,,,,,,,,,,,,,,,,,,,,,,,,,,
,,,,,,,,,66697feac4c3bc98619563af,Mexican,13 or older,"no, only English or Spanish",yes,2025-08-15_10h02.35.044,empathy_intonation_perc,2024.2.4,Win32,60.0240096,66697feac4c3bc98619563af,689ed6d1281858f68c932c05,689f3cb9b9b938f5044de141,,,,,,,,,,,,,12,1,,./stim/wavs/cuban_match_interrogative-total-yn_Marta-abre-el-regalo.wav,,,,,,,,,,,,,,,,,,,,,,364.165,366.296,0,0,1.607,,0,57,57,11,1,1,cuban,,,,,,,,,,,,,,,,,,,,,,,,,,,,,,,,,,,,,,,,,,,,,,,,,,,,,,,,
,,,,,,,,,66697feac4c3bc98619563af,Mexican,13 or older,"no, only English or Spanish",yes,2025-08-15_10h02.35.044,empathy_intonation_perc,2024.2.4,Win32,60.0240096,66697feac4c3bc98619563af,689ed6d1281858f68c932c05,689f3cb9b9b938f5044de141,,,,,,,,,,,,,4,1,,./stim/wavs/castilian_match_interrogative-total-yn_Maria-bebe-el-vino.wav,,,,,,,,,,,,,,,,,,,,,,366.297,368.73,1,1,1.914,,0,58,58,3,1,0,castilian,,,,,,,,,,,,,,,,,,,,,,,,,,,,,,,,,,,,,,,,,,,,,,,,,,,,,,,,
,,,,,,,,,66697feac4c3bc98619563af,Mexican,13 or older,"no, only English or Spanish",yes,2025-08-15_10h02.35.044,empathy_intonation_perc,2024.2.4,Win32,60.0240096,66697feac4c3bc98619563af,689ed6d1281858f68c932c05,689f3cb9b9b938f5044de141,,,,,,,,,,,,,51,0,,./stim/wavs/cuban_match_declarative-broad-focus_Ana-lleva-el-abrigo.wav,,,,,,,,,,,,,,,,,,,,,,368.732,370.83,0,1,1.57,,0,59,59,50,1,0,cuban,,,,,,,,,,,,,,,,,,,,,,,,,,,,,,,,,,,,,,,,,,,,,,,,,,,,,,,,
,,,,,,,,,66697feac4c3bc98619563af,Mexican,13 or older,"no, only English or Spanish",yes,2025-08-15_10h02.35.044,empathy_intonation_perc,2024.2.4,Win32,60.0240096,66697feac4c3bc98619563af,689ed6d1281858f68c932c05,689f3cb9b9b938f5044de141,,,,,,,,,,,,,47,0,,./stim/wavs/castilian_match_declarative-broad-focus_Manuela-vende-el-carro.wav,,,,,,,,,,,,,,,,,,,,,,370.831,373.212,0,1,1.859,,0,60,60,46,1,0,castilian,,,,,,,,,,,,,,,,,,,,,,,,,,,,,,,,,,,,,,,,,,,,,,,,,,,,,,,,
,,,,,,,,,66697feac4c3bc98619563af,Mexican,13 or older,"no, only English or Spanish",yes,2025-08-15_10h02.35.044,empathy_intonation_perc,2024.2.4,Win32,60.0240096,66697feac4c3bc98619563af,689ed6d1281858f68c932c05,689f3cb9b9b938f5044de141,,,,,,,,,,,,,78,0,,./stim/wavs/cuban_mismatch_declarative-broad-focus_Mi-tia-odia-la-lluvia.wav,,,,,,,,,,,,,,,,,,,,,,373.213,375.629,0,1,1.902,,0,61,61,77,1,0,cuban,,,,,,,,,,,,,,,,,,,,,,,,,,,,,,,,,,,,,,,,,,,,,,,,,,,,,,,,
,,,,,,,,,66697feac4c3bc98619563af,Mexican,13 or older,"no, only English or Spanish",yes,2025-08-15_10h02.35.044,empathy_intonation_perc,2024.2.4,Win32,60.0240096,66697feac4c3bc98619563af,689ed6d1281858f68c932c05,689f3cb9b9b938f5044de141,,,,,,,,,,,,,11,1,,./stim/wavs/cuban_match_interrogative-total-yn_Mariano-habla-del-tiempo.wav,,,,,,,,,,,,,,,,,,,,,,375.63,377.58,0,0,1.419,,0,62,62,10,1,1,cuban,,,,,,,,,,,,,,,,,,,,,,,,,,,,,,,,,,,,,,,,,,,,,,,,,,,,,,,,
,,,,,,,,,66697feac4c3bc98619563af,Mexican,13 or older,"no, only English or Spanish",yes,2025-08-15_10h02.35.044,empathy_intonation_perc,2024.2.4,Win32,60.0240096,66697feac4c3bc98619563af,689ed6d1281858f68c932c05,689f3cb9b9b938f5044de141,,,,,,,,,,,,,9,1,,./stim/wavs/cuban_match_interrogative-total-yn_Manuela-vende-el-carro.wav,,,,,,,,,,,,,,,,,,,,,,377.581,379.729,0,0,1.63,,0,63,63,8,1,1,cuban,,,,,,,,,,,,,,,,,,,,,,,,,,,,,,,,,,,,,,,,,,,,,,,,,,,,,,,,
,,,,,,,,,66697feac4c3bc98619563af,Mexican,13 or older,"no, only English or Spanish",yes,2025-08-15_10h02.35.044,empathy_intonation_perc,2024.2.4,Win32,60.0240096,66697feac4c3bc98619563af,689ed6d1281858f68c932c05,689f3cb9b9b938f5044de141,,,,,,,,,,,,,56,0,,./stim/wavs/cuban_match_declarative-broad-focus_Marta-abre-el-regalo.wav,,,,,,,,,,,,,,,,,,,,,,379.731,381.796,0,1,1.543,,0,64,64,55,1,0,cuban,,,,,,,,,,,,,,,,,,,,,,,,,,,,,,,,,,,,,,,,,,,,,,,,,,,,,,,,
,,,,,,,,,66697feac4c3bc98619563af,Mexican,13 or older,"no, only English or Spanish",yes,2025-08-15_10h02.35.044,empathy_intonation_perc,2024.2.4,Win32,60.0240096,66697feac4c3bc98619563af,689ed6d1281858f68c932c05,689f3cb9b9b938f5044de141,,,,,,,,,,,,,5,1,,./stim/wavs/castilian_match_interrogative-total-yn_Mariano-habla-del-tiempo.wav,,,,,,,,,,,,,,,,,,,,,,381.797,383.996,1,1,1.678,,0,65,65,4,1,0,castilian,,,,,,,,,,,,,,,,,,,,,,,,,,,,,,,,,,,,,,,,,,,,,,,,,,,,,,,,
,,,,,,,,,66697feac4c3bc98619563af,Mexican,13 or older,"no, only English or Spanish",yes,2025-08-15_10h02.35.044,empathy_intonation_perc,2024.2.4,Win32,60.0240096,66697feac4c3bc98619563af,689ed6d1281858f68c932c05,689f3cb9b9b938f5044de141,,,,,,,,,,,,,80,0,,./stim/wavs/mexican_mismatch_declarative-broad-focus_El-hombre-mira-la-luna.wav,,,,,,,,,,,,,,,,,,,,,,383.999,385.929,0,1,1.4,,0,66,66,79,1,0,mexican,,,,,,,,,,,,,,,,,,,,,,,,,,,,,,,,,,,,,,,,,,,,,,,,,,,,,,,,
,,,,,,,,,66697feac4c3bc98619563af,Mexican,13 or older,"no, only English or Spanish",yes,2025-08-15_10h02.35.044,empathy_intonation_perc,2024.2.4,Win32,60.0240096,66697feac4c3bc98619563af,689ed6d1281858f68c932c05,689f3cb9b9b938f5044de141,,,,,,,,,,,,,44,1,,./stim/wavs/puertorican_mismatch_interrogative-total-yn_Mi-madre-come-la-fruta.wav,,,,,,,,,,,,,,,,,,,,,,385.93,388.029,0,0,1.568,,0,67,67,43,1,1,puertorican,,,,,,,,,,,,,,,,,,,,,,,,,,,,,,,,,,,,,,,,,,,,,,,,,,,,,,,,
,,,,,,,,,66697feac4c3bc98619563af,Mexican,13 or older,"no, only English or Spanish",yes,2025-08-15_10h02.35.044,empathy_intonation_perc,2024.2.4,Win32,60.0240096,66697feac4c3bc98619563af,689ed6d1281858f68c932c05,689f3cb9b9b938f5044de141,,,,,,,,,,,,,20,1,,./stim/wavs/puertorican_match_interrogative-total-yn_Daniel-iba-a-Bolivia.wav,,,,,,,,,,,,,,,,,,,,,,388.031,389.946,0,0,1.387,,0,68,68,19,1,1,puertorican,,,,,,,,,,,,,,,,,,,,,,,,,,,,,,,,,,,,,,,,,,,,,,,,,,,,,,,,
,,,,,,,,,66697feac4c3bc98619563af,Mexican,13 or older,"no, only English or Spanish",yes,2025-08-15_10h02.35.044,empathy_intonation_perc,2024.2.4,Win32,60.0240096,66697feac4c3bc98619563af,689ed6d1281858f68c932c05,689f3cb9b9b938f5044de141,,,,,,,,,,,,,57,0,,./stim/wavs/mexican_match_declarative-broad-focus_Ana-lleva-el-abrigo.wav,,,,,,,,,,,,,,,,,,,,,,389.947,391.679,0,1,1.207,,0,69,69,56,1,0,mexican,,,,,,,,,,,,,,,,,,,,,,,,,,,,,,,,,,,,,,,,,,,,,,,,,,,,,,,,
,,,,,,,,,66697feac4c3bc98619563af,Mexican,13 or older,"no, only English or Spanish",yes,2025-08-15_10h02.35.044,empathy_intonation_perc,2024.2.4,Win32,60.0240096,66697feac4c3bc98619563af,689ed6d1281858f68c932c05,689f3cb9b9b938f5044de141,,,,,,,,,,,,,13,1,,./stim/wavs/mexican_match_interrogative-total-yn_Ana-lleva-el-abrigo.wav,,,,,,,,,,,,,,,,,,,,,,391.681,393.812,1,1,1.605,,0,70,70,12,1,0,mexican,,,,,,,,,,,,,,,,,,,,,,,,,,,,,,,,,,,,,,,,,,,,,,,,,,,,,,,,
,,,,,,,,,66697feac4c3bc98619563af,Mexican,13 or older,"no, only English or Spanish",yes,2025-08-15_10h02.35.044,empathy_intonation_perc,2024.2.4,Win32,60.0240096,66697feac4c3bc98619563af,689ed6d1281858f68c932c05,689f3cb9b9b938f5044de141,,,,,,,,,,,,,67,0,,./stim/wavs/puertorican_match_declarative-broad-focus_Manuela-vende-el-carro.wav,,,,,,,,,,,,,,,,,,,,,,393.813,396.363,0,1,2.03,,0,71,71,66,1,0,puertorican,,,,,,,,,,,,,,,,,,,,,,,,,,,,,,,,,,,,,,,,,,,,,,,,,,,,,,,,
,,,,,,,,,66697feac4c3bc98619563af,Mexican,13 or older,"no, only English or Spanish",yes,2025-08-15_10h02.35.044,empathy_intonation_perc,2024.2.4,Win32,60.0240096,66697feac4c3bc98619563af,689ed6d1281858f68c932c05,689f3cb9b9b938f5044de141,,,,,,,,,,,,,60,0,,./stim/wavs/mexican_match_declarative-broad-focus_Emilio-ama-la-marcha.wav,,,,,,,,,,,,,,,,,,,,,,396.364,398.678,0,1,1.791,,0,72,72,59,1,0,mexican,,,,,,,,,,,,,,,,,,,,,,,,,,,,,,,,,,,,,,,,,,,,,,,,,,,,,,,,
,,,,,,,,,66697feac4c3bc98619563af,Mexican,13 or older,"no, only English or Spanish",yes,2025-08-15_10h02.35.044,empathy_intonation_perc,2024.2.4,Win32,60.0240096,66697feac4c3bc98619563af,689ed6d1281858f68c932c05,689f3cb9b9b938f5044de141,,,,,,,,,,,,,69,0,,./stim/wavs/castilian_mismatch_declarative-broad-focus_El-nino-oye-el-rio.wav,,,,,,,,,,,,,,,,,,,,,,398.679,401.396,0,1,2.187,,0,73,73,68,1,0,castilian,,,,,,,,,,,,,,,,,,,,,,,,,,,,,,,,,,,,,,,,,,,,,,,,,,,,,,,,
,,,,,,,,,66697feac4c3bc98619563af,Mexican,13 or older,"no, only English or Spanish",yes,2025-08-15_10h02.35.044,empathy_intonation_perc,2024.2.4,Win32,60.0240096,66697feac4c3bc98619563af,689ed6d1281858f68c932c05,689f3cb9b9b938f5044de141,,,,,,,,,,,,,73,0,,./stim/wavs/castilian_mismatch_declarative-broad-focus_Mi-tia-odia-la-lluvia.wav,,,,,,,,,,,,,,,,,,,,,,401.397,404.046,0,1,2.125,,0,74,74,72,1,0,castilian,,,,,,,,,,,,,,,,,,,,,,,,,,,,,,,,,,,,,,,,,,,,,,,,,,,,,,,,
,,,,,,,,,66697feac4c3bc98619563af,Mexican,13 or older,"no, only English or Spanish",yes,2025-08-15_10h02.35.044,empathy_intonation_perc,2024.2.4,Win32,60.0240096,66697feac4c3bc98619563af,689ed6d1281858f68c932c05,689f3cb9b9b938f5044de141,,,,,,,,,,,,,2,1,,./stim/wavs/castilian_match_interrogative-total-yn_Emilio-ama-la-marcha.wav,,,,,,,,,,,,,,,,,,,,,,404.046,406.745,1,1,2.171,,0,75,75,1,1,0,castilian,,,,,,,,,,,,,,,,,,,,,,,,,,,,,,,,,,,,,,,,,,,,,,,,,,,,,,,,
,,,,,,,,,66697feac4c3bc98619563af,Mexican,13 or older,"no, only English or Spanish",yes,2025-08-15_10h02.35.044,empathy_intonation_perc,2024.2.4,Win32,60.0240096,66697feac4c3bc98619563af,689ed6d1281858f68c932c05,689f3cb9b9b938f5044de141,,,,,,,,,,,,,25,1,,./stim/wavs/castilian_mismatch_interrogative-total-yn_La-maestra-vive-en-Paris.wav,,,,,,,,,,,,,,,,,,,,,,406.747,409.846,0,0,2.575,,0,76,76,24,1,0,castilian,,,,,,,,,,,,,,,,,,,,,,,,,,,,,,,,,,,,,,,,,,,,,,,,,,,,,,,,
,,,,,,,,,66697feac4c3bc98619563af,Mexican,13 or older,"no, only English or Spanish",yes,2025-08-15_10h02.35.044,empathy_intonation_perc,2024.2.4,Win32,60.0240096,66697feac4c3bc98619563af,689ed6d1281858f68c932c05,689f3cb9b9b938f5044de141,,,,,,,,,,,,,66,0,,./stim/wavs/puertorican_match_declarative-broad-focus_Emilio-ama-la-marcha.wav,,,,,,,,,,,,,,,,,,,,,,409.846,412.029,0,1,1.661,,0,77,77,65,1,0,puertorican,,,,,,,,,,,,,,,,,,,,,,,,,,,,,,,,,,,,,,,,,,,,,,,,,,,,,,,,
,,,,,,,,,66697feac4c3bc98619563af,Mexican,13 or older,"no, only English or Spanish",yes,2025-08-15_10h02.35.044,empathy_intonation_perc,2024.2.4,Win32,60.0240096,66697feac4c3bc98619563af,689ed6d1281858f68c932c05,689f3cb9b9b938f5044de141,,,,,,,,,,,,,79,0,,./stim/wavs/mexican_mismatch_declarative-broad-focus_El-bebe-comia-muy-bien.wav,,,,,,,,,,,,,,,,,,,,,,412.029,414.296,0,1,1.761,0,0,78,78,78,1,0,mexican,,,,,,,,,,,,,,,,,,,,,,,,,,,,,,,,,,,,,,,,,,,,,,,,,,,,,,,,
,,,,,,,,,66697feac4c3bc98619563af,Mexican,13 or older,"no, only English or Spanish",yes,2025-08-15_10h02.35.044,empathy_intonation_perc,2024.2.4,Win32,60.0240096,66697feac4c3bc98619563af,689ed6d1281858f68c932c05,689f3cb9b9b938f5044de141,,,,,,,,,,,,,26,1,,./stim/wavs/castilian_mismatch_interrogative-total-yn_La-nina-lava-el-plato.wav,,,,,,,,,,,,,,,,,,,,,,414.297,416.495,1,1,1.667,,0,79,79,25,1,0,castilian,,,,,,,,,,,,,,,,,,,,,,,,,,,,,,,,,,,,,,,,,,,,,,,,,,,,,,,,
,,,,,,,,,66697feac4c3bc98619563af,Mexican,13 or older,"no, only English or Spanish",yes,2025-08-15_10h02.35.044,empathy_intonation_perc,2024.2.4,Win32,60.0240096,66697feac4c3bc98619563af,689ed6d1281858f68c932c05,689f3cb9b9b938f5044de141,,,,,,,,,,,,,42,1,,./stim/wavs/puertorican_mismatch_interrogative-total-yn_La-maestra-vive-en-Paris.wav,,,,,,,,,,,,,,,,,,,,,,416.496,419.195,0,0,2.195,,0,80,80,41,1,1,puertorican,,,,,,,,,,,,,,,,,,,,,,,,,,,,,,,,,,,,,,,,,,,,,,,,,,,,,,,,
,,,,,,,,,66697feac4c3bc98619563af,Mexican,13 or older,"no, only English or Spanish",yes,2025-08-15_10h02.35.044,empathy_intonation_perc,2024.2.4,Win32,60.0240096,66697feac4c3bc98619563af,689ed6d1281858f68c932c05,689f3cb9b9b938f5044de141,,,,,,,,,,,,,40,1,,./stim/wavs/puertorican_mismatch_interrogative-total-yn_El-hombre-mira-la-luna.wav,,,,,,,,,,,,,,,,,,,,,,419.198,422.695,0,0,2.973,,0,81,81,39,1,1,puertorican,,,,,,,,,,,,,,,,,,,,,,,,,,,,,,,,,,,,,,,,,,,,,,,,,,,,,,,,
,,,,,,,,,66697feac4c3bc98619563af,Mexican,13 or older,"no, only English or Spanish",yes,2025-08-15_10h02.35.044,empathy_intonation_perc,2024.2.4,Win32,60.0240096,66697feac4c3bc98619563af,689ed6d1281858f68c932c05,689f3cb9b9b938f5044de141,,,,,,,,,,,,,37,1,,./stim/wavs/mexican_mismatch_interrogative-total-yn_La-maestra-vive-en-Paris.wav,,,,,,,,,,,,,,,,,,,,,,422.696,426.829,0,0,3.602,,0,82,82,36,1,0,mexican,,,,,,,,,,,,,,,,,,,,,,,,,,,,,,,,,,,,,,,,,,,,,,,,,,,,,,,,
,,,,,,,,,66697feac4c3bc98619563af,Mexican,13 or older,"no, only English or Spanish",yes,2025-08-15_10h02.35.044,empathy_intonation_perc,2024.2.4,Win32,60.0240096,66697feac4c3bc98619563af,689ed6d1281858f68c932c05,689f3cb9b9b938f5044de141,,,,,,,,,,,,,18,1,,./stim/wavs/mexican_match_interrogative-total-yn_Marta-abre-el-regalo.wav,,,,,,,,,,,,,,,,,,,,,,426.83,432.829,1,1,5.475,,0,83,83,17,1,0,mexican,,,,,,,,,,,,,,,,,,,,,,,,,,,,,,,,,,,,,,,,,,,,,,,,,,,,,,,,
,,,,,,,,,66697feac4c3bc98619563af,Mexican,13 or older,"no, only English or Spanish",yes,2025-08-15_10h02.35.044,empathy_intonation_perc,2024.2.4,Win32,60.0240096,66697feac4c3bc98619563af,689ed6d1281858f68c932c05,689f3cb9b9b938f5044de141,,,,,,,,,,,,,76,0,,./stim/wavs/cuban_mismatch_declarative-broad-focus_La-nina-lava-el-plato.wav,,,,,,,,,,,,,,,,,,,,,,432.829,435.111,0,1,1.75,,0,84,84,75,1,0,cuban,,,,,,,,,,,,,,,,,,,,,,,,,,,,,,,,,,,,,,,,,,,,,,,,,,,,,,,,
,,,,,,,,,66697feac4c3bc98619563af,Mexican,13 or older,"no, only English or Spanish",yes,2025-08-15_10h02.35.044,empathy_intonation_perc,2024.2.4,Win32,60.0240096,66697feac4c3bc98619563af,689ed6d1281858f68c932c05,689f3cb9b9b938f5044de141,,,,,,,,,,,,,34,1,,./stim/wavs/cuban_mismatch_interrogative-total-yn_Mi-tia-odia-la-lluvia.wav,,,,,,,,,,,,,,,,,,,,,,435.113,437.961,0,0,2.323,,0,85,85,33,1,1,cuban,,,,,,,,,,,,,,,,,,,,,,,,,,,,,,,,,,,,,,,,,,,,,,,,,,,,,,,,
,,,,,,,,,66697feac4c3bc98619563af,Mexican,13 or older,"no, only English or Spanish",yes,2025-08-15_10h02.35.044,empathy_intonation_perc,2024.2.4,Win32,60.0240096,66697feac4c3bc98619563af,689ed6d1281858f68c932c05,689f3cb9b9b938f5044de141,,,,,,,,,,,,,7,1,,./stim/wavs/cuban_match_interrogative-total-yn_Ana-lleva-el-abrigo.wav,,,,,,,,,,,,,,,,,,,,,,437.962,439.945,0,0,1.463,,0,86,86,6,1,1,cuban,,,,,,,,,,,,,,,,,,,,,,,,,,,,,,,,,,,,,,,,,,,,,,,,,,,,,,,,
,,,,,,,,,66697feac4c3bc98619563af,Mexican,13 or older,"no, only English or Spanish",yes,2025-08-15_10h02.35.044,empathy_intonation_perc,2024.2.4,Win32,60.0240096,66697feac4c3bc98619563af,689ed6d1281858f68c932c05,689f3cb9b9b938f5044de141,,,,,,,,,,,,,1,1,,./stim/wavs/castilian_match_interrogative-total-yn_David-leia-el-libro.wav,,,,,,,,,,,,,,,,,,,,,,439.947,442.578,1,1,2.104,,0,87,87,0,1,0,castilian,,,,,,,,,,,,,,,,,,,,,,,,,,,,,,,,,,,,,,,,,,,,,,,,,,,,,,,,
,,,,,,,"Great! Now we will move on. The next task consists of about 60 trials, in each of which you will see a string of letters. 
  
  Your task is to decide whether this is a real Spanish word or not.", (press the spacebar to continue),66697feac4c3bc98619563af,Mexican,13 or older,"no, only English or Spanish",yes,2025-08-15_10h02.35.044,empathy_intonation_perc,2024.2.4,Win32,60.0240096,66697feac4c3bc98619563af,689ed6d1281858f68c932c05,689f3cb9b9b938f5044de141,,,,,,,,,,,,,,,,,,,,,,,,,,,,,,,,,,,,,,,,,,,,,,,,,,,442.592,448.246,0,0,0,0,1,,,,,,,,,,,,,,,,,,,,,,,,,,,,,,,,,,,,,,,,,,,,,,,,,
,,,,,,,"If you think it is an existing Spanish word, you type '1' (for 'REAL'), and if you think it is not an existing Spanish word, you type '0' (for 'FAKE').", (press the spacebar to continue),66697feac4c3bc98619563af,Mexican,13 or older,"no, only English or Spanish",yes,2025-08-15_10h02.35.044,empathy_intonation_perc,2024.2.4,Win32,60.0240096,66697feac4c3bc98619563af,689ed6d1281858f68c932c05,689f3cb9b9b938f5044de141,,,,,,,,,,,,,,,,,,,,,,,,,,,,,,,,,,,,,,,,,,,,,,,,,,,448.252,449.928,0,1,1,1,1,,,,,,,,,,,,,,,,,,,,,,,,,,,,,,,,,,,,,,,,,,,,,,,,,
,,,,,,,"If you are sure that the word exists, even though you don’t know its exact meaning, you may still respond '1' (REAL). 
  
  But if you are not sure if it is an existing word, you should respond '0' (FAKE).
  
  Let's do a practice round...", (press the spacebar to continue),66697feac4c3bc98619563af,Mexican,13 or older,"no, only English or Spanish",yes,2025-08-15_10h02.35.044,empathy_intonation_perc,2024.2.4,Win32,60.0240096,66697feac4c3bc98619563af,689ed6d1281858f68c932c05,689f3cb9b9b938f5044de141,,,,,,,,,,,,,,,,,,,,,,,,,,,,,,,,,,,,,,,,,,,,,,,,,,,449.933,451.977,0,2,2,2,1,,,,,,,,,,,,,,,,,,,,,,,,,,,,,,,,,,,,,,,,,,,,,,,,,
,,,,,,,,,66697feac4c3bc98619563af,Mexican,13 or older,"no, only English or Spanish",yes,2025-08-15_10h02.35.044,empathy_intonation_perc,2024.2.4,Win32,60.0240096,66697feac4c3bc98619563af,689ed6d1281858f68c932c05,689f3cb9b9b938f5044de141,,,,,,,,,,,,,,0,,,,,,,,,,,,,,,,,,,,,,,,,,,,,,,,,,,,,,,,,,,,451.993,454.695,0,1,2.166,,454.695,455.695,0,0,0,0,1,0,depiste,REAL,FAKE,,,,,,,,,,,,,,,,,,,,,,,,,,,,,,,,
,,,,,,,,,66697feac4c3bc98619563af,Mexican,13 or older,"no, only English or Spanish",yes,2025-08-15_10h02.35.044,empathy_intonation_perc,2024.2.4,Win32,60.0240096,66697feac4c3bc98619563af,689ed6d1281858f68c932c05,689f3cb9b9b938f5044de141,,,,,,,,,,,,,,1,,,,,,,,,,,,,,,,,,,,,,,,,,,,,,,,,,,,,,,,,,,,455.698,456.944,1,1,0.715,,456.945,457.944,0,1,1,1,1,0,sí,REAL,FAKE,,,,,,,,,,,,,,,,,,,,,,,,,,,,,,,,
,,,,,,,,,66697feac4c3bc98619563af,Mexican,13 or older,"no, only English or Spanish",yes,2025-08-15_10h02.35.044,empathy_intonation_perc,2024.2.4,Win32,60.0240096,66697feac4c3bc98619563af,689ed6d1281858f68c932c05,689f3cb9b9b938f5044de141,,,,,,,,,,,,,,0,,,,,,,,,,,,,,,,,,,,,,,,,,,,,,,,,,,,,,,,,,,,457.946,459.594,1,0,1.124,,459.597,460.594,0,2,2,2,1,0,coné,REAL,FAKE,,,,,,,,,,,,,,,,,,,,,,,,,,,,,,,,
,,,,,,,,,66697feac4c3bc98619563af,Mexican,13 or older,"no, only English or Spanish",yes,2025-08-15_10h02.35.044,empathy_intonation_perc,2024.2.4,Win32,60.0240096,66697feac4c3bc98619563af,689ed6d1281858f68c932c05,689f3cb9b9b938f5044de141,,,,,,,,,,,,,,0,,,,,,,,,,,,,,,,,,,,,,,,,,,,,,,,,,,,,,,,,,,,460.595,462.061,0,1,0.945,,462.061,463.062,0,3,3,3,1,0,calpar,REAL,FAKE,,,,,,,,,,,,,,,,,,,,,,,,,,,,,,,,
,,,,,,,,,66697feac4c3bc98619563af,Mexican,13 or older,"no, only English or Spanish",yes,2025-08-15_10h02.35.044,empathy_intonation_perc,2024.2.4,Win32,60.0240096,66697feac4c3bc98619563af,689ed6d1281858f68c932c05,689f3cb9b9b938f5044de141,,,,,,,,,,,,,,0,,,,,,,,,,,,,,,,,,,,,,,,,,,,,,,,,,,,,,,,,,,,463.063,464.811,1,0,1.209,,464.812,465.81,0,4,4,4,1,0,joten,REAL,FAKE,,,,,,,,,,,,,,,,,,,,,,,,,,,,,,,,
,,,,,,,,,66697feac4c3bc98619563af,Mexican,13 or older,"no, only English or Spanish",yes,2025-08-15_10h02.35.044,empathy_intonation_perc,2024.2.4,Win32,60.0240096,66697feac4c3bc98619563af,689ed6d1281858f68c932c05,689f3cb9b9b938f5044de141,,,,,,,,,,,,,,1,,,,,,,,,,,,,,,,,,,,,,,,,,,,,,,,,,,,,,,,,,,,465.812,467.127,1,1,0.775,,467.128,468.128,0,5,5,5,1,0,sacapuntas,REAL,FAKE,,,,,,,,,,,,,,,,,,,,,,,,,,,,,,,,
,,,,,,,,,66697feac4c3bc98619563af,Mexican,13 or older,"no, only English or Spanish",yes,2025-08-15_10h02.35.044,empathy_intonation_perc,2024.2.4,Win32,60.0240096,66697feac4c3bc98619563af,689ed6d1281858f68c932c05,689f3cb9b9b938f5044de141,,,,,,,,,,,,,,0,,,,,,,,,,,,,,,,,,,,,,,,,,,,,,,,,,,,,,,,,,,,468.129,469.494,1,0,0.818,,469.494,470.494,0,6,6,6,1,0,priba,REAL,FAKE,,,,,,,,,,,,,,,,,,,,,,,,,,,,,,,,
,,,,,,,,,66697feac4c3bc98619563af,Mexican,13 or older,"no, only English or Spanish",yes,2025-08-15_10h02.35.044,empathy_intonation_perc,2024.2.4,Win32,60.0240096,66697feac4c3bc98619563af,689ed6d1281858f68c932c05,689f3cb9b9b938f5044de141,,,,,,,,,,,,,,0,,,,,,,,,,,,,,,,,,,,,,,,,,,,,,,,,,,,,,,,,,,,470.495,471.811,1,0,0.782,,471.811,472.811,0,7,7,7,1,0,pelasula,REAL,FAKE,,,,,,,,,,,,,,,,,,,,,,,,,,,,,,,,
,,,,,,,,,66697feac4c3bc98619563af,Mexican,13 or older,"no, only English or Spanish",yes,2025-08-15_10h02.35.044,empathy_intonation_perc,2024.2.4,Win32,60.0240096,66697feac4c3bc98619563af,689ed6d1281858f68c932c05,689f3cb9b9b938f5044de141,,,,,,,,,,,,,,1,,,,,,,,,,,,,,,,,,,,,,,,,,,,,,,,,,,,,,,,,,,,472.811,473.994,1,1,0.652,,473.995,474.994,0,8,8,8,1,0,bien,REAL,FAKE,,,,,,,,,,,,,,,,,,,,,,,,,,,,,,,,
,,,,,,,,,66697feac4c3bc98619563af,Mexican,13 or older,"no, only English or Spanish",yes,2025-08-15_10h02.35.044,empathy_intonation_perc,2024.2.4,Win32,60.0240096,66697feac4c3bc98619563af,689ed6d1281858f68c932c05,689f3cb9b9b938f5044de141,,,,,,,,,,,,,,1,,,,,,,,,,,,,,,,,,,,,,,,,,,,,,,,,,,,,,,,,,,,474.995,476.344,1,1,0.811,,476.344,477.343,0,9,9,9,1,0,casa,REAL,FAKE,,,,,,,,,,,,,,,,,,,,,,,,,,,,,,,,
,,,,,,,,,66697feac4c3bc98619563af,Mexican,13 or older,"no, only English or Spanish",yes,2025-08-15_10h02.35.044,empathy_intonation_perc,2024.2.4,Win32,60.0240096,66697feac4c3bc98619563af,689ed6d1281858f68c932c05,689f3cb9b9b938f5044de141,,,,,,,,,,,,,,0,,,,,,,,,,,,,,,,,,,,,,,,,,,,,,,,,,,,,,,,,,,,477.346,478.444,1,0,0.554,,478.445,479.443,0,10,10,10,1,0,lejo,REAL,FAKE,,,,,,,,,,,,,,,,,,,,,,,,,,,,,,,,
,,,,,,,,,66697feac4c3bc98619563af,Mexican,13 or older,"no, only English or Spanish",yes,2025-08-15_10h02.35.044,empathy_intonation_perc,2024.2.4,Win32,60.0240096,66697feac4c3bc98619563af,689ed6d1281858f68c932c05,689f3cb9b9b938f5044de141,,,,,,,,,,,,,,0,,,,,,,,,,,,,,,,,,,,,,,,,,,,,,,,,,,,,,,,,,,,479.444,480.661,1,0,0.667,,480.661,481.66,0,11,11,11,1,0,pretantas,REAL,FAKE,,,,,,,,,,,,,,,,,,,,,,,,,,,,,,,,
,,,,,,,,,66697feac4c3bc98619563af,Mexican,13 or older,"no, only English or Spanish",yes,2025-08-15_10h02.35.044,empathy_intonation_perc,2024.2.4,Win32,60.0240096,66697feac4c3bc98619563af,689ed6d1281858f68c932c05,689f3cb9b9b938f5044de141,,,,,,,,,,,,,,,,,,,,,,,,,,,,,,,,,,,,,,,,,,,,,,,,,,,,,,,,,,,,,,,,,,,,,,,,,,,481.66,482.644,,,,,,,,,,,,,,,,,,,,,,,,,,,,,,
,,,,,,,,,66697feac4c3bc98619563af,Mexican,13 or older,"no, only English or Spanish",yes,2025-08-15_10h02.35.044,empathy_intonation_perc,2024.2.4,Win32,60.0240096,66697feac4c3bc98619563af,689ed6d1281858f68c932c05,689f3cb9b9b938f5044de141,,,,,,,,,,,,,,0,,,,,,,,,,,,,,,,,,,,,,,,,,,,,,,,,,,,,,,,,,,,,,,,,,,,,,,,,19,brecedad,,,,,482.669,484.36,0,1,1.162,,0,0,0,18,1,REAL,FAKE,,,,,,,,,,,,,,,,,
,,,,,,,,,66697feac4c3bc98619563af,Mexican,13 or older,"no, only English or Spanish",yes,2025-08-15_10h02.35.044,empathy_intonation_perc,2024.2.4,Win32,60.0240096,66697feac4c3bc98619563af,689ed6d1281858f68c932c05,689f3cb9b9b938f5044de141,,,,,,,,,,,,,,1,,,,,,,,,,,,,,,,,,,,,,,,,,,,,,,,,,,,,,,,,,,,,,,,,,,,,,,,,71,polvoriento,,,,,484.363,487.344,1,1,2.442,,0,1,1,70,1,REAL,FAKE,,,,,,,,,,,,,,,,,
,,,,,,,,,66697feac4c3bc98619563af,Mexican,13 or older,"no, only English or Spanish",yes,2025-08-15_10h02.35.044,empathy_intonation_perc,2024.2.4,Win32,60.0240096,66697feac4c3bc98619563af,689ed6d1281858f68c932c05,689f3cb9b9b938f5044de141,,,,,,,,,,,,,,0,,,,,,,,,,,,,,,,,,,,,,,,,,,,,,,,,,,,,,,,,,,,,,,,,,,,,,,,,27,acutación,,,,,487.345,490.894,1,0,3.017,,0,2,2,26,1,REAL,FAKE,,,,,,,,,,,,,,,,,
,,,,,,,,,66697feac4c3bc98619563af,Mexican,13 or older,"no, only English or Spanish",yes,2025-08-15_10h02.35.044,empathy_intonation_perc,2024.2.4,Win32,60.0240096,66697feac4c3bc98619563af,689ed6d1281858f68c932c05,689f3cb9b9b938f5044de141,,,,,,,,,,,,,,1,,,,,,,,,,,,,,,,,,,,,,,,,,,,,,,,,,,,,,,,,,,,,,,,,,,,,,,,,78,frondoso,,,,,490.895,492.376,1,1,0.93,,0,3,3,77,1,REAL,FAKE,,,,,,,,,,,,,,,,,
,,,,,,,,,66697feac4c3bc98619563af,Mexican,13 or older,"no, only English or Spanish",yes,2025-08-15_10h02.35.044,empathy_intonation_perc,2024.2.4,Win32,60.0240096,66697feac4c3bc98619563af,689ed6d1281858f68c932c05,689f3cb9b9b938f5044de141,,,,,,,,,,,,,,1,,,,,,,,,,,,,,,,,,,,,,,,,,,,,,,,,,,,,,,,,,,,,,,,,,,,,,,,,89,prisa,,,,,492.378,493.527,1,1,0.635,,0,4,4,88,1,REAL,FAKE,,,,,,,,,,,,,,,,,
,,,,,,,,,66697feac4c3bc98619563af,Mexican,13 or older,"no, only English or Spanish",yes,2025-08-15_10h02.35.044,empathy_intonation_perc,2024.2.4,Win32,60.0240096,66697feac4c3bc98619563af,689ed6d1281858f68c932c05,689f3cb9b9b938f5044de141,,,,,,,,,,,,,,1,,,,,,,,,,,,,,,,,,,,,,,,,,,,,,,,,,,,,,,,,,,,,,,,,,,,,,,,,38,estornudar,,,,,493.528,495.276,1,1,1.2,,0,5,5,37,1,REAL,FAKE,,,,,,,,,,,,,,,,,
,,,,,,,,,66697feac4c3bc98619563af,Mexican,13 or older,"no, only English or Spanish",yes,2025-08-15_10h02.35.044,empathy_intonation_perc,2024.2.4,Win32,60.0240096,66697feac4c3bc98619563af,689ed6d1281858f68c932c05,689f3cb9b9b938f5044de141,,,,,,,,,,,,,,0,,,,,,,,,,,,,,,,,,,,,,,,,,,,,,,,,,,,,,,,,,,,,,,,,,,,,,,,,17,floroso,,,,,495.277,496.793,1,0,0.983,,0,6,6,16,1,REAL,FAKE,,,,,,,,,,,,,,,,,
,,,,,,,,,66697feac4c3bc98619563af,Mexican,13 or older,"no, only English or Spanish",yes,2025-08-15_10h02.35.044,empathy_intonation_perc,2024.2.4,Win32,60.0240096,66697feac4c3bc98619563af,689ed6d1281858f68c932c05,689f3cb9b9b938f5044de141,,,,,,,,,,,,,,0,,,,,,,,,,,,,,,,,,,,,,,,,,,,,,,,,,,,,,,,,,,,,,,,,,,,,,,,,30,alardio,,,,,496.795,498.126,1,0,0.792,,0,7,7,29,1,REAL,FAKE,,,,,,,,,,,,,,,,,
,,,,,,,,,66697feac4c3bc98619563af,Mexican,13 or older,"no, only English or Spanish",yes,2025-08-15_10h02.35.044,empathy_intonation_perc,2024.2.4,Win32,60.0240096,66697feac4c3bc98619563af,689ed6d1281858f68c932c05,689f3cb9b9b938f5044de141,,,,,,,,,,,,,,0,,,,,,,,,,,,,,,,,,,,,,,,,,,,,,,,,,,,,,,,,,,,,,,,,,,,,,,,,32,fatacidad,,,,,498.128,500.176,1,0,1.524,,0,8,8,31,1,REAL,FAKE,,,,,,,,,,,,,,,,,
,,,,,,,,,66697feac4c3bc98619563af,Mexican,13 or older,"no, only English or Spanish",yes,2025-08-15_10h02.35.044,empathy_intonation_perc,2024.2.4,Win32,60.0240096,66697feac4c3bc98619563af,689ed6d1281858f68c932c05,689f3cb9b9b938f5044de141,,,,,,,,,,,,,,1,,,,,,,,,,,,,,,,,,,,,,,,,,,,,,,,,,,,,,,,,,,,,,,,,,,,,,,,,5,zapato,,,,,500.177,501.46,1,1,0.767,,0,9,9,4,1,REAL,FAKE,,,,,,,,,,,,,,,,,
,,,,,,,,,66697feac4c3bc98619563af,Mexican,13 or older,"no, only English or Spanish",yes,2025-08-15_10h02.35.044,empathy_intonation_perc,2024.2.4,Win32,60.0240096,66697feac4c3bc98619563af,689ed6d1281858f68c932c05,689f3cb9b9b938f5044de141,,,,,,,,,,,,,,0,,,,,,,,,,,,,,,,,,,,,,,,,,,,,,,,,,,,,,,,,,,,,,,,,,,,,,,,,42,cadallo,,,,,501.463,502.926,1,0,0.933,,0,10,10,41,1,REAL,FAKE,,,,,,,,,,,,,,,,,
,,,,,,,,,66697feac4c3bc98619563af,Mexican,13 or older,"no, only English or Spanish",yes,2025-08-15_10h02.35.044,empathy_intonation_perc,2024.2.4,Win32,60.0240096,66697feac4c3bc98619563af,689ed6d1281858f68c932c05,689f3cb9b9b938f5044de141,,,,,,,,,,,,,,0,,,,,,,,,,,,,,,,,,,,,,,,,,,,,,,,,,,,,,,,,,,,,,,,,,,,,,,,,21,capillo,,,,,502.928,504.093,1,0,0.632,,0,11,11,20,1,REAL,FAKE,,,,,,,,,,,,,,,,,
,,,,,,,,,66697feac4c3bc98619563af,Mexican,13 or older,"no, only English or Spanish",yes,2025-08-15_10h02.35.044,empathy_intonation_perc,2024.2.4,Win32,60.0240096,66697feac4c3bc98619563af,689ed6d1281858f68c932c05,689f3cb9b9b938f5044de141,,,,,,,,,,,,,,1,,,,,,,,,,,,,,,,,,,,,,,,,,,,,,,,,,,,,,,,,,,,,,,,,,,,,,,,,34,aviso,,,,,504.094,506.793,1,1,2.179,,0,12,12,33,1,REAL,FAKE,,,,,,,,,,,,,,,,,
,,,,,,,,,66697feac4c3bc98619563af,Mexican,13 or older,"no, only English or Spanish",yes,2025-08-15_10h02.35.044,empathy_intonation_perc,2024.2.4,Win32,60.0240096,66697feac4c3bc98619563af,689ed6d1281858f68c932c05,689f3cb9b9b938f5044de141,,,,,,,,,,,,,,0,,,,,,,,,,,,,,,,,,,,,,,,,,,,,,,,,,,,,,,,,,,,,,,,,,,,,,,,,29,decar,,,,,506.794,508.176,0,1,0.84,,0,13,13,28,1,REAL,FAKE,,,,,,,,,,,,,,,,,
,,,,,,,,,66697feac4c3bc98619563af,Mexican,13 or older,"no, only English or Spanish",yes,2025-08-15_10h02.35.044,empathy_intonation_perc,2024.2.4,Win32,60.0240096,66697feac4c3bc98619563af,689ed6d1281858f68c932c05,689f3cb9b9b938f5044de141,,,,,,,,,,,,,,0,,,,,,,,,,,,,,,,,,,,,,,,,,,,,,,,,,,,,,,,,,,,,,,,,,,,,,,,,4,batillón,,,,,508.177,509.927,1,0,1.226,,0,14,14,3,1,REAL,FAKE,,,,,,,,,,,,,,,,,
,,,,,,,,,66697feac4c3bc98619563af,Mexican,13 or older,"no, only English or Spanish",yes,2025-08-15_10h02.35.044,empathy_intonation_perc,2024.2.4,Win32,60.0240096,66697feac4c3bc98619563af,689ed6d1281858f68c932c05,689f3cb9b9b938f5044de141,,,,,,,,,,,,,,0,,,,,,,,,,,,,,,,,,,,,,,,,,,,,,,,,,,,,,,,,,,,,,,,,,,,,,,,,58,plaudir,,,,,509.929,511.142,1,0,0.674,,0,15,15,57,1,REAL,FAKE,,,,,,,,,,,,,,,,,
,,,,,,,,,66697feac4c3bc98619563af,Mexican,13 or older,"no, only English or Spanish",yes,2025-08-15_10h02.35.044,empathy_intonation_perc,2024.2.4,Win32,60.0240096,66697feac4c3bc98619563af,689ed6d1281858f68c932c05,689f3cb9b9b938f5044de141,,,,,,,,,,,,,,0,,,,,,,,,,,,,,,,,,,,,,,,,,,,,,,,,,,,,,,,,,,,,,,,,,,,,,,,,66,hacido,,,,,511.143,512.342,1,0,0.673,,0,16,16,65,1,REAL,FAKE,,,,,,,,,,,,,,,,,
,,,,,,,,,66697feac4c3bc98619563af,Mexican,13 or older,"no, only English or Spanish",yes,2025-08-15_10h02.35.044,empathy_intonation_perc,2024.2.4,Win32,60.0240096,66697feac4c3bc98619563af,689ed6d1281858f68c932c05,689f3cb9b9b938f5044de141,,,,,,,,,,,,,,0,,,,,,,,,,,,,,,,,,,,,,,,,,,,,,,,,,,,,,,,,,,,,,,,,,,,,,,,,50,flamida,,,,,512.343,513.794,1,0,0.92,,0,17,17,49,1,REAL,FAKE,,,,,,,,,,,,,,,,,
,,,,,,,,,66697feac4c3bc98619563af,Mexican,13 or older,"no, only English or Spanish",yes,2025-08-15_10h02.35.044,empathy_intonation_perc,2024.2.4,Win32,60.0240096,66697feac4c3bc98619563af,689ed6d1281858f68c932c05,689f3cb9b9b938f5044de141,,,,,,,,,,,,,,1,,,,,,,,,,,,,,,,,,,,,,,,,,,,,,,,,,,,,,,,,,,,,,,,,,,,,,,,,81,pozo,,,,,513.798,516.193,0,0,1.868,,0,18,18,80,1,REAL,FAKE,,,,,,,,,,,,,,,,,
,,,,,,,,,66697feac4c3bc98619563af,Mexican,13 or older,"no, only English or Spanish",yes,2025-08-15_10h02.35.044,empathy_intonation_perc,2024.2.4,Win32,60.0240096,66697feac4c3bc98619563af,689ed6d1281858f68c932c05,689f3cb9b9b938f5044de141,,,,,,,,,,,,,,0,,,,,,,,,,,,,,,,,,,,,,,,,,,,,,,,,,,,,,,,,,,,,,,,,,,,,,,,,79,tropaje,,,,,516.194,519.026,0,1,2.294,,0,19,19,78,1,REAL,FAKE,,,,,,,,,,,,,,,,,
,,,,,,,,,66697feac4c3bc98619563af,Mexican,13 or older,"no, only English or Spanish",yes,2025-08-15_10h02.35.044,empathy_intonation_perc,2024.2.4,Win32,60.0240096,66697feac4c3bc98619563af,689ed6d1281858f68c932c05,689f3cb9b9b938f5044de141,,,,,,,,,,,,,,1,,,,,,,,,,,,,,,,,,,,,,,,,,,,,,,,,,,,,,,,,,,,,,,,,,,,,,,,,88,acantilado,,,,,519.029,521.06,0,0,1.483,,0,20,20,87,1,REAL,FAKE,,,,,,,,,,,,,,,,,
,,,,,,,,,66697feac4c3bc98619563af,Mexican,13 or older,"no, only English or Spanish",yes,2025-08-15_10h02.35.044,empathy_intonation_perc,2024.2.4,Win32,60.0240096,66697feac4c3bc98619563af,689ed6d1281858f68c932c05,689f3cb9b9b938f5044de141,,,,,,,,,,,,,,1,,,,,,,,,,,,,,,,,,,,,,,,,,,,,,,,,,,,,,,,,,,,,,,,,,,,,,,,,24,látigo,,,,,521.062,522.842,1,1,1.246,,0,21,21,23,1,REAL,FAKE,,,,,,,,,,,,,,,,,
,,,,,,,,,66697feac4c3bc98619563af,Mexican,13 or older,"no, only English or Spanish",yes,2025-08-15_10h02.35.044,empathy_intonation_perc,2024.2.4,Win32,60.0240096,66697feac4c3bc98619563af,689ed6d1281858f68c932c05,689f3cb9b9b938f5044de141,,,,,,,,,,,,,,1,,,,,,,,,,,,,,,,,,,,,,,,,,,,,,,,,,,,,,,,,,,,,,,,,,,,,,,,,22,lacayo,,,,,522.844,524.893,0,0,1.516,,0,22,22,21,1,REAL,FAKE,,,,,,,,,,,,,,,,,
,,,,,,,,,66697feac4c3bc98619563af,Mexican,13 or older,"no, only English or Spanish",yes,2025-08-15_10h02.35.044,empathy_intonation_perc,2024.2.4,Win32,60.0240096,66697feac4c3bc98619563af,689ed6d1281858f68c932c05,689f3cb9b9b938f5044de141,,,,,,,,,,,,,,1,,,,,,,,,,,,,,,,,,,,,,,,,,,,,,,,,,,,,,,,,,,,,,,,,,,,,,,,,45,jilguero,,,,,524.894,528.376,0,0,2.949,,0,23,23,44,1,REAL,FAKE,,,,,,,,,,,,,,,,,
,,,,,,,,,66697feac4c3bc98619563af,Mexican,13 or older,"no, only English or Spanish",yes,2025-08-15_10h02.35.044,empathy_intonation_perc,2024.2.4,Win32,60.0240096,66697feac4c3bc98619563af,689ed6d1281858f68c932c05,689f3cb9b9b938f5044de141,,,,,,,,,,,,,,1,,,,,,,,,,,,,,,,,,,,,,,,,,,,,,,,,,,,,,,,,,,,,,,,,,,,,,,,,48,ladrón,,,,,528.379,530.525,0,0,1.617,,0,24,24,47,1,REAL,FAKE,,,,,,,,,,,,,,,,,
,,,,,,,,,66697feac4c3bc98619563af,Mexican,13 or older,"no, only English or Spanish",yes,2025-08-15_10h02.35.044,empathy_intonation_perc,2024.2.4,Win32,60.0240096,66697feac4c3bc98619563af,689ed6d1281858f68c932c05,689f3cb9b9b938f5044de141,,,,,,,,,,,,,,1,,,,,,,,,,,,,,,,,,,,,,,,,,,,,,,,,,,,,,,,,,,,,,,,,,,,,,,,,91,click the 1 key.,,,,,530.527,531.992,1,1,0.936,,0,25,25,90,1,REAL,FAKE,,,,,,,,,,,,,,,,,
,,,,,,,,,66697feac4c3bc98619563af,Mexican,13 or older,"no, only English or Spanish",yes,2025-08-15_10h02.35.044,empathy_intonation_perc,2024.2.4,Win32,60.0240096,66697feac4c3bc98619563af,689ed6d1281858f68c932c05,689f3cb9b9b938f5044de141,,,,,,,,,,,,,,0,,,,,,,,,,,,,,,,,,,,,,,,,,,,,,,,,,,,,,,,,,,,,,,,,,,,,,,,,35,rompido,,,,,531.993,537.759,1,0,5.238,,0,26,26,34,1,REAL,FAKE,,,,,,,,,,,,,,,,,
,,,,,,,,,66697feac4c3bc98619563af,Mexican,13 or older,"no, only English or Spanish",yes,2025-08-15_10h02.35.044,empathy_intonation_perc,2024.2.4,Win32,60.0240096,66697feac4c3bc98619563af,689ed6d1281858f68c932c05,689f3cb9b9b938f5044de141,,,,,,,,,,,,,,1,,,,,,,,,,,,,,,,,,,,,,,,,,,,,,,,,,,,,,,,,,,,,,,,,,,,,,,,,52,camisa,,,,,537.76,539.275,1,1,0.992,,0,27,27,51,1,REAL,FAKE,,,,,,,,,,,,,,,,,
,,,,,,,,,66697feac4c3bc98619563af,Mexican,13 or older,"no, only English or Spanish",yes,2025-08-15_10h02.35.044,empathy_intonation_perc,2024.2.4,Win32,60.0240096,66697feac4c3bc98619563af,689ed6d1281858f68c932c05,689f3cb9b9b938f5044de141,,,,,,,,,,,,,,1,,,,,,,,,,,,,,,,,,,,,,,,,,,,,,,,,,,,,,,,,,,,,,,,,,,,,,,,,54,fomentar,,,,,539.277,540.925,0,0,1.13,,0,28,28,53,1,REAL,FAKE,,,,,,,,,,,,,,,,,
,,,,,,,,,66697feac4c3bc98619563af,Mexican,13 or older,"no, only English or Spanish",yes,2025-08-15_10h02.35.044,empathy_intonation_perc,2024.2.4,Win32,60.0240096,66697feac4c3bc98619563af,689ed6d1281858f68c932c05,689f3cb9b9b938f5044de141,,,,,,,,,,,,,,1,,,,,,,,,,,,,,,,,,,,,,,,,,,,,,,,,,,,,,,,,,,,,,,,,,,,,,,,,37,granuja,,,,,540.927,542.159,1,1,0.702,,0,29,29,36,1,REAL,FAKE,,,,,,,,,,,,,,,,,
,,,,,,,,,66697feac4c3bc98619563af,Mexican,13 or older,"no, only English or Spanish",yes,2025-08-15_10h02.35.044,empathy_intonation_perc,2024.2.4,Win32,60.0240096,66697feac4c3bc98619563af,689ed6d1281858f68c932c05,689f3cb9b9b938f5044de141,,,,,,,,,,,,,,0,,,,,,,,,,,,,,,,,,,,,,,,,,,,,,,,,,,,,,,,,,,,,,,,,,,,,,,,,53,vegada,,,,,542.16,543.592,1,0,0.899,,0,30,30,52,1,REAL,FAKE,,,,,,,,,,,,,,,,,
,,,,,,,,,66697feac4c3bc98619563af,Mexican,13 or older,"no, only English or Spanish",yes,2025-08-15_10h02.35.044,empathy_intonation_perc,2024.2.4,Win32,60.0240096,66697feac4c3bc98619563af,689ed6d1281858f68c932c05,689f3cb9b9b938f5044de141,,,,,,,,,,,,,,1,,,,,,,,,,,,,,,,,,,,,,,,,,,,,,,,,,,,,,,,,,,,,,,,,,,,,,,,,40,alfombra,,,,,543.594,545.393,1,1,1.26,,0,31,31,39,1,REAL,FAKE,,,,,,,,,,,,,,,,,
,,,,,,,,,66697feac4c3bc98619563af,Mexican,13 or older,"no, only English or Spanish",yes,2025-08-15_10h02.35.044,empathy_intonation_perc,2024.2.4,Win32,60.0240096,66697feac4c3bc98619563af,689ed6d1281858f68c932c05,689f3cb9b9b938f5044de141,,,,,,,,,,,,,,1,,,,,,,,,,,,,,,,,,,,,,,,,,,,,,,,,,,,,,,,,,,,,,,,,,,,,,,,,75,yacer,,,,,545.394,547.793,1,1,1.851,,0,32,32,74,1,REAL,FAKE,,,,,,,,,,,,,,,,,
,,,,,,,,,66697feac4c3bc98619563af,Mexican,13 or older,"no, only English or Spanish",yes,2025-08-15_10h02.35.044,empathy_intonation_perc,2024.2.4,Win32,60.0240096,66697feac4c3bc98619563af,689ed6d1281858f68c932c05,689f3cb9b9b938f5044de141,,,,,,,,,,,,,,1,,,,,,,,,,,,,,,,,,,,,,,,,,,,,,,,,,,,,,,,,,,,,,,,,,,,,,,,,49,ganar,,,,,547.798,549.359,1,1,1.016,,0,33,33,48,1,REAL,FAKE,,,,,,,,,,,,,,,,,
,,,,,,,,,66697feac4c3bc98619563af,Mexican,13 or older,"no, only English or Spanish",yes,2025-08-15_10h02.35.044,empathy_intonation_perc,2024.2.4,Win32,60.0240096,66697feac4c3bc98619563af,689ed6d1281858f68c932c05,689f3cb9b9b938f5044de141,,,,,,,,,,,,,,1,,,,,,,,,,,,,,,,,,,,,,,,,,,,,,,,,,,,,,,,,,,,,,,,,,,,,,,,,43,canela,,,,,549.361,550.858,1,1,0.971,,0,34,34,42,1,REAL,FAKE,,,,,,,,,,,,,,,,,
,,,,,,,,,66697feac4c3bc98619563af,Mexican,13 or older,"no, only English or Spanish",yes,2025-08-15_10h02.35.044,empathy_intonation_perc,2024.2.4,Win32,60.0240096,66697feac4c3bc98619563af,689ed6d1281858f68c932c05,689f3cb9b9b938f5044de141,,,,,,,,,,,,,,1,,,,,,,,,,,,,,,,,,,,,,,,,,,,,,,,,,,,,,,,,,,,,,,,,,,,,,,,,73,hervidor,,,,,550.86,553.325,0,0,1.934,,0,35,35,72,1,REAL,FAKE,,,,,,,,,,,,,,,,,
,,,,,,,,,66697feac4c3bc98619563af,Mexican,13 or older,"no, only English or Spanish",yes,2025-08-15_10h02.35.044,empathy_intonation_perc,2024.2.4,Win32,60.0240096,66697feac4c3bc98619563af,689ed6d1281858f68c932c05,689f3cb9b9b938f5044de141,,,,,,,,,,,,,,1,,,,,,,,,,,,,,,,,,,,,,,,,,,,,,,,,,,,,,,,,,,,,,,,,,,,,,,,,41,rebuscar,,,,,553.328,555.275,1,1,1.413,,0,36,36,40,1,REAL,FAKE,,,,,,,,,,,,,,,,,
,,,,,,,,,66697feac4c3bc98619563af,Mexican,13 or older,"no, only English or Spanish",yes,2025-08-15_10h02.35.044,empathy_intonation_perc,2024.2.4,Win32,60.0240096,66697feac4c3bc98619563af,689ed6d1281858f68c932c05,689f3cb9b9b938f5044de141,,,,,,,,,,,,,,1,,,,,,,,,,,,,,,,,,,,,,,,,,,,,,,,,,,,,,,,,,,,,,,,,,,,,,,,,83,guante,,,,,555.277,556.608,1,1,0.794,,0,37,37,82,1,REAL,FAKE,,,,,,,,,,,,,,,,,
,,,,,,,,,66697feac4c3bc98619563af,Mexican,13 or older,"no, only English or Spanish",yes,2025-08-15_10h02.35.044,empathy_intonation_perc,2024.2.4,Win32,60.0240096,66697feac4c3bc98619563af,689ed6d1281858f68c932c05,689f3cb9b9b938f5044de141,,,,,,,,,,,,,,1,,,,,,,,,,,,,,,,,,,,,,,,,,,,,,,,,,,,,,,,,,,,,,,,,,,,,,,,,36,loro,,,,,556.611,557.791,1,1,0.644,,0,38,38,35,1,REAL,FAKE,,,,,,,,,,,,,,,,,
,,,,,,,,,66697feac4c3bc98619563af,Mexican,13 or older,"no, only English or Spanish",yes,2025-08-15_10h02.35.044,empathy_intonation_perc,2024.2.4,Win32,60.0240096,66697feac4c3bc98619563af,689ed6d1281858f68c932c05,689f3cb9b9b938f5044de141,,,,,,,,,,,,,,0,,,,,,,,,,,,,,,,,,,,,,,,,,,,,,,,,,,,,,,,,,,,,,,,,,,,,,,,,23,lampera,,,,,557.792,559.242,1,0,0.916,,0,39,39,22,1,REAL,FAKE,,,,,,,,,,,,,,,,,
,,,,,,,,,66697feac4c3bc98619563af,Mexican,13 or older,"no, only English or Spanish",yes,2025-08-15_10h02.35.044,empathy_intonation_perc,2024.2.4,Win32,60.0240096,66697feac4c3bc98619563af,689ed6d1281858f68c932c05,689f3cb9b9b938f5044de141,,,,,,,,,,,,,,0,,,,,,,,,,,,,,,,,,,,,,,,,,,,,,,,,,,,,,,,,,,,,,,,,,,,,,,,,63,esposante,,,,,559.243,560.892,1,0,1.123,,0,40,40,62,1,REAL,FAKE,,,,,,,,,,,,,,,,,
,,,,,,,,,66697feac4c3bc98619563af,Mexican,13 or older,"no, only English or Spanish",yes,2025-08-15_10h02.35.044,empathy_intonation_perc,2024.2.4,Win32,60.0240096,66697feac4c3bc98619563af,689ed6d1281858f68c932c05,689f3cb9b9b938f5044de141,,,,,,,,,,,,,,1,,,,,,,,,,,,,,,,,,,,,,,,,,,,,,,,,,,,,,,,,,,,,,,,,,,,,,,,,6,tergiversar,,,,,560.893,562.992,0,0,1.567,,0,41,41,5,1,REAL,FAKE,,,,,,,,,,,,,,,,,
,,,,,,,,,66697feac4c3bc98619563af,Mexican,13 or older,"no, only English or Spanish",yes,2025-08-15_10h02.35.044,empathy_intonation_perc,2024.2.4,Win32,60.0240096,66697feac4c3bc98619563af,689ed6d1281858f68c932c05,689f3cb9b9b938f5044de141,,,,,,,,,,,,,,1,,,,,,,,,,,,,,,,,,,,,,,,,,,,,,,,,,,,,,,,,,,,,,,,,,,,,,,,,86,barato,,,,,562.993,564.541,1,1,1.033,,0,42,42,85,1,REAL,FAKE,,,,,,,,,,,,,,,,,
,,,,,,,,,66697feac4c3bc98619563af,Mexican,13 or older,"no, only English or Spanish",yes,2025-08-15_10h02.35.044,empathy_intonation_perc,2024.2.4,Win32,60.0240096,66697feac4c3bc98619563af,689ed6d1281858f68c932c05,689f3cb9b9b938f5044de141,,,,,,,,,,,,,,1,,,,,,,,,,,,,,,,,,,,,,,,,,,,,,,,,,,,,,,,,,,,,,,,,,,,,,,,,56,musgo,,,,,564.542,565.992,0,0,0.934,,0,43,43,55,1,REAL,FAKE,,,,,,,,,,,,,,,,,
,,,,,,,,,66697feac4c3bc98619563af,Mexican,13 or older,"no, only English or Spanish",yes,2025-08-15_10h02.35.044,empathy_intonation_perc,2024.2.4,Win32,60.0240096,66697feac4c3bc98619563af,689ed6d1281858f68c932c05,689f3cb9b9b938f5044de141,,,,,,,,,,,,,,1,,,,,,,,,,,,,,,,,,,,,,,,,,,,,,,,,,,,,,,,,,,,,,,,,,,,,,,,,28,merodear,,,,,565.994,567.992,0,0,1.465,,0,44,44,27,1,REAL,FAKE,,,,,,,,,,,,,,,,,
,,,,,,,,,66697feac4c3bc98619563af,Mexican,13 or older,"no, only English or Spanish",yes,2025-08-15_10h02.35.044,empathy_intonation_perc,2024.2.4,Win32,60.0240096,66697feac4c3bc98619563af,689ed6d1281858f68c932c05,689f3cb9b9b938f5044de141,,,,,,,,,,,,,,1,,,,,,,,,,,,,,,,,,,,,,,,,,,,,,,,,,,,,,,,,,,,,,,,,,,,,,,,,76,atar,,,,,567.993,569.458,0,0,0.93,,0,45,45,75,1,REAL,FAKE,,,,,,,,,,,,,,,,,
,,,,,,,,,66697feac4c3bc98619563af,Mexican,13 or older,"no, only English or Spanish",yes,2025-08-15_10h02.35.044,empathy_intonation_perc,2024.2.4,Win32,60.0240096,66697feac4c3bc98619563af,689ed6d1281858f68c932c05,689f3cb9b9b938f5044de141,,,,,,,,,,,,,,1,,,,,,,,,,,,,,,,,,,,,,,,,,,,,,,,,,,,,,,,,,,,,,,,,,,,,,,,,64,orgulloso,,,,,569.46,570.775,0,0,0.772,,0,46,46,63,1,REAL,FAKE,,,,,,,,,,,,,,,,,
,,,,,,,,,66697feac4c3bc98619563af,Mexican,13 or older,"no, only English or Spanish",yes,2025-08-15_10h02.35.044,empathy_intonation_perc,2024.2.4,Win32,60.0240096,66697feac4c3bc98619563af,689ed6d1281858f68c932c05,689f3cb9b9b938f5044de141,,,,,,,,,,,,,,0,,,,,,,,,,,,,,,,,,,,,,,,,,,,,,,,,,,,,,,,,,,,,,,,,,,,,,,,,16,abracer,,,,,570.776,572.259,1,0,0.958,,0,47,47,15,1,REAL,FAKE,,,,,,,,,,,,,,,,,
,,,,,,,,,66697feac4c3bc98619563af,Mexican,13 or older,"no, only English or Spanish",yes,2025-08-15_10h02.35.044,empathy_intonation_perc,2024.2.4,Win32,60.0240096,66697feac4c3bc98619563af,689ed6d1281858f68c932c05,689f3cb9b9b938f5044de141,,,,,,,,,,,,,,0,,,,,,,,,,,,,,,,,,,,,,,,,,,,,,,,,,,,,,,,,,,,,,,,,,,,,,,,,8,cadeña,,,,,572.26,573.625,1,0,0.83,,0,48,48,7,1,REAL,FAKE,,,,,,,,,,,,,,,,,
,,,,,,,,,66697feac4c3bc98619563af,Mexican,13 or older,"no, only English or Spanish",yes,2025-08-15_10h02.35.044,empathy_intonation_perc,2024.2.4,Win32,60.0240096,66697feac4c3bc98619563af,689ed6d1281858f68c932c05,689f3cb9b9b938f5044de141,,,,,,,,,,,,,,1,,,,,,,,,,,,,,,,,,,,,,,,,,,,,,,,,,,,,,,,,,,,,,,,,,,,,,,,,85,laúd,,,,,573.626,574.925,0,0,0.764,,0,49,49,84,1,REAL,FAKE,,,,,,,,,,,,,,,,,
,,,,,,,,,66697feac4c3bc98619563af,Mexican,13 or older,"no, only English or Spanish",yes,2025-08-15_10h02.35.044,empathy_intonation_perc,2024.2.4,Win32,60.0240096,66697feac4c3bc98619563af,689ed6d1281858f68c932c05,689f3cb9b9b938f5044de141,,,,,,,,,,,,,,1,,,,,,,,,,,,,,,,,,,,,,,,,,,,,,,,,,,,,,,,,,,,,,,,,,,,,,,,,44,cuchara,,,,,574.926,576.307,1,1,0.83,,0,50,50,43,1,REAL,FAKE,,,,,,,,,,,,,,,,,
,,,,,,,,,66697feac4c3bc98619563af,Mexican,13 or older,"no, only English or Spanish",yes,2025-08-15_10h02.35.044,empathy_intonation_perc,2024.2.4,Win32,60.0240096,66697feac4c3bc98619563af,689ed6d1281858f68c932c05,689f3cb9b9b938f5044de141,,,,,,,,,,,,,,1,,,,,,,,,,,,,,,,,,,,,,,,,,,,,,,,,,,,,,,,,,,,,,,,,,,,,,,,,25,bisagra,,,,,576.309,577.725,0,0,0.893,,0,51,51,24,1,REAL,FAKE,,,,,,,,,,,,,,,,,
,,,,,,,,,66697feac4c3bc98619563af,Mexican,13 or older,"no, only English or Spanish",yes,2025-08-15_10h02.35.044,empathy_intonation_perc,2024.2.4,Win32,60.0240096,66697feac4c3bc98619563af,689ed6d1281858f68c932c05,689f3cb9b9b938f5044de141,,,,,,,,,,,,,,1,,,,,,,,,,,,,,,,,,,,,,,,,,,,,,,,,,,,,,,,,,,,,,,,,,,,,,,,,69,engatusar,,,,,577.726,579.641,0,0,1.375,,0,52,52,68,1,REAL,FAKE,,,,,,,,,,,,,,,,,
,,,,,,,,,66697feac4c3bc98619563af,Mexican,13 or older,"no, only English or Spanish",yes,2025-08-15_10h02.35.044,empathy_intonation_perc,2024.2.4,Win32,60.0240096,66697feac4c3bc98619563af,689ed6d1281858f68c932c05,689f3cb9b9b938f5044de141,,,,,,,,,,,,,,1,,,,,,,,,,,,,,,,,,,,,,,,,,,,,,,,,,,,,,,,,,,,,,,,,,,,,,,,,77,tiburón,,,,,579.643,581.542,1,1,1.351,,0,53,53,76,1,REAL,FAKE,,,,,,,,,,,,,,,,,
,,,,,,,,,66697feac4c3bc98619563af,Mexican,13 or older,"no, only English or Spanish",yes,2025-08-15_10h02.35.044,empathy_intonation_perc,2024.2.4,Win32,60.0240096,66697feac4c3bc98619563af,689ed6d1281858f68c932c05,689f3cb9b9b938f5044de141,,,,,,,,,,,,,,1,,,,,,,,,,,,,,,,,,,,,,,,,,,,,,,,,,,,,,,,,,,,,,,,,,,,,,,,,9,hacha,,,,,581.547,582.859,1,1,0.776,,0,54,54,8,1,REAL,FAKE,,,,,,,,,,,,,,,,,
,,,,,,,,,66697feac4c3bc98619563af,Mexican,13 or older,"no, only English or Spanish",yes,2025-08-15_10h02.35.044,empathy_intonation_perc,2024.2.4,Win32,60.0240096,66697feac4c3bc98619563af,689ed6d1281858f68c932c05,689f3cb9b9b938f5044de141,,,,,,,,,,,,,,1,,,,,,,,,,,,,,,,,,,,,,,,,,,,,,,,,,,,,,,,,,,,,,,,,,,,,,,,,2,pellizcar,,,,,582.86,584.291,0,0,0.886,,0,55,55,1,1,REAL,FAKE,,,,,,,,,,,,,,,,,
,,,,,,,,,66697feac4c3bc98619563af,Mexican,13 or older,"no, only English or Spanish",yes,2025-08-15_10h02.35.044,empathy_intonation_perc,2024.2.4,Win32,60.0240096,66697feac4c3bc98619563af,689ed6d1281858f68c932c05,689f3cb9b9b938f5044de141,,,,,,,,,,,,,,1,,,,,,,,,,,,,,,,,,,,,,,,,,,,,,,,,,,,,,,,,,,,,,,,,,,,,,,,,80,hormiga,,,,,584.293,586.658,1,1,1.818,,0,56,56,79,1,REAL,FAKE,,,,,,,,,,,,,,,,,
,,,,,,,,,66697feac4c3bc98619563af,Mexican,13 or older,"no, only English or Spanish",yes,2025-08-15_10h02.35.044,empathy_intonation_perc,2024.2.4,Win32,60.0240096,66697feac4c3bc98619563af,689ed6d1281858f68c932c05,689f3cb9b9b938f5044de141,,,,,,,,,,,,,,1,,,,,,,,,,,,,,,,,,,,,,,,,,,,,,,,,,,,,,,,,,,,,,,,,,,,,,,,,61,seda,,,,,586.66,589.091,1,1,1.883,,0,57,57,60,1,REAL,FAKE,,,,,,,,,,,,,,,,,
,,,,,,,,,66697feac4c3bc98619563af,Mexican,13 or older,"no, only English or Spanish",yes,2025-08-15_10h02.35.044,empathy_intonation_perc,2024.2.4,Win32,60.0240096,66697feac4c3bc98619563af,689ed6d1281858f68c932c05,689f3cb9b9b938f5044de141,,,,,,,,,,,,,,1,,,,,,,,,,,,,,,,,,,,,,,,,,,,,,,,,,,,,,,,,,,,,,,,,,,,,,,,,11,cenefa,,,,,589.093,590.475,0,0,0.845,,0,58,58,10,1,REAL,FAKE,,,,,,,,,,,,,,,,,
,,,,,,,,,66697feac4c3bc98619563af,Mexican,13 or older,"no, only English or Spanish",yes,2025-08-15_10h02.35.044,empathy_intonation_perc,2024.2.4,Win32,60.0240096,66697feac4c3bc98619563af,689ed6d1281858f68c932c05,689f3cb9b9b938f5044de141,,,,,,,,,,,,,,1,,,,,,,,,,,,,,,,,,,,,,,,,,,,,,,,,,,,,,,,,,,,,,,,,,,,,,,,,55,nevar,,,,,590.476,591.957,0,0,0.942,,0,59,59,54,1,REAL,FAKE,,,,,,,,,,,,,,,,,
,,,,,,,,,66697feac4c3bc98619563af,Mexican,13 or older,"no, only English or Spanish",yes,2025-08-15_10h02.35.044,empathy_intonation_perc,2024.2.4,Win32,60.0240096,66697feac4c3bc98619563af,689ed6d1281858f68c932c05,689f3cb9b9b938f5044de141,,,,,,,,,,,,,,1,,,,,,,,,,,,,,,,,,,,,,,,,,,,,,,,,,,,,,,,,,,,,,,,,,,,,,,,,20,ávido,,,,,591.959,593.474,1,1,0.991,,0,60,60,19,1,REAL,FAKE,,,,,,,,,,,,,,,,,
,,,,,,,,,66697feac4c3bc98619563af,Mexican,13 or older,"no, only English or Spanish",yes,2025-08-15_10h02.35.044,empathy_intonation_perc,2024.2.4,Win32,60.0240096,66697feac4c3bc98619563af,689ed6d1281858f68c932c05,689f3cb9b9b938f5044de141,,,,,,,,,,,,,,1,,,,,,,,,,,,,,,,,,,,,,,,,,,,,,,,,,,,,,,,,,,,,,,,,,,,,,,,,59,besar,,,,,593.475,594.809,0,0,0.819,,0,61,61,58,1,REAL,FAKE,,,,,,,,,,,,,,,,,
,,,,,,,,,66697feac4c3bc98619563af,Mexican,13 or older,"no, only English or Spanish",yes,2025-08-15_10h02.35.044,empathy_intonation_perc,2024.2.4,Win32,60.0240096,66697feac4c3bc98619563af,689ed6d1281858f68c932c05,689f3cb9b9b938f5044de141,,,,,,,,,,,,,,1,,,,,,,,,,,,,,,,,,,,,,,,,,,,,,,,,,,,,,,,,,,,,,,,,,,,,,,,,46,martillo,,,,,594.81,597.141,0,0,1.793,,0,62,62,45,1,REAL,FAKE,,,,,,,,,,,,,,,,,
,,,,,,,,,66697feac4c3bc98619563af,Mexican,13 or older,"no, only English or Spanish",yes,2025-08-15_10h02.35.044,empathy_intonation_perc,2024.2.4,Win32,60.0240096,66697feac4c3bc98619563af,689ed6d1281858f68c932c05,689f3cb9b9b938f5044de141,,,,,,,,,,,,,,1,,,,,,,,,,,,,,,,,,,,,,,,,,,,,,,,,,,,,,,,,,,,,,,,,,,,,,,,,3,pulmones,,,,,597.142,598.658,0,0,0.991,,0,63,63,2,1,REAL,FAKE,,,,,,,,,,,,,,,,,
,,,,,,,,,66697feac4c3bc98619563af,Mexican,13 or older,"no, only English or Spanish",yes,2025-08-15_10h02.35.044,empathy_intonation_perc,2024.2.4,Win32,60.0240096,66697feac4c3bc98619563af,689ed6d1281858f68c932c05,689f3cb9b9b938f5044de141,,,,,,,,,,,,,,1,,,,,,,,,,,,,,,,,,,,,,,,,,,,,,,,,,,,,,,,,,,,,,,,,,,,,,,,,62,flaco,,,,,598.66,600.09,1,1,0.889,,0,64,64,61,1,REAL,FAKE,,,,,,,,,,,,,,,,,
,,,,,,,,,66697feac4c3bc98619563af,Mexican,13 or older,"no, only English or Spanish",yes,2025-08-15_10h02.35.044,empathy_intonation_perc,2024.2.4,Win32,60.0240096,66697feac4c3bc98619563af,689ed6d1281858f68c932c05,689f3cb9b9b938f5044de141,,,,,,,,,,,,,,0,,,,,,,,,,,,,,,,,,,,,,,,,,,,,,,,,,,,,,,,,,,,,,,,,,,,,,,,,72,pemición,,,,,600.092,602.124,0,1,1.504,,0,65,65,71,1,REAL,FAKE,,,,,,,,,,,,,,,,,
,,,,,,,,,66697feac4c3bc98619563af,Mexican,13 or older,"no, only English or Spanish",yes,2025-08-15_10h02.35.044,empathy_intonation_perc,2024.2.4,Win32,60.0240096,66697feac4c3bc98619563af,689ed6d1281858f68c932c05,689f3cb9b9b938f5044de141,,,,,,,,,,,,,,1,,,,,,,,,,,,,,,,,,,,,,,,,,,,,,,,,,,,,,,,,,,,,,,,,,,,,,,,,31,pandilla,,,,,602.125,603.507,1,1,0.862,,0,66,66,30,1,REAL,FAKE,,,,,,,,,,,,,,,,,
,,,,,,,,,66697feac4c3bc98619563af,Mexican,13 or older,"no, only English or Spanish",yes,2025-08-15_10h02.35.044,empathy_intonation_perc,2024.2.4,Win32,60.0240096,66697feac4c3bc98619563af,689ed6d1281858f68c932c05,689f3cb9b9b938f5044de141,,,,,,,,,,,,,,1,,,,,,,,,,,,,,,,,,,,,,,,,,,,,,,,,,,,,,,,,,,,,,,,,,,,,,,,,65,bizcocho,,,,,603.508,605.226,0,0,1.18,,0,67,67,64,1,REAL,FAKE,,,,,,,,,,,,,,,,,
,,,,,,,,,66697feac4c3bc98619563af,Mexican,13 or older,"no, only English or Spanish",yes,2025-08-15_10h02.35.044,empathy_intonation_perc,2024.2.4,Win32,60.0240096,66697feac4c3bc98619563af,689ed6d1281858f68c932c05,689f3cb9b9b938f5044de141,,,,,,,,,,,,,,0,,,,,,,,,,,,,,,,,,,,,,,,,,,,,,,,,,,,,,,,,,,,,,,,,,,,,,,,,10,antar,,,,,605.227,606.774,0,1,1.018,,0,68,68,9,1,REAL,FAKE,,,,,,,,,,,,,,,,,
,,,,,,,,,66697feac4c3bc98619563af,Mexican,13 or older,"no, only English or Spanish",yes,2025-08-15_10h02.35.044,empathy_intonation_perc,2024.2.4,Win32,60.0240096,66697feac4c3bc98619563af,689ed6d1281858f68c932c05,689f3cb9b9b938f5044de141,,,,,,,,,,,,,,0,,,,,,,,,,,,,,,,,,,,,,,,,,,,,,,,,,,,,,,,,,,,,,,,,,,,,,,,,87,grodo,,,,,606.776,608.09,0,1,0.778,,0,69,69,86,1,REAL,FAKE,,,,,,,,,,,,,,,,,
,,,,,,,,,66697feac4c3bc98619563af,Mexican,13 or older,"no, only English or Spanish",yes,2025-08-15_10h02.35.044,empathy_intonation_perc,2024.2.4,Win32,60.0240096,66697feac4c3bc98619563af,689ed6d1281858f68c932c05,689f3cb9b9b938f5044de141,,,,,,,,,,,,,,0,,,,,,,,,,,,,,,,,,,,,,,,,,,,,,,,,,,,,,,,,,,,,,,,,,,,,,,,,18,arsa,,,,,608.092,609.574,0,1,0.939,,0,70,70,17,1,REAL,FAKE,,,,,,,,,,,,,,,,,
,,,,,,,,,66697feac4c3bc98619563af,Mexican,13 or older,"no, only English or Spanish",yes,2025-08-15_10h02.35.044,empathy_intonation_perc,2024.2.4,Win32,60.0240096,66697feac4c3bc98619563af,689ed6d1281858f68c932c05,689f3cb9b9b938f5044de141,,,,,,,,,,,,,,1,,,,,,,,,,,,,,,,,,,,,,,,,,,,,,,,,,,,,,,,,,,,,,,,,,,,,,,,,68,alegre,,,,,609.575,610.99,1,1,0.871,,0,71,71,67,1,REAL,FAKE,,,,,,,,,,,,,,,,,
,,,,,,,,,66697feac4c3bc98619563af,Mexican,13 or older,"no, only English or Spanish",yes,2025-08-15_10h02.35.044,empathy_intonation_perc,2024.2.4,Win32,60.0240096,66697feac4c3bc98619563af,689ed6d1281858f68c932c05,689f3cb9b9b938f5044de141,,,,,,,,,,,,,,1,,,,,,,,,,,,,,,,,,,,,,,,,,,,,,,,,,,,,,,,,,,,,,,,,,,,,,,,,67,cabello,,,,,610.992,612.34,1,1,0.802,,0,72,72,66,1,REAL,FAKE,,,,,,,,,,,,,,,,,
,,,,,,,,,66697feac4c3bc98619563af,Mexican,13 or older,"no, only English or Spanish",yes,2025-08-15_10h02.35.044,empathy_intonation_perc,2024.2.4,Win32,60.0240096,66697feac4c3bc98619563af,689ed6d1281858f68c932c05,689f3cb9b9b938f5044de141,,,,,,,,,,,,,,0,,,,,,,,,,,,,,,,,,,,,,,,,,,,,,,,,,,,,,,,,,,,,,,,,,,,,,,,,82,empirador,,,,,612.342,613.757,1,0,0.883,,0,73,73,81,1,REAL,FAKE,,,,,,,,,,,,,,,,,
,,,,,,,,,66697feac4c3bc98619563af,Mexican,13 or older,"no, only English or Spanish",yes,2025-08-15_10h02.35.044,empathy_intonation_perc,2024.2.4,Win32,60.0240096,66697feac4c3bc98619563af,689ed6d1281858f68c932c05,689f3cb9b9b938f5044de141,,,,,,,,,,,,,,1,,,,,,,,,,,,,,,,,,,,,,,,,,,,,,,,,,,,,,,,,,,,,,,,,,,,,,,,,14,yunque,,,,,613.759,615.442,0,0,1.143,,0,74,74,13,1,REAL,FAKE,,,,,,,,,,,,,,,,,
,,,,,,,,,66697feac4c3bc98619563af,Mexican,13 or older,"no, only English or Spanish",yes,2025-08-15_10h02.35.044,empathy_intonation_perc,2024.2.4,Win32,60.0240096,66697feac4c3bc98619563af,689ed6d1281858f68c932c05,689f3cb9b9b938f5044de141,,,,,,,,,,,,,,1,,,,,,,,,,,,,,,,,,,,,,,,,,,,,,,,,,,,,,,,,,,,,,,,,,,,,,,,,12,asesinato,,,,,615.448,618.007,1,1,2.015,,0,75,75,11,1,REAL,FAKE,,,,,,,,,,,,,,,,,
,,,,,,,,,66697feac4c3bc98619563af,Mexican,13 or older,"no, only English or Spanish",yes,2025-08-15_10h02.35.044,empathy_intonation_perc,2024.2.4,Win32,60.0240096,66697feac4c3bc98619563af,689ed6d1281858f68c932c05,689f3cb9b9b938f5044de141,,,,,,,,,,,,,,0,,,,,,,,,,,,,,,,,,,,,,,,,,,,,,,,,,,,,,,,,,,,,,,,,,,,,,,,,33,pauca,,,,,618.009,619.757,0,1,1.207,,0,76,76,32,1,REAL,FAKE,,,,,,,,,,,,,,,,,
,,,,,,,,,66697feac4c3bc98619563af,Mexican,13 or older,"no, only English or Spanish",yes,2025-08-15_10h02.35.044,empathy_intonation_perc,2024.2.4,Win32,60.0240096,66697feac4c3bc98619563af,689ed6d1281858f68c932c05,689f3cb9b9b938f5044de141,,,,,,,,,,,,,,0,,,,,,,,,,,,,,,,,,,,,,,,,,,,,,,,,,,,,,,,,,,,,,,,,,,,,,,,,92,click the 0 key.,,,,,619.76,621.29,0,1,0.99,,0,77,77,91,1,REAL,FAKE,,,,,,,,,,,,,,,,,
,,,,,,,,,66697feac4c3bc98619563af,Mexican,13 or older,"no, only English or Spanish",yes,2025-08-15_10h02.35.044,empathy_intonation_perc,2024.2.4,Win32,60.0240096,66697feac4c3bc98619563af,689ed6d1281858f68c932c05,689f3cb9b9b938f5044de141,,,,,,,,,,,,,,1,,,,,,,,,,,,,,,,,,,,,,,,,,,,,,,,,,,,,,,,,,,,,,,,,,,,,,,,,60,matar,,,,,621.293,622.657,1,1,0.824,,0,78,78,59,1,REAL,FAKE,,,,,,,,,,,,,,,,,
,,,,,,,,,66697feac4c3bc98619563af,Mexican,13 or older,"no, only English or Spanish",yes,2025-08-15_10h02.35.044,empathy_intonation_perc,2024.2.4,Win32,60.0240096,66697feac4c3bc98619563af,689ed6d1281858f68c932c05,689f3cb9b9b938f5044de141,,,,,,,,,,,,,,1,,,,,,,,,,,,,,,,,,,,,,,,,,,,,,,,,,,,,,,,,,,,,,,,,,,,,,,,,51,candado,,,,,622.659,625.107,1,1,1.9,,0,79,79,50,1,REAL,FAKE,,,,,,,,,,,,,,,,,
,,,,,,,,,66697feac4c3bc98619563af,Mexican,13 or older,"no, only English or Spanish",yes,2025-08-15_10h02.35.044,empathy_intonation_perc,2024.2.4,Win32,60.0240096,66697feac4c3bc98619563af,689ed6d1281858f68c932c05,689f3cb9b9b938f5044de141,,,,,,,,,,,,,,0,,,,,,,,,,,,,,,,,,,,,,,,,,,,,,,,,,,,,,,,,,,,,,,,,,,,,,,,,74,cintro,,,,,625.108,626.607,1,0,0.968,,0,80,80,73,1,REAL,FAKE,,,,,,,,,,,,,,,,,
,,,,,,,,,66697feac4c3bc98619563af,Mexican,13 or older,"no, only English or Spanish",yes,2025-08-15_10h02.35.044,empathy_intonation_perc,2024.2.4,Win32,60.0240096,66697feac4c3bc98619563af,689ed6d1281858f68c932c05,689f3cb9b9b938f5044de141,,,,,,,,,,,,,,1,,,,,,,,,,,,,,,,,,,,,,,,,,,,,,,,,,,,,,,,,,,,,,,,,,,,,,,,,39,torpe,,,,,626.608,627.907,1,1,0.784,,0,81,81,38,1,REAL,FAKE,,,,,,,,,,,,,,,,,
,,,,,,,,,66697feac4c3bc98619563af,Mexican,13 or older,"no, only English or Spanish",yes,2025-08-15_10h02.35.044,empathy_intonation_perc,2024.2.4,Win32,60.0240096,66697feac4c3bc98619563af,689ed6d1281858f68c932c05,689f3cb9b9b938f5044de141,,,,,,,,,,,,,,1,,,,,,,,,,,,,,,,,,,,,,,,,,,,,,,,,,,,,,,,,,,,,,,,,,,,,,,,,26,secuestro,,,,,627.908,630.29,1,1,1.855,,0,82,82,25,1,REAL,FAKE,,,,,,,,,,,,,,,,,
,,,,,,,,,66697feac4c3bc98619563af,Mexican,13 or older,"no, only English or Spanish",yes,2025-08-15_10h02.35.044,empathy_intonation_perc,2024.2.4,Win32,60.0240096,66697feac4c3bc98619563af,689ed6d1281858f68c932c05,689f3cb9b9b938f5044de141,,,,,,,,,,,,,,1,,,,,,,,,,,,,,,,,,,,,,,,,,,,,,,,,,,,,,,,,,,,,,,,,,,,,,,,,7,pésimo,,,,,630.291,631.89,1,1,1.069,,0,83,83,6,1,REAL,FAKE,,,,,,,,,,,,,,,,,
,,,,,,,,,66697feac4c3bc98619563af,Mexican,13 or older,"no, only English or Spanish",yes,2025-08-15_10h02.35.044,empathy_intonation_perc,2024.2.4,Win32,60.0240096,66697feac4c3bc98619563af,689ed6d1281858f68c932c05,689f3cb9b9b938f5044de141,,,,,,,,,,,,,,0,,,,,,,,,,,,,,,,,,,,,,,,,,,,,,,,,,,,,,,,,,,,,,,,,,,,,,,,,1,terzo,,,,,631.892,633.957,1,0,1.531,,0,84,84,0,1,REAL,FAKE,,,,,,,,,,,,,,,,,
,,,,,,,,,66697feac4c3bc98619563af,Mexican,13 or older,"no, only English or Spanish",yes,2025-08-15_10h02.35.044,empathy_intonation_perc,2024.2.4,Win32,60.0240096,66697feac4c3bc98619563af,689ed6d1281858f68c932c05,689f3cb9b9b938f5044de141,,,,,,,,,,,,,,1,,,,,,,,,,,,,,,,,,,,,,,,,,,,,,,,,,,,,,,,,,,,,,,,,,,,,,,,,90,clavel,,,,,633.958,635.34,0,0,0.858,,0,85,85,89,1,REAL,FAKE,,,,,,,,,,,,,,,,,
,,,,,,,,,66697feac4c3bc98619563af,Mexican,13 or older,"no, only English or Spanish",yes,2025-08-15_10h02.35.044,empathy_intonation_perc,2024.2.4,Win32,60.0240096,66697feac4c3bc98619563af,689ed6d1281858f68c932c05,689f3cb9b9b938f5044de141,,,,,,,,,,,,,,0,,,,,,,,,,,,,,,,,,,,,,,,,,,,,,,,,,,,,,,,,,,,,,,,,,,,,,,,,70,temblo,,,,,635.343,636.674,1,0,0.793,,0,86,86,69,1,REAL,FAKE,,,,,,,,,,,,,,,,,
,,,,,,,,,66697feac4c3bc98619563af,Mexican,13 or older,"no, only English or Spanish",yes,2025-08-15_10h02.35.044,empathy_intonation_perc,2024.2.4,Win32,60.0240096,66697feac4c3bc98619563af,689ed6d1281858f68c932c05,689f3cb9b9b938f5044de141,,,,,,,,,,,,,,1,,,,,,,,,,,,,,,,,,,,,,,,,,,,,,,,,,,,,,,,,,,,,,,,,,,,,,,,,57,tacaño,,,,,636.676,638.873,1,1,1.654,,0,87,87,56,1,REAL,FAKE,,,,,,,,,,,,,,,,,
,,,,,,,,,66697feac4c3bc98619563af,Mexican,13 or older,"no, only English or Spanish",yes,2025-08-15_10h02.35.044,empathy_intonation_perc,2024.2.4,Win32,60.0240096,66697feac4c3bc98619563af,689ed6d1281858f68c932c05,689f3cb9b9b938f5044de141,,,,,,,,,,,,,,0,,,,,,,,,,,,,,,,,,,,,,,,,,,,,,,,,,,,,,,,,,,,,,,,,,,,,,,,,84,escuto,,,,,638.874,640.323,1,0,0.901,,0,88,88,83,1,REAL,FAKE,,,,,,,,,,,,,,,,,
,,,,,,,,,66697feac4c3bc98619563af,Mexican,13 or older,"no, only English or Spanish",yes,2025-08-15_10h02.35.044,empathy_intonation_perc,2024.2.4,Win32,60.0240096,66697feac4c3bc98619563af,689ed6d1281858f68c932c05,689f3cb9b9b938f5044de141,,,,,,,,,,,,,,1,,,,,,,,,,,,,,,,,,,,,,,,,,,,,,,,,,,,,,,,,,,,,,,,,,,,,,,,,15,regar,,,,,640.325,641.556,1,1,0.698,,0,89,89,14,1,REAL,FAKE,,,,,,,,,,,,,,,,,
,,,,,,,,,66697feac4c3bc98619563af,Mexican,13 or older,"no, only English or Spanish",yes,2025-08-15_10h02.35.044,empathy_intonation_perc,2024.2.4,Win32,60.0240096,66697feac4c3bc98619563af,689ed6d1281858f68c932c05,689f3cb9b9b938f5044de141,,,,,,,,,,,,,,1,,,,,,,,,,,,,,,,,,,,,,,,,,,,,,,,,,,,,,,,,,,,,,,,,,,,,,,,,13,helar,,,,,641.557,643.123,1,1,1.029,,0,90,90,12,1,REAL,FAKE,,,,,,,,,,,,,,,,,
,,,,,,,,,66697feac4c3bc98619563af,Mexican,13 or older,"no, only English or Spanish",yes,2025-08-15_10h02.35.044,empathy_intonation_perc,2024.2.4,Win32,60.0240096,66697feac4c3bc98619563af,689ed6d1281858f68c932c05,689f3cb9b9b938f5044de141,,,,,,,,,,,,,,0,,,,,,,,,,,,,,,,,,,,,,,,,,,,,,,,,,,,,,,,,,,,,,,,,,,,,,,,,47,cartinar,,,,,643.124,644.891,1,0,1.239,,0,91,91,46,1,REAL,FAKE,,,,,,,,,,,,,,,,,
,,,,,,,,,66697feac4c3bc98619563af,Mexican,13 or older,"no, only English or Spanish",yes,2025-08-15_10h02.35.044,empathy_intonation_perc,2024.2.4,Win32,60.0240096,66697feac4c3bc98619563af,689ed6d1281858f68c932c05,689f3cb9b9b938f5044de141,,,,,,,,,,,,,,,,,,,,,,,,,,,,,,,,,,,,,,,,,,,,,,,,,,,,,,,,,,,,,,,,,,,,,,,,,,,,,,,,,,,,,,,,,,644.892,651.007,,,,,,,,,,,,,,,
,,,,,,,,,66697feac4c3bc98619563af,Mexican,13 or older,"no, only English or Spanish",yes,2025-08-15_10h02.35.044,empathy_intonation_perc,2024.2.4,Win32,60.0240096,66697feac4c3bc98619563af,689ed6d1281858f68c932c05,689f3cb9b9b938f5044de141,,,,,,,,,,,,,1,,,,,,,,,,,,,,,,,,,,,,,,,,,,,,,,,,,,,,,,,,,,,,,,,,,,,,,,,,,,,,,,,,,,,,,,,,,,,,,651.042,655.04,slightly disagree,0,0,0,0,1,I can easily tell if someone else wants to enter a conversation.,1,0,1,0,,
,,,,,,,,,66697feac4c3bc98619563af,Mexican,13 or older,"no, only English or Spanish",yes,2025-08-15_10h02.35.044,empathy_intonation_perc,2024.2.4,Win32,60.0240096,66697feac4c3bc98619563af,689ed6d1281858f68c932c05,689f3cb9b9b938f5044de141,,,,,,,,,,,,,2,,,,,,,,,,,,,,,,,,,,,,,,,,,,,,,,,,,,,,,,,,,,,,,,,,,,,,,,,,,,,,,,,,,,,,,,,,,,,,,655.043,658.44,slightly agree,0,1,1,1,1,I prefer animals to humans.,0,1,0,0,,
,,,,,,,,,66697feac4c3bc98619563af,Mexican,13 or older,"no, only English or Spanish",yes,2025-08-15_10h02.35.044,empathy_intonation_perc,2024.2.4,Win32,60.0240096,66697feac4c3bc98619563af,689ed6d1281858f68c932c05,689f3cb9b9b938f5044de141,,,,,,,,,,,,,3,,,,,,,,,,,,,,,,,,,,,,,,,,,,,,,,,,,,,,,,,,,,,,,,,,,,,,,,,,,,,,,,,,,,,,,,,,,,,,,658.442,660.124,slightly agree,0,2,2,2,1,I try to keep up with the current trends and fashions.,0,1,0,0,,
,,,,,,,,,66697feac4c3bc98619563af,Mexican,13 or older,"no, only English or Spanish",yes,2025-08-15_10h02.35.044,empathy_intonation_perc,2024.2.4,Win32,60.0240096,66697feac4c3bc98619563af,689ed6d1281858f68c932c05,689f3cb9b9b938f5044de141,,,,,,,,,,,,,4,,,,,,,,,,,,,,,,,,,,,,,,,,,,,,,,,,,,,,,,,,,,,,,,,,,,,,,,,,,,,,,,,,,,,,,,,,,,,,,660.127,663.706,slightly agree,0,3,3,3,1,"I find it difficult to explain to others things that I understand easily,   when they don't understand it first time.",1,0,0,1,,
,,,,,,,,,66697feac4c3bc98619563af,Mexican,13 or older,"no, only English or Spanish",yes,2025-08-15_10h02.35.044,empathy_intonation_perc,2024.2.4,Win32,60.0240096,66697feac4c3bc98619563af,689ed6d1281858f68c932c05,689f3cb9b9b938f5044de141,,,,,,,,,,,,,5,,,,,,,,,,,,,,,,,,,,,,,,,,,,,,,,,,,,,,,,,,,,,,,,,,,,,,,,,,,,,,,,,,,,,,,,,,,,,,,663.708,665.257,slightly agree,0,4,4,4,1,I dream most nights.,0,1,0,0,,
,,,,,,,,,66697feac4c3bc98619563af,Mexican,13 or older,"no, only English or Spanish",yes,2025-08-15_10h02.35.044,empathy_intonation_perc,2024.2.4,Win32,60.0240096,66697feac4c3bc98619563af,689ed6d1281858f68c932c05,689f3cb9b9b938f5044de141,,,,,,,,,,,,,6,,,,,,,,,,,,,,,,,,,,,,,,,,,,,,,,,,,,,,,,,,,,,,,,,,,,,,,,,,,,,,,,,,,,,,,,,,,,,,,665.259,667.04,slightly agree,0,5,5,5,1,I really enjoy caring for other people.,1,0,1,0,,
,,,,,,,,,66697feac4c3bc98619563af,Mexican,13 or older,"no, only English or Spanish",yes,2025-08-15_10h02.35.044,empathy_intonation_perc,2024.2.4,Win32,60.0240096,66697feac4c3bc98619563af,689ed6d1281858f68c932c05,689f3cb9b9b938f5044de141,,,,,,,,,,,,,7,,,,,,,,,,,,,,,,,,,,,,,,,,,,,,,,,,,,,,,,,,,,,,,,,,,,,,,,,,,,,,,,,,,,,,,,,,,,,,,667.042,670.206,strongly agree,0,6,6,6,1,I try to solve my own problems rather than discussing them with others.,0,1,0,0,,
,,,,,,,,,66697feac4c3bc98619563af,Mexican,13 or older,"no, only English or Spanish",yes,2025-08-15_10h02.35.044,empathy_intonation_perc,2024.2.4,Win32,60.0240096,66697feac4c3bc98619563af,689ed6d1281858f68c932c05,689f3cb9b9b938f5044de141,,,,,,,,,,,,,8,,,,,,,,,,,,,,,,,,,,,,,,,,,,,,,,,,,,,,,,,,,,,,,,,,,,,,,,,,,,,,,,,,,,,,,,,,,,,,,670.207,672.739,strongly agree,0,7,7,7,1,I find it hard to know what to do in a social situation.,1,0,0,1,,
,,,,,,,,,66697feac4c3bc98619563af,Mexican,13 or older,"no, only English or Spanish",yes,2025-08-15_10h02.35.044,empathy_intonation_perc,2024.2.4,Win32,60.0240096,66697feac4c3bc98619563af,689ed6d1281858f68c932c05,689f3cb9b9b938f5044de141,,,,,,,,,,,,,9,,,,,,,,,,,,,,,,,,,,,,,,,,,,,,,,,,,,,,,,,,,,,,,,,,,,,,,,,,,,,,,,,,,,,,,,,,,,,,,672.741,674.872,slightly disagree,0,8,8,8,1,I am at my best first thing in the morning.,0,1,0,0,,
,,,,,,,,,66697feac4c3bc98619563af,Mexican,13 or older,"no, only English or Spanish",yes,2025-08-15_10h02.35.044,empathy_intonation_perc,2024.2.4,Win32,60.0240096,66697feac4c3bc98619563af,689ed6d1281858f68c932c05,689f3cb9b9b938f5044de141,,,,,,,,,,,,,10,,,,,,,,,,,,,,,,,,,,,,,,,,,,,,,,,,,,,,,,,,,,,,,,,,,,,,,,,,,,,,,,,,,,,,,,,,,,,,,674.874,679.506,slightly agree,0,9,9,9,1,People often tell me that I went too far in driving my point home in a discussion.,1,0,0,1,,
,,,,,,,,,66697feac4c3bc98619563af,Mexican,13 or older,"no, only English or Spanish",yes,2025-08-15_10h02.35.044,empathy_intonation_perc,2024.2.4,Win32,60.0240096,66697feac4c3bc98619563af,689ed6d1281858f68c932c05,689f3cb9b9b938f5044de141,,,,,,,,,,,,,11,,,,,,,,,,,,,,,,,,,,,,,,,,,,,,,,,,,,,,,,,,,,,,,,,,,,,,,,,,,,,,,,,,,,,,,,,,,,,,,679.51,682.139,slightly agree,0,10,10,10,1,It doesn't bother me too much if I am late meeting a friend.,1,0,0,1,,
