instructions_exposure.started,instructions_exposure.stopped,instructions_exposure_loop.thisRepN,instructions_exposure_loop.thisTrialN,instructions_exposure_loop.thisN,instructions_exposure_loop.thisIndex,instructions_exposure_loop.ran,instructions_text,continue_text,participant_id,"What variety of Spanish are you most familiar with? (e.g., Peruvian, Spanish, Mexican)",At what age did you begin learning Spanish?,Are you proficient in any languages other than English/Spanish?,"Are you familiar with Caribbean (e.g., Caribbean, Puerto Rican) or Galician Spanish?",date,expName,psychopyVersion,OS,frameRate,id,study_id,session,trial_exposure.started,trial_exposure.stopped,key_resp_exposure.keys,key_resp_exposure.corr,key_resp_exposure.rt,key_resp_exposure.duration,key_resp.keys,exposure_loop.thisRepN,exposure_loop.thisTrialN,exposure_loop.thisN,exposure_loop.thisIndex,exposure_loop.ran,item_num,correct_response,question,path,duration,instructions_2afc.started,instructions_2afc.stopped,instructions_2afc_loop.thisRepN,instructions_2afc_loop.thisTrialN,instructions_2afc_loop.thisN,instructions_2afc_loop.thisIndex,instructions_2afc_loop.ran,practice_2afc.started,practice_2afc.stopped,key_resp_2afc_practice.keys,key_resp_2afc_practice.corr,key_resp_2afc_practice.rt,key_resp_2afc_practice.duration,trials_2afc_practice_loop.thisRepN,trials_2afc_practice_loop.thisTrialN,trials_2afc_practice_loop.thisN,trials_2afc_practice_loop.thisIndex,trials_2afc_practice_loop.ran,check_2afc.started,check_2afc.stopped,trial_2afc.started,trial_2afc.stopped,key_resp_2afc_trial.keys,key_resp_2afc_trial.corr,key_resp_2afc_trial.rt,key_resp_2afc_trial.duration,trials_2afc_loop.thisRepN,trials_2afc_loop.thisTrialN,trials_2afc_loop.thisN,trials_2afc_loop.thisIndex,trials_2afc_loop.ran,target,variety,instructions_lextale.started,instructions_lextale.stopped,instructions_lextale_loop.thisRepN,instructions_lextale_loop.thisTrialN,instructions_lextale_loop.thisN,instructions_lextale_loop.thisIndex,instructions_lextale_loop.ran,practice_lextale.started,practice_lextale.stopped,key_resp_lextale_practice.keys,key_resp_lextale_practice.corr,key_resp_lextale_practice.rt,key_resp_lextale_practice.duration,practice_feedback_lextale.started,practice_feedback_lextale.stopped,trials_lextale_practice_loop.thisRepN,trials_lextale_practice_loop.thisTrialN,trials_lextale_practice_loop.thisN,trials_lextale_practice_loop.thisIndex,trials_lextale_practice_loop.ran,stim,word,prac_button_real,prac_button_false,check_lextale.started,check_lextale.stopped,trial_lextale.started,trial_lextale.stopped,key_resp_lextale_trial.keys,key_resp_lextale_trial.corr,key_resp_lextale_trial.rt,key_resp_lextale_trial.duration,trials_lextale_loop.thisRepN,trials_lextale_loop.thisTrialN,trials_lextale_loop.thisN,trials_lextale_loop.thisIndex,trials_lextale_loop.ran,button_real,button_false,instructions_eq.started,instructions_eq.stopped,trial_eq.started,trial_eq.stopped,slider_eq_trial.response,trials_eq_loop.thisRepN,trials_eq_loop.thisTrialN,trials_eq_loop.thisN,trials_eq_loop.thisIndex,trials_eq_loop.ran,item,is_test_item,is_distractor,is_agree_score,is_disagree_score,end_exp.started,end_exp.stopped
0.0629,6.867,0,0,0,0,1,"In the following task, you are going to hear a series of conversations.", (press the space bar to continue),66706bf3288568808d36ff2c,spanish,13 or older,"no, only English or Spanish",no,2025-08-12_15h25.12.117,empathy_intonation_perc,2024.2.4,Win32,20,66706bf3288568808d36ff2c,687ed1b7e638a4cbf2f02089,689b94db0b0e443391ea2cf6,,,,,,,,,,,,,,,,,,,,,,,,,,,,,,,,,,,,,,,,,,,,,,,,,,,,,,,,,,,,,,,,,,,,,,,,,,,,,,,,,,,,,,,,,,,,,,,,,,,,,,,,,,
6.8687,9.4648,0,1,1,1,1,It is okay if you don't not 100% understand them!, (press the space bar to continue),66706bf3288568808d36ff2c,spanish,13 or older,"no, only English or Spanish",no,2025-08-12_15h25.12.117,empathy_intonation_perc,2024.2.4,Win32,20,66706bf3288568808d36ff2c,687ed1b7e638a4cbf2f02089,689b94db0b0e443391ea2cf6,,,,,,,,,,,,,,,,,,,,,,,,,,,,,,,,,,,,,,,,,,,,,,,,,,,,,,,,,,,,,,,,,,,,,,,,,,,,,,,,,,,,,,,,,,,,,,,,,,,,,,,,,,
9.4711,11.9662,0,2,2,2,1,"After, you will read a sentence about the conversation and decide if it's true or false.", (press the space bar to continue),66706bf3288568808d36ff2c,spanish,13 or older,"no, only English or Spanish",no,2025-08-12_15h25.12.117,empathy_intonation_perc,2024.2.4,Win32,20,66706bf3288568808d36ff2c,687ed1b7e638a4cbf2f02089,689b94db0b0e443391ea2cf6,,,,,,,,,,,,,,,,,,,,,,,,,,,,,,,,,,,,,,,,,,,,,,,,,,,,,,,,,,,,,,,,,,,,,,,,,,,,,,,,,,,,,,,,,,,,,,,,,,,,,,,,,,
11.9707,15.1979,0,3,3,3,1,"If it's true, press '1' (True) and if it's false press '0' (False).", (press the space bar to continue),66706bf3288568808d36ff2c,spanish,13 or older,"no, only English or Spanish",no,2025-08-12_15h25.12.117,empathy_intonation_perc,2024.2.4,Win32,20,66706bf3288568808d36ff2c,687ed1b7e638a4cbf2f02089,689b94db0b0e443391ea2cf6,,,,,,,,,,,,,,,,,,,,,,,,,,,,,,,,,,,,,,,,,,,,,,,,,,,,,,,,,,,,,,,,,,,,,,,,,,,,,,,,,,,,,,,,,,,,,,,,,,,,,,,,,,
,,,,,,,,,66706bf3288568808d36ff2c,spanish,13 or older,"no, only English or Spanish",no,2025-08-12_15h25.12.117,empathy_intonation_perc,2024.2.4,Win32,20,66706bf3288568808d36ff2c,687ed1b7e638a4cbf2f02089,689b94db0b0e443391ea2cf6,15.2236,61.2384,1,0,9.9397,,,0,0,0,2,1,3,0,The mom already has rice.,./stim/exposure_wavs/pr_stimuli_convo.wav,36,,,,,,,,,,,,,,,,,,,,,,,,,,,,,,,,,,,,,,,,,,,,,,,,,,,,,,,,,,,,,,,,,,,,,,,,,,,,,,,,,,,,,,,,,
,,,,,,,,,66706bf3288568808d36ff2c,spanish,13 or older,"no, only English or Spanish",no,2025-08-12_15h25.12.117,empathy_intonation_perc,2024.2.4,Win32,20,66706bf3288568808d36ff2c,687ed1b7e638a4cbf2f02089,689b94db0b0e443391ea2cf6,61.244,127.7977,1,1,6.4659,,,0,1,1,1,1,2,1,The mom asked the daughter if she already went to the supermarket.,./stim/exposure_wavs/dr_stimuli_convo.wav,60,,,,,,,,,,,,,,,,,,,,,,,,,,,,,,,,,,,,,,,,,,,,,,,,,,,,,,,,,,,,,,,,,,,,,,,,,,,,,,,,,,,,,,,,,
,,,,,,,,,66706bf3288568808d36ff2c,spanish,13 or older,"no, only English or Spanish",no,2025-08-12_15h25.12.117,empathy_intonation_perc,2024.2.4,Win32,20,66706bf3288568808d36ff2c,687ed1b7e638a4cbf2f02089,689b94db0b0e443391ea2cf6,127.8022,180.9759,0,0,6.1382,,,0,2,2,0,1,1,1,The son asked the mom if Aunt Marina is okay.,./stim/exposure_wavs/ga_stimuli_convo.wav,47,,,,,,,,,,,,,,,,,,,,,,,,,,,,,,,,,,,,,,,,,,,,,,,,,,,,,,,,,,,,,,,,,,,,,,,,,,,,,,,,,,,,,,,,,
,,,,,,,"In the following task you are going to hear a series of utterances. 

  You will decide if the utterances sound like questions or not using your keyboard.", (press the spacebar to continue),66706bf3288568808d36ff2c,spanish,13 or older,"no, only English or Spanish",no,2025-08-12_15h25.12.117,empathy_intonation_perc,2024.2.4,Win32,20,66706bf3288568808d36ff2c,687ed1b7e638a4cbf2f02089,689b94db0b0e443391ea2cf6,,,,,,,,,,,,,,,,,,180.9891,189.1354,0,0,0,0,1,,,,,,,,,,,,,,,,,,,,,,,,,,,,,,,,,,,,,,,,,,,,,,,,,,,,,,,,,,,,,,,,,,,,,,,,,,,,,,,,,,
,,,,,,,"If you believe the utterance is a question, type '1' (for 'yes') and if you do not 
  believe it is a question type '0' (for 'no').

  Let's practice a bit...", (press the spacebar to continue),66706bf3288568808d36ff2c,spanish,13 or older,"no, only English or Spanish",no,2025-08-12_15h25.12.117,empathy_intonation_perc,2024.2.4,Win32,20,66706bf3288568808d36ff2c,687ed1b7e638a4cbf2f02089,689b94db0b0e443391ea2cf6,,,,,,,,,,,,,,,,,,189.1397,195.2514,0,1,1,1,1,,,,,,,,,,,,,,,,,,,,,,,,,,,,,,,,,,,,,,,,,,,,,,,,,,,,,,,,,,,,,,,,,,,,,,,,,,,,,,,,,,
,,,,,,,,,66706bf3288568808d36ff2c,spanish,13 or older,"no, only English or Spanish",no,2025-08-12_15h25.12.117,empathy_intonation_perc,2024.2.4,Win32,20,66706bf3288568808d36ff2c,687ed1b7e638a4cbf2f02089,689b94db0b0e443391ea2cf6,,,,,,,,,,,,,,0,,./stim/wavs/peruvian_statement_filler_El-nino-habla-con-su-madre.wav,,,,,,,,,195.2671,201.4288,0,1,5.6227,,0,0,0,6,1,,,,,,,,,,,,,,,,,,,,,,,,,,,,,,,,,,,,,,,,,,,,,,,,,,,,,,,,,,,,,,,,,,,,,,,
,,,,,,,,,66706bf3288568808d36ff2c,spanish,13 or older,"no, only English or Spanish",no,2025-08-12_15h25.12.117,empathy_intonation_perc,2024.2.4,Win32,20,66706bf3288568808d36ff2c,687ed1b7e638a4cbf2f02089,689b94db0b0e443391ea2cf6,,,,,,,,,,,,,,1,,./stim/wavs/chilean_question_filler_Mi-padre-cantaba-bien.wav,,,,,,,,,201.4303,204.9169,1,1,2.9542,,0,1,1,2,1,,,,,,,,,,,,,,,,,,,,,,,,,,,,,,,,,,,,,,,,,,,,,,,,,,,,,,,,,,,,,,,,,,,,,,,
,,,,,,,,,66706bf3288568808d36ff2c,spanish,13 or older,"no, only English or Spanish",no,2025-08-12_15h25.12.117,empathy_intonation_perc,2024.2.4,Win32,20,66706bf3288568808d36ff2c,687ed1b7e638a4cbf2f02089,689b94db0b0e443391ea2cf6,,,,,,,,,,,,,,0,,./stim/wavs/puertorican_statement_filler_La-nina-pinta-con-su-amiga.wav,,,,,,,,,204.9186,208.4745,0,1,3.033,,0,2,2,7,1,,,,,,,,,,,,,,,,,,,,,,,,,,,,,,,,,,,,,,,,,,,,,,,,,,,,,,,,,,,,,,,,,,,,,,,
,,,,,,,,,66706bf3288568808d36ff2c,spanish,13 or older,"no, only English or Spanish",no,2025-08-12_15h25.12.117,empathy_intonation_perc,2024.2.4,Win32,20,66706bf3288568808d36ff2c,687ed1b7e638a4cbf2f02089,689b94db0b0e443391ea2cf6,,,,,,,,,,,,,,1,,./stim/wavs/castilian_question_filler_Mi-esposo-conoce-al-chico.wav,,,,,,,,,208.4762,212.9609,1,1,3.9658,,0,3,3,0,1,,,,,,,,,,,,,,,,,,,,,,,,,,,,,,,,,,,,,,,,,,,,,,,,,,,,,,,,,,,,,,,,,,,,,,,
,,,,,,,,,66706bf3288568808d36ff2c,spanish,13 or older,"no, only English or Spanish",no,2025-08-12_15h25.12.117,empathy_intonation_perc,2024.2.4,Win32,20,66706bf3288568808d36ff2c,687ed1b7e638a4cbf2f02089,689b94db0b0e443391ea2cf6,,,,,,,,,,,,,,1,,./stim/wavs/mexican_question_filler_Felipe-no-tiene-contrasena.wav,,,,,,,,,212.9617,217.0626,1,1,3.5727,,0,4,4,3,1,,,,,,,,,,,,,,,,,,,,,,,,,,,,,,,,,,,,,,,,,,,,,,,,,,,,,,,,,,,,,,,,,,,,,,,
,,,,,,,,,66706bf3288568808d36ff2c,spanish,13 or older,"no, only English or Spanish",no,2025-08-12_15h25.12.117,empathy_intonation_perc,2024.2.4,Win32,20,66706bf3288568808d36ff2c,687ed1b7e638a4cbf2f02089,689b94db0b0e443391ea2cf6,,,,,,,,,,,,,,1,,./stim/wavs/argentine_question_filler_Mi-vecino-habla-mucho.wav,,,,,,,,,217.0636,220.4957,1,1,2.9084,,0,5,5,1,1,,,,,,,,,,,,,,,,,,,,,,,,,,,,,,,,,,,,,,,,,,,,,,,,,,,,,,,,,,,,,,,,,,,,,,,
,,,,,,,,,66706bf3288568808d36ff2c,spanish,13 or older,"no, only English or Spanish",no,2025-08-12_15h25.12.117,empathy_intonation_perc,2024.2.4,Win32,20,66706bf3288568808d36ff2c,687ed1b7e638a4cbf2f02089,689b94db0b0e443391ea2cf6,,,,,,,,,,,,,,0,,./stim/wavs/cuban_statement_filler_Cocinabas-por-la-noche.wav,,,,,,,,,220.497,224.4192,0,1,3.3924,,0,6,6,4,1,,,,,,,,,,,,,,,,,,,,,,,,,,,,,,,,,,,,,,,,,,,,,,,,,,,,,,,,,,,,,,,,,,,,,,,
,,,,,,,,,66706bf3288568808d36ff2c,spanish,13 or older,"no, only English or Spanish",no,2025-08-12_15h25.12.117,empathy_intonation_perc,2024.2.4,Win32,20,66706bf3288568808d36ff2c,687ed1b7e638a4cbf2f02089,689b94db0b0e443391ea2cf6,,,,,,,,,,,,,,0,,./stim/wavs/andalusian_statement_filler_Alberto-nunca-se-afeita.wav,,,,,,,,,224.4202,229.7802,1,0,4.8386,,0,7,7,5,1,,,,,,,,,,,,,,,,,,,,,,,,,,,,,,,,,,,,,,,,,,,,,,,,,,,,,,,,,,,,,,,,,,,,,,,
,,,,,,,,,66706bf3288568808d36ff2c,spanish,13 or older,"no, only English or Spanish",no,2025-08-12_15h25.12.117,empathy_intonation_perc,2024.2.4,Win32,20,66706bf3288568808d36ff2c,687ed1b7e638a4cbf2f02089,689b94db0b0e443391ea2cf6,,,,,,,,,,,,,,,,,,,,,,,,,,,,,,,,,,,,229.7807,233.4789,,,,,,,,,,,,,,,,,,,,,,,,,,,,,,,,,,,,,,,,,,,,,,,,,,,,,,,,,,,,,,,,,,,,,
,,,,,,,,,66706bf3288568808d36ff2c,spanish,13 or older,"no, only English or Spanish",no,2025-08-12_15h25.12.117,empathy_intonation_perc,2024.2.4,Win32,20,66706bf3288568808d36ff2c,687ed1b7e638a4cbf2f02089,689b94db0b0e443391ea2cf6,,,,,,,,,,,,,67,0,,./stim/wavs/puertorican_match_declarative-broad-focus_Manuela-vende-el-carro.wav,,,,,,,,,,,,,,,,,,,,,,233.5041,237.0267,0,1,2.9945,,0,0,0,66,1,0,puertorican,,,,,,,,,,,,,,,,,,,,,,,,,,,,,,,,,,,,,,,,,,,,,,,,,,,,,,,,
,,,,,,,,,66706bf3288568808d36ff2c,spanish,13 or older,"no, only English or Spanish",no,2025-08-12_15h25.12.117,empathy_intonation_perc,2024.2.4,Win32,20,66706bf3288568808d36ff2c,687ed1b7e638a4cbf2f02089,689b94db0b0e443391ea2cf6,,,,,,,,,,,,,29,1,,./stim/wavs/castilian_mismatch_interrogative-total-yn_Mi-tia-odia-la-lluvia.wav,,,,,,,,,,,,,,,,,,,,,,237.0281,239.5957,1,1,2.0476,,0,1,1,28,1,0,castilian,,,,,,,,,,,,,,,,,,,,,,,,,,,,,,,,,,,,,,,,,,,,,,,,,,,,,,,,
,,,,,,,,,66706bf3288568808d36ff2c,spanish,13 or older,"no, only English or Spanish",no,2025-08-12_15h25.12.117,empathy_intonation_perc,2024.2.4,Win32,20,66706bf3288568808d36ff2c,687ed1b7e638a4cbf2f02089,689b94db0b0e443391ea2cf6,,,,,,,,,,,,,51,0,,./stim/wavs/cuban_match_declarative-broad-focus_Ana-lleva-el-abrigo.wav,,,,,,,,,,,,,,,,,,,,,,239.5966,242.386,1,0,2.268,,0,2,2,50,1,0,cuban,,,,,,,,,,,,,,,,,,,,,,,,,,,,,,,,,,,,,,,,,,,,,,,,,,,,,,,,
,,,,,,,,,66706bf3288568808d36ff2c,spanish,13 or older,"no, only English or Spanish",no,2025-08-12_15h25.12.117,empathy_intonation_perc,2024.2.4,Win32,20,66706bf3288568808d36ff2c,687ed1b7e638a4cbf2f02089,689b94db0b0e443391ea2cf6,,,,,,,,,,,,,13,1,,./stim/wavs/mexican_match_interrogative-total-yn_Ana-lleva-el-abrigo.wav,,,,,,,,,,,,,,,,,,,,,,242.387,244.4743,1,1,1.5454,,0,3,3,12,1,0,mexican,,,,,,,,,,,,,,,,,,,,,,,,,,,,,,,,,,,,,,,,,,,,,,,,,,,,,,,,
,,,,,,,,,66706bf3288568808d36ff2c,spanish,13 or older,"no, only English or Spanish",no,2025-08-12_15h25.12.117,empathy_intonation_perc,2024.2.4,Win32,20,66706bf3288568808d36ff2c,687ed1b7e638a4cbf2f02089,689b94db0b0e443391ea2cf6,,,,,,,,,,,,,85,0,,./stim/wavs/puertorican_mismatch_declarative-broad-focus_El-hombre-mira-la-luna.wav,,,,,,,,,,,,,,,,,,,,,,244.4752,247.5777,0,1,2.5566,,0,4,4,84,1,0,puertorican,,,,,,,,,,,,,,,,,,,,,,,,,,,,,,,,,,,,,,,,,,,,,,,,,,,,,,,,
,,,,,,,,,66706bf3288568808d36ff2c,spanish,13 or older,"no, only English or Spanish",no,2025-08-12_15h25.12.117,empathy_intonation_perc,2024.2.4,Win32,20,66706bf3288568808d36ff2c,687ed1b7e638a4cbf2f02089,689b94db0b0e443391ea2cf6,,,,,,,,,,,,,73,0,,./stim/wavs/castilian_mismatch_declarative-broad-focus_Mi-tia-odia-la-lluvia.wav,,,,,,,,,,,,,,,,,,,,,,247.5788,250.6444,0,1,2.5363,,0,5,5,72,1,0,castilian,,,,,,,,,,,,,,,,,,,,,,,,,,,,,,,,,,,,,,,,,,,,,,,,,,,,,,,,
,,,,,,,,,66706bf3288568808d36ff2c,spanish,13 or older,"no, only English or Spanish",no,2025-08-12_15h25.12.117,empathy_intonation_perc,2024.2.4,Win32,20,66706bf3288568808d36ff2c,687ed1b7e638a4cbf2f02089,689b94db0b0e443391ea2cf6,,,,,,,,,,,,,53,0,,./stim/wavs/cuban_match_declarative-broad-focus_Manuela-vende-el-carro.wav,,,,,,,,,,,,,,,,,,,,,,250.6454,253.8385,0,1,2.6683,,0,6,6,52,1,0,cuban,,,,,,,,,,,,,,,,,,,,,,,,,,,,,,,,,,,,,,,,,,,,,,,,,,,,,,,,
,,,,,,,,,66706bf3288568808d36ff2c,spanish,13 or older,"no, only English or Spanish",no,2025-08-12_15h25.12.117,empathy_intonation_perc,2024.2.4,Win32,20,66706bf3288568808d36ff2c,687ed1b7e638a4cbf2f02089,689b94db0b0e443391ea2cf6,,,,,,,,,,,,,11,1,,./stim/wavs/cuban_match_interrogative-total-yn_Mariano-habla-del-tiempo.wav,,,,,,,,,,,,,,,,,,,,,,253.8395,256.6183,1,1,2.252,,0,7,7,10,1,1,cuban,,,,,,,,,,,,,,,,,,,,,,,,,,,,,,,,,,,,,,,,,,,,,,,,,,,,,,,,
,,,,,,,,,66706bf3288568808d36ff2c,spanish,13 or older,"no, only English or Spanish",no,2025-08-12_15h25.12.117,empathy_intonation_perc,2024.2.4,Win32,20,66706bf3288568808d36ff2c,687ed1b7e638a4cbf2f02089,689b94db0b0e443391ea2cf6,,,,,,,,,,,,,88,0,,./stim/wavs/puertorican_mismatch_declarative-broad-focus_La-nina-lava-el-plato.wav,,,,,,,,,,,,,,,,,,,,,,256.6193,258.6651,1,0,1.5213,,0,8,8,87,1,0,puertorican,,,,,,,,,,,,,,,,,,,,,,,,,,,,,,,,,,,,,,,,,,,,,,,,,,,,,,,,
,,,,,,,,,66706bf3288568808d36ff2c,spanish,13 or older,"no, only English or Spanish",no,2025-08-12_15h25.12.117,empathy_intonation_perc,2024.2.4,Win32,20,66706bf3288568808d36ff2c,687ed1b7e638a4cbf2f02089,689b94db0b0e443391ea2cf6,,,,,,,,,,,,,9,1,,./stim/wavs/cuban_match_interrogative-total-yn_Manuela-vende-el-carro.wav,,,,,,,,,,,,,,,,,,,,,,258.6662,261.5126,0,0,2.2969,,0,9,9,8,1,1,cuban,,,,,,,,,,,,,,,,,,,,,,,,,,,,,,,,,,,,,,,,,,,,,,,,,,,,,,,,
,,,,,,,,,66706bf3288568808d36ff2c,spanish,13 or older,"no, only English or Spanish",no,2025-08-12_15h25.12.117,empathy_intonation_perc,2024.2.4,Win32,20,66706bf3288568808d36ff2c,687ed1b7e638a4cbf2f02089,689b94db0b0e443391ea2cf6,,,,,,,,,,,,,7,1,,./stim/wavs/cuban_match_interrogative-total-yn_Ana-lleva-el-abrigo.wav,,,,,,,,,,,,,,,,,,,,,,261.515,263.6001,0,0,1.5596,,0,10,10,6,1,1,cuban,,,,,,,,,,,,,,,,,,,,,,,,,,,,,,,,,,,,,,,,,,,,,,,,,,,,,,,,
,,,,,,,,,66706bf3288568808d36ff2c,spanish,13 or older,"no, only English or Spanish",no,2025-08-12_15h25.12.117,empathy_intonation_perc,2024.2.4,Win32,20,66706bf3288568808d36ff2c,687ed1b7e638a4cbf2f02089,689b94db0b0e443391ea2cf6,,,,,,,,,,,,,55,0,,./stim/wavs/cuban_match_declarative-broad-focus_Mariano-habla-del-tiempo.wav,,,,,,,,,,,,,,,,,,,,,,263.6013,266.3054,1,0,2.1593,,0,11,11,54,1,0,cuban,,,,,,,,,,,,,,,,,,,,,,,,,,,,,,,,,,,,,,,,,,,,,,,,,,,,,,,,
,,,,,,,,,66706bf3288568808d36ff2c,spanish,13 or older,"no, only English or Spanish",no,2025-08-12_15h25.12.117,empathy_intonation_perc,2024.2.4,Win32,20,66706bf3288568808d36ff2c,687ed1b7e638a4cbf2f02089,689b94db0b0e443391ea2cf6,,,,,,,,,,,,,84,0,,./stim/wavs/puertorican_mismatch_declarative-broad-focus_El-bebe-comia-muy-bien.wav,,,,,,,,,,,,,,,,,,,,,,266.3064,270.6921,0,1,3.82,,0,12,12,83,1,0,puertorican,,,,,,,,,,,,,,,,,,,,,,,,,,,,,,,,,,,,,,,,,,,,,,,,,,,,,,,,
,,,,,,,,,66706bf3288568808d36ff2c,spanish,13 or older,"no, only English or Spanish",no,2025-08-12_15h25.12.117,empathy_intonation_perc,2024.2.4,Win32,20,66706bf3288568808d36ff2c,687ed1b7e638a4cbf2f02089,689b94db0b0e443391ea2cf6,,,,,,,,,,,,,32,1,,./stim/wavs/cuban_mismatch_interrogative-total-yn_Mi-madre-come-la-fruta.wav,,,,,,,,,,,,,,,,,,,,,,270.6934,274.3789,0,0,3.147,,0,13,13,31,1,1,cuban,,,,,,,,,,,,,,,,,,,,,,,,,,,,,,,,,,,,,,,,,,,,,,,,,,,,,,,,
,,,,,,,,,66706bf3288568808d36ff2c,spanish,13 or older,"no, only English or Spanish",no,2025-08-12_15h25.12.117,empathy_intonation_perc,2024.2.4,Win32,20,66706bf3288568808d36ff2c,687ed1b7e638a4cbf2f02089,689b94db0b0e443391ea2cf6,,,,,,,,,,,,,57,0,,./stim/wavs/mexican_match_declarative-broad-focus_Ana-lleva-el-abrigo.wav,,,,,,,,,,,,,,,,,,,,,,274.38,277.3219,1,0,2.4092,,0,14,14,56,1,0,mexican,,,,,,,,,,,,,,,,,,,,,,,,,,,,,,,,,,,,,,,,,,,,,,,,,,,,,,,,
,,,,,,,,,66706bf3288568808d36ff2c,spanish,13 or older,"no, only English or Spanish",no,2025-08-12_15h25.12.117,empathy_intonation_perc,2024.2.4,Win32,20,66706bf3288568808d36ff2c,687ed1b7e638a4cbf2f02089,689b94db0b0e443391ea2cf6,,,,,,,,,,,,,15,1,,./stim/wavs/mexican_match_interrogative-total-yn_David-leia-el-libro.wav,,,,,,,,,,,,,,,,,,,,,,277.3229,279.7746,1,1,1.9178,,0,15,15,14,1,0,mexican,,,,,,,,,,,,,,,,,,,,,,,,,,,,,,,,,,,,,,,,,,,,,,,,,,,,,,,,
,,,,,,,,,66706bf3288568808d36ff2c,spanish,13 or older,"no, only English or Spanish",no,2025-08-12_15h25.12.117,empathy_intonation_perc,2024.2.4,Win32,20,66706bf3288568808d36ff2c,687ed1b7e638a4cbf2f02089,689b94db0b0e443391ea2cf6,,,,,,,,,,,,,25,1,,./stim/wavs/castilian_mismatch_interrogative-total-yn_La-maestra-vive-en-Paris.wav,,,,,,,,,,,,,,,,,,,,,,279.7755,282.5591,1,1,2.2664,,0,16,16,24,1,0,castilian,,,,,,,,,,,,,,,,,,,,,,,,,,,,,,,,,,,,,,,,,,,,,,,,,,,,,,,,
,,,,,,,,,66706bf3288568808d36ff2c,spanish,13 or older,"no, only English or Spanish",no,2025-08-12_15h25.12.117,empathy_intonation_perc,2024.2.4,Win32,20,66706bf3288568808d36ff2c,687ed1b7e638a4cbf2f02089,689b94db0b0e443391ea2cf6,,,,,,,,,,,,,22,1,,./stim/wavs/puertorican_match_interrogative-total-yn_Emilio-ama-la-marcha.wav,,,,,,,,,,,,,,,,,,,,,,282.5601,285.001,0,0,1.914,,0,17,17,21,1,1,puertorican,,,,,,,,,,,,,,,,,,,,,,,,,,,,,,,,,,,,,,,,,,,,,,,,,,,,,,,,
,,,,,,,,,66706bf3288568808d36ff2c,spanish,13 or older,"no, only English or Spanish",no,2025-08-12_15h25.12.117,empathy_intonation_perc,2024.2.4,Win32,20,66706bf3288568808d36ff2c,687ed1b7e638a4cbf2f02089,689b94db0b0e443391ea2cf6,,,,,,,,,,,,,36,1,,./stim/wavs/mexican_mismatch_interrogative-total-yn_El-nino-oye-el-rio.wav,,,,,,,,,,,,,,,,,,,,,,285.0022,287.6335,0,0,2.1002,,0,18,18,35,1,0,mexican,,,,,,,,,,,,,,,,,,,,,,,,,,,,,,,,,,,,,,,,,,,,,,,,,,,,,,,,
,,,,,,,,,66706bf3288568808d36ff2c,spanish,13 or older,"no, only English or Spanish",no,2025-08-12_15h25.12.117,empathy_intonation_perc,2024.2.4,Win32,20,66706bf3288568808d36ff2c,687ed1b7e638a4cbf2f02089,689b94db0b0e443391ea2cf6,,,,,,,,,,,,,43,1,,./stim/wavs/puertorican_mismatch_interrogative-total-yn_La-nina-lava-el-plato.wav,,,,,,,,,,,,,,,,,,,,,,287.6346,290.3636,1,1,2.1618,,0,19,19,42,1,1,puertorican,,,,,,,,,,,,,,,,,,,,,,,,,,,,,,,,,,,,,,,,,,,,,,,,,,,,,,,,
,,,,,,,,,66706bf3288568808d36ff2c,spanish,13 or older,"no, only English or Spanish",no,2025-08-12_15h25.12.117,empathy_intonation_perc,2024.2.4,Win32,20,66706bf3288568808d36ff2c,687ed1b7e638a4cbf2f02089,689b94db0b0e443391ea2cf6,,,,,,,,,,,,,62,0,,./stim/wavs/mexican_match_declarative-broad-focus_Marta-abre-el-regalo.wav,,,,,,,,,,,,,,,,,,,,,,290.3646,292.7207,0,1,1.8123,,0,20,20,61,1,0,mexican,,,,,,,,,,,,,,,,,,,,,,,,,,,,,,,,,,,,,,,,,,,,,,,,,,,,,,,,
,,,,,,,,,66706bf3288568808d36ff2c,spanish,13 or older,"no, only English or Spanish",no,2025-08-12_15h25.12.117,empathy_intonation_perc,2024.2.4,Win32,20,66706bf3288568808d36ff2c,687ed1b7e638a4cbf2f02089,689b94db0b0e443391ea2cf6,,,,,,,,,,,,,86,0,,./stim/wavs/puertorican_mismatch_declarative-broad-focus_El-nino-oye-el-rio.wav,,,,,,,,,,,,,,,,,,,,,,292.7217,295.4233,1,0,2.1427,,0,21,21,85,1,0,puertorican,,,,,,,,,,,,,,,,,,,,,,,,,,,,,,,,,,,,,,,,,,,,,,,,,,,,,,,,
,,,,,,,,,66706bf3288568808d36ff2c,spanish,13 or older,"no, only English or Spanish",no,2025-08-12_15h25.12.117,empathy_intonation_perc,2024.2.4,Win32,20,66706bf3288568808d36ff2c,687ed1b7e638a4cbf2f02089,689b94db0b0e443391ea2cf6,,,,,,,,,,,,,78,0,,./stim/wavs/cuban_mismatch_declarative-broad-focus_Mi-tia-odia-la-lluvia.wav,,,,,,,,,,,,,,,,,,,,,,295.4244,297.8245,0,1,1.8599,,0,22,22,77,1,0,cuban,,,,,,,,,,,,,,,,,,,,,,,,,,,,,,,,,,,,,,,,,,,,,,,,,,,,,,,,
,,,,,,,,,66706bf3288568808d36ff2c,spanish,13 or older,"no, only English or Spanish",no,2025-08-12_15h25.12.117,empathy_intonation_perc,2024.2.4,Win32,20,66706bf3288568808d36ff2c,687ed1b7e638a4cbf2f02089,689b94db0b0e443391ea2cf6,,,,,,,,,,,,,23,1,,./stim/wavs/puertorican_match_interrogative-total-yn_Manuela-vende-el-carro.wav,,,,,,,,,,,,,,,,,,,,,,297.8256,300.4335,1,1,2.0085,,0,23,23,22,1,1,puertorican,,,,,,,,,,,,,,,,,,,,,,,,,,,,,,,,,,,,,,,,,,,,,,,,,,,,,,,,
,,,,,,,,,66706bf3288568808d36ff2c,spanish,13 or older,"no, only English or Spanish",no,2025-08-12_15h25.12.117,empathy_intonation_perc,2024.2.4,Win32,20,66706bf3288568808d36ff2c,687ed1b7e638a4cbf2f02089,689b94db0b0e443391ea2cf6,,,,,,,,,,,,,71,0,,./stim/wavs/castilian_mismatch_declarative-broad-focus_La-nina-lava-el-plato.wav,,,,,,,,,,,,,,,,,,,,,,300.4346,303.1272,0,1,2.1215,,0,24,24,70,1,0,castilian,,,,,,,,,,,,,,,,,,,,,,,,,,,,,,,,,,,,,,,,,,,,,,,,,,,,,,,,
,,,,,,,,,66706bf3288568808d36ff2c,spanish,13 or older,"no, only English or Spanish",no,2025-08-12_15h25.12.117,empathy_intonation_perc,2024.2.4,Win32,20,66706bf3288568808d36ff2c,687ed1b7e638a4cbf2f02089,689b94db0b0e443391ea2cf6,,,,,,,,,,,,,34,1,,./stim/wavs/cuban_mismatch_interrogative-total-yn_Mi-tia-odia-la-lluvia.wav,,,,,,,,,,,,,,,,,,,,,,303.1285,305.8582,0,0,2.2086,,0,25,25,33,1,1,cuban,,,,,,,,,,,,,,,,,,,,,,,,,,,,,,,,,,,,,,,,,,,,,,,,,,,,,,,,
,,,,,,,,,66706bf3288568808d36ff2c,spanish,13 or older,"no, only English or Spanish",no,2025-08-12_15h25.12.117,empathy_intonation_perc,2024.2.4,Win32,20,66706bf3288568808d36ff2c,687ed1b7e638a4cbf2f02089,689b94db0b0e443391ea2cf6,,,,,,,,,,,,,68,0,,./stim/wavs/puertorican_match_declarative-broad-focus_Maria-bebe-el-vino.wav,,,,,,,,,,,,,,,,,,,,,,305.8592,308.2686,1,0,1.8758,,0,26,26,67,1,0,puertorican,,,,,,,,,,,,,,,,,,,,,,,,,,,,,,,,,,,,,,,,,,,,,,,,,,,,,,,,
,,,,,,,,,66706bf3288568808d36ff2c,spanish,13 or older,"no, only English or Spanish",no,2025-08-12_15h25.12.117,empathy_intonation_perc,2024.2.4,Win32,20,66706bf3288568808d36ff2c,687ed1b7e638a4cbf2f02089,689b94db0b0e443391ea2cf6,,,,,,,,,,,,,12,1,,./stim/wavs/cuban_match_interrogative-total-yn_Marta-abre-el-regalo.wav,,,,,,,,,,,,,,,,,,,,,,308.2699,311.521,0,0,2.6782,,0,27,27,11,1,1,cuban,,,,,,,,,,,,,,,,,,,,,,,,,,,,,,,,,,,,,,,,,,,,,,,,,,,,,,,,
,,,,,,,,,66706bf3288568808d36ff2c,spanish,13 or older,"no, only English or Spanish",no,2025-08-12_15h25.12.117,empathy_intonation_perc,2024.2.4,Win32,20,66706bf3288568808d36ff2c,687ed1b7e638a4cbf2f02089,689b94db0b0e443391ea2cf6,,,,,,,,,,,,,33,1,,./stim/wavs/cuban_mismatch_interrogative-total-yn_Mi-novio-viene-del-lago.wav,,,,,,,,,,,,,,,,,,,,,,311.5222,314.0644,1,1,1.941,,0,28,28,32,1,1,cuban,,,,,,,,,,,,,,,,,,,,,,,,,,,,,,,,,,,,,,,,,,,,,,,,,,,,,,,,
,,,,,,,,,66706bf3288568808d36ff2c,spanish,13 or older,"no, only English or Spanish",no,2025-08-12_15h25.12.117,empathy_intonation_perc,2024.2.4,Win32,20,66706bf3288568808d36ff2c,687ed1b7e638a4cbf2f02089,689b94db0b0e443391ea2cf6,,,,,,,,,,,,,54,0,,./stim/wavs/cuban_match_declarative-broad-focus_Maria-bebe-el-vino.wav,,,,,,,,,,,,,,,,,,,,,,314.0655,316.2625,0,1,1.6628,,0,29,29,53,1,0,cuban,,,,,,,,,,,,,,,,,,,,,,,,,,,,,,,,,,,,,,,,,,,,,,,,,,,,,,,,
,,,,,,,,,66706bf3288568808d36ff2c,spanish,13 or older,"no, only English or Spanish",no,2025-08-12_15h25.12.117,empathy_intonation_perc,2024.2.4,Win32,20,66706bf3288568808d36ff2c,687ed1b7e638a4cbf2f02089,689b94db0b0e443391ea2cf6,,,,,,,,,,,,,66,0,,./stim/wavs/puertorican_match_declarative-broad-focus_Emilio-ama-la-marcha.wav,,,,,,,,,,,,,,,,,,,,,,316.2637,319.5459,1,0,2.7272,,0,30,30,65,1,0,puertorican,,,,,,,,,,,,,,,,,,,,,,,,,,,,,,,,,,,,,,,,,,,,,,,,,,,,,,,,
,,,,,,,,,66706bf3288568808d36ff2c,spanish,13 or older,"no, only English or Spanish",no,2025-08-12_15h25.12.117,empathy_intonation_perc,2024.2.4,Win32,20,66706bf3288568808d36ff2c,687ed1b7e638a4cbf2f02089,689b94db0b0e443391ea2cf6,,,,,,,,,,,,,81,0,,./stim/wavs/mexican_mismatch_declarative-broad-focus_La-maestra-vive-en-Paris.wav,,,,,,,,,,,,,,,,,,,,,,319.5474,321.9236,1,0,1.8088,,0,31,31,80,1,0,mexican,,,,,,,,,,,,,,,,,,,,,,,,,,,,,,,,,,,,,,,,,,,,,,,,,,,,,,,,
,,,,,,,,,66706bf3288568808d36ff2c,spanish,13 or older,"no, only English or Spanish",no,2025-08-12_15h25.12.117,empathy_intonation_perc,2024.2.4,Win32,20,66706bf3288568808d36ff2c,687ed1b7e638a4cbf2f02089,689b94db0b0e443391ea2cf6,,,,,,,,,,,,,74,0,,./stim/wavs/cuban_mismatch_declarative-broad-focus_El-bebe-comia-muy-bien.wav,,,,,,,,,,,,,,,,,,,,,,321.9249,323.8045,0,1,1.3359,,0,32,32,73,1,0,cuban,,,,,,,,,,,,,,,,,,,,,,,,,,,,,,,,,,,,,,,,,,,,,,,,,,,,,,,,
,,,,,,,,,66706bf3288568808d36ff2c,spanish,13 or older,"no, only English or Spanish",no,2025-08-12_15h25.12.117,empathy_intonation_perc,2024.2.4,Win32,20,66706bf3288568808d36ff2c,687ed1b7e638a4cbf2f02089,689b94db0b0e443391ea2cf6,,,,,,,,,,,,,49,0,,./stim/wavs/castilian_match_declarative-broad-focus_Mariano-habla-del-tiempo.wav,,,,,,,,,,,,,,,,,,,,,,323.8065,327.0769,1,0,2.7054,,0,33,33,48,1,0,castilian,,,,,,,,,,,,,,,,,,,,,,,,,,,,,,,,,,,,,,,,,,,,,,,,,,,,,,,,
,,,,,,,,,66706bf3288568808d36ff2c,spanish,13 or older,"no, only English or Spanish",no,2025-08-12_15h25.12.117,empathy_intonation_perc,2024.2.4,Win32,20,66706bf3288568808d36ff2c,687ed1b7e638a4cbf2f02089,689b94db0b0e443391ea2cf6,,,,,,,,,,,,,82,0,,./stim/wavs/mexican_mismatch_declarative-broad-focus_Mi-novio-viene-del-lago.wav,,,,,,,,,,,,,,,,,,,,,,327.079,329.4733,0,1,1.8494,,0,34,34,81,1,0,mexican,,,,,,,,,,,,,,,,,,,,,,,,,,,,,,,,,,,,,,,,,,,,,,,,,,,,,,,,
,,,,,,,,,66706bf3288568808d36ff2c,spanish,13 or older,"no, only English or Spanish",no,2025-08-12_15h25.12.117,empathy_intonation_perc,2024.2.4,Win32,20,66706bf3288568808d36ff2c,687ed1b7e638a4cbf2f02089,689b94db0b0e443391ea2cf6,,,,,,,,,,,,,17,1,,./stim/wavs/mexican_match_interrogative-total-yn_Mariano-habla-del-tiempo.wav,,,,,,,,,,,,,,,,,,,,,,329.4752,332.3777,1,1,2.3392,,0,35,35,16,1,0,mexican,,,,,,,,,,,,,,,,,,,,,,,,,,,,,,,,,,,,,,,,,,,,,,,,,,,,,,,,
,,,,,,,,,66706bf3288568808d36ff2c,spanish,13 or older,"no, only English or Spanish",no,2025-08-12_15h25.12.117,empathy_intonation_perc,2024.2.4,Win32,20,66706bf3288568808d36ff2c,687ed1b7e638a4cbf2f02089,689b94db0b0e443391ea2cf6,,,,,,,,,,,,,75,0,,./stim/wavs/cuban_mismatch_declarative-broad-focus_El-hombre-mira-la-luna.wav,,,,,,,,,,,,,,,,,,,,,,332.379,335.1688,0,1,2.2313,,0,36,36,74,1,0,cuban,,,,,,,,,,,,,,,,,,,,,,,,,,,,,,,,,,,,,,,,,,,,,,,,,,,,,,,,
,,,,,,,,,66706bf3288568808d36ff2c,spanish,13 or older,"no, only English or Spanish",no,2025-08-12_15h25.12.117,empathy_intonation_perc,2024.2.4,Win32,20,66706bf3288568808d36ff2c,687ed1b7e638a4cbf2f02089,689b94db0b0e443391ea2cf6,,,,,,,,,,,,,8,1,,./stim/wavs/cuban_match_interrogative-total-yn_Daniel-iba-a-Bolivia.wav,,,,,,,,,,,,,,,,,,,,,,335.1704,338.2835,0,0,2.5118,,0,37,37,7,1,1,cuban,,,,,,,,,,,,,,,,,,,,,,,,,,,,,,,,,,,,,,,,,,,,,,,,,,,,,,,,
,,,,,,,,,66706bf3288568808d36ff2c,spanish,13 or older,"no, only English or Spanish",no,2025-08-12_15h25.12.117,empathy_intonation_perc,2024.2.4,Win32,20,66706bf3288568808d36ff2c,687ed1b7e638a4cbf2f02089,689b94db0b0e443391ea2cf6,,,,,,,,,,,,,64,0,,./stim/wavs/puertorican_match_declarative-broad-focus_Daniel-iba-a-Bolivia.wav,,,,,,,,,,,,,,,,,,,,,,338.2848,340.5808,0,1,1.737,,0,38,38,63,1,0,puertorican,,,,,,,,,,,,,,,,,,,,,,,,,,,,,,,,,,,,,,,,,,,,,,,,,,,,,,,,
,,,,,,,,,66706bf3288568808d36ff2c,spanish,13 or older,"no, only English or Spanish",no,2025-08-12_15h25.12.117,empathy_intonation_perc,2024.2.4,Win32,20,66706bf3288568808d36ff2c,687ed1b7e638a4cbf2f02089,689b94db0b0e443391ea2cf6,,,,,,,,,,,,,24,1,,./stim/wavs/puertorican_match_interrogative-total-yn_Maria-bebe-el-vino.wav,,,,,,,,,,,,,,,,,,,,,,340.5826,342.5107,1,1,1.3667,,0,39,39,23,1,1,puertorican,,,,,,,,,,,,,,,,,,,,,,,,,,,,,,,,,,,,,,,,,,,,,,,,,,,,,,,,
,,,,,,,,,66706bf3288568808d36ff2c,spanish,13 or older,"no, only English or Spanish",no,2025-08-12_15h25.12.117,empathy_intonation_perc,2024.2.4,Win32,20,66706bf3288568808d36ff2c,687ed1b7e638a4cbf2f02089,689b94db0b0e443391ea2cf6,,,,,,,,,,,,,18,1,,./stim/wavs/mexican_match_interrogative-total-yn_Marta-abre-el-regalo.wav,,,,,,,,,,,,,,,,,,,,,,342.5122,344.6833,1,1,1.6069,,0,40,40,17,1,0,mexican,,,,,,,,,,,,,,,,,,,,,,,,,,,,,,,,,,,,,,,,,,,,,,,,,,,,,,,,
,,,,,,,,,66706bf3288568808d36ff2c,spanish,13 or older,"no, only English or Spanish",no,2025-08-12_15h25.12.117,empathy_intonation_perc,2024.2.4,Win32,20,66706bf3288568808d36ff2c,687ed1b7e638a4cbf2f02089,689b94db0b0e443391ea2cf6,,,,,,,,,,,,,70,0,,./stim/wavs/castilian_mismatch_declarative-broad-focus_La-maestra-vive-en-Paris.wav,,,,,,,,,,,,,,,,,,,,,,344.6853,347.8399,0,1,2.5361,,0,41,41,69,1,0,castilian,,,,,,,,,,,,,,,,,,,,,,,,,,,,,,,,,,,,,,,,,,,,,,,,,,,,,,,,
,,,,,,,,,66706bf3288568808d36ff2c,spanish,13 or older,"no, only English or Spanish",no,2025-08-12_15h25.12.117,empathy_intonation_perc,2024.2.4,Win32,20,66706bf3288568808d36ff2c,687ed1b7e638a4cbf2f02089,689b94db0b0e443391ea2cf6,,,,,,,,,,,,,39,1,,./stim/wavs/mexican_mismatch_interrogative-total-yn_Mi-tia-odia-la-lluvia.wav,,,,,,,,,,,,,,,,,,,,,,347.8411,350.5521,1,1,2.1684,,0,42,42,38,1,0,mexican,,,,,,,,,,,,,,,,,,,,,,,,,,,,,,,,,,,,,,,,,,,,,,,,,,,,,,,,
,,,,,,,,,66706bf3288568808d36ff2c,spanish,13 or older,"no, only English or Spanish",no,2025-08-12_15h25.12.117,empathy_intonation_perc,2024.2.4,Win32,20,66706bf3288568808d36ff2c,687ed1b7e638a4cbf2f02089,689b94db0b0e443391ea2cf6,,,,,,,,,,,,,30,1,,./stim/wavs/cuban_mismatch_interrogative-total-yn_El-hombre-mira-la-luna.wav,,,,,,,,,,,,,,,,,,,,,,350.5535,354.0326,0,0,2.9182,,0,43,43,29,1,1,cuban,,,,,,,,,,,,,,,,,,,,,,,,,,,,,,,,,,,,,,,,,,,,,,,,,,,,,,,,
,,,,,,,,,66706bf3288568808d36ff2c,spanish,13 or older,"no, only English or Spanish",no,2025-08-12_15h25.12.117,empathy_intonation_perc,2024.2.4,Win32,20,66706bf3288568808d36ff2c,687ed1b7e638a4cbf2f02089,689b94db0b0e443391ea2cf6,,,,,,,,,,,,,50,0,,./stim/wavs/castilian_match_declarative-broad-focus_Marta-abre-el-regalo.wav,,,,,,,,,,,,,,,,,,,,,,354.0343,356.7119,0,1,2.1529,,0,44,44,49,1,0,castilian,,,,,,,,,,,,,,,,,,,,,,,,,,,,,,,,,,,,,,,,,,,,,,,,,,,,,,,,
,,,,,,,,,66706bf3288568808d36ff2c,spanish,13 or older,"no, only English or Spanish",no,2025-08-12_15h25.12.117,empathy_intonation_perc,2024.2.4,Win32,20,66706bf3288568808d36ff2c,687ed1b7e638a4cbf2f02089,689b94db0b0e443391ea2cf6,,,,,,,,,,,,,4,1,,./stim/wavs/castilian_match_interrogative-total-yn_Maria-bebe-el-vino.wav,,,,,,,,,,,,,,,,,,,,,,356.7132,358.6363,1,1,1.3901,,0,45,45,3,1,0,castilian,,,,,,,,,,,,,,,,,,,,,,,,,,,,,,,,,,,,,,,,,,,,,,,,,,,,,,,,
,,,,,,,,,66706bf3288568808d36ff2c,spanish,13 or older,"no, only English or Spanish",no,2025-08-12_15h25.12.117,empathy_intonation_perc,2024.2.4,Win32,20,66706bf3288568808d36ff2c,687ed1b7e638a4cbf2f02089,689b94db0b0e443391ea2cf6,,,,,,,,,,,,,21,1,,./stim/wavs/puertorican_match_interrogative-total-yn_David-leia-el-libro.wav,,,,,,,,,,,,,,,,,,,,,,358.6382,360.96,0,0,1.7625,,0,46,46,20,1,1,puertorican,,,,,,,,,,,,,,,,,,,,,,,,,,,,,,,,,,,,,,,,,,,,,,,,,,,,,,,,
,,,,,,,,,66706bf3288568808d36ff2c,spanish,13 or older,"no, only English or Spanish",no,2025-08-12_15h25.12.117,empathy_intonation_perc,2024.2.4,Win32,20,66706bf3288568808d36ff2c,687ed1b7e638a4cbf2f02089,689b94db0b0e443391ea2cf6,,,,,,,,,,,,,87,0,,./stim/wavs/puertorican_mismatch_declarative-broad-focus_La-maestra-vive-en-Paris.wav,,,,,,,,,,,,,,,,,,,,,,360.9618,364.8712,0,1,3.3267,,0,47,47,86,1,0,puertorican,,,,,,,,,,,,,,,,,,,,,,,,,,,,,,,,,,,,,,,,,,,,,,,,,,,,,,,,
,,,,,,,,,66706bf3288568808d36ff2c,spanish,13 or older,"no, only English or Spanish",no,2025-08-12_15h25.12.117,empathy_intonation_perc,2024.2.4,Win32,20,66706bf3288568808d36ff2c,687ed1b7e638a4cbf2f02089,689b94db0b0e443391ea2cf6,,,,,,,,,,,,,38,1,,./stim/wavs/mexican_mismatch_interrogative-total-yn_Mi-novio-viene-del-lago.wav,,,,,,,,,,,,,,,,,,,,,,364.8729,367.1967,1,1,1.7603,,0,48,48,37,1,0,mexican,,,,,,,,,,,,,,,,,,,,,,,,,,,,,,,,,,,,,,,,,,,,,,,,,,,,,,,,
,,,,,,,,,66706bf3288568808d36ff2c,spanish,13 or older,"no, only English or Spanish",no,2025-08-12_15h25.12.117,empathy_intonation_perc,2024.2.4,Win32,20,66706bf3288568808d36ff2c,687ed1b7e638a4cbf2f02089,689b94db0b0e443391ea2cf6,,,,,,,,,,,,,52,0,,./stim/wavs/cuban_match_declarative-broad-focus_Daniel-iba-a-Bolivia.wav,,,,,,,,,,,,,,,,,,,,,,367.1982,369.9698,0,1,2.2169,,0,49,49,51,1,0,cuban,,,,,,,,,,,,,,,,,,,,,,,,,,,,,,,,,,,,,,,,,,,,,,,,,,,,,,,,
,,,,,,,,,66706bf3288568808d36ff2c,spanish,13 or older,"no, only English or Spanish",no,2025-08-12_15h25.12.117,empathy_intonation_perc,2024.2.4,Win32,20,66706bf3288568808d36ff2c,687ed1b7e638a4cbf2f02089,689b94db0b0e443391ea2cf6,,,,,,,,,,,,,10,1,,./stim/wavs/cuban_match_interrogative-total-yn_Maria-bebe-el-vino.wav,,,,,,,,,,,,,,,,,,,,,,369.9712,372.3921,0,0,1.8276,,0,50,50,9,1,1,cuban,,,,,,,,,,,,,,,,,,,,,,,,,,,,,,,,,,,,,,,,,,,,,,,,,,,,,,,,
,,,,,,,,,66706bf3288568808d36ff2c,spanish,13 or older,"no, only English or Spanish",no,2025-08-12_15h25.12.117,empathy_intonation_perc,2024.2.4,Win32,20,66706bf3288568808d36ff2c,687ed1b7e638a4cbf2f02089,689b94db0b0e443391ea2cf6,,,,,,,,,,,,,56,0,,./stim/wavs/cuban_match_declarative-broad-focus_Marta-abre-el-regalo.wav,,,,,,,,,,,,,,,,,,,,,,372.3933,375.2359,0,1,2.2718,,0,51,51,55,1,0,cuban,,,,,,,,,,,,,,,,,,,,,,,,,,,,,,,,,,,,,,,,,,,,,,,,,,,,,,,,
,,,,,,,,,66706bf3288568808d36ff2c,spanish,13 or older,"no, only English or Spanish",no,2025-08-12_15h25.12.117,empathy_intonation_perc,2024.2.4,Win32,20,66706bf3288568808d36ff2c,687ed1b7e638a4cbf2f02089,689b94db0b0e443391ea2cf6,,,,,,,,,,,,,5,1,,./stim/wavs/castilian_match_interrogative-total-yn_Mariano-habla-del-tiempo.wav,,,,,,,,,,,,,,,,,,,,,,375.2371,377.9168,1,1,2.1372,,0,52,52,4,1,0,castilian,,,,,,,,,,,,,,,,,,,,,,,,,,,,,,,,,,,,,,,,,,,,,,,,,,,,,,,,
,,,,,,,,,66706bf3288568808d36ff2c,spanish,13 or older,"no, only English or Spanish",no,2025-08-12_15h25.12.117,empathy_intonation_perc,2024.2.4,Win32,20,66706bf3288568808d36ff2c,687ed1b7e638a4cbf2f02089,689b94db0b0e443391ea2cf6,,,,,,,,,,,,,20,1,,./stim/wavs/puertorican_match_interrogative-total-yn_Daniel-iba-a-Bolivia.wav,,,,,,,,,,,,,,,,,,,,,,377.9179,380.6533,1,1,2.2215,,0,53,53,19,1,1,puertorican,,,,,,,,,,,,,,,,,,,,,,,,,,,,,,,,,,,,,,,,,,,,,,,,,,,,,,,,
,,,,,,,,,66706bf3288568808d36ff2c,spanish,13 or older,"no, only English or Spanish",no,2025-08-12_15h25.12.117,empathy_intonation_perc,2024.2.4,Win32,20,66706bf3288568808d36ff2c,687ed1b7e638a4cbf2f02089,689b94db0b0e443391ea2cf6,,,,,,,,,,,,,72,0,,./stim/wavs/castilian_mismatch_declarative-broad-focus_Mi-novio-viene-del-lago.wav,,,,,,,,,,,,,,,,,,,,,,380.6544,383.4731,0,1,2.2382,,0,54,54,71,1,0,castilian,,,,,,,,,,,,,,,,,,,,,,,,,,,,,,,,,,,,,,,,,,,,,,,,,,,,,,,,
,,,,,,,,,66706bf3288568808d36ff2c,spanish,13 or older,"no, only English or Spanish",no,2025-08-12_15h25.12.117,empathy_intonation_perc,2024.2.4,Win32,20,66706bf3288568808d36ff2c,687ed1b7e638a4cbf2f02089,689b94db0b0e443391ea2cf6,,,,,,,,,,,,,14,1,,./stim/wavs/mexican_match_interrogative-total-yn_Daniel-iba-a-Bolivia.wav,,,,,,,,,,,,,,,,,,,,,,383.4743,386.0244,0,0,1.9813,,0,55,55,13,1,0,mexican,,,,,,,,,,,,,,,,,,,,,,,,,,,,,,,,,,,,,,,,,,,,,,,,,,,,,,,,
,,,,,,,,,66706bf3288568808d36ff2c,spanish,13 or older,"no, only English or Spanish",no,2025-08-12_15h25.12.117,empathy_intonation_perc,2024.2.4,Win32,20,66706bf3288568808d36ff2c,687ed1b7e638a4cbf2f02089,689b94db0b0e443391ea2cf6,,,,,,,,,,,,,60,0,,./stim/wavs/mexican_match_declarative-broad-focus_Emilio-ama-la-marcha.wav,,,,,,,,,,,,,,,,,,,,,,386.0255,388.9661,0,1,2.4142,,0,56,56,59,1,0,mexican,,,,,,,,,,,,,,,,,,,,,,,,,,,,,,,,,,,,,,,,,,,,,,,,,,,,,,,,
,,,,,,,,,66706bf3288568808d36ff2c,spanish,13 or older,"no, only English or Spanish",no,2025-08-12_15h25.12.117,empathy_intonation_perc,2024.2.4,Win32,20,66706bf3288568808d36ff2c,687ed1b7e638a4cbf2f02089,689b94db0b0e443391ea2cf6,,,,,,,,,,,,,27,1,,./stim/wavs/castilian_mismatch_interrogative-total-yn_Mi-madre-come-la-fruta.wav,,,,,,,,,,,,,,,,,,,,,,388.9677,391.5949,1,1,2.0751,,0,57,57,26,1,0,castilian,,,,,,,,,,,,,,,,,,,,,,,,,,,,,,,,,,,,,,,,,,,,,,,,,,,,,,,,
,,,,,,,,,66706bf3288568808d36ff2c,spanish,13 or older,"no, only English or Spanish",no,2025-08-12_15h25.12.117,empathy_intonation_perc,2024.2.4,Win32,20,66706bf3288568808d36ff2c,687ed1b7e638a4cbf2f02089,689b94db0b0e443391ea2cf6,,,,,,,,,,,,,1,1,,./stim/wavs/castilian_match_interrogative-total-yn_David-leia-el-libro.wav,,,,,,,,,,,,,,,,,,,,,,391.596,393.8231,1,1,1.6909,,0,58,58,0,1,0,castilian,,,,,,,,,,,,,,,,,,,,,,,,,,,,,,,,,,,,,,,,,,,,,,,,,,,,,,,,
,,,,,,,,,66706bf3288568808d36ff2c,spanish,13 or older,"no, only English or Spanish",no,2025-08-12_15h25.12.117,empathy_intonation_perc,2024.2.4,Win32,20,66706bf3288568808d36ff2c,687ed1b7e638a4cbf2f02089,689b94db0b0e443391ea2cf6,,,,,,,,,,,,,45,0,,./stim/wavs/castilian_match_declarative-broad-focus_David-leia-el-libro.wav,,,,,,,,,,,,,,,,,,,,,,393.8243,396.5136,1,0,2.1338,,0,59,59,44,1,0,castilian,,,,,,,,,,,,,,,,,,,,,,,,,,,,,,,,,,,,,,,,,,,,,,,,,,,,,,,,
,,,,,,,,,66706bf3288568808d36ff2c,spanish,13 or older,"no, only English or Spanish",no,2025-08-12_15h25.12.117,empathy_intonation_perc,2024.2.4,Win32,20,66706bf3288568808d36ff2c,687ed1b7e638a4cbf2f02089,689b94db0b0e443391ea2cf6,,,,,,,,,,,,,26,1,,./stim/wavs/castilian_mismatch_interrogative-total-yn_La-nina-lava-el-plato.wav,,,,,,,,,,,,,,,,,,,,,,396.5149,399.2138,1,1,2.1524,,0,60,60,25,1,0,castilian,,,,,,,,,,,,,,,,,,,,,,,,,,,,,,,,,,,,,,,,,,,,,,,,,,,,,,,,
,,,,,,,,,66706bf3288568808d36ff2c,spanish,13 or older,"no, only English or Spanish",no,2025-08-12_15h25.12.117,empathy_intonation_perc,2024.2.4,Win32,20,66706bf3288568808d36ff2c,687ed1b7e638a4cbf2f02089,689b94db0b0e443391ea2cf6,,,,,,,,,,,,,65,0,,./stim/wavs/puertorican_match_declarative-broad-focus_David-leia-el-libro.wav,,,,,,,,,,,,,,,,,,,,,,399.2149,401.4866,0,1,1.7008,,0,61,61,64,1,0,puertorican,,,,,,,,,,,,,,,,,,,,,,,,,,,,,,,,,,,,,,,,,,,,,,,,,,,,,,,,
,,,,,,,,,66706bf3288568808d36ff2c,spanish,13 or older,"no, only English or Spanish",no,2025-08-12_15h25.12.117,empathy_intonation_perc,2024.2.4,Win32,20,66706bf3288568808d36ff2c,687ed1b7e638a4cbf2f02089,689b94db0b0e443391ea2cf6,,,,,,,,,,,,,69,0,,./stim/wavs/castilian_mismatch_declarative-broad-focus_El-nino-oye-el-rio.wav,,,,,,,,,,,,,,,,,,,,,,401.4885,403.9257,0,1,1.9122,,0,62,62,68,1,0,castilian,,,,,,,,,,,,,,,,,,,,,,,,,,,,,,,,,,,,,,,,,,,,,,,,,,,,,,,,
,,,,,,,,,66706bf3288568808d36ff2c,spanish,13 or older,"no, only English or Spanish",no,2025-08-12_15h25.12.117,empathy_intonation_perc,2024.2.4,Win32,20,66706bf3288568808d36ff2c,687ed1b7e638a4cbf2f02089,689b94db0b0e443391ea2cf6,,,,,,,,,,,,,41,1,,./stim/wavs/puertorican_mismatch_interrogative-total-yn_El-nino-oye-el-rio.wav,,,,,,,,,,,,,,,,,,,,,,403.9269,406.1497,0,0,1.691,,0,63,63,40,1,1,puertorican,,,,,,,,,,,,,,,,,,,,,,,,,,,,,,,,,,,,,,,,,,,,,,,,,,,,,,,,
,,,,,,,,,66706bf3288568808d36ff2c,spanish,13 or older,"no, only English or Spanish",no,2025-08-12_15h25.12.117,empathy_intonation_perc,2024.2.4,Win32,20,66706bf3288568808d36ff2c,687ed1b7e638a4cbf2f02089,689b94db0b0e443391ea2cf6,,,,,,,,,,,,,47,0,,./stim/wavs/castilian_match_declarative-broad-focus_Manuela-vende-el-carro.wav,,,,,,,,,,,,,,,,,,,,,,406.1508,409.1907,1,0,2.503,,0,64,64,46,1,0,castilian,,,,,,,,,,,,,,,,,,,,,,,,,,,,,,,,,,,,,,,,,,,,,,,,,,,,,,,,
,,,,,,,,,66706bf3288568808d36ff2c,spanish,13 or older,"no, only English or Spanish",no,2025-08-12_15h25.12.117,empathy_intonation_perc,2024.2.4,Win32,20,66706bf3288568808d36ff2c,687ed1b7e638a4cbf2f02089,689b94db0b0e443391ea2cf6,,,,,,,,,,,,,2,1,,./stim/wavs/castilian_match_interrogative-total-yn_Emilio-ama-la-marcha.wav,,,,,,,,,,,,,,,,,,,,,,409.1918,411.5749,1,1,1.8354,,0,65,65,1,1,0,castilian,,,,,,,,,,,,,,,,,,,,,,,,,,,,,,,,,,,,,,,,,,,,,,,,,,,,,,,,
,,,,,,,,,66706bf3288568808d36ff2c,spanish,13 or older,"no, only English or Spanish",no,2025-08-12_15h25.12.117,empathy_intonation_perc,2024.2.4,Win32,20,66706bf3288568808d36ff2c,687ed1b7e638a4cbf2f02089,689b94db0b0e443391ea2cf6,,,,,,,,,,,,,61,0,,./stim/wavs/mexican_match_declarative-broad-focus_Mariano-habla-del-tiempo.wav,,,,,,,,,,,,,,,,,,,,,,411.5759,413.7068,0,1,1.6066,,0,66,66,60,1,0,mexican,,,,,,,,,,,,,,,,,,,,,,,,,,,,,,,,,,,,,,,,,,,,,,,,,,,,,,,,
,,,,,,,,,66706bf3288568808d36ff2c,spanish,13 or older,"no, only English or Spanish",no,2025-08-12_15h25.12.117,empathy_intonation_perc,2024.2.4,Win32,20,66706bf3288568808d36ff2c,687ed1b7e638a4cbf2f02089,689b94db0b0e443391ea2cf6,,,,,,,,,,,,,48,0,,./stim/wavs/castilian_match_declarative-broad-focus_Maria-bebe-el-vino.wav,,,,,,,,,,,,,,,,,,,,,,413.7079,415.9561,1,0,1.7007,,0,67,67,47,1,0,castilian,,,,,,,,,,,,,,,,,,,,,,,,,,,,,,,,,,,,,,,,,,,,,,,,,,,,,,,,
,,,,,,,,,66706bf3288568808d36ff2c,spanish,13 or older,"no, only English or Spanish",no,2025-08-12_15h25.12.117,empathy_intonation_perc,2024.2.4,Win32,20,66706bf3288568808d36ff2c,687ed1b7e638a4cbf2f02089,689b94db0b0e443391ea2cf6,,,,,,,,,,,,,40,1,,./stim/wavs/puertorican_mismatch_interrogative-total-yn_El-hombre-mira-la-luna.wav,,,,,,,,,,,,,,,,,,,,,,415.9571,418.9046,1,1,2.4048,,0,68,68,39,1,1,puertorican,,,,,,,,,,,,,,,,,,,,,,,,,,,,,,,,,,,,,,,,,,,,,,,,,,,,,,,,
,,,,,,,,,66706bf3288568808d36ff2c,spanish,13 or older,"no, only English or Spanish",no,2025-08-12_15h25.12.117,empathy_intonation_perc,2024.2.4,Win32,20,66706bf3288568808d36ff2c,687ed1b7e638a4cbf2f02089,689b94db0b0e443391ea2cf6,,,,,,,,,,,,,35,1,,./stim/wavs/mexican_mismatch_interrogative-total-yn_El-hombre-mira-la-luna.wav,,,,,,,,,,,,,,,,,,,,,,418.9055,421.0599,1,1,1.6079,,0,69,69,34,1,0,mexican,,,,,,,,,,,,,,,,,,,,,,,,,,,,,,,,,,,,,,,,,,,,,,,,,,,,,,,,
,,,,,,,,,66706bf3288568808d36ff2c,spanish,13 or older,"no, only English or Spanish",no,2025-08-12_15h25.12.117,empathy_intonation_perc,2024.2.4,Win32,20,66706bf3288568808d36ff2c,687ed1b7e638a4cbf2f02089,689b94db0b0e443391ea2cf6,,,,,,,,,,,,,79,0,,./stim/wavs/mexican_mismatch_declarative-broad-focus_El-bebe-comia-muy-bien.wav,,,,,,,,,,,,,,,,,,,,,,421.0611,423.118,1,0,1.5277,,0,70,70,78,1,0,mexican,,,,,,,,,,,,,,,,,,,,,,,,,,,,,,,,,,,,,,,,,,,,,,,,,,,,,,,,
,,,,,,,,,66706bf3288568808d36ff2c,spanish,13 or older,"no, only English or Spanish",no,2025-08-12_15h25.12.117,empathy_intonation_perc,2024.2.4,Win32,20,66706bf3288568808d36ff2c,687ed1b7e638a4cbf2f02089,689b94db0b0e443391ea2cf6,,,,,,,,,,,,,42,1,,./stim/wavs/puertorican_mismatch_interrogative-total-yn_La-maestra-vive-en-Paris.wav,,,,,,,,,,,,,,,,,,,,,,423.1191,427.1424,0,0,3.4747,,0,71,71,41,1,1,puertorican,,,,,,,,,,,,,,,,,,,,,,,,,,,,,,,,,,,,,,,,,,,,,,,,,,,,,,,,
,,,,,,,,,66706bf3288568808d36ff2c,spanish,13 or older,"no, only English or Spanish",no,2025-08-12_15h25.12.117,empathy_intonation_perc,2024.2.4,Win32,20,66706bf3288568808d36ff2c,687ed1b7e638a4cbf2f02089,689b94db0b0e443391ea2cf6,,,,,,,,,,,,,80,0,,./stim/wavs/mexican_mismatch_declarative-broad-focus_El-hombre-mira-la-luna.wav,,,,,,,,,,,,,,,,,,,,,,427.1436,429.7359,0,1,2.0571,,0,72,72,79,1,0,mexican,,,,,,,,,,,,,,,,,,,,,,,,,,,,,,,,,,,,,,,,,,,,,,,,,,,,,,,,
,,,,,,,,,66706bf3288568808d36ff2c,spanish,13 or older,"no, only English or Spanish",no,2025-08-12_15h25.12.117,empathy_intonation_perc,2024.2.4,Win32,20,66706bf3288568808d36ff2c,687ed1b7e638a4cbf2f02089,689b94db0b0e443391ea2cf6,,,,,,,,,,,,,3,1,,./stim/wavs/castilian_match_interrogative-total-yn_Manuela-vende-el-carro.wav,,,,,,,,,,,,,,,,,,,,,,429.737,432.1298,1,1,1.8608,,0,73,73,2,1,0,castilian,,,,,,,,,,,,,,,,,,,,,,,,,,,,,,,,,,,,,,,,,,,,,,,,,,,,,,,,
,,,,,,,,,66706bf3288568808d36ff2c,spanish,13 or older,"no, only English or Spanish",no,2025-08-12_15h25.12.117,empathy_intonation_perc,2024.2.4,Win32,20,66706bf3288568808d36ff2c,687ed1b7e638a4cbf2f02089,689b94db0b0e443391ea2cf6,,,,,,,,,,,,,37,1,,./stim/wavs/mexican_mismatch_interrogative-total-yn_La-maestra-vive-en-Paris.wav,,,,,,,,,,,,,,,,,,,,,,432.1308,435.4231,0,0,2.7311,,0,74,74,36,1,0,mexican,,,,,,,,,,,,,,,,,,,,,,,,,,,,,,,,,,,,,,,,,,,,,,,,,,,,,,,,
,,,,,,,,,66706bf3288568808d36ff2c,spanish,13 or older,"no, only English or Spanish",no,2025-08-12_15h25.12.117,empathy_intonation_perc,2024.2.4,Win32,20,66706bf3288568808d36ff2c,687ed1b7e638a4cbf2f02089,689b94db0b0e443391ea2cf6,,,,,,,,,,,,,83,0,,./stim/wavs/mexican_mismatch_declarative-broad-focus_Mi-tia-odia-la-lluvia.wav,,,,,,,,,,,,,,,,,,,,,,435.4241,437.6025,0,1,1.6464,,0,75,75,82,1,0,mexican,,,,,,,,,,,,,,,,,,,,,,,,,,,,,,,,,,,,,,,,,,,,,,,,,,,,,,,,
,,,,,,,,,66706bf3288568808d36ff2c,spanish,13 or older,"no, only English or Spanish",no,2025-08-12_15h25.12.117,empathy_intonation_perc,2024.2.4,Win32,20,66706bf3288568808d36ff2c,687ed1b7e638a4cbf2f02089,689b94db0b0e443391ea2cf6,,,,,,,,,,,,,6,1,,./stim/wavs/castilian_match_interrogative-total-yn_Marta-abre-el-regalo.wav,,,,,,,,,,,,,,,,,,,,,,437.6034,439.8311,1,1,1.6975,,0,76,76,5,1,0,castilian,,,,,,,,,,,,,,,,,,,,,,,,,,,,,,,,,,,,,,,,,,,,,,,,,,,,,,,,
,,,,,,,,,66706bf3288568808d36ff2c,spanish,13 or older,"no, only English or Spanish",no,2025-08-12_15h25.12.117,empathy_intonation_perc,2024.2.4,Win32,20,66706bf3288568808d36ff2c,687ed1b7e638a4cbf2f02089,689b94db0b0e443391ea2cf6,,,,,,,,,,,,,77,0,,./stim/wavs/cuban_mismatch_declarative-broad-focus_Mi-novio-viene-del-lago.wav,,,,,,,,,,,,,,,,,,,,,,439.832,442.1216,0,1,1.7322,,0,77,77,76,1,0,cuban,,,,,,,,,,,,,,,,,,,,,,,,,,,,,,,,,,,,,,,,,,,,,,,,,,,,,,,,
,,,,,,,,,66706bf3288568808d36ff2c,spanish,13 or older,"no, only English or Spanish",no,2025-08-12_15h25.12.117,empathy_intonation_perc,2024.2.4,Win32,20,66706bf3288568808d36ff2c,687ed1b7e638a4cbf2f02089,689b94db0b0e443391ea2cf6,,,,,,,,,,,,,59,0,,./stim/wavs/mexican_match_declarative-broad-focus_David-leia-el-libro.wav,,,,,,,,,,,,,,,,,,,,,,442.1227,444.8452,0,1,2.2012,,0,78,78,58,1,0,mexican,,,,,,,,,,,,,,,,,,,,,,,,,,,,,,,,,,,,,,,,,,,,,,,,,,,,,,,,
,,,,,,,,,66706bf3288568808d36ff2c,spanish,13 or older,"no, only English or Spanish",no,2025-08-12_15h25.12.117,empathy_intonation_perc,2024.2.4,Win32,20,66706bf3288568808d36ff2c,687ed1b7e638a4cbf2f02089,689b94db0b0e443391ea2cf6,,,,,,,,,,,,,16,1,,./stim/wavs/mexican_match_interrogative-total-yn_Emilio-ama-la-marcha.wav,,,,,,,,,,,,,,,,,,,,,,444.8457,447.3884,1,1,2.0099,,0,79,79,15,1,0,mexican,,,,,,,,,,,,,,,,,,,,,,,,,,,,,,,,,,,,,,,,,,,,,,,,,,,,,,,,
,,,,,,,,,66706bf3288568808d36ff2c,spanish,13 or older,"no, only English or Spanish",no,2025-08-12_15h25.12.117,empathy_intonation_perc,2024.2.4,Win32,20,66706bf3288568808d36ff2c,687ed1b7e638a4cbf2f02089,689b94db0b0e443391ea2cf6,,,,,,,,,,,,,31,1,,./stim/wavs/cuban_mismatch_interrogative-total-yn_El-nino-oye-el-rio.wav,,,,,,,,,,,,,,,,,,,,,,447.3893,449.5751,0,0,1.6604,,0,80,80,30,1,1,cuban,,,,,,,,,,,,,,,,,,,,,,,,,,,,,,,,,,,,,,,,,,,,,,,,,,,,,,,,
,,,,,,,,,66706bf3288568808d36ff2c,spanish,13 or older,"no, only English or Spanish",no,2025-08-12_15h25.12.117,empathy_intonation_perc,2024.2.4,Win32,20,66706bf3288568808d36ff2c,687ed1b7e638a4cbf2f02089,689b94db0b0e443391ea2cf6,,,,,,,,,,,,,19,1,,./stim/wavs/puertorican_match_interrogative-total-yn_Ana-lleva-el-abrigo.wav,,,,,,,,,,,,,,,,,,,,,,449.5764,451.8054,0,0,1.6683,,0,81,81,18,1,1,puertorican,,,,,,,,,,,,,,,,,,,,,,,,,,,,,,,,,,,,,,,,,,,,,,,,,,,,,,,,
,,,,,,,,,66706bf3288568808d36ff2c,spanish,13 or older,"no, only English or Spanish",no,2025-08-12_15h25.12.117,empathy_intonation_perc,2024.2.4,Win32,20,66706bf3288568808d36ff2c,687ed1b7e638a4cbf2f02089,689b94db0b0e443391ea2cf6,,,,,,,,,,,,,46,0,,./stim/wavs/castilian_match_declarative-broad-focus_Emilio-ama-la-marcha.wav,,,,,,,,,,,,,,,,,,,,,,451.8064,454.5662,0,1,2.2122,,0,82,82,45,1,0,castilian,,,,,,,,,,,,,,,,,,,,,,,,,,,,,,,,,,,,,,,,,,,,,,,,,,,,,,,,
,,,,,,,,,66706bf3288568808d36ff2c,spanish,13 or older,"no, only English or Spanish",no,2025-08-12_15h25.12.117,empathy_intonation_perc,2024.2.4,Win32,20,66706bf3288568808d36ff2c,687ed1b7e638a4cbf2f02089,689b94db0b0e443391ea2cf6,,,,,,,,,,,,,28,1,,./stim/wavs/castilian_mismatch_interrogative-total-yn_Mi-novio-viene-del-lago.wav,,,,,,,,,,,,,,,,,,,,,,454.5675,456.6028,0,0,1.5032,,0,83,83,27,1,0,castilian,,,,,,,,,,,,,,,,,,,,,,,,,,,,,,,,,,,,,,,,,,,,,,,,,,,,,,,,
,,,,,,,,,66706bf3288568808d36ff2c,spanish,13 or older,"no, only English or Spanish",no,2025-08-12_15h25.12.117,empathy_intonation_perc,2024.2.4,Win32,20,66706bf3288568808d36ff2c,687ed1b7e638a4cbf2f02089,689b94db0b0e443391ea2cf6,,,,,,,,,,,,,58,0,,./stim/wavs/mexican_match_declarative-broad-focus_Daniel-iba-a-Bolivia.wav,,,,,,,,,,,,,,,,,,,,,,456.6039,459.21,0,1,2.0842,,0,84,84,57,1,0,mexican,,,,,,,,,,,,,,,,,,,,,,,,,,,,,,,,,,,,,,,,,,,,,,,,,,,,,,,,
,,,,,,,,,66706bf3288568808d36ff2c,spanish,13 or older,"no, only English or Spanish",no,2025-08-12_15h25.12.117,empathy_intonation_perc,2024.2.4,Win32,20,66706bf3288568808d36ff2c,687ed1b7e638a4cbf2f02089,689b94db0b0e443391ea2cf6,,,,,,,,,,,,,63,0,,./stim/wavs/puertorican_match_declarative-broad-focus_Ana-lleva-el-abrigo.wav,,,,,,,,,,,,,,,,,,,,,,459.2111,461.2823,0,1,1.5391,,0,85,85,62,1,0,puertorican,,,,,,,,,,,,,,,,,,,,,,,,,,,,,,,,,,,,,,,,,,,,,,,,,,,,,,,,
,,,,,,,,,66706bf3288568808d36ff2c,spanish,13 or older,"no, only English or Spanish",no,2025-08-12_15h25.12.117,empathy_intonation_perc,2024.2.4,Win32,20,66706bf3288568808d36ff2c,687ed1b7e638a4cbf2f02089,689b94db0b0e443391ea2cf6,,,,,,,,,,,,,76,0,,./stim/wavs/cuban_mismatch_declarative-broad-focus_La-nina-lava-el-plato.wav,,,,,,,,,,,,,,,,,,,,,,461.283,464.9129,0,1,3.0819,,0,86,86,75,1,0,cuban,,,,,,,,,,,,,,,,,,,,,,,,,,,,,,,,,,,,,,,,,,,,,,,,,,,,,,,,
,,,,,,,,,66706bf3288568808d36ff2c,spanish,13 or older,"no, only English or Spanish",no,2025-08-12_15h25.12.117,empathy_intonation_perc,2024.2.4,Win32,20,66706bf3288568808d36ff2c,687ed1b7e638a4cbf2f02089,689b94db0b0e443391ea2cf6,,,,,,,,,,,,,44,1,,./stim/wavs/puertorican_mismatch_interrogative-total-yn_Mi-madre-come-la-fruta.wav,,,,,,,,,,,,,,,,,,,,,,464.9139,467.2843,1,1,1.8087,,0,87,87,43,1,1,puertorican,,,,,,,,,,,,,,,,,,,,,,,,,,,,,,,,,,,,,,,,,,,,,,,,,,,,,,,,
,,,,,,,"Great! Now we will move on. The next task consists of about 60 trials, in each of which you will see a string of letters. 
  
  Your task is to decide whether this is a real Spanish word or not.", (press the spacebar to continue),66706bf3288568808d36ff2c,spanish,13 or older,"no, only English or Spanish",no,2025-08-12_15h25.12.117,empathy_intonation_perc,2024.2.4,Win32,20,66706bf3288568808d36ff2c,687ed1b7e638a4cbf2f02089,689b94db0b0e443391ea2cf6,,,,,,,,,,,,,,,,,,,,,,,,,,,,,,,,,,,,,,,,,,,,,,,,,,,467.3028,472.7252,0,0,0,0,1,,,,,,,,,,,,,,,,,,,,,,,,,,,,,,,,,,,,,,,,,,,,,,,,,
,,,,,,,"If you think it is an existing Spanish word, you type '1' (for 'REAL'), and if you think it is not an existing Spanish word, you type '0' (for 'FAKE').", (press the spacebar to continue),66706bf3288568808d36ff2c,spanish,13 or older,"no, only English or Spanish",no,2025-08-12_15h25.12.117,empathy_intonation_perc,2024.2.4,Win32,20,66706bf3288568808d36ff2c,687ed1b7e638a4cbf2f02089,689b94db0b0e443391ea2cf6,,,,,,,,,,,,,,,,,,,,,,,,,,,,,,,,,,,,,,,,,,,,,,,,,,,472.7311,476.6321,0,1,1,1,1,,,,,,,,,,,,,,,,,,,,,,,,,,,,,,,,,,,,,,,,,,,,,,,,,
,,,,,,,"If you are sure that the word exists, even though you don’t know its exact meaning, you may still respond '1' (REAL). 
  
  But if you are not sure if it is an existing word, you should respond '0' (FAKE).
  
  Let's do a practice round...", (press the spacebar to continue),66706bf3288568808d36ff2c,spanish,13 or older,"no, only English or Spanish",no,2025-08-12_15h25.12.117,empathy_intonation_perc,2024.2.4,Win32,20,66706bf3288568808d36ff2c,687ed1b7e638a4cbf2f02089,689b94db0b0e443391ea2cf6,,,,,,,,,,,,,,,,,,,,,,,,,,,,,,,,,,,,,,,,,,,,,,,,,,,476.6378,484.9122,0,2,2,2,1,,,,,,,,,,,,,,,,,,,,,,,,,,,,,,,,,,,,,,,,,,,,,,,,,
,,,,,,,,,66706bf3288568808d36ff2c,spanish,13 or older,"no, only English or Spanish",no,2025-08-12_15h25.12.117,empathy_intonation_perc,2024.2.4,Win32,20,66706bf3288568808d36ff2c,687ed1b7e638a4cbf2f02089,689b94db0b0e443391ea2cf6,,,,,,,,,,,,,,0,,,,,,,,,,,,,,,,,,,,,,,,,,,,,,,,,,,,,,,,,,,,484.9268,488.2988,1,0,2.7917,,488.2995,489.2758,0,0,0,0,1,0,depiste,REAL,FAKE,,,,,,,,,,,,,,,,,,,,,,,,,,,,,,,,
,,,,,,,,,66706bf3288568808d36ff2c,spanish,13 or older,"no, only English or Spanish",no,2025-08-12_15h25.12.117,empathy_intonation_perc,2024.2.4,Win32,20,66706bf3288568808d36ff2c,687ed1b7e638a4cbf2f02089,689b94db0b0e443391ea2cf6,,,,,,,,,,,,,,1,,,,,,,,,,,,,,,,,,,,,,,,,,,,,,,,,,,,,,,,,,,,489.2798,490.8855,1,1,1.048,,490.887,491.904,0,1,1,1,1,0,sí,REAL,FAKE,,,,,,,,,,,,,,,,,,,,,,,,,,,,,,,,
,,,,,,,,,66706bf3288568808d36ff2c,spanish,13 or older,"no, only English or Spanish",no,2025-08-12_15h25.12.117,empathy_intonation_perc,2024.2.4,Win32,20,66706bf3288568808d36ff2c,687ed1b7e638a4cbf2f02089,689b94db0b0e443391ea2cf6,,,,,,,,,,,,,,0,,,,,,,,,,,,,,,,,,,,,,,,,,,,,,,,,,,,,,,,,,,,491.9076,494.6529,1,0,2.1648,,494.6548,495.636,0,2,2,2,1,0,coné,REAL,FAKE,,,,,,,,,,,,,,,,,,,,,,,,,,,,,,,,
,,,,,,,,,66706bf3288568808d36ff2c,spanish,13 or older,"no, only English or Spanish",no,2025-08-12_15h25.12.117,empathy_intonation_perc,2024.2.4,Win32,20,66706bf3288568808d36ff2c,687ed1b7e638a4cbf2f02089,689b94db0b0e443391ea2cf6,,,,,,,,,,,,,,0,,,,,,,,,,,,,,,,,,,,,,,,,,,,,,,,,,,,,,,,,,,,495.6387,497.863,1,0,1.633,,497.8632,498.8051,0,3,3,3,1,0,calpar,REAL,FAKE,,,,,,,,,,,,,,,,,,,,,,,,,,,,,,,,
,,,,,,,,,66706bf3288568808d36ff2c,spanish,13 or older,"no, only English or Spanish",no,2025-08-12_15h25.12.117,empathy_intonation_perc,2024.2.4,Win32,20,66706bf3288568808d36ff2c,687ed1b7e638a4cbf2f02089,689b94db0b0e443391ea2cf6,,,,,,,,,,,,,,0,,,,,,,,,,,,,,,,,,,,,,,,,,,,,,,,,,,,,,,,,,,,498.8088,500.7258,0,1,1.3688,,500.7273,501.7307,0,4,4,4,1,0,joten,REAL,FAKE,,,,,,,,,,,,,,,,,,,,,,,,,,,,,,,,
,,,,,,,,,66706bf3288568808d36ff2c,spanish,13 or older,"no, only English or Spanish",no,2025-08-12_15h25.12.117,empathy_intonation_perc,2024.2.4,Win32,20,66706bf3288568808d36ff2c,687ed1b7e638a4cbf2f02089,689b94db0b0e443391ea2cf6,,,,,,,,,,,,,,1,,,,,,,,,,,,,,,,,,,,,,,,,,,,,,,,,,,,,,,,,,,,501.7334,503.47,1,1,1.1796,,503.4701,504.4388,0,5,5,5,1,0,sacapuntas,REAL,FAKE,,,,,,,,,,,,,,,,,,,,,,,,,,,,,,,,
,,,,,,,,,66706bf3288568808d36ff2c,spanish,13 or older,"no, only English or Spanish",no,2025-08-12_15h25.12.117,empathy_intonation_perc,2024.2.4,Win32,20,66706bf3288568808d36ff2c,687ed1b7e638a4cbf2f02089,689b94db0b0e443391ea2cf6,,,,,,,,,,,,,,0,,,,,,,,,,,,,,,,,,,,,,,,,,,,,,,,,,,,,,,,,,,,504.4414,506.4815,0,1,1.5032,,506.4817,507.4803,0,6,6,6,1,0,priba,REAL,FAKE,,,,,,,,,,,,,,,,,,,,,,,,,,,,,,,,
,,,,,,,,,66706bf3288568808d36ff2c,spanish,13 or older,"no, only English or Spanish",no,2025-08-12_15h25.12.117,empathy_intonation_perc,2024.2.4,Win32,20,66706bf3288568808d36ff2c,687ed1b7e638a4cbf2f02089,689b94db0b0e443391ea2cf6,,,,,,,,,,,,,,0,,,,,,,,,,,,,,,,,,,,,,,,,,,,,,,,,,,,,,,,,,,,507.4826,509.6099,1,0,1.5743,,509.6116,510.6007,0,7,7,7,1,0,pelasula,REAL,FAKE,,,,,,,,,,,,,,,,,,,,,,,,,,,,,,,,
,,,,,,,,,66706bf3288568808d36ff2c,spanish,13 or older,"no, only English or Spanish",no,2025-08-12_15h25.12.117,empathy_intonation_perc,2024.2.4,Win32,20,66706bf3288568808d36ff2c,687ed1b7e638a4cbf2f02089,689b94db0b0e443391ea2cf6,,,,,,,,,,,,,,1,,,,,,,,,,,,,,,,,,,,,,,,,,,,,,,,,,,,,,,,,,,,510.6026,512.0635,1,1,0.8857,,512.0648,513.0414,0,8,8,8,1,0,bien,REAL,FAKE,,,,,,,,,,,,,,,,,,,,,,,,,,,,,,,,
,,,,,,,,,66706bf3288568808d36ff2c,spanish,13 or older,"no, only English or Spanish",no,2025-08-12_15h25.12.117,empathy_intonation_perc,2024.2.4,Win32,20,66706bf3288568808d36ff2c,687ed1b7e638a4cbf2f02089,689b94db0b0e443391ea2cf6,,,,,,,,,,,,,,1,,,,,,,,,,,,,,,,,,,,,,,,,,,,,,,,,,,,,,,,,,,,513.0436,514.7713,1,1,1.1516,,514.7715,515.7593,0,9,9,9,1,0,casa,REAL,FAKE,,,,,,,,,,,,,,,,,,,,,,,,,,,,,,,,
,,,,,,,,,66706bf3288568808d36ff2c,spanish,13 or older,"no, only English or Spanish",no,2025-08-12_15h25.12.117,empathy_intonation_perc,2024.2.4,Win32,20,66706bf3288568808d36ff2c,687ed1b7e638a4cbf2f02089,689b94db0b0e443391ea2cf6,,,,,,,,,,,,,,0,,,,,,,,,,,,,,,,,,,,,,,,,,,,,,,,,,,,,,,,,,,,515.7621,517.7135,0,1,1.3772,,517.7136,518.7404,0,10,10,10,1,0,lejo,REAL,FAKE,,,,,,,,,,,,,,,,,,,,,,,,,,,,,,,,
,,,,,,,,,66706bf3288568808d36ff2c,spanish,13 or older,"no, only English or Spanish",no,2025-08-12_15h25.12.117,empathy_intonation_perc,2024.2.4,Win32,20,66706bf3288568808d36ff2c,687ed1b7e638a4cbf2f02089,689b94db0b0e443391ea2cf6,,,,,,,,,,,,,,0,,,,,,,,,,,,,,,,,,,,,,,,,,,,,,,,,,,,,,,,,,,,518.7436,520.9948,0,1,1.6403,,520.9949,522.0161,0,11,11,11,1,0,pretantas,REAL,FAKE,,,,,,,,,,,,,,,,,,,,,,,,,,,,,,,,
,,,,,,,,,66706bf3288568808d36ff2c,spanish,13 or older,"no, only English or Spanish",no,2025-08-12_15h25.12.117,empathy_intonation_perc,2024.2.4,Win32,20,66706bf3288568808d36ff2c,687ed1b7e638a4cbf2f02089,689b94db0b0e443391ea2cf6,,,,,,,,,,,,,,,,,,,,,,,,,,,,,,,,,,,,,,,,,,,,,,,,,,,,,,,,,,,,,,,,,,,,,,,,,,,522.0172,523.7461,,,,,,,,,,,,,,,,,,,,,,,,,,,,,,
,,,,,,,,,66706bf3288568808d36ff2c,spanish,13 or older,"no, only English or Spanish",no,2025-08-12_15h25.12.117,empathy_intonation_perc,2024.2.4,Win32,20,66706bf3288568808d36ff2c,687ed1b7e638a4cbf2f02089,689b94db0b0e443391ea2cf6,,,,,,,,,,,,,,1,,,,,,,,,,,,,,,,,,,,,,,,,,,,,,,,,,,,,,,,,,,,,,,,,,,,,,,,,80,hormiga,,,,,523.7812,526.4438,0,0,2.0924,,0,0,0,79,1,REAL,FAKE,,,,,,,,,,,,,,,,,
,,,,,,,,,66706bf3288568808d36ff2c,spanish,13 or older,"no, only English or Spanish",no,2025-08-12_15h25.12.117,empathy_intonation_perc,2024.2.4,Win32,20,66706bf3288568808d36ff2c,687ed1b7e638a4cbf2f02089,689b94db0b0e443391ea2cf6,,,,,,,,,,,,,,1,,,,,,,,,,,,,,,,,,,,,,,,,,,,,,,,,,,,,,,,,,,,,,,,,,,,,,,,,67,cabello,,,,,526.4459,528.1721,1,1,1.1686,,0,1,1,66,1,REAL,FAKE,,,,,,,,,,,,,,,,,
,,,,,,,,,66706bf3288568808d36ff2c,spanish,13 or older,"no, only English or Spanish",no,2025-08-12_15h25.12.117,empathy_intonation_perc,2024.2.4,Win32,20,66706bf3288568808d36ff2c,687ed1b7e638a4cbf2f02089,689b94db0b0e443391ea2cf6,,,,,,,,,,,,,,0,,,,,,,,,,,,,,,,,,,,,,,,,,,,,,,,,,,,,,,,,,,,,,,,,,,,,,,,,35,rompido,,,,,528.1803,531.0604,1,0,2.3396,,0,2,2,34,1,REAL,FAKE,,,,,,,,,,,,,,,,,
,,,,,,,,,66706bf3288568808d36ff2c,spanish,13 or older,"no, only English or Spanish",no,2025-08-12_15h25.12.117,empathy_intonation_perc,2024.2.4,Win32,20,66706bf3288568808d36ff2c,687ed1b7e638a4cbf2f02089,689b94db0b0e443391ea2cf6,,,,,,,,,,,,,,0,,,,,,,,,,,,,,,,,,,,,,,,,,,,,,,,,,,,,,,,,,,,,,,,,,,,,,,,,29,decar,,,,,531.0628,533.1034,1,0,1.5063,,0,3,3,28,1,REAL,FAKE,,,,,,,,,,,,,,,,,
,,,,,,,,,66706bf3288568808d36ff2c,spanish,13 or older,"no, only English or Spanish",no,2025-08-12_15h25.12.117,empathy_intonation_perc,2024.2.4,Win32,20,66706bf3288568808d36ff2c,687ed1b7e638a4cbf2f02089,689b94db0b0e443391ea2cf6,,,,,,,,,,,,,,0,,,,,,,,,,,,,,,,,,,,,,,,,,,,,,,,,,,,,,,,,,,,,,,,,,,,,,,,,19,brecedad,,,,,533.1055,536.2674,0,1,2.5827,,0,4,4,18,1,REAL,FAKE,,,,,,,,,,,,,,,,,
,,,,,,,,,66706bf3288568808d36ff2c,spanish,13 or older,"no, only English or Spanish",no,2025-08-12_15h25.12.117,empathy_intonation_perc,2024.2.4,Win32,20,66706bf3288568808d36ff2c,687ed1b7e638a4cbf2f02089,689b94db0b0e443391ea2cf6,,,,,,,,,,,,,,1,,,,,,,,,,,,,,,,,,,,,,,,,,,,,,,,,,,,,,,,,,,,,,,,,,,,,,,,,13,helar,,,,,536.2691,538.1687,0,0,1.3373,,0,5,5,12,1,REAL,FAKE,,,,,,,,,,,,,,,,,
,,,,,,,,,66706bf3288568808d36ff2c,spanish,13 or older,"no, only English or Spanish",no,2025-08-12_15h25.12.117,empathy_intonation_perc,2024.2.4,Win32,20,66706bf3288568808d36ff2c,687ed1b7e638a4cbf2f02089,689b94db0b0e443391ea2cf6,,,,,,,,,,,,,,1,,,,,,,,,,,,,,,,,,,,,,,,,,,,,,,,,,,,,,,,,,,,,,,,,,,,,,,,,68,alegre,,,,,538.1705,540.3946,0,0,1.6925,,0,6,6,67,1,REAL,FAKE,,,,,,,,,,,,,,,,,
,,,,,,,,,66706bf3288568808d36ff2c,spanish,13 or older,"no, only English or Spanish",no,2025-08-12_15h25.12.117,empathy_intonation_perc,2024.2.4,Win32,20,66706bf3288568808d36ff2c,687ed1b7e638a4cbf2f02089,689b94db0b0e443391ea2cf6,,,,,,,,,,,,,,0,,,,,,,,,,,,,,,,,,,,,,,,,,,,,,,,,,,,,,,,,,,,,,,,,,,,,,,,,66,hacido,,,,,540.3961,542.0451,1,0,1.1052,,0,7,7,65,1,REAL,FAKE,,,,,,,,,,,,,,,,,
,,,,,,,,,66706bf3288568808d36ff2c,spanish,13 or older,"no, only English or Spanish",no,2025-08-12_15h25.12.117,empathy_intonation_perc,2024.2.4,Win32,20,66706bf3288568808d36ff2c,687ed1b7e638a4cbf2f02089,689b94db0b0e443391ea2cf6,,,,,,,,,,,,,,1,,,,,,,,,,,,,,,,,,,,,,,,,,,,,,,,,,,,,,,,,,,,,,,,,,,,,,,,,39,torpe,,,,,542.0467,543.877,0,0,1.2823,,0,8,8,38,1,REAL,FAKE,,,,,,,,,,,,,,,,,
,,,,,,,,,66706bf3288568808d36ff2c,spanish,13 or older,"no, only English or Spanish",no,2025-08-12_15h25.12.117,empathy_intonation_perc,2024.2.4,Win32,20,66706bf3288568808d36ff2c,687ed1b7e638a4cbf2f02089,689b94db0b0e443391ea2cf6,,,,,,,,,,,,,,1,,,,,,,,,,,,,,,,,,,,,,,,,,,,,,,,,,,,,,,,,,,,,,,,,,,,,,,,,88,acantilado,,,,,543.8789,547.0007,1,1,2.5612,,0,9,9,87,1,REAL,FAKE,,,,,,,,,,,,,,,,,
,,,,,,,,,66706bf3288568808d36ff2c,spanish,13 or older,"no, only English or Spanish",no,2025-08-12_15h25.12.117,empathy_intonation_perc,2024.2.4,Win32,20,66706bf3288568808d36ff2c,687ed1b7e638a4cbf2f02089,689b94db0b0e443391ea2cf6,,,,,,,,,,,,,,1,,,,,,,,,,,,,,,,,,,,,,,,,,,,,,,,,,,,,,,,,,,,,,,,,,,,,,,,,5,zapato,,,,,547.0033,548.4837,1,1,0.936,,0,10,10,4,1,REAL,FAKE,,,,,,,,,,,,,,,,,
,,,,,,,,,66706bf3288568808d36ff2c,spanish,13 or older,"no, only English or Spanish",no,2025-08-12_15h25.12.117,empathy_intonation_perc,2024.2.4,Win32,20,66706bf3288568808d36ff2c,687ed1b7e638a4cbf2f02089,689b94db0b0e443391ea2cf6,,,,,,,,,,,,,,0,,,,,,,,,,,,,,,,,,,,,,,,,,,,,,,,,,,,,,,,,,,,,,,,,,,,,,,,,30,alardio,,,,,548.4859,550.3611,0,1,1.3229,,0,11,11,29,1,REAL,FAKE,,,,,,,,,,,,,,,,,
,,,,,,,,,66706bf3288568808d36ff2c,spanish,13 or older,"no, only English or Spanish",no,2025-08-12_15h25.12.117,empathy_intonation_perc,2024.2.4,Win32,20,66706bf3288568808d36ff2c,687ed1b7e638a4cbf2f02089,689b94db0b0e443391ea2cf6,,,,,,,,,,,,,,1,,,,,,,,,,,,,,,,,,,,,,,,,,,,,,,,,,,,,,,,,,,,,,,,,,,,,,,,,34,aviso,,,,,550.3645,551.9998,1,1,1.1055,,0,12,12,33,1,REAL,FAKE,,,,,,,,,,,,,,,,,
,,,,,,,,,66706bf3288568808d36ff2c,spanish,13 or older,"no, only English or Spanish",no,2025-08-12_15h25.12.117,empathy_intonation_perc,2024.2.4,Win32,20,66706bf3288568808d36ff2c,687ed1b7e638a4cbf2f02089,689b94db0b0e443391ea2cf6,,,,,,,,,,,,,,0,,,,,,,,,,,,,,,,,,,,,,,,,,,,,,,,,,,,,,,,,,,,,,,,,,,,,,,,,92,click the 0 key.,,,,,552.0017,553.9295,0,1,1.3585,,0,13,13,91,1,REAL,FAKE,,,,,,,,,,,,,,,,,
,,,,,,,,,66706bf3288568808d36ff2c,spanish,13 or older,"no, only English or Spanish",no,2025-08-12_15h25.12.117,empathy_intonation_perc,2024.2.4,Win32,20,66706bf3288568808d36ff2c,687ed1b7e638a4cbf2f02089,689b94db0b0e443391ea2cf6,,,,,,,,,,,,,,1,,,,,,,,,,,,,,,,,,,,,,,,,,,,,,,,,,,,,,,,,,,,,,,,,,,,,,,,,20,ávido,,,,,553.9327,555.8045,0,0,1.3174,,0,14,14,19,1,REAL,FAKE,,,,,,,,,,,,,,,,,
,,,,,,,,,66706bf3288568808d36ff2c,spanish,13 or older,"no, only English or Spanish",no,2025-08-12_15h25.12.117,empathy_intonation_perc,2024.2.4,Win32,20,66706bf3288568808d36ff2c,687ed1b7e638a4cbf2f02089,689b94db0b0e443391ea2cf6,,,,,,,,,,,,,,0,,,,,,,,,,,,,,,,,,,,,,,,,,,,,,,,,,,,,,,,,,,,,,,,,,,,,,,,,17,floroso,,,,,555.8065,557.9337,0,1,1.5727,,0,15,15,16,1,REAL,FAKE,,,,,,,,,,,,,,,,,
,,,,,,,,,66706bf3288568808d36ff2c,spanish,13 or older,"no, only English or Spanish",no,2025-08-12_15h25.12.117,empathy_intonation_perc,2024.2.4,Win32,20,66706bf3288568808d36ff2c,687ed1b7e638a4cbf2f02089,689b94db0b0e443391ea2cf6,,,,,,,,,,,,,,1,,,,,,,,,,,,,,,,,,,,,,,,,,,,,,,,,,,,,,,,,,,,,,,,,,,,,,,,,57,tacaño,,,,,557.9367,559.7169,1,1,1.2006,,0,16,16,56,1,REAL,FAKE,,,,,,,,,,,,,,,,,
,,,,,,,,,66706bf3288568808d36ff2c,spanish,13 or older,"no, only English or Spanish",no,2025-08-12_15h25.12.117,empathy_intonation_perc,2024.2.4,Win32,20,66706bf3288568808d36ff2c,687ed1b7e638a4cbf2f02089,689b94db0b0e443391ea2cf6,,,,,,,,,,,,,,0,,,,,,,,,,,,,,,,,,,,,,,,,,,,,,,,,,,,,,,,,,,,,,,,,,,,,,,,,70,temblo,,,,,559.719,561.8915,0,1,1.6089,,0,17,17,69,1,REAL,FAKE,,,,,,,,,,,,,,,,,
,,,,,,,,,66706bf3288568808d36ff2c,spanish,13 or older,"no, only English or Spanish",no,2025-08-12_15h25.12.117,empathy_intonation_perc,2024.2.4,Win32,20,66706bf3288568808d36ff2c,687ed1b7e638a4cbf2f02089,689b94db0b0e443391ea2cf6,,,,,,,,,,,,,,1,,,,,,,,,,,,,,,,,,,,,,,,,,,,,,,,,,,,,,,,,,,,,,,,,,,,,,,,,90,clavel,,,,,561.8938,563.7706,0,0,1.3172,,0,18,18,89,1,REAL,FAKE,,,,,,,,,,,,,,,,,
,,,,,,,,,66706bf3288568808d36ff2c,spanish,13 or older,"no, only English or Spanish",no,2025-08-12_15h25.12.117,empathy_intonation_perc,2024.2.4,Win32,20,66706bf3288568808d36ff2c,687ed1b7e638a4cbf2f02089,689b94db0b0e443391ea2cf6,,,,,,,,,,,,,,1,,,,,,,,,,,,,,,,,,,,,,,,,,,,,,,,,,,,,,,,,,,,,,,,,,,,,,,,,15,regar,,,,,563.7726,565.7163,1,1,1.4006,,0,19,19,14,1,REAL,FAKE,,,,,,,,,,,,,,,,,
,,,,,,,,,66706bf3288568808d36ff2c,spanish,13 or older,"no, only English or Spanish",no,2025-08-12_15h25.12.117,empathy_intonation_perc,2024.2.4,Win32,20,66706bf3288568808d36ff2c,687ed1b7e638a4cbf2f02089,689b94db0b0e443391ea2cf6,,,,,,,,,,,,,,0,,,,,,,,,,,,,,,,,,,,,,,,,,,,,,,,,,,,,,,,,,,,,,,,,,,,,,,,,23,lampera,,,,,565.7183,567.2124,1,0,0.9426,,0,20,20,22,1,REAL,FAKE,,,,,,,,,,,,,,,,,
,,,,,,,,,66706bf3288568808d36ff2c,spanish,13 or older,"no, only English or Spanish",no,2025-08-12_15h25.12.117,empathy_intonation_perc,2024.2.4,Win32,20,66706bf3288568808d36ff2c,687ed1b7e638a4cbf2f02089,689b94db0b0e443391ea2cf6,,,,,,,,,,,,,,0,,,,,,,,,,,,,,,,,,,,,,,,,,,,,,,,,,,,,,,,,,,,,,,,,,,,,,,,,50,flamida,,,,,567.2144,568.9327,0,1,1.1627,,0,21,21,49,1,REAL,FAKE,,,,,,,,,,,,,,,,,
,,,,,,,,,66706bf3288568808d36ff2c,spanish,13 or older,"no, only English or Spanish",no,2025-08-12_15h25.12.117,empathy_intonation_perc,2024.2.4,Win32,20,66706bf3288568808d36ff2c,687ed1b7e638a4cbf2f02089,689b94db0b0e443391ea2cf6,,,,,,,,,,,,,,1,,,,,,,,,,,,,,,,,,,,,,,,,,,,,,,,,,,,,,,,,,,,,,,,,,,,,,,,,3,pulmones,,,,,568.9345,570.966,0,0,1.4811,,0,22,22,2,1,REAL,FAKE,,,,,,,,,,,,,,,,,
,,,,,,,,,66706bf3288568808d36ff2c,spanish,13 or older,"no, only English or Spanish",no,2025-08-12_15h25.12.117,empathy_intonation_perc,2024.2.4,Win32,20,66706bf3288568808d36ff2c,687ed1b7e638a4cbf2f02089,689b94db0b0e443391ea2cf6,,,,,,,,,,,,,,1,,,,,,,,,,,,,,,,,,,,,,,,,,,,,,,,,,,,,,,,,,,,,,,,,,,,,,,,,77,tiburón,,,,,570.9689,572.4633,0,0,0.9301,,0,23,23,76,1,REAL,FAKE,,,,,,,,,,,,,,,,,
,,,,,,,,,66706bf3288568808d36ff2c,spanish,13 or older,"no, only English or Spanish",no,2025-08-12_15h25.12.117,empathy_intonation_perc,2024.2.4,Win32,20,66706bf3288568808d36ff2c,687ed1b7e638a4cbf2f02089,689b94db0b0e443391ea2cf6,,,,,,,,,,,,,,1,,,,,,,,,,,,,,,,,,,,,,,,,,,,,,,,,,,,,,,,,,,,,,,,,,,,,,,,,52,camisa,,,,,572.4652,573.9663,1,1,0.976,,0,24,24,51,1,REAL,FAKE,,,,,,,,,,,,,,,,,
,,,,,,,,,66706bf3288568808d36ff2c,spanish,13 or older,"no, only English or Spanish",no,2025-08-12_15h25.12.117,empathy_intonation_perc,2024.2.4,Win32,20,66706bf3288568808d36ff2c,687ed1b7e638a4cbf2f02089,689b94db0b0e443391ea2cf6,,,,,,,,,,,,,,1,,,,,,,,,,,,,,,,,,,,,,,,,,,,,,,,,,,,,,,,,,,,,,,,,,,,,,,,,73,hervidor,,,,,573.9682,575.802,0,0,1.2661,,0,25,25,72,1,REAL,FAKE,,,,,,,,,,,,,,,,,
,,,,,,,,,66706bf3288568808d36ff2c,spanish,13 or older,"no, only English or Spanish",no,2025-08-12_15h25.12.117,empathy_intonation_perc,2024.2.4,Win32,20,66706bf3288568808d36ff2c,687ed1b7e638a4cbf2f02089,689b94db0b0e443391ea2cf6,,,,,,,,,,,,,,1,,,,,,,,,,,,,,,,,,,,,,,,,,,,,,,,,,,,,,,,,,,,,,,,,,,,,,,,,62,flaco,,,,,575.8037,577.0985,0,0,0.7578,,0,26,26,61,1,REAL,FAKE,,,,,,,,,,,,,,,,,
,,,,,,,,,66706bf3288568808d36ff2c,spanish,13 or older,"no, only English or Spanish",no,2025-08-12_15h25.12.117,empathy_intonation_perc,2024.2.4,Win32,20,66706bf3288568808d36ff2c,687ed1b7e638a4cbf2f02089,689b94db0b0e443391ea2cf6,,,,,,,,,,,,,,0,,,,,,,,,,,,,,,,,,,,,,,,,,,,,,,,,,,,,,,,,,,,,,,,,,,,,,,,,63,esposante,,,,,577.1005,578.434,0,1,0.7941,,0,27,27,62,1,REAL,FAKE,,,,,,,,,,,,,,,,,
,,,,,,,,,66706bf3288568808d36ff2c,spanish,13 or older,"no, only English or Spanish",no,2025-08-12_15h25.12.117,empathy_intonation_perc,2024.2.4,Win32,20,66706bf3288568808d36ff2c,687ed1b7e638a4cbf2f02089,689b94db0b0e443391ea2cf6,,,,,,,,,,,,,,1,,,,,,,,,,,,,,,,,,,,,,,,,,,,,,,,,,,,,,,,,,,,,,,,,,,,,,,,,14,yunque,,,,,578.4359,579.9992,0,0,1.0224,,0,28,28,13,1,REAL,FAKE,,,,,,,,,,,,,,,,,
,,,,,,,,,66706bf3288568808d36ff2c,spanish,13 or older,"no, only English or Spanish",no,2025-08-12_15h25.12.117,empathy_intonation_perc,2024.2.4,Win32,20,66706bf3288568808d36ff2c,687ed1b7e638a4cbf2f02089,689b94db0b0e443391ea2cf6,,,,,,,,,,,,,,0,,,,,,,,,,,,,,,,,,,,,,,,,,,,,,,,,,,,,,,,,,,,,,,,,,,,,,,,,84,escuto,,,,,580.0011,581.5197,1,0,0.9768,,0,29,29,83,1,REAL,FAKE,,,,,,,,,,,,,,,,,
,,,,,,,,,66706bf3288568808d36ff2c,spanish,13 or older,"no, only English or Spanish",no,2025-08-12_15h25.12.117,empathy_intonation_perc,2024.2.4,Win32,20,66706bf3288568808d36ff2c,687ed1b7e638a4cbf2f02089,689b94db0b0e443391ea2cf6,,,,,,,,,,,,,,1,,,,,,,,,,,,,,,,,,,,,,,,,,,,,,,,,,,,,,,,,,,,,,,,,,,,,,,,,51,candado,,,,,581.5217,583.3547,0,0,1.272,,0,30,30,50,1,REAL,FAKE,,,,,,,,,,,,,,,,,
,,,,,,,,,66706bf3288568808d36ff2c,spanish,13 or older,"no, only English or Spanish",no,2025-08-12_15h25.12.117,empathy_intonation_perc,2024.2.4,Win32,20,66706bf3288568808d36ff2c,687ed1b7e638a4cbf2f02089,689b94db0b0e443391ea2cf6,,,,,,,,,,,,,,0,,,,,,,,,,,,,,,,,,,,,,,,,,,,,,,,,,,,,,,,,,,,,,,,,,,,,,,,,87,grodo,,,,,583.3567,584.8548,0,1,0.9563,,0,31,31,86,1,REAL,FAKE,,,,,,,,,,,,,,,,,
,,,,,,,,,66706bf3288568808d36ff2c,spanish,13 or older,"no, only English or Spanish",no,2025-08-12_15h25.12.117,empathy_intonation_perc,2024.2.4,Win32,20,66706bf3288568808d36ff2c,687ed1b7e638a4cbf2f02089,689b94db0b0e443391ea2cf6,,,,,,,,,,,,,,1,,,,,,,,,,,,,,,,,,,,,,,,,,,,,,,,,,,,,,,,,,,,,,,,,,,,,,,,,59,besar,,,,,584.8567,587.8464,0,0,2.4276,,0,32,32,58,1,REAL,FAKE,,,,,,,,,,,,,,,,,
,,,,,,,,,66706bf3288568808d36ff2c,spanish,13 or older,"no, only English or Spanish",no,2025-08-12_15h25.12.117,empathy_intonation_perc,2024.2.4,Win32,20,66706bf3288568808d36ff2c,687ed1b7e638a4cbf2f02089,689b94db0b0e443391ea2cf6,,,,,,,,,,,,,,0,,,,,,,,,,,,,,,,,,,,,,,,,,,,,,,,,,,,,,,,,,,,,,,,,,,,,,,,,10,antar,,,,,587.8484,589.7509,0,1,1.3408,,0,33,33,9,1,REAL,FAKE,,,,,,,,,,,,,,,,,
,,,,,,,,,66706bf3288568808d36ff2c,spanish,13 or older,"no, only English or Spanish",no,2025-08-12_15h25.12.117,empathy_intonation_perc,2024.2.4,Win32,20,66706bf3288568808d36ff2c,687ed1b7e638a4cbf2f02089,689b94db0b0e443391ea2cf6,,,,,,,,,,,,,,0,,,,,,,,,,,,,,,,,,,,,,,,,,,,,,,,,,,,,,,,,,,,,,,,,,,,,,,,,82,empirador,,,,,589.7527,591.5847,0,1,1.2724,,0,34,34,81,1,REAL,FAKE,,,,,,,,,,,,,,,,,
,,,,,,,,,66706bf3288568808d36ff2c,spanish,13 or older,"no, only English or Spanish",no,2025-08-12_15h25.12.117,empathy_intonation_perc,2024.2.4,Win32,20,66706bf3288568808d36ff2c,687ed1b7e638a4cbf2f02089,689b94db0b0e443391ea2cf6,,,,,,,,,,,,,,1,,,,,,,,,,,,,,,,,,,,,,,,,,,,,,,,,,,,,,,,,,,,,,,,,,,,,,,,,89,prisa,,,,,591.5868,593.5591,0,0,1.4245,,0,35,35,88,1,REAL,FAKE,,,,,,,,,,,,,,,,,
,,,,,,,,,66706bf3288568808d36ff2c,spanish,13 or older,"no, only English or Spanish",no,2025-08-12_15h25.12.117,empathy_intonation_perc,2024.2.4,Win32,20,66706bf3288568808d36ff2c,687ed1b7e638a4cbf2f02089,689b94db0b0e443391ea2cf6,,,,,,,,,,,,,,1,,,,,,,,,,,,,,,,,,,,,,,,,,,,,,,,,,,,,,,,,,,,,,,,,,,,,,,,,7,pésimo,,,,,593.5608,595.0958,1,1,0.9841,,0,36,36,6,1,REAL,FAKE,,,,,,,,,,,,,,,,,
,,,,,,,,,66706bf3288568808d36ff2c,spanish,13 or older,"no, only English or Spanish",no,2025-08-12_15h25.12.117,empathy_intonation_perc,2024.2.4,Win32,20,66706bf3288568808d36ff2c,687ed1b7e638a4cbf2f02089,689b94db0b0e443391ea2cf6,,,,,,,,,,,,,,1,,,,,,,,,,,,,,,,,,,,,,,,,,,,,,,,,,,,,,,,,,,,,,,,,,,,,,,,,71,polvoriento,,,,,595.0977,596.6608,0,0,1.0098,,0,37,37,70,1,REAL,FAKE,,,,,,,,,,,,,,,,,
,,,,,,,,,66706bf3288568808d36ff2c,spanish,13 or older,"no, only English or Spanish",no,2025-08-12_15h25.12.117,empathy_intonation_perc,2024.2.4,Win32,20,66706bf3288568808d36ff2c,687ed1b7e638a4cbf2f02089,689b94db0b0e443391ea2cf6,,,,,,,,,,,,,,1,,,,,,,,,,,,,,,,,,,,,,,,,,,,,,,,,,,,,,,,,,,,,,,,,,,,,,,,,45,jilguero,,,,,596.6627,598.4293,0,0,1.2187,,0,38,38,44,1,REAL,FAKE,,,,,,,,,,,,,,,,,
,,,,,,,,,66706bf3288568808d36ff2c,spanish,13 or older,"no, only English or Spanish",no,2025-08-12_15h25.12.117,empathy_intonation_perc,2024.2.4,Win32,20,66706bf3288568808d36ff2c,687ed1b7e638a4cbf2f02089,689b94db0b0e443391ea2cf6,,,,,,,,,,,,,,1,,,,,,,,,,,,,,,,,,,,,,,,,,,,,,,,,,,,,,,,,,,,,,,,,,,,,,,,,36,loro,,,,,598.431,599.7747,0,0,0.7963,,0,39,39,35,1,REAL,FAKE,,,,,,,,,,,,,,,,,
,,,,,,,,,66706bf3288568808d36ff2c,spanish,13 or older,"no, only English or Spanish",no,2025-08-12_15h25.12.117,empathy_intonation_perc,2024.2.4,Win32,20,66706bf3288568808d36ff2c,687ed1b7e638a4cbf2f02089,689b94db0b0e443391ea2cf6,,,,,,,,,,,,,,0,,,,,,,,,,,,,,,,,,,,,,,,,,,,,,,,,,,,,,,,,,,,,,,,,,,,,,,,,18,arsa,,,,,599.7763,601.249,0,1,0.9208,,0,40,40,17,1,REAL,FAKE,,,,,,,,,,,,,,,,,
,,,,,,,,,66706bf3288568808d36ff2c,spanish,13 or older,"no, only English or Spanish",no,2025-08-12_15h25.12.117,empathy_intonation_perc,2024.2.4,Win32,20,66706bf3288568808d36ff2c,687ed1b7e638a4cbf2f02089,689b94db0b0e443391ea2cf6,,,,,,,,,,,,,,1,,,,,,,,,,,,,,,,,,,,,,,,,,,,,,,,,,,,,,,,,,,,,,,,,,,,,,,,,25,bisagra,,,,,601.2511,603.1585,0,0,1.3672,,0,41,41,24,1,REAL,FAKE,,,,,,,,,,,,,,,,,
,,,,,,,,,66706bf3288568808d36ff2c,spanish,13 or older,"no, only English or Spanish",no,2025-08-12_15h25.12.117,empathy_intonation_perc,2024.2.4,Win32,20,66706bf3288568808d36ff2c,687ed1b7e638a4cbf2f02089,689b94db0b0e443391ea2cf6,,,,,,,,,,,,,,1,,,,,,,,,,,,,,,,,,,,,,,,,,,,,,,,,,,,,,,,,,,,,,,,,,,,,,,,,61,seda,,,,,603.1605,604.6419,1,1,0.9324,,0,42,42,60,1,REAL,FAKE,,,,,,,,,,,,,,,,,
,,,,,,,,,66706bf3288568808d36ff2c,spanish,13 or older,"no, only English or Spanish",no,2025-08-12_15h25.12.117,empathy_intonation_perc,2024.2.4,Win32,20,66706bf3288568808d36ff2c,687ed1b7e638a4cbf2f02089,689b94db0b0e443391ea2cf6,,,,,,,,,,,,,,1,,,,,,,,,,,,,,,,,,,,,,,,,,,,,,,,,,,,,,,,,,,,,,,,,,,,,,,,,44,cuchara,,,,,604.6435,606.1746,1,1,0.9849,,0,43,43,43,1,REAL,FAKE,,,,,,,,,,,,,,,,,
,,,,,,,,,66706bf3288568808d36ff2c,spanish,13 or older,"no, only English or Spanish",no,2025-08-12_15h25.12.117,empathy_intonation_perc,2024.2.4,Win32,20,66706bf3288568808d36ff2c,687ed1b7e638a4cbf2f02089,689b94db0b0e443391ea2cf6,,,,,,,,,,,,,,1,,,,,,,,,,,,,,,,,,,,,,,,,,,,,,,,,,,,,,,,,,,,,,,,,,,,,,,,,12,asesinato,,,,,606.1762,607.6578,0,0,0.9341,,0,44,44,11,1,REAL,FAKE,,,,,,,,,,,,,,,,,
,,,,,,,,,66706bf3288568808d36ff2c,spanish,13 or older,"no, only English or Spanish",no,2025-08-12_15h25.12.117,empathy_intonation_perc,2024.2.4,Win32,20,66706bf3288568808d36ff2c,687ed1b7e638a4cbf2f02089,689b94db0b0e443391ea2cf6,,,,,,,,,,,,,,1,,,,,,,,,,,,,,,,,,,,,,,,,,,,,,,,,,,,,,,,,,,,,,,,,,,,,,,,,48,ladrón,,,,,607.6594,608.9743,0,0,0.7723,,0,45,45,47,1,REAL,FAKE,,,,,,,,,,,,,,,,,
,,,,,,,,,66706bf3288568808d36ff2c,spanish,13 or older,"no, only English or Spanish",no,2025-08-12_15h25.12.117,empathy_intonation_perc,2024.2.4,Win32,20,66706bf3288568808d36ff2c,687ed1b7e638a4cbf2f02089,689b94db0b0e443391ea2cf6,,,,,,,,,,,,,,1,,,,,,,,,,,,,,,,,,,,,,,,,,,,,,,,,,,,,,,,,,,,,,,,,,,,,,,,,60,matar,,,,,608.9758,610.5075,0,0,0.9838,,0,46,46,59,1,REAL,FAKE,,,,,,,,,,,,,,,,,
,,,,,,,,,66706bf3288568808d36ff2c,spanish,13 or older,"no, only English or Spanish",no,2025-08-12_15h25.12.117,empathy_intonation_perc,2024.2.4,Win32,20,66706bf3288568808d36ff2c,687ed1b7e638a4cbf2f02089,689b94db0b0e443391ea2cf6,,,,,,,,,,,,,,1,,,,,,,,,,,,,,,,,,,,,,,,,,,,,,,,,,,,,,,,,,,,,,,,,,,,,,,,,22,lacayo,,,,,610.5089,611.8243,0,0,0.783,,0,47,47,21,1,REAL,FAKE,,,,,,,,,,,,,,,,,
,,,,,,,,,66706bf3288568808d36ff2c,spanish,13 or older,"no, only English or Spanish",no,2025-08-12_15h25.12.117,empathy_intonation_perc,2024.2.4,Win32,20,66706bf3288568808d36ff2c,687ed1b7e638a4cbf2f02089,689b94db0b0e443391ea2cf6,,,,,,,,,,,,,,0,,,,,,,,,,,,,,,,,,,,,,,,,,,,,,,,,,,,,,,,,,,,,,,,,,,,,,,,,72,pemición,,,,,611.826,613.1885,0,1,0.834,,0,48,48,71,1,REAL,FAKE,,,,,,,,,,,,,,,,,
,,,,,,,,,66706bf3288568808d36ff2c,spanish,13 or older,"no, only English or Spanish",no,2025-08-12_15h25.12.117,empathy_intonation_perc,2024.2.4,Win32,20,66706bf3288568808d36ff2c,687ed1b7e638a4cbf2f02089,689b94db0b0e443391ea2cf6,,,,,,,,,,,,,,0,,,,,,,,,,,,,,,,,,,,,,,,,,,,,,,,,,,,,,,,,,,,,,,,,,,,,,,,,53,vegada,,,,,613.1899,614.8573,0,1,1.1338,,0,49,49,52,1,REAL,FAKE,,,,,,,,,,,,,,,,,
,,,,,,,,,66706bf3288568808d36ff2c,spanish,13 or older,"no, only English or Spanish",no,2025-08-12_15h25.12.117,empathy_intonation_perc,2024.2.4,Win32,20,66706bf3288568808d36ff2c,687ed1b7e638a4cbf2f02089,689b94db0b0e443391ea2cf6,,,,,,,,,,,,,,0,,,,,,,,,,,,,,,,,,,,,,,,,,,,,,,,,,,,,,,,,,,,,,,,,,,,,,,,,33,pauca,,,,,614.8591,616.3119,0,1,0.9063,,0,50,50,32,1,REAL,FAKE,,,,,,,,,,,,,,,,,
,,,,,,,,,66706bf3288568808d36ff2c,spanish,13 or older,"no, only English or Spanish",no,2025-08-12_15h25.12.117,empathy_intonation_perc,2024.2.4,Win32,20,66706bf3288568808d36ff2c,687ed1b7e638a4cbf2f02089,689b94db0b0e443391ea2cf6,,,,,,,,,,,,,,1,,,,,,,,,,,,,,,,,,,,,,,,,,,,,,,,,,,,,,,,,,,,,,,,,,,,,,,,,85,laúd,,,,,616.3143,617.5893,0,0,0.7515,,0,51,51,84,1,REAL,FAKE,,,,,,,,,,,,,,,,,
,,,,,,,,,66706bf3288568808d36ff2c,spanish,13 or older,"no, only English or Spanish",no,2025-08-12_15h25.12.117,empathy_intonation_perc,2024.2.4,Win32,20,66706bf3288568808d36ff2c,687ed1b7e638a4cbf2f02089,689b94db0b0e443391ea2cf6,,,,,,,,,,,,,,1,,,,,,,,,,,,,,,,,,,,,,,,,,,,,,,,,,,,,,,,,,,,,,,,,,,,,,,,,38,estornudar,,,,,617.5912,619.374,0,0,1.2494,,0,52,52,37,1,REAL,FAKE,,,,,,,,,,,,,,,,,
,,,,,,,,,66706bf3288568808d36ff2c,spanish,13 or older,"no, only English or Spanish",no,2025-08-12_15h25.12.117,empathy_intonation_perc,2024.2.4,Win32,20,66706bf3288568808d36ff2c,687ed1b7e638a4cbf2f02089,689b94db0b0e443391ea2cf6,,,,,,,,,,,,,,0,,,,,,,,,,,,,,,,,,,,,,,,,,,,,,,,,,,,,,,,,,,,,,,,,,,,,,,,,42,cadallo,,,,,619.3765,620.6975,0,1,0.7764,,0,53,53,41,1,REAL,FAKE,,,,,,,,,,,,,,,,,
,,,,,,,,,66706bf3288568808d36ff2c,spanish,13 or older,"no, only English or Spanish",no,2025-08-12_15h25.12.117,empathy_intonation_perc,2024.2.4,Win32,20,66706bf3288568808d36ff2c,687ed1b7e638a4cbf2f02089,689b94db0b0e443391ea2cf6,,,,,,,,,,,,,,1,,,,,,,,,,,,,,,,,,,,,,,,,,,,,,,,,,,,,,,,,,,,,,,,,,,,,,,,,28,merodear,,,,,620.6992,622.2245,0,0,0.9855,,0,54,54,27,1,REAL,FAKE,,,,,,,,,,,,,,,,,
,,,,,,,,,66706bf3288568808d36ff2c,spanish,13 or older,"no, only English or Spanish",no,2025-08-12_15h25.12.117,empathy_intonation_perc,2024.2.4,Win32,20,66706bf3288568808d36ff2c,687ed1b7e638a4cbf2f02089,689b94db0b0e443391ea2cf6,,,,,,,,,,,,,,0,,,,,,,,,,,,,,,,,,,,,,,,,,,,,,,,,,,,,,,,,,,,,,,,,,,,,,,,,32,fatacidad,,,,,622.2264,624.0234,1,0,1.2491,,0,55,55,31,1,REAL,FAKE,,,,,,,,,,,,,,,,,
,,,,,,,,,66706bf3288568808d36ff2c,spanish,13 or older,"no, only English or Spanish",no,2025-08-12_15h25.12.117,empathy_intonation_perc,2024.2.4,Win32,20,66706bf3288568808d36ff2c,687ed1b7e638a4cbf2f02089,689b94db0b0e443391ea2cf6,,,,,,,,,,,,,,1,,,,,,,,,,,,,,,,,,,,,,,,,,,,,,,,,,,,,,,,,,,,,,,,,,,,,,,,,49,ganar,,,,,624.025,625.6919,1,1,1.1171,,0,56,56,48,1,REAL,FAKE,,,,,,,,,,,,,,,,,
,,,,,,,,,66706bf3288568808d36ff2c,spanish,13 or older,"no, only English or Spanish",no,2025-08-12_15h25.12.117,empathy_intonation_perc,2024.2.4,Win32,20,66706bf3288568808d36ff2c,687ed1b7e638a4cbf2f02089,689b94db0b0e443391ea2cf6,,,,,,,,,,,,,,0,,,,,,,,,,,,,,,,,,,,,,,,,,,,,,,,,,,,,,,,,,,,,,,,,,,,,,,,,74,cintro,,,,,625.6936,627.2113,0,1,0.9864,,0,57,57,73,1,REAL,FAKE,,,,,,,,,,,,,,,,,
,,,,,,,,,66706bf3288568808d36ff2c,spanish,13 or older,"no, only English or Spanish",no,2025-08-12_15h25.12.117,empathy_intonation_perc,2024.2.4,Win32,20,66706bf3288568808d36ff2c,687ed1b7e638a4cbf2f02089,689b94db0b0e443391ea2cf6,,,,,,,,,,,,,,1,,,,,,,,,,,,,,,,,,,,,,,,,,,,,,,,,,,,,,,,,,,,,,,,,,,,,,,,,75,yacer,,,,,627.2141,628.5187,0,0,0.7803,,0,58,58,74,1,REAL,FAKE,,,,,,,,,,,,,,,,,
,,,,,,,,,66706bf3288568808d36ff2c,spanish,13 or older,"no, only English or Spanish",no,2025-08-12_15h25.12.117,empathy_intonation_perc,2024.2.4,Win32,20,66706bf3288568808d36ff2c,687ed1b7e638a4cbf2f02089,689b94db0b0e443391ea2cf6,,,,,,,,,,,,,,1,,,,,,,,,,,,,,,,,,,,,,,,,,,,,,,,,,,,,,,,,,,,,,,,,,,,,,,,,54,fomentar,,,,,628.5207,630.3016,0,0,1.2512,,0,59,59,53,1,REAL,FAKE,,,,,,,,,,,,,,,,,
,,,,,,,,,66706bf3288568808d36ff2c,spanish,13 or older,"no, only English or Spanish",no,2025-08-12_15h25.12.117,empathy_intonation_perc,2024.2.4,Win32,20,66706bf3288568808d36ff2c,687ed1b7e638a4cbf2f02089,689b94db0b0e443391ea2cf6,,,,,,,,,,,,,,0,,,,,,,,,,,,,,,,,,,,,,,,,,,,,,,,,,,,,,,,,,,,,,,,,,,,,,,,,4,batillón,,,,,630.3036,631.7672,1,0,0.9342,,0,60,60,3,1,REAL,FAKE,,,,,,,,,,,,,,,,,
,,,,,,,,,66706bf3288568808d36ff2c,spanish,13 or older,"no, only English or Spanish",no,2025-08-12_15h25.12.117,empathy_intonation_perc,2024.2.4,Win32,20,66706bf3288568808d36ff2c,687ed1b7e638a4cbf2f02089,689b94db0b0e443391ea2cf6,,,,,,,,,,,,,,1,,,,,,,,,,,,,,,,,,,,,,,,,,,,,,,,,,,,,,,,,,,,,,,,,,,,,,,,,81,pozo,,,,,631.7691,633.4518,1,1,1.1518,,0,61,61,80,1,REAL,FAKE,,,,,,,,,,,,,,,,,
,,,,,,,,,66706bf3288568808d36ff2c,spanish,13 or older,"no, only English or Spanish",no,2025-08-12_15h25.12.117,empathy_intonation_perc,2024.2.4,Win32,20,66706bf3288568808d36ff2c,687ed1b7e638a4cbf2f02089,689b94db0b0e443391ea2cf6,,,,,,,,,,,,,,0,,,,,,,,,,,,,,,,,,,,,,,,,,,,,,,,,,,,,,,,,,,,,,,,,,,,,,,,,16,abracer,,,,,633.4539,637.152,0,1,3.1686,,0,62,62,15,1,REAL,FAKE,,,,,,,,,,,,,,,,,
,,,,,,,,,66706bf3288568808d36ff2c,spanish,13 or older,"no, only English or Spanish",no,2025-08-12_15h25.12.117,empathy_intonation_perc,2024.2.4,Win32,20,66706bf3288568808d36ff2c,687ed1b7e638a4cbf2f02089,689b94db0b0e443391ea2cf6,,,,,,,,,,,,,,0,,,,,,,,,,,,,,,,,,,,,,,,,,,,,,,,,,,,,,,,,,,,,,,,,,,,,,,,,27,acutación,,,,,637.154,638.7348,0,1,1.0487,,0,63,63,26,1,REAL,FAKE,,,,,,,,,,,,,,,,,
,,,,,,,,,66706bf3288568808d36ff2c,spanish,13 or older,"no, only English or Spanish",no,2025-08-12_15h25.12.117,empathy_intonation_perc,2024.2.4,Win32,20,66706bf3288568808d36ff2c,687ed1b7e638a4cbf2f02089,689b94db0b0e443391ea2cf6,,,,,,,,,,,,,,1,,,,,,,,,,,,,,,,,,,,,,,,,,,,,,,,,,,,,,,,,,,,,,,,,,,,,,,,,91,click the 1 key.,,,,,638.738,640.4015,1,1,1.135,,0,64,64,90,1,REAL,FAKE,,,,,,,,,,,,,,,,,
,,,,,,,,,66706bf3288568808d36ff2c,spanish,13 or older,"no, only English or Spanish",no,2025-08-12_15h25.12.117,empathy_intonation_perc,2024.2.4,Win32,20,66706bf3288568808d36ff2c,687ed1b7e638a4cbf2f02089,689b94db0b0e443391ea2cf6,,,,,,,,,,,,,,1,,,,,,,,,,,,,,,,,,,,,,,,,,,,,,,,,,,,,,,,,,,,,,,,,,,,,,,,,9,hacha,,,,,640.4035,643.4183,0,0,2.4852,,0,65,65,8,1,REAL,FAKE,,,,,,,,,,,,,,,,,
,,,,,,,,,66706bf3288568808d36ff2c,spanish,13 or older,"no, only English or Spanish",no,2025-08-12_15h25.12.117,empathy_intonation_perc,2024.2.4,Win32,20,66706bf3288568808d36ff2c,687ed1b7e638a4cbf2f02089,689b94db0b0e443391ea2cf6,,,,,,,,,,,,,,1,,,,,,,,,,,,,,,,,,,,,,,,,,,,,,,,,,,,,,,,,,,,,,,,,,,,,,,,,78,frondoso,,,,,643.4203,644.7841,0,0,0.8347,,0,66,66,77,1,REAL,FAKE,,,,,,,,,,,,,,,,,
,,,,,,,,,66706bf3288568808d36ff2c,spanish,13 or older,"no, only English or Spanish",no,2025-08-12_15h25.12.117,empathy_intonation_perc,2024.2.4,Win32,20,66706bf3288568808d36ff2c,687ed1b7e638a4cbf2f02089,689b94db0b0e443391ea2cf6,,,,,,,,,,,,,,1,,,,,,,,,,,,,,,,,,,,,,,,,,,,,,,,,,,,,,,,,,,,,,,,,,,,,,,,,86,barato,,,,,644.7859,646.4761,0,0,1.1562,,0,67,67,85,1,REAL,FAKE,,,,,,,,,,,,,,,,,
,,,,,,,,,66706bf3288568808d36ff2c,spanish,13 or older,"no, only English or Spanish",no,2025-08-12_15h25.12.117,empathy_intonation_perc,2024.2.4,Win32,20,66706bf3288568808d36ff2c,687ed1b7e638a4cbf2f02089,689b94db0b0e443391ea2cf6,,,,,,,,,,,,,,0,,,,,,,,,,,,,,,,,,,,,,,,,,,,,,,,,,,,,,,,,,,,,,,,,,,,,,,,,8,cadeña,,,,,646.4782,647.8745,1,0,0.8314,,0,68,68,7,1,REAL,FAKE,,,,,,,,,,,,,,,,,
,,,,,,,,,66706bf3288568808d36ff2c,spanish,13 or older,"no, only English or Spanish",no,2025-08-12_15h25.12.117,empathy_intonation_perc,2024.2.4,Win32,20,66706bf3288568808d36ff2c,687ed1b7e638a4cbf2f02089,689b94db0b0e443391ea2cf6,,,,,,,,,,,,,,1,,,,,,,,,,,,,,,,,,,,,,,,,,,,,,,,,,,,,,,,,,,,,,,,,,,,,,,,,41,rebuscar,,,,,647.876,649.7092,0,0,1.2883,,0,69,69,40,1,REAL,FAKE,,,,,,,,,,,,,,,,,
,,,,,,,,,66706bf3288568808d36ff2c,spanish,13 or older,"no, only English or Spanish",no,2025-08-12_15h25.12.117,empathy_intonation_perc,2024.2.4,Win32,20,66706bf3288568808d36ff2c,687ed1b7e638a4cbf2f02089,689b94db0b0e443391ea2cf6,,,,,,,,,,,,,,1,,,,,,,,,,,,,,,,,,,,,,,,,,,,,,,,,,,,,,,,,,,,,,,,,,,,,,,,,65,bizcocho,,,,,649.712,651.0657,0,0,0.8049,,0,70,70,64,1,REAL,FAKE,,,,,,,,,,,,,,,,,
,,,,,,,,,66706bf3288568808d36ff2c,spanish,13 or older,"no, only English or Spanish",no,2025-08-12_15h25.12.117,empathy_intonation_perc,2024.2.4,Win32,20,66706bf3288568808d36ff2c,687ed1b7e638a4cbf2f02089,689b94db0b0e443391ea2cf6,,,,,,,,,,,,,,0,,,,,,,,,,,,,,,,,,,,,,,,,,,,,,,,,,,,,,,,,,,,,,,,,,,,,,,,,58,plaudir,,,,,651.0676,652.829,0,1,1.1735,,0,71,71,57,1,REAL,FAKE,,,,,,,,,,,,,,,,,
,,,,,,,,,66706bf3288568808d36ff2c,spanish,13 or older,"no, only English or Spanish",no,2025-08-12_15h25.12.117,empathy_intonation_perc,2024.2.4,Win32,20,66706bf3288568808d36ff2c,687ed1b7e638a4cbf2f02089,689b94db0b0e443391ea2cf6,,,,,,,,,,,,,,1,,,,,,,,,,,,,,,,,,,,,,,,,,,,,,,,,,,,,,,,,,,,,,,,,,,,,,,,,2,pellizcar,,,,,652.831,654.6247,0,0,1.2495,,0,72,72,1,1,REAL,FAKE,,,,,,,,,,,,,,,,,
,,,,,,,,,66706bf3288568808d36ff2c,spanish,13 or older,"no, only English or Spanish",no,2025-08-12_15h25.12.117,empathy_intonation_perc,2024.2.4,Win32,20,66706bf3288568808d36ff2c,687ed1b7e638a4cbf2f02089,689b94db0b0e443391ea2cf6,,,,,,,,,,,,,,1,,,,,,,,,,,,,,,,,,,,,,,,,,,,,,,,,,,,,,,,,,,,,,,,,,,,,,,,,31,pandilla,,,,,654.627,656.2382,1,1,1.068,,0,73,73,30,1,REAL,FAKE,,,,,,,,,,,,,,,,,
,,,,,,,,,66706bf3288568808d36ff2c,spanish,13 or older,"no, only English or Spanish",no,2025-08-12_15h25.12.117,empathy_intonation_perc,2024.2.4,Win32,20,66706bf3288568808d36ff2c,687ed1b7e638a4cbf2f02089,689b94db0b0e443391ea2cf6,,,,,,,,,,,,,,0,,,,,,,,,,,,,,,,,,,,,,,,,,,,,,,,,,,,,,,,,,,,,,,,,,,,,,,,,21,capillo,,,,,656.2397,658.5221,0,1,1.7282,,0,74,74,20,1,REAL,FAKE,,,,,,,,,,,,,,,,,
,,,,,,,,,66706bf3288568808d36ff2c,spanish,13 or older,"no, only English or Spanish",no,2025-08-12_15h25.12.117,empathy_intonation_perc,2024.2.4,Win32,20,66706bf3288568808d36ff2c,687ed1b7e638a4cbf2f02089,689b94db0b0e443391ea2cf6,,,,,,,,,,,,,,0,,,,,,,,,,,,,,,,,,,,,,,,,,,,,,,,,,,,,,,,,,,,,,,,,,,,,,,,,1,terzo,,,,,658.5242,660.8608,0,1,1.7915,,0,75,75,0,1,REAL,FAKE,,,,,,,,,,,,,,,,,
,,,,,,,,,66706bf3288568808d36ff2c,spanish,13 or older,"no, only English or Spanish",no,2025-08-12_15h25.12.117,empathy_intonation_perc,2024.2.4,Win32,20,66706bf3288568808d36ff2c,687ed1b7e638a4cbf2f02089,689b94db0b0e443391ea2cf6,,,,,,,,,,,,,,1,,,,,,,,,,,,,,,,,,,,,,,,,,,,,,,,,,,,,,,,,,,,,,,,,,,,,,,,,24,látigo,,,,,660.8625,662.7214,0,0,1.3285,,0,76,76,23,1,REAL,FAKE,,,,,,,,,,,,,,,,,
,,,,,,,,,66706bf3288568808d36ff2c,spanish,13 or older,"no, only English or Spanish",no,2025-08-12_15h25.12.117,empathy_intonation_perc,2024.2.4,Win32,20,66706bf3288568808d36ff2c,687ed1b7e638a4cbf2f02089,689b94db0b0e443391ea2cf6,,,,,,,,,,,,,,1,,,,,,,,,,,,,,,,,,,,,,,,,,,,,,,,,,,,,,,,,,,,,,,,,,,,,,,,,56,musgo,,,,,662.7228,664.7192,0,0,1.3918,,0,77,77,55,1,REAL,FAKE,,,,,,,,,,,,,,,,,
,,,,,,,,,66706bf3288568808d36ff2c,spanish,13 or older,"no, only English or Spanish",no,2025-08-12_15h25.12.117,empathy_intonation_perc,2024.2.4,Win32,20,66706bf3288568808d36ff2c,687ed1b7e638a4cbf2f02089,689b94db0b0e443391ea2cf6,,,,,,,,,,,,,,1,,,,,,,,,,,,,,,,,,,,,,,,,,,,,,,,,,,,,,,,,,,,,,,,,,,,,,,,,26,secuestro,,,,,664.7217,668.5333,1,1,3.2751,,0,78,78,25,1,REAL,FAKE,,,,,,,,,,,,,,,,,
,,,,,,,,,66706bf3288568808d36ff2c,spanish,13 or older,"no, only English or Spanish",no,2025-08-12_15h25.12.117,empathy_intonation_perc,2024.2.4,Win32,20,66706bf3288568808d36ff2c,687ed1b7e638a4cbf2f02089,689b94db0b0e443391ea2cf6,,,,,,,,,,,,,,1,,,,,,,,,,,,,,,,,,,,,,,,,,,,,,,,,,,,,,,,,,,,,,,,,,,,,,,,,40,alfombra,,,,,668.5353,670.0991,0,0,1.0333,,0,79,79,39,1,REAL,FAKE,,,,,,,,,,,,,,,,,
,,,,,,,,,66706bf3288568808d36ff2c,spanish,13 or older,"no, only English or Spanish",no,2025-08-12_15h25.12.117,empathy_intonation_perc,2024.2.4,Win32,20,66706bf3288568808d36ff2c,687ed1b7e638a4cbf2f02089,689b94db0b0e443391ea2cf6,,,,,,,,,,,,,,1,,,,,,,,,,,,,,,,,,,,,,,,,,,,,,,,,,,,,,,,,,,,,,,,,,,,,,,,,46,martillo,,,,,670.1011,671.5044,1,1,0.8708,,0,80,80,45,1,REAL,FAKE,,,,,,,,,,,,,,,,,
,,,,,,,,,66706bf3288568808d36ff2c,spanish,13 or older,"no, only English or Spanish",no,2025-08-12_15h25.12.117,empathy_intonation_perc,2024.2.4,Win32,20,66706bf3288568808d36ff2c,687ed1b7e638a4cbf2f02089,689b94db0b0e443391ea2cf6,,,,,,,,,,,,,,1,,,,,,,,,,,,,,,,,,,,,,,,,,,,,,,,,,,,,,,,,,,,,,,,,,,,,,,,,6,tergiversar,,,,,671.5067,673.471,0,0,1.4183,,0,81,81,5,1,REAL,FAKE,,,,,,,,,,,,,,,,,
,,,,,,,,,66706bf3288568808d36ff2c,spanish,13 or older,"no, only English or Spanish",no,2025-08-12_15h25.12.117,empathy_intonation_perc,2024.2.4,Win32,20,66706bf3288568808d36ff2c,687ed1b7e638a4cbf2f02089,689b94db0b0e443391ea2cf6,,,,,,,,,,,,,,0,,,,,,,,,,,,,,,,,,,,,,,,,,,,,,,,,,,,,,,,,,,,,,,,,,,,,,,,,79,tropaje,,,,,673.472,675.141,1,0,1.1356,,0,82,82,78,1,REAL,FAKE,,,,,,,,,,,,,,,,,
,,,,,,,,,66706bf3288568808d36ff2c,spanish,13 or older,"no, only English or Spanish",no,2025-08-12_15h25.12.117,empathy_intonation_perc,2024.2.4,Win32,20,66706bf3288568808d36ff2c,687ed1b7e638a4cbf2f02089,689b94db0b0e443391ea2cf6,,,,,,,,,,,,,,1,,,,,,,,,,,,,,,,,,,,,,,,,,,,,,,,,,,,,,,,,,,,,,,,,,,,,,,,,76,atar,,,,,675.1427,676.6298,0,0,0.9218,,0,83,83,75,1,REAL,FAKE,,,,,,,,,,,,,,,,,
,,,,,,,,,66706bf3288568808d36ff2c,spanish,13 or older,"no, only English or Spanish",no,2025-08-12_15h25.12.117,empathy_intonation_perc,2024.2.4,Win32,20,66706bf3288568808d36ff2c,687ed1b7e638a4cbf2f02089,689b94db0b0e443391ea2cf6,,,,,,,,,,,,,,1,,,,,,,,,,,,,,,,,,,,,,,,,,,,,,,,,,,,,,,,,,,,,,,,,,,,,,,,,43,canela,,,,,676.6311,678.3252,0,0,1.1349,,0,84,84,42,1,REAL,FAKE,,,,,,,,,,,,,,,,,
,,,,,,,,,66706bf3288568808d36ff2c,spanish,13 or older,"no, only English or Spanish",no,2025-08-12_15h25.12.117,empathy_intonation_perc,2024.2.4,Win32,20,66706bf3288568808d36ff2c,687ed1b7e638a4cbf2f02089,689b94db0b0e443391ea2cf6,,,,,,,,,,,,,,1,,,,,,,,,,,,,,,,,,,,,,,,,,,,,,,,,,,,,,,,,,,,,,,,,,,,,,,,,55,nevar,,,,,678.3271,680.9389,0,0,2.0649,,0,85,85,54,1,REAL,FAKE,,,,,,,,,,,,,,,,,
,,,,,,,,,66706bf3288568808d36ff2c,spanish,13 or older,"no, only English or Spanish",no,2025-08-12_15h25.12.117,empathy_intonation_perc,2024.2.4,Win32,20,66706bf3288568808d36ff2c,687ed1b7e638a4cbf2f02089,689b94db0b0e443391ea2cf6,,,,,,,,,,,,,,1,,,,,,,,,,,,,,,,,,,,,,,,,,,,,,,,,,,,,,,,,,,,,,,,,,,,,,,,,11,cenefa,,,,,680.9405,682.7273,0,0,1.2544,,0,86,86,10,1,REAL,FAKE,,,,,,,,,,,,,,,,,
,,,,,,,,,66706bf3288568808d36ff2c,spanish,13 or older,"no, only English or Spanish",no,2025-08-12_15h25.12.117,empathy_intonation_perc,2024.2.4,Win32,20,66706bf3288568808d36ff2c,687ed1b7e638a4cbf2f02089,689b94db0b0e443391ea2cf6,,,,,,,,,,,,,,1,,,,,,,,,,,,,,,,,,,,,,,,,,,,,,,,,,,,,,,,,,,,,,,,,,,,,,,,,69,engatusar,,,,,682.7285,684.3577,0,0,1.0711,,0,87,87,68,1,REAL,FAKE,,,,,,,,,,,,,,,,,
,,,,,,,,,66706bf3288568808d36ff2c,spanish,13 or older,"no, only English or Spanish",no,2025-08-12_15h25.12.117,empathy_intonation_perc,2024.2.4,Win32,20,66706bf3288568808d36ff2c,687ed1b7e638a4cbf2f02089,689b94db0b0e443391ea2cf6,,,,,,,,,,,,,,1,,,,,,,,,,,,,,,,,,,,,,,,,,,,,,,,,,,,,,,,,,,,,,,,,,,,,,,,,83,guante,,,,,684.3591,685.8616,0,0,0.9584,,0,88,88,82,1,REAL,FAKE,,,,,,,,,,,,,,,,,
,,,,,,,,,66706bf3288568808d36ff2c,spanish,13 or older,"no, only English or Spanish",no,2025-08-12_15h25.12.117,empathy_intonation_perc,2024.2.4,Win32,20,66706bf3288568808d36ff2c,687ed1b7e638a4cbf2f02089,689b94db0b0e443391ea2cf6,,,,,,,,,,,,,,1,,,,,,,,,,,,,,,,,,,,,,,,,,,,,,,,,,,,,,,,,,,,,,,,,,,,,,,,,37,granuja,,,,,685.8629,687.5503,1,1,1.1534,,0,89,89,36,1,REAL,FAKE,,,,,,,,,,,,,,,,,
,,,,,,,,,66706bf3288568808d36ff2c,spanish,13 or older,"no, only English or Spanish",no,2025-08-12_15h25.12.117,empathy_intonation_perc,2024.2.4,Win32,20,66706bf3288568808d36ff2c,687ed1b7e638a4cbf2f02089,689b94db0b0e443391ea2cf6,,,,,,,,,,,,,,1,,,,,,,,,,,,,,,,,,,,,,,,,,,,,,,,,,,,,,,,,,,,,,,,,,,,,,,,,64,orgulloso,,,,,687.5515,688.9373,0,0,0.8447,,0,90,90,63,1,REAL,FAKE,,,,,,,,,,,,,,,,,
,,,,,,,,,66706bf3288568808d36ff2c,spanish,13 or older,"no, only English or Spanish",no,2025-08-12_15h25.12.117,empathy_intonation_perc,2024.2.4,Win32,20,66706bf3288568808d36ff2c,687ed1b7e638a4cbf2f02089,689b94db0b0e443391ea2cf6,,,,,,,,,,,,,,0,,,,,,,,,,,,,,,,,,,,,,,,,,,,,,,,,,,,,,,,,,,,,,,,,,,,,,,,,47,cartinar,,,,,688.9392,690.606,0,1,1.0763,,0,91,91,46,1,REAL,FAKE,,,,,,,,,,,,,,,,,
,,,,,,,,,66706bf3288568808d36ff2c,spanish,13 or older,"no, only English or Spanish",no,2025-08-12_15h25.12.117,empathy_intonation_perc,2024.2.4,Win32,20,66706bf3288568808d36ff2c,687ed1b7e638a4cbf2f02089,689b94db0b0e443391ea2cf6,,,,,,,,,,,,,,,,,,,,,,,,,,,,,,,,,,,,,,,,,,,,,,,,,,,,,,,,,,,,,,,,,,,,,,,,,,,,,,,,,,,,,,,,,,690.6066,699.7098,,,,,,,,,,,,,,,
,,,,,,,,,66706bf3288568808d36ff2c,spanish,13 or older,"no, only English or Spanish",no,2025-08-12_15h25.12.117,empathy_intonation_perc,2024.2.4,Win32,20,66706bf3288568808d36ff2c,687ed1b7e638a4cbf2f02089,689b94db0b0e443391ea2cf6,,,,,,,,,,,,,1,,,,,,,,,,,,,,,,,,,,,,,,,,,,,,,,,,,,,,,,,,,,,,,,,,,,,,,,,,,,,,,,,,,,,,,,,,,,,,,699.7369,706.5108,slightly agree,0,0,0,0,1,I can easily tell if someone else wants to enter a conversation.,1,0,1,0,,
,,,,,,,,,66706bf3288568808d36ff2c,spanish,13 or older,"no, only English or Spanish",no,2025-08-12_15h25.12.117,empathy_intonation_perc,2024.2.4,Win32,20,66706bf3288568808d36ff2c,687ed1b7e638a4cbf2f02089,689b94db0b0e443391ea2cf6,,,,,,,,,,,,,2,,,,,,,,,,,,,,,,,,,,,,,,,,,,,,,,,,,,,,,,,,,,,,,,,,,,,,,,,,,,,,,,,,,,,,,,,,,,,,,706.5196,710.8839,strongly agree,0,1,1,1,1,I prefer animals to humans.,0,1,0,0,,
,,,,,,,,,66706bf3288568808d36ff2c,spanish,13 or older,"no, only English or Spanish",no,2025-08-12_15h25.12.117,empathy_intonation_perc,2024.2.4,Win32,20,66706bf3288568808d36ff2c,687ed1b7e638a4cbf2f02089,689b94db0b0e443391ea2cf6,,,,,,,,,,,,,3,,,,,,,,,,,,,,,,,,,,,,,,,,,,,,,,,,,,,,,,,,,,,,,,,,,,,,,,,,,,,,,,,,,,,,,,,,,,,,,710.8884,714.9775,slightly disagree,0,2,2,2,1,I try to keep up with the current trends and fashions.,0,1,0,0,,
,,,,,,,,,66706bf3288568808d36ff2c,spanish,13 or older,"no, only English or Spanish",no,2025-08-12_15h25.12.117,empathy_intonation_perc,2024.2.4,Win32,20,66706bf3288568808d36ff2c,687ed1b7e638a4cbf2f02089,689b94db0b0e443391ea2cf6,,,,,,,,,,,,,4,,,,,,,,,,,,,,,,,,,,,,,,,,,,,,,,,,,,,,,,,,,,,,,,,,,,,,,,,,,,,,,,,,,,,,,,,,,,,,,714.9822,722.6971,slightly agree,0,3,3,3,1,"I find it difficult to explain to others things that I understand easily,   when they don't understand it first time.",1,0,0,1,,
,,,,,,,,,66706bf3288568808d36ff2c,spanish,13 or older,"no, only English or Spanish",no,2025-08-12_15h25.12.117,empathy_intonation_perc,2024.2.4,Win32,20,66706bf3288568808d36ff2c,687ed1b7e638a4cbf2f02089,689b94db0b0e443391ea2cf6,,,,,,,,,,,,,5,,,,,,,,,,,,,,,,,,,,,,,,,,,,,,,,,,,,,,,,,,,,,,,,,,,,,,,,,,,,,,,,,,,,,,,,,,,,,,,722.699,725.3391,strongly agree,0,4,4,4,1,I dream most nights.,0,1,0,0,,
,,,,,,,,,66706bf3288568808d36ff2c,spanish,13 or older,"no, only English or Spanish",no,2025-08-12_15h25.12.117,empathy_intonation_perc,2024.2.4,Win32,20,66706bf3288568808d36ff2c,687ed1b7e638a4cbf2f02089,689b94db0b0e443391ea2cf6,,,,,,,,,,,,,6,,,,,,,,,,,,,,,,,,,,,,,,,,,,,,,,,,,,,,,,,,,,,,,,,,,,,,,,,,,,,,,,,,,,,,,,,,,,,,,725.3417,728.2557,strongly agree,0,5,5,5,1,I really enjoy caring for other people.,1,0,1,0,,
,,,,,,,,,66706bf3288568808d36ff2c,spanish,13 or older,"no, only English or Spanish",no,2025-08-12_15h25.12.117,empathy_intonation_perc,2024.2.4,Win32,20,66706bf3288568808d36ff2c,687ed1b7e638a4cbf2f02089,689b94db0b0e443391ea2cf6,,,,,,,,,,,,,7,,,,,,,,,,,,,,,,,,,,,,,,,,,,,,,,,,,,,,,,,,,,,,,,,,,,,,,,,,,,,,,,,,,,,,,,,,,,,,,728.2588,732.0226,strongly agree,0,6,6,6,1,I try to solve my own problems rather than discussing them with others.,0,1,0,0,,
,,,,,,,,,66706bf3288568808d36ff2c,spanish,13 or older,"no, only English or Spanish",no,2025-08-12_15h25.12.117,empathy_intonation_perc,2024.2.4,Win32,20,66706bf3288568808d36ff2c,687ed1b7e638a4cbf2f02089,689b94db0b0e443391ea2cf6,,,,,,,,,,,,,8,,,,,,,,,,,,,,,,,,,,,,,,,,,,,,,,,,,,,,,,,,,,,,,,,,,,,,,,,,,,,,,,,,,,,,,,,,,,,,,732.0251,734.5312,strongly agree,0,7,7,7,1,I find it hard to know what to do in a social situation.,1,0,0,1,,
,,,,,,,,,66706bf3288568808d36ff2c,spanish,13 or older,"no, only English or Spanish",no,2025-08-12_15h25.12.117,empathy_intonation_perc,2024.2.4,Win32,20,66706bf3288568808d36ff2c,687ed1b7e638a4cbf2f02089,689b94db0b0e443391ea2cf6,,,,,,,,,,,,,9,,,,,,,,,,,,,,,,,,,,,,,,,,,,,,,,,,,,,,,,,,,,,,,,,,,,,,,,,,,,,,,,,,,,,,,,,,,,,,,734.5337,741.9466,slightly disagree,0,8,8,8,1,I am at my best first thing in the morning.,0,1,0,0,,
,,,,,,,,,66706bf3288568808d36ff2c,spanish,13 or older,"no, only English or Spanish",no,2025-08-12_15h25.12.117,empathy_intonation_perc,2024.2.4,Win32,20,66706bf3288568808d36ff2c,687ed1b7e638a4cbf2f02089,689b94db0b0e443391ea2cf6,,,,,,,,,,,,,10,,,,,,,,,,,,,,,,,,,,,,,,,,,,,,,,,,,,,,,,,,,,,,,,,,,,,,,,,,,,,,,,,,,,,,,,,,,,,,,741.9522,751.2172,strongly disagree,0,9,9,9,1,People often tell me that I went too far in driving my point home in a discussion.,1,0,0,1,,
,,,,,,,,,66706bf3288568808d36ff2c,spanish,13 or older,"no, only English or Spanish",no,2025-08-12_15h25.12.117,empathy_intonation_perc,2024.2.4,Win32,20,66706bf3288568808d36ff2c,687ed1b7e638a4cbf2f02089,689b94db0b0e443391ea2cf6,,,,,,,,,,,,,11,,,,,,,,,,,,,,,,,,,,,,,,,,,,,,,,,,,,,,,,,,,,,,,,,,,,,,,,,,,,,,,,,,,,,,,,,,,,,,,751.2196,757.1522,strongly disagree,0,10,10,10,1,It doesn't bother me too much if I am late meeting a friend.,1,0,0,1,,
,,,,,,,,,66706bf3288568808d36ff2c,spanish,13 or older,"no, only English or Spanish",no,2025-08-12_15h25.12.117,empathy_intonation_perc,2024.2.4,Win32,20,66706bf3288568808d36ff2c,687ed1b7e638a4cbf2f02089,689b94db0b0e443391ea2cf6,,,,,,,,,,,,,12,,,,,,,,,,,,,,,,,,,,,,,,,,,,,,,,,,,,,,,,,,,,,,,,,,,,,,,,,,,,,,,,,,,,,,,,,,,,,,,757.1553,761.9953,slightly disagree,0,11,11,11,1,"Friendships and relationships are just too difficult, so I tend not to 
  bother with them.",1,0,0,1,,
,,,,,,,,,66706bf3288568808d36ff2c,spanish,13 or older,"no, only English or Spanish",no,2025-08-12_15h25.12.117,empathy_intonation_perc,2024.2.4,Win32,20,66706bf3288568808d36ff2c,687ed1b7e638a4cbf2f02089,689b94db0b0e443391ea2cf6,,,,,,,,,,,,,13,,,,,,,,,,,,,,,,,,,,,,,,,,,,,,,,,,,,,,,,,,,,,,,,,,,,,,,,,,,,,,,,,,,,,,,,,,,,,,,762.001,766.109,slightly disagree,0,12,12,12,1,"I would never break a law, no matter how minor.",0,1,0,0,,
,,,,,,,,,66706bf3288568808d36ff2c,spanish,13 or older,"no, only English or Spanish",no,2025-08-12_15h25.12.117,empathy_intonation_perc,2024.2.4,Win32,20,66706bf3288568808d36ff2c,687ed1b7e638a4cbf2f02089,689b94db0b0e443391ea2cf6,,,,,,,,,,,,,14,,,,,,,,,,,,,,,,,,,,,,,,,,,,,,,,,,,,,,,,,,,,,,,,,,,,,,,,,,,,,,,,,,,,,,,,,,,,,,,766.1118,772.8931,slightly disagree,0,13,13,13,1,I often find it difficult to judge if something is rude or polite.,1,0,0,1,,
