instructions_exposure.started,instructions_exposure.stopped,instructions_exposure_loop.thisRepN,instructions_exposure_loop.thisTrialN,instructions_exposure_loop.thisN,instructions_exposure_loop.thisIndex,instructions_exposure_loop.ran,instructions_text,continue_text,participant_id,"What variety of Spanish are you most familiar with? (e.g., Peruvian, Spanish, Mexican)",At what age did you begin learning Spanish?,Are you proficient in any languages other than English/Spanish?,"Are you familiar with Caribbean (e.g., Caribbean, Puerto Rican) or Galician Spanish?",date,expName,psychopyVersion,OS,frameRate,id,study_id,session,trial_exposure.started,trial_exposure.stopped,key_resp_exposure.keys,key_resp_exposure.corr,key_resp_exposure.rt,key_resp_exposure.duration,key_resp.keys,exposure_loop.thisRepN,exposure_loop.thisTrialN,exposure_loop.thisN,exposure_loop.thisIndex,exposure_loop.ran,item_num,correct_response,question,path,duration,instructions_2afc.started,instructions_2afc.stopped,instructions_2afc_loop.thisRepN,instructions_2afc_loop.thisTrialN,instructions_2afc_loop.thisN,instructions_2afc_loop.thisIndex,instructions_2afc_loop.ran,practice_2afc.started,practice_2afc.stopped,key_resp_2afc_practice.keys,key_resp_2afc_practice.corr,key_resp_2afc_practice.rt,key_resp_2afc_practice.duration,trials_2afc_practice_loop.thisRepN,trials_2afc_practice_loop.thisTrialN,trials_2afc_practice_loop.thisN,trials_2afc_practice_loop.thisIndex,trials_2afc_practice_loop.ran,check_2afc.started,check_2afc.stopped,trial_2afc.started,trial_2afc.stopped,key_resp_2afc_trial.keys,key_resp_2afc_trial.corr,key_resp_2afc_trial.rt,key_resp_2afc_trial.duration,trials_2afc_loop.thisRepN,trials_2afc_loop.thisTrialN,trials_2afc_loop.thisN,trials_2afc_loop.thisIndex,trials_2afc_loop.ran,target,variety,instructions_lextale.started,instructions_lextale.stopped,instructions_lextale_loop.thisRepN,instructions_lextale_loop.thisTrialN,instructions_lextale_loop.thisN,instructions_lextale_loop.thisIndex,instructions_lextale_loop.ran,practice_lextale.started,practice_lextale.stopped,key_resp_lextale_practice.keys,key_resp_lextale_practice.corr,key_resp_lextale_practice.rt,key_resp_lextale_practice.duration,practice_feedback_lextale.started,practice_feedback_lextale.stopped,trials_lextale_practice_loop.thisRepN,trials_lextale_practice_loop.thisTrialN,trials_lextale_practice_loop.thisN,trials_lextale_practice_loop.thisIndex,trials_lextale_practice_loop.ran,stim,word,prac_button_real,prac_button_false,check_lextale.started,check_lextale.stopped,trial_lextale.started,trial_lextale.stopped,key_resp_lextale_trial.keys,key_resp_lextale_trial.corr,key_resp_lextale_trial.rt,key_resp_lextale_trial.duration,trials_lextale_loop.thisRepN,trials_lextale_loop.thisTrialN,trials_lextale_loop.thisN,trials_lextale_loop.thisIndex,trials_lextale_loop.ran,button_real,button_false,instructions_eq.started,instructions_eq.stopped,trial_eq.started,trial_eq.stopped,slider_eq_trial.response,trials_eq_loop.thisRepN,trials_eq_loop.thisTrialN,trials_eq_loop.thisN,trials_eq_loop.thisIndex,trials_eq_loop.ran,item,is_test_item,is_distractor,is_agree_score,is_disagree_score,end_exp.started,end_exp.stopped
0.0173,2.4006,0,0,0,0,1,"In the following task, you are going to hear a series of conversations.", (press the space bar to continue),6672f795fac6ecd66d7b987f,6672f795fac6ecd66d7b987f,13 or older,"no, only English or Spanish",no,2025-08-12_14h57.19.123,empathy_intonation_perc,2024.2.4,Win32,59.52380952,6672f795fac6ecd66d7b987f,687ed1b7e638a4cbf2f02089,689b8d97ea8cb724c287d16c,,,,,,,,,,,,,,,,,,,,,,,,,,,,,,,,,,,,,,,,,,,,,,,,,,,,,,,,,,,,,,,,,,,,,,,,,,,,,,,,,,,,,,,,,,,,,,,,,,,,,,,,,,
2.4011,3.7184,0,1,1,1,1,It is okay if you don't not 100% understand them!, (press the space bar to continue),6672f795fac6ecd66d7b987f,6672f795fac6ecd66d7b987f,13 or older,"no, only English or Spanish",no,2025-08-12_14h57.19.123,empathy_intonation_perc,2024.2.4,Win32,59.52380952,6672f795fac6ecd66d7b987f,687ed1b7e638a4cbf2f02089,689b8d97ea8cb724c287d16c,,,,,,,,,,,,,,,,,,,,,,,,,,,,,,,,,,,,,,,,,,,,,,,,,,,,,,,,,,,,,,,,,,,,,,,,,,,,,,,,,,,,,,,,,,,,,,,,,,,,,,,,,,
3.7196,5.4535,0,2,2,2,1,"After, you will read a sentence about the conversation and decide if it's true or false.", (press the space bar to continue),6672f795fac6ecd66d7b987f,6672f795fac6ecd66d7b987f,13 or older,"no, only English or Spanish",no,2025-08-12_14h57.19.123,empathy_intonation_perc,2024.2.4,Win32,59.52380952,6672f795fac6ecd66d7b987f,687ed1b7e638a4cbf2f02089,689b8d97ea8cb724c287d16c,,,,,,,,,,,,,,,,,,,,,,,,,,,,,,,,,,,,,,,,,,,,,,,,,,,,,,,,,,,,,,,,,,,,,,,,,,,,,,,,,,,,,,,,,,,,,,,,,,,,,,,,,,
5.4549,8.8069,0,3,3,3,1,"If it's true, press '1' (True) and if it's false press '0' (False).", (press the space bar to continue),6672f795fac6ecd66d7b987f,6672f795fac6ecd66d7b987f,13 or older,"no, only English or Spanish",no,2025-08-12_14h57.19.123,empathy_intonation_perc,2024.2.4,Win32,59.52380952,6672f795fac6ecd66d7b987f,687ed1b7e638a4cbf2f02089,689b8d97ea8cb724c287d16c,,,,,,,,,,,,,,,,,,,,,,,,,,,,,,,,,,,,,,,,,,,,,,,,,,,,,,,,,,,,,,,,,,,,,,,,,,,,,,,,,,,,,,,,,,,,,,,,,,,,,,,,,,
,,,,,,,,,6672f795fac6ecd66d7b987f,6672f795fac6ecd66d7b987f,13 or older,"no, only English or Spanish",no,2025-08-12_14h57.19.123,empathy_intonation_perc,2024.2.4,Win32,59.52380952,6672f795fac6ecd66d7b987f,687ed1b7e638a4cbf2f02089,689b8d97ea8cb724c287d16c,8.8139,72.12,1,1,3.276,,,0,0,0,1,1,2,1,The mom asked the daughter if she already went to the supermarket.,./stim/exposure_wavs/dr_stimuli_convo.wav,60,,,,,,,,,,,,,,,,,,,,,,,,,,,,,,,,,,,,,,,,,,,,,,,,,,,,,,,,,,,,,,,,,,,,,,,,,,,,,,,,,,,,,,,,,
,,,,,,,,,6672f795fac6ecd66d7b987f,6672f795fac6ecd66d7b987f,13 or older,"no, only English or Spanish",no,2025-08-12_14h57.19.123,empathy_intonation_perc,2024.2.4,Win32,59.52380952,6672f795fac6ecd66d7b987f,687ed1b7e638a4cbf2f02089,689b8d97ea8cb724c287d16c,72.1211,122.103,0,0,2.9526,,,0,1,1,0,1,1,1,The son asked the mom if Aunt Marina is okay.,./stim/exposure_wavs/ga_stimuli_convo.wav,47,,,,,,,,,,,,,,,,,,,,,,,,,,,,,,,,,,,,,,,,,,,,,,,,,,,,,,,,,,,,,,,,,,,,,,,,,,,,,,,,,,,,,,,,,
,,,,,,,,,6672f795fac6ecd66d7b987f,6672f795fac6ecd66d7b987f,13 or older,"no, only English or Spanish",no,2025-08-12_14h57.19.123,empathy_intonation_perc,2024.2.4,Win32,59.52380952,6672f795fac6ecd66d7b987f,687ed1b7e638a4cbf2f02089,689b8d97ea8cb724c287d16c,122.1044,164.5787,0,1,6.4631,,,0,2,2,2,1,3,0,The mom already has rice.,./stim/exposure_wavs/pr_stimuli_convo.wav,36,,,,,,,,,,,,,,,,,,,,,,,,,,,,,,,,,,,,,,,,,,,,,,,,,,,,,,,,,,,,,,,,,,,,,,,,,,,,,,,,,,,,,,,,,
,,,,,,,"In the following task you are going to hear a series of utterances. 

  You will decide if the utterances sound like questions or not using your keyboard.", (press the spacebar to continue),6672f795fac6ecd66d7b987f,6672f795fac6ecd66d7b987f,13 or older,"no, only English or Spanish",no,2025-08-12_14h57.19.123,empathy_intonation_perc,2024.2.4,Win32,59.52380952,6672f795fac6ecd66d7b987f,687ed1b7e638a4cbf2f02089,689b8d97ea8cb724c287d16c,,,,,,,,,,,,,,,,,,164.5822,170.0342,0,0,0,0,1,,,,,,,,,,,,,,,,,,,,,,,,,,,,,,,,,,,,,,,,,,,,,,,,,,,,,,,,,,,,,,,,,,,,,,,,,,,,,,,,,,
,,,,,,,"If you believe the utterance is a question, type '1' (for 'yes') and if you do not 
  believe it is a question type '0' (for 'no').

  Let's practice a bit...", (press the spacebar to continue),6672f795fac6ecd66d7b987f,6672f795fac6ecd66d7b987f,13 or older,"no, only English or Spanish",no,2025-08-12_14h57.19.123,empathy_intonation_perc,2024.2.4,Win32,59.52380952,6672f795fac6ecd66d7b987f,687ed1b7e638a4cbf2f02089,689b8d97ea8cb724c287d16c,,,,,,,,,,,,,,,,,,170.0353,173.1704,0,1,1,1,1,,,,,,,,,,,,,,,,,,,,,,,,,,,,,,,,,,,,,,,,,,,,,,,,,,,,,,,,,,,,,,,,,,,,,,,,,,,,,,,,,,
,,,,,,,,,6672f795fac6ecd66d7b987f,6672f795fac6ecd66d7b987f,13 or older,"no, only English or Spanish",no,2025-08-12_14h57.19.123,empathy_intonation_perc,2024.2.4,Win32,59.52380952,6672f795fac6ecd66d7b987f,687ed1b7e638a4cbf2f02089,689b8d97ea8cb724c287d16c,,,,,,,,,,,,,,0,,./stim/wavs/puertorican_statement_filler_La-nina-pinta-con-su-amiga.wav,,,,,,,,,173.1751,176.2905,0,1,2.5957,,0,0,0,7,1,,,,,,,,,,,,,,,,,,,,,,,,,,,,,,,,,,,,,,,,,,,,,,,,,,,,,,,,,,,,,,,,,,,,,,,
,,,,,,,,,6672f795fac6ecd66d7b987f,6672f795fac6ecd66d7b987f,13 or older,"no, only English or Spanish",no,2025-08-12_14h57.19.123,empathy_intonation_perc,2024.2.4,Win32,59.52380952,6672f795fac6ecd66d7b987f,687ed1b7e638a4cbf2f02089,689b8d97ea8cb724c287d16c,,,,,,,,,,,,,,0,,./stim/wavs/cuban_statement_filler_Cocinabas-por-la-noche.wav,,,,,,,,,176.2908,179.3433,0,1,2.5424,,0,1,1,4,1,,,,,,,,,,,,,,,,,,,,,,,,,,,,,,,,,,,,,,,,,,,,,,,,,,,,,,,,,,,,,,,,,,,,,,,
,,,,,,,,,6672f795fac6ecd66d7b987f,6672f795fac6ecd66d7b987f,13 or older,"no, only English or Spanish",no,2025-08-12_14h57.19.123,empathy_intonation_perc,2024.2.4,Win32,59.52380952,6672f795fac6ecd66d7b987f,687ed1b7e638a4cbf2f02089,689b8d97ea8cb724c287d16c,,,,,,,,,,,,,,1,,./stim/wavs/chilean_question_filler_Mi-padre-cantaba-bien.wav,,,,,,,,,179.3436,181.8623,1,1,2.0065,,0,2,2,2,1,,,,,,,,,,,,,,,,,,,,,,,,,,,,,,,,,,,,,,,,,,,,,,,,,,,,,,,,,,,,,,,,,,,,,,,
,,,,,,,,,6672f795fac6ecd66d7b987f,6672f795fac6ecd66d7b987f,13 or older,"no, only English or Spanish",no,2025-08-12_14h57.19.123,empathy_intonation_perc,2024.2.4,Win32,59.52380952,6672f795fac6ecd66d7b987f,687ed1b7e638a4cbf2f02089,689b8d97ea8cb724c287d16c,,,,,,,,,,,,,,1,,./stim/wavs/argentine_question_filler_Mi-vecino-habla-mucho.wav,,,,,,,,,181.8626,184.1647,1,1,1.7953,,0,3,3,1,1,,,,,,,,,,,,,,,,,,,,,,,,,,,,,,,,,,,,,,,,,,,,,,,,,,,,,,,,,,,,,,,,,,,,,,,
,,,,,,,,,6672f795fac6ecd66d7b987f,6672f795fac6ecd66d7b987f,13 or older,"no, only English or Spanish",no,2025-08-12_14h57.19.123,empathy_intonation_perc,2024.2.4,Win32,59.52380952,6672f795fac6ecd66d7b987f,687ed1b7e638a4cbf2f02089,689b8d97ea8cb724c287d16c,,,,,,,,,,,,,,0,,./stim/wavs/andalusian_statement_filler_Alberto-nunca-se-afeita.wav,,,,,,,,,184.165,187.1345,1,0,2.4543,,0,4,4,5,1,,,,,,,,,,,,,,,,,,,,,,,,,,,,,,,,,,,,,,,,,,,,,,,,,,,,,,,,,,,,,,,,,,,,,,,
,,,,,,,,,6672f795fac6ecd66d7b987f,6672f795fac6ecd66d7b987f,13 or older,"no, only English or Spanish",no,2025-08-12_14h57.19.123,empathy_intonation_perc,2024.2.4,Win32,59.52380952,6672f795fac6ecd66d7b987f,687ed1b7e638a4cbf2f02089,689b8d97ea8cb724c287d16c,,,,,,,,,,,,,,0,,./stim/wavs/peruvian_statement_filler_El-nino-habla-con-su-madre.wav,,,,,,,,,187.1348,190.2373,0,1,2.5897,,0,5,5,6,1,,,,,,,,,,,,,,,,,,,,,,,,,,,,,,,,,,,,,,,,,,,,,,,,,,,,,,,,,,,,,,,,,,,,,,,
,,,,,,,,,6672f795fac6ecd66d7b987f,6672f795fac6ecd66d7b987f,13 or older,"no, only English or Spanish",no,2025-08-12_14h57.19.123,empathy_intonation_perc,2024.2.4,Win32,59.52380952,6672f795fac6ecd66d7b987f,687ed1b7e638a4cbf2f02089,689b8d97ea8cb724c287d16c,,,,,,,,,,,,,,1,,./stim/wavs/castilian_question_filler_Mi-esposo-conoce-al-chico.wav,,,,,,,,,190.2376,192.8901,0,0,2.1379,,0,6,6,0,1,,,,,,,,,,,,,,,,,,,,,,,,,,,,,,,,,,,,,,,,,,,,,,,,,,,,,,,,,,,,,,,,,,,,,,,
,,,,,,,,,6672f795fac6ecd66d7b987f,6672f795fac6ecd66d7b987f,13 or older,"no, only English or Spanish",no,2025-08-12_14h57.19.123,empathy_intonation_perc,2024.2.4,Win32,59.52380952,6672f795fac6ecd66d7b987f,687ed1b7e638a4cbf2f02089,689b8d97ea8cb724c287d16c,,,,,,,,,,,,,,1,,./stim/wavs/mexican_question_filler_Felipe-no-tiene-contrasena.wav,,,,,,,,,192.8905,195.2257,1,1,1.8207,,0,7,7,3,1,,,,,,,,,,,,,,,,,,,,,,,,,,,,,,,,,,,,,,,,,,,,,,,,,,,,,,,,,,,,,,,,,,,,,,,
,,,,,,,,,6672f795fac6ecd66d7b987f,6672f795fac6ecd66d7b987f,13 or older,"no, only English or Spanish",no,2025-08-12_14h57.19.123,empathy_intonation_perc,2024.2.4,Win32,59.52380952,6672f795fac6ecd66d7b987f,687ed1b7e638a4cbf2f02089,689b8d97ea8cb724c287d16c,,,,,,,,,,,,,,,,,,,,,,,,,,,,,,,,,,,,195.2259,204.5853,,,,,,,,,,,,,,,,,,,,,,,,,,,,,,,,,,,,,,,,,,,,,,,,,,,,,,,,,,,,,,,,,,,,,
,,,,,,,,,6672f795fac6ecd66d7b987f,6672f795fac6ecd66d7b987f,13 or older,"no, only English or Spanish",no,2025-08-12_14h57.19.123,empathy_intonation_perc,2024.2.4,Win32,59.52380952,6672f795fac6ecd66d7b987f,687ed1b7e638a4cbf2f02089,689b8d97ea8cb724c287d16c,,,,,,,,,,,,,22,1,,./stim/wavs/puertorican_match_interrogative-total-yn_Emilio-ama-la-marcha.wav,,,,,,,,,,,,,,,,,,,,,,204.5962,210.9581,0,0,5.8439,,0,0,0,21,1,1,puertorican,,,,,,,,,,,,,,,,,,,,,,,,,,,,,,,,,,,,,,,,,,,,,,,,,,,,,,,,
,,,,,,,,,6672f795fac6ecd66d7b987f,6672f795fac6ecd66d7b987f,13 or older,"no, only English or Spanish",no,2025-08-12_14h57.19.123,empathy_intonation_perc,2024.2.4,Win32,59.52380952,6672f795fac6ecd66d7b987f,687ed1b7e638a4cbf2f02089,689b8d97ea8cb724c287d16c,,,,,,,,,,,,,46,0,,./stim/wavs/castilian_match_declarative-broad-focus_Emilio-ama-la-marcha.wav,,,,,,,,,,,,,,,,,,,,,,210.9584,215.8131,1,0,4.3376,,0,1,1,45,1,0,castilian,,,,,,,,,,,,,,,,,,,,,,,,,,,,,,,,,,,,,,,,,,,,,,,,,,,,,,,,
,,,,,,,,,6672f795fac6ecd66d7b987f,6672f795fac6ecd66d7b987f,13 or older,"no, only English or Spanish",no,2025-08-12_14h57.19.123,empathy_intonation_perc,2024.2.4,Win32,59.52380952,6672f795fac6ecd66d7b987f,687ed1b7e638a4cbf2f02089,689b8d97ea8cb724c287d16c,,,,,,,,,,,,,85,0,,./stim/wavs/puertorican_mismatch_declarative-broad-focus_El-hombre-mira-la-luna.wav,,,,,,,,,,,,,,,,,,,,,,215.8133,221.4185,1,0,5.0885,,0,2,2,84,1,0,puertorican,,,,,,,,,,,,,,,,,,,,,,,,,,,,,,,,,,,,,,,,,,,,,,,,,,,,,,,,
,,,,,,,,,6672f795fac6ecd66d7b987f,6672f795fac6ecd66d7b987f,13 or older,"no, only English or Spanish",no,2025-08-12_14h57.19.123,empathy_intonation_perc,2024.2.4,Win32,59.52380952,6672f795fac6ecd66d7b987f,687ed1b7e638a4cbf2f02089,689b8d97ea8cb724c287d16c,,,,,,,,,,,,,62,0,,./stim/wavs/mexican_match_declarative-broad-focus_Marta-abre-el-regalo.wav,,,,,,,,,,,,,,,,,,,,,,221.4188,227.3077,1,0,5.3764,,0,3,3,61,1,0,mexican,,,,,,,,,,,,,,,,,,,,,,,,,,,,,,,,,,,,,,,,,,,,,,,,,,,,,,,,
,,,,,,,,,6672f795fac6ecd66d7b987f,6672f795fac6ecd66d7b987f,13 or older,"no, only English or Spanish",no,2025-08-12_14h57.19.123,empathy_intonation_perc,2024.2.4,Win32,59.52380952,6672f795fac6ecd66d7b987f,687ed1b7e638a4cbf2f02089,689b8d97ea8cb724c287d16c,,,,,,,,,,,,,18,1,,./stim/wavs/mexican_match_interrogative-total-yn_Marta-abre-el-regalo.wav,,,,,,,,,,,,,,,,,,,,,,227.3079,232.0459,0,0,4.2288,,0,4,4,17,1,0,mexican,,,,,,,,,,,,,,,,,,,,,,,,,,,,,,,,,,,,,,,,,,,,,,,,,,,,,,,,
,,,,,,,,,6672f795fac6ecd66d7b987f,6672f795fac6ecd66d7b987f,13 or older,"no, only English or Spanish",no,2025-08-12_14h57.19.123,empathy_intonation_perc,2024.2.4,Win32,59.52380952,6672f795fac6ecd66d7b987f,687ed1b7e638a4cbf2f02089,689b8d97ea8cb724c287d16c,,,,,,,,,,,,,69,0,,./stim/wavs/castilian_mismatch_declarative-broad-focus_El-nino-oye-el-rio.wav,,,,,,,,,,,,,,,,,,,,,,232.0463,240.5709,0,1,8.0065,,0,5,5,68,1,0,castilian,,,,,,,,,,,,,,,,,,,,,,,,,,,,,,,,,,,,,,,,,,,,,,,,,,,,,,,,
,,,,,,,,,6672f795fac6ecd66d7b987f,6672f795fac6ecd66d7b987f,13 or older,"no, only English or Spanish",no,2025-08-12_14h57.19.123,empathy_intonation_perc,2024.2.4,Win32,59.52380952,6672f795fac6ecd66d7b987f,687ed1b7e638a4cbf2f02089,689b8d97ea8cb724c287d16c,,,,,,,,,,,,,77,0,,./stim/wavs/cuban_mismatch_declarative-broad-focus_Mi-novio-viene-del-lago.wav,,,,,,,,,,,,,,,,,,,,,,240.5712,245.5424,0,1,4.4562,,0,6,6,76,1,0,cuban,,,,,,,,,,,,,,,,,,,,,,,,,,,,,,,,,,,,,,,,,,,,,,,,,,,,,,,,
,,,,,,,,,6672f795fac6ecd66d7b987f,6672f795fac6ecd66d7b987f,13 or older,"no, only English or Spanish",no,2025-08-12_14h57.19.123,empathy_intonation_perc,2024.2.4,Win32,59.52380952,6672f795fac6ecd66d7b987f,687ed1b7e638a4cbf2f02089,689b8d97ea8cb724c287d16c,,,,,,,,,,,,,57,0,,./stim/wavs/mexican_match_declarative-broad-focus_Ana-lleva-el-abrigo.wav,,,,,,,,,,,,,,,,,,,,,,245.5427,251.415,0,1,5.3554,,0,7,7,56,1,0,mexican,,,,,,,,,,,,,,,,,,,,,,,,,,,,,,,,,,,,,,,,,,,,,,,,,,,,,,,,
,,,,,,,,,6672f795fac6ecd66d7b987f,6672f795fac6ecd66d7b987f,13 or older,"no, only English or Spanish",no,2025-08-12_14h57.19.123,empathy_intonation_perc,2024.2.4,Win32,59.52380952,6672f795fac6ecd66d7b987f,687ed1b7e638a4cbf2f02089,689b8d97ea8cb724c287d16c,,,,,,,,,,,,,84,0,,./stim/wavs/puertorican_mismatch_declarative-broad-focus_El-bebe-comia-muy-bien.wav,,,,,,,,,,,,,,,,,,,,,,251.4152,256.6204,0,1,4.6881,,0,8,8,83,1,0,puertorican,,,,,,,,,,,,,,,,,,,,,,,,,,,,,,,,,,,,,,,,,,,,,,,,,,,,,,,,
,,,,,,,,,6672f795fac6ecd66d7b987f,6672f795fac6ecd66d7b987f,13 or older,"no, only English or Spanish",no,2025-08-12_14h57.19.123,empathy_intonation_perc,2024.2.4,Win32,59.52380952,6672f795fac6ecd66d7b987f,687ed1b7e638a4cbf2f02089,689b8d97ea8cb724c287d16c,,,,,,,,,,,,,78,0,,./stim/wavs/cuban_mismatch_declarative-broad-focus_Mi-tia-odia-la-lluvia.wav,,,,,,,,,,,,,,,,,,,,,,256.6207,261.7755,0,1,4.6373,,0,9,9,77,1,0,cuban,,,,,,,,,,,,,,,,,,,,,,,,,,,,,,,,,,,,,,,,,,,,,,,,,,,,,,,,
,,,,,,,,,6672f795fac6ecd66d7b987f,6672f795fac6ecd66d7b987f,13 or older,"no, only English or Spanish",no,2025-08-12_14h57.19.123,empathy_intonation_perc,2024.2.4,Win32,59.52380952,6672f795fac6ecd66d7b987f,687ed1b7e638a4cbf2f02089,689b8d97ea8cb724c287d16c,,,,,,,,,,,,,54,0,,./stim/wavs/cuban_match_declarative-broad-focus_Maria-bebe-el-vino.wav,,,,,,,,,,,,,,,,,,,,,,261.776,266.5468,0,1,4.2546,,0,10,10,53,1,0,cuban,,,,,,,,,,,,,,,,,,,,,,,,,,,,,,,,,,,,,,,,,,,,,,,,,,,,,,,,
,,,,,,,,,6672f795fac6ecd66d7b987f,6672f795fac6ecd66d7b987f,13 or older,"no, only English or Spanish",no,2025-08-12_14h57.19.123,empathy_intonation_perc,2024.2.4,Win32,59.52380952,6672f795fac6ecd66d7b987f,687ed1b7e638a4cbf2f02089,689b8d97ea8cb724c287d16c,,,,,,,,,,,,,26,1,,./stim/wavs/castilian_mismatch_interrogative-total-yn_La-nina-lava-el-plato.wav,,,,,,,,,,,,,,,,,,,,,,266.547,271.3516,0,0,4.2876,,0,11,11,25,1,0,castilian,,,,,,,,,,,,,,,,,,,,,,,,,,,,,,,,,,,,,,,,,,,,,,,,,,,,,,,,
,,,,,,,,,6672f795fac6ecd66d7b987f,6672f795fac6ecd66d7b987f,13 or older,"no, only English or Spanish",no,2025-08-12_14h57.19.123,empathy_intonation_perc,2024.2.4,Win32,59.52380952,6672f795fac6ecd66d7b987f,687ed1b7e638a4cbf2f02089,689b8d97ea8cb724c287d16c,,,,,,,,,,,,,7,1,,./stim/wavs/cuban_match_interrogative-total-yn_Ana-lleva-el-abrigo.wav,,,,,,,,,,,,,,,,,,,,,,271.3519,276.1565,1,1,4.2936,,0,12,12,6,1,1,cuban,,,,,,,,,,,,,,,,,,,,,,,,,,,,,,,,,,,,,,,,,,,,,,,,,,,,,,,,
,,,,,,,,,6672f795fac6ecd66d7b987f,6672f795fac6ecd66d7b987f,13 or older,"no, only English or Spanish",no,2025-08-12_14h57.19.123,empathy_intonation_perc,2024.2.4,Win32,59.52380952,6672f795fac6ecd66d7b987f,687ed1b7e638a4cbf2f02089,689b8d97ea8cb724c287d16c,,,,,,,,,,,,,63,0,,./stim/wavs/puertorican_match_declarative-broad-focus_Ana-lleva-el-abrigo.wav,,,,,,,,,,,,,,,,,,,,,,276.1568,280.5106,0,1,3.8245,,0,13,13,62,1,0,puertorican,,,,,,,,,,,,,,,,,,,,,,,,,,,,,,,,,,,,,,,,,,,,,,,,,,,,,,,,
,,,,,,,,,6672f795fac6ecd66d7b987f,6672f795fac6ecd66d7b987f,13 or older,"no, only English or Spanish",no,2025-08-12_14h57.19.123,empathy_intonation_perc,2024.2.4,Win32,59.52380952,6672f795fac6ecd66d7b987f,687ed1b7e638a4cbf2f02089,689b8d97ea8cb724c287d16c,,,,,,,,,,,,,53,0,,./stim/wavs/cuban_match_declarative-broad-focus_Manuela-vende-el-carro.wav,,,,,,,,,,,,,,,,,,,,,,280.5109,285.1321,0,1,4.1041,,0,14,14,52,1,0,cuban,,,,,,,,,,,,,,,,,,,,,,,,,,,,,,,,,,,,,,,,,,,,,,,,,,,,,,,,
,,,,,,,,,6672f795fac6ecd66d7b987f,6672f795fac6ecd66d7b987f,13 or older,"no, only English or Spanish",no,2025-08-12_14h57.19.123,empathy_intonation_perc,2024.2.4,Win32,59.52380952,6672f795fac6ecd66d7b987f,687ed1b7e638a4cbf2f02089,689b8d97ea8cb724c287d16c,,,,,,,,,,,,,3,1,,./stim/wavs/castilian_match_interrogative-total-yn_Manuela-vende-el-carro.wav,,,,,,,,,,,,,,,,,,,,,,285.1326,290.6375,1,1,4.9711,,0,15,15,2,1,0,castilian,,,,,,,,,,,,,,,,,,,,,,,,,,,,,,,,,,,,,,,,,,,,,,,,,,,,,,,,
,,,,,,,,,6672f795fac6ecd66d7b987f,6672f795fac6ecd66d7b987f,13 or older,"no, only English or Spanish",no,2025-08-12_14h57.19.123,empathy_intonation_perc,2024.2.4,Win32,59.52380952,6672f795fac6ecd66d7b987f,687ed1b7e638a4cbf2f02089,689b8d97ea8cb724c287d16c,,,,,,,,,,,,,38,1,,./stim/wavs/mexican_mismatch_interrogative-total-yn_Mi-novio-viene-del-lago.wav,,,,,,,,,,,,,,,,,,,,,,290.6378,296.0428,0,0,4.8963,,0,16,16,37,1,0,mexican,,,,,,,,,,,,,,,,,,,,,,,,,,,,,,,,,,,,,,,,,,,,,,,,,,,,,,,,
,,,,,,,,,6672f795fac6ecd66d7b987f,6672f795fac6ecd66d7b987f,13 or older,"no, only English or Spanish",no,2025-08-12_14h57.19.123,empathy_intonation_perc,2024.2.4,Win32,59.52380952,6672f795fac6ecd66d7b987f,687ed1b7e638a4cbf2f02089,689b8d97ea8cb724c287d16c,,,,,,,,,,,,,66,0,,./stim/wavs/puertorican_match_declarative-broad-focus_Emilio-ama-la-marcha.wav,,,,,,,,,,,,,,,,,,,,,,296.0431,300.5807,0,1,4.0206,,0,17,17,65,1,0,puertorican,,,,,,,,,,,,,,,,,,,,,,,,,,,,,,,,,,,,,,,,,,,,,,,,,,,,,,,,
,,,,,,,,,6672f795fac6ecd66d7b987f,6672f795fac6ecd66d7b987f,13 or older,"no, only English or Spanish",no,2025-08-12_14h57.19.123,empathy_intonation_perc,2024.2.4,Win32,59.52380952,6672f795fac6ecd66d7b987f,687ed1b7e638a4cbf2f02089,689b8d97ea8cb724c287d16c,,,,,,,,,,,,,41,1,,./stim/wavs/puertorican_mismatch_interrogative-total-yn_El-nino-oye-el-rio.wav,,,,,,,,,,,,,,,,,,,,,,300.5811,305.1853,0,0,4.0905,,0,18,18,40,1,1,puertorican,,,,,,,,,,,,,,,,,,,,,,,,,,,,,,,,,,,,,,,,,,,,,,,,,,,,,,,,
,,,,,,,,,6672f795fac6ecd66d7b987f,6672f795fac6ecd66d7b987f,13 or older,"no, only English or Spanish",no,2025-08-12_14h57.19.123,empathy_intonation_perc,2024.2.4,Win32,59.52380952,6672f795fac6ecd66d7b987f,687ed1b7e638a4cbf2f02089,689b8d97ea8cb724c287d16c,,,,,,,,,,,,,61,0,,./stim/wavs/mexican_match_declarative-broad-focus_Mariano-habla-del-tiempo.wav,,,,,,,,,,,,,,,,,,,,,,305.1857,309.7232,1,0,4.0275,,0,19,19,60,1,0,mexican,,,,,,,,,,,,,,,,,,,,,,,,,,,,,,,,,,,,,,,,,,,,,,,,,,,,,,,,
,,,,,,,,,6672f795fac6ecd66d7b987f,6672f795fac6ecd66d7b987f,13 or older,"no, only English or Spanish",no,2025-08-12_14h57.19.123,empathy_intonation_perc,2024.2.4,Win32,59.52380952,6672f795fac6ecd66d7b987f,687ed1b7e638a4cbf2f02089,689b8d97ea8cb724c287d16c,,,,,,,,,,,,,49,0,,./stim/wavs/castilian_match_declarative-broad-focus_Mariano-habla-del-tiempo.wav,,,,,,,,,,,,,,,,,,,,,,309.7235,314.7448,1,0,4.5102,,0,20,20,48,1,0,castilian,,,,,,,,,,,,,,,,,,,,,,,,,,,,,,,,,,,,,,,,,,,,,,,,,,,,,,,,
,,,,,,,,,6672f795fac6ecd66d7b987f,6672f795fac6ecd66d7b987f,13 or older,"no, only English or Spanish",no,2025-08-12_14h57.19.123,empathy_intonation_perc,2024.2.4,Win32,59.52380952,6672f795fac6ecd66d7b987f,687ed1b7e638a4cbf2f02089,689b8d97ea8cb724c287d16c,,,,,,,,,,,,,52,0,,./stim/wavs/cuban_match_declarative-broad-focus_Daniel-iba-a-Bolivia.wav,,,,,,,,,,,,,,,,,,,,,,314.7451,319.3327,1,0,4.0761,,0,21,21,51,1,0,cuban,,,,,,,,,,,,,,,,,,,,,,,,,,,,,,,,,,,,,,,,,,,,,,,,,,,,,,,,
,,,,,,,,,6672f795fac6ecd66d7b987f,6672f795fac6ecd66d7b987f,13 or older,"no, only English or Spanish",no,2025-08-12_14h57.19.123,empathy_intonation_perc,2024.2.4,Win32,59.52380952,6672f795fac6ecd66d7b987f,687ed1b7e638a4cbf2f02089,689b8d97ea8cb724c287d16c,,,,,,,,,,,,,58,0,,./stim/wavs/mexican_match_declarative-broad-focus_Daniel-iba-a-Bolivia.wav,,,,,,,,,,,,,,,,,,,,,,319.3332,323.8871,0,1,4.046,,0,22,22,57,1,0,mexican,,,,,,,,,,,,,,,,,,,,,,,,,,,,,,,,,,,,,,,,,,,,,,,,,,,,,,,,
,,,,,,,,,6672f795fac6ecd66d7b987f,6672f795fac6ecd66d7b987f,13 or older,"no, only English or Spanish",no,2025-08-12_14h57.19.123,empathy_intonation_perc,2024.2.4,Win32,59.52380952,6672f795fac6ecd66d7b987f,687ed1b7e638a4cbf2f02089,689b8d97ea8cb724c287d16c,,,,,,,,,,,,,8,1,,./stim/wavs/cuban_match_interrogative-total-yn_Daniel-iba-a-Bolivia.wav,,,,,,,,,,,,,,,,,,,,,,323.8874,328.6419,0,0,4.2429,,0,23,23,7,1,1,cuban,,,,,,,,,,,,,,,,,,,,,,,,,,,,,,,,,,,,,,,,,,,,,,,,,,,,,,,,
,,,,,,,,,6672f795fac6ecd66d7b987f,6672f795fac6ecd66d7b987f,13 or older,"no, only English or Spanish",no,2025-08-12_14h57.19.123,empathy_intonation_perc,2024.2.4,Win32,59.52380952,6672f795fac6ecd66d7b987f,687ed1b7e638a4cbf2f02089,689b8d97ea8cb724c287d16c,,,,,,,,,,,,,34,1,,./stim/wavs/cuban_mismatch_interrogative-total-yn_Mi-tia-odia-la-lluvia.wav,,,,,,,,,,,,,,,,,,,,,,328.6421,333.4305,0,0,4.2705,,0,24,24,33,1,1,cuban,,,,,,,,,,,,,,,,,,,,,,,,,,,,,,,,,,,,,,,,,,,,,,,,,,,,,,,,
,,,,,,,,,6672f795fac6ecd66d7b987f,6672f795fac6ecd66d7b987f,13 or older,"no, only English or Spanish",no,2025-08-12_14h57.19.123,empathy_intonation_perc,2024.2.4,Win32,59.52380952,6672f795fac6ecd66d7b987f,687ed1b7e638a4cbf2f02089,689b8d97ea8cb724c287d16c,,,,,,,,,,,,,44,1,,./stim/wavs/puertorican_mismatch_interrogative-total-yn_Mi-madre-come-la-fruta.wav,,,,,,,,,,,,,,,,,,,,,,333.4309,338.118,0,0,4.1587,,0,25,25,43,1,1,puertorican,,,,,,,,,,,,,,,,,,,,,,,,,,,,,,,,,,,,,,,,,,,,,,,,,,,,,,,,
,,,,,,,,,6672f795fac6ecd66d7b987f,6672f795fac6ecd66d7b987f,13 or older,"no, only English or Spanish",no,2025-08-12_14h57.19.123,empathy_intonation_perc,2024.2.4,Win32,59.52380952,6672f795fac6ecd66d7b987f,687ed1b7e638a4cbf2f02089,689b8d97ea8cb724c287d16c,,,,,,,,,,,,,40,1,,./stim/wavs/puertorican_mismatch_interrogative-total-yn_El-hombre-mira-la-luna.wav,,,,,,,,,,,,,,,,,,,,,,338.1183,343.0896,0,0,4.4546,,0,26,26,39,1,1,puertorican,,,,,,,,,,,,,,,,,,,,,,,,,,,,,,,,,,,,,,,,,,,,,,,,,,,,,,,,
,,,,,,,,,6672f795fac6ecd66d7b987f,6672f795fac6ecd66d7b987f,13 or older,"no, only English or Spanish",no,2025-08-12_14h57.19.123,empathy_intonation_perc,2024.2.4,Win32,59.52380952,6672f795fac6ecd66d7b987f,687ed1b7e638a4cbf2f02089,689b8d97ea8cb724c287d16c,,,,,,,,,,,,,86,0,,./stim/wavs/puertorican_mismatch_declarative-broad-focus_El-nino-oye-el-rio.wav,,,,,,,,,,,,,,,,,,,,,,343.0899,348.2781,1,0,4.6762,,0,27,27,85,1,0,puertorican,,,,,,,,,,,,,,,,,,,,,,,,,,,,,,,,,,,,,,,,,,,,,,,,,,,,,,,,
,,,,,,,,,6672f795fac6ecd66d7b987f,6672f795fac6ecd66d7b987f,13 or older,"no, only English or Spanish",no,2025-08-12_14h57.19.123,empathy_intonation_perc,2024.2.4,Win32,59.52380952,6672f795fac6ecd66d7b987f,687ed1b7e638a4cbf2f02089,689b8d97ea8cb724c287d16c,,,,,,,,,,,,,14,1,,./stim/wavs/mexican_match_interrogative-total-yn_Daniel-iba-a-Bolivia.wav,,,,,,,,,,,,,,,,,,,,,,348.2784,351.6149,0,0,2.8274,,0,28,28,13,1,0,mexican,,,,,,,,,,,,,,,,,,,,,,,,,,,,,,,,,,,,,,,,,,,,,,,,,,,,,,,,
,,,,,,,,,6672f795fac6ecd66d7b987f,6672f795fac6ecd66d7b987f,13 or older,"no, only English or Spanish",no,2025-08-12_14h57.19.123,empathy_intonation_perc,2024.2.4,Win32,59.52380952,6672f795fac6ecd66d7b987f,687ed1b7e638a4cbf2f02089,689b8d97ea8cb724c287d16c,,,,,,,,,,,,,39,1,,./stim/wavs/mexican_mismatch_interrogative-total-yn_Mi-tia-odia-la-lluvia.wav,,,,,,,,,,,,,,,,,,,,,,351.6152,355.0014,1,1,2.8773,,0,29,29,38,1,0,mexican,,,,,,,,,,,,,,,,,,,,,,,,,,,,,,,,,,,,,,,,,,,,,,,,,,,,,,,,
,,,,,,,,,6672f795fac6ecd66d7b987f,6672f795fac6ecd66d7b987f,13 or older,"no, only English or Spanish",no,2025-08-12_14h57.19.123,empathy_intonation_perc,2024.2.4,Win32,59.52380952,6672f795fac6ecd66d7b987f,687ed1b7e638a4cbf2f02089,689b8d97ea8cb724c287d16c,,,,,,,,,,,,,23,1,,./stim/wavs/puertorican_match_interrogative-total-yn_Manuela-vende-el-carro.wav,,,,,,,,,,,,,,,,,,,,,,355.0017,359.189,1,1,3.6719,,0,30,30,22,1,1,puertorican,,,,,,,,,,,,,,,,,,,,,,,,,,,,,,,,,,,,,,,,,,,,,,,,,,,,,,,,
,,,,,,,,,6672f795fac6ecd66d7b987f,6672f795fac6ecd66d7b987f,13 or older,"no, only English or Spanish",no,2025-08-12_14h57.19.123,empathy_intonation_perc,2024.2.4,Win32,59.52380952,6672f795fac6ecd66d7b987f,687ed1b7e638a4cbf2f02089,689b8d97ea8cb724c287d16c,,,,,,,,,,,,,67,0,,./stim/wavs/puertorican_match_declarative-broad-focus_Manuela-vende-el-carro.wav,,,,,,,,,,,,,,,,,,,,,,359.1893,364.1439,0,1,4.4401,,0,31,31,66,1,0,puertorican,,,,,,,,,,,,,,,,,,,,,,,,,,,,,,,,,,,,,,,,,,,,,,,,,,,,,,,,
,,,,,,,,,6672f795fac6ecd66d7b987f,6672f795fac6ecd66d7b987f,13 or older,"no, only English or Spanish",no,2025-08-12_14h57.19.123,empathy_intonation_perc,2024.2.4,Win32,59.52380952,6672f795fac6ecd66d7b987f,687ed1b7e638a4cbf2f02089,689b8d97ea8cb724c287d16c,,,,,,,,,,,,,29,1,,./stim/wavs/castilian_mismatch_interrogative-total-yn_Mi-tia-odia-la-lluvia.wav,,,,,,,,,,,,,,,,,,,,,,364.1442,369.2158,0,0,4.5549,,0,32,32,28,1,0,castilian,,,,,,,,,,,,,,,,,,,,,,,,,,,,,,,,,,,,,,,,,,,,,,,,,,,,,,,,
,,,,,,,,,6672f795fac6ecd66d7b987f,6672f795fac6ecd66d7b987f,13 or older,"no, only English or Spanish",no,2025-08-12_14h57.19.123,empathy_intonation_perc,2024.2.4,Win32,59.52380952,6672f795fac6ecd66d7b987f,687ed1b7e638a4cbf2f02089,689b8d97ea8cb724c287d16c,,,,,,,,,,,,,42,1,,./stim/wavs/puertorican_mismatch_interrogative-total-yn_La-maestra-vive-en-Paris.wav,,,,,,,,,,,,,,,,,,,,,,369.2161,374.3209,1,1,4.5951,,0,33,33,41,1,1,puertorican,,,,,,,,,,,,,,,,,,,,,,,,,,,,,,,,,,,,,,,,,,,,,,,,,,,,,,,,
,,,,,,,,,6672f795fac6ecd66d7b987f,6672f795fac6ecd66d7b987f,13 or older,"no, only English or Spanish",no,2025-08-12_14h57.19.123,empathy_intonation_perc,2024.2.4,Win32,59.52380952,6672f795fac6ecd66d7b987f,687ed1b7e638a4cbf2f02089,689b8d97ea8cb724c287d16c,,,,,,,,,,,,,1,1,,./stim/wavs/castilian_match_interrogative-total-yn_David-leia-el-libro.wav,,,,,,,,,,,,,,,,,,,,,,374.3213,378.6918,1,1,3.856,,0,34,34,0,1,0,castilian,,,,,,,,,,,,,,,,,,,,,,,,,,,,,,,,,,,,,,,,,,,,,,,,,,,,,,,,
,,,,,,,,,6672f795fac6ecd66d7b987f,6672f795fac6ecd66d7b987f,13 or older,"no, only English or Spanish",no,2025-08-12_14h57.19.123,empathy_intonation_perc,2024.2.4,Win32,59.52380952,6672f795fac6ecd66d7b987f,687ed1b7e638a4cbf2f02089,689b8d97ea8cb724c287d16c,,,,,,,,,,,,,56,0,,./stim/wavs/cuban_match_declarative-broad-focus_Marta-abre-el-regalo.wav,,,,,,,,,,,,,,,,,,,,,,378.6921,384.2807,1,0,5.0798,,0,35,35,55,1,0,cuban,,,,,,,,,,,,,,,,,,,,,,,,,,,,,,,,,,,,,,,,,,,,,,,,,,,,,,,,
,,,,,,,,,6672f795fac6ecd66d7b987f,6672f795fac6ecd66d7b987f,13 or older,"no, only English or Spanish",no,2025-08-12_14h57.19.123,empathy_intonation_perc,2024.2.4,Win32,59.52380952,6672f795fac6ecd66d7b987f,687ed1b7e638a4cbf2f02089,689b8d97ea8cb724c287d16c,,,,,,,,,,,,,80,0,,./stim/wavs/mexican_mismatch_declarative-broad-focus_El-hombre-mira-la-luna.wav,,,,,,,,,,,,,,,,,,,,,,384.2809,389.2691,0,1,4.4711,,0,36,36,79,1,0,mexican,,,,,,,,,,,,,,,,,,,,,,,,,,,,,,,,,,,,,,,,,,,,,,,,,,,,,,,,
,,,,,,,,,6672f795fac6ecd66d7b987f,6672f795fac6ecd66d7b987f,13 or older,"no, only English or Spanish",no,2025-08-12_14h57.19.123,empathy_intonation_perc,2024.2.4,Win32,59.52380952,6672f795fac6ecd66d7b987f,687ed1b7e638a4cbf2f02089,689b8d97ea8cb724c287d16c,,,,,,,,,,,,,81,0,,./stim/wavs/mexican_mismatch_declarative-broad-focus_La-maestra-vive-en-Paris.wav,,,,,,,,,,,,,,,,,,,,,,389.2693,393.2397,1,0,3.4535,,0,37,37,80,1,0,mexican,,,,,,,,,,,,,,,,,,,,,,,,,,,,,,,,,,,,,,,,,,,,,,,,,,,,,,,,
,,,,,,,,,6672f795fac6ecd66d7b987f,6672f795fac6ecd66d7b987f,13 or older,"no, only English or Spanish",no,2025-08-12_14h57.19.123,empathy_intonation_perc,2024.2.4,Win32,59.52380952,6672f795fac6ecd66d7b987f,687ed1b7e638a4cbf2f02089,689b8d97ea8cb724c287d16c,,,,,,,,,,,,,59,0,,./stim/wavs/mexican_match_declarative-broad-focus_David-leia-el-libro.wav,,,,,,,,,,,,,,,,,,,,,,393.24,396.5929,0,1,2.8363,,0,38,38,58,1,0,mexican,,,,,,,,,,,,,,,,,,,,,,,,,,,,,,,,,,,,,,,,,,,,,,,,,,,,,,,,
,,,,,,,,,6672f795fac6ecd66d7b987f,6672f795fac6ecd66d7b987f,13 or older,"no, only English or Spanish",no,2025-08-12_14h57.19.123,empathy_intonation_perc,2024.2.4,Win32,59.52380952,6672f795fac6ecd66d7b987f,687ed1b7e638a4cbf2f02089,689b8d97ea8cb724c287d16c,,,,,,,,,,,,,12,1,,./stim/wavs/cuban_match_interrogative-total-yn_Marta-abre-el-regalo.wav,,,,,,,,,,,,,,,,,,,,,,396.5934,399.9128,1,1,2.8132,,0,39,39,11,1,1,cuban,,,,,,,,,,,,,,,,,,,,,,,,,,,,,,,,,,,,,,,,,,,,,,,,,,,,,,,,
,,,,,,,,,6672f795fac6ecd66d7b987f,6672f795fac6ecd66d7b987f,13 or older,"no, only English or Spanish",no,2025-08-12_14h57.19.123,empathy_intonation_perc,2024.2.4,Win32,59.52380952,6672f795fac6ecd66d7b987f,687ed1b7e638a4cbf2f02089,689b8d97ea8cb724c287d16c,,,,,,,,,,,,,48,0,,./stim/wavs/castilian_match_declarative-broad-focus_Maria-bebe-el-vino.wav,,,,,,,,,,,,,,,,,,,,,,399.9132,404.3672,1,0,3.9476,,0,40,40,47,1,0,castilian,,,,,,,,,,,,,,,,,,,,,,,,,,,,,,,,,,,,,,,,,,,,,,,,,,,,,,,,
,,,,,,,,,6672f795fac6ecd66d7b987f,6672f795fac6ecd66d7b987f,13 or older,"no, only English or Spanish",no,2025-08-12_14h57.19.123,empathy_intonation_perc,2024.2.4,Win32,59.52380952,6672f795fac6ecd66d7b987f,687ed1b7e638a4cbf2f02089,689b8d97ea8cb724c287d16c,,,,,,,,,,,,,73,0,,./stim/wavs/castilian_mismatch_declarative-broad-focus_Mi-tia-odia-la-lluvia.wav,,,,,,,,,,,,,,,,,,,,,,404.3675,409.0887,0,1,4.2131,,0,41,41,72,1,0,castilian,,,,,,,,,,,,,,,,,,,,,,,,,,,,,,,,,,,,,,,,,,,,,,,,,,,,,,,,
,,,,,,,,,6672f795fac6ecd66d7b987f,6672f795fac6ecd66d7b987f,13 or older,"no, only English or Spanish",no,2025-08-12_14h57.19.123,empathy_intonation_perc,2024.2.4,Win32,59.52380952,6672f795fac6ecd66d7b987f,687ed1b7e638a4cbf2f02089,689b8d97ea8cb724c287d16c,,,,,,,,,,,,,70,0,,./stim/wavs/castilian_mismatch_declarative-broad-focus_La-maestra-vive-en-Paris.wav,,,,,,,,,,,,,,,,,,,,,,409.089,413.3429,1,0,3.7365,,0,42,42,69,1,0,castilian,,,,,,,,,,,,,,,,,,,,,,,,,,,,,,,,,,,,,,,,,,,,,,,,,,,,,,,,
,,,,,,,,,6672f795fac6ecd66d7b987f,6672f795fac6ecd66d7b987f,13 or older,"no, only English or Spanish",no,2025-08-12_14h57.19.123,empathy_intonation_perc,2024.2.4,Win32,59.52380952,6672f795fac6ecd66d7b987f,687ed1b7e638a4cbf2f02089,689b8d97ea8cb724c287d16c,,,,,,,,,,,,,13,1,,./stim/wavs/mexican_match_interrogative-total-yn_Ana-lleva-el-abrigo.wav,,,,,,,,,,,,,,,,,,,,,,413.3431,418.0141,0,0,4.1562,,0,43,43,12,1,0,mexican,,,,,,,,,,,,,,,,,,,,,,,,,,,,,,,,,,,,,,,,,,,,,,,,,,,,,,,,
,,,,,,,,,6672f795fac6ecd66d7b987f,6672f795fac6ecd66d7b987f,13 or older,"no, only English or Spanish",no,2025-08-12_14h57.19.123,empathy_intonation_perc,2024.2.4,Win32,59.52380952,6672f795fac6ecd66d7b987f,687ed1b7e638a4cbf2f02089,689b8d97ea8cb724c287d16c,,,,,,,,,,,,,19,1,,./stim/wavs/puertorican_match_interrogative-total-yn_Ana-lleva-el-abrigo.wav,,,,,,,,,,,,,,,,,,,,,,418.0145,421.4344,1,1,2.9047,,0,44,44,18,1,1,puertorican,,,,,,,,,,,,,,,,,,,,,,,,,,,,,,,,,,,,,,,,,,,,,,,,,,,,,,,,
,,,,,,,,,6672f795fac6ecd66d7b987f,6672f795fac6ecd66d7b987f,13 or older,"no, only English or Spanish",no,2025-08-12_14h57.19.123,empathy_intonation_perc,2024.2.4,Win32,59.52380952,6672f795fac6ecd66d7b987f,687ed1b7e638a4cbf2f02089,689b8d97ea8cb724c287d16c,,,,,,,,,,,,,75,0,,./stim/wavs/cuban_mismatch_declarative-broad-focus_El-hombre-mira-la-luna.wav,,,,,,,,,,,,,,,,,,,,,,421.4346,424.7542,0,1,2.8109,,0,45,45,74,1,0,cuban,,,,,,,,,,,,,,,,,,,,,,,,,,,,,,,,,,,,,,,,,,,,,,,,,,,,,,,,
,,,,,,,,,6672f795fac6ecd66d7b987f,6672f795fac6ecd66d7b987f,13 or older,"no, only English or Spanish",no,2025-08-12_14h57.19.123,empathy_intonation_perc,2024.2.4,Win32,59.52380952,6672f795fac6ecd66d7b987f,687ed1b7e638a4cbf2f02089,689b8d97ea8cb724c287d16c,,,,,,,,,,,,,6,1,,./stim/wavs/castilian_match_interrogative-total-yn_Marta-abre-el-regalo.wav,,,,,,,,,,,,,,,,,,,,,,424.7545,428.725,0,0,3.4536,,0,46,46,5,1,0,castilian,,,,,,,,,,,,,,,,,,,,,,,,,,,,,,,,,,,,,,,,,,,,,,,,,,,,,,,,
,,,,,,,,,6672f795fac6ecd66d7b987f,6672f795fac6ecd66d7b987f,13 or older,"no, only English or Spanish",no,2025-08-12_14h57.19.123,empathy_intonation_perc,2024.2.4,Win32,59.52380952,6672f795fac6ecd66d7b987f,687ed1b7e638a4cbf2f02089,689b8d97ea8cb724c287d16c,,,,,,,,,,,,,17,1,,./stim/wavs/mexican_match_interrogative-total-yn_Mariano-habla-del-tiempo.wav,,,,,,,,,,,,,,,,,,,,,,428.7252,432.3452,1,1,3.1097,,0,47,47,16,1,0,mexican,,,,,,,,,,,,,,,,,,,,,,,,,,,,,,,,,,,,,,,,,,,,,,,,,,,,,,,,
,,,,,,,,,6672f795fac6ecd66d7b987f,6672f795fac6ecd66d7b987f,13 or older,"no, only English or Spanish",no,2025-08-12_14h57.19.123,empathy_intonation_perc,2024.2.4,Win32,59.52380952,6672f795fac6ecd66d7b987f,687ed1b7e638a4cbf2f02089,689b8d97ea8cb724c287d16c,,,,,,,,,,,,,16,1,,./stim/wavs/mexican_match_interrogative-total-yn_Emilio-ama-la-marcha.wav,,,,,,,,,,,,,,,,,,,,,,432.3457,436.4659,0,0,3.6034,,0,48,48,15,1,0,mexican,,,,,,,,,,,,,,,,,,,,,,,,,,,,,,,,,,,,,,,,,,,,,,,,,,,,,,,,
,,,,,,,,,6672f795fac6ecd66d7b987f,6672f795fac6ecd66d7b987f,13 or older,"no, only English or Spanish",no,2025-08-12_14h57.19.123,empathy_intonation_perc,2024.2.4,Win32,59.52380952,6672f795fac6ecd66d7b987f,687ed1b7e638a4cbf2f02089,689b8d97ea8cb724c287d16c,,,,,,,,,,,,,51,0,,./stim/wavs/cuban_match_declarative-broad-focus_Ana-lleva-el-abrigo.wav,,,,,,,,,,,,,,,,,,,,,,436.4662,440.2197,0,1,3.2419,,0,49,49,50,1,0,cuban,,,,,,,,,,,,,,,,,,,,,,,,,,,,,,,,,,,,,,,,,,,,,,,,,,,,,,,,
,,,,,,,,,6672f795fac6ecd66d7b987f,6672f795fac6ecd66d7b987f,13 or older,"no, only English or Spanish",no,2025-08-12_14h57.19.123,empathy_intonation_perc,2024.2.4,Win32,59.52380952,6672f795fac6ecd66d7b987f,687ed1b7e638a4cbf2f02089,689b8d97ea8cb724c287d16c,,,,,,,,,,,,,82,0,,./stim/wavs/mexican_mismatch_declarative-broad-focus_Mi-novio-viene-del-lago.wav,,,,,,,,,,,,,,,,,,,,,,440.22,443.9234,1,0,3.186,,0,50,50,81,1,0,mexican,,,,,,,,,,,,,,,,,,,,,,,,,,,,,,,,,,,,,,,,,,,,,,,,,,,,,,,,
,,,,,,,,,6672f795fac6ecd66d7b987f,6672f795fac6ecd66d7b987f,13 or older,"no, only English or Spanish",no,2025-08-12_14h57.19.123,empathy_intonation_perc,2024.2.4,Win32,59.52380952,6672f795fac6ecd66d7b987f,687ed1b7e638a4cbf2f02089,689b8d97ea8cb724c287d16c,,,,,,,,,,,,,76,0,,./stim/wavs/cuban_mismatch_declarative-broad-focus_La-nina-lava-el-plato.wav,,,,,,,,,,,,,,,,,,,,,,443.9237,447.1932,0,1,2.7615,,0,51,51,75,1,0,cuban,,,,,,,,,,,,,,,,,,,,,,,,,,,,,,,,,,,,,,,,,,,,,,,,,,,,,,,,
,,,,,,,,,6672f795fac6ecd66d7b987f,6672f795fac6ecd66d7b987f,13 or older,"no, only English or Spanish",no,2025-08-12_14h57.19.123,empathy_intonation_perc,2024.2.4,Win32,59.52380952,6672f795fac6ecd66d7b987f,687ed1b7e638a4cbf2f02089,689b8d97ea8cb724c287d16c,,,,,,,,,,,,,21,1,,./stim/wavs/puertorican_match_interrogative-total-yn_David-leia-el-libro.wav,,,,,,,,,,,,,,,,,,,,,,447.1936,450.6634,1,1,2.9553,,0,52,52,20,1,1,puertorican,,,,,,,,,,,,,,,,,,,,,,,,,,,,,,,,,,,,,,,,,,,,,,,,,,,,,,,,
,,,,,,,,,6672f795fac6ecd66d7b987f,6672f795fac6ecd66d7b987f,13 or older,"no, only English or Spanish",no,2025-08-12_14h57.19.123,empathy_intonation_perc,2024.2.4,Win32,59.52380952,6672f795fac6ecd66d7b987f,687ed1b7e638a4cbf2f02089,689b8d97ea8cb724c287d16c,,,,,,,,,,,,,15,1,,./stim/wavs/mexican_match_interrogative-total-yn_David-leia-el-libro.wav,,,,,,,,,,,,,,,,,,,,,,450.6636,455.7186,0,0,4.5418,,0,53,53,14,1,0,mexican,,,,,,,,,,,,,,,,,,,,,,,,,,,,,,,,,,,,,,,,,,,,,,,,,,,,,,,,
,,,,,,,,,6672f795fac6ecd66d7b987f,6672f795fac6ecd66d7b987f,13 or older,"no, only English or Spanish",no,2025-08-12_14h57.19.123,empathy_intonation_perc,2024.2.4,Win32,59.52380952,6672f795fac6ecd66d7b987f,687ed1b7e638a4cbf2f02089,689b8d97ea8cb724c287d16c,,,,,,,,,,,,,11,1,,./stim/wavs/cuban_match_interrogative-total-yn_Mariano-habla-del-tiempo.wav,,,,,,,,,,,,,,,,,,,,,,455.7189,459.0218,0,0,2.7897,,0,54,54,10,1,1,cuban,,,,,,,,,,,,,,,,,,,,,,,,,,,,,,,,,,,,,,,,,,,,,,,,,,,,,,,,
,,,,,,,,,6672f795fac6ecd66d7b987f,6672f795fac6ecd66d7b987f,13 or older,"no, only English or Spanish",no,2025-08-12_14h57.19.123,empathy_intonation_perc,2024.2.4,Win32,59.52380952,6672f795fac6ecd66d7b987f,687ed1b7e638a4cbf2f02089,689b8d97ea8cb724c287d16c,,,,,,,,,,,,,50,0,,./stim/wavs/castilian_match_declarative-broad-focus_Marta-abre-el-regalo.wav,,,,,,,,,,,,,,,,,,,,,,459.022,462.9258,0,1,3.3864,,0,55,55,49,1,0,castilian,,,,,,,,,,,,,,,,,,,,,,,,,,,,,,,,,,,,,,,,,,,,,,,,,,,,,,,,
,,,,,,,,,6672f795fac6ecd66d7b987f,6672f795fac6ecd66d7b987f,13 or older,"no, only English or Spanish",no,2025-08-12_14h57.19.123,empathy_intonation_perc,2024.2.4,Win32,59.52380952,6672f795fac6ecd66d7b987f,687ed1b7e638a4cbf2f02089,689b8d97ea8cb724c287d16c,,,,,,,,,,,,,68,0,,./stim/wavs/puertorican_match_declarative-broad-focus_Maria-bebe-el-vino.wav,,,,,,,,,,,,,,,,,,,,,,462.9261,466.546,0,1,3.1084,,0,56,56,67,1,0,puertorican,,,,,,,,,,,,,,,,,,,,,,,,,,,,,,,,,,,,,,,,,,,,,,,,,,,,,,,,
,,,,,,,,,6672f795fac6ecd66d7b987f,6672f795fac6ecd66d7b987f,13 or older,"no, only English or Spanish",no,2025-08-12_14h57.19.123,empathy_intonation_perc,2024.2.4,Win32,59.52380952,6672f795fac6ecd66d7b987f,687ed1b7e638a4cbf2f02089,689b8d97ea8cb724c287d16c,,,,,,,,,,,,,30,1,,./stim/wavs/cuban_mismatch_interrogative-total-yn_El-hombre-mira-la-luna.wav,,,,,,,,,,,,,,,,,,,,,,466.5462,470.0326,0,0,2.9761,,0,57,57,29,1,1,cuban,,,,,,,,,,,,,,,,,,,,,,,,,,,,,,,,,,,,,,,,,,,,,,,,,,,,,,,,
,,,,,,,,,6672f795fac6ecd66d7b987f,6672f795fac6ecd66d7b987f,13 or older,"no, only English or Spanish",no,2025-08-12_14h57.19.123,empathy_intonation_perc,2024.2.4,Win32,59.52380952,6672f795fac6ecd66d7b987f,687ed1b7e638a4cbf2f02089,689b8d97ea8cb724c287d16c,,,,,,,,,,,,,43,1,,./stim/wavs/puertorican_mismatch_interrogative-total-yn_La-nina-lava-el-plato.wav,,,,,,,,,,,,,,,,,,,,,,470.033,474.4037,0,0,3.8592,,0,58,58,42,1,1,puertorican,,,,,,,,,,,,,,,,,,,,,,,,,,,,,,,,,,,,,,,,,,,,,,,,,,,,,,,,
,,,,,,,,,6672f795fac6ecd66d7b987f,6672f795fac6ecd66d7b987f,13 or older,"no, only English or Spanish",no,2025-08-12_14h57.19.123,empathy_intonation_perc,2024.2.4,Win32,59.52380952,6672f795fac6ecd66d7b987f,687ed1b7e638a4cbf2f02089,689b8d97ea8cb724c287d16c,,,,,,,,,,,,,31,1,,./stim/wavs/cuban_mismatch_interrogative-total-yn_El-nino-oye-el-rio.wav,,,,,,,,,,,,,,,,,,,,,,474.404,479.1419,0,0,4.2183,,0,59,59,30,1,1,cuban,,,,,,,,,,,,,,,,,,,,,,,,,,,,,,,,,,,,,,,,,,,,,,,,,,,,,,,,
,,,,,,,,,6672f795fac6ecd66d7b987f,6672f795fac6ecd66d7b987f,13 or older,"no, only English or Spanish",no,2025-08-12_14h57.19.123,empathy_intonation_perc,2024.2.4,Win32,59.52380952,6672f795fac6ecd66d7b987f,687ed1b7e638a4cbf2f02089,689b8d97ea8cb724c287d16c,,,,,,,,,,,,,27,1,,./stim/wavs/castilian_mismatch_interrogative-total-yn_Mi-madre-come-la-fruta.wav,,,,,,,,,,,,,,,,,,,,,,479.1421,482.0947,1,1,2.4383,,0,60,60,26,1,0,castilian,,,,,,,,,,,,,,,,,,,,,,,,,,,,,,,,,,,,,,,,,,,,,,,,,,,,,,,,
,,,,,,,,,6672f795fac6ecd66d7b987f,6672f795fac6ecd66d7b987f,13 or older,"no, only English or Spanish",no,2025-08-12_14h57.19.123,empathy_intonation_perc,2024.2.4,Win32,59.52380952,6672f795fac6ecd66d7b987f,687ed1b7e638a4cbf2f02089,689b8d97ea8cb724c287d16c,,,,,,,,,,,,,4,1,,./stim/wavs/castilian_match_interrogative-total-yn_Maria-bebe-el-vino.wav,,,,,,,,,,,,,,,,,,,,,,482.095,487.1498,1,1,4.5427,,0,61,61,3,1,0,castilian,,,,,,,,,,,,,,,,,,,,,,,,,,,,,,,,,,,,,,,,,,,,,,,,,,,,,,,,
,,,,,,,,,6672f795fac6ecd66d7b987f,6672f795fac6ecd66d7b987f,13 or older,"no, only English or Spanish",no,2025-08-12_14h57.19.123,empathy_intonation_perc,2024.2.4,Win32,59.52380952,6672f795fac6ecd66d7b987f,687ed1b7e638a4cbf2f02089,689b8d97ea8cb724c287d16c,,,,,,,,,,,,,65,0,,./stim/wavs/puertorican_match_declarative-broad-focus_David-leia-el-libro.wav,,,,,,,,,,,,,,,,,,,,,,487.15,490.136,0,1,2.472,,0,62,62,64,1,0,puertorican,,,,,,,,,,,,,,,,,,,,,,,,,,,,,,,,,,,,,,,,,,,,,,,,,,,,,,,,
,,,,,,,,,6672f795fac6ecd66d7b987f,6672f795fac6ecd66d7b987f,13 or older,"no, only English or Spanish",no,2025-08-12_14h57.19.123,empathy_intonation_perc,2024.2.4,Win32,59.52380952,6672f795fac6ecd66d7b987f,687ed1b7e638a4cbf2f02089,689b8d97ea8cb724c287d16c,,,,,,,,,,,,,24,1,,./stim/wavs/puertorican_match_interrogative-total-yn_Maria-bebe-el-vino.wav,,,,,,,,,,,,,,,,,,,,,,490.1364,492.722,1,1,2.0684,,0,63,63,23,1,1,puertorican,,,,,,,,,,,,,,,,,,,,,,,,,,,,,,,,,,,,,,,,,,,,,,,,,,,,,,,,
,,,,,,,,,6672f795fac6ecd66d7b987f,6672f795fac6ecd66d7b987f,13 or older,"no, only English or Spanish",no,2025-08-12_14h57.19.123,empathy_intonation_perc,2024.2.4,Win32,59.52380952,6672f795fac6ecd66d7b987f,687ed1b7e638a4cbf2f02089,689b8d97ea8cb724c287d16c,,,,,,,,,,,,,20,1,,./stim/wavs/puertorican_match_interrogative-total-yn_Daniel-iba-a-Bolivia.wav,,,,,,,,,,,,,,,,,,,,,,492.7224,495.3581,0,0,2.1195,,0,64,64,19,1,1,puertorican,,,,,,,,,,,,,,,,,,,,,,,,,,,,,,,,,,,,,,,,,,,,,,,,,,,,,,,,
,,,,,,,,,6672f795fac6ecd66d7b987f,6672f795fac6ecd66d7b987f,13 or older,"no, only English or Spanish",no,2025-08-12_14h57.19.123,empathy_intonation_perc,2024.2.4,Win32,59.52380952,6672f795fac6ecd66d7b987f,687ed1b7e638a4cbf2f02089,689b8d97ea8cb724c287d16c,,,,,,,,,,,,,32,1,,./stim/wavs/cuban_mismatch_interrogative-total-yn_Mi-madre-come-la-fruta.wav,,,,,,,,,,,,,,,,,,,,,,495.3582,498.8288,1,1,2.9549,,0,65,65,31,1,1,cuban,,,,,,,,,,,,,,,,,,,,,,,,,,,,,,,,,,,,,,,,,,,,,,,,,,,,,,,,
,,,,,,,,,6672f795fac6ecd66d7b987f,6672f795fac6ecd66d7b987f,13 or older,"no, only English or Spanish",no,2025-08-12_14h57.19.123,empathy_intonation_perc,2024.2.4,Win32,59.52380952,6672f795fac6ecd66d7b987f,687ed1b7e638a4cbf2f02089,689b8d97ea8cb724c287d16c,,,,,,,,,,,,,79,0,,./stim/wavs/mexican_mismatch_declarative-broad-focus_El-bebe-comia-muy-bien.wav,,,,,,,,,,,,,,,,,,,,,,498.8297,501.9979,0,1,2.6404,,0,66,66,78,1,0,mexican,,,,,,,,,,,,,,,,,,,,,,,,,,,,,,,,,,,,,,,,,,,,,,,,,,,,,,,,
,,,,,,,,,6672f795fac6ecd66d7b987f,6672f795fac6ecd66d7b987f,13 or older,"no, only English or Spanish",no,2025-08-12_14h57.19.123,empathy_intonation_perc,2024.2.4,Win32,59.52380952,6672f795fac6ecd66d7b987f,687ed1b7e638a4cbf2f02089,689b8d97ea8cb724c287d16c,,,,,,,,,,,,,72,0,,./stim/wavs/castilian_mismatch_declarative-broad-focus_Mi-novio-viene-del-lago.wav,,,,,,,,,,,,,,,,,,,,,,501.9981,505.5181,0,1,3.0031,,0,67,67,71,1,0,castilian,,,,,,,,,,,,,,,,,,,,,,,,,,,,,,,,,,,,,,,,,,,,,,,,,,,,,,,,
,,,,,,,,,6672f795fac6ecd66d7b987f,6672f795fac6ecd66d7b987f,13 or older,"no, only English or Spanish",no,2025-08-12_14h57.19.123,empathy_intonation_perc,2024.2.4,Win32,59.52380952,6672f795fac6ecd66d7b987f,687ed1b7e638a4cbf2f02089,689b8d97ea8cb724c287d16c,,,,,,,,,,,,,88,0,,./stim/wavs/puertorican_mismatch_declarative-broad-focus_La-nina-lava-el-plato.wav,,,,,,,,,,,,,,,,,,,,,,505.5185,509.2218,0,1,3.1941,,0,68,68,87,1,0,puertorican,,,,,,,,,,,,,,,,,,,,,,,,,,,,,,,,,,,,,,,,,,,,,,,,,,,,,,,,
,,,,,,,,,6672f795fac6ecd66d7b987f,6672f795fac6ecd66d7b987f,13 or older,"no, only English or Spanish",no,2025-08-12_14h57.19.123,empathy_intonation_perc,2024.2.4,Win32,59.52380952,6672f795fac6ecd66d7b987f,687ed1b7e638a4cbf2f02089,689b8d97ea8cb724c287d16c,,,,,,,,,,,,,9,1,,./stim/wavs/cuban_match_interrogative-total-yn_Manuela-vende-el-carro.wav,,,,,,,,,,,,,,,,,,,,,,509.2221,511.6742,0,0,1.941,,0,69,69,8,1,1,cuban,,,,,,,,,,,,,,,,,,,,,,,,,,,,,,,,,,,,,,,,,,,,,,,,,,,,,,,,
,,,,,,,,,6672f795fac6ecd66d7b987f,6672f795fac6ecd66d7b987f,13 or older,"no, only English or Spanish",no,2025-08-12_14h57.19.123,empathy_intonation_perc,2024.2.4,Win32,59.52380952,6672f795fac6ecd66d7b987f,687ed1b7e638a4cbf2f02089,689b8d97ea8cb724c287d16c,,,,,,,,,,,,,74,0,,./stim/wavs/cuban_mismatch_declarative-broad-focus_El-bebe-comia-muy-bien.wav,,,,,,,,,,,,,,,,,,,,,,511.6744,513.7764,1,0,1.5881,,0,70,70,73,1,0,cuban,,,,,,,,,,,,,,,,,,,,,,,,,,,,,,,,,,,,,,,,,,,,,,,,,,,,,,,,
,,,,,,,,,6672f795fac6ecd66d7b987f,6672f795fac6ecd66d7b987f,13 or older,"no, only English or Spanish",no,2025-08-12_14h57.19.123,empathy_intonation_perc,2024.2.4,Win32,59.52380952,6672f795fac6ecd66d7b987f,687ed1b7e638a4cbf2f02089,689b8d97ea8cb724c287d16c,,,,,,,,,,,,,33,1,,./stim/wavs/cuban_mismatch_interrogative-total-yn_Mi-novio-viene-del-lago.wav,,,,,,,,,,,,,,,,,,,,,,513.7766,516.2789,0,0,1.9851,,0,71,71,32,1,1,cuban,,,,,,,,,,,,,,,,,,,,,,,,,,,,,,,,,,,,,,,,,,,,,,,,,,,,,,,,
,,,,,,,,,6672f795fac6ecd66d7b987f,6672f795fac6ecd66d7b987f,13 or older,"no, only English or Spanish",no,2025-08-12_14h57.19.123,empathy_intonation_perc,2024.2.4,Win32,59.52380952,6672f795fac6ecd66d7b987f,687ed1b7e638a4cbf2f02089,689b8d97ea8cb724c287d16c,,,,,,,,,,,,,5,1,,./stim/wavs/castilian_match_interrogative-total-yn_Mariano-habla-del-tiempo.wav,,,,,,,,,,,,,,,,,,,,,,516.2791,518.6312,0,0,1.846,,0,72,72,4,1,0,castilian,,,,,,,,,,,,,,,,,,,,,,,,,,,,,,,,,,,,,,,,,,,,,,,,,,,,,,,,
,,,,,,,,,6672f795fac6ecd66d7b987f,6672f795fac6ecd66d7b987f,13 or older,"no, only English or Spanish",no,2025-08-12_14h57.19.123,empathy_intonation_perc,2024.2.4,Win32,59.52380952,6672f795fac6ecd66d7b987f,687ed1b7e638a4cbf2f02089,689b8d97ea8cb724c287d16c,,,,,,,,,,,,,45,0,,./stim/wavs/castilian_match_declarative-broad-focus_David-leia-el-libro.wav,,,,,,,,,,,,,,,,,,,,,,518.6313,520.9167,1,0,1.7698,,0,73,73,44,1,0,castilian,,,,,,,,,,,,,,,,,,,,,,,,,,,,,,,,,,,,,,,,,,,,,,,,,,,,,,,,
,,,,,,,,,6672f795fac6ecd66d7b987f,6672f795fac6ecd66d7b987f,13 or older,"no, only English or Spanish",no,2025-08-12_14h57.19.123,empathy_intonation_perc,2024.2.4,Win32,59.52380952,6672f795fac6ecd66d7b987f,687ed1b7e638a4cbf2f02089,689b8d97ea8cb724c287d16c,,,,,,,,,,,,,35,1,,./stim/wavs/mexican_mismatch_interrogative-total-yn_El-hombre-mira-la-luna.wav,,,,,,,,,,,,,,,,,,,,,,520.9169,525.0875,0,0,3.654,,0,74,74,34,1,0,mexican,,,,,,,,,,,,,,,,,,,,,,,,,,,,,,,,,,,,,,,,,,,,,,,,,,,,,,,,
,,,,,,,,,6672f795fac6ecd66d7b987f,6672f795fac6ecd66d7b987f,13 or older,"no, only English or Spanish",no,2025-08-12_14h57.19.123,empathy_intonation_perc,2024.2.4,Win32,59.52380952,6672f795fac6ecd66d7b987f,687ed1b7e638a4cbf2f02089,689b8d97ea8cb724c287d16c,,,,,,,,,,,,,55,0,,./stim/wavs/cuban_match_declarative-broad-focus_Mariano-habla-del-tiempo.wav,,,,,,,,,,,,,,,,,,,,,,525.0878,527.54,0,1,1.9412,,0,75,75,54,1,0,cuban,,,,,,,,,,,,,,,,,,,,,,,,,,,,,,,,,,,,,,,,,,,,,,,,,,,,,,,,
,,,,,,,,,6672f795fac6ecd66d7b987f,6672f795fac6ecd66d7b987f,13 or older,"no, only English or Spanish",no,2025-08-12_14h57.19.123,empathy_intonation_perc,2024.2.4,Win32,59.52380952,6672f795fac6ecd66d7b987f,687ed1b7e638a4cbf2f02089,689b8d97ea8cb724c287d16c,,,,,,,,,,,,,83,0,,./stim/wavs/mexican_mismatch_declarative-broad-focus_Mi-tia-odia-la-lluvia.wav,,,,,,,,,,,,,,,,,,,,,,527.5402,529.909,0,1,1.8559,,0,76,76,82,1,0,mexican,,,,,,,,,,,,,,,,,,,,,,,,,,,,,,,,,,,,,,,,,,,,,,,,,,,,,,,,
,,,,,,,,,6672f795fac6ecd66d7b987f,6672f795fac6ecd66d7b987f,13 or older,"no, only English or Spanish",no,2025-08-12_14h57.19.123,empathy_intonation_perc,2024.2.4,Win32,59.52380952,6672f795fac6ecd66d7b987f,687ed1b7e638a4cbf2f02089,689b8d97ea8cb724c287d16c,,,,,,,,,,,,,47,0,,./stim/wavs/castilian_match_declarative-broad-focus_Manuela-vende-el-carro.wav,,,,,,,,,,,,,,,,,,,,,,529.9093,532.5783,1,0,2.1589,,0,77,77,46,1,0,castilian,,,,,,,,,,,,,,,,,,,,,,,,,,,,,,,,,,,,,,,,,,,,,,,,,,,,,,,,
,,,,,,,,,6672f795fac6ecd66d7b987f,6672f795fac6ecd66d7b987f,13 or older,"no, only English or Spanish",no,2025-08-12_14h57.19.123,empathy_intonation_perc,2024.2.4,Win32,59.52380952,6672f795fac6ecd66d7b987f,687ed1b7e638a4cbf2f02089,689b8d97ea8cb724c287d16c,,,,,,,,,,,,,28,1,,./stim/wavs/castilian_mismatch_interrogative-total-yn_Mi-novio-viene-del-lago.wav,,,,,,,,,,,,,,,,,,,,,,532.5786,535.3478,0,0,2.2565,,0,78,78,27,1,0,castilian,,,,,,,,,,,,,,,,,,,,,,,,,,,,,,,,,,,,,,,,,,,,,,,,,,,,,,,,
,,,,,,,,,6672f795fac6ecd66d7b987f,6672f795fac6ecd66d7b987f,13 or older,"no, only English or Spanish",no,2025-08-12_14h57.19.123,empathy_intonation_perc,2024.2.4,Win32,59.52380952,6672f795fac6ecd66d7b987f,687ed1b7e638a4cbf2f02089,689b8d97ea8cb724c287d16c,,,,,,,,,,,,,87,0,,./stim/wavs/puertorican_mismatch_declarative-broad-focus_La-maestra-vive-en-Paris.wav,,,,,,,,,,,,,,,,,,,,,,535.348,537.6168,1,0,1.7612,,0,79,79,86,1,0,puertorican,,,,,,,,,,,,,,,,,,,,,,,,,,,,,,,,,,,,,,,,,,,,,,,,,,,,,,,,
,,,,,,,,,6672f795fac6ecd66d7b987f,6672f795fac6ecd66d7b987f,13 or older,"no, only English or Spanish",no,2025-08-12_14h57.19.123,empathy_intonation_perc,2024.2.4,Win32,59.52380952,6672f795fac6ecd66d7b987f,687ed1b7e638a4cbf2f02089,689b8d97ea8cb724c287d16c,,,,,,,,,,,,,10,1,,./stim/wavs/cuban_match_interrogative-total-yn_Maria-bebe-el-vino.wav,,,,,,,,,,,,,,,,,,,,,,537.617,539.8355,1,1,1.7054,,0,80,80,9,1,1,cuban,,,,,,,,,,,,,,,,,,,,,,,,,,,,,,,,,,,,,,,,,,,,,,,,,,,,,,,,
,,,,,,,,,6672f795fac6ecd66d7b987f,6672f795fac6ecd66d7b987f,13 or older,"no, only English or Spanish",no,2025-08-12_14h57.19.123,empathy_intonation_perc,2024.2.4,Win32,59.52380952,6672f795fac6ecd66d7b987f,687ed1b7e638a4cbf2f02089,689b8d97ea8cb724c287d16c,,,,,,,,,,,,,71,0,,./stim/wavs/castilian_mismatch_declarative-broad-focus_La-nina-lava-el-plato.wav,,,,,,,,,,,,,,,,,,,,,,539.8358,542.188,1,0,1.8326,,0,81,81,70,1,0,castilian,,,,,,,,,,,,,,,,,,,,,,,,,,,,,,,,,,,,,,,,,,,,,,,,,,,,,,,,
,,,,,,,,,6672f795fac6ecd66d7b987f,6672f795fac6ecd66d7b987f,13 or older,"no, only English or Spanish",no,2025-08-12_14h57.19.123,empathy_intonation_perc,2024.2.4,Win32,59.52380952,6672f795fac6ecd66d7b987f,687ed1b7e638a4cbf2f02089,689b8d97ea8cb724c287d16c,,,,,,,,,,,,,64,0,,./stim/wavs/puertorican_match_declarative-broad-focus_Daniel-iba-a-Bolivia.wav,,,,,,,,,,,,,,,,,,,,,,542.1883,544.7578,0,1,2.0557,,0,82,82,63,1,0,puertorican,,,,,,,,,,,,,,,,,,,,,,,,,,,,,,,,,,,,,,,,,,,,,,,,,,,,,,,,
,,,,,,,,,6672f795fac6ecd66d7b987f,6672f795fac6ecd66d7b987f,13 or older,"no, only English or Spanish",no,2025-08-12_14h57.19.123,empathy_intonation_perc,2024.2.4,Win32,59.52380952,6672f795fac6ecd66d7b987f,687ed1b7e638a4cbf2f02089,689b8d97ea8cb724c287d16c,,,,,,,,,,,,,25,1,,./stim/wavs/castilian_mismatch_interrogative-total-yn_La-maestra-vive-en-Paris.wav,,,,,,,,,,,,,,,,,,,,,,544.7585,547.4765,0,0,2.196,,0,83,83,24,1,0,castilian,,,,,,,,,,,,,,,,,,,,,,,,,,,,,,,,,,,,,,,,,,,,,,,,,,,,,,,,
,,,,,,,,,6672f795fac6ecd66d7b987f,6672f795fac6ecd66d7b987f,13 or older,"no, only English or Spanish",no,2025-08-12_14h57.19.123,empathy_intonation_perc,2024.2.4,Win32,59.52380952,6672f795fac6ecd66d7b987f,687ed1b7e638a4cbf2f02089,689b8d97ea8cb724c287d16c,,,,,,,,,,,,,60,0,,./stim/wavs/mexican_match_declarative-broad-focus_Emilio-ama-la-marcha.wav,,,,,,,,,,,,,,,,,,,,,,547.4768,549.7789,1,0,1.7888,,0,84,84,59,1,0,mexican,,,,,,,,,,,,,,,,,,,,,,,,,,,,,,,,,,,,,,,,,,,,,,,,,,,,,,,,
,,,,,,,,,6672f795fac6ecd66d7b987f,6672f795fac6ecd66d7b987f,13 or older,"no, only English or Spanish",no,2025-08-12_14h57.19.123,empathy_intonation_perc,2024.2.4,Win32,59.52380952,6672f795fac6ecd66d7b987f,687ed1b7e638a4cbf2f02089,689b8d97ea8cb724c287d16c,,,,,,,,,,,,,2,1,,./stim/wavs/castilian_match_interrogative-total-yn_Emilio-ama-la-marcha.wav,,,,,,,,,,,,,,,,,,,,,,549.7791,552.031,0,0,1.7449,,0,85,85,1,1,0,castilian,,,,,,,,,,,,,,,,,,,,,,,,,,,,,,,,,,,,,,,,,,,,,,,,,,,,,,,,
,,,,,,,,,6672f795fac6ecd66d7b987f,6672f795fac6ecd66d7b987f,13 or older,"no, only English or Spanish",no,2025-08-12_14h57.19.123,empathy_intonation_perc,2024.2.4,Win32,59.52380952,6672f795fac6ecd66d7b987f,687ed1b7e638a4cbf2f02089,689b8d97ea8cb724c287d16c,,,,,,,,,,,,,37,1,,./stim/wavs/mexican_mismatch_interrogative-total-yn_La-maestra-vive-en-Paris.wav,,,,,,,,,,,,,,,,,,,,,,552.0312,554.6503,1,1,2.1105,,0,86,86,36,1,0,mexican,,,,,,,,,,,,,,,,,,,,,,,,,,,,,,,,,,,,,,,,,,,,,,,,,,,,,,,,
,,,,,,,,,6672f795fac6ecd66d7b987f,6672f795fac6ecd66d7b987f,13 or older,"no, only English or Spanish",no,2025-08-12_14h57.19.123,empathy_intonation_perc,2024.2.4,Win32,59.52380952,6672f795fac6ecd66d7b987f,687ed1b7e638a4cbf2f02089,689b8d97ea8cb724c287d16c,,,,,,,,,,,,,36,1,,./stim/wavs/mexican_mismatch_interrogative-total-yn_El-nino-oye-el-rio.wav,,,,,,,,,,,,,,,,,,,,,,554.6505,556.8525,1,1,1.6885,,0,87,87,35,1,0,mexican,,,,,,,,,,,,,,,,,,,,,,,,,,,,,,,,,,,,,,,,,,,,,,,,,,,,,,,,
,,,,,,,"Great! Now we will move on. The next task consists of about 60 trials, in each of which you will see a string of letters. 
  
  Your task is to decide whether this is a real Spanish word or not.", (press the spacebar to continue),6672f795fac6ecd66d7b987f,6672f795fac6ecd66d7b987f,13 or older,"no, only English or Spanish",no,2025-08-12_14h57.19.123,empathy_intonation_perc,2024.2.4,Win32,59.52380952,6672f795fac6ecd66d7b987f,687ed1b7e638a4cbf2f02089,689b8d97ea8cb724c287d16c,,,,,,,,,,,,,,,,,,,,,,,,,,,,,,,,,,,,,,,,,,,,,,,,,,,556.857,567.2798,0,0,0,0,1,,,,,,,,,,,,,,,,,,,,,,,,,,,,,,,,,,,,,,,,,,,,,,,,,
,,,,,,,"If you think it is an existing Spanish word, you type '1' (for 'REAL'), and if you think it is not an existing Spanish word, you type '0' (for 'FAKE').", (press the spacebar to continue),6672f795fac6ecd66d7b987f,6672f795fac6ecd66d7b987f,13 or older,"no, only English or Spanish",no,2025-08-12_14h57.19.123,empathy_intonation_perc,2024.2.4,Win32,59.52380952,6672f795fac6ecd66d7b987f,687ed1b7e638a4cbf2f02089,689b8d97ea8cb724c287d16c,,,,,,,,,,,,,,,,,,,,,,,,,,,,,,,,,,,,,,,,,,,,,,,,,,,567.2809,568.147,0,1,1,1,1,,,,,,,,,,,,,,,,,,,,,,,,,,,,,,,,,,,,,,,,,,,,,,,,,
,,,,,,,"If you are sure that the word exists, even though you don’t know its exact meaning, you may still respond '1' (REAL). 
  
  But if you are not sure if it is an existing word, you should respond '0' (FAKE).
  
  Let's do a practice round...", (press the spacebar to continue),6672f795fac6ecd66d7b987f,6672f795fac6ecd66d7b987f,13 or older,"no, only English or Spanish",no,2025-08-12_14h57.19.123,empathy_intonation_perc,2024.2.4,Win32,59.52380952,6672f795fac6ecd66d7b987f,687ed1b7e638a4cbf2f02089,689b8d97ea8cb724c287d16c,,,,,,,,,,,,,,,,,,,,,,,,,,,,,,,,,,,,,,,,,,,,,,,,,,,568.1482,572.1846,0,2,2,2,1,,,,,,,,,,,,,,,,,,,,,,,,,,,,,,,,,,,,,,,,,,,,,,,,,
,,,,,,,,,6672f795fac6ecd66d7b987f,6672f795fac6ecd66d7b987f,13 or older,"no, only English or Spanish",no,2025-08-12_14h57.19.123,empathy_intonation_perc,2024.2.4,Win32,59.52380952,6672f795fac6ecd66d7b987f,687ed1b7e638a4cbf2f02089,689b8d97ea8cb724c287d16c,,,,,,,,,,,,,,0,,,,,,,,,,,,,,,,,,,,,,,,,,,,,,,,,,,,,,,,,,,,572.189,575.9717,1,0,3.2534,,575.9718,576.9738,0,0,0,0,1,0,depiste,REAL,FAKE,,,,,,,,,,,,,,,,,,,,,,,,,,,,,,,,
,,,,,,,,,6672f795fac6ecd66d7b987f,6672f795fac6ecd66d7b987f,13 or older,"no, only English or Spanish",no,2025-08-12_14h57.19.123,empathy_intonation_perc,2024.2.4,Win32,59.52380952,6672f795fac6ecd66d7b987f,687ed1b7e638a4cbf2f02089,689b8d97ea8cb724c287d16c,,,,,,,,,,,,,,1,,,,,,,,,,,,,,,,,,,,,,,,,,,,,,,,,,,,,,,,,,,,576.9767,578.2906,1,1,0.7833,,578.2909,579.292,0,1,1,1,1,0,sí,REAL,FAKE,,,,,,,,,,,,,,,,,,,,,,,,,,,,,,,,
,,,,,,,,,6672f795fac6ecd66d7b987f,6672f795fac6ecd66d7b987f,13 or older,"no, only English or Spanish",no,2025-08-12_14h57.19.123,empathy_intonation_perc,2024.2.4,Win32,59.52380952,6672f795fac6ecd66d7b987f,687ed1b7e638a4cbf2f02089,689b8d97ea8cb724c287d16c,,,,,,,,,,,,,,0,,,,,,,,,,,,,,,,,,,,,,,,,,,,,,,,,,,,,,,,,,,,579.2934,583.012,0,1,3.2046,,583.012,584.0135,0,2,2,2,1,0,coné,REAL,FAKE,,,,,,,,,,,,,,,,,,,,,,,,,,,,,,,,
,,,,,,,,,6672f795fac6ecd66d7b987f,6672f795fac6ecd66d7b987f,13 or older,"no, only English or Spanish",no,2025-08-12_14h57.19.123,empathy_intonation_perc,2024.2.4,Win32,59.52380952,6672f795fac6ecd66d7b987f,687ed1b7e638a4cbf2f02089,689b8d97ea8cb724c287d16c,,,,,,,,,,,,,,0,,,,,,,,,,,,,,,,,,,,,,,,,,,,,,,,,,,,,,,,,,,,584.0148,590.5528,0,1,6.0131,,590.5529,591.5537,0,3,3,3,1,0,calpar,REAL,FAKE,,,,,,,,,,,,,,,,,,,,,,,,,,,,,,,,
,,,,,,,,,6672f795fac6ecd66d7b987f,6672f795fac6ecd66d7b987f,13 or older,"no, only English or Spanish",no,2025-08-12_14h57.19.123,empathy_intonation_perc,2024.2.4,Win32,59.52380952,6672f795fac6ecd66d7b987f,687ed1b7e638a4cbf2f02089,689b8d97ea8cb724c287d16c,,,,,,,,,,,,,,0,,,,,,,,,,,,,,,,,,,,,,,,,,,,,,,,,,,,,,,,,,,,591.5548,593.3222,0,1,1.2506,,593.3222,594.3233,0,4,4,4,1,0,joten,REAL,FAKE,,,,,,,,,,,,,,,,,,,,,,,,,,,,,,,,
,,,,,,,,,6672f795fac6ecd66d7b987f,6672f795fac6ecd66d7b987f,13 or older,"no, only English or Spanish",no,2025-08-12_14h57.19.123,empathy_intonation_perc,2024.2.4,Win32,59.52380952,6672f795fac6ecd66d7b987f,687ed1b7e638a4cbf2f02089,689b8d97ea8cb724c287d16c,,,,,,,,,,,,,,1,,,,,,,,,,,,,,,,,,,,,,,,,,,,,,,,,,,,,,,,,,,,594.324,596.0756,1,1,1.2413,,596.0758,597.0759,0,5,5,5,1,0,sacapuntas,REAL,FAKE,,,,,,,,,,,,,,,,,,,,,,,,,,,,,,,,
,,,,,,,,,6672f795fac6ecd66d7b987f,6672f795fac6ecd66d7b987f,13 or older,"no, only English or Spanish",no,2025-08-12_14h57.19.123,empathy_intonation_perc,2024.2.4,Win32,59.52380952,6672f795fac6ecd66d7b987f,687ed1b7e638a4cbf2f02089,689b8d97ea8cb724c287d16c,,,,,,,,,,,,,,0,,,,,,,,,,,,,,,,,,,,,,,,,,,,,,,,,,,,,,,,,,,,597.0767,602.7317,0,1,5.1404,,602.7317,603.7325,0,6,6,6,1,0,priba,REAL,FAKE,,,,,,,,,,,,,,,,,,,,,,,,,,,,,,,,
,,,,,,,,,6672f795fac6ecd66d7b987f,6672f795fac6ecd66d7b987f,13 or older,"no, only English or Spanish",no,2025-08-12_14h57.19.123,empathy_intonation_perc,2024.2.4,Win32,59.52380952,6672f795fac6ecd66d7b987f,687ed1b7e638a4cbf2f02089,689b8d97ea8cb724c287d16c,,,,,,,,,,,,,,0,,,,,,,,,,,,,,,,,,,,,,,,,,,,,,,,,,,,,,,,,,,,603.7332,606.0848,1,0,1.8442,,606.0853,607.0866,0,7,7,7,1,0,pelasula,REAL,FAKE,,,,,,,,,,,,,,,,,,,,,,,,,,,,,,,,
,,,,,,,,,6672f795fac6ecd66d7b987f,6672f795fac6ecd66d7b987f,13 or older,"no, only English or Spanish",no,2025-08-12_14h57.19.123,empathy_intonation_perc,2024.2.4,Win32,59.52380952,6672f795fac6ecd66d7b987f,687ed1b7e638a4cbf2f02089,689b8d97ea8cb724c287d16c,,,,,,,,,,,,,,1,,,,,,,,,,,,,,,,,,,,,,,,,,,,,,,,,,,,,,,,,,,,607.0882,609.0546,1,1,1.4287,,609.055,610.0562,0,8,8,8,1,0,bien,REAL,FAKE,,,,,,,,,,,,,,,,,,,,,,,,,,,,,,,,
,,,,,,,,,6672f795fac6ecd66d7b987f,6672f795fac6ecd66d7b987f,13 or older,"no, only English or Spanish",no,2025-08-12_14h57.19.123,empathy_intonation_perc,2024.2.4,Win32,59.52380952,6672f795fac6ecd66d7b987f,687ed1b7e638a4cbf2f02089,689b8d97ea8cb724c287d16c,,,,,,,,,,,,,,1,,,,,,,,,,,,,,,,,,,,,,,,,,,,,,,,,,,,,,,,,,,,610.0578,617.2461,1,1,6.6556,,617.2461,618.2471,0,9,9,9,1,0,casa,REAL,FAKE,,,,,,,,,,,,,,,,,,,,,,,,,,,,,,,,
,,,,,,,,,6672f795fac6ecd66d7b987f,6672f795fac6ecd66d7b987f,13 or older,"no, only English or Spanish",no,2025-08-12_14h57.19.123,empathy_intonation_perc,2024.2.4,Win32,59.52380952,6672f795fac6ecd66d7b987f,687ed1b7e638a4cbf2f02089,689b8d97ea8cb724c287d16c,,,,,,,,,,,,,,0,,,,,,,,,,,,,,,,,,,,,,,,,,,,,,,,,,,,,,,,,,,,618.2475,619.4649,1,0,0.707,,619.4652,620.466,0,10,10,10,1,0,lejo,REAL,FAKE,,,,,,,,,,,,,,,,,,,,,,,,,,,,,,,,
,,,,,,,,,6672f795fac6ecd66d7b987f,6672f795fac6ecd66d7b987f,13 or older,"no, only English or Spanish",no,2025-08-12_14h57.19.123,empathy_intonation_perc,2024.2.4,Win32,59.52380952,6672f795fac6ecd66d7b987f,687ed1b7e638a4cbf2f02089,689b8d97ea8cb724c287d16c,,,,,,,,,,,,,,0,,,,,,,,,,,,,,,,,,,,,,,,,,,,,,,,,,,,,,,,,,,,620.4664,621.7505,1,0,0.7661,,621.7505,622.7515,0,11,11,11,1,0,pretantas,REAL,FAKE,,,,,,,,,,,,,,,,,,,,,,,,,,,,,,,,
,,,,,,,,,6672f795fac6ecd66d7b987f,6672f795fac6ecd66d7b987f,13 or older,"no, only English or Spanish",no,2025-08-12_14h57.19.123,empathy_intonation_perc,2024.2.4,Win32,59.52380952,6672f795fac6ecd66d7b987f,687ed1b7e638a4cbf2f02089,689b8d97ea8cb724c287d16c,,,,,,,,,,,,,,,,,,,,,,,,,,,,,,,,,,,,,,,,,,,,,,,,,,,,,,,,,,,,,,,,,,,,,,,,,,,622.7517,624.3534,,,,,,,,,,,,,,,,,,,,,,,,,,,,,,
,,,,,,,,,6672f795fac6ecd66d7b987f,6672f795fac6ecd66d7b987f,13 or older,"no, only English or Spanish",no,2025-08-12_14h57.19.123,empathy_intonation_perc,2024.2.4,Win32,59.52380952,6672f795fac6ecd66d7b987f,687ed1b7e638a4cbf2f02089,689b8d97ea8cb724c287d16c,,,,,,,,,,,,,,0,,,,,,,,,,,,,,,,,,,,,,,,,,,,,,,,,,,,,,,,,,,,,,,,,,,,,,,,,42,cadallo,,,,,624.3633,625.7713,1,0,0.8884,,0,0,0,41,1,REAL,FAKE,,,,,,,,,,,,,,,,,
,,,,,,,,,6672f795fac6ecd66d7b987f,6672f795fac6ecd66d7b987f,13 or older,"no, only English or Spanish",no,2025-08-12_14h57.19.123,empathy_intonation_perc,2024.2.4,Win32,59.52380952,6672f795fac6ecd66d7b987f,687ed1b7e638a4cbf2f02089,689b8d97ea8cb724c287d16c,,,,,,,,,,,,,,1,,,,,,,,,,,,,,,,,,,,,,,,,,,,,,,,,,,,,,,,,,,,,,,,,,,,,,,,,85,laúd,,,,,625.7721,627.5729,1,1,1.2843,,0,1,1,84,1,REAL,FAKE,,,,,,,,,,,,,,,,,
,,,,,,,,,6672f795fac6ecd66d7b987f,6672f795fac6ecd66d7b987f,13 or older,"no, only English or Spanish",no,2025-08-12_14h57.19.123,empathy_intonation_perc,2024.2.4,Win32,59.52380952,6672f795fac6ecd66d7b987f,687ed1b7e638a4cbf2f02089,689b8d97ea8cb724c287d16c,,,,,,,,,,,,,,1,,,,,,,,,,,,,,,,,,,,,,,,,,,,,,,,,,,,,,,,,,,,,,,,,,,,,,,,,41,rebuscar,,,,,627.5735,629.258,0,0,1.1666,,0,2,2,40,1,REAL,FAKE,,,,,,,,,,,,,,,,,
,,,,,,,,,6672f795fac6ecd66d7b987f,6672f795fac6ecd66d7b987f,13 or older,"no, only English or Spanish",no,2025-08-12_14h57.19.123,empathy_intonation_perc,2024.2.4,Win32,59.52380952,6672f795fac6ecd66d7b987f,687ed1b7e638a4cbf2f02089,689b8d97ea8cb724c287d16c,,,,,,,,,,,,,,0,,,,,,,,,,,,,,,,,,,,,,,,,,,,,,,,,,,,,,,,,,,,,,,,,,,,,,,,,63,esposante,,,,,629.2585,630.7429,0,1,0.9685,,0,3,3,62,1,REAL,FAKE,,,,,,,,,,,,,,,,,
,,,,,,,,,6672f795fac6ecd66d7b987f,6672f795fac6ecd66d7b987f,13 or older,"no, only English or Spanish",no,2025-08-12_14h57.19.123,empathy_intonation_perc,2024.2.4,Win32,59.52380952,6672f795fac6ecd66d7b987f,687ed1b7e638a4cbf2f02089,689b8d97ea8cb724c287d16c,,,,,,,,,,,,,,1,,,,,,,,,,,,,,,,,,,,,,,,,,,,,,,,,,,,,,,,,,,,,,,,,,,,,,,,,91,click the 1 key.,,,,,630.7436,632.3613,1,1,1.1018,,0,4,4,90,1,REAL,FAKE,,,,,,,,,,,,,,,,,
,,,,,,,,,6672f795fac6ecd66d7b987f,6672f795fac6ecd66d7b987f,13 or older,"no, only English or Spanish",no,2025-08-12_14h57.19.123,empathy_intonation_perc,2024.2.4,Win32,59.52380952,6672f795fac6ecd66d7b987f,687ed1b7e638a4cbf2f02089,689b8d97ea8cb724c287d16c,,,,,,,,,,,,,,1,,,,,,,,,,,,,,,,,,,,,,,,,,,,,,,,,,,,,,,,,,,,,,,,,,,,,,,,,83,guante,,,,,632.3617,635.1472,0,0,2.2631,,0,5,5,82,1,REAL,FAKE,,,,,,,,,,,,,,,,,
,,,,,,,,,6672f795fac6ecd66d7b987f,6672f795fac6ecd66d7b987f,13 or older,"no, only English or Spanish",no,2025-08-12_14h57.19.123,empathy_intonation_perc,2024.2.4,Win32,59.52380952,6672f795fac6ecd66d7b987f,687ed1b7e638a4cbf2f02089,689b8d97ea8cb724c287d16c,,,,,,,,,,,,,,1,,,,,,,,,,,,,,,,,,,,,,,,,,,,,,,,,,,,,,,,,,,,,,,,,,,,,,,,,86,barato,,,,,635.1477,636.949,0,0,1.2922,,0,6,6,85,1,REAL,FAKE,,,,,,,,,,,,,,,,,
,,,,,,,,,6672f795fac6ecd66d7b987f,6672f795fac6ecd66d7b987f,13 or older,"no, only English or Spanish",no,2025-08-12_14h57.19.123,empathy_intonation_perc,2024.2.4,Win32,59.52380952,6672f795fac6ecd66d7b987f,687ed1b7e638a4cbf2f02089,689b8d97ea8cb724c287d16c,,,,,,,,,,,,,,1,,,,,,,,,,,,,,,,,,,,,,,,,,,,,,,,,,,,,,,,,,,,,,,,,,,,,,,,,80,hormiga,,,,,636.9496,638.4003,0,0,0.9425,,0,7,7,79,1,REAL,FAKE,,,,,,,,,,,,,,,,,
,,,,,,,,,6672f795fac6ecd66d7b987f,6672f795fac6ecd66d7b987f,13 or older,"no, only English or Spanish",no,2025-08-12_14h57.19.123,empathy_intonation_perc,2024.2.4,Win32,59.52380952,6672f795fac6ecd66d7b987f,687ed1b7e638a4cbf2f02089,689b8d97ea8cb724c287d16c,,,,,,,,,,,,,,1,,,,,,,,,,,,,,,,,,,,,,,,,,,,,,,,,,,,,,,,,,,,,,,,,,,,,,,,,73,hervidor,,,,,638.4011,640.0022,1,1,1.0837,,0,8,8,72,1,REAL,FAKE,,,,,,,,,,,,,,,,,
,,,,,,,,,6672f795fac6ecd66d7b987f,6672f795fac6ecd66d7b987f,13 or older,"no, only English or Spanish",no,2025-08-12_14h57.19.123,empathy_intonation_perc,2024.2.4,Win32,59.52380952,6672f795fac6ecd66d7b987f,687ed1b7e638a4cbf2f02089,689b8d97ea8cb724c287d16c,,,,,,,,,,,,,,1,,,,,,,,,,,,,,,,,,,,,,,,,,,,,,,,,,,,,,,,,,,,,,,,,,,,,,,,,39,torpe,,,,,640.0026,641.5371,1,1,1.0243,,0,9,9,38,1,REAL,FAKE,,,,,,,,,,,,,,,,,
,,,,,,,,,6672f795fac6ecd66d7b987f,6672f795fac6ecd66d7b987f,13 or older,"no, only English or Spanish",no,2025-08-12_14h57.19.123,empathy_intonation_perc,2024.2.4,Win32,59.52380952,6672f795fac6ecd66d7b987f,687ed1b7e638a4cbf2f02089,689b8d97ea8cb724c287d16c,,,,,,,,,,,,,,0,,,,,,,,,,,,,,,,,,,,,,,,,,,,,,,,,,,,,,,,,,,,,,,,,,,,,,,,,4,batillón,,,,,641.5379,643.1217,1,0,1.0685,,0,10,10,3,1,REAL,FAKE,,,,,,,,,,,,,,,,,
,,,,,,,,,6672f795fac6ecd66d7b987f,6672f795fac6ecd66d7b987f,13 or older,"no, only English or Spanish",no,2025-08-12_14h57.19.123,empathy_intonation_perc,2024.2.4,Win32,59.52380952,6672f795fac6ecd66d7b987f,687ed1b7e638a4cbf2f02089,689b8d97ea8cb724c287d16c,,,,,,,,,,,,,,1,,,,,,,,,,,,,,,,,,,,,,,,,,,,,,,,,,,,,,,,,,,,,,,,,,,,,,,,,37,granuja,,,,,643.1224,644.9236,1,1,1.2875,,0,11,11,36,1,REAL,FAKE,,,,,,,,,,,,,,,,,
,,,,,,,,,6672f795fac6ecd66d7b987f,6672f795fac6ecd66d7b987f,13 or older,"no, only English or Spanish",no,2025-08-12_14h57.19.123,empathy_intonation_perc,2024.2.4,Win32,59.52380952,6672f795fac6ecd66d7b987f,687ed1b7e638a4cbf2f02089,689b8d97ea8cb724c287d16c,,,,,,,,,,,,,,1,,,,,,,,,,,,,,,,,,,,,,,,,,,,,,,,,,,,,,,,,,,,,,,,,,,,,,,,,36,loro,,,,,644.9241,646.1248,0,0,0.6828,,0,12,12,35,1,REAL,FAKE,,,,,,,,,,,,,,,,,
,,,,,,,,,6672f795fac6ecd66d7b987f,6672f795fac6ecd66d7b987f,13 or older,"no, only English or Spanish",no,2025-08-12_14h57.19.123,empathy_intonation_perc,2024.2.4,Win32,59.52380952,6672f795fac6ecd66d7b987f,687ed1b7e638a4cbf2f02089,689b8d97ea8cb724c287d16c,,,,,,,,,,,,,,1,,,,,,,,,,,,,,,,,,,,,,,,,,,,,,,,,,,,,,,,,,,,,,,,,,,,,,,,,9,hacha,,,,,646.1252,647.5595,1,1,0.9161,,0,13,13,8,1,REAL,FAKE,,,,,,,,,,,,,,,,,
,,,,,,,,,6672f795fac6ecd66d7b987f,6672f795fac6ecd66d7b987f,13 or older,"no, only English or Spanish",no,2025-08-12_14h57.19.123,empathy_intonation_perc,2024.2.4,Win32,59.52380952,6672f795fac6ecd66d7b987f,687ed1b7e638a4cbf2f02089,689b8d97ea8cb724c287d16c,,,,,,,,,,,,,,0,,,,,,,,,,,,,,,,,,,,,,,,,,,,,,,,,,,,,,,,,,,,,,,,,,,,,,,,,74,cintro,,,,,647.5601,648.9444,1,0,0.867,,0,14,14,73,1,REAL,FAKE,,,,,,,,,,,,,,,,,
,,,,,,,,,6672f795fac6ecd66d7b987f,6672f795fac6ecd66d7b987f,13 or older,"no, only English or Spanish",no,2025-08-12_14h57.19.123,empathy_intonation_perc,2024.2.4,Win32,59.52380952,6672f795fac6ecd66d7b987f,687ed1b7e638a4cbf2f02089,689b8d97ea8cb724c287d16c,,,,,,,,,,,,,,0,,,,,,,,,,,,,,,,,,,,,,,,,,,,,,,,,,,,,,,,,,,,,,,,,,,,,,,,,27,acutación,,,,,648.9448,651.1131,1,0,1.6583,,0,15,15,26,1,REAL,FAKE,,,,,,,,,,,,,,,,,
,,,,,,,,,6672f795fac6ecd66d7b987f,6672f795fac6ecd66d7b987f,13 or older,"no, only English or Spanish",no,2025-08-12_14h57.19.123,empathy_intonation_perc,2024.2.4,Win32,59.52380952,6672f795fac6ecd66d7b987f,687ed1b7e638a4cbf2f02089,689b8d97ea8cb724c287d16c,,,,,,,,,,,,,,1,,,,,,,,,,,,,,,,,,,,,,,,,,,,,,,,,,,,,,,,,,,,,,,,,,,,,,,,,11,cenefa,,,,,651.1138,652.4145,0,0,0.7902,,0,16,16,10,1,REAL,FAKE,,,,,,,,,,,,,,,,,
,,,,,,,,,6672f795fac6ecd66d7b987f,6672f795fac6ecd66d7b987f,13 or older,"no, only English or Spanish",no,2025-08-12_14h57.19.123,empathy_intonation_perc,2024.2.4,Win32,59.52380952,6672f795fac6ecd66d7b987f,687ed1b7e638a4cbf2f02089,689b8d97ea8cb724c287d16c,,,,,,,,,,,,,,1,,,,,,,,,,,,,,,,,,,,,,,,,,,,,,,,,,,,,,,,,,,,,,,,,,,,,,,,,71,polvoriento,,,,,652.415,653.8659,0,0,0.9342,,0,17,17,70,1,REAL,FAKE,,,,,,,,,,,,,,,,,
,,,,,,,,,6672f795fac6ecd66d7b987f,6672f795fac6ecd66d7b987f,13 or older,"no, only English or Spanish",no,2025-08-12_14h57.19.123,empathy_intonation_perc,2024.2.4,Win32,59.52380952,6672f795fac6ecd66d7b987f,687ed1b7e638a4cbf2f02089,689b8d97ea8cb724c287d16c,,,,,,,,,,,,,,1,,,,,,,,,,,,,,,,,,,,,,,,,,,,,,,,,,,,,,,,,,,,,,,,,,,,,,,,,56,musgo,,,,,653.8664,655.4172,0,0,1.0418,,0,18,18,55,1,REAL,FAKE,,,,,,,,,,,,,,,,,
,,,,,,,,,6672f795fac6ecd66d7b987f,6672f795fac6ecd66d7b987f,13 or older,"no, only English or Spanish",no,2025-08-12_14h57.19.123,empathy_intonation_perc,2024.2.4,Win32,59.52380952,6672f795fac6ecd66d7b987f,687ed1b7e638a4cbf2f02089,689b8d97ea8cb724c287d16c,,,,,,,,,,,,,,0,,,,,,,,,,,,,,,,,,,,,,,,,,,,,,,,,,,,,,,,,,,,,,,,,,,,,,,,,72,pemición,,,,,655.4178,656.9187,1,0,0.9853,,0,19,19,71,1,REAL,FAKE,,,,,,,,,,,,,,,,,
,,,,,,,,,6672f795fac6ecd66d7b987f,6672f795fac6ecd66d7b987f,13 or older,"no, only English or Spanish",no,2025-08-12_14h57.19.123,empathy_intonation_perc,2024.2.4,Win32,59.52380952,6672f795fac6ecd66d7b987f,687ed1b7e638a4cbf2f02089,689b8d97ea8cb724c287d16c,,,,,,,,,,,,,,1,,,,,,,,,,,,,,,,,,,,,,,,,,,,,,,,,,,,,,,,,,,,,,,,,,,,,,,,,46,martillo,,,,,656.9192,658.4872,0,0,1.0595,,0,20,20,45,1,REAL,FAKE,,,,,,,,,,,,,,,,,
,,,,,,,,,6672f795fac6ecd66d7b987f,6672f795fac6ecd66d7b987f,13 or older,"no, only English or Spanish",no,2025-08-12_14h57.19.123,empathy_intonation_perc,2024.2.4,Win32,59.52380952,6672f795fac6ecd66d7b987f,687ed1b7e638a4cbf2f02089,689b8d97ea8cb724c287d16c,,,,,,,,,,,,,,0,,,,,,,,,,,,,,,,,,,,,,,,,,,,,,,,,,,,,,,,,,,,,,,,,,,,,,,,,19,brecedad,,,,,658.4877,660.1387,0,1,1.1388,,0,21,21,18,1,REAL,FAKE,,,,,,,,,,,,,,,,,
,,,,,,,,,6672f795fac6ecd66d7b987f,6672f795fac6ecd66d7b987f,13 or older,"no, only English or Spanish",no,2025-08-12_14h57.19.123,empathy_intonation_perc,2024.2.4,Win32,59.52380952,6672f795fac6ecd66d7b987f,687ed1b7e638a4cbf2f02089,689b8d97ea8cb724c287d16c,,,,,,,,,,,,,,1,,,,,,,,,,,,,,,,,,,,,,,,,,,,,,,,,,,,,,,,,,,,,,,,,,,,,,,,,88,acantilado,,,,,660.1392,664.7099,1,1,4.0603,,0,22,22,87,1,REAL,FAKE,,,,,,,,,,,,,,,,,
,,,,,,,,,6672f795fac6ecd66d7b987f,6672f795fac6ecd66d7b987f,13 or older,"no, only English or Spanish",no,2025-08-12_14h57.19.123,empathy_intonation_perc,2024.2.4,Win32,59.52380952,6672f795fac6ecd66d7b987f,687ed1b7e638a4cbf2f02089,689b8d97ea8cb724c287d16c,,,,,,,,,,,,,,1,,,,,,,,,,,,,,,,,,,,,,,,,,,,,,,,,,,,,,,,,,,,,,,,,,,,,,,,,48,ladrón,,,,,664.7105,668.9642,0,0,3.7358,,0,23,23,47,1,REAL,FAKE,,,,,,,,,,,,,,,,,
,,,,,,,,,6672f795fac6ecd66d7b987f,6672f795fac6ecd66d7b987f,13 or older,"no, only English or Spanish",no,2025-08-12_14h57.19.123,empathy_intonation_perc,2024.2.4,Win32,59.52380952,6672f795fac6ecd66d7b987f,687ed1b7e638a4cbf2f02089,689b8d97ea8cb724c287d16c,,,,,,,,,,,,,,1,,,,,,,,,,,,,,,,,,,,,,,,,,,,,,,,,,,,,,,,,,,,,,,,,,,,,,,,,12,asesinato,,,,,668.9649,670.983,0,0,1.5024,,0,24,24,11,1,REAL,FAKE,,,,,,,,,,,,,,,,,
,,,,,,,,,6672f795fac6ecd66d7b987f,6672f795fac6ecd66d7b987f,13 or older,"no, only English or Spanish",no,2025-08-12_14h57.19.123,empathy_intonation_perc,2024.2.4,Win32,59.52380952,6672f795fac6ecd66d7b987f,687ed1b7e638a4cbf2f02089,689b8d97ea8cb724c287d16c,,,,,,,,,,,,,,1,,,,,,,,,,,,,,,,,,,,,,,,,,,,,,,,,,,,,,,,,,,,,,,,,,,,,,,,,13,helar,,,,,670.9838,674.2696,0,0,2.7568,,0,25,25,12,1,REAL,FAKE,,,,,,,,,,,,,,,,,
,,,,,,,,,6672f795fac6ecd66d7b987f,6672f795fac6ecd66d7b987f,13 or older,"no, only English or Spanish",no,2025-08-12_14h57.19.123,empathy_intonation_perc,2024.2.4,Win32,59.52380952,6672f795fac6ecd66d7b987f,687ed1b7e638a4cbf2f02089,689b8d97ea8cb724c287d16c,,,,,,,,,,,,,,0,,,,,,,,,,,,,,,,,,,,,,,,,,,,,,,,,,,,,,,,,,,,,,,,,,,,,,,,,23,lampera,,,,,674.2703,677.239,0,1,2.4568,,0,26,26,22,1,REAL,FAKE,,,,,,,,,,,,,,,,,
,,,,,,,,,6672f795fac6ecd66d7b987f,6672f795fac6ecd66d7b987f,13 or older,"no, only English or Spanish",no,2025-08-12_14h57.19.123,empathy_intonation_perc,2024.2.4,Win32,59.52380952,6672f795fac6ecd66d7b987f,687ed1b7e638a4cbf2f02089,689b8d97ea8cb724c287d16c,,,,,,,,,,,,,,0,,,,,,,,,,,,,,,,,,,,,,,,,,,,,,,,,,,,,,,,,,,,,,,,,,,,,,,,,21,capillo,,,,,677.2395,679.9918,0,1,2.2368,,0,27,27,20,1,REAL,FAKE,,,,,,,,,,,,,,,,,
,,,,,,,,,6672f795fac6ecd66d7b987f,6672f795fac6ecd66d7b987f,13 or older,"no, only English or Spanish",no,2025-08-12_14h57.19.123,empathy_intonation_perc,2024.2.4,Win32,59.52380952,6672f795fac6ecd66d7b987f,687ed1b7e638a4cbf2f02089,689b8d97ea8cb724c287d16c,,,,,,,,,,,,,,1,,,,,,,,,,,,,,,,,,,,,,,,,,,,,,,,,,,,,,,,,,,,,,,,,,,,,,,,,26,secuestro,,,,,679.9924,684.4965,0,0,3.989,,0,28,28,25,1,REAL,FAKE,,,,,,,,,,,,,,,,,
,,,,,,,,,6672f795fac6ecd66d7b987f,6672f795fac6ecd66d7b987f,13 or older,"no, only English or Spanish",no,2025-08-12_14h57.19.123,empathy_intonation_perc,2024.2.4,Win32,59.52380952,6672f795fac6ecd66d7b987f,687ed1b7e638a4cbf2f02089,689b8d97ea8cb724c287d16c,,,,,,,,,,,,,,1,,,,,,,,,,,,,,,,,,,,,,,,,,,,,,,,,,,,,,,,,,,,,,,,,,,,,,,,,55,nevar,,,,,684.4975,686.5316,1,1,1.5011,,0,29,29,54,1,REAL,FAKE,,,,,,,,,,,,,,,,,
,,,,,,,,,6672f795fac6ecd66d7b987f,6672f795fac6ecd66d7b987f,13 or older,"no, only English or Spanish",no,2025-08-12_14h57.19.123,empathy_intonation_perc,2024.2.4,Win32,59.52380952,6672f795fac6ecd66d7b987f,687ed1b7e638a4cbf2f02089,689b8d97ea8cb724c287d16c,,,,,,,,,,,,,,1,,,,,,,,,,,,,,,,,,,,,,,,,,,,,,,,,,,,,,,,,,,,,,,,,,,,,,,,,45,jilguero,,,,,686.5323,691.7035,0,0,4.6503,,0,30,30,44,1,REAL,FAKE,,,,,,,,,,,,,,,,,
,,,,,,,,,6672f795fac6ecd66d7b987f,6672f795fac6ecd66d7b987f,13 or older,"no, only English or Spanish",no,2025-08-12_14h57.19.123,empathy_intonation_perc,2024.2.4,Win32,59.52380952,6672f795fac6ecd66d7b987f,687ed1b7e638a4cbf2f02089,689b8d97ea8cb724c287d16c,,,,,,,,,,,,,,0,,,,,,,,,,,,,,,,,,,,,,,,,,,,,,,,,,,,,,,,,,,,,,,,,,,,,,,,,29,decar,,,,,691.704,695.0568,1,0,2.8321,,0,31,31,28,1,REAL,FAKE,,,,,,,,,,,,,,,,,
,,,,,,,,,6672f795fac6ecd66d7b987f,6672f795fac6ecd66d7b987f,13 or older,"no, only English or Spanish",no,2025-08-12_14h57.19.123,empathy_intonation_perc,2024.2.4,Win32,59.52380952,6672f795fac6ecd66d7b987f,687ed1b7e638a4cbf2f02089,689b8d97ea8cb724c287d16c,,,,,,,,,,,,,,0,,,,,,,,,,,,,,,,,,,,,,,,,,,,,,,,,,,,,,,,,,,,,,,,,,,,,,,,,82,empirador,,,,,695.0573,700.2787,1,0,4.7071,,0,32,32,81,1,REAL,FAKE,,,,,,,,,,,,,,,,,
,,,,,,,,,6672f795fac6ecd66d7b987f,6672f795fac6ecd66d7b987f,13 or older,"no, only English or Spanish",no,2025-08-12_14h57.19.123,empathy_intonation_perc,2024.2.4,Win32,59.52380952,6672f795fac6ecd66d7b987f,687ed1b7e638a4cbf2f02089,689b8d97ea8cb724c287d16c,,,,,,,,,,,,,,1,,,,,,,,,,,,,,,,,,,,,,,,,,,,,,,,,,,,,,,,,,,,,,,,,,,,,,,,,20,ávido,,,,,700.2796,704.1159,1,1,3.3187,,0,33,33,19,1,REAL,FAKE,,,,,,,,,,,,,,,,,
,,,,,,,,,6672f795fac6ecd66d7b987f,6672f795fac6ecd66d7b987f,13 or older,"no, only English or Spanish",no,2025-08-12_14h57.19.123,empathy_intonation_perc,2024.2.4,Win32,59.52380952,6672f795fac6ecd66d7b987f,687ed1b7e638a4cbf2f02089,689b8d97ea8cb724c287d16c,,,,,,,,,,,,,,1,,,,,,,,,,,,,,,,,,,,,,,,,,,,,,,,,,,,,,,,,,,,,,,,,,,,,,,,,69,engatusar,,,,,704.1164,712.0404,0,0,7.4075,,0,34,34,68,1,REAL,FAKE,,,,,,,,,,,,,,,,,
,,,,,,,,,6672f795fac6ecd66d7b987f,6672f795fac6ecd66d7b987f,13 or older,"no, only English or Spanish",no,2025-08-12_14h57.19.123,empathy_intonation_perc,2024.2.4,Win32,59.52380952,6672f795fac6ecd66d7b987f,687ed1b7e638a4cbf2f02089,689b8d97ea8cb724c287d16c,,,,,,,,,,,,,,1,,,,,,,,,,,,,,,,,,,,,,,,,,,,,,,,,,,,,,,,,,,,,,,,,,,,,,,,,52,camisa,,,,,712.0409,717.112,1,1,4.5613,,0,35,35,51,1,REAL,FAKE,,,,,,,,,,,,,,,,,
,,,,,,,,,6672f795fac6ecd66d7b987f,6672f795fac6ecd66d7b987f,13 or older,"no, only English or Spanish",no,2025-08-12_14h57.19.123,empathy_intonation_perc,2024.2.4,Win32,59.52380952,6672f795fac6ecd66d7b987f,687ed1b7e638a4cbf2f02089,689b8d97ea8cb724c287d16c,,,,,,,,,,,,,,1,,,,,,,,,,,,,,,,,,,,,,,,,,,,,,,,,,,,,,,,,,,,,,,,,,,,,,,,,60,matar,,,,,717.1126,720.4488,1,1,2.8209,,0,36,36,59,1,REAL,FAKE,,,,,,,,,,,,,,,,,
,,,,,,,,,6672f795fac6ecd66d7b987f,6672f795fac6ecd66d7b987f,13 or older,"no, only English or Spanish",no,2025-08-12_14h57.19.123,empathy_intonation_perc,2024.2.4,Win32,59.52380952,6672f795fac6ecd66d7b987f,687ed1b7e638a4cbf2f02089,689b8d97ea8cb724c287d16c,,,,,,,,,,,,,,1,,,,,,,,,,,,,,,,,,,,,,,,,,,,,,,,,,,,,,,,,,,,,,,,,,,,,,,,,5,zapato,,,,,720.4496,722.3674,1,1,1.4013,,0,37,37,4,1,REAL,FAKE,,,,,,,,,,,,,,,,,
,,,,,,,,,6672f795fac6ecd66d7b987f,6672f795fac6ecd66d7b987f,13 or older,"no, only English or Spanish",no,2025-08-12_14h57.19.123,empathy_intonation_perc,2024.2.4,Win32,59.52380952,6672f795fac6ecd66d7b987f,687ed1b7e638a4cbf2f02089,689b8d97ea8cb724c287d16c,,,,,,,,,,,,,,1,,,,,,,,,,,,,,,,,,,,,,,,,,,,,,,,,,,,,,,,,,,,,,,,,,,,,,,,,76,atar,,,,,722.3683,726.1379,1,1,3.2533,,0,38,38,75,1,REAL,FAKE,,,,,,,,,,,,,,,,,
,,,,,,,,,6672f795fac6ecd66d7b987f,6672f795fac6ecd66d7b987f,13 or older,"no, only English or Spanish",no,2025-08-12_14h57.19.123,empathy_intonation_perc,2024.2.4,Win32,59.52380952,6672f795fac6ecd66d7b987f,687ed1b7e638a4cbf2f02089,689b8d97ea8cb724c287d16c,,,,,,,,,,,,,,0,,,,,,,,,,,,,,,,,,,,,,,,,,,,,,,,,,,,,,,,,,,,,,,,,,,,,,,,,16,abracer,,,,,726.1385,729.1412,1,0,2.4946,,0,39,39,15,1,REAL,FAKE,,,,,,,,,,,,,,,,,
,,,,,,,,,6672f795fac6ecd66d7b987f,6672f795fac6ecd66d7b987f,13 or older,"no, only English or Spanish",no,2025-08-12_14h57.19.123,empathy_intonation_perc,2024.2.4,Win32,59.52380952,6672f795fac6ecd66d7b987f,687ed1b7e638a4cbf2f02089,689b8d97ea8cb724c287d16c,,,,,,,,,,,,,,1,,,,,,,,,,,,,,,,,,,,,,,,,,,,,,,,,,,,,,,,,,,,,,,,,,,,,,,,,78,frondoso,,,,,729.1418,731.8936,0,0,2.2276,,0,40,40,77,1,REAL,FAKE,,,,,,,,,,,,,,,,,
,,,,,,,,,6672f795fac6ecd66d7b987f,6672f795fac6ecd66d7b987f,13 or older,"no, only English or Spanish",no,2025-08-12_14h57.19.123,empathy_intonation_perc,2024.2.4,Win32,59.52380952,6672f795fac6ecd66d7b987f,687ed1b7e638a4cbf2f02089,689b8d97ea8cb724c287d16c,,,,,,,,,,,,,,1,,,,,,,,,,,,,,,,,,,,,,,,,,,,,,,,,,,,,,,,,,,,,,,,,,,,,,,,,2,pellizcar,,,,,731.8941,734.6297,0,0,2.2193,,0,41,41,1,1,REAL,FAKE,,,,,,,,,,,,,,,,,
,,,,,,,,,6672f795fac6ecd66d7b987f,6672f795fac6ecd66d7b987f,13 or older,"no, only English or Spanish",no,2025-08-12_14h57.19.123,empathy_intonation_perc,2024.2.4,Win32,59.52380952,6672f795fac6ecd66d7b987f,687ed1b7e638a4cbf2f02089,689b8d97ea8cb724c287d16c,,,,,,,,,,,,,,1,,,,,,,,,,,,,,,,,,,,,,,,,,,,,,,,,,,,,,,,,,,,,,,,,,,,,,,,,28,merodear,,,,,734.6302,738.6837,1,1,3.5377,,0,42,42,27,1,REAL,FAKE,,,,,,,,,,,,,,,,,
,,,,,,,,,6672f795fac6ecd66d7b987f,6672f795fac6ecd66d7b987f,13 or older,"no, only English or Spanish",no,2025-08-12_14h57.19.123,empathy_intonation_perc,2024.2.4,Win32,59.52380952,6672f795fac6ecd66d7b987f,687ed1b7e638a4cbf2f02089,689b8d97ea8cb724c287d16c,,,,,,,,,,,,,,0,,,,,,,,,,,,,,,,,,,,,,,,,,,,,,,,,,,,,,,,,,,,,,,,,,,,,,,,,70,temblo,,,,,738.6844,740.1685,0,1,0.9684,,0,43,43,69,1,REAL,FAKE,,,,,,,,,,,,,,,,,
,,,,,,,,,6672f795fac6ecd66d7b987f,6672f795fac6ecd66d7b987f,13 or older,"no, only English or Spanish",no,2025-08-12_14h57.19.123,empathy_intonation_perc,2024.2.4,Win32,59.52380952,6672f795fac6ecd66d7b987f,687ed1b7e638a4cbf2f02089,689b8d97ea8cb724c287d16c,,,,,,,,,,,,,,0,,,,,,,,,,,,,,,,,,,,,,,,,,,,,,,,,,,,,,,,,,,,,,,,,,,,,,,,,18,arsa,,,,,740.1689,741.5532,1,0,0.8621,,0,44,44,17,1,REAL,FAKE,,,,,,,,,,,,,,,,,
,,,,,,,,,6672f795fac6ecd66d7b987f,6672f795fac6ecd66d7b987f,13 or older,"no, only English or Spanish",no,2025-08-12_14h57.19.123,empathy_intonation_perc,2024.2.4,Win32,59.52380952,6672f795fac6ecd66d7b987f,687ed1b7e638a4cbf2f02089,689b8d97ea8cb724c287d16c,,,,,,,,,,,,,,1,,,,,,,,,,,,,,,,,,,,,,,,,,,,,,,,,,,,,,,,,,,,,,,,,,,,,,,,,89,prisa,,,,,741.5538,743.0879,1,1,1.0241,,0,45,45,88,1,REAL,FAKE,,,,,,,,,,,,,,,,,
,,,,,,,,,6672f795fac6ecd66d7b987f,6672f795fac6ecd66d7b987f,13 or older,"no, only English or Spanish",no,2025-08-12_14h57.19.123,empathy_intonation_perc,2024.2.4,Win32,59.52380952,6672f795fac6ecd66d7b987f,687ed1b7e638a4cbf2f02089,689b8d97ea8cb724c287d16c,,,,,,,,,,,,,,1,,,,,,,,,,,,,,,,,,,,,,,,,,,,,,,,,,,,,,,,,,,,,,,,,,,,,,,,,67,cabello,,,,,743.0885,744.1391,0,0,0.5393,,0,46,46,66,1,REAL,FAKE,,,,,,,,,,,,,,,,,
,,,,,,,,,6672f795fac6ecd66d7b987f,6672f795fac6ecd66d7b987f,13 or older,"no, only English or Spanish",no,2025-08-12_14h57.19.123,empathy_intonation_perc,2024.2.4,Win32,59.52380952,6672f795fac6ecd66d7b987f,687ed1b7e638a4cbf2f02089,689b8d97ea8cb724c287d16c,,,,,,,,,,,,,,1,,,,,,,,,,,,,,,,,,,,,,,,,,,,,,,,,,,,,,,,,,,,,,,,,,,,,,,,,64,orgulloso,,,,,744.1399,745.3069,0,0,0.6488,,0,47,47,63,1,REAL,FAKE,,,,,,,,,,,,,,,,,
,,,,,,,,,6672f795fac6ecd66d7b987f,6672f795fac6ecd66d7b987f,13 or older,"no, only English or Spanish",no,2025-08-12_14h57.19.123,empathy_intonation_perc,2024.2.4,Win32,59.52380952,6672f795fac6ecd66d7b987f,687ed1b7e638a4cbf2f02089,689b8d97ea8cb724c287d16c,,,,,,,,,,,,,,1,,,,,,,,,,,,,,,,,,,,,,,,,,,,,,,,,,,,,,,,,,,,,,,,,,,,,,,,,38,estornudar,,,,,745.3074,746.4413,0,0,0.6143,,0,48,48,37,1,REAL,FAKE,,,,,,,,,,,,,,,,,
,,,,,,,,,6672f795fac6ecd66d7b987f,6672f795fac6ecd66d7b987f,13 or older,"no, only English or Spanish",no,2025-08-12_14h57.19.123,empathy_intonation_perc,2024.2.4,Win32,59.52380952,6672f795fac6ecd66d7b987f,687ed1b7e638a4cbf2f02089,689b8d97ea8cb724c287d16c,,,,,,,,,,,,,,0,,,,,,,,,,,,,,,,,,,,,,,,,,,,,,,,,,,,,,,,,,,,,,,,,,,,,,,,,30,alardio,,,,,746.4419,747.9095,0,1,0.9523,,0,49,49,29,1,REAL,FAKE,,,,,,,,,,,,,,,,,
,,,,,,,,,6672f795fac6ecd66d7b987f,6672f795fac6ecd66d7b987f,13 or older,"no, only English or Spanish",no,2025-08-12_14h57.19.123,empathy_intonation_perc,2024.2.4,Win32,59.52380952,6672f795fac6ecd66d7b987f,687ed1b7e638a4cbf2f02089,689b8d97ea8cb724c287d16c,,,,,,,,,,,,,,1,,,,,,,,,,,,,,,,,,,,,,,,,,,,,,,,,,,,,,,,,,,,,,,,,,,,,,,,,24,látigo,,,,,747.9099,748.9605,1,1,0.5279,,0,50,50,23,1,REAL,FAKE,,,,,,,,,,,,,,,,,
,,,,,,,,,6672f795fac6ecd66d7b987f,6672f795fac6ecd66d7b987f,13 or older,"no, only English or Spanish",no,2025-08-12_14h57.19.123,empathy_intonation_perc,2024.2.4,Win32,59.52380952,6672f795fac6ecd66d7b987f,687ed1b7e638a4cbf2f02089,689b8d97ea8cb724c287d16c,,,,,,,,,,,,,,0,,,,,,,,,,,,,,,,,,,,,,,,,,,,,,,,,,,,,,,,,,,,,,,,,,,,,,,,,79,tropaje,,,,,748.961,750.4459,1,0,0.9675,,0,51,51,78,1,REAL,FAKE,,,,,,,,,,,,,,,,,
,,,,,,,,,6672f795fac6ecd66d7b987f,6672f795fac6ecd66d7b987f,13 or older,"no, only English or Spanish",no,2025-08-12_14h57.19.123,empathy_intonation_perc,2024.2.4,Win32,59.52380952,6672f795fac6ecd66d7b987f,687ed1b7e638a4cbf2f02089,689b8d97ea8cb724c287d16c,,,,,,,,,,,,,,0,,,,,,,,,,,,,,,,,,,,,,,,,,,,,,,,,,,,,,,,,,,,,,,,,,,,,,,,,66,hacido,,,,,750.4481,751.6971,1,0,0.7163,,0,52,52,65,1,REAL,FAKE,,,,,,,,,,,,,,,,,
,,,,,,,,,6672f795fac6ecd66d7b987f,6672f795fac6ecd66d7b987f,13 or older,"no, only English or Spanish",no,2025-08-12_14h57.19.123,empathy_intonation_perc,2024.2.4,Win32,59.52380952,6672f795fac6ecd66d7b987f,687ed1b7e638a4cbf2f02089,689b8d97ea8cb724c287d16c,,,,,,,,,,,,,,0,,,,,,,,,,,,,,,,,,,,,,,,,,,,,,,,,,,,,,,,,,,,,,,,,,,,,,,,,53,vegada,,,,,751.6989,753.0146,1,0,0.7885,,0,53,53,52,1,REAL,FAKE,,,,,,,,,,,,,,,,,
,,,,,,,,,6672f795fac6ecd66d7b987f,6672f795fac6ecd66d7b987f,13 or older,"no, only English or Spanish",no,2025-08-12_14h57.19.123,empathy_intonation_perc,2024.2.4,Win32,59.52380952,6672f795fac6ecd66d7b987f,687ed1b7e638a4cbf2f02089,689b8d97ea8cb724c287d16c,,,,,,,,,,,,,,0,,,,,,,,,,,,,,,,,,,,,,,,,,,,,,,,,,,,,,,,,,,,,,,,,,,,,,,,,8,cadeña,,,,,753.0154,754.6662,1,0,1.1412,,0,54,54,7,1,REAL,FAKE,,,,,,,,,,,,,,,,,
,,,,,,,,,6672f795fac6ecd66d7b987f,6672f795fac6ecd66d7b987f,13 or older,"no, only English or Spanish",no,2025-08-12_14h57.19.123,empathy_intonation_perc,2024.2.4,Win32,59.52380952,6672f795fac6ecd66d7b987f,687ed1b7e638a4cbf2f02089,689b8d97ea8cb724c287d16c,,,,,,,,,,,,,,0,,,,,,,,,,,,,,,,,,,,,,,,,,,,,,,,,,,,,,,,,,,,,,,,,,,,,,,,,87,grodo,,,,,754.6666,756.2183,0,1,1.0339,,0,55,55,86,1,REAL,FAKE,,,,,,,,,,,,,,,,,
,,,,,,,,,6672f795fac6ecd66d7b987f,6672f795fac6ecd66d7b987f,13 or older,"no, only English or Spanish",no,2025-08-12_14h57.19.123,empathy_intonation_perc,2024.2.4,Win32,59.52380952,6672f795fac6ecd66d7b987f,687ed1b7e638a4cbf2f02089,689b8d97ea8cb724c287d16c,,,,,,,,,,,,,,1,,,,,,,,,,,,,,,,,,,,,,,,,,,,,,,,,,,,,,,,,,,,,,,,,,,,,,,,,51,candado,,,,,756.2195,757.7026,0,0,0.9558,,0,56,56,50,1,REAL,FAKE,,,,,,,,,,,,,,,,,
,,,,,,,,,6672f795fac6ecd66d7b987f,6672f795fac6ecd66d7b987f,13 or older,"no, only English or Spanish",no,2025-08-12_14h57.19.123,empathy_intonation_perc,2024.2.4,Win32,59.52380952,6672f795fac6ecd66d7b987f,687ed1b7e638a4cbf2f02089,689b8d97ea8cb724c287d16c,,,,,,,,,,,,,,0,,,,,,,,,,,,,,,,,,,,,,,,,,,,,,,,,,,,,,,,,,,,,,,,,,,,,,,,,58,plaudir,,,,,757.703,759.0039,1,0,0.7833,,0,57,57,57,1,REAL,FAKE,,,,,,,,,,,,,,,,,
,,,,,,,,,6672f795fac6ecd66d7b987f,6672f795fac6ecd66d7b987f,13 or older,"no, only English or Spanish",no,2025-08-12_14h57.19.123,empathy_intonation_perc,2024.2.4,Win32,59.52380952,6672f795fac6ecd66d7b987f,687ed1b7e638a4cbf2f02089,689b8d97ea8cb724c287d16c,,,,,,,,,,,,,,1,,,,,,,,,,,,,,,,,,,,,,,,,,,,,,,,,,,,,,,,,,,,,,,,,,,,,,,,,77,tiburón,,,,,759.0044,760.3553,1,1,0.8413,,0,58,58,76,1,REAL,FAKE,,,,,,,,,,,,,,,,,
,,,,,,,,,6672f795fac6ecd66d7b987f,6672f795fac6ecd66d7b987f,13 or older,"no, only English or Spanish",no,2025-08-12_14h57.19.123,empathy_intonation_perc,2024.2.4,Win32,59.52380952,6672f795fac6ecd66d7b987f,687ed1b7e638a4cbf2f02089,689b8d97ea8cb724c287d16c,,,,,,,,,,,,,,1,,,,,,,,,,,,,,,,,,,,,,,,,,,,,,,,,,,,,,,,,,,,,,,,,,,,,,,,,54,fomentar,,,,,760.3558,761.5564,0,0,0.6826,,0,59,59,53,1,REAL,FAKE,,,,,,,,,,,,,,,,,
,,,,,,,,,6672f795fac6ecd66d7b987f,6672f795fac6ecd66d7b987f,13 or older,"no, only English or Spanish",no,2025-08-12_14h57.19.123,empathy_intonation_perc,2024.2.4,Win32,59.52380952,6672f795fac6ecd66d7b987f,687ed1b7e638a4cbf2f02089,689b8d97ea8cb724c287d16c,,,,,,,,,,,,,,1,,,,,,,,,,,,,,,,,,,,,,,,,,,,,,,,,,,,,,,,,,,,,,,,,,,,,,,,,34,aviso,,,,,761.557,762.791,1,1,0.7164,,0,60,60,33,1,REAL,FAKE,,,,,,,,,,,,,,,,,
,,,,,,,,,6672f795fac6ecd66d7b987f,6672f795fac6ecd66d7b987f,13 or older,"no, only English or Spanish",no,2025-08-12_14h57.19.123,empathy_intonation_perc,2024.2.4,Win32,59.52380952,6672f795fac6ecd66d7b987f,687ed1b7e638a4cbf2f02089,689b8d97ea8cb724c287d16c,,,,,,,,,,,,,,0,,,,,,,,,,,,,,,,,,,,,,,,,,,,,,,,,,,,,,,,,,,,,,,,,,,,,,,,,17,floroso,,,,,762.7917,764.0422,0,1,0.732,,0,61,61,16,1,REAL,FAKE,,,,,,,,,,,,,,,,,
,,,,,,,,,6672f795fac6ecd66d7b987f,6672f795fac6ecd66d7b987f,13 or older,"no, only English or Spanish",no,2025-08-12_14h57.19.123,empathy_intonation_perc,2024.2.4,Win32,59.52380952,6672f795fac6ecd66d7b987f,687ed1b7e638a4cbf2f02089,689b8d97ea8cb724c287d16c,,,,,,,,,,,,,,1,,,,,,,,,,,,,,,,,,,,,,,,,,,,,,,,,,,,,,,,,,,,,,,,,,,,,,,,,7,pésimo,,,,,764.0427,765.3602,1,1,0.801,,0,62,62,6,1,REAL,FAKE,,,,,,,,,,,,,,,,,
,,,,,,,,,6672f795fac6ecd66d7b987f,6672f795fac6ecd66d7b987f,13 or older,"no, only English or Spanish",no,2025-08-12_14h57.19.123,empathy_intonation_perc,2024.2.4,Win32,59.52380952,6672f795fac6ecd66d7b987f,687ed1b7e638a4cbf2f02089,689b8d97ea8cb724c287d16c,,,,,,,,,,,,,,1,,,,,,,,,,,,,,,,,,,,,,,,,,,,,,,,,,,,,,,,,,,,,,,,,,,,,,,,,81,pozo,,,,,765.3607,766.6282,0,0,0.7497,,0,63,63,80,1,REAL,FAKE,,,,,,,,,,,,,,,,,
,,,,,,,,,6672f795fac6ecd66d7b987f,6672f795fac6ecd66d7b987f,13 or older,"no, only English or Spanish",no,2025-08-12_14h57.19.123,empathy_intonation_perc,2024.2.4,Win32,59.52380952,6672f795fac6ecd66d7b987f,687ed1b7e638a4cbf2f02089,689b8d97ea8cb724c287d16c,,,,,,,,,,,,,,0,,,,,,,,,,,,,,,,,,,,,,,,,,,,,,,,,,,,,,,,,,,,,,,,,,,,,,,,,33,pauca,,,,,766.6286,768.3298,0,1,1.1833,,0,64,64,32,1,REAL,FAKE,,,,,,,,,,,,,,,,,
,,,,,,,,,6672f795fac6ecd66d7b987f,6672f795fac6ecd66d7b987f,13 or older,"no, only English or Spanish",no,2025-08-12_14h57.19.123,empathy_intonation_perc,2024.2.4,Win32,59.52380952,6672f795fac6ecd66d7b987f,687ed1b7e638a4cbf2f02089,689b8d97ea8cb724c287d16c,,,,,,,,,,,,,,0,,,,,,,,,,,,,,,,,,,,,,,,,,,,,,,,,,,,,,,,,,,,,,,,,,,,,,,,,32,fatacidad,,,,,768.3304,769.6311,0,1,0.7835,,0,65,65,31,1,REAL,FAKE,,,,,,,,,,,,,,,,,
,,,,,,,,,6672f795fac6ecd66d7b987f,6672f795fac6ecd66d7b987f,13 or older,"no, only English or Spanish",no,2025-08-12_14h57.19.123,empathy_intonation_perc,2024.2.4,Win32,59.52380952,6672f795fac6ecd66d7b987f,687ed1b7e638a4cbf2f02089,689b8d97ea8cb724c287d16c,,,,,,,,,,,,,,1,,,,,,,,,,,,,,,,,,,,,,,,,,,,,,,,,,,,,,,,,,,,,,,,,,,,,,,,,22,lacayo,,,,,769.6316,770.8155,0,0,0.676,,0,66,66,21,1,REAL,FAKE,,,,,,,,,,,,,,,,,
,,,,,,,,,6672f795fac6ecd66d7b987f,6672f795fac6ecd66d7b987f,13 or older,"no, only English or Spanish",no,2025-08-12_14h57.19.123,empathy_intonation_perc,2024.2.4,Win32,59.52380952,6672f795fac6ecd66d7b987f,687ed1b7e638a4cbf2f02089,689b8d97ea8cb724c287d16c,,,,,,,,,,,,,,1,,,,,,,,,,,,,,,,,,,,,,,,,,,,,,,,,,,,,,,,,,,,,,,,,,,,,,,,,14,yunque,,,,,770.8159,772.0336,0,0,0.6997,,0,67,67,13,1,REAL,FAKE,,,,,,,,,,,,,,,,,
,,,,,,,,,6672f795fac6ecd66d7b987f,6672f795fac6ecd66d7b987f,13 or older,"no, only English or Spanish",no,2025-08-12_14h57.19.123,empathy_intonation_perc,2024.2.4,Win32,59.52380952,6672f795fac6ecd66d7b987f,687ed1b7e638a4cbf2f02089,689b8d97ea8cb724c287d16c,,,,,,,,,,,,,,0,,,,,,,,,,,,,,,,,,,,,,,,,,,,,,,,,,,,,,,,,,,,,,,,,,,,,,,,,10,antar,,,,,772.0341,773.1186,1,0,0.5662,,0,68,68,9,1,REAL,FAKE,,,,,,,,,,,,,,,,,
,,,,,,,,,6672f795fac6ecd66d7b987f,6672f795fac6ecd66d7b987f,13 or older,"no, only English or Spanish",no,2025-08-12_14h57.19.123,empathy_intonation_perc,2024.2.4,Win32,59.52380952,6672f795fac6ecd66d7b987f,687ed1b7e638a4cbf2f02089,689b8d97ea8cb724c287d16c,,,,,,,,,,,,,,1,,,,,,,,,,,,,,,,,,,,,,,,,,,,,,,,,,,,,,,,,,,,,,,,,,,,,,,,,59,besar,,,,,773.1201,774.3525,1,1,0.6962,,0,69,69,58,1,REAL,FAKE,,,,,,,,,,,,,,,,,
,,,,,,,,,6672f795fac6ecd66d7b987f,6672f795fac6ecd66d7b987f,13 or older,"no, only English or Spanish",no,2025-08-12_14h57.19.123,empathy_intonation_perc,2024.2.4,Win32,59.52380952,6672f795fac6ecd66d7b987f,687ed1b7e638a4cbf2f02089,689b8d97ea8cb724c287d16c,,,,,,,,,,,,,,1,,,,,,,,,,,,,,,,,,,,,,,,,,,,,,,,,,,,,,,,,,,,,,,,,,,,,,,,,3,pulmones,,,,,774.353,775.5536,0,0,0.6827,,0,70,70,2,1,REAL,FAKE,,,,,,,,,,,,,,,,,
,,,,,,,,,6672f795fac6ecd66d7b987f,6672f795fac6ecd66d7b987f,13 or older,"no, only English or Spanish",no,2025-08-12_14h57.19.123,empathy_intonation_perc,2024.2.4,Win32,59.52380952,6672f795fac6ecd66d7b987f,687ed1b7e638a4cbf2f02089,689b8d97ea8cb724c287d16c,,,,,,,,,,,,,,0,,,,,,,,,,,,,,,,,,,,,,,,,,,,,,,,,,,,,,,,,,,,,,,,,,,,,,,,,35,rompido,,,,,775.554,777.0052,1,0,0.9328,,0,71,71,34,1,REAL,FAKE,,,,,,,,,,,,,,,,,
,,,,,,,,,6672f795fac6ecd66d7b987f,6672f795fac6ecd66d7b987f,13 or older,"no, only English or Spanish",no,2025-08-12_14h57.19.123,empathy_intonation_perc,2024.2.4,Win32,59.52380952,6672f795fac6ecd66d7b987f,687ed1b7e638a4cbf2f02089,689b8d97ea8cb724c287d16c,,,,,,,,,,,,,,1,,,,,,,,,,,,,,,,,,,,,,,,,,,,,,,,,,,,,,,,,,,,,,,,,,,,,,,,,57,tacaño,,,,,777.0057,778.2564,1,1,0.7411,,0,72,72,56,1,REAL,FAKE,,,,,,,,,,,,,,,,,
,,,,,,,,,6672f795fac6ecd66d7b987f,6672f795fac6ecd66d7b987f,13 or older,"no, only English or Spanish",no,2025-08-12_14h57.19.123,empathy_intonation_perc,2024.2.4,Win32,59.52380952,6672f795fac6ecd66d7b987f,687ed1b7e638a4cbf2f02089,689b8d97ea8cb724c287d16c,,,,,,,,,,,,,,0,,,,,,,,,,,,,,,,,,,,,,,,,,,,,,,,,,,,,,,,,,,,,,,,,,,,,,,,,84,escuto,,,,,778.257,779.7085,1,0,0.9334,,0,73,73,83,1,REAL,FAKE,,,,,,,,,,,,,,,,,
,,,,,,,,,6672f795fac6ecd66d7b987f,6672f795fac6ecd66d7b987f,13 or older,"no, only English or Spanish",no,2025-08-12_14h57.19.123,empathy_intonation_perc,2024.2.4,Win32,59.52380952,6672f795fac6ecd66d7b987f,687ed1b7e638a4cbf2f02089,689b8d97ea8cb724c287d16c,,,,,,,,,,,,,,1,,,,,,,,,,,,,,,,,,,,,,,,,,,,,,,,,,,,,,,,,,,,,,,,,,,,,,,,,44,cuchara,,,,,779.71,780.8589,0,0,0.6184,,0,74,74,43,1,REAL,FAKE,,,,,,,,,,,,,,,,,
,,,,,,,,,6672f795fac6ecd66d7b987f,6672f795fac6ecd66d7b987f,13 or older,"no, only English or Spanish",no,2025-08-12_14h57.19.123,empathy_intonation_perc,2024.2.4,Win32,59.52380952,6672f795fac6ecd66d7b987f,687ed1b7e638a4cbf2f02089,689b8d97ea8cb724c287d16c,,,,,,,,,,,,,,1,,,,,,,,,,,,,,,,,,,,,,,,,,,,,,,,,,,,,,,,,,,,,,,,,,,,,,,,,49,ganar,,,,,780.8593,782.2603,1,1,0.883,,0,75,75,48,1,REAL,FAKE,,,,,,,,,,,,,,,,,
,,,,,,,,,6672f795fac6ecd66d7b987f,6672f795fac6ecd66d7b987f,13 or older,"no, only English or Spanish",no,2025-08-12_14h57.19.123,empathy_intonation_perc,2024.2.4,Win32,59.52380952,6672f795fac6ecd66d7b987f,687ed1b7e638a4cbf2f02089,689b8d97ea8cb724c287d16c,,,,,,,,,,,,,,1,,,,,,,,,,,,,,,,,,,,,,,,,,,,,,,,,,,,,,,,,,,,,,,,,,,,,,,,,31,pandilla,,,,,782.2609,783.9287,0,0,1.1524,,0,76,76,30,1,REAL,FAKE,,,,,,,,,,,,,,,,,
,,,,,,,,,6672f795fac6ecd66d7b987f,6672f795fac6ecd66d7b987f,13 or older,"no, only English or Spanish",no,2025-08-12_14h57.19.123,empathy_intonation_perc,2024.2.4,Win32,59.52380952,6672f795fac6ecd66d7b987f,687ed1b7e638a4cbf2f02089,689b8d97ea8cb724c287d16c,,,,,,,,,,,,,,0,,,,,,,,,,,,,,,,,,,,,,,,,,,,,,,,,,,,,,,,,,,,,,,,,,,,,,,,,1,terzo,,,,,783.9292,785.3134,0,1,0.8664,,0,77,77,0,1,REAL,FAKE,,,,,,,,,,,,,,,,,
,,,,,,,,,6672f795fac6ecd66d7b987f,6672f795fac6ecd66d7b987f,13 or older,"no, only English or Spanish",no,2025-08-12_14h57.19.123,empathy_intonation_perc,2024.2.4,Win32,59.52380952,6672f795fac6ecd66d7b987f,687ed1b7e638a4cbf2f02089,689b8d97ea8cb724c287d16c,,,,,,,,,,,,,,1,,,,,,,,,,,,,,,,,,,,,,,,,,,,,,,,,,,,,,,,,,,,,,,,,,,,,,,,,40,alfombra,,,,,785.314,786.5646,0,0,0.733,,0,78,78,39,1,REAL,FAKE,,,,,,,,,,,,,,,,,
,,,,,,,,,6672f795fac6ecd66d7b987f,6672f795fac6ecd66d7b987f,13 or older,"no, only English or Spanish",no,2025-08-12_14h57.19.123,empathy_intonation_perc,2024.2.4,Win32,59.52380952,6672f795fac6ecd66d7b987f,687ed1b7e638a4cbf2f02089,689b8d97ea8cb724c287d16c,,,,,,,,,,,,,,1,,,,,,,,,,,,,,,,,,,,,,,,,,,,,,,,,,,,,,,,,,,,,,,,,,,,,,,,,43,canela,,,,,786.565,787.6991,1,1,0.6226,,0,79,79,42,1,REAL,FAKE,,,,,,,,,,,,,,,,,
,,,,,,,,,6672f795fac6ecd66d7b987f,6672f795fac6ecd66d7b987f,13 or older,"no, only English or Spanish",no,2025-08-12_14h57.19.123,empathy_intonation_perc,2024.2.4,Win32,59.52380952,6672f795fac6ecd66d7b987f,687ed1b7e638a4cbf2f02089,689b8d97ea8cb724c287d16c,,,,,,,,,,,,,,0,,,,,,,,,,,,,,,,,,,,,,,,,,,,,,,,,,,,,,,,,,,,,,,,,,,,,,,,,47,cartinar,,,,,787.6995,789.3673,0,1,1.1568,,0,80,80,46,1,REAL,FAKE,,,,,,,,,,,,,,,,,
,,,,,,,,,6672f795fac6ecd66d7b987f,6672f795fac6ecd66d7b987f,13 or older,"no, only English or Spanish",no,2025-08-12_14h57.19.123,empathy_intonation_perc,2024.2.4,Win32,59.52380952,6672f795fac6ecd66d7b987f,687ed1b7e638a4cbf2f02089,689b8d97ea8cb724c287d16c,,,,,,,,,,,,,,1,,,,,,,,,,,,,,,,,,,,,,,,,,,,,,,,,,,,,,,,,,,,,,,,,,,,,,,,,65,bizcocho,,,,,789.3679,790.6521,0,0,0.7715,,0,81,81,64,1,REAL,FAKE,,,,,,,,,,,,,,,,,
,,,,,,,,,6672f795fac6ecd66d7b987f,6672f795fac6ecd66d7b987f,13 or older,"no, only English or Spanish",no,2025-08-12_14h57.19.123,empathy_intonation_perc,2024.2.4,Win32,59.52380952,6672f795fac6ecd66d7b987f,687ed1b7e638a4cbf2f02089,689b8d97ea8cb724c287d16c,,,,,,,,,,,,,,1,,,,,,,,,,,,,,,,,,,,,,,,,,,,,,,,,,,,,,,,,,,,,,,,,,,,,,,,,6,tergiversar,,,,,790.6525,791.9867,0,0,0.8216,,0,82,82,5,1,REAL,FAKE,,,,,,,,,,,,,,,,,
,,,,,,,,,6672f795fac6ecd66d7b987f,6672f795fac6ecd66d7b987f,13 or older,"no, only English or Spanish",no,2025-08-12_14h57.19.123,empathy_intonation_perc,2024.2.4,Win32,59.52380952,6672f795fac6ecd66d7b987f,687ed1b7e638a4cbf2f02089,689b8d97ea8cb724c287d16c,,,,,,,,,,,,,,1,,,,,,,,,,,,,,,,,,,,,,,,,,,,,,,,,,,,,,,,,,,,,,,,,,,,,,,,,25,bisagra,,,,,791.9876,793.4888,0,0,0.9823,,0,83,83,24,1,REAL,FAKE,,,,,,,,,,,,,,,,,
,,,,,,,,,6672f795fac6ecd66d7b987f,6672f795fac6ecd66d7b987f,13 or older,"no, only English or Spanish",no,2025-08-12_14h57.19.123,empathy_intonation_perc,2024.2.4,Win32,59.52380952,6672f795fac6ecd66d7b987f,687ed1b7e638a4cbf2f02089,689b8d97ea8cb724c287d16c,,,,,,,,,,,,,,0,,,,,,,,,,,,,,,,,,,,,,,,,,,,,,,,,,,,,,,,,,,,,,,,,,,,,,,,,92,click the 0 key.,,,,,793.4894,795.0066,0,1,0.9845,,0,84,84,91,1,REAL,FAKE,,,,,,,,,,,,,,,,,
,,,,,,,,,6672f795fac6ecd66d7b987f,6672f795fac6ecd66d7b987f,13 or older,"no, only English or Spanish",no,2025-08-12_14h57.19.123,empathy_intonation_perc,2024.2.4,Win32,59.52380952,6672f795fac6ecd66d7b987f,687ed1b7e638a4cbf2f02089,689b8d97ea8cb724c287d16c,,,,,,,,,,,,,,1,,,,,,,,,,,,,,,,,,,,,,,,,,,,,,,,,,,,,,,,,,,,,,,,,,,,,,,,,68,alegre,,,,,795.0071,796.3243,1,1,0.8029,,0,85,85,67,1,REAL,FAKE,,,,,,,,,,,,,,,,,
,,,,,,,,,6672f795fac6ecd66d7b987f,6672f795fac6ecd66d7b987f,13 or older,"no, only English or Spanish",no,2025-08-12_14h57.19.123,empathy_intonation_perc,2024.2.4,Win32,59.52380952,6672f795fac6ecd66d7b987f,687ed1b7e638a4cbf2f02089,689b8d97ea8cb724c287d16c,,,,,,,,,,,,,,1,,,,,,,,,,,,,,,,,,,,,,,,,,,,,,,,,,,,,,,,,,,,,,,,,,,,,,,,,61,seda,,,,,796.3249,797.5426,1,1,0.7105,,0,86,86,60,1,REAL,FAKE,,,,,,,,,,,,,,,,,
,,,,,,,,,6672f795fac6ecd66d7b987f,6672f795fac6ecd66d7b987f,13 or older,"no, only English or Spanish",no,2025-08-12_14h57.19.123,empathy_intonation_perc,2024.2.4,Win32,59.52380952,6672f795fac6ecd66d7b987f,687ed1b7e638a4cbf2f02089,689b8d97ea8cb724c287d16c,,,,,,,,,,,,,,0,,,,,,,,,,,,,,,,,,,,,,,,,,,,,,,,,,,,,,,,,,,,,,,,,,,,,,,,,50,flamida,,,,,797.5432,798.9272,0,1,0.851,,0,87,87,49,1,REAL,FAKE,,,,,,,,,,,,,,,,,
,,,,,,,,,6672f795fac6ecd66d7b987f,6672f795fac6ecd66d7b987f,13 or older,"no, only English or Spanish",no,2025-08-12_14h57.19.123,empathy_intonation_perc,2024.2.4,Win32,59.52380952,6672f795fac6ecd66d7b987f,687ed1b7e638a4cbf2f02089,689b8d97ea8cb724c287d16c,,,,,,,,,,,,,,1,,,,,,,,,,,,,,,,,,,,,,,,,,,,,,,,,,,,,,,,,,,,,,,,,,,,,,,,,62,flaco,,,,,798.928,800.0948,1,1,0.6426,,0,88,88,61,1,REAL,FAKE,,,,,,,,,,,,,,,,,
,,,,,,,,,6672f795fac6ecd66d7b987f,6672f795fac6ecd66d7b987f,13 or older,"no, only English or Spanish",no,2025-08-12_14h57.19.123,empathy_intonation_perc,2024.2.4,Win32,59.52380952,6672f795fac6ecd66d7b987f,687ed1b7e638a4cbf2f02089,689b8d97ea8cb724c287d16c,,,,,,,,,,,,,,1,,,,,,,,,,,,,,,,,,,,,,,,,,,,,,,,,,,,,,,,,,,,,,,,,,,,,,,,,75,yacer,,,,,800.0954,801.3125,0,0,0.7083,,0,89,89,74,1,REAL,FAKE,,,,,,,,,,,,,,,,,
,,,,,,,,,6672f795fac6ecd66d7b987f,6672f795fac6ecd66d7b987f,13 or older,"no, only English or Spanish",no,2025-08-12_14h57.19.123,empathy_intonation_perc,2024.2.4,Win32,59.52380952,6672f795fac6ecd66d7b987f,687ed1b7e638a4cbf2f02089,689b8d97ea8cb724c287d16c,,,,,,,,,,,,,,1,,,,,,,,,,,,,,,,,,,,,,,,,,,,,,,,,,,,,,,,,,,,,,,,,,,,,,,,,15,regar,,,,,801.3132,802.4971,1,1,0.6702,,0,90,90,14,1,REAL,FAKE,,,,,,,,,,,,,,,,,
,,,,,,,,,6672f795fac6ecd66d7b987f,6672f795fac6ecd66d7b987f,13 or older,"no, only English or Spanish",no,2025-08-12_14h57.19.123,empathy_intonation_perc,2024.2.4,Win32,59.52380952,6672f795fac6ecd66d7b987f,687ed1b7e638a4cbf2f02089,689b8d97ea8cb724c287d16c,,,,,,,,,,,,,,1,,,,,,,,,,,,,,,,,,,,,,,,,,,,,,,,,,,,,,,,,,,,,,,,,,,,,,,,,90,clavel,,,,,802.4977,803.6816,0,0,0.6702,,0,91,91,89,1,REAL,FAKE,,,,,,,,,,,,,,,,,
,,,,,,,,,6672f795fac6ecd66d7b987f,6672f795fac6ecd66d7b987f,13 or older,"no, only English or Spanish",no,2025-08-12_14h57.19.123,empathy_intonation_perc,2024.2.4,Win32,59.52380952,6672f795fac6ecd66d7b987f,687ed1b7e638a4cbf2f02089,689b8d97ea8cb724c287d16c,,,,,,,,,,,,,,,,,,,,,,,,,,,,,,,,,,,,,,,,,,,,,,,,,,,,,,,,,,,,,,,,,,,,,,,,,,,,,,,,,,,,,,,,,,803.6819,807.2187,,,,,,,,,,,,,,,
,,,,,,,,,6672f795fac6ecd66d7b987f,6672f795fac6ecd66d7b987f,13 or older,"no, only English or Spanish",no,2025-08-12_14h57.19.123,empathy_intonation_perc,2024.2.4,Win32,59.52380952,6672f795fac6ecd66d7b987f,687ed1b7e638a4cbf2f02089,689b8d97ea8cb724c287d16c,,,,,,,,,,,,,1,,,,,,,,,,,,,,,,,,,,,,,,,,,,,,,,,,,,,,,,,,,,,,,,,,,,,,,,,,,,,,,,,,,,,,,,,,,,,,,807.2295,813.9086,strongly agree,0,0,0,0,1,I can easily tell if someone else wants to enter a conversation.,1,0,1,0,,
