instructions_exposure.started,instructions_exposure.stopped,instructions_exposure_loop.thisRepN,instructions_exposure_loop.thisTrialN,instructions_exposure_loop.thisN,instructions_exposure_loop.thisIndex,instructions_exposure_loop.ran,instructions_text,continue_text,participant_id,"What variety of Spanish are you most familiar with? (e.g., Peruvian, Spanish, Mexican)",At what age did you begin learning Spanish?,Are you proficient in any languages other than English/Spanish?,"Are you familiar with Caribbean (e.g., Caribbean, Puerto Rican) or Galician Spanish?",date,expName,psychopyVersion,OS,frameRate,id,study_id,session,trial_exposure.started,trial_exposure.stopped,key_resp_exposure.keys,key_resp_exposure.corr,key_resp_exposure.rt,key_resp_exposure.duration,key_resp.keys,exposure_loop.thisRepN,exposure_loop.thisTrialN,exposure_loop.thisN,exposure_loop.thisIndex,exposure_loop.ran,item_num,correct_response,question,path,duration,instructions_2afc.started,instructions_2afc.stopped,instructions_2afc_loop.thisRepN,instructions_2afc_loop.thisTrialN,instructions_2afc_loop.thisN,instructions_2afc_loop.thisIndex,instructions_2afc_loop.ran,practice_2afc.started,practice_2afc.stopped,key_resp_2afc_practice.keys,key_resp_2afc_practice.corr,key_resp_2afc_practice.rt,key_resp_2afc_practice.duration,trials_2afc_practice_loop.thisRepN,trials_2afc_practice_loop.thisTrialN,trials_2afc_practice_loop.thisN,trials_2afc_practice_loop.thisIndex,trials_2afc_practice_loop.ran,check_2afc.started,check_2afc.stopped,trial_2afc.started,trial_2afc.stopped,key_resp_2afc_trial.keys,key_resp_2afc_trial.corr,key_resp_2afc_trial.rt,key_resp_2afc_trial.duration,trials_2afc_loop.thisRepN,trials_2afc_loop.thisTrialN,trials_2afc_loop.thisN,trials_2afc_loop.thisIndex,trials_2afc_loop.ran,target,variety,instructions_lextale.started,instructions_lextale.stopped,instructions_lextale_loop.thisRepN,instructions_lextale_loop.thisTrialN,instructions_lextale_loop.thisN,instructions_lextale_loop.thisIndex,instructions_lextale_loop.ran,practice_lextale.started,practice_lextale.stopped,key_resp_lextale_practice.keys,key_resp_lextale_practice.corr,key_resp_lextale_practice.rt,key_resp_lextale_practice.duration,practice_feedback_lextale.started,practice_feedback_lextale.stopped,trials_lextale_practice_loop.thisRepN,trials_lextale_practice_loop.thisTrialN,trials_lextale_practice_loop.thisN,trials_lextale_practice_loop.thisIndex,trials_lextale_practice_loop.ran,stim,word,prac_button_real,prac_button_false,check_lextale.started,check_lextale.stopped,trial_lextale.started,trial_lextale.stopped,key_resp_lextale_trial.keys,key_resp_lextale_trial.corr,key_resp_lextale_trial.rt,key_resp_lextale_trial.duration,trials_lextale_loop.thisRepN,trials_lextale_loop.thisTrialN,trials_lextale_loop.thisN,trials_lextale_loop.thisIndex,trials_lextale_loop.ran,button_real,button_false,instructions_eq.started,instructions_eq.stopped,trial_eq.started,trial_eq.stopped,slider_eq_trial.response,trials_eq_loop.thisRepN,trials_eq_loop.thisTrialN,trials_eq_loop.thisN,trials_eq_loop.thisIndex,trials_eq_loop.ran,item,is_test_item,is_distractor,is_agree_score,is_disagree_score,end_exp.started,end_exp.stopped
0.018,3.1463,0,0,0,0,1,"In the following task, you are going to hear a series of conversations.", (press the space bar to continue),667e000c4bfb9ea4c3e01d66,spanish,13 or older,"no, only English or Spanish",yes,2025-07-23_16h40.01.289,empathy_intonation_perc,2024.2.4,Win32,59.52380952,667e000c4bfb9ea4c3e01d66,687ed1b7e638a4cbf2f02089,688147b552fc52027fea529d,,,,,,,,,,,,,,,,,,,,,,,,,,,,,,,,,,,,,,,,,,,,,,,,,,,,,,,,,,,,,,,,,,,,,,,,,,,,,,,,,,,,,,,,,,,,,,,,,,,,,,,,,,
3.1489,5.401,0,1,1,1,1,It is okay if you don't not 100% understand them!, (press the space bar to continue),667e000c4bfb9ea4c3e01d66,spanish,13 or older,"no, only English or Spanish",yes,2025-07-23_16h40.01.289,empathy_intonation_perc,2024.2.4,Win32,59.52380952,667e000c4bfb9ea4c3e01d66,687ed1b7e638a4cbf2f02089,688147b552fc52027fea529d,,,,,,,,,,,,,,,,,,,,,,,,,,,,,,,,,,,,,,,,,,,,,,,,,,,,,,,,,,,,,,,,,,,,,,,,,,,,,,,,,,,,,,,,,,,,,,,,,,,,,,,,,,
5.4069,10.188,0,2,2,2,1,"After, you will read a sentence about the conversation and decide if it's true or false.", (press the space bar to continue),667e000c4bfb9ea4c3e01d66,spanish,13 or older,"no, only English or Spanish",yes,2025-07-23_16h40.01.289,empathy_intonation_perc,2024.2.4,Win32,59.52380952,667e000c4bfb9ea4c3e01d66,687ed1b7e638a4cbf2f02089,688147b552fc52027fea529d,,,,,,,,,,,,,,,,,,,,,,,,,,,,,,,,,,,,,,,,,,,,,,,,,,,,,,,,,,,,,,,,,,,,,,,,,,,,,,,,,,,,,,,,,,,,,,,,,,,,,,,,,,
10.1948,14.9632,0,3,3,3,1,"If it's true, press '1' (True) and if it's false press '0' (False).", (press the space bar to continue),667e000c4bfb9ea4c3e01d66,spanish,13 or older,"no, only English or Spanish",yes,2025-07-23_16h40.01.289,empathy_intonation_perc,2024.2.4,Win32,59.52380952,667e000c4bfb9ea4c3e01d66,687ed1b7e638a4cbf2f02089,688147b552fc52027fea529d,,,,,,,,,,,,,,,,,,,,,,,,,,,,,,,,,,,,,,,,,,,,,,,,,,,,,,,,,,,,,,,,,,,,,,,,,,,,,,,,,,,,,,,,,,,,,,,,,,,,,,,,,,
,,,,,,,,,667e000c4bfb9ea4c3e01d66,spanish,13 or older,"no, only English or Spanish",yes,2025-07-23_16h40.01.289,empathy_intonation_perc,2024.2.4,Win32,59.52380952,667e000c4bfb9ea4c3e01d66,687ed1b7e638a4cbf2f02089,688147b552fc52027fea529d,14.9833,87.9297,1,1,12.8844,,,0,0,0,1,1,2,1,The mom asked the daughter if she already went to the supermarket.,./stim/exposure_wavs/dr_stimuli_convo.wav,60,,,,,,,,,,,,,,,,,,,,,,,,,,,,,,,,,,,,,,,,,,,,,,,,,,,,,,,,,,,,,,,,,,,,,,,,,,,,,,,,,,,,,,,,,
,,,,,,,,,667e000c4bfb9ea4c3e01d66,spanish,13 or older,"no, only English or Spanish",yes,2025-07-23_16h40.01.289,empathy_intonation_perc,2024.2.4,Win32,59.52380952,667e000c4bfb9ea4c3e01d66,687ed1b7e638a4cbf2f02089,688147b552fc52027fea529d,87.9333,142.4401,1,1,7.4653,,,0,1,1,0,1,1,1,The son asked the mom if Aunt Marina is okay.,./stim/exposure_wavs/ga_stimuli_convo.wav,47,,,,,,,,,,,,,,,,,,,,,,,,,,,,,,,,,,,,,,,,,,,,,,,,,,,,,,,,,,,,,,,,,,,,,,,,,,,,,,,,,,,,,,,,,
,,,,,,,,,667e000c4bfb9ea4c3e01d66,spanish,13 or older,"no, only English or Spanish",yes,2025-07-23_16h40.01.289,empathy_intonation_perc,2024.2.4,Win32,59.52380952,667e000c4bfb9ea4c3e01d66,687ed1b7e638a4cbf2f02089,688147b552fc52027fea529d,142.4458,187.1872,0,1,8.6939,,,0,2,2,2,1,3,0,The mom already has rice.,./stim/exposure_wavs/pr_stimuli_convo.wav,36,,,,,,,,,,,,,,,,,,,,,,,,,,,,,,,,,,,,,,,,,,,,,,,,,,,,,,,,,,,,,,,,,,,,,,,,,,,,,,,,,,,,,,,,,
,,,,,,,"In the following task you are going to hear a series of utterances. 

  You will decide if the utterances sound like questions or not using your keyboard.", (press the spacebar to continue),667e000c4bfb9ea4c3e01d66,spanish,13 or older,"no, only English or Spanish",yes,2025-07-23_16h40.01.289,empathy_intonation_perc,2024.2.4,Win32,59.52380952,667e000c4bfb9ea4c3e01d66,687ed1b7e638a4cbf2f02089,688147b552fc52027fea529d,,,,,,,,,,,,,,,,,,187.1984,202.4844,0,0,0,0,1,,,,,,,,,,,,,,,,,,,,,,,,,,,,,,,,,,,,,,,,,,,,,,,,,,,,,,,,,,,,,,,,,,,,,,,,,,,,,,,,,,
,,,,,,,"If you believe the utterance is a question, type '1' (for 'yes') and if you do not 
  believe it is a question type '0' (for 'no').

  Let's practice a bit...", (press the spacebar to continue),667e000c4bfb9ea4c3e01d66,spanish,13 or older,"no, only English or Spanish",yes,2025-07-23_16h40.01.289,empathy_intonation_perc,2024.2.4,Win32,59.52380952,667e000c4bfb9ea4c3e01d66,687ed1b7e638a4cbf2f02089,688147b552fc52027fea529d,,,,,,,,,,,,,,,,,,202.49,213.7594,0,1,1,1,1,,,,,,,,,,,,,,,,,,,,,,,,,,,,,,,,,,,,,,,,,,,,,,,,,,,,,,,,,,,,,,,,,,,,,,,,,,,,,,,,,,
,,,,,,,,,667e000c4bfb9ea4c3e01d66,spanish,13 or older,"no, only English or Spanish",yes,2025-07-23_16h40.01.289,empathy_intonation_perc,2024.2.4,Win32,59.52380952,667e000c4bfb9ea4c3e01d66,687ed1b7e638a4cbf2f02089,688147b552fc52027fea529d,,,,,,,,,,,,,,1,,./stim/wavs/argentine_question_filler_Mi-vecino-habla-mucho.wav,,,,,,,,,213.7773,222.79,0,0,8.4795,,0,0,0,1,1,,,,,,,,,,,,,,,,,,,,,,,,,,,,,,,,,,,,,,,,,,,,,,,,,,,,,,,,,,,,,,,,,,,,,,,
,,,,,,,,,667e000c4bfb9ea4c3e01d66,spanish,13 or older,"no, only English or Spanish",yes,2025-07-23_16h40.01.289,empathy_intonation_perc,2024.2.4,Win32,59.52380952,667e000c4bfb9ea4c3e01d66,687ed1b7e638a4cbf2f02089,688147b552fc52027fea529d,,,,,,,,,,,,,,0,,./stim/wavs/cuban_statement_filler_Cocinabas-por-la-noche.wav,,,,,,,,,222.7916,235.9666,1,0,12.6481,,0,1,1,4,1,,,,,,,,,,,,,,,,,,,,,,,,,,,,,,,,,,,,,,,,,,,,,,,,,,,,,,,,,,,,,,,,,,,,,,,
,,,,,,,,,667e000c4bfb9ea4c3e01d66,spanish,13 or older,"no, only English or Spanish",yes,2025-07-23_16h40.01.289,empathy_intonation_perc,2024.2.4,Win32,59.52380952,667e000c4bfb9ea4c3e01d66,687ed1b7e638a4cbf2f02089,688147b552fc52027fea529d,,,,,,,,,,,,,,0,,./stim/wavs/puertorican_statement_filler_La-nina-pinta-con-su-amiga.wav,,,,,,,,,235.9671,246.1094,0,1,9.6108,,0,2,2,7,1,,,,,,,,,,,,,,,,,,,,,,,,,,,,,,,,,,,,,,,,,,,,,,,,,,,,,,,,,,,,,,,,,,,,,,,
,,,,,,,,,667e000c4bfb9ea4c3e01d66,spanish,13 or older,"no, only English or Spanish",yes,2025-07-23_16h40.01.289,empathy_intonation_perc,2024.2.4,Win32,59.52380952,667e000c4bfb9ea4c3e01d66,687ed1b7e638a4cbf2f02089,688147b552fc52027fea529d,,,,,,,,,,,,,,1,,./stim/wavs/mexican_question_filler_Felipe-no-tiene-contrasena.wav,,,,,,,,,246.1119,250.5252,1,1,3.8789,,0,3,3,3,1,,,,,,,,,,,,,,,,,,,,,,,,,,,,,,,,,,,,,,,,,,,,,,,,,,,,,,,,,,,,,,,,,,,,,,,
,,,,,,,,,667e000c4bfb9ea4c3e01d66,spanish,13 or older,"no, only English or Spanish",yes,2025-07-23_16h40.01.289,empathy_intonation_perc,2024.2.4,Win32,59.52380952,667e000c4bfb9ea4c3e01d66,687ed1b7e638a4cbf2f02089,688147b552fc52027fea529d,,,,,,,,,,,,,,0,,./stim/wavs/peruvian_statement_filler_El-nino-habla-con-su-madre.wav,,,,,,,,,250.5282,255.8721,0,1,4.8078,,0,4,4,6,1,,,,,,,,,,,,,,,,,,,,,,,,,,,,,,,,,,,,,,,,,,,,,,,,,,,,,,,,,,,,,,,,,,,,,,,
,,,,,,,,,667e000c4bfb9ea4c3e01d66,spanish,13 or older,"no, only English or Spanish",yes,2025-07-23_16h40.01.289,empathy_intonation_perc,2024.2.4,Win32,59.52380952,667e000c4bfb9ea4c3e01d66,687ed1b7e638a4cbf2f02089,688147b552fc52027fea529d,,,,,,,,,,,,,,1,,./stim/wavs/castilian_question_filler_Mi-esposo-conoce-al-chico.wav,,,,,,,,,255.873,261.567,1,1,5.1772,,0,5,5,0,1,,,,,,,,,,,,,,,,,,,,,,,,,,,,,,,,,,,,,,,,,,,,,,,,,,,,,,,,,,,,,,,,,,,,,,,
,,,,,,,,,667e000c4bfb9ea4c3e01d66,spanish,13 or older,"no, only English or Spanish",yes,2025-07-23_16h40.01.289,empathy_intonation_perc,2024.2.4,Win32,59.52380952,667e000c4bfb9ea4c3e01d66,687ed1b7e638a4cbf2f02089,688147b552fc52027fea529d,,,,,,,,,,,,,,0,,./stim/wavs/andalusian_statement_filler_Alberto-nunca-se-afeita.wav,,,,,,,,,261.569,269.0599,0,1,6.9682,,0,6,6,5,1,,,,,,,,,,,,,,,,,,,,,,,,,,,,,,,,,,,,,,,,,,,,,,,,,,,,,,,,,,,,,,,,,,,,,,,
,,,,,,,,,667e000c4bfb9ea4c3e01d66,spanish,13 or older,"no, only English or Spanish",yes,2025-07-23_16h40.01.289,empathy_intonation_perc,2024.2.4,Win32,59.52380952,667e000c4bfb9ea4c3e01d66,687ed1b7e638a4cbf2f02089,688147b552fc52027fea529d,,,,,,,,,,,,,,1,,./stim/wavs/chilean_question_filler_Mi-padre-cantaba-bien.wav,,,,,,,,,269.0614,272.655,1,1,3.0797,,0,7,7,2,1,,,,,,,,,,,,,,,,,,,,,,,,,,,,,,,,,,,,,,,,,,,,,,,,,,,,,,,,,,,,,,,,,,,,,,,
,,,,,,,,,667e000c4bfb9ea4c3e01d66,spanish,13 or older,"no, only English or Spanish",yes,2025-07-23_16h40.01.289,empathy_intonation_perc,2024.2.4,Win32,59.52380952,667e000c4bfb9ea4c3e01d66,687ed1b7e638a4cbf2f02089,688147b552fc52027fea529d,,,,,,,,,,,,,,,,,,,,,,,,,,,,,,,,,,,,272.6563,280.6515,,,,,,,,,,,,,,,,,,,,,,,,,,,,,,,,,,,,,,,,,,,,,,,,,,,,,,,,,,,,,,,,,,,,,
,,,,,,,,,667e000c4bfb9ea4c3e01d66,spanish,13 or older,"no, only English or Spanish",yes,2025-07-23_16h40.01.289,empathy_intonation_perc,2024.2.4,Win32,59.52380952,667e000c4bfb9ea4c3e01d66,687ed1b7e638a4cbf2f02089,688147b552fc52027fea529d,,,,,,,,,,,,,62,0,,./stim/wavs/mexican_match_declarative-broad-focus_Marta-abre-el-regalo.wav,,,,,,,,,,,,,,,,,,,,,,280.6711,286.0971,1,0,4.8974,,0,0,0,61,1,0,mexican,,,,,,,,,,,,,,,,,,,,,,,,,,,,,,,,,,,,,,,,,,,,,,,,,,,,,,,,
,,,,,,,,,667e000c4bfb9ea4c3e01d66,spanish,13 or older,"no, only English or Spanish",yes,2025-07-23_16h40.01.289,empathy_intonation_perc,2024.2.4,Win32,59.52380952,667e000c4bfb9ea4c3e01d66,687ed1b7e638a4cbf2f02089,688147b552fc52027fea529d,,,,,,,,,,,,,18,1,,./stim/wavs/mexican_match_interrogative-total-yn_Marta-abre-el-regalo.wav,,,,,,,,,,,,,,,,,,,,,,286.0992,291.693,0,0,5.0725,,0,1,1,17,1,0,mexican,,,,,,,,,,,,,,,,,,,,,,,,,,,,,,,,,,,,,,,,,,,,,,,,,,,,,,,,
,,,,,,,,,667e000c4bfb9ea4c3e01d66,spanish,13 or older,"no, only English or Spanish",yes,2025-07-23_16h40.01.289,empathy_intonation_perc,2024.2.4,Win32,59.52380952,667e000c4bfb9ea4c3e01d66,687ed1b7e638a4cbf2f02089,688147b552fc52027fea529d,,,,,,,,,,,,,27,1,,./stim/wavs/castilian_mismatch_interrogative-total-yn_Mi-madre-come-la-fruta.wav,,,,,,,,,,,,,,,,,,,,,,291.6956,295.5044,1,1,3.272,,0,2,2,26,1,0,castilian,,,,,,,,,,,,,,,,,,,,,,,,,,,,,,,,,,,,,,,,,,,,,,,,,,,,,,,,
,,,,,,,,,667e000c4bfb9ea4c3e01d66,spanish,13 or older,"no, only English or Spanish",yes,2025-07-23_16h40.01.289,empathy_intonation_perc,2024.2.4,Win32,59.52380952,667e000c4bfb9ea4c3e01d66,687ed1b7e638a4cbf2f02089,688147b552fc52027fea529d,,,,,,,,,,,,,69,0,,./stim/wavs/castilian_mismatch_declarative-broad-focus_El-nino-oye-el-rio.wav,,,,,,,,,,,,,,,,,,,,,,295.5062,299.7089,0,1,3.6646,,0,3,3,68,1,0,castilian,,,,,,,,,,,,,,,,,,,,,,,,,,,,,,,,,,,,,,,,,,,,,,,,,,,,,,,,
,,,,,,,,,667e000c4bfb9ea4c3e01d66,spanish,13 or older,"no, only English or Spanish",yes,2025-07-23_16h40.01.289,empathy_intonation_perc,2024.2.4,Win32,59.52380952,667e000c4bfb9ea4c3e01d66,687ed1b7e638a4cbf2f02089,688147b552fc52027fea529d,,,,,,,,,,,,,87,0,,./stim/wavs/puertorican_mismatch_declarative-broad-focus_La-maestra-vive-en-Paris.wav,,,,,,,,,,,,,,,,,,,,,,299.711,304.4819,0,1,4.2344,,0,4,4,86,1,0,puertorican,,,,,,,,,,,,,,,,,,,,,,,,,,,,,,,,,,,,,,,,,,,,,,,,,,,,,,,,
,,,,,,,,,667e000c4bfb9ea4c3e01d66,spanish,13 or older,"no, only English or Spanish",yes,2025-07-23_16h40.01.289,empathy_intonation_perc,2024.2.4,Win32,59.52380952,667e000c4bfb9ea4c3e01d66,687ed1b7e638a4cbf2f02089,688147b552fc52027fea529d,,,,,,,,,,,,,4,1,,./stim/wavs/castilian_match_interrogative-total-yn_Maria-bebe-el-vino.wav,,,,,,,,,,,,,,,,,,,,,,304.4853,307.8674,1,1,2.8572,,0,5,5,3,1,0,castilian,,,,,,,,,,,,,,,,,,,,,,,,,,,,,,,,,,,,,,,,,,,,,,,,,,,,,,,,
,,,,,,,,,667e000c4bfb9ea4c3e01d66,spanish,13 or older,"no, only English or Spanish",yes,2025-07-23_16h40.01.289,empathy_intonation_perc,2024.2.4,Win32,59.52380952,667e000c4bfb9ea4c3e01d66,687ed1b7e638a4cbf2f02089,688147b552fc52027fea529d,,,,,,,,,,,,,12,1,,./stim/wavs/cuban_match_interrogative-total-yn_Marta-abre-el-regalo.wav,,,,,,,,,,,,,,,,,,,,,,307.8693,311.5928,0,0,3.2002,,0,6,6,11,1,1,cuban,,,,,,,,,,,,,,,,,,,,,,,,,,,,,,,,,,,,,,,,,,,,,,,,,,,,,,,,
,,,,,,,,,667e000c4bfb9ea4c3e01d66,spanish,13 or older,"no, only English or Spanish",yes,2025-07-23_16h40.01.289,empathy_intonation_perc,2024.2.4,Win32,59.52380952,667e000c4bfb9ea4c3e01d66,687ed1b7e638a4cbf2f02089,688147b552fc52027fea529d,,,,,,,,,,,,,49,0,,./stim/wavs/castilian_match_declarative-broad-focus_Mariano-habla-del-tiempo.wav,,,,,,,,,,,,,,,,,,,,,,311.5953,315.9756,1,0,3.8437,,0,7,7,48,1,0,castilian,,,,,,,,,,,,,,,,,,,,,,,,,,,,,,,,,,,,,,,,,,,,,,,,,,,,,,,,
,,,,,,,,,667e000c4bfb9ea4c3e01d66,spanish,13 or older,"no, only English or Spanish",yes,2025-07-23_16h40.01.289,empathy_intonation_perc,2024.2.4,Win32,59.52380952,667e000c4bfb9ea4c3e01d66,687ed1b7e638a4cbf2f02089,688147b552fc52027fea529d,,,,,,,,,,,,,68,0,,./stim/wavs/puertorican_match_declarative-broad-focus_Maria-bebe-el-vino.wav,,,,,,,,,,,,,,,,,,,,,,315.9762,324.0383,0,1,7.5367,,0,8,8,67,1,0,puertorican,,,,,,,,,,,,,,,,,,,,,,,,,,,,,,,,,,,,,,,,,,,,,,,,,,,,,,,,
,,,,,,,,,667e000c4bfb9ea4c3e01d66,spanish,13 or older,"no, only English or Spanish",yes,2025-07-23_16h40.01.289,empathy_intonation_perc,2024.2.4,Win32,59.52380952,667e000c4bfb9ea4c3e01d66,687ed1b7e638a4cbf2f02089,688147b552fc52027fea529d,,,,,,,,,,,,,53,0,,./stim/wavs/cuban_match_declarative-broad-focus_Manuela-vende-el-carro.wav,,,,,,,,,,,,,,,,,,,,,,324.0402,327.6404,1,0,3.0671,,0,9,9,52,1,0,cuban,,,,,,,,,,,,,,,,,,,,,,,,,,,,,,,,,,,,,,,,,,,,,,,,,,,,,,,,
,,,,,,,,,667e000c4bfb9ea4c3e01d66,spanish,13 or older,"no, only English or Spanish",yes,2025-07-23_16h40.01.289,empathy_intonation_perc,2024.2.4,Win32,59.52380952,667e000c4bfb9ea4c3e01d66,687ed1b7e638a4cbf2f02089,688147b552fc52027fea529d,,,,,,,,,,,,,15,1,,./stim/wavs/mexican_match_interrogative-total-yn_David-leia-el-libro.wav,,,,,,,,,,,,,,,,,,,,,,327.6422,330.9441,1,1,2.7705,,0,10,10,14,1,0,mexican,,,,,,,,,,,,,,,,,,,,,,,,,,,,,,,,,,,,,,,,,,,,,,,,,,,,,,,,
,,,,,,,,,667e000c4bfb9ea4c3e01d66,spanish,13 or older,"no, only English or Spanish",yes,2025-07-23_16h40.01.289,empathy_intonation_perc,2024.2.4,Win32,59.52380952,667e000c4bfb9ea4c3e01d66,687ed1b7e638a4cbf2f02089,688147b552fc52027fea529d,,,,,,,,,,,,,40,1,,./stim/wavs/puertorican_mismatch_interrogative-total-yn_El-hombre-mira-la-luna.wav,,,,,,,,,,,,,,,,,,,,,,330.9461,334.0591,1,1,2.5805,,0,11,11,39,1,1,puertorican,,,,,,,,,,,,,,,,,,,,,,,,,,,,,,,,,,,,,,,,,,,,,,,,,,,,,,,,
,,,,,,,,,667e000c4bfb9ea4c3e01d66,spanish,13 or older,"no, only English or Spanish",yes,2025-07-23_16h40.01.289,empathy_intonation_perc,2024.2.4,Win32,59.52380952,667e000c4bfb9ea4c3e01d66,687ed1b7e638a4cbf2f02089,688147b552fc52027fea529d,,,,,,,,,,,,,59,0,,./stim/wavs/mexican_match_declarative-broad-focus_David-leia-el-libro.wav,,,,,,,,,,,,,,,,,,,,,,334.0613,339.255,1,0,4.6637,,0,12,12,58,1,0,mexican,,,,,,,,,,,,,,,,,,,,,,,,,,,,,,,,,,,,,,,,,,,,,,,,,,,,,,,,
,,,,,,,,,667e000c4bfb9ea4c3e01d66,spanish,13 or older,"no, only English or Spanish",yes,2025-07-23_16h40.01.289,empathy_intonation_perc,2024.2.4,Win32,59.52380952,667e000c4bfb9ea4c3e01d66,687ed1b7e638a4cbf2f02089,688147b552fc52027fea529d,,,,,,,,,,,,,65,0,,./stim/wavs/puertorican_match_declarative-broad-focus_David-leia-el-libro.wav,,,,,,,,,,,,,,,,,,,,,,339.2568,342.767,0,1,2.9901,,0,13,13,64,1,0,puertorican,,,,,,,,,,,,,,,,,,,,,,,,,,,,,,,,,,,,,,,,,,,,,,,,,,,,,,,,
,,,,,,,,,667e000c4bfb9ea4c3e01d66,spanish,13 or older,"no, only English or Spanish",yes,2025-07-23_16h40.01.289,empathy_intonation_perc,2024.2.4,Win32,59.52380952,667e000c4bfb9ea4c3e01d66,687ed1b7e638a4cbf2f02089,688147b552fc52027fea529d,,,,,,,,,,,,,2,1,,./stim/wavs/castilian_match_interrogative-total-yn_Emilio-ama-la-marcha.wav,,,,,,,,,,,,,,,,,,,,,,342.7683,347.1369,0,0,3.8261,,0,14,14,1,1,0,castilian,,,,,,,,,,,,,,,,,,,,,,,,,,,,,,,,,,,,,,,,,,,,,,,,,,,,,,,,
,,,,,,,,,667e000c4bfb9ea4c3e01d66,spanish,13 or older,"no, only English or Spanish",yes,2025-07-23_16h40.01.289,empathy_intonation_perc,2024.2.4,Win32,59.52380952,667e000c4bfb9ea4c3e01d66,687ed1b7e638a4cbf2f02089,688147b552fc52027fea529d,,,,,,,,,,,,,44,1,,./stim/wavs/puertorican_mismatch_interrogative-total-yn_Mi-madre-come-la-fruta.wav,,,,,,,,,,,,,,,,,,,,,,347.1394,350.4047,1,1,2.7417,,0,15,15,43,1,1,puertorican,,,,,,,,,,,,,,,,,,,,,,,,,,,,,,,,,,,,,,,,,,,,,,,,,,,,,,,,
,,,,,,,,,667e000c4bfb9ea4c3e01d66,spanish,13 or older,"no, only English or Spanish",yes,2025-07-23_16h40.01.289,empathy_intonation_perc,2024.2.4,Win32,59.52380952,667e000c4bfb9ea4c3e01d66,687ed1b7e638a4cbf2f02089,688147b552fc52027fea529d,,,,,,,,,,,,,80,0,,./stim/wavs/mexican_mismatch_declarative-broad-focus_El-hombre-mira-la-luna.wav,,,,,,,,,,,,,,,,,,,,,,350.4066,354.2046,0,1,3.2702,,0,16,16,79,1,0,mexican,,,,,,,,,,,,,,,,,,,,,,,,,,,,,,,,,,,,,,,,,,,,,,,,,,,,,,,,
,,,,,,,,,667e000c4bfb9ea4c3e01d66,spanish,13 or older,"no, only English or Spanish",yes,2025-07-23_16h40.01.289,empathy_intonation_perc,2024.2.4,Win32,59.52380952,667e000c4bfb9ea4c3e01d66,687ed1b7e638a4cbf2f02089,688147b552fc52027fea529d,,,,,,,,,,,,,22,1,,./stim/wavs/puertorican_match_interrogative-total-yn_Emilio-ama-la-marcha.wav,,,,,,,,,,,,,,,,,,,,,,354.2067,357.6225,1,1,2.8877,,0,17,17,21,1,1,puertorican,,,,,,,,,,,,,,,,,,,,,,,,,,,,,,,,,,,,,,,,,,,,,,,,,,,,,,,,
,,,,,,,,,667e000c4bfb9ea4c3e01d66,spanish,13 or older,"no, only English or Spanish",yes,2025-07-23_16h40.01.289,empathy_intonation_perc,2024.2.4,Win32,59.52380952,667e000c4bfb9ea4c3e01d66,687ed1b7e638a4cbf2f02089,688147b552fc52027fea529d,,,,,,,,,,,,,50,0,,./stim/wavs/castilian_match_declarative-broad-focus_Marta-abre-el-regalo.wav,,,,,,,,,,,,,,,,,,,,,,357.623,360.6105,0,1,2.4621,,0,18,18,49,1,0,castilian,,,,,,,,,,,,,,,,,,,,,,,,,,,,,,,,,,,,,,,,,,,,,,,,,,,,,,,,
,,,,,,,,,667e000c4bfb9ea4c3e01d66,spanish,13 or older,"no, only English or Spanish",yes,2025-07-23_16h40.01.289,empathy_intonation_perc,2024.2.4,Win32,59.52380952,667e000c4bfb9ea4c3e01d66,687ed1b7e638a4cbf2f02089,688147b552fc52027fea529d,,,,,,,,,,,,,41,1,,./stim/wavs/puertorican_mismatch_interrogative-total-yn_El-nino-oye-el-rio.wav,,,,,,,,,,,,,,,,,,,,,,360.6124,363.7142,1,1,2.5815,,0,19,19,40,1,1,puertorican,,,,,,,,,,,,,,,,,,,,,,,,,,,,,,,,,,,,,,,,,,,,,,,,,,,,,,,,
,,,,,,,,,667e000c4bfb9ea4c3e01d66,spanish,13 or older,"no, only English or Spanish",yes,2025-07-23_16h40.01.289,empathy_intonation_perc,2024.2.4,Win32,59.52380952,667e000c4bfb9ea4c3e01d66,687ed1b7e638a4cbf2f02089,688147b552fc52027fea529d,,,,,,,,,,,,,64,0,,./stim/wavs/puertorican_match_declarative-broad-focus_Daniel-iba-a-Bolivia.wav,,,,,,,,,,,,,,,,,,,,,,363.7165,366.7527,0,1,2.5153,,0,20,20,63,1,0,puertorican,,,,,,,,,,,,,,,,,,,,,,,,,,,,,,,,,,,,,,,,,,,,,,,,,,,,,,,,
,,,,,,,,,667e000c4bfb9ea4c3e01d66,spanish,13 or older,"no, only English or Spanish",yes,2025-07-23_16h40.01.289,empathy_intonation_perc,2024.2.4,Win32,59.52380952,667e000c4bfb9ea4c3e01d66,687ed1b7e638a4cbf2f02089,688147b552fc52027fea529d,,,,,,,,,,,,,70,0,,./stim/wavs/castilian_mismatch_declarative-broad-focus_La-maestra-vive-en-Paris.wav,,,,,,,,,,,,,,,,,,,,,,366.7549,370.12,0,1,2.8444,,0,21,21,69,1,0,castilian,,,,,,,,,,,,,,,,,,,,,,,,,,,,,,,,,,,,,,,,,,,,,,,,,,,,,,,,
,,,,,,,,,667e000c4bfb9ea4c3e01d66,spanish,13 or older,"no, only English or Spanish",yes,2025-07-23_16h40.01.289,empathy_intonation_perc,2024.2.4,Win32,59.52380952,667e000c4bfb9ea4c3e01d66,687ed1b7e638a4cbf2f02089,688147b552fc52027fea529d,,,,,,,,,,,,,31,1,,./stim/wavs/cuban_mismatch_interrogative-total-yn_El-nino-oye-el-rio.wav,,,,,,,,,,,,,,,,,,,,,,370.1206,373.6589,0,0,3.0068,,0,22,22,30,1,1,cuban,,,,,,,,,,,,,,,,,,,,,,,,,,,,,,,,,,,,,,,,,,,,,,,,,,,,,,,,
,,,,,,,,,667e000c4bfb9ea4c3e01d66,spanish,13 or older,"no, only English or Spanish",yes,2025-07-23_16h40.01.289,empathy_intonation_perc,2024.2.4,Win32,59.52380952,667e000c4bfb9ea4c3e01d66,687ed1b7e638a4cbf2f02089,688147b552fc52027fea529d,,,,,,,,,,,,,81,0,,./stim/wavs/mexican_mismatch_declarative-broad-focus_La-maestra-vive-en-Paris.wav,,,,,,,,,,,,,,,,,,,,,,373.6612,376.8061,0,1,2.619,,0,23,23,80,1,0,mexican,,,,,,,,,,,,,,,,,,,,,,,,,,,,,,,,,,,,,,,,,,,,,,,,,,,,,,,,
,,,,,,,,,667e000c4bfb9ea4c3e01d66,spanish,13 or older,"no, only English or Spanish",yes,2025-07-23_16h40.01.289,empathy_intonation_perc,2024.2.4,Win32,59.52380952,667e000c4bfb9ea4c3e01d66,687ed1b7e638a4cbf2f02089,688147b552fc52027fea529d,,,,,,,,,,,,,1,1,,./stim/wavs/castilian_match_interrogative-total-yn_David-leia-el-libro.wav,,,,,,,,,,,,,,,,,,,,,,376.8081,379.9111,1,1,2.5698,,0,24,24,0,1,0,castilian,,,,,,,,,,,,,,,,,,,,,,,,,,,,,,,,,,,,,,,,,,,,,,,,,,,,,,,,
,,,,,,,,,667e000c4bfb9ea4c3e01d66,spanish,13 or older,"no, only English or Spanish",yes,2025-07-23_16h40.01.289,empathy_intonation_perc,2024.2.4,Win32,59.52380952,667e000c4bfb9ea4c3e01d66,687ed1b7e638a4cbf2f02089,688147b552fc52027fea529d,,,,,,,,,,,,,32,1,,./stim/wavs/cuban_mismatch_interrogative-total-yn_Mi-madre-come-la-fruta.wav,,,,,,,,,,,,,,,,,,,,,,379.9131,383.1632,0,0,2.7216,,0,25,25,31,1,1,cuban,,,,,,,,,,,,,,,,,,,,,,,,,,,,,,,,,,,,,,,,,,,,,,,,,,,,,,,,
,,,,,,,,,667e000c4bfb9ea4c3e01d66,spanish,13 or older,"no, only English or Spanish",yes,2025-07-23_16h40.01.289,empathy_intonation_perc,2024.2.4,Win32,59.52380952,667e000c4bfb9ea4c3e01d66,687ed1b7e638a4cbf2f02089,688147b552fc52027fea529d,,,,,,,,,,,,,6,1,,./stim/wavs/castilian_match_interrogative-total-yn_Marta-abre-el-regalo.wav,,,,,,,,,,,,,,,,,,,,,,383.1654,386.7763,0,0,3.0873,,0,26,26,5,1,0,castilian,,,,,,,,,,,,,,,,,,,,,,,,,,,,,,,,,,,,,,,,,,,,,,,,,,,,,,,,
,,,,,,,,,667e000c4bfb9ea4c3e01d66,spanish,13 or older,"no, only English or Spanish",yes,2025-07-23_16h40.01.289,empathy_intonation_perc,2024.2.4,Win32,59.52380952,667e000c4bfb9ea4c3e01d66,687ed1b7e638a4cbf2f02089,688147b552fc52027fea529d,,,,,,,,,,,,,84,0,,./stim/wavs/puertorican_mismatch_declarative-broad-focus_El-bebe-comia-muy-bien.wav,,,,,,,,,,,,,,,,,,,,,,386.7785,389.8564,0,1,2.5438,,0,27,27,83,1,0,puertorican,,,,,,,,,,,,,,,,,,,,,,,,,,,,,,,,,,,,,,,,,,,,,,,,,,,,,,,,
,,,,,,,,,667e000c4bfb9ea4c3e01d66,spanish,13 or older,"no, only English or Spanish",yes,2025-07-23_16h40.01.289,empathy_intonation_perc,2024.2.4,Win32,59.52380952,667e000c4bfb9ea4c3e01d66,687ed1b7e638a4cbf2f02089,688147b552fc52027fea529d,,,,,,,,,,,,,55,0,,./stim/wavs/cuban_match_declarative-broad-focus_Mariano-habla-del-tiempo.wav,,,,,,,,,,,,,,,,,,,,,,389.8584,394.6743,0,1,4.2831,,0,28,28,54,1,0,cuban,,,,,,,,,,,,,,,,,,,,,,,,,,,,,,,,,,,,,,,,,,,,,,,,,,,,,,,,
,,,,,,,,,667e000c4bfb9ea4c3e01d66,spanish,13 or older,"no, only English or Spanish",yes,2025-07-23_16h40.01.289,empathy_intonation_perc,2024.2.4,Win32,59.52380952,667e000c4bfb9ea4c3e01d66,687ed1b7e638a4cbf2f02089,688147b552fc52027fea529d,,,,,,,,,,,,,26,1,,./stim/wavs/castilian_mismatch_interrogative-total-yn_La-nina-lava-el-plato.wav,,,,,,,,,,,,,,,,,,,,,,394.6771,397.8481,1,1,2.6353,,0,29,29,25,1,0,castilian,,,,,,,,,,,,,,,,,,,,,,,,,,,,,,,,,,,,,,,,,,,,,,,,,,,,,,,,
,,,,,,,,,667e000c4bfb9ea4c3e01d66,spanish,13 or older,"no, only English or Spanish",yes,2025-07-23_16h40.01.289,empathy_intonation_perc,2024.2.4,Win32,59.52380952,667e000c4bfb9ea4c3e01d66,687ed1b7e638a4cbf2f02089,688147b552fc52027fea529d,,,,,,,,,,,,,78,0,,./stim/wavs/cuban_mismatch_declarative-broad-focus_Mi-tia-odia-la-lluvia.wav,,,,,,,,,,,,,,,,,,,,,,397.85,401.001,0,1,2.6221,,0,30,30,77,1,0,cuban,,,,,,,,,,,,,,,,,,,,,,,,,,,,,,,,,,,,,,,,,,,,,,,,,,,,,,,,
,,,,,,,,,667e000c4bfb9ea4c3e01d66,spanish,13 or older,"no, only English or Spanish",yes,2025-07-23_16h40.01.289,empathy_intonation_perc,2024.2.4,Win32,59.52380952,667e000c4bfb9ea4c3e01d66,687ed1b7e638a4cbf2f02089,688147b552fc52027fea529d,,,,,,,,,,,,,46,0,,./stim/wavs/castilian_match_declarative-broad-focus_Emilio-ama-la-marcha.wav,,,,,,,,,,,,,,,,,,,,,,401.003,403.9439,1,0,2.4019,,0,31,31,45,1,0,castilian,,,,,,,,,,,,,,,,,,,,,,,,,,,,,,,,,,,,,,,,,,,,,,,,,,,,,,,,
,,,,,,,,,667e000c4bfb9ea4c3e01d66,spanish,13 or older,"no, only English or Spanish",yes,2025-07-23_16h40.01.289,empathy_intonation_perc,2024.2.4,Win32,59.52380952,667e000c4bfb9ea4c3e01d66,687ed1b7e638a4cbf2f02089,688147b552fc52027fea529d,,,,,,,,,,,,,25,1,,./stim/wavs/castilian_mismatch_interrogative-total-yn_La-maestra-vive-en-Paris.wav,,,,,,,,,,,,,,,,,,,,,,403.9457,407.3227,0,0,2.8488,,0,32,32,24,1,0,castilian,,,,,,,,,,,,,,,,,,,,,,,,,,,,,,,,,,,,,,,,,,,,,,,,,,,,,,,,
,,,,,,,,,667e000c4bfb9ea4c3e01d66,spanish,13 or older,"no, only English or Spanish",yes,2025-07-23_16h40.01.289,empathy_intonation_perc,2024.2.4,Win32,59.52380952,667e000c4bfb9ea4c3e01d66,687ed1b7e638a4cbf2f02089,688147b552fc52027fea529d,,,,,,,,,,,,,82,0,,./stim/wavs/mexican_mismatch_declarative-broad-focus_Mi-novio-viene-del-lago.wav,,,,,,,,,,,,,,,,,,,,,,407.3253,410.7845,0,1,2.932,,0,33,33,81,1,0,mexican,,,,,,,,,,,,,,,,,,,,,,,,,,,,,,,,,,,,,,,,,,,,,,,,,,,,,,,,
,,,,,,,,,667e000c4bfb9ea4c3e01d66,spanish,13 or older,"no, only English or Spanish",yes,2025-07-23_16h40.01.289,empathy_intonation_perc,2024.2.4,Win32,59.52380952,667e000c4bfb9ea4c3e01d66,687ed1b7e638a4cbf2f02089,688147b552fc52027fea529d,,,,,,,,,,,,,88,0,,./stim/wavs/puertorican_mismatch_declarative-broad-focus_La-nina-lava-el-plato.wav,,,,,,,,,,,,,,,,,,,,,,410.7865,414.0783,0,1,2.7547,,0,34,34,87,1,0,puertorican,,,,,,,,,,,,,,,,,,,,,,,,,,,,,,,,,,,,,,,,,,,,,,,,,,,,,,,,
,,,,,,,,,667e000c4bfb9ea4c3e01d66,spanish,13 or older,"no, only English or Spanish",yes,2025-07-23_16h40.01.289,empathy_intonation_perc,2024.2.4,Win32,59.52380952,667e000c4bfb9ea4c3e01d66,687ed1b7e638a4cbf2f02089,688147b552fc52027fea529d,,,,,,,,,,,,,17,1,,./stim/wavs/mexican_match_interrogative-total-yn_Mariano-habla-del-tiempo.wav,,,,,,,,,,,,,,,,,,,,,,414.0802,416.6837,1,1,2.0644,,0,35,35,16,1,0,mexican,,,,,,,,,,,,,,,,,,,,,,,,,,,,,,,,,,,,,,,,,,,,,,,,,,,,,,,,
,,,,,,,,,667e000c4bfb9ea4c3e01d66,spanish,13 or older,"no, only English or Spanish",yes,2025-07-23_16h40.01.289,empathy_intonation_perc,2024.2.4,Win32,59.52380952,667e000c4bfb9ea4c3e01d66,687ed1b7e638a4cbf2f02089,688147b552fc52027fea529d,,,,,,,,,,,,,29,1,,./stim/wavs/castilian_mismatch_interrogative-total-yn_Mi-tia-odia-la-lluvia.wav,,,,,,,,,,,,,,,,,,,,,,416.6857,421.3261,1,1,4.1188,,0,36,36,28,1,0,castilian,,,,,,,,,,,,,,,,,,,,,,,,,,,,,,,,,,,,,,,,,,,,,,,,,,,,,,,,
,,,,,,,,,667e000c4bfb9ea4c3e01d66,spanish,13 or older,"no, only English or Spanish",yes,2025-07-23_16h40.01.289,empathy_intonation_perc,2024.2.4,Win32,59.52380952,667e000c4bfb9ea4c3e01d66,687ed1b7e638a4cbf2f02089,688147b552fc52027fea529d,,,,,,,,,,,,,14,1,,./stim/wavs/mexican_match_interrogative-total-yn_Daniel-iba-a-Bolivia.wav,,,,,,,,,,,,,,,,,,,,,,421.3277,424.5634,0,0,2.7138,,0,37,37,13,1,0,mexican,,,,,,,,,,,,,,,,,,,,,,,,,,,,,,,,,,,,,,,,,,,,,,,,,,,,,,,,
,,,,,,,,,667e000c4bfb9ea4c3e01d66,spanish,13 or older,"no, only English or Spanish",yes,2025-07-23_16h40.01.289,empathy_intonation_perc,2024.2.4,Win32,59.52380952,667e000c4bfb9ea4c3e01d66,687ed1b7e638a4cbf2f02089,688147b552fc52027fea529d,,,,,,,,,,,,,61,0,,./stim/wavs/mexican_match_declarative-broad-focus_Mariano-habla-del-tiempo.wav,,,,,,,,,,,,,,,,,,,,,,424.5662,427.7684,0,1,2.6716,,0,38,38,60,1,0,mexican,,,,,,,,,,,,,,,,,,,,,,,,,,,,,,,,,,,,,,,,,,,,,,,,,,,,,,,,
,,,,,,,,,667e000c4bfb9ea4c3e01d66,spanish,13 or older,"no, only English or Spanish",yes,2025-07-23_16h40.01.289,empathy_intonation_perc,2024.2.4,Win32,59.52380952,667e000c4bfb9ea4c3e01d66,687ed1b7e638a4cbf2f02089,688147b552fc52027fea529d,,,,,,,,,,,,,79,0,,./stim/wavs/mexican_mismatch_declarative-broad-focus_El-bebe-comia-muy-bien.wav,,,,,,,,,,,,,,,,,,,,,,427.7708,431.1797,0,1,2.8793,,0,39,39,78,1,0,mexican,,,,,,,,,,,,,,,,,,,,,,,,,,,,,,,,,,,,,,,,,,,,,,,,,,,,,,,,
,,,,,,,,,667e000c4bfb9ea4c3e01d66,spanish,13 or older,"no, only English or Spanish",yes,2025-07-23_16h40.01.289,empathy_intonation_perc,2024.2.4,Win32,59.52380952,667e000c4bfb9ea4c3e01d66,687ed1b7e638a4cbf2f02089,688147b552fc52027fea529d,,,,,,,,,,,,,19,1,,./stim/wavs/puertorican_match_interrogative-total-yn_Ana-lleva-el-abrigo.wav,,,,,,,,,,,,,,,,,,,,,,431.1802,434.269,1,1,2.5763,,0,40,40,18,1,1,puertorican,,,,,,,,,,,,,,,,,,,,,,,,,,,,,,,,,,,,,,,,,,,,,,,,,,,,,,,,
,,,,,,,,,667e000c4bfb9ea4c3e01d66,spanish,13 or older,"no, only English or Spanish",yes,2025-07-23_16h40.01.289,empathy_intonation_perc,2024.2.4,Win32,59.52380952,667e000c4bfb9ea4c3e01d66,687ed1b7e638a4cbf2f02089,688147b552fc52027fea529d,,,,,,,,,,,,,5,1,,./stim/wavs/castilian_match_interrogative-total-yn_Mariano-habla-del-tiempo.wav,,,,,,,,,,,,,,,,,,,,,,434.2717,437.2349,0,0,2.4227,,0,41,41,4,1,0,castilian,,,,,,,,,,,,,,,,,,,,,,,,,,,,,,,,,,,,,,,,,,,,,,,,,,,,,,,,
,,,,,,,,,667e000c4bfb9ea4c3e01d66,spanish,13 or older,"no, only English or Spanish",yes,2025-07-23_16h40.01.289,empathy_intonation_perc,2024.2.4,Win32,59.52380952,667e000c4bfb9ea4c3e01d66,687ed1b7e638a4cbf2f02089,688147b552fc52027fea529d,,,,,,,,,,,,,52,0,,./stim/wavs/cuban_match_declarative-broad-focus_Daniel-iba-a-Bolivia.wav,,,,,,,,,,,,,,,,,,,,,,437.2369,440.4915,0,1,2.7255,,0,42,42,51,1,0,cuban,,,,,,,,,,,,,,,,,,,,,,,,,,,,,,,,,,,,,,,,,,,,,,,,,,,,,,,,
,,,,,,,,,667e000c4bfb9ea4c3e01d66,spanish,13 or older,"no, only English or Spanish",yes,2025-07-23_16h40.01.289,empathy_intonation_perc,2024.2.4,Win32,59.52380952,667e000c4bfb9ea4c3e01d66,687ed1b7e638a4cbf2f02089,688147b552fc52027fea529d,,,,,,,,,,,,,38,1,,./stim/wavs/mexican_mismatch_interrogative-total-yn_Mi-novio-viene-del-lago.wav,,,,,,,,,,,,,,,,,,,,,,440.4936,445.198,0,0,4.1825,,0,43,43,37,1,0,mexican,,,,,,,,,,,,,,,,,,,,,,,,,,,,,,,,,,,,,,,,,,,,,,,,,,,,,,,,
,,,,,,,,,667e000c4bfb9ea4c3e01d66,spanish,13 or older,"no, only English or Spanish",yes,2025-07-23_16h40.01.289,empathy_intonation_perc,2024.2.4,Win32,59.52380952,667e000c4bfb9ea4c3e01d66,687ed1b7e638a4cbf2f02089,688147b552fc52027fea529d,,,,,,,,,,,,,45,0,,./stim/wavs/castilian_match_declarative-broad-focus_David-leia-el-libro.wav,,,,,,,,,,,,,,,,,,,,,,445.2003,448.4286,0,1,2.6947,,0,44,44,44,1,0,castilian,,,,,,,,,,,,,,,,,,,,,,,,,,,,,,,,,,,,,,,,,,,,,,,,,,,,,,,,
,,,,,,,,,667e000c4bfb9ea4c3e01d66,spanish,13 or older,"no, only English or Spanish",yes,2025-07-23_16h40.01.289,empathy_intonation_perc,2024.2.4,Win32,59.52380952,667e000c4bfb9ea4c3e01d66,687ed1b7e638a4cbf2f02089,688147b552fc52027fea529d,,,,,,,,,,,,,67,0,,./stim/wavs/puertorican_match_declarative-broad-focus_Manuela-vende-el-carro.wav,,,,,,,,,,,,,,,,,,,,,,448.4302,451.7074,0,1,2.7425,,0,45,45,66,1,0,puertorican,,,,,,,,,,,,,,,,,,,,,,,,,,,,,,,,,,,,,,,,,,,,,,,,,,,,,,,,
,,,,,,,,,667e000c4bfb9ea4c3e01d66,spanish,13 or older,"no, only English or Spanish",yes,2025-07-23_16h40.01.289,empathy_intonation_perc,2024.2.4,Win32,59.52380952,667e000c4bfb9ea4c3e01d66,687ed1b7e638a4cbf2f02089,688147b552fc52027fea529d,,,,,,,,,,,,,51,0,,./stim/wavs/cuban_match_declarative-broad-focus_Ana-lleva-el-abrigo.wav,,,,,,,,,,,,,,,,,,,,,,451.7091,454.6514,0,1,2.4106,,0,46,46,50,1,0,cuban,,,,,,,,,,,,,,,,,,,,,,,,,,,,,,,,,,,,,,,,,,,,,,,,,,,,,,,,
,,,,,,,,,667e000c4bfb9ea4c3e01d66,spanish,13 or older,"no, only English or Spanish",yes,2025-07-23_16h40.01.289,empathy_intonation_perc,2024.2.4,Win32,59.52380952,667e000c4bfb9ea4c3e01d66,687ed1b7e638a4cbf2f02089,688147b552fc52027fea529d,,,,,,,,,,,,,20,1,,./stim/wavs/puertorican_match_interrogative-total-yn_Daniel-iba-a-Bolivia.wav,,,,,,,,,,,,,,,,,,,,,,454.6538,458.2585,0,0,3.0756,,0,47,47,19,1,1,puertorican,,,,,,,,,,,,,,,,,,,,,,,,,,,,,,,,,,,,,,,,,,,,,,,,,,,,,,,,
,,,,,,,,,667e000c4bfb9ea4c3e01d66,spanish,13 or older,"no, only English or Spanish",yes,2025-07-23_16h40.01.289,empathy_intonation_perc,2024.2.4,Win32,59.52380952,667e000c4bfb9ea4c3e01d66,687ed1b7e638a4cbf2f02089,688147b552fc52027fea529d,,,,,,,,,,,,,60,0,,./stim/wavs/mexican_match_declarative-broad-focus_Emilio-ama-la-marcha.wav,,,,,,,,,,,,,,,,,,,,,,458.2609,461.5264,0,1,2.7439,,0,48,48,59,1,0,mexican,,,,,,,,,,,,,,,,,,,,,,,,,,,,,,,,,,,,,,,,,,,,,,,,,,,,,,,,
,,,,,,,,,667e000c4bfb9ea4c3e01d66,spanish,13 or older,"no, only English or Spanish",yes,2025-07-23_16h40.01.289,empathy_intonation_perc,2024.2.4,Win32,59.52380952,667e000c4bfb9ea4c3e01d66,687ed1b7e638a4cbf2f02089,688147b552fc52027fea529d,,,,,,,,,,,,,43,1,,./stim/wavs/puertorican_mismatch_interrogative-total-yn_La-nina-lava-el-plato.wav,,,,,,,,,,,,,,,,,,,,,,461.5289,464.3315,1,1,2.2731,,0,49,49,42,1,1,puertorican,,,,,,,,,,,,,,,,,,,,,,,,,,,,,,,,,,,,,,,,,,,,,,,,,,,,,,,,
,,,,,,,,,667e000c4bfb9ea4c3e01d66,spanish,13 or older,"no, only English or Spanish",yes,2025-07-23_16h40.01.289,empathy_intonation_perc,2024.2.4,Win32,59.52380952,667e000c4bfb9ea4c3e01d66,687ed1b7e638a4cbf2f02089,688147b552fc52027fea529d,,,,,,,,,,,,,39,1,,./stim/wavs/mexican_mismatch_interrogative-total-yn_Mi-tia-odia-la-lluvia.wav,,,,,,,,,,,,,,,,,,,,,,464.3334,468.0262,1,1,3.156,,0,50,50,38,1,0,mexican,,,,,,,,,,,,,,,,,,,,,,,,,,,,,,,,,,,,,,,,,,,,,,,,,,,,,,,,
,,,,,,,,,667e000c4bfb9ea4c3e01d66,spanish,13 or older,"no, only English or Spanish",yes,2025-07-23_16h40.01.289,empathy_intonation_perc,2024.2.4,Win32,59.52380952,667e000c4bfb9ea4c3e01d66,687ed1b7e638a4cbf2f02089,688147b552fc52027fea529d,,,,,,,,,,,,,8,1,,./stim/wavs/cuban_match_interrogative-total-yn_Daniel-iba-a-Bolivia.wav,,,,,,,,,,,,,,,,,,,,,,468.0278,471.249,1,1,2.6825,,0,51,51,7,1,1,cuban,,,,,,,,,,,,,,,,,,,,,,,,,,,,,,,,,,,,,,,,,,,,,,,,,,,,,,,,
,,,,,,,,,667e000c4bfb9ea4c3e01d66,spanish,13 or older,"no, only English or Spanish",yes,2025-07-23_16h40.01.289,empathy_intonation_perc,2024.2.4,Win32,59.52380952,667e000c4bfb9ea4c3e01d66,687ed1b7e638a4cbf2f02089,688147b552fc52027fea529d,,,,,,,,,,,,,13,1,,./stim/wavs/mexican_match_interrogative-total-yn_Ana-lleva-el-abrigo.wav,,,,,,,,,,,,,,,,,,,,,,471.2508,474.4585,1,1,2.6842,,0,52,52,12,1,0,mexican,,,,,,,,,,,,,,,,,,,,,,,,,,,,,,,,,,,,,,,,,,,,,,,,,,,,,,,,
,,,,,,,,,667e000c4bfb9ea4c3e01d66,spanish,13 or older,"no, only English or Spanish",yes,2025-07-23_16h40.01.289,empathy_intonation_perc,2024.2.4,Win32,59.52380952,667e000c4bfb9ea4c3e01d66,687ed1b7e638a4cbf2f02089,688147b552fc52027fea529d,,,,,,,,,,,,,74,0,,./stim/wavs/cuban_mismatch_declarative-broad-focus_El-bebe-comia-muy-bien.wav,,,,,,,,,,,,,,,,,,,,,,474.4599,477.3191,0,1,2.3298,,0,53,53,73,1,0,cuban,,,,,,,,,,,,,,,,,,,,,,,,,,,,,,,,,,,,,,,,,,,,,,,,,,,,,,,,
,,,,,,,,,667e000c4bfb9ea4c3e01d66,spanish,13 or older,"no, only English or Spanish",yes,2025-07-23_16h40.01.289,empathy_intonation_perc,2024.2.4,Win32,59.52380952,667e000c4bfb9ea4c3e01d66,687ed1b7e638a4cbf2f02089,688147b552fc52027fea529d,,,,,,,,,,,,,11,1,,./stim/wavs/cuban_match_interrogative-total-yn_Mariano-habla-del-tiempo.wav,,,,,,,,,,,,,,,,,,,,,,477.3209,480.1204,0,0,2.2707,,0,54,54,10,1,1,cuban,,,,,,,,,,,,,,,,,,,,,,,,,,,,,,,,,,,,,,,,,,,,,,,,,,,,,,,,
,,,,,,,,,667e000c4bfb9ea4c3e01d66,spanish,13 or older,"no, only English or Spanish",yes,2025-07-23_16h40.01.289,empathy_intonation_perc,2024.2.4,Win32,59.52380952,667e000c4bfb9ea4c3e01d66,687ed1b7e638a4cbf2f02089,688147b552fc52027fea529d,,,,,,,,,,,,,66,0,,./stim/wavs/puertorican_match_declarative-broad-focus_Emilio-ama-la-marcha.wav,,,,,,,,,,,,,,,,,,,,,,480.122,482.9442,0,1,2.2972,,0,55,55,65,1,0,puertorican,,,,,,,,,,,,,,,,,,,,,,,,,,,,,,,,,,,,,,,,,,,,,,,,,,,,,,,,
,,,,,,,,,667e000c4bfb9ea4c3e01d66,spanish,13 or older,"no, only English or Spanish",yes,2025-07-23_16h40.01.289,empathy_intonation_perc,2024.2.4,Win32,59.52380952,667e000c4bfb9ea4c3e01d66,687ed1b7e638a4cbf2f02089,688147b552fc52027fea529d,,,,,,,,,,,,,36,1,,./stim/wavs/mexican_mismatch_interrogative-total-yn_El-nino-oye-el-rio.wav,,,,,,,,,,,,,,,,,,,,,,482.946,486.0669,1,1,2.6001,,0,56,56,35,1,0,mexican,,,,,,,,,,,,,,,,,,,,,,,,,,,,,,,,,,,,,,,,,,,,,,,,,,,,,,,,
,,,,,,,,,667e000c4bfb9ea4c3e01d66,spanish,13 or older,"no, only English or Spanish",yes,2025-07-23_16h40.01.289,empathy_intonation_perc,2024.2.4,Win32,59.52380952,667e000c4bfb9ea4c3e01d66,687ed1b7e638a4cbf2f02089,688147b552fc52027fea529d,,,,,,,,,,,,,71,0,,./stim/wavs/castilian_mismatch_declarative-broad-focus_La-nina-lava-el-plato.wav,,,,,,,,,,,,,,,,,,,,,,486.0687,491.6726,0,1,5.0807,,0,57,57,70,1,0,castilian,,,,,,,,,,,,,,,,,,,,,,,,,,,,,,,,,,,,,,,,,,,,,,,,,,,,,,,,
,,,,,,,,,667e000c4bfb9ea4c3e01d66,spanish,13 or older,"no, only English or Spanish",yes,2025-07-23_16h40.01.289,empathy_intonation_perc,2024.2.4,Win32,59.52380952,667e000c4bfb9ea4c3e01d66,687ed1b7e638a4cbf2f02089,688147b552fc52027fea529d,,,,,,,,,,,,,24,1,,./stim/wavs/puertorican_match_interrogative-total-yn_Maria-bebe-el-vino.wav,,,,,,,,,,,,,,,,,,,,,,491.6732,495.532,1,1,3.3369,,0,58,58,23,1,1,puertorican,,,,,,,,,,,,,,,,,,,,,,,,,,,,,,,,,,,,,,,,,,,,,,,,,,,,,,,,
,,,,,,,,,667e000c4bfb9ea4c3e01d66,spanish,13 or older,"no, only English or Spanish",yes,2025-07-23_16h40.01.289,empathy_intonation_perc,2024.2.4,Win32,59.52380952,667e000c4bfb9ea4c3e01d66,687ed1b7e638a4cbf2f02089,688147b552fc52027fea529d,,,,,,,,,,,,,42,1,,./stim/wavs/puertorican_mismatch_interrogative-total-yn_La-maestra-vive-en-Paris.wav,,,,,,,,,,,,,,,,,,,,,,495.5343,498.3481,1,1,2.297,,0,59,59,41,1,1,puertorican,,,,,,,,,,,,,,,,,,,,,,,,,,,,,,,,,,,,,,,,,,,,,,,,,,,,,,,,
,,,,,,,,,667e000c4bfb9ea4c3e01d66,spanish,13 or older,"no, only English or Spanish",yes,2025-07-23_16h40.01.289,empathy_intonation_perc,2024.2.4,Win32,59.52380952,667e000c4bfb9ea4c3e01d66,687ed1b7e638a4cbf2f02089,688147b552fc52027fea529d,,,,,,,,,,,,,86,0,,./stim/wavs/puertorican_mismatch_declarative-broad-focus_El-nino-oye-el-rio.wav,,,,,,,,,,,,,,,,,,,,,,498.3499,503.1479,1,0,4.2662,,0,60,60,85,1,0,puertorican,,,,,,,,,,,,,,,,,,,,,,,,,,,,,,,,,,,,,,,,,,,,,,,,,,,,,,,,
,,,,,,,,,667e000c4bfb9ea4c3e01d66,spanish,13 or older,"no, only English or Spanish",yes,2025-07-23_16h40.01.289,empathy_intonation_perc,2024.2.4,Win32,59.52380952,667e000c4bfb9ea4c3e01d66,687ed1b7e638a4cbf2f02089,688147b552fc52027fea529d,,,,,,,,,,,,,54,0,,./stim/wavs/cuban_match_declarative-broad-focus_Maria-bebe-el-vino.wav,,,,,,,,,,,,,,,,,,,,,,503.1497,506.2477,0,1,2.5758,,0,61,61,53,1,0,cuban,,,,,,,,,,,,,,,,,,,,,,,,,,,,,,,,,,,,,,,,,,,,,,,,,,,,,,,,
,,,,,,,,,667e000c4bfb9ea4c3e01d66,spanish,13 or older,"no, only English or Spanish",yes,2025-07-23_16h40.01.289,empathy_intonation_perc,2024.2.4,Win32,59.52380952,667e000c4bfb9ea4c3e01d66,687ed1b7e638a4cbf2f02089,688147b552fc52027fea529d,,,,,,,,,,,,,23,1,,./stim/wavs/puertorican_match_interrogative-total-yn_Manuela-vende-el-carro.wav,,,,,,,,,,,,,,,,,,,,,,506.2494,509.3628,0,0,2.5761,,0,62,62,22,1,1,puertorican,,,,,,,,,,,,,,,,,,,,,,,,,,,,,,,,,,,,,,,,,,,,,,,,,,,,,,,,
,,,,,,,,,667e000c4bfb9ea4c3e01d66,spanish,13 or older,"no, only English or Spanish",yes,2025-07-23_16h40.01.289,empathy_intonation_perc,2024.2.4,Win32,59.52380952,667e000c4bfb9ea4c3e01d66,687ed1b7e638a4cbf2f02089,688147b552fc52027fea529d,,,,,,,,,,,,,47,0,,./stim/wavs/castilian_match_declarative-broad-focus_Manuela-vende-el-carro.wav,,,,,,,,,,,,,,,,,,,,,,509.3646,512.7065,1,0,2.8169,,0,63,63,46,1,0,castilian,,,,,,,,,,,,,,,,,,,,,,,,,,,,,,,,,,,,,,,,,,,,,,,,,,,,,,,,
,,,,,,,,,667e000c4bfb9ea4c3e01d66,spanish,13 or older,"no, only English or Spanish",yes,2025-07-23_16h40.01.289,empathy_intonation_perc,2024.2.4,Win32,59.52380952,667e000c4bfb9ea4c3e01d66,687ed1b7e638a4cbf2f02089,688147b552fc52027fea529d,,,,,,,,,,,,,75,0,,./stim/wavs/cuban_mismatch_declarative-broad-focus_El-hombre-mira-la-luna.wav,,,,,,,,,,,,,,,,,,,,,,512.7086,516.1436,0,1,2.8938,,0,64,64,74,1,0,cuban,,,,,,,,,,,,,,,,,,,,,,,,,,,,,,,,,,,,,,,,,,,,,,,,,,,,,,,,
,,,,,,,,,667e000c4bfb9ea4c3e01d66,spanish,13 or older,"no, only English or Spanish",yes,2025-07-23_16h40.01.289,empathy_intonation_perc,2024.2.4,Win32,59.52380952,667e000c4bfb9ea4c3e01d66,687ed1b7e638a4cbf2f02089,688147b552fc52027fea529d,,,,,,,,,,,,,63,0,,./stim/wavs/puertorican_match_declarative-broad-focus_Ana-lleva-el-abrigo.wav,,,,,,,,,,,,,,,,,,,,,,516.1459,519.3192,0,1,2.6409,,0,65,65,62,1,0,puertorican,,,,,,,,,,,,,,,,,,,,,,,,,,,,,,,,,,,,,,,,,,,,,,,,,,,,,,,,
,,,,,,,,,667e000c4bfb9ea4c3e01d66,spanish,13 or older,"no, only English or Spanish",yes,2025-07-23_16h40.01.289,empathy_intonation_perc,2024.2.4,Win32,59.52380952,667e000c4bfb9ea4c3e01d66,687ed1b7e638a4cbf2f02089,688147b552fc52027fea529d,,,,,,,,,,,,,76,0,,./stim/wavs/cuban_mismatch_declarative-broad-focus_La-nina-lava-el-plato.wav,,,,,,,,,,,,,,,,,,,,,,519.3213,523.0143,0,1,3.1505,,0,66,66,75,1,0,cuban,,,,,,,,,,,,,,,,,,,,,,,,,,,,,,,,,,,,,,,,,,,,,,,,,,,,,,,,
,,,,,,,,,667e000c4bfb9ea4c3e01d66,spanish,13 or older,"no, only English or Spanish",yes,2025-07-23_16h40.01.289,empathy_intonation_perc,2024.2.4,Win32,59.52380952,667e000c4bfb9ea4c3e01d66,687ed1b7e638a4cbf2f02089,688147b552fc52027fea529d,,,,,,,,,,,,,21,1,,./stim/wavs/puertorican_match_interrogative-total-yn_David-leia-el-libro.wav,,,,,,,,,,,,,,,,,,,,,,523.0161,525.9085,1,1,2.3632,,0,67,67,20,1,1,puertorican,,,,,,,,,,,,,,,,,,,,,,,,,,,,,,,,,,,,,,,,,,,,,,,,,,,,,,,,
,,,,,,,,,667e000c4bfb9ea4c3e01d66,spanish,13 or older,"no, only English or Spanish",yes,2025-07-23_16h40.01.289,empathy_intonation_perc,2024.2.4,Win32,59.52380952,667e000c4bfb9ea4c3e01d66,687ed1b7e638a4cbf2f02089,688147b552fc52027fea529d,,,,,,,,,,,,,57,0,,./stim/wavs/mexican_match_declarative-broad-focus_Ana-lleva-el-abrigo.wav,,,,,,,,,,,,,,,,,,,,,,525.9112,528.8462,0,1,2.4027,,0,68,68,56,1,0,mexican,,,,,,,,,,,,,,,,,,,,,,,,,,,,,,,,,,,,,,,,,,,,,,,,,,,,,,,,
,,,,,,,,,667e000c4bfb9ea4c3e01d66,spanish,13 or older,"no, only English or Spanish",yes,2025-07-23_16h40.01.289,empathy_intonation_perc,2024.2.4,Win32,59.52380952,667e000c4bfb9ea4c3e01d66,687ed1b7e638a4cbf2f02089,688147b552fc52027fea529d,,,,,,,,,,,,,48,0,,./stim/wavs/castilian_match_declarative-broad-focus_Maria-bebe-el-vino.wav,,,,,,,,,,,,,,,,,,,,,,528.8483,532.172,0,1,2.7783,,0,69,69,47,1,0,castilian,,,,,,,,,,,,,,,,,,,,,,,,,,,,,,,,,,,,,,,,,,,,,,,,,,,,,,,,
,,,,,,,,,667e000c4bfb9ea4c3e01d66,spanish,13 or older,"no, only English or Spanish",yes,2025-07-23_16h40.01.289,empathy_intonation_perc,2024.2.4,Win32,59.52380952,667e000c4bfb9ea4c3e01d66,687ed1b7e638a4cbf2f02089,688147b552fc52027fea529d,,,,,,,,,,,,,56,0,,./stim/wavs/cuban_match_declarative-broad-focus_Marta-abre-el-regalo.wav,,,,,,,,,,,,,,,,,,,,,,532.1747,535.3803,0,1,2.6765,,0,70,70,55,1,0,cuban,,,,,,,,,,,,,,,,,,,,,,,,,,,,,,,,,,,,,,,,,,,,,,,,,,,,,,,,
,,,,,,,,,667e000c4bfb9ea4c3e01d66,spanish,13 or older,"no, only English or Spanish",yes,2025-07-23_16h40.01.289,empathy_intonation_perc,2024.2.4,Win32,59.52380952,667e000c4bfb9ea4c3e01d66,687ed1b7e638a4cbf2f02089,688147b552fc52027fea529d,,,,,,,,,,,,,9,1,,./stim/wavs/cuban_match_interrogative-total-yn_Manuela-vende-el-carro.wav,,,,,,,,,,,,,,,,,,,,,,535.3811,538.4607,1,1,2.5602,,0,71,71,8,1,1,cuban,,,,,,,,,,,,,,,,,,,,,,,,,,,,,,,,,,,,,,,,,,,,,,,,,,,,,,,,
,,,,,,,,,667e000c4bfb9ea4c3e01d66,spanish,13 or older,"no, only English or Spanish",yes,2025-07-23_16h40.01.289,empathy_intonation_perc,2024.2.4,Win32,59.52380952,667e000c4bfb9ea4c3e01d66,687ed1b7e638a4cbf2f02089,688147b552fc52027fea529d,,,,,,,,,,,,,16,1,,./stim/wavs/mexican_match_interrogative-total-yn_Emilio-ama-la-marcha.wav,,,,,,,,,,,,,,,,,,,,,,538.4627,541.3802,0,0,2.3888,,0,72,72,15,1,0,mexican,,,,,,,,,,,,,,,,,,,,,,,,,,,,,,,,,,,,,,,,,,,,,,,,,,,,,,,,
,,,,,,,,,667e000c4bfb9ea4c3e01d66,spanish,13 or older,"no, only English or Spanish",yes,2025-07-23_16h40.01.289,empathy_intonation_perc,2024.2.4,Win32,59.52380952,667e000c4bfb9ea4c3e01d66,687ed1b7e638a4cbf2f02089,688147b552fc52027fea529d,,,,,,,,,,,,,10,1,,./stim/wavs/cuban_match_interrogative-total-yn_Maria-bebe-el-vino.wav,,,,,,,,,,,,,,,,,,,,,,541.3822,544.7338,1,1,2.8291,,0,73,73,9,1,1,cuban,,,,,,,,,,,,,,,,,,,,,,,,,,,,,,,,,,,,,,,,,,,,,,,,,,,,,,,,
,,,,,,,,,667e000c4bfb9ea4c3e01d66,spanish,13 or older,"no, only English or Spanish",yes,2025-07-23_16h40.01.289,empathy_intonation_perc,2024.2.4,Win32,59.52380952,667e000c4bfb9ea4c3e01d66,687ed1b7e638a4cbf2f02089,688147b552fc52027fea529d,,,,,,,,,,,,,34,1,,./stim/wavs/cuban_mismatch_interrogative-total-yn_Mi-tia-odia-la-lluvia.wav,,,,,,,,,,,,,,,,,,,,,,544.7359,547.6455,0,0,2.3845,,0,74,74,33,1,1,cuban,,,,,,,,,,,,,,,,,,,,,,,,,,,,,,,,,,,,,,,,,,,,,,,,,,,,,,,,
,,,,,,,,,667e000c4bfb9ea4c3e01d66,spanish,13 or older,"no, only English or Spanish",yes,2025-07-23_16h40.01.289,empathy_intonation_perc,2024.2.4,Win32,59.52380952,667e000c4bfb9ea4c3e01d66,687ed1b7e638a4cbf2f02089,688147b552fc52027fea529d,,,,,,,,,,,,,30,1,,./stim/wavs/cuban_mismatch_interrogative-total-yn_El-hombre-mira-la-luna.wav,,,,,,,,,,,,,,,,,,,,,,547.6476,550.3817,0,0,2.21,,0,75,75,29,1,1,cuban,,,,,,,,,,,,,,,,,,,,,,,,,,,,,,,,,,,,,,,,,,,,,,,,,,,,,,,,
,,,,,,,,,667e000c4bfb9ea4c3e01d66,spanish,13 or older,"no, only English or Spanish",yes,2025-07-23_16h40.01.289,empathy_intonation_perc,2024.2.4,Win32,59.52380952,667e000c4bfb9ea4c3e01d66,687ed1b7e638a4cbf2f02089,688147b552fc52027fea529d,,,,,,,,,,,,,35,1,,./stim/wavs/mexican_mismatch_interrogative-total-yn_El-hombre-mira-la-luna.wav,,,,,,,,,,,,,,,,,,,,,,550.3838,553.0908,0,0,2.1718,,0,76,76,34,1,0,mexican,,,,,,,,,,,,,,,,,,,,,,,,,,,,,,,,,,,,,,,,,,,,,,,,,,,,,,,,
,,,,,,,,,667e000c4bfb9ea4c3e01d66,spanish,13 or older,"no, only English or Spanish",yes,2025-07-23_16h40.01.289,empathy_intonation_perc,2024.2.4,Win32,59.52380952,667e000c4bfb9ea4c3e01d66,687ed1b7e638a4cbf2f02089,688147b552fc52027fea529d,,,,,,,,,,,,,83,0,,./stim/wavs/mexican_mismatch_declarative-broad-focus_Mi-tia-odia-la-lluvia.wav,,,,,,,,,,,,,,,,,,,,,,553.0924,556.0768,0,1,2.459,,0,77,77,82,1,0,mexican,,,,,,,,,,,,,,,,,,,,,,,,,,,,,,,,,,,,,,,,,,,,,,,,,,,,,,,,
,,,,,,,,,667e000c4bfb9ea4c3e01d66,spanish,13 or older,"no, only English or Spanish",yes,2025-07-23_16h40.01.289,empathy_intonation_perc,2024.2.4,Win32,59.52380952,667e000c4bfb9ea4c3e01d66,687ed1b7e638a4cbf2f02089,688147b552fc52027fea529d,,,,,,,,,,,,,37,1,,./stim/wavs/mexican_mismatch_interrogative-total-yn_La-maestra-vive-en-Paris.wav,,,,,,,,,,,,,,,,,,,,,,556.079,559.0356,1,1,2.4303,,0,78,78,36,1,0,mexican,,,,,,,,,,,,,,,,,,,,,,,,,,,,,,,,,,,,,,,,,,,,,,,,,,,,,,,,
,,,,,,,,,667e000c4bfb9ea4c3e01d66,spanish,13 or older,"no, only English or Spanish",yes,2025-07-23_16h40.01.289,empathy_intonation_perc,2024.2.4,Win32,59.52380952,667e000c4bfb9ea4c3e01d66,687ed1b7e638a4cbf2f02089,688147b552fc52027fea529d,,,,,,,,,,,,,7,1,,./stim/wavs/cuban_match_interrogative-total-yn_Ana-lleva-el-abrigo.wav,,,,,,,,,,,,,,,,,,,,,,559.0383,562.099,0,0,2.5188,,0,79,79,6,1,1,cuban,,,,,,,,,,,,,,,,,,,,,,,,,,,,,,,,,,,,,,,,,,,,,,,,,,,,,,,,
,,,,,,,,,667e000c4bfb9ea4c3e01d66,spanish,13 or older,"no, only English or Spanish",yes,2025-07-23_16h40.01.289,empathy_intonation_perc,2024.2.4,Win32,59.52380952,667e000c4bfb9ea4c3e01d66,687ed1b7e638a4cbf2f02089,688147b552fc52027fea529d,,,,,,,,,,,,,85,0,,./stim/wavs/puertorican_mismatch_declarative-broad-focus_El-hombre-mira-la-luna.wav,,,,,,,,,,,,,,,,,,,,,,562.1011,565.6175,0,1,2.9768,,0,80,80,84,1,0,puertorican,,,,,,,,,,,,,,,,,,,,,,,,,,,,,,,,,,,,,,,,,,,,,,,,,,,,,,,,
,,,,,,,,,667e000c4bfb9ea4c3e01d66,spanish,13 or older,"no, only English or Spanish",yes,2025-07-23_16h40.01.289,empathy_intonation_perc,2024.2.4,Win32,59.52380952,667e000c4bfb9ea4c3e01d66,687ed1b7e638a4cbf2f02089,688147b552fc52027fea529d,,,,,,,,,,,,,3,1,,./stim/wavs/castilian_match_interrogative-total-yn_Manuela-vende-el-carro.wav,,,,,,,,,,,,,,,,,,,,,,565.6193,568.9699,1,1,2.8217,,0,81,81,2,1,0,castilian,,,,,,,,,,,,,,,,,,,,,,,,,,,,,,,,,,,,,,,,,,,,,,,,,,,,,,,,
,,,,,,,,,667e000c4bfb9ea4c3e01d66,spanish,13 or older,"no, only English or Spanish",yes,2025-07-23_16h40.01.289,empathy_intonation_perc,2024.2.4,Win32,59.52380952,667e000c4bfb9ea4c3e01d66,687ed1b7e638a4cbf2f02089,688147b552fc52027fea529d,,,,,,,,,,,,,77,0,,./stim/wavs/cuban_mismatch_declarative-broad-focus_Mi-novio-viene-del-lago.wav,,,,,,,,,,,,,,,,,,,,,,568.9715,572.1831,0,1,2.6876,,0,82,82,76,1,0,cuban,,,,,,,,,,,,,,,,,,,,,,,,,,,,,,,,,,,,,,,,,,,,,,,,,,,,,,,,
,,,,,,,,,667e000c4bfb9ea4c3e01d66,spanish,13 or older,"no, only English or Spanish",yes,2025-07-23_16h40.01.289,empathy_intonation_perc,2024.2.4,Win32,59.52380952,667e000c4bfb9ea4c3e01d66,687ed1b7e638a4cbf2f02089,688147b552fc52027fea529d,,,,,,,,,,,,,73,0,,./stim/wavs/castilian_mismatch_declarative-broad-focus_Mi-tia-odia-la-lluvia.wav,,,,,,,,,,,,,,,,,,,,,,572.1837,575.9708,0,1,3.2623,,0,83,83,72,1,0,castilian,,,,,,,,,,,,,,,,,,,,,,,,,,,,,,,,,,,,,,,,,,,,,,,,,,,,,,,,
,,,,,,,,,667e000c4bfb9ea4c3e01d66,spanish,13 or older,"no, only English or Spanish",yes,2025-07-23_16h40.01.289,empathy_intonation_perc,2024.2.4,Win32,59.52380952,667e000c4bfb9ea4c3e01d66,687ed1b7e638a4cbf2f02089,688147b552fc52027fea529d,,,,,,,,,,,,,58,0,,./stim/wavs/mexican_match_declarative-broad-focus_Daniel-iba-a-Bolivia.wav,,,,,,,,,,,,,,,,,,,,,,575.9714,579.4467,0,1,2.9478,,0,84,84,57,1,0,mexican,,,,,,,,,,,,,,,,,,,,,,,,,,,,,,,,,,,,,,,,,,,,,,,,,,,,,,,,
,,,,,,,,,667e000c4bfb9ea4c3e01d66,spanish,13 or older,"no, only English or Spanish",yes,2025-07-23_16h40.01.289,empathy_intonation_perc,2024.2.4,Win32,59.52380952,667e000c4bfb9ea4c3e01d66,687ed1b7e638a4cbf2f02089,688147b552fc52027fea529d,,,,,,,,,,,,,33,1,,./stim/wavs/cuban_mismatch_interrogative-total-yn_Mi-novio-viene-del-lago.wav,,,,,,,,,,,,,,,,,,,,,,579.4483,582.6932,0,0,2.7128,,0,85,85,32,1,1,cuban,,,,,,,,,,,,,,,,,,,,,,,,,,,,,,,,,,,,,,,,,,,,,,,,,,,,,,,,
,,,,,,,,,667e000c4bfb9ea4c3e01d66,spanish,13 or older,"no, only English or Spanish",yes,2025-07-23_16h40.01.289,empathy_intonation_perc,2024.2.4,Win32,59.52380952,667e000c4bfb9ea4c3e01d66,687ed1b7e638a4cbf2f02089,688147b552fc52027fea529d,,,,,,,,,,,,,28,1,,./stim/wavs/castilian_mismatch_interrogative-total-yn_Mi-novio-viene-del-lago.wav,,,,,,,,,,,,,,,,,,,,,,582.6946,586.2682,0,0,3.0518,,0,86,86,27,1,0,castilian,,,,,,,,,,,,,,,,,,,,,,,,,,,,,,,,,,,,,,,,,,,,,,,,,,,,,,,,
,,,,,,,,,667e000c4bfb9ea4c3e01d66,spanish,13 or older,"no, only English or Spanish",yes,2025-07-23_16h40.01.289,empathy_intonation_perc,2024.2.4,Win32,59.52380952,667e000c4bfb9ea4c3e01d66,687ed1b7e638a4cbf2f02089,688147b552fc52027fea529d,,,,,,,,,,,,,72,0,,./stim/wavs/castilian_mismatch_declarative-broad-focus_Mi-novio-viene-del-lago.wav,,,,,,,,,,,,,,,,,,,,,,586.2702,591.0037,1,0,4.199,,0,87,87,71,1,0,castilian,,,,,,,,,,,,,,,,,,,,,,,,,,,,,,,,,,,,,,,,,,,,,,,,,,,,,,,,
,,,,,,,"Great! Now we will move on. The next task consists of about 60 trials, in each of which you will see a string of letters. 
  
  Your task is to decide whether this is a real Spanish word or not.", (press the spacebar to continue),667e000c4bfb9ea4c3e01d66,spanish,13 or older,"no, only English or Spanish",yes,2025-07-23_16h40.01.289,empathy_intonation_perc,2024.2.4,Win32,59.52380952,667e000c4bfb9ea4c3e01d66,687ed1b7e638a4cbf2f02089,688147b552fc52027fea529d,,,,,,,,,,,,,,,,,,,,,,,,,,,,,,,,,,,,,,,,,,,,,,,,,,,591.0196,598.7514,0,0,0,0,1,,,,,,,,,,,,,,,,,,,,,,,,,,,,,,,,,,,,,,,,,,,,,,,,,
,,,,,,,"If you think it is an existing Spanish word, you type '1' (for 'REAL'), and if you think it is not an existing Spanish word, you type '0' (for 'FAKE').", (press the spacebar to continue),667e000c4bfb9ea4c3e01d66,spanish,13 or older,"no, only English or Spanish",yes,2025-07-23_16h40.01.289,empathy_intonation_perc,2024.2.4,Win32,59.52380952,667e000c4bfb9ea4c3e01d66,687ed1b7e638a4cbf2f02089,688147b552fc52027fea529d,,,,,,,,,,,,,,,,,,,,,,,,,,,,,,,,,,,,,,,,,,,,,,,,,,,598.7574,608.824,0,1,1,1,1,,,,,,,,,,,,,,,,,,,,,,,,,,,,,,,,,,,,,,,,,,,,,,,,,
,,,,,,,"If you are sure that the word exists, even though you don’t know its exact meaning, you may still respond '1' (REAL). 
  
  But if you are not sure if it is an existing word, you should respond '0' (FAKE).
  
  Let's do a practice round...", (press the spacebar to continue),667e000c4bfb9ea4c3e01d66,spanish,13 or older,"no, only English or Spanish",yes,2025-07-23_16h40.01.289,empathy_intonation_perc,2024.2.4,Win32,59.52380952,667e000c4bfb9ea4c3e01d66,687ed1b7e638a4cbf2f02089,688147b552fc52027fea529d,,,,,,,,,,,,,,,,,,,,,,,,,,,,,,,,,,,,,,,,,,,,,,,,,,,608.8298,612.8053,0,2,2,2,1,,,,,,,,,,,,,,,,,,,,,,,,,,,,,,,,,,,,,,,,,,,,,,,,,
,,,,,,,,,667e000c4bfb9ea4c3e01d66,spanish,13 or older,"no, only English or Spanish",yes,2025-07-23_16h40.01.289,empathy_intonation_perc,2024.2.4,Win32,59.52380952,667e000c4bfb9ea4c3e01d66,687ed1b7e638a4cbf2f02089,688147b552fc52027fea529d,,,,,,,,,,,,,,0,,,,,,,,,,,,,,,,,,,,,,,,,,,,,,,,,,,,,,,,,,,,612.8195,623.7105,0,1,10.3625,,623.7115,624.7193,0,0,0,0,1,0,depiste,REAL,FAKE,,,,,,,,,,,,,,,,,,,,,,,,,,,,,,,,
,,,,,,,,,667e000c4bfb9ea4c3e01d66,spanish,13 or older,"no, only English or Spanish",yes,2025-07-23_16h40.01.289,empathy_intonation_perc,2024.2.4,Win32,59.52380952,667e000c4bfb9ea4c3e01d66,687ed1b7e638a4cbf2f02089,688147b552fc52027fea529d,,,,,,,,,,,,,,1,,,,,,,,,,,,,,,,,,,,,,,,,,,,,,,,,,,,,,,,,,,,624.7209,626.6542,1,1,1.4006,,626.6544,627.6471,0,1,1,1,1,0,sí,REAL,FAKE,,,,,,,,,,,,,,,,,,,,,,,,,,,,,,,,
,,,,,,,,,667e000c4bfb9ea4c3e01d66,spanish,13 or older,"no, only English or Spanish",yes,2025-07-23_16h40.01.289,empathy_intonation_perc,2024.2.4,Win32,59.52380952,667e000c4bfb9ea4c3e01d66,687ed1b7e638a4cbf2f02089,688147b552fc52027fea529d,,,,,,,,,,,,,,0,,,,,,,,,,,,,,,,,,,,,,,,,,,,,,,,,,,,,,,,,,,,627.6506,629.7609,0,1,1.5721,,629.7609,630.7545,0,2,2,2,1,0,coné,REAL,FAKE,,,,,,,,,,,,,,,,,,,,,,,,,,,,,,,,
,,,,,,,,,667e000c4bfb9ea4c3e01d66,spanish,13 or older,"no, only English or Spanish",yes,2025-07-23_16h40.01.289,empathy_intonation_perc,2024.2.4,Win32,59.52380952,667e000c4bfb9ea4c3e01d66,687ed1b7e638a4cbf2f02089,688147b552fc52027fea529d,,,,,,,,,,,,,,0,,,,,,,,,,,,,,,,,,,,,,,,,,,,,,,,,,,,,,,,,,,,630.7576,632.7051,0,1,1.4129,,632.7053,633.695,0,3,3,3,1,0,calpar,REAL,FAKE,,,,,,,,,,,,,,,,,,,,,,,,,,,,,,,,
,,,,,,,,,667e000c4bfb9ea4c3e01d66,spanish,13 or older,"no, only English or Spanish",yes,2025-07-23_16h40.01.289,empathy_intonation_perc,2024.2.4,Win32,59.52380952,667e000c4bfb9ea4c3e01d66,687ed1b7e638a4cbf2f02089,688147b552fc52027fea529d,,,,,,,,,,,,,,0,,,,,,,,,,,,,,,,,,,,,,,,,,,,,,,,,,,,,,,,,,,,633.6986,636.1141,0,1,1.8803,,636.1141,637.1031,0,4,4,4,1,0,joten,REAL,FAKE,,,,,,,,,,,,,,,,,,,,,,,,,,,,,,,,
,,,,,,,,,667e000c4bfb9ea4c3e01d66,spanish,13 or older,"no, only English or Spanish",yes,2025-07-23_16h40.01.289,empathy_intonation_perc,2024.2.4,Win32,59.52380952,667e000c4bfb9ea4c3e01d66,687ed1b7e638a4cbf2f02089,688147b552fc52027fea529d,,,,,,,,,,,,,,1,,,,,,,,,,,,,,,,,,,,,,,,,,,,,,,,,,,,,,,,,,,,637.1065,639.8217,1,1,2.1883,,639.822,640.8131,0,5,5,5,1,0,sacapuntas,REAL,FAKE,,,,,,,,,,,,,,,,,,,,,,,,,,,,,,,,
,,,,,,,,,667e000c4bfb9ea4c3e01d66,spanish,13 or older,"no, only English or Spanish",yes,2025-07-23_16h40.01.289,empathy_intonation_perc,2024.2.4,Win32,59.52380952,667e000c4bfb9ea4c3e01d66,687ed1b7e638a4cbf2f02089,688147b552fc52027fea529d,,,,,,,,,,,,,,0,,,,,,,,,,,,,,,,,,,,,,,,,,,,,,,,,,,,,,,,,,,,640.8169,643.5275,0,1,2.1689,,643.5277,644.5137,0,6,6,6,1,0,priba,REAL,FAKE,,,,,,,,,,,,,,,,,,,,,,,,,,,,,,,,
,,,,,,,,,667e000c4bfb9ea4c3e01d66,spanish,13 or older,"no, only English or Spanish",yes,2025-07-23_16h40.01.289,empathy_intonation_perc,2024.2.4,Win32,59.52380952,667e000c4bfb9ea4c3e01d66,687ed1b7e638a4cbf2f02089,688147b552fc52027fea529d,,,,,,,,,,,,,,0,,,,,,,,,,,,,,,,,,,,,,,,,,,,,,,,,,,,,,,,,,,,644.5165,648.5593,1,0,3.5045,,648.5631,649.548,0,7,7,7,1,0,pelasula,REAL,FAKE,,,,,,,,,,,,,,,,,,,,,,,,,,,,,,,,
,,,,,,,,,667e000c4bfb9ea4c3e01d66,spanish,13 or older,"no, only English or Spanish",yes,2025-07-23_16h40.01.289,empathy_intonation_perc,2024.2.4,Win32,59.52380952,667e000c4bfb9ea4c3e01d66,687ed1b7e638a4cbf2f02089,688147b552fc52027fea529d,,,,,,,,,,,,,,1,,,,,,,,,,,,,,,,,,,,,,,,,,,,,,,,,,,,,,,,,,,,649.5509,652.2239,1,1,2.1274,,652.2268,653.2195,0,8,8,8,1,0,bien,REAL,FAKE,,,,,,,,,,,,,,,,,,,,,,,,,,,,,,,,
,,,,,,,,,667e000c4bfb9ea4c3e01d66,spanish,13 or older,"no, only English or Spanish",yes,2025-07-23_16h40.01.289,empathy_intonation_perc,2024.2.4,Win32,59.52380952,667e000c4bfb9ea4c3e01d66,687ed1b7e638a4cbf2f02089,688147b552fc52027fea529d,,,,,,,,,,,,,,1,,,,,,,,,,,,,,,,,,,,,,,,,,,,,,,,,,,,,,,,,,,,653.223,654.595,1,1,0.8338,,654.595,655.5829,0,9,9,9,1,0,casa,REAL,FAKE,,,,,,,,,,,,,,,,,,,,,,,,,,,,,,,,
,,,,,,,,,667e000c4bfb9ea4c3e01d66,spanish,13 or older,"no, only English or Spanish",yes,2025-07-23_16h40.01.289,empathy_intonation_perc,2024.2.4,Win32,59.52380952,667e000c4bfb9ea4c3e01d66,687ed1b7e638a4cbf2f02089,688147b552fc52027fea529d,,,,,,,,,,,,,,0,,,,,,,,,,,,,,,,,,,,,,,,,,,,,,,,,,,,,,,,,,,,655.5863,660.3686,1,0,4.2432,,660.3711,661.3628,0,10,10,10,1,0,lejo,REAL,FAKE,,,,,,,,,,,,,,,,,,,,,,,,,,,,,,,,
,,,,,,,,,667e000c4bfb9ea4c3e01d66,spanish,13 or older,"no, only English or Spanish",yes,2025-07-23_16h40.01.289,empathy_intonation_perc,2024.2.4,Win32,59.52380952,667e000c4bfb9ea4c3e01d66,687ed1b7e638a4cbf2f02089,688147b552fc52027fea529d,,,,,,,,,,,,,,0,,,,,,,,,,,,,,,,,,,,,,,,,,,,,,,,,,,,,,,,,,,,661.3664,664.3261,1,0,2.4161,,664.3264,665.307,0,11,11,11,1,0,pretantas,REAL,FAKE,,,,,,,,,,,,,,,,,,,,,,,,,,,,,,,,
,,,,,,,,,667e000c4bfb9ea4c3e01d66,spanish,13 or older,"no, only English or Spanish",yes,2025-07-23_16h40.01.289,empathy_intonation_perc,2024.2.4,Win32,59.52380952,667e000c4bfb9ea4c3e01d66,687ed1b7e638a4cbf2f02089,688147b552fc52027fea529d,,,,,,,,,,,,,,,,,,,,,,,,,,,,,,,,,,,,,,,,,,,,,,,,,,,,,,,,,,,,,,,,,,,,,,,,,,,665.3073,669.0592,,,,,,,,,,,,,,,,,,,,,,,,,,,,,,
,,,,,,,,,667e000c4bfb9ea4c3e01d66,spanish,13 or older,"no, only English or Spanish",yes,2025-07-23_16h40.01.289,empathy_intonation_perc,2024.2.4,Win32,59.52380952,667e000c4bfb9ea4c3e01d66,687ed1b7e638a4cbf2f02089,688147b552fc52027fea529d,,,,,,,,,,,,,,1,,,,,,,,,,,,,,,,,,,,,,,,,,,,,,,,,,,,,,,,,,,,,,,,,,,,,,,,,44,cuchara,,,,,669.0765,673.55,1,1,3.936,,0,0,0,43,1,REAL,FAKE,,,,,,,,,,,,,,,,,
,,,,,,,,,667e000c4bfb9ea4c3e01d66,spanish,13 or older,"no, only English or Spanish",yes,2025-07-23_16h40.01.289,empathy_intonation_perc,2024.2.4,Win32,59.52380952,667e000c4bfb9ea4c3e01d66,687ed1b7e638a4cbf2f02089,688147b552fc52027fea529d,,,,,,,,,,,,,,1,,,,,,,,,,,,,,,,,,,,,,,,,,,,,,,,,,,,,,,,,,,,,,,,,,,,,,,,,73,hervidor,,,,,673.5521,676.6955,0,0,2.611,,0,1,1,72,1,REAL,FAKE,,,,,,,,,,,,,,,,,
,,,,,,,,,667e000c4bfb9ea4c3e01d66,spanish,13 or older,"no, only English or Spanish",yes,2025-07-23_16h40.01.289,empathy_intonation_perc,2024.2.4,Win32,59.52380952,667e000c4bfb9ea4c3e01d66,687ed1b7e638a4cbf2f02089,688147b552fc52027fea529d,,,,,,,,,,,,,,1,,,,,,,,,,,,,,,,,,,,,,,,,,,,,,,,,,,,,,,,,,,,,,,,,,,,,,,,,41,rebuscar,,,,,676.6983,679.9738,0,0,2.7346,,0,2,2,40,1,REAL,FAKE,,,,,,,,,,,,,,,,,
,,,,,,,,,667e000c4bfb9ea4c3e01d66,spanish,13 or older,"no, only English or Spanish",yes,2025-07-23_16h40.01.289,empathy_intonation_perc,2024.2.4,Win32,59.52380952,667e000c4bfb9ea4c3e01d66,687ed1b7e638a4cbf2f02089,688147b552fc52027fea529d,,,,,,,,,,,,,,0,,,,,,,,,,,,,,,,,,,,,,,,,,,,,,,,,,,,,,,,,,,,,,,,,,,,,,,,,10,antar,,,,,679.9749,683.0926,0,1,2.5692,,0,3,3,9,1,REAL,FAKE,,,,,,,,,,,,,,,,,
,,,,,,,,,667e000c4bfb9ea4c3e01d66,spanish,13 or older,"no, only English or Spanish",yes,2025-07-23_16h40.01.289,empathy_intonation_perc,2024.2.4,Win32,59.52380952,667e000c4bfb9ea4c3e01d66,687ed1b7e638a4cbf2f02089,688147b552fc52027fea529d,,,,,,,,,,,,,,1,,,,,,,,,,,,,,,,,,,,,,,,,,,,,,,,,,,,,,,,,,,,,,,,,,,,,,,,,62,flaco,,,,,683.0958,686.3142,1,1,2.6836,,0,4,4,61,1,REAL,FAKE,,,,,,,,,,,,,,,,,
,,,,,,,,,667e000c4bfb9ea4c3e01d66,spanish,13 or older,"no, only English or Spanish",yes,2025-07-23_16h40.01.289,empathy_intonation_perc,2024.2.4,Win32,59.52380952,667e000c4bfb9ea4c3e01d66,687ed1b7e638a4cbf2f02089,688147b552fc52027fea529d,,,,,,,,,,,,,,1,,,,,,,,,,,,,,,,,,,,,,,,,,,,,,,,,,,,,,,,,,,,,,,,,,,,,,,,,28,merodear,,,,,686.3172,689.8731,0,0,3.0106,,0,5,5,27,1,REAL,FAKE,,,,,,,,,,,,,,,,,
,,,,,,,,,667e000c4bfb9ea4c3e01d66,spanish,13 or older,"no, only English or Spanish",yes,2025-07-23_16h40.01.289,empathy_intonation_perc,2024.2.4,Win32,59.52380952,667e000c4bfb9ea4c3e01d66,687ed1b7e638a4cbf2f02089,688147b552fc52027fea529d,,,,,,,,,,,,,,0,,,,,,,,,,,,,,,,,,,,,,,,,,,,,,,,,,,,,,,,,,,,,,,,,,,,,,,,,21,capillo,,,,,689.8764,693.1231,1,0,2.7149,,0,6,6,20,1,REAL,FAKE,,,,,,,,,,,,,,,,,
,,,,,,,,,667e000c4bfb9ea4c3e01d66,spanish,13 or older,"no, only English or Spanish",yes,2025-07-23_16h40.01.289,empathy_intonation_perc,2024.2.4,Win32,59.52380952,667e000c4bfb9ea4c3e01d66,687ed1b7e638a4cbf2f02089,688147b552fc52027fea529d,,,,,,,,,,,,,,0,,,,,,,,,,,,,,,,,,,,,,,,,,,,,,,,,,,,,,,,,,,,,,,,,,,,,,,,,4,batillón,,,,,693.1272,695.7721,1,0,2.101,,0,7,7,3,1,REAL,FAKE,,,,,,,,,,,,,,,,,
,,,,,,,,,667e000c4bfb9ea4c3e01d66,spanish,13 or older,"no, only English or Spanish",yes,2025-07-23_16h40.01.289,empathy_intonation_perc,2024.2.4,Win32,59.52380952,667e000c4bfb9ea4c3e01d66,687ed1b7e638a4cbf2f02089,688147b552fc52027fea529d,,,,,,,,,,,,,,1,,,,,,,,,,,,,,,,,,,,,,,,,,,,,,,,,,,,,,,,,,,,,,,,,,,,,,,,,59,besar,,,,,695.7749,699.5219,1,1,3.1983,,0,8,8,58,1,REAL,FAKE,,,,,,,,,,,,,,,,,
,,,,,,,,,667e000c4bfb9ea4c3e01d66,spanish,13 or older,"no, only English or Spanish",yes,2025-07-23_16h40.01.289,empathy_intonation_perc,2024.2.4,Win32,59.52380952,667e000c4bfb9ea4c3e01d66,687ed1b7e638a4cbf2f02089,688147b552fc52027fea529d,,,,,,,,,,,,,,1,,,,,,,,,,,,,,,,,,,,,,,,,,,,,,,,,,,,,,,,,,,,,,,,,,,,,,,,,88,acantilado,,,,,699.5257,703.9488,0,0,3.8857,,0,9,9,87,1,REAL,FAKE,,,,,,,,,,,,,,,,,
,,,,,,,,,667e000c4bfb9ea4c3e01d66,spanish,13 or older,"no, only English or Spanish",yes,2025-07-23_16h40.01.289,empathy_intonation_perc,2024.2.4,Win32,59.52380952,667e000c4bfb9ea4c3e01d66,687ed1b7e638a4cbf2f02089,688147b552fc52027fea529d,,,,,,,,,,,,,,1,,,,,,,,,,,,,,,,,,,,,,,,,,,,,,,,,,,,,,,,,,,,,,,,,,,,,,,,,26,secuestro,,,,,703.9516,706.3444,1,1,1.8625,,0,10,10,25,1,REAL,FAKE,,,,,,,,,,,,,,,,,
,,,,,,,,,667e000c4bfb9ea4c3e01d66,spanish,13 or older,"no, only English or Spanish",yes,2025-07-23_16h40.01.289,empathy_intonation_perc,2024.2.4,Win32,59.52380952,667e000c4bfb9ea4c3e01d66,687ed1b7e638a4cbf2f02089,688147b552fc52027fea529d,,,,,,,,,,,,,,0,,,,,,,,,,,,,,,,,,,,,,,,,,,,,,,,,,,,,,,,,,,,,,,,,,,,,,,,,19,brecedad,,,,,706.3474,710.7934,0,1,3.9038,,0,11,11,18,1,REAL,FAKE,,,,,,,,,,,,,,,,,
,,,,,,,,,667e000c4bfb9ea4c3e01d66,spanish,13 or older,"no, only English or Spanish",yes,2025-07-23_16h40.01.289,empathy_intonation_perc,2024.2.4,Win32,59.52380952,667e000c4bfb9ea4c3e01d66,687ed1b7e638a4cbf2f02089,688147b552fc52027fea529d,,,,,,,,,,,,,,1,,,,,,,,,,,,,,,,,,,,,,,,,,,,,,,,,,,,,,,,,,,,,,,,,,,,,,,,,36,loro,,,,,710.7968,713.6162,0,0,2.2786,,0,12,12,35,1,REAL,FAKE,,,,,,,,,,,,,,,,,
,,,,,,,,,667e000c4bfb9ea4c3e01d66,spanish,13 or older,"no, only English or Spanish",yes,2025-07-23_16h40.01.289,empathy_intonation_perc,2024.2.4,Win32,59.52380952,667e000c4bfb9ea4c3e01d66,687ed1b7e638a4cbf2f02089,688147b552fc52027fea529d,,,,,,,,,,,,,,1,,,,,,,,,,,,,,,,,,,,,,,,,,,,,,,,,,,,,,,,,,,,,,,,,,,,,,,,,43,canela,,,,,713.6191,715.7329,1,1,1.5692,,0,13,13,42,1,REAL,FAKE,,,,,,,,,,,,,,,,,
,,,,,,,,,667e000c4bfb9ea4c3e01d66,spanish,13 or older,"no, only English or Spanish",yes,2025-07-23_16h40.01.289,empathy_intonation_perc,2024.2.4,Win32,59.52380952,667e000c4bfb9ea4c3e01d66,687ed1b7e638a4cbf2f02089,688147b552fc52027fea529d,,,,,,,,,,,,,,1,,,,,,,,,,,,,,,,,,,,,,,,,,,,,,,,,,,,,,,,,,,,,,,,,,,,,,,,,24,látigo,,,,,715.7355,719.1954,1,1,2.9178,,0,14,14,23,1,REAL,FAKE,,,,,,,,,,,,,,,,,
,,,,,,,,,667e000c4bfb9ea4c3e01d66,spanish,13 or older,"no, only English or Spanish",yes,2025-07-23_16h40.01.289,empathy_intonation_perc,2024.2.4,Win32,59.52380952,667e000c4bfb9ea4c3e01d66,687ed1b7e638a4cbf2f02089,688147b552fc52027fea529d,,,,,,,,,,,,,,1,,,,,,,,,,,,,,,,,,,,,,,,,,,,,,,,,,,,,,,,,,,,,,,,,,,,,,,,,60,matar,,,,,719.1983,722.129,1,1,2.3816,,0,15,15,59,1,REAL,FAKE,,,,,,,,,,,,,,,,,
,,,,,,,,,667e000c4bfb9ea4c3e01d66,spanish,13 or older,"no, only English or Spanish",yes,2025-07-23_16h40.01.289,empathy_intonation_perc,2024.2.4,Win32,59.52380952,667e000c4bfb9ea4c3e01d66,687ed1b7e638a4cbf2f02089,688147b552fc52027fea529d,,,,,,,,,,,,,,1,,,,,,,,,,,,,,,,,,,,,,,,,,,,,,,,,,,,,,,,,,,,,,,,,,,,,,,,,69,engatusar,,,,,722.1333,726.1305,0,0,3.4477,,0,16,16,68,1,REAL,FAKE,,,,,,,,,,,,,,,,,
,,,,,,,,,667e000c4bfb9ea4c3e01d66,spanish,13 or older,"no, only English or Spanish",yes,2025-07-23_16h40.01.289,empathy_intonation_perc,2024.2.4,Win32,59.52380952,667e000c4bfb9ea4c3e01d66,687ed1b7e638a4cbf2f02089,688147b552fc52027fea529d,,,,,,,,,,,,,,0,,,,,,,,,,,,,,,,,,,,,,,,,,,,,,,,,,,,,,,,,,,,,,,,,,,,,,,,,30,alardio,,,,,726.1332,728.477,0,1,1.7986,,0,17,17,29,1,REAL,FAKE,,,,,,,,,,,,,,,,,
,,,,,,,,,667e000c4bfb9ea4c3e01d66,spanish,13 or older,"no, only English or Spanish",yes,2025-07-23_16h40.01.289,empathy_intonation_perc,2024.2.4,Win32,59.52380952,667e000c4bfb9ea4c3e01d66,687ed1b7e638a4cbf2f02089,688147b552fc52027fea529d,,,,,,,,,,,,,,0,,,,,,,,,,,,,,,,,,,,,,,,,,,,,,,,,,,,,,,,,,,,,,,,,,,,,,,,,82,empirador,,,,,728.4799,731.3702,1,0,2.3596,,0,18,18,81,1,REAL,FAKE,,,,,,,,,,,,,,,,,
,,,,,,,,,667e000c4bfb9ea4c3e01d66,spanish,13 or older,"no, only English or Spanish",yes,2025-07-23_16h40.01.289,empathy_intonation_perc,2024.2.4,Win32,59.52380952,667e000c4bfb9ea4c3e01d66,687ed1b7e638a4cbf2f02089,688147b552fc52027fea529d,,,,,,,,,,,,,,1,,,,,,,,,,,,,,,,,,,,,,,,,,,,,,,,,,,,,,,,,,,,,,,,,,,,,,,,,5,zapato,,,,,731.3733,734.1181,1,1,2.2229,,0,19,19,4,1,REAL,FAKE,,,,,,,,,,,,,,,,,
,,,,,,,,,667e000c4bfb9ea4c3e01d66,spanish,13 or older,"no, only English or Spanish",yes,2025-07-23_16h40.01.289,empathy_intonation_perc,2024.2.4,Win32,59.52380952,667e000c4bfb9ea4c3e01d66,687ed1b7e638a4cbf2f02089,688147b552fc52027fea529d,,,,,,,,,,,,,,0,,,,,,,,,,,,,,,,,,,,,,,,,,,,,,,,,,,,,,,,,,,,,,,,,,,,,,,,,72,pemición,,,,,734.121,737.9654,1,0,3.3154,,0,20,20,71,1,REAL,FAKE,,,,,,,,,,,,,,,,,
,,,,,,,,,667e000c4bfb9ea4c3e01d66,spanish,13 or older,"no, only English or Spanish",yes,2025-07-23_16h40.01.289,empathy_intonation_perc,2024.2.4,Win32,59.52380952,667e000c4bfb9ea4c3e01d66,687ed1b7e638a4cbf2f02089,688147b552fc52027fea529d,,,,,,,,,,,,,,1,,,,,,,,,,,,,,,,,,,,,,,,,,,,,,,,,,,,,,,,,,,,,,,,,,,,,,,,,67,cabello,,,,,737.9667,742.7279,0,0,4.2214,,0,21,21,66,1,REAL,FAKE,,,,,,,,,,,,,,,,,
,,,,,,,,,667e000c4bfb9ea4c3e01d66,spanish,13 or older,"no, only English or Spanish",yes,2025-07-23_16h40.01.289,empathy_intonation_perc,2024.2.4,Win32,59.52380952,667e000c4bfb9ea4c3e01d66,687ed1b7e638a4cbf2f02089,688147b552fc52027fea529d,,,,,,,,,,,,,,0,,,,,,,,,,,,,,,,,,,,,,,,,,,,,,,,,,,,,,,,,,,,,,,,,,,,,,,,,16,abracer,,,,,742.7311,749.0614,0,1,5.785,,0,22,22,15,1,REAL,FAKE,,,,,,,,,,,,,,,,,
,,,,,,,,,667e000c4bfb9ea4c3e01d66,spanish,13 or older,"no, only English or Spanish",yes,2025-07-23_16h40.01.289,empathy_intonation_perc,2024.2.4,Win32,59.52380952,667e000c4bfb9ea4c3e01d66,687ed1b7e638a4cbf2f02089,688147b552fc52027fea529d,,,,,,,,,,,,,,0,,,,,,,,,,,,,,,,,,,,,,,,,,,,,,,,,,,,,,,,,,,,,,,,,,,,,,,,,79,tropaje,,,,,749.0646,752.3563,0,1,2.7466,,0,23,23,78,1,REAL,FAKE,,,,,,,,,,,,,,,,,
,,,,,,,,,667e000c4bfb9ea4c3e01d66,spanish,13 or older,"no, only English or Spanish",yes,2025-07-23_16h40.01.289,empathy_intonation_perc,2024.2.4,Win32,59.52380952,667e000c4bfb9ea4c3e01d66,687ed1b7e638a4cbf2f02089,688147b552fc52027fea529d,,,,,,,,,,,,,,1,,,,,,,,,,,,,,,,,,,,,,,,,,,,,,,,,,,,,,,,,,,,,,,,,,,,,,,,,34,aviso,,,,,752.3595,754.005,1,1,1.1057,,0,24,24,33,1,REAL,FAKE,,,,,,,,,,,,,,,,,
,,,,,,,,,667e000c4bfb9ea4c3e01d66,spanish,13 or older,"no, only English or Spanish",yes,2025-07-23_16h40.01.289,empathy_intonation_perc,2024.2.4,Win32,59.52380952,667e000c4bfb9ea4c3e01d66,687ed1b7e638a4cbf2f02089,688147b552fc52027fea529d,,,,,,,,,,,,,,1,,,,,,,,,,,,,,,,,,,,,,,,,,,,,,,,,,,,,,,,,,,,,,,,,,,,,,,,,76,atar,,,,,754.0082,755.5047,0,0,0.9679,,0,25,25,75,1,REAL,FAKE,,,,,,,,,,,,,,,,,
,,,,,,,,,667e000c4bfb9ea4c3e01d66,spanish,13 or older,"no, only English or Spanish",yes,2025-07-23_16h40.01.289,empathy_intonation_perc,2024.2.4,Win32,59.52380952,667e000c4bfb9ea4c3e01d66,687ed1b7e638a4cbf2f02089,688147b552fc52027fea529d,,,,,,,,,,,,,,1,,,,,,,,,,,,,,,,,,,,,,,,,,,,,,,,,,,,,,,,,,,,,,,,,,,,,,,,,90,clavel,,,,,755.5086,757.5903,0,0,1.5428,,0,26,26,89,1,REAL,FAKE,,,,,,,,,,,,,,,,,
,,,,,,,,,667e000c4bfb9ea4c3e01d66,spanish,13 or older,"no, only English or Spanish",yes,2025-07-23_16h40.01.289,empathy_intonation_perc,2024.2.4,Win32,59.52380952,667e000c4bfb9ea4c3e01d66,687ed1b7e638a4cbf2f02089,688147b552fc52027fea529d,,,,,,,,,,,,,,1,,,,,,,,,,,,,,,,,,,,,,,,,,,,,,,,,,,,,,,,,,,,,,,,,,,,,,,,,65,bizcocho,,,,,757.5934,761.7178,1,1,3.591,,0,27,27,64,1,REAL,FAKE,,,,,,,,,,,,,,,,,
,,,,,,,,,667e000c4bfb9ea4c3e01d66,spanish,13 or older,"no, only English or Spanish",yes,2025-07-23_16h40.01.289,empathy_intonation_perc,2024.2.4,Win32,59.52380952,667e000c4bfb9ea4c3e01d66,687ed1b7e638a4cbf2f02089,688147b552fc52027fea529d,,,,,,,,,,,,,,1,,,,,,,,,,,,,,,,,,,,,,,,,,,,,,,,,,,,,,,,,,,,,,,,,,,,,,,,,71,polvoriento,,,,,761.7216,765.1914,0,0,2.9337,,0,28,28,70,1,REAL,FAKE,,,,,,,,,,,,,,,,,
,,,,,,,,,667e000c4bfb9ea4c3e01d66,spanish,13 or older,"no, only English or Spanish",yes,2025-07-23_16h40.01.289,empathy_intonation_perc,2024.2.4,Win32,59.52380952,667e000c4bfb9ea4c3e01d66,687ed1b7e638a4cbf2f02089,688147b552fc52027fea529d,,,,,,,,,,,,,,1,,,,,,,,,,,,,,,,,,,,,,,,,,,,,,,,,,,,,,,,,,,,,,,,,,,,,,,,,6,tergiversar,,,,,765.1925,770.0713,0,0,4.3385,,0,29,29,5,1,REAL,FAKE,,,,,,,,,,,,,,,,,
,,,,,,,,,667e000c4bfb9ea4c3e01d66,spanish,13 or older,"no, only English or Spanish",yes,2025-07-23_16h40.01.289,empathy_intonation_perc,2024.2.4,Win32,59.52380952,667e000c4bfb9ea4c3e01d66,687ed1b7e638a4cbf2f02089,688147b552fc52027fea529d,,,,,,,,,,,,,,0,,,,,,,,,,,,,,,,,,,,,,,,,,,,,,,,,,,,,,,,,,,,,,,,,,,,,,,,,42,cadallo,,,,,770.0745,772.3098,1,0,1.691,,0,30,30,41,1,REAL,FAKE,,,,,,,,,,,,,,,,,
,,,,,,,,,667e000c4bfb9ea4c3e01d66,spanish,13 or older,"no, only English or Spanish",yes,2025-07-23_16h40.01.289,empathy_intonation_perc,2024.2.4,Win32,59.52380952,667e000c4bfb9ea4c3e01d66,687ed1b7e638a4cbf2f02089,688147b552fc52027fea529d,,,,,,,,,,,,,,0,,,,,,,,,,,,,,,,,,,,,,,,,,,,,,,,,,,,,,,,,,,,,,,,,,,,,,,,,23,lampera,,,,,772.313,774.8275,1,0,1.972,,0,31,31,22,1,REAL,FAKE,,,,,,,,,,,,,,,,,
,,,,,,,,,667e000c4bfb9ea4c3e01d66,spanish,13 or older,"no, only English or Spanish",yes,2025-07-23_16h40.01.289,empathy_intonation_perc,2024.2.4,Win32,59.52380952,667e000c4bfb9ea4c3e01d66,687ed1b7e638a4cbf2f02089,688147b552fc52027fea529d,,,,,,,,,,,,,,0,,,,,,,,,,,,,,,,,,,,,,,,,,,,,,,,,,,,,,,,,,,,,,,,,,,,,,,,,8,cadeña,,,,,774.8311,776.9723,1,0,1.6146,,0,32,32,7,1,REAL,FAKE,,,,,,,,,,,,,,,,,
,,,,,,,,,667e000c4bfb9ea4c3e01d66,spanish,13 or older,"no, only English or Spanish",yes,2025-07-23_16h40.01.289,empathy_intonation_perc,2024.2.4,Win32,59.52380952,667e000c4bfb9ea4c3e01d66,687ed1b7e638a4cbf2f02089,688147b552fc52027fea529d,,,,,,,,,,,,,,1,,,,,,,,,,,,,,,,,,,,,,,,,,,,,,,,,,,,,,,,,,,,,,,,,,,,,,,,,64,orgulloso,,,,,776.9732,779.1214,0,0,1.6085,,0,33,33,63,1,REAL,FAKE,,,,,,,,,,,,,,,,,
,,,,,,,,,667e000c4bfb9ea4c3e01d66,spanish,13 or older,"no, only English or Spanish",yes,2025-07-23_16h40.01.289,empathy_intonation_perc,2024.2.4,Win32,59.52380952,667e000c4bfb9ea4c3e01d66,687ed1b7e638a4cbf2f02089,688147b552fc52027fea529d,,,,,,,,,,,,,,1,,,,,,,,,,,,,,,,,,,,,,,,,,,,,,,,,,,,,,,,,,,,,,,,,,,,,,,,,9,hacha,,,,,779.1251,781.7957,1,1,2.1382,,0,34,34,8,1,REAL,FAKE,,,,,,,,,,,,,,,,,
,,,,,,,,,667e000c4bfb9ea4c3e01d66,spanish,13 or older,"no, only English or Spanish",yes,2025-07-23_16h40.01.289,empathy_intonation_perc,2024.2.4,Win32,59.52380952,667e000c4bfb9ea4c3e01d66,687ed1b7e638a4cbf2f02089,688147b552fc52027fea529d,,,,,,,,,,,,,,1,,,,,,,,,,,,,,,,,,,,,,,,,,,,,,,,,,,,,,,,,,,,,,,,,,,,,,,,,15,regar,,,,,781.7975,784.6634,0,0,2.3217,,0,35,35,14,1,REAL,FAKE,,,,,,,,,,,,,,,,,
,,,,,,,,,667e000c4bfb9ea4c3e01d66,spanish,13 or older,"no, only English or Spanish",yes,2025-07-23_16h40.01.289,empathy_intonation_perc,2024.2.4,Win32,59.52380952,667e000c4bfb9ea4c3e01d66,687ed1b7e638a4cbf2f02089,688147b552fc52027fea529d,,,,,,,,,,,,,,1,,,,,,,,,,,,,,,,,,,,,,,,,,,,,,,,,,,,,,,,,,,,,,,,,,,,,,,,,3,pulmones,,,,,784.6661,787.4063,0,0,2.1932,,0,36,36,2,1,REAL,FAKE,,,,,,,,,,,,,,,,,
,,,,,,,,,667e000c4bfb9ea4c3e01d66,spanish,13 or older,"no, only English or Spanish",yes,2025-07-23_16h40.01.289,empathy_intonation_perc,2024.2.4,Win32,59.52380952,667e000c4bfb9ea4c3e01d66,687ed1b7e638a4cbf2f02089,688147b552fc52027fea529d,,,,,,,,,,,,,,1,,,,,,,,,,,,,,,,,,,,,,,,,,,,,,,,,,,,,,,,,,,,,,,,,,,,,,,,,78,frondoso,,,,,787.4091,790.9869,1,1,3.0362,,0,37,37,77,1,REAL,FAKE,,,,,,,,,,,,,,,,,
,,,,,,,,,667e000c4bfb9ea4c3e01d66,spanish,13 or older,"no, only English or Spanish",yes,2025-07-23_16h40.01.289,empathy_intonation_perc,2024.2.4,Win32,59.52380952,667e000c4bfb9ea4c3e01d66,687ed1b7e638a4cbf2f02089,688147b552fc52027fea529d,,,,,,,,,,,,,,1,,,,,,,,,,,,,,,,,,,,,,,,,,,,,,,,,,,,,,,,,,,,,,,,,,,,,,,,,22,lacayo,,,,,790.9898,793.1454,1,1,1.6299,,0,38,38,21,1,REAL,FAKE,,,,,,,,,,,,,,,,,
,,,,,,,,,667e000c4bfb9ea4c3e01d66,spanish,13 or older,"no, only English or Spanish",yes,2025-07-23_16h40.01.289,empathy_intonation_perc,2024.2.4,Win32,59.52380952,667e000c4bfb9ea4c3e01d66,687ed1b7e638a4cbf2f02089,688147b552fc52027fea529d,,,,,,,,,,,,,,1,,,,,,,,,,,,,,,,,,,,,,,,,,,,,,,,,,,,,,,,,,,,,,,,,,,,,,,,,85,laúd,,,,,793.1495,794.924,1,1,1.23,,0,39,39,84,1,REAL,FAKE,,,,,,,,,,,,,,,,,
,,,,,,,,,667e000c4bfb9ea4c3e01d66,spanish,13 or older,"no, only English or Spanish",yes,2025-07-23_16h40.01.289,empathy_intonation_perc,2024.2.4,Win32,59.52380952,667e000c4bfb9ea4c3e01d66,687ed1b7e638a4cbf2f02089,688147b552fc52027fea529d,,,,,,,,,,,,,,0,,,,,,,,,,,,,,,,,,,,,,,,,,,,,,,,,,,,,,,,,,,,,,,,,,,,,,,,,1,terzo,,,,,794.9271,798.7855,0,1,3.3121,,0,40,40,0,1,REAL,FAKE,,,,,,,,,,,,,,,,,
,,,,,,,,,667e000c4bfb9ea4c3e01d66,spanish,13 or older,"no, only English or Spanish",yes,2025-07-23_16h40.01.289,empathy_intonation_perc,2024.2.4,Win32,59.52380952,667e000c4bfb9ea4c3e01d66,687ed1b7e638a4cbf2f02089,688147b552fc52027fea529d,,,,,,,,,,,,,,1,,,,,,,,,,,,,,,,,,,,,,,,,,,,,,,,,,,,,,,,,,,,,,,,,,,,,,,,,61,seda,,,,,798.7889,801.9104,0,0,2.5807,,0,41,41,60,1,REAL,FAKE,,,,,,,,,,,,,,,,,
,,,,,,,,,667e000c4bfb9ea4c3e01d66,spanish,13 or older,"no, only English or Spanish",yes,2025-07-23_16h40.01.289,empathy_intonation_perc,2024.2.4,Win32,59.52380952,667e000c4bfb9ea4c3e01d66,687ed1b7e638a4cbf2f02089,688147b552fc52027fea529d,,,,,,,,,,,,,,1,,,,,,,,,,,,,,,,,,,,,,,,,,,,,,,,,,,,,,,,,,,,,,,,,,,,,,,,,40,alfombra,,,,,801.9132,808.3347,1,1,5.874,,0,42,42,39,1,REAL,FAKE,,,,,,,,,,,,,,,,,
,,,,,,,,,667e000c4bfb9ea4c3e01d66,spanish,13 or older,"no, only English or Spanish",yes,2025-07-23_16h40.01.289,empathy_intonation_perc,2024.2.4,Win32,59.52380952,667e000c4bfb9ea4c3e01d66,687ed1b7e638a4cbf2f02089,688147b552fc52027fea529d,,,,,,,,,,,,,,0,,,,,,,,,,,,,,,,,,,,,,,,,,,,,,,,,,,,,,,,,,,,,,,,,,,,,,,,,18,arsa,,,,,808.3377,810.344,0,1,1.4574,,0,43,43,17,1,REAL,FAKE,,,,,,,,,,,,,,,,,
,,,,,,,,,667e000c4bfb9ea4c3e01d66,spanish,13 or older,"no, only English or Spanish",yes,2025-07-23_16h40.01.289,empathy_intonation_perc,2024.2.4,Win32,59.52380952,667e000c4bfb9ea4c3e01d66,687ed1b7e638a4cbf2f02089,688147b552fc52027fea529d,,,,,,,,,,,,,,1,,,,,,,,,,,,,,,,,,,,,,,,,,,,,,,,,,,,,,,,,,,,,,,,,,,,,,,,,52,camisa,,,,,810.3483,813.2728,1,1,2.3815,,0,44,44,51,1,REAL,FAKE,,,,,,,,,,,,,,,,,
,,,,,,,,,667e000c4bfb9ea4c3e01d66,spanish,13 or older,"no, only English or Spanish",yes,2025-07-23_16h40.01.289,empathy_intonation_perc,2024.2.4,Win32,59.52380952,667e000c4bfb9ea4c3e01d66,687ed1b7e638a4cbf2f02089,688147b552fc52027fea529d,,,,,,,,,,,,,,0,,,,,,,,,,,,,,,,,,,,,,,,,,,,,,,,,,,,,,,,,,,,,,,,,,,,,,,,,66,hacido,,,,,813.2759,816.1124,0,1,2.3142,,0,45,45,65,1,REAL,FAKE,,,,,,,,,,,,,,,,,
,,,,,,,,,667e000c4bfb9ea4c3e01d66,spanish,13 or older,"no, only English or Spanish",yes,2025-07-23_16h40.01.289,empathy_intonation_perc,2024.2.4,Win32,59.52380952,667e000c4bfb9ea4c3e01d66,687ed1b7e638a4cbf2f02089,688147b552fc52027fea529d,,,,,,,,,,,,,,1,,,,,,,,,,,,,,,,,,,,,,,,,,,,,,,,,,,,,,,,,,,,,,,,,,,,,,,,,54,fomentar,,,,,816.1157,819.257,1,1,2.6164,,0,46,46,53,1,REAL,FAKE,,,,,,,,,,,,,,,,,
,,,,,,,,,667e000c4bfb9ea4c3e01d66,spanish,13 or older,"no, only English or Spanish",yes,2025-07-23_16h40.01.289,empathy_intonation_perc,2024.2.4,Win32,59.52380952,667e000c4bfb9ea4c3e01d66,687ed1b7e638a4cbf2f02089,688147b552fc52027fea529d,,,,,,,,,,,,,,0,,,,,,,,,,,,,,,,,,,,,,,,,,,,,,,,,,,,,,,,,,,,,,,,,,,,,,,,,33,pauca,,,,,819.26,821.7797,1,0,1.9747,,0,47,47,32,1,REAL,FAKE,,,,,,,,,,,,,,,,,
,,,,,,,,,667e000c4bfb9ea4c3e01d66,spanish,13 or older,"no, only English or Spanish",yes,2025-07-23_16h40.01.289,empathy_intonation_perc,2024.2.4,Win32,59.52380952,667e000c4bfb9ea4c3e01d66,687ed1b7e638a4cbf2f02089,688147b552fc52027fea529d,,,,,,,,,,,,,,1,,,,,,,,,,,,,,,,,,,,,,,,,,,,,,,,,,,,,,,,,,,,,,,,,,,,,,,,,2,pellizcar,,,,,821.7827,824.0216,0,0,1.6986,,0,48,48,1,1,REAL,FAKE,,,,,,,,,,,,,,,,,
,,,,,,,,,667e000c4bfb9ea4c3e01d66,spanish,13 or older,"no, only English or Spanish",yes,2025-07-23_16h40.01.289,empathy_intonation_perc,2024.2.4,Win32,59.52380952,667e000c4bfb9ea4c3e01d66,687ed1b7e638a4cbf2f02089,688147b552fc52027fea529d,,,,,,,,,,,,,,1,,,,,,,,,,,,,,,,,,,,,,,,,,,,,,,,,,,,,,,,,,,,,,,,,,,,,,,,,25,bisagra,,,,,824.0248,826.9767,1,1,2.4109,,0,49,49,24,1,REAL,FAKE,,,,,,,,,,,,,,,,,
,,,,,,,,,667e000c4bfb9ea4c3e01d66,spanish,13 or older,"no, only English or Spanish",yes,2025-07-23_16h40.01.289,empathy_intonation_perc,2024.2.4,Win32,59.52380952,667e000c4bfb9ea4c3e01d66,687ed1b7e638a4cbf2f02089,688147b552fc52027fea529d,,,,,,,,,,,,,,1,,,,,,,,,,,,,,,,,,,,,,,,,,,,,,,,,,,,,,,,,,,,,,,,,,,,,,,,,77,tiburón,,,,,826.9801,828.779,1,1,1.2592,,0,50,50,76,1,REAL,FAKE,,,,,,,,,,,,,,,,,
,,,,,,,,,667e000c4bfb9ea4c3e01d66,spanish,13 or older,"no, only English or Spanish",yes,2025-07-23_16h40.01.289,empathy_intonation_perc,2024.2.4,Win32,59.52380952,667e000c4bfb9ea4c3e01d66,687ed1b7e638a4cbf2f02089,688147b552fc52027fea529d,,,,,,,,,,,,,,1,,,,,,,,,,,,,,,,,,,,,,,,,,,,,,,,,,,,,,,,,,,,,,,,,,,,,,,,,83,guante,,,,,828.782,830.8666,1,1,1.5554,,0,51,51,82,1,REAL,FAKE,,,,,,,,,,,,,,,,,
,,,,,,,,,667e000c4bfb9ea4c3e01d66,spanish,13 or older,"no, only English or Spanish",yes,2025-07-23_16h40.01.289,empathy_intonation_perc,2024.2.4,Win32,59.52380952,667e000c4bfb9ea4c3e01d66,687ed1b7e638a4cbf2f02089,688147b552fc52027fea529d,,,,,,,,,,,,,,0,,,,,,,,,,,,,,,,,,,,,,,,,,,,,,,,,,,,,,,,,,,,,,,,,,,,,,,,,92,click the 0 key.,,,,,830.8698,834.524,0,1,3.1146,,0,52,52,91,1,REAL,FAKE,,,,,,,,,,,,,,,,,
,,,,,,,,,667e000c4bfb9ea4c3e01d66,spanish,13 or older,"no, only English or Spanish",yes,2025-07-23_16h40.01.289,empathy_intonation_perc,2024.2.4,Win32,59.52380952,667e000c4bfb9ea4c3e01d66,687ed1b7e638a4cbf2f02089,688147b552fc52027fea529d,,,,,,,,,,,,,,0,,,,,,,,,,,,,,,,,,,,,,,,,,,,,,,,,,,,,,,,,,,,,,,,,,,,,,,,,50,flamida,,,,,834.5268,837.7069,0,1,2.6428,,0,53,53,49,1,REAL,FAKE,,,,,,,,,,,,,,,,,
,,,,,,,,,667e000c4bfb9ea4c3e01d66,spanish,13 or older,"no, only English or Spanish",yes,2025-07-23_16h40.01.289,empathy_intonation_perc,2024.2.4,Win32,59.52380952,667e000c4bfb9ea4c3e01d66,687ed1b7e638a4cbf2f02089,688147b552fc52027fea529d,,,,,,,,,,,,,,1,,,,,,,,,,,,,,,,,,,,,,,,,,,,,,,,,,,,,,,,,,,,,,,,,,,,,,,,,7,pésimo,,,,,837.7097,841.4505,0,0,3.2037,,0,54,54,6,1,REAL,FAKE,,,,,,,,,,,,,,,,,
,,,,,,,,,667e000c4bfb9ea4c3e01d66,spanish,13 or older,"no, only English or Spanish",yes,2025-07-23_16h40.01.289,empathy_intonation_perc,2024.2.4,Win32,59.52380952,667e000c4bfb9ea4c3e01d66,687ed1b7e638a4cbf2f02089,688147b552fc52027fea529d,,,,,,,,,,,,,,1,,,,,,,,,,,,,,,,,,,,,,,,,,,,,,,,,,,,,,,,,,,,,,,,,,,,,,,,,68,alegre,,,,,841.4537,844.9391,1,1,2.9657,,0,55,55,67,1,REAL,FAKE,,,,,,,,,,,,,,,,,
,,,,,,,,,667e000c4bfb9ea4c3e01d66,spanish,13 or older,"no, only English or Spanish",yes,2025-07-23_16h40.01.289,empathy_intonation_perc,2024.2.4,Win32,59.52380952,667e000c4bfb9ea4c3e01d66,687ed1b7e638a4cbf2f02089,688147b552fc52027fea529d,,,,,,,,,,,,,,0,,,,,,,,,,,,,,,,,,,,,,,,,,,,,,,,,,,,,,,,,,,,,,,,,,,,,,,,,63,esposante,,,,,844.9402,848.0903,1,0,2.5941,,0,56,56,62,1,REAL,FAKE,,,,,,,,,,,,,,,,,
,,,,,,,,,667e000c4bfb9ea4c3e01d66,spanish,13 or older,"no, only English or Spanish",yes,2025-07-23_16h40.01.289,empathy_intonation_perc,2024.2.4,Win32,59.52380952,667e000c4bfb9ea4c3e01d66,687ed1b7e638a4cbf2f02089,688147b552fc52027fea529d,,,,,,,,,,,,,,1,,,,,,,,,,,,,,,,,,,,,,,,,,,,,,,,,,,,,,,,,,,,,,,,,,,,,,,,,38,estornudar,,,,,848.0932,850.4605,0,0,1.8323,,0,57,57,37,1,REAL,FAKE,,,,,,,,,,,,,,,,,
,,,,,,,,,667e000c4bfb9ea4c3e01d66,spanish,13 or older,"no, only English or Spanish",yes,2025-07-23_16h40.01.289,empathy_intonation_perc,2024.2.4,Win32,59.52380952,667e000c4bfb9ea4c3e01d66,687ed1b7e638a4cbf2f02089,688147b552fc52027fea529d,,,,,,,,,,,,,,0,,,,,,,,,,,,,,,,,,,,,,,,,,,,,,,,,,,,,,,,,,,,,,,,,,,,,,,,,70,temblo,,,,,850.4635,852.3908,1,0,1.3791,,0,58,58,69,1,REAL,FAKE,,,,,,,,,,,,,,,,,
,,,,,,,,,667e000c4bfb9ea4c3e01d66,spanish,13 or older,"no, only English or Spanish",yes,2025-07-23_16h40.01.289,empathy_intonation_perc,2024.2.4,Win32,59.52380952,667e000c4bfb9ea4c3e01d66,687ed1b7e638a4cbf2f02089,688147b552fc52027fea529d,,,,,,,,,,,,,,0,,,,,,,,,,,,,,,,,,,,,,,,,,,,,,,,,,,,,,,,,,,,,,,,,,,,,,,,,17,floroso,,,,,852.3938,855.9881,1,0,3.068,,0,59,59,16,1,REAL,FAKE,,,,,,,,,,,,,,,,,
,,,,,,,,,667e000c4bfb9ea4c3e01d66,spanish,13 or older,"no, only English or Spanish",yes,2025-07-23_16h40.01.289,empathy_intonation_perc,2024.2.4,Win32,59.52380952,667e000c4bfb9ea4c3e01d66,687ed1b7e638a4cbf2f02089,688147b552fc52027fea529d,,,,,,,,,,,,,,1,,,,,,,,,,,,,,,,,,,,,,,,,,,,,,,,,,,,,,,,,,,,,,,,,,,,,,,,,13,helar,,,,,855.991,858.8667,0,0,2.3466,,0,60,60,12,1,REAL,FAKE,,,,,,,,,,,,,,,,,
,,,,,,,,,667e000c4bfb9ea4c3e01d66,spanish,13 or older,"no, only English or Spanish",yes,2025-07-23_16h40.01.289,empathy_intonation_perc,2024.2.4,Win32,59.52380952,667e000c4bfb9ea4c3e01d66,687ed1b7e638a4cbf2f02089,688147b552fc52027fea529d,,,,,,,,,,,,,,1,,,,,,,,,,,,,,,,,,,,,,,,,,,,,,,,,,,,,,,,,,,,,,,,,,,,,,,,,46,martillo,,,,,858.8675,861.6398,1,1,2.2339,,0,61,61,45,1,REAL,FAKE,,,,,,,,,,,,,,,,,
,,,,,,,,,667e000c4bfb9ea4c3e01d66,spanish,13 or older,"no, only English or Spanish",yes,2025-07-23_16h40.01.289,empathy_intonation_perc,2024.2.4,Win32,59.52380952,667e000c4bfb9ea4c3e01d66,687ed1b7e638a4cbf2f02089,688147b552fc52027fea529d,,,,,,,,,,,,,,1,,,,,,,,,,,,,,,,,,,,,,,,,,,,,,,,,,,,,,,,,,,,,,,,,,,,,,,,,75,yacer,,,,,861.6427,864.1008,0,0,1.927,,0,62,62,74,1,REAL,FAKE,,,,,,,,,,,,,,,,,
,,,,,,,,,667e000c4bfb9ea4c3e01d66,spanish,13 or older,"no, only English or Spanish",yes,2025-07-23_16h40.01.289,empathy_intonation_perc,2024.2.4,Win32,59.52380952,667e000c4bfb9ea4c3e01d66,687ed1b7e638a4cbf2f02089,688147b552fc52027fea529d,,,,,,,,,,,,,,0,,,,,,,,,,,,,,,,,,,,,,,,,,,,,,,,,,,,,,,,,,,,,,,,,,,,,,,,,58,plaudir,,,,,864.1037,866.5649,0,1,1.9262,,0,63,63,57,1,REAL,FAKE,,,,,,,,,,,,,,,,,
,,,,,,,,,667e000c4bfb9ea4c3e01d66,spanish,13 or older,"no, only English or Spanish",yes,2025-07-23_16h40.01.289,empathy_intonation_perc,2024.2.4,Win32,59.52380952,667e000c4bfb9ea4c3e01d66,687ed1b7e638a4cbf2f02089,688147b552fc52027fea529d,,,,,,,,,,,,,,1,,,,,,,,,,,,,,,,,,,,,,,,,,,,,,,,,,,,,,,,,,,,,,,,,,,,,,,,,45,jilguero,,,,,866.5678,869.8619,1,1,2.7563,,0,64,64,44,1,REAL,FAKE,,,,,,,,,,,,,,,,,
,,,,,,,,,667e000c4bfb9ea4c3e01d66,spanish,13 or older,"no, only English or Spanish",yes,2025-07-23_16h40.01.289,empathy_intonation_perc,2024.2.4,Win32,59.52380952,667e000c4bfb9ea4c3e01d66,687ed1b7e638a4cbf2f02089,688147b552fc52027fea529d,,,,,,,,,,,,,,0,,,,,,,,,,,,,,,,,,,,,,,,,,,,,,,,,,,,,,,,,,,,,,,,,,,,,,,,,53,vegada,,,,,869.8648,871.2283,0,1,0.8271,,0,65,65,52,1,REAL,FAKE,,,,,,,,,,,,,,,,,
,,,,,,,,,667e000c4bfb9ea4c3e01d66,spanish,13 or older,"no, only English or Spanish",yes,2025-07-23_16h40.01.289,empathy_intonation_perc,2024.2.4,Win32,59.52380952,667e000c4bfb9ea4c3e01d66,687ed1b7e638a4cbf2f02089,688147b552fc52027fea529d,,,,,,,,,,,,,,1,,,,,,,,,,,,,,,,,,,,,,,,,,,,,,,,,,,,,,,,,,,,,,,,,,,,,,,,,48,ladrón,,,,,871.232,872.7489,1,1,0.9785,,0,66,66,47,1,REAL,FAKE,,,,,,,,,,,,,,,,,
,,,,,,,,,667e000c4bfb9ea4c3e01d66,spanish,13 or older,"no, only English or Spanish",yes,2025-07-23_16h40.01.289,empathy_intonation_perc,2024.2.4,Win32,59.52380952,667e000c4bfb9ea4c3e01d66,687ed1b7e638a4cbf2f02089,688147b552fc52027fea529d,,,,,,,,,,,,,,0,,,,,,,,,,,,,,,,,,,,,,,,,,,,,,,,,,,,,,,,,,,,,,,,,,,,,,,,,47,cartinar,,,,,872.7515,874.3528,0,1,1.0522,,0,67,67,46,1,REAL,FAKE,,,,,,,,,,,,,,,,,
,,,,,,,,,667e000c4bfb9ea4c3e01d66,spanish,13 or older,"no, only English or Spanish",yes,2025-07-23_16h40.01.289,empathy_intonation_perc,2024.2.4,Win32,59.52380952,667e000c4bfb9ea4c3e01d66,687ed1b7e638a4cbf2f02089,688147b552fc52027fea529d,,,,,,,,,,,,,,1,,,,,,,,,,,,,,,,,,,,,,,,,,,,,,,,,,,,,,,,,,,,,,,,,,,,,,,,,86,barato,,,,,874.3553,875.9925,1,1,1.1043,,0,68,68,85,1,REAL,FAKE,,,,,,,,,,,,,,,,,
,,,,,,,,,667e000c4bfb9ea4c3e01d66,spanish,13 or older,"no, only English or Spanish",yes,2025-07-23_16h40.01.289,empathy_intonation_perc,2024.2.4,Win32,59.52380952,667e000c4bfb9ea4c3e01d66,687ed1b7e638a4cbf2f02089,688147b552fc52027fea529d,,,,,,,,,,,,,,0,,,,,,,,,,,,,,,,,,,,,,,,,,,,,,,,,,,,,,,,,,,,,,,,,,,,,,,,,27,acutación,,,,,875.9953,878.6361,1,0,2.0968,,0,69,69,26,1,REAL,FAKE,,,,,,,,,,,,,,,,,
,,,,,,,,,667e000c4bfb9ea4c3e01d66,spanish,13 or older,"no, only English or Spanish",yes,2025-07-23_16h40.01.289,empathy_intonation_perc,2024.2.4,Win32,59.52380952,667e000c4bfb9ea4c3e01d66,687ed1b7e638a4cbf2f02089,688147b552fc52027fea529d,,,,,,,,,,,,,,0,,,,,,,,,,,,,,,,,,,,,,,,,,,,,,,,,,,,,,,,,,,,,,,,,,,,,,,,,29,decar,,,,,878.6393,881.1328,1,0,1.9579,,0,70,70,28,1,REAL,FAKE,,,,,,,,,,,,,,,,,
,,,,,,,,,667e000c4bfb9ea4c3e01d66,spanish,13 or older,"no, only English or Spanish",yes,2025-07-23_16h40.01.289,empathy_intonation_perc,2024.2.4,Win32,59.52380952,667e000c4bfb9ea4c3e01d66,687ed1b7e638a4cbf2f02089,688147b552fc52027fea529d,,,,,,,,,,,,,,1,,,,,,,,,,,,,,,,,,,,,,,,,,,,,,,,,,,,,,,,,,,,,,,,,,,,,,,,,20,ávido,,,,,881.135,884.2147,1,1,2.5403,,0,71,71,19,1,REAL,FAKE,,,,,,,,,,,,,,,,,
,,,,,,,,,667e000c4bfb9ea4c3e01d66,spanish,13 or older,"no, only English or Spanish",yes,2025-07-23_16h40.01.289,empathy_intonation_perc,2024.2.4,Win32,59.52380952,667e000c4bfb9ea4c3e01d66,687ed1b7e638a4cbf2f02089,688147b552fc52027fea529d,,,,,,,,,,,,,,0,,,,,,,,,,,,,,,,,,,,,,,,,,,,,,,,,,,,,,,,,,,,,,,,,,,,,,,,,32,fatacidad,,,,,884.2173,888.7847,1,0,4.0393,,0,72,72,31,1,REAL,FAKE,,,,,,,,,,,,,,,,,
,,,,,,,,,667e000c4bfb9ea4c3e01d66,spanish,13 or older,"no, only English or Spanish",yes,2025-07-23_16h40.01.289,empathy_intonation_perc,2024.2.4,Win32,59.52380952,667e000c4bfb9ea4c3e01d66,687ed1b7e638a4cbf2f02089,688147b552fc52027fea529d,,,,,,,,,,,,,,0,,,,,,,,,,,,,,,,,,,,,,,,,,,,,,,,,,,,,,,,,,,,,,,,,,,,,,,,,35,rompido,,,,,888.7879,892.3901,1,0,3.0765,,0,73,73,34,1,REAL,FAKE,,,,,,,,,,,,,,,,,
,,,,,,,,,667e000c4bfb9ea4c3e01d66,spanish,13 or older,"no, only English or Spanish",yes,2025-07-23_16h40.01.289,empathy_intonation_perc,2024.2.4,Win32,59.52380952,667e000c4bfb9ea4c3e01d66,687ed1b7e638a4cbf2f02089,688147b552fc52027fea529d,,,,,,,,,,,,,,1,,,,,,,,,,,,,,,,,,,,,,,,,,,,,,,,,,,,,,,,,,,,,,,,,,,,,,,,,56,musgo,,,,,892.3932,894.1884,0,0,1.2658,,0,74,74,55,1,REAL,FAKE,,,,,,,,,,,,,,,,,
,,,,,,,,,667e000c4bfb9ea4c3e01d66,spanish,13 or older,"no, only English or Spanish",yes,2025-07-23_16h40.01.289,empathy_intonation_perc,2024.2.4,Win32,59.52380952,667e000c4bfb9ea4c3e01d66,687ed1b7e638a4cbf2f02089,688147b552fc52027fea529d,,,,,,,,,,,,,,1,,,,,,,,,,,,,,,,,,,,,,,,,,,,,,,,,,,,,,,,,,,,,,,,,,,,,,,,,39,torpe,,,,,894.1913,895.7723,0,0,1.0567,,0,75,75,38,1,REAL,FAKE,,,,,,,,,,,,,,,,,
,,,,,,,,,667e000c4bfb9ea4c3e01d66,spanish,13 or older,"no, only English or Spanish",yes,2025-07-23_16h40.01.289,empathy_intonation_perc,2024.2.4,Win32,59.52380952,667e000c4bfb9ea4c3e01d66,687ed1b7e638a4cbf2f02089,688147b552fc52027fea529d,,,,,,,,,,,,,,1,,,,,,,,,,,,,,,,,,,,,,,,,,,,,,,,,,,,,,,,,,,,,,,,,,,,,,,,,80,hormiga,,,,,895.7753,897.4605,1,1,1.1359,,0,76,76,79,1,REAL,FAKE,,,,,,,,,,,,,,,,,
,,,,,,,,,667e000c4bfb9ea4c3e01d66,spanish,13 or older,"no, only English or Spanish",yes,2025-07-23_16h40.01.289,empathy_intonation_perc,2024.2.4,Win32,59.52380952,667e000c4bfb9ea4c3e01d66,687ed1b7e638a4cbf2f02089,688147b552fc52027fea529d,,,,,,,,,,,,,,1,,,,,,,,,,,,,,,,,,,,,,,,,,,,,,,,,,,,,,,,,,,,,,,,,,,,,,,,,57,tacaño,,,,,897.4631,899.4807,1,1,1.4723,,0,77,77,56,1,REAL,FAKE,,,,,,,,,,,,,,,,,
,,,,,,,,,667e000c4bfb9ea4c3e01d66,spanish,13 or older,"no, only English or Spanish",yes,2025-07-23_16h40.01.289,empathy_intonation_perc,2024.2.4,Win32,59.52380952,667e000c4bfb9ea4c3e01d66,687ed1b7e638a4cbf2f02089,688147b552fc52027fea529d,,,,,,,,,,,,,,1,,,,,,,,,,,,,,,,,,,,,,,,,,,,,,,,,,,,,,,,,,,,,,,,,,,,,,,,,91,click the 1 key.,,,,,899.4841,902.1036,1,1,2.0922,,0,78,78,90,1,REAL,FAKE,,,,,,,,,,,,,,,,,
,,,,,,,,,667e000c4bfb9ea4c3e01d66,spanish,13 or older,"no, only English or Spanish",yes,2025-07-23_16h40.01.289,empathy_intonation_perc,2024.2.4,Win32,59.52380952,667e000c4bfb9ea4c3e01d66,687ed1b7e638a4cbf2f02089,688147b552fc52027fea529d,,,,,,,,,,,,,,1,,,,,,,,,,,,,,,,,,,,,,,,,,,,,,,,,,,,,,,,,,,,,,,,,,,,,,,,,37,granuja,,,,,902.1063,908.6139,0,0,5.9634,,0,79,79,36,1,REAL,FAKE,,,,,,,,,,,,,,,,,
,,,,,,,,,667e000c4bfb9ea4c3e01d66,spanish,13 or older,"no, only English or Spanish",yes,2025-07-23_16h40.01.289,empathy_intonation_perc,2024.2.4,Win32,59.52380952,667e000c4bfb9ea4c3e01d66,687ed1b7e638a4cbf2f02089,688147b552fc52027fea529d,,,,,,,,,,,,,,1,,,,,,,,,,,,,,,,,,,,,,,,,,,,,,,,,,,,,,,,,,,,,,,,,,,,,,,,,51,candado,,,,,908.6167,910.2466,1,1,1.1027,,0,80,80,50,1,REAL,FAKE,,,,,,,,,,,,,,,,,
,,,,,,,,,667e000c4bfb9ea4c3e01d66,spanish,13 or older,"no, only English or Spanish",yes,2025-07-23_16h40.01.289,empathy_intonation_perc,2024.2.4,Win32,59.52380952,667e000c4bfb9ea4c3e01d66,687ed1b7e638a4cbf2f02089,688147b552fc52027fea529d,,,,,,,,,,,,,,1,,,,,,,,,,,,,,,,,,,,,,,,,,,,,,,,,,,,,,,,,,,,,,,,,,,,,,,,,31,pandilla,,,,,910.2497,911.8159,0,0,1.0397,,0,81,81,30,1,REAL,FAKE,,,,,,,,,,,,,,,,,
,,,,,,,,,667e000c4bfb9ea4c3e01d66,spanish,13 or older,"no, only English or Spanish",yes,2025-07-23_16h40.01.289,empathy_intonation_perc,2024.2.4,Win32,59.52380952,667e000c4bfb9ea4c3e01d66,687ed1b7e638a4cbf2f02089,688147b552fc52027fea529d,,,,,,,,,,,,,,1,,,,,,,,,,,,,,,,,,,,,,,,,,,,,,,,,,,,,,,,,,,,,,,,,,,,,,,,,81,pozo,,,,,911.8188,913.7437,1,1,1.3846,,0,82,82,80,1,REAL,FAKE,,,,,,,,,,,,,,,,,
,,,,,,,,,667e000c4bfb9ea4c3e01d66,spanish,13 or older,"no, only English or Spanish",yes,2025-07-23_16h40.01.289,empathy_intonation_perc,2024.2.4,Win32,59.52380952,667e000c4bfb9ea4c3e01d66,687ed1b7e638a4cbf2f02089,688147b552fc52027fea529d,,,,,,,,,,,,,,0,,,,,,,,,,,,,,,,,,,,,,,,,,,,,,,,,,,,,,,,,,,,,,,,,,,,,,,,,84,escuto,,,,,913.7464,915.3748,1,0,1.0817,,0,83,83,83,1,REAL,FAKE,,,,,,,,,,,,,,,,,
,,,,,,,,,667e000c4bfb9ea4c3e01d66,spanish,13 or older,"no, only English or Spanish",yes,2025-07-23_16h40.01.289,empathy_intonation_perc,2024.2.4,Win32,59.52380952,667e000c4bfb9ea4c3e01d66,687ed1b7e638a4cbf2f02089,688147b552fc52027fea529d,,,,,,,,,,,,,,1,,,,,,,,,,,,,,,,,,,,,,,,,,,,,,,,,,,,,,,,,,,,,,,,,,,,,,,,,55,nevar,,,,,915.3774,916.6637,0,0,0.7486,,0,84,84,54,1,REAL,FAKE,,,,,,,,,,,,,,,,,
,,,,,,,,,667e000c4bfb9ea4c3e01d66,spanish,13 or older,"no, only English or Spanish",yes,2025-07-23_16h40.01.289,empathy_intonation_perc,2024.2.4,Win32,59.52380952,667e000c4bfb9ea4c3e01d66,687ed1b7e638a4cbf2f02089,688147b552fc52027fea529d,,,,,,,,,,,,,,0,,,,,,,,,,,,,,,,,,,,,,,,,,,,,,,,,,,,,,,,,,,,,,,,,,,,,,,,,74,cintro,,,,,916.667,917.983,1,0,0.7866,,0,85,85,73,1,REAL,FAKE,,,,,,,,,,,,,,,,,
,,,,,,,,,667e000c4bfb9ea4c3e01d66,spanish,13 or older,"no, only English or Spanish",yes,2025-07-23_16h40.01.289,empathy_intonation_perc,2024.2.4,Win32,59.52380952,667e000c4bfb9ea4c3e01d66,687ed1b7e638a4cbf2f02089,688147b552fc52027fea529d,,,,,,,,,,,,,,1,,,,,,,,,,,,,,,,,,,,,,,,,,,,,,,,,,,,,,,,,,,,,,,,,,,,,,,,,89,prisa,,,,,917.9857,919.4601,1,1,0.9314,,0,86,86,88,1,REAL,FAKE,,,,,,,,,,,,,,,,,
,,,,,,,,,667e000c4bfb9ea4c3e01d66,spanish,13 or older,"no, only English or Spanish",yes,2025-07-23_16h40.01.289,empathy_intonation_perc,2024.2.4,Win32,59.52380952,667e000c4bfb9ea4c3e01d66,687ed1b7e638a4cbf2f02089,688147b552fc52027fea529d,,,,,,,,,,,,,,0,,,,,,,,,,,,,,,,,,,,,,,,,,,,,,,,,,,,,,,,,,,,,,,,,,,,,,,,,87,grodo,,,,,919.4632,921.431,0,1,1.43,,0,87,87,86,1,REAL,FAKE,,,,,,,,,,,,,,,,,
,,,,,,,,,667e000c4bfb9ea4c3e01d66,spanish,13 or older,"no, only English or Spanish",yes,2025-07-23_16h40.01.289,empathy_intonation_perc,2024.2.4,Win32,59.52380952,667e000c4bfb9ea4c3e01d66,687ed1b7e638a4cbf2f02089,688147b552fc52027fea529d,,,,,,,,,,,,,,1,,,,,,,,,,,,,,,,,,,,,,,,,,,,,,,,,,,,,,,,,,,,,,,,,,,,,,,,,49,ganar,,,,,921.4319,922.9629,0,0,0.9997,,0,88,88,48,1,REAL,FAKE,,,,,,,,,,,,,,,,,
,,,,,,,,,667e000c4bfb9ea4c3e01d66,spanish,13 or older,"no, only English or Spanish",yes,2025-07-23_16h40.01.289,empathy_intonation_perc,2024.2.4,Win32,59.52380952,667e000c4bfb9ea4c3e01d66,687ed1b7e638a4cbf2f02089,688147b552fc52027fea529d,,,,,,,,,,,,,,1,,,,,,,,,,,,,,,,,,,,,,,,,,,,,,,,,,,,,,,,,,,,,,,,,,,,,,,,,14,yunque,,,,,922.9636,924.7391,0,0,1.2348,,0,89,89,13,1,REAL,FAKE,,,,,,,,,,,,,,,,,
,,,,,,,,,667e000c4bfb9ea4c3e01d66,spanish,13 or older,"no, only English or Spanish",yes,2025-07-23_16h40.01.289,empathy_intonation_perc,2024.2.4,Win32,59.52380952,667e000c4bfb9ea4c3e01d66,687ed1b7e638a4cbf2f02089,688147b552fc52027fea529d,,,,,,,,,,,,,,1,,,,,,,,,,,,,,,,,,,,,,,,,,,,,,,,,,,,,,,,,,,,,,,,,,,,,,,,,12,asesinato,,,,,924.7418,927.4016,1,1,2.1335,,0,90,90,11,1,REAL,FAKE,,,,,,,,,,,,,,,,,
,,,,,,,,,667e000c4bfb9ea4c3e01d66,spanish,13 or older,"no, only English or Spanish",yes,2025-07-23_16h40.01.289,empathy_intonation_perc,2024.2.4,Win32,59.52380952,667e000c4bfb9ea4c3e01d66,687ed1b7e638a4cbf2f02089,688147b552fc52027fea529d,,,,,,,,,,,,,,1,,,,,,,,,,,,,,,,,,,,,,,,,,,,,,,,,,,,,,,,,,,,,,,,,,,,,,,,,11,cenefa,,,,,927.4025,929.3767,1,1,1.4411,,0,91,91,10,1,REAL,FAKE,,,,,,,,,,,,,,,,,
,,,,,,,,,667e000c4bfb9ea4c3e01d66,spanish,13 or older,"no, only English or Spanish",yes,2025-07-23_16h40.01.289,empathy_intonation_perc,2024.2.4,Win32,59.52380952,667e000c4bfb9ea4c3e01d66,687ed1b7e638a4cbf2f02089,688147b552fc52027fea529d,,,,,,,,,,,,,,,,,,,,,,,,,,,,,,,,,,,,,,,,,,,,,,,,,,,,,,,,,,,,,,,,,,,,,,,,,,,,,,,,,,,,,,,,,,929.3786,939.9513,,,,,,,,,,,,,,,
,,,,,,,,,667e000c4bfb9ea4c3e01d66,spanish,13 or older,"no, only English or Spanish",yes,2025-07-23_16h40.01.289,empathy_intonation_perc,2024.2.4,Win32,59.52380952,667e000c4bfb9ea4c3e01d66,687ed1b7e638a4cbf2f02089,688147b552fc52027fea529d,,,,,,,,,,,,,1,,,,,,,,,,,,,,,,,,,,,,,,,,,,,,,,,,,,,,,,,,,,,,,,,,,,,,,,,,,,,,,,,,,,,,,,,,,,,,,939.967,947.7194,strongly agree,0,0,0,0,1,I can easily tell if someone else wants to enter a conversation.,1,0,1,0,,
,,,,,,,,,667e000c4bfb9ea4c3e01d66,spanish,13 or older,"no, only English or Spanish",yes,2025-07-23_16h40.01.289,empathy_intonation_perc,2024.2.4,Win32,59.52380952,667e000c4bfb9ea4c3e01d66,687ed1b7e638a4cbf2f02089,688147b552fc52027fea529d,,,,,,,,,,,,,2,,,,,,,,,,,,,,,,,,,,,,,,,,,,,,,,,,,,,,,,,,,,,,,,,,,,,,,,,,,,,,,,,,,,,,,,,,,,,,,947.7244,949.9941,strongly agree,0,1,1,1,1,I prefer animals to humans.,0,1,0,0,,
,,,,,,,,,667e000c4bfb9ea4c3e01d66,spanish,13 or older,"no, only English or Spanish",yes,2025-07-23_16h40.01.289,empathy_intonation_perc,2024.2.4,Win32,59.52380952,667e000c4bfb9ea4c3e01d66,687ed1b7e638a4cbf2f02089,688147b552fc52027fea529d,,,,,,,,,,,,,3,,,,,,,,,,,,,,,,,,,,,,,,,,,,,,,,,,,,,,,,,,,,,,,,,,,,,,,,,,,,,,,,,,,,,,,,,,,,,,,950.0004,952.3486,strongly agree,0,2,2,2,1,I try to keep up with the current trends and fashions.,0,1,0,0,,
,,,,,,,,,667e000c4bfb9ea4c3e01d66,spanish,13 or older,"no, only English or Spanish",yes,2025-07-23_16h40.01.289,empathy_intonation_perc,2024.2.4,Win32,59.52380952,667e000c4bfb9ea4c3e01d66,687ed1b7e638a4cbf2f02089,688147b552fc52027fea529d,,,,,,,,,,,,,4,,,,,,,,,,,,,,,,,,,,,,,,,,,,,,,,,,,,,,,,,,,,,,,,,,,,,,,,,,,,,,,,,,,,,,,,,,,,,,,952.3544,957.1803,slightly agree,0,3,3,3,1,"I find it difficult to explain to others things that I understand easily,   when they don't understand it first time.",1,0,0,1,,
,,,,,,,,,667e000c4bfb9ea4c3e01d66,spanish,13 or older,"no, only English or Spanish",yes,2025-07-23_16h40.01.289,empathy_intonation_perc,2024.2.4,Win32,59.52380952,667e000c4bfb9ea4c3e01d66,687ed1b7e638a4cbf2f02089,688147b552fc52027fea529d,,,,,,,,,,,,,5,,,,,,,,,,,,,,,,,,,,,,,,,,,,,,,,,,,,,,,,,,,,,,,,,,,,,,,,,,,,,,,,,,,,,,,,,,,,,,,957.1832,961.7638,slightly disagree,0,4,4,4,1,I dream most nights.,0,1,0,0,,
,,,,,,,,,667e000c4bfb9ea4c3e01d66,spanish,13 or older,"no, only English or Spanish",yes,2025-07-23_16h40.01.289,empathy_intonation_perc,2024.2.4,Win32,59.52380952,667e000c4bfb9ea4c3e01d66,687ed1b7e638a4cbf2f02089,688147b552fc52027fea529d,,,,,,,,,,,,,6,,,,,,,,,,,,,,,,,,,,,,,,,,,,,,,,,,,,,,,,,,,,,,,,,,,,,,,,,,,,,,,,,,,,,,,,,,,,,,,961.7683,964.8195,slightly agree,0,5,5,5,1,I really enjoy caring for other people.,1,0,1,0,,
,,,,,,,,,667e000c4bfb9ea4c3e01d66,spanish,13 or older,"no, only English or Spanish",yes,2025-07-23_16h40.01.289,empathy_intonation_perc,2024.2.4,Win32,59.52380952,667e000c4bfb9ea4c3e01d66,687ed1b7e638a4cbf2f02089,688147b552fc52027fea529d,,,,,,,,,,,,,7,,,,,,,,,,,,,,,,,,,,,,,,,,,,,,,,,,,,,,,,,,,,,,,,,,,,,,,,,,,,,,,,,,,,,,,,,,,,,,,964.8237,968.2589,strongly agree,0,6,6,6,1,I try to solve my own problems rather than discussing them with others.,0,1,0,0,,
,,,,,,,,,667e000c4bfb9ea4c3e01d66,spanish,13 or older,"no, only English or Spanish",yes,2025-07-23_16h40.01.289,empathy_intonation_perc,2024.2.4,Win32,59.52380952,667e000c4bfb9ea4c3e01d66,687ed1b7e638a4cbf2f02089,688147b552fc52027fea529d,,,,,,,,,,,,,8,,,,,,,,,,,,,,,,,,,,,,,,,,,,,,,,,,,,,,,,,,,,,,,,,,,,,,,,,,,,,,,,,,,,,,,,,,,,,,,968.2615,971.6913,strongly disagree,0,7,7,7,1,I find it hard to know what to do in a social situation.,1,0,0,1,,
,,,,,,,,,667e000c4bfb9ea4c3e01d66,spanish,13 or older,"no, only English or Spanish",yes,2025-07-23_16h40.01.289,empathy_intonation_perc,2024.2.4,Win32,59.52380952,667e000c4bfb9ea4c3e01d66,687ed1b7e638a4cbf2f02089,688147b552fc52027fea529d,,,,,,,,,,,,,9,,,,,,,,,,,,,,,,,,,,,,,,,,,,,,,,,,,,,,,,,,,,,,,,,,,,,,,,,,,,,,,,,,,,,,,,,,,,,,,971.6945,974.7215,slightly disagree,0,8,8,8,1,I am at my best first thing in the morning.,0,1,0,0,,
