instructions_exposure.started,instructions_exposure.stopped,instructions_exposure_loop.thisRepN,instructions_exposure_loop.thisTrialN,instructions_exposure_loop.thisN,instructions_exposure_loop.thisIndex,instructions_exposure_loop.ran,instructions_text,continue_text,participant_id,"What variety of Spanish are you most familiar with? (e.g., Peruvian, Spanish, Mexican)",At what age did you begin learning Spanish?,Are you proficient in any languages other than English/Spanish?,"Are you familiar with Caribbean (e.g., Caribbean, Puerto Rican) or Galician Spanish?",date,expName,psychopyVersion,OS,frameRate,id,study_id,session,trial_exposure.started,trial_exposure.stopped,key_resp_exposure.keys,key_resp_exposure.corr,key_resp_exposure.rt,key_resp_exposure.duration,key_resp.keys,exposure_loop.thisRepN,exposure_loop.thisTrialN,exposure_loop.thisN,exposure_loop.thisIndex,exposure_loop.ran,item_num,correct_response,question,path,duration,instructions_2afc.started,instructions_2afc.stopped,instructions_2afc_loop.thisRepN,instructions_2afc_loop.thisTrialN,instructions_2afc_loop.thisN,instructions_2afc_loop.thisIndex,instructions_2afc_loop.ran,practice_2afc.started,practice_2afc.stopped,key_resp_2afc_practice.keys,key_resp_2afc_practice.corr,key_resp_2afc_practice.rt,key_resp_2afc_practice.duration,trials_2afc_practice_loop.thisRepN,trials_2afc_practice_loop.thisTrialN,trials_2afc_practice_loop.thisN,trials_2afc_practice_loop.thisIndex,trials_2afc_practice_loop.ran,check_2afc.started,check_2afc.stopped,trial_2afc.started,trial_2afc.stopped,key_resp_2afc_trial.keys,key_resp_2afc_trial.corr,key_resp_2afc_trial.rt,key_resp_2afc_trial.duration,trials_2afc_loop.thisRepN,trials_2afc_loop.thisTrialN,trials_2afc_loop.thisN,trials_2afc_loop.thisIndex,trials_2afc_loop.ran,target,variety,instructions_lextale.started,instructions_lextale.stopped,instructions_lextale_loop.thisRepN,instructions_lextale_loop.thisTrialN,instructions_lextale_loop.thisN,instructions_lextale_loop.thisIndex,instructions_lextale_loop.ran,practice_lextale.started,practice_lextale.stopped,key_resp_lextale_practice.keys,key_resp_lextale_practice.corr,key_resp_lextale_practice.rt,key_resp_lextale_practice.duration,practice_feedback_lextale.started,practice_feedback_lextale.stopped,trials_lextale_practice_loop.thisRepN,trials_lextale_practice_loop.thisTrialN,trials_lextale_practice_loop.thisN,trials_lextale_practice_loop.thisIndex,trials_lextale_practice_loop.ran,stim,word,prac_button_real,prac_button_false,check_lextale.started,check_lextale.stopped,trial_lextale.started,trial_lextale.stopped,key_resp_lextale_trial.keys,key_resp_lextale_trial.corr,key_resp_lextale_trial.rt,key_resp_lextale_trial.duration,trials_lextale_loop.thisRepN,trials_lextale_loop.thisTrialN,trials_lextale_loop.thisN,trials_lextale_loop.thisIndex,trials_lextale_loop.ran,button_real,button_false,instructions_eq.started,instructions_eq.stopped,trial_eq.started,trial_eq.stopped,slider_eq_trial.response,trials_eq_loop.thisRepN,trials_eq_loop.thisTrialN,trials_eq_loop.thisN,trials_eq_loop.thisIndex,trials_eq_loop.ran,item,is_test_item,is_distractor,is_agree_score,is_disagree_score,end_exp.started,end_exp.stopped
0.0566,4.3214,0,0,0,0,1,"In the following task, you are going to hear a series of conversations.", (press the space bar to continue),66828964434e3570607d323d,formal spanish,13 or older,click here to respond,no,2025-07-23_16h36.24.324,empathy_intonation_perc,2024.2.4,Win32,60.24096386,66828964434e3570607d323d,687ed1b7e638a4cbf2f02089,6881475ce9206e3a323c3d0a,,,,,,,,,,,,,,,,,,,,,,,,,,,,,,,,,,,,,,,,,,,,,,,,,,,,,,,,,,,,,,,,,,,,,,,,,,,,,,,,,,,,,,,,,,,,,,,,,,,,,,,,,,
4.3237,12.7398,0,1,1,1,1,It is okay if you don't not 100% understand them!, (press the space bar to continue),66828964434e3570607d323d,formal spanish,13 or older,click here to respond,no,2025-07-23_16h36.24.324,empathy_intonation_perc,2024.2.4,Win32,60.24096386,66828964434e3570607d323d,687ed1b7e638a4cbf2f02089,6881475ce9206e3a323c3d0a,,,,,,,,,,,,,,,,,,,,,,,,,,,,,,,,,,,,,,,,,,,,,,,,,,,,,,,,,,,,,,,,,,,,,,,,,,,,,,,,,,,,,,,,,,,,,,,,,,,,,,,,,,
12.7453,18.1999,0,2,2,2,1,"After, you will read a sentence about the conversation and decide if it's true or false.", (press the space bar to continue),66828964434e3570607d323d,formal spanish,13 or older,click here to respond,no,2025-07-23_16h36.24.324,empathy_intonation_perc,2024.2.4,Win32,60.24096386,66828964434e3570607d323d,687ed1b7e638a4cbf2f02089,6881475ce9206e3a323c3d0a,,,,,,,,,,,,,,,,,,,,,,,,,,,,,,,,,,,,,,,,,,,,,,,,,,,,,,,,,,,,,,,,,,,,,,,,,,,,,,,,,,,,,,,,,,,,,,,,,,,,,,,,,,
18.2076,69.0675,0,3,3,3,1,"If it's true, press '1' (True) and if it's false press '0' (False).", (press the space bar to continue),66828964434e3570607d323d,formal spanish,13 or older,click here to respond,no,2025-07-23_16h36.24.324,empathy_intonation_perc,2024.2.4,Win32,60.24096386,66828964434e3570607d323d,687ed1b7e638a4cbf2f02089,6881475ce9206e3a323c3d0a,,,,,,,,,,,,,,,,,,,,,,,,,,,,,,,,,,,,,,,,,,,,,,,,,,,,,,,,,,,,,,,,,,,,,,,,,,,,,,,,,,,,,,,,,,,,,,,,,,,,,,,,,,
,,,,,,,,,66828964434e3570607d323d,formal spanish,13 or older,click here to respond,no,2025-07-23_16h36.24.324,empathy_intonation_perc,2024.2.4,Win32,60.24096386,66828964434e3570607d323d,687ed1b7e638a4cbf2f02089,6881475ce9206e3a323c3d0a,69.1044,107.5063,1,0,2.3374,,,0,0,0,2,1,3,0,The mom already has rice.,./stim/exposure_wavs/pr_stimuli_convo.wav,36,,,,,,,,,,,,,,,,,,,,,,,,,,,,,,,,,,,,,,,,,,,,,,,,,,,,,,,,,,,,,,,,,,,,,,,,,,,,,,,,,,,,,,,,,
,,,,,,,,,66828964434e3570607d323d,formal spanish,13 or older,click here to respond,no,2025-07-23_16h36.24.324,empathy_intonation_perc,2024.2.4,Win32,60.24096386,66828964434e3570607d323d,687ed1b7e638a4cbf2f02089,6881475ce9206e3a323c3d0a,107.5202,174.3348,1,1,6.7875,,,0,1,1,1,1,2,1,The mom asked the daughter if she already went to the supermarket.,./stim/exposure_wavs/dr_stimuli_convo.wav,60,,,,,,,,,,,,,,,,,,,,,,,,,,,,,,,,,,,,,,,,,,,,,,,,,,,,,,,,,,,,,,,,,,,,,,,,,,,,,,,,,,,,,,,,,
,,,,,,,,,66828964434e3570607d323d,formal spanish,13 or older,click here to respond,no,2025-07-23_16h36.24.324,empathy_intonation_perc,2024.2.4,Win32,60.24096386,66828964434e3570607d323d,687ed1b7e638a4cbf2f02089,6881475ce9206e3a323c3d0a,174.3424,226.3294,0,0,4.9533,,,0,2,2,0,1,1,1,The son asked the mom if Aunt Marina is okay.,./stim/exposure_wavs/ga_stimuli_convo.wav,47,,,,,,,,,,,,,,,,,,,,,,,,,,,,,,,,,,,,,,,,,,,,,,,,,,,,,,,,,,,,,,,,,,,,,,,,,,,,,,,,,,,,,,,,,
,,,,,,,"In the following task you are going to hear a series of utterances. 

  You will decide if the utterances sound like questions or not using your keyboard.", (press the spacebar to continue),66828964434e3570607d323d,formal spanish,13 or older,click here to respond,no,2025-07-23_16h36.24.324,empathy_intonation_perc,2024.2.4,Win32,60.24096386,66828964434e3570607d323d,687ed1b7e638a4cbf2f02089,6881475ce9206e3a323c3d0a,,,,,,,,,,,,,,,,,,226.3702,237.7871,0,0,0,0,1,,,,,,,,,,,,,,,,,,,,,,,,,,,,,,,,,,,,,,,,,,,,,,,,,,,,,,,,,,,,,,,,,,,,,,,,,,,,,,,,,,
,,,,,,,"If you believe the utterance is a question, type '1' (for 'yes') and if you do not 
  believe it is a question type '0' (for 'no').

  Let's practice a bit...", (press the spacebar to continue),66828964434e3570607d323d,formal spanish,13 or older,click here to respond,no,2025-07-23_16h36.24.324,empathy_intonation_perc,2024.2.4,Win32,60.24096386,66828964434e3570607d323d,687ed1b7e638a4cbf2f02089,6881475ce9206e3a323c3d0a,,,,,,,,,,,,,,,,,,237.7951,242.8643,0,1,1,1,1,,,,,,,,,,,,,,,,,,,,,,,,,,,,,,,,,,,,,,,,,,,,,,,,,,,,,,,,,,,,,,,,,,,,,,,,,,,,,,,,,,
,,,,,,,,,66828964434e3570607d323d,formal spanish,13 or older,click here to respond,no,2025-07-23_16h36.24.324,empathy_intonation_perc,2024.2.4,Win32,60.24096386,66828964434e3570607d323d,687ed1b7e638a4cbf2f02089,6881475ce9206e3a323c3d0a,,,,,,,,,,,,,,1,,./stim/wavs/castilian_question_filler_Mi-esposo-conoce-al-chico.wav,,,,,,,,,242.8852,246.8978,1,1,3.477,,0,0,0,0,1,,,,,,,,,,,,,,,,,,,,,,,,,,,,,,,,,,,,,,,,,,,,,,,,,,,,,,,,,,,,,,,,,,,,,,,
,,,,,,,,,66828964434e3570607d323d,formal spanish,13 or older,click here to respond,no,2025-07-23_16h36.24.324,empathy_intonation_perc,2024.2.4,Win32,60.24096386,66828964434e3570607d323d,687ed1b7e638a4cbf2f02089,6881475ce9206e3a323c3d0a,,,,,,,,,,,,,,1,,./stim/wavs/chilean_question_filler_Mi-padre-cantaba-bien.wav,,,,,,,,,246.8988,250.8617,0,0,3.4311,,0,1,1,2,1,,,,,,,,,,,,,,,,,,,,,,,,,,,,,,,,,,,,,,,,,,,,,,,,,,,,,,,,,,,,,,,,,,,,,,,
,,,,,,,,,66828964434e3570607d323d,formal spanish,13 or older,click here to respond,no,2025-07-23_16h36.24.324,empathy_intonation_perc,2024.2.4,Win32,60.24096386,66828964434e3570607d323d,687ed1b7e638a4cbf2f02089,6881475ce9206e3a323c3d0a,,,,,,,,,,,,,,0,,./stim/wavs/cuban_statement_filler_Cocinabas-por-la-noche.wav,,,,,,,,,250.863,254.2423,0,1,2.8454,,0,2,2,4,1,,,,,,,,,,,,,,,,,,,,,,,,,,,,,,,,,,,,,,,,,,,,,,,,,,,,,,,,,,,,,,,,,,,,,,,
,,,,,,,,,66828964434e3570607d323d,formal spanish,13 or older,click here to respond,no,2025-07-23_16h36.24.324,empathy_intonation_perc,2024.2.4,Win32,60.24096386,66828964434e3570607d323d,687ed1b7e638a4cbf2f02089,6881475ce9206e3a323c3d0a,,,,,,,,,,,,,,1,,./stim/wavs/argentine_question_filler_Mi-vecino-habla-mucho.wav,,,,,,,,,254.2438,257.0422,1,1,2.2749,,0,3,3,1,1,,,,,,,,,,,,,,,,,,,,,,,,,,,,,,,,,,,,,,,,,,,,,,,,,,,,,,,,,,,,,,,,,,,,,,,
,,,,,,,,,66828964434e3570607d323d,formal spanish,13 or older,click here to respond,no,2025-07-23_16h36.24.324,empathy_intonation_perc,2024.2.4,Win32,60.24096386,66828964434e3570607d323d,687ed1b7e638a4cbf2f02089,6881475ce9206e3a323c3d0a,,,,,,,,,,,,,,0,,./stim/wavs/andalusian_statement_filler_Alberto-nunca-se-afeita.wav,,,,,,,,,257.0437,260.7203,0,1,3.1504,,0,4,4,5,1,,,,,,,,,,,,,,,,,,,,,,,,,,,,,,,,,,,,,,,,,,,,,,,,,,,,,,,,,,,,,,,,,,,,,,,
,,,,,,,,,66828964434e3570607d323d,formal spanish,13 or older,click here to respond,no,2025-07-23_16h36.24.324,empathy_intonation_perc,2024.2.4,Win32,60.24096386,66828964434e3570607d323d,687ed1b7e638a4cbf2f02089,6881475ce9206e3a323c3d0a,,,,,,,,,,,,,,0,,./stim/wavs/peruvian_statement_filler_El-nino-habla-con-su-madre.wav,,,,,,,,,260.7217,265.5481,0,1,4.3025,,0,5,5,6,1,,,,,,,,,,,,,,,,,,,,,,,,,,,,,,,,,,,,,,,,,,,,,,,,,,,,,,,,,,,,,,,,,,,,,,,
,,,,,,,,,66828964434e3570607d323d,formal spanish,13 or older,click here to respond,no,2025-07-23_16h36.24.324,empathy_intonation_perc,2024.2.4,Win32,60.24096386,66828964434e3570607d323d,687ed1b7e638a4cbf2f02089,6881475ce9206e3a323c3d0a,,,,,,,,,,,,,,1,,./stim/wavs/mexican_question_filler_Felipe-no-tiene-contrasena.wav,,,,,,,,,265.5518,269.192,1,1,3.1122,,0,6,6,3,1,,,,,,,,,,,,,,,,,,,,,,,,,,,,,,,,,,,,,,,,,,,,,,,,,,,,,,,,,,,,,,,,,,,,,,,
,,,,,,,,,66828964434e3570607d323d,formal spanish,13 or older,click here to respond,no,2025-07-23_16h36.24.324,empathy_intonation_perc,2024.2.4,Win32,60.24096386,66828964434e3570607d323d,687ed1b7e638a4cbf2f02089,6881475ce9206e3a323c3d0a,,,,,,,,,,,,,,0,,./stim/wavs/puertorican_statement_filler_La-nina-pinta-con-su-amiga.wav,,,,,,,,,269.1928,272.8346,0,1,3.1129,,0,7,7,7,1,,,,,,,,,,,,,,,,,,,,,,,,,,,,,,,,,,,,,,,,,,,,,,,,,,,,,,,,,,,,,,,,,,,,,,,
,,,,,,,,,66828964434e3570607d323d,formal spanish,13 or older,click here to respond,no,2025-07-23_16h36.24.324,empathy_intonation_perc,2024.2.4,Win32,60.24096386,66828964434e3570607d323d,687ed1b7e638a4cbf2f02089,6881475ce9206e3a323c3d0a,,,,,,,,,,,,,,,,,,,,,,,,,,,,,,,,,,,,272.8361,277.265,,,,,,,,,,,,,,,,,,,,,,,,,,,,,,,,,,,,,,,,,,,,,,,,,,,,,,,,,,,,,,,,,,,,,
,,,,,,,,,66828964434e3570607d323d,formal spanish,13 or older,click here to respond,no,2025-07-23_16h36.24.324,empathy_intonation_perc,2024.2.4,Win32,60.24096386,66828964434e3570607d323d,687ed1b7e638a4cbf2f02089,6881475ce9206e3a323c3d0a,,,,,,,,,,,,,50,0,,./stim/wavs/castilian_match_declarative-broad-focus_Marta-abre-el-regalo.wav,,,,,,,,,,,,,,,,,,,,,,277.3066,280.0611,0,1,2.2257,,0,0,0,49,1,0,castilian,,,,,,,,,,,,,,,,,,,,,,,,,,,,,,,,,,,,,,,,,,,,,,,,,,,,,,,,
,,,,,,,,,66828964434e3570607d323d,formal spanish,13 or older,click here to respond,no,2025-07-23_16h36.24.324,empathy_intonation_perc,2024.2.4,Win32,60.24096386,66828964434e3570607d323d,687ed1b7e638a4cbf2f02089,6881475ce9206e3a323c3d0a,,,,,,,,,,,,,18,1,,./stim/wavs/mexican_match_interrogative-total-yn_Marta-abre-el-regalo.wav,,,,,,,,,,,,,,,,,,,,,,280.0629,282.5817,1,1,2.0053,,0,1,1,17,1,0,mexican,,,,,,,,,,,,,,,,,,,,,,,,,,,,,,,,,,,,,,,,,,,,,,,,,,,,,,,,
,,,,,,,,,66828964434e3570607d323d,formal spanish,13 or older,click here to respond,no,2025-07-23_16h36.24.324,empathy_intonation_perc,2024.2.4,Win32,60.24096386,66828964434e3570607d323d,687ed1b7e638a4cbf2f02089,6881475ce9206e3a323c3d0a,,,,,,,,,,,,,77,0,,./stim/wavs/cuban_mismatch_declarative-broad-focus_Mi-novio-viene-del-lago.wav,,,,,,,,,,,,,,,,,,,,,,282.5824,285.2287,0,1,2.1149,,0,2,2,76,1,0,cuban,,,,,,,,,,,,,,,,,,,,,,,,,,,,,,,,,,,,,,,,,,,,,,,,,,,,,,,,
,,,,,,,,,66828964434e3570607d323d,formal spanish,13 or older,click here to respond,no,2025-07-23_16h36.24.324,empathy_intonation_perc,2024.2.4,Win32,60.24096386,66828964434e3570607d323d,687ed1b7e638a4cbf2f02089,6881475ce9206e3a323c3d0a,,,,,,,,,,,,,32,1,,./stim/wavs/cuban_mismatch_interrogative-total-yn_Mi-madre-come-la-fruta.wav,,,,,,,,,,,,,,,,,,,,,,285.2299,287.9845,0,0,2.2207,,0,3,3,31,1,1,cuban,,,,,,,,,,,,,,,,,,,,,,,,,,,,,,,,,,,,,,,,,,,,,,,,,,,,,,,,
,,,,,,,,,66828964434e3570607d323d,formal spanish,13 or older,click here to respond,no,2025-07-23_16h36.24.324,empathy_intonation_perc,2024.2.4,Win32,60.24096386,66828964434e3570607d323d,687ed1b7e638a4cbf2f02089,6881475ce9206e3a323c3d0a,,,,,,,,,,,,,41,1,,./stim/wavs/puertorican_mismatch_interrogative-total-yn_El-nino-oye-el-rio.wav,,,,,,,,,,,,,,,,,,,,,,287.9867,290.3529,1,1,1.835,,0,4,4,40,1,1,puertorican,,,,,,,,,,,,,,,,,,,,,,,,,,,,,,,,,,,,,,,,,,,,,,,,,,,,,,,,
,,,,,,,,,66828964434e3570607d323d,formal spanish,13 or older,click here to respond,no,2025-07-23_16h36.24.324,empathy_intonation_perc,2024.2.4,Win32,60.24096386,66828964434e3570607d323d,687ed1b7e638a4cbf2f02089,6881475ce9206e3a323c3d0a,,,,,,,,,,,,,22,1,,./stim/wavs/puertorican_match_interrogative-total-yn_Emilio-ama-la-marcha.wav,,,,,,,,,,,,,,,,,,,,,,290.354,293.0996,1,1,2.2245,,0,5,5,21,1,1,puertorican,,,,,,,,,,,,,,,,,,,,,,,,,,,,,,,,,,,,,,,,,,,,,,,,,,,,,,,,
,,,,,,,,,66828964434e3570607d323d,formal spanish,13 or older,click here to respond,no,2025-07-23_16h36.24.324,empathy_intonation_perc,2024.2.4,Win32,60.24096386,66828964434e3570607d323d,687ed1b7e638a4cbf2f02089,6881475ce9206e3a323c3d0a,,,,,,,,,,,,,24,1,,./stim/wavs/puertorican_match_interrogative-total-yn_Maria-bebe-el-vino.wav,,,,,,,,,,,,,,,,,,,,,,293.1018,295.4089,1,1,1.7802,,0,6,6,23,1,1,puertorican,,,,,,,,,,,,,,,,,,,,,,,,,,,,,,,,,,,,,,,,,,,,,,,,,,,,,,,,
,,,,,,,,,66828964434e3570607d323d,formal spanish,13 or older,click here to respond,no,2025-07-23_16h36.24.324,empathy_intonation_perc,2024.2.4,Win32,60.24096386,66828964434e3570607d323d,687ed1b7e638a4cbf2f02089,6881475ce9206e3a323c3d0a,,,,,,,,,,,,,9,1,,./stim/wavs/cuban_match_interrogative-total-yn_Manuela-vende-el-carro.wav,,,,,,,,,,,,,,,,,,,,,,295.4097,297.7056,0,0,1.7782,,0,7,7,8,1,1,cuban,,,,,,,,,,,,,,,,,,,,,,,,,,,,,,,,,,,,,,,,,,,,,,,,,,,,,,,,
,,,,,,,,,66828964434e3570607d323d,formal spanish,13 or older,click here to respond,no,2025-07-23_16h36.24.324,empathy_intonation_perc,2024.2.4,Win32,60.24096386,66828964434e3570607d323d,687ed1b7e638a4cbf2f02089,6881475ce9206e3a323c3d0a,,,,,,,,,,,,,64,0,,./stim/wavs/puertorican_match_declarative-broad-focus_Daniel-iba-a-Bolivia.wav,,,,,,,,,,,,,,,,,,,,,,297.7077,300.3726,0,1,2.1356,,0,8,8,63,1,0,puertorican,,,,,,,,,,,,,,,,,,,,,,,,,,,,,,,,,,,,,,,,,,,,,,,,,,,,,,,,
,,,,,,,,,66828964434e3570607d323d,formal spanish,13 or older,click here to respond,no,2025-07-23_16h36.24.324,empathy_intonation_perc,2024.2.4,Win32,60.24096386,66828964434e3570607d323d,687ed1b7e638a4cbf2f02089,6881475ce9206e3a323c3d0a,,,,,,,,,,,,,25,1,,./stim/wavs/castilian_mismatch_interrogative-total-yn_La-maestra-vive-en-Paris.wav,,,,,,,,,,,,,,,,,,,,,,300.3734,302.9039,1,1,1.9987,,0,9,9,24,1,0,castilian,,,,,,,,,,,,,,,,,,,,,,,,,,,,,,,,,,,,,,,,,,,,,,,,,,,,,,,,
,,,,,,,,,66828964434e3570607d323d,formal spanish,13 or older,click here to respond,no,2025-07-23_16h36.24.324,empathy_intonation_perc,2024.2.4,Win32,60.24096386,66828964434e3570607d323d,687ed1b7e638a4cbf2f02089,6881475ce9206e3a323c3d0a,,,,,,,,,,,,,52,0,,./stim/wavs/cuban_match_declarative-broad-focus_Daniel-iba-a-Bolivia.wav,,,,,,,,,,,,,,,,,,,,,,302.9057,305.7055,0,1,2.2688,,0,10,10,51,1,0,cuban,,,,,,,,,,,,,,,,,,,,,,,,,,,,,,,,,,,,,,,,,,,,,,,,,,,,,,,,
,,,,,,,,,66828964434e3570607d323d,formal spanish,13 or older,click here to respond,no,2025-07-23_16h36.24.324,empathy_intonation_perc,2024.2.4,Win32,60.24096386,66828964434e3570607d323d,687ed1b7e638a4cbf2f02089,6881475ce9206e3a323c3d0a,,,,,,,,,,,,,13,1,,./stim/wavs/mexican_match_interrogative-total-yn_Ana-lleva-el-abrigo.wav,,,,,,,,,,,,,,,,,,,,,,305.707,308.0824,1,1,1.8505,,0,11,11,12,1,0,mexican,,,,,,,,,,,,,,,,,,,,,,,,,,,,,,,,,,,,,,,,,,,,,,,,,,,,,,,,
,,,,,,,,,66828964434e3570607d323d,formal spanish,13 or older,click here to respond,no,2025-07-23_16h36.24.324,empathy_intonation_perc,2024.2.4,Win32,60.24096386,66828964434e3570607d323d,687ed1b7e638a4cbf2f02089,6881475ce9206e3a323c3d0a,,,,,,,,,,,,,84,0,,./stim/wavs/puertorican_mismatch_declarative-broad-focus_El-bebe-comia-muy-bien.wav,,,,,,,,,,,,,,,,,,,,,,308.0836,310.5197,0,1,1.906,,0,12,12,83,1,0,puertorican,,,,,,,,,,,,,,,,,,,,,,,,,,,,,,,,,,,,,,,,,,,,,,,,,,,,,,,,
,,,,,,,,,66828964434e3570607d323d,formal spanish,13 or older,click here to respond,no,2025-07-23_16h36.24.324,empathy_intonation_perc,2024.2.4,Win32,60.24096386,66828964434e3570607d323d,687ed1b7e638a4cbf2f02089,6881475ce9206e3a323c3d0a,,,,,,,,,,,,,71,0,,./stim/wavs/castilian_mismatch_declarative-broad-focus_La-nina-lava-el-plato.wav,,,,,,,,,,,,,,,,,,,,,,310.5206,313.2799,0,1,2.2307,,0,13,13,70,1,0,castilian,,,,,,,,,,,,,,,,,,,,,,,,,,,,,,,,,,,,,,,,,,,,,,,,,,,,,,,,
,,,,,,,,,66828964434e3570607d323d,formal spanish,13 or older,click here to respond,no,2025-07-23_16h36.24.324,empathy_intonation_perc,2024.2.4,Win32,60.24096386,66828964434e3570607d323d,687ed1b7e638a4cbf2f02089,6881475ce9206e3a323c3d0a,,,,,,,,,,,,,58,0,,./stim/wavs/mexican_match_declarative-broad-focus_Daniel-iba-a-Bolivia.wav,,,,,,,,,,,,,,,,,,,,,,313.2819,315.6793,0,1,1.8698,,0,14,14,57,1,0,mexican,,,,,,,,,,,,,,,,,,,,,,,,,,,,,,,,,,,,,,,,,,,,,,,,,,,,,,,,
,,,,,,,,,66828964434e3570607d323d,formal spanish,13 or older,click here to respond,no,2025-07-23_16h36.24.324,empathy_intonation_perc,2024.2.4,Win32,60.24096386,66828964434e3570607d323d,687ed1b7e638a4cbf2f02089,6881475ce9206e3a323c3d0a,,,,,,,,,,,,,8,1,,./stim/wavs/cuban_match_interrogative-total-yn_Daniel-iba-a-Bolivia.wav,,,,,,,,,,,,,,,,,,,,,,315.6807,318.2101,0,0,2.0119,,0,15,15,7,1,1,cuban,,,,,,,,,,,,,,,,,,,,,,,,,,,,,,,,,,,,,,,,,,,,,,,,,,,,,,,,
,,,,,,,,,66828964434e3570607d323d,formal spanish,13 or older,click here to respond,no,2025-07-23_16h36.24.324,empathy_intonation_perc,2024.2.4,Win32,60.24096386,66828964434e3570607d323d,687ed1b7e638a4cbf2f02089,6881475ce9206e3a323c3d0a,,,,,,,,,,,,,6,1,,./stim/wavs/castilian_match_interrogative-total-yn_Marta-abre-el-regalo.wav,,,,,,,,,,,,,,,,,,,,,,318.213,320.694,1,1,1.9552,,0,16,16,5,1,0,castilian,,,,,,,,,,,,,,,,,,,,,,,,,,,,,,,,,,,,,,,,,,,,,,,,,,,,,,,,
,,,,,,,,,66828964434e3570607d323d,formal spanish,13 or older,click here to respond,no,2025-07-23_16h36.24.324,empathy_intonation_perc,2024.2.4,Win32,60.24096386,66828964434e3570607d323d,687ed1b7e638a4cbf2f02089,6881475ce9206e3a323c3d0a,,,,,,,,,,,,,81,0,,./stim/wavs/mexican_mismatch_declarative-broad-focus_La-maestra-vive-en-Paris.wav,,,,,,,,,,,,,,,,,,,,,,320.695,323.3517,0,1,2.1325,,0,17,17,80,1,0,mexican,,,,,,,,,,,,,,,,,,,,,,,,,,,,,,,,,,,,,,,,,,,,,,,,,,,,,,,,
,,,,,,,,,66828964434e3570607d323d,formal spanish,13 or older,click here to respond,no,2025-07-23_16h36.24.324,empathy_intonation_perc,2024.2.4,Win32,60.24096386,66828964434e3570607d323d,687ed1b7e638a4cbf2f02089,6881475ce9206e3a323c3d0a,,,,,,,,,,,,,48,0,,./stim/wavs/castilian_match_declarative-broad-focus_Maria-bebe-el-vino.wav,,,,,,,,,,,,,,,,,,,,,,323.3532,326.0322,0,1,2.1504,,0,18,18,47,1,0,castilian,,,,,,,,,,,,,,,,,,,,,,,,,,,,,,,,,,,,,,,,,,,,,,,,,,,,,,,,
,,,,,,,,,66828964434e3570607d323d,formal spanish,13 or older,click here to respond,no,2025-07-23_16h36.24.324,empathy_intonation_perc,2024.2.4,Win32,60.24096386,66828964434e3570607d323d,687ed1b7e638a4cbf2f02089,6881475ce9206e3a323c3d0a,,,,,,,,,,,,,1,1,,./stim/wavs/castilian_match_interrogative-total-yn_David-leia-el-libro.wav,,,,,,,,,,,,,,,,,,,,,,326.0336,328.6687,1,1,2.0999,,0,19,19,0,1,0,castilian,,,,,,,,,,,,,,,,,,,,,,,,,,,,,,,,,,,,,,,,,,,,,,,,,,,,,,,,
,,,,,,,,,66828964434e3570607d323d,formal spanish,13 or older,click here to respond,no,2025-07-23_16h36.24.324,empathy_intonation_perc,2024.2.4,Win32,60.24096386,66828964434e3570607d323d,687ed1b7e638a4cbf2f02089,6881475ce9206e3a323c3d0a,,,,,,,,,,,,,10,1,,./stim/wavs/cuban_match_interrogative-total-yn_Maria-bebe-el-vino.wav,,,,,,,,,,,,,,,,,,,,,,328.6698,331.3643,0,0,2.1607,,0,20,20,9,1,1,cuban,,,,,,,,,,,,,,,,,,,,,,,,,,,,,,,,,,,,,,,,,,,,,,,,,,,,,,,,
,,,,,,,,,66828964434e3570607d323d,formal spanish,13 or older,click here to respond,no,2025-07-23_16h36.24.324,empathy_intonation_perc,2024.2.4,Win32,60.24096386,66828964434e3570607d323d,687ed1b7e638a4cbf2f02089,6881475ce9206e3a323c3d0a,,,,,,,,,,,,,70,0,,./stim/wavs/castilian_mismatch_declarative-broad-focus_La-maestra-vive-en-Paris.wav,,,,,,,,,,,,,,,,,,,,,,331.3664,334.0961,0,1,2.2001,,0,21,21,69,1,0,castilian,,,,,,,,,,,,,,,,,,,,,,,,,,,,,,,,,,,,,,,,,,,,,,,,,,,,,,,,
,,,,,,,,,66828964434e3570607d323d,formal spanish,13 or older,click here to respond,no,2025-07-23_16h36.24.324,empathy_intonation_perc,2024.2.4,Win32,60.24096386,66828964434e3570607d323d,687ed1b7e638a4cbf2f02089,6881475ce9206e3a323c3d0a,,,,,,,,,,,,,31,1,,./stim/wavs/cuban_mismatch_interrogative-total-yn_El-nino-oye-el-rio.wav,,,,,,,,,,,,,,,,,,,,,,334.0974,336.3777,0,0,1.7492,,0,22,22,30,1,1,cuban,,,,,,,,,,,,,,,,,,,,,,,,,,,,,,,,,,,,,,,,,,,,,,,,,,,,,,,,
,,,,,,,,,66828964434e3570607d323d,formal spanish,13 or older,click here to respond,no,2025-07-23_16h36.24.324,empathy_intonation_perc,2024.2.4,Win32,60.24096386,66828964434e3570607d323d,687ed1b7e638a4cbf2f02089,6881475ce9206e3a323c3d0a,,,,,,,,,,,,,61,0,,./stim/wavs/mexican_match_declarative-broad-focus_Mariano-habla-del-tiempo.wav,,,,,,,,,,,,,,,,,,,,,,336.3798,338.9589,0,1,2.0546,,0,23,23,60,1,0,mexican,,,,,,,,,,,,,,,,,,,,,,,,,,,,,,,,,,,,,,,,,,,,,,,,,,,,,,,,
,,,,,,,,,66828964434e3570607d323d,formal spanish,13 or older,click here to respond,no,2025-07-23_16h36.24.324,empathy_intonation_perc,2024.2.4,Win32,60.24096386,66828964434e3570607d323d,687ed1b7e638a4cbf2f02089,6881475ce9206e3a323c3d0a,,,,,,,,,,,,,7,1,,./stim/wavs/cuban_match_interrogative-total-yn_Ana-lleva-el-abrigo.wav,,,,,,,,,,,,,,,,,,,,,,338.9594,341.1476,0,0,1.6676,,0,24,24,6,1,1,cuban,,,,,,,,,,,,,,,,,,,,,,,,,,,,,,,,,,,,,,,,,,,,,,,,,,,,,,,,
,,,,,,,,,66828964434e3570607d323d,formal spanish,13 or older,click here to respond,no,2025-07-23_16h36.24.324,empathy_intonation_perc,2024.2.4,Win32,60.24096386,66828964434e3570607d323d,687ed1b7e638a4cbf2f02089,6881475ce9206e3a323c3d0a,,,,,,,,,,,,,35,1,,./stim/wavs/mexican_mismatch_interrogative-total-yn_El-hombre-mira-la-luna.wav,,,,,,,,,,,,,,,,,,,,,,341.1492,343.2649,1,1,1.5993,,0,25,25,34,1,0,mexican,,,,,,,,,,,,,,,,,,,,,,,,,,,,,,,,,,,,,,,,,,,,,,,,,,,,,,,,
,,,,,,,,,66828964434e3570607d323d,formal spanish,13 or older,click here to respond,no,2025-07-23_16h36.24.324,empathy_intonation_perc,2024.2.4,Win32,60.24096386,66828964434e3570607d323d,687ed1b7e638a4cbf2f02089,6881475ce9206e3a323c3d0a,,,,,,,,,,,,,76,0,,./stim/wavs/cuban_mismatch_declarative-broad-focus_La-nina-lava-el-plato.wav,,,,,,,,,,,,,,,,,,,,,,343.2666,345.6132,0,1,1.8201,,0,26,26,75,1,0,cuban,,,,,,,,,,,,,,,,,,,,,,,,,,,,,,,,,,,,,,,,,,,,,,,,,,,,,,,,
,,,,,,,,,66828964434e3570607d323d,formal spanish,13 or older,click here to respond,no,2025-07-23_16h36.24.324,empathy_intonation_perc,2024.2.4,Win32,60.24096386,66828964434e3570607d323d,687ed1b7e638a4cbf2f02089,6881475ce9206e3a323c3d0a,,,,,,,,,,,,,67,0,,./stim/wavs/puertorican_match_declarative-broad-focus_Manuela-vende-el-carro.wav,,,,,,,,,,,,,,,,,,,,,,345.6165,347.994,0,1,1.8498,,0,27,27,66,1,0,puertorican,,,,,,,,,,,,,,,,,,,,,,,,,,,,,,,,,,,,,,,,,,,,,,,,,,,,,,,,
,,,,,,,,,66828964434e3570607d323d,formal spanish,13 or older,click here to respond,no,2025-07-23_16h36.24.324,empathy_intonation_perc,2024.2.4,Win32,60.24096386,66828964434e3570607d323d,687ed1b7e638a4cbf2f02089,6881475ce9206e3a323c3d0a,,,,,,,,,,,,,21,1,,./stim/wavs/puertorican_match_interrogative-total-yn_David-leia-el-libro.wav,,,,,,,,,,,,,,,,,,,,,,347.9958,350.2381,1,1,1.7128,,0,28,28,20,1,1,puertorican,,,,,,,,,,,,,,,,,,,,,,,,,,,,,,,,,,,,,,,,,,,,,,,,,,,,,,,,
,,,,,,,,,66828964434e3570607d323d,formal spanish,13 or older,click here to respond,no,2025-07-23_16h36.24.324,empathy_intonation_perc,2024.2.4,Win32,60.24096386,66828964434e3570607d323d,687ed1b7e638a4cbf2f02089,6881475ce9206e3a323c3d0a,,,,,,,,,,,,,43,1,,./stim/wavs/puertorican_mismatch_interrogative-total-yn_La-nina-lava-el-plato.wav,,,,,,,,,,,,,,,,,,,,,,350.2398,352.5906,1,1,1.82,,0,29,29,42,1,1,puertorican,,,,,,,,,,,,,,,,,,,,,,,,,,,,,,,,,,,,,,,,,,,,,,,,,,,,,,,,
,,,,,,,,,66828964434e3570607d323d,formal spanish,13 or older,click here to respond,no,2025-07-23_16h36.24.324,empathy_intonation_perc,2024.2.4,Win32,60.24096386,66828964434e3570607d323d,687ed1b7e638a4cbf2f02089,6881475ce9206e3a323c3d0a,,,,,,,,,,,,,37,1,,./stim/wavs/mexican_mismatch_interrogative-total-yn_La-maestra-vive-en-Paris.wav,,,,,,,,,,,,,,,,,,,,,,352.5933,355.1781,1,1,2.0565,,0,30,30,36,1,0,mexican,,,,,,,,,,,,,,,,,,,,,,,,,,,,,,,,,,,,,,,,,,,,,,,,,,,,,,,,
,,,,,,,,,66828964434e3570607d323d,formal spanish,13 or older,click here to respond,no,2025-07-23_16h36.24.324,empathy_intonation_perc,2024.2.4,Win32,60.24096386,66828964434e3570607d323d,687ed1b7e638a4cbf2f02089,6881475ce9206e3a323c3d0a,,,,,,,,,,,,,47,0,,./stim/wavs/castilian_match_declarative-broad-focus_Manuela-vende-el-carro.wav,,,,,,,,,,,,,,,,,,,,,,355.18,357.9065,0,1,2.2007,,0,31,31,46,1,0,castilian,,,,,,,,,,,,,,,,,,,,,,,,,,,,,,,,,,,,,,,,,,,,,,,,,,,,,,,,
,,,,,,,,,66828964434e3570607d323d,formal spanish,13 or older,click here to respond,no,2025-07-23_16h36.24.324,empathy_intonation_perc,2024.2.4,Win32,60.24096386,66828964434e3570607d323d,687ed1b7e638a4cbf2f02089,6881475ce9206e3a323c3d0a,,,,,,,,,,,,,27,1,,./stim/wavs/castilian_mismatch_interrogative-total-yn_Mi-madre-come-la-fruta.wav,,,,,,,,,,,,,,,,,,,,,,357.9077,360.5385,1,1,2.1049,,0,32,32,26,1,0,castilian,,,,,,,,,,,,,,,,,,,,,,,,,,,,,,,,,,,,,,,,,,,,,,,,,,,,,,,,
,,,,,,,,,66828964434e3570607d323d,formal spanish,13 or older,click here to respond,no,2025-07-23_16h36.24.324,empathy_intonation_perc,2024.2.4,Win32,60.24096386,66828964434e3570607d323d,687ed1b7e638a4cbf2f02089,6881475ce9206e3a323c3d0a,,,,,,,,,,,,,29,1,,./stim/wavs/castilian_mismatch_interrogative-total-yn_Mi-tia-odia-la-lluvia.wav,,,,,,,,,,,,,,,,,,,,,,360.5394,363.0294,1,1,1.9655,,0,33,33,28,1,0,castilian,,,,,,,,,,,,,,,,,,,,,,,,,,,,,,,,,,,,,,,,,,,,,,,,,,,,,,,,
,,,,,,,,,66828964434e3570607d323d,formal spanish,13 or older,click here to respond,no,2025-07-23_16h36.24.324,empathy_intonation_perc,2024.2.4,Win32,60.24096386,66828964434e3570607d323d,687ed1b7e638a4cbf2f02089,6881475ce9206e3a323c3d0a,,,,,,,,,,,,,33,1,,./stim/wavs/cuban_mismatch_interrogative-total-yn_Mi-novio-viene-del-lago.wav,,,,,,,,,,,,,,,,,,,,,,363.031,365.4502,0,0,1.8872,,0,34,34,32,1,1,cuban,,,,,,,,,,,,,,,,,,,,,,,,,,,,,,,,,,,,,,,,,,,,,,,,,,,,,,,,
,,,,,,,,,66828964434e3570607d323d,formal spanish,13 or older,click here to respond,no,2025-07-23_16h36.24.324,empathy_intonation_perc,2024.2.4,Win32,60.24096386,66828964434e3570607d323d,687ed1b7e638a4cbf2f02089,6881475ce9206e3a323c3d0a,,,,,,,,,,,,,23,1,,./stim/wavs/puertorican_match_interrogative-total-yn_Manuela-vende-el-carro.wav,,,,,,,,,,,,,,,,,,,,,,365.4515,368.2102,1,1,2.2318,,0,35,35,22,1,1,puertorican,,,,,,,,,,,,,,,,,,,,,,,,,,,,,,,,,,,,,,,,,,,,,,,,,,,,,,,,
,,,,,,,,,66828964434e3570607d323d,formal spanish,13 or older,click here to respond,no,2025-07-23_16h36.24.324,empathy_intonation_perc,2024.2.4,Win32,60.24096386,66828964434e3570607d323d,687ed1b7e638a4cbf2f02089,6881475ce9206e3a323c3d0a,,,,,,,,,,,,,30,1,,./stim/wavs/cuban_mismatch_interrogative-total-yn_El-hombre-mira-la-luna.wav,,,,,,,,,,,,,,,,,,,,,,368.2123,370.3282,0,0,1.5847,,0,36,36,29,1,1,cuban,,,,,,,,,,,,,,,,,,,,,,,,,,,,,,,,,,,,,,,,,,,,,,,,,,,,,,,,
,,,,,,,,,66828964434e3570607d323d,formal spanish,13 or older,click here to respond,no,2025-07-23_16h36.24.324,empathy_intonation_perc,2024.2.4,Win32,60.24096386,66828964434e3570607d323d,687ed1b7e638a4cbf2f02089,6881475ce9206e3a323c3d0a,,,,,,,,,,,,,85,0,,./stim/wavs/puertorican_mismatch_declarative-broad-focus_El-hombre-mira-la-luna.wav,,,,,,,,,,,,,,,,,,,,,,370.33,372.655,0,1,1.7913,,0,37,37,84,1,0,puertorican,,,,,,,,,,,,,,,,,,,,,,,,,,,,,,,,,,,,,,,,,,,,,,,,,,,,,,,,
,,,,,,,,,66828964434e3570607d323d,formal spanish,13 or older,click here to respond,no,2025-07-23_16h36.24.324,empathy_intonation_perc,2024.2.4,Win32,60.24096386,66828964434e3570607d323d,687ed1b7e638a4cbf2f02089,6881475ce9206e3a323c3d0a,,,,,,,,,,,,,12,1,,./stim/wavs/cuban_match_interrogative-total-yn_Marta-abre-el-regalo.wav,,,,,,,,,,,,,,,,,,,,,,372.659,374.9764,0,0,1.792,,0,38,38,11,1,1,cuban,,,,,,,,,,,,,,,,,,,,,,,,,,,,,,,,,,,,,,,,,,,,,,,,,,,,,,,,
,,,,,,,,,66828964434e3570607d323d,formal spanish,13 or older,click here to respond,no,2025-07-23_16h36.24.324,empathy_intonation_perc,2024.2.4,Win32,60.24096386,66828964434e3570607d323d,687ed1b7e638a4cbf2f02089,6881475ce9206e3a323c3d0a,,,,,,,,,,,,,86,0,,./stim/wavs/puertorican_mismatch_declarative-broad-focus_El-nino-oye-el-rio.wav,,,,,,,,,,,,,,,,,,,,,,374.9777,377.3617,0,1,1.8605,,0,39,39,85,1,0,puertorican,,,,,,,,,,,,,,,,,,,,,,,,,,,,,,,,,,,,,,,,,,,,,,,,,,,,,,,,
,,,,,,,,,66828964434e3570607d323d,formal spanish,13 or older,click here to respond,no,2025-07-23_16h36.24.324,empathy_intonation_perc,2024.2.4,Win32,60.24096386,66828964434e3570607d323d,687ed1b7e638a4cbf2f02089,6881475ce9206e3a323c3d0a,,,,,,,,,,,,,45,0,,./stim/wavs/castilian_match_declarative-broad-focus_David-leia-el-libro.wav,,,,,,,,,,,,,,,,,,,,,,377.3629,380.7839,0,1,2.9031,,0,40,40,44,1,0,castilian,,,,,,,,,,,,,,,,,,,,,,,,,,,,,,,,,,,,,,,,,,,,,,,,,,,,,,,,
,,,,,,,,,66828964434e3570607d323d,formal spanish,13 or older,click here to respond,no,2025-07-23_16h36.24.324,empathy_intonation_perc,2024.2.4,Win32,60.24096386,66828964434e3570607d323d,687ed1b7e638a4cbf2f02089,6881475ce9206e3a323c3d0a,,,,,,,,,,,,,44,1,,./stim/wavs/puertorican_mismatch_interrogative-total-yn_Mi-madre-come-la-fruta.wav,,,,,,,,,,,,,,,,,,,,,,380.7851,383.2314,0,0,1.9176,,0,41,41,43,1,1,puertorican,,,,,,,,,,,,,,,,,,,,,,,,,,,,,,,,,,,,,,,,,,,,,,,,,,,,,,,,
,,,,,,,,,66828964434e3570607d323d,formal spanish,13 or older,click here to respond,no,2025-07-23_16h36.24.324,empathy_intonation_perc,2024.2.4,Win32,60.24096386,66828964434e3570607d323d,687ed1b7e638a4cbf2f02089,6881475ce9206e3a323c3d0a,,,,,,,,,,,,,16,1,,./stim/wavs/mexican_match_interrogative-total-yn_Emilio-ama-la-marcha.wav,,,,,,,,,,,,,,,,,,,,,,383.2328,385.547,1,1,1.783,,0,42,42,15,1,0,mexican,,,,,,,,,,,,,,,,,,,,,,,,,,,,,,,,,,,,,,,,,,,,,,,,,,,,,,,,
,,,,,,,,,66828964434e3570607d323d,formal spanish,13 or older,click here to respond,no,2025-07-23_16h36.24.324,empathy_intonation_perc,2024.2.4,Win32,60.24096386,66828964434e3570607d323d,687ed1b7e638a4cbf2f02089,6881475ce9206e3a323c3d0a,,,,,,,,,,,,,78,0,,./stim/wavs/cuban_mismatch_declarative-broad-focus_Mi-tia-odia-la-lluvia.wav,,,,,,,,,,,,,,,,,,,,,,385.5481,389.3928,0,1,3.3204,,0,43,43,77,1,0,cuban,,,,,,,,,,,,,,,,,,,,,,,,,,,,,,,,,,,,,,,,,,,,,,,,,,,,,,,,
,,,,,,,,,66828964434e3570607d323d,formal spanish,13 or older,click here to respond,no,2025-07-23_16h36.24.324,empathy_intonation_perc,2024.2.4,Win32,60.24096386,66828964434e3570607d323d,687ed1b7e638a4cbf2f02089,6881475ce9206e3a323c3d0a,,,,,,,,,,,,,15,1,,./stim/wavs/mexican_match_interrogative-total-yn_David-leia-el-libro.wav,,,,,,,,,,,,,,,,,,,,,,389.3934,392.6408,1,1,2.6932,,0,44,44,14,1,0,mexican,,,,,,,,,,,,,,,,,,,,,,,,,,,,,,,,,,,,,,,,,,,,,,,,,,,,,,,,
,,,,,,,,,66828964434e3570607d323d,formal spanish,13 or older,click here to respond,no,2025-07-23_16h36.24.324,empathy_intonation_perc,2024.2.4,Win32,60.24096386,66828964434e3570607d323d,687ed1b7e638a4cbf2f02089,6881475ce9206e3a323c3d0a,,,,,,,,,,,,,79,0,,./stim/wavs/mexican_mismatch_declarative-broad-focus_El-bebe-comia-muy-bien.wav,,,,,,,,,,,,,,,,,,,,,,392.6421,395.164,0,1,1.9981,,0,45,45,78,1,0,mexican,,,,,,,,,,,,,,,,,,,,,,,,,,,,,,,,,,,,,,,,,,,,,,,,,,,,,,,,
,,,,,,,,,66828964434e3570607d323d,formal spanish,13 or older,click here to respond,no,2025-07-23_16h36.24.324,empathy_intonation_perc,2024.2.4,Win32,60.24096386,66828964434e3570607d323d,687ed1b7e638a4cbf2f02089,6881475ce9206e3a323c3d0a,,,,,,,,,,,,,83,0,,./stim/wavs/mexican_mismatch_declarative-broad-focus_Mi-tia-odia-la-lluvia.wav,,,,,,,,,,,,,,,,,,,,,,395.1658,397.2809,0,1,1.5962,,0,46,46,82,1,0,mexican,,,,,,,,,,,,,,,,,,,,,,,,,,,,,,,,,,,,,,,,,,,,,,,,,,,,,,,,
,,,,,,,,,66828964434e3570607d323d,formal spanish,13 or older,click here to respond,no,2025-07-23_16h36.24.324,empathy_intonation_perc,2024.2.4,Win32,60.24096386,66828964434e3570607d323d,687ed1b7e638a4cbf2f02089,6881475ce9206e3a323c3d0a,,,,,,,,,,,,,80,0,,./stim/wavs/mexican_mismatch_declarative-broad-focus_El-hombre-mira-la-luna.wav,,,,,,,,,,,,,,,,,,,,,,397.2837,399.5936,0,1,1.7655,,0,47,47,79,1,0,mexican,,,,,,,,,,,,,,,,,,,,,,,,,,,,,,,,,,,,,,,,,,,,,,,,,,,,,,,,
,,,,,,,,,66828964434e3570607d323d,formal spanish,13 or older,click here to respond,no,2025-07-23_16h36.24.324,empathy_intonation_perc,2024.2.4,Win32,60.24096386,66828964434e3570607d323d,687ed1b7e638a4cbf2f02089,6881475ce9206e3a323c3d0a,,,,,,,,,,,,,87,0,,./stim/wavs/puertorican_mismatch_declarative-broad-focus_La-maestra-vive-en-Paris.wav,,,,,,,,,,,,,,,,,,,,,,399.5959,402.2741,0,1,2.1492,,0,48,48,86,1,0,puertorican,,,,,,,,,,,,,,,,,,,,,,,,,,,,,,,,,,,,,,,,,,,,,,,,,,,,,,,,
,,,,,,,,,66828964434e3570607d323d,formal spanish,13 or older,click here to respond,no,2025-07-23_16h36.24.324,empathy_intonation_perc,2024.2.4,Win32,60.24096386,66828964434e3570607d323d,687ed1b7e638a4cbf2f02089,6881475ce9206e3a323c3d0a,,,,,,,,,,,,,28,1,,./stim/wavs/castilian_mismatch_interrogative-total-yn_Mi-novio-viene-del-lago.wav,,,,,,,,,,,,,,,,,,,,,,402.2758,404.7738,1,1,1.9766,,0,49,49,27,1,0,castilian,,,,,,,,,,,,,,,,,,,,,,,,,,,,,,,,,,,,,,,,,,,,,,,,,,,,,,,,
,,,,,,,,,66828964434e3570607d323d,formal spanish,13 or older,click here to respond,no,2025-07-23_16h36.24.324,empathy_intonation_perc,2024.2.4,Win32,60.24096386,66828964434e3570607d323d,687ed1b7e638a4cbf2f02089,6881475ce9206e3a323c3d0a,,,,,,,,,,,,,34,1,,./stim/wavs/cuban_mismatch_interrogative-total-yn_Mi-tia-odia-la-lluvia.wav,,,,,,,,,,,,,,,,,,,,,,404.7756,407.126,0,0,1.8359,,0,50,50,33,1,1,cuban,,,,,,,,,,,,,,,,,,,,,,,,,,,,,,,,,,,,,,,,,,,,,,,,,,,,,,,,
,,,,,,,,,66828964434e3570607d323d,formal spanish,13 or older,click here to respond,no,2025-07-23_16h36.24.324,empathy_intonation_perc,2024.2.4,Win32,60.24096386,66828964434e3570607d323d,687ed1b7e638a4cbf2f02089,6881475ce9206e3a323c3d0a,,,,,,,,,,,,,4,1,,./stim/wavs/castilian_match_interrogative-total-yn_Maria-bebe-el-vino.wav,,,,,,,,,,,,,,,,,,,,,,407.1274,409.7216,1,1,2.0632,,0,51,51,3,1,0,castilian,,,,,,,,,,,,,,,,,,,,,,,,,,,,,,,,,,,,,,,,,,,,,,,,,,,,,,,,
,,,,,,,,,66828964434e3570607d323d,formal spanish,13 or older,click here to respond,no,2025-07-23_16h36.24.324,empathy_intonation_perc,2024.2.4,Win32,60.24096386,66828964434e3570607d323d,687ed1b7e638a4cbf2f02089,6881475ce9206e3a323c3d0a,,,,,,,,,,,,,19,1,,./stim/wavs/puertorican_match_interrogative-total-yn_Ana-lleva-el-abrigo.wav,,,,,,,,,,,,,,,,,,,,,,409.7222,411.8371,0,0,1.5805,,0,52,52,18,1,1,puertorican,,,,,,,,,,,,,,,,,,,,,,,,,,,,,,,,,,,,,,,,,,,,,,,,,,,,,,,,
,,,,,,,,,66828964434e3570607d323d,formal spanish,13 or older,click here to respond,no,2025-07-23_16h36.24.324,empathy_intonation_perc,2024.2.4,Win32,60.24096386,66828964434e3570607d323d,687ed1b7e638a4cbf2f02089,6881475ce9206e3a323c3d0a,,,,,,,,,,,,,57,0,,./stim/wavs/mexican_match_declarative-broad-focus_Ana-lleva-el-abrigo.wav,,,,,,,,,,,,,,,,,,,,,,411.8388,413.9846,0,1,1.6164,,0,53,53,56,1,0,mexican,,,,,,,,,,,,,,,,,,,,,,,,,,,,,,,,,,,,,,,,,,,,,,,,,,,,,,,,
,,,,,,,,,66828964434e3570607d323d,formal spanish,13 or older,click here to respond,no,2025-07-23_16h36.24.324,empathy_intonation_perc,2024.2.4,Win32,60.24096386,66828964434e3570607d323d,687ed1b7e638a4cbf2f02089,6881475ce9206e3a323c3d0a,,,,,,,,,,,,,59,0,,./stim/wavs/mexican_match_declarative-broad-focus_David-leia-el-libro.wav,,,,,,,,,,,,,,,,,,,,,,413.9857,416.1501,0,1,1.6321,,0,54,54,58,1,0,mexican,,,,,,,,,,,,,,,,,,,,,,,,,,,,,,,,,,,,,,,,,,,,,,,,,,,,,,,,
,,,,,,,,,66828964434e3570607d323d,formal spanish,13 or older,click here to respond,no,2025-07-23_16h36.24.324,empathy_intonation_perc,2024.2.4,Win32,60.24096386,66828964434e3570607d323d,687ed1b7e638a4cbf2f02089,6881475ce9206e3a323c3d0a,,,,,,,,,,,,,55,0,,./stim/wavs/cuban_match_declarative-broad-focus_Mariano-habla-del-tiempo.wav,,,,,,,,,,,,,,,,,,,,,,416.1512,418.2323,0,1,1.551,,0,55,55,54,1,0,cuban,,,,,,,,,,,,,,,,,,,,,,,,,,,,,,,,,,,,,,,,,,,,,,,,,,,,,,,,
,,,,,,,,,66828964434e3570607d323d,formal spanish,13 or older,click here to respond,no,2025-07-23_16h36.24.324,empathy_intonation_perc,2024.2.4,Win32,60.24096386,66828964434e3570607d323d,687ed1b7e638a4cbf2f02089,6881475ce9206e3a323c3d0a,,,,,,,,,,,,,2,1,,./stim/wavs/castilian_match_interrogative-total-yn_Emilio-ama-la-marcha.wav,,,,,,,,,,,,,,,,,,,,,,418.2334,420.5439,1,1,1.7812,,0,56,56,1,1,0,castilian,,,,,,,,,,,,,,,,,,,,,,,,,,,,,,,,,,,,,,,,,,,,,,,,,,,,,,,,
,,,,,,,,,66828964434e3570607d323d,formal spanish,13 or older,click here to respond,no,2025-07-23_16h36.24.324,empathy_intonation_perc,2024.2.4,Win32,60.24096386,66828964434e3570607d323d,687ed1b7e638a4cbf2f02089,6881475ce9206e3a323c3d0a,,,,,,,,,,,,,51,0,,./stim/wavs/cuban_match_declarative-broad-focus_Ana-lleva-el-abrigo.wav,,,,,,,,,,,,,,,,,,,,,,420.5445,422.8267,0,1,1.7507,,0,57,57,50,1,0,cuban,,,,,,,,,,,,,,,,,,,,,,,,,,,,,,,,,,,,,,,,,,,,,,,,,,,,,,,,
,,,,,,,,,66828964434e3570607d323d,formal spanish,13 or older,click here to respond,no,2025-07-23_16h36.24.324,empathy_intonation_perc,2024.2.4,Win32,60.24096386,66828964434e3570607d323d,687ed1b7e638a4cbf2f02089,6881475ce9206e3a323c3d0a,,,,,,,,,,,,,56,0,,./stim/wavs/cuban_match_declarative-broad-focus_Marta-abre-el-regalo.wav,,,,,,,,,,,,,,,,,,,,,,422.8284,426.2044,0,1,2.8464,,0,58,58,55,1,0,cuban,,,,,,,,,,,,,,,,,,,,,,,,,,,,,,,,,,,,,,,,,,,,,,,,,,,,,,,,
,,,,,,,,,66828964434e3570607d323d,formal spanish,13 or older,click here to respond,no,2025-07-23_16h36.24.324,empathy_intonation_perc,2024.2.4,Win32,60.24096386,66828964434e3570607d323d,687ed1b7e638a4cbf2f02089,6881475ce9206e3a323c3d0a,,,,,,,,,,,,,73,0,,./stim/wavs/castilian_mismatch_declarative-broad-focus_Mi-tia-odia-la-lluvia.wav,,,,,,,,,,,,,,,,,,,,,,426.2052,428.5542,1,0,1.8333,,0,59,59,72,1,0,castilian,,,,,,,,,,,,,,,,,,,,,,,,,,,,,,,,,,,,,,,,,,,,,,,,,,,,,,,,
,,,,,,,,,66828964434e3570607d323d,formal spanish,13 or older,click here to respond,no,2025-07-23_16h36.24.324,empathy_intonation_perc,2024.2.4,Win32,60.24096386,66828964434e3570607d323d,687ed1b7e638a4cbf2f02089,6881475ce9206e3a323c3d0a,,,,,,,,,,,,,39,1,,./stim/wavs/mexican_mismatch_interrogative-total-yn_Mi-tia-odia-la-lluvia.wav,,,,,,,,,,,,,,,,,,,,,,428.5552,430.6838,1,1,1.6148,,0,60,60,38,1,0,mexican,,,,,,,,,,,,,,,,,,,,,,,,,,,,,,,,,,,,,,,,,,,,,,,,,,,,,,,,
,,,,,,,,,66828964434e3570607d323d,formal spanish,13 or older,click here to respond,no,2025-07-23_16h36.24.324,empathy_intonation_perc,2024.2.4,Win32,60.24096386,66828964434e3570607d323d,687ed1b7e638a4cbf2f02089,6881475ce9206e3a323c3d0a,,,,,,,,,,,,,66,0,,./stim/wavs/puertorican_match_declarative-broad-focus_Emilio-ama-la-marcha.wav,,,,,,,,,,,,,,,,,,,,,,430.6844,432.729,0,1,1.5218,,0,61,61,65,1,0,puertorican,,,,,,,,,,,,,,,,,,,,,,,,,,,,,,,,,,,,,,,,,,,,,,,,,,,,,,,,
,,,,,,,,,66828964434e3570607d323d,formal spanish,13 or older,click here to respond,no,2025-07-23_16h36.24.324,empathy_intonation_perc,2024.2.4,Win32,60.24096386,66828964434e3570607d323d,687ed1b7e638a4cbf2f02089,6881475ce9206e3a323c3d0a,,,,,,,,,,,,,72,0,,./stim/wavs/castilian_mismatch_declarative-broad-focus_Mi-novio-viene-del-lago.wav,,,,,,,,,,,,,,,,,,,,,,432.7312,435.6094,0,1,2.3493,,0,62,62,71,1,0,castilian,,,,,,,,,,,,,,,,,,,,,,,,,,,,,,,,,,,,,,,,,,,,,,,,,,,,,,,,
,,,,,,,,,66828964434e3570607d323d,formal spanish,13 or older,click here to respond,no,2025-07-23_16h36.24.324,empathy_intonation_perc,2024.2.4,Win32,60.24096386,66828964434e3570607d323d,687ed1b7e638a4cbf2f02089,6881475ce9206e3a323c3d0a,,,,,,,,,,,,,88,0,,./stim/wavs/puertorican_mismatch_declarative-broad-focus_La-nina-lava-el-plato.wav,,,,,,,,,,,,,,,,,,,,,,435.6106,437.7874,0,1,1.6485,,0,63,63,87,1,0,puertorican,,,,,,,,,,,,,,,,,,,,,,,,,,,,,,,,,,,,,,,,,,,,,,,,,,,,,,,,
,,,,,,,,,66828964434e3570607d323d,formal spanish,13 or older,click here to respond,no,2025-07-23_16h36.24.324,empathy_intonation_perc,2024.2.4,Win32,60.24096386,66828964434e3570607d323d,687ed1b7e638a4cbf2f02089,6881475ce9206e3a323c3d0a,,,,,,,,,,,,,11,1,,./stim/wavs/cuban_match_interrogative-total-yn_Mariano-habla-del-tiempo.wav,,,,,,,,,,,,,,,,,,,,,,437.7887,440.1413,0,0,1.821,,0,64,64,10,1,1,cuban,,,,,,,,,,,,,,,,,,,,,,,,,,,,,,,,,,,,,,,,,,,,,,,,,,,,,,,,
,,,,,,,,,66828964434e3570607d323d,formal spanish,13 or older,click here to respond,no,2025-07-23_16h36.24.324,empathy_intonation_perc,2024.2.4,Win32,60.24096386,66828964434e3570607d323d,687ed1b7e638a4cbf2f02089,6881475ce9206e3a323c3d0a,,,,,,,,,,,,,62,0,,./stim/wavs/mexican_match_declarative-broad-focus_Marta-abre-el-regalo.wav,,,,,,,,,,,,,,,,,,,,,,440.1436,442.4012,0,1,1.7334,,0,65,65,61,1,0,mexican,,,,,,,,,,,,,,,,,,,,,,,,,,,,,,,,,,,,,,,,,,,,,,,,,,,,,,,,
,,,,,,,,,66828964434e3570607d323d,formal spanish,13 or older,click here to respond,no,2025-07-23_16h36.24.324,empathy_intonation_perc,2024.2.4,Win32,60.24096386,66828964434e3570607d323d,687ed1b7e638a4cbf2f02089,6881475ce9206e3a323c3d0a,,,,,,,,,,,,,5,1,,./stim/wavs/castilian_match_interrogative-total-yn_Mariano-habla-del-tiempo.wav,,,,,,,,,,,,,,,,,,,,,,442.4028,445.0326,1,1,2.1002,,0,66,66,4,1,0,castilian,,,,,,,,,,,,,,,,,,,,,,,,,,,,,,,,,,,,,,,,,,,,,,,,,,,,,,,,
,,,,,,,,,66828964434e3570607d323d,formal spanish,13 or older,click here to respond,no,2025-07-23_16h36.24.324,empathy_intonation_perc,2024.2.4,Win32,60.24096386,66828964434e3570607d323d,687ed1b7e638a4cbf2f02089,6881475ce9206e3a323c3d0a,,,,,,,,,,,,,49,0,,./stim/wavs/castilian_match_declarative-broad-focus_Mariano-habla-del-tiempo.wav,,,,,,,,,,,,,,,,,,,,,,445.0342,447.6962,1,0,2.1327,,0,67,67,48,1,0,castilian,,,,,,,,,,,,,,,,,,,,,,,,,,,,,,,,,,,,,,,,,,,,,,,,,,,,,,,,
,,,,,,,,,66828964434e3570607d323d,formal spanish,13 or older,click here to respond,no,2025-07-23_16h36.24.324,empathy_intonation_perc,2024.2.4,Win32,60.24096386,66828964434e3570607d323d,687ed1b7e638a4cbf2f02089,6881475ce9206e3a323c3d0a,,,,,,,,,,,,,40,1,,./stim/wavs/puertorican_mismatch_interrogative-total-yn_El-hombre-mira-la-luna.wav,,,,,,,,,,,,,,,,,,,,,,447.6977,450.3497,0,0,2.1172,,0,68,68,39,1,1,puertorican,,,,,,,,,,,,,,,,,,,,,,,,,,,,,,,,,,,,,,,,,,,,,,,,,,,,,,,,
,,,,,,,,,66828964434e3570607d323d,formal spanish,13 or older,click here to respond,no,2025-07-23_16h36.24.324,empathy_intonation_perc,2024.2.4,Win32,60.24096386,66828964434e3570607d323d,687ed1b7e638a4cbf2f02089,6881475ce9206e3a323c3d0a,,,,,,,,,,,,,53,0,,./stim/wavs/cuban_match_declarative-broad-focus_Manuela-vende-el-carro.wav,,,,,,,,,,,,,,,,,,,,,,450.3503,452.777,0,1,1.9008,,0,69,69,52,1,0,cuban,,,,,,,,,,,,,,,,,,,,,,,,,,,,,,,,,,,,,,,,,,,,,,,,,,,,,,,,
,,,,,,,,,66828964434e3570607d323d,formal spanish,13 or older,click here to respond,no,2025-07-23_16h36.24.324,empathy_intonation_perc,2024.2.4,Win32,60.24096386,66828964434e3570607d323d,687ed1b7e638a4cbf2f02089,6881475ce9206e3a323c3d0a,,,,,,,,,,,,,42,1,,./stim/wavs/puertorican_mismatch_interrogative-total-yn_La-maestra-vive-en-Paris.wav,,,,,,,,,,,,,,,,,,,,,,452.7808,455.24,0,0,1.933,,0,70,70,41,1,1,puertorican,,,,,,,,,,,,,,,,,,,,,,,,,,,,,,,,,,,,,,,,,,,,,,,,,,,,,,,,
,,,,,,,,,66828964434e3570607d323d,formal spanish,13 or older,click here to respond,no,2025-07-23_16h36.24.324,empathy_intonation_perc,2024.2.4,Win32,60.24096386,66828964434e3570607d323d,687ed1b7e638a4cbf2f02089,6881475ce9206e3a323c3d0a,,,,,,,,,,,,,60,0,,./stim/wavs/mexican_match_declarative-broad-focus_Emilio-ama-la-marcha.wav,,,,,,,,,,,,,,,,,,,,,,455.2415,458.1357,0,1,2.3637,,0,71,71,59,1,0,mexican,,,,,,,,,,,,,,,,,,,,,,,,,,,,,,,,,,,,,,,,,,,,,,,,,,,,,,,,
,,,,,,,,,66828964434e3570607d323d,formal spanish,13 or older,click here to respond,no,2025-07-23_16h36.24.324,empathy_intonation_perc,2024.2.4,Win32,60.24096386,66828964434e3570607d323d,687ed1b7e638a4cbf2f02089,6881475ce9206e3a323c3d0a,,,,,,,,,,,,,74,0,,./stim/wavs/cuban_mismatch_declarative-broad-focus_El-bebe-comia-muy-bien.wav,,,,,,,,,,,,,,,,,,,,,,458.1374,460.3529,0,1,1.6858,,0,72,72,73,1,0,cuban,,,,,,,,,,,,,,,,,,,,,,,,,,,,,,,,,,,,,,,,,,,,,,,,,,,,,,,,
,,,,,,,,,66828964434e3570607d323d,formal spanish,13 or older,click here to respond,no,2025-07-23_16h36.24.324,empathy_intonation_perc,2024.2.4,Win32,60.24096386,66828964434e3570607d323d,687ed1b7e638a4cbf2f02089,6881475ce9206e3a323c3d0a,,,,,,,,,,,,,65,0,,./stim/wavs/puertorican_match_declarative-broad-focus_David-leia-el-libro.wav,,,,,,,,,,,,,,,,,,,,,,460.3547,462.8649,0,1,1.9831,,0,73,73,64,1,0,puertorican,,,,,,,,,,,,,,,,,,,,,,,,,,,,,,,,,,,,,,,,,,,,,,,,,,,,,,,,
,,,,,,,,,66828964434e3570607d323d,formal spanish,13 or older,click here to respond,no,2025-07-23_16h36.24.324,empathy_intonation_perc,2024.2.4,Win32,60.24096386,66828964434e3570607d323d,687ed1b7e638a4cbf2f02089,6881475ce9206e3a323c3d0a,,,,,,,,,,,,,69,0,,./stim/wavs/castilian_mismatch_declarative-broad-focus_El-nino-oye-el-rio.wav,,,,,,,,,,,,,,,,,,,,,,462.8668,465.8057,0,1,2.4134,,0,74,74,68,1,0,castilian,,,,,,,,,,,,,,,,,,,,,,,,,,,,,,,,,,,,,,,,,,,,,,,,,,,,,,,,
,,,,,,,,,66828964434e3570607d323d,formal spanish,13 or older,click here to respond,no,2025-07-23_16h36.24.324,empathy_intonation_perc,2024.2.4,Win32,60.24096386,66828964434e3570607d323d,687ed1b7e638a4cbf2f02089,6881475ce9206e3a323c3d0a,,,,,,,,,,,,,14,1,,./stim/wavs/mexican_match_interrogative-total-yn_Daniel-iba-a-Bolivia.wav,,,,,,,,,,,,,,,,,,,,,,465.8068,468.3244,1,1,1.9862,,0,75,75,13,1,0,mexican,,,,,,,,,,,,,,,,,,,,,,,,,,,,,,,,,,,,,,,,,,,,,,,,,,,,,,,,
,,,,,,,,,66828964434e3570607d323d,formal spanish,13 or older,click here to respond,no,2025-07-23_16h36.24.324,empathy_intonation_perc,2024.2.4,Win32,60.24096386,66828964434e3570607d323d,687ed1b7e638a4cbf2f02089,6881475ce9206e3a323c3d0a,,,,,,,,,,,,,46,0,,./stim/wavs/castilian_match_declarative-broad-focus_Emilio-ama-la-marcha.wav,,,,,,,,,,,,,,,,,,,,,,468.3256,471.0335,0,1,2.1595,,0,76,76,45,1,0,castilian,,,,,,,,,,,,,,,,,,,,,,,,,,,,,,,,,,,,,,,,,,,,,,,,,,,,,,,,
,,,,,,,,,66828964434e3570607d323d,formal spanish,13 or older,click here to respond,no,2025-07-23_16h36.24.324,empathy_intonation_perc,2024.2.4,Win32,60.24096386,66828964434e3570607d323d,687ed1b7e638a4cbf2f02089,6881475ce9206e3a323c3d0a,,,,,,,,,,,,,36,1,,./stim/wavs/mexican_mismatch_interrogative-total-yn_El-nino-oye-el-rio.wav,,,,,,,,,,,,,,,,,,,,,,471.0351,473.4163,1,1,1.8514,,0,77,77,35,1,0,mexican,,,,,,,,,,,,,,,,,,,,,,,,,,,,,,,,,,,,,,,,,,,,,,,,,,,,,,,,
,,,,,,,,,66828964434e3570607d323d,formal spanish,13 or older,click here to respond,no,2025-07-23_16h36.24.324,empathy_intonation_perc,2024.2.4,Win32,60.24096386,66828964434e3570607d323d,687ed1b7e638a4cbf2f02089,6881475ce9206e3a323c3d0a,,,,,,,,,,,,,68,0,,./stim/wavs/puertorican_match_declarative-broad-focus_Maria-bebe-el-vino.wav,,,,,,,,,,,,,,,,,,,,,,473.4179,475.5274,0,1,1.5686,,0,78,78,67,1,0,puertorican,,,,,,,,,,,,,,,,,,,,,,,,,,,,,,,,,,,,,,,,,,,,,,,,,,,,,,,,
,,,,,,,,,66828964434e3570607d323d,formal spanish,13 or older,click here to respond,no,2025-07-23_16h36.24.324,empathy_intonation_perc,2024.2.4,Win32,60.24096386,66828964434e3570607d323d,687ed1b7e638a4cbf2f02089,6881475ce9206e3a323c3d0a,,,,,,,,,,,,,17,1,,./stim/wavs/mexican_match_interrogative-total-yn_Mariano-habla-del-tiempo.wav,,,,,,,,,,,,,,,,,,,,,,475.5289,478.2016,0,0,2.1501,,0,79,79,16,1,0,mexican,,,,,,,,,,,,,,,,,,,,,,,,,,,,,,,,,,,,,,,,,,,,,,,,,,,,,,,,
,,,,,,,,,66828964434e3570607d323d,formal spanish,13 or older,click here to respond,no,2025-07-23_16h36.24.324,empathy_intonation_perc,2024.2.4,Win32,60.24096386,66828964434e3570607d323d,687ed1b7e638a4cbf2f02089,6881475ce9206e3a323c3d0a,,,,,,,,,,,,,54,0,,./stim/wavs/cuban_match_declarative-broad-focus_Maria-bebe-el-vino.wav,,,,,,,,,,,,,,,,,,,,,,478.204,480.8244,0,1,2.0918,,0,80,80,53,1,0,cuban,,,,,,,,,,,,,,,,,,,,,,,,,,,,,,,,,,,,,,,,,,,,,,,,,,,,,,,,
,,,,,,,,,66828964434e3570607d323d,formal spanish,13 or older,click here to respond,no,2025-07-23_16h36.24.324,empathy_intonation_perc,2024.2.4,Win32,60.24096386,66828964434e3570607d323d,687ed1b7e638a4cbf2f02089,6881475ce9206e3a323c3d0a,,,,,,,,,,,,,20,1,,./stim/wavs/puertorican_match_interrogative-total-yn_Daniel-iba-a-Bolivia.wav,,,,,,,,,,,,,,,,,,,,,,480.8265,483.6545,0,0,2.2904,,0,81,81,19,1,1,puertorican,,,,,,,,,,,,,,,,,,,,,,,,,,,,,,,,,,,,,,,,,,,,,,,,,,,,,,,,
,,,,,,,,,66828964434e3570607d323d,formal spanish,13 or older,click here to respond,no,2025-07-23_16h36.24.324,empathy_intonation_perc,2024.2.4,Win32,60.24096386,66828964434e3570607d323d,687ed1b7e638a4cbf2f02089,6881475ce9206e3a323c3d0a,,,,,,,,,,,,,38,1,,./stim/wavs/mexican_mismatch_interrogative-total-yn_Mi-novio-viene-del-lago.wav,,,,,,,,,,,,,,,,,,,,,,483.6562,486.6721,0,0,2.4974,,0,82,82,37,1,0,mexican,,,,,,,,,,,,,,,,,,,,,,,,,,,,,,,,,,,,,,,,,,,,,,,,,,,,,,,,
,,,,,,,,,66828964434e3570607d323d,formal spanish,13 or older,click here to respond,no,2025-07-23_16h36.24.324,empathy_intonation_perc,2024.2.4,Win32,60.24096386,66828964434e3570607d323d,687ed1b7e638a4cbf2f02089,6881475ce9206e3a323c3d0a,,,,,,,,,,,,,63,0,,./stim/wavs/puertorican_match_declarative-broad-focus_Ana-lleva-el-abrigo.wav,,,,,,,,,,,,,,,,,,,,,,486.674,488.8274,0,1,1.621,,0,83,83,62,1,0,puertorican,,,,,,,,,,,,,,,,,,,,,,,,,,,,,,,,,,,,,,,,,,,,,,,,,,,,,,,,
,,,,,,,,,66828964434e3570607d323d,formal spanish,13 or older,click here to respond,no,2025-07-23_16h36.24.324,empathy_intonation_perc,2024.2.4,Win32,60.24096386,66828964434e3570607d323d,687ed1b7e638a4cbf2f02089,6881475ce9206e3a323c3d0a,,,,,,,,,,,,,75,0,,./stim/wavs/cuban_mismatch_declarative-broad-focus_El-hombre-mira-la-luna.wav,,,,,,,,,,,,,,,,,,,,,,488.8299,491.3366,0,1,1.9899,,0,84,84,74,1,0,cuban,,,,,,,,,,,,,,,,,,,,,,,,,,,,,,,,,,,,,,,,,,,,,,,,,,,,,,,,
,,,,,,,,,66828964434e3570607d323d,formal spanish,13 or older,click here to respond,no,2025-07-23_16h36.24.324,empathy_intonation_perc,2024.2.4,Win32,60.24096386,66828964434e3570607d323d,687ed1b7e638a4cbf2f02089,6881475ce9206e3a323c3d0a,,,,,,,,,,,,,3,1,,./stim/wavs/castilian_match_interrogative-total-yn_Manuela-vende-el-carro.wav,,,,,,,,,,,,,,,,,,,,,,491.3393,493.7052,1,1,1.8364,,0,85,85,2,1,0,castilian,,,,,,,,,,,,,,,,,,,,,,,,,,,,,,,,,,,,,,,,,,,,,,,,,,,,,,,,
,,,,,,,,,66828964434e3570607d323d,formal spanish,13 or older,click here to respond,no,2025-07-23_16h36.24.324,empathy_intonation_perc,2024.2.4,Win32,60.24096386,66828964434e3570607d323d,687ed1b7e638a4cbf2f02089,6881475ce9206e3a323c3d0a,,,,,,,,,,,,,82,0,,./stim/wavs/mexican_mismatch_declarative-broad-focus_Mi-novio-viene-del-lago.wav,,,,,,,,,,,,,,,,,,,,,,493.7063,496.0713,0,1,1.8383,,0,86,86,81,1,0,mexican,,,,,,,,,,,,,,,,,,,,,,,,,,,,,,,,,,,,,,,,,,,,,,,,,,,,,,,,
,,,,,,,,,66828964434e3570607d323d,formal spanish,13 or older,click here to respond,no,2025-07-23_16h36.24.324,empathy_intonation_perc,2024.2.4,Win32,60.24096386,66828964434e3570607d323d,687ed1b7e638a4cbf2f02089,6881475ce9206e3a323c3d0a,,,,,,,,,,,,,26,1,,./stim/wavs/castilian_mismatch_interrogative-total-yn_La-nina-lava-el-plato.wav,,,,,,,,,,,,,,,,,,,,,,496.0724,498.5195,1,1,1.9152,,0,87,87,25,1,0,castilian,,,,,,,,,,,,,,,,,,,,,,,,,,,,,,,,,,,,,,,,,,,,,,,,,,,,,,,,
,,,,,,,"Great! Now we will move on. The next task consists of about 60 trials, in each of which you will see a string of letters. 
  
  Your task is to decide whether this is a real Spanish word or not.", (press the spacebar to continue),66828964434e3570607d323d,formal spanish,13 or older,click here to respond,no,2025-07-23_16h36.24.324,empathy_intonation_perc,2024.2.4,Win32,60.24096386,66828964434e3570607d323d,687ed1b7e638a4cbf2f02089,6881475ce9206e3a323c3d0a,,,,,,,,,,,,,,,,,,,,,,,,,,,,,,,,,,,,,,,,,,,,,,,,,,,498.5413,508.6543,0,0,0,0,1,,,,,,,,,,,,,,,,,,,,,,,,,,,,,,,,,,,,,,,,,,,,,,,,,
,,,,,,,"If you think it is an existing Spanish word, you type '1' (for 'REAL'), and if you think it is not an existing Spanish word, you type '0' (for 'FAKE').", (press the spacebar to continue),66828964434e3570607d323d,formal spanish,13 or older,click here to respond,no,2025-07-23_16h36.24.324,empathy_intonation_perc,2024.2.4,Win32,60.24096386,66828964434e3570607d323d,687ed1b7e638a4cbf2f02089,6881475ce9206e3a323c3d0a,,,,,,,,,,,,,,,,,,,,,,,,,,,,,,,,,,,,,,,,,,,,,,,,,,,508.6624,514.3714,0,1,1,1,1,,,,,,,,,,,,,,,,,,,,,,,,,,,,,,,,,,,,,,,,,,,,,,,,,
,,,,,,,"If you are sure that the word exists, even though you don’t know its exact meaning, you may still respond '1' (REAL). 
  
  But if you are not sure if it is an existing word, you should respond '0' (FAKE).
  
  Let's do a practice round...", (press the spacebar to continue),66828964434e3570607d323d,formal spanish,13 or older,click here to respond,no,2025-07-23_16h36.24.324,empathy_intonation_perc,2024.2.4,Win32,60.24096386,66828964434e3570607d323d,687ed1b7e638a4cbf2f02089,6881475ce9206e3a323c3d0a,,,,,,,,,,,,,,,,,,,,,,,,,,,,,,,,,,,,,,,,,,,,,,,,,,,514.3799,516.9306,0,2,2,2,1,,,,,,,,,,,,,,,,,,,,,,,,,,,,,,,,,,,,,,,,,,,,,,,,,
,,,,,,,,,66828964434e3570607d323d,formal spanish,13 or older,click here to respond,no,2025-07-23_16h36.24.324,empathy_intonation_perc,2024.2.4,Win32,60.24096386,66828964434e3570607d323d,687ed1b7e638a4cbf2f02089,6881475ce9206e3a323c3d0a,,,,,,,,,,,,,,0,,,,,,,,,,,,,,,,,,,,,,,,,,,,,,,,,,,,,,,,,,,,516.952,519.71,1,0,2.2321,,519.7106,520.7129,0,0,0,0,1,0,depiste,REAL,FAKE,,,,,,,,,,,,,,,,,,,,,,,,,,,,,,,,
,,,,,,,,,66828964434e3570607d323d,formal spanish,13 or older,click here to respond,no,2025-07-23_16h36.24.324,empathy_intonation_perc,2024.2.4,Win32,60.24096386,66828964434e3570607d323d,687ed1b7e638a4cbf2f02089,6881475ce9206e3a323c3d0a,,,,,,,,,,,,,,1,,,,,,,,,,,,,,,,,,,,,,,,,,,,,,,,,,,,,,,,,,,,520.7167,522.3897,1,1,1.1494,,522.3921,523.3875,0,1,1,1,1,0,sí,REAL,FAKE,,,,,,,,,,,,,,,,,,,,,,,,,,,,,,,,
,,,,,,,,,66828964434e3570607d323d,formal spanish,13 or older,click here to respond,no,2025-07-23_16h36.24.324,empathy_intonation_perc,2024.2.4,Win32,60.24096386,66828964434e3570607d323d,687ed1b7e638a4cbf2f02089,6881475ce9206e3a323c3d0a,,,,,,,,,,,,,,0,,,,,,,,,,,,,,,,,,,,,,,,,,,,,,,,,,,,,,,,,,,,523.3915,526.1029,1,0,2.1823,,526.1051,527.1006,0,2,2,2,1,0,coné,REAL,FAKE,,,,,,,,,,,,,,,,,,,,,,,,,,,,,,,,
,,,,,,,,,66828964434e3570607d323d,formal spanish,13 or older,click here to respond,no,2025-07-23_16h36.24.324,empathy_intonation_perc,2024.2.4,Win32,60.24096386,66828964434e3570607d323d,687ed1b7e638a4cbf2f02089,6881475ce9206e3a323c3d0a,,,,,,,,,,,,,,0,,,,,,,,,,,,,,,,,,,,,,,,,,,,,,,,,,,,,,,,,,,,527.1035,528.6488,0,1,1.0161,,528.6523,529.647,0,3,3,3,1,0,calpar,REAL,FAKE,,,,,,,,,,,,,,,,,,,,,,,,,,,,,,,,
,,,,,,,,,66828964434e3570607d323d,formal spanish,13 or older,click here to respond,no,2025-07-23_16h36.24.324,empathy_intonation_perc,2024.2.4,Win32,60.24096386,66828964434e3570607d323d,687ed1b7e638a4cbf2f02089,6881475ce9206e3a323c3d0a,,,,,,,,,,,,,,0,,,,,,,,,,,,,,,,,,,,,,,,,,,,,,,,,,,,,,,,,,,,529.6513,531.3974,0,1,1.2164,,531.3976,532.3932,0,4,4,4,1,0,joten,REAL,FAKE,,,,,,,,,,,,,,,,,,,,,,,,,,,,,,,,
,,,,,,,,,66828964434e3570607d323d,formal spanish,13 or older,click here to respond,no,2025-07-23_16h36.24.324,empathy_intonation_perc,2024.2.4,Win32,60.24096386,66828964434e3570607d323d,687ed1b7e638a4cbf2f02089,6881475ce9206e3a323c3d0a,,,,,,,,,,,,,,1,,,,,,,,,,,,,,,,,,,,,,,,,,,,,,,,,,,,,,,,,,,,532.3971,534.3123,0,0,1.3844,,534.3152,535.3166,0,5,5,5,1,0,sacapuntas,REAL,FAKE,,,,,,,,,,,,,,,,,,,,,,,,,,,,,,,,
,,,,,,,,,66828964434e3570607d323d,formal spanish,13 or older,click here to respond,no,2025-07-23_16h36.24.324,empathy_intonation_perc,2024.2.4,Win32,60.24096386,66828964434e3570607d323d,687ed1b7e638a4cbf2f02089,6881475ce9206e3a323c3d0a,,,,,,,,,,,,,,0,,,,,,,,,,,,,,,,,,,,,,,,,,,,,,,,,,,,,,,,,,,,535.3199,537.3973,1,0,1.5468,,537.3974,538.398,0,6,6,6,1,0,priba,REAL,FAKE,,,,,,,,,,,,,,,,,,,,,,,,,,,,,,,,
,,,,,,,,,66828964434e3570607d323d,formal spanish,13 or older,click here to respond,no,2025-07-23_16h36.24.324,empathy_intonation_perc,2024.2.4,Win32,60.24096386,66828964434e3570607d323d,687ed1b7e638a4cbf2f02089,6881475ce9206e3a323c3d0a,,,,,,,,,,,,,,0,,,,,,,,,,,,,,,,,,,,,,,,,,,,,,,,,,,,,,,,,,,,538.4007,539.895,0,1,0.9606,,539.8964,540.8954,0,7,7,7,1,0,pelasula,REAL,FAKE,,,,,,,,,,,,,,,,,,,,,,,,,,,,,,,,
,,,,,,,,,66828964434e3570607d323d,formal spanish,13 or older,click here to respond,no,2025-07-23_16h36.24.324,empathy_intonation_perc,2024.2.4,Win32,60.24096386,66828964434e3570607d323d,687ed1b7e638a4cbf2f02089,6881475ce9206e3a323c3d0a,,,,,,,,,,,,,,1,,,,,,,,,,,,,,,,,,,,,,,,,,,,,,,,,,,,,,,,,,,,540.8974,542.6424,1,1,1.212,,542.6424,543.642,0,8,8,8,1,0,bien,REAL,FAKE,,,,,,,,,,,,,,,,,,,,,,,,,,,,,,,,
,,,,,,,,,66828964434e3570607d323d,formal spanish,13 or older,click here to respond,no,2025-07-23_16h36.24.324,empathy_intonation_perc,2024.2.4,Win32,60.24096386,66828964434e3570607d323d,687ed1b7e638a4cbf2f02089,6881475ce9206e3a323c3d0a,,,,,,,,,,,,,,1,,,,,,,,,,,,,,,,,,,,,,,,,,,,,,,,,,,,,,,,,,,,543.6441,545.2221,1,1,1.059,,545.2222,546.2223,0,9,9,9,1,0,casa,REAL,FAKE,,,,,,,,,,,,,,,,,,,,,,,,,,,,,,,,
,,,,,,,,,66828964434e3570607d323d,formal spanish,13 or older,click here to respond,no,2025-07-23_16h36.24.324,empathy_intonation_perc,2024.2.4,Win32,60.24096386,66828964434e3570607d323d,687ed1b7e638a4cbf2f02089,6881475ce9206e3a323c3d0a,,,,,,,,,,,,,,0,,,,,,,,,,,,,,,,,,,,,,,,,,,,,,,,,,,,,,,,,,,,546.2244,548.5196,0,1,1.7638,,548.5198,549.5195,0,10,10,10,1,0,lejo,REAL,FAKE,,,,,,,,,,,,,,,,,,,,,,,,,,,,,,,,
,,,,,,,,,66828964434e3570607d323d,formal spanish,13 or older,click here to respond,no,2025-07-23_16h36.24.324,empathy_intonation_perc,2024.2.4,Win32,60.24096386,66828964434e3570607d323d,687ed1b7e638a4cbf2f02089,6881475ce9206e3a323c3d0a,,,,,,,,,,,,,,0,,,,,,,,,,,,,,,,,,,,,,,,,,,,,,,,,,,,,,,,,,,,549.5215,553.0656,1,0,3.0092,,553.067,554.0645,0,11,11,11,1,0,pretantas,REAL,FAKE,,,,,,,,,,,,,,,,,,,,,,,,,,,,,,,,
,,,,,,,,,66828964434e3570607d323d,formal spanish,13 or older,click here to respond,no,2025-07-23_16h36.24.324,empathy_intonation_perc,2024.2.4,Win32,60.24096386,66828964434e3570607d323d,687ed1b7e638a4cbf2f02089,6881475ce9206e3a323c3d0a,,,,,,,,,,,,,,,,,,,,,,,,,,,,,,,,,,,,,,,,,,,,,,,,,,,,,,,,,,,,,,,,,,,,,,,,,,,554.0651,556.6125,,,,,,,,,,,,,,,,,,,,,,,,,,,,,,
,,,,,,,,,66828964434e3570607d323d,formal spanish,13 or older,click here to respond,no,2025-07-23_16h36.24.324,empathy_intonation_perc,2024.2.4,Win32,60.24096386,66828964434e3570607d323d,687ed1b7e638a4cbf2f02089,6881475ce9206e3a323c3d0a,,,,,,,,,,,,,,1,,,,,,,,,,,,,,,,,,,,,,,,,,,,,,,,,,,,,,,,,,,,,,,,,,,,,,,,,89,prisa,,,,,556.6452,558.9609,1,1,1.7856,,0,0,0,88,1,REAL,FAKE,,,,,,,,,,,,,,,,,
,,,,,,,,,66828964434e3570607d323d,formal spanish,13 or older,click here to respond,no,2025-07-23_16h36.24.324,empathy_intonation_perc,2024.2.4,Win32,60.24096386,66828964434e3570607d323d,687ed1b7e638a4cbf2f02089,6881475ce9206e3a323c3d0a,,,,,,,,,,,,,,0,,,,,,,,,,,,,,,,,,,,,,,,,,,,,,,,,,,,,,,,,,,,,,,,,,,,,,,,,8,cadeña,,,,,558.9646,560.5238,1,0,1.0306,,0,1,1,7,1,REAL,FAKE,,,,,,,,,,,,,,,,,
,,,,,,,,,66828964434e3570607d323d,formal spanish,13 or older,click here to respond,no,2025-07-23_16h36.24.324,empathy_intonation_perc,2024.2.4,Win32,60.24096386,66828964434e3570607d323d,687ed1b7e638a4cbf2f02089,6881475ce9206e3a323c3d0a,,,,,,,,,,,,,,0,,,,,,,,,,,,,,,,,,,,,,,,,,,,,,,,,,,,,,,,,,,,,,,,,,,,,,,,,17,floroso,,,,,560.5249,562.5572,0,1,1.5049,,0,2,2,16,1,REAL,FAKE,,,,,,,,,,,,,,,,,
,,,,,,,,,66828964434e3570607d323d,formal spanish,13 or older,click here to respond,no,2025-07-23_16h36.24.324,empathy_intonation_perc,2024.2.4,Win32,60.24096386,66828964434e3570607d323d,687ed1b7e638a4cbf2f02089,6881475ce9206e3a323c3d0a,,,,,,,,,,,,,,1,,,,,,,,,,,,,,,,,,,,,,,,,,,,,,,,,,,,,,,,,,,,,,,,,,,,,,,,,39,torpe,,,,,562.5591,564.1548,0,0,1.064,,0,3,3,38,1,REAL,FAKE,,,,,,,,,,,,,,,,,
,,,,,,,,,66828964434e3570607d323d,formal spanish,13 or older,click here to respond,no,2025-07-23_16h36.24.324,empathy_intonation_perc,2024.2.4,Win32,60.24096386,66828964434e3570607d323d,687ed1b7e638a4cbf2f02089,6881475ce9206e3a323c3d0a,,,,,,,,,,,,,,1,,,,,,,,,,,,,,,,,,,,,,,,,,,,,,,,,,,,,,,,,,,,,,,,,,,,,,,,,31,pandilla,,,,,564.157,566.1027,1,1,1.4138,,0,4,4,30,1,REAL,FAKE,,,,,,,,,,,,,,,,,
,,,,,,,,,66828964434e3570607d323d,formal spanish,13 or older,click here to respond,no,2025-07-23_16h36.24.324,empathy_intonation_perc,2024.2.4,Win32,60.24096386,66828964434e3570607d323d,687ed1b7e638a4cbf2f02089,6881475ce9206e3a323c3d0a,,,,,,,,,,,,,,1,,,,,,,,,,,,,,,,,,,,,,,,,,,,,,,,,,,,,,,,,,,,,,,,,,,,,,,,,38,estornudar,,,,,566.1048,567.8846,0,0,1.2462,,0,5,5,37,1,REAL,FAKE,,,,,,,,,,,,,,,,,
,,,,,,,,,66828964434e3570607d323d,formal spanish,13 or older,click here to respond,no,2025-07-23_16h36.24.324,empathy_intonation_perc,2024.2.4,Win32,60.24096386,66828964434e3570607d323d,687ed1b7e638a4cbf2f02089,6881475ce9206e3a323c3d0a,,,,,,,,,,,,,,1,,,,,,,,,,,,,,,,,,,,,,,,,,,,,,,,,,,,,,,,,,,,,,,,,,,,,,,,,45,jilguero,,,,,567.8866,569.5655,0,0,1.148,,0,6,6,44,1,REAL,FAKE,,,,,,,,,,,,,,,,,
,,,,,,,,,66828964434e3570607d323d,formal spanish,13 or older,click here to respond,no,2025-07-23_16h36.24.324,empathy_intonation_perc,2024.2.4,Win32,60.24096386,66828964434e3570607d323d,687ed1b7e638a4cbf2f02089,6881475ce9206e3a323c3d0a,,,,,,,,,,,,,,0,,,,,,,,,,,,,,,,,,,,,,,,,,,,,,,,,,,,,,,,,,,,,,,,,,,,,,,,,42,cadallo,,,,,569.5674,571.2632,0,1,1.1675,,0,7,7,41,1,REAL,FAKE,,,,,,,,,,,,,,,,,
,,,,,,,,,66828964434e3570607d323d,formal spanish,13 or older,click here to respond,no,2025-07-23_16h36.24.324,empathy_intonation_perc,2024.2.4,Win32,60.24096386,66828964434e3570607d323d,687ed1b7e638a4cbf2f02089,6881475ce9206e3a323c3d0a,,,,,,,,,,,,,,0,,,,,,,,,,,,,,,,,,,,,,,,,,,,,,,,,,,,,,,,,,,,,,,,,,,,,,,,,1,terzo,,,,,571.2646,572.6962,1,0,0.9018,,0,8,8,0,1,REAL,FAKE,,,,,,,,,,,,,,,,,
,,,,,,,,,66828964434e3570607d323d,formal spanish,13 or older,click here to respond,no,2025-07-23_16h36.24.324,empathy_intonation_perc,2024.2.4,Win32,60.24096386,66828964434e3570607d323d,687ed1b7e638a4cbf2f02089,6881475ce9206e3a323c3d0a,,,,,,,,,,,,,,1,,,,,,,,,,,,,,,,,,,,,,,,,,,,,,,,,,,,,,,,,,,,,,,,,,,,,,,,,28,merodear,,,,,572.6981,574.5775,0,0,1.3461,,0,9,9,27,1,REAL,FAKE,,,,,,,,,,,,,,,,,
,,,,,,,,,66828964434e3570607d323d,formal spanish,13 or older,click here to respond,no,2025-07-23_16h36.24.324,empathy_intonation_perc,2024.2.4,Win32,60.24096386,66828964434e3570607d323d,687ed1b7e638a4cbf2f02089,6881475ce9206e3a323c3d0a,,,,,,,,,,,,,,1,,,,,,,,,,,,,,,,,,,,,,,,,,,,,,,,,,,,,,,,,,,,,,,,,,,,,,,,,11,cenefa,,,,,574.5793,577.0924,0,0,1.9822,,0,10,10,10,1,REAL,FAKE,,,,,,,,,,,,,,,,,
,,,,,,,,,66828964434e3570607d323d,formal spanish,13 or older,click here to respond,no,2025-07-23_16h36.24.324,empathy_intonation_perc,2024.2.4,Win32,60.24096386,66828964434e3570607d323d,687ed1b7e638a4cbf2f02089,6881475ce9206e3a323c3d0a,,,,,,,,,,,,,,1,,,,,,,,,,,,,,,,,,,,,,,,,,,,,,,,,,,,,,,,,,,,,,,,,,,,,,,,,2,pellizcar,,,,,577.0947,578.5074,1,1,0.871,,0,11,11,1,1,REAL,FAKE,,,,,,,,,,,,,,,,,
,,,,,,,,,66828964434e3570607d323d,formal spanish,13 or older,click here to respond,no,2025-07-23_16h36.24.324,empathy_intonation_perc,2024.2.4,Win32,60.24096386,66828964434e3570607d323d,687ed1b7e638a4cbf2f02089,6881475ce9206e3a323c3d0a,,,,,,,,,,,,,,1,,,,,,,,,,,,,,,,,,,,,,,,,,,,,,,,,,,,,,,,,,,,,,,,,,,,,,,,,81,pozo,,,,,578.5094,580.0392,1,1,0.9983,,0,12,12,80,1,REAL,FAKE,,,,,,,,,,,,,,,,,
,,,,,,,,,66828964434e3570607d323d,formal spanish,13 or older,click here to respond,no,2025-07-23_16h36.24.324,empathy_intonation_perc,2024.2.4,Win32,60.24096386,66828964434e3570607d323d,687ed1b7e638a4cbf2f02089,6881475ce9206e3a323c3d0a,,,,,,,,,,,,,,0,,,,,,,,,,,,,,,,,,,,,,,,,,,,,,,,,,,,,,,,,,,,,,,,,,,,,,,,,33,pauca,,,,,580.0413,581.5469,1,0,0.9816,,0,13,13,32,1,REAL,FAKE,,,,,,,,,,,,,,,,,
,,,,,,,,,66828964434e3570607d323d,formal spanish,13 or older,click here to respond,no,2025-07-23_16h36.24.324,empathy_intonation_perc,2024.2.4,Win32,60.24096386,66828964434e3570607d323d,687ed1b7e638a4cbf2f02089,6881475ce9206e3a323c3d0a,,,,,,,,,,,,,,1,,,,,,,,,,,,,,,,,,,,,,,,,,,,,,,,,,,,,,,,,,,,,,,,,,,,,,,,,44,cuchara,,,,,581.5501,583.8487,1,1,1.769,,0,14,14,43,1,REAL,FAKE,,,,,,,,,,,,,,,,,
,,,,,,,,,66828964434e3570607d323d,formal spanish,13 or older,click here to respond,no,2025-07-23_16h36.24.324,empathy_intonation_perc,2024.2.4,Win32,60.24096386,66828964434e3570607d323d,687ed1b7e638a4cbf2f02089,6881475ce9206e3a323c3d0a,,,,,,,,,,,,,,1,,,,,,,,,,,,,,,,,,,,,,,,,,,,,,,,,,,,,,,,,,,,,,,,,,,,,,,,,57,tacaño,,,,,583.8513,585.4285,1,1,1.0509,,0,15,15,56,1,REAL,FAKE,,,,,,,,,,,,,,,,,
,,,,,,,,,66828964434e3570607d323d,formal spanish,13 or older,click here to respond,no,2025-07-23_16h36.24.324,empathy_intonation_perc,2024.2.4,Win32,60.24096386,66828964434e3570607d323d,687ed1b7e638a4cbf2f02089,6881475ce9206e3a323c3d0a,,,,,,,,,,,,,,1,,,,,,,,,,,,,,,,,,,,,,,,,,,,,,,,,,,,,,,,,,,,,,,,,,,,,,,,,77,tiburón,,,,,585.4321,587.2588,1,1,1.3,,0,16,16,76,1,REAL,FAKE,,,,,,,,,,,,,,,,,
,,,,,,,,,66828964434e3570607d323d,formal spanish,13 or older,click here to respond,no,2025-07-23_16h36.24.324,empathy_intonation_perc,2024.2.4,Win32,60.24096386,66828964434e3570607d323d,687ed1b7e638a4cbf2f02089,6881475ce9206e3a323c3d0a,,,,,,,,,,,,,,1,,,,,,,,,,,,,,,,,,,,,,,,,,,,,,,,,,,,,,,,,,,,,,,,,,,,,,,,,51,candado,,,,,587.2616,588.8501,1,1,1.0692,,0,17,17,50,1,REAL,FAKE,,,,,,,,,,,,,,,,,
,,,,,,,,,66828964434e3570607d323d,formal spanish,13 or older,click here to respond,no,2025-07-23_16h36.24.324,empathy_intonation_perc,2024.2.4,Win32,60.24096386,66828964434e3570607d323d,687ed1b7e638a4cbf2f02089,6881475ce9206e3a323c3d0a,,,,,,,,,,,,,,1,,,,,,,,,,,,,,,,,,,,,,,,,,,,,,,,,,,,,,,,,,,,,,,,,,,,,,,,,71,polvoriento,,,,,588.8539,591.078,1,1,1.6971,,0,18,18,70,1,REAL,FAKE,,,,,,,,,,,,,,,,,
,,,,,,,,,66828964434e3570607d323d,formal spanish,13 or older,click here to respond,no,2025-07-23_16h36.24.324,empathy_intonation_perc,2024.2.4,Win32,60.24096386,66828964434e3570607d323d,687ed1b7e638a4cbf2f02089,6881475ce9206e3a323c3d0a,,,,,,,,,,,,,,1,,,,,,,,,,,,,,,,,,,,,,,,,,,,,,,,,,,,,,,,,,,,,,,,,,,,,,,,,46,martillo,,,,,591.0804,593.4448,1,1,1.8347,,0,19,19,45,1,REAL,FAKE,,,,,,,,,,,,,,,,,
,,,,,,,,,66828964434e3570607d323d,formal spanish,13 or older,click here to respond,no,2025-07-23_16h36.24.324,empathy_intonation_perc,2024.2.4,Win32,60.24096386,66828964434e3570607d323d,687ed1b7e638a4cbf2f02089,6881475ce9206e3a323c3d0a,,,,,,,,,,,,,,1,,,,,,,,,,,,,,,,,,,,,,,,,,,,,,,,,,,,,,,,,,,,,,,,,,,,,,,,,67,cabello,,,,,593.4466,595.524,1,1,1.5467,,0,20,20,66,1,REAL,FAKE,,,,,,,,,,,,,,,,,
,,,,,,,,,66828964434e3570607d323d,formal spanish,13 or older,click here to respond,no,2025-07-23_16h36.24.324,empathy_intonation_perc,2024.2.4,Win32,60.24096386,66828964434e3570607d323d,687ed1b7e638a4cbf2f02089,6881475ce9206e3a323c3d0a,,,,,,,,,,,,,,0,,,,,,,,,,,,,,,,,,,,,,,,,,,,,,,,,,,,,,,,,,,,,,,,,,,,,,,,,87,grodo,,,,,595.5259,597.3548,1,0,1.299,,0,21,21,86,1,REAL,FAKE,,,,,,,,,,,,,,,,,
,,,,,,,,,66828964434e3570607d323d,formal spanish,13 or older,click here to respond,no,2025-07-23_16h36.24.324,empathy_intonation_perc,2024.2.4,Win32,60.24096386,66828964434e3570607d323d,687ed1b7e638a4cbf2f02089,6881475ce9206e3a323c3d0a,,,,,,,,,,,,,,0,,,,,,,,,,,,,,,,,,,,,,,,,,,,,,,,,,,,,,,,,,,,,,,,,,,,,,,,,70,temblo,,,,,597.3569,598.6542,0,1,0.7813,,0,22,22,69,1,REAL,FAKE,,,,,,,,,,,,,,,,,
,,,,,,,,,66828964434e3570607d323d,formal spanish,13 or older,click here to respond,no,2025-07-23_16h36.24.324,empathy_intonation_perc,2024.2.4,Win32,60.24096386,66828964434e3570607d323d,687ed1b7e638a4cbf2f02089,6881475ce9206e3a323c3d0a,,,,,,,,,,,,,,1,,,,,,,,,,,,,,,,,,,,,,,,,,,,,,,,,,,,,,,,,,,,,,,,,,,,,,,,,83,guante,,,,,598.6561,600.1695,1,1,0.9822,,0,23,23,82,1,REAL,FAKE,,,,,,,,,,,,,,,,,
,,,,,,,,,66828964434e3570607d323d,formal spanish,13 or older,click here to respond,no,2025-07-23_16h36.24.324,empathy_intonation_perc,2024.2.4,Win32,60.24096386,66828964434e3570607d323d,687ed1b7e638a4cbf2f02089,6881475ce9206e3a323c3d0a,,,,,,,,,,,,,,1,,,,,,,,,,,,,,,,,,,,,,,,,,,,,,,,,,,,,,,,,,,,,,,,,,,,,,,,,7,pésimo,,,,,600.1714,601.6043,1,1,0.9065,,0,24,24,6,1,REAL,FAKE,,,,,,,,,,,,,,,,,
,,,,,,,,,66828964434e3570607d323d,formal spanish,13 or older,click here to respond,no,2025-07-23_16h36.24.324,empathy_intonation_perc,2024.2.4,Win32,60.24096386,66828964434e3570607d323d,687ed1b7e638a4cbf2f02089,6881475ce9206e3a323c3d0a,,,,,,,,,,,,,,1,,,,,,,,,,,,,,,,,,,,,,,,,,,,,,,,,,,,,,,,,,,,,,,,,,,,,,,,,40,alfombra,,,,,601.6062,603.0498,0,0,0.9167,,0,25,25,39,1,REAL,FAKE,,,,,,,,,,,,,,,,,
,,,,,,,,,66828964434e3570607d323d,formal spanish,13 or older,click here to respond,no,2025-07-23_16h36.24.324,empathy_intonation_perc,2024.2.4,Win32,60.24096386,66828964434e3570607d323d,687ed1b7e638a4cbf2f02089,6881475ce9206e3a323c3d0a,,,,,,,,,,,,,,1,,,,,,,,,,,,,,,,,,,,,,,,,,,,,,,,,,,,,,,,,,,,,,,,,,,,,,,,,34,aviso,,,,,603.0518,606.4135,0,0,2.8294,,0,26,26,33,1,REAL,FAKE,,,,,,,,,,,,,,,,,
,,,,,,,,,66828964434e3570607d323d,formal spanish,13 or older,click here to respond,no,2025-07-23_16h36.24.324,empathy_intonation_perc,2024.2.4,Win32,60.24096386,66828964434e3570607d323d,687ed1b7e638a4cbf2f02089,6881475ce9206e3a323c3d0a,,,,,,,,,,,,,,0,,,,,,,,,,,,,,,,,,,,,,,,,,,,,,,,,,,,,,,,,,,,,,,,,,,,,,,,,23,lampera,,,,,606.4154,607.8619,1,0,0.9129,,0,27,27,22,1,REAL,FAKE,,,,,,,,,,,,,,,,,
,,,,,,,,,66828964434e3570607d323d,formal spanish,13 or older,click here to respond,no,2025-07-23_16h36.24.324,empathy_intonation_perc,2024.2.4,Win32,60.24096386,66828964434e3570607d323d,687ed1b7e638a4cbf2f02089,6881475ce9206e3a323c3d0a,,,,,,,,,,,,,,0,,,,,,,,,,,,,,,,,,,,,,,,,,,,,,,,,,,,,,,,,,,,,,,,,,,,,,,,,66,hacido,,,,,607.8639,609.2303,1,0,0.8405,,0,28,28,65,1,REAL,FAKE,,,,,,,,,,,,,,,,,
,,,,,,,,,66828964434e3570607d323d,formal spanish,13 or older,click here to respond,no,2025-07-23_16h36.24.324,empathy_intonation_perc,2024.2.4,Win32,60.24096386,66828964434e3570607d323d,687ed1b7e638a4cbf2f02089,6881475ce9206e3a323c3d0a,,,,,,,,,,,,,,0,,,,,,,,,,,,,,,,,,,,,,,,,,,,,,,,,,,,,,,,,,,,,,,,,,,,,,,,,53,vegada,,,,,609.2321,610.6091,1,0,0.8485,,0,29,29,52,1,REAL,FAKE,,,,,,,,,,,,,,,,,
,,,,,,,,,66828964434e3570607d323d,formal spanish,13 or older,click here to respond,no,2025-07-23_16h36.24.324,empathy_intonation_perc,2024.2.4,Win32,60.24096386,66828964434e3570607d323d,687ed1b7e638a4cbf2f02089,6881475ce9206e3a323c3d0a,,,,,,,,,,,,,,1,,,,,,,,,,,,,,,,,,,,,,,,,,,,,,,,,,,,,,,,,,,,,,,,,,,,,,,,,60,matar,,,,,610.611,612.0942,0,0,0.9559,,0,30,30,59,1,REAL,FAKE,,,,,,,,,,,,,,,,,
,,,,,,,,,66828964434e3570607d323d,formal spanish,13 or older,click here to respond,no,2025-07-23_16h36.24.324,empathy_intonation_perc,2024.2.4,Win32,60.24096386,66828964434e3570607d323d,687ed1b7e638a4cbf2f02089,6881475ce9206e3a323c3d0a,,,,,,,,,,,,,,1,,,,,,,,,,,,,,,,,,,,,,,,,,,,,,,,,,,,,,,,,,,,,,,,,,,,,,,,,69,engatusar,,,,,612.096,613.6895,0,0,1.0633,,0,31,31,68,1,REAL,FAKE,,,,,,,,,,,,,,,,,
,,,,,,,,,66828964434e3570607d323d,formal spanish,13 or older,click here to respond,no,2025-07-23_16h36.24.324,empathy_intonation_perc,2024.2.4,Win32,60.24096386,66828964434e3570607d323d,687ed1b7e638a4cbf2f02089,6881475ce9206e3a323c3d0a,,,,,,,,,,,,,,1,,,,,,,,,,,,,,,,,,,,,,,,,,,,,,,,,,,,,,,,,,,,,,,,,,,,,,,,,62,flaco,,,,,613.6915,615.453,0,0,1.2287,,0,32,32,61,1,REAL,FAKE,,,,,,,,,,,,,,,,,
,,,,,,,,,66828964434e3570607d323d,formal spanish,13 or older,click here to respond,no,2025-07-23_16h36.24.324,empathy_intonation_perc,2024.2.4,Win32,60.24096386,66828964434e3570607d323d,687ed1b7e638a4cbf2f02089,6881475ce9206e3a323c3d0a,,,,,,,,,,,,,,0,,,,,,,,,,,,,,,,,,,,,,,,,,,,,,,,,,,,,,,,,,,,,,,,,,,,,,,,,10,antar,,,,,615.4541,616.92,1,0,0.9533,,0,33,33,9,1,REAL,FAKE,,,,,,,,,,,,,,,,,
,,,,,,,,,66828964434e3570607d323d,formal spanish,13 or older,click here to respond,no,2025-07-23_16h36.24.324,empathy_intonation_perc,2024.2.4,Win32,60.24096386,66828964434e3570607d323d,687ed1b7e638a4cbf2f02089,6881475ce9206e3a323c3d0a,,,,,,,,,,,,,,1,,,,,,,,,,,,,,,,,,,,,,,,,,,,,,,,,,,,,,,,,,,,,,,,,,,,,,,,,85,laúd,,,,,616.9224,618.6834,1,1,1.2319,,0,34,34,84,1,REAL,FAKE,,,,,,,,,,,,,,,,,
,,,,,,,,,66828964434e3570607d323d,formal spanish,13 or older,click here to respond,no,2025-07-23_16h36.24.324,empathy_intonation_perc,2024.2.4,Win32,60.24096386,66828964434e3570607d323d,687ed1b7e638a4cbf2f02089,6881475ce9206e3a323c3d0a,,,,,,,,,,,,,,1,,,,,,,,,,,,,,,,,,,,,,,,,,,,,,,,,,,,,,,,,,,,,,,,,,,,,,,,,76,atar,,,,,618.686,621.5323,1,1,2.3147,,0,35,35,75,1,REAL,FAKE,,,,,,,,,,,,,,,,,
,,,,,,,,,66828964434e3570607d323d,formal spanish,13 or older,click here to respond,no,2025-07-23_16h36.24.324,empathy_intonation_perc,2024.2.4,Win32,60.24096386,66828964434e3570607d323d,687ed1b7e638a4cbf2f02089,6881475ce9206e3a323c3d0a,,,,,,,,,,,,,,1,,,,,,,,,,,,,,,,,,,,,,,,,,,,,,,,,,,,,,,,,,,,,,,,,,,,,,,,,3,pulmones,,,,,621.5346,622.9805,1,1,0.9129,,0,36,36,2,1,REAL,FAKE,,,,,,,,,,,,,,,,,
,,,,,,,,,66828964434e3570607d323d,formal spanish,13 or older,click here to respond,no,2025-07-23_16h36.24.324,empathy_intonation_perc,2024.2.4,Win32,60.24096386,66828964434e3570607d323d,687ed1b7e638a4cbf2f02089,6881475ce9206e3a323c3d0a,,,,,,,,,,,,,,1,,,,,,,,,,,,,,,,,,,,,,,,,,,,,,,,,,,,,,,,,,,,,,,,,,,,,,,,,25,bisagra,,,,,622.9824,624.4456,1,1,0.9321,,0,37,37,24,1,REAL,FAKE,,,,,,,,,,,,,,,,,
,,,,,,,,,66828964434e3570607d323d,formal spanish,13 or older,click here to respond,no,2025-07-23_16h36.24.324,empathy_intonation_perc,2024.2.4,Win32,60.24096386,66828964434e3570607d323d,687ed1b7e638a4cbf2f02089,6881475ce9206e3a323c3d0a,,,,,,,,,,,,,,0,,,,,,,,,,,,,,,,,,,,,,,,,,,,,,,,,,,,,,,,,,,,,,,,,,,,,,,,,47,cartinar,,,,,624.4477,626.0774,1,0,1.098,,0,38,38,46,1,REAL,FAKE,,,,,,,,,,,,,,,,,
,,,,,,,,,66828964434e3570607d323d,formal spanish,13 or older,click here to respond,no,2025-07-23_16h36.24.324,empathy_intonation_perc,2024.2.4,Win32,60.24096386,66828964434e3570607d323d,687ed1b7e638a4cbf2f02089,6881475ce9206e3a323c3d0a,,,,,,,,,,,,,,0,,,,,,,,,,,,,,,,,,,,,,,,,,,,,,,,,,,,,,,,,,,,,,,,,,,,,,,,,18,arsa,,,,,626.0793,627.6592,1,0,1.0461,,0,39,39,17,1,REAL,FAKE,,,,,,,,,,,,,,,,,
,,,,,,,,,66828964434e3570607d323d,formal spanish,13 or older,click here to respond,no,2025-07-23_16h36.24.324,empathy_intonation_perc,2024.2.4,Win32,60.24096386,66828964434e3570607d323d,687ed1b7e638a4cbf2f02089,6881475ce9206e3a323c3d0a,,,,,,,,,,,,,,1,,,,,,,,,,,,,,,,,,,,,,,,,,,,,,,,,,,,,,,,,,,,,,,,,,,,,,,,,43,canela,,,,,627.6611,629.356,0,0,1.1634,,0,40,40,42,1,REAL,FAKE,,,,,,,,,,,,,,,,,
,,,,,,,,,66828964434e3570607d323d,formal spanish,13 or older,click here to respond,no,2025-07-23_16h36.24.324,empathy_intonation_perc,2024.2.4,Win32,60.24096386,66828964434e3570607d323d,687ed1b7e638a4cbf2f02089,6881475ce9206e3a323c3d0a,,,,,,,,,,,,,,0,,,,,,,,,,,,,,,,,,,,,,,,,,,,,,,,,,,,,,,,,,,,,,,,,,,,,,,,,50,flamida,,,,,629.3574,633.7531,1,0,3.8789,,0,41,41,49,1,REAL,FAKE,,,,,,,,,,,,,,,,,
,,,,,,,,,66828964434e3570607d323d,formal spanish,13 or older,click here to respond,no,2025-07-23_16h36.24.324,empathy_intonation_perc,2024.2.4,Win32,60.24096386,66828964434e3570607d323d,687ed1b7e638a4cbf2f02089,6881475ce9206e3a323c3d0a,,,,,,,,,,,,,,0,,,,,,,,,,,,,,,,,,,,,,,,,,,,,,,,,,,,,,,,,,,,,,,,,,,,,,,,,92,click the 0 key.,,,,,633.7553,662.1088,0,1,27.8191,,0,42,42,91,1,REAL,FAKE,,,,,,,,,,,,,,,,,
,,,,,,,,,66828964434e3570607d323d,formal spanish,13 or older,click here to respond,no,2025-07-23_16h36.24.324,empathy_intonation_perc,2024.2.4,Win32,60.24096386,66828964434e3570607d323d,687ed1b7e638a4cbf2f02089,6881475ce9206e3a323c3d0a,,,,,,,,,,,,,,1,,,,,,,,,,,,,,,,,,,,,,,,,,,,,,,,,,,,,,,,,,,,,,,,,,,,,,,,,37,granuja,,,,,662.111,667.7198,1,1,5.0756,,0,43,43,36,1,REAL,FAKE,,,,,,,,,,,,,,,,,
,,,,,,,,,66828964434e3570607d323d,formal spanish,13 or older,click here to respond,no,2025-07-23_16h36.24.324,empathy_intonation_perc,2024.2.4,Win32,60.24096386,66828964434e3570607d323d,687ed1b7e638a4cbf2f02089,6881475ce9206e3a323c3d0a,,,,,,,,,,,,,,1,,,,,,,,,,,,,,,,,,,,,,,,,,,,,,,,,,,,,,,,,,,,,,,,,,,,,,,,,52,camisa,,,,,667.722,668.8849,0,0,0.6291,,0,44,44,51,1,REAL,FAKE,,,,,,,,,,,,,,,,,
,,,,,,,,,66828964434e3570607d323d,formal spanish,13 or older,click here to respond,no,2025-07-23_16h36.24.324,empathy_intonation_perc,2024.2.4,Win32,60.24096386,66828964434e3570607d323d,687ed1b7e638a4cbf2f02089,6881475ce9206e3a323c3d0a,,,,,,,,,,,,,,0,,,,,,,,,,,,,,,,,,,,,,,,,,,,,,,,,,,,,,,,,,,,,,,,,,,,,,,,,16,abracer,,,,,668.887,670.3351,0,1,0.9292,,0,45,45,15,1,REAL,FAKE,,,,,,,,,,,,,,,,,
,,,,,,,,,66828964434e3570607d323d,formal spanish,13 or older,click here to respond,no,2025-07-23_16h36.24.324,empathy_intonation_perc,2024.2.4,Win32,60.24096386,66828964434e3570607d323d,687ed1b7e638a4cbf2f02089,6881475ce9206e3a323c3d0a,,,,,,,,,,,,,,1,,,,,,,,,,,,,,,,,,,,,,,,,,,,,,,,,,,,,,,,,,,,,,,,,,,,,,,,,22,lacayo,,,,,670.338,671.7499,0,0,0.8856,,0,46,46,21,1,REAL,FAKE,,,,,,,,,,,,,,,,,
,,,,,,,,,66828964434e3570607d323d,formal spanish,13 or older,click here to respond,no,2025-07-23_16h36.24.324,empathy_intonation_perc,2024.2.4,Win32,60.24096386,66828964434e3570607d323d,687ed1b7e638a4cbf2f02089,6881475ce9206e3a323c3d0a,,,,,,,,,,,,,,1,,,,,,,,,,,,,,,,,,,,,,,,,,,,,,,,,,,,,,,,,,,,,,,,,,,,,,,,,5,zapato,,,,,671.7518,672.8812,0,0,0.5973,,0,47,47,4,1,REAL,FAKE,,,,,,,,,,,,,,,,,
,,,,,,,,,66828964434e3570607d323d,formal spanish,13 or older,click here to respond,no,2025-07-23_16h36.24.324,empathy_intonation_perc,2024.2.4,Win32,60.24096386,66828964434e3570607d323d,687ed1b7e638a4cbf2f02089,6881475ce9206e3a323c3d0a,,,,,,,,,,,,,,0,,,,,,,,,,,,,,,,,,,,,,,,,,,,,,,,,,,,,,,,,,,,,,,,,,,,,,,,,27,acutación,,,,,672.8832,674.2482,1,0,0.8329,,0,48,48,26,1,REAL,FAKE,,,,,,,,,,,,,,,,,
,,,,,,,,,66828964434e3570607d323d,formal spanish,13 or older,click here to respond,no,2025-07-23_16h36.24.324,empathy_intonation_perc,2024.2.4,Win32,60.24096386,66828964434e3570607d323d,687ed1b7e638a4cbf2f02089,6881475ce9206e3a323c3d0a,,,,,,,,,,,,,,0,,,,,,,,,,,,,,,,,,,,,,,,,,,,,,,,,,,,,,,,,,,,,,,,,,,,,,,,,21,capillo,,,,,674.25,675.6813,1,0,0.8987,,0,49,49,20,1,REAL,FAKE,,,,,,,,,,,,,,,,,
,,,,,,,,,66828964434e3570607d323d,formal spanish,13 or older,click here to respond,no,2025-07-23_16h36.24.324,empathy_intonation_perc,2024.2.4,Win32,60.24096386,66828964434e3570607d323d,687ed1b7e638a4cbf2f02089,6881475ce9206e3a323c3d0a,,,,,,,,,,,,,,1,,,,,,,,,,,,,,,,,,,,,,,,,,,,,,,,,,,,,,,,,,,,,,,,,,,,,,,,,54,fomentar,,,,,675.6833,677.2438,1,1,1.0331,,0,50,50,53,1,REAL,FAKE,,,,,,,,,,,,,,,,,
,,,,,,,,,66828964434e3570607d323d,formal spanish,13 or older,click here to respond,no,2025-07-23_16h36.24.324,empathy_intonation_perc,2024.2.4,Win32,60.24096386,66828964434e3570607d323d,687ed1b7e638a4cbf2f02089,6881475ce9206e3a323c3d0a,,,,,,,,,,,,,,1,,,,,,,,,,,,,,,,,,,,,,,,,,,,,,,,,,,,,,,,,,,,,,,,,,,,,,,,,55,nevar,,,,,677.2457,678.8757,0,0,1.1016,,0,51,51,54,1,REAL,FAKE,,,,,,,,,,,,,,,,,
,,,,,,,,,66828964434e3570607d323d,formal spanish,13 or older,click here to respond,no,2025-07-23_16h36.24.324,empathy_intonation_perc,2024.2.4,Win32,60.24096386,66828964434e3570607d323d,687ed1b7e638a4cbf2f02089,6881475ce9206e3a323c3d0a,,,,,,,,,,,,,,0,,,,,,,,,,,,,,,,,,,,,,,,,,,,,,,,,,,,,,,,,,,,,,,,,,,,,,,,,72,pemición,,,,,678.8778,680.3906,1,0,0.981,,0,52,52,71,1,REAL,FAKE,,,,,,,,,,,,,,,,,
,,,,,,,,,66828964434e3570607d323d,formal spanish,13 or older,click here to respond,no,2025-07-23_16h36.24.324,empathy_intonation_perc,2024.2.4,Win32,60.24096386,66828964434e3570607d323d,687ed1b7e638a4cbf2f02089,6881475ce9206e3a323c3d0a,,,,,,,,,,,,,,0,,,,,,,,,,,,,,,,,,,,,,,,,,,,,,,,,,,,,,,,,,,,,,,,,,,,,,,,,79,tropaje,,,,,680.3927,681.5255,0,1,0.6052,,0,53,53,78,1,REAL,FAKE,,,,,,,,,,,,,,,,,
,,,,,,,,,66828964434e3570607d323d,formal spanish,13 or older,click here to respond,no,2025-07-23_16h36.24.324,empathy_intonation_perc,2024.2.4,Win32,60.24096386,66828964434e3570607d323d,687ed1b7e638a4cbf2f02089,6881475ce9206e3a323c3d0a,,,,,,,,,,,,,,0,,,,,,,,,,,,,,,,,,,,,,,,,,,,,,,,,,,,,,,,,,,,,,,,,,,,,,,,,82,empirador,,,,,681.5273,683.5045,1,0,1.4477,,0,54,54,81,1,REAL,FAKE,,,,,,,,,,,,,,,,,
,,,,,,,,,66828964434e3570607d323d,formal spanish,13 or older,click here to respond,no,2025-07-23_16h36.24.324,empathy_intonation_perc,2024.2.4,Win32,60.24096386,66828964434e3570607d323d,687ed1b7e638a4cbf2f02089,6881475ce9206e3a323c3d0a,,,,,,,,,,,,,,1,,,,,,,,,,,,,,,,,,,,,,,,,,,,,,,,,,,,,,,,,,,,,,,,,,,,,,,,,41,rebuscar,,,,,683.5064,684.6698,0,0,0.6325,,0,55,55,40,1,REAL,FAKE,,,,,,,,,,,,,,,,,
,,,,,,,,,66828964434e3570607d323d,formal spanish,13 or older,click here to respond,no,2025-07-23_16h36.24.324,empathy_intonation_perc,2024.2.4,Win32,60.24096386,66828964434e3570607d323d,687ed1b7e638a4cbf2f02089,6881475ce9206e3a323c3d0a,,,,,,,,,,,,,,1,,,,,,,,,,,,,,,,,,,,,,,,,,,,,,,,,,,,,,,,,,,,,,,,,,,,,,,,,86,barato,,,,,684.672,686.5016,0,0,1.297,,0,56,56,85,1,REAL,FAKE,,,,,,,,,,,,,,,,,
,,,,,,,,,66828964434e3570607d323d,formal spanish,13 or older,click here to respond,no,2025-07-23_16h36.24.324,empathy_intonation_perc,2024.2.4,Win32,60.24096386,66828964434e3570607d323d,687ed1b7e638a4cbf2f02089,6881475ce9206e3a323c3d0a,,,,,,,,,,,,,,1,,,,,,,,,,,,,,,,,,,,,,,,,,,,,,,,,,,,,,,,,,,,,,,,,,,,,,,,,24,látigo,,,,,686.5044,688.2165,1,1,1.1812,,0,57,57,23,1,REAL,FAKE,,,,,,,,,,,,,,,,,
,,,,,,,,,66828964434e3570607d323d,formal spanish,13 or older,click here to respond,no,2025-07-23_16h36.24.324,empathy_intonation_perc,2024.2.4,Win32,60.24096386,66828964434e3570607d323d,687ed1b7e638a4cbf2f02089,6881475ce9206e3a323c3d0a,,,,,,,,,,,,,,1,,,,,,,,,,,,,,,,,,,,,,,,,,,,,,,,,,,,,,,,,,,,,,,,,,,,,,,,,91,click the 1 key.,,,,,688.2193,691.3466,1,1,2.5909,,0,58,58,90,1,REAL,FAKE,,,,,,,,,,,,,,,,,
,,,,,,,,,66828964434e3570607d323d,formal spanish,13 or older,click here to respond,no,2025-07-23_16h36.24.324,empathy_intonation_perc,2024.2.4,Win32,60.24096386,66828964434e3570607d323d,687ed1b7e638a4cbf2f02089,6881475ce9206e3a323c3d0a,,,,,,,,,,,,,,1,,,,,,,,,,,,,,,,,,,,,,,,,,,,,,,,,,,,,,,,,,,,,,,,,,,,,,,,,36,loro,,,,,691.3486,692.862,0,0,0.9756,,0,59,59,35,1,REAL,FAKE,,,,,,,,,,,,,,,,,
,,,,,,,,,66828964434e3570607d323d,formal spanish,13 or older,click here to respond,no,2025-07-23_16h36.24.324,empathy_intonation_perc,2024.2.4,Win32,60.24096386,66828964434e3570607d323d,687ed1b7e638a4cbf2f02089,6881475ce9206e3a323c3d0a,,,,,,,,,,,,,,1,,,,,,,,,,,,,,,,,,,,,,,,,,,,,,,,,,,,,,,,,,,,,,,,,,,,,,,,,68,alegre,,,,,692.864,694.2109,0,0,0.8182,,0,60,60,67,1,REAL,FAKE,,,,,,,,,,,,,,,,,
,,,,,,,,,66828964434e3570607d323d,formal spanish,13 or older,click here to respond,no,2025-07-23_16h36.24.324,empathy_intonation_perc,2024.2.4,Win32,60.24096386,66828964434e3570607d323d,687ed1b7e638a4cbf2f02089,6881475ce9206e3a323c3d0a,,,,,,,,,,,,,,1,,,,,,,,,,,,,,,,,,,,,,,,,,,,,,,,,,,,,,,,,,,,,,,,,,,,,,,,,20,ávido,,,,,694.2129,695.4622,1,1,0.7223,,0,61,61,19,1,REAL,FAKE,,,,,,,,,,,,,,,,,
,,,,,,,,,66828964434e3570607d323d,formal spanish,13 or older,click here to respond,no,2025-07-23_16h36.24.324,empathy_intonation_perc,2024.2.4,Win32,60.24096386,66828964434e3570607d323d,687ed1b7e638a4cbf2f02089,6881475ce9206e3a323c3d0a,,,,,,,,,,,,,,1,,,,,,,,,,,,,,,,,,,,,,,,,,,,,,,,,,,,,,,,,,,,,,,,,,,,,,,,,26,secuestro,,,,,695.4639,697.2076,0,0,1.2159,,0,62,62,25,1,REAL,FAKE,,,,,,,,,,,,,,,,,
,,,,,,,,,66828964434e3570607d323d,formal spanish,13 or older,click here to respond,no,2025-07-23_16h36.24.324,empathy_intonation_perc,2024.2.4,Win32,60.24096386,66828964434e3570607d323d,687ed1b7e638a4cbf2f02089,6881475ce9206e3a323c3d0a,,,,,,,,,,,,,,0,,,,,,,,,,,,,,,,,,,,,,,,,,,,,,,,,,,,,,,,,,,,,,,,,,,,,,,,,32,fatacidad,,,,,697.2093,698.6723,0,1,0.9317,,0,63,63,31,1,REAL,FAKE,,,,,,,,,,,,,,,,,
,,,,,,,,,66828964434e3570607d323d,formal spanish,13 or older,click here to respond,no,2025-07-23_16h36.24.324,empathy_intonation_perc,2024.2.4,Win32,60.24096386,66828964434e3570607d323d,687ed1b7e638a4cbf2f02089,6881475ce9206e3a323c3d0a,,,,,,,,,,,,,,1,,,,,,,,,,,,,,,,,,,,,,,,,,,,,,,,,,,,,,,,,,,,,,,,,,,,,,,,,48,ladrón,,,,,698.674,700.157,1,1,0.9543,,0,64,64,47,1,REAL,FAKE,,,,,,,,,,,,,,,,,
,,,,,,,,,66828964434e3570607d323d,formal spanish,13 or older,click here to respond,no,2025-07-23_16h36.24.324,empathy_intonation_perc,2024.2.4,Win32,60.24096386,66828964434e3570607d323d,687ed1b7e638a4cbf2f02089,6881475ce9206e3a323c3d0a,,,,,,,,,,,,,,1,,,,,,,,,,,,,,,,,,,,,,,,,,,,,,,,,,,,,,,,,,,,,,,,,,,,,,,,,90,clavel,,,,,700.1588,701.703,0,0,1.0171,,0,65,65,89,1,REAL,FAKE,,,,,,,,,,,,,,,,,
,,,,,,,,,66828964434e3570607d323d,formal spanish,13 or older,click here to respond,no,2025-07-23_16h36.24.324,empathy_intonation_perc,2024.2.4,Win32,60.24096386,66828964434e3570607d323d,687ed1b7e638a4cbf2f02089,6881475ce9206e3a323c3d0a,,,,,,,,,,,,,,1,,,,,,,,,,,,,,,,,,,,,,,,,,,,,,,,,,,,,,,,,,,,,,,,,,,,,,,,,88,acantilado,,,,,701.7053,703.2708,0,0,1.0499,,0,66,66,87,1,REAL,FAKE,,,,,,,,,,,,,,,,,
,,,,,,,,,66828964434e3570607d323d,formal spanish,13 or older,click here to respond,no,2025-07-23_16h36.24.324,empathy_intonation_perc,2024.2.4,Win32,60.24096386,66828964434e3570607d323d,687ed1b7e638a4cbf2f02089,6881475ce9206e3a323c3d0a,,,,,,,,,,,,,,1,,,,,,,,,,,,,,,,,,,,,,,,,,,,,,,,,,,,,,,,,,,,,,,,,,,,,,,,,6,tergiversar,,,,,703.2728,706.3013,1,1,2.5051,,0,67,67,5,1,REAL,FAKE,,,,,,,,,,,,,,,,,
,,,,,,,,,66828964434e3570607d323d,formal spanish,13 or older,click here to respond,no,2025-07-23_16h36.24.324,empathy_intonation_perc,2024.2.4,Win32,60.24096386,66828964434e3570607d323d,687ed1b7e638a4cbf2f02089,6881475ce9206e3a323c3d0a,,,,,,,,,,,,,,1,,,,,,,,,,,,,,,,,,,,,,,,,,,,,,,,,,,,,,,,,,,,,,,,,,,,,,,,,75,yacer,,,,,706.3035,708.7326,0,0,1.9007,,0,68,68,74,1,REAL,FAKE,,,,,,,,,,,,,,,,,
,,,,,,,,,66828964434e3570607d323d,formal spanish,13 or older,click here to respond,no,2025-07-23_16h36.24.324,empathy_intonation_perc,2024.2.4,Win32,60.24096386,66828964434e3570607d323d,687ed1b7e638a4cbf2f02089,6881475ce9206e3a323c3d0a,,,,,,,,,,,,,,0,,,,,,,,,,,,,,,,,,,,,,,,,,,,,,,,,,,,,,,,,,,,,,,,,,,,,,,,,58,plaudir,,,,,708.7345,710.9616,0,1,1.7047,,0,69,69,57,1,REAL,FAKE,,,,,,,,,,,,,,,,,
,,,,,,,,,66828964434e3570607d323d,formal spanish,13 or older,click here to respond,no,2025-07-23_16h36.24.324,empathy_intonation_perc,2024.2.4,Win32,60.24096386,66828964434e3570607d323d,687ed1b7e638a4cbf2f02089,6881475ce9206e3a323c3d0a,,,,,,,,,,,,,,0,,,,,,,,,,,,,,,,,,,,,,,,,,,,,,,,,,,,,,,,,,,,,,,,,,,,,,,,,4,batillón,,,,,710.964,712.643,1,0,1.1519,,0,70,70,3,1,REAL,FAKE,,,,,,,,,,,,,,,,,
,,,,,,,,,66828964434e3570607d323d,formal spanish,13 or older,click here to respond,no,2025-07-23_16h36.24.324,empathy_intonation_perc,2024.2.4,Win32,60.24096386,66828964434e3570607d323d,687ed1b7e638a4cbf2f02089,6881475ce9206e3a323c3d0a,,,,,,,,,,,,,,1,,,,,,,,,,,,,,,,,,,,,,,,,,,,,,,,,,,,,,,,,,,,,,,,,,,,,,,,,9,hacha,,,,,712.6453,720.5505,1,1,7.3859,,0,71,71,8,1,REAL,FAKE,,,,,,,,,,,,,,,,,
,,,,,,,,,66828964434e3570607d323d,formal spanish,13 or older,click here to respond,no,2025-07-23_16h36.24.324,empathy_intonation_perc,2024.2.4,Win32,60.24096386,66828964434e3570607d323d,687ed1b7e638a4cbf2f02089,6881475ce9206e3a323c3d0a,,,,,,,,,,,,,,0,,,,,,,,,,,,,,,,,,,,,,,,,,,,,,,,,,,,,,,,,,,,,,,,,,,,,,,,,19,brecedad,,,,,720.5518,729.8593,0,1,8.7857,,0,72,72,18,1,REAL,FAKE,,,,,,,,,,,,,,,,,
,,,,,,,,,66828964434e3570607d323d,formal spanish,13 or older,click here to respond,no,2025-07-23_16h36.24.324,empathy_intonation_perc,2024.2.4,Win32,60.24096386,66828964434e3570607d323d,687ed1b7e638a4cbf2f02089,6881475ce9206e3a323c3d0a,,,,,,,,,,,,,,0,,,,,,,,,,,,,,,,,,,,,,,,,,,,,,,,,,,,,,,,,,,,,,,,,,,,,,,,,35,rompido,,,,,729.8612,731.2572,0,1,0.8621,,0,73,73,34,1,REAL,FAKE,,,,,,,,,,,,,,,,,
,,,,,,,,,66828964434e3570607d323d,formal spanish,13 or older,click here to respond,no,2025-07-23_16h36.24.324,empathy_intonation_perc,2024.2.4,Win32,60.24096386,66828964434e3570607d323d,687ed1b7e638a4cbf2f02089,6881475ce9206e3a323c3d0a,,,,,,,,,,,,,,0,,,,,,,,,,,,,,,,,,,,,,,,,,,,,,,,,,,,,,,,,,,,,,,,,,,,,,,,,74,cintro,,,,,731.2591,732.4749,0,1,0.6824,,0,74,74,73,1,REAL,FAKE,,,,,,,,,,,,,,,,,
,,,,,,,,,66828964434e3570607d323d,formal spanish,13 or older,click here to respond,no,2025-07-23_16h36.24.324,empathy_intonation_perc,2024.2.4,Win32,60.24096386,66828964434e3570607d323d,687ed1b7e638a4cbf2f02089,6881475ce9206e3a323c3d0a,,,,,,,,,,,,,,1,,,,,,,,,,,,,,,,,,,,,,,,,,,,,,,,,,,,,,,,,,,,,,,,,,,,,,,,,61,seda,,,,,732.4774,733.9398,1,1,0.9322,,0,75,75,60,1,REAL,FAKE,,,,,,,,,,,,,,,,,
,,,,,,,,,66828964434e3570607d323d,formal spanish,13 or older,click here to respond,no,2025-07-23_16h36.24.324,empathy_intonation_perc,2024.2.4,Win32,60.24096386,66828964434e3570607d323d,687ed1b7e638a4cbf2f02089,6881475ce9206e3a323c3d0a,,,,,,,,,,,,,,1,,,,,,,,,,,,,,,,,,,,,,,,,,,,,,,,,,,,,,,,,,,,,,,,,,,,,,,,,12,asesinato,,,,,733.9419,735.3204,1,1,0.8462,,0,76,76,11,1,REAL,FAKE,,,,,,,,,,,,,,,,,
,,,,,,,,,66828964434e3570607d323d,formal spanish,13 or older,click here to respond,no,2025-07-23_16h36.24.324,empathy_intonation_perc,2024.2.4,Win32,60.24096386,66828964434e3570607d323d,687ed1b7e638a4cbf2f02089,6881475ce9206e3a323c3d0a,,,,,,,,,,,,,,1,,,,,,,,,,,,,,,,,,,,,,,,,,,,,,,,,,,,,,,,,,,,,,,,,,,,,,,,,73,hervidor,,,,,735.3225,736.4228,1,1,0.5707,,0,77,77,72,1,REAL,FAKE,,,,,,,,,,,,,,,,,
,,,,,,,,,66828964434e3570607d323d,formal spanish,13 or older,click here to respond,no,2025-07-23_16h36.24.324,empathy_intonation_perc,2024.2.4,Win32,60.24096386,66828964434e3570607d323d,687ed1b7e638a4cbf2f02089,6881475ce9206e3a323c3d0a,,,,,,,,,,,,,,1,,,,,,,,,,,,,,,,,,,,,,,,,,,,,,,,,,,,,,,,,,,,,,,,,,,,,,,,,78,frondoso,,,,,736.4246,737.518,0,0,0.5662,,0,78,78,77,1,REAL,FAKE,,,,,,,,,,,,,,,,,
,,,,,,,,,66828964434e3570607d323d,formal spanish,13 or older,click here to respond,no,2025-07-23_16h36.24.324,empathy_intonation_perc,2024.2.4,Win32,60.24096386,66828964434e3570607d323d,687ed1b7e638a4cbf2f02089,6881475ce9206e3a323c3d0a,,,,,,,,,,,,,,0,,,,,,,,,,,,,,,,,,,,,,,,,,,,,,,,,,,,,,,,,,,,,,,,,,,,,,,,,84,escuto,,,,,737.5199,749.3239,0,1,11.272,,0,79,79,83,1,REAL,FAKE,,,,,,,,,,,,,,,,,
,,,,,,,,,66828964434e3570607d323d,formal spanish,13 or older,click here to respond,no,2025-07-23_16h36.24.324,empathy_intonation_perc,2024.2.4,Win32,60.24096386,66828964434e3570607d323d,687ed1b7e638a4cbf2f02089,6881475ce9206e3a323c3d0a,,,,,,,,,,,,,,1,,,,,,,,,,,,,,,,,,,,,,,,,,,,,,,,,,,,,,,,,,,,,,,,,,,,,,,,,49,ganar,,,,,749.3261,750.7904,0,0,0.9368,,0,80,80,48,1,REAL,FAKE,,,,,,,,,,,,,,,,,
,,,,,,,,,66828964434e3570607d323d,formal spanish,13 or older,click here to respond,no,2025-07-23_16h36.24.324,empathy_intonation_perc,2024.2.4,Win32,60.24096386,66828964434e3570607d323d,687ed1b7e638a4cbf2f02089,6881475ce9206e3a323c3d0a,,,,,,,,,,,,,,1,,,,,,,,,,,,,,,,,,,,,,,,,,,,,,,,,,,,,,,,,,,,,,,,,,,,,,,,,80,hormiga,,,,,750.7921,752.2705,1,1,0.9492,,0,81,81,79,1,REAL,FAKE,,,,,,,,,,,,,,,,,
,,,,,,,,,66828964434e3570607d323d,formal spanish,13 or older,click here to respond,no,2025-07-23_16h36.24.324,empathy_intonation_perc,2024.2.4,Win32,60.24096386,66828964434e3570607d323d,687ed1b7e638a4cbf2f02089,6881475ce9206e3a323c3d0a,,,,,,,,,,,,,,1,,,,,,,,,,,,,,,,,,,,,,,,,,,,,,,,,,,,,,,,,,,,,,,,,,,,,,,,,15,regar,,,,,752.2723,753.5028,1,1,0.6989,,0,82,82,14,1,REAL,FAKE,,,,,,,,,,,,,,,,,
,,,,,,,,,66828964434e3570607d323d,formal spanish,13 or older,click here to respond,no,2025-07-23_16h36.24.324,empathy_intonation_perc,2024.2.4,Win32,60.24096386,66828964434e3570607d323d,687ed1b7e638a4cbf2f02089,6881475ce9206e3a323c3d0a,,,,,,,,,,,,,,0,,,,,,,,,,,,,,,,,,,,,,,,,,,,,,,,,,,,,,,,,,,,,,,,,,,,,,,,,30,alardio,,,,,753.5048,754.9024,1,0,0.8639,,0,83,83,29,1,REAL,FAKE,,,,,,,,,,,,,,,,,
,,,,,,,,,66828964434e3570607d323d,formal spanish,13 or older,click here to respond,no,2025-07-23_16h36.24.324,empathy_intonation_perc,2024.2.4,Win32,60.24096386,66828964434e3570607d323d,687ed1b7e638a4cbf2f02089,6881475ce9206e3a323c3d0a,,,,,,,,,,,,,,1,,,,,,,,,,,,,,,,,,,,,,,,,,,,,,,,,,,,,,,,,,,,,,,,,,,,,,,,,14,yunque,,,,,754.9045,756.8493,0,0,1.4157,,0,84,84,13,1,REAL,FAKE,,,,,,,,,,,,,,,,,
,,,,,,,,,66828964434e3570607d323d,formal spanish,13 or older,click here to respond,no,2025-07-23_16h36.24.324,empathy_intonation_perc,2024.2.4,Win32,60.24096386,66828964434e3570607d323d,687ed1b7e638a4cbf2f02089,6881475ce9206e3a323c3d0a,,,,,,,,,,,,,,1,,,,,,,,,,,,,,,,,,,,,,,,,,,,,,,,,,,,,,,,,,,,,,,,,,,,,,,,,56,musgo,,,,,756.8512,758.9306,1,1,1.5463,,0,85,85,55,1,REAL,FAKE,,,,,,,,,,,,,,,,,
,,,,,,,,,66828964434e3570607d323d,formal spanish,13 or older,click here to respond,no,2025-07-23_16h36.24.324,empathy_intonation_perc,2024.2.4,Win32,60.24096386,66828964434e3570607d323d,687ed1b7e638a4cbf2f02089,6881475ce9206e3a323c3d0a,,,,,,,,,,,,,,1,,,,,,,,,,,,,,,,,,,,,,,,,,,,,,,,,,,,,,,,,,,,,,,,,,,,,,,,,59,besar,,,,,758.9324,776.464,1,1,17.0021,,0,86,86,58,1,REAL,FAKE,,,,,,,,,,,,,,,,,
,,,,,,,,,66828964434e3570607d323d,formal spanish,13 or older,click here to respond,no,2025-07-23_16h36.24.324,empathy_intonation_perc,2024.2.4,Win32,60.24096386,66828964434e3570607d323d,687ed1b7e638a4cbf2f02089,6881475ce9206e3a323c3d0a,,,,,,,,,,,,,,1,,,,,,,,,,,,,,,,,,,,,,,,,,,,,,,,,,,,,,,,,,,,,,,,,,,,,,,,,65,bizcocho,,,,,776.4663,779.0621,0,0,2.0744,,0,87,87,64,1,REAL,FAKE,,,,,,,,,,,,,,,,,
,,,,,,,,,66828964434e3570607d323d,formal spanish,13 or older,click here to respond,no,2025-07-23_16h36.24.324,empathy_intonation_perc,2024.2.4,Win32,60.24096386,66828964434e3570607d323d,687ed1b7e638a4cbf2f02089,6881475ce9206e3a323c3d0a,,,,,,,,,,,,,,0,,,,,,,,,,,,,,,,,,,,,,,,,,,,,,,,,,,,,,,,,,,,,,,,,,,,,,,,,29,decar,,,,,779.0642,784.0258,1,0,4.4324,,0,88,88,28,1,REAL,FAKE,,,,,,,,,,,,,,,,,
,,,,,,,,,66828964434e3570607d323d,formal spanish,13 or older,click here to respond,no,2025-07-23_16h36.24.324,empathy_intonation_perc,2024.2.4,Win32,60.24096386,66828964434e3570607d323d,687ed1b7e638a4cbf2f02089,6881475ce9206e3a323c3d0a,,,,,,,,,,,,,,1,,,,,,,,,,,,,,,,,,,,,,,,,,,,,,,,,,,,,,,,,,,,,,,,,,,,,,,,,64,orgulloso,,,,,784.0275,785.4381,1,1,0.8808,,0,89,89,63,1,REAL,FAKE,,,,,,,,,,,,,,,,,
,,,,,,,,,66828964434e3570607d323d,formal spanish,13 or older,click here to respond,no,2025-07-23_16h36.24.324,empathy_intonation_perc,2024.2.4,Win32,60.24096386,66828964434e3570607d323d,687ed1b7e638a4cbf2f02089,6881475ce9206e3a323c3d0a,,,,,,,,,,,,,,1,,,,,,,,,,,,,,,,,,,,,,,,,,,,,,,,,,,,,,,,,,,,,,,,,,,,,,,,,13,helar,,,,,785.4398,786.6206,0,0,0.6485,,0,90,90,12,1,REAL,FAKE,,,,,,,,,,,,,,,,,
,,,,,,,,,66828964434e3570607d323d,formal spanish,13 or older,click here to respond,no,2025-07-23_16h36.24.324,empathy_intonation_perc,2024.2.4,Win32,60.24096386,66828964434e3570607d323d,687ed1b7e638a4cbf2f02089,6881475ce9206e3a323c3d0a,,,,,,,,,,,,,,0,,,,,,,,,,,,,,,,,,,,,,,,,,,,,,,,,,,,,,,,,,,,,,,,,,,,,,,,,63,esposante,,,,,786.6232,787.6363,0,1,0.4816,,0,91,91,62,1,REAL,FAKE,,,,,,,,,,,,,,,,,
,,,,,,,,,66828964434e3570607d323d,formal spanish,13 or older,click here to respond,no,2025-07-23_16h36.24.324,empathy_intonation_perc,2024.2.4,Win32,60.24096386,66828964434e3570607d323d,687ed1b7e638a4cbf2f02089,6881475ce9206e3a323c3d0a,,,,,,,,,,,,,,,,,,,,,,,,,,,,,,,,,,,,,,,,,,,,,,,,,,,,,,,,,,,,,,,,,,,,,,,,,,,,,,,,,,,,,,,,,,787.6372,989.4268,,,,,,,,,,,,,,,
,,,,,,,,,66828964434e3570607d323d,formal spanish,13 or older,click here to respond,no,2025-07-23_16h36.24.324,empathy_intonation_perc,2024.2.4,Win32,60.24096386,66828964434e3570607d323d,687ed1b7e638a4cbf2f02089,6881475ce9206e3a323c3d0a,,,,,,,,,,,,,1,,,,,,,,,,,,,,,,,,,,,,,,,,,,,,,,,,,,,,,,,,,,,,,,,,,,,,,,,,,,,,,,,,,,,,,,,,,,,,,989.4431,994.3726,slightly agree,0,0,0,0,1,I can easily tell if someone else wants to enter a conversation.,1,0,1,0,,
,,,,,,,,,66828964434e3570607d323d,formal spanish,13 or older,click here to respond,no,2025-07-23_16h36.24.324,empathy_intonation_perc,2024.2.4,Win32,60.24096386,66828964434e3570607d323d,687ed1b7e638a4cbf2f02089,6881475ce9206e3a323c3d0a,,,,,,,,,,,,,2,,,,,,,,,,,,,,,,,,,,,,,,,,,,,,,,,,,,,,,,,,,,,,,,,,,,,,,,,,,,,,,,,,,,,,,,,,,,,,,994.378,997.2494,slightly agree,0,1,1,1,1,I prefer animals to humans.,0,1,0,0,,
,,,,,,,,,66828964434e3570607d323d,formal spanish,13 or older,click here to respond,no,2025-07-23_16h36.24.324,empathy_intonation_perc,2024.2.4,Win32,60.24096386,66828964434e3570607d323d,687ed1b7e638a4cbf2f02089,6881475ce9206e3a323c3d0a,,,,,,,,,,,,,3,,,,,,,,,,,,,,,,,,,,,,,,,,,,,,,,,,,,,,,,,,,,,,,,,,,,,,,,,,,,,,,,,,,,,,,,,,,,,,,997.2537,999.4136,slightly agree,0,2,2,2,1,I try to keep up with the current trends and fashions.,0,1,0,0,,
,,,,,,,,,66828964434e3570607d323d,formal spanish,13 or older,click here to respond,no,2025-07-23_16h36.24.324,empathy_intonation_perc,2024.2.4,Win32,60.24096386,66828964434e3570607d323d,687ed1b7e638a4cbf2f02089,6881475ce9206e3a323c3d0a,,,,,,,,,,,,,4,,,,,,,,,,,,,,,,,,,,,,,,,,,,,,,,,,,,,,,,,,,,,,,,,,,,,,,,,,,,,,,,,,,,,,,,,,,,,,,999.4204,1004.5094,slightly disagree,0,3,3,3,1,"I find it difficult to explain to others things that I understand easily,   when they don't understand it first time.",1,0,0,1,,
,,,,,,,,,66828964434e3570607d323d,formal spanish,13 or older,click here to respond,no,2025-07-23_16h36.24.324,empathy_intonation_perc,2024.2.4,Win32,60.24096386,66828964434e3570607d323d,687ed1b7e638a4cbf2f02089,6881475ce9206e3a323c3d0a,,,,,,,,,,,,,5,,,,,,,,,,,,,,,,,,,,,,,,,,,,,,,,,,,,,,,,,,,,,,,,,,,,,,,,,,,,,,,,,,,,,,,,,,,,,,,1004.5122,1008.094,strongly agree,0,4,4,4,1,I dream most nights.,0,1,0,0,,
,,,,,,,,,66828964434e3570607d323d,formal spanish,13 or older,click here to respond,no,2025-07-23_16h36.24.324,empathy_intonation_perc,2024.2.4,Win32,60.24096386,66828964434e3570607d323d,687ed1b7e638a4cbf2f02089,6881475ce9206e3a323c3d0a,,,,,,,,,,,,,6,,,,,,,,,,,,,,,,,,,,,,,,,,,,,,,,,,,,,,,,,,,,,,,,,,,,,,,,,,,,,,,,,,,,,,,,,,,,,,,1008.0986,1023.6228,strongly agree,0,5,5,5,1,I really enjoy caring for other people.,1,0,1,0,,
,,,,,,,,,66828964434e3570607d323d,formal spanish,13 or older,click here to respond,no,2025-07-23_16h36.24.324,empathy_intonation_perc,2024.2.4,Win32,60.24096386,66828964434e3570607d323d,687ed1b7e638a4cbf2f02089,6881475ce9206e3a323c3d0a,,,,,,,,,,,,,7,,,,,,,,,,,,,,,,,,,,,,,,,,,,,,,,,,,,,,,,,,,,,,,,,,,,,,,,,,,,,,,,,,,,,,,,,,,,,,,1023.6266,1027.5703,strongly agree,0,6,6,6,1,I try to solve my own problems rather than discussing them with others.,0,1,0,0,,
,,,,,,,,,66828964434e3570607d323d,formal spanish,13 or older,click here to respond,no,2025-07-23_16h36.24.324,empathy_intonation_perc,2024.2.4,Win32,60.24096386,66828964434e3570607d323d,687ed1b7e638a4cbf2f02089,6881475ce9206e3a323c3d0a,,,,,,,,,,,,,8,,,,,,,,,,,,,,,,,,,,,,,,,,,,,,,,,,,,,,,,,,,,,,,,,,,,,,,,,,,,,,,,,,,,,,,,,,,,,,,1027.5741,1047.4187,slightly agree,0,7,7,7,1,I find it hard to know what to do in a social situation.,1,0,0,1,,
,,,,,,,,,66828964434e3570607d323d,formal spanish,13 or older,click here to respond,no,2025-07-23_16h36.24.324,empathy_intonation_perc,2024.2.4,Win32,60.24096386,66828964434e3570607d323d,687ed1b7e638a4cbf2f02089,6881475ce9206e3a323c3d0a,,,,,,,,,,,,,9,,,,,,,,,,,,,,,,,,,,,,,,,,,,,,,,,,,,,,,,,,,,,,,,,,,,,,,,,,,,,,,,,,,,,,,,,,,,,,,1047.4231,1081.5619,slightly disagree,0,8,8,8,1,I am at my best first thing in the morning.,0,1,0,0,,
,,,,,,,,,66828964434e3570607d323d,formal spanish,13 or older,click here to respond,no,2025-07-23_16h36.24.324,empathy_intonation_perc,2024.2.4,Win32,60.24096386,66828964434e3570607d323d,687ed1b7e638a4cbf2f02089,6881475ce9206e3a323c3d0a,,,,,,,,,,,,,10,,,,,,,,,,,,,,,,,,,,,,,,,,,,,,,,,,,,,,,,,,,,,,,,,,,,,,,,,,,,,,,,,,,,,,,,,,,,,,,1081.5675,1090.6601,slightly disagree,0,9,9,9,1,People often tell me that I went too far in driving my point home in a discussion.,1,0,0,1,,
