instructions_exposure.started,instructions_exposure.stopped,instructions_exposure_loop.thisRepN,instructions_exposure_loop.thisTrialN,instructions_exposure_loop.thisN,instructions_exposure_loop.thisIndex,instructions_exposure_loop.ran,instructions_text,continue_text,participant_id,"What variety of Spanish are you most familiar with? (e.g., Peruvian, Spanish, Mexican)",At what age did you begin learning Spanish?,Are you proficient in any languages other than English/Spanish?,"Are you familiar with Caribbean (e.g., Caribbean, Puerto Rican) or Galician Spanish?",date,expName,psychopyVersion,OS,frameRate,id,study_id,session,trial_exposure.started,trial_exposure.stopped,key_resp_exposure.keys,key_resp_exposure.corr,key_resp_exposure.rt,key_resp_exposure.duration,key_resp.keys,exposure_loop.thisRepN,exposure_loop.thisTrialN,exposure_loop.thisN,exposure_loop.thisIndex,exposure_loop.ran,item_num,correct_response,question,path,duration,instructions_2afc.started,instructions_2afc.stopped,instructions_2afc_loop.thisRepN,instructions_2afc_loop.thisTrialN,instructions_2afc_loop.thisN,instructions_2afc_loop.thisIndex,instructions_2afc_loop.ran,practice_2afc.started,practice_2afc.stopped,key_resp_2afc_practice.keys,key_resp_2afc_practice.corr,key_resp_2afc_practice.rt,key_resp_2afc_practice.duration,trials_2afc_practice_loop.thisRepN,trials_2afc_practice_loop.thisTrialN,trials_2afc_practice_loop.thisN,trials_2afc_practice_loop.thisIndex,trials_2afc_practice_loop.ran,check_2afc.started,check_2afc.stopped,trial_2afc.started,trial_2afc.stopped,key_resp_2afc_trial.keys,key_resp_2afc_trial.corr,key_resp_2afc_trial.rt,key_resp_2afc_trial.duration,trials_2afc_loop.thisRepN,trials_2afc_loop.thisTrialN,trials_2afc_loop.thisN,trials_2afc_loop.thisIndex,trials_2afc_loop.ran,target,variety,instructions_lextale.started,instructions_lextale.stopped,instructions_lextale_loop.thisRepN,instructions_lextale_loop.thisTrialN,instructions_lextale_loop.thisN,instructions_lextale_loop.thisIndex,instructions_lextale_loop.ran,practice_lextale.started,practice_lextale.stopped,key_resp_lextale_practice.keys,key_resp_lextale_practice.corr,key_resp_lextale_practice.rt,key_resp_lextale_practice.duration,practice_feedback_lextale.started,practice_feedback_lextale.stopped,trials_lextale_practice_loop.thisRepN,trials_lextale_practice_loop.thisTrialN,trials_lextale_practice_loop.thisN,trials_lextale_practice_loop.thisIndex,trials_lextale_practice_loop.ran,stim,word,prac_button_real,prac_button_false,check_lextale.started,check_lextale.stopped,trial_lextale.started,trial_lextale.stopped,key_resp_lextale_trial.keys,key_resp_lextale_trial.corr,key_resp_lextale_trial.rt,key_resp_lextale_trial.duration,trials_lextale_loop.thisRepN,trials_lextale_loop.thisTrialN,trials_lextale_loop.thisN,trials_lextale_loop.thisIndex,trials_lextale_loop.ran,button_real,button_false,instructions_eq.started,instructions_eq.stopped,trial_eq.started,trial_eq.stopped,slider_eq_trial.response,trials_eq_loop.thisRepN,trials_eq_loop.thisTrialN,trials_eq_loop.thisN,trials_eq_loop.thisIndex,trials_eq_loop.ran,item,is_test_item,is_distractor,is_agree_score,is_disagree_score,end_exp.started,end_exp.stopped
0.0347,4.4152,0,0,0,0,1,"In the following task, you are going to hear a series of conversations.", (press the space bar to continue),66831d05b00b3aa4c64b976c,spanish,13 or older,"no, only English or Spanish",no,2025-08-12_14h48.09.132,empathy_intonation_perc,2024.2.4,Win32,58.82352941,66831d05b00b3aa4c64b976c,687ed1b7e638a4cbf2f02089,689b8c26c5d840382fc36246,,,,,,,,,,,,,,,,,,,,,,,,,,,,,,,,,,,,,,,,,,,,,,,,,,,,,,,,,,,,,,,,,,,,,,,,,,,,,,,,,,,,,,,,,,,,,,,,,,,,,,,,,,
4.4175,7.4005,0,1,1,1,1,It is okay if you don't not 100% understand them!, (press the space bar to continue),66831d05b00b3aa4c64b976c,spanish,13 or older,"no, only English or Spanish",no,2025-08-12_14h48.09.132,empathy_intonation_perc,2024.2.4,Win32,58.82352941,66831d05b00b3aa4c64b976c,687ed1b7e638a4cbf2f02089,689b8c26c5d840382fc36246,,,,,,,,,,,,,,,,,,,,,,,,,,,,,,,,,,,,,,,,,,,,,,,,,,,,,,,,,,,,,,,,,,,,,,,,,,,,,,,,,,,,,,,,,,,,,,,,,,,,,,,,,,
7.4033,11.0861,0,2,2,2,1,"After, you will read a sentence about the conversation and decide if it's true or false.", (press the space bar to continue),66831d05b00b3aa4c64b976c,spanish,13 or older,"no, only English or Spanish",no,2025-08-12_14h48.09.132,empathy_intonation_perc,2024.2.4,Win32,58.82352941,66831d05b00b3aa4c64b976c,687ed1b7e638a4cbf2f02089,689b8c26c5d840382fc36246,,,,,,,,,,,,,,,,,,,,,,,,,,,,,,,,,,,,,,,,,,,,,,,,,,,,,,,,,,,,,,,,,,,,,,,,,,,,,,,,,,,,,,,,,,,,,,,,,,,,,,,,,,
11.0924,13.0068,0,3,3,3,1,"If it's true, press '1' (True) and if it's false press '0' (False).", (press the space bar to continue),66831d05b00b3aa4c64b976c,spanish,13 or older,"no, only English or Spanish",no,2025-08-12_14h48.09.132,empathy_intonation_perc,2024.2.4,Win32,58.82352941,66831d05b00b3aa4c64b976c,687ed1b7e638a4cbf2f02089,689b8c26c5d840382fc36246,,,,,,,,,,,,,,,,,,,,,,,,,,,,,,,,,,,,,,,,,,,,,,,,,,,,,,,,,,,,,,,,,,,,,,,,,,,,,,,,,,,,,,,,,,,,,,,,,,,,,,,,,,
,,,,,,,,,66831d05b00b3aa4c64b976c,spanish,13 or older,"no, only English or Spanish",no,2025-08-12_14h48.09.132,empathy_intonation_perc,2024.2.4,Win32,58.82352941,66831d05b00b3aa4c64b976c,687ed1b7e638a4cbf2f02089,689b8c26c5d840382fc36246,13.0406,61.2483,1,0,12.1588,,,0,0,0,2,1,3,0,The mom already has rice.,./stim/exposure_wavs/pr_stimuli_convo.wav,36,,,,,,,,,,,,,,,,,,,,,,,,,,,,,,,,,,,,,,,,,,,,,,,,,,,,,,,,,,,,,,,,,,,,,,,,,,,,,,,,,,,,,,,,,
,,,,,,,,,66831d05b00b3aa4c64b976c,spanish,13 or older,"no, only English or Spanish",no,2025-08-12_14h48.09.132,empathy_intonation_perc,2024.2.4,Win32,58.82352941,66831d05b00b3aa4c64b976c,687ed1b7e638a4cbf2f02089,689b8c26c5d840382fc36246,61.2529,128.735,1,1,7.4508,,,0,1,1,1,1,2,1,The mom asked the daughter if she already went to the supermarket.,./stim/exposure_wavs/dr_stimuli_convo.wav,60,,,,,,,,,,,,,,,,,,,,,,,,,,,,,,,,,,,,,,,,,,,,,,,,,,,,,,,,,,,,,,,,,,,,,,,,,,,,,,,,,,,,,,,,,
,,,,,,,,,66831d05b00b3aa4c64b976c,spanish,13 or older,"no, only English or Spanish",no,2025-08-12_14h48.09.132,empathy_intonation_perc,2024.2.4,Win32,58.82352941,66831d05b00b3aa4c64b976c,687ed1b7e638a4cbf2f02089,689b8c26c5d840382fc36246,128.7399,191.8696,0,0,16.0955,,,0,2,2,0,1,1,1,The son asked the mom if Aunt Marina is okay.,./stim/exposure_wavs/ga_stimuli_convo.wav,47,,,,,,,,,,,,,,,,,,,,,,,,,,,,,,,,,,,,,,,,,,,,,,,,,,,,,,,,,,,,,,,,,,,,,,,,,,,,,,,,,,,,,,,,,
,,,,,,,"In the following task you are going to hear a series of utterances. 

  You will decide if the utterances sound like questions or not using your keyboard.", (press the spacebar to continue),66831d05b00b3aa4c64b976c,spanish,13 or older,"no, only English or Spanish",no,2025-08-12_14h48.09.132,empathy_intonation_perc,2024.2.4,Win32,58.82352941,66831d05b00b3aa4c64b976c,687ed1b7e638a4cbf2f02089,689b8c26c5d840382fc36246,,,,,,,,,,,,,,,,,,191.8778,195.5334,0,0,0,0,1,,,,,,,,,,,,,,,,,,,,,,,,,,,,,,,,,,,,,,,,,,,,,,,,,,,,,,,,,,,,,,,,,,,,,,,,,,,,,,,,,,
,,,,,,,"If you believe the utterance is a question, type '1' (for 'yes') and if you do not 
  believe it is a question type '0' (for 'no').

  Let's practice a bit...", (press the spacebar to continue),66831d05b00b3aa4c64b976c,spanish,13 or older,"no, only English or Spanish",no,2025-08-12_14h48.09.132,empathy_intonation_perc,2024.2.4,Win32,58.82352941,66831d05b00b3aa4c64b976c,687ed1b7e638a4cbf2f02089,689b8c26c5d840382fc36246,,,,,,,,,,,,,,,,,,195.536,198.2798,0,1,1,1,1,,,,,,,,,,,,,,,,,,,,,,,,,,,,,,,,,,,,,,,,,,,,,,,,,,,,,,,,,,,,,,,,,,,,,,,,,,,,,,,,,,
,,,,,,,,,66831d05b00b3aa4c64b976c,spanish,13 or older,"no, only English or Spanish",no,2025-08-12_14h48.09.132,empathy_intonation_perc,2024.2.4,Win32,58.82352941,66831d05b00b3aa4c64b976c,687ed1b7e638a4cbf2f02089,689b8c26c5d840382fc36246,,,,,,,,,,,,,,0,,./stim/wavs/peruvian_statement_filler_El-nino-habla-con-su-madre.wav,,,,,,,,,198.2894,254.8431,0,1,56.0313,,0,0,0,6,1,,,,,,,,,,,,,,,,,,,,,,,,,,,,,,,,,,,,,,,,,,,,,,,,,,,,,,,,,,,,,,,,,,,,,,,
,,,,,,,,,66831d05b00b3aa4c64b976c,spanish,13 or older,"no, only English or Spanish",no,2025-08-12_14h48.09.132,empathy_intonation_perc,2024.2.4,Win32,58.82352941,66831d05b00b3aa4c64b976c,687ed1b7e638a4cbf2f02089,689b8c26c5d840382fc36246,,,,,,,,,,,,,,0,,./stim/wavs/puertorican_statement_filler_La-nina-pinta-con-su-amiga.wav,,,,,,,,,254.8456,260.0704,1,0,4.6948,,0,1,1,7,1,,,,,,,,,,,,,,,,,,,,,,,,,,,,,,,,,,,,,,,,,,,,,,,,,,,,,,,,,,,,,,,,,,,,,,,
,,,,,,,,,66831d05b00b3aa4c64b976c,spanish,13 or older,"no, only English or Spanish",no,2025-08-12_14h48.09.132,empathy_intonation_perc,2024.2.4,Win32,58.82352941,66831d05b00b3aa4c64b976c,687ed1b7e638a4cbf2f02089,689b8c26c5d840382fc36246,,,,,,,,,,,,,,0,,./stim/wavs/cuban_statement_filler_Cocinabas-por-la-noche.wav,,,,,,,,,260.0715,268.3949,0,1,7.7924,,0,2,2,4,1,,,,,,,,,,,,,,,,,,,,,,,,,,,,,,,,,,,,,,,,,,,,,,,,,,,,,,,,,,,,,,,,,,,,,,,
,,,,,,,,,66831d05b00b3aa4c64b976c,spanish,13 or older,"no, only English or Spanish",no,2025-08-12_14h48.09.132,empathy_intonation_perc,2024.2.4,Win32,58.82352941,66831d05b00b3aa4c64b976c,687ed1b7e638a4cbf2f02089,689b8c26c5d840382fc36246,,,,,,,,,,,,,,0,,./stim/wavs/andalusian_statement_filler_Alberto-nunca-se-afeita.wav,,,,,,,,,268.3962,270.8258,1,0,1.9015,,0,3,3,5,1,,,,,,,,,,,,,,,,,,,,,,,,,,,,,,,,,,,,,,,,,,,,,,,,,,,,,,,,,,,,,,,,,,,,,,,
,,,,,,,,,66831d05b00b3aa4c64b976c,spanish,13 or older,"no, only English or Spanish",no,2025-08-12_14h48.09.132,empathy_intonation_perc,2024.2.4,Win32,58.82352941,66831d05b00b3aa4c64b976c,687ed1b7e638a4cbf2f02089,689b8c26c5d840382fc36246,,,,,,,,,,,,,,1,,./stim/wavs/chilean_question_filler_Mi-padre-cantaba-bien.wav,,,,,,,,,270.8277,272.9762,1,1,1.6237,,0,4,4,2,1,,,,,,,,,,,,,,,,,,,,,,,,,,,,,,,,,,,,,,,,,,,,,,,,,,,,,,,,,,,,,,,,,,,,,,,
,,,,,,,,,66831d05b00b3aa4c64b976c,spanish,13 or older,"no, only English or Spanish",no,2025-08-12_14h48.09.132,empathy_intonation_perc,2024.2.4,Win32,58.82352941,66831d05b00b3aa4c64b976c,687ed1b7e638a4cbf2f02089,689b8c26c5d840382fc36246,,,,,,,,,,,,,,1,,./stim/wavs/mexican_question_filler_Felipe-no-tiene-contrasena.wav,,,,,,,,,272.9769,275.6545,1,1,2.1514,,0,5,5,3,1,,,,,,,,,,,,,,,,,,,,,,,,,,,,,,,,,,,,,,,,,,,,,,,,,,,,,,,,,,,,,,,,,,,,,,,
,,,,,,,,,66831d05b00b3aa4c64b976c,spanish,13 or older,"no, only English or Spanish",no,2025-08-12_14h48.09.132,empathy_intonation_perc,2024.2.4,Win32,58.82352941,66831d05b00b3aa4c64b976c,687ed1b7e638a4cbf2f02089,689b8c26c5d840382fc36246,,,,,,,,,,,,,,1,,./stim/wavs/argentine_question_filler_Mi-vecino-habla-mucho.wav,,,,,,,,,275.6576,278.5195,0,0,2.3338,,0,6,6,1,1,,,,,,,,,,,,,,,,,,,,,,,,,,,,,,,,,,,,,,,,,,,,,,,,,,,,,,,,,,,,,,,,,,,,,,,
,,,,,,,,,66831d05b00b3aa4c64b976c,spanish,13 or older,"no, only English or Spanish",no,2025-08-12_14h48.09.132,empathy_intonation_perc,2024.2.4,Win32,58.82352941,66831d05b00b3aa4c64b976c,687ed1b7e638a4cbf2f02089,689b8c26c5d840382fc36246,,,,,,,,,,,,,,1,,./stim/wavs/castilian_question_filler_Mi-esposo-conoce-al-chico.wav,,,,,,,,,278.5213,282.4837,1,1,3.4366,,0,7,7,0,1,,,,,,,,,,,,,,,,,,,,,,,,,,,,,,,,,,,,,,,,,,,,,,,,,,,,,,,,,,,,,,,,,,,,,,,
,,,,,,,,,66831d05b00b3aa4c64b976c,spanish,13 or older,"no, only English or Spanish",no,2025-08-12_14h48.09.132,empathy_intonation_perc,2024.2.4,Win32,58.82352941,66831d05b00b3aa4c64b976c,687ed1b7e638a4cbf2f02089,689b8c26c5d840382fc36246,,,,,,,,,,,,,,,,,,,,,,,,,,,,,,,,,,,,282.4845,329.3184,,,,,,,,,,,,,,,,,,,,,,,,,,,,,,,,,,,,,,,,,,,,,,,,,,,,,,,,,,,,,,,,,,,,,
,,,,,,,,,66831d05b00b3aa4c64b976c,spanish,13 or older,"no, only English or Spanish",no,2025-08-12_14h48.09.132,empathy_intonation_perc,2024.2.4,Win32,58.82352941,66831d05b00b3aa4c64b976c,687ed1b7e638a4cbf2f02089,689b8c26c5d840382fc36246,,,,,,,,,,,,,65,0,,./stim/wavs/puertorican_match_declarative-broad-focus_David-leia-el-libro.wav,,,,,,,,,,,,,,,,,,,,,,329.3323,405.9625,0,1,76.0972,,0,0,0,64,1,0,puertorican,,,,,,,,,,,,,,,,,,,,,,,,,,,,,,,,,,,,,,,,,,,,,,,,,,,,,,,,
,,,,,,,,,66831d05b00b3aa4c64b976c,spanish,13 or older,"no, only English or Spanish",no,2025-08-12_14h48.09.132,empathy_intonation_perc,2024.2.4,Win32,58.82352941,66831d05b00b3aa4c64b976c,687ed1b7e638a4cbf2f02089,689b8c26c5d840382fc36246,,,,,,,,,,,,,1,1,,./stim/wavs/castilian_match_interrogative-total-yn_David-leia-el-libro.wav,,,,,,,,,,,,,,,,,,,,,,405.9649,410.8562,0,0,4.3622,,0,1,1,0,1,0,castilian,,,,,,,,,,,,,,,,,,,,,,,,,,,,,,,,,,,,,,,,,,,,,,,,,,,,,,,,
,,,,,,,,,66831d05b00b3aa4c64b976c,spanish,13 or older,"no, only English or Spanish",no,2025-08-12_14h48.09.132,empathy_intonation_perc,2024.2.4,Win32,58.82352941,66831d05b00b3aa4c64b976c,687ed1b7e638a4cbf2f02089,689b8c26c5d840382fc36246,,,,,,,,,,,,,66,0,,./stim/wavs/puertorican_match_declarative-broad-focus_Emilio-ama-la-marcha.wav,,,,,,,,,,,,,,,,,,,,,,410.8572,413.5695,0,1,2.186,,0,2,2,65,1,0,puertorican,,,,,,,,,,,,,,,,,,,,,,,,,,,,,,,,,,,,,,,,,,,,,,,,,,,,,,,,
,,,,,,,,,66831d05b00b3aa4c64b976c,spanish,13 or older,"no, only English or Spanish",no,2025-08-12_14h48.09.132,empathy_intonation_perc,2024.2.4,Win32,58.82352941,66831d05b00b3aa4c64b976c,687ed1b7e638a4cbf2f02089,689b8c26c5d840382fc36246,,,,,,,,,,,,,26,1,,./stim/wavs/castilian_mismatch_interrogative-total-yn_La-nina-lava-el-plato.wav,,,,,,,,,,,,,,,,,,,,,,413.5717,415.9677,1,1,1.8658,,0,3,3,25,1,0,castilian,,,,,,,,,,,,,,,,,,,,,,,,,,,,,,,,,,,,,,,,,,,,,,,,,,,,,,,,
,,,,,,,,,66831d05b00b3aa4c64b976c,spanish,13 or older,"no, only English or Spanish",no,2025-08-12_14h48.09.132,empathy_intonation_perc,2024.2.4,Win32,58.82352941,66831d05b00b3aa4c64b976c,687ed1b7e638a4cbf2f02089,689b8c26c5d840382fc36246,,,,,,,,,,,,,85,0,,./stim/wavs/puertorican_mismatch_declarative-broad-focus_El-hombre-mira-la-luna.wav,,,,,,,,,,,,,,,,,,,,,,415.9699,420.9649,0,1,4.4677,,0,4,4,84,1,0,puertorican,,,,,,,,,,,,,,,,,,,,,,,,,,,,,,,,,,,,,,,,,,,,,,,,,,,,,,,,
,,,,,,,,,66831d05b00b3aa4c64b976c,spanish,13 or older,"no, only English or Spanish",no,2025-08-12_14h48.09.132,empathy_intonation_perc,2024.2.4,Win32,58.82352941,66831d05b00b3aa4c64b976c,687ed1b7e638a4cbf2f02089,689b8c26c5d840382fc36246,,,,,,,,,,,,,70,0,,./stim/wavs/castilian_mismatch_declarative-broad-focus_La-maestra-vive-en-Paris.wav,,,,,,,,,,,,,,,,,,,,,,420.9678,423.4711,0,1,1.9824,,0,5,5,69,1,0,castilian,,,,,,,,,,,,,,,,,,,,,,,,,,,,,,,,,,,,,,,,,,,,,,,,,,,,,,,,
,,,,,,,,,66831d05b00b3aa4c64b976c,spanish,13 or older,"no, only English or Spanish",no,2025-08-12_14h48.09.132,empathy_intonation_perc,2024.2.4,Win32,58.82352941,66831d05b00b3aa4c64b976c,687ed1b7e638a4cbf2f02089,689b8c26c5d840382fc36246,,,,,,,,,,,,,36,1,,./stim/wavs/mexican_mismatch_interrogative-total-yn_El-nino-oye-el-rio.wav,,,,,,,,,,,,,,,,,,,,,,423.4731,425.4698,1,1,1.4668,,0,6,6,35,1,0,mexican,,,,,,,,,,,,,,,,,,,,,,,,,,,,,,,,,,,,,,,,,,,,,,,,,,,,,,,,
,,,,,,,,,66831d05b00b3aa4c64b976c,spanish,13 or older,"no, only English or Spanish",no,2025-08-12_14h48.09.132,empathy_intonation_perc,2024.2.4,Win32,58.82352941,66831d05b00b3aa4c64b976c,687ed1b7e638a4cbf2f02089,689b8c26c5d840382fc36246,,,,,,,,,,,,,19,1,,./stim/wavs/puertorican_match_interrogative-total-yn_Ana-lleva-el-abrigo.wav,,,,,,,,,,,,,,,,,,,,,,425.4712,427.6174,1,1,1.6154,,0,7,7,18,1,1,puertorican,,,,,,,,,,,,,,,,,,,,,,,,,,,,,,,,,,,,,,,,,,,,,,,,,,,,,,,,
,,,,,,,,,66831d05b00b3aa4c64b976c,spanish,13 or older,"no, only English or Spanish",no,2025-08-12_14h48.09.132,empathy_intonation_perc,2024.2.4,Win32,58.82352941,66831d05b00b3aa4c64b976c,687ed1b7e638a4cbf2f02089,689b8c26c5d840382fc36246,,,,,,,,,,,,,39,1,,./stim/wavs/mexican_mismatch_interrogative-total-yn_Mi-tia-odia-la-lluvia.wav,,,,,,,,,,,,,,,,,,,,,,427.6197,430.3488,1,1,2.1994,,0,8,8,38,1,0,mexican,,,,,,,,,,,,,,,,,,,,,,,,,,,,,,,,,,,,,,,,,,,,,,,,,,,,,,,,
,,,,,,,,,66831d05b00b3aa4c64b976c,spanish,13 or older,"no, only English or Spanish",no,2025-08-12_14h48.09.132,empathy_intonation_perc,2024.2.4,Win32,58.82352941,66831d05b00b3aa4c64b976c,687ed1b7e638a4cbf2f02089,689b8c26c5d840382fc36246,,,,,,,,,,,,,13,1,,./stim/wavs/mexican_match_interrogative-total-yn_Ana-lleva-el-abrigo.wav,,,,,,,,,,,,,,,,,,,,,,430.3505,433.6139,1,1,2.7342,,0,9,9,12,1,0,mexican,,,,,,,,,,,,,,,,,,,,,,,,,,,,,,,,,,,,,,,,,,,,,,,,,,,,,,,,
,,,,,,,,,66831d05b00b3aa4c64b976c,spanish,13 or older,"no, only English or Spanish",no,2025-08-12_14h48.09.132,empathy_intonation_perc,2024.2.4,Win32,58.82352941,66831d05b00b3aa4c64b976c,687ed1b7e638a4cbf2f02089,689b8c26c5d840382fc36246,,,,,,,,,,,,,34,1,,./stim/wavs/cuban_mismatch_interrogative-total-yn_Mi-tia-odia-la-lluvia.wav,,,,,,,,,,,,,,,,,,,,,,433.6173,435.7874,0,0,1.6438,,0,10,10,33,1,1,cuban,,,,,,,,,,,,,,,,,,,,,,,,,,,,,,,,,,,,,,,,,,,,,,,,,,,,,,,,
,,,,,,,,,66831d05b00b3aa4c64b976c,spanish,13 or older,"no, only English or Spanish",no,2025-08-12_14h48.09.132,empathy_intonation_perc,2024.2.4,Win32,58.82352941,66831d05b00b3aa4c64b976c,687ed1b7e638a4cbf2f02089,689b8c26c5d840382fc36246,,,,,,,,,,,,,10,1,,./stim/wavs/cuban_match_interrogative-total-yn_Maria-bebe-el-vino.wav,,,,,,,,,,,,,,,,,,,,,,435.7895,437.967,1,1,1.6409,,0,11,11,9,1,1,cuban,,,,,,,,,,,,,,,,,,,,,,,,,,,,,,,,,,,,,,,,,,,,,,,,,,,,,,,,
,,,,,,,,,66831d05b00b3aa4c64b976c,spanish,13 or older,"no, only English or Spanish",no,2025-08-12_14h48.09.132,empathy_intonation_perc,2024.2.4,Win32,58.82352941,66831d05b00b3aa4c64b976c,687ed1b7e638a4cbf2f02089,689b8c26c5d840382fc36246,,,,,,,,,,,,,11,1,,./stim/wavs/cuban_match_interrogative-total-yn_Mariano-habla-del-tiempo.wav,,,,,,,,,,,,,,,,,,,,,,437.9683,440.0787,0,0,1.5839,,0,12,12,10,1,1,cuban,,,,,,,,,,,,,,,,,,,,,,,,,,,,,,,,,,,,,,,,,,,,,,,,,,,,,,,,
,,,,,,,,,66831d05b00b3aa4c64b976c,spanish,13 or older,"no, only English or Spanish",no,2025-08-12_14h48.09.132,empathy_intonation_perc,2024.2.4,Win32,58.82352941,66831d05b00b3aa4c64b976c,687ed1b7e638a4cbf2f02089,689b8c26c5d840382fc36246,,,,,,,,,,,,,18,1,,./stim/wavs/mexican_match_interrogative-total-yn_Marta-abre-el-regalo.wav,,,,,,,,,,,,,,,,,,,,,,440.08,442.5122,1,1,1.9075,,0,13,13,17,1,0,mexican,,,,,,,,,,,,,,,,,,,,,,,,,,,,,,,,,,,,,,,,,,,,,,,,,,,,,,,,
,,,,,,,,,66831d05b00b3aa4c64b976c,spanish,13 or older,"no, only English or Spanish",no,2025-08-12_14h48.09.132,empathy_intonation_perc,2024.2.4,Win32,58.82352941,66831d05b00b3aa4c64b976c,687ed1b7e638a4cbf2f02089,689b8c26c5d840382fc36246,,,,,,,,,,,,,82,0,,./stim/wavs/mexican_mismatch_declarative-broad-focus_Mi-novio-viene-del-lago.wav,,,,,,,,,,,,,,,,,,,,,,442.5142,444.8084,0,1,1.7619,,0,14,14,81,1,0,mexican,,,,,,,,,,,,,,,,,,,,,,,,,,,,,,,,,,,,,,,,,,,,,,,,,,,,,,,,
,,,,,,,,,66831d05b00b3aa4c64b976c,spanish,13 or older,"no, only English or Spanish",no,2025-08-12_14h48.09.132,empathy_intonation_perc,2024.2.4,Win32,58.82352941,66831d05b00b3aa4c64b976c,687ed1b7e638a4cbf2f02089,689b8c26c5d840382fc36246,,,,,,,,,,,,,37,1,,./stim/wavs/mexican_mismatch_interrogative-total-yn_La-maestra-vive-en-Paris.wav,,,,,,,,,,,,,,,,,,,,,,444.8099,447.256,1,1,1.9161,,0,15,15,36,1,0,mexican,,,,,,,,,,,,,,,,,,,,,,,,,,,,,,,,,,,,,,,,,,,,,,,,,,,,,,,,
,,,,,,,,,66831d05b00b3aa4c64b976c,spanish,13 or older,"no, only English or Spanish",no,2025-08-12_14h48.09.132,empathy_intonation_perc,2024.2.4,Win32,58.82352941,66831d05b00b3aa4c64b976c,687ed1b7e638a4cbf2f02089,689b8c26c5d840382fc36246,,,,,,,,,,,,,61,0,,./stim/wavs/mexican_match_declarative-broad-focus_Mariano-habla-del-tiempo.wav,,,,,,,,,,,,,,,,,,,,,,447.2573,450.1371,1,0,2.3525,,0,16,16,60,1,0,mexican,,,,,,,,,,,,,,,,,,,,,,,,,,,,,,,,,,,,,,,,,,,,,,,,,,,,,,,,
,,,,,,,,,66831d05b00b3aa4c64b976c,spanish,13 or older,"no, only English or Spanish",no,2025-08-12_14h48.09.132,empathy_intonation_perc,2024.2.4,Win32,58.82352941,66831d05b00b3aa4c64b976c,687ed1b7e638a4cbf2f02089,689b8c26c5d840382fc36246,,,,,,,,,,,,,55,0,,./stim/wavs/cuban_match_declarative-broad-focus_Mariano-habla-del-tiempo.wav,,,,,,,,,,,,,,,,,,,,,,450.1382,455.4313,0,1,4.7652,,0,17,17,54,1,0,cuban,,,,,,,,,,,,,,,,,,,,,,,,,,,,,,,,,,,,,,,,,,,,,,,,,,,,,,,,
,,,,,,,,,66831d05b00b3aa4c64b976c,spanish,13 or older,"no, only English or Spanish",no,2025-08-12_14h48.09.132,empathy_intonation_perc,2024.2.4,Win32,58.82352941,66831d05b00b3aa4c64b976c,687ed1b7e638a4cbf2f02089,689b8c26c5d840382fc36246,,,,,,,,,,,,,22,1,,./stim/wavs/puertorican_match_interrogative-total-yn_Emilio-ama-la-marcha.wav,,,,,,,,,,,,,,,,,,,,,,455.4324,457.7955,1,1,1.8321,,0,18,18,21,1,1,puertorican,,,,,,,,,,,,,,,,,,,,,,,,,,,,,,,,,,,,,,,,,,,,,,,,,,,,,,,,
,,,,,,,,,66831d05b00b3aa4c64b976c,spanish,13 or older,"no, only English or Spanish",no,2025-08-12_14h48.09.132,empathy_intonation_perc,2024.2.4,Win32,58.82352941,66831d05b00b3aa4c64b976c,687ed1b7e638a4cbf2f02089,689b8c26c5d840382fc36246,,,,,,,,,,,,,8,1,,./stim/wavs/cuban_match_interrogative-total-yn_Daniel-iba-a-Bolivia.wav,,,,,,,,,,,,,,,,,,,,,,457.7968,460.9796,0,0,2.6597,,0,19,19,7,1,1,cuban,,,,,,,,,,,,,,,,,,,,,,,,,,,,,,,,,,,,,,,,,,,,,,,,,,,,,,,,
,,,,,,,,,66831d05b00b3aa4c64b976c,spanish,13 or older,"no, only English or Spanish",no,2025-08-12_14h48.09.132,empathy_intonation_perc,2024.2.4,Win32,58.82352941,66831d05b00b3aa4c64b976c,687ed1b7e638a4cbf2f02089,689b8c26c5d840382fc36246,,,,,,,,,,,,,3,1,,./stim/wavs/castilian_match_interrogative-total-yn_Manuela-vende-el-carro.wav,,,,,,,,,,,,,,,,,,,,,,460.9812,463.2996,1,1,1.7968,,0,20,20,2,1,0,castilian,,,,,,,,,,,,,,,,,,,,,,,,,,,,,,,,,,,,,,,,,,,,,,,,,,,,,,,,
,,,,,,,,,66831d05b00b3aa4c64b976c,spanish,13 or older,"no, only English or Spanish",no,2025-08-12_14h48.09.132,empathy_intonation_perc,2024.2.4,Win32,58.82352941,66831d05b00b3aa4c64b976c,687ed1b7e638a4cbf2f02089,689b8c26c5d840382fc36246,,,,,,,,,,,,,15,1,,./stim/wavs/mexican_match_interrogative-total-yn_David-leia-el-libro.wav,,,,,,,,,,,,,,,,,,,,,,463.3007,465.3792,1,1,1.5491,,0,21,21,14,1,0,mexican,,,,,,,,,,,,,,,,,,,,,,,,,,,,,,,,,,,,,,,,,,,,,,,,,,,,,,,,
,,,,,,,,,66831d05b00b3aa4c64b976c,spanish,13 or older,"no, only English or Spanish",no,2025-08-12_14h48.09.132,empathy_intonation_perc,2024.2.4,Win32,58.82352941,66831d05b00b3aa4c64b976c,687ed1b7e638a4cbf2f02089,689b8c26c5d840382fc36246,,,,,,,,,,,,,72,0,,./stim/wavs/castilian_mismatch_declarative-broad-focus_Mi-novio-viene-del-lago.wav,,,,,,,,,,,,,,,,,,,,,,465.3803,467.9282,0,1,2.0168,,0,22,22,71,1,0,castilian,,,,,,,,,,,,,,,,,,,,,,,,,,,,,,,,,,,,,,,,,,,,,,,,,,,,,,,,
,,,,,,,,,66831d05b00b3aa4c64b976c,spanish,13 or older,"no, only English or Spanish",no,2025-08-12_14h48.09.132,empathy_intonation_perc,2024.2.4,Win32,58.82352941,66831d05b00b3aa4c64b976c,687ed1b7e638a4cbf2f02089,689b8c26c5d840382fc36246,,,,,,,,,,,,,67,0,,./stim/wavs/puertorican_match_declarative-broad-focus_Manuela-vende-el-carro.wav,,,,,,,,,,,,,,,,,,,,,,467.9292,470.0588,0,1,1.6007,,0,23,23,66,1,0,puertorican,,,,,,,,,,,,,,,,,,,,,,,,,,,,,,,,,,,,,,,,,,,,,,,,,,,,,,,,
,,,,,,,,,66831d05b00b3aa4c64b976c,spanish,13 or older,"no, only English or Spanish",no,2025-08-12_14h48.09.132,empathy_intonation_perc,2024.2.4,Win32,58.82352941,66831d05b00b3aa4c64b976c,687ed1b7e638a4cbf2f02089,689b8c26c5d840382fc36246,,,,,,,,,,,,,71,0,,./stim/wavs/castilian_mismatch_declarative-broad-focus_La-nina-lava-el-plato.wav,,,,,,,,,,,,,,,,,,,,,,470.0599,472.3087,0,1,1.7188,,0,24,24,70,1,0,castilian,,,,,,,,,,,,,,,,,,,,,,,,,,,,,,,,,,,,,,,,,,,,,,,,,,,,,,,,
,,,,,,,,,66831d05b00b3aa4c64b976c,spanish,13 or older,"no, only English or Spanish",no,2025-08-12_14h48.09.132,empathy_intonation_perc,2024.2.4,Win32,58.82352941,66831d05b00b3aa4c64b976c,687ed1b7e638a4cbf2f02089,689b8c26c5d840382fc36246,,,,,,,,,,,,,48,0,,./stim/wavs/castilian_match_declarative-broad-focus_Maria-bebe-el-vino.wav,,,,,,,,,,,,,,,,,,,,,,472.3099,474.6205,0,1,1.7824,,0,25,25,47,1,0,castilian,,,,,,,,,,,,,,,,,,,,,,,,,,,,,,,,,,,,,,,,,,,,,,,,,,,,,,,,
,,,,,,,,,66831d05b00b3aa4c64b976c,spanish,13 or older,"no, only English or Spanish",no,2025-08-12_14h48.09.132,empathy_intonation_perc,2024.2.4,Win32,58.82352941,66831d05b00b3aa4c64b976c,687ed1b7e638a4cbf2f02089,689b8c26c5d840382fc36246,,,,,,,,,,,,,81,0,,./stim/wavs/mexican_mismatch_declarative-broad-focus_La-maestra-vive-en-Paris.wav,,,,,,,,,,,,,,,,,,,,,,474.6215,476.9187,0,1,1.7664,,0,26,26,80,1,0,mexican,,,,,,,,,,,,,,,,,,,,,,,,,,,,,,,,,,,,,,,,,,,,,,,,,,,,,,,,
,,,,,,,,,66831d05b00b3aa4c64b976c,spanish,13 or older,"no, only English or Spanish",no,2025-08-12_14h48.09.132,empathy_intonation_perc,2024.2.4,Win32,58.82352941,66831d05b00b3aa4c64b976c,687ed1b7e638a4cbf2f02089,689b8c26c5d840382fc36246,,,,,,,,,,,,,28,1,,./stim/wavs/castilian_mismatch_interrogative-total-yn_Mi-novio-viene-del-lago.wav,,,,,,,,,,,,,,,,,,,,,,476.9196,479.6497,1,1,2.2003,,0,27,27,27,1,0,castilian,,,,,,,,,,,,,,,,,,,,,,,,,,,,,,,,,,,,,,,,,,,,,,,,,,,,,,,,
,,,,,,,,,66831d05b00b3aa4c64b976c,spanish,13 or older,"no, only English or Spanish",no,2025-08-12_14h48.09.132,empathy_intonation_perc,2024.2.4,Win32,58.82352941,66831d05b00b3aa4c64b976c,687ed1b7e638a4cbf2f02089,689b8c26c5d840382fc36246,,,,,,,,,,,,,87,0,,./stim/wavs/puertorican_mismatch_declarative-broad-focus_La-maestra-vive-en-Paris.wav,,,,,,,,,,,,,,,,,,,,,,479.6509,481.9807,0,1,1.7991,,0,28,28,86,1,0,puertorican,,,,,,,,,,,,,,,,,,,,,,,,,,,,,,,,,,,,,,,,,,,,,,,,,,,,,,,,
,,,,,,,,,66831d05b00b3aa4c64b976c,spanish,13 or older,"no, only English or Spanish",no,2025-08-12_14h48.09.132,empathy_intonation_perc,2024.2.4,Win32,58.82352941,66831d05b00b3aa4c64b976c,687ed1b7e638a4cbf2f02089,689b8c26c5d840382fc36246,,,,,,,,,,,,,57,0,,./stim/wavs/mexican_match_declarative-broad-focus_Ana-lleva-el-abrigo.wav,,,,,,,,,,,,,,,,,,,,,,481.9823,484.0598,0,1,1.5476,,0,29,29,56,1,0,mexican,,,,,,,,,,,,,,,,,,,,,,,,,,,,,,,,,,,,,,,,,,,,,,,,,,,,,,,,
,,,,,,,,,66831d05b00b3aa4c64b976c,spanish,13 or older,"no, only English or Spanish",no,2025-08-12_14h48.09.132,empathy_intonation_perc,2024.2.4,Win32,58.82352941,66831d05b00b3aa4c64b976c,687ed1b7e638a4cbf2f02089,689b8c26c5d840382fc36246,,,,,,,,,,,,,76,0,,./stim/wavs/cuban_mismatch_declarative-broad-focus_La-nina-lava-el-plato.wav,,,,,,,,,,,,,,,,,,,,,,484.0611,486.5085,0,1,1.9158,,0,30,30,75,1,0,cuban,,,,,,,,,,,,,,,,,,,,,,,,,,,,,,,,,,,,,,,,,,,,,,,,,,,,,,,,
,,,,,,,,,66831d05b00b3aa4c64b976c,spanish,13 or older,"no, only English or Spanish",no,2025-08-12_14h48.09.132,empathy_intonation_perc,2024.2.4,Win32,58.82352941,66831d05b00b3aa4c64b976c,687ed1b7e638a4cbf2f02089,689b8c26c5d840382fc36246,,,,,,,,,,,,,30,1,,./stim/wavs/cuban_mismatch_interrogative-total-yn_El-hombre-mira-la-luna.wav,,,,,,,,,,,,,,,,,,,,,,486.51,488.6735,1,1,1.6327,,0,31,31,29,1,1,cuban,,,,,,,,,,,,,,,,,,,,,,,,,,,,,,,,,,,,,,,,,,,,,,,,,,,,,,,,
,,,,,,,,,66831d05b00b3aa4c64b976c,spanish,13 or older,"no, only English or Spanish",no,2025-08-12_14h48.09.132,empathy_intonation_perc,2024.2.4,Win32,58.82352941,66831d05b00b3aa4c64b976c,687ed1b7e638a4cbf2f02089,689b8c26c5d840382fc36246,,,,,,,,,,,,,17,1,,./stim/wavs/mexican_match_interrogative-total-yn_Mariano-habla-del-tiempo.wav,,,,,,,,,,,,,,,,,,,,,,488.6751,491.3573,1,1,2.153,,0,32,32,16,1,0,mexican,,,,,,,,,,,,,,,,,,,,,,,,,,,,,,,,,,,,,,,,,,,,,,,,,,,,,,,,
,,,,,,,,,66831d05b00b3aa4c64b976c,spanish,13 or older,"no, only English or Spanish",no,2025-08-12_14h48.09.132,empathy_intonation_perc,2024.2.4,Win32,58.82352941,66831d05b00b3aa4c64b976c,687ed1b7e638a4cbf2f02089,689b8c26c5d840382fc36246,,,,,,,,,,,,,6,1,,./stim/wavs/castilian_match_interrogative-total-yn_Marta-abre-el-regalo.wav,,,,,,,,,,,,,,,,,,,,,,491.3585,493.5812,1,1,1.6958,,0,33,33,5,1,0,castilian,,,,,,,,,,,,,,,,,,,,,,,,,,,,,,,,,,,,,,,,,,,,,,,,,,,,,,,,
,,,,,,,,,66831d05b00b3aa4c64b976c,spanish,13 or older,"no, only English or Spanish",no,2025-08-12_14h48.09.132,empathy_intonation_perc,2024.2.4,Win32,58.82352941,66831d05b00b3aa4c64b976c,687ed1b7e638a4cbf2f02089,689b8c26c5d840382fc36246,,,,,,,,,,,,,62,0,,./stim/wavs/mexican_match_declarative-broad-focus_Marta-abre-el-regalo.wav,,,,,,,,,,,,,,,,,,,,,,493.583,495.5827,0,1,1.4678,,0,34,34,61,1,0,mexican,,,,,,,,,,,,,,,,,,,,,,,,,,,,,,,,,,,,,,,,,,,,,,,,,,,,,,,,
,,,,,,,,,66831d05b00b3aa4c64b976c,spanish,13 or older,"no, only English or Spanish",no,2025-08-12_14h48.09.132,empathy_intonation_perc,2024.2.4,Win32,58.82352941,66831d05b00b3aa4c64b976c,687ed1b7e638a4cbf2f02089,689b8c26c5d840382fc36246,,,,,,,,,,,,,69,0,,./stim/wavs/castilian_mismatch_declarative-broad-focus_El-nino-oye-el-rio.wav,,,,,,,,,,,,,,,,,,,,,,495.5842,498.1214,0,1,2.0069,,0,35,35,68,1,0,castilian,,,,,,,,,,,,,,,,,,,,,,,,,,,,,,,,,,,,,,,,,,,,,,,,,,,,,,,,
,,,,,,,,,66831d05b00b3aa4c64b976c,spanish,13 or older,"no, only English or Spanish",no,2025-08-12_14h48.09.132,empathy_intonation_perc,2024.2.4,Win32,58.82352941,66831d05b00b3aa4c64b976c,687ed1b7e638a4cbf2f02089,689b8c26c5d840382fc36246,,,,,,,,,,,,,12,1,,./stim/wavs/cuban_match_interrogative-total-yn_Marta-abre-el-regalo.wav,,,,,,,,,,,,,,,,,,,,,,498.1231,500.4466,0,0,1.7991,,0,36,36,11,1,1,cuban,,,,,,,,,,,,,,,,,,,,,,,,,,,,,,,,,,,,,,,,,,,,,,,,,,,,,,,,
,,,,,,,,,66831d05b00b3aa4c64b976c,spanish,13 or older,"no, only English or Spanish",no,2025-08-12_14h48.09.132,empathy_intonation_perc,2024.2.4,Win32,58.82352941,66831d05b00b3aa4c64b976c,687ed1b7e638a4cbf2f02089,689b8c26c5d840382fc36246,,,,,,,,,,,,,56,0,,./stim/wavs/cuban_match_declarative-broad-focus_Marta-abre-el-regalo.wav,,,,,,,,,,,,,,,,,,,,,,500.4476,502.7691,1,0,1.7926,,0,37,37,55,1,0,cuban,,,,,,,,,,,,,,,,,,,,,,,,,,,,,,,,,,,,,,,,,,,,,,,,,,,,,,,,
,,,,,,,,,66831d05b00b3aa4c64b976c,spanish,13 or older,"no, only English or Spanish",no,2025-08-12_14h48.09.132,empathy_intonation_perc,2024.2.4,Win32,58.82352941,66831d05b00b3aa4c64b976c,687ed1b7e638a4cbf2f02089,689b8c26c5d840382fc36246,,,,,,,,,,,,,46,0,,./stim/wavs/castilian_match_declarative-broad-focus_Emilio-ama-la-marcha.wav,,,,,,,,,,,,,,,,,,,,,,502.7703,505.2068,0,1,1.8989,,0,38,38,45,1,0,castilian,,,,,,,,,,,,,,,,,,,,,,,,,,,,,,,,,,,,,,,,,,,,,,,,,,,,,,,,
,,,,,,,,,66831d05b00b3aa4c64b976c,spanish,13 or older,"no, only English or Spanish",no,2025-08-12_14h48.09.132,empathy_intonation_perc,2024.2.4,Win32,58.82352941,66831d05b00b3aa4c64b976c,687ed1b7e638a4cbf2f02089,689b8c26c5d840382fc36246,,,,,,,,,,,,,9,1,,./stim/wavs/cuban_match_interrogative-total-yn_Manuela-vende-el-carro.wav,,,,,,,,,,,,,,,,,,,,,,505.2088,507.3119,0,0,1.5724,,0,39,39,8,1,1,cuban,,,,,,,,,,,,,,,,,,,,,,,,,,,,,,,,,,,,,,,,,,,,,,,,,,,,,,,,
,,,,,,,,,66831d05b00b3aa4c64b976c,spanish,13 or older,"no, only English or Spanish",no,2025-08-12_14h48.09.132,empathy_intonation_perc,2024.2.4,Win32,58.82352941,66831d05b00b3aa4c64b976c,687ed1b7e638a4cbf2f02089,689b8c26c5d840382fc36246,,,,,,,,,,,,,38,1,,./stim/wavs/mexican_mismatch_interrogative-total-yn_Mi-novio-viene-del-lago.wav,,,,,,,,,,,,,,,,,,,,,,507.3139,509.6182,1,1,1.7835,,0,40,40,37,1,0,mexican,,,,,,,,,,,,,,,,,,,,,,,,,,,,,,,,,,,,,,,,,,,,,,,,,,,,,,,,
,,,,,,,,,66831d05b00b3aa4c64b976c,spanish,13 or older,"no, only English or Spanish",no,2025-08-12_14h48.09.132,empathy_intonation_perc,2024.2.4,Win32,58.82352941,66831d05b00b3aa4c64b976c,687ed1b7e638a4cbf2f02089,689b8c26c5d840382fc36246,,,,,,,,,,,,,58,0,,./stim/wavs/mexican_match_declarative-broad-focus_Daniel-iba-a-Bolivia.wav,,,,,,,,,,,,,,,,,,,,,,509.6198,511.6838,0,1,1.5324,,0,41,41,57,1,0,mexican,,,,,,,,,,,,,,,,,,,,,,,,,,,,,,,,,,,,,,,,,,,,,,,,,,,,,,,,
,,,,,,,,,66831d05b00b3aa4c64b976c,spanish,13 or older,"no, only English or Spanish",no,2025-08-12_14h48.09.132,empathy_intonation_perc,2024.2.4,Win32,58.82352941,66831d05b00b3aa4c64b976c,687ed1b7e638a4cbf2f02089,689b8c26c5d840382fc36246,,,,,,,,,,,,,50,0,,./stim/wavs/castilian_match_declarative-broad-focus_Marta-abre-el-regalo.wav,,,,,,,,,,,,,,,,,,,,,,511.6858,514.8143,0,1,2.5988,,0,42,42,49,1,0,castilian,,,,,,,,,,,,,,,,,,,,,,,,,,,,,,,,,,,,,,,,,,,,,,,,,,,,,,,,
,,,,,,,,,66831d05b00b3aa4c64b976c,spanish,13 or older,"no, only English or Spanish",no,2025-08-12_14h48.09.132,empathy_intonation_perc,2024.2.4,Win32,58.82352941,66831d05b00b3aa4c64b976c,687ed1b7e638a4cbf2f02089,689b8c26c5d840382fc36246,,,,,,,,,,,,,24,1,,./stim/wavs/puertorican_match_interrogative-total-yn_Maria-bebe-el-vino.wav,,,,,,,,,,,,,,,,,,,,,,514.8155,517.6147,1,1,2.2694,,0,43,43,23,1,1,puertorican,,,,,,,,,,,,,,,,,,,,,,,,,,,,,,,,,,,,,,,,,,,,,,,,,,,,,,,,
,,,,,,,,,66831d05b00b3aa4c64b976c,spanish,13 or older,"no, only English or Spanish",no,2025-08-12_14h48.09.132,empathy_intonation_perc,2024.2.4,Win32,58.82352941,66831d05b00b3aa4c64b976c,687ed1b7e638a4cbf2f02089,689b8c26c5d840382fc36246,,,,,,,,,,,,,73,0,,./stim/wavs/castilian_mismatch_declarative-broad-focus_Mi-tia-odia-la-lluvia.wav,,,,,,,,,,,,,,,,,,,,,,517.6166,520.0258,0,1,1.8831,,0,44,44,72,1,0,castilian,,,,,,,,,,,,,,,,,,,,,,,,,,,,,,,,,,,,,,,,,,,,,,,,,,,,,,,,
,,,,,,,,,66831d05b00b3aa4c64b976c,spanish,13 or older,"no, only English or Spanish",no,2025-08-12_14h48.09.132,empathy_intonation_perc,2024.2.4,Win32,58.82352941,66831d05b00b3aa4c64b976c,687ed1b7e638a4cbf2f02089,689b8c26c5d840382fc36246,,,,,,,,,,,,,43,1,,./stim/wavs/puertorican_mismatch_interrogative-total-yn_La-nina-lava-el-plato.wav,,,,,,,,,,,,,,,,,,,,,,520.0277,522.257,0,0,1.699,,0,45,45,42,1,1,puertorican,,,,,,,,,,,,,,,,,,,,,,,,,,,,,,,,,,,,,,,,,,,,,,,,,,,,,,,,
,,,,,,,,,66831d05b00b3aa4c64b976c,spanish,13 or older,"no, only English or Spanish",no,2025-08-12_14h48.09.132,empathy_intonation_perc,2024.2.4,Win32,58.82352941,66831d05b00b3aa4c64b976c,687ed1b7e638a4cbf2f02089,689b8c26c5d840382fc36246,,,,,,,,,,,,,74,0,,./stim/wavs/cuban_mismatch_declarative-broad-focus_El-bebe-comia-muy-bien.wav,,,,,,,,,,,,,,,,,,,,,,522.2587,524.9005,0,1,2.1153,,0,46,46,73,1,0,cuban,,,,,,,,,,,,,,,,,,,,,,,,,,,,,,,,,,,,,,,,,,,,,,,,,,,,,,,,
,,,,,,,,,66831d05b00b3aa4c64b976c,spanish,13 or older,"no, only English or Spanish",no,2025-08-12_14h48.09.132,empathy_intonation_perc,2024.2.4,Win32,58.82352941,66831d05b00b3aa4c64b976c,687ed1b7e638a4cbf2f02089,689b8c26c5d840382fc36246,,,,,,,,,,,,,29,1,,./stim/wavs/castilian_mismatch_interrogative-total-yn_Mi-tia-odia-la-lluvia.wav,,,,,,,,,,,,,,,,,,,,,,524.9026,527.235,1,1,1.7988,,0,47,47,28,1,0,castilian,,,,,,,,,,,,,,,,,,,,,,,,,,,,,,,,,,,,,,,,,,,,,,,,,,,,,,,,
,,,,,,,,,66831d05b00b3aa4c64b976c,spanish,13 or older,"no, only English or Spanish",no,2025-08-12_14h48.09.132,empathy_intonation_perc,2024.2.4,Win32,58.82352941,66831d05b00b3aa4c64b976c,687ed1b7e638a4cbf2f02089,689b8c26c5d840382fc36246,,,,,,,,,,,,,40,1,,./stim/wavs/puertorican_mismatch_interrogative-total-yn_El-hombre-mira-la-luna.wav,,,,,,,,,,,,,,,,,,,,,,527.2371,529.7883,1,1,2.0209,,0,48,48,39,1,1,puertorican,,,,,,,,,,,,,,,,,,,,,,,,,,,,,,,,,,,,,,,,,,,,,,,,,,,,,,,,
,,,,,,,,,66831d05b00b3aa4c64b976c,spanish,13 or older,"no, only English or Spanish",no,2025-08-12_14h48.09.132,empathy_intonation_perc,2024.2.4,Win32,58.82352941,66831d05b00b3aa4c64b976c,687ed1b7e638a4cbf2f02089,689b8c26c5d840382fc36246,,,,,,,,,,,,,75,0,,./stim/wavs/cuban_mismatch_declarative-broad-focus_El-hombre-mira-la-luna.wav,,,,,,,,,,,,,,,,,,,,,,529.7893,531.9473,0,1,1.6329,,0,49,49,74,1,0,cuban,,,,,,,,,,,,,,,,,,,,,,,,,,,,,,,,,,,,,,,,,,,,,,,,,,,,,,,,
,,,,,,,,,66831d05b00b3aa4c64b976c,spanish,13 or older,"no, only English or Spanish",no,2025-08-12_14h48.09.132,empathy_intonation_perc,2024.2.4,Win32,58.82352941,66831d05b00b3aa4c64b976c,687ed1b7e638a4cbf2f02089,689b8c26c5d840382fc36246,,,,,,,,,,,,,63,0,,./stim/wavs/puertorican_match_declarative-broad-focus_Ana-lleva-el-abrigo.wav,,,,,,,,,,,,,,,,,,,,,,531.9489,534.3958,0,1,1.9174,,0,50,50,62,1,0,puertorican,,,,,,,,,,,,,,,,,,,,,,,,,,,,,,,,,,,,,,,,,,,,,,,,,,,,,,,,
,,,,,,,,,66831d05b00b3aa4c64b976c,spanish,13 or older,"no, only English or Spanish",no,2025-08-12_14h48.09.132,empathy_intonation_perc,2024.2.4,Win32,58.82352941,66831d05b00b3aa4c64b976c,687ed1b7e638a4cbf2f02089,689b8c26c5d840382fc36246,,,,,,,,,,,,,23,1,,./stim/wavs/puertorican_match_interrogative-total-yn_Manuela-vende-el-carro.wav,,,,,,,,,,,,,,,,,,,,,,534.3964,536.3987,1,1,1.4711,,0,51,51,22,1,1,puertorican,,,,,,,,,,,,,,,,,,,,,,,,,,,,,,,,,,,,,,,,,,,,,,,,,,,,,,,,
,,,,,,,,,66831d05b00b3aa4c64b976c,spanish,13 or older,"no, only English or Spanish",no,2025-08-12_14h48.09.132,empathy_intonation_perc,2024.2.4,Win32,58.82352941,66831d05b00b3aa4c64b976c,687ed1b7e638a4cbf2f02089,689b8c26c5d840382fc36246,,,,,,,,,,,,,53,0,,./stim/wavs/cuban_match_declarative-broad-focus_Manuela-vende-el-carro.wav,,,,,,,,,,,,,,,,,,,,,,536.3998,538.7241,1,0,1.7993,,0,52,52,52,1,0,cuban,,,,,,,,,,,,,,,,,,,,,,,,,,,,,,,,,,,,,,,,,,,,,,,,,,,,,,,,
,,,,,,,,,66831d05b00b3aa4c64b976c,spanish,13 or older,"no, only English or Spanish",no,2025-08-12_14h48.09.132,empathy_intonation_perc,2024.2.4,Win32,58.82352941,66831d05b00b3aa4c64b976c,687ed1b7e638a4cbf2f02089,689b8c26c5d840382fc36246,,,,,,,,,,,,,47,0,,./stim/wavs/castilian_match_declarative-broad-focus_Manuela-vende-el-carro.wav,,,,,,,,,,,,,,,,,,,,,,538.7267,540.8224,1,0,1.5665,,0,53,53,46,1,0,castilian,,,,,,,,,,,,,,,,,,,,,,,,,,,,,,,,,,,,,,,,,,,,,,,,,,,,,,,,
,,,,,,,,,66831d05b00b3aa4c64b976c,spanish,13 or older,"no, only English or Spanish",no,2025-08-12_14h48.09.132,empathy_intonation_perc,2024.2.4,Win32,58.82352941,66831d05b00b3aa4c64b976c,687ed1b7e638a4cbf2f02089,689b8c26c5d840382fc36246,,,,,,,,,,,,,33,1,,./stim/wavs/cuban_mismatch_interrogative-total-yn_Mi-novio-viene-del-lago.wav,,,,,,,,,,,,,,,,,,,,,,540.8243,543.6365,1,1,2.2838,,0,54,54,32,1,1,cuban,,,,,,,,,,,,,,,,,,,,,,,,,,,,,,,,,,,,,,,,,,,,,,,,,,,,,,,,
,,,,,,,,,66831d05b00b3aa4c64b976c,spanish,13 or older,"no, only English or Spanish",no,2025-08-12_14h48.09.132,empathy_intonation_perc,2024.2.4,Win32,58.82352941,66831d05b00b3aa4c64b976c,687ed1b7e638a4cbf2f02089,689b8c26c5d840382fc36246,,,,,,,,,,,,,2,1,,./stim/wavs/castilian_match_interrogative-total-yn_Emilio-ama-la-marcha.wav,,,,,,,,,,,,,,,,,,,,,,543.6388,545.7839,0,0,1.6155,,0,55,55,1,1,0,castilian,,,,,,,,,,,,,,,,,,,,,,,,,,,,,,,,,,,,,,,,,,,,,,,,,,,,,,,,
,,,,,,,,,66831d05b00b3aa4c64b976c,spanish,13 or older,"no, only English or Spanish",no,2025-08-12_14h48.09.132,empathy_intonation_perc,2024.2.4,Win32,58.82352941,66831d05b00b3aa4c64b976c,687ed1b7e638a4cbf2f02089,689b8c26c5d840382fc36246,,,,,,,,,,,,,77,0,,./stim/wavs/cuban_mismatch_declarative-broad-focus_Mi-novio-viene-del-lago.wav,,,,,,,,,,,,,,,,,,,,,,545.7854,548.2317,1,0,1.9156,,0,56,56,76,1,0,cuban,,,,,,,,,,,,,,,,,,,,,,,,,,,,,,,,,,,,,,,,,,,,,,,,,,,,,,,,
,,,,,,,,,66831d05b00b3aa4c64b976c,spanish,13 or older,"no, only English or Spanish",no,2025-08-12_14h48.09.132,empathy_intonation_perc,2024.2.4,Win32,58.82352941,66831d05b00b3aa4c64b976c,687ed1b7e638a4cbf2f02089,689b8c26c5d840382fc36246,,,,,,,,,,,,,78,0,,./stim/wavs/cuban_mismatch_declarative-broad-focus_Mi-tia-odia-la-lluvia.wav,,,,,,,,,,,,,,,,,,,,,,548.2332,550.7448,0,1,1.9818,,0,57,57,77,1,0,cuban,,,,,,,,,,,,,,,,,,,,,,,,,,,,,,,,,,,,,,,,,,,,,,,,,,,,,,,,
,,,,,,,,,66831d05b00b3aa4c64b976c,spanish,13 or older,"no, only English or Spanish",no,2025-08-12_14h48.09.132,empathy_intonation_perc,2024.2.4,Win32,58.82352941,66831d05b00b3aa4c64b976c,687ed1b7e638a4cbf2f02089,689b8c26c5d840382fc36246,,,,,,,,,,,,,42,1,,./stim/wavs/puertorican_mismatch_interrogative-total-yn_La-maestra-vive-en-Paris.wav,,,,,,,,,,,,,,,,,,,,,,550.7474,553.3262,0,0,2.0529,,0,58,58,41,1,1,puertorican,,,,,,,,,,,,,,,,,,,,,,,,,,,,,,,,,,,,,,,,,,,,,,,,,,,,,,,,
,,,,,,,,,66831d05b00b3aa4c64b976c,spanish,13 or older,"no, only English or Spanish",no,2025-08-12_14h48.09.132,empathy_intonation_perc,2024.2.4,Win32,58.82352941,66831d05b00b3aa4c64b976c,687ed1b7e638a4cbf2f02089,689b8c26c5d840382fc36246,,,,,,,,,,,,,32,1,,./stim/wavs/cuban_mismatch_interrogative-total-yn_Mi-madre-come-la-fruta.wav,,,,,,,,,,,,,,,,,,,,,,553.3278,555.4769,0,0,1.6188,,0,59,59,31,1,1,cuban,,,,,,,,,,,,,,,,,,,,,,,,,,,,,,,,,,,,,,,,,,,,,,,,,,,,,,,,
,,,,,,,,,66831d05b00b3aa4c64b976c,spanish,13 or older,"no, only English or Spanish",no,2025-08-12_14h48.09.132,empathy_intonation_perc,2024.2.4,Win32,58.82352941,66831d05b00b3aa4c64b976c,687ed1b7e638a4cbf2f02089,689b8c26c5d840382fc36246,,,,,,,,,,,,,45,0,,./stim/wavs/castilian_match_declarative-broad-focus_David-leia-el-libro.wav,,,,,,,,,,,,,,,,,,,,,,555.4787,558.0047,0,1,1.9983,,0,60,60,44,1,0,castilian,,,,,,,,,,,,,,,,,,,,,,,,,,,,,,,,,,,,,,,,,,,,,,,,,,,,,,,,
,,,,,,,,,66831d05b00b3aa4c64b976c,spanish,13 or older,"no, only English or Spanish",no,2025-08-12_14h48.09.132,empathy_intonation_perc,2024.2.4,Win32,58.82352941,66831d05b00b3aa4c64b976c,687ed1b7e638a4cbf2f02089,689b8c26c5d840382fc36246,,,,,,,,,,,,,86,0,,./stim/wavs/puertorican_mismatch_declarative-broad-focus_El-nino-oye-el-rio.wav,,,,,,,,,,,,,,,,,,,,,,558.0058,560.0193,0,1,1.4991,,0,61,61,85,1,0,puertorican,,,,,,,,,,,,,,,,,,,,,,,,,,,,,,,,,,,,,,,,,,,,,,,,,,,,,,,,
,,,,,,,,,66831d05b00b3aa4c64b976c,spanish,13 or older,"no, only English or Spanish",no,2025-08-12_14h48.09.132,empathy_intonation_perc,2024.2.4,Win32,58.82352941,66831d05b00b3aa4c64b976c,687ed1b7e638a4cbf2f02089,689b8c26c5d840382fc36246,,,,,,,,,,,,,84,0,,./stim/wavs/puertorican_mismatch_declarative-broad-focus_El-bebe-comia-muy-bien.wav,,,,,,,,,,,,,,,,,,,,,,560.0208,562.1673,0,1,1.6196,,0,62,62,83,1,0,puertorican,,,,,,,,,,,,,,,,,,,,,,,,,,,,,,,,,,,,,,,,,,,,,,,,,,,,,,,,
,,,,,,,,,66831d05b00b3aa4c64b976c,spanish,13 or older,"no, only English or Spanish",no,2025-08-12_14h48.09.132,empathy_intonation_perc,2024.2.4,Win32,58.82352941,66831d05b00b3aa4c64b976c,687ed1b7e638a4cbf2f02089,689b8c26c5d840382fc36246,,,,,,,,,,,,,68,0,,./stim/wavs/puertorican_match_declarative-broad-focus_Maria-bebe-el-vino.wav,,,,,,,,,,,,,,,,,,,,,,562.1684,564.3489,1,0,1.6489,,0,63,63,67,1,0,puertorican,,,,,,,,,,,,,,,,,,,,,,,,,,,,,,,,,,,,,,,,,,,,,,,,,,,,,,,,
,,,,,,,,,66831d05b00b3aa4c64b976c,spanish,13 or older,"no, only English or Spanish",no,2025-08-12_14h48.09.132,empathy_intonation_perc,2024.2.4,Win32,58.82352941,66831d05b00b3aa4c64b976c,687ed1b7e638a4cbf2f02089,689b8c26c5d840382fc36246,,,,,,,,,,,,,31,1,,./stim/wavs/cuban_mismatch_interrogative-total-yn_El-nino-oye-el-rio.wav,,,,,,,,,,,,,,,,,,,,,,564.3499,566.4306,0,0,1.5586,,0,64,64,30,1,1,cuban,,,,,,,,,,,,,,,,,,,,,,,,,,,,,,,,,,,,,,,,,,,,,,,,,,,,,,,,
,,,,,,,,,66831d05b00b3aa4c64b976c,spanish,13 or older,"no, only English or Spanish",no,2025-08-12_14h48.09.132,empathy_intonation_perc,2024.2.4,Win32,58.82352941,66831d05b00b3aa4c64b976c,687ed1b7e638a4cbf2f02089,689b8c26c5d840382fc36246,,,,,,,,,,,,,7,1,,./stim/wavs/cuban_match_interrogative-total-yn_Ana-lleva-el-abrigo.wav,,,,,,,,,,,,,,,,,,,,,,566.4318,568.6463,0,0,1.6845,,0,65,65,6,1,1,cuban,,,,,,,,,,,,,,,,,,,,,,,,,,,,,,,,,,,,,,,,,,,,,,,,,,,,,,,,
,,,,,,,,,66831d05b00b3aa4c64b976c,spanish,13 or older,"no, only English or Spanish",no,2025-08-12_14h48.09.132,empathy_intonation_perc,2024.2.4,Win32,58.82352941,66831d05b00b3aa4c64b976c,687ed1b7e638a4cbf2f02089,689b8c26c5d840382fc36246,,,,,,,,,,,,,5,1,,./stim/wavs/castilian_match_interrogative-total-yn_Mariano-habla-del-tiempo.wav,,,,,,,,,,,,,,,,,,,,,,568.6473,571.2086,1,1,2.0314,,0,66,66,4,1,0,castilian,,,,,,,,,,,,,,,,,,,,,,,,,,,,,,,,,,,,,,,,,,,,,,,,,,,,,,,,
,,,,,,,,,66831d05b00b3aa4c64b976c,spanish,13 or older,"no, only English or Spanish",no,2025-08-12_14h48.09.132,empathy_intonation_perc,2024.2.4,Win32,58.82352941,66831d05b00b3aa4c64b976c,687ed1b7e638a4cbf2f02089,689b8c26c5d840382fc36246,,,,,,,,,,,,,49,0,,./stim/wavs/castilian_match_declarative-broad-focus_Mariano-habla-del-tiempo.wav,,,,,,,,,,,,,,,,,,,,,,571.2098,573.5312,1,0,1.7842,,0,67,67,48,1,0,castilian,,,,,,,,,,,,,,,,,,,,,,,,,,,,,,,,,,,,,,,,,,,,,,,,,,,,,,,,
,,,,,,,,,66831d05b00b3aa4c64b976c,spanish,13 or older,"no, only English or Spanish",no,2025-08-12_14h48.09.132,empathy_intonation_perc,2024.2.4,Win32,58.82352941,66831d05b00b3aa4c64b976c,687ed1b7e638a4cbf2f02089,689b8c26c5d840382fc36246,,,,,,,,,,,,,80,0,,./stim/wavs/mexican_mismatch_declarative-broad-focus_El-hombre-mira-la-luna.wav,,,,,,,,,,,,,,,,,,,,,,573.5323,576.3118,1,0,2.2496,,0,68,68,79,1,0,mexican,,,,,,,,,,,,,,,,,,,,,,,,,,,,,,,,,,,,,,,,,,,,,,,,,,,,,,,,
,,,,,,,,,66831d05b00b3aa4c64b976c,spanish,13 or older,"no, only English or Spanish",no,2025-08-12_14h48.09.132,empathy_intonation_perc,2024.2.4,Win32,58.82352941,66831d05b00b3aa4c64b976c,687ed1b7e638a4cbf2f02089,689b8c26c5d840382fc36246,,,,,,,,,,,,,25,1,,./stim/wavs/castilian_mismatch_interrogative-total-yn_La-maestra-vive-en-Paris.wav,,,,,,,,,,,,,,,,,,,,,,576.3129,578.9087,0,0,2.0652,,0,69,69,24,1,0,castilian,,,,,,,,,,,,,,,,,,,,,,,,,,,,,,,,,,,,,,,,,,,,,,,,,,,,,,,,
,,,,,,,,,66831d05b00b3aa4c64b976c,spanish,13 or older,"no, only English or Spanish",no,2025-08-12_14h48.09.132,empathy_intonation_perc,2024.2.4,Win32,58.82352941,66831d05b00b3aa4c64b976c,687ed1b7e638a4cbf2f02089,689b8c26c5d840382fc36246,,,,,,,,,,,,,41,1,,./stim/wavs/puertorican_mismatch_interrogative-total-yn_El-nino-oye-el-rio.wav,,,,,,,,,,,,,,,,,,,,,,578.9097,581.0399,0,0,1.5994,,0,70,70,40,1,1,puertorican,,,,,,,,,,,,,,,,,,,,,,,,,,,,,,,,,,,,,,,,,,,,,,,,,,,,,,,,
,,,,,,,,,66831d05b00b3aa4c64b976c,spanish,13 or older,"no, only English or Spanish",no,2025-08-12_14h48.09.132,empathy_intonation_perc,2024.2.4,Win32,58.82352941,66831d05b00b3aa4c64b976c,687ed1b7e638a4cbf2f02089,689b8c26c5d840382fc36246,,,,,,,,,,,,,59,0,,./stim/wavs/mexican_match_declarative-broad-focus_David-leia-el-libro.wav,,,,,,,,,,,,,,,,,,,,,,581.0409,583.2585,0,1,1.6919,,0,71,71,58,1,0,mexican,,,,,,,,,,,,,,,,,,,,,,,,,,,,,,,,,,,,,,,,,,,,,,,,,,,,,,,,
,,,,,,,,,66831d05b00b3aa4c64b976c,spanish,13 or older,"no, only English or Spanish",no,2025-08-12_14h48.09.132,empathy_intonation_perc,2024.2.4,Win32,58.82352941,66831d05b00b3aa4c64b976c,687ed1b7e638a4cbf2f02089,689b8c26c5d840382fc36246,,,,,,,,,,,,,35,1,,./stim/wavs/mexican_mismatch_interrogative-total-yn_El-hombre-mira-la-luna.wav,,,,,,,,,,,,,,,,,,,,,,583.2597,585.1873,1,1,1.4012,,0,72,72,34,1,0,mexican,,,,,,,,,,,,,,,,,,,,,,,,,,,,,,,,,,,,,,,,,,,,,,,,,,,,,,,,
,,,,,,,,,66831d05b00b3aa4c64b976c,spanish,13 or older,"no, only English or Spanish",no,2025-08-12_14h48.09.132,empathy_intonation_perc,2024.2.4,Win32,58.82352941,66831d05b00b3aa4c64b976c,687ed1b7e638a4cbf2f02089,689b8c26c5d840382fc36246,,,,,,,,,,,,,4,1,,./stim/wavs/castilian_match_interrogative-total-yn_Maria-bebe-el-vino.wav,,,,,,,,,,,,,,,,,,,,,,585.1883,587.0853,1,1,1.367,,0,73,73,3,1,0,castilian,,,,,,,,,,,,,,,,,,,,,,,,,,,,,,,,,,,,,,,,,,,,,,,,,,,,,,,,
,,,,,,,,,66831d05b00b3aa4c64b976c,spanish,13 or older,"no, only English or Spanish",no,2025-08-12_14h48.09.132,empathy_intonation_perc,2024.2.4,Win32,58.82352941,66831d05b00b3aa4c64b976c,687ed1b7e638a4cbf2f02089,689b8c26c5d840382fc36246,,,,,,,,,,,,,60,0,,./stim/wavs/mexican_match_declarative-broad-focus_Emilio-ama-la-marcha.wav,,,,,,,,,,,,,,,,,,,,,,587.0864,589.7992,1,0,2.1881,,0,74,74,59,1,0,mexican,,,,,,,,,,,,,,,,,,,,,,,,,,,,,,,,,,,,,,,,,,,,,,,,,,,,,,,,
,,,,,,,,,66831d05b00b3aa4c64b976c,spanish,13 or older,"no, only English or Spanish",no,2025-08-12_14h48.09.132,empathy_intonation_perc,2024.2.4,Win32,58.82352941,66831d05b00b3aa4c64b976c,687ed1b7e638a4cbf2f02089,689b8c26c5d840382fc36246,,,,,,,,,,,,,14,1,,./stim/wavs/mexican_match_interrogative-total-yn_Daniel-iba-a-Bolivia.wav,,,,,,,,,,,,,,,,,,,,,,589.8003,592.1794,0,0,1.8511,,0,75,75,13,1,0,mexican,,,,,,,,,,,,,,,,,,,,,,,,,,,,,,,,,,,,,,,,,,,,,,,,,,,,,,,,
,,,,,,,,,66831d05b00b3aa4c64b976c,spanish,13 or older,"no, only English or Spanish",no,2025-08-12_14h48.09.132,empathy_intonation_perc,2024.2.4,Win32,58.82352941,66831d05b00b3aa4c64b976c,687ed1b7e638a4cbf2f02089,689b8c26c5d840382fc36246,,,,,,,,,,,,,21,1,,./stim/wavs/puertorican_match_interrogative-total-yn_David-leia-el-libro.wav,,,,,,,,,,,,,,,,,,,,,,592.1805,594.6996,1,1,1.994,,0,76,76,20,1,1,puertorican,,,,,,,,,,,,,,,,,,,,,,,,,,,,,,,,,,,,,,,,,,,,,,,,,,,,,,,,
,,,,,,,,,66831d05b00b3aa4c64b976c,spanish,13 or older,"no, only English or Spanish",no,2025-08-12_14h48.09.132,empathy_intonation_perc,2024.2.4,Win32,58.82352941,66831d05b00b3aa4c64b976c,687ed1b7e638a4cbf2f02089,689b8c26c5d840382fc36246,,,,,,,,,,,,,64,0,,./stim/wavs/puertorican_match_declarative-broad-focus_Daniel-iba-a-Bolivia.wav,,,,,,,,,,,,,,,,,,,,,,594.7007,596.9262,0,1,1.6996,,0,77,77,63,1,0,puertorican,,,,,,,,,,,,,,,,,,,,,,,,,,,,,,,,,,,,,,,,,,,,,,,,,,,,,,,,
,,,,,,,,,66831d05b00b3aa4c64b976c,spanish,13 or older,"no, only English or Spanish",no,2025-08-12_14h48.09.132,empathy_intonation_perc,2024.2.4,Win32,58.82352941,66831d05b00b3aa4c64b976c,687ed1b7e638a4cbf2f02089,689b8c26c5d840382fc36246,,,,,,,,,,,,,88,0,,./stim/wavs/puertorican_mismatch_declarative-broad-focus_La-nina-lava-el-plato.wav,,,,,,,,,,,,,,,,,,,,,,596.9272,599.7389,0,1,2.2824,,0,78,78,87,1,0,puertorican,,,,,,,,,,,,,,,,,,,,,,,,,,,,,,,,,,,,,,,,,,,,,,,,,,,,,,,,
,,,,,,,,,66831d05b00b3aa4c64b976c,spanish,13 or older,"no, only English or Spanish",no,2025-08-12_14h48.09.132,empathy_intonation_perc,2024.2.4,Win32,58.82352941,66831d05b00b3aa4c64b976c,687ed1b7e638a4cbf2f02089,689b8c26c5d840382fc36246,,,,,,,,,,,,,27,1,,./stim/wavs/castilian_mismatch_interrogative-total-yn_Mi-madre-come-la-fruta.wav,,,,,,,,,,,,,,,,,,,,,,599.74,606.8238,1,1,6.5587,,0,79,79,26,1,0,castilian,,,,,,,,,,,,,,,,,,,,,,,,,,,,,,,,,,,,,,,,,,,,,,,,,,,,,,,,
,,,,,,,,,66831d05b00b3aa4c64b976c,spanish,13 or older,"no, only English or Spanish",no,2025-08-12_14h48.09.132,empathy_intonation_perc,2024.2.4,Win32,58.82352941,66831d05b00b3aa4c64b976c,687ed1b7e638a4cbf2f02089,689b8c26c5d840382fc36246,,,,,,,,,,,,,16,1,,./stim/wavs/mexican_match_interrogative-total-yn_Emilio-ama-la-marcha.wav,,,,,,,,,,,,,,,,,,,,,,606.825,608.9719,0,0,1.6202,,0,80,80,15,1,0,mexican,,,,,,,,,,,,,,,,,,,,,,,,,,,,,,,,,,,,,,,,,,,,,,,,,,,,,,,,
,,,,,,,,,66831d05b00b3aa4c64b976c,spanish,13 or older,"no, only English or Spanish",no,2025-08-12_14h48.09.132,empathy_intonation_perc,2024.2.4,Win32,58.82352941,66831d05b00b3aa4c64b976c,687ed1b7e638a4cbf2f02089,689b8c26c5d840382fc36246,,,,,,,,,,,,,83,0,,./stim/wavs/mexican_mismatch_declarative-broad-focus_Mi-tia-odia-la-lluvia.wav,,,,,,,,,,,,,,,,,,,,,,608.9737,611.203,0,1,1.6989,,0,81,81,82,1,0,mexican,,,,,,,,,,,,,,,,,,,,,,,,,,,,,,,,,,,,,,,,,,,,,,,,,,,,,,,,
,,,,,,,,,66831d05b00b3aa4c64b976c,spanish,13 or older,"no, only English or Spanish",no,2025-08-12_14h48.09.132,empathy_intonation_perc,2024.2.4,Win32,58.82352941,66831d05b00b3aa4c64b976c,687ed1b7e638a4cbf2f02089,689b8c26c5d840382fc36246,,,,,,,,,,,,,44,1,,./stim/wavs/puertorican_mismatch_interrogative-total-yn_Mi-madre-come-la-fruta.wav,,,,,,,,,,,,,,,,,,,,,,611.2046,612.7661,1,1,1.0334,,0,82,82,43,1,1,puertorican,,,,,,,,,,,,,,,,,,,,,,,,,,,,,,,,,,,,,,,,,,,,,,,,,,,,,,,,
,,,,,,,,,66831d05b00b3aa4c64b976c,spanish,13 or older,"no, only English or Spanish",no,2025-08-12_14h48.09.132,empathy_intonation_perc,2024.2.4,Win32,58.82352941,66831d05b00b3aa4c64b976c,687ed1b7e638a4cbf2f02089,689b8c26c5d840382fc36246,,,,,,,,,,,,,79,0,,./stim/wavs/mexican_mismatch_declarative-broad-focus_El-bebe-comia-muy-bien.wav,,,,,,,,,,,,,,,,,,,,,,612.7673,614.8332,1,0,1.5328,,0,83,83,78,1,0,mexican,,,,,,,,,,,,,,,,,,,,,,,,,,,,,,,,,,,,,,,,,,,,,,,,,,,,,,,,
,,,,,,,,,66831d05b00b3aa4c64b976c,spanish,13 or older,"no, only English or Spanish",no,2025-08-12_14h48.09.132,empathy_intonation_perc,2024.2.4,Win32,58.82352941,66831d05b00b3aa4c64b976c,687ed1b7e638a4cbf2f02089,689b8c26c5d840382fc36246,,,,,,,,,,,,,54,0,,./stim/wavs/cuban_match_declarative-broad-focus_Maria-bebe-el-vino.wav,,,,,,,,,,,,,,,,,,,,,,614.8355,616.721,0,1,1.3544,,0,84,84,53,1,0,cuban,,,,,,,,,,,,,,,,,,,,,,,,,,,,,,,,,,,,,,,,,,,,,,,,,,,,,,,,
,,,,,,,,,66831d05b00b3aa4c64b976c,spanish,13 or older,"no, only English or Spanish",no,2025-08-12_14h48.09.132,empathy_intonation_perc,2024.2.4,Win32,58.82352941,66831d05b00b3aa4c64b976c,687ed1b7e638a4cbf2f02089,689b8c26c5d840382fc36246,,,,,,,,,,,,,51,0,,./stim/wavs/cuban_match_declarative-broad-focus_Ana-lleva-el-abrigo.wav,,,,,,,,,,,,,,,,,,,,,,616.7222,618.7628,0,1,1.5233,,0,85,85,50,1,0,cuban,,,,,,,,,,,,,,,,,,,,,,,,,,,,,,,,,,,,,,,,,,,,,,,,,,,,,,,,
,,,,,,,,,66831d05b00b3aa4c64b976c,spanish,13 or older,"no, only English or Spanish",no,2025-08-12_14h48.09.132,empathy_intonation_perc,2024.2.4,Win32,58.82352941,66831d05b00b3aa4c64b976c,687ed1b7e638a4cbf2f02089,689b8c26c5d840382fc36246,,,,,,,,,,,,,52,0,,./stim/wavs/cuban_match_declarative-broad-focus_Daniel-iba-a-Bolivia.wav,,,,,,,,,,,,,,,,,,,,,,618.7658,620.7258,0,1,1.4335,,0,86,86,51,1,0,cuban,,,,,,,,,,,,,,,,,,,,,,,,,,,,,,,,,,,,,,,,,,,,,,,,,,,,,,,,
,,,,,,,,,66831d05b00b3aa4c64b976c,spanish,13 or older,"no, only English or Spanish",no,2025-08-12_14h48.09.132,empathy_intonation_perc,2024.2.4,Win32,58.82352941,66831d05b00b3aa4c64b976c,687ed1b7e638a4cbf2f02089,689b8c26c5d840382fc36246,,,,,,,,,,,,,20,1,,./stim/wavs/puertorican_match_interrogative-total-yn_Daniel-iba-a-Bolivia.wav,,,,,,,,,,,,,,,,,,,,,,620.7271,622.6601,1,1,1.4009,,0,87,87,19,1,1,puertorican,,,,,,,,,,,,,,,,,,,,,,,,,,,,,,,,,,,,,,,,,,,,,,,,,,,,,,,,
,,,,,,,"Great! Now we will move on. The next task consists of about 60 trials, in each of which you will see a string of letters. 
  
  Your task is to decide whether this is a real Spanish word or not.", (press the spacebar to continue),66831d05b00b3aa4c64b976c,spanish,13 or older,"no, only English or Spanish",no,2025-08-12_14h48.09.132,empathy_intonation_perc,2024.2.4,Win32,58.82352941,66831d05b00b3aa4c64b976c,687ed1b7e638a4cbf2f02089,689b8c26c5d840382fc36246,,,,,,,,,,,,,,,,,,,,,,,,,,,,,,,,,,,,,,,,,,,,,,,,,,,622.683,628.6268,0,0,0,0,1,,,,,,,,,,,,,,,,,,,,,,,,,,,,,,,,,,,,,,,,,,,,,,,,,
,,,,,,,"If you think it is an existing Spanish word, you type '1' (for 'REAL'), and if you think it is not an existing Spanish word, you type '0' (for 'FAKE').", (press the spacebar to continue),66831d05b00b3aa4c64b976c,spanish,13 or older,"no, only English or Spanish",no,2025-08-12_14h48.09.132,empathy_intonation_perc,2024.2.4,Win32,58.82352941,66831d05b00b3aa4c64b976c,687ed1b7e638a4cbf2f02089,689b8c26c5d840382fc36246,,,,,,,,,,,,,,,,,,,,,,,,,,,,,,,,,,,,,,,,,,,,,,,,,,,628.6328,631.2568,0,1,1,1,1,,,,,,,,,,,,,,,,,,,,,,,,,,,,,,,,,,,,,,,,,,,,,,,,,
,,,,,,,"If you are sure that the word exists, even though you don’t know its exact meaning, you may still respond '1' (REAL). 
  
  But if you are not sure if it is an existing word, you should respond '0' (FAKE).
  
  Let's do a practice round...", (press the spacebar to continue),66831d05b00b3aa4c64b976c,spanish,13 or older,"no, only English or Spanish",no,2025-08-12_14h48.09.132,empathy_intonation_perc,2024.2.4,Win32,58.82352941,66831d05b00b3aa4c64b976c,687ed1b7e638a4cbf2f02089,689b8c26c5d840382fc36246,,,,,,,,,,,,,,,,,,,,,,,,,,,,,,,,,,,,,,,,,,,,,,,,,,,631.2631,637.1015,0,2,2,2,1,,,,,,,,,,,,,,,,,,,,,,,,,,,,,,,,,,,,,,,,,,,,,,,,,
,,,,,,,,,66831d05b00b3aa4c64b976c,spanish,13 or older,"no, only English or Spanish",no,2025-08-12_14h48.09.132,empathy_intonation_perc,2024.2.4,Win32,58.82352941,66831d05b00b3aa4c64b976c,687ed1b7e638a4cbf2f02089,689b8c26c5d840382fc36246,,,,,,,,,,,,,,0,,,,,,,,,,,,,,,,,,,,,,,,,,,,,,,,,,,,,,,,,,,,637.1182,640.6668,0,1,3.0134,,640.6673,641.6655,0,0,0,0,1,0,depiste,REAL,FAKE,,,,,,,,,,,,,,,,,,,,,,,,,,,,,,,,
,,,,,,,,,66831d05b00b3aa4c64b976c,spanish,13 or older,"no, only English or Spanish",no,2025-08-12_14h48.09.132,empathy_intonation_perc,2024.2.4,Win32,58.82352941,66831d05b00b3aa4c64b976c,687ed1b7e638a4cbf2f02089,689b8c26c5d840382fc36246,,,,,,,,,,,,,,1,,,,,,,,,,,,,,,,,,,,,,,,,,,,,,,,,,,,,,,,,,,,641.671,643.5634,1,1,1.3697,,643.5634,644.5602,0,1,1,1,1,0,sí,REAL,FAKE,,,,,,,,,,,,,,,,,,,,,,,,,,,,,,,,
,,,,,,,,,66831d05b00b3aa4c64b976c,spanish,13 or older,"no, only English or Spanish",no,2025-08-12_14h48.09.132,empathy_intonation_perc,2024.2.4,Win32,58.82352941,66831d05b00b3aa4c64b976c,687ed1b7e638a4cbf2f02089,689b8c26c5d840382fc36246,,,,,,,,,,,,,,0,,,,,,,,,,,,,,,,,,,,,,,,,,,,,,,,,,,,,,,,,,,,644.5646,647.6589,0,1,2.5665,,647.6591,648.656,0,2,2,2,1,0,coné,REAL,FAKE,,,,,,,,,,,,,,,,,,,,,,,,,,,,,,,,
,,,,,,,,,66831d05b00b3aa4c64b976c,spanish,13 or older,"no, only English or Spanish",no,2025-08-12_14h48.09.132,empathy_intonation_perc,2024.2.4,Win32,58.82352941,66831d05b00b3aa4c64b976c,687ed1b7e638a4cbf2f02089,689b8c26c5d840382fc36246,,,,,,,,,,,,,,0,,,,,,,,,,,,,,,,,,,,,,,,,,,,,,,,,,,,,,,,,,,,648.6587,650.4712,0,1,1.279,,650.4714,651.4698,0,3,3,3,1,0,calpar,REAL,FAKE,,,,,,,,,,,,,,,,,,,,,,,,,,,,,,,,
,,,,,,,,,66831d05b00b3aa4c64b976c,spanish,13 or older,"no, only English or Spanish",no,2025-08-12_14h48.09.132,empathy_intonation_perc,2024.2.4,Win32,58.82352941,66831d05b00b3aa4c64b976c,687ed1b7e638a4cbf2f02089,689b8c26c5d840382fc36246,,,,,,,,,,,,,,0,,,,,,,,,,,,,,,,,,,,,,,,,,,,,,,,,,,,,,,,,,,,651.4736,653.1858,0,1,1.1838,,653.186,654.1844,0,4,4,4,1,0,joten,REAL,FAKE,,,,,,,,,,,,,,,,,,,,,,,,,,,,,,,,
,,,,,,,,,66831d05b00b3aa4c64b976c,spanish,13 or older,"no, only English or Spanish",no,2025-08-12_14h48.09.132,empathy_intonation_perc,2024.2.4,Win32,58.82352941,66831d05b00b3aa4c64b976c,687ed1b7e638a4cbf2f02089,689b8c26c5d840382fc36246,,,,,,,,,,,,,,1,,,,,,,,,,,,,,,,,,,,,,,,,,,,,,,,,,,,,,,,,,,,654.1876,655.8187,0,0,1.1062,,655.8231,656.8155,0,5,5,5,1,0,sacapuntas,REAL,FAKE,,,,,,,,,,,,,,,,,,,,,,,,,,,,,,,,
,,,,,,,,,66831d05b00b3aa4c64b976c,spanish,13 or older,"no, only English or Spanish",no,2025-08-12_14h48.09.132,empathy_intonation_perc,2024.2.4,Win32,58.82352941,66831d05b00b3aa4c64b976c,687ed1b7e638a4cbf2f02089,689b8c26c5d840382fc36246,,,,,,,,,,,,,,0,,,,,,,,,,,,,,,,,,,,,,,,,,,,,,,,,,,,,,,,,,,,656.8201,659.0134,0,1,1.6639,,659.016,660.0123,0,6,6,6,1,0,priba,REAL,FAKE,,,,,,,,,,,,,,,,,,,,,,,,,,,,,,,,
,,,,,,,,,66831d05b00b3aa4c64b976c,spanish,13 or older,"no, only English or Spanish",no,2025-08-12_14h48.09.132,empathy_intonation_perc,2024.2.4,Win32,58.82352941,66831d05b00b3aa4c64b976c,687ed1b7e638a4cbf2f02089,689b8c26c5d840382fc36246,,,,,,,,,,,,,,0,,,,,,,,,,,,,,,,,,,,,,,,,,,,,,,,,,,,,,,,,,,,660.017,661.9271,1,0,1.3802,,661.9298,662.926,0,7,7,7,1,0,pelasula,REAL,FAKE,,,,,,,,,,,,,,,,,,,,,,,,,,,,,,,,
,,,,,,,,,66831d05b00b3aa4c64b976c,spanish,13 or older,"no, only English or Spanish",no,2025-08-12_14h48.09.132,empathy_intonation_perc,2024.2.4,Win32,58.82352941,66831d05b00b3aa4c64b976c,687ed1b7e638a4cbf2f02089,689b8c26c5d840382fc36246,,,,,,,,,,,,,,1,,,,,,,,,,,,,,,,,,,,,,,,,,,,,,,,,,,,,,,,,,,,662.9294,664.2082,1,1,0.7473,,664.2108,665.2073,0,8,8,8,1,0,bien,REAL,FAKE,,,,,,,,,,,,,,,,,,,,,,,,,,,,,,,,
,,,,,,,,,66831d05b00b3aa4c64b976c,spanish,13 or older,"no, only English or Spanish",no,2025-08-12_14h48.09.132,empathy_intonation_perc,2024.2.4,Win32,58.82352941,66831d05b00b3aa4c64b976c,687ed1b7e638a4cbf2f02089,689b8c26c5d840382fc36246,,,,,,,,,,,,,,1,,,,,,,,,,,,,,,,,,,,,,,,,,,,,,,,,,,,,,,,,,,,665.2108,666.7385,1,1,0.998,,666.7387,667.7388,0,9,9,9,1,0,casa,REAL,FAKE,,,,,,,,,,,,,,,,,,,,,,,,,,,,,,,,
,,,,,,,,,66831d05b00b3aa4c64b976c,spanish,13 or older,"no, only English or Spanish",no,2025-08-12_14h48.09.132,empathy_intonation_perc,2024.2.4,Win32,58.82352941,66831d05b00b3aa4c64b976c,687ed1b7e638a4cbf2f02089,689b8c26c5d840382fc36246,,,,,,,,,,,,,,0,,,,,,,,,,,,,,,,,,,,,,,,,,,,,,,,,,,,,,,,,,,,667.7419,669.8534,0,1,1.5833,,669.8536,670.8513,0,10,10,10,1,0,lejo,REAL,FAKE,,,,,,,,,,,,,,,,,,,,,,,,,,,,,,,,
,,,,,,,,,66831d05b00b3aa4c64b976c,spanish,13 or older,"no, only English or Spanish",no,2025-08-12_14h48.09.132,empathy_intonation_perc,2024.2.4,Win32,58.82352941,66831d05b00b3aa4c64b976c,687ed1b7e638a4cbf2f02089,689b8c26c5d840382fc36246,,,,,,,,,,,,,,0,,,,,,,,,,,,,,,,,,,,,,,,,,,,,,,,,,,,,,,,,,,,670.8543,672.5497,1,0,1.1635,,672.552,673.5487,0,11,11,11,1,0,pretantas,REAL,FAKE,,,,,,,,,,,,,,,,,,,,,,,,,,,,,,,,
,,,,,,,,,66831d05b00b3aa4c64b976c,spanish,13 or older,"no, only English or Spanish",no,2025-08-12_14h48.09.132,empathy_intonation_perc,2024.2.4,Win32,58.82352941,66831d05b00b3aa4c64b976c,687ed1b7e638a4cbf2f02089,689b8c26c5d840382fc36246,,,,,,,,,,,,,,,,,,,,,,,,,,,,,,,,,,,,,,,,,,,,,,,,,,,,,,,,,,,,,,,,,,,,,,,,,,,673.5494,676.8012,,,,,,,,,,,,,,,,,,,,,,,,,,,,,,
,,,,,,,,,66831d05b00b3aa4c64b976c,spanish,13 or older,"no, only English or Spanish",no,2025-08-12_14h48.09.132,empathy_intonation_perc,2024.2.4,Win32,58.82352941,66831d05b00b3aa4c64b976c,687ed1b7e638a4cbf2f02089,689b8c26c5d840382fc36246,,,,,,,,,,,,,,1,,,,,,,,,,,,,,,,,,,,,,,,,,,,,,,,,,,,,,,,,,,,,,,,,,,,,,,,,60,matar,,,,,676.8335,681.6526,0,0,4.2983,,0,0,0,59,1,REAL,FAKE,,,,,,,,,,,,,,,,,
,,,,,,,,,66831d05b00b3aa4c64b976c,spanish,13 or older,"no, only English or Spanish",no,2025-08-12_14h48.09.132,empathy_intonation_perc,2024.2.4,Win32,58.82352941,66831d05b00b3aa4c64b976c,687ed1b7e638a4cbf2f02089,689b8c26c5d840382fc36246,,,,,,,,,,,,,,0,,,,,,,,,,,,,,,,,,,,,,,,,,,,,,,,,,,,,,,,,,,,,,,,,,,,,,,,,66,hacido,,,,,681.6551,683.0627,1,0,0.8801,,0,1,1,65,1,REAL,FAKE,,,,,,,,,,,,,,,,,
,,,,,,,,,66831d05b00b3aa4c64b976c,spanish,13 or older,"no, only English or Spanish",no,2025-08-12_14h48.09.132,empathy_intonation_perc,2024.2.4,Win32,58.82352941,66831d05b00b3aa4c64b976c,687ed1b7e638a4cbf2f02089,689b8c26c5d840382fc36246,,,,,,,,,,,,,,0,,,,,,,,,,,,,,,,,,,,,,,,,,,,,,,,,,,,,,,,,,,,,,,,,,,,,,,,,21,capillo,,,,,683.0659,684.4653,1,0,0.868,,0,2,2,20,1,REAL,FAKE,,,,,,,,,,,,,,,,,
,,,,,,,,,66831d05b00b3aa4c64b976c,spanish,13 or older,"no, only English or Spanish",no,2025-08-12_14h48.09.132,empathy_intonation_perc,2024.2.4,Win32,58.82352941,66831d05b00b3aa4c64b976c,687ed1b7e638a4cbf2f02089,689b8c26c5d840382fc36246,,,,,,,,,,,,,,1,,,,,,,,,,,,,,,,,,,,,,,,,,,,,,,,,,,,,,,,,,,,,,,,,,,,,,,,,62,flaco,,,,,684.4682,685.7147,1,1,0.7183,,0,3,3,61,1,REAL,FAKE,,,,,,,,,,,,,,,,,
,,,,,,,,,66831d05b00b3aa4c64b976c,spanish,13 or older,"no, only English or Spanish",no,2025-08-12_14h48.09.132,empathy_intonation_perc,2024.2.4,Win32,58.82352941,66831d05b00b3aa4c64b976c,687ed1b7e638a4cbf2f02089,689b8c26c5d840382fc36246,,,,,,,,,,,,,,0,,,,,,,,,,,,,,,,,,,,,,,,,,,,,,,,,,,,,,,,,,,,,,,,,,,,,,,,,92,click the 0 key.,,,,,685.7174,688.6777,0,1,2.4322,,0,4,4,91,1,REAL,FAKE,,,,,,,,,,,,,,,,,
,,,,,,,,,66831d05b00b3aa4c64b976c,spanish,13 or older,"no, only English or Spanish",no,2025-08-12_14h48.09.132,empathy_intonation_perc,2024.2.4,Win32,58.82352941,66831d05b00b3aa4c64b976c,687ed1b7e638a4cbf2f02089,689b8c26c5d840382fc36246,,,,,,,,,,,,,,1,,,,,,,,,,,,,,,,,,,,,,,,,,,,,,,,,,,,,,,,,,,,,,,,,,,,,,,,,52,camisa,,,,,688.6805,690.1572,1,1,0.946,,0,5,5,51,1,REAL,FAKE,,,,,,,,,,,,,,,,,
,,,,,,,,,66831d05b00b3aa4c64b976c,spanish,13 or older,"no, only English or Spanish",no,2025-08-12_14h48.09.132,empathy_intonation_perc,2024.2.4,Win32,58.82352941,66831d05b00b3aa4c64b976c,687ed1b7e638a4cbf2f02089,689b8c26c5d840382fc36246,,,,,,,,,,,,,,1,,,,,,,,,,,,,,,,,,,,,,,,,,,,,,,,,,,,,,,,,,,,,,,,,,,,,,,,,65,bizcocho,,,,,690.161,691.9086,0,0,1.2175,,0,6,6,64,1,REAL,FAKE,,,,,,,,,,,,,,,,,
,,,,,,,,,66831d05b00b3aa4c64b976c,spanish,13 or older,"no, only English or Spanish",no,2025-08-12_14h48.09.132,empathy_intonation_perc,2024.2.4,Win32,58.82352941,66831d05b00b3aa4c64b976c,687ed1b7e638a4cbf2f02089,689b8c26c5d840382fc36246,,,,,,,,,,,,,,1,,,,,,,,,,,,,,,,,,,,,,,,,,,,,,,,,,,,,,,,,,,,,,,,,,,,,,,,,36,loro,,,,,691.9108,693.5646,0,0,1.1244,,0,7,7,35,1,REAL,FAKE,,,,,,,,,,,,,,,,,
,,,,,,,,,66831d05b00b3aa4c64b976c,spanish,13 or older,"no, only English or Spanish",no,2025-08-12_14h48.09.132,empathy_intonation_perc,2024.2.4,Win32,58.82352941,66831d05b00b3aa4c64b976c,687ed1b7e638a4cbf2f02089,689b8c26c5d840382fc36246,,,,,,,,,,,,,,0,,,,,,,,,,,,,,,,,,,,,,,,,,,,,,,,,,,,,,,,,,,,,,,,,,,,,,,,,19,brecedad,,,,,693.5672,696.6875,0,1,2.6002,,0,8,8,18,1,REAL,FAKE,,,,,,,,,,,,,,,,,
,,,,,,,,,66831d05b00b3aa4c64b976c,spanish,13 or older,"no, only English or Spanish",no,2025-08-12_14h48.09.132,empathy_intonation_perc,2024.2.4,Win32,58.82352941,66831d05b00b3aa4c64b976c,687ed1b7e638a4cbf2f02089,689b8c26c5d840382fc36246,,,,,,,,,,,,,,1,,,,,,,,,,,,,,,,,,,,,,,,,,,,,,,,,,,,,,,,,,,,,,,,,,,,,,,,,44,cuchara,,,,,696.6899,698.302,1,1,1.083,,0,9,9,43,1,REAL,FAKE,,,,,,,,,,,,,,,,,
,,,,,,,,,66831d05b00b3aa4c64b976c,spanish,13 or older,"no, only English or Spanish",no,2025-08-12_14h48.09.132,empathy_intonation_perc,2024.2.4,Win32,58.82352941,66831d05b00b3aa4c64b976c,687ed1b7e638a4cbf2f02089,689b8c26c5d840382fc36246,,,,,,,,,,,,,,1,,,,,,,,,,,,,,,,,,,,,,,,,,,,,,,,,,,,,,,,,,,,,,,,,,,,,,,,,13,helar,,,,,698.3046,699.5179,1,1,0.6851,,0,10,10,12,1,REAL,FAKE,,,,,,,,,,,,,,,,,
,,,,,,,,,66831d05b00b3aa4c64b976c,spanish,13 or older,"no, only English or Spanish",no,2025-08-12_14h48.09.132,empathy_intonation_perc,2024.2.4,Win32,58.82352941,66831d05b00b3aa4c64b976c,687ed1b7e638a4cbf2f02089,689b8c26c5d840382fc36246,,,,,,,,,,,,,,1,,,,,,,,,,,,,,,,,,,,,,,,,,,,,,,,,,,,,,,,,,,,,,,,,,,,,,,,,45,jilguero,,,,,699.5203,700.9194,0,0,0.8719,,0,11,11,44,1,REAL,FAKE,,,,,,,,,,,,,,,,,
,,,,,,,,,66831d05b00b3aa4c64b976c,spanish,13 or older,"no, only English or Spanish",no,2025-08-12_14h48.09.132,empathy_intonation_perc,2024.2.4,Win32,58.82352941,66831d05b00b3aa4c64b976c,687ed1b7e638a4cbf2f02089,689b8c26c5d840382fc36246,,,,,,,,,,,,,,1,,,,,,,,,,,,,,,,,,,,,,,,,,,,,,,,,,,,,,,,,,,,,,,,,,,,,,,,,14,yunque,,,,,700.9225,702.2642,0,0,0.8176,,0,12,12,13,1,REAL,FAKE,,,,,,,,,,,,,,,,,
,,,,,,,,,66831d05b00b3aa4c64b976c,spanish,13 or older,"no, only English or Spanish",no,2025-08-12_14h48.09.132,empathy_intonation_perc,2024.2.4,Win32,58.82352941,66831d05b00b3aa4c64b976c,687ed1b7e638a4cbf2f02089,689b8c26c5d840382fc36246,,,,,,,,,,,,,,1,,,,,,,,,,,,,,,,,,,,,,,,,,,,,,,,,,,,,,,,,,,,,,,,,,,,,,,,,56,musgo,,,,,702.2675,703.4769,0,0,0.6814,,0,13,13,55,1,REAL,FAKE,,,,,,,,,,,,,,,,,
,,,,,,,,,66831d05b00b3aa4c64b976c,spanish,13 or older,"no, only English or Spanish",no,2025-08-12_14h48.09.132,empathy_intonation_perc,2024.2.4,Win32,58.82352941,66831d05b00b3aa4c64b976c,687ed1b7e638a4cbf2f02089,689b8c26c5d840382fc36246,,,,,,,,,,,,,,1,,,,,,,,,,,,,,,,,,,,,,,,,,,,,,,,,,,,,,,,,,,,,,,,,,,,,,,,,86,barato,,,,,703.4792,705.0123,0,0,1.0014,,0,14,14,85,1,REAL,FAKE,,,,,,,,,,,,,,,,,
,,,,,,,,,66831d05b00b3aa4c64b976c,spanish,13 or older,"no, only English or Spanish",no,2025-08-12_14h48.09.132,empathy_intonation_perc,2024.2.4,Win32,58.82352941,66831d05b00b3aa4c64b976c,687ed1b7e638a4cbf2f02089,689b8c26c5d840382fc36246,,,,,,,,,,,,,,0,,,,,,,,,,,,,,,,,,,,,,,,,,,,,,,,,,,,,,,,,,,,,,,,,,,,,,,,,17,floroso,,,,,705.0144,706.4439,0,1,0.9002,,0,15,15,16,1,REAL,FAKE,,,,,,,,,,,,,,,,,
,,,,,,,,,66831d05b00b3aa4c64b976c,spanish,13 or older,"no, only English or Spanish",no,2025-08-12_14h48.09.132,empathy_intonation_perc,2024.2.4,Win32,58.82352941,66831d05b00b3aa4c64b976c,687ed1b7e638a4cbf2f02089,689b8c26c5d840382fc36246,,,,,,,,,,,,,,1,,,,,,,,,,,,,,,,,,,,,,,,,,,,,,,,,,,,,,,,,,,,,,,,,,,,,,,,,7,pésimo,,,,,706.4465,708.4552,1,1,1.4797,,0,16,16,6,1,REAL,FAKE,,,,,,,,,,,,,,,,,
,,,,,,,,,66831d05b00b3aa4c64b976c,spanish,13 or older,"no, only English or Spanish",no,2025-08-12_14h48.09.132,empathy_intonation_perc,2024.2.4,Win32,58.82352941,66831d05b00b3aa4c64b976c,687ed1b7e638a4cbf2f02089,689b8c26c5d840382fc36246,,,,,,,,,,,,,,0,,,,,,,,,,,,,,,,,,,,,,,,,,,,,,,,,,,,,,,,,,,,,,,,,,,,,,,,,35,rompido,,,,,708.4575,712.8046,1,0,3.8154,,0,17,17,34,1,REAL,FAKE,,,,,,,,,,,,,,,,,
,,,,,,,,,66831d05b00b3aa4c64b976c,spanish,13 or older,"no, only English or Spanish",no,2025-08-12_14h48.09.132,empathy_intonation_perc,2024.2.4,Win32,58.82352941,66831d05b00b3aa4c64b976c,687ed1b7e638a4cbf2f02089,689b8c26c5d840382fc36246,,,,,,,,,,,,,,0,,,,,,,,,,,,,,,,,,,,,,,,,,,,,,,,,,,,,,,,,,,,,,,,,,,,,,,,,30,alardio,,,,,712.8082,715.152,0,1,1.8171,,0,18,18,29,1,REAL,FAKE,,,,,,,,,,,,,,,,,
,,,,,,,,,66831d05b00b3aa4c64b976c,spanish,13 or older,"no, only English or Spanish",no,2025-08-12_14h48.09.132,empathy_intonation_perc,2024.2.4,Win32,58.82352941,66831d05b00b3aa4c64b976c,687ed1b7e638a4cbf2f02089,689b8c26c5d840382fc36246,,,,,,,,,,,,,,1,,,,,,,,,,,,,,,,,,,,,,,,,,,,,,,,,,,,,,,,,,,,,,,,,,,,,,,,,54,fomentar,,,,,715.1548,718.2158,0,0,2.5329,,0,19,19,53,1,REAL,FAKE,,,,,,,,,,,,,,,,,
,,,,,,,,,66831d05b00b3aa4c64b976c,spanish,13 or older,"no, only English or Spanish",no,2025-08-12_14h48.09.132,empathy_intonation_perc,2024.2.4,Win32,58.82352941,66831d05b00b3aa4c64b976c,687ed1b7e638a4cbf2f02089,689b8c26c5d840382fc36246,,,,,,,,,,,,,,1,,,,,,,,,,,,,,,,,,,,,,,,,,,,,,,,,,,,,,,,,,,,,,,,,,,,,,,,,75,yacer,,,,,718.2183,719.7633,0,0,1.0167,,0,20,20,74,1,REAL,FAKE,,,,,,,,,,,,,,,,,
,,,,,,,,,66831d05b00b3aa4c64b976c,spanish,13 or older,"no, only English or Spanish",no,2025-08-12_14h48.09.132,empathy_intonation_perc,2024.2.4,Win32,58.82352941,66831d05b00b3aa4c64b976c,687ed1b7e638a4cbf2f02089,689b8c26c5d840382fc36246,,,,,,,,,,,,,,1,,,,,,,,,,,,,,,,,,,,,,,,,,,,,,,,,,,,,,,,,,,,,,,,,,,,,,,,,89,prisa,,,,,719.7657,720.9299,1,1,0.635,,0,21,21,88,1,REAL,FAKE,,,,,,,,,,,,,,,,,
,,,,,,,,,66831d05b00b3aa4c64b976c,spanish,13 or older,"no, only English or Spanish",no,2025-08-12_14h48.09.132,empathy_intonation_perc,2024.2.4,Win32,58.82352941,66831d05b00b3aa4c64b976c,687ed1b7e638a4cbf2f02089,689b8c26c5d840382fc36246,,,,,,,,,,,,,,1,,,,,,,,,,,,,,,,,,,,,,,,,,,,,,,,,,,,,,,,,,,,,,,,,,,,,,,,,69,engatusar,,,,,720.9321,723.5218,0,0,2.0612,,0,22,22,68,1,REAL,FAKE,,,,,,,,,,,,,,,,,
,,,,,,,,,66831d05b00b3aa4c64b976c,spanish,13 or older,"no, only English or Spanish",no,2025-08-12_14h48.09.132,empathy_intonation_perc,2024.2.4,Win32,58.82352941,66831d05b00b3aa4c64b976c,687ed1b7e638a4cbf2f02089,689b8c26c5d840382fc36246,,,,,,,,,,,,,,1,,,,,,,,,,,,,,,,,,,,,,,,,,,,,,,,,,,,,,,,,,,,,,,,,,,,,,,,,39,torpe,,,,,723.5251,725.0063,0,0,0.9649,,0,23,23,38,1,REAL,FAKE,,,,,,,,,,,,,,,,,
,,,,,,,,,66831d05b00b3aa4c64b976c,spanish,13 or older,"no, only English or Spanish",no,2025-08-12_14h48.09.132,empathy_intonation_perc,2024.2.4,Win32,58.82352941,66831d05b00b3aa4c64b976c,687ed1b7e638a4cbf2f02089,689b8c26c5d840382fc36246,,,,,,,,,,,,,,1,,,,,,,,,,,,,,,,,,,,,,,,,,,,,,,,,,,,,,,,,,,,,,,,,,,,,,,,,55,nevar,,,,,725.0106,728.0899,1,1,2.5492,,0,24,24,54,1,REAL,FAKE,,,,,,,,,,,,,,,,,
,,,,,,,,,66831d05b00b3aa4c64b976c,spanish,13 or older,"no, only English or Spanish",no,2025-08-12_14h48.09.132,empathy_intonation_perc,2024.2.4,Win32,58.82352941,66831d05b00b3aa4c64b976c,687ed1b7e638a4cbf2f02089,689b8c26c5d840382fc36246,,,,,,,,,,,,,,1,,,,,,,,,,,,,,,,,,,,,,,,,,,,,,,,,,,,,,,,,,,,,,,,,,,,,,,,,88,acantilado,,,,,728.0925,730.0204,0,0,1.4007,,0,25,25,87,1,REAL,FAKE,,,,,,,,,,,,,,,,,
,,,,,,,,,66831d05b00b3aa4c64b976c,spanish,13 or older,"no, only English or Spanish",no,2025-08-12_14h48.09.132,empathy_intonation_perc,2024.2.4,Win32,58.82352941,66831d05b00b3aa4c64b976c,687ed1b7e638a4cbf2f02089,689b8c26c5d840382fc36246,,,,,,,,,,,,,,0,,,,,,,,,,,,,,,,,,,,,,,,,,,,,,,,,,,,,,,,,,,,,,,,,,,,,,,,,72,pemición,,,,,730.0246,732.4683,1,0,1.916,,0,26,26,71,1,REAL,FAKE,,,,,,,,,,,,,,,,,
,,,,,,,,,66831d05b00b3aa4c64b976c,spanish,13 or older,"no, only English or Spanish",no,2025-08-12_14h48.09.132,empathy_intonation_perc,2024.2.4,Win32,58.82352941,66831d05b00b3aa4c64b976c,687ed1b7e638a4cbf2f02089,689b8c26c5d840382fc36246,,,,,,,,,,,,,,1,,,,,,,,,,,,,,,,,,,,,,,,,,,,,,,,,,,,,,,,,,,,,,,,,,,,,,,,,9,hacha,,,,,732.4706,733.7847,1,1,0.7851,,0,27,27,8,1,REAL,FAKE,,,,,,,,,,,,,,,,,
,,,,,,,,,66831d05b00b3aa4c64b976c,spanish,13 or older,"no, only English or Spanish",no,2025-08-12_14h48.09.132,empathy_intonation_perc,2024.2.4,Win32,58.82352941,66831d05b00b3aa4c64b976c,687ed1b7e638a4cbf2f02089,689b8c26c5d840382fc36246,,,,,,,,,,,,,,1,,,,,,,,,,,,,,,,,,,,,,,,,,,,,,,,,,,,,,,,,,,,,,,,,,,,,,,,,41,rebuscar,,,,,733.7869,735.7951,1,1,1.4808,,0,28,28,40,1,REAL,FAKE,,,,,,,,,,,,,,,,,
,,,,,,,,,66831d05b00b3aa4c64b976c,spanish,13 or older,"no, only English or Spanish",no,2025-08-12_14h48.09.132,empathy_intonation_perc,2024.2.4,Win32,58.82352941,66831d05b00b3aa4c64b976c,687ed1b7e638a4cbf2f02089,689b8c26c5d840382fc36246,,,,,,,,,,,,,,0,,,,,,,,,,,,,,,,,,,,,,,,,,,,,,,,,,,,,,,,,,,,,,,,,,,,,,,,,79,tropaje,,,,,735.7987,737.6637,0,1,1.3345,,0,29,29,78,1,REAL,FAKE,,,,,,,,,,,,,,,,,
,,,,,,,,,66831d05b00b3aa4c64b976c,spanish,13 or older,"no, only English or Spanish",no,2025-08-12_14h48.09.132,empathy_intonation_perc,2024.2.4,Win32,58.82352941,66831d05b00b3aa4c64b976c,687ed1b7e638a4cbf2f02089,689b8c26c5d840382fc36246,,,,,,,,,,,,,,1,,,,,,,,,,,,,,,,,,,,,,,,,,,,,,,,,,,,,,,,,,,,,,,,,,,,,,,,,73,hervidor,,,,,737.6663,740.7268,0,0,2.5328,,0,30,30,72,1,REAL,FAKE,,,,,,,,,,,,,,,,,
,,,,,,,,,66831d05b00b3aa4c64b976c,spanish,13 or older,"no, only English or Spanish",no,2025-08-12_14h48.09.132,empathy_intonation_perc,2024.2.4,Win32,58.82352941,66831d05b00b3aa4c64b976c,687ed1b7e638a4cbf2f02089,689b8c26c5d840382fc36246,,,,,,,,,,,,,,0,,,,,,,,,,,,,,,,,,,,,,,,,,,,,,,,,,,,,,,,,,,,,,,,,,,,,,,,,16,abracer,,,,,740.7299,743.1052,0,1,1.8472,,0,31,31,15,1,REAL,FAKE,,,,,,,,,,,,,,,,,
,,,,,,,,,66831d05b00b3aa4c64b976c,spanish,13 or older,"no, only English or Spanish",no,2025-08-12_14h48.09.132,empathy_intonation_perc,2024.2.4,Win32,58.82352941,66831d05b00b3aa4c64b976c,687ed1b7e638a4cbf2f02089,689b8c26c5d840382fc36246,,,,,,,,,,,,,,0,,,,,,,,,,,,,,,,,,,,,,,,,,,,,,,,,,,,,,,,,,,,,,,,,,,,,,,,,4,batillón,,,,,743.1073,744.2269,1,0,0.5888,,0,32,32,3,1,REAL,FAKE,,,,,,,,,,,,,,,,,
,,,,,,,,,66831d05b00b3aa4c64b976c,spanish,13 or older,"no, only English or Spanish",no,2025-08-12_14h48.09.132,empathy_intonation_perc,2024.2.4,Win32,58.82352941,66831d05b00b3aa4c64b976c,687ed1b7e638a4cbf2f02089,689b8c26c5d840382fc36246,,,,,,,,,,,,,,1,,,,,,,,,,,,,,,,,,,,,,,,,,,,,,,,,,,,,,,,,,,,,,,,,,,,,,,,,77,tiburón,,,,,744.2305,745.4679,1,1,0.7135,,0,33,33,76,1,REAL,FAKE,,,,,,,,,,,,,,,,,
,,,,,,,,,66831d05b00b3aa4c64b976c,spanish,13 or older,"no, only English or Spanish",no,2025-08-12_14h48.09.132,empathy_intonation_perc,2024.2.4,Win32,58.82352941,66831d05b00b3aa4c64b976c,687ed1b7e638a4cbf2f02089,689b8c26c5d840382fc36246,,,,,,,,,,,,,,1,,,,,,,,,,,,,,,,,,,,,,,,,,,,,,,,,,,,,,,,,,,,,,,,,,,,,,,,,76,atar,,,,,745.4703,746.8552,1,1,0.8524,,0,34,34,75,1,REAL,FAKE,,,,,,,,,,,,,,,,,
,,,,,,,,,66831d05b00b3aa4c64b976c,spanish,13 or older,"no, only English or Spanish",no,2025-08-12_14h48.09.132,empathy_intonation_perc,2024.2.4,Win32,58.82352941,66831d05b00b3aa4c64b976c,687ed1b7e638a4cbf2f02089,689b8c26c5d840382fc36246,,,,,,,,,,,,,,1,,,,,,,,,,,,,,,,,,,,,,,,,,,,,,,,,,,,,,,,,,,,,,,,,,,,,,,,,67,cabello,,,,,746.8572,748.253,1,1,0.8683,,0,35,35,66,1,REAL,FAKE,,,,,,,,,,,,,,,,,
,,,,,,,,,66831d05b00b3aa4c64b976c,spanish,13 or older,"no, only English or Spanish",no,2025-08-12_14h48.09.132,empathy_intonation_perc,2024.2.4,Win32,58.82352941,66831d05b00b3aa4c64b976c,687ed1b7e638a4cbf2f02089,689b8c26c5d840382fc36246,,,,,,,,,,,,,,1,,,,,,,,,,,,,,,,,,,,,,,,,,,,,,,,,,,,,,,,,,,,,,,,,,,,,,,,,6,tergiversar,,,,,748.256,749.7517,0,0,0.9681,,0,36,36,5,1,REAL,FAKE,,,,,,,,,,,,,,,,,
,,,,,,,,,66831d05b00b3aa4c64b976c,spanish,13 or older,"no, only English or Spanish",no,2025-08-12_14h48.09.132,empathy_intonation_perc,2024.2.4,Win32,58.82352941,66831d05b00b3aa4c64b976c,687ed1b7e638a4cbf2f02089,689b8c26c5d840382fc36246,,,,,,,,,,,,,,1,,,,,,,,,,,,,,,,,,,,,,,,,,,,,,,,,,,,,,,,,,,,,,,,,,,,,,,,,78,frondoso,,,,,749.7541,751.4022,0,0,1.1207,,0,37,37,77,1,REAL,FAKE,,,,,,,,,,,,,,,,,
,,,,,,,,,66831d05b00b3aa4c64b976c,spanish,13 or older,"no, only English or Spanish",no,2025-08-12_14h48.09.132,empathy_intonation_perc,2024.2.4,Win32,58.82352941,66831d05b00b3aa4c64b976c,687ed1b7e638a4cbf2f02089,689b8c26c5d840382fc36246,,,,,,,,,,,,,,1,,,,,,,,,,,,,,,,,,,,,,,,,,,,,,,,,,,,,,,,,,,,,,,,,,,,,,,,,20,ávido,,,,,751.4066,752.5328,1,1,0.6012,,0,38,38,19,1,REAL,FAKE,,,,,,,,,,,,,,,,,
,,,,,,,,,66831d05b00b3aa4c64b976c,spanish,13 or older,"no, only English or Spanish",no,2025-08-12_14h48.09.132,empathy_intonation_perc,2024.2.4,Win32,58.82352941,66831d05b00b3aa4c64b976c,687ed1b7e638a4cbf2f02089,689b8c26c5d840382fc36246,,,,,,,,,,,,,,1,,,,,,,,,,,,,,,,,,,,,,,,,,,,,,,,,,,,,,,,,,,,,,,,,,,,,,,,,80,hormiga,,,,,752.5349,757.2451,1,1,4.1828,,0,39,39,79,1,REAL,FAKE,,,,,,,,,,,,,,,,,
,,,,,,,,,66831d05b00b3aa4c64b976c,spanish,13 or older,"no, only English or Spanish",no,2025-08-12_14h48.09.132,empathy_intonation_perc,2024.2.4,Win32,58.82352941,66831d05b00b3aa4c64b976c,687ed1b7e638a4cbf2f02089,689b8c26c5d840382fc36246,,,,,,,,,,,,,,1,,,,,,,,,,,,,,,,,,,,,,,,,,,,,,,,,,,,,,,,,,,,,,,,,,,,,,,,,2,pellizcar,,,,,757.2473,758.5096,0,0,0.7323,,0,40,40,1,1,REAL,FAKE,,,,,,,,,,,,,,,,,
,,,,,,,,,66831d05b00b3aa4c64b976c,spanish,13 or older,"no, only English or Spanish",no,2025-08-12_14h48.09.132,empathy_intonation_perc,2024.2.4,Win32,58.82352941,66831d05b00b3aa4c64b976c,687ed1b7e638a4cbf2f02089,689b8c26c5d840382fc36246,,,,,,,,,,,,,,1,,,,,,,,,,,,,,,,,,,,,,,,,,,,,,,,,,,,,,,,,,,,,,,,,,,,,,,,,15,regar,,,,,758.5118,759.8144,0,0,0.7705,,0,41,41,14,1,REAL,FAKE,,,,,,,,,,,,,,,,,
,,,,,,,,,66831d05b00b3aa4c64b976c,spanish,13 or older,"no, only English or Spanish",no,2025-08-12_14h48.09.132,empathy_intonation_perc,2024.2.4,Win32,58.82352941,66831d05b00b3aa4c64b976c,687ed1b7e638a4cbf2f02089,689b8c26c5d840382fc36246,,,,,,,,,,,,,,0,,,,,,,,,,,,,,,,,,,,,,,,,,,,,,,,,,,,,,,,,,,,,,,,,,,,,,,,,42,cadallo,,,,,759.8182,760.9309,0,1,0.5853,,0,42,42,41,1,REAL,FAKE,,,,,,,,,,,,,,,,,
,,,,,,,,,66831d05b00b3aa4c64b976c,spanish,13 or older,"no, only English or Spanish",no,2025-08-12_14h48.09.132,empathy_intonation_perc,2024.2.4,Win32,58.82352941,66831d05b00b3aa4c64b976c,687ed1b7e638a4cbf2f02089,689b8c26c5d840382fc36246,,,,,,,,,,,,,,1,,,,,,,,,,,,,,,,,,,,,,,,,,,,,,,,,,,,,,,,,,,,,,,,,,,,,,,,,46,martillo,,,,,760.9342,762.0789,0,0,0.615,,0,43,43,45,1,REAL,FAKE,,,,,,,,,,,,,,,,,
,,,,,,,,,66831d05b00b3aa4c64b976c,spanish,13 or older,"no, only English or Spanish",no,2025-08-12_14h48.09.132,empathy_intonation_perc,2024.2.4,Win32,58.82352941,66831d05b00b3aa4c64b976c,687ed1b7e638a4cbf2f02089,689b8c26c5d840382fc36246,,,,,,,,,,,,,,0,,,,,,,,,,,,,,,,,,,,,,,,,,,,,,,,,,,,,,,,,,,,,,,,,,,,,,,,,53,vegada,,,,,762.0823,763.2277,0,1,0.6151,,0,44,44,52,1,REAL,FAKE,,,,,,,,,,,,,,,,,
,,,,,,,,,66831d05b00b3aa4c64b976c,spanish,13 or older,"no, only English or Spanish",no,2025-08-12_14h48.09.132,empathy_intonation_perc,2024.2.4,Win32,58.82352941,66831d05b00b3aa4c64b976c,687ed1b7e638a4cbf2f02089,689b8c26c5d840382fc36246,,,,,,,,,,,,,,0,,,,,,,,,,,,,,,,,,,,,,,,,,,,,,,,,,,,,,,,,,,,,,,,,,,,,,,,,70,temblo,,,,,763.2313,764.3941,1,0,0.6336,,0,45,45,69,1,REAL,FAKE,,,,,,,,,,,,,,,,,
,,,,,,,,,66831d05b00b3aa4c64b976c,spanish,13 or older,"no, only English or Spanish",no,2025-08-12_14h48.09.132,empathy_intonation_perc,2024.2.4,Win32,58.82352941,66831d05b00b3aa4c64b976c,687ed1b7e638a4cbf2f02089,689b8c26c5d840382fc36246,,,,,,,,,,,,,,0,,,,,,,,,,,,,,,,,,,,,,,,,,,,,,,,,,,,,,,,,,,,,,,,,,,,,,,,,82,empirador,,,,,764.3975,765.5256,1,0,0.5985,,0,46,46,81,1,REAL,FAKE,,,,,,,,,,,,,,,,,
,,,,,,,,,66831d05b00b3aa4c64b976c,spanish,13 or older,"no, only English or Spanish",no,2025-08-12_14h48.09.132,empathy_intonation_perc,2024.2.4,Win32,58.82352941,66831d05b00b3aa4c64b976c,687ed1b7e638a4cbf2f02089,689b8c26c5d840382fc36246,,,,,,,,,,,,,,0,,,,,,,,,,,,,,,,,,,,,,,,,,,,,,,,,,,,,,,,,,,,,,,,,,,,,,,,,63,esposante,,,,,765.5288,769.038,0,1,2.9802,,0,47,47,62,1,REAL,FAKE,,,,,,,,,,,,,,,,,
,,,,,,,,,66831d05b00b3aa4c64b976c,spanish,13 or older,"no, only English or Spanish",no,2025-08-12_14h48.09.132,empathy_intonation_perc,2024.2.4,Win32,58.82352941,66831d05b00b3aa4c64b976c,687ed1b7e638a4cbf2f02089,689b8c26c5d840382fc36246,,,,,,,,,,,,,,1,,,,,,,,,,,,,,,,,,,,,,,,,,,,,,,,,,,,,,,,,,,,,,,,,,,,,,,,,34,aviso,,,,,769.0414,770.3868,1,1,0.8126,,0,48,48,33,1,REAL,FAKE,,,,,,,,,,,,,,,,,
,,,,,,,,,66831d05b00b3aa4c64b976c,spanish,13 or older,"no, only English or Spanish",no,2025-08-12_14h48.09.132,empathy_intonation_perc,2024.2.4,Win32,58.82352941,66831d05b00b3aa4c64b976c,687ed1b7e638a4cbf2f02089,689b8c26c5d840382fc36246,,,,,,,,,,,,,,0,,,,,,,,,,,,,,,,,,,,,,,,,,,,,,,,,,,,,,,,,,,,,,,,,,,,,,,,,1,terzo,,,,,770.3886,771.4759,1,0,0.5599,,0,49,49,0,1,REAL,FAKE,,,,,,,,,,,,,,,,,
,,,,,,,,,66831d05b00b3aa4c64b976c,spanish,13 or older,"no, only English or Spanish",no,2025-08-12_14h48.09.132,empathy_intonation_perc,2024.2.4,Win32,58.82352941,66831d05b00b3aa4c64b976c,687ed1b7e638a4cbf2f02089,689b8c26c5d840382fc36246,,,,,,,,,,,,,,0,,,,,,,,,,,,,,,,,,,,,,,,,,,,,,,,,,,,,,,,,,,,,,,,,,,,,,,,,23,lampera,,,,,771.4783,772.7341,1,0,0.7329,,0,50,50,22,1,REAL,FAKE,,,,,,,,,,,,,,,,,
,,,,,,,,,66831d05b00b3aa4c64b976c,spanish,13 or older,"no, only English or Spanish",no,2025-08-12_14h48.09.132,empathy_intonation_perc,2024.2.4,Win32,58.82352941,66831d05b00b3aa4c64b976c,687ed1b7e638a4cbf2f02089,689b8c26c5d840382fc36246,,,,,,,,,,,,,,1,,,,,,,,,,,,,,,,,,,,,,,,,,,,,,,,,,,,,,,,,,,,,,,,,,,,,,,,,51,candado,,,,,772.7377,774.7332,1,1,1.4686,,0,51,51,50,1,REAL,FAKE,,,,,,,,,,,,,,,,,
,,,,,,,,,66831d05b00b3aa4c64b976c,spanish,13 or older,"no, only English or Spanish",no,2025-08-12_14h48.09.132,empathy_intonation_perc,2024.2.4,Win32,58.82352941,66831d05b00b3aa4c64b976c,687ed1b7e638a4cbf2f02089,689b8c26c5d840382fc36246,,,,,,,,,,,,,,0,,,,,,,,,,,,,,,,,,,,,,,,,,,,,,,,,,,,,,,,,,,,,,,,,,,,,,,,,58,plaudir,,,,,774.7368,776.2317,0,1,0.9629,,0,52,52,57,1,REAL,FAKE,,,,,,,,,,,,,,,,,
,,,,,,,,,66831d05b00b3aa4c64b976c,spanish,13 or older,"no, only English or Spanish",no,2025-08-12_14h48.09.132,empathy_intonation_perc,2024.2.4,Win32,58.82352941,66831d05b00b3aa4c64b976c,687ed1b7e638a4cbf2f02089,689b8c26c5d840382fc36246,,,,,,,,,,,,,,0,,,,,,,,,,,,,,,,,,,,,,,,,,,,,,,,,,,,,,,,,,,,,,,,,,,,,,,,,47,cartinar,,,,,776.2348,777.7801,0,1,1.0143,,0,53,53,46,1,REAL,FAKE,,,,,,,,,,,,,,,,,
,,,,,,,,,66831d05b00b3aa4c64b976c,spanish,13 or older,"no, only English or Spanish",no,2025-08-12_14h48.09.132,empathy_intonation_perc,2024.2.4,Win32,58.82352941,66831d05b00b3aa4c64b976c,687ed1b7e638a4cbf2f02089,689b8c26c5d840382fc36246,,,,,,,,,,,,,,1,,,,,,,,,,,,,,,,,,,,,,,,,,,,,,,,,,,,,,,,,,,,,,,,,,,,,,,,,57,tacaño,,,,,777.7842,779.0123,1,1,0.6977,,0,54,54,56,1,REAL,FAKE,,,,,,,,,,,,,,,,,
,,,,,,,,,66831d05b00b3aa4c64b976c,spanish,13 or older,"no, only English or Spanish",no,2025-08-12_14h48.09.132,empathy_intonation_perc,2024.2.4,Win32,58.82352941,66831d05b00b3aa4c64b976c,687ed1b7e638a4cbf2f02089,689b8c26c5d840382fc36246,,,,,,,,,,,,,,1,,,,,,,,,,,,,,,,,,,,,,,,,,,,,,,,,,,,,,,,,,,,,,,,,,,,,,,,,59,besar,,,,,779.0154,781.6097,1,1,2.0616,,0,55,55,58,1,REAL,FAKE,,,,,,,,,,,,,,,,,
,,,,,,,,,66831d05b00b3aa4c64b976c,spanish,13 or older,"no, only English or Spanish",no,2025-08-12_14h48.09.132,empathy_intonation_perc,2024.2.4,Win32,58.82352941,66831d05b00b3aa4c64b976c,687ed1b7e638a4cbf2f02089,689b8c26c5d840382fc36246,,,,,,,,,,,,,,0,,,,,,,,,,,,,,,,,,,,,,,,,,,,,,,,,,,,,,,,,,,,,,,,,,,,,,,,,33,pauca,,,,,781.6128,784.3571,0,1,2.2139,,0,56,56,32,1,REAL,FAKE,,,,,,,,,,,,,,,,,
,,,,,,,,,66831d05b00b3aa4c64b976c,spanish,13 or older,"no, only English or Spanish",no,2025-08-12_14h48.09.132,empathy_intonation_perc,2024.2.4,Win32,58.82352941,66831d05b00b3aa4c64b976c,687ed1b7e638a4cbf2f02089,689b8c26c5d840382fc36246,,,,,,,,,,,,,,0,,,,,,,,,,,,,,,,,,,,,,,,,,,,,,,,,,,,,,,,,,,,,,,,,,,,,,,,,29,decar,,,,,784.3602,785.9887,0,1,1.0986,,0,57,57,28,1,REAL,FAKE,,,,,,,,,,,,,,,,,
,,,,,,,,,66831d05b00b3aa4c64b976c,spanish,13 or older,"no, only English or Spanish",no,2025-08-12_14h48.09.132,empathy_intonation_perc,2024.2.4,Win32,58.82352941,66831d05b00b3aa4c64b976c,687ed1b7e638a4cbf2f02089,689b8c26c5d840382fc36246,,,,,,,,,,,,,,1,,,,,,,,,,,,,,,,,,,,,,,,,,,,,,,,,,,,,,,,,,,,,,,,,,,,,,,,,12,asesinato,,,,,785.9919,788.4685,1,1,1.9489,,0,58,58,11,1,REAL,FAKE,,,,,,,,,,,,,,,,,
,,,,,,,,,66831d05b00b3aa4c64b976c,spanish,13 or older,"no, only English or Spanish",no,2025-08-12_14h48.09.132,empathy_intonation_perc,2024.2.4,Win32,58.82352941,66831d05b00b3aa4c64b976c,687ed1b7e638a4cbf2f02089,689b8c26c5d840382fc36246,,,,,,,,,,,,,,1,,,,,,,,,,,,,,,,,,,,,,,,,,,,,,,,,,,,,,,,,,,,,,,,,,,,,,,,,28,merodear,,,,,788.4702,790.6564,0,0,1.6578,,0,59,59,27,1,REAL,FAKE,,,,,,,,,,,,,,,,,
,,,,,,,,,66831d05b00b3aa4c64b976c,spanish,13 or older,"no, only English or Spanish",no,2025-08-12_14h48.09.132,empathy_intonation_perc,2024.2.4,Win32,58.82352941,66831d05b00b3aa4c64b976c,687ed1b7e638a4cbf2f02089,689b8c26c5d840382fc36246,,,,,,,,,,,,,,0,,,,,,,,,,,,,,,,,,,,,,,,,,,,,,,,,,,,,,,,,,,,,,,,,,,,,,,,,87,grodo,,,,,790.6586,792.0887,0,1,0.9068,,0,60,60,86,1,REAL,FAKE,,,,,,,,,,,,,,,,,
,,,,,,,,,66831d05b00b3aa4c64b976c,spanish,13 or older,"no, only English or Spanish",no,2025-08-12_14h48.09.132,empathy_intonation_perc,2024.2.4,Win32,58.82352941,66831d05b00b3aa4c64b976c,687ed1b7e638a4cbf2f02089,689b8c26c5d840382fc36246,,,,,,,,,,,,,,0,,,,,,,,,,,,,,,,,,,,,,,,,,,,,,,,,,,,,,,,,,,,,,,,,,,,,,,,,32,fatacidad,,,,,792.0911,794.5471,1,0,1.9311,,0,61,61,31,1,REAL,FAKE,,,,,,,,,,,,,,,,,
,,,,,,,,,66831d05b00b3aa4c64b976c,spanish,13 or older,"no, only English or Spanish",no,2025-08-12_14h48.09.132,empathy_intonation_perc,2024.2.4,Win32,58.82352941,66831d05b00b3aa4c64b976c,687ed1b7e638a4cbf2f02089,689b8c26c5d840382fc36246,,,,,,,,,,,,,,1,,,,,,,,,,,,,,,,,,,,,,,,,,,,,,,,,,,,,,,,,,,,,,,,,,,,,,,,,48,ladrón,,,,,794.5506,796.7949,1,1,1.7106,,0,62,62,47,1,REAL,FAKE,,,,,,,,,,,,,,,,,
,,,,,,,,,66831d05b00b3aa4c64b976c,spanish,13 or older,"no, only English or Spanish",no,2025-08-12_14h48.09.132,empathy_intonation_perc,2024.2.4,Win32,58.82352941,66831d05b00b3aa4c64b976c,687ed1b7e638a4cbf2f02089,689b8c26c5d840382fc36246,,,,,,,,,,,,,,1,,,,,,,,,,,,,,,,,,,,,,,,,,,,,,,,,,,,,,,,,,,,,,,,,,,,,,,,,38,estornudar,,,,,796.7983,799.5589,0,0,2.2296,,0,63,63,37,1,REAL,FAKE,,,,,,,,,,,,,,,,,
,,,,,,,,,66831d05b00b3aa4c64b976c,spanish,13 or older,"no, only English or Spanish",no,2025-08-12_14h48.09.132,empathy_intonation_perc,2024.2.4,Win32,58.82352941,66831d05b00b3aa4c64b976c,687ed1b7e638a4cbf2f02089,689b8c26c5d840382fc36246,,,,,,,,,,,,,,1,,,,,,,,,,,,,,,,,,,,,,,,,,,,,,,,,,,,,,,,,,,,,,,,,,,,,,,,,90,clavel,,,,,799.5623,800.8578,0,0,0.7658,,0,64,64,89,1,REAL,FAKE,,,,,,,,,,,,,,,,,
,,,,,,,,,66831d05b00b3aa4c64b976c,spanish,13 or older,"no, only English or Spanish",no,2025-08-12_14h48.09.132,empathy_intonation_perc,2024.2.4,Win32,58.82352941,66831d05b00b3aa4c64b976c,687ed1b7e638a4cbf2f02089,689b8c26c5d840382fc36246,,,,,,,,,,,,,,1,,,,,,,,,,,,,,,,,,,,,,,,,,,,,,,,,,,,,,,,,,,,,,,,,,,,,,,,,43,canela,,,,,800.8607,802.3406,1,1,0.9524,,0,65,65,42,1,REAL,FAKE,,,,,,,,,,,,,,,,,
,,,,,,,,,66831d05b00b3aa4c64b976c,spanish,13 or older,"no, only English or Spanish",no,2025-08-12_14h48.09.132,empathy_intonation_perc,2024.2.4,Win32,58.82352941,66831d05b00b3aa4c64b976c,687ed1b7e638a4cbf2f02089,689b8c26c5d840382fc36246,,,,,,,,,,,,,,1,,,,,,,,,,,,,,,,,,,,,,,,,,,,,,,,,,,,,,,,,,,,,,,,,,,,,,,,,40,alfombra,,,,,802.344,804.7039,0,0,1.8303,,0,66,66,39,1,REAL,FAKE,,,,,,,,,,,,,,,,,
,,,,,,,,,66831d05b00b3aa4c64b976c,spanish,13 or older,"no, only English or Spanish",no,2025-08-12_14h48.09.132,empathy_intonation_perc,2024.2.4,Win32,58.82352941,66831d05b00b3aa4c64b976c,687ed1b7e638a4cbf2f02089,689b8c26c5d840382fc36246,,,,,,,,,,,,,,1,,,,,,,,,,,,,,,,,,,,,,,,,,,,,,,,,,,,,,,,,,,,,,,,,,,,,,,,,85,laúd,,,,,804.7082,805.8858,1,1,0.6452,,0,67,67,84,1,REAL,FAKE,,,,,,,,,,,,,,,,,
,,,,,,,,,66831d05b00b3aa4c64b976c,spanish,13 or older,"no, only English or Spanish",no,2025-08-12_14h48.09.132,empathy_intonation_perc,2024.2.4,Win32,58.82352941,66831d05b00b3aa4c64b976c,687ed1b7e638a4cbf2f02089,689b8c26c5d840382fc36246,,,,,,,,,,,,,,1,,,,,,,,,,,,,,,,,,,,,,,,,,,,,,,,,,,,,,,,,,,,,,,,,,,,,,,,,31,pandilla,,,,,805.8892,807.5345,1,1,1.1154,,0,68,68,30,1,REAL,FAKE,,,,,,,,,,,,,,,,,
,,,,,,,,,66831d05b00b3aa4c64b976c,spanish,13 or older,"no, only English or Spanish",no,2025-08-12_14h48.09.132,empathy_intonation_perc,2024.2.4,Win32,58.82352941,66831d05b00b3aa4c64b976c,687ed1b7e638a4cbf2f02089,689b8c26c5d840382fc36246,,,,,,,,,,,,,,1,,,,,,,,,,,,,,,,,,,,,,,,,,,,,,,,,,,,,,,,,,,,,,,,,,,,,,,,,83,guante,,,,,807.538,809.5178,1,1,1.453,,0,69,69,82,1,REAL,FAKE,,,,,,,,,,,,,,,,,
,,,,,,,,,66831d05b00b3aa4c64b976c,spanish,13 or older,"no, only English or Spanish",no,2025-08-12_14h48.09.132,empathy_intonation_perc,2024.2.4,Win32,58.82352941,66831d05b00b3aa4c64b976c,687ed1b7e638a4cbf2f02089,689b8c26c5d840382fc36246,,,,,,,,,,,,,,1,,,,,,,,,,,,,,,,,,,,,,,,,,,,,,,,,,,,,,,,,,,,,,,,,,,,,,,,,22,lacayo,,,,,809.5214,810.7978,1,1,0.7448,,0,70,70,21,1,REAL,FAKE,,,,,,,,,,,,,,,,,
,,,,,,,,,66831d05b00b3aa4c64b976c,spanish,13 or older,"no, only English or Spanish",no,2025-08-12_14h48.09.132,empathy_intonation_perc,2024.2.4,Win32,58.82352941,66831d05b00b3aa4c64b976c,687ed1b7e638a4cbf2f02089,689b8c26c5d840382fc36246,,,,,,,,,,,,,,1,,,,,,,,,,,,,,,,,,,,,,,,,,,,,,,,,,,,,,,,,,,,,,,,,,,,,,,,,25,bisagra,,,,,810.8012,811.7803,0,0,0.4486,,0,71,71,24,1,REAL,FAKE,,,,,,,,,,,,,,,,,
,,,,,,,,,66831d05b00b3aa4c64b976c,spanish,13 or older,"no, only English or Spanish",no,2025-08-12_14h48.09.132,empathy_intonation_perc,2024.2.4,Win32,58.82352941,66831d05b00b3aa4c64b976c,687ed1b7e638a4cbf2f02089,689b8c26c5d840382fc36246,,,,,,,,,,,,,,1,,,,,,,,,,,,,,,,,,,,,,,,,,,,,,,,,,,,,,,,,,,,,,,,,,,,,,,,,64,orgulloso,,,,,811.7837,813.112,0,0,0.7975,,0,72,72,63,1,REAL,FAKE,,,,,,,,,,,,,,,,,
,,,,,,,,,66831d05b00b3aa4c64b976c,spanish,13 or older,"no, only English or Spanish",no,2025-08-12_14h48.09.132,empathy_intonation_perc,2024.2.4,Win32,58.82352941,66831d05b00b3aa4c64b976c,687ed1b7e638a4cbf2f02089,689b8c26c5d840382fc36246,,,,,,,,,,,,,,0,,,,,,,,,,,,,,,,,,,,,,,,,,,,,,,,,,,,,,,,,,,,,,,,,,,,,,,,,50,flamida,,,,,813.1151,814.2777,1,0,0.6328,,0,73,73,49,1,REAL,FAKE,,,,,,,,,,,,,,,,,
,,,,,,,,,66831d05b00b3aa4c64b976c,spanish,13 or older,"no, only English or Spanish",no,2025-08-12_14h48.09.132,empathy_intonation_perc,2024.2.4,Win32,58.82352941,66831d05b00b3aa4c64b976c,687ed1b7e638a4cbf2f02089,689b8c26c5d840382fc36246,,,,,,,,,,,,,,0,,,,,,,,,,,,,,,,,,,,,,,,,,,,,,,,,,,,,,,,,,,,,,,,,,,,,,,,,18,arsa,,,,,814.2805,815.4649,1,0,0.6592,,0,74,74,17,1,REAL,FAKE,,,,,,,,,,,,,,,,,
,,,,,,,,,66831d05b00b3aa4c64b976c,spanish,13 or older,"no, only English or Spanish",no,2025-08-12_14h48.09.132,empathy_intonation_perc,2024.2.4,Win32,58.82352941,66831d05b00b3aa4c64b976c,687ed1b7e638a4cbf2f02089,689b8c26c5d840382fc36246,,,,,,,,,,,,,,0,,,,,,,,,,,,,,,,,,,,,,,,,,,,,,,,,,,,,,,,,,,,,,,,,,,,,,,,,74,cintro,,,,,815.4668,816.6426,1,0,0.6497,,0,75,75,73,1,REAL,FAKE,,,,,,,,,,,,,,,,,
,,,,,,,,,66831d05b00b3aa4c64b976c,spanish,13 or older,"no, only English or Spanish",no,2025-08-12_14h48.09.132,empathy_intonation_perc,2024.2.4,Win32,58.82352941,66831d05b00b3aa4c64b976c,687ed1b7e638a4cbf2f02089,689b8c26c5d840382fc36246,,,,,,,,,,,,,,0,,,,,,,,,,,,,,,,,,,,,,,,,,,,,,,,,,,,,,,,,,,,,,,,,,,,,,,,,84,escuto,,,,,816.6453,817.7739,1,0,0.5976,,0,76,76,83,1,REAL,FAKE,,,,,,,,,,,,,,,,,
,,,,,,,,,66831d05b00b3aa4c64b976c,spanish,13 or older,"no, only English or Spanish",no,2025-08-12_14h48.09.132,empathy_intonation_perc,2024.2.4,Win32,58.82352941,66831d05b00b3aa4c64b976c,687ed1b7e638a4cbf2f02089,689b8c26c5d840382fc36246,,,,,,,,,,,,,,1,,,,,,,,,,,,,,,,,,,,,,,,,,,,,,,,,,,,,,,,,,,,,,,,,,,,,,,,,81,pozo,,,,,817.7774,818.8779,1,1,0.5739,,0,77,77,80,1,REAL,FAKE,,,,,,,,,,,,,,,,,
,,,,,,,,,66831d05b00b3aa4c64b976c,spanish,13 or older,"no, only English or Spanish",no,2025-08-12_14h48.09.132,empathy_intonation_perc,2024.2.4,Win32,58.82352941,66831d05b00b3aa4c64b976c,687ed1b7e638a4cbf2f02089,689b8c26c5d840382fc36246,,,,,,,,,,,,,,1,,,,,,,,,,,,,,,,,,,,,,,,,,,,,,,,,,,,,,,,,,,,,,,,,,,,,,,,,5,zapato,,,,,818.8802,820.0234,1,1,0.6178,,0,78,78,4,1,REAL,FAKE,,,,,,,,,,,,,,,,,
,,,,,,,,,66831d05b00b3aa4c64b976c,spanish,13 or older,"no, only English or Spanish",no,2025-08-12_14h48.09.132,empathy_intonation_perc,2024.2.4,Win32,58.82352941,66831d05b00b3aa4c64b976c,687ed1b7e638a4cbf2f02089,689b8c26c5d840382fc36246,,,,,,,,,,,,,,1,,,,,,,,,,,,,,,,,,,,,,,,,,,,,,,,,,,,,,,,,,,,,,,,,,,,,,,,,91,click the 1 key.,,,,,820.0281,821.8417,1,1,1.2886,,0,79,79,90,1,REAL,FAKE,,,,,,,,,,,,,,,,,
,,,,,,,,,66831d05b00b3aa4c64b976c,spanish,13 or older,"no, only English or Spanish",no,2025-08-12_14h48.09.132,empathy_intonation_perc,2024.2.4,Win32,58.82352941,66831d05b00b3aa4c64b976c,687ed1b7e638a4cbf2f02089,689b8c26c5d840382fc36246,,,,,,,,,,,,,,1,,,,,,,,,,,,,,,,,,,,,,,,,,,,,,,,,,,,,,,,,,,,,,,,,,,,,,,,,61,seda,,,,,821.8441,823.1858,0,0,0.8136,,0,80,80,60,1,REAL,FAKE,,,,,,,,,,,,,,,,,
,,,,,,,,,66831d05b00b3aa4c64b976c,spanish,13 or older,"no, only English or Spanish",no,2025-08-12_14h48.09.132,empathy_intonation_perc,2024.2.4,Win32,58.82352941,66831d05b00b3aa4c64b976c,687ed1b7e638a4cbf2f02089,689b8c26c5d840382fc36246,,,,,,,,,,,,,,0,,,,,,,,,,,,,,,,,,,,,,,,,,,,,,,,,,,,,,,,,,,,,,,,,,,,,,,,,8,cadeña,,,,,823.1892,824.5678,1,0,0.8487,,0,81,81,7,1,REAL,FAKE,,,,,,,,,,,,,,,,,
,,,,,,,,,66831d05b00b3aa4c64b976c,spanish,13 or older,"no, only English or Spanish",no,2025-08-12_14h48.09.132,empathy_intonation_perc,2024.2.4,Win32,58.82352941,66831d05b00b3aa4c64b976c,687ed1b7e638a4cbf2f02089,689b8c26c5d840382fc36246,,,,,,,,,,,,,,1,,,,,,,,,,,,,,,,,,,,,,,,,,,,,,,,,,,,,,,,,,,,,,,,,,,,,,,,,24,látigo,,,,,824.5718,825.7558,1,1,0.6578,,0,82,82,23,1,REAL,FAKE,,,,,,,,,,,,,,,,,
,,,,,,,,,66831d05b00b3aa4c64b976c,spanish,13 or older,"no, only English or Spanish",no,2025-08-12_14h48.09.132,empathy_intonation_perc,2024.2.4,Win32,58.82352941,66831d05b00b3aa4c64b976c,687ed1b7e638a4cbf2f02089,689b8c26c5d840382fc36246,,,,,,,,,,,,,,1,,,,,,,,,,,,,,,,,,,,,,,,,,,,,,,,,,,,,,,,,,,,,,,,,,,,,,,,,11,cenefa,,,,,825.7584,827.0153,0,0,0.7323,,0,83,83,10,1,REAL,FAKE,,,,,,,,,,,,,,,,,
,,,,,,,,,66831d05b00b3aa4c64b976c,spanish,13 or older,"no, only English or Spanish",no,2025-08-12_14h48.09.132,empathy_intonation_perc,2024.2.4,Win32,58.82352941,66831d05b00b3aa4c64b976c,687ed1b7e638a4cbf2f02089,689b8c26c5d840382fc36246,,,,,,,,,,,,,,1,,,,,,,,,,,,,,,,,,,,,,,,,,,,,,,,,,,,,,,,,,,,,,,,,,,,,,,,,3,pulmones,,,,,827.0189,828.3145,0,0,0.7637,,0,84,84,2,1,REAL,FAKE,,,,,,,,,,,,,,,,,
,,,,,,,,,66831d05b00b3aa4c64b976c,spanish,13 or older,"no, only English or Spanish",no,2025-08-12_14h48.09.132,empathy_intonation_perc,2024.2.4,Win32,58.82352941,66831d05b00b3aa4c64b976c,687ed1b7e638a4cbf2f02089,689b8c26c5d840382fc36246,,,,,,,,,,,,,,0,,,,,,,,,,,,,,,,,,,,,,,,,,,,,,,,,,,,,,,,,,,,,,,,,,,,,,,,,10,antar,,,,,828.3178,829.9018,0,1,1.0575,,0,85,85,9,1,REAL,FAKE,,,,,,,,,,,,,,,,,
,,,,,,,,,66831d05b00b3aa4c64b976c,spanish,13 or older,"no, only English or Spanish",no,2025-08-12_14h48.09.132,empathy_intonation_perc,2024.2.4,Win32,58.82352941,66831d05b00b3aa4c64b976c,687ed1b7e638a4cbf2f02089,689b8c26c5d840382fc36246,,,,,,,,,,,,,,1,,,,,,,,,,,,,,,,,,,,,,,,,,,,,,,,,,,,,,,,,,,,,,,,,,,,,,,,,71,polvoriento,,,,,829.904,833.4516,0,0,3.0257,,0,86,86,70,1,REAL,FAKE,,,,,,,,,,,,,,,,,
,,,,,,,,,66831d05b00b3aa4c64b976c,spanish,13 or older,"no, only English or Spanish",no,2025-08-12_14h48.09.132,empathy_intonation_perc,2024.2.4,Win32,58.82352941,66831d05b00b3aa4c64b976c,687ed1b7e638a4cbf2f02089,689b8c26c5d840382fc36246,,,,,,,,,,,,,,1,,,,,,,,,,,,,,,,,,,,,,,,,,,,,,,,,,,,,,,,,,,,,,,,,,,,,,,,,49,ganar,,,,,833.4538,835.4014,0,0,1.417,,0,87,87,48,1,REAL,FAKE,,,,,,,,,,,,,,,,,
,,,,,,,,,66831d05b00b3aa4c64b976c,spanish,13 or older,"no, only English or Spanish",no,2025-08-12_14h48.09.132,empathy_intonation_perc,2024.2.4,Win32,58.82352941,66831d05b00b3aa4c64b976c,687ed1b7e638a4cbf2f02089,689b8c26c5d840382fc36246,,,,,,,,,,,,,,1,,,,,,,,,,,,,,,,,,,,,,,,,,,,,,,,,,,,,,,,,,,,,,,,,,,,,,,,,37,granuja,,,,,835.4033,836.6163,0,0,0.6845,,0,88,88,36,1,REAL,FAKE,,,,,,,,,,,,,,,,,
,,,,,,,,,66831d05b00b3aa4c64b976c,spanish,13 or older,"no, only English or Spanish",no,2025-08-12_14h48.09.132,empathy_intonation_perc,2024.2.4,Win32,58.82352941,66831d05b00b3aa4c64b976c,687ed1b7e638a4cbf2f02089,689b8c26c5d840382fc36246,,,,,,,,,,,,,,1,,,,,,,,,,,,,,,,,,,,,,,,,,,,,,,,,,,,,,,,,,,,,,,,,,,,,,,,,68,alegre,,,,,836.6186,837.4824,1,1,0.335,,0,89,89,67,1,REAL,FAKE,,,,,,,,,,,,,,,,,
,,,,,,,,,66831d05b00b3aa4c64b976c,spanish,13 or older,"no, only English or Spanish",no,2025-08-12_14h48.09.132,empathy_intonation_perc,2024.2.4,Win32,58.82352941,66831d05b00b3aa4c64b976c,687ed1b7e638a4cbf2f02089,689b8c26c5d840382fc36246,,,,,,,,,,,,,,1,,,,,,,,,,,,,,,,,,,,,,,,,,,,,,,,,,,,,,,,,,,,,,,,,,,,,,,,,26,secuestro,,,,,837.4842,838.5136,0,0,0.5005,,0,90,90,25,1,REAL,FAKE,,,,,,,,,,,,,,,,,
,,,,,,,,,66831d05b00b3aa4c64b976c,spanish,13 or older,"no, only English or Spanish",no,2025-08-12_14h48.09.132,empathy_intonation_perc,2024.2.4,Win32,58.82352941,66831d05b00b3aa4c64b976c,687ed1b7e638a4cbf2f02089,689b8c26c5d840382fc36246,,,,,,,,,,,,,,0,,,,,,,,,,,,,,,,,,,,,,,,,,,,,,,,,,,,,,,,,,,,,,,,,,,,,,,,,27,acutación,,,,,838.5155,839.8476,1,0,0.8023,,0,91,91,26,1,REAL,FAKE,,,,,,,,,,,,,,,,,
,,,,,,,,,66831d05b00b3aa4c64b976c,spanish,13 or older,"no, only English or Spanish",no,2025-08-12_14h48.09.132,empathy_intonation_perc,2024.2.4,Win32,58.82352941,66831d05b00b3aa4c64b976c,687ed1b7e638a4cbf2f02089,689b8c26c5d840382fc36246,,,,,,,,,,,,,,,,,,,,,,,,,,,,,,,,,,,,,,,,,,,,,,,,,,,,,,,,,,,,,,,,,,,,,,,,,,,,,,,,,,,,,,,,,,839.8485,842.0018,,,,,,,,,,,,,,,
,,,,,,,,,66831d05b00b3aa4c64b976c,spanish,13 or older,"no, only English or Spanish",no,2025-08-12_14h48.09.132,empathy_intonation_perc,2024.2.4,Win32,58.82352941,66831d05b00b3aa4c64b976c,687ed1b7e638a4cbf2f02089,689b8c26c5d840382fc36246,,,,,,,,,,,,,1,,,,,,,,,,,,,,,,,,,,,,,,,,,,,,,,,,,,,,,,,,,,,,,,,,,,,,,,,,,,,,,,,,,,,,,,,,,,,,,842.0444,850.6424,slightly agree,0,0,0,0,1,I can easily tell if someone else wants to enter a conversation.,1,0,1,0,,
,,,,,,,,,66831d05b00b3aa4c64b976c,spanish,13 or older,"no, only English or Spanish",no,2025-08-12_14h48.09.132,empathy_intonation_perc,2024.2.4,Win32,58.82352941,66831d05b00b3aa4c64b976c,687ed1b7e638a4cbf2f02089,689b8c26c5d840382fc36246,,,,,,,,,,,,,2,,,,,,,,,,,,,,,,,,,,,,,,,,,,,,,,,,,,,,,,,,,,,,,,,,,,,,,,,,,,,,,,,,,,,,,,,,,,,,,850.6447,853.8396,slightly agree,0,1,1,1,1,I prefer animals to humans.,0,1,0,0,,
,,,,,,,,,66831d05b00b3aa4c64b976c,spanish,13 or older,"no, only English or Spanish",no,2025-08-12_14h48.09.132,empathy_intonation_perc,2024.2.4,Win32,58.82352941,66831d05b00b3aa4c64b976c,687ed1b7e638a4cbf2f02089,689b8c26c5d840382fc36246,,,,,,,,,,,,,3,,,,,,,,,,,,,,,,,,,,,,,,,,,,,,,,,,,,,,,,,,,,,,,,,,,,,,,,,,,,,,,,,,,,,,,,,,,,,,,853.8456,856.9203,slightly agree,0,2,2,2,1,I try to keep up with the current trends and fashions.,0,1,0,0,,
,,,,,,,,,66831d05b00b3aa4c64b976c,spanish,13 or older,"no, only English or Spanish",no,2025-08-12_14h48.09.132,empathy_intonation_perc,2024.2.4,Win32,58.82352941,66831d05b00b3aa4c64b976c,687ed1b7e638a4cbf2f02089,689b8c26c5d840382fc36246,,,,,,,,,,,,,4,,,,,,,,,,,,,,,,,,,,,,,,,,,,,,,,,,,,,,,,,,,,,,,,,,,,,,,,,,,,,,,,,,,,,,,,,,,,,,,856.9273,865.9114,slightly disagree,0,3,3,3,1,"I find it difficult to explain to others things that I understand easily,   when they don't understand it first time.",1,0,0,1,,
,,,,,,,,,66831d05b00b3aa4c64b976c,spanish,13 or older,"no, only English or Spanish",no,2025-08-12_14h48.09.132,empathy_intonation_perc,2024.2.4,Win32,58.82352941,66831d05b00b3aa4c64b976c,687ed1b7e638a4cbf2f02089,689b8c26c5d840382fc36246,,,,,,,,,,,,,5,,,,,,,,,,,,,,,,,,,,,,,,,,,,,,,,,,,,,,,,,,,,,,,,,,,,,,,,,,,,,,,,,,,,,,,,,,,,,,,865.9153,868.8582,slightly agree,0,4,4,4,1,I dream most nights.,0,1,0,0,,
,,,,,,,,,66831d05b00b3aa4c64b976c,spanish,13 or older,"no, only English or Spanish",no,2025-08-12_14h48.09.132,empathy_intonation_perc,2024.2.4,Win32,58.82352941,66831d05b00b3aa4c64b976c,687ed1b7e638a4cbf2f02089,689b8c26c5d840382fc36246,,,,,,,,,,,,,6,,,,,,,,,,,,,,,,,,,,,,,,,,,,,,,,,,,,,,,,,,,,,,,,,,,,,,,,,,,,,,,,,,,,,,,,,,,,,,,868.8633,872.2073,slightly agree,0,5,5,5,1,I really enjoy caring for other people.,1,0,1,0,,
,,,,,,,,,66831d05b00b3aa4c64b976c,spanish,13 or older,"no, only English or Spanish",no,2025-08-12_14h48.09.132,empathy_intonation_perc,2024.2.4,Win32,58.82352941,66831d05b00b3aa4c64b976c,687ed1b7e638a4cbf2f02089,689b8c26c5d840382fc36246,,,,,,,,,,,,,7,,,,,,,,,,,,,,,,,,,,,,,,,,,,,,,,,,,,,,,,,,,,,,,,,,,,,,,,,,,,,,,,,,,,,,,,,,,,,,,872.2122,902.3429,slightly agree,0,6,6,6,1,I try to solve my own problems rather than discussing them with others.,0,1,0,0,,
,,,,,,,,,66831d05b00b3aa4c64b976c,spanish,13 or older,"no, only English or Spanish",no,2025-08-12_14h48.09.132,empathy_intonation_perc,2024.2.4,Win32,58.82352941,66831d05b00b3aa4c64b976c,687ed1b7e638a4cbf2f02089,689b8c26c5d840382fc36246,,,,,,,,,,,,,8,,,,,,,,,,,,,,,,,,,,,,,,,,,,,,,,,,,,,,,,,,,,,,,,,,,,,,,,,,,,,,,,,,,,,,,,,,,,,,,902.3484,909.246,strongly disagree,0,7,7,7,1,I find it hard to know what to do in a social situation.,1,0,0,1,,
,,,,,,,,,66831d05b00b3aa4c64b976c,spanish,13 or older,"no, only English or Spanish",no,2025-08-12_14h48.09.132,empathy_intonation_perc,2024.2.4,Win32,58.82352941,66831d05b00b3aa4c64b976c,687ed1b7e638a4cbf2f02089,689b8c26c5d840382fc36246,,,,,,,,,,,,,9,,,,,,,,,,,,,,,,,,,,,,,,,,,,,,,,,,,,,,,,,,,,,,,,,,,,,,,,,,,,,,,,,,,,,,,,,,,,,,,909.2507,915.546,slightly disagree,0,8,8,8,1,I am at my best first thing in the morning.,0,1,0,0,,
