instructions_exposure.started,instructions_exposure.stopped,instructions_exposure_loop.thisRepN,instructions_exposure_loop.thisTrialN,instructions_exposure_loop.thisN,instructions_exposure_loop.thisIndex,instructions_exposure_loop.ran,instructions_text,continue_text,participant_id,"What variety of Spanish are you most familiar with? (e.g., Peruvian, Spanish, Mexican)",At what age did you begin learning Spanish?,Are you proficient in any languages other than English/Spanish?,"Are you familiar with Caribbean (e.g., Caribbean, Puerto Rican) or Galician Spanish?",date,expName,psychopyVersion,OS,frameRate,id,study_id,session,trial_exposure.started,trial_exposure.stopped,key_resp_exposure.keys,key_resp_exposure.corr,key_resp_exposure.rt,key_resp_exposure.duration,key_resp.keys,exposure_loop.thisRepN,exposure_loop.thisTrialN,exposure_loop.thisN,exposure_loop.thisIndex,exposure_loop.ran,item_num,correct_response,question,path,duration,instructions_2afc.started,instructions_2afc.stopped,instructions_2afc_loop.thisRepN,instructions_2afc_loop.thisTrialN,instructions_2afc_loop.thisN,instructions_2afc_loop.thisIndex,instructions_2afc_loop.ran,practice_2afc.started,practice_2afc.stopped,key_resp_2afc_practice.keys,key_resp_2afc_practice.corr,key_resp_2afc_practice.rt,key_resp_2afc_practice.duration,trials_2afc_practice_loop.thisRepN,trials_2afc_practice_loop.thisTrialN,trials_2afc_practice_loop.thisN,trials_2afc_practice_loop.thisIndex,trials_2afc_practice_loop.ran,check_2afc.started,check_2afc.stopped,trial_2afc.started,trial_2afc.stopped,key_resp_2afc_trial.keys,key_resp_2afc_trial.corr,key_resp_2afc_trial.rt,key_resp_2afc_trial.duration,trials_2afc_loop.thisRepN,trials_2afc_loop.thisTrialN,trials_2afc_loop.thisN,trials_2afc_loop.thisIndex,trials_2afc_loop.ran,target,variety,instructions_lextale.started,instructions_lextale.stopped,instructions_lextale_loop.thisRepN,instructions_lextale_loop.thisTrialN,instructions_lextale_loop.thisN,instructions_lextale_loop.thisIndex,instructions_lextale_loop.ran,practice_lextale.started,practice_lextale.stopped,key_resp_lextale_practice.keys,key_resp_lextale_practice.corr,key_resp_lextale_practice.rt,key_resp_lextale_practice.duration,practice_feedback_lextale.started,practice_feedback_lextale.stopped,trials_lextale_practice_loop.thisRepN,trials_lextale_practice_loop.thisTrialN,trials_lextale_practice_loop.thisN,trials_lextale_practice_loop.thisIndex,trials_lextale_practice_loop.ran,stim,word,prac_button_real,prac_button_false,check_lextale.started,check_lextale.stopped,trial_lextale.started,trial_lextale.stopped,key_resp_lextale_trial.keys,key_resp_lextale_trial.corr,key_resp_lextale_trial.rt,key_resp_lextale_trial.duration,trials_lextale_loop.thisRepN,trials_lextale_loop.thisTrialN,trials_lextale_loop.thisN,trials_lextale_loop.thisIndex,trials_lextale_loop.ran,button_real,button_false,instructions_eq.started,instructions_eq.stopped,trial_eq.started,trial_eq.stopped,slider_eq_trial.response,trials_eq_loop.thisRepN,trials_eq_loop.thisTrialN,trials_eq_loop.thisN,trials_eq_loop.thisIndex,trials_eq_loop.ran,item,is_test_item,is_distractor,is_agree_score,is_disagree_score,end_exp.started,end_exp.stopped
0.006,1.642,0,0,0,0,1,"In the following task, you are going to hear a series of conversations.", (press the space bar to continue),66ad3561c1e5c019916365fb,not sure,13 or older,"no, only English or Spanish",no,2025-08-13_17h44.18.741,empathy_intonation_perc,2024.2.4,Linux x86_64,58.82352941,66ad3561c1e5c019916365fb,687ed1b7e638a4cbf2f02089,689d06cbf62111061be3c2ae,,,,,,,,,,,,,,,,,,,,,,,,,,,,,,,,,,,,,,,,,,,,,,,,,,,,,,,,,,,,,,,,,,,,,,,,,,,,,,,,,,,,,,,,,,,,,,,,,,,,,,,,,,
1.643,10.476,0,1,1,1,1,It is okay if you don't not 100% understand them!, (press the space bar to continue),66ad3561c1e5c019916365fb,not sure,13 or older,"no, only English or Spanish",no,2025-08-13_17h44.18.741,empathy_intonation_perc,2024.2.4,Linux x86_64,58.82352941,66ad3561c1e5c019916365fb,687ed1b7e638a4cbf2f02089,689d06cbf62111061be3c2ae,,,,,,,,,,,,,,,,,,,,,,,,,,,,,,,,,,,,,,,,,,,,,,,,,,,,,,,,,,,,,,,,,,,,,,,,,,,,,,,,,,,,,,,,,,,,,,,,,,,,,,,,,,
10.482,19.093,0,2,2,2,1,"After, you will read a sentence about the conversation and decide if it's true or false.", (press the space bar to continue),66ad3561c1e5c019916365fb,not sure,13 or older,"no, only English or Spanish",no,2025-08-13_17h44.18.741,empathy_intonation_perc,2024.2.4,Linux x86_64,58.82352941,66ad3561c1e5c019916365fb,687ed1b7e638a4cbf2f02089,689d06cbf62111061be3c2ae,,,,,,,,,,,,,,,,,,,,,,,,,,,,,,,,,,,,,,,,,,,,,,,,,,,,,,,,,,,,,,,,,,,,,,,,,,,,,,,,,,,,,,,,,,,,,,,,,,,,,,,,,,
19.095,22.464,0,3,3,3,1,"If it's true, press '1' (True) and if it's false press '0' (False).", (press the space bar to continue),66ad3561c1e5c019916365fb,not sure,13 or older,"no, only English or Spanish",no,2025-08-13_17h44.18.741,empathy_intonation_perc,2024.2.4,Linux x86_64,58.82352941,66ad3561c1e5c019916365fb,687ed1b7e638a4cbf2f02089,689d06cbf62111061be3c2ae,,,,,,,,,,,,,,,,,,,,,,,,,,,,,,,,,,,,,,,,,,,,,,,,,,,,,,,,,,,,,,,,,,,,,,,,,,,,,,,,,,,,,,,,,,,,,,,,,,,,,,,,,,
,,,,,,,,,66ad3561c1e5c019916365fb,not sure,13 or older,"no, only English or Spanish",no,2025-08-13_17h44.18.741,empathy_intonation_perc,2024.2.4,Linux x86_64,58.82352941,66ad3561c1e5c019916365fb,687ed1b7e638a4cbf2f02089,689d06cbf62111061be3c2ae,22.473,70.558,1,1,1.035,,,0,0,0,0,1,1,1,The son asked the mom if Aunt Marina is okay.,./stim/exposure_wavs/ga_stimuli_convo.wav,47,,,,,,,,,,,,,,,,,,,,,,,,,,,,,,,,,,,,,,,,,,,,,,,,,,,,,,,,,,,,,,,,,,,,,,,,,,,,,,,,,,,,,,,,,
,,,,,,,,,66ad3561c1e5c019916365fb,not sure,13 or older,"no, only English or Spanish",no,2025-08-13_17h44.18.741,empathy_intonation_perc,2024.2.4,Linux x86_64,58.82352941,66ad3561c1e5c019916365fb,687ed1b7e638a4cbf2f02089,689d06cbf62111061be3c2ae,70.566,109.363,0,1,2.771,,,0,1,1,2,1,3,0,The mom already has rice.,./stim/exposure_wavs/pr_stimuli_convo.wav,36,,,,,,,,,,,,,,,,,,,,,,,,,,,,,,,,,,,,,,,,,,,,,,,,,,,,,,,,,,,,,,,,,,,,,,,,,,,,,,,,,,,,,,,,,
,,,,,,,,,66ad3561c1e5c019916365fb,not sure,13 or older,"no, only English or Spanish",no,2025-08-13_17h44.18.741,empathy_intonation_perc,2024.2.4,Linux x86_64,58.82352941,66ad3561c1e5c019916365fb,687ed1b7e638a4cbf2f02089,689d06cbf62111061be3c2ae,109.371,170.293,1,1,0.891,,,0,2,2,1,1,2,1,The mom asked the daughter if she already went to the supermarket.,./stim/exposure_wavs/dr_stimuli_convo.wav,60,,,,,,,,,,,,,,,,,,,,,,,,,,,,,,,,,,,,,,,,,,,,,,,,,,,,,,,,,,,,,,,,,,,,,,,,,,,,,,,,,,,,,,,,,
,,,,,,,"In the following task you are going to hear a series of utterances. 

  You will decide if the utterances sound like questions or not using your keyboard.", (press the spacebar to continue),66ad3561c1e5c019916365fb,not sure,13 or older,"no, only English or Spanish",no,2025-08-13_17h44.18.741,empathy_intonation_perc,2024.2.4,Linux x86_64,58.82352941,66ad3561c1e5c019916365fb,687ed1b7e638a4cbf2f02089,689d06cbf62111061be3c2ae,,,,,,,,,,,,,,,,,,170.303,174.583,0,0,0,0,1,,,,,,,,,,,,,,,,,,,,,,,,,,,,,,,,,,,,,,,,,,,,,,,,,,,,,,,,,,,,,,,,,,,,,,,,,,,,,,,,,,
,,,,,,,"If you believe the utterance is a question, type '1' (for 'yes') and if you do not 
  believe it is a question type '0' (for 'no').

  Let's practice a bit...", (press the spacebar to continue),66ad3561c1e5c019916365fb,not sure,13 or older,"no, only English or Spanish",no,2025-08-13_17h44.18.741,empathy_intonation_perc,2024.2.4,Linux x86_64,58.82352941,66ad3561c1e5c019916365fb,687ed1b7e638a4cbf2f02089,689d06cbf62111061be3c2ae,,,,,,,,,,,,,,,,,,174.587,176.572,0,1,1,1,1,,,,,,,,,,,,,,,,,,,,,,,,,,,,,,,,,,,,,,,,,,,,,,,,,,,,,,,,,,,,,,,,,,,,,,,,,,,,,,,,,,
,,,,,,,,,66ad3561c1e5c019916365fb,not sure,13 or older,"no, only English or Spanish",no,2025-08-13_17h44.18.741,empathy_intonation_perc,2024.2.4,Linux x86_64,58.82352941,66ad3561c1e5c019916365fb,687ed1b7e638a4cbf2f02089,689d06cbf62111061be3c2ae,,,,,,,,,,,,,,1,,./stim/wavs/argentine_question_filler_Mi-vecino-habla-mucho.wav,,,,,,,,,176.585,179.544,1,1,2.45,,0,0,0,1,1,,,,,,,,,,,,,,,,,,,,,,,,,,,,,,,,,,,,,,,,,,,,,,,,,,,,,,,,,,,,,,,,,,,,,,,
,,,,,,,,,66ad3561c1e5c019916365fb,not sure,13 or older,"no, only English or Spanish",no,2025-08-13_17h44.18.741,empathy_intonation_perc,2024.2.4,Linux x86_64,58.82352941,66ad3561c1e5c019916365fb,687ed1b7e638a4cbf2f02089,689d06cbf62111061be3c2ae,,,,,,,,,,,,,,0,,./stim/wavs/peruvian_statement_filler_El-nino-habla-con-su-madre.wav,,,,,,,,,179.545,182.747,0,1,2.688,,0,1,1,6,1,,,,,,,,,,,,,,,,,,,,,,,,,,,,,,,,,,,,,,,,,,,,,,,,,,,,,,,,,,,,,,,,,,,,,,,
,,,,,,,,,66ad3561c1e5c019916365fb,not sure,13 or older,"no, only English or Spanish",no,2025-08-13_17h44.18.741,empathy_intonation_perc,2024.2.4,Linux x86_64,58.82352941,66ad3561c1e5c019916365fb,687ed1b7e638a4cbf2f02089,689d06cbf62111061be3c2ae,,,,,,,,,,,,,,0,,./stim/wavs/puertorican_statement_filler_La-nina-pinta-con-su-amiga.wav,,,,,,,,,182.748,185.555,1,0,2.292,,0,2,2,7,1,,,,,,,,,,,,,,,,,,,,,,,,,,,,,,,,,,,,,,,,,,,,,,,,,,,,,,,,,,,,,,,,,,,,,,,
,,,,,,,,,66ad3561c1e5c019916365fb,not sure,13 or older,"no, only English or Spanish",no,2025-08-13_17h44.18.741,empathy_intonation_perc,2024.2.4,Linux x86_64,58.82352941,66ad3561c1e5c019916365fb,687ed1b7e638a4cbf2f02089,689d06cbf62111061be3c2ae,,,,,,,,,,,,,,1,,./stim/wavs/castilian_question_filler_Mi-esposo-conoce-al-chico.wav,,,,,,,,,185.557,188.191,1,1,2.109,,0,3,3,0,1,,,,,,,,,,,,,,,,,,,,,,,,,,,,,,,,,,,,,,,,,,,,,,,,,,,,,,,,,,,,,,,,,,,,,,,
,,,,,,,,,66ad3561c1e5c019916365fb,not sure,13 or older,"no, only English or Spanish",no,2025-08-13_17h44.18.741,empathy_intonation_perc,2024.2.4,Linux x86_64,58.82352941,66ad3561c1e5c019916365fb,687ed1b7e638a4cbf2f02089,689d06cbf62111061be3c2ae,,,,,,,,,,,,,,0,,./stim/wavs/cuban_statement_filler_Cocinabas-por-la-noche.wav,,,,,,,,,188.192,190.966,0,1,2.256,,0,4,4,4,1,,,,,,,,,,,,,,,,,,,,,,,,,,,,,,,,,,,,,,,,,,,,,,,,,,,,,,,,,,,,,,,,,,,,,,,
,,,,,,,,,66ad3561c1e5c019916365fb,not sure,13 or older,"no, only English or Spanish",no,2025-08-13_17h44.18.741,empathy_intonation_perc,2024.2.4,Linux x86_64,58.82352941,66ad3561c1e5c019916365fb,687ed1b7e638a4cbf2f02089,689d06cbf62111061be3c2ae,,,,,,,,,,,,,,1,,./stim/wavs/mexican_question_filler_Felipe-no-tiene-contrasena.wav,,,,,,,,,190.967,193.221,1,1,1.732,,0,5,5,3,1,,,,,,,,,,,,,,,,,,,,,,,,,,,,,,,,,,,,,,,,,,,,,,,,,,,,,,,,,,,,,,,,,,,,,,,
,,,,,,,,,66ad3561c1e5c019916365fb,not sure,13 or older,"no, only English or Spanish",no,2025-08-13_17h44.18.741,empathy_intonation_perc,2024.2.4,Linux x86_64,58.82352941,66ad3561c1e5c019916365fb,687ed1b7e638a4cbf2f02089,689d06cbf62111061be3c2ae,,,,,,,,,,,,,,1,,./stim/wavs/chilean_question_filler_Mi-padre-cantaba-bien.wav,,,,,,,,,193.225,195.207,0,0,1.458,,0,6,6,2,1,,,,,,,,,,,,,,,,,,,,,,,,,,,,,,,,,,,,,,,,,,,,,,,,,,,,,,,,,,,,,,,,,,,,,,,
,,,,,,,,,66ad3561c1e5c019916365fb,not sure,13 or older,"no, only English or Spanish",no,2025-08-13_17h44.18.741,empathy_intonation_perc,2024.2.4,Linux x86_64,58.82352941,66ad3561c1e5c019916365fb,687ed1b7e638a4cbf2f02089,689d06cbf62111061be3c2ae,,,,,,,,,,,,,,0,,./stim/wavs/andalusian_statement_filler_Alberto-nunca-se-afeita.wav,,,,,,,,,195.209,197.713,0,1,1.992,,0,7,7,5,1,,,,,,,,,,,,,,,,,,,,,,,,,,,,,,,,,,,,,,,,,,,,,,,,,,,,,,,,,,,,,,,,,,,,,,,
,,,,,,,,,66ad3561c1e5c019916365fb,not sure,13 or older,"no, only English or Spanish",no,2025-08-13_17h44.18.741,empathy_intonation_perc,2024.2.4,Linux x86_64,58.82352941,66ad3561c1e5c019916365fb,687ed1b7e638a4cbf2f02089,689d06cbf62111061be3c2ae,,,,,,,,,,,,,,,,,,,,,,,,,,,,,,,,,,,,197.714,199.996,,,,,,,,,,,,,,,,,,,,,,,,,,,,,,,,,,,,,,,,,,,,,,,,,,,,,,,,,,,,,,,,,,,,,
,,,,,,,,,66ad3561c1e5c019916365fb,not sure,13 or older,"no, only English or Spanish",no,2025-08-13_17h44.18.741,empathy_intonation_perc,2024.2.4,Linux x86_64,58.82352941,66ad3561c1e5c019916365fb,687ed1b7e638a4cbf2f02089,689d06cbf62111061be3c2ae,,,,,,,,,,,,,58,0,,./stim/wavs/mexican_match_declarative-broad-focus_Daniel-iba-a-Bolivia.wav,,,,,,,,,,,,,,,,,,,,,,200.01,202.002,0,1,1.472,,0,0,0,57,1,0,mexican,,,,,,,,,,,,,,,,,,,,,,,,,,,,,,,,,,,,,,,,,,,,,,,,,,,,,,,,
,,,,,,,,,66ad3561c1e5c019916365fb,not sure,13 or older,"no, only English or Spanish",no,2025-08-13_17h44.18.741,empathy_intonation_perc,2024.2.4,Linux x86_64,58.82352941,66ad3561c1e5c019916365fb,687ed1b7e638a4cbf2f02089,689d06cbf62111061be3c2ae,,,,,,,,,,,,,72,0,,./stim/wavs/castilian_mismatch_declarative-broad-focus_Mi-novio-viene-del-lago.wav,,,,,,,,,,,,,,,,,,,,,,202.003,204.525,0,1,2.013,,0,1,1,71,1,0,castilian,,,,,,,,,,,,,,,,,,,,,,,,,,,,,,,,,,,,,,,,,,,,,,,,,,,,,,,,
,,,,,,,,,66ad3561c1e5c019916365fb,not sure,13 or older,"no, only English or Spanish",no,2025-08-13_17h44.18.741,empathy_intonation_perc,2024.2.4,Linux x86_64,58.82352941,66ad3561c1e5c019916365fb,687ed1b7e638a4cbf2f02089,689d06cbf62111061be3c2ae,,,,,,,,,,,,,44,1,,./stim/wavs/puertorican_mismatch_interrogative-total-yn_Mi-madre-come-la-fruta.wav,,,,,,,,,,,,,,,,,,,,,,204.525,206.797,0,0,1.755,,0,2,2,43,1,1,puertorican,,,,,,,,,,,,,,,,,,,,,,,,,,,,,,,,,,,,,,,,,,,,,,,,,,,,,,,,
,,,,,,,,,66ad3561c1e5c019916365fb,not sure,13 or older,"no, only English or Spanish",no,2025-08-13_17h44.18.741,empathy_intonation_perc,2024.2.4,Linux x86_64,58.82352941,66ad3561c1e5c019916365fb,687ed1b7e638a4cbf2f02089,689d06cbf62111061be3c2ae,,,,,,,,,,,,,69,0,,./stim/wavs/castilian_mismatch_declarative-broad-focus_El-nino-oye-el-rio.wav,,,,,,,,,,,,,,,,,,,,,,206.798,209.333,1,0,2.026,,0,3,3,68,1,0,castilian,,,,,,,,,,,,,,,,,,,,,,,,,,,,,,,,,,,,,,,,,,,,,,,,,,,,,,,,
,,,,,,,,,66ad3561c1e5c019916365fb,not sure,13 or older,"no, only English or Spanish",no,2025-08-13_17h44.18.741,empathy_intonation_perc,2024.2.4,Linux x86_64,58.82352941,66ad3561c1e5c019916365fb,687ed1b7e638a4cbf2f02089,689d06cbf62111061be3c2ae,,,,,,,,,,,,,20,1,,./stim/wavs/puertorican_match_interrogative-total-yn_Daniel-iba-a-Bolivia.wav,,,,,,,,,,,,,,,,,,,,,,209.334,212.473,0,0,2.634,,0,4,4,19,1,1,puertorican,,,,,,,,,,,,,,,,,,,,,,,,,,,,,,,,,,,,,,,,,,,,,,,,,,,,,,,,
,,,,,,,,,66ad3561c1e5c019916365fb,not sure,13 or older,"no, only English or Spanish",no,2025-08-13_17h44.18.741,empathy_intonation_perc,2024.2.4,Linux x86_64,58.82352941,66ad3561c1e5c019916365fb,687ed1b7e638a4cbf2f02089,689d06cbf62111061be3c2ae,,,,,,,,,,,,,86,0,,./stim/wavs/puertorican_mismatch_declarative-broad-focus_El-nino-oye-el-rio.wav,,,,,,,,,,,,,,,,,,,,,,212.474,214.391,1,0,1.388,,0,5,5,85,1,0,puertorican,,,,,,,,,,,,,,,,,,,,,,,,,,,,,,,,,,,,,,,,,,,,,,,,,,,,,,,,
,,,,,,,,,66ad3561c1e5c019916365fb,not sure,13 or older,"no, only English or Spanish",no,2025-08-13_17h44.18.741,empathy_intonation_perc,2024.2.4,Linux x86_64,58.82352941,66ad3561c1e5c019916365fb,687ed1b7e638a4cbf2f02089,689d06cbf62111061be3c2ae,,,,,,,,,,,,,48,0,,./stim/wavs/castilian_match_declarative-broad-focus_Maria-bebe-el-vino.wav,,,,,,,,,,,,,,,,,,,,,,214.392,216.497,1,0,1.592,,0,6,6,47,1,0,castilian,,,,,,,,,,,,,,,,,,,,,,,,,,,,,,,,,,,,,,,,,,,,,,,,,,,,,,,,
,,,,,,,,,66ad3561c1e5c019916365fb,not sure,13 or older,"no, only English or Spanish",no,2025-08-13_17h44.18.741,empathy_intonation_perc,2024.2.4,Linux x86_64,58.82352941,66ad3561c1e5c019916365fb,687ed1b7e638a4cbf2f02089,689d06cbf62111061be3c2ae,,,,,,,,,,,,,73,0,,./stim/wavs/castilian_mismatch_declarative-broad-focus_Mi-tia-odia-la-lluvia.wav,,,,,,,,,,,,,,,,,,,,,,216.498,218.8,1,0,1.777,,0,7,7,72,1,0,castilian,,,,,,,,,,,,,,,,,,,,,,,,,,,,,,,,,,,,,,,,,,,,,,,,,,,,,,,,
,,,,,,,,,66ad3561c1e5c019916365fb,not sure,13 or older,"no, only English or Spanish",no,2025-08-13_17h44.18.741,empathy_intonation_perc,2024.2.4,Linux x86_64,58.82352941,66ad3561c1e5c019916365fb,687ed1b7e638a4cbf2f02089,689d06cbf62111061be3c2ae,,,,,,,,,,,,,63,0,,./stim/wavs/puertorican_match_declarative-broad-focus_Ana-lleva-el-abrigo.wav,,,,,,,,,,,,,,,,,,,,,,218.801,220.671,0,1,1.366,,0,8,8,62,1,0,puertorican,,,,,,,,,,,,,,,,,,,,,,,,,,,,,,,,,,,,,,,,,,,,,,,,,,,,,,,,
,,,,,,,,,66ad3561c1e5c019916365fb,not sure,13 or older,"no, only English or Spanish",no,2025-08-13_17h44.18.741,empathy_intonation_perc,2024.2.4,Linux x86_64,58.82352941,66ad3561c1e5c019916365fb,687ed1b7e638a4cbf2f02089,689d06cbf62111061be3c2ae,,,,,,,,,,,,,3,1,,./stim/wavs/castilian_match_interrogative-total-yn_Manuela-vende-el-carro.wav,,,,,,,,,,,,,,,,,,,,,,220.672,223.493,1,1,2.292,,0,9,9,2,1,0,castilian,,,,,,,,,,,,,,,,,,,,,,,,,,,,,,,,,,,,,,,,,,,,,,,,,,,,,,,,
,,,,,,,,,66ad3561c1e5c019916365fb,not sure,13 or older,"no, only English or Spanish",no,2025-08-13_17h44.18.741,empathy_intonation_perc,2024.2.4,Linux x86_64,58.82352941,66ad3561c1e5c019916365fb,687ed1b7e638a4cbf2f02089,689d06cbf62111061be3c2ae,,,,,,,,,,,,,88,0,,./stim/wavs/puertorican_mismatch_declarative-broad-focus_La-nina-lava-el-plato.wav,,,,,,,,,,,,,,,,,,,,,,223.495,225.514,0,1,1.498,,0,10,10,87,1,0,puertorican,,,,,,,,,,,,,,,,,,,,,,,,,,,,,,,,,,,,,,,,,,,,,,,,,,,,,,,,
,,,,,,,,,66ad3561c1e5c019916365fb,not sure,13 or older,"no, only English or Spanish",no,2025-08-13_17h44.18.741,empathy_intonation_perc,2024.2.4,Linux x86_64,58.82352941,66ad3561c1e5c019916365fb,687ed1b7e638a4cbf2f02089,689d06cbf62111061be3c2ae,,,,,,,,,,,,,40,1,,./stim/wavs/puertorican_mismatch_interrogative-total-yn_El-hombre-mira-la-luna.wav,,,,,,,,,,,,,,,,,,,,,,225.515,227.768,0,0,1.747,,0,11,11,39,1,1,puertorican,,,,,,,,,,,,,,,,,,,,,,,,,,,,,,,,,,,,,,,,,,,,,,,,,,,,,,,,
,,,,,,,,,66ad3561c1e5c019916365fb,not sure,13 or older,"no, only English or Spanish",no,2025-08-13_17h44.18.741,empathy_intonation_perc,2024.2.4,Linux x86_64,58.82352941,66ad3561c1e5c019916365fb,687ed1b7e638a4cbf2f02089,689d06cbf62111061be3c2ae,,,,,,,,,,,,,54,0,,./stim/wavs/cuban_match_declarative-broad-focus_Maria-bebe-el-vino.wav,,,,,,,,,,,,,,,,,,,,,,227.768,230.07,0,1,1.782,,0,12,12,53,1,0,cuban,,,,,,,,,,,,,,,,,,,,,,,,,,,,,,,,,,,,,,,,,,,,,,,,,,,,,,,,
,,,,,,,,,66ad3561c1e5c019916365fb,not sure,13 or older,"no, only English or Spanish",no,2025-08-13_17h44.18.741,empathy_intonation_perc,2024.2.4,Linux x86_64,58.82352941,66ad3561c1e5c019916365fb,687ed1b7e638a4cbf2f02089,689d06cbf62111061be3c2ae,,,,,,,,,,,,,76,0,,./stim/wavs/cuban_mismatch_declarative-broad-focus_La-nina-lava-el-plato.wav,,,,,,,,,,,,,,,,,,,,,,230.07,232.109,0,1,1.519,,0,13,13,75,1,0,cuban,,,,,,,,,,,,,,,,,,,,,,,,,,,,,,,,,,,,,,,,,,,,,,,,,,,,,,,,
,,,,,,,,,66ad3561c1e5c019916365fb,not sure,13 or older,"no, only English or Spanish",no,2025-08-13_17h44.18.741,empathy_intonation_perc,2024.2.4,Linux x86_64,58.82352941,66ad3561c1e5c019916365fb,687ed1b7e638a4cbf2f02089,689d06cbf62111061be3c2ae,,,,,,,,,,,,,23,1,,./stim/wavs/puertorican_match_interrogative-total-yn_Manuela-vende-el-carro.wav,,,,,,,,,,,,,,,,,,,,,,232.111,234.247,1,1,1.611,,0,14,14,22,1,1,puertorican,,,,,,,,,,,,,,,,,,,,,,,,,,,,,,,,,,,,,,,,,,,,,,,,,,,,,,,,
,,,,,,,,,66ad3561c1e5c019916365fb,not sure,13 or older,"no, only English or Spanish",no,2025-08-13_17h44.18.741,empathy_intonation_perc,2024.2.4,Linux x86_64,58.82352941,66ad3561c1e5c019916365fb,687ed1b7e638a4cbf2f02089,689d06cbf62111061be3c2ae,,,,,,,,,,,,,1,1,,./stim/wavs/castilian_match_interrogative-total-yn_David-leia-el-libro.wav,,,,,,,,,,,,,,,,,,,,,,234.248,236.418,1,1,1.655,,0,15,15,0,1,0,castilian,,,,,,,,,,,,,,,,,,,,,,,,,,,,,,,,,,,,,,,,,,,,,,,,,,,,,,,,
,,,,,,,,,66ad3561c1e5c019916365fb,not sure,13 or older,"no, only English or Spanish",no,2025-08-13_17h44.18.741,empathy_intonation_perc,2024.2.4,Linux x86_64,58.82352941,66ad3561c1e5c019916365fb,687ed1b7e638a4cbf2f02089,689d06cbf62111061be3c2ae,,,,,,,,,,,,,83,0,,./stim/wavs/mexican_mismatch_declarative-broad-focus_Mi-tia-odia-la-lluvia.wav,,,,,,,,,,,,,,,,,,,,,,236.419,238.688,0,1,1.764,,0,16,16,82,1,0,mexican,,,,,,,,,,,,,,,,,,,,,,,,,,,,,,,,,,,,,,,,,,,,,,,,,,,,,,,,
,,,,,,,,,66ad3561c1e5c019916365fb,not sure,13 or older,"no, only English or Spanish",no,2025-08-13_17h44.18.741,empathy_intonation_perc,2024.2.4,Linux x86_64,58.82352941,66ad3561c1e5c019916365fb,687ed1b7e638a4cbf2f02089,689d06cbf62111061be3c2ae,,,,,,,,,,,,,38,1,,./stim/wavs/mexican_mismatch_interrogative-total-yn_Mi-novio-viene-del-lago.wav,,,,,,,,,,,,,,,,,,,,,,238.688,241.028,1,1,1.824,,0,17,17,37,1,0,mexican,,,,,,,,,,,,,,,,,,,,,,,,,,,,,,,,,,,,,,,,,,,,,,,,,,,,,,,,
,,,,,,,,,66ad3561c1e5c019916365fb,not sure,13 or older,"no, only English or Spanish",no,2025-08-13_17h44.18.741,empathy_intonation_perc,2024.2.4,Linux x86_64,58.82352941,66ad3561c1e5c019916365fb,687ed1b7e638a4cbf2f02089,689d06cbf62111061be3c2ae,,,,,,,,,,,,,80,0,,./stim/wavs/mexican_mismatch_declarative-broad-focus_El-hombre-mira-la-luna.wav,,,,,,,,,,,,,,,,,,,,,,241.028,243.23,0,1,1.692,,0,18,18,79,1,0,mexican,,,,,,,,,,,,,,,,,,,,,,,,,,,,,,,,,,,,,,,,,,,,,,,,,,,,,,,,
,,,,,,,,,66ad3561c1e5c019916365fb,not sure,13 or older,"no, only English or Spanish",no,2025-08-13_17h44.18.741,empathy_intonation_perc,2024.2.4,Linux x86_64,58.82352941,66ad3561c1e5c019916365fb,687ed1b7e638a4cbf2f02089,689d06cbf62111061be3c2ae,,,,,,,,,,,,,77,0,,./stim/wavs/cuban_mismatch_declarative-broad-focus_Mi-novio-viene-del-lago.wav,,,,,,,,,,,,,,,,,,,,,,243.231,245.653,0,1,1.905,,0,19,19,76,1,0,cuban,,,,,,,,,,,,,,,,,,,,,,,,,,,,,,,,,,,,,,,,,,,,,,,,,,,,,,,,
,,,,,,,,,66ad3561c1e5c019916365fb,not sure,13 or older,"no, only English or Spanish",no,2025-08-13_17h44.18.741,empathy_intonation_perc,2024.2.4,Linux x86_64,58.82352941,66ad3561c1e5c019916365fb,687ed1b7e638a4cbf2f02089,689d06cbf62111061be3c2ae,,,,,,,,,,,,,47,0,,./stim/wavs/castilian_match_declarative-broad-focus_Manuela-vende-el-carro.wav,,,,,,,,,,,,,,,,,,,,,,245.653,248.255,0,1,2.099,,0,20,20,46,1,0,castilian,,,,,,,,,,,,,,,,,,,,,,,,,,,,,,,,,,,,,,,,,,,,,,,,,,,,,,,,
,,,,,,,,,66ad3561c1e5c019916365fb,not sure,13 or older,"no, only English or Spanish",no,2025-08-13_17h44.18.741,empathy_intonation_perc,2024.2.4,Linux x86_64,58.82352941,66ad3561c1e5c019916365fb,687ed1b7e638a4cbf2f02089,689d06cbf62111061be3c2ae,,,,,,,,,,,,,51,0,,./stim/wavs/cuban_match_declarative-broad-focus_Ana-lleva-el-abrigo.wav,,,,,,,,,,,,,,,,,,,,,,248.256,250.56,0,1,1.791,,0,21,21,50,1,0,cuban,,,,,,,,,,,,,,,,,,,,,,,,,,,,,,,,,,,,,,,,,,,,,,,,,,,,,,,,
,,,,,,,,,66ad3561c1e5c019916365fb,not sure,13 or older,"no, only English or Spanish",no,2025-08-13_17h44.18.741,empathy_intonation_perc,2024.2.4,Linux x86_64,58.82352941,66ad3561c1e5c019916365fb,687ed1b7e638a4cbf2f02089,689d06cbf62111061be3c2ae,,,,,,,,,,,,,61,0,,./stim/wavs/mexican_match_declarative-broad-focus_Mariano-habla-del-tiempo.wav,,,,,,,,,,,,,,,,,,,,,,250.561,253.031,0,1,1.953,,0,22,22,60,1,0,mexican,,,,,,,,,,,,,,,,,,,,,,,,,,,,,,,,,,,,,,,,,,,,,,,,,,,,,,,,
,,,,,,,,,66ad3561c1e5c019916365fb,not sure,13 or older,"no, only English or Spanish",no,2025-08-13_17h44.18.741,empathy_intonation_perc,2024.2.4,Linux x86_64,58.82352941,66ad3561c1e5c019916365fb,687ed1b7e638a4cbf2f02089,689d06cbf62111061be3c2ae,,,,,,,,,,,,,13,1,,./stim/wavs/mexican_match_interrogative-total-yn_Ana-lleva-el-abrigo.wav,,,,,,,,,,,,,,,,,,,,,,253.032,254.968,1,1,1.431,,0,23,23,12,1,0,mexican,,,,,,,,,,,,,,,,,,,,,,,,,,,,,,,,,,,,,,,,,,,,,,,,,,,,,,,,
,,,,,,,,,66ad3561c1e5c019916365fb,not sure,13 or older,"no, only English or Spanish",no,2025-08-13_17h44.18.741,empathy_intonation_perc,2024.2.4,Linux x86_64,58.82352941,66ad3561c1e5c019916365fb,687ed1b7e638a4cbf2f02089,689d06cbf62111061be3c2ae,,,,,,,,,,,,,49,0,,./stim/wavs/castilian_match_declarative-broad-focus_Mariano-habla-del-tiempo.wav,,,,,,,,,,,,,,,,,,,,,,254.969,257.975,0,1,2.494,,0,24,24,48,1,0,castilian,,,,,,,,,,,,,,,,,,,,,,,,,,,,,,,,,,,,,,,,,,,,,,,,,,,,,,,,
,,,,,,,,,66ad3561c1e5c019916365fb,not sure,13 or older,"no, only English or Spanish",no,2025-08-13_17h44.18.741,empathy_intonation_perc,2024.2.4,Linux x86_64,58.82352941,66ad3561c1e5c019916365fb,687ed1b7e638a4cbf2f02089,689d06cbf62111061be3c2ae,,,,,,,,,,,,,59,0,,./stim/wavs/mexican_match_declarative-broad-focus_David-leia-el-libro.wav,,,,,,,,,,,,,,,,,,,,,,257.98,260.228,0,1,1.72,,0,25,25,58,1,0,mexican,,,,,,,,,,,,,,,,,,,,,,,,,,,,,,,,,,,,,,,,,,,,,,,,,,,,,,,,
,,,,,,,,,66ad3561c1e5c019916365fb,not sure,13 or older,"no, only English or Spanish",no,2025-08-13_17h44.18.741,empathy_intonation_perc,2024.2.4,Linux x86_64,58.82352941,66ad3561c1e5c019916365fb,687ed1b7e638a4cbf2f02089,689d06cbf62111061be3c2ae,,,,,,,,,,,,,4,1,,./stim/wavs/castilian_match_interrogative-total-yn_Maria-bebe-el-vino.wav,,,,,,,,,,,,,,,,,,,,,,260.229,262.132,1,1,1.394,,0,26,26,3,1,0,castilian,,,,,,,,,,,,,,,,,,,,,,,,,,,,,,,,,,,,,,,,,,,,,,,,,,,,,,,,
,,,,,,,,,66ad3561c1e5c019916365fb,not sure,13 or older,"no, only English or Spanish",no,2025-08-13_17h44.18.741,empathy_intonation_perc,2024.2.4,Linux x86_64,58.82352941,66ad3561c1e5c019916365fb,687ed1b7e638a4cbf2f02089,689d06cbf62111061be3c2ae,,,,,,,,,,,,,36,1,,./stim/wavs/mexican_mismatch_interrogative-total-yn_El-nino-oye-el-rio.wav,,,,,,,,,,,,,,,,,,,,,,262.132,264.169,1,1,1.529,,0,27,27,35,1,0,mexican,,,,,,,,,,,,,,,,,,,,,,,,,,,,,,,,,,,,,,,,,,,,,,,,,,,,,,,,
,,,,,,,,,66ad3561c1e5c019916365fb,not sure,13 or older,"no, only English or Spanish",no,2025-08-13_17h44.18.741,empathy_intonation_perc,2024.2.4,Linux x86_64,58.82352941,66ad3561c1e5c019916365fb,687ed1b7e638a4cbf2f02089,689d06cbf62111061be3c2ae,,,,,,,,,,,,,39,1,,./stim/wavs/mexican_mismatch_interrogative-total-yn_Mi-tia-odia-la-lluvia.wav,,,,,,,,,,,,,,,,,,,,,,264.17,266.107,1,1,1.428,,0,28,28,38,1,0,mexican,,,,,,,,,,,,,,,,,,,,,,,,,,,,,,,,,,,,,,,,,,,,,,,,,,,,,,,,
,,,,,,,,,66ad3561c1e5c019916365fb,not sure,13 or older,"no, only English or Spanish",no,2025-08-13_17h44.18.741,empathy_intonation_perc,2024.2.4,Linux x86_64,58.82352941,66ad3561c1e5c019916365fb,687ed1b7e638a4cbf2f02089,689d06cbf62111061be3c2ae,,,,,,,,,,,,,14,1,,./stim/wavs/mexican_match_interrogative-total-yn_Daniel-iba-a-Bolivia.wav,,,,,,,,,,,,,,,,,,,,,,266.108,268.193,1,1,1.571,,0,29,29,13,1,0,mexican,,,,,,,,,,,,,,,,,,,,,,,,,,,,,,,,,,,,,,,,,,,,,,,,,,,,,,,,
,,,,,,,,,66ad3561c1e5c019916365fb,not sure,13 or older,"no, only English or Spanish",no,2025-08-13_17h44.18.741,empathy_intonation_perc,2024.2.4,Linux x86_64,58.82352941,66ad3561c1e5c019916365fb,687ed1b7e638a4cbf2f02089,689d06cbf62111061be3c2ae,,,,,,,,,,,,,71,0,,./stim/wavs/castilian_mismatch_declarative-broad-focus_La-nina-lava-el-plato.wav,,,,,,,,,,,,,,,,,,,,,,268.194,270.565,0,1,1.855,,0,30,30,70,1,0,castilian,,,,,,,,,,,,,,,,,,,,,,,,,,,,,,,,,,,,,,,,,,,,,,,,,,,,,,,,
,,,,,,,,,66ad3561c1e5c019916365fb,not sure,13 or older,"no, only English or Spanish",no,2025-08-13_17h44.18.741,empathy_intonation_perc,2024.2.4,Linux x86_64,58.82352941,66ad3561c1e5c019916365fb,687ed1b7e638a4cbf2f02089,689d06cbf62111061be3c2ae,,,,,,,,,,,,,60,0,,./stim/wavs/mexican_match_declarative-broad-focus_Emilio-ama-la-marcha.wav,,,,,,,,,,,,,,,,,,,,,,270.565,273.051,0,1,1.977,,0,31,31,59,1,0,mexican,,,,,,,,,,,,,,,,,,,,,,,,,,,,,,,,,,,,,,,,,,,,,,,,,,,,,,,,
,,,,,,,,,66ad3561c1e5c019916365fb,not sure,13 or older,"no, only English or Spanish",no,2025-08-13_17h44.18.741,empathy_intonation_perc,2024.2.4,Linux x86_64,58.82352941,66ad3561c1e5c019916365fb,687ed1b7e638a4cbf2f02089,689d06cbf62111061be3c2ae,,,,,,,,,,,,,22,1,,./stim/wavs/puertorican_match_interrogative-total-yn_Emilio-ama-la-marcha.wav,,,,,,,,,,,,,,,,,,,,,,273.052,275.707,0,0,2.139,,0,32,32,21,1,1,puertorican,,,,,,,,,,,,,,,,,,,,,,,,,,,,,,,,,,,,,,,,,,,,,,,,,,,,,,,,
,,,,,,,,,66ad3561c1e5c019916365fb,not sure,13 or older,"no, only English or Spanish",no,2025-08-13_17h44.18.741,empathy_intonation_perc,2024.2.4,Linux x86_64,58.82352941,66ad3561c1e5c019916365fb,687ed1b7e638a4cbf2f02089,689d06cbf62111061be3c2ae,,,,,,,,,,,,,64,0,,./stim/wavs/puertorican_match_declarative-broad-focus_Daniel-iba-a-Bolivia.wav,,,,,,,,,,,,,,,,,,,,,,275.708,277.629,0,1,1.411,,0,33,33,63,1,0,puertorican,,,,,,,,,,,,,,,,,,,,,,,,,,,,,,,,,,,,,,,,,,,,,,,,,,,,,,,,
,,,,,,,,,66ad3561c1e5c019916365fb,not sure,13 or older,"no, only English or Spanish",no,2025-08-13_17h44.18.741,empathy_intonation_perc,2024.2.4,Linux x86_64,58.82352941,66ad3561c1e5c019916365fb,687ed1b7e638a4cbf2f02089,689d06cbf62111061be3c2ae,,,,,,,,,,,,,29,1,,./stim/wavs/castilian_mismatch_interrogative-total-yn_Mi-tia-odia-la-lluvia.wav,,,,,,,,,,,,,,,,,,,,,,277.63,279.583,1,1,1.437,,0,34,34,28,1,0,castilian,,,,,,,,,,,,,,,,,,,,,,,,,,,,,,,,,,,,,,,,,,,,,,,,,,,,,,,,
,,,,,,,,,66ad3561c1e5c019916365fb,not sure,13 or older,"no, only English or Spanish",no,2025-08-13_17h44.18.741,empathy_intonation_perc,2024.2.4,Linux x86_64,58.82352941,66ad3561c1e5c019916365fb,687ed1b7e638a4cbf2f02089,689d06cbf62111061be3c2ae,,,,,,,,,,,,,26,1,,./stim/wavs/castilian_mismatch_interrogative-total-yn_La-nina-lava-el-plato.wav,,,,,,,,,,,,,,,,,,,,,,279.584,281.635,1,1,1.518,,0,35,35,25,1,0,castilian,,,,,,,,,,,,,,,,,,,,,,,,,,,,,,,,,,,,,,,,,,,,,,,,,,,,,,,,
,,,,,,,,,66ad3561c1e5c019916365fb,not sure,13 or older,"no, only English or Spanish",no,2025-08-13_17h44.18.741,empathy_intonation_perc,2024.2.4,Linux x86_64,58.82352941,66ad3561c1e5c019916365fb,687ed1b7e638a4cbf2f02089,689d06cbf62111061be3c2ae,,,,,,,,,,,,,41,1,,./stim/wavs/puertorican_mismatch_interrogative-total-yn_El-nino-oye-el-rio.wav,,,,,,,,,,,,,,,,,,,,,,281.635,283.679,0,0,1.54,,0,36,36,40,1,1,puertorican,,,,,,,,,,,,,,,,,,,,,,,,,,,,,,,,,,,,,,,,,,,,,,,,,,,,,,,,
,,,,,,,,,66ad3561c1e5c019916365fb,not sure,13 or older,"no, only English or Spanish",no,2025-08-13_17h44.18.741,empathy_intonation_perc,2024.2.4,Linux x86_64,58.82352941,66ad3561c1e5c019916365fb,687ed1b7e638a4cbf2f02089,689d06cbf62111061be3c2ae,,,,,,,,,,,,,55,0,,./stim/wavs/cuban_match_declarative-broad-focus_Mariano-habla-del-tiempo.wav,,,,,,,,,,,,,,,,,,,,,,283.679,285.66,0,1,1.46,,0,37,37,54,1,0,cuban,,,,,,,,,,,,,,,,,,,,,,,,,,,,,,,,,,,,,,,,,,,,,,,,,,,,,,,,
,,,,,,,,,66ad3561c1e5c019916365fb,not sure,13 or older,"no, only English or Spanish",no,2025-08-13_17h44.18.741,empathy_intonation_perc,2024.2.4,Linux x86_64,58.82352941,66ad3561c1e5c019916365fb,687ed1b7e638a4cbf2f02089,689d06cbf62111061be3c2ae,,,,,,,,,,,,,24,1,,./stim/wavs/puertorican_match_interrogative-total-yn_Maria-bebe-el-vino.wav,,,,,,,,,,,,,,,,,,,,,,285.66,287.715,1,1,1.539,,0,38,38,23,1,1,puertorican,,,,,,,,,,,,,,,,,,,,,,,,,,,,,,,,,,,,,,,,,,,,,,,,,,,,,,,,
,,,,,,,,,66ad3561c1e5c019916365fb,not sure,13 or older,"no, only English or Spanish",no,2025-08-13_17h44.18.741,empathy_intonation_perc,2024.2.4,Linux x86_64,58.82352941,66ad3561c1e5c019916365fb,687ed1b7e638a4cbf2f02089,689d06cbf62111061be3c2ae,,,,,,,,,,,,,33,1,,./stim/wavs/cuban_mismatch_interrogative-total-yn_Mi-novio-viene-del-lago.wav,,,,,,,,,,,,,,,,,,,,,,287.719,289.982,0,0,1.738,,0,39,39,32,1,1,cuban,,,,,,,,,,,,,,,,,,,,,,,,,,,,,,,,,,,,,,,,,,,,,,,,,,,,,,,,
,,,,,,,,,66ad3561c1e5c019916365fb,not sure,13 or older,"no, only English or Spanish",no,2025-08-13_17h44.18.741,empathy_intonation_perc,2024.2.4,Linux x86_64,58.82352941,66ad3561c1e5c019916365fb,687ed1b7e638a4cbf2f02089,689d06cbf62111061be3c2ae,,,,,,,,,,,,,43,1,,./stim/wavs/puertorican_mismatch_interrogative-total-yn_La-nina-lava-el-plato.wav,,,,,,,,,,,,,,,,,,,,,,289.983,292.372,0,0,1.879,,0,40,40,42,1,1,puertorican,,,,,,,,,,,,,,,,,,,,,,,,,,,,,,,,,,,,,,,,,,,,,,,,,,,,,,,,
,,,,,,,,,66ad3561c1e5c019916365fb,not sure,13 or older,"no, only English or Spanish",no,2025-08-13_17h44.18.741,empathy_intonation_perc,2024.2.4,Linux x86_64,58.82352941,66ad3561c1e5c019916365fb,687ed1b7e638a4cbf2f02089,689d06cbf62111061be3c2ae,,,,,,,,,,,,,53,0,,./stim/wavs/cuban_match_declarative-broad-focus_Manuela-vende-el-carro.wav,,,,,,,,,,,,,,,,,,,,,,292.373,294.924,0,1,2.042,,0,41,41,52,1,0,cuban,,,,,,,,,,,,,,,,,,,,,,,,,,,,,,,,,,,,,,,,,,,,,,,,,,,,,,,,
,,,,,,,,,66ad3561c1e5c019916365fb,not sure,13 or older,"no, only English or Spanish",no,2025-08-13_17h44.18.741,empathy_intonation_perc,2024.2.4,Linux x86_64,58.82352941,66ad3561c1e5c019916365fb,687ed1b7e638a4cbf2f02089,689d06cbf62111061be3c2ae,,,,,,,,,,,,,9,1,,./stim/wavs/cuban_match_interrogative-total-yn_Manuela-vende-el-carro.wav,,,,,,,,,,,,,,,,,,,,,,294.925,299.67,0,0,4.229,,0,42,42,8,1,1,cuban,,,,,,,,,,,,,,,,,,,,,,,,,,,,,,,,,,,,,,,,,,,,,,,,,,,,,,,,
,,,,,,,,,66ad3561c1e5c019916365fb,not sure,13 or older,"no, only English or Spanish",no,2025-08-13_17h44.18.741,empathy_intonation_perc,2024.2.4,Linux x86_64,58.82352941,66ad3561c1e5c019916365fb,687ed1b7e638a4cbf2f02089,689d06cbf62111061be3c2ae,,,,,,,,,,,,,79,0,,./stim/wavs/mexican_mismatch_declarative-broad-focus_El-bebe-comia-muy-bien.wav,,,,,,,,,,,,,,,,,,,,,,299.67,301.725,1,0,1.537,,0,43,43,78,1,0,mexican,,,,,,,,,,,,,,,,,,,,,,,,,,,,,,,,,,,,,,,,,,,,,,,,,,,,,,,,
,,,,,,,,,66ad3561c1e5c019916365fb,not sure,13 or older,"no, only English or Spanish",no,2025-08-13_17h44.18.741,empathy_intonation_perc,2024.2.4,Linux x86_64,58.82352941,66ad3561c1e5c019916365fb,687ed1b7e638a4cbf2f02089,689d06cbf62111061be3c2ae,,,,,,,,,,,,,28,1,,./stim/wavs/castilian_mismatch_interrogative-total-yn_Mi-novio-viene-del-lago.wav,,,,,,,,,,,,,,,,,,,,,,301.726,303.758,1,1,1.506,,0,44,44,27,1,0,castilian,,,,,,,,,,,,,,,,,,,,,,,,,,,,,,,,,,,,,,,,,,,,,,,,,,,,,,,,
,,,,,,,,,66ad3561c1e5c019916365fb,not sure,13 or older,"no, only English or Spanish",no,2025-08-13_17h44.18.741,empathy_intonation_perc,2024.2.4,Linux x86_64,58.82352941,66ad3561c1e5c019916365fb,687ed1b7e638a4cbf2f02089,689d06cbf62111061be3c2ae,,,,,,,,,,,,,75,0,,./stim/wavs/cuban_mismatch_declarative-broad-focus_El-hombre-mira-la-luna.wav,,,,,,,,,,,,,,,,,,,,,,303.758,305.63,0,1,1.359,,0,45,45,74,1,0,cuban,,,,,,,,,,,,,,,,,,,,,,,,,,,,,,,,,,,,,,,,,,,,,,,,,,,,,,,,
,,,,,,,,,66ad3561c1e5c019916365fb,not sure,13 or older,"no, only English or Spanish",no,2025-08-13_17h44.18.741,empathy_intonation_perc,2024.2.4,Linux x86_64,58.82352941,66ad3561c1e5c019916365fb,687ed1b7e638a4cbf2f02089,689d06cbf62111061be3c2ae,,,,,,,,,,,,,42,1,,./stim/wavs/puertorican_mismatch_interrogative-total-yn_La-maestra-vive-en-Paris.wav,,,,,,,,,,,,,,,,,,,,,,305.631,308.368,1,1,2.224,,0,46,46,41,1,1,puertorican,,,,,,,,,,,,,,,,,,,,,,,,,,,,,,,,,,,,,,,,,,,,,,,,,,,,,,,,
,,,,,,,,,66ad3561c1e5c019916365fb,not sure,13 or older,"no, only English or Spanish",no,2025-08-13_17h44.18.741,empathy_intonation_perc,2024.2.4,Linux x86_64,58.82352941,66ad3561c1e5c019916365fb,687ed1b7e638a4cbf2f02089,689d06cbf62111061be3c2ae,,,,,,,,,,,,,11,1,,./stim/wavs/cuban_match_interrogative-total-yn_Mariano-habla-del-tiempo.wav,,,,,,,,,,,,,,,,,,,,,,308.369,310.741,0,0,1.864,,0,47,47,10,1,1,cuban,,,,,,,,,,,,,,,,,,,,,,,,,,,,,,,,,,,,,,,,,,,,,,,,,,,,,,,,
,,,,,,,,,66ad3561c1e5c019916365fb,not sure,13 or older,"no, only English or Spanish",no,2025-08-13_17h44.18.741,empathy_intonation_perc,2024.2.4,Linux x86_64,58.82352941,66ad3561c1e5c019916365fb,687ed1b7e638a4cbf2f02089,689d06cbf62111061be3c2ae,,,,,,,,,,,,,62,0,,./stim/wavs/mexican_match_declarative-broad-focus_Marta-abre-el-regalo.wav,,,,,,,,,,,,,,,,,,,,,,310.742,312.927,0,1,1.664,,0,48,48,61,1,0,mexican,,,,,,,,,,,,,,,,,,,,,,,,,,,,,,,,,,,,,,,,,,,,,,,,,,,,,,,,
,,,,,,,,,66ad3561c1e5c019916365fb,not sure,13 or older,"no, only English or Spanish",no,2025-08-13_17h44.18.741,empathy_intonation_perc,2024.2.4,Linux x86_64,58.82352941,66ad3561c1e5c019916365fb,687ed1b7e638a4cbf2f02089,689d06cbf62111061be3c2ae,,,,,,,,,,,,,65,0,,./stim/wavs/puertorican_match_declarative-broad-focus_David-leia-el-libro.wav,,,,,,,,,,,,,,,,,,,,,,312.928,315.161,0,1,1.724,,0,49,49,64,1,0,puertorican,,,,,,,,,,,,,,,,,,,,,,,,,,,,,,,,,,,,,,,,,,,,,,,,,,,,,,,,
,,,,,,,,,66ad3561c1e5c019916365fb,not sure,13 or older,"no, only English or Spanish",no,2025-08-13_17h44.18.741,empathy_intonation_perc,2024.2.4,Linux x86_64,58.82352941,66ad3561c1e5c019916365fb,687ed1b7e638a4cbf2f02089,689d06cbf62111061be3c2ae,,,,,,,,,,,,,19,1,,./stim/wavs/puertorican_match_interrogative-total-yn_Ana-lleva-el-abrigo.wav,,,,,,,,,,,,,,,,,,,,,,315.162,317.27,0,0,1.596,,0,50,50,18,1,1,puertorican,,,,,,,,,,,,,,,,,,,,,,,,,,,,,,,,,,,,,,,,,,,,,,,,,,,,,,,,
,,,,,,,,,66ad3561c1e5c019916365fb,not sure,13 or older,"no, only English or Spanish",no,2025-08-13_17h44.18.741,empathy_intonation_perc,2024.2.4,Linux x86_64,58.82352941,66ad3561c1e5c019916365fb,687ed1b7e638a4cbf2f02089,689d06cbf62111061be3c2ae,,,,,,,,,,,,,32,1,,./stim/wavs/cuban_mismatch_interrogative-total-yn_Mi-madre-come-la-fruta.wav,,,,,,,,,,,,,,,,,,,,,,317.271,319.272,1,1,1.478,,0,51,51,31,1,1,cuban,,,,,,,,,,,,,,,,,,,,,,,,,,,,,,,,,,,,,,,,,,,,,,,,,,,,,,,,
,,,,,,,,,66ad3561c1e5c019916365fb,not sure,13 or older,"no, only English or Spanish",no,2025-08-13_17h44.18.741,empathy_intonation_perc,2024.2.4,Linux x86_64,58.82352941,66ad3561c1e5c019916365fb,687ed1b7e638a4cbf2f02089,689d06cbf62111061be3c2ae,,,,,,,,,,,,,85,0,,./stim/wavs/puertorican_mismatch_declarative-broad-focus_El-hombre-mira-la-luna.wav,,,,,,,,,,,,,,,,,,,,,,319.274,321.596,0,1,1.8,,0,52,52,84,1,0,puertorican,,,,,,,,,,,,,,,,,,,,,,,,,,,,,,,,,,,,,,,,,,,,,,,,,,,,,,,,
,,,,,,,,,66ad3561c1e5c019916365fb,not sure,13 or older,"no, only English or Spanish",no,2025-08-13_17h44.18.741,empathy_intonation_perc,2024.2.4,Linux x86_64,58.82352941,66ad3561c1e5c019916365fb,687ed1b7e638a4cbf2f02089,689d06cbf62111061be3c2ae,,,,,,,,,,,,,21,1,,./stim/wavs/puertorican_match_interrogative-total-yn_David-leia-el-libro.wav,,,,,,,,,,,,,,,,,,,,,,321.599,323.914,1,1,1.804,,0,53,53,20,1,1,puertorican,,,,,,,,,,,,,,,,,,,,,,,,,,,,,,,,,,,,,,,,,,,,,,,,,,,,,,,,
,,,,,,,,,66ad3561c1e5c019916365fb,not sure,13 or older,"no, only English or Spanish",no,2025-08-13_17h44.18.741,empathy_intonation_perc,2024.2.4,Linux x86_64,58.82352941,66ad3561c1e5c019916365fb,687ed1b7e638a4cbf2f02089,689d06cbf62111061be3c2ae,,,,,,,,,,,,,6,1,,./stim/wavs/castilian_match_interrogative-total-yn_Marta-abre-el-regalo.wav,,,,,,,,,,,,,,,,,,,,,,323.915,326.035,1,1,1.597,,0,54,54,5,1,0,castilian,,,,,,,,,,,,,,,,,,,,,,,,,,,,,,,,,,,,,,,,,,,,,,,,,,,,,,,,
,,,,,,,,,66ad3561c1e5c019916365fb,not sure,13 or older,"no, only English or Spanish",no,2025-08-13_17h44.18.741,empathy_intonation_perc,2024.2.4,Linux x86_64,58.82352941,66ad3561c1e5c019916365fb,687ed1b7e638a4cbf2f02089,689d06cbf62111061be3c2ae,,,,,,,,,,,,,70,0,,./stim/wavs/castilian_mismatch_declarative-broad-focus_La-maestra-vive-en-Paris.wav,,,,,,,,,,,,,,,,,,,,,,326.037,328.337,1,0,1.789,,0,55,55,69,1,0,castilian,,,,,,,,,,,,,,,,,,,,,,,,,,,,,,,,,,,,,,,,,,,,,,,,,,,,,,,,
,,,,,,,,,66ad3561c1e5c019916365fb,not sure,13 or older,"no, only English or Spanish",no,2025-08-13_17h44.18.741,empathy_intonation_perc,2024.2.4,Linux x86_64,58.82352941,66ad3561c1e5c019916365fb,687ed1b7e638a4cbf2f02089,689d06cbf62111061be3c2ae,,,,,,,,,,,,,2,1,,./stim/wavs/castilian_match_interrogative-total-yn_Emilio-ama-la-marcha.wav,,,,,,,,,,,,,,,,,,,,,,328.338,330.777,1,1,1.925,,0,56,56,1,1,0,castilian,,,,,,,,,,,,,,,,,,,,,,,,,,,,,,,,,,,,,,,,,,,,,,,,,,,,,,,,
,,,,,,,,,66ad3561c1e5c019916365fb,not sure,13 or older,"no, only English or Spanish",no,2025-08-13_17h44.18.741,empathy_intonation_perc,2024.2.4,Linux x86_64,58.82352941,66ad3561c1e5c019916365fb,687ed1b7e638a4cbf2f02089,689d06cbf62111061be3c2ae,,,,,,,,,,,,,5,1,,./stim/wavs/castilian_match_interrogative-total-yn_Mariano-habla-del-tiempo.wav,,,,,,,,,,,,,,,,,,,,,,330.779,333.082,1,1,1.797,,0,57,57,4,1,0,castilian,,,,,,,,,,,,,,,,,,,,,,,,,,,,,,,,,,,,,,,,,,,,,,,,,,,,,,,,
,,,,,,,,,66ad3561c1e5c019916365fb,not sure,13 or older,"no, only English or Spanish",no,2025-08-13_17h44.18.741,empathy_intonation_perc,2024.2.4,Linux x86_64,58.82352941,66ad3561c1e5c019916365fb,687ed1b7e638a4cbf2f02089,689d06cbf62111061be3c2ae,,,,,,,,,,,,,56,0,,./stim/wavs/cuban_match_declarative-broad-focus_Marta-abre-el-regalo.wav,,,,,,,,,,,,,,,,,,,,,,333.082,335.369,0,1,1.757,,0,58,58,55,1,0,cuban,,,,,,,,,,,,,,,,,,,,,,,,,,,,,,,,,,,,,,,,,,,,,,,,,,,,,,,,
,,,,,,,,,66ad3561c1e5c019916365fb,not sure,13 or older,"no, only English or Spanish",no,2025-08-13_17h44.18.741,empathy_intonation_perc,2024.2.4,Linux x86_64,58.82352941,66ad3561c1e5c019916365fb,687ed1b7e638a4cbf2f02089,689d06cbf62111061be3c2ae,,,,,,,,,,,,,57,0,,./stim/wavs/mexican_match_declarative-broad-focus_Ana-lleva-el-abrigo.wav,,,,,,,,,,,,,,,,,,,,,,335.37,337.304,0,1,1.422,,0,59,59,56,1,0,mexican,,,,,,,,,,,,,,,,,,,,,,,,,,,,,,,,,,,,,,,,,,,,,,,,,,,,,,,,
,,,,,,,,,66ad3561c1e5c019916365fb,not sure,13 or older,"no, only English or Spanish",no,2025-08-13_17h44.18.741,empathy_intonation_perc,2024.2.4,Linux x86_64,58.82352941,66ad3561c1e5c019916365fb,687ed1b7e638a4cbf2f02089,689d06cbf62111061be3c2ae,,,,,,,,,,,,,31,1,,./stim/wavs/cuban_mismatch_interrogative-total-yn_El-nino-oye-el-rio.wav,,,,,,,,,,,,,,,,,,,,,,337.305,339.427,1,1,1.606,,0,60,60,30,1,1,cuban,,,,,,,,,,,,,,,,,,,,,,,,,,,,,,,,,,,,,,,,,,,,,,,,,,,,,,,,
,,,,,,,,,66ad3561c1e5c019916365fb,not sure,13 or older,"no, only English or Spanish",no,2025-08-13_17h44.18.741,empathy_intonation_perc,2024.2.4,Linux x86_64,58.82352941,66ad3561c1e5c019916365fb,687ed1b7e638a4cbf2f02089,689d06cbf62111061be3c2ae,,,,,,,,,,,,,52,0,,./stim/wavs/cuban_match_declarative-broad-focus_Daniel-iba-a-Bolivia.wav,,,,,,,,,,,,,,,,,,,,,,339.428,342.249,0,1,2.283,,0,61,61,51,1,0,cuban,,,,,,,,,,,,,,,,,,,,,,,,,,,,,,,,,,,,,,,,,,,,,,,,,,,,,,,,
,,,,,,,,,66ad3561c1e5c019916365fb,not sure,13 or older,"no, only English or Spanish",no,2025-08-13_17h44.18.741,empathy_intonation_perc,2024.2.4,Linux x86_64,58.82352941,66ad3561c1e5c019916365fb,687ed1b7e638a4cbf2f02089,689d06cbf62111061be3c2ae,,,,,,,,,,,,,16,1,,./stim/wavs/mexican_match_interrogative-total-yn_Emilio-ama-la-marcha.wav,,,,,,,,,,,,,,,,,,,,,,342.249,344.22,1,1,1.461,,0,62,62,15,1,0,mexican,,,,,,,,,,,,,,,,,,,,,,,,,,,,,,,,,,,,,,,,,,,,,,,,,,,,,,,,
,,,,,,,,,66ad3561c1e5c019916365fb,not sure,13 or older,"no, only English or Spanish",no,2025-08-13_17h44.18.741,empathy_intonation_perc,2024.2.4,Linux x86_64,58.82352941,66ad3561c1e5c019916365fb,687ed1b7e638a4cbf2f02089,689d06cbf62111061be3c2ae,,,,,,,,,,,,,37,1,,./stim/wavs/mexican_mismatch_interrogative-total-yn_La-maestra-vive-en-Paris.wav,,,,,,,,,,,,,,,,,,,,,,344.221,346.339,1,1,1.609,,0,63,63,36,1,0,mexican,,,,,,,,,,,,,,,,,,,,,,,,,,,,,,,,,,,,,,,,,,,,,,,,,,,,,,,,
,,,,,,,,,66ad3561c1e5c019916365fb,not sure,13 or older,"no, only English or Spanish",no,2025-08-13_17h44.18.741,empathy_intonation_perc,2024.2.4,Linux x86_64,58.82352941,66ad3561c1e5c019916365fb,687ed1b7e638a4cbf2f02089,689d06cbf62111061be3c2ae,,,,,,,,,,,,,35,1,,./stim/wavs/mexican_mismatch_interrogative-total-yn_El-hombre-mira-la-luna.wav,,,,,,,,,,,,,,,,,,,,,,346.339,348.226,1,1,1.371,,0,64,64,34,1,0,mexican,,,,,,,,,,,,,,,,,,,,,,,,,,,,,,,,,,,,,,,,,,,,,,,,,,,,,,,,
,,,,,,,,,66ad3561c1e5c019916365fb,not sure,13 or older,"no, only English or Spanish",no,2025-08-13_17h44.18.741,empathy_intonation_perc,2024.2.4,Linux x86_64,58.82352941,66ad3561c1e5c019916365fb,687ed1b7e638a4cbf2f02089,689d06cbf62111061be3c2ae,,,,,,,,,,,,,45,0,,./stim/wavs/castilian_match_declarative-broad-focus_David-leia-el-libro.wav,,,,,,,,,,,,,,,,,,,,,,348.227,350.798,0,1,2.061,,0,65,65,44,1,0,castilian,,,,,,,,,,,,,,,,,,,,,,,,,,,,,,,,,,,,,,,,,,,,,,,,,,,,,,,,
,,,,,,,,,66ad3561c1e5c019916365fb,not sure,13 or older,"no, only English or Spanish",no,2025-08-13_17h44.18.741,empathy_intonation_perc,2024.2.4,Linux x86_64,58.82352941,66ad3561c1e5c019916365fb,687ed1b7e638a4cbf2f02089,689d06cbf62111061be3c2ae,,,,,,,,,,,,,81,0,,./stim/wavs/mexican_mismatch_declarative-broad-focus_La-maestra-vive-en-Paris.wav,,,,,,,,,,,,,,,,,,,,,,350.799,353.438,0,1,2.122,,0,66,66,80,1,0,mexican,,,,,,,,,,,,,,,,,,,,,,,,,,,,,,,,,,,,,,,,,,,,,,,,,,,,,,,,
,,,,,,,,,66ad3561c1e5c019916365fb,not sure,13 or older,"no, only English or Spanish",no,2025-08-13_17h44.18.741,empathy_intonation_perc,2024.2.4,Linux x86_64,58.82352941,66ad3561c1e5c019916365fb,687ed1b7e638a4cbf2f02089,689d06cbf62111061be3c2ae,,,,,,,,,,,,,8,1,,./stim/wavs/cuban_match_interrogative-total-yn_Daniel-iba-a-Bolivia.wav,,,,,,,,,,,,,,,,,,,,,,353.439,355.909,0,0,1.947,,0,67,67,7,1,1,cuban,,,,,,,,,,,,,,,,,,,,,,,,,,,,,,,,,,,,,,,,,,,,,,,,,,,,,,,,
,,,,,,,,,66ad3561c1e5c019916365fb,not sure,13 or older,"no, only English or Spanish",no,2025-08-13_17h44.18.741,empathy_intonation_perc,2024.2.4,Linux x86_64,58.82352941,66ad3561c1e5c019916365fb,687ed1b7e638a4cbf2f02089,689d06cbf62111061be3c2ae,,,,,,,,,,,,,50,0,,./stim/wavs/castilian_match_declarative-broad-focus_Marta-abre-el-regalo.wav,,,,,,,,,,,,,,,,,,,,,,355.911,358.009,1,0,1.571,,0,68,68,49,1,0,castilian,,,,,,,,,,,,,,,,,,,,,,,,,,,,,,,,,,,,,,,,,,,,,,,,,,,,,,,,
,,,,,,,,,66ad3561c1e5c019916365fb,not sure,13 or older,"no, only English or Spanish",no,2025-08-13_17h44.18.741,empathy_intonation_perc,2024.2.4,Linux x86_64,58.82352941,66ad3561c1e5c019916365fb,687ed1b7e638a4cbf2f02089,689d06cbf62111061be3c2ae,,,,,,,,,,,,,66,0,,./stim/wavs/puertorican_match_declarative-broad-focus_Emilio-ama-la-marcha.wav,,,,,,,,,,,,,,,,,,,,,,358.01,359.814,0,1,1.291,,0,69,69,65,1,0,puertorican,,,,,,,,,,,,,,,,,,,,,,,,,,,,,,,,,,,,,,,,,,,,,,,,,,,,,,,,
,,,,,,,,,66ad3561c1e5c019916365fb,not sure,13 or older,"no, only English or Spanish",no,2025-08-13_17h44.18.741,empathy_intonation_perc,2024.2.4,Linux x86_64,58.82352941,66ad3561c1e5c019916365fb,687ed1b7e638a4cbf2f02089,689d06cbf62111061be3c2ae,,,,,,,,,,,,,82,0,,./stim/wavs/mexican_mismatch_declarative-broad-focus_Mi-novio-viene-del-lago.wav,,,,,,,,,,,,,,,,,,,,,,359.815,362.219,0,1,1.871,,0,70,70,81,1,0,mexican,,,,,,,,,,,,,,,,,,,,,,,,,,,,,,,,,,,,,,,,,,,,,,,,,,,,,,,,
,,,,,,,,,66ad3561c1e5c019916365fb,not sure,13 or older,"no, only English or Spanish",no,2025-08-13_17h44.18.741,empathy_intonation_perc,2024.2.4,Linux x86_64,58.82352941,66ad3561c1e5c019916365fb,687ed1b7e638a4cbf2f02089,689d06cbf62111061be3c2ae,,,,,,,,,,,,,34,1,,./stim/wavs/cuban_mismatch_interrogative-total-yn_Mi-tia-odia-la-lluvia.wav,,,,,,,,,,,,,,,,,,,,,,362.22,364.541,0,0,1.804,,0,71,71,33,1,1,cuban,,,,,,,,,,,,,,,,,,,,,,,,,,,,,,,,,,,,,,,,,,,,,,,,,,,,,,,,
,,,,,,,,,66ad3561c1e5c019916365fb,not sure,13 or older,"no, only English or Spanish",no,2025-08-13_17h44.18.741,empathy_intonation_perc,2024.2.4,Linux x86_64,58.82352941,66ad3561c1e5c019916365fb,687ed1b7e638a4cbf2f02089,689d06cbf62111061be3c2ae,,,,,,,,,,,,,27,1,,./stim/wavs/castilian_mismatch_interrogative-total-yn_Mi-madre-come-la-fruta.wav,,,,,,,,,,,,,,,,,,,,,,364.543,366.491,1,1,1.431,,0,72,72,26,1,0,castilian,,,,,,,,,,,,,,,,,,,,,,,,,,,,,,,,,,,,,,,,,,,,,,,,,,,,,,,,
,,,,,,,,,66ad3561c1e5c019916365fb,not sure,13 or older,"no, only English or Spanish",no,2025-08-13_17h44.18.741,empathy_intonation_perc,2024.2.4,Linux x86_64,58.82352941,66ad3561c1e5c019916365fb,687ed1b7e638a4cbf2f02089,689d06cbf62111061be3c2ae,,,,,,,,,,,,,87,0,,./stim/wavs/puertorican_mismatch_declarative-broad-focus_La-maestra-vive-en-Paris.wav,,,,,,,,,,,,,,,,,,,,,,366.492,368.581,0,1,1.573,,0,73,73,86,1,0,puertorican,,,,,,,,,,,,,,,,,,,,,,,,,,,,,,,,,,,,,,,,,,,,,,,,,,,,,,,,
,,,,,,,,,66ad3561c1e5c019916365fb,not sure,13 or older,"no, only English or Spanish",no,2025-08-13_17h44.18.741,empathy_intonation_perc,2024.2.4,Linux x86_64,58.82352941,66ad3561c1e5c019916365fb,687ed1b7e638a4cbf2f02089,689d06cbf62111061be3c2ae,,,,,,,,,,,,,10,1,,./stim/wavs/cuban_match_interrogative-total-yn_Maria-bebe-el-vino.wav,,,,,,,,,,,,,,,,,,,,,,368.581,371.035,0,0,1.942,,0,74,74,9,1,1,cuban,,,,,,,,,,,,,,,,,,,,,,,,,,,,,,,,,,,,,,,,,,,,,,,,,,,,,,,,
,,,,,,,,,66ad3561c1e5c019916365fb,not sure,13 or older,"no, only English or Spanish",no,2025-08-13_17h44.18.741,empathy_intonation_perc,2024.2.4,Linux x86_64,58.82352941,66ad3561c1e5c019916365fb,687ed1b7e638a4cbf2f02089,689d06cbf62111061be3c2ae,,,,,,,,,,,,,46,0,,./stim/wavs/castilian_match_declarative-broad-focus_Emilio-ama-la-marcha.wav,,,,,,,,,,,,,,,,,,,,,,371.036,373.256,1,0,1.715,,0,75,75,45,1,0,castilian,,,,,,,,,,,,,,,,,,,,,,,,,,,,,,,,,,,,,,,,,,,,,,,,,,,,,,,,
,,,,,,,,,66ad3561c1e5c019916365fb,not sure,13 or older,"no, only English or Spanish",no,2025-08-13_17h44.18.741,empathy_intonation_perc,2024.2.4,Linux x86_64,58.82352941,66ad3561c1e5c019916365fb,687ed1b7e638a4cbf2f02089,689d06cbf62111061be3c2ae,,,,,,,,,,,,,18,1,,./stim/wavs/mexican_match_interrogative-total-yn_Marta-abre-el-regalo.wav,,,,,,,,,,,,,,,,,,,,,,373.258,375.227,1,1,1.461,,0,76,76,17,1,0,mexican,,,,,,,,,,,,,,,,,,,,,,,,,,,,,,,,,,,,,,,,,,,,,,,,,,,,,,,,
,,,,,,,,,66ad3561c1e5c019916365fb,not sure,13 or older,"no, only English or Spanish",no,2025-08-13_17h44.18.741,empathy_intonation_perc,2024.2.4,Linux x86_64,58.82352941,66ad3561c1e5c019916365fb,687ed1b7e638a4cbf2f02089,689d06cbf62111061be3c2ae,,,,,,,,,,,,,67,0,,./stim/wavs/puertorican_match_declarative-broad-focus_Manuela-vende-el-carro.wav,,,,,,,,,,,,,,,,,,,,,,375.228,377.266,0,1,1.516,,0,77,77,66,1,0,puertorican,,,,,,,,,,,,,,,,,,,,,,,,,,,,,,,,,,,,,,,,,,,,,,,,,,,,,,,,
,,,,,,,,,66ad3561c1e5c019916365fb,not sure,13 or older,"no, only English or Spanish",no,2025-08-13_17h44.18.741,empathy_intonation_perc,2024.2.4,Linux x86_64,58.82352941,66ad3561c1e5c019916365fb,687ed1b7e638a4cbf2f02089,689d06cbf62111061be3c2ae,,,,,,,,,,,,,84,0,,./stim/wavs/puertorican_mismatch_declarative-broad-focus_El-bebe-comia-muy-bien.wav,,,,,,,,,,,,,,,,,,,,,,377.267,379.382,0,1,1.598,,0,78,78,83,1,0,puertorican,,,,,,,,,,,,,,,,,,,,,,,,,,,,,,,,,,,,,,,,,,,,,,,,,,,,,,,,
,,,,,,,,,66ad3561c1e5c019916365fb,not sure,13 or older,"no, only English or Spanish",no,2025-08-13_17h44.18.741,empathy_intonation_perc,2024.2.4,Linux x86_64,58.82352941,66ad3561c1e5c019916365fb,687ed1b7e638a4cbf2f02089,689d06cbf62111061be3c2ae,,,,,,,,,,,,,68,0,,./stim/wavs/puertorican_match_declarative-broad-focus_Maria-bebe-el-vino.wav,,,,,,,,,,,,,,,,,,,,,,379.383,381.238,0,1,1.343,,0,79,79,67,1,0,puertorican,,,,,,,,,,,,,,,,,,,,,,,,,,,,,,,,,,,,,,,,,,,,,,,,,,,,,,,,
,,,,,,,,,66ad3561c1e5c019916365fb,not sure,13 or older,"no, only English or Spanish",no,2025-08-13_17h44.18.741,empathy_intonation_perc,2024.2.4,Linux x86_64,58.82352941,66ad3561c1e5c019916365fb,687ed1b7e638a4cbf2f02089,689d06cbf62111061be3c2ae,,,,,,,,,,,,,7,1,,./stim/wavs/cuban_match_interrogative-total-yn_Ana-lleva-el-abrigo.wav,,,,,,,,,,,,,,,,,,,,,,381.238,384.011,1,1,2.258,,0,80,80,6,1,1,cuban,,,,,,,,,,,,,,,,,,,,,,,,,,,,,,,,,,,,,,,,,,,,,,,,,,,,,,,,
,,,,,,,,,66ad3561c1e5c019916365fb,not sure,13 or older,"no, only English or Spanish",no,2025-08-13_17h44.18.741,empathy_intonation_perc,2024.2.4,Linux x86_64,58.82352941,66ad3561c1e5c019916365fb,687ed1b7e638a4cbf2f02089,689d06cbf62111061be3c2ae,,,,,,,,,,,,,74,0,,./stim/wavs/cuban_mismatch_declarative-broad-focus_El-bebe-comia-muy-bien.wav,,,,,,,,,,,,,,,,,,,,,,384.018,386.015,1,0,1.485,,0,81,81,73,1,0,cuban,,,,,,,,,,,,,,,,,,,,,,,,,,,,,,,,,,,,,,,,,,,,,,,,,,,,,,,,
,,,,,,,,,66ad3561c1e5c019916365fb,not sure,13 or older,"no, only English or Spanish",no,2025-08-13_17h44.18.741,empathy_intonation_perc,2024.2.4,Linux x86_64,58.82352941,66ad3561c1e5c019916365fb,687ed1b7e638a4cbf2f02089,689d06cbf62111061be3c2ae,,,,,,,,,,,,,17,1,,./stim/wavs/mexican_match_interrogative-total-yn_Mariano-habla-del-tiempo.wav,,,,,,,,,,,,,,,,,,,,,,386.017,388.236,1,1,1.694,,0,82,82,16,1,0,mexican,,,,,,,,,,,,,,,,,,,,,,,,,,,,,,,,,,,,,,,,,,,,,,,,,,,,,,,,
,,,,,,,,,66ad3561c1e5c019916365fb,not sure,13 or older,"no, only English or Spanish",no,2025-08-13_17h44.18.741,empathy_intonation_perc,2024.2.4,Linux x86_64,58.82352941,66ad3561c1e5c019916365fb,687ed1b7e638a4cbf2f02089,689d06cbf62111061be3c2ae,,,,,,,,,,,,,15,1,,./stim/wavs/mexican_match_interrogative-total-yn_David-leia-el-libro.wav,,,,,,,,,,,,,,,,,,,,,,388.236,390.625,1,1,1.88,,0,83,83,14,1,0,mexican,,,,,,,,,,,,,,,,,,,,,,,,,,,,,,,,,,,,,,,,,,,,,,,,,,,,,,,,
,,,,,,,,,66ad3561c1e5c019916365fb,not sure,13 or older,"no, only English or Spanish",no,2025-08-13_17h44.18.741,empathy_intonation_perc,2024.2.4,Linux x86_64,58.82352941,66ad3561c1e5c019916365fb,687ed1b7e638a4cbf2f02089,689d06cbf62111061be3c2ae,,,,,,,,,,,,,25,1,,./stim/wavs/castilian_mismatch_interrogative-total-yn_La-maestra-vive-en-Paris.wav,,,,,,,,,,,,,,,,,,,,,,390.626,393.112,1,1,1.957,,0,84,84,24,1,0,castilian,,,,,,,,,,,,,,,,,,,,,,,,,,,,,,,,,,,,,,,,,,,,,,,,,,,,,,,,
,,,,,,,,,66ad3561c1e5c019916365fb,not sure,13 or older,"no, only English or Spanish",no,2025-08-13_17h44.18.741,empathy_intonation_perc,2024.2.4,Linux x86_64,58.82352941,66ad3561c1e5c019916365fb,687ed1b7e638a4cbf2f02089,689d06cbf62111061be3c2ae,,,,,,,,,,,,,12,1,,./stim/wavs/cuban_match_interrogative-total-yn_Marta-abre-el-regalo.wav,,,,,,,,,,,,,,,,,,,,,,393.113,395.15,1,1,1.521,,0,85,85,11,1,1,cuban,,,,,,,,,,,,,,,,,,,,,,,,,,,,,,,,,,,,,,,,,,,,,,,,,,,,,,,,
,,,,,,,,,66ad3561c1e5c019916365fb,not sure,13 or older,"no, only English or Spanish",no,2025-08-13_17h44.18.741,empathy_intonation_perc,2024.2.4,Linux x86_64,58.82352941,66ad3561c1e5c019916365fb,687ed1b7e638a4cbf2f02089,689d06cbf62111061be3c2ae,,,,,,,,,,,,,78,0,,./stim/wavs/cuban_mismatch_declarative-broad-focus_Mi-tia-odia-la-lluvia.wav,,,,,,,,,,,,,,,,,,,,,,395.151,397.402,0,1,1.736,,0,86,86,77,1,0,cuban,,,,,,,,,,,,,,,,,,,,,,,,,,,,,,,,,,,,,,,,,,,,,,,,,,,,,,,,
,,,,,,,,,66ad3561c1e5c019916365fb,not sure,13 or older,"no, only English or Spanish",no,2025-08-13_17h44.18.741,empathy_intonation_perc,2024.2.4,Linux x86_64,58.82352941,66ad3561c1e5c019916365fb,687ed1b7e638a4cbf2f02089,689d06cbf62111061be3c2ae,,,,,,,,,,,,,30,1,,./stim/wavs/cuban_mismatch_interrogative-total-yn_El-hombre-mira-la-luna.wav,,,,,,,,,,,,,,,,,,,,,,397.402,400.84,0,0,2.918,,0,87,87,29,1,1,cuban,,,,,,,,,,,,,,,,,,,,,,,,,,,,,,,,,,,,,,,,,,,,,,,,,,,,,,,,
,,,,,,,"Great! Now we will move on. The next task consists of about 60 trials, in each of which you will see a string of letters. 
  
  Your task is to decide whether this is a real Spanish word or not.", (press the spacebar to continue),66ad3561c1e5c019916365fb,not sure,13 or older,"no, only English or Spanish",no,2025-08-13_17h44.18.741,empathy_intonation_perc,2024.2.4,Linux x86_64,58.82352941,66ad3561c1e5c019916365fb,687ed1b7e638a4cbf2f02089,689d06cbf62111061be3c2ae,,,,,,,,,,,,,,,,,,,,,,,,,,,,,,,,,,,,,,,,,,,,,,,,,,,400.854,405.467,0,0,0,0,1,,,,,,,,,,,,,,,,,,,,,,,,,,,,,,,,,,,,,,,,,,,,,,,,,
,,,,,,,"If you think it is an existing Spanish word, you type '1' (for 'REAL'), and if you think it is not an existing Spanish word, you type '0' (for 'FAKE').", (press the spacebar to continue),66ad3561c1e5c019916365fb,not sure,13 or older,"no, only English or Spanish",no,2025-08-13_17h44.18.741,empathy_intonation_perc,2024.2.4,Linux x86_64,58.82352941,66ad3561c1e5c019916365fb,687ed1b7e638a4cbf2f02089,689d06cbf62111061be3c2ae,,,,,,,,,,,,,,,,,,,,,,,,,,,,,,,,,,,,,,,,,,,,,,,,,,,405.471,407.455,0,1,1,1,1,,,,,,,,,,,,,,,,,,,,,,,,,,,,,,,,,,,,,,,,,,,,,,,,,
,,,,,,,"If you are sure that the word exists, even though you don’t know its exact meaning, you may still respond '1' (REAL). 
  
  But if you are not sure if it is an existing word, you should respond '0' (FAKE).
  
  Let's do a practice round...", (press the spacebar to continue),66ad3561c1e5c019916365fb,not sure,13 or older,"no, only English or Spanish",no,2025-08-13_17h44.18.741,empathy_intonation_perc,2024.2.4,Linux x86_64,58.82352941,66ad3561c1e5c019916365fb,687ed1b7e638a4cbf2f02089,689d06cbf62111061be3c2ae,,,,,,,,,,,,,,,,,,,,,,,,,,,,,,,,,,,,,,,,,,,,,,,,,,,407.459,408.59,0,2,2,2,1,,,,,,,,,,,,,,,,,,,,,,,,,,,,,,,,,,,,,,,,,,,,,,,,,
,,,,,,,,,66ad3561c1e5c019916365fb,not sure,13 or older,"no, only English or Spanish",no,2025-08-13_17h44.18.741,empathy_intonation_perc,2024.2.4,Linux x86_64,58.82352941,66ad3561c1e5c019916365fb,687ed1b7e638a4cbf2f02089,689d06cbf62111061be3c2ae,,,,,,,,,,,,,,0,,,,,,,,,,,,,,,,,,,,,,,,,,,,,,,,,,,,,,,,,,,,408.6,411.981,1,0,2.849,,411.982,412.982,0,0,0,0,1,0,depiste,REAL,FAKE,,,,,,,,,,,,,,,,,,,,,,,,,,,,,,,,
,,,,,,,,,66ad3561c1e5c019916365fb,not sure,13 or older,"no, only English or Spanish",no,2025-08-13_17h44.18.741,empathy_intonation_perc,2024.2.4,Linux x86_64,58.82352941,66ad3561c1e5c019916365fb,687ed1b7e638a4cbf2f02089,689d06cbf62111061be3c2ae,,,,,,,,,,,,,,1,,,,,,,,,,,,,,,,,,,,,,,,,,,,,,,,,,,,,,,,,,,,412.984,414.701,1,1,1.184,,414.706,415.702,0,1,1,1,1,0,sí,REAL,FAKE,,,,,,,,,,,,,,,,,,,,,,,,,,,,,,,,
,,,,,,,,,66ad3561c1e5c019916365fb,not sure,13 or older,"no, only English or Spanish",no,2025-08-13_17h44.18.741,empathy_intonation_perc,2024.2.4,Linux x86_64,58.82352941,66ad3561c1e5c019916365fb,687ed1b7e638a4cbf2f02089,689d06cbf62111061be3c2ae,,,,,,,,,,,,,,0,,,,,,,,,,,,,,,,,,,,,,,,,,,,,,,,,,,,,,,,,,,,415.705,417.507,0,1,1.264,,417.507,418.508,0,2,2,2,1,0,coné,REAL,FAKE,,,,,,,,,,,,,,,,,,,,,,,,,,,,,,,,
,,,,,,,,,66ad3561c1e5c019916365fb,not sure,13 or older,"no, only English or Spanish",no,2025-08-13_17h44.18.741,empathy_intonation_perc,2024.2.4,Linux x86_64,58.82352941,66ad3561c1e5c019916365fb,687ed1b7e638a4cbf2f02089,689d06cbf62111061be3c2ae,,,,,,,,,,,,,,0,,,,,,,,,,,,,,,,,,,,,,,,,,,,,,,,,,,,,,,,,,,,418.509,420.596,0,1,1.569,,420.596,421.598,0,3,3,3,1,0,calpar,REAL,FAKE,,,,,,,,,,,,,,,,,,,,,,,,,,,,,,,,
,,,,,,,,,66ad3561c1e5c019916365fb,not sure,13 or older,"no, only English or Spanish",no,2025-08-13_17h44.18.741,empathy_intonation_perc,2024.2.4,Linux x86_64,58.82352941,66ad3561c1e5c019916365fb,687ed1b7e638a4cbf2f02089,689d06cbf62111061be3c2ae,,,,,,,,,,,,,,0,,,,,,,,,,,,,,,,,,,,,,,,,,,,,,,,,,,,,,,,,,,,421.601,423.418,0,1,1.283,,423.418,424.42,0,4,4,4,1,0,joten,REAL,FAKE,,,,,,,,,,,,,,,,,,,,,,,,,,,,,,,,
,,,,,,,,,66ad3561c1e5c019916365fb,not sure,13 or older,"no, only English or Spanish",no,2025-08-13_17h44.18.741,empathy_intonation_perc,2024.2.4,Linux x86_64,58.82352941,66ad3561c1e5c019916365fb,687ed1b7e638a4cbf2f02089,689d06cbf62111061be3c2ae,,,,,,,,,,,,,,1,,,,,,,,,,,,,,,,,,,,,,,,,,,,,,,,,,,,,,,,,,,,424.422,426.757,0,0,1.81,,426.759,427.759,0,5,5,5,1,0,sacapuntas,REAL,FAKE,,,,,,,,,,,,,,,,,,,,,,,,,,,,,,,,
,,,,,,,,,66ad3561c1e5c019916365fb,not sure,13 or older,"no, only English or Spanish",no,2025-08-13_17h44.18.741,empathy_intonation_perc,2024.2.4,Linux x86_64,58.82352941,66ad3561c1e5c019916365fb,687ed1b7e638a4cbf2f02089,689d06cbf62111061be3c2ae,,,,,,,,,,,,,,0,,,,,,,,,,,,,,,,,,,,,,,,,,,,,,,,,,,,,,,,,,,,427.761,429.245,0,1,0.97,,429.247,430.247,0,6,6,6,1,0,priba,REAL,FAKE,,,,,,,,,,,,,,,,,,,,,,,,,,,,,,,,
,,,,,,,,,66ad3561c1e5c019916365fb,not sure,13 or older,"no, only English or Spanish",no,2025-08-13_17h44.18.741,empathy_intonation_perc,2024.2.4,Linux x86_64,58.82352941,66ad3561c1e5c019916365fb,687ed1b7e638a4cbf2f02089,689d06cbf62111061be3c2ae,,,,,,,,,,,,,,0,,,,,,,,,,,,,,,,,,,,,,,,,,,,,,,,,,,,,,,,,,,,430.249,432.185,0,1,1.421,,432.185,433.188,0,7,7,7,1,0,pelasula,REAL,FAKE,,,,,,,,,,,,,,,,,,,,,,,,,,,,,,,,
,,,,,,,,,66ad3561c1e5c019916365fb,not sure,13 or older,"no, only English or Spanish",no,2025-08-13_17h44.18.741,empathy_intonation_perc,2024.2.4,Linux x86_64,58.82352941,66ad3561c1e5c019916365fb,687ed1b7e638a4cbf2f02089,689d06cbf62111061be3c2ae,,,,,,,,,,,,,,1,,,,,,,,,,,,,,,,,,,,,,,,,,,,,,,,,,,,,,,,,,,,433.189,434.44,1,1,0.732,,434.441,435.439,0,8,8,8,1,0,bien,REAL,FAKE,,,,,,,,,,,,,,,,,,,,,,,,,,,,,,,,
,,,,,,,,,66ad3561c1e5c019916365fb,not sure,13 or older,"no, only English or Spanish",no,2025-08-13_17h44.18.741,empathy_intonation_perc,2024.2.4,Linux x86_64,58.82352941,66ad3561c1e5c019916365fb,687ed1b7e638a4cbf2f02089,689d06cbf62111061be3c2ae,,,,,,,,,,,,,,1,,,,,,,,,,,,,,,,,,,,,,,,,,,,,,,,,,,,,,,,,,,,435.44,436.676,1,1,0.716,,436.677,437.678,0,9,9,9,1,0,casa,REAL,FAKE,,,,,,,,,,,,,,,,,,,,,,,,,,,,,,,,
,,,,,,,,,66ad3561c1e5c019916365fb,not sure,13 or older,"no, only English or Spanish",no,2025-08-13_17h44.18.741,empathy_intonation_perc,2024.2.4,Linux x86_64,58.82352941,66ad3561c1e5c019916365fb,687ed1b7e638a4cbf2f02089,689d06cbf62111061be3c2ae,,,,,,,,,,,,,,0,,,,,,,,,,,,,,,,,,,,,,,,,,,,,,,,,,,,,,,,,,,,437.679,439.264,1,0,1.065,,439.265,440.265,0,10,10,10,1,0,lejo,REAL,FAKE,,,,,,,,,,,,,,,,,,,,,,,,,,,,,,,,
,,,,,,,,,66ad3561c1e5c019916365fb,not sure,13 or older,"no, only English or Spanish",no,2025-08-13_17h44.18.741,empathy_intonation_perc,2024.2.4,Linux x86_64,58.82352941,66ad3561c1e5c019916365fb,687ed1b7e638a4cbf2f02089,689d06cbf62111061be3c2ae,,,,,,,,,,,,,,0,,,,,,,,,,,,,,,,,,,,,,,,,,,,,,,,,,,,,,,,,,,,440.266,442.22,1,0,1.43,,442.22,443.223,0,11,11,11,1,0,pretantas,REAL,FAKE,,,,,,,,,,,,,,,,,,,,,,,,,,,,,,,,
,,,,,,,,,66ad3561c1e5c019916365fb,not sure,13 or older,"no, only English or Spanish",no,2025-08-13_17h44.18.741,empathy_intonation_perc,2024.2.4,Linux x86_64,58.82352941,66ad3561c1e5c019916365fb,687ed1b7e638a4cbf2f02089,689d06cbf62111061be3c2ae,,,,,,,,,,,,,,,,,,,,,,,,,,,,,,,,,,,,,,,,,,,,,,,,,,,,,,,,,,,,,,,,,,,,,,,,,,,443.223,444.24,,,,,,,,,,,,,,,,,,,,,,,,,,,,,,
,,,,,,,,,66ad3561c1e5c019916365fb,not sure,13 or older,"no, only English or Spanish",no,2025-08-13_17h44.18.741,empathy_intonation_perc,2024.2.4,Linux x86_64,58.82352941,66ad3561c1e5c019916365fb,687ed1b7e638a4cbf2f02089,689d06cbf62111061be3c2ae,,,,,,,,,,,,,,0,,,,,,,,,,,,,,,,,,,,,,,,,,,,,,,,,,,,,,,,,,,,,,,,,,,,,,,,,47,cartinar,,,,,444.262,445.945,0,1,1.157,,0,0,0,46,1,REAL,FAKE,,,,,,,,,,,,,,,,,
,,,,,,,,,66ad3561c1e5c019916365fb,not sure,13 or older,"no, only English or Spanish",no,2025-08-13_17h44.18.741,empathy_intonation_perc,2024.2.4,Linux x86_64,58.82352941,66ad3561c1e5c019916365fb,687ed1b7e638a4cbf2f02089,689d06cbf62111061be3c2ae,,,,,,,,,,,,,,1,,,,,,,,,,,,,,,,,,,,,,,,,,,,,,,,,,,,,,,,,,,,,,,,,,,,,,,,,56,musgo,,,,,445.946,447.413,0,0,0.957,,0,1,1,55,1,REAL,FAKE,,,,,,,,,,,,,,,,,
,,,,,,,,,66ad3561c1e5c019916365fb,not sure,13 or older,"no, only English or Spanish",no,2025-08-13_17h44.18.741,empathy_intonation_perc,2024.2.4,Linux x86_64,58.82352941,66ad3561c1e5c019916365fb,687ed1b7e638a4cbf2f02089,689d06cbf62111061be3c2ae,,,,,,,,,,,,,,1,,,,,,,,,,,,,,,,,,,,,,,,,,,,,,,,,,,,,,,,,,,,,,,,,,,,,,,,,81,pozo,,,,,447.414,448.848,1,1,0.904,,0,2,2,80,1,REAL,FAKE,,,,,,,,,,,,,,,,,
,,,,,,,,,66ad3561c1e5c019916365fb,not sure,13 or older,"no, only English or Spanish",no,2025-08-13_17h44.18.741,empathy_intonation_perc,2024.2.4,Linux x86_64,58.82352941,66ad3561c1e5c019916365fb,687ed1b7e638a4cbf2f02089,689d06cbf62111061be3c2ae,,,,,,,,,,,,,,1,,,,,,,,,,,,,,,,,,,,,,,,,,,,,,,,,,,,,,,,,,,,,,,,,,,,,,,,,51,candado,,,,,448.852,450.251,1,1,0.869,,0,3,3,50,1,REAL,FAKE,,,,,,,,,,,,,,,,,
,,,,,,,,,66ad3561c1e5c019916365fb,not sure,13 or older,"no, only English or Spanish",no,2025-08-13_17h44.18.741,empathy_intonation_perc,2024.2.4,Linux x86_64,58.82352941,66ad3561c1e5c019916365fb,687ed1b7e638a4cbf2f02089,689d06cbf62111061be3c2ae,,,,,,,,,,,,,,0,,,,,,,,,,,,,,,,,,,,,,,,,,,,,,,,,,,,,,,,,,,,,,,,,,,,,,,,,53,vegada,,,,,450.253,451.805,1,0,1.037,,0,4,4,52,1,REAL,FAKE,,,,,,,,,,,,,,,,,
,,,,,,,,,66ad3561c1e5c019916365fb,not sure,13 or older,"no, only English or Spanish",no,2025-08-13_17h44.18.741,empathy_intonation_perc,2024.2.4,Linux x86_64,58.82352941,66ad3561c1e5c019916365fb,687ed1b7e638a4cbf2f02089,689d06cbf62111061be3c2ae,,,,,,,,,,,,,,1,,,,,,,,,,,,,,,,,,,,,,,,,,,,,,,,,,,,,,,,,,,,,,,,,,,,,,,,,41,rebuscar,,,,,451.806,453.742,0,0,1.416,,0,5,5,40,1,REAL,FAKE,,,,,,,,,,,,,,,,,
,,,,,,,,,66ad3561c1e5c019916365fb,not sure,13 or older,"no, only English or Spanish",no,2025-08-13_17h44.18.741,empathy_intonation_perc,2024.2.4,Linux x86_64,58.82352941,66ad3561c1e5c019916365fb,687ed1b7e638a4cbf2f02089,689d06cbf62111061be3c2ae,,,,,,,,,,,,,,0,,,,,,,,,,,,,,,,,,,,,,,,,,,,,,,,,,,,,,,,,,,,,,,,,,,,,,,,,42,cadallo,,,,,453.744,455.479,1,0,1.224,,0,6,6,41,1,REAL,FAKE,,,,,,,,,,,,,,,,,
,,,,,,,,,66ad3561c1e5c019916365fb,not sure,13 or older,"no, only English or Spanish",no,2025-08-13_17h44.18.741,empathy_intonation_perc,2024.2.4,Linux x86_64,58.82352941,66ad3561c1e5c019916365fb,687ed1b7e638a4cbf2f02089,689d06cbf62111061be3c2ae,,,,,,,,,,,,,,1,,,,,,,,,,,,,,,,,,,,,,,,,,,,,,,,,,,,,,,,,,,,,,,,,,,,,,,,,85,laúd,,,,,455.48,458.566,0,0,2.567,,0,7,7,84,1,REAL,FAKE,,,,,,,,,,,,,,,,,
,,,,,,,,,66ad3561c1e5c019916365fb,not sure,13 or older,"no, only English or Spanish",no,2025-08-13_17h44.18.741,empathy_intonation_perc,2024.2.4,Linux x86_64,58.82352941,66ad3561c1e5c019916365fb,687ed1b7e638a4cbf2f02089,689d06cbf62111061be3c2ae,,,,,,,,,,,,,,1,,,,,,,,,,,,,,,,,,,,,,,,,,,,,,,,,,,,,,,,,,,,,,,,,,,,,,,,,88,acantilado,,,,,458.568,460.371,1,1,1.287,,0,8,8,87,1,REAL,FAKE,,,,,,,,,,,,,,,,,
,,,,,,,,,66ad3561c1e5c019916365fb,not sure,13 or older,"no, only English or Spanish",no,2025-08-13_17h44.18.741,empathy_intonation_perc,2024.2.4,Linux x86_64,58.82352941,66ad3561c1e5c019916365fb,687ed1b7e638a4cbf2f02089,689d06cbf62111061be3c2ae,,,,,,,,,,,,,,0,,,,,,,,,,,,,,,,,,,,,,,,,,,,,,,,,,,,,,,,,,,,,,,,,,,,,,,,,70,temblo,,,,,460.373,462.273,0,1,1.376,,0,9,9,69,1,REAL,FAKE,,,,,,,,,,,,,,,,,
,,,,,,,,,66ad3561c1e5c019916365fb,not sure,13 or older,"no, only English or Spanish",no,2025-08-13_17h44.18.741,empathy_intonation_perc,2024.2.4,Linux x86_64,58.82352941,66ad3561c1e5c019916365fb,687ed1b7e638a4cbf2f02089,689d06cbf62111061be3c2ae,,,,,,,,,,,,,,1,,,,,,,,,,,,,,,,,,,,,,,,,,,,,,,,,,,,,,,,,,,,,,,,,,,,,,,,,68,alegre,,,,,462.274,463.844,0,0,1.055,,0,10,10,67,1,REAL,FAKE,,,,,,,,,,,,,,,,,
,,,,,,,,,66ad3561c1e5c019916365fb,not sure,13 or older,"no, only English or Spanish",no,2025-08-13_17h44.18.741,empathy_intonation_perc,2024.2.4,Linux x86_64,58.82352941,66ad3561c1e5c019916365fb,687ed1b7e638a4cbf2f02089,689d06cbf62111061be3c2ae,,,,,,,,,,,,,,1,,,,,,,,,,,,,,,,,,,,,,,,,,,,,,,,,,,,,,,,,,,,,,,,,,,,,,,,,57,tacaño,,,,,463.846,466.012,1,1,1.652,,0,11,11,56,1,REAL,FAKE,,,,,,,,,,,,,,,,,
,,,,,,,,,66ad3561c1e5c019916365fb,not sure,13 or older,"no, only English or Spanish",no,2025-08-13_17h44.18.741,empathy_intonation_perc,2024.2.4,Linux x86_64,58.82352941,66ad3561c1e5c019916365fb,687ed1b7e638a4cbf2f02089,689d06cbf62111061be3c2ae,,,,,,,,,,,,,,1,,,,,,,,,,,,,,,,,,,,,,,,,,,,,,,,,,,,,,,,,,,,,,,,,,,,,,,,,24,látigo,,,,,466.014,467.935,1,1,1.381,,0,12,12,23,1,REAL,FAKE,,,,,,,,,,,,,,,,,
,,,,,,,,,66ad3561c1e5c019916365fb,not sure,13 or older,"no, only English or Spanish",no,2025-08-13_17h44.18.741,empathy_intonation_perc,2024.2.4,Linux x86_64,58.82352941,66ad3561c1e5c019916365fb,687ed1b7e638a4cbf2f02089,689d06cbf62111061be3c2ae,,,,,,,,,,,,,,1,,,,,,,,,,,,,,,,,,,,,,,,,,,,,,,,,,,,,,,,,,,,,,,,,,,,,,,,,45,jilguero,,,,,467.937,469.503,0,0,1.049,,0,13,13,44,1,REAL,FAKE,,,,,,,,,,,,,,,,,
,,,,,,,,,66ad3561c1e5c019916365fb,not sure,13 or older,"no, only English or Spanish",no,2025-08-13_17h44.18.741,empathy_intonation_perc,2024.2.4,Linux x86_64,58.82352941,66ad3561c1e5c019916365fb,687ed1b7e638a4cbf2f02089,689d06cbf62111061be3c2ae,,,,,,,,,,,,,,1,,,,,,,,,,,,,,,,,,,,,,,,,,,,,,,,,,,,,,,,,,,,,,,,,,,,,,,,,31,pandilla,,,,,469.504,471.225,1,1,1.207,,0,14,14,30,1,REAL,FAKE,,,,,,,,,,,,,,,,,
,,,,,,,,,66ad3561c1e5c019916365fb,not sure,13 or older,"no, only English or Spanish",no,2025-08-13_17h44.18.741,empathy_intonation_perc,2024.2.4,Linux x86_64,58.82352941,66ad3561c1e5c019916365fb,687ed1b7e638a4cbf2f02089,689d06cbf62111061be3c2ae,,,,,,,,,,,,,,1,,,,,,,,,,,,,,,,,,,,,,,,,,,,,,,,,,,,,,,,,,,,,,,,,,,,,,,,,69,engatusar,,,,,471.226,472.928,0,0,1.165,,0,15,15,68,1,REAL,FAKE,,,,,,,,,,,,,,,,,
,,,,,,,,,66ad3561c1e5c019916365fb,not sure,13 or older,"no, only English or Spanish",no,2025-08-13_17h44.18.741,empathy_intonation_perc,2024.2.4,Linux x86_64,58.82352941,66ad3561c1e5c019916365fb,687ed1b7e638a4cbf2f02089,689d06cbf62111061be3c2ae,,,,,,,,,,,,,,0,,,,,,,,,,,,,,,,,,,,,,,,,,,,,,,,,,,,,,,,,,,,,,,,,,,,,,,,,92,click the 0 key.,,,,,472.929,475.534,0,1,2.082,,0,16,16,91,1,REAL,FAKE,,,,,,,,,,,,,,,,,
,,,,,,,,,66ad3561c1e5c019916365fb,not sure,13 or older,"no, only English or Spanish",no,2025-08-13_17h44.18.741,empathy_intonation_perc,2024.2.4,Linux x86_64,58.82352941,66ad3561c1e5c019916365fb,687ed1b7e638a4cbf2f02089,689d06cbf62111061be3c2ae,,,,,,,,,,,,,,0,,,,,,,,,,,,,,,,,,,,,,,,,,,,,,,,,,,,,,,,,,,,,,,,,,,,,,,,,10,antar,,,,,475.536,477.304,0,1,1.249,,0,17,17,9,1,REAL,FAKE,,,,,,,,,,,,,,,,,
,,,,,,,,,66ad3561c1e5c019916365fb,not sure,13 or older,"no, only English or Spanish",no,2025-08-13_17h44.18.741,empathy_intonation_perc,2024.2.4,Linux x86_64,58.82352941,66ad3561c1e5c019916365fb,687ed1b7e638a4cbf2f02089,689d06cbf62111061be3c2ae,,,,,,,,,,,,,,0,,,,,,,,,,,,,,,,,,,,,,,,,,,,,,,,,,,,,,,,,,,,,,,,,,,,,,,,,27,acutación,,,,,477.307,480.024,0,1,2.185,,0,18,18,26,1,REAL,FAKE,,,,,,,,,,,,,,,,,
,,,,,,,,,66ad3561c1e5c019916365fb,not sure,13 or older,"no, only English or Spanish",no,2025-08-13_17h44.18.741,empathy_intonation_perc,2024.2.4,Linux x86_64,58.82352941,66ad3561c1e5c019916365fb,687ed1b7e638a4cbf2f02089,689d06cbf62111061be3c2ae,,,,,,,,,,,,,,1,,,,,,,,,,,,,,,,,,,,,,,,,,,,,,,,,,,,,,,,,,,,,,,,,,,,,,,,,91,click the 1 key.,,,,,480.033,481.644,1,1,1.076,,0,19,19,90,1,REAL,FAKE,,,,,,,,,,,,,,,,,
,,,,,,,,,66ad3561c1e5c019916365fb,not sure,13 or older,"no, only English or Spanish",no,2025-08-13_17h44.18.741,empathy_intonation_perc,2024.2.4,Linux x86_64,58.82352941,66ad3561c1e5c019916365fb,687ed1b7e638a4cbf2f02089,689d06cbf62111061be3c2ae,,,,,,,,,,,,,,0,,,,,,,,,,,,,,,,,,,,,,,,,,,,,,,,,,,,,,,,,,,,,,,,,,,,,,,,,4,batillón,,,,,481.646,483.145,1,0,0.973,,0,20,20,3,1,REAL,FAKE,,,,,,,,,,,,,,,,,
,,,,,,,,,66ad3561c1e5c019916365fb,not sure,13 or older,"no, only English or Spanish",no,2025-08-13_17h44.18.741,empathy_intonation_perc,2024.2.4,Linux x86_64,58.82352941,66ad3561c1e5c019916365fb,687ed1b7e638a4cbf2f02089,689d06cbf62111061be3c2ae,,,,,,,,,,,,,,1,,,,,,,,,,,,,,,,,,,,,,,,,,,,,,,,,,,,,,,,,,,,,,,,,,,,,,,,,49,ganar,,,,,483.146,484.516,0,0,0.852,,0,21,21,48,1,REAL,FAKE,,,,,,,,,,,,,,,,,
,,,,,,,,,66ad3561c1e5c019916365fb,not sure,13 or older,"no, only English or Spanish",no,2025-08-13_17h44.18.741,empathy_intonation_perc,2024.2.4,Linux x86_64,58.82352941,66ad3561c1e5c019916365fb,687ed1b7e638a4cbf2f02089,689d06cbf62111061be3c2ae,,,,,,,,,,,,,,0,,,,,,,,,,,,,,,,,,,,,,,,,,,,,,,,,,,,,,,,,,,,,,,,,,,,,,,,,19,brecedad,,,,,484.52,486.106,0,1,1.042,,0,22,22,18,1,REAL,FAKE,,,,,,,,,,,,,,,,,
,,,,,,,,,66ad3561c1e5c019916365fb,not sure,13 or older,"no, only English or Spanish",no,2025-08-13_17h44.18.741,empathy_intonation_perc,2024.2.4,Linux x86_64,58.82352941,66ad3561c1e5c019916365fb,687ed1b7e638a4cbf2f02089,689d06cbf62111061be3c2ae,,,,,,,,,,,,,,0,,,,,,,,,,,,,,,,,,,,,,,,,,,,,,,,,,,,,,,,,,,,,,,,,,,,,,,,,66,hacido,,,,,486.108,487.436,1,0,0.801,,0,23,23,65,1,REAL,FAKE,,,,,,,,,,,,,,,,,
,,,,,,,,,66ad3561c1e5c019916365fb,not sure,13 or older,"no, only English or Spanish",no,2025-08-13_17h44.18.741,empathy_intonation_perc,2024.2.4,Linux x86_64,58.82352941,66ad3561c1e5c019916365fb,687ed1b7e638a4cbf2f02089,689d06cbf62111061be3c2ae,,,,,,,,,,,,,,1,,,,,,,,,,,,,,,,,,,,,,,,,,,,,,,,,,,,,,,,,,,,,,,,,,,,,,,,,2,pellizcar,,,,,487.437,489.993,0,0,2.042,,0,24,24,1,1,REAL,FAKE,,,,,,,,,,,,,,,,,
,,,,,,,,,66ad3561c1e5c019916365fb,not sure,13 or older,"no, only English or Spanish",no,2025-08-13_17h44.18.741,empathy_intonation_perc,2024.2.4,Linux x86_64,58.82352941,66ad3561c1e5c019916365fb,687ed1b7e638a4cbf2f02089,689d06cbf62111061be3c2ae,,,,,,,,,,,,,,1,,,,,,,,,,,,,,,,,,,,,,,,,,,,,,,,,,,,,,,,,,,,,,,,,,,,,,,,,40,alfombra,,,,,489.994,492.079,0,0,1.548,,0,25,25,39,1,REAL,FAKE,,,,,,,,,,,,,,,,,
,,,,,,,,,66ad3561c1e5c019916365fb,not sure,13 or older,"no, only English or Spanish",no,2025-08-13_17h44.18.741,empathy_intonation_perc,2024.2.4,Linux x86_64,58.82352941,66ad3561c1e5c019916365fb,687ed1b7e638a4cbf2f02089,689d06cbf62111061be3c2ae,,,,,,,,,,,,,,0,,,,,,,,,,,,,,,,,,,,,,,,,,,,,,,,,,,,,,,,,,,,,,,,,,,,,,,,,16,abracer,,,,,492.08,493.973,0,1,1.375,,0,26,26,15,1,REAL,FAKE,,,,,,,,,,,,,,,,,
,,,,,,,,,66ad3561c1e5c019916365fb,not sure,13 or older,"no, only English or Spanish",no,2025-08-13_17h44.18.741,empathy_intonation_perc,2024.2.4,Linux x86_64,58.82352941,66ad3561c1e5c019916365fb,687ed1b7e638a4cbf2f02089,689d06cbf62111061be3c2ae,,,,,,,,,,,,,,0,,,,,,,,,,,,,,,,,,,,,,,,,,,,,,,,,,,,,,,,,,,,,,,,,,,,,,,,,32,fatacidad,,,,,493.974,495.67,1,0,1.16,,0,27,27,31,1,REAL,FAKE,,,,,,,,,,,,,,,,,
,,,,,,,,,66ad3561c1e5c019916365fb,not sure,13 or older,"no, only English or Spanish",no,2025-08-13_17h44.18.741,empathy_intonation_perc,2024.2.4,Linux x86_64,58.82352941,66ad3561c1e5c019916365fb,687ed1b7e638a4cbf2f02089,689d06cbf62111061be3c2ae,,,,,,,,,,,,,,0,,,,,,,,,,,,,,,,,,,,,,,,,,,,,,,,,,,,,,,,,,,,,,,,,,,,,,,,,87,grodo,,,,,495.671,497.19,0,1,1.012,,0,28,28,86,1,REAL,FAKE,,,,,,,,,,,,,,,,,
,,,,,,,,,66ad3561c1e5c019916365fb,not sure,13 or older,"no, only English or Spanish",no,2025-08-13_17h44.18.741,empathy_intonation_perc,2024.2.4,Linux x86_64,58.82352941,66ad3561c1e5c019916365fb,687ed1b7e638a4cbf2f02089,689d06cbf62111061be3c2ae,,,,,,,,,,,,,,1,,,,,,,,,,,,,,,,,,,,,,,,,,,,,,,,,,,,,,,,,,,,,,,,,,,,,,,,,78,frondoso,,,,,497.191,498.71,0,0,1.008,,0,29,29,77,1,REAL,FAKE,,,,,,,,,,,,,,,,,
,,,,,,,,,66ad3561c1e5c019916365fb,not sure,13 or older,"no, only English or Spanish",no,2025-08-13_17h44.18.741,empathy_intonation_perc,2024.2.4,Linux x86_64,58.82352941,66ad3561c1e5c019916365fb,687ed1b7e638a4cbf2f02089,689d06cbf62111061be3c2ae,,,,,,,,,,,,,,1,,,,,,,,,,,,,,,,,,,,,,,,,,,,,,,,,,,,,,,,,,,,,,,,,,,,,,,,,20,ávido,,,,,498.711,500.41,1,1,1.172,,0,30,30,19,1,REAL,FAKE,,,,,,,,,,,,,,,,,
,,,,,,,,,66ad3561c1e5c019916365fb,not sure,13 or older,"no, only English or Spanish",no,2025-08-13_17h44.18.741,empathy_intonation_perc,2024.2.4,Linux x86_64,58.82352941,66ad3561c1e5c019916365fb,687ed1b7e638a4cbf2f02089,689d06cbf62111061be3c2ae,,,,,,,,,,,,,,0,,,,,,,,,,,,,,,,,,,,,,,,,,,,,,,,,,,,,,,,,,,,,,,,,,,,,,,,,21,capillo,,,,,500.411,501.68,1,0,0.757,,0,31,31,20,1,REAL,FAKE,,,,,,,,,,,,,,,,,
,,,,,,,,,66ad3561c1e5c019916365fb,not sure,13 or older,"no, only English or Spanish",no,2025-08-13_17h44.18.741,empathy_intonation_perc,2024.2.4,Linux x86_64,58.82352941,66ad3561c1e5c019916365fb,687ed1b7e638a4cbf2f02089,689d06cbf62111061be3c2ae,,,,,,,,,,,,,,0,,,,,,,,,,,,,,,,,,,,,,,,,,,,,,,,,,,,,,,,,,,,,,,,,,,,,,,,,74,cintro,,,,,501.681,503.317,0,1,1.096,,0,32,32,73,1,REAL,FAKE,,,,,,,,,,,,,,,,,
,,,,,,,,,66ad3561c1e5c019916365fb,not sure,13 or older,"no, only English or Spanish",no,2025-08-13_17h44.18.741,empathy_intonation_perc,2024.2.4,Linux x86_64,58.82352941,66ad3561c1e5c019916365fb,687ed1b7e638a4cbf2f02089,689d06cbf62111061be3c2ae,,,,,,,,,,,,,,1,,,,,,,,,,,,,,,,,,,,,,,,,,,,,,,,,,,,,,,,,,,,,,,,,,,,,,,,,25,bisagra,,,,,503.318,504.871,0,0,1.032,,0,33,33,24,1,REAL,FAKE,,,,,,,,,,,,,,,,,
,,,,,,,,,66ad3561c1e5c019916365fb,not sure,13 or older,"no, only English or Spanish",no,2025-08-13_17h44.18.741,empathy_intonation_perc,2024.2.4,Linux x86_64,58.82352941,66ad3561c1e5c019916365fb,687ed1b7e638a4cbf2f02089,689d06cbf62111061be3c2ae,,,,,,,,,,,,,,1,,,,,,,,,,,,,,,,,,,,,,,,,,,,,,,,,,,,,,,,,,,,,,,,,,,,,,,,,9,hacha,,,,,504.872,506.926,0,0,1.525,,0,34,34,8,1,REAL,FAKE,,,,,,,,,,,,,,,,,
,,,,,,,,,66ad3561c1e5c019916365fb,not sure,13 or older,"no, only English or Spanish",no,2025-08-13_17h44.18.741,empathy_intonation_perc,2024.2.4,Linux x86_64,58.82352941,66ad3561c1e5c019916365fb,687ed1b7e638a4cbf2f02089,689d06cbf62111061be3c2ae,,,,,,,,,,,,,,1,,,,,,,,,,,,,,,,,,,,,,,,,,,,,,,,,,,,,,,,,,,,,,,,,,,,,,,,,39,torpe,,,,,506.926,508.546,0,0,1.098,,0,35,35,38,1,REAL,FAKE,,,,,,,,,,,,,,,,,
,,,,,,,,,66ad3561c1e5c019916365fb,not sure,13 or older,"no, only English or Spanish",no,2025-08-13_17h44.18.741,empathy_intonation_perc,2024.2.4,Linux x86_64,58.82352941,66ad3561c1e5c019916365fb,687ed1b7e638a4cbf2f02089,689d06cbf62111061be3c2ae,,,,,,,,,,,,,,1,,,,,,,,,,,,,,,,,,,,,,,,,,,,,,,,,,,,,,,,,,,,,,,,,,,,,,,,,61,seda,,,,,508.546,510.735,0,0,1.665,,0,36,36,60,1,REAL,FAKE,,,,,,,,,,,,,,,,,
,,,,,,,,,66ad3561c1e5c019916365fb,not sure,13 or older,"no, only English or Spanish",no,2025-08-13_17h44.18.741,empathy_intonation_perc,2024.2.4,Linux x86_64,58.82352941,66ad3561c1e5c019916365fb,687ed1b7e638a4cbf2f02089,689d06cbf62111061be3c2ae,,,,,,,,,,,,,,1,,,,,,,,,,,,,,,,,,,,,,,,,,,,,,,,,,,,,,,,,,,,,,,,,,,,,,,,,64,orgulloso,,,,,510.738,512.436,0,0,1.162,,0,37,37,63,1,REAL,FAKE,,,,,,,,,,,,,,,,,
,,,,,,,,,66ad3561c1e5c019916365fb,not sure,13 or older,"no, only English or Spanish",no,2025-08-13_17h44.18.741,empathy_intonation_perc,2024.2.4,Linux x86_64,58.82352941,66ad3561c1e5c019916365fb,687ed1b7e638a4cbf2f02089,689d06cbf62111061be3c2ae,,,,,,,,,,,,,,0,,,,,,,,,,,,,,,,,,,,,,,,,,,,,,,,,,,,,,,,,,,,,,,,,,,,,,,,,84,escuto,,,,,512.437,513.989,1,0,1.028,,0,38,38,83,1,REAL,FAKE,,,,,,,,,,,,,,,,,
,,,,,,,,,66ad3561c1e5c019916365fb,not sure,13 or older,"no, only English or Spanish",no,2025-08-13_17h44.18.741,empathy_intonation_perc,2024.2.4,Linux x86_64,58.82352941,66ad3561c1e5c019916365fb,687ed1b7e638a4cbf2f02089,689d06cbf62111061be3c2ae,,,,,,,,,,,,,,1,,,,,,,,,,,,,,,,,,,,,,,,,,,,,,,,,,,,,,,,,,,,,,,,,,,,,,,,,48,ladrón,,,,,513.991,515.66,1,1,1.153,,0,39,39,47,1,REAL,FAKE,,,,,,,,,,,,,,,,,
,,,,,,,,,66ad3561c1e5c019916365fb,not sure,13 or older,"no, only English or Spanish",no,2025-08-13_17h44.18.741,empathy_intonation_perc,2024.2.4,Linux x86_64,58.82352941,66ad3561c1e5c019916365fb,687ed1b7e638a4cbf2f02089,689d06cbf62111061be3c2ae,,,,,,,,,,,,,,1,,,,,,,,,,,,,,,,,,,,,,,,,,,,,,,,,,,,,,,,,,,,,,,,,,,,,,,,,3,pulmones,,,,,515.661,517.727,1,1,1.531,,0,40,40,2,1,REAL,FAKE,,,,,,,,,,,,,,,,,
,,,,,,,,,66ad3561c1e5c019916365fb,not sure,13 or older,"no, only English or Spanish",no,2025-08-13_17h44.18.741,empathy_intonation_perc,2024.2.4,Linux x86_64,58.82352941,66ad3561c1e5c019916365fb,687ed1b7e638a4cbf2f02089,689d06cbf62111061be3c2ae,,,,,,,,,,,,,,1,,,,,,,,,,,,,,,,,,,,,,,,,,,,,,,,,,,,,,,,,,,,,,,,,,,,,,,,,55,nevar,,,,,517.729,519.699,0,0,1.453,,0,41,41,54,1,REAL,FAKE,,,,,,,,,,,,,,,,,
,,,,,,,,,66ad3561c1e5c019916365fb,not sure,13 or older,"no, only English or Spanish",no,2025-08-13_17h44.18.741,empathy_intonation_perc,2024.2.4,Linux x86_64,58.82352941,66ad3561c1e5c019916365fb,687ed1b7e638a4cbf2f02089,689d06cbf62111061be3c2ae,,,,,,,,,,,,,,1,,,,,,,,,,,,,,,,,,,,,,,,,,,,,,,,,,,,,,,,,,,,,,,,,,,,,,,,,76,atar,,,,,519.701,521.568,1,1,1.355,,0,42,42,75,1,REAL,FAKE,,,,,,,,,,,,,,,,,
,,,,,,,,,66ad3561c1e5c019916365fb,not sure,13 or older,"no, only English or Spanish",no,2025-08-13_17h44.18.741,empathy_intonation_perc,2024.2.4,Linux x86_64,58.82352941,66ad3561c1e5c019916365fb,687ed1b7e638a4cbf2f02089,689d06cbf62111061be3c2ae,,,,,,,,,,,,,,1,,,,,,,,,,,,,,,,,,,,,,,,,,,,,,,,,,,,,,,,,,,,,,,,,,,,,,,,,52,camisa,,,,,521.57,522.937,1,1,0.838,,0,43,43,51,1,REAL,FAKE,,,,,,,,,,,,,,,,,
,,,,,,,,,66ad3561c1e5c019916365fb,not sure,13 or older,"no, only English or Spanish",no,2025-08-13_17h44.18.741,empathy_intonation_perc,2024.2.4,Linux x86_64,58.82352941,66ad3561c1e5c019916365fb,687ed1b7e638a4cbf2f02089,689d06cbf62111061be3c2ae,,,,,,,,,,,,,,1,,,,,,,,,,,,,,,,,,,,,,,,,,,,,,,,,,,,,,,,,,,,,,,,,,,,,,,,,54,fomentar,,,,,522.939,524.391,0,0,0.935,,0,44,44,53,1,REAL,FAKE,,,,,,,,,,,,,,,,,
,,,,,,,,,66ad3561c1e5c019916365fb,not sure,13 or older,"no, only English or Spanish",no,2025-08-13_17h44.18.741,empathy_intonation_perc,2024.2.4,Linux x86_64,58.82352941,66ad3561c1e5c019916365fb,687ed1b7e638a4cbf2f02089,689d06cbf62111061be3c2ae,,,,,,,,,,,,,,0,,,,,,,,,,,,,,,,,,,,,,,,,,,,,,,,,,,,,,,,,,,,,,,,,,,,,,,,,35,rompido,,,,,524.392,526.091,0,1,1.171,,0,45,45,34,1,REAL,FAKE,,,,,,,,,,,,,,,,,
,,,,,,,,,66ad3561c1e5c019916365fb,not sure,13 or older,"no, only English or Spanish",no,2025-08-13_17h44.18.741,empathy_intonation_perc,2024.2.4,Linux x86_64,58.82352941,66ad3561c1e5c019916365fb,687ed1b7e638a4cbf2f02089,689d06cbf62111061be3c2ae,,,,,,,,,,,,,,1,,,,,,,,,,,,,,,,,,,,,,,,,,,,,,,,,,,,,,,,,,,,,,,,,,,,,,,,,37,granuja,,,,,526.092,527.463,1,1,0.86,,0,46,46,36,1,REAL,FAKE,,,,,,,,,,,,,,,,,
,,,,,,,,,66ad3561c1e5c019916365fb,not sure,13 or older,"no, only English or Spanish",no,2025-08-13_17h44.18.741,empathy_intonation_perc,2024.2.4,Linux x86_64,58.82352941,66ad3561c1e5c019916365fb,687ed1b7e638a4cbf2f02089,689d06cbf62111061be3c2ae,,,,,,,,,,,,,,1,,,,,,,,,,,,,,,,,,,,,,,,,,,,,,,,,,,,,,,,,,,,,,,,,,,,,,,,,67,cabello,,,,,527.465,528.962,1,1,0.972,,0,47,47,66,1,REAL,FAKE,,,,,,,,,,,,,,,,,
,,,,,,,,,66ad3561c1e5c019916365fb,not sure,13 or older,"no, only English or Spanish",no,2025-08-13_17h44.18.741,empathy_intonation_perc,2024.2.4,Linux x86_64,58.82352941,66ad3561c1e5c019916365fb,687ed1b7e638a4cbf2f02089,689d06cbf62111061be3c2ae,,,,,,,,,,,,,,0,,,,,,,,,,,,,,,,,,,,,,,,,,,,,,,,,,,,,,,,,,,,,,,,,,,,,,,,,8,cadeña,,,,,528.964,530.367,1,0,0.892,,0,48,48,7,1,REAL,FAKE,,,,,,,,,,,,,,,,,
,,,,,,,,,66ad3561c1e5c019916365fb,not sure,13 or older,"no, only English or Spanish",no,2025-08-13_17h44.18.741,empathy_intonation_perc,2024.2.4,Linux x86_64,58.82352941,66ad3561c1e5c019916365fb,687ed1b7e638a4cbf2f02089,689d06cbf62111061be3c2ae,,,,,,,,,,,,,,1,,,,,,,,,,,,,,,,,,,,,,,,,,,,,,,,,,,,,,,,,,,,,,,,,,,,,,,,,5,zapato,,,,,530.368,531.92,1,1,1.041,,0,49,49,4,1,REAL,FAKE,,,,,,,,,,,,,,,,,
,,,,,,,,,66ad3561c1e5c019916365fb,not sure,13 or older,"no, only English or Spanish",no,2025-08-13_17h44.18.741,empathy_intonation_perc,2024.2.4,Linux x86_64,58.82352941,66ad3561c1e5c019916365fb,687ed1b7e638a4cbf2f02089,689d06cbf62111061be3c2ae,,,,,,,,,,,,,,1,,,,,,,,,,,,,,,,,,,,,,,,,,,,,,,,,,,,,,,,,,,,,,,,,,,,,,,,,60,matar,,,,,531.921,533.255,0,0,0.8,,0,50,50,59,1,REAL,FAKE,,,,,,,,,,,,,,,,,
,,,,,,,,,66ad3561c1e5c019916365fb,not sure,13 or older,"no, only English or Spanish",no,2025-08-13_17h44.18.741,empathy_intonation_perc,2024.2.4,Linux x86_64,58.82352941,66ad3561c1e5c019916365fb,687ed1b7e638a4cbf2f02089,689d06cbf62111061be3c2ae,,,,,,,,,,,,,,1,,,,,,,,,,,,,,,,,,,,,,,,,,,,,,,,,,,,,,,,,,,,,,,,,,,,,,,,,71,polvoriento,,,,,533.256,536.096,0,0,2.319,,0,51,51,70,1,REAL,FAKE,,,,,,,,,,,,,,,,,
,,,,,,,,,66ad3561c1e5c019916365fb,not sure,13 or older,"no, only English or Spanish",no,2025-08-13_17h44.18.741,empathy_intonation_perc,2024.2.4,Linux x86_64,58.82352941,66ad3561c1e5c019916365fb,687ed1b7e638a4cbf2f02089,689d06cbf62111061be3c2ae,,,,,,,,,,,,,,1,,,,,,,,,,,,,,,,,,,,,,,,,,,,,,,,,,,,,,,,,,,,,,,,,,,,,,,,,14,yunque,,,,,536.097,537.563,0,0,0.944,,0,52,52,13,1,REAL,FAKE,,,,,,,,,,,,,,,,,
,,,,,,,,,66ad3561c1e5c019916365fb,not sure,13 or older,"no, only English or Spanish",no,2025-08-13_17h44.18.741,empathy_intonation_perc,2024.2.4,Linux x86_64,58.82352941,66ad3561c1e5c019916365fb,687ed1b7e638a4cbf2f02089,689d06cbf62111061be3c2ae,,,,,,,,,,,,,,0,,,,,,,,,,,,,,,,,,,,,,,,,,,,,,,,,,,,,,,,,,,,,,,,,,,,,,,,,1,terzo,,,,,537.564,539.235,0,1,1.146,,0,53,53,0,1,REAL,FAKE,,,,,,,,,,,,,,,,,
,,,,,,,,,66ad3561c1e5c019916365fb,not sure,13 or older,"no, only English or Spanish",no,2025-08-13_17h44.18.741,empathy_intonation_perc,2024.2.4,Linux x86_64,58.82352941,66ad3561c1e5c019916365fb,687ed1b7e638a4cbf2f02089,689d06cbf62111061be3c2ae,,,,,,,,,,,,,,0,,,,,,,,,,,,,,,,,,,,,,,,,,,,,,,,,,,,,,,,,,,,,,,,,,,,,,,,,82,empirador,,,,,539.236,540.806,1,0,1.044,,0,54,54,81,1,REAL,FAKE,,,,,,,,,,,,,,,,,
,,,,,,,,,66ad3561c1e5c019916365fb,not sure,13 or older,"no, only English or Spanish",no,2025-08-13_17h44.18.741,empathy_intonation_perc,2024.2.4,Linux x86_64,58.82352941,66ad3561c1e5c019916365fb,687ed1b7e638a4cbf2f02089,689d06cbf62111061be3c2ae,,,,,,,,,,,,,,1,,,,,,,,,,,,,,,,,,,,,,,,,,,,,,,,,,,,,,,,,,,,,,,,,,,,,,,,,86,barato,,,,,540.807,542.107,1,1,0.782,,0,55,55,85,1,REAL,FAKE,,,,,,,,,,,,,,,,,
,,,,,,,,,66ad3561c1e5c019916365fb,not sure,13 or older,"no, only English or Spanish",no,2025-08-13_17h44.18.741,empathy_intonation_perc,2024.2.4,Linux x86_64,58.82352941,66ad3561c1e5c019916365fb,687ed1b7e638a4cbf2f02089,689d06cbf62111061be3c2ae,,,,,,,,,,,,,,1,,,,,,,,,,,,,,,,,,,,,,,,,,,,,,,,,,,,,,,,,,,,,,,,,,,,,,,,,62,flaco,,,,,542.109,543.912,0,0,1.264,,0,56,56,61,1,REAL,FAKE,,,,,,,,,,,,,,,,,
,,,,,,,,,66ad3561c1e5c019916365fb,not sure,13 or older,"no, only English or Spanish",no,2025-08-13_17h44.18.741,empathy_intonation_perc,2024.2.4,Linux x86_64,58.82352941,66ad3561c1e5c019916365fb,687ed1b7e638a4cbf2f02089,689d06cbf62111061be3c2ae,,,,,,,,,,,,,,0,,,,,,,,,,,,,,,,,,,,,,,,,,,,,,,,,,,,,,,,,,,,,,,,,,,,,,,,,29,decar,,,,,543.918,545.849,0,1,1.407,,0,57,57,28,1,REAL,FAKE,,,,,,,,,,,,,,,,,
,,,,,,,,,66ad3561c1e5c019916365fb,not sure,13 or older,"no, only English or Spanish",no,2025-08-13_17h44.18.741,empathy_intonation_perc,2024.2.4,Linux x86_64,58.82352941,66ad3561c1e5c019916365fb,687ed1b7e638a4cbf2f02089,689d06cbf62111061be3c2ae,,,,,,,,,,,,,,0,,,,,,,,,,,,,,,,,,,,,,,,,,,,,,,,,,,,,,,,,,,,,,,,,,,,,,,,,18,arsa,,,,,545.85,547.582,0,1,1.202,,0,58,58,17,1,REAL,FAKE,,,,,,,,,,,,,,,,,
,,,,,,,,,66ad3561c1e5c019916365fb,not sure,13 or older,"no, only English or Spanish",no,2025-08-13_17h44.18.741,empathy_intonation_perc,2024.2.4,Linux x86_64,58.82352941,66ad3561c1e5c019916365fb,687ed1b7e638a4cbf2f02089,689d06cbf62111061be3c2ae,,,,,,,,,,,,,,1,,,,,,,,,,,,,,,,,,,,,,,,,,,,,,,,,,,,,,,,,,,,,,,,,,,,,,,,,28,merodear,,,,,547.584,549.755,0,0,1.653,,0,59,59,27,1,REAL,FAKE,,,,,,,,,,,,,,,,,
,,,,,,,,,66ad3561c1e5c019916365fb,not sure,13 or older,"no, only English or Spanish",no,2025-08-13_17h44.18.741,empathy_intonation_perc,2024.2.4,Linux x86_64,58.82352941,66ad3561c1e5c019916365fb,687ed1b7e638a4cbf2f02089,689d06cbf62111061be3c2ae,,,,,,,,,,,,,,1,,,,,,,,,,,,,,,,,,,,,,,,,,,,,,,,,,,,,,,,,,,,,,,,,,,,,,,,,34,aviso,,,,,549.757,551.007,1,1,0.725,,0,60,60,33,1,REAL,FAKE,,,,,,,,,,,,,,,,,
,,,,,,,,,66ad3561c1e5c019916365fb,not sure,13 or older,"no, only English or Spanish",no,2025-08-13_17h44.18.741,empathy_intonation_perc,2024.2.4,Linux x86_64,58.82352941,66ad3561c1e5c019916365fb,687ed1b7e638a4cbf2f02089,689d06cbf62111061be3c2ae,,,,,,,,,,,,,,1,,,,,,,,,,,,,,,,,,,,,,,,,,,,,,,,,,,,,,,,,,,,,,,,,,,,,,,,,43,canela,,,,,551.008,552.227,1,1,0.695,,0,61,61,42,1,REAL,FAKE,,,,,,,,,,,,,,,,,
,,,,,,,,,66ad3561c1e5c019916365fb,not sure,13 or older,"no, only English or Spanish",no,2025-08-13_17h44.18.741,empathy_intonation_perc,2024.2.4,Linux x86_64,58.82352941,66ad3561c1e5c019916365fb,687ed1b7e638a4cbf2f02089,689d06cbf62111061be3c2ae,,,,,,,,,,,,,,0,,,,,,,,,,,,,,,,,,,,,,,,,,,,,,,,,,,,,,,,,,,,,,,,,,,,,,,,,79,tropaje,,,,,552.229,553.73,0,1,0.981,,0,62,62,78,1,REAL,FAKE,,,,,,,,,,,,,,,,,
,,,,,,,,,66ad3561c1e5c019916365fb,not sure,13 or older,"no, only English or Spanish",no,2025-08-13_17h44.18.741,empathy_intonation_perc,2024.2.4,Linux x86_64,58.82352941,66ad3561c1e5c019916365fb,687ed1b7e638a4cbf2f02089,689d06cbf62111061be3c2ae,,,,,,,,,,,,,,1,,,,,,,,,,,,,,,,,,,,,,,,,,,,,,,,,,,,,,,,,,,,,,,,,,,,,,,,,80,hormiga,,,,,553.731,555.496,0,0,1.253,,0,63,63,79,1,REAL,FAKE,,,,,,,,,,,,,,,,,
,,,,,,,,,66ad3561c1e5c019916365fb,not sure,13 or older,"no, only English or Spanish",no,2025-08-13_17h44.18.741,empathy_intonation_perc,2024.2.4,Linux x86_64,58.82352941,66ad3561c1e5c019916365fb,687ed1b7e638a4cbf2f02089,689d06cbf62111061be3c2ae,,,,,,,,,,,,,,0,,,,,,,,,,,,,,,,,,,,,,,,,,,,,,,,,,,,,,,,,,,,,,,,,,,,,,,,,50,flamida,,,,,555.498,557.234,1,0,1.214,,0,64,64,49,1,REAL,FAKE,,,,,,,,,,,,,,,,,
,,,,,,,,,66ad3561c1e5c019916365fb,not sure,13 or older,"no, only English or Spanish",no,2025-08-13_17h44.18.741,empathy_intonation_perc,2024.2.4,Linux x86_64,58.82352941,66ad3561c1e5c019916365fb,687ed1b7e638a4cbf2f02089,689d06cbf62111061be3c2ae,,,,,,,,,,,,,,0,,,,,,,,,,,,,,,,,,,,,,,,,,,,,,,,,,,,,,,,,,,,,,,,,,,,,,,,,63,esposante,,,,,557.236,558.92,1,0,1.162,,0,65,65,62,1,REAL,FAKE,,,,,,,,,,,,,,,,,
,,,,,,,,,66ad3561c1e5c019916365fb,not sure,13 or older,"no, only English or Spanish",no,2025-08-13_17h44.18.741,empathy_intonation_perc,2024.2.4,Linux x86_64,58.82352941,66ad3561c1e5c019916365fb,687ed1b7e638a4cbf2f02089,689d06cbf62111061be3c2ae,,,,,,,,,,,,,,1,,,,,,,,,,,,,,,,,,,,,,,,,,,,,,,,,,,,,,,,,,,,,,,,,,,,,,,,,7,pésimo,,,,,558.921,561.645,0,0,2.189,,0,66,66,6,1,REAL,FAKE,,,,,,,,,,,,,,,,,
,,,,,,,,,66ad3561c1e5c019916365fb,not sure,13 or older,"no, only English or Spanish",no,2025-08-13_17h44.18.741,empathy_intonation_perc,2024.2.4,Linux x86_64,58.82352941,66ad3561c1e5c019916365fb,687ed1b7e638a4cbf2f02089,689d06cbf62111061be3c2ae,,,,,,,,,,,,,,1,,,,,,,,,,,,,,,,,,,,,,,,,,,,,,,,,,,,,,,,,,,,,,,,,,,,,,,,,89,prisa,,,,,561.646,563.462,0,0,1.29,,0,67,67,88,1,REAL,FAKE,,,,,,,,,,,,,,,,,
,,,,,,,,,66ad3561c1e5c019916365fb,not sure,13 or older,"no, only English or Spanish",no,2025-08-13_17h44.18.741,empathy_intonation_perc,2024.2.4,Linux x86_64,58.82352941,66ad3561c1e5c019916365fb,687ed1b7e638a4cbf2f02089,689d06cbf62111061be3c2ae,,,,,,,,,,,,,,1,,,,,,,,,,,,,,,,,,,,,,,,,,,,,,,,,,,,,,,,,,,,,,,,,,,,,,,,,65,bizcocho,,,,,563.463,564.982,0,0,1.008,,0,68,68,64,1,REAL,FAKE,,,,,,,,,,,,,,,,,
,,,,,,,,,66ad3561c1e5c019916365fb,not sure,13 or older,"no, only English or Spanish",no,2025-08-13_17h44.18.741,empathy_intonation_perc,2024.2.4,Linux x86_64,58.82352941,66ad3561c1e5c019916365fb,687ed1b7e638a4cbf2f02089,689d06cbf62111061be3c2ae,,,,,,,,,,,,,,0,,,,,,,,,,,,,,,,,,,,,,,,,,,,,,,,,,,,,,,,,,,,,,,,,,,,,,,,,33,pauca,,,,,564.983,567.104,0,1,1.611,,0,69,69,32,1,REAL,FAKE,,,,,,,,,,,,,,,,,
,,,,,,,,,66ad3561c1e5c019916365fb,not sure,13 or older,"no, only English or Spanish",no,2025-08-13_17h44.18.741,empathy_intonation_perc,2024.2.4,Linux x86_64,58.82352941,66ad3561c1e5c019916365fb,687ed1b7e638a4cbf2f02089,689d06cbf62111061be3c2ae,,,,,,,,,,,,,,1,,,,,,,,,,,,,,,,,,,,,,,,,,,,,,,,,,,,,,,,,,,,,,,,,,,,,,,,,38,estornudar,,,,,567.105,568.723,0,0,1.106,,0,70,70,37,1,REAL,FAKE,,,,,,,,,,,,,,,,,
,,,,,,,,,66ad3561c1e5c019916365fb,not sure,13 or older,"no, only English or Spanish",no,2025-08-13_17h44.18.741,empathy_intonation_perc,2024.2.4,Linux x86_64,58.82352941,66ad3561c1e5c019916365fb,687ed1b7e638a4cbf2f02089,689d06cbf62111061be3c2ae,,,,,,,,,,,,,,1,,,,,,,,,,,,,,,,,,,,,,,,,,,,,,,,,,,,,,,,,,,,,,,,,,,,,,,,,90,clavel,,,,,568.724,570.562,0,0,1.323,,0,71,71,89,1,REAL,FAKE,,,,,,,,,,,,,,,,,
,,,,,,,,,66ad3561c1e5c019916365fb,not sure,13 or older,"no, only English or Spanish",no,2025-08-13_17h44.18.741,empathy_intonation_perc,2024.2.4,Linux x86_64,58.82352941,66ad3561c1e5c019916365fb,687ed1b7e638a4cbf2f02089,689d06cbf62111061be3c2ae,,,,,,,,,,,,,,1,,,,,,,,,,,,,,,,,,,,,,,,,,,,,,,,,,,,,,,,,,,,,,,,,,,,,,,,,26,secuestro,,,,,570.563,572.731,0,0,1.655,,0,72,72,25,1,REAL,FAKE,,,,,,,,,,,,,,,,,
,,,,,,,,,66ad3561c1e5c019916365fb,not sure,13 or older,"no, only English or Spanish",no,2025-08-13_17h44.18.741,empathy_intonation_perc,2024.2.4,Linux x86_64,58.82352941,66ad3561c1e5c019916365fb,687ed1b7e638a4cbf2f02089,689d06cbf62111061be3c2ae,,,,,,,,,,,,,,1,,,,,,,,,,,,,,,,,,,,,,,,,,,,,,,,,,,,,,,,,,,,,,,,,,,,,,,,,6,tergiversar,,,,,572.732,576.106,0,0,2.86,,0,73,73,5,1,REAL,FAKE,,,,,,,,,,,,,,,,,
,,,,,,,,,66ad3561c1e5c019916365fb,not sure,13 or older,"no, only English or Spanish",no,2025-08-13_17h44.18.741,empathy_intonation_perc,2024.2.4,Linux x86_64,58.82352941,66ad3561c1e5c019916365fb,687ed1b7e638a4cbf2f02089,689d06cbf62111061be3c2ae,,,,,,,,,,,,,,0,,,,,,,,,,,,,,,,,,,,,,,,,,,,,,,,,,,,,,,,,,,,,,,,,,,,,,,,,30,alardio,,,,,576.111,578.61,0,1,1.972,,0,74,74,29,1,REAL,FAKE,,,,,,,,,,,,,,,,,
,,,,,,,,,66ad3561c1e5c019916365fb,not sure,13 or older,"no, only English or Spanish",no,2025-08-13_17h44.18.741,empathy_intonation_perc,2024.2.4,Linux x86_64,58.82352941,66ad3561c1e5c019916365fb,687ed1b7e638a4cbf2f02089,689d06cbf62111061be3c2ae,,,,,,,,,,,,,,0,,,,,,,,,,,,,,,,,,,,,,,,,,,,,,,,,,,,,,,,,,,,,,,,,,,,,,,,,17,floroso,,,,,578.611,580.029,1,0,0.908,,0,75,75,16,1,REAL,FAKE,,,,,,,,,,,,,,,,,
,,,,,,,,,66ad3561c1e5c019916365fb,not sure,13 or older,"no, only English or Spanish",no,2025-08-13_17h44.18.741,empathy_intonation_perc,2024.2.4,Linux x86_64,58.82352941,66ad3561c1e5c019916365fb,687ed1b7e638a4cbf2f02089,689d06cbf62111061be3c2ae,,,,,,,,,,,,,,1,,,,,,,,,,,,,,,,,,,,,,,,,,,,,,,,,,,,,,,,,,,,,,,,,,,,,,,,,36,loro,,,,,580.03,581.932,0,0,1.371,,0,76,76,35,1,REAL,FAKE,,,,,,,,,,,,,,,,,
,,,,,,,,,66ad3561c1e5c019916365fb,not sure,13 or older,"no, only English or Spanish",no,2025-08-13_17h44.18.741,empathy_intonation_perc,2024.2.4,Linux x86_64,58.82352941,66ad3561c1e5c019916365fb,687ed1b7e638a4cbf2f02089,689d06cbf62111061be3c2ae,,,,,,,,,,,,,,1,,,,,,,,,,,,,,,,,,,,,,,,,,,,,,,,,,,,,,,,,,,,,,,,,,,,,,,,,11,cenefa,,,,,581.935,583.419,0,0,0.971,,0,77,77,10,1,REAL,FAKE,,,,,,,,,,,,,,,,,
,,,,,,,,,66ad3561c1e5c019916365fb,not sure,13 or older,"no, only English or Spanish",no,2025-08-13_17h44.18.741,empathy_intonation_perc,2024.2.4,Linux x86_64,58.82352941,66ad3561c1e5c019916365fb,687ed1b7e638a4cbf2f02089,689d06cbf62111061be3c2ae,,,,,,,,,,,,,,1,,,,,,,,,,,,,,,,,,,,,,,,,,,,,,,,,,,,,,,,,,,,,,,,,,,,,,,,,73,hervidor,,,,,583.421,586.107,0,0,2.174,,0,78,78,72,1,REAL,FAKE,,,,,,,,,,,,,,,,,
,,,,,,,,,66ad3561c1e5c019916365fb,not sure,13 or older,"no, only English or Spanish",no,2025-08-13_17h44.18.741,empathy_intonation_perc,2024.2.4,Linux x86_64,58.82352941,66ad3561c1e5c019916365fb,687ed1b7e638a4cbf2f02089,689d06cbf62111061be3c2ae,,,,,,,,,,,,,,1,,,,,,,,,,,,,,,,,,,,,,,,,,,,,,,,,,,,,,,,,,,,,,,,,,,,,,,,,77,tiburón,,,,,586.11,588.229,1,1,1.598,,0,79,79,76,1,REAL,FAKE,,,,,,,,,,,,,,,,,
,,,,,,,,,66ad3561c1e5c019916365fb,not sure,13 or older,"no, only English or Spanish",no,2025-08-13_17h44.18.741,empathy_intonation_perc,2024.2.4,Linux x86_64,58.82352941,66ad3561c1e5c019916365fb,687ed1b7e638a4cbf2f02089,689d06cbf62111061be3c2ae,,,,,,,,,,,,,,1,,,,,,,,,,,,,,,,,,,,,,,,,,,,,,,,,,,,,,,,,,,,,,,,,,,,,,,,,15,regar,,,,,588.23,589.911,0,0,1.151,,0,80,80,14,1,REAL,FAKE,,,,,,,,,,,,,,,,,
,,,,,,,,,66ad3561c1e5c019916365fb,not sure,13 or older,"no, only English or Spanish",no,2025-08-13_17h44.18.741,empathy_intonation_perc,2024.2.4,Linux x86_64,58.82352941,66ad3561c1e5c019916365fb,687ed1b7e638a4cbf2f02089,689d06cbf62111061be3c2ae,,,,,,,,,,,,,,1,,,,,,,,,,,,,,,,,,,,,,,,,,,,,,,,,,,,,,,,,,,,,,,,,,,,,,,,,46,martillo,,,,,589.911,591.399,1,1,0.976,,0,81,81,45,1,REAL,FAKE,,,,,,,,,,,,,,,,,
,,,,,,,,,66ad3561c1e5c019916365fb,not sure,13 or older,"no, only English or Spanish",no,2025-08-13_17h44.18.741,empathy_intonation_perc,2024.2.4,Linux x86_64,58.82352941,66ad3561c1e5c019916365fb,687ed1b7e638a4cbf2f02089,689d06cbf62111061be3c2ae,,,,,,,,,,,,,,1,,,,,,,,,,,,,,,,,,,,,,,,,,,,,,,,,,,,,,,,,,,,,,,,,,,,,,,,,83,guante,,,,,591.4,593.601,1,1,1.68,,0,82,82,82,1,REAL,FAKE,,,,,,,,,,,,,,,,,
,,,,,,,,,66ad3561c1e5c019916365fb,not sure,13 or older,"no, only English or Spanish",no,2025-08-13_17h44.18.741,empathy_intonation_perc,2024.2.4,Linux x86_64,58.82352941,66ad3561c1e5c019916365fb,687ed1b7e638a4cbf2f02089,689d06cbf62111061be3c2ae,,,,,,,,,,,,,,1,,,,,,,,,,,,,,,,,,,,,,,,,,,,,,,,,,,,,,,,,,,,,,,,,,,,,,,,,13,helar,,,,,593.603,594.905,0,0,0.781,,0,83,83,12,1,REAL,FAKE,,,,,,,,,,,,,,,,,
,,,,,,,,,66ad3561c1e5c019916365fb,not sure,13 or older,"no, only English or Spanish",no,2025-08-13_17h44.18.741,empathy_intonation_perc,2024.2.4,Linux x86_64,58.82352941,66ad3561c1e5c019916365fb,687ed1b7e638a4cbf2f02089,689d06cbf62111061be3c2ae,,,,,,,,,,,,,,0,,,,,,,,,,,,,,,,,,,,,,,,,,,,,,,,,,,,,,,,,,,,,,,,,,,,,,,,,72,pemición,,,,,594.906,596.51,1,0,1.08,,0,84,84,71,1,REAL,FAKE,,,,,,,,,,,,,,,,,
,,,,,,,,,66ad3561c1e5c019916365fb,not sure,13 or older,"no, only English or Spanish",no,2025-08-13_17h44.18.741,empathy_intonation_perc,2024.2.4,Linux x86_64,58.82352941,66ad3561c1e5c019916365fb,687ed1b7e638a4cbf2f02089,689d06cbf62111061be3c2ae,,,,,,,,,,,,,,1,,,,,,,,,,,,,,,,,,,,,,,,,,,,,,,,,,,,,,,,,,,,,,,,,,,,,,,,,12,asesinato,,,,,596.512,598.328,0,0,1.28,,0,85,85,11,1,REAL,FAKE,,,,,,,,,,,,,,,,,
,,,,,,,,,66ad3561c1e5c019916365fb,not sure,13 or older,"no, only English or Spanish",no,2025-08-13_17h44.18.741,empathy_intonation_perc,2024.2.4,Linux x86_64,58.82352941,66ad3561c1e5c019916365fb,687ed1b7e638a4cbf2f02089,689d06cbf62111061be3c2ae,,,,,,,,,,,,,,1,,,,,,,,,,,,,,,,,,,,,,,,,,,,,,,,,,,,,,,,,,,,,,,,,,,,,,,,,22,lacayo,,,,,598.329,601.803,0,0,2.961,,0,86,86,21,1,REAL,FAKE,,,,,,,,,,,,,,,,,
,,,,,,,,,66ad3561c1e5c019916365fb,not sure,13 or older,"no, only English or Spanish",no,2025-08-13_17h44.18.741,empathy_intonation_perc,2024.2.4,Linux x86_64,58.82352941,66ad3561c1e5c019916365fb,687ed1b7e638a4cbf2f02089,689d06cbf62111061be3c2ae,,,,,,,,,,,,,,1,,,,,,,,,,,,,,,,,,,,,,,,,,,,,,,,,,,,,,,,,,,,,,,,,,,,,,,,,59,besar,,,,,601.804,603.24,0,0,0.926,,0,87,87,58,1,REAL,FAKE,,,,,,,,,,,,,,,,,
,,,,,,,,,66ad3561c1e5c019916365fb,not sure,13 or older,"no, only English or Spanish",no,2025-08-13_17h44.18.741,empathy_intonation_perc,2024.2.4,Linux x86_64,58.82352941,66ad3561c1e5c019916365fb,687ed1b7e638a4cbf2f02089,689d06cbf62111061be3c2ae,,,,,,,,,,,,,,1,,,,,,,,,,,,,,,,,,,,,,,,,,,,,,,,,,,,,,,,,,,,,,,,,,,,,,,,,44,cuchara,,,,,603.242,604.659,0,0,0.902,,0,88,88,43,1,REAL,FAKE,,,,,,,,,,,,,,,,,
,,,,,,,,,66ad3561c1e5c019916365fb,not sure,13 or older,"no, only English or Spanish",no,2025-08-13_17h44.18.741,empathy_intonation_perc,2024.2.4,Linux x86_64,58.82352941,66ad3561c1e5c019916365fb,687ed1b7e638a4cbf2f02089,689d06cbf62111061be3c2ae,,,,,,,,,,,,,,0,,,,,,,,,,,,,,,,,,,,,,,,,,,,,,,,,,,,,,,,,,,,,,,,,,,,,,,,,58,plaudir,,,,,604.66,606.225,0,1,1.051,,0,89,89,57,1,REAL,FAKE,,,,,,,,,,,,,,,,,
,,,,,,,,,66ad3561c1e5c019916365fb,not sure,13 or older,"no, only English or Spanish",no,2025-08-13_17h44.18.741,empathy_intonation_perc,2024.2.4,Linux x86_64,58.82352941,66ad3561c1e5c019916365fb,687ed1b7e638a4cbf2f02089,689d06cbf62111061be3c2ae,,,,,,,,,,,,,,1,,,,,,,,,,,,,,,,,,,,,,,,,,,,,,,,,,,,,,,,,,,,,,,,,,,,,,,,,75,yacer,,,,,606.226,607.647,0,0,0.9,,0,90,90,74,1,REAL,FAKE,,,,,,,,,,,,,,,,,
,,,,,,,,,66ad3561c1e5c019916365fb,not sure,13 or older,"no, only English or Spanish",no,2025-08-13_17h44.18.741,empathy_intonation_perc,2024.2.4,Linux x86_64,58.82352941,66ad3561c1e5c019916365fb,687ed1b7e638a4cbf2f02089,689d06cbf62111061be3c2ae,,,,,,,,,,,,,,0,,,,,,,,,,,,,,,,,,,,,,,,,,,,,,,,,,,,,,,,,,,,,,,,,,,,,,,,,23,lampera,,,,,607.65,609.133,1,0,0.95,,0,91,91,22,1,REAL,FAKE,,,,,,,,,,,,,,,,,
,,,,,,,,,66ad3561c1e5c019916365fb,not sure,13 or older,"no, only English or Spanish",no,2025-08-13_17h44.18.741,empathy_intonation_perc,2024.2.4,Linux x86_64,58.82352941,66ad3561c1e5c019916365fb,687ed1b7e638a4cbf2f02089,689d06cbf62111061be3c2ae,,,,,,,,,,,,,,,,,,,,,,,,,,,,,,,,,,,,,,,,,,,,,,,,,,,,,,,,,,,,,,,,,,,,,,,,,,,,,,,,,,,,,,,,,,609.133,612.121,,,,,,,,,,,,,,,
,,,,,,,,,66ad3561c1e5c019916365fb,not sure,13 or older,"no, only English or Spanish",no,2025-08-13_17h44.18.741,empathy_intonation_perc,2024.2.4,Linux x86_64,58.82352941,66ad3561c1e5c019916365fb,687ed1b7e638a4cbf2f02089,689d06cbf62111061be3c2ae,,,,,,,,,,,,,1,,,,,,,,,,,,,,,,,,,,,,,,,,,,,,,,,,,,,,,,,,,,,,,,,,,,,,,,,,,,,,,,,,,,,,,,,,,,,,,612.143,623.609,slightly agree,0,0,0,0,1,I can easily tell if someone else wants to enter a conversation.,1,0,1,0,,
,,,,,,,,,66ad3561c1e5c019916365fb,not sure,13 or older,"no, only English or Spanish",no,2025-08-13_17h44.18.741,empathy_intonation_perc,2024.2.4,Linux x86_64,58.82352941,66ad3561c1e5c019916365fb,687ed1b7e638a4cbf2f02089,689d06cbf62111061be3c2ae,,,,,,,,,,,,,2,,,,,,,,,,,,,,,,,,,,,,,,,,,,,,,,,,,,,,,,,,,,,,,,,,,,,,,,,,,,,,,,,,,,,,,,,,,,,,,623.612,628.183,strongly disagree,0,1,1,1,1,I prefer animals to humans.,0,1,0,0,,
,,,,,,,,,66ad3561c1e5c019916365fb,not sure,13 or older,"no, only English or Spanish",no,2025-08-13_17h44.18.741,empathy_intonation_perc,2024.2.4,Linux x86_64,58.82352941,66ad3561c1e5c019916365fb,687ed1b7e638a4cbf2f02089,689d06cbf62111061be3c2ae,,,,,,,,,,,,,3,,,,,,,,,,,,,,,,,,,,,,,,,,,,,,,,,,,,,,,,,,,,,,,,,,,,,,,,,,,,,,,,,,,,,,,,,,,,,,,628.184,631.676,slightly disagree,0,2,2,2,1,I try to keep up with the current trends and fashions.,0,1,0,0,,
,,,,,,,,,66ad3561c1e5c019916365fb,not sure,13 or older,"no, only English or Spanish",no,2025-08-13_17h44.18.741,empathy_intonation_perc,2024.2.4,Linux x86_64,58.82352941,66ad3561c1e5c019916365fb,687ed1b7e638a4cbf2f02089,689d06cbf62111061be3c2ae,,,,,,,,,,,,,4,,,,,,,,,,,,,,,,,,,,,,,,,,,,,,,,,,,,,,,,,,,,,,,,,,,,,,,,,,,,,,,,,,,,,,,,,,,,,,,631.677,638.104,slightly disagree,0,3,3,3,1,"I find it difficult to explain to others things that I understand easily,   when they don't understand it first time.",1,0,0,1,,
,,,,,,,,,66ad3561c1e5c019916365fb,not sure,13 or older,"no, only English or Spanish",no,2025-08-13_17h44.18.741,empathy_intonation_perc,2024.2.4,Linux x86_64,58.82352941,66ad3561c1e5c019916365fb,687ed1b7e638a4cbf2f02089,689d06cbf62111061be3c2ae,,,,,,,,,,,,,5,,,,,,,,,,,,,,,,,,,,,,,,,,,,,,,,,,,,,,,,,,,,,,,,,,,,,,,,,,,,,,,,,,,,,,,,,,,,,,,638.106,642.137,slightly disagree,0,4,4,4,1,I dream most nights.,0,1,0,0,,
,,,,,,,,,66ad3561c1e5c019916365fb,not sure,13 or older,"no, only English or Spanish",no,2025-08-13_17h44.18.741,empathy_intonation_perc,2024.2.4,Linux x86_64,58.82352941,66ad3561c1e5c019916365fb,687ed1b7e638a4cbf2f02089,689d06cbf62111061be3c2ae,,,,,,,,,,,,,6,,,,,,,,,,,,,,,,,,,,,,,,,,,,,,,,,,,,,,,,,,,,,,,,,,,,,,,,,,,,,,,,,,,,,,,,,,,,,,,642.142,645.184,strongly agree,0,5,5,5,1,I really enjoy caring for other people.,1,0,1,0,,
,,,,,,,,,66ad3561c1e5c019916365fb,not sure,13 or older,"no, only English or Spanish",no,2025-08-13_17h44.18.741,empathy_intonation_perc,2024.2.4,Linux x86_64,58.82352941,66ad3561c1e5c019916365fb,687ed1b7e638a4cbf2f02089,689d06cbf62111061be3c2ae,,,,,,,,,,,,,7,,,,,,,,,,,,,,,,,,,,,,,,,,,,,,,,,,,,,,,,,,,,,,,,,,,,,,,,,,,,,,,,,,,,,,,,,,,,,,,645.187,648.391,slightly agree,0,6,6,6,1,I try to solve my own problems rather than discussing them with others.,0,1,0,0,,
