instructions_exposure.started,instructions_exposure.stopped,instructions_exposure_loop.thisRepN,instructions_exposure_loop.thisTrialN,instructions_exposure_loop.thisN,instructions_exposure_loop.thisIndex,instructions_exposure_loop.ran,instructions_text,continue_text,participant_id,"What variety of Spanish are you most familiar with? (e.g., Peruvian, Spanish, Mexican)",At what age did you begin learning Spanish?,Are you proficient in any languages other than English/Spanish?,"Are you familiar with Caribbean (e.g., Caribbean, Puerto Rican) or Galician Spanish?",date,expName,psychopyVersion,OS,frameRate,id,study_id,session,trial_exposure.started,trial_exposure.stopped,key_resp_exposure.keys,key_resp_exposure.corr,key_resp_exposure.rt,key_resp_exposure.duration,key_resp.keys,exposure_loop.thisRepN,exposure_loop.thisTrialN,exposure_loop.thisN,exposure_loop.thisIndex,exposure_loop.ran,item_num,correct_response,question,path,duration,instructions_2afc.started,instructions_2afc.stopped,instructions_2afc_loop.thisRepN,instructions_2afc_loop.thisTrialN,instructions_2afc_loop.thisN,instructions_2afc_loop.thisIndex,instructions_2afc_loop.ran,practice_2afc.started,practice_2afc.stopped,key_resp_2afc_practice.keys,key_resp_2afc_practice.corr,key_resp_2afc_practice.rt,key_resp_2afc_practice.duration,trials_2afc_practice_loop.thisRepN,trials_2afc_practice_loop.thisTrialN,trials_2afc_practice_loop.thisN,trials_2afc_practice_loop.thisIndex,trials_2afc_practice_loop.ran,check_2afc.started,check_2afc.stopped,trial_2afc.started,trial_2afc.stopped,key_resp_2afc_trial.keys,key_resp_2afc_trial.corr,key_resp_2afc_trial.rt,key_resp_2afc_trial.duration,trials_2afc_loop.thisRepN,trials_2afc_loop.thisTrialN,trials_2afc_loop.thisN,trials_2afc_loop.thisIndex,trials_2afc_loop.ran,target,variety,instructions_lextale.started,instructions_lextale.stopped,instructions_lextale_loop.thisRepN,instructions_lextale_loop.thisTrialN,instructions_lextale_loop.thisN,instructions_lextale_loop.thisIndex,instructions_lextale_loop.ran,practice_lextale.started,practice_lextale.stopped,key_resp_lextale_practice.keys,key_resp_lextale_practice.corr,key_resp_lextale_practice.rt,key_resp_lextale_practice.duration,practice_feedback_lextale.started,practice_feedback_lextale.stopped,trials_lextale_practice_loop.thisRepN,trials_lextale_practice_loop.thisTrialN,trials_lextale_practice_loop.thisN,trials_lextale_practice_loop.thisIndex,trials_lextale_practice_loop.ran,stim,word,prac_button_real,prac_button_false,check_lextale.started,check_lextale.stopped,trial_lextale.started,trial_lextale.stopped,key_resp_lextale_trial.keys,key_resp_lextale_trial.corr,key_resp_lextale_trial.rt,key_resp_lextale_trial.duration,trials_lextale_loop.thisRepN,trials_lextale_loop.thisTrialN,trials_lextale_loop.thisN,trials_lextale_loop.thisIndex,trials_lextale_loop.ran,button_real,button_false,instructions_eq.started,instructions_eq.stopped,trial_eq.started,trial_eq.stopped,slider_eq_trial.response,trials_eq_loop.thisRepN,trials_eq_loop.thisTrialN,trials_eq_loop.thisN,trials_eq_loop.thisIndex,trials_eq_loop.ran,item,is_test_item,is_distractor,is_agree_score,is_disagree_score,end_exp.started,end_exp.stopped
0.0228,5.2534,0,0,0,0,1,"In the following task, you are going to hear a series of conversations.", (press the space bar to continue),66c7719c71a1c4f4c2e712cd,spanish,13 or older,"no, only English or Spanish",no,2025-07-23_16h36.01.295,empathy_intonation_perc,2024.2.4,Win32,59.88023952,66c7719c71a1c4f4c2e712cd,687ed1b7e638a4cbf2f02089,6881475b36331189b01608d4,,,,,,,,,,,,,,,,,,,,,,,,,,,,,,,,,,,,,,,,,,,,,,,,,,,,,,,,,,,,,,,,,,,,,,,,,,,,,,,,,,,,,,,,,,,,,,,,,,,,,,,,,,
5.2547,8.8169,0,1,1,1,1,It is okay if you don't not 100% understand them!, (press the space bar to continue),66c7719c71a1c4f4c2e712cd,spanish,13 or older,"no, only English or Spanish",no,2025-07-23_16h36.01.295,empathy_intonation_perc,2024.2.4,Win32,59.88023952,66c7719c71a1c4f4c2e712cd,687ed1b7e638a4cbf2f02089,6881475b36331189b01608d4,,,,,,,,,,,,,,,,,,,,,,,,,,,,,,,,,,,,,,,,,,,,,,,,,,,,,,,,,,,,,,,,,,,,,,,,,,,,,,,,,,,,,,,,,,,,,,,,,,,,,,,,,,
8.82,12.2519,0,2,2,2,1,"After, you will read a sentence about the conversation and decide if it's true or false.", (press the space bar to continue),66c7719c71a1c4f4c2e712cd,spanish,13 or older,"no, only English or Spanish",no,2025-07-23_16h36.01.295,empathy_intonation_perc,2024.2.4,Win32,59.88023952,66c7719c71a1c4f4c2e712cd,687ed1b7e638a4cbf2f02089,6881475b36331189b01608d4,,,,,,,,,,,,,,,,,,,,,,,,,,,,,,,,,,,,,,,,,,,,,,,,,,,,,,,,,,,,,,,,,,,,,,,,,,,,,,,,,,,,,,,,,,,,,,,,,,,,,,,,,,
12.2568,17.7163,0,3,3,3,1,"If it's true, press '1' (True) and if it's false press '0' (False).", (press the space bar to continue),66c7719c71a1c4f4c2e712cd,spanish,13 or older,"no, only English or Spanish",no,2025-07-23_16h36.01.295,empathy_intonation_perc,2024.2.4,Win32,59.88023952,66c7719c71a1c4f4c2e712cd,687ed1b7e638a4cbf2f02089,6881475b36331189b01608d4,,,,,,,,,,,,,,,,,,,,,,,,,,,,,,,,,,,,,,,,,,,,,,,,,,,,,,,,,,,,,,,,,,,,,,,,,,,,,,,,,,,,,,,,,,,,,,,,,,,,,,,,,,
,,,,,,,,,66c7719c71a1c4f4c2e712cd,spanish,13 or older,"no, only English or Spanish",no,2025-07-23_16h36.01.295,empathy_intonation_perc,2024.2.4,Win32,59.88023952,66c7719c71a1c4f4c2e712cd,687ed1b7e638a4cbf2f02089,6881475b36331189b01608d4,17.7301,91.4623,1,1,13.6778,,,0,0,0,1,1,2,1,The mom asked the daughter if she already went to the supermarket.,./stim/exposure_wavs/dr_stimuli_convo.wav,60,,,,,,,,,,,,,,,,,,,,,,,,,,,,,,,,,,,,,,,,,,,,,,,,,,,,,,,,,,,,,,,,,,,,,,,,,,,,,,,,,,,,,,,,,
,,,,,,,,,66c7719c71a1c4f4c2e712cd,spanish,13 or older,"no, only English or Spanish",no,2025-07-23_16h36.01.295,empathy_intonation_perc,2024.2.4,Win32,59.88023952,66c7719c71a1c4f4c2e712cd,687ed1b7e638a4cbf2f02089,6881475b36331189b01608d4,91.4674,143.1428,1,1,4.6515,,,0,1,1,0,1,1,1,The son asked the mom if Aunt Marina is okay.,./stim/exposure_wavs/ga_stimuli_convo.wav,47,,,,,,,,,,,,,,,,,,,,,,,,,,,,,,,,,,,,,,,,,,,,,,,,,,,,,,,,,,,,,,,,,,,,,,,,,,,,,,,,,,,,,,,,,
,,,,,,,,,66c7719c71a1c4f4c2e712cd,spanish,13 or older,"no, only English or Spanish",no,2025-07-23_16h36.01.295,empathy_intonation_perc,2024.2.4,Win32,59.88023952,66c7719c71a1c4f4c2e712cd,687ed1b7e638a4cbf2f02089,6881475b36331189b01608d4,143.1449,186.3408,0,1,7.1647,,,0,2,2,2,1,3,0,The mom already has rice.,./stim/exposure_wavs/pr_stimuli_convo.wav,36,,,,,,,,,,,,,,,,,,,,,,,,,,,,,,,,,,,,,,,,,,,,,,,,,,,,,,,,,,,,,,,,,,,,,,,,,,,,,,,,,,,,,,,,,
,,,,,,,"In the following task you are going to hear a series of utterances. 

  You will decide if the utterances sound like questions or not using your keyboard.", (press the spacebar to continue),66c7719c71a1c4f4c2e712cd,spanish,13 or older,"no, only English or Spanish",no,2025-07-23_16h36.01.295,empathy_intonation_perc,2024.2.4,Win32,59.88023952,66c7719c71a1c4f4c2e712cd,687ed1b7e638a4cbf2f02089,6881475b36331189b01608d4,,,,,,,,,,,,,,,,,,186.3548,196.9413,0,0,0,0,1,,,,,,,,,,,,,,,,,,,,,,,,,,,,,,,,,,,,,,,,,,,,,,,,,,,,,,,,,,,,,,,,,,,,,,,,,,,,,,,,,,
,,,,,,,"If you believe the utterance is a question, type '1' (for 'yes') and if you do not 
  believe it is a question type '0' (for 'no').

  Let's practice a bit...", (press the spacebar to continue),66c7719c71a1c4f4c2e712cd,spanish,13 or older,"no, only English or Spanish",no,2025-07-23_16h36.01.295,empathy_intonation_perc,2024.2.4,Win32,59.88023952,66c7719c71a1c4f4c2e712cd,687ed1b7e638a4cbf2f02089,6881475b36331189b01608d4,,,,,,,,,,,,,,,,,,196.943,203.9279,0,1,1,1,1,,,,,,,,,,,,,,,,,,,,,,,,,,,,,,,,,,,,,,,,,,,,,,,,,,,,,,,,,,,,,,,,,,,,,,,,,,,,,,,,,,
,,,,,,,,,66c7719c71a1c4f4c2e712cd,spanish,13 or older,"no, only English or Spanish",no,2025-07-23_16h36.01.295,empathy_intonation_perc,2024.2.4,Win32,59.88023952,66c7719c71a1c4f4c2e712cd,687ed1b7e638a4cbf2f02089,6881475b36331189b01608d4,,,,,,,,,,,,,,0,,./stim/wavs/andalusian_statement_filler_Alberto-nunca-se-afeita.wav,,,,,,,,,203.943,206.692,0,1,2.2288,,0,0,0,5,1,,,,,,,,,,,,,,,,,,,,,,,,,,,,,,,,,,,,,,,,,,,,,,,,,,,,,,,,,,,,,,,,,,,,,,,
,,,,,,,,,66c7719c71a1c4f4c2e712cd,spanish,13 or older,"no, only English or Spanish",no,2025-07-23_16h36.01.295,empathy_intonation_perc,2024.2.4,Win32,59.88023952,66c7719c71a1c4f4c2e712cd,687ed1b7e638a4cbf2f02089,6881475b36331189b01608d4,,,,,,,,,,,,,,0,,./stim/wavs/cuban_statement_filler_Cocinabas-por-la-noche.wav,,,,,,,,,206.6934,209.3264,0,1,2.1279,,0,1,1,4,1,,,,,,,,,,,,,,,,,,,,,,,,,,,,,,,,,,,,,,,,,,,,,,,,,,,,,,,,,,,,,,,,,,,,,,,
,,,,,,,,,66c7719c71a1c4f4c2e712cd,spanish,13 or older,"no, only English or Spanish",no,2025-07-23_16h36.01.295,empathy_intonation_perc,2024.2.4,Win32,59.88023952,66c7719c71a1c4f4c2e712cd,687ed1b7e638a4cbf2f02089,6881475b36331189b01608d4,,,,,,,,,,,,,,1,,./stim/wavs/chilean_question_filler_Mi-padre-cantaba-bien.wav,,,,,,,,,209.3271,212.2074,1,1,2.353,,0,2,2,2,1,,,,,,,,,,,,,,,,,,,,,,,,,,,,,,,,,,,,,,,,,,,,,,,,,,,,,,,,,,,,,,,,,,,,,,,
,,,,,,,,,66c7719c71a1c4f4c2e712cd,spanish,13 or older,"no, only English or Spanish",no,2025-07-23_16h36.01.295,empathy_intonation_perc,2024.2.4,Win32,59.88023952,66c7719c71a1c4f4c2e712cd,687ed1b7e638a4cbf2f02089,6881475b36331189b01608d4,,,,,,,,,,,,,,1,,./stim/wavs/castilian_question_filler_Mi-esposo-conoce-al-chico.wav,,,,,,,,,212.2094,214.9573,1,1,2.2246,,0,3,3,0,1,,,,,,,,,,,,,,,,,,,,,,,,,,,,,,,,,,,,,,,,,,,,,,,,,,,,,,,,,,,,,,,,,,,,,,,
,,,,,,,,,66c7719c71a1c4f4c2e712cd,spanish,13 or older,"no, only English or Spanish",no,2025-07-23_16h36.01.295,empathy_intonation_perc,2024.2.4,Win32,59.88023952,66c7719c71a1c4f4c2e712cd,687ed1b7e638a4cbf2f02089,6881475b36331189b01608d4,,,,,,,,,,,,,,0,,./stim/wavs/peruvian_statement_filler_El-nino-habla-con-su-madre.wav,,,,,,,,,214.9596,218.1568,0,1,2.6636,,0,4,4,6,1,,,,,,,,,,,,,,,,,,,,,,,,,,,,,,,,,,,,,,,,,,,,,,,,,,,,,,,,,,,,,,,,,,,,,,,
,,,,,,,,,66c7719c71a1c4f4c2e712cd,spanish,13 or older,"no, only English or Spanish",no,2025-07-23_16h36.01.295,empathy_intonation_perc,2024.2.4,Win32,59.88023952,66c7719c71a1c4f4c2e712cd,687ed1b7e638a4cbf2f02089,6881475b36331189b01608d4,,,,,,,,,,,,,,0,,./stim/wavs/puertorican_statement_filler_La-nina-pinta-con-su-amiga.wav,,,,,,,,,218.1582,220.6927,0,1,2.0253,,0,5,5,7,1,,,,,,,,,,,,,,,,,,,,,,,,,,,,,,,,,,,,,,,,,,,,,,,,,,,,,,,,,,,,,,,,,,,,,,,
,,,,,,,,,66c7719c71a1c4f4c2e712cd,spanish,13 or older,"no, only English or Spanish",no,2025-07-23_16h36.01.295,empathy_intonation_perc,2024.2.4,Win32,59.88023952,66c7719c71a1c4f4c2e712cd,687ed1b7e638a4cbf2f02089,6881475b36331189b01608d4,,,,,,,,,,,,,,1,,./stim/wavs/mexican_question_filler_Felipe-no-tiene-contrasena.wav,,,,,,,,,220.6933,223.1554,1,1,1.9288,,0,6,6,3,1,,,,,,,,,,,,,,,,,,,,,,,,,,,,,,,,,,,,,,,,,,,,,,,,,,,,,,,,,,,,,,,,,,,,,,,
,,,,,,,,,66c7719c71a1c4f4c2e712cd,spanish,13 or older,"no, only English or Spanish",no,2025-07-23_16h36.01.295,empathy_intonation_perc,2024.2.4,Win32,59.88023952,66c7719c71a1c4f4c2e712cd,687ed1b7e638a4cbf2f02089,6881475b36331189b01608d4,,,,,,,,,,,,,,1,,./stim/wavs/argentine_question_filler_Mi-vecino-habla-mucho.wav,,,,,,,,,223.1572,225.1263,1,1,1.4492,,0,7,7,1,1,,,,,,,,,,,,,,,,,,,,,,,,,,,,,,,,,,,,,,,,,,,,,,,,,,,,,,,,,,,,,,,,,,,,,,,
,,,,,,,,,66c7719c71a1c4f4c2e712cd,spanish,13 or older,"no, only English or Spanish",no,2025-07-23_16h36.01.295,empathy_intonation_perc,2024.2.4,Win32,59.88023952,66c7719c71a1c4f4c2e712cd,687ed1b7e638a4cbf2f02089,6881475b36331189b01608d4,,,,,,,,,,,,,,,,,,,,,,,,,,,,,,,,,,,,225.1266,229.5944,,,,,,,,,,,,,,,,,,,,,,,,,,,,,,,,,,,,,,,,,,,,,,,,,,,,,,,,,,,,,,,,,,,,,
,,,,,,,,,66c7719c71a1c4f4c2e712cd,spanish,13 or older,"no, only English or Spanish",no,2025-07-23_16h36.01.295,empathy_intonation_perc,2024.2.4,Win32,59.88023952,66c7719c71a1c4f4c2e712cd,687ed1b7e638a4cbf2f02089,6881475b36331189b01608d4,,,,,,,,,,,,,65,0,,./stim/wavs/puertorican_match_declarative-broad-focus_David-leia-el-libro.wav,,,,,,,,,,,,,,,,,,,,,,229.6124,232.2898,0,1,2.1507,,0,0,0,64,1,0,puertorican,,,,,,,,,,,,,,,,,,,,,,,,,,,,,,,,,,,,,,,,,,,,,,,,,,,,,,,,
,,,,,,,,,66c7719c71a1c4f4c2e712cd,spanish,13 or older,"no, only English or Spanish",no,2025-07-23_16h36.01.295,empathy_intonation_perc,2024.2.4,Win32,59.88023952,66c7719c71a1c4f4c2e712cd,687ed1b7e638a4cbf2f02089,6881475b36331189b01608d4,,,,,,,,,,,,,5,1,,./stim/wavs/castilian_match_interrogative-total-yn_Mariano-habla-del-tiempo.wav,,,,,,,,,,,,,,,,,,,,,,232.2909,234.8628,1,1,2.0499,,0,1,1,4,1,0,castilian,,,,,,,,,,,,,,,,,,,,,,,,,,,,,,,,,,,,,,,,,,,,,,,,,,,,,,,,
,,,,,,,,,66c7719c71a1c4f4c2e712cd,spanish,13 or older,"no, only English or Spanish",no,2025-07-23_16h36.01.295,empathy_intonation_perc,2024.2.4,Win32,59.88023952,66c7719c71a1c4f4c2e712cd,687ed1b7e638a4cbf2f02089,6881475b36331189b01608d4,,,,,,,,,,,,,58,0,,./stim/wavs/mexican_match_declarative-broad-focus_Daniel-iba-a-Bolivia.wav,,,,,,,,,,,,,,,,,,,,,,234.8637,237.3931,0,1,2.0144,,0,2,2,57,1,0,mexican,,,,,,,,,,,,,,,,,,,,,,,,,,,,,,,,,,,,,,,,,,,,,,,,,,,,,,,,
,,,,,,,,,66c7719c71a1c4f4c2e712cd,spanish,13 or older,"no, only English or Spanish",no,2025-07-23_16h36.01.295,empathy_intonation_perc,2024.2.4,Win32,59.88023952,66c7719c71a1c4f4c2e712cd,687ed1b7e638a4cbf2f02089,6881475b36331189b01608d4,,,,,,,,,,,,,30,1,,./stim/wavs/cuban_mismatch_interrogative-total-yn_El-hombre-mira-la-luna.wav,,,,,,,,,,,,,,,,,,,,,,237.3942,239.408,1,1,1.4963,,0,3,3,29,1,1,cuban,,,,,,,,,,,,,,,,,,,,,,,,,,,,,,,,,,,,,,,,,,,,,,,,,,,,,,,,
,,,,,,,,,66c7719c71a1c4f4c2e712cd,spanish,13 or older,"no, only English or Spanish",no,2025-07-23_16h36.01.295,empathy_intonation_perc,2024.2.4,Win32,59.88023952,66c7719c71a1c4f4c2e712cd,687ed1b7e638a4cbf2f02089,6881475b36331189b01608d4,,,,,,,,,,,,,55,0,,./stim/wavs/cuban_match_declarative-broad-focus_Mariano-habla-del-tiempo.wav,,,,,,,,,,,,,,,,,,,,,,239.4088,241.7226,0,1,1.7868,,0,4,4,54,1,0,cuban,,,,,,,,,,,,,,,,,,,,,,,,,,,,,,,,,,,,,,,,,,,,,,,,,,,,,,,,
,,,,,,,,,66c7719c71a1c4f4c2e712cd,spanish,13 or older,"no, only English or Spanish",no,2025-07-23_16h36.01.295,empathy_intonation_perc,2024.2.4,Win32,59.88023952,66c7719c71a1c4f4c2e712cd,687ed1b7e638a4cbf2f02089,6881475b36331189b01608d4,,,,,,,,,,,,,28,1,,./stim/wavs/castilian_mismatch_interrogative-total-yn_Mi-novio-viene-del-lago.wav,,,,,,,,,,,,,,,,,,,,,,241.7238,244.1888,1,1,1.921,,0,5,5,27,1,0,castilian,,,,,,,,,,,,,,,,,,,,,,,,,,,,,,,,,,,,,,,,,,,,,,,,,,,,,,,,
,,,,,,,,,66c7719c71a1c4f4c2e712cd,spanish,13 or older,"no, only English or Spanish",no,2025-07-23_16h36.01.295,empathy_intonation_perc,2024.2.4,Win32,59.88023952,66c7719c71a1c4f4c2e712cd,687ed1b7e638a4cbf2f02089,6881475b36331189b01608d4,,,,,,,,,,,,,54,0,,./stim/wavs/cuban_match_declarative-broad-focus_Maria-bebe-el-vino.wav,,,,,,,,,,,,,,,,,,,,,,244.1898,246.4751,0,1,1.7505,,0,6,6,53,1,0,cuban,,,,,,,,,,,,,,,,,,,,,,,,,,,,,,,,,,,,,,,,,,,,,,,,,,,,,,,,
,,,,,,,,,66c7719c71a1c4f4c2e712cd,spanish,13 or older,"no, only English or Spanish",no,2025-07-23_16h36.01.295,empathy_intonation_perc,2024.2.4,Win32,59.88023952,66c7719c71a1c4f4c2e712cd,687ed1b7e638a4cbf2f02089,6881475b36331189b01608d4,,,,,,,,,,,,,36,1,,./stim/wavs/mexican_mismatch_interrogative-total-yn_El-nino-oye-el-rio.wav,,,,,,,,,,,,,,,,,,,,,,246.4758,248.5887,0,0,1.5905,,0,7,7,35,1,0,mexican,,,,,,,,,,,,,,,,,,,,,,,,,,,,,,,,,,,,,,,,,,,,,,,,,,,,,,,,
,,,,,,,,,66c7719c71a1c4f4c2e712cd,spanish,13 or older,"no, only English or Spanish",no,2025-07-23_16h36.01.295,empathy_intonation_perc,2024.2.4,Win32,59.88023952,66c7719c71a1c4f4c2e712cd,687ed1b7e638a4cbf2f02089,6881475b36331189b01608d4,,,,,,,,,,,,,87,0,,./stim/wavs/puertorican_mismatch_declarative-broad-focus_La-maestra-vive-en-Paris.wav,,,,,,,,,,,,,,,,,,,,,,248.59,250.8422,0,1,1.7325,,0,8,8,86,1,0,puertorican,,,,,,,,,,,,,,,,,,,,,,,,,,,,,,,,,,,,,,,,,,,,,,,,,,,,,,,,
,,,,,,,,,66c7719c71a1c4f4c2e712cd,spanish,13 or older,"no, only English or Spanish",no,2025-07-23_16h36.01.295,empathy_intonation_perc,2024.2.4,Win32,59.88023952,66c7719c71a1c4f4c2e712cd,687ed1b7e638a4cbf2f02089,6881475b36331189b01608d4,,,,,,,,,,,,,11,1,,./stim/wavs/cuban_match_interrogative-total-yn_Mariano-habla-del-tiempo.wav,,,,,,,,,,,,,,,,,,,,,,250.8433,253.0545,0,0,1.6758,,0,9,9,10,1,1,cuban,,,,,,,,,,,,,,,,,,,,,,,,,,,,,,,,,,,,,,,,,,,,,,,,,,,,,,,,
,,,,,,,,,66c7719c71a1c4f4c2e712cd,spanish,13 or older,"no, only English or Spanish",no,2025-07-23_16h36.01.295,empathy_intonation_perc,2024.2.4,Win32,59.88023952,66c7719c71a1c4f4c2e712cd,687ed1b7e638a4cbf2f02089,6881475b36331189b01608d4,,,,,,,,,,,,,3,1,,./stim/wavs/castilian_match_interrogative-total-yn_Manuela-vende-el-carro.wav,,,,,,,,,,,,,,,,,,,,,,253.0561,255.3255,1,1,1.7613,,0,10,10,2,1,0,castilian,,,,,,,,,,,,,,,,,,,,,,,,,,,,,,,,,,,,,,,,,,,,,,,,,,,,,,,,
,,,,,,,,,66c7719c71a1c4f4c2e712cd,spanish,13 or older,"no, only English or Spanish",no,2025-07-23_16h36.01.295,empathy_intonation_perc,2024.2.4,Win32,59.88023952,66c7719c71a1c4f4c2e712cd,687ed1b7e638a4cbf2f02089,6881475b36331189b01608d4,,,,,,,,,,,,,57,0,,./stim/wavs/mexican_match_declarative-broad-focus_Ana-lleva-el-abrigo.wav,,,,,,,,,,,,,,,,,,,,,,255.3273,257.4222,0,1,1.5777,,0,11,11,56,1,0,mexican,,,,,,,,,,,,,,,,,,,,,,,,,,,,,,,,,,,,,,,,,,,,,,,,,,,,,,,,
,,,,,,,,,66c7719c71a1c4f4c2e712cd,spanish,13 or older,"no, only English or Spanish",no,2025-07-23_16h36.01.295,empathy_intonation_perc,2024.2.4,Win32,59.88023952,66c7719c71a1c4f4c2e712cd,687ed1b7e638a4cbf2f02089,6881475b36331189b01608d4,,,,,,,,,,,,,41,1,,./stim/wavs/puertorican_mismatch_interrogative-total-yn_El-nino-oye-el-rio.wav,,,,,,,,,,,,,,,,,,,,,,257.4234,259.8088,1,1,1.8801,,0,12,12,40,1,1,puertorican,,,,,,,,,,,,,,,,,,,,,,,,,,,,,,,,,,,,,,,,,,,,,,,,,,,,,,,,
,,,,,,,,,66c7719c71a1c4f4c2e712cd,spanish,13 or older,"no, only English or Spanish",no,2025-07-23_16h36.01.295,empathy_intonation_perc,2024.2.4,Win32,59.88023952,66c7719c71a1c4f4c2e712cd,687ed1b7e638a4cbf2f02089,6881475b36331189b01608d4,,,,,,,,,,,,,18,1,,./stim/wavs/mexican_match_interrogative-total-yn_Marta-abre-el-regalo.wav,,,,,,,,,,,,,,,,,,,,,,259.8097,261.7094,1,1,1.3833,,0,13,13,17,1,0,mexican,,,,,,,,,,,,,,,,,,,,,,,,,,,,,,,,,,,,,,,,,,,,,,,,,,,,,,,,
,,,,,,,,,66c7719c71a1c4f4c2e712cd,spanish,13 or older,"no, only English or Spanish",no,2025-07-23_16h36.01.295,empathy_intonation_perc,2024.2.4,Win32,59.88023952,66c7719c71a1c4f4c2e712cd,687ed1b7e638a4cbf2f02089,6881475b36331189b01608d4,,,,,,,,,,,,,38,1,,./stim/wavs/mexican_mismatch_interrogative-total-yn_Mi-novio-viene-del-lago.wav,,,,,,,,,,,,,,,,,,,,,,261.7103,263.7544,1,1,1.5208,,0,14,14,37,1,0,mexican,,,,,,,,,,,,,,,,,,,,,,,,,,,,,,,,,,,,,,,,,,,,,,,,,,,,,,,,
,,,,,,,,,66c7719c71a1c4f4c2e712cd,spanish,13 or older,"no, only English or Spanish",no,2025-07-23_16h36.01.295,empathy_intonation_perc,2024.2.4,Win32,59.88023952,66c7719c71a1c4f4c2e712cd,687ed1b7e638a4cbf2f02089,6881475b36331189b01608d4,,,,,,,,,,,,,81,0,,./stim/wavs/mexican_mismatch_declarative-broad-focus_La-maestra-vive-en-Paris.wav,,,,,,,,,,,,,,,,,,,,,,263.7561,265.9592,0,1,1.6827,,0,15,15,80,1,0,mexican,,,,,,,,,,,,,,,,,,,,,,,,,,,,,,,,,,,,,,,,,,,,,,,,,,,,,,,,
,,,,,,,,,66c7719c71a1c4f4c2e712cd,spanish,13 or older,"no, only English or Spanish",no,2025-07-23_16h36.01.295,empathy_intonation_perc,2024.2.4,Win32,59.88023952,66c7719c71a1c4f4c2e712cd,687ed1b7e638a4cbf2f02089,6881475b36331189b01608d4,,,,,,,,,,,,,66,0,,./stim/wavs/puertorican_match_declarative-broad-focus_Emilio-ama-la-marcha.wav,,,,,,,,,,,,,,,,,,,,,,265.9603,268.0041,0,1,1.5221,,0,16,16,65,1,0,puertorican,,,,,,,,,,,,,,,,,,,,,,,,,,,,,,,,,,,,,,,,,,,,,,,,,,,,,,,,
,,,,,,,,,66c7719c71a1c4f4c2e712cd,spanish,13 or older,"no, only English or Spanish",no,2025-07-23_16h36.01.295,empathy_intonation_perc,2024.2.4,Win32,59.88023952,66c7719c71a1c4f4c2e712cd,687ed1b7e638a4cbf2f02089,6881475b36331189b01608d4,,,,,,,,,,,,,64,0,,./stim/wavs/puertorican_match_declarative-broad-focus_Daniel-iba-a-Bolivia.wav,,,,,,,,,,,,,,,,,,,,,,268.0059,270.0546,0,1,1.5176,,0,17,17,63,1,0,puertorican,,,,,,,,,,,,,,,,,,,,,,,,,,,,,,,,,,,,,,,,,,,,,,,,,,,,,,,,
,,,,,,,,,66c7719c71a1c4f4c2e712cd,spanish,13 or older,"no, only English or Spanish",no,2025-07-23_16h36.01.295,empathy_intonation_perc,2024.2.4,Win32,59.88023952,66c7719c71a1c4f4c2e712cd,687ed1b7e638a4cbf2f02089,6881475b36331189b01608d4,,,,,,,,,,,,,63,0,,./stim/wavs/puertorican_match_declarative-broad-focus_Ana-lleva-el-abrigo.wav,,,,,,,,,,,,,,,,,,,,,,270.0565,271.904,0,1,1.3232,,0,18,18,62,1,0,puertorican,,,,,,,,,,,,,,,,,,,,,,,,,,,,,,,,,,,,,,,,,,,,,,,,,,,,,,,,
,,,,,,,,,66c7719c71a1c4f4c2e712cd,spanish,13 or older,"no, only English or Spanish",no,2025-07-23_16h36.01.295,empathy_intonation_perc,2024.2.4,Win32,59.88023952,66c7719c71a1c4f4c2e712cd,687ed1b7e638a4cbf2f02089,6881475b36331189b01608d4,,,,,,,,,,,,,9,1,,./stim/wavs/cuban_match_interrogative-total-yn_Manuela-vende-el-carro.wav,,,,,,,,,,,,,,,,,,,,,,271.9059,274.0708,0,0,1.6411,,0,19,19,8,1,1,cuban,,,,,,,,,,,,,,,,,,,,,,,,,,,,,,,,,,,,,,,,,,,,,,,,,,,,,,,,
,,,,,,,,,66c7719c71a1c4f4c2e712cd,spanish,13 or older,"no, only English or Spanish",no,2025-07-23_16h36.01.295,empathy_intonation_perc,2024.2.4,Win32,59.88023952,66c7719c71a1c4f4c2e712cd,687ed1b7e638a4cbf2f02089,6881475b36331189b01608d4,,,,,,,,,,,,,37,1,,./stim/wavs/mexican_mismatch_interrogative-total-yn_La-maestra-vive-en-Paris.wav,,,,,,,,,,,,,,,,,,,,,,274.0722,276.2591,1,1,1.6509,,0,20,20,36,1,0,mexican,,,,,,,,,,,,,,,,,,,,,,,,,,,,,,,,,,,,,,,,,,,,,,,,,,,,,,,,
,,,,,,,,,66c7719c71a1c4f4c2e712cd,spanish,13 or older,"no, only English or Spanish",no,2025-07-23_16h36.01.295,empathy_intonation_perc,2024.2.4,Win32,59.88023952,66c7719c71a1c4f4c2e712cd,687ed1b7e638a4cbf2f02089,6881475b36331189b01608d4,,,,,,,,,,,,,74,0,,./stim/wavs/cuban_mismatch_declarative-broad-focus_El-bebe-comia-muy-bien.wav,,,,,,,,,,,,,,,,,,,,,,276.2601,278.2576,0,1,1.4813,,0,21,21,73,1,0,cuban,,,,,,,,,,,,,,,,,,,,,,,,,,,,,,,,,,,,,,,,,,,,,,,,,,,,,,,,
,,,,,,,,,66c7719c71a1c4f4c2e712cd,spanish,13 or older,"no, only English or Spanish",no,2025-07-23_16h36.01.295,empathy_intonation_perc,2024.2.4,Win32,59.88023952,66c7719c71a1c4f4c2e712cd,687ed1b7e638a4cbf2f02089,6881475b36331189b01608d4,,,,,,,,,,,,,68,0,,./stim/wavs/puertorican_match_declarative-broad-focus_Maria-bebe-el-vino.wav,,,,,,,,,,,,,,,,,,,,,,278.2586,280.1713,0,1,1.394,,0,22,22,67,1,0,puertorican,,,,,,,,,,,,,,,,,,,,,,,,,,,,,,,,,,,,,,,,,,,,,,,,,,,,,,,,
,,,,,,,,,66c7719c71a1c4f4c2e712cd,spanish,13 or older,"no, only English or Spanish",no,2025-07-23_16h36.01.295,empathy_intonation_perc,2024.2.4,Win32,59.88023952,66c7719c71a1c4f4c2e712cd,687ed1b7e638a4cbf2f02089,6881475b36331189b01608d4,,,,,,,,,,,,,59,0,,./stim/wavs/mexican_match_declarative-broad-focus_David-leia-el-libro.wav,,,,,,,,,,,,,,,,,,,,,,280.1727,282.2428,0,1,1.5491,,0,23,23,58,1,0,mexican,,,,,,,,,,,,,,,,,,,,,,,,,,,,,,,,,,,,,,,,,,,,,,,,,,,,,,,,
,,,,,,,,,66c7719c71a1c4f4c2e712cd,spanish,13 or older,"no, only English or Spanish",no,2025-07-23_16h36.01.295,empathy_intonation_perc,2024.2.4,Win32,59.88023952,66c7719c71a1c4f4c2e712cd,687ed1b7e638a4cbf2f02089,6881475b36331189b01608d4,,,,,,,,,,,,,12,1,,./stim/wavs/cuban_match_interrogative-total-yn_Marta-abre-el-regalo.wav,,,,,,,,,,,,,,,,,,,,,,282.2445,284.5699,0,0,1.7991,,0,24,24,11,1,1,cuban,,,,,,,,,,,,,,,,,,,,,,,,,,,,,,,,,,,,,,,,,,,,,,,,,,,,,,,,
,,,,,,,,,66c7719c71a1c4f4c2e712cd,spanish,13 or older,"no, only English or Spanish",no,2025-07-23_16h36.01.295,empathy_intonation_perc,2024.2.4,Win32,59.88023952,66c7719c71a1c4f4c2e712cd,687ed1b7e638a4cbf2f02089,6881475b36331189b01608d4,,,,,,,,,,,,,76,0,,./stim/wavs/cuban_mismatch_declarative-broad-focus_La-nina-lava-el-plato.wav,,,,,,,,,,,,,,,,,,,,,,284.5717,286.5366,0,1,1.4189,,0,25,25,75,1,0,cuban,,,,,,,,,,,,,,,,,,,,,,,,,,,,,,,,,,,,,,,,,,,,,,,,,,,,,,,,
,,,,,,,,,66c7719c71a1c4f4c2e712cd,spanish,13 or older,"no, only English or Spanish",no,2025-07-23_16h36.01.295,empathy_intonation_perc,2024.2.4,Win32,59.88023952,66c7719c71a1c4f4c2e712cd,687ed1b7e638a4cbf2f02089,6881475b36331189b01608d4,,,,,,,,,,,,,21,1,,./stim/wavs/puertorican_match_interrogative-total-yn_David-leia-el-libro.wav,,,,,,,,,,,,,,,,,,,,,,286.5386,288.4868,1,1,1.4174,,0,26,26,20,1,1,puertorican,,,,,,,,,,,,,,,,,,,,,,,,,,,,,,,,,,,,,,,,,,,,,,,,,,,,,,,,
,,,,,,,,,66c7719c71a1c4f4c2e712cd,spanish,13 or older,"no, only English or Spanish",no,2025-07-23_16h36.01.295,empathy_intonation_perc,2024.2.4,Win32,59.88023952,66c7719c71a1c4f4c2e712cd,687ed1b7e638a4cbf2f02089,6881475b36331189b01608d4,,,,,,,,,,,,,22,1,,./stim/wavs/puertorican_match_interrogative-total-yn_Emilio-ama-la-marcha.wav,,,,,,,,,,,,,,,,,,,,,,288.489,290.8573,0,0,1.834,,0,27,27,21,1,1,puertorican,,,,,,,,,,,,,,,,,,,,,,,,,,,,,,,,,,,,,,,,,,,,,,,,,,,,,,,,
,,,,,,,,,66c7719c71a1c4f4c2e712cd,spanish,13 or older,"no, only English or Spanish",no,2025-07-23_16h36.01.295,empathy_intonation_perc,2024.2.4,Win32,59.88023952,66c7719c71a1c4f4c2e712cd,687ed1b7e638a4cbf2f02089,6881475b36331189b01608d4,,,,,,,,,,,,,46,0,,./stim/wavs/castilian_match_declarative-broad-focus_Emilio-ama-la-marcha.wav,,,,,,,,,,,,,,,,,,,,,,290.8582,293.0737,0,1,1.6837,,0,28,28,45,1,0,castilian,,,,,,,,,,,,,,,,,,,,,,,,,,,,,,,,,,,,,,,,,,,,,,,,,,,,,,,,
,,,,,,,,,66c7719c71a1c4f4c2e712cd,spanish,13 or older,"no, only English or Spanish",no,2025-07-23_16h36.01.295,empathy_intonation_perc,2024.2.4,Win32,59.88023952,66c7719c71a1c4f4c2e712cd,687ed1b7e638a4cbf2f02089,6881475b36331189b01608d4,,,,,,,,,,,,,35,1,,./stim/wavs/mexican_mismatch_interrogative-total-yn_El-hombre-mira-la-luna.wav,,,,,,,,,,,,,,,,,,,,,,293.0745,295.3198,1,1,1.7179,,0,29,29,34,1,0,mexican,,,,,,,,,,,,,,,,,,,,,,,,,,,,,,,,,,,,,,,,,,,,,,,,,,,,,,,,
,,,,,,,,,66c7719c71a1c4f4c2e712cd,spanish,13 or older,"no, only English or Spanish",no,2025-07-23_16h36.01.295,empathy_intonation_perc,2024.2.4,Win32,59.88023952,66c7719c71a1c4f4c2e712cd,687ed1b7e638a4cbf2f02089,6881475b36331189b01608d4,,,,,,,,,,,,,83,0,,./stim/wavs/mexican_mismatch_declarative-broad-focus_Mi-tia-odia-la-lluvia.wav,,,,,,,,,,,,,,,,,,,,,,295.3212,297.3864,0,1,1.5203,,0,30,30,82,1,0,mexican,,,,,,,,,,,,,,,,,,,,,,,,,,,,,,,,,,,,,,,,,,,,,,,,,,,,,,,,
,,,,,,,,,66c7719c71a1c4f4c2e712cd,spanish,13 or older,"no, only English or Spanish",no,2025-07-23_16h36.01.295,empathy_intonation_perc,2024.2.4,Win32,59.88023952,66c7719c71a1c4f4c2e712cd,687ed1b7e638a4cbf2f02089,6881475b36331189b01608d4,,,,,,,,,,,,,75,0,,./stim/wavs/cuban_mismatch_declarative-broad-focus_El-hombre-mira-la-luna.wav,,,,,,,,,,,,,,,,,,,,,,297.3882,299.5856,0,1,1.6509,,0,31,31,74,1,0,cuban,,,,,,,,,,,,,,,,,,,,,,,,,,,,,,,,,,,,,,,,,,,,,,,,,,,,,,,,
,,,,,,,,,66c7719c71a1c4f4c2e712cd,spanish,13 or older,"no, only English or Spanish",no,2025-07-23_16h36.01.295,empathy_intonation_perc,2024.2.4,Win32,59.88023952,66c7719c71a1c4f4c2e712cd,687ed1b7e638a4cbf2f02089,6881475b36331189b01608d4,,,,,,,,,,,,,67,0,,./stim/wavs/puertorican_match_declarative-broad-focus_Manuela-vende-el-carro.wav,,,,,,,,,,,,,,,,,,,,,,299.5873,301.6906,0,1,1.5829,,0,32,32,66,1,0,puertorican,,,,,,,,,,,,,,,,,,,,,,,,,,,,,,,,,,,,,,,,,,,,,,,,,,,,,,,,
,,,,,,,,,66c7719c71a1c4f4c2e712cd,spanish,13 or older,"no, only English or Spanish",no,2025-07-23_16h36.01.295,empathy_intonation_perc,2024.2.4,Win32,59.88023952,66c7719c71a1c4f4c2e712cd,687ed1b7e638a4cbf2f02089,6881475b36331189b01608d4,,,,,,,,,,,,,61,0,,./stim/wavs/mexican_match_declarative-broad-focus_Mariano-habla-del-tiempo.wav,,,,,,,,,,,,,,,,,,,,,,301.6915,303.7196,0,1,1.4872,,0,33,33,60,1,0,mexican,,,,,,,,,,,,,,,,,,,,,,,,,,,,,,,,,,,,,,,,,,,,,,,,,,,,,,,,
,,,,,,,,,66c7719c71a1c4f4c2e712cd,spanish,13 or older,"no, only English or Spanish",no,2025-07-23_16h36.01.295,empathy_intonation_perc,2024.2.4,Win32,59.88023952,66c7719c71a1c4f4c2e712cd,687ed1b7e638a4cbf2f02089,6881475b36331189b01608d4,,,,,,,,,,,,,80,0,,./stim/wavs/mexican_mismatch_declarative-broad-focus_El-hombre-mira-la-luna.wav,,,,,,,,,,,,,,,,,,,,,,303.7211,305.6523,0,1,1.3985,,0,34,34,79,1,0,mexican,,,,,,,,,,,,,,,,,,,,,,,,,,,,,,,,,,,,,,,,,,,,,,,,,,,,,,,,
,,,,,,,,,66c7719c71a1c4f4c2e712cd,spanish,13 or older,"no, only English or Spanish",no,2025-07-23_16h36.01.295,empathy_intonation_perc,2024.2.4,Win32,59.88023952,66c7719c71a1c4f4c2e712cd,687ed1b7e638a4cbf2f02089,6881475b36331189b01608d4,,,,,,,,,,,,,13,1,,./stim/wavs/mexican_match_interrogative-total-yn_Ana-lleva-el-abrigo.wav,,,,,,,,,,,,,,,,,,,,,,305.6543,307.7197,1,1,1.5364,,0,35,35,12,1,0,mexican,,,,,,,,,,,,,,,,,,,,,,,,,,,,,,,,,,,,,,,,,,,,,,,,,,,,,,,,
,,,,,,,,,66c7719c71a1c4f4c2e712cd,spanish,13 or older,"no, only English or Spanish",no,2025-07-23_16h36.01.295,empathy_intonation_perc,2024.2.4,Win32,59.88023952,66c7719c71a1c4f4c2e712cd,687ed1b7e638a4cbf2f02089,6881475b36331189b01608d4,,,,,,,,,,,,,53,0,,./stim/wavs/cuban_match_declarative-broad-focus_Manuela-vende-el-carro.wav,,,,,,,,,,,,,,,,,,,,,,307.7209,310.0718,0,1,1.833,,0,36,36,52,1,0,cuban,,,,,,,,,,,,,,,,,,,,,,,,,,,,,,,,,,,,,,,,,,,,,,,,,,,,,,,,
,,,,,,,,,66c7719c71a1c4f4c2e712cd,spanish,13 or older,"no, only English or Spanish",no,2025-07-23_16h36.01.295,empathy_intonation_perc,2024.2.4,Win32,59.88023952,66c7719c71a1c4f4c2e712cd,687ed1b7e638a4cbf2f02089,6881475b36331189b01608d4,,,,,,,,,,,,,7,1,,./stim/wavs/cuban_match_interrogative-total-yn_Ana-lleva-el-abrigo.wav,,,,,,,,,,,,,,,,,,,,,,310.0723,312.3538,1,1,1.7633,,0,37,37,6,1,1,cuban,,,,,,,,,,,,,,,,,,,,,,,,,,,,,,,,,,,,,,,,,,,,,,,,,,,,,,,,
,,,,,,,,,66c7719c71a1c4f4c2e712cd,spanish,13 or older,"no, only English or Spanish",no,2025-07-23_16h36.01.295,empathy_intonation_perc,2024.2.4,Win32,59.88023952,66c7719c71a1c4f4c2e712cd,687ed1b7e638a4cbf2f02089,6881475b36331189b01608d4,,,,,,,,,,,,,84,0,,./stim/wavs/puertorican_mismatch_declarative-broad-focus_El-bebe-comia-muy-bien.wav,,,,,,,,,,,,,,,,,,,,,,312.3543,314.4404,0,1,1.5667,,0,38,38,83,1,0,puertorican,,,,,,,,,,,,,,,,,,,,,,,,,,,,,,,,,,,,,,,,,,,,,,,,,,,,,,,,
,,,,,,,,,66c7719c71a1c4f4c2e712cd,spanish,13 or older,"no, only English or Spanish",no,2025-07-23_16h36.01.295,empathy_intonation_perc,2024.2.4,Win32,59.88023952,66c7719c71a1c4f4c2e712cd,687ed1b7e638a4cbf2f02089,6881475b36331189b01608d4,,,,,,,,,,,,,20,1,,./stim/wavs/puertorican_match_interrogative-total-yn_Daniel-iba-a-Bolivia.wav,,,,,,,,,,,,,,,,,,,,,,314.4414,316.7022,0,0,1.7315,,0,39,39,19,1,1,puertorican,,,,,,,,,,,,,,,,,,,,,,,,,,,,,,,,,,,,,,,,,,,,,,,,,,,,,,,,
,,,,,,,,,66c7719c71a1c4f4c2e712cd,spanish,13 or older,"no, only English or Spanish",no,2025-07-23_16h36.01.295,empathy_intonation_perc,2024.2.4,Win32,59.88023952,66c7719c71a1c4f4c2e712cd,687ed1b7e638a4cbf2f02089,6881475b36331189b01608d4,,,,,,,,,,,,,48,0,,./stim/wavs/castilian_match_declarative-broad-focus_Maria-bebe-el-vino.wav,,,,,,,,,,,,,,,,,,,,,,316.7035,318.8513,0,1,1.6336,,0,40,40,47,1,0,castilian,,,,,,,,,,,,,,,,,,,,,,,,,,,,,,,,,,,,,,,,,,,,,,,,,,,,,,,,
,,,,,,,,,66c7719c71a1c4f4c2e712cd,spanish,13 or older,"no, only English or Spanish",no,2025-07-23_16h36.01.295,empathy_intonation_perc,2024.2.4,Win32,59.88023952,66c7719c71a1c4f4c2e712cd,687ed1b7e638a4cbf2f02089,6881475b36331189b01608d4,,,,,,,,,,,,,70,0,,./stim/wavs/castilian_mismatch_declarative-broad-focus_La-maestra-vive-en-Paris.wav,,,,,,,,,,,,,,,,,,,,,,318.8525,321.302,1,0,1.933,,0,41,41,69,1,0,castilian,,,,,,,,,,,,,,,,,,,,,,,,,,,,,,,,,,,,,,,,,,,,,,,,,,,,,,,,
,,,,,,,,,66c7719c71a1c4f4c2e712cd,spanish,13 or older,"no, only English or Spanish",no,2025-07-23_16h36.01.295,empathy_intonation_perc,2024.2.4,Win32,59.88023952,66c7719c71a1c4f4c2e712cd,687ed1b7e638a4cbf2f02089,6881475b36331189b01608d4,,,,,,,,,,,,,88,0,,./stim/wavs/puertorican_mismatch_declarative-broad-focus_La-nina-lava-el-plato.wav,,,,,,,,,,,,,,,,,,,,,,321.3034,323.5691,1,0,1.7221,,0,42,42,87,1,0,puertorican,,,,,,,,,,,,,,,,,,,,,,,,,,,,,,,,,,,,,,,,,,,,,,,,,,,,,,,,
,,,,,,,,,66c7719c71a1c4f4c2e712cd,spanish,13 or older,"no, only English or Spanish",no,2025-07-23_16h36.01.295,empathy_intonation_perc,2024.2.4,Win32,59.88023952,66c7719c71a1c4f4c2e712cd,687ed1b7e638a4cbf2f02089,6881475b36331189b01608d4,,,,,,,,,,,,,73,0,,./stim/wavs/castilian_mismatch_declarative-broad-focus_Mi-tia-odia-la-lluvia.wav,,,,,,,,,,,,,,,,,,,,,,323.5704,326.1191,0,1,2.0148,,0,43,43,72,1,0,castilian,,,,,,,,,,,,,,,,,,,,,,,,,,,,,,,,,,,,,,,,,,,,,,,,,,,,,,,,
,,,,,,,,,66c7719c71a1c4f4c2e712cd,spanish,13 or older,"no, only English or Spanish",no,2025-07-23_16h36.01.295,empathy_intonation_perc,2024.2.4,Win32,59.88023952,66c7719c71a1c4f4c2e712cd,687ed1b7e638a4cbf2f02089,6881475b36331189b01608d4,,,,,,,,,,,,,14,1,,./stim/wavs/mexican_match_interrogative-total-yn_Daniel-iba-a-Bolivia.wav,,,,,,,,,,,,,,,,,,,,,,326.1203,328.1887,1,1,1.5342,,0,44,44,13,1,0,mexican,,,,,,,,,,,,,,,,,,,,,,,,,,,,,,,,,,,,,,,,,,,,,,,,,,,,,,,,
,,,,,,,,,66c7719c71a1c4f4c2e712cd,spanish,13 or older,"no, only English or Spanish",no,2025-07-23_16h36.01.295,empathy_intonation_perc,2024.2.4,Win32,59.88023952,66c7719c71a1c4f4c2e712cd,687ed1b7e638a4cbf2f02089,6881475b36331189b01608d4,,,,,,,,,,,,,34,1,,./stim/wavs/cuban_mismatch_interrogative-total-yn_Mi-tia-odia-la-lluvia.wav,,,,,,,,,,,,,,,,,,,,,,328.1897,330.1688,1,1,1.4607,,0,45,45,33,1,1,cuban,,,,,,,,,,,,,,,,,,,,,,,,,,,,,,,,,,,,,,,,,,,,,,,,,,,,,,,,
,,,,,,,,,66c7719c71a1c4f4c2e712cd,spanish,13 or older,"no, only English or Spanish",no,2025-07-23_16h36.01.295,empathy_intonation_perc,2024.2.4,Win32,59.88023952,66c7719c71a1c4f4c2e712cd,687ed1b7e638a4cbf2f02089,6881475b36331189b01608d4,,,,,,,,,,,,,10,1,,./stim/wavs/cuban_match_interrogative-total-yn_Maria-bebe-el-vino.wav,,,,,,,,,,,,,,,,,,,,,,330.1706,332.6412,0,0,1.949,,0,46,46,9,1,1,cuban,,,,,,,,,,,,,,,,,,,,,,,,,,,,,,,,,,,,,,,,,,,,,,,,,,,,,,,,
,,,,,,,,,66c7719c71a1c4f4c2e712cd,spanish,13 or older,"no, only English or Spanish",no,2025-07-23_16h36.01.295,empathy_intonation_perc,2024.2.4,Win32,59.88023952,66c7719c71a1c4f4c2e712cd,687ed1b7e638a4cbf2f02089,6881475b36331189b01608d4,,,,,,,,,,,,,42,1,,./stim/wavs/puertorican_mismatch_interrogative-total-yn_La-maestra-vive-en-Paris.wav,,,,,,,,,,,,,,,,,,,,,,332.6423,334.8847,1,1,1.7164,,0,47,47,41,1,1,puertorican,,,,,,,,,,,,,,,,,,,,,,,,,,,,,,,,,,,,,,,,,,,,,,,,,,,,,,,,
,,,,,,,,,66c7719c71a1c4f4c2e712cd,spanish,13 or older,"no, only English or Spanish",no,2025-07-23_16h36.01.295,empathy_intonation_perc,2024.2.4,Win32,59.88023952,66c7719c71a1c4f4c2e712cd,687ed1b7e638a4cbf2f02089,6881475b36331189b01608d4,,,,,,,,,,,,,78,0,,./stim/wavs/cuban_mismatch_declarative-broad-focus_Mi-tia-odia-la-lluvia.wav,,,,,,,,,,,,,,,,,,,,,,334.8867,337.3349,0,1,1.9197,,0,48,48,77,1,0,cuban,,,,,,,,,,,,,,,,,,,,,,,,,,,,,,,,,,,,,,,,,,,,,,,,,,,,,,,,
,,,,,,,,,66c7719c71a1c4f4c2e712cd,spanish,13 or older,"no, only English or Spanish",no,2025-07-23_16h36.01.295,empathy_intonation_perc,2024.2.4,Win32,59.88023952,66c7719c71a1c4f4c2e712cd,687ed1b7e638a4cbf2f02089,6881475b36331189b01608d4,,,,,,,,,,,,,6,1,,./stim/wavs/castilian_match_interrogative-total-yn_Marta-abre-el-regalo.wav,,,,,,,,,,,,,,,,,,,,,,337.3361,339.4542,1,1,1.5973,,0,49,49,5,1,0,castilian,,,,,,,,,,,,,,,,,,,,,,,,,,,,,,,,,,,,,,,,,,,,,,,,,,,,,,,,
,,,,,,,,,66c7719c71a1c4f4c2e712cd,spanish,13 or older,"no, only English or Spanish",no,2025-07-23_16h36.01.295,empathy_intonation_perc,2024.2.4,Win32,59.88023952,66c7719c71a1c4f4c2e712cd,687ed1b7e638a4cbf2f02089,6881475b36331189b01608d4,,,,,,,,,,,,,24,1,,./stim/wavs/puertorican_match_interrogative-total-yn_Maria-bebe-el-vino.wav,,,,,,,,,,,,,,,,,,,,,,339.4548,341.4556,0,0,1.4673,,0,50,50,23,1,1,puertorican,,,,,,,,,,,,,,,,,,,,,,,,,,,,,,,,,,,,,,,,,,,,,,,,,,,,,,,,
,,,,,,,,,66c7719c71a1c4f4c2e712cd,spanish,13 or older,"no, only English or Spanish",no,2025-07-23_16h36.01.295,empathy_intonation_perc,2024.2.4,Win32,59.88023952,66c7719c71a1c4f4c2e712cd,687ed1b7e638a4cbf2f02089,6881475b36331189b01608d4,,,,,,,,,,,,,52,0,,./stim/wavs/cuban_match_declarative-broad-focus_Daniel-iba-a-Bolivia.wav,,,,,,,,,,,,,,,,,,,,,,341.4566,343.8384,0,1,1.851,,0,51,51,51,1,0,cuban,,,,,,,,,,,,,,,,,,,,,,,,,,,,,,,,,,,,,,,,,,,,,,,,,,,,,,,,
,,,,,,,,,66c7719c71a1c4f4c2e712cd,spanish,13 or older,"no, only English or Spanish",no,2025-07-23_16h36.01.295,empathy_intonation_perc,2024.2.4,Win32,59.88023952,66c7719c71a1c4f4c2e712cd,687ed1b7e638a4cbf2f02089,6881475b36331189b01608d4,,,,,,,,,,,,,71,0,,./stim/wavs/castilian_mismatch_declarative-broad-focus_La-nina-lava-el-plato.wav,,,,,,,,,,,,,,,,,,,,,,343.8394,346.0389,0,1,1.6798,,0,52,52,70,1,0,castilian,,,,,,,,,,,,,,,,,,,,,,,,,,,,,,,,,,,,,,,,,,,,,,,,,,,,,,,,
,,,,,,,,,66c7719c71a1c4f4c2e712cd,spanish,13 or older,"no, only English or Spanish",no,2025-07-23_16h36.01.295,empathy_intonation_perc,2024.2.4,Win32,59.88023952,66c7719c71a1c4f4c2e712cd,687ed1b7e638a4cbf2f02089,6881475b36331189b01608d4,,,,,,,,,,,,,69,0,,./stim/wavs/castilian_mismatch_declarative-broad-focus_El-nino-oye-el-rio.wav,,,,,,,,,,,,,,,,,,,,,,346.04,348.2508,0,1,1.6891,,0,53,53,68,1,0,castilian,,,,,,,,,,,,,,,,,,,,,,,,,,,,,,,,,,,,,,,,,,,,,,,,,,,,,,,,
,,,,,,,,,66c7719c71a1c4f4c2e712cd,spanish,13 or older,"no, only English or Spanish",no,2025-07-23_16h36.01.295,empathy_intonation_perc,2024.2.4,Win32,59.88023952,66c7719c71a1c4f4c2e712cd,687ed1b7e638a4cbf2f02089,6881475b36331189b01608d4,,,,,,,,,,,,,79,0,,./stim/wavs/mexican_mismatch_declarative-broad-focus_El-bebe-comia-muy-bien.wav,,,,,,,,,,,,,,,,,,,,,,348.2524,350.7547,1,0,1.9836,,0,54,54,78,1,0,mexican,,,,,,,,,,,,,,,,,,,,,,,,,,,,,,,,,,,,,,,,,,,,,,,,,,,,,,,,
,,,,,,,,,66c7719c71a1c4f4c2e712cd,spanish,13 or older,"no, only English or Spanish",no,2025-07-23_16h36.01.295,empathy_intonation_perc,2024.2.4,Win32,59.88023952,66c7719c71a1c4f4c2e712cd,687ed1b7e638a4cbf2f02089,6881475b36331189b01608d4,,,,,,,,,,,,,40,1,,./stim/wavs/puertorican_mismatch_interrogative-total-yn_El-hombre-mira-la-luna.wav,,,,,,,,,,,,,,,,,,,,,,350.7555,352.7185,1,1,1.4434,,0,55,55,39,1,1,puertorican,,,,,,,,,,,,,,,,,,,,,,,,,,,,,,,,,,,,,,,,,,,,,,,,,,,,,,,,
,,,,,,,,,66c7719c71a1c4f4c2e712cd,spanish,13 or older,"no, only English or Spanish",no,2025-07-23_16h36.01.295,empathy_intonation_perc,2024.2.4,Win32,59.88023952,66c7719c71a1c4f4c2e712cd,687ed1b7e638a4cbf2f02089,6881475b36331189b01608d4,,,,,,,,,,,,,56,0,,./stim/wavs/cuban_match_declarative-broad-focus_Marta-abre-el-regalo.wav,,,,,,,,,,,,,,,,,,,,,,352.7199,354.9005,0,1,1.652,,0,56,56,55,1,0,cuban,,,,,,,,,,,,,,,,,,,,,,,,,,,,,,,,,,,,,,,,,,,,,,,,,,,,,,,,
,,,,,,,,,66c7719c71a1c4f4c2e712cd,spanish,13 or older,"no, only English or Spanish",no,2025-07-23_16h36.01.295,empathy_intonation_perc,2024.2.4,Win32,59.88023952,66c7719c71a1c4f4c2e712cd,687ed1b7e638a4cbf2f02089,6881475b36331189b01608d4,,,,,,,,,,,,,43,1,,./stim/wavs/puertorican_mismatch_interrogative-total-yn_La-nina-lava-el-plato.wav,,,,,,,,,,,,,,,,,,,,,,354.9019,357.0504,1,1,1.6116,,0,57,57,42,1,1,puertorican,,,,,,,,,,,,,,,,,,,,,,,,,,,,,,,,,,,,,,,,,,,,,,,,,,,,,,,,
,,,,,,,,,66c7719c71a1c4f4c2e712cd,spanish,13 or older,"no, only English or Spanish",no,2025-07-23_16h36.01.295,empathy_intonation_perc,2024.2.4,Win32,59.88023952,66c7719c71a1c4f4c2e712cd,687ed1b7e638a4cbf2f02089,6881475b36331189b01608d4,,,,,,,,,,,,,16,1,,./stim/wavs/mexican_match_interrogative-total-yn_Emilio-ama-la-marcha.wav,,,,,,,,,,,,,,,,,,,,,,357.0522,359.083,1,1,1.4983,,0,58,58,15,1,0,mexican,,,,,,,,,,,,,,,,,,,,,,,,,,,,,,,,,,,,,,,,,,,,,,,,,,,,,,,,
,,,,,,,,,66c7719c71a1c4f4c2e712cd,spanish,13 or older,"no, only English or Spanish",no,2025-07-23_16h36.01.295,empathy_intonation_perc,2024.2.4,Win32,59.88023952,66c7719c71a1c4f4c2e712cd,687ed1b7e638a4cbf2f02089,6881475b36331189b01608d4,,,,,,,,,,,,,62,0,,./stim/wavs/mexican_match_declarative-broad-focus_Marta-abre-el-regalo.wav,,,,,,,,,,,,,,,,,,,,,,359.0845,361.217,0,1,1.6242,,0,59,59,61,1,0,mexican,,,,,,,,,,,,,,,,,,,,,,,,,,,,,,,,,,,,,,,,,,,,,,,,,,,,,,,,
,,,,,,,,,66c7719c71a1c4f4c2e712cd,spanish,13 or older,"no, only English or Spanish",no,2025-07-23_16h36.01.295,empathy_intonation_perc,2024.2.4,Win32,59.88023952,66c7719c71a1c4f4c2e712cd,687ed1b7e638a4cbf2f02089,6881475b36331189b01608d4,,,,,,,,,,,,,51,0,,./stim/wavs/cuban_match_declarative-broad-focus_Ana-lleva-el-abrigo.wav,,,,,,,,,,,,,,,,,,,,,,361.2188,363.2666,0,1,1.5209,,0,60,60,50,1,0,cuban,,,,,,,,,,,,,,,,,,,,,,,,,,,,,,,,,,,,,,,,,,,,,,,,,,,,,,,,
,,,,,,,,,66c7719c71a1c4f4c2e712cd,spanish,13 or older,"no, only English or Spanish",no,2025-07-23_16h36.01.295,empathy_intonation_perc,2024.2.4,Win32,59.88023952,66c7719c71a1c4f4c2e712cd,687ed1b7e638a4cbf2f02089,6881475b36331189b01608d4,,,,,,,,,,,,,25,1,,./stim/wavs/castilian_mismatch_interrogative-total-yn_La-maestra-vive-en-Paris.wav,,,,,,,,,,,,,,,,,,,,,,363.268,365.499,1,1,1.701,,0,61,61,24,1,0,castilian,,,,,,,,,,,,,,,,,,,,,,,,,,,,,,,,,,,,,,,,,,,,,,,,,,,,,,,,
,,,,,,,,,66c7719c71a1c4f4c2e712cd,spanish,13 or older,"no, only English or Spanish",no,2025-07-23_16h36.01.295,empathy_intonation_perc,2024.2.4,Win32,59.88023952,66c7719c71a1c4f4c2e712cd,687ed1b7e638a4cbf2f02089,6881475b36331189b01608d4,,,,,,,,,,,,,45,0,,./stim/wavs/castilian_match_declarative-broad-focus_David-leia-el-libro.wav,,,,,,,,,,,,,,,,,,,,,,365.5008,367.8002,0,1,1.774,,0,62,62,44,1,0,castilian,,,,,,,,,,,,,,,,,,,,,,,,,,,,,,,,,,,,,,,,,,,,,,,,,,,,,,,,
,,,,,,,,,66c7719c71a1c4f4c2e712cd,spanish,13 or older,"no, only English or Spanish",no,2025-07-23_16h36.01.295,empathy_intonation_perc,2024.2.4,Win32,59.88023952,66c7719c71a1c4f4c2e712cd,687ed1b7e638a4cbf2f02089,6881475b36331189b01608d4,,,,,,,,,,,,,49,0,,./stim/wavs/castilian_match_declarative-broad-focus_Mariano-habla-del-tiempo.wav,,,,,,,,,,,,,,,,,,,,,,367.8016,370.0832,0,1,1.7568,,0,63,63,48,1,0,castilian,,,,,,,,,,,,,,,,,,,,,,,,,,,,,,,,,,,,,,,,,,,,,,,,,,,,,,,,
,,,,,,,,,66c7719c71a1c4f4c2e712cd,spanish,13 or older,"no, only English or Spanish",no,2025-07-23_16h36.01.295,empathy_intonation_perc,2024.2.4,Win32,59.88023952,66c7719c71a1c4f4c2e712cd,687ed1b7e638a4cbf2f02089,6881475b36331189b01608d4,,,,,,,,,,,,,1,1,,./stim/wavs/castilian_match_interrogative-total-yn_David-leia-el-libro.wav,,,,,,,,,,,,,,,,,,,,,,370.0846,372.249,1,1,1.6359,,0,64,64,0,1,0,castilian,,,,,,,,,,,,,,,,,,,,,,,,,,,,,,,,,,,,,,,,,,,,,,,,,,,,,,,,
,,,,,,,,,66c7719c71a1c4f4c2e712cd,spanish,13 or older,"no, only English or Spanish",no,2025-07-23_16h36.01.295,empathy_intonation_perc,2024.2.4,Win32,59.88023952,66c7719c71a1c4f4c2e712cd,687ed1b7e638a4cbf2f02089,6881475b36331189b01608d4,,,,,,,,,,,,,15,1,,./stim/wavs/mexican_match_interrogative-total-yn_David-leia-el-libro.wav,,,,,,,,,,,,,,,,,,,,,,372.2501,374.2657,1,1,1.4747,,0,65,65,14,1,0,mexican,,,,,,,,,,,,,,,,,,,,,,,,,,,,,,,,,,,,,,,,,,,,,,,,,,,,,,,,
,,,,,,,,,66c7719c71a1c4f4c2e712cd,spanish,13 or older,"no, only English or Spanish",no,2025-07-23_16h36.01.295,empathy_intonation_perc,2024.2.4,Win32,59.88023952,66c7719c71a1c4f4c2e712cd,687ed1b7e638a4cbf2f02089,6881475b36331189b01608d4,,,,,,,,,,,,,33,1,,./stim/wavs/cuban_mismatch_interrogative-total-yn_Mi-novio-viene-del-lago.wav,,,,,,,,,,,,,,,,,,,,,,374.2674,376.4166,0,0,1.6197,,0,66,66,32,1,1,cuban,,,,,,,,,,,,,,,,,,,,,,,,,,,,,,,,,,,,,,,,,,,,,,,,,,,,,,,,
,,,,,,,,,66c7719c71a1c4f4c2e712cd,spanish,13 or older,"no, only English or Spanish",no,2025-07-23_16h36.01.295,empathy_intonation_perc,2024.2.4,Win32,59.88023952,66c7719c71a1c4f4c2e712cd,687ed1b7e638a4cbf2f02089,6881475b36331189b01608d4,,,,,,,,,,,,,44,1,,./stim/wavs/puertorican_mismatch_interrogative-total-yn_Mi-madre-come-la-fruta.wav,,,,,,,,,,,,,,,,,,,,,,376.4183,378.5159,0,0,1.5726,,0,67,67,43,1,1,puertorican,,,,,,,,,,,,,,,,,,,,,,,,,,,,,,,,,,,,,,,,,,,,,,,,,,,,,,,,
,,,,,,,,,66c7719c71a1c4f4c2e712cd,spanish,13 or older,"no, only English or Spanish",no,2025-07-23_16h36.01.295,empathy_intonation_perc,2024.2.4,Win32,59.88023952,66c7719c71a1c4f4c2e712cd,687ed1b7e638a4cbf2f02089,6881475b36331189b01608d4,,,,,,,,,,,,,82,0,,./stim/wavs/mexican_mismatch_declarative-broad-focus_Mi-novio-viene-del-lago.wav,,,,,,,,,,,,,,,,,,,,,,378.5174,380.4825,0,1,1.4432,,0,68,68,81,1,0,mexican,,,,,,,,,,,,,,,,,,,,,,,,,,,,,,,,,,,,,,,,,,,,,,,,,,,,,,,,
,,,,,,,,,66c7719c71a1c4f4c2e712cd,spanish,13 or older,"no, only English or Spanish",no,2025-07-23_16h36.01.295,empathy_intonation_perc,2024.2.4,Win32,59.88023952,66c7719c71a1c4f4c2e712cd,687ed1b7e638a4cbf2f02089,6881475b36331189b01608d4,,,,,,,,,,,,,8,1,,./stim/wavs/cuban_match_interrogative-total-yn_Daniel-iba-a-Bolivia.wav,,,,,,,,,,,,,,,,,,,,,,380.4842,382.782,1,1,1.7764,,0,69,69,7,1,1,cuban,,,,,,,,,,,,,,,,,,,,,,,,,,,,,,,,,,,,,,,,,,,,,,,,,,,,,,,,
,,,,,,,,,66c7719c71a1c4f4c2e712cd,spanish,13 or older,"no, only English or Spanish",no,2025-07-23_16h36.01.295,empathy_intonation_perc,2024.2.4,Win32,59.88023952,66c7719c71a1c4f4c2e712cd,687ed1b7e638a4cbf2f02089,6881475b36331189b01608d4,,,,,,,,,,,,,85,0,,./stim/wavs/puertorican_mismatch_declarative-broad-focus_El-hombre-mira-la-luna.wav,,,,,,,,,,,,,,,,,,,,,,382.7841,385.3028,1,0,1.9994,,0,70,70,84,1,0,puertorican,,,,,,,,,,,,,,,,,,,,,,,,,,,,,,,,,,,,,,,,,,,,,,,,,,,,,,,,
,,,,,,,,,66c7719c71a1c4f4c2e712cd,spanish,13 or older,"no, only English or Spanish",no,2025-07-23_16h36.01.295,empathy_intonation_perc,2024.2.4,Win32,59.88023952,66c7719c71a1c4f4c2e712cd,687ed1b7e638a4cbf2f02089,6881475b36331189b01608d4,,,,,,,,,,,,,26,1,,./stim/wavs/castilian_mismatch_interrogative-total-yn_La-nina-lava-el-plato.wav,,,,,,,,,,,,,,,,,,,,,,385.3035,387.3651,1,1,1.5423,,0,71,71,25,1,0,castilian,,,,,,,,,,,,,,,,,,,,,,,,,,,,,,,,,,,,,,,,,,,,,,,,,,,,,,,,
,,,,,,,,,66c7719c71a1c4f4c2e712cd,spanish,13 or older,"no, only English or Spanish",no,2025-07-23_16h36.01.295,empathy_intonation_perc,2024.2.4,Win32,59.88023952,66c7719c71a1c4f4c2e712cd,687ed1b7e638a4cbf2f02089,6881475b36331189b01608d4,,,,,,,,,,,,,77,0,,./stim/wavs/cuban_mismatch_declarative-broad-focus_Mi-novio-viene-del-lago.wav,,,,,,,,,,,,,,,,,,,,,,387.3665,389.8317,0,1,1.9334,,0,72,72,76,1,0,cuban,,,,,,,,,,,,,,,,,,,,,,,,,,,,,,,,,,,,,,,,,,,,,,,,,,,,,,,,
,,,,,,,,,66c7719c71a1c4f4c2e712cd,spanish,13 or older,"no, only English or Spanish",no,2025-07-23_16h36.01.295,empathy_intonation_perc,2024.2.4,Win32,59.88023952,66c7719c71a1c4f4c2e712cd,687ed1b7e638a4cbf2f02089,6881475b36331189b01608d4,,,,,,,,,,,,,60,0,,./stim/wavs/mexican_match_declarative-broad-focus_Emilio-ama-la-marcha.wav,,,,,,,,,,,,,,,,,,,,,,389.8333,392.1487,0,1,1.788,,0,73,73,59,1,0,mexican,,,,,,,,,,,,,,,,,,,,,,,,,,,,,,,,,,,,,,,,,,,,,,,,,,,,,,,,
,,,,,,,,,66c7719c71a1c4f4c2e712cd,spanish,13 or older,"no, only English or Spanish",no,2025-07-23_16h36.01.295,empathy_intonation_perc,2024.2.4,Win32,59.88023952,66c7719c71a1c4f4c2e712cd,687ed1b7e638a4cbf2f02089,6881475b36331189b01608d4,,,,,,,,,,,,,17,1,,./stim/wavs/mexican_match_interrogative-total-yn_Mariano-habla-del-tiempo.wav,,,,,,,,,,,,,,,,,,,,,,392.1501,394.4853,1,1,1.8145,,0,74,74,16,1,0,mexican,,,,,,,,,,,,,,,,,,,,,,,,,,,,,,,,,,,,,,,,,,,,,,,,,,,,,,,,
,,,,,,,,,66c7719c71a1c4f4c2e712cd,spanish,13 or older,"no, only English or Spanish",no,2025-07-23_16h36.01.295,empathy_intonation_perc,2024.2.4,Win32,59.88023952,66c7719c71a1c4f4c2e712cd,687ed1b7e638a4cbf2f02089,6881475b36331189b01608d4,,,,,,,,,,,,,72,0,,./stim/wavs/castilian_mismatch_declarative-broad-focus_Mi-novio-viene-del-lago.wav,,,,,,,,,,,,,,,,,,,,,,394.4863,396.9312,0,1,1.9266,,0,75,75,71,1,0,castilian,,,,,,,,,,,,,,,,,,,,,,,,,,,,,,,,,,,,,,,,,,,,,,,,,,,,,,,,
,,,,,,,,,66c7719c71a1c4f4c2e712cd,spanish,13 or older,"no, only English or Spanish",no,2025-07-23_16h36.01.295,empathy_intonation_perc,2024.2.4,Win32,59.88023952,66c7719c71a1c4f4c2e712cd,687ed1b7e638a4cbf2f02089,6881475b36331189b01608d4,,,,,,,,,,,,,31,1,,./stim/wavs/cuban_mismatch_interrogative-total-yn_El-nino-oye-el-rio.wav,,,,,,,,,,,,,,,,,,,,,,396.9326,398.9155,1,1,1.4532,,0,76,76,30,1,1,cuban,,,,,,,,,,,,,,,,,,,,,,,,,,,,,,,,,,,,,,,,,,,,,,,,,,,,,,,,
,,,,,,,,,66c7719c71a1c4f4c2e712cd,spanish,13 or older,"no, only English or Spanish",no,2025-07-23_16h36.01.295,empathy_intonation_perc,2024.2.4,Win32,59.88023952,66c7719c71a1c4f4c2e712cd,687ed1b7e638a4cbf2f02089,6881475b36331189b01608d4,,,,,,,,,,,,,39,1,,./stim/wavs/mexican_mismatch_interrogative-total-yn_Mi-tia-odia-la-lluvia.wav,,,,,,,,,,,,,,,,,,,,,,398.9164,400.802,1,1,1.3658,,0,77,77,38,1,0,mexican,,,,,,,,,,,,,,,,,,,,,,,,,,,,,,,,,,,,,,,,,,,,,,,,,,,,,,,,
,,,,,,,,,66c7719c71a1c4f4c2e712cd,spanish,13 or older,"no, only English or Spanish",no,2025-07-23_16h36.01.295,empathy_intonation_perc,2024.2.4,Win32,59.88023952,66c7719c71a1c4f4c2e712cd,687ed1b7e638a4cbf2f02089,6881475b36331189b01608d4,,,,,,,,,,,,,47,0,,./stim/wavs/castilian_match_declarative-broad-focus_Manuela-vende-el-carro.wav,,,,,,,,,,,,,,,,,,,,,,400.8027,403.4209,0,1,2.1015,,0,78,78,46,1,0,castilian,,,,,,,,,,,,,,,,,,,,,,,,,,,,,,,,,,,,,,,,,,,,,,,,,,,,,,,,
,,,,,,,,,66c7719c71a1c4f4c2e712cd,spanish,13 or older,"no, only English or Spanish",no,2025-07-23_16h36.01.295,empathy_intonation_perc,2024.2.4,Win32,59.88023952,66c7719c71a1c4f4c2e712cd,687ed1b7e638a4cbf2f02089,6881475b36331189b01608d4,,,,,,,,,,,,,23,1,,./stim/wavs/puertorican_match_interrogative-total-yn_Manuela-vende-el-carro.wav,,,,,,,,,,,,,,,,,,,,,,403.4224,405.317,1,1,1.3786,,0,79,79,22,1,1,puertorican,,,,,,,,,,,,,,,,,,,,,,,,,,,,,,,,,,,,,,,,,,,,,,,,,,,,,,,,
,,,,,,,,,66c7719c71a1c4f4c2e712cd,spanish,13 or older,"no, only English or Spanish",no,2025-07-23_16h36.01.295,empathy_intonation_perc,2024.2.4,Win32,59.88023952,66c7719c71a1c4f4c2e712cd,687ed1b7e638a4cbf2f02089,6881475b36331189b01608d4,,,,,,,,,,,,,32,1,,./stim/wavs/cuban_mismatch_interrogative-total-yn_Mi-madre-come-la-fruta.wav,,,,,,,,,,,,,,,,,,,,,,405.3189,407.3215,1,1,1.4956,,0,80,80,31,1,1,cuban,,,,,,,,,,,,,,,,,,,,,,,,,,,,,,,,,,,,,,,,,,,,,,,,,,,,,,,,
,,,,,,,,,66c7719c71a1c4f4c2e712cd,spanish,13 or older,"no, only English or Spanish",no,2025-07-23_16h36.01.295,empathy_intonation_perc,2024.2.4,Win32,59.88023952,66c7719c71a1c4f4c2e712cd,687ed1b7e638a4cbf2f02089,6881475b36331189b01608d4,,,,,,,,,,,,,86,0,,./stim/wavs/puertorican_mismatch_declarative-broad-focus_El-nino-oye-el-rio.wav,,,,,,,,,,,,,,,,,,,,,,407.3226,409.3341,1,0,1.4976,,0,81,81,85,1,0,puertorican,,,,,,,,,,,,,,,,,,,,,,,,,,,,,,,,,,,,,,,,,,,,,,,,,,,,,,,,
,,,,,,,,,66c7719c71a1c4f4c2e712cd,spanish,13 or older,"no, only English or Spanish",no,2025-07-23_16h36.01.295,empathy_intonation_perc,2024.2.4,Win32,59.88023952,66c7719c71a1c4f4c2e712cd,687ed1b7e638a4cbf2f02089,6881475b36331189b01608d4,,,,,,,,,,,,,50,0,,./stim/wavs/castilian_match_declarative-broad-focus_Marta-abre-el-regalo.wav,,,,,,,,,,,,,,,,,,,,,,409.3348,411.7029,0,1,1.8487,,0,82,82,49,1,0,castilian,,,,,,,,,,,,,,,,,,,,,,,,,,,,,,,,,,,,,,,,,,,,,,,,,,,,,,,,
,,,,,,,,,66c7719c71a1c4f4c2e712cd,spanish,13 or older,"no, only English or Spanish",no,2025-07-23_16h36.01.295,empathy_intonation_perc,2024.2.4,Win32,59.88023952,66c7719c71a1c4f4c2e712cd,687ed1b7e638a4cbf2f02089,6881475b36331189b01608d4,,,,,,,,,,,,,27,1,,./stim/wavs/castilian_mismatch_interrogative-total-yn_Mi-madre-come-la-fruta.wav,,,,,,,,,,,,,,,,,,,,,,411.7039,413.9201,1,1,1.6997,,0,83,83,26,1,0,castilian,,,,,,,,,,,,,,,,,,,,,,,,,,,,,,,,,,,,,,,,,,,,,,,,,,,,,,,,
,,,,,,,,,66c7719c71a1c4f4c2e712cd,spanish,13 or older,"no, only English or Spanish",no,2025-07-23_16h36.01.295,empathy_intonation_perc,2024.2.4,Win32,59.88023952,66c7719c71a1c4f4c2e712cd,687ed1b7e638a4cbf2f02089,6881475b36331189b01608d4,,,,,,,,,,,,,19,1,,./stim/wavs/puertorican_match_interrogative-total-yn_Ana-lleva-el-abrigo.wav,,,,,,,,,,,,,,,,,,,,,,413.921,416.0482,1,1,1.6018,,0,84,84,18,1,1,puertorican,,,,,,,,,,,,,,,,,,,,,,,,,,,,,,,,,,,,,,,,,,,,,,,,,,,,,,,,
,,,,,,,,,66c7719c71a1c4f4c2e712cd,spanish,13 or older,"no, only English or Spanish",no,2025-07-23_16h36.01.295,empathy_intonation_perc,2024.2.4,Win32,59.88023952,66c7719c71a1c4f4c2e712cd,687ed1b7e638a4cbf2f02089,6881475b36331189b01608d4,,,,,,,,,,,,,2,1,,./stim/wavs/castilian_match_interrogative-total-yn_Emilio-ama-la-marcha.wav,,,,,,,,,,,,,,,,,,,,,,416.0496,418.0803,1,1,1.515,,0,85,85,1,1,0,castilian,,,,,,,,,,,,,,,,,,,,,,,,,,,,,,,,,,,,,,,,,,,,,,,,,,,,,,,,
,,,,,,,,,66c7719c71a1c4f4c2e712cd,spanish,13 or older,"no, only English or Spanish",no,2025-07-23_16h36.01.295,empathy_intonation_perc,2024.2.4,Win32,59.88023952,66c7719c71a1c4f4c2e712cd,687ed1b7e638a4cbf2f02089,6881475b36331189b01608d4,,,,,,,,,,,,,4,1,,./stim/wavs/castilian_match_interrogative-total-yn_Maria-bebe-el-vino.wav,,,,,,,,,,,,,,,,,,,,,,418.0821,420.0305,1,1,1.4339,,0,86,86,3,1,0,castilian,,,,,,,,,,,,,,,,,,,,,,,,,,,,,,,,,,,,,,,,,,,,,,,,,,,,,,,,
,,,,,,,,,66c7719c71a1c4f4c2e712cd,spanish,13 or older,"no, only English or Spanish",no,2025-07-23_16h36.01.295,empathy_intonation_perc,2024.2.4,Win32,59.88023952,66c7719c71a1c4f4c2e712cd,687ed1b7e638a4cbf2f02089,6881475b36331189b01608d4,,,,,,,,,,,,,29,1,,./stim/wavs/castilian_mismatch_interrogative-total-yn_Mi-tia-odia-la-lluvia.wav,,,,,,,,,,,,,,,,,,,,,,420.0319,422.0808,1,1,1.5262,,0,87,87,28,1,0,castilian,,,,,,,,,,,,,,,,,,,,,,,,,,,,,,,,,,,,,,,,,,,,,,,,,,,,,,,,
,,,,,,,"Great! Now we will move on. The next task consists of about 60 trials, in each of which you will see a string of letters. 
  
  Your task is to decide whether this is a real Spanish word or not.", (press the spacebar to continue),66c7719c71a1c4f4c2e712cd,spanish,13 or older,"no, only English or Spanish",no,2025-07-23_16h36.01.295,empathy_intonation_perc,2024.2.4,Win32,59.88023952,66c7719c71a1c4f4c2e712cd,687ed1b7e638a4cbf2f02089,6881475b36331189b01608d4,,,,,,,,,,,,,,,,,,,,,,,,,,,,,,,,,,,,,,,,,,,,,,,,,,,422.0942,429.9987,0,0,0,0,1,,,,,,,,,,,,,,,,,,,,,,,,,,,,,,,,,,,,,,,,,,,,,,,,,
,,,,,,,"If you think it is an existing Spanish word, you type '1' (for 'REAL'), and if you think it is not an existing Spanish word, you type '0' (for 'FAKE').", (press the spacebar to continue),66c7719c71a1c4f4c2e712cd,spanish,13 or older,"no, only English or Spanish",no,2025-07-23_16h36.01.295,empathy_intonation_perc,2024.2.4,Win32,59.88023952,66c7719c71a1c4f4c2e712cd,687ed1b7e638a4cbf2f02089,6881475b36331189b01608d4,,,,,,,,,,,,,,,,,,,,,,,,,,,,,,,,,,,,,,,,,,,,,,,,,,,430.0026,435.7295,0,1,1,1,1,,,,,,,,,,,,,,,,,,,,,,,,,,,,,,,,,,,,,,,,,,,,,,,,,
,,,,,,,"If you are sure that the word exists, even though you don’t know its exact meaning, you may still respond '1' (REAL). 
  
  But if you are not sure if it is an existing word, you should respond '0' (FAKE).
  
  Let's do a practice round...", (press the spacebar to continue),66c7719c71a1c4f4c2e712cd,spanish,13 or older,"no, only English or Spanish",no,2025-07-23_16h36.01.295,empathy_intonation_perc,2024.2.4,Win32,59.88023952,66c7719c71a1c4f4c2e712cd,687ed1b7e638a4cbf2f02089,6881475b36331189b01608d4,,,,,,,,,,,,,,,,,,,,,,,,,,,,,,,,,,,,,,,,,,,,,,,,,,,435.7332,444.3468,0,2,2,2,1,,,,,,,,,,,,,,,,,,,,,,,,,,,,,,,,,,,,,,,,,,,,,,,,,
,,,,,,,,,66c7719c71a1c4f4c2e712cd,spanish,13 or older,"no, only English or Spanish",no,2025-07-23_16h36.01.295,empathy_intonation_perc,2024.2.4,Win32,59.88023952,66c7719c71a1c4f4c2e712cd,687ed1b7e638a4cbf2f02089,6881475b36331189b01608d4,,,,,,,,,,,,,,0,,,,,,,,,,,,,,,,,,,,,,,,,,,,,,,,,,,,,,,,,,,,444.3627,447.18,1,0,2.2997,,447.181,448.1795,0,0,0,0,1,0,depiste,REAL,FAKE,,,,,,,,,,,,,,,,,,,,,,,,,,,,,,,,
,,,,,,,,,66c7719c71a1c4f4c2e712cd,spanish,13 or older,"no, only English or Spanish",no,2025-07-23_16h36.01.295,empathy_intonation_perc,2024.2.4,Win32,59.88023952,66c7719c71a1c4f4c2e712cd,687ed1b7e638a4cbf2f02089,6881475b36331189b01608d4,,,,,,,,,,,,,,1,,,,,,,,,,,,,,,,,,,,,,,,,,,,,,,,,,,,,,,,,,,,448.1827,451.1457,1,1,2.4356,,451.148,452.1454,0,1,1,1,1,0,sí,REAL,FAKE,,,,,,,,,,,,,,,,,,,,,,,,,,,,,,,,
,,,,,,,,,66c7719c71a1c4f4c2e712cd,spanish,13 or older,"no, only English or Spanish",no,2025-07-23_16h36.01.295,empathy_intonation_perc,2024.2.4,Win32,59.88023952,66c7719c71a1c4f4c2e712cd,687ed1b7e638a4cbf2f02089,6881475b36331189b01608d4,,,,,,,,,,,,,,0,,,,,,,,,,,,,,,,,,,,,,,,,,,,,,,,,,,,,,,,,,,,452.1483,454.7464,1,0,2.075,,454.7485,455.746,0,2,2,2,1,0,coné,REAL,FAKE,,,,,,,,,,,,,,,,,,,,,,,,,,,,,,,,
,,,,,,,,,66c7719c71a1c4f4c2e712cd,spanish,13 or older,"no, only English or Spanish",no,2025-07-23_16h36.01.295,empathy_intonation_perc,2024.2.4,Win32,59.88023952,66c7719c71a1c4f4c2e712cd,687ed1b7e638a4cbf2f02089,6881475b36331189b01608d4,,,,,,,,,,,,,,0,,,,,,,,,,,,,,,,,,,,,,,,,,,,,,,,,,,,,,,,,,,,455.7488,458.2624,0,1,1.9796,,458.264,459.2622,0,3,3,3,1,0,calpar,REAL,FAKE,,,,,,,,,,,,,,,,,,,,,,,,,,,,,,,,
,,,,,,,,,66c7719c71a1c4f4c2e712cd,spanish,13 or older,"no, only English or Spanish",no,2025-07-23_16h36.01.295,empathy_intonation_perc,2024.2.4,Win32,59.88023952,66c7719c71a1c4f4c2e712cd,687ed1b7e638a4cbf2f02089,6881475b36331189b01608d4,,,,,,,,,,,,,,0,,,,,,,,,,,,,,,,,,,,,,,,,,,,,,,,,,,,,,,,,,,,459.2648,461.1789,0,1,1.3936,,461.1791,462.1792,0,4,4,4,1,0,joten,REAL,FAKE,,,,,,,,,,,,,,,,,,,,,,,,,,,,,,,,
,,,,,,,,,66c7719c71a1c4f4c2e712cd,spanish,13 or older,"no, only English or Spanish",no,2025-07-23_16h36.01.295,empathy_intonation_perc,2024.2.4,Win32,59.88023952,66c7719c71a1c4f4c2e712cd,687ed1b7e638a4cbf2f02089,6881475b36331189b01608d4,,,,,,,,,,,,,,1,,,,,,,,,,,,,,,,,,,,,,,,,,,,,,,,,,,,,,,,,,,,462.1826,464.7464,1,1,2.0312,,464.7466,465.7455,0,5,5,5,1,0,sacapuntas,REAL,FAKE,,,,,,,,,,,,,,,,,,,,,,,,,,,,,,,,
,,,,,,,,,66c7719c71a1c4f4c2e712cd,spanish,13 or older,"no, only English or Spanish",no,2025-07-23_16h36.01.295,empathy_intonation_perc,2024.2.4,Win32,59.88023952,66c7719c71a1c4f4c2e712cd,687ed1b7e638a4cbf2f02089,6881475b36331189b01608d4,,,,,,,,,,,,,,0,,,,,,,,,,,,,,,,,,,,,,,,,,,,,,,,,,,,,,,,,,,,465.7483,467.5978,1,0,1.3186,,467.5991,468.5956,0,6,6,6,1,0,priba,REAL,FAKE,,,,,,,,,,,,,,,,,,,,,,,,,,,,,,,,
,,,,,,,,,66c7719c71a1c4f4c2e712cd,spanish,13 or older,"no, only English or Spanish",no,2025-07-23_16h36.01.295,empathy_intonation_perc,2024.2.4,Win32,59.88023952,66c7719c71a1c4f4c2e712cd,687ed1b7e638a4cbf2f02089,6881475b36331189b01608d4,,,,,,,,,,,,,,0,,,,,,,,,,,,,,,,,,,,,,,,,,,,,,,,,,,,,,,,,,,,468.5986,471.8276,1,0,2.6939,,471.8277,472.8281,0,7,7,7,1,0,pelasula,REAL,FAKE,,,,,,,,,,,,,,,,,,,,,,,,,,,,,,,,
,,,,,,,,,66c7719c71a1c4f4c2e712cd,spanish,13 or older,"no, only English or Spanish",no,2025-07-23_16h36.01.295,empathy_intonation_perc,2024.2.4,Win32,59.88023952,66c7719c71a1c4f4c2e712cd,687ed1b7e638a4cbf2f02089,6881475b36331189b01608d4,,,,,,,,,,,,,,1,,,,,,,,,,,,,,,,,,,,,,,,,,,,,,,,,,,,,,,,,,,,472.8314,474.2448,1,1,0.8748,,474.2462,475.2456,0,8,8,8,1,0,bien,REAL,FAKE,,,,,,,,,,,,,,,,,,,,,,,,,,,,,,,,
,,,,,,,,,66c7719c71a1c4f4c2e712cd,spanish,13 or older,"no, only English or Spanish",no,2025-07-23_16h36.01.295,empathy_intonation_perc,2024.2.4,Win32,59.88023952,66c7719c71a1c4f4c2e712cd,687ed1b7e638a4cbf2f02089,6881475b36331189b01608d4,,,,,,,,,,,,,,1,,,,,,,,,,,,,,,,,,,,,,,,,,,,,,,,,,,,,,,,,,,,475.2496,476.6782,1,1,0.8962,,476.6785,477.678,0,9,9,9,1,0,casa,REAL,FAKE,,,,,,,,,,,,,,,,,,,,,,,,,,,,,,,,
,,,,,,,,,66c7719c71a1c4f4c2e712cd,spanish,13 or older,"no, only English or Spanish",no,2025-07-23_16h36.01.295,empathy_intonation_perc,2024.2.4,Win32,59.88023952,66c7719c71a1c4f4c2e712cd,687ed1b7e638a4cbf2f02089,6881475b36331189b01608d4,,,,,,,,,,,,,,0,,,,,,,,,,,,,,,,,,,,,,,,,,,,,,,,,,,,,,,,,,,,477.681,479.0452,1,0,0.8343,,479.0476,480.0451,0,10,10,10,1,0,lejo,REAL,FAKE,,,,,,,,,,,,,,,,,,,,,,,,,,,,,,,,
,,,,,,,,,66c7719c71a1c4f4c2e712cd,spanish,13 or older,"no, only English or Spanish",no,2025-07-23_16h36.01.295,empathy_intonation_perc,2024.2.4,Win32,59.88023952,66c7719c71a1c4f4c2e712cd,687ed1b7e638a4cbf2f02089,6881475b36331189b01608d4,,,,,,,,,,,,,,0,,,,,,,,,,,,,,,,,,,,,,,,,,,,,,,,,,,,,,,,,,,,480.0482,482.4617,1,0,1.8818,,482.4618,483.4612,0,11,11,11,1,0,pretantas,REAL,FAKE,,,,,,,,,,,,,,,,,,,,,,,,,,,,,,,,
,,,,,,,,,66c7719c71a1c4f4c2e712cd,spanish,13 or older,"no, only English or Spanish",no,2025-07-23_16h36.01.295,empathy_intonation_perc,2024.2.4,Win32,59.88023952,66c7719c71a1c4f4c2e712cd,687ed1b7e638a4cbf2f02089,6881475b36331189b01608d4,,,,,,,,,,,,,,,,,,,,,,,,,,,,,,,,,,,,,,,,,,,,,,,,,,,,,,,,,,,,,,,,,,,,,,,,,,,483.4631,485.4954,,,,,,,,,,,,,,,,,,,,,,,,,,,,,,
,,,,,,,,,66c7719c71a1c4f4c2e712cd,spanish,13 or older,"no, only English or Spanish",no,2025-07-23_16h36.01.295,empathy_intonation_perc,2024.2.4,Win32,59.88023952,66c7719c71a1c4f4c2e712cd,687ed1b7e638a4cbf2f02089,6881475b36331189b01608d4,,,,,,,,,,,,,,1,,,,,,,,,,,,,,,,,,,,,,,,,,,,,,,,,,,,,,,,,,,,,,,,,,,,,,,,,36,loro,,,,,485.5225,488.5282,0,0,2.4881,,0,0,0,35,1,REAL,FAKE,,,,,,,,,,,,,,,,,
,,,,,,,,,66c7719c71a1c4f4c2e712cd,spanish,13 or older,"no, only English or Spanish",no,2025-07-23_16h36.01.295,empathy_intonation_perc,2024.2.4,Win32,59.88023952,66c7719c71a1c4f4c2e712cd,687ed1b7e638a4cbf2f02089,6881475b36331189b01608d4,,,,,,,,,,,,,,0,,,,,,,,,,,,,,,,,,,,,,,,,,,,,,,,,,,,,,,,,,,,,,,,,,,,,,,,,27,acutación,,,,,488.5338,490.3776,1,0,1.3125,,0,1,1,26,1,REAL,FAKE,,,,,,,,,,,,,,,,,
,,,,,,,,,66c7719c71a1c4f4c2e712cd,spanish,13 or older,"no, only English or Spanish",no,2025-07-23_16h36.01.295,empathy_intonation_perc,2024.2.4,Win32,59.88023952,66c7719c71a1c4f4c2e712cd,687ed1b7e638a4cbf2f02089,6881475b36331189b01608d4,,,,,,,,,,,,,,1,,,,,,,,,,,,,,,,,,,,,,,,,,,,,,,,,,,,,,,,,,,,,,,,,,,,,,,,,64,orgulloso,,,,,490.3803,493.1267,1,1,2.2131,,0,2,2,63,1,REAL,FAKE,,,,,,,,,,,,,,,,,
,,,,,,,,,66c7719c71a1c4f4c2e712cd,spanish,13 or older,"no, only English or Spanish",no,2025-07-23_16h36.01.295,empathy_intonation_perc,2024.2.4,Win32,59.88023952,66c7719c71a1c4f4c2e712cd,687ed1b7e638a4cbf2f02089,6881475b36331189b01608d4,,,,,,,,,,,,,,1,,,,,,,,,,,,,,,,,,,,,,,,,,,,,,,,,,,,,,,,,,,,,,,,,,,,,,,,,89,prisa,,,,,493.1283,494.5104,1,1,0.8626,,0,3,3,88,1,REAL,FAKE,,,,,,,,,,,,,,,,,
,,,,,,,,,66c7719c71a1c4f4c2e712cd,spanish,13 or older,"no, only English or Spanish",no,2025-07-23_16h36.01.295,empathy_intonation_perc,2024.2.4,Win32,59.88023952,66c7719c71a1c4f4c2e712cd,687ed1b7e638a4cbf2f02089,6881475b36331189b01608d4,,,,,,,,,,,,,,0,,,,,,,,,,,,,,,,,,,,,,,,,,,,,,,,,,,,,,,,,,,,,,,,,,,,,,,,,23,lampera,,,,,494.5131,496.1274,1,0,1.0797,,0,4,4,22,1,REAL,FAKE,,,,,,,,,,,,,,,,,
,,,,,,,,,66c7719c71a1c4f4c2e712cd,spanish,13 or older,"no, only English or Spanish",no,2025-07-23_16h36.01.295,empathy_intonation_perc,2024.2.4,Win32,59.88023952,66c7719c71a1c4f4c2e712cd,687ed1b7e638a4cbf2f02089,6881475b36331189b01608d4,,,,,,,,,,,,,,0,,,,,,,,,,,,,,,,,,,,,,,,,,,,,,,,,,,,,,,,,,,,,,,,,,,,,,,,,33,pauca,,,,,496.13,497.5939,0,1,0.9287,,0,5,5,32,1,REAL,FAKE,,,,,,,,,,,,,,,,,
,,,,,,,,,66c7719c71a1c4f4c2e712cd,spanish,13 or older,"no, only English or Spanish",no,2025-07-23_16h36.01.295,empathy_intonation_perc,2024.2.4,Win32,59.88023952,66c7719c71a1c4f4c2e712cd,687ed1b7e638a4cbf2f02089,6881475b36331189b01608d4,,,,,,,,,,,,,,1,,,,,,,,,,,,,,,,,,,,,,,,,,,,,,,,,,,,,,,,,,,,,,,,,,,,,,,,,60,matar,,,,,497.5972,499.1269,1,1,0.9993,,0,6,6,59,1,REAL,FAKE,,,,,,,,,,,,,,,,,
,,,,,,,,,66c7719c71a1c4f4c2e712cd,spanish,13 or older,"no, only English or Spanish",no,2025-07-23_16h36.01.295,empathy_intonation_perc,2024.2.4,Win32,59.88023952,66c7719c71a1c4f4c2e712cd,687ed1b7e638a4cbf2f02089,6881475b36331189b01608d4,,,,,,,,,,,,,,1,,,,,,,,,,,,,,,,,,,,,,,,,,,,,,,,,,,,,,,,,,,,,,,,,,,,,,,,,24,látigo,,,,,499.1316,500.6268,1,1,0.9631,,0,7,7,23,1,REAL,FAKE,,,,,,,,,,,,,,,,,
,,,,,,,,,66c7719c71a1c4f4c2e712cd,spanish,13 or older,"no, only English or Spanish",no,2025-07-23_16h36.01.295,empathy_intonation_perc,2024.2.4,Win32,59.88023952,66c7719c71a1c4f4c2e712cd,687ed1b7e638a4cbf2f02089,6881475b36331189b01608d4,,,,,,,,,,,,,,1,,,,,,,,,,,,,,,,,,,,,,,,,,,,,,,,,,,,,,,,,,,,,,,,,,,,,,,,,67,cabello,,,,,500.6283,501.9933,1,1,0.83,,0,8,8,66,1,REAL,FAKE,,,,,,,,,,,,,,,,,
,,,,,,,,,66c7719c71a1c4f4c2e712cd,spanish,13 or older,"no, only English or Spanish",no,2025-07-23_16h36.01.295,empathy_intonation_perc,2024.2.4,Win32,59.88023952,66c7719c71a1c4f4c2e712cd,687ed1b7e638a4cbf2f02089,6881475b36331189b01608d4,,,,,,,,,,,,,,1,,,,,,,,,,,,,,,,,,,,,,,,,,,,,,,,,,,,,,,,,,,,,,,,,,,,,,,,,88,acantilado,,,,,501.9965,503.9598,1,1,1.4315,,0,9,9,87,1,REAL,FAKE,,,,,,,,,,,,,,,,,
,,,,,,,,,66c7719c71a1c4f4c2e712cd,spanish,13 or older,"no, only English or Spanish",no,2025-07-23_16h36.01.295,empathy_intonation_perc,2024.2.4,Win32,59.88023952,66c7719c71a1c4f4c2e712cd,687ed1b7e638a4cbf2f02089,6881475b36331189b01608d4,,,,,,,,,,,,,,0,,,,,,,,,,,,,,,,,,,,,,,,,,,,,,,,,,,,,,,,,,,,,,,,,,,,,,,,,8,cadeña,,,,,503.9644,505.2932,1,0,0.7961,,0,10,10,7,1,REAL,FAKE,,,,,,,,,,,,,,,,,
,,,,,,,,,66c7719c71a1c4f4c2e712cd,spanish,13 or older,"no, only English or Spanish",no,2025-07-23_16h36.01.295,empathy_intonation_perc,2024.2.4,Win32,59.88023952,66c7719c71a1c4f4c2e712cd,687ed1b7e638a4cbf2f02089,6881475b36331189b01608d4,,,,,,,,,,,,,,0,,,,,,,,,,,,,,,,,,,,,,,,,,,,,,,,,,,,,,,,,,,,,,,,,,,,,,,,,58,plaudir,,,,,505.2948,507.1101,1,0,1.2856,,0,11,11,57,1,REAL,FAKE,,,,,,,,,,,,,,,,,
,,,,,,,,,66c7719c71a1c4f4c2e712cd,spanish,13 or older,"no, only English or Spanish",no,2025-07-23_16h36.01.295,empathy_intonation_perc,2024.2.4,Win32,59.88023952,66c7719c71a1c4f4c2e712cd,687ed1b7e638a4cbf2f02089,6881475b36331189b01608d4,,,,,,,,,,,,,,1,,,,,,,,,,,,,,,,,,,,,,,,,,,,,,,,,,,,,,,,,,,,,,,,,,,,,,,,,22,lacayo,,,,,507.1128,508.7431,1,1,1.1018,,0,12,12,21,1,REAL,FAKE,,,,,,,,,,,,,,,,,
,,,,,,,,,66c7719c71a1c4f4c2e712cd,spanish,13 or older,"no, only English or Spanish",no,2025-07-23_16h36.01.295,empathy_intonation_perc,2024.2.4,Win32,59.88023952,66c7719c71a1c4f4c2e712cd,687ed1b7e638a4cbf2f02089,6881475b36331189b01608d4,,,,,,,,,,,,,,1,,,,,,,,,,,,,,,,,,,,,,,,,,,,,,,,,,,,,,,,,,,,,,,,,,,,,,,,,7,pésimo,,,,,508.7463,510.3934,1,1,1.1118,,0,13,13,6,1,REAL,FAKE,,,,,,,,,,,,,,,,,
,,,,,,,,,66c7719c71a1c4f4c2e712cd,spanish,13 or older,"no, only English or Spanish",no,2025-07-23_16h36.01.295,empathy_intonation_perc,2024.2.4,Win32,59.88023952,66c7719c71a1c4f4c2e712cd,687ed1b7e638a4cbf2f02089,6881475b36331189b01608d4,,,,,,,,,,,,,,1,,,,,,,,,,,,,,,,,,,,,,,,,,,,,,,,,,,,,,,,,,,,,,,,,,,,,,,,,31,pandilla,,,,,510.3961,512.1262,1,1,1.1961,,0,14,14,30,1,REAL,FAKE,,,,,,,,,,,,,,,,,
,,,,,,,,,66c7719c71a1c4f4c2e712cd,spanish,13 or older,"no, only English or Spanish",no,2025-07-23_16h36.01.295,empathy_intonation_perc,2024.2.4,Win32,59.88023952,66c7719c71a1c4f4c2e712cd,687ed1b7e638a4cbf2f02089,6881475b36331189b01608d4,,,,,,,,,,,,,,1,,,,,,,,,,,,,,,,,,,,,,,,,,,,,,,,,,,,,,,,,,,,,,,,,,,,,,,,,37,granuja,,,,,512.1289,513.7262,1,1,1.0628,,0,15,15,36,1,REAL,FAKE,,,,,,,,,,,,,,,,,
,,,,,,,,,66c7719c71a1c4f4c2e712cd,spanish,13 or older,"no, only English or Spanish",no,2025-07-23_16h36.01.295,empathy_intonation_perc,2024.2.4,Win32,59.88023952,66c7719c71a1c4f4c2e712cd,687ed1b7e638a4cbf2f02089,6881475b36331189b01608d4,,,,,,,,,,,,,,0,,,,,,,,,,,,,,,,,,,,,,,,,,,,,,,,,,,,,,,,,,,,,,,,,,,,,,,,,87,grodo,,,,,513.7278,515.1431,0,1,0.8758,,0,16,16,86,1,REAL,FAKE,,,,,,,,,,,,,,,,,
,,,,,,,,,66c7719c71a1c4f4c2e712cd,spanish,13 or older,"no, only English or Spanish",no,2025-07-23_16h36.01.295,empathy_intonation_perc,2024.2.4,Win32,59.88023952,66c7719c71a1c4f4c2e712cd,687ed1b7e638a4cbf2f02089,6881475b36331189b01608d4,,,,,,,,,,,,,,1,,,,,,,,,,,,,,,,,,,,,,,,,,,,,,,,,,,,,,,,,,,,,,,,,,,,,,,,,73,hervidor,,,,,515.1477,516.6595,0,0,0.9812,,0,17,17,72,1,REAL,FAKE,,,,,,,,,,,,,,,,,
,,,,,,,,,66c7719c71a1c4f4c2e712cd,spanish,13 or older,"no, only English or Spanish",no,2025-07-23_16h36.01.295,empathy_intonation_perc,2024.2.4,Win32,59.88023952,66c7719c71a1c4f4c2e712cd,687ed1b7e638a4cbf2f02089,6881475b36331189b01608d4,,,,,,,,,,,,,,0,,,,,,,,,,,,,,,,,,,,,,,,,,,,,,,,,,,,,,,,,,,,,,,,,,,,,,,,,18,arsa,,,,,516.6637,517.976,1,0,0.7882,,0,18,18,17,1,REAL,FAKE,,,,,,,,,,,,,,,,,
,,,,,,,,,66c7719c71a1c4f4c2e712cd,spanish,13 or older,"no, only English or Spanish",no,2025-07-23_16h36.01.295,empathy_intonation_perc,2024.2.4,Win32,59.88023952,66c7719c71a1c4f4c2e712cd,687ed1b7e638a4cbf2f02089,6881475b36331189b01608d4,,,,,,,,,,,,,,1,,,,,,,,,,,,,,,,,,,,,,,,,,,,,,,,,,,,,,,,,,,,,,,,,,,,,,,,,20,ávido,,,,,517.9798,519.5093,1,1,1.0003,,0,19,19,19,1,REAL,FAKE,,,,,,,,,,,,,,,,,
,,,,,,,,,66c7719c71a1c4f4c2e712cd,spanish,13 or older,"no, only English or Spanish",no,2025-07-23_16h36.01.295,empathy_intonation_perc,2024.2.4,Win32,59.88023952,66c7719c71a1c4f4c2e712cd,687ed1b7e638a4cbf2f02089,6881475b36331189b01608d4,,,,,,,,,,,,,,0,,,,,,,,,,,,,,,,,,,,,,,,,,,,,,,,,,,,,,,,,,,,,,,,,,,,,,,,,66,hacido,,,,,519.5139,521.0262,1,0,0.9817,,0,20,20,65,1,REAL,FAKE,,,,,,,,,,,,,,,,,
,,,,,,,,,66c7719c71a1c4f4c2e712cd,spanish,13 or older,"no, only English or Spanish",no,2025-07-23_16h36.01.295,empathy_intonation_perc,2024.2.4,Win32,59.88023952,66c7719c71a1c4f4c2e712cd,687ed1b7e638a4cbf2f02089,6881475b36331189b01608d4,,,,,,,,,,,,,,0,,,,,,,,,,,,,,,,,,,,,,,,,,,,,,,,,,,,,,,,,,,,,,,,,,,,,,,,,1,terzo,,,,,521.031,522.5764,0,1,1.0228,,0,21,21,0,1,REAL,FAKE,,,,,,,,,,,,,,,,,
,,,,,,,,,66c7719c71a1c4f4c2e712cd,spanish,13 or older,"no, only English or Spanish",no,2025-07-23_16h36.01.295,empathy_intonation_perc,2024.2.4,Win32,59.88023952,66c7719c71a1c4f4c2e712cd,687ed1b7e638a4cbf2f02089,6881475b36331189b01608d4,,,,,,,,,,,,,,1,,,,,,,,,,,,,,,,,,,,,,,,,,,,,,,,,,,,,,,,,,,,,,,,,,,,,,,,,54,fomentar,,,,,522.5808,524.3089,1,1,1.1979,,0,22,22,53,1,REAL,FAKE,,,,,,,,,,,,,,,,,
,,,,,,,,,66c7719c71a1c4f4c2e712cd,spanish,13 or older,"no, only English or Spanish",no,2025-07-23_16h36.01.295,empathy_intonation_perc,2024.2.4,Win32,59.88023952,66c7719c71a1c4f4c2e712cd,687ed1b7e638a4cbf2f02089,6881475b36331189b01608d4,,,,,,,,,,,,,,1,,,,,,,,,,,,,,,,,,,,,,,,,,,,,,,,,,,,,,,,,,,,,,,,,,,,,,,,,41,rebuscar,,,,,524.311,526.009,1,1,1.1686,,0,23,23,40,1,REAL,FAKE,,,,,,,,,,,,,,,,,
,,,,,,,,,66c7719c71a1c4f4c2e712cd,spanish,13 or older,"no, only English or Spanish",no,2025-07-23_16h36.01.295,empathy_intonation_perc,2024.2.4,Win32,59.88023952,66c7719c71a1c4f4c2e712cd,687ed1b7e638a4cbf2f02089,6881475b36331189b01608d4,,,,,,,,,,,,,,1,,,,,,,,,,,,,,,,,,,,,,,,,,,,,,,,,,,,,,,,,,,,,,,,,,,,,,,,,43,canela,,,,,526.0125,527.476,0,0,0.9335,,0,24,24,42,1,REAL,FAKE,,,,,,,,,,,,,,,,,
,,,,,,,,,66c7719c71a1c4f4c2e712cd,spanish,13 or older,"no, only English or Spanish",no,2025-07-23_16h36.01.295,empathy_intonation_perc,2024.2.4,Win32,59.88023952,66c7719c71a1c4f4c2e712cd,687ed1b7e638a4cbf2f02089,6881475b36331189b01608d4,,,,,,,,,,,,,,0,,,,,,,,,,,,,,,,,,,,,,,,,,,,,,,,,,,,,,,,,,,,,,,,,,,,,,,,,84,escuto,,,,,527.4787,529.4422,0,1,1.4316,,0,25,25,83,1,REAL,FAKE,,,,,,,,,,,,,,,,,
,,,,,,,,,66c7719c71a1c4f4c2e712cd,spanish,13 or older,"no, only English or Spanish",no,2025-07-23_16h36.01.295,empathy_intonation_perc,2024.2.4,Win32,59.88023952,66c7719c71a1c4f4c2e712cd,687ed1b7e638a4cbf2f02089,6881475b36331189b01608d4,,,,,,,,,,,,,,1,,,,,,,,,,,,,,,,,,,,,,,,,,,,,,,,,,,,,,,,,,,,,,,,,,,,,,,,,26,secuestro,,,,,529.4456,530.9586,1,1,0.9804,,0,26,26,25,1,REAL,FAKE,,,,,,,,,,,,,,,,,
,,,,,,,,,66c7719c71a1c4f4c2e712cd,spanish,13 or older,"no, only English or Spanish",no,2025-07-23_16h36.01.295,empathy_intonation_perc,2024.2.4,Win32,59.88023952,66c7719c71a1c4f4c2e712cd,687ed1b7e638a4cbf2f02089,6881475b36331189b01608d4,,,,,,,,,,,,,,1,,,,,,,,,,,,,,,,,,,,,,,,,,,,,,,,,,,,,,,,,,,,,,,,,,,,,,,,,80,hormiga,,,,,530.9607,532.5754,0,0,1.082,,0,27,27,79,1,REAL,FAKE,,,,,,,,,,,,,,,,,
,,,,,,,,,66c7719c71a1c4f4c2e712cd,spanish,13 or older,"no, only English or Spanish",no,2025-07-23_16h36.01.295,empathy_intonation_perc,2024.2.4,Win32,59.88023952,66c7719c71a1c4f4c2e712cd,687ed1b7e638a4cbf2f02089,6881475b36331189b01608d4,,,,,,,,,,,,,,1,,,,,,,,,,,,,,,,,,,,,,,,,,,,,,,,,,,,,,,,,,,,,,,,,,,,,,,,,28,merodear,,,,,532.5782,534.2753,0,0,1.1626,,0,28,28,27,1,REAL,FAKE,,,,,,,,,,,,,,,,,
,,,,,,,,,66c7719c71a1c4f4c2e712cd,spanish,13 or older,"no, only English or Spanish",no,2025-07-23_16h36.01.295,empathy_intonation_perc,2024.2.4,Win32,59.88023952,66c7719c71a1c4f4c2e712cd,687ed1b7e638a4cbf2f02089,6881475b36331189b01608d4,,,,,,,,,,,,,,1,,,,,,,,,,,,,,,,,,,,,,,,,,,,,,,,,,,,,,,,,,,,,,,,,,,,,,,,,62,flaco,,,,,534.2769,535.7085,1,1,0.8926,,0,29,29,61,1,REAL,FAKE,,,,,,,,,,,,,,,,,
,,,,,,,,,66c7719c71a1c4f4c2e712cd,spanish,13 or older,"no, only English or Spanish",no,2025-07-23_16h36.01.295,empathy_intonation_perc,2024.2.4,Win32,59.88023952,66c7719c71a1c4f4c2e712cd,687ed1b7e638a4cbf2f02089,6881475b36331189b01608d4,,,,,,,,,,,,,,0,,,,,,,,,,,,,,,,,,,,,,,,,,,,,,,,,,,,,,,,,,,,,,,,,,,,,,,,,72,pemición,,,,,535.71,538.4084,0,1,2.18,,0,30,30,71,1,REAL,FAKE,,,,,,,,,,,,,,,,,
,,,,,,,,,66c7719c71a1c4f4c2e712cd,spanish,13 or older,"no, only English or Spanish",no,2025-07-23_16h36.01.295,empathy_intonation_perc,2024.2.4,Win32,59.88023952,66c7719c71a1c4f4c2e712cd,687ed1b7e638a4cbf2f02089,6881475b36331189b01608d4,,,,,,,,,,,,,,1,,,,,,,,,,,,,,,,,,,,,,,,,,,,,,,,,,,,,,,,,,,,,,,,,,,,,,,,,12,asesinato,,,,,538.4124,540.4083,1,1,1.4662,,0,31,31,11,1,REAL,FAKE,,,,,,,,,,,,,,,,,
,,,,,,,,,66c7719c71a1c4f4c2e712cd,spanish,13 or older,"no, only English or Spanish",no,2025-07-23_16h36.01.295,empathy_intonation_perc,2024.2.4,Win32,59.88023952,66c7719c71a1c4f4c2e712cd,687ed1b7e638a4cbf2f02089,6881475b36331189b01608d4,,,,,,,,,,,,,,0,,,,,,,,,,,,,,,,,,,,,,,,,,,,,,,,,,,,,,,,,,,,,,,,,,,,,,,,,42,cadallo,,,,,540.4119,542.0416,1,0,1.1033,,0,32,32,41,1,REAL,FAKE,,,,,,,,,,,,,,,,,
,,,,,,,,,66c7719c71a1c4f4c2e712cd,spanish,13 or older,"no, only English or Spanish",no,2025-07-23_16h36.01.295,empathy_intonation_perc,2024.2.4,Win32,59.88023952,66c7719c71a1c4f4c2e712cd,687ed1b7e638a4cbf2f02089,6881475b36331189b01608d4,,,,,,,,,,,,,,1,,,,,,,,,,,,,,,,,,,,,,,,,,,,,,,,,,,,,,,,,,,,,,,,,,,,,,,,,81,pozo,,,,,542.0448,543.2749,0,0,0.701,,0,33,33,80,1,REAL,FAKE,,,,,,,,,,,,,,,,,
,,,,,,,,,66c7719c71a1c4f4c2e712cd,spanish,13 or older,"no, only English or Spanish",no,2025-07-23_16h36.01.295,empathy_intonation_perc,2024.2.4,Win32,59.88023952,66c7719c71a1c4f4c2e712cd,687ed1b7e638a4cbf2f02089,6881475b36331189b01608d4,,,,,,,,,,,,,,1,,,,,,,,,,,,,,,,,,,,,,,,,,,,,,,,,,,,,,,,,,,,,,,,,,,,,,,,,2,pellizcar,,,,,543.2782,544.6419,0,0,0.829,,0,34,34,1,1,REAL,FAKE,,,,,,,,,,,,,,,,,
,,,,,,,,,66c7719c71a1c4f4c2e712cd,spanish,13 or older,"no, only English or Spanish",no,2025-07-23_16h36.01.295,empathy_intonation_perc,2024.2.4,Win32,59.88023952,66c7719c71a1c4f4c2e712cd,687ed1b7e638a4cbf2f02089,6881475b36331189b01608d4,,,,,,,,,,,,,,1,,,,,,,,,,,,,,,,,,,,,,,,,,,,,,,,,,,,,,,,,,,,,,,,,,,,,,,,,6,tergiversar,,,,,544.6443,546.2247,0,0,1.0491,,0,35,35,5,1,REAL,FAKE,,,,,,,,,,,,,,,,,
,,,,,,,,,66c7719c71a1c4f4c2e712cd,spanish,13 or older,"no, only English or Spanish",no,2025-07-23_16h36.01.295,empathy_intonation_perc,2024.2.4,Win32,59.88023952,66c7719c71a1c4f4c2e712cd,687ed1b7e638a4cbf2f02089,6881475b36331189b01608d4,,,,,,,,,,,,,,0,,,,,,,,,,,,,,,,,,,,,,,,,,,,,,,,,,,,,,,,,,,,,,,,,,,,,,,,,82,empirador,,,,,546.2274,547.5751,1,0,0.8135,,0,36,36,81,1,REAL,FAKE,,,,,,,,,,,,,,,,,
,,,,,,,,,66c7719c71a1c4f4c2e712cd,spanish,13 or older,"no, only English or Spanish",no,2025-07-23_16h36.01.295,empathy_intonation_perc,2024.2.4,Win32,59.88023952,66c7719c71a1c4f4c2e712cd,687ed1b7e638a4cbf2f02089,6881475b36331189b01608d4,,,,,,,,,,,,,,0,,,,,,,,,,,,,,,,,,,,,,,,,,,,,,,,,,,,,,,,,,,,,,,,,,,,,,,,,4,batillón,,,,,547.5776,549.0081,1,0,0.9008,,0,37,37,3,1,REAL,FAKE,,,,,,,,,,,,,,,,,
,,,,,,,,,66c7719c71a1c4f4c2e712cd,spanish,13 or older,"no, only English or Spanish",no,2025-07-23_16h36.01.295,empathy_intonation_perc,2024.2.4,Win32,59.88023952,66c7719c71a1c4f4c2e712cd,687ed1b7e638a4cbf2f02089,6881475b36331189b01608d4,,,,,,,,,,,,,,1,,,,,,,,,,,,,,,,,,,,,,,,,,,,,,,,,,,,,,,,,,,,,,,,,,,,,,,,,48,ladrón,,,,,549.0114,551.1244,1,1,1.5827,,0,38,38,47,1,REAL,FAKE,,,,,,,,,,,,,,,,,
,,,,,,,,,66c7719c71a1c4f4c2e712cd,spanish,13 or older,"no, only English or Spanish",no,2025-07-23_16h36.01.295,empathy_intonation_perc,2024.2.4,Win32,59.88023952,66c7719c71a1c4f4c2e712cd,687ed1b7e638a4cbf2f02089,6881475b36331189b01608d4,,,,,,,,,,,,,,1,,,,,,,,,,,,,,,,,,,,,,,,,,,,,,,,,,,,,,,,,,,,,,,,,,,,,,,,,57,tacaño,,,,,551.1273,552.558,1,1,0.8966,,0,39,39,56,1,REAL,FAKE,,,,,,,,,,,,,,,,,
,,,,,,,,,66c7719c71a1c4f4c2e712cd,spanish,13 or older,"no, only English or Spanish",no,2025-07-23_16h36.01.295,empathy_intonation_perc,2024.2.4,Win32,59.88023952,66c7719c71a1c4f4c2e712cd,687ed1b7e638a4cbf2f02089,6881475b36331189b01608d4,,,,,,,,,,,,,,1,,,,,,,,,,,,,,,,,,,,,,,,,,,,,,,,,,,,,,,,,,,,,,,,,,,,,,,,,34,aviso,,,,,552.5599,553.9411,0,0,0.8482,,0,40,40,33,1,REAL,FAKE,,,,,,,,,,,,,,,,,
,,,,,,,,,66c7719c71a1c4f4c2e712cd,spanish,13 or older,"no, only English or Spanish",no,2025-07-23_16h36.01.295,empathy_intonation_perc,2024.2.4,Win32,59.88023952,66c7719c71a1c4f4c2e712cd,687ed1b7e638a4cbf2f02089,6881475b36331189b01608d4,,,,,,,,,,,,,,1,,,,,,,,,,,,,,,,,,,,,,,,,,,,,,,,,,,,,,,,,,,,,,,,,,,,,,,,,44,cuchara,,,,,553.9441,555.1911,1,1,0.7157,,0,41,41,43,1,REAL,FAKE,,,,,,,,,,,,,,,,,
,,,,,,,,,66c7719c71a1c4f4c2e712cd,spanish,13 or older,"no, only English or Spanish",no,2025-07-23_16h36.01.295,empathy_intonation_perc,2024.2.4,Win32,59.88023952,66c7719c71a1c4f4c2e712cd,687ed1b7e638a4cbf2f02089,6881475b36331189b01608d4,,,,,,,,,,,,,,1,,,,,,,,,,,,,,,,,,,,,,,,,,,,,,,,,,,,,,,,,,,,,,,,,,,,,,,,,25,bisagra,,,,,555.1939,556.6742,1,1,0.9439,,0,42,42,24,1,REAL,FAKE,,,,,,,,,,,,,,,,,
,,,,,,,,,66c7719c71a1c4f4c2e712cd,spanish,13 or older,"no, only English or Spanish",no,2025-07-23_16h36.01.295,empathy_intonation_perc,2024.2.4,Win32,59.88023952,66c7719c71a1c4f4c2e712cd,687ed1b7e638a4cbf2f02089,6881475b36331189b01608d4,,,,,,,,,,,,,,1,,,,,,,,,,,,,,,,,,,,,,,,,,,,,,,,,,,,,,,,,,,,,,,,,,,,,,,,,76,atar,,,,,556.6759,557.8909,1,1,0.6814,,0,43,43,75,1,REAL,FAKE,,,,,,,,,,,,,,,,,
,,,,,,,,,66c7719c71a1c4f4c2e712cd,spanish,13 or older,"no, only English or Spanish",no,2025-07-23_16h36.01.295,empathy_intonation_perc,2024.2.4,Win32,59.88023952,66c7719c71a1c4f4c2e712cd,687ed1b7e638a4cbf2f02089,6881475b36331189b01608d4,,,,,,,,,,,,,,1,,,,,,,,,,,,,,,,,,,,,,,,,,,,,,,,,,,,,,,,,,,,,,,,,,,,,,,,,9,hacha,,,,,557.8945,559.0578,1,1,0.6305,,0,44,44,8,1,REAL,FAKE,,,,,,,,,,,,,,,,,
,,,,,,,,,66c7719c71a1c4f4c2e712cd,spanish,13 or older,"no, only English or Spanish",no,2025-07-23_16h36.01.295,empathy_intonation_perc,2024.2.4,Win32,59.88023952,66c7719c71a1c4f4c2e712cd,687ed1b7e638a4cbf2f02089,6881475b36331189b01608d4,,,,,,,,,,,,,,1,,,,,,,,,,,,,,,,,,,,,,,,,,,,,,,,,,,,,,,,,,,,,,,,,,,,,,,,,49,ganar,,,,,559.0595,560.3243,0,0,0.7325,,0,45,45,48,1,REAL,FAKE,,,,,,,,,,,,,,,,,
,,,,,,,,,66c7719c71a1c4f4c2e712cd,spanish,13 or older,"no, only English or Spanish",no,2025-07-23_16h36.01.295,empathy_intonation_perc,2024.2.4,Win32,59.88023952,66c7719c71a1c4f4c2e712cd,687ed1b7e638a4cbf2f02089,6881475b36331189b01608d4,,,,,,,,,,,,,,1,,,,,,,,,,,,,,,,,,,,,,,,,,,,,,,,,,,,,,,,,,,,,,,,,,,,,,,,,77,tiburón,,,,,560.3258,561.7917,0,0,0.9384,,0,46,46,76,1,REAL,FAKE,,,,,,,,,,,,,,,,,
,,,,,,,,,66c7719c71a1c4f4c2e712cd,spanish,13 or older,"no, only English or Spanish",no,2025-07-23_16h36.01.295,empathy_intonation_perc,2024.2.4,Win32,59.88023952,66c7719c71a1c4f4c2e712cd,687ed1b7e638a4cbf2f02089,6881475b36331189b01608d4,,,,,,,,,,,,,,1,,,,,,,,,,,,,,,,,,,,,,,,,,,,,,,,,,,,,,,,,,,,,,,,,,,,,,,,,61,seda,,,,,561.7943,563.6073,0,0,1.2778,,0,47,47,60,1,REAL,FAKE,,,,,,,,,,,,,,,,,
,,,,,,,,,66c7719c71a1c4f4c2e712cd,spanish,13 or older,"no, only English or Spanish",no,2025-07-23_16h36.01.295,empathy_intonation_perc,2024.2.4,Win32,59.88023952,66c7719c71a1c4f4c2e712cd,687ed1b7e638a4cbf2f02089,6881475b36331189b01608d4,,,,,,,,,,,,,,1,,,,,,,,,,,,,,,,,,,,,,,,,,,,,,,,,,,,,,,,,,,,,,,,,,,,,,,,,13,helar,,,,,563.6087,564.7907,1,1,0.6454,,0,48,48,12,1,REAL,FAKE,,,,,,,,,,,,,,,,,
,,,,,,,,,66c7719c71a1c4f4c2e712cd,spanish,13 or older,"no, only English or Spanish",no,2025-07-23_16h36.01.295,empathy_intonation_perc,2024.2.4,Win32,59.88023952,66c7719c71a1c4f4c2e712cd,687ed1b7e638a4cbf2f02089,6881475b36331189b01608d4,,,,,,,,,,,,,,1,,,,,,,,,,,,,,,,,,,,,,,,,,,,,,,,,,,,,,,,,,,,,,,,,,,,,,,,,83,guante,,,,,564.7932,566.7405,0,0,1.415,,0,49,49,82,1,REAL,FAKE,,,,,,,,,,,,,,,,,
,,,,,,,,,66c7719c71a1c4f4c2e712cd,spanish,13 or older,"no, only English or Spanish",no,2025-07-23_16h36.01.295,empathy_intonation_perc,2024.2.4,Win32,59.88023952,66c7719c71a1c4f4c2e712cd,687ed1b7e638a4cbf2f02089,6881475b36331189b01608d4,,,,,,,,,,,,,,1,,,,,,,,,,,,,,,,,,,,,,,,,,,,,,,,,,,,,,,,,,,,,,,,,,,,,,,,,11,cenefa,,,,,566.7432,568.2905,0,0,1.0132,,0,50,50,10,1,REAL,FAKE,,,,,,,,,,,,,,,,,
,,,,,,,,,66c7719c71a1c4f4c2e712cd,spanish,13 or older,"no, only English or Spanish",no,2025-07-23_16h36.01.295,empathy_intonation_perc,2024.2.4,Win32,59.88023952,66c7719c71a1c4f4c2e712cd,687ed1b7e638a4cbf2f02089,6881475b36331189b01608d4,,,,,,,,,,,,,,1,,,,,,,,,,,,,,,,,,,,,,,,,,,,,,,,,,,,,,,,,,,,,,,,,,,,,,,,,75,yacer,,,,,568.2929,569.3754,0,0,0.5584,,0,51,51,74,1,REAL,FAKE,,,,,,,,,,,,,,,,,
,,,,,,,,,66c7719c71a1c4f4c2e712cd,spanish,13 or older,"no, only English or Spanish",no,2025-07-23_16h36.01.295,empathy_intonation_perc,2024.2.4,Win32,59.88023952,66c7719c71a1c4f4c2e712cd,687ed1b7e638a4cbf2f02089,6881475b36331189b01608d4,,,,,,,,,,,,,,0,,,,,,,,,,,,,,,,,,,,,,,,,,,,,,,,,,,,,,,,,,,,,,,,,,,,,,,,,53,vegada,,,,,569.3805,571.3405,0,1,1.4309,,0,52,52,52,1,REAL,FAKE,,,,,,,,,,,,,,,,,
,,,,,,,,,66c7719c71a1c4f4c2e712cd,spanish,13 or older,"no, only English or Spanish",no,2025-07-23_16h36.01.295,empathy_intonation_perc,2024.2.4,Win32,59.88023952,66c7719c71a1c4f4c2e712cd,687ed1b7e638a4cbf2f02089,6881475b36331189b01608d4,,,,,,,,,,,,,,0,,,,,,,,,,,,,,,,,,,,,,,,,,,,,,,,,,,,,,,,,,,,,,,,,,,,,,,,,92,click the 0 key.,,,,,571.3456,573.9568,0,1,2.0771,,0,53,53,91,1,REAL,FAKE,,,,,,,,,,,,,,,,,
,,,,,,,,,66c7719c71a1c4f4c2e712cd,spanish,13 or older,"no, only English or Spanish",no,2025-07-23_16h36.01.295,empathy_intonation_perc,2024.2.4,Win32,59.88023952,66c7719c71a1c4f4c2e712cd,687ed1b7e638a4cbf2f02089,6881475b36331189b01608d4,,,,,,,,,,,,,,1,,,,,,,,,,,,,,,,,,,,,,,,,,,,,,,,,,,,,,,,,,,,,,,,,,,,,,,,,56,musgo,,,,,573.959,576.2238,1,1,1.7306,,0,54,54,55,1,REAL,FAKE,,,,,,,,,,,,,,,,,
,,,,,,,,,66c7719c71a1c4f4c2e712cd,spanish,13 or older,"no, only English or Spanish",no,2025-07-23_16h36.01.295,empathy_intonation_perc,2024.2.4,Win32,59.88023952,66c7719c71a1c4f4c2e712cd,687ed1b7e638a4cbf2f02089,6881475b36331189b01608d4,,,,,,,,,,,,,,0,,,,,,,,,,,,,,,,,,,,,,,,,,,,,,,,,,,,,,,,,,,,,,,,,,,,,,,,,79,tropaje,,,,,576.225,577.8733,1,0,1.1108,,0,55,55,78,1,REAL,FAKE,,,,,,,,,,,,,,,,,
,,,,,,,,,66c7719c71a1c4f4c2e712cd,spanish,13 or older,"no, only English or Spanish",no,2025-07-23_16h36.01.295,empathy_intonation_perc,2024.2.4,Win32,59.88023952,66c7719c71a1c4f4c2e712cd,687ed1b7e638a4cbf2f02089,6881475b36331189b01608d4,,,,,,,,,,,,,,1,,,,,,,,,,,,,,,,,,,,,,,,,,,,,,,,,,,,,,,,,,,,,,,,,,,,,,,,,86,barato,,,,,577.8754,579.0569,1,1,0.6465,,0,56,56,85,1,REAL,FAKE,,,,,,,,,,,,,,,,,
,,,,,,,,,66c7719c71a1c4f4c2e712cd,spanish,13 or older,"no, only English or Spanish",no,2025-07-23_16h36.01.295,empathy_intonation_perc,2024.2.4,Win32,59.88023952,66c7719c71a1c4f4c2e712cd,687ed1b7e638a4cbf2f02089,6881475b36331189b01608d4,,,,,,,,,,,,,,0,,,,,,,,,,,,,,,,,,,,,,,,,,,,,,,,,,,,,,,,,,,,,,,,,,,,,,,,,70,temblo,,,,,579.0595,580.2899,0,1,0.6974,,0,57,57,69,1,REAL,FAKE,,,,,,,,,,,,,,,,,
,,,,,,,,,66c7719c71a1c4f4c2e712cd,spanish,13 or older,"no, only English or Spanish",no,2025-07-23_16h36.01.295,empathy_intonation_perc,2024.2.4,Win32,59.88023952,66c7719c71a1c4f4c2e712cd,687ed1b7e638a4cbf2f02089,6881475b36331189b01608d4,,,,,,,,,,,,,,0,,,,,,,,,,,,,,,,,,,,,,,,,,,,,,,,,,,,,,,,,,,,,,,,,,,,,,,,,50,flamida,,,,,580.2922,581.4393,0,1,0.6221,,0,58,58,49,1,REAL,FAKE,,,,,,,,,,,,,,,,,
,,,,,,,,,66c7719c71a1c4f4c2e712cd,spanish,13 or older,"no, only English or Spanish",no,2025-07-23_16h36.01.295,empathy_intonation_perc,2024.2.4,Win32,59.88023952,66c7719c71a1c4f4c2e712cd,687ed1b7e638a4cbf2f02089,6881475b36331189b01608d4,,,,,,,,,,,,,,1,,,,,,,,,,,,,,,,,,,,,,,,,,,,,,,,,,,,,,,,,,,,,,,,,,,,,,,,,46,martillo,,,,,581.4406,582.54,0,0,0.5633,,0,59,59,45,1,REAL,FAKE,,,,,,,,,,,,,,,,,
,,,,,,,,,66c7719c71a1c4f4c2e712cd,spanish,13 or older,"no, only English or Spanish",no,2025-07-23_16h36.01.295,empathy_intonation_perc,2024.2.4,Win32,59.88023952,66c7719c71a1c4f4c2e712cd,687ed1b7e638a4cbf2f02089,6881475b36331189b01608d4,,,,,,,,,,,,,,0,,,,,,,,,,,,,,,,,,,,,,,,,,,,,,,,,,,,,,,,,,,,,,,,,,,,,,,,,74,cintro,,,,,582.5422,583.6566,0,1,0.5792,,0,60,60,73,1,REAL,FAKE,,,,,,,,,,,,,,,,,
,,,,,,,,,66c7719c71a1c4f4c2e712cd,spanish,13 or older,"no, only English or Spanish",no,2025-07-23_16h36.01.295,empathy_intonation_perc,2024.2.4,Win32,59.88023952,66c7719c71a1c4f4c2e712cd,687ed1b7e638a4cbf2f02089,6881475b36331189b01608d4,,,,,,,,,,,,,,1,,,,,,,,,,,,,,,,,,,,,,,,,,,,,,,,,,,,,,,,,,,,,,,,,,,,,,,,,15,regar,,,,,583.6592,585.1064,1,1,0.9162,,0,61,61,14,1,REAL,FAKE,,,,,,,,,,,,,,,,,
,,,,,,,,,66c7719c71a1c4f4c2e712cd,spanish,13 or older,"no, only English or Spanish",no,2025-07-23_16h36.01.295,empathy_intonation_perc,2024.2.4,Win32,59.88023952,66c7719c71a1c4f4c2e712cd,687ed1b7e638a4cbf2f02089,6881475b36331189b01608d4,,,,,,,,,,,,,,1,,,,,,,,,,,,,,,,,,,,,,,,,,,,,,,,,,,,,,,,,,,,,,,,,,,,,,,,,69,engatusar,,,,,585.1104,586.6393,0,0,0.9938,,0,62,62,68,1,REAL,FAKE,,,,,,,,,,,,,,,,,
,,,,,,,,,66c7719c71a1c4f4c2e712cd,spanish,13 or older,"no, only English or Spanish",no,2025-07-23_16h36.01.295,empathy_intonation_perc,2024.2.4,Win32,59.88023952,66c7719c71a1c4f4c2e712cd,687ed1b7e638a4cbf2f02089,6881475b36331189b01608d4,,,,,,,,,,,,,,1,,,,,,,,,,,,,,,,,,,,,,,,,,,,,,,,,,,,,,,,,,,,,,,,,,,,,,,,,38,estornudar,,,,,586.6405,588.2566,0,0,1.0794,,0,63,63,37,1,REAL,FAKE,,,,,,,,,,,,,,,,,
,,,,,,,,,66c7719c71a1c4f4c2e712cd,spanish,13 or older,"no, only English or Spanish",no,2025-07-23_16h36.01.295,empathy_intonation_perc,2024.2.4,Win32,59.88023952,66c7719c71a1c4f4c2e712cd,687ed1b7e638a4cbf2f02089,6881475b36331189b01608d4,,,,,,,,,,,,,,1,,,,,,,,,,,,,,,,,,,,,,,,,,,,,,,,,,,,,,,,,,,,,,,,,,,,,,,,,5,zapato,,,,,588.2591,589.6395,1,1,0.8525,,0,64,64,4,1,REAL,FAKE,,,,,,,,,,,,,,,,,
,,,,,,,,,66c7719c71a1c4f4c2e712cd,spanish,13 or older,"no, only English or Spanish",no,2025-07-23_16h36.01.295,empathy_intonation_perc,2024.2.4,Win32,59.88023952,66c7719c71a1c4f4c2e712cd,687ed1b7e638a4cbf2f02089,6881475b36331189b01608d4,,,,,,,,,,,,,,0,,,,,,,,,,,,,,,,,,,,,,,,,,,,,,,,,,,,,,,,,,,,,,,,,,,,,,,,,32,fatacidad,,,,,589.6428,591.0231,0,1,0.847,,0,65,65,31,1,REAL,FAKE,,,,,,,,,,,,,,,,,
,,,,,,,,,66c7719c71a1c4f4c2e712cd,spanish,13 or older,"no, only English or Spanish",no,2025-07-23_16h36.01.295,empathy_intonation_perc,2024.2.4,Win32,59.88023952,66c7719c71a1c4f4c2e712cd,687ed1b7e638a4cbf2f02089,6881475b36331189b01608d4,,,,,,,,,,,,,,0,,,,,,,,,,,,,,,,,,,,,,,,,,,,,,,,,,,,,,,,,,,,,,,,,,,,,,,,,35,rompido,,,,,591.0255,592.5896,1,0,1.0313,,0,66,66,34,1,REAL,FAKE,,,,,,,,,,,,,,,,,
,,,,,,,,,66c7719c71a1c4f4c2e712cd,spanish,13 or older,"no, only English or Spanish",no,2025-07-23_16h36.01.295,empathy_intonation_perc,2024.2.4,Win32,59.88023952,66c7719c71a1c4f4c2e712cd,687ed1b7e638a4cbf2f02089,6881475b36331189b01608d4,,,,,,,,,,,,,,1,,,,,,,,,,,,,,,,,,,,,,,,,,,,,,,,,,,,,,,,,,,,,,,,,,,,,,,,,51,candado,,,,,592.594,593.8727,1,1,0.7521,,0,67,67,50,1,REAL,FAKE,,,,,,,,,,,,,,,,,
,,,,,,,,,66c7719c71a1c4f4c2e712cd,spanish,13 or older,"no, only English or Spanish",no,2025-07-23_16h36.01.295,empathy_intonation_perc,2024.2.4,Win32,59.88023952,66c7719c71a1c4f4c2e712cd,687ed1b7e638a4cbf2f02089,6881475b36331189b01608d4,,,,,,,,,,,,,,0,,,,,,,,,,,,,,,,,,,,,,,,,,,,,,,,,,,,,,,,,,,,,,,,,,,,,,,,,63,esposante,,,,,593.8763,595.1055,1,0,0.7022,,0,68,68,62,1,REAL,FAKE,,,,,,,,,,,,,,,,,
,,,,,,,,,66c7719c71a1c4f4c2e712cd,spanish,13 or older,"no, only English or Spanish",no,2025-07-23_16h36.01.295,empathy_intonation_perc,2024.2.4,Win32,59.88023952,66c7719c71a1c4f4c2e712cd,687ed1b7e638a4cbf2f02089,6881475b36331189b01608d4,,,,,,,,,,,,,,0,,,,,,,,,,,,,,,,,,,,,,,,,,,,,,,,,,,,,,,,,,,,,,,,,,,,,,,,,16,abracer,,,,,595.1071,596.3221,1,0,0.6883,,0,69,69,15,1,REAL,FAKE,,,,,,,,,,,,,,,,,
,,,,,,,,,66c7719c71a1c4f4c2e712cd,spanish,13 or older,"no, only English or Spanish",no,2025-07-23_16h36.01.295,empathy_intonation_perc,2024.2.4,Win32,59.88023952,66c7719c71a1c4f4c2e712cd,687ed1b7e638a4cbf2f02089,6881475b36331189b01608d4,,,,,,,,,,,,,,0,,,,,,,,,,,,,,,,,,,,,,,,,,,,,,,,,,,,,,,,,,,,,,,,,,,,,,,,,47,cartinar,,,,,596.3242,598.1722,1,0,1.3136,,0,70,70,46,1,REAL,FAKE,,,,,,,,,,,,,,,,,
,,,,,,,,,66c7719c71a1c4f4c2e712cd,spanish,13 or older,"no, only English or Spanish",no,2025-07-23_16h36.01.295,empathy_intonation_perc,2024.2.4,Win32,59.88023952,66c7719c71a1c4f4c2e712cd,687ed1b7e638a4cbf2f02089,6881475b36331189b01608d4,,,,,,,,,,,,,,0,,,,,,,,,,,,,,,,,,,,,,,,,,,,,,,,,,,,,,,,,,,,,,,,,,,,,,,,,10,antar,,,,,598.1738,599.439,1,0,0.7328,,0,71,71,9,1,REAL,FAKE,,,,,,,,,,,,,,,,,
,,,,,,,,,66c7719c71a1c4f4c2e712cd,spanish,13 or older,"no, only English or Spanish",no,2025-07-23_16h36.01.295,empathy_intonation_perc,2024.2.4,Win32,59.88023952,66c7719c71a1c4f4c2e712cd,687ed1b7e638a4cbf2f02089,6881475b36331189b01608d4,,,,,,,,,,,,,,0,,,,,,,,,,,,,,,,,,,,,,,,,,,,,,,,,,,,,,,,,,,,,,,,,,,,,,,,,29,decar,,,,,599.4411,600.6885,1,0,0.7123,,0,72,72,28,1,REAL,FAKE,,,,,,,,,,,,,,,,,
,,,,,,,,,66c7719c71a1c4f4c2e712cd,spanish,13 or older,"no, only English or Spanish",no,2025-07-23_16h36.01.295,empathy_intonation_perc,2024.2.4,Win32,59.88023952,66c7719c71a1c4f4c2e712cd,687ed1b7e638a4cbf2f02089,6881475b36331189b01608d4,,,,,,,,,,,,,,1,,,,,,,,,,,,,,,,,,,,,,,,,,,,,,,,,,,,,,,,,,,,,,,,,,,,,,,,,78,frondoso,,,,,600.69,602.0888,0,0,0.8771,,0,73,73,77,1,REAL,FAKE,,,,,,,,,,,,,,,,,
,,,,,,,,,66c7719c71a1c4f4c2e712cd,spanish,13 or older,"no, only English or Spanish",no,2025-07-23_16h36.01.295,empathy_intonation_perc,2024.2.4,Win32,59.88023952,66c7719c71a1c4f4c2e712cd,687ed1b7e638a4cbf2f02089,6881475b36331189b01608d4,,,,,,,,,,,,,,1,,,,,,,,,,,,,,,,,,,,,,,,,,,,,,,,,,,,,,,,,,,,,,,,,,,,,,,,,45,jilguero,,,,,602.0908,603.5907,0,0,0.9735,,0,74,74,44,1,REAL,FAKE,,,,,,,,,,,,,,,,,
,,,,,,,,,66c7719c71a1c4f4c2e712cd,spanish,13 or older,"no, only English or Spanish",no,2025-07-23_16h36.01.295,empathy_intonation_perc,2024.2.4,Win32,59.88023952,66c7719c71a1c4f4c2e712cd,687ed1b7e638a4cbf2f02089,6881475b36331189b01608d4,,,,,,,,,,,,,,1,,,,,,,,,,,,,,,,,,,,,,,,,,,,,,,,,,,,,,,,,,,,,,,,,,,,,,,,,52,camisa,,,,,603.5936,604.8714,1,1,0.7589,,0,75,75,51,1,REAL,FAKE,,,,,,,,,,,,,,,,,
,,,,,,,,,66c7719c71a1c4f4c2e712cd,spanish,13 or older,"no, only English or Spanish",no,2025-07-23_16h36.01.295,empathy_intonation_perc,2024.2.4,Win32,59.88023952,66c7719c71a1c4f4c2e712cd,687ed1b7e638a4cbf2f02089,6881475b36331189b01608d4,,,,,,,,,,,,,,1,,,,,,,,,,,,,,,,,,,,,,,,,,,,,,,,,,,,,,,,,,,,,,,,,,,,,,,,,39,torpe,,,,,604.8724,606.139,0,0,0.7345,,0,76,76,38,1,REAL,FAKE,,,,,,,,,,,,,,,,,
,,,,,,,,,66c7719c71a1c4f4c2e712cd,spanish,13 or older,"no, only English or Spanish",no,2025-07-23_16h36.01.295,empathy_intonation_perc,2024.2.4,Win32,59.88023952,66c7719c71a1c4f4c2e712cd,687ed1b7e638a4cbf2f02089,6881475b36331189b01608d4,,,,,,,,,,,,,,1,,,,,,,,,,,,,,,,,,,,,,,,,,,,,,,,,,,,,,,,,,,,,,,,,,,,,,,,,55,nevar,,,,,606.1417,607.5402,0,0,0.8749,,0,77,77,54,1,REAL,FAKE,,,,,,,,,,,,,,,,,
,,,,,,,,,66c7719c71a1c4f4c2e712cd,spanish,13 or older,"no, only English or Spanish",no,2025-07-23_16h36.01.295,empathy_intonation_perc,2024.2.4,Win32,59.88023952,66c7719c71a1c4f4c2e712cd,687ed1b7e638a4cbf2f02089,6881475b36331189b01608d4,,,,,,,,,,,,,,0,,,,,,,,,,,,,,,,,,,,,,,,,,,,,,,,,,,,,,,,,,,,,,,,,,,,,,,,,17,floroso,,,,,607.5445,608.7554,0,1,0.6856,,0,78,78,16,1,REAL,FAKE,,,,,,,,,,,,,,,,,
,,,,,,,,,66c7719c71a1c4f4c2e712cd,spanish,13 or older,"no, only English or Spanish",no,2025-07-23_16h36.01.295,empathy_intonation_perc,2024.2.4,Win32,59.88023952,66c7719c71a1c4f4c2e712cd,687ed1b7e638a4cbf2f02089,6881475b36331189b01608d4,,,,,,,,,,,,,,1,,,,,,,,,,,,,,,,,,,,,,,,,,,,,,,,,,,,,,,,,,,,,,,,,,,,,,,,,40,alfombra,,,,,608.7597,610.5387,0,0,1.251,,0,79,79,39,1,REAL,FAKE,,,,,,,,,,,,,,,,,
,,,,,,,,,66c7719c71a1c4f4c2e712cd,spanish,13 or older,"no, only English or Spanish",no,2025-07-23_16h36.01.295,empathy_intonation_perc,2024.2.4,Win32,59.88023952,66c7719c71a1c4f4c2e712cd,687ed1b7e638a4cbf2f02089,6881475b36331189b01608d4,,,,,,,,,,,,,,1,,,,,,,,,,,,,,,,,,,,,,,,,,,,,,,,,,,,,,,,,,,,,,,,,,,,,,,,,85,laúd,,,,,610.5438,612.221,1,1,1.1544,,0,80,80,84,1,REAL,FAKE,,,,,,,,,,,,,,,,,
,,,,,,,,,66c7719c71a1c4f4c2e712cd,spanish,13 or older,"no, only English or Spanish",no,2025-07-23_16h36.01.295,empathy_intonation_perc,2024.2.4,Win32,59.88023952,66c7719c71a1c4f4c2e712cd,687ed1b7e638a4cbf2f02089,6881475b36331189b01608d4,,,,,,,,,,,,,,1,,,,,,,,,,,,,,,,,,,,,,,,,,,,,,,,,,,,,,,,,,,,,,,,,,,,,,,,,59,besar,,,,,612.2219,613.4713,1,1,0.7359,,0,81,81,58,1,REAL,FAKE,,,,,,,,,,,,,,,,,
,,,,,,,,,66c7719c71a1c4f4c2e712cd,spanish,13 or older,"no, only English or Spanish",no,2025-07-23_16h36.01.295,empathy_intonation_perc,2024.2.4,Win32,59.88023952,66c7719c71a1c4f4c2e712cd,687ed1b7e638a4cbf2f02089,6881475b36331189b01608d4,,,,,,,,,,,,,,0,,,,,,,,,,,,,,,,,,,,,,,,,,,,,,,,,,,,,,,,,,,,,,,,,,,,,,,,,21,capillo,,,,,613.4721,615.338,0,1,1.3363,,0,82,82,20,1,REAL,FAKE,,,,,,,,,,,,,,,,,
,,,,,,,,,66c7719c71a1c4f4c2e712cd,spanish,13 or older,"no, only English or Spanish",no,2025-07-23_16h36.01.295,empathy_intonation_perc,2024.2.4,Win32,59.88023952,66c7719c71a1c4f4c2e712cd,687ed1b7e638a4cbf2f02089,6881475b36331189b01608d4,,,,,,,,,,,,,,1,,,,,,,,,,,,,,,,,,,,,,,,,,,,,,,,,,,,,,,,,,,,,,,,,,,,,,,,,3,pulmones,,,,,615.3397,617.2551,1,1,1.3764,,0,83,83,2,1,REAL,FAKE,,,,,,,,,,,,,,,,,
,,,,,,,,,66c7719c71a1c4f4c2e712cd,spanish,13 or older,"no, only English or Spanish",no,2025-07-23_16h36.01.295,empathy_intonation_perc,2024.2.4,Win32,59.88023952,66c7719c71a1c4f4c2e712cd,687ed1b7e638a4cbf2f02089,6881475b36331189b01608d4,,,,,,,,,,,,,,1,,,,,,,,,,,,,,,,,,,,,,,,,,,,,,,,,,,,,,,,,,,,,,,,,,,,,,,,,90,clavel,,,,,617.2581,618.8217,0,0,1.0411,,0,84,84,89,1,REAL,FAKE,,,,,,,,,,,,,,,,,
,,,,,,,,,66c7719c71a1c4f4c2e712cd,spanish,13 or older,"no, only English or Spanish",no,2025-07-23_16h36.01.295,empathy_intonation_perc,2024.2.4,Win32,59.88023952,66c7719c71a1c4f4c2e712cd,687ed1b7e638a4cbf2f02089,6881475b36331189b01608d4,,,,,,,,,,,,,,0,,,,,,,,,,,,,,,,,,,,,,,,,,,,,,,,,,,,,,,,,,,,,,,,,,,,,,,,,19,brecedad,,,,,618.8243,620.3885,0,1,1.0294,,0,85,85,18,1,REAL,FAKE,,,,,,,,,,,,,,,,,
,,,,,,,,,66c7719c71a1c4f4c2e712cd,spanish,13 or older,"no, only English or Spanish",no,2025-07-23_16h36.01.295,empathy_intonation_perc,2024.2.4,Win32,59.88023952,66c7719c71a1c4f4c2e712cd,687ed1b7e638a4cbf2f02089,6881475b36331189b01608d4,,,,,,,,,,,,,,1,,,,,,,,,,,,,,,,,,,,,,,,,,,,,,,,,,,,,,,,,,,,,,,,,,,,,,,,,91,click the 1 key.,,,,,620.3937,622.0547,1,1,1.1238,,0,86,86,90,1,REAL,FAKE,,,,,,,,,,,,,,,,,
,,,,,,,,,66c7719c71a1c4f4c2e712cd,spanish,13 or older,"no, only English or Spanish",no,2025-07-23_16h36.01.295,empathy_intonation_perc,2024.2.4,Win32,59.88023952,66c7719c71a1c4f4c2e712cd,687ed1b7e638a4cbf2f02089,6881475b36331189b01608d4,,,,,,,,,,,,,,1,,,,,,,,,,,,,,,,,,,,,,,,,,,,,,,,,,,,,,,,,,,,,,,,,,,,,,,,,71,polvoriento,,,,,622.0581,624.7712,0,0,2.1791,,0,87,87,70,1,REAL,FAKE,,,,,,,,,,,,,,,,,
,,,,,,,,,66c7719c71a1c4f4c2e712cd,spanish,13 or older,"no, only English or Spanish",no,2025-07-23_16h36.01.295,empathy_intonation_perc,2024.2.4,Win32,59.88023952,66c7719c71a1c4f4c2e712cd,687ed1b7e638a4cbf2f02089,6881475b36331189b01608d4,,,,,,,,,,,,,,1,,,,,,,,,,,,,,,,,,,,,,,,,,,,,,,,,,,,,,,,,,,,,,,,,,,,,,,,,65,bizcocho,,,,,624.7736,629.457,1,1,4.1529,,0,88,88,64,1,REAL,FAKE,,,,,,,,,,,,,,,,,
,,,,,,,,,66c7719c71a1c4f4c2e712cd,spanish,13 or older,"no, only English or Spanish",no,2025-07-23_16h36.01.295,empathy_intonation_perc,2024.2.4,Win32,59.88023952,66c7719c71a1c4f4c2e712cd,687ed1b7e638a4cbf2f02089,6881475b36331189b01608d4,,,,,,,,,,,,,,1,,,,,,,,,,,,,,,,,,,,,,,,,,,,,,,,,,,,,,,,,,,,,,,,,,,,,,,,,68,alegre,,,,,629.4608,630.671,1,1,0.6837,,0,89,89,67,1,REAL,FAKE,,,,,,,,,,,,,,,,,
,,,,,,,,,66c7719c71a1c4f4c2e712cd,spanish,13 or older,"no, only English or Spanish",no,2025-07-23_16h36.01.295,empathy_intonation_perc,2024.2.4,Win32,59.88023952,66c7719c71a1c4f4c2e712cd,687ed1b7e638a4cbf2f02089,6881475b36331189b01608d4,,,,,,,,,,,,,,0,,,,,,,,,,,,,,,,,,,,,,,,,,,,,,,,,,,,,,,,,,,,,,,,,,,,,,,,,30,alardio,,,,,630.6738,631.9375,0,1,0.7256,,0,90,90,29,1,REAL,FAKE,,,,,,,,,,,,,,,,,
,,,,,,,,,66c7719c71a1c4f4c2e712cd,spanish,13 or older,"no, only English or Spanish",no,2025-07-23_16h36.01.295,empathy_intonation_perc,2024.2.4,Win32,59.88023952,66c7719c71a1c4f4c2e712cd,687ed1b7e638a4cbf2f02089,6881475b36331189b01608d4,,,,,,,,,,,,,,1,,,,,,,,,,,,,,,,,,,,,,,,,,,,,,,,,,,,,,,,,,,,,,,,,,,,,,,,,14,yunque,,,,,631.9389,633.0067,0,0,0.5384,,0,91,91,13,1,REAL,FAKE,,,,,,,,,,,,,,,,,
,,,,,,,,,66c7719c71a1c4f4c2e712cd,spanish,13 or older,"no, only English or Spanish",no,2025-07-23_16h36.01.295,empathy_intonation_perc,2024.2.4,Win32,59.88023952,66c7719c71a1c4f4c2e712cd,687ed1b7e638a4cbf2f02089,6881475b36331189b01608d4,,,,,,,,,,,,,,,,,,,,,,,,,,,,,,,,,,,,,,,,,,,,,,,,,,,,,,,,,,,,,,,,,,,,,,,,,,,,,,,,,,,,,,,,,,633.009,644.8044,,,,,,,,,,,,,,,
,,,,,,,,,66c7719c71a1c4f4c2e712cd,spanish,13 or older,"no, only English or Spanish",no,2025-07-23_16h36.01.295,empathy_intonation_perc,2024.2.4,Win32,59.88023952,66c7719c71a1c4f4c2e712cd,687ed1b7e638a4cbf2f02089,6881475b36331189b01608d4,,,,,,,,,,,,,1,,,,,,,,,,,,,,,,,,,,,,,,,,,,,,,,,,,,,,,,,,,,,,,,,,,,,,,,,,,,,,,,,,,,,,,,,,,,,,,644.8294,649.1203,slightly agree,0,0,0,0,1,I can easily tell if someone else wants to enter a conversation.,1,0,1,0,,
,,,,,,,,,66c7719c71a1c4f4c2e712cd,spanish,13 or older,"no, only English or Spanish",no,2025-07-23_16h36.01.295,empathy_intonation_perc,2024.2.4,Win32,59.88023952,66c7719c71a1c4f4c2e712cd,687ed1b7e638a4cbf2f02089,6881475b36331189b01608d4,,,,,,,,,,,,,2,,,,,,,,,,,,,,,,,,,,,,,,,,,,,,,,,,,,,,,,,,,,,,,,,,,,,,,,,,,,,,,,,,,,,,,,,,,,,,,649.1229,653.1037,slightly disagree,0,1,1,1,1,I prefer animals to humans.,0,1,0,0,,
,,,,,,,,,66c7719c71a1c4f4c2e712cd,spanish,13 or older,"no, only English or Spanish",no,2025-07-23_16h36.01.295,empathy_intonation_perc,2024.2.4,Win32,59.88023952,66c7719c71a1c4f4c2e712cd,687ed1b7e638a4cbf2f02089,6881475b36331189b01608d4,,,,,,,,,,,,,3,,,,,,,,,,,,,,,,,,,,,,,,,,,,,,,,,,,,,,,,,,,,,,,,,,,,,,,,,,,,,,,,,,,,,,,,,,,,,,,653.1063,655.9697,slightly disagree,0,2,2,2,1,I try to keep up with the current trends and fashions.,0,1,0,0,,
,,,,,,,,,66c7719c71a1c4f4c2e712cd,spanish,13 or older,"no, only English or Spanish",no,2025-07-23_16h36.01.295,empathy_intonation_perc,2024.2.4,Win32,59.88023952,66c7719c71a1c4f4c2e712cd,687ed1b7e638a4cbf2f02089,6881475b36331189b01608d4,,,,,,,,,,,,,4,,,,,,,,,,,,,,,,,,,,,,,,,,,,,,,,,,,,,,,,,,,,,,,,,,,,,,,,,,,,,,,,,,,,,,,,,,,,,,,655.9727,661.3195,slightly agree,0,3,3,3,1,"I find it difficult to explain to others things that I understand easily,   when they don't understand it first time.",1,0,0,1,,
,,,,,,,,,66c7719c71a1c4f4c2e712cd,spanish,13 or older,"no, only English or Spanish",no,2025-07-23_16h36.01.295,empathy_intonation_perc,2024.2.4,Win32,59.88023952,66c7719c71a1c4f4c2e712cd,687ed1b7e638a4cbf2f02089,6881475b36331189b01608d4,,,,,,,,,,,,,5,,,,,,,,,,,,,,,,,,,,,,,,,,,,,,,,,,,,,,,,,,,,,,,,,,,,,,,,,,,,,,,,,,,,,,,,,,,,,,,661.3215,663.9026,slightly agree,0,4,4,4,1,I dream most nights.,0,1,0,0,,
,,,,,,,,,66c7719c71a1c4f4c2e712cd,spanish,13 or older,"no, only English or Spanish",no,2025-07-23_16h36.01.295,empathy_intonation_perc,2024.2.4,Win32,59.88023952,66c7719c71a1c4f4c2e712cd,687ed1b7e638a4cbf2f02089,6881475b36331189b01608d4,,,,,,,,,,,,,6,,,,,,,,,,,,,,,,,,,,,,,,,,,,,,,,,,,,,,,,,,,,,,,,,,,,,,,,,,,,,,,,,,,,,,,,,,,,,,,663.9054,666.6863,slightly disagree,0,5,5,5,1,I really enjoy caring for other people.,1,0,1,0,,
,,,,,,,,,66c7719c71a1c4f4c2e712cd,spanish,13 or older,"no, only English or Spanish",no,2025-07-23_16h36.01.295,empathy_intonation_perc,2024.2.4,Win32,59.88023952,66c7719c71a1c4f4c2e712cd,687ed1b7e638a4cbf2f02089,6881475b36331189b01608d4,,,,,,,,,,,,,7,,,,,,,,,,,,,,,,,,,,,,,,,,,,,,,,,,,,,,,,,,,,,,,,,,,,,,,,,,,,,,,,,,,,,,,,,,,,,,,666.6891,671.6028,slightly agree,0,6,6,6,1,I try to solve my own problems rather than discussing them with others.,0,1,0,0,,
,,,,,,,,,66c7719c71a1c4f4c2e712cd,spanish,13 or older,"no, only English or Spanish",no,2025-07-23_16h36.01.295,empathy_intonation_perc,2024.2.4,Win32,59.88023952,66c7719c71a1c4f4c2e712cd,687ed1b7e638a4cbf2f02089,6881475b36331189b01608d4,,,,,,,,,,,,,8,,,,,,,,,,,,,,,,,,,,,,,,,,,,,,,,,,,,,,,,,,,,,,,,,,,,,,,,,,,,,,,,,,,,,,,,,,,,,,,671.605,676.1528,slightly disagree,0,7,7,7,1,I find it hard to know what to do in a social situation.,1,0,0,1,,
,,,,,,,,,66c7719c71a1c4f4c2e712cd,spanish,13 or older,"no, only English or Spanish",no,2025-07-23_16h36.01.295,empathy_intonation_perc,2024.2.4,Win32,59.88023952,66c7719c71a1c4f4c2e712cd,687ed1b7e638a4cbf2f02089,6881475b36331189b01608d4,,,,,,,,,,,,,9,,,,,,,,,,,,,,,,,,,,,,,,,,,,,,,,,,,,,,,,,,,,,,,,,,,,,,,,,,,,,,,,,,,,,,,,,,,,,,,676.1552,680.5523,slightly agree,0,8,8,8,1,I am at my best first thing in the morning.,0,1,0,0,,
,,,,,,,,,66c7719c71a1c4f4c2e712cd,spanish,13 or older,"no, only English or Spanish",no,2025-07-23_16h36.01.295,empathy_intonation_perc,2024.2.4,Win32,59.88023952,66c7719c71a1c4f4c2e712cd,687ed1b7e638a4cbf2f02089,6881475b36331189b01608d4,,,,,,,,,,,,,10,,,,,,,,,,,,,,,,,,,,,,,,,,,,,,,,,,,,,,,,,,,,,,,,,,,,,,,,,,,,,,,,,,,,,,,,,,,,,,,680.5549,685.7185,slightly disagree,0,9,9,9,1,People often tell me that I went too far in driving my point home in a discussion.,1,0,0,1,,
